Time,Acc_X,Acc_Y,Acc_Z,Meg,Gyr_X,Gyr_Y,Gyr_Z,Ore
16:23:53:078,-0.452,3.4991,8.427,51.9376,0.0055,0.1474,-0.1733,-65.9428
16:23:53:099,-0.467,3.5591,8.3771,52.9397,-0.1404,0.0451,-0.1701,-65.9428
16:23:53:118,-0.6701,3.674,8.4799,51.8356,-0.2672,-0.0359,-0.1658,-65.9428
16:23:53:141,-0.8831,3.777,8.985,51.8356,-0.329,-0.1328,-0.1286,-65.9428
16:23:53:158,-0.845,3.734,9.32,52.3183,-0.2853,-0.2383,-0.071,-65.9428
16:23:53:178,-0.603,3.557,9.2891,51.2861,-0.1821,-0.3054,-0.0411,-65.8345
16:23:53:198,-0.29,3.4271,8.8481,52.3183,-0.1096,-0.3191,-0.0624,-65.719
16:23:53:218,-0.165,3.4031,8.415,52.3183,-0.0957,-0.2393,-0.121,-65.6044
16:23:53:240,-0.347,3.525,8.492,52.8335,-0.1022,-0.0965,-0.1754,-65.4992
16:23:53:259,-0.675,3.698,8.856,52.0453,-0.1031,-0.0241,-0.1924,-65.3639
16:23:53:283,-0.864,3.8561,9.057,51.5396,-0.1031,-0.0561,-0.169,-65.2511
16:23:53:298,-0.84,3.8651,9.069,51.9691,-0.1022,-0.0997,-0.1317,-65.149
16:23:53:318,-0.6731,3.834,9.006,51.9692,-0.0766,-0.0956,-0.1104,-65.0513
16:23:53:338,-0.584,3.782,9.083,51.5298,-0.0414,-0.0859,-0.1147,-64.9553
16:23:53:358,-0.567,3.875,9.018,52.59,-0.0052,-0.1062,-0.1295,-64.8594
16:23:53:378,-0.491,3.959,8.949,52.59,-0.001,-0.0923,-0.1178,-64.7628
16:23:53:399,-0.3371,3.818,9.002,52.59,-0.0095,-0.0965,-0.1147,-64.6648
16:23:53:418,-0.1601,3.686,9.026,51.5317,-0.0104,-0.1104,-0.1477,-64.5656
16:23:53:440,-0.098,3.648,9.095,52.5823,0.0151,-0.0667,-0.2051,-64.465
16:23:53:458,-0.239,3.8771,9.095,51.4787,0.0161,-0.0624,-0.2468,-64.3626
16:23:53:478,-0.371,4.0571,9.215,52.5385,-0.0648,-0.1275,-0.2233,-64.2569
16:23:53:499,-0.234,3.944,9.449,52.5308,-0.1138,-0.1903,-0.1754,-64.147
16:23:53:518,-0.1151,3.6,9.4301,52.1238,-0.067,-0.1466,-0.153,-64.0333
16:23:53:538,-0.189,3.434,9.56,52.1238,0.0055,-0.0231,-0.1636,-63.9166
16:23:53:558,-0.378,3.5591,9.6791,52.1164,0.0556,-0.0027,-0.1743,-63.7978
16:23:53:578,-0.378,3.6071,9.26,52.1164,0.0268,-0.0615,-0.1402,-63.6765
16:23:53:598,-0.402,3.566,8.987,52.1164,-0.0798,-0.0507,-0.0987,-63.5525
16:23:53:618,-0.323,3.4901,9.248,52.1164,-0.1745,0.0164,-0.0422,-63.4266
16:23:53:639,-0.0431,3.437,9.8831,52.1164,-0.1906,0.0547,-0.006,-63.2998
16:23:53:658,0.212,3.332,10.232,52.0706,-0.1415,-0.0209,-0.0038,-63.1742
16:23:53:677,0.416,3.1781,9.935,52.0706,-0.0681,-0.1232,-0.0092,-63.0514
16:23:53:697,0.581,2.982,9.33,52.0706,-0.0243,-0.1082,-0.0007,-62.9319
16:23:53:718,0.746,2.829,9.167,53.144,-0.0041,0.0558,-0.0007,-62.8161
16:23:53:739,0.746,2.7071,9.509,53.1885,0.0129,0.1431,-0.0252,-62.7039
16:23:53:758,0.617,2.577,9.524,53.5423,-0.0115,0.0909,-0.055,-62.5956
16:23:53:780,0.5351,2.417,9.579,52.078,-0.0681,0.0345,-0.0604,-62.4907
16:23:53:798,0.698,2.2331,9.854,53.1268,-0.0488,-0.0209,-0.0837,-62.3882
16:23:53:817,0.8351,2.331,9.71,52.078,0.0789,-0.0795,-0.1573,-62.2877
16:23:53:838,0.6461,2.721,8.853,51.6876,0.1919,-0.0593,-0.1977,-62.1878
16:23:53:857,0.3101,2.984,8.14,52.7499,0.128,0.0377,-0.1488,-62.087
16:23:53:877,0.0401,2.922,8.298,53.1328,-0.1011,0.0877,-0.0518,-61.9846
16:23:53:897,0.1841,2.628,9.227,51.6833,-0.2864,0.0377,0.01,-61.8814
16:23:53:917,0.4661,2.486,9.945,53.1229,-0.2927,-0.0604,-0.0146,-61.7793
16:23:53:937,0.614,2.616,9.837,53.1024,-0.2023,-0.1541,-0.0774,-61.6796
16:23:53:960,0.512,2.8601,9.401,52.7201,-0.1628,-0.1594,-0.1082,-61.582
16:23:53:976,0.413,2.8841,9.366,51.6545,-0.181,-0.121,-0.0859,-61.4858
16:23:53:996,0.507,2.702,9.624,53.0828,-0.1778,-0.0923,-0.0657,-61.3903
16:23:54:017,0.5689,2.541,9.806,52.7131,-0.1085,-0.0604,-0.0965,-61.2958
16:23:54:037,0.435,2.5631,9.878,53.0835,0.0033,-0.0305,-0.1477,-61.2021
16:23:54:056,0.236,2.747,9.741,52.7019,0.1002,-0.0635,-0.1743,-61.1084
16:23:54:077,0.03,2.982,9.246,52.7131,0.1536,-0.0828,-0.153,-61.0136
16:23:54:096,-0.05,3.063,8.7889,52.7131,0.1557,-0.0283,-0.0934,-60.917
16:23:54:116,-0.017,3.1541,8.678,52.7131,0.0683,0.0206,-0.0241,-60.8189
16:23:54:137,-0.045,3.1331,8.903,52.7131,-0.0755,-0.0049,0.0377,-60.7203
16:23:54:156,-0.1511,2.915,9.2,52.7131,-0.1863,-0.0231,0.1059,-60.6237
16:23:54:176,0.131,2.544,9.849,53.7855,-0.2182,0.0015,0.1622,-60.5296
16:23:54:196,0.677,2.2181,10.409,53.7855,-0.1224,-0.0231,0.1155,-60.5296
16:23:54:216,0.698,2.355,10.137,52.7053,0.047,-0.0326,-0.0209,-60.5296
16:23:54:237,0.1601,2.7761,9.6341,52.7234,0.144,0.0516,-0.0742,-60.5296
16:23:54:256,-0.1631,3.039,9.5951,52.7053,0.1376,0.076,-0.0476,-60.5296
16:23:54:276,-0.1031,3.1931,9.5711,52.7123,0.1035,-0.0038,-0.0209,-60.5296
16:23:54:296,0.014,3.2861,9.311,53.1123,0.0971,-0.0561,-0.0146,-60.5296
16:23:54:316,0.054,3.4181,9.014,52.7234,0.0874,-0.0615,0.0047,-60.5296
16:23:54:337,0.114,3.4391,8.753,52.7304,0.0417,-0.0411,0.0483,-60.5296
16:23:54:356,0.248,3.2381,8.865,53.1114,-0.0052,0.0099,0.0803,-60.5296
16:23:54:376,0.26,3.0371,9.1571,52.7304,-0.018,0.0355,0.0675,-60.5296
16:23:54:396,0.1841,2.9651,9.3941,52.7304,-0.0052,0.0164,0.044,-60.5296
16:23:54:416,0.114,3.0371,9.4211,52.7304,0.0236,-0.0231,0.026,-60.5296
16:23:54:438,-0.021,3.1691,9.141,52.7304,0.0492,-0.0263,0.0355,-60.5296
16:23:54:456,-0.041,3.174,8.994,52.7615,0.0428,0.0195,0.0814,-60.5296
16:23:54:476,0.107,3.035,9.138,53.8216,0.0214,0.0312,0.1048,-60.5296
16:23:54:496,0.1361,3.006,9.107,53.8216,0.0023,0.0153,0.0857,-60.5296
16:23:54:516,0.114,3.0611,9.045,52.7234,-0.0434,-0.0038,0.0771,-60.5296
16:23:54:537,0.1961,3.044,9.0881,52.7234,-0.0829,-0.0177,0.0792,-60.5296
16:23:54:556,0.332,2.8961,9.1451,52.7441,-0.0829,0.0153,0.0653,-60.5296
16:23:54:575,0.368,2.903,9.423,52.7304,-0.0488,0.0803,0.0238,-60.5296
16:23:54:595,0.222,3.08,9.66,52.7304,0.0098,0.0824,-0.0188,-60.5296
16:23:54:616,0.018,3.267,9.471,52.7304,0.0481,0.0601,-0.0252,-60.5296
16:23:54:635,-0.012,3.276,9.224,52.7545,0.0417,0.0601,0.0004,-60.5296
16:23:54:655,0.09,3.128,9.1361,52.7234,0.0044,0.0525,0.0143,-60.5296
16:23:54:675,0.1601,3.006,9.1841,53.1114,-0.0308,0.0568,-0.0027,-60.5296
16:23:54:695,0.014,3.078,9.363,53.1114,-0.0446,0.0771,-0.0326,-60.5296
16:23:54:716,-0.122,3.197,9.5381,53.1114,-0.0201,0.0931,-0.0368,-60.5296
16:23:54:735,-0.249,3.296,9.6101,53.1041,0.0151,0.0771,-0.0316,-60.5296
16:23:54:755,-0.318,3.332,9.413,52.0443,0.0342,0.0302,-0.007,-60.5296
16:23:54:775,-0.239,3.279,9.1811,53.1114,0.0203,0.0047,0.0227,-60.5296
16:23:54:795,-0.084,3.197,9.105,53.1428,0.0098,0.0206,0.0355,-60.5296
16:23:54:815,-0.05,3.171,9.1,53.1114,0.0076,0.0516,0.0323,-60.5296
16:23:54:834,-0.0761,3.183,9.215,52.0767,-0.0041,0.0707,0.0323,-60.5296
16:23:54:854,-0.0791,3.2021,9.3731,53.1114,-0.0126,0.059,0.0302,-60.5296
16:23:54:875,-0.129,3.174,9.4181,53.1114,-0.0147,0.0451,0.0249,-60.5296
16:23:54:894,-0.1481,3.14,9.543,53.1114,-0.0041,0.043,0.0227,-60.5296
16:23:54:914,-0.1631,3.09,9.507,52.0443,0.0098,0.0121,0.0143,-60.5296
16:23:54:934,-0.191,3.111,9.294,53.1428,0.0118,0.0099,0.0067,-60.5296
16:23:54:954,-0.234,3.185,9.315,53.1428,0.0118,0.0302,0.0047,-60.5296
16:23:54:974,-0.278,3.233,9.287,53.1114,0.0246,0.0238,0.0089,-60.5296
16:23:54:994,-0.234,3.245,9.227,53.1114,0.0257,0.0227,0.0206,-60.5296
16:23:55:015,-0.146,3.2411,9.1481,52.0443,0.0236,0.0067,0.0217,-60.5296
16:23:55:034,-0.134,3.2651,8.975,53.1428,0.0129,0.0004,0.0249,-60.5296
16:23:55:066,-0.1601,3.224,8.9441,53.1428,-0.0084,0.0195,0.0377,-60.5296
16:23:55:074,-0.1631,3.075,9.0881,53.1114,-0.0286,0.0345,0.0505,-60.5296
16:23:55:094,-0.086,2.915,9.143,53.1114,-0.0382,0.0217,0.0462,-60.5296
16:23:55:115,0.014,2.838,9.1691,53.5091,-0.0414,0.0302,0.0269,-60.5296
16:23:55:134,0.026,2.879,9.26,53.509,-0.0573,0.0217,-0.0113,-60.5296
16:23:55:154,-0.038,3.039,9.399,53.1114,-0.0477,0.0153,-0.0411,-60.5296
16:23:55:174,-0.134,3.171,9.344,53.5091,-0.0232,0.0217,-0.0507,-60.5296
16:23:55:194,-0.218,3.2501,9.3461,53.5411,-0.0137,0.0483,-0.038,-60.5296
16:23:55:214,-0.2441,3.257,9.464,53.1114,-0.0095,0.0525,-0.0283,-60.5296
16:23:55:234,-0.242,3.3,9.485,53.5091,-0.0095,0.0217,-0.0348,-60.5296
16:23:55:254,-0.3131,3.384,9.339,53.5091,-0.0147,-0.006,-0.038,-60.5296
16:23:55:274,-0.3971,3.3821,9.327,53.5091,-0.0254,-0.0177,-0.0146,-60.5296
16:23:55:294,-0.3251,3.279,9.315,53.5091,-0.018,-0.0263,0.0175,-60.5296
16:23:55:315,-0.201,3.116,9.1309,52.4491,-0.0052,-0.0263,0.0269,-60.5296
16:23:55:334,-0.177,3.059,8.9471,53.1114,-0.0243,-0.007,0.0175,-60.5296
16:23:55:354,-0.167,3.023,9.05,53.509,-0.0638,0.011,0.0153,-60.5296
16:23:55:374,-0.096,2.9171,9.308,53.5091,-0.0786,0.0015,0.0015,-60.5296
16:23:55:394,-0.1121,2.9561,9.401,53.5091,-0.0468,0.0056,-0.0283,-60.5296
16:23:55:414,-0.213,3.104,9.411,53.5091,-0.0137,0.0121,-0.0368,-60.5296
16:23:55:434,-0.2681,3.2021,9.272,54.5551,-0.018,-0.0092,-0.0188,-60.5296
16:23:55:454,-0.2081,3.183,9.234,53.1114,-0.0499,0.0067,0.0047,-60.5296
16:23:55:474,-0.146,3.078,9.509,53.509,-0.069,0.0089,0.0132,-60.5296
16:23:55:494,-0.0881,2.96,9.6,53.5091,-0.052,-0.0188,0.0058,-60.5296
16:23:55:514,-0.0521,2.8961,9.543,53.1114,-0.0223,-0.0252,-0.0305,-60.5296
16:23:55:534,-0.1871,3.044,9.545,53.5091,0.0098,-0.0124,-0.0572,-60.5296
16:23:55:554,-0.3521,3.207,9.4181,53.4897,0.0194,-0.0283,-0.0454,-60.5296
16:23:55:574,-0.3761,3.183,9.203,53.0928,0.0023,-0.0294,-0.0049,-60.5296
16:23:55:594,-0.1841,3.0131,9.222,54.1651,-0.0212,-0.0252,0.0184,-60.5296
16:23:55:615,-0.0551,2.939,9.275,53.0928,-0.0201,-0.0209,-0.006,-60.5296
16:23:55:634,-0.155,3.042,9.3581,53.0928,-0.0158,-0.0049,-0.0263,-60.5296
16:23:55:654,-0.239,3.0731,9.464,53.4897,-0.0019,-0.0038,-0.0092,-60.5296
16:23:55:674,-0.129,2.97,9.33,53.1114,0.0044,-0.0241,0.0047,-60.5296
16:23:55:694,-0.038,2.946,9.1931,53.0928,0.0001,-0.0135,-0.007,-60.5296
16:23:55:714,-0.1481,3.042,9.282,53.1114,-0.0126,0.0067,-0.0135,-60.5296
16:23:55:734,-0.134,3.066,9.452,53.1114,-0.0158,0.0036,-0.0007,-60.5296
16:23:55:754,-0.048,3.047,9.524,54.5365,-0.0041,-0.0146,-0.0049,-60.5296
16:23:55:774,-0.038,3.035,9.4451,53.1114,0.0044,-0.0326,-0.0124,-60.5296
16:23:55:794,-0.05,3.054,9.339,53.1114,-0.001,-0.0402,-0.0124,-60.5296
16:23:55:814,-0.0311,3.0491,9.296,53.0928,0.0012,-0.0337,-0.0103,-60.5296
16:23:55:834,-0.038,3.035,9.215,53.1114,0.0129,-0.022,-0.007,-60.5296
16:23:55:854,-0.036,2.9891,9.129,53.1114,0.0172,-0.0081,0.0036,-60.5296
16:23:55:874,0.042,2.927,9.138,53.1114,0.0087,-0.006,0.0015,-60.5296
16:23:55:894,0.042,2.9891,9.119,53.0928,0.0033,-0.0124,-0.0146,-60.5296
16:23:55:913,-0.0191,3.159,9.105,52.0443,-0.001,-0.0146,-0.0177,-60.5296
16:23:55:934,-0.0551,3.312,9.0851,53.1114,0.0109,-0.0038,-0.0018,-60.5296
16:23:55:954,-0.0881,3.3581,8.9441,53.1114,0.0257,0.0323,0.0238,-60.5296
16:23:55:974,-0.0911,3.396,8.882,53.1114,0.0044,0.0632,0.0536,-60.5296
16:23:55:994,-0.0311,3.3821,8.978,52.0249,-0.0584,0.0516,0.0781,-60.5296
16:23:56:014,0.0371,3.365,9.176,54.1651,-0.1085,0.0195,0.0857,-60.5296
16:23:56:034,0.1091,3.389,9.411,53.5091,-0.0957,0.0249,0.0835,-60.5296
16:23:56:054,0.1091,3.509,9.5021,53.0928,-0.036,0.0408,0.0792,-60.5296
16:23:56:074,0.054,3.581,9.4061,53.4897,-0.001,0.0184,0.0942,-60.5296
16:23:56:094,0.093,3.528,9.215,53.0928,0.0012,-0.0092,0.1239,-60.5296
16:23:56:114,0.234,3.375,9.133,53.509,0.0172,0.0323,0.1357,-60.5296
16:23:56:134,0.179,3.3461,9.152,53.5091,0.0492,0.0974,0.1261,-60.5296
16:23:56:153,-0.0641,3.308,9.071,53.1114,0.0374,0.1079,0.1324,-60.5296
16:23:56:173,-0.12,3.279,9.023,53.1114,-0.0275,0.0857,0.1517,-60.5296
16:23:56:194,-0.038,3.162,9.203,52.4491,-0.0616,0.0857,0.1517,-60.5296
16:23:56:213,-0.1391,3.164,9.2171,53.5091,-0.019,0.1059,0.125,-60.5296
16:23:56:233,-0.218,3.243,9.0851,53.509,0.0331,0.1324,0.1187,-60.5296
16:23:56:253,-0.3641,3.3551,8.798,53.509,0.0268,0.1485,0.1229,-60.5296
16:23:56:273,-0.452,3.305,8.791,53.509,-0.0318,0.1357,0.158,-60.5296
16:23:56:294,-0.33,3.1781,8.786,53.509,-0.0861,0.0579,0.1613,-60.5296
16:23:56:314,-0.378,3.2171,8.52,53.9222,-0.1298,0.0345,0.1229,-60.5296
16:23:56:334,-0.4691,3.341,8.6899,53.51,-0.1702,0.1005,0.1079,-60.5296
16:23:56:354,-0.45,3.482,8.975,53.9222,-0.1693,0.14,0.0803,-60.5296
16:23:56:374,-0.4211,3.798,9.15,53.895,-0.15,0.1528,0.0227,-60.5296
16:23:56:394,-0.5291,4.227,9.311,52.8675,-0.1298,0.1357,-0.038,-60.5296
16:23:56:414,-0.699,4.677,9.3491,52.8499,-0.1192,0.0686,-0.0689,-60.5296
16:23:56:434,-0.8951,4.9481,9.227,52.8579,-0.1064,0.0494,-0.039,-60.5296
16:23:56:454,-1.02,4.8851,9.272,52.858,-0.0829,0.0866,0.0525,-60.5296
16:23:56:474,-0.936,4.574,9.447,52.858,-0.036,0.0686,0.1495,-60.5296
16:23:56:494,-0.752,4.071,9.162,53.92,0.0311,0.0067,0.1793,-60.5296
16:23:56:514,-0.7061,3.959,8.748,53.8845,0.0822,-0.0092,0.14,-60.5296
16:23:56:534,-0.792,4.155,8.5541,53.9121,0.1056,-0.0124,0.1112,-60.5296
16:23:56:554,-0.783,4.373,8.396,52.8785,0.0939,-0.0593,0.1293,-60.5296
16:23:56:574,-0.491,4.404,8.238,52.8715,0.0598,-0.0785,0.19,-60.5296
16:23:56:594,-0.1121,4.1741,8.0891,52.8704,0.0151,-0.0465,0.2082,-60.5296
16:23:56:616,-0.036,4.0331,8.307,53.9212,-0.0232,0.0558,0.1548,-60.5296
16:23:56:637,-0.345,4.158,8.9591,53.9212,-0.0147,0.1357,0.0824,-60.5296
16:23:56:655,-0.725,4.469,9.492,53.9222,0.0374,0.1154,0.0653,-60.5296
16:23:56:675,-0.9071,4.545,9.497,54.3412,0.0843,0.011,0.1048,-60.5296
16:23:56:696,-0.72,4.4591,9.1121,53.9548,0.0832,-0.0795,0.1463,-60.5296
16:23:56:715,-0.656,4.292,8.81,53.9548,0.0459,-0.07,0.1559,-60.5296
16:23:56:737,-0.546,4.143,9.09,53.9548,-0.0232,0.0067,0.19,-60.5296
16:23:56:756,-0.299,3.9131,9.662,53.9469,-0.0638,0.0771,0.2284,-60.5296
16:23:56:776,0.095,3.468,10.232,54.3823,-0.0265,0.1911,0.2251,-60.5296
16:23:56:796,0.401,3.372,10.716,54.391,0.08,0.2549,0.1079,-60.6243
16:23:56:816,0.3971,3.5351,10.9241,53.4129,0.2548,0.2464,-0.0337,-60.7234
16:23:56:837,0.459,3.621,10.524,54.4262,0.3623,0.0942,-0.1488,-60.8244
16:23:56:856,0.318,3.7271,9.753,54.4176,0.2707,-0.1508,-0.2489,-60.9237
16:23:56:876,0.0611,3.813,9.026,54.0033,0.0322,-0.3021,-0.2947,-61.0178
16:23:56:896,-0.1601,3.954,9.0971,55.0484,-0.1948,-0.2776,-0.3128,-61.0178
16:23:56:916,-0.864,3.992,9.741,53.9589,-0.2981,-0.1573,-0.252,-61.0178
16:23:56:937,-0.96,3.612,10.5821,55.0062,-0.279,-0.1499,-0.0646,-61.0178
16:23:56:956,-0.273,2.853,10.6061,55.005,-0.1415,-0.2255,0.0516,-61.0178
16:23:56:975,0.363,2.28,10.1081,54.9879,0.0407,-0.2329,0.0397,-61.0178
16:23:56:995,0.7271,2.252,9.425,55.0314,0.1738,-0.2031,-0.0337,-61.0178
16:23:57:016,0.794,2.477,8.772,54.6258,0.1695,-0.1743,-0.0976,-61.0178
16:23:57:037,0.617,2.6591,8.2001,54.6429,0.0311,-0.1221,-0.121,-61.0178
16:23:57:097,0.483,2.606,8.2091,54.6243,-0.1852,-0.0209,-0.0902,-61.0178
16:23:57:098,0.4901,2.472,8.853,55.6668,-0.2938,0.1207,-0.0817,-61.0178
16:23:57:098,0.626,2.4341,9.447,55.0391,-0.1895,0.1761,-0.1158,-61.0178
16:23:57:115,0.8201,2.484,9.042,56.0472,-0.001,0.1324,-0.1977,-61.0178
16:23:57:135,0.83,2.57,8.015,55.005,0.1781,0.2091,-0.3352,-61.0178
16:23:57:156,0.224,3.104,7.577,55.0406,0.3634,0.5085,-0.4012,-61.0178
16:23:57:175,-0.3731,3.681,7.7111,55.9333,0.4933,0.8143,-0.2606,-61.0178
16:23:57:195,-0.414,3.5951,8.475,54.9535,0.4294,0.8238,-0.0496,-61.0178
16:23:57:216,-0.1271,3.183,8.745,56.4221,0.2047,0.4009,-0.0316,-61.0178
16:23:57:238,-0.062,3.1211,8.568,54.9266,-0.0883,-0.0667,-0.0987,-61.0178
16:23:57:256,-0.041,3.185,8.496,55.9464,-0.2885,-0.2798,-0.1232,-61.0178
16:23:57:275,-0.069,3.408,8.9081,55.9148,-0.2885,-0.2179,-0.1221,-61.0178
16:23:57:295,-0.1871,3.609,9.5831,55.8981,-0.1554,-0.0624,-0.0667,-61.0178
16:23:57:315,-0.155,3.396,9.878,55.8981,0.0322,-0.0593,0.0025,-61.0178
16:23:57:337,0.128,3.104,9.4729,55.9714,0.1866,-0.1306,0.0078,-61.0178
16:23:57:356,0.291,3.0731,8.915,55.9631,0.2696,-0.169,-0.0742,-61.0178
16:23:57:377,-0.024,3.2291,8.5661,55.9547,0.2718,-0.1093,-0.1508,-61.0178
16:23:57:395,-0.299,3.348,8.394,55.9629,0.1994,0.011,-0.1391,-61.0178
16:23:57:415,-0.4361,3.372,8.568,56.0233,0.0513,0.1005,-0.0912,-61.0178
16:23:57:436,-0.507,3.332,9.1481,56.9958,-0.1277,0.1303,-0.0582,-61.0178
16:23:57:455,-0.4091,3.351,10.101,56.9877,-0.2097,0.1346,-0.07,-61.0178
16:23:57:474,-0.404,3.209,10.728,57.424,-0.117,0.0888,-0.1669,-61.0178
16:23:57:496,-0.833,2.987,10.728,56.3907,-0.0052,-0.0231,-0.3202,-61.0178
16:23:57:515,-1.5731,3.396,10.3781,56.9302,0.0183,-0.1317,-0.3447,-61.0178
16:23:57:536,-1.872,3.1781,10.0571,55.8981,-0.0755,-0.0572,-0.104,-61.0178
16:23:57:555,-1.491,2.628,10.539,56.3561,-0.1458,0.0206,0.0632,-61.0178
16:23:57:576,-1.3481,2.357,11.042,56.9302,-0.0137,0.0184,-0.0081,-61.0178
16:23:57:595,-1.463,2.5871,11.235,56.9773,0.2644,0.0099,-0.1104,-61.0178
16:23:57:616,-1.455,2.762,10.781,57.5045,0.5061,-0.1167,-0.0752,-61.0178
16:23:57:637,-1.1921,2.9651,9.342,57.484,0.5445,-0.2531,0.0047,-61.0178
16:23:57:656,-1.286,3.111,8.238,57.1232,0.2867,-0.2745,0.0632,-61.0178
16:23:57:675,-1.4531,3.2141,7.8911,57.0214,-0.0712,-0.2606,0.1059,-61.0178
16:23:57:696,-1.479,3.494,8.8601,57.0215,-0.3769,-0.2233,0.1634,-61.0178
16:23:57:716,-1.314,3.978,9.84,56.592,-0.4078,-0.414,0.2486,-61.0178
16:23:57:738,-1.317,3.758,10.041,57.6387,-0.2501,-0.4353,0.4084,-61.0178
16:23:57:756,-1.367,2.862,9.876,58.3669,-0.0382,-0.3821,0.6172,-61.0178
16:23:57:775,-0.357,2.886,9.0881,58.3549,0.1216,-0.5567,0.679,-61.0178
16:23:57:795,0.2291,3.372,7.575,56.967,0.1684,-0.4791,0.646,-61.0178
16:23:57:814,0.3011,3.722,6.971,58.0314,0.1173,-0.2926,0.6278,-61.0178
16:23:57:839,0.296,3.3581,7.6541,57.7524,0.0439,-0.3117,0.5767,-61.0178
16:23:57:856,0.5689,2.8931,8.322,57.4168,0.1013,-0.544,0.4851,-61.0178
16:23:57:876,0.942,3.449,7.685,57.2125,0.1557,-0.6804,0.3466,-61.0178
16:23:57:895,1.481,3.81,6.8951,58.2761,0.0982,-0.6548,0.2358,-61.0178
16:23:57:915,1.6301,3.693,6.629,57.0344,-0.1511,-0.6526,0.0857,-61.0178
16:23:57:938,1.6061,3.813,7.158,57.82,-0.3088,-0.3842,-0.1136,-61.1129
16:23:57:954,1.3451,3.77,8.3621,57.8024,-0.2608,-0.0678,-0.2893,-61.2114
16:23:57:974,0.89,3.276,10.5791,58.1117,-0.034,0.1548,-0.3532,-61.3069
16:23:57:994,0.885,2.9291,9.639,57.7908,0.1067,-0.3895,-0.3927,-61.3069
16:23:58:014,0.914,3.473,8.748,56.5942,0.0896,-0.1658,-0.4246,-61.3069
16:23:58:034,0.54,3.506,8.8219,56.6001,0.1024,0.239,-0.3501,-61.3069
16:23:58:055,0.8831,3.207,10.031,58.1046,0.1173,0.7099,-0.2531,-61.3069
16:23:58:075,1.275,2.9891,11.9441,58.4718,-0.0883,0.2219,-0.349,-61.3069
16:23:58:096,1.476,2.81,11.8001,58.0304,-0.0798,-0.3629,-0.6857,-61.3069
16:23:58:115,0.77,3.513,11.001,57.7127,-0.0957,-0.6696,-0.9818,-61.3069
16:23:58:136,0.0611,4.287,10.271,58.7243,-0.1958,-0.6505,-0.9808,-61.3069
16:23:58:156,0.071,4.136,10.907,58.6906,-0.1948,-0.3267,-0.7432,-61.3069
16:23:58:176,0.83,3.0611,11.523,58.6804,0.014,-0.2426,-0.5877,-61.3069
16:23:58:195,1.254,2.699,10.7831,58.696,0.3432,-0.1147,-0.6633,-61.2124
16:23:58:216,0.8441,2.97,9.6911,58.7895,0.4998,0.0015,-0.6644,-61.0954
16:23:58:238,0.5351,3.224,9.035,58.7864,0.3475,0.0462,-0.5632,-60.9575
16:23:58:256,0.1211,3.363,8.487,58.7864,-0.0243,-0.0103,-0.4087,-60.8007
16:23:58:275,0.267,3.15,8.8601,58.7104,-0.3439,-0.0241,-0.2062,-60.6275
16:23:58:295,0.6791,2.7191,9.2771,58.687,-0.459,-0.0348,-0.103,-60.4423
16:23:58:316,0.5861,2.465,9.255,58.6316,-0.4377,0.0217,-0.0869,-60.25
16:23:58:339,0.459,2.271,9.26,58.9268,-0.3706,0.1335,-0.071,-60.0545
16:23:58:355,0.5021,2.19,9.2291,58.5941,-0.2501,0.1409,-0.0997,-59.858
16:23:58:375,0.564,2.405,8.796,58.5941,-0.1277,0.0056,-0.2105,-59.662
16:23:58:395,0.306,3.092,8.075,58.8608,-0.036,-0.0689,-0.3011,-59.4662
16:23:58:415,0.102,3.65,7.659,58.5327,-0.019,0.0516,-0.25,-59.2688
16:23:58:435,0.392,3.7031,7.9361,58.8608,-0.0286,0.1986,-0.1562,-59.0684
16:23:58:455,0.818,3.65,8.3479,60.0121,0.0246,0.2848,-0.1477,-58.8658
16:23:58:475,0.9311,3.719,8.3051,59.196,0.1269,0.3061,-0.2042,-58.6625
16:23:58:496,0.547,3.995,8.192,59.2524,0.1792,0.418,-0.2062,-58.459
16:23:58:515,0.1691,4.038,8.496,59.6019,0.1547,0.5085,-0.1178,-58.2549
16:23:58:535,0.071,3.794,9.009,59.578,0.0502,0.4243,-0.0337,-58.0508
16:23:58:555,0.191,3.4151,9.4571,61.0159,-0.036,0.2369,-0.0155,-57.8481
16:23:58:575,0.3611,3.2621,9.744,59.9346,-0.0371,0.0249,-0.0624,-57.6488
16:23:58:595,0.224,3.303,9.26,59.9346,0.0033,-0.1093,-0.0976,-57.4536
16:23:58:615,-0.1751,3.324,8.9471,59.9346,-0.0041,0.0132,-0.0444,-57.2622
16:23:58:635,-0.309,3.078,9.38,59.9346,-0.0456,0.2421,0.0547,-57.0752
16:23:58:655,-0.081,2.841,10.194,59.9346,-0.0584,0.3424,0.0846,-56.8915
16:23:58:674,0.33,2.889,10.8161,60.3181,0.0076,0.1452,-0.0018,-56.7133
16:23:58:695,0.198,3.4901,10.1891,60.02,0.1343,-0.071,-0.1627,-56.5412
16:23:58:715,-0.7421,4.007,9.442,59.9346,0.1844,0.0355,-0.1488,-56.3734
16:23:58:735,-1.628,4.124,9.342,60.3931,0.0578,0.2688,0.0962,-56.2075
16:23:58:756,-1.286,3.3221,10.445,60.7092,-0.1522,0.3552,0.3626,-56.0437
16:23:58:776,-0.455,2.465,11.456,60.3884,-0.1895,0.0952,0.3541,-55.887
16:23:58:795,-0.29,2.3981,11.144,60.3884,-0.0169,-0.186,0.19,-55.742
16:23:58:816,-0.5741,2.774,10.0931,60.4817,0.1834,-0.2426,0.1335,-55.6097
16:23:58:835,-1.01,2.817,8.8219,60.4792,0.2175,-0.1019,0.1921,-55.4883
16:23:58:856,-1.125,2.592,8.379,61.6526,0.0289,0.173,0.3402,-55.3766
16:23:58:874,-0.522,2.297,9.1961,60.4851,-0.2427,0.2145,0.4009,-55.2755
16:23:58:895,-0.17,2.4071,9.837,60.4723,-0.3876,-0.0135,0.3136,-55.2755
16:23:58:915,-0.081,2.637,9.7031,60.4595,-0.3428,-0.1999,0.2742,-55.2755
16:23:58:935,0.219,2.6951,9.3011,60.4467,-0.1852,-0.2393,0.271,-55.2755
16:23:58:956,0.473,2.8601,8.6861,61.1661,-0.0223,-0.2457,0.2145,-55.2755
16:23:58:975,0.4091,2.9921,8.025,60.082,0.0715,-0.1786,0.1485,-55.2755
16:23:58:995,0.3221,3.027,7.764,61.2648,0.1291,-0.0326,0.0952,-55.2755
16:23:59:015,0.057,3.1661,7.8911,61.6131,0.1919,0.0536,0.0388,-55.2755
16:23:59:036,-0.158,3.219,7.905,61.7329,0.2474,0.0142,0.0291,-55.2755
16:23:59:056,-0.165,3.269,7.659,61.7156,0.2548,-0.072,0.0388,-55.2755
16:23:59:089,-0.098,3.2741,7.472,61.4901,0.1994,-0.1093,0.0302,-55.2755
16:23:59:094,-0.0911,3.257,7.5791,60.4333,0.1567,-0.0561,-0.0018,-55.2755
16:23:59:116,-0.117,3.281,8.027,61.852,0.1664,0.0738,-0.0368,-55.2755
16:23:59:136,-0.1151,3.3461,8.664,60.9275,0.2122,0.1048,-0.0817,-55.2755
16:23:59:156,-0.1001,3.585,9.047,61.9894,0.258,-0.0326,-0.1371,-55.2755
16:23:59:176,-0.098,3.8561,9.0401,61.9756,0.2728,-0.2127,-0.1754,-55.2755
16:23:59:196,-0.342,4.038,8.8219,62.127,0.2633,-0.2915,-0.1775,-55.2755
16:23:59:215,-0.515,4.1501,8.5751,62.127,0.2185,-0.1082,-0.0795,-55.2755
16:23:59:236,-0.105,3.7271,9.3491,62.2924,0.1653,0.2668,0.061,-55.2755
16:23:59:257,0.543,3.0251,10.8911,62.4444,0.2995,0.4073,-0.0188,-55.2755
16:23:59:276,0.3971,3.4271,11.286,61.7905,0.6233,0.2859,-0.2403,-55.2755
16:23:59:296,-0.282,4.368,10.046,62.6184,0.6659,-0.0487,-0.2745,-55.2755
16:23:59:316,-0.3611,5.115,8.7101,62.5916,0.1578,-0.3469,-0.1072,-55.2755
16:23:59:336,0.176,5.036,8.7431,62.0842,-0.411,-0.4151,0.0814,-55.2755
16:23:59:357,0.363,3.909,9.531,62.4379,-0.6017,-0.1786,0.2028,-55.2755
16:23:59:376,0.66,2.889,10.6541,61.9114,-0.5357,0.1911,0.2294,-55.2755
16:23:59:397,0.746,2.1221,12.234,62.2591,-0.314,0.3828,0.158,-55.2755
16:23:59:416,0.6311,1.988,12.3461,62.6313,-0.0477,0.1836,0.0227,-55.2755
16:23:59:436,0.207,2.625,11.001,62.2591,0.0225,-0.0294,-0.1008,-55.2755
16:23:59:457,-0.0431,3.1421,9.921,62.2591,-0.183,-0.3021,-0.0582,-55.2755
16:23:59:476,0.071,3.078,9.3341,61.8904,-0.4729,-0.4726,0.0143,-55.2755
16:23:59:496,0.3341,2.4701,9.5261,62.8147,-0.5698,-0.3778,0.0143,-55.2755
16:23:59:516,0.5711,2.1701,9.7991,62.7657,-0.3939,-0.1147,-0.088,-55.2755
16:23:59:535,0.3701,2.388,10.019,62.6488,-0.0851,0.0962,-0.2031,-55.2755
16:23:59:557,0.057,2.7311,9.4691,62.0851,0.1962,0.0345,-0.2659,-55.2755
16:23:59:576,-0.117,3.2411,8.123,62.7802,0.341,-0.0837,-0.2531,-55.2755
16:23:59:596,-0.153,3.626,6.873,61.8822,0.3059,-0.1338,-0.1881,-55.2755
16:23:59:617,-0.057,3.959,6.2531,62.9532,0.161,-0.0732,-0.0954,-55.2755
16:23:59:635,0.018,4.1051,6.44,63.2923,0.0214,0.0462,0.01,-55.2755
16:23:59:655,0.0281,4.026,6.9911,62.9397,-0.0595,0.1314,0.1155,-55.2755
16:23:59:676,0.222,3.758,7.785,63.3094,-0.0766,0.1804,0.206,-55.2755
16:23:59:696,0.717,3.509,8.4581,63.4568,-0.0169,0.1431,0.2039,-55.2755
16:23:59:715,1.16,3.6521,8.702,63.4568,0.078,0.1335,0.1324,-55.2755
16:23:59:736,1.467,3.6,8.8151,63.823,0.1195,0.0877,0.0132,-55.2755
16:23:59:757,1.56,3.566,9.054,62.403,0.1482,0.0249,-0.153,-55.2755
16:23:59:777,0.8591,3.401,9.263,62.403,0.2303,-0.0177,-0.2372,-55.2755
16:23:59:796,0.665,3.3701,8.664,62.9576,0.3847,0.0547,-0.2265,-55.2755
16:23:59:816,0.296,3.363,7.496,63.3471,0.3304,0.4052,-0.2372,-55.2755
16:23:59:836,-0.39,3.1331,7.833,63.9816,0.1684,0.7344,-0.1551,-55.2755
16:23:59:858,-0.2539,2.5061,9.258,62.8957,0.2292,1.1029,-0.103,-55.2755
16:23:59:876,-0.335,2.855,11.355,63.2913,0.7298,1.3351,-0.1605,-55.2755
16:23:59:896,-1.056,3.6191,10.8911,63.8536,1.2594,0.8026,-0.1456,-55.1853
16:23:59:916,-1.925,4.208,8.3149,63.0213,1.0292,0.2944,0.0462,-55.0908
16:23:59:936,-1.5701,4.677,6.9281,62.9684,0.2494,-0.0582,0.3061,-54.9924
16:23:59:958,0.0371,4.17,7.053,63.9277,-0.5164,-0.0624,0.3444,-54.8948
16:23:59:976,0.519,3.504,9.0281,63.5391,-0.8286,0.157,0.0175,-54.8948
16:23:59:995,-0.68,3.3911,10.271,63.318,-0.6912,0.3103,-0.2702,-54.8948
16:24:00:016,-2.442,3.8561,11.118,63.4469,-0.3663,0.5033,-0.2201,-54.8948
16:24:00:034,-3.0671,4.067,11.645,63.2413,-0.0434,0.2305,0.0738,-54.8948
16:24:00:057,-2.93,3.6791,10.11,63.6644,0.0672,-0.006,0.4052,-54.8948
16:24:00:076,-1.7981,3.669,8.8961,63.4379,-0.0701,-0.0752,0.6469,-54.8948
16:24:00:096,-0.785,3.2501,8.2811,62.957,-0.3183,-0.1414,0.7066,-54.8948
16:24:00:116,0.045,2.9201,8.288,62.485,-0.5283,-0.349,0.6054,-54.8948
16:24:00:136,0.4181,2.805,8.231,63.4844,-0.6805,-0.5908,0.386,-54.8948
16:24:00:156,0.1481,2.522,8.549,62.7954,-0.7552,-0.6483,0.1858,-54.8948
16:24:00:176,0.164,2.403,8.6501,62.1632,-0.6753,-0.7452,0.0536,-54.8948
16:24:00:195,0.069,2.465,8.303,62.6053,-0.5164,-0.8007,-0.0678,-54.8948
16:24:00:216,-0.215,2.9411,7.524,63.2816,-0.3759,-0.7879,-0.1178,-54.8948
16:24:00:237,0.119,3.2861,6.897,63.5698,-0.3865,-0.4918,-0.0837,-54.8948
16:24:00:257,0.102,3.102,7.4771,62.0753,-0.411,-0.202,-0.0954,-54.8948
16:24:00:275,-0.0881,3.15,7.97,63.356,-0.2864,-0.0092,-0.1456,-54.8948
16:24:00:296,-0.6341,3.8651,7.6511,62.318,-0.2373,0.2699,-0.0891,-54.8948
16:24:00:315,-0.6941,3.8651,8.5751,63.6177,-0.3513,0.5713,0.0217,-54.8948
16:24:00:336,-0.632,3.6641,10.244,63.0349,-0.3631,0.7461,0.0803,-54.8948
16:24:00:355,-0.809,3.698,11.3051,63.4993,-0.1372,0.8345,0.0931,-54.8948
16:24:00:375,-0.9791,4.098,11.178,63.1459,0.0758,0.9261,0.125,-54.8948
16:24:00:395,-1.302,4.4501,10.737,63.4852,0.0439,0.8174,0.2124,-54.8948
16:24:00:416,-1.616,4.356,10.4,63.1908,-0.1702,0.615,0.3924,-54.8948
16:24:00:436,-0.606,3.4661,11.5871,62.515,-0.4132,0.3103,0.501,-54.8948
16:24:00:458,-0.0311,2.7551,12.4211,63.4775,-0.5325,-0.1882,0.3231,-54.8948
16:24:00:476,0.354,2.4821,12.212,63.4595,-0.4601,-0.4459,0.0729,-54.8948
16:24:00:496,0.224,2.573,12.207,62.8377,-0.2364,-0.3384,-0.1701,-54.8948
16:24:00:515,-0.2201,2.999,11.9471,63.3097,-0.0243,-0.2009,-0.267,-54.8948
16:24:00:536,-0.333,3.224,12.164,62.8202,-0.0095,-0.1636,-0.2478,-54.8948
16:24:00:558,-0.2111,2.798,12.729,62.8114,0.0374,-0.3149,-0.2617,-54.8948
16:24:00:576,-0.155,2.201,11.868,63.3738,0.1983,-0.5226,-0.316,-54.8948
16:24:00:596,-0.2681,2.024,9.914,63.5278,0.2921,-0.5301,-0.3106,-54.8948
16:24:00:616,-0.237,2.048,8.271,63.4989,0.1471,-0.3959,-0.186,-54.8948
16:24:00:636,0.069,1.893,8.154,63.3526,-0.1298,-0.2255,-0.0177,-54.8948
16:24:00:658,0.512,1.4111,8.824,62.8994,-0.2822,-0.0976,0.0931,-54.8948
16:24:00:676,1.014,0.767,9.239,62.8995,-0.2672,-0.007,0.059,-54.8948
16:24:00:697,1.2611,0.5261,9.2051,63.2248,-0.1511,0.0984,-0.1295,-54.8948
16:24:00:716,0.813,1.079,9.1481,63.6804,0.0322,0.2603,-0.3469,-54.8948
16:24:00:735,-0.036,1.754,8.8391,63.6804,0.1471,0.2251,-0.4331,-54.8948
16:24:00:758,-0.3641,2.19,8.1491,63.6967,0.0982,-0.0124,-0.4055,-54.8948
16:24:00:776,-0.134,2.321,7.4741,63.6684,-0.0371,-0.298,-0.3745,-54.8948
16:24:00:797,0.0641,2.4791,7.058,63.2161,-0.1042,-0.3906,-0.366,-54.8948
16:24:00:816,0.081,2.7191,6.732,63.0773,-0.0798,-0.202,-0.3352,-54.8948
16:24:00:835,0.021,2.901,7.022,63.5291,-0.0318,0.1176,-0.2585,-54.8948
16:24:00:858,0.1211,2.628,7.85,63.5485,-0.0275,0.2412,-0.2159,-54.8948
16:24:00:877,0.253,2.5631,8.444,64.0119,-0.0681,0.2294,-0.2511,-54.8948
16:24:00:895,0.116,2.7521,9.363,63.916,-0.0914,0.322,-0.2819,-54.8948
16:24:00:916,-0.1391,2.822,10.73,63.4074,-0.0243,0.3316,-0.2787,-54.8948
16:24:00:935,-0.419,3.138,11.1491,63.4235,0.0993,0.1431,-0.252,-54.8948
16:24:00:956,-0.653,3.363,10.6061,63.4235,0.0982,-0.1573,-0.1636,-54.7968
16:24:00:976,-0.503,3.3341,9.861,62.9257,-0.0542,-0.2776,-0.0615,-54.6934
16:24:00:997,-0.3401,2.9891,10.541,63.4103,-0.1724,-0.0657,0.0089,-54.5867
16:24:01:016,-0.191,2.546,12.404,63.4074,-0.0371,0.158,0.01,-54.4794
16:24:01:036,-0.048,2.2901,13.115,64.3899,0.2474,-0.0667,-0.0826,-54.3737
16:24:01:058,-0.1991,2.6231,11.001,63.9117,0.2804,-0.6218,-0.1988,-54.2698
16:24:01:077,-0.9581,3.102,8.537,63.4382,-0.0137,-0.7964,-0.1594,-54.166
16:24:01:111,-1.235,3.375,9.078,63.8583,-0.2566,-0.283,0.0483,-54.0602
16:24:01:115,-1.101,3.0731,11.4491,62.8472,-0.1213,0.3285,0.2347,-53.9538
16:24:01:135,-0.9,2.336,12.7271,62.9794,0.1673,0.3359,0.2912,-53.8507
16:24:01:156,-0.749,1.847,11.367,62.9632,0.3037,-0.0774,0.2614,-53.7548
16:24:01:176,-0.785,1.641,9.5381,63.6297,0.1844,-0.3523,0.2464,-53.7548
16:24:01:195,-0.68,1.107,8.769,62.6225,0.0428,-0.2798,0.2838,-53.7548
16:24:01:216,-0.462,0.6881,8.9681,63.082,0.0129,0.0067,0.2454,-53.7548
16:24:01:235,-0.464,0.9371,9.3341,63.073,0.062,0.2625,0.1676,-53.7548
16:24:01:259,-0.534,1.538,9.21,63.0891,0.0578,0.2998,0.1452,-53.7548
16:24:01:277,-0.539,2.1581,8.829,63.0802,-0.0403,0.1869,0.2017,-53.7548
16:24:01:297,-0.4601,2.3021,8.523,63.0802,-0.133,0.0494,0.2859,-53.7548
16:24:01:317,-0.249,2.304,8.1881,62.5807,-0.166,-0.0113,0.322,-53.7548
16:24:01:336,-0.167,2.2691,8.015,62.0765,-0.1074,0.0397,0.322,-53.7548
16:24:01:360,-0.213,2.3261,7.749,62.7195,-0.0382,0.1261,0.2838,-53.7548
16:24:01:376,-0.45,2.534,7.8401,62.7252,-0.0084,0.1761,0.2592,-53.7548
16:24:01:397,-0.381,2.822,8.1251,62.7158,-0.0073,0.1101,0.2668,-53.7548
16:24:01:416,-0.218,2.996,8.286,62.7195,-0.018,0.0142,0.2625,-53.7548
16:24:01:436,-0.146,2.9441,8.367,62.7102,-0.0073,-0.0263,0.2497,-53.7548
16:24:01:459,-0.014,2.7761,8.561,62.8749,0.0055,0.0227,0.2028,-53.7548
16:24:01:476,-0.098,2.75,9.179,63.3969,0.0556,0.1548,0.1239,-53.7548
16:24:01:496,-0.203,2.8121,9.89,61.8976,0.161,0.2006,0.0408,-53.7548
16:24:01:516,-0.357,2.8931,9.83,61.8976,0.2431,0.0781,-0.0422,-53.7548
16:24:01:537,-0.471,3.0611,9.212,61.9071,0.2207,-0.0572,-0.103,-53.7548
16:24:01:559,-0.6341,3.2411,8.987,62.4255,0.1343,-0.0305,-0.1414,-53.7548
16:24:01:578,-0.78,3.339,9.6821,61.6383,0.0939,0.1528,-0.1434,-53.7548
16:24:01:597,-0.656,3.063,11.03,62.0206,0.1429,0.2944,-0.1414,-53.7548
16:24:01:616,-0.3131,2.601,12.0881,62.1907,0.2463,0.1783,-0.2414,-53.7548
16:24:01:636,-0.395,2.877,11.583,62.0307,0.2867,-0.1402,-0.4407,-53.7548
16:24:01:656,-1.0991,4.0001,10.4261,62.4428,0.1706,-0.3267,-0.4928,-53.7548
16:24:01:677,-1.487,4.8401,9.8111,62.0035,-0.0542,-0.3011,-0.2659,-53.7548
16:24:01:696,-0.8861,4.002,11.1041,61.9934,-0.2225,-0.072,0.0058,-53.7548
16:24:01:717,-0.225,2.5031,12.947,61.4552,-0.0329,0.0388,0.0164,-53.7548
16:24:01:736,-0.0551,1.4351,12.698,61.4397,0.3879,-0.0274,-0.136,-53.7548
16:24:01:761,-0.227,1.3661,9.816,62.4039,0.5115,-0.2648,-0.2511,-53.7548
16:24:01:776,-0.213,1.749,7.577,61.4301,0.2227,-0.4001,-0.1701,-53.7548
16:24:01:794,0.069,1.751,7.017,61.4243,-0.1213,-0.3106,-0.0188,-53.7548
16:24:01:815,0.5351,1.4741,7.8641,62.3807,-0.3365,-0.0624,0.0899,-53.7548
16:24:01:835,0.89,1.064,9.1639,62.2388,-0.3706,0.1314,0.0899,-53.7548
16:24:01:855,0.998,0.9371,9.818,61.2762,-0.2736,0.2699,-0.0348,-53.7548
16:24:01:875,0.332,1.3301,10.283,61.8155,-0.1682,0.3178,-0.186,-53.7548
16:24:01:895,-0.3161,1.869,10.283,61.6693,-0.0766,0.1943,-0.2255,-53.7548
16:24:01:915,-0.4811,2.175,9.4301,61.1204,-0.0829,-0.0859,-0.2265,-53.7548
16:24:01:935,-0.378,2.702,8.391,60.9885,-0.1361,-0.3288,-0.25,-53.7548
16:24:01:954,-0.366,3.434,7.251,60.9885,-0.1639,-0.3927,-0.2105,-53.7548
16:24:01:975,-0.158,3.5831,6.782,60.9729,-0.1969,-0.2713,-0.0859,-53.7548
16:24:01:995,0.306,3.1541,7.101,60.8519,-0.1884,-0.0945,-0.007,-53.7548
16:24:02:015,0.5981,2.817,7.67,59.8837,-0.1128,0.0738,-0.0433,-53.7548
16:24:02:034,0.444,2.9291,8.279,60.8419,-0.0275,0.2071,-0.1264,-53.7548
16:24:02:055,-0.189,3.42,8.985,60.4591,0.0374,0.3051,-0.1371,-53.7548
16:24:02:074,-0.68,3.674,9.899,60.4591,0.0854,0.3018,-0.0198,-53.7548
16:24:02:094,-0.548,3.4751,10.412,60.5818,0.095,0.1165,0.1196,-53.7548
16:24:02:114,-0.1121,3.0851,10.469,60.5818,0.0822,-0.1147,0.1719,-53.7548
16:24:02:134,0.014,2.7521,10.2041,60.5785,0.1173,-0.1456,0.1272,-53.7548
16:24:02:154,-0.206,2.664,10.311,60.5632,0.1972,0.0718,0.0738,-53.7548
16:24:02:174,-0.5291,2.678,10.797,60.2012,0.2591,0.2646,0.0803,-53.7548
16:24:02:196,-0.414,2.5991,11.334,60.3507,0.2696,0.2294,0.1027,-53.7548
16:24:02:214,-0.122,2.6711,11.3261,59.7559,0.2856,-0.006,0.0525,-53.7548
16:24:02:234,-0.23,2.97,10.1891,59.7559,0.2898,-0.2489,-0.0113,-53.7548
16:24:02:254,-0.596,3.353,8.8271,59.7595,0.161,-0.2574,0.0195,-53.7548
16:24:02:275,-0.914,3.516,8.942,59.7407,-0.0297,-0.0252,0.1676,-53.7548
16:24:02:294,-0.953,3.123,10.299,58.8195,-0.1022,0.2113,0.3561,-53.7548
16:24:02:314,-0.555,2.3711,11.0681,58.8159,-0.1011,0.1485,0.4669,-53.7548
16:24:02:333,0.138,1.581,11.1371,58.8097,-0.1053,-0.088,0.4317,-53.7548
16:24:02:354,0.401,1.098,10.323,59.8842,-0.0425,-0.2435,0.2784,-53.7548
16:24:02:374,0.21,0.897,9.27,58.7947,0.0129,-0.121,0.1282,-53.7548
16:24:02:394,-0.237,0.822,9.0851,58.7947,0.03,0.1452,0.0217,-53.7548
16:24:02:414,-0.641,1.1771,9.282,58.7947,0.0151,0.2625,-0.0263,-53.7548
16:24:02:434,-0.768,1.8731,8.954,58.7947,-0.084,0.1282,0.0025,-53.7548
16:24:02:454,-0.6101,2.4311,8.451,58.7947,-0.2523,-0.1019,0.0974,-53.7548
16:24:02:474,-0.275,2.582,8.13,58.6501,-0.3259,-0.1935,0.1878,-53.7548
16:24:02:494,0.1721,2.489,7.929,58.0837,-0.3024,-0.1456,0.2113,-53.7548
16:24:02:514,0.392,2.388,8.123,58.0837,-0.2278,-0.0402,0.1655,-53.7548
16:24:02:534,0.155,2.369,8.3651,58.6573,-0.1383,0.011,0.0909,-53.7548
16:24:02:554,0.078,2.436,8.1709,57.9713,-0.1394,-0.0848,0.0664,-53.7548
16:24:02:574,0.3611,2.276,7.9271,57.9609,-0.2247,-0.2574,0.0323,-53.7548
16:24:02:594,0.533,2.3141,7.881,57.9321,-0.2833,-0.3299,-0.0859,-53.7548
16:24:02:614,0.231,2.5991,8.2571,57.9064,-0.2086,-0.1743,-0.2446,-53.7548
16:24:02:634,-0.416,3.1301,8.678,57.8084,0.0087,0.1293,-0.366,-53.7548
16:24:02:654,-1.154,3.561,9.021,57.4678,0.1855,0.3327,-0.381,-53.7548
16:24:02:674,-1.5941,3.899,9.306,57.4678,0.2207,0.3413,-0.3097,-53.7548
16:24:02:694,-1.733,4.0331,9.6221,57.4499,0.1738,0.2369,-0.186,-53.7548
16:24:02:714,-1.6301,3.873,10.1681,57.4499,0.0928,0.1111,-0.0657,-53.7548
16:24:02:734,-1.3121,3.686,10.742,56.5329,0.078,0.0473,0.0195,-53.7548
16:24:02:754,-0.9911,3.351,11.243,57.4607,0.1141,0.0601,0.0718,-53.7548
16:24:02:774,-0.522,2.8721,11.942,56.5219,0.1844,0.0355,0.059,-53.7548
16:24:02:794,-0.2441,2.544,11.8481,56.51,0.2782,-0.1253,-0.0539,-53.7548
16:24:02:814,-0.443,2.817,10.488,56.5019,0.2377,-0.3149,-0.1892,-53.7548
16:24:02:834,-0.752,3.3341,9.536,55.9092,0.0459,-0.2489,-0.2031,-53.7548
16:24:02:855,-0.8351,3.557,10.323,56.5058,-0.0786,0.0931,-0.07,-53.7548
16:24:02:878,-0.3401,2.522,12.437,56.4948,0.0066,0.3519,0.0366,-53.7548
16:24:02:894,0.059,1.352,12.938,56.4799,0.3026,0.175,-0.0476,-53.7548
16:24:02:915,0.059,1.016,10.29,57.409,0.3805,-0.1925,-0.1966,-53.7548
16:24:02:936,-0.1151,1.658,8.334,56.3756,0.1024,-0.2915,-0.1849,-53.7548
16:24:02:955,0.002,2.0051,8.286,54.851,-0.1202,-0.103,-0.022,-53.7548
16:24:02:975,0.401,1.7111,9.1691,54.8593,-0.2373,0.061,0.1101,-53.7548
16:24:02:995,0.885,1.332,9.876,54.7647,-0.2736,0.0803,0.1293,-53.7548
16:24:03:014,0.971,1.179,10.127,53.8462,-0.2193,0.0749,0.0397,-53.7548
16:24:03:036,0.576,1.2611,9.978,54.7623,-0.1361,0.0664,-0.0582,-53.7548
16:24:03:055,0.167,1.517,9.5711,54.7623,-0.0744,0.011,-0.1062,-53.7548
16:24:03:077,0.0041,1.799,8.9441,55.6942,-0.0542,-0.1125,-0.1306,-53.7548
16:24:03:096,-0.1031,2.235,8.123,55.6206,-0.0488,-0.2819,-0.1838,-53.7548
16:24:03:126,-0.3251,2.817,6.998,55.5946,-0.0798,-0.3842,-0.1627,-53.7548
16:24:03:135,-0.129,2.879,6.203,54.0033,-0.1991,-0.3938,-0.038,-53.7548
16:24:03:156,0.461,2.3981,6.131,54.9483,-0.345,-0.3074,0.0622,-53.7548
16:24:03:178,1.0841,1.802,6.9161,54.3645,-0.4462,-0.1988,0.0206,-53.7548
16:24:03:196,1.479,1.617,8.135,53.3864,-0.3759,-0.0294,-0.1871,-53.7548
16:24:03:216,1.074,2.082,8.8481,54.8934,-0.1277,0.2156,-0.4183,-53.7548
16:24:03:236,0.212,2.9441,9.002,53.8991,0.0544,0.4201,-0.4993,-53.7548
16:24:03:256,-0.486,3.6911,9.7181,54.4913,0.0407,0.4829,-0.43,-53.7548
16:24:03:277,-0.752,4.0451,10.883,54.4966,0.0279,0.2975,-0.2628,-53.7548
16:24:03:296,-0.426,3.83,10.685,54.4966,0.0342,-0.0774,-0.103,-53.6564
16:24:03:316,-0.096,3.4181,9.809,53.5152,-0.0212,-0.2116,-0.0433,-53.5511
16:24:03:337,-0.378,3.1061,10.122,53.5531,-0.0126,0.0397,0.0067,-53.4424
16:24:03:356,-0.5531,2.7311,10.9391,53.5531,0.1002,0.2443,0.0974,-53.3346
16:24:03:378,-0.1991,2.3381,10.8521,53.8896,0.1152,0.0888,0.1282,-53.2278
16:24:03:396,-0.1031,2.417,9.9551,52.9511,0.0066,-0.1669,0.0781,-53.1247
16:24:03:416,-0.6491,2.649,9.1091,53.5051,-0.1085,-0.1093,0.0686,-53.0266
16:24:03:436,-1.295,3.035,9.3941,53.5089,-0.2171,0.3146,0.1963,-52.9336
16:24:03:456,-1.29,2.982,11.7431,52.576,-0.2256,0.7099,0.4126,-52.9336
16:24:03:477,-0.948,2.328,13.769,53.2503,-0.0936,0.5543,0.5266,-52.9336
16:24:03:496,-0.4811,1.6871,13.235,52.615,0.0161,-0.0402,0.5287,-52.9336
16:24:03:516,-0.041,1.371,11.2331,52.688,0.0225,-0.4609,0.4777,-52.9336
16:24:03:535,0.162,0.918,9.497,53.016,-0.0062,-0.4791,0.4329,-52.9336
16:24:03:557,0.3101,0.399,9.054,52.065,-0.0201,-0.1381,0.3498,-52.9336
16:24:03:578,0.1571,0.078,9.885,52.0667,0.0886,0.2284,0.1963,-52.9336
16:24:03:596,-0.234,0.3101,9.8111,52.6673,0.1962,0.2731,0.0451,-52.9336
16:24:03:616,-0.5651,1.119,8.9561,52.6559,0.1482,0.1059,-0.0124,-52.9336
16:24:03:636,-0.6701,1.938,8.195,52.6559,0.0044,-0.0976,0.0536,-52.9336
16:24:03:655,-0.45,2.264,7.776,52.0705,-0.0989,-0.1925,0.1389,-52.9336
16:24:03:679,-0.1481,2.2781,7.613,52.0594,-0.0851,-0.1264,0.1719,-52.9336
16:24:03:697,-0.093,2.261,7.443,52.1363,-0.0243,-0.0177,0.142,-52.9336
16:24:03:716,-0.4091,2.51,7.3331,52.0594,0.0044,0.059,0.1144,-52.9336
16:24:03:736,-0.735,2.877,7.362,52.1363,-0.0243,0.0994,0.1645,-52.9336
16:24:03:754,-0.843,3.008,7.6871,52.0649,-0.0957,0.0899,0.2634,-52.9336
16:24:03:774,-0.5861,2.834,8.173,52.0538,-0.1639,0.0366,0.3444,-52.9336
16:24:03:795,-0.222,2.501,8.786,52.1252,-0.166,0.0153,0.3455,-52.9336
16:24:03:816,-0.033,2.304,9.1931,52.1252,-0.1031,0.0164,0.2549,-52.9336
16:24:03:836,-0.0641,2.4101,9.5711,52.1363,-0.0318,0.0132,0.1272,-52.9336
16:24:03:856,-0.2201,2.726,9.615,52.1363,0.0417,-0.0316,0.0153,-52.9336
16:24:03:879,-0.234,3.047,9.306,52.0705,0.0811,-0.0837,-0.0561,-53.0242
16:24:03:896,-0.222,3.2,8.889,51.1465,0.0715,-0.055,-0.0795,-53.1162
16:24:03:918,-0.543,2.8721,9.133,51.1465,0.0502,0.0473,-0.0837,-53.2066
16:24:03:937,-0.8261,2.321,9.603,51.1465,0.0374,0.1272,-0.0732,-53.2066
16:24:03:956,-0.756,2.094,10.101,51.1464,-0.0062,0.1239,-0.0987,-53.2066
16:24:03:979,-0.5981,2.2061,10.9601,51.1316,-0.0104,0.0909,-0.1594,-53.2066
16:24:03:996,-0.725,2.537,11.051,51.1465,0.0661,-0.0049,-0.2426,-53.2066
16:24:04:015,-1.13,3.111,10.139,51.1351,-0.0073,-0.0496,-0.2179,-53.2066
16:24:04:037,-1.1561,3.4901,10.316,51.0844,-0.2373,0.0994,-0.0252,-53.2066
16:24:04:056,-0.5501,3.147,12.689,50.2372,-0.3279,0.3433,0.1878,-53.2066
16:24:04:078,0.212,2.154,15.011,50.2372,-0.1011,0.2901,0.2432,-53.2066
16:24:04:095,0.5861,1.091,14.379,50.2372,0.225,-0.1551,0.0846,-53.2066
16:24:04:116,0.258,1.0451,11.427,50.5721,0.3187,-0.4907,-0.1295,-53.2066
16:24:04:136,-0.335,1.6991,9.3581,50.5571,0.2483,-0.4641,-0.1466,-53.2066
16:24:04:156,-0.1511,1.775,8.3771,51.507,0.1323,-0.2531,0.01,-53.2066
16:24:04:179,0.555,1.184,8.367,50.5627,-0.0126,-0.0806,0.0942,-53.2066
16:24:04:196,0.926,0.755,8.915,50.5627,-0.0979,-0.0049,0.0143,-53.2066
16:24:04:216,0.6461,0.846,9.1931,49.6095,-0.0818,0.0579,-0.1286,-53.2066
16:24:04:236,0.073,1.2491,9.2,50.5195,-0.036,0.109,-0.2031,-53.2066
16:24:04:257,-0.1721,1.488,8.994,49.5946,-0.0041,0.0931,-0.1988,-53.2066
16:24:04:279,-0.1871,1.5671,8.405,49.5946,-0.001,-0.0337,-0.1881,-53.2066
16:24:04:298,-0.1001,1.8041,7.46,49.902,-0.0542,-0.1722,-0.2094,-53.2066
16:24:04:316,-0.0641,2.2571,6.9431,49.9161,-0.1031,-0.153,-0.2255,-53.2066
16:24:04:336,-0.0431,2.5991,6.9521,50.5054,-0.0605,0.0291,-0.2127,-53.2066
16:24:04:357,0.0281,2.652,7.254,49.5794,-0.0095,0.2379,-0.1935,-53.2066
16:24:04:378,-0.0311,2.6831,7.9361,49.5794,0.0364,0.3626,-0.2031,-53.2066
16:24:04:396,-0.2801,2.817,8.535,48.6815,0.0683,0.4232,-0.2042,-53.2066
16:24:04:416,-0.687,3.1301,9.1721,49.3186,0.0789,0.4606,-0.1573,-53.2066
16:24:04:437,-0.95,3.3821,10.022,48.4526,0.0939,0.4797,-0.0454,-53.2066
16:24:04:456,-0.7091,3.2141,10.907,49.3305,0.1514,0.3509,0.0525,-53.2066
16:24:04:479,-0.29,3.032,10.6661,47.7875,0.1994,0.0408,0.0664,-53.2066
16:24:04:496,-0.191,2.886,9.801,48.6901,0.1354,-0.1818,0.0505,-53.2066
16:24:04:516,-0.321,2.661,9.593,47.7863,0.0769,-0.1178,0.0483,-53.2066
16:24:04:535,-0.5171,2.52,10.1051,47.7874,0.0843,0.1196,0.0664,-53.2066
16:24:04:554,-0.5501,2.261,10.9601,47.8414,0.1386,0.2273,0.0846,-53.2066
16:24:04:575,-0.5411,2.252,10.737,47.8414,0.1792,0.0899,0.0334,-53.2066
16:24:04:594,-0.953,2.5631,9.5261,47.8414,0.062,-0.0337,0.0143,-53.2066
16:24:04:615,-1.863,2.9681,9.4399,47.6243,-0.1895,0.1303,0.1037,-53.2066
16:24:04:636,-2.3921,3.4271,11.288,47.6228,-0.2896,0.4063,0.3487,-53.2066
16:24:04:657,-1.757,2.822,13.01,47.7132,-0.1372,0.3765,0.6097,-53.2066
16:24:04:679,-0.567,1.665,12.071,47.0224,0.0151,-0.0859,0.6438,-53.2066
16:24:04:696,-0.0641,1.227,10.089,46.9983,0.0161,-0.4118,0.5042,-53.2066
16:24:04:715,-0.227,1.059,8.726,47.0665,0.0279,-0.2989,0.4243,-53.2066
16:24:04:736,-0.4241,0.4421,8.468,47.0687,0.0428,0.1303,0.3935,-53.2066
16:24:04:756,-0.74,0.186,9.239,47.0566,0.0246,0.4649,0.3338,-53.2066
16:24:04:776,-1.0271,0.356,10.046,46.2037,-0.051,0.4606,0.3125,-53.3068
16:24:04:797,-0.8951,0.624,10.053,47.0807,-0.1852,0.109,0.3103,-53.4171
16:24:04:816,-0.381,1.115,9.222,47.0828,-0.3428,-0.2852,0.2816,-53.5364
16:24:04:836,-0.12,1.584,8.382,47.0161,-0.411,-0.4183,0.2475,-53.6639
16:24:04:856,0.069,1.794,7.8671,46.4516,-0.428,-0.3842,0.2208,-53.7989
16:24:04:876,0.176,1.976,7.955,46.3648,-0.3674,-0.2159,0.1559,-53.9404
16:24:04:897,0.081,2.072,8.42,46.3648,-0.1841,0.0227,0.0622,-54.0871
16:24:04:915,-0.3401,2.4,8.528,46.3648,0.0001,0.1602,-0.0198,-54.2367
16:24:04:936,-0.845,2.774,8.417,46.3648,0.0214,0.1133,-0.0188,-54.3863
16:24:04:955,-1.1351,2.958,8.417,46.3648,-0.0392,-0.0402,0.0505,-54.5335
16:24:04:976,-0.9311,2.9441,8.4131,46.3648,-0.0776,-0.1434,0.1229,-54.6771
16:24:04:997,-0.5171,2.757,8.463,46.4233,-0.0638,-0.12,0.1196,-54.8186
16:24:05:016,-0.2921,2.735,8.868,45.4609,0.0001,0.0195,0.0302,-54.959
16:24:05:036,-0.39,2.9561,9.533,45.4729,0.1258,0.1485,-0.0923,-55.097
16:24:05:056,-0.627,3.327,9.753,46.3349,0.2227,0.1793,-0.1775,-55.2324
16:24:05:076,-0.795,3.597,9.777,45.4426,0.2611,0.1602,-0.1733,-55.3624
16:24:05:097,-0.7661,3.3701,9.878,45.531,0.2537,0.1495,-0.1264,-55.4846
16:24:05:115,-0.677,2.8931,10.172,45.5168,0.2463,0.1634,-0.1189,-55.5985
16:24:05:151,-0.867,2.661,10.752,44.6679,0.2932,0.2443,-0.1434,-55.7043
16:24:05:154,-1.439,2.7551,11.274,44.6683,0.3911,0.2955,-0.1402,-55.8018
16:24:05:175,-1.707,3.011,11.097,44.6526,0.4476,0.2123,-0.0624,-55.8018
16:24:05:196,-1.649,3.303,10.263,44.7582,0.2707,-0.0465,0.0505,-55.8018
16:24:05:216,-1.281,3.272,10.01,44.098,-0.0798,-0.2947,0.206,-55.8018
16:24:05:237,-0.608,2.7161,10.872,44.0124,-0.2885,-0.3021,0.3072,-55.8018
16:24:05:255,0.073,1.962,12.275,44.9997,-0.2001,-0.1253,0.3029,-55.8018
16:24:05:276,0.629,0.9131,12.816,44.9827,0.0492,-0.07,0.1708,-55.8018
16:24:05:297,0.804,0.2021,11.913,43.454,0.2313,-0.2062,-0.0806,-55.8999
16:24:05:315,0.5089,0.3701,10.089,43.3729,0.2122,-0.3981,-0.3139,-56.0004
16:24:05:336,0.14,0.966,8.676,43.3846,0.0652,-0.4353,-0.3927,-56.0975
16:24:05:356,0.047,1.208,8.2571,43.3372,-0.0946,-0.3149,-0.3671,-56.0975
16:24:05:376,0.1931,1.155,8.5661,43.2975,-0.1511,-0.1306,-0.3512,-56.0975
16:24:05:397,0.1601,1.143,8.702,44.1755,-0.1415,0.0015,-0.381,-56.0975
16:24:05:416,-0.153,1.368,8.745,44.1543,-0.1724,0.0644,-0.4129,-56.0975
16:24:05:436,-0.402,1.644,9.129,44.1148,-0.2065,0.0622,-0.3938,-56.0975
16:24:05:456,-0.29,1.787,9.3491,42.5711,-0.1682,-0.0496,-0.364,-56.0975
16:24:05:476,-0.0551,1.9361,8.712,42.558,-0.1,-0.2051,-0.3736,-56.0975
16:24:05:497,-0.074,2.249,7.706,42.5246,-0.0979,-0.3245,-0.3853,-56.0975
16:24:05:517,-0.1751,2.568,7.005,41.9172,-0.1724,-0.3532,-0.3501,-56.0975
16:24:05:536,-0.086,2.6801,7.017,42.4981,-0.2342,-0.2116,-0.2872,-56.0975
16:24:05:556,0.1001,2.465,7.7231,41.8902,-0.1821,0.0451,-0.2563,-56.0975
16:24:05:576,0.114,2.3501,8.4701,42.5013,-0.0786,0.2677,-0.2915,-56.0975
16:24:05:597,-0.275,2.577,9.2891,41.6153,-0.0104,0.3743,-0.3128,-56.0975
16:24:05:617,-0.699,2.7551,10.031,41.6153,0.03,0.3018,-0.2659,-56.0975
16:24:05:636,-0.8351,2.843,10.05,41.6,0.0407,0.0771,-0.1914,-56.0975
16:24:05:656,-0.6971,3.1061,9.5711,41.6,0.0066,-0.0945,-0.105,-56.0975
16:24:05:676,-0.414,3.1541,9.425,40.9832,-0.0084,-0.0902,-0.0231,-56.0975
16:24:05:697,-0.3491,2.9201,9.83,41.6145,0.0652,0.0536,0.0036,-56.0026
16:24:05:716,-0.651,2.721,10.1441,40.7192,0.1695,0.2049,0.0078,-55.9088
16:24:05:736,-1.151,2.6711,10.326,41.6153,0.1482,0.2284,0.0632,-55.8156
16:24:05:756,-1.3121,2.745,10.7111,40.7192,0.0331,0.1027,0.1634,-55.724
16:24:05:777,-1.161,2.771,10.364,40.0863,-0.0712,-0.0188,0.2603,-55.724
16:24:05:798,-1.262,2.654,10.268,40.7712,-0.2139,0.0824,0.3466,-55.724
16:24:05:817,-1.278,2.649,11.616,40.7581,-0.2992,0.3051,0.4553,-55.724
16:24:05:837,-0.852,2.154,13.5671,39.8902,-0.1821,0.3402,0.5127,-55.724
16:24:05:856,-0.402,1.5071,13.464,40.7689,0.0385,0.0025,0.451,-55.724
16:24:05:877,-0.165,1.265,11.568,40.1268,0.1504,-0.3693,0.3348,-55.724
16:24:05:898,-0.29,1.086,9.66,40.1641,0.1929,-0.4449,0.2634,-55.724
16:24:05:916,-0.378,0.633,8.4941,40.0899,0.1919,-0.2159,0.2273,-55.724
16:24:05:936,-0.5531,0.368,8.652,39.2614,0.1653,0.157,0.1708,-55.724
16:24:05:955,-0.8711,0.538,9.33,39.2614,0.1706,0.3413,0.1378,-55.724
16:24:05:977,-0.924,0.945,9.198,39.2471,0.096,0.2571,0.1676,-55.724
16:24:05:997,-0.764,1.373,9.069,39.2471,-0.0968,0.0377,0.2273,-55.724
16:24:06:016,-0.378,1.7111,9.15,39.2471,-0.1948,-0.1232,0.272,-55.724
16:24:06:036,0.0491,1.85,8.774,39.2351,-0.1543,-0.1818,0.271,-55.724
16:24:06:057,0.248,1.9451,8.2811,38.6204,-0.1192,-0.1871,0.2284,-55.724
16:24:06:075,0.246,2.051,8.066,38.6104,-0.0925,-0.1627,0.1804,-55.724
16:24:06:097,0.083,2.1941,8.018,38.6087,-0.0531,-0.1253,0.1367,-55.724
16:24:06:117,-0.1271,2.379,8.123,38.6087,-0.0286,-0.1189,0.109,-55.724
16:24:06:136,-0.345,2.5511,8.1709,38.597,-0.0212,-0.169,0.0909,-55.724
16:24:06:156,-0.471,2.687,8.037,38.6087,-0.0201,-0.2361,0.0835,-55.724
16:24:06:176,-0.366,2.771,7.931,37.9688,-0.0308,-0.2201,0.0664,-55.724
16:24:06:195,-0.282,2.7431,8.382,37.9835,0.0044,-0.1178,0.0025,-55.724
16:24:06:216,-0.404,2.936,8.87,38.6132,0.1184,-0.0155,-0.0902,-55.8145
16:24:06:237,-0.68,3.344,8.951,37.0757,0.1994,0.0132,-0.1391,-55.8145
16:24:06:256,-0.792,3.6881,8.853,37.0757,0.1801,-0.0294,-0.0997,-55.8145
16:24:06:276,-0.591,3.621,8.745,37.0775,0.1002,-0.0689,-0.0081,-55.8145
16:24:06:298,-0.1121,3.087,8.951,36.4609,0.0172,-0.0135,0.0451,-55.8145
16:24:06:317,-0.057,2.733,9.873,37.0775,0.0172,0.1506,0.0291,-55.8145
16:24:06:335,-0.2561,2.429,11.372,37.0775,0.1099,0.3296,-0.0038,-55.8145
16:24:06:357,-0.299,2.405,12.6701,37.0495,0.2366,0.2975,-0.0785,-55.8145
16:24:06:376,-0.6491,3.066,12.4331,37.0612,0.2718,0.0078,-0.1499,-55.8145
16:24:06:398,-0.857,3.71,11.3621,35.5172,0.078,-0.2298,-0.0507,-55.8145
16:24:06:416,-0.495,3.353,12.114,35.5318,-0.1213,-0.1807,0.1101,-55.8145
16:24:06:436,0.0401,2.2181,13.6511,35.4504,0.0172,-0.0774,0.1324,-55.8145
16:24:06:456,0.152,1.064,13.493,35.5201,0.3347,-0.1499,-0.0274,-55.8145
16:24:06:475,-0.2561,0.698,11.0891,35.5201,0.4902,-0.3352,-0.2489,-55.8145
16:24:06:498,-0.936,1.203,8.954,36.4171,0.3975,-0.3469,-0.3074,-55.8145
16:24:06:515,-0.941,1.5311,7.704,35.5201,0.1855,-0.2553,-0.1658,-55.8145
16:24:06:536,-0.3251,1.2341,7.587,34.8417,-0.0712,-0.1402,-0.0177,-55.8145
16:24:06:556,0.3221,0.722,8.238,34.8417,-0.2065,-0.0529,0.0015,-55.8145
16:24:06:577,0.603,0.396,8.487,34.8417,-0.215,0.0355,-0.1008,-55.8145
16:24:06:599,0.27,0.633,8.777,34.806,-0.1895,0.1506,-0.235,-55.8145
16:24:06:616,-0.227,1.299,9.002,35.4173,-0.15,0.1921,-0.2713,-55.8145
16:24:06:635,-0.359,1.8521,8.877,33.8712,-0.1458,0.0824,-0.2255,-55.8145
16:24:06:655,-0.1991,2.223,8.1761,33.8712,-0.1926,-0.1189,-0.1658,-55.8145
16:24:06:676,0.03,2.429,7.563,33.8712,-0.247,-0.1957,-0.1147,-55.8145
16:24:06:700,0.21,2.544,7.4621,33.8745,-0.2491,-0.1221,-0.0869,-55.8145
16:24:06:716,0.354,2.592,7.769,33.8745,-0.1915,0.0419,-0.0997,-55.8145
16:24:06:737,0.114,2.963,8.2451,33.8745,-0.1224,0.1974,-0.1317,-55.8145
16:24:06:756,-0.246,3.4781,8.9591,33.8745,-0.0936,0.2582,-0.0954,-55.8145
16:24:06:775,-0.3251,3.7361,9.629,32.9738,-0.0936,0.173,-0.0049,-55.8145
16:24:06:798,-0.12,3.7391,10.0721,33.8745,-0.0499,0.0217,0.0749,-55.8145
16:24:06:816,0.162,3.602,10.031,33.8745,0.0492,-0.0891,0.1037,-55.8145
16:24:06:836,0.401,3.387,9.615,32.9738,0.111,-0.1627,0.0877,-55.8145
16:24:06:856,0.387,3.0971,9.449,32.3493,0.1354,-0.12,0.0345,-55.8145
16:24:06:876,0.0611,2.913,9.5741,32.9738,0.1866,0.0846,-0.0018,-55.8145
16:24:06:897,-0.3971,2.75,10.182,32.9738,0.2164,0.3594,0.0269,-55.8145
16:24:06:915,-0.699,2.45,11.259,32.9738,0.1994,0.4553,0.0994,-55.8145
16:24:06:935,-0.558,2.058,11.8631,32.9971,0.2122,0.2582,0.1261,-55.8145
16:24:06:956,-0.572,2.0749,10.608,32.0866,0.1684,0.0419,0.0835,-55.8145
16:24:06:976,-1.127,2.352,9.797,32.0866,0.0118,0.1783,0.1207,-55.8145
16:24:06:997,-1.2401,2.664,10.9031,32.0866,-0.0659,0.5085,0.2998,-55.8145
16:24:07:016,-0.953,2.2691,12.5381,32.7589,0.0374,0.5192,0.4584,-55.8145
16:24:07:036,-0.747,1.737,11.844,32.0866,0.1067,0.0217,0.499,-55.8145
16:24:07:056,-0.471,1.457,10.091,32.0866,-0.0243,-0.4194,0.4692,-55.8145
16:24:07:076,-0.4211,1.184,8.781,32.0866,-0.0957,-0.4502,0.4317,-55.8145
16:24:07:098,-0.3971,0.681,8.286,32.0866,-0.1352,-0.1115,0.3689,-55.8145
16:24:07:116,-0.539,0.437,9.054,32.7589,-0.1426,0.2443,0.2603,-55.8145
16:24:07:135,-0.78,0.7961,9.737,32.7808,-0.133,0.3178,0.1591,-55.9124
16:24:07:169,-0.8471,1.557,9.4061,31.9081,-0.2065,0.0942,0.1207,-56.0179
16:24:07:174,-0.692,2.132,8.762,31.2408,-0.3259,-0.104,0.157,-56.1284
16:24:07:195,-0.44,2.182,8.4251,31.2408,-0.3376,-0.105,0.1889,-56.2421
16:24:07:215,-0.3401,2.034,8.295,31.2408,-0.2842,-0.0103,0.1708,-56.3588
16:24:07:235,-0.378,1.976,8.3531,31.2859,-0.2097,0.0952,0.1112,-56.4787
16:24:07:255,-0.543,2.108,8.592,31.1428,-0.1107,0.1442,0.0622,-56.6007
16:24:07:274,-0.723,2.453,8.322,31.2859,-0.0531,0.0345,0.044,-56.7236
16:24:07:295,-0.795,2.927,7.7831,32.1544,-0.0818,-0.103,0.061,-56.8459
16:24:07:316,-0.6611,3.195,7.6301,32.1544,-0.1309,-0.1573,0.1144,-56.9671
16:24:07:335,-0.3761,3.183,7.814,31.9601,-0.1341,-0.0997,0.1517,-57.0874
16:24:07:355,-0.2561,3.087,8.4011,31.2858,-0.0798,0.0525,0.1357,-57.2078
16:24:07:376,-0.3251,3.032,9.308,31.3664,0.0118,0.157,0.0835,-57.3291
16:24:07:395,-0.3761,3.212,10.098,31.2858,0.1408,0.0803,0.0036,-57.4509
16:24:07:416,-0.8831,3.4031,9.267,31.3664,0.2281,-0.1115,-0.0049,-57.572
16:24:07:436,-1.0481,3.095,8.4461,31.3664,0.1163,-0.1391,0.0909,-57.6908
16:24:07:455,-1.029,2.6351,9.186,31.3664,-0.0434,0.0047,0.1378,-57.8073
16:24:07:476,-0.969,2.2451,10.941,30.5182,-0.018,0.2358,0.1485,-57.9225
16:24:07:495,-0.6581,1.794,12.344,31.2081,0.1514,0.2966,0.0792,-58.0376
16:24:07:516,-0.491,2.067,12.425,31.4546,0.2355,0.0494,-0.1306,-58.1529
16:24:07:536,-0.732,3.269,11.214,31.4546,0.1462,-0.1892,-0.3202,-58.2661
16:24:07:555,-1.092,4.3901,10.994,30.5953,-0.034,-0.0956,-0.3224,-58.3728
16:24:07:575,-1.353,4.488,12.1571,30.5953,-0.0542,0.1548,-0.1605,-58.4694
16:24:07:595,-0.2539,1.2251,12.933,32.1234,0.5786,0.157,-0.0795,-58.4694
16:24:07:616,-0.1151,0.482,10.304,32.1234,0.601,-0.136,-0.1935,-58.4694
16:24:07:636,-0.036,0.645,8.3411,31.4546,0.3176,-0.3543,-0.219,-58.4694
16:24:07:655,0.0521,0.9971,7.4891,31.5516,0.0726,-0.2478,-0.1616,-58.4694
16:24:07:676,0.126,1.098,7.7831,31.5516,-0.0701,0.0516,-0.0635,-58.4694
16:24:07:695,0.179,0.9161,8.4941,32.2297,-0.1702,0.2188,-0.0007,-58.4694
16:24:07:717,0.1931,0.8201,9.133,32.3567,-0.2629,0.2305,0.0143,-58.4694
16:24:07:736,0.215,0.791,9.7031,32.3567,-0.3088,0.1708,-0.006,-58.4694
16:24:07:755,0.176,0.9521,9.95,32.3567,-0.2822,0.0451,-0.0678,-58.4694
16:24:07:776,0.0641,1.395,9.3821,32.4914,-0.1915,-0.1317,-0.1445,-58.4694
16:24:07:796,-0.0191,2.139,8.14,31.8339,-0.1458,-0.2639,-0.186,-58.4694
16:24:07:816,-0.0521,2.654,7.28,32.006,-0.1745,-0.3415,-0.1669,-58.4694
16:24:07:836,-0.1031,2.939,6.813,32.006,-0.2321,-0.3341,-0.1243,-58.4694
16:24:07:855,0.023,2.948,6.9191,32.006,-0.2406,-0.1669,-0.0604,-58.4694
16:24:07:875,0.248,2.642,7.484,32.1983,-0.1693,0.0729,-0.0454,-58.4694
16:24:07:895,0.207,2.541,8.03,32.1983,-0.1224,0.2549,-0.0912,-58.4694
16:24:07:917,-0.029,2.6591,8.832,32.1983,-0.0979,0.402,-0.1115,-58.4694
16:24:07:935,-0.3281,2.7671,9.864,32.8467,-0.0553,0.4627,-0.0987,-58.4694
16:24:07:955,-0.4331,2.819,10.883,32.8467,0.0225,0.3743,-0.0604,-58.4694
16:24:07:975,-0.4001,2.7641,11.3051,32.8467,0.1067,0.0931,-0.0518,-58.4694
16:24:07:996,-0.4571,2.733,10.503,32.4106,0.1216,-0.2105,-0.0518,-58.4694
16:24:08:016,-0.665,2.673,9.777,32.4106,0.047,-0.2894,-0.0188,-58.4694
16:24:08:036,-0.917,2.532,9.866,33.2557,-0.0243,-0.1414,0.0601,-58.4694
16:24:08:056,-0.878,2.039,10.905,33.2557,-0.018,0.0664,0.1506,-58.4694
16:24:08:075,-0.5771,1.6631,11.367,33.8784,0.0566,0.0419,0.1346,-58.4694
16:24:08:096,-0.7061,1.8761,10.467,33.0539,-0.0084,-0.1167,0.0888,-58.4694
16:24:08:118,-0.917,2.2691,9.921,33.4822,-0.2247,-0.1338,0.1335,-58.4694
16:24:08:136,-0.917,2.403,10.958,33.8784,-0.3823,0.0462,0.2784,-58.4694
16:24:08:156,-0.347,1.565,12.744,33.2802,-0.2256,0.1059,0.3668,-58.4694
16:24:08:175,0.1091,0.7721,12.3461,34.0994,0.0758,-0.0806,0.2625,-58.4694
16:24:08:196,-0.0911,0.669,10.3181,33.8784,0.1866,-0.2393,0.0771,-58.4694
16:24:08:218,-0.876,1.0691,8.951,29.5487,0.1376,-0.1093,0.01,-58.4694
16:24:08:236,-1.578,1.1501,8.88,29.4573,0.0459,0.1847,0.1037,-58.4694
16:24:08:256,-1.635,1.098,9.567,29.1127,-0.0456,0.3594,0.2336,-58.4694
16:24:08:275,-1.367,1.337,10.022,30.0804,-0.1192,0.2592,0.3136,-58.4694
16:24:08:296,-0.9311,1.7681,9.5831,28.0273,-0.2438,-0.0465,0.3626,-58.4694
16:24:08:317,-0.4091,2.108,9.263,28.3413,-0.3376,-0.1968,0.3924,-58.4694
16:24:08:337,-0.002,2.139,9.447,29.6432,-0.2193,-0.1349,0.37,-58.5604
16:24:08:355,0.186,2.0201,9.093,28.7497,-0.0137,-0.0646,0.2668,-58.6612
16:24:08:375,-0.041,2.1971,8.391,29.5445,0.1184,-0.0305,0.1622,-58.7712
16:24:08:394,-0.3281,2.388,7.8911,29.6525,0.1557,-0.0402,0.1409,-58.8882
16:24:08:417,-0.383,2.369,7.6541,29.383,0.1504,-0.0837,0.1528,-59.0095
16:24:08:435,-0.416,2.441,7.419,29.7058,0.1334,-0.1158,0.1665,-59.1338
16:24:08:455,-0.1961,2.393,7.314,29.0208,0.1056,-0.0828,0.1954,-59.2604
16:24:08:476,0.042,2.247,7.575,28.5537,0.0694,-0.0027,0.1676,-59.3894
16:24:08:495,-0.074,2.3621,8.13,29.4367,0.0385,0.142,0.1155,-59.5208
16:24:08:516,-0.299,2.453,9.186,29.1865,0.0257,0.3092,0.0814,-59.6539
16:24:08:535,-0.419,2.367,10.86,30.664,0.1035,0.3647,0.0494,-59.7877
16:24:08:555,-0.369,2.187,11.346,29.1819,0.2665,0.1528,-0.0411,-59.9212
16:24:08:575,-0.306,2.3621,10.397,28.1001,0.2921,-0.0976,-0.1743,-60.0527
16:24:08:596,-0.4361,2.7281,9.744,29.3079,0.2185,-0.1562,-0.2329,-60.1797
16:24:08:617,-0.531,2.855,9.744,29.4827,0.1429,-0.0678,-0.2298,-60.2992
16:24:08:635,-0.471,2.8361,10.364,29.2301,0.1291,0.0792,-0.2329,-60.4093
16:24:08:654,-0.618,2.903,10.788,29.1307,0.1429,0.1602,-0.2659,-60.5092
16:24:08:676,-0.7661,3.185,10.9361,29.0856,0.063,0.1442,-0.2212,-60.5092
16:24:08:696,-0.7541,3.059,11.3501,30.2096,-0.0925,0.1207,-0.0912,-60.5092
16:24:08:718,-0.345,2.1461,12.897,30.2197,-0.0925,0.1409,-0.0146,-60.5092
16:24:08:736,0.164,0.942,13.182,30.3223,0.2142,0.0195,-0.0902,-60.5092
16:24:08:755,0.1961,0.468,11.111,29.8863,0.4092,-0.2137,-0.2947,-60.5092
16:24:08:775,-0.17,1.095,8.813,29.9242,0.3006,-0.3404,-0.3981,-60.5092
16:24:08:796,-0.3491,1.596,7.623,29.8164,0.0342,-0.2861,-0.2893,-60.5092
16:24:08:818,0.026,1.553,7.7351,29.3981,-0.2555,-0.1371,-0.1306,-60.5092
16:24:08:836,0.416,1.182,8.736,30.5813,-0.4313,-0.0209,-0.07,-60.5092
16:24:08:856,0.624,1.0039,9.48,30.8127,-0.4696,0.0323,-0.1019,-60.5092
16:24:08:875,0.6,0.992,9.9551,29.8754,-0.4451,0.0547,-0.1838,-60.5092
16:24:08:895,0.435,1.2731,10.134,31.5277,-0.3791,-0.006,-0.2648,-60.5092
16:24:08:915,0.258,1.6751,9.806,30.9587,-0.3237,-0.1371,-0.3213,-60.5092
16:24:08:936,0.1451,2.0891,9.3581,30.6893,-0.2629,-0.2958,-0.3575,-60.5092
16:24:08:955,0.234,2.304,8.54,31.4601,-0.1426,-0.3949,-0.3884,-60.5092
16:24:08:976,0.1931,2.4821,7.637,31.0549,-0.036,-0.3426,-0.4246,-60.5092
16:24:08:996,0.023,2.546,7.223,31.9851,0.0598,-0.1722,-0.4118,-60.5092
16:24:09:019,-0.1511,2.4191,7.1051,31.8815,0.1269,0.0132,-0.3693,-60.5092
16:24:09:036,-0.44,2.496,7.263,30.8925,0.0822,0.1452,-0.3171,-60.5092
16:24:09:055,-0.596,2.601,8.331,32.2699,-0.0265,0.206,-0.2074,-60.5092
16:24:09:075,-0.278,2.343,9.758,32.0183,-0.0434,0.1613,-0.1062,-60.5092
16:24:09:095,0.224,2,10.316,32.112,0.0364,0.0099,-0.1062,-60.5092
16:24:09:115,0.2771,1.8971,9.911,32.1638,0.0908,-0.072,-0.1701,-60.4182
16:24:09:135,-0.143,1.962,9.801,32.6511,0.1024,0.0632,-0.186,-60.3246
16:24:09:156,-0.732,1.9121,10.472,32.4157,0.1141,0.287,-0.1243,-60.2281
16:24:09:189,-0.867,1.938,11.2451,32.5148,0.0811,0.3029,-0.0081,-60.1288
16:24:09:195,-0.5051,1.8401,11.379,32.288,-0.0019,0.0269,0.059,-60.028
16:24:09:215,-0.4691,2.084,10.5941,32.7567,-0.1554,-0.1722,0.0803,-59.9282
16:24:09:235,-0.752,2.429,10.848,32.8429,-0.2577,-0.0635,0.173,-59.8314
16:24:09:255,-0.7091,2.448,12.306,32.3998,-0.1446,0.125,0.3094,-59.7395
16:24:09:275,-0.4241,1.718,12.983,31.5124,0.0896,-0.0231,0.3572,-59.7395
16:24:09:295,-0.062,1.1291,11.456,32.3868,0.1844,-0.3927,0.2699,-59.7395
16:24:09:315,-0.081,0.954,9.773,32.0261,0.1045,-0.5078,0.1495,-59.7395
16:24:09:336,-0.44,0.9041,9.2081,32.0535,0.0246,-0.316,0.1027,-59.7395
16:24:09:356,-0.5531,0.7631,9.411,31.7415,-0.0329,-0.0454,0.0984,-59.7395
16:24:09:375,-0.462,0.758,10.0001,31.7401,-0.1,0.0696,0.0483,-59.7395
16:24:09:396,-0.278,0.978,10.287,31.7033,-0.1458,0.0302,-0.0274,-59.7395
16:24:09:416,-0.234,1.284,10.3931,31.6192,-0.1244,-0.0689,-0.1062,-59.7395
16:24:09:437,-0.347,1.725,9.7991,31.4618,-0.0468,-0.1829,-0.1434,-59.7395
16:24:09:455,-0.474,2.0201,8.868,31.8694,-0.0349,-0.2947,-0.121,-59.7395
16:24:09:476,-0.3131,2.036,8.157,32.4352,-0.0723,-0.3821,-0.0657,-59.7395
16:24:09:497,0.0851,1.869,8.099,32.6005,-0.0851,-0.3864,-0.0359,-59.7395
16:24:09:520,0.411,1.617,8.07,32.2714,-0.0286,-0.4012,-0.0923,-59.7395
16:24:09:535,0.665,1.533,7.668,32.7116,0.0066,-0.4544,-0.1807,-59.7395
16:24:09:556,0.8801,1.533,7.161,32.6503,-0.003,-0.4108,-0.2872,-59.7395
16:24:09:576,0.875,1.409,7.362,34.1002,-0.0073,-0.1892,-0.4151,-59.7395
16:24:09:596,0.4301,1.7201,8.085,34.0551,0.045,0.0814,-0.5408,-59.7395
16:24:09:616,0.1241,2.1011,8.901,34.9261,0.0513,0.2379,-0.5556,-59.7395
16:24:09:638,0.1961,1.979,10.1411,34.5314,0.0172,0.1932,-0.5397,-59.6416
16:24:09:656,0.428,1.658,10.8791,33.5488,0.0214,-0.0837,-0.5929,-59.5298
16:24:09:675,0.5831,1.502,10.3451,34.4329,-0.0095,-0.3853,-0.7037,-59.4032
16:24:09:695,0.5831,1.6721,9.794,35.4466,-0.0542,-0.4481,-0.7975,-59.2605
16:24:09:716,0.377,1.763,9.9671,34.661,-0.003,-0.2265,-0.8348,-59.0993
16:24:09:738,0.093,1.6871,10.524,34.215,0.078,-0.0027,-0.8294,-58.9177
16:24:09:756,-0.045,1.5,11.1611,34.1638,0.0513,-0.0092,-0.806,-58.7147
16:24:09:775,-0.143,1.433,11.142,35.074,-0.0531,-0.1957,-0.7804,-58.4901
16:24:09:796,0.1001,1.431,10.934,33.535,-0.1937,-0.3213,-0.723,-58.2443
16:24:09:816,0.3371,1.2101,10.8,34.4783,-0.2076,-0.2734,-0.6804,-57.9787
16:24:09:838,0.315,0.956,10.6541,33.9719,-0.1053,-0.0348,-0.6739,-57.695
16:24:09:855,-0.074,0.9611,10.7231,33.9458,-0.019,0.2454,-0.6739,-57.3947
16:24:09:877,-0.548,1.019,10.986,35.3807,-0.0265,0.3424,-0.5803,-57.0791
16:24:09:896,-0.33,0.897,11.006,34.576,-0.1096,0.2262,-0.4417,-56.7494
16:24:09:916,0.1961,0.669,10.781,35.1886,-0.1617,0.0323,-0.3873,-56.4087
16:24:09:938,0.5,0.6401,9.962,35.1197,-0.1446,-0.1125,-0.4311,-56.0602
16:24:09:956,0.533,0.83,9.411,34.1747,-0.0914,-0.038,-0.4917,-55.7059
16:24:09:976,0.449,0.9401,9.356,34.9768,0.0672,0.1506,-0.5354,-55.3461
16:24:09:996,0.351,1.047,9.069,34.5456,0.2133,0.2507,-0.5408,-54.9804
16:24:10:016,0.392,1.143,8.5901,35.4935,0.2122,0.1474,-0.5163,-54.6081
16:24:10:038,0.387,1.16,8.003,35.4472,0.1078,0.0067,-0.4917,-54.2292
16:24:10:055,0.344,1.344,7.965,35.3748,0.0428,0.0568,-0.4683,-53.8442
16:24:10:076,0.227,1.3871,8.456,35.3572,0.0908,0.2336,-0.4194,-53.4538
16:24:10:096,0.207,1.3301,8.805,35.3467,0.1376,0.304,-0.3554,-53.0589
16:24:10:116,0.3581,1.191,8.844,35.3436,0.0811,0.2156,-0.3043,-52.6612
16:24:10:139,0.488,1.17,9.05,35.3459,-0.0104,0.1079,-0.3074,-52.2623
16:24:10:157,0.3611,1.356,9.435,34.4974,-0.0297,0.0877,-0.3149,-51.8635
16:24:10:175,0.284,1.407,9.7151,35.9568,-0.0073,0.092,-0.2861,-51.4655
16:24:10:195,0.3611,1.359,9.789,35.9014,-0.0052,0.0729,-0.2574,-51.0687
16:24:10:216,0.342,1.217,10.034,35.9306,-0.0095,0.0516,-0.2648,-50.6739
16:24:10:239,0.03,1.239,10.2371,35.9233,0.0118,0.0121,-0.2978,-50.2816
16:24:10:256,-0.29,1.4021,10.2011,35.6719,0.0118,-0.0476,-0.2989,-49.8916
16:24:10:276,-0.426,1.4111,10.172,34.701,0.0236,-0.1221,-0.2756,-49.5036
16:24:10:295,-0.438,1.5,9.785,35.7336,0.0587,-0.1829,-0.2553,-49.1173
16:24:10:315,-0.5981,1.6391,9.0521,35.6693,0.0076,-0.1903,-0.2244,-48.7328
16:24:10:339,-0.768,1.773,9.1121,35.5498,-0.1,-0.0604,-0.1508,-48.3506
16:24:10:355,-0.701,1.6631,9.902,36.2713,-0.1128,0.1196,-0.0689,-47.9716
16:24:10:375,-0.7541,1.4951,10.553,35.4645,-0.0584,0.2379,-0.0539,-47.5976
16:24:10:395,-1.1951,1.622,10.725,36.0139,-0.0382,0.2816,-0.0348,-47.2303
16:24:10:415,-1.4201,1.89,11.0921,36.8259,-0.1128,0.2634,0.061,-46.8705
16:24:10:435,-1.29,1.754,11.501,36.1457,-0.1682,0.1324,0.1719,-46.5196
16:24:10:455,-0.7901,1.308,11.585,36.9361,-0.1489,-0.0518,0.2251,-46.1799
16:24:10:475,-0.108,0.93,10.994,36.0102,-0.0894,-0.1988,0.1655,-45.854
16:24:10:495,0.0641,0.7601,10.2161,35.9624,-0.0158,-0.2212,0.0227,-45.5431
16:24:10:516,-0.0641,0.966,9.409,36.8612,0.0578,-0.0454,-0.0869,-45.2459
16:24:10:539,-0.2921,0.971,9.548,35.9772,0.0726,0.2166,-0.1317,-44.9597
16:24:10:555,-0.278,0.909,10.2971,36.8293,0.0502,0.2571,-0.1722,-44.6814
16:24:10:574,-0.165,0.978,10.4171,36.78,0.0364,0.0675,-0.2361,-44.4089
16:24:10:595,-0.11,1.134,9.741,36.7623,0.0396,-0.0934,-0.3032,-44.1401
16:24:10:616,-0.179,1.38,9.021,35.6511,0.0694,-0.0763,-0.3512,-43.8727
16:24:10:640,-0.3611,1.6241,8.7791,36.5593,0.1056,0.0451,-0.3586,-43.6048
16:24:10:656,-0.57,1.701,8.963,36.854,0.1408,0.1154,-0.3352,-43.3347
16:24:10:675,-0.833,1.713,9.009,36.8077,0.1226,0.0483,-0.3032,-43.0615
16:24:10:695,-0.855,1.727,8.805,36.7228,0.0513,-0.0848,-0.2361,-42.7853
16:24:10:716,-0.519,1.454,8.6981,37.708,-0.018,-0.169,-0.1914,-42.5067
16:24:10:740,-0.3641,1.2611,8.786,38.2554,-0.0286,-0.1445,-0.2179,-42.2272
16:24:10:756,-0.5621,1.244,8.997,37.3243,0.0118,-0.0657,-0.2617,-41.948
16:24:10:776,-0.914,1.349,9.282,37.262,0.0353,-0.0454,-0.2681,-41.6689
16:24:10:794,-1.02,1.452,9.27,37.1807,-0.0308,-0.1488,-0.2307,-41.3893
16:24:10:815,-0.8951,1.4951,9.33,37.8198,-0.1511,-0.2563,-0.1966,-41.1092
16:24:10:836,-0.723,1.4141,9.8201,37.1191,-0.2034,-0.2659,-0.1914,-40.8291
16:24:10:856,-0.4691,1.2011,10.35,37.9981,-0.1192,-0.2318,-0.2435,-40.5498
16:24:10:876,-0.51,1.1741,10.328,37.7044,0.014,-0.2276,-0.3438,-40.2714
16:24:10:895,-0.783,1.349,9.734,37.437,0.0609,-0.2904,-0.4055,-39.9926
16:24:10:916,-1.013,1.49,9.291,36.7415,0.0268,-0.2648,-0.414,-39.7114
16:24:10:936,-1.3241,1.3661,9.5021,37.7982,0.0076,-0.1253,-0.3905,-39.4261
16:24:10:956,-1.604,1.2581,10.239,37.7623,0.0129,0.0047,-0.349,-39.136
16:24:10:975,-1.625,1.158,10.965,37.6915,0.0407,-0.0422,-0.2936,-38.8413
16:24:10:995,-1.1561,1.014,10.4411,37.7819,0.0257,-0.3288,-0.267,-38.5431
16:24:11:015,-0.572,1.088,9.119,37.6236,-0.0744,-0.5493,-0.285,-38.2424
16:24:11:036,-0.347,1.1741,8.3261,37.0646,-0.1235,-0.3799,-0.3021,-37.94
16:24:11:057,-0.5741,1.1291,9.215,37.2979,-0.0425,0.0771,-0.2904,-37.6361
16:24:11:075,-0.773,0.992,10.407,37.6489,0.0843,0.3168,-0.2531,-37.3307
16:24:11:095,-0.629,0.863,10.9031,37.4542,0.0843,0.1324,-0.2233,-37.0242
16:24:11:116,-0.282,1.024,9.89,37.5658,-0.034,-0.25,-0.1988,-36.7175
16:24:11:135,0.174,1.124,9.0521,38.3363,-0.2097,-0.3224,-0.1658,-36.4114
16:24:11:155,0.5021,1.0931,9.8561,37.6587,-0.1522,-0.0007,-0.1701,-36.1071
16:24:11:176,0.461,0.9041,10.769,38.1889,0.0854,0.2657,-0.2137,-35.8056
16:24:11:215,0.219,0.794,10.67,37.848,0.1781,0.2219,-0.2489,-35.5067
16:24:11:216,-0.069,0.7961,10.2371,37.9246,0.1141,0.0664,-0.2426,-35.2098
16:24:11:233,-0.218,0.9641,9.89,38.2891,0.0417,0.0078,-0.1722,-34.914
16:24:11:254,-0.024,0.825,10.017,38.2929,0.0033,0.0366,-0.0859,-34.6196
16:24:11:276,0.255,0.624,10.5,37.8186,0.0225,0.0451,-0.07,-34.328
16:24:11:295,0.363,0.597,10.539,37.6508,0.1078,0.0015,-0.0987,-34.0407
16:24:11:316,0.279,0.6641,9.9401,37.7729,0.1632,-0.0667,-0.1232,-33.7584
16:24:11:335,0.219,0.8441,9.191,37.6304,0.1429,-0.1189,-0.1115,-33.4808
16:24:11:356,0.1841,1.047,8.724,37.5044,0.1024,-0.1019,-0.0742,-33.2077
16:24:11:376,0.0971,1.119,8.6501,37.4637,0.0683,-0.0007,-0.0081,-32.9393
16:24:11:395,0.1361,0.9131,9.138,37.4729,0.0311,0.1207,0.0644,-32.6775
16:24:11:416,0.1841,0.578,9.897,37.4528,0.0033,0.1559,0.1016,-32.4223
16:24:11:435,0.279,0.3941,10.407,38.3235,-0.0201,0.0749,0.1144,-32.1755
16:24:11:457,0.512,0.317,10.3571,37.4896,-0.0371,-0.0828,0.1112,-31.9383
16:24:11:475,0.7871,0.284,9.854,37.5059,-0.0531,-0.184,0.0664,-31.7112
16:24:11:495,0.749,0.423,9.507,38.4578,-0.0371,-0.1456,0.0004,-31.4941
16:24:11:515,0.5351,0.538,9.528,37.4881,0.0098,-0.0402,-0.0402,-31.2859
16:24:11:536,0.2861,0.617,9.603,37.4881,0.0268,-0.006,-0.0604,-31.0851
16:24:11:557,0.0881,0.741,9.593,38.4194,-0.0308,-0.0496,-0.0529,-30.8902
16:24:11:576,0.066,0.806,9.8111,38.0549,-0.0968,-0.0902,-0.0283,-30.7003
16:24:11:597,0.191,0.7151,10.098,39.0227,-0.1,-0.1019,-0.0316,-30.5151
16:24:11:616,0.356,0.662,10.0571,38.0678,-0.0712,-0.1391,-0.0795,-30.3345
16:24:11:636,0.363,0.875,9.545,37.9811,-0.0733,-0.1701,-0.1466,-30.1581
16:24:11:654,0.212,1.217,9.3821,38.1573,-0.0914,-0.1072,-0.1764,-29.9846
16:24:11:675,0.042,1.32,9.725,37.7781,-0.0883,-0.0198,-0.1807,-29.8126
16:24:11:695,-0.026,1.352,10.065,37.8225,-0.0798,-0.0198,-0.1838,-29.6409
16:24:11:715,0.011,1.392,10.151,37.7572,-0.0766,-0.0913,-0.1838,-29.469
16:24:11:736,0.1091,1.383,9.909,37.7719,-0.0605,-0.1466,-0.1935,-29.2962
16:24:11:757,0.054,1.452,9.581,37.7021,-0.0403,-0.1167,-0.2094,-29.1225
16:24:11:775,-0.1961,1.596,9.701,37.6367,-0.018,-0.0231,-0.1957,-28.9475
16:24:11:794,-0.3371,1.622,10.067,37.6227,0.0055,0.0334,-0.1445,-28.7708
16:24:11:815,-0.347,1.4471,10.448,38.4642,0.0109,-0.0146,-0.103,-28.593
16:24:11:836,-0.215,1.325,10.359,38.5477,0.0257,-0.1147,-0.0826,-28.415
16:24:11:858,-0.086,1.3061,9.854,37.566,0.0364,-0.1434,-0.0678,-28.2376
16:24:11:877,0.078,1.2131,9.569,37.5567,0.0183,-0.1082,-0.0422,-28.0618
16:24:11:896,0.186,1.062,9.7151,37.5254,0.0033,-0.0689,-0.0529,-27.8882
16:24:11:915,0.1001,1.131,9.653,37.5254,0.0396,-0.0518,-0.0774,-27.7174
16:24:11:936,0.1091,1.2341,9.366,38.4706,0.0342,-0.0209,-0.072,-27.5495
16:24:11:957,0.105,1.227,9.6341,38.4684,0.0012,0.0227,-0.0646,-27.3841
16:24:11:976,0.014,1.2581,10.029,38.0007,0.0225,0.0494,-0.0572,-27.2213
16:24:11:995,0.0881,1.265,10.031,37.5346,0.0257,0.0184,-0.0433,-27.0609
16:24:12:015,0.198,1.203,9.9191,37.547,-0.0052,-0.0572,-0.038,-26.903
16:24:12:034,0.291,1.196,9.761,38.4708,-0.0232,-0.0965,-0.0496,-26.7489
16:24:12:056,0.284,1.229,9.729,37.514,-0.0158,-0.0902,-0.0667,-26.5976
16:24:12:074,0.21,1.2701,9.6191,38.0078,0.0001,-0.0752,-0.0806,-26.4491
16:24:12:095,0.138,1.325,9.581,38.4655,0.0066,-0.022,-0.0945,-26.303
16:24:12:115,-0.038,1.395,9.737,37.9897,0.0374,0.0345,-0.0987,-26.1588
16:24:12:135,-0.2539,1.538,9.8111,37.5551,0.0566,0.0525,-0.0817,-26.0159
16:24:12:157,-0.395,1.589,9.813,38.5059,0.03,0.0217,-0.039,-25.8742
16:24:12:175,-0.407,1.5671,9.9521,38.0438,-0.001,0.0004,0.0036,-25.7339
16:24:12:196,-0.39,1.505,10.091,38.5008,0.0012,0.0056,0.0355,-25.5978
16:24:12:215,-0.345,1.421,10.278,38.9452,0.0236,0.0164,0.0601,-25.4657
16:24:12:235,-0.227,1.28,10.314,38.5189,0.0524,-0.0155,0.0601,-25.3369
16:24:12:258,-0.12,1.229,10.014,38.5342,0.0726,-0.0657,0.028,-25.212
16:24:12:276,-0.11,1.323,9.557,38.5162,0.0683,-0.0667,0.0025,-25.0912
16:24:12:296,-0.0911,1.469,9.234,38.4383,0.045,-0.0231,-0.0049,-24.9745
16:24:12:316,-0.012,1.536,9.354,38.5365,0.0225,0.0483,0.0047,-24.8612
16:24:12:336,0.073,1.443,9.686,38.5211,0.0322,0.0857,-0.0049,-24.7514
16:24:12:358,0.071,1.4111,9.8591,38.5622,0.0566,0.0707,-0.0411,-24.6447
16:24:12:376,-0.009,1.533,9.624,38.5726,0.0747,0.0377,-0.0689,-24.5411
16:24:12:395,-0.081,1.7471,9.248,38.5473,0.0578,0.0388,-0.055,-24.4395
16:24:12:415,0.0491,1.7471,9.15,38.5523,0.0203,0.061,-0.0155,-24.3394
16:24:12:435,0.231,1.596,9.327,38.5523,-0.0073,0.0931,-0.0027,-24.2409
16:24:12:458,0.275,1.5,9.591,38.5496,-0.0052,0.1207,-0.0241,-24.1445
16:24:12:476,0.1481,1.526,9.744,38.5189,-0.003,0.1207,-0.0402,-24.0505
16:24:12:496,0.059,1.529,9.8201,38.514,-0.0201,0.0931,-0.0305,-23.9588
16:24:12:516,0.107,1.502,10.014,37.5752,-0.0329,0.0846,-0.0155,-23.9588
16:24:12:535,0.167,1.404,10.1651,37.6079,-0.0137,0.061,-0.0177,-23.8685
16:24:12:558,0.1841,1.359,10.244,38.5309,0.0076,0.0388,-0.039,-23.8685
16:24:12:575,0.0881,1.421,10.158,38.5282,0.0502,0.0142,-0.0529,-23.8685
16:24:12:595,0.035,1.4381,9.9041,38.5484,0.0598,-0.006,-0.0518,-23.8685
16:24:12:616,0.0371,1.443,9.852,38.5693,0.0396,-0.006,-0.0454,-23.7781
16:24:12:635,0.006,1.3751,10.113,38.554,0.047,0.0142,-0.0496,-23.7781
16:24:12:657,-0.05,1.289,10.275,38.554,0.0908,0.0004,-0.071,-23.6877
16:24:12:676,-0.234,1.38,9.959,38.5366,0.1226,-0.0624,-0.0965,-23.6877
16:24:12:695,-0.462,1.5791,9.332,38.4802,0.1121,-0.0987,-0.0826,-23.596
16:24:12:715,-0.5771,1.6601,8.963,38.398,0.0641,-0.07,-0.0305,-23.5041
16:24:12:735,-0.512,1.572,9.0041,38.3647,0.0183,0.0004,0.0217,-23.4123
16:24:12:758,-0.366,1.421,9.378,38.3646,-0.001,0.0622,0.043,-23.4123
16:24:12:776,-0.306,1.3661,9.758,38.3619,0.0225,0.0718,0.026,-23.4123
16:24:12:795,-0.3491,1.478,9.7061,38.3389,0.0481,0.043,0.0164,-23.3219
16:24:12:815,-0.476,1.589,9.533,37.9408,0.0481,0.0355,0.0238,-23.3219
16:24:12:836,-0.618,1.6751,9.4181,38.3389,0.045,0.0505,0.0547,-23.3219
16:24:12:858,-0.747,1.802,9.311,38.295,0.0257,0.0729,0.107,-23.3219
16:24:12:877,-0.783,1.823,9.425,38.2693,-0.0158,0.0962,0.1847,-23.3219
16:24:12:896,-0.606,1.632,9.746,38.5229,-0.0425,0.0846,0.2507,-23.3219
16:24:12:915,-0.273,1.352,9.797,38.3256,-0.0414,0.0302,0.2657,-23.3219
16:24:12:934,0.054,1.239,9.32,38.5415,-0.0499,-0.0103,0.2315,-23.3219
16:24:12:954,0.15,1.289,9.102,38.568,-0.0681,0.0686,0.1858,-23.3219
16:24:12:974,-0.038,1.263,9.488,38.5166,-0.0318,0.1963,0.142,-23.3219
16:24:12:994,-0.3611,1.395,9.813,38.4536,0.0098,0.2273,0.1155,-23.3219
16:24:13:014,-0.512,1.694,9.6101,38.7342,-0.0265,0.1452,0.1378,-23.3219
16:24:13:034,-0.4241,1.8611,9.768,38.3733,-0.0872,0.1196,0.1804,-23.3219
16:24:13:055,-0.464,1.859,10.3541,38.6593,-0.0392,0.1815,0.2006,-23.3219
16:24:13:075,-0.68,1.869,10.5791,38.2527,0.0566,0.1826,0.2091,-23.3219
16:24:13:095,-0.9,2.036,10.199,37.6475,0.0652,0.0866,0.2475,-23.3219
16:24:13:115,-0.912,2.1101,9.9281,38.1437,0.0331,0.0388,0.3327,-23.3219
16:24:13:135,-0.72,1.79,9.998,37.5321,0.047,0.0749,0.3882,-23.3219
16:24:13:155,-0.732,1.608,9.998,37.5942,0.0908,0.0824,0.3743,-23.3219
16:24:13:176,-0.8111,1.7561,9.368,38.0775,0.0896,0.0238,0.3807,-23.3219
16:24:13:195,-0.567,1.7321,8.805,38.3109,0.014,-0.0027,0.4137,-23.3219
16:24:13:226,-0.261,1.6241,8.889,37.3431,-0.0329,0.0632,0.4095,-23.3219
16:24:13:234,-0.263,1.416,9.311,37.3546,0.0001,0.1506,0.3541,-23.3219
16:24:13:255,-0.5651,1.4621,9.399,38.6379,0.0364,0.1804,0.2762,-23.3219
16:24:13:275,-0.893,1.7471,9.174,38.5903,-0.0019,0.1698,0.2614,-23.3219
16:24:13:295,-1.044,1.9571,9.327,37.684,-0.0755,0.1815,0.289,-23.3219
16:24:13:315,-0.984,2.0411,9.8591,37.6642,-0.0936,0.2091,0.3168,-23.4201
16:24:13:335,-0.876,2.0081,10.098,37.7046,-0.0723,0.1559,0.3146,-23.5256
16:24:13:356,-0.8261,1.967,9.6911,37.6543,-0.0744,0.0601,0.2975,-23.6385
16:24:13:376,-0.8111,2.1581,9.279,37.5996,-0.1022,0.0664,0.2827,-23.7584
16:24:13:396,-0.8471,2.297,9.543,37.4996,-0.0894,0.1559,0.289,-23.8851
16:24:13:416,-0.852,2.4191,9.933,38.0795,-0.0382,0.1963,0.2816,-24.0182
16:24:13:435,-0.8741,2.592,10.098,38.0704,-0.0169,0.1154,0.271,-24.1574
16:24:13:455,-0.7781,2.6801,9.6911,38.0388,-0.0147,-0.0337,0.2677,-24.3023
16:24:13:476,-0.716,2.673,8.9921,38.028,-0.0297,-0.071,0.2646,-24.4524
16:24:13:496,-0.665,2.7281,8.7671,38.0074,-0.0382,0.0132,0.2677,-24.6076
16:24:13:515,-0.5861,2.747,9.033,37.9809,-0.0573,0.0846,0.2731,-24.7675
16:24:13:536,-0.584,2.6801,9.71,38.3739,-0.0542,0.0622,0.2421,-24.932
16:24:13:558,-0.677,2.6321,9.569,38.4177,0.0044,-0.0359,0.2039,-25.101
16:24:13:576,-0.6941,2.462,8.7,38.3713,-0.0275,-0.0742,0.1869,-25.2736
16:24:13:595,-0.606,2.3861,8.604,38.0456,-0.1255,-0.0155,0.1698,-25.4488
16:24:13:615,-0.543,2.319,9.21,38.3735,-0.1469,0.0718,0.1378,-25.6259
16:24:13:637,-0.426,2.1221,9.6461,38.338,-0.1107,0.0653,0.0718,-25.8043
16:24:13:657,-0.438,2.108,9.4211,37.4666,-0.0946,-0.0155,-0.0124,-25.9828
16:24:13:674,-0.5771,2.2571,8.978,37.1817,-0.1224,-0.0305,-0.0657,-26.1596
16:24:13:694,-0.735,2.427,9.03,37.4087,-0.15,0.0312,-0.0837,-26.3328
16:24:13:714,-0.89,2.553,9.471,37.3577,-0.1298,0.076,-0.0806,-26.5005
16:24:13:734,-1.001,2.529,9.5861,37.3588,-0.1107,0.0345,-0.0593,-26.662
16:24:13:754,-1.005,2.4311,9.5021,37.1031,-0.1361,-0.0294,-0.0422,-26.817
16:24:13:776,-1.118,2.4791,9.78,38.0156,-0.1574,-0.0359,-0.0337,-26.9656
16:24:13:795,-1.317,2.484,10.223,37.9089,-0.1096,-0.0241,-0.0103,-27.1084
16:24:13:815,-1.386,2.348,10.3901,37.9272,-0.0638,-0.0667,0.0269,-27.2457
16:24:13:835,-1.283,2.003,10.2731,37.7012,-0.0553,-0.1414,0.044,-27.3784
16:24:13:855,-1.235,1.802,10.077,38.7959,-0.0542,-0.1636,0.026,-27.5073
16:24:13:876,-1.398,1.811,10.103,37.9064,-0.0349,-0.1178,0.0121,-27.6328
16:24:13:895,-1.484,1.83,10.311,37.6235,0.0012,-0.0934,0.0217,-27.755
16:24:13:915,-1.487,1.8521,10.184,37.1781,0.0268,-0.1743,0.0227,-27.8738
16:24:13:935,-1.494,2.0291,9.548,38.2471,0.0183,-0.2648,0.0397,-27.9893
16:24:13:956,-1.386,2.07,8.9561,38.652,-0.0147,-0.2531,0.0899,-28.1017
16:24:13:976,-1.1681,1.9331,8.987,38.197,-0.0434,-0.1551,0.125,-28.2118
16:24:13:995,-1.008,1.782,9.4301,38.202,-0.0414,-0.0785,0.1293,-28.3207
16:24:14:015,-0.888,1.629,9.756,38.2081,-0.0232,-0.0582,0.1155,-28.4293
16:24:14:035,-0.998,1.569,10.1081,38.5015,-0.0084,-0.0402,0.1016,-28.5381
16:24:14:056,-1.082,1.4831,10.491,38.4461,0.0385,-0.0615,0.1196,-28.6469
16:24:14:077,-0.867,1.2941,10.175,38.2253,0.0789,-0.1573,0.1239,-28.7558
16:24:14:095,-0.6131,1.241,9.5021,38.2443,0.0726,-0.2298,0.1112,-28.8651
16:24:14:115,-0.4691,1.143,8.987,38.2494,0.0874,-0.1658,0.0803,-28.9747
16:24:14:135,-0.527,1.215,8.793,38.1186,0.161,0.0302,0.0366,-29.0844
16:24:14:155,-0.584,1.4591,8.654,38.5402,0.2335,0.2336,0.0397,-29.1935
16:24:14:176,-0.5171,1.541,8.439,38.5915,0.1801,0.2731,0.0962,-29.301
16:24:14:196,-0.201,1.548,8.391,38.5624,-0.0158,0.1634,0.1665,-29.407
16:24:14:215,0.227,1.428,8.7071,38.4998,-0.2076,0.0664,0.2156,-29.5128
16:24:14:235,0.603,1.265,9.284,38.3795,-0.2512,0.1059,0.2134,-29.6204
16:24:14:255,0.6431,1.143,9.7871,37.6181,-0.1863,0.2091,0.1761,-29.7313
16:24:14:276,0.468,1.253,10.115,38.7407,-0.15,0.2401,0.158,-29.8459
16:24:14:299,0.389,1.421,10.364,38.1696,-0.1735,0.1698,0.1793,-29.9638
16:24:14:315,0.5021,1.44,10.611,38.1464,-0.1895,0.0644,0.2188,-30.0849
16:24:14:335,0.665,1.28,10.745,38.062,-0.1511,0.0142,0.2167,-30.2095
16:24:14:355,0.495,1.335,10.5821,38.0795,-0.0818,0.0184,0.1793,-30.3382
16:24:14:375,0.1721,1.601,10.575,38.0605,-0.0477,0.0419,0.1858,-30.4706
16:24:14:395,0.0641,1.665,10.544,38.0656,-0.0254,-0.0529,0.2358,-30.6062
16:24:14:415,0.203,1.4381,9.89,38.3245,-0.051,-0.2031,0.2646,-30.7453
16:24:14:436,0.258,1.344,9.231,39.2022,-0.0712,-0.2403,0.256,-30.8885
16:24:14:456,0.1961,1.3541,8.8271,38.2182,-0.0488,-0.1423,0.2571,-31.0362
16:24:14:478,0.1331,1.2941,8.762,38.2262,-0.0553,-0.0561,0.2731,-31.1885
16:24:14:495,0.143,1.296,8.705,38.2283,-0.117,-0.0465,0.2859,-31.3456
16:24:14:515,0.21,1.407,8.9681,38.2264,-0.2012,-0.0294,0.3029,-31.5076
16:24:14:536,0.3251,1.457,9.483,38.1959,-0.2267,0.0175,0.2975,-31.675
16:24:14:555,0.356,1.493,10.079,38.1265,-0.1639,0.0899,0.2614,-31.8479
16:24:14:577,0.248,1.605,10.563,38.7012,-0.0477,0.1272,0.2039,-32.0261
16:24:14:595,0,1.811,10.4171,37.8434,0.0481,0.0451,0.1634,-32.2084
16:24:14:615,-0.1631,2.091,9.5711,36.9096,0.0492,-0.0635,0.1655,-32.3935
16:24:14:635,-0.297,2.304,9.1721,36.9286,0.0236,-0.0305,0.1997,-32.5802
16:24:14:655,-0.452,2.462,9.315,38.2766,0.0832,0.1133,0.2549,-32.768
16:24:14:677,-0.5621,2.4671,9.4729,37.9043,0.1376,0.2123,0.3253,-32.9573
16:24:14:695,-0.627,2.3861,9.749,38.0815,0.1024,0.2017,0.3988,-33.1494
16:24:14:714,-0.543,2.182,10.208,37.9233,0.0578,0.1687,0.4692,-33.3458
16:24:14:735,-0.381,1.914,10.7591,38.51,0.095,0.1474,0.4914,-33.5486
16:24:14:755,-0.3371,1.773,10.599,37.3239,0.1684,0.1165,0.4734,-33.7595
16:24:14:777,-0.503,1.8611,10.0481,38.9083,0.1983,0.1293,0.4658,-33.9793
16:24:14:796,-0.632,1.926,9.8921,37.8175,0.1909,0.2145,0.5118,-34.208
16:24:14:815,-0.8351,1.6391,9.974,38.4183,0.1642,0.3051,0.5661,-34.4457
16:24:14:835,-1.2071,1.4021,10.35,38.0855,0.1045,0.3828,0.6236,-34.6932
16:24:14:855,-1.2521,1.347,10.6901,38.9154,0.0172,0.3689,0.7142,-34.9515
16:24:14:877,-1.0271,1.227,10.386,38.8215,-0.1074,0.2347,0.7993,-35.2224
16:24:14:895,-0.68,1.0691,10.0961,38.6719,-0.2938,0.1442,0.8654,-35.508
16:24:14:916,-0.5771,0.992,10.388,38.5758,-0.4558,0.0249,0.9069,-35.8107
16:24:14:935,-0.3761,0.9401,10.752,38.8083,-0.5527,-0.1253,0.9166,-36.1327
16:24:14:955,-0.0911,0.83,10.824,39.3827,-0.4962,-0.1477,0.8856,-36.4753
16:24:14:978,0.035,0.777,10.8311,38.6285,-0.3248,0.0025,0.7844,-36.839
16:24:14:995,-0.11,0.866,11.3171,38.4964,-0.0553,0.2603,0.6662,-37.2223
16:24:15:014,-0.527,0.911,10.986,37.9599,0.2227,0.3509,0.5809,-37.6224
16:24:15:035,-0.9071,1.028,10.041,37.9582,0.2313,0.2294,0.565,-38.0358
16:24:15:055,-1.034,0.98,9.624,38.5008,0.1163,0.076,0.6002,-38.4594
16:24:15:076,-0.8141,0.731,9.246,38.3231,0.0971,0.0153,0.6119,-38.8914
16:24:15:095,-0.5171,0.6671,8.631,38.2476,0.1141,0.076,0.5681,-39.3315
16:24:15:115,-0.371,0.8201,8.482,38.8924,0.1024,0.2049,0.5096,-39.779
16:24:15:135,-0.306,0.956,8.8751,38.7289,0.1045,0.2625,0.4606,-40.2328
16:24:15:155,-0.29,1.134,8.9081,37.9453,0.0993,0.1932,0.4073,-40.6913
16:24:15:178,-0.3491,1.433,8.678,37.8202,0.0789,0.0931,0.3754,-41.1529
16:24:15:197,-0.359,1.668,8.238,38.4543,0.0578,0.0505,0.3732,-41.6162
16:24:15:216,-0.39,1.761,8.1761,37.5877,0.0353,0.0942,0.3796,-42.0799
16:24:15:245,-0.4691,1.818,8.465,38.2903,0.0109,0.1207,0.4009,-42.5436
16:24:15:254,-0.4331,1.7711,8.7671,39.0628,-0.0126,0.0824,0.4073,-43.007
16:24:15:275,-0.318,1.857,9.0281,38.186,-0.0137,0.0269,0.3785,-43.4704
16:24:15:296,-0.3011,1.962,9.174,38.912,0.0396,-0.0049,0.3231,-43.9339
16:24:15:315,-0.438,2.024,9.002,38.0607,0.0993,-0.0103,0.2634,-44.3966
16:24:15:337,-0.687,2.2181,8.772,37.9738,0.1206,0.011,0.2251,-44.8573
16:24:15:355,-0.924,2.4071,8.762,37.8922,0.1078,0.0355,0.2273,-45.3144
16:24:15:375,-1.044,2.52,8.772,37.8635,0.0747,-0.0166,0.2625,-45.7668
16:24:15:395,-0.819,2.508,8.6471,37.8628,0.0001,-0.0891,0.3061,-46.2142
16:24:15:415,-0.522,2.381,8.9081,37.8185,-0.0329,-0.0742,0.3136,-46.6573
16:24:15:436,-0.4331,2.2129,9.179,37.7999,-0.018,0.0067,0.2966,-47.0969
16:24:15:456,-0.3611,1.952,9.7151,37.7384,-0.0084,0.1272,0.2592,-47.5335
16:24:15:478,-0.4691,1.763,10.668,36.9339,0.0641,0.2923,0.1932,-47.9672
16:24:15:495,-0.5531,1.562,11.781,38.5452,0.2324,0.402,0.0994,-48.3971
16:24:15:516,-0.7421,1.6391,11.832,37.9764,0.439,0.3433,-0.0487,-48.8214
16:24:15:535,-1.3451,2.156,10.3931,36.7261,0.4635,0.1622,-0.1445,-49.2372
16:24:15:556,-1.9991,3.054,9.0731,38.1978,0.1738,-0.0103,-0.0635,-49.6407
16:24:15:577,-2.3081,3.446,9.042,37.5489,-0.2725,-0.1189,0.2251,-50.0297
16:24:15:596,-1.4441,2.747,10.91,37.5996,-0.5079,-0.0635,0.5064,-50.4068
16:24:15:616,-0.191,1.524,12.741,36.8339,-0.3418,-0.055,0.5287,-50.7788
16:24:15:636,0.519,0.722,12.792,37.5683,-0.0254,-0.2531,0.2901,-51.1518
16:24:15:656,0.191,0.822,10.8911,37.5307,0.1886,-0.4076,-0.006,-51.527
16:24:15:674,-0.7301,1.368,9.267,37.5586,0.2238,-0.3224,-0.1253,-51.9006
16:24:15:696,-1.166,1.6871,8.631,37.5449,0.1525,-0.1136,-0.0667,-52.2668
16:24:15:715,-1.178,1.634,9.2411,37.4167,0.0832,0.0451,0.026,-52.6225
16:24:15:735,-0.993,1.49,9.447,37.4167,0.0566,0.0206,0.0866,-52.967
16:24:15:755,-0.881,1.4831,9.0731,37.4033,-0.0382,-0.055,0.1261,-53.3017
16:24:15:777,-0.876,1.6151,9.011,37.4033,-0.1404,-0.0422,0.1804,-53.6281
16:24:15:796,-0.6701,1.589,9.5741,37.3984,-0.1446,0.0408,0.2421,-53.9479
16:24:15:815,-0.378,1.4021,9.8111,37.3936,-0.0553,0.0121,0.2401,-54.2631
16:24:15:836,-0.143,1.404,9.0761,36.7573,0.0044,-0.1189,0.1878,-54.5755
16:24:15:856,-0.1631,1.608,8.231,36.7835,-0.0254,-0.1882,0.1303,-54.8856
16:24:15:878,-0.17,1.833,8.013,37.4096,-0.0223,-0.1338,0.1005,-55.1929
16:24:15:896,-0.155,1.811,7.929,37.4002,0.045,0.0099,0.0824,-55.4967
16:24:15:916,-0.1871,1.677,7.814,36.6539,0.0832,0.1133,0.0494,-55.7959
16:24:15:936,-0.428,1.7711,7.776,36.5768,0.0407,0.1974,0.0302,-56.0898
16:24:15:956,-0.807,1.842,8.202,37.4321,-0.034,0.3083,0.0686,-56.3774
16:24:15:978,-1.094,1.85,9.243,36.8552,-0.0744,0.4147,0.14,-56.6586
16:24:15:996,-1.2521,1.8041,10.3421,36.6661,-0.036,0.4052,0.206,-56.9341
16:24:16:016,-1.2971,1.773,10.316,36.5887,-0.003,0.2592,0.2518,-57.2052
16:24:16:035,-1.4411,1.859,9.885,37.5201,-0.0531,0.2507,0.3072,-57.4739
16:24:16:055,-1.772,1.677,10.242,37.2126,-0.0883,0.4286,0.3956,-57.7416
16:24:16:078,-2.016,1.512,11.051,37.1269,-0.0957,0.5959,0.4894,-58.0106
16:24:16:096,-2.121,1.416,11.879,36.2739,-0.1128,0.5533,0.5703,-58.2834
16:24:16:116,-2.15,1.629,11.7311,37.132,-0.1585,0.3305,0.6247,-58.5628
16:24:16:136,-2.0921,1.893,11.2211,36.4925,-0.215,0.2188,0.7131,-58.8513
16:24:16:155,-1.965,1.938,11.013,36.4178,-0.2193,0.1974,0.8228,-59.1512
16:24:16:178,-1.997,1.8161,10.9721,36.9047,-0.2129,0.1719,0.9261,-59.4653
16:24:16:196,-1.704,1.431,11.322,36.7555,-0.2108,0.0686,1.0124,-59.7966
16:24:16:216,-1.2971,0.923,11.291,36.8315,-0.1235,-0.1008,0.9932,-60.1481
16:24:16:235,-1.0871,0.777,10.196,36.7125,-0.0542,-0.2446,0.9005,-60.5215
16:24:16:256,-1.1921,0.815,9.102,36.4787,-0.0914,-0.235,0.8323,-60.9165
16:24:16:276,-1.1441,0.743,8.9441,36.5256,-0.1426,-0.0752,0.8015,-61.3313
16:24:16:295,-0.725,0.549,9.332,36.3558,-0.1372,0.0601,0.7279,-61.7638
16:24:16:316,-0.464,0.7271,9.684,36.3061,-0.0723,0.0781,0.5906,-62.2121
16:24:16:337,-0.407,1.122,9.3731,36.9484,0.0129,-0.0049,0.4669,-62.6735
16:24:16:357,-0.4451,1.598,8.738,37.0267,0.0492,-0.1019,0.3796,-63.1439
16:24:16:378,-0.555,2.0291,8.25,36.9171,0.0811,-0.1434,0.3305,-63.6195
16:24:16:395,-0.596,2.204,7.9241,36.1393,0.1248,-0.1167,0.3157,-64.0972
16:24:16:415,-0.618,2.24,7.608,36.0643,0.1642,-0.0678,0.2933,-64.5744
16:24:16:435,-0.761,2.429,7.6181,36.7252,0.1557,-0.0155,0.2838,-65.0496
16:24:16:455,-0.855,2.52,8.082,36.5783,0.1653,0.0015,0.3103,-65.5216
16:24:16:476,-0.6341,2.439,8.142,36.4282,0.177,-0.038,0.3253,-65.9899
16:24:16:496,-0.3491,2.381,8.2121,36.3202,0.1323,-0.0997,0.3018,-66.4548
16:24:16:517,-0.3131,2.393,8.5751,36.2458,0.08,-0.1093,0.254,-66.9164
16:24:16:536,-0.242,2.283,9.0161,36.2074,0.1024,-0.0198,0.173,-67.3742
16:24:16:555,-0.275,2.3381,9.5711,36.1461,0.1547,0.1687,0.0632,-67.8274
16:24:16:579,-0.369,2.259,10.788,35.9881,0.2941,0.3817,-0.0615,-68.2737
16:24:16:596,-0.756,2.1011,11.4941,36.4071,0.5371,0.4275,-0.2137,-68.7105
16:24:16:616,-1.35,2.285,10.4261,35.7699,0.5829,0.2336,-0.3106,-69.1339
16:24:16:636,-2.0089,2.676,9.354,35.7047,0.2995,0.044,-0.2787,-69.5393
16:24:16:656,-2.265,2.96,9.816,36.4389,-0.0275,-0.0359,-0.121,-69.9242
16:24:16:678,-1.841,2.6801,10.551,34.9532,-0.2097,-0.0572,0.0355,-70.2893
16:24:16:695,-0.917,2.151,11.13,36.6665,-0.3407,-0.072,0.0803,-70.6382
16:24:16:716,-0.1991,1.6751,12.152,36.715,-0.3663,-0.039,-0.0294,-70.975
16:24:16:736,-0.0911,1.416,13.251,36.9173,-0.1511,-0.0454,-0.2318,-71.3018
16:24:16:756,-0.4601,1.5311,12.246,36.8541,0.1898,-0.1903,-0.4108,-71.6174
16:24:16:779,-0.878,1.9001,10.1531,36.8441,0.2782,-0.2574,-0.4705,-71.9177
16:24:16:798,-1.0481,2.237,9.009,36.9634,0.1653,-0.2265,-0.4364,-72.1984
16:24:16:815,-0.9911,2.352,8.781,36.9814,0.0353,-0.1243,-0.3299,-72.4573
16:24:16:836,-0.6011,2.1101,9.0521,37.1837,-0.0297,-0.0007,-0.2446,-72.6948
16:24:16:856,-0.359,1.952,9.275,37.2072,-0.0733,0.1111,-0.2255,-72.9131
16:24:16:878,-0.2681,1.986,9.753,37.105,-0.1298,0.2273,-0.2094,-73.1149
16:24:16:896,-0.2321,2.022,10.716,37.7004,-0.1309,0.2668,-0.1881,-73.3021
16:24:16:916,-0.201,1.941,10.857,37.6057,-0.0553,0.1165,-0.1636,-73.4763
16:24:16:936,0.15,1.799,9.813,36.9993,-0.1053,-0.1999,-0.121,-73.6387
16:24:16:955,0.7391,1.4741,8.676,37.8409,-0.2214,-0.4961,-0.1402,-73.7908
16:24:16:976,1.2371,1.167,8.358,37.7856,-0.1724,-0.4555,-0.2767,-73.9338
16:24:16:995,0.8711,1.811,8.609,38.3144,0.1536,-0.1743,-0.5226,-74.0673
16:24:17:015,-0.0521,2.7671,8.312,38.3238,0.3847,-0.0635,-0.5556,-74.1879
16:24:17:036,-0.539,2.9171,7.742,38.3203,0.3538,-0.0848,-0.4513,-74.2911
16:24:17:056,-0.7781,2.915,7.6751,38.2795,0.2569,0.0217,-0.3011,-74.2911
16:24:17:078,-0.663,2.7521,8.669,38.2721,0.2707,0.2657,-0.1477,-74.2911
16:24:17:096,-0.474,2.316,9.476,38.0353,0.3208,0.3902,-0.039,-74.2911
16:24:17:115,-0.1631,1.5911,10.227,39.7359,0.3059,0.2401,-0.0177,-74.2911
16:24:17:135,0.1571,1.179,10.218,38.9769,0.2377,0.0078,-0.1519,-74.2911
16:24:17:155,-0.596,1.773,10.656,38.9529,0.2633,0.0601,-0.3021,-74.2911
16:24:17:175,-1.745,2.321,11.204,39.6828,0.4379,0.3072,-0.2403,-74.2911
16:24:17:196,-2.4131,2.405,10.883,39.827,0.4615,0.4393,-0.0359,-74.2911
16:24:17:216,-2.526,1.979,11.1521,39.6991,0.2516,0.2998,0.1389,-74.2911
16:24:17:251,-2.241,1.802,10.9241,39.0913,-0.0318,-0.1925,0.2347,-74.2911
16:24:17:255,-1.8581,2.355,9.978,40.1358,-0.3396,-0.495,0.3807,-74.2911
16:24:17:276,-1.187,2.343,10.455,39.944,-0.5016,-0.3565,0.5405,-74.2911
16:24:17:296,-0.378,1.68,11.8241,40.4664,-0.2332,0.0388,0.5372,-74.2911
16:24:17:315,-0.1361,1.052,11.5181,40.2354,0.3549,0.3263,0.3125,-74.2911
16:24:17:336,-0.6731,1.359,9.77,40.3806,0.6766,0.4649,0.0653,-74.2911
16:24:17:356,-1.527,1.9451,8.255,40.5077,0.5775,0.4115,0.0004,-74.2911
16:24:17:379,-2.5331,2.51,7.62,41.2998,0.2355,0.3242,0.1517,-74.2911
16:24:17:396,-1.932,2.6441,7.934,41.3067,-0.1107,0.1622,0.3509,-74.2911
16:24:17:416,-1.518,2.273,7.977,41.1066,-0.4058,0.2677,0.5394,-74.2911
16:24:17:436,-0.905,1.871,9.141,41.0043,-0.4814,0.2518,0.5362,-74.3835
16:24:17:456,-0.855,1.773,10.505,40.9463,-0.3385,0.0184,0.3988,-74.4883
16:24:17:478,-0.864,2.0171,10.3781,40.3501,0.0098,-0.2468,0.2549,-74.6065
16:24:17:495,-0.6731,2.2091,9.174,40.2438,0.2303,-0.4577,0.1282,-74.7359
16:24:17:516,-0.522,2.462,8.1761,41.1782,0.2377,-0.5823,0.0249,-74.8725
16:24:17:536,-0.7091,2.922,7.9631,40.9993,0.2303,-0.5386,-0.0518,-75.0123
16:24:17:557,-0.936,3.1421,7.79,40.5983,0.2548,-0.4663,-0.071,-75.1514
16:24:17:578,-0.984,3.231,7.632,41.4806,0.3378,-0.2969,-0.0742,-75.287
16:24:17:597,-0.917,3.1691,7.275,41.7042,0.3879,-0.105,-0.0624,-75.4172
16:24:17:617,-0.4481,2.429,7.28,42.3787,0.323,0.1196,-0.1189,-75.5412
16:24:17:636,-1.338,3.5831,8.274,41.681,0.1727,0.2432,-0.1541,-75.6586
16:24:17:656,-0.833,2.901,9.768,41.7087,0.2014,0.1708,-0.0326,-75.7679
16:24:17:676,-0.5171,2.5151,9.818,41.6795,0.3528,-0.0188,-0.1167,-75.8699
16:24:17:696,-0.282,2.5751,8.288,41.6333,0.4092,-0.1286,-0.25,-75.965
16:24:17:716,-0.3011,2.889,8.1011,41.6359,0.1866,-0.0624,-0.3074,-75.965
16:24:17:736,0.03,2.699,8.7311,43.202,0.1184,0.0909,-0.3469,-75.965
16:24:17:756,0.435,2.5181,9.935,42.4049,0.3102,0.5181,-0.4097,-75.965
16:24:17:779,0.1601,1.938,10.8911,42.5098,0.601,0.5437,-0.5845,-75.965
16:24:17:796,-0.783,2.5511,9.9431,42.4874,0.5093,0.1559,-0.7784,-75.965
16:24:17:816,-1.3961,3.399,9.758,41.8832,0.1695,-0.1189,-0.6815,-75.965
16:24:17:835,-0.989,3.095,9.9281,42.8096,0.0492,-0.1658,-0.4982,-75.965
16:24:17:856,-0.2111,2.585,9.935,42.8016,0.0459,-0.1317,-0.4939,-75.965
16:24:17:878,-0.048,2.628,9.612,42.7062,0.0811,-0.2287,-0.6366,-75.965
16:24:17:895,-0.5981,2.699,9.014,42.603,0.0896,-0.1584,-0.725,-75.965
16:24:17:915,-1.5011,3.401,8.824,42.5126,0.0407,-0.1136,-0.7102,-75.965
16:24:17:936,-1.8,4.035,8.4701,42.597,-0.1309,-0.0934,-0.5152,-75.8561
16:24:17:956,-1.1951,3.578,8.585,42.3913,-0.3631,0.0249,-0.2798,-75.7269
16:24:17:975,-0.3731,2.5751,9.251,42.6134,-0.5079,0.0323,-0.2585,-75.5827
16:24:17:997,-0.069,1.751,10.077,42.1244,-0.5772,-0.0997,-0.5067,-75.4293
16:24:18:015,-1.331,2.7401,11.379,41.8563,-0.411,-0.3821,-0.7443,-75.2684
16:24:18:037,-1.6691,3.87,9.938,42.8697,-0.1574,-0.6985,-0.609,-75.0964
16:24:18:057,-0.558,3.312,8.3051,42.2206,-0.0638,-0.5173,-0.4129,-74.9102
16:24:18:076,-0.8621,3.332,8.621,42.5884,0.0428,-0.25,-0.414,-74.7112
16:24:18:096,-5.858,9.221,5.2121,41.6416,0.0587,0.3189,0.7311,-74.5016
16:24:18:115,0.102,1.416,5.808,41.8001,-0.9042,0.4701,1.0241,-74.2896
16:24:18:136,0.672,-0.311,9.488,41.9329,-1.8087,-1.1682,0.7589,-74.0967
16:24:18:157,0.626,1.28,12.725,42.3564,-0.5878,0.1528,0.1229,-73.8893
16:24:18:176,-2.0351,2.7641,12.521,42.1512,0.341,-0.3032,0.0749,-73.6856
16:24:18:197,-0.687,2.2661,8.5301,42.1047,0.1099,-0.6335,0.3466,-73.4871
16:24:18:215,-0.0911,1.8041,9.0401,43.0833,-0.3706,-0.5664,0.2762,-73.2971
16:24:18:236,-0.246,2.079,10.026,42.5475,-0.2608,-0.4811,0.1367,-73.1196
16:24:18:256,-0.342,2.2691,9.246,41.82,0.0012,-0.1925,0.0696,-72.9548
16:24:18:275,-0.6581,2.453,9.2771,41.814,0.1504,0.3359,0.1165,-72.8006
16:24:18:297,-1.034,2.0201,10.793,42.5751,0.1716,0.565,0.2273,-72.6555
16:24:18:316,-0.936,1.931,11.4941,42.4711,0.1759,0.3871,0.2188,-72.5195
16:24:18:336,-1.238,2.412,10.757,42.4657,0.0076,0.1878,0.2464,-72.3937
16:24:18:356,-1.511,2.9651,11.6471,43.4466,-0.3535,-0.0539,0.5033,-72.2781
16:24:18:377,-0.689,2.3711,12.416,42.9604,-0.4388,-0.2894,0.7481,-72.1753
16:24:18:397,0.425,1.2491,11.87,42.8923,-0.2566,-0.5354,0.7131,-72.1753
16:24:18:416,0.9311,0.7121,10.3931,41.4164,0.0587,-0.4791,0.418,-72.1753
16:24:18:436,0.483,1.1741,9.32,42.3204,0.2984,-0.1189,0.1836,-72.1753
16:24:18:456,-0.285,1.677,8.889,41.7732,0.3602,0.2294,0.1804,-72.1753
16:24:18:476,-0.6131,1.605,8.793,42.61,0.2366,0.3913,0.2966,-72.1753
16:24:18:497,-0.419,1.134,9.083,41.9401,-0.0137,0.2646,0.3455,-72.1753
16:24:18:516,-0.239,1.1171,9.114,42.8978,-0.3131,-0.1221,0.2592,-72.1753
16:24:18:535,-0.318,1.83,9.129,42.9053,-0.297,-0.1508,0.1986,-72.1753
16:24:18:557,-0.239,2.154,8.786,41.891,-0.1574,-0.071,0.2625,-72.1753
16:24:18:576,0.021,2.034,8.532,41.8691,-0.0297,0.0846,0.2838,-72.1753
16:24:18:598,0.1451,2.015,8.544,41.9924,0.0865,0.1687,0.2082,-72.1753
16:24:18:616,0.002,2.295,8.449,42.5512,0.1621,0.1665,0.0899,-72.1753
16:24:18:636,-0.246,2.594,8.4799,42.5652,0.2207,0.1613,0.0047,-72.1753
16:24:18:657,-0.335,2.7641,8.492,42.715,0.2984,0.1144,-0.0774,-72.1753
16:24:18:677,-0.33,2.922,8.2361,42.7458,0.3112,0.0184,-0.1338,-72.1753
16:24:18:696,-0.2441,2.9201,8.063,42.7304,0.2728,-0.0103,-0.1616,-72.1753
16:24:18:715,-0.179,2.874,8.192,42.6979,0.2591,0.0355,-0.2009,-72.1753
16:24:18:736,-0.158,2.8721,8.561,41.7843,0.2846,0.1005,-0.2446,-72.1753
16:24:18:756,-0.1601,2.877,8.913,42.7133,0.2984,0.0877,-0.2883,-72.1753
16:24:18:776,-0.1361,2.996,9.1121,42.8448,0.2685,-0.0007,-0.3267,-72.1753
16:24:18:796,-0.2539,3.2741,9.1361,42.8476,0.1716,-0.0795,-0.3149,-72.1753
16:24:18:815,-0.522,3.26,9.5261,42.8391,0.063,-0.1125,-0.2298,-72.1753
16:24:18:836,-0.594,2.8001,9.8591,42.3668,-0.052,-0.1636,-0.1402,-72.1753
16:24:18:856,-0.218,2.292,10.3931,42.3862,-0.1991,-0.2468,-0.1264,-72.1753
16:24:18:876,0.27,2.115,10.8791,42.8855,-0.3556,-0.4374,-0.2116,-72.1753
16:24:18:897,0.4301,2.477,10.979,42.9582,-0.4899,-0.6335,-0.3256,-72.1753
16:24:18:916,0.33,3.0251,11.132,42.8414,-0.6284,-0.6931,-0.3213,-72.1753
16:24:18:936,0.617,2.726,12.0521,43.2253,-0.6539,-0.6016,-0.2531,-72.1753
16:24:18:955,1.0811,1.814,12.7961,42.0377,-0.4175,-0.4757,-0.3469,-72.1753
16:24:18:975,0.6461,1.457,12.014,42.9116,-0.0723,-0.3191,-0.5717,-72.1753
16:24:18:997,-0.278,1.7921,10.965,42.9874,0.0886,-0.0965,-0.659,-72.1753
16:24:19:015,-0.728,2.115,10.2971,42.9532,0.0151,-0.0209,-0.5471,-72.1753
16:24:19:035,-0.2801,1.842,10.0361,42.842,-0.1969,-0.0956,-0.4001,-72.1753
16:24:19:055,0.248,1.371,10.295,42.6135,-0.3174,-0.2222,-0.3799,-72.0679
16:24:19:074,0.5351,1.2101,9.983,42.4864,-0.2534,-0.3447,-0.4449,-71.9475
16:24:19:095,0.464,1.284,9.069,42.3092,-0.1458,-0.3575,-0.5035,-71.8154
16:24:19:116,-0.194,1.962,8.054,42.32,0.1226,-0.0859,-0.4694,-71.6712
16:24:19:136,-0.246,2.1971,7.6391,42.2406,0.1898,0.0749,-0.3651,-71.5144
16:24:19:156,-0.0791,2.264,7.4891,42.232,0.1706,0.0664,-0.2553,-71.3452
16:24:19:176,0.365,2.187,7.544,42.2318,0.0993,-0.0657,-0.1881,-71.1648
16:24:19:198,0.863,2.1251,7.151,41.7933,0.0279,-0.2617,-0.1349,-70.976
16:24:19:215,1.077,1.8761,7.184,42.8774,-0.018,-0.2009,-0.1754,-70.7819
16:24:19:235,0.998,1.8281,7.601,42.911,0.0055,0.0089,-0.219,-70.5851
16:24:19:258,0.591,1.9811,8.654,42.3078,0.0598,0.3072,-0.2094,-70.387
16:24:19:275,0.354,2,10.019,42.3334,0.1088,0.4786,-0.1616,-70.1878
16:24:19:296,0.3131,1.692,10.9511,42.2501,0.1578,0.3988,-0.1295,-69.9873
16:24:19:315,0.258,1.3781,10.8041,43.7105,0.1695,0.1272,-0.1786,-69.7862
16:24:19:336,0.0521,1.653,9.8681,43.5788,0.1067,-0.022,-0.219,-69.5853
16:24:19:356,-0.23,2.0291,9.399,42.1094,-0.0254,0.0675,-0.1701,-69.3848
16:24:19:376,-0.347,2.249,10.0571,42.6399,-0.1287,0.2731,-0.0593,-69.1842
16:24:19:398,-0.282,2.072,10.907,42.6651,-0.1277,0.3583,0.0078,-68.983
16:24:19:415,-0.536,2.115,10.919,42.5994,-0.1361,0.3072,-0.0124,-68.7819
16:24:19:435,-1.185,2.841,10.488,41.4869,-0.2332,0.2677,0.0483,-68.5833
16:24:19:455,-1.448,3.36,10.6751,42.9481,-0.4067,0.3253,0.2944,-68.3883
16:24:19:476,-0.809,2.7281,12.1931,43.0076,-0.4803,0.2762,0.5224,-68.1979
16:24:19:497,0.03,1.629,12.684,42.7457,-0.3226,-0.007,0.5287,-68.015
16:24:19:516,0.48,0.9521,11.571,41.7316,-0.1235,-0.2585,0.3541,-67.8452
16:24:19:535,0.303,0.9761,10.3781,41.7059,-0.0169,-0.2414,0.1559,-67.5599
16:24:19:555,-0.3131,1.256,9.909,41.2694,0.0246,-0.0359,0.109,-67.4423
16:24:19:575,-0.5771,1.148,9.854,41.7157,0.0214,0.1176,0.1708,-67.3367
16:24:19:597,-0.414,0.9011,9.476,41.7152,-0.0584,0.0345,0.2113,-67.2411
16:24:19:616,-0.177,1.047,8.8151,43.7425,-0.1958,-0.153,0.2336,-67.2411
16:24:19:636,0.1121,1.2611,8.1041,42.2751,-0.3237,-0.2681,0.2668,-67.2411
16:24:19:656,0.3221,1.356,7.958,42.4109,-0.3993,-0.2127,0.2998,-67.2411
16:24:19:676,0.6341,1.3061,8.492,41.2249,-0.2949,-0.0582,0.2881,-67.2411
16:24:19:698,0.789,1.2251,8.4461,41.2574,-0.1064,0.0388,0.1836,-67.2411
16:24:19:716,0.5711,1.428,8.3651,41.2272,0.0109,0.0462,0.0558,-67.2411
16:24:19:736,0.27,1.871,8.262,42.2306,0.0908,-0.007,-0.0337,-67.2411
16:24:19:756,-0.014,2.2331,8.228,42.2306,0.1504,-0.0337,-0.0561,-67.2411
16:24:19:777,0.119,2.304,8.07,42.3238,0.2153,-0.0188,-0.0487,-67.2411
16:24:19:797,0.2291,2.261,8.051,42.3401,0.2227,0.0249,-0.0869,-67.2411
16:24:19:816,0.023,2.498,8.1761,41.3329,0.2005,0.0729,-0.121,-67.2411
16:24:19:836,-0.143,2.697,8.669,41.3435,0.1557,0.1324,-0.0965,-67.2411
16:24:19:856,-0.1631,2.702,9.224,41.4589,0.1248,0.1293,-0.0507,-67.2411
16:24:19:875,-0.122,2.534,9.557,41.4751,0.0917,0.0653,-0.0113,-67.2411
16:24:19:896,-0.0671,2.5151,9.552,41.9466,0.0066,-0.0049,0.0132,-67.2411
16:24:19:915,-0.146,2.6561,9.986,41.4318,-0.1469,-0.0103,0.0536,-67.2411
16:24:19:935,-0.0071,2.45,10.989,42.427,-0.2332,-0.0368,0.0994,-67.2411
16:24:19:956,0.365,2.1941,11.441,42.4198,-0.2342,-0.186,0.0451,-67.2411
16:24:19:976,0.2981,2.393,10.922,41.9696,-0.2949,-0.3352,-0.0422,-67.2411
16:24:19:999,0.1361,2.501,11.2931,41.8932,-0.3769,-0.1957,-0.0081,-67.2411
16:24:20:016,0.5,1.751,12.842,40.7098,-0.2694,0.0323,0.0089,-67.2411
16:24:20:036,0.83,0.789,13.85,41.6851,0.0672,0.0334,-0.121,-67.2411
16:24:20:056,0.447,0.3461,12.045,41.7852,0.3719,-0.1295,-0.3256,-67.2411
16:24:20:076,-0.213,0.7031,9.8561,41.8075,0.3197,-0.0615,-0.4044,-67.2411
16:24:20:095,-0.867,1.11,9.557,40.7995,0.1088,0.1613,-0.3171,-67.2411
16:24:20:115,-0.902,1.115,10.359,40.7995,-0.0573,0.2464,-0.1499,-67.2411
16:24:20:136,-0.395,0.818,10.836,40.7647,-0.1394,0.0749,-0.0444,-67.2411
16:24:20:156,0.251,0.5089,10.424,40.723,-0.1852,-0.1935,-0.0689,-67.2411
16:24:20:175,0.483,0.5179,9.579,40.665,-0.1309,-0.3352,-0.1838,-67.2411
16:24:20:195,0.416,0.77,8.688,40.5892,-0.019,-0.2798,-0.2926,-67.2411
16:24:20:216,0.0641,1.095,8.123,40.5427,0.078,-0.1371,-0.3373,-67.2411
16:24:20:235,0.014,1.301,7.9241,40.5714,0.0993,-0.0678,-0.3182,-67.1431
16:24:20:254,0.179,1.478,8.133,40.5714,0.0939,-0.0828,-0.2809,-67.0383
16:24:20:275,0.5,1.253,8.2211,40.5625,0.1471,-0.1072,-0.2776,-66.9265
16:24:20:295,0.6791,1.122,8.034,39.2279,0.2366,-0.0368,-0.3618,-66.8085
16:24:20:314,0.365,1.466,7.7591,39.7482,0.3059,0.1367,-0.4236,-66.684
16:24:20:334,-0.273,1.809,8.2571,39.2466,0.3134,0.3009,-0.3682,-66.5514
16:24:20:354,-0.56,1.727,8.8721,39.767,0.3006,0.3274,-0.2628,-66.4102
16:24:20:375,-0.5621,1.665,9.287,39.905,0.2611,0.2412,-0.1946,-66.2613
16:24:20:394,-0.816,1.818,9.4331,39.9638,0.225,0.1655,-0.1158,-66.1065
16:24:20:415,-1.075,1.9091,9.2531,40.4691,0.1599,0.1869,0.0291,-65.9479
16:24:20:435,-1.1951,1.8611,9.1361,40.6511,-0.0158,0.2432,0.2102,-65.7883
16:24:20:455,-1.1441,1.665,9.734,39.6234,-0.2438,0.3125,0.385,-65.632
16:24:20:476,-0.8351,1.347,10.8641,38.7472,-0.41,0.3135,0.4755,-65.484
16:24:20:495,-0.6251,1.203,11.741,38.7121,-0.4175,0.1878,0.4425,-65.3491
16:24:20:515,-0.84,1.49,11.051,38.681,-0.3237,0.1037,0.3785,-65.2305
16:24:20:534,-1.139,2.118,10.4171,38.6631,-0.3481,0.2199,0.4232,-65.1287
16:24:20:555,-1.211,2.082,11.721,40.1692,-0.3737,0.2773,0.5479,-65.1287
16:24:20:576,-0.84,1.548,12.09,38.672,-0.2139,0.0931,0.5874,-65.1287
16:24:20:595,-0.737,1.158,10.974,38.8415,-0.1064,-0.103,0.5362,-65.1287
16:24:20:616,-0.855,1.155,9.378,38.805,-0.1309,-0.0891,0.5118,-65.1287
16:24:20:635,-0.941,0.906,9.342,38.7951,-0.2779,0.1836,0.5468,-65.1287
16:24:20:655,-0.797,0.389,10.721,37.8673,-0.3194,0.3828,0.549,-65.1287
16:24:20:676,-0.6221,0.1571,11.1161,37.8791,-0.2353,0.3604,0.4755,-65.1287
16:24:20:696,-0.5771,0.4151,10.338,38.9018,-0.1937,0.208,0.3679,-65.1287
16:24:20:716,-0.749,1.122,9.4181,37.9697,-0.1926,0.1293,0.3338,-65.1287
16:24:20:736,-0.692,1.512,9.038,37.0748,-0.2182,0.1037,0.3935,-65.1287
16:24:20:755,-0.251,1.4981,8.997,37.0621,-0.2065,0.011,0.4243,-65.1287
16:24:20:776,0.231,1.419,8.736,37.0623,-0.1277,-0.1136,0.3689,-65.2282
16:24:20:795,0.3941,1.452,8.202,37.2466,0.0033,-0.1541,0.2336,-65.3392
16:24:20:816,0.119,1.797,7.812,38.1785,0.1536,-0.0615,0.1112,-65.4597
16:24:20:835,-0.218,2.228,7.6781,37.2615,0.2398,0.0388,0.0653,-65.5863
16:24:20:856,-0.278,2.249,7.6631,36.3576,0.2431,0.043,0.061,-65.7157
16:24:20:875,-0.2921,2.166,8.085,36.6359,0.2133,0.0707,0.028,-65.8457
16:24:20:896,-0.495,2.1371,8.939,36.6661,0.2644,0.1869,-0.0113,-65.9748
16:24:20:917,-0.756,2.1251,9.981,36.6516,0.3697,0.2762,-0.0487,-66.1016
16:24:20:936,-0.864,2.285,10.46,36.1579,0.4742,0.1772,-0.0604,-66.2247
16:24:20:956,-0.867,2.417,9.9521,36.2112,0.4635,-0.0305,-0.0539,-66.3429
16:24:20:976,-0.8861,2.544,9.471,36.1636,0.3059,-0.1616,-0.022,-66.4552
16:24:20:996,-0.9581,2.585,9.878,36.1353,0.1738,-0.0956,0.0473,-66.562
16:24:21:017,-0.84,2.249,10.9481,36.4865,0.1258,-0.0209,0.1207,-66.664
16:24:21:035,-0.452,1.919,11.5751,35.916,0.1621,-0.0817,0.1207,-66.7634
16:24:21:056,-0.213,1.9001,10.91,35.9322,0.1312,-0.3,0.0473,-66.8619
16:24:21:075,-0.1391,2.2571,9.933,34.958,-0.0776,-0.4257,0.0058,-66.9599
16:24:21:095,-0.029,2.336,10.469,35.5342,-0.2747,-0.331,0.043,-67.0568
16:24:21:117,0.416,1.433,12.1691,34.9555,-0.1522,-0.184,0.0516,-67.1525
16:24:21:136,0.698,0.4751,11.9081,34.9196,0.1376,-0.219,-0.1104,-67.2476
16:24:21:156,0.131,0.458,10.1531,34.8766,0.2122,-0.1499,-0.2969,-67.3407
16:24:21:175,-1.0601,1.083,9.524,33.9915,0.0502,0.0397,-0.2904,-67.3407
16:24:21:196,-1.434,1.292,9.983,34.6276,-0.1969,0.1761,-0.0785,-67.3407
16:24:21:218,-0.768,0.7751,11.118,33.7314,-0.3993,0.1207,0.0877,-67.3407
16:24:21:236,0.1451,0.233,11.726,33.6505,-0.3908,-0.0667,0.0558,-67.3407
16:24:21:269,0.4901,0.293,11.061,33.5385,-0.2321,-0.202,-0.1178,-67.3407
16:24:21:275,0.3701,0.767,9.816,33.4966,-0.0701,-0.1882,-0.2702,-67.3407
16:24:21:295,0.198,1.1891,9.133,33.4715,0.0715,-0.0891,-0.364,-67.3407
16:24:21:317,0.0851,1.5431,8.417,33.4855,0.2068,-0.0763,-0.4353,-67.3407
16:24:21:336,-0.012,2.039,7.536,32.3958,0.2633,-0.0732,-0.4737,-67.3407
16:24:21:355,-0.1841,2.3711,7.1771,32.4028,0.2824,-0.0027,-0.4513,-67.3407
16:24:21:375,-0.3251,2.448,6.9551,32.4081,0.3123,0.109,-0.3948,-67.3407
16:24:21:396,-0.4091,2.4431,7.0841,33.1248,0.3048,0.2634,-0.3171,-67.3407
16:24:21:418,-0.414,2.1971,7.481,33.1662,0.2601,0.3413,-0.2426,-67.3407
16:24:21:436,-0.414,1.9481,8.0771,32.3917,0.1823,0.3572,-0.1892,-67.3407
16:24:21:456,-0.4481,1.574,9.27,32.3467,0.1525,0.3626,-0.1551,-67.3407
16:24:21:476,-0.483,1.1741,10.316,32.3355,0.2355,0.3189,-0.1636,-67.3407
16:24:21:496,-0.656,1.04,10.2971,33.0568,0.3208,0.1921,-0.202,-67.3407
16:24:21:517,-0.989,1.3751,9.567,33.0568,0.2441,0.1239,-0.1966,-67.3407
16:24:21:535,-1.398,1.7321,9.677,30.8332,0.0747,0.1346,-0.0902,-67.3407
16:24:21:555,-1.35,1.866,10.175,31.5704,-0.0681,0.1048,0.0525,-67.3407
16:24:21:576,-1.029,1.8401,10.493,32.0875,-0.1617,0.0132,0.1303,-67.3407
16:24:21:595,-0.8621,1.8281,10.1561,31.3134,-0.1863,-0.0444,0.1282,-67.3407
16:24:21:617,-1.365,2.321,9.2411,31.304,-0.2694,0.0644,0.1474,-67.3407
16:24:21:636,-2.231,3.0971,9.641,31.2866,-0.5272,0.2677,0.3913,-67.3407
16:24:21:656,-1.5731,2.422,12.0761,32.0695,-0.7125,0.2432,0.7066,-67.3407
16:24:21:675,-0.1751,0.885,13.632,31.2692,-0.5292,-0.1178,0.6971,-67.3407
16:24:21:696,0.3611,0.4661,12.227,30.5505,-0.15,-0.4683,0.3913,-67.3407
16:24:21:717,-0.426,1.007,9.488,30.5477,0.0578,-0.3821,0.1741,-67.3407
16:24:21:736,-1.4201,1.3871,8.178,31.1544,-0.034,-0.038,0.2017,-67.3407
16:24:21:756,-1.563,1.064,9.1571,30.4663,-0.2768,0.2805,0.3604,-67.3407
16:24:21:776,-0.993,0.437,11.042,30.4462,-0.3876,0.2912,0.3967,-67.3407
16:24:21:796,-0.359,0.255,11.58,31.9582,-0.329,0.0291,0.3029,-67.3407
16:24:21:817,0.258,0.657,10.68,31.9812,-0.2481,-0.2244,0.1591,-67.3407
16:24:21:835,0.48,1.095,10.029,30.9354,-0.1574,-0.3182,0.0121,-67.3407
16:24:21:856,0.5591,1.416,9.2891,30.27,0.0118,-0.3032,-0.1584,-67.3407
16:24:21:875,0.1721,1.814,8.5781,30.2781,0.2441,-0.1508,-0.3384,-67.3407
16:24:21:895,-0.5291,2.328,7.6421,30.2781,0.3708,-0.0411,-0.4268,-67.3407
16:24:21:917,-1.185,2.8931,7.587,30.9933,0.358,-0.0177,-0.364,-67.3407
16:24:21:937,-1.163,2.934,7.4381,29.2599,0.3102,-0.1221,-0.2127,-67.3407
16:24:21:957,-0.656,2.63,7.1171,30.3169,0.2185,-0.2287,-0.0954,-67.3407
16:24:21:975,0.009,2.237,7.05,30.0769,0.1195,-0.169,-0.0817,-67.3407
16:24:21:996,0.138,1.9961,7.824,29.9712,0.111,0.0525,-0.1551,-67.3407
16:24:22:019,-0.1361,1.869,8.748,30.0059,0.1866,0.2443,-0.2287,-67.3407
16:24:22:035,-0.3251,1.955,9.516,29.1767,0.2474,0.2838,-0.2606,-67.3407
16:24:22:055,-0.3491,2.012,9.773,29.9712,0.2889,0.2113,-0.2958,-67.3407
16:24:22:074,-0.591,2.2691,9.8711,29.2947,0.2548,0.0877,-0.3106,-67.3407
16:24:22:095,-0.8501,2.577,9.873,29.1331,0.1866,-0.0124,-0.2542,-67.3407
16:24:22:116,-0.8861,2.7281,9.753,29.3012,0.0374,-0.087,-0.1764,-67.3407
16:24:22:135,-0.761,2.793,10.326,29.9206,-0.1298,-0.1306,-0.1082,-67.3407
16:24:22:155,-0.606,2.7401,10.919,29.9383,-0.2034,-0.1892,-0.0859,-67.3407
16:24:22:175,-0.503,2.886,10.706,29.9017,-0.2938,-0.2606,-0.0689,-67.3407
16:24:22:196,-0.263,2.721,11.37,29.8702,-0.4696,-0.1903,-0.0103,-67.3407
16:24:22:220,0.315,1.833,13.251,29.842,-0.3908,-0.0604,-0.0209,-67.3407
16:24:22:236,0.54,0.765,14.111,29.8125,0.0183,-0.0294,-0.1829,-67.3407
16:24:22:255,0.047,0.296,12.519,30.5552,0.3613,-0.0976,-0.3948,-67.3407
16:24:22:274,-0.747,0.7961,10.6661,30.4026,0.3571,-0.1019,-0.5002,-67.3407
16:24:22:296,-1.388,1.476,9.998,29.6491,0.2238,-0.0828,-0.4428,-67.3407
16:24:22:318,-1.295,1.794,9.4901,29.6475,0.0652,-0.1338,-0.3011,-67.3407
16:24:22:337,-0.807,1.6271,9.239,29.6368,-0.0968,-0.1957,-0.1999,-67.3407
16:24:22:355,-0.321,1.3871,9.236,29.6229,-0.1266,-0.1605,-0.1829,-67.2411
16:24:22:375,-0.239,1.3181,9.311,29.6655,-0.0104,-0.0113,-0.2383,-67.1352
16:24:22:395,-0.615,1.55,9.342,30.4093,0.177,0.1005,-0.285,-67.0242
16:24:22:418,-0.809,1.8611,8.9681,29.7214,0.3273,0.0653,-0.2767,-66.9077
16:24:22:435,-0.816,2.079,8.154,30.3525,0.3697,-0.0976,-0.2265,-66.785
16:24:22:455,-0.548,2.1611,7.319,29.6821,0.3112,-0.2094,-0.1488,-66.6562
16:24:22:476,-0.1751,2.039,6.981,30.4432,0.242,-0.169,-0.0859,-66.5226
16:24:22:495,0.155,1.775,7.019,30.3525,0.2474,-0.0049,-0.0539,-66.3862
16:24:22:519,0.284,1.5311,7.058,30.4432,0.2696,0.1974,-0.0689,-66.2489
16:24:22:535,0.167,1.457,7.527,30.3525,0.2474,0.3594,-0.0945,-66.1123
16:24:22:555,-0.096,1.56,8.255,31.2068,0.1866,0.3956,-0.0795,-65.9764
16:24:22:575,-0.11,1.5551,9.1091,31.1168,0.1376,0.3018,-0.0274,-65.8412
16:24:22:596,0,1.4381,9.2201,31.1168,0.0896,0.1101,-0.006,-65.7074
16:24:22:619,-0.1511,1.38,8.769,31.1168,-0.0701,-0.0007,0.0195,-65.5759
16:24:22:635,-0.548,1.308,8.99,30.4103,-0.2779,0.1282,0.0846,-65.448
16:24:22:656,-0.857,1.256,10.227,30.4103,-0.3844,0.3722,0.1943,-65.3245
16:24:22:675,-0.809,1.191,11.748,30.4103,-0.3791,0.4616,0.2657,-65.2074
16:24:22:695,-1.02,1.2011,11.844,30.4103,-0.3609,0.2412,0.2677,-65.0995
16:24:22:718,-1.271,1.73,11.1251,30.4103,-0.5112,0.0686,0.337,-65.0025
16:24:22:735,-1.0631,1.814,12.021,30.3397,-0.6944,-0.0732,0.4681,-65.0025
16:24:22:754,-0.4931,1.433,13.01,31.1168,-0.5943,-0.3245,0.4883,-65.0025
16:24:22:775,-0.014,1.103,11.7551,31.0485,-0.2949,-0.4833,0.3743,-65.0025
16:24:22:795,-0.141,1.136,10.077,30.4103,-0.0925,-0.3916,0.206,-65.0025
16:24:22:816,-0.768,1.251,9.155,29.6132,-0.0212,-0.1797,0.0909,-65.0025
16:24:22:835,-1.7141,1.4621,8.717,30.3397,-0.1352,-0.0092,0.1229,-65.0025
16:24:22:856,-1.889,1.457,9.143,30.3397,-0.3503,0.0345,0.256,-65.0025
16:24:22:876,-1.403,1.28,9.8951,31.0485,-0.5175,-0.0348,0.3615,-65.0025
16:24:22:895,-0.732,1.136,10.4021,31.7949,-0.5591,-0.2435,0.3924,-65.0025
16:24:22:915,-0.1361,1.062,10.1171,31.0485,-0.4696,-0.4641,0.3765,-65.0025
16:24:22:936,0.267,1.079,9.054,31.0503,-0.3641,-0.5727,0.3103,-65.0025
16:24:22:954,0.3851,1.126,8.4251,31.0503,-0.2757,-0.4726,0.2219,-65.0025
16:24:22:975,0.2,1.371,8.7551,31.0503,-0.0712,-0.2212,0.1357,-65.0025
16:24:22:994,-0.213,1.481,8.702,31.0503,0.2025,-0.0837,0.0888,-65.0025
16:24:23:015,-0.503,1.895,8.0561,30.2698,0.2548,-0.1275,0.092,-65.0025
16:24:23:035,-0.594,2.099,8.003,30.2698,0.1301,-0.3171,0.1537,-65.0025
16:24:23:055,-0.048,1.8611,7.8521,31.0503,0.0001,-0.4641,0.206,-65.0025
16:24:23:075,0.5621,1.3871,7.922,30.3049,-0.0542,-0.3671,0.1165,-65.0025
16:24:23:096,0.591,1.3661,8.496,30.3049,0.0129,-0.0316,-0.0507,-65.0025
16:24:23:115,0.303,1.569,9.794,31.0503,0.1823,0.3103,-0.1807,-65.0941
16:24:23:135,0.176,1.7321,10.634,31.0503,0.3986,0.4478,-0.283,-65.0941
16:24:23:155,-0.05,2.0411,10.2851,30.2698,0.5264,0.3498,-0.3586,-65.0941
16:24:23:176,-0.483,2.5061,9.327,30.2698,0.3975,0.2134,-0.3629,-65.0941
16:24:23:196,-0.953,2.762,9.26,30.2698,0.1088,0.1335,-0.2383,-65.0941
16:24:23:220,-0.9,2.7671,10.034,31.0503,-0.1756,0.0345,-0.0496,-65.0941
16:24:23:236,-0.4481,2.51,10.656,31.0503,-0.3823,-0.1636,0.0835,-65.0941
16:24:23:257,0.116,2.132,11.5871,31.7949,-0.4345,-0.3288,0.1442,-65.0941
16:24:23:292,0.773,1.761,11.4701,30.9917,-0.3897,-0.4044,0.1346,-65.0941
16:24:23:295,1.452,1.2011,12.095,30.9917,-0.3833,-0.3097,0.0622,-65.0941
16:24:23:315,1.9721,0.3221,13.017,30.9917,-0.0957,-0.1338,-0.1391,-65.0941
16:24:23:336,1.3571,-0.3041,12.164,30.9917,0.2793,0.0568,-0.4225,-65.0941
16:24:23:355,-0.009,0.008,10.898,30.9917,0.3794,0.2657,-0.5589,-65.0941
16:24:23:375,-0.9341,0.4421,10.589,31.7502,0.2707,0.4286,-0.4694,-65.0941
16:24:23:395,-1.0391,0.408,10.7711,31.7269,0.0747,0.3893,-0.2989,-65.0941
16:24:23:415,-0.591,0.0251,10.9631,31.7269,-0.0914,0.1826,-0.2244,-65.0941
16:24:23:435,-0.366,0.042,10.6511,30.963,-0.0968,0.0195,-0.2691,-65.0941
16:24:23:455,-0.1991,0.2291,9.84,31.7269,-0.0201,-0.055,-0.3171,-65.0941
16:24:23:474,-0.105,0.384,8.918,31.7269,0.047,-0.0763,-0.3842,-65.0941
16:24:23:495,0.047,0.626,8.3741,30.9723,0.1152,-0.0241,-0.4459,-65.0941
16:24:23:515,-0.038,0.971,8.18,31.7306,0.2227,0.0792,-0.5099,-65.0941
16:24:23:535,-0.263,1.407,7.9721,31.7306,0.356,0.158,-0.5206,-65.0941
16:24:23:555,-0.438,1.5911,7.529,30.9917,0.4029,0.1537,-0.4822,-65.0941
16:24:23:575,-0.527,1.761,6.945,31.7305,0.3273,0.1282,-0.4203,-65.0941
16:24:23:595,-0.62,1.902,6.8921,31.779,0.1866,0.1815,-0.3202,-64.9883
16:24:23:616,-0.5051,1.857,7.4381,32.4996,0.062,0.2838,-0.1999,-64.8707
16:24:23:635,-0.3371,1.7201,8.5301,31.779,-0.0052,0.3487,-0.1104,-64.7441
16:24:23:655,-0.11,1.545,9.9671,31.779,0.0524,0.3253,-0.0635,-64.6121
16:24:23:675,-0.0191,1.299,10.443,31.779,0.1642,0.1804,-0.0891,-64.4777
16:24:23:695,-0.464,1.431,10.151,31.779,0.1886,0.0494,-0.12,-64.3428
16:24:23:716,-1.116,1.727,9.744,31.8037,0.1088,0.0238,-0.0402,-64.2076
16:24:23:736,-1.472,1.8161,9.765,31.779,-0.084,0.0516,0.1528,-64.0725
16:24:23:755,-1.1231,1.701,10.761,31.779,-0.2779,0.0644,0.3274,-63.9398
16:24:23:775,-0.644,1.409,11.8241,31.779,-0.2373,0.0238,0.3604,-63.8141
16:24:23:795,-0.9101,1.55,11.1491,31.779,-0.1138,-0.0135,0.3157,-63.6995
16:24:23:815,-1.5461,2.19,10.443,32.5636,-0.2001,0.0323,0.3785,-63.5975
16:24:23:835,-1.9391,2.4341,11.3501,32.5475,-0.3598,0.1144,0.5746,-63.5975
16:24:23:855,-1.314,1.8041,13.101,32.5475,-0.2458,0.0494,0.7311,-63.5975
16:24:23:875,-0.5621,0.942,12.5471,31.7611,0.0652,-0.2457,0.6801,-63.5975
16:24:23:895,-0.3521,0.918,10.139,32.4819,0.1919,-0.4449,0.534,-63.5975
16:24:23:915,-0.809,1.064,8.52,32.4851,0.0917,-0.3523,0.4905,-63.5975
16:24:23:936,-0.867,0.825,8.42,33.2553,-0.0979,-0.0689,0.5565,-63.5975
16:24:23:956,-0.4091,0.377,9.7631,33.2553,-0.1841,0.1698,0.567,-63.5975
16:24:23:975,-0.038,0.186,10.517,33.9943,-0.1022,0.173,0.4692,-63.5975
16:24:23:995,0.078,0.4541,9.9641,31.3649,-0.0232,0.0312,0.3433,-63.5975
16:24:24:015,-0.0671,0.992,9.081,30.3413,-0.0095,-0.0817,0.2688,-63.5975
16:24:24:035,-0.3761,1.565,8.52,30.7738,-0.0392,-0.1456,0.2923,-63.688
16:24:24:054,-0.285,1.668,8.5301,29.7254,-0.1022,-0.2531,0.3637,-63.788
16:24:24:075,0.1241,1.5191,8.609,29.4024,-0.034,-0.3139,0.3637,-63.8968
16:24:24:095,0.2771,1.4951,8.07,32.4646,0.1536,-0.25,0.2688,-64.0148
16:24:24:115,0.1361,1.689,7.527,32.9147,0.2963,-0.1147,0.1826,-64.1411
16:24:24:135,-0.0881,1.9121,7.266,32.3275,0.3262,-0.0209,0.1528,-64.2737
16:24:24:157,-0.222,1.893,7.113,31.7227,0.2505,-0.0049,0.157,-64.4104
16:24:24:175,-0.2201,1.773,7.4771,31.3497,0.1206,0.092,0.1613,-64.5499
16:24:24:196,-0.1751,1.7081,8.7431,30.7028,0.0971,0.2762,0.1378,-64.6914
16:24:24:215,-0.012,1.7441,9.8591,32.3977,0.177,0.3242,0.0952,-64.8346
16:24:24:235,0.119,1.763,10.3211,32.1812,0.2324,0.1218,0.0195,-64.9785
16:24:24:255,0.095,2.015,9.5951,30.9279,0.1514,-0.1627,-0.072,-65.122
16:24:24:275,-0.05,2.4191,9.416,31.219,-0.0265,-0.2127,-0.1104,-65.263
16:24:24:295,-0.201,2.793,10.0691,30.8666,-0.1181,-0.0774,-0.0774,-65.3994
16:24:24:316,-0.0881,2.7551,10.857,30.7504,-0.1224,0.0473,-0.0103,-65.53
16:24:24:338,0.1721,2.642,11.276,30.7127,-0.1116,-0.0124,0.0132,-65.6552
16:24:24:356,0.354,2.769,10.8551,30.2216,-0.2065,-0.2265,0.0269,-65.7759
16:24:24:375,0.614,2.7041,10.491,31.4343,-0.4516,-0.3341,0.0644,-65.8931
16:24:24:395,0.8111,1.976,12.105,32.403,-0.5314,-0.1871,0.0835,-66.0075
16:24:24:415,1.2821,0.983,13.706,31.8855,-0.1767,-0.0359,-0.0476,-66.1204
16:24:24:435,0.837,0.351,12.557,32.3902,0.2995,-0.0283,-0.2989,-66.2313
16:24:24:455,-0.096,0.6911,10.146,32.1182,0.3358,-0.0018,-0.43,-66.337
16:24:24:475,-0.9671,1.107,9.4571,32.6681,0.0578,0.0558,-0.3714,-66.4326
16:24:24:495,-0.845,1.079,10.014,32.6415,-0.1863,0.076,-0.2148,-66.4326
16:24:24:516,-0.1391,0.6791,10.488,33.0566,-0.2512,-0.0018,-0.1764,-66.4326
16:24:24:537,0.521,0.621,10.0961,33.0121,-0.1895,-0.0752,-0.2659,-66.4326
16:24:24:555,0.693,0.909,9.327,33.1167,-0.0584,-0.0913,-0.3927,-66.4326
16:24:24:576,0.3221,1.428,8.36,33.8595,0.0874,-0.0177,-0.463,-66.4326
16:24:24:596,-0.081,1.742,7.802,33.4969,0.1099,0.0909,-0.4342,-66.4326
16:24:24:616,-0.251,1.979,8.36,33.9229,0.1067,0.1665,-0.3651,-66.4326
16:24:24:637,-0.2801,2.024,8.654,33.3179,0.1673,0.0601,-0.2767,-66.4326
16:24:24:657,-0.134,1.938,8.1881,34.1754,0.1536,-0.0923,-0.1935,-66.4326
16:24:24:676,-0.017,1.7081,8.0891,34.2359,0.1013,-0.0732,-0.1414,-66.4326
16:24:24:695,-0.002,1.5311,8.4851,34.2598,0.1781,0.1027,-0.1158,-66.4326
16:24:24:716,-0.201,1.34,8.595,34.1372,0.2654,0.239,-0.0976,-66.4326
16:24:24:738,-0.402,1.1891,9.002,33.8706,0.2292,0.2625,-0.0785,-66.4326
16:24:24:755,-0.495,1.062,9.7819,33.6055,0.2005,0.1698,-0.0593,-66.4326
16:24:24:775,-0.546,0.858,9.923,34.7105,0.2324,0.011,-0.0624,-66.4326
16:24:24:796,-0.8111,1.028,9.078,34.6889,0.1994,-0.0263,-0.0689,-66.4326
16:24:24:815,-1.1711,1.32,8.844,34.8047,0.0502,0.1634,0.0164,-66.4326
16:24:24:836,-1.175,1.3541,9.878,34.7705,-0.1159,0.3487,0.1485,-66.4326
16:24:24:855,-0.8741,1.241,11.111,34.3624,-0.1852,0.3338,0.2124,-66.4326
16:24:24:876,-0.728,1.275,11.061,34.0422,-0.1756,0.1463,0.19,-66.4326
16:24:24:895,-0.888,1.763,9.732,33.9546,-0.2353,0.0824,0.1826,-66.4326
16:24:24:916,-1.3961,2.376,9.3461,33.8322,-0.4356,0.2251,0.3231,-66.4326
16:24:24:938,-1.0271,1.967,11.2931,33.5257,-0.6049,0.3189,0.5746,-66.4326
16:24:24:955,0.389,0.573,13.0331,33.441,-0.4195,0.1133,0.5767,-66.4326
16:24:24:975,0.885,-0.1151,12.15,34.1453,-0.0681,-0.1892,0.2529,-66.4326
16:24:24:995,-0.239,0.885,9.777,33.7153,0.0928,-0.1733,-0.0188,-66.4326
16:24:25:016,-1.719,1.7231,8.798,34.5611,0.0331,0.1452,0.0686,-66.4326
16:24:25:037,-1.985,1.632,9.4181,34.6895,-0.1682,0.3413,0.3348,-66.4326
16:24:25:056,-1.4,1.059,10.6181,34.5578,-0.3503,0.2017,0.4829,-66.4326
16:24:25:075,-0.8111,0.779,10.7831,34.1486,-0.3717,-0.0518,0.4894,-66.4326
16:24:25:095,-0.534,1.083,9.921,34.8592,-0.2875,-0.1764,0.4456,-66.4326
16:24:25:116,-0.357,1.3871,9.119,33.5258,-0.2949,-0.2212,0.451,-66.4326
16:24:25:138,-0.0311,1.4951,9.026,34.4329,-0.3098,-0.2137,0.4436,-66.4326
16:24:25:156,0.488,1.385,9.267,34.5244,-0.1841,-0.1115,0.3689,-66.5327
16:24:25:175,0.806,1.253,9.536,34.4432,0.0492,-0.0657,0.2039,-66.6452
16:24:25:196,0.693,1.481,8.8841,35.2549,0.2824,-0.1158,0.0291,-66.7675
16:24:25:217,0.471,1.871,7.965,35.1686,0.3134,-0.1466,-0.0795,-66.8951
16:24:25:236,0.306,2.1101,7.824,35.038,0.2898,-0.0529,-0.1178,-67.0235
16:24:25:255,0.0881,2.039,8.073,34.9607,0.3026,0.1858,-0.104,-67.1488
16:24:25:276,0.0881,1.9811,8.88,35.9924,0.3026,0.3722,-0.0965,-67.2692
16:24:25:298,-0.026,1.8401,10.1411,35.7951,0.3017,0.3253,-0.1328,-67.3837
16:24:25:315,-0.0431,1.7801,10.769,34.6874,0.3219,-0.055,-0.1935,-67.4916
16:24:25:336,-0.201,2.103,10.4411,36.0704,0.3282,-0.3532,-0.2244,-67.5921
16:24:25:355,-0.548,2.529,10.05,37.2599,0.2548,-0.4151,-0.1647,-67.6838
16:24:25:376,-0.5501,2.465,10.397,37.1389,0.1397,-0.364,-0.0507,-67.6838
16:24:25:396,0.071,2.091,11.034,36.6746,0.0652,-0.3438,-0.0007,-67.6838
16:24:25:415,0.6551,1.976,11.0891,38.349,0.0311,-0.4236,-0.0869,-67.6838
16:24:25:438,0.648,1.9931,10.6271,38.8263,-0.0531,-0.4598,-0.2403,-67.6838
16:24:25:456,0.114,1.991,10.9001,38.5451,-0.2247,-0.2691,-0.3,-67.6838
16:24:25:475,-0.534,1.4261,12.837,37.6313,-0.1713,0.1613,-0.217,-67.6838
16:24:25:495,0.344,0.375,13.922,37.5766,0.3591,0.0547,-0.2511,-67.6838
16:24:25:517,0.2411,0.116,11.013,38.1456,0.6223,-0.1807,-0.4108,-67.6838
16:24:25:537,-0.3161,1.122,8.5901,38.2304,0.47,-0.2989,-0.5163,-67.6838
16:24:25:555,-0.764,1.8971,7.905,37.9666,0.1812,-0.169,-0.3842,-67.6838
16:24:25:576,-0.5861,1.6961,7.788,39.3991,-0.1639,-0.1754,-0.1669,-67.6838
16:24:25:596,0.3101,1.3301,7.8641,39.8218,-0.4323,-0.1541,-0.0763,-67.6838
16:24:25:616,0.7751,1.024,7.824,38.9741,-0.5325,0.1687,-0.1264,-67.6838
16:24:25:637,0.579,0.734,9.09,39.1738,-0.4505,0.565,-0.2383,-67.6838
16:24:25:656,0.054,0.609,10.467,38.2788,-0.181,0.5309,-0.3523,-67.6838
16:24:25:675,-0.5531,1.064,10.019,37.6085,0.062,0.0909,-0.3799,-67.6838
16:24:25:695,-0.981,1.553,8.159,37.9974,0.1173,-0.3063,-0.2841,-67.6838
16:24:25:717,-0.359,2.094,6.749,38.1358,0.0492,-0.2393,-0.12,-67.6838
16:24:25:738,0.3701,1.8161,7.505,37.9802,0.128,0.1506,-0.0188,-67.6838
16:24:25:756,-0.194,1.2491,8.729,38.064,0.5115,0.6725,0.0004,-67.6838
16:24:25:776,-0.8831,0.7631,7.7471,38.3151,0.7608,1.0955,0.0036,-67.6838
16:24:25:796,-0.414,2.2129,7.635,39.2253,0.5211,0.8729,-0.0732,-67.6838
16:24:25:816,-0.572,2.597,7.797,38.6462,0.0993,0.1761,0.0334,-67.6838
16:24:25:838,-0.503,1.9571,8.654,38.9273,-0.2267,-0.0561,0.0792,-67.6838
16:24:25:856,-0.1871,1.737,9.825,38.9294,-0.2992,-0.2116,0.0345,-67.6838
16:24:25:875,-0.1601,1.871,10.692,40.019,-0.2001,-0.5173,0.01,-67.6838
16:24:25:895,-0.5621,1.6271,9.816,39.819,-0.1415,-0.6324,0.028,-67.6838
16:24:25:917,-0.335,1.172,9.9761,39.4116,-0.3003,-0.3373,0.028,-67.6838
16:24:25:937,-0.6221,1.119,10.8881,39.2927,-0.3481,-0.1349,-0.0422,-67.6838
16:24:25:956,-0.912,1.4351,11.123,39.2773,-0.2236,-0.1328,-0.0188,-67.6838
16:24:25:975,-0.785,1.773,9.797,39.2091,-0.1574,-0.0529,0.1122,-67.6838
16:24:25:995,-0.6941,1.8641,10.3061,39.1816,-0.3333,0.2208,0.2358,-67.6838
16:24:26:016,-0.914,1.9211,11.1881,39.0575,-0.5591,0.2518,0.386,-67.6838
16:24:26:038,-0.6101,0.8081,12.5261,39.5607,-0.6592,0.0099,0.5107,-67.6838
16:24:26:055,0.155,-0.1271,12.212,39.4702,-0.5815,-0.5067,0.3924,-67.6838
16:24:26:075,0.3491,0.2621,10.529,39.3087,-0.5059,-0.5803,0.2071,-67.6838
16:24:26:095,0,0.413,9.6071,39.3372,-0.4525,-0.1754,0.1165,-67.6838
16:24:26:116,-0.6731,0.6761,10.295,39.6189,-0.2842,0.4382,0.1506,-67.6838
16:24:26:135,-0.639,0.542,10.275,41.23,0.0076,0.7759,0.1804,-67.6838
16:24:26:156,-0.878,0.9251,10.007,40.8203,0.0428,0.6821,0.1954,-67.6838
16:24:26:174,-0.5861,1.107,9.342,40.8824,-0.2416,0.1357,0.2677,-67.6838
16:24:26:195,-0.6491,1.524,8.798,41.0544,-0.3407,-0.1371,0.2773,-67.6838
16:24:26:215,-0.237,1.407,8.5871,40.4345,-0.4313,-0.333,0.3466,-67.6838
16:24:26:235,0.538,0.882,9.141,39.8063,-0.3652,-0.3523,0.2443,-67.6838
16:24:26:256,0.777,0.813,9.576,40.8912,-0.0968,-0.3629,-0.0166,-67.6838
16:24:26:275,0.294,1.397,9.3131,40.8425,0.2813,-0.2531,-0.2212,-67.6838
16:24:26:295,-0.218,2.012,8.384,40.7074,0.5243,-0.1456,-0.2659,-67.6838
16:24:26:315,-0.3131,2.24,7.733,40.5549,0.5104,-0.0444,-0.1818,-67.6838
16:24:26:335,-0.287,1.988,8.1041,40.4408,0.3751,0.0345,-0.1253,-67.6838
16:24:26:356,-0.062,1.727,9.114,40.7594,0.3293,0.2412,-0.1093,-67.6838
16:24:26:376,0.284,1.241,10.1201,40.5495,0.4337,0.337,-0.1881,-67.6838
16:24:26:395,0.291,1.227,10.16,40.3571,0.553,0.2156,-0.3512,-67.6838
16:24:26:416,-0.378,1.665,9.909,40.3935,0.5104,0.0505,-0.4289,-67.6838
16:24:26:436,-0.917,2.283,9.7271,40.3839,0.3911,-0.0465,-0.3245,-67.6838
