Time,Acc_X,Acc_Y,Acc_Z,Meg,Gyr_X,Gyr_Y,Gyr_Z,Ore
16:32:01:842,-0.8351,3.485,9.399,46.1384,0.0726,-0.3438,-0.5258,-97.3117
16:32:01:864,-0.8351,3.506,9.246,46.9341,0.1024,-0.2776,-0.5408,-97.206
16:32:01:884,-0.608,3.255,9.504,46.934,0.063,-0.2969,-0.5567,-97.103
16:32:01:904,-0.6011,3.0971,9.576,46.7008,0.0322,-0.3714,-0.5706,-96.9978
16:32:01:922,-0.68,3.023,9.255,46.7008,0.0566,-0.3523,-0.544,-96.8734
16:32:01:942,-0.4481,2.889,8.9681,46.0485,0.0172,-0.3267,-0.5024,-96.7425
16:32:01:962,-0.491,2.8811,8.8361,45.8266,-0.0723,-0.2947,-0.4672,-96.6121
16:32:01:984,-0.3731,2.8961,9.15,46.4809,-0.1596,-0.2127,-0.4087,-96.4611
16:32:02:002,-0.191,2.994,9.636,46.6753,-0.183,-0.1892,-0.3916,-96.306
16:32:02:022,-0.225,3.296,9.9041,46.579,-0.1383,-0.2042,-0.3916,-96.1505
16:32:02:042,0.0041,3.207,10.0811,46.483,-0.1031,-0.2426,-0.3981,-95.9802
16:32:02:062,0.279,3.111,10.4051,46.4007,-0.0786,-0.2702,-0.4481,-95.7984
16:32:02:084,0.3251,3.095,10.3211,46.3065,0.0246,-0.2414,-0.496,-95.6064
16:32:02:102,0.2291,2.994,9.909,46.2263,0.1567,-0.1712,-0.5013,-95.4043
16:32:02:122,0.263,2.7311,9.167,46.2211,0.2133,-0.1391,-0.4715,-95.1916
16:32:02:143,0.425,2.585,8.753,46.9527,0.1514,-0.1977,-0.462,-94.9686
16:32:02:162,0.5591,2.522,8.664,46.9888,0.0364,-0.2883,-0.4513,-94.7358
16:32:02:182,0.7871,2.415,8.669,46.0014,-0.0392,-0.2883,-0.4396,-94.4937
16:32:02:202,0.923,2.3831,8.8631,46.2606,-0.0733,-0.2255,-0.43,-94.2431
16:32:02:222,0.3971,2.7521,8.7671,46.8568,-0.0776,-0.1701,-0.3862,-93.9846
16:32:02:242,-0.6101,3.549,8.736,46.7854,-0.0573,0.0675,-0.202,-93.7191
16:32:02:262,0.1001,2.7521,9.1639,46.7733,-0.0371,0.0622,-0.1499,-93.4486
16:32:02:282,0.1121,2.798,9.509,46.7358,-0.2577,-0.2383,-0.2596,-93.1766
16:32:02:302,0.2891,2.805,9.521,46.6867,-0.2907,-0.3938,-0.2969,-92.9043
16:32:02:322,0.564,2.798,9.318,47.022,-0.1404,-0.2702,-0.333,-92.6314
16:32:02:343,0.392,3.0161,9.1091,47.006,0.0374,-0.0965,-0.3565,-92.3573
16:32:02:362,0.114,3.324,8.748,47.032,0.0353,-0.0752,-0.333,-92.0809
16:32:02:382,0.0281,3.408,8.729,47.0094,-0.1128,-0.1414,-0.2776,-91.8018
16:32:02:401,0.1211,3.2531,9.102,46.0255,-0.2086,-0.1594,-0.2051,-91.52
16:32:02:421,0.138,2.901,9.56,46.8708,-0.1969,-0.0987,-0.1445,-91.237
16:32:02:443,0.126,2.568,10.137,46.8736,-0.1352,-0.0433,-0.104,-90.9546
16:32:02:461,0.2771,2.369,10.28,46.8448,-0.0744,-0.0732,-0.1072,-90.6745
16:32:02:481,0.3251,2.307,9.914,47.7783,-0.0723,-0.1286,-0.1253,-90.3979
16:32:02:501,0.488,2.154,9.8591,46.8356,-0.0798,-0.1104,-0.1381,-90.1251
16:32:02:521,0.626,2.237,9.957,46.7842,0.0151,-0.0828,-0.1924,-89.8561
16:32:02:542,0.356,2.678,9.351,45.2059,0.111,-0.0529,-0.2255,-89.5903
16:32:02:561,-0.0311,3.0131,9.011,46.7918,0.0726,0.0015,-0.1722,-89.3267
16:32:02:581,0.0041,2.982,9.387,46.1871,-0.0084,-0.0038,-0.0934,-89.0648
16:32:02:601,0.2981,2.798,9.507,46.7778,0.0012,-0.0294,-0.0742,-88.805
16:32:02:621,0.107,2.843,9.234,46.728,0.0342,0.0408,-0.0795,-88.5489
16:32:02:643,-0.2201,2.8001,9.311,46.728,-0.0126,0.1187,-0.0241,-88.2972
16:32:02:661,-0.014,2.604,9.849,47.6138,-0.0883,0.0994,0.0047,-88.0502
16:32:02:680,0.2891,2.546,10.0961,46.7019,-0.0744,0.0175,-0.0348,-87.8087
16:32:02:701,0.3011,2.69,9.828,46.6847,0.0066,-0.0027,-0.0902,-87.5733
16:32:02:720,0.1721,2.987,9.459,46.6871,0.0758,0.0249,-0.1019,-87.3435
16:32:02:740,0.047,3.171,9.246,46.7043,0.1056,0.0558,-0.0806,-87.1185
16:32:02:761,-0.081,3.3,9.047,46.6895,0.1216,0.0814,-0.039,-86.8979
16:32:02:781,-0.1241,3.372,8.9561,46.6861,0.0789,0.0792,0.0217,-86.6815
16:32:02:802,0.021,3.279,8.99,46.6896,0.0129,0.0601,0.0792,-86.4701
16:32:02:821,0.303,3.039,9.1691,46.6896,-0.0275,0.0675,0.1101,-86.265
16:32:02:841,0.557,2.819,9.404,46.7996,-0.0243,0.0835,0.0909,-86.0679
16:32:02:861,0.555,2.843,9.588,47.4334,0.0066,0.0899,0.043,-85.8796
16:32:02:881,0.473,2.9681,9.5141,48.3431,0.0535,0.0771,0.0195,-85.7001
16:32:02:902,0.342,2.999,9.1961,47.4364,0.0694,0.0707,0.0175,-85.5284
16:32:02:921,0.272,2.9441,9.0731,47.4364,0.0566,0.0664,0.0249,-85.3639
16:32:02:940,0.2,2.8721,8.939,47.448,0.0374,0.0568,0.0302,-85.2062
16:32:02:961,0.128,2.8241,9.1691,47.448,0.0055,0.0579,0.0302,-85.0551
16:32:02:981,0.026,2.8601,9.3131,47.4364,0.0066,0.0142,0.026,-84.9104
16:32:03:001,-0.117,3.02,9.284,47.4365,0.0129,0.0004,0.0184,-84.77
16:32:03:021,-0.2539,3.243,9.023,48.3284,0.0066,-0.0241,0.0419,-84.634
16:32:03:040,-0.1601,3.284,8.7,47.4364,-0.0573,-0.0113,0.0824,-84.5022
16:32:03:061,-0.1001,3.1691,9.023,47.4337,-0.1352,0.0558,0.107,-84.3771
16:32:03:080,-0.026,2.903,9.6671,46.7349,-0.1224,0.0877,0.107,-84.2589
16:32:03:100,-0.033,2.6951,10.026,47.4426,-0.036,0.092,0.059,-84.1475
16:32:03:120,-0.345,2.8361,9.806,47.4426,0.045,0.0888,0.0153,-84.0427
16:32:03:140,-0.531,3.095,9.512,47.4426,0.03,0.0696,0.0238,-83.9433
16:32:03:160,-0.45,3.111,9.5981,47.4165,0.0001,0.0345,0.0451,-83.848
16:32:03:180,-0.33,3.059,9.5831,47.4165,0.0535,0.0015,0.0451,-83.7561
16:32:03:200,-0.282,3.018,9.078,47.4165,0.1376,-0.0049,0.0355,-83.7561
16:32:03:220,-0.381,2.975,8.6861,47.402,0.1471,0.0067,0.0334,-83.7561
16:32:03:240,-0.471,2.8961,8.286,46.7654,0.0704,-0.0135,0.043,-83.7561
16:32:03:262,-0.4331,2.685,8.2451,47.3874,-0.069,-0.0018,0.043,-83.7561
16:32:03:280,-0.294,2.546,8.6569,47.3874,-0.1607,0.0536,-0.0027,-83.7561
16:32:03:300,-0.1871,2.637,9.239,47.3614,-0.1532,0.125,-0.0848,-83.7561
16:32:03:319,-0.378,3.047,9.512,47.3323,-0.0925,0.1708,-0.1838,-83.7561
16:32:03:339,-0.7541,3.6281,9.629,47.9477,-0.0733,0.1335,-0.2159,-83.7561
16:32:03:360,-0.8621,3.846,9.684,47.9694,-0.0808,0.0622,-0.1775,-83.6636
16:32:03:379,-0.8591,3.906,9.7031,47.9433,-0.0297,0.0047,-0.1349,-83.5678
16:32:03:399,-0.8501,3.9011,9.461,47.281,0.0289,-0.0742,-0.0891,-83.469
16:32:03:419,-0.761,3.798,8.8631,47.2932,0.0364,-0.12,-0.0572,-83.3679
16:32:03:439,-0.8471,3.7361,8.6711,46.3603,-0.0169,-0.0987,-0.038,-83.2657
16:32:03:460,-0.792,3.581,8.9081,47.2695,-0.0477,-0.088,-0.0135,-83.1632
16:32:03:479,-0.692,3.4901,8.939,47.2695,-0.0488,-0.0828,-0.0326,-83.0614
16:32:03:499,-0.7421,3.6,9.035,47.2695,-0.018,-0.07,-0.0604,-82.9608
16:32:03:519,-0.6971,3.741,8.865,47.2579,0.0151,-0.088,-0.0732,-82.8613
16:32:03:539,-0.725,3.8921,8.666,47.2434,0.0194,-0.0934,-0.0837,-82.7624
16:32:03:560,-1.046,4.191,8.6111,47.2434,0.0055,-0.0891,-0.0732,-82.6637
16:32:03:579,-1.218,4.368,8.58,48.1863,-0.0265,-0.0923,-0.0103,-82.5651
16:32:03:599,-0.89,4.16,8.693,48.105,-0.0488,-0.0923,0.0355,-82.4669
16:32:03:619,-0.677,3.99,8.7341,48.1716,-0.0456,-0.0657,0.0377,-82.3703
16:32:03:639,-0.6581,3.755,8.817,48.0936,-0.0382,-0.0198,0.0355,-82.2764
16:32:03:661,-0.6851,3.525,9.0521,48.1716,-0.036,0.0025,0.0227,-82.1857
16:32:03:679,-0.7091,3.425,9.095,48.0936,-0.0542,-0.0081,0.0036,-82.1857
16:32:03:699,-0.534,3.4541,9.38,48.105,-0.0925,-0.0177,-0.0103,-82.1857
16:32:03:719,-0.2201,3.4421,9.741,48.105,-0.0936,-0.0316,-0.0465,-82.1857
16:32:03:739,0,3.4181,10.182,48.0937,-0.0371,-0.0198,-0.1093,-82.1857
16:32:03:762,0.0851,3.4991,10.4021,48.0936,0.0342,-0.0135,-0.1914,-82.1857
16:32:03:779,-0.1841,3.6191,10.2491,48.0823,0.0769,-0.0444,-0.2478,-82.0938
16:32:03:799,-0.27,3.5591,9.902,49.0148,0.0246,-0.0837,-0.2563,-81.9998
16:32:03:824,-0.359,3.47,9.971,49.0017,-0.051,-0.12,-0.2062,-81.902
16:32:03:839,0.2771,2.891,9.804,49.0089,-0.0872,-0.1349,-0.1306,-81.7996
16:32:03:861,0.65,2.3501,9.5861,48.0112,-0.1437,-0.104,-0.1508,-81.6938
16:32:03:879,0.579,1.9571,9.641,47.4333,-0.2162,-0.0518,-0.1636,-81.5857
16:32:03:899,0.624,1.6841,10.1651,48.4286,-0.2683,-0.0049,-0.217,-81.4755
16:32:03:919,0.3581,1.967,11.1851,48.4299,-0.2162,-0.0582,-0.3352,-81.3631
16:32:03:939,0.143,2.393,10.977,48.3367,-0.0126,-0.2574,-0.4023,-81.2467
16:32:03:959,0.0041,2.798,9.516,49.269,0.1184,-0.2724,-0.3767,-81.1239
16:32:03:978,-0.062,2.79,8.8961,49.2747,0.1024,-0.1616,-0.2563,-80.9933
16:32:03:999,0.411,2.3831,8.813,49.2649,0.0385,-0.0817,-0.1636,-80.8553
16:32:04:020,0.516,2.055,9.0971,47.7495,-0.0265,-0.0402,-0.169,-80.7123
16:32:04:039,0.368,1.929,9.3371,49.2223,-0.0605,-0.0444,-0.1764,-80.5662
16:32:04:059,0.2861,1.79,9.483,48.292,-0.0798,-0.0166,-0.1722,-80.4178
16:32:04:079,0.339,1.802,9.861,48.6573,-0.0638,-0.0198,-0.1881,-80.2674
16:32:04:099,0.375,1.869,9.761,48.6544,-0.0254,-0.1158,-0.2372,-80.1153
16:32:04:120,0.5621,2.079,9.1121,49.1728,-0.0104,-0.2361,-0.3086,-79.961
16:32:04:139,0.591,2.412,8.429,49.6501,0.0109,-0.2446,-0.3703,-79.8035
16:32:04:159,0.296,2.846,8.1521,48.6617,0.0566,-0.1636,-0.3756,-79.6413
16:32:04:179,0.116,3.255,7.8671,48.6309,0.0704,-0.088,-0.3149,-79.4729
16:32:04:199,0.069,3.399,7.8401,48.6002,-0.0019,-0.0572,-0.2361,-79.2981
16:32:04:220,0.119,3.3101,8.14,49.5636,-0.1,-0.0965,-0.1658,-79.1178
16:32:04:239,0.253,3.0371,8.4581,48.6179,-0.1522,-0.1562,-0.1232,-78.9339
16:32:04:259,0.375,2.81,8.748,49.6448,-0.1181,-0.2042,-0.1147,-78.7482
16:32:04:278,0.399,2.843,8.5541,49.1533,-0.0681,-0.2435,-0.1189,-78.5624
16:32:04:298,0.4901,2.774,8.106,49.1116,-0.1053,-0.2489,-0.1275,-78.3774
16:32:04:321,0.626,2.625,8.367,49.0757,-0.1745,-0.1871,-0.1562,-78.1936
16:32:04:338,0.8591,2.577,8.757,49.1752,-0.1574,-0.1189,-0.2318,-78.0108
16:32:04:358,0.8231,2.709,9.023,49.1552,-0.0872,-0.039,-0.3532,-77.8283
16:32:04:378,0.3851,3.2261,9.375,50.1177,-0.0104,-0.007,-0.4364,-77.644
16:32:04:398,-0.021,3.614,9.1721,49.2242,0.0118,-0.0241,-0.4268,-77.455
16:32:04:420,-0.194,3.7961,9.081,49.204,-0.0829,-0.0231,-0.3404,-77.2591
16:32:04:438,-0.009,3.48,9.437,50.1553,-0.1724,0.0238,-0.25,-77.0559
16:32:04:458,0.102,3.1181,10.326,50.2373,-0.1138,0.0601,-0.1829,-76.8466
16:32:04:478,0.428,2.759,10.7111,49.2879,0.0928,0.0397,-0.1935,-76.6333
16:32:04:498,0.174,2.85,10.1771,50.2257,0.2463,-0.038,-0.2702,-76.4178
16:32:04:520,-0.2081,3.111,9.3941,50.2259,0.2068,-0.0859,-0.2702,-76.2005
16:32:04:538,-0.392,3.1211,9.672,50.2384,0.0874,0.0047,-0.1903,-75.9806
16:32:04:558,-0.29,2.81,10.3571,50.2419,0.0993,0.1282,-0.1402,-75.7583
16:32:04:578,-0.335,2.4,10.359,50.2224,0.1844,0.2113,-0.2062,-75.5349
16:32:04:597,-0.845,2.922,10.187,50.1908,0.2133,0.2294,-0.2904,-75.3109
16:32:04:620,-1.2401,3.5231,9.888,50.7521,0.1877,0.2251,-0.2659,-75.0853
16:32:04:638,-1.563,3.5591,9.6431,50.1242,0.1238,0.1655,-0.1167,-74.8569
16:32:04:658,-1.2641,3.147,9.1961,50.711,-0.0201,0.1645,0.0675,-74.6265
16:32:04:678,-0.687,2.6081,9.423,51.6578,-0.2043,0.1676,0.2145,-74.3975
16:32:04:697,-0.189,1.9451,9.8591,50.6751,-0.2342,0.1048,0.3009,-74.1743
16:32:04:717,0.3971,1.502,9.684,50.6693,-0.1437,0.0664,0.2208,-73.9613
16:32:04:737,0.1841,1.811,9.39,50.6912,-0.0468,0.0056,0.0718,-73.7611
16:32:04:757,-0.4001,2.261,8.726,50.6856,-0.052,-0.105,0.0632,-73.573
16:32:04:779,-0.407,2.4551,8.312,50.6856,-0.2204,-0.12,0.1826,-73.3947
16:32:04:798,-0.2081,2.28,8.712,50.7823,-0.3684,-0.0326,0.2881,-73.2258
16:32:04:818,0.0761,1.986,9.275,50.813,-0.3131,-0.0198,0.3189,-73.068
16:32:04:838,0.155,1.9811,8.824,50.8071,-0.1543,-0.1286,0.2805,-72.9233
16:32:04:857,0.2891,2.168,7.8431,51.8127,-0.1287,-0.1925,0.223,-72.7925
16:32:04:877,0.128,2.498,7.295,51.3635,-0.2694,-0.1232,0.1793,-72.6752
16:32:04:897,0.128,2.6351,7.632,51.806,-0.4121,0.0749,0.2284,-72.5702
16:32:04:917,0.693,2.261,8.583,51.7609,-0.3993,0.1698,0.2582,-72.4763
16:32:04:938,0.828,2.154,8.9231,51.8509,-0.2416,0.092,0.1431,-72.4763
16:32:04:958,0.284,2.324,8.659,51.8066,-0.1107,-0.0465,-0.0103,-72.4763
16:32:04:977,-0.12,2.642,7.991,51.8233,-0.165,0.0004,-0.0795,-72.4763
16:32:04:998,-0.096,2.793,8.52,51.7975,-0.3546,0.1911,-0.022,-72.4763
16:32:05:017,0.054,2.735,9.981,51.9023,-0.3833,0.2795,0.0738,-72.4763
16:32:05:038,-0.0791,2.685,10.8551,52.483,-0.1554,0.2816,0.1346,-72.4763
16:32:05:057,-0.371,2.676,11.07,52.4807,0.0652,0.2549,0.1442,-72.4763
16:32:05:077,-0.179,2.5181,10.905,52.7855,0.1983,0.0952,0.0536,-72.4763
16:32:05:097,-0.227,2.52,10.079,52.3649,0.2196,-0.1423,-0.1328,-72.4763
16:32:05:118,-0.282,2.8931,9.2201,52.3484,0.0939,-0.2159,-0.2606,-72.4763
16:32:05:137,-0.7181,3.1451,9.267,51.8362,-0.0733,-0.07,-0.1818,-72.4763
16:32:05:159,-0.771,2.831,10.352,53.4008,-0.1841,0.1187,-0.0113,-72.4763
16:32:05:177,-0.606,2.048,11.63,53.3793,-0.2001,0.0899,0.0579,-72.4763
16:32:05:197,-0.2539,1.593,11.774,52.8716,-0.1682,-0.12,-0.0997,-72.4763
16:32:05:217,-0.5501,2.223,11.312,52.8468,-0.1798,-0.2329,-0.3171,-72.4763
16:32:05:237,-1.008,3.147,11.192,52.9876,-0.2449,-0.087,-0.2393,-72.4763
16:32:05:257,-0.72,2.786,11.786,54.4489,-0.2779,0.0931,0.0323,-72.4763
16:32:05:277,0.009,1.6991,12.516,52.9036,-0.2076,0.0931,0.1335,-72.4763
16:32:05:296,0.6791,0.873,12.6221,52.837,-0.0147,-0.0678,-0.0027,-72.4763
16:32:05:317,0.552,0.686,11.274,52.7715,0.1855,-0.2798,-0.2372,-72.4763
16:32:05:337,-0.2081,1.2491,9.5381,53.8255,0.2388,-0.3021,-0.3267,-72.4763
16:32:05:357,-0.45,1.548,8.4851,53.3177,0.1035,-0.1371,-0.186,-72.3809
16:32:05:377,-0.029,1.1411,8.738,53.3206,-0.1096,0.061,-0.0049,-72.2809
16:32:05:397,0.315,0.47,9.425,53.2972,-0.2364,0.1218,0.0451,-72.1784
16:32:05:417,0.677,0.0611,9.806,53.9141,-0.264,0.0857,-0.0231,-72.0764
16:32:05:437,0.801,0.054,9.7181,53.8724,-0.2491,0.0547,-0.1786,-71.9764
16:32:05:457,0.461,0.375,9.512,54.0117,-0.198,0.0494,-0.3086,-71.8774
16:32:05:476,0.3131,0.7961,8.9441,53.4881,-0.1341,0.0388,-0.364,-71.7765
16:32:05:497,0.284,0.99,8.382,54.4013,-0.0851,0.0195,-0.4172,-71.6708
16:32:05:516,0.114,1.208,7.85,53.3273,0.0055,0.0525,-0.5109,-71.558
16:32:05:537,-0.1751,1.8971,7.304,54.0124,0.1664,0.2177,-0.6014,-71.436
16:32:05:557,-0.7541,2.7671,6.6941,55.4961,0.2548,0.4456,-0.5951,-71.302
16:32:05:577,-1.307,3.705,6.801,54.5022,0.2398,0.8152,-0.4385,-71.1539
16:32:05:597,-1.398,3.992,7.955,54.986,0.2261,1.0645,-0.1669,-70.9917
16:32:05:617,-1.3121,3.509,9.248,54.5275,0.2047,0.9027,0.0397,-70.8193
16:32:05:636,-1.0481,2.9321,9.773,55.1955,0.1141,0.4819,0.1409,-70.6424
16:32:05:657,-0.677,2.4791,9.8831,54.8816,-0.0308,0.1303,0.1314,-70.4667
16:32:05:676,-0.665,2.352,10.304,54.7346,-0.1159,0.0291,0.1037,-70.2961
16:32:05:696,-0.653,2.022,10.9121,54.7501,-0.0201,0.109,0.1112,-70.1327
16:32:05:715,-0.768,1.56,11.099,54.7346,0.1354,0.2336,0.076,-69.9774
16:32:05:737,-1.254,1.299,11.348,54.693,0.227,0.2549,0.0227,-69.83
16:32:05:757,-1.479,1.227,11.19,55.2425,0.2218,0.092,-0.0305,-69.6894
16:32:05:776,-1.3931,1.229,11.3501,54.612,0.1419,-0.1243,-0.0902,-69.5538
16:32:05:795,-1.281,1.4741,11.561,54.6275,0.242,-0.2478,-0.1669,-69.4214
16:32:05:833,-1.8791,2.0891,10.3451,54.6147,0.3165,-0.1892,-0.1701,-69.2901
16:32:05:835,-2.432,3.018,9.6461,54.588,0.0769,0.0494,0.0397,-69.1579
16:32:05:855,-2.298,2.855,10.943,55.1465,-0.2651,0.2625,0.3316,-69.0252
16:32:05:875,-1.568,1.617,12.954,54.476,-0.2907,0.1634,0.4616,-68.897
16:32:05:896,-0.6371,0.7121,12.524,55.0743,-0.0073,-0.2734,0.3476,-68.7797
16:32:05:916,-0.285,0.8321,9.911,55.5713,0.2303,-0.5226,0.1378,-68.6766
16:32:05:936,-0.7061,1.553,7.493,55.0465,0.2207,-0.3629,0.0653,-68.5859
16:32:05:956,-1.0391,1.9451,6.476,55.0578,-0.0499,0.0056,0.1997,-68.5859
16:32:05:976,-1.0031,1.514,7.929,55.5353,-0.3908,0.3009,0.353,-68.5859
16:32:05:996,-0.905,0.945,9.744,55.5143,-0.4718,0.3785,0.3637,-68.5859
16:32:06:017,-1.166,1.167,10.551,55.4832,-0.3641,0.272,0.3018,-68.5859
16:32:06:036,-1.223,1.586,10.0001,56.1564,-0.314,0.0067,0.2966,-68.5859
16:32:06:055,-0.867,1.6511,9.1721,55.5953,-0.4047,-0.2958,0.3242,-68.5859
16:32:06:076,-0.201,1.308,9.239,56.6041,-0.4067,-0.4194,0.2614,-68.5859
16:32:06:095,0.186,1.368,8.8991,55.4707,-0.2086,-0.4459,0.0686,-68.5859
16:32:06:116,-0.237,2.003,8.31,54.9302,0.0055,-0.3693,-0.1115,-68.5859
16:32:06:135,-0.974,2.573,7.781,55.9685,0.1258,-0.2958,-0.1264,-68.5859
16:32:06:156,-1.269,2.7161,7.539,55.9306,0.1462,-0.186,-0.0198,-68.5859
16:32:06:176,-1.1231,2.561,7.608,56.9721,0.1578,-0.088,0.092,-68.5859
16:32:06:196,-0.711,2.2421,7.9031,56.9561,0.1386,-0.006,0.109,-68.5859
16:32:06:216,-0.771,2.149,8.396,56.9206,0.1781,0.0707,0.0388,-68.5859
16:32:06:236,-1.029,2.259,8.6569,55.9145,0.2164,0.223,0.0164,-68.5859
16:32:06:257,-1.01,2.249,9.215,55.9963,0.2111,0.3679,-0.0027,-68.5859
16:32:06:275,-1.23,2.345,10.029,56.5919,0.2036,0.3615,-0.0252,-68.5859
16:32:06:295,-1.6541,2.613,10.3421,57.3824,0.21,0.1495,0.0355,-68.5859
16:32:06:316,-1.47,2.565,9.9161,56.5209,0.0726,-0.1328,0.1559,-68.5859
16:32:06:336,-0.72,2.0531,9.978,56.4849,-0.1671,-0.2074,0.1932,-68.5859
16:32:06:357,-0.27,1.478,11.049,57.4617,-0.2108,-0.1082,0.1027,-68.5859
16:32:06:376,-0.2539,1.407,11.5541,57.5204,-0.1235,-0.0667,-0.055,-68.5859
16:32:06:396,-0.5051,1.718,11.195,57.4518,-0.1585,-0.0945,-0.1605,-68.5859
16:32:06:416,-0.591,1.7111,11.891,56.4744,-0.3109,0.026,-0.1519,-68.5859
16:32:06:436,-0.251,1.0121,13.395,57.3912,-0.2162,0.0238,-0.1647,-68.5859
16:32:06:459,0.222,0.339,12.7271,56.8129,0.1258,-0.283,-0.3224,-68.5859
16:32:06:475,-0.0761,0.779,9.8201,56.8288,0.2654,-0.4364,-0.5067,-68.5859
16:32:06:496,-0.687,1.419,7.881,56.7523,0.063,-0.2201,-0.4641,-68.5859
16:32:06:517,-0.828,1.4111,8.429,56.7174,-0.2332,0.1622,-0.2947,-68.5859
16:32:06:537,-0.8381,0.978,10.065,56.7656,-0.3396,0.3413,-0.1892,-68.5859
16:32:06:559,-0.924,0.825,10.941,56.6465,-0.2651,0.254,-0.1573,-68.5859
16:32:06:577,-0.816,0.9281,10.328,57.3106,-0.2076,0.026,-0.1317,-68.5859
16:32:06:596,-0.527,1.028,9.354,57.2686,-0.2267,-0.1286,-0.1158,-68.5859
16:32:06:617,-0.428,1.0001,8.547,56.7149,-0.2119,-0.1818,-0.1115,-68.5859
16:32:06:636,-0.3161,1.124,8.1011,56.6731,-0.1244,-0.105,-0.1371,-68.5859
16:32:06:659,-0.5171,1.493,7.9391,57.6644,0.0385,0.026,-0.169,-68.5859
16:32:06:676,-0.7781,1.895,7.6871,57.6388,0.144,0.1122,-0.1136,-68.5859
16:32:06:696,-0.737,2.055,7.656,57.6131,0.1099,0.1016,-0.0124,-68.5859
16:32:06:717,-0.455,1.785,7.9631,57.5814,0.0279,0.0217,0.0632,-68.5859
16:32:06:736,-0.009,1.454,8.262,57.5719,0.0225,0.0089,0.0781,-68.5859
16:32:06:755,0.033,1.2461,8.6711,56.5851,0.1035,0.1293,0.011,-68.5859
16:32:06:776,-0.519,1.641,9.399,58.6969,0.1994,0.2614,-0.0316,-68.5859
16:32:06:796,-0.989,2.012,10.1681,57.1723,0.2377,0.2549,0.059,-68.5859
16:32:06:816,-0.701,1.7591,10.637,58.7296,0.2346,0.0536,0.1474,-68.5859
16:32:06:836,-0.321,1.505,10.1891,58.682,0.2142,-0.1871,0.142,-68.5859
16:32:06:858,-0.213,1.4741,9.852,58.269,0.1376,-0.2276,0.1144,-68.5859
16:32:06:876,-0.438,1.538,9.9041,58.2433,0.0407,-0.1253,0.1431,-68.5859
16:32:06:896,-0.464,1.289,10.565,58.217,-0.0403,0.0397,0.206,-68.5859
16:32:06:916,-0.3641,1.059,11.042,58.7488,-0.0382,0.1111,0.1719,-68.5859
16:32:06:937,-0.843,1.526,10.8761,58.7483,-0.0733,0.125,0.1165,-68.5859
16:32:06:958,-1.317,2.099,10.977,58.2102,-0.2054,0.1932,0.1943,-68.5859
16:32:06:976,-1.4771,1.991,12.456,57.8064,-0.2992,0.2731,0.3231,-68.5859
16:32:06:996,-1.13,1.2011,13.881,58.725,-0.1415,0.2017,0.353,-68.5859
16:32:07:015,-0.881,0.741,13.431,58.7049,0.1855,-0.0604,0.2284,-68.5859
16:32:07:035,-1.008,1.067,11.348,58.8003,0.3719,-0.1764,0.0803,-68.5859
16:32:07:055,-1.661,1.608,9.971,58.8929,0.3688,-0.0402,0.0857,-68.5859
16:32:07:075,-2.052,1.533,9.662,59.8206,0.2761,0.1517,0.2251,-68.5859
16:32:07:096,-1.836,1.2461,9.528,59.9163,0.1471,0.1878,0.3455,-68.5859
16:32:07:116,-1.4651,1.296,8.9591,59.8437,0.0023,0.0483,0.3839,-68.5859
16:32:07:136,-1.0391,1.356,8.25,58.8571,-0.15,-0.0027,0.4126,-68.5859
16:32:07:157,-0.608,1.268,8.664,59.9123,-0.1565,0.1176,0.4137,-68.5859
16:32:07:176,-0.4091,1.0691,9.2891,58.922,0.096,0.2091,0.3391,-68.5859
16:32:07:196,-0.522,1.3871,8.645,59.6084,0.3262,0.1389,0.2208,-68.5859
16:32:07:216,-0.6851,1.907,7.8191,59.6186,0.3315,0.0696,0.157,-68.5859
16:32:07:236,-0.828,2.13,7.424,60.6754,0.2355,0.0238,0.1559,-68.5859
16:32:07:256,-0.797,2.1611,7.544,60.794,0.1684,0.0857,0.1367,-68.5859
16:32:07:277,-1.2971,2.3591,9.023,60.766,0.2889,0.2134,0.1187,-68.5859
16:32:07:295,-1.455,2.364,9.461,60.03,0.5573,0.1389,0.1324,-68.5859
16:32:07:316,-1.362,2.486,8.4461,60.1453,0.5849,-0.0635,0.0835,-68.5859
16:32:07:336,-1.3841,2.759,7.874,60.3447,0.3602,-0.1508,0.0516,-68.6782
16:32:07:356,-1.187,2.826,8.7551,59.8114,0.2537,-0.07,0.0664,-68.7691
16:32:07:378,-0.881,2.783,9.327,59.7392,0.3176,-0.0518,0.0451,-68.7691
16:32:07:397,-0.948,2.925,9.813,61.6961,0.4401,-0.1125,0.0078,-68.8595
16:32:07:416,-0.926,3.1181,8.994,61.147,0.4913,-0.1584,0.0015,-68.8595
16:32:07:436,-1.068,3.2411,8.906,60.7113,0.3187,-0.0252,0.0238,-68.8595
16:32:07:455,-1.202,3.035,10.374,60.3827,0.1812,0.1037,0.0835,-68.8595
16:32:07:477,-0.9221,2.723,11.6261,60.342,0.2133,0.0206,0.0696,-68.8595
16:32:07:497,-0.8261,2.6591,11.901,61.5345,0.3102,-0.3299,-0.0135,-68.8595
16:32:07:516,-0.335,2.889,9.945,61.0446,0.242,-0.6281,-0.1008,-68.8595
16:32:07:536,-0.086,3.035,9.176,60.9855,0.0172,-0.4577,-0.1189,-68.8595
16:32:07:556,0.275,2.5871,10.67,61.0598,0.0066,-0.1519,-0.0954,-68.8595
16:32:07:577,0.5951,2.091,11.168,60.6339,0.2548,-0.1743,-0.2179,-68.8595
16:32:07:596,0.222,2.2129,9.6221,60.8759,0.3964,-0.2468,-0.3703,-68.8595
16:32:07:616,-0.357,2.7281,8.262,61.6711,0.2014,-0.1797,-0.3714,-68.8595
16:32:07:636,-0.692,2.81,8.4461,61.1772,-0.1532,-0.0444,-0.2489,-68.8595
16:32:07:656,-0.476,2.2661,9.995,60.5932,-0.3024,0.0771,-0.1381,-68.8595
16:32:07:676,-0.218,1.785,10.532,61.0366,-0.1906,0.0601,-0.153,-68.8595
16:32:07:696,-0.2111,1.622,9.974,60.458,-0.0946,-0.0274,-0.2435,-68.8595
16:32:07:717,-0.567,1.926,9.516,61.8552,-0.0957,-0.1541,-0.3149,-68.8595
16:32:07:736,-0.5291,1.95,8.793,60.3162,-0.0755,-0.3523,-0.3267,-68.8595
16:32:07:757,-0.311,2.0171,7.73,61.2981,-0.0147,-0.4172,-0.3745,-68.8595
16:32:07:778,-0.132,2.2571,6.809,61.2315,0.0928,-0.3191,-0.4331,-68.8595
16:32:07:797,-0.206,2.649,5.9831,61.3671,0.209,-0.055,-0.4428,-68.8595
16:32:07:834,-0.488,3.039,5.7461,61.1636,0.2782,0.2859,-0.3756,-68.8595
16:32:07:835,-0.7901,3.188,5.949,60.8372,0.2313,0.4701,-0.2681,-68.8595
16:32:07:855,-0.972,3.185,6.933,61.5973,0.1141,0.5021,-0.1584,-68.8595
16:32:07:875,-1.068,2.975,7.955,61.5686,0.0353,0.2784,-0.0646,-68.8595
16:32:07:896,-0.804,2.676,8.6711,61.5436,-0.0936,-0.0624,-0.0241,-68.8595
16:32:07:916,-0.728,2.597,9.686,61.4986,-0.0808,-0.3884,-0.0209,-68.8595
16:32:07:937,-0.342,2.721,9.143,60.9725,0.0439,-0.5717,-0.038,-68.8595
16:32:07:957,-0.266,3.008,8.07,61.9317,-0.0349,-0.4417,-0.1072,-68.8595
16:32:07:977,-0.768,3.3941,8.4851,60.8511,-0.2768,-0.0283,-0.1104,-68.8595
16:32:07:996,-1.151,3.32,10.266,60.7257,-0.4067,0.2986,0.01,-68.8595
16:32:08:017,-1.082,2.721,11.879,60.6985,-0.3567,0.3029,0.0547,-68.8595
16:32:08:036,-1.0601,2.6111,11.621,61.5955,-0.2523,0.0653,0.0067,-68.8595
16:32:08:056,-1.19,3.123,10.101,61.5281,-0.3513,-0.022,0.0067,-68.8595
16:32:08:076,-1.515,3.363,10.2371,60.9432,-0.6326,0.1655,0.1442,-68.8595
16:32:08:096,-1.506,2.7671,12.413,61.7611,-0.7231,0.2805,0.2998,-68.8595
16:32:08:116,-1.044,1.809,13.883,61.6367,-0.3791,0.0857,0.2966,-68.8595
16:32:08:136,-0.558,1.751,11.82,60.6682,0.0118,-0.252,0.1378,-68.8595
16:32:08:155,-0.6371,2.283,9.545,60.6428,0.0331,-0.2074,0.0516,-68.8595
16:32:08:176,-1.1231,2.307,9.4399,61.1186,-0.0434,0.1111,0.1196,-68.8595
16:32:08:196,-1.295,1.706,10.029,61.6155,-0.0755,0.2688,0.2401,-68.8595
16:32:08:215,-1.151,1.268,9.9881,61.6099,-0.1585,0.175,0.2432,-68.8595
16:32:08:235,-1.116,1.4381,9.4451,60.6543,-0.2608,0.0047,0.2017,-68.8595
16:32:08:256,-1.1801,1.917,8.6111,61.6145,-0.3461,-0.071,0.2167,-68.8595
16:32:08:277,-1.187,2.2571,8.336,60.5664,-0.4271,-0.0018,0.3338,-68.8595
16:32:08:296,-1.044,2.156,8.286,60.5042,-0.4984,-0.0252,0.4553,-68.8595
16:32:08:316,-0.608,1.7471,8.6569,60.9739,-0.5272,-0.0326,0.4701,-68.8595
16:32:08:336,-0.39,1.658,9.255,61.4999,-0.3268,-0.0007,0.3711,-68.8595
16:32:08:355,-0.606,2.187,9.069,61.0162,-0.0979,-0.1264,0.2731,-68.8595
16:32:08:377,-0.591,2.4191,8.1251,61.0068,-0.1,-0.2681,0.2614,-68.8595
16:32:08:396,-0.203,2.2091,8.207,60.9684,-0.0872,-0.1477,0.2156,-68.8595
16:32:08:415,-0.369,2.319,8.6381,60.9646,0.0694,0.0377,0.1261,-68.8595
16:32:08:436,-0.653,2.4821,8.736,61.1502,0.177,0.1378,0.1048,-68.8595
16:32:08:456,-0.4481,2.2331,8.942,60.2415,0.0896,0.0462,0.0781,-68.8595
16:32:08:477,-0.048,1.907,9.641,61.1929,0.0417,-0.1082,-0.0507,-68.8595
16:32:08:496,-0.098,2.127,9.603,61.1981,0.1547,-0.1082,-0.2062,-68.8595
16:32:08:516,-0.404,2.436,9.4781,60.2343,0.2601,0.076,-0.2585,-68.8595
16:32:08:536,-0.756,2.5181,9.701,61.022,0.2633,0.2549,-0.2233,-68.8595
16:32:08:556,-1.151,2.405,10.101,61.0136,0.1397,0.2901,-0.1391,-68.8595
16:32:08:576,-1.3601,2.1611,11.3771,61.0123,-0.0212,0.1474,-0.0209,-68.8595
16:32:08:596,-0.7421,1.505,11.8121,60.9969,-0.0786,-0.2031,0.0525,-68.8595
16:32:08:616,0.093,1.2701,10.809,60.4894,-0.2299,-0.4641,-0.0316,-68.8595
16:32:08:636,0.365,1.3781,10.6751,60.6576,-0.4121,-0.3873,-0.1072,-68.8595
16:32:08:656,0.576,0.861,12.107,58.986,-0.3259,-0.12,-0.1669,-68.8595
16:32:08:677,0.794,0.339,12.516,60.0231,0.0939,-0.1019,-0.3256,-68.8595
16:32:08:697,0.5831,0.731,10.1531,59.9971,0.3026,-0.2628,-0.5291,-68.8595
16:32:08:716,-0.201,1.481,8.1851,59.8731,0.0481,-0.3651,-0.594,-68.8595
16:32:08:737,-0.773,2.182,7.979,59.7323,-0.3598,-0.2702,-0.4033,-68.8595
16:32:08:756,-0.354,1.797,8.9831,59.575,-0.5943,-0.0433,-0.1488,-68.8595
16:32:08:777,0.143,1.119,10.067,59.4827,-0.6049,0.1272,-0.0444,-68.8595
16:32:08:796,0.591,0.423,10.4381,59.8854,-0.4899,0.1196,-0.0795,-68.8595
16:32:08:817,0.5021,0.303,10.074,59.8032,-0.4185,-0.103,-0.2542,-68.8595
16:32:08:835,0.107,0.693,8.865,59.1391,-0.4516,-0.349,-0.4001,-68.8595
16:32:08:856,-0.218,1.0811,8.3381,59.6119,-0.5144,-0.2617,-0.4097,-68.8595
16:32:08:877,0.176,0.827,8.975,59.4448,-0.4366,0.059,-0.3842,-68.8595
16:32:08:895,0.48,0.552,10.0241,59.3704,-0.0681,0.3305,-0.4609,-68.8595
16:32:08:916,0.0641,0.597,9.5981,59.2923,0.3538,0.2518,-0.5994,-68.8595
16:32:08:936,-0.345,1.1771,7.97,59.9074,0.4135,0.0462,-0.6824,-68.8595
16:32:08:956,-0.8861,1.9571,7.371,59.8931,0.2548,0.0579,-0.6133,-68.7589
16:32:08:976,-1.3001,2.448,7.6061,59.5389,0.1886,0.1986,-0.4097,-68.6407
16:32:08:997,-1.2041,2.393,8.346,59.5596,0.0832,0.32,-0.1423,-68.5066
16:32:09:016,-0.656,1.8731,9.5621,59.5492,-0.052,0.3413,0.0366,-68.3613
16:32:09:036,-0.6101,1.557,10.982,58.5998,-0.0201,0.173,0.0558,-68.2113
16:32:09:055,-0.431,1.349,11.022,59.5367,0.1621,-0.186,0.0047,-68.0615
16:32:09:078,-0.1871,1.296,9.1721,58.7042,0.308,-0.1306,-0.0518,-67.9144
16:32:09:096,-0.9551,1.644,9.263,58.7099,0.0257,0.1495,-0.0402,-67.7703
16:32:09:116,-1.3331,1.7081,10.9391,59.3219,-0.1948,0.3541,0.1442,-67.6286
16:32:09:135,-1.154,1.215,12.3011,59.2775,-0.0553,0.5298,0.256,-67.4909
16:32:09:156,-1.29,0.971,12.3251,59.2669,0.0789,0.3637,0.2167,-67.3604
16:32:09:177,-1.8191,1.605,11.238,60.1301,0.0129,0.1324,0.2102,-67.2391
16:32:09:195,-2.061,2.2901,11.403,59.2268,-0.2458,0.0974,0.4254,-67.1273
16:32:09:216,-1.053,1.34,12.5621,59.2275,-0.2714,0.0056,0.6182,-67.0269
16:32:09:236,-0.048,0.2861,12.2651,59.174,0.0513,-0.1871,0.501,-67.0269
16:32:09:256,0.047,0.4181,9.84,58.7708,0.3293,-0.2318,0.256,-67.0269
16:32:09:278,-0.78,0.882,8.018,59.5205,0.2622,0.0632,0.1698,-67.0269
16:32:09:296,-1.688,1.091,8.609,59.5135,0.0268,0.4329,0.3125,-67.0269
16:32:09:316,-1.3691,0.473,9.519,58.6972,-0.1671,0.4851,0.4382,-67.0269
16:32:09:336,-0.8621,0.147,10.4,59.2065,-0.2927,0.3242,0.353,-67.0269
16:32:09:356,-0.989,1.115,11.4821,58.7151,-0.3589,-0.1669,0.3072,-67.0269
16:32:09:378,-4.403,4.416,14.082,59.3513,-0.2683,-1.018,0.8697,-67.0269
16:32:09:396,0.614,-0.225,4.802,57.9318,0.0683,-1.4112,1.4886,-67.0269
16:32:09:416,2.853,-0.611,4.908,58.3978,-0.5985,-0.463,0.3978,-67.0269
16:32:09:436,0.938,0.846,11.03,58.313,-0.4493,0.1783,-0.007,-67.0269
16:32:09:456,-0.692,1.737,10.977,58.9378,0.3336,0.0206,-0.1477,-67.123
16:32:09:476,-0.711,2.472,8.6899,57.3689,0.7267,-0.2276,-0.0604,-67.226
16:32:09:496,-0.017,2.201,6.6701,57.6076,0.3805,-0.3415,-0.0135,-67.3294
16:32:09:516,0.294,1.8641,7.7231,57.5459,0.0246,-0.3554,-0.0283,-67.4309
16:32:09:536,0.4421,1.79,8.573,57.4993,0.1653,-0.1977,-0.1328,-67.5297
16:32:09:555,0.1811,1.835,8.6141,57.4684,0.454,0.0227,-0.2244,-67.6247
16:32:09:576,-0.189,1.838,8.5901,56.8208,0.5402,0.1761,-0.2393,-67.6247
16:32:09:596,-0.2561,1.938,9.224,56.7909,0.5317,0.142,-0.234,-67.6247
16:32:09:616,-0.1991,1.7801,8.951,56.7566,0.4731,-0.0902,-0.2702,-67.6247
16:32:09:637,-0.3281,1.9721,8.487,57.5662,0.3154,-0.1669,-0.3224,-67.6247
16:32:09:656,-0.692,2.391,8.8631,56.4438,0.1248,-0.0241,-0.2318,-67.6247
16:32:09:678,-0.675,2.094,10.1561,56.6585,0.0033,0.1645,-0.0859,-67.6247
16:32:09:696,-0.488,1.79,11.2931,56.4716,-0.0232,0.2188,-0.0337,-67.6247
16:32:09:716,-0.579,1.761,11.702,56.4631,-0.1031,0.0015,-0.0465,-67.6247
16:32:09:736,-0.1871,1.9721,11.453,56.3319,-0.3301,-0.1849,-0.0433,-67.6247
16:32:09:756,0.507,1.55,12.428,56.3065,-0.4686,-0.0305,-0.0274,-67.6247
16:32:09:779,1.1201,0.7721,14.0201,55.9095,-0.1628,0.2039,-0.1733,-67.6247
16:32:09:796,0.921,0.3341,13.3451,55.2507,0.3666,0.1068,-0.447,-67.6247
16:32:09:816,-0.057,0.765,10.5911,55.8889,0.5434,-0.088,-0.6867,-67.6247
16:32:09:842,-0.972,1.629,8.2691,55.7212,0.2611,-0.0997,-0.6505,-67.6247
16:32:09:855,-0.9791,1.763,8.111,55.6142,-0.1596,0.0846,-0.4118,-67.6247
16:32:09:876,-0.345,1.131,9.1811,54.6778,-0.3919,0.2475,-0.2085,-67.6247
16:32:09:897,0.167,0.5711,9.947,56.1001,-0.4067,0.4063,-0.1935,-67.6247
16:32:09:916,0.0371,0.351,10.443,56.0082,-0.2629,0.4317,-0.2958,-67.6247
16:32:09:936,-0.333,0.602,10.0961,55.7618,-0.1213,0.2208,-0.4194,-67.6247
16:32:09:956,-0.701,1.304,8.8361,55.0688,-0.0883,-0.0763,-0.4694,-67.6247
16:32:09:976,-0.917,1.838,7.623,55.057,-0.1404,-0.2383,-0.3853,-67.6247
16:32:09:997,-0.809,1.919,6.921,55.0291,-0.1958,-0.2563,-0.2798,-67.5238
16:32:10:016,-0.639,2.0201,6.921,54.9393,-0.181,-0.0945,-0.2105,-67.4133
16:32:10:036,-0.689,2.192,7.3781,54.9104,-0.0979,0.125,-0.1519,-67.2956
16:32:10:056,-0.615,2.106,8.4221,54.6708,-0.0095,0.1974,-0.0837,-67.1729
16:32:10:077,-0.3491,1.9451,8.7431,54.6873,0.0331,0.0664,-0.0646,-67.0473
16:32:10:096,-0.0641,1.931,8.5781,54.716,-0.0265,-0.0209,-0.0763,-66.9209
16:32:10:116,-0.041,1.857,8.729,54.6873,-0.1671,0.0536,-0.0848,-66.7945
16:32:10:136,-0.383,1.785,10.046,53.808,-0.2577,0.2966,-0.0476,-66.669
16:32:10:156,-0.3401,1.239,11.985,53.8341,-0.0798,0.5543,0.0132,-66.5449
16:32:10:179,-0.474,0.363,13.031,54.6366,0.3486,0.582,-0.0529,-66.4233
16:32:10:196,-0.809,0.3581,11.5991,53.8446,0.5849,0.2273,-0.2767,-66.3044
16:32:10:216,-1.511,1.6631,10.199,53.8148,0.3986,0.0269,-0.3703,-66.1854
16:32:10:236,-1.9181,2.319,10.1081,53.7176,0.1567,-0.0913,-0.2265,-66.0618
16:32:10:256,-1.695,2.336,10.397,53.7172,0.0641,-0.0837,-0.0177,-65.9321
16:32:10:275,-1.5851,1.907,10.299,54.5352,0.0854,0.0238,0.0931,-65.7989
16:32:10:295,-1.9391,2.0771,10.091,52.8849,-0.001,0.2347,0.1665,-65.6658
16:32:10:316,-2.411,2.0081,11.4821,53.7873,-0.1511,0.2881,0.3893,-65.5363
16:32:10:335,-1.736,1.098,12.255,53.0015,-0.1628,-0.087,0.5724,-65.4145
16:32:10:355,-0.6581,0.473,11.288,53.1563,-0.0829,-0.5493,0.5372,-65.3062
16:32:10:375,-0.2801,0.341,9.56,54.0528,-0.0829,-0.8518,0.402,-65.2156
16:32:10:395,-0.1151,0.6281,8.1251,53.3598,-0.165,-0.7219,0.3211,-65.2156
16:32:10:415,-0.273,0.5591,7.826,53.1584,-0.2321,-0.2116,0.3424,-65.2156
16:32:10:435,-0.4331,0.253,8.9231,52.9412,-0.3013,0.2657,0.3541,-65.2156
16:32:10:456,-0.6131,0.042,10.172,52.2486,-0.2981,0.3552,0.2975,-65.2156
16:32:10:476,-0.864,0.236,10.469,52.9587,-0.1778,0.1537,0.1793,-65.2156
16:32:10:498,-1.044,0.894,9.224,52.8434,-0.117,-0.1764,0.1122,-65.2156
16:32:10:516,-0.972,1.4501,7.9391,52.1701,-0.1841,-0.298,0.1272,-65.2156
16:32:10:536,-0.78,1.622,7.884,53.1031,-0.2076,-0.1764,0.1804,-65.2156
16:32:10:556,-0.584,1.596,8.2691,52.1987,-0.1085,-0.0763,0.1932,-65.2156
16:32:10:576,-0.479,1.6841,8.259,52.1839,0.0044,-0.0945,0.1591,-65.2156
16:32:10:596,-0.3251,1.835,8.015,52.1552,0.014,-0.1551,0.1207,-65.2156
16:32:10:616,-0.3371,1.8761,8.0801,52.1576,0.0001,-0.1456,0.0888,-65.2156
16:32:10:636,-0.294,1.79,8.1611,52.129,0.0203,-0.0646,0.0622,-65.2156
16:32:10:655,-0.371,1.713,8.449,52.1326,0.0364,0.0974,0.0227,-65.2156
16:32:10:676,-0.414,1.6031,9.416,52.1201,0.0566,0.272,-0.0155,-65.2156
16:32:10:695,-0.462,1.478,10.7141,51.2823,0.1334,0.3305,-0.0891,-65.2156
16:32:10:716,-0.596,1.694,11.18,51.2941,0.2569,0.0388,-0.1764,-65.2156
16:32:10:736,-0.572,1.979,9.8711,51.2965,0.2676,-0.3021,-0.2329,-65.2156
16:32:10:756,-0.4811,2.2301,9.267,51.2684,0.128,-0.2776,-0.2383,-65.2156
16:32:10:777,-0.476,2.139,9.983,51.2575,0.0535,-0.0657,-0.1977,-65.2156
16:32:10:796,-0.6101,1.811,10.9361,51.2002,0.0609,0.0601,-0.1743,-65.2156
16:32:10:816,-0.756,1.694,11.2211,51.1845,0.0076,-0.0476,-0.1829,-65.2156
16:32:10:836,-0.6371,1.682,10.958,50.4914,-0.1458,-0.2361,-0.1627,-65.2156
16:32:10:856,-0.1481,1.629,10.8,50.4892,-0.3024,-0.2478,-0.1647,-65.2156
16:32:10:876,0.033,1.3061,11.772,50.4209,-0.3311,0.0078,-0.1871,-65.2156
16:32:10:897,0.1001,0.6761,13.512,50.377,-0.1298,0.2134,-0.2329,-65.2156
16:32:10:917,-0.1271,0.0851,13.9271,50.3755,0.2739,0.1645,-0.3532,-65.2156
16:32:10:936,-0.608,0.1091,11.6711,50.3728,0.4891,-0.184,-0.5258,-65.2156
16:32:10:956,-1.065,1.091,9.0521,50.3506,0.2878,-0.3671,-0.5419,-65.2156
16:32:10:976,-0.78,1.263,8.073,49.7284,-0.0659,-0.2798,-0.349,-65.2156
16:32:10:997,-0.0191,0.947,8.559,49.7661,-0.3194,-0.1093,-0.2051,-65.2156
16:32:11:016,0.464,0.365,9.1841,51.273,-0.4004,-0.0348,-0.1733,-65.2156
16:32:11:037,0.5981,0.056,9.557,50.3909,-0.3769,-0.0337,-0.2563,-65.2156
16:32:11:056,0.48,0.116,9.4901,49.6858,-0.3226,0.0153,-0.3565,-65.1217
16:32:11:076,0.2651,0.147,9.9521,49.7515,-0.247,0.1335,-0.4331,-65.0215
16:32:11:098,0.1961,0.152,10.35,49.6593,-0.0648,0.175,-0.5429,-64.9135
16:32:11:116,-0.1871,0.731,10.29,50.3744,0.2611,0.1293,-0.6772,-64.7954
16:32:11:136,-0.5051,1.488,8.9681,49.6964,0.5158,-0.0326,-0.708,-64.664
16:32:11:156,-0.7781,2.1101,7.524,49.6968,0.5382,-0.1935,-0.659,-64.5163
16:32:11:176,-1.001,2.5991,6.473,49.6713,0.4166,-0.2681,-0.4917,-64.3508
16:32:11:198,-0.5741,2.57,6.2171,49.0343,0.2483,-0.1647,-0.2724,-64.1686
16:32:11:216,-0.129,2.211,6.909,49.685,0.1397,0.142,-0.1541,-63.9737
16:32:11:236,-0.443,2.0171,8.37,48.8445,0.1653,0.3924,-0.1147,-63.7715
16:32:11:256,-0.8021,1.895,9.308,49.5846,0.2047,0.4254,-0.0465,-63.5657
16:32:11:275,-0.953,1.5911,9.945,49.5446,0.1653,0.2688,0.0089,-63.3593
16:32:11:297,-0.914,1.385,10.256,49.5454,0.1088,0.092,0.0217,-63.1547
16:32:11:316,-1.1231,1.371,10.256,49.5181,0.0854,0.0622,0.0269,-62.9538
16:32:11:337,-1.4171,1.409,10.244,48.7042,0.0535,0.1431,0.0749,-62.7576
16:32:11:356,-1.47,1.457,10.646,47.9634,-0.018,0.1804,0.1303,-62.5671
16:32:11:376,-1.235,1.826,10.883,48.6643,-0.0616,0.0835,0.1452,-62.3837
16:32:11:398,-1.422,2.2091,9.9641,49.4907,-0.1074,0.0397,0.1442,-62.2085
16:32:11:417,-1.932,2.465,9.65,48.6775,-0.3066,0.2432,0.2379,-62.0422
16:32:11:436,-2.1761,2.2331,11.271,49.4285,-0.4823,0.5468,0.4542,-61.8859
16:32:11:456,-1.6661,1.0331,13.6301,49.295,-0.3684,0.5692,0.5969,-61.7427
16:32:11:476,-1.1111,0.083,13.484,49.2842,-0.0243,0.1645,0.5362,-61.6173
16:32:11:499,-0.917,0.099,10.764,47.7071,0.1514,-0.219,0.3722,-61.5123
16:32:11:516,-1.41,0.468,8.724,47.628,0.0704,-0.105,0.3296,-61.5123
16:32:11:536,-1.968,0.4271,8.535,48.3958,-0.1213,0.2262,0.4223,-61.5123
16:32:11:557,-2.159,0.267,9.588,47.662,-0.2981,0.2742,0.5585,-61.5123
16:32:11:576,-1.661,0.2651,9.5861,47.6252,-0.4238,-0.0049,0.6449,-61.5123
16:32:11:598,-0.8351,0.444,8.939,48.4693,-0.5016,-0.2414,0.6534,-61.5123
16:32:11:617,-0.333,0.597,8.307,48.4385,-0.4834,-0.2937,0.6278,-61.5123
16:32:11:636,0.071,0.861,7.637,48.4858,-0.4451,-0.1232,0.6119,-61.5123
16:32:11:657,0.1931,0.875,8.37,47.6522,-0.41,0.1506,0.5661,-61.5123
16:32:11:677,-0.0071,0.822,9.5741,46.8579,-0.2342,0.1622,0.4734,-61.5123
16:32:11:698,-0.23,1.11,9.378,46.9394,-0.018,-0.0507,0.3689,-61.5123
16:32:11:716,-0.23,1.4831,8.142,46.9411,0.0151,-0.2809,0.2805,-61.6149
16:32:11:736,-0.3011,1.8611,7.773,46.9889,-0.0297,-0.2457,0.2475,-61.7296
16:32:11:757,-0.491,2.012,7.998,47.8285,-0.0158,-0.1093,0.2753,-61.8533
16:32:11:776,-0.536,1.914,8.796,46.9745,0.0194,-0.0209,0.3179,-61.9844
16:32:11:797,-0.5291,1.7561,9.2651,46.935,0.0641,-0.0177,0.3009,-62.1222
16:32:11:816,-0.603,1.608,10.019,46.2113,0.0865,-0.0507,0.2454,-62.2666
16:32:11:854,-0.768,1.6031,10.7471,46.3183,0.1642,-0.1541,0.1804,-62.4167
16:32:11:855,-0.6581,1.6271,10.4501,46.3068,0.2516,-0.3543,0.1367,-62.571
16:32:11:875,-0.261,1.557,9.519,45.3505,0.2079,-0.4449,0.0792,-62.7277
16:32:11:895,-0.122,1.512,9.5,46.1602,0.144,-0.2872,0.0227,-62.8851
16:32:11:917,-0.17,1.505,10.139,46.1738,0.1248,-0.0368,-0.0049,-63.0416
16:32:11:936,-0.311,1.287,11.003,45.4986,0.0832,0.0067,-0.0732,-63.1955
16:32:11:955,-0.431,1.581,11.6231,45.5111,0.0225,-0.1584,-0.1903,-63.3457
16:32:11:978,-0.6011,2.118,10.953,45.4872,-0.0798,-0.3149,-0.2074,-63.4899
16:32:11:999,-0.452,2.1011,10.785,45.462,-0.2629,-0.0732,-0.0667,-63.6257
16:32:12:018,0.116,0.921,13.2251,45.462,-0.2672,0.37,0.0388,-63.7531
16:32:12:036,0.303,-0.41,15.4091,45.4544,0.2057,0.3594,-0.0646,-63.8745
16:32:12:056,-0.1361,-0.9461,12.923,45.4493,0.7321,-0.2894,-0.3575,-63.991
16:32:12:077,-0.759,0.6521,8.109,44.7887,0.5764,-0.4876,-0.561,-64.0999
16:32:12:099,-1.752,1.809,7.544,44.743,0.1343,-0.0433,-0.397,-64.1952
16:32:12:116,-1.898,1.4501,9.3611,45.4232,-0.0766,0.2848,-0.022,-64.1952
16:32:12:136,-0.713,0.4781,9.785,45.3906,-0.1426,0.1378,0.1815,-64.1952
16:32:12:157,0.119,0.02,9.3821,44.5403,-0.2256,-0.0241,0.1314,-64.1952
16:32:12:176,0.399,0.063,9.026,44.5385,-0.2491,0.0195,0.0238,-64.1952
16:32:12:197,0.0611,0.233,8.954,44.5095,-0.2236,0.1622,-0.0529,-64.1952
16:32:12:216,-0.4451,0.4511,9.018,44.5305,-0.2204,0.2549,-0.0604,-64.1952
16:32:12:236,-0.641,0.576,9.504,44.5181,-0.2139,0.2208,-0.0402,-64.1952
16:32:12:256,-0.452,0.6551,9.737,43.7848,-0.1011,0.0781,-0.038,-64.1952
16:32:12:277,-0.165,0.767,9.047,43.7848,0.08,-0.0817,-0.103,-64.1952
16:32:12:299,-0.215,1.395,7.824,44.4644,0.1759,-0.1062,-0.1733,-64.1952
16:32:12:317,-0.522,1.955,7.3091,44.4644,0.1781,-0.0444,-0.1508,-64.1952
16:32:12:336,-0.572,2.252,6.902,44.5,0.1195,0.0525,-0.0732,-64.1952
16:32:12:357,-0.6011,2.13,7.9601,43.6704,0.0353,0.2816,0.0217,-64.1952
16:32:12:377,-0.596,1.8041,9.442,43.6704,0.0652,0.3519,0.0857,-64.1952
16:32:12:399,-0.428,1.4231,10.575,43.6439,0.1578,0.2379,0.0792,-64.1952
16:32:12:417,-0.347,1.4591,10.3211,43.6783,0.2611,0.0153,0.0143,-64.1952
16:32:12:436,-0.476,1.838,9.363,43.6783,0.2824,-0.0348,-0.0049,-64.1952
16:32:12:457,-0.797,2.087,8.88,43.6518,0.1664,0.1655,0.0857,-64.1952
16:32:12:477,-0.948,1.881,10.1921,42.9655,-0.0318,0.3988,0.2443,-64.1952
16:32:12:500,-0.776,1.11,11.882,43.6161,-0.1085,0.353,0.3263,-64.1952
16:32:12:517,-0.3971,0.585,12.4541,42.7827,-0.0382,0.1207,0.2529,-64.1952
16:32:12:537,-0.615,0.9851,11.3501,42.8621,0.0385,-0.0411,0.1335,-64.1952
16:32:12:556,-1.226,1.751,10.797,42.8621,-0.0062,0.0877,0.1719,-64.1952
16:32:12:578,-1.3601,1.4621,11.8001,42.8501,-0.0062,0.1869,0.3157,-64.1952
16:32:12:599,-0.965,0.87,11.6831,42.8103,0.111,-0.0198,0.3476,-64.1952
16:32:12:616,-0.675,0.722,10.4981,42.9471,0.1823,-0.1733,0.2762,-64.2921
16:32:12:637,-0.869,0.813,9.2531,41.3941,0.1536,-0.1147,0.2401,-64.3958
16:32:12:657,-1.025,0.6,8.7,42.899,-0.0434,0.0462,0.2805,-64.5053
16:32:12:676,-0.9071,0.2141,9.528,41.3775,-0.2799,0.1847,0.3094,-64.6205
16:32:12:696,-0.608,-0.149,10.757,42.8794,-0.3003,0.1783,0.2273,-64.7419
16:32:12:716,-0.4361,-0.0311,10.8071,42.8336,-0.1213,0.043,0.076,-64.8696
16:32:12:736,-0.4001,0.557,9.557,42.0745,0.0151,-0.1477,-0.0359,-65.0017
16:32:12:756,-0.3731,1.2101,8.003,41.2968,0.0257,-0.2681,-0.038,-65.1347
16:32:12:777,-0.191,1.421,7.07,41.3301,-0.0872,-0.1882,-0.0177,-65.2659
16:32:12:797,-0.165,1.4381,7.7831,41.3152,-0.1415,0.0547,-0.0411,-65.3941
16:32:12:816,-0.6851,1.5791,8.9471,41.2555,0.0214,0.0952,-0.0923,-65.5189
16:32:12:837,-0.905,1.926,8.5301,41.3282,0.177,-0.088,-0.1008,-65.6393
16:32:12:857,-0.6851,2.07,7.6631,41.2558,0.1578,-0.2585,-0.0923,-65.754
16:32:12:876,-0.3281,1.974,7.194,41.2175,0.0896,-0.2318,-0.1093,-65.8624
16:32:12:896,-0.2561,1.8971,7.637,41.1911,0.0353,0.0099,-0.1499,-65.9643
16:32:12:917,-0.378,1.775,8.903,40.4154,0.0289,0.2273,-0.1616,-66.0593
16:32:12:936,-0.213,1.349,10.505,40.429,0.1195,0.2199,-0.217,-66.0593
16:32:12:956,-0.1751,1.323,10.9151,40.429,0.2665,0.0047,-0.3458,-66.0593
16:32:12:976,-0.5171,1.62,10.0001,39.7033,0.3059,-0.202,-0.4555,-66.0593
16:32:12:997,-0.9341,1.964,9.48,39.6985,0.1972,-0.1594,-0.4555,-66.0593
16:32:13:018,-1.1059,1.9481,10.0811,40.4071,0.111,-0.0305,-0.3671,-66.0593
16:32:13:037,-0.756,1.613,10.692,40.5274,0.0747,-0.0231,-0.3021,-66.0593
16:32:13:057,-0.476,1.488,10.572,39.6824,-0.003,-0.1136,-0.3352,-66.0593
16:32:13:077,-0.632,1.68,10.2131,39.7371,-0.2119,-0.1243,-0.3512,-66.0593
16:32:13:097,-0.728,1.505,11.5301,39.6573,-0.395,0.0696,-0.2989,-66.0593
16:32:13:117,-0.5051,0.755,13.493,39.6766,-0.2438,0.1176,-0.2958,-66.0593
16:32:13:137,-0.282,0.353,13.017,39.6297,0.0982,-0.0795,-0.4374,-66.0593
16:32:13:156,-0.512,0.954,10.824,38.9817,0.2483,-0.2244,-0.6196,-66.0593
16:32:13:177,-1.1681,1.893,8.973,38.9551,0.1408,-0.2179,-0.5706,-66.0593
16:32:13:197,-0.8951,1.715,8.5421,38.097,-0.1341,-0.1093,-0.3352,-66.0593
16:32:13:218,0.0041,0.99,9.39,38.1784,-0.3226,0.0814,-0.1605,-66.0593
16:32:13:236,0.576,-0.029,10.539,38.1388,-0.314,0.1708,-0.1797,-65.9647
16:32:13:257,0.722,-0.287,10.8311,39.0292,-0.2364,0.0952,-0.3106,-65.8638
16:32:13:276,0.552,-0.125,10.503,38.1993,-0.1884,-0.0678,-0.4385,-65.7574
16:32:13:297,0.38,0.253,9.8591,39.1189,-0.1489,-0.2329,-0.5109,-65.6441
16:32:13:318,0.444,0.612,9.042,38.4994,-0.0786,-0.3447,-0.5419,-65.5214
16:32:13:336,0.564,0.866,8.018,38.4114,-0.0095,-0.3884,-0.5675,-65.3875
16:32:13:356,0.77,1.05,7.448,38.5343,0.0203,-0.2691,-0.5951,-65.241
16:32:13:377,0.662,1.122,7.541,38.7243,0.0769,-0.0997,-0.6644,-65.081
16:32:13:397,0.047,1.443,8.022,37.8361,0.2014,0.0184,-0.7165,-64.9062
16:32:13:416,-0.416,1.8281,7.886,38.6555,0.2739,-0.0038,-0.6804,-64.7151
16:32:13:435,-0.641,2.091,7.7591,37.1387,0.1834,-0.0997,-0.5675,-64.5069
16:32:13:456,-0.5621,2.084,7.9001,37.1022,0.0322,-0.1775,-0.4108,-64.2825
16:32:13:476,-0.23,1.6601,8.659,37.1042,-0.0776,-0.0433,-0.2883,-64.0449
16:32:13:497,0.03,1.227,10.0361,37.2815,-0.0605,0.1634,-0.2307,-63.798
16:32:13:519,0.1481,1.083,11.228,37.2815,0.0502,0.1346,-0.2724,-63.5457
16:32:13:537,-0.0551,1.3541,11.1731,37.2687,0.1493,-0.0316,-0.3182,-63.2901
16:32:13:556,-0.3491,1.538,10.8641,37.2687,0.1716,-0.0667,-0.3054,-63.0316
16:32:13:577,-0.7061,1.665,10.706,36.4538,0.1291,0.0579,-0.2393,-62.7702
16:32:13:597,-0.78,1.598,11.535,35.7605,0.0513,0.1389,-0.1328,-62.5064
16:32:13:619,-0.8381,1.313,11.8601,35.7605,0.0886,0.043,-0.072,-62.2417
16:32:13:637,-1.151,1.2701,10.958,36.3398,0.0587,-0.0155,-0.0177,-61.9785
16:32:13:656,-1.3811,1.407,10.6751,35.7579,-0.1574,0.0345,0.1261,-61.7187
16:32:13:676,-1.089,1.031,11.8751,36.4537,-0.3151,0.0078,0.2912,-61.4652
16:32:13:696,-0.51,0.3461,12.306,35.0927,-0.1906,-0.2372,0.3348,-61.2218
16:32:13:717,0.107,0.147,10.934,35.0927,-0.0201,-0.4791,0.2816,-60.9923
16:32:13:737,0.3701,0.1421,9.3011,34.9722,0.0118,-0.5088,0.1708,-60.7782
16:32:13:755,-0.0671,0.008,8.3741,35.0927,-0.0712,-0.2031,0.0781,-60.5786
16:32:13:776,-0.807,-0.3761,9.117,34.2541,-0.2012,0.1218,0.0622,-60.3915
16:32:13:796,-1.0601,-0.4691,10.211,35.0927,-0.2662,0.2294,0.0355,-60.2147
16:32:13:819,-1.2401,-0.378,10.668,35.2322,-0.2225,0.1133,-0.038,-60.0465
16:32:13:836,-1.1711,0.236,9.9191,35.2322,-0.1884,-0.0837,-0.1167,-59.8854
16:32:13:872,-1.163,1.052,9.2051,34.3964,-0.1915,-0.1456,-0.1414,-59.7289
16:32:13:875,-1.1081,1.464,8.626,34.571,-0.1565,-0.1519,-0.1178,-59.5749
16:32:13:896,-1.013,1.6361,8.262,34.3964,-0.1138,-0.1275,-0.0912,-59.4224
16:32:13:918,-0.948,1.677,8.1851,33.9021,-0.0254,-0.0444,-0.0752,-59.2711
16:32:13:937,-1.092,1.7921,8.4851,35.2322,0.063,0.0056,-0.0657,-59.1211
16:32:13:959,-1.185,1.955,8.664,33.7226,0.1557,-0.0848,-0.0177,-58.9727
16:32:13:976,-0.869,1.943,8.1521,33.7226,0.1673,-0.2222,0.0377,-58.8264
16:32:13:997,-0.572,1.881,7.836,33.9021,0.1013,-0.2798,0.0653,-58.6831
16:32:14:019,-0.3281,1.871,7.862,33.7226,0.0578,-0.1849,0.0846,-58.544
16:32:14:036,-0.3611,1.7471,8.688,33.7226,0.078,0.0462,0.0718,-58.4102
16:32:14:057,-0.615,1.842,9.9311,33.7226,0.1621,0.1559,0.0388,-58.2822
16:32:14:076,-0.735,1.998,10.644,33.7226,0.2227,-0.006,0.0164,-58.1597
16:32:14:096,-0.627,2.348,10.053,33.7226,0.2111,-0.2713,0.0451,-58.0422
16:32:14:119,-0.369,2.223,9.48,32.9028,0.1045,-0.2648,0.1101,-57.9291
16:32:14:136,0.0401,1.6031,10.323,33.7226,0.0758,0.0644,0.1409,-57.821
16:32:14:156,0.188,0.918,12.272,32.9028,0.2111,0.2753,0.0525,-57.7191
16:32:14:177,0.014,0.873,12.864,32.9028,0.3719,0.0377,-0.1328,-57.6236
16:32:14:197,-0.1631,1.668,11.451,32.2387,0.3293,-0.2776,-0.267,-57.532
16:32:14:219,-0.5411,2.412,10.541,32.4126,0.1226,-0.2852,-0.2179,-57.4406
16:32:14:236,-0.495,2.027,11.118,32.2387,-0.0798,-0.0956,-0.022,-57.3465
16:32:14:256,-0.024,0.822,13.17,32.2387,0.0172,0.0397,0.0568,-57.2502
16:32:14:276,0.152,-0.3521,13.062,32.2387,0.422,-0.0923,-0.07,-57.1546
16:32:14:297,-0.3491,-0.192,10.457,31.5956,0.5562,-0.2691,-0.2542,-57.0605
16:32:14:318,-0.869,0.7511,8.396,31.7623,0.325,-0.2596,-0.219,-56.9658
16:32:14:336,-0.548,0.782,7.953,31.7623,-0.0627,-0.1178,-0.0294,-56.868
16:32:14:356,0.248,0.245,9.095,31.7623,-0.329,-0.0241,0.076,-56.7678
16:32:14:376,0.837,-0.237,9.7871,32.6064,-0.314,0.0121,0.0345,-56.6682
16:32:14:397,0.978,-0.405,9.686,31.9615,-0.2534,0.0345,-0.1391,-56.5712
16:32:14:418,0.251,0.083,9.672,32.1806,-0.1693,0.1005,-0.3117,-56.4761
16:32:14:438,-0.3971,0.7121,9.4661,32.1806,-0.0223,0.1154,-0.3362,-56.3798
16:32:14:457,-0.3971,1.115,8.291,32.1806,0.0524,-0.0368,-0.3191,-56.2789
16:32:14:476,-0.143,1.55,6.957,32.1806,0.0055,-0.1317,-0.3149,-56.1718
16:32:14:497,0.0641,2.1941,6.387,31.5911,-0.0786,-0.0572,-0.2926,-56.0577
16:32:14:519,0.0761,2.637,6.7421,31.5911,-0.133,0.1187,-0.2201,-55.9368
16:32:14:537,0.0641,2.573,7.661,32.4193,-0.1235,0.2784,-0.1338,-55.8098
16:32:14:556,0.102,2.2901,8.7889,31.5911,-0.0712,0.2688,-0.0923,-55.6786
16:32:14:576,-0.108,2.276,9.1841,31.2392,-0.0446,0.1676,-0.0763,-55.5451
16:32:14:595,-0.378,2.364,9.6431,31.868,-0.0434,0.1367,0.0058,-55.411
16:32:14:615,-0.261,2.142,10.4411,31.0673,0.0161,0.14,0.0994,-55.2777
16:32:14:635,0.0851,1.763,10.833,31.868,0.1471,0.0249,0.1122,-55.1474
16:32:14:655,0.107,1.7081,9.8201,31.868,0.225,-0.1008,0.0473,-55.0224
16:32:14:677,-0.6011,1.833,9.083,31.868,0.1334,0.0291,0.0388,-54.9031
16:32:14:697,-1.623,1.536,9.758,31.0673,-0.0201,0.2955,0.1804,-54.789
16:32:14:717,-1.496,1.019,11.4821,31.0673,-0.1138,0.3476,0.37,-54.6807
16:32:14:736,-0.4091,0.7511,12.021,31.868,-0.0681,0.0217,0.3817,-54.5811
16:32:14:756,0.105,1.088,10.0601,31.0673,-0.0861,-0.2617,0.2273,-54.5811
16:32:14:776,-0.8711,1.718,8.925,30.2773,-0.2512,0.0249,0.2113,-54.5811
16:32:14:796,-1.614,1.9841,10.5791,32.0015,-0.4058,0.5181,0.4308,-54.5811
16:32:14:818,-1.293,1.2101,13.211,31.2468,-0.4505,0.5266,0.6449,-54.5811
16:32:14:837,-0.167,0.1301,14.523,31.7191,-0.2256,-0.0348,0.6299,-54.5811
16:32:14:856,0.6671,-0.0821,12.1721,31.0673,0.1419,-0.5237,0.3902,-54.5811
16:32:14:877,0.399,0.255,9.143,32.4981,0.3464,-0.4577,0.1836,-54.5811
16:32:14:897,-0.62,0.576,7.2731,31.7191,0.3037,-0.0049,0.1389,-54.5811
16:32:14:919,-1.685,0.528,7.9271,31.7191,-0.001,0.3305,0.2668,-54.5811
16:32:14:937,-2.0831,0.3911,9.296,32.0015,-0.3077,0.2273,0.4553,-54.5811
16:32:14:956,-1.4201,0.174,9.696,32.0015,-0.4834,-0.0081,0.6002,-54.5811
16:32:14:976,-0.464,0.126,9.603,32.0015,-0.5079,-0.1125,0.5991,-54.5811
16:32:14:997,0.14,0.329,8.9321,32.6579,-0.4058,-0.0146,0.4872,-54.5811
16:32:15:020,0.069,0.731,8.549,31.9187,-0.3769,0.0644,0.3722,-54.5811
16:32:15:036,-0.182,1.1531,8.35,31.9187,-0.3823,0.0792,0.3103,-54.6807
16:32:15:056,-0.2921,1.316,8.8031,32.6579,-0.3354,0.0962,0.2998,-54.7921
16:32:15:077,-0.177,1.232,9.411,32.2183,-0.1607,0.1122,0.2742,-54.9133
16:32:15:097,-0.1721,1.277,9.2891,32.2183,0.0246,0.0857,0.2039,-55.0427
16:32:15:120,-0.3251,1.605,8.9351,32.2183,0.1248,0.0153,0.1634,-55.1785
16:32:15:137,-0.3131,1.739,8.453,32.2183,0.1451,-0.0135,0.157,-55.3187
16:32:15:157,-0.218,1.782,8.417,32.2183,0.1238,0.0323,0.1324,-55.4618
16:32:15:176,-0.4211,1.7711,9.021,32.2183,0.1397,0.1591,0.0974,-55.6067
16:32:15:196,-0.57,1.692,9.8231,32.9057,0.1962,0.2955,0.076,-55.7524
16:32:15:216,-0.756,1.5221,10.7831,32.2183,0.2516,0.2571,0.0184,-55.8977
16:32:15:235,-1.116,1.4621,10.898,32.9515,0.291,0.0653,-0.0283,-56.0415
16:32:15:255,-1.439,1.7201,10.625,32.9057,0.2526,-0.0667,-0.0027,-56.1821
16:32:15:275,-1.175,1.749,10.668,32.9515,0.1855,-0.0785,0.1165,-56.3183
16:32:15:296,-0.582,1.292,11.283,33.3371,0.1621,-0.0444,0.1622,-56.4511
16:32:15:315,-0.2201,1.1771,11.568,32.9515,0.2164,-0.07,0.1027,-56.5822
16:32:15:335,-0.242,1.3901,11.058,32.9515,0.1088,-0.1914,0.0494,-56.7127
16:32:15:355,-0.194,1.38,11.2001,32.9515,-0.1096,-0.2307,0.0729,-56.8419
16:32:15:375,0.1721,0.9011,12.468,33.6238,-0.132,-0.1349,0.0888,-56.9697
16:32:15:395,0.648,0.171,13.2251,33.7088,0.144,-0.1541,0.0227,-57.0965
16:32:15:415,0.741,-0.3071,11.496,33.7088,0.454,-0.2724,-0.1764,-57.2219
16:32:15:435,0.2411,0.1541,9.3011,33.7088,0.4444,-0.2596,-0.3438,-57.3436
16:32:15:455,-0.1481,0.696,8.1371,33.7088,0.2303,-0.1306,-0.3245,-57.4573
16:32:15:476,0.073,0.621,8.3,33.7088,-0.0434,-0.0049,-0.2233,-57.5598
16:32:15:497,0.533,0.267,9.002,31.3164,-0.1841,0.0483,-0.1892,-57.6508
16:32:15:519,0.8591,-0.129,9.236,31.6813,-0.1958,0.0505,-0.2457,-57.6508
16:32:15:537,0.653,-0.074,9.224,31.2549,-0.1426,0.0781,-0.3543,-57.6508
16:32:15:556,0.107,0.327,9.038,33.1792,-0.0883,0.1111,-0.4129,-57.6508
16:32:15:576,-0.201,0.6521,9.155,32.9874,-0.0755,0.0814,-0.3938,-57.6508
16:32:15:597,-0.062,0.705,9.176,33.6423,-0.0104,-0.0454,-0.3714,-57.6508
16:32:15:616,0.303,0.822,8.432,32.502,0.0886,-0.1658,-0.4023,-57.6508
16:32:15:638,0.6821,1.172,7.331,34.9759,0.0993,-0.1797,-0.4449,-57.6508
16:32:15:657,0.84,1.4351,7.002,34.2046,0.0342,-0.0678,-0.4971,-57.6508
16:32:15:677,0.38,1.917,7.484,33.9851,0.0236,0.1452,-0.5312,-57.6508
16:32:15:697,-0.1721,2.2331,8.19,35.2261,0.0203,0.2901,-0.4811,-57.6508
16:32:15:717,-0.443,2.352,9.1091,34.8043,-0.0499,0.2762,-0.3693,-57.6508
16:32:15:737,-0.4811,2.1439,10.3811,35.435,-0.0371,0.1783,-0.2606,-57.6508
16:32:15:756,-0.1601,1.8761,10.9841,35.5322,0.1216,0.0505,-0.2137,-57.6508
16:32:15:776,-0.072,1.845,10.496,35.1725,0.2867,-0.0539,-0.2691,-57.6508
16:32:15:796,-0.402,2.166,9.852,35.4529,0.34,0.0334,-0.2969,-57.5565
16:32:15:816,-1.1351,2.415,10.2251,35.2541,0.2984,0.2966,-0.1924,-57.4549
16:32:15:837,-1.6091,1.974,11.676,35.5591,0.2452,0.4158,-0.0027,-57.3466
16:32:15:856,-1.391,1.4351,12.521,34.726,0.2366,0.1847,0.1176,-57.2343
16:32:15:890,-1.0841,1.289,11.477,34.761,0.2441,-0.1317,0.0824,-57.122
16:32:15:895,-1.52,2.1011,9.938,34.852,0.1269,-0.088,0.0483,-57.0124
16:32:15:915,-2.159,2.738,10.4651,35.7495,-0.0329,0.2091,0.2805,-56.9063
16:32:15:936,-1.64,1.847,12.038,35.2643,-0.0223,0.2028,0.5457,-56.8055
16:32:15:956,-0.491,0.7391,11.879,34.784,0.0843,-0.1391,0.5533,-56.7154
16:32:15:976,-0.074,0.2171,10.4171,34.8907,0.2292,-0.3191,0.3839,-56.7154
16:32:15:997,-0.4211,0.2261,8.688,36.529,0.2377,-0.1968,0.2592,-56.7154
16:32:16:016,-0.972,0.1931,8.331,35.3921,0.0556,0.0579,0.2518,-56.7154
16:32:16:035,-1.3841,0.071,9.332,35.3076,-0.1522,0.1602,0.2975,-56.7154
16:32:16:055,-1.302,0.0251,9.9641,35.2211,-0.2438,0.0291,0.3381,-56.7154
16:32:16:076,-0.8381,0.243,9.524,35.2163,-0.2736,-0.1371,0.3211,-56.7154
16:32:16:095,-0.572,0.866,8.868,35.218,-0.2768,-0.1584,0.2923,-56.7154
16:32:16:115,-0.369,1.28,8.492,35.1942,-0.2768,-0.1115,0.2975,-56.7154
16:32:16:137,-0.158,1.49,8.444,36.0039,-0.2714,-0.071,0.2827,-56.7154
16:32:16:156,-0.11,1.689,8.3981,35.9666,-0.2097,-0.0433,0.2412,-56.7154
16:32:16:177,-0.222,1.869,8.2691,35.6719,-0.1244,-0.0326,0.2071,-56.7154
16:32:16:196,-0.3761,2.0171,8.001,35.1448,-0.0542,-0.071,0.1921,-56.7154
16:32:16:216,-0.414,2.1251,7.647,36.2043,-0.0382,-0.1328,0.1889,-56.7154
16:32:16:238,-0.117,2.2129,7.4291,35.4505,-0.0946,-0.186,0.1793,-56.7154
16:32:16:256,0.176,2.106,7.539,35.4022,-0.1341,-0.105,0.1048,-56.7154
16:32:16:276,-0.1001,2.273,8.391,35.7989,-0.1031,0.173,0.0047,-56.7154
16:32:16:297,-0.5501,2.3591,9.77,34.6948,-0.0073,0.4052,-0.0241,-56.7154
16:32:16:321,-0.9101,2.247,11.2331,35.998,0.0917,0.4275,-0.038,-56.7154
16:32:16:336,-0.9911,2.151,11.9351,36.0285,0.209,0.1495,-0.0166,-56.7154
16:32:16:356,-0.524,1.941,11.135,35.8542,0.2398,-0.1573,-0.0124,-56.7154
16:32:16:377,-0.359,1.782,10.725,35.6106,0.2047,-0.1775,-0.0529,-56.7154
16:32:16:396,-0.543,1.715,11.1131,36.0651,0.2398,-0.0359,-0.0359,-56.7154
16:32:16:416,-0.665,1.428,11.724,36.3719,0.2782,-0.0007,0.0047,-56.7154
16:32:16:437,-0.5411,1.4621,11.6141,36.5659,0.2644,-0.1892,0.0078,-56.7154
16:32:16:457,-0.263,1.809,10.587,36.1337,0.1301,-0.4769,0.0067,-56.7154
16:32:16:478,0.231,1.9811,9.6581,35.9155,-0.0701,-0.561,0.0206,-56.7154
16:32:16:497,0.6821,1.725,9.969,36.1175,-0.1682,-0.2414,-0.0018,-56.7154
16:32:16:517,0.605,1.091,11.846,36.9373,-0.0627,0.0729,-0.0826,-56.7154
16:32:16:538,0.251,0.621,12.617,35.9103,0.2633,0.0525,-0.2298,-56.7154
16:32:16:557,-0.653,0.918,10.6781,35.5445,0.4242,-0.169,-0.397,-56.7154
16:32:16:577,-1.19,1.785,8.762,36.654,0.2324,-0.2233,-0.3352,-56.7154
16:32:16:597,-0.8621,1.656,8.298,36.4521,-0.0542,-0.1158,-0.1189,-56.7154
16:32:16:616,0.107,0.945,8.951,36.6492,-0.2768,-0.0049,-0.0007,-56.7154
16:32:16:638,0.705,0.3341,9.6701,36.3448,-0.314,0.0184,-0.006,-56.7154
16:32:16:657,1.065,-0.0581,9.509,37.1718,-0.2586,0.0516,-0.1093,-56.7154
16:32:16:677,0.873,-0.098,9.485,36.2367,-0.2034,0.1548,-0.2724,-56.7154
16:32:16:697,0.1841,0.2171,9.698,36.6927,-0.0595,0.19,-0.3959,-56.7154
16:32:16:717,-0.261,0.8681,8.796,36.5306,0.0758,0.0217,-0.4268,-56.7154
16:32:16:738,-0.2561,1.466,7.302,37.4261,0.0502,-0.1306,-0.3981,-56.7154
16:32:16:756,-0.1391,1.838,6.545,36.9536,-0.0446,-0.1082,-0.3565,-56.7154
16:32:16:777,-0.11,2.0201,6.653,37.0756,-0.1116,0.0483,-0.2926,-56.7154
16:32:16:797,-0.258,2.063,7.3811,37.6263,-0.1224,0.2177,-0.2287,-56.7154
16:32:16:816,-0.345,1.9811,8.231,37.5318,-0.1192,0.2975,-0.1573,-56.7154
16:32:16:837,-0.381,1.902,9.2171,37.2683,-0.0968,0.3359,-0.0987,-56.7154
16:32:16:857,-0.369,1.775,10.125,37.0032,-0.0712,0.2955,-0.0539,-56.7154
16:32:16:876,-0.3611,1.6721,10.8761,36.8424,-0.0275,0.2028,-0.0252,-56.7154
16:32:16:896,-0.024,1.617,11.2211,36.7773,0.1078,0.0622,-0.0274,-56.7154
16:32:16:917,0.2171,1.718,10.263,36.743,0.2036,-0.0582,-0.1082,-56.7154
16:32:16:938,-0.1391,1.967,9.6461,37.6337,0.1962,0.0036,-0.1871,-56.7154
16:32:16:958,-1.1059,2.3621,9.945,36.8357,0.1238,0.1889,-0.1818,-56.7154
16:32:16:976,-2.052,2.496,11.178,36.8229,0.0737,0.3135,0.0323,-56.7154
16:32:16:996,-1.772,1.929,11.987,36.6355,0.0544,0.1409,0.2486,-56.7154
16:32:17:017,-0.9791,1.658,11.3981,37.1689,0.0737,-0.1627,0.2975,-56.7154
16:32:17:038,-0.713,1.7591,9.84,36.9732,0.0385,-0.1414,0.2646,-56.7154
16:32:17:057,-1.142,2.1101,10.127,37.0024,-0.0808,0.2677,0.3413,-56.7154
16:32:17:076,-1.482,1.476,11.903,37.8216,-0.1031,0.4223,0.5213,-56.7154
16:32:17:096,-0.981,0.7721,12.5741,37.9066,-0.051,0.2006,0.6247,-56.7154
16:32:17:116,-0.548,0.195,12.09,37.6289,0.0535,-0.0422,0.6225,-56.7154
16:32:17:138,-0.081,-0.4001,10.8281,37.5341,0.1173,-0.1286,0.5362,-56.7154
16:32:17:157,-0.084,-0.4601,10.022,36.2862,0.128,-0.0848,0.3583,-56.7154
16:32:17:177,-0.6731,0.1571,9.4901,37.491,0.1334,-0.0646,0.2241,-56.7154
16:32:17:197,-1.1561,0.9971,8.4011,37.2671,0.0694,-0.1541,0.2497,-56.7154
16:32:17:216,-1.008,1.416,7.3331,38.3213,-0.1266,-0.1935,0.3722,-56.7154
16:32:17:238,-0.524,1.395,7.491,38.2102,-0.3162,-0.105,0.4777,-56.7154
16:32:17:256,-0.038,1.112,8.391,38.0743,-0.3151,0.0015,0.4862,-56.7154
16:32:17:277,0.164,0.885,9.0971,38.0716,-0.1446,-0.0007,0.3924,-56.8069
16:32:17:296,0.047,0.9851,8.645,37.9933,0.0311,-0.1019,0.2294,-56.9111
16:32:17:316,-0.455,1.5791,7.8431,37.5022,0.0609,-0.1754,0.109,-57.0256
16:32:17:338,-0.783,2.0651,7.3211,37.9055,0.0289,-0.1402,0.0931,-57.1467
16:32:17:357,-0.843,2.312,7.3691,37.8824,-0.0308,-0.0326,0.1229,-57.2712
16:32:17:376,-0.6461,2.333,7.668,38.6336,-0.0786,0.0536,0.1463,-57.3975
16:32:17:397,-0.44,2.2781,8.379,37.5598,-0.0989,0.1409,0.1272,-57.5251
16:32:17:416,-0.285,2.2781,9.251,38.6678,-0.0446,0.1974,0.0877,-57.6538
16:32:17:439,-0.129,2.288,9.921,38.6075,0.063,0.1963,0.0249,-57.7832
16:32:17:456,-0.179,2.4791,10.419,37.8234,0.1716,0.1793,-0.0337,-57.9121
16:32:17:477,-0.3521,2.81,10.536,38.7141,0.2537,0.0781,-0.0337,-58.0389
16:32:17:497,-0.6011,2.913,10.11,38.6427,0.21,-0.0689,0.0312,-58.1622
16:32:17:517,-0.651,2.6561,10.0841,39.4775,0.0598,-0.1072,0.1602,-58.2818
16:32:17:540,-0.263,1.8161,11.1521,38.6076,-0.0616,-0.0678,0.254,-58.3991
16:32:17:557,0.315,1.172,12.555,39.0534,0.0151,-0.1391,0.1911,-58.5169
16:32:17:576,0.564,1.131,12.114,39.3722,0.1547,-0.348,-0.0283,-58.6372
16:32:17:598,0.095,1.893,10.958,39.069,0.1462,-0.3703,-0.2159,-58.7586
16:32:17:616,-0.383,2.364,10.697,38.9758,0.0726,-0.1445,-0.2042,-58.8769
16:32:17:639,-0.1511,1.802,11.8601,38.9388,0.096,-0.0337,-0.1295,-58.9886
16:32:17:656,0.5351,1.076,11.504,38.6592,0.2569,-0.2426,-0.1957,-59.0926
16:32:17:676,0.504,0.918,9.299,39.5208,0.3102,-0.2446,-0.3149,-59.1887
16:32:17:697,-0.1391,0.9731,8.4701,38.5335,0.0758,0.0644,-0.3149,-59.1887
16:32:17:717,-0.512,0.777,10.1051,38.3646,-0.1724,0.304,-0.1829,-59.1887
16:32:17:740,-0.215,0.231,11.702,38.1128,-0.2097,0.2432,-0.0817,-59.1887
16:32:17:756,0.294,-0.276,11.6141,37.8249,-0.1235,-0.0487,-0.1508,-59.1887
16:32:17:777,0.3731,0.1571,10.0721,37.5912,-0.0712,-0.2606,-0.3256,-59.1887
16:32:17:796,-0.036,0.921,8.892,38.9068,-0.0126,-0.2403,-0.3853,-59.1887
16:32:17:816,-0.122,1.2581,7.874,37.6859,0.0417,-0.1679,-0.3608,-59.1887
16:32:17:839,-0.155,1.56,7.0361,38.4713,0.014,-0.1541,-0.3447,-59.1887
16:32:17:856,-0.261,1.938,6.588,38.4082,-0.0659,-0.1391,-0.3043,-59.1887
16:32:17:877,-0.002,2.063,6.804,38.227,-0.1372,-0.087,-0.234,-59.1887
16:32:17:910,0.2981,1.974,7.5581,37.432,-0.1469,-0.0081,-0.2201,-59.1887
16:32:17:916,0.0851,2.118,8.312,37.4386,-0.084,0.076,-0.217,-59.1887
16:32:17:936,-0.629,2.319,9.09,38.5872,0.014,0.0718,-0.0678,-59.1887
16:32:17:957,-0.558,2.168,9.231,38.3674,-0.0349,-0.0657,0.0696,-59.1887
16:32:17:977,-0.0641,1.646,9.636,38.3884,-0.0573,-0.1882,0.1452,-59.1887
16:32:17:996,0.449,1.385,9.665,39.3499,0.0492,-0.2819,0.1059,-59.1887
16:32:18:016,0.629,1.7441,8.7431,38.3154,0.0822,-0.1892,0.0408,-59.1887
16:32:18:038,0.308,1.9811,9.224,38.1656,0.0183,0.1963,0.0206,-59.1887
16:32:18:056,-0.357,2.022,10.728,38.8092,-0.0137,0.4595,0.0568,-59.1887
16:32:18:077,-0.522,1.8851,12.021,38.7136,-0.0488,0.4317,0.1239,-59.1887
16:32:18:098,-0.4091,1.658,12.5981,38.613,-0.0019,0.1517,0.1282,-59.1887
16:32:18:117,-0.249,1.967,11.405,37.4995,0.0439,-0.0806,0.0877,-59.1887
16:32:18:139,-0.6371,2.345,10.3091,37.6137,-0.0477,0.0099,0.109,-59.1887
16:32:18:157,-1.0271,2.424,11.154,38.9893,-0.1617,0.2699,0.272,-59.1887
16:32:18:177,-0.831,1.581,12.737,38.341,-0.1277,0.2688,0.4393,-59.1887
16:32:18:197,-0.057,0.636,12.753,38.3019,0.0268,-0.0487,0.4371,-59.1887
16:32:18:216,0.282,0.317,10.872,38.3056,0.2164,-0.2787,0.2838,-59.1887
16:32:18:240,-0.098,0.375,8.664,38.264,0.2771,-0.0987,0.1761,-59.1887
16:32:18:256,-0.771,0.224,8.087,38.8076,0.0896,0.2284,0.1793,-59.1887
16:32:18:277,-1.305,0.1421,9.471,37.9152,-0.1096,0.3774,0.2326,-59.1887
16:32:18:296,-1.455,0.248,10.3091,38.8196,-0.1821,0.2049,0.2975,-59.1887
16:32:18:318,-1.0031,0.554,9.684,38.5831,-0.2512,-0.1423,0.2975,-59.1887
16:32:18:340,-0.4241,1.2731,8.7889,39.2057,-0.2875,-0.2563,0.2634,-59.1887
16:32:18:356,-0.11,1.514,8.058,37.745,-0.215,-0.186,0.2326,-59.1887
16:32:18:377,-0.0191,1.763,7.388,37.6977,-0.1895,-0.0785,0.1655,-59.1887
16:32:18:398,-0.261,1.998,7.508,38.2029,-0.1915,0.0494,0.1165,-59.1887
16:32:18:417,-0.608,2.091,8.226,38.1829,-0.1298,0.1655,0.1005,-59.283
16:32:18:441,-0.8381,2.192,8.7221,38.1457,-0.0531,0.1261,0.1059,-59.3801
16:32:18:457,-0.728,2.2091,8.7431,37.8151,-0.0104,-0.0155,0.1133,-59.4788
16:32:18:478,-0.464,2.2301,8.31,37.8273,-0.0019,-0.0913,0.1037,-59.5787
16:32:18:496,-0.227,2.2421,8.2039,37.8273,-0.0115,0.0004,0.0792,-59.6795
16:32:18:518,-0.3161,2.2421,8.877,37.8151,0.0407,0.1613,0.0388,-59.7809
16:32:18:540,-0.558,2.309,9.5621,37.7711,0.128,0.2486,-0.007,-59.8822
16:32:18:557,-0.986,2.553,10.0931,37.0533,0.1877,0.2156,-0.0146,-59.9822
16:32:18:576,-1.226,2.618,10.242,37.0698,0.2175,0.0909,0.0622,-60.0798
16:32:18:597,-1.2071,2.324,10.242,37.0954,0.1781,0.0036,0.1645,-60.1748
16:32:18:617,-0.972,1.823,10.7351,37.0211,0.1269,0.0536,0.223,-60.2687
16:32:18:637,-0.668,1.416,11.405,37.7956,0.1397,0.1187,0.2305,-60.3635
16:32:18:656,-0.132,1.182,11.982,38.211,0.2846,0.2369,0.1655,-60.4608
16:32:18:677,-0.215,1.682,11.4701,38.5542,0.3378,0.0707,0.0749,-60.5611
16:32:18:696,-0.347,2.357,10.4291,37.6519,0.0236,-0.2478,0.0622,-60.6634
16:32:18:717,-0.002,2.2331,11.097,36.9722,-0.279,-0.2648,0.1101,-60.7664
16:32:18:736,0.3101,1.3751,13.043,37.9211,-0.0894,-0.1275,0.0962,-60.8701
16:32:18:757,0.909,0.6521,12.404,37.0506,0.3421,-0.1818,-0.0487,-60.9747
16:32:18:776,0.5861,0.743,9.911,37.8626,0.4657,-0.2244,-0.2809,-61.0789
16:32:18:796,-0.206,1.3181,8.372,37.7123,0.2537,-0.0859,-0.3234,-61.1789
16:32:18:817,-0.357,1.251,8.669,37.4897,-0.0851,0.0771,-0.1892,-61.2701
16:32:18:837,0.0161,0.6,9.983,37.9745,-0.2992,0.0994,-0.0902,-61.2701
16:32:18:857,0.6071,0.059,10.764,37.1967,-0.2736,0.0227,-0.1062,-61.2701
16:32:18:876,0.966,-0.1991,10.2611,37.9213,-0.1873,-0.0689,-0.2659,-61.2701
16:32:18:897,0.531,0.236,9.813,36.9184,-0.115,-0.055,-0.4502,-61.2701
16:32:18:917,-0.1241,0.9641,9.33,38.1905,0.0246,-0.0368,-0.5024,-61.2701
16:32:18:941,-0.263,1.395,8.0771,37.8321,0.0556,-0.1253,-0.463,-61.2701
16:32:18:958,-0.143,1.689,7.335,38.368,-0.0254,-0.1701,-0.4151,-61.2701
16:32:18:977,-0.179,1.9001,7.17,36.6546,-0.0616,-0.0987,-0.3597,-61.2701
16:32:18:997,-0.105,1.95,7.407,37.277,-0.0553,0.0622,-0.2958,-61.2701
16:32:19:017,-0.038,2.015,8.046,37.2526,-0.0286,0.1485,-0.2639,-61.2701
16:32:19:040,-0.021,2.139,8.394,37.8634,-0.0488,0.1346,-0.2307,-61.2701
16:32:19:056,0.035,2.07,9.081,37.1272,-0.0638,0.1409,-0.2062,-61.2701
16:32:19:076,-0.048,2.113,9.751,37.7782,-0.001,0.1229,-0.1914,-61.2701
16:32:19:096,0.057,2.166,10.2611,37.492,0.1141,0.0622,-0.1658,-61.2701
16:32:19:116,0.447,2.1799,9.947,38.2175,0.2164,-0.1019,-0.1881,-61.2701
16:32:19:136,0.576,2.3021,9.035,37.1593,0.2452,-0.1605,-0.2767,-61.2701
16:32:19:157,0.0281,2.4431,8.757,36.567,0.2633,0.0312,-0.3543,-61.2701
16:32:19:178,-1.056,2.7641,9.021,37.2546,0.2366,0.2592,-0.2989,-61.2701
16:32:19:196,-1.5851,2.723,10.046,37.3094,0.0832,0.2838,-0.0837,-61.2701
16:32:19:216,-1.0271,2.149,11.0891,37.2395,-0.0434,0.0803,0.0696,-61.1728
16:32:19:236,-0.5501,2.0749,11.166,37.189,-0.0425,-0.0465,0.0312,-61.0732
16:32:19:256,-1.142,2.687,10.445,37.9643,-0.0701,0.0355,0.01,-60.9746
16:32:19:276,-1.5851,2.984,11.1761,37.2203,-0.3151,0.2251,0.1495,-60.8783
16:32:19:296,-1.6421,2.355,13.859,37.2246,-0.3748,0.1921,0.3359,-60.7852
16:32:19:316,-0.725,1.205,14.7191,37.1811,-0.0733,-0.1019,0.3647,-60.7852
16:32:19:337,-0.222,0.743,12.993,36.9948,0.3154,-0.2841,0.2124,-60.7852
16:32:19:359,-0.3731,0.897,10.326,36.5207,0.5627,-0.3267,0.1048,-60.7852
16:32:19:377,-0.57,0.9761,7.778,37.7198,0.454,-0.2287,0.1155,-60.7852
16:32:19:396,-0.7421,0.813,7.6871,37.4101,0.1226,0.0686,0.173,-60.7852
16:32:19:417,-0.9791,0.4901,9.423,38.0743,-0.0062,0.2166,0.2369,-60.7852
16:32:19:437,-0.792,0.3791,9.5981,38.0969,0.0012,0.1027,0.2753,-60.7852
16:32:19:458,-0.428,0.4901,8.8961,37.4681,-0.1096,-0.104,0.2412,-60.7852
16:32:19:477,-0.1031,0.803,8.4581,36.6178,-0.1884,-0.1764,0.1804,-60.7852
16:32:19:496,0.023,1.0811,8.027,36.5936,-0.133,-0.104,0.1229,-60.7852
16:32:19:517,-0.081,1.416,7.323,37.5402,-0.1096,-0.0411,0.0622,-60.7852
16:32:19:536,-0.3611,1.857,7.058,37.1031,-0.1628,-0.0038,0.0388,-60.7852
16:32:19:558,-0.474,2.168,6.933,37.1426,-0.2289,0.0067,0.059,-60.7852
16:32:19:576,-0.395,2.333,7.058,37.1776,-0.2896,0.0749,0.0792,-60.7852
16:32:19:597,-0.524,2.319,7.556,37.0163,-0.2833,0.1474,0.0738,-60.7852
16:32:19:615,-0.768,2.364,7.9001,37.716,-0.2566,0.2305,0.0877,-60.7852
16:32:19:636,-1.1951,2.462,8.669,36.8985,-0.2416,0.3018,0.1357,-60.7852
16:32:19:658,-1.269,2.508,9.294,36.6899,-0.1756,0.206,0.2017,-60.7852
16:32:19:676,-1.044,2.4071,9.48,36.6218,-0.166,0.0408,0.2241,-60.7852
16:32:19:697,-0.713,2.348,9.8921,37.5256,-0.1011,-0.07,0.1804,-60.7852
16:32:19:716,-0.555,2.448,9.591,36.6786,-0.003,-0.1391,0.107,-60.7852
16:32:19:737,-0.7091,2.544,9.021,36.9137,-0.0265,-0.1125,0.0632,-60.7852
16:32:19:758,-0.8831,2.3741,9.363,36.9269,-0.1361,0.0558,0.0781,-60.7852
16:32:19:775,-0.993,1.9721,10.8401,36.8757,-0.2204,0.2039,0.1272,-60.7852
16:32:19:796,-0.761,1.454,12.524,37.5443,-0.1383,0.1815,0.1101,-60.7852
16:32:19:816,-0.606,1.419,12.77,36.8263,0.0311,-0.0274,-0.039,-60.7852
16:32:19:837,-0.795,2.28,11.276,36.8149,-0.0275,-0.2042,-0.1636,-60.7852
16:32:19:858,-1.161,2.661,11.1161,38.2508,-0.2438,-0.0891,-0.0742,-60.7852
16:32:19:877,-0.747,1.7681,12.65,37.4209,-0.2864,0.1239,0.0814,-60.7852
16:32:19:897,-0.165,0.602,14.226,37.4077,0.0257,0.0269,0.0729,-60.7852
16:32:19:919,0.198,-0.065,12.0041,37.8433,0.4114,-0.3523,-0.0923,-60.7852
16:32:19:936,-0.017,0.315,8.5181,37.8925,0.323,-0.4865,-0.2265,-60.7852
16:32:19:956,-0.455,0.9881,7.184,38.8193,-0.0818,-0.2468,-0.1722,-60.7852
16:32:19:977,-0.3851,0.8561,8.597,39.4449,-0.393,0.1016,0.0302,-60.7852
16:32:19:996,0.1571,0.059,10.29,38.7766,-0.4419,0.1793,0.1196,-60.7852
16:32:20:017,0.7271,-0.35,10.6541,38.6562,-0.3908,0.026,0.0312,-60.7852
16:32:20:037,0.705,-0.299,10.17,39.1108,-0.2907,-0.0987,-0.1391,-60.7852
16:32:20:060,0.3371,0.123,9.188,38.7441,-0.1671,-0.0795,-0.267,-60.7852
16:32:20:076,-0.1601,0.4991,8.465,38.6636,-0.1022,0.044,-0.2926,-60.7852
16:32:20:097,-0.333,0.65,8.58,38.5163,-0.0883,0.0942,-0.2628,-60.7852
16:32:20:116,-0.234,0.806,8.4611,39.2792,-0.036,-0.0368,-0.2457,-60.7852
16:32:20:136,-0.033,1.126,7.6301,39.2216,-0.0041,-0.1573,-0.2457,-60.7852
16:32:20:156,0.093,1.488,7.1771,38.9018,-0.0041,-0.1125,-0.2255,-60.7852
16:32:20:176,0.291,1.632,7.242,39.2404,-0.0052,0.044,-0.1924,-60.7852
16:32:20:195,0.303,1.658,7.8521,40.0499,-0.0169,0.1826,-0.1838,-60.7852
16:32:20:217,0.138,1.73,8.8271,39.9877,-0.0318,0.2273,-0.1722,-60.7852
16:32:20:237,0.042,1.677,9.6911,39.8038,-0.0126,0.2273,-0.1477,-60.7852
16:32:20:257,0.14,1.452,10.6301,38.6915,0.047,0.2049,-0.1402,-60.7852
16:32:20:276,0,1.284,11.051,40.4156,0.1525,0.0952,-0.1924,-60.7852
16:32:20:297,-0.1721,1.0811,11.037,39.9115,0.1919,-0.0529,-0.2606,-60.7852
16:32:20:317,-0.534,1.2011,10.9511,39.9684,0.1482,-0.1903,-0.3267,-60.7852
16:32:20:337,-1.1111,1.476,10.9481,39.8975,0.0843,-0.1818,-0.2767,-60.7852
16:32:20:358,-1.3331,1.8401,11.1731,40.8778,0.0374,-0.0444,-0.1243,-60.7852
16:32:20:377,-1.2641,1.7081,11.027,40.8871,0.0023,0.0238,0.0164,-60.7852
16:32:20:397,-1.25,1.8521,10.7591,40.0421,-0.1735,0.0781,0.1187,-60.7852
16:32:20:417,-1.367,1.9691,11.42,39.9692,-0.3674,0.1997,0.2773,-60.7852
16:32:20:436,-0.938,1.134,13.421,39.8596,-0.3439,0.2102,0.4265,-60.7852
16:32:20:457,-0.0551,0.092,13.8,40.4201,0.0417,-0.0742,0.3893,-60.7852
16:32:20:478,0.155,-0.0701,10.931,40.4229,0.3847,-0.3352,0.1783,-60.7852
16:32:20:497,-0.486,0.425,7.9751,41.3929,0.3921,-0.1925,0.0622,-60.7852
16:32:20:516,-1.3481,0.7121,7.467,41.2942,0.1206,0.1517,0.1239,-60.7852
16:32:20:536,-1.8341,0.5351,8.961,40.4149,-0.1383,0.2657,0.3146,-60.7852
16:32:20:557,-1.451,0.2051,9.7991,41.106,-0.1852,0.1645,0.4521,-60.7852
16:32:20:577,-0.857,0.152,9.4181,40.7766,-0.2267,-0.0529,0.4649,-60.7852
16:32:20:598,-0.381,0.53,8.726,41.112,-0.2938,-0.1722,0.4488,-60.7852
16:32:20:617,0.026,0.636,8.7889,41.6045,-0.2799,-0.0582,0.4351,-60.7852
16:32:20:637,0.191,0.6401,9.1091,41.575,-0.1628,0.0132,0.3647,-60.7852
16:32:20:657,0.083,0.8201,9.035,41.5765,-0.036,-0.0529,0.2699,-60.7852
16:32:20:678,-0.086,1.064,8.7101,41.57,0.0704,-0.1849,0.1858,-60.7852
16:32:20:697,-0.287,1.3751,7.9871,42.0782,0.1706,-0.217,0.1282,-60.7852
16:32:20:716,-0.534,1.727,7.493,42.0919,0.1951,-0.1232,0.1239,-60.7852
16:32:20:737,-0.4601,1.8281,7.608,42.5026,0.1269,-0.0785,0.1698,-60.7852
16:32:20:757,-0.201,1.7441,8.18,41.9846,0.0726,-0.0742,0.1772,-60.7852
16:32:20:776,-0.1121,1.6391,8.963,41.9051,0.08,-0.0252,0.1537,-60.7852
16:32:20:797,-0.0191,1.644,9.9761,42.8597,0.1514,0.0164,0.107,-60.7852
16:32:20:816,-0.05,1.842,10.275,42.8027,0.2409,-0.0294,0.061,-60.8776
16:32:20:837,0,2.06,9.9311,42.7171,0.2388,-0.0785,0.0451,-60.9713
16:32:20:859,-0.105,2.142,9.969,42.7719,0.1408,-0.0241,0.0291,-61.0653
16:32:20:878,-0.395,1.986,10.8911,42.7661,0.0109,0.0525,0.0217,-61.1586
16:32:20:897,-0.3611,1.682,12.5021,42.7661,-0.0584,0.0345,0.0175,-61.2509
16:32:20:916,-0.074,1.478,13.469,42.7661,0.0971,-0.0476,-0.0752,-61.3414
16:32:20:937,-0.3611,1.85,12.375,43.8139,0.2005,-0.1775,-0.2062,-61.3414
16:32:20:957,-0.768,2.178,11.753,43.4503,0.0492,-0.1391,-0.1881,-61.3414
16:32:20:975,-0.795,1.352,13.455,43.4999,0.1248,-0.0198,-0.0615,-61.3414
16:32:20:996,0.1331,-0.132,12.8081,43.0308,0.5999,-0.1125,-0.0667,-61.3414
16:32:21:016,0.207,-0.419,9.732,43.6287,0.7958,-0.2446,-0.2872,-61.3414
16:32:21:037,-0.464,0.545,6.828,43.1465,0.5541,-0.2318,-0.364,-61.3414
16:32:21:059,-0.974,1.2131,5.774,42.9651,-0.0297,0.0644,-0.2094,-61.3414
16:32:21:076,-0.7061,0.945,7.5791,43.8792,-0.5559,0.3765,0.0686,-61.3414
16:32:21:097,0.09,0.1091,10.0601,43.426,-0.72,0.5298,0.2188,-61.3414
16:32:21:117,0.804,-0.74,11.441,43.3281,-0.5485,0.5075,0.1548,-61.3414
16:32:21:137,0.926,-0.8501,10.998,42.8894,-0.3641,0.287,-0.1019,-61.3414
16:32:21:159,0.332,0.128,9.981,42.6113,-0.3311,0.0206,-0.3032,-61.3414
16:32:21:177,-0.234,0.806,9.141,42.2691,-0.2555,-0.0976,-0.3074,-61.3414
16:32:21:197,-0.249,1.076,8.417,42.0253,-0.1958,-0.1391,-0.2681,-61.3414
16:32:21:218,-0.2441,1.407,7.8641,41.8912,-0.1479,-0.1381,-0.2329,-61.3414
16:32:21:236,-0.1241,1.644,7.5101,41.8758,-0.0989,-0.0529,-0.1733,-61.3414
16:32:21:260,0.227,1.502,7.9001,40.8681,-0.0308,0.0312,-0.1434,-61.3414
16:32:21:276,0.344,1.3301,7.8281,41.3603,0.0417,-0.0188,-0.1838,-61.3414
16:32:21:296,0.3341,1.4261,7.5941,41.8071,0.0342,0.0067,-0.2318,-61.3414
16:32:21:316,0.131,1.5551,8.13,41.8127,-0.0115,0.1869,-0.2435,-61.3414
16:32:21:337,0.071,1.452,9.684,41.8217,0.0203,0.3988,-0.219,-61.3414
16:32:21:356,0.2171,1.136,10.8,40.9364,0.159,0.3722,-0.2563,-61.3414
16:32:21:377,0.126,1.208,10.275,41.7157,0.275,0.1878,-0.3554,-61.3414
16:32:21:397,-0.668,1.644,9.648,41.6627,0.1823,0.1698,-0.3938,-61.3414
16:32:21:416,-1.3691,1.727,10.4621,40.7984,-0.0755,0.223,-0.2659,-61.3414
16:32:21:437,-1.0841,1.38,12.033,42.0933,-0.1702,0.2634,-0.1423,-61.3414
16:32:21:459,-0.6491,1.103,12.83,42.0692,-0.0392,0.1878,-0.1616,-61.3414
16:32:21:477,-1.142,1.344,12.095,40.6077,0.0598,0.0718,-0.2255,-61.3414
16:32:21:497,-2.25,1.907,11.3501,41.1126,-0.0403,0.043,-0.1104,-61.3414
16:32:21:516,-2.727,2.043,11.789,41.1419,-0.2438,0.0302,0.2369,-61.3414
16:32:21:537,-1.7,0.815,12.974,42.0351,-0.2694,-0.0976,0.5405,-61.3414
16:32:21:560,-0.416,-0.39,13.077,41.9741,0.045,-0.3086,0.5298,-61.3414
16:32:21:577,-0.048,-0.764,10.4051,41.5417,0.3751,-0.5471,0.3211,-61.3414
16:32:21:596,-0.567,-0.2321,7.457,42.822,0.3336,-0.4311,0.1665,-61.3414
16:32:21:617,-1.178,0.1541,6.636,41.7048,0.0396,-0.0828,0.1783,-61.3414
16:32:21:637,-1.4651,0.1781,7.704,41.677,-0.2534,0.1357,0.3009,-61.3414
16:32:21:660,-1.163,-0.062,8.621,41.3476,-0.3567,0.0931,0.3945,-61.3414
16:32:21:678,-0.5891,0.0491,8.382,42.3023,-0.3908,-0.0635,0.4297,-61.3414
16:32:21:698,0.253,0.1901,7.9151,42.2689,-0.4643,-0.1423,0.402,-61.3414
16:32:21:717,0.6191,0.437,7.809,41.2334,-0.5155,-0.0763,0.3061,-61.3414
16:32:21:737,0.3971,0.731,8.283,41.0751,-0.4845,0.0835,0.223,-61.3414
16:32:21:760,0.0041,0.899,9.117,40.8906,-0.3567,0.1954,0.1676,-61.3414
16:32:21:777,-0.309,0.9611,9.864,41.6088,-0.133,0.0974,0.1207,-61.3414
16:32:21:796,-0.3251,1.1381,9.203,40.681,0.0055,-0.1456,0.076,-61.3414
16:32:21:816,-0.237,1.3541,8.3861,41.6904,0.0076,-0.2617,0.0388,-61.3414
16:32:21:836,-0.1361,1.349,8.087,40.57,0.0172,-0.1935,-0.0038,-61.3414
16:32:21:856,-0.0431,1.3061,8.085,40.4942,0.0289,-0.0604,-0.0657,-61.3414
16:32:21:877,-0.179,1.407,8.6351,41.4678,0.0044,0.0909,-0.1391,-61.3414
16:32:21:897,-0.287,1.452,9.9401,40.5488,0.0342,0.2305,-0.1903,-61.3414
16:32:21:924,-0.4481,1.3661,10.91,40.262,0.1525,0.2262,-0.2596,-61.3414
16:32:21:936,-0.888,1.4711,10.769,41.1984,0.2569,0.0494,-0.3063,-61.3414
16:32:21:956,-1.1591,1.9241,9.768,40.1946,0.1716,-0.0615,-0.2861,-61.3414
16:32:21:976,-1.463,2.201,9.902,40.1764,-0.0786,0.0089,-0.1371,-61.3414
16:32:21:996,-1.075,1.5,11.537,41.0894,-0.2757,0.0323,0.0377,-61.3414
16:32:22:016,-0.074,0.621,13.421,41.4444,-0.2768,-0.2287,-0.0316,-61.3414
16:32:22:036,0.176,0.9641,13.0931,41.0961,-0.1841,-0.5056,-0.2307,-61.3414
16:32:22:056,-0.017,1.6481,12.6311,40.8394,-0.2214,-0.3873,-0.2926,-61.3414
16:32:22:077,-0.182,0.99,14.678,40.6289,-0.0553,-0.0593,-0.2244,-61.3414
16:32:22:097,-0.1601,-0.146,14.721,40.3854,0.5285,-0.0678,-0.2563,-61.3414
16:32:22:117,0.093,-0.7091,11.609,40.0678,0.9152,-0.1381,-0.3736,-61.3414
16:32:22:137,-0.323,0.006,8.499,39.7133,0.9206,-0.0113,-0.4843,-61.3414
16:32:22:160,-0.728,0.578,6.792,41.0483,0.5178,0.1687,-0.3884,-61.3414
16:32:22:176,-0.3131,0.5179,7.577,40.108,0.0246,0.3018,-0.2074,-61.3414
16:32:22:197,0.128,-0.0941,8.9831,40.0428,-0.1213,0.4351,-0.1093,-61.3414
16:32:22:217,0.296,-0.378,9.564,40.7174,-0.0371,0.4883,-0.0806,-61.3414
16:32:22:237,0.267,-0.4721,8.987,40.0287,-0.0414,0.3305,-0.1402,-61.3414
16:32:22:256,0.152,-0.371,8.564,39.838,-0.1884,0.1506,-0.2414,-61.3414
16:32:22:277,-0.282,0.054,8.6141,40.2373,-0.1926,0.1548,-0.3128,-61.3414
16:32:22:297,-0.6731,0.5141,8.7431,39.6605,-0.0446,0.2795,-0.2713,-61.3414
16:32:22:317,-0.773,0.6401,8.9321,41.1309,0.0865,0.2933,-0.2042,-61.2482
16:32:22:337,-0.6221,0.866,8.504,40.4608,0.1557,0.0269,-0.1818,-61.1494
16:32:22:357,-0.141,1.2221,7.613,39.4711,0.1121,-0.1797,-0.1829,-61.0459
16:32:22:376,0.0881,1.34,7.175,40.5126,0.1045,-0.1594,-0.219,-60.9385
16:32:22:396,-0.1751,1.622,7.065,40.9946,0.1291,0.0644,-0.2435,-60.8273
16:32:22:416,-0.744,1.9091,7.757,41.0169,0.0811,0.3125,-0.1838,-60.7118
16:32:22:436,-1.2071,1.962,9.392,40.2327,0.0055,0.4371,-0.0624,-60.5923
16:32:22:456,-1.029,1.526,11.223,40.1703,0.047,0.3338,0.0483,-60.47
16:32:22:477,-0.665,1.115,11.19,40.0799,0.1983,-0.039,0.0184,-60.348
16:32:22:496,-0.737,1.428,9.516,40.0799,0.2133,-0.1712,-0.0326,-60.2281
16:32:22:517,-1.29,1.584,8.7071,40.0614,0.0502,0.0899,0.0184,-60.1106
16:32:22:537,-1.685,1.2941,10.196,40.6924,-0.1756,0.3637,0.1537,-59.9955
16:32:22:557,-1.635,0.7271,12.1121,40.5266,-0.1895,0.3466,0.2262,-59.8846
16:32:22:577,-1.4291,0.5351,11.9921,39.7839,-0.0531,0.0994,0.1409,-59.7806
16:32:22:596,-2.078,1.397,10.658,39.179,-0.1607,-0.006,0.0803,-59.6848
16:32:22:617,-3.0791,2.1581,11.3,40.6058,-0.4493,0.1079,0.2966,-59.6848
16:32:22:637,-2.681,1.481,13.4981,40.3431,-0.5079,0.1282,0.6566,-59.6848
16:32:22:661,-1.247,-0.024,14.034,40.3158,-0.2171,-0.0923,0.8069,-59.6848
16:32:22:676,-0.057,-1.0151,12.2771,40.47,0.0578,-0.3745,0.5926,-59.6848
16:32:22:697,-0.282,-1.097,10.4,40.2764,0.1706,-0.2414,0.2944,-59.6848
16:32:22:716,-1.4651,-0.8621,10.01,40.1372,0.1684,0.0419,0.1517,-59.6848
16:32:22:737,-2.0419,-0.513,10.1441,40.1759,0.0758,0.0334,0.2006,-59.6848
16:32:22:757,-1.5701,-0.548,10.182,40.0882,-0.0605,-0.267,0.2145,-59.6848
16:32:22:777,-0.881,-0.402,10.029,41.1418,-0.067,-0.6335,0.1293,-59.6848
16:32:22:796,-0.728,0.4541,8.813,39.3229,0.0544,-0.7708,0.0419,-59.6848
16:32:22:817,-0.8741,1.229,7.532,38.78,0.1653,-0.6931,0.0984,-59.6848
16:32:22:837,-0.713,1.4741,6.3461,39.9829,0.194,-0.5386,0.1858,-59.6848
16:32:22:859,-0.6731,1.6841,5.8481,39.8873,0.1749,-0.3043,0.239,-59.6848
16:32:22:877,-0.7301,1.7441,5.856,39.9884,0.1632,-0.055,0.2773,-59.6848
16:32:22:896,-0.8351,1.809,6.2081,39.9366,0.0993,0.1005,0.3029,-59.6848
16:32:22:916,-0.9221,1.907,6.732,39.8607,0.0417,0.1741,0.3637,-59.6848
16:32:22:937,-0.701,1.701,6.959,39.8643,0.0225,0.2358,0.4201,-59.6848
16:32:22:959,-0.294,1.409,7.067,40.5832,0.0203,0.37,0.3902,-59.6848
16:32:22:978,0.021,1.5221,7.649,39.7975,-0.0084,0.6054,0.2762,-59.7762
16:32:22:996,-0.234,1.6841,9.315,40.4961,-0.051,0.7248,0.1591,-59.8769
16:32:23:016,-0.503,1.6361,10.9271,39.7657,0.045,0.6821,0.0675,-59.9847
16:32:23:036,-0.761,1.7231,11.4011,40.2528,0.1642,0.5884,-0.0155,-60.0966
16:32:23:056,-1.142,1.9481,11.592,40.3263,0.1291,0.4723,-0.0646,-60.2097
16:32:23:078,-1.578,2.034,12.114,39.4294,0.0076,0.3178,-0.0294,-60.3211
16:32:23:096,-1.3961,1.869,12.842,39.3103,-0.0605,0.0846,0.0195,-60.4292
16:32:23:116,-1.245,1.8761,12.6941,39.3031,-0.0456,-0.184,-0.0103,-60.5341
16:32:23:137,-1.0991,2.151,11.8481,40.2163,-0.0808,-0.2989,-0.0678,-60.6363
16:32:23:157,-1.178,2.453,11.444,39.2189,-0.1446,-0.1616,-0.0507,-60.7351
16:32:23:179,-1.2281,1.9091,12.8801,39.2275,-0.1192,0.0994,0.0291,-60.8299
16:32:23:197,-0.938,0.6641,13.613,39.3207,0.2633,0.0175,0.0525,-60.9214
16:32:23:216,-0.7901,-0.041,10.994,39.3119,0.5732,-0.234,-0.0763,-60.9214
16:32:23:237,-1.116,0.717,8.051,39.0723,0.4177,-0.3086,-0.1829,-60.9214
16:32:23:257,-1.6211,1.265,6.909,39.568,-0.0254,-0.087,-0.0635,-60.9214
16:32:23:278,-1.724,1.1771,8.133,39.5771,-0.4803,0.1858,0.1858,-60.9214
16:32:23:297,-1.305,0.461,9.8441,38.7477,-0.6742,0.3711,0.436,-60.9214
16:32:23:318,-0.747,-0.398,10.74,38.6374,-0.6731,0.4616,0.5075,-60.9214
16:32:23:336,-0.342,-0.972,11.3741,39.3689,-0.5622,0.3945,0.3967,-61.0172
16:32:23:357,-0.234,-1.212,11.13,38.5517,-0.3013,0.1761,0.1548,-61.1245
16:32:23:378,-0.194,-0.8411,9.612,38.4375,-0.0627,-0.1125,-0.1264,-61.2414
16:32:23:396,-0.4091,0.083,7.7111,38.3885,0.0012,-0.2819,-0.331,-61.3627
16:32:23:417,-0.749,0.696,6.9641,38.2733,-0.0147,-0.2606,-0.3862,-61.4812
16:32:23:436,-0.6941,1.088,6.636,38.2145,0.0151,-0.1136,-0.3778,-61.5912
16:32:23:456,-0.5891,1.323,7.038,38.1899,0.0194,0.0473,-0.3267,-61.6893
16:32:23:475,-0.78,1.454,7.6511,39.0422,0.0322,0.0696,-0.2767,-61.6893
16:32:23:496,-0.8831,1.5221,7.953,39.0184,-0.034,-0.0007,-0.2009,-61.6893
16:32:23:517,-0.764,1.1981,9.167,38.0641,-0.1224,-0.0465,-0.1499,-61.6893
16:32:23:537,-0.539,0.662,10.587,38.0369,0.0076,0.0249,-0.1722,-61.6893
16:32:23:557,-0.4361,0.411,11.465,38.0249,0.3091,0.158,-0.2446,-61.6893
16:32:23:578,-0.5771,0.538,10.998,38.1829,0.5093,0.092,-0.349,-61.6893
16:32:23:597,-1.199,0.894,10.01,38.1655,0.439,-0.055,-0.3927,-61.6893
16:32:23:617,-1.8461,1.115,9.641,38.2319,0.2676,-0.0433,-0.3128,-61.6893
16:32:23:637,-2.0231,1.083,9.969,38.2423,0.113,0.0962,-0.1701,-61.6893
16:32:23:657,-1.953,1.035,10.613,38.2294,0.0161,0.1495,-0.0891,-61.6893
16:32:23:679,-2.193,1.383,10.541,37.4054,-0.0733,0.1068,-0.0305,-61.6893
16:32:23:696,-2.703,1.8641,10.0571,37.4259,-0.2768,0.1293,0.125,-61.6893
16:32:23:716,-2.748,1.9481,11.0081,37.3697,-0.5389,0.3211,0.4084,-61.6893
16:32:23:736,-2.08,0.923,13.3571,36.5354,-0.5101,0.3487,0.6406,-61.6893
16:32:23:757,-0.9671,-0.4721,13.7921,36.7025,-0.133,-0.0283,0.5959,-61.6893
16:32:23:778,-0.4481,-0.551,10.8041,37.6562,0.1621,-0.4449,0.3051,-61.6893
16:32:23:797,-1.424,0.1931,8.1251,36.7509,0.1493,-0.3682,0.1389,-61.6893
16:32:23:816,-2.363,0.4991,7.536,36.5909,-0.0712,0.061,0.2634,-61.6893
16:32:23:837,-2.564,0.164,9.1361,36.602,-0.2896,0.3381,0.4829,-61.6893
16:32:23:856,-1.956,-0.2561,10.151,36.5811,-0.3823,0.2486,0.5959,-61.6893
16:32:23:879,-1.3121,-0.347,10.0811,35.7268,-0.4175,-0.007,0.567,-61.6893
16:32:23:896,-0.689,-0.0221,9.311,35.6523,-0.3844,-0.1669,0.4777,-61.7857
16:32:23:934,-0.414,0.332,8.394,35.5873,-0.3237,-0.1636,0.3732,-61.898
16:32:23:935,-0.495,0.731,7.838,35.0586,-0.2395,-0.0529,0.287,-62.0246
16:32:23:956,-0.759,1.0091,7.539,35.8226,-0.1458,0.0622,0.2336,-62.1628
16:32:23:977,-1.0391,1.244,7.455,35.8133,-0.1074,0.0952,0.2028,-62.3097
16:32:23:996,-1.0031,1.2461,7.8641,35.811,-0.0349,0.0323,0.1826,-62.4629
16:32:24:017,-0.749,1.347,7.6631,34.4809,0.0524,-0.0188,0.1079,-62.6206
16:32:24:037,-0.728,1.4861,7.9241,34.9887,0.1226,-0.0113,0.0153,-62.7808
16:32:24:056,-0.795,1.589,8.24,34.4793,0.1792,0.011,-0.0454,-62.941
16:32:24:076,-0.761,1.6271,8.9111,34.4978,0.1812,0.0664,-0.103,-63.0985
16:32:24:096,-1.151,1.725,9.902,34.4978,0.1291,0.0291,-0.1338,-63.251
16:32:24:116,-1.35,1.7111,10.359,34.4978,0.0789,-0.1584,-0.0987,-63.3965
16:32:24:138,-1.0961,1.562,10.2251,33.604,0.0417,-0.1328,-0.0752,-63.5345
16:32:24:156,-1.412,1.301,11.4101,33.6069,0.0609,0.19,-0.0891,-63.6653
16:32:24:177,-1.949,1.2701,12.588,33.5647,0.1504,0.287,-0.0965,-63.789
16:32:24:196,-2.339,1.1981,13.1921,33.5808,0.1812,0.043,-0.0635,-63.9056
16:32:24:217,-2.3681,1.4501,12.128,33.1209,0.1173,-0.3415,0.0025,-64.0151
16:32:24:236,-1.8791,1.569,10.929,33.6524,-0.1064,-0.4194,0.1207,-64.1185
16:32:24:257,-1.3451,0.978,11.573,32.9386,-0.2597,-0.1658,0.2134,-64.218
16:32:24:277,-0.8741,-0.113,13.5461,33.6067,-0.0542,-0.0305,0.2134,-64.317
16:32:24:296,-0.539,-0.881,12.3101,33.5086,0.3475,-0.2276,0.0494,-64.4181
16:32:24:316,-0.7091,-0.539,9.492,31.9461,0.3475,-0.3139,-0.1275,-64.5207
16:32:24:336,-1.353,0.083,8.2001,31.8732,0.0609,-0.1232,-0.1371,-64.6214
16:32:24:356,-1.415,0.047,8.757,31.8566,-0.2822,0.1005,0.0015,-64.7171
16:32:24:377,-0.857,-0.383,10.419,32.5784,-0.41,0.1826,0.0952,-64.8081
16:32:24:396,-0.2321,-0.845,10.955,31.9041,-0.2523,0.1239,0.0227,-64.8081
16:32:24:416,-0.227,-0.6731,10.194,31.906,-0.0818,0.028,-0.1636,-64.8985
16:32:24:437,-0.723,0.104,9.176,31.7869,0.0129,-0.0582,-0.2691,-64.8985
16:32:24:456,-1.001,0.65,8.07,31.0449,0.0481,-0.1541,-0.2265,-64.8985
16:32:24:477,-0.881,0.875,7.122,31.7074,0.0087,-0.1946,-0.1371,-64.8985
16:32:24:497,-0.534,0.882,6.983,31.6364,-0.0382,-0.0774,-0.0795,-64.8985
16:32:24:517,-0.366,0.7841,7.611,31.6447,0.0268,0.061,-0.0806,-64.8985
16:32:24:537,-0.335,0.782,8.042,30.7788,0.1301,0.0942,-0.0954,-64.8985
16:32:24:557,-0.242,0.815,8.157,30.9264,0.1462,0.0099,-0.1115,-64.8985
16:32:24:576,-0.062,0.755,8.1761,31.5447,0.113,-0.0657,-0.1391,-64.8985
16:32:24:596,-0.17,0.65,8.396,30.7989,0.1024,0.0388,-0.1712,-64.8985
16:32:24:617,-0.558,0.533,9.495,30.0358,0.1525,0.2634,-0.1829,-64.8985
16:32:24:637,-0.924,0.4301,10.244,30.1718,0.2227,0.2091,-0.1966,-64.8985
16:32:24:656,-0.9,0.564,9.636,30.923,0.1801,-0.1104,-0.2222,-64.8985
16:32:24:676,-0.981,0.755,8.824,30.1519,0.0502,-0.1946,-0.234,-64.8985
16:32:24:696,-1.458,0.894,8.178,30.1577,-0.115,0.0536,-0.1807,-64.8985
16:32:24:715,-2.021,0.9041,9.4061,30.1342,-0.3791,0.3711,-0.0274,-64.8985
16:32:24:736,-2.03,0.605,11.348,30.0255,-0.4632,0.4041,0.107,-64.8985
16:32:24:756,-2.016,0.566,11.451,29.9313,-0.4696,0.2379,0.1645,-64.8985
16:32:24:778,-2.061,0.66,11.511,29.3568,-0.6156,0.223,0.2251,-64.8985
16:32:24:797,-1.76,0.2411,13.1681,29.4327,-0.6315,0.239,0.272,-64.8985
16:32:24:815,-1.439,0.006,13.548,29.4213,-0.2705,0.0269,0.2145,-64.8985
16:32:24:836,-1.599,0.092,11.4251,29.4257,-0.0434,-0.1275,0.1474,-64.8985
16:32:24:856,-2.262,-0.003,10.251,30.2263,-0.0584,-0.0274,0.1495,-64.8985
16:32:24:878,-3.107,-0.1871,10.1291,30.2248,-0.1469,0.2262,0.2901,-64.8985
16:32:24:896,-3.1601,-0.548,10.998,30.1873,-0.2725,0.3338,0.4723,-64.8985
16:32:24:916,-2.655,-0.936,12.1451,29.4891,-0.2736,0.1409,0.5224,-64.8985
16:32:24:936,-2.0561,-0.867,11.789,29.6586,-0.0605,-0.1466,0.4616,-64.8985
16:32:24:956,-1.343,-0.0431,9.818,29.9845,0.0694,-0.3097,0.402,-64.9922
16:32:24:977,-0.936,0.5261,8.556,30.1546,0.0566,-0.3831,0.3839,-65.098
16:32:24:996,-0.5771,0.7721,7.596,29.578,0.0076,-0.4353,0.3882,-65.2148
16:32:25:016,-0.134,0.7871,7.206,28.6005,0.0268,-0.3032,0.3413,-65.3418
16:32:25:035,-0.038,0.923,7.0481,28.5682,0.1727,-0.055,0.2401,-65.4781
16:32:25:056,-0.4211,1.229,7.0361,28.5246,0.258,0.0803,0.1602,-65.6218
16:32:25:076,-0.723,1.478,7.134,29.9466,0.2483,0.0601,0.1409,-65.7702
16:32:25:096,-0.5411,1.4381,7.299,29.2231,0.177,-0.0188,0.1144,-65.921
16:32:25:116,-0.407,1.4711,7.8191,29.858,0.1462,0.0184,0.0632,-66.0727
16:32:25:135,-0.381,1.253,8.8601,29.2106,0.2559,0.1622,0.0227,-66.2239
16:32:25:156,-0.522,1.064,9.416,29.202,0.3719,0.1741,-0.0582,-66.3731
16:32:25:178,-0.843,0.9611,9.8681,29.1914,0.3719,0.092,-0.1295,-66.5184
16:32:25:196,-1.2041,0.9611,10.283,29.1808,0.3239,-0.0326,-0.1499,-66.6576
16:32:25:215,-1.386,0.9611,10.4,28.5351,0.2591,-0.1115,-0.1328,-66.7888
16:32:25:235,-1.604,0.942,10.737,28.4905,0.1419,-0.1391,-0.0826,-66.9113
16:32:25:257,-1.6451,0.798,11.24,28.3968,-0.019,-0.2542,0.0078,-67.0253
16:32:25:278,-1.0721,0.4181,11.216,28.5931,-0.1574,-0.4236,0.0558,-67.1325
16:32:25:297,-0.45,0.212,10.9631,29.4168,-0.2896,-0.3395,-0.0049,-67.2353
16:32:25:316,-0.345,0.1931,11.93,29.5254,-0.362,0.0004,-0.0742,-67.3352
16:32:25:336,-0.347,-0.2951,14.142,29.5146,-0.165,0.1783,-0.1508,-67.4322
16:32:25:357,-0.4481,-0.8531,13.733,29.5102,0.2867,0.0355,-0.2883,-67.5251
16:32:25:379,-1.058,-0.3551,11.0081,29.5211,0.3688,-0.0359,-0.4214,-67.5251
16:32:25:395,-1.9421,0.401,10.0961,29.5424,0.0769,-0.006,-0.3447,-67.5251
16:32:25:416,-1.6901,0.36,10.275,30.3466,-0.1969,-0.0368,-0.1243,-67.5251
16:32:25:436,-0.6731,0.023,10.1651,29.4963,-0.3396,-0.0859,0.0025,-67.5251
16:32:25:456,-0.062,-0.2351,9.777,30.4638,-0.3631,-0.0124,0.0058,-67.5251
16:32:25:475,0.1451,-0.4601,9.6701,30.4646,-0.281,0.0974,-0.0848,-67.5251
16:32:25:496,-0.086,-0.369,9.3611,30.4354,-0.0861,0.1272,-0.2276,-67.5251
16:32:25:516,-0.483,0.1091,8.37,30.5014,0.1354,0.1037,-0.331,-67.5251
16:32:25:537,-0.888,0.734,7.1051,29.8901,0.1919,-0.022,-0.3299,-67.5251
16:32:25:556,-0.84,1.079,6.2051,30.5388,0.0641,-0.1402,-0.2457,-67.5251
16:32:25:576,-0.5651,1.143,6.459,30.5128,-0.0318,-0.0241,-0.1551,-67.5251
16:32:25:596,-0.299,0.818,7.512,30.4972,0.0407,0.1559,-0.0976,-67.5251
16:32:25:616,0,0.533,7.9721,30.4535,0.1759,0.287,-0.1189,-67.5251
16:32:25:636,-0.2321,0.53,8.216,30.4069,0.1462,0.2923,-0.1701,-67.5251
16:32:25:656,-0.594,0.6191,9.105,30.3551,0.0033,0.2305,-0.1466,-67.5251
16:32:25:676,-0.531,0.365,10.3541,31.2167,-0.0308,0.1218,-0.0817,-67.5251
16:32:25:697,-0.117,-0.158,10.797,31.2267,0.0928,-0.006,-0.1072,-67.5251
16:32:25:716,-0.143,-0.24,10.244,30.6479,0.2355,-0.0038,-0.234,-67.5251
16:32:25:736,-0.9461,0.138,9.8681,30.6576,0.2633,0.1282,-0.3139,-67.5251
16:32:25:756,-1.836,0.614,9.686,30.7247,0.1482,0.2464,-0.234,-67.5251
16:32:25:776,-2.112,0.5591,10.532,30.6097,-0.0883,0.3018,-0.0582,-67.5251
16:32:25:798,-1.851,0.3101,11.9561,30.6315,-0.1446,0.2006,0.0269,-67.5251
16:32:25:816,-1.985,0.344,11.702,31.5231,-0.0488,0.0653,0.0132,-67.5251
16:32:25:836,-2.576,0.9281,11.1521,31.5418,-0.1192,0.0377,0.061,-67.5251
16:32:25:856,-3.17,1.289,12.011,30.074,-0.2896,0.0718,0.2933,-67.5251
16:32:25:876,-2.559,0.482,13.338,30.8059,-0.2043,-0.1317,0.55,-67.5251
16:32:25:896,-1.424,-0.45,12.291,30.8091,0.0161,-0.4587,0.5596,-67.5251
16:32:25:916,-1.053,-0.915,9.998,30.6257,0.0439,-0.5312,0.4115,-67.5251
16:32:25:948,-1.388,-1.286,9.6941,31.2019,0.0439,-0.088,0.2657,-67.5251
16:32:25:956,-2.121,-1.1951,10.029,31.4408,0.1226,0.2028,0.1986,-67.5251
16:32:25:976,-2.253,-0.7301,9.4331,32.0148,0.0109,0.1005,0.2208,-67.5251
16:32:25:996,-1.812,-0.338,8.813,32.0307,-0.2236,-0.1232,0.2208,-67.5251
16:32:26:016,-1.29,0.006,8.384,30.5773,-0.3322,-0.1743,0.2134,-67.5251
16:32:26:035,-0.855,0.231,8.008,30.5613,-0.2694,-0.0209,0.1793,-67.5251
16:32:26:055,-0.912,0.6071,7.778,31.4606,-0.1574,0.1858,0.1207,-67.5251
16:32:26:076,-1.379,0.966,7.7951,31.4539,-0.0562,0.2369,0.1229,-67.5251
16:32:26:095,-1.2401,1.0571,7.817,31.4473,-0.003,0.1207,0.1517,-67.5251
16:32:26:115,-0.9461,0.995,7.656,31.5123,0.0492,-0.0923,0.1059,-67.5251
16:32:26:135,-1.01,0.909,6.986,31.473,0.0652,-0.2062,0.0355,-67.5251
16:32:26:156,-1.089,1.172,7.0481,32.0985,0.0417,-0.1158,0.0175,-67.5251
16:32:26:176,-0.888,1.232,7.656,31.5054,0.0236,0.0579,0.0451,-67.5251
16:32:26:196,-0.555,0.978,9.32,31.4959,0.0311,0.1229,0.0015,-67.5251
16:32:26:216,-0.531,0.9881,10.359,31.4959,0.1599,-0.0283,-0.1295,-67.5251
16:32:26:236,-0.728,1.2371,9.83,31.4796,0.2728,-0.2148,-0.2435,-67.5251
16:32:26:256,-1.094,1.641,9.1451,32.1727,0.2782,-0.1797,-0.2713,-67.5251
16:32:26:276,-1.602,2.027,9.1721,31.5962,0.1951,0.0547,-0.1712,-67.5251
16:32:26:296,-1.9271,1.991,10.026,31.6285,0.0023,0.2742,0.0227,-67.5251
16:32:26:316,-1.776,1.284,12.291,31.6285,-0.183,0.2336,0.2028,-67.5251
16:32:26:336,-1.245,0.363,13.539,31.6123,-0.1565,-0.1712,0.2199,-67.5251
16:32:26:356,-0.852,0.3911,12.564,32.3628,-0.1298,-0.5749,0.0686,-67.5251
16:32:26:376,-0.998,1.0039,11.9201,32.3232,-0.2129,-0.4993,-0.0166,-67.5251
16:32:26:396,-0.998,0.437,13.682,32.2717,-0.0382,-0.1616,-0.0038,-67.5251
16:32:26:417,-0.9,-0.7061,13.4051,32.2421,0.4487,-0.1414,-0.0912,-67.5251
16:32:26:436,-1.178,-0.7781,10.4621,32.2485,0.5402,-0.2244,-0.2383,-67.5251
16:32:26:457,-1.788,-0.2801,9.138,31.4385,0.2185,-0.1541,-0.2127,-67.5251
16:32:26:476,-1.736,-0.395,9.318,32.9263,-0.1266,-0.0252,-0.0539,-67.5251
16:32:26:498,-1.254,-0.683,10.22,32.3241,-0.3396,0.0781,0.0536,-67.5251
16:32:26:516,-0.4931,-0.92,10.872,32.3247,-0.3279,0.1335,0.0473,-67.5251
16:32:26:537,-0.026,-1.008,10.848,32.2891,-0.1906,0.1101,-0.0945,-67.5251
16:32:26:556,0.0491,-0.869,9.8951,32.2473,-0.001,0.0269,-0.2958,-67.5251
16:32:26:575,-0.278,-0.264,8.595,32.9923,0.1599,-0.0081,-0.4566,-67.5251
16:32:26:596,-0.665,0.3911,7.472,32.4001,0.2047,-0.0646,-0.4811,-67.5251
16:32:26:617,-0.668,0.7241,6.8711,32.3609,0.1695,-0.0615,-0.4417,-67.5251
16:32:26:636,-0.371,0.873,6.854,32.5539,0.1855,0.0132,-0.4097,-67.5251
16:32:26:656,-0.3641,0.897,6.8921,32.5394,0.2813,0.1229,-0.4087,-67.5251
16:32:26:676,-0.785,1.1381,6.6431,32.498,0.3358,0.2518,-0.3895,-67.5251
16:32:26:698,-1.362,1.443,7.065,32.495,0.2335,0.3572,-0.2745,-67.5251
16:32:26:717,-1.566,1.431,7.919,33.3796,0.0246,0.3231,-0.0689,-67.5251
16:32:26:736,-1.211,0.923,9.648,33.3731,-0.1085,0.2497,0.0909,-67.5251
16:32:26:756,-0.543,0.2381,11.0921,33.8518,0.0172,0.1068,0.1048,-67.5251
16:32:26:776,-0.167,-0.074,10.6391,33.2131,0.2654,-0.087,-0.038,-67.5251
16:32:26:797,-0.819,0.401,9.033,33.1806,0.2889,-0.1167,-0.1712,-67.5251
16:32:26:816,-1.695,1.095,8.5541,33.1806,0.0566,0.0877,-0.1019,-67.5251
16:32:26:836,-1.992,1.067,10.0481,33.1536,-0.2491,0.2762,0.0931,-67.5251
16:32:26:856,-1.712,0.5831,12.081,32.6299,-0.3162,0.2529,0.2039,-67.5251
16:32:26:876,-1.455,0.186,12.3251,32.6964,-0.1617,0.1196,0.1506,-67.5251
16:32:26:897,-2.03,0.7151,11.097,34.5974,-0.1458,0.044,0.0622,-67.5251
16:32:26:916,-2.607,1.4021,11.24,34.0238,-0.3428,0.2006,0.1783,-67.5251
16:32:26:936,-2.372,0.858,13.5941,33.9621,-0.3546,0.2071,0.3689,-67.5251
16:32:26:956,-1.25,-0.173,13.8761,33.0783,0.0044,-0.2116,0.3626,-67.5251
16:32:26:975,-0.809,-0.4001,10.4651,33.7078,0.2889,-0.5141,0.1548,-67.5251
16:32:26:996,-1.578,0.224,8.106,33.6834,0.2207,-0.1519,0.0388,-67.5251
16:32:27:016,-2.93,0.365,9.042,33.7135,0.014,0.3828,0.1847,-67.5251
16:32:27:035,-3.2201,-0.141,10.943,33.6291,-0.15,0.4158,0.434,-67.5251
16:32:27:056,-2.672,-0.747,11.343,34.1347,-0.2342,0.0312,0.5127,-67.5251
16:32:27:076,-1.6061,-0.51,10.043,34.1187,-0.2875,-0.397,0.4445,-67.5251
16:32:27:097,-0.8501,-0.053,8.666,34.0063,-0.2214,-0.4822,0.3348,-67.5251
16:32:27:116,-0.6131,0.437,7.263,33.8994,-0.0681,-0.3501,0.2454,-67.5251
16:32:27:135,-0.78,1.115,6.026,33.9115,-0.052,-0.1508,0.223,-67.5251
16:32:27:157,-0.902,1.4951,6.0881,33.882,-0.2299,-0.0007,0.2827,-67.5251
16:32:27:176,-0.6581,1.277,7.6751,33.8759,-0.2907,0.076,0.3242,-67.5251
16:32:27:197,-0.1391,0.636,9.1,33.8683,-0.0425,0.0547,0.223,-67.5251
16:32:27:215,-0.1001,0.633,8.8271,33.8228,0.2984,-0.0635,-0.0018,-67.5251
16:32:27:236,-0.519,1.284,7.685,33.8024,0.3677,-0.088,-0.1488,-67.6158
16:32:27:256,-0.828,1.55,7.833,33.7963,0.2014,-0.0146,-0.1999,-67.706
16:32:27:276,-1.2161,1.7711,8.9921,33.7963,0.0982,0.0269,-0.1871,-67.706
16:32:27:297,-1.475,1.991,9.5951,34.4388,0.1312,-0.0326,-0.0923,-67.706
16:32:27:316,-1.5491,2.099,9.212,34.4277,0.0982,-0.2094,0.0355,-67.706
16:32:27:336,-1.604,1.964,9.275,34.4183,0.0172,-0.2457,0.1655,-67.706
16:32:27:356,-1.4651,1.4111,9.8201,34.387,-0.0414,-0.0956,0.2816,-67.706
16:32:27:375,-1.496,0.657,10.9631,34.3556,-0.1277,0.059,0.3338,-67.706
16:32:27:398,-1.094,0.2051,12.284,34.4293,-0.1756,0.026,0.3476,-67.706
16:32:27:416,-0.4211,-0.0221,12.653,35.1373,-0.1574,-0.1946,0.19,-67.798
16:32:27:436,-0.3851,0.5261,12.03,33.8168,-0.2097,-0.2745,-0.0465,-67.8967
16:32:27:456,-0.9191,1.0039,12.5141,34.555,-0.2853,-0.0496,-0.1243,-67.999
16:32:27:476,-0.7421,0.107,14.535,35.2171,-0.069,0.0462,-0.1093,-68.1009
16:32:27:498,-0.093,-0.917,13.0331,35.2171,0.3975,-0.1584,-0.2531,-68.1998
16:32:27:516,-0.608,-0.723,9.617,35.2456,0.4135,-0.1849,-0.4161,-68.293
16:32:27:535,-1.278,-0.369,8.597,35.409,-0.0041,0.0291,-0.3565,-68.293
16:32:27:556,-1.4291,-0.606,10.062,35.409,-0.3503,0.208,-0.1764,-68.293
16:32:27:576,-0.893,-1.121,11.255,35.9578,-0.428,0.1528,-0.055,-68.293
16:32:27:597,-0.3611,-1.142,10.8881,35.4722,-0.3598,-0.0274,-0.0923,-68.293
16:32:27:616,-0.311,-0.8171,9.806,36.179,-0.2918,-0.0635,-0.1924,-68.293
16:32:27:636,-0.287,-0.515,9.258,35.4626,-0.133,0.0334,-0.2776,-68.293
16:32:27:657,-0.359,-0.2951,8.154,35.4166,0.111,0.0664,-0.3916,-68.293
16:32:27:676,-0.608,0.339,6.777,35.3998,0.1781,-0.0274,-0.495,-68.293
16:32:27:697,-0.857,0.8891,5.64,36.2369,0.0865,-0.1423,-0.5088,-68.293
16:32:27:716,-0.756,1.2371,5.6141,35.6036,-0.019,0.0388,-0.4566,-68.293
16:32:27:736,-0.543,1.1531,6.615,36.4112,0.0578,0.3381,-0.4033,-68.293
16:32:27:756,-0.479,1.131,7.122,36.7704,0.1462,0.4819,-0.3927,-68.293
16:32:27:776,-1.001,1.347,7.323,36.7088,0.0374,0.4595,-0.3426,-68.293
16:32:27:798,-1.3811,1.397,8.532,36.5899,-0.1852,0.3924,-0.1881,-68.293
16:32:27:816,-1.317,1.0121,10.254,36.4843,-0.264,0.2657,-0.0241,-68.293
16:32:27:836,-0.845,0.245,11.439,37.0638,-0.1213,0.1665,0.0483,-68.293
16:32:27:855,-0.522,-0.122,11.6021,37.0748,0.144,0.1229,-0.022,-68.293
16:32:27:876,-1.269,0.26,10.766,36.3918,0.2846,0.1676,-0.0934,-68.293
16:32:27:897,-2.229,0.729,10.4531,37.2408,0.1045,0.2091,0.0355,-68.293
16:32:27:916,-2.243,0.384,11.547,37.2607,-0.1554,0.1878,0.2358,-68.293
16:32:27:936,-1.688,-0.18,12.749,37.2701,-0.1277,0.0931,0.2966,-68.293
16:32:27:961,-1.5851,-0.1871,11.994,36.4053,0.0652,-0.007,0.2039,-68.293
16:32:27:975,-2.408,0.5141,10.785,37.2769,0.0513,0.092,0.1963,-68.293
16:32:27:997,-3.048,0.765,11.5301,37.7488,-0.1128,0.2795,0.3999,-68.293
16:32:28:015,-2.396,-0.036,13.481,38.4313,-0.0894,0.0718,0.5841,-68.293
16:32:28:036,-1.1201,-1.034,12.152,37.5653,0.1557,-0.5173,0.5064,-68.293
16:32:28:056,-0.6341,-1.013,9.234,36.4891,0.2388,-0.6346,0.287,-68.293
16:32:28:075,-1.1111,-1.1021,8.013,37.2766,0.1749,-0.1221,0.1591,-68.293
16:32:28:095,-2.1281,-1.164,9.327,37.2513,0.0917,0.386,0.1303,-68.293
16:32:28:116,-2.463,-0.9911,10.3301,38.0691,0.0502,0.3498,0.2113,-68.293
16:32:28:136,-2.016,-0.788,9.713,37.907,-0.115,-0.0155,0.2486,-68.293
16:32:28:157,-1.29,-0.3281,9.071,37.9504,-0.3524,-0.2926,0.2379,-68.293
16:32:28:176,-0.725,-0.029,8.793,37.9608,-0.3589,-0.2553,0.2006,-68.293
16:32:28:198,-0.788,0.468,8.367,37.9504,-0.3013,-0.1786,0.1528,-68.293
16:32:28:216,-0.936,0.8561,7.809,37.1655,-0.4206,-0.3458,0.1548,-68.293
16:32:28:237,-0.8231,0.8561,8.7,37.2409,-0.4482,-0.3799,0.1645,-68.293
16:32:28:256,-0.6371,0.614,9.203,37.154,-0.0936,-0.3106,0.1229,-68.293
16:32:28:276,-0.4481,0.684,8.0681,37.9588,0.2335,-0.2393,0.0184,-68.293
16:32:28:298,-0.8471,1.172,7.223,37.2266,0.2889,-0.105,-0.0646,-68.293
16:32:28:315,-1.362,1.4621,7.383,37.9514,0.2196,0.0291,-0.0359,-68.293
16:32:28:335,-1.499,1.2371,8.135,37.8887,0.144,0.1613,0.0291,-68.293
16:32:28:357,-1.259,0.918,9.227,37.885,0.1536,0.2795,0.0291,-68.293
16:32:28:376,-1.1471,0.755,10.34,38.8009,0.2739,0.2486,-0.0572,-68.293
16:32:28:398,-1.362,0.801,9.978,38.7874,0.4146,0.0525,-0.1488,-68.293
16:32:28:416,-1.841,1.2011,9.093,38.7504,0.3688,0.0056,-0.186,-68.293
16:32:28:437,-2.5451,1.526,9.047,38.7504,0.1716,0.0899,-0.0837,-68.293
16:32:28:456,-2.856,1.4351,9.8711,38.7113,-0.0659,0.1986,0.1133,-68.293
16:32:28:476,-2.456,1.043,11.3021,38.6998,-0.2214,0.1261,0.2838,-68.293
16:32:28:497,-1.8071,0.729,11.774,38.7044,-0.2619,-0.1115,0.3018,-68.293
16:32:28:516,-1.4,0.863,11.4251,38.6263,-0.3684,-0.1605,0.2731,-68.293
16:32:28:537,-1.278,0.7001,12.5141,38.6791,-0.5048,0.1187,0.3061,-68.293
16:32:28:557,-0.78,-0.266,15.461,38.6177,-0.3131,0.3168,0.3029,-68.293
16:32:28:576,-0.201,-1.461,15.32,38.5799,0.3102,-0.0976,0.0909,-68.3885
16:32:28:596,-0.258,-1.116,11.1131,39.3582,0.5541,-0.414,-0.2051,-68.4904
16:32:28:616,-0.9101,-0.407,8.8271,39.3609,0.3026,-0.3213,-0.2872,-68.5924
16:32:28:636,-0.821,-0.3191,8.559,38.6053,-0.0104,-0.1295,-0.1764,-68.6883
16:32:28:656,-0.0671,-0.8261,9.114,39.2936,-0.198,-0.0231,-0.1402,-68.6883
16:32:28:676,0.404,-1.104,9.33,39.2143,-0.2214,0.0067,-0.2457,-68.6883
16:32:28:697,0.253,-0.9911,9.15,39.389,-0.1372,0.0547,-0.4214,-68.6883
16:32:28:717,-0.278,-0.4691,8.6831,39.5345,-0.0115,0.0835,-0.5195,-68.6883
16:32:28:736,-0.579,-0.036,7.814,38.7874,0.0439,0.0056,-0.5248,-68.6883
16:32:28:756,-0.615,0.2171,7.0241,38.6956,-0.0158,-0.169,-0.4993,-68.6883
16:32:28:777,-0.455,0.48,6.4211,39.7067,-0.1202,-0.2201,-0.4566,-68.6883
16:32:28:799,-0.266,0.4511,6.639,39.6118,-0.1213,-0.0923,-0.43,-68.6883
16:32:28:816,-0.2561,0.3821,7.23,38.8133,0.0236,0.0994,-0.4407,-68.6883
16:32:28:836,-0.72,0.731,6.993,39.5706,0.1451,0.2028,-0.4609,-68.6883
16:32:28:856,-1.355,1.1741,6.821,39.7731,0.0066,0.3029,-0.3703,-68.6883
16:32:28:876,-1.704,1.1741,7.9271,39.7263,-0.2225,0.4158,-0.1775,-68.6883
16:32:28:896,-1.436,0.7151,9.567,39.5653,-0.3237,0.4905,0.0025,-68.6883
16:32:28:916,-0.953,-0.086,11.132,39.4896,-0.2204,0.4212,0.0388,-68.6883
16:32:28:936,-0.914,-0.3641,11.231,40.1675,-0.0201,0.1986,-0.0326,-68.6883
16:32:28:956,-1.3961,-0.048,10.208,40.1675,-0.0147,0.0835,-0.055,-68.6883
16:32:28:975,-2.0089,-0.141,10.314,40.3394,-0.2321,0.1878,0.0558,-68.6883
16:32:28:996,-1.9391,-0.548,11.805,39.7517,-0.3376,0.3125,0.1548,-68.6883
16:32:29:016,-1.817,-0.687,12.95,39.7405,-0.2672,0.2912,0.1495,-68.6883
16:32:29:036,-2.246,-0.522,12.447,40.4026,-0.2034,0.0738,0.1048,-68.6883
16:32:29:055,-2.724,0.253,11.712,40.3657,-0.4036,-0.0092,0.1804,-68.6883
16:32:29:077,-2.811,0.087,13.326,39.4454,-0.6816,-0.0965,0.3945,-68.6883
16:32:29:098,-1.3841,-1.145,15.14,41.0021,-0.5186,-0.333,0.4553,-68.6883
16:32:29:116,-0.3401,-1.832,13.757,40.9447,0.0896,-0.5803,0.2028,-68.6883
16:32:29:135,-0.5291,-1.449,10.196,39.9106,0.5317,-0.4683,-0.105,-68.6883
16:32:29:157,-2.061,-0.738,7.9151,40.5875,0.5178,0.0175,-0.2179,-68.6883
16:32:29:176,-3.476,-0.479,8.52,39.9222,0.2516,0.3785,-0.0283,-68.6883
16:32:29:199,-3.3761,-0.726,9.615,39.9435,0.0524,0.3305,0.2113,-68.6883
16:32:29:215,-2.7701,-0.623,9.095,39.832,-0.1159,0.0047,0.3231,-68.6883
16:32:29:236,-1.884,-0.242,7.881,41.3273,-0.3524,-0.2628,0.3807,-68.6883
16:32:29:256,-1.247,-0.0701,7.721,40.5864,-0.4238,-0.2489,0.3754,-68.6883
16:32:29:276,-0.9,0.15,7.802,40.6089,-0.264,-0.1541,0.3583,-68.6883
16:32:29:296,-0.759,0.2051,7.644,40.621,-0.0659,-0.071,0.3413,-68.6883
16:32:29:317,-0.7091,0.171,7.551,40.6356,0.0417,-0.0615,0.287,-68.6883
16:32:29:336,-0.6491,0.336,7.637,40.5829,0.0939,-0.0774,0.2241,-68.6883
16:32:29:356,-0.464,0.253,7.764,40.5718,0.1727,-0.0956,0.1442,-68.6883
16:32:29:375,-0.3971,0.207,7.6871,41.2588,0.2804,-0.0465,0.0291,-68.6883
16:32:29:396,-0.809,0.408,7.455,40.5244,0.3145,0.0686,-0.0615,-68.6883
16:32:29:417,-1.52,0.6761,7.802,41.411,0.2133,0.2827,-0.0422,-68.6883
16:32:29:437,-1.865,0.473,9.686,41.393,0.1088,0.4212,0.0462,-68.6883
16:32:29:456,-1.745,0.128,11.219,41.2207,0.1301,0.2294,0.076,-68.6883
16:32:29:477,-1.539,-0.098,11.3,40.4412,0.1886,-0.105,0.0036,-68.6883
16:32:29:499,-1.592,0.066,10.716,41.95,0.1855,-0.2276,-0.0987,-68.6883
16:32:29:516,-1.896,0.308,10.587,41.9677,0.1386,-0.1499,-0.1317,-68.6883
16:32:29:536,-2.011,0.341,11.228,41.2156,0.0609,0.0015,-0.105,-68.6883
16:32:29:557,-1.961,0.224,12.27,41.1722,0.1216,0.0164,-0.0954,-68.6883
16:32:29:577,-1.7,0.482,11.726,41.2109,0.1471,-0.2179,-0.1295,-68.6883
16:32:29:599,-1.142,0.9281,10.5941,42.2025,-0.0894,-0.4194,-0.1733,-68.6883
16:32:29:616,-0.989,0.9161,11.6231,42.109,-0.2938,-0.2403,-0.1924,-68.6883
16:32:29:636,-0.6101,-0.129,13.3541,42.0599,0.0311,-0.0326,-0.1914,-68.6883
16:32:29:656,-0.3161,-1.023,12.2861,42.0359,0.5647,0.0525,-0.3608,-68.6883
16:32:29:676,-1.0151,-0.5771,9.885,42.0838,0.6084,0.0568,-0.5163,-68.6883
16:32:29:695,-1.6421,-0.17,9.009,42.0715,0.2153,-0.007,-0.462,-68.6883
16:32:29:716,-1.563,-0.2471,9.8351,42.0469,-0.1522,0.0579,-0.331,-68.6883
16:32:29:737,-0.8951,-0.62,10.6781,41.954,0.0544,0.125,-0.2179,-68.6883
16:32:29:756,-0.711,-0.546,9.801,42.0575,0.1248,-0.0496,-0.2574,-68.6883
16:32:29:776,-0.606,-0.3071,8.832,42.8422,0.1834,-0.2255,-0.3202,-68.6883
16:32:29:796,-0.941,0.2171,7.812,42.0282,0.2676,-0.3341,-0.3543,-68.6883
16:32:29:816,-1.1681,0.638,6.9191,42.1676,0.2984,-0.3959,-0.2702,-68.6883
16:32:29:836,-0.819,0.684,6.284,42.8163,0.2782,-0.3086,-0.1423,-68.6883
16:32:29:856,-0.278,0.566,6.584,42.7623,0.2505,-0.1158,-0.0529,-68.6883
16:32:29:876,0.174,0.329,6.732,42.7491,0.2313,0.0099,-0.0348,-68.6883
16:32:29:896,0.284,0.186,7.058,41.9947,0.1269,0.1463,-0.0869,-68.5957
16:32:29:915,-0.0071,0.2171,8.025,42.7351,0.0374,0.2955,-0.1147,-68.5008
16:32:29:935,-0.507,0.1571,9.231,42.7589,0.0098,0.4084,-0.1082,-68.4048
16:32:29:969,-0.936,-0.015,10.5671,42.7069,0.0396,0.3765,-0.0826,-68.3078
16:32:29:975,-1.0369,-0.357,11.214,42.6147,0.0939,0.1506,-0.0826,-68.2098
16:32:29:996,-1.0631,-0.536,10.4981,43.3767,0.1291,-0.104,-0.1445,-68.1111
16:32:30:016,-1.508,-0.4601,9.224,42.6376,0.0407,-0.1178,-0.1977,-68.012
16:32:30:036,-1.956,-0.177,8.824,44.1665,-0.1693,0.0483,-0.1669,-67.9122
16:32:30:056,-2.0419,-0.2539,9.957,44.1253,-0.3939,0.1869,-0.104,-67.8104
16:32:30:076,-2.076,-0.4001,11.106,43.5836,-0.4249,0.1218,-0.0997,-67.7062
16:32:30:096,-2.595,0.083,10.479,43.5518,-0.4323,0.0462,-0.0848,-67.6006
16:32:30:117,-3.675,1.024,10.4981,43.7084,-0.7444,0.1878,0.1474,-67.3901
16:32:30:137,-3.177,0.444,13.7231,43.6505,-1.0471,0.3828,0.5042,-67.2885
16:32:30:156,-1.671,-1.116,16.859,44.3274,-0.5921,0.1804,0.5767,-67.197
16:32:30:176,-0.938,-1.487,14.2781,44.908,0.1462,-0.3213,0.2912,-67.197
16:32:30:197,-1.697,-0.371,10.2131,44.9296,0.2921,-0.3362,0.0632,-67.197
16:32:30:216,-2.882,0.3221,9.203,44.2154,0.062,-0.0283,0.1548,-67.197
16:32:30:236,-2.8871,-0.065,10.223,44.8875,-0.0925,0.1676,0.3882,-67.197
16:32:30:256,-2.076,-0.63,10.086,44.0821,-0.1159,0.076,0.4616,-67.197
16:32:30:276,-1.544,-0.326,8.925,44.8929,-0.2023,-0.0582,0.4191,-67.197
16:32:30:297,-0.972,-0.0101,8.0441,44.8795,-0.2864,-0.087,0.3722,-67.197
16:32:30:317,-0.869,0.09,8.025,44.8662,-0.2662,0.0419,0.287,-67.197
16:32:30:335,-1.068,0.066,8.259,44.8786,-0.0425,0.0771,0.1741,-67.197
16:32:30:356,-1.4081,0.4511,7.4981,45.6139,0.1823,-0.07,0.0622,-67.197
16:32:30:376,-1.712,1.007,6.605,45.6576,0.2313,-0.3245,0.0238,-67.197
16:32:30:396,-1.7021,1.548,5.7431,45.6184,0.2409,-0.3404,0.1367,-67.197
16:32:30:416,-1.173,1.371,5.535,45.4998,0.1866,0.043,0.289,-67.197
16:32:30:437,-0.701,0.81,7.1801,44.834,0.0737,0.3051,0.3253,-67.197
16:32:30:456,-0.5621,0.312,8.595,44.8216,0.0353,0.2432,0.2464,-67.197
16:32:30:476,-0.687,0.0371,9.1639,46.2258,0.0609,0.1165,0.0974,-67.197
16:32:30:496,-1.274,0.4271,9.533,45.4353,0.0896,0.1357,-0.0092,-67.197
16:32:30:516,-1.788,0.696,9.9191,45.3972,0.0886,0.1719,0.0366,-67.197
16:32:30:537,-1.7861,0.4991,10.527,45.4968,0.0183,0.1847,0.1155,-67.197
16:32:30:555,-1.59,0.372,11.1731,46.1714,-0.0499,0.125,0.1314,-67.197
16:32:30:576,-1.5251,0.2051,11.621,46.1159,-0.0883,0.061,0.1112,-67.197
16:32:30:597,-1.76,0.035,12.162,46.1045,-0.0733,0.0269,0.0781,-67.197
16:32:30:616,-2.076,0.083,12.282,46.1144,-0.0084,-0.1178,0.0771,-67.2878
16:32:30:636,-1.982,0.245,11.3771,45.3812,-0.0968,-0.3043,0.0792,-67.3792
16:32:30:655,-1.7381,0.387,11.6741,45.3368,-0.2981,-0.3054,0.0707,-67.471
16:32:30:676,-1.365,-0.089,13.062,46.2554,-0.2043,-0.1968,0.0345,-67.5633
16:32:30:696,-1.314,-0.716,13.1531,46.2952,0.2122,-0.1775,-0.0976,-67.6562
16:32:30:716,-1.59,-0.618,10.998,46.2816,0.4785,-0.1743,-0.235,-67.7477
16:32:30:736,-2.1191,-0.3161,9.3371,46.2566,0.3134,-0.0752,-0.2446,-67.7477
16:32:30:755,-2.289,-0.297,9.1571,46.2566,-0.0605,0.0004,-0.105,-67.7477
16:32:30:776,-1.578,-0.74,10.139,46.3109,-0.3301,0.0846,0.043,-67.7477
16:32:30:796,-0.713,-1.43,11.343,46.1917,-0.2896,0.1176,0.0622,-67.7477
16:32:30:818,0.1601,-1.899,11.18,46.2176,-0.0403,0.0547,-0.0806,-67.7477
16:32:30:836,0.399,-1.7021,10.014,46.1775,0.1557,-0.0774,-0.3234,-67.7477
16:32:30:856,0.1451,-1.023,8.568,46.2355,0.2516,-0.1669,-0.5109,-67.7477
16:32:30:876,-0.2201,-0.3671,7.481,46.2355,0.2867,-0.1679,-0.577,-67.7477
16:32:30:895,-0.383,0.0491,6.816,46.2078,0.3006,-0.07,-0.5451,-67.7477
16:32:30:916,-0.263,0.164,6.758,46.1932,0.2941,0.061,-0.4982,-67.7477
16:32:30:936,-0.191,0.2051,6.969,46.9484,0.258,0.0942,-0.4917,-67.7477
16:32:30:955,-0.383,0.332,7.4771,46.1518,0.2079,0.0952,-0.496,-67.7477
16:32:30:975,-0.5981,0.444,7.86,46.2114,0.2133,0.1389,-0.4757,-67.7477
16:32:30:996,-1.068,0.5351,8.2691,46.2114,0.1749,0.2955,-0.4257,-67.7477
16:32:31:017,-1.506,0.5111,9.533,46.9324,0.113,0.4382,-0.3362,-67.7477
16:32:31:036,-1.671,0.315,10.872,46.903,0.1376,0.3103,-0.2724,-67.7477
16:32:31:055,-1.7141,0.257,11.1131,46.8892,0.2366,-0.0294,-0.2446,-67.7477
16:32:31:075,-1.7021,0.401,9.7751,46.8892,0.2409,-0.2265,-0.2212,-67.6471
16:32:31:095,-1.9421,0.645,9.0971,46.8892,0.1013,-0.1349,-0.1562,-67.5388
16:32:31:115,-2.133,0.6881,9.461,46.9791,-0.0627,0.0632,-0.0326,-67.4244
16:32:31:135,-2.076,0.468,10.646,47.675,-0.1991,0.1378,0.0536,-67.3069
16:32:31:155,-2.016,0.3221,11.393,47.6617,-0.1787,0.0195,0.0451,-67.1897
16:32:31:176,-2.4281,0.4781,10.3211,47.6617,-0.1554,-0.0038,0.0291,-67.0754
16:32:31:195,-3.177,0.983,10.376,46.8775,-0.329,0.1772,0.142,-66.9651
16:32:31:216,-3.3281,0.7031,12.459,47.6395,-0.4185,0.2379,0.4052,-66.8601
16:32:31:236,-2.3051,-0.422,13.364,47.6262,-0.2023,-0.0411,0.5138,-66.7644
16:32:31:256,-1.8221,-0.924,11.733,46.9415,0.0535,-0.331,0.3754,-66.7644
16:32:31:276,-2.013,-0.788,9.8831,46.968,0.0822,-0.1754,0.2773,-66.7644
16:32:31:296,-2.5091,-0.965,10.247,47.753,-0.0169,0.1665,0.2614,-66.7644
16:32:31:318,-2.7911,-1.0541,11.3381,46.9553,-0.0095,0.1911,0.2955,-66.7644
16:32:31:337,-2.456,-0.824,10.529,47.0202,-0.0126,-0.0837,0.2944,-66.7644
16:32:31:356,-1.865,-0.2321,9.1451,47.0071,-0.1011,-0.2639,0.289,-66.7644
16:32:31:376,-1.376,0.126,8.391,46.9386,-0.117,-0.2329,0.304,-66.7644
16:32:31:396,-1.068,0.564,8.027,46.9255,-0.0968,-0.0902,0.3253,-66.7644
16:32:31:418,-0.972,0.707,7.785,47.7227,-0.1074,-0.1062,0.3561,-66.7644
16:32:31:436,-0.5411,0.6281,7.577,47.8139,-0.1404,-0.1892,0.3455,-66.7644
16:32:31:456,-0.105,0.3821,7.8911,47.1176,-0.0638,-0.1988,0.2326,-66.7644
16:32:31:475,-0.3251,0.561,8.24,47.1295,0.1525,-0.202,0.092,-66.7644
16:32:31:496,-0.656,0.9371,7.4891,47.0772,0.2633,-0.2489,0.0494,-66.7644
16:32:31:517,-0.656,0.954,7.331,47.0111,0.2238,-0.153,0.0516,-66.7644
16:32:31:535,-0.713,0.717,7.9841,46.9722,0.2303,0.0397,0.0302,-66.7644
16:32:31:557,-0.95,0.605,8.9681,47.0768,0.2611,0.2145,0.0058,-66.7644
16:32:31:576,-1.2041,0.516,10.1051,47.0362,0.291,0.206,-0.0294,-66.7644
16:32:31:596,-1.278,0.4421,10.661,46.2335,0.3197,-0.0252,-0.0752,-66.7644
16:32:31:617,-1.341,0.624,10.014,47.0245,0.3091,-0.2713,-0.1371,-66.7644
16:32:31:636,-1.448,1.0931,9.375,46.9993,0.2227,-0.202,-0.1541,-66.7644
16:32:31:656,-1.776,1.299,9.9521,46.9873,0.0865,0.0206,-0.0902,-66.7644
16:32:31:676,-1.8791,1.086,11.252,46.9728,-0.0073,0.0846,0.0078,-66.7644
16:32:31:696,-1.6931,0.7031,12.219,46.9728,0.0109,-0.0316,0.0249,-66.7644
16:32:31:717,-1.3691,0.777,11.621,46.3214,0.0364,-0.3245,-0.022,-66.7644
16:32:31:738,-0.917,1.002,10.752,46.9461,-0.1469,-0.3415,-0.0667,-66.7644
16:32:31:756,-0.8231,0.5689,12.528,46.2411,-0.1767,-0.0923,-0.0837,-66.7644
16:32:31:776,-0.608,-0.276,13.227,46.2269,0.2441,-0.0518,-0.1349,-66.7644
16:32:31:796,-0.668,-0.606,10.8041,46.2144,0.5424,-0.153,-0.2936,-66.7644
16:32:31:820,-1.3001,0.078,8.324,46.2032,0.2867,-0.1295,-0.3575,-66.7644
16:32:31:836,-1.724,0.257,8.123,46.2156,-0.2139,0.0238,-0.2127,-66.7644
16:32:31:856,-1.257,-0.3161,9.519,46.3102,-0.5878,0.1741,-0.0305,-66.7644
16:32:31:876,-0.608,-1.1021,11.015,45.4747,-0.6241,0.2625,0.0089,-66.7644
16:32:31:896,-0.1841,-1.358,11.0801,45.3684,-0.4568,0.208,-0.1082,-66.7644
16:32:31:920,-0.273,-0.908,9.9761,46.2585,-0.3726,0.0729,-0.2926,-66.7644
16:32:31:937,-0.998,-0.101,9.1,46.3696,-0.4195,-0.0454,-0.3725,-66.7644
16:32:31:957,-1.59,0.36,9.126,46.562,-0.4738,-0.1221,-0.2969,-66.7644
16:32:31:993,-1.08,0.186,10.1771,45.9104,-0.2108,-0.1456,-0.1445,-66.7644
16:32:31:995,-0.0311,-0.501,9.5141,45.9252,0.3315,-0.1466,-0.1966,-66.7644
16:32:32:016,0.275,-0.144,7.836,45.8839,0.6479,-0.1499,-0.3767,-66.7644
16:32:32:037,0.023,0.4541,6.531,45.8932,0.5968,-0.1178,-0.5035,-66.7644
16:32:32:057,-0.5771,1.1291,6.3851,45.0448,0.4231,-0.0539,-0.4811,-66.7644
16:32:32:077,-0.8141,1.2731,6.5381,45.8938,0.2676,0.109,-0.3267,-66.7644
16:32:32:097,-0.579,0.894,7.898,45.0858,0.1684,0.287,-0.2105,-66.7644
16:32:32:120,-0.5051,0.5021,9.198,45.0731,0.2122,0.2944,-0.202,-66.672
16:32:32:136,-0.507,0.3791,9.344,45.0339,0.2941,0.1645,-0.2457,-66.572
16:32:32:157,-0.89,0.516,8.736,45.0086,0.2441,0.1196,-0.283,-66.4653
16:32:32:176,-1.439,0.741,8.834,45.0081,0.03,0.2784,-0.202,-66.3521
16:32:32:197,-1.5941,0.4181,10.1891,45.1158,-0.2193,0.4478,-0.0518,-66.2327
16:32:32:216,-1.568,-0.072,12.351,45.7416,-0.264,0.4755,-0.0124,-66.1099
16:32:32:237,-1.985,-0.065,12.945,45.0082,-0.0681,0.2646,-0.0902,-65.987
16:32:32:256,-2.885,0.875,11.367,45.009,-0.0562,0.076,-0.104,-65.8653
16:32:32:276,-3.933,1.931,10.8911,45.0947,-0.4121,0.0846,0.1506,-65.7443
16:32:32:297,-3.567,1.4861,13.0001,45.1055,-0.7125,0.0547,0.5895,-65.626
16:32:32:320,-1.625,-0.252,14.841,44.392,-0.5303,-0.2926,0.7333,-65.5178
16:32:32:337,-0.392,-1.1231,13.1921,44.3624,0.0502,-0.6559,0.4638,-65.5178
16:32:32:357,-0.6101,-0.62,9.6,44.1918,0.3879,-0.5109,0.1645,-65.5178
16:32:32:376,-1.9151,0.066,7.802,45.0707,0.2867,0.0078,0.1229,-65.5178
16:32:32:396,-2.6381,-0.185,8.8841,44.1689,-0.0392,0.2614,0.3136,-65.5178
16:32:32:416,-2.198,-0.888,10.0931,44.1545,-0.2236,0.1079,0.4329,-65.5178
16:32:32:436,-1.302,-1.2671,9.864,44.1415,-0.2247,-0.12,0.3785,-65.5178
16:32:32:455,-0.699,-0.8531,8.961,43.4441,-0.133,-0.1882,0.2284,-65.5178
16:32:32:475,-0.852,-0.0911,7.919,44.3486,-0.0701,-0.1775,0.1346,-65.5178
16:32:32:496,-1.094,0.5711,7.235,43.4821,-0.1361,-0.1286,0.1676,-65.5178
16:32:32:516,-0.986,0.698,7.079,44.3348,-0.2555,-0.105,0.2412,-65.5178
16:32:32:537,-0.7421,0.6401,7.6511,44.3334,-0.3216,-0.0027,0.2603,-65.5178
16:32:32:557,-0.6131,0.363,9.3251,43.5201,-0.1053,0.0974,0.1963,-65.5178
16:32:32:577,-0.737,0.444,9.1091,44.3221,0.2494,0.0227,0.0675,-65.5178
16:32:32:597,-1.0481,0.9881,7.919,43.4637,0.3123,-0.0615,-0.0135,-65.5178
16:32:32:616,-1.388,1.431,7.3661,43.4223,0.1812,-0.0444,0.011,-65.5178
16:32:32:637,-1.4081,1.2581,7.862,43.4224,0.0492,0.1485,0.1207,-65.5178
16:32:32:656,-1.0991,0.5711,9.5,43.3818,0.0044,0.3519,0.1452,-65.5178
16:32:32:676,-0.953,0.209,11.2811,43.3428,0.1727,0.3796,0.0334,-65.5178
16:32:32:697,-1.211,0.255,11.475,42.5287,0.4359,0.1719,-0.1371,-65.5178
16:32:32:720,-1.934,1.071,9.8921,43.2908,0.4913,-0.0604,-0.2446,-65.5178
16:32:32:737,-2.6051,1.8041,9.0041,43.3057,0.2793,-0.0326,-0.1402,-65.5178
16:32:32:757,-2.763,1.8281,9.83,41.7829,0.0481,0.157,0.0952,-65.5178
16:32:32:776,-2.277,1.1741,11.3,43.2759,-0.0382,0.208,0.2688,-65.5178
16:32:32:796,-1.6901,0.7721,11.796,43.2518,-0.0627,0.0366,0.2518,-65.5178
16:32:32:816,-1.704,0.995,11.384,42.5411,-0.1915,-0.2212,0.1645,-65.5178
16:32:32:837,-1.7381,1.239,11.858,42.5411,-0.3769,-0.1679,0.1719,-65.5178
16:32:32:856,-1.542,0.47,13.7231,42.5411,-0.2139,-0.0337,0.2113,-65.5178
16:32:32:876,-1.0871,-0.501,13.4381,42.5277,0.2057,-0.1243,0.1144,-65.5178
16:32:32:896,-1.331,-0.606,10.869,42.526,0.3549,-0.2372,-0.0593,-65.5178
16:32:32:916,-1.757,-0.041,9.612,41.8309,0.1173,-0.202,-0.0593,-65.5178
16:32:32:936,-1.424,-0.1631,9.612,41.8309,-0.1884,-0.1829,0.0803,-65.5178
16:32:32:956,-0.4571,-0.7781,10.172,41.1769,-0.3546,-0.2179,0.1463,-65.5178
16:32:32:977,0.2891,-1.362,10.103,41.8053,-0.3226,-0.2435,0.0408,-65.5178
16:32:32:997,0.435,-1.341,9.612,41.3436,-0.1915,-0.1295,-0.1712,-65.5178
16:32:33:017,-0.1751,-0.771,9.1931,41.3336,0.0012,0.0312,-0.3213,-65.5178
16:32:33:037,-0.7781,-0.1271,8.499,41.4594,0.1141,-0.0018,-0.3277,-65.5178
16:32:33:057,-0.6581,0.126,7.563,41.4596,0.0747,-0.2127,-0.2947,-65.5178
16:32:33:077,-0.3521,0.4031,6.615,40.8265,-0.0169,-0.3575,-0.3097,-65.5178
16:32:33:096,-0.404,0.767,6.387,41.7605,-0.052,-0.267,-0.2978,-65.5178
16:32:33:117,-0.407,0.861,6.528,40.8635,-0.0425,-0.0828,-0.2318,-65.5178
16:32:33:137,-0.213,0.65,7.149,41.9128,0.0076,0.1793,-0.2062,-65.5178
16:32:33:157,-0.381,0.573,7.845,41.0831,0.078,0.3722,-0.2074,-65.5178
16:32:33:178,-0.6491,0.552,8.295,41.0571,0.0331,0.4041,-0.1829,-65.5178
16:32:33:196,-0.821,0.4031,9.234,40.9662,-0.0627,0.3807,-0.1477,-65.5178
16:32:33:217,-0.756,0.0371,10.788,40.9296,-0.001,0.3168,-0.1414,-65.5178
16:32:33:238,-0.6581,-0.2801,10.773,40.9301,0.2036,0.0984,-0.2265,-65.5178
16:32:33:256,-0.929,0.09,9.435,40.0864,0.2185,0.043,-0.3171,-65.5178
16:32:33:277,-1.829,0.59,8.9231,41.0496,0.0194,0.2762,-0.2809,-65.5178
16:32:33:296,-2.588,0.894,10.386,40.2113,-0.2629,0.4755,-0.0902,-65.5178
16:32:33:315,-2.4971,0.6551,12.1571,40.7533,-0.3641,0.3732,0.0984,-65.5178
16:32:33:338,-2.3441,0.253,12.3581,40.7684,-0.2833,0.1239,0.1431,-65.5178
16:32:33:357,-2.717,0.566,11.195,39.2974,-0.3131,0.0814,0.1963,-65.5178
16:32:33:376,-3.06,0.6791,12.258,39.9909,-0.5197,0.1495,0.4084,-65.5178
16:32:33:397,-2.102,-0.249,14.348,39.4165,-0.5005,-0.1338,0.5703,-65.5178
16:32:33:417,-0.953,-1.386,13.244,39.2673,-0.1884,-0.6846,0.418,-65.5178
16:32:33:437,-0.7661,-1.046,10.4,39.659,0.0172,-0.6804,0.1537,-65.5178
16:32:33:456,-1.599,-0.8501,9.152,39.6468,0.0758,-0.0913,0.0729,-65.5178
16:32:33:477,-2.3921,-0.996,10.4171,40.3128,0.078,0.3711,0.1324,-65.5178
16:32:33:497,-2.564,-1.1059,10.967,40.2865,0.0535,0.1921,0.1943,-65.5178
16:32:33:517,-2.2931,-0.752,9.9311,38.7576,-0.051,-0.2255,0.1997,-65.5178
16:32:33:538,-1.6451,-0.302,8.652,38.7352,-0.1404,-0.3853,0.2464,-65.5178
16:32:33:556,-1.1321,-0.0911,7.86,39.6303,-0.1309,-0.3021,0.2731,-65.5178
16:32:33:577,-0.8741,0.207,7.4051,39.6188,-0.1053,-0.1616,0.2998,-65.5178
16:32:33:597,-0.6851,0.372,7.302,39.5943,-0.1235,-0.1125,0.3125,-65.5178
16:32:33:616,-0.414,0.312,7.773,39.5484,-0.0701,-0.1253,0.2634,-65.5178
16:32:33:636,-0.3851,0.363,7.862,39.5386,0.1056,-0.1286,0.1431,-65.6108
16:32:33:655,-0.606,0.777,7.398,37.9659,0.2238,-0.0997,0.0494,-65.7097
16:32:33:675,-0.7991,0.968,7.103,37.9638,0.2281,-0.0241,0.0153,-65.8115
16:32:33:695,-1.044,0.995,7.364,37.9332,0.1632,0.092,0.0291,-65.9136
16:32:33:716,-1.08,0.672,7.998,37.9192,0.1035,0.2614,0.0653,-66.0145
16:32:33:738,-1.07,0.308,9.32,37.0583,0.0928,0.4317,0.044,-66.1139
16:32:33:757,-1.2161,0.018,10.7591,38.5202,0.1962,0.4445,0.0015,-66.2119
16:32:33:776,-1.269,-0.036,11.178,37.7773,0.3059,0.2113,-0.0859,-66.3079
16:32:33:796,-1.491,0.2741,10.3541,37.7562,0.2782,-0.0572,-0.1605,-66.4005
16:32:33:817,-1.791,0.617,9.998,37.7281,0.063,-0.1519,-0.1434,-66.4005
16:32:33:837,-1.736,0.578,11.0081,37.7001,-0.15,-0.1434,-0.0624,-66.4005
16:32:33:856,-1.3451,0.2171,12.2411,37.8188,-0.1404,-0.1946,-0.0476,-66.4005
16:32:33:877,-0.857,0.257,11.568,37.2632,-0.0744,-0.3447,-0.1445,-66.4005
16:32:33:896,-0.653,0.798,10.737,37.2273,-0.2034,-0.2542,-0.2489,-66.4005
16:32:33:917,-1.101,0.794,12.401,37.3994,-0.2875,0.0195,-0.2691,-66.4005
16:32:33:938,-1.178,-0.201,14.322,37.1606,0.1248,0.0696,-0.2596,-66.4005
16:32:33:957,-1.1711,-0.8621,11.9351,35.6332,0.6329,-0.1349,-0.4044,-66.4005
16:32:33:976,-1.776,0.0041,8.5181,35.6119,0.4987,-0.1786,-0.4939,-66.4005
16:32:34:006,-2.353,0.581,7.6871,35.5623,-0.0084,0.0142,-0.2969,-66.4005
16:32:34:016,-1.7261,0,9.203,36.4017,-0.4568,0.208,-0.0081,-66.4005
16:32:34:037,-0.9461,-0.977,11.456,34.9231,-0.5155,0.272,0.1122,-66.4005
16:32:34:057,-0.3011,-1.683,12.179,35.632,-0.2566,0.1889,0.0153,-66.4005
16:32:34:077,-0.392,-1.4681,11.171,35.8422,-0.0434,0.0036,-0.1764,-66.4005
16:32:34:096,-0.881,-0.711,9.7751,34.9659,-0.0041,-0.1573,-0.2542,-66.4005
16:32:34:117,-1.032,-0.194,8.9111,34.9016,-0.0212,-0.2062,-0.1892,-66.4005
16:32:34:138,-0.6101,-0.206,8.712,34.8633,0.0246,-0.1977,-0.1189,-66.4005
16:32:34:157,-0.1121,-0.261,8.6741,35.7792,0.1727,-0.2468,-0.1605,-66.4005
16:32:34:176,0.0401,-0.0071,7.766,35.2528,0.358,-0.3618,-0.2681,-66.4005
16:32:34:196,-0.072,0.4991,6.4661,35.2495,0.3996,-0.2969,-0.3469,-66.4005
16:32:34:216,-0.579,0.9521,6.212,35.2059,0.3389,-0.0113,-0.3319,-66.4005
16:32:34:238,-1.008,1.043,7.055,35.2059,0.242,0.2443,-0.2085,-66.4005
16:32:34:256,-0.9671,0.71,8.157,34.3802,0.1514,0.2284,-0.0954,-66.4005
16:32:34:277,-0.675,0.255,9.1,34.3747,0.1067,0.0814,-0.0667,-66.4005
16:32:34:298,-0.426,-0.017,9.203,34.3747,0.1844,-0.0326,-0.1147,-66.4005
16:32:34:317,-0.677,-0.017,8.499,34.3747,0.2133,0.0312,-0.1797,-66.4005
16:32:34:339,-1.448,0.128,8.3479,33.542,0.0789,0.2091,-0.1636,-66.4005
16:32:34:356,-1.946,0.2501,9.1309,33.5527,-0.1745,0.3774,-0.0402,-66.4005
16:32:34:377,-1.853,0.068,11.015,34.2411,-0.3823,0.4478,0.0696,-66.4005
16:32:34:396,-1.8551,-0.0461,12.4211,33.4095,-0.3919,0.3785,0.0771,-66.4005
16:32:34:416,-2.483,0.09,12.5591,34.1008,-0.3513,0.3125,0.1037,-66.4005
16:32:34:438,-2.969,0.384,12.806,33.5696,-0.428,0.3231,0.271,-66.4005
16:32:34:456,-2.487,-0.1031,14.346,33.6065,-0.459,0.1921,0.4573,-66.4005
16:32:34:476,-1.2071,-1.0541,14.738,34.2841,-0.1543,-0.2116,0.4542,-66.4005
16:32:34:497,-0.3971,-1.374,12.14,33.3863,0.2346,-0.5291,0.2412,-66.4005
16:32:34:516,-0.677,-1.025,9.255,33.2789,0.3645,-0.4023,0.0664,-66.4005
16:32:34:539,-1.403,-0.9221,8.142,33.2102,0.2047,0.0004,0.044,-66.4005
16:32:34:556,-1.779,-1.149,9.198,34.0039,-0.0254,0.2113,0.1357,-66.4005
16:32:34:576,-1.52,-1.437,9.8561,33.1874,-0.1235,0.1005,0.157,-66.4005
16:32:34:597,-1.139,-1.3241,9.545,33.1874,-0.1671,-0.1423,0.0686,-66.4005
16:32:34:617,-1.094,-0.539,8.949,33.1647,-0.1341,-0.267,-0.0326,-66.4005
16:32:34:637,-1.0369,0.186,8.1041,33.1779,-0.0851,-0.2574,-0.022,-66.4005
16:32:34:657,-0.821,0.593,7.929,33.3618,-0.1031,-0.1914,0.01,-66.4005
16:32:34:677,-0.452,0.705,8.2211,31.8766,-0.0553,-0.1466,0.0036,-66.4005
16:32:34:696,-0.2681,0.6671,8.358,32.5212,0.1226,-0.0891,-0.0934,-66.4005
16:32:34:717,-0.845,1.0039,7.953,32.5212,0.3037,-0.0444,-0.2233,-66.4005
16:32:34:738,-1.436,1.4741,7.374,32.5212,0.3176,-0.0283,-0.2276,-66.4005
16:32:34:756,-1.6571,1.742,7.271,31.6965,0.1909,-0.0135,-0.1295,-66.4005
16:32:34:776,-1.3721,1.5191,7.8791,31.8766,0.0364,0.026,-0.0113,-66.4005
16:32:34:797,-1.01,0.995,8.906,32.3881,-0.0019,0.1196,0.0175,-66.4005
16:32:34:816,-0.8501,0.662,10.2161,31.8766,0.1024,0.2305,-0.039,-66.4005
16:32:34:839,-0.8351,0.617,11.001,31.6965,0.2718,0.1559,-0.1306,-66.4005
16:32:34:856,-1.0151,0.77,10.455,31.8766,0.3836,-0.0646,-0.2074,-66.4005
16:32:34:878,-1.4081,1.0211,9.6071,31.6965,0.3134,-0.1414,-0.202,-66.4005
16:32:34:896,-1.623,1.079,9.5951,31.6965,0.1343,-0.0732,-0.1167,-66.4005
16:32:34:917,-1.451,0.822,10.548,31.6965,-0.0084,0.0366,-0.0444,-66.4005
16:32:34:937,-1.353,0.6761,11.465,31.6965,-0.0403,0.0536,-0.0518,-66.4005
16:32:34:955,-1.5731,0.8771,11.729,31.0867,-0.1053,-0.0402,-0.0742,-66.4005
16:32:34:975,-1.587,0.899,11.808,31.0867,-0.3109,-0.1158,-0.0411,-66.4005
16:32:34:996,-1.259,0.176,13.661,31.0867,-0.3183,-0.0103,-0.0337,-66.4005
16:32:35:016,-0.941,-0.738,14.4011,31.0867,0.1759,-0.0572,-0.1338,-66.4005
16:32:35:039,-1.02,-0.92,11.4581,31.0867,0.5882,-0.1189,-0.3256,-66.4005
