Time,Acc_X,Acc_Y,Acc_Z,Meg,Gyr_X,Gyr_Y,Gyr_Z,Ore
17:14:45:654,-0.3011,3.482,9.224,45.4301,-0.0477,-0.0604,-0.2222,-128.438
17:14:45:675,-0.29,3.6071,9.0731,45.3981,-0.0446,-0.0817,-0.2094,-128.438
17:14:45:695,-0.234,3.5951,8.9111,45.7206,-0.0701,-0.0274,-0.1924,-128.438
17:14:45:714,-0.167,3.5591,8.9441,45.7417,-0.1085,0.0355,-0.1871,-128.438
17:14:45:734,-0.311,3.734,9.1841,45.7417,-0.0925,0.0974,-0.1775,-128.438
17:14:45:754,-0.6371,3.9011,9.447,46.2469,-0.0147,0.1272,-0.1594,-128.438
17:14:45:774,-0.7901,4.071,9.416,45.6995,0.0417,0.1068,-0.1286,-128.3381
17:14:45:794,-0.7901,4.146,9.2771,46.2266,0.0459,0.0451,-0.0934,-128.242
17:14:45:814,-0.558,4.1,9.227,45.6794,0.0246,-0.0359,-0.0689,-128.1418
17:14:45:834,-0.132,4.028,9.0401,46.2035,-0.001,-0.0209,-0.071,-128.0457
17:14:45:854,-0.024,3.9521,9.2771,45.4575,0.0257,0.0227,-0.0934,-127.9395
17:14:45:874,-0.0191,3.971,9.425,46.1943,0.0459,0.0238,-0.1008,-127.8283
17:14:45:894,0.0161,3.849,9.339,45.4575,0.0033,-0.0231,-0.1082,-127.7146
17:14:45:914,-0.203,3.657,9.255,45.4575,-0.0318,-0.0274,-0.1019,-127.5996
17:14:45:934,-0.3161,3.569,9.404,45.4575,-0.0073,-0.0155,-0.0817,-127.4843
17:14:45:954,-0.3251,3.573,9.3581,45.4575,0.0396,0.0568,-0.0487,-127.3692
17:14:45:974,-0.203,3.674,9.485,45.4575,0.0683,0.1815,-0.0411,-127.2552
17:14:45:994,-0.108,3.71,10.038,45.4481,0.1002,0.2294,-0.0923,-127.1429
17:14:46:014,0.253,3.674,10.347,45.4158,0.1482,0.2017,-0.235,-127.0323
17:14:46:034,-0.017,3.9371,10.1531,45.9563,0.2185,0.2582,-0.3086,-126.9219
17:14:46:054,-1.0369,4.292,9.7991,45.2976,0.1909,0.3009,-0.1605,-126.8085
17:14:46:074,-0.972,3.351,9.435,45.3398,0.0353,0.2966,-0.0826,-126.6905
17:14:46:094,-0.443,2.52,9.983,44.1834,-0.0052,0.1974,-0.1647,-126.5695
17:14:46:113,-0.249,2.149,10.5791,44.8204,0.1376,0.0334,-0.3149,-126.4466
17:14:46:134,-0.665,2.601,10.749,44.2402,0.3953,-0.0433,-0.3608,-126.3204
17:14:46:154,-1.214,2.9441,9.8951,44.6649,0.5637,-0.0891,-0.2767,-126.188
17:14:46:174,-1.602,3.162,8.477,45.2271,0.4529,-0.071,-0.1104,-126.048
17:14:46:194,-1.721,2.877,7.611,45.8425,0.1451,-0.0337,0.0494,-125.9013
17:14:46:214,-1.422,2.175,7.848,45.1132,-0.1394,0.0015,0.0824,-125.7518
17:14:46:234,-1.3001,1.799,8.6741,45.1244,-0.2512,0.0302,0.0377,-125.6035
17:14:46:254,-0.962,1.694,9.504,45.8098,-0.183,0.0067,-0.0837,-125.4592
17:14:46:274,-0.711,2.201,9.7391,45.8319,-0.0329,-0.0837,-0.2265,-125.3188
17:14:46:294,-0.953,3.0851,8.93,45.8217,0.0311,-0.1115,-0.2446,-125.18
17:14:46:314,-1.223,3.645,8.082,45.7893,-0.0456,-0.0817,-0.1616,-125.0396
17:14:46:334,-1.281,3.7721,8.051,44.6576,-0.1446,-0.0997,-0.0593,-124.8966
17:14:46:354,-1.0601,3.516,8.396,45.3704,-0.1906,-0.1647,-0.0049,-124.7521
17:14:46:374,-0.785,3.231,8.475,45.3591,-0.1915,-0.2085,-0.0049,-124.6081
17:14:46:394,-0.776,3.054,8.3,45.3375,-0.2086,-0.1977,-0.0113,-124.4665
17:14:46:414,-0.749,2.9561,8.372,46.0658,-0.2278,-0.1882,-0.0252,-124.3281
17:14:46:434,-0.6461,2.9651,8.5421,46.096,-0.2364,-0.1988,-0.0604,-124.1932
17:14:46:454,-0.6461,3.0251,8.628,45.1324,-0.2332,-0.1871,-0.104,-124.0617
17:14:46:474,-0.771,3.183,8.774,45.1693,-0.2001,-0.1477,-0.136,-123.9328
17:14:46:494,-0.881,3.377,9.05,45.1164,-0.1277,-0.1541,-0.1499,-123.8049
17:14:46:514,-0.9461,3.506,9.0641,45.0622,-0.0659,-0.2159,-0.1616,-123.6768
17:14:46:534,-0.9671,3.537,8.528,45.0192,-0.0712,-0.2062,-0.1838,-123.5474
17:14:46:554,-1.154,3.705,8.3411,45.8157,-0.0903,-0.1616,-0.1935,-123.4162
17:14:46:573,-1.269,3.9371,8.5181,45.5714,-0.0712,-0.1508,-0.1871,-123.2825
17:14:46:594,-1.484,4.088,8.568,45.4278,-0.0392,-0.1286,-0.153,-123.146
17:14:46:613,-1.707,4.1381,8.7889,45.4398,0.0225,-0.0891,-0.0785,-123.0067
17:14:46:634,-1.659,4.0811,8.973,45.4299,0.0609,-0.0561,0.0078,-122.8656
17:14:46:654,-1.319,3.9011,9.0401,45.42,0.03,-0.0465,0.0675,-122.7246
17:14:46:673,-0.761,3.3821,9.416,44.6453,0.0033,-0.0135,0.0451,-122.5857
17:14:46:693,-0.009,2.807,10.4381,45.125,0.0854,-0.0593,-0.1136,-122.4506
17:14:46:713,0.72,2.69,11.07,44.6654,0.209,-0.2489,-0.3842,-122.319
17:14:46:734,1.0841,3.245,10.575,45.4393,0.2142,-0.4322,-0.6346,-122.1872
17:14:46:753,0.986,3.815,9.545,45.4488,0.0874,-0.3767,-0.756,-122.0488
17:14:46:773,0.5089,4.031,9.267,45.0743,-0.0073,-0.0678,-0.7389,-121.8974
17:14:46:793,0.026,3.681,10.223,45.67,0.0023,0.1314,-0.6952,-121.7294
17:14:46:813,-0.285,3.2021,10.881,45.55,0.0098,0.1165,-0.6941,-121.5434
17:14:46:834,-0.5051,2.936,11.252,45.1686,-0.003,-0.0956,-0.7751,-121.3393
17:14:46:853,-0.9671,3.2621,11.073,45.8135,-0.0329,-0.3426,-0.7645,-121.1162
17:14:46:873,-0.828,3.581,10.637,45.4413,-0.0019,-0.48,-0.6781,-120.8732
17:14:46:893,-0.285,3.4541,9.9041,45.4137,0.111,-0.4961,-0.6142,-120.6112
17:14:46:912,0.15,3.197,8.5901,46.1766,0.1152,-0.3586,-0.5493,-120.3322
17:14:46:934,0.452,3.0011,7.6391,45.9041,-0.0414,-0.1253,-0.4896,-120.0389
17:14:46:953,0.32,2.891,7.958,46.4096,-0.2267,-0.055,-0.4066,-119.7337
17:14:46:973,0.3701,2.726,8.619,44.7041,-0.3663,-0.104,-0.3373,-119.4194
17:14:46:994,0.624,2.5151,8.966,45.4322,-0.4356,-0.1605,-0.3202,-119.0992
17:14:47:013,0.7841,2.381,9.27,45.3701,-0.4206,-0.2478,-0.3256,-118.7755
17:14:47:033,1.1051,2.2661,9.03,45.0345,-0.3908,-0.2989,-0.3575,-118.4497
17:14:47:053,1.589,2.046,8.76,46.4052,-0.3322,-0.3384,-0.4715,-118.1224
17:14:47:073,1.599,2.0651,8.228,45.5868,-0.2694,-0.3117,-0.5919,-117.7925
17:14:47:093,1.35,2.264,7.8521,45.3388,-0.2289,-0.2222,-0.6537,-117.4577
17:14:47:113,1.215,2.453,7.9481,46.1649,-0.1713,-0.1594,-0.6867,-117.1152
17:14:47:132,1.112,2.472,7.9841,46.5578,-0.1446,-0.0987,-0.7059,-116.7628
17:14:47:152,0.9281,2.477,8.135,45.5577,-0.1446,-0.0103,-0.692,-116.3993
17:14:47:173,0.732,2.3021,8.616,46.188,-0.1383,0.1005,-0.6633,-116.0238
17:14:47:192,0.636,2.204,9.495,46.0321,-0.0744,0.125,-0.6463,-115.6366
17:14:47:212,0.6821,2.108,10.046,45.6728,-0.0062,0.0206,-0.6835,-115.2384
17:14:47:232,0.7151,2.2181,9.921,46.3763,-0.0095,-0.0859,-0.7272,-114.8292
17:14:47:252,0.734,2.297,9.873,44.7198,-0.0052,-0.1423,-0.7793,-114.4088
17:14:47:273,0.555,2.412,9.8561,45.2413,0.047,-0.1466,-0.8156,-113.9764
17:14:47:292,0.1481,2.582,9.5021,45.0906,0.0874,-0.0177,-0.7784,-113.5308
17:14:47:312,-0.395,2.618,9.258,44.9721,0.0513,0.239,-0.6824,-113.0719
17:14:47:332,-1.01,2.429,9.581,45.5182,-0.0979,0.4786,-0.5642,-112.6002
17:14:47:352,-1.3121,2.118,10.97,46.8273,-0.2129,0.5021,-0.4896,-112.1178
17:14:47:372,-1.1471,1.7321,12.516,46.6025,-0.1585,0.2432,-0.5536,-111.6279
17:14:47:392,-1.1801,1.835,12.7391,45.6575,-0.0349,-0.0007,-0.6463,-111.1324
17:14:47:412,-1.563,2.142,11.408,45.5326,-0.0605,0.0047,-0.6463,-110.6312
17:14:47:432,-1.953,2.34,10.8911,45.4044,-0.1554,0.1431,-0.5664,-110.1233
17:14:47:452,-2.121,2.178,11.619,45.997,-0.0979,0.2432,-0.5035,-109.609
17:14:47:472,-2.2121,1.89,12.615,46.0022,0.1695,0.1517,-0.5002,-109.0899
17:14:47:492,-2.442,1.866,11.97,45.8433,0.4209,0.0675,-0.4737,-108.5673
17:14:47:512,-2.835,2.051,10.637,46.5374,0.5104,0.0877,-0.3447,-108.0416
17:14:47:532,-3.0911,2.1101,9.5501,46.5586,0.4124,0.1068,-0.1541,-107.5139
17:14:47:552,-2.894,1.9211,9.215,46.5377,0.242,-0.0081,0.0184,-106.987
17:14:47:572,-2.1671,1.6871,9.021,46.7519,0.1301,-0.1743,0.0909,-106.4657
17:14:47:592,-1.5701,1.677,8.626,46.0754,0.0832,-0.3202,0.0962,-105.9547
17:14:47:615,-1.2401,1.967,8.073,46.0629,0.0535,-0.4598,0.1239,-105.457
17:14:47:632,-0.783,2.082,7.3901,46.9414,-0.001,-0.5727,0.14,-104.9745
17:14:47:652,-0.266,2.094,6.66,46.8452,-0.1011,-0.5291,0.1144,-104.5088
17:14:47:672,0.0281,2.201,6.437,47.2429,-0.1841,-0.3032,0.1005,-104.0608
17:14:47:692,0.354,2.223,7.2161,47.2291,-0.1277,-0.1445,0.0525,-103.6303
17:14:47:711,0.461,2.048,7.9031,46.5623,0.0076,-0.1115,-0.0476,-103.2168
17:14:47:732,0.531,2.022,7.931,46.272,0.0811,-0.1594,-0.1712,-102.8181
17:14:47:752,0.468,2.2781,7.5941,46.5534,0.047,-0.1541,-0.2639,-102.4309
17:14:47:772,0.296,2.58,7.733,46.5489,0.0225,-0.0487,-0.2787,-102.0514
17:14:47:792,0.2291,2.601,8.2001,46.5514,0.0417,0.0962,-0.2893,-101.6768
17:14:47:813,0.255,2.3981,8.6981,47.0809,0.0396,0.1303,-0.3447,-101.3055
17:14:47:832,0.327,2.1371,9.464,46.2484,0.1099,0.0536,-0.4459,-100.936
17:14:47:852,0.662,1.964,10.247,47.0673,0.3026,-0.1551,-0.6249,-100.5665
17:14:47:872,0.579,2.051,9.6221,46.9673,0.3645,-0.3213,-0.7358,-100.1934
17:14:47:893,0.605,2.108,7.9271,46.9471,0.1749,-0.1275,-0.7091,-99.8124
17:14:47:912,0.878,1.682,8.0201,47.827,-0.0232,0.1911,-0.6793,-99.4207
17:14:47:931,1.191,1.1771,9.576,47.5255,-0.0712,0.2634,-0.7623,-99.0178
17:14:47:951,1.488,0.7631,10.4501,47.5048,-0.166,0.0877,-1.0308,-98.6034
17:14:47:971,0.993,1.172,10.943,47.4274,-0.2406,-0.0806,-1.4186,-98.1745
17:14:47:991,-1.307,2.637,11.915,47.4986,-0.181,-0.3299,-1.5176,-97.7245
17:14:48:011,-2.3321,2.5991,13.9001,48.1774,-0.1724,-0.8902,-1.4547,-97.2459
17:14:48:032,-2.693,3.327,12.5831,47.3974,-0.0041,-0.5429,-1.3525,-96.7354
17:14:48:051,-1.877,3.4901,12.219,48.1688,0.3112,-0.2852,-1.1991,-96.1927
17:14:48:072,-0.89,2.699,11.121,47.7451,0.2984,-0.3608,-1.1736,-95.6189
17:14:48:090,-0.371,1.668,9.366,48.6893,-0.0894,-0.4492,-1.2588,-95.0174
17:14:48:110,-0.7661,1.821,8.123,48.7149,-0.4931,-0.2659,-1.2077,-94.39
17:14:48:131,-1.1231,1.7231,7.9871,47.9399,-0.5911,0.1986,-0.9456,-93.7375
17:14:48:151,-0.713,1.083,7.5701,49.3765,-0.7008,0.7578,-0.7932,-93.0639
17:14:48:171,-0.7061,0.3461,8.3981,48.4518,-0.9681,0.7941,-0.7315,-92.3755
17:14:48:190,-0.618,-0.407,10.074,48.9272,-1.227,0.3103,-0.756,-91.6782
17:14:48:210,-0.438,-0.407,10.268,49.0147,-1.1716,0.1708,-0.8401,-90.9762
17:14:48:231,-0.5411,0.14,10.8521,48.7012,-0.7402,0.2412,-0.8902,-90.2715
17:14:48:250,-1.022,0.9851,11.015,49.4969,-0.1192,0.2262,-0.789,-89.5635
17:14:48:271,-1.752,1.941,10.1531,49.3213,0.4114,0.1218,-0.5024,-88.8515
17:14:48:290,-1.6901,2.474,8.8361,49.1865,0.7352,0.1016,-0.3234,-88.137
17:14:48:310,-1.793,2.513,8.1251,49.1721,0.9163,0.0792,-0.202,-87.4231
17:14:48:330,-1.6781,2.556,8.2001,49.1141,1.0058,-0.0188,-0.1573,-86.7131
17:14:48:350,-1.3691,2.462,8.202,49.3564,0.9056,-0.1892,-0.2446,-86.0096
17:14:48:370,-1.3811,2.2421,8.475,49.8809,0.7298,-0.6057,-0.285,-85.3133
17:14:48:390,-2.3051,2.336,9.129,49.2048,0.5892,-1.0073,-0.1115,-84.6238
17:14:48:410,-2.504,2.343,9.9551,49.6265,0.553,-1.1406,0.061,-83.9423
17:14:48:430,-1.6331,2.45,11.015,50.0721,0.6351,-1.1853,-0.006,-83.2724
17:14:48:450,-1.439,2.4551,10.848,50.6567,0.6713,-1.0223,-0.1669,-82.6169
17:14:48:470,-1.724,1.95,9.6821,49.9657,0.4933,-0.4289,-0.2426,-81.9751
17:14:48:490,-1.1201,1.9091,9.3341,50.8226,0.1514,0.1783,-0.2596,-81.3451
17:14:48:509,-0.7661,2.925,10.517,49.7386,-0.0861,0.2507,-0.2094,-80.7255
17:14:48:531,-1.113,3.315,11.319,49.7386,-0.2736,0.1602,-0.0806,-80.1161
17:14:48:550,-1.5461,3.1331,11.501,49.8429,-0.5133,0.1963,0.0664,-79.5182
17:14:48:571,-1.362,2.6801,11.865,51.3033,-0.6912,0.3381,0.19,-78.9346
17:14:48:591,-0.8711,2.0749,13.206,50.2579,-0.5911,0.2006,0.2486,-78.3691
17:14:48:610,-0.45,0.9761,12.818,51.223,-0.2171,-0.087,0.1836,-77.8256
17:14:48:631,-3.414,0.633,12.44,51.0809,0.1323,-0.577,0.2156,-77.3051
17:14:48:650,-3.3011,1.718,7.7381,51.0494,0.1024,-0.1519,0.4275,-76.8068
17:14:48:672,-0.129,0.636,8.7791,50.5015,-0.0095,-0.5567,0.4106,-76.3319
17:14:48:690,0.116,0.638,9.0641,51.4825,0.0874,-0.447,0.4106,-75.8825
17:14:48:711,-0.629,0.978,9.902,51.4931,0.505,-0.087,0.5362,-75.4592
17:14:48:730,-1.484,1.38,10.137,51.0217,0.9567,-0.0283,0.7259,-75.0626
17:14:48:749,-0.8261,1.4141,8.9471,52.7343,0.9323,0.2507,0.7685,-74.6947
17:14:48:769,0.701,1.433,7.146,52.5307,0.3006,0.3945,0.5789,-74.3582
17:14:48:791,0.986,1.9361,6.138,51.2803,-0.2119,0.2443,0.3296,-74.0537
17:14:48:810,0.0161,2.771,6.0281,51.7146,-0.2981,0.5767,0.3094,-73.7777
17:14:48:830,-0.005,2.589,6.203,51.7086,-0.3109,0.8984,0.287,-73.5261
17:14:48:850,0.435,1.881,6.674,51.4103,-0.4089,0.8771,0.0846,-73.2963
17:14:48:870,-0.318,2.235,7.637,51.9573,-0.5005,0.582,-0.0348,-73.0849
17:14:48:890,-1.4891,2.652,9.627,51.9082,-0.3706,0.2582,0.0547,-72.887
17:14:48:910,-1.482,2.142,10.0811,51.7986,-0.0872,0.0408,0.1602,-72.6997
17:14:48:930,-1.281,1.6031,10.113,51.7288,0.1386,-0.4118,0.2156,-72.5227
17:14:48:950,-1.2281,1.5071,9.758,52.1637,0.2036,-0.9371,0.3029,-72.3564
17:14:48:969,-0.9431,1.9451,8.858,51.7647,-0.0158,-0.723,0.3487,-72.2019
17:14:48:990,-0.129,2.3021,8.882,51.6116,-0.3706,-0.1167,0.1847,-72.0605
17:14:49:010,0.849,2.826,11.2931,52.6116,-0.1128,0.0899,-0.0912,-71.933
17:14:49:030,0.978,2.951,12.861,51.6316,0.0715,0.2881,-0.3182,-71.8159
17:14:49:049,0.32,2.585,12.6701,52.5859,0.225,0.4777,-0.3799,-71.7029
17:14:49:070,0.1571,2.709,11.6471,53.1365,0.1929,0.1665,-0.4001,-71.5882
17:14:49:090,0.5021,2.649,10.982,52.1659,0.0151,-0.2287,-0.496,-71.468
17:14:49:109,-0.002,2.549,12.825,52.6046,0.0769,-0.4353,-0.4598,-71.3396
17:14:49:129,-0.026,1.6511,14.3171,52.5851,0.5136,-0.6494,-0.4001,-71.2011
17:14:49:150,-0.498,1.3871,12.102,53.1892,0.7426,-1.0084,-0.2414,-71.0518
17:14:49:169,-1.001,1.292,8.841,53.8472,0.5818,-1.2853,-0.0774,-70.8928
17:14:49:190,0.1001,1.34,7.635,53.4886,0.1738,-1.638,-0.1754,-70.7277
17:14:49:209,1.335,1.5,7.6271,53.7046,-0.7732,-2.2399,-0.3245,-70.5594
17:14:49:229,1.9241,0.633,8.87,54.2121,-1.2345,-2.7778,-0.4652,-70.5594
17:14:49:249,2.561,0.408,8.111,54.191,-1.1748,-0.9115,-0.6047,-70.3966
17:14:49:269,1.668,1.16,10.1681,54.9882,-0.5676,-0.3532,-0.8561,-70.2287
17:14:49:289,2.3651,1.335,9.8231,53.5755,0.063,0.5798,-0.9019,-70.0467
17:14:49:309,0.693,1.605,8.003,53.8927,0.3069,1.2361,-0.6057,-69.8454
17:14:49:329,0.387,1.126,7.512,54.6806,0.1163,1.0497,-0.4513,-69.6248
17:14:49:349,-0.1271,1.6511,6.5981,54.6127,-0.2171,0.7311,-0.4364,-69.3891
17:14:49:369,0.1331,2.415,6.8921,54.9578,-0.3578,0.5661,-0.462,-69.1412
17:14:49:389,0.4301,2.498,8.619,53.7626,-0.0073,0.4521,-0.5258,-68.8827
17:14:49:408,0.203,2.5751,9.038,54.3009,0.3901,0.3444,-0.5599,-68.6143
17:14:49:428,-0.321,2.465,8.535,54.2342,0.5019,0.1027,-0.5269,-68.3356
17:14:49:449,-0.692,2.58,8.298,55.2748,0.3645,-0.1999,-0.4353,-68.0467
17:14:49:469,-0.462,2.5871,9.045,54.2126,0.2303,-0.4151,-0.3862,-67.7484
17:14:49:489,-0.048,2.618,10.287,54.8899,0.3037,-0.4524,-0.381,-67.4425
17:14:49:508,0.0641,2.6831,10.658,54.8899,0.472,-0.3032,-0.3267,-67.1304
17:14:49:528,0.152,2.711,10.476,54.5433,0.4837,-0.2468,-0.2244,-66.8134
17:14:49:548,0.279,2.8121,10.223,55.5981,0.2867,-0.267,-0.1743,-66.4935
17:14:49:568,0.4331,2.877,10.476,55.5836,0.1121,-0.1391,-0.1786,-66.1737
17:14:49:589,0.318,2.879,10.244,55.605,-0.036,0.1261,-0.1499,-65.8556
17:14:49:608,0.203,2.664,9.729,54.5327,-0.3982,0.1665,-0.1402,-65.5401
17:14:49:628,0.342,2.178,10.6271,56.0469,-0.7978,-0.153,-0.2233,-65.2277
17:14:49:648,0.1091,1.665,12.722,55.7692,-0.6773,-0.2819,-0.2307,-64.918
17:14:49:668,-0.534,1.1051,12.734,55.6739,-0.0861,0.1783,0.0291,-64.6097
17:14:49:689,-1.3961,1.1621,10.6151,55.9553,0.2474,0.5329,0.4829,-64.3043
17:14:49:709,-0.912,1.443,8.856,55.9513,0.0331,0.256,0.6502,-64.0085
17:14:49:728,0.248,1.6991,8.9561,55.9089,-0.3205,-0.2894,0.4329,-63.7309
17:14:49:747,0.773,1.646,9.923,55.5725,-0.5197,-0.6377,0.1133,-63.4754
17:14:49:768,0.267,1.359,10.496,55.6203,-0.5229,-0.5419,0.0015,-63.2393
17:14:49:788,-0.56,1.203,10.4261,56.3161,-0.4323,-0.2606,0.1389,-63.0172
17:14:49:809,-0.7901,1.1171,10.3301,56.3253,-0.3513,-0.1807,0.3051,-62.806
17:14:49:828,-0.5051,1.076,10.79,56.2842,-0.1446,-0.3404,0.3956,-62.6067
17:14:49:849,-0.1031,1.196,10.883,56.2269,0.275,-0.4289,0.4797,-62.4216
17:14:49:868,0.236,1.2371,10.649,57.068,0.7671,-0.5451,0.5798,-62.2531
17:14:49:889,0.452,1.433,9.7061,57.1177,1.3094,-0.4961,0.6693,-62.1046
17:14:49:908,0.705,1.833,7.512,56.9681,1.6247,-0.1882,0.7205,-61.9794
17:14:49:928,1.2971,2.087,5.147,56.8578,1.4073,0.1079,0.5681,-61.8813
17:14:49:948,1.656,2.321,4.0121,55.5726,0.7778,0.1474,0.2219,-61.8813
17:14:49:968,1.34,2.673,4.419,56.686,0.0661,-0.0092,-0.1189,-61.8813
17:14:49:988,1.031,2.64,6.296,56.9808,-0.345,-0.087,-0.364,-61.8813
17:14:50:010,0.4421,2.508,8.3149,56.6599,-0.3481,0.0888,-0.4087,-61.8813
17:14:50:028,0.0401,2.201,9.344,56.6156,-0.1852,0.3211,-0.2809,-61.8813
17:14:50:048,-0.005,2.0201,9.674,56.905,-0.1298,0.2241,-0.1328,-61.8813
17:14:50:068,0.6101,2.0051,9.701,56.907,-0.2597,-0.1093,-0.0763,-61.8813
17:14:50:089,1.8191,2.187,10.3691,56.5869,-0.4132,-0.3256,-0.1733,-61.8813
17:14:50:107,2.573,2.367,11.0651,56.6137,-0.4143,-0.07,-0.3767,-61.8813
17:14:50:127,2.408,2.403,10.8401,56.7978,-0.4643,0.3083,-0.5152,-61.8813
17:14:50:147,2.396,2.1851,10.974,56.7767,-0.6975,0.1869,-0.7006,-61.8813
17:14:50:167,2.525,1.67,12.251,56.402,-0.868,-0.2287,-0.9615,-61.7827
17:14:50:187,1.9361,1.035,13.239,56.5579,-0.6603,-0.1807,-1.0148,-61.6638
17:14:50:207,1.079,0.528,12.978,57.6017,-0.314,0.0909,-0.7699,-61.5191
17:14:50:227,0.6,0.485,12.366,57.5441,-0.1702,-0.0572,-0.4609,-61.3478
17:14:50:247,1.481,0.4901,11.949,57.4924,-0.1415,-0.3182,-0.3384,-61.1551
17:14:50:268,2.36,0.7151,11.2451,57.3018,-0.0861,-0.2201,-0.3532,-60.9471
17:14:50:289,2.322,1.232,9.729,57.2831,-0.1756,0.0931,-0.4161,-60.7284
17:14:50:307,1.833,1.629,8.331,57.5247,-0.4291,0.3466,-0.4917,-60.5007
17:14:50:327,1.1051,1.907,8.19,57.5463,-0.5985,0.3807,-0.5376,-60.2641
17:14:50:347,0.3731,2.108,8.889,57.5861,-0.4729,0.2699,-0.5045,-60.0173
17:14:50:367,-0.179,2.163,9.188,57.8274,-0.0989,0.2017,-0.4055,-59.7595
17:14:50:390,-0.488,2.2301,8.58,57.7974,0.2633,0.2347,-0.2489,-59.4917
17:14:50:406,-0.527,2.321,7.584,58.8432,0.4379,0.2571,-0.104,-59.2172
17:14:50:427,-0.227,2.403,6.998,58.8386,0.4668,0.1826,-0.039,-58.9402
17:14:50:447,0.047,2.501,6.663,58.7971,0.3847,0.0132,-0.0433,-58.6646
17:14:50:467,0.447,2.5511,6.8951,57.6647,0.2952,-0.1264,-0.105,-58.3931
17:14:50:487,0.485,2.474,7.9631,58.7481,0.3325,-0.2403,-0.1434,-58.1263
17:14:50:507,0.179,2.343,8.9681,59.8662,0.4273,-0.3629,-0.1115,-57.864
17:14:50:527,-0.0191,2.364,9.363,58.5127,0.5349,-0.2852,-0.0465,-57.6055
17:14:50:547,-0.0671,2.589,9.081,58.5279,0.5968,0.0291,0.0601,-57.3514
17:14:50:566,-0.014,2.771,8.465,58.8836,0.439,0.2134,0.1314,-57.1034
17:14:50:590,0.095,3.042,8.4101,58.8237,0.0874,0.1079,0.1155,-56.8638
17:14:50:606,0.729,2.9531,9.461,58.5313,-0.2534,-0.1391,-0.0177,-56.6341
17:14:50:626,1.184,2.7641,10.836,59.9095,-0.3301,-0.0209,-0.1178,-56.4137
17:14:50:647,0.914,2.925,11.5181,59.8518,-0.3376,0.2816,-0.1115,-56.2002
17:14:50:666,0.6431,3.075,11.846,59.8552,-0.5283,0.2614,-0.1414,-55.9914
17:14:50:687,0.5351,2.604,13.026,59.7827,-0.6017,0.0781,-0.2127,-55.786
17:14:50:707,-0.1511,1.883,13.539,59.0046,-0.2438,0.3572,-0.0657,-55.582
17:14:50:726,-1.1111,1.749,11.903,58.8711,0.159,0.8026,0.3125,-55.3786
17:14:50:747,-0.867,1.8401,10.4411,59.1651,0.2036,0.5192,0.5096,-55.1803
17:14:50:767,0.1931,1.8641,10.1321,59.1407,-0.0158,-0.3245,0.4106,-54.9939
17:14:50:786,1.158,1.665,10.529,60.2369,-0.117,-0.7688,0.1708,-54.8239
17:14:50:806,1.1681,1.533,10.364,61.0642,-0.0946,-0.6005,0.0536,-54.6697
17:14:50:826,0.626,1.553,9.6701,59.6921,-0.1244,-0.202,0.1155,-54.5276
17:14:50:846,0.4781,1.613,9.1121,59.9302,-0.1926,0.092,0.1878,-54.3953
17:14:50:866,0.638,1.706,9.038,59.9042,-0.1628,0.1517,0.1815,-54.2725
17:14:50:886,0.545,1.713,9.002,60.2183,0.0151,0.0664,0.1506,-54.1594
17:14:50:907,0.174,1.718,8.645,59.9533,0.2355,-0.087,0.1622,-54.0556
17:14:50:927,-0.132,1.7201,8.087,61.1473,0.439,-0.1349,0.2241,-53.9605
17:14:50:947,-0.1631,1.665,7.46,61.2439,0.5797,-0.0582,0.2838,-53.9605
17:14:50:966,-0.225,1.6871,6.866,61.3218,0.6031,0.0004,0.3103,-53.9605
17:14:50:986,-0.1511,1.725,6.509,60.322,0.5264,0.0015,0.2901,-53.9605
17:14:51:007,-0.1601,1.79,6.8681,60.4755,0.4049,-0.1775,0.2208,-53.9605
17:14:51:026,-0.1271,1.7231,7.845,60.6145,0.3187,-0.3981,0.14,-53.9605
17:14:51:046,-0.0911,1.632,8.678,60.4457,0.3187,-0.331,0.1187,-53.9605
17:14:51:067,0.1841,1.562,8.753,60.4487,0.2516,-0.0572,0.157,-53.9605
17:14:51:086,0.6821,1.589,8.7191,60.408,-0.0041,0.044,0.1324,-53.9605
17:14:51:106,1.268,1.6841,9.251,60.408,-0.3471,-0.1371,-0.0027,-53.9605
17:14:51:126,1.883,1.622,10.397,60.1074,-0.5921,-0.3469,-0.1892,-53.9605
17:14:51:146,2.159,1.428,11.7911,60.2195,-0.5793,-0.3395,-0.3171,-53.9605
17:14:51:166,2.3501,1.1891,11.961,59.8292,-0.4462,-0.0368,-0.3523,-53.9605
17:14:51:185,2.508,1.268,11.549,60.039,-0.5644,0.0355,-0.4555,-53.9605
17:14:51:205,2.439,1.3871,11.8511,59.9587,-0.7061,0.0942,-0.6366,-53.9605
17:14:51:225,1.79,1.098,12.291,60.0754,-0.5633,0.4414,-0.6313,-53.9605
17:14:51:245,0.9311,1.074,11.8721,60.3242,-0.362,0.5522,-0.4513,-53.9605
17:14:51:266,1.208,1.088,11.3741,60.2066,-0.3407,0.0835,-0.3629,-53.8647
17:14:51:285,2.274,0.7961,11.6591,59.8667,-0.4153,-0.5291,-0.4694,-53.7545
17:14:51:306,2.642,0.6521,11.484,59.8168,-0.4493,-0.513,-0.5547,-53.6314
17:14:51:326,2.372,0.6791,10.632,59.7684,-0.5272,-0.0902,-0.5195,-53.4945
17:14:51:345,1.845,0.8921,9.737,59.6515,-0.6167,0.2753,-0.4577,-53.3432
17:14:51:365,1.2731,1.229,9.21,58.8134,-0.6017,0.402,-0.4129,-53.1781
17:14:51:385,0.806,1.5221,8.9681,58.7853,-0.4579,0.3018,-0.3767,-53.0006
17:14:51:407,0.33,1.7591,8.762,60.2782,-0.2108,0.0718,-0.3362,-52.8124
17:14:51:425,0.0281,1.926,8.42,59.1371,0.0843,-0.0774,-0.2841,-52.6152
17:14:51:446,0.033,1.988,7.788,59.1304,0.3112,-0.0518,-0.2361,-52.4109
17:14:51:465,0.162,2.0891,7.1441,59.1193,0.4092,0.076,-0.2148,-52.2017
17:14:51:485,0.33,2.127,6.761,59.1425,0.3389,0.1122,-0.2435,-51.9895
17:14:51:506,0.3461,2.154,7.2611,59.4956,0.2431,-0.0198,-0.2978,-51.7753
17:14:51:526,0.0971,2.1101,8.283,59.5028,0.2644,-0.2094,-0.2958,-51.5589
17:14:51:545,-0.182,2.0651,8.999,59.2147,0.3219,-0.2691,-0.1712,-51.3395
17:14:51:565,-0.2201,2.166,9.141,59.2147,0.3475,-0.0283,0.0067,-51.118
17:14:51:585,0.131,2.264,9.33,58.5294,0.3443,0.2475,0.1272,-50.8972
17:14:51:606,0.5089,2.388,9.6221,58.6123,0.2526,0.304,0.1761,-50.681
17:14:51:629,0.734,2.525,10.077,58.9849,0.1152,0.1997,0.1452,-50.4728
17:14:51:645,0.959,2.529,10.575,58.9849,-0.0052,0.2091,0.0419,-50.2744
17:14:51:665,0.7871,2.51,10.656,59.3876,-0.1693,0.3637,-0.0241,-50.0857
17:14:51:685,0.428,2.649,10.7141,58.74,-0.4377,0.3668,-0.0444,-49.9047
17:14:51:706,0.533,2.3741,12.626,58.7303,-0.6507,-0.121,-0.1924,-49.7299
17:14:51:725,0.018,1.565,15.033,59.3161,-0.3311,-0.3469,-0.2233,-49.5587
17:14:51:745,-0.9,0.7481,14.5541,59.3102,0.3901,0.2305,0.1187,-49.3881
17:14:51:765,-1.032,0.564,12.14,58.7449,0.6883,0.4723,0.5053,-49.2191
17:14:51:785,0.227,1.002,10.239,57.8358,0.3475,-0.0252,0.5075,-49.0587
17:14:51:807,1.689,1.239,10.0121,57.756,-0.0169,-0.4268,0.1932,-48.9134
17:14:51:824,1.733,1.3421,10.352,58.7848,-0.1255,-0.3916,-0.0934,-48.7838
17:14:51:845,0.959,1.347,9.876,58.7414,-0.1713,-0.1243,-0.1551,-48.6651
17:14:51:865,0.444,1.3181,9.327,58.7225,-0.198,0.1122,-0.072,-48.5518
17:14:51:885,0.3491,1.28,9.516,58.7239,-0.0414,0.208,0.026,-48.4411
17:14:51:907,0.294,1.419,9.504,58.7225,0.3069,0.2102,0.1079,-48.3329
17:14:51:925,0.279,1.481,8.748,58.1815,0.6181,0.1229,0.1431,-48.2286
17:14:51:945,0.15,1.538,7.584,58.25,0.7736,0.0814,0.1613,-48.1299
17:14:51:965,0.0881,1.526,6.653,57.3531,0.7831,0.1144,0.1698,-48.0381
17:14:51:984,-0.1001,1.4381,5.927,57.4524,0.6776,0.2145,0.1815,-48.0381
17:14:52:007,-0.275,1.404,5.8391,56.5695,0.4956,0.2028,0.19,-48.0381
17:14:52:024,-0.56,1.4861,6.576,58.1495,0.3421,-0.0188,0.1676,-48.0381
17:14:52:044,-0.3521,1.526,8.0059,58.1184,0.3123,-0.3224,0.0718,-48.0381
17:14:52:064,-0.402,1.352,9.117,56.6207,0.4177,-0.4161,0.0675,-48.0381
17:14:52:084,0.026,1.3181,8.7431,56.7723,0.3697,-0.103,0.0771,-48.0381
17:14:52:108,0.21,1.1651,8.595,55.693,0.0982,-0.0283,0.1027,-48.0381
17:14:52:124,0.758,1.2371,8.9471,55.693,-0.2864,-0.136,0.059,-48.0381
17:14:52:144,1.44,1.352,10.4141,55.553,-0.4601,-0.1764,-0.1147,-48.0381
17:14:52:164,1.488,1.4711,11.9351,55.8771,-0.3003,-0.0177,-0.2426,-48.0381
17:14:52:184,1.488,1.416,11.726,55.8522,-0.1543,0.2166,-0.2809,-48.0381
17:14:52:208,1.649,1.6031,11.123,55.8273,-0.2949,0.1815,-0.4044,-48.0381
17:14:52:224,1.745,1.526,11.48,54.7061,-0.393,0.0984,-0.6196,-48.0381
17:14:52:244,1.218,1.4351,11.4941,56.152,-0.3162,0.2241,-0.6601,-48.0381
17:14:52:264,0.966,1.229,10.9481,55.0665,-0.3598,0.1335,-0.6142,-47.9467
17:14:52:284,1.3091,0.968,11.144,56.0161,-0.5452,-0.298,-0.6441,-47.8384
17:14:52:306,1.5221,0.782,11.5541,55.5822,-0.6082,-0.4279,-0.6687,-47.7126
17:14:52:324,1.287,0.8321,11.1041,54.8062,-0.5985,-0.1807,-0.561,-47.5686
17:14:52:344,1.0931,1.115,10.311,54.8238,-0.6571,0.0323,-0.4322,-47.4068
17:14:52:364,1.065,1.3901,9.708,54.9842,-0.704,0.125,-0.397,-47.2299
17:14:52:384,0.878,1.605,9.524,54.8837,-0.6315,0.1196,-0.3873,-47.0407
17:14:52:404,0.303,1.823,9.5951,54.869,-0.3982,-0.0103,-0.3469,-46.8414
17:14:52:424,-0.371,1.9601,9.567,54.8017,-0.0137,-0.0615,-0.2222,-46.6333
17:14:52:444,-0.6371,2.087,8.621,54.7927,0.3794,0.0962,-0.0155,-46.4188
17:14:52:464,-0.476,2.1941,7.172,53.8075,0.5445,0.239,0.0984,-46.2018
17:14:52:483,-0.311,2.4461,5.939,54.2849,0.4487,0.2975,0.1016,-45.9873
17:14:52:504,-0.299,2.673,5.633,54.2522,0.2335,0.2145,0.0451,-45.7785
17:14:52:523,-0.5411,2.889,6.818,53.229,0.1216,-0.0433,-0.0081,-45.5768
17:14:52:544,-0.7991,2.8601,8.798,54.2298,0.2025,-0.3736,0.0184,-45.3817
17:14:52:564,-0.7421,2.735,10.1651,53.78,0.389,-0.5173,0.1229,-45.1926
17:14:52:583,-0.3041,2.549,10.352,52.7666,0.5115,-0.3736,0.1932,-45.0103
17:14:52:603,0.339,2.304,10.122,52.6932,0.4615,-0.1733,0.1986,-44.8365
17:14:52:624,0.732,2.1371,10.232,52.5859,0.2622,-0.1328,0.206,-44.6729
17:14:52:644,1.206,2.01,10.656,52.5347,0.0652,-0.0572,0.157,-44.5207
17:14:52:663,1.397,1.926,10.481,52.5264,-0.1778,0.2347,0.0408,-44.3798
17:14:52:683,0.77,2.0201,10.146,51.5345,-0.5389,0.4766,-0.0529,-44.2487
17:14:52:704,0.188,1.857,11.1161,52.1228,-0.8979,0.2762,-0.1189,-44.1245
17:14:52:723,-0.218,1.1411,13.967,52.1456,-0.8158,-0.169,-0.1125,-44.0039
17:14:52:743,-1.029,0.528,14.832,51.1085,-0.1255,0.0984,0.2113,-43.8844
17:14:52:763,-1.422,0.4541,12.7751,52.0716,0.4689,0.5244,0.6981,-43.7675
17:14:52:783,-0.6851,0.767,10.263,51.0787,0.356,0.109,0.8717,-43.6608
17:14:52:803,0.547,0.9041,9.2291,51.9247,-0.1128,-0.6196,0.7162,-43.6608
17:14:52:823,1.275,0.9731,9.969,51.4098,-0.3311,-0.8071,0.4681,-43.6608
17:14:52:843,1.1081,0.9371,10.062,51.3249,-0.3897,-0.4417,0.3509,-43.6608
17:14:52:863,0.452,0.9041,9.2531,49.79,-0.5389,-0.0487,0.3765,-43.6608
17:14:52:883,-0.0761,0.7151,9.117,50.8049,-0.6102,0.1122,0.4681,-43.6608
17:14:52:903,-0.39,0.6641,9.825,51.3715,-0.3769,-0.0496,0.6736,-43.6608
17:14:52:923,-0.1871,0.425,10.433,49.845,0.2739,-0.2894,0.7898,-43.6608
17:14:52:944,0.0041,0.8321,9.72,51.0027,1.0644,-0.2872,0.8569,-43.6608
17:14:52:963,0.5741,1.4471,7.031,50.938,1.3626,-0.0806,0.9005,-43.6608
17:14:52:983,1.4501,1.9961,4.869,50.9166,1.0729,-0.0348,0.727,-43.7512
17:14:53:002,2.31,2.3141,4.467,49.1125,0.5849,-0.1616,0.3242,-43.8688
17:14:53:023,2.422,2.345,5.6741,49.4385,0.2601,-0.2574,-0.1221,-44.0089
17:14:53:044,1.613,2,6.581,49.3983,0.1078,-0.121,-0.3629,-44.1615
17:14:53:063,0.591,1.73,7.271,48.3737,-0.0104,0.0089,-0.3202,-44.3153
17:14:53:083,0.4211,1.565,8.264,48.8657,-0.069,0.0025,-0.1712,-44.4625
17:14:53:103,1.136,1.3541,9.3851,49.3587,-0.0733,-0.1414,-0.1243,-44.6004
17:14:53:122,1.848,1.2461,10.0721,48.8607,-0.1458,-0.3714,-0.2159,-44.7294
17:14:53:144,2.255,1.2491,10.292,48.886,-0.3684,-0.3853,-0.3873,-44.8493
17:14:53:162,2.183,1.478,10.953,48.4664,-0.59,-0.1786,-0.5226,-44.9577
17:14:53:182,1.9001,1.4861,11.765,48.9859,-0.6369,0.0994,-0.5962,-45.0507
17:14:53:202,1.862,1.373,12.2291,48.4892,-0.6688,0.1027,-0.6824,-45.0507
17:14:53:223,2.0201,1.184,12.801,48.0251,-0.7604,-0.1167,-0.8998,-45.0507
17:14:53:243,1.3421,0.791,13.3691,47.7992,-0.5985,0.0931,-0.9445,-45.0507
17:14:53:263,0.576,0.435,13.1051,48.3258,-0.2321,0.4658,-0.7239,-45.0507
17:14:53:282,0.267,0.456,12.231,48.2965,-0.0755,0.2646,-0.4885,-45.0507
17:14:53:303,0.911,0.365,11.64,48.4141,-0.1873,-0.3054,-0.4843,-45.0507
17:14:53:323,1.5461,0.0371,11.748,48.1097,-0.2736,-0.4769,-0.5471,-45.0507
17:14:53:343,1.419,0.059,11.616,48.1056,-0.2534,-0.1627,-0.5269,-44.954
17:14:53:362,0.99,0.2981,10.5941,48.2715,-0.2907,0.2923,-0.4385,-44.8403
17:14:53:382,0.567,0.669,9.528,47.4482,-0.3492,0.5937,-0.333,-44.711
17:14:53:402,0.222,1.071,8.9921,47.9377,-0.2822,0.631,-0.2329,-44.5686
17:14:53:422,-0.036,1.478,8.748,47.8747,-0.0872,0.4542,-0.1466,-44.4163
17:14:53:444,-0.1361,1.754,8.3051,47.8241,0.1206,0.2294,-0.0572,-44.2574
17:14:53:462,-0.05,1.8851,7.9721,47.8298,0.3048,0.1016,0.061,-44.0956
17:14:53:482,0.152,1.895,7.9481,47.7916,0.5552,0.1218,0.1963,-43.9345
17:14:53:502,0.4181,1.9001,7.479,47.6645,0.7469,0.2518,0.3338,-43.7782
17:14:53:522,0.789,2.058,6.7421,47.533,0.7256,0.3924,0.3956,-43.6312
17:14:53:542,0.95,2.307,6.7181,47.9816,0.5882,0.3509,0.3296,-43.4972
17:14:53:562,0.5351,2.4911,7.244,46.9107,0.4731,0.14,0.2507,-43.378
17:14:53:582,-0.371,2.082,7.673,47.8451,0.3964,0.1293,0.3296,-43.2729
17:14:53:602,-0.141,2.951,8.195,47.3466,0.4518,0.3455,0.2975,-43.1815
17:14:53:636,0.258,2.573,9.05,47.3324,0.389,0.1239,0.1954,-43.1815
17:14:53:641,-0.06,2.3831,8.829,47.2908,0.0822,-0.1147,0.1144,-43.1815
17:14:53:661,0.3581,2.058,9.9191,46.8218,-0.247,-0.1829,-0.0103,-43.1815
17:14:53:681,0.8471,2.1101,11.8961,46.8218,-0.2799,-0.022,-0.1658,-43.1815
17:14:53:702,0.4781,2.1941,12.966,46.806,-0.2842,0.1634,-0.2393,-43.1815
17:14:53:722,0.126,2.084,13.484,47.101,-0.4132,0.1059,-0.2724,-43.1815
17:14:53:745,-0.3131,1.668,14.6111,47.073,-0.2555,0.0377,-0.2287,-43.1815
17:14:53:762,-0.855,1.0691,14.436,46.893,0.3495,0.3637,0.0483,-43.1815
17:14:53:782,-1.142,0.7511,12.131,47.3833,0.7448,0.5831,0.4573,-43.1815
17:14:53:802,-0.495,1.052,9.7181,46.3843,0.5445,0.2881,0.6384,-43.1815
17:14:53:821,1.5671,1.062,9.0281,46.6801,0.0578,-0.348,0.3519,-43.1815
17:14:53:844,1.539,1.28,9.557,46.6874,-0.2512,-0.5781,0.0269,-43.1815
17:14:53:861,0.801,1.071,9.9191,46.7671,-0.3354,-0.4161,-0.0848,-43.1815
17:14:53:882,0.069,1.146,9.816,46.2617,-0.2555,-0.1743,0.0004,-43.1815
17:14:53:901,-0.1721,1.3301,9.3341,46.2777,-0.1255,-0.1914,0.109,-43.1815
17:14:53:921,0.011,1.3541,8.748,47.2915,0.0118,-0.4535,0.1409,-43.1815
17:14:53:943,0.026,1.3751,8.1371,45.802,0.1866,-0.6025,0.1687,-43.1815
17:14:53:961,0.203,1.409,7.6901,46.7626,0.3666,-0.5067,0.1963,-43.1815
17:14:53:982,0.21,1.565,7.1081,46.247,0.4433,-0.3234,0.2262,-43.1815
17:14:54:002,0.272,1.6361,6.641,46.2062,0.439,-0.1221,0.2497,-43.1815
17:14:54:021,0.1481,1.67,6.423,46.1808,0.358,-0.0646,0.2773,-43.1815
17:14:54:044,-0.081,1.6751,6.744,45.0968,0.2633,-0.1647,0.3168,-43.1815
17:14:54:061,-0.098,1.725,7.536,46.1058,0.2377,-0.3438,0.3541,-43.1815
17:14:54:081,0.354,1.6841,8.049,47.1036,0.1738,-0.4587,0.3305,-43.1815
17:14:54:102,0.945,1.4591,8.37,45.6072,0.0578,-0.3139,0.2773,-43.1815
17:14:54:122,1.436,1.1621,8.5661,45.5818,-0.1128,-0.0422,0.2358,-43.1815
17:14:54:142,1.8641,0.9011,8.882,45.5818,-0.3535,0.0473,0.1559,-43.1815
17:14:54:162,2.12,1.028,9.471,45.6826,-0.6667,-0.1519,0.0473,-43.1815
17:14:54:181,2.4821,1.17,10.637,44.3302,-0.9064,-0.3191,-0.1722,-43.1815
17:14:54:202,2.408,0.9881,11.9351,45.9034,-0.8638,-0.1807,-0.3853,-43.1815
17:14:54:222,1.9961,0.899,12.0401,45.5928,-0.7307,0.1655,-0.4097,-43.1815
17:14:54:244,1.955,1.074,12.119,44.6943,-0.7509,0.0974,-0.4151,-43.1815
17:14:54:261,2.3261,1.28,12.914,44.6051,-0.7083,-0.1977,-0.5589,-43.1815
17:14:54:282,2.6831,1.062,13.22,44.7305,-0.4931,-0.1093,-0.7506,-43.1815
17:14:54:302,2.187,0.609,12.045,44.506,-0.3737,0.158,-0.6974,-43.1815
17:14:54:321,2.0531,0.662,10.946,44.7214,-0.5197,0.158,-0.6474,-43.1815
17:14:54:343,2.4461,0.734,10.235,43.9439,-0.7487,0.1133,-0.7474,-43.1815
17:14:54:361,2.523,0.561,9.84,44.1557,-0.9373,0.0547,-0.8965,-43.1815
17:14:54:381,2.238,0.5711,9.861,44.6917,-1.0332,-0.0615,-0.9541,-43.0907
17:14:54:402,1.211,0.4391,10.5221,44.8632,-0.8521,-0.0635,-0.7804,-42.9715
17:14:54:422,0.32,0.456,10.725,43.3855,-0.4249,0.0269,-0.4993,-42.8238
17:14:54:444,0.0971,0.767,10.077,43.2943,-0.018,0.1207,-0.2926,-42.6521
17:14:54:462,0.3341,1.0571,8.666,44.2835,0.1716,0.2049,-0.2659,-42.4636
17:14:54:482,0.1811,1.313,7.886,44.929,0.2494,0.1878,-0.3021,-42.2647
17:14:54:501,-0.395,1.344,7.661,43.2781,0.3645,0.0974,-0.1829,-42.0586
17:14:54:522,-0.6341,1.445,7.2971,43.2676,0.4081,0.0686,-0.0113,-41.848
17:14:54:546,-0.1631,1.644,7.23,43.0257,0.3613,0.043,0.044,-41.6369
17:14:54:561,0.507,1.806,8.1371,43.0203,0.3773,-0.104,-0.0507,-41.4291
17:14:54:582,0.464,1.715,9.3131,43.8356,0.5126,-0.2872,-0.0954,-41.2263
17:14:54:602,0.1841,1.5671,9.399,43.8061,0.6062,-0.1733,0.01,-41.0281
17:14:54:621,0.275,1.6391,8.64,42.5725,0.5424,0.2188,0.1133,-40.8351
17:14:54:644,0.878,1.799,8.271,42.5262,0.2622,0.3615,0.0771,-40.6492
17:14:54:661,0.981,1.761,9.2891,43.5458,-0.0542,0.076,-0.0092,-40.4717
17:14:54:682,1.251,1.395,11.393,42.2989,-0.1394,-0.0742,-0.0582,-40.3019
17:14:54:702,0.878,1.0691,12.926,42.5309,0.0151,0.1932,0.0494,-40.1378
17:14:54:722,-0.2321,1.232,12.066,41.7586,0.0087,0.5543,0.3316,-39.9786
17:14:54:744,0.636,2.022,11.3621,42.4587,-0.4164,0.9314,0.2592,-39.8271
17:14:54:761,0.6821,0.66,16.713,41.9143,0.308,-0.2383,0.2071,-39.6867
17:14:54:781,-1.262,0.2741,10.692,41.7012,0.4071,0.0025,0.1324,-39.5568
17:14:54:802,-0.809,0.344,11.46,41.1103,0.619,-0.0294,0.4936,-39.437
17:14:54:821,0.626,0.6191,9.6911,41.0288,0.2984,-0.5983,0.3263,-39.3297
17:14:54:844,1.982,0.233,10.4981,40.9842,-0.0573,-0.7741,-0.007,-39.2374
17:14:54:863,2.5631,-0.144,12.3581,40.6189,-0.0392,-0.5386,-0.3213,-39.2374
17:14:54:882,1.6031,-0.393,12.4091,40.5932,0.1088,-0.2085,-0.4183,-39.2374
17:14:54:902,-0.017,-0.311,10.991,40.5365,0.2238,0.1911,-0.1328,-39.2374
17:14:54:923,-1.1561,0.348,10.2371,40.3526,0.5178,0.2379,0.3274,-39.2374
17:14:54:942,-0.3011,0.7961,8.427,40.201,0.7074,0.1602,0.6566,-39.1467
17:14:54:962,0.4091,1.392,6.818,40.4858,0.6989,0.1783,0.729,-39.1467
17:14:54:981,0.986,1.646,5.99,40.4116,0.6084,0.1187,0.565,-39.1467
17:14:55:001,0.6551,1.7711,5.9681,41.3391,0.5627,0.1176,0.4553,-39.1467
17:14:55:022,-0.56,1.557,5.786,40.1832,0.4806,0.1229,0.5991,-39.1467
17:14:55:044,-0.2111,1.799,6.1091,40.148,0.2898,-0.3415,0.6853,-39.1467
17:14:55:061,0.555,1.8851,6.4661,40.0865,0.1419,-0.659,0.5107,-39.1467
17:14:55:082,1.1561,1.7711,7.11,39.6076,0.1013,-0.544,0.1815,-39.1467
17:14:55:102,1.067,1.557,7.79,38.5325,0.1323,-0.0103,-0.1391,-39.1467
17:14:55:122,0.626,1.787,8.451,38.5318,0.0811,0.5255,-0.2116,-39.1467
17:14:55:141,0.248,1.703,8.231,39.0907,-0.1235,1.1338,-0.1966,-39.1467
17:14:55:163,0.342,1.68,9.375,39.5719,-0.4313,1.0827,-0.1136,-39.1467
17:14:55:181,0.8201,1.6241,11.034,38.5406,-0.5559,0.6332,0.0206,-39.1467
17:14:55:201,1.3811,1.083,13.1651,38.6905,-0.4047,-0.0785,-0.0476,-39.1467
17:14:55:220,1.3331,0.842,12.9761,38.6667,-0.0392,-0.1062,-0.2094,-39.1467
17:14:55:241,1.5221,0.813,11.4101,37.6522,-0.0158,0.0164,-0.2958,-39.1467
17:14:55:260,1.725,0.947,10.869,37.8328,-0.3812,-0.0667,-0.4257,-39.1467
17:14:55:280,0.986,1.244,11.6831,37.8017,-0.5283,0.0355,-0.4225,-39.1467
17:14:55:300,0.44,1.172,11.853,38.9955,-0.3717,0.3231,-0.1605,-39.1467
17:14:55:320,0.437,0.717,11.367,37.9848,-0.2938,0.1889,0.2251,-39.1467
17:14:55:340,1.124,0.255,11.4221,37.9938,-0.3802,-0.4982,0.4905,-39.1467
17:14:55:360,2.2571,0.095,11.868,36.5296,-0.3365,-1.0212,0.5244,-39.1467
17:14:55:382,3.078,0.408,11.6621,37.1271,-0.0925,-0.9658,0.436,-39.1467
17:14:55:401,3.567,0.6191,10.716,37.1109,0.1195,-0.6153,0.2326,-39.1467
17:14:55:421,3.279,0.839,9.255,36.9549,0.1163,-0.2361,-0.0529,-39.1467
17:14:55:441,1.8911,1.5221,8.528,36.7098,0.0322,-0.0103,-0.1712,-39.1467
17:14:55:461,0.5591,1.823,8.252,35.6794,0.0609,0.2507,-0.038,-39.1467
17:14:55:481,-0.548,1.893,7.5,37.1229,0.1056,0.6247,0.3572,-39.1467
17:14:55:501,-1.3211,1.893,6.749,36.5956,0.0439,0.9368,0.8249,-39.1467
17:14:55:521,-0.809,1.9211,6.471,36.0584,0.0151,1.1316,0.9175,-39.1467
17:14:55:544,-0.117,2.178,6.7421,35.9886,0.096,1.1498,0.6896,-39.1467
17:14:55:561,0.033,2.63,7.352,36.5627,0.2142,0.826,0.3882,-39.2575
17:14:55:581,-0.191,2.7671,7.8791,35.4923,0.2984,0.208,0.1761,-39.3859
17:14:55:602,-0.558,2.616,8.4251,35.474,0.3336,-0.4694,0.0931,-39.5266
17:14:55:621,-0.89,2.613,8.9321,35.8527,0.358,-0.8987,0.1517,-39.674
17:14:55:646,-0.689,2.5751,9.186,35.8864,0.4018,-0.9168,0.2827,-39.8249
17:14:55:662,-0.17,2.549,9.308,35.2121,0.3623,-0.7869,0.4308,-39.9791
17:14:55:681,0.555,2.6111,9.6701,34.8381,0.1291,-0.7495,0.4914,-40.1387
17:14:55:701,1.577,2.465,10.4051,34.8029,-0.1852,-0.6111,0.3828,-40.3067
17:14:55:722,1.9031,2.424,11.616,34.7803,-0.3279,-0.1935,0.3029,-40.4839
17:14:55:744,1.728,2.465,12.636,34.7727,-0.3301,0.206,0.2795,-40.6688
17:14:55:761,1.407,2.2541,13.563,34.7588,-0.3088,0.0909,0.2731,-40.8594
17:14:55:781,0.911,1.545,14.1011,33.7535,-0.0562,-0.0561,0.3327,-41.0542
17:14:55:801,0.387,0.801,13.242,33.7419,0.3911,0.1932,0.5042,-41.2528
17:14:55:822,0.167,0.6881,11.049,33.6417,0.5382,0.3722,0.7396,-41.4575
17:14:55:846,0.923,0.954,9.303,34.1264,0.1451,0.0962,0.7833,-41.6731
17:14:55:861,2.1161,1.2221,9.047,33.6169,-0.3556,-0.2074,0.5362,-41.9043
17:14:55:881,2.733,1.062,9.459,33.7844,-0.5996,-0.1062,0.1783,-42.151
17:14:55:901,1.994,0.9611,10.1201,33.7618,-0.6337,0.0397,-0.0263,-42.4075
17:14:55:921,0.713,0.9761,10.608,32.9738,-0.3908,0.157,0.0483,-42.6658
17:14:55:942,0.33,0.755,10.235,33.4944,-0.0223,0.2784,0.2177,-42.9205
17:14:55:962,0.38,0.581,9.741,33.4059,0.2889,0.1655,0.3487,-43.1718
17:14:55:981,0.023,1.443,8.9111,33.3804,0.4785,-0.0646,0.5767,-43.4221
17:14:56:001,1.8311,0.255,8.659,33.3038,0.5445,-0.5248,0.3956,-43.6765
17:14:56:022,1.8,0.585,8.358,32.7043,0.7523,-0.7325,0.1793,-43.9382
17:14:56:045,1.5551,0.968,7.4531,33.6688,0.7949,-0.9413,0.1144,-44.2058
17:14:56:062,1.634,1.1891,5.547,33.1658,0.8034,-0.5621,-0.0274,-44.4768
17:14:56:081,0.9401,1.5911,5.975,33.1309,0.7235,-0.4289,-0.1221,-44.7489
17:14:56:102,0.1601,2.087,6.447,33.0524,0.5008,-0.4407,-0.0326,-45.0186
17:14:56:122,1.0331,1.1531,7.1441,33.001,0.2303,-0.3469,-0.07,-45.2838
17:14:56:144,2.123,0.6431,7.769,32.6766,0.0683,0.0388,-0.2936,-45.5437
17:14:56:162,2.753,1.064,8.4701,32.1166,-0.0755,0.3945,-0.5013,-45.795
17:14:56:181,2.8481,1.2821,8.6569,32.277,-0.4686,0.3285,-0.6665,-46.0323
17:14:56:202,2.19,1.325,9.768,32.0268,-0.9351,-0.1381,-0.7474,-46.2495
17:14:56:222,1.388,0.854,12.519,32.247,-0.8584,-0.593,-0.5482,-46.4399
17:14:56:244,1.6871,0.9281,12.5741,33.0274,-0.6315,-0.2628,-0.2127,-46.6006
17:14:56:261,2.477,0.849,12.5141,32.627,-0.5474,-0.0635,-0.1764,-46.7355
17:14:56:282,3.066,0.923,13.376,31.2023,-0.426,-0.1286,-0.4407,-46.8505
17:14:56:301,2.585,1.014,12.9641,31.2023,-0.165,0.2113,-0.5727,-46.9473
17:14:56:321,1.9001,1.301,11.499,31.4447,0.0513,0.3978,-0.399,-46.9473
17:14:56:341,2.1281,1.3871,10.563,31.4447,0.0012,-0.0081,-0.331,-46.9473
17:14:56:362,2.693,1.725,10.8161,32.4504,-0.1138,-0.5291,-0.3458,-46.9473
17:14:56:382,2.372,2,10.218,31.7227,-0.2256,-0.3352,0.0004,-46.9473
17:14:56:401,2.015,1.4711,9.7871,31.7227,-0.3535,0.1655,0.304,-46.9473
17:14:56:422,1.728,1.454,9.3371,32.0037,-0.5389,0.3552,0.4947,-46.9473
17:14:56:442,1.881,1.871,8.214,32.4157,-0.6273,0.7268,0.4201,-46.9473
17:14:56:463,2.0651,1.229,7.716,31.753,-0.5516,1.0869,-0.0774,-46.9473
17:14:56:481,0.8081,1.5311,7.7141,32.5142,-0.345,1.0656,-0.3128,-46.9473
17:14:56:503,-0.39,2.228,7.85,31.5928,-0.1224,0.8399,-0.2105,-46.9473
17:14:56:522,-0.431,1.974,8.003,31.5928,0.1184,0.7461,-0.1466,-46.9473
17:14:56:541,-0.242,2.103,7.7471,31.5928,0.3017,0.4382,-0.2105,-46.9473
17:14:56:564,-0.258,1.917,7.7831,32.5142,0.3538,0.0857,-0.2574,-46.9473
17:14:56:581,-0.357,1.4231,8.157,32.5142,0.3549,-0.2947,-0.2702,-46.9473
17:14:56:601,-0.845,1.6841,9.0731,32.5142,0.4294,-0.594,-0.0954,-46.9473
17:14:56:621,-1.233,2.2301,9.552,32.0663,0.5456,-0.6238,0.2827,-46.9473
17:14:56:642,0.033,1.4111,9.615,31.753,0.6244,-0.4044,0.4445,-46.9473
17:14:56:662,0.662,1.533,9.5711,32.7106,0.5764,-0.2596,0.4573,-46.9473
17:14:56:681,0.909,2.1799,9.509,32.7106,0.3708,-0.2947,0.4553,-46.9473
17:14:56:701,1.199,2.2211,9.138,32.7106,-0.0446,-0.298,0.3978,-46.9473
17:14:56:723,1.203,2.151,9.6341,33.0235,-0.4579,-0.1338,0.3615,-46.9473
17:14:56:744,1.182,2.115,11.6621,33.0235,-0.4823,0.1005,0.337,-46.9473
17:14:56:761,1.484,2.084,12.986,33.4438,-0.296,0.2614,0.2634,-46.9473
17:14:56:781,1.359,1.818,13.6181,33.4438,-0.1415,0.1122,0.2315,-46.9473
17:14:56:801,0.978,1.026,13.7801,33.4438,0.2611,0.142,0.3253,-46.9473
17:14:56:822,0.576,0.593,12.014,33.1362,0.6159,0.2762,0.5235,-46.9473
17:14:56:841,0.789,0.971,9.435,33.1362,0.4166,0.0025,0.6715,-47.0485
17:14:56:862,2.051,1.277,8.6741,34.079,-0.166,-0.6133,0.5884,-47.1638
17:14:56:882,3.3251,1.115,9.564,33.9701,-0.5613,-0.7804,0.2795,-47.2953
17:14:56:903,3.3371,0.827,9.732,34.292,-0.7433,-0.331,0.0047,-47.4399
17:14:56:921,2.343,0.719,9.152,34.292,-0.9277,0.1367,-0.1338,-47.5902
17:14:56:941,1.3451,0.5111,9.4211,34.1105,-0.9203,0.3999,-0.121,-47.7386
17:14:56:962,0.6461,0.351,10.232,35.0441,-0.5954,0.3433,0.0132,-47.8795
17:14:56:981,0.21,0.4781,10.524,35.0441,-0.036,0.1187,0.1986,-48.0119
17:14:57:002,0.404,0.609,9.354,34.6383,0.454,-0.0124,0.3466,-48.1388
17:14:57:022,0.761,0.918,7.4171,34.6956,0.6138,-0.0465,0.3817,-48.2658
17:14:57:042,1.074,1.17,6.038,35.1296,0.5061,0.0015,0.3338,-48.3978
17:14:57:063,1.206,1.205,5.834,35.6505,0.3486,0.028,0.2486,-48.5374
17:14:57:082,0.9641,1.179,6.6551,34.8177,0.2644,-0.0593,0.1911,-48.6847
17:14:57:101,0.588,1.167,7.862,35.7709,0.3006,-0.1712,0.2071,-48.8379
17:14:57:123,0.5591,1.098,8.583,35.3417,0.3932,-0.1871,0.256,-48.9959
17:14:57:141,1.026,1.05,8.396,35.0496,0.3336,-0.12,0.2762,-49.1586
17:14:57:161,1.67,1.024,8.1881,35.3417,0.0769,-0.0305,0.2294,-49.3267
17:14:57:180,2.3651,0.633,8.552,35.7709,-0.2705,0.0345,0.1409,-49.4998
17:14:57:201,2.774,0.638,9.804,35.3417,-0.6082,-0.0146,0.0015,-49.676
17:14:57:222,3.1571,0.8081,11.6981,35.6505,-0.6625,0.0962,-0.1966,-49.8518
17:14:57:241,3.054,0.5021,12.5351,36.3865,-0.4568,0.4104,-0.3319,-50.0221
17:14:57:260,2.669,0.456,11.621,35.473,-0.4962,0.5116,-0.3895,-50.1817
17:14:57:280,2.8031,0.554,11.5511,35.0441,-0.7626,0.2284,-0.5642,-50.327
17:14:57:300,2.7311,-0.137,12.959,34.4604,-0.5921,0.1869,-0.723,-50.4543
17:14:57:320,1.898,-0.56,12.464,35.3935,-0.2555,0.4084,-0.6846,-50.5588
17:14:57:340,1.304,-0.326,10.9001,34.8345,-0.3162,0.2688,-0.6014,-50.5588
17:14:57:361,1.5671,-0.422,10.658,35.7505,-0.5613,-0.1072,-0.6079,-50.5588
17:14:57:382,1.8761,-0.845,11.3051,36.1307,-0.5932,-0.1946,-0.6441,-50.5588
17:14:57:401,1.656,-0.8741,11.262,34.8325,-0.4899,-0.0038,-0.5994,-50.5588
17:14:57:422,1.524,-0.575,10.4,35.2426,-0.4291,0.2358,-0.5419,-50.5588
17:14:57:442,1.328,-0.129,9.521,35.6672,-0.4313,0.3338,-0.5141,-50.5588
17:14:57:462,0.9401,0.3911,9.038,35.6672,-0.3769,0.3424,-0.4885,-50.5588
17:14:57:482,0.5711,0.822,8.801,36.0471,-0.215,0.2848,-0.4683,-50.5588
17:14:57:502,0.198,1.1051,8.915,35.6672,0.0993,0.1772,-0.4289,-50.4651
17:14:57:522,0.035,1.205,8.429,35.6672,0.4401,0.1463,-0.348,-50.3568
17:14:57:542,-0.0911,1.296,7.326,35.0132,0.6062,0.1591,-0.2563,-50.2367
17:14:57:562,-0.117,1.407,6.323,34.3061,0.5467,0.1165,-0.1903,-50.1079
17:14:57:582,-0.182,1.536,5.9591,33.8951,0.3017,-0.0572,-0.1402,-49.9735
17:14:57:602,-0.285,1.538,7.223,34.9018,0.1152,-0.4289,-0.0826,-49.8358
17:14:57:622,-0.321,1.2131,9.476,35.075,0.227,-0.7421,0.0345,-49.6967
17:14:57:656,0.042,0.9401,10.8641,34.5013,0.5541,-0.6579,0.1878,-49.5584
17:14:57:661,0.3701,0.98,10.632,34.0868,0.7298,-0.3106,0.3626,-49.4246
17:14:57:681,0.95,1.1861,9.734,33.9808,0.569,-0.0188,0.4766,-49.3001
17:14:57:701,1.689,1.409,9.471,35.2438,0.2005,0.1133,0.4521,-49.1901
17:14:57:722,2.214,1.452,10.3901,34.6758,-0.1224,0.223,0.3168,-49.0972
17:14:57:742,1.979,1.538,11.681,35.2386,-0.1863,0.4808,0.2082,-49.0972
17:14:57:762,1.215,1.8611,12.1241,34.4103,-0.165,0.7226,0.2156,-49.0972
17:14:57:782,0.732,2.106,12.071,35.1142,-0.2672,0.7014,0.2486,-49.0972
17:14:57:802,0.538,1.5311,13.1681,34.9055,-0.1767,0.4595,0.2614,-49.0972
17:14:57:822,-0.05,0.368,13.838,35.1076,0.3367,0.3519,0.3817,-49.0972
17:14:57:842,-0.474,-0.158,12.03,35.0586,0.6607,0.2668,0.615,-49.0972
17:14:57:862,0.059,0.044,9.378,34.3639,0.3293,-0.007,0.7279,-49.0972
17:14:57:883,1.397,-0.038,8.999,34.2571,-0.279,-0.4524,0.5778,-49.0972
17:14:57:902,1.874,-0.24,10.5221,34.1611,-0.4781,-0.5451,0.3913,-49.0972
17:14:57:922,1.8191,-0.276,10.9361,33.8533,-0.4143,-0.2756,0.2912,-49.0972
17:14:57:942,1.512,-0.027,10.563,33.809,-0.3035,-0.022,0.2315,-49.0972
17:14:57:963,1.2851,0.138,9.969,33.7469,-0.1489,0.1176,0.2134,-49.0972
17:14:57:982,0.986,0.245,9.5,33.6159,0.078,0.1016,0.2091,-49.0972
17:14:58:003,0.5981,0.32,8.9471,33.8713,0.3858,0.0377,0.2668,-49.0972
17:14:58:022,0.416,0.4151,7.8311,35.0287,0.6095,-0.0231,0.3615,-49.1905
17:14:58:041,0.4091,0.538,6.56,34.5398,0.6318,-0.0487,0.4275,-49.2913
17:14:58:063,0.612,0.617,5.796,34.2349,0.5083,-0.006,0.4317,-49.4014
17:14:58:081,0.7961,0.693,5.774,33.7061,0.3378,0.0099,0.3668,-49.5227
17:14:58:102,0.626,0.6521,6.4451,33.6595,0.2079,-0.0678,0.2975,-49.655
17:14:58:121,0.179,0.504,7.3091,33.581,0.1514,-0.1519,0.3103,-49.797
17:14:58:140,-0.1121,0.456,8.058,33.3302,0.1429,-0.1508,0.3785,-49.9472
17:14:58:160,0.042,0.437,8.741,33.7978,0.1759,-0.0572,0.4243,-50.1054
17:14:58:180,0.3941,0.363,8.784,33.2408,0.1343,0.0397,0.4436,-50.2721
17:14:58:201,0.9191,0.4271,8.358,33.6615,-0.1138,-0.0018,0.403,-50.448
17:14:58:221,1.8071,0.497,8.537,33.9866,-0.557,-0.2105,0.2305,-50.6332
17:14:58:241,2.535,0.4541,10.034,33.8161,-0.8606,-0.2767,-0.0348,-50.8253
17:14:58:262,2.843,-0.005,11.762,34.091,-0.8276,-0.0422,-0.2691,-51.019
17:14:58:281,2.733,-0.2441,11.753,33.5548,-0.7967,0.2966,-0.4194,-51.207
17:14:58:302,2.5871,0.188,11.513,33.0474,-1.0054,0.2827,-0.6537,-51.3827
17:14:58:322,2.037,0.059,12.885,33.5899,-0.9692,0.2241,-0.854,-51.5399
17:14:58:341,0.998,-0.4841,14.0561,32.552,-0.4696,0.3839,-0.7815,-51.6716
17:14:58:361,0.624,-0.644,13.206,32.5524,-0.018,0.4883,-0.5684,-51.774
17:14:58:381,1.235,-0.4691,11.0891,33.0261,-0.0041,0.4201,-0.4928,-51.774
17:14:58:402,2.192,-0.489,9.461,32.9762,-0.3003,0.4104,-0.6335,-51.774
17:14:58:422,2.357,-0.611,9.203,33.4765,-0.6753,0.3743,-0.8518,-51.774
17:14:58:442,1.2701,-0.582,10.383,33.9212,-0.7509,0.3178,-0.9126,-51.774
17:14:58:463,0.03,-0.4961,11.087,33.8461,-0.4973,0.3626,-0.7613,-51.774
17:14:58:482,-0.704,-0.12,10.491,33.3184,-0.1948,0.436,-0.5323,-51.774
17:14:58:502,-0.7301,0.303,9.291,34.0081,-0.0073,0.4564,-0.3586,-51.774
17:14:58:522,-0.5501,0.7601,8.499,33.181,0.1045,0.3722,-0.283,-51.6808
17:14:58:541,-0.752,1.1501,7.9601,34.0719,0.2005,0.2454,-0.2094,-51.574
17:14:58:562,-0.8351,1.3181,7.6781,34.0553,0.3336,0.1207,-0.0785,-51.4576
17:14:58:580,-0.527,1.3541,7.529,34.9688,0.4859,-0.0359,0.0143,-51.3355
17:14:58:601,-0.057,1.526,7.319,34.8885,0.505,-0.3021,-0.0198,-51.2116
17:14:58:621,0.143,1.565,7.6181,34.502,0.3911,-0.61,-0.0891,-51.0886
17:14:58:642,-0.05,1.4111,8.805,35.1514,0.2995,-0.8518,-0.0826,-50.9676
17:14:58:662,-0.2111,1.1531,10.388,34.8131,0.3751,-0.9093,0.028,-50.8482
17:14:58:681,-0.081,0.971,11.307,35.3432,0.5818,-0.6815,0.1911,-50.731
17:14:58:702,0.411,1.062,11.106,34.2581,0.6819,-0.3618,0.3083,-50.6185
17:14:58:722,1.1771,1.1051,10.4501,35.2005,0.5211,-0.2074,0.2805,-50.5147
17:14:58:742,1.857,0.885,10.4411,33.8437,0.2014,-0.1679,0.157,-50.4223
17:14:58:764,1.965,0.777,11.144,34.4334,-0.0488,0.0121,0.0718,-50.4223
17:14:58:782,1.587,1.024,12.1841,34.7299,-0.132,0.2688,0.0323,-50.4223
17:14:58:801,1.311,1.0451,13.1321,35.2251,-0.1107,0.3711,-0.007,-50.4223
17:14:58:822,1.043,0.5179,14.001,33.8026,0.1088,0.4692,0.0121,-50.4223
17:14:58:841,0.497,-0.3401,13.496,34.189,0.6042,0.7557,0.1101,-50.4223
17:14:58:862,-0.3731,-0.525,10.6181,33.836,0.7554,0.8621,0.3211,-50.4223
17:14:58:881,-0.668,0.0371,7.97,34.4544,0.3367,0.532,0.5107,-50.4223
17:14:58:901,-0.05,0.15,7.9241,34.1026,-0.2012,-0.104,0.5255,-50.4223
17:14:58:921,0.365,-0.0941,9.8951,34.0721,-0.3939,-0.659,0.4286,-50.4223
17:14:58:942,0.27,-0.29,11.121,33.9362,-0.2608,-0.6815,0.4052,-50.4223
17:14:58:963,0.116,-0.347,10.278,33.9737,-0.2289,-0.2915,0.4445,-50.4223
17:14:58:981,-0.041,-0.0071,8.949,34.0065,-0.3726,0.2592,0.499,-50.4223
17:14:59:002,-0.206,0.308,8.449,33.7844,-0.4729,0.6384,0.5543,-50.4223
17:14:59:022,-0.5051,0.581,9.1121,35.1718,-0.3098,0.5244,0.6577,-50.4223
17:14:59:042,-0.285,0.447,10.17,34.3302,0.209,-0.0752,0.7728,-50.4223
17:14:59:064,0.203,0.387,10.601,35.141,1.0431,-0.7463,0.9346,-50.4223
17:14:59:082,1.5551,0.315,8.892,34.6616,1.7333,-0.9851,0.9879,-50.5218
17:14:59:102,3.231,0.42,5.8841,34.8923,1.7781,-0.839,0.7216,-50.631
17:14:59:121,4.203,0.9041,3.1961,34.0077,1.1102,-0.5525,0.1826,-50.7587
17:14:59:142,4.074,1.443,2.5901,33.9642,0.0865,-0.2872,-0.3916,-50.9038
17:14:59:163,2.915,1.325,4.9961,33.1955,-0.5815,0.0601,-0.7571,-51.0554
17:14:59:182,1.3091,0.538,8.346,33.6652,-0.507,0.5415,-0.8007,-51.1994
17:14:59:200,-0.086,0.221,9.902,34.0476,-0.1096,0.8408,-0.5781,-51.3246
17:14:59:221,-0.282,0.4871,9.351,32.9203,-0.1298,0.5329,-0.3821,-51.4269
17:14:59:241,1.0549,0.435,9.167,33.7154,-0.5665,-0.0561,-0.4833,-51.4269
17:14:59:260,1.6151,0.401,10.754,32.9744,-0.8553,-0.2713,-0.7122,-51.4269
17:14:59:280,0.998,0.684,12.65,33.5371,-0.7146,0.0153,-0.7474,-51.4269
17:14:59:300,0.959,0.578,12.9071,32.9986,-0.5613,0.1836,-0.7463,-51.4269
17:14:59:321,1.275,0.698,12.852,33.1484,-0.6347,-0.039,-0.8859,-51.4269
17:14:59:342,1.16,0.329,13.6031,32.7957,-0.5741,-0.0795,-1.0488,-51.4269
17:14:59:362,0.1601,-0.3281,14.051,33.3712,-0.2597,0.1495,-0.968,-51.4269
17:14:59:382,-0.744,-0.539,12.849,32.5415,-0.0212,0.3157,-0.6824,-51.3353
17:14:59:401,-0.5981,-0.185,11.286,33.3362,-0.117,0.1229,-0.4555,-51.2157
17:14:59:422,0.672,-0.23,11.106,33.0392,-0.3035,-0.2713,-0.4843,-51.0741
17:14:59:442,1.187,-0.3881,11.8721,33.4464,-0.3268,-0.5334,-0.5877,-50.9155
17:14:59:464,1.1681,-0.3191,11.9111,33.4046,-0.2256,-0.3532,-0.5888,-50.7411
17:14:59:482,0.9521,-0.11,10.9241,33.4882,-0.1244,0.1602,-0.5088,-50.5514
17:14:59:501,0.5711,0.4991,9.5831,33.4985,-0.0542,0.664,-0.3895,-50.3473
17:14:59:522,0.3461,1.0091,8.2811,32.6697,-0.0062,0.9325,-0.3224,-50.1312
17:14:59:541,-0.002,1.38,7.431,33.0516,0.0439,0.8825,-0.2861,-49.9063
17:14:59:564,-0.39,1.526,7.01,32.9419,0.1269,0.6449,-0.2298,-49.6748
17:14:59:582,-0.828,1.512,6.962,32.8849,0.2813,0.37,-0.0837,-49.4389
17:14:59:602,-1.046,1.4591,6.986,33.0333,0.4529,0.1122,0.1431,-49.2014
17:14:59:623,-0.773,1.601,6.816,32.4379,0.4859,-0.136,0.3189,-48.9666
17:14:59:641,-0.321,1.8041,7.2011,33.3186,0.406,-0.4246,0.4041,-48.74
17:14:59:678,0.0491,1.9451,8.394,33.9949,0.4444,-0.594,0.4595,-48.5264
17:14:59:681,0.6581,1.905,9.528,32.6976,0.5775,-0.5866,0.4317,-48.3291
17:14:59:701,1.053,1.694,9.959,33.221,0.6766,-0.3842,0.3583,-48.1502
17:14:59:721,1.0331,1.538,9.557,32.3154,0.5935,-0.0997,0.271,-47.9899
17:14:59:741,0.938,1.653,8.942,32.1774,0.2483,0.1079,0.1187,-47.8471
17:14:59:764,0.7391,1.656,9.167,32.5697,-0.183,0.2646,-0.0593,-47.7192
17:14:59:782,0.071,1.658,10.584,32.5697,-0.4164,0.4223,-0.1743,-47.6014
17:14:59:802,-0.893,1.464,11.913,32.4421,-0.3844,0.5841,-0.1189,-47.4887
17:14:59:823,-1.6211,1.4471,12.392,33.3485,-0.3428,0.5266,0.0525,-47.3774
17:14:59:842,-1.8341,1.119,13.3931,32.9609,-0.1713,0.2241,0.2251,-47.2677
17:14:59:864,-2.025,0.48,13.8761,33.8103,0.3037,0.1409,0.5096,-47.1624
17:14:59:882,-1.5251,0.1781,12.105,32.4672,0.5882,0.1144,0.7791,-47.0663
17:14:59:903,-0.266,0.3221,9.71,32.283,0.3282,-0.136,0.7993,-47.0663
17:14:59:922,1.0361,0.4151,8.853,32.2182,-0.1948,-0.3767,0.6044,-47.0663
17:14:59:942,1.599,0.351,10.146,32.7404,-0.5175,-0.5195,0.3402,-47.0663
17:14:59:964,1.0931,0.2861,12.0041,33.2605,-0.4185,-0.5078,0.2251,-47.0663
17:14:59:982,0.5711,0.4631,12.516,33.0689,-0.0798,-0.3097,0.2784,-47.0663
17:15:00:002,0.677,0.753,11.1251,33.4213,0.1504,0.0004,0.3296,-47.0663
17:15:00:021,0.804,1.155,9.311,33.0397,0.2005,0.2294,0.3296,-47.0663
17:15:00:042,0.717,1.323,8.202,33.966,0.2261,0.3018,0.322,-47.0663
17:15:00:063,0.5261,1.328,7.6661,33.6539,0.3239,0.2464,0.3413,-47.0663
17:15:00:081,0.428,1.3301,7.247,33.6371,0.4572,0.109,0.3647,-47.0663
17:15:00:102,0.3821,1.28,6.8561,35.021,0.5541,-0.0507,0.3668,-47.0663
17:15:00:121,0.365,1.196,6.4211,34.9141,0.5391,-0.1658,0.337,-47.0663
17:15:00:142,0.236,1.158,6.1721,34.678,0.4359,-0.2085,0.2966,-47.1581
17:15:00:163,0.1451,1.0549,6.2201,34.2074,0.2654,-0.2606,0.2762,-47.2593
17:15:00:182,-0.146,1.035,6.279,34.1849,0.0811,-0.1988,0.322,-47.3689
17:15:00:201,-0.1871,1.208,6.251,34.1912,-0.1415,-0.0155,0.3604,-47.4862
17:15:00:221,0.3131,1.469,6.3581,35.5177,-0.4462,0.0579,0.239,-47.6115
17:15:00:241,1.005,1.292,7.515,35.6526,-0.7413,-0.2457,-0.0561,-47.744
17:15:00:260,1.3901,0.449,9.5861,36.1514,-0.9607,-0.8529,-0.316,-47.8795
17:15:00:280,1.7711,-0.558,12.576,36.4527,-0.9874,-1.2375,-0.4257,-48.0111
17:15:00:299,2.025,-1.0151,14.877,36.2486,-0.6944,-0.8251,-0.4129,-48.132
17:15:00:320,2.729,-1.169,14.736,36.5956,-0.5112,-0.0177,-0.4757,-48.2379
17:15:00:341,2.654,-1.094,13.7111,36.9748,-0.6273,0.5448,-0.6579,-48.2379
17:15:00:364,1.553,-0.912,13.931,36.8093,-0.4482,0.9229,-0.6781,-48.2379
17:15:00:383,0.662,-0.888,13.1771,37.2256,-0.1022,0.924,-0.5642,-48.2379
17:15:00:401,0.547,-0.6731,11.561,37.1667,-0.0073,0.4137,-0.4524,-48.2379
17:15:00:422,1.907,-0.651,9.902,36.9175,-0.1213,-0.1264,-0.4939,-48.2379
17:15:00:442,1.7471,-0.525,9.2531,37.3902,-0.2705,-0.1573,-0.6207,-48.2379
17:15:00:465,0.9281,-0.197,8.7889,37.3443,-0.428,0.1537,-0.7111,-48.2379
17:15:00:482,0.351,0.1811,8.8219,37.7913,-0.5761,0.4531,-0.6739,-48.2379
17:15:00:501,0.047,0.5141,9.066,37.6246,-0.5974,0.5692,-0.5908,-48.2379
17:15:00:522,-0.395,0.9281,8.949,37.3746,-0.4397,0.5042,-0.5173,-48.1444
17:15:00:541,-0.6701,1.292,8.159,38.1989,-0.1341,0.385,-0.4044,-48.0323
17:15:00:565,-0.711,1.538,7.0931,37.5702,0.1706,0.3009,-0.2702,-47.9045
17:15:00:582,-0.7421,1.742,6.615,38.1516,0.3154,0.2326,-0.1647,-47.7649
17:15:00:602,-0.764,1.859,7.005,38.2,0.325,0.1645,-0.07,-47.6177
17:15:00:621,-0.89,1.866,8.1251,39.1942,0.308,0.0036,-0.007,-47.4666
17:15:00:642,-0.912,1.5671,9.516,38.9193,0.3475,-0.2563,0.0377,-47.3149
17:15:00:664,-0.8261,1.215,10.3181,39.4788,0.4956,-0.4961,0.109,-47.1651
17:15:00:681,-0.7661,1.292,10.283,39.3506,0.6755,-0.4928,0.2369,-47.0194
17:15:00:701,-0.488,1.574,9.71,40.1326,0.7725,-0.1627,0.4095,-46.8805
17:15:00:722,-0.0761,1.794,9.4331,40.0524,0.6883,0.2592,0.5415,-46.7523
17:15:00:742,0.54,1.8641,9.959,41.1177,0.4498,0.4777,0.5863,-46.6391
17:15:00:764,0.981,2.087,11.231,40.8084,0.177,0.3711,0.4914,-46.5446
17:15:00:781,0.813,2.12,12.239,41.8157,0.0257,0.2039,0.2464,-46.5446
17:15:00:802,0.14,2.036,11.987,40.8046,0.047,0.2305,0.028,-46.5446
17:15:00:821,-0.488,1.766,12.758,41.1152,-0.1042,0.2166,-0.0923,-46.5446
17:15:00:842,-0.828,0.7241,14.3981,41.3536,-0.2949,0.0132,-0.1158,-46.5446
17:15:00:864,-1.5731,-0.074,13.2821,40.9219,0.0971,0.1517,-0.0146,-46.5446
17:15:00:881,-1.8671,0.308,10.041,40.6249,0.6639,0.4766,0.3083,-46.5446
17:15:00:901,-0.29,0.6911,8.664,41.7348,0.5775,0.3072,0.6512,-46.5446
17:15:00:922,1.376,0.561,9.998,41.4233,0.047,-0.3191,0.6673,-46.5446
17:15:00:942,1.737,0.3941,11.745,42.1695,-0.4195,-1.0627,0.3338,-46.5446
17:15:00:965,1.4,0.281,11.549,41.7889,-0.5027,-1.3728,-0.0294,-46.5446
17:15:00:982,0.966,0.2,10.184,41.5266,-0.4345,-1.1747,-0.2179,-46.5446
17:15:01:001,0.387,0.233,8.99,41.4182,-0.3823,-0.626,-0.1818,-46.5446
17:15:01:021,0.243,0.32,8.415,41.3871,-0.3428,-0.1167,0.0473,-46.5446
17:15:01:042,0.411,0.5261,8.382,41.5863,-0.2043,0.158,0.2529,-46.5446
17:15:01:064,0.6341,0.717,8.111,41.3376,0.1056,0.2134,0.3572,-46.5446
17:15:01:081,0.717,0.789,7.1891,42.4094,0.4635,0.0888,0.3774,-46.5446
17:15:01:101,0.674,0.7961,6.639,42.182,0.6309,-0.169,0.337,-46.5446
17:15:01:121,0.533,0.777,6.686,43.1231,0.6255,-0.3799,0.2464,-46.5446
17:15:01:142,0.291,0.894,6.2411,42.9405,0.65,-0.2606,0.19,-46.5446
17:15:01:162,-0.057,1.16,5.949,42.7142,0.5467,0.0547,0.1741,-46.5446
17:15:01:181,-0.045,1.349,6.923,43.0193,0.2388,0.2677,0.1986,-46.5446
17:15:01:201,-0.0191,1.194,8.3381,43.0415,0.0087,0.3146,0.1676,-46.5446
17:15:01:221,-0.488,0.995,9.1451,43.0361,-0.0744,0.1921,0.0994,-46.5446
17:15:01:242,-0.3731,0.7031,9.507,42.7204,-0.0979,0.1196,0.173,-46.5446
17:15:01:261,0.8471,0.468,10.211,42.6785,-0.2534,-0.0188,0.32,-46.6386
17:15:01:280,2.113,0.578,11.702,42.7829,-0.5622,-0.234,0.3009,-46.7363
17:15:01:302,2.8481,0.348,12.782,42.6569,-0.7008,-0.2542,0.0824,-46.8391
17:15:01:321,2.987,0.0491,12.629,41.8613,-0.5793,0.0451,-0.1892,-46.9458
17:15:01:341,2.5511,-0.12,13.0841,42.4836,-0.6358,0.208,-0.4566,-47.0514
17:15:01:362,1.701,-0.659,13.764,42.3367,-0.688,0.2677,-0.6739,-47.1495
17:15:01:382,0.708,-0.671,12.6191,42.2695,-0.3248,0.6033,-0.6984,-47.1495
17:15:01:401,0.4421,-0.2561,10.6391,42.5571,0.0874,0.8078,-0.5536,-47.1495
17:15:01:421,1.208,-0.17,9.902,42.296,0.0535,0.3893,-0.4513,-47.1495
17:15:01:442,1.8,-0.2831,10.565,41.2263,-0.2885,-0.2958,-0.5482,-47.1495
17:15:01:466,1.6181,-0.29,10.9631,41.0426,-0.4942,-0.544,-0.7102,-47.1495
17:15:01:482,1.1891,0.083,10.2131,42.1432,-0.4547,-0.3106,-0.7549,-47.1495
17:15:01:501,1.0361,0.447,9.095,42.1146,-0.3982,0.0323,-0.7261,-47.1495
17:15:01:521,0.866,0.777,8.429,41.4857,-0.4067,0.3211,-0.6952,-47.1495
17:15:01:541,0.4331,1.1621,8.367,41.6548,-0.4058,0.4308,-0.6739,-47.1495
17:15:01:561,-0.033,1.3991,8.5301,41.7488,-0.2875,0.3157,-0.6441,-47.044
17:15:01:586,-0.3971,1.562,8.724,41.4243,-0.0414,0.0483,-0.5792,-46.9178
17:15:01:601,-0.414,1.574,8.439,41.3738,0.2793,-0.1829,-0.4417,-46.7727
17:15:01:621,-0.3251,1.739,8.231,40.9283,0.536,-0.2372,-0.2776,-46.6117
17:15:01:641,-0.194,1.907,7.998,41.8742,0.6744,-0.2393,-0.1573,-46.439
17:15:01:661,-0.057,2.0411,7.9751,41.7767,0.715,-0.1977,-0.0826,-46.2595
17:15:01:705,0.126,1.9931,8.724,41.6108,0.6181,-0.3011,-0.039,-46.0774
17:15:01:706,0.303,1.9241,9.524,42.3752,0.5627,-0.4364,-0.006,-45.8959
17:15:01:720,0.231,2.0651,9.167,42.2002,0.6787,-0.3128,0.0143,-45.7172
17:15:01:741,0.069,2.333,8.3621,40.6824,0.7022,-0.0081,0.044,-45.543
17:15:01:761,0.1571,2.436,8.772,40.7424,0.4188,0.14,0.0718,-45.3748
17:15:01:782,0.3611,2.154,10.3571,41.8481,0.0342,0.0473,0.044,-45.2136
17:15:01:801,0.054,1.871,11.741,40.7477,-0.1745,-0.0326,-0.0368,-45.0595
17:15:01:821,-0.558,1.6961,12.009,41.0411,-0.1266,0.1858,-0.0561,-44.9111
17:15:01:841,-0.687,1.383,12.902,41.0237,-0.1352,0.3125,-0.0027,-44.7668
17:15:01:861,-0.443,0.4271,14.994,41.223,-0.3109,-0.0465,0.0686,-44.6257
17:15:01:882,-0.8981,-0.1151,14.477,40.9931,0.0322,-0.0231,0.1548,-44.4886
17:15:01:902,-1.094,0.2891,11.5901,40.7959,0.5977,0.3774,0.3956,-44.3568
17:15:01:922,0.2051,0.221,10.3901,40.7287,0.4487,0.1878,0.6267,-44.2341
17:15:01:941,1.505,-0.137,11.6021,40.7241,-0.1096,-0.3054,0.5959,-44.1262
17:15:01:962,1.694,-0.3431,11.817,40.6856,-0.3311,-0.4023,0.4254,-44.1262
17:15:01:983,1.421,-0.2351,11.132,40.6295,-0.3546,-0.2478,0.2848,-44.1262
17:15:02:001,1.175,-0.165,10.3451,40.8517,-0.3322,-0.0007,0.2475,-44.1262
17:15:02:021,0.957,-0.0461,9.567,40.879,-0.1852,0.287,0.2668,-44.1262
17:15:02:042,0.674,0.14,8.559,41.2533,0.0598,0.436,0.3094,-44.1262
17:15:02:062,0.392,0.401,7.4381,41.0511,0.3069,0.4095,0.3594,-44.1262
17:15:02:083,0.3491,0.597,6.5261,41.2763,0.4956,0.2827,0.4286,-44.1262
17:15:02:102,0.512,0.71,5.762,41.1243,0.617,0.1485,0.4542,-44.1262
17:15:02:121,0.6,0.801,5.295,40.7473,0.6531,0.0579,0.4232,-44.1262
17:15:02:142,0.3341,0.921,5.621,40.9449,0.5541,-0.0689,0.3305,-44.1262
17:15:02:161,0.09,0.9761,6.6221,40.6194,0.422,-0.2478,0.2507,-44.1262
17:15:02:182,0.0281,1.0121,7.11,40.5826,0.4231,-0.331,0.206,-44.1262
17:15:02:200,-0.146,1.239,6.813,40.505,0.4785,-0.2383,0.1783,-44.1262
17:15:02:220,-0.1631,1.5311,6.677,40.4682,0.3645,-0.0742,0.1826,-44.1262
17:15:02:240,0.081,1.536,7.362,40.4703,0.0694,0.0067,0.1847,-44.1262
17:15:02:260,0.8951,1.371,8.753,41.7468,-0.2662,-0.0923,0.1921,-44.2174
17:15:02:280,1.599,1.407,10.721,41.4758,-0.5463,-0.3821,0.1133,-44.3131
17:15:02:300,2.01,1.431,12.686,41.6727,-0.704,-0.6857,-0.0582,-44.4121
17:15:02:320,2.64,1.196,13.5311,41.3919,-0.6432,-0.6303,-0.1999,-44.5113
17:15:02:340,2.786,1.007,13.17,41.5863,-0.5368,-0.2329,-0.3916,-44.6064
17:15:02:360,1.998,0.65,14.7881,41.6656,-0.8243,-0.0529,-0.6761,-44.6064
17:15:02:380,0.512,0.1541,16.5821,40.9291,-0.9522,0.028,-0.8337,-44.6064
17:15:02:400,-0.62,0.2741,15.72,41.8516,-0.3748,0.4126,-0.6665,-44.6064
17:15:02:420,-0.024,0.4631,13.697,40.554,0.2036,0.4308,-0.3106,-44.6064
17:15:02:440,1.859,0.087,12.401,41.6746,0.308,-0.0913,-0.1008,-44.6064
17:15:02:460,2.525,0.1571,11.4101,41.6538,0.2388,-0.3341,-0.1679,-44.6064
17:15:02:480,2.027,0.482,9.6431,41.6575,0.2313,-0.1019,-0.3341,-44.6064
17:15:02:500,1.359,0.612,8.003,40.8008,0.1301,0.3029,-0.4257,-44.6064
17:15:02:520,0.6701,0.705,7.2161,41.1856,-0.0468,0.6725,-0.4322,-44.6064
17:15:02:540,0.2651,0.777,6.993,41.6025,-0.1244,0.859,-0.3778,-44.6064
17:15:02:560,-0.002,0.8681,6.663,41.0916,-0.0308,0.8345,-0.3213,-44.6064
17:15:02:580,-0.603,1.0331,6.057,41.4364,0.144,0.6853,-0.2787,-44.6064
17:15:02:600,-1.08,1.229,5.621,40.1958,0.2898,0.4936,-0.1754,-44.6064
17:15:02:622,-1.101,1.419,5.475,41.2184,0.3613,0.2634,-0.0049,-44.5126
17:15:02:640,-0.62,1.6241,5.8721,41.16,0.3495,0.0078,0.1719,-44.4149
17:15:02:660,-0.273,1.794,6.9791,41.1657,0.2569,-0.2756,0.2401,-44.3177
17:15:02:680,-0.266,1.814,8.025,41.0756,0.2324,-0.4598,0.2358,-44.2254
17:15:02:700,-0.074,1.8851,8.616,40.9702,0.2793,-0.4939,0.2933,-44.2254
17:15:02:720,0.1961,2.099,8.774,40.9645,0.325,-0.3277,0.3711,-44.2254
17:15:02:740,0.267,2.2661,8.889,40.9363,0.2921,-0.022,0.4137,-44.2254
17:15:02:761,0.126,2.477,9.5951,41.9467,0.1419,0.2145,0.4521,-44.2254
17:15:02:780,0.339,2.5061,10.7951,40.9462,-0.0733,0.1634,0.5042,-44.2254
17:15:02:800,1.0961,2.19,12.2,40.8079,-0.2714,-0.0135,0.5203,-44.2254
17:15:02:820,1.3811,1.766,12.468,40.7847,-0.2566,0.0558,0.4232,-44.2254
17:15:02:840,0.708,1.782,12.021,41.142,-0.1991,0.3956,0.2773,-44.2254
17:15:02:860,-0.1241,1.488,12.9641,41.0946,-0.3939,0.5202,0.1954,-44.2254
17:15:02:880,-0.8381,0.5831,13.9151,40.4742,-0.4643,0.419,0.256,-44.2254
17:15:02:900,-1.185,0.602,12.059,41.4113,0.0417,0.5809,0.4797,-44.2254
17:15:02:920,-0.548,1.227,9.66,40.7556,0.3986,0.5863,0.7492,-44.2254
17:15:02:940,0.8111,1.244,9.605,41.3541,0.0652,0.0227,0.8515,-44.2254
17:15:02:960,1.752,0.8801,11.178,41.3132,-0.4899,-0.6079,0.6768,-44.2254
17:15:02:980,1.5341,0.561,11.6021,41.2153,-0.573,-0.6057,0.4009,-44.3337
17:15:03:000,0.588,0.734,10.227,40.8768,-0.362,-0.2861,0.2284,-44.46
17:15:03:020,0.749,0.7961,9.126,39.7854,-0.3003,-0.0422,0.271,-44.5989
17:15:03:040,1.1441,0.885,9.1571,40.147,-0.3769,0.0345,0.3061,-44.7463
17:15:03:060,0.99,1.019,9.2411,40.1192,-0.3194,-0.0146,0.2177,-44.9008
17:15:03:080,0.521,1.067,9.1931,40.0309,-0.115,-0.1125,0.1389,-45.0609
17:15:03:100,0.083,1.124,8.303,39.6574,0.2111,-0.1647,0.1367,-45.2245
17:15:03:120,-0.0641,1.2701,7.496,39.7977,0.4529,-0.1594,0.2071,-45.3899
17:15:03:140,0.0521,1.287,7.137,39.7808,0.5296,-0.1551,0.2582,-45.557
17:15:03:161,0.119,1.368,7.3331,38.7699,0.5008,-0.2255,0.2529,-45.7266
17:15:03:180,0.0881,1.3781,8.008,39.5742,0.4188,-0.3554,0.1889,-45.8998
17:15:03:200,0.081,1.2131,8.702,39.5929,0.4007,-0.4044,0.1229,-46.0762
17:15:03:219,-0.0521,1.086,8.7889,39.6829,0.4337,-0.333,0.0729,-46.2548
17:15:03:240,0.128,1.124,8.487,38.5504,0.4379,-0.121,0.092,-46.434
17:15:03:260,0.794,1.131,8.382,38.6431,0.2728,-0.0007,0.0877,-46.6128
17:15:03:280,1.407,0.909,9.1931,38.6096,-0.0531,-0.0615,-0.0252,-46.7909
17:15:03:300,1.436,0.681,10.857,38.2599,-0.3854,-0.2393,-0.2137,-46.967
17:15:03:320,1.385,0.4901,11.8751,38.518,-0.4814,-0.2531,-0.3469,-47.1375
17:15:03:341,1.7711,0.458,11.3891,37.4244,-0.3695,0.0388,-0.3608,-47.2979
17:15:03:362,2.3411,0.6071,11.147,38.4352,-0.4185,0.337,-0.4172,-47.4445
17:15:03:381,2.12,0.164,12.516,37.3455,-0.7285,0.3561,-0.6505,-47.5755
17:15:03:402,0.7151,-0.371,13.565,37.7038,-0.7807,0.3754,-0.8603,-47.6875
17:15:03:421,0.066,-0.4121,12.4901,36.5993,-0.3897,0.4755,-0.7389,-47.6875
17:15:03:442,0.804,-0.24,11.049,36.5728,-0.15,0.2507,-0.5206,-47.6875
17:15:03:461,2.195,-0.4121,10.484,36.621,-0.3556,-0.2383,-0.463,-47.6875
17:15:03:481,2.456,-0.419,9.998,36.6726,-0.6006,-0.2606,-0.6185,-47.6875
17:15:03:501,1.656,-0.137,9.701,36.0355,-0.7956,0.1027,-0.8114,-47.6875
17:15:03:521,0.519,0.078,9.8951,35.3349,-0.916,0.4734,-0.8933,-47.6875
17:15:03:542,-0.608,0.245,10.3931,36.2889,-0.8234,0.7024,-0.8316,-47.6875
17:15:03:563,-1.1321,0.578,9.9311,35.7704,-0.4536,0.6821,-0.5983,-47.6875
17:15:03:581,-1.137,1.007,8.9081,34.2662,0.0129,0.4531,-0.3319,-47.5805
17:15:03:601,-0.84,1.316,7.7231,35.7363,0.4081,0.1548,-0.1414,-47.4545
17:15:03:621,-0.761,1.464,6.684,34.7088,0.6436,-0.0198,-0.0422,-47.3166
17:15:03:641,-0.701,1.493,6.507,34.649,0.6852,-0.0529,0.028,-47.173
17:15:03:661,-0.7181,1.505,7.386,34.6055,0.6201,-0.1295,0.0696,-47.0281
17:15:03:681,-0.656,1.4711,8.346,34.1839,0.6073,-0.3469,0.0718,-46.8854
17:15:03:710,-0.464,1.452,8.7671,34.2874,0.6894,-0.5343,0.0749,-46.7467
17:15:03:721,-0.041,1.5191,8.8271,34.1218,0.7022,-0.5781,0.1207,-46.6133
17:15:03:741,0.009,1.613,9.117,33.7794,0.569,-0.3745,0.1218,-46.4861
17:15:03:762,0,1.6031,9.854,34.2145,0.389,-0.0274,0.1346,-46.3662
17:15:03:781,0.236,1.658,10.737,33.1945,0.2483,0.1793,0.2071,-46.2541
17:15:03:801,0.7871,1.706,11.4581,33.1791,0.1376,0.1293,0.2699,-46.1504
17:15:03:821,0.945,2.015,12.1601,33.2267,0.0055,0.092,0.2549,-46.0564
17:15:03:842,0.5,2.606,11.666,32.7673,0.0279,0.3924,0.2028,-46.0564
17:15:03:861,-0.182,3.197,11.118,32.7799,-0.0286,0.7941,0.1911,-46.0564
17:15:03:882,-0.2111,2.795,12.686,33.352,-0.3013,0.8451,0.239,-46.0564
17:15:03:902,-0.6341,1.529,14.441,32.4148,-0.3174,0.5202,0.1986,-46.0564
17:15:03:922,-0.7991,0.3911,13.232,32.4588,0.2559,0.1847,0.2432,-46.0564
17:15:03:941,0.073,0.3911,10.314,30.8359,0.7693,-0.0817,0.4297,-46.0564
17:15:03:962,1.553,0.365,8.951,31.7837,0.553,-0.3895,0.4786,-46.0564
17:15:03:981,1.9241,0.0851,9.279,30.7589,-0.0648,-0.4833,0.2401,-46.0564
17:15:04:001,0.942,0.02,9.6071,30.7745,-0.4814,-0.1306,-0.0294,-46.0564
17:15:04:021,-0.012,0.195,9.773,30.8562,-0.671,0.2305,-0.1093,-46.0564
17:15:04:041,-0.479,0.351,9.7871,31.4135,-0.638,0.4382,-0.0263,-46.0564
17:15:04:062,-0.606,0.5261,9.701,31.4184,-0.3993,0.451,0.1187,-46.0564
17:15:04:082,-0.629,0.7481,9.3371,30.5166,-0.036,0.1847,0.2592,-46.0564
17:15:04:101,-0.491,0.9041,8.231,30.4682,0.3623,-0.1999,0.3711,-46.0564
17:15:04:121,-0.1991,1.04,6.9521,29.9917,0.6479,-0.4023,0.4808,-46.0564
17:15:04:141,0.1841,1.11,6.3731,29.9317,0.7022,-0.4364,0.5457,-46.0564
17:15:04:162,0.389,1.1171,6.4211,29.9717,0.6414,-0.4055,0.5309,-46.0564
17:15:04:181,0.243,1.098,6.9761,29.8525,0.5573,-0.3778,0.4553,-46.0564
17:15:04:201,-0.155,1.112,7.862,29.7853,0.4848,-0.3906,0.3743,-46.0564
17:15:04:221,-0.378,1.071,8.616,29.872,0.4668,-0.4342,0.3296,-46.0564
17:15:04:241,-0.1001,1.119,8.631,29.3253,0.5169,-0.3884,0.3402,-46.1555
17:15:04:261,0.48,1.182,8.492,29.2788,0.4678,-0.2574,0.3168,-46.2652
17:15:04:281,1.1411,1.1621,8.7889,29.2531,0.2377,-0.1584,0.2091,-46.3849
17:15:04:302,1.479,1.0811,9.636,29.191,-0.1096,-0.1988,0.0312,-46.5128
17:15:04:321,1.476,1.2371,11.3261,29.1911,-0.4462,-0.2563,-0.1328,-46.6457
17:15:04:341,1.713,1.2701,12.461,29.1339,-0.5463,-0.169,-0.2116,-46.7784
17:15:04:361,2.154,1.208,11.786,29.1479,-0.3982,0.1059,-0.2681,-46.906
17:15:04:382,2.135,1.4021,10.9631,28.8495,-0.3972,0.3476,-0.4203,-47.0251
17:15:04:402,1.491,1.043,11.817,28.9479,-0.6571,0.402,-0.6537,-47.1324
17:15:04:421,0.3011,0.437,12.5141,28.9567,-0.7061,0.4297,-0.8071,-47.2232
17:15:04:441,-0.5741,0.528,11.5511,28.9088,-0.3802,0.5351,-0.708,-47.2232
17:15:04:462,-0.11,0.561,10.232,28.9425,-0.1202,0.4104,-0.4748,-47.2232
17:15:04:481,1.089,0.4661,9.974,28.0233,-0.2321,-0.1104,-0.3575,-47.2232
17:15:04:501,1.448,0.389,10.122,28.1402,-0.4994,-0.4811,-0.4885,-47.2232
17:15:04:521,0.933,0.3821,9.878,28.2884,-0.6475,-0.267,-0.6409,-47.2232
17:15:04:542,0.0971,0.5689,9.785,28.4944,-0.7487,0.1858,-0.6878,-47.2232
17:15:04:561,-0.45,0.7391,9.794,28.6941,-0.7402,0.5042,-0.6238,-47.2232
17:15:04:581,-0.78,0.99,9.629,29.2501,-0.5676,0.5756,-0.5035,-47.2232
17:15:04:601,-1.0991,1.349,9.282,28.5994,-0.3151,0.3668,-0.3884,-47.1285
17:15:04:622,-1.281,1.5911,8.475,27.8231,0.0033,0.1122,-0.2606,-47.0178
17:15:04:641,-1.211,1.809,7.299,28.5797,0.2974,0.0366,-0.0997,-46.8949
17:15:04:661,-0.8501,2.0051,6.8441,28.7402,0.4177,0.0536,0.0579,-46.7645
17:15:04:681,-0.5291,2.06,7.3691,28.755,0.4007,-0.0359,0.1357,-46.6315
17:15:04:702,-0.51,1.931,8.535,28.7463,0.3816,-0.2639,0.1196,-46.5004
17:15:04:721,-0.639,1.577,9.6101,28.7285,0.4316,-0.5706,0.0866,-46.374
17:15:04:742,-0.4691,1.4021,10.266,28.0941,0.5552,-0.7571,0.1357,-46.2533
17:15:04:761,0.119,1.476,9.9761,28.5065,0.7182,-0.6963,0.2955,-46.1388
17:15:04:781,0.626,1.622,9.179,29.402,0.7628,-0.3725,0.3785,-46.0326
17:15:04:801,0.933,1.445,8.7,29.3923,0.5541,-0.0582,0.3305,-45.938
17:15:04:821,0.825,1.284,9.593,27.8983,0.1632,0.0984,0.2507,-45.938
17:15:04:841,0.6311,1.2731,11.346,29.2917,-0.1767,0.0494,0.2017,-45.938
17:15:04:861,0.308,1.1051,11.777,29.4097,-0.1926,0.0994,0.1741,-45.938
17:15:04:883,0.0161,1.533,11.195,28.5207,-0.0903,0.2881,0.2102,-45.938
17:15:04:901,0.48,1.397,12.291,28.5146,-0.3131,0.2369,0.2614,-45.938
17:15:04:922,0.155,0.657,13.455,29.1299,-0.4462,0.1357,0.2006,-45.938
17:15:04:941,-0.6461,0.4901,11.693,28.3091,0.0012,0.4499,0.2315,-45.938
17:15:04:961,-0.5,1.0091,9.0041,28.2232,0.34,0.648,0.4329,-45.938
17:15:04:981,0.861,1.2701,8.834,29.1328,0.0246,0.2529,0.5639,-45.938
17:15:05:001,1.802,0.956,10.397,29.125,-0.4547,-0.3597,0.4009,-45.938
17:15:05:021,1.244,0.6521,10.824,29.2824,-0.5144,-0.5621,0.1059,-45.938
17:15:05:041,1.038,0.7721,10.031,28.7146,-0.3726,-0.4641,0.028,-45.938
17:15:05:061,1.613,1.038,9.332,29.2768,-0.2853,-0.283,0.0462,-45.938
17:15:05:082,2.07,1.0691,8.808,29.2479,-0.2097,-0.1541,-0.0582,-45.938
17:15:05:101,1.5581,0.9971,8.384,28.8917,-0.1607,-0.0348,-0.2659,-45.938
17:15:05:121,0.459,0.9011,8.2039,30.3375,-0.1446,0.061,-0.3767,-45.938
17:15:05:141,-0.234,0.8771,8.1851,30.341,-0.0851,0.0962,-0.2776,-45.938
17:15:05:161,-0.179,0.894,8.2931,30.341,0.0822,0.0835,-0.0635,-45.938
17:15:05:181,0.105,0.8891,7.9631,28.8261,0.3197,-0.0241,0.0696,-45.938
17:15:05:201,0.006,0.9401,7.625,29.2763,0.4678,-0.169,0.0814,-45.938
17:15:05:221,-0.242,1.002,7.568,29.2705,0.4646,-0.2734,0.059,-45.938
17:15:05:241,-0.333,1.059,8.046,29.6023,0.3783,-0.2617,0.0483,-45.938
17:15:05:261,-0.11,1.095,8.5871,29.227,0.2793,-0.2042,0.0718,-45.938
17:15:05:282,0.375,0.7241,9.1451,29.2386,0.2025,-0.0956,0.0824,-45.938
17:15:05:301,0.6701,0.585,9.1691,30.1361,0.1525,0.0217,0.0238,-45.938
17:15:05:321,0.995,0.698,9.011,29.7241,0.0236,0.0217,-0.0582,-45.938
17:15:05:342,1.565,0.545,9.579,29.3848,-0.3396,-0.1551,-0.153,-45.938
17:15:05:361,2.1761,-0.065,11.1971,29.5769,-0.7211,-0.1541,-0.2926,-45.938
17:15:05:383,2.4941,-0.17,12.155,29.8339,-0.8063,0.076,-0.4513,-45.938
17:15:05:402,2.31,0.305,12.174,29.5788,-0.7307,0.2486,-0.7017,-45.938
17:15:05:421,1.448,0.116,13.151,29.9264,-0.8947,0.1528,-0.9829,-45.938
17:15:05:441,0.3341,-0.785,14.453,30.6497,-0.9852,0.1048,-1.1341,-45.938
17:15:05:461,-0.416,-0.9581,14.1041,30.6092,-0.5963,0.3722,-0.9936,-45.938
17:15:05:482,-0.0191,-0.522,12.909,30.5285,-0.1554,0.3679,-0.6729,-45.8478
17:15:05:501,1.3571,-0.692,11.8271,30.5151,-0.052,-0.0476,-0.4513,-45.7286
17:15:05:522,1.728,-0.62,11.5511,30.8331,-0.198,-0.2798,-0.48,-45.5873
17:15:05:541,1.4261,-0.173,11.489,30.7913,-0.3003,-0.1391,-0.5504,-45.4289
17:15:05:562,1.086,0.2741,11.111,29.8535,-0.2458,0.1144,-0.5695,-45.2552
17:15:05:582,0.468,0.6551,10.292,30.3615,-0.0648,0.2966,-0.5972,-45.0668
17:15:05:601,-0.227,1.047,9.0971,30.3598,0.1823,0.3796,-0.5877,-44.8639
17:15:05:621,-0.7901,1.395,7.805,30.3598,0.4231,0.3882,-0.5024,-44.6469
17:15:05:641,-1.068,1.656,6.7511,30.3505,0.5829,0.3083,-0.3597,-44.4171
17:15:05:662,-0.8231,1.715,6.2081,30.9337,0.6628,0.1836,-0.1999,-44.177
17:15:05:683,-0.6611,1.8041,6.009,30.9261,0.6809,0.043,-0.1125,-43.9307
17:15:05:700,-0.7661,1.821,6.126,31.1674,0.6318,-0.0902,-0.1072,-43.6821
17:15:05:732,-1.1951,1.7351,6.983,30.8978,0.4933,-0.1957,-0.12,-43.4341
17:15:05:740,-1.827,1.493,8.372,30.351,0.3623,-0.2841,-0.0572,-43.1879
17:15:05:761,-1.889,1.1861,9.3461,31.264,0.34,-0.3554,0.1537,-42.9448
17:15:05:782,-1.271,1.2221,9.768,31.0168,0.4316,-0.2574,0.4786,-42.7072
17:15:05:802,-0.594,1.409,9.686,31.3103,0.488,-0.0987,0.6715,-42.4809
17:15:05:822,-0.12,1.529,9.5621,31.281,0.4081,0.0366,0.727,-42.2727
17:15:05:841,0.2171,1.629,10.029,31.2235,0.1866,0.1176,0.7184,-42.088
17:15:05:861,0.073,1.6991,11.039,31.2115,-0.0957,0.0866,0.6247,-41.9295
17:15:05:882,-0.3521,1.524,12.0491,31.7752,-0.2885,0.1282,0.5309,-41.7976
17:15:05:902,-0.651,1.653,12.7391,30.9638,-0.297,0.3072,0.5351,-41.6902
17:15:05:921,-0.6131,1.5,13.6031,31.7904,-0.2566,0.3594,0.5917,-41.6902
17:15:05:941,-0.7661,0.834,13.493,32.1529,-0.0925,0.3774,0.6139,-41.6902
17:15:05:962,-0.986,0.5141,11.3981,32.7376,0.323,0.6588,0.7142,-41.6902
17:15:05:982,-0.4211,0.791,9.1811,31.7465,0.5211,0.7333,0.8729,-41.6902
17:15:06:001,0.512,0.909,8.856,32.3661,0.2292,0.3541,0.892,-41.6902
17:15:06:021,0.8951,0.6311,10.352,32.5181,-0.2705,-0.2361,0.6918,-41.6902
17:15:06:042,0.65,0.396,11.31,31.6499,-0.4962,-0.5206,0.4425,-41.6902
17:15:06:061,0.5501,0.588,10.872,32.5091,-0.4195,-0.2915,0.3668,-41.6902
17:15:06:082,0.552,0.875,9.9431,32.4972,-0.3183,0.1187,0.3689,-41.7866
17:15:06:101,0.521,1.0451,9.315,33.1118,-0.2705,0.419,0.3604,-41.8965
17:15:06:121,0.255,1.1051,8.877,32.3269,0.0151,0.2955,0.3338,-42.0181
17:15:06:141,-0.0881,1.067,8.8031,31.4527,0.3059,-0.0742,0.385,-42.1496
17:15:06:162,-0.266,0.968,8.3891,32.3248,0.6383,-0.3277,0.4914,-42.29
17:15:06:181,-0.074,0.851,7.4531,32.1614,0.8077,-0.3906,0.5692,-42.4387
17:15:06:201,0.303,0.8771,6.4451,32.6401,0.7298,-0.3767,0.5309,-42.5964
17:15:06:221,0.389,0.9401,6.1811,33.5029,0.4774,-0.4066,0.4243,-42.7651
17:15:06:241,-0.0671,0.882,7.2851,33.7032,0.3347,-0.4214,0.3572,-42.946
17:15:06:261,-0.744,0.581,8.736,32.7453,0.4146,-0.3021,0.436,-43.1389
17:15:06:281,-1.0271,0.468,9.152,32.6252,0.5285,-0.0518,0.6204,-43.3417
17:15:06:302,-0.333,0.576,8.516,33.2161,0.4157,0.0803,0.6704,-43.5535
17:15:06:321,0.8711,0.648,7.881,32.5222,0.0236,-0.0263,0.4542,-43.7756
17:15:06:340,1.4621,0.542,8.1641,33.4654,-0.5016,-0.2596,0.1602,-44.0108
17:15:06:361,1.3301,0.372,9.902,33.4708,-0.8404,-0.3671,-0.0294,-44.2591
17:15:06:383,0.954,0.291,12.294,33.6363,-0.6986,-0.1594,-0.0146,-44.5158
17:15:06:401,1.467,0.1211,12.983,34.1795,-0.3598,0.2464,0.0377,-44.7738
17:15:06:421,2.4581,0.485,11.5181,34.3806,-0.4217,0.4755,-0.1712,-45.028
17:15:06:441,2.688,0.887,11.106,33.714,-0.6507,0.5021,-0.5248,-45.2765
17:15:06:462,1.601,0.5951,11.954,33.6635,-0.5197,0.5809,-0.6568,-45.5175
17:15:06:483,0.7271,0.3821,11.7671,35.2803,-0.2577,0.5075,-0.5482,-45.7455
17:15:06:501,0.954,0.506,10.793,33.7299,-0.2651,-0.0007,-0.5215,-45.9536
17:15:06:521,1.977,0.449,10.352,34.8382,-0.5016,-0.4971,-0.6952,-46.1387
17:15:06:541,2.5631,0.2021,10.232,33.6555,-0.7008,-0.3532,-0.9413,-46.301
17:15:06:562,2.1041,0.059,9.95,33.9892,-0.8829,0.1239,-1.0777,-46.4397
17:15:06:583,0.8801,0.114,10.433,34.6665,-0.8447,0.5127,-1.0275,-46.551
17:15:06:601,-0.098,0.272,11.022,34.5163,-0.5016,0.6651,-0.8529,-46.551
17:15:06:621,-0.555,0.538,10.833,34.6537,-0.0989,0.4126,-0.6963,-46.551
17:15:06:641,-0.9461,0.9521,10.022,34.8279,0.2654,0.1005,-0.5653,-46.551
17:15:06:661,-0.9551,1.215,8.75,34.8164,0.5445,0.0984,-0.4502,-46.551
17:15:06:681,-1.02,1.4021,7.553,34.5664,0.667,0.206,-0.3725,-46.551
17:15:06:701,-1.391,1.6751,6.6911,36.0015,0.6531,0.2241,-0.2648,-46.551
17:15:06:722,-1.6091,1.778,6.6701,35.4537,0.6116,0.0516,-0.1754,-46.4516
17:15:06:740,-1.697,1.857,7.2491,35.4396,0.5892,-0.2222,-0.1243,-46.3432
17:15:06:762,-1.6931,1.8161,7.749,34.6712,0.52,-0.4268,-0.0826,-46.2288
17:15:06:782,-1.781,1.73,8.444,35.5978,0.4337,-0.4374,0.0143,-46.1109
17:15:06:801,-1.5941,1.6631,8.9801,36.0782,0.3602,-0.1658,0.1463,-45.992
17:15:06:821,-1.259,1.718,9.167,35.8298,0.1994,0.109,0.2199,-45.8753
17:15:06:841,-1.1059,1.823,9.725,35.5268,-0.0243,0.0899,0.2657,-45.7641
17:15:06:863,-0.665,1.701,11.022,36.7143,-0.1628,-0.12,0.2454,-45.661
17:15:06:882,-0.261,1.526,12.2,35.7954,-0.1479,-0.12,0.1826,-45.5675
17:15:06:901,-0.395,1.589,12.3371,36.7046,-0.1298,0.1634,0.1826,-45.5675
17:15:06:921,-0.62,1.689,12.162,36.9573,-0.3003,0.3103,0.1847,-45.5675
17:15:06:941,-0.8021,1.4381,13.625,36.6844,-0.2927,0.2933,0.1826,-45.5675
17:15:06:961,-1.5821,0.662,14.9081,36.97,0.2921,0.5681,0.3945,-45.5675
17:15:06:983,-2.112,0.279,12.722,36.8263,0.7406,0.7183,0.7759,-45.5675
17:15:07:002,-1.254,0.6641,9.318,37.4851,0.5339,0.4286,0.957,-45.5675
17:15:07:021,0.524,0.866,8.214,37.9132,-0.0414,-0.1818,0.7396,-45.5675
17:15:07:041,1.3091,0.741,9.899,37.2768,-0.3759,-0.5983,0.3487,-45.5675
17:15:07:061,0.6431,0.4181,11.6861,37.2768,-0.2757,-0.4513,0.2347,-45.5675
17:15:07:083,-0.122,0.368,11.6471,37.2738,-0.0712,-0.0465,0.3637,-45.5675
17:15:07:101,-0.033,0.6,10.4,37.2629,0.0214,0.2592,0.484,-45.5675
17:15:07:121,0.3611,0.806,9.387,37.7146,0.1238,0.3487,0.5075,-45.5675
17:15:07:141,0.234,1.076,8.717,37.0793,0.3037,0.2284,0.5309,-45.5675
17:15:07:161,-0.029,1.208,7.965,37.4858,0.5072,0.0175,0.6044,-45.6675
17:15:07:181,-0.024,1.311,7.1081,38.4085,0.6425,-0.1903,0.6715,-45.7824
17:15:07:202,0.291,1.407,6.366,38.3161,0.6403,-0.331,0.6577,-45.9135
17:15:07:221,0.5981,1.464,6.2,37.6675,0.5616,-0.3319,0.5511,-46.0618
17:15:07:240,0.411,1.464,6.593,38.198,0.4806,-0.3097,0.4564,-46.2268
17:15:07:261,-0.074,1.488,7.2131,37.567,0.4135,-0.3575,0.4106,-46.4065
17:15:07:280,-0.347,1.5191,7.8431,38.4693,0.3751,-0.3586,0.3988,-46.5984
17:15:07:300,-0.3401,1.5911,8.25,38.4655,0.3197,-0.2659,0.3807,-46.8009
17:15:07:321,-0.096,1.6361,8.5781,39.413,0.1972,-0.234,0.3359,-47.0127
17:15:07:340,0.456,1.5071,8.8219,39.4233,-0.0371,-0.3362,0.256,-47.2324
17:15:07:361,1.2371,1.337,9.698,38.9711,-0.297,-0.5088,0.1027,-47.4582
17:15:07:383,1.79,1.289,11.025,38.9622,-0.4004,-0.4535,-0.0859,-47.6872
17:15:07:403,2.049,1.407,11.8871,38.9206,-0.3013,-0.0624,-0.2435,-47.9147
17:15:07:421,2.369,1.5,11.9681,38.8947,-0.2247,0.2646,-0.3895,-48.1358
17:15:07:440,2.817,1.586,11.676,38.994,-0.3524,0.2614,-0.6133,-48.3453
17:15:07:461,3.1211,1.44,12.6191,39.1145,-0.3791,0.0729,-0.9306,-48.5381
17:15:07:481,2.5661,0.966,13.271,39.23,-0.1202,0.0771,-1.0989,-48.7071
17:15:07:501,1.848,0.581,12.093,39.2059,0.0556,0.1559,-1.0755,-48.8448
17:15:07:521,1.5791,0.564,10.376,39.1664,-0.0744,0.0644,-1.0542,-48.9471
17:15:07:541,1.694,0.408,9.6701,39.29,-0.4143,-0.1999,-1.1458,-48.9471
17:15:07:561,1.4981,0.351,9.792,39.2687,-0.6827,-0.2542,-1.2418,-48.9471
17:15:07:581,0.885,0.3581,9.813,39.4436,-0.8137,-0.071,-1.2183,-48.9471
17:15:07:602,0.0521,0.432,10.055,39.5714,-0.7444,0.0718,-1.0766,-48.9471
17:15:07:621,-0.6941,0.674,10.0811,38.8545,-0.4888,0.109,-0.7943,-48.8564
17:15:07:641,-0.756,1.155,9.459,38.7961,-0.2256,0.0803,-0.513,-48.7306
17:15:07:662,-0.297,1.773,8.334,39.997,-0.0712,0.1239,-0.3618,-48.5775
17:15:07:682,-0.189,2.429,7.4021,39.9877,0.0066,0.254,-0.2426,-48.405
17:15:07:701,-0.108,3.1091,7.512,39.9772,0.194,0.3061,-0.1221,-48.2198
17:15:07:721,-0.002,3.468,7.886,39.7798,0.4891,0.1122,-0.0869,-48.0274
17:15:07:744,-0.0761,3.669,8.0059,40.6251,0.7139,-0.3352,-0.0954,-47.8322
17:15:07:761,0,3.6401,8.192,40.1772,0.7639,-0.839,-0.1562,-47.6369
17:15:07:781,0.1091,3.269,8.817,39.6586,0.7213,-1.1076,-0.2767,-47.4423
17:15:07:802,-0.036,2.75,9.3851,40.4906,0.6852,-0.8785,-0.3086,-47.2475
17:15:07:821,-0.3731,2.0891,9.765,40.3808,0.683,-0.2819,-0.1946,-47.0509
17:15:07:841,-0.725,1.6031,9.708,40.2094,0.6287,0.1634,-0.0103,-46.8527
17:15:07:862,-0.6221,1.371,9.327,41.1903,0.3847,0.1229,0.0718,-46.6554
17:15:07:883,-0.321,1.308,9.978,41.1819,0.1024,-0.1402,0.0132,-46.4622
17:15:07:902,-0.074,1.103,11.391,41.0279,0.0524,-0.1062,-0.0177,-46.2747
17:15:07:921,-0.189,1.1501,11.6621,40.0148,0.0886,0.2944,0.0153,-46.0925
17:15:07:941,-0.443,1.332,11.178,41.1694,-0.0894,0.4947,0.0397,-45.9155
17:15:07:962,-0.476,1.158,11.937,41.6385,-0.2182,0.4329,0.0206,-45.744
17:15:07:983,-0.9341,0.777,13.124,41.451,0.1301,0.6321,0.1495,-45.5778
17:15:08:005,-1.707,0.9281,11.568,40.8436,0.4987,0.9335,0.4947,-45.4176
17:15:08:021,-1.226,1.572,8.633,41.3609,0.3421,0.8058,0.6853,-45.2681
17:15:08:041,0.239,2.063,6.933,41.2449,-0.2458,0.289,0.4957,-45.1356
17:15:08:062,1.61,1.9121,7.917,40.7282,-0.8499,-0.4854,0.011,-45.0235
17:15:08:083,1.613,1.56,10.28,41.1359,-1.0395,-0.8114,-0.3884,-44.9283
17:15:08:101,0.818,1.047,11.769,41.9664,-0.8254,-0.4385,-0.3927,-44.9283
17:15:08:122,0.138,1.071,11.0801,41.1903,-0.59,0.287,-0.1402,-44.8359
17:15:08:141,-0.117,1.2731,9.809,41.1403,-0.4419,0.7737,0.1016,-44.7396
17:15:08:162,-0.038,1.589,9.093,41.6105,-0.2332,0.8089,0.2688,-44.6418
17:15:08:184,0.0491,1.8521,8.801,41.2228,0.0279,0.4063,0.3444,-44.5473
17:15:08:201,-0.033,1.931,8.5301,42.0459,0.3528,-0.0785,0.3774,-44.5473
17:15:08:222,-0.143,1.8731,7.776,41.4337,0.5882,-0.3906,0.4382,-44.5473
17:15:08:241,-0.143,1.742,6.983,42.3545,0.6383,-0.5419,0.4947,-44.5473
17:15:08:260,-0.036,1.6601,6.569,42.2974,0.5008,-0.6111,0.4979,-44.5473
17:15:08:281,-0.1841,1.565,7.3931,42.7426,0.3805,-0.6313,0.4734,-44.5473
17:15:08:302,-0.594,1.3871,9.71,42.6666,0.5627,-0.7293,0.4712,-44.5473
17:15:08:321,-0.902,1.239,11.283,42.1291,1.0229,-0.7389,0.5724,-44.5473
17:15:08:340,-0.776,1.146,9.761,43.1958,1.1613,-0.462,0.727,-44.5473
17:15:08:362,-0.278,1.6601,7.6631,43.1325,0.7171,-0.2478,0.826,-44.5473
17:15:08:383,0.8111,2.187,7.2371,43.0911,0.0109,-0.3586,0.7024,-44.5473
17:15:08:402,2.015,2.472,8.88,43.7779,-0.4877,-0.5173,0.4232,-44.5473
17:15:08:420,2.867,2.4581,10.931,43.7468,-0.5602,-0.333,0.142,-44.6526
17:15:08:441,3.485,2.357,10.941,43.6764,-0.6145,0.0601,-0.1935,-44.7718
17:15:08:462,3.306,2.225,10.412,42.8709,-0.9405,0.1719,-0.5845,-44.8958
17:15:08:483,3.0851,1.457,11.693,43.9859,-1.0747,0.2358,-0.9178,-45.0133
17:15:08:501,1.9121,0.842,12.6821,43.2315,-0.7978,0.5543,-0.9519,-45.1122
17:15:08:521,0.464,0.7841,11.975,43.8104,-0.5122,0.7322,-0.7347,-45.1122
17:15:08:541,0.231,0.825,10.9511,43.7526,-0.4579,0.3893,-0.462,-45.1122
17:15:08:562,1.572,0.6281,10.599,43.8959,-0.6102,-0.2435,-0.4331,-45.1122
17:15:08:583,2.709,0.782,11.018,43.6999,-0.6454,-0.5547,-0.6739,-45.1122
17:15:08:602,2.336,0.93,11.8151,44.8582,-0.4356,-0.513,-0.87,-45.1122
17:15:08:621,1.1171,0.918,11.214,44.834,-0.1735,-0.184,-0.773,-45.1122
17:15:08:641,0.294,1.1501,9.971,44.4691,-0.0542,0.1698,-0.5206,-45.1122
17:15:08:662,0.1361,1.476,8.9351,43.8341,0.0374,0.3871,-0.3043,-45.0142
17:15:08:685,0.1241,1.905,8.0771,45.0306,0.1067,0.3178,-0.1764,-44.8989
17:15:08:701,0.011,2.216,7.424,44.8599,0.21,0.1431,-0.1232,-44.7724
17:15:08:721,-0.1751,2.381,7.1891,44.8561,0.4029,-0.0231,-0.0732,-44.6394
17:15:08:740,-0.2081,2.3711,6.476,44.7458,0.5391,-0.0997,-0.0049,-44.5033
17:15:08:761,-0.036,2.304,5.7461,44.6996,0.4933,-0.1008,0.0408,-44.3672
17:15:08:781,0.0521,2.486,5.81,44.6862,0.3048,-0.1754,0.0675,-44.2337
17:15:08:801,0.291,2.5181,6.833,45.5851,0.096,-0.3106,0.0558,-44.1045
17:15:08:821,0.4661,2.403,8.592,45.5786,0.0407,-0.3959,0.0536,-43.9807
17:15:08:842,0.4541,2.352,9.9071,45.2248,0.1642,-0.2212,0.1239,-43.8622
17:15:08:861,0.1811,2.4311,10.4621,45.5807,0.2813,-0.0018,0.2784,-43.7494
17:15:08:881,0.3251,2.5031,10.4531,46.1452,0.2474,0.0962,0.403,-43.6445
17:15:08:902,0.717,2.5751,10.778,46.5362,0.0928,0.0909,0.4638,-43.5509
17:15:08:921,1.091,2.7311,11.372,46.4175,-0.0084,0.175,0.4191,-43.5509
17:15:08:941,1.1051,2.913,11.336,46.8451,-0.0989,0.4669,0.3242,-43.5509
17:15:08:961,0.5141,2.951,11.3771,46.9923,-0.3481,0.4692,0.239,-43.5509
17:15:08:980,0.176,2.1851,13.115,45.9378,-0.4067,0.1176,0.1687,-43.5509
17:15:09:002,-0.462,1.146,14.322,45.7763,0.1536,0.3774,0.3018,-43.5509
17:15:09:021,-1.455,1.028,12.332,46.1644,0.5849,0.7472,0.664,-43.5509
17:15:09:041,-1.281,1.335,9.464,46.6263,0.2728,0.4744,0.8953,-43.5509
17:15:09:061,-0.0191,1.404,8.9681,45.9952,-0.3418,-0.2329,0.8302,-43.5509
17:15:09:081,0.8801,1.241,11.0921,47.1442,-0.5303,-0.7506,0.6289,-43.5509
17:15:09:102,1.335,0.9401,11.8991,46.7612,-0.3717,-0.6974,0.5298,-43.5509
17:15:09:121,1.4981,0.9161,10.991,46.731,-0.297,-0.4459,0.4712,-43.5509
17:15:09:142,1.6301,0.942,9.624,46.5956,-0.2927,-0.0305,0.4297,-43.6478
17:15:09:161,1.577,0.93,8.7101,46.7017,-0.2523,0.3189,0.4137,-43.7593
17:15:09:181,1.3931,0.935,8.2691,47.1446,-0.1745,0.3092,0.3817,-43.8836
17:15:09:201,1.0451,0.942,8.3,48.0797,0.0033,0.0494,0.3689,-44.0189
17:15:09:221,0.753,0.9731,8.346,48.0357,0.3432,-0.121,0.4254,-44.1641
17:15:09:241,0.8231,1.038,7.479,46.5154,0.569,-0.1445,0.4829,-44.319
17:15:09:262,1.074,1.17,6.3821,47.5524,0.5584,-0.1158,0.436,-44.485
17:15:09:281,1.2491,1.196,5.939,47.9477,0.3719,-0.1605,0.3359,-44.6627
17:15:09:302,1.211,1.241,6.653,47.5023,0.2218,-0.2585,0.1986,-44.8511
17:15:09:321,0.89,1.1861,7.9361,47.493,0.2633,-0.1903,0.1196,-45.0474
17:15:09:341,0.605,1.22,8.2091,48.9443,0.308,0.0366,0.1346,-45.2479
17:15:09:362,0.8231,1.308,7.682,48.5404,0.0939,0.1272,0.0888,-45.4507
17:15:09:380,1.4741,1.091,7.623,48.5329,-0.3376,-0.0241,-0.0539,-45.6542
17:15:09:403,2.1041,0.633,9.143,48.5854,-0.7381,-0.3853,-0.25,-45.8555
17:15:09:422,2.288,0.4181,11.789,48.2214,-0.7264,-0.5035,-0.364,-46.0497
17:15:09:441,2.255,0.65,12.971,48.1725,-0.4036,-0.1562,-0.364,-46.2311
17:15:09:462,2.9321,0.5711,11.3,48.2608,-0.5112,0.1452,-0.5248,-46.3967
17:15:09:481,3.219,0.5179,10.5791,48.8952,-1.0449,0.2336,-0.8583,-46.5443
17:15:09:503,2.381,0.09,13.01,48.1597,-1.0534,0.4681,-1.051,-46.668
17:15:09:521,0.768,-0.0461,14.6621,49.4631,-0.507,0.7354,-0.903,-46.7601
17:15:09:541,-0.1391,0.152,13.6391,48.5399,-0.15,0.5565,-0.6057,-46.7601
17:15:09:561,0.662,-0.141,12.318,48.5258,-0.2139,0.0175,-0.4748,-46.7601
17:15:09:581,1.68,-0.017,11.822,48.698,-0.2875,-0.0774,-0.5163,-46.7601
17:15:09:603,1.962,0.257,11.3291,48.6639,-0.2896,0.1943,-0.6175,-46.7601
17:15:09:621,1.4171,0.377,10.3451,47.8165,-0.296,0.5159,-0.6431,-46.7601
17:15:09:641,0.641,0.4511,9.38,47.9689,-0.2629,0.7728,-0.5567,-46.7601
17:15:09:662,-0.0311,0.743,8.832,48.2068,-0.0946,0.8484,-0.4183,-46.7601
17:15:09:681,-0.3851,1.1051,7.9121,47.8579,0.1163,0.8004,-0.2787,-46.6582
17:15:09:701,-0.519,1.4231,6.725,48.3859,0.2122,0.6236,-0.1818,-46.5432
17:15:09:721,-0.627,1.596,5.961,48.3805,0.2175,0.3765,-0.1286,-46.4192
17:15:09:756,-0.8591,1.6481,5.954,48.2217,0.2474,0.1452,-0.0593,-46.2897
17:15:09:760,-1.1921,1.454,6.4661,48.2056,0.3506,0.0206,0.0771,-46.1574
17:15:09:781,-1.484,1.4621,6.734,48.079,0.4209,-0.0593,0.2668,-46.0254
17:15:09:801,-1.568,1.629,6.938,47.4894,0.3751,-0.1957,0.4595,-45.898
17:15:09:822,-1.233,1.9691,7.635,47.9092,0.3048,-0.3543,0.5767,-45.7802
17:15:09:841,-0.716,2.321,8.8391,48.8098,0.3154,-0.5109,0.5937,-45.6772
17:15:09:861,-0.2321,2.4791,9.95,48.2651,0.3443,-0.6441,0.5565,-45.6772
17:15:09:882,0.284,2.4191,10.431,47.8084,0.2537,-0.6431,0.5107,-45.6772
17:15:09:902,0.9041,2.333,11.015,48.7691,0.0023,-0.5163,0.4329,-45.6772
17:15:09:921,1.577,2.103,11.6831,48.2339,-0.2139,-0.0572,0.3103,-45.6772
17:15:09:941,1.8161,2.1799,12.014,48.2216,-0.3109,0.6054,0.1921,-45.6772
17:15:09:961,1.464,2.228,11.8241,48.3426,-0.5261,0.7088,0.0388,-45.6772
17:15:09:981,1.373,1.397,13.086,47.4776,-0.7072,0.026,-0.1328,-45.6772
17:15:10:002,0.612,-0.017,14.427,48.4209,-0.4323,-0.3618,-0.1306,-45.6772
17:15:10:021,-0.395,-0.941,14.642,48.4237,0.0726,-0.3512,0.1869,-45.6772
17:15:10:042,-0.4691,-1.116,13.184,47.8671,0.2516,-0.3651,0.5533,-45.6772
17:15:10:061,0.4901,-0.939,11.444,47.8646,0.0353,-0.3063,0.6843,-45.6772
17:15:10:081,1.29,-0.62,10.503,47.2966,-0.2162,0.0942,0.5778,-45.6772
17:15:10:101,0.753,-0.299,10.22,48.2901,-0.3791,0.4521,0.4851,-45.6772
17:15:10:122,-0.299,0.02,10.6901,47.1415,-0.3396,0.4425,0.5692,-45.6772
17:15:10:141,-0.764,0.095,11.633,47.1059,0.0843,0.1176,0.7546,-45.6772
17:15:10:162,-0.5051,-0.134,11.978,46.5126,0.7938,-0.3608,0.942,-45.7735
17:15:10:181,-0.11,-0.122,10.4861,47.4889,1.4809,-0.4885,1.1168,-45.891
17:15:10:203,0.519,0.2381,7.113,47.3301,1.6992,-0.1775,1.2319,-46.0457
17:15:10:221,1.5821,0.6911,3.962,47.0548,1.3189,0.2241,1.1136,-46.2464
17:15:10:242,2.288,1.1621,2.916,46.4404,0.6702,0.353,0.7855,-46.4893
17:15:10:260,2.204,1.557,4.094,46.3708,0.2133,0.2432,0.4148,-46.7675
17:15:10:281,1.649,1.368,6.057,46.4135,0.2005,0.2123,0.1687,-47.0709
17:15:10:301,0.713,1.194,6.983,46.3872,0.3315,0.239,0.1112,-47.3889
17:15:10:321,0.073,1.215,6.902,46.3553,0.2898,0.2454,0.1687,-47.7129
17:15:10:342,0.0041,1.421,6.4421,45.3388,0.0225,0.2091,0.1932,-48.0385
17:15:10:361,0.5089,1.622,7.07,46.3415,-0.3109,-0.0828,0.0866,-48.3636
17:15:10:381,1.151,1.505,9.009,46.3348,-0.4931,-0.4577,-0.1167,-48.6864
17:15:10:404,1.484,1.373,10.742,45.9069,-0.6369,-0.6431,-0.2648,-49.0032
17:15:10:421,1.8671,1.335,11.999,45.9267,-0.7327,-0.3586,-0.381,-49.3089
17:15:10:441,2.0321,1.67,12.8921,45.9451,-0.7146,0.1293,-0.4993,-49.599
17:15:10:461,2.604,1.694,13.22,45.9869,-0.7285,0.2923,-0.7784,-49.8692
17:15:10:482,2.432,1.593,13.8881,45.4056,-0.7754,0.1048,-1.1384,-50.1145
17:15:10:504,1.1651,0.978,15.152,45.5152,-0.4579,0.1346,-1.2225,-50.3275
17:15:10:521,0.042,0.47,14.6501,45.5006,0.0758,0.4351,-0.9669,-50.501
17:15:10:541,-0.189,0.447,12.459,45.4861,0.2238,0.3029,-0.7239,-50.634
17:15:10:562,0.428,0.506,10.9961,45.6101,-0.0115,-0.1423,-0.7069,-50.731
17:15:10:580,1.1771,0.066,11.1971,45.33,-0.1969,-0.3404,-0.7826,-50.731
17:15:10:602,0.966,-0.024,11.42,45.9259,-0.2023,-0.2298,-0.7826,-50.731
17:15:10:622,0.483,0.111,10.6751,46.5201,-0.1778,0.0664,-0.6729,-50.731
17:15:10:641,0.1361,0.408,9.801,45.0676,-0.1437,0.3604,-0.5195,-50.731
17:15:10:661,-0.0641,0.719,9.011,44.6909,-0.0553,0.5383,-0.3916,-50.731
17:15:10:682,-0.3491,1.076,8.25,45.1802,0.1141,0.5937,-0.2926,-50.731
17:15:10:701,-0.68,1.263,7.3691,44.6522,0.3154,0.6406,-0.1712,-50.731
17:15:10:722,-0.989,1.454,6.56,45.1216,0.4379,0.6065,-0.0337,-50.6409
17:15:10:741,-1.1561,1.713,5.8841,44.9429,0.4081,0.4456,0.0814,-50.5446
17:15:10:761,-1.424,2.2129,5.916,44.9003,0.3006,0.1506,0.109,-50.4468
17:15:10:781,-1.218,2.417,6.354,44.3846,0.2238,-0.2478,0.0749,-50.3506
17:15:10:802,-1.125,1.991,7.661,44.2572,0.2974,-0.4183,0.0516,-50.2581
17:15:10:821,-1.602,2.288,8.762,45.2592,0.4081,-0.4555,0.1409,-50.2581
17:15:10:842,-1.455,2,8.9711,44.7896,0.4157,-0.234,0.2369,-50.2581
17:15:10:862,-1.353,2.087,8.87,44.7506,0.3134,0.109,0.3498,-50.2581
17:15:10:882,-1.262,2.094,9.045,44.0765,0.1632,0.2443,0.4329,-50.2581
17:15:10:902,-1.137,2.1611,9.753,44.6149,0.0353,0.0483,0.4766,-50.2581
17:15:10:921,-0.8021,2.108,10.728,44.6207,-0.051,-0.1849,0.4403,-50.2581
17:15:10:941,-0.677,2.0171,11.274,43.5791,-0.0786,0.0249,0.3722,-50.2581
17:15:10:962,-1.214,2.07,11.726,44.0653,-0.0744,0.418,0.4467,-50.2581
17:15:10:981,-1.173,1.713,12.3581,43.5656,-0.2119,0.3828,0.4947,-50.2581
17:15:11:002,-0.735,1.296,14.025,43.9176,-0.0212,0.3253,0.5203,-50.2581
17:15:11:021,-1.604,0.423,13.52,43.8737,0.4177,0.631,0.7972,-50.2581
17:15:11:042,-1.616,0.636,11.0321,43.2704,0.503,0.7983,1.0645,-50.2581
17:15:11:061,-0.7991,0.9041,9.32,43.2014,0.0214,0.337,1.1199,-50.2581
17:15:11:081,0.284,1.172,8.9201,43.1755,-0.5155,-0.0572,0.9474,-50.3488
17:15:11:101,0.794,1.5431,8.14,43.323,-0.9309,0.1602,0.6725,-50.4703
17:15:11:121,0.2651,1.253,7.7231,43.7319,-1.5264,0.3051,0.5287,-50.6197
17:15:11:140,-0.132,0.547,8.154,43.4034,-1.8821,0.499,0.5511,-50.7922
17:15:11:161,-0.299,-0.2681,9.701,43.5225,-1.8459,0.419,0.5841,-50.9843
17:15:11:182,-0.122,-0.824,11.3411,42.7537,-1.357,-0.3458,0.5895,-51.1982
17:15:11:201,-0.33,-0.3761,10.271,42.2163,-0.6412,-0.8731,0.6981,-51.4312
17:15:11:221,-0.2111,-0.422,8.8391,42.8085,-0.1266,-1.4121,0.8399,-51.682
17:15:11:241,1.3901,-0.242,8.075,42.4372,0.177,-1.459,0.8174,-51.9509
17:15:11:261,1.541,0.538,8.3411,42.8571,0.4848,-1.2492,0.7237,-52.239
17:15:11:282,1.6031,0.885,7.8551,42.7183,0.7864,-0.92,0.613,-52.5453
17:15:11:301,1.7231,0.705,7.8071,43.2863,0.9226,-0.7028,0.5213,-52.8679
17:15:11:321,1.4291,0.636,8.681,42.8018,0.8598,-0.9584,0.451,-53.2046
17:15:11:342,0.828,0.7481,8.07,42.4032,0.765,-1.0064,0.3072,-53.5527
17:15:11:362,0.899,0.8801,8.042,43.1188,0.5818,-0.872,0.19,-53.9096
17:15:11:380,1.151,0.315,8.4701,43.042,0.3219,-0.6633,0.2177,-54.2714
17:15:11:401,1.304,0.032,9.32,42.7255,0.0822,-0.4971,0.2827,-54.6351
17:15:11:422,1.359,-0.0311,10.311,43.5972,-0.183,-0.4748,0.2625,-54.9996
17:15:11:441,2.853,0.1301,10.893,42.6208,-0.4931,-0.1477,0.2657,-55.3637
17:15:11:461,6.54,0.4181,11.9201,41.905,-0.9064,0.3029,0.0195,-55.7259
17:15:11:482,7.5431,0.3701,12.002,42.0591,-1.1865,-0.1158,-0.8359,-56.0831
17:15:11:501,1.316,-0.2681,13.2941,42.16,-1.0139,0.0909,-0.7485,-56.4233
17:15:11:521,1.4381,-1.07,14.81,42.0755,-0.6603,0.2497,-0.4417,-56.734
17:15:11:540,2.2451,-1.5131,13.706,42.0492,-0.2054,0.3541,-0.3532,-57.0139
17:15:11:561,1.23,-1.394,12.057,42.0476,0.161,-0.1093,-0.2511,-57.2664
17:15:11:581,0.411,-1.365,10.208,41.7993,0.3208,-0.235,-0.0869,-57.4963
17:15:11:603,1.1411,-1.034,9.4901,41.7993,0.1664,-0.1243,-0.1807,-57.7093
17:15:11:622,4.11,-1.07,10.158,41.7974,-0.2842,-0.7336,-0.7432,-57.9093
17:15:11:641,2.1371,-1.6901,8.027,42.1745,-0.9459,-1.1373,-0.9988,-58.0924
17:15:11:662,2.168,-0.7811,6.6581,42.3073,-1.1535,-0.5908,-1.2631,-58.2461
17:15:11:682,1.931,0.3221,8.7889,42.4372,-0.6241,-0.0252,-1.328,-58.3596
17:15:11:702,1.05,0.538,10.493,43.0981,0.1621,-0.3224,-0.8134,-58.3596
17:15:11:721,0.1931,1.34,8.772,41.7334,0.7074,-0.675,-0.2393,-58.3596
17:15:11:741,0.3371,2.3981,6.3851,41.566,0.8524,-0.6313,0.1229,-58.3596
17:15:11:766,0.957,2.027,5.789,41.4259,0.7065,-0.6292,0.3009,-58.3596
17:15:11:780,1.773,1.17,5.7,41.2716,0.3964,-0.5749,0.2049,-58.3596
17:15:11:802,2.508,1.2611,6.698,42.2157,0.161,-0.463,-0.0518,-58.3596
17:15:11:822,2.642,1.2371,8.2361,41.0165,0.2889,-0.349,-0.2383,-58.3596
17:15:11:841,4.172,1.107,9.876,41.0809,0.4913,0.1027,-0.3543,-58.3596
17:15:11:860,3.476,2.6231,9.0041,40.9818,-0.2534,0.1207,0.0217,-58.3596
17:15:11:882,1.85,1.7471,9.8471,41.2227,-0.6273,-0.3256,0.2464,-58.3596
17:15:11:902,1.508,1.112,10.661,41.1757,-0.7743,-0.5706,0.3754,-58.3596
17:15:11:922,2.322,0.657,11.688,41.0496,-0.5207,-0.3821,0.3743,-58.3596
17:15:11:940,3.5591,-0.35,12.998,41.0927,0.1727,0.0121,0.0792,-58.3596
17:15:11:961,4.302,-0.7781,13.0481,40.9026,0.6585,0.2166,-0.4246,-58.3596
17:15:11:981,2.8391,0.3221,11.3411,39.8682,0.4731,0.4115,-0.7452,-58.3596
17:15:12:002,0.497,2.12,9.888,39.8416,-0.2842,0.565,-0.3277,-58.3596
17:15:12:021,0.248,2.216,12.725,39.9312,-0.3024,0.418,0.4041,-58.3596
17:15:12:042,2.472,0.6671,13.824,39.692,0.3719,0.3785,0.6853,-58.3596
17:15:12:062,3.543,-1.322,12.7841,39.6847,0.9024,0.2177,0.451,-58.3596
17:15:12:081,2.654,-2.126,9.993,39.5345,0.9195,0.2369,0.0451,-58.3596
17:15:12:103,1.563,-1.07,7.532,38.242,0.3282,0.4777,-0.0359,-58.3596
17:15:12:122,1.4051,0.336,8.7889,38.5593,-0.1617,0.5692,0.3498,-58.3596
17:15:12:142,2.003,-0.0191,8.331,38.7973,-0.1991,0.7268,0.7014,-58.3596
17:15:12:162,2.001,0.011,7.3661,38.871,-0.1011,0.9868,0.7887,-58.3596
17:15:12:181,1.989,0.482,9.5981,37.8852,-0.1522,1.2776,0.7461,-58.3596
17:15:12:202,2.1641,0.444,9.923,37.8247,-0.3631,0.2975,0.6981,-58.3596
17:15:12:222,2.4461,0.545,9.77,37.6062,0.0353,-0.3256,0.517,-58.4599
17:15:12:241,2.087,0.605,8.1131,37.4702,0.5743,-0.5004,0.2219,-58.5781
17:15:12:261,1.9241,1.2101,6.5261,37.4209,0.9089,-0.5258,0.0866,-58.7109
17:15:12:281,1.8641,1.538,6.1121,37.2921,0.8566,-0.3341,0.1027,-58.8542
17:15:12:302,1.9001,1.505,6.902,36.9406,0.5882,-0.1264,0.2017,-59.0054
17:15:12:321,1.9361,1.098,8.2571,37.1504,0.4412,0.0707,0.256,-59.1638
17:15:12:341,2.171,0.858,9.143,37.1097,0.5328,0.2166,0.223,-59.3291
17:15:12:362,2.42,0.789,9.765,37.3123,0.698,0.3668,0.1602,-59.5013
17:15:12:382,2.3501,0.8681,9.911,36.1159,0.8396,0.4041,0.0718,-59.68
17:15:12:402,2.113,1.313,9.701,36.0865,0.8759,0.3391,-0.038,-59.8642
17:15:12:421,1.788,2.0201,9.7031,36.3642,0.748,0.322,-0.0891,-60.052
17:15:12:441,2.231,1.962,10.6151,36.3213,0.4572,0.37,0.0473,-60.2406
17:15:12:461,3.0371,1.28,11.666,35.1848,0.2122,0.3433,0.1591,-60.4287
17:15:12:480,3.002,1.143,11.513,35.9871,0.1929,0.1793,-0.0135,-60.6168
17:15:12:503,2.688,1.802,10.721,35.1799,0.21,0.0568,-0.234,-60.8043
17:15:12:521,2.8751,1.938,11.994,35.5104,0.0087,0.1911,-0.2287,-60.9878
17:15:12:541,2.793,1.392,12.9881,35.1673,-0.051,0.1613,-0.2403,-61.1634
17:15:12:562,2.274,1.34,11.42,35.2232,0.1184,-0.1829,-0.3799,-61.3292
17:15:12:581,1.476,2.2129,8.8721,35.2279,0.1163,-0.4737,-0.5078,-61.4828
17:15:12:602,1.134,2.7401,8.336,34.1182,-0.2853,-0.3736,-0.3523,-61.6213
17:15:12:622,1.524,2.024,9.552,35.0336,-0.7253,-0.0997,0.0153,-61.7427
17:15:12:641,2.3291,0.588,10.158,35.4252,-0.8041,0.0653,0.2549,-61.8491
17:15:12:661,2.7641,-0.074,9.4451,34.3379,-0.5474,0.0942,0.1282,-61.946
17:15:12:681,2.429,0.384,8.073,34.3224,-0.2481,0.0388,-0.1966,-62.0377
17:15:12:703,1.8191,1.301,7.266,34.3246,-0.117,0.0909,-0.4364,-62.0377
17:15:12:722,1.11,2.34,7.479,33.3834,-0.0456,0.3285,-0.528,-62.0377
17:15:12:741,1.2731,2.549,7.9721,33.3722,0.0183,0.5405,-0.3565,-62.0377
17:15:12:762,1.5551,2.12,8.5991,33.7468,0.0609,0.5884,-0.1658,-62.0377
17:15:12:781,1.893,1.656,9.344,33.7468,0.0822,0.436,-0.1136,-62.0377
17:15:12:802,1.7831,1.4471,9.974,33.7295,0.1951,0.2668,-0.202,-62.0377
17:15:12:820,1.3301,1.572,9.8441,33.7321,0.4177,0.0792,-0.3597,-62.0377
17:15:12:842,1.041,1.905,8.985,32.558,0.5754,-0.0934,-0.4172,-62.0377
17:15:12:863,0.768,2.304,8.712,32.5239,0.5562,-0.103,-0.3682,-62.0377
17:15:12:881,0.969,1.929,9.524,32.5881,0.3964,-0.0646,-0.169,-62.0377
17:15:12:904,1.443,1.284,10.283,32.4912,0.2835,-0.1402,-0.0433,-62.0377
17:15:12:921,1.326,1.4141,9.756,32.4912,0.2974,-0.267,-0.1147,-62.0377
17:15:12:942,0.954,1.991,9.014,32.4718,0.2889,-0.136,-0.1466,-62.0377
17:15:12:961,0.911,2.1851,9.5741,32.4718,0.1195,0.1954,-0.055,-62.0377
17:15:12:981,0.9521,2.024,10.5221,32.4546,-0.0254,0.386,0.0132,-62.0377
17:15:13:003,0.48,2.403,9.998,31.968,-0.0169,0.3796,-0.0198,-62.0377
17:15:13:021,0.2771,2.592,9.751,31.9759,-0.0894,0.4658,0.0579,-62.0377
17:15:13:041,0.942,2.0081,11.228,31.959,-0.3174,0.5991,0.2592,-62.0377
17:15:13:062,1.745,1.019,12.093,31.3774,-0.3439,0.4104,0.3413,-62.0377
17:15:13:081,1.836,0.621,10.122,30.9147,-0.1096,-0.0326,0.2134,-62.0377
17:15:13:103,1.0571,0.674,7.6871,32.1116,-0.1042,-0.2255,0.0516,-62.0377
17:15:13:121,0.413,0.743,8.034,31.5261,-0.4675,0.092,0.0579,-62.0377
17:15:13:141,0.4211,0.566,9.8711,31.7541,-0.7689,0.5085,0.2028,-62.0377
17:15:13:161,0.7631,0.341,10.8521,31.7059,-0.7902,0.6139,0.2571,-62.0377
17:15:13:181,0.8201,0.593,10.694,30.8858,-0.6688,0.4073,0.1463,-62.0377
17:15:13:202,0.746,1.217,9.785,30.8988,-0.606,-0.0103,0.0121,-62.0377
17:15:13:220,0.557,1.778,8.7431,31.1346,-0.6145,-0.3853,-0.0657,-62.0377
17:15:13:241,0.7961,1.9451,8.0561,31.1186,-0.5868,-0.5004,-0.0518,-62.0377
17:15:13:261,1.175,1.8281,8.2571,31.1186,-0.4568,-0.3341,-0.0402,-62.0377
17:15:13:280,1.136,1.727,8.7671,30.6736,-0.1298,-0.1115,-0.0795,-62.0377
17:15:13:301,0.914,1.902,8.121,31.1186,0.3059,-0.0667,-0.153,-62.0377
17:15:13:321,0.2651,2.261,7.8191,30.6736,0.4348,-0.1541,-0.2201,-62.0377
17:15:13:340,0.059,2.5871,7.8,30.2685,0.3304,-0.3565,-0.1584,-62.0377
17:15:13:361,0.447,2.5031,8.147,30.6736,0.1567,-0.4609,-0.0103,-62.0377
17:15:13:380,1.0931,2.084,8.93,30.2685,0.0428,-0.3959,0.1037,-62.0377
17:15:13:401,1.488,1.814,9.8921,30.4539,0.1471,-0.0902,0.1048,-62.0377
17:15:13:421,1.3181,1.754,10.448,30.4539,0.3932,0.2603,0.0483,-62.0377
17:15:13:440,1.16,1.778,10.7141,30.4539,0.4604,0.353,0.0451,-62.0377
17:15:13:461,1.323,1.9331,11.051,30.4539,0.3102,0.1911,0.0771,-62.0377
17:15:13:480,1.938,1.929,11.549,30.4539,0.128,0.0217,0.1335,-62.0377
17:15:13:501,2.633,1.533,11.817,29.6775,-0.0232,-0.1488,0.1335,-62.0377
17:15:13:520,2.973,1.445,11.777,30.4539,-0.1446,-0.3106,-0.0337,-62.0377
17:15:13:541,2.925,1.6631,12.0971,29.6775,-0.2129,-0.3171,-0.267,-62.0377
17:15:13:561,2.628,1.308,12.7271,30.6736,-0.0979,-0.1147,-0.3703,-62.0377
17:15:13:580,1.946,0.7391,12.2171,30.2685,0.1929,0.0078,-0.4087,-62.0377
17:15:13:601,1.115,0.7001,10.146,30.2685,0.3358,-0.1679,-0.4459,-62.0377
17:15:13:621,0.485,1.313,8.099,30.5134,0.0513,-0.4428,-0.4108,-62.0377
17:15:13:642,0.4181,1.3751,8.396,29.5111,-0.4973,-0.348,-0.1871,-62.0377
17:15:13:661,0.768,0.573,10.196,29.5111,-0.785,0.0696,0.1165,-62.0377
17:15:13:681,1.0571,-0.158,10.532,29.7925,-0.6784,0.1997,0.2379,-62.0377
17:15:13:702,1.242,-0.2831,9.902,28.8106,-0.5741,0.0419,0.1911,-62.0377
17:15:13:721,1.4981,-0.0791,9.6461,30.0858,-0.6219,-0.1594,0.0814,-62.0377
17:15:13:741,1.812,0.1571,9.911,30.0858,-0.6209,-0.2606,-0.0507,-62.0377
17:15:13:776,1.938,0.2171,10.017,29.7048,-0.3641,-0.2383,-0.2031,-62.0377
17:15:13:779,1.833,0.447,9.0881,28.726,0.1206,-0.1977,-0.3788,-62.0377
17:15:13:801,1.397,1.11,7.649,29.7048,0.5275,-0.105,-0.5621,-62.0377
17:15:13:821,0.7841,1.883,7.137,29.3592,0.5669,-0.088,-0.6494,-62.0377
17:15:13:841,0.588,2.34,7.158,29.3592,0.454,-0.1807,-0.5738,-62.0377
17:15:13:860,0.7391,2.462,6.947,30.3523,0.4146,-0.1988,-0.4246,-61.9349
17:15:13:881,0.9881,2.2571,7.137,29.3592,0.4166,0.0195,-0.2628,-61.8201
17:15:13:902,1.376,1.6151,8.4461,30.3523,0.3858,0.3348,-0.1115,-61.696
17:15:13:922,1.704,0.7001,10.374,29.3592,0.3794,0.4436,-0.0561,-61.5669
17:15:13:941,1.749,0.363,10.4981,29.4066,0.4678,0.1591,-0.1508,-61.4366
17:15:13:962,1.385,0.9761,9.5021,29.0559,0.4135,-0.235,-0.2947,-61.3068
17:15:13:981,1.218,1.799,8.786,29.0559,0.1642,-0.3234,-0.2883,-61.1765
17:15:14:002,1.551,2.012,9.672,29.3592,-0.1022,0.043,-0.0987,-61.0437
17:15:14:022,1.56,1.196,11.2571,29.7048,-0.198,0.5116,0.0664,-60.9083
17:15:14:043,1.1561,1.208,11.247,28.726,-0.1213,0.6523,0.0334,-60.7729
17:15:14:061,0.804,1.6751,11.46,28.726,-0.1778,0.6469,0.0302,-60.6398
17:15:14:081,1.3181,1.316,13.347,28.726,-0.3791,0.5831,0.1889,-60.5096
17:15:14:101,1.7801,0.8561,13.859,28.726,-0.281,0.1528,0.1815,-60.3837
17:15:14:121,1.658,0.818,11.279,29.7048,0.062,-0.4459,0.0227,-60.2643
17:15:14:141,0.672,1.263,8.628,28.726,0.1301,-0.7315,-0.1082,-60.1515
17:15:14:161,0.2861,1.6511,7.817,28.6884,-0.1437,-0.6526,-0.0316,-60.0433
17:15:14:181,0.966,1.4711,7.9271,28.6884,-0.3982,-0.4246,0.1708,-59.9375
17:15:14:201,1.496,0.894,8.0389,28.6884,-0.4408,-0.1264,0.2773,-59.8349
17:15:14:221,1.311,0.7751,7.9391,28.6884,-0.4067,0.0099,0.2379,-59.738
17:15:14:241,0.737,1.1771,7.623,29.0418,-0.4664,-0.1136,0.1836,-59.738
17:15:14:261,0.27,1.866,7.589,28.7186,-0.6742,-0.3575,0.2454,-59.738
17:15:14:281,1.024,1.545,8.3479,29.414,-0.8158,-0.4087,0.434,-59.738
17:15:14:301,1.883,0.597,9.267,29.414,-0.5974,-0.0987,0.4701,-59.738
17:15:14:321,2.223,-0.029,9.5951,28.4598,-0.0957,0.2731,0.2762,-59.738
17:15:14:341,1.812,0.368,8.975,29.0418,0.3336,0.3285,-0.0496,-59.738
17:15:14:361,1.062,1.3061,7.9721,28.0948,0.4305,0.0749,-0.2926,-59.738
17:15:14:381,0.6341,1.988,7.4171,29.414,0.2654,-0.1882,-0.3086,-59.738
17:15:14:401,0.875,1.955,7.728,29.414,0.0556,-0.2148,-0.1786,-59.738
17:15:14:421,1.385,1.6511,8.868,28.0948,0.0428,0.1293,-0.0912,-59.738
17:15:14:441,1.488,1.304,9.974,28.4787,0.159,0.4584,-0.0869,-59.738
17:15:14:461,1.223,1.2251,10.656,28.8378,0.209,0.4744,-0.121,-59.738
17:15:14:480,0.89,1.469,10.694,28.4787,0.1994,0.3103,-0.1328,-59.738
17:15:14:501,0.7631,1.7231,10.6991,28.8377,0.1078,0.2294,-0.0624,-59.738
17:15:14:520,0.993,1.3661,11.8001,28.8378,-0.0681,0.3263,0.0866,-59.738
17:15:14:541,1.3421,0.956,12.792,28.8377,-0.117,0.3999,0.1613,-59.738
17:15:14:561,1.3571,0.717,12.971,29.2259,-0.067,0.3754,0.1431,-59.738
17:15:14:580,1.56,0.504,13.4141,29.2259,-0.0605,0.3765,0.1303,-59.738
17:15:14:601,1.56,0.473,13.989,28.8378,-0.0115,0.3263,0.0877,-59.738
17:15:14:621,1.3901,0.035,12.8321,28.8377,0.209,0.0206,0.0153,-59.738
17:15:14:641,1.112,0.6,9.9881,28.8377,0.2856,-0.4535,-0.1019,-59.738
17:15:14:660,0.521,1.4381,8.405,30.1381,-0.0808,-0.6654,-0.088,-59.738
17:15:14:681,0.926,1.4591,9.722,35.0571,-0.5996,-0.43,0.1517,-59.738
17:15:14:701,1.8,0.53,11.676,35.0002,-0.6933,0.0323,0.4009,-59.738
17:15:14:721,1.97,-0.23,11.772,34.6413,-0.3717,0.2326,0.3796,-59.738
17:15:14:740,1.85,-0.3881,10.788,34.4369,-0.0914,0.1048,0.2305,-59.738
17:15:14:761,1.2851,0.176,9.5951,35.345,0.0183,-0.1743,-0.0124,-59.738
17:15:14:780,0.6071,0.887,8.291,35.2132,0.0758,-0.4268,-0.1797,-59.738
17:15:14:801,0.543,1.172,7.572,34.5293,0.1206,-0.4683,-0.1743,-59.738
17:15:14:821,0.957,1.038,7.34,36.57,0.225,-0.349,-0.1189,-59.738
17:15:14:842,1.572,0.8321,7.316,36.5429,0.3943,-0.2244,-0.1178,-59.738
17:15:14:861,1.505,0.801,7.412,35.9845,0.5849,-0.0997,-0.2159,-59.738
17:15:14:881,1.1561,1.356,6.95,35.0798,0.7117,-0.1508,-0.3512,-59.738
17:15:14:900,1.0571,1.919,6.6791,34.4659,0.6181,-0.2435,-0.3693,-59.738
17:15:14:921,1.2131,1.9811,7.637,34.0306,0.3836,-0.1722,-0.2596,-59.738
17:15:14:941,1.553,1.6151,9.026,34.4266,0.3154,0.0483,-0.1349,-59.738
17:15:14:961,1.56,1.311,9.801,35.3624,0.4625,0.2731,-0.0912,-59.738
17:15:14:980,1.0331,1.143,9.998,35.1189,0.4922,0.2753,-0.0763,-59.738
17:15:15:002,0.698,1.047,9.792,33.8246,0.3017,0.092,-0.0124,-59.738
17:15:15:021,0.969,0.9611,9.998,33.8389,0.014,0.0238,0.0962,-59.738
17:15:15:041,1.46,0.863,11.204,33.8511,-0.1585,0.1698,0.175,-59.738
17:15:15:061,0.926,1.0039,11.3261,33.6509,-0.0542,0.2848,0.1218,-59.738
17:15:15:082,0.009,1.7711,10.493,33.338,0.0183,0.2955,0.0824,-59.738
17:15:15:101,-0.146,2,11.846,34.0644,-0.1181,0.5394,0.2603,-59.738
17:15:15:121,0.342,1.2581,13.041,33.0641,-0.0957,0.6299,0.4797,-59.738
17:15:15:141,0.528,0.6881,11.726,32.0073,0.1408,0.3168,0.5181,-59.738
17:15:15:161,0.081,0.554,9.71,32.7479,0.1792,0.0099,0.5064,-59.738
17:15:15:180,-0.017,0.566,9.311,32.4341,-0.1277,-0.07,0.5789,-59.738
17:15:15:201,0.1571,0.588,9.306,32.3569,-0.4143,-0.1338,0.6736,-59.738
17:15:15:220,0.5,0.6671,8.492,32.3621,-0.5815,-0.3395,0.762,-59.738
17:15:15:240,0.801,0.71,7.919,32.4889,-0.7882,-0.5035,0.8388,-59.738
17:15:15:260,1.311,0.485,7.697,31.3537,-0.998,-0.6441,0.9016,-59.738
17:15:15:280,1.883,0.617,7.9001,31.328,-1.1003,-0.7347,0.8643,-59.738
17:15:15:300,2.243,0.662,8.8031,31.369,-0.9618,-0.5727,0.762,-59.8339
17:15:15:321,2.214,0.284,9.354,31.5524,-0.4834,-0.267,0.6182,-59.9506
17:15:15:341,2.1371,0.542,9.1481,31.6591,0.0726,-0.0476,0.3871,-60.0853
17:15:15:361,1.8311,1.196,8.631,32.5077,0.3847,0.0217,0.1389,-60.2351
17:15:15:381,1.721,1.4951,8.654,32.5375,0.3783,-0.0294,0.0323,-60.3955
17:15:15:402,1.8191,1.5071,8.307,30.8985,0.2824,-0.2179,-0.0348,-60.5618
17:15:15:422,2.0081,1.574,8.118,31.9506,0.2014,-0.2329,-0.0987,-60.7299
17:15:15:441,2.1611,1.5551,9.449,31.2361,0.1877,0.1793,-0.1253,-60.8965
17:15:15:461,2.3981,1.1741,11.18,32.2797,0.341,0.6352,-0.1317,-61.0588
17:15:15:481,2.195,1.0451,11.595,32.1822,0.5732,0.6747,-0.235,-61.2156
17:15:15:502,1.608,1.469,11.03,32.3383,0.6596,0.4669,-0.3629,-61.3659
17:15:15:521,1.364,1.814,10.895,31.6306,0.5041,0.3348,-0.3575,-61.5077
17:15:15:540,1.958,1.6391,12.0521,31.9195,0.3282,0.4692,-0.2265,-61.6388
17:15:15:561,2.3141,1.352,13.259,32.0274,0.356,0.6204,-0.1797,-61.7588
17:15:15:581,1.919,1.404,12.6221,31.8494,0.4828,0.4158,-0.2872,-61.8692
17:15:15:602,1.761,1.5221,11.903,32.3804,0.4337,0.1676,-0.3682,-61.9701
17:15:15:621,2.19,1.196,12.768,31.8839,0.3602,0.1591,-0.3608,-62.0603
17:15:15:641,2.1799,0.731,11.525,33.1197,0.601,-0.055,-0.4268,-62.0603
17:15:15:661,1.505,0.782,8.592,32.6928,0.7256,-0.4076,-0.5567,-62.0603
17:15:15:681,0.729,1.505,6.9281,32.7766,0.2889,-0.5983,-0.5908,-62.0603
17:15:15:701,0.761,2.0081,7.934,33.7127,-0.411,-0.4609,-0.3959,-62.0603
17:15:15:721,1.575,1.55,10.0931,34.842,-0.7552,-0.0859,-0.0954,-62.0603
17:15:15:741,2.226,0.5261,11.262,34.4161,-0.5559,0.2369,0.059,-62.0603
17:15:15:760,2.403,-0.1391,10.589,35.1788,-0.1767,0.2464,-0.0241,-62.0603
17:15:15:786,1.9721,-0.005,9.378,34.6744,-0.003,-0.0198,-0.2767,-62.0603
17:15:15:801,1.01,0.719,8.1251,35.7517,-0.0062,-0.3554,-0.5258,-62.0603
17:15:15:821,0.612,1.287,7.601,35.2909,-0.1096,-0.5334,-0.594,-62.0603
17:15:15:841,0.746,1.5,7.821,35.8018,-0.1202,-0.4566,-0.5684,-62.0603
17:15:15:861,1.0931,1.533,7.9151,36.6985,0.0704,-0.3149,-0.5514,-62.0603
17:15:15:882,1.1081,1.6841,7.5101,36.8157,0.3069,-0.2969,-0.5866,-62.0603
17:15:15:902,0.6791,2.19,6.897,36.3877,0.4007,-0.4044,-0.6227,-62.0603
17:15:15:921,0.708,2.57,6.753,37.1255,0.225,-0.4939,-0.5173,-61.9564
17:15:15:942,1.445,2.247,7.6301,36.7915,-0.0659,-0.364,-0.3097,-61.8371
17:15:15:961,2.204,1.6511,9.275,36.795,-0.1235,0.011,-0.1999,-61.7051
17:15:15:981,2.022,1.383,10.9001,36.8628,0.1195,0.3807,-0.2648,-61.564
17:15:16:001,1.203,1.622,11.123,37.4959,0.4583,0.4073,-0.3597,-61.4167
17:15:16:021,0.363,2.225,9.9281,37.4715,0.5221,0.1016,-0.3586,-61.2639
17:15:16:041,0.27,2.5871,9.363,37.4377,0.1673,-0.1328,-0.1712,-61.1056
17:15:16:062,0.99,2.2451,10.5671,37.8523,-0.2108,-0.0657,0.1005,-60.9429
17:15:16:081,1.014,1.8971,11.379,38.5816,-0.1756,0.1303,0.223,-60.7792
17:15:16:101,0.14,2.2901,10.3091,38.0508,0.0342,0.1943,0.2039,-60.6191
17:15:16:121,-0.206,2.702,10.8521,37.9278,-0.0318,0.4403,0.353,-60.466
17:15:16:141,0.198,2.2181,12.983,39.3786,-0.1693,0.7045,0.681,-60.3226
17:15:16:161,0.7991,1.1411,13.242,38.1276,-0.036,0.4872,0.8654,-60.1937
17:15:16:182,0.653,0.447,11.037,38.1265,0.1684,-0.0092,0.7652,-60.0861
17:15:16:201,0.2981,0.48,9.299,38.4616,0.0971,-0.2255,0.6108,-60.0861
17:15:16:221,0.444,0.681,9.1841,38.5889,-0.1287,-0.103,0.5681,-60.0861
17:15:16:241,0.794,0.734,9.006,39.1304,-0.1756,0.0397,0.5789,-60.0861
17:15:16:260,0.8831,0.978,8.034,38.3874,-0.0627,0.0931,0.5372,-60.0861
17:15:16:281,0.9761,1.2611,7.433,39.3075,-0.0723,0.1622,0.5266,-60.0861
17:15:16:302,1.275,1.356,7.8641,40.0662,-0.1926,0.2742,0.5372,-60.0861
17:15:16:322,1.512,1.337,8.52,39.576,-0.1702,0.3604,0.4936,-60.0861
17:15:16:341,1.376,1.529,8.303,39.9643,0.0374,0.2975,0.3807,-60.0861
17:15:16:361,1.302,1.842,7.872,40.3735,0.1695,0.1528,0.2827,-60.0861
17:15:16:381,1.139,2.048,7.9751,40.3861,0.1397,0.0164,0.2208,-60.1762
17:15:16:401,1.254,2.211,8.118,39.8373,0.0896,-0.1445,0.1847,-60.276
17:15:16:421,1.1891,2.355,8.121,41.157,0.0908,-0.2372,0.1389,-60.3829
17:15:16:440,1.2011,2.3861,8.135,41.0474,0.0993,-0.2265,0.1261,-60.4949
17:15:16:461,1.536,2.168,8.942,40.161,0.0661,-0.038,0.1409,-60.6103
17:15:16:481,2.154,1.83,10.328,39.9697,0.1045,0.2145,0.1027,-60.7283
17:15:16:501,2.1401,1.7321,11.2451,41.2551,0.2984,0.3263,-0.0635,-60.8484
17:15:16:521,1.577,2.058,10.895,41.1876,0.5115,0.206,-0.2617,-60.9689
17:15:16:541,1.17,2.4,10.577,42.0188,0.5264,0.1133,-0.3341,-61.0864
17:15:16:561,1.505,2.2571,11.319,41.9793,0.4135,0.173,-0.25,-61.1971
17:15:16:581,2.061,2.1011,12.0761,41.1739,0.4049,0.2208,-0.1977,-61.2989
17:15:16:602,1.8641,2.333,11.3411,42.0637,0.4231,-0.0146,-0.3032,-61.3922
17:15:16:621,1.302,2.822,9.8711,42.776,0.1462,-0.4609,-0.4311,-61.3922
17:15:16:641,1.481,2.934,10.503,41.621,-0.2544,-0.4854,-0.3597,-61.3922
17:15:16:661,2.5421,1.79,11.832,42.3166,-0.2129,-0.1849,-0.1966,-61.3922
17:15:16:681,2.891,1.028,10.3691,42.0356,0.1759,-0.2841,-0.3277,-61.3922
17:15:16:701,2.113,1.304,8.0921,43.6489,0.2292,-0.4555,-0.5738,-61.3922
17:15:16:721,1.074,1.9091,8.271,42.0777,-0.2162,-0.2489,-0.6227,-61.3922
17:15:16:741,0.974,2.154,10.608,42.7362,-0.5868,0.2241,-0.4544,-61.3922
17:15:16:761,1.206,1.4591,11.384,42.2258,-0.4803,0.4681,-0.2639,-61.3922
17:15:16:781,1.232,0.633,10.5461,42.5354,-0.2108,0.4445,-0.1754,-61.3922
17:15:16:801,0.935,0.53,9.603,43.157,-0.1437,0.2113,-0.2659,-61.3922
17:15:16:820,0.5021,1.052,9.0761,42.8498,-0.281,-0.1317,-0.4183,-61.3922
17:15:16:841,0.461,1.608,8.925,43.3012,-0.4195,-0.3992,-0.4791,-61.3922
17:15:16:861,0.567,1.7921,8.537,43.8388,-0.3216,-0.5099,-0.4896,-61.3922
17:15:16:881,0.6341,1.871,7.6901,44.5943,-0.0403,-0.495,-0.4971,-61.3922
17:15:16:901,0.614,2.103,6.833,43.1858,0.1994,-0.4161,-0.5152,-61.2894
17:15:16:922,0.5141,2.498,6.543,43.011,0.2707,-0.2926,-0.513,-61.1724
17:15:16:941,0.4091,2.975,7.029,43.2304,0.1994,-0.1818,-0.4513,-61.0419
17:15:16:961,0.3221,3.039,7.625,43.1158,0.0694,-0.1456,-0.3043,-60.8986
17:15:16:981,0.428,2.843,8.173,43.7419,-0.018,-0.0837,-0.1541,-60.7449
17:15:17:002,0.957,2.604,9.176,44.2037,-0.0723,0.092,-0.0177,-60.5841
17:15:17:020,1.266,2.441,10.7711,44.1326,-0.051,0.2944,0.0675,-60.4202
17:15:17:041,0.938,2.2451,11.7431,44.3157,0.0672,0.2816,0.1155,-60.2571
17:15:17:060,0.32,2.163,11.2331,44.6243,0.1547,0.0419,0.1528,-60.0978
17:15:17:081,0.519,1.998,10.397,44.2925,0.0055,-0.1722,0.2518,-59.9447
17:15:17:102,1.263,2.0051,10.6901,44.7423,-0.2449,-0.1477,0.3305,-59.8001
17:15:17:121,0.729,2.333,10.481,45.24,-0.2373,0.028,0.3051,-59.666
17:15:17:140,0.377,2.4911,10.278,45.6258,-0.1926,0.3305,0.4445,-59.5436
17:15:17:161,1.163,1.452,12.641,46.271,-0.3311,0.8069,0.7748,-59.4341
17:15:17:181,2.247,0.011,13.812,45.2541,-0.2108,0.8185,0.9166,-59.3417
17:15:17:202,2.369,-0.606,11.889,44.5437,0.1397,0.2923,0.6555,-59.3417
17:15:17:221,1.469,0.293,9.078,44.51,0.2676,-0.1946,0.1741,-59.3417
17:15:17:241,0.0971,1.502,8.037,44.4899,0.0982,-0.1786,-0.0646,-59.3417
17:15:17:261,-0.246,2.0201,8.7191,43.7097,-0.115,0.158,0.092,-59.3417
17:15:17:280,-0.191,1.608,9.129,45.0749,-0.1255,0.3902,0.337,-59.3417
17:15:17:299,0.0041,1.131,8.379,45.0841,-0.0329,0.3391,0.4925,-59.3417
17:15:17:321,0.1691,1.1891,7.6991,46.3272,-0.1074,0.1911,0.5213,-59.3417
17:15:17:341,0.591,1.344,8.36,45.7206,-0.3631,0.1144,0.534,-59.3417
17:15:17:361,0.921,1.361,9.224,45.6909,-0.4482,0.026,0.5075,-59.3417
17:15:17:381,1.1081,1.517,8.894,45.3902,-0.2321,-0.1167,0.3978,-59.3417
17:15:17:401,1.041,1.9331,7.967,46.3246,0.0236,-0.2393,0.2518,-59.3417
17:15:17:423,0.902,2.355,7.419,46.3033,0.1323,-0.2659,0.158,-59.3417
17:15:17:442,0.947,2.673,7.445,46.2184,0.1493,-0.2148,0.1196,-59.435
17:15:17:462,1.103,2.831,8.008,46.8769,0.1781,-0.088,0.1367,-59.534
17:15:17:482,1.347,2.678,8.592,47.5235,0.2303,0.011,0.1954,-59.6368
17:15:17:501,1.508,2.441,9.665,47.4435,0.2622,0.1548,0.2049,-59.7434
17:15:17:522,1.869,2.309,10.8551,47.3158,0.2846,0.2571,0.1698,-59.8541
17:15:17:542,1.982,2.345,11.9471,48.0122,0.3134,0.2188,0.0824,-59.969
17:15:17:562,1.6751,2.3711,11.9561,47.8127,0.4038,0.0217,-0.022,-60.0872
17:15:17:580,1.452,2.28,11.379,47.7951,0.4561,-0.1434,-0.0572,-60.2069
17:15:17:601,1.704,1.9331,11.4251,48.6069,0.4114,-0.1317,-0.0155,-60.3258
17:15:17:623,2.286,1.761,11.472,48.6069,0.358,-0.1754,-0.0465,-60.4431
17:15:17:642,1.965,2.336,10.3181,49.4842,0.3432,-0.3629,-0.2628,-60.5585
17:15:17:661,1.29,3.2981,9.555,47.9961,0.2292,-0.3543,-0.3597,-60.6695
17:15:17:681,1.658,2.9201,11.1401,48.4582,0.0172,-0.022,-0.1551,-60.7722
17:15:17:701,2.408,1.727,12.3731,49.1192,0.1121,0.157,-0.0283,-60.8654
17:15:17:722,2.415,1.16,10.5671,48.6322,0.3868,-0.1167,-0.1286,-60.8654
17:15:17:742,1.7351,1.799,8.3,48.7891,0.2185,-0.4407,-0.2861,-60.8654
17:15:17:762,1.35,2.4821,8.894,48.5616,-0.3279,-0.3011,-0.2457,-60.8654
17:15:17:796,1.749,2.039,11.1041,48.2453,-0.6209,0.1645,0.011,-60.8654
17:15:17:800,2.025,1.0091,11.384,47.9959,-0.4451,0.4104,0.1687,-60.8654
17:15:17:821,1.7591,0.4991,10.424,48.5758,-0.2619,0.3157,0.1059,-60.8654
17:15:17:842,1.3931,0.4751,9.674,48.4243,-0.3098,-0.0027,-0.072,-60.8654
17:15:17:861,0.921,0.9731,8.276,47.9241,-0.3908,-0.4961,-0.3,-60.8654
17:15:17:882,0.464,1.574,6.299,49.1867,-0.3471,-0.804,-0.4364,-60.8654
17:15:17:901,0.351,1.9481,4.8671,47.7121,-0.2672,-0.725,-0.4161,-60.8654
17:15:17:924,1.1291,1.979,5.252,47.2735,-0.1873,-0.252,-0.3011,-60.8654
17:15:17:941,1.673,1.433,7.256,48.1028,0.0865,0.4808,-0.2137,-60.8654
17:15:17:962,1.685,0.968,7.6991,48.41,0.5627,0.7557,-0.2457,-60.8654
17:15:17:981,1.172,1.2341,6.5021,47.4299,0.8342,0.6171,-0.4225,-60.8654
17:15:18:002,0.6311,2.115,6.2441,47.5337,0.6436,0.5329,-0.6175,-60.8654
17:15:18:024,0.545,2.735,8.07,48.1144,0.2516,0.696,-0.6185,-60.8654
17:15:18:041,0.672,2.57,10.22,47.9721,0.0939,0.7791,-0.4566,-60.8654
17:15:18:062,0.689,2.235,10.443,47.2121,0.1886,0.4286,-0.3586,-60.8654
17:15:18:081,0.4301,2.5061,9.3731,48.1,0.161,-0.0593,-0.3597,-60.8654
17:15:18:102,-0.234,2.6801,9.351,46.6622,-0.1841,-0.2734,-0.3043,-60.8654
17:15:18:124,-0.11,2.3141,10.553,47.4215,-0.6432,-0.2201,-0.0561,-60.8654
17:15:18:141,0.533,1.979,12.356,47.1577,-0.8979,-0.0678,0.1442,-60.7652
17:15:18:162,0.248,2.0651,13.022,47.5964,-0.7956,-0.0188,0.1272,-60.6618
17:15:18:181,-0.108,2.3591,12.8831,46.6815,-0.5516,0.0195,0.1144,-60.5591
17:15:18:203,0.306,2.4671,13.9241,46.2432,-0.3237,0.2219,0.2497,-60.459
17:15:18:224,0.648,2.1251,14.075,47.1003,-0.0755,0.0164,0.4243,-60.3637
17:15:18:242,1.079,1.766,12.243,46.9778,0.1258,-0.577,0.4403,-60.3637
17:15:18:261,1.3541,1.526,10.017,46.4209,0.1173,-0.5258,0.2634,-60.3637
17:15:18:281,1.239,1.299,9.299,46.1922,0.0407,-0.2062,0.2838,-60.3637
17:15:18:301,1.16,0.777,8.8961,46.0804,0.0322,-0.1275,0.2454,-60.3637
17:15:18:322,1.024,0.672,7.922,46.0368,0.0109,-0.0007,0.1122,-60.3637
17:15:18:342,0.5861,1.167,6.873,46.0124,-0.0158,0.3051,0.0707,-60.3637
17:15:18:361,0.1571,2.012,6.624,45.7953,-0.0434,0.7024,0.2421,-60.3637
17:15:18:383,0.0971,2.316,7.3451,45.5476,-0.1085,0.8163,0.4979,-60.3637
17:15:18:402,0.308,1.988,8.3149,45.4264,-0.2608,0.4564,0.6321,-60.3637
17:15:18:424,0.629,1.505,8.511,45.3043,-0.4143,-0.0763,0.5831,-60.3637
17:15:18:442,1.077,1.296,8.054,45.3256,-0.426,-0.3532,0.4009,-60.3637
17:15:18:461,1.259,1.392,7.577,45.3979,-0.2864,-0.3117,0.2082,-60.3637
17:15:18:481,1.019,1.826,7.7381,44.9333,-0.0936,-0.2233,0.1272,-60.3637
17:15:18:501,0.849,2.427,7.869,44.4085,0.0044,-0.1189,0.175,-60.3637
17:15:18:522,0.978,2.5751,8.01,44.9089,-0.051,-0.0081,0.2379,-60.3637
17:15:18:542,1.184,1.998,8.99,44.8904,-0.1309,-0.0763,0.19,-60.3637
17:15:18:561,1.508,1.328,10.053,44.3407,-0.0989,-0.2265,0.0047,-60.3637
17:15:18:582,1.986,1.241,10.6631,44.3445,0.0374,-0.2542,-0.2745,-60.3637
17:15:18:602,1.8671,1.7711,10.9841,44.8429,0.2388,-0.1243,-0.4407,-60.4568
17:15:18:625,1.1081,2.64,10.826,43.846,0.2813,0.1229,-0.3267,-60.5483
17:15:18:641,0.686,2.699,11.5901,44.0781,0.1684,0.1133,-0.1584,-60.5483
17:15:18:661,0.9071,2.201,12.5471,43.5378,0.0928,-0.07,-0.1136,-60.5483
17:15:18:682,1.0811,1.991,11.939,43.5438,-0.0041,0.1622,-0.0155,-60.5483
17:15:18:702,1.505,1.617,12.164,43.5293,-0.0914,0.4456,0.0644,-60.5483
17:15:18:725,1.91,0.612,13.9961,43.4958,0.0279,0.0345,0.0025,-60.5483
17:15:18:742,2.1041,-0.086,13.5101,42.3842,0.2505,-0.5386,-0.1456,-60.5483
17:15:18:762,1.625,0.063,10.2371,43.2069,0.128,-0.5471,-0.1754,-60.5483
17:15:18:781,1.304,0.789,8.054,42.0666,-0.3226,-0.186,-0.0624,-60.5483
17:15:18:803,1.311,0.933,8.532,41.985,-0.6614,0.076,0.059,-60.5483
17:15:18:822,1.577,0.4301,9.5501,42.4716,-0.7487,0.0866,0.0899,-60.5483
17:15:18:842,1.778,-0.168,9.4541,42.2001,-0.7594,-0.0305,0.0036,-60.5483
17:15:18:862,2.01,-0.321,8.88,41.55,-0.7476,-0.1019,-0.217,-60.5483
17:15:18:882,1.7951,0.042,8.595,41.1451,-0.671,-0.121,-0.4331,-60.5483
17:15:18:902,0.9311,0.7961,8.654,41.5658,-0.4781,-0.0518,-0.4683,-60.5483
17:15:18:924,0.389,1.538,8.762,41.266,-0.1895,0.1367,-0.331,-60.5483
17:15:18:942,0.3941,1.811,8.949,41.1752,0.0811,0.2113,-0.1807,-60.5483
17:15:18:961,0.806,1.5911,8.769,40.3115,0.2036,0.0494,-0.1519,-60.5483
17:15:18:981,1.182,1.364,8.2811,39.8047,0.2142,-0.136,-0.2329,-60.5483
17:15:19:002,1.2011,1.416,8.01,40.6967,0.2227,-0.169,-0.3043,-60.5483
17:15:19:023,0.923,1.766,8.0201,39.7218,0.2452,0.0089,-0.2681,-60.5483
17:15:19:041,0.9071,1.778,8.482,40.7194,0.2878,0.3092,-0.1871,-60.5483
17:15:19:061,1.208,1.371,9.612,40.7428,0.3762,0.4317,-0.169,-60.5483
17:15:19:081,1.467,1.0211,10.599,39.9213,0.472,0.3018,-0.1999,-60.5483
17:15:19:102,1.127,0.7841,10.656,39.8178,0.5019,0.1602,-0.2094,-60.5483
17:15:19:124,0.387,0.7241,10.148,39.7466,0.3921,0.2241,-0.105,-60.5483
17:15:19:143,0.15,0.722,10.2251,39.6846,0.1844,0.3061,0.0302,-60.5483
