Time,Acc_X,Acc_Y,Acc_Z,Meg,Gyr_X,Gyr_Y,Gyr_Z,Ore
16:43:54:843,-0.5097,7.0804,4.8239,37.4468,0.045,0.1003,-0.7762,-22.0011
16:43:54:865,-1.1198,8.8128,6.25,38.2721,0.045,0.1003,-0.7762,-22.0011
16:43:54:877,-1.5434,9.1956,6.7932,35.8758,0.0267,0.2323,-0.0126,-21.8781
16:43:54:894,-1.017,8.808,8.4586,38.5453,-0.3325,0.1003,0.134,-21.8781
16:43:54:913,0.5312,8.1021,9.2722,36.1424,-0.5047,-0.2344,0.2928,-21.8781
16:43:54:934,1.9932,7.5661,8.3916,37.8977,-0.352,-0.5142,0.3405,-22.079
16:43:54:952,3.1418,7.401,6.999,36.9319,-0.1272,-0.5289,0.272,-22.4022
16:43:54:971,3.685,7.2622,6.8722,36.7519,-0.071,-0.2271,0.1181,-22.826
16:43:54:990,2.6776,7.1306,8.3151,37.0289,-0.1883,0.137,-0.1372,-23.2887
16:43:55:011,1.5577,7.121,9.8752,37.3966,-0.2836,0.2237,-0.3559,-23.7725
16:43:55:030,1.5577,6.743,9.868,38.6722,-0.1956,0.0172,-0.3693,-24.2444
16:43:55:049,2.1512,6.4487,8.4562,37.2708,0.034,-0.2149,-0.2655,-24.7179
16:43:55:070,2.6225,5.9055,7.5135,35.8693,0.1281,-0.2088,-0.1653,-25.2052
16:43:55:090,2.7278,5.3216,8.193,36.7519,-0.049,-0.0915,-0.1458,-25.7024
16:43:55:110,2.4072,5.0154,9.5713,38.1246,-0.3581,-0.133,-0.2411,-26.1989
16:43:55:130,1.8425,4.6875,9.935,38.0831,-0.4986,-0.4153,-0.3877,-26.6763
16:43:55:150,1.6989,4.7378,8.7314,37.2403,-0.3019,-0.7378,-0.5111,-27.127
16:43:55:170,1.8042,4.8598,6.7478,36.5461,0.0951,-0.7781,-0.5734,-27.5492
16:43:55:189,1.6391,4.8479,5.3384,36.3181,0.4042,-0.5985,-0.6332,-27.9415
16:43:55:211,1.5003,4.9962,4.6828,35.8472,0.5142,-0.4128,-0.7065,-28.3004
16:43:55:230,1.1557,5.2498,4.3454,34.7992,0.48,-0.3248,-0.7786,-28.6199
16:43:55:251,0.6461,5.47,4.2473,37.2,0.3602,-0.3089,-0.8275,-28.8915
16:43:55:275,0.1795,5.8481,4.7737,37.6641,0.1794,-0.3175,-0.8141,-29.1094
16:43:55:300,0.3111,6.0515,5.6375,37.4814,0.0695,-0.2894,-0.7041,-29.2809
16:43:55:312,0.7657,5.9988,6.5228,35.9489,0.0634,-0.2454,-0.549,-29.4203
16:43:55:330,1.194,5.9629,7.1545,37.7877,0.1733,-0.2821,-0.4488,-29.5391
16:43:55:349,1.541,6.0443,6.6353,36.6135,0.3908,-0.3334,-0.4084,-29.644
16:43:55:371,1.5434,6.4941,5.2522,37.2809,0.5814,-0.2601,-0.395,-29.737
16:43:55:393,1.8233,6.597,4.6181,36.3181,0.4861,-0.1794,-0.3877,-29.737
16:43:55:411,1.4022,7.3388,4.8694,37.1441,0.2039,-0.1416,-0.505,-29.737
16:43:55:431,-0.0263,8.004,5.0249,37.4401,0.0035,0.0624,-0.687,-29.737
16:43:55:451,-1.5673,8.4514,5.1661,36.3181,-0.071,0.3984,-0.7163,-29.737
16:43:55:473,-2.6345,8.5759,8.327,37.6641,-0.4278,0.5218,-0.1885,-29.5058
16:43:55:494,-1.3735,7.657,9.2267,36.1232,-0.5316,0.3447,0.145,-29.3704
16:43:55:520,-1.1988,7.3675,9.9685,35.0043,-0.5817,0.2897,0.1596,-29.2396
16:43:55:531,-2.1488,6.8889,11.2128,36.2703,-0.6709,0.2323,-0.0725,-29.0956
16:43:55:550,-3.3787,6.9368,11.7153,35.7298,-0.6135,0.1028,-0.2936,-28.9226
16:43:55:570,-4.1516,6.8937,11.0907,37.16,-0.3496,0.0478,-0.3718,-28.7136
16:43:55:592,-4.3454,6.6975,10.4064,38.9415,-0.1077,0.0686,-0.3107,-28.4722
16:43:55:614,-4.3884,6.1854,9.856,36.2987,0.0023,-0.0072,-0.235,-28.2043
16:43:55:630,-4.4554,5.7069,9.4971,38.0877,0.0792,-0.0377,-0.1739,-27.914
16:43:55:650,-4.2808,5.0728,8.607,36.0218,0.2136,0.0783,-0.0859,-27.6067
16:43:55:670,-4.0582,4.4746,7.2933,38.2329,0.3456,0.2005,-0.0028,-27.287
16:43:55:693,-3.8907,4.0511,6.1496,37.8937,0.381,0.2897,0.0228,-26.9557
16:43:55:713,-3.3547,3.7711,5.4652,35.7837,0.3309,0.3324,0.0509,-26.618
16:43:55:732,-2.3641,3.2853,4.4578,35.5574,0.2625,0.2897,0.0998,-26.2824
16:43:55:752,-1.4357,3.0748,3.4672,37.0716,0.199,0.2665,0.1132,-25.9552
16:43:55:771,-0.9404,2.9934,2.7541,36.7983,0.0854,0.3324,0.0448,-25.6362
16:43:55:794,-1.0744,3.0915,2.5723,35.5827,-0.0661,0.4766,-0.0749,-25.3194
16:43:55:813,-1.651,3.2088,2.7494,37.935,-0.2274,0.6623,-0.1971,-24.9993
16:43:55:832,-2.412,3.5318,3.0221,36.5146,-0.3117,0.8285,-0.2667,-24.6697
16:43:55:851,-2.5268,3.7113,3.0245,38.7654,-0.3997,0.9323,-0.2154,-24.3339
16:43:55:873,-2.3761,3.8357,3.1202,35.7608,-0.5988,0.903,-0.114,-24.001
16:43:55:893,-2.2636,4.0845,3.2806,37.3445,-0.9555,0.7649,-0.0542,-23.6787
16:43:55:913,-2.144,4.343,3.4839,36.4707,-1.3514,0.6269,-0.026,-23.3746
16:43:55:933,-2.8283,4.7952,6.2381,37.6898,-2.0356,0.837,0.0387,-22.8431
16:43:55:952,-3.1968,5.0393,8.8319,38.1697,-2.1345,1.0264,0.0631,-22.6266
16:43:55:975,-3.3356,5.8744,10.5117,39.2174,-2.0087,1.0667,0.0619,-22.4431
16:43:55:993,-3.3117,6.743,10.9017,39.2261,-1.724,0.9421,0.0766,-22.2889
16:43:56:013,-2.8642,7.267,10.6792,38.6771,-1.5004,0.7393,0.1267,-22.1632
16:43:56:032,-2.4359,7.8508,11.2798,39.8089,-1.4381,0.6122,0.1731,-22.0671
16:43:56:051,-2.3115,8.0782,12.5384,39.0506,-1.4479,0.6049,0.2036,-22.0671
16:43:56:071,-2.2014,8.0399,14.5555,40.9561,-1.4186,0.6733,0.2329,-22.0671
16:43:56:092,-2.0243,7.4848,16.9651,39.4892,-1.2805,0.6281,0.2391,-22.0671
16:43:56:112,-1.1462,7.0277,17.5059,40.3542,-0.8969,0.2714,0.2146,-22.0671
16:43:56:131,0.0933,6.5372,15.3212,39.6844,-0.2983,-0.2308,0.167,-22.0671
16:43:56:150,1.9549,6.1017,13.3807,39.7044,0.1819,-0.5496,0.0949,-22.0671
16:43:56:172,3.0006,5.6782,12.8399,39.2976,0.4543,-0.6193,-0.1018,-22.0671
16:43:56:191,2.7661,5.2044,12.1388,40.0433,0.6974,-0.5728,-0.4622,-22.0671
16:43:56:212,1.3089,5.3432,12.1819,40.5394,0.9296,-0.2674,-0.8348,-22.0671
16:43:56:232,-0.6867,5.5442,13.6128,39.2383,0.9467,0.115,-1.0682,-22.0671
16:43:56:249,-2.6943,5.1733,16.0319,40.0433,0.7622,0.1981,-1.1207,-22.0671
16:43:56:271,-3.862,4.0989,16.9819,40.1066,0.6535,-0.2014,-1.0279,-22.0671
16:43:56:291,-4.2568,3.4098,15.271,40.8911,0.7976,-0.8709,-0.869,-21.9485
16:43:56:315,-3.8979,2.7589,12.7561,41.7359,0.9809,-1.4097,-0.6833,-21.7982
16:43:56:331,-3.3212,1.8449,11.1601,41.8781,1.0078,-1.7005,-0.5355,-21.6217
16:43:56:363,-2.8259,1.194,10.2221,40.2102,1.0639,-1.8263,-0.4854,-21.1987
16:43:56:374,-3.2016,0.6126,7.3053,39.4757,1.742,-1.7213,-0.577,-20.9439
16:43:56:391,-3.5031,1.3591,5.1565,40.3907,2.1831,-1.6321,-0.5917,-20.6553
16:43:56:411,-3.3787,2.2325,3.0724,41.8004,2.4897,-1.5148,-0.4475,-20.334
16:43:56:430,-2.7709,2.8857,1.3974,41.1321,2.5251,-1.367,-0.1897,-19.9923
16:43:56:450,-2.0865,3.5438,0.1986,42.217,2.326,-1.0994,0.0521,-19.6436
16:43:56:472,-1.6223,4.3621,0.0981,42.9859,1.8116,-0.7903,0.1975,-19.2985
16:43:56:493,-1.3161,4.7952,1.3448,42.0477,1.0273,-0.6681,0.2513,-18.9653
16:43:56:514,-1.3759,5.123,2.7757,40.3859,0.3102,-0.7439,0.1963,-18.6448
16:43:56:531,-1.7396,5.5059,4.4889,42.8482,-0.0466,-0.6547,0.0888,-18.3318
16:43:56:551,-2.0913,5.6518,5.1685,42.043,0.0011,-0.4165,0.0167,-18.0224
16:43:56:570,-1.8712,5.6495,5.1541,42.9859,0.2368,-0.1709,0.0057,-17.7156
16:43:56:593,-1.2371,5.5729,4.7665,41.9284,0.3944,-0.0426,-0.0053,-17.4133
16:43:56:612,-1.1462,5.6064,4.1707,43.3319,0.4323,0.0331,-0.103,-17.1112
16:43:56:633,-1.6893,5.5825,3.5629,41.548,0.3566,0.1761,-0.2643,-16.799
16:43:56:652,-2.0483,5.5896,3.0173,41.7367,0.122,0.3153,-0.373,-16.4713
16:43:56:675,-2.4383,5.6399,3.5892,41.7024,-0.3337,0.501,-0.4182,-16.1276
16:43:56:693,-3.2016,5.4676,5.5131,42.5282,-0.9482,0.6916,-0.4744,-15.7687
16:43:56:710,-4.6445,4.9866,8.0351,42.2542,-1.4845,0.8749,-0.5599,-15.3934
16:43:56:730,-6.6161,4.879,10.6959,43.1672,-1.8169,1.0203,-0.6345,-15.0013
16:43:56:751,-7.8508,4.7234,12.1795,43.7517,-1.8792,0.9616,-0.5392,-14.5992
16:43:56:771,-7.1497,4.3167,12.792,42.8752,-1.7753,0.6867,-0.2093,-14.2052
16:43:56:795,-5.1302,3.3954,12.0933,45.0438,-1.5518,0.3532,0.1584,-13.8374
16:43:57:036,-4.1516,3.2471,11.5669,43.2111,-1.1742,0.3935,0.2696,-13.4975
16:43:57:039,-6.6903,4.0893,10.0403,43.6414,-0.1602,1.2573,0.1144,-13.1738
16:43:57:041,-6.664,4.0989,8.9539,45.0174,0.1049,1.4185,0.2757,-12.8567
16:43:57:042,-5.4078,3.7998,7.2861,41.8343,0.1024,1.1999,0.5201,-12.2608
16:43:57:043,-4.0678,3.4481,5.2211,43.5053,-0.0576,0.8553,0.7094,-12.0025
16:43:57:043,-2.8594,3.1896,3.6036,42.5251,-0.3618,0.6049,0.8108,-11.7818
16:43:57:044,-1.6152,3.2207,3.2112,42.7561,-0.8187,0.5035,0.8609,-11.6076
16:43:57:045,-0.8495,3.1131,4.0391,41.2749,-1.2757,0.5475,0.8499,-11.4858
16:43:57:047,-0.8638,2.9001,5.403,40.1844,-1.5298,0.7222,0.7387,-11.4858
16:43:57:048,-1.3902,3.1824,6.4152,42.8176,-1.5163,0.8883,0.5701,-11.4858
16:43:57:049,-1.6415,3.5509,7.0421,42.1566,-1.3636,1.0435,0.4748,-11.4858
16:43:57:050,-1.864,3.8285,7.0947,41.2988,-1.261,1.0691,0.4492,-11.4858
16:43:57:051,-1.6606,3.8979,7.2239,42.4867,-1.2781,0.9604,0.4724,-11.4858
16:43:57:069,-1.3615,3.7902,7.5876,41.8057,-1.3624,0.8346,0.5311,-11.5987
16:43:57:089,-0.9212,3.8309,8.26,43.4173,-1.4711,0.7185,0.5506,-11.7498
16:43:57:113,-0.6867,4.0463,9.2961,43.6145,-1.5798,0.6098,0.5164,-11.9385
16:43:57:130,-0.6078,4.185,10.4375,42.831,-1.6654,0.4742,0.4443,-12.1632
16:43:57:150,-0.9523,4.6205,11.7081,43.2452,-1.6324,0.3361,0.3429,-12.4182
16:43:57:171,-1.651,4.8933,12.5049,42.4619,-1.377,0.275,0.2476,-12.6949
16:43:57:193,-1.9645,5.2068,12.3326,43.2612,-0.9592,0.2946,0.2219,-12.9855
16:43:57:213,-2.2947,5.4461,12.0766,42.531,-0.6245,0.3923,0.2403,-13.2856
16:43:57:231,-3.0891,5.4724,12.3422,42.9834,-0.5719,0.4094,0.2403,-13.5924
16:43:57:250,-3.7496,5.2307,13.8592,41.5445,-0.7478,0.2775,0.272,-13.9097
16:43:57:274,-3.5103,4.8215,15.4385,43.9252,-0.8908,-0.0011,0.3527,-14.2424
16:43:57:293,-0.9165,3.74,14.3354,42.9589,-0.2787,-0.5777,0.3722,-14.5911
16:43:57:316,0.2895,3.3619,12.7083,42.9008,0.2759,-0.4861,0.2513,-15.305
16:43:57:333,0.9667,2.5699,12.201,43.3194,0.618,-0.2259,0.0472,-15.6516
16:43:57:349,0.6987,1.7659,13.0217,44.0574,0.7231,0.0441,-0.2618,-15.9776
16:43:57:373,-0.2369,1.2251,14.3019,44.7636,0.761,0.1712,-0.6308,-16.2713
16:43:57:393,-1.6798,1.0648,15.2471,42.8506,0.8856,0.1052,-0.9668,-16.5209
16:43:57:412,-2.4431,1.0385,15.1322,44.4498,1.1055,-0.1489,-1.1769,-16.7168
16:43:57:431,-2.6728,0.8327,14.2397,44.5414,1.3804,-0.4165,-1.2722,-16.854
16:43:57:450,-3.1202,0.8183,12.6461,44.6243,1.6357,-0.6474,-1.3602,-16.854
16:43:57:471,-3.7376,0.95,10.8778,43.9098,1.8092,-0.8502,-1.4298,-16.854
16:43:57:493,-3.9218,0.9643,9.6981,41.579,1.8629,-1.0285,-1.4261,-16.854
16:43:57:512,-3.3523,0.7274,8.4251,42.8595,1.8593,-1.2643,-1.3589,-16.7248
16:43:57:532,-2.6417,0.4905,6.9512,42.837,1.9387,-1.4561,-1.3064,-16.5339
16:43:57:553,-2.2421,0.6461,5.2714,43.6948,2.1098,-1.5026,-1.3003,-16.2813
16:43:57:570,-2.3282,1.1438,3.6945,43.7605,2.2454,-1.3987,-1.3015,-15.9655
16:43:57:591,-2.4885,1.7061,2.589,41.7552,2.1953,-1.2069,-1.26,-15.5893
16:43:57:615,-2.2899,2.0794,2.1559,42.053,1.8898,-1.0884,-1.1451,-15.1605
16:43:57:631,-2.0554,2.6082,2.345,41.3945,1.3975,-1.0298,-1.0315,-14.6901
16:43:57:652,-2.4431,3.1609,3.6467,42.6302,0.844,-0.9687,-0.9802,-14.1865
16:43:57:671,-3.2303,3.4768,5.068,41.608,0.3615,-0.9051,-0.9289,-13.6576
16:43:57:694,-3.7448,3.6347,6.8172,40.5124,0.0536,-0.7866,-0.8031,-13.1109
16:43:57:713,-4.2736,3.795,8.4108,42.2217,-0.0539,-0.6669,-0.6601,-12.5539
16:43:57:731,-4.1037,3.7041,8.7147,40.2909,0.0353,-0.6229,-0.5123,-11.9906
16:43:57:751,-4.2903,3.4361,7.4393,42.1555,0.3944,-0.3774,-0.3718,-11.4248
16:43:57:772,-4.922,3.5246,6.7023,40.2582,0.3627,-0.2357,-0.4109,-10.2792
16:43:57:793,-5.123,3.6132,6.1017,42.3305,0.188,-0.111,-0.4243,-9.6978
16:43:57:816,-5.0584,3.6586,5.6949,40.1005,-0.1003,-0.0206,-0.417,-9.1141
16:43:57:830,-5.1087,3.9529,6.006,41.0063,-0.4656,0.0576,-0.4207,-8.5326
16:43:57:850,-5.8002,4.0128,7.0253,42.0425,-0.7906,0.1748,-0.4378,-7.9556
16:43:57:870,-6.5683,4.2186,7.7671,41.1958,-0.9458,0.3202,-0.4146,-7.3845
16:43:57:890,-7.6379,4.3645,8.0351,41.5143,-0.9384,0.5133,-0.3022,-6.8237
16:43:57:910,-8.3844,4.1252,8.3486,41.8151,-0.947,0.6843,-0.0627,-6.2815
16:43:57:929,-8.1619,3.405,9.3703,39.253,-1.1413,0.7051,0.2782,-5.7723
16:43:57:949,-7.1809,2.7087,10.7821,41.8851,-1.4381,0.4974,0.5824,-5.3113
16:43:57:972,-6.128,2.2325,11.6004,41.1615,-1.5175,0.2738,0.7571,-4.9057
16:43:57:991,-6.2261,2.4263,10.6744,42.4487,-1.1767,0.3105,0.7632,-4.5491
16:43:58:012,-6.6927,2.8905,9.1837,42.2455,-0.6623,0.6599,0.751,-4.2321
16:43:58:030,-6.2405,3.0915,7.6905,42.9007,-0.4326,0.8541,0.8597,-3.9549
16:43:58:051,-5.0297,3.1131,6.3099,42.3133,-0.4827,0.7869,1.0381,-3.7243
16:43:58:072,-3.539,2.881,5.1087,40.4924,-0.6831,0.622,1.2006,-3.5473
16:43:58:094,-2.3928,2.7517,4.855,42.956,-0.947,0.5389,1.2739,-3.43
16:43:58:110,-2.0028,2.6871,5.3599,42.1886,-1.1706,0.5694,1.2409,-3.43
16:43:58:131,-1.9382,2.6632,6.2333,41.4205,-1.3123,0.6098,1.1871,-3.43
16:43:58:150,-1.8425,2.6776,7.1545,41.7149,-1.366,0.6232,1.1505,-3.43
16:43:58:173,-1.6367,2.5747,7.614,41.6819,-1.2964,0.5902,1.1407,-3.5385
16:43:58:194,-1.3615,2.5077,7.5326,40.8784,-1.1449,0.5682,1.1382,-3.696
16:43:58:212,-0.4116,2.4335,8.1165,40.8784,-0.9836,0.5414,1.0478,-4.1452
16:43:58:231,-0.2728,2.5819,8.9276,42.6242,-0.969,0.5426,0.8951,-4.4264
16:43:58:248,-0.3589,2.9503,10.3872,41.159,-0.9348,0.5365,0.6776,-4.7356
16:43:58:270,-0.7418,3.3093,11.7464,41.374,-0.7723,0.4522,0.4639,-5.0637
16:43:58:292,-1.4357,3.7376,11.8038,40.8341,-0.4143,0.3141,0.2733,-5.3983
16:43:58:313,-1.9167,4.1659,10.8156,40.8341,-0.0038,0.2432,0.1511,-5.7294
16:43:58:332,-2.6082,4.4028,10.8419,41.1034,0.2173,0.2799,0.0937,-6.0521
16:43:58:350,-3.5653,4.5009,11.7105,42.2965,0.2271,0.308,0.0802,-6.3659
16:43:58:373,-4.5392,4.2856,12.9571,39.9879,0.1574,0.2604,0.1303,-6.6724
16:43:58:390,-4.5368,4.1444,13.9047,40.2774,0.1012,0.0918,0.2488,-6.9771
16:43:58:409,-3.3069,3.9123,13.5577,40.4394,0.1,-0.2491,0.4077,-7.2861
16:43:58:429,-1.3831,3.3595,12.1364,40.3594,0.1477,-0.6119,0.5201,-7.603
16:43:58:448,0.2847,3.3619,11.5573,40.0656,0.1257,-0.7647,0.4773,-7.9276
16:43:58:467,0.8782,3.0389,12.4259,42.005,0.0182,-0.7305,0.2867,-8.2556
16:43:58:487,0.323,2.3019,14.1583,39.622,-0.082,-0.6486,0.0082,-8.5793
16:43:58:507,-0.9571,1.8401,16.0104,41.0175,-0.0503,-0.5887,-0.3083,-8.8878
16:43:58:530,-2.0291,1.4213,16.7258,41.1874,0.2112,-0.662,-0.5184,-9.1708
16:43:58:549,-2.0865,1.0361,16.4219,39.1186,0.6131,-0.7463,-0.599,-9.4223
16:43:58:572,-1.8903,0.682,15.6491,40.3493,0.9638,-0.8722,-0.687,-9.6372
16:43:58:592,-2.4646,0.6006,14.5914,39.409,1.2423,-1.0505,-0.8605,-9.8082
16:43:58:611,-3.5318,0.8495,12.7202,40.6186,1.5184,-1.2582,-1.0535,-9.9256
16:43:58:631,-4.0989,1.048,10.7868,38.402,1.7664,-1.4048,-1.128,-9.9256
16:43:58:649,-3.6538,1.2825,6.2883,38.1233,2.034,-1.7029,-1.0254,-9.9256
16:43:58:671,-3.3787,1.6391,4.7043,40.1209,2.0022,-1.7139,-0.9582,-9.9256
16:43:58:694,-3.0939,1.9956,3.795,38.8667,1.8397,-1.6479,-0.8813,-9.6971
16:43:58:714,-2.5651,2.4383,3.4744,38.5331,1.6003,-1.5637,-0.7896,-9.5268
16:43:58:731,-2.1823,2.7494,3.7831,40.0826,1.3437,-1.4623,-0.72,-9.3272
16:43:58:749,-2.01,3.3595,3.9505,39.4972,1.1299,-1.3792,-0.6785,-9.1019
16:43:58:770,-2.053,4.0032,4.3214,38.4783,0.9601,-1.224,-0.6491,-8.8539
16:43:58:791,-2.5651,4.6493,5.4461,39.0273,0.7622,-1.0029,-0.6332,-8.5842
16:43:58:811,-3.4169,5.001,7.066,37.7836,0.5802,-0.86,-0.5917,-8.2946
16:43:58:831,-4.1276,5.1446,7.9753,37.7305,0.5423,-0.8306,-0.4646,-7.99
16:43:58:850,-3.8596,5.0369,7.6929,38.0336,0.695,-0.7989,-0.2692,-7.6785
16:43:58:955,-3.2542,4.8215,6.664,39.2038,0.9174,-0.6828,-0.0945,-7.3674
16:43:58:956,-2.735,4.7426,5.2618,37.3533,1.0322,-0.5203,-0.026,-7.0608
16:43:58:957,-2.8068,4.5751,4.6971,37.7498,0.9858,-0.2699,-0.0517,-6.7574
16:43:58:958,-3.5055,4.6349,4.2281,39.204,0.8111,-0.0072,-0.1397,-6.452
16:43:58:959,-3.46,4.7186,3.3069,39.0707,0.5667,0.1418,-0.1543,-6.1451
16:43:58:969,-2.9216,5.2331,2.7398,39.0885,0.2026,0.2909,-0.1079,-5.8391
16:43:58:988,-3.07,5.2881,3.6778,39.7779,-0.3166,0.4839,-0.1091,-5.5351
16:43:59:010,-3.9601,4.9603,5.5896,38.8012,-0.8309,0.6709,-0.1629,-5.2318
16:43:59:030,-5.9773,5.1374,7.5374,37.5837,-1.1376,0.881,-0.2386,-4.9262
16:43:59:048,-8.0088,5.2283,8.7841,39.1849,-1.2292,1.0582,-0.1226,-4.6226
16:43:59:071,-8.0925,4.4076,9.545,38.4783,-1.261,1.1351,0.3197,-4.3407
16:43:59:091,-6.3912,3.1896,9.7747,38.6585,-1.3563,1.03,0.8487,-4.1034
16:43:59:114,-4.4985,1.3974,11.05,38.1475,-1.4491,1.0093,1.1749,-3.7988
16:43:59:132,-4.0726,1.0576,10.617,39.4347,-1.2133,1.118,1.1346,-3.7988
16:43:59:149,-3.5892,0.9811,9.2171,39.2538,-0.9458,1.1595,1.0857,-3.7988
16:43:59:169,-3.0317,1.2706,7.6953,37.6229,-0.8028,1.1424,1.0222,-3.7988
16:43:59:193,-2.4215,1.6271,6.5324,39.6235,-0.7442,1.2451,0.9684,-3.7988
16:43:59:212,-2.0339,1.9525,5.671,39.6943,-0.7589,1.4112,0.9183,-3.8942
16:43:59:230,-1.8831,2.1272,5.336,40.7087,-0.8945,1.5139,0.8707,-4.0258
16:43:59:250,-1.6104,2.2325,5.3575,40.9338,-1.1413,1.4735,0.8524,-4.1945
16:43:59:270,-1.2849,2.3665,5.6782,41.6638,-1.4125,1.3599,0.8524,-4.4027
16:43:59:291,-1.2802,2.6034,6.5683,41.2647,-1.6422,1.2976,0.8365,-4.6516
16:43:59:312,-1.3448,2.8259,7.8748,39.6125,-1.7729,1.3025,0.8145,-4.9414
16:43:59:329,-1.3807,3.0939,8.8582,40.2605,-1.7668,1.261,0.8108,-5.2708
16:43:59:349,-1.4285,3.2949,9.3464,40.4409,-1.6458,1.1852,0.8291,-5.6381
16:43:59:369,-1.0935,3.3476,9.5928,39.4351,-1.5371,1.1229,0.8572,-6.0433
16:43:59:391,-0.8064,3.4935,10.6911,40.5959,-1.5053,1.0838,0.8328,-6.484
16:43:59:411,-0.6891,3.8357,12.0909,40.8932,-1.4662,0.9628,0.7265,-6.9565
16:43:59:431,-1.1198,4.252,12.5336,41.1759,-1.2463,0.7662,0.5872,-7.4519
16:43:59:449,-1.3113,4.6277,11.8971,41.9317,-0.8639,0.6513,0.4944,-7.9619
16:43:59:470,-1.0098,4.9819,11.2989,41.0668,-0.5536,0.6391,0.4688,-8.4809
16:43:59:492,-1.1868,5.2427,11.7966,41.9317,-0.4925,0.6208,0.4187,-9.0061
16:43:59:509,-1.785,5.2044,13.0528,39.9246,-0.5707,0.5536,0.3576,-9.5363
16:43:59:531,-2.6417,4.9507,15.1705,40.777,-0.6623,0.5303,0.3038,-10.0716
16:43:59:552,-3.1872,4.532,17.5155,40.5347,-0.6379,0.4106,0.2647,-10.6111
16:43:59:571,-1.7444,3.7807,15.1179,41.9898,0.199,-0.3871,0.2403,-11.1502
16:43:59:592,-0.1723,3.1322,13.2371,39.7002,0.618,-0.4299,0.2122,-12.1972
16:43:59:612,0.2776,2.4766,13.2395,39.5787,0.7084,-0.3749,0.0411,-12.6948
16:43:59:630,-0.4762,2.0124,14.5627,41.1419,0.6547,-0.4116,-0.246,-13.1656
16:43:59:648,-1.4644,1.5003,15.6371,40.772,0.7036,-0.5203,-0.5123,-13.6015
16:43:59:669,-2.1416,1.0074,15.3811,41.9008,0.9516,-0.6425,-0.6845,-13.9944
16:43:59:691,-2.3928,0.7801,14.7518,42.7455,1.2496,-0.7146,-0.7798,-14.3395
16:43:59:711,-2.9575,0.4738,14.3019,40.9914,1.4464,-0.8233,-0.8458,-14.6337
16:43:59:730,-3.7591,0.3948,13.3902,42.0888,1.5783,-1.0395,-0.9069,-14.8738
16:43:59:749,-4.0798,0.2536,12.0862,43.2377,1.7139,-1.2595,-0.9069,-15.0598
16:43:59:768,-3.6682,-0.0431,10.471,41.778,1.8459,-1.4635,-0.8507,-15.1938
16:43:59:789,-3.1753,-0.2345,8.7434,42.7596,1.9766,-1.6382,-0.8299,-15.1938
16:43:59:812,-2.9791,-0.146,6.9823,43.1279,2.0878,-1.7518,-0.8617,-15.1938
16:43:59:831,-2.8044,0.1747,5.1733,42.0537,2.1659,-1.7811,-0.8825,-15.1938
16:43:59:851,-2.4933,0.7394,3.6036,40.8005,2.1378,-1.7127,-0.8678,-15.1938
16:43:59:868,-1.809,1.2778,2.7829,42.198,1.9363,-1.571,-0.8287,-15.0844
16:43:59:888,-1.3256,1.7898,2.9001,42.1742,1.5759,-1.4366,-0.8324,-14.9361
16:43:59:908,-1.4429,2.4574,3.8883,41.3059,1.1812,-1.3486,-0.9106,-14.7499
16:43:59:931,-2.0291,3.1011,4.8957,40.859,0.9076,-1.2363,-1.0095,-14.5249
16:43:59:949,-2.4814,3.7017,5.6351,42.3237,0.7988,-1.0664,-1.0621,-14.2601
16:43:59:970,-3.4792,4.3597,6.6138,40.641,0.7756,-0.8917,-1.1012,-13.9544
16:43:59:991,-4.6732,4.9531,7.1713,42.8262,0.8367,-0.7659,-1.0877,-13.2238
16:44:00:011,-5.0704,5.2451,6.5874,41.9997,0.9906,-0.6816,-0.9314,-12.8122
16:44:00:034,-5.348,5.9414,4.7641,41.9433,1.0346,-0.3688,-0.4903,-12.3805
16:44:00:047,-5.6662,5.8576,4.9149,43.2104,0.6864,-0.2699,-0.2948,-11.94
16:44:00:067,-5.6806,5.5179,5.1972,42.3146,0.2136,-0.3089,-0.114,-11.5013
16:44:00:087,-5.1398,5.2283,5.202,42.7982,-0.2115,-0.3187,0.057,-11.0759
16:44:00:110,-4.4028,5.2164,5.8504,41.8845,-0.5475,-0.1892,0.1841,-10.6717
16:44:00:126,-4.0008,4.9053,6.2764,43.3892,-0.7808,-0.0219,0.2561,-10.2925
16:44:00:148,-4.1994,4.3956,6.8435,43.1876,-0.9335,0.2078,0.261,-9.9384
16:44:00:169,-4.8215,4.2018,7.5805,42.7335,-1.0851,0.4534,0.2317,-9.6085
16:44:00:191,-5.2044,3.8859,8.7482,44.0609,-1.2402,0.6904,0.283,-9.3045
16:44:00:210,-5.068,3.2973,10.416,44.1208,-1.4027,0.7393,0.4199,-9.033
16:44:00:230,-4.2425,2.522,11.2726,44.2974,-1.4149,0.5719,0.5433,-8.7992
16:44:00:249,-3.685,2.266,11.1338,44.509,-1.1339,0.512,0.5543,-8.6006
16:44:00:269,-4.6588,2.5484,10.5093,43.6126,-0.6465,0.7894,0.4321,-8.4273
16:44:00:289,-5.9701,2.9097,9.8441,43.6281,-0.2469,1.1424,0.349,-8.2711
16:44:00:314,-6.1472,2.948,8.461,43.5773,-0.1223,1.1632,0.4602,-8.1347
16:44:00:330,-5.0895,2.6776,6.542,44.5792,-0.2335,0.9091,0.6984,-8.0277
16:44:00:349,-3.5175,2.3569,5.2116,45.2147,-0.5121,0.6709,0.922,-8.0277
16:44:00:367,-2.2038,2.1942,4.7019,42.6761,-0.7955,0.5927,1.0307,-8.0277
16:44:00:391,-1.4764,2.2947,4.4483,44.6615,-0.9678,0.7014,1.0283,-8.0277
16:44:00:408,-1.7492,2.4957,4.5033,45.937,-1.0545,0.9152,0.9477,-8.0277
16:44:00:426,-2.0985,2.6584,4.5344,45.0799,-1.151,1.0789,0.9025,-8.1419
16:44:00:447,-2.7685,2.881,5.1159,44.7715,-1.3098,1.1559,0.911,-8.2978
16:44:00:472,-2.065,2.6273,6.4319,44.2545,-1.6849,1.0655,1.1639,-8.7515
16:44:00:491,-1.5577,2.5914,7.2957,45.7658,-1.8107,1.0752,1.2421,-9.0571
16:44:00:510,-1.0313,2.7637,8.7529,44.3768,-1.9574,1.0386,1.2384,-9.4181
16:44:00:530,-0.5982,2.9623,10.4614,44.346,-2.0221,0.9592,1.1664,-9.8313
16:44:00:550,-0.4546,3.3978,12.1914,46.3868,-1.8926,0.914,1.0332,-10.2904
16:44:00:568,-0.2345,3.8692,13.7611,45.2948,-1.5762,0.8785,0.8792,-10.7861
16:44:00:591,0.0311,4.2329,14.3067,44.5703,-1.1254,0.7637,0.7143,-11.3066
16:44:00:615,-0.3063,4.9149,13.2132,44.7265,-0.5695,0.6257,0.5152,-11.838
16:44:00:632,-0.9045,5.4987,12.5838,46.8007,-0.1223,0.633,0.3624,-12.3694
16:44:00:649,-1.2993,5.6303,12.8542,44.657,0.0499,0.6379,0.3233,-12.8972
16:44:00:673,-1.8999,5.3958,13.7635,46.4031,0.0145,0.4986,0.3246,-13.4222
16:44:00:691,-2.6082,5.0895,15.3236,45.1758,-0.1187,0.242,0.3356,-13.9462
16:44:00:712,-2.3761,4.6229,16.3454,44.4207,-0.1358,-0.1159,0.371,-14.471
16:44:00:730,-1.1629,4.1755,15.2997,47.3235,0.1037,-0.5008,0.4077,-14.9954
16:44:00:749,0.1412,3.6873,13.7898,46.4011,0.4677,-0.6889,0.3686,-15.5149
16:44:00:770,0.7107,3.1824,12.8734,45.786,0.7145,-0.7023,0.2134,-16.0221
16:44:00:793,0.6078,2.6297,12.926,45.3365,0.7927,-0.706,-0.0151,-16.5093
16:44:00:809,0.3111,2.1105,13.6989,47.0794,0.7891,-0.739,-0.257,-16.9698
16:44:00:828,-0.3159,1.7946,14.1799,47.3075,0.8416,-0.7634,-0.4793,-17.3969
16:44:00:849,-1.0504,1.6247,14.3593,47.3075,0.9454,-0.7793,-0.6369,-17.785
16:44:00:870,-1.1246,1.3424,14.9432,44.5506,0.9552,-0.8636,-0.7163,-18.1332
16:44:00:892,-1.5601,0.8447,15.5031,46.3209,0.9357,-1.1129,-0.8128,-18.4389
16:44:01:032,-2.4287,0.4403,14.857,47.6255,1.1018,-1.4293,-0.9668,-18.6965
16:44:01:033,-2.4191,-0.1579,10.1934,47.5075,1.8947,-1.8141,-1.117,-18.9
16:44:01:034,-2.5077,-0.0861,7.7982,47.2099,2.2063,-1.8483,-1.2111,-19.0469
16:44:01:036,-2.6536,0.2919,5.3958,44.5595,2.3382,-1.8886,-1.2905,-19.0469
16:44:01:037,-2.9288,1.0241,3.807,45.1647,2.2393,-1.8898,-1.3162,-19.0469
16:44:01:038,-3.0245,1.6774,2.9169,45.9346,1.924,-1.874,-1.2661,-19.0469
16:44:01:040,-2.6608,2.5531,2.8857,46.5231,1.4977,-1.8312,-1.1684,-18.9059
16:44:01:050,-2.3426,3.2734,3.4648,46.1335,1.1152,-1.6822,-1.0804,-18.7221
16:44:01:069,-2.2421,3.8548,4.398,45.0721,0.8391,-1.4977,-1.012,-18.5002
16:44:01:089,-2.4479,4.4004,5.0919,45.7542,0.6681,-1.3718,-0.9692,-18.2429
16:44:01:109,-2.7398,4.9364,5.7141,46.2649,0.6449,-1.2142,-0.9155,-17.953
16:44:01:129,-2.7517,5.336,5.5059,46.829,0.7549,-1.0298,-0.8128,-17.6355
16:44:01:148,-2.5962,5.5657,4.8646,45.472,0.8734,-0.8697,-0.6919,-17.2958
16:44:01:169,-2.3665,5.5059,4.2496,46.8803,0.8954,-0.75,-0.5856,-16.9395
16:44:01:188,-2.3402,5.5657,3.594,45.2031,0.8514,-0.6303,-0.5086,-16.5696
16:44:01:212,-2.2493,5.6877,3.1466,46.3865,0.7524,-0.3847,-0.45,-16.1892
16:44:01:231,-2.4957,5.537,3.2686,44.1704,0.5349,-0.0561,-0.4048,-15.7997
16:44:01:247,-3.6658,5.4126,4.0893,46.3865,0.1464,0.137,-0.4011,-15.4008
16:44:01:269,-4.0941,5.3958,4.6947,44.7293,-0.308,0.1614,-0.3351,-14.9952
16:44:01:292,-3.6203,5.3168,5.6949,45.3037,-0.7258,0.2298,-0.191,-14.592
16:44:01:308,-3.618,5.0106,7.2359,45.2385,-1.0545,0.3605,-0.1262,-14.1952
16:44:01:328,-4.3693,4.6588,8.7577,45.1287,-1.2072,0.5303,-0.1775,-13.8028
16:44:01:349,-6.1185,5.0513,10.0116,46.6142,-1.1217,0.8065,-0.274,-13.4102
16:44:01:370,-7.4369,4.9819,10.3657,46.7096,-0.8578,1.1192,-0.2007,-13.0188
16:44:01:392,-5.3216,3.4744,8.7721,46.5735,-0.6648,1.1278,0.492,-12.6437
16:44:01:416,-4.3023,2.7015,8.9755,46.2237,-0.9091,0.9311,0.6312,-11.9908
16:44:01:431,-4.1779,2.4455,9.4612,46.3974,-1.0411,0.9408,0.5995,-11.7207
16:44:01:449,-5.202,2.4407,9.5952,45.2724,-0.9922,1.1486,0.4895,-11.482
16:44:01:467,-5.47,2.6752,9.4229,47.1455,-0.9787,1.2292,0.4712,-11.2736
16:44:01:490,-5.3121,2.8666,8.9755,45.852,-1.063,1.0862,0.5408,-11.0981
16:44:01:508,-4.7498,3.1848,8.1284,46.4419,-1.0973,0.9494,0.6459,-10.9595
16:44:01:526,-4.0702,3.3811,7.0086,46.5268,-1.0337,0.9543,0.7766,-10.8611
16:44:01:550,-3.4529,3.4217,5.6183,44.8468,-0.9543,1.052,0.9135,-10.8611
16:44:01:570,-2.7972,3.3332,4.5679,45.3956,-1.0044,1.1437,1.0564,-10.8611
16:44:01:587,-2.211,3.0867,4.5679,45.7282,-1.2683,1.1363,1.1737,-10.8611
16:44:01:606,-1.8497,2.9193,5.537,48.791,-1.6031,1.0557,1.2458,-10.9667
16:44:01:627,-1.6702,2.9982,6.5061,46.0903,-1.7961,0.969,1.2922,-11.1337
16:44:01:647,-1.2443,2.8618,7.4154,44.9348,-1.8327,0.9543,1.3459,-11.362
16:44:01:667,-0.8423,2.8331,8.1954,45.6602,-1.79,0.9555,1.3679,-11.6499
16:44:01:687,-0.201,2.8211,9.0616,47.3034,-1.6776,1.0032,1.3484,-11.9944
16:44:01:705,0.0574,2.8283,9.8513,44.9293,-1.4882,1.1143,1.2616,-12.3889
16:44:01:726,-0.1005,3.1274,11.1099,46.1168,-1.3013,1.2231,1.0955,-12.825
16:44:01:746,-0.0766,3.4385,12.3996,45.6,-1.1474,1.1241,0.9232,-13.2951
16:44:01:766,0.1005,3.6084,12.4618,46.2475,-0.9128,0.848,0.7705,-13.7902
16:44:01:788,0.3278,4.0558,11.7488,44.9649,-0.5988,0.6574,0.6141,-14.3011
16:44:01:806,0.2536,4.331,11.7296,47.6934,-0.3936,0.6354,0.4688,-14.8206
16:44:01:826,-0.5527,4.6756,12.3996,46.3078,-0.4033,0.5646,0.3209,-15.3442
16:44:01:845,-2.0794,4.2377,15.7185,45.646,-0.6196,0.2885,0.2134,-15.8698
16:44:01:866,-1.7085,3.9051,16.3741,46.3306,-0.4974,-0.0096,0.2061,-16.9233
16:44:01:887,-1.0217,3.8596,14.5986,45.8109,-0.1516,-0.3712,0.1376,-17.4439
16:44:01:905,0.1029,3.752,12.8207,47.1317,0.1855,-0.5044,0.0631,-17.9515
16:44:01:927,1.194,3.1681,12.1436,46.9163,0.3053,-0.4898,-0.0419,-18.443
16:44:01:952,1.4668,2.2947,13.3783,46.3003,0.2332,-0.4556,-0.2606,-18.9131
16:44:01:965,0.6724,1.6295,15.9529,44.3784,0.1525,-0.4275,-0.599,-19.3535
16:44:01:985,-0.7585,1.1318,17.6638,44.8559,0.3224,-0.4629,-0.9692,-19.7503
16:44:02:006,-2.1105,0.8686,17.6662,46.1168,0.8013,-0.5789,-1.2527,-20.0904
16:44:02:027,-3.1083,1.0768,15.7472,46.8068,1.45,-0.6791,-1.4017,-20.3631
16:44:02:049,-4.1492,1.2227,13.4046,47.6196,1.9546,-0.7573,-1.4322,-20.5625
16:44:02:067,-5.1972,1.474,11.4736,45.9386,2.1012,-0.9247,-1.3919,-20.6886
16:44:02:087,-5.4461,1.5529,9.9398,46.2845,1.9937,-1.191,-1.2453,-20.6886
16:44:02:108,-5.0297,1.395,8.7984,45.4183,1.7994,-1.4537,-1.0572,-20.6886
16:44:02:129,-4.4722,1.328,7.7623,44.2899,1.6541,-1.6406,-0.9032,-20.6886
16:44:02:150,-3.9386,1.3974,6.4965,46.2081,1.6272,-1.7274,-0.7737,-20.6886
16:44:02:172,-3.5581,1.651,5.3815,44.5473,1.6015,-1.7457,-0.6442,-20.5687
16:44:02:191,-2.8905,1.9167,4.8861,44.5946,1.4781,-1.7225,-0.5013,-20.4226
16:44:02:209,-1.9382,2.0746,5.1661,43.4349,1.3071,-1.6382,-0.3803,-20.2589
16:44:02:229,-1.3424,2.3354,5.1254,44.4841,1.1837,-1.5942,-0.3584,-20.0798
16:44:02:249,-1.5051,3.1801,4.8072,45.0148,1.1165,-1.4818,-0.4414,-19.8837
16:44:02:273,-2.8211,4.5129,4.5727,43.695,1.0212,-1.2191,-0.5648,-19.6649
16:44:02:292,-5.4197,4.0056,2.6249,43.9244,0.4213,-0.6828,-0.2032,-19.1744
16:44:02:312,-3.0341,5.9198,4.6181,43.9927,-0.4363,-0.4385,0.1987,-18.9381
16:44:02:331,-3.1824,5.5107,8.3605,42.8825,-1.3721,-0.6022,0.2464,-18.7182
16:44:02:346,-3.6634,3.3165,9.7507,45.5386,-1.4235,-0.662,0.2048,-18.5118
16:44:02:377,-3.0126,2.9743,7.7886,42.0962,-0.9128,-0.5166,0.2537,-18.3191
16:44:02:393,-2.8666,3.3811,7.0469,42.4287,-0.545,-0.0683,0.1486,-18.1362
16:44:02:415,-2.4861,2.5196,5.1087,42.2478,-0.0698,0.5401,-0.0627,-17.9554
16:44:02:425,-2.6656,2.9958,5.0656,44.6379,0.2295,1.0899,-0.0211,-17.7766
16:44:02:445,-2.0459,2.8762,6.0323,45.0581,0.2197,1.5468,0.2317,-17.6094
16:44:02:465,-2.3402,2.0459,7.8915,44.4831,-0.0368,1.6763,0.3124,-17.4576
16:44:02:486,-3.7543,1.8138,8.8128,45.8991,-0.2274,1.5212,0.0057,-17.3097
16:44:02:505,-5.2522,1.9765,8.9252,44.1162,-0.2323,1.3636,-0.263,-17.1548
16:44:02:527,-6.53,2.2349,8.7434,43.2628,-0.1516,1.4247,-0.285,-16.9906
16:44:02:547,-6.6688,1.5577,9.1262,45.0098,-0.3141,1.4662,-0.0993,-16.8259
16:44:02:568,-5.4126,0.2393,10.6361,44.0791,-0.7161,1.2683,0.1144,-16.6749
16:44:02:590,-4.8431,0.0096,11.7416,44.8646,-0.9836,0.9482,0.0509,-16.539
16:44:02:608,-4.1228,0.1986,11.8899,43.2436,-0.9384,0.7319,-0.158,-16.4112
16:44:02:632,-3.9865,1.0816,10.4327,44.345,-0.5915,0.5878,-0.3706,-16.28
16:44:02:649,-4.8239,2.4622,8.126,45.4781,-0.1113,0.5536,-0.5612,-16.1326
16:44:02:669,-5.4221,3.8094,5.47,45.3854,0.3199,0.7588,-0.5343,-15.9635
16:44:02:692,-5.2666,4.3884,3.5079,45.0981,0.4946,1.1791,-0.2472,-15.7808
16:44:02:711,-4.7522,4.8359,3.0173,44.5469,0.2503,1.4906,0.1022,-15.6
16:44:02:732,-4.5775,4.9507,2.9216,45.4374,-0.3349,1.3782,0.3246,-15.4364
16:44:02:749,-4.0367,4.3286,4.5105,43.7845,-1.4943,0.8957,0.7326,-15.305
16:44:02:768,-3.2016,3.9099,6.2955,43.7711,-1.8437,0.8272,0.9367,-15.305
16:44:02:792,-2.6943,3.6084,7.7719,44.3617,-1.972,0.7906,1.0368,-15.305
16:44:02:811,-2.1416,3.2901,8.7625,45.0502,-1.9659,0.6953,1.0857,-15.4058
16:44:02:828,-2.1631,3.5007,9.8536,45.0324,-1.8645,0.5853,1.0796,-15.5665
16:44:02:848,-2.2349,3.6323,10.8515,44.1645,-1.5701,0.6232,1.0649,-15.7807
16:44:02:869,-1.4716,4.2903,11.7416,46.3778,-1.1474,0.7918,1.0271,-16.0392
16:44:02:891,-2.8666,5.08,12.2225,45.5448,-0.7063,1.0227,0.8291,-16.327
16:44:02:910,-2.6345,4.5942,12.414,46.3826,-0.3557,0.936,0.845,-16.6385
16:44:02:929,-1.1462,4.5177,11.8014,44.5547,-0.071,0.5841,0.911,-16.9717
16:44:03:065,-0.4546,4.6516,11.3204,45.2924,0.0621,0.3153,0.7424,-17.3191
16:44:03:067,-1.3232,4.8407,11.945,46.1907,0.0255,0.3056,0.4162,-17.6703
16:44:03:069,-2.5747,4.6588,13.1151,46.0596,-0.0735,0.231,0.2146,-18.0209
16:44:03:070,-3.2088,4.1707,15.6443,43.8735,-0.17,0.1101,0.1828,-18.3711
16:44:03:071,-3.0772,3.7424,17.391,45.2924,-0.1211,-0.2699,0.1291,-18.7202
16:44:03:072,-1.5003,2.8379,16.1922,43.8731,0.21,-0.9247,0.035,-19.0606
16:44:03:073,0.0646,2.7733,13.4477,43.2471,0.6803,-1.4256,-0.1494,-19.3797
16:44:03:087,0.3637,2.8857,11.9833,43.4238,0.9858,-1.3828,-0.4316,-19.6657
16:44:03:106,-0.3159,2.5196,12.5623,45.0971,1.0016,-1.0261,-0.6442,-19.9121
16:44:03:127,-1.3208,1.7803,14.8188,44.139,0.9064,-0.761,-0.8043,-20.1174
16:44:03:148,-2.211,1.3663,15.7496,44.298,0.9809,-0.7781,-1.001,-20.2746
16:44:03:168,-2.8211,1.1127,14.9815,44.1703,1.2374,-0.9247,-1.128,-20.3773
16:44:03:191,-3.1154,0.8423,13.8425,42.1812,1.4244,-1.0762,-1.1244,-20.3773
16:44:03:210,-4.2114,1.0385,12.1651,42.5773,1.3303,-1.4904,-1.1525,-20.3773
16:44:03:232,-4.1133,0.6915,11.3324,41.764,1.3058,-1.7396,-1.1085,-20.2639
16:44:03:250,-4.0032,0.4546,9.734,43.0153,1.4867,-1.9277,-1.0743,-20.0999
16:44:03:269,-3.8812,0.4498,7.6523,39.925,1.7738,-1.99,-1.0621,-19.8842
16:44:03:288,-3.5892,0.6078,5.5657,40.9926,1.9876,-1.9632,-1.0242,-19.6176
16:44:03:308,-3.2806,1.048,3.8907,40.1047,2.0291,-1.9106,-0.9716,-19.303
16:44:03:328,-2.6369,1.3783,3.1705,40.5529,1.8593,-1.7982,-0.9057,-18.9459
16:44:03:348,-2.1559,1.9238,3.204,39.301,1.5685,-1.698,-0.8531,-18.5534
16:44:03:366,-1.9645,2.5101,3.8453,40.4838,1.2814,-1.5722,-0.8299,-18.1293
16:44:03:387,-2.1009,3.149,4.7067,40.2284,1.0713,-1.4391,-0.8263,-17.6758
16:44:03:409,-2.2325,3.8692,5.1565,39.3264,0.9894,-1.3157,-0.8116,-17.1953
16:44:03:429,-2.6656,4.6684,5.3623,39.0258,0.9882,-1.1251,-0.7945,-16.6878
16:44:03:449,-3.3667,5.4078,5.6662,38.4165,0.9894,-0.9137,-0.7518,-16.155
16:44:03:468,-3.7854,5.7188,5.8744,38.7487,0.9552,-0.7488,-0.6393,-15.6015
16:44:03:488,-3.6203,5.8983,5.604,37.396,0.9027,-0.673,-0.4769,-15.0348
16:44:03:510,-3.1801,5.9701,4.6899,40.3658,0.8453,-0.6034,-0.3217,-14.4627
16:44:03:529,-3.2566,6.0562,4.7498,36.8142,0.7096,-0.3639,-0.2179,-13.8894
16:44:03:548,-3.9051,5.9964,5.1015,38.8394,0.4995,-0.0512,-0.1617,-13.3172
16:44:03:568,-3.7783,5.7571,4.7569,38.1177,0.2368,0.0942,-0.0627,-12.752
16:44:03:589,-2.8762,5.805,4.9173,39.5382,-0.1419,0.0918,0.0326,-12.2014
16:44:03:606,-2.6201,5.5179,6.1017,37.5425,-0.5646,0.0905,0.0179,-11.6674
16:44:03:627,-3.5366,5.2307,7.1833,37.6166,-0.8175,0.22,-0.0932,-11.1445
16:44:03:648,-5.4341,5.4054,8.0255,37.0501,-0.8932,0.5255,-0.2179,-10.626
16:44:03:666,-7.6666,4.8,10.593,37.8378,-1.0044,0.9897,0.0741,-9.6144
16:44:03:689,-6.006,3.7711,10.9567,37.7552,-1.0728,0.7332,0.3905,-9.1497
16:44:03:707,-4.7306,3.2518,11.2965,38.2066,-1.002,0.5511,0.481,-8.7203
16:44:03:733,-4.9268,3.3619,10.7821,38.3549,-0.6465,0.6892,0.3563,-8.3175
16:44:03:749,-5.8026,3.7854,9.2626,38.7371,-0.093,1.0618,0.1975,-7.9284
16:44:03:766,-5.482,4.0271,6.9559,39.509,0.3468,1.3575,0.2159,-7.5497
16:44:03:786,-4.599,4.0582,4.7832,38.1522,0.4604,1.4625,0.3282,-7.184
16:44:03:807,-3.8309,4.0319,3.0341,38.4646,0.1819,1.3159,0.426,-6.8377
16:44:03:828,-3.1202,3.7567,2.2349,39.2853,-0.3874,1.0337,0.5139,-6.5215
16:44:03:846,-2.1033,3.5294,2.5268,37.6274,-1.0166,0.7881,0.6288,-6.2476
16:44:03:867,-1.2706,3.149,3.8237,36.5944,-1.4809,0.7967,0.7082,-6.0251
16:44:03:888,-1.4692,3.2471,5.1422,39.3917,-1.669,0.9812,0.6776,-5.8534
16:44:03:910,-2.0913,3.4816,6.2524,38.4457,-1.6764,1.1424,0.63,-5.7289
16:44:03:928,-2.1392,3.6945,6.6927,38.4526,-1.6128,1.1937,0.6752,-5.7289
16:44:03:947,-1.7228,3.7184,7.1043,39.7829,-1.5908,1.1534,0.7729,-5.7289
16:44:03:968,-1.1988,3.6945,7.9442,37.6978,-1.6409,1.0606,0.834,-5.7289
16:44:03:990,-0.8207,3.685,8.9994,36.8653,-1.6641,0.9286,0.8218,-5.7289
16:44:04:013,-0.3996,3.7567,9.7962,40.1812,-1.5518,0.8798,0.7534,-5.8455
16:44:04:032,-0.3422,4.1826,10.1001,38.3974,-1.2903,0.9152,0.6361,-5.9984
16:44:04:048,-0.3996,4.678,10.1886,39.4231,-1.0105,0.9543,0.4993,-6.1785
16:44:04:068,-0.6389,5.056,10.215,39.5422,-0.8309,0.8859,0.3869,-6.378
16:44:04:087,-0.7729,5.458,10.8395,37.5053,-0.7747,0.7955,0.2977,-6.5933
16:44:04:114,-1.0337,5.5944,12.1172,38.5092,-0.8236,0.7295,0.2329,-6.8228
16:44:04:130,-2.6178,5.068,15.9721,38.4193,-0.9152,0.4204,0.0863,-7.3193
16:44:04:147,-2.254,4.8526,16.9723,38.8087,-0.7356,0.06,0.0375,-7.5808
16:44:04:166,-1.7994,4.9364,15.6371,37.7549,-0.3374,-0.3786,-0.07,-7.8388
16:44:04:186,-1.3495,4.9125,13.6941,38.9856,0.1452,-0.5826,-0.1897,-8.0827
16:44:04:207,-1.2299,4.4315,12.6604,38.5722,0.4421,-0.5447,-0.2936,-8.3056
16:44:04:228,-1.9238,3.7137,13.4166,38.0786,0.5264,-0.403,-0.4304,-8.5021
16:44:04:247,-3.082,3.1298,15.3428,37.9343,0.5178,-0.3199,-0.5868,-8.6683
16:44:04:267,-3.7256,2.211,16.2999,40.6,0.6095,-0.4543,-0.7041,-8.8
16:44:04:286,-3.4026,1.5769,15.7232,40.2755,0.8587,-0.7524,-0.7676,-8.8929
16:44:04:308,-3.0078,1.1844,14.3785,40.1991,1.202,-0.9626,-0.8666,-8.8929
16:44:04:329,-3.2136,1.0672,12.323,38.5168,1.5575,-1.0518,-1.0034,-8.8929
16:44:04:348,-3.7783,1.1916,10.2628,39.695,1.8178,-1.1177,-1.1244,-8.8929
16:44:04:367,-4.0511,1.3615,8.1452,39.7485,1.9558,-1.2167,-1.1549,-8.7623
16:44:04:386,-3.862,1.4644,6.3194,39.5082,1.9595,-1.2998,-1.106,-8.5717
16:44:04:414,-3.4457,1.5242,5.1422,38.7017,1.8153,-1.356,-1.0425,-8.3266
16:44:04:428,-3.3595,1.6439,4.5942,39.158,1.5966,-1.4048,-1.0107,-8.0313
16:44:04:445,-3.2375,1.809,4.2401,38.8688,1.3877,-1.4537,-0.9912,-7.6898
16:44:04:465,-3.1944,2.0076,3.8357,41.0793,1.2533,-1.4256,-0.957,-7.3065
16:44:04:484,-3.4505,2.4981,3.472,37.3617,1.1886,-1.2326,-0.9155,-6.8836
16:44:04:504,-3.5821,3.0054,3.4648,38.6809,1.0798,-1.0139,-0.8373,-6.4265
16:44:04:524,-3.6036,3.46,3.7496,39.3579,0.8538,-0.943,-0.7395,-5.9418
16:44:04:544,-3.6514,3.9338,4.4171,35.5589,0.5814,-0.9613,-0.6601,-5.436
16:44:04:565,-3.929,4.6349,5.6901,36.6922,0.2222,-0.8685,-0.5465,-4.9148
16:44:04:589,-4.0989,4.9196,5.9509,37.3116,0.1672,-0.7402,-0.4671,-4.3833
16:44:04:609,-3.9482,5.1135,6.0993,40.6069,0.166,-0.5692,-0.3632,-3.3032
16:44:04:628,-3.9553,5.1111,5.8241,40.4334,0.1709,-0.3652,-0.2728,-2.7605
16:44:04:646,-4.1133,4.9603,5.8146,39.1328,0.0914,-0.155,-0.2191,-2.2198
16:44:04:666,-4.3167,4.7545,5.7739,39.4172,-0.0942,0.0148,-0.2105,-1.6827
16:44:04:686,-4.4961,4.788,5.5513,40.4688,-0.3532,0.1357,-0.2154,-1.1504
16:44:04:707,-5.001,5.1661,6.5468,40.6487,-0.7112,0.2689,-0.2276,-0.6262
16:44:04:728,-5.5179,4.8814,8.4634,39.4498,-1.0569,0.4253,-0.191,-0.1142
16:44:04:748,-6.8363,4.6253,10.4758,38.9544,-1.2573,0.5462,-0.1617,0.3833
16:44:04:768,-8.942,4.7832,12.067,39.2658,-1.1987,0.6574,-0.1201,0.8667
16:44:04:786,-9.3177,4.8359,12.1412,39.2795,-0.8847,0.8199,0.1438,1.3296
16:44:04:806,-8.0255,3.5964,11.6004,40.9864,-0.6709,0.7808,0.5665,1.7587
16:44:04:826,-6.8267,2.5986,11.4616,40.0961,-0.6843,0.4497,0.8414,2.1435
16:44:04:848,-6.5468,2.4215,11.1984,40.6781,-0.6037,0.2775,0.9281,2.4837
16:44:04:868,-6.877,2.2636,10.3992,40.3095,-0.3007,0.5243,0.9855,2.7809
16:44:04:886,-6.6353,2.3785,9.3535,40.7333,-0.0649,0.7894,1.0833,3.0367
16:44:04:908,-5.9581,2.522,7.9753,40.9532,-0.0576,0.7405,1.1859,3.2474
16:44:04:930,-4.7856,2.7039,6.3577,39.1488,-0.192,0.5255,1.2885,3.4092
16:44:04:948,-3.7089,2.8642,5.4006,42.1426,-0.3703,0.4143,1.3582,3.5184
16:44:04:968,-2.9862,2.8953,4.8383,40.3745,-0.5047,0.5059,1.3924,3.5184
16:44:04:986,-2.7398,2.9862,4.5607,40.0682,-0.6037,0.6843,1.3924,3.5184
16:44:05:156,-2.4814,2.9815,4.6301,43.3332,-0.7136,0.8089,1.4046,3.5184
16:44:05:157,-1.5864,2.6943,4.6971,43.1349,-0.8835,0.8981,1.4791,3.4073
16:44:05:158,-1.0696,2.5484,4.8311,45.3326,-0.958,0.9531,1.4877,3.0173
16:44:05:158,-0.9643,2.6369,5.6375,41.8053,-1.0728,0.9909,1.4522,2.7423
16:44:05:159,-1.0624,2.7159,6.5396,43.1005,-1.1779,0.9922,1.3924,2.4157
16:44:05:160,-0.7513,2.7398,7.4752,41.5201,-1.2121,0.9787,1.3557,2.0387
16:44:05:160,-0.4618,2.8259,8.3773,40.0485,-1.1803,0.947,1.2836,1.6153
16:44:05:161,-0.4211,3.1322,9.1454,41.4028,-1.0704,0.9311,1.1431,1.1526
16:44:05:166,-0.5001,3.5773,9.6096,39.7817,-0.9262,0.8749,0.9733,0.658
16:44:05:184,-0.5671,3.9147,9.6742,43.2611,-0.7833,0.7625,0.8194,0.1396
16:44:05:206,-0.481,4.3238,9.8824,42.1645,-0.688,0.6513,0.6923,-0.3952
16:44:05:226,-0.6245,4.544,10.593,43.6973,-0.6452,0.5988,0.5689,-0.9417
16:44:05:247,-1.3878,4.7928,11.4568,43.9666,-0.6477,0.5804,0.4382,-1.4955
16:44:05:267,-2.4646,4.8766,13.4788,43.5124,-0.7088,0.6073,0.3295,-2.0527
16:44:05:286,-3.1872,4.8,16.1276,45.4001,-0.732,0.5401,0.2733,-2.6121
16:44:05:308,-3.1514,5.0465,16.4818,44.2309,-0.5047,0.1699,0.2415,-3.1699
16:44:05:329,-2.3497,5.1781,13.6941,42.1944,-0.0344,-0.2161,0.2269,-3.7189
16:44:05:347,-1.2778,5.2379,11.787,42.2001,0.3077,-0.2295,0.2305,-4.2556
16:44:05:366,-0.7753,4.6947,11.8517,44.0191,0.3346,-0.1245,0.1902,-4.7796
16:44:05:386,-1.017,3.8692,13.4764,44.2599,0.1513,-0.2088,0.0582,-5.2893
16:44:05:406,-1.1605,3.2423,15.5869,42.054,0.1073,-0.3346,-0.114,-5.7811
16:44:05:429,-1.5721,2.6106,15.7639,40.8912,0.4262,-0.3419,-0.2912,-6.2459
16:44:05:447,-2.2421,2.4503,14.3665,44.361,0.8782,-0.3749,-0.4683,-6.6727
16:44:05:464,-2.7876,2.3497,12.7322,43.5163,1.1886,-0.4397,-0.5807,-7.0536
16:44:05:488,-3.4959,2.1129,10.4112,41.7276,1.2753,-0.7182,-0.6381,-7.6751
16:44:05:511,-3.1992,1.8616,9.3894,42.7935,1.1825,-1.0041,-0.6271,-7.9186
16:44:05:528,-2.7063,1.6606,8.0997,41.1756,1.1727,-1.2436,-0.6296,-8.1189
16:44:05:546,-2.3019,1.6056,6.4893,42.9819,1.2875,-1.3266,-0.6577,-8.2757
16:44:05:566,-2.1918,1.7396,4.8239,40.9186,1.4158,-1.2961,-0.7065,-8.3869
16:44:05:588,-2.1057,2.0674,3.2782,42.0368,1.4573,-1.2106,-0.7298,-8.3869
16:44:05:609,-1.9167,2.5412,2.2516,40.6625,1.3633,-1.0505,-0.7041,-8.3869
16:44:05:627,-1.9908,3.1322,2.187,40.6625,1.1165,-0.8551,-0.6516,-8.3869
16:44:05:647,-2.1392,3.716,3.1418,40.2394,0.7695,-0.7121,-0.566,-8.3869
16:44:05:664,-1.8999,3.8596,4.5631,40.7396,0.4311,-0.6413,-0.4512,-8.3869
16:44:05:685,-2.0626,4.2281,5.616,41.0078,0.2381,-0.6168,-0.3865,-8.3869
16:44:05:705,-2.4479,4.4937,6.1783,39.9713,0.2222,-0.491,-0.3559,-8.2847
16:44:05:729,-3.082,4.8215,6.597,36.968,0.2576,-0.3053,-0.3107,-8.1689
16:44:05:748,-3.4792,4.9675,6.9775,37.9473,0.282,-0.1733,-0.2203,-8.0433
16:44:05:767,-3.472,4.9795,7.2431,36.6803,0.2527,-0.1,-0.1018,-7.912
16:44:05:786,-3.4648,4.9125,7.1976,39.6097,0.1819,-0.0744,-0.0114,-7.78
16:44:05:810,-3.9458,4.6732,7.3196,37.1789,0.0707,-0.0047,0.0253,-7.6483
16:44:05:828,-4.0343,4.3813,7.1234,39.7477,-0.0881,0.0563,0.0424,-7.5192
16:44:05:849,-3.4217,4.1826,6.6138,37.8302,-0.2824,0.0832,0.0509,-7.3944
16:44:05:866,-2.881,4.3502,7.1426,38.765,-0.5255,0.1785,-0.0077,-7.2747
16:44:05:886,-3.6371,4.6253,8.1787,39.1055,-0.7393,0.2579,-0.1617,-7.1556
16:44:05:907,-5.3001,4.812,9.2483,38.4682,-0.8053,0.3837,-0.3119,-7.0308
16:44:05:931,-7.8867,5.3073,10.2604,37.7824,-0.699,0.6537,-0.3755,-6.8955
16:44:05:951,-7.6092,4.4004,9.0233,37.9555,-0.3532,0.9824,0.2745,-6.627
16:44:05:966,-5.9701,3.1442,9.3057,38.2609,-0.5939,0.7417,0.597,-6.5253
16:44:05:986,-4.9316,2.4933,10.5906,38.6829,-0.8761,0.4766,0.696,-6.5253
16:44:06:007,-4.9244,2.3091,11.2463,38.8436,-0.8273,0.4705,0.6398,-6.5253
16:44:06:028,-5.3647,2.3426,10.471,37.7176,-0.5206,0.5719,0.5408,-6.5253
16:44:06:048,-4.934,2.6824,8.7386,39.212,-0.2421,0.5707,0.5017,-6.5253
16:44:06:068,-3.8907,2.8618,6.9488,37.4453,-0.0796,0.5682,0.5274,-6.5253
16:44:06:086,-3.0102,3.1394,5.5155,38.879,-0.0612,0.5988,0.5347,-6.5253
16:44:06:108,-2.534,3.3954,4.8622,38.8571,-0.1553,0.6782,0.5103,-6.5253
16:44:06:128,-2.2804,3.6251,4.7019,37.7465,-0.2885,0.7955,0.4993,-6.5253
16:44:06:149,-2.1655,3.8429,4.9579,38.6316,-0.4192,0.8981,0.5139,-6.6176
16:44:06:169,-2.2612,3.941,5.2786,37.9961,-0.5536,0.9225,0.5457,-6.7314
16:44:06:187,-2.187,4.13,5.5011,37.8704,-0.6953,0.8407,0.5958,-6.8701
16:44:06:206,-2.2373,4.2353,5.9773,37.6263,-0.8175,0.7686,0.6569,-7.0374
16:44:06:225,-2.0028,4.264,6.4463,39.0891,-0.9018,0.7124,0.7253,-7.2356
16:44:06:246,-1.7133,4.1324,6.7813,37.8198,-0.9531,0.6684,0.784,-7.4668
16:44:06:267,-1.6558,4.0941,7.4704,39.9348,-1.0044,0.6574,0.784,-7.7314
16:44:06:286,-1.4429,4.063,8.4275,38.6526,-1.0472,0.6281,0.751,-8.0278
16:44:06:308,-1.3161,4.197,9.5713,38.5888,-1.0252,0.5621,0.6825,-8.3539
16:44:06:336,-1.4118,4.4554,10.3801,37.8315,-0.9103,0.4754,0.5653,-8.7034
16:44:06:347,-1.4883,4.7522,10.6672,37.4005,-0.7002,0.3654,0.4565,-9.0686
16:44:06:365,-1.3591,4.9388,10.2533,38.3508,-0.44,0.3092,0.3808,-9.4417
16:44:06:388,-2.132,5.2642,10.7198,38.3913,-0.1749,0.352,0.2464,-10.1944
16:44:06:403,-3.4337,5.0608,11.9641,40.2605,-0.2372,0.3532,0.2048,-10.5695
16:44:06:425,-4.0606,4.6708,13.8784,37.3794,-0.3606,0.2616,0.2232,-10.9458
16:44:06:451,-3.2901,4.2162,15.271,38.1876,-0.3703,-0.0231,0.2818,-11.3257
16:44:06:465,-1.5386,4.0965,13.5936,36.5968,-0.1089,-0.502,0.294,-11.7075
16:44:06:484,-0.0646,3.9075,10.6863,37.0772,0.2662,-0.8208,0.2269,-12.0838
16:44:06:506,1.194,3.8859,9.1119,35.9341,0.4409,-0.7915,0.1132,-12.4493
16:44:06:530,1.5601,3.3787,9.6072,38.2117,0.3407,-0.6071,-0.0761,-12.8001
16:44:06:547,1.2825,2.6154,11.7823,38.2528,0.0976,-0.5362,-0.3364,-13.1313
16:44:06:565,0.4738,1.9693,13.8903,37.1656,0.0059,-0.4629,-0.643,-13.4355
16:44:06:586,-1.6223,1.6822,16.3526,37.4987,0.0805,-0.3248,-0.9753,-13.701
16:44:06:610,-2.948,1.3591,18.1208,36.2102,0.2796,-0.3456,-1.1891,-13.9195
16:44:06:628,-3.1872,0.8734,17.7619,36.8079,0.6962,-0.5851,-1.2539,-14.0849
16:44:06:644,-3.7113,0.7681,15.3093,36.6431,1.1873,-0.921,-1.3516,-14.1884
16:44:06:664,-4.4722,0.8853,12.7202,36.2032,1.5148,-1.2228,-1.4604,-14.1884
16:44:06:685,-4.599,0.9715,10.5835,35.8563,1.6528,-1.4708,-1.4921,-14.1884
16:44:06:709,-4.3597,1.005,8.7769,36.9104,1.7322,-1.6907,-1.4726,-14.0845
16:44:06:729,-4.0199,1.1174,6.4726,37.3634,1.8275,-1.8679,-1.4579,-13.9127
16:44:06:746,-3.9266,1.5912,4.2353,37.7545,1.9021,-1.8935,-1.4371,-13.9127
16:44:06:766,-4.0463,2.3091,2.8427,36.8024,1.8336,-1.742,-1.3773,-13.6053
16:44:06:784,-3.6682,2.9169,2.6058,36.7576,1.5807,-1.5466,-1.2404,-13.2458
16:44:06:808,-3.0963,3.4074,2.9073,35.762,1.2619,-1.4183,-1.0816,-12.8445
16:44:06:830,-3.1705,4.0965,3.4576,36.4113,0.9919,-1.2814,-0.9741,-11.9429
16:44:06:852,-3.8764,5.0154,4.9986,37.1666,0.6205,-0.9662,-0.742,-11.4555
16:44:06:869,-3.8668,5.2642,5.3551,36.007,0.5154,-0.8758,-0.5673,-10.9539
16:44:06:887,-3.5844,5.2881,5.7212,33.6798,0.4079,-0.7903,-0.3913,-10.4472
16:44:06:912,-3.3523,5.257,6.2453,35.9567,0.337,-0.684,-0.2508,-9.9421
16:44:06:928,-3.1681,5.2451,6.3888,35.1815,0.3321,-0.5655,-0.1494,-9.4424
16:44:06:944,-2.9121,5.1135,6.0778,33.104,0.3553,-0.4299,-0.0676,-8.9519
16:44:06:965,-3.0939,4.9388,5.86,34.1853,0.3468,-0.2283,-0.0248,-8.4712
16:44:06:985,-3.3212,4.7139,5.5729,35.05,0.2588,-0.028,-0.0297,-8.0006
16:44:07:008,-3.2351,4.4937,4.8885,33.9629,0.0841,0.0686,-0.0334,-7.5402
16:44:07:030,-3.0269,4.6062,4.946,35.1068,-0.1724,0.2359,-0.0529,-7.0915
16:44:07:162,-3.5629,4.6516,6.4534,34.1853,-0.5011,0.4509,-0.1103,-6.6541
16:44:07:163,-4.5153,4.3334,7.9705,33.4662,-0.7906,0.5401,-0.1885,-6.2253
16:44:07:164,-6.475,4.5679,9.119,35.2973,-0.8969,0.6318,-0.2606,-5.8019
16:44:07:164,-8.1356,4.9029,9.4253,36.1035,-0.8077,0.9176,-0.1678,-5.3855
16:44:07:165,-7.6283,4.2473,9.7436,35.3041,-0.7821,1.1461,0.1804,-4.9905
16:44:07:165,-5.939,2.9886,10.4279,32.8049,-1.0093,0.9458,0.5262,-4.6334
16:44:07:166,-4.8574,2.3426,11.4066,33.7752,-1.2011,0.6147,0.6349,-4.3209
16:44:07:183,-4.4937,2.0794,11.6148,34.6114,-1.0582,0.5548,0.5946,-4.049
16:44:07:207,-4.8981,2.2014,10.6194,36.1793,-0.6477,0.7148,0.4968,-3.8084
16:44:07:225,-4.8359,2.7159,8.7601,33.5228,-0.2579,0.8504,0.4235,-3.592
16:44:07:247,-4.4171,3.0628,6.92,35.9698,-0.0735,0.9176,0.4223,-3.397
16:44:07:265,-3.6419,3.3141,5.5944,34.3482,-0.1333,0.8627,0.4516,-3.2248
16:44:07:286,-3.0796,3.6419,4.654,34.3892,-0.3264,0.7295,0.4663,-3.0777
16:44:07:306,-2.4526,3.8955,4.1133,35.5351,-0.7283,0.7527,0.5445,-2.9595
16:44:07:331,-2.8522,4.0558,4.4937,33.0419,-0.8578,0.8822,0.5958,-2.9595
16:44:07:349,-3.0102,4.1228,5.0489,33.4815,-0.9751,0.9836,0.707,-2.9595
16:44:07:366,-2.6058,3.9482,5.872,34.6202,-1.1278,0.958,0.856,-2.9595
16:44:07:385,-2.1703,3.7184,6.7167,36.6431,-1.2879,0.8468,0.9648,-2.9595
16:44:07:406,-2.0028,3.5438,7.3555,35.946,-1.3734,0.7393,1.0136,-3.0855
16:44:07:428,-1.8879,3.3763,8.0471,34.529,-1.4039,0.7014,1.0295,-3.2616
16:44:07:446,-1.517,3.1633,9.1645,33.7643,-1.399,0.7295,1.0283,-3.4867
16:44:07:465,-1.4237,3.0269,10.7749,37.5532,-1.3587,0.7784,0.9403,-3.7562
16:44:07:484,-1.5434,3.2877,11.8517,36.2661,-1.195,0.7075,0.7754,-4.0619
16:44:07:508,-1.6439,3.5653,11.3779,36.0885,-0.8615,0.5597,0.6044,-4.3926
16:44:07:528,-1.2538,3.9075,10.2485,35.9404,-0.5243,0.457,0.4736,-4.7377
16:44:07:545,-1.3041,4.0989,10.2796,34.8301,-0.3618,0.4742,0.3417,-5.0911
16:44:07:564,-1.931,4.4602,11.0955,35.3506,-0.3215,0.5255,0.1768,-5.4468
16:44:07:585,-3.2495,4.7856,11.7966,35.6845,-0.3056,0.5524,0.0363,-5.7994
16:44:07:608,-4.7306,5.1685,13.0241,34.6611,-0.3422,0.5352,-0.0395,-6.1464
16:44:07:629,-5.1159,5.3958,14.065,35.6695,-0.3862,0.3447,0.024,-6.4906
16:44:07:648,-3.9482,5.2188,13.2945,33.7097,-0.3239,-0.0133,0.1841,-6.8373
16:44:07:665,-2.4837,4.8192,12.1508,35.4757,-0.2127,-0.1953,0.3038,-7.1888
16:44:07:685,-1.8616,4.0056,12.9428,35.1987,-0.2127,-0.1196,0.2977,-7.5459
16:44:07:705,-1.7635,3.192,14.7829,35.8763,-0.2592,-0.0951,0.1877,-7.9057
16:44:07:726,-1.6343,2.2804,16.0343,34.3473,-0.1419,-0.2063,0.0179,-8.2622
16:44:07:747,-1.5769,1.663,16.0822,35.3503,0.2588,-0.3603,-0.1971,-8.6031
16:44:07:765,-3.0891,2.0243,13.0313,34.2994,1.3999,-0.4018,-0.5709,-9.1789
16:44:07:786,-3.7328,2.1152,11.7248,34.6611,1.615,-0.4946,-0.6125,-9.3986
16:44:07:806,-3.6586,1.9693,10.3226,35.2207,1.6724,-0.7243,-0.566,-9.5739
16:44:07:826,-3.4983,1.8903,8.8487,33.0661,1.6992,-0.9296,-0.505,-9.7077
16:44:07:846,-3.204,1.7898,7.054,33.1395,1.7151,-1.0628,-0.4439,-9.8028
16:44:07:866,-2.8977,1.809,5.5609,35.064,1.6516,-1.1373,-0.3889,-9.8028
16:44:07:884,-2.5531,1.8497,4.8,34.3119,1.461,-1.1654,-0.3425,-9.8028
16:44:07:906,-2.1894,1.8257,4.5368,33.9851,1.224,-1.1776,-0.307,-9.8028
16:44:07:926,-1.9143,1.9454,4.7115,34.5101,1.0395,-1.1507,-0.3119,-9.8028
16:44:07:948,-1.8425,2.0674,4.5392,34.0338,0.9674,-1.0554,-0.3351,-9.8028
16:44:07:968,-1.8401,2.3857,4.2425,34.5101,0.9528,-0.8783,-0.3608,-9.8028
16:44:07:987,-2.1942,2.9934,4.3502,35.3738,0.8685,-0.6755,-0.3767,-9.8028
16:44:08:007,-2.6249,3.3619,5.2858,34.7316,0.6595,-0.5325,-0.3669,-9.7083
16:44:08:025,-2.5531,3.6012,6.3099,34.6184,0.4567,-0.4849,-0.3156,-9.6019
16:44:08:048,-2.5125,3.7472,7.1593,34.7994,0.3566,-0.4849,-0.2838,-9.4861
16:44:08:069,-2.4837,3.9386,7.0253,35.6282,0.3822,-0.5044,-0.2802,-9.3613
16:44:08:084,-2.5699,4.2209,6.25,34.7994,0.4897,-0.414,-0.2789,-9.2262
16:44:08:104,-2.7661,4.5296,5.7834,36.6617,0.5166,-0.2283,-0.274,-9.0812
16:44:08:124,-3.3141,4.7426,5.7954,34.0553,0.3639,-0.0976,-0.2704,-8.9269
16:44:08:146,-4.209,4.8263,6.2453,34.9127,0.0902,-0.0035,-0.285,-8.7647
16:44:08:164,-4.6612,4.7258,6.7765,35.7656,-0.2286,0.0527,-0.2655,-8.599
16:44:08:189,-4.6014,4.7689,7.6283,35.586,-0.5157,0.1174,-0.2154,-8.4348
16:44:08:208,-4.3286,4.934,8.5376,36.109,-0.7088,0.1809,-0.1751,-8.2769
16:44:08:228,-6.7884,5.2714,9.655,34.8902,-0.7491,0.4815,-0.2117,-8.1234
16:44:08:245,-8.2002,5.5226,10.3825,37.0442,-0.7258,0.7124,-0.1213,-7.9704
16:44:08:265,-7.5948,4.7498,10.9615,35.2236,-0.7772,0.6391,0.1718,-7.6926
16:44:08:284,-5.8074,3.9075,10.6648,35.9027,-0.8224,0.231,0.4553,-7.5915
16:44:08:309,-5.1805,3.7304,10.7318,34.3869,-0.7234,0.0453,0.5152,-7.5915
16:44:08:326,-6.0084,3.8333,10.2939,35.7978,-0.4168,0.2176,0.4577,-7.5915
16:44:08:344,-6.4798,3.9123,8.7936,35.8343,-0.0588,0.4351,0.4602,-7.5915
16:44:08:366,-6.0538,4.008,7.2191,37.3576,0.1122,0.5218,0.5445,-7.5915
16:44:08:385,-5.0489,4.0199,5.537,35.8451,0.0841,0.479,0.6654,-7.5915
16:44:08:405,-4.0415,3.9577,4.4794,37.6739,-0.1052,0.3654,0.7632,-7.5915
16:44:08:426,-3.0413,3.7424,4.0606,35.5005,-0.3337,0.3557,0.8304,-7.5915
16:44:08:445,-2.2469,3.5342,4.0869,36.5387,-0.4974,0.5145,0.8695,-7.6998
16:44:08:464,-1.8879,3.4074,4.6493,37.3027,-0.6318,0.6941,0.8634,-7.8453
16:44:08:484,-1.9836,3.4002,5.5322,35.4123,-0.7564,0.7637,0.8328,-8.027
16:44:08:504,-1.9573,3.2471,6.1639,37.7362,-0.8187,0.7478,0.8353,-8.2444
16:44:08:539,-1.7563,3.1657,6.6257,36.5655,-0.8248,0.738,0.8585,-8.4979
16:44:08:543,-1.4189,2.9312,7.0301,37.564,-0.8175,0.7613,0.8585,-8.7862
16:44:08:563,-1.2156,2.7852,7.4632,37.173,-0.8077,0.7686,0.8255,-9.1075
16:44:08:582,-1.1294,2.7494,7.8389,38.0117,-0.8114,0.7393,0.7412,-9.458
16:44:08:602,-1.1246,2.8163,8.3797,36.0156,-0.8297,0.6904,0.6459,-9.8339
16:44:08:622,-0.8447,2.9384,9.2315,38.7099,-0.8358,0.6342,0.5311,-10.2308
16:44:08:644,-0.7107,3.2423,9.6024,36.0184,-0.7405,0.5511,0.3918,-10.6427
16:44:08:663,-1.2419,4.4124,8.0399,37.5556,-0.319,0.4766,0.1242,-11.0604
16:44:08:684,-1.4046,4.9244,8.1093,38.594,-0.3007,0.5047,0.0741,-11.8869
16:44:08:704,-2.1655,5.1924,8.8295,37.9027,-0.4473,0.501,0.0411,-12.297
16:44:08:731,-3.4074,5.3456,10.5117,37.9573,-0.6868,0.534,0.0179,-12.7069
16:44:08:747,-4.4985,5.0967,13.5601,38.3644,-0.9592,0.5524,0.0448,-13.1218
16:44:08:765,-4.1516,4.7545,15.9242,37.3246,-1.0374,0.3056,0.1254,-13.5467
16:44:08:784,-2.6895,4.9316,14.9934,39.0715,-0.7185,-0.2112,0.1755,-13.9789
16:44:08:808,-1.3376,4.9531,12.0144,39.5532,-0.1407,-0.5118,0.1609,-14.4091
16:44:08:828,-0.1005,4.7976,9.8536,38.8447,0.2759,-0.4311,0.1181,-14.8309
16:44:08:844,0.6628,4.5942,9.4253,39.9592,0.3541,-0.2821,0.013,-15.2407
16:44:08:864,0.335,3.9649,10.7486,39.9592,0.177,-0.2283,-0.1665,-15.6355
16:44:08:883,-1.9382,3.6514,13.4668,40.1927,-0.0234,-0.0732,-0.4292,-16.0095
16:44:08:905,-4.6014,3.1824,17.2355,41.6384,-0.1138,0.1528,-0.6076,-16.3581
16:44:08:925,-5.135,2.0889,18.7382,40.8461,0.056,-0.017,-0.5746,-16.6819
16:44:08:947,-4.1803,1.2491,17.0967,39.3498,0.541,-0.4604,-0.4854,-16.9783
16:44:08:965,-4.0439,1.1246,14.2397,41.2064,1.0676,-0.7598,-0.5392,-17.239
16:44:08:985,-4.343,1.1079,12.0215,41.0816,1.3596,-0.921,-0.621,-17.4587
16:44:09:009,-4.197,1.1749,10.3107,42.6707,1.439,-1.1336,-0.6491,-17.6368
16:44:09:026,-3.7902,1.0863,8.674,42.943,1.4683,-1.3816,-0.6491,-17.7752
16:44:09:046,-3.2207,1.1533,7.1617,40.8707,1.5184,-1.5429,-0.6626,-17.873
16:44:09:065,-2.9767,1.2227,5.5705,41.7848,1.5661,-1.6223,-0.7077,-17.873
16:44:09:220,-2.7398,1.462,4.2329,41.3823,1.5832,-1.6309,-0.7505,-17.873
16:44:09:221,-2.5842,1.8903,3.3858,41.4482,1.5685,-1.4977,-0.7847,-17.873
16:44:09:221,-3.1394,3.393,2.5747,43.1095,1.3963,-0.9223,-0.7737,-17.7652
16:44:09:222,-3.2925,4.0032,3.0126,41.9351,1.103,-0.7109,-0.6858,-17.6252
16:44:09:223,-3.405,4.3119,4.1204,44.0464,0.7304,-0.6486,-0.5722,-17.4617
16:44:09:223,-3.5701,4.5224,5.1924,41.8825,0.4494,-0.6364,-0.4683,-17.2827
16:44:09:224,-3.5079,4.5631,5.7954,42.7049,0.3492,-0.5765,-0.3547,-17.0938
16:44:09:224,-3.0365,4.4889,5.4652,42.4616,0.403,-0.436,-0.2386,-16.8988
16:44:09:243,-2.7326,4.453,4.6947,42.8712,0.4861,-0.2027,-0.1555,-16.7009
16:44:09:265,-2.6393,4.41,4.5942,44.9858,0.3773,-0.0084,-0.1348,-16.5023
16:44:09:284,-2.6584,4.2544,4.8263,43.5953,0.1024,0.0637,-0.1592,-16.3038
16:44:09:303,-2.8594,4.1779,5.482,43.2699,-0.1846,0.1492,-0.2276,-16.1053
16:44:09:325,-3.0437,4.1563,5.6423,43.1369,-0.3764,0.2714,-0.3022,-15.9054
16:44:09:345,-3.7878,4.1803,5.671,44.4588,-0.5011,0.4974,-0.3791,-15.7022
16:44:09:364,-5.1948,4.587,7.1402,43.6961,-0.7222,0.7784,-0.4622,-15.4942
16:44:09:383,-6.7358,4.666,9.3488,45.987,-0.9763,0.9189,-0.4598,-15.2844
16:44:09:406,-8.2457,4.7067,10.8515,46.2981,-1.0533,0.9018,-0.3474,-15.0779
16:44:09:429,-8.071,4.343,10.2772,46.8663,-0.9042,0.815,-0.0725,-14.8842
16:44:09:446,-6.5276,3.5198,9.0401,47.3992,-0.7992,0.7038,0.2635,-14.7153
16:44:09:467,-5.5992,2.9384,8.5304,47.7912,-0.8969,0.5804,0.4529,-14.5788
16:44:09:485,-5.659,2.68,9.6526,46.9341,-1.0667,0.5792,0.4858,-14.478
16:44:09:504,-6.5204,2.68,10.6887,46.9846,-1.0997,0.655,0.4541,-14.478
16:44:09:523,-7.0804,2.723,10.7175,46.8652,-0.9763,0.677,0.4321,-14.478
16:44:09:543,-6.8866,3.0915,9.6814,48.5199,-0.7992,0.6086,0.4577,-14.478
16:44:09:564,-5.4556,3.137,8.2552,47.6895,-0.6367,0.5621,0.5579,-14.478
16:44:09:586,-3.5964,3.9625,5.4437,48.2046,-0.4937,0.4754,0.5921,-14.478
16:44:09:607,-3.5462,4.2425,4.4913,47.7735,-0.4949,0.5719,0.5848,-14.5725
16:44:09:627,-3.6012,4.4124,4.2401,49.0021,-0.589,0.7344,0.6434,-14.6934
16:44:09:647,-3.3643,4.3119,4.922,48.2351,-0.8077,0.8285,0.7571,-14.8475
16:44:09:663,-2.9647,3.9865,5.9653,48.4901,-1.0301,0.8175,0.8744,-15.0413
16:44:09:684,-2.4837,3.6156,6.6927,49.1166,-1.1388,0.793,0.9745,-15.2801
16:44:09:707,-1.7922,3.2518,7.3795,48.1589,-1.184,0.7686,1.0417,-15.5651
16:44:09:725,-1.2443,2.9216,8.2648,48.6695,-1.2121,0.7197,1.043,-15.8962
16:44:09:746,-0.792,2.7661,9.2052,49.6606,-1.2072,0.6562,0.966,-16.2697
16:44:09:765,-0.4475,2.7302,10.3872,50.5464,-1.1339,0.622,0.8316,-16.6806
16:44:09:785,-0.6485,3.0508,11.476,49.7428,-0.9421,0.6024,0.6288,-17.118
16:44:09:808,-1.3902,3.6826,11.6028,50.7753,-0.6159,0.5303,0.4187,-17.569
16:44:09:828,-1.7444,4.1109,10.325,51.1217,-0.2641,0.3813,0.2928,-18.0236
16:44:09:844,-1.6487,4.3358,9.4325,52.3335,-0.0441,0.2714,0.2464,-18.4763
16:44:09:864,-1.8831,4.2903,9.5498,51.2196,0.0072,0.264,0.211,-18.9259
16:44:09:885,-2.6273,4.2473,10.0738,52.3454,-0.0576,0.1981,0.156,-19.3716
16:44:09:905,-3.7974,4.1133,11.2606,51.2441,-0.192,0.1663,0.0973,-19.8131
16:44:09:923,-4.9484,4.0606,13.0863,54.1844,-0.3447,0.1284,0.0729,-20.2519
16:44:09:943,-4.7976,4.0104,14.2708,53.6843,-0.3923,-0.0976,0.1303,-20.6916
16:44:09:965,-3.4265,3.9123,12.7896,52.6242,-0.2005,-0.4592,0.2122,-21.1314
16:44:09:986,-1.9286,3.7926,10.5476,53.1581,0.0731,-0.6266,0.2305,-21.5681
16:44:10:006,-1.2921,3.5605,9.9757,53.7627,0.1391,-0.5154,0.1474,-21.9985
16:44:10:025,-1.7611,3.0341,11.5669,54.6537,0.0084,-0.381,-0.0151,-22.4199
16:44:10:044,-3.2064,2.0483,14.9384,54.0797,0.0438,-0.3627,-0.3522,-23.2151
16:44:10:064,-3.6419,1.6726,14.8283,54.211,0.403,-0.3871,-0.4646,-23.575
16:44:10:085,-3.6538,1.541,13.7037,53.448,0.8159,-0.3994,-0.5257,-23.9018
16:44:10:108,-3.8189,1.4022,12.6389,53.9975,1.0762,-0.4458,-0.5795,-24.1909
16:44:10:125,-4.3047,1.4046,11.5143,55.2448,1.1935,-0.5887,-0.6381,-24.4389
16:44:10:148,-4.5535,1.3998,10.1288,55.5357,1.2655,-0.7598,-0.6601,-24.6458
16:44:10:164,-4.4291,1.3783,8.9468,54.1666,1.3107,-0.8966,-0.6284,-24.8126
16:44:10:183,-3.9482,1.395,7.4441,56.1166,1.3694,-0.9956,-0.577,-24.9414
16:44:10:205,-3.46,1.4261,5.7141,55.219,1.4109,-1.086,-0.5404,-25.0341
16:44:10:223,-2.9623,1.5984,4.4243,56.4005,1.3669,-1.1312,-0.5257,-25.0341
16:44:10:244,-2.5603,1.876,3.6897,55.7779,1.268,-1.0786,-0.5257,-25.0341
16:44:10:264,-2.6106,2.2827,3.1178,54.4698,1.1531,-0.9455,-0.5416,-25.0341
16:44:10:289,-2.7182,2.9384,2.802,56.1503,0.9992,-0.7647,-0.5392,-25.0341
16:44:10:303,-2.9001,3.4409,3.6778,55.5197,0.7304,-0.5777,-0.5074,-25.0341
16:44:10:324,-3.1944,3.8835,4.8622,56.9182,0.458,-0.4592,-0.4646,-25.0341
16:44:10:344,-3.4983,4.197,5.7787,56.7835,0.2759,-0.37,-0.3987,-24.9412
16:44:10:364,-3.5677,4.4291,6.7214,56.6125,0.1415,-0.3456,-0.3229,-24.839
16:44:10:397,-3.5629,4.5464,7.5853,56.4605,0.089,-0.3236,-0.2447,-24.6202
16:44:10:410,-3.4074,4.6181,7.7288,56.0727,0.1623,-0.2699,-0.1617,-24.5086
16:44:10:425,-2.9599,4.532,7.4345,56.8614,0.2747,-0.2137,-0.0859,-24.3962
16:44:10:444,-3.393,4.6469,6.329,57.6999,0.3944,0.0588,-0.0578,-24.2813
16:44:10:462,-3.874,4.5368,6.1567,57.8713,0.2503,0.1321,-0.0493,-24.1657
16:44:10:482,-3.929,4.3573,5.9773,57.0665,0.0145,0.1907,-0.0248,-24.0502
16:44:10:501,-3.9553,4.1492,6.4247,57.66,-0.2543,0.352,0.0008,-23.9406
16:44:10:521,-4.5583,4.331,8.004,56.8907,-0.5621,0.5352,-0.0297,-23.8393
16:44:10:541,-5.3815,4.3358,9.6909,56.4605,-0.8432,0.5621,-0.0725,-23.7477
16:44:10:561,-6.9751,4.5583,11.5932,58.0445,-0.9568,0.5646,-0.1079,-23.7477
16:44:10:581,-8.4036,4.9627,12.3685,59.2509,-0.7955,0.5963,-0.0395,-23.7477
16:44:10:601,-8.2289,4.7139,11.2534,58.4006,-0.451,0.5927,0.2281,-23.7477
16:44:10:622,-6.6784,3.9194,9.2937,58.5916,-0.2384,0.4326,0.5543,-23.7477
16:44:10:644,-5.7212,3.4481,8.418,57.2691,-0.2628,0.2701,0.7339,-23.7477
16:44:10:664,-5.9031,3.204,8.6381,57.8089,-0.3508,0.308,0.7729,-23.7477
16:44:10:682,-6.1543,2.9719,8.5113,57.6683,-0.3618,0.4228,0.8023,-23.7477
16:44:10:703,-5.5585,2.7924,7.9609,57.5142,-0.3728,0.429,0.856,-23.7477
16:44:10:723,-4.5655,2.7159,7.0397,60.1534,-0.396,0.3544,0.8902,-23.8663
16:44:10:745,-3.673,2.7852,6.0491,58.1045,-0.4119,0.3202,0.878,-24.0167
16:44:10:765,-2.9743,2.9097,5.0465,58.109,-0.4241,0.3923,0.8499,-24.1978
16:44:10:781,-2.1655,2.9169,4.5751,56.9393,-0.4742,0.5646,0.8365,-24.4087
16:44:10:802,-1.6343,2.9264,4.9388,57.0377,-0.5988,0.7148,0.7937,-24.6497
16:44:10:822,-1.5482,2.948,5.872,58.4158,-0.7417,0.7662,0.7192,-24.9193
16:44:10:842,-1.8664,3.0365,6.6114,59.2599,-0.7967,0.7625,0.652,-25.2152
16:44:10:863,-1.663,3.1059,6.6281,58.0729,-0.7601,0.7368,0.6312,-25.5353
16:44:10:884,-1.5075,3.1059,6.7095,59.4054,-0.7136,0.7503,0.6276,-25.8783
16:44:10:907,-1.6104,3.1442,6.7956,58.5319,-0.6965,0.7784,0.6056,-26.2429
16:44:10:928,-1.5649,3.2112,7.1761,60.1224,-0.732,0.7881,0.5872,-26.6285
16:44:10:948,-1.4237,3.1968,8.7171,59.7056,-0.9116,0.6733,0.4748,-27.459
16:44:10:966,-1.3926,3.2925,9.88,57.863,-0.9372,0.578,0.3698,-27.8992
16:44:10:982,-1.1079,3.3763,10.4782,60.0212,-0.8077,0.468,0.2635,-28.3502
16:44:11:003,-1.1868,3.7304,10.1575,59.2369,-0.5328,0.396,0.1315,-28.8032
16:44:11:025,-1.6032,4.1803,9.4684,59.643,-0.2433,0.4314,-0.0028,-29.2493
16:44:11:043,-2.2971,4.544,9.32,59.2621,-0.1174,0.4754,-0.0957,-29.6834
16:44:11:062,-3.1202,4.7091,9.789,59.2621,-0.1773,0.4864,-0.1336,-30.1053
16:44:11:083,-4.1898,4.946,11.1984,59.1246,-0.3398,0.5243,-0.1409,-30.5175
16:44:11:103,-4.587,4.9484,13.5912,57.5726,-0.534,0.4485,-0.0945,-30.9253
16:44:11:122,-4.0678,4.8574,14.6871,59.7027,-0.5573,0.1235,-0.0138,-31.3325
16:44:11:253,-3.3093,4.6804,13.3424,58.5841,-0.3129,-0.2063,0.035,-31.737
16:44:11:255,-2.3569,4.4411,12.323,59.8768,-0.0209,-0.21,0.0729,-32.1361
16:44:11:256,-1.6798,3.7591,12.615,60.3916,0.0719,-0.1293,0.0595,-32.5279
16:44:11:258,-1.7827,2.8666,14.0387,59.2559,0.0328,-0.1684,-0.0505,-32.9107
16:44:11:259,-2.5603,2.0698,15.6538,59.3763,0.1061,-0.21,-0.2337,-33.2789
16:44:11:261,-3.1226,1.3735,16.1133,60.1427,0.4225,-0.2479,-0.3913,-33.624
16:44:11:262,-3.3499,0.9212,14.9551,60.1427,0.8734,-0.3212,-0.4989,-33.9366
16:44:11:282,-3.5007,0.5599,13.7133,60.9373,1.1983,-0.4177,-0.599,-34.2096
16:44:11:301,-3.8309,0.2728,12.7155,60.0511,1.2973,-0.6351,-0.7224,-34.4379
16:44:11:322,-3.862,0.0718,11.4138,59.4538,1.3254,-0.9381,-0.8238,-34.6186
16:44:11:346,-3.5821,-0.1388,9.9518,59.6706,1.3792,-1.1739,-0.8971,-34.7502
16:44:11:363,-3.0006,-0.2441,8.3844,59.2496,1.4549,-1.3572,-0.9668,-34.7502
16:44:11:385,-2.7182,-0.2393,6.9751,59.4746,1.5319,-1.4476,-1.0718,-34.7502
16:44:11:405,-2.8642,0.3541,4.6134,58.5172,1.6369,-1.4952,-1.326,-34.7502
16:44:11:430,-3.4169,0.9595,3.3978,58.3483,1.6919,-1.3694,-1.4029,-34.5006
16:44:11:444,-3.7113,1.73,2.7135,59.6632,1.6528,-1.1312,-1.3968,-34.2809
16:44:11:464,-4.142,2.534,2.7111,57.4514,1.4598,-0.9235,-1.3431,-34.0022
16:44:11:482,-4.611,3.2853,2.9791,58.636,1.1788,-0.8111,-1.2588,-33.6714
16:44:11:504,-5.0871,3.9458,3.405,58.7579,0.8856,-0.7341,-1.1342,-33.2968
16:44:11:523,-5.4221,4.4411,3.6706,60.3539,0.6229,-0.6229,-0.9692,-32.8881
16:44:11:545,-5.5442,4.8718,4.5894,57.6146,0.3517,-0.5081,-0.7798,-32.4565
16:44:11:563,-5.3767,4.9699,5.6136,59.1099,0.1147,-0.4385,-0.5954,-32.0126
16:44:11:581,-4.7904,4.8814,5.7667,58.3357,0.0414,-0.3639,-0.428,-31.5641
16:44:11:602,-4.5081,4.9173,5.7045,59.8688,0.0731,-0.1587,-0.3351,-31.1141
16:44:11:621,-4.8431,4.8981,5.9055,59.9488,0.0634,0.0893,-0.307,-30.6642
16:44:11:643,-5.5155,4.8431,6.0658,60.1012,-0.0637,0.2384,-0.3119,-30.2146
16:44:11:663,-5.884,4.6708,5.9414,60.2205,-0.2604,0.3043,-0.2899,-29.7685
16:44:11:683,-6.2381,4.7737,6.3218,58.9489,-0.4888,0.4778,-0.2521,-29.3307
16:44:11:706,-6.5611,4.8431,7.8485,60.6706,-0.7711,0.6611,-0.1922,-28.9068
16:44:11:724,-7.3101,4.5009,9.655,58.6232,-1.0178,0.6831,-0.1213,-28.5032
16:44:11:746,-8.2002,4.3717,11.0405,58.4881,-1.0508,0.6929,-0.0273,-28.1239
16:44:11:763,-8.1595,3.9912,11.2319,58.571,-0.8737,0.7515,0.1682,-27.7724
16:44:11:785,-7.2933,3.1514,10.6481,58.7132,-0.7136,0.7112,0.4247,-27.4557
16:44:11:804,-6.3051,2.3785,9.9589,59.2624,-0.7308,0.4668,0.5958,-27.179
16:44:11:822,-5.817,2.0913,10.3561,59.9329,-0.8432,0.2384,0.6471,-26.945
16:44:11:844,-6.1543,1.9645,11.0118,59.0105,-0.837,0.2115,0.6251,-26.7512
16:44:11:866,-5.6877,2.0411,9.2363,58.7132,-0.4253,0.2017,0.6361,-26.5932
16:44:11:884,-4.5918,2.199,7.4082,58.9031,-0.3239,0.0307,0.6618,-26.3683
16:44:11:905,-3.2686,2.4814,5.817,58.9031,-0.2811,-0.0096,0.674,-26.3683
16:44:11:923,-2.5914,2.7589,4.922,58.5032,-0.2824,0.1345,0.6471,-26.3683
16:44:11:946,-2.4622,3.0652,4.8814,59.1583,-0.3667,0.308,0.5946,-26.3683
16:44:11:963,-2.5436,3.3093,5.4054,59.6305,-0.4839,0.3899,0.5677,-26.3683
16:44:11:983,-2.6058,3.5127,5.7715,57.097,-0.5365,0.3947,0.586,-26.3683
16:44:12:006,-2.4407,3.5557,5.7476,59.278,-0.5035,0.4131,0.6422,-26.3683
16:44:12:025,-2.3833,3.4744,5.4891,58.355,-0.4729,0.4497,0.6923,-26.4596
16:44:12:045,-2.3641,3.4839,5.3623,59.0462,-0.5096,0.4595,0.7412,-26.5792
16:44:12:064,-2.0219,3.2495,5.3982,58.2407,-0.6379,0.4583,0.7913,-26.7307
16:44:12:081,-1.797,3.1537,6.061,58.7013,-0.8407,0.4412,0.7974,-26.9168
16:44:12:102,-1.9334,3.1992,7.4824,60.5527,-1.046,0.4338,0.7229,-27.1371
16:44:12:123,-2.0913,3.2423,9.3823,58.1151,-1.1437,0.4302,0.6105,-27.3891
16:44:12:144,-2.4694,3.6012,10.6768,58.0968,-1.0655,0.3508,0.4663,-27.6662
16:44:12:163,-2.7924,4.0463,10.9735,59.3677,-0.7845,0.2506,0.3344,-27.9587
16:44:12:181,-2.8307,4.4219,10.0953,58.9002,-0.3838,0.2262,0.2635,-28.2572
16:44:12:205,-3.0604,4.7186,8.9252,58.3695,-0.0698,0.275,0.2159,-28.5554
16:44:12:224,-3.7376,4.9651,8.9228,60.293,0.0035,0.3593,0.1853,-28.8509
16:44:12:244,-4.788,4.8933,9.6383,58.5913,-0.104,0.4314,0.2036,-29.1468
16:44:12:263,-5.5753,4.6756,10.873,58.2811,-0.3239,0.4216,0.2782,-29.4475
16:44:12:283,-5.0728,4.3573,12.9404,57.5289,-0.5744,0.2494,0.4089,-29.7619
16:44:12:306,-2.9695,3.8429,13.3639,57.798,-0.6208,-0.1416,0.5408,-30.0963
16:44:12:328,-0.548,3.5557,10.3561,57.2723,-0.1358,-0.3358,0.3857,-30.8018
16:44:12:342,-0.5432,3.0173,11.5071,57.3541,-0.1504,-0.1245,0.2036,-31.1598
16:44:12:363,-0.9547,2.211,13.4644,57.4358,-0.2604,-0.0683,-0.0175,-31.5152
16:44:12:384,-1.9525,1.4548,15.7304,56.3041,-0.2445,-0.0707,-0.2948,-31.86
16:44:12:402,-2.8187,1.1797,16.8885,56.2941,0.0499,-0.1025,-0.5575,-32.1824
16:44:12:423,-3.7352,1.4022,15.8931,55.9038,0.5911,-0.2063,-0.7505,-32.468
16:44:12:444,-3.9745,1.5506,13.8616,56.7812,1.0847,-0.3053,-0.8287,-32.708
16:44:12:461,-4.3214,1.5218,12.4977,57.3014,1.2802,-0.4617,-0.8458,-32.8998
16:44:12:480,-4.4985,1.4692,11.3013,56.5947,1.2692,-0.7524,-0.8568,-33.0435
16:44:12:502,-4.532,1.4548,10.1647,55.8973,1.2313,-1.0652,-0.8385,-33.1412
16:44:12:520,-4.0606,1.3041,8.8247,54.9936,1.2863,-1.2546,-0.7933,-33.1412
16:44:12:551,-3.6251,1.2802,7.3077,56.0944,1.406,-1.3327,-0.7518,-33.1412
16:44:12:559,-3.3332,1.3472,5.5849,56.663,1.505,-1.3572,-0.7285,-33.1412
16:44:12:579,-2.9551,1.6152,4.1587,55.5834,1.5135,-1.3108,-0.6943,-33.1412
16:44:12:599,-2.5316,1.998,3.4887,57.5723,1.3816,-1.1947,-0.6406,-33.0308
16:44:12:621,-2.3474,2.4167,3.5821,57.0313,1.1458,-1.0628,-0.5966,-32.8893
16:44:12:642,-2.5986,2.8163,4.5033,56.8654,0.8709,-0.9333,-0.5734,-32.7215
16:44:12:662,-2.9312,3.1514,5.6064,56.8654,0.6473,-0.849,-0.5404,-32.5317
16:44:12:683,-3.0269,3.3667,6.4367,55.6651,0.5362,-0.8111,-0.4793,-32.324
16:44:12:705,-3.2877,3.6012,6.7597,55.1176,0.5154,-0.7524,-0.4133,-32.1013
16:44:12:723,-3.6108,3.9529,7.0923,56.7338,0.5215,-0.6449,-0.3535,-31.8658
16:44:12:743,-3.3356,3.9984,7.1139,55.8369,0.5227,-0.5777,-0.2594,-31.6212
16:44:12:763,-2.6752,3.9721,6.6784,55.3816,0.5325,-0.4641,-0.1653,-31.1165
16:44:12:786,-2.7661,4.008,6.2812,55.2144,0.5386,-0.3102,-0.1934,-30.8569
16:44:12:808,-3.1657,3.9386,6.0203,55.3564,0.4763,-0.1684,-0.2472,-30.5899
16:44:12:828,-3.6538,4.0175,5.5585,55.059,0.3224,-0.0756,-0.3058,-30.3139
16:44:12:842,-3.9482,4.1611,5.2307,53.2997,0.0817,0.049,-0.3412,-30.0292
16:44:12:860,-4.5727,4.6947,6.4056,54.942,-0.2641,0.2274,-0.3632,-29.7385
16:44:12:882,-5.3504,4.678,8.4778,55.35,-0.6061,0.3935,-0.3498,-29.4461
16:44:12:905,-6.6784,4.6469,10.6194,53.4356,-0.7735,0.4363,-0.3327,-29.1531
16:44:12:924,-8.5974,4.8766,11.4257,54.8043,-0.6611,0.4216,-0.307,-28.8587
16:44:12:945,-8.985,4.7737,10.1623,54.4784,-0.3141,0.468,-0.0835,-28.5671
16:44:12:963,-7.7408,3.9242,8.485,54.2738,-0.0881,0.5279,0.2855,-28.2896
16:44:12:983,-6.4271,3.0867,7.8197,53.808,-0.1871,0.4778,0.5518,-28.0376
16:44:13:005,-6.0897,2.5651,8.0566,53.625,-0.4388,0.4338,0.6288,-27.8161
16:44:13:022,-6.3218,2.1535,9.052,55.1607,-0.6599,0.5023,0.6276,-27.6279
16:44:13:040,-6.0945,2.065,9.7914,54.6662,-0.7784,0.4998,0.6141,-27.4731
16:44:13:061,-5.3001,2.3857,9.0305,55.1354,-0.7002,0.3947,0.6007,-27.3504
16:44:13:083,-4.5057,2.6871,7.2766,53.4059,-0.44,0.44,0.5897,-27.255
16:44:13:104,-3.7256,2.9384,5.4054,54.7666,-0.1944,0.6281,0.5958,-27.255
16:44:13:121,-3.0772,3.0676,4.0965,56.0824,-0.115,0.859,0.619,-27.255
16:44:13:140,-2.4239,3.1848,3.6514,53.8726,-0.2641,1.0239,0.652,-27.255
16:44:13:162,-2.1488,3.3045,4.3645,54.6447,-0.5793,1.0569,0.6544,-27.255
16:44:13:314,-2.3306,3.4624,4.9627,54.5911,-0.859,0.9738,0.6483,-27.255
16:44:13:316,-2.4742,3.6036,5.5777,53.3891,-1.0374,0.892,0.6923,-27.255
16:44:13:319,-1.7946,3.4911,6.7741,54.8163,-1.1706,0.8456,0.9171,-27.5221
16:44:13:321,-1.5362,3.5007,7.0469,54.3777,-1.1669,0.8456,0.9721,-27.7196
16:44:13:324,-1.584,3.5294,7.5829,53.1713,-1.2231,0.8407,0.9574,-27.96
16:44:13:326,-1.7109,3.5438,8.7266,53.6796,-1.3416,0.7808,0.9232,-28.2436
16:44:13:328,-1.7946,3.618,9.9182,54.6041,-1.4393,0.6452,0.8804,-28.5688
16:44:13:329,-1.4764,3.6514,11.1171,54.387,-1.4344,0.4864,0.8426,-28.9341
16:44:13:341,-0.6772,3.618,11.921,55.4974,-1.2842,0.3263,0.7791,-29.3348
16:44:13:361,-0.2465,3.8429,12.0526,55.4019,-0.9959,0.2359,0.6447,-29.7615
16:44:13:383,-0.3278,3.9817,12.1172,51.6186,-0.6635,0.2665,0.47,-30.2027
16:44:13:405,-0.6987,3.8835,12.2297,54.3285,-0.4216,0.3337,0.305,-30.6495
16:44:13:423,-1.876,3.8501,12.9212,52.3623,-0.3251,0.3972,0.1279,-31.0931
16:44:13:442,-3.1537,3.8381,14.5795,53.1086,-0.3654,0.352,-0.0211,-31.5305
16:44:13:461,-3.3715,3.9027,15.527,53.7281,-0.3483,0.0148,-0.0957,-31.9585
16:44:13:483,-2.1679,3.7783,13.687,54.8682,-0.0735,-0.4702,-0.0969,-32.3731
16:44:13:505,-0.5815,3.4768,11.6148,53.6555,0.3065,-0.6107,-0.092,-32.7708
16:44:13:523,-0.0502,3.1011,11.1984,52.8429,0.4922,-0.4311,-0.1995,-33.1467
16:44:13:548,-1.2299,2.6584,12.7801,54.0611,0.4409,-0.3065,-0.4256,-33.4946
16:44:13:564,-3.0102,2.2277,14.6369,54.1119,0.3822,-0.2784,-0.6552,-33.8091
16:44:13:582,-4.4243,1.7779,15.9386,54.4966,0.5056,-0.2674,-0.7737,-34.0858
16:44:13:605,-4.6588,1.2227,15.3691,52.1618,0.8257,-0.3468,-0.7725,-34.3212
16:44:13:629,-4.7306,1.0385,13.9669,53.9539,1.1568,-0.436,-0.7481,-34.5136
16:44:13:642,-4.8694,0.9404,13.4596,54.0225,1.2729,-0.5399,-0.764,-34.6612
16:44:13:663,-5.0943,0.8734,12.8877,52.9417,1.2985,-0.7769,-0.7847,-34.7643
16:44:13:686,-4.7162,0.8327,9.6574,53.4584,1.582,-1.2839,-0.7737,-34.7643
16:44:13:708,-4.008,0.7705,7.334,52.4433,1.7677,-1.4745,-0.7432,-34.7643
16:44:13:726,-3.4792,0.8973,4.8574,52.3196,1.8996,-1.5405,-0.7334,-34.7643
16:44:13:745,-3.0173,1.1797,3.015,52.9404,1.8801,-1.4293,-0.7151,-34.6378
16:44:13:762,-2.5819,1.5721,2.254,51.4879,1.6675,-1.2436,-0.6662,-34.4729
16:44:13:782,-2.1583,1.9143,2.6345,54.0394,1.3156,-1.0847,-0.6088,-34.2763
16:44:13:806,-2.0028,2.1846,3.3954,52.9883,0.9882,-0.9345,-0.5722,-34.0536
16:44:13:826,-2.1703,2.412,4.2018,50.8516,0.7732,-0.7353,-0.5514,-33.8084
16:44:13:841,-2.4335,2.735,4.6301,51.8136,0.6363,-0.5789,-0.5245,-33.5438
16:44:13:862,-2.5101,3.0772,5.0225,53.2502,0.5313,-0.436,-0.4817,-33.2623
16:44:13:882,-2.6824,3.4409,5.4078,53.2502,0.4311,-0.3285,-0.4316,-32.9672
16:44:13:900,-2.6608,3.8333,5.8409,51.9657,0.3199,-0.3053,-0.3767,-32.6622
16:44:13:923,-2.3857,4.1085,6.0945,53.5772,0.2637,-0.287,-0.3205,-32.3504
16:44:13:943,-2.0961,4.3071,5.939,51.0349,0.2747,-0.2124,-0.2863,-32.0339
16:44:13:962,-2.2708,4.5392,5.4389,51.7022,0.2796,-0.0719,-0.2924,-31.7121
16:44:13:981,-3.0796,4.7665,5.2546,55.1547,0.1684,0.0954,-0.3156,-31.3833
16:44:14:001,-3.6275,4.8885,5.3312,51.8135,-0.0942,0.2115,-0.2875,-31.0512
16:44:14:021,-3.6562,4.6708,5.9438,52.6117,-0.4681,0.3092,-0.2056,-30.7235
16:44:14:042,-3.7783,4.6804,8.0255,52.6495,-0.8908,0.4607,-0.1641,-30.4072
16:44:14:063,-4.319,4.5009,10.4016,52.1527,-1.228,0.4986,-0.1873,-30.1055
16:44:14:083,-5.3839,4.4722,12.3254,52.8557,-1.3233,0.418,-0.246,-29.8171
16:44:14:105,-6.8148,4.9005,12.7155,52.6679,-1.096,0.3813,-0.2777,-29.5364
16:44:14:129,-6.9823,4.9316,11.4066,51.4294,-0.666,0.4705,-0.1397,-29.0039
16:44:14:140,-4.4171,3.9793,9.3488,51.2374,-0.4168,0.308,0.2635,-28.765
16:44:14:161,-4.1874,3.7735,9.4038,52.3652,-0.4852,0.137,0.2623,-28.546
16:44:14:181,-4.8574,3.5797,9.8058,52.3652,-0.4229,0.2005,0.2097,-28.3438
16:44:14:202,-6.1974,3.5964,9.9781,53.5913,-0.2604,0.3923,0.1633,-28.1532
16:44:14:225,-6.798,3.7232,9.789,52.1344,-0.159,0.4241,0.1902,-27.9731
16:44:14:244,-5.6351,3.673,8.284,51.6416,-0.1236,0.2237,0.3172,-27.8076
16:44:14:268,-4.1539,3.5294,6.8889,52.8996,-0.1309,0.0331,0.4345,-27.6612
16:44:14:283,-2.8881,3.4624,5.9366,51.9465,-0.137,0.0062,0.4761,-27.5351
16:44:14:303,-2.2564,3.3835,5.3025,52.6178,-0.1284,0.1003,0.4492,-27.4283
16:44:14:321,-2.3091,3.527,4.9101,51.7959,-0.115,0.2262,0.382,-27.3374
16:44:14:345,-2.3761,3.6658,4.6134,53.048,-0.1211,0.3434,0.349,-27.3374
16:44:14:363,-2.5029,3.7974,4.453,53.2604,-0.1736,0.4253,0.3722,-27.3374
16:44:14:381,-2.3689,3.7376,4.7641,54.961,-0.3154,0.457,0.4297,-27.3374
16:44:14:401,-2.3593,3.6682,5.2259,52.0569,-0.4754,0.4583,0.4785,-27.3374
16:44:14:420,-2.3474,3.5366,5.7739,51.582,-0.6171,0.479,0.5139,-27.3374
16:44:14:441,-2.3521,3.4193,6.5133,52.4653,-0.7466,0.4949,0.542,-27.3374
16:44:14:463,-1.9621,3.2016,7.4369,53.4837,-0.8798,0.4534,0.5665,-27.3374
16:44:14:499,-1.3639,3.0844,8.406,52.9371,-0.9641,0.3813,0.5433,-27.3374
16:44:14:504,-1.0983,3.1681,9.4804,54.5185,-0.9433,0.3361,0.4321,-27.4534
16:44:14:518,-1.4429,3.4983,10.1001,55.0647,-0.7918,0.3007,0.261,-27.5862
16:44:14:539,-1.8377,3.929,9.7675,52.8757,-0.5267,0.2775,0.1132,-27.7268
16:44:14:559,-2.3186,4.331,9.21,52.4473,-0.2824,0.2885,0.0277,-27.868
16:44:14:579,-3.472,4.7426,9.6407,52.9171,-0.2921,0.3068,0.0069,-28.0071
16:44:14:598,-4.2233,4.7785,10.8586,54.0759,-0.4803,0.3141,0.0375,-28.1458
16:44:14:621,-4.678,4.7091,12.7131,52.6463,-0.6623,0.2701,0.1071,-28.4362
16:44:14:642,-3.9888,4.4554,13.6487,53.9967,-0.6831,0.0905,0.2293,-28.5981
16:44:14:663,-2.6393,4.0032,12.7298,52.9171,-0.5145,-0.1404,0.3233,-28.7734
16:44:14:681,-1.7803,3.6395,12.3087,53.6493,-0.3483,-0.1636,0.3124,-28.9597
16:44:14:700,-1.2993,2.9432,13.0935,51.9974,-0.2873,-0.0976,0.2171,-29.1537
16:44:14:722,-1.2371,1.8975,14.3976,54.4689,-0.2396,-0.1196,0.035,-29.3494
16:44:14:743,-1.6271,1.1007,15.6634,54.8115,-0.0637,-0.1856,-0.246,-29.5366
16:44:14:763,-2.3378,0.7442,15.5533,52.7759,0.3578,-0.2637,-0.5502,-29.7001
16:44:14:782,-3.0532,1.1103,13.7611,53.0584,0.9137,-0.3102,-0.7908,-29.8248
16:44:14:801,-4.0726,1.4716,12.3996,53.8735,1.2509,-0.3102,-0.9338,-29.8248
16:44:14:823,-4.8503,1.7468,11.8828,54.7184,1.2961,-0.4018,-0.9802,-29.8248
16:44:14:845,-5.1805,1.8521,11.2367,54.673,1.2435,-0.6266,-0.9448,-29.8248
16:44:14:860,-4.867,1.7539,10.1192,54.4756,1.2301,-0.8758,-0.8629,-29.8248
16:44:14:879,-4.2209,1.718,8.5448,53.4256,1.3071,-1.0774,-0.7737,-29.722
16:44:14:901,-3.594,1.8377,6.6377,52.7831,1.4048,-1.1935,-0.7151,-29.5814
16:44:14:922,-3.4481,2.0411,4.922,53.2251,1.4549,-1.2265,-0.6882,-29.4039
16:44:14:943,-3.3619,2.3354,3.5988,54.1016,1.4109,-1.2008,-0.6577,-29.1909
16:44:14:964,-2.9886,2.7398,2.7517,55.7615,1.2631,-1.1348,-0.5783,-28.9479
16:44:14:983,-2.4909,3.1394,2.5292,55.7648,1.0334,-0.9846,-0.4903,-28.6815
16:44:15:002,-2.2229,3.5031,3.1011,54.8839,0.7707,-0.7708,-0.4146,-28.3983
16:44:15:022,-2.3593,3.8477,4.4363,52.3526,0.5142,-0.5741,-0.3693,-28.1033
16:44:15:044,-2.5268,4.2688,5.7691,53.5026,0.2918,-0.3994,-0.2814,-27.8002
16:44:15:060,-2.7541,4.4722,6.2405,54.0597,0.254,-0.2931,-0.2411,-27.492
16:44:15:081,-2.7852,4.5535,6.7741,54.314,0.2185,-0.2039,-0.18,-26.8673
16:44:15:098,-2.6728,4.5296,6.9081,54.0439,0.1978,-0.1404,-0.125,-26.5562
16:44:15:123,-2.7685,4.5918,7.2598,55.815,0.1587,-0.0597,-0.1055,-26.2479
16:44:15:143,-3.0126,4.6373,7.5326,54.6115,0.1073,0.0062,-0.1079,-25.942
16:44:15:159,-3.673,4.678,7.6068,55.4957,0.0719,0.0954,-0.1238,-25.6379
16:44:15:180,-4.4818,4.5799,7.3412,53.5026,-0.0038,0.1956,-0.1262,-25.3346
16:44:15:201,-4.5775,4.3454,6.944,55.4908,-0.159,0.2958,-0.0712,-25.0357
16:44:15:358,-4.3095,4.1157,7.5015,54.5918,-0.4241,0.3996,-0.0273,-24.7458
16:44:15:360,-3.8596,3.7759,8.2672,55.9995,-0.699,0.4106,-0.0248,-24.469
16:44:15:362,-4.7378,3.6299,9.0257,57.7004,-0.8163,0.4778,-0.1262,-24.2017
16:44:15:364,-6.4463,3.8261,9.7627,55.7718,-0.7637,0.6696,-0.2398,-23.9376
16:44:15:366,-7.4824,3.9218,9.6718,55.2354,-0.578,0.8785,-0.2007,-23.6756
16:44:15:369,-7.1282,3.4816,9.2411,53.8597,-0.4705,0.9115,-0.0053,-23.4229
16:44:15:371,-6.7071,2.8068,8.8176,56.6655,-0.517,0.7368,0.1768,-23.1862
16:44:15:373,-6.7908,2.3665,9.2626,54.44,-0.6025,0.6305,0.2647,-22.97
16:44:15:390,-6.8148,1.9597,8.7817,54.3713,-0.5487,0.688,0.3551,-22.7769
16:44:15:414,-6.4798,1.6152,7.9825,56.505,-0.4937,0.7869,0.437,-22.6092
16:44:15:425,-5.5346,1.4333,7.9777,55.2082,-0.6367,0.7283,0.4773,-22.4704
16:44:15:442,-4.7426,1.6223,8.0064,55.1085,-0.8248,0.4986,0.4553,-22.3606
16:44:15:460,-4.0726,2.144,6.9512,54.6424,-0.7735,0.4106,0.4052,-22.3606
16:44:15:481,-3.5892,2.4383,5.6303,56.0944,-0.5756,0.5731,0.4003,-22.3606
16:44:15:501,-3.2495,2.9934,4.2114,56.8826,-0.5951,0.8456,0.4247,-22.3606
16:44:15:522,-3.4122,3.1011,4.4794,55.065,-0.8187,0.8737,0.4577,-22.3606
16:44:15:542,-3.6036,3.0652,5.3025,56.6135,-1.0484,0.8761,0.5188,-22.3606
16:44:15:562,-3.4409,2.9145,6.1639,55.9208,-1.2023,0.8651,0.6068,-22.3606
16:44:15:580,-3.4433,2.8283,6.2429,57.0071,-1.2426,0.8761,0.6752,-22.4657
16:44:15:600,-3.6227,2.7206,6.8554,56.7592,-1.3184,0.9225,0.7277,-22.6102
16:44:15:623,-3.6156,2.6536,8.3151,56.0281,-1.4809,0.9152,0.7705,-22.7978
16:44:15:642,-3.3069,2.5196,9.8417,59.3415,-1.5982,0.8211,0.7949,-23.0309
16:44:15:660,-2.7278,2.6417,10.9472,57.1772,-1.5676,0.6709,0.7644,-23.3074
16:44:15:681,-2.4981,2.9695,11.7775,59.5074,-1.3416,0.5853,0.6679,-23.6198
16:44:15:701,-2.9432,3.4241,11.677,57.3254,-0.9519,0.5768,0.5384,-23.9561
16:44:15:722,-2.936,3.8022,10.8395,58.1193,-0.5646,0.5768,0.4639,-24.3064
16:44:15:741,-2.5795,3.9123,10.6505,56.3627,-0.3826,0.5414,0.4394,-24.6667
16:44:15:760,-3.0317,3.9793,11.5143,57.7575,-0.3691,0.4986,0.3783,-25.035
16:44:15:782,-3.7783,3.8357,12.5216,58.359,-0.407,0.4131,0.3099,-25.4103
16:44:15:800,-4.3908,3.6036,13.8497,58.1174,-0.4229,0.3068,0.2757,-25.7917
16:44:15:820,-4.3789,3.3858,15.0915,57.1405,-0.3593,0.1382,0.2757,-26.1784
16:44:15:842,-3.2279,3.1801,14.3522,57.2487,-0.1419,-0.2002,0.2928,-26.5672
16:44:15:861,-1.6726,2.7709,12.4523,58.5087,0.177,-0.4666,0.272,-26.952
16:44:15:886,-0.8375,2.6943,11.8517,57.3545,0.3871,-0.4604,0.1511,-27.6844
16:44:15:900,-2.3163,1.5577,14.0937,59.3264,0.4494,-0.4568,-0.2985,-28.0188
16:44:15:924,-4.1563,1.2395,15.4146,57.5814,0.5863,-0.3908,-0.5172,-28.3222
16:44:15:942,-5.0441,0.7609,16.1635,58.8313,0.8233,-0.3664,-0.6222,-28.5883
16:44:15:963,-4.8407,0.2465,15.9075,58.7185,1.0713,-0.5973,-0.6345,-28.8142
16:44:15:984,-4.1994,-0.1699,14.5316,56.4735,1.3254,-0.9284,-0.676,-28.9961
16:44:15:999,-4.331,-0.3446,13.0624,58.5395,1.5355,-1.1715,-0.7945,-29.128
16:44:16:024,-4.7067,-0.347,11.5645,59.3154,1.6956,-1.356,-0.9191,-29.128
16:44:16:040,-4.7785,-0.2584,9.8919,59.1789,1.8373,-1.5099,-0.9814,-29.128
16:44:16:063,-4.41,-0.2034,8.3246,57.358,1.9619,-1.6089,-0.9937,-29.128
16:44:16:086,-4.0822,-0.1555,6.731,57.0577,2.0267,-1.7164,-1.0169,-29.0312
16:44:16:099,-4.0128,0.1244,5.0369,58.2626,2.0365,-1.8361,-1.0633,-28.8751
16:44:16:122,-3.8812,0.548,3.8118,57.093,1.9973,-1.8251,-1.0853,-28.6611
16:44:16:142,-3.6012,1.0122,2.8666,58.3709,1.9289,-1.6577,-1.0499,-28.3927
16:44:16:164,-3.3667,1.6582,2.1224,57.4776,1.7701,-1.4342,-0.9949,-28.0751
16:44:16:184,-3.5342,2.467,2.5244,56.8749,1.4402,-1.2191,-0.9448,-27.7148
16:44:16:200,-3.8835,3.1011,3.8237,57.1239,1.0175,-1.0798,-0.8654,-27.3203
16:44:16:221,-3.9147,3.4409,5.269,57.8217,0.6595,-1.0237,-0.7469,-26.9007
16:44:16:241,-3.929,3.6586,6.3194,57.5858,0.4714,-1.0066,-0.6528,-26.4622
16:44:16:264,-4.209,3.9697,6.8172,57.8116,0.4751,-0.9418,-0.5905,-26.0074
16:44:16:279,-4.3717,4.2329,6.4415,58.5869,0.6253,-0.7537,-0.5135,-25.5379
16:44:16:302,-4.118,4.4363,5.4461,57.9465,0.7634,-0.4922,-0.3901,-25.0569
16:44:16:321,-3.9218,4.2927,4.8526,58.7914,0.7011,-0.3065,-0.2924,-24.5687
16:44:16:345,-4.4195,4.2592,4.8431,58.5521,0.4286,-0.2161,-0.2753,-24.0762
16:44:16:362,-4.6134,4.0917,4.7378,57.9318,0.1073,-0.1049,-0.2667,-23.5826
16:44:16:381,-4.4794,3.8668,4.867,58.1736,-0.2188,0.0759,-0.2398,-23.0928
16:44:16:405,-5.592,4.0869,7.8006,57.8379,-0.8884,0.385,-0.318,-22.6091
16:44:16:428,-7.3579,4.209,9.4182,59.2179,-1.0264,0.4729,-0.3803,-21.6627
16:44:16:443,-9.3153,4.7522,9.9541,58.5411,-0.8859,0.6232,-0.3657,-21.1954
16:44:16:458,-9.1765,4.5057,8.7817,57.8599,-0.6012,0.7552,-0.0676,-20.7387
16:44:16:479,-7.8317,3.3811,7.6451,59.8966,-0.5487,0.7283,0.3331,-20.3078
16:44:16:501,-7.2503,2.479,7.681,59.8907,-0.7552,0.5878,0.5555,-19.9127
16:44:16:521,-7.6499,1.986,8.3844,58.1109,-0.9348,0.6342,0.6508,-19.5575
16:44:16:542,-7.8556,1.4596,8.7482,61.0929,-0.991,0.8248,0.7473,-19.2452
16:44:16:559,-6.8722,1.0672,8.8869,59.2275,-1.0863,0.8175,0.8475,-18.9805
16:44:16:578,-5.5561,1.0576,8.5376,59.1746,-1.1791,0.6281,0.8768,-18.765
16:44:16:596,-4.7426,1.4429,7.8269,59.9412,-1.1302,0.534,0.8072,-18.5952
16:44:16:617,-3.7328,1.7731,6.3362,59.7541,-0.9189,0.622,0.7571,-18.4646
16:44:16:637,-3.1944,2.1894,5.0177,58.8468,-0.7332,0.8199,0.7033,-18.3685
16:44:16:659,-3.405,2.7135,3.9984,60.7959,-0.7124,0.9787,0.641,-18.3685
16:44:16:680,-3.8548,2.9527,3.9434,60.3616,-0.859,1.1473,0.6569,-18.3685
16:44:16:702,-3.5486,2.8977,4.4626,59.7594,-1.1241,1.2011,0.7815,-18.3685
16:44:16:723,-3.1107,2.5914,5.4485,59.4703,-1.4271,1.1205,0.9195,-18.3685
16:44:16:742,-2.9767,2.3402,6.7286,61.6262,-1.6458,1.0374,1.0124,-18.4756
16:44:16:759,-2.6345,2.1272,7.6881,59.6202,-1.7155,1.0105,1.082,-18.6391
16:44:16:780,-2.2875,1.9334,8.5878,61.5892,-1.7179,0.9922,1.1187,-18.8595
16:44:16:801,-2.1488,1.8568,9.3727,61.4685,-1.6837,0.9836,1.0894,-19.1339
16:44:16:822,-2.1583,1.9119,9.99,62.4027,-1.625,1.0007,1.0014,-19.4576
16:44:16:846,-2.1942,2.1248,11.0357,61.2874,-1.5505,1.0447,0.8744,-20.2265
16:44:16:861,-2.6704,2.723,11.7775,62.4651,-1.1901,0.8578,0.5909,-20.6558
16:44:16:882,-2.6943,3.0556,11.8469,62.8051,-0.98,0.6941,0.4907,-21.104
16:44:16:898,-2.7039,3.1657,12.1938,63.4632,-0.8126,0.6293,0.4089,-21.5655
16:44:16:922,-3.4241,3.0915,13.1342,63.8244,-0.7368,0.6073,0.2818,-22.0351
16:44:16:941,-4.6158,3.0269,14.4455,62.888,-0.7173,0.4949,0.1376,-22.508
16:44:16:959,-5.348,3.2399,15.7185,63.1827,-0.6318,0.286,0.046,-22.9797
16:44:16:978,-4.8766,3.46,15.6802,62.7008,-0.3703,-0.0365,0.0509,-23.4464
16:44:16:998,-3.2423,3.1848,13.3878,65.2647,0.0377,-0.3639,0.1108,-23.9027
16:44:17:018,-1.9047,2.9312,11.7009,63.7484,0.3529,-0.4323,0.0961,-24.3435
16:44:17:038,-1.3615,2.3857,12.0407,64.8031,0.4225,-0.3419,-0.0236,-24.7651
16:44:17:060,-2.0172,1.4405,13.6702,65.8753,0.3798,-0.3566,-0.2423,-25.1631
16:44:17:078,-3.0844,0.7059,15.07,66.2316,0.5178,-0.3456,-0.4756,-25.5294
16:44:17:098,-4.2209,0.2632,15.8764,65.3723,0.855,-0.2637,-0.6552,-25.8539
16:44:17:120,-4.2066,-0.3374,15.9434,65.6784,1.1996,-0.359,-0.7249,-26.131
16:44:17:148,-4.1037,-0.8303,15.3093,67.0429,1.5013,-0.6119,-0.8031,-26.3548
16:44:17:158,-4.9077,-0.9308,14.2038,65.2812,1.797,-0.8722,-0.9521,-26.5169
16:44:17:177,-5.872,-0.7561,12.7155,65.1233,2.0658,-1.0408,-1.0621,-26.6109
16:44:17:197,-6.1639,-0.6054,11.5406,63.9777,2.2185,-1.2423,-1.056,-26.6109
16:44:17:218,-5.8409,-0.5288,9.6957,65.1332,2.304,-1.6077,-1.0047,-26.6109
16:44:17:240,-5.3719,-0.268,7.1115,63.6323,2.3834,-1.9546,-0.9716,-26.5032
16:44:17:398,-5.0345,0.1005,4.7019,64.4746,2.3871,-2.1085,-0.9436,-26.5032
16:44:17:400,-4.8981,0.6843,3.07,64.2636,2.2612,-2.0377,-0.8922,-26.5032
16:44:17:402,-4.5823,1.2778,2.333,66.2073,1.9961,-1.8495,-0.7835,-26.2146
16:44:17:404,-4.3406,2.6752,3.3452,64.196,1.1922,-1.604,-0.5783,-25.5341
16:44:17:406,-4.1611,3.1322,4.1874,63.3928,0.8196,-1.6003,-0.4769,-25.1605
16:44:17:408,-3.8046,3.204,5.013,66.4673,0.5374,-1.582,-0.373,-24.7763
16:44:17:409,-3.6634,3.3523,5.9342,63.0129,0.4176,-1.4561,-0.3266,-24.3849
16:44:17:410,-3.74,3.6993,6.5085,63.3019,0.4702,-1.2387,-0.3083,-23.9867
16:44:17:419,-3.9434,3.9505,6.329,62.7541,0.6327,-1.0078,-0.2936,-23.5807
16:44:17:441,-4.2305,4.2162,5.348,64.0216,0.8013,-0.7891,-0.2521,-23.1668
16:44:17:460,-4.1468,4.3502,4.4004,63.9314,0.8575,-0.5435,-0.1763,-22.7472
16:44:17:480,-4.1874,4.3382,3.8572,64.0594,0.7292,-0.298,-0.0969,-22.3257
16:44:17:502,-4.5583,4.0678,3.5366,63.2176,0.4629,-0.0744,-0.0432,-21.9057
16:44:17:523,-4.7282,3.8668,2.8905,63.8188,0.1073,0.1235,0.0118,-21.4914
16:44:17:539,-4.4004,3.9362,3.8501,64.3877,-0.4009,0.3483,0.0827,-21.0896
16:44:17:560,-4.5488,3.3308,5.927,63.1656,-0.9763,0.5194,0.1132,-20.7059
16:44:17:579,-5.7356,2.9216,7.8126,63.3214,-1.3844,0.6134,0.0558,-20.34
16:44:17:600,-8.2193,3.3404,10.2437,65.2725,-1.5652,0.8272,-0.0114,-19.9894
16:44:17:623,-9.2578,3.4839,12.7872,64.3703,-1.5041,1.0704,0.1584,-19.66
16:44:17:649,-7.8485,2.6776,12.6963,65.5373,-1.2292,0.9653,0.5384,-19.3644
16:44:17:660,-6.5563,1.9669,11.653,62.9565,-0.947,0.6757,0.7754,-19.1089
16:44:17:678,-6.7382,1.9262,10.8491,64.0917,-0.6953,0.6476,0.8047,-18.8907
16:44:17:699,-7.0899,1.8808,9.8345,64.7943,-0.4192,0.903,0.8401,-18.707
16:44:17:722,-6.7214,1.7515,8.6261,64.4626,-0.2824,1.0875,0.9403,-18.5585
16:44:17:742,-5.6279,1.596,7.3292,64.9941,-0.4155,0.9433,1.0295,-18.4502
16:44:17:759,-4.4171,1.6104,6.5109,65.2528,-0.7295,0.6183,1.0515,-18.4502
16:44:17:780,-3.2997,2.3545,5.8744,65.4978,-0.9067,0.633,0.9391,-18.4502
16:44:17:798,-3.6156,2.7206,4.6732,65.7864,-0.7564,0.8798,0.9049,-18.4502
16:44:17:819,-4.0582,2.8738,4.13,64.9819,-0.7625,1.096,0.9684,-18.4502
16:44:17:840,-3.74,2.6465,4.3765,66.2992,-0.9946,1.1669,1.1199,-18.5832
16:44:17:863,-2.9862,2.1823,5.2546,65.5835,-1.2976,1.1327,1.2787,-18.7673
16:44:17:880,-2.747,1.8784,6.1089,65.7538,-1.542,1.096,1.3655,-19.0074
16:44:17:897,-2.3857,1.6008,7.0277,65.839,-1.6898,1.074,1.4193,-19.3062
16:44:17:920,-1.8114,1.4118,8.2265,64.9331,-1.7655,1.0862,1.4571,-19.6645
16:44:17:938,-1.151,1.3185,9.8225,66.9026,-1.7338,1.1449,1.4351,-20.0812
16:44:17:960,-0.6604,1.4261,12.0048,67.1067,-1.6031,1.2341,1.313,-20.5505
16:44:17:980,-0.9523,1.5529,14.1081,66.1063,-1.3343,1.261,1.0906,-21.0609
16:44:18:000,-0.9763,1.9621,14.3617,66.5011,-0.8712,1.1131,0.856,-21.5975
16:44:18:020,-0.7705,2.6345,13.0552,67.925,-0.3044,0.9592,0.6581,-22.1444
16:44:18:042,-0.7059,3.2375,11.7392,67.8912,0.1428,0.936,0.481,-22.6886
16:44:18:058,-0.926,3.6897,10.8969,67.7622,0.3395,0.881,0.3246,-23.2217
16:44:18:079,-1.3974,3.9338,10.4255,66.1544,0.3126,0.7197,0.1841,-23.7396
16:44:18:100,-2.4646,4.1898,10.7342,67.1747,0.1,0.501,0.0692,-24.242
16:44:18:122,-3.6921,4.3406,11.9809,66.5069,-0.1834,0.286,0.0057,-24.732
16:44:18:143,-3.6538,4.2927,13.0481,67.8299,-0.3813,0.0221,0.057,-25.2154
16:44:18:163,-2.3186,3.9123,13.3185,67.3884,-0.4058,-0.2601,0.1596,-25.6969
16:44:18:180,-1.3591,3.6299,13.4764,65.3709,-0.2567,-0.3529,0.1633,-26.1742
16:44:18:202,-1.6176,3.2662,14.0339,67.0363,-0.0796,-0.3603,0.0485,-26.6421
16:44:18:221,-2.534,2.5938,14.7661,64.659,0.0573,-0.4091,-0.1018,-27.0936
16:44:18:245,-4.4459,1.261,16.5511,65.4962,0.4067,-0.3871,-0.3241,-27.9269
16:44:18:262,-4.6828,0.5958,16.1611,66.2019,0.6461,-0.5301,-0.3742,-28.2997
16:44:18:281,-4.7545,0.1436,15.5246,65.6792,0.8355,-0.7561,-0.4414,-28.6373
16:44:18:300,-4.2856,-0.3111,14.6297,63.9376,0.9845,-0.9919,-0.5269,-28.936
16:44:18:322,-4.0415,-0.591,13.7516,64.0234,1.1263,-1.2472,-0.6748,-29.191
16:44:18:343,-4.2162,-0.6867,12.6198,61.7018,1.3437,-1.5014,-0.8715,-29.3941
16:44:18:361,-4.3789,-0.6748,10.6409,62.3214,1.72,-1.6431,-1.0376,-29.5365
16:44:18:378,-4.2568,-0.6054,7.9585,62.0058,2.133,-1.7164,-1.1305,-29.5365
16:44:18:399,-4.2066,-0.3278,5.0919,61.432,2.4262,-1.6993,-1.1855,-29.5365
16:44:18:419,-4.075,0.1125,3.0628,62.6782,2.4751,-1.5881,-1.1891,-29.5365
16:44:18:439,-4.0152,0.7059,2.1966,61.0899,2.2735,-1.4513,-1.1451,-29.5365
16:44:18:458,-3.8429,1.273,1.9813,60.2231,1.935,-1.3486,-1.0633,-29.3408
16:44:18:478,-3.5462,1.8521,2.3091,60.7892,1.5526,-1.2533,-0.9448,-29.097
16:44:18:499,-3.3882,2.4215,2.9575,58.7398,1.1996,-1.1361,-0.8251,-28.8144
16:44:18:522,-3.6514,2.869,3.7208,60.0078,0.9247,-0.9613,-0.7127,-28.5005
16:44:18:543,-3.6897,3.2279,4.5129,58.7745,0.717,-0.7989,-0.5844,-28.1639
16:44:18:561,-3.5246,3.5222,5.0201,60.485,0.5349,-0.7195,-0.4646,-27.812
16:44:18:584,-3.1514,3.874,5.1278,59.5511,0.4067,-0.6987,-0.373,-27.4498
16:44:18:597,-2.8786,4.1157,4.9101,57.6957,0.3578,-0.629,-0.3119,-27.0797
16:44:18:617,-2.6034,4.2353,4.666,59.0687,0.337,-0.4445,-0.2655,-26.7038
16:44:18:636,-2.3737,4.3765,4.4507,58.7869,0.2637,-0.2344,-0.2435,-26.3243
16:44:18:656,-2.6871,4.4985,4.2401,58.7251,0.0951,-0.0793,-0.2802,-25.9406
16:44:18:677,-4.0056,4.5129,4.5224,60.4933,-0.5072,0.3947,-0.3938,-25.5522
16:44:18:697,-5.1039,4.5775,6.731,60.0171,-0.9971,0.6904,-0.4439,-24.7703
16:44:18:718,-6.7813,4.3262,9.6311,59.6324,-1.4516,0.7454,-0.4549,-24.3825
16:44:18:743,-8.1212,3.8883,11.7009,59.1083,-1.6299,0.7209,-0.395,-24.003
16:44:18:761,-8.1906,3.5892,11.4736,57.5506,-1.4442,0.7588,-0.2276,-23.6359
16:44:18:780,-7.0493,3.0796,10.2173,58.7652,-1.1926,0.8065,0.0204,-23.2882
16:44:18:800,-5.7595,2.1942,9.7914,58.9862,-1.1926,0.655,0.2036,-22.9677
16:44:18:822,-4.8455,1.8568,10.0618,59.114,-1.2451,0.3984,0.2232,-22.6761
16:44:18:841,-5.9892,1.9765,9.4899,59.5948,-1.0081,0.4595,0.1181,-22.405
16:44:18:860,-8.4778,2.2612,8.2433,61.0305,-0.5585,0.9164,0.0778,-22.1445
16:44:18:881,-9.3799,2.4311,7.9537,59.1237,-0.4216,1.2756,0.2513,-21.8974
16:44:18:898,-8.4108,2.2636,7.4991,59.3993,-0.6843,1.0838,0.5543,-21.6782
16:44:18:919,-6.6138,1.8831,6.9631,60.4858,-1.0875,0.6049,0.8157,-21.5014
16:44:18:940,-4.9077,1.6869,7.2981,61.9235,-1.3819,0.3141,0.9733,-21.3767
16:44:18:960,-3.7256,1.651,6.9009,60.5569,-1.3563,0.3007,1.032,-21.3767
16:44:18:982,-3.4241,1.8592,6.2453,60.4553,-1.1522,0.523,1.0197,-21.3767
16:44:19:000,-3.4265,2.0028,5.9557,59.3158,-1.0288,0.7417,1.0087,-21.3767
16:44:19:019,-2.9312,1.9143,6.5444,60.0391,-1.0826,0.8101,1.0405,-21.3767
16:44:19:039,-2.2971,1.7587,7.1163,61.6891,-1.1645,0.7649,1.0527,-21.488
16:44:19:063,-2.0339,1.7276,7.413,59.42,-1.1583,0.738,1.0038,-21.6428
16:44:19:081,-2.3809,1.8257,7.5733,60.0582,-1.1009,0.7662,0.9367,-21.8369
16:44:19:099,-2.4503,1.8927,8.1691,62.2392,-1.0826,0.8272,0.8951,-22.0681
16:44:19:121,-2.2038,1.9023,9.0544,61.7487,-1.0973,0.8382,0.8768,-22.3364
16:44:19:141,-1.9741,2.254,11.2319,60.3373,-1.0337,0.7295,0.7045,-22.6397
16:44:19:161,-1.9789,2.5244,11.6219,61.3625,-0.8432,0.5866,0.5811,-23.3302
16:44:19:177,-2.1033,2.7781,10.8754,60.4225,-0.5573,0.4424,0.4541,-23.699
16:44:19:198,-2.3713,3.0987,10.4136,63.5962,-0.3398,0.4057,0.3515,-24.0725
16:44:19:222,-2.8355,3.1657,10.7198,62.0752,-0.2531,0.4485,0.2916,-24.4471
16:44:19:241,-3.472,2.8953,11.1601,62.1989,-0.2677,0.4693,0.261,-24.8223
16:44:19:261,-4.5775,2.6201,12.5767,62.6864,-0.418,0.446,0.2195,-25.1996
16:44:19:278,-4.8838,2.2971,14.5914,59.959,-0.6049,0.2995,0.2183,-25.5827
16:44:19:435,-4.4674,1.7731,15.2949,61.3002,-0.5866,0.0429,0.2427,-25.9729
16:44:19:436,-3.4505,1.4692,14.7637,61.7007,-0.3679,-0.1746,0.2134,-26.3655
16:44:19:438,-2.6728,0.8997,14.3402,61.7152,-0.1468,-0.2637,0.1022,-26.754
16:44:19:439,-2.1248,0.5384,15.1322,60.345,-0.0063,-0.2906,-0.092,-27.1311
16:44:19:440,-1.7372,0.0814,15.8524,61.6881,0.2002,-0.414,-0.3632,-27.4874
16:44:19:441,-2.1799,-0.1316,15.6467,61.3625,0.6388,-0.5643,-0.6955,-27.806
16:44:19:442,-3.3787,0.1962,13.6534,62.4202,1.2643,-0.6144,-1.0022,-28.0679
16:44:19:443,-4.6181,0.5838,11.9833,60.9256,1.7518,-0.5509,-1.1586,-28.2615
16:44:19:456,-5.9151,0.9547,11.5502,61.2172,1.8972,-0.4861,-1.1806,-28.385
16:44:19:477,-6.6568,1.0935,11.3109,60.0267,1.83,-0.6413,-1.0938,-28.385
16:44:19:497,-6.4367,0.9284,10.6887,60.1853,1.7078,-0.9699,-0.9448,-28.385
16:44:19:519,-5.6782,0.5934,9.4158,59.0996,1.6467,-1.2924,-0.7957,-28.385
16:44:19:536,-4.8407,0.4092,7.8915,60.5881,1.6492,-1.5014,-0.6919,-28.2914
16:44:19:558,-4.0534,0.39,6.1113,58.7182,1.676,-1.5686,-0.6247,-28.1567
16:44:19:579,-3.4002,0.5121,4.8742,59.4943,1.632,-1.5136,-0.5709,-27.9848
16:44:19:605,-1.7492,0.682,4.7593,57.7181,1.301,-1.3633,-0.5123,-27.5531
16:44:19:622,-1.5099,0.9404,4.5392,58.2019,1.2338,-1.268,-0.5697,-27.298
16:44:19:644,-1.7755,1.4979,4.331,58.1343,1.1776,-1.1238,-0.6577,-27.0147
16:44:19:658,-2.144,2.053,4.398,56.4683,1.075,-0.9711,-0.7127,-26.7026
16:44:19:679,-2.668,2.7182,4.8,56.6445,0.9381,-0.8123,-0.7224,-26.3631
16:44:19:697,-2.8403,3.1585,5.2738,57.0685,0.7817,-0.7048,-0.6748,-26.0005
16:44:19:721,-3.2231,3.4816,5.5753,56.6076,0.6559,-0.6156,-0.6051,-25.6186
16:44:19:739,-3.5175,3.685,5.9198,58.4506,0.563,-0.4849,-0.5257,-25.2214
16:44:19:759,-3.3715,3.6802,6.14,57.1826,0.4812,-0.3309,-0.4072,-24.814
16:44:19:779,-3.4337,3.5701,6.3745,57.4702,0.3676,-0.1917,-0.3376,-24.4002
16:44:19:799,-3.9218,3.472,6.8722,55.7208,0.2051,-0.0732,-0.3168,-23.9816
16:44:19:820,-4.5464,3.3858,7.4273,55.6968,0.0206,0.0478,-0.3168,-23.56
16:44:19:838,-4.6923,3.3045,7.6881,57.1046,-0.1663,0.1272,-0.2985,-23.1378
16:44:19:860,-4.7952,3.5222,7.9633,55.5273,-0.3374,0.2029,-0.2948,-22.7166
16:44:19:879,-4.9962,3.7998,8.5831,55.4869,-0.4864,0.3105,-0.2936,-22.2983
16:44:19:902,-5.5753,3.6299,9.1214,57.6411,-0.6061,0.3422,-0.2789,-21.8848
16:44:19:919,-6.7717,3.8883,10.1264,55.6654,-0.6782,0.4424,-0.2863,-21.4758
16:44:19:939,-8.1811,4.0822,10.5164,54.2537,-0.6245,0.6061,-0.2191,-21.0721
16:44:19:958,-8.2122,3.6873,10.6768,51.8046,-0.5854,0.6305,0.0216,-20.6818
16:44:19:978,-6.9727,2.9719,10.6098,56.2402,-0.6562,0.363,0.3014,-20.3169
16:44:19:997,-6.0969,2.5579,11.1075,54.9108,-0.6917,0.1321,0.4406,-19.9816
16:44:20:020,-6.329,2.4359,11.2798,55.292,-0.5292,0.1174,0.4394,-19.6739
16:44:20:040,-6.9153,2.4622,10.0188,53.0966,-0.1908,0.2262,0.4211,-19.3863
16:44:20:064,-5.3336,2.6848,7.0181,54.6857,0.1599,0.2579,0.5665,-18.8694
16:44:20:078,-4.4698,2.881,5.4126,53.0683,0.1257,0.1773,0.6129,-18.6432
16:44:20:100,-3.6443,3.0844,4.6253,53.9296,-0.0307,0.1492,0.6483,-18.4416
16:44:20:122,-3.1226,3.1824,4.3597,53.5989,-0.2078,0.2372,0.6825,-18.2676
16:44:20:144,-2.7709,3.1657,4.2903,54.3063,-0.3642,0.3703,0.7167,-18.1236
16:44:20:162,-2.7206,3.0628,4.7186,54.1575,-0.5328,0.4742,0.751,-18.012
16:44:20:179,-2.656,2.9288,5.4556,54.5112,-0.7075,0.4961,0.7974,-18.012
16:44:20:196,-2.2684,2.6584,6.0945,51.6278,-0.8089,0.4656,0.8621,-18.012
16:44:20:217,-1.8377,2.4957,6.1615,51.2852,-0.8334,0.4448,0.9012,-18.012
16:44:20:237,-1.3591,2.266,6.2022,50.8845,-0.8432,0.468,0.9049,-18.012
16:44:20:260,-1.2491,2.1488,6.7047,53.4623,-0.8932,0.5133,0.8475,-18.012
16:44:20:279,-1.2323,2.1392,7.4584,52.3827,-0.9641,0.5316,0.7497,-18.1262
16:44:20:298,-1.1725,2.2827,8.3318,52.5337,-0.9922,0.5267,0.6325,-18.2707
16:44:20:320,-1.2036,2.5651,8.9587,51.8077,-0.9372,0.5303,0.4968,-18.4395
16:44:20:339,-1.2012,2.8475,9.7029,53.6384,-0.8236,0.5047,0.3588,-18.626
16:44:20:360,-1.5123,3.2518,9.6933,52.912,-0.6428,0.4473,0.2232,-18.8232
16:44:20:378,-2.2469,3.7208,9.533,50.8248,-0.4449,0.4387,0.1169,-19.0232
16:44:20:399,-2.6082,3.8572,9.3559,52.2386,-0.3325,0.4729,0.0912,-19.2244
16:44:20:421,-3.3141,3.8548,9.7819,50.9887,-0.3496,0.5646,0.0949,-19.4264
16:44:20:442,-4.3549,3.7543,11.1171,52.9061,-0.5243,0.6257,0.0961,-19.6316
16:44:20:460,-4.5775,3.6275,13.2036,51.3423,-0.7821,0.4839,0.1438,-19.8459
16:44:20:479,-3.6586,3.3835,14.2804,51.8605,-0.8676,0.1235,0.2219,-20.0738
16:44:20:497,-1.5386,3.0413,12.0072,51.0512,-0.3911,-0.1746,0.211,-20.3129
16:44:20:516,-1.1462,2.6776,12.4666,50.5331,-0.3141,-0.0683,0.1169,-20.5599
16:44:20:540,-1.2323,1.9238,13.6008,49.3798,-0.308,-0.0695,-0.0224,-20.8093
16:44:20:559,-1.8568,1.1151,14.9145,51.2673,-0.231,-0.1245,-0.2154,-21.2999
16:44:20:579,-2.5388,0.6293,15.4529,48.8931,0.0108,-0.1807,-0.4133,-21.5244
16:44:20:605,-3.2638,0.3637,14.857,47.9497,0.3798,-0.2369,-0.5465,-21.7222
16:44:20:615,-3.728,0.3039,14.0674,48.5182,0.6803,-0.2454,-0.6198,-21.8882
16:44:20:640,-3.9218,0.1196,13.6726,48.6163,0.7964,-0.3432,-0.6662,-22.0196
16:44:20:656,-4.4937,0.1675,13.4883,48.5317,0.8062,-0.6156,-0.7505,-22.1139
16:44:20:675,-5.0249,0.4068,12.8686,45.5283,0.8819,-0.9369,-0.8312,-22.1139
16:44:20:695,-4.8598,0.4498,11.4473,46.2286,1.1092,-1.1825,-0.836,-22.1139
16:44:20:715,-4.0415,0.4259,9.2794,46.8179,1.4622,-1.3413,-0.7933,-22.1139
16:44:20:737,-3.3069,0.4475,6.5994,44.7534,1.808,-1.3694,-0.7835,-22.1139
16:44:20:759,-2.8714,0.8399,4.3286,44.2295,1.9949,-1.301,-0.7982,-21.9862
16:44:20:778,-2.5603,1.3831,2.7302,44.5526,1.9546,-1.1813,-0.8067,-21.8133
16:44:20:799,-2.3665,1.9119,2.0913,43.036,1.7102,-1.0102,-0.7896,-21.5988
16:44:20:821,-2.5292,2.5101,2.7996,44.2074,1.3376,-0.8123,-0.7725,-21.3484
16:44:20:840,-2.814,3.1346,3.7591,43.0278,0.9699,-0.6999,-0.7371,-21.0672
16:44:20:861,-3.0269,3.7615,4.5679,43.1816,0.6974,-0.6303,-0.6748,-20.7605
16:44:20:881,-3.5462,4.2688,5.7619,42.7494,0.4983,-0.4837,-0.6015,-20.4332
16:44:20:899,-4.0558,4.6349,7.0445,42.0469,0.3859,-0.3676,-0.4964,-20.09
16:44:20:921,-4.1061,4.7378,7.4752,42.3431,0.3981,-0.3395,-0.3412,-19.7371
16:44:20:943,-3.7735,4.654,7.133,42.5852,0.4958,-0.2796,-0.1763,-19.0215
16:44:20:960,-3.6108,4.4411,6.5707,41.0403,0.458,-0.0096,0.0082,-18.6678
16:44:20:977,-4.1803,4.2209,6.9224,43.259,0.2601,0.0698,0.0228,-18.3189
16:44:21:003,-4.185,3.9003,6.8028,41.5985,0.0597,0.1186,0.0363,-17.9761
16:44:21:022,-3.8022,3.649,6.7143,41.7823,-0.1162,0.2432,0.0521,-17.6418
16:44:21:037,-4.0367,4.0367,7.6235,39.8412,-0.3166,0.4314,-0.0065,-17.3157
16:44:21:057,-4.7378,4.1061,8.5759,41.1861,-0.5255,0.4742,-0.0786,-16.9969
16:44:21:077,-5.9414,4.1252,9.7747,38.9261,-0.6574,0.4839,-0.1336,-16.6835
16:44:21:099,-7.7121,4.52,10.6313,39.4012,-0.6159,0.5743,-0.1213,-16.3734
16:44:21:120,-8.1547,4.331,10.1145,39.7687,-0.418,0.6855,0.1083,-16.0725
16:44:21:141,-7.1139,3.405,9.2841,39.7066,-0.3459,0.6452,0.4602,-15.793
16:44:21:159,-6.1472,2.5364,9.4349,40.7496,-0.5365,0.4033,0.6813,-15.5458
16:44:21:180,-6.0371,2.0554,10.1001,39.2111,-0.7161,0.2567,0.7461,-15.3344
16:44:21:202,-6.1639,1.6271,10.3274,39.2111,-0.6672,0.3337,0.7595,-15.1577
16:44:21:222,-5.5801,1.4333,9.6168,39.1461,-0.5255,0.3679,0.7729,-15.0136
16:44:21:242,-4.7019,1.5649,8.1643,40.7864,-0.407,0.2811,0.7497,-14.9002
16:44:21:259,-3.5055,1.7109,6.6281,39.7234,-0.3288,0.2274,0.707,-14.9002
16:44:21:280,-2.7254,2.0818,5.4365,40.5479,-0.2787,0.3214,0.6349,-14.9002
16:44:21:302,-2.3067,2.3258,4.5894,38.7596,-0.2983,0.4913,0.5543,-14.9002
16:44:21:324,-2.0865,2.5771,4.6086,38.0879,-0.44,0.6134,0.4883,-14.9002
16:44:21:474,-2.0889,2.7039,5.1613,39.9756,-0.6465,0.6476,0.4394,-14.9002
16:44:21:475,-2.211,2.8092,5.7117,38.208,-0.7882,0.6391,0.4125,-14.9002
16:44:21:476,-2.5388,2.9456,6.1711,39.9865,-0.8297,0.677,0.4187,-14.9002
16:44:21:476,-2.7565,3.0915,6.4534,40.3739,-0.8175,0.7136,0.4846,-14.9002
16:44:21:477,-2.278,3.0963,7.1569,37.8101,-0.8859,0.749,0.7424,-14.993
16:44:21:478,-2.0746,3.0844,7.7001,40.1877,-1.013,0.7173,0.8096,-15.2784
16:44:21:479,-1.8592,3.2495,8.7721,38.7308,-1.1877,0.6672,0.7998,-15.4744
16:44:21:479,-2.0004,3.6036,10.9208,37.9294,-1.3392,0.6403,0.7326,-15.7067
16:44:21:496,-2.9934,4.2066,12.9811,37.9488,-1.3001,0.5621,0.6019,-15.9694
16:44:21:516,-3.4792,4.7737,13.5577,37.8919,-0.9445,0.3776,0.5616,-16.255
16:44:21:537,-2.7948,4.855,12.3829,39.0742,-0.3972,0.2213,0.6508,-16.5577
16:44:21:564,-1.9621,4.8096,10.8586,38.0054,0.0695,0.2176,0.7314,-16.8733
16:44:21:578,-1.7731,4.5942,10.4399,37.9135,0.2894,0.3239,0.7119,-17.1981
16:44:21:600,-2.2636,4.0104,11.1147,37.3989,0.2906,0.4204,0.6447,-17.5302
16:44:21:620,-3.4098,3.6227,12.0479,36.2659,0.1819,0.3837,0.5445,-17.8675
16:44:21:640,-3.3021,3.4816,13.2897,36.2946,0.0157,0.1761,0.4981,-18.2117
16:44:21:656,-1.3591,3.1274,13.4596,37.9456,-0.0612,-0.2821,0.5103,-18.5659
16:44:21:677,0.2584,2.8044,12.1196,37.2613,0.1489,-0.5875,0.4443,-18.9259
16:44:21:697,1.3448,2.6488,10.6576,36.9118,0.4494,-0.535,0.2818,-19.2832
16:44:21:721,1.3735,2.4311,10.4495,37.3055,0.5667,-0.3529,0.0424,-19.6284
16:44:21:741,0.7633,1.8257,11.5836,35.4147,0.4482,-0.3346,-0.2411,-19.9549
16:44:21:764,-0.3398,1.5051,12.9906,35.0607,0.3517,-0.3346,-0.5196,-20.2559
16:44:21:776,-2.5866,1.3878,15.2136,35.7991,0.3578,-0.2161,-0.7542,-20.5231
16:44:21:801,-3.3045,1.005,16.9005,35.8229,0.4213,-0.3163,-0.8177,-20.755
16:44:21:822,-2.8929,0.4594,16.6684,35.0977,0.6595,-0.6596,-0.8006,-20.9509
16:44:21:842,-3.1178,0.2943,14.4742,34.282,1.031,-1.0102,-0.8764,-21.103
16:44:21:859,-4.1372,0.536,12.3829,34.0493,1.2802,-1.2363,-1.0022,-21.2038
16:44:21:880,-3.9314,0.4953,9.9948,32.8448,1.3547,-1.6345,-0.9753,-21.2038
16:44:21:897,-3.2327,0.5192,8.2409,34.2217,1.4476,-1.8776,-0.9656,-21.2038
16:44:21:919,-2.8762,0.7346,6.4032,34.7089,1.5526,-1.9742,-1.0437,-21.1102
16:44:21:938,-2.8666,1.2586,4.8526,33.4753,1.6113,-1.9057,-1.1402,-20.9634
16:44:21:959,-3.1035,2.1942,4.0128,34.5604,1.5355,-1.7604,-1.2026,-20.7632
16:44:21:976,-3.1561,3.0126,3.9147,33.691,1.3291,-1.5942,-1.183,-20.5128
16:44:21:995,-3.3236,3.5653,4.5799,33.0255,1.103,-1.4024,-1.1122,-20.2177
16:44:22:015,-3.4122,4.0128,5.2331,33.691,0.9454,-1.2521,-1.0242,-19.8832
16:44:22:038,-3.2423,4.4363,5.8026,34.5673,0.8746,-1.1752,-0.9191,-19.5157
16:44:22:059,-2.936,4.9627,5.5753,32.7587,0.8844,-1.075,-0.8177,-19.1197
16:44:22:077,-2.613,5.3216,5.2762,33.0207,0.8624,-0.9699,-0.7139,-18.6999
16:44:22:095,-2.3163,5.5059,5.4532,31.2817,0.7585,-0.8697,-0.6271,-18.2615
16:44:22:117,-2.2851,5.6734,5.5657,31.3026,0.6767,-0.7488,-0.5734,-17.808
16:44:22:137,-2.5149,5.8313,5.2379,32.2595,0.6632,-0.5973,-0.5196,-17.3421
16:44:22:158,-3.1609,5.9749,5.2522,31.3121,0.6376,-0.3896,-0.4414,-16.8654
16:44:22:178,-3.6682,5.6375,5.2858,30.7724,0.5545,-0.1978,-0.3205,-16.3818
16:44:22:196,-2.9671,5.4006,4.7091,31.5462,0.4006,-0.089,-0.1592,-15.9005
16:44:22:215,-2.412,5.0249,4.6205,30.7724,0.1318,0.0429,-0.0896,-15.4266
16:44:22:238,-2.6871,5.0177,5.616,30.9203,-0.2091,0.2274,-0.1678,-14.9579
16:44:22:258,-3.6395,5.0201,6.7502,30.6313,-0.4876,0.4057,-0.3034,-14.4897
16:44:22:281,-4.9149,4.8742,7.9585,30.4209,-0.6819,0.5365,-0.4084,-13.54
16:44:22:306,-7.8724,4.7665,10.0881,30.6099,-0.6917,0.7722,-0.3816,-13.0573
16:44:22:317,-7.7193,4.477,9.478,30.2009,-0.5108,0.8382,-0.1482,-12.5785
16:44:22:339,-6.9105,3.7831,8.5232,30.8111,-0.4424,0.8053,0.1157,-12.1149
16:44:22:363,-6.3697,3.2877,8.1404,31.1744,-0.4962,0.7918,0.2855,-11.6746
16:44:22:378,-6.1998,2.6895,7.7336,31.2531,-0.5548,0.8676,0.3918,-11.2614
16:44:22:399,-6.0419,2.3234,7.0517,29.386,-0.6208,0.9531,0.4675,-10.8783
16:44:22:420,-5.6351,2.1607,7.0397,30.4333,-0.8138,0.9213,0.5225,-10.5292
16:44:22:440,-4.8622,2.199,7.0899,29.4162,-1.0056,0.8101,0.5775,-10.2188
16:44:22:460,-4.0893,2.254,6.664,30.2751,-1.0069,0.8407,0.6166,-9.9487
16:44:22:476,-3.3691,2.4837,5.9629,30.1056,-0.9103,0.9665,0.6312,-9.7177
16:44:22:497,-3.0317,2.7374,5.1685,27.9624,-0.8554,1.0875,0.6117,-9.524
16:44:22:520,-3.2327,2.9839,5.1278,29.0095,-0.914,1.2023,0.5799,-9.3658
16:44:22:541,-3.2877,3.1083,5.1206,31.0888,-1.0374,1.2426,0.6141,-9.2453
16:44:22:559,-2.9767,2.9886,5.1374,30.1732,-1.1657,1.2658,0.7131,-9.2453
16:44:22:577,-2.3067,2.6488,5.6207,30.5801,-1.3318,1.2622,0.8181,-9.2453
16:44:22:597,-2.0243,2.4455,6.7071,28.9558,-1.5102,1.2561,0.8572,-9.2453
16:44:22:616,-1.8808,2.3737,8.0542,28.8257,-1.6287,1.2426,0.8426,-9.2453
16:44:22:637,-1.4883,2.1966,9.4612,30.356,-1.6458,1.2011,0.8181,-9.3683
16:44:22:656,-1.0504,2.1823,10.2102,28.1287,-1.5383,1.1192,0.7461,-9.539
16:44:22:677,-1.2634,2.5579,10.6361,30.1372,-1.3184,1.0899,0.5946,-9.7477
16:44:22:699,-1.4836,3.0365,10.538,28.9889,-1.0826,1.0667,0.4455,-9.9847
16:44:22:715,-1.8209,3.5294,10.952,29.8548,-0.9568,0.9408,0.3136,-10.243
16:44:22:738,-1.9406,3.9936,11.3204,29.2669,-0.9116,0.7051,0.2085,-10.5183
16:44:22:759,-2.3833,4.5129,11.6937,29.9187,-0.8224,0.5352,0.1242,-10.806
16:44:22:782,-4.5847,5.3264,13.5864,27.7506,-0.5805,0.4766,0.0338,-11.4002
16:44:22:797,-5.2283,5.5131,13.8975,26.2278,-0.4131,0.4033,0.1071,-11.703
16:44:22:814,-5.0752,5.537,13.687,28.597,-0.2665,0.2188,0.2354,-12.0093
16:44:22:834,-3.8213,5.5035,13.3639,26.4885,-0.1908,-0.0866,0.3832,-12.324
16:44:22:855,-2.4048,5.0106,12.4594,26.5928,-0.137,-0.458,0.4736,-12.6489
16:44:22:874,-1.1079,4.4339,12.1603,26.0545,-0.0527,-0.6535,0.459,-12.9831
16:44:22:894,-1.0385,3.7567,13.2084,26.6243,0.0573,-0.5973,0.3282,-13.321
16:44:22:915,-1.8688,2.6776,14.0339,26.9089,0.2356,-0.491,0.1218,-13.654
16:44:22:936,-3.7424,1.931,14.8116,26.9089,0.4409,-0.3297,-0.0871,-13.9722
16:44:22:960,-5.3288,1.7324,16.2018,25.7518,0.5899,-0.1892,-0.2264,-14.269
16:44:22:980,-5.0058,1.0002,16.5966,25.2528,0.7109,-0.348,-0.1873,-14.5457
16:44:22:997,-3.862,0.414,15.2136,25.0223,0.8734,-0.7915,-0.1604,-14.8019
16:44:23:017,-3.0963,0.0048,13.3807,25.5803,1.0395,-1.1886,-0.2447,-15.0332
16:44:23:039,-2.9527,-0.1507,11.732,26.2909,1.1873,-1.4073,-0.4011,-15.2333
16:44:23:058,-3.1609,-0.1149,10.5117,23.7019,1.323,-1.4928,-0.566,-15.3962
16:44:23:075,-3.2542,-0.0359,8.9779,23.664,1.4549,-1.5881,-0.6845,-15.5162
16:44:23:097,-3.0963,0.0455,7.5709,25.5731,1.5221,-1.7543,-0.7664,-15.5162
16:44:23:115,-2.7733,0.2513,6.0299,25.4582,1.5514,-1.9192,-0.8495,-15.5162
16:44:23:139,-2.589,0.6245,4.4554,24.242,1.5795,-1.9204,-0.9216,-15.5162
16:44:23:157,-2.6178,1.2467,3.8381,24.9861,1.5099,-1.7249,-0.9765,-15.5162
16:44:23:177,-2.9312,1.8568,4.1372,22.8788,1.3572,-1.4696,-1.001,-15.4062
16:44:23:198,-3.338,2.5508,4.6397,24.8055,1.2032,-1.3022,-0.9863,-15.2532
16:44:23:217,-3.3069,3.0197,5.0967,25.059,1.0896,-1.2167,-0.9191,-15.0618
16:44:23:238,-3.5605,4.1659,5.135,26.2615,1.0639,-0.9638,-0.786,-14.5759
16:44:23:258,-3.6873,4.6062,4.8598,24.9019,1.0236,-0.8416,-0.6833,-14.2901
16:44:23:279,-3.4265,4.9077,4.6852,24.2776,0.9161,-0.7341,-0.5514,-13.9846
16:44:23:296,-2.9743,5.0225,4.4387,23.4405,0.7878,-0.5582,-0.4378,-13.6652
16:44:23:316,-3.6012,5.1876,4.477,24.5995,0.6241,-0.3041,-0.3925,-13.3339
16:44:23:339,-4.5081,5.068,4.6971,24.1208,0.3639,-0.0854,-0.3559,-12.9935
16:44:23:358,-3.9625,4.9244,4.8263,23.7917,0.0389,0.0258,-0.2301,-12.6517
16:44:23:502,-3.1801,4.5224,5.0608,23.3523,-0.2909,0.1626,-0.1336,-12.3162
16:44:23:503,-3.9841,4.7641,6.5348,23.6512,-0.6367,0.3581,-0.1885,-11.9866
16:44:23:504,-4.7426,4.6947,8.3844,24.4585,-0.9213,0.4717,-0.2484,-11.6628
16:44:23:505,-6.2022,4.6181,10.0666,22.3725,-1.0215,0.5389,-0.2728,-11.3434
16:44:23:505,-7.9729,4.9986,11.208,24.7643,-0.8749,0.666,-0.2423,-11.0261
16:44:23:506,-8.4299,4.6062,11.2271,23.3746,-0.5768,0.771,0.0216,-10.719
16:44:23:507,-7.2718,3.5701,9.411,22.8875,-0.3239,0.6916,0.3869,-10.4342
16:44:23:514,-6.2644,2.8714,8.3749,23.664,-0.308,0.6257,0.6337,-10.182
16:44:23:537,-5.9151,2.2756,8.473,24.4431,-0.4729,0.6819,0.7375,-9.967
16:44:23:557,-5.7787,1.7492,8.6094,25.3381,-0.688,0.6537,0.7619,-9.7918
16:44:23:575,-5.0058,1.6152,8.5902,25.0606,-0.8688,0.5206,0.7619,-9.6577
16:44:23:596,-3.8118,1.7157,8.2816,23.5557,-0.9042,0.4803,0.7436,-9.5629
16:44:23:616,-3.2399,2.2134,7.2694,22.5546,-0.7723,0.5841,0.6642,-9.5629
16:44:23:637,-2.7182,2.5484,6.0227,24.7192,-0.622,0.7552,0.5848,-9.5629
16:44:23:661,-2.4239,2.9193,5.2451,25.3033,-0.5964,0.9103,0.5445,-9.5629
16:44:23:678,-2.1966,3.2495,5.4054,23.9119,-0.881,0.9958,0.5591,-9.5629
16:44:23:696,-1.8257,3.0652,6.0586,25.1405,-1.0557,0.9396,0.6153,-9.6535
16:44:23:719,-1.5027,3.0317,6.8818,22.9799,-1.1718,0.8834,0.6532,-9.7806
16:44:23:739,-1.3208,3.0341,7.4034,24.675,-1.1791,0.8663,0.6654,-9.9449
16:44:23:760,-1.2419,2.991,7.9729,23.5402,-1.1486,0.87,0.663,-10.1464
16:44:23:776,-1.2706,2.948,8.7171,24.675,-1.129,0.8101,0.6227,-10.3827
16:44:23:796,-1.5051,3.0102,9.3416,23.4849,-1.063,0.738,0.5677,-10.65
16:44:23:816,-1.529,3.2662,9.6598,24.2784,-0.9213,0.7368,0.5115,-10.9442
16:44:23:837,-1.4836,3.5103,9.9972,24.5474,-0.7845,0.7478,0.4321,-11.2602
16:44:23:861,-1.809,3.7376,10.4064,22.9646,-0.6721,0.6647,0.3026,-11.5925
16:44:23:876,-2.5866,4.2162,10.5356,22.7135,-0.5658,0.5218,0.156,-11.9324
16:44:23:895,-3.1896,4.5942,10.8945,23.9273,-0.4461,0.4522,0.0912,-12.2764
16:44:23:915,-3.5175,4.6086,11.6746,23.643,-0.3581,0.4497,0.1071,-12.6243
16:44:23:937,-4.1037,4.3813,12.3015,23.1921,-0.3031,0.4302,0.1218,-12.9757
16:44:23:957,-5.0847,4.2544,13.5984,23.908,-0.2799,0.4155,0.1181,-13.3295
16:44:23:977,-4.7737,4.2162,14.6632,24.6606,-0.2237,0.2848,0.1706,-13.6876
16:44:23:998,-3.2351,4.1659,13.1103,23.3445,0.0108,-0.0463,0.2513,-14.0497
16:44:24:016,-2.1248,4.2856,11.0572,23.3189,0.2918,-0.2027,0.2586,-14.411
16:44:24:041,-1.5051,4.2018,10.6409,24.3266,0.3346,-0.1379,0.2146,-14.7705
16:44:24:059,-1.6606,3.5868,12.0335,24.3266,0.1257,-0.1672,0.1193,-15.1291
16:44:24:076,-1.9478,2.7589,14.455,24.9295,-0.0551,-0.2943,-0.0016,-15.4869
16:44:24:096,-2.0291,1.9286,15.7735,23.9273,0.0719,-0.3395,-0.125,-15.8389
16:44:24:117,-2.3689,1.6391,15.9506,25.3464,0.4323,-0.4165,-0.2826,-16.1753
16:44:24:141,-2.6824,1.5745,14.9432,24.4792,0.8465,-0.5386,-0.417,-16.4862
16:44:24:160,-2.9121,1.3328,11.9354,23.5703,1.2729,-0.943,-0.5379,-16.766
16:44:24:175,-3.0317,1.2873,10.3322,21.9535,1.2863,-1.1752,-0.577,-17.212
16:44:24:200,-2.8427,1.2658,9.1119,26.7092,1.2496,-1.3303,-0.5941,-17.3822
16:44:24:215,-2.3139,1.0433,7.7767,25.0638,1.2203,-1.4305,-0.5941,-17.5198
16:44:24:236,-1.8544,0.9093,6.7047,26.2381,1.1971,-1.5111,-0.6259,-17.6254
16:44:24:256,-1.6104,0.8423,5.7069,24.5644,1.1739,-1.56,-0.7017,-17.6254
16:44:24:278,-1.3495,0.9188,5.0608,25.5686,1.1556,-1.5136,-0.7982,-17.6254
16:44:24:295,-1.4501,1.1725,4.9364,24.7045,1.1263,-1.3499,-0.9179,-17.6254
16:44:24:314,-2.2229,1.7228,5.2498,24.9704,1.092,-1.1568,-1.0437,-17.6254
16:44:24:337,-2.9503,2.3043,5.2355,27.1705,1.0762,-1.0017,-1.1012,-17.6254
16:44:24:357,-3.5151,2.9575,5.4676,24.5587,1.0273,-0.8612,-1.0804,-17.4942
16:44:24:378,-3.752,3.4289,5.9797,26.1416,0.9332,-0.7818,-0.9973,-17.3256
16:44:24:395,-3.6323,3.7208,6.3864,25.499,0.8673,-0.7341,-0.8825,-17.1252
16:44:24:415,-3.4768,3.9936,5.8983,26.1758,0.8917,-0.6608,-0.7884,-16.8971
16:44:24:437,-3.8022,4.3765,5.324,26.1595,0.8868,-0.524,-0.7285,-16.6432
16:44:24:457,-4.2927,4.7282,5.0704,26.788,0.7121,-0.3835,-0.6577,-16.3672
16:44:24:474,-4.7402,4.5583,5.8744,26.788,0.3957,-0.2185,-0.5575,-16.0759
16:44:24:495,-4.8909,4.4052,6.6449,26.788,0.0682,-0.1123,-0.4671,-15.776
16:44:24:514,-4.4052,4.3358,6.3769,27.7375,-0.1761,-0.067,-0.3938,-15.4735
16:44:24:535,-4.7856,4.7856,7.0445,25.9351,-0.4058,0.0942,-0.4023,-15.1703
16:44:24:555,-5.4748,5.0752,8.2241,25.7606,-0.6416,0.2469,-0.417,-14.867
16:44:24:577,-6.5827,5.1494,9.4971,27.3577,-0.8004,0.3031,-0.3913,-14.5665
16:44:24:597,-7.9274,4.8287,10.4877,28.0014,-0.7503,0.319,-0.0517,-13.984
16:44:24:622,-6.4558,3.393,10.1384,27.433,-0.6953,0.209,0.2879,-13.7227
16:44:24:635,-5.5968,2.4837,9.8632,27.5876,-0.6953,0.0392,0.4504,-13.4949
16:44:24:659,-5.7619,1.8951,10.0714,27.1625,-0.6428,0.0881,0.4602,-13.2994
16:44:24:675,-6.2859,1.6319,10.282,26.3286,-0.5182,0.3043,0.4455,-13.1324
16:44:24:697,-6.4223,1.6032,10.0283,26.0217,-0.4155,0.4143,0.4577,-12.992
16:44:24:714,-5.7141,1.8329,8.6788,26.449,-0.3801,0.2714,0.5115,-12.8793
16:44:24:738,-4.4315,1.9478,7.1378,26.5778,-0.3716,0.1394,0.5836,-12.8793
16:44:24:753,-2.9432,2.1129,5.8504,27.276,-0.3838,0.1284,0.6471,-12.8793
16:44:24:773,-1.9741,2.5005,4.8598,26.1132,-0.4045,0.2127,0.6153,-12.8793
16:44:24:793,-2.2469,3.0508,4.3167,25.9772,-0.429,0.3874,0.5115,-12.8793
16:44:24:813,-2.8283,3.4983,4.0056,26.7885,-0.4559,0.5951,0.4688,-12.8793
16:44:24:835,-3.0126,3.6395,3.8309,27.0025,-0.5255,0.7332,0.553,-12.8793
16:44:24:856,-2.4383,3.5246,3.3787,26.425,-0.6843,0.7307,0.7241,-12.8793
16:44:24:876,-1.6893,3.3308,3.6443,25.8555,-0.9397,0.6855,0.8634,-13.0129
16:44:24:896,-1.1797,2.948,4.8359,25.5873,-1.228,0.6916,0.9257,-13.1927
16:44:24:917,-1.2682,2.9264,6.0132,26.8392,-1.3856,0.7478,0.9061,-13.4183
16:44:24:938,-1.3615,2.8977,7.0923,27.8009,-1.4174,0.8285,0.8646,-13.6885
16:44:24:959,-1.6702,3.0317,8.2337,27.6373,-1.3844,0.9299,0.8157,-14.0002
16:44:24:976,-2.0291,3.1609,9.5545,26.3756,-1.3221,1.0276,0.7595,-14.3496
16:44:24:994,-2.0291,3.259,11.3013,26.9016,-1.2622,1.03,0.7106,-14.7346
16:44:25:015,-1.7109,3.2901,12.414,27.6357,-1.1364,0.8688,0.6508,-15.1528
16:44:25:038,-1.6008,3.5892,12.7514,26.5383,-0.9067,0.7197,0.5384,-15.5952
16:44:25:058,-3.1705,3.8046,14.1631,27.9287,-0.5426,0.6293,0.2855,-16.0548
16:44:25:081,-3.8644,3.8022,14.6991,27.8875,-0.4021,0.523,0.2366,-16.9904
16:44:25:093,-3.8309,3.9625,14.5125,26.4065,-0.2042,0.4155,0.2391,-17.4659
16:44:25:117,-3.0078,4.1563,13.8712,27.8654,-0.0673,0.1516,0.2733,-17.9446
16:44:25:140,-1.5099,3.9099,12.4451,25.9382,0.0182,-0.2405,0.2989,-18.4269
16:44:25:156,-0.1914,3.7639,11.5406,28.2181,0.133,-0.4165,0.2623,-18.9104
16:44:25:179,-0.0048,3.2686,11.8325,25.8057,0.2344,-0.3395,0.1425,-19.391
16:44:25:196,-0.8375,2.5172,12.6317,26.658,0.2686,-0.3138,-0.0248,-19.8621
16:44:25:215,-2.0746,2.01,14.0985,27.2557,0.2747,-0.2357,-0.1543,-20.3201
16:44:25:240,-2.8977,1.3113,15.673,29.6703,0.2808,-0.1514,-0.2179,-20.7637
16:44:25:256,-2.8355,0.5719,16.2736,29.0909,0.3505,-0.3041,-0.2423,-21.193
16:44:25:277,-2.4861,0.0622,15.4433,27.6554,0.5423,-0.651,-0.2899,-21.6046
16:44:25:296,-1.7946,-0.268,13.7228,29.0203,0.761,-1.0127,-0.395,-21.9921
16:44:25:314,-1.6463,-0.402,11.9737,30.2941,0.9589,-1.2607,-0.5709,-22.3492
16:44:25:336,-2.0746,-0.1364,10.4854,28.806,1.1348,-1.4012,-0.7957,-22.6669
16:44:25:358,-2.6106,0.0694,9.0401,28.7689,1.2949,-1.5185,-0.9839,-22.9368
16:44:25:379,-2.9551,0.4355,7.6235,29.6627,1.4195,-1.6186,-1.1146,-23.1544
16:44:25:395,-3.1657,0.9739,6.1902,31.3033,1.5307,-1.6479,-1.1928,-23.3177
16:44:25:415,-3.3715,1.4548,4.8431,29.9768,1.6296,-1.5392,-1.2135,-23.4264
16:44:25:566,-3.3188,2.1559,3.7807,29.7304,1.6541,-1.3315,-1.1659,-23.4264
16:44:25:568,-3.137,2.8211,3.3452,31.0319,1.5221,-1.1043,-1.0694,-23.4264
16:44:25:569,-3.2542,3.3619,4.2066,30.4218,1.2252,-0.9577,-0.9619,-23.4264
16:44:25:570,-3.2279,3.6371,5.1159,31.6237,0.9283,-0.9125,-0.8629,-23.3301
16:44:25:571,-3.8118,4.276,6.3601,30.8147,0.7048,-0.7964,-0.6931,-23.204
16:44:25:572,-3.9314,4.544,6.1137,31.9541,0.7573,-0.6266,-0.555,-23.0595
16:44:25:573,-3.1944,4.4841,5.683,30.8628,0.7646,-0.4604,-0.3681,-22.9046
16:44:25:585,-2.7182,4.5583,5.5011,31.4368,0.6363,-0.3346,-0.2521,-22.7451
16:44:25:598,-3.1202,4.4267,5.8935,32.4786,0.4348,-0.1868,-0.235,-22.5819
16:44:25:613,-3.7639,4.2473,6.4343,31.1321,0.2197,-0.0365,-0.2472,-22.4163
16:44:25:634,-3.4409,3.9601,5.6806,33.0983,0.0621,0.093,-0.2166,-22.2499
16:44:25:656,-3.1131,3.8261,5.8337,31.6028,-0.1394,0.3275,-0.2069,-22.0855
16:44:25:678,-3.5031,3.9147,6.8842,31.5072,-0.462,0.4974,-0.2838,-21.921
16:44:25:693,-4.6804,3.4744,8.2098,32.4433,-0.7808,0.5267,-0.3767,-21.7568
16:44:25:713,-6.4869,3.7496,9.7914,31.8217,-0.9604,0.6318,-0.4512,-21.5901
16:44:25:734,-8.0566,4.0869,11.4832,34.0136,-0.9507,0.848,-0.3974,-21.422
16:44:25:754,-8.3103,3.8237,12.1986,32.456,-0.7857,0.8969,-0.1372,-21.2611
16:44:25:775,-7.279,3.0245,11.2534,32.9414,-0.578,0.6733,0.1816,-21.1187
16:44:25:795,-6.4606,2.7613,10.0546,33.117,-0.3923,0.4876,0.3869,-21.0004
16:44:25:813,-6.7119,2.6393,9.2435,33.926,-0.2396,0.5768,0.4871,-20.9063
16:44:25:838,-6.9583,2.4909,8.4562,32.7808,-0.1492,0.7564,0.597,-20.9063
16:44:25:855,-6.3817,2.4455,7.5517,31.4046,-0.2164,0.7674,0.7436,-20.9063
16:44:25:874,-5.1972,2.3617,6.6927,33.7923,-0.4497,0.5634,0.8866,-20.9063
16:44:25:896,-3.807,2.3785,6.3075,31.917,-0.7039,0.3642,0.9733,-20.9063
16:44:25:916,-3.0628,2.5723,6.1783,33.4814,-0.8212,0.363,0.9782,-20.9977
16:44:25:936,-2.79,2.7541,5.6112,32.8933,-0.7759,0.5267,0.955,-21.1314
16:44:25:958,-2.4191,2.8666,5.013,33.1007,-0.7356,0.6941,0.9525,-21.3054
16:44:25:978,-1.5194,2.723,5.3121,32.4953,-0.9262,0.7784,0.9916,-21.5209
16:44:25:995,-1.328,2.6848,5.5537,34.3743,-0.9959,0.8211,0.9782,-22.0662
16:44:26:015,-1.663,2.6895,6.3912,35.6612,-1.0777,0.8761,0.9257,-22.3992
16:44:26:039,-2.1272,2.7948,7.6163,32.221,-1.1669,0.8639,0.8817,-22.7721
16:44:26:060,-2.0483,2.7374,8.4036,34.7961,-1.1571,0.826,0.8914,-23.182
16:44:26:078,-1.7922,2.7063,8.8199,33.8209,-1.0655,0.826,0.8829,-23.6281
16:44:26:094,-1.8497,2.9049,9.0856,33.8607,-0.9665,0.8358,0.8218,-24.1049
16:44:26:114,-2.0363,3.2255,9.8489,33.425,-0.9006,0.8529,0.7375,-24.6086
16:44:26:136,-2.0602,3.4505,10.1743,32.6322,-0.8273,0.7698,0.6606,-25.1349
16:44:26:155,-1.7922,3.5892,10.3729,34.4861,-0.7491,0.655,0.5934,-25.68
16:44:26:174,-1.998,4.0199,11.1482,35.4854,-0.6758,0.6305,0.5017,-26.2398
16:44:26:195,-2.7613,4.2233,12.1819,33.2346,-0.5988,0.6391,0.4138,-26.8097
16:44:26:215,-3.4122,4.2784,12.8255,34.9932,-0.5243,0.5768,0.3734,-27.3864
16:44:26:238,-3.8955,4.2233,13.5984,34.6326,-0.4742,0.4668,0.3698,-27.9694
16:44:26:258,-3.6897,4.0989,14.8164,35.2692,-0.4106,0.3263,0.393,-28.5588
16:44:26:275,-2.4814,4.1468,13.8664,34.55,-0.2078,0.0038,0.4223,-29.1537
16:44:26:294,-0.8375,3.9601,11.5095,35.569,0.0878,-0.2723,0.4235,-29.7492
16:44:26:316,0.5767,3.8357,10.4782,33.9859,0.2381,-0.243,0.3612,-30.3422
16:44:26:338,0.7681,3.2758,11.7894,34.3802,0.1391,-0.1477,0.1938,-30.9285
16:44:26:359,0.3541,2.3426,14.077,35.7791,-0.0087,-0.2283,-0.0444,-31.5039
16:44:26:372,-1.0098,1.8592,15.8166,34.5666,0.1122,-0.2088,-0.3119,-32.0596
16:44:26:393,-2.8403,1.7204,17.3192,35.5376,0.4335,-0.0842,-0.5331,-32.5842
16:44:26:418,-3.2901,1.0433,15.0676,34.4392,1.2057,-0.5777,-0.6003,-33.5114
16:44:26:437,-3.8309,1.0265,12.591,35.046,1.4451,-0.8856,-0.6503,-33.9059
16:44:26:456,-4.343,1.0504,11.0118,35.0549,1.4378,-1.1141,-0.6662,-34.2541
16:44:26:474,-4.0726,0.8088,10.0594,34.9326,1.268,-1.3853,-0.621,-34.5613
16:44:26:494,-3.0796,0.3709,8.9444,34.2106,1.158,-1.692,-0.577,-34.8314
16:44:26:515,-2.2469,0.1196,7.4417,34.3181,1.2093,-1.8581,-0.6222,-35.0644
16:44:26:536,-2.0961,0.2752,5.9031,33.9927,1.3486,-1.8349,-0.7591,-35.2555
16:44:26:559,-2.3857,0.7633,4.5488,34.5279,1.4598,-1.7078,-0.902,-35.3999
16:44:26:573,-2.3809,1.3017,3.46,32.9225,1.45,-1.5185,-0.9668,-35.4957
16:44:26:593,-2.4957,1.9167,3.472,34.7781,1.2778,-1.2986,-0.979,-35.4957
16:44:26:613,-2.5412,2.5436,4.398,33.8867,1.0078,-1.1446,-0.968,-35.4957
16:44:26:636,-2.747,3.0437,5.2738,33.4975,0.8013,-1.0432,-0.9631,-35.4957
16:44:26:659,-3.472,3.6538,5.8935,35.106,0.7231,-0.9333,-0.9704,-35.4957
16:44:26:676,-3.9984,4.063,6.1663,33.6292,0.706,-0.8331,-0.9228,-35.3871
16:44:26:695,-4.3454,4.41,6.2022,32.324,0.7219,-0.7207,-0.8165,-35.2472
16:44:26:715,-4.0128,4.5416,5.5872,31.5584,0.7377,-0.5985,-0.6723,-35.08
16:44:26:736,-3.9171,4.7282,5.1829,32.8635,0.6779,-0.4629,-0.5428,-34.8914
16:44:26:758,-4.0654,4.8526,5.19,32.8567,0.513,-0.3199,-0.45,-34.6867
16:44:26:773,-4.2281,4.6205,5.3791,31.8662,0.2991,-0.1782,-0.3596,-34.47
16:44:26:793,-4.5464,4.4746,5.4843,32.1156,0.0878,-0.0231,-0.2936,-34.245
16:44:26:816,-4.1396,4.1779,5.3097,32.0327,-0.1394,0.1296,-0.2301,-34.017
16:44:26:836,-4.1683,4.3406,6.0826,32.6295,-0.4021,0.3434,-0.2203,-33.789
16:44:26:858,-4.8144,4.41,7.0253,31.5978,-0.666,0.523,-0.2606,-33.5608
16:44:26:875,-7.6259,4.3454,9.1741,31.624,-0.9458,0.8456,-0.2545,-33.3321
16:44:26:892,-7.949,4.0056,10.3035,32.6542,-1.0117,0.9787,-0.0407,-32.8893
16:44:26:914,-7.2861,2.7757,11.2319,31.7636,-1.1095,0.8847,0.2525,-32.6975
16:44:26:935,-6.3721,1.9908,11.8995,32.6167,-1.1791,0.6049,0.4394,-32.5378
16:44:26:956,-5.872,1.4213,12.3206,33.0355,-1.0814,0.4815,0.5005,-32.411
16:44:26:974,-5.7858,1.0887,11.8421,34.3081,-0.7699,0.611,0.4956,-32.3129
16:44:26:992,-5.2498,1.1414,10.0044,30.5348,-0.4314,0.7185,0.4736,-32.3129
16:44:27:012,-4.7785,1.596,8.4275,30.5348,-0.2921,0.6623,0.4333,-32.3129
16:44:27:034,-4.3932,2.1152,6.9894,31.5843,-0.2824,0.611,0.3967,-32.3129
16:44:27:056,-3.8644,2.5819,5.6782,32.4597,-0.2873,0.6977,0.4187,-32.3129
16:44:27:078,-3.5557,2.924,4.8622,32.5871,-0.3606,0.8297,0.4663,-32.3129
16:44:27:094,-3.4289,3.0652,4.8431,31.4904,-0.545,0.8981,0.5237,-32.3129
16:44:27:114,-3.1322,3.0556,4.9005,32.4433,-0.7735,0.8676,0.6056,-32.3129
16:44:27:136,-3.1466,3.0269,5.2786,31.8107,-0.9629,0.848,0.7009,-32.3129
16:44:27:154,-2.8953,2.7278,6.0491,32.3053,-1.1241,0.8529,0.812,-32.4334
16:44:27:176,-2.388,2.5819,6.9248,32.5055,-1.2365,0.8126,0.911,-32.5968
16:44:27:196,-1.9047,2.3378,7.279,32.5983,-1.2475,0.7674,0.9574,-32.8029
16:44:27:215,-1.5577,2.3258,7.5254,33.0262,-1.1987,0.7588,0.9562,-33.0502
16:44:27:237,-1.1414,2.3857,8.2959,33.0521,-1.1779,0.7649,0.9086,-33.3364
16:44:27:257,-1.0313,2.613,9.2124,32.0285,-1.14,0.7417,0.8096,-33.6585
16:44:27:275,-1.3256,3.0604,9.5689,31.6967,-1.0276,0.7051,0.6728,-34.0078
16:44:27:293,-1.6295,3.3906,9.923,32.4337,-0.9067,0.6391,0.5665,-34.3782
16:44:27:315,-1.2754,3.6275,9.9039,32.7831,-0.8028,0.5194,0.5237,-34.7657
