Time,Acc_X,Acc_Y,Acc_Z,Meg,Gyr_X,Gyr_Y,Gyr_Z,Ore
16:11:43:078,-0.2513,6.396,3.2925,37.9826,-0.2494,-0.3224,-0.2582,52.755
16:11:43:079,-2.0028,7.0469,6.4128,37.7497,-0.2494,-0.3224,-0.2582,53.0975
16:11:43:081,-2.2756,7.0421,6.3051,38.1815,-0.3777,-0.6315,-0.1433,53.5806
16:11:43:081,-2.3617,7.1139,6.3793,38.1889,-0.3813,-0.8086,-0.2105,54.1505
16:11:43:082,-1.8808,7.1187,6.8674,37.4865,-0.3789,-0.8563,-0.213,54.7366
16:11:43:084,-1.3448,6.9535,7.547,33.349,-0.3068,-0.7182,-0.169,55.3146
16:11:43:084,-1.3831,6.8554,7.1689,34.801,-0.1468,-0.4995,-0.1653,55.8899
16:11:43:096,-1.9119,6.9512,6.7717,33.6518,-0.0185,-0.3114,-0.2142,56.4763
16:11:43:112,-2.0387,6.9559,6.2022,35.6952,0.0035,-0.2357,-0.2191,57.0684
16:11:43:134,-1.8855,6.8866,6.0849,34.2429,-0.0783,-0.1318,-0.1763,57.6586
16:11:43:152,-1.8927,6.9368,6.5922,36.2755,-0.2152,-0.1025,-0.1507,58.2418
16:11:43:171,-1.943,6.8889,6.6784,35.3506,-0.2775,-0.1293,-0.1409,58.8177
16:11:43:192,-1.9597,6.8889,6.2189,34.5747,-0.2677,-0.0756,-0.1091,59.382
16:11:43:212,-1.9765,6.8172,6.1161,34.9483,-0.3459,0.0759,-0.0798,59.9334
16:11:43:232,-2.1942,6.6377,6.9224,33.7599,-0.4754,0.1712,-0.0444,60.4721
16:11:43:253,-2.2325,6.5994,7.6666,35.3798,-0.4607,0.0417,0.0106,60.998
16:11:43:273,-2.0172,6.5635,7.3819,34.4844,-0.2567,-0.2686,0.0717,61.5077
16:11:43:292,-1.8568,6.475,6.9392,34.4663,-0.0673,-0.5301,0.0925,62.0025
16:11:43:312,-1.9286,6.5731,6.4463,34.0548,-0.0246,-0.5631,0.0937,62.4804
16:11:43:332,-1.5338,6.8411,6.4965,35.265,-0.0588,-0.381,0.1658,62.9334
16:11:43:352,-0.9308,6.8387,6.8794,34.0987,-0.0979,-0.2686,0.2647,63.3543
16:11:43:372,-1.1103,6.8866,6.8626,35.981,-0.1333,-0.2894,0.1987,63.7493
16:11:43:392,-1.2945,6.7645,7.2263,33.1921,-0.1187,-0.2515,0.0753,64.1276
16:11:43:412,-1.2682,6.6257,7.3053,34.4663,-0.0588,-0.1599,0.0607,64.4923
16:11:43:432,-1.2825,6.5324,7.2909,34.1589,0.0145,-0.0732,0.0692,64.8433
16:11:43:453,-1.675,6.5587,6.9846,37.502,0.0634,0.0918,0.0399,65.1848
16:11:43:471,-1.7779,6.5683,6.8578,33.5521,0.0108,0.1247,0.0815,65.8391
16:11:43:491,-1.5721,6.5994,7.0636,34.2913,-0.0368,0.0771,0.1425,66.1463
16:11:43:511,-1.3017,6.5157,7.2239,36.1738,-0.0271,-0.0072,0.1658,66.4365
16:11:43:532,-1.4022,6.5539,6.9918,35.9811,0.023,0.027,0.1413,66.7129
16:11:43:555,-1.5888,6.6018,6.9799,34.8829,0.0524,0.1504,0.1254,66.9777
16:11:43:581,-1.6223,6.6305,7.1689,35.0088,0.0414,0.1638,0.1682,67.2296
16:11:43:594,-1.3472,6.7454,7.0062,37.2722,0.0805,0.0881,0.2061,67.4661
16:11:43:614,-1.1031,6.7932,6.6114,34.7094,0.1245,-0.0108,0.189,67.6856
16:11:43:633,-1.127,6.786,6.5037,36.4039,0.0866,-0.0096,0.1389,67.891
16:11:43:654,-1.3376,6.7597,6.7358,35.8842,0.0145,0.0673,0.1022,68.0861
16:11:43:676,-1.5888,6.6473,7.054,35.9811,-0.0246,0.1028,0.0986,68.2722
16:11:43:696,-1.6319,6.5396,7.121,33.6278,0.0047,0.0466,0.1144,68.4505
16:11:43:715,-1.6391,6.6473,6.8674,35.3078,0.0878,-0.0438,0.1303,68.6198
16:11:43:734,-1.5099,6.7884,6.8842,36.0567,0.1342,-0.089,0.1462,68.7802
16:11:43:762,-1.4046,6.786,6.9416,35.207,0.1611,-0.0426,0.1718,68.9299
16:11:43:778,-1.328,6.9129,6.6353,35.0088,0.1892,0.0209,0.1755,69.07
16:11:43:793,-1.5362,6.7789,6.5922,36.5504,0.1464,0.0307,0.1364,69.2032
16:11:43:812,-2.0411,6.6855,6.8435,32.5572,0.0646,0.049,0.0998,69.332
16:11:43:832,-2.1081,6.743,6.4845,35.0524,0.0487,0.1089,0.1499,69.4558
16:11:43:854,-1.9693,6.8124,6.6066,33.6718,0.0291,0.1809,0.2464,69.567
16:11:43:876,-1.8233,6.9535,6.865,35.3814,0.0573,0.148,0.2904,69.6657
16:11:43:894,-1.9836,6.7813,6.5874,35.8004,0.1428,0.0722,0.2659,69.6657
16:11:43:913,-2.8355,6.6138,5.6806,36.5451,0.0805,0.2115,0.2769,69.6657
16:11:43:932,-2.735,6.4367,5.6303,35.3096,-0.0893,0.3764,0.4028,69.6657
16:11:43:956,-2.8499,6.2477,6.0084,34.6565,-0.2359,0.512,0.4858,69.6657
16:11:43:979,-3.1011,6.2381,6.2261,34.1296,-0.2934,0.5707,0.5359,69.6657
16:11:43:995,-3.1753,6.3386,6.2764,35.4173,-0.2811,0.5365,0.5934,69.6657
16:11:44:011,-2.9767,6.4128,6.7143,35.4794,-0.2775,0.4607,0.652,69.6657
16:11:44:033,-2.6584,6.2859,6.8435,36.5964,-0.2775,0.4949,0.718,69.6657
16:11:44:054,-2.4909,6.1783,6.9942,34.4944,-0.3068,0.6098,0.7742,69.6657
16:11:44:079,-2.589,6.0443,7.2646,35.0031,-0.363,0.7478,0.823,69.5561
16:11:44:093,-2.7805,6.0754,7.5015,35.8627,-0.3764,0.8737,0.878,69.414
16:11:44:113,-2.7374,6.1926,7.4512,35.673,-0.3166,0.9079,0.9391,69.2373
16:11:44:134,-2.2923,6.396,7.5829,36.6723,-0.2677,0.8126,0.9819,69.0236
16:11:44:154,-1.986,6.8195,8.5208,34.6557,-0.2836,0.7271,0.9806,68.7729
16:11:44:174,-1.9645,7.681,9.6598,35.3765,-0.2677,0.7442,0.9587,68.4874
16:11:44:195,-2.0722,8.4467,10.3059,34.0648,-0.0991,0.8492,0.9,68.1712
16:11:44:214,-2.3617,8.8128,10.1504,32.3389,0.1929,0.9421,0.7619,67.835
16:11:44:231,-2.5651,9.1119,9.3823,33.7526,0.4714,0.9543,0.6031,67.4882
16:11:44:252,-2.5675,9.655,9.5067,36.0597,0.5863,0.7283,0.4785,67.1376
16:11:44:273,-1.5745,10.2939,10.2413,36.6716,0.6119,0.3288,0.36,66.7848
16:11:44:295,-1.6702,9.9709,10.2533,38.0907,0.8318,0.2909,0.1535,66.4422
16:11:44:313,-2.5388,9.7795,7.8652,37.2862,1.1556,0.3459,-0.1372,66.1303
16:11:44:333,-4.3334,9.6407,6.195,35.9812,1.1238,0.2286,-0.2973,65.8634
16:11:44:356,-2.144,8.7434,4.6828,37.5548,0.6595,-0.1184,-0.0786,65.6169
16:11:44:376,-4.5272,11.4903,8.5711,36.6673,0.0621,-0.827,-0.1067,65.1785
16:11:44:396,-2.0411,10.5164,9.3081,38.9138,0.0084,-1.7054,0.0069,64.9757
16:11:44:412,-1.8377,11.2295,10.7462,37.5029,0.2368,-1.9229,-0.1336,64.7877
16:11:44:432,0.9787,10.3226,7.8867,36.7406,1.1544,-0.9846,-0.5905,64.6375
16:11:44:459,-0.0742,10.0522,5.7643,38.8417,1.6834,-0.7903,-1.2013,64.6375
16:11:44:473,-0.9667,8.3055,7.1641,37.7315,1.428,-1.064,-1.3931,64.6375
16:11:44:492,-1.6654,6.4678,9.2794,39.4384,1.1971,-1.1972,-1.2099,64.7409
16:11:44:510,-0.4427,5.6614,6.5228,39.0018,1.4879,-1.2057,-0.8898,64.9105
16:11:44:531,1.4261,5.9581,1.1486,38.7419,1.8532,-1.1568,-0.4683,65.121
16:11:44:551,5.1015,6.1519,1.1653,38.0926,1.428,-1.4696,-0.3083,65.3413
16:11:44:571,5.5872,5.0321,5.8744,38.8059,0.9845,-2.2405,-1.0303,65.6116
16:11:44:591,4.13,1.5793,4.9555,40.1203,1.2374,-3.235,-2.1115,65.6116
16:11:44:611,3.6514,2.8163,1.3089,37.612,1.538,-3.4928,-2.8311,65.6116
16:11:44:633,5.3575,2.8786,-2.4526,37.8501,0.9308,-3.2997,-2.8079,65.6116
16:11:44:653,3.6275,2.9815,-1.0002,37.2047,-0.589,-2.761,-2.4768,65.6116
16:11:44:674,-2.3857,2.2397,0.8255,38.2486,-2.2836,-1.5881,-1.7902,65.6116
16:11:44:694,-4.8646,-0.0838,2.9695,39.0502,-3.6042,0.4961,-0.0187,65.6116
16:11:44:712,-7.9705,-1.8281,4.0893,39.4081,-4.3593,3.0227,1.8982,65.6116
16:11:44:733,-5.8026,-3.9936,3.9338,39.6133,-4.9127,5.6237,3.5255,65.6116
16:11:44:754,0.5192,-4.4459,12.4283,38.2172,-5.7936,7.3183,4.7509,65.6116
16:11:44:775,4.3406,-1.3328,22.2844,40.1096,-5.581,6.5828,4.4638,65.6116
16:11:44:792,1.9454,0.5097,18.0993,38.5212,-3.0178,4.5229,3.0893,65.6116
16:11:44:811,0.1651,1.6319,7.5015,39.478,-0.2677,3.1497,2.1987,65.6116
16:11:44:833,-1.5434,3.7639,3.4002,37.268,0.2258,3.4381,2.3954,65.6116
16:11:44:851,-1.5936,5.5083,5.1613,39.2064,-0.3447,2.7515,2.4162,65.6116
16:11:44:873,-2.2493,6.9966,5.3886,38.8931,-0.363,1.0484,2.068,65.0696
16:11:44:891,-0.8542,6.6449,5.5298,38.2447,-0.1565,-0.1782,1.8933,64.4637
16:11:44:912,0.5288,8.9372,6.9464,38.2665,0.2491,0.1871,1.8016,63.7991
16:11:44:934,1.2706,10.7127,7.7049,38.2078,0.4714,0.4009,1.6831,63.0816
16:11:44:956,0.7896,9.9159,5.7834,38.229,0.6241,0.0527,1.4767,62.3247
16:11:45:110,0.6221,9.6526,3.5916,38.7987,0.7316,-0.2283,1.1871,61.5437
16:11:45:111,-1.5194,9.3631,2.2899,38.843,0.5679,-0.6413,0.8853,60.7541
16:11:45:111,-1.8688,10.3561,2.3689,41.1465,0.0059,-0.849,0.911,59.9458
16:11:45:112,1.1868,11.1362,6.9009,38.4357,-0.6061,-0.4788,1.4241,59.078
16:11:45:113,4.0295,9.8465,8.5591,37.0012,-1.1034,-0.8709,1.6379,58.1317
16:11:45:113,2.7087,9.8297,9.7699,35.6065,-0.7002,-0.3835,1.1089,57.1444
16:11:45:114,0.4235,10.4327,6.6616,36.1385,0.067,-0.359,0.6056,56.1536
16:11:45:115,-0.9356,10.8754,4.812,36.2993,0.3847,-0.9503,0.4101,55.1738
16:11:45:132,-1.4931,9.8704,4.7378,36.3525,0.2613,-1.1935,0.4773,54.2008
16:11:45:152,-0.4738,8.5376,4.8814,32.6598,0.1232,-0.9088,0.7082,53.2221
16:11:45:171,-0.3852,8.8415,4.1228,37.3893,0.1012,-0.6498,0.8096,52.2314
16:11:45:192,0.1723,9.7843,3.6873,35.8283,0.1049,-0.4959,0.8316,51.2274
16:11:45:213,1.2347,9.7125,3.7041,36.6242,-0.06,-0.2479,0.8304,50.2077
16:11:45:234,1.2108,8.7242,4.0965,36.1699,-0.4204,-0.089,0.7216,49.1795
16:11:45:254,0.7777,8.3868,5.6399,37.2681,-0.6281,0.2432,0.5335,48.1555
16:11:45:274,0.0144,9.1741,7.3005,35.125,-0.6611,0.0148,0.3734,46.1452
16:11:45:292,0.4786,8.9922,8.4921,39.5983,-0.5463,-0.0939,0.393,45.1603
16:11:45:310,0.8853,8.1859,8.6788,37.5903,-0.2421,-0.2247,0.2782,44.1914
16:11:45:333,0.4475,7.8891,7.5661,36.7839,0.1403,-0.3712,0.0424,43.249
16:11:45:355,-0.3565,8.4251,6.8411,37.5315,0.3187,-0.37,-0.1274,42.3408
16:11:45:375,-0.6939,8.3892,7.1737,36.1802,0.2454,-0.232,-0.1213,41.4669
16:11:45:396,-0.4235,7.8317,8.0255,37.3417,0.1587,-0.0402,-0.0285,40.6222
16:11:45:411,-0.2895,7.736,7.6283,36.2044,0.2772,0.1247,0.0191,39.8019
16:11:45:431,-0.3924,7.858,6.3793,35.2409,0.4629,0.2518,0.0375,39.004
16:11:45:455,-0.3446,7.9322,5.2379,35.3684,0.4629,0.3056,0.0436,38.2268
16:11:45:476,-0.4427,7.791,5.3145,36.0445,0.2124,0.3349,0.0424,37.4714
16:11:45:491,-0.5886,7.6618,6.7549,37.8402,-0.1626,0.2494,-0.0175,36.7418
16:11:45:511,-0.7394,7.4656,7.6523,37.8395,-0.3337,0.1919,-0.1091,36.0421
16:11:45:531,-1.3543,7.3101,8.0375,34.8286,-0.2384,0.3447,-0.1617,35.3749
16:11:45:552,-1.261,7.279,7.9705,35.9443,-0.0735,0.4815,-0.1067,34.7353
16:11:45:574,-0.5791,6.9799,7.724,35.0169,0.0817,0.5377,0.0179,34.1156
16:11:45:591,-0.2058,6.719,7.5111,36.4758,0.199,0.5487,0.0643,33.5116
16:11:45:611,-0.4594,6.6497,7.3412,35.6897,0.2601,0.4839,0.0289,32.9252
16:11:45:631,-0.6221,6.597,7.7719,37.6634,0.3028,0.4277,0.0253,32.3564
16:11:45:653,-0.3087,6.1424,7.9992,36.8988,0.3883,0.3886,0.1157,31.7995
16:11:45:673,0.1579,5.7356,7.3866,36.1075,0.5252,0.3251,0.2293,31.2475
16:11:45:692,0.536,5.5729,6.2955,36.1666,0.5753,0.275,0.3136,30.6946
16:11:45:712,0.7155,5.6566,6.2955,36.1666,0.3944,0.2139,0.3197,30.1402
16:11:45:735,0.8088,5.7547,6.7454,35.6335,-0.0576,0.2665,0.2879,29.5861
16:11:45:754,0.8997,6.0251,7.0301,38.8633,-0.0979,0.4619,0.3563,28.4753
16:11:45:781,0.9165,6.2644,6.7765,38.1274,-0.0503,0.5389,0.4138,27.9113
16:11:45:793,0.6221,6.5731,6.4247,37.4175,-0.0539,0.3703,0.382,27.3429
16:11:45:812,0.2728,6.8578,6.8052,36.1666,-0.1199,0.0808,0.294,26.7756
16:11:45:832,0.5145,6.9416,7.4202,36.0777,-0.1455,-0.2796,0.2745,26.2108
16:11:45:856,1.0026,6.9512,7.3842,36.2353,-0.06,-0.5728,0.3087,25.6456
16:11:45:873,1.5864,6.9344,7.1258,37.5199,0.0072,-0.783,0.2843,25.0806
16:11:45:894,1.8329,6.8746,6.6879,35.5152,-0.0515,-0.8025,0.1633,24.5211
16:11:45:912,1.7252,6.6736,7.3914,34.9118,-0.1883,-0.5545,0.0485,23.974
16:11:45:933,1.6391,6.2836,8.5831,35.6307,-0.2934,-0.4812,-0.0468,23.4449
16:11:45:955,1.6726,5.9581,8.7218,36.4752,-0.2017,-0.6181,-0.1763,22.9394
16:11:45:973,1.6271,5.6662,8.0973,36.723,0.0487,-0.6144,-0.2997,22.4616
16:11:45:996,1.6008,5.4054,6.6736,36.5473,0.2393,-0.4067,-0.4524,22.0171
16:11:46:014,0.5934,5.013,5.2714,37.3034,0.1574,-0.0756,-0.6552,21.6163
16:11:46:032,-1.1677,6.0275,5.7715,36.5104,-0.2983,-0.0011,-0.7847,21.2701
16:11:46:051,-0.8686,6.6473,7.0971,35.2281,-0.7149,-0.1465,-0.5758,20.967
16:11:46:073,0.6269,7.011,7.3244,37.9606,-0.6574,-0.1318,-0.1751,20.683
16:11:46:094,1.3974,7.5805,5.9629,36.8459,-0.2787,-0.0133,-0.0163,20.4065
16:11:46:112,1.2227,8.1069,4.7067,35.111,-0.0612,0.0197,-0.1372,20.1428
16:11:46:133,0.4953,8.3246,4.7498,37.068,-0.1871,-0.1013,-0.3987,19.905
16:11:46:155,0.0742,8.2313,5.7212,36.4857,-0.4901,-0.4213,-0.6393,19.7047
16:11:46:174,0.1651,7.9274,7.011,37.6709,-0.7222,-0.7219,-0.7249,19.5454
16:11:46:196,0.6485,7.2909,8.9779,38.6725,-0.6965,-0.9149,-0.5929,19.4233
16:11:46:212,0.6269,7.1521,8.9444,36.3483,-0.4791,-0.8832,-0.5208,19.4233
16:11:46:232,0.6628,7.0756,8.4586,35.9731,-0.2421,-0.7903,-0.4072,19.4233
16:11:46:254,0.6963,6.999,7.8174,35.1673,-0.1015,-0.6767,-0.2753,19.4233
16:11:46:277,0.9715,7.0134,7.6762,37.2092,-0.0783,-0.6058,-0.1287,19.4233
16:11:46:294,1.4022,7.066,7.602,37.3065,-0.0845,-0.6168,-0.0016,19.4233
16:11:46:311,1.8353,6.9894,7.669,35.7496,-0.0246,-0.6718,0.0595,19.4233
16:11:46:332,2.1846,6.999,7.1665,37.7252,0.1086,-0.772,0.0228,19.4233
16:11:46:372,2.1272,6.944,6.6688,36.783,0.2271,-0.827,-0.0896,19.4233
16:11:46:373,2.1344,6.6951,6.6257,37.8583,0.2649,-0.7903,-0.1946,19.4233
16:11:46:390,2.1607,6.609,6.4343,39.3959,0.2576,-0.7695,-0.274,19.4233
16:11:46:409,1.8975,6.7047,5.8026,38.3547,0.2637,-0.7072,-0.3767,19.4233
16:11:46:429,1.3639,6.932,5.0584,37.4707,0.2698,-0.557,-0.4976,19.4233
16:11:46:451,0.8495,7.6379,4.1372,37.3496,0.144,-0.5118,-0.5587,19.4233
16:11:46:470,0.6102,8.1356,3.795,36.9916,-0.148,-0.5838,-0.5367,19.4233
16:11:46:490,0.658,8.0016,4.4076,37.331,-0.5903,-0.717,-0.4634,19.4233
16:11:46:514,0.6628,7.6235,7.1521,36.9752,-0.9849,-0.651,-0.3816,19.5269
16:11:46:532,1.0265,7.3986,9.2507,35.7819,-1.0325,-0.6388,-0.3119,19.6512
16:11:46:552,1.5721,7.0181,9.813,36.3767,-0.6929,-0.7219,-0.2508,19.7892
16:11:46:572,2.2086,6.6784,9.21,37.8981,-0.1614,-0.7903,-0.2007,19.9331
16:11:46:593,3.0867,6.6808,7.5709,37.9233,0.2918,-0.8208,-0.1494,20.0746
16:11:46:614,3.795,6.7836,6.4223,37.8981,0.4739,-0.717,-0.1311,20.3396
16:11:46:634,3.7065,6.5994,5.5872,38.2145,0.1367,-0.3627,-0.4048,20.4786
16:11:46:658,2.6632,6.6903,6.1065,37.6276,-0.0612,-0.1245,-0.6149,20.6371
16:11:46:673,1.9789,6.5372,6.2357,36.7027,-0.1138,-0.1037,-0.7163,20.8221
16:11:46:692,1.5625,6.4726,5.805,37.627,-0.0319,-0.3065,-0.7518,21.0339
16:11:46:711,1.1844,6.7621,5.2929,36.714,0.0475,-0.4922,-0.7334,21.2703
16:11:46:730,1.1174,6.9176,5.1709,38.6945,0.0487,-0.5313,-0.5954,21.5245
16:11:46:752,1.3639,6.9894,5.1924,37.1797,-0.0148,-0.5179,-0.4109,21.7888
16:11:46:773,1.6989,7.1809,5.6327,37.1803,-0.1138,-0.5069,-0.2838,22.0577
16:11:46:792,1.8784,7.3675,6.2692,36.9732,-0.1956,-0.4348,-0.2411,22.3303
16:11:46:811,1.6558,7.7049,6.4463,36.2605,-0.1541,-0.3444,-0.235,22.6048
16:11:46:830,1.6104,7.9537,5.9222,38.389,-0.0051,-0.2809,-0.2154,22.8792
16:11:46:851,1.5936,8.1356,5.2475,37.4117,0.0866,-0.2772,-0.2215,23.1532
16:11:46:872,1.5601,8.0758,5.3839,35.926,0.0316,-0.2417,-0.2789,23.4301
16:11:46:894,1.2682,7.9107,5.7595,38.1589,-0.0661,-0.1477,-0.3608,23.715
16:11:46:913,1.1127,7.7384,5.9079,38.5605,-0.104,-0.0377,-0.4133,24.0109
16:11:46:931,1.0217,7.4967,5.9916,36.903,-0.0661,0.0527,-0.4207,24.3172
16:11:46:952,0.8829,7.3651,5.9701,36.3195,-0.0197,0.0527,-0.417,24.6334
16:11:46:972,0.9906,7.2885,5.9031,37.9403,0.034,0.0563,-0.3865,24.9573
16:11:46:995,1.1438,7.2287,5.7906,39.0501,0.0487,0.1235,-0.3425,25.2857
16:11:47:160,0.993,7.2718,6.0132,36.9425,0.0072,0.2469,-0.3168,25.6185
16:11:47:161,0.792,7.3196,6.5133,38.5605,-0.0246,0.3166,-0.2838,25.9543
16:11:47:162,1.0648,7.4776,6.4391,37.627,0.0414,0.2738,-0.246,26.2904
16:11:47:163,1.1079,7.7695,5.8648,38.0059,0.1477,0.1846,-0.2508,26.6258
16:11:47:164,1.5745,8.0016,5.4413,37.6388,0.1733,-0.028,-0.3119,27.2974
16:11:47:165,1.7276,8.083,5.5059,37.0045,0.1403,-0.0964,-0.3767,27.6394
16:11:47:166,1.4453,7.7958,6.329,37.9331,0.0157,-0.1171,-0.4622,27.9911
16:11:47:168,1.0552,7.5422,6.8818,35.8738,-0.049,-0.188,-0.5502,28.3576
16:11:47:177,0.6293,7.3699,6.743,37.4407,-0.0515,-0.2344,-0.5856,28.7409
16:11:47:196,0.0838,7.3101,6.7478,35.6298,-0.0759,-0.1318,-0.5331,29.1389
16:11:47:212,-0.4187,7.3962,6.7597,36.7422,-0.1162,-0.0243,-0.4219,29.5468
16:11:47:230,-0.6102,7.5278,6.5635,36.5123,-0.1651,-0.0426,-0.3339,29.96
16:11:47:252,-0.8447,7.3172,6.061,38.3716,-0.3056,-0.1049,-0.307,30.378
16:11:47:272,-1.4237,6.8746,7.2431,33.259,-0.6391,-0.2442,-0.2973,30.8027
16:11:47:292,-1.4357,6.451,9.3488,37.0045,-0.8541,-0.4861,-0.2264,31.2328
16:11:47:311,-1.06,6.0969,9.7077,36.1323,-0.611,-0.6071,-0.0749,31.6593
16:11:47:331,-0.8351,6.3673,7.5829,36.5152,-0.0735,-0.3957,0.0973,32.0709
16:11:47:353,-0.6652,6.92,4.5416,35.0385,0.2246,-0.0035,0.2427,32.4583
16:11:47:374,-0.7226,7.0181,3.3619,34.6126,-0.0002,0.1736,0.261,32.8226
16:11:47:392,-1.048,6.4941,5.1517,38.7411,-0.5658,-0.1318,0.1132,33.1752
16:11:47:410,-1.0265,5.726,7.4584,34.8433,-0.9739,-0.6449,-0.0847,33.5288
16:11:47:432,-0.6604,5.2666,8.1404,38.2892,-0.9824,-0.866,-0.0908,33.8842
16:11:47:455,-0.2034,5.537,7.6211,37.1708,-0.7857,-0.7549,0.0191,34.235
16:11:47:473,0.2177,5.7811,7.1904,37.7607,-0.655,-0.5496,0.123,34.5756
16:11:47:492,0.0431,6.2859,6.3051,37.0945,-0.721,-0.5533,0.1303,34.9053
16:11:47:511,0.0646,6.1041,6.1424,37.4112,-0.9287,-0.7781,0.1499,35.2256
16:11:47:532,-0.1986,5.3695,6.2859,37.2853,-1.2158,-1.0481,0.2012,35.5387
16:11:47:555,0.1484,4.3095,9.667,38.8703,-1.2133,-0.0365,0.3869,36.1435
16:11:47:578,0.8231,5.0393,9.5186,37.1432,-0.7417,0.0795,0.4247,36.4226
16:11:47:590,1.4716,5.6016,8.1739,38.1636,-0.1492,-0.0328,0.3282,36.6818
16:11:47:610,1.6104,6.0586,8.5783,36.1928,0.3016,-0.1562,0.1108,36.9259
16:11:47:632,1.3974,5.9725,7.8748,37.102,0.5203,-0.4702,-0.158,37.1635
16:11:47:657,0.0574,6.1113,8.0375,35.5679,0.4641,-0.7585,-0.4011,37.4063
16:11:47:671,-0.3757,6.384,7.6666,36.8583,0.5301,-0.6742,-0.3119,37.65
16:11:47:690,1.1414,6.3386,6.3601,35.407,0.6864,-0.2014,0.0851,37.8756
16:11:47:711,1.3328,6.8004,6.8842,35.407,0.3688,0.049,-0.0004,38.0902
16:11:47:732,1.1007,6.9942,9.2722,35.407,-0.0014,-0.2772,-0.224,38.3081
16:11:47:753,1.0552,7.267,9.2291,35.407,0.1318,-0.7891,-0.2484,38.5289
16:11:47:773,1.6965,7.1306,8.0447,35.407,0.5166,-0.8428,-0.3547,38.7508
16:11:47:792,1.8664,7.2168,7.2933,37.2774,0.541,-0.8013,-0.494,38.9781
16:11:47:811,2.053,7.0995,9.6144,38.6679,0.177,-0.7744,-0.5477,39.2193
16:11:47:831,2.1368,6.9033,12.0191,38.2523,-0.0381,-0.7903,-0.4989,39.4756
16:11:47:856,0.8183,6.4367,11.7248,34.5509,0.1831,-0.8074,-0.1702,39.7325
16:11:47:873,5.001,7.5206,11.7607,36.3369,0.4531,-0.3761,0.7229,39.9466
16:11:47:896,6.0945,6.9392,8.5065,36.3891,0.8147,-0.0023,0.9855,40.1003
16:11:47:913,4.6038,7.7336,7.7791,37.7623,0.7988,0.104,0.0253,40.2339
16:11:47:933,2.9839,6.7717,9.0257,37.3242,0.3114,0.0844,-0.5025,40.3787
16:11:47:953,3.4505,6.0132,10.1527,37.2968,0.0585,-0.0353,-0.4952,40.5392
16:11:47:978,3.5749,5.2522,10.1695,37.7849,0.1037,0.1113,-0.4426,40.8899
16:11:47:994,2.6728,4.4578,8.6213,37.405,0.5117,0.6464,-0.2154,41.0657
16:11:48:011,2.5244,4.4913,6.8411,36.4666,0.8391,0.6,-0.0651,41.2286
16:11:48:032,2.01,4.5392,4.8861,37.4054,1.092,0.1883,0.1877,41.363
16:11:48:055,2.7135,5.1015,4.0175,37.3274,1.1202,-0.2405,0.448,41.4557
16:11:48:075,3.606,5.5872,3.5916,36.9445,0.9283,-0.5044,0.4932,41.4557
16:11:48:093,3.2016,5.8026,3.3571,37.8805,0.6363,-0.5997,0.1975,41.4557
16:11:48:111,2.0674,5.671,4.0319,38.8837,0.315,-0.5118,-0.0248,41.4557
16:11:48:130,1.4883,5.4532,4.2664,37.5459,0.0499,-0.4323,-0.0041,41.4557
16:11:48:154,1.6439,5.6351,4.0654,39.1998,-0.1284,-0.3175,0.145,41.4557
16:11:48:173,1.8305,6.0634,4.9268,37.984,-0.2738,-0.0389,0.2085,41.4557
16:11:48:198,2.3186,6.2213,5.6112,37.3053,-0.3667,0.2848,0.1792,41.4557
16:11:48:211,2.6034,6.5133,4.9364,37.4054,-0.3496,0.5047,0.0912,41.4557
16:11:48:233,2.2445,7.0038,5.2427,37.8167,-0.3972,0.7478,-0.0297,41.4557
16:11:48:254,1.9813,7.2933,6.5635,38.8218,-0.4913,0.859,-0.1189,41.4557
16:11:48:278,2.0818,7.066,7.5159,36.9333,-0.3459,0.5841,-0.2203,41.4557
16:11:48:296,2.1942,7.389,6.8626,36.5345,0.0988,0.1834,-0.3559,41.4557
16:11:48:311,1.584,7.7958,5.3432,36.4351,0.4934,-0.1,-0.4854,41.4557
16:11:48:331,1.1557,7.9035,4.3382,37.9836,0.5765,-0.0585,-0.5257,41.4557
16:11:48:354,0.7035,8.138,4.5344,37.7085,0.4348,0.2372,-0.4585,41.5468
16:11:48:372,0.8183,8.6716,5.5944,38.1975,0.2491,0.4387,-0.3999,41.6487
16:11:48:392,1.261,8.7721,6.0036,37.5716,0.177,0.3019,-0.4231,41.8934
16:11:48:409,0.67,8.7314,7.1785,38.8099,0.1147,-0.3383,-0.5892,42.047
16:11:48:429,-0.0383,8.7482,6.7717,40.0204,0.0927,-0.5215,-0.5856,42.2229
16:11:48:450,-0.0024,9.3583,7.1234,36.8754,-0.049,-0.3786,-0.4158,42.4156
16:11:48:470,0.4211,9.3799,8.5137,38.15,-0.2433,-0.0206,-0.2093,42.6159
16:11:48:490,0.9691,9.0688,9.746,36.2418,-0.214,0.2799,-0.114,42.8193
16:11:48:510,1.3208,8.6166,9.8632,38.1142,0.0829,0.3764,-0.1946,43.0254
16:11:48:530,0.4522,7.9394,8.3462,36.991,0.3798,0.2665,-0.3925,43.2408
16:11:48:551,-0.6676,7.5302,8.4826,37.6341,0.2442,0.1138,-0.4903,43.4737
16:11:48:572,-1.0959,6.5539,9.789,38.8964,-0.1333,0.1858,-0.4011,43.7251
16:11:48:591,-1.0385,6.0586,10.4901,36.5545,-0.2372,0.5096,-0.2056,43.9859
16:11:48:611,-0.8853,5.9653,9.8632,38.2003,-0.0881,0.6965,-0.0187,44.2446
16:11:48:631,-0.7011,5.8696,9.1214,36.9852,0.0548,0.6257,0.1132,44.493
16:11:48:655,-0.4427,5.8146,8.0806,36.4667,0.1806,0.4901,0.2366,44.7231
16:11:48:673,0.2249,5.9151,6.92,39.2393,0.2943,0.3728,0.3588,44.9271
16:11:48:692,0.4283,5.7045,5.7691,38.1043,0.2906,0.396,0.4333,45.1017
16:11:48:711,0.3398,5.5322,5.7045,37.2818,0.1672,0.6611,0.5201,45.2436
16:11:48:730,0.39,5.4317,6.2548,36.8951,0.0792,0.8248,0.6459,45.3491
16:11:48:751,0.8686,5.4365,6.0251,37.0077,0.144,0.6061,0.7339,45.3491
16:11:48:770,1.4261,5.3934,5.6997,37.0077,0.2503,0.2762,0.7387,45.3491
16:11:48:790,1.7157,5.4532,5.872,37.9887,0.3077,0.0966,0.6654,45.3491
16:11:48:811,1.5242,5.3527,5.8624,35.5394,0.3431,0.0099,0.5359,45.3491
16:11:48:833,1.1701,5.4485,5.9605,37.2818,0.3944,0.0637,0.4272,45.3491
16:11:48:854,0.7322,5.7667,5.8983,39.2528,0.4873,0.264,0.3771,45.3491
16:11:48:874,0.39,6.1735,5.4556,34.4101,0.6034,0.4473,0.3783,45.2357
16:11:48:895,0.8399,6.4367,5.324,37.3025,0.6595,0.4839,0.415,44.9347
16:11:48:913,1.2706,6.8387,4.5535,37.1332,0.6449,0.1981,0.2745,44.7549
16:11:48:932,1.1749,7.2263,4.8263,37.5831,0.5374,0.1186,0.1572,44.565
16:11:48:954,1.1868,7.4943,5.3192,38.5008,0.4164,0.0307,0.0753,44.3711
16:11:48:975,1.3328,8.0136,4.8694,35.8314,0.3749,-0.0512,0.046,44.1744
16:11:48:994,1.2658,8.796,4.8479,36.2006,0.2869,-0.0341,0.0485,43.9756
16:11:49:010,1.6869,9.2865,5.3097,37.0439,0.1196,-0.0622,0.0595,43.7766
16:11:49:029,2.2947,9.3416,6.14,36.9852,-0.0417,-0.2491,0.0448,43.5797
16:11:49:203,3.3763,9.1047,6.9464,36.7314,-0.1419,-0.4837,-0.0102,43.3881
16:11:49:204,4.0152,8.7649,7.468,38.3343,-0.1797,-0.5228,-0.1055,43.2067
16:11:49:204,4.075,8.4443,7.5087,39.6475,-0.2127,-0.3322,-0.2386,43.0425
16:11:49:205,3.0006,8.2768,7.59,40.076,-0.2323,0.1223,-0.3681,42.9035
16:11:49:205,2.0889,8.351,7.4034,38.1896,-0.2005,0.5303,-0.4035,42.791
16:11:49:206,2.0315,7.7671,6.9033,37.629,-0.1712,0.5377,-0.3571,42.791
16:11:49:207,1.7827,7.1761,6.7573,38.1043,-0.2396,0.1993,-0.3058,42.791
16:11:49:208,1.6319,6.8842,6.9105,38.6006,-0.3862,-0.177,-0.1849,42.791
16:11:49:208,2.01,6.6114,7.1713,36.7448,-0.5023,-0.298,0.0472,42.791
16:11:49:230,2.5412,6.4917,6.8698,37.4428,-0.4913,-0.1391,0.3111,42.791
16:11:49:250,2.9599,6.6138,6.7597,38.9222,-0.3459,0.1272,0.4394,42.6987
16:11:49:274,2.8235,6.4152,5.7763,38.3235,-0.093,0.2298,0.3527,42.5891
16:11:49:289,2.0722,6.3482,4.9627,37.9951,0.1367,0.1626,0.1523,42.4717
16:11:49:310,1.2802,6.2453,4.1635,37.9126,0.3053,0.0112,-0.0248,42.3536
16:11:49:330,0.938,6.2931,3.3835,39.7921,0.3944,-0.1171,-0.0993,42.2386
16:11:49:352,1.0433,6.3697,2.9264,38.1159,0.3737,-0.1306,-0.1152,42.1264
16:11:49:374,0.9882,6.8315,2.7829,37.7886,0.1635,0.0856,-0.2716,42.0201
16:11:49:390,0.4666,7.2622,3.058,37.2706,0.0511,0.148,-0.3974,41.9277
16:11:49:408,0.067,7.7145,3.3763,39.5016,-0.0478,0.1162,-0.4793,41.9277
16:11:49:429,-0.0622,8.0806,3.8931,36.8815,-0.1443,0.0771,-0.4817,41.9277
16:11:49:450,-0.2153,8.4443,4.867,36.8293,-0.2115,0.0478,-0.4488,41.9277
16:11:49:471,-0.2728,8.7553,5.6351,34.3047,-0.1871,-0.0402,-0.395,41.9277
16:11:49:493,-0.3685,9.052,6.0179,38.5899,-0.0661,-0.1196,-0.3205,41.9277
16:11:49:512,-0.2369,9.3177,6.207,39.4088,0.0878,-0.0976,-0.224,41.9277
16:11:49:529,0.268,9.3464,6.2022,39.2553,0.2148,0.0124,-0.158,41.9277
16:11:49:552,0.3876,9.5091,5.8887,39.2553,0.2857,0.082,-0.1849,41.9277
16:11:49:571,-0.2058,9.8369,5.4652,38.1896,0.2332,0.0356,-0.2728,42.018
16:11:49:589,-0.6389,9.9446,5.9725,38.4457,-0.0246,-0.0878,-0.2985,42.123
16:11:49:609,-0.6078,10.0929,7.6929,38.35,-0.2983,-0.0182,-0.1751,42.238
16:11:49:629,-0.5001,10.0762,8.5854,39.4088,-0.2188,0.297,-0.0102,42.3539
16:11:49:652,-0.5599,10.0403,7.6187,39.4088,0.1428,0.4265,0.0472,42.4648
16:11:49:672,-0.4307,9.667,6.8267,39.0293,0.326,0.2176,-0.0004,42.5721
16:11:49:691,-0.1364,8.875,7.1187,39.6648,0.1782,-0.0573,-0.0957,42.681
16:11:49:709,-0.0861,7.9035,8.1571,38.5773,-0.1284,-0.2027,-0.1873,42.8001
16:11:49:729,-0.5599,6.9799,9.0114,38.9838,-0.3716,-0.1404,-0.263,42.935
16:11:49:756,-0.9428,6.1519,9.2219,39.3726,-0.3997,0.1651,-0.2362,43.0842
16:11:49:771,-1.0528,6.006,8.8582,38.2261,-0.2604,0.4961,-0.0883,43.2384
16:11:49:792,-0.4546,6.0921,7.8724,40.0237,-0.093,0.5829,0.101,43.5135
16:11:49:810,0.6269,6.1687,6.1232,38.7311,-0.0466,0.3593,0.2965,43.6229
16:11:49:831,0.4451,6.1567,5.9318,39.4637,-0.0845,0.407,0.3307,43.6229
16:11:49:856,0.4546,6.0323,5.8624,39.3363,-0.0344,0.4363,0.426,43.6229
16:11:49:873,0.7322,5.9342,5.6016,39.0501,0.111,0.3227,0.5359,43.6229
16:11:49:891,1.072,5.9916,4.8646,39.0501,0.3004,0.1101,0.6129,43.6229
16:11:49:910,1.3639,6.1208,4.0558,38.9222,0.414,-0.0524,0.6239,43.6229
16:11:49:929,1.5458,6.1591,3.9386,39.8271,0.3688,-0.1135,0.5665,43.6229
16:11:49:954,1.3998,6.3003,4.4195,39.7921,0.2588,-0.1159,0.459,43.5262
16:11:49:972,1.0146,6.5827,4.6134,40.3351,0.2222,-0.0951,0.3441,43.4118
16:11:49:994,0.4618,7.0181,4.6205,40.5095,0.2356,-0.1049,0.2439,43.2859
16:11:50:011,0.2082,7.1306,4.9436,40.0372,0.2246,-0.1367,0.1768,43.1527
16:11:50:031,0.4068,7.1474,5.5896,40.0373,0.221,-0.2234,0.1486,43.0137
16:11:50:051,0.7394,7.1019,5.7236,39.4078,0.293,-0.2735,0.1157,42.8707
16:11:50:070,0.4116,7.2933,5.1063,40.076,0.4067,-0.2185,0.0411,42.7264
16:11:50:092,0.3326,7.6881,4.5894,39.9102,0.3847,-0.1819,0.0094,42.5824
16:11:50:111,0.3422,8.1069,4.7402,41.1219,0.2039,-0.1709,0.0265,42.4395
16:11:50:131,0.5695,8.6142,4.9819,41.377,0.0145,-0.1404,0.0778,42.2961
16:11:50:151,0.9595,9.5258,5.0177,40.076,-0.1101,-0.1208,0.1108,42.1507
16:11:50:173,1.4094,9.7579,5.482,40.9599,-0.2433,-0.1538,0.0802,42.0063
16:11:50:190,1.864,9.4277,6.4822,41.764,-0.4082,-0.2625,0.0082,41.8689
16:11:50:209,2.5125,9.1717,6.9679,39.5269,-0.4461,-0.3224,-0.0285,41.7399
16:11:50:231,3.3978,8.9204,6.9703,38.8013,-0.4302,-0.3688,-0.0566,41.6196
16:11:50:253,3.7232,8.4897,7.0708,39.2372,-0.4839,-0.3187,-0.1348,41.5122
16:11:50:275,2.8857,8.0471,8.4443,41.1931,-0.5047,0.1602,-0.2985,41.5122
16:11:50:295,3.0102,7.3771,8.193,38.8013,-0.3435,0.115,-0.3119,41.5122
16:11:50:310,3.0628,6.6927,7.1617,40.3529,-0.2164,-0.1355,-0.3156,41.5122
16:11:50:329,2.6178,6.3817,6.2788,40.8716,-0.2323,-0.2137,-0.2875,41.5122
16:11:50:352,2.2971,6.5133,6.1161,40.2976,-0.3227,0.0075,-0.1665,41.5122
16:11:50:374,2.3857,6.7047,5.9557,42.6541,-0.3154,0.1785,-0.0211,41.5122
16:11:50:391,2.8331,6.9224,5.5968,41.6418,-0.2115,0.0062,0.0521,41.5122
16:11:50:410,3.0006,6.8219,4.9795,39.2372,-0.0979,-0.3432,-0.0065,41.5122
16:11:50:428,2.8211,6.5109,4.4913,40.9159,-0.0075,-0.5484,-0.1348,41.5122
16:11:50:452,2.3426,6.1926,3.8094,40.2976,0.0695,-0.5411,-0.2594,41.5122
16:11:50:478,1.7468,6.1041,3.3045,39.2213,0.0988,-0.4421,-0.373,41.5122
16:11:50:488,0.9691,6.3458,3.1011,42.0424,0.0536,-0.37,-0.4634,41.5122
16:11:50:507,0.5767,6.6521,3.3165,39.9185,-0.0478,-0.3652,-0.5062,41.5122
16:11:50:527,0.3254,7.0158,3.6802,40.61,-0.1492,-0.4128,-0.5269,41.5122
16:11:50:550,0.0311,7.5015,3.8142,41.2746,-0.2152,-0.4702,-0.5514,41.6284
16:11:50:571,0.0574,7.8963,3.9123,41.4013,-0.3007,-0.491,-0.5648,41.7724
16:11:50:588,-0.1795,8.1595,4.7904,40.2254,-0.4644,-0.3712,-0.5758,41.946
16:11:50:608,-0.6461,8.26,6.3649,41.7649,-0.6061,-0.1624,-0.5856,42.1506
16:11:50:629,-1.1462,8.2576,7.389,40.4667,-0.5463,-0.0243,-0.5599,42.3839
16:11:50:647,-1.5577,8.4227,7.6283,41.4981,-0.3178,0.0234,-0.4817,42.6394
16:11:50:672,-1.6152,8.5591,7.0445,40.61,-0.0307,0.0612,-0.351,42.9081
16:11:50:687,-1.1892,8.5639,6.3888,39.7845,0.177,0.0832,-0.2325,43.1812
16:11:50:708,-0.8997,8.7505,5.5968,40.0204,0.2307,0.0429,-0.2007,43.456
16:11:50:727,-1.3998,9.009,5.9342,40.0204,-0.3166,-0.0414,-0.2985,43.7352
16:11:50:748,-1.7707,9.3607,8.6022,41.0931,-0.6819,0.1003,-0.2325,44.3196
16:11:50:767,-1.1533,9.2459,9.9374,39.1411,-0.5829,0.2542,-0.037,44.6133
16:11:50:787,-0.5934,9.1238,8.4969,40.5826,-0.0747,0.2372,0.0802,44.8958
16:11:50:807,-0.6915,8.8654,6.9942,38.6431,0.2271,0.082,0.0118,45.1692
16:11:50:828,-0.9212,8.1117,7.1282,40.4984,0.0621,-0.0829,-0.1177,45.4417
16:11:50:851,-1.1103,7.267,8.4514,40.2518,-0.3227,-0.1684,-0.1861,45.7182
16:11:50:869,-1.2658,6.4798,10.3155,41.4559,-0.644,-0.1892,-0.1788,46.0005
16:11:50:888,-1.151,5.5155,11.1458,39.0542,-0.6758,-0.0939,-0.1079,46.2841
16:11:50:907,-0.993,5.1302,10.4662,40.9382,-0.3874,0.1296,0.024,46.5628
16:11:50:927,-0.792,5.281,8.997,40.4984,-0.0845,0.2542,0.1511,46.8287
16:11:50:949,-0.6413,5.1972,7.8532,40.4556,-0.0112,0.2469,0.2476,47.077
16:11:50:967,-0.536,5.2379,7.4297,40.041,-0.0637,0.2775,0.3698,47.302
16:11:50:988,-0.0072,5.2858,6.7813,40.8772,-0.0161,0.3153,0.5372,47.4955
16:11:51:008,0.5719,5.3216,6.0251,41.4559,0.122,0.2518,0.6691,47.6512
16:11:51:028,1.0337,5.3982,5.0273,41.9183,0.2808,0.0856,0.7192,47.7665
16:11:51:049,0.9858,5.5322,3.8333,37.7764,0.3883,-0.111,0.6789,47.7665
16:11:51:069,0.8662,5.7236,3.2447,38.3862,0.3285,-0.2149,0.6361,47.7665
16:11:51:190,0.9188,5.6901,3.8955,41.4559,0.1245,-0.2039,0.6373,47.7665
16:11:51:190,1.0146,5.604,4.9077,39.6757,-0.0209,-0.1782,0.6385,47.7665
16:11:51:191,0.8614,5.7739,5.3958,40.6786,0.0377,-0.2552,0.5885,47.7665
16:11:51:191,0.7729,6.0562,4.8598,43.5027,0.199,-0.4043,0.5103,47.7665
16:11:51:191,0.9619,6.3458,5.3671,39.2543,0.111,-0.535,0.3734,47.6697
16:11:51:192,1.5242,6.3793,6.2572,40.2733,-0.0148,-0.4824,0.3197,47.5573
16:11:51:207,1.797,6.4367,6.5013,38.2199,-0.0246,-0.3774,0.2122,47.3028
16:11:51:227,1.5649,6.8411,6.2333,39.2123,-0.0124,-0.2918,0.0375,47.1738
16:11:51:249,1.3185,7.1402,6.2046,39.2327,-0.1211,-0.2442,-0.1213,47.0552
16:11:51:268,1.2395,7.5422,6.5204,40.1515,-0.3337,-0.1819,-0.213,46.9532
16:11:51:288,1.1462,7.8939,6.9655,41.4997,-0.5915,-0.1013,-0.2789,46.9532
16:11:51:309,1.2036,7.9059,8.1715,40.5592,-0.8615,-0.0389,-0.3058,46.9532
16:11:51:331,1.7539,7.8891,10.1192,40.5536,-1.0569,-0.1037,-0.2594,46.9532
16:11:51:352,2.7996,7.7216,11.2774,40.5536,-0.969,-0.2589,-0.2081,46.9532
16:11:51:372,3.5007,7.5781,10.8299,41.0608,-0.6,-0.3615,-0.2276,46.9532
16:11:51:389,3.5533,7.4273,9.6311,40.0761,-0.2555,-0.3554,-0.3351,46.9532
16:11:51:409,2.8307,6.999,8.5783,40.5571,-0.1162,-0.1135,-0.4732,46.9532
16:11:51:428,1.7204,6.7167,8.7505,41.01,-0.1443,0.159,-0.5673,46.9532
16:11:51:449,1.2371,6.0203,9.3392,40.5729,-0.214,0.0808,-0.5416,46.9532
16:11:51:471,1.4572,5.4748,9.454,38.2785,-0.2115,-0.2576,-0.3816,47.056
16:11:51:490,2.0195,5.3073,8.8989,40.581,-0.126,-0.4751,-0.1531,47.163
16:11:51:511,2.5292,5.5298,7.9155,39.1296,-0.0161,-0.3774,0.0729,47.2625
16:11:51:536,2.9671,5.7715,7.011,41.482,0.0585,-0.1074,0.2391,47.2625
16:11:51:553,2.9049,5.7356,6.3553,40.0715,0.1049,0.0392,0.2561,47.2625
16:11:51:571,2.2062,5.7212,5.7093,40.0713,0.155,-0.0451,0.1352,47.2625
16:11:51:591,1.3711,5.4556,5.1135,40.0639,0.2002,-0.2088,-0.0102,47.2625
16:11:51:607,0.8782,5.2211,4.6421,37.756,0.2356,-0.2747,-0.0761,47.2625
16:11:51:630,0.3493,5.5418,4.1898,38.2451,0.2491,-0.1978,-0.0712,47.2625
16:11:51:653,0.2465,5.8002,3.6754,38.2716,0.2148,-0.1624,-0.0737,47.2625
16:11:51:671,0.2106,6.0754,3.8548,41.0054,0.067,-0.0805,-0.0871,47.2625
16:11:51:689,0.3254,6.2213,4.8048,40.0679,-0.1297,-0.0438,-0.1177,47.2625
16:11:51:708,-0.0479,6.4798,5.5753,41.4739,-0.2201,-0.1061,-0.1959,47.2625
16:11:51:730,-0.3805,6.8124,5.6973,41.9571,-0.2066,-0.1477,-0.2301,47.2625
16:11:51:751,-0.2417,7.1163,5.9509,41.5737,-0.2298,-0.0512,-0.147,47.3604
16:11:51:771,-0.2513,7.3316,6.7406,40.5403,-0.3093,0.1675,-0.037,47.4592
16:11:51:789,-0.6006,7.5517,7.5757,41.0054,-0.3325,0.3947,0.0521,47.5572
16:11:51:808,-0.7489,7.87,8.2002,43.3503,-0.2188,0.5365,0.1792,47.6479
16:11:51:830,-0.3613,8.0351,7.9322,41.1244,-0.0051,0.5059,0.3062,47.6479
16:11:51:852,0.0431,8.4203,7.1115,38.7658,0.1428,0.3874,0.3637,47.6479
16:11:51:869,0.3565,8.5998,7.0995,42.7041,-0.0222,0.2823,0.3637,47.6479
16:11:51:887,0.3709,8.3844,8.4108,41.3041,-0.4717,0.2298,0.3368,47.6479
16:11:51:909,0.2513,8.2217,10.9472,40.8312,-0.7857,0.4717,0.3747,47.6479
16:11:51:931,0.0981,7.8652,12.1029,40.2922,-0.5475,0.8712,0.5127,47.6479
16:11:51:950,0.2847,7.8939,10.8395,42.9389,0.0634,0.9543,0.6141,47.6479
16:11:51:968,-0.1268,7.7121,8.8415,42.4529,0.4507,0.6892,0.4956,47.6479
16:11:51:992,-0.7968,7.3675,8.2863,40.8821,0.2869,0.3972,0.2659,47.6479
16:11:52:009,-2.0219,6.2189,9.4062,42.4529,-0.1761,0.1895,0.1425,47.6479
16:11:52:030,-2.0219,5.2379,11.1769,40.9506,-0.5145,0.2335,0.2476,47.6479
16:11:52:049,-1.06,4.5751,11.7512,43.5141,-0.4766,0.253,0.4895,47.6479
16:11:52:070,-0.2345,4.4291,10.7892,42.4195,-0.1797,0.0746,0.6263,47.5501
16:11:52:089,0.3637,4.3047,7.7767,42.361,0.0682,-0.3358,0.6178,47.2898
16:11:52:110,0.7513,3.8405,7.3842,42.6164,-0.1138,-0.0585,0.6838,47.1276
16:11:52:133,0.6365,3.2877,7.3723,41.6941,-0.2445,0.4644,0.7742,46.9408
16:11:52:153,0.0263,2.9336,7.3053,42.4793,-0.2274,0.7356,0.8047,46.7298
16:11:52:172,-0.6915,2.6967,6.7382,42.4172,-0.0356,0.6049,0.8401,46.493
16:11:52:189,-0.871,2.5436,5.3647,42.4018,0.2588,0.3178,1.0161,46.2221
16:11:52:209,0.1651,2.132,4.2233,42.8609,0.4983,0.0551,1.3692,45.8997
16:11:52:230,1.1581,1.998,3.2471,41.4134,0.5936,-0.0365,1.732,45.5108
16:11:52:250,1.5816,2.4048,2.735,40.2269,0.5753,0.1162,1.9397,45.0479
16:11:52:268,1.931,2.4311,2.2229,41.4062,0.4213,0.2799,1.958,44.5146
16:11:52:289,2.936,2.3163,2.467,41.7318,0.1183,0.44,1.8835,43.918
16:11:52:309,2.8044,2.8475,3.4026,43.0731,-0.2885,0.4803,1.6062,43.2776
16:11:52:333,1.7731,3.6036,4.8574,42.3446,-0.6917,0.2359,1.247,42.6155
16:11:52:350,3.0963,4.1133,6.2381,41.9645,-1.0032,-0.1684,1.1834,41.9391
16:11:52:370,5.2116,4.3884,6.5803,41.9929,-1.0851,-0.4006,1.181,41.25
16:11:52:390,6.1926,4.6612,6.1041,43.1572,-1.0741,-0.3798,0.8707,40.5593
16:11:52:412,5.7571,4.8263,6.2237,42.0079,-1.2879,-0.3236,0.3429,39.8902
16:11:52:429,5.0632,4.6828,7.4417,43.9199,-1.757,-0.381,-0.0969,39.2649
16:11:52:448,4.6301,4.1994,8.6668,43.8038,-2.1162,-0.3896,-0.3779,38.6964
16:11:52:466,4.1348,4.1635,10.8993,42.6133,-2.3165,-0.5435,-0.5282,38.1916
16:11:52:486,4.5488,4.276,13.1964,44.1276,-2.2848,-0.987,-0.5502,37.7487
16:11:52:506,5.2259,3.4959,14.4981,45.7733,-1.9928,-1.6797,-0.4732,37.3605
16:11:52:527,5.6279,2.7709,15.4983,45.2869,-1.6556,-2.1819,-0.3779,37.0196
16:11:52:547,7.5159,0.9021,16.6373,44.4794,-0.8554,-1.885,0.2757,36.7144
16:11:52:566,8.8917,0.7705,14.1846,44.1883,0.0108,-1.2363,0.6776,36.1271
16:11:52:588,9.3344,1.1246,9.5617,46.7573,0.9479,-0.888,0.8218,35.791
16:11:52:608,8.5232,1.7372,5.2666,45.6479,1.4952,-0.9992,0.7167,35.4115
16:11:52:631,7.5685,2.1894,2.4455,45.6188,1.5099,-1.4171,0.5457,34.9923
16:11:52:655,7.1833,2.2995,1.7874,46.3773,1.0505,-1.8593,0.3087,34.5491
16:11:52:670,6.1854,2.3521,2.9958,45.6433,0.3981,-1.874,0.0301,34.105
16:11:52:688,4.8909,2.5747,3.3141,45.095,-0.0527,-1.6516,-0.1885,33.6766
16:11:52:708,4.879,2.6632,4.3741,46.2204,-0.3483,-1.5172,-0.2435,33.2732
16:11:52:731,5.8289,2.7398,6.6808,44.9534,-0.6159,-1.483,-0.2069,32.9004
16:11:52:749,6.4726,3.2877,7.1569,47.4007,-0.545,-1.301,-0.3131,32.5586
16:11:52:770,6.4295,3.3667,5.525,45.099,-0.2506,-1.009,-0.5208,32.243
16:11:52:790,5.7715,4.142,4.3334,45.099,-0.0564,-0.3371,-0.7261,31.9519
16:11:52:814,3.8572,4.8933,5.3623,46.502,0.0499,0.7356,-0.9802,31.6893
16:11:52:834,5.0824,5.2905,6.0275,45.7791,-0.0686,0.9848,-0.72,31.4509
16:11:52:852,6.0634,5.3336,7.7073,45.8555,-0.2873,0.969,-0.4011,31.2347
16:11:52:867,6.5013,6.073,6.6138,47.65,-0.4473,0.7173,-0.246,31.0389
16:11:52:887,6.5707,4.9986,7.0086,45.9686,-0.7576,0.8162,-0.1568,30.8679
16:11:52:909,5.1374,4.7809,8.7529,46.6533,-1.0765,1.1522,-0.263,30.7322
16:11:52:931,4.6421,4.1587,9.6239,46.7288,-1.0728,1.3697,-0.1934,30.6286
16:11:52:951,3.4959,4.4411,9.7723,46.8035,-0.7686,1.4198,-0.0737,30.6286
16:11:52:971,2.6225,4.812,9.7531,47.1822,-0.3948,1.377,0.167,30.6286
16:11:52:989,4.4913,4.7713,9.7268,47.8956,-0.0661,1.3013,0.6679,30.5298
16:11:53:009,9.6718,5.135,9.8848,47.1535,-0.0258,0.5206,0.8646,30.398
16:11:53:029,8.6716,4.1109,11.2319,47.5488,-0.3361,0.1968,0.3759,30.0861
16:11:53:050,5.9892,3.5821,12.9595,48.6611,-0.407,0.6281,0.0265,29.9388
16:11:53:070,4.6421,3.1657,13.5697,48.7107,-0.1346,1.1168,0.0143,29.7982
16:11:53:086,4.7019,2.8331,12.9787,47.9889,0.4164,1.0361,0.09,29.6517
16:11:53:108,5.0058,2.8092,12.737,47.6411,0.9027,0.2897,0.0888,29.4915
16:11:53:131,7.1187,1.9119,13.0457,47.2387,1.1971,-0.6706,0.1157,29.3112
16:11:53:318,8.6955,0.9452,11.9282,48.3371,1.439,-1.1263,-0.0322,29.1101
16:11:53:319,8.4012,1.3448,8.4802,50.1518,1.5197,-0.9479,-0.3913,28.8951
16:11:53:320,7.2072,2.7829,6.0227,49.6039,1.0994,-0.5777,-0.8202,28.6853
16:11:53:321,5.1039,3.606,6.4008,50.4411,0.4458,-0.2479,-1.1879,28.5059
16:11:53:322,1.9932,3.4911,7.7456,48.8894,0.045,-0.078,-1.3675,28.3723
16:11:53:323,0.8088,3.46,7.5326,48.2428,0.0866,-0.0842,-1.1012,28.2756
16:11:53:324,0.9428,3.7256,6.5994,48.4375,0.3688,-0.0499,-0.5221,28.2756
16:11:53:325,2.5316,2.5005,5.4269,47.3308,0.5997,0.0795,-0.037,28.1805
16:11:53:327,3.0221,1.9478,4.8718,47.5489,0.6315,0.2762,0.1548,28.0698
16:11:53:328,2.3545,1.8018,4.4554,48.2359,0.6046,0.4436,0.2048,27.9434
16:11:53:347,1.9884,1.9478,3.9266,47.8382,0.6473,0.545,0.3307,27.7968
16:11:53:368,2.5172,2.467,3.4911,45.8556,0.6999,0.5255,0.5384,27.6224
16:11:53:387,3.271,2.9743,2.7733,48.3939,0.6693,0.5438,0.6691,27.4166
16:11:53:407,3.7735,3.1298,3.4169,46.2388,0.3639,0.8223,0.685,27.1851
16:11:53:430,4.5488,2.7637,4.8287,48.686,-0.0246,1.2952,0.6288,26.9383
16:11:53:449,3.1992,3.2016,6.2261,48.4816,-0.3007,0.8993,0.0143,26.449
16:11:53:469,2.6273,3.1202,6.7525,48.7448,-0.2909,0.3178,-0.1995,26.2287
16:11:53:487,3.0078,2.8044,6.6473,48.761,-0.2335,-0.111,-0.2508,26.0265
16:11:53:509,3.5533,2.8953,5.8887,48.2409,-0.2787,-0.2735,-0.2508,25.8412
16:11:53:529,4.3908,3.3093,7.0397,47.8139,-0.6733,-0.3077,-0.235,25.678
16:11:53:548,5.1517,2.8187,9.332,47.4526,-1.2023,-0.3102,-0.3034,25.5481
16:11:53:569,4.5583,2.5005,11.3085,48.3067,-1.4454,-0.3016,-0.4646,25.5481
16:11:53:591,2.5029,3.2877,12.6054,48.798,-1.3196,-0.4629,-0.566,25.5481
16:11:53:607,2.9001,3.7184,12.9523,48.9798,-0.9494,-0.7891,-0.2912,25.5481
16:11:53:629,6.0706,4.2209,11.9976,48.51,-0.3459,-1.2595,0.2012,25.5481
16:11:53:648,9.2865,4.7282,8.54,50.0905,0.2784,-1.5282,0.3869,25.5481
16:11:53:668,9.7675,3.1729,6.4128,48.835,0.1758,-0.8172,0.2342,25.5481
16:11:53:687,7.9585,3.5486,8.4036,49.5064,-0.4656,0.6941,0.0998,25.5481
16:11:53:709,7.5781,3.0532,9.8441,49.108,-0.8004,1.2451,0.0863,25.5481
16:11:53:727,7.6379,3.4193,8.2122,50.7591,-0.5438,0.1602,0.1364,25.5481
16:11:53:750,8.9539,2.4455,6.8052,47.2646,-0.2421,-0.8844,0.1938,25.5481
16:11:53:769,9.2841,1.9286,5.4173,50.469,-0.2518,-1.1666,0.1413,25.5481
16:11:53:788,9.0497,2.7972,4.1874,48.6056,-0.4497,-0.739,-0.1091,25.5481
16:11:53:808,9.4445,2.6967,3.9505,48.0647,-0.8725,-0.2442,-0.4817,25.5481
16:11:53:830,7.59,1.6199,6.4845,49.196,-1.4638,0.2127,-1.0217,25.5481
16:11:53:853,3.2853,1.9167,8.4634,49.3062,-1.7179,0.6855,-1.4054,25.6439
16:11:53:872,4.0439,1.1342,8.2457,48.6242,-1.4039,0.7967,-1.3895,25.8012
16:11:53:891,3.8907,1.3615,7.468,48.4451,-0.8908,0.2151,-1.5031,26.0126
16:11:53:908,1.8257,1.6582,4.5009,47.8376,-0.1113,-0.7133,-2.07,26.2768
16:11:53:934,-0.3111,2.2205,3.8835,47.6437,-0.2176,-0.8648,-2.1323,26.9731
16:11:53:950,-2.0291,2.5795,4.9196,49.173,-0.5683,-0.6889,-1.7291,27.4013
16:11:53:970,0.6485,1.5194,7.2933,48.4084,-0.9531,-0.1049,-1.0327,27.8653
16:11:53:987,2.0028,1.2467,10.6098,47.7681,-1.173,0.1113,-0.6491,28.3562
16:11:54:008,1.663,1.6463,12.1101,45.9929,-1.0105,-0.2198,-0.7102,28.873
16:11:54:028,1.1055,2.211,11.2989,48.4135,-0.5756,-0.5545,-0.7212,29.4078
16:11:54:049,0.5097,2.9216,10.3059,49.292,-0.231,-0.5667,-0.5783,29.9497
16:11:54:070,0.7992,3.5533,9.8417,48.6898,-0.115,-0.4397,-0.3083,30.4883
16:11:54:088,2.2397,3.9505,10.6241,49.7395,-0.1932,-0.3664,-0.0016,31.0147
16:11:54:108,2.9815,4.3071,12.0072,49.2327,-0.3129,-0.381,0.1034,31.5282
16:11:54:130,3.7256,4.4626,12.9523,49.5542,-0.3703,-0.414,0.1181,32.0293
16:11:54:149,4.9771,4.599,13.5051,49.2025,-0.4143,-0.4201,0.1645,32.518
16:11:54:170,4.5727,4.5344,14.266,49.0797,-0.4278,-0.1672,0.1425,32.996
16:11:54:187,4.1085,6.1208,15.0365,48.4577,-0.33,0.3141,0.261,33.458
16:11:54:207,4.6181,6.262,14.0531,47.992,0.0291,0.7466,0.3954,33.8933
16:11:54:227,4.5248,6.3984,13.1653,47.0431,0.3981,0.9189,0.2892,34.3
16:11:54:250,4.118,5.8528,13.7755,48.2642,0.5777,0.5804,0.0301,34.6842
16:11:54:268,4.2784,4.1874,15.3069,48.7381,0.6877,0.0014,-0.1336,35.0513
16:11:54:289,4.733,2.8714,16.3645,48.5563,0.9528,-0.2075,-0.0859,35.3977
16:11:54:309,6.14,3.4337,16.5248,46.6501,1.3168,0.0637,0.1731,35.71
16:11:54:330,7.7432,2.8427,14.6871,47.2747,1.6528,0.3569,0.2159,35.9805
16:11:54:351,7.8963,2.68,13.1318,46.4303,1.7628,0.7148,-0.0114,36.2149
16:11:54:368,5.5179,1.7874,9.3177,44.9227,1.7958,1.206,-0.4927,36.6174
16:11:54:387,4.6469,1.7707,7.602,46.2038,1.8055,1.4002,-0.4536,36.7916
16:11:54:406,4.2138,1.5673,7.0229,43.8885,1.7237,1.6446,-0.2728,36.9444
16:11:54:427,4.1157,1.3783,6.4104,45.7553,1.6968,1.6922,-0.0822,37.0718
16:11:54:448,4.1348,1.2658,5.4173,44.3599,1.8055,1.5688,0.0399,37.1692
16:11:54:469,3.8213,1.3352,4.0295,44.8569,1.9912,1.41,0.0705,37.1692
16:11:54:489,3.2973,1.6798,2.747,45.7514,2.0658,1.1754,0.0521,37.1692
16:11:54:509,3.0772,1.6391,1.9238,46.5737,1.9033,0.8456,0.0106,37.1692
16:11:54:529,2.2086,1.9119,1.7444,43.3323,1.6162,0.7099,-0.0542,37.1692
16:11:54:550,1.3472,2.3521,2.7063,44.0899,1.2997,0.7344,-0.0676,37.1692
16:11:54:568,1.3472,2.7182,3.8166,46.4604,1.1104,0.6965,0.013,37.1692
16:11:54:586,1.6845,3.2638,3.5868,44.6559,1.1397,0.5316,0.0876,37.1692
16:11:54:605,2.0459,4.1324,3.0532,45.8761,1.1507,0.3056,0.0668,37.1692
16:11:54:625,2.3234,4.9149,3.4098,42.9743,0.9735,0.0576,-0.0517,37.1692
16:11:54:646,2.01,5.5992,3.7687,43.6625,0.6632,-0.2637,-0.2765,37.1692
16:11:54:669,1.7731,6.1208,4.4602,44.0074,0.2332,-0.4372,-0.4439,37.1692
16:11:54:685,1.2897,7.0229,5.4389,44.2761,-0.192,-0.2833,-0.4976,37.1692
16:11:54:706,1.0241,7.7671,7.5446,44.5312,-0.5267,-0.0976,-0.4671,37.1692
16:11:54:729,2.3426,7.8724,9.6742,43.7582,-0.6391,-0.1404,-0.3974,37.1692
16:11:54:752,3.1274,7.8844,10.1408,43.0775,-0.4216,-0.3273,-0.4268,37.1692
16:11:54:770,2.9791,7.9729,8.6405,43.9045,-0.1125,-0.4898,-0.6051,37.1692
16:11:54:788,2.8379,7.8652,8.351,42.6,-0.0991,-0.3041,-0.7566,37.2703
16:11:54:810,2.1488,6.7573,9.8489,41.5011,-0.2384,0.4522,-0.7676,37.5829
16:11:54:829,2.2756,6.1113,8.7195,44.1398,-0.0625,0.4497,-0.6613,37.7828
16:11:54:852,2.1296,5.6542,7.3986,43.6205,-0.0038,0.2335,-0.5367,38.0011
16:11:54:869,1.8497,5.671,6.6616,42.4277,-0.0845,0.0979,-0.3327,38.2288
16:11:54:885,2.1464,5.5346,6.2668,42.0684,-0.1468,0.071,-0.0566,38.4526
16:11:54:906,2.0435,5.3408,5.4173,43.1018,-0.0881,0.0404,0.1413,38.6634
16:11:54:929,1.9143,5.2355,4.4794,43.1516,0.0267,-0.0634,0.2207,38.8563
16:11:54:948,2.0506,5.0177,3.4361,43.7341,0.1171,-0.2344,0.1841,39.0327
16:11:54:966,1.9095,4.8814,2.5316,43.007,0.1232,-0.3383,0.0497,39.1987
16:11:54:986,1.3711,4.9101,1.998,42.7384,0.0255,-0.3199,-0.0993,39.3625
16:11:55:006,1.0744,4.8096,1.9382,42.2482,-0.1687,-0.2625,-0.2142,39.5317
16:11:55:029,0.457,4.6301,2.2277,41.7278,-0.3972,-0.1611,-0.3278,39.7144
16:11:55:049,-0.1842,4.7234,2.6345,42.0113,-0.5939,-0.0206,-0.4194,39.916
16:11:55:067,-0.7155,4.9125,3.1872,43.3987,-0.743,0.0588,-0.4756,40.1403
16:11:55:087,-0.7226,5.2164,3.6873,41.1145,-0.8773,0.0514,-0.4879,40.3872
16:11:55:107,-0.6556,5.4843,3.8716,40.9909,-0.9873,0.0148,-0.5013,40.6561
16:11:55:131,-1.0337,5.5585,3.8931,40.8219,-1.0997,-0.0414,-0.5746,40.9498
16:11:55:151,-1.6534,5.6662,3.9673,40.2965,-1.2683,-0.1196,-0.6161,41.2693
16:11:55:168,-2.065,5.5992,5.3862,41.3599,-1.531,-0.1929,-0.5612,41.6132
16:11:55:350,-2.3545,5.5298,6.9081,41.112,-1.7399,-0.1538,-0.4194,41.9757
16:11:55:351,-2.0865,5.6423,7.7121,40.8716,-1.8291,-0.1159,-0.2582,42.3484
16:11:55:351,-2.01,4.9364,9.5091,39.9988,-2.0624,-0.3199,-0.2288,43.1329
16:11:55:352,-4.7904,1.675,17.0201,42.9337,-2.501,-0.794,-0.1274,43.5469
16:11:55:353,-4.8431,1.1749,17.2858,43.0478,-2.0258,-0.6914,0.5836,43.9456
16:11:55:354,-3.0365,1.7803,16.3406,39.6582,-1.3599,-0.2943,1.4816,44.2964
16:11:55:355,-1.3759,2.7637,14.8044,40.5975,-0.8773,-0.0133,2.0521,44.5751
16:11:55:355,-0.0024,3.1753,15.0724,39.3566,-0.7894,0.0392,2.3013,44.7751
16:11:55:356,0.8231,3.0987,15.8118,40.5061,-0.7808,0.005,2.3868,44.896
16:11:55:365,2.0435,2.9551,16.0798,40.3796,-0.6025,-0.0426,2.4785,44.896
16:11:55:386,3.5749,3.4481,15.4983,40.1229,-0.2323,-0.0377,2.597,44.896
16:11:55:407,6.061,4.3765,14.3402,40.1278,0.2161,-0.0536,2.6752,44.7592
16:11:55:428,8.2959,4.922,12.591,40.2942,0.651,-0.1171,2.5151,44.5335
16:11:55:448,8.3198,5.1541,9.7795,40.6806,0.9735,-0.0829,1.9519,44.2369
16:11:55:467,6.6233,4.9149,8.2289,38.8335,1.0029,0.126,1.2897,43.8943
16:11:55:487,4.8479,4.1898,8.3725,40.2657,0.8709,0.3471,0.8194,43.5251
16:11:55:508,3.6012,3.1466,8.6022,39.7838,0.9296,0.3899,0.5836,43.1399
16:11:55:529,2.6632,2.3019,7.4465,39.3562,1.2399,0.319,0.5005,42.7393
16:11:55:550,1.9406,2.1392,5.3719,36.2794,1.5502,0.3202,0.5188,42.3199
16:11:55:569,1.3663,2.1918,3.8644,39.9792,1.5685,0.3532,0.5934,41.8785
16:11:55:588,1.0696,2.1942,3.9099,37.3591,1.301,0.3043,0.6825,41.4161
16:11:55:607,1.0887,2.1583,3.8835,38.2812,1.0603,0.1333,0.7497,40.9329
16:11:55:630,1.4285,2.0818,3.716,37.1044,0.9393,-0.1306,0.8059,40.4281
16:11:55:648,1.9071,2.3091,3.326,35.6502,0.8526,-0.3468,0.834,39.9013
16:11:55:669,2.3282,2.6273,2.8427,37.1044,0.7206,-0.4934,0.7571,39.3553
16:11:55:685,2.7135,2.6154,2.6465,35.5517,0.458,-0.5985,0.5811,38.7996
16:11:55:707,2.991,3.003,3.6778,36.4548,0.067,-0.684,0.3331,38.2479
16:11:55:731,2.3833,2.9886,6.5755,36.0557,-0.6281,-1.0285,-0.2936,37.2189
16:11:55:752,2.199,2.9193,7.8102,36.465,-0.8945,-1.1299,-0.4512,36.7661
16:11:55:769,2.8187,2.6417,8.5496,34.5352,-1.1278,-1.0615,-0.4243,36.3596
16:11:55:786,4.0439,2.8522,9.0377,35.5645,-1.3465,-0.866,-0.3547,35.9982
16:11:55:808,4.1946,3.5366,9.6933,35.5724,-1.6104,-0.7549,-0.4744,35.6886
16:11:55:832,3.5844,3.3021,12.0335,35.7978,-2.038,-0.8734,-0.6907,35.4441
16:11:55:853,3.4983,2.4503,14.4048,34.8008,-2.2909,-0.8575,-0.6772,35.2677
16:11:55:872,3.0293,2.3713,15.0389,35.1486,-1.9965,-0.662,-0.4304,35.1451
16:11:55:888,3.7065,2.4766,15.1777,33.1403,-1.4112,-0.5472,-0.0358,35.0529
16:11:55:909,5.0297,2.3928,14.5699,34.1608,-0.7906,-0.4702,0.3771,35.0529
16:11:55:932,6.1089,2.3163,12.7178,32.4584,-0.1529,-0.4189,0.6703,34.9516
16:11:55:949,7.657,2.4072,10.2556,34.9367,0.3602,-0.5338,0.8194,34.8231
16:11:55:966,8.8893,2.4096,9.143,32.1146,0.4397,-0.8233,0.7534,34.6678
16:11:55:988,8.8343,2.2158,10.3298,33.7377,0.1562,-1.0322,0.5005,34.5001
16:11:56:009,8.4586,1.9358,10.6768,33.514,0.0108,-0.8905,0.2782,34.3295
16:11:56:030,6.9248,2.0506,8.7505,34.713,0.166,-0.348,0.0729,34.1596
16:11:56:050,5.0847,2.321,6.6879,32.6985,0.304,0.3019,-0.0981,33.9927
16:11:56:068,3.7041,2.6178,5.8528,33.14,0.2808,0.6794,-0.1946,33.8329
16:11:56:087,3.0676,2.7637,5.4269,32.9605,0.2393,0.6,-0.2447,33.6821
16:11:56:108,2.9456,2.7852,5.2044,32.0117,0.2173,0.2225,-0.2863,33.5421
16:11:56:130,3.1059,2.6393,4.6708,33.2944,0.243,-0.0768,-0.3437,33.4137
16:11:56:151,3.1322,2.5029,4.0128,32.0529,0.2368,-0.1208,-0.4512,33.2999
16:11:56:168,2.8929,2.4215,3.8429,30.7616,0.0988,-0.0389,-0.5941,33.2065
16:11:56:185,2.266,2.4359,5.0584,32.4275,-0.3691,-0.0341,-0.8006,33.2065
16:11:56:205,1.8688,2.3569,5.7045,32.7977,-0.5157,-0.0451,-0.8153,33.2065
16:11:56:230,1.5816,2.3713,6.3218,32.1059,-0.6098,-0.0548,-0.7371,33.2065
16:11:56:250,1.8473,2.4694,6.8674,32.002,-0.6831,-0.1281,-0.5868,33.2065
16:11:56:271,2.1152,2.5316,7.6283,30.9646,-0.7613,-0.254,-0.428,33.3009
16:11:56:288,2.388,2.8833,9.0784,30.4073,-0.8407,-0.348,-0.2533,33.4171
16:11:56:305,2.7398,3.3141,10.4184,28.8314,-0.837,-0.3615,-0.0444,33.5484
16:11:56:326,3.5821,3.649,11.4305,31.124,-0.754,-0.3285,0.1877,33.6858
16:11:56:349,5.5657,3.6706,13.0409,30.3377,-0.7674,-0.4055,0.382,33.823
16:11:56:368,7.0875,3.2423,15.4002,29.0545,-0.9055,-0.6694,0.4321,33.9614
16:11:56:387,7.0971,3.0987,17.2618,30.6845,-0.8554,-0.7427,0.3832,34.1026
16:11:56:408,6.5396,3.5821,16.6493,30.6154,-0.3703,-0.2943,0.4247,34.2375
16:11:56:430,5.9821,4.0845,13.9214,30.1432,0.2735,0.3776,0.509,34.3512
16:11:56:450,5.6375,3.8142,12.1172,29.2648,0.5618,0.7075,0.5127,34.3512
16:11:56:469,5.3695,2.5699,12.347,29.5217,0.5044,0.5914,0.4187,34.3512
16:11:56:489,4.7498,1.2299,12.8471,29.6172,0.4397,0.1761,0.3026,34.3512
16:11:56:508,4.5033,0.3805,12.2297,29.9407,0.5777,-0.0866,0.3062,34.3512
16:11:56:528,4.453,0.3302,10.6863,30.2266,0.8098,-0.0475,0.4077,34.3512
16:11:56:546,4.2496,0.6341,9.0999,30.1329,0.9149,0.1003,0.4663,34.3512
16:11:56:565,3.9673,0.8734,7.9992,31.4223,0.8318,0.2274,0.47,34.3512
16:11:56:591,3.4241,0.8758,7.8102,31.8209,0.6547,0.3263,0.4504,34.3512
16:11:56:605,2.8235,0.938,8.2122,31.2336,0.5215,0.3776,0.4565,34.3512
16:11:56:628,2.6967,0.9858,7.9298,32.3899,0.7194,0.3398,0.696,34.2593
16:11:56:646,2.8977,1.4524,7.0636,31.3274,0.9565,0.3862,0.8597,34.1398
16:11:56:663,3.8142,1.6176,6.3218,32.5661,1.1397,0.3385,0.9709,33.7895
16:11:56:683,4.118,1.8066,5.4748,32.4662,1.2619,0.286,0.9611,33.5515
16:11:56:703,4.0822,2.0483,4.5679,33.0159,1.3352,0.2787,0.8548,33.273
16:11:56:726,3.9769,2.0148,3.7591,33.1235,1.3022,0.2738,0.7216,32.9597
16:11:56:744,3.7232,2.144,3.3547,32.9879,1.1629,0.2909,0.575,32.6186
16:11:56:765,3.393,2.1224,3.2064,33.5024,0.9491,0.2787,0.4529,32.2578
16:11:56:785,3.3093,2.1392,3.5964,33.071,0.6718,0.1638,0.3734,31.8857
16:11:56:805,3.5916,2.0794,4.4148,32.576,0.3993,-0.0377,0.3124,31.5089
16:11:56:827,3.8453,2.0435,5.1948,32.2521,0.1721,-0.2772,0.2378,31.134
16:11:56:846,4.1994,1.7396,5.3025,32.3544,-0.0112,-0.4201,0.1523,30.7664
16:11:56:867,4.2138,1.8161,5.5633,32.2521,-0.2738,-0.3774,0.0912,30.4126
16:11:56:887,4.3143,2.0483,6.2333,32.9345,-0.6684,-0.2845,0.0521,30.0804
16:11:56:907,5.1015,2.1344,7.8317,33.9159,-1.1449,-0.3419,0.0289,29.7779
16:11:56:930,5.8433,1.7707,10.8036,33.8885,-1.6263,-0.5948,-0.0175,29.5161
16:11:56:946,6.2883,1.5864,14.2493,34.1023,-1.8486,-0.838,-0.0505,29.3008
16:11:56:969,6.6185,1.474,15.2973,34.3477,-1.5346,-0.8343,-0.0199,29.1242
16:11:56:988,7.0205,1.785,14.199,34.1883,-0.8493,-0.4445,0.1095,28.9677
16:11:57:008,7.2479,2.0913,11.6411,33.3105,-0.1981,0.0698,0.2,28.8154
16:11:57:028,7.4393,2.1535,10.014,34.1785,0.1098,0.3557,0.2024,28.6603
16:11:57:048,7.7193,2.0746,9.7436,34.1055,0.144,0.3483,0.1376,28.5042
16:11:57:068,9.0879,1.4764,10.1982,35.3366,0.0524,0.0185,0.0729,28.3495
16:11:57:088,9.7914,0.8183,9.856,34.7069,-0.1101,-0.3627,-0.2802,28.065
16:11:57:105,7.9514,0.8566,9.1789,34.6097,-0.181,0.1309,-0.5221,27.9497
16:11:57:129,6.073,1.2993,8.5663,34.7906,-0.2213,0.6537,-0.6149,27.9497
16:11:57:147,4.8096,1.6822,7.657,35.3941,-0.1333,0.8321,-0.5966,27.9497
16:11:57:166,3.7711,2.0435,6.5061,34.3169,0.0462,0.7368,-0.5599,27.9497
16:11:57:185,3.204,2.3282,5.3695,36.9018,0.2295,0.5426,-0.5233,27.9497
16:11:57:207,3.0173,2.6584,4.5488,37.1115,0.3297,0.3263,-0.4756,27.9497
16:11:57:229,3.1681,2.723,4.075,36.8256,0.3211,0.1504,-0.4659,27.9497
16:11:57:405,3.2351,2.814,4.1898,36.1216,0.2283,0.06,-0.5099,27.9497
16:11:57:406,2.8403,2.7709,4.1994,36.5598,0.1355,0.0661,-0.6137,27.9497
16:11:57:406,2.3833,2.8283,4.4626,36.8696,0.0536,0.0783,-0.6955,27.9497
16:11:57:407,2.3163,2.7924,4.9292,38.2413,-0.0222,0.0136,-0.7151,27.9497
16:11:57:408,2.3474,2.7422,5.3551,37.5321,-0.0808,-0.111,-0.7212,27.9497
16:11:57:408,2.4263,2.7852,5.7428,36.1321,-0.1529,-0.2234,-0.7261,28.0433
16:11:57:409,2.8475,2.8451,6.2405,36.5608,-0.2701,-0.2931,-0.7139,28.1605
16:11:57:410,3.125,3.0269,7.456,37.5321,-0.4534,-0.3712,-0.7188,28.3042
16:11:57:410,3.2925,2.9767,9.0114,35.8794,-0.633,-0.4592,-0.7127,28.4768
16:11:57:426,3.4409,2.9743,10.3633,34.5521,-0.7112,-0.4617,-0.6137,28.6768
16:11:57:445,3.5533,3.1059,11.6435,37.2857,-0.6929,-0.3236,-0.4121,28.8968
16:11:57:464,4.2544,3.3236,12.4881,37.499,-0.5988,-0.1342,-0.1445,29.1265
16:11:57:485,5.2068,3.5414,12.481,37.1158,-0.4669,0.0038,0.068,29.3558
16:11:57:507,5.4461,3.685,12.2776,37.7884,-0.3984,0.1138,0.1328,29.5814
16:11:57:529,4.7832,3.6778,12.2536,37.7243,-0.3887,0.3153,0.1071,29.8045
16:11:57:553,2.9408,3.6371,11.8588,35.6163,-0.1321,0.8089,0.1963,30.2341
16:11:57:569,2.8211,3.5151,12.1388,36.9248,0.0524,0.7442,0.3221,30.4295
16:11:57:584,3.6873,3.003,12.39,34.9251,0.2613,0.4302,0.4712,30.6032
16:11:57:605,4.5583,2.5412,11.9139,36.9832,0.4922,0.0258,0.5164,30.7502
16:11:57:626,4.9196,2.187,11.062,36.3082,0.6217,-0.2234,0.4602,30.8706
16:11:57:645,4.9986,1.9836,10.8634,37.23,0.5655,-0.1697,0.382,30.9682
16:11:57:667,4.7593,1.6415,10.9974,36.8256,0.4507,0.0185,0.2782,30.9682
16:11:57:686,4.2592,1.3113,10.9974,38.0546,0.3932,0.1565,0.1902,30.9682
16:11:57:705,3.8261,1.194,10.4447,36.76,0.4519,0.2506,0.167,30.9682
16:11:57:730,3.5653,1.1725,9.4086,36.1642,0.5704,0.3361,0.2073,30.9682
16:11:57:749,3.1872,1.2586,8.3198,38.6255,0.6791,0.446,0.2794,30.9682
16:11:57:767,2.8929,1.4859,7.3268,36.4237,0.7903,0.545,0.3771,30.9682
16:11:57:786,2.8594,1.7827,6.4008,36.9373,0.9222,0.5646,0.4932,30.9682
16:11:57:807,2.8546,2.0339,5.4509,35.5849,1.0615,0.4961,0.5799,30.9682
16:11:57:828,3.003,2.2732,4.52,36.4163,1.1495,0.3654,0.6141,30.8781
16:11:57:848,3.1705,2.4909,3.9338,36.2512,1.1104,0.22,0.5885,30.7554
16:11:57:867,3.2423,2.5938,3.9553,35.0411,0.9625,0.1003,0.4993,30.6056
16:11:57:885,3.0939,2.5531,4.0726,38.0564,0.7842,-0.0011,0.3588,30.4359
16:11:57:905,2.9145,2.4503,4.3119,32.3303,0.5924,-0.0622,0.2085,30.2546
16:11:57:925,2.4287,2.4981,4.6397,31.7004,0.3883,-0.0328,0.0863,30.0696
16:11:57:947,2.2086,2.4598,5.549,32.0757,0.21,0.0502,0.0558,29.885
16:11:57:974,2.5316,2.6154,6.3984,35.7405,0.1355,0.0417,0.1047,29.7008
16:11:57:987,3.8429,3.0628,5.9342,36.5355,0.0744,-0.3688,0.0411,29.3308
16:11:58:006,4.1635,3.1394,6.3506,29.8902,-0.2457,-0.4617,-0.114,29.159
16:11:58:029,4.5416,3.1083,7.2694,36.6362,-0.7124,-0.4213,-0.2252,29.01
16:11:58:051,4.7019,3.1705,9.1669,35.1046,-1.206,-0.3371,-0.2912,28.8938
16:11:58:068,4.6158,3.149,11.7535,37.0338,-1.5627,-0.3774,-0.3339,28.8938
16:11:58:084,5.0441,3.1131,14.1224,36.7118,-1.6153,-0.5826,-0.2924,28.8938
16:11:58:105,5.7834,3.0437,14.9527,36.7807,-1.3062,-0.695,-0.1873,28.8938
16:11:58:129,6.396,3.2207,13.9813,38.0835,-0.7613,-0.4873,-0.07,28.8938
16:11:58:148,6.9129,3.2758,12.9404,36.1392,-0.2848,-0.1306,0.0057,28.8938
16:11:58:166,7.1737,3.2279,12.0215,36.4553,0.0756,0.1394,0.0204,28.8938
16:11:58:185,7.4919,3.2016,10.9232,36.844,0.3981,0.1577,-0.0297,28.8938
16:11:58:206,8.5113,3.0317,9.9613,36.5352,0.5447,-0.1611,-0.1201,28.8938
16:11:58:224,9.2889,2.5747,9.2722,35.2494,0.4445,-0.4763,-0.307,28.8938
16:11:58:246,8.2193,2.2493,8.4132,36.1393,0.2039,-0.3358,-0.6235,28.8938
16:11:58:266,5.8481,2.0076,8.205,36.5236,-0.0564,0.1956,-0.9155,28.8938
16:11:58:287,3.5964,2.0961,7.8604,36.5236,-0.159,0.6134,-1.0376,28.8938
16:11:58:305,1.9119,2.2253,7.0756,36.5236,-0.0368,0.6904,-0.9912,28.8938
16:11:58:329,1.0959,2.4622,6.1998,35.6859,0.1684,0.4888,-0.8214,29.0042
16:11:58:348,1.2849,2.7111,5.4173,36.9549,0.3395,0.1724,-0.5892,29.1242
16:11:58:368,1.8712,2.8642,4.9819,36.8203,0.425,-0.0829,-0.4035,29.2454
16:11:58:389,2.3115,3.0844,4.6229,36.2193,0.4482,-0.2002,-0.3522,29.3651
16:11:58:404,2.3689,3.1514,4.4291,37.7633,0.4067,-0.1978,-0.4097,29.4861
16:11:58:424,2.0578,3.3763,4.2592,36.0959,0.315,-0.1306,-0.5184,29.613
16:11:58:445,1.7348,3.2255,4.6899,37.1486,-0.0368,-0.1807,-0.6711,29.7515
16:11:58:466,1.541,3.0939,5.4748,36.7271,-0.2701,-0.2173,-0.7041,30.0846
16:11:58:486,1.261,3.0796,6.6209,37.5755,-0.4974,-0.221,-0.6785,30.2849
16:11:58:506,1.4237,3.2303,8.0495,37.3367,-0.6306,-0.2381,-0.5294,30.5056
16:11:58:529,2.065,3.5055,8.9133,36.0959,-0.6061,-0.3016,-0.2802,30.7372
16:11:58:566,2.9169,3.9505,9.1095,37.744,-0.4791,-0.3334,-0.0505,30.9693
16:11:58:568,3.1896,4.5248,8.8104,38.4869,-0.3459,-0.2882,0.0668,31.1954
16:11:58:585,3.2184,5.135,8.5208,37.9063,-0.3007,-0.2137,0.1108,31.4131
16:11:58:609,3.8931,5.5705,9.2626,38.3447,-0.4119,-0.243,0.1499,31.6228
16:11:58:625,5.0201,5.4796,11.1194,38.4528,-0.6648,-0.4372,0.1523,31.8287
16:11:58:644,5.6734,5.0632,13.2945,38.8574,-0.8676,-0.5496,0.0961,32.0369
16:11:58:670,5.2427,4.8287,13.8473,38.6859,-0.7808,-0.2796,0.024,32.248
16:11:58:684,3.8213,5.1087,12.5336,38.1193,-0.429,0.3263,-0.0028,32.4579
16:11:58:703,2.68,5.2355,11.2032,38.2202,-0.1333,0.7197,0.0228,32.6609
16:11:58:726,1.8473,5.0895,11.0022,38.9477,-0.0014,0.7209,0.068,32.8538
16:11:58:745,1.5482,4.477,11.3013,38.0755,0.0841,0.4216,0.1181,33.0346
16:11:58:767,2.0004,3.7376,12.2273,39.4014,0.1525,-0.0231,0.2036,33.2005
16:11:58:791,3.0676,2.8283,13.4429,40.0217,0.2148,-0.414,0.3172,33.3467
16:11:58:806,3.8907,2.0818,13.7922,40.3641,0.3431,-0.5215,0.393,33.4696
16:11:58:829,4.0056,1.8233,13.1174,39.0715,0.5068,-0.2772,0.4028,33.5671
16:11:58:848,3.6347,1.6295,11.7583,40.7769,0.6376,0.1675,0.404,33.5671
16:11:58:867,3.3069,1.4357,10.3011,40.1382,0.7048,0.5524,0.4345,33.5671
16:11:58:886,2.8355,1.3567,8.7864,38.3773,0.7671,0.7625,0.4712,33.5671
16:11:58:906,2.2684,1.6582,6.4152,41.0995,0.888,0.7918,0.641,33.5671
16:11:58:928,2.534,1.9143,5.5801,40.6799,0.9381,0.6916,0.7791,33.4769
16:11:58:948,3.0796,2.065,5.0225,39.7893,0.9809,0.5352,0.8866,33.3424
16:11:58:966,3.5151,2.4048,4.4076,41.1806,1.0102,0.3459,0.9049,33.1628
16:11:58:984,3.5916,2.4885,3.7567,39.623,0.9662,0.1577,0.8181,32.9428
16:11:59:005,3.2279,2.7374,3.6108,40.9682,0.8233,0.0563,0.6716,32.6893
16:11:59:026,2.8594,2.8068,3.8644,40.9682,0.629,-0.0084,0.5286,32.4114
16:11:59:049,2.5316,2.9097,4.2233,40.5814,0.4531,-0.0219,0.415,32.1166
16:11:59:068,2.4455,2.9839,4.8215,40.9682,0.2991,-0.0646,0.338,31.8097
16:11:59:085,2.5771,3.0508,5.9007,40.5124,0.1635,-0.1709,0.2843,31.4959
16:11:59:106,3.0413,3.0485,6.4822,40.3694,0.1269,-0.3004,0.2378,31.1776
16:11:59:128,3.2231,3.2925,5.7858,38.9434,0.1611,-0.3786,0.1438,30.8562
16:11:59:148,3.4457,3.6132,5.1063,40.3103,0.0316,-0.4177,0.0191,30.537
16:11:59:168,3.795,3.7735,5.5131,38.3448,-0.3801,-0.4299,-0.1226,30.2321
16:11:59:185,3.8907,3.8309,7.3436,39.6709,-0.9714,-0.4397,-0.2814,29.9564
16:11:59:205,4.1157,3.4959,10.4303,38.7358,-1.5273,-0.4727,-0.3828,29.7223
16:11:59:226,4.2473,3.3212,13.3783,39.521,-1.7655,-0.5069,-0.3828,29.5335
16:11:59:250,4.0056,3.7113,15.1944,38.5632,-1.5908,-0.4922,-0.3009,29.3834
16:11:59:266,4.1133,4.0439,15.003,39.4816,-1.0875,-0.3089,-0.1287,29.2566
16:11:59:458,4.5272,4.4913,13.6893,38.0169,-0.523,-0.017,0.0888,29.1357
16:11:59:459,5.2762,4.5655,12.4929,39.4491,-0.0967,0.2323,0.2391,29.0079
16:11:59:460,5.1685,4.5081,11.3109,38.316,0.2161,0.385,0.2439,28.8676
16:11:59:461,4.9555,4.2664,10.8778,41.1081,0.3932,0.3654,0.189,28.7145
16:11:59:462,8.0399,3.3428,11.1745,38.6106,0.4409,-0.1636,0.3014,28.3685
16:11:59:463,8.8271,2.9791,9.7077,37.2275,0.4946,-0.1086,0.1914,28.1744
16:11:59:464,7.2215,2.79,8.1906,37.762,0.4482,0.2958,-0.1067,27.9754
16:11:59:465,4.9914,2.8116,6.932,37.2709,0.359,0.7979,-0.3596,27.7812
16:11:59:465,2.9264,2.9145,5.8457,35.9701,0.3126,1.0325,-0.4585,27.5976
16:11:59:466,1.876,3.0173,5.3432,38.022,0.2991,0.958,-0.395,27.4233
16:11:59:484,1.6989,3.1011,4.8072,37.3768,0.3468,0.6929,-0.2545,27.2521
16:11:59:504,2.1152,3.1801,4.4243,37.2188,0.3932,0.4118,-0.1336,27.0798
16:11:59:524,2.0722,3.3141,3.7687,35.729,0.403,0.2482,-0.1213,26.9056
16:11:59:545,1.5697,3.5629,3.2997,36.9418,0.3163,0.1687,-0.191,26.7332
16:11:59:565,1.1605,3.8955,3.5797,34.9278,0.1,0.0808,-0.2411,26.5673
16:11:59:586,1.5482,3.8812,4.7043,34.2643,-0.1822,-0.1025,-0.235,26.4115
16:11:59:606,1.7946,3.7424,6.3601,35.3516,-0.4009,-0.3016,-0.2521,26.2701
16:11:59:629,1.6989,3.5175,7.8365,35.8102,-0.4766,-0.3981,-0.285,26.1454
16:11:59:648,1.6439,3.5222,8.9874,33.277,-0.4241,-0.3725,-0.2313,26.0346
16:11:59:668,1.8616,3.6132,9.9374,34.2768,-0.2653,-0.2711,-0.0761,25.9299
16:11:59:686,2.7924,3.9051,10.1695,34.3235,0.0108,-0.1709,0.145,25.82
16:11:59:705,3.8405,4.3358,9.3775,34.4134,0.315,-0.1037,0.3001,25.6948
16:11:59:729,4.0295,4.8239,7.9896,33.7909,0.4849,0.005,0.2598,25.5531
16:11:59:746,3.4433,5.0489,7.1402,34.4219,0.3859,0.1919,0.0949,25.4022
16:11:59:766,2.9599,5.1733,8.1739,33.332,0.0316,0.3434,-0.0383,25.2525
16:11:59:785,3.015,4.7785,9.8608,33.6436,-0.3215,0.3092,-0.092,25.1113
16:11:59:806,2.6297,4.3286,11.074,32.6112,-0.5084,0.148,-0.0859,24.981
16:11:59:828,0.7011,4.2808,11.3204,33.5061,-0.4681,0.4363,0.189,24.7446
16:11:59:849,-0.0263,4.5296,11.086,33.9561,-0.3154,0.6354,0.4345,24.6217
16:11:59:867,-0.2847,4.2903,11.2415,33.0634,-0.2066,0.5071,0.6654,24.4828
16:11:59:883,0.1149,3.6802,12.2082,32.9833,-0.1602,0.2482,0.8731,24.3206
16:11:59:903,0.6437,2.9767,13.5506,33.9264,-0.1003,0.0942,1.043,24.1298
16:11:59:924,1.4165,2.1775,14.6991,32.7618,0.0389,0.049,1.1774,23.9055
16:11:59:944,2.0028,1.7515,15.0054,33.7111,0.282,0.1015,1.2494,23.643
16:11:59:965,2.735,1.395,14.4024,32.8498,0.5545,0.1993,1.2873,23.3385
16:11:59:985,3.4959,1.3878,12.9739,32.2773,0.7781,0.4118,1.2934,22.9897
16:12:00:004,3.7208,1.4812,11.33,33.6322,0.9076,0.6855,1.2323,22.5975
16:12:00:027,3.8237,1.5075,10.1216,33.8871,0.9271,0.8859,1.1419,22.1657
16:12:00:044,3.9003,1.5649,9.2076,33.8871,0.9381,1.0276,1.0894,21.6958
16:12:00:064,4.1013,1.8903,8.1763,30.5772,1.0529,1.1217,1.0918,21.1875
16:12:00:083,4.5799,2.3234,6.5755,33.7782,1.2448,1.1363,1.0955,20.6391
16:12:00:104,4.5583,2.8283,5.0465,31.3415,1.3792,1.1278,0.988,20.0537
16:12:00:125,4.544,3.0748,4.2473,32.3641,1.3645,1.0985,0.7852,19.4395
16:12:00:144,4.4794,2.9097,3.7783,30.9669,1.2338,0.9567,0.5372,18.807
16:12:00:164,4.3167,2.4526,4.0893,34.5412,1.0175,0.7405,0.2843,18.1679
16:12:00:186,4.1324,2.1559,4.2856,34.0012,0.8208,0.589,0.0815,17.5318
16:12:00:206,3.8979,2.1105,4.1204,31.3096,0.6669,0.5401,-0.0688,16.9059
16:12:00:228,3.5821,2.0124,3.7017,32.7516,0.5007,0.5536,-0.1946,16.2959
16:12:00:249,3.3284,2.0937,3.7878,32.6599,0.2662,0.5524,-0.2912,15.7079
16:12:00:267,2.8905,2.3809,4.0295,33.4907,-0.1687,0.2836,-0.4035,14.6146
16:12:00:285,2.9958,2.5244,4.2975,33.2319,-0.4168,-0.0292,-0.4353,14.1144
16:12:00:303,2.9169,2.8163,4.9053,35.115,-0.7308,-0.3505,-0.4756,13.6481
16:12:00:324,3.1274,2.8642,5.4652,35.3771,-1.1034,-0.5961,-0.4817,13.2178
16:12:00:344,3.1944,3.0413,7.078,34.1527,-1.5676,-0.6962,-0.4549,12.8261
16:12:00:368,2.9695,3.2949,10.191,35.7145,-2.0624,-0.9296,-0.4146,12.4748
16:12:00:388,3.1801,3.4887,14.3019,35.2326,-2.352,-1.4403,-0.2997,12.1635
16:12:00:405,4.8359,3.192,16.5033,33.5274,-2.1357,-1.9106,-0.0737,11.8825
16:12:00:427,6.0036,3.2088,15.74,34.9672,-1.5065,-1.8581,0.0497,11.6219
16:12:00:444,6.3553,3.5151,14.4622,38.3646,-0.9983,-1.356,-0.0053,11.3781
16:12:00:466,6.396,3.3093,14.6656,37.4574,-0.8407,-0.794,-0.1348,11.1534
16:12:00:484,6.4199,3.1083,14.7398,34.7229,-0.7136,-0.4433,-0.3046,10.9504
16:12:00:505,6.5731,2.8881,13.7779,37.8054,-0.4119,-0.3297,-0.4989,10.771
16:12:00:527,6.1783,2.6417,11.7512,35.7107,-0.0955,-0.3053,-0.7053,10.6171
16:12:00:542,6.1854,2.7015,10.2867,37.8895,0.0096,-0.2185,-0.8421,10.4914
16:12:00:563,6.6114,2.5388,9.3559,36.0971,-0.1431,-0.1477,-0.9448,10.3966
16:12:00:583,5.6806,2.4503,8.6333,38.2629,-0.2115,0.0746,-1.1684,10.3966
16:12:00:612,4.075,2.5747,7.6857,35.985,-0.1529,0.275,-1.3919,10.3966
16:12:00:636,2.5005,2.7159,6.6185,38.4095,-0.0112,0.3251,-1.508,10.3966
16:12:00:646,1.8066,2.6154,5.7284,37.9984,0.1245,0.1846,-1.5007,10.3966
16:12:00:662,1.6869,2.5508,5.2546,37.4284,0.1733,-0.0536,-1.4335,10.5172
16:12:00:683,1.596,2.2708,4.9149,36.9525,0.1953,-0.2002,-1.3871,10.675
16:12:00:702,1.4357,2.1679,4.7498,37.6202,0.2124,-0.2173,-1.3589,10.8684
16:12:00:723,1.1055,1.8855,4.544,39.0015,0.1232,-0.2821,-1.3443,11.3609
16:12:00:741,0.6532,1.9262,4.9603,40.0701,0.0023,-0.348,-1.3553,11.6612
16:12:00:762,0.4475,1.7922,5.0201,38.6138,-0.1077,-0.4873,-1.3052,11.9955
16:12:00:781,0.3111,2.1488,5.3815,39.2768,-0.2787,-0.6083,-1.2013,12.3618
16:12:00:802,0.1747,2.6201,5.604,37.9195,-0.4888,-0.5924,-1.0828,12.758
16:12:00:821,-0.3613,3.1824,6.4702,38.49,-0.7478,-0.5044,-0.979,13.1837
16:12:00:843,-0.4953,3.6682,8.2529,39.4971,-1.0081,-0.4763,-0.8214,13.635
16:12:00:861,-0.524,4.1994,9.7555,39.859,-1.1351,-0.5582,-0.654,14.1074
16:12:00:883,-0.6652,4.6014,11.3396,40.1693,-1.1547,-0.7219,-0.5135,14.596
16:12:00:901,-0.2489,4.7282,13.7635,41.1163,-1.2072,-0.9687,-0.3498,15.0959
16:12:00:921,1.0648,4.5296,16.5224,41.559,-1.2084,-1.1922,-0.147,15.6014
16:12:00:941,2.1081,4.5368,18.0754,41.5443,-0.9494,-1.1116,0.0546,16.1028
16:12:00:965,2.5938,4.7689,17.1063,41.6353,-0.407,-0.6547,0.261,16.5866
16:12:00:985,1.9765,5.2188,15.2518,43.0502,0.1196,0.0343,0.3747,17.043
16:12:01:005,1.4548,4.8909,14.9791,41.1915,0.3871,0.5023,0.4443,17.467
16:12:01:028,1.6223,3.8835,15.5916,43.1578,0.552,0.5035,0.4883,17.8568
16:12:01:044,2.7446,2.7278,15.6897,40.7719,0.783,0.1883,0.5506,18.2079
16:12:01:064,3.9529,2.0363,14.7972,40.7719,1.0542,0.0343,0.6019,18.5166
16:12:01:083,4.3884,1.9765,13.0481,40.7719,1.2472,0.1993,0.5872,18.7814
16:12:01:106,4.4865,2.0506,11.409,40.7719,1.2643,0.5291,0.509,19.0054
16:12:01:128,4.4315,2.1727,10.5428,40.7719,1.1397,0.8175,0.404,19.1948
16:12:01:146,4.2856,2.2253,9.7412,40.7719,1.0163,0.9335,0.2843,19.3562
16:12:01:163,3.9912,2.1679,8.6453,42.4953,0.9784,0.9738,0.1621,19.4953
16:12:01:186,3.9505,1.8329,6.4247,42.6777,1.1238,1.0239,0.1181,19.7099
16:12:01:204,4.008,1.7372,5.1494,44.6708,1.2179,1.0166,0.1438,19.7099
16:12:01:226,3.7017,1.7157,4.2377,43.8564,1.2277,0.9738,0.1511,19.7099
16:12:01:245,3.2614,1.7348,3.6658,43.8647,1.1996,0.9152,0.178,19.7099
16:12:01:265,2.9791,1.7755,3.2877,43.6343,1.1812,0.793,0.2329,19.7099
16:12:01:288,2.7852,1.9119,2.8666,44.1585,1.1922,0.5988,0.2794,19.7099
16:12:01:303,2.6967,2.0889,2.4024,43.2369,1.1678,0.3581,0.2879,19.7099
16:12:01:481,2.5747,2.4239,2.2493,45.4835,1.0591,0.1138,0.2708,19.7099
16:12:01:482,2.467,2.9073,2.6895,44.8972,0.8611,-0.1123,0.2378,19.7099
16:12:01:483,2.5364,3.2495,2.8594,45.6581,0.6645,-0.3199,0.1914,19.6133
16:12:01:484,2.4431,3.6371,3.3165,46.6597,0.4213,-0.5142,0.1242,19.5084
16:12:01:484,2.4096,4.1635,3.6706,43.398,0.1391,-0.706,0.0314,19.4025
16:12:01:485,2.9456,4.3789,4.264,46.8065,-0.2286,-0.8954,-0.0566,19.3026
16:12:01:485,3.7089,4.6995,5.6303,43.4406,-0.7112,-1.0542,-0.1433,19.3026
16:12:01:486,4.4554,4.6875,7.4297,46.7099,-1.1901,-1.1922,-0.2814,19.3026
16:12:01:487,4.8909,4.4554,9.4588,48.8925,-1.5713,-1.3303,-0.4512,19.3026
16:12:01:502,5.3432,4.1994,12.1532,47.3976,-1.8107,-1.5221,-0.5624,19.3026
16:12:01:523,5.9103,4.0295,14.3498,49.8771,-1.7924,-1.7225,-0.5954,19.3026
16:12:01:544,5.9222,3.9314,14.1512,49.4943,-1.4174,-1.6162,-0.6174,19.4102
16:12:01:563,5.2738,4.1109,12.5958,50.0903,-0.9592,-1.0786,-0.6393,19.5503
16:12:01:585,4.9029,4.1803,12.0191,48.6135,-0.7308,-0.4934,-0.6198,19.7174
16:12:01:603,5.3958,4.3167,13.0983,50.7103,-0.6917,-0.3578,-0.5673,19.9086
16:12:01:627,6.9296,3.5486,13.5314,49.8168,-0.5829,-0.6364,-0.5416,20.1209
16:12:01:645,7.2574,3.3165,9.7316,50.8628,-0.2653,-0.6009,-0.6564,20.5977
16:12:01:667,5.8504,3.4217,8.0901,48.8814,-0.3654,-0.111,-0.7823,20.8663
16:12:01:685,3.9769,3.4529,7.5422,50.5199,-0.5145,0.3447,-0.9289,21.1636
16:12:01:704,2.5244,3.1537,6.7502,51.069,-0.4583,0.5194,-1.0291,21.4915
16:12:01:724,1.3376,3.3954,5.6375,50.0444,-0.2482,0.3923,-1.0535,21.8472
16:12:01:746,1.1174,3.2207,4.7426,51.705,-0.0918,0.0404,-0.9912,22.226
16:12:01:764,0.9284,3.1633,4.2138,52.5889,-0.0381,-0.3163,-0.9668,22.626
16:12:01:784,0.792,3.0341,4.1276,49.8631,-0.0564,-0.5008,-0.9656,23.0471
16:12:01:806,0.6078,3.1896,4.2832,50.7283,-0.1064,-0.5166,-0.9472,23.4883
16:12:01:824,0.4834,3.4313,4.6253,52.1727,-0.1541,-0.4861,-0.9118,23.9493
16:12:01:844,0.5312,3.7663,4.8933,51.7966,-0.2066,-0.5191,-0.8861,24.4294
16:12:01:862,0.615,4.0487,5.2355,53.5842,-0.2946,-0.6156,-0.8764,24.929
16:12:01:882,0.7513,4.252,6.1376,52.623,-0.4632,-0.7512,-0.8788,25.4506
16:12:01:902,0.8088,4.5488,7.5637,53.1856,-0.6684,-0.8355,-0.8531,25.9961
16:12:01:921,0.7633,4.9364,8.7817,53.7582,-0.7784,-0.7757,-0.7676,26.5636
16:12:01:941,0.5767,5.391,9.5139,53.3266,-0.7613,-0.6058,-0.6296,27.1485
16:12:01:961,0.4642,5.8552,10.1671,54.676,-0.6807,-0.4165,-0.4732,27.7434
16:12:01:981,0.5647,6.0873,11.0429,54.676,-0.6159,-0.3774,-0.3449,28.3432
16:12:02:001,1.4142,5.8122,13.0983,55.6903,-0.6574,-0.5643,-0.2508,28.9456
16:12:02:021,2.2469,5.0752,15.9123,57.6312,-0.7161,-0.8673,-0.18,29.5503
16:12:02:044,2.144,4.9699,16.6875,56.2016,-0.4705,-0.8942,-0.0749,30.151
16:12:02:061,1.8233,5.0608,14.4407,57.524,0.0279,-0.3248,0.1291,30.7324
16:12:02:082,-0.146,5.147,13.2682,51.8339,0.282,1.0068,0.4626,31.2832
16:12:02:105,-0.323,4.2496,14.7542,57.1443,0.2686,0.8663,0.564,31.8025
16:12:02:121,0.3589,3.1178,15.6347,53.3644,0.4775,0.4131,0.7449,32.7332
16:12:02:142,1.2849,2.3067,15.5222,55.1149,0.7952,0.1345,0.9635,33.1289
16:12:02:161,2.3019,1.8066,14.8116,54.6969,1.0798,0.2885,1.1969,33.4636
16:12:02:182,3.1442,1.5386,14.132,58.4224,1.2423,0.7051,1.3887,33.7304
16:12:02:206,3.7687,1.4142,12.9811,57.9864,1.3633,1.0337,1.5035,33.924
16:12:02:223,4.4961,1.4213,11.062,58.8585,1.5099,1.1974,1.5671,34.041
16:12:02:245,4.9436,1.4955,9.3057,55.642,1.6015,1.3025,1.5756,34.041
16:12:02:264,4.9173,1.5458,7.5326,59.1413,1.6272,1.3978,1.506,34.041
16:12:02:288,4.4913,1.6199,6.1496,57.9015,1.6027,1.4821,1.3911,33.9383
16:12:02:308,4.0199,1.5912,5.2355,57.4853,1.5465,1.5199,1.2861,33.7728
16:12:02:324,3.6873,1.5912,4.6588,59.8325,1.5062,1.4601,1.2177,33.5496
16:12:02:345,3.4744,1.6008,3.7926,58.4973,1.5148,1.3049,1.1627,33.2712
16:12:02:365,3.2686,1.7372,3.0508,60.0907,1.4964,1.0777,1.0906,32.9416
16:12:02:387,3.0245,1.9789,2.4622,59.0814,1.3938,0.8443,1.0087,32.5655
16:12:02:405,3.0508,2.3737,2.3378,60.347,1.1947,0.655,0.9379,32.1492
16:12:02:422,2.8546,2.8092,2.4646,59.4674,0.9442,0.5487,0.8389,31.7007
16:12:02:442,2.467,3.204,2.9049,58.9999,0.6901,0.5071,0.7253,31.2286
16:12:02:463,2.3354,3.673,3.9625,57.7265,0.4507,0.4448,0.6703,30.7399
16:12:02:482,2.8833,4.0989,4.5823,59.0669,0.3211,0.3019,0.6618,30.2367
16:12:02:504,3.3571,4.6636,4.7258,59.7099,0.2613,0.0979,0.6019,29.7225
16:12:02:527,3.472,5.1111,4.0893,60.8054,0.1623,-0.089,0.459,29.2042
16:12:02:547,5.1829,5.592,5.0608,59.5543,-0.688,-0.414,0.2085,28.1911
16:12:02:563,5.3719,5.415,7.212,58.9475,-1.2732,-0.5447,0.0118,27.7258
16:12:02:584,5.2379,4.8909,10.1288,61.1811,-1.6544,-0.7219,-0.1568,27.3066
16:12:02:603,5.4126,4.6971,11.8349,61.4814,-1.6263,-1.0053,-0.1861,26.9339
16:12:02:624,6.207,4.8144,11.2582,60.7527,-1.2329,-1.1642,-0.1189,26.5967
16:12:02:656,6.8387,4.9125,10.0451,61.7854,-0.8871,-1.0798,-0.0749,26.2862
16:12:02:662,7.0373,4.8144,10.1647,61.165,-0.8236,-0.8062,-0.1152,26.0026
16:12:02:681,6.7502,4.3143,10.5811,62.5994,-0.7894,-0.4287,-0.2056,25.7483
16:12:02:704,6.5563,3.929,10.7509,61.6922,-0.6465,-0.2247,-0.2765,25.5225
16:12:02:721,7.48,3.2303,10.27,58.8414,-0.4937,-0.3835,-0.2863,25.3209
16:12:02:742,8.0566,2.8953,8.8822,63.3626,-0.44,-0.557,-0.3327,25.1419
16:12:02:761,7.882,2.8786,7.7958,62.8344,-0.6073,-0.4971,-0.4378,24.9912
16:12:02:780,7.1282,2.9575,7.6331,63.7719,-0.9482,-0.2845,-0.5538,24.878
16:12:02:800,5.6495,2.9216,8.1859,62.8494,-1.2182,-0.0389,-0.6674,24.878
16:12:02:820,4.0032,2.9312,8.0399,62.5744,-1.1877,0.1663,-0.7249,24.878
16:12:02:841,2.7852,3.0389,6.9846,62.9102,-0.8969,0.2164,-0.6894,24.878
16:12:02:860,2.2469,3.125,5.5561,62.1046,-0.5634,0.1089,-0.5966,24.878
16:12:02:881,2.0076,3.393,4.3358,61.3584,-0.3496,-0.0499,-0.5208,24.878
16:12:02:901,1.931,3.5725,3.5629,61.9224,-0.2811,-0.2002,-0.5062,24.878
16:12:02:925,1.6223,3.5725,3.4792,62.2976,-0.3569,-0.3004,-0.5587,24.9897
16:12:02:941,1.0337,3.6969,3.8979,63.18,-0.4705,-0.3688,-0.6222,25.1268
16:12:02:961,0.95,3.929,4.5153,61.7246,-0.5438,-0.4995,-0.61,25.2896
16:12:02:986,1.5625,4.477,5.8098,63.5392,-0.6086,-0.772,-0.5831,25.6864
16:12:03:002,1.3232,4.5129,6.4582,62.658,-0.666,-0.7427,-0.6284,25.9231
16:12:03:020,0.5575,4.4315,8.016,64.9983,-0.7772,-0.6535,-0.6528,26.1894
16:12:03:042,0.5384,4.1013,11.5765,62.6532,-0.8493,-0.7023,-0.5685,26.4852
16:12:03:062,0.9404,4.1922,14.3641,61.3783,-0.6318,-0.9235,-0.3535,26.8017
16:12:03:082,2.0172,4.6756,13.6008,62.719,-0.1101,-1.0835,-0.0493,27.1189
16:12:03:103,3.1346,5.3527,12.2871,61.7117,0.1794,-0.91,0.2146,27.4217
16:12:03:130,4.4746,5.3982,12.4523,62.3386,-0.0112,-0.4604,0.3832,27.7083
16:12:03:142,5.4102,4.9412,14.278,63.7816,-0.3887,-0.0646,0.4602,27.9837
16:12:03:162,5.9079,4.7928,15.8022,62.4727,-0.5157,0.1614,0.5066,28.2491
16:12:03:182,5.793,4.7043,14.5675,63.0932,-0.1602,0.4546,0.5616,28.4964
16:12:03:204,4.3358,4.587,12.4283,62.6162,0.2991,0.7649,0.5518,28.7181
16:12:03:227,3.6203,3.862,11.9091,61.5756,0.4726,0.8541,0.5396,28.9128
16:12:03:245,3.7711,2.6991,12.0479,61.0961,0.5178,0.6977,0.6056,29.0791
16:12:03:264,4.319,1.6606,13.1629,61.0027,0.5569,0.3801,0.6789,29.216
16:12:03:281,5.147,1.1581,13.1557,60.6501,0.7316,0.1113,0.7436,29.3191
16:12:03:305,6.2142,1.1749,11.3683,60.1356,1.0126,0.0844,0.8243,29.3191
16:12:03:323,6.7238,1.5577,9.6694,60.6012,1.1128,0.2982,0.8414,29.3191
16:12:03:346,6.5061,1.6558,8.5496,61.531,0.9577,0.6098,0.7558,29.3191
16:12:03:364,5.5226,1.6893,7.6546,60.6429,0.7353,0.9152,0.6129,29.3191
16:12:03:547,4.3143,1.6319,7.1402,62.6077,0.5569,1.1009,0.5335,29.3191
16:12:03:548,3.3284,1.7109,6.1232,62.2521,0.5081,1.1376,0.5628,29.2218
16:12:03:549,3.1561,1.9884,4.7809,64.3683,0.5239,1.107,0.6862,29.0985
16:12:03:550,3.4409,1.9765,3.2303,64.6992,0.3566,0.341,0.63,28.9481
16:12:03:550,2.1152,1.0217,3.1035,62.8397,0.293,-0.1599,0.4138,28.7749
16:12:03:551,4.3813,2.5388,3.807,60.5563,0.2307,-0.3529,0.4981,28.5899
16:12:03:552,3.5151,2.2134,4.8574,60.6535,0.3187,-0.1489,0.5469,28.1762
16:12:03:552,4.6612,1.7492,5.1182,59.8213,0.8098,0.2445,0.5237,27.939
16:12:03:553,4.5751,2.6249,4.9938,60.7091,1.1812,0.3398,0.4101,27.6768
16:12:03:561,4.3262,2.613,4.197,58.6506,1.2093,0.1956,0.3454,27.3913
16:12:03:582,3.8931,2.6178,3.4505,61.4436,0.8746,0.1015,0.2305,27.0921
16:12:03:606,3.7783,2.6297,3.4983,59.176,0.3321,0.2298,0.1535,26.7908
16:12:03:623,3.5701,3.0293,4.6062,60.3791,-0.1651,0.5194,0.1254,26.4971
16:12:03:643,4.2329,3.4792,6.3601,60.1074,-0.6342,0.3825,0.1108,26.2183
16:12:03:662,5.0871,3.9123,8.2816,60.0392,-0.9873,-0.166,0.0301,25.9627
16:12:03:683,5.6016,4.1396,9.6885,60.0155,-1.3184,-0.6828,-0.1177,25.7399
16:12:03:705,5.391,4.142,11.3707,62.3601,-1.768,-0.7891,-0.2386,25.5605
16:12:03:724,4.4243,4.1372,17.0082,58.4633,-2.1895,-0.5032,-0.1959,25.4329
16:12:03:743,4.5727,3.3404,18.9966,60.2377,-2.1333,-0.4678,0.1095,25.4329
16:12:03:762,6.1759,2.3809,17.7763,59.5292,-1.2036,-0.0793,0.5946,25.4329
16:12:03:782,6.5539,2.948,14.3569,59.905,0.0389,0.6428,0.6373,25.3331
16:12:03:802,6.7262,2.9958,10.0522,61.3128,0.8917,1.1828,0.4907,25.2074
16:12:03:825,6.2333,3.0556,7.6857,60.5008,0.9589,1.2976,0.3111,25.0606
16:12:03:844,6.3888,2.5196,8.1739,59.6322,0.4103,0.8834,0.1242,24.907
16:12:03:864,6.6401,0.9571,10.2963,59.779,-0.214,0.3117,-0.1018,24.7637
16:12:03:884,5.616,0.1316,11.3396,58.8882,-0.4375,0.1602,-0.4023,24.6442
16:12:03:909,2.5627,0.6317,9.1095,57.3221,-0.1125,0.8944,-0.5172,24.5517
16:12:03:928,1.9597,1.3735,7.3101,58.8502,0.0511,1.1852,-0.3571,24.5517
16:12:03:942,1.7276,1.864,5.8552,58.1445,0.1513,1.2096,-0.1873,24.5517
16:12:03:961,1.6822,2.2062,4.5942,58.6174,0.1868,1.107,-0.1079,24.5517
16:12:03:982,1.6606,2.5244,4.2209,57.5665,0.166,1.0423,-0.1018,24.5517
16:12:04:004,1.5649,2.9527,3.8213,58.8146,0.1574,0.9543,-0.1494,24.5517
16:12:04:028,1.608,3.1059,3.8261,58.3137,0.155,0.7918,-0.2435,24.5517
16:12:04:042,1.5482,3.1944,3.6754,57.3055,0.1647,0.5682,-0.373,24.5517
16:12:04:062,1.6869,3.74,3.8668,58.5384,0.1293,0.2041,-0.5355,24.5517
16:12:04:082,1.6223,4.1085,3.6227,58.0674,0.0328,-0.3444,-0.7224,24.5517
16:12:04:105,1.1486,4.2233,3.9314,57.4887,-0.1871,-0.7903,-0.902,24.5517
16:12:04:123,1.2275,3.9769,5.6495,58.4876,-0.5194,-1.0493,-1.0071,24.5517
16:12:04:143,1.9765,3.2614,7.7312,57.6107,-0.8529,-1.1947,-1.0095,24.6768
16:12:04:163,2.4072,3.0006,10.1121,56.9441,-1.1376,-0.9956,-1.0071,24.8434
16:12:04:182,1.8353,2.6943,12.3829,58.2277,-1.3111,-0.546,-1.0169,25.0538
16:12:04:202,1.2371,2.7326,14.0818,56.5075,-1.3013,-0.0817,-0.9326,25.3042
16:12:04:224,1.1533,2.9193,14.2301,56.5328,-1.118,0.0966,-0.7175,25.5843
16:12:04:245,1.7085,3.1059,14.2397,57.1351,-0.9348,-0.0353,-0.439,25.8811
16:12:04:261,2.9934,3.0963,15.259,57.7435,-0.8236,-0.1746,-0.147,26.1827
16:12:04:281,3.4169,3.3858,14.8881,58.6223,-0.5157,-0.0988,-0.0028,26.4809
16:12:04:303,2.1942,4.0822,12.4857,57.4779,-0.0344,0.1321,-0.0651,26.7735
16:12:04:327,0.6508,4.0343,11.665,56.1516,0.1745,0.2579,-0.2044,27.3578
16:12:04:349,-0.4331,3.3141,12.9787,55.4429,0.1024,0.0746,-0.2899,27.6571
16:12:04:371,-0.5934,0.4642,16.0917,56.6875,0.034,-0.7989,0.002,27.9519
16:12:04:382,0.7968,0.1795,15.3045,57.6914,0.2906,-0.6791,0.3734,28.2286
16:12:04:400,1.797,0.4403,13.6798,55.2417,0.5447,-0.2772,0.5946,28.4774
16:12:04:421,2.2708,0.6365,12.3924,56.2898,0.6388,0.1003,0.6215,28.6961
16:12:04:442,2.2373,0.8016,10.794,56.2945,0.7011,0.3178,0.5494,28.8862
16:12:04:462,2.321,0.9906,9.4732,56.2278,0.7793,0.4448,0.503,29.0487
16:12:04:482,2.4598,1.1892,8.1954,56.6875,0.8807,0.5218,0.492,29.1828
16:12:04:504,2.3282,1.3113,6.932,54.5527,1.0151,0.4925,0.4663,29.2896
16:12:04:523,2.0578,1.3902,5.7165,57.7088,1.1421,0.4204,0.4419,29.2896
16:12:04:546,1.8401,1.3759,4.6732,55.056,1.2216,0.3422,0.4443,29.2896
16:12:04:567,1.7061,1.5147,4.2257,56.3219,1.213,0.2677,0.4785,29.2896
16:12:04:580,1.9454,1.6487,4.1085,55.2267,1.1763,0.1785,0.5237,29.2896
16:12:04:603,2.4191,1.7731,3.8189,55.4839,1.1702,0.0234,0.5445,29.2896
16:12:04:623,2.8427,1.9884,3.4098,54.4006,1.1483,-0.1611,0.5078,29.2896
16:12:04:643,3.3332,1.9836,3.1777,52.8564,1.0139,-0.3908,0.3942,29.2896
16:12:04:665,3.4074,2.0794,3.5103,55.5056,0.7329,-0.6217,0.2036,29.1912
16:12:04:681,3.5103,1.8879,4.3334,55.8403,0.3651,-0.7378,-0.0053,29.0909
16:12:04:701,3.685,1.9167,5.1733,54.362,0.0267,-0.7561,-0.1934,28.9993
16:12:04:720,3.4074,1.7827,6.3218,55.0888,-0.3007,-0.651,-0.3718,28.9993
16:12:04:742,3.2351,1.9023,7.0756,55.2261,-0.5621,-0.6181,-0.4585,28.9993
16:12:04:759,4.2138,1.986,7.1306,54.2015,-0.8309,-0.6669,-0.4256,28.9993
16:12:04:780,4.6828,2.1105,7.6355,54.1151,-1.2292,-0.6156,-0.4879,28.9993
16:12:04:800,2.7517,2.1105,12.1771,54.9802,-2.0966,-0.6596,-0.8165,28.9993
16:12:04:819,2.2804,2.333,15.1226,55.8744,-2.1431,-1.0823,-0.7224,29.1062
16:12:04:840,3.5725,2.1655,16.6899,56.9056,-1.7142,-1.4623,-0.3816,29.4558
16:12:04:860,5.0871,2.0794,15.5845,54.4871,-0.8957,-1.3792,-0.0151,29.6582
16:12:04:879,5.4891,2.5029,12.9715,55.1005,-0.1199,-0.8221,0.134,29.8541
16:12:04:899,5.6806,2.7613,10.7964,56.8085,0.2368,-0.2723,0.1267,30.0373
16:12:04:922,6.3649,2.4479,10.5954,55.4467,0.0976,-0.1587,0.0301,30.2124
16:12:04:941,7.2455,1.8473,11.7105,55.0845,-0.2665,-0.37,-0.1189,30.3903
16:12:04:961,7.5805,1.6343,12.5527,54.8471,-0.5023,-0.4617,-0.2789,30.5797
16:12:04:981,6.53,1.8066,11.866,54.4083,-0.4375,-0.1782,-0.4744,30.7849
16:12:05:003,4.855,2.0913,10.1719,53.7695,-0.1871,0.3166,-0.6051,31.0064
16:12:05:024,3.5653,2.4694,8.6501,55.338,0.0609,0.6647,-0.5929,31.2394
16:12:05:046,2.8714,2.5866,7.255,55.137,0.3016,0.7637,-0.5294,31.478
16:12:05:063,2.3833,2.6082,5.8959,54.6192,0.5252,0.6696,-0.494,31.7178
16:12:05:081,2.0267,2.747,4.8646,54.4987,0.6535,0.4901,-0.4952,31.9571
16:12:05:101,1.9382,2.6393,4.4387,54.6192,0.6547,0.2885,-0.5208,32.1965
16:12:05:122,1.785,2.6369,4.0726,53.7456,0.5936,0.1871,-0.5734,32.4388
16:12:05:142,1.4118,2.7996,4.0941,53.6197,0.48,0.1883,-0.6381,32.6879
16:12:05:163,1.4477,2.9216,4.5129,54.6269,0.3065,0.1883,-0.654,32.9468
16:12:05:184,1.6822,3.2614,5.7667,53.3011,0.1208,0.1113,-0.6332,33.2169
16:12:05:201,1.9454,3.4911,7.0517,54.602,0.0267,-0.0365,-0.6247,33.4992
16:12:05:223,2.3569,3.4816,7.6283,52.6251,0.0462,-0.2027,-0.6174,33.7932
16:12:05:241,2.3761,3.5007,8.1523,54.1534,0.0719,-0.2417,-0.61,34.0987
16:12:05:262,1.4668,3.929,9.2865,53.5159,0.0719,-0.1306,-0.4671,34.737
16:12:05:281,0.9619,4.3478,9.8297,54.7072,0.0756,-0.1171,-0.3168,35.0608
16:12:05:301,0.9523,4.4913,10.4375,53.502,0.0792,-0.1526,-0.1445,35.3811
16:12:05:324,1.7037,4.3502,10.6433,52.7362,0.0548,-0.2381,0.0326,35.6928
16:12:05:341,2.7637,4.1276,11.8971,54.6588,-0.1174,-0.3664,0.1572,35.9941
16:12:05:362,3.0173,4.0654,13.6702,53.4202,-0.341,-0.3444,0.1816,36.2889
16:12:05:382,2.3713,4.2903,13.5529,52.3846,-0.2775,0.0319,0.1731,36.5769
16:12:05:403,1.4979,4.6038,12.7514,52.612,-0.1003,0.5243,0.1877,36.8551
16:12:05:425,0.4522,4.4937,13.0433,53.1321,-0.0637,0.7124,0.1951,37.124
16:12:05:562,0.8734,3.6706,14.6297,53.1321,-0.0832,0.5035,0.3356,37.3804
16:12:05:565,2.6895,2.8427,15.271,52.6041,0.0927,0.1028,0.5983,37.6135
16:12:05:566,4.13,2.5268,14.6058,54.3715,0.4494,-0.1794,0.7656,37.8125
16:12:05:568,4.8072,2.6728,13.1127,53.9848,0.7646,-0.1746,0.7619,37.9736
16:12:05:569,4.7498,2.8283,11.208,52.4346,0.9039,0.0893,0.6679,38.098
16:12:05:570,4.7593,2.9216,9.9422,52.5002,0.8416,0.4583,0.5934,38.1893
16:12:05:571,4.52,2.8259,9.5809,51.7583,0.7084,0.7234,0.503,38.1893
16:12:05:580,3.7591,2.6273,8.4538,52.287,0.7231,0.7686,0.393,38.1893
16:12:05:600,2.7972,2.4383,6.92,51.7952,0.8318,0.6929,0.3295,38.1893
16:12:05:620,2.1009,2.3497,6.0155,53.5493,0.9051,0.6269,0.3808,38.1893
16:12:05:640,2.2947,2.3617,5.7452,52.0769,0.9748,0.5438,0.5738,38.1893
16:12:05:661,3.0628,2.065,5.3695,53.4138,1.114,0.3899,0.7864,38.1893
16:12:05:681,3.6945,2.0506,4.3693,52.8166,1.3193,0.2591,0.8707,38.0718
16:12:05:704,3.6969,2.077,2.8738,51.2794,1.4561,0.209,0.7681,37.9112
16:12:05:728,2.1894,2.2804,1.1486,53.023,1.0359,0.2225,0.327,37.4997
16:12:05:746,1.4668,2.412,1.6391,52.3125,0.5716,0.2579,0.178,37.2746
16:12:05:762,1.1892,2.4718,2.9982,53.9433,0.1452,0.2482,0.1267,37.0501
16:12:05:780,1.3113,2.5866,4.0056,52.5344,-0.1297,0.1174,0.1364,36.831
16:12:05:801,1.7946,2.6632,4.8766,52.3957,-0.2897,-0.0512,0.1401,36.6182
16:12:05:821,2.2756,2.6728,5.1829,53.8737,-0.4339,-0.1794,0.1022,36.4146
16:12:05:840,2.9671,2.9982,5.5298,51.5269,-0.6758,-0.3273,0.0277,36.2249
16:12:05:861,3.7017,2.9671,6.6401,47.9632,-1.0802,-0.4604,-0.0602,36.0569
16:12:05:882,3.9266,3.125,7.9178,48.913,-1.5383,-0.4678,-0.169,35.9208
16:12:05:903,3.6395,3.4576,9.8154,52.2497,-1.9451,-0.3639,-0.2582,35.8245
16:12:05:922,2.8857,4.1109,12.7609,52.6223,-2.1895,-0.3578,-0.2704,35.8245
16:12:05:942,3.4768,4.4602,15.819,54.7346,-2.0893,-0.6315,-0.1165,35.8245
16:12:05:961,5.7571,4.1611,16.9579,53.5358,-1.5029,-0.9589,0.1523,35.8245
16:12:05:982,6.865,4.264,15.125,54.2473,-0.6245,-0.9736,0.2293,35.8245
16:12:06:003,6.6353,4.2568,11.6985,54.2628,0.034,-0.5826,0.0753,35.8245
16:12:06:023,5.5968,3.8931,9.7388,53.308,0.1501,0.1125,-0.1311,35.8245
16:12:06:040,4.8766,3.6897,9.679,52.8286,-0.1162,0.5108,-0.285,35.8245
16:12:06:060,5.9246,2.802,11.5549,53.8772,-0.5463,0.2017,-0.2961,35.8245
16:12:06:081,7.3172,2.132,14.0531,55.0219,-0.8468,-0.3297,-0.2936,35.8245
16:12:06:102,7.0301,1.8544,14.2564,54.735,-0.7063,-0.3847,-0.4194,35.8245
16:12:06:123,5.0225,2.1033,11.9426,52.7979,-0.2237,0.2139,-0.5563,35.918
16:12:06:143,3.3643,2.6608,9.1597,54.5553,0.2588,0.8419,-0.5367,36.0228
16:12:06:164,2.7685,2.7541,6.9105,53.3226,0.5643,1.0313,-0.4292,36.1312
16:12:06:187,2.1775,2.6608,4.2736,52.78,0.7316,0.5866,-0.4488,36.3494
16:12:06:206,1.7779,2.5651,3.661,52.5785,0.6559,0.3789,-0.5599,36.4669
16:12:06:225,1.3185,2.5723,3.2112,52.8926,0.5276,0.2616,-0.6723,36.5971
16:12:06:241,1.0146,2.7039,3.1131,53.8842,0.3346,0.1809,-0.7603,36.7446
16:12:06:261,0.9547,2.747,3.8094,54.1902,0.089,0.0637,-0.8165,36.9143
16:12:06:282,1.0313,2.6154,5.0034,55.7101,-0.1358,-0.078,-0.869,37.1103
16:12:06:305,0.871,2.6345,5.5298,53.2342,-0.2689,-0.2002,-0.9423,37.3358
16:12:06:323,0.6006,2.7541,5.9749,55.3885,-0.3911,-0.2772,-0.9839,37.5932
16:12:06:343,0.4451,2.924,7.066,55.6663,-0.5951,-0.2943,-0.9411,37.8826
16:12:06:362,0.1077,3.0269,7.87,54.052,-0.7784,-0.2381,-0.8202,38.2007
16:12:06:380,-0.4092,3.3858,8.9994,54.1632,-0.9091,-0.1367,-0.621,38.5419
16:12:06:400,-0.9739,3.9601,10.1647,55.1978,-0.9348,-0.0744,-0.3486,38.8968
16:12:06:422,-0.8614,4.3621,11.5382,54.5529,-0.848,-0.1489,-0.0297,39.2534
16:12:06:443,0.3757,4.4459,12.9165,55.7536,-0.7246,-0.3725,0.2879,39.5995
16:12:06:466,1.6822,4.3382,14.7613,50.0731,-0.6574,-0.6559,0.4797,39.9283
16:12:06:481,2.3713,4.3119,15.405,55.2915,-0.5182,-0.8013,0.5482,40.2373
16:12:06:500,2.4383,4.1826,14.4957,55.4508,-0.2482,-0.5386,0.5616,40.5234
16:12:06:523,1.2586,4.185,12.2847,55.2161,0.023,0.0893,0.5249,40.7859
16:12:06:544,0.3517,4.142,11.2415,54.6485,0.0951,0.589,0.5164,41.0246
16:12:06:561,-0.0168,4.0319,11.6076,56.7012,0.0377,0.5878,0.5543,41.2402
16:12:06:583,0.9476,3.5198,12.6437,57.1898,0.0365,0.1492,0.652,41.4301
16:12:06:604,3.0365,2.6178,13.8568,55.4807,0.1134,-0.4079,0.7717,41.5902
16:12:06:622,4.8455,2.1224,13.9214,55.5819,0.2393,-0.7133,0.7729,41.7187
16:12:06:643,4.4267,2.3689,11.4521,58.2653,0.3468,0.1015,0.503,41.8186
16:12:06:663,4.0822,2.4096,10.8371,57.045,0.2772,0.5975,0.4492,41.8186
16:12:06:681,4.0295,2.3952,10.1934,57.6393,0.3077,0.6733,0.4455,41.8186
16:12:06:702,3.6562,2.3617,9.3272,57.2838,0.4555,0.4583,0.3844,41.8186
16:12:06:721,2.924,2.3737,8.2672,56.6526,0.6363,0.2127,0.3087,41.8186
16:12:06:742,2.2158,2.3593,7.547,55.9483,0.7854,0.1211,0.2928,41.8186
16:12:06:766,1.7922,2.0435,6.8842,55.9128,0.921,0.137,0.3515,41.8186
16:12:06:779,1.7779,1.9286,6.3625,56.5605,1.0542,0.1602,0.4944,41.8186
16:12:06:800,2.2062,1.9836,5.7141,57.0161,1.1763,0.0954,0.6483,41.8186
16:12:06:818,2.68,1.9693,4.9771,56.5477,1.2631,-0.0194,0.6996,41.692
16:12:06:839,2.5699,1.8784,4.2018,57.1928,1.2826,-0.0707,0.6105,41.5335
16:12:06:859,2.2205,1.8114,3.5533,56.6451,1.2167,-0.0231,0.4712,41.3491
16:12:06:878,1.9501,2.0219,3.4002,55.5451,1.0578,-0.0011,0.3576,41.1454
16:12:06:901,2.187,1.876,4.0511,57.024,0.8318,-0.0756,0.272,40.9282
16:12:06:920,2.6465,1.9262,4.6612,56.0088,0.6437,-0.2405,0.1938,40.7029
16:12:06:941,3.3906,1.9286,5.1852,57.5158,0.4714,-0.4433,0.0668,40.4758
16:12:06:964,3.795,1.6654,5.2642,56.8992,0.2222,-0.557,-0.147,40.2575
16:12:06:981,3.7759,1.8712,5.3456,54.9427,-0.1822,-0.5557,-0.3718,40.0605
16:12:07:002,3.7854,1.8377,6.5396,57.6232,-0.7979,-0.5069,-0.5538,39.8997
16:12:07:025,3.0437,1.5362,8.528,57.5959,-1.4406,-0.4336,-0.7029,39.79
16:12:07:048,1.8927,1.7396,10.8873,57.7674,-1.8963,-0.4103,-0.7224,39.79
16:12:07:062,1.6104,2.0961,13.474,56.7711,-2.0526,-0.4873,-0.5099,39.79
16:12:07:082,4.6852,3.393,15.6945,55.8421,-1.4174,-0.5814,0.3172,39.79
16:12:07:105,6.8961,3.3476,15.3524,55.7936,-0.8065,-0.3884,0.6044,39.79
16:12:07:120,8.7745,3.7854,13.8568,57.267,-0.1431,-0.133,0.6923,39.79
16:12:07:144,10.1719,3.5868,12.1364,56.4878,0.2698,-0.0695,0.5225,39.79
16:12:07:160,10.9663,3.1107,10.8108,57.1057,0.2894,-0.1624,0.1425,39.79
16:12:07:188,9.1454,3.0987,10.1719,55.8421,0.0084,-0.0133,-0.4084,39.79
16:12:07:205,5.8002,3.3452,10.9065,56.4051,-0.319,0.457,-0.8727,39.79
16:12:07:222,3.2016,4.0247,11.2558,56.6625,-0.3984,0.8101,-0.99,39.79
16:12:07:248,2.0746,4.4459,11.1697,56.0858,-0.1993,0.8272,-0.8299,39.8814
16:12:07:260,1.7085,4.733,10.7845,56.0939,0.1929,0.6159,-0.588,39.9881
16:12:07:278,1.7779,5.0034,9.4038,55.9951,0.6889,0.3776,-0.3706,40.0957
16:12:07:299,1.7994,5.5753,8.3127,56.8708,1.0908,0.2628,-0.2154,40.1942
16:12:07:320,2.1559,5.8863,8.0997,55.9106,1.3449,0.2262,-0.1238,40.1942
16:12:07:342,2.8092,5.683,7.7743,54.2101,1.582,0.0771,-0.1262,40.1942
16:12:07:361,3.4744,5.3192,7.6881,55.4506,1.7958,-0.1428,-0.2618,40.1942
16:12:07:381,3.8907,4.8168,7.1521,55.5061,1.9595,-0.3077,-0.5013,40.1942
16:12:07:403,3.6802,4.3717,6.4941,56.3757,1.9693,-0.2784,-0.7994,40.1942
16:12:07:425,2.8403,4.3406,6.5204,55.8182,1.7958,0.0282,-1.056,40.1942
16:12:07:443,2.4096,4.3884,6.5085,54.8479,1.5526,0.4167,-1.1769,40.1942
16:12:07:459,1.931,4.276,7.2646,55.1709,1.3034,0.7674,-1.2148,40.3058
16:12:07:601,1.0552,4.3645,7.2814,54.7918,1.2313,0.9567,-1.2429,40.4487
16:12:07:602,0.0024,4.7928,6.2596,56.1559,1.3144,0.9628,-1.2466,40.6245
16:12:07:603,-1.0576,5.5418,5.3216,55.7333,1.3071,0.903,-1.1525,40.8307
16:12:07:603,-0.6269,6.6975,6.0467,59.0837,0.8196,0.6244,-0.7798,41.3154
16:12:07:604,-0.4187,7.0445,7.3531,56.6868,0.5496,0.4045,-0.6626,41.5874
16:12:07:604,-0.5121,7.3101,8.1069,55.3967,0.4128,0.2567,-0.5563,41.8753
16:12:07:605,-0.67,7.2239,8.205,54.9907,0.425,0.4094,-0.3925,42.1731
16:12:07:618,-0.8064,7.4369,8.5041,55.7815,0.48,0.7075,-0.1763,42.4702
16:12:07:638,-0.6724,7.2646,8.9396,57.8991,0.5569,0.7857,-0.0053,42.7598
16:12:07:657,-0.1627,6.7717,8.2433,55.7797,0.6449,0.5841,0.0363,43.0387
16:12:07:677,-0.4618,6.4989,7.7025,57.0222,0.5777,0.3141,-0.059,43.3123
16:12:07:697,-0.682,5.8911,8.1021,56.4321,0.3309,0.0954,-0.1702,43.5886
16:12:07:718,-0.8423,5.3815,8.1212,55.5582,0.1293,0.1003,-0.1739,43.8687
16:12:07:739,-1.139,5.2594,7.8341,55.7152,0.0255,0.2836,-0.1006,44.1496
16:12:07:758,-1.2538,5.2714,7.7791,55.5969,-0.0478,0.4192,0.024,44.4261
16:12:07:778,-0.9739,5.2594,7.736,54.5138,-0.0723,0.4204,0.1914,44.6898
16:12:07:797,-0.6174,5.3312,7.1641,57.2834,0.0023,0.4009,0.3771,44.9315
16:12:07:818,-0.1484,5.4485,6.81,55.3484,0.0927,0.4424,0.5762,45.1407
16:12:07:837,0.347,5.458,6.4774,57.8056,0.2039,0.4937,0.7619,45.309
16:12:07:857,1.0026,5.4006,6.2453,55.946,0.3505,0.4644,0.9025,45.4289
16:12:07:882,1.3304,5.3312,5.6542,56.9767,0.5618,0.3764,0.9513,45.4289
16:12:07:898,1.5625,5.3791,4.5655,56.6953,0.7695,0.2359,0.9245,45.4289
16:12:07:918,1.5793,5.5346,3.7663,57.0023,0.8379,0.1492,0.8438,45.4289
16:12:07:938,1.4189,5.7811,3.8333,57.1387,0.7487,0.1516,0.7326,45.4289
16:12:07:959,1.2275,5.9462,4.1803,54.3627,0.651,0.137,0.6044,45.327
16:12:07:984,0.8566,6.1352,4.2496,56.4926,0.6363,0.071,0.4736,45.1996
16:12:08:002,0.4355,6.7047,4.4219,55.9269,0.6522,-0.0829,0.316,45.0522
16:12:08:028,0.2991,7.0229,4.3478,55.5936,0.6571,-0.0463,0.2561,44.7091
16:12:08:041,0.0981,7.4225,3.9769,55.9273,0.6363,0.0075,0.1987,44.5205
16:12:08:061,0.4834,7.6881,3.6012,57.7779,0.5337,-0.0451,0.1682,44.3232
16:12:08:081,0.8399,8.0399,3.4457,55.0063,0.3065,-0.1477,0.1279,44.1216
16:12:08:104,0.5575,8.6501,3.5821,57.5377,0.0194,-0.1232,0.0375,43.9244
16:12:08:127,0.2225,9.1023,3.5892,57.2909,-0.2506,-0.0622,-0.0419,43.7393
16:12:08:143,0.7777,9.2195,4.3454,55.8962,-0.5646,-0.177,-0.0468,43.5695
16:12:08:163,1.9932,8.9157,5.994,53.793,-0.8981,-0.3994,-0.0236,43.4165
16:12:08:179,2.9982,8.6213,7.8054,57.5054,-1.1192,-0.5753,-0.048,43.2836
16:12:08:202,3.5653,8.2122,9.6814,58.0967,-1.1522,-0.6388,-0.1165,43.1745
16:12:08:221,4.1468,7.7743,10.4088,57.4682,-0.8896,-0.5093,-0.1739,43.1745
16:12:08:240,4.2018,7.9681,8.9324,58.2453,-0.4168,-0.3065,-0.2521,43.1745
16:12:08:261,4.1013,7.8963,7.2479,57.1764,-0.1993,-0.2967,-0.362,43.1745
16:12:08:278,3.9027,7.7384,6.9248,58.2453,-0.4082,-0.4397,-0.4378,43.1745
16:12:08:301,3.7615,7.2646,7.2742,57.7607,-0.7674,-0.4995,-0.4524,43.1745
16:12:08:323,3.752,6.6329,8.4706,56.8477,-0.9739,-0.3578,-0.3742,43.1745
16:12:08:345,3.7113,6.4989,8.2672,57.3007,-0.8358,-0.1843,-0.3107,43.1745
16:12:08:362,2.8977,6.4439,6.2979,55.9129,-0.4449,-0.067,-0.3205,43.1745
16:12:08:380,2.948,5.805,4.4554,57.2975,-0.1871,-0.006,-0.3693,43.1745
16:12:08:403,3.003,5.2858,3.5629,57.1498,-0.0869,-0.0194,-0.4793,43.2783
16:12:08:422,3.1848,4.8431,4.3669,55.4766,-0.049,0.0026,-0.7053,43.4096
16:12:08:446,2.5675,3.2375,6.0562,56.0225,0.6889,0.5365,-1.5691,43.8203
16:12:08:461,-0.5551,3.5222,1.4524,56.7131,1.0957,1.0215,-2.0138,44.141
16:12:08:478,-3.9769,4.4985,-1.5793,57.8163,0.761,1.272,-2.0223,44.5542
16:12:08:499,-5.0441,5.7643,-0.0479,57.0068,-0.0576,1.063,-1.6778,45.044
16:12:08:519,-4.0869,5.7332,0.7633,56.2427,-0.7063,0.3337,-1.2075,45.5803
16:12:08:538,-3.5844,6.1017,2.7924,54.8923,-1.1107,-0.3395,-0.924,46.1434
16:12:08:561,-3.4217,6.4176,3.8142,58.2699,-1.3612,-0.794,-0.7798,46.7236
16:12:08:580,-4.5177,6.7597,4.2449,55.7565,-1.4589,-0.8734,-0.7139,47.3172
16:12:08:601,-4.9603,7.145,3.9529,57.2424,-1.6336,-0.7989,-0.5062,47.9135
16:12:08:621,-4.3143,7.4991,3.9649,58.7097,-1.9464,-0.9149,-0.191,48.4963
16:12:08:640,-4.2927,6.9655,4.7761,56.9898,-2.4998,-1.158,0.0094,49.0572
16:12:08:661,-2.6752,5.884,10.258,58.7753,-3.1656,-1.472,0.1218,49.0572
16:12:08:681,-3.8261,7.3531,14.1177,57.5047,-3.5212,-2.0829,0.2488,49.0572
16:12:08:702,-2.12,6.4558,16.5918,55.6488,-3.1571,-2.2869,0.564,49.0572
16:12:08:723,0.8566,-0.4666,16.2951,57.1648,-2.0184,-1.9815,0.7998,49.0572
16:12:08:741,0.6891,0.2536,15.2016,56.3825,-0.8444,-1.8728,0.4015,49.5578
16:12:08:760,3.2231,5.2714,18.4176,57.3171,-0.3349,-1.527,0.178,50.0422
16:12:08:778,5.872,6.3338,18.3266,57.749,0.1855,-0.7305,0.2329,50.5033
16:12:08:798,3.4983,5.6255,15.0173,55.786,0.6754,0.556,-0.3168,50.9585
16:12:08:821,-0.469,2.9193,9.2267,56.3776,0.706,1.3379,-1.15,51.4404
16:12:08:839,-6.0443,1.3519,9.2028,57.2722,0.0316,0.5707,-1.5483,51.9714
16:12:08:857,-5.336,0.8638,14.7757,56.3171,-1.0325,-1.0652,-1.0877,52.539
16:12:08:877,-0.615,-0.6413,18.7693,56.4533,-1.3343,-2.2271,-0.1262,53.1099
16:12:08:899,4.5607,2.5723,12.1795,55.4372,0.2894,-0.1404,1.7858,53.6341
16:12:08:917,2.7135,3.125,8.8128,57.6081,0.6791,0.5804,1.6575,54.083
16:12:08:941,0.9284,3.259,7.791,55.0287,0.4726,1.4002,1.6062,54.7677
16:12:08:958,0.9212,3.2471,8.3342,56.6613,0.1721,1.7374,1.9128,55.0019
16:12:08:978,1.6367,2.9862,8.3557,57.9472,0.0914,1.3599,2.2598,55.1522
16:12:09:002,2.869,2.2086,7.6833,53.2992,0.3627,0.8712,2.4174,55.1522
16:12:09:020,3.527,1.9454,6.6377,53.6859,0.8599,0.7344,2.2671,55.1522
16:12:09:042,3.07,2.0291,5.4269,54.8282,1.323,0.7356,1.8481,55.0593
16:12:09:060,2.4742,2.6704,6.9823,58.1305,1.6015,0.8199,1.3826,54.9128
16:12:09:078,2.3163,2.7206,5.7763,56.0941,2.0377,0.9042,1.2006,54.7167
16:12:09:099,1.5506,2.9743,5.4867,56.4325,2.2673,1.0899,1.0967,54.4758
16:12:09:119,0.8351,3.941,5.4915,56.1348,2.3113,1.1168,0.966,54.1952
16:12:09:140,1.4189,4.252,3.9865,56.662,2.3712,0.8346,0.9904,53.8733
16:12:09:165,1.9238,5.1565,2.9001,57.3679,2.1525,0.4522,0.889,53.5128
16:12:09:179,2.8259,5.8863,2.9145,54.8015,1.5563,-0.0707,0.6385,53.1258
16:12:09:198,3.1298,6.2883,4.8838,56.4587,0.7402,-0.6119,0.3148,52.7308
16:12:09:219,3.2758,6.9272,6.4271,54.9875,0.0841,-0.7121,0.0326,52.3441
16:12:09:240,3.3619,7.0325,7.0756,57.3016,-0.3202,-0.3187,-0.1885,51.978
16:12:09:264,2.9695,7.279,9.4253,55.9331,-0.7185,0.1895,-0.3828,51.6447
16:12:09:280,2.3857,6.9727,12.0263,56.3778,-1.0191,0.352,-0.4683,51.3492
16:12:09:302,3.204,6.5827,13.9191,56.5023,-0.9665,0.0209,-0.384,51.0862
16:12:09:321,3.8596,5.7691,12.9667,56.2569,-0.4681,-0.5264,-0.3559,50.8491
16:12:09:340,3.1848,5.3049,10.6026,54.8085,0.0328,-0.6938,-0.4622,50.6385
16:12:09:359,2.467,4.4746,7.1354,56.6847,-0.0258,0.0637,-0.1103,50.4494
16:12:09:378,3.2686,3.9194,8.9635,56.9593,-0.6917,0.286,0.2269,50.2693
16:12:09:400,3.9338,3.8548,11.8253,55.7498,-1.129,0.418,0.3515,49.9154
16:12:09:419,3.5533,4.1204,12.2728,56.7143,-0.8297,0.4057,0.211,49.7437
16:12:09:445,2.6417,4.5177,9.5163,56.3778,-0.0564,0.3728,0.0106,49.5782
16:12:09:459,1.6152,4.8526,6.3242,55.2566,0.4714,0.2677,-0.1238,49.4204
16:12:09:481,0.7537,4.6588,4.8335,53.6177,0.5166,0.2225,-0.1641,49.2719
16:12:09:500,0.5647,4.3502,4.7545,54.8118,0.3981,0.1846,-0.1543,49.1326
16:12:09:520,0.9787,4.2712,4.4818,56.4384,0.3663,0.0966,-0.1873,49.0038
16:12:09:695,0.5862,4.1946,4.6325,55.7366,0.3761,-0.0573,-0.3315,48.8916
16:12:09:696,-0.2034,4.611,3.9458,54.4773,0.4482,-0.2491,-0.4989,48.8013
16:12:09:697,-0.1771,4.5248,3.4098,57.6801,0.4286,-0.3664,-0.5587,48.8013
16:12:09:697,-0.5049,4.7545,3.3667,56.6641,0.2307,-0.3297,-0.5795,48.8013
16:12:09:698,-1.3041,4.7162,3.9888,54.3267,-0.0515,-0.0463,-0.5367,48.8013
16:12:09:699,-2.1966,5.3097,4.855,54.3316,-0.33,0.4241,-0.3168,48.8013
16:12:09:699,-2.3354,6.4822,6.3218,55.0057,-0.5817,0.8615,-0.0151,48.8013
16:12:09:700,-1.0385,6.9607,7.9035,55.5858,-0.6917,1.0618,0.1596,48.8013
16:12:09:701,-0.5695,7.0397,9.265,53.7202,-0.5573,0.8529,0.0521,48.8013
16:12:09:717,-0.8519,8.0925,8.5304,55.2727,-0.2482,0.2457,-0.1653,48.8013
16:12:09:738,-1.3304,8.6046,7.2335,54.8472,-0.0649,-0.1917,-0.362,48.8013
16:12:09:759,-1.4907,9.1095,7.4895,55.3013,-0.2701,-0.3908,-0.4866,48.8013
16:12:09:780,-1.3687,8.6859,9.4325,55.5817,-0.7808,-0.6364,-0.5758,48.8013
16:12:09:803,-1.8975,7.6068,13.2586,55.7092,-1.3489,-0.9662,-0.6345,48.9107
16:12:09:826,-0.4642,7.1306,14.8618,54.4034,-0.7857,-0.425,-0.1494,49.1772
16:12:09:843,-0.414,6.9464,11.0764,56.0763,0.1452,0.1504,-0.1702,49.3176
16:12:09:860,-2.0243,6.7502,9.7962,56.1728,0.48,0.1822,-0.4048,49.4712
16:12:09:878,-3.0221,6.0826,10.5236,53.3894,0.3334,-0.3309,-0.5795,49.6468
16:12:09:899,-3.1442,4.4028,11.6387,54.6018,0.0597,-1.0432,-0.505,49.8431
16:12:09:919,-2.278,3.4385,13.0624,53.0678,-0.1248,-1.312,-0.1103,50.046
16:12:09:939,0.0502,3.0939,13.7061,54.1423,-0.1394,-0.8917,0.4553,50.2328
16:12:09:961,1.8233,2.3426,11.945,53.1305,0.0475,-0.1746,0.878,50.3864
16:12:09:980,2.3497,3.7735,11.0979,54.4222,0.1916,0.6244,1.0466,50.4989
16:12:10:002,1.7085,3.1107,9.1095,53.9503,0.3407,0.8822,0.7497,50.4989
16:12:10:020,0.5288,3.1466,8.8654,54.0679,0.3382,0.8504,0.6105,50.4989
16:12:10:041,0.7537,2.8403,8.4036,53.9233,0.4482,0.8223,0.6569,50.4989
16:12:10:058,0.8471,2.5316,6.9583,52.2473,0.7121,0.7747,0.7094,50.4989
16:12:10:079,0.7418,2.3282,5.5083,52.3357,0.9711,0.6916,0.7436,50.4989
16:12:10:099,0.9188,2.3139,4.0726,51.5351,1.1605,0.5499,0.7791,50.4989
16:12:10:119,0.8183,2.6178,2.5531,50.9889,1.2362,0.4815,0.7436,50.4989
16:12:10:141,0.2847,3.1154,1.5912,53.367,1.1116,0.5133,0.6312,50.3898
16:12:10:158,-0.3685,3.7256,1.998,53.3644,0.7561,0.5597,0.5372,50.262
16:12:10:180,-0.8614,4.343,3.7424,52.8198,0.3688,0.622,0.5017,50.118
16:12:10:202,-0.6341,4.6971,5.4341,52.9989,0.166,0.5426,0.5274,49.9597
16:12:10:222,0.1699,5.0704,6.384,52.5227,0.1831,0.3056,0.5543,49.7856
16:12:10:239,1.2371,5.3743,6.8506,52.4434,0.2368,0.1443,0.5078,49.5965
16:12:10:260,1.8066,6.0419,7.3699,52.282,0.1513,0.1235,0.0998,49.1996
16:12:10:278,1.4142,6.207,7.4249,52.0669,-0.0612,0.093,-0.1006,49.0115
16:12:10:299,0.6796,6.7645,7.4202,51.5077,-0.2958,0.3398,-0.1788,48.839
16:12:10:319,0.1819,7.2526,7.1928,50.4627,-0.4998,0.6208,-0.169,48.6817
16:12:10:341,0.0574,7.4943,8.1739,51.3734,-0.8432,0.4901,-0.1348,48.5383
16:12:10:359,0.548,6.8195,11.3372,50.5974,-1.3343,-0.1342,-0.0883,48.4084
16:12:10:383,2.3426,5.458,15.0054,49.1949,-1.5591,-0.849,0.0607,48.2866
16:12:10:402,4.1085,4.3478,16.6229,51.2136,-1.1388,-1.2387,0.1877,48.1671
16:12:10:421,5.0345,3.6634,15.0628,50.5024,-0.1822,-1.0676,0.1963,48.0462
16:12:10:442,4.9268,3.5821,11.2702,51.4294,0.75,-0.4556,0.1315,47.9208
16:12:10:461,4.8287,3.9003,7.8365,50.3739,1.1263,0.0404,0.0338,47.7908
16:12:10:477,4.5416,4.2233,5.8576,50.6824,0.8196,0.1174,-0.1555,47.6641
16:12:10:497,3.7065,4.1826,5.7021,51.1517,0.0817,-0.0328,-0.4207,47.5554
16:12:10:518,3.0317,3.9266,7.5853,49.4407,-0.6477,-0.0597,-0.5673,47.5554
16:12:10:540,2.2253,3.9865,9.2841,51.2957,-0.9006,0.0771,-0.5795,47.5554
16:12:10:562,1.5769,4.2425,8.6046,48.1477,-0.5988,0.0832,-0.5282,47.5554
16:12:10:579,1.2754,4.3358,6.9368,49.0735,-0.1651,-0.1367,-0.4732,47.5554
16:12:10:599,0.8758,4.3765,5.671,49.1612,0.0914,-0.3468,-0.4524,47.5554
16:12:10:620,0.6508,4.4985,4.678,48.2372,0.2026,-0.4727,-0.4341,47.5554
16:12:10:640,0.7083,4.4124,3.996,47.4637,0.1831,-0.5887,-0.4463,47.5554
16:12:10:660,0.4307,4.3214,3.6156,47.4034,0.0805,-0.6229,-0.5282,47.5554
16:12:10:679,-0.0455,4.4913,3.7113,47.3438,-0.0942,-0.5936,-0.632,47.6502
16:12:10:701,-0.3493,4.733,4.4483,48.2565,-0.3056,-0.5753,-0.7053,47.7731
16:12:10:720,-0.2249,5.6806,4.9149,46.8995,-0.589,-0.5093,-0.7359,48.102
16:12:10:741,-0.1484,5.9509,5.5896,48.8494,-0.8065,-0.3407,-0.7603,48.3078
16:12:10:761,-0.4642,6.1543,7.7049,46.1837,-1.1131,-0.1758,-0.8336,48.5467
16:12:10:778,-1.0289,5.9749,10.5093,45.6612,-1.2659,-0.1,-0.891,48.8207
16:12:10:797,-1.8879,6.0515,13.2419,45.7436,-1.0692,-0.0341,-0.8421,49.1278
16:12:10:818,-2.2158,6.5372,13.5697,45.3168,-0.4779,0.0026,-0.6858,49.4583
16:12:10:841,-1.9334,7.011,12.2991,45.9085,0.1489,-0.0475,-0.5001,49.8011
16:12:10:858,-1.5888,7.4321,11.4114,44.3971,0.3297,-0.1697,-0.4414,50.1517
16:12:10:877,-1.8879,6.8172,12.1053,43.8355,0.0194,-0.2735,-0.5184,50.515
16:12:10:898,-2.9695,6.0945,14.1033,44.7182,-0.3471,-0.0744,-0.5196,50.8942
16:12:10:916,-3.8118,5.8624,15.2542,42.7384,-0.2799,0.3996,-0.2594,51.2803
16:12:10:937,-3.2279,6.1161,13.809,42.1422,0.3163,0.8175,0.2232,51.6522
16:12:10:956,-2.467,6.384,10.9735,43.1517,0.9809,0.826,0.575,51.9944
16:12:10:976,-2.3426,6.4415,8.8774,41.2237,1.2435,0.5707,0.6276,52.3046
16:12:10:999,-2.4144,5.8983,7.882,43.5095,1.0566,0.2604,0.4932,52.5889
16:12:11:018,-2.79,4.9149,8.8726,41.8251,0.5056,-0.0903,0.36,52.8557
16:12:11:039,-2.4503,3.6156,12.1771,41.817,-0.1602,-0.326,0.3942,53.1073
16:12:11:060,-1.4812,2.4359,15.0269,40.8941,-0.407,-0.2967,0.5787,53.3385
16:12:11:082,0.1723,2.0985,15.07,40.1003,-0.0209,-0.0108,0.8401,53.538
16:12:11:106,1.3831,2.5029,12.3829,41.3158,0.6253,0.2872,1.0124,53.6961
16:12:11:121,1.7276,2.8594,9.2291,40.5291,1.0297,0.4583,0.9965,53.8115
16:12:11:142,1.8185,2.9288,6.9655,40.8414,1.0762,0.6,0.9342,53.8115
16:12:11:160,1.5194,2.7565,4.5464,41.2234,0.7756,1.0985,0.9245,53.8115
16:12:11:177,1.1964,2.7302,3.7663,36.1226,0.6449,1.2219,0.9745,53.8115
16:12:11:196,1.2012,3.0844,3.3117,37.5493,0.5569,1.1815,1.0491,53.8115
16:12:11:222,1.2706,3.5318,2.6871,38.8417,0.4677,1.0704,1.1187,53.6792
16:12:11:243,1.462,4.0439,2.1488,38.7794,0.3297,1.0618,1.1346,53.5028
16:12:11:257,1.3376,4.6325,2.7852,39.725,0.0634,1.184,1.0246,53.2885
16:12:11:278,0.7155,4.812,4.343,39.2225,-0.2457,1.1718,0.7729,53.0485
16:12:11:301,0.2632,4.867,5.6542,39.2477,-0.3764,1.0459,0.5286,52.7947
16:12:11:325,-0.4355,5.0991,6.5874,39.1906,-0.2799,0.9042,0.3588,52.5351
16:12:11:341,-1.1725,5.4006,6.8172,40.1092,-0.0723,0.7454,0.2549,52.2747
16:12:11:358,-1.2203,5.8887,6.7478,37.6744,0.1269,0.5536,0.2549,52.0138
16:12:11:378,-0.3781,6.4199,6.2381,37.4927,0.232,0.2542,0.2439,51.7514
16:12:11:400,0.0431,6.4869,5.7882,38.271,0.1171,-0.1599,0.0741,51.4932
16:12:11:419,-0.3685,6.8842,6.2189,36.7039,-0.1944,-0.3908,-0.1507,51.2481
16:12:11:440,-0.4834,7.3172,6.6999,36.9385,-0.4962,-0.2772,-0.2679,51.0203
16:12:11:461,-0.134,7.7384,7.6307,37.862,-0.7979,-0.1171,-0.3168,50.8099
16:12:11:478,0.0335,7.4991,10.4327,37.8848,-1.2378,-0.3981,-0.4207,50.6212
16:12:11:498,0.8207,6.262,13.6558,37.3689,-1.6177,-1.1141,-0.5159,50.4582
16:12:11:519,2.6848,5.0465,14.5699,35.9656,-1.5151,-1.6712,-0.4475,50.3172
16:12:11:542,3.9123,4.5679,12.6437,36.4773,-1.0264,-1.6553,-0.384,50.1945
16:12:11:560,4.0678,4.386,10.0858,35.8708,-0.6403,-1.1813,-0.4512,50.0909
16:12:11:726,3.6251,3.8285,10.1623,36.0369,-0.6513,-0.7512,-0.6125,50.0909
16:12:11:727,3.07,2.4,11.7296,36.0237,-0.8749,-0.7072,-0.797,50.0909
16:12:11:729,2.522,1.4022,12.5432,37.7235,-0.633,-0.5447,-0.6687,50.0909
16:12:11:730,2.077,1.9621,11.0237,36.6127,-0.2188,-0.1514,-0.5086,50.0909
16:12:11:731,1.529,2.5651,9.2459,35.4666,0.1305,0.2249,-0.3938,50.0909
16:12:11:732,0.7633,3.0724,7.5541,36.8721,0.337,0.3862,-0.3608,50.0909
16:12:11:733,0.0622,3.405,6.1998,34.8666,0.4262,0.3703,-0.3584,50.0909
16:12:11:735,-0.1436,3.4385,5.4461,36.9581,0.4152,0.242,-0.3364,50.0909
16:12:11:736,-0.1842,3.4552,5.3121,36.3471,0.3492,0.0612,-0.3119,50.0909
16:12:11:756,-0.1699,3.4816,5.549,36.586,0.2967,-0.0976,-0.3095,50.185
16:12:11:776,-0.1316,3.6036,5.3312,36.8172,0.3285,-0.1477,-0.2924,50.284
16:12:11:798,-0.0814,3.929,4.8359,35.8963,0.3651,-0.1232,-0.2802,50.3873
16:12:11:816,0.0766,4.2066,4.4602,36.9166,0.2991,-0.0927,-0.3144,50.4954
16:12:11:840,-0.1675,4.4841,4.7426,35.5497,0.1098,-0.0695,-0.4146,50.6123
16:12:11:859,-0.3015,4.7091,5.3767,36.3856,-0.1089,-0.1318,-0.5245,50.7425
16:12:11:878,-0.1914,4.7234,6.1831,36.1193,-0.3141,-0.3554,-0.6076,50.8887
16:12:11:900,-0.6508,4.721,6.9248,36.3856,-0.5047,-0.5789,-0.6711,51.0541
16:12:11:922,-1.2036,4.8933,8.1739,35.4849,-0.6538,-0.6034,-0.6577,51.2383
16:12:11:939,-1.6606,5.1182,9.32,34.9193,-0.6892,-0.4604,-0.5514,51.4374
16:12:11:956,-1.541,5.6734,9.9206,35.8963,-0.5927,-0.3114,-0.3669,51.6435
16:12:11:976,-1.0768,6.2477,10.3801,35.4154,-0.5206,-0.3456,-0.2081,51.8503
16:12:11:997,-0.5623,6.2788,11.8205,35.6191,-0.6452,-0.6119,-0.1397,52.0553
16:12:12:022,-0.1603,5.6016,13.6917,36.6015,-0.8468,-0.9076,-0.1323,52.2592
16:12:12:035,-0.3661,4.8072,14.6632,35.7381,-0.8041,-0.838,-0.0822,52.461
16:12:12:056,-1.1701,4.7258,13.8664,36.3063,-0.3911,-0.1367,0.1071,52.6528
16:12:12:075,-4.0439,5.5753,9.8369,34.8039,0.2405,1.2756,0.3673,52.826
16:12:12:096,-4.9675,5.6399,10.7964,35.8635,-0.0478,1.206,0.4419,53.1171
16:12:12:118,-3.3117,4.532,12.5121,35.6273,-0.3581,0.3715,0.663,53.2241
16:12:12:139,-1.1318,3.4337,13.4429,35.8653,-0.4302,-0.5496,0.7827,53.2241
16:12:12:157,0.055,2.9432,13.0002,35.3176,-0.3227,-0.8856,0.751,53.2241
16:12:12:177,0.5695,2.9527,12.4523,37.3359,-0.2531,-0.5338,0.6886,53.2241
16:12:12:197,0.7035,3.0102,11.799,36.5426,-0.2298,0.1773,0.6532,53.2241
16:12:12:219,0.4092,3.1154,11.2582,35.8094,-0.1687,0.6819,0.6202,53.2241
16:12:12:240,0.1938,3.1011,10.6528,35.6071,-0.06,0.6843,0.6105,53.2241
16:12:12:261,0.3589,2.9791,10.0834,33.8889,0.1183,0.407,0.6825,53.2241
16:12:12:279,0.7466,2.802,9.3392,34.4755,0.381,0.1761,0.8255,53.1068
16:12:12:296,1.2347,2.6848,8.2313,35.8179,0.6987,0.082,0.9843,52.9516
16:12:12:318,1.7157,2.6345,6.7908,35.1566,1.0163,0.0869,1.1004,52.7535
16:12:12:339,1.9932,2.6752,5.1709,34.1983,1.2558,0.1052,1.115,52.5116
16:12:12:363,1.9454,2.7637,3.9577,35.1295,1.3303,0.0979,1.0185,52.2285
16:12:12:382,1.675,2.857,3.204,33.5116,1.213,0.038,0.8401,51.9119
16:12:12:396,1.127,2.7541,3.606,33.7646,0.9271,-0.0438,0.6251,51.5721
16:12:12:422,0.8159,2.5723,4.745,34.3064,0.6266,-0.0548,0.4639,51.2179
16:12:12:439,0.7083,2.4479,5.659,34.245,0.5032,-0.0023,0.3783,50.8534
16:12:12:458,0.548,2.7302,5.5872,32.9146,0.5484,0.0808,0.2867,50.4824
16:12:12:481,0.5384,3.1202,4.9843,32.9608,0.5777,0.1321,0.1658,50.109
16:12:12:496,0.9141,3.5533,4.654,30.652,0.3908,0.0649,-0.0102,49.7395
16:12:12:518,1.395,3.673,4.9627,31.4806,-0.0796,-0.0695,-0.2398,49.3844
16:12:12:542,0.3135,3.1872,8.4514,32.3683,-1.2488,0.2714,-0.6919,48.7727
16:12:12:556,-0.5719,3.5892,9.2961,31.2171,-1.4613,0.6061,-0.7456,48.5255
16:12:12:578,-1.4477,4.0678,10.0666,31.0448,-1.6079,0.5792,-0.7163,48.3144
16:12:12:595,-1.151,4.1204,11.744,30.4153,-1.8792,0.2787,-0.5819,48.1328
16:12:12:617,0.4929,3.7017,13.6822,30.3126,-2.0588,0.0673,-0.2887,47.9674
16:12:12:638,1.8927,3.4481,15.7208,29.3057,-1.9158,0.1443,-0.0163,47.8071
16:12:12:658,2.9073,2.8881,16.599,31.0699,-1.4198,0.4485,0.1218,47.6444
16:12:12:678,3.2495,2.5579,15.6538,29.6566,-0.7258,0.8077,0.1535,47.4756
16:12:12:698,3.3643,2.3641,14.132,29.3014,-0.2555,0.7197,0.0595,47.3037
16:12:12:719,3.661,1.7611,13.7204,29.2297,-0.2677,0.2616,-0.1287,47.1339
16:12:12:736,3.5797,1.3208,14.4335,28.3452,-0.4693,0.0319,-0.2961,46.9733
16:12:12:763,2.6776,1.2036,14.1942,30.1765,-0.4192,0.1846,-0.4084,46.8257
16:12:12:776,1.5242,1.4788,12.8877,29.5298,-0.0857,0.4302,-0.4133,46.6916
16:12:12:796,0.7322,1.785,10.9376,29.5129,0.3615,0.4778,-0.3144,46.5673
16:12:12:819,0.5982,1.9382,8.7123,27.9837,0.8147,0.3092,-0.1507,46.4465
16:12:12:838,0.6437,2.254,6.5061,28.3891,1.169,0.0588,-0.0199,46.3244
16:12:12:858,0.7274,2.4574,4.8168,29.4568,1.3462,-0.2173,0.0277,46.1998
16:12:12:881,0.7537,2.6345,3.5605,29.3057,1.3596,-0.3945,-0.0004,46.0732
16:12:12:895,0.8375,2.7852,2.601,28.2032,1.2509,-0.4336,-0.0627,45.9455
16:12:12:918,0.8829,3.0126,2.1799,31.0437,1.0126,-0.3969,-0.1714,45.8211
16:12:12:936,0.7083,2.9527,2.0722,29.7659,0.6913,-0.2955,-0.3364,45.7052
16:12:12:955,0.1172,3.015,2.1392,29.0257,0.3639,-0.1318,-0.5343,45.6058
16:12:12:974,-0.8495,3.2207,2.802,28.1684,0.0426,-0.0206,-0.7359,45.6058
16:12:12:995,-2.3857,2.9982,5.068,29.2452,-0.6428,-0.2308,-0.8678,45.6058
16:12:13:016,-2.6871,3.5127,7.815,28.5804,-0.9592,-0.2051,-0.7615,45.6058
16:12:13:035,-2.4694,3.8285,9.5426,27.3611,-1.107,-0.1917,-0.6125,45.6058
16:12:13:057,-2.5747,4.3047,10.9998,29.2881,-1.1241,-0.2198,-0.5001,45.6058
16:12:13:076,-2.2875,4.7617,12.4331,28.6378,-1.1877,-0.2161,-0.4292,45.6058
16:12:13:097,-2.6417,4.3621,13.8951,28.1248,-1.338,-0.3603,-0.4365,45.6058
16:12:13:119,-3.0413,3.6347,16.0367,29.3599,-1.5432,-0.4543,-0.3486,45.6058
16:12:13:139,-2.7111,3.3212,17.9892,28.2854,-1.4931,-0.2662,0.0106,45.6058
16:12:13:159,-2.7278,3.8285,17.1494,27.7816,-0.914,0.2041,0.4345,45.6058
16:12:13:178,-3.2064,4.3669,14.668,28.4991,-0.1822,0.5768,0.6764,45.6058
16:12:13:197,-3.8788,4.3214,13.1222,28.3992,0.1831,0.666,0.7546,45.6058
16:12:13:216,-4.2592,3.6299,12.9236,28.1716,0.1868,0.5462,0.7803,45.6058
16:12:13:236,-3.9242,2.2684,14.1512,28.3719,0.0304,0.2029,0.7925,45.6058
16:12:13:259,-3.082,0.9763,15.2758,28.9655,-0.0429,-0.3578,0.8194,45.6058
16:12:13:278,-2.0028,0.1484,15.0126,28.9922,0.1159,-0.7781,0.8792,45.4935
16:12:13:297,-1.1533,0.3541,13.9645,28.6826,0.4176,-0.827,0.9941,45.3492
16:12:13:317,0.603,0.6939,12.6485,28.4421,0.7487,-0.651,1.2225,45.1644
16:12:13:339,2.4622,0.9906,10.5164,29.8077,1.1238,-0.4116,1.3924,44.931
16:12:13:358,3.4337,1.2825,7.9657,29.3599,1.4488,-0.1929,1.363,44.6493
16:12:13:378,3.2064,1.5888,5.7093,29.3023,1.5978,0.0234,1.1651,44.3258
16:12:13:399,2.4646,1.6917,4.1109,28.3378,1.5636,0.1871,0.9501,43.9686
16:12:13:420,1.8951,1.5458,3.1131,30.0181,1.4195,0.2518,0.8243,43.5845
16:12:13:440,1.584,1.6032,2.6369,28.1131,1.2228,0.1785,0.8059,43.1743
16:12:13:458,2.0818,1.4668,2.9503,28.8658,0.7243,-0.2112,0.8194,42.282
16:12:13:476,2.0339,1.4285,3.3715,27.7424,0.502,-0.3688,0.718,41.8061
16:12:13:498,1.8616,1.5482,3.3188,29.581,0.3273,-0.4922,0.5628,41.3175
16:12:13:521,1.4836,1.6606,3.3882,29.1073,0.0939,-0.5802,0.3918,40.8253
16:12:13:540,0.8925,1.9669,3.9649,30.9613,-0.2103,-0.5936,0.2391,40.3361
16:12:13:558,0.5575,2.2899,4.6516,28.7986,-0.4717,-0.5875,0.1633,39.8548
16:12:13:577,0.682,2.6967,5.1613,28.4679,-0.6855,-0.6351,0.1303,39.3842
16:12:13:596,1.1079,3.1394,5.793,29.8999,-0.9335,-0.7146,0.0753,38.9274
16:12:13:618,1.797,3.5892,7.1761,29.8473,-1.2854,-0.7952,-0.037,38.4897
16:12:13:779,2.4311,3.472,9.7316,28.4415,-1.7582,-0.8624,-0.2398,38.0825
16:12:13:781,1.7252,3.2375,13.4979,31.8789,-2.1956,-0.7866,-0.5441,37.7207
16:12:13:782,-0.0455,2.8403,17.9222,32.3293,-2.3569,-0.6632,-0.7835,37.4147
16:12:13:783,-1.2467,2.5699,21.4038,33.2394,-2.0453,-0.6156,-0.6943,37.1604
16:12:13:784,-0.0622,2.6082,21.8919,29.3988,-1.1706,-0.4824,-0.1861,36.9311
16:12:13:785,2.3904,2.8953,19.0349,29.09,-0.0918,-0.3114,0.3588,36.6969
16:12:13:786,4.2688,2.9934,15.7998,30.5487,0.6595,-0.0903,0.586,36.4412
16:12:13:789,4.7785,2.802,13.6965,28.2835,0.91,0.2127,0.5188,36.1637
16:12:13:800,5.7284,1.8377,13.1462,29.4697,0.8086,0.3691,0.3893,35.8693
16:12:13:817,6.5898,0.9452,13.3543,26.8269,0.596,0.2872,0.2513,35.5646
16:12:13:840,6.0993,0.4881,12.615,26.0625,0.5447,0.2726,0.046,35.2567
16:12:13:857,4.8742,0.7513,10.7366,26.1163,0.6815,0.523,-0.0981,34.9504
16:12:13:877,3.9888,1.3161,9.009,29.9302,0.8391,0.76,-0.0957,34.6443
16:12:13:902,3.4098,2.2756,5.8002,29.6784,1.0872,0.6122,0.002,34.0256
16:12:13:922,3.2112,2.5316,4.398,29.0083,1.1348,0.3984,-0.0688,33.7134
16:12:13:941,2.7135,2.6201,3.3595,30.919,1.0603,0.2139,-0.2288,33.4048
16:12:13:956,1.9693,2.7326,2.7206,30.6232,0.9015,0.1284,-0.4084,33.1075
16:12:13:976,1.2658,2.9049,2.3426,29.1465,0.7219,0.1113,-0.5575,32.8285
16:12:13:996,0.6102,3.1226,2.199,30.4356,0.5166,0.038,-0.6674,32.5724
16:12:14:019,0.5168,3.3212,2.5268,29.6956,0.2759,-0.1293,-0.7481,32.344
16:12:14:039,0.3589,3.5749,2.8522,29.8072,0.0304,-0.3456,-0.858,32.1478
16:12:14:056,0.4379,3.7089,3.661,30.3274,-0.2616,-0.5203,-1.0022,31.99
16:12:14:076,-0.0335,3.5246,5.5466,29.7226,-0.5878,-0.5912,-1.15,31.8779
16:12:14:097,-0.7418,3.3882,7.6499,30.9455,-0.8297,-0.6535,-1.2075,31.8779
16:12:14:119,-1.1318,3.3811,9.8584,31.1795,-0.9384,-0.7097,-1.0792,31.8779
16:12:14:138,-1.0217,3.716,11.8205,32.3862,-0.8993,-0.6572,-0.7896,31.8779
16:12:14:156,-0.7155,4.2186,12.9428,30.8737,-0.6978,-0.4385,-0.4402,31.8779
16:12:14:176,-0.0024,4.9029,13.2897,30.7162,-0.3887,-0.0927,-0.1116,31.8779
16:12:14:195,0.591,5.5585,13.06,32.6636,-0.1174,0.0918,0.0692,31.8779
16:12:14:216,0.7394,5.7547,12.9978,30.4205,-0.0002,0.0234,0.0778,31.8779
16:12:14:240,0.1555,5.5705,13.6391,31.678,-0.0307,-0.1171,0.0326,31.8779
16:12:14:257,0.0598,5.4054,14.266,31.4674,0.0133,-0.0573,0.156,31.8779
16:12:14:275,0.2249,5.683,13.1366,31.1795,0.3187,0.286,0.3991,31.8779
16:12:14:296,-0.1292,6.0179,11.5334,30.9563,0.6473,0.6134,0.4932,31.8779
16:12:14:318,-0.7896,5.7165,10.8706,30.1359,0.6974,0.5585,0.4125,31.8779
16:12:14:341,-1.5194,4.7091,10.8562,30.3274,0.5325,0.209,0.2879,31.8779
16:12:14:359,-1.6128,2.9025,12.4331,31.657,0.2649,-0.1013,0.4419,31.8779
16:12:14:378,-0.8471,2.7374,12.2082,30.8737,0.3834,-0.1452,0.6728,31.7692
16:12:14:395,0.4762,2.8738,10.7605,31.4206,0.5985,-0.2601,0.8841,31.628
16:12:14:421,1.6774,2.9145,9.521,30.6949,0.6571,-0.3151,0.9367,31.4517
16:12:14:437,2.3833,2.9503,8.2863,31.4347,0.563,-0.1758,0.8304,31.2434
16:12:14:462,2.2947,2.8379,7.5159,30.8112,0.3663,0.1345,0.6422,31.0115
16:12:14:477,1.3807,2.6848,7.5829,31.5769,0.1623,0.5023,0.4748,30.7653
16:12:14:499,0.4881,2.522,7.8772,31.8506,0.1098,0.677,0.4431,30.5076
16:12:14:520,0.2465,2.4814,7.8054,31.5952,0.2772,0.5988,0.5628,30.2337
16:12:14:538,0.7585,2.2493,7.0421,29.6956,0.585,0.3508,0.7314,29.9354
16:12:14:556,1.4213,2.1703,5.7547,31.4207,0.8636,0.126,0.8377,29.6069
16:12:14:575,1.7396,2.1631,5.1494,30.5819,0.9638,0.0954,0.8487,29.2461
16:12:14:596,1.8066,2.2253,4.6971,32.7073,0.9577,0.1956,0.7925,28.8561
16:12:14:619,1.6702,2.3665,4.5296,29.8999,0.8966,0.2591,0.6935,28.4409
16:12:14:640,1.4477,2.4957,4.386,31.6136,0.8062,0.2518,0.5872,28.0062
16:12:14:657,1.4477,2.735,4.6516,30.6242,0.6669,0.1687,0.5005,27.5568
16:12:14:676,2.1679,3.07,5.269,30.8928,0.4958,0.027,0.437,27.0954
16:12:14:696,2.735,3.2495,5.7476,30.3751,0.3285,-0.0719,0.3124,26.6281
16:12:14:716,2.9791,3.5677,6.2237,30.4153,0.1452,-0.0585,0.1328,26.1633
16:12:14:742,3.5605,3.9817,6.4463,31.2564,-0.0735,-0.0561,-0.0444,25.2729
16:12:14:759,3.204,4.5272,7.054,31.2564,-0.9018,-0.1049,-0.5636,24.8725
16:12:14:777,2.3378,4.6134,9.2722,29.5344,-1.4711,0.1418,-0.7554,24.5195
16:12:14:796,1.1557,4.7641,12.6221,29.8555,-1.8779,0.2909,-0.8409,24.219
16:12:14:819,0.4475,4.465,15.4768,30.5656,-1.8718,0.1846,-0.7542,23.9708
16:12:14:840,0.3661,4.2616,16.8024,31.4071,-1.4076,-0.0243,-0.4805,23.7557
16:12:14:858,0.7801,4.2066,16.0798,30.5406,-0.6611,-0.221,-0.1189,23.5539
16:12:14:876,1.9693,4.252,14.3043,30.26,0.0414,-0.3493,0.2281,23.3471
16:12:14:897,3.527,3.9912,12.6437,30.8722,0.4482,-0.4776,0.4015,23.1239
16:12:14:915,5.281,3.3954,11.4975,30.5014,0.491,-0.6669,0.3478,22.8841
16:12:14:939,6.0849,2.9958,10.7868,31.9031,0.2588,-0.5985,0.0986,22.6371
16:12:14:958,5.1063,2.6249,10.2173,31.9031,-0.0551,-0.089,-0.2716,22.4
16:12:14:974,2.8427,2.6488,10.215,33.3486,-0.2775,0.5682,-0.5502,22.1863
16:12:14:999,1.3017,2.7613,9.7867,30.8722,-0.2066,0.9115,-0.5685,21.9966
16:12:15:014,0.7849,2.9791,8.2529,31.4074,0.1745,0.8223,-0.3901,21.8212
16:12:15:034,1.2012,3.2423,6.0491,32.4914,0.6266,0.4436,-0.1617,21.6478
16:12:15:054,1.73,3.5031,4.0511,30.1101,0.9027,0.0417,-0.0199,21.4691
16:12:15:073,2.1751,3.7854,2.8427,31.1888,0.9064,-0.1917,-0.0273,21.2844
16:12:15:094,2.4694,3.9458,2.5579,32.4242,0.7096,-0.2479,-0.1482,21.0989
16:12:15:116,2.4144,4.1922,2.9839,31.1358,0.4433,-0.2332,-0.3522,20.9216
16:12:15:136,1.8473,4.2879,3.7017,32.1083,0.1978,-0.2601,-0.6125,20.7641
16:12:15:157,1.3304,4.3669,4.6899,30.5757,0.0157,-0.298,-0.8104,20.6351
16:12:15:176,1.0337,4.6588,5.4126,31.8786,-0.0918,-0.2747,-0.9142,20.5389
16:12:15:197,0.6652,4.9005,5.8122,33.2968,-0.1749,-0.265,-0.9937,20.5389
16:12:15:218,0.6532,5.269,6.5276,33.4728,-0.3093,-0.2711,-1.0193,20.5389
16:12:15:239,0.7226,5.4485,7.8054,31.0336,-0.4864,-0.2589,-1.0107,20.5389
16:12:15:256,-0.8136,6.1974,10.3203,32.2221,-0.5499,-0.2308,-0.9399,20.5389
16:12:15:275,-1.0576,6.81,10.9017,32.2221,-0.4106,-0.3273,-0.7578,20.6526
16:12:15:295,-0.3757,7.1378,11.3994,32.643,-0.297,-0.4751,-0.5367,20.7812
16:12:15:316,0.3805,7.1689,12.4738,33.8378,-0.2921,-0.59,-0.3987,20.9186
16:12:15:337,0.6102,6.8459,13.6487,32.5746,-0.3276,-0.568,-0.3706,21.0636
16:12:15:357,0.0909,6.5635,14.254,33.2589,-0.2298,-0.2527,-0.3535,21.2159
16:12:15:379,-0.7083,6.6138,13.4285,34.2055,0.1049,0.1736,-0.263,21.3706
16:12:15:396,-1.6032,6.6975,11.8301,34.2253,0.4775,0.2738,-0.1946,21.5238
16:12:15:416,-2.3282,6.2094,10.7653,35.7129,0.607,0.0551,-0.1849,21.6744
16:12:15:435,-2.5795,5.0249,11.1075,35.6841,0.4702,-0.1147,-0.1397,21.8232
16:12:15:454,-2.7709,3.9601,12.0718,35.2791,0.2808,-0.0646,-0.0163,21.9678
16:12:15:475,-2.9456,3.1633,12.7514,35.081,0.2075,0.148,0.1877,22.1018
16:12:15:498,-2.6321,3.0293,12.347,34.0939,0.2967,0.4204,0.4663,22.2146
16:12:15:519,-2.077,3.0867,11.5071,34.0146,0.403,0.5743,0.7119,22.2146
16:12:15:540,-0.9882,3.0891,10.952,34.6645,0.4262,0.6049,0.9037,22.2146
16:12:15:556,0.2153,3.149,10.1743,34.6828,0.436,0.5927,1.0087,22.2146
16:12:15:579,0.9739,3.1131,9.5282,33.3486,0.4213,0.633,0.9929,22.2146
16:12:15:599,1.0361,3.0604,9.0257,33.9857,0.4213,0.8162,0.9305,22.2146
16:12:15:620,1.0792,2.9312,8.1835,34.0181,0.5142,1.0178,0.9061,22.099
16:12:15:635,1.1055,2.6919,7.054,33.9117,0.6754,1.1033,0.9305,21.9453
16:12:15:654,1.3663,2.5125,5.793,32.6534,0.8563,1.0325,0.9745,21.7517
16:12:15:809,1.7468,2.3139,4.5894,32.6534,0.987,0.8504,0.9965,21.5169
16:12:15:810,1.7779,2.2516,3.6467,32.6534,1.0053,0.7087,0.9562,21.2435
16:12:15:811,0.7825,2.7159,3.4481,34.5525,0.8489,0.7698,0.9171,20.9357
16:12:15:811,0.7968,3.0844,3.4361,34.5525,0.7561,0.9531,0.9916,20.2221
16:12:15:812,1.3735,3.6634,4.4267,31.0748,0.5972,1.1571,1.0515,19.8097
16:12:15:813,2.2134,4.7115,5.6231,32.8211,0.4897,1.0203,1.0185,19.3603
16:12:15:813,2.6512,5.391,5.2642,32.3738,0.5081,0.3837,0.7937,18.8834
16:12:15:822,2.8618,5.7978,4.5177,30.4645,0.425,-0.2185,0.4761,18.3925
16:12:15:837,3.1537,6.2261,4.7258,31.8857,0.0487,-0.4336,0.1926,17.9005
16:12:15:854,3.618,6.1854,5.5322,33.1184,-0.5255,-0.3371,-0.0578,17.4197
16:12:15:874,2.8451,6.3266,7.401,32.2816,-1.0606,0.0087,-0.3522,16.9647
16:12:15:896,1.3185,6.262,9.3344,33.3201,-1.3905,0.2115,-0.643,16.55
16:12:15:914,-0.2847,6.4582,11.6507,32.9768,-1.5298,-0.0414,-0.7566,16.1806
16:12:15:935,-0.3517,6.3266,14.5077,34.2476,-1.5053,-0.5851,-0.5978,15.848
16:12:15:955,1.6678,5.3456,16.453,32.1099,-1.1693,-1.0493,-0.2056,15.5339
16:12:15:976,3.9386,4.7928,15.2542,33.0436,-0.4339,-1.1202,0.1034,15.221
16:12:15:996,4.477,4.8909,11.153,32.3998,0.3517,-0.7708,0.0876,14.9048
16:12:16:016,3.5007,4.8311,7.8724,32.3764,0.6278,-0.2295,-0.1775,14.5949
16:12:16:035,2.0435,4.5296,7.054,31.4616,0.3053,0.0404,-0.4842,14.3062
16:12:16:058,0.9595,3.5749,8.7769,32.5975,-0.3325,-0.1917,-0.6907,14.0515
16:12:16:076,1.5242,2.6776,11.2319,31.0956,-0.826,-0.4873,-0.6222,13.8293
16:12:16:098,2.3952,2.6943,12.2704,32.0219,-0.8334,-0.4385,-0.4304,13.6311
16:12:16:121,2.5627,3.3595,10.7246,32.6103,-0.4583,-0.2124,-0.329,13.4495
16:12:16:138,2.3186,4.008,8.2696,32.6342,-0.0955,-0.1171,-0.3376,13.2818
