Time,Acc_X,Acc_Y,Acc_Z,Meg,Gyr_X,Gyr_Y,Gyr_Z,Ore
16:56:15:114,-1.7683,6.8363,6.7525,39.7705,-0.0857,-0.3859,0.2415,22.4627
16:56:15:114,-1.0672,6.1448,7.1785,39.7182,-0.0857,-0.3859,0.2415,22.4627
16:56:15:115,-0.6461,6.1998,7.1761,36.6375,0.0438,0.1125,-0.0981,22.342
16:56:15:115,-0.7059,6.4487,7.2215,38.0056,0.0267,0.1162,-0.103,22.1922
16:56:15:115,-1.0241,6.463,7.2574,37.045,-0.0307,0.1785,-0.1103,22.0377
16:56:15:116,-0.7729,6.0132,7.48,36.3537,-0.1712,0.1455,-0.0957,21.8718
16:56:15:116,-0.6269,5.7452,7.8293,34.6693,-0.2323,0.0514,-0.1372,21.693
16:56:15:130,-0.3685,5.5729,7.8126,34.9792,-0.0783,-0.0133,-0.1946,21.5027
16:56:15:150,0.0383,5.9701,5.9438,36.5147,0.2894,-0.0915,-0.2472,21.3014
16:56:15:169,0.2895,6.5204,3.7376,37.1663,0.5704,-0.0487,-0.2557,21.0901
16:56:15:190,0.5216,7.0636,2.6106,35.4991,0.4714,0.1174,-0.1824,20.863
16:56:15:209,0.4929,7.3053,2.7972,35.516,-0.0258,0.3813,-0.0542,20.6144
16:56:15:226,0.0263,6.8076,6.274,35.3593,-0.8419,0.7625,0.0497,20.3442
16:56:15:246,-0.6915,5.5226,11.4521,35.6097,-1.5872,0.8639,0.0582,20.0562
16:56:15:265,-1.048,5.0034,13.9549,35.7753,-1.636,0.4839,-0.0077,19.7593
16:56:15:284,-0.6772,5.5442,11.1123,37.0824,-0.9445,-0.1636,-0.0749,19.4605
16:56:15:305,-0.1962,6.0562,6.4989,33.6813,-0.1223,-0.414,-0.0932,19.1623
16:56:15:324,0.3541,6.3577,3.6682,35.1192,0.2576,-0.1428,-0.0835,18.8697
16:56:15:343,-0.1962,7.3484,4.2281,34.4345,0.0353,0.2432,-0.1727,18.5771
16:56:15:364,-1.2347,7.1258,5.6207,36.4636,-0.2836,0.4448,-0.224,18.3051
16:56:15:383,-2.2708,7.3268,6.9751,36.8283,-0.3654,0.5194,-0.1824,18.0595
16:56:15:404,-2.7565,7.3819,7.1282,36.0339,-0.2457,0.6379,-0.0065,17.8368
16:56:15:424,-2.6321,6.9703,7.59,34.9684,-0.1956,0.749,0.2623,17.6203
16:56:15:446,-1.9047,6.0945,8.7721,34.6338,-0.3544,0.8065,0.4455,17.3908
16:56:15:465,-1.3974,5.1948,8.7888,36.7759,-0.5793,0.6122,0.4003,17.1437
16:56:15:485,-1.3878,5.0441,8.1499,35.9445,-0.8358,0.3813,0.2342,16.8852
16:56:15:504,-1.0959,4.5631,7.724,36.1495,-1.2585,0.3239,0.0937,16.6162
16:56:15:525,-2.5747,4.5559,11.7679,37.1893,-1.8193,0.2066,-0.1445,16.3497
16:56:15:545,-4.3525,4.0152,13.6893,36.6846,-1.7888,-0.1648,-0.3131,16.1023
16:56:15:566,-4.0965,3.9003,13.3041,36.5377,-1.173,-0.2112,-0.1433,15.8685
16:56:15:586,-3.9625,4.1085,11.6913,36.596,-0.4106,-0.0438,0.0717,15.6453
16:56:15:604,-4.5416,4.4913,10.0738,35.5142,0.0353,0.2335,0.1474,15.4373
16:56:15:626,-4.654,4.3597,10.0116,35.7862,-0.0136,0.3385,0.2488,15.239
16:56:15:649,-4.5727,3.7878,11.1458,34.8418,-0.2726,0.1675,0.3624,15.0422
16:56:15:666,-4.5631,3.0844,11.4114,36.35,-0.3264,-0.1562,0.4052,14.8445
16:56:15:685,-4.4387,2.5484,10.0929,34.9879,-0.1651,-0.4788,0.3942,14.6479
16:56:15:705,-4.6852,2.2851,8.083,37.5986,0.0438,-0.6132,0.3344,14.4607
16:56:15:730,-5.3216,2.4239,6.7095,35.2113,0.1147,-0.5105,0.2879,14.2887
16:56:15:743,-5.1829,2.2684,6.0682,36.4551,0.034,-0.3065,0.3857,14.1264
16:56:15:763,-4.6062,2.1176,6.1759,36.6846,-0.1174,-0.1196,0.5396,13.9633
16:56:15:785,-2.4837,1.5434,6.2524,37.1171,-0.2335,-0.006,0.7949,13.6019
16:56:15:812,-1.5338,1.5266,5.3121,37.0259,-0.1675,0.0954,0.7656,13.3923
16:56:15:828,-1.5816,1.9382,5.0441,36.4624,-0.2616,0.2103,0.5689,13.1687
16:56:15:845,-2.1392,2.4479,5.2666,35.9352,-0.3997,0.3007,0.4089,12.9369
16:56:15:865,-2.0124,2.6058,5.2116,37.2,-0.528,0.3728,0.3844,12.6955
16:56:15:885,-1.8975,2.8618,4.9795,38.2944,-0.5829,0.3776,0.4309,12.4429
16:56:15:905,-1.4333,2.9264,4.532,37.0807,-0.6684,0.3996,0.5054,12.175
16:56:15:925,-1.1725,2.9862,4.4985,36.5393,-0.8248,0.4632,0.5628,11.8875
16:56:15:945,-1.2084,2.9839,5.8241,38.517,-1.1278,0.5658,0.5995,11.5764
16:56:15:964,-0.9404,2.7278,7.334,38.0885,-1.421,0.5817,0.6581,11.2354
16:56:15:985,-0.7872,2.3785,8.741,36.3449,-1.6006,0.6098,0.6764,10.8616
16:56:16:005,-0.3278,1.9693,10.5428,36.223,-1.6922,0.7234,0.597,10.4562
16:56:16:026,-0.4594,2.0818,12.1316,38.1295,-1.6422,0.8297,0.3478,10.0276
16:56:16:045,-2.3282,2.5866,15.0126,38.0293,-1.41,0.666,-0.0175,9.5944
16:56:16:066,-3.2112,3.3858,15.3619,37.8815,-0.8981,0.0869,-0.2435,9.1706
16:56:16:085,-3.9697,4.3669,14.0028,37.3495,-0.2506,-0.4165,-0.2667,8.7663
16:56:16:105,-3.7496,4.6708,12.4714,37.5876,0.2124,-0.5631,-0.0456,8.3782
16:56:16:123,-3.4816,4.3956,12.3517,37.46,0.3749,-0.3688,0.2672,7.9977
16:56:16:146,-3.338,4.2832,13.0289,37.46,0.3993,-0.1049,0.5078,7.6152
16:56:16:171,-2.9719,4.1252,13.1079,37.8006,0.436,-0.0732,0.6789,7.2246
16:56:16:184,-1.6391,4.0008,12.2393,37.8006,0.4763,-0.3114,0.8059,6.8183
16:56:16:206,-0.0742,4.0487,11.0237,37.0726,0.4323,-0.6327,0.8291,6.3927
16:56:16:229,0.8973,4.0128,10.5452,37.0726,0.2601,-0.8208,0.718,5.9497
16:56:16:245,1.6845,2.7517,11.8804,37.0726,-0.0161,-0.5215,0.4321,5.0273
16:56:16:267,1.7827,1.3615,13.1773,37.0726,-0.0332,-0.2747,0.2647,4.5562
16:56:16:287,1.2658,0.6413,14.8331,38.0027,0.122,-0.1196,-0.0273,4.0913
16:56:16:305,0.6604,0.6341,14.2206,38.0027,0.5105,-0.1648,-0.329,3.6462
16:56:16:325,-0.1149,0.8758,12.2776,38.0027,0.8978,-0.243,-0.5428,3.2315
16:56:16:348,-1.072,1.06,11.5932,38.0027,0.9467,-0.1868,-0.6271,2.8518
16:56:16:363,-2.1224,1.084,12.5264,38.0027,0.7133,-0.1245,-0.6381,2.5054
16:56:16:382,-2.2469,0.8423,12.4523,38.0027,0.5496,-0.3102,-0.5697,2.1908
16:56:16:403,-1.7539,0.4259,11.665,38.0027,0.6034,-0.6181,-0.4903,1.9035
16:56:16:421,-1.2586,0.3039,9.8297,38.0027,0.8355,-0.9223,-0.5196,1.6438
16:56:16:443,-1.3376,0.682,7.6714,38.0027,1.1348,-1.1116,-0.6626,1.4172
16:56:16:462,-1.7922,1.2179,5.8074,38.0027,1.3498,-1.1776,-0.8128,1.2297
16:56:16:483,-2.0243,1.7731,4.0702,38.0027,1.4415,-1.1764,-0.8886,1.0834
16:56:16:504,-2.0961,2.3569,2.8163,38.0027,1.3816,-1.0823,-0.8666,0.976
16:56:16:524,-1.9908,2.9527,2.4359,38.0027,1.1898,-0.8551,-0.7542,0.976
16:56:16:544,-1.7994,3.2806,3.07,38.0027,0.9064,-0.5606,-0.5917,0.976
16:56:16:563,-1.5936,3.4337,4.185,38.0027,0.6034,-0.3712,-0.4426,0.976
16:56:16:583,-1.2825,3.752,4.7498,38.0027,0.3932,-0.3212,-0.3449,0.976
16:56:16:603,-0.8327,4.0558,4.9005,38.0027,0.282,-0.2845,-0.2728,0.976
16:56:16:625,-0.5958,4.4315,5.4532,38.0027,0.1794,-0.1587,-0.2435,0.976
16:56:16:648,-0.469,4.7761,6.0227,38.0027,0.1073,-0.0108,-0.2545,0.976
16:56:16:665,-0.591,5.2379,6.5563,38.0027,0.0805,0.1199,-0.2789,0.976
16:56:16:686,-1.2538,6.0562,7.3053,38.7975,0.1611,0.3263,-0.3034,0.976
16:56:16:706,-1.6104,6.1615,7.7049,38.7975,0.1403,0.4387,-0.2667,0.976
16:56:16:723,-1.9836,6.2668,8.1452,38.7975,0.0145,0.4363,-0.2069,0.976
16:56:16:743,-2.2732,6.2548,8.2337,38.7975,-0.1871,0.3471,-0.1531,0.976
16:56:16:773,-2.3569,5.8241,8.662,38.7975,-0.4265,0.3605,-0.0517,0.976
16:56:16:785,-2.6249,5.2283,10.3944,40.0716,-0.7295,0.4986,0.046,0.976
16:56:16:804,-3.7089,4.5129,12.4379,39.0646,-0.9897,0.5829,0.0839,0.976
16:56:16:827,-5.1948,3.8429,13.6367,39.4147,-1.0899,0.6098,0.1389,0.976
16:56:16:848,-5.5609,2.9432,15.2184,38.3607,-1.1205,0.5634,0.3233,0.976
16:56:16:864,-4.6899,1.3878,16.4148,39.0156,-1.0484,0.319,0.5787,0.976
16:56:16:884,-3.9218,0.6174,15.5892,40.2741,-0.6599,0.0002,0.6544,0.976
16:56:16:903,-4.2879,0.8925,13.0409,40.5876,-0.0112,-0.0243,0.5555,0.976
16:56:16:924,-5.0967,1.2802,10.6194,40.3431,0.5386,0.2677,0.5066,0.976
16:56:16:944,-5.2283,1.8114,8.6859,38.2944,0.7084,0.3984,0.5665,0.976
16:56:16:964,-4.4435,2.2158,6.8842,39.678,0.5447,0.2005,0.6825,0.976
16:56:16:983,-2.9073,2.2756,5.2738,40.9141,0.188,-0.1978,0.7962,0.976
16:56:17:119,-1.7874,2.6034,4.6325,40.9889,-0.1199,-0.3884,0.8267,0.8655
16:56:17:120,-1.3185,3.1657,4.2736,40.9945,-0.2298,-0.1697,0.7766,0.7298
16:56:17:121,-1.9669,3.6203,4.2879,40.0943,-0.1895,0.2958,0.7485,0.5725
16:56:17:121,-2.1799,3.6562,4.3047,41.4587,-0.2066,0.6134,0.8279,0.392
16:56:17:122,-1.8233,3.5797,4.5272,40.6884,-0.341,0.6586,0.9892,0.1815
16:56:17:123,-0.7944,3.2136,4.7306,40.4173,-0.5829,0.5206,1.1615,-0.0671
16:56:17:124,0.1555,2.857,5.6542,41.0137,-0.8163,0.4265,1.2739,-0.3597
16:56:17:143,1.1246,2.5938,6.9846,41.21,-0.9226,0.5084,1.2152,-0.6964
16:56:17:164,0.9882,2.8379,7.3149,41.21,-0.9042,0.5719,1.0808,-1.483
16:56:17:184,0.4977,2.9815,8.5998,42.0314,-0.9397,0.6452,0.9464,-1.9209
16:56:17:203,0.402,2.9791,10.1432,41.3109,-1.0191,0.5878,0.8585,-2.3825
16:56:17:225,0.6174,3.0485,11.5478,41.9851,-0.9739,0.4717,0.7681,-2.8647
16:56:17:243,0.7489,3.4576,11.8804,41.8954,-0.732,0.3166,0.6239,-3.3612
16:56:17:264,0.7489,4.1348,10.7749,42.4183,-0.3997,0.1455,0.4602,-3.8629
16:56:17:285,0.9954,4.6038,9.8369,41.8954,-0.2042,0.0404,0.3478,-4.3651
16:56:17:304,0.871,4.7139,10.5452,42.2453,-0.2641,0.0795,0.2843,-4.8653
16:56:17:327,0.146,4.2329,12.2608,42.9723,-0.4497,0.2176,0.2488,-5.3632
16:56:17:345,-0.4187,3.3643,15.661,42.252,-0.677,0.4155,0.2391,-5.8601
16:56:17:368,-0.2632,2.6584,18.6497,39.4827,-0.6917,0.2946,0.1951,-6.3542
16:56:17:385,0.2871,2.9073,16.4028,40.9271,-0.2127,-0.3786,0.0033,-6.8378
16:56:17:404,1.1103,3.6706,12.1388,41.0829,0.4189,-0.9198,-0.235,-7.3005
16:56:17:424,2.144,3.6562,9.8345,40.3759,0.651,-0.8208,-0.3241,-7.7398
16:56:17:448,2.4622,2.2923,11.1649,40.236,0.4934,-0.3212,-0.3816,-8.157
16:56:17:465,1.8066,1.2275,13.8688,39.9143,0.293,0.1089,-0.5612,-8.5476
16:56:17:487,0.9452,0.5767,15.4457,42.5958,0.3553,0.2041,-0.8165,-8.9029
16:56:17:504,0.5432,0.3589,14.8427,41.8598,0.6535,0.0441,-1.0205,-9.2143
16:56:17:526,0.0239,0.3852,13.6893,42.0941,0.9735,-0.0976,-1.1684,-9.4755
16:56:17:550,-0.6508,0.4642,12.7155,42.8282,1.1959,-0.177,-1.282,-9.6827
16:56:17:565,-1.1079,0.6652,10.8275,41.2585,1.3975,-0.3456,-1.3638,-9.8322
16:56:17:588,-1.5506,1.0576,8.4156,42.3646,1.5832,-0.5411,-1.4066,-9.9222
16:56:17:612,-1.864,1.9789,4.4602,42.0087,1.5245,-0.7524,-1.3443,-9.9222
16:56:17:626,-1.7061,2.2732,3.6897,42.0087,1.2594,-0.7854,-1.2355,-9.9222
16:56:17:644,-1.5745,2.6608,3.527,41.8688,0.9662,-0.7879,-1.1268,-9.7996
16:56:17:665,-1.3543,2.9073,3.9841,41.6889,0.7182,-0.6999,-1.0144,-9.64
16:56:17:683,-1.0002,2.8977,4.6445,39.4078,0.563,-0.5594,-0.8947,-9.4501
16:56:17:704,-1.017,3.0269,5.2929,41.3677,0.4763,-0.4213,-0.836,-9.233
16:56:17:726,-1.4764,3.3954,5.9031,41.0259,0.4152,-0.3114,-0.8336,-8.9892
16:56:17:748,-2.0985,3.7137,6.676,40.0576,0.3553,-0.2442,-0.7994,-8.7196
16:56:17:765,-2.4167,3.8429,7.2933,42.3159,0.304,-0.2198,-0.698,-8.4295
16:56:17:784,-2.5819,3.9171,7.9394,41.8855,0.2552,-0.2198,-0.5844,-8.1235
16:56:17:803,-2.6393,3.9984,8.3988,41.267,0.2417,-0.2283,-0.4976,-7.8051
16:56:17:822,-2.4144,4.1109,8.1906,42.4157,0.3126,-0.2002,-0.4097,-7.4782
16:56:17:842,-2.412,4.2186,7.5135,41.6125,0.3688,-0.1404,-0.3486,-7.1454
16:56:17:864,-3.0413,4.4219,7.8197,42.4157,0.282,0.0209,-0.3388,-6.8065
16:56:17:886,-3.9051,4.745,8.0327,40.2522,0.1318,0.1553,-0.34,-6.4616
16:56:17:904,-4.5727,5.1135,7.121,41.267,-0.0209,0.1895,-0.2826,-6.1124
16:56:17:926,-4.4004,5.2259,7.2263,41.1871,-0.33,0.1895,-0.1262,-5.7675
16:56:17:946,-3.6371,4.8048,8.4491,43.587,-0.754,0.1284,0.035,-5.4365
16:56:17:967,-3.6873,4.5799,9.4588,41.2305,-0.9751,0.1516,0.0766,-5.1218
16:56:17:983,-4.7474,4.7115,9.9182,42.8148,-0.936,0.3923,0.0582,-4.8208
16:56:18:004,-5.9222,4.6469,11.2104,42.6159,-0.8578,0.7197,0.1401,-4.5354
16:56:18:027,-5.9462,3.8716,13.0241,41.3232,-0.9042,0.7417,0.3563,-4.2736
16:56:18:048,-4.8072,3.0365,13.5099,40.7789,-0.8871,0.385,0.5665,-4.0443
16:56:18:068,-4.3956,2.6465,12.3039,41.4253,-0.297,0.2762,0.6349,-3.6797
16:56:18:084,-4.8407,2.9264,10.7198,42.3343,0.0573,0.4632,0.6508,-3.5362
16:56:18:107,-4.599,3.1968,8.8702,42.4894,0.1843,0.385,0.7412,-3.4194
16:56:18:128,-3.9051,3.3332,6.8315,41.5633,0.1305,0.1614,0.8817,-3.4194
16:56:18:148,-2.5914,3.0915,5.5537,41.281,-0.0539,-0.0231,1.0466,-3.4194
16:56:18:172,-1.328,2.8307,5.1302,41.9959,-0.2518,-0.0414,1.1615,-3.4194
16:56:18:183,-0.5958,2.613,5.2092,43.4747,-0.3667,0.0918,1.1786,-3.4194
16:56:18:203,-0.201,2.5675,5.3551,40.3107,-0.4204,0.2176,1.1456,-3.4194
16:56:18:226,-0.1196,2.6321,5.6231,43.1769,-0.4436,0.3068,1.0943,-3.5452
16:56:18:246,-0.1244,2.723,6.1041,41.7068,-0.4559,0.3483,1.043,-3.7076
16:56:18:264,0.0335,2.8762,6.3745,41.9569,-0.4791,0.3214,1.0014,-3.904
16:56:18:283,0.0526,2.9073,6.7119,43.4816,-0.5047,0.2909,0.9562,-4.133
16:56:18:302,-0.0622,3.1442,7.2455,42.6669,-0.5218,0.308,0.8976,-4.3903
16:56:18:323,-0.469,3.4002,7.8197,41.407,-0.545,0.3068,0.8255,-4.6729
16:56:18:345,-0.5886,3.4433,8.272,40.4206,-0.5805,0.2506,0.7852,-4.978
16:56:18:365,-0.4068,3.46,9.3655,40.6557,-0.6269,0.2029,0.7583,-5.3048
16:56:18:384,0.0479,3.5055,10.2006,39.8584,-0.633,0.093,0.6838,-5.6505
16:56:18:404,0.2919,3.8166,10.3394,40.7727,-0.5047,-0.0463,0.5494,-6.0089
16:56:18:427,0.4834,4.3119,9.5617,41.2071,-0.2763,-0.1159,0.3991,-6.3729
16:56:18:444,0.3541,4.7641,9.3344,41.2067,-0.1297,-0.0585,0.2757,-6.7373
16:56:18:465,0.0646,4.9268,9.7149,41.6457,-0.1358,0.0698,0.2024,-7.0988
16:56:18:480,-0.6604,4.7737,11.086,40.9455,-0.2775,0.2432,0.1792,-7.4569
16:56:18:502,-0.8159,3.6562,17.2499,40.6422,-0.6721,0.0893,0.1963,-7.8137
16:56:18:521,0.2369,3.4481,15.0939,40.6422,-0.3056,-0.502,0.1425,-8.1712
16:56:18:541,1.6391,3.4529,11.7177,39.4827,0.1538,-0.9088,0.0363,-8.8742
16:56:18:561,2.8977,3.0102,10.672,40.8251,0.2185,-0.9003,-0.0737,-9.2126
16:56:18:582,3.4146,2.1703,11.5454,42.5883,0.0829,-0.6877,-0.2838,-9.5353
16:56:18:602,2.936,1.5147,12.3517,43.7434,0.0841,-0.4617,-0.5941,-9.8305
16:56:18:623,1.8903,1.4644,12.5408,41.0516,0.293,-0.2295,-0.924,-10.0872
16:56:18:644,0.6389,1.9023,11.8708,40.1237,0.5582,-0.0805,-1.1659,-10.2957
16:56:18:663,-0.1053,2.0387,11.4162,40.1805,0.6608,-0.0426,-1.2429,-10.4543
16:56:18:682,-0.5121,1.8114,11.6483,40.7416,0.5472,-0.1355,-1.2111,-10.565
16:56:18:703,-0.9547,1.663,11.2152,41.1902,0.4531,-0.3529,-1.1916,-10.565
16:56:18:724,-1.5625,1.8377,9.8895,40.3369,0.5227,-0.5399,-1.2001,-10.565
16:56:18:745,-2.2899,2.2014,8.6261,41.7772,0.6388,-0.64,-1.1855,-10.565
16:56:18:763,-2.3761,2.345,7.3819,40.7186,0.7036,-0.7207,-1.0841,-10.565
16:56:18:784,-1.8664,2.4479,6.3553,40.1306,0.7011,-0.8184,-0.9448,-10.4633
16:56:18:804,-1.4453,2.6728,5.3815,41.5255,0.6877,-0.8856,-0.8715,-10.3311
16:56:18:827,-1.1821,3.0628,4.5559,41.2981,0.6791,-0.8624,-0.8446,-10.1703
16:56:18:844,-0.8829,3.4959,4.1779,40.0484,0.64,-0.7133,-0.8018,-9.9844
16:56:18:864,-0.5695,3.8835,4.1085,41.0086,0.5362,-0.5056,-0.7261,-9.7765
16:56:18:883,-0.5408,4.2162,4.9699,40.5253,0.326,-0.2906,-0.6516,-9.5505
16:56:18:904,-0.7513,4.4076,6.4463,41.5626,0.0829,-0.1501,-0.5905,-9.3097
16:56:18:925,-1.2682,4.6038,7.9202,40.6721,-0.0551,-0.078,-0.5318,-9.0563
16:56:18:947,-1.7109,4.6349,9.1095,38.4816,-0.0735,-0.0194,-0.4402,-8.5255
16:56:18:964,-1.8449,4.5631,10.1862,41.4651,0.1623,-0.0695,-0.1983,-8.2569
16:56:18:984,-1.3807,4.3741,9.3512,41.4651,0.348,-0.1404,-0.0908,-7.9912
16:56:19:000,-1.0241,4.3693,8.2433,41.595,0.4445,-0.1465,-0.0456,-7.7307
16:56:19:023,-1.3161,4.2281,8.1547,39.1501,0.3712,-0.0475,-0.0493,-7.4747
16:56:19:198,-1.3807,3.941,8.351,39.5449,0.1892,0.0295,-0.0615,-7.223
16:56:19:199,-1.3424,3.862,8.0518,40.6721,0.0047,0.0624,-0.0945,-6.9748
16:56:19:199,-1.6606,3.8405,8.5472,40.1059,-0.192,0.159,-0.1604,-6.7277
16:56:19:200,-2.3785,3.795,10.4566,41.2846,-0.3716,0.3398,-0.2203,-6.4795
16:56:19:200,-3.2255,3.2231,11.8062,39.1235,-0.3544,0.4754,-0.2288,-6.2296
16:56:19:201,-4.0534,2.8905,11.6913,40.9548,-0.0979,0.5487,-0.2179,-5.9774
16:56:19:202,-5.0824,3.2806,10.325,39.8595,0.1953,0.5804,-0.2069,-5.7211
16:56:19:202,-6.0419,3.3021,9.4038,40.0484,0.282,0.5829,-0.0798,-5.4639
16:56:19:203,-5.7452,2.6656,8.9037,39.7108,0.1562,0.5682,0.2378,-5.2183
16:56:19:222,-5.2427,1.9884,9.1382,38.6883,-0.1419,0.4766,0.564,-4.9978
16:56:19:240,-4.8694,0.9882,10.5739,38.0238,-0.5756,0.3508,0.7827,-4.8113
16:56:19:261,-3.8644,0.3565,12.1579,39.8717,-0.8358,0.2848,0.911,-4.6667
16:56:19:282,-2.924,0.7155,11.7847,39.9272,-0.7161,0.1797,0.9037,-4.5612
16:56:19:303,-2.6848,1.7731,8.875,40.711,-0.2775,0.0514,0.7363,-4.5612
16:56:19:325,-2.4814,2.8092,5.7284,39.0953,0.1428,0.1663,0.6141,-4.5612
16:56:19:344,-2.2445,3.5486,3.8907,40.0533,0.3211,0.5853,0.6251,-4.5612
16:56:19:364,-1.9813,3.752,3.5462,41.3956,0.2124,1.0997,0.7045,-4.5612
16:56:19:383,-1.6199,3.7902,3.9482,40.6563,-0.1052,1.4051,0.7803,-4.5612
16:56:19:403,-1.5266,3.9218,4.0965,41.1725,-0.4729,1.4357,0.7986,-4.5612
16:56:19:425,-1.7372,3.9362,4.0534,39.8799,-1.1437,1.2952,0.9171,-4.5612
16:56:19:446,-1.5553,3.6873,5.013,39.8799,-1.4308,1.3318,1.071,-4.8484
16:56:19:466,-1.7444,3.7998,7.4967,40.2872,-1.6348,1.3624,1.2262,-5.0648
16:56:19:485,-1.6104,3.4409,10.3992,40.1136,-1.713,1.1534,1.3838,-5.3381
16:56:19:504,-1.2108,3.0293,12.0598,40.4123,-1.509,0.7759,1.5048,-5.6694
16:56:19:529,-0.737,2.9288,12.4164,41.3437,-1.1095,0.5426,1.5561,-6.0553
16:56:19:549,-0.0814,2.7398,12.6772,39.8648,-0.7564,0.4363,1.5109,-6.4892
16:56:19:567,0.5168,2.8379,12.5073,39.5043,-0.4815,0.3263,1.3117,-6.9607
16:56:19:582,0.5791,3.3332,11.8253,39.2644,-0.2421,0.1871,0.999,-7.4561
16:56:19:603,0.402,3.8501,11.7631,39.5465,-0.1113,0.1174,0.6996,-7.9636
16:56:19:624,-0.0933,4.0152,12.0503,39.6256,-0.0588,0.1138,0.4871,-8.475
16:56:19:643,-1.2179,3.8477,12.6389,40.3175,-0.0417,0.1553,0.3368,-8.9846
16:56:19:665,-2.1105,3.539,14.3043,40.5353,-0.0955,0.1553,0.2525,-9.4895
16:56:19:683,-1.9741,3.4672,15.4265,40.8882,-0.0832,-0.1489,0.2036,-9.9885
16:56:19:703,-0.7107,3.5653,13.218,40.0154,0.2026,-0.7182,0.1438,-10.4773
16:56:19:723,0.871,3.716,10.2102,41.0678,0.5313,-1.0249,0.0595,-10.9513
16:56:19:742,1.6582,3.5557,9.3081,40.3175,0.5545,-0.8184,-0.0493,-11.4082
16:56:19:765,1.5434,2.2804,11.0907,41.2402,0.2393,-0.3664,-0.169,-11.8473
16:56:19:782,1.0648,0.9882,14.3809,39.9438,-0.0796,-0.0732,-0.3742,-12.2647
16:56:19:804,0.792,0.2656,16.1611,40.5494,-0.0319,-0.1831,-0.6638,-12.6513
16:56:19:826,0.5384,0.2991,14.5723,40.0121,0.4824,-0.4617,-0.9729,-12.9934
16:56:19:848,-0.0646,0.6126,11.9617,40.2233,1.0395,-0.5582,-1.238,-13.2785
16:56:19:868,-0.8901,0.9667,10.4806,40.4872,1.246,-0.5423,-1.409,-13.5006
16:56:19:882,-2.7015,1.6128,9.0832,39.3202,1.0762,-0.6413,-1.5556,-13.6566
16:56:19:901,-3.0437,1.8185,8.339,41.3791,0.9577,-0.8111,-1.5141,-13.6566
16:56:19:923,-2.8857,1.9908,7.3795,42.2994,0.8807,-0.9956,-1.4225,-13.6566
16:56:19:943,-2.467,2.1152,6.2429,40.6132,0.8526,-1.1177,-1.315,-13.6566
16:56:19:962,-2.0578,2.3617,5.0847,39.6967,0.8648,-1.1006,-1.2209,-13.5326
16:56:19:982,-1.8449,2.7254,4.2496,40.7944,0.8428,-0.9113,-1.1378,-13.367
16:56:20:001,-1.663,2.9791,3.8381,39.1563,0.7341,-0.6303,-1.0523,-13.1645
16:56:20:022,-1.2993,3.1753,3.807,42.3714,0.5423,-0.3468,-0.9863,-12.9299
16:56:20:043,-1.8353,3.9147,4.5535,40.1502,0.3211,-0.1379,-0.9924,-12.6649
16:56:20:063,-3.0772,4.5105,6.5228,40.2413,0.1,-0.0524,-0.9558,-12.372
16:56:20:083,-3.5198,4.5966,7.8939,40.3056,-0.0087,-0.1391,-0.7505,-12.0598
16:56:20:103,-2.9551,4.477,7.8867,41.6801,0.078,-0.2796,-0.4891,-11.7381
16:56:20:120,-2.534,4.3238,7.9896,42.3343,0.1892,-0.2686,-0.3241,-11.413
16:56:20:144,-2.6871,4.3143,8.4873,41.9318,0.2442,-0.155,-0.2789,-11.0856
16:56:20:163,-2.881,4.4985,8.8822,41.6593,0.2796,-0.1013,-0.2582,-10.7567
16:56:20:184,-3.0245,4.4435,8.7649,40.7434,0.3163,-0.0512,-0.2166,-10.4271
16:56:20:204,-3.7998,4.4674,8.7912,40.8613,0.2894,0.0392,-0.18,-10.0981
16:56:20:224,-4.2233,4.3071,8.4323,43.684,0.1635,0.0588,-0.136,-9.7712
16:56:20:243,-4.1061,4.1539,7.8963,41.8376,-0.0283,0.0356,-0.0432,-9.451
16:56:20:261,-3.5533,4.1731,8.4132,42.0769,-0.297,0.1015,0.0521,-9.1438
16:56:20:282,-3.7113,3.5509,9.2818,41.5941,-0.5389,0.1418,0.0815,-8.8517
16:56:20:302,-4.5033,3.3165,9.9159,41.9579,-0.6465,0.2359,0.0485,-8.5739
16:56:20:326,-5.9246,3.3811,10.4925,42.5491,-0.5756,0.5023,0.024,-8.3071
16:56:20:345,-6.396,2.4,11.0596,42.055,-0.4766,0.5438,0.3771,-8.0542
16:56:20:366,-5.3647,2.0459,10.5069,41.0161,-0.4644,0.2542,0.5628,-7.8224
16:56:20:382,-5.0752,1.9741,9.6933,43.7698,-0.3386,0.2347,0.6447,-7.4468
16:56:20:400,-4.9484,1.7109,9.3296,44.2291,-0.231,0.4595,0.7253,-7.305
16:56:20:421,-4.6277,1.797,8.8989,44.7287,-0.2579,0.5267,0.7815,-7.1964
16:56:20:451,-4.1348,2.199,8.0303,43.048,-0.3801,0.3349,0.7827,-7.1964
16:56:20:464,-3.472,2.5651,7.0804,42.0634,-0.4876,0.1162,0.8035,-7.1964
16:56:20:480,-2.6919,2.7254,6.1065,44.8023,-0.4986,0.0527,0.8646,-7.1964
16:56:20:499,-1.8473,2.8642,5.2211,41.5635,-0.4656,0.1467,0.9403,-7.1964
16:56:20:518,-1.2156,2.9384,4.8431,41.8358,-0.4962,0.297,0.988,-7.1964
16:56:20:540,-1.2012,3.1801,5.1254,44.0314,-0.6159,0.4436,0.9843,-7.2994
16:56:20:559,-1.5434,3.3954,5.8744,45.567,-0.743,0.5279,0.9684,-7.4384
16:56:20:581,-1.5482,3.5438,6.7047,43.7103,-0.8077,0.556,1.0124,-7.6147
16:56:20:603,-1.5745,3.6323,7.1497,42.6918,-0.7869,0.5414,1.0857,-7.83
16:56:20:625,-1.5218,3.7328,7.2646,43.7461,-0.7405,0.4961,1.1651,-8.0847
16:56:20:646,-1.3663,3.5366,7.7982,43.7381,-0.7686,0.4241,1.2384,-8.3806
16:56:20:662,-0.8853,3.2327,8.4443,42.049,-0.8395,0.3166,1.2885,-8.7193
16:56:20:680,-0.4594,2.869,9.5952,42.8953,-0.8822,0.3056,1.2739,-9.0995
16:56:20:701,-0.0479,2.6967,11.3611,42.6697,-0.8847,0.3471,1.1724,-9.5168
16:56:20:723,0.1053,2.802,12.591,43.8113,-0.7161,0.2982,0.9709,-9.9625
16:56:20:743,0.1244,3.3523,11.9928,44.1772,-0.3349,0.148,0.7192,-10.4242
16:56:20:763,0.1172,3.9697,10.7151,44.231,0.0536,0.0502,0.5005,-11.3546
16:56:20:782,-0.6197,4.6421,10.5619,43.4074,0.2014,0.0588,0.2159,-11.8114
16:56:20:803,-1.2203,4.6684,11.6722,44.1065,0.034,0.0832,0.1792,-12.2613
16:56:20:820,-1.2802,4.3502,13.7635,42.9306,-0.1419,0.1345,0.2293,-12.7084
16:56:20:844,-0.4211,3.8548,15.1801,44.1444,-0.1553,-0.0414,0.2794,-13.1554
16:56:20:864,0.9356,3.7184,13.7396,43.7538,0.0976,-0.5105,0.2097,-13.5985
16:56:20:882,1.9621,3.6586,11.3348,45.07,0.4176,-0.8453,0.0314,-14.0302
16:56:20:901,2.7446,3.7352,10.191,43.4924,0.5288,-0.8465,-0.169,-14.4429
16:56:20:922,2.7876,3.0102,10.8347,43.8537,0.4238,-0.629,-0.3449,-14.8326
16:56:20:944,2.9839,2.0148,11.9785,42.6285,0.3248,-0.3786,-0.494,-15.1969
16:56:20:963,2.7565,1.4668,13.2802,44.7307,0.3419,-0.1758,-0.7383,-15.5282
16:56:20:982,1.7827,1.3448,14.077,42.7919,0.4616,-0.0829,-1.0731,-15.8144
16:56:21:003,0.2489,1.3472,14.6824,44.511,0.6168,-0.0512,-1.3394,-16.0459
16:56:21:020,-1.2754,1.2538,15.0915,44.092,0.7451,-0.1477,-1.4811,-16.2176
16:56:21:042,-2.0818,1.1916,13.8855,44.5634,0.9002,-0.5093,-1.5275,-16.3274
16:56:21:062,-2.3928,1.2203,11.3204,44.8535,1.114,-0.9491,-1.5373,-16.3274
16:56:21:084,-2.2923,1.3304,8.7386,43.4212,1.3022,-1.2497,-1.508,-16.3274
16:56:21:250,-2.2756,1.4524,6.676,44.4311,1.4024,-1.3694,-1.4604,-16.3274
16:56:21:251,-1.8784,1.6558,5.0106,46.0637,1.395,-1.4122,-1.4041,-16.2008
16:56:21:252,-1.6343,1.9789,3.9769,44.1928,1.2949,-1.4305,-1.3406,-16.0238
16:56:21:252,-1.1127,2.2947,3.3547,46.9026,1.1067,-1.3767,-1.271,-15.8011
16:56:21:253,-0.8351,2.8499,3.4313,45.4433,0.9015,-1.1922,-1.2135,-15.5373
16:56:21:254,-0.8471,3.2518,4.3286,45.103,0.684,-0.8917,-1.1537,-15.2365
16:56:21:254,-0.8997,3.6012,5.2762,46.1457,0.5227,-0.6632,-1.0853,-14.9029
16:56:21:255,-1.8257,4.3932,6.5587,45.3788,0.4335,-0.3981,-1.0596,-14.1418
16:56:21:263,-2.5053,4.8574,6.7286,45.2608,0.4604,-0.2967,-1.0034,-13.7172
16:56:21:282,-2.8714,5.1063,6.6927,44.3447,0.4616,-0.2075,-0.8727,-13.2694
16:56:21:301,-2.6273,5.1302,7.0899,46.2851,0.3871,-0.1477,-0.6723,-12.8075
16:56:21:320,-2.065,4.8933,7.1857,44.8673,0.2674,-0.1318,-0.483,-12.3394
16:56:21:343,-1.8233,4.678,7.7097,43.1427,0.144,-0.0622,-0.3828,-11.8701
16:56:21:362,-2.1248,4.7234,8.3486,43.1427,0.023,0.0551,-0.3755,-11.4
16:56:21:381,-2.5866,4.7952,7.9848,45.2207,-0.0735,0.0832,-0.3852,-10.9288
16:56:21:401,-2.9862,4.8479,7.8269,46.2073,-0.2372,0.1321,-0.3596,-10.4581
16:56:21:421,-3.137,4.8048,9.076,46.5549,-0.545,0.2432,-0.2973,-9.992
16:56:21:442,-3.5246,4.2808,10.6863,45.5712,-0.8224,0.2726,-0.2423,-9.5342
16:56:21:464,-4.3334,4.1157,11.4712,46.9954,-0.8566,0.2714,-0.2191,-9.0853
16:56:21:483,-5.0225,3.9625,11.6315,46.4752,-0.6904,0.3654,-0.1336,-8.6474
16:56:21:499,-4.8694,3.3499,11.6746,45.9023,-0.5707,0.4045,0.0656,-8.2272
16:56:21:520,-3.9027,2.4766,11.2941,46.9449,-0.556,0.1895,0.2794,-7.8327
16:56:21:542,-3.1633,2.1009,10.9232,46.1281,-0.5426,-0.0121,0.3637,-7.4667
16:56:21:562,-3.0987,1.7109,10.9304,47.4252,-0.4326,0.0856,0.3441,-7.1264
16:56:21:582,-4.2186,1.6271,11.1817,46.5746,-0.2604,0.3581,0.2525,-6.8058
16:56:21:602,-5.0201,2.0985,10.7988,46.3524,-0.0576,0.4876,0.1694,-6.4994
16:56:21:625,-4.7641,2.6441,9.2913,46.6107,0.1525,0.4253,0.2012,-6.2065
16:56:21:643,-3.8883,2.9216,7.2096,47.2,0.2711,0.2335,0.3038,-5.9303
16:56:21:660,-2.747,3.1705,5.2834,45.8224,0.1978,0.0062,0.3881,-5.6744
16:56:21:682,-1.9334,3.4648,4.4411,47.2146,-0.0246,-0.1452,0.4174,-5.2295
16:56:21:703,-2.3115,4.3645,3.6538,46.6107,-0.2921,0.0881,0.3747,-5.0386
16:56:21:720,-2.723,4.6564,3.326,46.899,-0.363,0.3227,0.4761,-4.8717
16:56:21:745,-2.6201,4.6349,3.6538,46.1457,-0.5805,0.4448,0.6923,-4.7368
16:56:21:763,-1.8209,4.1946,4.5009,46.8206,-0.9018,0.4241,0.9513,-4.6451
16:56:21:792,-1.0792,3.9075,5.4963,46.6481,-1.1767,0.3422,1.1248,-4.6451
16:56:21:803,-0.5216,3.6897,6.3793,47.3269,-1.3282,0.2689,1.1932,-4.6451
16:56:21:824,-0.1005,3.472,7.3795,46.7812,-1.3783,0.2494,1.2042,-4.6451
16:56:21:845,-0.0814,3.5318,8.6525,46.9394,-1.3563,0.319,1.1419,-4.7561
16:56:21:859,-0.4331,3.6347,10.6887,45.4939,-1.2952,0.468,1.0295,-4.9077
16:56:21:882,-0.658,3.5797,12.9643,46.1586,-1.1632,0.4949,0.9232,-5.0948
16:56:21:903,-0.268,3.5988,13.5027,47.4664,-0.8407,0.2591,0.8169,-5.3111
16:56:21:923,0.457,3.9482,12.2465,46.64,-0.4058,-0.0047,0.6764,-5.5483
16:56:21:943,0.5599,4.2377,11.732,45.7385,-0.1101,-0.0035,0.4968,-5.7985
16:56:21:964,-0.2249,4.3693,12.1484,43.9954,-0.0197,0.1528,0.3221,-6.0543
16:56:21:981,-1.0265,4.2018,13.6893,47.2427,-0.0735,0.2701,0.2159,-6.3126
16:56:22:002,-1.1486,3.9553,15.3787,45.5919,-0.104,0.2384,0.178,-6.5715
16:56:22:024,-0.39,3.7878,15.4146,45.7563,0.067,-0.1013,0.1157,-6.8288
16:56:22:043,0.2106,4.2999,12.6413,46.8537,0.4507,-0.5948,-0.0554,-7.0759
16:56:22:063,0.7513,4.6756,10.3155,46.9056,0.7402,-0.7243,-0.2191,-7.3068
16:56:22:082,0.9523,4.5368,9.7531,45.4939,0.7463,-0.5472,-0.3034,-7.5193
16:56:22:102,0.8901,3.6969,10.7629,45.8724,0.5508,-0.3322,-0.3755,-7.712
16:56:22:121,1.0241,2.9862,12.0024,45.3308,0.4299,-0.1574,-0.45,-7.8843
16:56:22:142,1.0265,2.3809,12.8519,46.0637,0.4531,-0.028,-0.5477,-8.0335
16:56:22:164,0.3159,1.5266,12.9476,47.8788,0.5765,-0.1477,-0.8165,-8.1555
16:56:22:181,-0.3876,1.2491,12.414,45.286,0.596,-0.3309,-0.9423,-8.1555
16:56:22:203,-1.1581,1.1773,11.744,45.1129,0.6388,-0.4873,-1.0425,-8.1555
16:56:22:222,-1.4453,1.1103,10.9185,46.2482,0.7414,-0.651,-1.0804,-8.1555
16:56:22:240,-1.4524,1.072,9.3512,45.1676,0.9454,-0.8221,-1.0743,-8.1555
16:56:22:260,-1.3352,1.1342,7.3986,43.265,1.1653,-0.9724,-1.0547,-8.05
16:56:22:281,-1.1174,1.2969,5.6782,44.1289,1.2533,-1.1116,-1.0474,-7.9058
16:56:22:300,-0.9165,1.7994,4.4674,44.4265,1.2203,-1.1959,-1.0718,-7.7242
16:56:22:322,-0.9667,2.5388,3.6921,46.9733,1.1226,-1.1361,-1.1024,-7.5053
16:56:22:340,-1.1749,3.4648,3.5868,45.3892,0.9772,-0.9308,-1.0975,-7.2492
16:56:22:365,-1.5075,4.1707,3.9529,44.359,0.7866,-0.6877,-1.023,-6.9595
16:56:22:382,-1.9765,4.7426,4.7641,45.0203,0.5667,-0.4873,-0.8886,-6.6424
16:56:22:401,-2.1535,5.068,6.0993,47.8986,0.3236,-0.3554,-0.7261,-6.3049
16:56:22:426,-2.2062,5.2116,7.2646,45.1498,0.1452,-0.3346,-0.5563,-5.9551
16:56:22:442,-1.998,5.1709,7.9657,44.7418,0.0988,-0.381,-0.4097,-5.5987
16:56:22:459,-1.6534,5.0441,8.1428,45.1419,0.1733,-0.4043,-0.3083,-5.2393
16:56:22:491,-1.3567,4.9651,7.9202,44.5273,0.3199,-0.348,-0.2643,-4.8792
16:56:22:499,-1.2849,5.1326,7.2598,44.931,0.4714,-0.2393,-0.2704,-4.5173
16:56:22:521,-1.6822,5.2211,6.92,44.292,0.4934,-0.1196,-0.2814,-4.1539
16:56:22:538,-2.0746,5.0632,7.2359,46.251,0.3676,0.0112,-0.2753,-3.788
16:56:22:558,-2.5292,5.0201,7.4512,45.3755,0.2161,0.1357,-0.2655,-3.4205
16:56:22:578,-2.8331,5.0919,6.9727,45.592,0.0621,0.1895,-0.2447,-3.0519
16:56:22:599,-3.2973,4.9077,8.4084,44.4724,-0.5292,0.3337,-0.1348,-2.3244
16:56:22:620,-4.1874,4.3669,9.5665,43.8153,-0.7576,0.4742,-0.092,-1.9703
16:56:22:638,-5.6088,4.3262,10.4112,44.2652,-0.8297,0.7258,-0.0334,-1.6246
16:56:22:659,-6.2692,3.8213,12.3637,44.4945,-0.9592,0.8456,0.1621,-1.2955
16:56:22:679,-5.1278,2.4167,13.5721,44.8251,-1.0582,0.5218,0.4785,-0.9961
16:56:22:701,-3.4552,1.7803,12.8758,45.6853,-0.8554,0.0979,0.6532,-0.7326
16:56:22:719,-3.1944,1.8233,11.4305,43.409,-0.4106,0.1089,0.5983,-0.4992
16:56:22:739,-3.7017,1.9358,9.7699,43.8067,0.0218,0.457,0.5372,-0.2898
16:56:22:762,-3.752,2.0794,8.3749,44.7104,0.1342,0.5951,0.5628,-0.1039
16:56:22:782,-3.192,2.4431,7.2479,44.1464,-0.0307,0.4497,0.6202,0.0561
16:56:22:798,-2.6417,2.6824,6.317,44.2424,-0.2359,0.2897,0.6667,0.188
16:56:22:819,-2.1583,2.9575,5.6136,44.4868,-0.4021,0.2151,0.7009,0.2894
16:56:22:840,-1.6319,3.137,4.9388,45.5876,-0.5011,0.2652,0.7449,0.2894
16:56:22:861,-1.273,3.0724,4.3597,44.2424,-0.5731,0.4143,0.8059,0.2894
16:56:22:881,-0.9978,3.0197,4.3837,42.7325,-0.7063,0.5768,0.8536,0.2894
16:56:22:901,-0.9667,3.0748,4.879,46.174,-0.8981,0.6892,0.8744,0.2894
16:56:22:926,-0.7561,3.0867,5.793,43.1384,-1.0899,0.7344,0.9012,0.2894
16:56:22:941,-0.5838,3.0389,6.6425,43.9381,-1.2219,0.7136,0.9305,0.1788
16:56:22:961,-0.4451,3.0532,7.6163,45.3075,-1.2585,0.6806,0.9379,0.0302
16:56:22:981,-0.1555,3.0844,8.3486,44.966,-1.2292,0.6464,0.9257,-0.1543
16:56:23:003,-0.2082,3.3284,8.8367,43.3174,-1.151,0.622,0.8621,-0.3711
16:56:23:021,-0.4259,3.5988,9.4325,44.1695,-1.0789,0.6037,0.7778,-0.6157
16:56:23:044,-0.6461,3.8931,10.3753,45.1005,-1.0191,0.5646,0.7094,-1.1754
16:56:23:064,-0.2871,4.2784,10.9137,44.9464,-0.7454,0.2469,0.6215,-1.4846
16:56:23:084,-0.1914,4.4698,10.8084,43.8983,-0.578,0.1687,0.5506,-1.8076
16:56:23:101,-0.3493,4.654,11.2941,45.1124,-0.4974,0.2151,0.481,-2.1416
16:56:23:122,-0.9667,4.7186,12.3709,44.9055,-0.5011,0.3141,0.4272,-2.4834
16:56:23:283,-1.6343,4.3717,14.3809,44.8935,-0.5621,0.3972,0.4223,-2.8336
16:56:23:284,-1.5075,3.8596,16.2353,44.9055,-0.5609,0.2738,0.4565,-3.1929
16:56:23:284,-0.4857,3.4457,15.6586,43.048,-0.3215,-0.1428,0.437,-3.5598
16:56:23:285,0.4738,3.7184,12.9356,45.0289,0.0744,-0.5557,0.2904,-3.9261
16:56:23:285,1.2825,3.6993,11.1482,44.8113,0.2869,-0.5838,0.1425,-4.2855
16:56:23:286,1.5625,2.9097,11.7679,44.4867,0.2112,-0.3126,0.0314,-4.6358
16:56:23:286,1.3472,1.7539,14.6776,43.5638,0.0072,0.0148,-0.114,-4.9742
16:56:23:287,1.273,0.5623,16.7522,43.9924,0.0511,0.1125,-0.3058,-5.2953
16:56:23:300,1.4118,-0.1149,16.3454,43.1646,0.4897,-0.0573,-0.5599,-5.5881
16:56:23:320,0.6963,0.1723,14.2995,43.3962,1.0578,-0.2234,-0.9155,-5.8386
16:56:23:341,-0.5767,0.4379,13.0959,43.6176,1.3779,-0.2735,-1.2001,-6.0344
16:56:23:360,-1.4716,0.6197,11.7703,44.0735,1.4769,-0.414,-1.3186,-6.172
16:56:23:381,-1.9501,0.7657,10.3968,42.7864,1.5025,-0.6241,-1.3467,-6.172
16:56:23:404,-2.01,0.9547,8.8893,42.6111,1.4964,-0.8367,-1.3186,-6.172
16:56:23:424,-1.864,1.0026,7.6881,44.593,1.4635,-0.9809,-1.2746,-6.172
16:56:23:443,-1.6104,1.1533,6.3936,42.5098,1.439,-1.0798,-1.2294,-6.172
16:56:23:463,-1.2395,1.3113,4.9436,41.7354,1.4415,-1.1153,-1.1781,-6.0411
16:56:23:481,-0.9117,1.6798,3.8764,41.0473,1.3706,-1.064,-1.1305,-5.8667
16:56:23:504,-0.8064,2.1942,3.4839,43.2269,1.1849,-0.9406,-1.1048,-5.6518
16:56:23:524,-1.0361,3.2088,4.8359,41.2848,0.6828,-0.5472,-0.9814,-5.1151
16:56:23:543,-1.1916,3.6682,6.0132,42.7239,0.4849,-0.4128,-0.8959,-4.8035
16:56:23:563,-1.7683,4.142,7.389,41.6433,0.3407,-0.3896,-0.8458,-4.4669
16:56:23:580,-2.0722,4.4483,8.0614,42.0755,0.3419,-0.4397,-0.7615,-4.1087
16:56:23:603,-2.0818,4.5607,7.8532,41.2303,0.4971,-0.436,-0.6296,-3.7341
16:56:23:620,-1.6439,4.5894,7.1115,41.108,0.6461,-0.3761,-0.4842,-3.3483
16:56:23:643,-1.2945,4.5081,6.6473,38.4545,0.6449,-0.2833,-0.3779,-2.9557
16:56:23:662,-1.5362,4.3741,6.9512,41.2072,0.4787,-0.1257,-0.3388,-2.5584
16:56:23:682,-2.144,4.3645,8.0471,41.4568,0.221,0.0588,-0.3376,-2.1569
16:56:23:705,-2.7517,4.2568,8.7793,40.7979,-0.0258,0.1162,-0.3266,-1.752
16:56:23:722,-3.3045,4.264,9.1071,40.3118,-0.2103,0.0734,-0.2985,-1.3452
16:56:23:742,-3.1346,4.4243,9.6191,39.827,-0.3642,0.0197,-0.2362,-0.9407
16:56:23:760,-2.924,4.0606,9.6144,41.0988,-0.4363,-0.0561,-0.1837,-0.5408
16:56:23:779,-3.271,3.9769,9.4397,38.5603,-0.3826,0.0234,-0.191,-0.1443
16:56:23:800,-4.7234,4.3717,9.3607,39.6462,-0.2934,0.286,-0.2337,0.2522
16:56:23:820,-6.1519,4.5081,9.6168,39.6543,-0.3251,0.4558,-0.1433,0.6461
16:56:23:845,-6.0395,3.8022,10.3394,41.0444,-0.5426,0.3471,0.1621,1.0248
16:56:23:861,-4.5177,2.9791,10.7773,38.91,-0.7417,0.0649,0.4797,1.3739
16:56:23:883,-3.685,2.4072,11.086,39.5566,-0.7381,-0.0341,0.6019,1.6899
16:56:23:902,-3.7041,2.2827,10.8108,39.687,-0.5267,0.0881,0.5604,1.9764
16:56:23:923,-3.7998,2.6297,9.5474,39.1864,-0.2433,0.1626,0.4736,2.2401
16:56:23:944,-3.807,3.0796,7.6187,38.0715,-0.0478,0.1247,0.4138,2.4852
16:56:23:960,-3.2327,3.4337,6.0251,41.6491,-0.0099,0.0966,0.4357,2.7108
16:56:23:982,-1.8305,3.7184,4.5823,38.7702,-0.2518,0.2017,0.5482,3.0921
16:56:24:003,-1.5673,3.7902,4.5153,40.298,-0.4009,0.3532,0.5836,3.2437
16:56:24:024,-1.4692,3.8716,4.9555,40.2749,-0.5499,0.5377,0.6361,3.3674
16:56:24:040,-1.4094,3.7448,5.8074,38.5959,-0.6868,0.6672,0.7119,3.4607
16:56:24:064,-1.2323,3.7065,6.5157,38.7682,-0.7992,0.6794,0.784,3.4607
16:56:24:080,-1.0433,3.6969,7.1737,39.9383,-0.8749,0.6391,0.8438,3.4607
16:56:24:103,-0.7131,3.6108,7.7695,38.0728,-0.9164,0.6122,0.8939,3.4607
16:56:24:121,-0.4283,3.4576,8.3797,37.7747,-0.9531,0.5621,0.9183,3.4607
16:56:24:140,-0.3015,3.3954,9.3129,39.3021,-1.0007,0.4803,0.9012,3.4607
16:56:24:159,-0.0502,3.271,10.4064,38.8291,-1.0264,0.3789,0.8463,3.3406
16:56:24:180,0.3063,3.2566,11.5573,38.2032,-0.9335,0.2396,0.751,3.1918
16:56:24:202,0.6054,3.4169,11.3348,40.5486,-0.6526,0.0307,0.6019,3.0226
16:56:24:222,0.5647,3.9003,9.88,38.2938,-0.2689,-0.122,0.4125,2.8423
16:56:24:239,0.615,4.4004,8.9563,37.4299,-0.0185,-0.1037,0.2659,2.6576
16:56:24:262,0.457,4.666,9.0066,37.6473,-0.0063,-0.0292,0.1645,2.4728
16:56:24:281,-0.1029,4.6277,9.8513,37.9771,-0.1639,0.0112,0.0937,2.2899
16:56:24:303,-1.06,4.532,11.5597,37.6473,-0.3667,0.126,0.057,2.1097
16:56:24:322,-1.4812,4.2162,14.5029,37.5916,-0.5536,0.2372,0.0802,1.93
16:56:24:343,-1.0433,3.7352,16.3358,37.9688,-0.5548,0.0282,0.112,1.7495
16:56:24:362,-0.055,3.4505,15.0628,36.6124,-0.2298,-0.4238,0.0485,1.5717
16:56:24:379,0.5838,3.4026,13.1821,37.1705,0.1611,-0.6132,-0.0945,1.403
16:56:24:403,0.6269,2.6225,13.651,37.3957,0.3211,-0.4385,-0.2508,1.2498
16:56:24:427,-0.122,2.0889,14.7948,34.6852,0.4397,-0.2259,-0.4756,1.0211
16:56:24:449,-1.005,2.053,12.2345,36.2169,1.0737,-0.2625,-0.8263,1.0211
16:56:24:459,-1.0385,2.0004,11.1051,36.8453,1.1715,-0.2576,-0.8666,1.0211
16:56:24:479,-1.1007,1.797,11.2487,37.0511,1.0359,-0.2857,-0.8739,1.0211
16:56:24:502,-1.34,1.6032,11.153,36.0082,0.9112,-0.4348,-0.9228,1.0211
16:56:24:534,-1.651,1.4883,10.2126,36.3461,0.9662,-0.6034,-0.9741,1.0211
16:56:24:538,-1.7994,1.4907,8.8774,35.8532,1.136,-0.717,-1.0022,1.1524
16:56:24:559,-1.8425,1.6271,7.2,36.9426,1.3107,-0.8001,-1.0071,1.3244
16:56:24:578,-1.7276,1.9262,5.415,36.0791,1.3987,-0.877,-1.001,1.5362
16:56:24:598,-1.5793,2.4,4.1348,36.6361,1.3425,-0.9088,-0.9924,1.7854
16:56:24:618,-1.4142,2.8881,3.4217,35.0624,1.1763,-0.8673,-0.9741,2.07
16:56:24:638,-1.2275,3.4193,3.0485,35.6817,0.9552,-0.783,-0.9436,2.3871
16:56:24:659,-1.2873,3.9936,3.192,34.3556,0.7255,-0.5924,-0.8959,2.733
16:56:24:680,-1.4309,4.3932,4.2305,35.2978,0.4775,-0.3138,-0.8189,3.1039
16:56:24:698,-1.7946,4.6708,5.5298,36.4615,0.2515,-0.1232,-0.7334,3.4948
16:56:24:720,-2.3306,4.9555,6.5874,35.6074,0.1122,-0.0512,-0.6552,3.9022
16:56:24:740,-2.6776,5.1924,7.8628,34.4576,0.0585,-0.0011,-0.5294,4.321
16:56:24:760,-2.5388,5.056,8.8271,35.4751,0.0854,0.0099,-0.3596,4.7446
16:56:24:782,-2.0722,4.678,8.7458,35.8398,0.2124,-0.0561,-0.2142,5.1678
16:56:24:799,-1.7683,4.5727,7.9729,34.2333,0.3712,-0.0866,-0.1543,5.5882
16:56:24:823,-2.0052,4.4961,7.4776,35.6959,0.4286,-0.006,-0.1543,6.007
16:56:24:844,-2.4167,4.5775,7.4345,34.4619,0.3419,0.1076,-0.1604,6.8396
16:56:24:862,-2.9575,4.2999,7.4991,33.8504,-0.126,0.1309,-0.1409,7.251
16:56:24:884,-3.1633,4.3597,8.3079,34.4277,-0.3777,0.2005,-0.1311,7.6552
16:56:24:905,-3.4768,4.4507,9.4708,36.1441,-0.5719,0.3031,-0.1336,8.053
16:56:24:922,-4.2018,4.2832,10.2317,32.1672,-0.6416,0.3679,-0.1458,8.4451
16:56:24:940,-5.6758,4.6875,10.6672,32.7957,-0.5658,0.5291,-0.1751,8.8335
16:56:24:958,-7.2048,4.9507,10.5164,35.0442,-0.4351,0.7124,-0.0908,9.2172
16:56:24:978,-7.0971,4.4219,10.7605,35.8943,-0.4779,0.6904,0.2354,9.5845
16:56:25:000,-5.2977,3.1346,10.6481,36.7009,-0.6465,0.3227,0.619,9.9182
16:56:25:021,-3.7113,2.4981,10.27,35.0663,-0.6562,0.0514,0.7974,10.2116
16:56:25:040,-3.6227,2.4622,9.7938,35.9209,-0.4388,0.1956,0.7485,10.4696
16:56:25:060,-4.5416,2.7135,8.9898,35.9806,-0.148,0.5181,0.641,10.7011
16:56:25:083,-4.8909,3.0915,8.016,35.5284,-0.0197,0.6281,0.6202,10.9084
16:56:25:104,-4.386,3.2925,6.9176,37.4758,-0.0368,0.5426,0.7009,11.0884
16:56:25:124,-3.7137,3.3978,5.4293,36.3505,-0.0991,0.4106,0.8181,11.2371
16:56:25:141,-2.7541,3.4289,4.1611,36.4456,-0.2567,0.3092,0.944,11.348
16:56:25:158,-1.943,3.3787,4.0271,36.7782,-0.5255,0.3642,1.0381,11.348
16:56:25:326,-1.541,3.3045,4.6421,36.566,-0.7784,0.5609,1.0796,11.348
16:56:25:326,-1.6534,3.1801,5.8552,37.2196,-0.9397,0.7881,1.0918,11.348
16:56:25:327,-1.9238,3.2279,6.8243,35.89,-1.0142,0.8822,1.0906,11.348
16:56:25:328,-1.8616,3.2877,7.3603,39.2125,-1.0276,0.8187,1.1163,11.2381
16:56:25:329,-1.5649,3.259,7.5613,36.4417,-1.0178,0.7185,1.1761,11.0843
16:56:25:329,-1.2251,3.2495,7.8269,37.8102,-1.0423,0.6318,1.203,10.886
16:56:25:329,-0.9954,3.2662,8.4514,39.533,-1.1009,0.5585,1.1896,10.6444
16:56:25:330,-0.6461,3.2495,9.0377,37.4759,-1.118,0.4986,1.148,10.362
16:56:25:340,-0.2249,3.5725,10.3825,38.5418,-0.9409,0.4742,0.9477,10.0436
16:56:25:357,-0.2106,3.9171,10.6122,38.0512,-0.7491,0.3996,0.7962,9.6934
16:56:25:379,-0.2153,4.3837,9.7675,38.5333,-0.4852,0.2726,0.6459,8.9331
16:56:25:398,-0.4259,4.812,9.6096,39.0096,-0.319,0.253,0.5286,8.5372
16:56:25:420,-0.682,5.0345,10.416,40.562,-0.3019,0.2848,0.4565,8.135
16:56:25:440,-0.95,4.9843,11.2726,38.908,-0.3239,0.2714,0.4199,7.7289
16:56:25:460,-1.5218,4.8981,12.6413,39.8668,-0.3471,0.3031,0.4028,7.3189
16:56:25:482,-2.0267,4.6732,14.6489,38.511,-0.385,0.3092,0.4101,6.9048
16:56:25:501,-1.6199,4.4028,15.6802,39.0096,-0.3178,0.0331,0.4309,6.4858
16:56:25:519,-0.5121,4.3645,13.7085,40.5361,-0.0258,-0.4763,0.4028,6.0651
16:56:25:540,0.2728,4.5129,11.2822,39.5123,0.3004,-0.7011,0.3124,5.6483
16:56:25:560,0.5815,4.209,10.7031,39.6963,0.3822,-0.5643,0.2171,5.2387
16:56:25:581,0.7729,3.2949,11.677,38.0179,0.2417,-0.4385,0.1157,4.8386
16:56:25:601,1.0887,2.2804,13.1653,39.7011,0.1269,-0.4079,-0.0248,4.4503
16:56:25:621,1.2443,1.6367,13.8712,39.7476,0.2576,-0.3847,-0.2484,4.0813
16:56:25:641,1.0026,1.474,13.5195,38.3163,0.5887,-0.3652,-0.5172,3.7429
16:56:25:660,0.335,1.4907,12.7083,39.6106,0.9027,-0.3432,-0.7774,3.4456
16:56:25:684,-0.7489,1.5936,12.2776,40.1512,1.0603,-0.3578,-0.9827,3.1975
16:56:25:703,-1.8736,1.7635,11.7583,39.2142,1.1299,-0.4604,-1.1122,3.003
16:56:25:720,-2.5651,1.8281,10.7605,40.1635,1.246,-0.5863,-1.139,2.8627
16:56:25:740,-2.8977,1.8808,9.1382,41.0243,1.3963,-0.7085,-1.0926,2.8627
16:56:25:760,-2.8546,2.0219,7.5422,39.3223,1.4757,-0.827,-1.045,2.8627
16:56:25:784,-2.6321,2.1846,5.9892,39.0982,1.428,-0.987,-0.9973,2.8627
16:56:25:801,-1.6534,2.7446,3.1681,39.1393,1.1715,-1.2032,-0.9008,2.8627
16:56:25:822,-1.2921,3.2279,2.6728,39.1212,0.9845,-1.0188,-0.8703,3.0856
16:56:25:840,-1.1821,3.7854,3.1322,38.1136,0.7365,-0.7146,-0.8409,3.2472
16:56:25:857,-1.3065,4.2927,4.008,37.8257,0.4677,-0.5069,-0.7994,3.4384
16:56:25:879,-1.4453,4.867,4.8479,38.983,0.2271,-0.4238,-0.7615,3.6549
16:56:25:898,-1.919,5.3264,5.9653,38.5731,0.0438,-0.3419,-0.709,3.8941
16:56:25:919,-2.321,5.5322,7.3938,37.6397,-0.0637,-0.2259,-0.6149,4.151
16:56:25:939,-2.4167,5.4987,8.6142,40.8327,-0.0441,-0.1514,-0.4805,4.4198
16:56:25:958,-2.2134,5.3216,8.9204,39.9738,0.0939,-0.1868,-0.3498,4.696
16:56:25:982,-1.9789,5.2618,8.1643,39.0452,0.2796,-0.2527,-0.2667,4.9771
16:56:26:007,-2.053,5.2235,7.5613,39.0665,0.3773,-0.2271,-0.2264,5.2616
16:56:26:020,-2.3952,5.0321,7.5494,38.5468,0.3211,-0.1293,-0.1946,5.5493
16:56:26:038,-2.5819,4.9268,7.5494,37.6406,0.1806,-0.0609,-0.169,5.8382
16:56:26:058,-2.3497,4.5799,7.3962,38.0456,-0.0124,-0.0243,-0.1311,6.1258
16:56:26:080,-2.3689,4.4459,8.1093,40.0659,-0.2396,0.1003,-0.1372,6.4112
16:56:26:101,-3.1107,4.477,9.5043,39.3866,-0.4485,0.253,-0.2203,6.6968
16:56:26:122,-4.1372,4.185,10.3705,38.7905,-0.528,0.3068,-0.2838,6.9851
16:56:26:140,-5.3192,4.386,10.4973,37.9604,-0.4375,0.3728,-0.3046,7.2769
16:56:26:160,-6.5827,4.6875,9.7555,38.5583,-0.2763,0.5218,-0.2337,7.5728
16:56:26:180,-6.5491,4.2832,9.9278,38.983,-0.3325,0.5841,0.0448,7.8618
16:56:26:204,-5.3408,3.1466,10.4351,37.6469,-0.5658,0.3544,0.3905,8.1282
16:56:26:219,-4.2664,2.6991,10.8778,37.1076,-0.633,0.1699,0.5604,8.3647
16:56:26:239,-4.5942,2.5484,10.8419,38.5885,-0.4094,0.3056,0.5591,8.5745
16:56:26:260,-5.726,3.0269,8.4012,38.4553,0.1758,0.6977,0.5848,8.7637
16:56:26:279,-4.9986,3.0676,6.7884,38.8203,0.1941,0.6696,0.7424,9.0733
16:56:26:302,-4.0654,3.1131,4.9747,38.8203,0.0438,0.5096,0.8829,9.183
16:56:26:318,-3.058,3.1154,3.9242,37.941,-0.2714,0.3581,0.9831,9.183
16:56:26:337,-2.2277,3.082,3.7615,37.5787,-0.6355,0.3495,1.0564,9.183
16:56:26:361,-1.7803,3.0604,4.2927,37.941,-0.9164,0.5108,1.0906,9.183
16:56:26:378,-1.6606,2.9815,5.3216,37.9543,-1.0753,0.7368,1.1028,9.183
16:56:26:402,-1.5888,3.0126,6.0155,37.4746,-1.129,0.8663,1.1163,9.0727
16:56:26:420,-1.4429,3.1824,6.4941,37.5223,-1.1449,0.8785,1.137,8.917
16:56:26:438,-0.9691,3.1322,6.8243,38.4802,-1.1938,0.8114,1.1749,8.7154
16:56:26:457,-0.5168,3.0461,7.3699,38.4802,-1.2598,0.7295,1.1957,8.4677
16:56:26:478,-0.1029,3.0652,8.2481,38.4803,-1.3025,0.6916,1.1651,8.1761
16:56:26:499,0.0311,3.1226,9.32,38.4802,-1.2732,0.7124,1.0784,7.8458
16:56:26:517,-0.1795,3.3571,10.3155,37.4335,-1.1486,0.7454,0.9501,7.4835
16:56:26:538,-0.4522,3.7184,11.0548,36.4039,-0.9445,0.7197,0.8084,7.0947
16:56:26:556,-0.6317,4.1587,10.9304,36.4039,-0.7026,0.5756,0.6948,6.686
16:56:26:576,-0.5958,4.4985,10.2772,36.4039,-0.4888,0.3972,0.619,6.2628
16:56:26:595,-0.4403,4.8503,10.2173,38.6907,-0.3728,0.308,0.5701,5.8284
16:56:26:616,-0.4642,4.8981,10.7821,39.1542,-0.3386,0.2848,0.5262,5.3856
16:56:26:636,-0.8088,4.8503,11.2295,40.496,-0.341,0.2628,0.4822,4.9368
16:56:26:659,-1.4979,4.6828,12.3685,40.496,-0.3936,0.2995,0.4431,4.4828
16:56:26:680,-1.7755,4.4507,14.5771,37.7837,-0.4986,0.2982,0.4431,4.0229
16:56:26:703,-0.9834,4.075,15.5414,37.9292,-0.462,-0.0243,0.4492,3.0907
16:56:26:721,1.1868,4.4315,10.5835,38.2092,0.2393,-0.7695,0.2305,2.6301
16:56:26:737,1.8018,4.398,9.7555,39.4876,0.3273,-0.6351,0.0961,2.1811
16:56:26:756,2.0889,3.4768,10.8323,37.2657,0.1464,-0.4873,-0.0419,1.7456
16:56:26:777,2.1057,2.5436,12.8207,37.2906,-0.0625,-0.3932,-0.235,1.328
16:56:26:799,1.5458,1.5553,14.9623,37.5769,-0.0405,-0.232,-0.4842,0.9362
16:56:26:819,0.9763,0.8471,16.0558,36.8411,0.2381,-0.1672,-0.7334,0.58
16:56:26:841,0.2465,0.5527,15.5103,38.7262,0.684,-0.2491,-0.9765,0.2701
16:56:26:859,-0.6197,0.5312,13.6989,37.2906,1.1165,-0.4043,-1.1867,0.0153
16:56:26:882,-1.3735,0.481,11.9115,38.0764,1.3352,-0.5985,-1.3272,-0.1792
16:56:26:899,-2.0411,0.5527,10.7007,36.9452,1.3559,-0.7915,-1.4213,-0.3108
16:56:26:919,-2.3904,0.6221,9.4612,36.9452,1.3462,-0.9821,-1.4787,-0.3108
16:56:26:938,-2.3354,0.7083,8.0734,36.318,1.3877,-1.1434,-1.4872,-0.3108
16:56:26:962,-2.2851,0.8447,6.4487,36.318,1.4647,-1.2607,-1.4897,-0.3108
16:56:26:980,-2.3067,1.1486,4.8861,36.318,1.4977,-1.3254,-1.4933,-0.1937
16:56:26:999,-2.2373,1.7492,3.6395,36.318,1.45,-1.2912,-1.4823,-0.0187
16:56:27:018,-2.1966,2.4909,2.8403,36.318,1.301,-1.1666,-1.4359,0.2097
16:56:27:039,-2.1751,3.204,2.5292,36.318,1.0468,-0.9834,-1.337,0.4854
16:56:27:058,-2.2014,3.9027,3.2351,36.318,0.6864,-0.7524,-1.1977,0.7997
16:56:27:081,-2.2086,4.2496,4.8646,36.318,0.2711,-0.5472,-1.0608,1.1445
16:56:27:100,-2.723,4.6181,6.8148,36.318,-0.0441,-0.436,-0.968,1.5139
16:56:27:118,-3.393,4.8957,8.4467,36.318,-0.1419,-0.3737,-0.8764,1.9034
16:56:27:142,-3.5988,5.1087,9.0568,36.318,-0.0075,-0.3309,-0.7371,2.7214
16:56:27:163,-2.8833,5.1326,7.6666,34.677,0.3505,-0.3957,-0.4598,3.1435
16:56:27:185,-2.9647,5.3192,7.1593,34.5766,0.3456,-0.3468,-0.4084,3.5711
16:56:27:200,-3.4696,5.348,7.4871,35.1043,0.2161,-0.2051,-0.3657,4.0018
16:56:27:359,-3.9051,5.1709,8.1117,35.5779,0.0243,-0.0903,-0.2985,4.4321
16:56:27:360,-3.8285,4.867,8.0997,35.9061,-0.1419,-0.0524,-0.2142,4.8583
16:56:27:360,-3.6084,4.9388,8.595,37.3536,-0.2909,0.027,-0.1555,5.2773
16:56:27:361,-3.8596,4.8981,9.7268,36.3544,-0.4278,0.1467,-0.1555,5.6882
16:56:27:361,-4.6875,4.6205,10.5835,37.7277,-0.4339,0.2775,-0.1897,6.093
16:56:27:362,-6.0419,4.8072,10.6505,36.6747,-0.2751,0.4558,-0.202,6.4944
16:56:27:362,-7.3149,4.9101,10.4518,34.6989,-0.1248,0.6269,-0.0835,6.8897
16:56:27:363,-7.0469,4.2688,10.605,35.2217,-0.1516,0.5988,0.2501,7.2662
16:56:27:378,-5.3504,3.0628,10.4399,37.4608,-0.2641,0.3471,0.6373,7.6094
16:56:27:397,-4.0798,2.4622,9.8752,36.2997,-0.2347,0.2188,0.8414,7.9103
16:56:27:418,-4.142,2.321,9.0784,35.2724,-0.0686,0.4021,0.8695,8.1713
16:56:27:438,-5.0225,2.333,8.8415,35.7935,0.0047,0.7099,0.8719,8.394
16:56:27:459,-5.3121,2.5938,9.1956,32.5191,-0.1602,0.7356,0.922,8.5767
16:56:27:481,-4.7737,2.7781,8.6477,35.1633,-0.319,0.4839,1.0295,8.7151
16:56:27:500,-3.5127,2.6058,7.0373,36.7092,-0.352,0.1871,1.1712,8.7151
16:56:27:517,-2.0937,2.5723,5.5346,37.8568,-0.3349,0.0722,1.2677,8.7151
16:56:27:536,-1.2682,2.6608,4.4052,34.5329,-0.3349,0.1773,1.2726,8.7151
16:56:27:556,-0.7968,2.9216,4.0917,36.591,-0.4082,0.3837,1.2299,8.7151
16:56:27:579,-0.6963,3.1178,4.3454,36.9502,-0.5475,0.5719,1.203,8.6092
16:56:27:600,-0.8519,3.3236,4.9101,34.5907,-0.6868,0.7087,1.1871,8.2611
16:56:27:617,-0.6126,3.5653,6.3434,36.006,-0.8554,0.7698,1.2287,8.0204
16:56:27:639,-0.402,3.7041,6.6497,35.0949,-0.8688,0.7197,1.2445,7.7354
16:56:27:661,-0.2895,3.8189,6.9176,35.381,-0.8761,0.7002,1.2543,7.4066
16:56:27:685,-0.201,3.8979,7.5302,36.8733,-0.925,0.7197,1.2433,7.0362
16:56:27:700,-0.3876,3.9577,8.4514,36.4568,-1.0056,0.7283,1.2079,6.626
16:56:27:717,-0.737,4.0822,9.7675,34.9609,-1.0899,0.7038,1.1639,6.1782
16:56:27:738,-1.6391,4.4698,11.3085,35.2115,-1.1021,0.5951,1.1358,5.6955
16:56:27:762,-0.9165,4.5464,11.6435,35.7619,-0.9042,0.446,1.181,5.1784
16:56:27:777,0.9691,4.3262,10.6026,34.7694,-0.5658,0.3337,1.2592,4.6263
16:56:27:798,2.1081,4.4363,9.935,36.4996,-0.3654,0.3312,1.1529,4.045
16:56:27:818,1.6558,4.6229,10.7438,33.9946,-0.4326,0.4302,0.8328,3.4455
16:56:27:838,0.256,4.5727,12.9189,34.8417,-0.6513,0.5096,0.5054,2.8392
16:56:27:858,-0.9906,4.6181,15.9625,34.9122,-0.8053,0.4644,0.2977,2.2329
16:56:27:879,-0.2776,4.3741,16.9268,35.5297,-0.5939,0.1076,0.2293,1.6302
16:56:27:896,1.1055,4.2496,13.8114,35.7619,0.0487,-0.4323,0.1768,1.0365
16:56:27:916,2.5914,4.1731,10.5332,36.4161,0.6241,-0.6205,0.068,0.4586
16:56:27:936,3.6227,3.8979,9.3799,35.005,0.7585,-0.4653,-0.0859,-0.099
16:56:27:958,3.9434,2.7541,10.4351,33.1163,0.5264,-0.199,-0.3095,-0.6318
16:56:27:977,3.1226,2.0435,12.8662,35.4975,0.243,0.0869,-0.6564,-1.1298
16:56:27:997,0.9811,1.3304,16.1946,34.9122,0.111,0.3495,-1.0364,-1.5814
16:56:28:019,-0.804,0.7753,18.1615,34.8597,0.2674,0.2384,-1.2795,-1.9778
16:56:28:044,-1.2156,0.3374,16.8407,33.7016,0.7646,-0.1697,-1.3822,-2.3133
16:56:28:065,-1.2156,0.2082,13.8592,33.932,1.3046,-0.5484,-1.4542,-2.7823
16:56:28:080,-2.3809,0.4594,10.0834,34.1465,1.56,-1.0542,-1.7083,-2.9069
16:56:28:103,-2.7613,0.7681,8.3821,35.056,1.5807,-1.3132,-1.7658,-2.9069
16:56:28:118,-2.6943,0.9906,6.3697,34.4408,1.6064,-1.5307,-1.7291,-2.9069
16:56:28:136,-2.3785,1.2873,4.5799,32.8625,1.5759,-1.6235,-1.646,-2.9069
16:56:28:158,-2.053,1.7348,3.4409,32.8697,1.439,-1.5832,-1.5593,-2.7544
16:56:28:179,-2.01,2.3809,3.2447,32.9109,1.2106,-1.4158,-1.4848,-2.546
16:56:28:197,-2.0339,3.0485,3.3284,35.4374,0.976,-1.2057,-1.3944,-2.2876
16:56:28:217,-2.0985,3.6634,3.4744,34.9279,0.7451,-1.0053,-1.2673,-1.9871
16:56:28:241,-2.3234,4.3262,4.4363,34.6558,0.4763,-0.8062,-1.1342,-1.6514
16:56:28:259,-2.8427,4.9364,5.8385,34.3703,0.2222,-0.6584,-1.0144,-1.2875
16:56:28:277,-3.4122,5.3312,7.0851,33.04,0.0963,-0.6181,-0.8617,-0.901
16:56:28:299,-3.4792,5.5035,7.6451,32.7693,0.1122,-0.6119,-0.6613,-0.5005
16:56:28:318,-3.0676,5.3647,7.5757,32.8232,0.2088,-0.6083,-0.4646,-0.0934
16:56:28:340,-2.3689,5.19,6.7693,34.7777,0.3285,-0.5802,-0.3205,0.3142
16:56:28:360,-2.0602,5.1781,5.7619,34.3915,0.3773,-0.4641,-0.2667,0.72
16:56:28:379,-2.5053,5.1661,6.1974,34.8911,0.2466,-0.2137,-0.2704,1.1241
16:56:28:398,-3.4002,5.3288,7.4704,33.1869,-0.0185,0.0062,-0.2912,1.5267
16:56:28:416,-3.6203,5.147,8.2672,34.2552,-0.2677,0.0624,-0.2508,1.9263
16:56:28:436,-3.271,5.1398,8.7099,32.6817,-0.4339,0.0808,-0.1849,2.3188
16:56:28:459,-3.5318,5.1637,9.3679,31.8608,-0.5389,0.1919,-0.1788,2.704
16:56:28:479,-4.2664,4.9555,9.9254,33.3923,-0.5903,0.3642,-0.1971,3.0824
16:56:28:497,-5.6423,5.0991,10.0905,33.3905,-0.5927,0.5597,-0.1922,3.4545
16:56:28:519,-6.2022,4.0032,12.3111,34.0743,-0.8493,0.7051,0.305,4.1519
16:56:28:552,-4.721,2.7565,12.9811,34.7,-0.9213,0.3862,0.6166,4.45
16:56:28:558,-3.7783,2.254,12.7705,33.0524,-0.6697,0.2298,0.707,4.708
16:56:28:577,-3.9888,2.1607,11.2463,34.4696,-0.1834,0.3532,0.6654,4.9324
16:56:28:596,-4.8024,2.2181,9.7412,35.0225,0.1929,0.578,0.6508,5.1282
16:56:28:615,-4.8359,2.4766,8.4227,33.7251,0.2148,0.5389,0.7119,5.2942
16:56:28:636,-3.8213,2.3378,6.999,33.4815,0.0157,0.275,0.8646,5.4237
16:56:28:656,-2.3378,2.2971,5.8313,32.5119,-0.1956,0.0246,0.9892,5.4237
16:56:28:677,-1.4572,2.5316,4.922,33.2158,-0.3056,0.0295,0.9892,5.4237
16:56:28:697,-1.1701,2.8475,4.0798,33.9066,-0.3325,0.2567,0.9318,5.4237
16:56:28:718,-1.4381,3.1585,3.7424,35.296,-0.3984,0.5291,0.8878,5.4237
16:56:28:741,-1.7396,3.2853,4.0199,33.8542,-0.578,0.7283,0.8853,5.4237
16:56:28:759,-1.8855,3.5222,4.8168,34.9879,-0.7552,0.8419,0.9403,5.3203
16:56:28:779,-1.8879,3.5007,5.1805,35.7017,-0.8615,0.8871,1.0417,5.1755
16:56:28:797,-1.4788,3.5151,5.5274,33.7884,-0.9653,0.837,1.1566,4.9857
16:56:28:819,-1.1031,3.5246,6.0299,34.6058,-1.0765,0.8004,1.2189,4.7495
16:56:28:838,-1.0672,3.5342,7.1617,34.4941,-1.1718,0.8517,1.2225,4.4676
16:56:28:857,-1.1797,3.6802,8.2289,34.3449,-1.2097,0.881,1.1944,4.1418
16:56:28:878,-1.206,3.8883,9.3105,36.9047,-1.1864,0.9005,1.1615,3.7745
16:56:28:898,-1.0457,4.0463,10.4088,35.4433,-1.1144,0.8871,1.126,3.3693
16:56:28:920,-0.6437,4.1396,11.0213,34.8391,-0.9824,0.7539,1.0662,2.9295
16:56:28:937,-0.3733,4.4171,11.0285,34.9445,-0.7869,0.5804,0.966,2.461
16:56:28:956,0.0096,4.7617,10.861,35.7048,-0.5756,0.5291,0.8597,1.9695
16:56:28:981,-0.8375,4.8359,13.1701,35.8107,-0.4962,0.7112,0.6459,1.4605
16:56:28:997,-1.651,4.587,15.3906,33.6364,-0.5316,0.6916,0.5653,0.9398
16:56:29:018,-1.8114,4.3525,16.6205,34.0572,-0.4058,0.4143,0.5042,-0.1308
16:56:29:041,-1.1749,4.7426,14.4981,34.7587,-0.0368,-0.0927,0.4345,-0.6716
16:56:29:060,-0.256,4.9364,11.6267,35.6338,0.3187,-0.4103,0.3796,-1.209
16:56:29:078,0.414,4.6493,10.6816,35.5472,0.3456,-0.3468,0.3612,-1.7427
16:56:29:097,0.8207,3.4361,12.6245,35.8107,0.1061,-0.1147,0.3172,-2.2738
16:56:29:118,0.9571,2.1129,15.1226,33.8202,-0.0551,0.0026,0.1731,-2.7993
16:56:29:139,1.1151,0.8542,16.2879,34.7615,0.1489,-0.0829,-0.0871,-3.3094
16:56:29:161,1.06,0.5671,14.9097,35.7083,0.7011,-0.3065,-0.4439,-3.7885
16:56:29:177,0.1986,1.0409,12.6508,36.6765,1.2643,-0.4043,-0.8275,-4.2201
16:56:29:196,-0.8782,1.2921,11.3851,35.4619,1.483,-0.4275,-1.0755,-4.5947
16:56:29:216,-1.6439,1.4859,10.6433,36.0144,1.4366,-0.5814,-1.1965,-4.9089
16:56:29:239,-2.1129,1.5793,9.6311,34.6888,1.3767,-0.8135,-1.2331,-5.1636
16:56:29:405,-2.2923,1.6726,8.0566,35.3229,1.3755,-0.9919,-1.2099,-5.3608
16:56:29:407,-2.12,1.7755,6.6281,34.875,1.3474,-1.0713,-1.1586,-5.5039
16:56:29:408,-1.931,1.8209,5.592,37.0764,1.2191,-1.1275,-1.1048,-5.5955
16:56:29:410,-1.73,1.9789,4.8622,35.6846,1.0591,-1.1972,-1.067,-5.5955
16:56:29:411,-1.4453,2.1679,4.2162,34.7918,0.9406,-1.2032,-1.034,-5.5955
16:56:29:412,-1.194,2.5436,3.5486,35.0949,0.8538,-1.1189,-0.9985,-5.5955
16:56:29:414,-1.3041,3.0867,3.2758,34.5587,0.739,-0.9443,-0.9692,-5.5955
16:56:29:415,-1.596,3.7352,3.7735,34.8341,0.5569,-0.7072,-0.9093,-5.4818
16:56:29:417,-1.7252,4.1563,5.0369,35.2739,0.3126,-0.5044,-0.8116,-5.3408
16:56:29:439,-2.79,4.8957,7.6068,36.8022,-0.082,-0.3725,-0.6369,-4.9941
16:56:29:458,-2.9432,4.8718,8.7386,36.1827,-0.1211,-0.3358,-0.4927,-4.7991
16:56:29:476,-2.7254,4.6493,9.0281,36.4935,-0.0185,-0.2894,-0.3425,-4.5979
16:56:29:496,-2.3497,4.4411,8.9659,36.8374,0.1012,-0.2247,-0.2557,-4.3943
16:56:29:516,-2.5795,4.343,9.0449,36.0307,0.1538,-0.1355,-0.2606,-4.1874
16:56:29:540,-3.216,4.2209,9.2674,37.782,0.1403,-0.0231,-0.307,-3.9747
16:56:29:563,-3.716,4.343,9.1406,37.1301,0.0914,0.0368,-0.3437,-3.7555
16:56:29:578,-4.118,4.4626,8.4419,37.1061,0.0072,0.0002,-0.3693,-3.5292
16:56:29:596,-4.2066,4.7306,8.1093,37.4789,-0.1162,-0.0121,-0.3596,-3.2964
16:56:29:615,-3.9793,4.7761,7.8556,38.1746,-0.2103,0.0576,-0.2973,-3.0606
16:56:29:636,-4.4746,4.7067,8.1643,39.1487,-0.2347,0.2347,-0.2386,-2.8235
16:56:29:657,-5.4221,4.8646,8.5567,39.1209,-0.2103,0.4839,-0.1837,-2.5871
16:56:29:679,-6.4056,4.9914,8.9276,37.2651,-0.1969,0.7099,-0.0334,-2.3568
16:56:29:696,-7.0588,4.5057,9.3272,38.9493,-0.2604,0.826,0.2537,-2.1427
16:56:29:716,-6.6114,3.5821,9.6096,38.0293,-0.4644,0.7136,0.619,-1.9604
16:56:29:737,-5.4413,2.8163,10.4207,41.1922,-0.7686,0.4852,0.9183,-1.8233
16:56:29:757,-4.4961,1.9382,11.6243,37.9824,-0.9323,0.4363,1.0796,-1.8233
16:56:29:777,-3.4146,1.3089,11.6196,41.6642,-0.8248,0.407,1.1089,-1.8233
16:56:29:797,-2.5508,1.5553,10.1599,41.3996,-0.5597,0.2604,1.0014,-1.8233
16:56:29:818,-2.5364,2.2708,8.3198,40.0332,-0.3202,0.1284,0.8035,-1.8233
16:56:29:840,-2.2947,2.7517,6.7334,40.9977,-0.1908,0.0808,0.6911,-1.8233
16:56:29:861,-1.9382,3.2088,5.3336,41.1735,-0.1394,0.1174,0.6801,-1.9143
16:56:29:879,-1.4213,3.5581,4.5416,40.2872,-0.1981,0.2139,0.7131,-2.1745
16:56:29:897,-1.3424,3.9482,5.0536,39.602,-0.5328,0.396,0.8023,-2.3459
16:56:29:914,-1.2491,4.1683,5.2786,41.9689,-0.6403,0.407,0.8817,-2.5491
16:56:29:937,-1.0576,4.2401,5.7811,40.8093,-0.732,0.4424,0.9953,-2.788
16:56:29:955,-0.7872,4.1803,6.6736,41.538,-0.8285,0.4619,1.1016,-3.0659
16:56:29:976,-0.6437,4.1348,7.3172,42.6163,-0.8859,0.3972,1.1724,-3.385
16:56:29:996,-0.3805,4.1037,7.5948,41.7541,-0.8761,0.3214,1.2201,-3.7446
16:56:30:018,-0.012,3.9075,8.2193,41.6408,-0.8639,0.3056,1.2458,-4.1448
16:56:30:038,0.4522,3.8237,9.2818,44.03,-0.8602,0.2909,1.2054,-4.5831
16:56:30:056,0.8159,3.6969,9.9063,43.3055,-0.7613,0.1981,1.0833,-5.0535
16:56:30:080,1.1198,3.9697,9.7507,41.0373,-0.5414,0.0856,0.8866,-5.5464
16:56:30:098,1.2132,4.2616,9.0592,42.3725,-0.2983,0.0918,0.6752,-6.0529
16:56:30:116,0.5743,4.6325,8.9946,42.6378,-0.1956,0.2506,0.4822,-6.5652
16:56:30:140,-0.6341,4.8526,10.069,44.3084,-0.3361,0.4607,0.3515,-7.0782
16:56:30:158,-1.5864,4.587,13.3185,43.9858,-0.7014,0.6464,0.3282,-7.5933
16:56:30:180,-1.4812,3.7113,17.1853,44.6699,-1.0069,0.5243,0.371,-8.1149
16:56:30:195,-0.0311,3.1944,18.0084,44.8164,-0.826,-0.0353,0.338,-8.6408
16:56:30:215,0.8782,3.7113,14.7781,46.1934,-0.1822,-0.6461,0.0949,-9.1588
16:56:30:235,1.1868,4.063,11.8493,45.8022,0.4494,-0.7732,-0.1837,-9.6553
16:56:30:257,1.3735,4.3047,10.203,44.6055,0.7219,-0.5643,-0.3535,-10.1238
16:56:30:279,1.3065,3.7184,10.8012,44.954,0.6315,-0.3114,-0.461,-10.5626
16:56:30:297,0.7777,2.9623,13.1557,45.3524,0.4164,-0.0475,-0.566,-10.9705
16:56:30:319,0.0072,2.1248,15.8094,47.3479,0.3578,0.1699,-0.6797,-11.3446
16:56:30:340,-0.3398,1.2419,16.8885,46.1928,0.5215,0.0954,-0.764,-11.6824
16:56:30:358,-1.1916,0.9021,13.73,47.7952,1.2496,-0.4018,-1.0291,-12.2255
16:56:30:377,-2.065,0.9476,12.2656,47.5776,1.4134,-0.5557,-1.1439,-12.4199
16:56:30:397,-2.5651,0.9452,10.6026,46.6613,1.4915,-0.7842,-1.1855,-12.5602
16:56:30:415,-2.4574,0.9284,8.6692,48.648,1.5954,-1.0444,-1.1781,-12.5602
16:56:30:436,-2.2612,1.005,6.3314,46.5326,1.7078,-1.257,-1.1708,-12.5602
16:56:30:457,-2.1966,1.1294,4.331,47.592,1.742,-1.3523,-1.1781,-12.5602
16:56:30:476,-2.0411,1.5194,2.7302,46.514,1.6711,-1.3303,-1.1806,-12.5602
16:56:30:494,-2.0483,2.2349,1.4668,46.5108,1.4964,-1.2045,-1.1671,-12.4493
16:56:30:515,-2.1799,3.1968,1.1198,46.9342,1.1641,-1.0066,-1.1024,-12.2953
16:56:30:534,-2.1416,4.0869,1.9167,48.2047,0.7023,-0.7622,-0.9533,-12.1071
16:56:30:555,-1.9478,4.654,3.0796,49.6355,0.2625,-0.5472,-0.7432,-11.8954
16:56:30:584,-1.6343,5.2307,4.4219,48.524,-0.0942,-0.4079,-0.5612,-11.6693
16:56:30:594,-1.6487,5.6806,6.0084,49.5525,-0.3557,-0.3297,-0.4304,-11.436
16:56:30:614,-1.5673,5.8983,7.5135,48.7566,-0.4681,-0.3138,-0.3034,-11.2007
16:56:30:633,-1.1342,5.9725,8.138,51.7357,-0.4253,-0.3517,-0.1824,-10.9687
16:56:30:653,-0.5982,5.9079,8.3797,49.6455,-0.2873,-0.3493,-0.1213,-10.7423
16:56:30:674,-0.4379,5.9174,8.8415,49.8575,-0.1138,-0.2344,-0.1482,-10.5196
16:56:30:695,-0.7968,6.1137,8.7362,51.285,0.1122,-0.078,-0.213,-10.2968
16:56:30:715,-1.4979,6.1543,8.0566,51.1347,0.282,0.0466,-0.2496,-10.0722
16:56:30:737,-2.132,6.1663,7.9298,50.9612,0.2173,0.0881,-0.2423,-9.8456
16:56:30:761,-2.3737,5.9151,8.1141,52.2105,-0.0148,0.0808,-0.1922,-9.6194
16:56:30:776,-2.4479,5.592,9.2578,50.6386,-0.2641,0.1638,-0.1311,-9.3967
16:56:30:796,-2.8762,5.4197,10.6433,51.1116,-0.4143,0.297,-0.1287,-8.9594
16:56:30:815,-5.3168,5.0417,11.1266,51.9487,-0.2152,0.4277,-0.1751,-8.7387
16:56:30:835,-6.5037,5.0656,10.6744,53.5107,-0.0723,0.5218,-0.0786,-8.5204
16:56:30:855,-6.0849,4.3143,10.392,52.0773,-0.0673,0.4754,0.2171,-8.3157
16:56:30:881,-4.6636,2.9958,9.6503,51.0314,-0.1187,0.2567,0.5494,-8.1379
16:56:30:898,-3.7208,2.3833,9.1693,52.4437,-0.0991,0.2176,0.6886,-7.991
16:56:30:915,-4.0199,2.0674,8.9228,53.7021,0.0169,0.4717,0.6728,-7.8736
16:56:30:934,-4.9005,2.0435,8.126,52.7004,0.1611,0.749,0.6361,-7.7819
16:56:30:956,-5.0513,2.3737,6.9727,53.5605,0.1208,0.7564,0.6728,-7.7819
16:56:30:979,-4.1563,2.3186,5.616,53.3389,-0.1125,0.5414,0.8059,-7.7819
16:56:31:003,-2.6895,2.1966,4.5918,52.4944,-0.4229,0.3153,0.9477,-7.7819
16:56:31:015,-1.6415,2.3665,4.1252,55.652,-0.6587,0.3508,0.9855,-7.7819
16:56:31:037,-1.1892,2.5723,3.7998,54.7434,-0.7906,0.5988,0.9525,-7.7819
16:56:31:054,-1.151,2.7015,3.9673,54.0112,-0.9384,0.8651,0.9086,-7.9094
16:56:31:076,-1.2395,2.7541,4.7234,53.8988,-1.1657,1.0191,0.8731,-8.0742
16:56:31:096,-1.2251,2.8546,5.6351,55.5644,-1.3721,1.074,0.856,-8.2764
16:56:31:116,-1.4381,2.9216,6.8411,55.3424,-1.4955,1.0875,0.8621,-8.5156
16:56:31:139,-1.3783,2.9815,7.9968,53.3474,-1.52,1.0655,0.8988,-8.7931
16:56:31:156,-1.0217,3.0652,8.5783,55.6232,-1.4577,1.0032,0.9428,-9.1089
16:56:31:177,-0.8255,3.2136,8.93,55.7841,-1.3807,0.9616,0.9501,-9.4616
16:56:31:195,-0.8447,3.4863,10.0211,56.3316,-1.3502,0.9861,0.9183,-9.8491
16:56:31:215,-0.658,3.6227,11.5645,55.4902,-1.3025,0.9506,0.889,-10.2688
16:56:31:237,-0.1388,3.6562,12.457,57.0088,-1.1156,0.7808,0.8426,-10.7177
16:56:31:261,0.3135,4.4243,11.3444,56.593,-0.4473,0.3557,0.5494,-11.6697
16:56:31:281,-0.0861,4.9388,10.8036,56.9662,-0.1944,0.2848,0.3942,-12.1541
16:56:31:420,-0.3422,5.1852,10.7653,56.8416,-0.0955,0.253,0.327,-12.6379
16:56:31:421,-0.6939,4.9938,10.9998,55.0951,-0.1394,0.2249,0.3258,-13.1219
16:56:31:421,-1.4142,4.6708,12.4834,56.2493,-0.3031,0.2823,0.3429,-13.6081
16:56:31:422,-1.6534,4.2209,15.4409,59.0251,-0.5328,0.3129,0.3649,-14.1003
16:56:31:422,-0.6796,3.6969,17.0178,56.666,-0.5463,-0.0573,0.349,-14.5977
16:56:31:423,0.3996,3.6969,14.7254,56.8032,-0.1272,-0.6474,0.2024,-15.0928
16:56:31:424,1.0241,4.0391,11.9952,55.9153,0.4238,-0.7976,-0.0053,-15.5732
16:56:31:435,1.0241,3.5175,11.3779,57.85,0.6608,-0.5313,-0.1678,-16.0326
16:56:31:457,0.5073,2.8187,12.8638,57.4228,0.5826,-0.3065,-0.3681,-16.4659
16:56:31:476,-0.3111,2.1942,14.5484,58.0254,0.5068,-0.2637,-0.5954,-16.8664
16:56:31:495,-0.8303,1.6606,14.9193,57.9561,0.6522,-0.3395,-0.7762,-17.2276
16:56:31:516,-0.9476,1.3041,14.3306,57.8282,0.9222,-0.4507,-0.8849,-17.5449
16:56:31:540,-1.0648,0.9715,13.9095,57.3345,1.1165,-0.5496,-0.9704,-17.8155
16:56:31:558,-1.2395,0.4307,13.4118,57.5976,1.2093,-0.7256,-1.0779,-18.036
16:56:31:577,-1.5577,0.2847,12.2513,57.884,1.3388,-0.9919,-1.2294,-18.2006
16:56:31:598,-1.8592,0.2345,10.1216,57.5051,1.582,-1.2253,-1.3712,-18.3038
16:56:31:618,-2.0818,0.3972,7.7982,55.5791,1.8336,-1.3474,-1.4713,-18.3038
16:56:31:640,-2.278,0.6532,5.6686,57.9901,1.9644,-1.378,-1.5361,-18.3038
16:56:31:656,-2.3115,0.9811,4.1659,56.2595,1.9228,-1.3572,-1.5544,-18.2082
16:56:31:676,-2.3354,1.5242,3.3906,55.8885,1.7567,-1.2961,-1.5471,-18.048
16:56:31:695,-2.5508,2.3115,2.9073,57.3503,1.5624,-1.1984,-1.519,-17.8262
16:56:31:717,-2.8786,4.0415,2.479,56.676,1.0603,-0.8221,-1.2221,-17.5477
16:56:31:740,-2.7685,4.4171,3.6227,58.2551,0.651,-0.5961,-0.9497,-16.8644
16:56:31:761,-2.6608,4.4841,5.1374,55.5988,0.2601,-0.4812,-0.7163,-16.4874
16:56:31:779,-2.5819,4.6062,6.3793,57.493,0.0206,-0.4788,-0.5734,-16.099
16:56:31:798,-2.4479,4.7234,7.2239,57.4068,-0.0319,-0.4837,-0.4817,-15.7027
16:56:31:815,-2.2684,4.7498,7.3149,57.958,0.0695,-0.458,-0.4231,-15.3007
16:56:31:838,-2.0483,4.8335,7.0732,57.7562,0.2222,-0.3749,-0.3925,-14.8935
16:56:31:857,-2.0387,4.9962,7.0253,58.7706,0.282,-0.265,-0.4011,-14.4806
16:56:31:878,-2.7135,4.9484,7.2263,57.6131,0.2515,-0.1293,-0.4463,-14.0604
16:56:31:897,-3.5103,5.1829,7.5709,59.1763,0.1843,0.0417,-0.5025,-13.6296
16:56:31:919,-4.0247,5.3695,7.0349,57.1627,0.1147,0.1919,-0.5196,-13.1882
16:56:31:940,-4.1994,5.8792,6.944,57.7013,-0.1028,0.2555,-0.4769,-12.7393
16:56:31:958,-4.6158,6.1017,7.7504,57.5251,-0.4436,0.2909,-0.4121,-12.2878
16:56:31:974,-5.1924,5.7428,8.8941,58.214,-0.7271,0.3752,-0.3254,-11.8398
16:56:31:996,-6.4726,5.7906,9.7197,58.6476,-0.8554,0.578,-0.2472,-11.3985
16:56:32:016,-7.6259,5.7069,11.2343,58.3304,-0.9531,0.8492,-0.0945,-10.9706
16:56:32:037,-7.1115,4.8024,12.9165,59.1603,-1.0667,0.7393,0.2537,-10.571
16:56:32:063,-5.1685,3.4217,12.4546,58.4103,-1.0069,0.1932,0.6056,-10.213
16:56:32:076,-3.9147,3.125,11.7464,58.0367,-0.7124,-0.0719,0.6886,-9.8961
16:56:32:095,-4.9771,3.5605,11.1003,58.2793,-0.2103,0.2372,0.553,-9.6079
16:56:32:116,-6.3362,3.6299,9.3344,59.6736,0.3419,0.6562,0.5176,-9.3397
16:56:32:137,-5.927,3.6754,7.2287,55.1697,0.5191,0.6709,0.685,-9.0959
16:56:32:158,-4.8503,3.5175,5.348,59.1145,0.3382,0.4314,0.889,-8.8859
16:56:32:178,-2.4024,2.9647,2.881,56.5897,-0.3618,0.104,1.1847,-8.718
16:56:32:198,-1.4668,2.7159,2.9049,58.7728,-0.6562,0.3508,1.269,-8.5997
16:56:32:218,-0.7394,2.3641,3.5988,57.5542,-0.892,0.6819,1.2983,-8.5997
16:56:32:242,-0.457,2.2445,4.5344,59.3614,-1.1034,0.8712,1.2531,-8.5997
16:56:32:257,-0.7849,2.4503,5.3862,56.9695,-1.2671,0.9005,1.1321,-8.699
16:56:32:278,-1.0816,2.6536,6.2429,59.8333,-1.3624,0.8981,1.0405,-8.8447
16:56:32:297,-1.1773,2.8092,7.1593,58.9673,-1.4284,0.9054,1.0136,-9.0347
16:56:32:318,-1.3041,3.015,8.528,59.0091,-1.4577,0.9201,1.0063,-9.2681
16:56:32:337,-1.2849,3.1346,9.6455,57.9566,-1.41,0.8566,1.0173,-9.5432
16:56:32:355,-0.615,3.137,10.0379,58.305,-1.2842,0.6904,1.0381,-9.8594
16:56:32:376,-0.1555,3.1944,10.2461,57.7806,-1.1388,0.5609,0.9819,-10.2129
16:56:32:395,-0.0263,3.4696,10.9496,58.0964,-0.9983,0.501,0.834,-10.5964
16:56:32:414,-0.1436,3.8812,11.3085,59.1418,-0.8041,0.4155,0.6642,-11.0017
16:56:32:435,-0.2536,4.2808,10.5117,58.916,-0.5316,0.2726,0.5164,-11.4198
16:56:32:457,-0.0957,4.7186,9.8943,58.8751,-0.3166,0.1883,0.4187,-11.844
16:56:32:478,-0.0694,5.0656,9.8225,58.1107,-0.2482,0.1638,0.3441,-12.2711
16:56:32:495,-0.3493,5.1733,10.2389,59.804,-0.3056,0.1699,0.2928,-12.6996
16:56:32:514,-1.1964,5.0369,11.7153,60.5324,-0.4607,0.2665,0.2659,-13.1297
16:56:32:536,-1.5888,4.6349,14.7924,59.6372,-0.6758,0.352,0.2574,-13.5633
16:56:32:559,-0.95,4.2233,16.8838,59.747,-0.6709,0.0966,0.2513,-14.0015
16:56:32:577,0.079,4.0104,15.137,59.4875,-0.2457,-0.4311,0.1535,-14.4372
16:56:32:595,0.9212,4.276,12.2656,59.1747,0.2943,-0.6779,-0.0016,-14.8602
16:56:32:620,1.3878,3.8572,11.464,59.0132,0.4946,-0.5215,-0.1397,-15.6479
16:56:32:636,0.1316,2.2469,15.5294,60.2244,0.2686,-0.2809,-0.5697,-16.0019
16:56:32:655,-0.591,1.5984,15.8692,58.8665,0.5227,-0.4128,-0.7908,-16.3182
16:56:32:675,-0.9858,1.5673,13.8473,57.554,1.0163,-0.5582,-0.9387,-16.5891
16:56:32:693,-1.3352,1.4692,12.1627,59.1972,1.3303,-0.5728,-1.0242,-16.809
16:56:32:713,-2.1033,1.4429,11.6674,58.5995,1.312,-0.6132,-1.0963,-16.9763
16:56:32:738,-2.7087,1.2921,11.4832,57.7303,1.1593,-0.794,-1.1476,-17.0917
16:56:32:753,-2.802,1.1797,10.4566,57.927,1.125,-1.042,-1.1537,-17.0917
16:56:32:774,-2.7302,1.1605,9.1047,57.0796,1.2326,-1.202,-1.15,-17.0917
16:56:32:795,-2.5029,1.1868,7.4225,57.6514,1.3743,-1.3132,-1.1525,-17.0917
16:56:32:815,-2.1775,1.2897,5.5872,57.2188,1.4671,-1.4024,-1.1561,-17.0917
16:56:32:839,-1.8425,1.6199,4.2712,57.6573,1.4415,-1.4,-1.1696,-16.9543
16:56:32:856,-1.7755,2.1344,3.6275,58.2351,1.2997,-1.3108,-1.1781,-16.7694
16:56:32:878,-1.6367,2.7709,3.5414,57.731,1.0896,-1.1703,-1.1622,-16.5404
16:56:32:896,-1.5625,3.4074,4.0989,57.3152,0.8721,-0.9834,-1.1244,-16.2709
16:56:32:914,-1.7755,4.0367,4.6253,57.8751,0.7096,-0.7915,-1.0816,-15.9639
16:56:32:934,-2.1918,4.5607,5.2738,56.3532,0.5802,-0.6022,-1.0205,-15.6222
16:56:32:954,-2.7015,4.9364,6.2812,57.0167,0.4286,-0.4653,-0.9228,-15.2505
16:56:32:976,-3.0221,5.1302,7.322,56.0984,0.2967,-0.3994,-0.7798,-14.8556
16:56:32:996,-2.936,5.1494,7.9609,55.4157,0.2723,-0.3798,-0.6027,-14.4451
16:56:33:019,-2.5005,5.0847,8.0136,56.7171,0.3297,-0.3822,-0.4353,-14.0263
16:56:33:038,-2.0937,5.0584,7.4465,57.8879,0.4189,-0.3774,-0.3364,-13.6031
16:56:33:056,-2.3354,5.0249,6.6616,57.3249,0.4604,-0.2906,-0.2985,-13.1763
16:56:33:078,-3.058,4.9149,6.5803,57.153,0.1037,-0.1013,-0.2362,-12.7467
16:56:33:095,-2.6967,4.6373,6.8028,57.2202,-0.203,-0.089,-0.1763,-11.8915
16:56:33:113,-2.8786,4.9364,8.2122,56.8876,-0.4754,0.0795,-0.1959,-11.4701
16:56:33:138,-3.3978,4.9292,9.7771,56.8876,-0.6159,0.2494,-0.2545,-11.0514
16:56:33:155,-4.6947,4.7928,10.6457,56.0067,-0.5707,0.3324,-0.3217,-10.6311
16:56:33:176,-6.274,5.2618,10.2748,57.6931,-0.3557,0.4057,-0.3535,-10.2061
16:56:33:194,-7.0588,5.3551,9.4899,56.8079,-0.1675,0.5279,-0.1739,-9.7816
16:56:33:214,-6.0682,4.5081,8.9587,56.8078,-0.2078,0.4937,0.2183,-9.3735
16:56:33:235,-4.6229,3.5151,9.0927,57.5966,-0.4094,0.3495,0.5494,-8.9969
16:56:33:256,-3.7902,3.003,9.6431,54.7327,-0.5218,0.3459,0.6789,-8.6581
16:56:33:277,-4.3645,2.8499,9.9972,56.0485,-0.4216,0.5756,0.663,-8.3536
16:56:33:301,-5.1326,2.857,10.0235,56.9317,-0.2885,0.7649,0.6373,-8.0801
16:56:33:315,-5.0201,3.0054,9.1382,56.5393,-0.2225,0.6892,0.6874,-7.8374
16:56:33:496,-4.2377,3.0389,7.5637,56.4966,-0.1736,0.5059,0.7962,-7.6287
16:56:33:497,-3.1322,3.0006,5.8863,57.8766,-0.1859,0.3495,0.8927,-7.4575
16:56:33:498,-2.2708,3.1729,4.5224,55.682,-0.2579,0.2946,0.9318,-7.3257
16:56:33:498,-1.7348,3.2638,3.8524,59.582,-0.3972,0.3691,0.9379,-7.2332
16:56:33:499,-1.6606,3.46,3.5749,55.5764,-0.5573,0.4839,0.9245,-7.2332
16:56:33:499,-1.9071,3.6682,3.5701,54.8312,-0.6929,0.6183,0.9477,-7.2332
16:56:33:500,-1.9789,3.7065,3.6156,56.8387,-0.8273,0.7674,1.0503,-7.2332
16:56:33:500,-1.7157,3.5198,4.5631,54.519,-1.0423,0.892,1.1981,-7.2332
16:56:33:501,-1.5984,3.3667,5.604,55.5845,-1.2989,0.9152,1.3081,-7.3645
16:56:33:514,-1.2036,3.2662,6.5563,54.8603,-1.5004,0.8883,1.3948,-7.5529
16:56:33:538,-0.3326,2.8379,9.722,55.6975,-1.7484,0.8773,1.44,-7.8013
16:56:33:559,-0.2345,2.8977,11.6004,55.0137,-1.7008,0.8712,1.3166,-8.4638
16:56:33:575,-0.1723,3.1585,13.3878,56.4082,-1.5029,0.8346,1.1297,-8.8627
16:56:33:595,-0.1172,3.4385,13.2682,54.4725,-1.0692,0.666,0.9257,-9.2921
16:56:33:617,0.0742,4.1228,11.4521,53.3884,-0.5597,0.4803,0.7155,-9.739
16:56:33:640,0.0933,4.5464,11.0333,54.5203,-0.297,0.4558,0.5433,-10.1949
16:56:33:656,-0.3015,4.8407,11.9306,54.0885,-0.2653,0.4424,0.3857,-10.6542
16:56:33:679,-0.6772,4.7115,12.9571,55.1417,-0.2689,0.3581,0.2745,-11.1129
16:56:33:694,-0.9212,4.7641,14.1057,55.2316,-0.2103,0.3043,0.1951,-11.5679
16:56:33:714,-0.9141,4.6158,15.2088,54.0885,-0.1077,0.2188,0.123,-12.0166
16:56:33:736,-0.6556,4.7067,14.8307,54.4122,0.0951,-0.0475,0.0411,-12.4547
16:56:33:758,-0.1795,4.9196,12.6724,54.1971,0.392,-0.3725,-0.0383,-12.8771
16:56:33:775,0.5527,4.9388,10.9807,52.6529,0.5032,-0.4934,-0.0407,-13.2836
16:56:33:794,1.4596,3.9601,11.5286,54.3207,0.3175,-0.4079,-0.0248,-13.6781
16:56:33:816,1.6487,2.8738,13.5888,54.2977,0.0707,-0.3016,-0.1323,-14.0605
16:56:33:834,1.3495,2.0004,14.9145,53.5689,0.1147,-0.2796,-0.3608,-14.4234
16:56:33:856,1.0911,1.4405,14.6465,56.0511,0.436,-0.3627,-0.5844,-14.7569
16:56:33:874,0.1316,1.4859,13.4525,55.8563,0.7817,-0.436,-0.8141,-15.051
16:56:33:896,-0.9356,1.4477,12.9715,52.2575,0.9247,-0.4604,-0.9814,-15.2987
16:56:33:916,-1.2443,1.206,12.7131,54.793,0.9186,-0.6217,-1.0388,-15.4988
16:56:33:937,-1.6056,0.9643,12.0455,53.924,0.9674,-0.9051,-1.1048,-15.65
16:56:33:957,-2.1248,0.9978,10.2341,54.0193,1.1678,-1.1642,-1.2135,-15.7475
16:56:33:980,-2.3521,1.1222,8.1715,52.994,1.4219,-1.3132,-1.2624,-15.7475
16:56:33:995,-1.9478,1.6128,4.6253,52.2753,1.5868,-1.3682,-1.1977,-15.7475
16:56:34:014,-1.6128,1.9119,3.6084,54.0091,1.4525,-1.3327,-1.1488,-15.6328
16:56:34:039,-1.3208,2.4479,3.1729,52.8647,1.2423,-1.2607,-1.1085,-15.474
16:56:34:054,-1.1222,3.0317,3.1896,53.5032,1.0163,-1.0823,-1.0767,-15.2746
16:56:34:075,-1.0289,3.6275,3.7878,53.3511,0.7964,-0.8746,-1.0462,-15.0377
16:56:34:098,-1.4094,4.3167,4.5248,52.1774,0.6144,-0.6962,-1.0401,-14.7643
16:56:34:113,-2.1057,5.0345,5.1876,53.8287,0.4763,-0.535,-1.0205,-14.4557
16:56:34:134,-3.0652,5.6231,6.2836,51.8045,0.3309,-0.3725,-0.9362,-14.1155
16:56:34:154,-3.7854,5.8983,7.8556,53.0364,0.2075,-0.2576,-0.7578,-13.7512
16:56:34:175,-3.4265,5.5849,8.4395,55.4319,0.1953,-0.2747,-0.4952,-13.3743
16:56:34:193,-2.5771,5.3982,7.7001,53.0032,0.2882,-0.3358,-0.2679,-12.9948
16:56:34:216,-2.613,5.1661,7.334,52.1637,0.3285,-0.2075,-0.1751,-12.6156
16:56:34:238,-3.283,4.8885,8.071,52.2315,0.2246,0.0221,-0.1519,-12.2375
16:56:34:254,-3.2255,4.5751,8.3175,52.1035,0.0499,0.0539,-0.1226,-11.8628
16:56:34:274,-2.7494,4.4004,7.5159,52.4542,-0.0955,-0.0377,-0.1042,-11.4928
16:56:34:294,-2.6225,4.6397,7.7934,52.7382,-0.2359,0.0576,-0.1409,-11.1273
16:56:34:314,-3.192,4.587,8.7027,51.2351,-0.363,0.2103,-0.1849,-10.7641
16:56:34:334,-4.0439,4.3645,9.0233,52.4577,-0.3936,0.2995,-0.2154,-10.4021
16:56:34:356,-5.1589,4.5727,9.2698,52.3538,-0.3422,0.4901,-0.1946,-10.0403
16:56:34:375,-5.9366,4.5272,9.5426,52.1457,-0.3276,0.6989,-0.0407,-9.6841
16:56:34:396,-5.7356,3.716,9.947,53.6242,-0.4546,0.6562,0.2439,-9.3457
16:56:34:415,-4.6612,3.2207,10.4686,53.5174,-0.6086,0.4607,0.4968,-9.0369
16:56:34:435,-4.6205,3.1059,10.8586,53.2989,-0.5964,0.4387,0.5824,-8.7595
16:56:34:459,-5.5155,3.1944,9.3583,52.61,-0.3154,0.5707,0.652,-8.5106
16:56:34:472,-4.6062,3.1561,8.0686,54.136,-0.3496,0.4338,0.7607,-8.2906
16:56:34:493,-3.5127,2.9193,6.5181,53.0076,-0.4131,0.3105,0.8414,-7.9523
16:56:34:515,-2.5651,2.9623,5.135,53.4771,-0.4656,0.264,0.8646,-7.8381
16:56:34:539,-2.1081,3.0915,4.3669,53.1607,-0.5267,0.3679,0.8524,-7.8381
16:56:34:555,-1.7635,3.3332,4.0128,53.1542,-0.6122,0.5536,0.8585,-7.8381
16:56:34:574,-1.5936,3.3787,4.4076,53.5182,-0.7625,0.7356,0.8963,-7.8381
16:56:34:593,-1.541,3.3236,5.5226,52.6618,-0.9555,0.8395,0.9354,-7.8381
16:56:34:613,-1.584,3.4911,6.6664,52.2106,-1.0814,0.8492,0.9611,-7.8381
16:56:34:635,-1.3304,3.5318,7.4202,51.7265,-1.1144,0.7845,1.0087,-7.955
16:56:34:669,-1.1773,3.594,7.7695,52.2925,-1.0741,0.7051,1.0552,-8.1138
16:56:34:680,-1.0672,3.5988,8.0901,53.2166,-1.0447,0.6525,1.0833,-8.314
16:56:34:693,-0.9619,3.6203,8.6525,52.5462,-1.0533,0.6086,1.1028,-8.5548
16:56:34:712,-0.5456,3.4313,9.4301,52.1099,-1.0887,0.5572,1.1175,-8.8366
16:56:34:732,0.0574,3.2686,10.337,53.6334,-1.0912,0.4998,1.0808,-9.1571
16:56:34:752,0.402,3.3428,11.2247,52.4086,-0.9959,0.4375,0.9464,-9.5102
16:56:34:773,0.548,3.5988,11.4736,52.6183,-0.7515,0.3422,0.7522,-9.8865
16:56:34:794,0.7035,4.0343,10.8203,53.2798,-0.4388,0.2604,0.5616,-10.2763
16:56:34:814,0.7705,4.3813,10.2269,51.5399,-0.2066,0.2542,0.4064,-10.6713
16:56:34:833,0.6676,4.4004,10.538,52.9955,-0.1785,0.2946,0.2818,-11.0672
16:56:34:856,0.0909,4.1922,12.0024,52.9462,-0.3349,0.3483,0.1633,-11.4612
16:56:34:877,-0.6604,3.8405,14.9743,53.534,-0.5499,0.4265,0.0411,-11.8517
16:56:34:901,0.0407,3.5366,16.2401,52.3243,-0.181,-0.2845,-0.2215,-12.606
16:56:34:916,0.7011,3.9266,12.8877,53.0806,0.4543,-0.5961,-0.4011,-12.951
16:56:34:934,0.6915,3.8979,11.3061,54.4375,0.7634,-0.4666,-0.5331,-13.264
16:56:34:959,-0.2034,3.3021,12.4187,53.2825,0.6412,-0.2503,-0.6833,-13.5421
16:56:34:975,-0.9523,2.6297,14.869,53.5628,0.4238,-0.1782,-0.8116,-13.7833
16:56:34:993,-1.3998,1.9214,15.9075,52.2514,0.5142,-0.2442,-0.8971,-13.9857
16:56:35:012,-1.3304,1.4309,14.7685,53.343,0.8868,-0.3896,-0.9484,-14.1456
16:56:35:032,-1.4237,1.2873,13.4237,51.8236,1.1812,-0.5166,-1.0071,-14.2597
16:56:35:055,-2.0363,1.2491,12.3805,52.3493,1.2558,-0.6791,-1.1024,-14.2597
16:56:35:074,-2.5819,1.273,11.3228,52.6711,1.2741,-0.9003,-1.172,-14.2597
16:56:35:095,-2.6393,1.1964,9.6694,50.2547,1.3535,-1.1299,-1.172,-14.2597
16:56:35:113,-2.3761,1.2132,7.6092,52.6775,1.4696,-1.3083,-1.1488,-14.2597
16:56:35:133,-2.1559,1.3185,5.7954,52.7326,1.5135,-1.3987,-1.1329,-14.1216
16:56:35:154,-2.0506,1.6439,4.5177,51.9992,1.4354,-1.3877,-1.1207,-13.9374
16:56:35:174,-1.8592,1.986,4.0774,51.0522,1.2509,-1.3059,-1.0804,-13.7109
16:56:35:193,-1.5649,2.3952,3.9577,53.5116,1.0481,-1.1996,-1.0242,-13.4466
16:56:35:212,-1.4333,2.948,4.0965,53.5924,0.8844,-1.0383,-0.979,-13.1484
16:56:35:233,-1.2849,3.5007,4.5894,52.4984,0.7316,-0.86,-0.9362,-12.8194
16:56:35:255,-1.395,4.0822,5.1087,53.1906,0.5887,-0.7305,-0.9069,-12.4618
16:56:35:277,-1.8185,4.5799,5.6782,51.6536,0.4665,-0.6229,-0.8849,-12.0773
16:56:35:294,-2.6058,4.9388,6.6855,52.7413,0.3749,-0.5179,-0.8116,-11.6692
16:56:35:314,-2.7541,5.1422,7.3627,51.9533,0.3651,-0.4812,-0.6613,-11.2435
16:56:35:335,-2.5771,5.2068,7.401,52.8692,0.4286,-0.4727,-0.4817,-10.8073
16:56:35:357,-1.931,5.4006,6.6114,51.4631,0.563,-0.37,-0.2594,-9.9263
16:56:35:375,-2.1727,5.3432,6.4415,51.8949,0.513,-0.2454,-0.2227,-9.4853
16:56:35:512,-2.5866,5.3097,6.4343,51.8969,0.3602,-0.1147,-0.1897,-9.0458
16:56:35:513,-2.6967,5.2666,6.1591,53.4269,0.1257,-0.0426,-0.1311,-8.6105
16:56:35:514,-2.4096,5.0967,6.6425,54.7645,-0.2115,0.0404,-0.0517,-8.1843
16:56:35:514,-2.2899,4.946,8.5041,52.9938,-0.5683,0.1724,-0.0187,-7.7697
16:56:35:515,-2.6297,4.745,9.9685,52.1779,-0.7503,0.2347,-0.0664,-7.3656
16:56:35:516,-3.6419,4.6971,10.7509,53.3322,-0.7002,0.286,-0.1665,-6.9667
16:56:35:517,-5.1159,5.1972,10.7557,54.1167,-0.4656,0.4534,-0.2179,-6.5685
16:56:35:533,-5.8672,5.1446,10.1145,54.6595,-0.2323,0.5792,-0.0493,-6.1751
16:56:35:553,-4.9603,4.2568,9.5234,50.0365,-0.2298,0.4656,0.305,-5.8007
16:56:35:573,-3.7089,3.4505,9.5665,50.7586,-0.4155,0.2665,0.5811,-5.4594
16:56:35:592,-3.1394,2.7494,9.8752,54.2816,-0.523,0.2762,0.6838,-5.1546
16:56:35:612,-3.1322,2.412,10.5069,54.946,-0.5047,0.4607,0.6679,-4.8839
16:56:35:633,-3.7424,2.5101,10.7462,54.9533,-0.4265,0.5267,0.5726,-4.6421
16:56:35:655,-3.8453,3.0365,9.4253,53.7465,-0.2714,0.385,0.4748,-4.4235
16:56:35:676,-3.2255,3.2686,7.2526,54.0368,-0.0576,0.2677,0.4736,-4.2262
16:56:35:693,-2.4646,3.5222,5.1709,52.8345,0.0597,0.2872,0.5139,-4.0507
16:56:35:714,-1.9167,3.7424,3.527,52.226,-0.0148,0.3593,0.5384,-3.8982
16:56:35:733,-1.517,3.8788,3.0556,54.8659,-0.319,0.4412,0.5653,-3.7717
16:56:35:756,-1.584,3.9769,3.9505,53.403,-0.7075,0.5548,0.5811,-3.673
16:56:35:777,-2.0243,4.0367,5.6255,53.9103,-0.9629,0.7112,0.6141,-3.673
16:56:35:792,-1.943,4.0128,6.8363,54.2568,-1.0203,0.7955,0.7033,-3.673
16:56:35:813,-1.2299,3.9912,6.9751,54.5731,-0.8798,0.7503,0.8756,-3.673
16:56:35:832,-1.1103,4.0223,7.602,54.3913,-0.9335,0.7307,0.8951,-3.673
16:56:35:856,-0.8542,3.9314,8.1356,54.5286,-0.9861,0.6537,0.9122,-3.7851
16:56:35:876,-0.6939,3.8429,8.6979,54.2994,-1.002,0.5866,0.9061,-3.933
16:56:35:895,-0.5312,3.8046,9.8225,55.3975,-0.9861,0.556,0.8646,-4.1142
16:56:35:913,-0.0933,3.8309,10.5595,54.8583,-0.8737,0.4803,0.7766,-4.3245
16:56:35:933,-0.0239,4.1468,10.1025,54.5978,-0.6012,0.3605,0.6373,-4.5561
16:56:35:956,-0.3326,4.611,9.5115,54.3829,-0.3251,0.3385,0.492,-4.8013
16:56:35:973,-0.6126,4.9005,9.6431,56.5706,-0.2323,0.3728,0.4101,-5.0557
16:56:35:992,-1.048,4.9364,10.2772,55.3457,-0.3007,0.3618,0.3734,-5.318
16:56:36:012,-1.6367,4.8503,11.6076,55.5203,-0.4363,0.3618,0.3551,-5.5882
16:56:36:031,-1.7228,4.5344,13.4333,55.3457,-0.5573,0.3703,0.3796,-5.8687
16:56:36:052,-1.1462,4.2544,15.0245,55.7543,-0.5756,0.2432,0.4003,-6.1603
16:56:36:076,-0.256,4.2568,14.3378,57.0852,-0.385,-0.155,0.3368,-6.4602
16:56:36:093,0.347,4.5511,12.0024,57.1884,-0.0393,-0.4837,0.1951,-6.7597
16:56:36:114,0.9691,4.5703,10.9831,57.3833,0.1428,-0.4128,0.0937,-7.0547
16:56:36:133,1.2156,3.9194,12.1436,55.8023,0.0646,-0.2332,-0.0163,-7.3425
16:56:36:155,1.1892,2.8451,14.1966,56.954,-0.0747,-0.21,-0.1971,-7.6191
16:56:36:175,0.9715,2.0076,15.7448,56.6326,0.0597,-0.1868,-0.4426,-7.8758
16:56:36:193,0.1029,1.6104,15.8668,56.2141,0.5142,-0.1953,-0.7236,-8.1003
16:56:36:215,-0.792,1.8975,13.675,55.216,1.0652,-0.3578,-0.9594,-8.2799
16:56:36:233,-1.4836,2.0435,11.5741,57.2364,1.3828,-0.5191,-1.0706,-8.4088
16:56:36:253,-1.8473,2.0219,10.136,56.9455,1.3975,-0.6486,-1.0743,-8.4088
16:56:36:274,-2.3115,2.1823,8.3414,55.9411,1.1067,-0.9271,-0.9716,-8.4088
16:56:36:297,-2.0602,2.0698,7.7504,56.4121,0.9479,-1.0188,-0.8727,-8.4088
16:56:36:315,-1.7635,1.9358,7.2957,57.1759,0.8282,-1.1067,-0.7994,-8.4088
16:56:36:332,-1.3783,1.9573,6.5037,55.9521,0.7903,-1.2094,-0.7737,-8.2969
16:56:36:355,-1.0313,2.1081,5.281,56.6199,0.8245,-1.2411,-0.786,-8.1556
16:56:36:374,-1.0122,2.5388,4.5129,57.8558,0.8416,-1.1141,-0.8141,-7.9842
16:56:36:393,-1.2036,3.0748,4.4148,56.5971,0.7573,-0.899,-0.8251,-7.7833
16:56:36:411,-1.6391,3.4481,5.3767,57.7362,0.5838,-0.7097,-0.8067,-7.555
16:56:36:433,-1.6534,3.9601,6.2453,55.6259,0.4323,-0.6584,-0.753,-7.302
16:56:36:455,-1.6582,4.4483,6.7095,57.8743,0.4018,-0.6315,-0.7017,-7.0275
16:56:36:476,-1.9047,4.7856,6.9655,54.7634,0.4482,-0.5728,-0.6723,-6.7325
16:56:36:493,-2.1631,5.1565,7.1306,57.841,0.5117,-0.5142,-0.6345,-6.4184
16:56:36:511,-2.1057,5.336,6.8219,55.6345,0.5814,-0.4531,-0.555,-6.0883
16:56:36:532,-1.7827,5.5705,6.597,57.3864,0.6119,-0.3395,-0.4622,-5.7466
16:56:36:555,-1.9119,5.6925,6.4989,57.6165,0.5692,-0.1856,-0.406,-5.3955
16:56:36:573,-2.656,5.6136,6.7023,55.8751,0.4311,-0.028,-0.3816,-5.0359
16:56:36:591,-3.3571,5.5418,7.456,57.1394,0.1978,0.0979,-0.3315,-4.6697
16:56:36:611,-3.3045,5.3504,7.748,58.0445,-0.049,0.1321,-0.235,-4.3025
16:56:36:632,-2.9527,5.2188,8.1117,58.5241,-0.2592,0.1834,-0.1372,-3.939
16:56:36:656,-2.991,5.1996,9.1932,56.9224,-0.4522,0.2677,-0.1128,-3.5806
16:56:36:675,-3.6203,4.7856,9.801,55.1804,-0.5365,0.3007,-0.1274,-3.2273
16:56:36:701,-4.9412,4.946,9.7149,56.9558,-0.4656,0.4155,-0.1482,-2.5305
16:56:36:712,-5.6734,3.9841,10.4782,57.1884,-0.4119,0.622,-0.0468,-2.203
16:56:36:730,-4.1659,2.8187,10.7007,57.7362,-0.7039,0.3105,0.5885,-1.908
16:56:36:752,-3.2399,2.1248,10.4375,57.0603,-0.6721,0.1345,0.6825,-1.6486
16:56:36:773,-3.2207,2.0052,9.6526,56.4374,-0.44,0.2933,0.6398,-1.42
16:56:36:791,-3.5773,2.0698,8.9635,58.0656,-0.2469,0.5475,0.5726,-1.2173
16:56:36:810,-3.8166,2.6369,8.2816,58.2981,-0.2641,0.5817,0.5042,-1.0374
16:56:36:831,-3.8596,3.1896,7.5326,56.5971,-0.3276,0.5267,0.4797,-0.8786
16:56:36:852,-3.6084,3.4624,6.5491,57.7982,-0.3422,0.4961,0.5286,-0.743
16:56:36:875,-2.8738,3.685,5.2905,56.7475,-0.3764,0.4485,0.6166,-0.6328
16:56:36:894,-2.1799,3.74,4.4722,59.1106,-0.4852,0.429,0.7021,-0.6328
16:56:36:915,-1.8521,3.8142,4.2305,57.6464,-0.6513,0.4729,0.7449,-0.6328
16:56:36:932,-1.6319,3.8237,4.5823,58.3091,-0.8138,0.5975,0.7827,-0.6328
16:56:36:952,-1.5314,3.8118,5.3121,58.0848,-0.9348,0.7295,0.8316,-0.6328
16:56:36:973,-1.5577,3.8166,6.0802,58.0544,-1.0252,0.7784,0.8841,-0.6328
16:56:36:992,-1.2491,3.7184,6.8722,58.4632,-1.1144,0.7148,0.9464,-0.726
16:56:37:012,-0.7178,3.4935,7.4465,57.3804,-1.1803,0.6098,0.9953,-0.8601
16:56:37:033,-0.7633,3.4457,8.2552,57.4365,-1.1974,0.567,0.9794,-1.033
16:56:37:054,-0.8614,3.4839,9.4636,58.7264,-1.1852,0.5853,0.9195,-1.2416
16:56:37:074,-0.7992,3.4576,10.4973,57.2461,-1.1034,0.5829,0.8621,-1.4822
16:56:37:093,-0.5791,3.5342,11.4425,57.1341,-0.9262,0.5389,0.7693,-1.75
16:56:37:111,-0.6939,3.7878,10.8873,57.6657,-0.6391,0.3947,0.6263,-2.0367
16:56:37:133,-0.7059,4.1037,9.5354,56.9515,-0.3508,0.2701,0.492,-2.3342
16:56:37:155,-0.7992,4.5966,9.2315,58.7351,-0.2665,0.3007,0.3905,-2.6384
16:56:37:177,-1.4405,4.5583,11.8804,58.2224,-0.5402,0.446,0.2708,-2.9474
16:56:37:194,-1.9238,4.264,14.5244,57.3042,-0.666,0.5133,0.2207,-3.5793
16:56:37:214,-1.6534,3.9912,16.7785,58.0655,-0.611,0.3789,0.1609,-3.8995
16:56:37:233,-0.3924,3.8213,16.276,58.2224,-0.2225,-0.089,0.0546,-4.2164
16:56:37:256,0.5049,3.6897,13.4357,58.357,0.4006,-0.4971,-0.1531,-4.5178
16:56:37:276,0.9356,4.0534,10.6576,58.0215,0.8526,-0.5655,-0.3596,-4.7932
16:56:37:295,0.5719,3.7926,10.1384,57.9215,0.8795,-0.4385,-0.5159,-5.0381
16:56:37:312,0.5408,2.936,11.9258,58.8107,0.5924,-0.3126,-0.6003,-5.2534
16:56:37:332,0.7178,2.1057,14.1057,58.1068,0.4458,-0.2051,-0.6907,-5.4385
16:56:37:353,0.1579,1.7659,14.4144,57.8442,0.6425,-0.1782,-0.8751,-5.5862
16:56:37:374,-0.8829,2.1775,13.5673,57.1231,0.9454,-0.2405,-1.0682,-5.688
16:56:37:394,-1.7707,2.4503,13.2778,59.7424,1.0639,-0.3248,-1.1342,-5.688
16:56:37:568,-2.0435,2.2086,13.395,57.461,0.998,-0.5081,-1.0828,-5.688
16:56:37:569,-2.4311,2.0937,12.3183,57.3136,1.009,-0.7891,-1.0486,-5.688
16:56:37:570,-2.8666,2.1512,10.1288,58.3717,1.1653,-1.0212,-1.0242,-5.688
16:56:37:570,-3.0963,2.2851,7.8197,59.9218,1.312,-1.1727,-0.9546,-5.5627
16:56:37:571,-3.0508,2.3928,5.9031,58.8993,1.3449,-1.2753,-0.8446,-5.3988
16:56:37:572,-2.6919,2.5579,4.5942,61.3633,1.2496,-1.3486,-0.7175,-5.2035
16:56:37:572,-2.2397,2.8116,3.5892,57.8743,1.0994,-1.3584,-0.5978,-4.984
16:56:37:573,-1.6415,3.0293,3.0173,59.6887,0.9442,-1.2448,-0.4805,-4.7465
16:56:37:574,-1.1414,3.0891,3.2136,57.9682,0.761,-1.0053,-0.3791,-4.4971
16:56:37:600,-0.993,3.1609,4.5081,57.2485,0.5508,-0.7463,-0.3486,-4.2384
16:56:37:612,-1.1797,3.4887,5.6016,59.2922,0.436,-0.5875,-0.3999,-3.9694
16:56:37:631,-2.0004,4.4578,6.1974,59.752,0.5789,-0.3774,-0.4769,-3.6877
16:56:37:654,-2.4215,4.8024,6.1472,58.8649,0.6425,-0.2417,-0.4365,-3.0858
16:56:37:670,-2.4957,4.9412,6.0945,57.565,0.5924,-0.1367,-0.3449,-2.7695
16:56:37:694,-2.546,5.1111,6.4989,58.0273,0.4458,-0.0219,-0.2496,-2.448
16:56:37:712,-2.9049,4.9555,7.2694,58.8188,0.2283,0.1101,-0.1702,-2.1252
16:56:37:734,-3.3093,4.6325,8.4754,61.6032,-0.0038,0.2555,-0.1152,-1.8035
16:56:37:755,-3.3212,4.4674,9.0353,59.231,-0.2066,0.2506,-0.0896,-1.4846
16:56:37:772,-3.216,4.4865,8.5065,59.509,-0.3227,0.1418,-0.0896,-1.1695
16:56:37:792,-3.1107,4.7976,8.7003,58.3929,-0.4229,0.2066,-0.1079,-0.8582
16:56:37:812,-3.4409,4.6325,9.6574,59.0699,-0.5377,0.363,-0.1311,-0.5499
16:56:37:832,-4.4937,4.678,10.5452,60.8965,-0.5438,0.5023,-0.1861,-0.2421
16:56:37:855,-5.8026,4.9843,10.5236,60.3234,-0.3826,0.6305,-0.1519,0.0663
16:56:37:874,-6.4726,4.678,9.7675,59.8862,-0.2531,0.6586,0.0912,0.3672
16:56:37:892,-5.525,3.716,9.4899,61.3011,-0.3471,0.5389,0.4688,0.6451
16:56:37:912,-4.5583,3.0915,9.8106,60.6721,-0.5585,0.4509,0.7522,0.8873
16:56:37:932,-4.678,2.6536,10.8419,60.4208,-0.6794,0.5829,0.8792,1.09
16:56:37:955,-4.9531,2.4144,11.7894,61.6045,-0.7161,0.7087,0.9281,1.2522
16:56:37:972,-4.3741,2.254,11.4999,60.063,-0.6733,0.5524,0.9831,1.3731
16:56:37:994,-3.4887,2.4598,9.3368,60.4781,-0.5121,0.2396,1.0038,1.3731
16:56:38:012,-2.4479,2.6776,7.2933,60.1952,-0.3374,0.1089,0.999,1.3731
16:56:38:032,-1.7133,2.8977,5.817,60.4781,-0.2237,0.2054,0.9684,1.3731
16:56:38:054,-1.4596,3.3045,4.7474,61.9193,-0.181,0.374,0.8951,1.3731
16:56:38:073,-1.517,3.5318,4.2209,61.3409,-0.2176,0.5572,0.8487,1.3731
16:56:38:093,-1.8736,3.9601,4.3119,61.9465,-0.4986,0.7967,0.9293,1.255
16:56:38:112,-1.6319,3.9003,5.281,63.1837,-0.7356,0.7845,1.0454,1.1004
16:56:38:134,-0.9404,3.6969,6.1783,63.3026,-0.9079,0.6977,1.1737,0.9033
16:56:38:154,-0.6604,3.6419,6.865,63.2575,-0.9226,0.6904,1.2213,0.6632
16:56:38:176,-0.5886,3.7543,7.6307,64.1909,-0.8712,0.7356,1.2018,0.3823
16:56:38:195,-0.4977,3.8046,8.0973,62.8383,-0.8212,0.7271,1.1651,0.0636
16:56:38:213,-0.4642,3.9984,8.8678,61.8596,-0.7943,0.6867,1.0979,-0.2892
16:56:38:232,-0.5408,4.1228,10.0116,63.7559,-0.7723,0.6159,1.0063,-0.6727
16:56:38:255,-0.4881,4.3095,10.5021,62.1121,-0.6477,0.4351,0.9025,-1.0803
16:56:38:274,-0.0072,4.52,9.7795,62.3348,-0.407,0.2494,0.812,-1.5069
16:56:38:293,0.055,4.9053,9.2124,63.4437,-0.2054,0.2323,0.7082,-1.9471
16:56:38:310,-0.3948,5.1063,9.5785,64.006,-0.1908,0.3031,0.6044,-2.3963
16:56:38:332,-0.8973,5.0752,10.6935,65.0016,-0.352,0.374,0.5628,-2.8535
16:56:38:354,-1.0361,4.6062,13.6247,63.327,-0.6159,0.4558,0.5616,-3.3214
16:56:38:372,-0.5264,4.1803,16.6038,62.8965,-0.743,0.33,0.5225,-3.8004
16:56:38:392,0.067,4.1348,16.2473,63.7853,-0.4693,-0.155,0.3649,-4.2826
16:56:38:412,0.481,4.5966,13.0983,65.4563,0.0902,-0.5386,0.1169,-4.7546
16:56:38:433,0.9356,4.8383,11.1984,62.2125,0.4629,-0.4568,-0.0334,-5.2092
16:56:38:455,0.9667,4.2712,11.5454,62.9313,0.4604,-0.232,-0.1507,-5.6437
16:56:38:476,0.8231,3.594,13.4142,62.8435,0.2674,-0.1452,-0.2924,-6.0551
16:56:38:494,0.6437,2.8092,14.6752,63.3768,0.2185,-0.1416,-0.4316,-6.4401
16:56:38:514,0.6078,2.1081,15.0054,64.1251,0.3517,-0.2405,-0.566,-6.794
16:56:38:533,0.5312,1.4883,14.6513,62.4666,0.5349,-0.4153,-0.7273,-7.384
16:56:38:557,-1.1701,1.3519,13.0385,63.1058,1.0322,-0.6755,-1.1378,-7.6063
16:56:38:577,-2.0124,1.4165,10.5739,62.2517,1.3633,-0.8807,-1.2527,-7.7691
16:56:38:592,-2.4263,1.6654,7.9896,61.9307,1.5942,-1.0982,-1.2783,-7.8705
16:56:38:612,-2.5005,1.9884,5.4628,60.4954,1.6699,-1.2423,-1.2453,-7.8705
16:56:38:631,-2.5244,2.3857,3.9673,61.0739,1.5453,-1.2717,-1.1549,-7.8705
16:56:38:654,-2.4909,2.735,3.4768,60.5771,1.2631,-1.2387,-1.0401,-7.8705
16:56:38:672,-2.4622,3.2327,3.9434,60.8167,0.976,-1.1507,-0.9155,-7.7698
16:56:38:692,-2.0626,3.4457,4.1372,59.4238,0.7988,-1.0334,-0.7835,-7.6354
16:56:38:711,-1.5888,3.8285,3.9984,58.3084,0.7439,-0.8807,-0.6723,-7.4745
16:56:38:734,-1.5864,4.4243,4.3621,58.4296,0.673,-0.6425,-0.6174,-7.2894
16:56:38:755,-1.9956,4.9914,5.4269,55.8438,0.5191,-0.4079,-0.5868,-7.083
16:56:38:773,-2.668,5.4628,6.7525,59.668,0.3712,-0.2833,-0.5196,-6.8577
16:56:38:790,-2.9743,5.6447,7.657,57.3491,0.2955,-0.2723,-0.3962,-6.6182
16:56:38:810,-2.455,5.6016,8.0255,59.8523,0.3321,-0.3199,-0.2325,-6.3719
16:56:38:829,-1.6343,5.47,7.5781,57.843,0.4507,-0.3419,-0.1091,-6.1241
16:56:38:850,-1.5194,5.8361,7.011,59.6645,0.563,-0.2906,-0.1042,-5.8749
16:56:38:870,-1.8233,6.0203,6.4869,58.3459,0.5789,-0.21,-0.1299,-5.6228
16:56:38:889,-2.0554,5.9677,6.2692,59.5659,0.4897,-0.1135,-0.1103,-5.3689
16:56:38:911,-2.0483,5.8146,5.8792,58.1429,0.3187,-0.028,-0.0651,-5.1154
16:56:38:932,-1.6271,5.7212,5.7117,57.6646,0.0536,0.0649,-0.0151,-4.8654
16:56:38:954,-1.4788,5.6518,7.2287,58.2359,-0.3031,0.242,-0.0114,-4.6211
16:56:38:975,-1.998,5.391,9.5809,58.5222,-0.5878,0.4228,-0.092,-4.1342
16:56:38:990,-3.2327,4.9675,11.1027,58.4334,-0.5976,0.5328,-0.2093,-3.8797
16:56:39:011,-6.3864,5.7117,10.3203,58.9931,-0.1187,0.7307,-0.1861,-3.6198
16:56:39:031,-5.5729,4.5081,10.1384,57.5223,-0.1614,0.6476,0.2097,-3.37
16:56:39:053,-4.1731,3.4648,9.9135,59.5685,-0.3398,0.4204,0.5469,-3.1457
16:56:39:073,-3.8524,2.8163,9.8249,58.6357,-0.4045,0.4216,0.6606,-2.9513
16:56:39:092,-4.4435,2.4239,9.7507,56.5725,-0.3557,0.6537,0.6911,-2.7867
16:56:39:112,-4.209,2.0578,9.2913,58.1322,-0.374,0.7295,0.7436,-2.6532
16:56:39:130,-3.1705,1.9358,8.0901,57.0289,-0.4058,0.6428,0.7998,-2.5521
16:56:39:154,-2.7182,2.2875,6.53,57.8044,-0.3288,0.6525,0.7449,-2.5521
16:56:39:171,-2.7063,2.8666,5.0943,57.5398,-0.1932,0.8126,0.6642,-2.5521
16:56:39:192,-2.668,3.2207,4.0606,58.9099,-0.1504,1.0154,0.6606,-2.5521
16:56:39:211,-2.3234,3.472,3.2184,57.0714,-0.2811,1.1412,0.7265,-2.5521
16:56:39:232,-2.0148,3.6802,3.0628,56.891,-0.5817,1.1828,0.8279,-2.5521
16:56:39:254,-1.8401,3.7448,3.9601,58.3743,-0.9849,1.1534,0.9257,-2.5521
16:56:39:271,-1.7635,3.9027,4.8383,58.9928,-1.3074,1.0484,1.0026,-2.6721
16:56:39:290,-1.3424,4.0056,5.1829,56.5883,-1.4577,0.9262,1.093,-2.8397
16:56:39:315,-1.2873,4.3286,5.0919,56.8191,-1.5163,0.8712,1.1798,-3.0567
16:56:39:331,-1.5649,4.6421,5.5394,57.924,-1.7069,0.7466,1.2482,-3.3258
16:56:39:354,-1.8473,4.8,7.2096,58.8278,-2.1174,0.4864,1.3447,-3.6506
16:56:39:371,-1.3352,4.5464,9.4875,57.8362,-2.4986,0.2372,1.4901,-4.0362
16:56:39:391,0.067,3.8524,12.3446,59.9049,-2.5792,0.2127,1.6257,-4.487
16:56:39:413,1.7228,3.3619,15.5079,59.224,-2.242,0.4241,1.5952,-4.487
16:56:39:433,2.4622,3.3858,17.1685,58.3437,-1.4393,0.6134,1.3056,-5.0566
16:56:39:453,1.986,4.1803,15.6491,58.8147,-0.3593,0.677,0.8866,-5.6444
16:56:39:630,-0.0455,5.604,12.1412,58.7546,0.5215,0.4082,0.3918,-6.2306
16:56:39:631,-0.9715,5.5537,13.5888,59.0037,0.2051,0.264,0.3612,-7.3825
16:56:39:632,-1.1677,4.922,15.4576,60.4516,-0.0319,0.1064,0.404,-7.9518
16:56:39:633,0.1244,4.1826,15.5055,59.3202,0.0756,-0.2405,0.459,-8.52
16:56:39:633,1.4931,4.0008,12.4044,58.1551,0.4934,-0.7561,0.3698,-9.0817
16:56:39:634,2.6632,4.1324,8.8319,58.6129,0.8685,-1.031,0.1853,-9.6288
16:56:39:635,3.4265,4.2856,7.2694,59.0226,0.8831,-0.8685,-0.0016,-10.1558
16:56:39:636,3.4313,3.3691,8.8128,58.0808,0.5276,-0.4629,-0.1812,-10.6606
16:56:39:636,2.668,2.5484,12.0168,57.5663,0.0854,-0.0756,-0.4475,-11.1376
16:56:39:654,0.8471,1.6247,17.08,57.4254,-0.1516,0.2103,-0.7615,-11.5785
16:56:39:674,-0.1436,0.7705,19.3197,58.9061,0.0621,-0.0206,-0.9973,-11.9742
16:56:39:690,0.2895,0.5982,16.532,57.5677,0.7109,-0.6584,-1.1574,-12.3174
16:56:39:711,0.603,0.3015,12.5958,56.2248,1.2924,-1.0933,-1.304,-12.6001
16:56:39:732,-0.0646,0.5025,9.9565,56.4004,1.4732,-1.2619,-1.519,-12.815
16:56:39:752,-1.0193,0.7968,8.406,57.7698,1.4048,-1.3181,-1.6778,-12.9566
16:56:39:775,-1.4692,0.8782,7.4943,58.7566,1.2387,-1.3438,-1.6937,-12.9566
16:56:39:794,-1.6199,0.8686,7.3196,58.4669,1.0432,-1.3902,-1.6668,-12.9566
16:56:39:812,-1.5697,0.8542,6.8483,57.9818,0.9393,-1.4916,-1.6619,-12.9566
16:56:39:833,-1.5123,1.1007,5.8648,57.9951,0.9845,-1.5368,-1.6864,-12.826
16:56:39:855,-1.6176,1.5051,4.8,58.6725,1.0872,-1.4391,-1.7206,-12.6296
16:56:39:873,-2.0387,2.2062,3.7735,55.3096,1.136,-1.2619,-1.7328,-12.3679
16:56:39:892,-2.3976,3.0413,3.003,55.1067,1.0517,-1.0628,-1.6632,-12.045
16:56:39:911,-2.4981,4.2903,4.6421,56.581,0.3944,-0.6523,-1.2527,-11.2533
16:56:39:929,-2.5627,4.6301,6.3601,57.6464,0.0585,-0.5606,-1.0462,-10.8053
16:56:39:953,-2.5962,4.8311,8.1165,55.5711,-0.0845,-0.5252,-0.8788,-10.3337
16:56:39:971,-2.6536,5.0154,8.6812,57.5646,0.0145,-0.5289,-0.7456,-9.8438
16:56:39:995,-2.589,5.2714,8.004,56.583,0.2588,-0.4824,-0.6271,-9.3396
16:56:40:010,-2.6201,5.4413,7.3196,56.0356,0.4067,-0.3273,-0.5159,-8.8254
16:56:40:030,-3.2997,5.6327,7.925,58.2159,0.3016,-0.1159,-0.4378,-8.3035
16:56:40:052,-3.9697,5.671,9.1478,56.0956,0.0462,-0.0231,-0.3645,-7.7771
16:56:40:071,-4.0032,5.3336,9.1143,57.8436,-0.1516,-0.1367,-0.2423,-7.2519
16:56:40:092,-3.3811,5.2188,8.3892,56.1113,-0.2469,-0.1831,-0.1299,-6.7336
16:56:40:110,-2.9121,5.0847,8.4299,56.583,-0.3532,-0.0695,-0.0615,-6.2257
16:56:40:129,-3.3619,4.9268,8.741,56.0956,-0.4473,0.0698,-0.0737,-5.727
16:56:40:151,-4.2114,4.9914,9.588,56.1746,-0.4962,0.2787,-0.0981,-5.2357
16:56:40:171,-5.3695,5.0225,10.3298,56.7372,-0.4754,0.5438,-0.0444,-4.7522
16:56:40:195,-5.86,4.5033,10.8586,55.37,-0.4485,0.6195,0.1535,-4.2837
16:56:40:211,-5.0847,3.5701,10.6768,56.051,-0.4546,0.4497,0.426,-3.8407
16:56:40:230,-4.4578,3.0796,10.6457,55.3675,-0.429,0.385,0.619,-3.4305
16:56:40:256,-4.544,2.5316,10.9304,56.1894,-0.341,0.5572,0.7167,-3.0551
16:56:40:272,-4.3789,1.998,10.8515,57.5352,-0.2763,0.6452,0.7827,-2.7159
16:56:40:294,-3.5749,1.8736,10.1097,56.1894,-0.2482,0.5023,0.8023,-2.4135
16:56:40:310,-3.0724,2.3067,8.3988,54.6761,-0.159,0.2933,0.7314,-2.1433
16:56:40:332,-2.6297,2.6297,6.5731,55.2821,-0.0381,0.1993,0.6593,-1.902
16:56:40:352,-2.0722,3.0078,4.812,56.3913,0.0328,0.2176,0.6385,-1.6878
16:56:40:375,-1.7492,3.4863,3.2518,56.4654,-0.1736,0.4803,0.6838,-1.3435
16:56:40:393,-1.4644,3.5581,3.5821,55.9458,-0.4204,0.5866,0.7717,-1.2181
16:56:40:410,-1.2156,3.5653,4.1396,56.8833,-0.6379,0.6452,0.8646,-1.2181
16:56:40:432,-1.2275,3.6036,4.7545,55.7935,-0.7869,0.7075,0.9428,-1.2181
16:56:40:455,-1.1174,3.6108,5.4341,56.1072,-0.9213,0.7552,1.021,-1.2181
16:56:40:474,-0.7322,3.539,6.2836,55.382,-1.0789,0.7539,1.1004,-1.2181
16:56:40:492,-0.7346,3.5773,7.066,56.6447,-1.2256,0.7148,1.1358,-1.2181
16:56:40:511,-0.8088,3.5318,8.5161,55.9084,-1.3819,0.7038,1.1419,-1.3441
16:56:40:531,-0.2632,3.3476,10.6146,56.8507,-1.5029,0.7209,1.1456,-1.516
16:56:40:555,0.1555,3.2782,13.2945,56.907,-1.4626,0.6745,1.0686,-1.7296
16:56:40:572,0.4522,3.4193,13.8066,56.6128,-1.1364,0.3911,0.8756,-1.9752
16:56:40:594,0.6413,3.8453,11.7966,55.6033,-0.5866,0.0954,0.6263,-2.2401
16:56:40:613,0.6987,4.5464,9.9278,53.3345,-0.1309,0.082,0.4015,-2.5122
16:56:40:631,0.4451,5.0608,9.3416,56.2757,0.0682,0.2872,0.2281,-2.7837
16:56:40:652,-0.1436,5.3575,9.7364,55.8381,0.0609,0.5059,0.1108,-3.0506
16:56:40:674,-1.462,5.7021,10.94,55.4647,-0.1211,0.5804,0.0338,-3.3098
16:56:40:690,-2.4191,5.7117,12.9523,55.8416,-0.4534,0.4253,0.013,-3.5634
16:56:40:710,-2.1583,5.6518,14.7781,55.3273,-0.7026,0.049,0.0692,-3.8152
16:56:40:732,-0.95,5.1876,14.2684,56.5375,-0.5426,-0.2747,0.1389,-4.068
16:56:40:759,-0.2369,4.9364,12.4499,56.0739,-0.1578,-0.3224,0.1389,-4.3194
16:56:40:783,-0.2034,4.4148,12.8375,54.5768,-0.0087,-0.1061,0.0497,-4.8026
16:56:40:791,-0.524,3.5246,14.7948,54.2117,-0.0063,0.0771,-0.0798,-5.0253
16:56:40:812,0.0598,2.1559,13.9573,53.3543,0.6583,-0.0939,-0.3681,-5.2265
16:56:40:829,0.0646,2.0794,12.1364,53.8846,1.0737,-0.122,-0.5453,-5.3998
16:56:40:850,-0.2608,1.9501,11.275,54.3151,1.2191,-0.1208,-0.6931,-5.5373
16:56:40:868,-0.6508,1.9238,10.8658,52.9106,1.1886,-0.2173,-0.7921,-5.6358
16:56:40:888,-0.8758,1.8042,10.2628,49.7731,1.1421,-0.3859,-0.8397,-5.6358
16:56:40:908,-0.9045,1.6941,9.0784,53.1575,1.1922,-0.5374,-0.8519,-5.6358
16:56:40:928,-0.9069,1.7157,7.681,51.3843,1.2704,-0.6168,-0.858,-5.6358
16:56:40:949,-1.1103,1.9573,6.4199,49.4517,1.2839,-0.6852,-0.8727,-5.6358
16:56:40:969,-1.462,2.321,5.3456,49.7261,1.2216,-0.7488,-0.8703,-5.5369
16:56:40:990,-1.5601,2.6225,4.8479,49.5033,1.0774,-0.7805,-0.8043,-5.4036
16:56:41:009,-1.3448,2.8977,4.3645,49.4448,0.9161,-0.783,-0.6858,-5.2421
16:56:41:030,-1.0959,3.2566,4.4124,49.9588,0.7524,-0.6999,-0.5709,-5.0584
16:56:41:050,-1.0792,3.6897,5.0297,49.8854,0.5582,-0.5912,-0.4891,-4.8567
16:56:41:068,-1.3137,4.0511,5.9246,47.9115,0.3688,-0.5338,-0.4182,-4.6412
16:56:41:089,-1.5649,4.4674,7.0517,49.1945,0.2307,-0.4995,-0.3522,-4.4148
16:56:41:108,-1.6391,4.6277,7.9059,50.6375,0.2002,-0.4763,-0.2692,-4.1818
16:56:41:128,-1.5218,4.6756,8.1045,48.59,0.2796,-0.4495,-0.1897,-3.9446
16:56:41:148,-1.4716,4.7186,8.1499,49.2645,0.3651,-0.4189,-0.1531,-3.7045
16:56:41:172,-1.7492,4.8622,8.0112,46.4937,0.4164,-0.4079,-0.1629,-3.4603
16:56:41:189,-1.8688,4.9244,7.2814,46.5288,0.4739,-0.3786,-0.1555,-3.2126
16:56:41:209,-1.9645,4.8574,7.0827,47.2388,0.4494,-0.2699,-0.1274,-2.9621
16:56:41:231,-2.0913,4.6636,7.3484,47.2948,0.3211,-0.133,-0.1201,-2.7093
16:56:41:254,-2.1966,4.477,7.2287,46.5497,0.1843,-0.0267,-0.1507,-2.4535
16:56:41:276,-2.5364,4.599,6.8842,45.9145,0.0487,0.1138,-0.2142,-2.1924
16:56:41:295,-3.7496,5.1087,8.7888,45.1212,-0.5084,0.3581,-0.2496,-1.6548
16:56:41:313,-4.3478,5.0465,10.1049,46.5584,-0.7002,0.3764,-0.2105,-1.3823
16:56:41:329,-5.4628,5.3312,10.6289,45.0518,-0.6208,0.5206,-0.1494,-1.1085
16:56:41:351,-6.2692,5.2379,10.9543,44.3886,-0.4803,0.7161,0.0485,-0.8395
16:56:41:372,-5.8504,4.3214,11.6315,42.3604,-0.5157,0.6684,0.3734,-0.589
16:56:41:392,-4.8407,3.4696,12.2608,44.4898,-0.6049,0.4155,0.6422,-0.3683
16:56:41:410,-4.2425,2.8355,12.3159,44.4626,-0.5072,0.2958,0.7497,-0.1805
16:56:41:431,-4.3406,2.5747,11.9187,43.8009,-0.2359,0.3801,0.7436,-0.0214
16:56:41:453,-4.264,2.6106,10.282,44.5527,0.0621,0.396,0.7021,0.1127
16:56:41:473,-3.5844,2.8068,8.2624,42.3042,0.3175,0.33,0.6948,0.2244
16:56:41:490,-2.8546,3.0485,5.5657,42.3396,0.4812,0.2946,0.7021,0.3144
16:56:41:626,-2.2445,3.4289,3.259,44.3616,0.4445,0.3105,0.7204,0.3144
16:56:41:629,-1.7994,3.7974,2.3258,41.0242,0.1293,0.3886,0.7632,0.3144
16:56:41:631,-1.5242,3.9529,2.8068,43.1318,-0.363,0.4583,0.8243,0.3144
16:56:41:633,-1.1366,3.9529,3.9075,39.007,-0.7796,0.512,0.9049,0.3144
16:56:41:635,-0.9667,4.0606,5.3743,40.554,-0.9897,0.6183,0.9648,0.3144
16:56:41:636,-0.9715,4.264,6.3194,40.7892,-1.0007,0.666,1.0087,0.2085
16:56:41:638,-0.5527,4.2568,6.5276,40.2745,-0.9103,0.6257,1.0796,0.0616
16:56:41:652,-0.3493,4.3621,6.4582,42.4963,-0.8334,0.5694,1.1273,-0.1261
16:56:41:673,-0.3613,4.4195,6.8243,42.6418,-0.8639,0.5352,1.1456,-0.354
16:56:41:691,-0.2082,4.4076,7.8461,40.85,-0.9739,0.4998,1.1602,-0.6224
16:56:41:709,0.0215,4.2353,9.2315,40.0892,-1.0618,0.4485,1.1541,-0.9309
16:56:41:730,0.7513,4.2616,10.9017,40.7753,-0.8468,0.2249,0.9635,-1.2759
16:56:41:753,0.7729,4.52,10.7151,40.4385,-0.5573,0.1309,0.7693,-2.0496
16:56:41:769,0.8542,4.9747,9.8848,40.0116,-0.2787,0.0771,0.5787,-2.4573
16:56:41:792,0.8183,5.3049,9.7579,40.7753,-0.126,0.1174,0.4247,-2.8687
16:56:41:810,0.213,5.4197,10.4997,39.8898,-0.1492,0.1956,0.2989,-3.2791
16:56:41:830,-0.4714,5.2379,12.2441,37.8993,-0.286,0.2836,0.2256,-3.6865
16:56:41:851,-0.7202,4.9316,14.6249,38.9235,-0.4241,0.2921,0.1914,-4.0918
16:56:41:873,-0.2919,4.6995,15.7496,37.8201,-0.3618,-0.0011,0.1376,-4.4929
16:56:41:891,0.5049,4.8766,13.273,39.3209,0.0108,-0.4983,0.0314,-4.8843
16:56:41:909,1.5362,4.6756,10.3753,35.773,0.4054,-0.6706,-0.0664,-5.2613
16:56:41:929,2.5795,4.2186,9.2124,37.1959,0.469,-0.513,-0.1531,-5.6228
16:56:41:950,3.0054,2.9982,10.3753,37.6209,0.199,-0.3297,-0.3241,-5.9652
16:56:41:972,2.9815,1.9167,13.0313,37.7434,-0.0612,-0.1868,-0.6125,-6.2813
16:56:41:992,2.2636,1.2227,14.7852,37.5221,0.0524,-0.0793,-0.9668,-6.5578
16:56:42:010,1.5745,0.9093,14.3785,39.5616,0.4543,-0.2295,-1.3064,-6.7817
16:56:42:030,0.7489,1.084,12.9523,35.6595,0.8501,-0.4103,-1.5923,-6.9413
16:56:42:053,-0.2082,1.1174,11.6387,36.7377,1.0713,-0.4714,-1.7731,-6.9413
16:56:42:071,-1.1438,1.3639,10.9472,36.1291,1.1226,-0.513,-1.8672,-6.9413
16:56:42:091,-2.0483,1.651,10.5069,36.1291,1.0456,-0.6669,-1.9075,-6.9413
16:56:42:110,-2.5795,1.8951,9.6957,37.5323,0.9797,-0.9223,-1.8819,-6.8083
16:56:42:128,-2.7781,2.077,8.1212,35.8225,1.0456,-1.1434,-1.8012,-6.6055
16:56:42:152,-2.6895,2.3378,6.1232,36.4959,1.1788,-1.2656,-1.6888,-6.0112
16:56:42:170,-2.5029,2.7135,4.3238,35.5086,1.2448,-1.268,-1.5532,-5.633
16:56:42:191,-2.5005,3.9553,2.3545,36.6204,0.9967,-1.0505,-1.238,-5.2128
16:56:42:208,-2.5412,4.6564,2.3904,33.8882,0.6742,-0.8758,-1.0315,-4.7597
16:56:42:229,-2.2588,4.9484,3.5007,36.8899,0.2796,-0.6486,-0.7908,-4.2854
16:56:42:250,-2.1631,5.0943,5.2546,35.5192,-0.0747,-0.4433,-0.5783,-3.8002
16:56:42:274,-2.3474,5.0967,7.2048,35.5847,-0.3031,-0.326,-0.4304,-3.3116
16:56:42:289,-2.132,4.9507,8.7577,35.5847,-0.3422,-0.2723,-0.2973,-2.8252
16:56:42:310,-1.4716,4.6205,9.521,34.4115,-0.2042,-0.2576,-0.2056,-2.3447
16:56:42:330,-1.0648,4.3597,9.3344,33.6114,0.0414,-0.2931,-0.224,-1.8684
16:56:42:350,-1.2586,4.654,8.3151,33.6418,0.2943,-0.2747,-0.3302,-1.3911
16:56:42:370,-1.6917,4.8598,7.6259,34.1078,0.425,-0.133,-0.4146,-0.9092
16:56:42:391,-2.2301,4.8359,7.7097,34.1902,0.3688,0.038,-0.4512,-0.4207
16:56:42:410,-2.6776,4.8239,7.6475,33.074,0.2026,0.1247,-0.4671,0.0751
16:56:42:429,-2.814,4.6421,7.4058,34.1692,-0.0075,0.1736,-0.4439,0.5764
16:56:42:450,-3.1514,4.8909,8.6907,34.4615,-0.2983,0.3141,-0.4194,1.0803
16:56:42:472,-3.7065,4.4387,10.3466,32.8328,-0.5475,0.407,-0.4035,1.5854
16:56:42:490,-4.4841,3.9793,11.2223,34.818,-0.5756,0.4118,-0.384,2.0904
16:56:42:510,-5.2307,4.142,10.5117,33.4964,-0.3874,0.4949,-0.3351,2.5946
16:56:42:531,-5.2068,3.8285,10.0188,33.076,-0.2995,0.6293,-0.1348,3.0919
16:56:42:549,-4.5105,3.0724,10.8012,32.3277,-0.5255,0.5511,0.1169,3.5706
16:56:42:569,-3.8118,2.7159,11.9976,32.285,-0.7869,0.2542,0.2354,4.0237
16:56:42:590,-4.4219,3.0772,12.5886,33.3954,-0.7002,0.1443,0.2,4.4544
16:56:42:609,-5.8002,3.4959,11.5908,33.1743,-0.2567,0.3129,0.167,4.8698
16:56:42:628,-6.0323,3.7496,9.8201,31.1611,0.1428,0.4717,0.2782,5.2699
16:56:42:649,-4.3884,3.7639,6.2883,32.674,0.2491,0.407,0.6385,5.6484
16:56:42:670,-3.4193,3.7735,4.666,33.5407,0.0841,0.253,0.7778,6.3159
16:56:42:692,-2.5412,3.6921,3.9194,33.3366,-0.1932,0.1871,0.9037,6.5909
16:56:42:711,-1.7396,3.5486,4.0128,32.4786,-0.4839,0.2249,0.9953,6.8194
16:56:42:729,-1.1127,3.4146,4.7904,32.8884,-0.699,0.3557,1.043,6.9987
16:56:42:751,-1.0361,3.4648,5.5107,32.0666,-0.7589,0.4827,1.0332,7.13
16:56:42:770,-1.0074,3.5677,5.9031,32.4605,-0.7344,0.545,1.0148,7.13
16:56:42:790,-0.5671,3.5844,5.8696,31.0009,-0.7014,0.5133,1.0368,7.13
16:56:42:811,-0.1412,3.6227,6.006,31.6365,-0.7112,0.4754,1.0381,7.13
16:56:42:829,-0.1914,3.7376,6.6161,32.3258,-0.7772,0.4485,0.9916,7.13
16:56:42:847,-0.2608,3.8883,7.3077,31.8975,-0.8407,0.4057,0.9367,7.13
16:56:42:868,0.0048,3.8405,8.2313,32.6376,-0.8664,0.3874,0.9012,7.0065
16:56:42:888,-0.1962,4.1587,9.277,31.111,-0.8651,0.374,0.8157,6.8499
16:56:42:908,-0.4546,4.3645,10.3585,32.1409,-0.8175,0.3214,0.7045,6.6657
16:56:42:927,-0.2752,4.5607,10.7845,32.4328,-0.6782,0.1968,0.6251,6.4591
16:56:42:948,0.0215,4.745,10.4566,31.6724,-0.4632,0.0832,0.5469,6.2343
16:56:42:967,-0.0455,4.9364,10.5763,31.3357,-0.3105,0.1101,0.4516,5.9968
16:56:42:988,-0.536,4.9914,11.3755,30.1911,-0.3019,0.1858,0.349,5.7509
16:56:43:013,-1.1533,4.8311,12.9954,30.511,-0.3984,0.2396,0.2806,5.4988
16:56:43:033,-1.3424,4.4818,15.0915,30.4537,-0.4729,0.1699,0.2342,5.2414
16:56:43:050,-0.6915,4.2353,15.4193,31.8384,-0.3215,-0.1929,0.1841,4.9813
16:56:43:071,0.0359,4.331,12.5432,31.3357,0.1037,-0.6694,0.0631,4.7259
16:56:43:094,1.1581,4.2975,9.7364,29.919,0.4604,-0.8086,-0.0395,4.2446
16:56:43:111,2.3593,3.0269,10.7175,28.8812,0.1269,-0.3151,-0.307,4.0237
16:56:43:129,1.6726,2.1607,14.5197,29.6884,-0.2152,-0.0231,-0.5844,3.8241
16:56:43:154,0.6963,1.3663,17.4676,29.3902,-0.2042,0.0148,-0.8861,3.656
16:56:43:171,0.0215,1.072,17.6901,28.6393,0.2454,-0.221,-1.1671,3.5312
16:56:43:188,-0.6102,1.3208,15.5797,27.1729,0.9393,-0.4153,-1.4041,3.5312
16:56:43:208,-1.3089,1.5218,13.1366,28.2648,1.4903,-0.5154,-1.5361,3.5312
16:56:43:229,-1.9645,1.7611,10.8706,28.8427,1.6895,-0.7427,-1.5996,3.5312
16:56:43:250,-2.3928,2.053,8.8271,27.0703,1.7127,-1.0151,-1.6057,3.6552
16:56:43:270,-2.4885,2.2827,6.9775,26.5503,1.6858,-1.1703,-1.5263,3.8407
16:56:43:294,-2.3737,2.4407,5.659,27.8825,1.6113,-1.2057,-1.4054,4.0819
16:56:43:309,-2.3067,2.7805,4.6205,25.1719,1.5099,-1.2118,-1.282,4.3716
16:56:43:330,-2.0674,3.0102,3.7304,25.9691,1.3621,-1.2216,-1.1329,4.7034
16:56:43:353,-1.6893,3.3476,3.3571,24.6848,1.1629,-1.1715,-0.9778,5.0683
16:56:43:369,-1.1557,3.728,3.3165,25.1271,0.9809,-1.0212,-0.8483,5.4588
16:56:43:388,-0.9978,4.2616,3.4217,27.1655,0.8306,-0.7903,-0.7603,5.8701
16:56:43:411,-1.1127,4.7402,4.1731,26.4194,0.6754,-0.5399,-0.687,6.2985
16:56:43:428,-1.6199,5.1972,5.1733,25.2342,0.5166,-0.3627,-0.621,6.7408
16:56:43:448,-2.4024,5.604,6.0467,26.9013,0.3847,-0.2723,-0.5404,7.1942
16:56:43:468,-2.6656,5.6423,7.2072,25.0127,0.2649,-0.2417,-0.3755,7.6515
16:56:43:492,-2.4191,5.3551,7.8604,26.3622,0.221,-0.2833,-0.1775,8.1044
16:56:43:510,-1.8353,5.1182,7.6666,24.3437,0.2979,-0.3175,-0.0309,8.5473
16:56:43:676,-1.4764,4.9268,6.987,24.8125,0.414,-0.2357,0.0375,9.3963
16:56:43:677,-2.5866,4.946,7.121,24.8707,0.2026,0.1247,-0.0028,9.8051
16:56:43:678,-2.5508,4.7498,7.5613,25.663,-0.126,0.1174,0.0228,10.2032
16:56:43:679,-2.0267,4.6875,8.1452,28.219,-0.4229,0.0832,0.0595,10.5872
16:56:43:681,-1.9573,4.7928,9.3655,26.3154,-0.5915,0.159,0.0191,10.9579
16:56:43:682,-2.5771,4.7522,10.0642,23.5207,-0.5793,0.2897,-0.0822,11.3198
16:56:43:683,-4.4076,5.324,10.4638,23.093,-0.4192,0.4803,-0.2105,11.6815
16:56:43:684,-6.2166,5.7882,10.1288,23.2725,-0.2213,0.6892,-0.1788,12.0442
16:56:43:691,-6.4965,5.2546,9.8106,24.4169,-0.1883,0.7258,0.1376,12.3955
16:56:43:707,-5.1733,4.2975,9.5785,24.8125,-0.3887,0.5169,0.542,12.7172
16:56:43:727,-4.1611,3.6706,10.1001,23.9697,-0.633,0.3593,0.7803,12.9988
16:56:43:748,-4.1444,3.07,10.8562,24.4326,-0.6794,0.4717,0.8487,13.2384
16:56:43:771,-3.8859,2.7661,10.3657,22.8335,-0.5487,0.5377,0.8609,13.4371
16:56:43:790,-3.393,2.7422,8.9324,23.784,-0.4216,0.4228,0.8511,13.5979
16:56:43:809,-2.7422,2.857,7.2024,23.9146,-0.3447,0.3178,0.8218,13.722
16:56:43:830,-2.0865,3.0532,5.6782,22.7597,-0.2995,0.3459,0.8084,13.722
16:56:43:849,-1.7922,3.3667,4.5057,24.0897,-0.3007,0.4961,0.7827,13.722
16:56:43:871,-1.6319,3.6371,3.9553,22.041,-0.3899,0.6855,0.7803,13.722
16:56:43:892,-1.7037,3.7424,3.7902,22.7704,-0.5499,0.8382,0.8255,13.722
16:56:43:909,-1.6152,3.807,4.1492,23.0726,-0.7747,0.9054,0.9269,13.722
16:56:43:930,-1.4572,3.7448,5.3623,23.7663,-1.013,0.9665,1.0478,13.6269
16:56:43:951,-1.1222,3.6323,6.798,22.56,-1.1779,0.9934,1.1578,13.4818
16:56:43:970,-0.8016,3.6921,7.7193,21.6373,-1.2219,0.9445,1.2311,13.2863
16:56:43:989,-0.6485,3.7567,8.5184,22.8878,-1.2023,0.9079,1.2702,13.0399
16:56:44:011,0.0072,3.7328,10.1743,22.6844,-1.0814,0.7686,1.2922,12.4019
16:56:44:030,0.4786,3.7663,10.7677,22.2612,-0.947,0.6696,1.2482,12.0156
16:56:44:049,1.2084,3.7807,10.9543,21.7476,-0.765,0.5511,1.1541,11.5893
16:56:44:069,1.6869,4.075,10.3585,20.0901,-0.5267,0.4155,0.9941,11.1313
16:56:44:092,1.7611,4.5894,9.6909,20.3626,-0.319,0.3495,0.7888,10.6515
16:56:44:110,1.5745,4.946,9.9733,22.2612,-0.2482,0.3569,0.619,10.1571
16:56:44:130,1.2491,5.0465,11.0285,21.8449,-0.2983,0.3618,0.4883,9.6531
16:56:44:152,0.7968,4.9771,12.5982,23.0073,-0.4009,0.3227,0.3893,9.1425
16:56:44:172,0.524,4.5535,14.7182,23.0667,-0.5023,0.2274,0.3148,8.6269
16:56:44:191,1.2108,4.1037,15.8955,21.8449,-0.4412,-0.0842,0.2171,8.1084
16:56:44:209,2.0243,4.2138,13.6104,20.7174,-0.0454,-0.5789,0.0289,7.5974
16:56:44:229,2.5675,4.2114,9.923,21.5628,0.4775,-0.8807,-0.2069,7.1045
16:56:44:248,3.3284,4.4459,7.5182,21.1039,0.7243,-0.8331,-0.3803,6.6367
16:56:44:269,4.0463,4.0822,7.4536,20.1656,0.5838,-0.5912,-0.5184,6.1962
16:56:44:291,4.2616,3.137,9.6574,21.4316,0.1855,-0.3041,-0.7041,5.7855
16:56:44:309,2.7159,2.6034,13.7228,20.5139,-0.1932,0.0514,-1.0376,5.4144
16:56:44:329,0.5504,1.9478,19.0421,22.4164,-0.3667,0.2836,-1.3663,5.093
16:56:44:352,-0.5288,1.1653,20.8846,21.9942,-0.0808,-0.0389,-1.5544,4.828
16:56:44:370,-0.5719,0.6604,18.5803,22.2683,0.6376,-0.6034,-1.6778,4.626
16:56:44:390,-1.261,0.7537,14.8977,24.777,1.3388,-0.9247,-1.8525,4.4974
16:56:44:409,-2.6297,1.0337,12.6963,23.0713,1.6125,-1.0713,-2.0113,4.4974
16:56:44:429,-3.4002,1.0959,11.2176,23.0732,1.6088,-1.3144,-2.0285,4.4974
16:56:44:450,-3.2447,0.9093,9.3177,25.4736,1.6528,-1.5869,-1.9307,4.6045
16:56:44:472,-2.4814,0.9667,4.4339,23.7663,1.8092,-1.8935,-1.7682,4.6045
16:56:44:492,-2.1416,1.2084,3.2782,23.0175,1.6577,-1.8324,-1.7181,4.6045
16:56:44:511,-1.8736,1.5218,2.936,23.6246,1.4085,-1.6504,-1.6766,4.9911
16:56:44:529,-1.9669,2.0435,3.2901,24.5917,1.1678,-1.4036,-1.6363,5.4305
16:56:44:550,-2.4,2.7135,3.5844,23.4933,0.9638,-1.1862,-1.5715,5.9187
16:56:44:569,-2.6106,3.1466,4.3813,25.1475,0.7341,-1.0408,-1.4469,6.4495
16:56:44:594,-2.8379,3.5725,5.1111,26.1722,0.5178,-0.9724,-1.2979,7.0158
16:56:44:609,-3.3165,4.1803,5.6447,26.0782,0.4213,-0.8648,-1.1525,7.6115
16:56:44:628,-3.649,4.5679,5.4843,24.032,0.403,-0.7146,-0.9631,8.2288
16:56:44:649,-3.527,4.6756,4.9962,24.6741,0.3346,-0.5753,-0.7249,8.8573
16:56:44:669,-3.2375,4.7474,5.013,25.891,0.1098,-0.4372,-0.5001,9.4866
16:56:44:690,-3.0724,4.611,5.9509,24.6474,-0.225,-0.2405,-0.3351,10.1082
16:56:44:709,-3.2925,4.4674,7.3053,24.8835,-0.556,-0.0512,-0.2618,10.7187
16:56:44:729,-3.7256,4.3621,8.3175,25.1623,-0.8102,0.0514,-0.274,11.3178
16:56:44:752,-3.9338,4.5344,8.7721,26.5386,-0.9348,0.1138,-0.3095,11.9063
16:56:44:769,-4.2903,4.855,8.8152,25.6216,-0.9592,0.2237,-0.3217,12.4853
16:56:44:789,-4.9292,4.6875,8.9803,25.838,-0.9641,0.4082,-0.3058,13.0548
16:56:44:808,-6.0538,4.3334,9.5498,27.6403,-1.0264,0.6989,-0.2423,13.6125
16:56:44:831,-6.1663,3.7854,11.4185,29.4492,-1.2561,0.8932,-0.0883,14.1511
16:56:44:848,-4.9196,2.4455,14.6776,28.154,-1.6446,0.7222,0.1279,14.6582
16:56:44:870,-3.3356,1.4668,17.0201,28.5614,-1.7655,0.2995,0.2452,15.1281
16:56:44:889,-3.0078,1.6319,17.8576,28.154,-1.2256,0.1724,0.0912,15.57
16:56:44:906,-4.7115,2.3617,15.0533,27.7414,-0.0832,0.385,-0.136,16.0009
16:56:44:926,-6.6185,4.6277,8.5184,28.7725,1.3046,0.7955,-0.0761,16.4304
16:56:44:945,-6.4415,5.0895,6.1137,27.5036,1.1189,0.5853,0.2146,17.2846
16:56:44:967,-5.3982,5.1015,4.4578,27.2762,0.6473,0.253,0.6056,17.6745
16:56:44:990,-4.3932,4.7665,3.5581,26.9168,0.1232,0.0221,0.966,18.0166
16:56:45:009,-3.2136,4.2329,3.1083,27.5036,-0.2799,0.0172,1.2775,18.2969
16:56:45:029,-2.1057,3.7831,3.1178,26.5142,-0.5243,0.2274,1.5158,18.506
16:56:45:049,-1.4907,3.5198,3.326,28.5317,-0.6819,0.479,1.6221,18.6407
16:56:45:069,-1.6271,3.6323,4.1396,26.1677,-0.8346,0.6635,1.6147,18.6407
16:56:45:089,-1.6439,3.5557,5.2714,27.1352,-0.9812,0.7222,1.6257,18.6407
16:56:45:110,-1.084,3.4863,6.0467,27.293,-1.0398,0.6305,1.6721,18.6407
16:56:45:127,-0.6078,3.5031,6.1926,27.6202,-1.0081,0.5133,1.666,18.4896
16:56:45:146,-0.5073,3.4457,7.1593,28.1973,-0.9885,0.5401,1.5878,18.2746
16:56:45:168,-0.5264,3.6467,8.2002,29.9755,-0.9372,0.5939,1.4706,18.0016
16:56:45:188,-0.3781,3.8357,9.076,26.61,-0.8163,0.5975,1.3508,17.6767
16:56:45:209,-0.1172,3.9984,9.7412,26.6485,-0.655,0.5218,1.2213,17.3072
16:56:45:228,-0.2225,4.41,9.9828,27.7853,-0.4705,0.385,1.0478,16.9031
16:56:45:248,-0.4642,4.8694,9.7173,27.8336,-0.2653,0.2726,0.8902,16.4714
16:56:45:269,-0.3517,5.0513,9.4804,27.3616,-0.1138,0.2689,0.823,16.0164
16:56:45:291,-0.5456,5.1829,9.8249,26.1922,-0.115,0.3263,0.7852,15.5401
16:56:45:311,-0.6891,5.1852,10.9974,27.6637,-0.2848,0.3667,0.7632,15.0431
16:56:45:329,-0.8231,4.7019,13.4644,26.1243,-0.517,0.363,0.7619,14.5238
16:56:45:350,-0.1866,4.1874,15.7759,26.5534,-0.6171,0.1602,0.7339,13.9831
16:56:45:369,1.1103,3.9817,15.3667,26.5388,-0.374,-0.348,0.6227,13.4262
16:56:45:393,2.9216,4.1683,10.6433,26.8677,0.5423,-0.7256,0.1768,12.309
16:56:45:411,3.2638,3.5127,10.6696,26.9442,0.6388,-0.469,-0.0456,11.7652
16:56:45:427,2.9958,3.003,11.9426,26.9612,0.5667,-0.2149,-0.3254,11.2402
16:56:45:448,1.7635,2.7924,13.8903,26.9935,0.4824,0.0136,-0.6332,10.7452
16:56:45:468,0.335,2.5196,15.259,27.0896,0.4751,0.0404,-0.8727,10.2898
16:56:45:488,-0.2441,2.065,15.4002,26.1922,0.5826,-0.166,-0.9912,9.8785
16:56:45:506,-0.402,1.5649,14.3067,27.8336,0.7891,-0.4714,-1.0657,9.5133
16:56:45:527,-0.9811,1.4501,12.323,27.4983,1.02,-0.7488,-1.1793,9.1993
16:56:45:548,-1.8879,1.5697,10.5978,27.0896,1.1727,-0.9308,-1.3015,8.9417
16:56:45:569,-2.7254,1.8616,9.2602,25.7847,1.2484,-1.0786,-1.3602,8.742
16:56:45:678,-2.9671,1.9525,7.2359,26.3766,1.3388,-1.2326,-1.3333,8.5996
16:56:45:679,-2.7087,2.1751,5.257,27.3701,1.4085,-1.3291,-1.2514,8.5095
16:56:45:680,-2.6082,2.5412,3.6754,28.2467,1.3926,-1.3242,-1.1952,8.5095
16:56:45:680,-2.7206,3.1107,2.8833,26.5518,1.3034,-1.1935,-1.1512,8.5095
16:56:45:681,-2.8762,3.6514,2.546,29.3407,1.1825,-0.9992,-1.0902,8.5095
16:56:45:690,-2.9097,4.3167,2.2516,27.0374,1.0517,-0.8282,-0.9875,8.5095
16:56:45:711,-2.7135,5.281,1.5697,27.8951,0.8868,-0.6608,-0.8397,8.6303
16:56:45:728,-2.6249,6.0586,2.0865,28.8168,0.5887,-0.3761,-0.665,8.7734
16:56:45:746,-2.9264,6.408,3.8094,28.808,0.1672,-0.1037,-0.4964,8.9303
16:56:45:769,-3.1824,6.6257,5.7284,26.6728,-0.1761,-0.0108,-0.3376,9.0939
16:56:45:787,-3.0891,6.6473,7.1689,29.1499,-0.2811,-0.028,-0.1653,9.2566
16:56:45:808,-2.5771,6.609,7.1521,30.6915,-0.1113,-0.0096,0.0033,9.4107
16:56:45:828,-1.8975,6.4487,6.4056,29.7289,0.1281,0.297,0.1926,9.6801
16:56:45:853,-2.2588,6.1113,7.0636,27.3051,-0.0588,0.3532,0.2134,9.793
16:56:45:872,-2.2373,5.8672,7.4249,30.2172,-0.2641,0.3202,0.2427,9.8882
16:56:45:890,-1.9525,5.415,7.5326,29.195,-0.462,0.3349,0.2745,9.8882
16:56:45:910,-1.9741,5.0584,8.8295,28.3627,-0.6904,0.4742,0.2464,9.8882
16:56:45:929,-2.4957,4.934,11.074,29.427,-0.8957,0.6073,0.123,9.8882
16:56:45:946,-3.7041,4.8766,12.603,30.5422,-0.8297,0.6623,-0.0395,9.8882
16:56:45:966,-5.793,5.348,12.1388,31.7339,-0.4375,0.7332,-0.1678,9.8882
16:56:45:988,-7.2598,5.8648,10.5308,30.2794,-0.0283,0.8541,-0.0761,9.8882
16:56:46:007,-6.9488,5.2929,9.9805,30.4457,0.0353,0.9079,0.327,9.8882
16:56:46:026,-5.5179,3.9577,9.7484,29.3912,-0.214,0.6403,0.784,9.8882
16:56:46:047,-4.7306,3.259,9.7555,31.1929,-0.4412,0.396,1.0344,9.8882
16:56:46:069,-4.8814,2.8092,10.002,29.089,-0.4534,0.5609,1.1566,9.7957
16:56:46:090,-4.9364,2.3761,9.9996,29.1705,-0.4009,0.8138,1.2812,9.6534
16:56:46:112,-4.1037,1.9597,9.5593,28.8063,-0.5182,0.6586,1.3948,9.4574
16:56:46:129,-2.5771,1.7755,8.3653,30.9711,-0.6403,0.2933,1.4681,9.2042
16:56:46:147,-1.194,2.0004,6.944,29.7829,-0.5866,0.1663,1.4437,8.8949
16:56:46:168,-0.6796,2.3426,5.7763,30.09,-0.4412,0.3129,1.3117,8.5373
16:56:46:190,-0.9212,2.9145,4.6349,28.6274,-0.3202,0.4998,1.1321,8.1411
16:56:46:206,-1.4572,3.5079,3.9769,30.3884,-0.3349,0.6476,1.0246,7.7126
16:56:46:227,-1.986,4.0774,3.9314,29.6412,-0.4742,0.7796,1.0283,7.252
16:56:46:247,-2.211,4.4243,4.532,30.1228,-0.6745,0.8859,1.1346,6.7553
16:56:46:269,-1.6439,4.4554,5.2235,31.308,-0.8554,0.9225,1.3166,5.6269
16:56:46:292,-0.8255,4.4722,6.5874,28.9602,-0.9678,0.9567,1.5573,4.995
16:56:46:311,0.0024,4.276,7.2048,30.4369,-0.9849,0.9445,1.6367,4.3112
16:56:46:329,0.5312,4.2736,8.4658,28.3625,-1.0362,0.9531,1.6123,3.5766
16:56:46:348,0.3541,4.3478,9.9852,29.7019,-1.0618,0.9628,1.473,2.798
16:56:46:369,0.1364,4.6588,11.3994,29.4972,-0.9861,0.8944,1.3081,1.9831
16:56:46:389,0.1675,4.8048,12.4211,29.7283,-0.8126,0.7307,1.1688,1.1389
16:56:46:410,0.4331,5.0704,12.3087,30.6865,-0.5145,0.4815,1.0148,0.2736
16:56:46:426,0.7202,5.4796,11.2008,30.1438,-0.1187,0.3361,0.8572,-0.6046
16:56:46:448,0.4092,5.8624,10.5787,30.3575,0.1684,0.3752,0.7143,-1.4875
16:56:46:469,-0.4834,6.1998,10.6744,30.0122,0.2344,0.4338,0.5995,-2.3704
16:56:46:488,-1.5194,6.2668,11.598,30.8487,0.1183,0.446,0.5677,-3.2517
16:56:46:506,-1.7563,5.8313,13.4525,29.5948,-0.0906,0.3495,0.641,-4.1357
16:56:46:526,-0.1866,5.2188,13.8497,31.8552,-0.1578,-0.0451,0.7619,-5.0286
16:56:46:546,1.7492,4.9005,11.3994,29.1661,0.0841,-0.5643,0.7778,-5.9304
16:56:46:568,3.2806,4.7258,9.0138,29.8922,0.3944,-0.7256,0.6251,-6.8337
16:56:46:589,3.8955,4.6684,8.2098,30.2844,0.513,-0.5105,0.3881,-7.7308
16:56:46:611,3.9458,3.9888,8.6764,31.0887,0.3908,-0.276,0.1352,-8.6138
16:56:46:628,4.0845,3.3523,10.471,29.8244,0.1697,-0.0499,-0.1201,-9.4758
16:56:46:648,3.405,2.7709,13.5673,30.7969,0.0096,0.231,-0.4329,-10.3075
16:56:46:670,1.8999,2.2588,16.7641,31.6265,-0.0197,0.2811,-0.7872,-11.0965
16:56:46:689,0.9212,1.9143,17.5801,31.5972,0.2393,-0.0634,-1.0682,-11.8323
16:56:46:709,0.3972,1.8042,15.5414,31.8956,0.7585,-0.502,-1.2649,-12.5055
16:56:46:726,-0.5695,1.8712,12.3661,31.0753,1.2448,-0.7842,-1.4274,-13.108
16:56:46:749,-2.7135,2.4957,8.6477,31.4348,1.3743,-1.1019,-1.5422,-14.0837
16:56:46:772,-2.8235,2.6178,7.0229,31.5468,1.268,-1.3144,-1.42,-14.4624
16:56:46:789,-2.5819,2.7661,5.2618,32.2086,1.1348,-1.4867,-1.2795,-14.7793
16:56:46:807,-2.2684,3.0413,4.5631,30.6975,0.9577,-1.4794,-1.1464,-15.0424
16:56:46:826,-1.9167,3.3882,4.4076,31.4393,0.7659,-1.3682,-1.0156,-15.2584
16:56:46:848,-1.6845,3.8213,4.1276,31.696,0.6278,-1.2607,-0.8898,-15.4339
16:56:46:871,-1.6367,4.2736,4.6349,29.8348,0.4861,-1.1153,-0.7774,-15.5752
16:56:46:890,-1.4979,4.6636,5.4054,30.9098,0.3114,-1.0408,-0.665,-15.6872
16:56:46:907,-1.4309,5.147,5.8672,31.5973,0.2197,-1.0175,-0.5587,-15.6872
16:56:46:926,-1.3926,5.3839,6.3123,33.1936,0.1916,-0.9443,-0.4536,-15.6872
16:56:46:948,-1.5769,5.6303,7.2311,30.1953,0.1745,-0.8294,-0.3718,-15.6872
16:56:46:969,-1.7779,5.7954,7.9585,32.0465,0.2283,-0.7488,-0.3144,-15.6872
16:56:46:988,-1.7683,6.1567,7.8485,31.9382,0.4079,-0.6987,-0.2838,-15.6872
16:56:47:008,-1.8975,6.8746,7.3484,31.8336,0.6266,-0.59,-0.3217,-15.6872
16:56:47:028,-3.1968,7.7719,7.2096,31.2801,0.8465,-0.3248,-0.439,-15.6872
16:56:47:046,-5.5059,8.5807,6.9703,31.0167,1.0908,0.0991,-0.4952,-15.6872
16:56:47:069,-6.4152,8.8869,5.1422,32.4196,1.2387,0.3947,-0.2447,-15.6872
16:56:47:086,-4.9651,8.1332,3.1585,31.692,0.9833,0.4192,0.3331,-15.6872
16:56:47:104,-2.5914,6.6999,4.0128,30.4976,0.2026,0.3801,0.8438,-15.6872
16:56:47:125,-1.2514,5.8863,8.0064,31.4823,-0.688,0.429,0.9696,-15.6872
16:56:47:145,-1.541,4.989,11.0812,31.6654,-1.035,0.4986,0.8072,-15.7846
16:56:47:168,-1.8568,4.5368,12.0096,29.5659,-0.7576,0.5975,0.6251,-15.9077
16:56:47:186,-1.8401,4.4913,11.0524,31.6909,-0.2592,0.7148,0.5152,-16.0508
16:56:47:207,-0.6628,3.2207,10.0881,31.5729,0.0084,0.7918,0.4944,-16.2134
16:56:47:229,-0.6676,3.0461,10.4758,30.943,-0.0991,0.655,0.3686,-16.5845
16:56:47:248,-1.5553,3.2662,9.9948,31.9691,-0.0356,0.6244,0.1804,-16.7815
16:56:47:271,-2.8499,3.7998,8.9922,31.9368,0.0914,0.7099,0.0668,-16.9757
16:56:47:291,-3.6251,4.3741,8.1452,32.1956,0.0462,0.7222,0.0802,-17.1666
16:56:47:309,-3.3835,4.5488,7.2646,32.6899,-0.1346,0.5853,0.2317,-17.3618
16:56:47:326,-2.3665,4.465,6.2213,31.6345,-0.3276,0.396,0.4345,-17.5709
16:56:47:348,-1.4189,4.4865,5.5083,30.7343,-0.4876,0.3288,0.5616,-17.8004
16:56:47:372,-0.9212,4.4148,5.2259,30.4377,-0.5768,0.4326,0.608,-18.0522
16:56:47:389,-0.8495,4.4626,5.4126,31.8989,-0.6098,0.5572,0.6129,-18.325
16:56:47:407,-0.9715,4.7258,5.5083,31.9698,-0.5878,0.5853,0.6153,-18.6181
16:56:47:427,-0.5982,4.8407,4.9938,30.539,-0.5023,0.5731,0.6776,-18.9327
16:56:47:449,0.0622,4.9388,4.2281,31.1695,-0.44,0.5866,0.7668,-19.2722
16:56:47:470,0.6437,5.056,3.9673,31.1385,-0.4986,0.6537,0.8133,-19.638
16:56:47:491,1.0672,4.9938,4.3525,30.9083,-0.6562,0.7405,0.8133,-20.0304
16:56:47:510,1.4501,5.0273,5.0489,32.7559,-0.8089,0.8028,0.7632,-20.448
16:56:47:526,1.584,5.3097,5.9055,31.0266,-0.8896,0.837,0.6593,-20.8864
16:56:47:547,1.0696,5.5705,7.0947,32.1724,-0.9213,0.8761,0.5188,-21.339
16:56:47:568,0.8112,6.0849,8.4419,30.7926,-0.9189,0.8871,0.3979,-21.8016
16:56:47:590,0.6748,6.4032,9.9302,32.2086,-0.8297,0.8724,0.3405,-22.2717
16:56:47:742,0.5862,6.6688,11.0477,31.3236,-0.655,0.7796,0.3075,-22.7462
16:56:47:743,0.859,7.0517,11.409,32.0986,-0.4143,0.611,0.305,-23.2242
16:56:47:743,1.2825,7.1354,11.5454,32.5231,-0.2274,0.4534,0.3221,-23.7052
16:56:47:744,0.4259,6.7884,13.5625,31.3822,-0.2983,0.1761,0.2574,-24.6681
16:56:47:744,0.5049,6.384,14.9456,31.7838,-0.2946,-0.0426,0.2195,-25.1478
16:56:47:745,1.2897,6.4869,13.5075,31.2345,-0.0124,-0.4568,0.1438,-25.6227
16:56:47:746,2.1248,6.4582,10.7797,32.0505,0.381,-0.7488,0.0338,-26.0866
16:56:47:746,2.7517,6.1472,10.0714,32.6171,0.4641,-0.7195,-0.081,-26.536
16:56:47:767,2.5555,5.2235,11.9521,33.026,0.2637,-0.5069,-0.2704,-26.9655
16:56:47:786,1.3089,4.5511,14.8522,31.5833,0.1134,-0.2723,-0.5331,-27.3662
16:56:47:806,-0.2465,3.9505,16.7234,31.4691,0.2271,-0.2063,-0.7908,-27.7285
16:56:47:825,-0.8471,3.7376,16.2281,31.1257,0.6168,-0.4458,-0.9436,-28.0449
16:56:47:847,-0.7849,3.5988,13.3137,30.7097,1.0566,-0.8575,-1.0034,-28.312
16:56:47:868,-0.5312,3.2542,10.2389,30.7561,1.2594,-1.2656,-1.0266,-28.529
16:56:47:894,-0.3422,3.0508,7.5757,29.5726,1.2362,-1.5417,-1.067,-28.6959
16:56:47:911,-0.3422,2.881,5.7882,30.39,1.0945,-1.5893,-1.1085,-28.8137
