Time,Acc_X,Acc_Y,Acc_Z,Meg,Gyr_X,Gyr_Y,Gyr_Z,Ore
17:15:28:961,0.0011,2.3681,9.825,59.9441,-0.0887,0.0045,-0.0342,-109.0841
17:15:28:980,0.042,2.394,9.648,60.5402,-0.0685,-0.0615,-0.0428,-109.0841
17:15:29:000,0.162,2.459,9.552,61.0134,-0.06,-0.0551,-0.0407,-109.0841
17:15:29:021,0.269,2.514,9.4661,60.9519,-0.044,-0.003,-0.03,-109.0841
17:15:29:040,0.222,2.538,9.3581,61.1628,-0.0462,0.0322,-0.0257,-109.0841
17:15:29:060,0.0971,2.493,9.344,61.2998,-0.0536,0.0151,-0.0247,-109.0841
17:15:29:080,0.2261,2.5601,9.2891,61.3529,-0.0462,0.0322,-0.03,-109.0841
17:15:29:100,-0.1631,2.378,9.507,61.5892,-0.044,0.045,-0.03,-109.0841
17:15:29:122,-0.0581,2.375,9.569,61.5484,-0.0525,0.0268,-0.0109,-109.0841
17:15:29:140,-0.0431,2.351,9.485,61.4812,-0.043,0.0556,-0.0098,-109.0841
17:15:29:161,-0.12,2.3561,9.456,61.2749,-0.06,0.0609,-0.0098,-109.0841
17:15:29:180,-0.108,2.3561,9.452,61.1135,-0.0707,0.0279,0.004,-109.0841
17:15:29:200,-0.005,2.358,9.387,61.0664,-0.0696,0.0098,0.0115,-109.0841
17:15:29:222,0.03,2.37,9.428,61.1399,-0.0824,-0.0019,0.0147,-109.0841
17:15:29:240,0.0161,2.318,9.461,60.9544,-0.0707,0.0162,0.021,-109.0841
17:15:29:260,0.02,2.339,9.483,60.2841,-0.0516,0.0194,0.0264,-109.0841
17:15:29:281,0.02,2.351,9.428,59.6042,-0.061,0.0183,0.0232,-109.0841
17:15:29:300,-0.038,2.342,9.416,59.2833,-0.0707,0.0268,0.0307,-109.0841
17:15:29:322,-0.003,2.394,9.3731,59.8282,-0.0727,0.0268,0.036,-109.0841
17:15:29:343,0.0371,2.3801,9.409,60.7549,-0.0877,0.0257,0.0338,-109.0841
17:15:29:359,-0.017,2.2871,9.483,61.5243,-0.094,0.047,0.0318,-109.0841
17:15:29:380,-0.06,2.306,9.5831,61.8151,-0.092,0.045,0.0318,-109.0841
17:15:29:400,-0.029,2.354,9.5591,61.6079,-0.0877,0.0364,0.0412,-109.0841
17:15:29:422,-0.0221,2.3681,9.6701,61.3536,-0.077,0.0003,0.0424,-109.0841
17:15:29:442,-0.101,2.43,9.464,61.4422,-0.0323,-0.0125,0.0434,-109.0841
17:15:29:460,-0.108,2.5481,9.167,61.6725,-0.0462,0.0225,0.0572,-109.0841
17:15:29:480,-0.242,2.5331,9.356,61.9585,-0.1111,0.0705,0.0657,-109.0841
17:15:29:499,-0.0671,2.586,9.579,62.1207,-0.1313,0.0353,0.0446,-109.0841
17:15:29:522,-0.278,2.5211,9.5471,62.2307,-0.1132,-0.0008,0.019,-109.0841
17:15:29:541,-0.347,2.526,9.581,62.3791,-0.1026,0.0131,0.0466,-109.0841
17:15:29:560,-0.29,2.555,9.5981,62.3907,-0.1111,0.0364,0.0785,-109.0841
17:15:29:580,-0.3191,2.5361,9.5231,62.5534,-0.1132,0.0758,0.0859,-109.0841
17:15:29:600,-0.362,2.5211,9.509,62.6117,-0.1293,0.1024,0.0956,-109.0841
17:15:29:621,-0.5321,2.4401,9.4399,62.5724,-0.125,0.1195,0.1052,-109.0841
17:15:29:641,-0.56,2.4641,9.3701,62.496,-0.1122,0.128,0.1371,-109.0841
17:15:29:660,-0.6041,2.5451,9.3701,62.4032,-0.1068,0.0993,0.1636,-109.0841
17:15:29:681,-0.297,2.823,9.485,62.4503,-0.0983,0.0279,0.1594,-109.0841
17:15:29:701,-0.228,2.792,9.3251,62.6158,-0.1037,-0.0774,0.1382,-109.0841
17:15:29:721,-0.125,2.792,9.545,62.8204,-0.1515,-0.0668,0.1371,-109.0841
17:15:29:746,-0.0581,2.777,9.698,62.7801,-0.1547,0.0385,0.1551,-109.0841
17:15:29:761,-0.266,2.768,9.6221,62.7274,-0.1228,0.144,0.153,-109.0841
17:15:29:780,-0.5321,2.792,9.459,62.7639,-0.0962,0.1534,0.1605,-109.0841
17:15:29:800,-0.56,2.931,9.291,62.865,-0.061,0.1226,0.1871,-109.0841
17:15:29:822,-0.5921,3.036,9.126,63.114,-0.0462,0.0993,0.1871,-109.0841
17:15:29:840,-0.785,3.0191,8.9921,63.3205,-0.0718,0.1204,0.1807,-109.0841
17:15:29:860,-0.975,2.897,9.0161,63.3168,-0.1057,0.1375,0.2031,-109.0841
17:15:29:881,-1.1111,2.7701,9.0971,63.2937,-0.1111,0.111,0.2339,-109.0841
17:15:29:900,-1.118,2.777,9.1601,63.4157,-0.1005,0.0609,0.2828,-109.0841
17:15:29:921,-0.9911,2.754,9.195,63.45,-0.0855,-0.0062,0.3255,-109.0841
17:15:29:940,-0.8981,2.763,9.296,63.4762,-0.1037,-0.0956,0.3329,-109.0841
17:15:29:962,-0.8141,2.682,9.5141,63.6021,-0.1324,-0.1243,0.352,-109.0841
17:15:29:980,-0.608,2.777,9.696,63.8432,-0.1037,-0.1072,0.4212,-109.0841
17:15:30:000,-0.302,2.957,9.789,63.9714,-0.077,-0.1072,0.4521,-109.0841
17:15:30:023,-0.249,3.077,9.8441,64.2932,-0.0525,-0.1072,0.4276,-109.1901
17:15:30:041,-0.3431,3.113,9.825,64.4738,-0.0078,-0.0828,0.4202,-109.3084
17:15:30:061,-0.264,3.189,9.7631,64.4674,0.0177,-0.0848,0.4371,-109.438
17:15:30:081,-0.108,3.182,9.8471,64.631,0.0272,-0.1338,0.418,-109.579
17:15:30:100,-0.041,3.086,9.899,64.8567,0.0411,-0.1775,0.3787,-109.7308
17:15:30:122,0.042,2.9501,10.1561,64.8933,0.0571,-0.1935,0.3585,-109.8918
17:15:30:140,0.143,2.856,10.395,64.8381,0.1209,-0.186,0.3403,-110.0607
17:15:30:160,0.1811,2.8331,10.34,64.7492,0.2199,-0.153,0.3255,-110.2368
17:15:30:181,0.224,2.8781,10.232,64.485,0.2432,-0.1573,0.3062,-110.4191
17:15:30:200,0.3101,2.924,10.2821,64.3753,0.2199,-0.1306,0.2797,-110.6084
17:15:30:221,0.3101,2.8421,10.445,64.4015,0.2262,-0.0839,0.2637,-110.8039
17:15:30:240,0.3011,2.8541,10.3661,64.2734,0.2986,-0.0221,0.2648,-111.0045
17:15:30:260,0.324,2.969,9.938,64.1224,0.3508,0.0247,0.2669,-111.2087
17:15:30:281,0.284,2.9831,9.7961,63.9524,0.3167,0.0023,0.2382,-111.4163
17:15:30:300,0.2,2.663,9.749,63.8164,0.2199,-0.1093,0.1796,-111.6269
17:15:30:321,0.473,2.4521,9.686,63.7885,0.0624,-0.1903,0.1402,-111.8385
17:15:30:340,0.6521,1.961,9.9191,63.868,-0.1356,-0.2456,0.0945,-112.0491
17:15:30:360,0.9131,1.5131,10.637,63.8768,-0.2685,-0.369,0.0774,-112.2572
17:15:30:380,1.167,1.032,10.68,63.9815,-0.0813,-0.4393,0.0807,-112.4617
17:15:30:400,1.1651,0.998,9.662,64.0473,0.287,-0.4084,0.0978,-112.6625
17:15:30:422,1.16,1.25,8.7881,64.1684,0.554,-0.335,0.1052,-112.861
17:15:30:442,0.851,1.4801,8.456,64.0964,0.7062,-0.2126,0.1189,-113.0583
17:15:30:462,0.777,1.346,8.511,63.9225,0.8095,-0.2265,0.3798,-113.2553
17:15:30:480,1.2221,1.5251,9.002,63.6923,0.9318,-0.2775,0.3861,-113.4582
17:15:30:500,1.9841,1.7621,8.592,63.3063,1.0372,-0.5202,0.335,-113.6725
17:15:30:522,2.5631,2.0861,8.298,62.9141,1.0765,-0.5478,0.2307,-113.8964
17:15:30:541,3.143,2.354,7.752,62.709,1.0479,-0.4063,0.0509,-114.1273
17:15:30:561,2.898,2.763,7.44,62.5425,0.8722,-0.136,-0.2343,-114.3603
17:15:30:579,2.288,3.038,7.091,62.3188,0.3997,-0.0071,-0.5004,-114.5852
17:15:30:600,2.079,3.338,7.175,62.0462,-0.2463,0.0131,-0.6366,-114.7901
17:15:30:622,2.048,3.333,7.682,61.7748,-0.672,0.1705,-0.7314,-114.9659
17:15:30:642,1.859,3.35,8.384,61.5883,-0.8284,0.3366,-0.7846,-115.1077
17:15:30:660,1.6151,3.371,8.592,61.6271,-0.7975,0.4047,-0.792,-115.2134
17:15:30:680,1.232,3.4331,8.5061,61.6122,-0.6592,0.4482,-0.7143,-115.2134
17:15:30:700,0.918,3.501,8.2661,61.5931,-0.4527,0.4599,-0.6057,-115.2134
17:15:30:722,0.849,3.7211,8.2661,61.4824,-0.2739,0.3525,-0.5035,-115.2134
17:15:30:740,0.8441,3.96,8.075,61.4522,-0.1728,0.1184,-0.4429,-115.2134
17:15:30:760,0.878,4.0751,7.9151,61.6504,-0.1154,-0.0316,-0.4078,-115.2134
17:15:30:781,0.885,4.362,8.154,61.8761,-0.1057,-0.1488,-0.3684,-115.2134
17:15:30:800,0.945,4.616,8.3479,62.0909,-0.1207,-0.237,-0.3481,-115.2134
17:15:30:823,0.947,4.7891,8.736,62.129,-0.1728,-0.2519,-0.3418,-115.2134
17:15:30:840,0.8561,4.8011,9.3251,61.9269,-0.1845,-0.1722,-0.3642,-115.2134
17:15:30:861,0.5021,4.6451,9.789,61.6569,-0.1356,-0.0837,-0.3897,-115.2134
17:15:30:885,0.2291,4.47,10.263,61.4518,-0.1196,-0.1072,-0.3791,-115.11
17:15:30:901,0.375,4.164,10.848,61.4709,-0.1185,-0.2157,-0.3802,-114.9956
17:15:30:922,0.516,3.7451,11.6141,61.5231,-0.143,-0.3904,-0.4323,-114.8709
17:15:30:940,0.461,3.273,12.162,61.5989,-0.1888,-0.4925,-0.4983,-114.7346
17:15:30:960,-0.0191,2.9351,12.5,61.6418,-0.2292,-0.3583,-0.4812,-114.5848
17:15:30:981,-0.5171,2.6891,12.5141,61.6128,-0.225,0.0737,-0.3099,-114.4213
17:15:31:000,-1.13,2.856,12.65,61.6228,-0.1547,0.5483,-0.0459,-114.2488
17:15:31:023,-1.7381,2.6891,11.1371,61.3741,0.106,1.0677,0.3713,-113.9141
17:15:31:041,-1.415,2.129,11.415,61.0881,-0.0462,0.6122,0.3904,-113.7681
17:15:31:063,-1.401,1.683,11.7431,60.7217,0.0241,0.1375,0.3329,-113.6409
17:15:31:081,-1.463,1.2761,10.883,60.5368,0.439,0.1141,0.4148,-113.5299
17:15:31:101,-1.274,1.3241,9.54,60.1614,0.7338,0.195,0.5361,-113.436
17:15:31:122,-0.879,1.398,8.621,59.7322,0.67,0.1247,0.567,-113.436
17:15:31:140,-0.5081,1.506,8.489,59.3784,0.4518,0.0513,0.5181,-113.436
17:15:31:162,0,1.391,8.942,59.0476,0.2646,-0.0476,0.4447,-113.436
17:15:31:180,0.348,1.379,8.9921,58.8844,0.2167,0.029,0.3701,-113.436
17:15:31:201,0.365,1.506,8.843,58.4362,0.2347,0.2302,0.3574,-113.436
17:15:31:222,0.063,1.746,8.271,58.0712,0.254,0.4377,0.3872,-113.436
17:15:31:242,-0.24,2.033,7.608,57.6518,0.2423,0.6122,0.4595,-113.436
17:15:31:261,-0.51,2.37,7.218,57.2564,0.2145,0.6559,0.5213,-113.436
17:15:31:280,-0.8,2.5721,7.235,57.1529,0.2167,0.5461,0.5808,-113.436
17:15:31:300,-0.7331,2.763,6.9281,56.9893,0.3114,0.2387,0.7788,-113.436
17:15:31:323,-0.357,3.084,7.287,56.826,0.3613,0.0588,0.7437,-113.5422
17:15:31:341,0.2171,3.2711,7.1081,56.8441,0.3252,-0.2743,0.6564,-113.6739
17:15:31:360,0.6431,3.395,7.1171,56.7553,0.3422,-0.2871,0.5958,-113.8269
17:15:31:381,0.8321,3.663,7.218,56.6799,0.2848,-0.2487,0.5031,-113.9985
17:15:31:399,1.028,3.7901,7.4,56.6646,0.1326,-0.1987,0.3701,-114.1851
17:15:31:422,1.091,3.908,7.946,56.585,-0.0186,-0.0891,0.235,-114.3819
17:15:31:443,1.11,3.8021,8.432,56.3995,-0.1068,0.0396,0.0945,-114.5831
17:15:31:461,0.9401,3.611,8.994,56.313,-0.1452,0.0524,-0.0481,-114.7836
17:15:31:480,0.77,3.575,9.531,56.07,-0.1867,-0.0945,-0.1631,-114.9777
17:15:31:500,0.8921,3.527,9.9641,55.6894,-0.2728,-0.2476,-0.2801,-115.1609
17:15:31:522,0.834,3.6131,10.397,55.593,-0.3442,-0.1827,-0.3684,-115.3292
17:15:31:541,0.609,3.632,10.601,55.5863,-0.3091,0.0609,-0.4004,-115.4792
17:15:31:560,0.447,3.5411,10.577,55.4491,-0.3069,0.1152,-0.4366,-115.6096
17:15:31:580,0.777,3.395,10.73,55.4271,-0.4537,-0.1082,-0.5057,-115.7201
17:15:31:600,1.488,2.9141,11.274,55.4153,-0.6709,-0.3179,-0.5908,-115.7201
17:15:31:622,1.8281,2.4611,12.21,55.3668,-0.7879,-0.3988,-0.6791,-115.7201
17:15:31:642,1.505,2.0621,12.368,55.2672,-0.6677,-0.2626,-0.7004,-115.7201
17:15:31:660,0.945,1.6931,12.291,55.3454,-0.4634,-0.0402,-0.5983,-115.7201
17:15:31:680,0.815,1.3001,12.069,55.5041,-0.2633,-0.0678,-0.4525,-115.7201
17:15:31:700,0.684,1.3121,11.532,55.7181,0.0252,-0.1551,-0.312,-115.7201
17:15:31:722,1.05,1.578,10.821,56.0512,0.2955,-0.2934,-0.1842,-115.7201
17:15:31:739,1.634,1.805,10.0121,56.2323,0.4509,-0.4595,-0.1429,-115.7201
17:15:31:760,2.022,2.0951,9.095,56.3485,0.487,-0.5254,-0.2375,-115.7201
17:15:31:779,1.596,2.2819,8.207,56.0998,0.4444,-0.4308,-0.4173,-115.7201
17:15:31:800,0.789,2.5091,7.443,55.7541,0.353,-0.286,-0.5398,-115.7201
17:15:31:823,0.116,2.789,6.839,55.4403,0.305,-0.088,-0.5686,-115.7201
17:15:31:840,-0.2111,3.0191,6.8081,55.0176,0.2518,0.012,-0.5812,-115.6109
17:15:31:860,-0.575,3.122,6.887,54.7205,0.2156,-0.0264,-0.6622,-115.484
17:15:31:880,-0.941,3.168,6.918,54.7089,0.254,-0.0987,-0.6876,-115.3373
17:15:31:900,-1.26,3.4571,6.806,54.7506,0.2837,-0.1519,-0.6207,-115.1697
17:15:31:922,-1.0661,3.726,6.8111,54.8881,0.2634,-0.1647,-0.5334,-114.9829
17:15:31:940,-0.5771,3.912,7.098,55.0633,0.1518,-0.137,-0.4588,-114.781
17:15:31:960,-0.335,4.0661,7.596,55.1718,0.0411,-0.1072,-0.428,-114.5672
17:15:31:980,-0.0671,4.209,8.235,55.0118,-0.0314,-0.0711,-0.362,-114.3434
17:15:32:001,0.0971,4.403,8.8481,54.6968,-0.0004,0.0151,-0.278,-114.1118
17:15:32:022,0.2411,4.5281,9.222,54.1997,0.0784,0.1045,-0.2046,-113.8757
17:15:32:041,0.317,4.667,9.516,53.8178,0.1666,0.1397,-0.1598,-113.6383
17:15:32:060,0.341,4.707,9.6911,53.6879,0.221,0.1577,-0.1514,-113.4014
17:15:32:080,0.4541,4.425,9.8801,53.6727,0.1891,0.1216,-0.1726,-113.1659
17:15:32:101,0.456,4.0661,9.95,53.772,0.1114,0.1152,-0.1961,-112.9311
17:15:32:122,0.0011,4.0751,10.065,53.6787,0.0368,0.2194,-0.1449,-112.696
17:15:32:141,-0.426,4.202,10.314,53.529,-0.0271,0.3344,-0.0225,-112.4617
17:15:32:160,-0.896,4.7771,10.302,53.3222,-0.0877,0.3919,0.1232,-112.2319
17:15:32:180,-1.188,4.688,10.065,53.193,-0.1367,0.5675,0.2094,-112.0122
17:15:32:200,-0.975,3.7331,10.694,53.2363,-0.3868,0.3014,0.1488,-111.8065
17:15:32:222,-0.546,2.7971,11.6261,53.2925,-0.4654,-0.1253,0.085,-111.6141
17:15:32:240,-0.4481,2.3921,11.58,53.4252,-0.2101,-0.136,0.1104,-111.4321
17:15:32:260,-0.7931,2.255,10.4981,53.5795,0.1794,0.2057,0.2041,-111.2598
17:15:32:280,-1.145,2.2481,9.167,53.6234,0.3732,0.3685,0.2584,-111.099
17:15:32:300,-1.389,2.21,8.4941,53.5775,0.2443,0.195,0.2456,-110.9518
17:15:32:321,-1.049,2.021,8.9921,53.5924,-0.0302,-0.1913,0.2584,-110.8177
17:15:32:341,-0.185,1.904,9.579,53.4814,-0.1504,-0.3424,0.2936,-110.6972
17:15:32:360,0.372,2.054,9.509,53.5273,-0.0727,-0.0572,0.3733,-110.5911
17:15:32:380,0.6311,2.2751,8.76,53.804,0.0177,0.3047,0.4584,-110.5911
17:15:32:400,0.2171,2.7491,8.14,53.7743,0.0411,0.5281,0.5107,-110.5911
17:15:32:423,-0.206,3.0431,7.668,53.6695,0.0571,0.543,0.5596,-110.5911
17:15:32:441,-0.393,3.3281,7.4981,53.5984,0.1358,0.4388,0.6181,-110.5911
17:15:32:460,-0.242,3.582,7.2461,53.3292,0.2252,0.2515,0.6457,-110.5911
17:15:32:480,0.0371,3.7931,7.038,53.2071,0.2848,0.1354,0.6351,-110.5911
17:15:32:500,0.15,4.0751,7.182,53.3041,0.272,0.0099,0.5702,-110.5911
17:15:32:522,0.2741,4.2671,7.383,53.5428,0.2156,-0.0668,0.4456,-110.5911
17:15:32:541,0.2411,4.425,7.9151,53.6897,0.1347,-0.0668,0.3031,-110.5911
17:15:32:560,0.332,4.365,8.372,53.799,0.0912,-0.0146,0.1829,-110.5911
17:15:32:580,0.011,4.403,8.786,53.7424,0.1018,0.1195,0.0722,-110.6884
17:15:32:601,-0.366,4.329,9.0371,53.3943,0.1305,0.2067,-0.012,-110.7868
17:15:32:621,-0.441,4.283,9.176,53.0779,0.1805,0.2227,-0.0385,-110.8824
17:15:32:641,-0.285,4.319,9.291,52.978,0.1464,0.1599,-0.0821,-110.9737
17:15:32:660,-0.218,4.224,9.519,52.9167,0.0155,0.1045,-0.1514,-110.9737
17:15:32:680,-0.24,4.181,9.816,52.9706,-0.1387,0.0918,-0.1683,-110.9737
17:15:32:700,-0.3641,4.43,10.007,53.0544,-0.2431,0.2194,-0.1045,-110.9737
17:15:32:722,0.0131,4.1951,10.587,53.009,-0.4016,0.1833,-0.0513,-110.9737
17:15:32:740,0.545,3.987,11.166,53.1597,-0.5422,-0.1381,-0.0652,-110.9737
17:15:32:761,1.244,3.615,11.405,53.2148,-0.5996,-0.402,-0.063,-110.9737
17:15:32:781,2.015,2.8781,11.726,53.3216,-0.6922,-0.4573,-0.0843,-110.9737
17:15:32:800,2.156,2.004,12.258,53.3848,-0.7018,-0.4009,-0.1184,-110.9737
17:15:32:821,1.9091,1.439,12.054,53.3496,-0.4367,-0.2041,-0.0407,-110.9737
17:15:32:840,1.713,1.422,10.824,53.3329,-0.0164,0.0472,0.0839,-110.9737
17:15:32:860,1.823,1.848,9.3851,53.3226,0.2486,0.0716,0.1594,-110.9737
17:15:32:893,2.139,2.162,8.3021,53.4148,0.2486,-0.0285,0.0637,-110.9737
17:15:32:900,2.147,2.157,8.659,53.442,0.0975,-0.2817,-0.1854,-110.9737
17:15:32:923,2.0749,1.8701,8.865,53.3972,0.0879,-0.5957,-0.4738,-110.9737
17:15:32:941,1.7351,2.028,8.276,53.2982,0.2634,-0.4872,-0.6047,-110.9737
17:15:32:961,1.143,2.481,7.3691,53.1468,0.3732,-0.1796,-0.6377,-110.9737
17:15:32:980,0.633,3,6.662,52.9185,0.3699,0.0854,-0.6249,-110.9737
17:15:33:001,0.2741,3.398,6.174,52.6194,0.3209,0.2365,-0.6302,-110.9737
17:15:33:022,-0.651,3.8141,6.404,52.4358,0.0038,0.1801,-0.6441,-110.9737
17:15:33:041,-0.6371,3.884,7.151,52.3914,-0.1217,-0.0572,-0.5684,-110.8814
17:15:33:061,-0.2951,4.0391,7.644,52.3143,-0.1419,-0.2189,-0.4929,-110.7696
17:15:33:081,-0.177,4.209,8.07,52.1955,-0.1717,-0.2359,-0.4408,-110.642
17:15:33:101,-0.2321,4.3241,8.81,52.0073,-0.2441,-0.1785,-0.3812,-110.5015
17:15:33:122,-0.299,4.322,9.662,51.7897,-0.2271,-0.0934,-0.2684,-110.3506
17:15:33:141,-0.498,4.4531,10.3331,51.5507,-0.0792,0.0355,-0.1216,-110.1932
17:15:33:160,-0.8621,4.5851,10.857,51.4986,0.1316,0.1418,0.0168,-110.0347
17:15:33:181,-1.046,4.53,11.1851,51.4496,0.3444,0.1599,0.1019,-109.8798
17:15:33:200,-1.283,4.4921,11.427,51.1646,0.5221,0.0683,0.1488,-109.732
17:15:33:222,-1.499,4.494,11.1251,51.0743,0.6669,0.06,0.2116,-109.5925
17:15:33:241,-1.19,4.248,10.745,51.0158,0.6115,0.0939,0.2584,-109.4628
17:15:33:261,-1.331,4.116,10.397,50.6412,0.4082,0.2131,0.2978,-109.3448
17:15:33:281,-1.841,3.972,10.287,50.4665,0.2412,0.5153,0.3957,-109.24
17:15:33:300,-2.2751,3.9221,10.2971,50.2944,0.0124,0.5739,0.4946,-109.24
17:15:33:322,-1.499,2.919,10.9841,50.0383,-0.2058,0.1503,0.501,-109.24
17:15:33:343,-0.929,2.399,11.6741,50.0565,-0.258,-0.5296,0.3765,-109.24
17:15:33:360,-1.1711,2.351,10.407,50.0985,0.0496,-0.3978,0.3255,-109.24
17:15:33:380,-1.959,2.5481,8.729,49.9816,0.2784,0.3057,0.4786,-109.24
17:15:33:400,-1.959,2.6891,8.0681,49.8913,0.1294,0.5281,0.6075,-109.24
17:15:33:422,-1.3481,2.576,8.3531,49.8086,-0.1675,0.2589,0.5213,-109.24
17:15:33:443,-0.941,2.169,8.786,49.4896,-0.2314,0.06,0.3679,-109.24
17:15:33:460,-1.097,2.0381,8.4131,49.1169,-0.0228,0.2398,0.3776,-109.24
17:15:33:480,-1.346,2.337,7.517,48.7884,0.1646,0.5962,0.5404,-109.24
17:15:33:502,-1.2191,2.646,6.801,48.3943,0.1698,0.7516,0.7171,-109.24
17:15:33:522,-1.056,2.9591,7.0451,48.2,0.1433,0.642,0.7766,-109.3527
17:15:33:542,-0.9341,3.216,7.254,48.0514,0.1655,0.1727,0.7234,-109.4913
17:15:33:560,-0.656,3.438,7.44,48.0009,0.221,-0.1913,0.6511,-109.6542
17:15:33:580,-0.141,3.726,7.883,47.9841,0.1933,-0.4392,0.6106,-109.8378
17:15:33:600,0.4031,3.8621,8.2781,47.9934,0.1433,-0.4744,0.5361,-110.0396
17:15:33:623,0.693,3.924,8.753,47.9154,0.0943,-0.3637,0.4723,-110.2572
17:15:33:641,0.918,4.008,8.9921,47.8186,0.1251,-0.1636,0.4031,-110.4873
17:15:33:660,0.566,4.334,8.5391,47.7094,0.2518,0.2068,0.3425,-110.7272
17:15:33:680,-0.132,4.647,8.2811,47.6135,0.3359,0.4845,0.3755,-110.9738
17:15:33:699,-0.1991,4.887,8.3479,47.5391,0.3252,0.3696,0.352,-111.2272
17:15:33:721,-0.0221,5.064,8.784,47.4801,0.2549,-0.0412,0.3329,-111.4873
17:15:33:740,0.482,5.0111,9.3611,47.222,0.1166,-0.2562,0.0945,-111.7525
17:15:33:760,0.372,5.141,9.155,46.939,-0.0366,-0.2615,-0.0672,-112.0177
17:15:33:781,0.3131,5.042,9.741,46.8264,-0.2878,-0.0498,-0.0832,-112.2732
17:15:33:800,0.38,4.817,10.718,46.9317,-0.5932,0.0162,-0.0428,-112.5179
17:15:33:821,1.332,4.113,12.093,47.0847,-0.7921,-0.0657,-0.012,-112.7528
17:15:33:840,2.01,3.6941,12.665,47.0917,-0.6677,-0.3116,-0.1716,-112.9806
17:15:33:861,1.613,3.3881,11.511,47.0158,-0.2761,-0.1987,-0.2482,-113.1965
17:15:33:880,0.566,3.6131,9.8111,46.8347,0.0038,0.1705,-0.1119,-113.3968
17:15:33:900,0.5261,3.366,9.284,46.8289,-0.0175,0.1184,0.0711,-113.5846
17:15:33:922,0.9161,2.957,9.3941,46.976,-0.1048,-0.2956,-0.0236,-113.7678
17:15:33:940,1.031,2.7131,9.0881,47.0104,-0.1143,-0.6722,-0.1759,-113.9464
17:15:33:960,1.026,2.4881,8.678,46.8516,-0.11,-0.7234,-0.2556,-114.1143
17:15:33:980,1.1,2.2721,8.2901,46.4991,-0.2218,-0.6574,-0.296,-114.2681
17:15:34:000,1.323,2.0831,7.998,46.1257,-0.3952,-0.5435,-0.3344,-114.406
17:15:34:023,1.143,2.047,8.099,45.7801,-0.5422,-0.4062,-0.3514,-114.5269
17:15:34:040,1.083,2.21,8.448,45.5693,-0.4995,-0.2647,-0.3439,-114.6298
17:15:34:060,0.846,2.5331,7.565,45.693,-0.2207,0.0961,-0.3589,-114.6298
17:15:34:080,0.116,2.919,6.567,45.5245,-0.0058,0.4568,-0.278,-114.6298
17:15:34:100,-0.149,3.29,6.222,45.3973,0.0135,0.4089,-0.162,-114.6298
17:15:34:122,0.327,3.534,6.332,45.3017,-0.0036,0.1056,-0.0906,-114.6298
17:15:34:140,0.767,3.659,6.303,45.0775,0.023,-0.1178,-0.1961,-114.6298
17:15:34:161,0.4511,3.896,6.119,44.9687,0.0102,-0.1551,-0.3174,-114.6298
17:15:34:181,0.09,3.864,6.179,45.0143,-0.1282,-0.1125,-0.3099,-114.6298
17:15:34:201,-0.003,3.869,6.933,44.9906,-0.3314,-0.0583,-0.2578,-114.6298
17:15:34:222,-0.2081,3.8381,7.962,44.8705,-0.4645,-0.0806,-0.2237,-114.6298
17:15:34:240,-0.252,3.86,8.946,44.6905,-0.4665,-0.1104,-0.1396,-114.6298
17:15:34:260,-0.1631,3.9821,9.641,44.3451,-0.4335,-0.0806,-0.0247,-114.6298
17:15:34:280,-0.117,4.0991,10.436,44.1348,-0.4207,0.0236,0.054,-114.6298
17:15:34:299,-0.026,3.896,11.1731,44.0937,-0.3612,0.1269,0.1169,-114.6298
17:15:34:322,0.0491,3.867,11.573,43.999,-0.3026,0.1588,0.1957,-114.6298
17:15:34:341,0.351,3.879,11.8601,43.9579,-0.3835,0.1898,0.2424,-114.6298
17:15:34:360,0.4271,3.572,12.32,43.7215,-0.6156,0.309,0.1988,-114.6298
17:15:34:380,-0.632,3.35,12.947,43.4767,-0.8049,0.5899,0.1807,-114.6298
17:15:34:400,-1.4681,3.0671,13.074,43.2792,-0.69,0.9112,0.3755,-114.6298
17:15:34:421,-1.418,2.9021,13.388,42.9848,-0.4484,0.6941,0.5841,-114.6298
17:15:34:440,-0.4841,2.8901,13.134,42.7028,-0.1387,0.0173,0.6373,-114.6298
17:15:34:461,-0.311,2.921,11.592,42.4509,0.2625,-0.2562,0.5298,-114.6298
17:15:34:480,-0.996,2.84,10.1291,42.1864,0.4476,-0.0412,0.4979,-114.7269
17:15:34:500,-1.307,2.337,9.3821,41.8799,0.3858,0.0961,0.5031,-114.8389
17:15:34:522,-1.367,1.8461,10.227,41.6211,0.2071,-0.1699,0.4903,-114.9659
17:15:34:539,-0.5051,1.305,11.1491,41.3574,0.1837,-0.7245,0.4297,-115.1069
17:15:34:561,0.5261,1.104,11.453,41.0661,0.3157,-0.9405,0.3818,-115.2603
17:15:34:580,1.3541,1.128,11.015,40.9086,0.4646,-0.6904,0.3392,-115.4236
17:15:34:600,1.629,1.322,9.981,41.0542,0.5679,-0.0869,0.3297,-115.5957
17:15:34:622,1.445,1.7141,9.107,41.2359,0.6072,0.5409,0.3915,-115.7757
17:15:34:640,1.1891,2.0089,8.3741,41.2469,0.6083,0.7793,0.4169,-115.9654
17:15:34:661,0.87,2.3321,7.8191,41.3099,0.6636,0.7059,0.3713,-116.166
17:15:34:680,0.5089,2.624,7.2131,41.1641,0.7935,0.5537,0.3457,-116.3759
17:15:34:700,0.341,2.912,6.435,40.7394,0.8755,0.3505,0.3425,-116.5936
17:15:34:721,0.2171,3.297,5.906,40.3644,0.8382,0.1727,0.3318,-116.8187
17:15:34:740,0.219,3.738,5.726,40.0343,0.6615,0.045,0.2978,-117.0505
17:15:34:761,0.0491,4.087,6.107,39.6397,0.4498,0.06,0.237,-117.2879
17:15:34:780,-0.218,4.2311,6.758,39.5102,0.2827,0.0269,0.1636,-117.5286
17:15:34:800,-0.1751,4.3841,7.682,39.4996,0.1624,-0.0476,0.1328,-117.7696
17:15:34:822,0.075,4.43,8.5781,39.4371,0.1123,-0.0071,0.1158,-118.0089
17:15:34:841,0.303,4.31,9.351,39.0861,0.1592,0.011,0.0562,-118.246
17:15:34:860,0.557,4.25,9.9281,38.8172,0.2082,-0.0859,-0.0172,-118.4792
17:15:34:881,0.7391,4.097,10.1801,38.5673,0.2848,-0.1327,-0.0715,-118.7058
17:15:34:905,0.684,4.322,9.725,38.5072,0.3752,0.0566,-0.0502,-118.9237
17:15:34:922,0.2981,4.796,9.456,38.6474,0.3752,0.2302,-0.0172,-119.1331
17:15:34:941,0.035,5.15,9.239,38.5819,0.2592,0.2217,-0.0374,-119.3359
17:15:34:960,0.533,4.928,9.741,38.3572,-0.0707,-0.0263,-0.1481,-119.5318
17:15:34:981,1.325,4.049,10.5671,38.1601,-0.4729,-0.3935,-0.362,-119.7176
17:15:35:000,1.443,3.2831,11.1611,37.9597,-0.6421,-0.2955,-0.444,-119.8857
17:15:35:022,0.9641,2.7581,11.171,37.9247,-0.5368,0.3036,-0.3333,-120.031
17:15:35:041,0.143,2.538,10.836,37.9233,-0.2771,0.8209,-0.1088,-120.1566
17:15:35:059,-0.074,2.3111,10.46,38.0246,-0.0291,0.5728,0.087,-120.2711
17:15:35:080,0.8681,2.318,9.7819,37.9616,0.1528,-0.2349,0.2051,-120.3835
17:15:35:100,2.2091,2.943,8.8871,37.7452,0.2188,-0.7531,0.2168,-120.4993
17:15:35:123,2.898,3.4481,7.9151,37.5863,-0.0877,-0.1816,-0.195,-120.7429
17:15:35:141,1.455,3.359,7.622,37.5541,-0.2036,0.1653,-0.4099,-120.8576
17:15:35:161,0.5021,3.218,7.646,37.6285,-0.2963,0.2206,-0.477,-120.9548
17:15:35:180,-0.146,3.173,7.625,37.7945,-0.2601,0.2174,-0.5142,-120.9548
17:15:35:200,-0.683,3.261,7.4021,37.8081,-0.11,0.2131,-0.4866,-120.9548
17:15:35:222,-0.881,3.3761,7.0721,37.6465,0.0177,0.1206,-0.4206,-120.9548
17:15:35:241,-0.663,3.5081,6.926,37.4839,0.0443,-0.0177,-0.3748,-120.9548
17:15:35:261,-0.498,3.62,6.954,37.304,0.0411,-0.0848,-0.3717,-120.9548
17:15:35:280,-0.333,3.726,7.1651,37.1769,-0.0015,-0.104,-0.3684,-120.9548
17:15:35:301,-0.369,3.9221,7.5791,37.0042,-0.0366,-0.0615,-0.3407,-120.9548
17:15:35:322,-0.632,4.137,7.8911,36.7908,-0.0069,0.0195,-0.2738,-120.9548
17:15:35:341,-0.692,4.293,8.396,36.6558,-0.0069,-0.0433,-0.1833,-120.9548
17:15:35:361,-0.5681,4.707,8.879,36.6235,0.0261,-0.1466,-0.0832,-120.9548
17:15:35:380,-0.23,5.2001,9.282,36.5458,0.0826,-0.203,0.0104,-120.9548
17:15:35:400,0.066,5.442,9.66,36.4584,0.1006,-0.2211,0.0754,-120.9548
17:15:35:423,0.629,5.624,10.019,36.3843,0.1199,-0.1785,0.0722,-120.9548
17:15:35:443,0.6791,5.691,10.215,36.2634,0.1475,-0.0593,-0.0322,-120.9548
17:15:35:460,0.147,5.54,10.16,36.2028,0.0773,-0.004,-0.1865,-120.9548
17:15:35:480,-0.539,5.217,10.575,36.2971,-0.1335,-0.0007,-0.2078,-120.9548
17:15:35:500,-0.881,4.971,11.336,36.3443,-0.3974,-0.0518,-0.1566,-120.9548
17:15:35:522,-1.0511,4.202,12.107,36.3792,-0.5985,0.0034,-0.1438,-120.9548
17:15:35:542,-1.262,3.1031,13.1201,36.3404,-0.7007,-0.0806,-0.1662,-120.9548
17:15:35:562,-1.755,2.409,12.911,36.3826,-0.4474,-0.0103,-0.0778,-120.9548
17:15:35:580,-2.37,2.339,11.1401,36.2776,0.0975,0.4951,0.2211,-120.8629
17:15:35:600,-2.433,2.4611,9.291,36.2098,0.3741,0.6931,0.5213,-120.8629
17:15:35:622,-2.1671,2.5721,7.95,36.2374,0.3263,0.5207,0.6457,-120.8629
17:15:35:642,-2.09,2.5331,7.625,36.2368,0.1453,0.276,0.6479,-120.8629
17:15:35:660,-1.839,2.327,7.9721,36.2441,-0.0047,-0.0029,0.6436,-120.8629
17:15:35:680,-1.329,2.109,8.262,36.2748,-0.0143,-0.1358,0.7128,-120.8629
17:15:35:701,-0.651,2.011,8.252,36.2446,0.0092,-0.1998,0.8033,-120.8629
17:15:35:722,-0.189,2.057,8.1491,36.1333,-0.0314,-0.1646,0.832,-120.8629
17:15:35:740,-0.1271,2.157,7.991,36.0468,-0.0536,-0.0242,0.8405,-120.9551
17:15:35:761,-0.2801,2.3441,7.895,35.8075,-0.0291,0.1217,0.8735,-121.0767
17:15:35:780,-0.3761,2.646,7.5911,35.729,0.0368,0.2291,0.9384,-121.2277
17:15:35:800,-0.333,2.94,7.2971,35.6141,0.0879,0.2643,1.0022,-121.4093
17:15:35:822,-0.149,3.3311,7.005,35.6498,0.1156,0.2376,1.0087,-121.6233
17:15:35:841,-0.024,3.659,7.151,35.8154,0.1114,0.1462,0.9544,-121.8698
17:15:35:859,0.059,4.013,7.0841,35.9007,0.1038,0.0716,0.8469,-122.1465
17:15:35:880,-0.003,4.262,7.208,36.3052,0.0219,0.0461,0.7501,-122.4489
17:15:35:900,0.327,4.322,7.9031,36.6305,-0.1174,-0.0199,0.6618,-122.7722
17:15:35:922,0.6071,4.374,8.681,36.8204,-0.1504,-0.037,0.5543,-123.1121
17:15:35:941,0.578,4.401,9.174,36.9826,-0.0505,0.0386,0.4894,-123.4638
17:15:35:960,0.746,4.413,9.648,36.973,0.0368,0.0301,0.4234,-123.8242
17:15:35:981,0.954,4.391,9.911,37.0957,0.0815,-0.0433,0.3435,-124.1907
17:15:36:000,1.196,4.358,10.266,37.432,0.0294,-0.0954,0.2936,-124.5605
17:15:36:022,1.5791,4.389,10.6511,37.7836,-0.0483,-0.0465,0.268,-124.9311
17:15:36:040,1.524,4.638,10.881,37.9957,-0.0718,0.1419,0.2669,-125.301
17:15:36:061,1.689,4.319,11.1611,38.104,-0.0653,0.3303,0.3105,-125.6695
17:15:36:080,2.003,4.0301,11.159,38.1449,-0.1196,0.276,0.2776,-126.0382
17:15:36:100,2.0681,3.888,10.859,38.1461,-0.1419,0.26,0.2009,-126.4066
17:15:36:123,1.9091,3.23,10.649,38.232,-0.1951,0.3664,0.0626,-126.7721
17:15:36:141,1.244,2.543,11.073,38.2846,-0.325,0.1781,-0.0694,-127.1302
17:15:36:160,1.304,1.868,11.753,38.3203,-0.3154,-0.1774,-0.0747,-127.4754
17:15:36:180,1.713,1.4891,12.119,38.3055,-0.1601,-0.5925,-0.045,-127.8065
17:15:36:200,2.396,1.71,11.688,38.2615,0.0847,-0.7521,-0.0236,-128.1249
17:15:36:222,2.901,2.0711,10.163,38.2075,0.2688,-0.5573,-0.063,-128.4328
17:15:36:241,2.858,2.5121,8.3741,38.1243,0.2273,-0.1944,-0.1631,-128.7305
17:15:36:260,2.477,2.73,7.2701,37.8395,-0.0355,0.0173,-0.3068,-129.0154
17:15:36:280,1.871,2.694,6.693,37.6917,-0.258,0.1504,-0.4642,-129.2822
17:15:36:300,1.1531,2.663,6.756,37.9079,-0.2856,0.2728,-0.5206,-129.5243
17:15:36:322,0.71,2.5361,6.531,38.1364,-0.1409,0.2068,-0.4993,-129.7389
17:15:36:340,0.605,2.816,5.4911,38.2865,0.0241,0.0854,-0.4067,-129.9272
17:15:36:361,0.708,2.969,5.1041,38.2483,0.1528,0.1217,-0.4291,-130.0934
17:15:36:381,0.789,3.18,4.764,37.9008,0.0241,0.0056,-0.4546,-130.2394
17:15:36:400,0.8111,3.2321,5.0561,37.5566,-0.176,-0.0294,-0.5195,-130.3643
17:15:36:423,0.4871,3.287,5.7911,37.6549,-0.325,0.0088,-0.561,-130.4663
17:15:36:440,0.0851,3.2471,6.303,37.9517,-0.3516,0.078,-0.5248,-130.4663
17:15:36:460,-0.0671,3.39,6.878,38.1765,-0.3612,0.1024,-0.4195,-130.4663
17:15:36:481,0.1211,3.7181,7.419,38.4618,-0.425,0.1121,-0.2875,-130.4663
17:15:36:500,0.1091,3.903,8.439,38.6475,-0.4825,0.1599,-0.1396,-130.4663
17:15:36:522,0.207,4.109,9.495,38.6266,-0.4932,0.1312,0.0754,-130.4663
17:15:36:541,0.662,3.635,10.493,38.6554,-0.4932,0.0322,0.1371,-130.4663
17:15:36:560,0.633,3.477,11.243,38.6447,-0.5453,-0.1082,-0.0991,-130.4663
17:15:36:580,0.5689,3.462,12.356,38.9381,-0.7028,-0.2668,-0.2291,-130.4663
17:15:36:601,0.53,3.6611,13.572,39.4295,-0.8529,-0.4551,-0.1332,-130.4663
17:15:36:623,0.954,3.1151,14.322,39.8668,-0.8656,-0.3743,0.0648,-130.4663
17:15:36:639,1.143,2.5451,14.954,40.1666,-0.8976,-0.3839,0.0477,-130.4663
17:15:36:660,1.227,1.4771,15.425,40.1513,-0.9657,-0.7052,-0.1226,-130.4663
17:15:36:681,0.332,0.903,14.6741,40.2352,-0.7591,-0.6754,-0.2332,-130.4663
17:15:36:700,-1.092,1.161,12.8591,40.3702,-0.2153,0.0355,0.0008,-130.4663
17:15:36:722,-2.2631,1.5161,10.211,40.5784,0.3305,0.7389,0.5404,-130.4663
17:15:36:740,-2.651,1.224,8.211,40.7037,0.4828,1.2507,1.0469,-130.4663
17:15:36:760,-2.612,1.31,8.041,40.6775,0.3007,1.2273,1.312,-130.4663
17:15:36:780,-2.066,1.0181,8.673,40.4506,0.0517,0.6207,1.2023,-130.4663
17:15:36:801,-1.245,0.783,10.0571,40.1342,-0.0132,-0.2679,0.8704,-130.5902
17:15:36:821,-0.201,0.5081,10.697,39.9056,0.2071,-1.1076,0.6086,-130.745
17:15:36:840,0.497,0.347,10.112,39.6984,0.4572,-1.331,0.4905,-130.9194
17:15:36:860,0.674,0.462,8.9921,39.7381,0.5594,-0.9574,0.4308,-131.1082
17:15:36:880,0.641,0.8981,8.2901,39.8883,0.4199,-0.2221,0.5255,-131.3089
17:15:36:912,0.5711,1.2521,7.5221,40.0647,0.4412,0.4493,0.6926,-131.523
17:15:36:922,0.2171,2.04,6.3611,40.2454,0.5041,0.9049,0.7107,-131.7557
17:15:36:940,-0.1511,2.454,5.343,40.3184,0.4082,1.0347,0.6841,-132.0089
17:15:36:960,-0.455,2.8061,5.307,40.4152,0.0943,0.8836,0.5851,-132.2813
17:15:36:980,-0.551,2.9021,6.3821,40.555,-0.3026,0.4037,0.4223,-132.5686
17:15:37:000,-0.438,2.5841,7.859,40.5321,-0.4847,-0.1178,0.2967,-132.8638
17:15:37:022,0.116,2.423,8.9111,40.3771,-0.3686,-0.4531,0.2754,-133.1607
17:15:37:040,0.645,2.382,9.198,40.2642,-0.1452,-0.4551,0.3041,-133.4574
17:15:37:060,0.981,2.579,9.33,40.1185,-0.0047,-0.2168,0.318,-133.755
17:15:37:080,1.2491,2.73,9.555,40.1922,0.0261,0.0279,0.2903,-134.0548
17:15:37:101,1.598,2.861,10.077,40.2094,-0.011,0.1067,0.1829,-134.3565
17:15:37:121,2.7,2.658,11.061,40.2565,0.0953,-0.1466,-0.1056,-134.9514
17:15:37:141,2.951,2.6741,10.5311,40.195,0.2432,-0.0125,-0.212,-135.2349
17:15:37:161,2.4791,3.144,9.77,39.9411,0.2497,0.3227,-0.246,-135.5042
17:15:37:181,2.252,3.501,9.789,39.7095,-0.0397,0.5153,-0.2248,-135.7578
17:15:37:201,2.6471,3.314,10.364,39.602,-0.4814,0.4015,-0.2769,-135.9957
17:15:37:222,3.143,2.421,11.891,39.4548,-1.0093,0.0216,-0.5792,-136.2165
17:15:37:241,2.238,1.1059,14.1641,39.3527,-1.5126,-0.3871,-1.0017,-136.4113
17:15:37:261,0.4751,-0.2291,15.7391,39.2241,-1.2838,-0.2359,-0.9452,-136.5652
17:15:37:281,-0.563,-0.7481,16.196,38.8712,-0.4889,-0.0092,-0.4536,-136.6755
17:15:37:301,0.425,-0.377,15.0971,38.6039,0.2603,-0.3774,0.0987,-136.6755
17:15:37:323,3.1691,-0.1901,12.528,38.5324,0.77,-0.7265,0.3127,-136.6755
17:15:37:340,4.9601,0.266,9.959,38.4607,0.9159,-0.5616,0.1552,-136.7684
17:15:37:361,4.6271,0.915,8.525,38.3882,0.6902,-0.1807,-0.2897,-136.8696
17:15:37:380,3.056,0.9191,8.24,38.18,0.4806,0.095,-0.7281,-136.9656
17:15:37:400,1.538,0.659,7.3811,37.8572,0.6094,0.2728,-0.9027,-136.9656
17:15:37:422,0.669,0.795,5.918,37.6219,0.8573,0.3164,-0.8005,-136.9656
17:15:37:443,0.471,1.013,4.1771,37.4084,0.8605,0.3664,-0.5897,-136.9656
17:15:37:460,0.4541,1.4651,3.557,37.1353,0.6988,0.3952,-0.5302,-136.9656
17:15:37:480,0.317,1.686,3.516,36.965,0.4157,0.2078,-0.6748,-136.9656
17:15:37:502,0.1211,2.093,4.258,36.6339,0.1528,-0.0826,-0.8942,-136.9656
17:15:37:522,0.0521,2.244,5.0891,36.1496,-0.0143,-0.3977,-1.0527,-136.9656
17:15:37:542,-0.074,2.435,5.3891,35.8608,-0.0846,-0.4903,-1.1261,-136.8566
17:15:37:561,-0.422,2.852,5.5631,35.7364,-0.2591,-0.3679,-1.1208,-136.71
17:15:37:580,-0.654,3.017,6.447,35.5404,-0.6538,-0.1891,-1.0729,-136.5263
17:15:37:600,-1.2401,2.852,8.693,35.4729,-1.0465,-0.0348,-1.0037,-136.3073
17:15:37:622,-2.054,3.639,10.383,35.4152,-1.1062,0.0759,-0.7972,-136.0562
17:15:37:642,-2.222,3.168,12.15,35.2135,-1.0178,0.2079,-0.3279,-135.7794
17:15:37:659,-2.2151,3.2351,13.431,34.9898,-0.7272,0.2387,0.003,-135.4931
17:15:37:680,-2.145,3.539,13.761,35.0738,-0.358,0.1801,0.334,-135.2114
17:15:37:700,-1.434,3.623,13.97,35.1568,-0.2238,0.0205,0.5936,-134.9463
17:15:37:721,-0.8021,3.5921,14.5781,35.0873,-0.2633,-0.1614,0.6798,-134.7076
17:15:37:740,-0.843,3.536,14.784,35.1993,-0.2218,-0.0943,0.6841,-134.4993
17:15:37:760,-1.07,3.266,14.168,35.1968,-0.1037,0.3472,0.8107,-134.3211
17:15:37:780,-0.905,2.763,13.982,35.1812,-0.0909,0.6303,0.9225,-134.1751
17:15:37:800,-1.2431,2.251,13.35,35.3801,0.0517,0.5856,0.9384,-134.0651
17:15:37:822,-1.679,1.655,11.985,35.6333,0.3625,0.5111,0.9331,-134.0651
17:15:37:840,-1.98,1.202,10.3931,35.6741,0.6296,0.4951,1.0013,-134.0651
17:15:37:860,-2.639,1.226,9.284,35.6927,0.6339,0.1844,1.0427,-134.0651
17:15:37:881,-2.033,1.022,9.2621,35.7122,0.5699,-0.004,1.2183,-134.0651
17:15:37:900,-0.716,0.405,9.6671,35.7462,0.505,-0.4073,1.3258,-134.0651
17:15:37:921,0.075,0.41,9.1601,35.9342,0.604,-0.3657,1.2449,-134.1847
17:15:37:940,1.088,0.3641,8.336,36.0817,0.5966,-0.1338,1.1863,-134.3468
17:15:37:960,1.151,0.491,7.179,36.1491,0.4965,0.3718,1.0566,-134.5486
17:15:37:981,1.179,0.5651,6.947,36.2753,0.322,0.857,0.9927,-134.785
17:15:38:000,1.124,0.9911,6.48,36.3196,0.2347,1.0582,0.9054,-135.0516
17:15:38:023,0.815,1.2911,6.653,36.3001,0.2199,0.9316,0.7842,-135.3444
17:15:38:040,0.7481,1.461,6.215,36.3194,0.3189,0.7399,0.6809,-135.6586
17:15:38:060,0.4781,1.7171,5.939,36.5606,0.371,0.5335,0.6171,-135.9894
17:15:38:080,0.538,2.141,5.451,36.6501,0.3284,0.4111,0.5681,-136.3336
17:15:38:101,0.6761,2.4881,5.666,36.8205,0.1655,0.375,0.484,-136.6887
17:15:38:122,0.6071,2.811,6.957,36.859,-0.0632,0.1259,0.2988,-137.0522
17:15:38:140,0.6431,3.632,7.2491,36.8886,-0.1803,-0.2317,0.1519,-137.418
17:15:38:160,0.708,3.2681,8.049,37.0818,-0.4569,-0.4317,0.0764,-137.7796
17:15:38:181,1.028,3.204,9.437,37.238,-0.7178,-0.3977,-0.0342,-138.134
17:15:38:200,1.158,2.744,10.962,37.3668,-0.7634,-0.2402,-0.1108,-138.4773
17:15:38:222,1.2371,2.516,11.937,37.422,-0.7059,-0.1699,-0.197,-138.8064
17:15:38:241,1.524,2.222,12.725,37.5448,-0.5464,-0.1497,-0.2206,-139.1187
17:15:38:260,1.637,2.157,12.404,37.6482,-0.2601,-0.1434,-0.2183,-139.4133
17:15:38:281,1.316,2.43,11.8001,37.9272,-0.0271,-0.1358,-0.2354,-139.6908
17:15:38:300,1.502,2.445,11.5421,38.0761,-0.0143,-0.3179,-0.2875,-139.9517
17:15:38:321,1.751,2.4641,11.4101,38.0651,-0.1111,-0.4297,-0.4078,-140.1952
17:15:38:340,1.6751,2.0861,11.415,38.2213,-0.2069,-0.3637,-0.5653,-140.4181
17:15:38:360,1.2611,1.446,11.319,38.2002,-0.3175,-0.2349,-0.7111,-140.6156
17:15:38:381,0.825,0.678,12.081,38.1924,-0.5538,-0.2689,-0.8345,-140.7829
17:15:38:401,0.396,0.026,13.172,38.2028,-0.6241,-0.3817,-0.8708,-140.9159
17:15:38:422,0.2291,-0.353,13.8,38.0254,-0.3952,-0.5606,-0.7781,-141.0131
17:15:38:440,0.6791,-0.456,12.7991,37.7499,0.0038,-0.6425,-0.6557,-141.0131
17:15:38:460,0.954,0.0431,10.6391,37.5674,0.2338,-0.436,-0.6005,-141.0131
17:15:38:481,1.601,0.723,8.973,37.3423,0.2295,-0.0945,-0.5823,-141.0131
17:15:38:501,1.1051,0.63,7.493,37.0493,0.0474,0.0844,-0.7345,-141.0131
17:15:38:522,0.806,1.2881,7.457,36.8925,-0.0525,0.2643,-0.925,-141.0131
17:15:38:540,-0.422,1.166,6.5981,36.5794,0.1166,0.3377,-0.9144,-141.0131
17:15:38:560,-0.4361,1.523,5.496,36.4104,0.2188,0.2535,-0.8026,-141.0131
17:15:38:582,-0.8261,2.133,4.979,36.2833,0.3007,0.2515,-0.677,-140.895
17:15:38:600,-0.51,2.0381,5.096,36.3896,0.2145,0.0162,-0.6654,-140.7554
17:15:38:621,-0.4931,2.363,5.415,36.4425,0.0901,-0.1944,-0.71,-140.5966
17:15:38:640,-0.417,2.6411,6.215,36.4192,-0.0217,-0.2966,-0.7175,-140.4178
17:15:38:661,-0.2801,2.564,6.909,36.4439,-0.0707,-0.2636,-0.7451,-140.2188
17:15:38:681,-0.56,2.67,7.3691,36.3461,-0.1569,-0.1497,-0.7813,-139.9995
17:15:38:701,-1.379,2.9381,8.307,36.2969,-0.3058,-0.0029,-0.7334,-139.7591
17:15:38:722,-1.782,2.8661,9.4181,36.4598,-0.3814,0.1259,-0.5675,-139.4989
17:15:38:740,-2.117,2.9951,10.515,36.4077,-0.3803,0.2036,-0.3301,-139.2242
17:15:38:761,-2.394,3.153,11.1731,36.2308,-0.2483,0.2717,-0.0481,-138.9433
17:15:38:781,-2.5211,3.29,11.6111,36.1354,-0.1207,0.2003,0.2265,-138.6661
17:15:38:800,-2.0741,3.134,11.946,36.0753,-0.1515,0.012,0.4245,-138.4024
17:15:38:823,-1.5161,2.8421,13.0001,36.2758,-0.4207,-0.3509,0.5116,-138.1598
17:15:38:840,-1.0301,2.933,14.58,36.6043,-0.672,-0.6797,0.5851,-137.9419
17:15:38:860,-0.366,2.5241,15.4901,36.9581,-0.575,-0.652,0.6703,-137.7501
17:15:38:880,-0.084,1.544,15.4421,37.2248,-0.3421,-0.4499,0.6585,-137.5863
17:15:38:900,-0.29,0.663,14.882,37.3448,-0.1495,-0.3168,0.6436,-137.4502
17:15:38:923,-0.7691,0.3191,13.122,37.2525,0.1826,-0.0444,0.7543,-137.3403
17:15:38:940,-1.1591,0.4961,11.1731,37.0616,0.5402,0.3792,0.9683,-137.3403
17:15:38:960,-1.281,0.546,9.279,36.7313,0.7424,0.6197,1.1843,-137.3403
17:15:38:980,-1.0151,0.522,8.0561,36.3965,0.7488,0.4729,1.3173,-137.3403
17:15:39:000,-0.426,0.728,7.491,36.2325,0.5818,0.0429,1.3045,-137.3403
17:15:39:022,0.4181,0.666,7.5191,36.1434,0.3656,-0.3604,1.1236,-137.3403
17:15:39:040,0.8111,0.383,7.5671,36.0404,0.2135,-0.4573,0.9054,-137.4686
17:15:39:060,0.9971,0.261,7.5791,35.9743,0.124,-0.2764,0.7927,-137.628
17:15:39:080,1.139,0.311,7.541,35.8918,0.0921,0.0514,0.7362,-137.8119
17:15:39:101,1.043,0.441,7.326,35.7581,0.0996,0.3952,0.6957,-138.0172
17:15:39:123,0.53,1.0369,6.7391,35.5926,0.1038,0.5973,0.6926,-138.4839
17:15:39:142,0.435,1.437,6.614,35.3212,0.1028,0.4888,0.7276,-138.7437
17:15:39:162,0.3461,1.9541,6.617,35.1018,0.1444,0.3674,0.7404,-139.0213
17:15:39:181,0.437,2.315,6.672,35.1598,0.1646,0.1599,0.748,-139.317
17:15:39:201,0.681,2.895,6.768,35.3166,0.1049,-0.0795,0.7107,-139.6307
17:15:39:223,1.0091,2.928,7.275,35.4371,0.0389,-0.3009,0.5851,-139.9611
17:15:39:242,1.16,3.273,8.511,35.355,-0.1664,-0.6042,0.3722,-140.3042
17:15:39:262,1.5191,2.847,10.019,35.3809,-0.3123,-0.8713,0.153,-140.6519
17:15:39:279,1.931,2.229,11.7881,35.3735,-0.4548,-1.0681,-0.0194,-140.996
17:15:39:301,2.8481,1.647,13.529,35.4144,-0.5496,-1.1745,-0.096,-141.3289
17:15:39:322,3.87,1.346,14.1161,35.6461,-0.4771,-0.9266,-0.1779,-141.6463
17:15:39:341,4.2941,1.2551,13.716,35.7909,-0.3548,-0.2647,-0.2918,-141.9461
17:15:39:361,4.1741,0.996,13.091,35.9499,-0.4198,0.3227,-0.4599,-142.2255
17:15:39:380,3.693,0.687,12.744,35.9712,-0.6273,0.5218,-0.7004,-142.4803
17:15:39:401,3.03,-0.073,12.875,36.0017,-0.8539,0.4994,-0.9452,-142.7024
17:15:39:422,2.192,-0.902,12.806,35.7063,-0.8273,0.6303,-1.0666,-142.8834
17:15:39:444,1.002,-1.455,12.428,35.283,-0.573,0.8421,-0.9122,-143.0187
17:15:39:461,0.5711,-1.388,12.2411,35.127,-0.2793,0.7006,-0.5749,-143.1134
17:15:39:480,1.335,-1.22,11.817,34.8312,0.1038,0.2738,-0.2545,-143.1134
17:15:39:501,2.702,-0.8351,10.335,34.6153,0.5338,-0.0837,-0.1438,-143.1134
17:15:39:521,3.3581,-0.1691,8.515,34.3542,0.7338,-0.1614,-0.2833,-143.1134
17:15:39:547,3.0401,0.4931,7.158,34.0831,0.5998,-0.0294,-0.6366,-143.1134
17:15:39:560,1.955,0.7061,6.578,33.9258,0.353,0.2079,-0.9921,-143.1134
17:15:39:580,0.878,0.6731,6.399,33.6951,0.2188,0.441,-1.1654,-143.1134
17:15:39:600,0.087,0.836,6.3611,33.2979,0.2549,0.5346,-1.1443,-143.1134
17:15:39:622,-0.309,1.133,6.219,32.8126,0.4146,0.4345,-1.0271,-143.1134
17:15:39:642,-0.386,1.5371,5.946,32.1712,0.5636,0.1929,-0.9218,-142.9966
17:15:39:660,-0.323,1.8941,5.582,31.8275,0.6359,-0.0263,-0.8792,-142.8503
17:15:39:680,-0.3161,2.2841,5.712,31.5339,0.5349,-0.2445,-0.9155,-142.6776
17:15:39:699,-0.455,2.543,6.636,31.3883,0.3636,-0.4913,-0.9878,-142.4785
17:15:39:722,-0.501,2.5721,7.361,31.442,0.2571,-0.7212,-1.0442,-142.2513
17:15:39:740,-0.405,2.615,7.6751,31.3971,0.0676,-0.7872,-1.0495,-141.9944
17:15:39:759,-0.491,2.622,8.669,31.1924,-0.2771,-0.6828,-1.0581,-141.7078
17:15:39:780,-0.7661,2.5571,9.72,31.0093,-0.5059,-0.4073,-0.9963,-141.3918
17:15:39:800,-1.494,2.876,10.335,30.886,-0.5049,0.0578,-0.7366,-141.0481
17:15:39:821,-2.0141,3.242,10.905,30.9578,-0.4144,0.4324,-0.2833,-140.6843
17:15:39:840,-1.8701,3.4961,11.5541,31.3451,-0.3644,0.4462,0.1286,-140.3157
17:15:39:860,-1.013,3.644,12.2861,31.9969,-0.3165,0.1365,0.4042,-139.9582
17:15:39:880,-0.323,3.6371,12.5981,32.6536,-0.3058,-0.2306,0.4723,-139.6228
17:15:39:900,0.044,3.5081,12.911,33.3338,-0.5038,-0.5317,0.4159,-139.3137
17:15:39:922,0.528,3.0191,14.0651,34.0087,-0.8561,-0.6839,0.3425,-139.0286
17:15:39:939,0.945,1.5371,14.9681,34.5704,-0.9848,-0.7276,0.1764,-138.7637
17:15:39:960,0.5501,0.275,14.777,34.9573,-0.8029,-0.635,0.0648,-138.5128
17:15:39:980,-0.594,0.323,13.74,35.1087,-0.4367,-0.2892,0.1434,-138.2701
17:15:40:000,-1.47,-0.0881,12.3491,35.2354,0.0645,0.2153,0.4797,-138.0366
17:15:40:022,-1.865,-0.0761,10.9151,35.3372,0.505,0.4621,0.8277,-137.8226
17:15:40:040,-1.473,0.065,9.8471,35.4772,0.6871,0.2461,1.0671,-137.6413
17:15:40:060,-0.56,0.158,9.2621,35.8916,0.653,-0.1774,1.0619,-137.5022
17:15:40:080,0.066,0.0551,9.32,36.1396,0.5987,-0.4136,0.916,-137.4067
17:15:40:100,0.5021,-0.126,9.4211,36.5,0.6626,-0.3711,0.8235,-137.4067
17:15:40:122,0.935,-0.0371,8.798,36.7853,0.7871,-0.1668,0.7831,-137.4067
17:15:40:141,1.275,0.2231,7.931,36.9946,0.8084,0.1365,0.7404,-137.4067
17:15:40:160,1.2851,0.369,7.656,37.0895,0.7094,0.359,0.6479,-137.4067
17:15:40:180,0.945,0.5531,7.3571,37.1026,0.6797,0.4291,0.5648,-137.4067
17:15:40:200,0.482,0.881,6.962,37.1408,0.7116,0.3898,0.5585,-137.4067
17:15:40:222,0.2501,1.197,6.717,37.1842,0.7296,0.2855,0.5904,-137.5152
17:15:40:240,0.2291,1.5851,6.686,37.3436,0.7232,0.1812,0.6309,-137.644
17:15:40:261,0.384,2.09,6.962,37.5549,0.6242,0.0578,0.6458,-137.794
17:15:40:281,0.822,2.5691,7.3811,37.6879,0.4711,-0.022,0.5851,-137.9652
17:15:40:300,1.007,2.8421,7.608,37.8382,0.3061,0.0811,0.451,-138.1555
17:15:40:322,1.0091,3.0431,8.2451,38.1225,0.0975,0.1599,0.3361,-138.3593
17:15:40:340,1.124,3.357,8.9441,38.376,0.0166,0.1631,0.3212,-138.5709
17:15:40:360,1.6151,3.3161,9.464,38.8154,-0.0143,0.0535,0.3147,-138.7879
17:15:40:380,2.381,3.125,10.1561,39.396,-0.127,-0.2126,0.1488,-139.0101
17:15:40:400,2.822,2.624,10.713,39.9802,-0.3026,-0.4221,-0.1013,-139.2327
17:15:40:421,2.6111,2.754,11.223,40.5462,-0.3473,-0.4542,-0.2864,-139.4466
17:15:40:441,2.4311,2.8541,11.1521,40.9358,-0.2559,-0.2582,-0.2194,-139.6436
17:15:40:461,2.633,2.61,11.4341,41.3802,-0.2388,-0.0615,-0.1386,-139.824
17:15:40:480,3.02,2.217,11.657,41.8434,-0.3931,-0.0837,-0.2758,-139.9925
17:15:40:500,2.874,1.683,11.846,42.4901,-0.5336,0.0014,-0.4599,-140.1461
17:15:40:522,2.0291,1.0511,11.7311,43.0958,-0.4847,0.2387,-0.5536,-140.278
17:15:40:540,1.443,0.659,11.367,43.5334,-0.3453,0.3717,-0.5408,-140.3845
17:15:40:561,1.0361,0.2201,11.0081,43.9125,-0.158,0.2003,-0.477,-140.3845
17:15:40:581,1.1771,0.359,10.632,44.2521,-0.0069,-0.2593,-0.4386,-140.3845
17:15:40:600,1.6151,0.503,10.206,44.6444,0.0921,-0.685,-0.4579,-140.3845
17:15:40:622,2.091,0.534,9.353,44.8483,0.1518,-0.7957,-0.5567,-140.3845
17:15:40:641,2.046,0.893,8.211,44.8525,0.157,-0.5616,-0.6867,-140.3845
17:15:40:660,1.7921,0.996,7.218,45.0892,-0.0314,-0.2168,-0.6984,-140.3845
17:15:40:680,1.182,1.3601,7.146,45.3828,-0.2867,0.0674,-0.7451,-140.3845
17:15:40:700,0.7271,1.307,6.914,45.6552,-0.2813,0.1716,-0.7611,-140.3845
17:15:40:721,0.3821,1.848,6.1211,45.923,-0.1335,0.2163,-0.7206,-140.3845
17:15:40:740,0.459,2.138,5.7401,46.014,-0.0089,0.2685,-0.5834,-140.2692
17:15:40:769,0.849,2.727,6.0041,46.0671,-0.1111,0.0216,-0.5089,-139.9857
17:15:40:785,0.9731,2.8211,6.4991,46.2037,-0.209,-0.0795,-0.5482,-139.8226
17:15:40:804,0.9281,2.811,7.23,46.2441,-0.3175,-0.1561,-0.5536,-139.6446
17:15:40:824,0.815,2.7491,8.415,46.2799,-0.4218,-0.2349,-0.4855,-139.4512
17:15:40:843,1.091,2.6171,9.602,46.4268,-0.4261,-0.2806,-0.4056,-139.2441
17:15:40:864,0.978,2.8181,10.5,46.3756,-0.291,-0.1636,-0.3684,-139.0265
17:15:40:885,0.8201,2.981,10.7951,46.257,-0.125,0.0483,-0.228,-138.8006
17:15:40:904,0.554,3.117,10.9601,46.4023,0.0166,0.2695,-0.1045,-138.5712
17:15:40:933,0.4271,3.11,11.286,46.5923,0.0549,0.2643,-0.0428,-138.3438
17:15:40:943,0.557,2.9951,11.961,47.0334,0.0124,0.1844,-0.0279,-138.1213
17:15:40:963,0.641,2.9861,13.175,47.3929,-0.026,-0.0327,-0.0353,-137.9045
17:15:40:983,0.4421,2.636,13.455,47.5508,-0.0089,-0.2615,-0.0715,-137.693
17:15:41:003,0.233,2.595,13.685,47.7291,0.0346,-0.2721,-0.0183,-137.4857
17:15:41:022,0.231,2.0951,13.412,47.7382,0.0975,-0.0965,0.12,-137.2831
17:15:41:042,-0.012,1.655,13.05,47.9164,0.2284,0.0333,0.2339,-137.0897
17:15:41:063,-0.525,1.358,11.769,48.0209,0.4998,0.21,0.3596,-136.9098
17:15:41:082,-1.149,1.0151,10.3301,47.9626,0.7127,0.2951,0.5734,-136.748
17:15:41:101,-1.281,0.905,9.152,47.8049,0.6999,0.2003,0.7256,-136.6115
17:15:41:124,-0.8531,1.044,8.8219,47.593,0.5243,0.0131,0.7447,-136.5061
17:15:41:141,-0.216,0.9221,9.0281,47.1004,0.3263,-0.2912,0.7512,-136.5061
17:15:41:160,0.497,0.6821,8.729,46.6994,0.2837,-0.3477,0.7639,-136.5061
17:15:41:181,0.746,0.7571,8.343,46.2789,0.2986,-0.1349,0.7628,-136.5061
17:15:41:200,0.854,0.7811,7.5311,45.9845,0.2933,0.1855,0.7543,-136.5061
17:15:41:222,0.6551,0.896,6.725,45.9622,0.2284,0.5037,0.7501,-136.5061
17:15:41:241,0.363,1.173,6.282,45.924,0.1273,0.7122,0.7831,-136.5061
17:15:41:260,0.164,1.65,6.143,45.9844,0.0411,0.7314,0.8554,-136.6033
17:15:41:281,0.4631,1.5161,5.922,45.8773,-0.0675,0.5856,0.914,-136.7278
17:15:41:301,0.743,1.892,6.306,45.7971,-0.159,0.4089,0.9193,-136.8809
17:15:41:322,0.815,2.0951,6.693,45.6891,-0.159,0.2036,0.8214,-137.062
17:15:41:341,0.9881,2.435,6.897,45.6692,-0.1867,-0.0188,0.7395,-137.2677
17:15:41:360,1.194,2.643,7.3331,45.7902,-0.2856,-0.1636,0.6777,-137.4937
17:15:41:381,1.3661,2.933,7.994,46.1428,-0.4113,-0.2104,0.5873,-137.7367
17:15:41:401,1.718,2.943,8.865,46.4688,-0.5464,-0.1891,0.4829,-137.9925
17:15:41:422,1.962,2.885,10.1531,46.9794,-0.657,-0.1572,0.3616,-138.2566
17:15:41:443,2.1371,2.684,11.621,47.3097,-0.6666,-0.2508,0.2786,-138.5235
17:15:41:460,2.657,2.3681,12.729,47.4284,-0.5283,-0.3743,0.2116,-138.7895
17:15:41:481,3.408,2.0089,13.187,47.743,-0.3388,-0.4881,0.1349,-139.0525
17:15:41:499,3.818,1.76,12.6821,47.8892,-0.1611,-0.3668,-0.0396,-139.311
17:15:41:522,3.3341,1.8131,11.8721,48.0021,-0.061,0.0748,-0.1939,-139.5611
17:15:41:543,2.8361,1.877,11.784,48.1016,-0.11,0.4388,-0.2716,-139.7979
17:15:41:560,3.2531,1.614,11.951,48.0154,-0.242,0.4536,-0.3418,-140.0182
17:15:41:580,3.495,1.121,11.8631,48.0692,-0.375,0.3792,-0.5664,-140.2199
17:15:41:600,3.0011,0.1391,11.9321,48.0509,-0.5505,0.342,-0.8717,-140.3969
17:15:41:621,1.811,-0.7121,12.4211,47.9965,-0.6198,0.3972,-1.0495,-140.539
17:15:41:641,0.777,-1.4141,12.677,47.9077,-0.4654,0.4675,-0.9813,-140.639
17:15:41:661,0.3221,-1.469,12.4781,47.9226,-0.1409,0.4282,-0.7111,-140.639
17:15:41:680,0.4631,-1.172,11.492,48.0778,0.2592,0.2153,-0.3589,-140.639
17:15:41:701,1.3541,-0.609,9.828,48.2831,0.4817,-0.1327,-0.1023,-140.639
17:15:41:722,2.52,0.1031,8.7671,48.3856,0.4529,-0.419,-0.0778,-140.639
17:15:41:740,2.798,0.8,7.9151,48.3757,0.338,-0.5606,-0.2577,-140.639
17:15:41:760,2.597,1.1681,7.3181,48.211,0.2338,-0.4967,-0.4887,-140.639
17:15:41:780,2.0411,1.494,6.777,48.0408,0.2358,-0.27,-0.6259,-140.639
17:15:41:800,1.388,1.781,6.0281,48.0323,0.3135,-0.0518,-0.6654,-140.639
17:15:41:822,0.837,2.15,5.262,47.9104,0.3433,0.0705,-0.6494,-140.639
17:15:41:840,0.698,2.39,4.941,47.8911,0.272,0.0566,-0.642,-140.639
17:15:41:860,0.564,2.679,4.8551,47.8436,0.1624,-0.0082,-0.6759,-140.545
17:15:41:881,0.4421,2.789,5.24,47.6065,-0.0206,-0.1699,-0.71,-140.4311
17:15:41:902,0.38,2.756,6.035,47.4348,-0.1749,-0.3222,-0.7536,-140.2961
17:15:41:922,0.2051,2.7101,6.99,47.3278,-0.2505,-0.4286,-0.7611,-140.1384
17:15:41:941,0.1091,2.579,8.061,47.5102,-0.326,-0.4775,-0.7483,-139.9578
17:15:41:960,0.008,2.5931,8.963,47.8063,-0.3846,-0.4499,-0.6898,-139.755
17:15:41:980,-0.173,2.663,9.593,47.9148,-0.4506,-0.2328,-0.5461,-139.5317
17:15:42:000,-0.606,2.622,10.28,48.2029,-0.5049,0.1451,-0.3567,-139.2925
17:15:42:022,-0.855,2.418,11.348,48.2124,-0.5889,0.3653,-0.1407,-139.044
17:15:42:040,-0.687,1.92,12.275,48.1821,-0.7167,0.342,0.0381,-138.7936
17:15:42:060,-0.527,1.592,13.9001,48.255,-0.9221,0.1642,0.1743,-138.5478
17:15:42:081,0.092,1.5491,15.423,48.1655,-1.004,-0.0891,0.352,-138.3111
17:15:42:101,1.088,0.9431,16.16,48.3753,-1.0018,-0.1594,0.4669,-138.0885
17:15:42:122,1.977,-0.1781,16.797,48.9195,-1.0061,-0.2018,0.3605,-137.8844
17:15:42:140,1.6151,-1.0811,16.9939,49.5295,-0.7102,-0.1071,0.1594,-137.6968
17:15:42:160,0.059,-1.2221,15.468,50.0799,0.0698,0.3281,0.102,-137.5192
17:15:42:180,-1.118,-0.882,12.677,50.3241,0.9116,0.8209,0.3286,-137.3497
17:15:42:200,-1.391,-0.902,9.842,50.1192,1.4065,0.974,0.6564,-137.1959
17:15:42:221,-1.281,-0.5689,8.1491,49.834,1.4586,0.8261,0.9214,-137.0698
17:15:42:240,-0.7061,-0.1571,7.5311,49.6348,1.2532,0.3611,1.0619,-137.0698
17:15:42:260,0.26,-0.162,7.3781,49.3218,1.0212,-0.1156,1.015,-137.0698
17:15:42:280,0.9251,-0.0881,7.464,48.9342,0.8414,-0.4062,0.8235,-137.0698
17:15:42:300,1.44,-0.15,7.3181,48.427,0.7008,-0.4722,0.6777,-137.0698
17:15:42:321,1.4981,0.0101,7.086,47.8538,0.5104,-0.3466,0.5563,-137.0698
17:15:42:340,1.481,0.2111,7.029,47.4694,0.2742,-0.1104,0.4638,-137.0698
17:15:42:360,1.277,0.362,7.235,47.3428,0.122,0.1557,0.4031,-137.0698
17:15:42:381,1.0361,0.5681,7.2131,47.3414,0.0751,0.294,0.3978,-137.1744
17:15:42:402,1.0481,0.896,6.9881,47.3897,0.0688,0.2973,0.4117,-137.2903
17:15:42:422,0.9851,1.4651,6.681,47.4571,0.0645,0.3132,0.3946,-137.4173
17:15:42:439,0.992,1.985,6.545,47.4022,-0.0004,0.309,0.3872,-137.555
17:15:42:459,1.2611,2.435,6.962,47.3739,-0.1387,0.2206,0.3605,-137.7025
17:15:42:480,1.802,2.7611,7.8791,47.2906,-0.2718,0.0716,0.2722,-137.8583
17:15:42:500,2.139,2.952,8.427,47.4382,-0.3037,0.0397,0.0998,-138.0194
17:15:42:522,1.845,2.919,8.664,47.8838,-0.3453,0.2238,-0.08,-138.1803
17:15:42:540,1.5101,2.682,9.045,48.3036,-0.5155,0.4408,-0.1631,-138.3344
17:15:42:561,1.6031,2.378,10.503,48.6471,-0.755,0.5026,-0.1896,-138.4773
17:15:42:579,2.1371,1.746,12.4211,48.9324,-0.789,0.3345,-0.2886,-138.608
17:15:42:600,2.1371,1.377,13.148,49.2057,-0.5379,0.2142,-0.4801,-138.7243
17:15:42:622,1.431,1.046,12.6911,49.3905,-0.2559,0.2663,-0.6122,-138.8212
17:15:42:640,1.34,0.8501,12.3101,49.6135,-0.2398,0.2441,-0.6537,-138.8212
17:15:42:661,1.634,0.536,12.624,49.7147,-0.4198,0.078,-0.7909,-138.8212
17:15:42:681,1.4831,-0.143,12.959,49.7155,-0.5709,0.1004,-1.0134,-138.8212
17:15:42:702,0.71,-0.957,13.424,49.6301,-0.5793,0.3813,-1.1326,-138.8212
17:15:42:721,-0.1751,-1.5191,14.006,49.6502,-0.3612,0.6474,-1.0442,-138.8212
17:15:42:740,-0.5201,-1.761,13.91,49.4204,0.1507,0.6698,-0.7664,-138.8212
17:15:42:760,-0.1961,-1.5581,12.8441,49.2929,0.7403,0.3792,-0.4557,-138.7063
17:15:42:780,1.0211,-1.1861,11.111,48.9896,1.0819,-0.0912,-0.2758,-138.5753
17:15:42:801,2.082,-0.708,9.612,48.5159,1.085,-0.3637,-0.3833,-138.4363
17:15:42:822,2.084,-0.1811,8.499,48.1439,0.8755,-0.3105,-0.6962,-138.2886
17:15:42:840,1.452,0.117,7.986,47.7239,0.62,-0.0507,-0.9644,-138.1235
17:15:42:861,0.6431,0.2539,7.6061,47.303,0.4891,0.2111,-1.09,-137.9314
17:15:42:879,0.1661,0.4721,7.05,46.7961,0.4976,0.3398,-1.0953,-137.7071
17:15:42:899,-0.1061,0.7331,6.1451,45.8634,0.5455,0.3728,-1.057,-137.45
17:15:42:921,-0.2441,1.0271,5.5061,44.8953,0.5253,0.3525,-1.0442,-137.1617
17:15:42:939,-0.608,1.755,5.0291,43.8872,0.439,0.2324,-1.0803,-136.8436
17:15:42:959,-0.7781,2.184,4.742,42.9449,0.2369,0.0375,-1.0687,-136.4957
17:15:42:979,-0.915,2.445,4.9601,42.4321,-0.0696,-0.1381,-1.0399,-136.1191
17:15:43:000,-0.8501,2.2241,5.5511,42.3111,-0.3857,-0.171,-0.9878,-135.7164
17:15:43:021,-1.1231,2.0861,6.9641,42.3769,-0.6379,-0.0263,-0.9261,-135.2912
17:15:43:040,-1.2551,2.105,8.781,42.8732,-0.7113,0.0397,-0.8143,-134.8473
17:15:43:059,-1.686,2.33,9.717,43.3931,-0.557,0.0652,-0.6759,-134.3897
17:15:43:080,-2.136,2.655,10.22,43.579,-0.3825,0.0993,-0.4099,-133.9229
17:15:43:100,-1.911,2.9261,10.6781,43.7787,-0.2238,0.0524,-0.08,-133.4545
17:15:43:122,-1.322,3.074,11.049,43.9808,-0.1005,-0.0934,0.0902,-132.9952
17:15:43:140,-0.996,2.967,11.5751,43.9212,-0.0972,-0.3583,0.0349,-132.5521
17:15:43:161,-0.735,2.466,12.33,44.1216,-0.1452,-0.6116,-0.1045,-132.1248
17:15:43:179,-0.774,2.244,12.875,44.2606,-0.176,-0.6711,-0.1875,-131.7088
17:15:43:200,-0.7571,2.2991,13.2941,44.147,-0.2153,-0.4967,-0.1651,-131.2999
17:15:43:223,0.284,1.1059,14.403,44.2062,-0.5835,-0.3891,-0.2855,-130.5033
17:15:43:240,0.0521,0.3641,15.528,44.2957,-0.6198,-0.5191,-0.5152,-130.1138
17:15:43:260,-0.9,-0.2891,14.906,44.1956,-0.0952,-0.2243,-0.5408,-129.7219
17:15:43:281,-1.619,-0.2981,12.6461,44.0238,0.6541,0.3844,-0.2695,-129.3232
17:15:43:300,-1.7651,-0.219,10.163,43.7452,1.1947,0.6707,0.1158,-128.9229
17:15:43:324,-1.4921,0.0071,8.199,43.1786,1.3522,0.5185,0.3403,-128.5322
17:15:43:341,-0.984,0.359,7.1771,42.408,1.2309,0.111,0.4265,-128.1593
17:15:43:360,-0.2231,0.4601,6.665,41.6196,0.9754,-0.2465,0.3531,-127.808
17:15:43:380,0.449,0.378,6.689,40.9883,0.6476,-0.4297,0.2083,-127.4776
17:15:43:400,0.705,0.3401,7.139,40.5528,0.3263,-0.4616,0.037,-127.1639
17:15:43:422,0.698,0.278,7.575,40.3382,0.0571,-0.3338,-0.1184,-126.8618
17:15:43:441,0.4391,0.1871,8.142,40.1198,-0.1122,-0.1189,-0.2141,-126.5657
17:15:43:460,-0.053,0.237,8.3771,39.9239,-0.1367,0.0705,-0.1981,-126.2719
17:15:43:481,-0.323,0.51,8.219,39.6197,-0.0388,0.2153,-0.0726,-125.9796
17:15:43:499,-0.237,0.924,7.407,39.36,0.0751,0.2685,0.0551,-125.6922
17:15:43:522,-0.122,1.449,6.875,39.1641,0.0252,0.2174,0.0754,-125.414
17:15:43:543,-0.0911,1.851,6.729,39.091,-0.1015,0.1343,0.036,-125.1468
17:15:43:561,0.047,2.198,6.827,38.9415,-0.2676,0.0258,-0.0289,-124.8894
17:15:43:580,0.1661,2.399,7.424,38.7101,-0.4804,-0.0945,-0.1194,-124.6401
17:15:43:599,0.356,2.325,8.585,38.4485,-0.6325,-0.1924,-0.212,-124.3962
17:15:43:621,0.459,2.265,9.66,38.217,-0.5963,-0.2221,-0.2886,-124.1546
17:15:43:642,0.384,2.121,10.541,38.289,-0.4282,-0.2115,-0.2949,-123.9123
17:15:43:659,0.684,1.9871,10.8161,38.4805,-0.2069,-0.238,-0.2524,-123.6679
17:15:43:680,1.148,1.973,11.003,38.6334,-0.0664,-0.286,-0.2588,-123.4221
17:15:43:700,1.7831,1.829,11.204,38.8663,-0.0271,-0.3817,-0.3461,-123.1751
17:15:43:722,2.264,1.619,11.417,38.7897,-0.0069,-0.3774,-0.5026,-122.9245
17:15:43:741,2.1851,1.355,11.336,38.4697,0.1092,-0.1338,-0.6429,-122.6655
17:15:43:760,1.4951,1.403,10.836,38.1061,0.2816,0.1525,-0.6472,-122.3929
17:15:43:780,1.613,1.6691,10.5431,37.7328,0.2848,0.0972,-0.5919,-122.105
17:15:43:800,2.5271,1.839,11.19,37.4587,0.1049,-0.2966,-0.6674,-121.8038
17:15:43:821,3.164,1.757,12.095,37.2491,0.007,-0.6563,-0.8825,-121.489
17:15:43:840,3.375,1.4921,12.4301,36.9649,-0.0143,-0.8745,-1.0942,-121.1548
17:15:43:860,3.2,1.0369,12.449,36.6618,-0.0525,-0.8916,-1.3443,-120.7943
17:15:43:879,2.331,0.383,12.3971,36.5409,-0.0642,-0.6702,-1.5529,-120.4
17:15:43:899,1.4261,-0.131,12.377,36.3087,-0.0164,-0.4807,-1.57,-119.9647
17:15:43:921,1.304,-0.3461,12.504,35.9036,0.0943,-0.4946,-1.489,-119.4869
17:15:43:941,1.598,-0.377,11.808,35.6299,0.3029,-0.5754,-1.4508,-118.97
17:15:43:960,1.584,-0.138,10.2491,35.2341,0.4359,-0.5285,-1.489,-118.4171
17:15:43:980,1.376,0.072,8.817,35.0038,0.3604,-0.353,-1.5774,-117.8284
17:15:44:000,0.9611,0.213,7.8881,34.7297,0.206,-0.1273,-1.6827,-117.2023
17:15:44:021,0.432,0.323,7.457,34.3237,0.1028,0.0525,-1.7625,-116.5363
17:15:44:041,-0.084,0.369,7.455,33.9405,0.1444,0.0748,-1.7667,-115.8283
17:15:44:060,-0.29,0.4961,7.005,33.6305,0.3476,-0.072,-1.6912,-115.0785
17:15:44:080,-0.1511,0.759,6.119,33.2351,0.5136,-0.2732,-1.6019,-114.2896
17:15:44:100,0.138,1.109,5.379,32.8054,0.4615,-0.4403,-1.5912,-113.4657
17:15:44:122,0.444,1.415,5.252,32.3557,0.2549,-0.4861,-1.6423,-112.6087
17:15:44:140,0.645,1.5731,5.336,32.1493,-0.0153,-0.4466,-1.687,-111.7188
17:15:44:162,0.636,1.7771,5.748,32.1376,-0.3367,-0.3945,-1.7337,-110.7956
17:15:44:180,0.2261,1.9901,6.48,32.0472,-0.6731,-0.2892,-1.7795,-109.8394
17:15:44:200,-0.2591,2.045,7.553,31.6836,-0.9167,-0.1189,-1.7178,-108.8503
17:15:44:222,-0.783,2.3561,8.678,31.2001,-1.037,-0.0135,-1.5242,-107.8314
17:15:44:239,-1.173,2.708,10.2971,30.7607,-1.0582,-0.1082,-1.2752,-106.7902
17:15:44:259,-1.25,2.94,11.463,30.4551,-0.8507,-0.2051,-0.9761,-105.7363
17:15:44:281,-1.554,3.2231,11.697,30.5116,-0.4868,-0.0997,-0.6409,-104.6797
17:15:44:301,-1.664,3.3431,11.781,30.928,-0.2463,0.0216,-0.3535,-103.6311
17:15:44:321,-1.181,3.1871,12.528,31.2125,-0.176,-0.1156,-0.1854,-102.5998
17:15:44:340,-0.5291,2.964,13.524,31.4631,-0.1143,-0.436,-0.1321,-101.5923
17:15:44:360,0.1571,2.703,13.802,31.7001,0.023,-0.6127,-0.1077,-100.6106
17:15:44:379,0.746,2.7341,13.824,31.661,0.1283,-0.5637,-0.1056,-99.6543
17:15:44:400,0.885,3.0791,13.211,31.6015,0.2284,-0.2349,-0.0886,-98.7229
17:15:44:421,0.7481,3.1031,12.516,31.3664,0.239,0.1918,-0.0524,-97.8157
17:15:44:441,1.151,2.658,12.425,30.8491,0.0272,0.2493,-0.146,-96.9332
17:15:44:461,1.2011,1.712,12.3221,30.3945,-0.043,0.2652,-0.3641,-96.0733
17:15:44:480,0.5089,1.2401,11.24,30.0134,0.1741,0.4527,-0.4631,-95.2289
17:15:44:500,-0.6011,1.104,9.413,29.823,0.4763,0.7282,-0.3993,-94.3942
17:15:44:522,-1.137,1.097,8.1161,29.8757,0.5838,0.7814,-0.2291,-93.5686
17:15:44:540,-1.169,1.365,8.3291,29.7635,0.4742,0.3429,-0.1418,-92.7561
17:15:44:559,-0.527,1.0369,9.3821,29.6138,0.3647,-0.4998,-0.1768,-91.9602
17:15:44:580,0.032,0.893,10.031,29.7077,0.3838,-1.1725,-0.2747,-91.1811
17:15:44:600,0.7391,0.639,10.079,29.8481,0.4848,-1.2895,-0.3279,-90.4154
17:15:44:621,1.148,0.453,9.2861,29.893,0.5944,-0.9064,-0.3535,-89.6604
17:15:44:642,1.191,0.56,8.6501,29.9083,0.4615,-0.3679,-0.2897,-88.9144
17:15:44:660,1.1291,0.747,8.642,29.7607,0.1965,0.0833,-0.2269,-88.1788
17:15:44:680,0.717,1.116,8.772,29.3844,0.1646,0.426,-0.1961,-87.4564
17:15:44:700,0.119,1.592,8.5661,29.0565,0.3167,0.5591,-0.1077,-86.748
17:15:44:721,-0.048,1.947,7.7471,28.9096,0.4646,0.591,-0.0077,-86.0554
17:15:44:739,-0.149,2.4401,7.127,28.751,0.4848,0.593,0.1317,-85.3811
17:15:44:761,-0.108,2.981,7.074,28.6621,0.3561,0.4738,0.2062,-84.7288
17:15:44:780,0.1661,3.275,7.677,28.5713,0.1986,0.2663,0.1636,-84.1014
17:15:44:799,0.368,3.362,8.288,28.5468,0.0667,0.1578,0.0892,-83.4985
17:15:44:822,0.5179,3.4721,9.255,28.4831,-0.0388,0.1812,0.0327,-82.9172
17:15:44:840,0.53,3.383,10.1321,28.4711,-0.0121,0.327,-0.0513,-82.3551
17:15:44:860,0.3221,3.213,10.8161,28.3703,0.172,0.4388,-0.0737,-81.8092
17:15:44:880,0.078,3.108,10.778,28.173,0.421,0.3514,-0.0407,-81.2765
17:15:44:900,0.138,3.24,10.349,28.15,0.5625,0.1451,0.0019,-80.7563
17:15:44:922,0.5501,3.3191,9.998,28.308,0.5742,0.0034,-0.0098,-80.2488
17:15:44:962,0.4301,3.5201,9.725,28.568,0.5796,0.0546,-0.08,-79.7536
17:15:44:962,-0.1061,3.848,9.6431,28.818,0.5136,0.0822,-0.1577,-79.2682
17:15:44:979,-0.3281,3.896,9.528,28.9545,0.3178,-0.0678,-0.2226,-78.7897
17:15:45:000,0.2021,3.7211,9.2891,28.8003,0.056,-0.1987,-0.2417,-78.3162
17:15:45:022,1.337,2.919,9.3251,28.6813,-0.2984,-0.2764,-0.279,-77.8475
17:15:45:039,1.775,2.289,9.962,28.715,-0.6475,-0.1944,-0.4791,-77.3845
17:15:45:060,0.5951,1.619,10.3331,29.0698,-0.5294,0.2674,-0.5675,-76.9233
17:15:45:080,-0.347,1.152,10.56,29.4872,-0.2569,0.2813,-0.4642,-76.4591
17:15:45:100,-0.201,0.9821,10.431,30.0205,-0.1537,-0.3999,-0.2886,-75.9926
17:15:45:122,2.1799,1.52,9.516,30.5097,-0.2696,-0.883,-0.2812,-75.0726
17:15:45:141,2.843,1.248,9.251,30.8124,-0.3877,-0.5818,-0.544,-74.6224
17:15:45:161,2.4191,1.049,8.973,31.1062,-0.4527,-0.22,-0.8133,-74.171
17:15:45:180,1.428,1.19,8.697,31.5651,-0.4537,0.029,-0.958,-73.7086
17:15:45:200,0.4631,1.599,8.3771,32.0713,-0.3112,0.2535,-0.9824,-73.2293
17:15:45:224,-0.185,1.947,7.697,32.5523,-0.0186,0.3909,-0.8942,-72.7312
17:15:45:241,-0.4451,2.349,7.0001,33.1665,0.2507,0.36,-0.7781,-72.2161
17:15:45:261,-0.6041,2.751,6.428,33.5177,0.4008,0.212,-0.7175,-71.6872
17:15:45:280,-0.915,2.9861,6.875,33.5745,0.4859,-0.0082,-0.6696,-71.1465
17:15:45:300,-0.905,3.003,7.2461,33.8222,0.6115,-0.3774,-0.5962,-70.5955
17:15:45:323,-0.623,3.417,7.179,34.153,0.6945,-0.683,-0.4705,-70.0359
17:15:45:340,-0.165,3.6611,7.05,34.7257,0.6072,-0.8,-0.4258,-69.4714
17:15:45:360,0.078,3.833,7.706,35.3206,0.3508,-0.7692,-0.4876,-68.9051
17:15:45:381,0.063,4.001,8.702,35.9472,0.122,-0.6318,-0.5589,-68.3372
17:15:45:400,-0.326,4.08,9.284,36.3767,0.0187,-0.2923,-0.5684,-67.7662
17:15:45:423,-0.86,4.178,9.674,36.805,-0.0078,0.1163,-0.4429,-67.1917
17:15:45:440,-1.0301,4.298,10.335,37.2764,-0.0813,0.1929,-0.2907,-66.617
17:15:45:460,-0.869,4.358,10.8281,37.8713,-0.1909,-0.0168,-0.212,-66.0479
17:15:45:481,-0.5801,4.154,11.36,38.4905,-0.3889,-0.2604,-0.1865,-65.4884
17:15:45:500,-0.2591,4.0991,12.1841,38.9267,-0.6688,-0.434,-0.1609,-64.9403
17:15:45:522,0.1091,3.7571,12.902,39.3572,-0.839,-0.385,-0.0928,-64.4051
17:15:45:543,0.557,2.904,13.563,39.7475,-0.9104,-0.2423,-0.0407,-63.8851
17:15:45:560,0.516,1.985,14.355,40.1204,-0.8305,-0.2445,-0.0694,-63.3822
17:15:45:579,-0.2081,1.2521,13.5461,40.4286,-0.3442,-0.1614,-0.1088,-62.8956
17:15:45:600,-1.329,1.4201,11.5661,40.7992,0.2912,0.2003,0.0019,-62.4217
17:15:45:622,-1.968,1.4921,9.983,41.1699,0.6806,0.3707,0.2691,-61.9602
17:15:45:642,-2.169,1.604,8.894,41.4722,0.8137,0.1855,0.4681,-61.517
17:15:45:661,-2.0501,1.779,8.477,41.8448,0.8339,-0.1668,0.6362,-61.0987
17:15:45:680,-1.212,1.983,8.207,42.1492,0.7583,-0.5797,0.7287,-60.7106
17:15:45:700,-0.0791,1.949,7.9841,42.3297,0.5881,-0.8011,0.6724,-60.3565
17:15:45:722,0.734,1.7621,8.195,42.5464,0.32,-0.6819,0.517,-60.0362
17:15:45:740,1.064,1.7051,8.681,42.8771,0.157,-0.3168,0.402,-59.7448
17:15:45:759,0.803,1.808,8.5871,43.1621,0.1911,0.1716,0.3233,-59.4775
17:15:45:780,0.104,1.9181,7.979,43.4753,0.2986,0.5515,0.3414,-59.2303
17:15:45:800,-0.2921,2.193,7.373,43.7082,0.3284,0.6633,0.4393,-59.002
17:15:45:821,-0.414,2.5691,7.002,43.8043,0.3519,0.659,0.5532,-58.7947
17:15:45:840,-0.443,3.062,6.7511,43.8804,0.3795,0.6271,0.6362,-58.6116
17:15:45:860,-0.383,3.666,6.777,43.9207,0.3625,0.5398,0.7011,-58.4555
17:15:45:880,0.104,4.0991,7.139,43.7944,0.3081,0.3387,0.7426,-58.3278
17:15:45:900,0.722,4.535,7.931,43.7035,0.2338,0.0429,0.667,-58.2297
17:15:45:921,1.2941,4.398,8.702,43.6876,0.2145,-0.1594,0.517,-58.2297
17:15:45:940,1.5191,4.233,9.353,43.7296,0.2879,-0.1913,0.3798,-58.2297
17:15:45:960,1.62,4.0661,9.4729,43.7993,0.3891,-0.1753,0.268,-58.2297
17:15:45:980,1.893,3.891,9.176,44.0083,0.3487,-0.1699,0.1605,-58.2297
17:15:45:999,2.168,3.9101,9.006,44.2841,0.1592,-0.1327,0.0488,-58.2297
17:15:46:021,2.1851,4.0781,9.0281,44.721,-0.093,-0.0242,-0.0886,-58.2297
17:15:46:041,1.907,4.307,9.272,45.1867,-0.3112,0.1738,-0.2163,-58.2297
17:15:46:059,1.373,4.1711,9.409,45.5163,-0.4719,0.3196,-0.3312,-58.2297
17:15:46:080,1.265,3.9551,9.8801,45.6946,-0.7528,0.1812,-0.4323,-58.2297
17:15:46:099,1.878,3.4721,10.955,45.704,-1.0029,-0.0465,-0.5578,-58.2297
17:15:46:122,1.842,2.873,11.487,45.4338,-1.0167,-0.0859,-0.7175,-58.2297
17:15:46:140,1.3181,2.2631,11.796,45.1759,-0.923,0.0131,-0.8185,-58.2297
17:15:46:160,0.5621,1.6901,11.597,45.048,-0.674,0.1632,-0.8122,-58.1186
17:15:46:180,-0.182,1.2401,11.384,45.3893,-0.4836,0.1015,-0.7069,-57.9837
17:15:46:201,-0.11,0.9101,11.357,46.3264,-0.3707,-0.2551,-0.5026,-57.8281
17:15:46:222,0.803,0.7781,10.8911,47.3138,-0.2984,-0.6276,-0.3046,-57.6585
17:15:46:240,1.9481,0.984,10.644,48.2452,-0.3217,-0.7371,-0.23,-57.4823
17:15:46:260,2.6681,1.1471,10.326,48.9389,-0.2654,-0.5393,-0.3205,-57.3037
17:15:46:280,2.7401,1.1471,9.7151,49.3266,-0.1185,-0.2146,-0.5015,-57.1211
17:15:46:301,2.058,1.3241,8.685,49.4655,0.038,0.0483,-0.6622,-56.9287
17:15:46:322,1.2221,1.523,7.61,49.667,0.205,0.227,-0.7505,-56.7203
17:15:46:340,0.473,1.746,6.4781,49.972,0.3647,0.344,-0.7249,-56.4921
17:15:46:360,0.0041,2.121,5.7311,50.1718,0.4615,0.3633,-0.6216,-56.2438
17:15:46:380,0.071,2.538,5.307,50.4826,0.4455,0.2366,-0.5525,-55.9786
17:15:46:400,0.2891,3.05,5.034,50.8889,0.3263,0.1121,-0.5888,-55.6997
17:15:46:421,0.3011,3.41,5.432,51.2086,0.1337,0.0642,-0.6717,-55.4075
17:15:46:440,0.095,3.395,6.188,51.5811,-0.0366,-0.0263,-0.7664,-55.1004
17:15:46:460,-0.4361,3.4961,7.388,51.8414,-0.1376,-0.1731,-0.7739,-54.7764
17:15:46:480,-0.615,3.5171,8.369,52.0934,-0.1398,-0.3392,-0.6791,-54.435
17:15:46:501,-0.762,3.671,8.966,52.2386,-0.0972,-0.3913,-0.5482,-54.0794
17:15:46:522,-0.651,3.912,9.593,52.5199,-0.0983,-0.304,-0.3886,-53.7141
17:15:46:540,-0.5561,4.1111,10.1561,52.9712,-0.076,-0.1327,-0.2365,-53.3447
17:15:46:561,-0.5891,4.0849,10.73,53.405,-0.0558,-0.0487,-0.1429,-52.9768
17:15:46:580,-0.599,3.951,11.264,53.5835,-0.1174,-0.1178,-0.1099,-52.6144
17:15:46:602,-0.4241,3.8621,11.9111,53.687,-0.2281,-0.1881,-0.0715,-52.2589
17:15:46:622,-0.24,3.611,12.569,53.904,-0.3495,-0.2211,-0.03,-51.9119
17:15:46:640,-0.177,3.702,13.1051,53.9871,-0.4697,-0.1508,0.0605,-51.5749
17:15:46:660,0.104,3.603,13.395,54.0842,-0.3889,0.1886,0.2276,-51.2505
17:15:46:681,0.176,2.8421,13.287,54.2095,-0.2835,0.3217,0.2478,-50.9434
17:15:46:700,-0.182,2.1071,13.362,54.3109,-0.2654,0.0896,0.1584,-50.6555
17:15:46:721,-0.728,1.595,12.234,54.4567,0.0836,0.1078,0.1391,-50.3837
17:15:46:740,-1.542,1.5761,10.187,54.5311,0.5295,0.4654,0.2722,-50.1249
17:15:46:761,-2.021,1.5161,8.334,54.3997,0.6615,0.6027,0.4584,-49.8802
17:15:46:780,-1.9871,1.5161,7.6871,53.939,0.4231,0.3398,0.583,-49.6543
17:15:46:800,-1.4201,1.415,8.336,53.4842,0.0645,-0.237,0.6086,-49.4523
17:15:46:822,-0.402,0.893,9.0491,53.1905,-0.1122,-0.6691,0.534,-49.277
17:15:46:841,0.4181,0.7571,9.327,53.0957,-0.1484,-0.6403,0.4894,-49.1269
17:15:46:861,0.755,0.7181,9.399,53.1925,-0.1302,-0.319,0.4265,-48.9994
17:15:46:880,0.684,0.7451,9.0281,53.245,-0.0366,0.1759,0.3818,-48.8919
17:15:46:900,0.1811,0.915,8.228,53.1371,0.089,0.5686,0.4223,-48.8017
17:15:46:922,-0.1991,1.317,7.512,52.7983,0.1422,0.6655,0.4914,-48.8017
17:15:46:940,-0.3191,1.7861,6.923,52.2372,0.2358,0.624,0.5873,-48.8017
17:15:46:960,-0.429,2.267,6.248,51.6775,0.3305,0.5505,0.6575,-48.8017
17:15:46:980,-0.5171,2.8211,6.0011,51.2312,0.3284,0.4239,0.6969,-48.8017
17:15:47:001,-0.383,3.302,6.131,50.9249,0.2252,0.194,0.6989,-48.8017
17:15:47:021,0.1691,3.5081,6.854,50.7547,0.0506,-0.1306,0.6447,-48.8017
17:15:47:041,0.669,3.5771,7.7831,50.4788,-0.1079,-0.4349,0.517,-48.8017
17:15:47:060,0.9131,3.534,8.798,50.2892,-0.1909,-0.5318,0.3531,-48.8017
17:15:47:080,0.734,3.575,9.861,50.1706,-0.1792,-0.4371,0.2329,-48.8017
17:15:47:100,0.8201,3.383,10.304,50.2379,-0.1558,-0.3435,0.1977,-48.8995
17:15:47:122,1.416,3.218,10.689,50.3012,-0.2728,-0.2784,0.2105,-49.0019
17:15:47:140,2.3501,2.9351,11.499,50.2426,-0.4708,-0.2274,0.118,-49.1093
17:15:47:162,2.357,2.823,11.9351,50.4277,-0.425,0.011,-0.0821,-49.2198
17:15:47:182,1.325,2.6861,11.262,50.6928,-0.2559,0.2324,-0.18,-49.3272
17:15:47:200,1.352,2.732,10.907,50.852,-0.3985,0.0939,-0.1449,-49.4263
17:15:47:223,3.495,1.815,12.095,50.9109,-0.7943,-0.3242,-0.3886,-49.5175
17:15:47:241,3.143,1.073,12.4061,50.7163,-0.7443,-0.2338,-0.6313,-49.5175
17:15:47:260,1.8191,0.41,11.987,50.3854,-0.4857,0.0503,-0.7494,-49.5175
17:15:47:281,0.8081,0.11,11.6021,50.1516,-0.2452,0.1429,-0.6887,-49.5175
17:15:47:300,0.6671,-0.011,11.5271,50.0074,-0.0451,-0.1955,-0.5547,-49.5175
17:15:47:322,1.718,0.1511,10.965,49.8778,0.1103,-0.6808,-0.4568,-49.5175
17:15:47:340,2.738,0.467,9.638,49.9695,0.1666,-0.7872,-0.5365,-49.5175
17:15:47:361,2.922,0.635,8.3141,49.827,-0.0121,-0.518,-0.7728,-49.5175
17:15:47:380,2.1371,0.771,7.9031,49.7961,-0.2813,-0.1008,-1.0282,-49.5175
17:15:47:401,0.978,0.893,7.9151,49.7738,-0.3729,0.3207,-1.1762,-49.4137
17:15:47:423,-0.024,0.941,7.407,49.6648,-0.1792,0.6229,-1.1793,-49.2738
17:15:47:440,-0.747,1.2401,6.509,44.6419,0.0528,0.7091,-1.0655,-49.0974
17:15:47:460,-1.032,1.6691,6.047,44.7515,0.1528,0.5261,-0.9409,-48.8882
17:15:47:481,-0.735,1.971,6.0521,44.8308,0.1689,0.1812,-0.8686,-48.6511
17:15:47:500,-0.501,2.2961,6.0761,44.8644,0.1444,-0.1572,-0.8888,-48.3901
17:15:47:522,-0.273,2.507,6.5351,44.7911,0.0219,-0.3051,-0.925,-48.1061
17:15:47:544,0.0131,2.5721,7.4021,44.6668,-0.159,-0.3934,-0.9474,-47.7988
17:15:47:561,0.336,2.4731,8.585,44.4875,-0.2804,-0.3882,-0.9485,-47.4686
17:15:47:579,0.291,2.2871,9.3101,44.2151,-0.3336,-0.3435,-0.9303,-47.1164
17:15:47:600,0.114,2.3801,10.148,43.8445,-0.4091,-0.2593,-0.8686,-46.7435
17:15:47:622,-0.216,2.588,11.051,43.5605,-0.4059,-0.0263,-0.7175,-46.3522
17:15:47:642,-0.7541,2.7371,11.537,43.359,-0.225,0.2823,-0.4993,-45.9474
17:15:47:660,-1.343,2.933,11.7551,43.113,-0.0408,0.3185,-0.2801,-45.5361
17:15:47:680,-1.578,2.957,11.951,43.0404,0.0901,0.1035,-0.0778,-45.1257
17:15:47:700,-1.2791,2.751,12.069,43.0654,0.0836,-0.2668,0.0551,-44.7227
17:15:47:723,-0.434,2.732,12.6581,43.0276,-0.1259,-0.5712,0.1328,-44.3321
17:15:47:741,0.3821,2.742,13.311,42.9064,-0.3421,-0.4796,0.2083,-43.9572
17:15:47:760,0.368,2.16,13.85,42.7939,-0.4793,-0.1551,0.1382,-43.6009
17:15:47:780,-0.453,0.9821,14.499,42.6546,-0.5527,-0.0806,-0.0246,-43.2621
17:15:47:800,-1.434,0.206,13.86,42.651,-0.258,-0.0135,0.0125,-42.9356
17:15:47:822,-2.241,0.2681,11.891,42.8265,0.3454,0.3303,0.2722,-42.619
17:15:47:840,-2.6081,0.5051,9.464,42.9049,0.7158,0.4579,0.5639,-42.318
17:15:47:861,-2.5691,0.584,8.183,42.9752,0.6456,0.2887,0.7831,-42.0408
17:15:47:880,-2.2121,0.587,8.4221,43.045,0.3699,-0.1805,0.9268,-41.7947
17:15:47:900,-1.133,0.2351,9.284,43.0213,0.2549,-0.602,1.0044,-41.5851
17:15:47:921,0.03,0.014,9.6311,42.8367,0.4019,-0.6617,1.0438,-41.415
17:15:47:940,0.8201,0,9.3251,42.4593,0.5742,-0.4658,1.0469,-41.2849
17:15:47:962,1.311,0.338,8.594,42.0556,0.6828,-0.1136,1.0172,-41.194
17:15:47:979,1.1891,0.642,7.7231,41.8132,0.7275,0.2569,0.9353,-41.194
17:15:48:000,0.7121,0.888,6.7511,41.8469,0.6923,0.5068,0.8374,-41.194
17:15:48:022,0.4301,1.185,6.231,42.3207,0.5838,0.6463,0.7936,-41.194
17:15:48:040,0.104,1.547,5.922,42.8766,0.4593,0.692,0.7606,-41.194
17:15:48:060,-0.0191,1.899,6.03,43.2062,0.3029,0.5835,0.7309,-41.194
17:15:48:080,0.044,2.27,6.377,43.6081,0.1592,0.4047,0.6744,-41.194
17:15:48:100,0.1781,2.4851,6.849,43.658,0.0613,0.1961,0.5776,-41.3055
17:15:48:122,0.3821,2.5481,7.11,43.4972,-0.043,0.0205,0.4553,-41.4348
17:15:48:140,0.617,2.6171,7.8,43.5781,-0.225,-0.0774,0.3201,-41.5776
17:15:48:160,0.813,2.507,8.925,43.5226,-0.3835,-0.1358,0.1584,-41.7293
17:15:48:180,0.8441,2.306,9.981,43.4628,-0.4367,-0.171,0.0349,-41.8844
17:15:48:200,0.981,2.093,11.202,43.4251,-0.4569,-0.254,-0.0151,-42.0381
17:15:48:222,1.7921,1.7531,12.203,43.2868,-0.4282,-0.3594,-0.0236,-42.188
17:15:48:240,2.508,1.8131,12.2981,43.0789,-0.3356,-0.253,-0.0747,-42.3334
17:15:48:262,2.5871,1.8101,11.918,43.166,-0.3388,0.0099,-0.2098,-42.4731
17:15:48:280,2.024,1.7411,11.975,43.3166,-0.5303,0.0887,-0.3823,-42.6033
17:15:48:300,1.601,1.5611,12.471,43.4433,-0.7326,0.0323,-0.4748,-42.7187
17:15:48:322,1.5701,0.951,12.9881,43.5857,-0.839,-0.0997,-0.5567,-42.816
17:15:48:342,1.1621,0.62,13.1051,43.536,-0.7986,-0.1189,-0.6014,-42.816
17:15:48:361,0.614,0.266,12.753,43.4878,-0.5709,0.1078,-0.4983,-42.816
17:15:48:380,0.111,0.0791,11.8481,43.4108,-0.2835,0.3238,-0.3194,-42.816
17:15:48:400,-0.1271,0.168,10.9601,43.4565,-0.0419,0.3994,-0.0917,-42.816
17:15:48:422,0.1571,0.299,10.3781,43.6329,0.19,0.3004,0.1297,-42.816
17:15:48:441,0.9491,0.33,9.734,43.7217,0.3774,-0.0476,0.2009,-42.816
17:15:48:459,1.7201,0.51,8.9681,43.8694,0.4615,-0.3891,0.0785,-42.816
17:15:48:480,2.2451,0.704,8.264,43.9504,0.4093,-0.4744,-0.1662,-42.816
17:15:48:500,2.3171,0.7541,7.656,43.782,0.3274,-0.1881,-0.4705,-42.816
17:15:48:524,1.5191,0.9551,6.978,43.8197,0.2507,0.2589,-0.7069,-42.816
17:15:48:540,0.861,1.2401,6.581,43.833,0.1741,0.5452,-0.8207,-42.816
17:15:48:560,0.4661,1.4321,6.509,43.8098,0.1518,0.5824,-0.8888,-42.816
17:15:48:580,0.21,1.544,6.2651,43.8423,0.1411,0.3972,-0.9782,-42.816
17:15:48:601,-0.098,1.65,6.176,43.8233,0.0155,0.1525,-1.1102,-42.7188
17:15:48:622,-0.3191,1.688,6.557,43.7417,-0.2005,0.0184,-1.2166,-42.5874
17:15:48:640,-0.74,1.647,7.1291,43.7491,-0.3666,0.1217,-1.2305,-42.4197
17:15:48:661,-1.341,1.695,7.824,43.975,-0.4623,0.2951,-1.1176,-42.2158
17:15:48:680,-1.659,1.791,8.781,44.2651,-0.474,0.2993,-0.9133,-41.9802
17:15:48:700,-1.8251,2.0831,9.303,44.5972,-0.3559,0.2014,-0.6845,-41.7203
17:15:48:722,-1.968,2.6,9.342,44.6643,-0.2271,0.1462,-0.428,-41.4443
17:15:48:741,-2.169,2.988,9.576,44.5856,-0.1814,0.1323,-0.2056,-41.1607
17:15:48:761,-2.3471,3.137,10.22,44.8404,-0.158,0.0748,0.0115,-40.8773
17:15:48:780,-2.105,2.9621,11.226,45.1636,-0.1495,-0.1859,0.2276,-40.6013
17:15:48:800,-1.226,2.445,12.1931,45.5232,-0.2207,-0.6137,0.3403,-40.34
17:15:48:822,-0.6971,2.052,13.089,45.9383,-0.3963,-0.8372,0.3574,-40.0981
17:15:48:840,-0.2111,1.851,14.2811,45.9255,-0.5835,-0.802,0.3978,-39.877
17:15:48:860,-0.053,1.803,14.6021,45.8267,-0.4517,-0.3242,0.4999,-39.6774
17:15:48:879,-0.362,1.583,14.2451,45.6961,-0.209,0.2248,0.567,-39.5013
17:15:48:901,-0.9551,1.0421,13.728,45.6324,-0.0685,0.2398,0.5585,-39.3502
17:15:48:922,-1.6001,0.7181,12.413,45.7246,0.3157,0.2068,0.6575,-39.223
17:15:48:941,-2.0021,0.747,10.335,45.9697,0.7498,0.2908,0.8543,-39.12
17:15:48:964,-2.057,0.68,8.609,46.2753,0.8382,0.1738,1.0002,-39.12
17:15:48:980,-1.712,0.6251,8.051,46.5891,0.604,-0.1434,1.0757,-39.12
17:15:49:001,-0.594,0.263,8.736,46.6878,0.2933,-0.5627,1.0341,-39.12
17:15:49:022,0.5141,-0.1811,9.018,46.7557,0.1453,-0.6978,0.9012,-39.12
17:15:49:040,1.038,-0.413,9.21,46.7587,0.0209,-0.5063,0.7575,-39.12
17:15:49:060,1.184,-0.693,9.3341,46.7024,-0.0738,-0.187,0.5958,-39.12
17:15:49:081,0.7031,-0.696,9.126,46.7743,-0.0803,0.2025,0.5064,-39.2249
17:15:49:100,0.02,-0.5089,8.726,46.9372,0.0102,0.5367,0.5511,-39.3448
17:15:49:122,-0.3551,-0.3941,8.2211,47.0887,0.188,0.6931,0.6777,-39.4794
17:15:49:141,-0.3191,-0.114,7.2251,47.4754,0.406,0.6655,0.8394,-39.6315
17:15:49:161,-0.182,0.462,6.033,47.8163,0.5158,0.5995,0.9448,-39.8053
17:15:49:179,-0.228,1.173,5.3381,48.244,0.454,0.5824,0.9703,-40.004
17:15:49:200,-0.192,1.796,5.0531,48.7031,0.2592,0.5229,0.9523,-40.2285
17:15:49:223,0.119,2.406,7.2611,49.116,-0.3846,-0.0359,0.6787,-40.7509
17:15:49:242,0.5831,2.2271,8.982,49.4511,-0.5251,-0.3604,0.5149,-41.0417
17:15:49:260,0.887,2.04,10.244,49.6065,-0.4964,-0.4701,0.3798,-41.345
17:15:49:280,1.1,1.985,11.3171,49.8232,-0.4645,-0.4403,0.2893,-41.6553
17:15:49:300,1.728,1.769,12.837,49.8981,-0.425,-0.4828,0.2595,-41.9684
17:15:49:323,2.783,1.4771,13.919,49.8766,-0.2921,-0.6872,0.1658,-42.2825
17:15:49:339,3.569,1.271,14.094,49.9232,-0.0718,-0.7382,-0.0183,-42.5947
17:15:49:360,3.341,1.523,13.0481,49.9507,0.1837,-0.386,-0.1928,-42.8993
17:15:49:380,2.597,1.935,12.2171,49.8927,0.1752,0.0184,-0.2833,-43.1896
17:15:49:400,2.645,1.992,12.263,49.8093,-0.1111,-0.0327,-0.3514,-43.462
17:15:49:421,3.0371,1.643,12.866,49.7645,-0.2718,-0.2476,-0.4866,-43.715
17:15:49:440,2.922,0.752,12.557,49.7261,-0.2463,-0.304,-0.6728,-43.9454
17:15:49:460,2.0891,-0.1931,12.248,49.7246,-0.1994,-0.1189,-0.7813,-44.1481
17:15:49:480,1.505,-0.741,12.248,49.8556,-0.0803,0.0854,-0.7047,-44.3188
17:15:49:501,1.361,-0.902,11.939,50.008,0.2262,0.1653,-0.51,-44.4591
17:15:49:524,1.929,-0.674,10.7111,50.0863,0.6062,0.0961,-0.3641,-44.5755
17:15:49:544,2.51,-0.267,8.915,50.1444,0.8073,0.0077,-0.3961,-44.674
17:15:49:560,2.625,0.249,7.388,49.9834,0.7392,0.0344,-0.5717,-44.674
17:15:49:579,2.0771,0.596,6.114,49.67,0.5605,0.2408,-0.7931,-44.674
17:15:49:600,1.052,0.903,5.582,49.4796,0.355,0.5153,-0.9772,-44.674
17:15:49:623,0.236,0.9341,5.151,49.4635,0.2188,0.6314,-1.0559,-44.674
17:15:49:642,-0.299,1.089,4.91,49.6828,0.1347,0.591,-1.0655,-44.674
17:15:49:659,-0.5651,1.3361,5.156,49.9746,0.0496,0.36,-1.0709,-44.674
17:15:49:680,-0.63,1.619,5.8871,50.328,-0.0143,-0.0444,-1.1219,-44.5673
17:15:49:700,-0.663,1.6211,6.159,50.4453,-0.0345,-0.3743,-1.1666,-44.4258
17:15:49:722,-0.647,1.643,6.4661,50.3303,-0.1484,-0.4881,-1.1027,-44.2487
17:15:49:741,-0.5801,1.638,7.2971,50.0328,-0.3527,-0.4786,-0.9952,-44.0383
17:15:49:760,-0.486,1.674,8.3381,49.6671,-0.5197,-0.4434,-0.9122,-43.8
17:15:49:780,-0.8381,1.899,9.3701,49.5834,-0.5059,-0.2806,-0.7888,-43.5381
17:15:49:800,-1.173,2.402,9.8951,49.9469,-0.3675,-0.1444,-0.512,-43.257
17:15:49:821,-1.113,3.048,9.8831,50.4903,-0.2229,-0.0114,-0.1726,-42.9649
17:15:49:840,-0.8621,3.4931,10.11,50.8989,-0.225,0.0386,0.0657,-42.6729
17:15:49:861,-0.615,3.74,10.989,51.2774,-0.2889,-0.0177,0.1477,-42.3905
17:15:49:880,-0.5411,3.462,11.748,51.4032,-0.3154,-0.1391,0.1254,-42.1218
17:15:49:899,-0.6131,2.9381,12.356,51.4096,-0.408,-0.2263,0.1391,-41.8667
17:15:49:922,-0.371,2.708,13.493,51.3062,-0.6549,-0.3722,0.2179,-41.6247
17:15:49:940,0,2.552,14.6951,51.2849,-0.7304,-0.3179,0.3244,-41.398
17:15:49:961,0.48,1.88,15.227,51.5174,-0.5325,-0.0976,0.3488,-41.1897
17:15:49:980,0.066,0.821,14.81,51.9332,-0.2431,-0.0103,0.2467,-41.0009
17:15:50:001,-0.599,0.216,13.869,52.4117,0.0389,-0.1859,0.2051,-40.828
17:15:50:021,-1.08,-0.018,12.296,52.6262,0.3316,-0.2423,0.3084,-40.6674
17:15:50:040,-1.2311,-0.095,10.632,52.6037,0.538,-0.0646,0.4968,-40.5204
17:15:50:060,-1.0661,-0.143,9.698,52.5333,0.5551,-0.0071,0.6628,-40.392
17:15:50:079,-0.4691,-0.234,9.32,52.3548,0.4412,-0.2445,0.7276,-40.2876
17:15:50:100,0.5021,-0.4541,9.5861,52.2173,0.3476,-0.5009,0.6915,-40.2876
17:15:50:122,0.9731,-0.581,9.411,52.137,0.4125,-0.4434,0.5723,-40.2876
17:15:50:140,0.789,-0.4541,8.58,52.0028,0.5285,-0.0624,0.4872,-40.2876
17:15:50:160,0.351,-0.1811,7.359,51.9617,0.6083,0.4653,0.5361,-40.2876
17:15:50:180,0.0251,0.206,6.3701,51.9983,0.5913,0.858,0.6245,-40.2876
17:15:50:200,-0.158,0.5171,5.729,52.289,0.4763,0.9677,0.6948,-40.2876
17:15:50:222,-0.173,0.8141,5.666,52.6076,0.3295,0.8218,0.7256,-40.2876
17:15:50:240,-0.218,1.0991,5.8841,52.8403,0.2145,0.4888,0.7011,-40.2876
17:15:50:260,-0.098,1.343,6.15,53.0541,0.1305,0.1462,0.6542,-40.3797
17:15:50:280,0.231,1.4651,6.722,53.2001,0.0166,-0.0869,0.6351,-40.4918
17:15:50:300,0.65,1.353,7.6991,53.1861,-0.1473,-0.2041,0.5776,-40.6225
17:15:50:322,0.9131,1.3241,8.954,53.2957,-0.2867,-0.2157,0.4723,-40.7702
17:15:50:341,0.911,1.379,10.122,53.5254,-0.2878,-0.0774,0.4,-40.9316
17:15:50:360,1.071,1.3601,10.9031,53.5967,-0.2027,0.0153,0.3679,-41.1031
17:15:50:380,1.739,1.4651,11.475,53.664,-0.0962,0.0014,0.3308,-41.2829
17:15:50:400,2.544,1.394,11.753,53.8679,0.0016,-0.004,0.1957,-41.4695
17:15:50:422,2.606,1.5491,11.3021,54.0366,0.0549,0.0546,-0.0205,-41.6589
17:15:50:440,2.115,1.755,10.871,54.2347,-0.0047,0.2046,-0.212,-41.8442
17:15:50:460,1.371,1.9541,10.812,54.5795,-0.1504,0.3653,-0.3322,-42.0184
17:15:50:480,0.899,2.0141,11.307,54.9939,-0.359,0.311,-0.4047,-42.1773
17:15:50:500,0.648,1.6931,12.011,55.3577,-0.4506,0.1695,-0.4588,-42.3188
17:15:50:523,0.341,1.161,12.593,55.6649,-0.4198,0.0236,-0.4983,-42.4421
17:15:50:541,0.356,0.1871,13.239,55.7852,-0.4016,-0.2232,-0.4418,-42.546
17:15:50:560,0.8321,-0.411,14.2001,55.5313,-0.374,-0.5563,-0.3068,-42.546
17:15:50:580,1.694,-0.7151,14.1251,55.1477,-0.1037,-0.6585,-0.1961,-42.546
17:15:50:601,1.854,-0.5261,12.018,54.8606,0.2688,-0.3031,-0.2098,-42.546
17:15:50:622,1.8881,-0.339,10.1051,54.6341,0.2634,0.0887,-0.2109,-42.546
17:15:50:640,2.094,-0.224,9.114,54.6034,0.0422,0.2408,-0.2823,-42.546
17:15:50:661,1.7231,0.053,8.547,54.4961,-0.0397,0.2845,-0.4323,-42.546
17:15:50:680,1.2491,0.359,7.974,54.6262,0.1103,0.3622,-0.512,-42.546
17:15:50:700,0.7991,0.6371,6.986,54.6044,0.4529,0.4612,-0.5313,-42.546
17:15:50:722,0.423,0.891,5.5301,54.8863,0.77,0.5218,-0.4685,-42.546
17:15:50:740,0.2621,1.4201,4.2229,54.9857,0.8414,0.4866,-0.4078,-42.546
17:15:50:761,0.102,2.0419,3.7511,54.835,0.6498,0.3972,-0.4269,-42.546
17:15:50:781,-0.06,2.5481,4.203,54.6304,0.3838,0.2771,-0.5131,-42.546
17:15:50:800,-0.4811,2.912,5.3261,54.3563,0.2124,0.0908,-0.6409,-42.546
17:15:50:822,-1.0271,3.041,6.351,54.3599,0.1976,-0.1477,-0.7206,-42.4471
17:15:50:840,-1.4441,3.125,6.5741,54.5137,0.1709,-0.3338,-0.6919,-42.3261
17:15:50:860,-1.808,3.242,7.2971,54.6981,-0.0952,-0.3285,-0.577,-42.1836
17:15:50:881,-1.595,3.371,9.035,54.7069,-0.4421,-0.2465,-0.4685,-42.0242
17:15:50:900,-1.805,3.417,10.742,54.6702,-0.6208,-0.07,-0.4642,-41.8539
17:15:50:922,-2.5811,3.11,11.9321,54.5577,-0.6315,0.1482,-0.3376,-41.6751
17:15:50:940,-3.074,3.017,13.1891,54.5094,-0.5581,0.1983,-0.0214,-41.4909
17:15:50:968,-2.643,2.813,14.0681,54.5466,-0.4315,0.0386,0.2776,-41.3105
17:15:50:979,-2.045,2.4761,14.721,54.6393,-0.3239,-0.1486,0.4063,-41.1442
17:15:51:000,-1.604,2.169,14.942,54.7319,-0.258,-0.3125,0.517,-40.9972
17:15:51:022,-1.1351,1.872,14.891,54.9267,-0.1484,-0.1805,0.634,-40.8722
17:15:51:040,-0.924,1.37,14.13,55.0291,0.0337,0.0748,0.7224,-40.7721
17:15:51:060,-1.164,0.917,13.0931,55.1903,0.2039,0.2079,0.7788,-40.7721
17:15:51:080,-1.5401,0.84,11.865,55.1402,0.3901,0.1429,0.8192,-40.7721
17:15:51:099,-1.691,0.833,10.316,54.9151,0.6285,0.1727,0.9043,-40.7721
17:15:51:122,-1.5491,0.7181,8.666,54.5087,0.8073,0.245,1.03,-40.7721
17:15:51:140,-1.446,0.833,7.431,54.1869,0.7338,0.1706,1.0916,-40.7721
17:15:51:160,-1.023,0.924,6.9881,53.9906,0.4146,-0.0689,1.0662,-40.7721
17:15:51:179,-0.369,0.776,7.5101,53.8498,0.0921,-0.2988,0.9459,-40.879
17:15:51:200,0.147,0.4571,8.118,53.7284,-0.0579,-0.3083,0.7703,-41.0163
17:15:51:221,0.188,0.314,8.379,53.4113,-0.077,-0.0912,0.6468,-41.178
17:15:51:241,-0.0671,0.2561,8.451,53.0977,-0.077,0.1972,0.634,-41.3586
17:15:51:261,-0.2471,0.326,8.745,53.1049,-0.0972,0.36,0.6809,-41.5559
17:15:51:280,-0.098,0.347,8.937,53.1121,-0.0494,0.3238,0.7182,-41.7707
17:15:51:301,0.116,0.5171,9.069,53.3315,0.0847,0.2461,0.7276,-42.0038
17:15:51:322,0.6671,0.9701,8.336,53.4129,0.4114,0.2248,0.7554,-42.5233
17:15:51:341,0.8441,1.3601,8.175,51.5998,0.4466,0.2238,0.6852,-42.8086
17:15:51:361,0.791,1.631,8.1161,51.477,0.4518,0.2441,0.5841,-43.1086
17:15:51:381,0.8111,1.853,8.2901,51.3401,0.4221,0.1812,0.501,-43.4194
17:15:51:401,1.16,2.0951,8.685,51.3046,0.3029,-0.0646,0.3596,-43.7378
17:15:51:421,1.728,2.1761,9.1601,51.3237,0.1006,-0.3615,0.1391,-44.0598
17:15:51:441,2.2931,1.9181,9.507,51.1333,-0.209,-0.5318,-0.1353,-44.3788
17:15:51:461,2.5151,1.6901,9.854,50.7863,-0.5878,-0.4306,-0.4334,-44.6869
17:15:51:480,2.451,0.917,10.338,50.3378,-1.0763,-0.3444,-0.7121,-44.9749
17:15:51:500,1.17,0.443,11.7191,50.0047,-1.5935,-0.2508,-1.0197,-45.2346
17:15:51:522,-0.486,-0.303,13.113,49.9406,-1.5968,0.2196,-1.0783,-45.4576
17:15:51:540,-2.1071,-0.8921,13.7351,49.9442,-1.2392,0.6857,-0.8037,-45.6405
17:15:51:561,-2.916,-0.672,14.568,50.1091,-0.8496,0.6537,-0.2738,-45.7906
17:15:51:579,-1.623,-0.609,14.994,50.1972,-0.2696,0.1557,0.3255,-45.924
17:15:51:599,1.0451,-0.638,13.871,50.2408,0.4551,-0.4329,0.6479,-46.0602
17:15:51:621,3.1691,-0.047,11.6501,50.2804,0.8658,-0.7829,0.55,-46.2111
17:15:51:642,3.758,0.63,9.413,49.9577,0.7807,-0.6298,0.0318,-46.3759
17:15:51:662,2.4941,0.975,8.0651,49.4866,0.3647,0.0301,-0.4887,-46.5405
17:15:51:681,0.945,0.881,7.797,48.9821,0.0613,0.8676,-0.6196,-46.6869
17:15:51:700,0.0971,1.1831,7.6151,48.4499,0.0358,1.3124,-0.4823,-46.8078
17:15:51:722,0.032,1.379,7.17,48.3055,0.1464,1.2188,-0.3333,-46.9066
17:15:51:741,0.035,1.7501,6.617,48.4493,0.2933,0.807,-0.3057,-46.9066
17:15:51:760,-0.117,1.913,5.894,48.639,0.3977,0.309,-0.3567,-46.9066
17:15:51:782,-0.146,2.03,5.5991,48.8865,0.3954,-0.0902,-0.4067,-46.9066
17:15:51:800,-0.029,2.124,5.4461,49.0464,0.3402,-0.319,-0.4451,-46.9066
17:15:51:821,-0.015,2.22,5.513,48.864,0.2347,-0.3264,-0.5068,-46.9066
17:15:51:841,-0.2351,2.303,5.82,48.6002,0.0804,-0.271,-0.5706,-46.9066
17:15:51:860,-0.5051,2.363,6.4781,48.3197,-0.0792,-0.2465,-0.5897,-46.9066
17:15:51:881,-0.7571,2.457,7.086,47.9041,-0.1834,-0.2871,-0.5558,-46.9066
17:15:51:900,-0.893,2.5331,7.73,47.6727,-0.2526,-0.3094,-0.4801,-46.9066
17:15:51:922,-0.8531,2.5211,8.628,47.311,-0.3431,-0.3222,-0.4036,-46.9066
17:15:51:940,-0.6971,2.519,9.569,46.8561,-0.407,-0.2647,-0.3248,-46.9066
17:15:51:960,-0.836,2.612,10.34,46.4274,-0.407,-0.088,-0.245,-46.8157
17:15:51:980,-1.2191,2.801,10.943,46.0664,-0.325,0.1781,-0.1577,-46.7203
17:15:52:000,-1.559,2.9471,11.3501,45.8126,-0.2069,0.3355,-0.03,-46.6231
17:15:52:023,-1.688,3.0581,11.6741,45.7672,-0.1154,0.2993,0.0967,-46.5275
17:15:52:040,-1.6331,3.156,12.1331,45.6943,-0.0622,0.1578,0.1914,-46.5275
17:15:52:060,-1.439,3.161,12.746,45.6352,-0.0525,-0.0529,0.219,-46.5275
17:15:52:081,-1.3001,3.438,13.1171,45.6332,-0.0473,-0.1317,0.2978,-46.5275
17:15:52:100,-0.929,3.362,13.2491,45.5351,-0.1558,-0.0742,0.3585,-46.5275
17:15:52:122,-0.426,2.337,14.312,45.4166,-0.5485,-0.3466,0.1829,-46.5275
17:15:52:140,-0.56,1.075,15.8111,45.3116,-0.7624,-0.6915,-0.0726,-46.5275
17:15:52:173,-2.251,-0.0881,12.6101,45.1694,0.3721,0.3366,0.1349,-46.5275
17:15:52:193,-2.8061,0.113,10.596,45.2642,0.6328,0.6537,0.4755,-46.5275
17:15:52:211,-2.433,0.1031,9.48,45.2548,0.5892,0.3451,0.7245,-46.5275
17:15:52:231,-1.506,0.323,8.8361,45.1109,0.5306,-0.072,0.8277,-46.5275
17:15:52:251,-0.6251,0.213,8.147,44.8217,0.5264,-0.1636,0.7958,-46.5275
17:15:52:270,-0.362,0.1871,7.673,44.513,0.4891,0.0546,0.7287,-46.5275
17:15:52:291,-0.338,0.189,7.539,44.3015,0.4071,0.227,0.7182,-46.5275
17:15:52:311,-0.323,0.3161,7.496,44.1424,0.3741,0.2813,0.7319,-46.5275
17:15:52:330,-0.218,0.342,7.227,44.0206,0.4103,0.278,0.7617,-46.5275
17:15:52:349,0.0521,0.395,7.002,43.8871,0.4561,0.243,0.7936,-46.6365
17:15:52:369,0.399,0.599,6.725,43.7134,0.5221,0.2227,0.7831,-46.7662
17:15:52:389,0.4271,0.809,6.296,43.4937,0.5594,0.2632,0.7298,-46.917
17:15:52:412,0.54,1.025,5.973,43.5221,0.4987,0.2919,0.6937,-47.0882
17:15:52:429,0.629,1.4921,5.9681,43.682,0.3497,0.2908,0.6288,-47.2774
17:15:52:449,0.669,1.896,6.423,43.9499,0.1689,0.2333,0.5021,-47.4827
17:15:52:468,0.6071,2.153,7.1531,44.2874,-0.0249,0.1121,0.3158,-47.7026
17:15:52:489,0.674,2.3111,8.501,44.4204,-0.293,-0.1434,0.1382,-47.9337
17:15:52:509,1.218,1.98,9.8111,44.4282,-0.5505,-0.4179,-0.0492,-48.1708
17:15:52:528,1.785,1.712,11.4221,44.3896,-0.7539,-0.5595,-0.2471,-48.4084
17:15:52:548,1.898,1.5251,12.3221,44.1513,-0.7252,-0.4115,-0.4397,-48.6417
17:15:52:568,1.311,1.559,12.0611,44.0003,-0.6028,-0.0412,-0.5749,-48.8648
17:15:52:587,0.83,1.614,12.0281,43.7021,-0.7178,0.1024,-0.6142,-49.0712
17:15:52:608,1.079,1.607,12.7151,43.724,-0.9061,-0.0561,-0.6759,-49.2554
17:15:52:627,1.332,1.2401,13.259,43.887,-1.0242,-0.286,-0.8814,-49.4159
17:15:52:647,0.9281,0.5051,13.5791,43.8794,-1.1019,-0.2476,-1.0803,-49.553
17:15:52:666,-0.149,-0.284,14.393,43.9176,-1.0986,0.0247,-1.1165,-49.6624
17:15:52:688,-0.869,-0.969,15.059,43.7068,-0.7762,0.2238,-0.8792,-49.6624
17:15:52:707,-0.594,-1.005,14.3981,43.39,-0.1143,0.2174,-0.4588,-49.6624
17:15:52:727,0.614,-0.677,12.248,43.2959,0.5466,0.0344,-0.1694,-49.6624
17:15:52:746,1.574,-0.1781,9.7391,43.2341,0.8328,-0.1295,-0.1992,-49.6624
17:15:52:766,1.941,0.474,7.697,42.9987,0.7594,-0.0572,-0.4184,-49.6624
17:15:52:786,1.637,0.773,6.26,42.9043,0.5625,0.2355,-0.6984,-49.6624
17:15:52:807,0.983,0.869,5.2541,42.7428,0.3656,0.6027,-0.942,-49.6624
17:15:52:826,0.384,0.905,4.697,42.5987,0.1528,0.8346,-1.125,-49.6624
17:15:52:845,-0.431,0.9581,4.998,42.6294,-0.0058,0.8155,-1.257,-49.5669
17:15:52:865,-1.073,0.912,5.499,41.9888,0.0059,0.4877,-1.3113,-49.4369
17:15:52:885,-1.418,0.903,5.6351,42.1275,0.1081,0.0364,-1.2826,-49.2691
17:15:52:905,-1.341,0.965,5.6831,42.2482,0.0975,-0.3498,-1.2134,-49.0627
17:15:52:925,-1.094,1.0301,6.071,42.16,-0.0781,-0.4733,-1.1623,-48.8185
17:15:52:943,-1.056,0.771,7.187,41.9698,-0.3006,-0.3839,-1.1804,-48.5393
17:15:52:964,-1.559,0.546,8.168,41.5481,-0.4506,-0.1167,-1.1868,-48.2292
17:15:52:986,-2.3321,0.615,9.2,41.3054,-0.6156,0.1015,-1.0803,-47.8907
17:15:53:004,-2.883,0.6251,10.4741,41.0632,-0.7315,0.1812,-0.8122,-47.5252
17:15:53:024,-3.1751,1.1681,11.8601,40.978,-0.6773,0.1972,-0.3961,-47.1367
17:15:53:044,-2.9621,1.64,12.32,41.0253,-0.3942,0.2313,0.0318,-46.7344
17:15:53:063,-2.847,2.232,12.155,41.0635,-0.1473,0.1801,0.3563,-46.3315
17:15:53:083,-2.399,2.595,12.279,41.3551,-0.076,-0.0305,0.5926,-45.941
17:15:53:103,-1.635,2.5121,12.804,41.5621,-0.1302,-0.2732,0.6713,-45.5725
17:15:53:123,-1.02,2.244,13.5221,41.5751,-0.3048,-0.5041,0.6053,-45.2334
17:15:53:145,-0.8981,2.136,14.468,41.5099,-0.5846,-0.6181,0.4819,-44.9271
17:15:53:162,-0.56,1.152,16.089,41.2395,-0.7943,-0.6509,0.3244,-44.6527
17:15:53:182,-0.951,-0.0161,17.37,40.9225,-0.6368,-0.6574,0.1616,-44.4072
17:15:53:201,-2.105,-0.794,16.4651,40.685,0.0858,-0.4542,0.1935,-44.1862
17:15:53:224,-2.9261,-0.6911,13.551,40.3099,0.9296,-0.1114,0.4734,-43.7921
17:15:53:245,-2.799,-0.4301,10.7471,40.0728,1.3809,-0.0177,0.832,-43.6163
17:15:53:261,-2.16,-0.329,8.769,39.8003,1.481,-0.1625,1.0065,-43.4639
17:15:53:280,-1.5731,-0.078,7.824,39.4172,1.365,-0.4349,1.0224,-43.3415
17:15:53:301,-0.726,-0.1571,7.496,38.9623,1.1905,-0.6797,0.9544,-43.2506
17:15:53:323,0.253,-0.4751,7.029,38.5307,1.0585,-0.7106,0.8352,-43.2506
17:15:53:341,0.794,-0.432,6.483,38.0457,0.868,-0.5393,0.6628,-43.2506
17:15:53:361,1.0361,-0.339,6.0491,37.5665,0.5881,-0.2135,0.4584,-43.2506
17:15:53:380,0.99,-0.401,5.678,37.2465,0.272,0.2248,0.2244,-43.2506
17:15:53:405,0.435,-0.4181,5.843,37.1996,-0.0377,0.6282,0.0253,-43.2506
17:15:53:422,-0.2801,-0.272,6.282,37.2282,-0.2036,0.8144,-0.0544,-43.2506
17:15:53:441,-0.7781,-0.054,6.107,37.5521,-0.209,0.8176,-0.0001,-43.2506
17:15:53:461,-1.2191,0.4121,5.891,38.0094,-0.2346,0.6718,0.1094,-43.2506
17:15:53:481,-1.3151,0.8141,5.87,38.4391,-0.3123,0.4441,0.2265,-43.2506
17:15:53:500,-1.1351,1.2431,6.239,38.6876,-0.3911,0.1951,0.2828,-43.2506
17:15:53:522,-1.1569,1.731,6.681,38.8299,-0.4973,0.0227,0.2797,-43.2506
17:15:53:541,-1.283,2.141,7.943,38.7885,-0.6634,-0.0252,0.2839,-43.2506
17:15:53:560,-1.094,2.402,9.636,38.7967,-0.6783,-0.055,0.3329,-43.2506
17:15:53:580,-0.237,2.241,11.132,38.8152,-0.6028,-0.2892,0.3297,-43.2506
17:15:53:600,0.605,1.884,12.672,38.7822,-0.6401,-0.6424,0.151,-43.3409
17:15:53:622,0.641,1.7291,14.4251,38.7899,-0.5719,-0.7286,-0.0385,-43.4387
17:15:53:644,0.758,1.497,14.762,38.6082,-0.2016,-0.4786,-0.0396,-43.5366
17:15:53:660,0.957,1.508,13.8281,38.546,0.1283,-0.0859,0.0529,-43.6312
17:15:53:680,1.536,1.853,13.5701,38.4516,0.0869,0.0535,0.0509,-43.7235
17:15:53:701,2.3381,1.676,13.7471,38.3861,-0.0036,-0.0455,-0.1471,-43.8149
17:15:53:722,2.805,0.9911,13.6871,38.6971,-0.1165,-0.1689,-0.446,-43.8149
17:15:53:741,2.307,0.201,13.634,38.8152,-0.1792,0.0238,-0.7186,-43.8149
17:15:53:760,1.2371,-0.89,12.8681,38.8152,0.0166,0.5346,-0.7824,-43.8149
17:15:53:780,0.2741,-1.349,11.8631,38.6709,0.3284,0.9433,-0.6366,-43.8149
17:15:53:800,-0.29,-1.541,10.962,38.4582,0.5455,0.7506,-0.3854,-43.8149
17:15:53:822,0.3131,-1.503,10.275,38.358,0.6775,0.1152,-0.1343,-43.8149
17:15:53:841,1.598,-1.175,9.255,38.4836,0.7776,-0.4009,-0.0034,-43.8149
17:15:53:860,2.463,-0.7151,7.8071,38.5153,0.7563,-0.5116,-0.0821,-43.8149
17:15:53:881,2.645,-0.317,6.483,38.2367,0.5019,-0.2892,-0.3481,-43.8149
17:15:53:901,1.799,0.11,5.855,37.8472,0.1422,0.093,-0.6589,-43.8149
17:15:53:921,0.6191,0.335,5.877,37.483,-0.0952,0.377,-0.8717,-43.8149
17:15:53:941,-0.4241,0.587,5.922,37.1701,-0.109,0.4175,-0.9292,-43.7185
17:15:53:961,-1.173,0.833,5.7521,37.1261,0.0144,0.227,-0.8717,-43.5943
17:15:53:980,-1.698,1.2911,5.705,37.1713,0.139,-0.1242,-0.7653,-43.4435
17:15:54:002,-1.4771,1.5611,5.657,37.1612,0.1986,-0.5296,-0.6791,-43.2696
17:15:54:022,-1.31,1.839,5.867,37.1251,0.1539,-0.7499,-0.6696,-43.0761
17:15:54:040,-1.166,2.021,6.399,36.9829,0.0304,-0.8234,-0.693,-42.8647
17:15:54:060,-1.161,2.265,6.662,36.6211,-0.0792,-0.6053,-0.7462,-42.636
17:15:54:081,-1.4681,2.4371,7.175,36.2144,-0.2856,-0.1827,-0.776,-42.3895
17:15:54:100,-2.081,2.3321,8.3981,35.7962,-0.5687,0.1343,-0.7952,-42.1249
17:15:54:122,-2.636,2.169,10.196,33.8092,-0.7528,0.2344,-0.7388,-41.8433
17:15:54:140,-3.027,2.129,11.8511,33.979,-0.7304,0.2313,-0.5621,-41.5472
17:15:54:159,-3.261,2.1191,12.497,34.1971,-0.4932,0.2802,-0.2738,-41.2421
17:15:54:181,-3.177,2.39,12.509,34.343,-0.3058,0.344,0.0679,-40.9363
17:15:54:200,-2.5571,2.358,12.863,34.4632,-0.3112,0.2962,0.3414,-40.6402
17:15:54:222,-1.899,1.935,13.62,34.2924,-0.4548,0.1312,0.4297,-40.3636
17:15:54:241,-1.568,1.7891,15.006,34.2221,-0.6379,-0.1444,0.4808,-40.1113
17:15:54:260,-1.034,1.6331,15.852,34.2253,-0.5996,-0.2018,0.6436,-39.885
17:15:54:281,-0.654,1.142,15.794,34.1347,-0.3325,-0.0029,0.7202,-39.6887
17:15:54:300,-1.334,0.623,14.9681,34.2171,0.0049,0.1141,0.6618,-39.5242
17:15:54:322,-2.0831,0.3041,13.3691,34.3265,0.406,0.0727,0.7352,-39.3881
17:15:54:340,-2.39,0.2801,11.415,34.3206,0.8137,0.0896,0.9448,-39.2783
17:15:54:360,-2.3081,0.216,9.411,34.3173,1.0829,0.1141,1.163,-39.2783
17:15:54:380,-2.0141,0.2711,8.238,34.1946,1.1043,-0.038,1.295,-39.2783
17:15:54:400,-1.31,0.314,7.871,33.9197,0.9329,-0.4466,1.3035,-39.2783
17:15:54:422,-0.144,0.053,8.211,33.625,0.7477,-0.8053,1.1938,-39.2783
17:15:54:440,0.6881,-0.303,8.415,33.3203,0.6328,-0.8478,0.9533,-39.2783
17:15:54:459,0.755,-0.341,8.357,32.9888,0.5391,-0.5637,0.7054,-39.3778
17:15:54:480,0.612,-0.339,8.01,33.3933,0.437,-0.0657,0.5511,-39.4992
17:15:54:500,0.183,-0.2,7.5821,32.9873,0.3007,0.4823,0.5053,-39.6361
17:15:54:523,0.0041,-0.0011,7.5191,32.7931,0.1763,0.7868,0.5031,-39.7856
17:15:54:540,-0.1061,0.18,7.359,32.9672,0.1794,0.8326,0.484,-39.9475
17:15:54:560,-0.2831,0.431,6.7601,33.0968,0.271,0.7484,0.4734,-40.1209
17:15:54:580,-0.386,0.785,6.0761,33.5661,0.3326,0.6687,0.5042,-40.3044
17:15:54:601,-0.462,1.2881,5.496,34.0613,0.2742,0.593,0.5213,-40.4981
17:15:54:622,-0.5201,1.872,5.7401,34.3491,0.0474,0.5005,0.5042,-40.7025
17:15:54:640,-0.41,2.136,7.2011,34.7004,-0.1632,0.2717,0.4584,-40.9177
17:15:54:661,-0.366,2.22,8.492,34.8529,-0.1356,-0.0635,0.367,-41.1435
17:15:54:681,-0.3311,2.399,9.0371,34.9834,-0.076,-0.3583,0.319,-41.377
17:15:54:700,0.0251,2.354,10.043,35.0107,-0.2112,-0.5435,0.2648,-41.6153
17:15:54:721,0.614,2.0089,11.7071,35.0617,-0.3336,-0.5669,0.2287,-41.8571
17:15:54:740,1.464,1.707,12.5861,35.14,-0.2771,-0.4903,0.2478,-42.1012
17:15:54:760,1.9331,2.0261,12.66,34.9007,-0.1984,-0.2647,0.1818,-42.3476
17:15:54:781,1.955,2.069,12.1811,34.5955,-0.2196,-0.0752,0.019,-42.5947
17:15:54:800,1.859,2.047,12.1001,34.2261,-0.3952,-0.0965,-0.1726,-42.8376
17:15:54:821,1.943,1.616,12.162,33.7309,-0.5932,-0.2465,-0.3598,-43.0705
17:15:54:841,1.608,1.082,12.035,33.3854,-0.7773,-0.1412,-0.5525,-43.2877
17:15:54:860,0.7121,0.3641,12.018,33.2648,-0.8689,0.3696,-0.6207,-43.4838
17:15:54:880,-0.098,-0.143,12.275,33.1979,-0.7209,0.7591,-0.4791,-43.6559
17:15:54:901,-0.453,-0.308,11.951,33.4275,-0.4239,0.5771,-0.2417,-43.8076
17:15:54:922,0.1541,-0.219,12.15,33.8673,-0.125,-0.0774,-0.0364,-43.9461
17:15:54:939,1.704,-0.396,11.6591,34.0993,0.223,-0.7117,-0.0289,-44.0784
17:15:54:960,2.762,-0.2171,10.338,34.0981,0.4264,-0.8383,-0.2163,-44.2056
17:15:54:996,2.649,0.273,8.604,34.0147,0.3454,-0.4306,-0.5823,-44.3224
17:15:55:000,1.359,0.3401,7.4501,33.8635,0.0847,0.3047,-0.9303,-44.4185
17:15:55:021,-0.101,0.4931,7.182,33.7969,-0.1015,0.8773,-1.0442,-44.4185
17:15:55:040,-0.9701,0.618,7.0841,33.9327,-0.01,1.0198,-0.9569,-44.4185
17:15:55:060,-1.31,0.857,6.5351,34.3211,0.2634,0.8048,-0.7983,-44.4185
17:15:55:081,-1.295,1.262,5.7,34.6575,0.4763,0.3717,-0.6728,-44.4185
17:15:55:101,-1.154,1.7051,5.147,34.7942,0.5008,-0.0593,-0.6409,-44.4185
17:15:55:121,-0.927,1.9511,5.0171,34.8518,0.353,-0.3424,-0.6867,-44.4185
17:15:55:140,-0.678,2.069,5.3291,34.5284,0.1114,-0.4392,-0.7249,-44.308
17:15:55:161,-0.7091,2.0621,6.183,34.0866,-0.1951,-0.4562,-0.81,-44.1755
17:15:55:180,-0.989,1.875,7.299,33.7463,-0.4697,-0.3765,-0.8962,-44.0211
17:15:55:200,-1.379,1.6451,8.681,33.6086,-0.6645,-0.2903,-0.8495,-43.8436
17:15:55:222,-1.6211,1.511,9.981,33.65,-0.7422,-0.2582,-0.6452,-43.645
17:15:55:240,-1.8371,1.7381,11.219,33.6947,-0.6794,-0.2413,-0.345,-43.4319
17:15:55:260,-1.53,2.0861,12.267,33.7826,-0.4569,-0.2573,-0.014,-43.2137
17:15:55:280,-1.121,2.33,12.665,33.8282,-0.1803,-0.2775,0.2361,-43.0009
17:15:55:300,-0.924,2.4161,13.3091,33.9988,-0.0664,-0.4179,0.3872,-42.8013
17:15:55:323,-0.036,2.255,14.439,34.1067,0.0688,-0.7308,0.5383,-42.4596
17:15:55:341,0.14,2.727,14.4491,33.9406,0.0432,-0.6552,0.5596,-42.322
17:15:55:360,0.4541,2.564,14.2901,33.5679,0.0016,-0.2912,0.5904,-42.2071
17:15:55:381,0.42,1.983,14.2931,33.2386,-0.1015,-0.0869,0.4999,-42.1155
17:15:55:401,-0.4691,1.221,13.9511,33.0322,-0.0036,0.0694,0.3457,-42.1155
17:15:55:421,-1.5731,0.771,12.665,32.9978,0.3411,0.2398,0.3935,-42.1155
17:15:55:441,-2.16,0.5051,10.9841,33.0908,0.6891,0.3483,0.5904,-42.1155
17:15:55:461,-2.244,0.431,9.5471,33.2669,0.8733,0.2206,0.8394,-42.1155
17:15:55:482,-1.7891,0.4961,8.8991,33.2612,0.9094,-0.121,1.0406,-42.1155
17:15:55:500,-0.8021,0.56,8.726,33.3036,0.8977,-0.5765,1.0896,-42.1155
17:15:55:523,0.257,0.443,8.35,33.2839,0.9031,-0.7606,0.9948,-42.1155
17:15:55:540,0.8921,0.479,7.697,33.0656,0.8328,-0.5445,0.8086,-42.2102
17:15:55:562,0.954,0.405,7.328,32.7745,0.6424,-0.0604,0.5862,-42.3309
17:15:55:580,0.7001,0.2351,7.335,32.366,0.4455,0.408,0.451,-42.4697
17:15:55:600,0.5141,0.2441,7.352,32.0531,0.3519,0.6357,0.4042,-42.6208
17:15:55:622,0.1811,0.4841,7.23,32.0448,0.3934,0.7452,0.3989,-42.7813
17:15:55:645,0.0521,0.608,6.792,32.2047,0.5136,0.7601,0.4212,-42.9503
17:15:55:660,0.0971,0.7931,6.227,32.7534,0.5849,0.7187,0.4276,-43.1276
17:15:55:680,-0.0911,1.3031,5.855,33.4829,0.503,0.7059,0.418,-43.3132
17:15:55:701,-0.287,1.743,6.0851,34.0432,0.2901,0.6377,0.4223,-43.5063
17:15:55:722,-0.065,1.995,6.693,34.4062,0.1103,0.4994,0.4148,-43.7071
17:15:55:742,0.078,2.208,7.326,34.6874,-0.0186,0.3483,0.3733,-43.9161
17:15:55:761,0.253,2.4281,8.13,34.7865,-0.1717,0.1376,0.3095,-44.1324
17:15:55:780,0.6671,2.4761,9.0161,34.947,-0.3186,-0.0635,0.2211,-44.3543
17:15:55:800,0.8441,2.5211,10.089,35.1172,-0.5123,-0.2562,0.0892,-44.5795
17:15:55:821,1.55,1.985,11.2451,35.2373,-0.6698,-0.3765,0.0008,-44.8043
17:15:55:841,2.0081,1.664,12.191,35.1985,-0.6325,-0.2562,-0.1226,-45.0257
17:15:55:860,1.5581,1.6811,12.236,35.0282,-0.4165,0.0492,-0.1854,-45.2399
17:15:55:880,1.119,1.803,11.616,34.9244,-0.2537,0.2685,-0.0971,-45.4432
17:15:55:900,1.493,1.911,11.3021,34.9438,-0.3516,0.044,-0.0843,-45.637
17:15:55:921,1.974,1.767,11.417,34.9718,-0.5772,-0.2786,-0.2747,-45.8235
17:15:55:940,1.538,1.2911,11.748,35.0799,-0.7719,-0.3413,-0.5345,-45.9991
17:15:55:961,0.4991,0.8051,11.9201,35.3307,-0.7858,-0.0678,-0.6164,-46.1561
17:15:55:981,-0.2831,0.5171,12.284,35.5409,-0.6623,0.0971,-0.4961,-46.2901
17:15:56:000,-0.237,0.201,12.6,35.8386,-0.4474,-0.2189,-0.2982,-46.4039
17:15:56:021,0.803,0.084,12.3131,36.05,-0.2377,-0.7627,-0.1726,-46.5038
17:15:56:041,1.9331,0.369,11.5661,36.1278,-0.1345,-1.0022,-0.2109,-46.5948
17:15:56:060,2.5991,0.3761,10.812,35.8891,-0.1302,-0.7861,-0.4579,-46.5948
17:15:56:080,1.914,0.309,9.816,35.6992,-0.1239,-0.253,-0.7952,-46.5948
17:15:56:100,0.6551,0.278,8.865,35.3812,-0.1409,0.2738,-0.9804,-46.5948
17:15:56:123,-0.285,0.402,8.4461,35.1404,-0.0516,0.6069,-0.9463,-46.5948
17:15:56:140,-0.642,0.666,8.008,35.0748,0.2634,0.6824,-0.8111,-46.5948
17:15:56:160,-0.56,0.773,6.8441,35.2173,0.6988,0.6186,-0.6717,-46.5948
17:15:56:181,-0.4121,1.145,5.391,35.5482,0.9254,0.4313,-0.5823,-46.5948
17:15:56:200,-0.467,1.5731,4.4981,35.8879,0.8286,0.2558,-0.6057,-46.4965
17:15:56:222,-0.489,1.904,4.668,36.0243,0.5264,0.1269,-0.6876,-46.3775
17:15:56:240,-0.831,1.923,5.573,36.053,0.2571,0.095,-0.7696,-46.2369
17:15:56:260,-1.269,2.011,6.353,36.0524,0.1134,0.1504,-0.7824,-46.0734
17:15:56:281,-1.712,2.006,7.419,36.0281,-0.043,0.2398,-0.7058,-45.8872
17:15:56:300,-2.234,1.9271,8.8121,36.223,-0.1686,0.2706,-0.5621,-45.6814
17:15:56:321,-2.718,2.076,10.467,36.5091,-0.1664,0.2632,-0.3301,-45.4615
17:15:56:340,-2.9861,2.397,11.547,36.8737,-0.0377,0.1759,-0.0023,-45.2352
17:15:56:360,-2.919,2.792,11.8991,37.2234,0.188,0.1334,0.3924,-45.0125
17:15:56:380,-2.241,3.321,11.609,37.2032,0.3444,0.1536,0.8075,-44.805
17:15:56:400,-1.463,3.908,11.987,37.0998,0.1666,0.0014,0.9703,-44.6259
17:15:56:422,-0.615,4.097,12.863,37.0344,-0.1601,-0.3999,0.9512,-44.4829
17:15:56:441,0.008,4.133,13.943,37.0364,-0.5155,-0.7681,0.7916,-44.3776
17:15:56:461,0.516,3.86,14.3861,37.0498,-0.5974,-0.5893,0.7193,-44.3776
17:15:56:480,0.2411,3.3041,14.1251,37.0529,-0.4569,-0.0529,0.6585,-44.3776
17:15:56:500,-0.747,2.313,13.383,37.0778,-0.2941,0.326,0.5457,-44.3776
17:15:56:522,-1.6571,1.7651,12.294,37.1628,-0.1015,0.3759,0.5734,-44.3776
17:15:56:540,-2.0261,1.394,11.477,37.4334,0.1997,0.2408,0.8086,-44.3776
17:15:56:561,-1.9631,1.008,10.539,37.6725,0.5657,-0.0007,0.9618,-44.3776
17:15:56:581,-1.568,1.013,9.672,37.5744,0.8265,-0.3381,1.0864,-44.3776
17:15:56:600,-0.477,0.8291,9.152,37.3612,0.9382,-0.718,1.1353,-44.4875
17:15:56:621,0.626,0.833,8.642,36.7879,0.9659,-0.9001,0.9991,-44.6301
17:15:56:641,1.103,0.795,8.202,36.0743,0.8829,-0.8011,0.7213,-44.8021
17:15:56:661,1.146,0.8,7.8761,35.5397,0.7498,-0.4594,0.3978,-44.9955
17:15:56:680,0.851,0.7181,7.055,35.2071,0.635,0.0769,0.2009,-45.1992
17:15:56:700,0.5501,0.7571,6.5141,35.002,0.4509,0.6165,0.1126,-45.4049
17:15:56:722,0.471,0.785,6.095,34.9282,0.2188,0.9027,0.0828,-45.6085
17:15:56:740,0.296,0.905,5.784,34.973,0.007,1.0156,0.0327,-45.8086
17:15:56:762,0.02,1.085,5.463,35.0396,-0.1367,1.0751,-0.0162,-46.0044
17:15:56:780,-0.4481,1.52,5.202,35.4883,-0.2548,1.0975,0.0168,-46.1945
17:15:56:800,-0.5081,1.848,5.444,36.0666,-0.4187,0.9815,0.12,-46.3798
17:15:56:823,-0.3311,2.1791,6.047,36.6119,-0.5166,0.7421,0.1988,-46.5643
17:15:56:844,0.0041,2.607,6.7031,37.24,-0.5644,0.377,0.1966,-46.7521
17:15:56:860,0.315,2.744,7.551,37.8186,-0.6358,0.0514,0.1158,-46.9444
17:15:56:880,0.444,2.603,8.654,38.2976,-0.7432,-0.2009,0.0307,-47.1395
17:15:56:901,0.626,2.097,10.479,38.7316,-0.9582,-0.4041,-0.0109,-47.3346
17:15:56:923,0.9971,1.755,12.4421,38.9843,-1.0465,-0.4627,0.0349,-47.5287
17:15:56:941,1.359,1.398,13.56,39.1181,-0.8273,-0.3541,0.0679,-47.7228
17:15:56:962,1.505,1.626,13.5431,39.0723,-0.5197,-0.2104,0.0307,-47.9178
17:15:56:980,1.692,1.688,13.127,38.9749,-0.4102,-0.3275,-0.0704,-48.1111
17:15:57:005,2,1.664,13.29,38.8768,-0.5442,-0.7032,-0.3706,-48.2994
17:15:57:021,1.943,0.998,13.376,38.6778,-0.7369,-0.8489,-0.7835,-48.475
17:15:57:041,0.942,0.0071,13.646,38.6147,-0.9571,-0.386,-1.0974,-48.6252
17:15:57:061,-0.5651,-0.954,14.544,38.6743,-0.9061,0.2802,-1.1241,-48.739
17:15:57:081,-1.616,-1.5581,14.832,38.8192,-0.4176,0.4898,-0.8271,-48.739
17:15:57:100,-1.458,-1.452,14.1011,39.0221,0.2369,0.0811,-0.3961,-48.739
17:15:57:122,-0.1391,-1.136,12.179,38.9112,0.8339,-0.4509,-0.0896,-48.739
17:15:57:141,1.301,-0.614,9.674,38.5082,1.1404,-0.6542,-0.0311,-48.739
17:15:57:161,2.082,-0.009,7.524,37.9863,1.0275,-0.5233,-0.2291,-48.739
17:15:57:180,2.0291,0.4121,6.38,37.4266,0.5892,-0.2764,-0.6324,-48.739
17:15:57:200,1.0451,0.582,6.183,37.0528,0.1444,0.0322,-1.0186,-48.739
17:15:57:222,0.042,0.536,6.203,36.8876,-0.0462,0.276,-1.1964,-48.739
17:15:57:243,-0.675,0.7091,6.066,36.8581,0.0049,0.3568,-1.1241,-48.739
17:15:57:260,-0.678,0.84,5.5901,36.7138,0.073,0.2131,-0.9494,-48.6133
17:15:57:280,-0.3191,1.01,5.2541,36.585,0.0485,0.0535,-0.843,-48.4568
17:15:57:301,-0.3431,1.415,5.333,36.5612,-0.059,-0.0752,-0.8399,-48.2751
17:15:57:323,-0.6251,1.8461,6.131,36.3938,-0.2761,-0.2061,-0.7078,-47.8437
17:15:57:342,-0.7421,2.016,7.148,36.2106,-0.3633,-0.3031,-0.5717,-47.5995
17:15:57:361,-0.8531,2.165,8.6141,36.2219,-0.359,-0.4264,-0.3982,-47.3428
17:15:57:380,-0.7061,2.241,9.761,36.0828,-0.2281,-0.5637,-0.2035,-47.0797
17:15:57:400,-0.5411,2.61,10.3661,35.888,-0.0516,-0.5776,0.0115,-46.8165
17:15:57:422,-0.2681,3.003,10.886,35.9213,0.0443,-0.3902,0.2159,-46.5596
17:15:57:441,-0.089,3.263,11.4221,35.8488,0.1114,-0.0667,0.3935,-46.3157
17:15:57:460,-0.089,3.5651,12.3971,35.8728,0.0719,0.0674,0.4701,-46.0906
17:15:57:481,0.2651,3.419,13.338,36.08,-0.0972,-0.1062,0.3829,-45.8877
17:15:57:501,0.521,3.225,14.738,36.1658,-0.3143,-0.3222,0.1743,-45.7054
17:15:57:522,0.6641,3.038,15.8471,36.2838,-0.4027,-0.3679,0.1541,-45.5372
17:15:57:541,0.959,2.639,16.472,36.3298,-0.2431,-0.0806,0.2626,-45.3796
17:15:57:561,0.708,1.9661,15.756,36.3896,0.0656,0.2089,0.2244,-45.2353
17:15:57:580,-0.7451,1.221,13.881,36.3967,0.3647,0.4834,0.1265,-45.1037
17:15:57:600,-1.983,0.9671,12.2531,36.3479,0.6072,0.6781,0.2637,-44.9808
17:15:57:622,-2.409,0.642,10.539,36.3535,0.8106,0.6005,0.5489,-44.8674
17:15:57:644,-2.153,0.659,9.219,36.4223,0.869,0.2845,0.7842,-44.7713
17:15:57:660,-1.331,0.615,8.499,36.4275,0.785,-0.1647,0.8949,-44.7713
17:15:57:680,-0.273,0.5561,8.3479,36.4192,0.6615,-0.5627,0.8533,-44.7713
17:15:57:699,0.597,0.383,8.2211,36.2343,0.5924,-0.6946,0.7267,-44.7713
17:15:57:722,0.923,0.381,7.773,35.9739,0.5679,-0.5105,0.5532,-44.7713
17:15:57:743,0.978,0.479,7.055,35.6592,0.505,-0.1071,0.4128,-44.7713
17:15:57:759,0.839,0.582,6.593,35.3803,0.353,0.3781,0.3605,-44.7713
17:15:57:781,0.5501,0.809,6.5831,35.1695,0.221,0.6357,0.3233,-44.7713
17:15:57:800,0.222,0.884,6.552,35.1411,0.1485,0.624,0.2743,-44.7713
17:15:57:821,-0.005,1.094,6.4421,35.1157,0.1071,0.4653,0.2786,-44.7713
17:15:57:842,-0.0461,1.3841,6.5861,35.159,0.0496,0.3058,0.3266,-44.7713
17:15:57:861,0.011,1.599,6.9641,35.2337,-0.0047,0.1684,0.367,-44.8706
17:15:57:881,0.296,1.755,7.385,35.3654,-0.0153,0.0802,0.3713,-44.9793
17:15:57:900,0.269,1.9751,7.536,35.4948,0.0059,0.0344,0.3446,-45.0979
17:15:57:922,0.269,2.184,7.919,35.7755,-0.0377,-0.054,0.3158,-45.2253
17:15:57:940,0.435,2.301,8.6111,36.1336,-0.1122,-0.1444,0.2839,-45.3603
17:15:57:960,0.6911,2.169,9.686,36.4046,-0.1601,-0.2104,0.2393,-45.5017
17:15:57:980,1.0571,1.8701,11.075,36.6646,-0.1324,-0.3615,0.2489,-45.6481
17:15:58:000,2.235,1.3961,11.846,36.6785,-0.0058,-0.4264,0.3383,-45.7987
17:15:58:022,3.042,1.712,11.6741,36.7488,0.1123,-0.2104,0.3893,-45.9558
17:15:58:041,3.159,1.9511,11.666,36.6517,0.0826,0.0791,0.2467,-46.1213
17:15:58:060,2.724,2.124,11.561,36.6986,-0.0078,0.2578,-0.0129,-46.2925
17:15:58:080,2.379,2.064,11.532,36.7732,-0.2409,0.2387,-0.2206,-46.4607
17:15:58:101,1.998,1.877,11.997,36.8616,-0.5442,0.1004,-0.4227,-46.6185
17:15:58:124,1.313,1.202,12.624,36.8374,-0.7209,0.1089,-0.6515,-46.7597
17:15:58:140,0.353,0.7091,13.218,36.9945,-0.641,0.2855,-0.7047,-46.8775
17:15:58:160,-0.242,0.2921,13.589,37.3785,-0.3803,0.2472,-0.5185,-46.9686
17:15:58:180,0.4181,0.1991,13.373,37.6258,-0.0632,-0.2126,-0.2311,-46.9686
17:15:58:201,1.886,0.417,11.937,37.9059,0.2315,-0.635,-0.0864,-46.9686
17:15:58:222,2.7641,0.678,9.6101,37.9187,0.2347,-0.6967,-0.2215,-46.9686
17:15:58:240,2.072,0.941,7.833,37.6046,-0.1068,-0.3945,-0.5015,-46.9686
17:15:58:260,0.9761,0.831,7.5461,37.3456,-0.4495,-0.0177,-0.6589,-46.9686
17:15:58:281,0.267,0.795,7.436,37.1718,-0.4517,0.1886,-0.6813,-46.9686
17:15:58:300,-0.23,0.963,7.002,36.9223,-0.1706,0.2035,-0.6079,-46.9686
17:15:58:322,-0.3761,1.202,6.339,36.9482,0.1231,0.0151,-0.5026,-46.9686
17:15:58:340,-0.096,1.556,5.7551,37.1786,0.355,-0.2306,-0.4132,-46.9686
17:15:58:360,0.1211,1.923,5.1401,37.39,0.4433,-0.4095,-0.4141,-46.9686
17:15:58:380,0.308,2.402,5.3381,37.468,0.3476,-0.518,-0.4918,-46.9686
17:15:58:400,0.4271,2.679,6.401,37.3369,0.2625,-0.6042,-0.6153,-46.871
17:15:58:422,0.353,2.847,7.199,36.9342,0.3072,-0.6468,-0.6909,-46.756
17:15:58:440,0.119,3.216,7.29,36.4824,0.338,-0.5648,-0.6344,-46.6207
17:15:58:460,-0.06,3.311,7.946,36.2604,0.1496,-0.3605,-0.5738,-46.4664
17:15:58:480,-0.158,3.35,9.081,36.1661,-0.0994,-0.1497,-0.4855,-46.2962
17:15:58:501,-0.2321,3.486,10.266,36.224,-0.2995,0.1141,-0.2971,-46.1131
17:15:58:523,-0.2441,3.668,11.733,36.4141,-0.3378,0.344,-0.0811,-45.9229
17:15:58:539,-0.359,3.6491,12.636,36.5972,-0.1845,0.4441,0.0881,-45.7335
17:15:58:560,-0.2831,3.656,12.878,36.8187,-0.0355,0.3824,0.2903,-45.5513
17:15:58:580,0.267,3.465,13.187,36.9488,-0.0718,0.212,0.4521,-45.3824
17:15:58:600,0.626,3.3071,13.929,36.9823,-0.2229,-0.0125,0.4276,-45.233
17:15:58:622,0.7121,2.967,14.484,36.9814,-0.2153,0.0557,0.3733,-45.1036
17:15:58:640,0.018,2.576,14.0681,36.8987,-0.026,0.4004,0.3798,-44.9918
17:15:58:661,-0.687,2.2031,13.196,36.9057,0.1518,0.6366,0.4734,-44.8964
17:15:58:681,-1.013,1.734,12.437,36.897,0.3348,0.5665,0.5606,-44.8964
17:15:58:700,-1.3511,1.5761,11.252,36.8638,0.5955,0.3622,0.6511,-44.8964
17:15:58:722,-1.434,1.451,9.6221,36.7814,0.8638,0.2515,0.782,-44.8964
17:15:58:740,-1.226,1.463,8.12,36.6468,0.952,0.2068,0.9001,-44.8964
17:15:58:761,-0.738,1.559,7.3451,36.5273,0.8393,0.093,0.9193,-44.8964
17:15:58:779,-0.216,1.5611,6.981,36.362,0.6168,-0.1147,0.8011,-44.8964
17:15:58:801,0.296,1.281,7.062,36.3586,0.3114,-0.2689,0.616,-44.8964
17:15:58:822,0.504,1.1711,7.596,36.3854,0.0815,-0.2317,0.4234,-44.9921
17:15:58:840,0.272,1.075,7.7471,36.1854,0.0517,0.0896,0.2882,-45.1019
17:15:58:861,-0.161,1.02,7.721,35.9252,0.0762,0.4643,0.3127,-45.2197
17:15:58:881,-0.417,0.996,7.44,35.7487,0.1199,0.6857,0.4404,-45.3443
17:15:58:900,-0.3551,1.233,7.4,35.7626,0.1092,0.6366,0.5798,-45.4792
17:15:58:922,0.02,1.542,7.383,35.9928,0.1485,0.4771,0.6511,-45.629
17:15:58:940,0.305,1.841,7.0811,36.3815,0.2188,0.3728,0.6553,-45.7966
17:15:58:960,0.492,2.181,6.842,36.608,0.1943,0.3259,0.6373,-45.982
17:15:58:980,0.7601,2.4851,6.8681,36.8674,0.0708,0.2791,0.5639,-46.1843
17:15:59:002,0.875,2.7821,7.4501,36.9689,-0.1345,0.1961,0.4254,-46.4013
17:15:59:021,1.134,2.694,8.5631,37.017,-0.3228,0.0524,0.2711,-46.6287
17:15:59:040,1.28,2.528,9.9161,36.8926,-0.4122,-0.0795,0.1317,-46.8614
17:15:59:060,1.55,2.354,11.018,36.4498,-0.4059,-0.2296,0.0572,-47.0943
17:15:59:081,2.1251,2.109,12.066,36.1051,-0.3516,-0.32,0.0529,-47.3239
17:15:59:100,2.7761,1.911,12.114,35.7585,-0.2366,-0.1902,0.0179,-47.5494
17:15:59:122,2.5871,2.174,11.798,35.5707,-0.1739,0.144,-0.0886,-47.7699
17:15:59:140,2.039,2.3681,11.666,35.6084,-0.242,0.3344,-0.212,-47.9822
17:15:59:161,1.725,2.43,11.633,35.6146,-0.3143,0.2973,-0.3142,-48.1825
17:15:59:180,1.4381,2.358,11.6471,35.7037,-0.4239,0.0759,-0.4216,-48.3675
17:15:59:200,1.215,1.7861,12.033,35.6634,-0.573,-0.2221,-0.5653,-48.5344
17:15:59:223,0.657,1.0991,12.5981,35.3789,-0.573,-0.3307,-0.6728,-48.6796
17:15:59:241,-0.0431,0.5171,13.0451,35.0892,-0.3761,-0.3031,-0.576,-48.7993
17:15:59:260,-0.086,0.096,13.019,34.7717,-0.094,-0.4297,-0.296,-48.895
17:15:59:281,0.734,0.333,12.1691,34.3371,0.1678,-0.6414,0.0008,-48.895
17:15:59:300,2.012,0.651,10.56,33.9223,0.3114,-0.6637,0.0605,-48.895
17:15:59:324,2.441,0.987,7.9001,33.5704,0.0485,-0.0583,-0.5589,-48.895
17:15:59:341,1.443,0.996,7.2131,33.427,-0.0877,0.3791,-0.8185,-48.895
17:15:59:361,0.633,1.118,6.66,33.3568,-0.0228,0.6665,-0.8335,-48.895
17:15:59:381,0.2261,1.434,5.774,33.5823,0.1646,0.7271,-0.7345,-48.895
17:15:59:402,0.255,1.784,5.025,33.7894,0.3326,0.5834,-0.6335,-48.895
17:15:59:422,0.368,2.196,4.364,34.0783,0.406,0.3068,-0.5919,-48.895
17:15:59:440,0.602,2.619,4.124,34.3132,0.3114,-0.0444,-0.6185,-48.895
17:15:59:461,0.8921,2.9951,4.622,34.3098,0.1326,-0.3435,-0.6962,-48.8022
17:15:59:481,1.103,3.2831,5.91,34.3166,-0.0047,-0.6095,-0.7803,-48.688
17:15:59:500,1.337,3.39,6.8201,34.1776,-0.011,-0.6819,-0.8005,-48.5508
17:15:59:523,1.158,3.7211,7.697,33.9515,-0.0803,-0.3956,-0.7271,-48.3896
17:15:59:541,0.9401,3.855,9.4729,33.5619,-0.2889,-0.1284,-0.6611,-48.2071
17:15:59:561,0.585,3.8501,11.307,33.1514,-0.3378,0.0578,-0.5888,-48.007
17:15:59:582,-0.144,4.0991,12.581,32.7654,-0.1792,0.1801,-0.4216,-47.7924
17:15:59:601,-0.642,4.2071,12.978,32.507,0.0571,0.1642,-0.213,-47.5683
17:15:59:623,-1.0391,4.305,12.983,32.385,0.2093,-0.0274,-0.0407,-47.3414
17:15:59:643,-1.0871,4.343,12.9191,32.4041,0.2401,-0.2018,0.0742,-47.1176
17:15:59:660,-0.809,4.169,13.302,32.4175,0.0389,-0.4733,0.1115,-46.9013
17:15:59:680,-0.651,3.8981,13.9391,32.3438,-0.1621,-0.5903,0.0583,-46.6949
17:15:59:701,-0.987,3.354,13.9031,31.9989,-0.1771,-0.3009,0.0605,-46.4976
17:15:59:722,-1.202,2.579,13.922,31.547,-0.2144,-0.1699,0.0998,-46.3085
17:15:59:743,-1.523,1.7381,13.4861,31.11,-0.0877,-0.1242,0.1425,-46.1286
17:15:59:760,-2.011,1.365,11.748,30.884,0.2443,0.1536,0.2531,-45.9587
17:15:59:781,-2.5361,1.3721,9.653,30.8517,0.4583,0.4302,0.4212,-45.8012
17:15:59:801,-2.5331,1.293,8.334,30.8787,0.4071,0.3898,0.6086,-45.6605
17:15:59:822,-1.908,1.14,8.633,31.0588,0.2358,-0.0327,0.7107,-45.5424
17:15:59:841,-0.8621,0.776,9.104,31.1905,0.2668,-0.4935,0.7022,-45.4513
17:15:59:860,0.035,0.7211,8.626,31.1373,0.4455,-0.6309,0.6744,-45.4513
17:15:59:882,0.7871,0.8141,7.812,31.0205,0.4806,-0.4935,0.616,-45.4513
17:15:59:900,1.277,1.01,7.1651,30.758,0.3784,-0.1253,0.5233,-45.4513
17:15:59:921,1.251,1.202,6.701,30.7874,0.1943,0.342,0.4117,-45.4513
17:15:59:941,0.911,1.305,6.873,30.9367,0.0283,0.708,0.3169,-45.4513
17:15:59:961,0.482,1.463,7.041,31.1518,-0.0036,0.8187,0.3031,-45.4513
17:15:59:979,-0.029,1.6451,7.227,31.2954,0.0517,0.7367,0.3904,-45.4513
17:16:00:000,-0.426,1.779,8.0681,31.4467,0.1997,0.6175,0.5776,-45.4513
17:16:00:021,-0.345,1.829,8.532,31.4867,0.5189,0.5196,0.8394,-45.4513
17:16:00:040,0.0611,2.291,8.075,31.6504,0.8073,0.4323,1.0554,-45.5471
17:16:00:060,0.641,2.861,7.563,32.0334,0.7563,0.3216,1.0693,-45.6737
17:16:00:080,0.9521,3.321,7.9601,32.3929,0.4774,0.3579,0.8693,-45.8333
17:16:00:099,0.8081,3.4601,8.853,32.6997,0.2369,0.3866,0.6533,-46.0204
17:16:00:122,0.9011,3.2951,10.11,32.7465,0.0826,0.2887,0.5116,-46.227
17:16:00:140,1.4351,2.9591,10.8551,32.8369,0.0358,0.1386,0.4436,-46.4468
17:16:00:159,1.907,2.844,10.965,32.8549,0.0315,0.1013,0.3722,-46.6767
17:16:00:180,2.175,3.036,10.68,32.8071,-0.0153,0.1397,0.2244,-46.914
17:16:00:202,2.151,3.225,10.431,32.8072,-0.2314,0.1866,-0.014,-47.1542
17:16:00:220,2.182,3.053,10.8521,32.8338,-0.5954,0.1089,-0.2949,-47.3899
17:16:00:239,2.2661,2.595,11.705,32.8451,-0.8965,-0.0168,-0.5621,-47.6123
17:16:00:260,1.596,1.8251,12.081,33.0664,-0.9699,0.1004,-0.8133,-47.8133
17:16:00:281,0.4151,1.3481,11.87,33.1914,-0.8422,0.4686,-0.8877,-47.9849
17:16:00:300,-0.7901,1.1921,11.465,33.2317,-0.5943,0.7399,-0.6941,-48.1231
17:16:00:321,-0.96,1.406,10.883,33.2391,-0.326,0.5335,-0.3344,-48.2329
17:16:00:340,0.308,1.731,10.2821,33.1131,-0.109,-0.1221,-0.0481,-48.3255
17:16:00:361,1.682,2.0711,9.7841,33.0384,-0.0707,-0.9149,-0.1151,-48.3255
17:16:00:380,2.738,1.911,9.339,32.9315,-0.2133,-1.4055,-0.5578,-48.3255
17:16:00:400,2.321,1.6691,8.762,32.8021,-0.4527,-1.3714,-1.1113,-48.3255
17:16:00:422,1.4711,1.236,8.681,32.62,-0.6273,-0.8862,-1.4805,-48.3255
17:16:00:440,0.3101,0.845,8.973,32.408,-0.5144,-0.1935,-1.5603,-48.3255
17:16:00:461,-0.615,0.831,8.573,32.0074,-0.1643,0.2313,-1.3518,-48.3255
17:16:00:481,-0.6971,1.0991,7.551,31.6467,0.2326,0.2855,-1.0325,-48.215
17:16:00:500,-0.2801,1.662,6.389,31.5502,0.4625,0.062,-0.8473,-48.0683
17:16:00:522,0.03,1.973,5.705,31.4816,0.4657,-0.1913,-0.9005,-47.8939
17:16:00:540,-0.017,2.1671,5.5991,31.6876,0.3295,-0.335,-0.9932,-47.6927
17:16:00:560,-0.0071,2.2481,6.119,31.7155,0.155,-0.3572,-1.0143,-47.4625
17:16:00:580,-0.204,2.445,6.777,31.4162,0.04,-0.2711,-1.0037,-47.2033
17:16:00:600,-0.575,2.639,7.529,31.0053,-0.0707,-0.1679,-0.9409,-46.9164
17:16:00:622,-0.932,2.928,8.793,30.631,-0.1686,-0.1423,-0.8005,-46.6045
17:16:00:640,-1.001,3.3431,9.696,30.3528,-0.1419,-0.154,-0.6057,-46.2729
17:16:00:661,-1.0541,3.809,10.079,30.3212,-0.0377,-0.0954,-0.3557,-45.9286
17:16:00:680,-0.8411,4.286,10.34,30.3727,0.0007,-0.0465,-0.1013,-45.5796
17:16:00:699,-0.378,4.566,11.082,30.2205,-0.11,-0.1402,0.0412,-45.235
17:16:00:721,-0.084,4.475,11.961,29.9558,-0.2718,-0.2296,-0.0012,-44.9014
17:16:00:740,-0.0551,4.3391,13.1891,29.5703,-0.4899,-0.2828,-0.0566,-44.5791
17:16:00:760,-0.096,4.298,14.403,29.2676,-0.6156,-0.2424,-0.0151,-44.2661
17:16:00:780,-0.165,4.0631,14.453,29.1652,-0.4474,0.0716,0.0807,-43.9629
17:16:00:800,-0.5411,3.515,13.6511,29.4403,-0.2728,0.2749,0.1402,-43.6719
17:16:00:821,-0.587,2.744,12.54,29.6476,-0.2314,0.1258,0.1297,-43.3948
17:16:00:841,-1.0181,2.153,10.869,29.6908,-0.0983,0.0641,0.1115,-43.1315
17:16:00:861,-1.746,1.911,9.5,29.7391,0.0346,0.1386,0.1914,-42.8802
17:16:00:880,-1.98,1.5281,9.224,29.688,0.0953,-0.0157,0.3147,-42.6421
17:16:00:900,-1.724,1.145,9.5471,29.7139,0.1986,-0.4223,0.3807,-42.4205
17:16:00:922,-1.1111,0.7901,9.5621,29.7178,0.3402,-0.8107,0.4456,-42.2178
17:16:00:939,-0.158,0.41,9.1361,29.5579,0.4327,-0.8117,0.5329,-42.035
17:16:00:961,0.588,0.4361,8.714,29.3829,0.3923,-0.4456,0.5457,-41.8746
17:16:00:980,0.959,0.465,8.343,29.1404,0.3072,0.045,0.4701,-41.7375
17:16:01:000,0.698,0.584,8.0801,28.8836,0.1922,0.4781,0.3542,-41.6217
17:16:01:021,0.332,0.663,8.0771,28.8083,0.1294,0.6739,0.3127,-41.5226
17:16:01:041,0.0131,0.7541,8.025,28.7422,0.1646,0.6867,0.3403,-41.5226
17:16:01:060,-0.086,0.86,7.7591,28.8535,0.2699,0.5632,0.4052,-41.5226
17:16:01:083,-0.0311,1.188,7.17,29.0672,0.3508,0.476,0.4808,-41.5226
17:16:01:100,0.008,1.599,6.509,29.3377,0.3305,0.4473,0.5383,-41.5226
17:16:01:121,-0.015,2.133,6.423,29.5889,0.1858,0.4228,0.5372,-41.5226
17:16:01:141,0.107,2.433,6.959,29.7107,0.0144,0.2663,0.4999,-41.5226
17:16:01:161,0.5111,2.5811,7.7681,29.6792,-0.0962,-0.0338,0.4308,-41.5226
17:16:01:179,0.827,2.562,8.5541,29.5664,-0.1611,-0.3413,0.2956,-41.5226
17:16:01:200,0.911,2.459,9.3131,29.3112,-0.2207,-0.5233,0.1616,-41.5226
17:16:01:222,1.5,2.112,10.5311,29.0867,-0.3006,-0.6276,0.0615,-41.5226
17:16:01:242,2.343,1.76,11.724,28.686,-0.3197,-0.6733,-0.0236,-41.5226
17:16:01:261,2.975,1.508,12.411,28.213,-0.2526,-0.5574,-0.096,-41.5226
17:16:01:280,3.1091,1.4921,12.507,27.7134,-0.1324,-0.2775,-0.1364,-41.5226
17:16:01:300,2.5271,1.604,12.155,27.4087,-0.0089,0.1099,-0.1588,-41.5226
17:16:01:324,2.3981,1.554,12.107,27.3491,-0.0824,-0.021,-0.2897,-41.5226
17:16:01:341,2.058,1.532,11.8361,27.5634,-0.0675,0.1067,-0.4216,-41.5226
17:16:01:361,1.304,1.386,11.664,27.6867,-0.0653,0.2919,-0.4909,-41.5226
17:16:01:381,0.882,1.1059,11.496,27.5885,-0.043,0.2535,-0.4503,-41.5226
17:16:01:401,1.0039,0.821,11.463,27.4972,-0.06,-0.1158,-0.3737,-41.5226
17:16:01:423,1.713,0.702,11.4821,27.4849,-0.0738,-0.5276,-0.2971,-41.5226
17:16:01:443,2.4461,0.9311,11.25,27.3421,-0.0271,-0.652,-0.278,-41.5226
17:16:01:460,2.862,1.1351,10.017,27.3588,0.089,-0.4275,-0.395,-41.5226
17:16:01:481,2.238,1.415,8.355,27.3665,0.1156,0.0279,-0.6133,-41.5226
17:16:01:501,1.095,1.461,7.053,27.2012,0.0613,0.459,-0.7622,-41.4319
17:16:01:522,0.291,1.652,6.203,27.0322,0.0645,0.6761,-0.7846,-41.3187
17:16:01:541,-0.4241,1.8821,5.621,27.0662,0.173,0.6271,-0.7399,-41.1814
17:16:01:562,-0.68,2.174,5.1281,27.0835,0.3114,0.3589,-0.6568,-41.0216
17:16:01:580,-0.654,2.543,4.725,27.2333,0.3806,-0.004,-0.5962,-40.8421
17:16:01:600,-0.204,2.7221,4.625,27.4653,0.3263,-0.3116,-0.6153,-40.6458
17:16:01:623,-0.204,3.065,4.989,27.4095,0.1689,-0.4329,-0.7111,-40.4333
17:16:01:641,-0.513,3.242,6.042,27.2512,-0.011,-0.4158,-0.7931,-40.2028
17:16:01:660,-0.951,3.2831,6.899,27.0775,-0.0983,-0.2679,-0.7983,-39.9521
17:16:01:681,-1.305,3.417,7.721,26.8243,-0.2398,-0.1232,-0.6941,-39.681
17:16:01:700,-1.245,3.371,9.1309,26.8214,-0.4484,-0.103,-0.5525,-39.3931
17:16:01:722,-0.9791,3.254,10.622,26.7984,-0.5527,-0.2061,-0.4312,-39.0939
17:16:01:743,-0.879,3.0671,11.774,26.7187,-0.4847,-0.154,-0.2641,-38.7888
17:16:01:760,-1.145,2.892,12.3821,26.6309,-0.3101,0.1546,0.0242,-38.4828
17:16:01:780,-1.2431,3.074,12.998,26.5002,-0.242,0.3334,0.402,-38.1844
17:16:01:800,-0.821,3.12,13.208,26.3028,-0.1697,0.3525,0.7032,-37.9055
17:16:01:822,-0.266,3.357,13.6991,26.203,-0.11,0.2589,0.8246,-37.6569
17:16:01:842,0.186,3.1871,13.5941,26.1236,-0.059,0.0386,0.8394,-37.4437
17:16:01:861,0.336,3.158,13.1651,26.0619,0.0027,0.0099,0.8363,-37.2662
17:16:01:880,0.047,2.892,12.519,26.1951,0.0485,0.1408,0.7851,-37.1228
17:16:01:900,-0.6491,2.421,11.678,26.5952,0.1368,0.2515,0.7479,-37.0116
17:16:01:922,-1.188,2.033,10.587,26.8836,0.2549,0.2344,0.8022,-37.0116
17:16:01:941,-1.2041,1.7501,9.495,27.0362,0.3359,0.1386,0.8863,-37.0116
17:16:01:960,-1.2641,1.757,8.781,27.0533,0.3305,-0.0466,0.914,-37.0116
17:16:01:980,-0.728,1.458,8.592,26.992,0.2369,-0.3541,0.8767,-37.0116
17:16:02:000,0.3101,1.0301,8.8391,26.8763,0.0784,-0.6329,0.7384,-37.0116
17:16:02:021,0.7601,0.728,9.267,26.6559,-0.0451,-0.6585,0.517,-37.0116
17:16:02:041,0.8441,0.599,9.294,26.4528,-0.0696,-0.4317,0.3297,-37.0116
17:16:02:060,0.839,0.594,8.846,26.1662,-0.0366,0.0514,0.2765,-37.1069
17:16:02:080,0.806,0.6491,8.2661,26.1901,-0.059,0.5941,0.2914,-37.2093
17:16:02:100,0.629,0.687,7.857,26.4246,-0.1037,0.9954,0.2839,-37.3186
17:16:02:122,0.2381,0.84,7.905,26.6714,-0.0962,1.1039,0.2691,-37.4349
17:16:02:140,0.02,0.936,7.7111,27.0882,0.0272,1.0091,0.318,-37.5573
17:16:02:160,-0.108,1.118,7.385,27.5199,0.1922,0.8506,0.4287,-37.6864
17:16:02:180,-0.036,1.497,7.029,28.1094,0.2944,0.6579,0.5489,-37.8249
17:16:02:200,0.4061,1.743,6.8921,28.6965,0.287,0.4727,0.5989,-37.9761
