Time,Acc_X,Acc_Y,Acc_Z,Meg,Gyr_X,Gyr_Y,Gyr_Z,Ore
17:05:26:978,0.516,2.121,9.368,71.5335,0.0177,-0.0529,-0.0225,-146.557
17:05:26:998,0.437,2.2241,9.291,71.6874,0.0038,-0.0051,-0.0214,-146.557
17:05:27:018,0.2891,2.3231,9.27,71.9573,0.0219,0.0939,-0.0077,-146.557
17:05:27:038,0.1931,2.4761,9.459,72.2935,0.0059,0.1238,0.0221,-146.557
17:05:27:058,0.08,2.37,9.5981,72.6007,-0.0186,0.0928,0.0296,-146.557
17:05:27:077,0.08,2.3681,9.626,72.6516,-0.0089,0.0896,0.0307,-146.557
17:05:27:097,0.023,2.4611,9.701,72.6601,0.0304,0.1035,0.0572,-146.557
17:05:27:117,0.066,2.507,9.591,72.667,0.0474,0.0854,0.0902,-146.557
17:05:27:137,0.152,2.54,9.497,72.426,0.0252,0.0429,0.1391,-146.557
17:05:27:156,0.4271,2.447,9.377,72.1155,0.0113,0.0162,0.1743,-146.557
17:05:27:176,0.6911,2.2871,9.251,71.9466,0.007,0.0151,0.1775,-146.557
17:05:27:196,0.8681,2.229,9.179,71.8752,-0.0334,0.0003,0.1562,-146.557
17:05:27:215,0.959,2.141,9.2891,71.8059,-0.061,-0.0338,0.1317,-146.557
17:05:27:235,0.9761,2.033,9.251,71.8373,-0.0898,-0.0487,0.0935,-146.557
17:05:27:255,0.9851,2.0231,9.315,71.7762,-0.1122,-0.0785,0.052,-146.557
17:05:27:275,0.9881,2.0351,9.3851,71.7969,-0.1057,-0.0689,0.0073,-146.557
17:05:27:297,0.9251,2.093,9.363,71.7014,-0.1005,-0.0529,-0.0289,-146.557
17:05:27:315,0.8561,2.114,9.5141,71.6716,-0.093,-0.0263,-0.0534,-146.557
17:05:27:338,0.839,2.0501,9.689,71.8142,-0.0792,-0.0338,-0.0821,-146.557
17:05:27:355,0.83,1.944,9.722,72.0998,-0.077,-0.0424,-0.1216,-146.557
17:05:27:376,0.7871,1.884,9.768,72.3609,-0.0642,-0.0668,-0.1705,-146.557
17:05:27:396,0.734,1.9661,9.665,72.631,-0.0388,-0.0359,-0.2152,-146.557
17:05:27:416,0.547,2.129,9.5951,72.7049,-0.0302,-0.0071,-0.245,-146.557
17:05:27:435,0.279,2.3111,9.5261,72.4546,-0.0696,-0.021,-0.2493,-146.557
17:05:27:455,0.128,2.3801,9.602,72.2002,-0.0792,-0.0051,-0.2375,-146.557
17:05:27:475,0.056,2.406,9.751,71.9451,-0.0291,0.0131,-0.2408,-146.557
17:05:27:497,-0.1391,2.624,9.7271,71.7573,0.0092,0.0045,-0.2258,-146.557
17:05:27:515,-0.1961,2.792,9.476,72.0524,-0.0026,0.0247,-0.1705,-146.557
17:05:27:539,-0.2351,2.813,9.442,72.3297,-0.0408,0.0322,-0.1184,-146.557
17:05:27:554,-0.3191,2.804,9.3941,72.5308,-0.0952,0.0205,-0.0726,-146.557
17:05:27:574,-0.359,2.837,9.437,72.5915,-0.1345,0.0003,-0.0236,-146.557
17:05:27:596,-0.398,2.744,9.38,72.4651,-0.1547,0.0099,0.0264,-146.557
17:05:27:614,-0.4601,2.694,9.468,72.1567,-0.1452,0.0524,0.0754,-146.557
17:05:27:636,-0.525,2.706,9.428,71.6345,-0.1419,0.0748,0.1232,-146.557
17:05:27:654,-0.5441,2.703,9.363,71.0446,-0.1782,0.0694,0.1647,-146.557
17:05:27:674,-0.6041,2.6051,9.442,70.5395,-0.1951,0.0578,0.1871,-146.557
17:05:27:696,-0.8,2.787,9.564,70.0557,-0.1143,0.0887,0.2403,-146.557
17:05:27:715,-0.989,3.0341,9.4061,70.1594,-0.0206,0.2089,0.3798,-146.557
17:05:27:735,-0.876,2.8781,9.306,70.6841,-0.0047,0.243,0.4553,-146.557
17:05:27:756,-1.0511,2.9351,9.231,71.2659,-0.0696,0.1833,0.4669,-146.557
17:05:27:776,-1.26,3.273,9.095,71.8878,-0.1664,0.1258,0.5776,-146.557
17:05:27:796,-1.3001,3.06,9.1639,72.2012,-0.2366,0.1557,0.7202,-146.557
17:05:27:815,-1.166,2.574,9.3851,72.1527,-0.2238,0.194,0.7799,-146.557
17:05:27:835,-1.0301,2.538,9.6071,71.9989,-0.143,0.177,0.7788,-146.557
17:05:27:855,-0.9941,2.7221,9.3341,71.7361,-0.1037,0.1684,0.8181,-146.6644
17:05:27:874,-0.8051,2.751,9.059,71.5813,-0.1174,0.2068,0.8778,-146.7946
17:05:27:898,-0.594,2.6411,9.186,71.64,-0.127,0.2185,0.914,-146.9488
17:05:27:915,-0.39,2.4761,9.195,71.6371,-0.1484,0.2035,0.898,-147.1301
17:05:27:935,-0.29,2.4761,9.279,71.7983,-0.1664,0.1695,0.865,-147.3383
17:05:27:955,-0.2831,2.54,9.363,71.8476,-0.1675,0.1642,0.8502,-147.5721
17:05:27:976,-0.1871,2.5481,9.6341,71.8671,-0.1196,0.1217,0.8309,-147.8296
17:05:27:997,-0.0191,2.5931,9.488,71.9029,-0.0718,0.1152,0.8235,-148.1095
17:05:28:015,0.281,2.5211,9.409,71.7875,-0.0483,0.1323,0.7927,-148.4103
17:05:28:036,0.497,2.375,9.564,71.4299,-0.0462,0.1141,0.7011,-148.7311
17:05:28:055,0.506,2.43,9.71,71.108,-0.0451,0.0663,0.6021,-149.0696
17:05:28:076,0.4301,2.516,10.0451,70.8875,-0.0069,0.0631,0.5404,-149.422
17:05:28:097,0.365,2.5691,10.3691,70.8305,0.0793,0.0674,0.5031,-149.7845
17:05:28:114,0.4541,2.471,10.599,70.9845,0.1518,-0.006,0.4564,-150.1548
17:05:28:134,0.6521,2.2961,10.668,71.0211,0.2252,-0.0902,0.3627,-150.5313
17:05:28:154,0.7511,2.289,10.5911,70.661,0.2986,-0.1594,0.2339,-150.9116
17:05:28:176,0.609,2.622,10.373,70.3412,0.3689,-0.1764,0.1488,-151.2918
17:05:28:196,0.597,2.646,10.599,69.9138,0.4071,-0.1275,0.1297,-152.0367
17:05:28:216,0.791,2.2991,10.6541,69.3049,0.3986,-0.0934,0.1775,-152.3988
17:05:28:235,0.9041,1.808,10.7681,69.0059,0.3295,-0.1008,0.1957,-152.756
17:05:28:255,0.866,1.406,11.207,68.6558,0.2369,-0.0689,0.1871,-153.109
17:05:28:276,0.813,1.034,11.5181,68.5444,0.1869,-0.0231,0.1647,-153.4576
17:05:28:297,0.717,0.7451,11.8001,68.62,0.2017,0.0077,0.1434,-153.8013
17:05:28:315,0.741,0.5651,12.0641,68.7716,0.3061,0.045,0.1104,-154.1393
17:05:28:335,0.9281,0.69,11.0201,68.9333,0.5275,-0.0902,0.054,-154.4704
17:05:28:355,1.076,0.912,9.485,69.0653,0.7084,-0.2476,0.0008,-154.7923
17:05:28:375,1.1051,1.075,8.5511,69.0444,0.719,-0.2573,-0.0055,-155.1039
17:05:28:397,1.124,1.226,8.2541,68.8872,0.6317,-0.2018,0.0093,-155.4053
17:05:28:415,1.2221,1.353,7.7951,68.7161,0.536,-0.2243,-0.0001,-155.6976
17:05:28:436,1.2731,1.365,7.167,68.6264,0.4657,-0.2456,0.0051,-155.9808
17:05:28:456,1.2011,1.458,6.9041,68.5988,0.3433,-0.1497,0.0062,-156.2556
17:05:28:476,0.945,1.4291,7.4861,68.5114,0.1337,0.0205,0.0221,-156.5223
17:05:28:497,0.734,1.3031,8.403,68.4216,-0.043,0.1653,0.0424,-156.782
17:05:28:517,0.4541,1.298,8.8361,68.3648,-0.094,0.194,0.0232,-157.0354
17:05:28:539,0.147,1.556,8.999,68.4334,-0.109,0.1258,-0.0023,-157.2819
17:05:28:555,0.162,1.7771,9.0731,68.5945,-0.1537,0.0077,0.0093,-157.5209
17:05:28:575,0.447,1.9901,8.5271,68.6979,-0.1643,-0.1381,0.0349,-157.7535
17:05:28:596,0.597,2.2151,8.106,68.536,-0.1398,-0.1381,0.052,-157.9806
17:05:28:615,0.6071,2.591,8.0681,68.3567,-0.1313,-0.0412,0.0551,-158.2029
17:05:28:638,0.573,2.825,8.0561,68.3625,-0.1515,0.011,0.0764,-158.4207
17:05:28:655,0.597,3.0311,8.1281,68.5,-0.1867,0.0364,0.1297,-158.6351
17:05:28:675,0.71,3.098,8.336,68.5242,-0.2516,0.0759,0.1903,-158.8484
17:05:28:697,0.83,2.94,8.688,68.3908,-0.3058,0.0865,0.2531,-159.0628
17:05:28:715,0.983,2.955,8.975,68.2627,-0.2952,0.1217,0.2828,-159.2804
17:05:28:735,1.064,3.048,8.882,68.031,-0.2357,0.1206,0.2808,-159.5019
17:05:28:756,1.107,2.976,9.0251,68.0407,-0.2431,0.1536,0.2882,-159.727
17:05:28:774,1.098,2.9861,9.485,67.9493,-0.2889,0.179,0.27,-159.9559
17:05:28:797,1.0691,3.149,9.89,67.8544,-0.2813,0.1695,0.2244,-160.1874
17:05:28:815,1.0549,3.3281,10.146,68.0804,-0.1942,0.1727,0.1924,-160.42
17:05:28:834,1.098,3.381,10.1891,68.1843,-0.0749,0.2025,0.1754,-160.6525
17:05:28:855,1.146,3.524,9.945,68.271,0.0261,0.1886,0.1477,-160.8843
17:05:28:876,1.196,3.623,9.5711,68.2302,0.0762,0.1482,0.1222,-161.1142
17:05:28:895,1.136,3.659,9.605,67.8477,0.0836,0.1664,0.1104,-161.3414
17:05:28:915,0.9491,3.5411,10.163,67.58,0.0517,0.243,0.1126,-161.5773
17:05:28:935,0.7241,3.35,10.6151,67.6273,0.0326,0.2717,0.1265,-161.8103
17:05:28:954,0.593,3.2801,10.979,67.8366,0.0389,0.2365,0.12,-162.0409
17:05:28:974,0.538,3.359,11.1641,68.2018,0.0571,0.1855,0.1009,-162.2688
17:05:28:996,0.1811,3.383,11.274,68.4688,0.0986,0.1504,0.069,-162.4931
17:05:29:015,-0.141,3.41,11.666,68.4091,0.1646,0.1812,0.0562,-162.7131
17:05:29:034,-0.378,3.8021,11.403,68.2413,0.3465,0.1462,0.0455,-162.9283
17:05:29:055,-0.278,3.771,9.7271,67.9275,0.5647,-0.0231,0.1104,-163.1385
17:05:29:074,-0.177,3.1511,8.824,67.5652,0.5455,0.0247,0.2626,-163.347
17:05:29:097,-0.491,1.9631,9.672,67.3751,0.3103,0.3249,0.4212,-163.5597
17:05:29:115,-0.747,1.176,11.535,67.3924,0.0602,0.5016,0.4883,-163.7819
17:05:29:134,-0.443,0.7901,11.5751,67.4581,0.0454,0.1994,0.4404,-164.0152
17:05:29:155,-0.005,0.9701,9.318,67.7049,0.271,-0.3147,0.3052,-164.2566
17:05:29:174,0.0161,1.2761,7.8191,67.8355,0.4487,-0.352,0.2074,-164.5008
17:05:29:195,-0.4571,1.3121,8.276,67.659,0.4615,0.0566,0.2074,-164.7449
17:05:29:214,-0.939,1.329,9.0161,67.0668,0.4264,0.3292,0.2489,-164.9895
17:05:29:234,-1.1059,1.602,8.7881,66.0917,0.3774,0.2313,0.285,-165.236
17:05:29:254,-1.2431,1.8701,8.408,65.1212,0.2443,0.0631,0.3361,-165.4858
17:05:29:274,-1.214,2.1761,8.424,64.6183,0.0656,-0.0103,0.4276,-165.7412
17:05:29:296,-0.654,2.4401,8.8361,64.877,-0.1005,-0.0774,0.5435,-166.0059
17:05:29:314,-0.086,2.39,8.714,65.4878,-0.1387,-0.1614,0.6223,-166.2838
17:05:29:334,0.353,2.672,8.286,66.1484,-0.0451,-0.1891,0.6234,-166.5768
17:05:29:354,0.303,2.9951,8.223,66.6115,0.0049,-0.0965,0.5798,-166.8842
17:05:29:374,0.056,3.0461,8.733,66.5405,-0.0323,0.0045,0.5702,-167.2039
17:05:29:396,-0.0191,3,9.2741,66.2609,-0.0887,0.045,0.5574,-167.5353
17:05:29:415,0.195,2.919,9.03,66.193,-0.0516,-0.0359,0.5191,-167.8774
17:05:29:434,0.317,2.979,8.6569,66.2988,0.0155,-0.0422,0.4361,-168.228
17:05:29:455,0.324,3.156,8.568,66.7131,0.0315,0.0312,0.3372,-168.5837
17:05:29:474,0.3701,3.417,8.5781,67.1319,0.056,0.0865,0.2498,-168.9407
17:05:29:496,0.324,3.716,8.7191,67.5331,0.0932,0.1451,0.1838,-169.2959
17:05:29:514,0.308,4.1179,8.8219,67.7536,0.1475,0.1716,0.1265,-169.647
17:05:29:535,0.267,4.413,8.927,67.6298,0.2028,0.1599,0.0913,-169.9923
17:05:29:554,0.368,4.604,8.9441,67.4122,0.256,0.1546,0.0967,-170.3308
17:05:29:574,0.521,4.5851,9.0041,67.1557,0.2742,0.128,0.1286,-170.6633
17:05:29:596,0.669,4.4411,8.87,66.9338,0.2794,0.0791,0.1669,-170.9912
17:05:29:614,0.93,4.0849,8.8121,67.0072,0.2742,0.0844,0.2126,-171.3163
17:05:29:634,0.978,3.68,9.155,67.3129,0.239,0.1695,0.2244,-171.6402
17:05:29:654,0.966,3.5201,10.1681,67.501,0.1613,0.2526,0.1818,-171.9629
17:05:29:674,1.392,3.9911,10.469,67.5315,0.106,0.1451,0.0722,-172.2822
17:05:29:696,1.562,4.5161,10.1081,67.2906,0.0539,-0.1156,-0.0704,-172.5937
17:05:29:715,1.4231,4.7021,10.1441,66.9608,-0.0653,-0.1349,-0.1279,-172.8926
17:05:29:734,1.16,4.2641,10.991,66.602,-0.2058,0.0652,-0.0747,-173.1776
17:05:29:754,1.28,2.696,11.8481,66.5448,-0.326,0.2068,0.1094,-173.4524
17:05:29:774,1.845,1.559,12.7631,66.7007,-0.3314,0.2493,0.1669,-173.7236
17:05:29:796,2.1971,0.9791,12.425,66.889,-0.1068,0.0759,0.0179,-173.992
17:05:29:814,2.2181,1.001,10.043,67.1928,0.2284,-0.3444,-0.2716,-174.2509
17:05:29:835,1.874,1.329,8.214,67.4356,0.3784,-0.5211,-0.5376,-174.4897
17:05:29:854,1.4741,1.559,7.847,67.7606,0.3369,-0.3487,-0.6643,-174.7001
17:05:29:874,1.136,1.817,7.986,67.9725,0.2668,-0.1412,-0.7132,-174.8787
17:05:29:896,0.897,1.9541,7.95,68.1269,0.2273,-0.038,-0.726,-175.0248
17:05:29:914,0.585,2.088,7.847,68.1138,0.173,0.0364,-0.7197,-175.1389
17:05:29:934,0.339,2.193,8.264,67.9285,0.0337,0.1365,-0.6876,-175.1389
17:05:29:954,0.075,2.2121,8.664,67.897,-0.1217,0.1514,-0.6472,-175.1389
17:05:29:974,-0.041,2.1911,8.961,67.8763,-0.2101,0.0811,-0.61,-175.1389
17:05:29:996,0.075,2.217,8.867,67.9541,-0.1845,-0.0177,-0.5792,-175.1389
17:05:30:015,0.2771,2.493,8.1641,67.995,-0.0898,-0.1275,-0.5738,-175.1389
17:05:30:034,0.411,2.861,7.527,67.8608,-0.0186,-0.1519,-0.5834,-175.1389
17:05:30:055,0.4751,3.216,7.337,67.8271,-0.011,-0.1019,-0.561,-175.1389
17:05:30:075,0.3461,3.4721,7.637,67.6481,-0.0718,-0.0433,-0.5302,-175.1389
17:05:30:096,0.332,3.608,7.634,67.5316,-0.1143,-0.071,-0.477,-175.0415
17:05:30:115,0.372,3.75,7.6511,67.6235,-0.1654,-0.1147,-0.4067,-174.9296
17:05:30:135,0.3461,3.8171,8.058,67.7902,-0.2153,-0.038,-0.3387,-174.8064
17:05:30:155,0.4271,3.747,8.5421,67.9316,-0.2144,0.0322,-0.261,-174.6751
17:05:30:175,0.3581,3.632,9.021,68.1175,-0.1771,0.0748,-0.2141,-174.5387
17:05:30:198,0.2261,4.0631,9.4301,68.2999,-0.0866,0.0045,-0.2056,-174.2551
17:05:30:216,0.159,4.1831,9.804,68.5143,-0.0473,0.0322,-0.1705,-174.1085
17:05:30:236,-0.024,4.1899,10.0361,68.8844,-0.0004,0.0566,-0.1375,-173.9603
17:05:30:255,-0.003,4.25,10.203,69.0797,0.0209,0.0535,-0.1023,-173.8116
17:05:30:276,0.0971,4.389,10.005,68.9996,0.0283,0.0247,-0.0694,-173.6638
17:05:30:298,0.3461,4.406,9.9401,68.8268,-0.0249,0.0418,-0.0172,-173.5181
17:05:30:316,0.1691,4.178,10.328,68.7532,-0.1174,0.1866,0.0201,-173.3765
17:05:30:335,-0.3071,3.596,11.2931,68.7538,-0.1984,0.3972,0.0477,-173.2406
17:05:30:355,-0.932,3.4721,12.72,69.0056,-0.2292,0.5878,0.0093,-173.111
17:05:30:376,-1.8611,3.9221,13.16,69.185,-0.1419,0.4792,-0.1151,-172.9854
17:05:30:397,-2.256,4.0511,11.516,69.4105,0.0549,0.1152,-0.1343,-172.8591
17:05:30:417,-2.021,3.333,9.732,69.6732,0.1518,-0.0082,0.0338,-172.7325
17:05:30:436,-1.8581,2.3321,10.4621,69.5901,0.056,0.3058,0.2211,-172.6119
17:05:30:455,-1.53,1.664,11.058,69.6078,0.0261,0.3877,0.2828,-172.5038
17:05:30:475,-1.281,1.731,9.591,69.608,0.1922,0.011,0.1743,-172.4085
17:05:30:499,-1.355,1.896,7.874,69.5299,0.3977,-0.1924,0.0679,-172.4085
17:05:30:515,-1.674,2.198,7.0121,69.5855,0.503,-0.0444,0.0488,-172.4085
17:05:30:535,-1.805,2.538,6.978,69.4867,0.4625,0.2025,0.1094,-172.4085
17:05:30:555,-1.877,2.5571,7.1411,69.0991,0.3007,0.3323,0.2574,-172.4085
17:05:30:575,-1.64,2.514,7.436,68.5726,0.0773,0.3366,0.4159,-172.4085
17:05:30:597,-1.3121,2.5571,8.0561,68.1793,-0.1706,0.2472,0.5394,-172.4085
17:05:30:616,-0.671,2.4761,7.998,67.8967,-0.3367,-0.0125,0.6212,-172.4085
17:05:30:638,-0.015,2.454,7.388,67.8643,-0.374,-0.3125,0.6351,-172.4085
17:05:30:655,0.4061,2.768,7.0241,68.1119,-0.3633,-0.3785,0.5606,-172.4085
17:05:30:675,0.348,3.173,7.1321,68.4934,-0.3484,-0.2562,0.4617,-172.4085
17:05:30:697,-0.125,3.323,7.9151,68.7809,-0.3985,-0.0689,0.4265,-172.4085
17:05:30:715,-0.405,3.213,8.7641,68.9432,-0.4357,0.0301,0.4234,-172.4085
17:05:30:737,-0.4481,3.201,9.09,68.8391,-0.3675,0.0312,0.4009,-172.4085
17:05:30:754,-0.405,3.2591,9.2171,68.6793,-0.2441,0.0461,0.3468,-172.5131
17:05:30:775,-0.491,3.453,9.428,68.5888,-0.143,0.0802,0.2765,-172.6274
17:05:30:797,-0.546,3.821,9.138,68.5527,-0.0473,0.0216,0.1999,-172.7482
17:05:30:815,-0.369,4.0631,9.258,68.5576,-0.0516,-0.0359,0.1647,-172.8727
17:05:30:835,0.0281,4.2311,9.246,68.5244,-0.077,-0.2093,0.1189,-172.9995
17:05:30:856,0.2411,4.238,9.6,68.7074,-0.0792,-0.335,0.0381,-173.1264
17:05:30:875,0.468,4.4561,9.693,68.8063,-0.0186,-0.4221,-0.0459,-173.2504
17:05:30:904,0.698,4.377,9.377,68.6716,0.0506,-0.4796,-0.063,-173.3687
17:05:30:914,0.9761,3.8411,9.6071,68.7889,0.04,-0.3275,0.0158,-173.4815
17:05:30:934,1.313,3.0581,10.565,68.5798,0.0007,-0.0774,0.0722,-173.5921
17:05:30:954,1.95,2.904,11.207,68.344,-0.0803,-0.0795,-0.0151,-173.7017
17:05:30:974,2.283,3.3041,11.108,68.3626,-0.2633,-0.3275,-0.2428,-173.8058
17:05:30:996,2.288,3.0581,11.19,68.0409,-0.5294,-0.4243,-0.3567,-173.8968
17:05:31:014,2.072,2.1551,12.174,67.8285,-0.7485,-0.1805,-0.3312,-173.8968
17:05:31:035,1.9241,1.3031,13.2941,67.9097,-0.8007,0.077,-0.3046,-173.8968
17:05:31:054,1.9001,0.812,13.6301,67.848,-0.6123,0.095,-0.4004,-173.8968
17:05:31:074,1.718,0.7541,11.7431,67.8868,-0.143,-0.0784,-0.543,-173.8968
17:05:31:097,1.3661,0.9341,9.8681,67.7563,0.2093,-0.1486,-0.6717,-173.8968
17:05:31:115,0.657,1.3031,8.396,67.6045,0.2401,-0.1306,-0.7323,-173.8968
17:05:31:135,-0.1151,1.817,7.586,67.4569,0.1006,-0.0848,-0.7206,-173.8968
17:05:31:155,-0.201,2.2121,9.629,67.239,0.0422,0.4291,-0.543,-173.8968
17:05:31:175,-0.4001,1.0391,9.971,67.1525,0.6072,1.0506,-0.2684,-173.8968
17:05:31:197,-0.0821,0.654,8.4701,66.9512,1.0915,1.0762,-0.2311,-173.8968
17:05:31:216,-0.4691,1.7861,7.3571,66.7012,0.9116,0.608,-0.5259,-173.7935
17:05:31:234,-1.1021,2.0951,6.5141,66.3863,0.4987,0.408,-0.6014,-173.6699
17:05:31:255,-1.307,1.8821,7.115,65.9767,-0.0291,0.1792,-0.5185,-173.5269
17:05:31:275,-1.887,1.968,8.465,65.8342,-0.5144,0.0844,-0.544,-173.3695
17:05:31:296,-2.394,2.1671,9.0731,65.8991,-0.5336,0.0588,-0.5237,-173.1991
17:05:31:315,-3.134,2.6411,8.9231,65.8861,-0.2804,0.1386,-0.4206,-173.0178
17:05:31:335,-1.928,2.634,8.6021,65.7675,-0.0887,0.128,-0.2343,-172.8288
17:05:31:355,-1.6091,2.325,8.772,65.5179,-0.0568,0.2483,-0.0268,-172.6391
17:05:31:375,-1.1471,2.4971,8.585,65.1259,0.0092,0.326,0.0446,-172.455
17:05:31:397,-0.932,3.338,8.286,64.904,0.0741,0.3866,0.0551,-172.2779
17:05:31:415,-1.1591,3.35,8.82,64.9174,0.1635,0.8613,0.1552,-172.1081
17:05:31:435,-1.073,2.4251,8.76,64.9625,0.3391,1.2976,0.2945,-171.9491
17:05:31:455,-1.082,2.253,8.508,64.9239,0.2922,1.0996,0.0764,-171.802
17:05:31:475,-0.546,2.979,11.6351,64.7957,0.0081,0.8496,-0.3472,-171.6568
17:05:31:498,-1.2521,2.612,11.132,64.4678,-0.1504,0.0472,-0.4833,-171.5023
17:05:31:515,-1.5881,3.3521,10.5671,64.233,0.023,-0.6467,-0.3344,-171.3371
17:05:31:535,-1.626,2.888,9.954,64.2518,0.1891,-0.7935,0.0318,-171.1667
17:05:31:555,-1.2671,2.7611,11.0531,64.1615,0.2773,-0.3806,0.2552,-171.0031
17:05:31:576,-0.699,2.868,11.3621,63.9368,0.4593,-0.1816,0.3318,-170.8516
17:05:31:597,0,2.03,10.977,63.3376,0.5061,-0.3125,0.334,-170.7133
17:05:31:615,-0.7181,2.8781,11.063,62.6115,0.3337,-0.3647,0.0082,-170.5862
17:05:31:635,-2.0351,3.996,10.845,62.0877,0.2124,-0.2604,-0.3301,-170.4576
17:05:31:655,-2.5211,3.7661,10.764,61.6037,0.1943,-0.1594,-0.18,-170.3201
17:05:31:676,-2.2751,2.967,11.058,61.4619,0.2124,0.0258,0.0509,-170.1805
17:05:31:697,-1.659,2.612,10.503,61.5161,0.172,-0.205,0.1382,-170.0463
17:05:31:714,-1.185,2.3681,9.423,61.4754,0.0591,-0.619,0.1062,-169.92
17:05:31:736,-0.702,2.378,8.499,61.3638,0.0847,-0.751,0.0594,-169.8007
17:05:31:756,-0.776,2.4611,7.2971,61.1609,0.2688,-0.5328,0.0446,-169.6864
17:05:31:775,-0.908,2.727,6.3701,60.7424,0.4029,-0.1679,0.054,-169.5754
17:05:31:797,-1.5281,2.94,6.9041,60.2435,0.3444,0.3164,0.1189,-169.468
17:05:31:815,-1.949,2.7461,8.7791,60.0058,0.1475,0.5569,0.2222,-169.3674
17:05:31:835,-1.5371,2.291,8.9201,59.8845,-0.0536,-0.0305,0.3158,-169.3674
17:05:31:855,-0.5651,2.052,7.802,59.7017,-0.2175,-0.6329,0.3477,-169.3674
17:05:31:875,0.363,2.5931,7.472,59.582,-0.3942,-0.6797,0.2159,-169.3674
17:05:31:896,0.9761,3.0221,6.492,59.3572,-0.5783,-0.835,0.1147,-169.3674
17:05:31:915,1.505,3.029,5.9681,59.128,-0.7826,-0.9574,0.0987,-169.3674
17:05:31:935,1.4261,3.189,6.638,59.0314,-0.9061,-0.4381,0.0179,-169.3674
17:05:31:955,1.146,3.314,6.9071,58.8938,-0.7347,0.0813,0.0125,-169.3674
17:05:31:976,1.5341,1.118,5.183,58.9308,-0.5954,0.1673,0.1339,-169.3674
17:05:31:997,0.3941,2.3201,6.7031,58.8748,-0.6028,0.5739,-0.1577,-169.3674
17:05:32:015,-0.5411,4.8251,11.393,59.053,-0.5815,1.8063,-0.4195,-169.3674
17:05:32:035,-1.2761,3.093,11.513,59.3433,-0.39,1.2859,-0.1013,-169.3674
17:05:32:060,-0.783,2.291,10.4021,59.1173,-0.5059,-0.2498,0.0082,-169.3674
17:05:32:075,0.183,2.957,9.7871,58.8405,-0.7582,-1.1171,-0.1939,-169.3674
17:05:32:097,-0.137,3.438,9.6461,58.4659,-0.6251,-1.1352,-0.3461,-169.3674
17:05:32:115,-0.872,3.905,9.3131,58.1992,-0.1962,-0.536,-0.3886,-169.3674
17:05:32:134,-0.9821,4.41,10.124,58.1915,0.1837,0.0896,-0.2545,-169.3674
17:05:32:156,-0.3161,3.963,10.62,58.1099,0.4615,0.3835,0.0817,-169.3674
17:05:32:176,-0.6371,2.5241,10.565,57.904,0.4753,0.2324,0.3095,-169.3674
17:05:32:197,-0.275,1.781,10.701,57.5838,0.1997,-0.0285,0.2956,-169.3674
17:05:32:215,-1.437,2.7251,17.1709,57.1916,-0.2984,-0.1987,-0.0439,-169.3674
17:05:32:236,0.6641,2.7701,13.3901,56.7941,-0.5038,-1.6961,-0.2992,-169.3674
17:05:32:256,1.122,2.9261,10.7831,56.5685,-0.6975,-2.0345,-0.6292,-169.3674
17:05:32:275,0.9041,3.309,9.686,56.4131,-0.707,-1.6195,-0.858,-169.2704
17:05:32:298,-0.1511,2.615,10.4621,56.0308,-0.127,0.6824,-0.4791,-168.9958
17:05:32:315,0.4661,0.6971,10.644,55.8025,0.1911,1.2913,-0.0843,-168.8369
17:05:32:340,0.6071,-0.653,10.9361,55.3447,0.1976,1.3274,0.0115,-168.6806
17:05:32:356,-0.3071,-0.626,11.808,54.9338,0.038,0.9635,-0.1875,-168.5278
17:05:32:376,-1.319,0.498,9.7991,54.8124,-0.01,0.1451,-0.3248,-168.3712
17:05:32:397,-1.647,0.4241,8.025,54.9109,0.2145,-0.1998,-0.312,-168.2085
17:05:32:417,-1.226,0.635,7.919,55.0282,0.0869,-0.2892,-0.3706,-168.038
17:05:32:435,-1.176,0.812,7.9121,55.1246,-0.1899,-0.5339,-0.3035,-167.8599
17:05:32:456,-1.118,0.915,8.456,54.9948,-0.358,-0.4818,-0.2727,-167.6774
17:05:32:476,-1.365,1.7021,8.1041,54.8295,-0.293,-0.3572,-0.2716,-167.4918
17:05:32:496,-1.583,2.696,7.941,54.8372,-0.1048,-0.1816,-0.2194,-167.3029
17:05:32:515,-0.8531,2.162,6.8681,54.8423,0.0932,-0.2126,0.0902,-167.1146
17:05:32:535,-0.7571,2.2241,6.2891,54.8854,-0.1899,-0.2934,0.0668,-166.9349
17:05:32:556,-0.63,2.313,7.565,54.6592,-0.6443,-0.0774,0.1467,-166.764
17:05:32:575,-0.024,1.875,8.6621,54.4273,-0.9508,0.1152,0.0956,-166.6047
17:05:32:597,0.243,1.5521,9.2891,54.3392,-0.8784,0.1833,0.1467,-166.4554
17:05:32:615,-0.096,1.2791,9.0401,54.4387,-0.4548,0.1015,0.1636,-166.3179
17:05:32:638,0.4061,1.614,9.0731,54.6621,-0.1239,-0.0742,0.1712,-166.191
17:05:32:656,0.5591,1.7501,9.4729,54.7375,-0.0813,-0.2541,0.118,-166.0738
17:05:32:675,0.456,1.853,10.254,54.68,-0.2463,-0.3765,0.0168,-165.9639
17:05:32:696,0.0161,1.985,10.85,54.6196,-0.1782,-0.3722,-0.0683,-165.8575
17:05:32:715,0.257,1.872,11.015,54.6039,0.1209,-0.3615,-0.045,-165.7522
17:05:32:737,0.538,1.757,10.5341,54.7272,0.353,-0.3031,-0.0342,-165.6485
17:05:32:756,0.674,1.7021,10.3331,54.9039,0.2773,-0.0826,-0.1034,-165.5459
17:05:32:775,0.4901,1.554,10.701,54.9427,0.0135,0.227,-0.2045,-165.4419
17:05:32:796,-0.098,1.652,10.814,54.8514,-0.3453,0.5558,-0.2929,-165.333
17:05:32:815,-0.9341,0.321,12.44,54.6855,-0.6612,0.858,-0.1301,-165.2187
17:05:32:835,-1.683,-0.284,14.456,54.5382,-0.9327,0.6601,0.0147,-165.1057
17:05:32:855,-1.7171,-0.945,14.5871,54.6258,-0.6688,0.2291,0.1562,-164.9998
17:05:32:875,-2.153,-0.839,13.35,54.8989,-0.0727,0.1004,0.2413,-164.9045
17:05:32:896,-2.6171,-0.5831,11.4581,55.0728,0.4273,0.1812,0.3787,-164.9045
17:05:32:916,-2.54,-0.14,9.83,55.2248,0.6828,0.1343,0.4734,-164.9045
17:05:32:935,-2.445,0.3641,8.659,55.2854,0.6711,-0.0817,0.5309,-164.9045
17:05:32:955,-2.138,0.7781,8.12,55.0738,0.5041,-0.2562,0.5915,-164.9045
17:05:32:975,-1.176,0.579,8.147,54.9753,0.305,-0.2838,0.6628,-164.9045
17:05:32:997,-0.75,0.4481,7.9031,55.0194,0.124,-0.2912,0.6766,-164.9045
17:05:33:016,-0.548,0.206,8.195,55.0859,-0.0696,-0.2721,0.6755,-164.9045
17:05:33:034,-0.414,0.393,8.345,55.2595,-0.1376,-0.3307,0.6777,-164.9045
17:05:33:056,-0.4691,0.611,7.919,55.358,-0.0525,-0.4488,0.7032,-164.9045
17:05:33:075,-0.228,0.8051,7.718,55.2475,0.0858,-0.5361,0.7011,-165.0041
17:05:33:096,0.269,1.2311,7.3331,55.3167,0.1997,-0.4499,0.6468,-165.1248
17:05:33:115,-0.074,1.2551,6.7271,55.454,0.2432,-0.1722,0.6425,-165.2642
17:05:33:135,-0.2201,1.046,6.986,55.671,0.0591,0.0748,0.6969,-165.4226
17:05:33:158,-0.0581,1.01,8.073,55.9877,-0.1048,0.2951,0.6522,-165.6005
17:05:33:176,-0.194,1.913,8.183,56.1227,-0.0675,0.3196,0.567,-165.795
17:05:33:197,0.1091,1.535,8.6831,56.0993,0.0209,0.3622,0.5776,-166.0036
17:05:33:215,0.176,2.0089,9.516,56.0249,0.0836,0.3025,0.5648,-166.2263
17:05:33:235,0.834,1.815,9.72,55.8057,0.2369,0.0631,0.5064,-166.4617
17:05:33:255,1.0571,1.434,9.48,55.6819,0.3487,-0.1178,0.2413,-166.7063
17:05:33:276,0.803,2.409,9.65,55.8577,0.2475,-0.0615,-0.2152,-166.9487
17:05:33:297,2.2211,1.485,10.1801,56.1164,0.0155,0.0652,-0.4301,-167.1742
17:05:33:316,0.9281,1.367,11.796,56.6279,-0.5581,0.9379,-0.4685,-167.3775
17:05:33:335,1.361,0.747,12.902,57.1956,-0.1462,0.2876,-0.2949,-167.5588
17:05:33:355,1.103,0.716,13.4861,57.6417,-0.0738,0.2919,-0.0769,-167.7267
17:05:33:376,1.1861,-0.557,14.025,57.9714,-0.2346,0.359,-0.0661,-167.8873
17:05:33:396,0.267,0.146,15.0161,58.1345,-0.4016,0.3728,-0.3077,-168.0396
17:05:33:415,0.233,-0.2741,13.7591,58.1307,-0.3857,0.1875,-0.4748,-168.1759
17:05:33:436,0.1571,-0.437,12.155,58.3523,-0.2952,0.0503,-0.7334,-168.2907
17:05:33:455,-0.0581,-0.198,11.3141,58.7511,-0.2027,0.1132,-0.8856,-168.2907
17:05:33:475,-0.321,-0.329,11.6141,59.022,-0.1547,0.0205,-0.8143,-168.2907
17:05:33:497,0.315,-0.2651,11.36,59.1652,0.0528,-0.2221,-0.5706,-168.2907
17:05:33:517,1.1981,-0.068,10.148,58.9795,0.3732,-0.4764,-0.4184,-168.2907
17:05:33:536,2.096,0.089,8.877,58.5827,0.4572,-0.5445,-0.3535,-168.2907
17:05:33:555,2,0.4961,8.345,58.3196,0.2699,-0.37,-0.4876,-168.2907
17:05:33:575,1.292,0.596,8.0531,58.2023,0.0549,-0.0954,-0.7281,-168.2907
17:05:33:597,0.4781,0.749,7.493,58.1497,0.0219,0.1462,-0.8612,-168.2907
17:05:33:616,0.0851,1.046,7.0721,58.0233,0.0932,0.2259,-0.8302,-168.196
17:05:33:635,0.131,1.317,6.725,57.9368,0.1826,0.1632,-0.7345,-168.0757
17:05:33:655,0.198,1.587,6.339,57.9171,0.2933,0.0813,-0.6654,-167.9335
17:05:33:675,0.071,1.743,6.1361,57.9851,0.3359,0.0238,-0.6494,-167.7716
17:05:33:697,-0.1031,1.841,6.3821,57.937,0.256,-0.0826,-0.6185,-167.5912
17:05:33:716,-0.0431,1.9181,7.053,57.9994,0.1347,-0.2636,-0.5419,-167.3944
17:05:33:736,0.188,1.913,7.766,58.1782,0.0996,-0.4254,-0.4961,-167.1847
17:05:33:755,0.291,1.9751,8.3,58.3306,0.155,-0.5072,-0.4961,-166.9637
17:05:33:775,-0.2441,2.2961,8.583,58.3691,0.2475,-0.551,-0.5515,-166.7312
17:05:33:797,-0.443,2.6411,9.344,58.246,0.2401,-0.6062,-0.5567,-166.4856
17:05:33:815,-0.45,2.576,10.065,58.1216,0.2221,-0.5521,-0.4471,-166.228
17:05:33:835,-0.218,2.694,10.536,58.1205,0.1891,-0.3871,-0.2897,-165.9633
17:05:33:855,0.0011,2.4761,11.2331,58.2209,0.0613,-0.1199,-0.1779,-165.6969
17:05:33:875,-0.0071,2.136,11.712,58.3356,-0.0249,0.2982,-0.0928,-165.4329
17:05:33:897,-0.2801,1.635,12.176,58.2925,-0.1845,0.5037,-0.0129,-165.1741
17:05:33:915,-0.2351,1.578,13.596,58.1463,-0.4634,0.4388,0.0327,-164.9233
17:05:33:935,-0.2471,1.6781,14.592,58.2144,-0.6315,0.2196,0.1818,-164.683
17:05:33:955,0.468,1.2881,15.279,58.4097,-0.6368,0.0972,0.3563,-164.4588
17:05:33:975,1.6961,-0.032,15.033,58.4545,-0.5889,-0.0412,0.4137,-164.2559
17:05:33:996,1.8281,-0.8111,14.468,58.2241,-0.6091,-0.1785,0.2201,-164.0735
17:05:34:015,0.942,-0.7871,13.352,57.8017,-0.4506,-0.038,0.0221,-163.9035
17:05:34:036,-0.1871,-0.123,11.3861,57.3962,0.1262,0.392,0.0807,-163.7402
17:05:34:055,-0.5531,0.141,8.832,56.983,0.8669,0.6963,0.3212,-163.5855
17:05:34:076,-0.678,0.62,6.849,56.7292,1.2915,0.6006,0.5053,-163.446
17:05:34:097,-0.381,1.0151,5.8151,56.4382,1.2469,0.1759,0.5532,-163.3253
17:05:34:116,0.1691,1.152,5.6231,56.2589,0.8914,-0.3444,0.4404,-163.2236
17:05:34:136,0.9161,0.917,6.107,55.9571,0.3858,-0.7032,0.2424,-163.2236
17:05:34:156,1.134,0.8021,7.1441,55.6431,-0.0622,-0.6542,-0.0044,-163.2236
17:05:34:175,0.8921,0.63,8.159,55.375,-0.3399,-0.3466,-0.1737,-163.2236
17:05:34:197,0.143,0.551,8.702,54.9862,-0.3303,0.045,-0.2929,-163.2236
17:05:34:216,-0.692,0.699,8.5061,54.8091,-0.1419,0.2174,-0.2864,-163.1253
17:05:34:235,-1.025,0.9701,7.974,54.7149,0.0506,0.1695,-0.1598,-163.0208
17:05:34:256,-0.855,1.271,7.5341,54.5644,0.1539,0.062,0.0062,-162.9148
17:05:34:275,-0.513,1.5521,7.3691,54.4898,0.1475,-0.0029,0.1072,-162.8128
17:05:34:298,-0.189,1.88,7.974,54.1854,-0.0547,0.0333,0.0764,-162.7176
17:05:34:316,0.011,1.9871,8.5391,53.7228,-0.1387,0.0227,0.0892,-162.7176
17:05:34:336,0.1211,2.064,8.8871,53.5879,-0.1037,0.0674,0.1072,-162.7176
17:05:34:355,0.15,2.246,9.332,53.4261,-0.0366,0.0961,0.1104,-162.7176
17:05:34:375,0.2261,2.294,9.9161,53.4312,0.0506,0.0036,0.1084,-162.7176
17:05:34:397,0.423,2.157,10.536,53.5339,0.1783,-0.1679,0.1115,-162.7176
17:05:34:416,0.8441,2.0089,10.737,53.4003,0.3391,-0.3722,0.1265,-162.7176
17:05:34:435,1.61,1.748,10.788,53.1169,0.4509,-0.5371,0.1286,-162.7176
17:05:34:456,1.931,1.791,10.773,52.6573,0.4433,-0.601,0.0477,-162.7176
17:05:34:475,1.577,1.971,10.5221,52.1677,0.4423,-0.3891,-0.1045,-162.7176
17:05:34:498,0.3131,2.7611,9.7961,51.6736,0.5349,0.0205,-0.2194,-162.7176
17:05:34:516,-0.0341,2.8091,9.5021,51.248,0.4572,0.2908,-0.2056,-162.7176
17:05:34:536,0.7721,2.648,10.007,50.9497,0.0113,0.0386,-0.1726,-162.7176
17:05:34:555,1.9841,1.961,11.24,50.7061,-0.5368,-0.2742,-0.2087,-162.7176
17:05:34:575,2.589,1.022,12.318,50.5749,-0.9071,-0.3934,-0.378,-162.6238
17:05:34:598,2.1971,0.536,12.911,50.3728,-1.0497,-0.3147,-0.5684,-162.5182
17:05:34:616,1.2461,0.3191,12.758,50.3565,-0.839,0.0727,-0.6398,-162.3952
17:05:34:638,0.593,0.51,11.705,50.3783,-0.39,0.3068,-0.5334,-162.2542
17:05:34:655,0.657,0.867,10.038,50.3522,-0.0664,0.1057,-0.3769,-162.0999
17:05:34:675,1.2461,1.049,8.6501,50.3397,0.0155,-0.1349,-0.2822,-161.9378
17:05:34:697,1.577,1.202,8.2211,50.1413,-0.1228,-0.1987,-0.3142,-161.7706
17:05:34:715,1.397,1.14,8.659,50.0427,-0.2867,-0.1349,-0.4738,-161.5965
17:05:34:737,0.8441,1.2401,8.697,49.6847,-0.2591,-0.1156,-0.6387,-161.4098
17:05:34:755,0.336,1.386,8.2571,49.3235,-0.0749,-0.0539,-0.7228,-161.2059
17:05:34:775,-0.0821,1.482,7.785,49.0419,0.106,0.0162,-0.7271,-160.9826
17:05:34:798,-0.23,1.712,7.412,48.6059,0.2199,0.0588,-0.6526,-160.7408
17:05:34:815,-0.168,1.875,7.227,48.3962,0.289,0.0557,-0.56,-160.4838
17:05:34:835,-0.096,1.968,7.275,48.5,0.2731,-0.0316,-0.5206,-160.2148
17:05:34:856,0.0521,2.0141,7.761,48.5704,0.1826,-0.1273,-0.4918,-159.9353
17:05:34:875,0.186,2.174,8.456,48.597,0.1188,-0.1944,-0.4429,-159.647
17:05:34:897,0.119,2.222,9.083,48.4042,0.1561,-0.1668,-0.4164,-159.3518
17:05:34:927,-0.185,2.342,9.576,47.9717,0.2794,-0.1147,-0.3726,-159.0507
17:05:34:935,-0.278,2.682,10.151,47.4075,0.3923,-0.1848,-0.2556,-158.7458
17:05:34:954,-0.17,2.979,10.6301,46.9561,0.4742,-0.3105,-0.1194,-158.4416
17:05:34:975,-0.1151,3.2351,11.013,46.7452,0.5562,-0.2903,-0.0439,-158.1423
17:05:34:997,0.171,3.144,11.489,46.7003,0.6115,-0.1529,0.0253,-157.8503
17:05:35:015,0.461,2.9021,12.081,46.6093,0.5807,-0.1199,0.0531,-157.5678
17:05:35:035,0.504,2.648,12.717,46.5774,0.5104,-0.1199,0.0253,-157.295
17:05:35:056,0.341,2.715,12.885,46.3713,0.4487,-0.1156,0.0307,-157.031
17:05:35:075,-0.062,3.177,12.6431,46.1075,0.4136,0.0162,0.1147,-156.7762
17:05:35:097,-0.383,3.0581,12.377,45.9302,0.4199,0.3802,0.2382,-156.5339
17:05:35:115,-0.414,2.414,12.057,45.6763,0.4284,0.5452,0.3052,-156.3079
17:05:35:134,-0.551,1.856,11.156,45.3972,0.5083,0.3642,0.2903,-156.0994
17:05:35:155,-0.848,1.722,9.978,45.201,0.5562,0.0705,0.2413,-155.9066
17:05:35:175,-1.125,1.772,8.975,45.0859,0.5338,0.0014,0.2743,-155.728
17:05:35:197,-1.248,1.9661,8.13,44.9468,0.4956,0.1716,0.3755,-155.5649
17:05:35:216,-1.0181,2.0951,7.673,44.7639,0.3316,0.2856,0.4819,-155.421
17:05:35:236,-0.5051,2.016,7.745,44.6127,0.0177,0.1929,0.5244,-155.2993
17:05:35:254,0.1691,1.769,8.3479,44.3978,-0.2665,0.0631,0.5276,-155.201
17:05:35:275,0.638,1.587,8.769,44.243,-0.3548,0.0344,0.4829,-155.201
17:05:35:297,0.5111,1.619,8.3741,44.2754,-0.1239,0.2632,0.4669,-155.201
17:05:35:315,0.4991,1.856,7.586,44.3179,0.1475,0.4484,0.5351,-155.201
17:05:35:335,0.609,1.9751,7.0811,44.3337,0.2326,0.4026,0.5873,-155.201
17:05:35:355,0.581,2.162,7.3181,44.4491,0.1689,0.2196,0.5489,-155.201
17:05:35:377,0.545,2.469,7.6751,44.6239,0.1049,0.0162,0.4883,-155.201
17:05:35:398,0.5111,2.6861,7.737,44.8489,0.1635,-0.0263,0.4404,-155.201
17:05:35:415,0.497,2.957,7.67,44.8462,0.205,-0.0114,0.4,-155.201
17:05:35:435,0.5621,3.2081,7.85,44.657,0.1453,0.0323,0.3596,-155.201
17:05:35:456,0.5689,3.3161,8.235,44.4745,0.0613,0.0972,0.2978,-155.201
17:05:35:475,0.53,3.398,8.733,44.3373,-0.0036,0.1354,0.2233,-155.2941
17:05:35:497,0.332,3.489,9.231,44.3613,0.0038,0.1642,0.1477,-155.3923
17:05:35:515,0.372,3.371,9.749,44.4083,0.0443,0.128,0.0881,-155.4924
17:05:35:535,0.621,3.371,10.0001,44.4952,0.0847,-0.004,0.0679,-155.5927
17:05:35:554,0.878,3.5321,9.837,44.4176,0.122,-0.0529,0.0742,-155.6924
17:05:35:576,0.8921,3.714,9.744,44.4089,0.1071,0.0663,0.0594,-155.7919
17:05:35:597,0.547,3.584,9.7151,44.3747,-0.0121,0.1471,-0.0609,-155.8897
17:05:35:615,0.533,3.299,10.139,44.4074,-0.2685,0.0972,-0.1748,-155.9813
17:05:35:635,0.9971,2.979,10.6031,44.4291,-0.5283,0.0099,-0.1842,-155.9813
17:05:35:655,1.4141,2.8211,11.073,44.5278,-0.6953,0.0993,-0.1173,-155.9813
17:05:35:675,1.5551,2.0419,11.5301,44.5328,-0.6879,0.3548,-0.1013,-155.9813
17:05:35:698,1.7351,1.161,11.9351,44.3553,-0.608,0.3238,-0.131,-155.9813
17:05:35:715,1.79,0.965,12.083,44.4056,-0.5112,-0.0826,-0.1449,-155.9813
17:05:35:735,1.785,1.164,11.4371,44.4784,-0.3134,-0.4488,-0.1523,-155.9813
17:05:35:755,1.4141,1.628,10.1891,44.6657,-0.0143,-0.4818,-0.1683,-155.9813
17:05:35:776,1.416,1.422,8.832,45.0465,0.1858,-0.3435,-0.197,-155.9813
17:05:35:797,1.625,1.379,7.826,45.1434,0.139,-0.2998,-0.246,-155.9813
17:05:35:815,1.598,1.4891,7.469,44.9538,-0.0962,-0.2732,-0.3589,-155.9813
17:05:35:835,1.2131,1.664,7.658,44.9789,-0.3134,-0.1381,-0.4866,-155.9813
17:05:35:854,0.6191,1.949,7.713,44.8701,-0.325,0.0908,-0.5812,-155.9813
17:05:35:875,0.159,2.105,7.254,44.7506,-0.1037,0.3121,-0.5929,-155.9813
17:05:35:897,-0.05,2.3561,6.6101,44.9485,0.1507,0.3525,-0.5228,-155.9813
17:05:35:915,0.3131,2.5841,6.1211,44.9022,0.2188,0.1855,-0.4334,-155.9813
17:05:35:935,0.624,2.84,6.186,44.8888,0.1028,0.0333,-0.4238,-155.9813
17:05:35:956,0.552,3.0311,6.641,44.8407,-0.0525,0.0844,-0.495,-155.8892
17:05:35:975,0.0251,3.149,7.134,44.7868,-0.11,0.2652,-0.5675,-155.7814
17:05:35:997,-0.237,3.2351,7.8,44.7552,-0.1345,0.3036,-0.5653,-155.6564
17:05:36:015,-0.2831,3.132,8.168,44.7482,-0.1495,0.1567,-0.5163,-155.5154
17:05:36:035,-0.56,3.386,8.592,44.9276,-0.2281,0.0418,-0.4408,-155.361
17:05:36:056,-0.7661,3.51,9.248,44.9196,-0.3421,0.1387,-0.296,-155.1972
17:05:36:076,-0.896,3.489,10.0451,44.9226,-0.4229,0.293,-0.1343,-155.03
17:05:36:096,-0.615,3.345,11.094,45.0248,-0.4889,0.2003,0.0201,-154.8659
17:05:36:116,-0.158,3.0461,11.9561,44.8697,-0.5144,-0.1114,0.0594,-154.7097
17:05:36:135,-0.266,3.005,13.043,44.9258,-0.5783,-0.4392,-0.0385,-154.5617
17:05:36:154,-0.161,2.873,13.524,44.7554,-0.6623,-0.601,-0.0917,-154.4183
17:05:36:174,0.576,1.7171,13.503,44.5609,-0.6251,-0.3913,-0.0428,-154.2785
17:05:36:197,1.1291,0.395,13.661,44.5003,-0.7272,-0.3817,-0.1184,-154.1428
17:05:36:215,0.605,-0.126,14.1371,44.4833,-0.839,-0.4711,-0.3174,-154.0075
17:05:36:235,-0.575,-0.2021,13.524,44.8159,-0.5889,-0.3604,-0.4312,-153.8659
17:05:36:256,-1.485,-0.212,12.006,45.3572,-0.0972,-0.0752,-0.3503,-153.7148
17:05:36:275,-1.746,-0.4871,10.455,45.9334,0.2975,0.1132,-0.1204,-153.5575
17:05:36:298,-1.4081,-0.1091,8.5391,46.1026,0.4987,-0.0422,0.3275,-153.2548
17:05:36:316,-0.8411,0.086,7.9481,45.825,0.4168,-0.1891,0.4883,-153.124
17:05:36:335,-0.122,0.1631,7.938,45.6129,0.205,-0.254,0.5787,-153.0144
17:05:36:356,0.2261,0.453,8.041,45.5633,0.0422,-0.1625,0.6064,-153.0144
17:05:36:376,0.047,0.6971,7.6301,45.8191,0.0667,0.0142,0.5756,-153.0144
17:05:36:398,-0.23,0.9701,7.127,46.2049,0.1358,0.1259,0.517,-153.0144
17:05:36:416,-0.4451,1.281,6.696,46.3244,0.1316,0.1121,0.4734,-153.0144
17:05:36:435,-0.489,1.5641,6.528,46.2393,0.0411,0.0483,0.4489,-153.0144
17:05:36:455,-0.2539,1.7501,6.588,46.3185,-0.1154,-0.0348,0.4308,-153.0144
17:05:36:476,-0.05,2.0089,6.995,46.6022,-0.3154,-0.0646,0.402,-153.0144
17:05:36:497,0.1211,2.279,8.1491,46.8728,-0.5389,-0.0635,0.334,-153.0144
17:05:36:516,0.588,2.057,9.095,47.3495,-0.6123,-0.0891,0.2691,-153.0144
17:05:36:536,0.564,2.411,9.7751,47.7289,-0.5123,-0.1796,0.1838,-153.0144
17:05:36:556,0.9251,2.004,10.6301,47.8726,-0.3303,-0.2562,0.1115,-153.0144
17:05:36:576,0.9731,1.6571,11.154,48.1165,-0.1048,-0.2945,0.0093,-153.0144
17:05:36:597,0.8921,1.3601,11.681,48.2531,0.1071,-0.2476,-0.0587,-153.0144
17:05:36:615,1.043,1.269,12.1601,48.3858,0.2102,-0.171,-0.0257,-153.0144
17:05:36:638,1.2491,1.118,12.107,48.5382,0.3146,0.078,0.07,-153.0144
17:05:36:657,1.455,1.262,11.901,48.7885,0.3656,0.4462,0.2168,-153.0144
17:05:36:676,1.9601,1.5641,11.3051,49.0974,0.3827,0.7304,0.3935,-153.0144
17:05:36:696,2.4791,1.647,11.2451,49.3756,0.2113,0.7367,0.4169,-153.0144
17:05:36:715,3.092,0.8051,11.724,49.6982,-0.1005,0.342,0.1712,-153.1166
17:05:36:738,2.738,-0.372,12.045,49.977,-0.5251,-0.2998,-0.3312,-153.2186
17:05:36:755,1.1651,-1.3901,12.957,50.4107,-0.9838,-0.3999,-0.7824,-153.2186
17:05:36:778,-0.6611,-1.907,14.247,51.0554,-1.0721,0.2409,-0.81,-153.2186
17:05:36:797,-1.094,-1.7321,13.488,51.8067,-0.5698,0.7315,-0.4141,-153.2186
17:05:36:814,0.095,-1.4021,11.025,52.5709,0.2113,0.7421,0.1062,-153.2186
17:05:36:835,1.479,-0.861,8.5751,53.096,0.6413,0.4217,0.3063,-153.2186
17:05:36:857,2.276,-0.384,6.9521,53.3101,0.5721,0.1323,0.0796,-153.2186
17:05:36:875,1.68,0.17,6.0641,53.4789,0.2326,0.1536,-0.4249,-153.2186
17:05:36:898,0.396,0.278,5.958,53.7933,-0.1792,0.4569,-0.9069,-153.2186
17:05:36:915,-0.8171,0.4721,6.452,54.0613,-0.474,0.7452,-1.14,-153.2186
17:05:36:941,-1.149,0.6131,7.029,54.2849,-0.5431,0.7931,-1.0687,-153.2186
17:05:36:955,-0.864,0.929,7.352,54.4817,-0.4016,0.6144,-0.8515,-153.2186
17:05:36:976,-0.4601,1.3721,7.091,54.534,-0.1111,0.4058,-0.6515,-153.104
17:05:36:996,-0.56,2.0351,6.519,54.7755,0.1561,0.2611,-0.5387,-152.9717
17:05:37:015,-0.944,2.622,6.3941,55.1468,0.271,0.1621,-0.4918,-152.8243
17:05:37:035,-0.809,2.6651,6.545,55.7563,0.2178,-0.0561,-0.378,-152.6636
17:05:37:055,-0.671,2.579,7.371,56.4172,0.0304,-0.3338,-0.2684,-152.4946
17:05:37:075,-0.41,2.066,8.561,57.0648,-0.2175,-0.584,-0.2503,-152.3218
17:05:37:097,0.2051,1.377,9.722,57.6275,-0.4569,-0.7904,-0.213,-152.1472
17:05:37:115,0.116,1.3481,11.264,58.1744,-0.7517,-0.8873,-0.2067,-151.9733
17:05:37:135,-0.515,1.382,12.71,58.7674,-0.8624,-0.5977,-0.18,-151.8009
17:05:37:155,-1.602,1.248,12.95,59.2086,-0.5761,0.0279,-0.0513,-151.6314
17:05:37:176,-2.1911,1.075,12.7751,59.7873,-0.2314,0.3961,0.1679,-151.4686
17:05:37:197,-1.973,0.699,12.837,60.4331,-0.1259,0.2259,0.3679,-151.3188
17:05:37:215,-1.592,0.7661,12.7991,60.9622,-0.093,-0.105,0.4851,-151.1873
17:05:37:235,-1.0781,1.283,12.854,61.8036,-0.1174,-0.2221,0.6043,-151.0774
17:05:37:256,-0.189,1.434,12.6,62.3578,-0.1706,-0.1444,0.7139,-151.0774
17:05:37:275,1.119,0.5171,12.5501,62.6438,-0.39,-0.121,0.6425,-151.0774
17:05:37:296,0.9521,-0.59,13.017,62.844,-0.7081,-0.1423,0.2509,-151.0774
17:05:37:315,-0.8261,-1.05,12.911,62.9896,-0.707,0.0205,-0.1768,-151.0774
17:05:37:336,-2.093,-1.5311,11.532,63.3847,-0.2644,0.2036,-0.2354,-151.0774
17:05:37:355,-2.45,-1.625,9.8561,63.7814,0.2465,0.177,0.004,-151.0774
17:05:37:375,-1.901,-1.668,8.5871,64.1534,0.4922,-0.1232,0.3372,-151.0774
17:05:37:397,-0.953,-1.526,7.9151,64.3964,0.4976,-0.4264,0.6223,-151.0774
17:05:37:415,-0.113,-1.4141,7.9031,64.6011,0.3732,-0.4956,0.7575,-151.0774
17:05:37:435,0.573,-1.263,8.025,64.9066,0.2369,-0.3956,0.7851,-151.0774
17:05:37:456,0.753,-0.954,8.3861,65.1391,0.1188,-0.2434,0.7617,-151.0774
17:05:37:474,0.4751,-0.621,8.673,65.5334,0.0751,-0.1412,0.6416,-151.0774
17:05:37:497,-0.2561,-0.272,8.396,65.8691,0.2326,-0.1232,0.5521,-151.0774
17:05:37:515,-0.5651,0.1511,7.785,66.0662,0.4572,-0.2562,0.5819,-151.1854
17:05:37:535,-0.5081,0.498,7.1411,65.9948,0.5901,-0.4733,0.6618,-151.3097
17:05:37:555,-0.17,0.852,6.902,65.9196,0.5668,-0.6298,0.7298,-151.4527
17:05:37:575,0.255,1.097,7.1411,65.9169,0.4476,-0.6307,0.7617,-151.6162
17:05:37:597,0.602,1.353,7.452,66.0521,0.3178,-0.5339,0.7404,-151.8008
17:05:37:615,0.9521,1.4441,7.9361,66.2035,0.1815,-0.3988,0.683,-152.0052
17:05:37:635,1.2851,1.434,8.757,66.118,0.0337,-0.2955,0.5745,-152.2264
17:05:37:655,1.4861,1.394,9.6221,65.9554,-0.0642,-0.2285,0.4351,-152.4599
17:05:37:675,1.404,1.3361,10.134,65.927,-0.0685,-0.1668,0.2734,-152.7003
17:05:37:697,1.3781,1.259,10.563,66.0572,-0.0696,-0.0912,0.1488,-152.9419
17:05:37:715,1.692,1.046,11.1401,66.3225,-0.1409,0.0099,0.0733,-153.1808
17:05:37:735,2.211,0.9101,11.772,66.7657,-0.1984,0.1238,-0.0034,-153.4144
17:05:37:755,2.5421,0.68,12.203,67.091,-0.2069,0.1983,-0.1481,-153.6399
17:05:37:775,2.2931,0.7211,12.1211,67.3129,-0.1537,0.2131,-0.362,-153.8517
17:05:37:797,1.9931,0.6251,11.8601,67.5073,-0.1526,0.1866,-0.5323,-154.0434
17:05:37:815,1.706,0.498,11.5391,67.7629,-0.2644,0.128,-0.6867,-154.2098
17:05:37:835,1.407,0.002,11.76,68.0784,-0.5006,0.1174,-0.8282,-154.3464
17:05:37:857,0.636,-0.564,12.375,68.3055,-0.6783,0.2546,-0.9463,-154.4494
17:05:37:885,-0.4001,-1.424,12.935,68.4275,-0.3006,0.4654,-0.6962,-154.4494
17:05:37:900,0.408,-1.6871,12.3731,68.3373,0.1294,0.1727,-0.3928,-154.4494
17:05:37:920,1.574,-1.388,11.235,68.1534,0.4763,-0.2625,-0.1662,-154.4494
17:05:37:940,2.652,-0.945,9.8351,68.1099,0.602,-0.4946,-0.1343,-154.4494
17:05:37:960,2.771,-0.416,8.7671,68.0138,0.5349,-0.3381,-0.3142,-154.4494
17:05:37:980,1.874,-0.15,8.0801,67.9264,0.3582,0.012,-0.6174,-154.4494
17:05:37:999,0.609,0.1961,7.802,67.9182,0.2017,0.276,-0.843,-154.4494
17:05:38:019,-0.2561,0.4721,7.646,67.8223,0.2135,0.3377,-0.8504,-154.4494
17:05:38:039,-0.5561,0.656,7.043,67.8017,0.4316,0.1664,-0.6993,-154.3467
17:05:38:059,-0.431,0.905,6.138,67.6355,0.7116,-0.1349,-0.4833,-154.224
17:05:38:078,-0.0071,1.197,5.25,67.4908,0.8764,-0.4499,-0.2822,-154.0887
17:05:38:098,0.66,1.4891,4.881,67.3109,0.8169,-0.6776,-0.1939,-153.9476
17:05:38:119,1.079,1.8821,4.802,67.1445,0.6083,-0.6946,-0.2248,-153.8034
17:05:38:138,0.9971,2.052,5.717,67.1612,0.289,-0.4722,-0.3982,-153.6545
17:05:38:158,0.48,2.109,7.364,66.9767,-0.1057,-0.2977,-0.6047,-153.4946
17:05:38:178,-0.3881,2.0141,9.3221,66.9376,-0.3453,-0.1699,-0.7483,-153.3173
17:05:38:199,-1.006,2.076,10.584,66.8468,-0.3548,-0.1881,-0.743,-153.1186
17:05:38:218,-1.2671,2.232,11.3411,66.8017,-0.2463,-0.1668,-0.5727,-152.9008
17:05:38:237,-1.154,2.447,11.786,66.7152,-0.1515,-0.0689,-0.2971,-152.6715
17:05:38:257,-0.776,2.591,12.545,66.6976,-0.0718,0.0982,-0.0407,-152.4405
17:05:38:276,-0.7811,2.531,13.014,66.5127,0.04,0.2376,0.0648,-152.216
17:05:38:297,-0.876,2.406,13.113,66.514,0.1783,0.3079,0.1445,-152.0009
17:05:38:316,-0.683,2.222,13.1561,66.7116,0.1848,0.2919,0.2498,-151.798
17:05:38:337,-0.0221,1.6571,13.7471,66.7818,-0.0121,0.2897,0.3585,-151.6107
17:05:38:356,0.6761,0.809,14.901,66.8627,-0.3516,0.2472,0.3924,-151.442
17:05:38:375,0.3131,0.0191,15.638,66.9605,-0.4474,0.3249,0.3021,-151.2917
17:05:38:399,-0.8291,-0.428,14.702,67.0041,-0.0377,0.4228,0.2137,-151.1559
17:05:38:417,-1.353,-0.416,12.26,66.9147,0.587,0.3909,0.3031,-151.0318
17:05:38:436,-1.109,-0.1691,9.825,66.7059,0.9765,0.278,0.5435,-150.9228
17:05:38:455,-0.5081,0.2321,8.3291,66.2694,1.0297,0.1089,0.715,-150.9228
17:05:38:475,-0.0191,0.5321,7.5071,65.8665,0.9052,-0.0422,0.7597,-150.9228
17:05:38:502,0.233,0.716,7.079,65.5395,0.7541,-0.0529,0.7586,-150.9228
17:05:38:517,0.36,0.8981,7.172,65.4279,0.6115,0.0014,0.7532,-150.9228
17:05:38:536,0.7001,1.113,7.311,65.3536,0.571,-0.0114,0.7671,-150.9228
17:05:38:555,0.8801,1.259,6.7961,65.0341,0.6615,-0.0774,0.7521,-150.9228
17:05:38:576,0.954,1.382,6.303,64.7534,0.7168,-0.121,0.682,-150.9228
17:05:38:597,1.0039,1.595,6.404,64.5635,0.6051,-0.1668,0.6277,-151.0166
17:05:38:618,1.028,1.8131,6.662,64.2496,0.4848,-0.1646,0.5713,-151.1298
17:05:38:637,0.9401,2.112,6.6461,64.0563,0.454,-0.1199,0.5233,-151.2604
17:05:38:655,0.866,2.457,6.701,63.9568,0.3977,-0.0465,0.4894,-151.4063
17:05:38:676,0.576,2.754,7.0001,63.7197,0.2998,0.0822,0.4361,-151.5656
17:05:38:697,0.638,2.9501,7.713,63.5573,0.1518,0.1206,0.4287,-151.7364
17:05:38:716,1.083,2.993,8.6021,63.4326,0.0496,0.0269,0.4467,-151.9181
17:05:38:737,1.5671,2.9471,9.6311,63.4121,-0.0047,-0.0945,0.3872,-152.1105
17:05:38:755,1.895,3.0101,10.785,63.3361,0.0198,-0.1082,0.3052,-152.3108
17:05:38:775,2.103,2.9591,11.379,63.2848,0.1986,-0.0305,0.1966,-152.5156
17:05:38:796,2.364,3.0671,11.4371,63.0098,0.4179,0.0557,0.1041,-152.7211
17:05:38:816,2.867,2.888,11.087,62.6679,0.5136,0.1493,0.0679,-152.9247
17:05:38:835,2.709,3.206,10.8671,62.3314,0.52,0.3068,-0.0151,-153.125
17:05:38:856,2.139,3.5681,10.5221,62.0224,0.521,0.426,-0.1375,-153.3185
17:05:38:876,1.79,3.7541,10.227,61.9509,0.4891,0.3728,-0.2535,-153.5007
17:05:38:897,2.12,3.668,9.7871,61.9713,0.2922,0.1567,-0.3194,-153.6677
17:05:38:914,2.7761,3.086,9.816,62.0498,-0.026,0.062,-0.3737,-153.8173
17:05:38:946,3.018,1.9391,10.433,61.9261,-0.44,0.0014,-0.543,-153.9472
17:05:38:955,2.408,1.2311,11.733,61.6752,-0.7869,-0.0177,-0.7249,-154.0512
17:05:38:974,1.5671,0.936,12.509,61.498,-0.7836,-0.1028,-0.7888,-154.0512
17:05:38:997,1.38,1.0541,12.179,61.3775,-0.4995,-0.304,-0.6706,-154.0512
17:05:39:017,1.7831,1.35,10.893,61.5278,-0.1569,-0.4584,-0.4759,-154.0512
17:05:39:035,2.07,1.65,9.4211,61.8704,-0.0121,-0.4423,-0.4121,-154.0512
17:05:39:054,2.0171,1.808,8.3891,61.7749,-0.0803,-0.2625,-0.4929,-154.0512
17:05:39:076,1.3901,1.808,7.701,61.6695,-0.1526,0.0418,-0.6344,-154.0512
17:05:39:096,0.547,2.0231,7.184,61.4791,-0.1537,0.2685,-0.7345,-154.0512
17:05:39:116,-0.146,2.39,6.219,61.5166,0.0368,0.3622,-0.7249,-154.0512
17:05:39:135,-0.2711,2.799,5.19,61.6833,0.2338,0.2493,-0.6366,-153.9437
17:05:39:155,0.083,3.122,4.613,61.6961,0.2571,0.0205,-0.5589,-153.8163
17:05:39:175,0.552,3.35,4.536,61.7306,0.1379,-0.1178,-0.5675,-153.6719
17:05:39:196,0.602,3.4601,5.159,61.5296,-0.0824,-0.0934,-0.6568,-153.51
17:05:39:215,0.3581,3.5561,6.212,61.4769,-0.3123,-0.0444,-0.7441,-153.3283
17:05:39:235,0.032,3.429,7.347,61.5851,-0.425,-0.0412,-0.7622,-153.1251
17:05:39:255,0.071,3.2201,8.132,61.6781,-0.4293,-0.104,-0.7143,-152.9012
17:05:39:275,-0.101,3.2231,8.762,61.8991,-0.4133,-0.1093,-0.6164,-152.6597
17:05:39:297,-0.264,3.2441,9.935,61.9554,-0.4697,0.0099,-0.4781,-152.4049
17:05:39:315,-0.5441,3.1871,10.941,62.045,-0.4389,0.1451,-0.3396,-152.1427
17:05:39:335,-0.797,2.94,11.894,62.2221,-0.3666,0.1557,-0.2141,-151.8782
17:05:39:356,-0.888,2.801,12.318,62.5573,-0.3175,0.0195,-0.1141,-151.6157
17:05:39:375,-0.941,2.756,12.564,62.7861,-0.3718,-0.0327,-0.0205,-151.3585
17:05:39:396,-0.711,2.574,13.328,62.7968,-0.6837,0.011,0.0796,-151.1103
17:05:39:415,0.15,1.571,14.492,62.6281,-1.0923,0.1206,0.1605,-150.8752
17:05:39:435,0.99,0.141,15.461,62.5722,-1.3797,0.1866,0.1541,-150.6563
17:05:39:455,0.641,-0.42,15.464,62.5863,-1.302,0.2611,0.0403,-150.4527
17:05:39:476,-0.759,-0.08,13.9121,62.736,-0.7369,0.4601,-0.0246,-150.2595
17:05:39:497,-1.961,0.266,11.4101,62.8654,0.0932,0.6303,0.0392,-150.0734
17:05:39:515,-2.181,0.4721,9.2651,63.0303,0.686,0.4601,0.2541,-149.8947
17:05:39:535,-1.583,0.5081,7.953,63.07,0.8712,-0.0285,0.4777,-149.729
17:05:39:555,-0.704,0.5321,7.622,62.9988,0.7329,-0.4956,0.5765,-149.5823
17:05:39:575,0.281,0.546,8.156,62.771,0.4668,-0.5797,0.6383,-149.4581
17:05:39:597,0.882,0.656,8.8721,62.277,0.2731,-0.4264,0.6628,-149.3591
17:05:39:615,1.23,0.84,9.327,61.9931,0.2326,-0.2562,0.6181,-149.3591
17:05:39:635,1.1051,1.094,9.021,61.8319,0.3943,-0.1444,0.4894,-149.3591
17:05:39:655,0.6911,1.439,7.991,61.741,0.6285,-0.1295,0.3468,-149.3591
17:05:39:675,0.356,1.796,7.0931,61.7601,0.7307,-0.2135,0.2435,-149.3591
17:05:39:699,0.111,2.184,6.488,61.654,0.6797,-0.2349,0.1849,-149.3591
17:05:39:715,-0.1271,2.564,6.2981,61.5126,0.5488,-0.104,0.1519,-149.3591
17:05:39:736,-0.381,2.787,6.545,61.4307,0.3689,0.0727,0.1072,-149.3591
17:05:39:755,-0.3641,3.003,7.055,61.2395,0.1858,0.1354,0.0967,-149.3591
17:05:39:775,-0.0341,3.098,7.776,61.2176,0.0187,0.0939,0.0839,-149.3591
17:05:39:797,0.174,3.0671,8.609,61.1713,-0.094,0.093,0.019,-149.3591
17:05:39:815,0.063,3.024,9.576,61.1669,-0.1111,0.1525,-0.0609,-149.3591
17:05:39:835,0.0251,2.9471,10.448,61.2526,-0.0334,0.1259,-0.0991,-149.3591
17:05:39:856,0.315,2.837,10.9001,61.1345,0.1114,-0.039,-0.0928,-149.3591
17:05:39:875,0.8081,2.9471,10.8761,61.0847,0.2412,-0.1785,-0.0268,-149.3591
17:05:39:897,1.208,3.074,10.527,61.0171,0.3231,-0.1008,0.0019,-149.3591
17:05:39:915,0.935,3.326,10.3451,60.9745,0.2986,0.1078,-0.0641,-149.3591
17:05:39:935,0.863,3.192,10.536,60.8276,0.122,0.1365,-0.1471,-149.3591
17:05:39:955,1.553,2.7221,11.0651,60.5116,-0.1739,-0.072,-0.2269,-149.3591
17:05:39:976,2.568,1.535,11.7761,60.4075,-0.4899,-0.2126,-0.3185,-149.3591
17:05:39:997,2.573,0.594,12.557,60.4964,-0.755,-0.1518,-0.4738,-149.3591
17:05:40:016,1.265,0.204,13.146,60.4969,-0.7326,0.2472,-0.5589,-149.3591
17:05:40:035,0.2981,0.158,12.71,60.7418,-0.209,0.558,-0.4642,-149.3591
17:05:40:056,0.4871,0.587,11.1011,60.6635,0.3561,0.0822,-0.2641,-149.2668
17:05:40:075,2.079,1.128,9.2291,60.4566,0.587,-0.6095,-0.0544,-149.1681
17:05:40:097,3.686,1.257,8.216,60.1786,0.3986,-0.7351,-0.0087,-149.0698
17:05:40:115,3.959,1.097,8.5871,59.9511,-0.076,-0.4499,-0.3057,-148.9716
17:05:40:136,2.903,0.8741,9.497,59.9783,-0.4942,-0.137,-0.7388,-148.8624
17:05:40:156,1.404,0.915,9.7151,60.0398,-0.5772,0.0099,-1.0293,-148.7283
17:05:40:175,0.468,1.1471,8.918,60.1321,-0.359,0.0142,-1.0581,-148.5616
17:05:40:197,0.102,1.5011,7.5341,60.1172,-0.0355,-0.0412,-0.9047,-148.3636
17:05:40:216,0.116,1.959,6.059,60.0291,0.1891,-0.1529,-0.7271,-148.1405
17:05:40:234,0.305,2.445,5.094,59.9448,0.223,-0.2498,-0.6281,-147.8983
17:05:40:255,0.5089,2.7221,4.97,59.654,0.0698,-0.2625,-0.6313,-147.6405
17:05:40:275,0.65,2.7491,5.472,59.1296,-0.1877,-0.2679,-0.6941,-147.3673
17:05:40:298,0.53,2.682,6.516,58.5271,-0.4218,-0.2508,-0.7749,-147.0774
17:05:40:315,0.497,2.5121,7.488,58.1707,-0.5229,-0.286,-0.7952,-146.7693
17:05:40:336,0.4151,2.414,8.1709,58.3785,-0.4973,-0.2955,-0.7633,-146.4437
17:05:40:355,0.042,2.4971,8.621,58.8826,-0.4261,-0.2413,-0.7314,-146.1021
17:05:40:376,-0.117,2.607,9.0521,59.3108,-0.392,-0.1477,-0.6429,-145.7464
17:05:40:397,-0.51,2.54,11.4941,59.5486,-0.4304,-0.0135,-0.4918,-145.0073
17:05:40:415,-0.8051,2.4161,12.5741,59.5298,-0.3686,-0.0231,-0.4366,-144.6296
17:05:40:437,-0.9551,2.174,13.103,59.3308,-0.2463,-0.0348,-0.3503,-144.2495
17:05:40:456,-0.759,2.021,13.79,59.192,-0.2366,-0.0657,-0.2354,-143.8698
17:05:40:476,-0.417,2.234,14.6111,58.8708,-0.2804,-0.0327,-0.08,-143.4949
17:05:40:497,0.2051,2.184,15.059,58.4447,-0.2622,0.1099,0.085,-143.1304
17:05:40:515,1.28,1.425,15.188,58.3326,-0.2261,0.1599,0.1935,-142.7814
17:05:40:535,1.625,0.6851,15.215,58.2388,-0.2238,-0.0316,0.085,-142.4498
17:05:40:556,0.554,0.6371,13.9841,58.0226,0.0953,-0.0188,-0.0971,-142.1301
17:05:40:576,-0.4961,0.68,11.6141,57.8694,0.7785,0.377,-0.0939,-141.8158
17:05:40:596,-0.996,0.7901,8.901,57.6248,1.4352,0.5548,0.0562,-141.5059
17:05:40:616,-0.932,1.2161,6.804,57.3004,1.7267,0.3099,0.2424,-141.2037
17:05:40:635,-0.5561,1.652,5.582,57.0695,1.5597,-0.1679,0.2936,-140.9137
17:05:40:655,0.3221,1.7651,5.46,56.5466,1.0819,-0.4733,0.252,-140.6373
17:05:40:677,1.088,1.5851,6.3971,55.8435,0.5232,-0.4306,0.202,-140.3748
17:05:40:698,1.704,1.1921,7.967,55.3358,0.0016,-0.37,0.0859,-140.1255
17:05:40:715,1.9121,0.824,9.342,54.9502,-0.3208,-0.4212,-0.0789,-139.8859
17:05:40:738,1.428,0.6971,10.0691,54.7149,-0.3516,-0.4499,-0.2428,-139.6501
17:05:40:755,0.789,0.8051,10.127,54.7064,-0.1706,-0.3541,-0.3194,-139.4125
17:05:40:775,0.633,1.0661,9.564,54.4003,0.1134,-0.1924,-0.2269,-139.1711
17:05:40:797,0.803,1.511,8.741,54.0904,0.3539,-0.037,-0.0821,-138.9297
17:05:40:815,0.861,2.0261,8.022,53.877,0.4837,0.0737,-0.0459,-138.6922
17:05:40:836,0.672,2.409,7.68,53.9478,0.5093,0.1174,-0.0982,-138.4591
17:05:40:855,0.468,2.703,7.61,53.9584,0.4529,0.0418,-0.1885,-138.2278
17:05:40:875,0.552,2.856,7.7951,53.7438,0.3625,-0.1232,-0.2758,-137.9951
17:05:40:896,0.6,3.206,7.821,53.5487,0.3752,-0.1167,-0.4047,-137.7565
17:05:40:915,0.9731,2.9951,8.037,53.3527,0.1635,-0.1466,-0.3376,-137.5109
17:05:40:935,0.59,3.438,8.6111,53.0735,0.1038,0.0578,-0.413,-137.2592
17:05:40:956,0.2891,3.75,9.009,52.946,0.1358,0.0918,-0.4696,-136.999
17:05:40:977,0.698,3.584,9.2861,52.8634,0.1123,-0.1147,-0.4621,-136.729
17:05:40:997,1.3091,3.407,9.5861,52.6942,0.0645,-0.2274,-0.4716,-136.4498
17:05:41:015,1.7801,3.1871,10.182,52.4987,-0.043,-0.154,-0.5313,-136.161
17:05:41:035,1.773,3.1271,10.728,52.3669,-0.1068,0.0088,-0.6259,-135.8607
17:05:41:055,1.17,3.287,10.694,52.1138,0.0059,0.1419,-0.7186,-135.5458
17:05:41:075,0.983,3.491,10.302,51.8014,0.1433,0.0993,-0.7675,-135.2133
17:05:41:097,1.22,3.527,9.8321,51.8028,0.1592,-0.0412,-0.7866,-134.862
17:05:41:115,1.577,3.474,9.6221,52.0512,-0.01,-0.137,-0.8218,-134.4915
17:05:41:135,1.9841,2.981,10.017,52.0714,-0.3761,-0.1358,-0.8856,-134.1018
17:05:41:155,1.902,2.5001,11.3021,51.8972,-0.7591,0.0301,-0.9676,-133.6924
17:05:41:176,1.16,2.114,12.291,51.733,-0.7454,0.3483,-0.9974,-133.2629
17:05:41:196,0.7841,1.793,12.1601,51.4792,-0.2941,0.393,-0.9474,-132.8134
17:05:41:215,1.0039,1.935,11.073,51.3601,0.1997,-0.0667,-0.8324,-132.3452
17:05:41:235,2.199,2.145,9.665,51.3213,0.4987,-0.551,-0.6909,-131.8606
17:05:41:255,3.231,2.1911,8.42,51.0436,0.5306,-0.6181,-0.6238,-131.3639
17:05:41:275,3.186,2.3111,7.833,50.7144,0.3402,-0.4264,-0.7898,-130.8561
17:05:41:297,2.149,2.375,8.037,50.3243,0.0804,-0.22,-1.0772,-130.3313
17:05:41:315,1.3781,2.349,8.36,50.0269,-0.0462,-0.2285,-1.2442,-129.7816
17:05:41:335,1.127,2.442,8.1611,49.8762,0.0272,-0.4147,-1.2634,-129.2034
17:05:41:355,0.93,2.718,7.416,49.7967,0.221,-0.5935,-1.2294,-128.5968
17:05:41:375,1.148,2.981,6.7511,49.7909,0.355,-0.6819,-1.1815,-127.9632
17:05:41:397,1.122,3.309,6.126,49.6347,0.3806,-0.6585,-1.206,-127.304
17:05:41:417,0.722,3.5531,6.0371,49.3274,0.2507,-0.5573,-1.2954,-126.6185
17:05:41:435,0.456,3.678,6.789,48.9985,-0.0026,-0.5701,-1.3432,-125.9051
17:05:41:455,0.384,3.644,7.7351,48.8312,-0.2122,-0.6212,-1.3326,-125.1647
17:05:41:476,0.212,3.642,8.5061,48.7326,-0.2676,-0.568,-1.2794,-124.3998
17:05:41:497,0.2051,3.6941,9.0281,38.6784,-0.275,-0.4924,-1.1804,-123.6136
17:05:41:515,0.035,3.912,9.516,38.6299,-0.2728,-0.3839,-1.0495,-122.8107
17:05:41:536,-0.189,4.257,9.804,38.2407,-0.2144,-0.22,-0.8931,-121.9966
17:05:41:555,-0.216,4.592,9.6791,37.8651,-0.0323,-0.0667,-0.7175,-121.1771
17:05:41:576,-0.2321,4.856,9.4661,37.6245,0.1422,0.0238,-0.5738,-120.3576
17:05:41:597,-0.216,5.109,9.404,37.5318,0.2699,0.0993,-0.4653,-119.5421
17:05:41:615,-0.108,5.246,9.488,37.7755,0.3699,0.1291,-0.3876,-118.7337
17:05:41:635,0.456,5.076,9.318,38.0779,0.4136,0.0663,-0.3492,-117.9341
17:05:41:655,0.602,4.947,8.9321,37.8111,0.3604,0.0247,-0.3908,-117.1435
17:05:41:675,0.171,4.923,8.846,37.5387,0.1507,0.1259,-0.4898,-116.3601
17:05:41:697,0.006,5.019,9.258,37.3105,-0.158,0.2589,-0.4918,-115.5819
17:05:41:716,-0.2801,5.303,10.1891,37.1552,-0.5016,0.3548,-0.4047,-114.8115
17:05:41:735,-0.539,5.0261,10.5821,37.2717,-0.5878,0.5207,-0.3099,-114.0539
17:05:41:756,-0.177,4.046,10.1411,37.4865,-0.5283,0.4781,-0.2524,-113.3123
17:05:41:775,-0.041,3.12,9.495,37.4894,-0.54,0.261,-0.3333,-112.5874
17:05:41:797,-0.536,2.445,9.365,37.4184,-0.5741,0.21,-0.4375,-111.8757
17:05:41:816,-1.451,1.9631,10.065,37.1639,-0.5644,0.2546,-0.4386,-111.1742
17:05:41:836,-1.916,1.631,10.529,36.7764,-0.4005,0.2079,-0.3312,-110.4833
17:05:41:858,-1.8251,1.52,10.2851,36.5458,-0.1217,-0.07,-0.1279,-109.8058
17:05:41:875,-0.903,1.293,10.256,36.5533,-0.0397,-0.4946,0.0392,-109.1462
17:05:41:896,0.1661,1.14,10.4291,36.3707,-0.1196,-0.7074,0.1094,-108.5087
17:05:41:915,0.9371,1.0781,10.551,36.2565,-0.1792,-0.5957,0.1222,-107.8954
17:05:41:935,1.019,1.259,10.3781,35.9528,-0.176,-0.3073,0.0403,-107.3053
17:05:41:956,0.528,1.518,9.993,35.7134,-0.0718,0.0162,-0.0576,-106.7346
17:05:41:974,-0.0821,1.86,9.387,35.669,0.0815,0.1462,-0.1119,-106.1788
17:05:41:997,-0.398,2.346,8.573,35.5912,0.271,0.1302,-0.0704,-105.6353
17:05:42:015,-0.465,2.871,7.596,35.4579,0.4796,0.0269,-0.0077,-105.1041
17:05:42:035,-0.374,3.374,6.878,35.4004,0.587,-0.0487,0.0551,-104.5856
17:05:42:056,-0.2681,3.824,6.605,35.3165,0.5519,-0.088,0.0839,-104.081
17:05:42:075,-0.249,4.07,6.768,35.2531,0.4423,-0.1147,0.0583,-103.5909
17:05:42:096,-0.2951,4.2911,7.196,35.1446,0.2922,-0.1594,-0.0055,-103.1143
17:05:42:115,-0.299,4.3841,7.745,34.9652,0.1624,-0.1253,-0.0257,-102.6499
17:05:42:136,-0.194,4.43,8.384,34.6897,0.0869,-0.039,0.0115,-102.1978
17:05:42:155,-0.165,4.506,8.946,34.4036,0.1103,0.0375,0.036,-101.7594
17:05:42:175,-0.048,4.5521,9.215,34.2975,0.223,0.0238,0.0594,-101.3347
17:05:42:197,0.375,4.494,9.104,34.2023,0.3625,-0.0784,0.0776,-100.9234
17:05:42:215,0.684,4.4321,9.0761,34.2923,0.388,-0.2041,0.052,-100.5248
17:05:42:236,0.861,4.3391,9.183,34.2645,0.3029,-0.2498,-0.0322,-100.1371
17:05:42:256,0.657,4.2761,9.5591,34.1048,0.19,-0.1891,-0.1407,-99.7573
17:05:42:275,0.102,4.3481,9.938,34.0661,0.1433,-0.1125,-0.2524,-99.382
17:05:42:298,0.111,4.3939,9.923,33.899,0.1763,-0.2445,-0.2897,-99.0078
17:05:42:316,1.1891,4.109,9.662,33.8802,0.1188,-0.584,-0.294,-98.6333
17:05:42:335,3.0371,3.366,9.6311,33.939,-0.2175,-0.8511,-0.2971,-98.2593
17:05:42:356,3.9761,2.387,10.3451,33.6944,-0.7741,-0.7829,-0.4408,-97.8867
17:05:42:375,3.126,1.449,11.7191,36.1314,-1.1881,-0.2786,-0.7004,-97.5118
17:05:42:396,0.827,0.5051,11.714,36.0839,-0.7571,0.1557,-0.8133,-96.7276
17:05:42:416,1.548,0.4571,10.613,35.8602,-0.4654,-0.4935,-0.6133,-96.3166
17:05:42:436,2.235,0.651,9.588,35.8037,-0.3453,-0.9553,-0.512,-95.8996
17:05:42:455,2.4551,0.8261,8.702,35.7709,-0.3197,-0.901,-0.5195,-95.4787
17:05:42:475,2.3261,0.843,8.415,35.7575,-0.4782,-0.7106,-0.6227,-95.053
17:05:42:497,1.802,1.0421,8.472,35.8019,-0.6603,-0.586,-0.7931,-94.6189
17:05:42:515,1.0211,1.331,8.226,35.73,-0.6826,-0.485,-0.9537,-94.1711
17:05:42:536,0.538,1.623,7.898,35.763,-0.5581,-0.3615,-1.0484,-93.7046
17:05:42:556,0.224,1.7891,6.983,35.7684,-0.3442,-0.2168,-1.1122,-93.2169
17:05:42:576,-0.371,2.0861,6.32,37.9237,-0.1867,-0.006,-1.1793,-92.7059
17:05:42:597,-0.68,2.291,6.2411,38.0858,-0.1994,0.0887,-1.1942,-92.1697
17:05:42:616,-0.558,2.241,6.5951,38.1132,-0.2856,0.045,-1.1762,-91.6092
17:05:42:635,-0.4571,2.2751,7.007,38.0936,-0.3633,-0.0422,-1.1666,-91.026
17:05:42:655,-0.2441,2.222,7.472,38.0974,-0.3994,-0.0487,-1.1208,-90.4218
17:05:42:676,-0.228,2.078,7.905,38.0781,-0.4591,0.0034,-1.0751,-89.7988
17:05:42:697,-0.651,2.246,8.4941,38.1105,-0.5336,0.1397,-1.0006,-89.1597
17:05:42:715,-0.948,2.4161,9.413,38.2355,-0.6273,0.1631,-0.8547,-88.5083
17:05:42:738,-0.8411,2.799,10.505,38.4672,-0.672,0.0652,-0.61,-87.8512
17:05:42:755,-0.5771,3.0431,11.25,38.7545,-0.608,-0.038,-0.362,-87.1972
17:05:42:775,-0.465,3.105,11.8751,39.0989,-0.5209,-0.0657,-0.2003,-86.5537
17:05:42:796,-0.4721,3.0911,12.77,40.7372,-0.4932,-0.0965,-0.0982,-85.9255
17:05:42:814,-0.417,2.7251,13.706,41.1335,-0.4814,-0.1753,-0.0364,-85.3148
17:05:42:837,-0.3191,2.478,14.5181,41.458,-0.4814,-0.2934,0.0221,-84.7234
17:05:42:855,0.219,2.03,15.1691,41.8322,-0.5496,-0.4126,0.102,-84.1524
17:05:42:875,0.966,1.2,15.732,42.1693,-0.6507,-0.3498,0.1807,-83.6043
17:05:42:896,1.364,-0.2141,16.151,42.276,-0.6655,-0.1444,0.1243,-83.0804
17:05:42:915,0.5689,-0.744,15.837,42.4428,-0.4335,-0.0199,-0.0322,-82.577
17:05:42:935,-0.671,-0.5831,13.5461,42.5339,0.2305,0.0609,-0.0991,-82.0877
17:05:42:964,-1.473,-0.392,10.5791,42.8488,0.9595,0.179,-0.0055,-81.6092
17:05:42:975,-1.782,-0.059,8.226,43.292,1.3575,0.1376,0.1797,-81.1433
17:05:42:997,-1.616,0.3521,6.8231,43.6398,1.3351,-0.103,0.3679,-80.6951
17:05:43:016,-1.0369,0.675,6.3851,44.0439,1.0542,-0.3136,0.4872,-80.2702
17:05:43:035,-0.395,0.7661,6.818,44.394,0.6945,-0.337,0.5224,-79.8725
17:05:43:055,-0.012,0.644,8.096,44.7393,0.3849,-0.1987,0.4914,-79.503
17:05:43:076,0.255,0.56,8.93,45.1,0.272,-0.1264,0.4606,-79.1604
17:05:43:097,0.3011,0.699,9.0281,45.297,0.3667,-0.0582,0.4521,-78.8431
17:05:43:116,0.018,0.788,9.045,45.3772,0.5115,-0.0103,0.4436,-78.55
17:05:43:135,-0.218,0.975,9.3131,45.37,0.6434,-0.038,0.4627,-78.28
17:05:43:156,-0.1031,1.14,9.1451,45.3567,0.8584,-0.0859,0.5383,-78.0333
17:05:43:175,-0.125,1.463,8.5301,45.4555,1.1638,-0.006,0.6138,-77.8114
17:05:43:197,-0.0581,2.0141,7.656,45.6596,1.4011,0.0769,0.6755,-77.616
17:05:43:217,-0.065,2.732,6.9761,44.1106,1.4363,0.1408,0.6905,-77.4479
17:05:43:235,-0.0221,3.4601,6.6671,44.2374,1.2682,0.2472,0.6852,-77.3068
17:05:43:256,0.044,3.891,7.187,44.2991,0.9265,0.3387,0.6255,-77.1917
17:05:43:275,0.396,3.984,8.343,44.3737,0.5881,0.3994,0.5435,-77.1002
17:05:43:297,0.614,4.022,9.353,44.6344,0.4359,0.3802,0.4584,-77.1002
17:05:43:317,0.861,4.0849,9.7751,45.0358,0.4657,0.278,0.3659,-77.1002
17:05:43:335,1.5911,4.152,10.043,45.6265,0.505,0.0939,0.318,-77.1002
17:05:43:355,2.886,3.896,10.0961,45.8868,0.4593,-0.1072,0.2626,-77.1002
17:05:43:375,3.459,3.807,10.089,45.8635,0.3508,-0.1572,0.0987,-77.1002
17:05:43:397,2.975,4.0151,10.1561,45.8181,0.2102,-0.006,-0.1184,-77.1002
17:05:43:415,2.331,4.073,10.041,45.6743,0.0708,0.1462,-0.2801,-77.1002
17:05:43:436,2.2691,3.8411,10.127,45.8716,-0.158,0.0769,-0.3557,-77.1002
17:05:43:455,2.601,3.2681,10.4861,46.4225,-0.4091,-0.0444,-0.4089,-77.1002
17:05:43:475,2.355,2.5601,10.9961,46.7555,-0.608,-0.0763,-0.5365,-77.1002
17:05:43:498,1.397,2.169,11.336,46.9375,-0.6123,0.128,-0.6014,-77.1002
17:05:43:515,0.899,1.925,11.379,47.265,-0.375,0.2749,-0.5111,-76.9923
17:05:43:535,1.031,2.1431,10.436,47.3314,0.0049,0.062,-0.312,-76.8717
17:05:43:555,2.0531,2.3681,9.006,47.4041,0.3252,-0.3403,-0.1056,-76.7449
17:05:43:575,3.123,2.258,7.998,47.6591,0.3636,-0.6585,-0.0609,-76.6178
17:05:43:597,3.413,2.169,7.613,47.7985,0.1379,-0.7351,-0.2801,-76.4903
17:05:43:616,2.597,2.121,7.6631,47.8835,-0.1654,-0.5743,-0.6302,-76.3538
17:05:43:635,1.428,2.0381,7.9241,47.9552,-0.3462,-0.2328,-0.8782,-76.1971
17:05:43:655,0.6,2.222,7.6181,47.9995,-0.2474,0.0844,-0.9261,-76.0138
17:05:43:675,0.2411,2.567,6.696,47.9554,0.0252,0.1812,-0.8421,-75.8038
17:05:43:697,0.363,3.0071,5.6141,48.0053,0.2465,0.0683,-0.7441,-75.5708
17:05:43:714,0.5089,3.467,4.895,48.1238,0.3018,-0.072,-0.7451,-75.3177
17:05:43:735,0.351,3.8051,4.7231,48.0063,0.1805,-0.1444,-0.8654,-75.0441
17:05:43:755,-0.06,3.965,5.396,48.0025,-0.0887,-0.137,-0.9941,-74.7465
17:05:43:775,-0.326,3.929,6.557,48.2165,-0.3527,-0.1125,-1.0134,-74.4224
17:05:43:797,-0.443,4.0391,7.881,48.5503,-0.4762,-0.1136,-0.9197,-74.0737
17:05:43:816,-0.357,4.106,8.915,48.8974,-0.4357,-0.1966,-0.7696,-73.7055
17:05:43:835,-0.2831,4.415,9.768,48.6265,-0.3282,-0.2871,-0.6238,-73.3234
17:05:43:855,-0.2111,4.815,10.2251,48.7358,-0.1867,-0.2604,-0.4482,-72.9329
17:05:43:875,-0.153,5.169,10.551,48.6314,-0.0568,-0.1008,-0.261,-72.5401
17:05:43:897,-0.2081,5.354,10.692,48.7283,0.0676,0.0333,-0.1471,-72.151
17:05:43:915,-0.065,5.258,10.962,48.9277,0.1049,-0.004,-0.1247,-71.7684
17:05:43:935,-0.089,5.234,11.468,49.0728,0.0506,-0.0976,-0.1514,-71.3924
17:05:43:954,0.068,4.9751,11.915,49.1075,-0.0505,-0.1167,-0.1546,-71.0221
17:05:43:976,0.2411,4.674,12.557,49.2242,-0.2079,-0.0945,-0.1279,-70.6579
17:05:43:997,-0.141,4.6691,12.938,49.1306,-0.3356,0.0588,-0.0726,-70.3012
17:05:44:017,-0.726,4.0901,12.899,49.2558,-0.2175,0.4643,0.0073,-69.9541
17:05:44:035,-0.635,3.2201,12.605,49.7289,-0.0707,0.4696,0.0828,-69.6187
17:05:44:055,-0.63,2.6771,11.5511,49.8232,0.0996,0.2035,0.1349,-69.297
17:05:44:075,-0.96,2.442,9.969,49.6934,0.3433,0.1429,0.1391,-68.989
17:05:44:097,-1.295,2.385,8.532,49.4843,0.5093,0.2419,0.2062,-68.6941
17:05:44:115,-1.4531,2.337,7.6421,49.1108,0.5285,0.2823,0.2893,-68.414
17:05:44:135,-1.046,2.361,7.428,49.0533,0.3869,0.0301,0.3648,-68.1509
17:05:44:155,-0.101,2.241,7.194,49.0189,0.2028,-0.3201,0.3978,-67.9075
17:05:44:175,0.7751,2.04,7.17,49.0778,-0.0195,-0.4382,0.3861,-67.6849
17:05:44:197,1.076,1.868,7.682,49.2039,-0.3356,-0.3978,0.2819,-67.4823
17:05:44:216,0.863,1.724,8.1131,49.2488,-0.5464,-0.1647,0.153,-67.296
17:05:44:235,0.044,1.8011,8.0561,49.3453,-0.5101,0.1525,0.0902,-67.1216
17:05:44:255,-0.486,1.98,7.7801,49.4709,-0.3623,0.2652,0.1701,-66.9573
17:05:44:275,-0.419,2.1551,7.646,49.3144,-0.2069,0.1354,0.3468,-66.8062
17:05:44:299,0.0401,2.358,7.376,49.1466,-0.028,-0.0689,0.4914,-66.6734
17:05:44:316,0.164,2.7131,6.954,49.1994,0.1433,-0.169,0.5224,-66.5623
17:05:44:335,-0.086,2.9981,6.911,49.5288,0.2347,-0.1455,0.4777,-66.4721
17:05:44:355,-0.2561,3.302,7.065,49.7934,0.2273,-0.1317,0.4584,-66.4721
17:05:44:375,-0.113,3.414,7.515,50.1086,0.1581,-0.1093,0.4744,-66.4721
17:05:44:398,0.267,3.441,9.207,50.1778,-0.0206,0.0726,0.4542,-66.4721
17:05:44:416,0.662,3.4001,10.2731,49.9566,-0.0547,0.0833,0.4584,-66.4721
17:05:44:435,1.05,3.4811,11.013,49.9391,-0.0291,0.0194,0.4382,-66.4721
17:05:44:456,1.529,3.5081,10.8911,50.0112,0.0337,0.0503,0.3915,-66.4721
17:05:44:476,1.8191,3.671,10.373,50.062,0.0443,0.2131,0.3627,-66.4721
17:05:44:498,1.701,3.953,10.388,50.214,-0.1068,0.344,0.2573,-66.4721
17:05:44:516,1.562,4.154,10.7801,50.2249,-0.3186,0.3164,0.1297,-66.4721
17:05:44:536,2.087,4.1111,11.214,50.1811,-0.54,0.0896,0.0509,-66.4721
17:05:44:556,3.126,3.594,11.757,50.1689,-0.7688,-0.1189,0.0073,-66.4721
17:05:44:576,3.966,2.564,12.4211,50.1342,-1.0029,-0.1881,-0.0769,-66.4721
17:05:44:598,3.339,1.695,13.2371,50.0865,-1.0966,-0.0051,-0.2727,-66.4721
17:05:44:616,1.4711,1.4681,13.163,50.0686,-0.7156,0.4196,-0.4291,-66.4721
17:05:44:635,0.614,1.599,12.03,50.1232,-0.0622,0.3759,-0.3418,-66.4721
17:05:44:656,1.4381,1.8131,10.115,50.0388,0.4529,-0.2636,-0.1162,-66.4721
17:05:44:676,2.6231,2.028,8.0321,50.0798,0.6689,-0.7436,0.0104,-66.4721
17:05:44:699,3.071,2.251,7.2611,49.8617,0.5104,-0.7254,-0.1119,-66.4721
17:05:44:715,3.291,1.956,7.7471,49.6472,0.0975,-0.6042,-0.3886,-66.4721
17:05:44:738,2.934,1.676,8.01,49.5249,-0.2101,-0.5094,-0.6919,-66.4721
17:05:44:755,2.01,1.71,8.199,49.2565,-0.3718,-0.3446,-0.9452,-66.4721
17:05:44:775,0.743,1.832,7.893,49.0937,-0.2889,-0.0624,-1.1165,-66.4721
17:05:44:797,-0.3071,2.1551,6.827,48.807,0.0092,0.1301,-1.1528,-66.3798
17:05:44:815,-0.7781,2.574,5.69,48.5687,0.2295,0.1121,-1.0388,-66.2509
17:05:44:837,-0.7661,2.955,5.1731,48.3525,0.2443,-0.0146,-0.8867,-66.0904
17:05:44:855,-0.527,3.156,5.312,48.157,0.1199,-0.1349,-0.7568,-65.9044
17:05:44:875,-0.11,3.263,5.664,48.0846,-0.0132,-0.2211,-0.6717,-65.6982
17:05:44:897,0.032,3.266,6.593,48.0288,-0.1621,-0.2721,-0.6504,-65.4751
17:05:44:914,0.243,3.1871,7.527,48.041,-0.3134,-0.3563,-0.642,-65.2364
17:05:44:935,0.152,3.12,8.824,47.9809,-0.4367,-0.3871,-0.5888,-64.9833
17:05:44:974,-0.0101,3.278,10.464,47.8313,-0.5633,-0.4201,-0.4716,-64.7187
17:05:44:975,-0.144,3.68,12.1451,47.8236,-0.5081,-0.2647,-0.2588,-64.4476
17:05:44:997,-0.4931,3.975,12.1601,47.7877,-0.094,0.0566,-0.0652,-64.1776
17:05:45:015,-0.776,4.094,11.3621,47.8301,0.3231,0.1983,0.0839,-63.9144
17:05:45:035,-0.587,4.032,11.2781,47.9002,0.3359,0.011,0.1701,-63.6625
17:05:45:055,-0.1151,3.963,11.9111,47.611,0.1103,-0.1423,0.2042,-63.4238
17:05:45:075,0.5141,4.0271,12.557,47.3518,-0.1621,-0.1115,0.3147,-63.2
17:05:45:096,0.99,3.9821,13.0481,47.1193,-0.4133,0.1216,0.4361,-62.9949
17:05:45:115,1.32,3.1031,13.74,47.1593,-0.6123,0.3355,0.4456,-62.8117
17:05:45:135,0.753,2.0831,14.283,47.2866,-0.7283,0.2535,0.235,-62.6487
17:05:45:155,-0.539,1.5731,13.649,47.3757,-0.507,0.1567,0.036,-62.4977
17:05:45:175,-1.688,1.4561,11.556,47.5608,0.0432,0.2302,0.0679,-62.3529
17:05:45:197,-2.1,1.511,9.291,47.5496,0.5158,0.3047,0.2797,-62.2159
17:05:45:215,-1.805,1.611,8.2811,47.2853,0.5699,0.146,0.5383,-62.0937
17:05:45:235,-0.941,1.583,8.367,47.1851,0.3858,-0.1019,0.7022,-61.9942
17:05:45:256,-0.072,1.4531,9.1211,46.9552,0.2124,-0.2658,0.7692,-61.9942
17:05:45:275,0.851,1.128,9.636,46.5743,0.1891,-0.3222,0.7894,-61.9942
17:05:45:297,1.7921,1.056,9.552,46.3942,0.2625,-0.3615,0.7862,-61.9942
17:05:45:315,2.123,1.104,9.009,46.0923,0.3444,-0.2126,0.6989,-61.9942
17:05:45:334,1.538,1.269,8.549,45.7607,0.4423,0.1716,0.5287,-61.9942
17:05:45:354,0.801,1.401,8.0441,45.4986,0.5551,0.4366,0.4297,-61.9942
17:05:45:374,0.2981,1.655,7.481,45.4412,0.7232,0.4707,0.4404,-61.9942
17:05:45:395,0.2411,1.899,6.77,45.5428,0.8638,0.311,0.4946,-61.9942
17:05:45:414,0.339,2.33,6.188,45.4885,0.8892,0.1653,0.5521,-62.0893
17:05:45:434,0.32,2.9021,6.164,45.1469,0.7552,0.1471,0.5734,-62.2005
17:05:45:454,0.2291,3.3521,6.557,44.7742,0.5369,0.1961,0.5415,-62.3277
17:05:45:474,0.245,3.611,7.361,44.2805,0.3284,0.2461,0.4797,-62.4694
17:05:45:496,0.5021,3.714,8.168,43.8785,0.2007,0.1972,0.4042,-62.6231
17:05:45:514,0.6551,3.797,8.987,44.077,0.1624,0.1067,0.3095,-62.7856
17:05:45:534,0.9731,3.912,9.6311,44.2954,0.1592,-0.0487,0.2489,-62.9536
17:05:45:555,1.9811,3.833,10.4981,44.5362,0.0667,-0.237,0.2276,-63.1252
17:05:45:575,3.0251,3.6131,11.2211,44.6541,-0.0642,-0.2402,0.1754,-63.2994
17:05:45:596,3.1451,3.7541,11.7191,44.5832,-0.1132,0.0142,0.0434,-63.474
17:05:45:614,2.525,4.054,11.769,44.6507,-0.092,0.2227,-0.1204,-63.6437
17:05:45:634,2.1581,4.2401,11.516,44.8416,-0.0419,0.2089,-0.2524,-63.803
17:05:45:655,2.7881,3.86,11.192,44.93,-0.0408,0.0524,-0.2812,-63.9483
17:05:45:675,3.1091,3.333,10.752,44.8361,-0.1005,-0.0795,-0.3928,-64.0787
17:05:45:696,2.618,2.876,10.6061,44.5167,-0.2079,0.0151,-0.5653,-64.1901
17:05:45:715,1.4,2.5721,10.469,44.2163,-0.1962,0.2663,-0.6834,-64.1901
17:05:45:735,0.626,2.2151,10.565,44.2367,-0.1259,0.2876,-0.6441,-64.1901
17:05:45:755,0.894,2.133,10.563,44.2364,-0.0738,-0.121,-0.4184,-64.1901
17:05:45:776,2.127,2.253,9.816,44.0998,-0.0238,-0.5276,-0.1503,-64.1901
17:05:45:796,3.365,2.255,8.5511,43.838,-0.0015,-0.5521,-0.0247,-64.1901
17:05:45:814,3.7151,2.09,7.598,43.5114,-0.093,-0.3871,-0.23,-64.1901
17:05:45:835,2.781,1.719,7.62,43.5145,-0.3484,-0.286,-0.6665,-64.1901
17:05:45:854,1.419,1.635,8.0801,43.5365,-0.5538,-0.2221,-1.0325,-64.1901
17:05:45:874,0.131,1.937,8.2811,43.631,-0.4463,-0.0965,-1.125,-64.1901
17:05:45:896,-0.393,2.172,7.874,43.6156,-0.0898,0.0236,-1.0037,-64.1901
17:05:45:915,-0.321,2.5691,6.59,43.4994,0.338,0.0279,-0.8058,-64.0671
17:05:45:934,-0.201,3.014,5.7431,43.4224,0.5158,-0.0168,-0.6973,-63.9199
17:05:45:955,-0.024,3.374,5.867,43.0854,0.3806,-0.0934,-0.7143,-63.7517
17:05:45:974,-0.369,3.575,6.7511,42.8403,0.1655,-0.0412,-0.8165,-63.5622
17:05:45:995,-0.867,3.7211,7.907,42.5986,0.0411,0.0759,-0.8537,-63.3487
17:05:46:014,-1.0031,3.9581,8.7191,42.442,0.0751,0.1056,-0.7069,-63.1123
17:05:46:035,-0.8381,4.104,9.464,42.3507,0.1698,0.0535,-0.5131,-62.8593
17:05:46:054,-0.8051,4.458,10.227,42.2625,0.2816,0.012,-0.3355,-62.5965
17:05:46:075,-0.699,4.8251,10.886,42.0951,0.4646,0.0802,-0.0906,-62.3305
17:05:46:096,-0.39,5.2121,11.099,41.9903,0.7488,0.1376,0.1627,-62.0699
17:05:46:114,0.0131,5.423,10.5791,41.8614,1.0414,0.1429,0.3147,-61.822
17:05:46:135,0.284,5.6651,10.0721,41.6706,1.1404,0.1152,0.3499,-61.5905
17:05:46:155,0.1091,6.113,9.7841,41.4297,1.0702,0.0844,0.3138,-61.3751
17:05:46:174,0.15,6.0671,9.5591,41.2971,0.884,0.0481,0.2584,-61.1745
17:05:46:196,0.099,6.149,9.332,41.3043,0.5924,0.0301,0.2105,-60.9866
17:05:46:215,-0.29,5.9501,9.243,41.4501,0.2412,0.2482,0.2051,-60.8107
17:05:46:235,-0.2231,4.9901,10.1531,41.6158,-0.2196,0.3483,0.1733,-60.6471
17:05:46:255,0.4901,3.836,11.238,41.8581,-0.6176,0.1642,0.1818,-60.4955
17:05:46:275,0.279,3.173,11.19,41.9275,-0.5687,0.1408,0.2148,-60.3575
17:05:46:296,-0.486,3.0581,9.624,41.9435,-0.0962,0.3227,0.2563,-60.2331
17:05:46:316,-0.9221,3.0821,7.7111,41.8979,0.3476,0.3472,0.3574,-60.1225
17:05:46:335,-0.953,3.216,6.4661,41.5464,0.4455,0.144,0.4627,-60.0278
17:05:46:355,-0.5321,3.2711,6.363,41.3872,0.2338,-0.105,0.5213,-60.0278
17:05:46:374,0.248,3.309,6.8231,41.4498,-0.0366,-0.2339,0.5596,-60.0278
17:05:46:397,1.526,3.0311,7.6871,41.6066,-0.3889,-0.2573,0.4658,-60.0278
17:05:46:416,1.613,2.837,8.355,41.7369,-0.5379,-0.2211,0.3169,-60.0278
17:05:46:436,0.815,2.892,8.5181,41.7615,-0.4762,-0.004,0.153,-60.0278
17:05:46:456,0.143,3.041,8.4941,41.5978,-0.3303,0.1918,0.1477,-60.0278
17:05:46:476,0,3.335,8.0561,41.515,-0.1376,0.2003,0.268,-60.0278
17:05:46:497,0.236,3.632,7.3061,41.5854,0.0667,0.1397,0.4148,-60.0278
17:05:46:516,0.3011,4.0061,6.753,41.8261,0.19,0.1482,0.4925,-60.0278
17:05:46:536,0.063,4.4269,6.3971,41.9296,0.2284,0.1855,0.4957,-60.0278
17:05:46:555,-0.165,4.674,6.449,41.9701,0.1794,0.1673,0.4638,-60.0278
17:05:46:576,-0.077,4.908,6.983,42.0551,0.0517,0.0631,0.433,-60.132
17:05:46:596,0.21,4.949,7.8,42.0326,-0.0738,0.0481,0.4169,-60.2486
17:05:46:616,0.4901,5.0021,8.6471,42.213,-0.1005,0.0759,0.4042,-60.3771
17:05:46:636,0.878,5.0621,9.4211,42.3596,-0.0642,0.0312,0.3722,-60.5165
17:05:46:658,1.376,5.076,9.84,42.2632,-0.0143,-0.0604,0.3169,-60.665
17:05:46:675,1.85,4.9991,10.0691,42.3324,-0.01,-0.1178,0.2339,-60.8201
17:05:46:697,2.271,4.793,10.376,42.4381,-0.0898,-0.0987,0.1382,-60.9785
17:05:46:715,1.8881,5.042,10.8521,42.2619,-0.1877,0.0396,0.0147,-61.1364
17:05:46:738,0.9641,5.268,10.958,42.3231,-0.1324,0.2919,-0.0652,-61.2896
17:05:46:755,1.196,5.196,10.886,42.2994,-0.0516,0.2217,-0.0534,-61.4359
17:05:46:775,2.5541,4.884,10.5671,42.3321,-0.1293,-0.1668,-0.012,-61.5764
17:05:46:797,3.648,4.1899,10.335,42.6948,-0.3388,-0.3572,-0.1013,-61.7122
17:05:46:815,3.566,3.29,10.857,42.8619,-0.6655,-0.1859,-0.3546,-61.8389
17:05:46:839,1.914,2.7821,11.508,42.8202,-0.8071,0.278,-0.5897,-61.948
17:05:46:855,0.782,2.303,11.774,42.7524,-0.6156,0.5302,-0.6133,-61.948
17:05:46:875,0.777,2.196,11.5751,42.6486,-0.3069,0.179,-0.4557,-61.948
17:05:46:896,1.593,2.351,10.452,42.8793,0.0528,-0.3882,-0.2535,-61.948
17:05:46:915,1.9331,2.574,8.853,43.2141,0.3391,-0.6031,-0.1226,-61.948
17:05:46:936,2.1011,2.4881,7.7561,43.459,0.2986,-0.619,-0.0971,-61.948
17:05:46:956,2.1701,2.457,7.529,43.5563,0.0762,-0.6361,-0.1822,-61.948
17:05:46:982,2.13,2.325,7.3931,43.6006,-0.125,-0.6116,-0.3993,-61.948
17:05:46:997,1.0931,2.418,7.206,43.4767,-0.1558,-0.3062,-0.6898,-61.948
17:05:47:015,-0.005,2.744,6.552,43.3429,-0.0397,0.0557,-0.8165,-61.948
17:05:47:035,-0.5051,3.3281,5.978,43.4116,0.1145,0.2408,-0.7121,-61.948
17:05:47:055,0.011,3.69,5.523,43.2991,0.2071,0.1918,-0.5888,-61.948
17:05:47:075,0.834,3.963,5.5871,43.3267,0.2262,0.1089,-0.5972,-61.8569
17:05:47:097,0.99,4.214,5.76,43.5124,0.1954,0.1121,-0.7462,-61.7458
17:05:47:115,0.605,4.0991,6.516,43.4976,0.1123,0.1408,-0.9197,-61.6096
17:05:47:135,0.126,4.2401,7.3211,43.3641,0.0304,0.1216,-0.9644,-61.4437
17:05:47:155,-0.2539,4.437,7.694,43.3091,0.0667,0.095,-0.8643,-61.2487
17:05:47:175,-0.3521,4.7771,8.0389,43.3301,0.0815,-0.0179,-0.7451,-61.0292
17:05:47:196,-0.3041,4.985,8.238,43.2252,0.038,-0.1625,-0.6335,-60.7901
17:05:47:215,-0.6731,5.471,8.774,43.595,-0.0952,-0.187,-0.5387,-60.5361
17:05:47:235,-1.149,5.7371,9.6671,43.9933,-0.2144,-0.054,-0.4386,-60.2715
17:05:47:255,-1.5491,5.751,10.515,44.2011,-0.2324,0.0077,-0.3301,-60.0006
17:05:47:275,-1.331,5.5811,11.046,44.4794,-0.2314,-0.1466,-0.1907,-59.7276
17:05:47:297,-0.8141,5.318,11.583,44.7322,-0.2963,-0.3488,-0.0524,-59.4578
17:05:47:314,-0.2951,4.9511,11.975,44.7901,-0.4389,-0.4456,0.0253,-59.1958
17:05:47:336,-0.3191,4.851,12.128,44.8787,-0.5826,-0.2754,0.0807,-58.944
17:05:47:355,-0.714,4.437,12.083,45.0366,-0.5846,0.2823,0.1988,-58.7047
17:05:47:375,-0.999,3.819,11.336,45.2067,-0.4122,0.6622,0.3105,-58.4817
17:05:47:397,-1.0991,3.2561,10.2731,45.4651,-0.2122,0.56,0.3733,-58.2779
17:05:47:416,-1.509,2.789,8.946,45.8199,-0.0069,0.2951,0.3318,-58.0936
17:05:47:435,-1.841,2.457,8.082,46.1979,0.0667,0.0663,0.3605,-57.9264
17:05:47:456,-1.899,2.253,8.247,46.4387,-0.0195,-0.1104,0.4584,-57.7774
17:05:47:475,-1.3151,1.9781,8.774,46.7042,-0.1643,-0.3275,0.6128,-57.6501
17:05:47:496,-0.2591,1.76,9.186,46.9716,-0.2835,-0.4797,0.782,-57.5499
17:05:47:516,0.822,1.4681,9.227,47.0516,-0.3761,-0.469,0.8693,-57.5499
17:05:47:536,1.3901,1.434,9.116,47.1125,-0.4229,-0.2265,0.8246,-57.5499
17:05:47:555,1.277,1.559,8.733,47.1677,-0.4324,0.0833,0.7085,-57.5499
17:05:47:575,0.834,1.736,8.4581,47.143,-0.4315,0.3121,0.6064,-57.5499
17:05:47:597,0.329,1.916,8.106,47.2883,-0.3569,0.4388,0.5521,-57.5499
17:05:47:617,-0.05,2.093,7.79,47.48,-0.2175,0.494,0.5893,-57.5499
17:05:47:635,-0.015,2.4611,7.3211,47.7577,-0.0483,0.4143,0.6883,-57.5499
17:05:47:655,-0.0461,2.828,6.8711,48.1736,0.1071,0.3014,0.7437,-57.6533
17:05:47:675,-0.108,3.2081,6.7751,48.4961,0.1635,0.1961,0.7362,-57.7793
17:05:47:697,0.104,3.4841,6.9401,48.618,0.1475,0.0631,0.7,-57.9265
17:05:47:717,0.516,3.5051,7.788,48.694,0.0346,-0.1242,0.616,-58.0931
17:05:47:738,0.708,3.4361,8.994,48.579,-0.1313,-0.2786,0.4723,-58.2751
17:05:47:756,0.947,3.398,9.897,48.4833,-0.1834,-0.2881,0.3648,-58.4676
17:05:47:775,1.481,3.299,10.5341,48.6177,-0.1984,-0.2669,0.268,-58.6667
17:05:47:796,2.477,3.053,11.247,48.642,-0.3143,-0.2892,0.2105,-58.8689
17:05:47:815,3.1901,2.73,11.726,48.6141,-0.4548,-0.2157,0.1104,-59.0722
17:05:47:835,2.7761,2.756,11.994,48.8096,-0.4921,0.0418,-0.096,-59.2722
17:05:47:855,1.814,2.919,11.891,48.995,-0.3985,0.26,-0.2567,-59.4619
17:05:47:875,1.8071,2.9591,11.592,49.4031,-0.2782,0.1056,-0.263,-59.6372
17:05:47:897,2.8151,2.6771,11.288,49.7898,-0.3069,-0.319,-0.2248,-59.7987
17:05:47:915,3.344,2.267,11.259,49.8959,-0.4389,-0.4701,-0.245,-59.948
17:05:47:936,2.9201,1.5281,11.702,49.9162,-0.5602,-0.2359,-0.3674,-60.0837
17:05:47:955,2.151,1.08,12.464,50.0424,-0.5581,0.0227,-0.4206,-60.2024
17:05:47:975,1.991,0.7421,12.8081,50.2456,-0.3495,-0.0752,-0.3557,-60.3037
17:05:47:997,2.657,0.848,12.0641,50.4329,0.0049,-0.4445,-0.2067,-60.3037
17:05:48:015,3.602,0.9701,10.4381,50.5021,0.3157,-0.6255,-0.0502,-60.3037
17:05:48:035,3.71,0.9461,8.877,50.3151,0.3806,-0.5137,-0.1151,-60.3037
17:05:48:055,2.915,1.1059,8.238,49.952,0.2028,-0.2828,-0.3279,-60.3037
17:05:48:076,2.003,1.19,7.668,49.7451,0.0571,-0.1104,-0.5142,-60.3037
17:05:48:097,1.026,1.343,6.8921,49.8015,0.0932,0.0641,-0.6238,-60.3037
17:05:48:117,0.363,1.595,5.922,49.9388,0.2262,0.1653,-0.6483,-60.3037
17:05:48:135,-0.017,1.937,5.0411,50.0429,0.3476,0.1642,-0.6047,-60.3037
17:05:48:155,-0.249,2.2841,4.34,50.1049,0.3571,0.0716,-0.5664,-60.3037
17:05:48:175,-0.2081,2.603,4.1531,49.9524,0.1965,-0.0615,-0.5664,-60.3037
17:05:48:197,-0.1271,2.7821,4.677,49.9751,-0.0718,-0.1594,-0.5897,-60.3037
17:05:48:215,0.0161,2.8421,5.841,49.919,-0.3442,-0.1892,-0.6175,-60.3037
17:05:48:235,-0.089,2.9141,6.875,49.9212,-0.4762,-0.121,-0.6366,-60.2012
17:05:48:255,-0.378,3.005,7.5941,50.2676,-0.4697,-0.0305,-0.61,-60.0797
17:05:48:275,-0.386,3.1151,8.496,50.4993,-0.4517,-0.0668,-0.5026,-59.9414
17:05:48:298,-0.407,3.386,9.344,51.1816,-0.4517,-0.2445,-0.378,-59.7909
17:05:48:316,-0.4361,3.431,10.203,51.4989,-0.4218,-0.3094,-0.278,-59.6323
17:05:48:335,-0.431,3.4841,11.393,51.5501,-0.4144,-0.2146,-0.1034,-59.4699
17:05:48:355,-0.2951,3.486,12.492,51.549,-0.374,-0.0136,0.1317,-59.3101
17:05:48:375,0.138,3.5051,13.433,51.5326,-0.3134,0.228,0.4031,-59.1613
17:05:48:397,0.894,3.228,14.13,51.4784,-0.2377,0.3292,0.5968,-59.0321
17:05:48:416,1.517,3.2081,14.702,51.6351,-0.225,0.227,0.6755,-58.9278
17:05:48:435,1.7561,3.017,14.997,51.9514,-0.2494,0.1631,0.6639,-58.9278
17:05:48:455,1.505,3.0821,15.179,52.1756,-0.2153,0.3429,0.6533,-58.9278
17:05:48:475,1.256,2.607,14.7311,52.3549,0.0261,0.6452,0.7096,-58.9278
17:05:48:498,0.308,1.286,12.188,52.4257,0.7084,0.1983,0.5159,-58.9278
17:05:48:516,-0.053,0.8981,10.496,52.2258,0.9276,-0.104,0.4829,-58.9278
17:05:48:535,-0.134,0.9911,8.954,52.0134,1.017,-0.0997,0.601,-58.9278
17:05:48:555,0.3221,1.044,7.6031,51.9933,0.9904,0.0109,0.7395,-58.9278
17:05:48:576,1.1051,1.082,6.866,51.9385,0.7637,-0.0381,0.7916,-59.0195
17:05:48:598,1.883,0.879,6.5741,51.704,0.4114,-0.2211,0.6744,-59.135
17:05:48:617,1.866,0.941,6.641,51.6981,0.056,-0.2413,0.4404,-59.2687
17:05:48:635,1.4861,0.9431,7.0841,51.6406,-0.2175,0.0151,0.2435,-59.4121
17:05:48:656,0.7721,0.941,7.172,51.7018,-0.2676,0.3663,0.1306,-59.5587
17:05:48:675,0.3821,1.0661,7.019,52.0358,-0.1951,0.5398,0.1627,-59.7056
17:05:48:698,0.377,1.262,6.866,52.3692,-0.109,0.4397,0.2722,-59.8545
17:05:48:718,0.693,1.52,6.737,52.5688,-0.0366,0.1738,0.3542,-60.0091
17:05:48:736,1.016,1.836,6.93,52.5824,-0.043,-0.0179,0.3978,-60.1716
17:05:48:755,0.9761,2.186,7.551,51.8195,-0.0388,-0.0285,0.3924,-60.3431
17:05:48:775,1.0039,2.516,8.307,51.6176,0.0187,0.0162,0.402,-60.523
17:05:48:798,1.103,2.945,8.8871,51.3717,0.1635,0.0099,0.4638,-60.7118
17:05:48:815,1.524,3.225,9.377,51.2158,0.322,-0.1733,0.5042,-60.9112
17:05:48:838,2.295,3.378,9.8591,51.0573,0.3986,-0.4627,0.5064,-61.1219
17:05:48:855,3.2021,3.381,10.275,50.7869,0.3508,-0.6765,0.4393,-61.3435
17:05:48:875,3.684,3.357,10.8,50.4905,0.1933,-0.5797,0.2914,-61.5728
17:05:48:897,3.899,2.892,11.379,50.3012,0.0346,-0.1998,0.1232,-61.8042
17:05:48:915,3.4421,2.7131,11.64,50.2344,-0.0505,0.0726,-0.0513,-62.0319
17:05:48:935,2.556,2.8541,10.836,50.186,-0.0036,0.1375,-0.2013,-62.2496
17:05:48:957,2.987,1.935,9.789,50.2296,0.0422,0.2046,-0.1854,-62.4537
17:05:48:989,3.825,1.2911,9.1451,50.2063,-0.408,-0.1987,-0.1854,-62.6456
17:05:49:001,3.789,0.228,10.3571,50.2684,-1.2849,-0.3754,-0.4025,-62.8235
17:05:49:015,1.605,-0.717,12.842,50.3487,-1.8373,0.4792,-0.6685,-62.9788
17:05:49:035,0.018,-0.945,14.9561,50.5464,-1.6947,1.1061,-0.609,-63.1051
17:05:49:055,0.4031,-1.263,14.654,50.8101,-0.9199,0.593,-0.245,-63.2089
17:05:49:075,1.991,-0.969,12.344,51.0061,-0.0462,-0.4755,0.2009,-63.3048
17:05:49:097,3.188,-0.2051,9.983,51.2279,0.3699,-0.9628,0.3776,-63.4064
17:05:49:115,3.569,0.563,8.049,51.1495,0.3636,-0.7308,0.2137,-63.5172
17:05:49:135,2.9441,0.8051,7.199,50.9112,0.0602,-0.1147,-0.1811,-63.6296
17:05:49:155,1.586,0.924,7.172,50.5942,-0.3037,0.4047,-0.6079,-63.7293
17:05:49:175,0.2141,1.185,7.11,50.2158,-0.3505,0.7356,-0.8612,-63.7293
17:05:49:197,-0.5801,1.5491,6.555,50.1862,-0.1217,0.758,-0.8782,-63.7293
17:05:49:216,-0.558,1.877,5.6381,50.3561,0.1763,0.5292,-0.7729,-63.7293
17:05:49:235,-0.395,2.16,4.938,50.596,0.3061,0.1801,-0.7217,-63.7293
17:05:49:255,-0.422,2.279,5.0051,50.7533,0.1698,-0.103,-0.7931,-63.7293
17:05:49:279,-0.501,2.303,6.116,50.5032,-0.1376,-0.1966,-0.9069,-63.7293
17:05:49:297,-0.386,2.232,7.697,50.2482,-0.3336,-0.1306,-0.9399,-63.6331
17:05:49:315,-0.194,2.1,8.3261,49.9824,-0.2622,0.0461,-0.8558,-63.5086
17:05:49:335,-0.393,2.339,8.786,49.9682,-0.1313,0.3057,-0.7835,-63.3594
17:05:49:355,-0.666,2.4611,9.224,50.2763,-0.0738,0.426,-0.6654,-63.1887
17:05:49:375,-0.762,3.074,9.8111,50.5513,-0.0525,0.3451,-0.428,-63.0019
17:05:49:398,-0.2711,3.62,10.577,50.8099,-0.0505,0.179,-0.0811,-62.8086
17:05:49:415,0.1811,3.819,11.1401,50.8119,0.0411,0.0822,0.2126,-62.6205
17:05:49:435,0.3941,3.69,11.697,50.5667,0.1698,0.0258,0.3882,-62.4465
17:05:49:454,0.099,3.546,11.903,50.4483,0.2668,-0.153,0.4414,-62.2911
17:05:49:474,-0.113,3.57,12.1361,50.2448,0.2794,-0.3446,0.4616,-62.1549
17:05:49:496,0.102,3.618,12.4181,49.8636,0.2156,-0.4041,0.6053,-62.0389
17:05:49:514,0.375,3.39,12.7271,49.6457,0.124,-0.237,0.7341,-61.9478
17:05:49:534,0.459,2.828,12.72,49.2888,0.04,-0.105,0.7309,-61.9478
17:05:49:554,0.717,1.667,13.1321,49.2438,-0.2516,-0.2402,0.6,-61.9478
17:05:49:575,0.854,0.618,12.969,49.3326,-0.5709,-0.385,0.4031,-61.9478
17:05:49:596,-0.194,0.2441,12.54,49.2942,-0.5464,-0.0998,0.2403,-61.9478
17:05:49:614,-1.643,0.0671,11.468,49.3699,-0.2144,0.2749,0.1508,-61.9478
17:05:49:634,-2.1791,-0.0971,10.0961,49.3729,0.2199,0.3494,0.3116,-61.9478
17:05:49:654,-1.494,-0.0851,9.227,49.3911,0.4093,-0.0199,0.5915,-61.9478
17:05:49:674,0.09,-0.2,8.915,49.4708,0.3912,-0.3978,0.8224,-61.9478
17:05:49:696,1.4621,-0.308,8.724,49.4623,0.3274,-0.3861,0.8821,-61.9478
17:05:49:714,1.955,-0.1451,8.444,49.4288,0.2731,-0.0668,0.7916,-62.0468
17:05:49:734,1.5461,0.0701,8.1041,49.3075,0.289,0.444,0.6713,-62.169
17:05:49:755,1.28,0.278,7.622,49.3376,0.3231,0.6952,0.5904,-62.3099
17:05:49:774,1.143,0.491,7.203,49.5626,0.3816,0.6728,0.5554,-62.4663
17:05:49:796,1.086,0.711,6.8681,49.6702,0.4284,0.4898,0.5276,-62.6364
17:05:49:815,1.0691,1.0661,6.624,49.901,0.4583,0.2632,0.4872,-62.8188
17:05:49:834,0.885,1.358,6.176,49.9504,0.503,0.1705,0.4351,-63.0112
17:05:49:854,0.7271,1.722,5.913,49.9653,0.4572,0.1375,0.4223,-63.2119
17:05:49:874,0.629,2.004,6.243,49.9524,0.2859,0.0386,0.3872,-63.4202
17:05:49:896,0.842,2.2121,7.16,50.3034,0.0443,-0.1445,0.3468,-63.635
17:05:49:914,0.8441,2.208,8.1521,50.504,-0.1259,-0.3403,0.2595,-63.8547
17:05:49:934,1.2851,2.126,9.3941,50.6218,-0.3143,-0.6223,0.1818,-64.0764
17:05:49:954,2.321,2.04,10.821,50.6088,-0.5496,-0.9416,0.136,-64.2978
17:05:49:974,3.365,1.5491,11.604,50.4724,-0.6634,-1.0022,0.0327,-64.5168
17:05:49:996,3.662,1.197,11.7431,50.2438,-0.6731,-0.667,-0.0896,-64.7293
17:05:50:014,3.279,1.073,11.982,50.2031,-0.6677,-0.1998,-0.2152,-64.931
17:05:50:034,3.0731,1.0871,12.0491,50.3244,-0.7135,-0.0987,-0.3131,-65.1178
17:05:50:054,3.2381,0.963,11.757,50.3904,-0.7624,-0.3158,-0.3887,-65.2871
17:05:50:074,2.9201,0.764,11.8841,50.525,-0.8922,-0.3253,-0.4918,-65.4363
17:05:50:096,2.235,0.137,12.5741,50.5238,-0.9879,0.0258,-0.5313,-65.5627
17:05:50:115,1.5461,-0.348,13.709,50.6062,-0.9188,0.3153,-0.4887,-65.6659
17:05:50:134,1.479,-0.605,14.0081,50.7039,-0.5314,0.1961,-0.3524,-65.6659
17:05:50:155,2.396,-0.545,12.8561,50.7486,0.0463,-0.2222,-0.1119,-65.6659
17:05:50:174,3.437,-0.162,10.986,50.7273,0.4423,-0.5339,0.0264,-65.6659
17:05:50:195,3.7961,0.2539,9.3131,50.7597,0.5562,-0.3839,-0.0385,-65.6659
17:05:50:215,3.36,0.4361,8.037,50.4758,0.4572,-0.0348,-0.2695,-65.6659
17:05:50:235,2.34,0.594,7.448,50.3573,0.2571,0.3301,-0.5345,-65.6659
17:05:50:255,1.17,0.795,7.041,50.2372,0.1891,0.6452,-0.7175,-65.6659
17:05:50:274,0.2771,1.1059,6.284,50.127,0.3422,0.7825,-0.7792,-65.6659
17:05:50:296,-0.3041,1.5041,5.2811,49.9563,0.5849,0.7336,-0.7217,-65.6659
17:05:50:314,-0.414,1.968,4.323,49.8049,0.703,0.4749,-0.6164,-65.6659
17:05:50:334,-0.096,2.2031,4.0361,49.5347,0.5881,0.128,-0.5589,-65.6659
17:05:50:355,0.5089,2.399,4.455,49.3002,0.272,-0.2573,-0.6216,-65.6659
17:05:50:374,0.6521,2.382,5.592,49.3591,-0.0846,-0.4636,-0.7675,-65.5687
17:05:50:397,0.813,2.0231,6.696,49.438,-0.408,-0.5372,-0.9005,-65.4471
17:05:50:415,0.83,1.659,7.941,49.4918,-0.689,-0.3978,-0.9366,-65.298
17:05:50:435,0.662,1.497,9.957,49.5578,-0.9762,-0.2146,-0.8984,-65.1212
17:05:50:456,0.198,1.748,11.9351,49.7252,-1.0741,-0.1551,-0.7707,-64.9191
17:05:50:477,-0.2321,2.253,13.0721,48.9894,-0.8337,-0.153,-0.4855,-64.698
17:05:50:496,0.444,2.7341,13.6631,49.1295,-0.1376,-0.3179,0.2914,-64.2461
17:05:50:516,1.352,2.399,14.0081,49.2296,-0.0089,-0.4924,0.5446,-64.0417
17:05:50:536,1.787,2.5241,14.487,49.3224,-0.0186,-0.6563,0.6331,-63.8626
17:05:50:555,2.544,2.33,15.093,49.4295,-0.1324,-0.6733,0.7171,-63.7108
17:05:50:578,3.2141,1.559,15.629,49.3583,-0.2377,-0.4658,0.7512,-63.588
17:05:50:597,2.934,0.35,16.002,49.2391,-0.2409,-0.1338,0.6373,-63.4932
17:05:50:615,1.5461,-0.078,15.275,49.028,0.0506,0.1323,0.4723,-63.4932
17:05:50:636,0.245,-0.1901,13.2491,48.8103,0.6828,0.3079,0.433,-63.4932
17:05:50:657,-0.5291,-0.114,10.61,48.554,1.3458,0.3685,0.5628,-63.4932
17:05:50:678,-0.4571,0.2321,8.499,48.2928,1.7098,0.2834,0.8075,-63.4932
17:05:50:698,0.245,0.41,7.103,48.1835,1.7343,0.0865,0.9885,-63.4932
17:05:50:716,1.2581,0.5051,6.3581,48.1159,1.4905,-0.0848,1.0417,-63.4932
17:05:50:735,2.163,0.5051,6.1931,48.0363,1.1297,-0.105,0.947,-63.587
17:05:50:756,2.4191,0.548,6.191,48.959,0.7743,0.0396,0.7182,-63.7116
17:05:50:776,2.058,0.5291,6.138,48.7671,0.5061,0.3174,0.4658,-63.8571
17:05:50:797,1.32,0.572,5.8151,48.4338,0.3316,0.5984,0.2786,-64.014
17:05:50:815,0.8441,0.714,5.693,48.2783,0.1826,0.7569,0.2159,-64.1758
17:05:50:839,0.7031,0.8381,5.717,48.2831,0.0304,0.7547,0.2318,-64.3406
17:05:50:856,0.6761,1.034,5.6351,48.2334,-0.0685,0.6696,0.252,-64.5087
17:05:50:876,0.4871,1.3151,5.477,48.34,-0.1558,0.5888,0.2478,-64.6805
17:05:50:897,0.1661,1.743,5.745,48.5762,-0.3058,0.5259,0.2456,-64.8555
17:05:50:914,0.0041,2.1431,6.555,48.695,-0.4634,0.426,0.27,-65.034
17:05:50:937,0.114,2.5211,7.584,48.9645,-0.5368,0.1631,0.2839,-65.2167
17:05:50:954,0.672,2.775,8.757,49.3185,-0.5591,-0.3509,0.27,-65.4039
17:05:50:975,1.4,2.9951,9.93,49.5082,-0.5177,-0.9266,0.235,-65.5949
17:05:51:002,2.534,2.691,11.3051,49.4136,-0.4825,-1.3108,0.1966,-65.7876
17:05:51:015,4.172,2.2391,12.959,49.1267,-0.5719,-1.4704,0.2424,-65.981
17:05:51:035,5.894,1.631,14.3,48.9324,-0.6751,-1.2481,0.2893,-66.1762
17:05:51:057,5.9531,1.2881,14.7311,48.8794,-0.5177,-0.517,0.1679,-66.3729
17:05:51:075,4.8071,1.2911,14.171,48.9129,-0.1867,0.2109,-0.0194,-66.5664
17:05:51:096,4.2371,1.542,12.8921,48.9495,0.2167,0.3429,-0.0982,-66.7525
17:05:51:114,4.2731,1.518,11.0651,48.9393,0.4922,-0.0071,-0.2173,-66.9299
17:05:51:135,4.007,1.379,9.442,48.6549,0.5178,-0.2328,-0.4301,-67.0948
17:05:51:154,3.528,0.972,8.808,48.4193,0.2859,-0.0359,-0.6281,-67.2402
17:05:51:174,3.155,0.5531,9.404,48.2924,-0.1398,0.2131,-0.776,-67.3594
17:05:51:196,3.0131,-0.0011,10.352,48.2532,-0.491,0.3301,-0.8345,-67.3594
17:05:51:214,2.87,-0.42,10.7231,48.3202,-0.5719,0.3568,-0.8484,-67.3594
17:05:51:235,2.8961,-0.5831,10.587,48.3451,-0.557,0.2886,-0.8218,-67.3594
17:05:51:255,2.7551,-0.629,10.091,48.2304,-0.5186,0.3174,-0.7866,-67.3594
17:05:51:276,2.0171,-0.4901,9.3731,47.9765,-0.4218,0.4302,-0.8271,-67.3594
17:05:51:296,1.127,-0.147,8.5301,47.6606,-0.2696,0.4898,-0.841,-67.3594
17:05:51:315,0.5711,0.342,7.512,47.3467,-0.0397,0.5196,-0.792,-67.3594
17:05:51:334,0.269,0.797,6.3371,47.1225,0.2454,0.5686,-0.6909,-67.2459
17:05:51:355,0.1691,1.355,5.4911,47.1449,0.4742,0.5973,-0.6335,-67.1128
17:05:51:375,0.03,2.054,4.802,47.2277,0.5562,0.4888,-0.6207,-66.9623
17:05:51:396,-0.0431,2.73,4.694,47.1687,0.487,0.3025,-0.6111,-66.795
17:05:51:415,0.15,3.182,5.238,47.1198,0.238,0.0247,-0.5877,-66.6118
17:05:51:435,0.317,3.3071,6.483,46.9919,-0.0345,-0.1838,-0.6025,-66.4138
17:05:51:456,0.135,3.242,8.276,46.6709,-0.2122,-0.1987,-0.6142,-66.2009
17:05:51:475,-0.0341,3.0701,9.8951,46.6034,-0.2622,-0.1519,-0.5525,-65.9739
17:05:51:497,-0.17,3.074,11.061,46.6041,-0.1611,-0.1019,-0.444,-65.7355
17:05:51:515,-0.3551,3.0341,11.6111,45.7511,0.0219,-0.0572,-0.2971,-65.4903
17:05:51:535,-0.62,3.2081,12.0251,45.9261,0.1933,0.0546,-0.1364,-65.2432
17:05:51:555,-0.5891,3.338,12.083,45.9764,0.3422,0.1536,0.0477,-65.0001
17:05:51:576,-0.335,3.2831,11.9561,45.708,0.4348,0.1801,0.2094,-64.767
17:05:51:597,0.2411,3.137,11.913,45.3387,0.3752,0.0598,0.2871,-64.5484
17:05:51:615,0.65,2.775,11.949,44.9408,0.1539,-0.0785,0.237,-64.3458
17:05:51:635,0.827,2.301,12.612,44.5854,-0.2761,-0.0806,0.1402,-64.1567
17:05:51:655,0.813,1.53,13.8,44.4812,-0.738,0.0535,0.087,-63.9778
17:05:51:675,0.842,0.3071,14.76,44.3922,-0.9753,0.2142,0.0711,-63.8076
17:05:51:696,-0.122,0,14.183,44.3657,-0.7539,0.3514,0.0711,-63.6454
17:05:51:715,-1.133,0.117,12.1931,44.4578,-0.1462,0.4803,0.1796,-63.4915
17:05:51:735,-1.53,0.275,10.038,44.4286,0.4572,0.4718,0.434,-63.3499
17:05:51:755,-1.238,0.419,8.336,44.3472,0.835,0.2269,0.715,-63.2287
17:05:51:775,-0.285,0.5,7.29,44.1236,0.8914,-0.2168,0.9151,-63.1356
17:05:51:797,0.777,0.551,7.0001,43.5777,0.7201,-0.5052,0.9564,-63.1356
17:05:51:814,1.301,0.45,6.947,43.1409,0.488,-0.4095,0.881,-63.1356
17:05:51:835,1.6871,0.354,7.0811,42.8781,0.2284,-0.1775,0.7586,-63.1356
17:05:51:856,1.656,0.386,7.409,42.8365,-0.0483,0.0641,0.6362,-63.1356
17:05:51:874,1.191,0.438,7.67,42.9301,-0.2069,0.2823,0.5085,-63.1356
17:05:51:898,0.648,0.5081,7.67,42.7765,-0.2175,0.3589,0.4414,-63.1356
17:05:51:915,0.545,0.57,7.287,42.5598,-0.1335,0.3121,0.4692,-63.1356
17:05:51:934,0.4421,0.788,6.8111,42.4639,-0.044,0.243,0.5309,-63.2317
17:05:51:955,0.327,1.2041,6.59,42.3287,-0.0058,0.2194,0.6064,-63.3436
17:05:51:974,0.281,1.599,6.155,42.1759,0.0741,0.212,0.6841,-63.4735
17:05:51:996,0.2861,1.997,5.987,41.8635,0.0708,0.129,0.7117,-63.6232
17:05:52:015,0.399,2.2271,6.521,41.9589,-0.0972,-0.0242,0.6863,-63.7927
17:05:52:035,0.5021,2.2241,8.0561,41.5035,-0.3421,-0.1647,0.6192,-63.9804
17:05:52:056,0.732,2.097,9.674,41.4179,-0.5155,-0.3392,0.5468,-64.1836
17:05:52:075,1.395,1.8221,11.1731,41.5699,-0.6198,-0.4212,0.5276,-64.3997
17:05:52:096,2.4311,1.6571,12.749,41.7383,-0.6933,-0.3626,0.5478,-64.6278
17:05:52:115,3.53,1.2881,13.395,41.8676,-0.641,-0.1818,0.4914,-64.8678
17:05:52:135,3.597,1.262,13.452,41.8456,-0.5123,0.0908,0.3105,-65.1163
17:05:52:155,2.982,1.583,13.242,41.4907,-0.441,0.2311,0.0774,-65.3662
17:05:52:175,2.798,1.772,12.921,41.33,-0.3655,0.1471,-0.0609,-65.6103
17:05:52:196,3.396,1.736,12.617,41.1385,-0.3974,-0.0774,-0.1151,-65.8447
17:05:52:215,4.0451,1.128,12.914,40.8805,-0.5666,-0.1455,-0.2046,-66.0677
17:05:52:234,4.0601,-0.032,13.8281,40.9387,-0.7921,0.0418,-0.3695,-66.2761
17:05:52:255,2.7161,-0.861,14.657,40.7004,-0.7582,0.4345,-0.6164,-66.4641
17:05:52:274,1.6961,-1.158,14.561,40.3296,-0.3037,0.6218,-0.6568,-66.6251
17:05:52:295,1.941,-1.107,13.364,39.8465,0.3092,0.3503,-0.4493,-66.7603
17:05:52:315,3.102,-0.981,11.3981,39.2016,0.8647,-0.0498,-0.2386,-66.8773
17:05:52:336,3.7361,-0.605,9.2741,38.9069,1.1584,-0.171,-0.2258,-66.982
17:05:52:355,3.5711,-0.291,7.788,38.778,1.1415,0.0258,-0.3961,-67.0737
17:05:52:375,2.975,-0.08,6.9041,38.816,0.9457,0.2706,-0.6568,-67.0737
17:05:52:397,1.9721,0.156,6.272,38.8887,0.7956,0.4451,-0.9283,-67.0737
17:05:52:415,0.7961,0.453,5.535,38.7746,0.7711,0.4983,-1.1432,-67.0737
17:05:52:436,-0.201,0.771,4.917,38.7023,0.8158,0.4069,-1.2103,-67.0737
17:05:52:455,-0.819,1.097,4.349,38.7543,0.869,0.1779,-1.1591,-67.0737
17:05:52:475,-1.1831,1.413,4.22,38.6558,0.8477,-0.137,-1.0581,-66.961
17:05:52:498,-1.1569,2.0261,4.7711,38.6944,0.5583,-0.6744,-0.8302,-66.6373
17:05:52:516,-0.63,2.004,4.9241,38.6478,0.3124,-0.7777,-0.7419,-66.437
17:05:52:536,-0.431,1.968,5.652,38.3251,-0.1005,-0.6234,-0.7249,-66.2168
17:05:52:555,-0.9701,1.985,7.158,38.1548,-0.59,-0.2839,-0.7601,-65.9782
17:05:52:575,-1.712,2.069,9.0521,37.8056,-0.9486,0.0791,-0.6952,-65.7214
17:05:52:597,-2.325,2.351,10.625,37.5113,-1.0209,0.2695,-0.4312,-65.4514
17:05:52:615,-2.3561,2.801,11.5991,37.3074,-0.8368,0.3014,-0.0257,-65.1788
17:05:52:637,-1.8821,3.3191,11.82,37.1354,-0.5006,0.2152,0.3957,-64.9179
17:05:52:655,-0.936,3.599,11.753,36.9022,-0.225,0.0566,0.6937,-64.6813
17:05:52:676,0.38,3.5561,11.99,36.8425,-0.2027,-0.153,0.8256,-64.4771
17:05:52:698,0.846,3.441,12.753,36.7683,-0.4176,-0.2296,0.7437,-64.3074
17:05:52:718,0.7601,3.263,14.0411,36.6202,-0.6964,-0.1041,0.6064,-64.1678
17:05:52:736,0.593,3.254,15.263,36.5964,-0.8401,0.1599,0.6043,-64.0539
17:05:52:755,0.7511,2.7731,15.581,36.6589,-0.6517,0.4823,0.7404,-64.0539
17:05:52:775,0.825,2.0861,14.6621,36.823,-0.2804,0.4834,0.8011,-64.0539
17:05:52:797,-0.036,1.595,12.914,37.0171,0.1433,0.2472,0.6905,-64.0539
17:05:52:816,-0.936,1.2551,11.223,37.066,0.5657,0.0481,0.601,-64.0539
17:05:52:838,-1.3511,0.9671,9.722,37.0023,0.8212,-0.187,0.6713,-64.0539
17:05:52:857,-1.0991,0.8291,9.0161,36.7305,0.8755,-0.3626,0.8374,-64.0539
17:05:52:875,-0.185,0.596,9.047,36.3776,0.7605,-0.4701,1.0002,-64.0539
17:05:52:896,1.016,0.29,9.0731,35.9613,0.6317,-0.4562,1.0651,-64.1454
17:05:52:915,1.6751,0.206,8.999,35.7275,0.5167,-0.2839,0.9863,-64.2695
17:05:52:937,1.653,0.168,8.903,35.876,0.3934,0.0503,0.8044,-64.4222
17:05:52:955,1.086,0.2561,8.408,35.3394,0.3369,0.411,0.6511,-64.5965
17:05:52:975,0.504,0.4601,7.6871,35.6552,0.3571,0.6963,0.5745,-64.787
17:05:53:009,0.116,0.668,6.986,35.8038,0.3954,0.8207,0.5713,-64.9911
17:05:53:015,-0.0191,0.8741,6.3971,35.7929,0.4125,0.776,0.6075,-65.2082
17:05:53:035,0.0371,1.0871,6.018,35.8006,0.3593,0.5962,0.6564,-65.4392
17:05:53:056,0.044,1.461,5.793,35.8611,0.2603,0.4355,0.6894,-65.6853
17:05:53:075,0.035,1.791,5.958,35.9066,0.1347,0.2886,0.7085,-65.9473
17:05:53:097,0.2411,2.0741,7.0571,35.7704,-0.026,0.146,0.7362,-66.2258
17:05:53:115,0.408,2.2241,8.231,35.7917,-0.0664,-0.0125,0.7256,-66.5215
17:05:53:135,0.755,2.2481,8.841,35.7598,0.0613,-0.1722,0.7245,-66.8335
17:05:53:155,1.292,2.4761,9.219,35.8019,0.139,-0.3318,0.7117,-67.1609
17:05:53:175,1.9361,2.595,10.053,35.699,0.073,-0.3904,0.6447,-67.5025
17:05:53:197,2.688,2.634,10.8401,35.5233,-0.0642,-0.3754,0.5585,-67.8554
17:05:53:217,3.293,2.538,11.1491,35.2597,-0.1048,-0.2296,0.4723,-68.2167
17:05:53:235,3.0731,2.756,11.111,35.2581,-0.0846,-0.0146,0.3062,-68.5828
17:05:53:254,2.57,2.991,11.24,35.4452,-0.1282,0.045,0.1094,-68.9472
17:05:53:274,2.831,2.897,11.4341,35.563,-0.242,-0.1562,-0.0279,-69.3036
17:05:53:297,3.6671,2.538,11.7791,35.4096,-0.4272,-0.403,-0.1321,-69.648
17:05:53:314,4.242,1.817,12.203,35.0781,-0.6507,-0.5042,-0.3589,-69.9768
17:05:53:335,4.021,0.7901,13.103,34.7731,-0.8635,-0.3893,-0.6898,-70.2816
17:05:53:355,2.7551,0.062,13.814,34.5695,-0.8933,-0.0806,-0.9984,-70.5516
17:05:53:375,1.895,-0.3461,13.953,34.7446,-0.6773,0.1312,-1.0751,-70.7788
17:05:53:398,1.9361,-0.542,13.773,34.7522,-0.3399,-0.0114,-0.9644,-70.9633
17:05:53:416,2.8241,-0.4901,12.471,34.526,0.0784,-0.2999,-0.7824,-71.1108
17:05:53:435,3.3251,-0.222,10.347,34.4232,0.4381,-0.3637,-0.7281,-71.2276
17:05:53:456,3.0401,0.077,8.523,34.3908,0.5061,-0.2828,-0.8547,-71.2276
17:05:53:475,2.1941,0.4001,7.388,34.5092,0.3422,-0.1221,-1.0229,-71.2276
17:05:53:498,1.4741,0.7061,6.6101,34.6486,0.2486,0.1002,-1.1452,-71.2276
17:05:53:516,0.966,0.876,5.867,34.855,0.3508,0.3387,-1.2272,-71.2276
17:05:53:537,0.2621,1.125,4.7831,34.9676,0.553,0.5728,-1.2911,-71.2276
17:05:53:555,-0.584,1.523,4.1651,34.9721,0.6647,0.6973,-1.2656,-71.1198
17:05:53:575,-0.977,1.832,3.4301,34.9295,0.6296,0.5292,-1.14,-70.9711
17:05:53:598,-1.056,2.33,4.0601,35.0006,0.3943,0.393,-1.0431,-70.787
17:05:53:615,-1.0901,2.646,4.661,35.1133,0.139,0.2567,-0.9283,-70.5722
17:05:53:635,-1.125,2.816,5.3531,35.1667,-0.0217,0.0333,-0.8751,-70.3318
17:05:53:655,-1.2071,2.9621,6.356,35.2578,-0.2229,-0.1508,-0.8378,-70.069
17:05:53:675,-1.47,3.0551,7.4981,35.2333,-0.4389,-0.3136,-0.8143,-69.7863
17:05:53:698,-1.8101,3.189,8.8031,35.1918,-0.6421,-0.3594,-0.7579,-69.486
17:05:53:715,-2.157,3.35,10.215,35.4199,-0.7912,-0.2914,-0.5749,-69.1718
17:05:53:735,-2.217,3.596,11.6231,35.5431,-0.839,-0.1807,-0.3185,-68.8515
17:05:53:756,-1.949,3.512,12.677,36.2047,-0.7667,-0.1412,-0.0641,-68.534
17:05:53:775,-1.473,3.383,13.572,36.3613,-0.7007,-0.1977,0.136,-68.2274
17:05:53:796,-0.855,3.1031,14.496,36.4014,-0.707,-0.2914,0.2882,-67.9376
17:05:53:815,0.0161,2.876,15.485,36.4304,-0.822,-0.4254,0.3861,-67.6688
17:05:53:835,0.7961,2.5241,16.041,36.6232,-0.9019,-0.3498,0.4499,-67.4235
17:05:53:855,0.99,1.638,15.959,36.8648,-0.8231,-0.0327,0.4584,-67.2028
17:05:53:875,-0.077,0.9341,15.0401,36.9579,-0.6071,0.2482,0.3095,-67.0048
17:05:53:897,-1.535,0.7331,12.89,37.3299,-0.1048,0.4345,0.2563,-66.8234
17:05:53:915,-2.201,0.5681,10.6271,37.6605,0.439,0.492,0.4616,-66.6573
17:05:53:935,-2.141,0.582,9.186,37.8963,0.6743,0.1918,0.7426,-66.5127
17:05:53:955,-1.233,0.3161,8.9081,38.1835,0.6647,-0.2892,0.9629,-66.3975
17:05:53:974,0.1661,-0.102,8.894,38.3973,0.5859,-0.7106,1.0566,-66.3975
17:05:53:997,1.182,-0.236,8.681,38.4535,0.5519,-0.7521,1.0671,-66.3975
17:05:54:015,1.6721,-0.3581,8.202,38.4037,0.5061,-0.502,0.949,-66.3975
17:05:54:035,1.452,-0.248,7.79,38.3231,0.4029,-0.0732,0.7682,-66.3975
17:05:54:055,1.019,-0.138,7.493,38.3501,0.272,0.2982,0.6692,-66.3975
17:05:54:075,0.7271,0.077,7.551,38.4143,0.1422,0.4803,0.6181,-66.3975
17:05:54:096,0.6791,0.2539,7.644,38.5925,0.122,0.4834,0.6203,-66.3975
17:05:54:115,0.7751,0.398,7.2131,37.6483,0.221,0.4175,0.6288,-66.5075
17:05:54:135,0.684,0.6491,6.468,37.8483,0.3476,0.3398,0.6394,-66.6354
17:05:54:155,0.521,1.109,5.817,38.0065,0.3647,0.2674,0.6414,-66.7807
17:05:54:176,0.38,1.5491,5.618,38.0834,0.2677,0.2376,0.6234,-66.9427
17:05:54:197,0.4391,1.848,5.903,38.1692,0.0815,0.194,0.5979,-67.1206
17:05:54:215,0.669,1.925,7.067,38.1193,-0.143,0.0791,0.5628,-67.3134
17:05:54:235,1.098,1.935,8.3261,38.3811,-0.3516,-0.103,0.4649,-67.5195
17:05:54:255,1.232,1.956,9.674,38.6444,-0.458,-0.1488,0.3755,-67.7355
17:05:54:275,1.6751,1.908,11.027,39.0485,-0.5496,-0.1551,0.3201,-67.9585
17:05:54:298,2.661,1.506,12.059,39.46,-0.5613,-0.0828,0.3158,-68.1867
17:05:54:315,3.315,1.358,12.3251,39.7166,-0.4654,0.0225,0.286,-68.4199
17:05:54:335,3.26,1.449,12.4661,39.9184,-0.4293,0.0225,0.1147,-68.6557
17:05:54:355,2.805,1.6691,12.863,40.0382,-0.4708,-0.0359,-0.1247,-68.8874
17:05:54:376,2.781,1.707,13.314,40.1021,-0.4804,-0.103,-0.2513,-69.1077
17:05:54:396,3.5381,1.346,13.637,40.2972,-0.5006,-0.2658,-0.3046,-69.3135
17:05:54:415,3.9041,0.563,14.003,40.7667,-0.5453,-0.2903,-0.4482,-69.5027
17:05:54:435,2.937,-0.2021,14.372,41.3296,-0.4879,-0.0327,-0.6887,-69.6701
17:05:54:455,1.905,-0.7391,14.226,41.7947,-0.1749,0.2461,-0.8058,-69.8086
17:05:54:476,1.692,-0.851,13.11,42.1275,0.3402,0.1961,-0.6995,-69.9161
17:05:54:498,3.281,-0.258,8.7191,42.0824,1.0765,-0.3861,-0.4696,-69.9161
17:05:54:515,3.2651,0.125,6.8231,41.9816,0.917,-0.3956,-0.6685,-69.9161
17:05:54:535,2.838,0.06,5.7791,42.0154,0.4806,-0.2445,-0.9665,-69.9161
17:05:54:556,2,0.062,5.8511,41.8906,-0.092,-0.0529,-1.2581,-69.9161
17:05:54:576,0.7391,0.165,6.6,41.8521,-0.4569,0.1801,-1.4923,-69.9161
17:05:54:597,-0.3431,0.395,6.713,41.7945,-0.4165,0.3238,-1.5572,-69.8033
17:05:54:615,-0.999,0.6851,5.8721,41.7237,-0.0909,0.261,-1.4209,-69.642
17:05:54:635,-1.0991,0.989,5.0561,41.9477,0.1411,-0.0678,-1.2198,-69.4387
17:05:54:656,-0.915,1.269,4.989,42.1059,0.1401,-0.436,-1.0473,-69.2008
17:05:54:676,-0.893,1.494,5.606,42.2442,0.0304,-0.6116,-0.9197,-68.935
17:05:54:696,-0.8261,1.6211,6.792,42.6047,-0.0792,-0.6266,-0.825,-68.6465
17:05:54:715,-0.6131,1.755,8.0771,42.6302,-0.0972,-0.5925,-0.6748,-68.3395
17:05:54:735,-0.4931,2.016,9.1309,42.6683,-0.0473,-0.5329,-0.5004,-68.0199
17:05:54:756,-0.7061,2.3111,10.043,42.8346,0.0326,-0.3722,-0.3578,-67.6939
17:05:54:775,-0.869,2.756,10.692,42.8899,0.1283,-0.1668,-0.2089,-67.3664
17:05:54:798,-0.9581,3.2081,11.015,42.9316,0.2358,0.0034,-0.0012,-67.0429
17:05:54:815,-0.9101,3.623,11.159,43.0097,0.2859,0.096,0.1892,-66.7305
17:05:54:840,-0.536,3.7061,11.357,43.1375,0.2262,0.1013,0.3477,-66.4352
17:05:54:855,-0.201,3.474,11.8721,43.242,0.0272,0.0896,0.4393,-66.1613
17:05:54:876,0.42,3.053,13.151,43.5095,-0.3325,0.0726,0.4903,-65.9109
17:05:54:896,0.722,2.8781,15.366,43.7102,-0.7815,0.0353,0.5478,-65.6852
17:05:54:915,1.304,2.402,16.527,43.8705,-0.8284,0.1844,0.7085,-65.486
17:05:54:937,1.385,1.853,15.4541,44.1678,-0.3974,0.3696,0.8363,-65.3181
17:05:54:956,0.6521,0.965,13.443,44.6036,0.0261,0.3781,0.7682,-65.1837
17:05:54:975,-0.383,0.6701,11.559,44.8846,0.3029,0.2163,0.6117,-65.078
17:05:54:996,-0.884,0.39,10.0241,45.1641,0.4635,0.0077,0.665,-65.078
17:05:55:021,-0.888,0.2351,8.942,45.1738,0.5488,-0.171,0.8224,-65.078
17:05:55:035,-0.156,-0.0371,8.535,45.0118,0.5136,-0.3861,0.9789,-65.078
17:05:55:056,1.0451,-0.2141,8.283,44.9254,0.4188,-0.5914,1.0736,-65.078
17:05:55:075,1.854,-0.2891,7.9481,44.8976,0.3231,-0.617,1.0076,-65.078
17:05:55:097,2.0651,-0.38,7.701,44.9676,0.1763,-0.4126,0.8011,-65.078
17:05:55:115,1.44,-0.162,7.8161,45.2839,0.073,0.0099,0.5765,-65.1783
17:05:55:135,0.7751,-0.009,7.632,45.5884,0.1114,0.4249,0.4883,-65.2944
17:05:55:155,0.4421,0.1961,7.1771,45.848,0.2549,0.6377,0.5543,-65.4242
17:05:55:175,0.542,0.4451,6.962,46.0607,0.3189,0.5834,0.665,-65.5701
17:05:55:197,0.645,0.752,6.7511,46.4688,0.355,0.4302,0.7213,-65.7349
17:05:55:215,0.72,1.046,6.6191,46.435,0.4051,0.3131,0.7096,-65.9194
17:05:55:235,0.71,1.394,6.5141,46.3904,0.4008,0.2142,0.6946,-66.1225
17:05:55:255,0.8081,1.731,6.65,46.467,0.3146,0.1258,0.6863,-66.3431
17:05:55:275,1.2251,1.9301,7.194,46.3961,0.1507,0.0375,0.6564,-66.5805
17:05:55:296,1.62,1.985,8.1131,46.3909,-0.0419,-0.0146,0.5372,-66.8326
17:05:55:315,1.704,2.054,9.21,46.5842,-0.1814,-0.0114,0.3744,-67.0945
17:05:55:335,1.845,2.1,10.4,46.7234,-0.2644,-0.0114,0.2626,-67.3606
17:05:55:355,2.235,2.064,11.4941,46.9841,-0.258,-0.0678,0.2244,-67.6275
17:05:55:376,3.0041,1.944,11.829,47.3582,-0.1621,-0.1477,0.2307,-67.8942
17:05:55:397,3.653,1.935,11.264,47.4939,-0.0132,-0.1295,0.2094,-68.1608
17:05:55:415,3.612,2.064,10.6991,47.6079,-0.0047,-0.088,0.054,-68.4256
17:05:55:435,3.0731,2.102,10.85,47.6685,-0.2047,-0.137,-0.1301,-68.683
17:05:55:455,2.882,1.8011,11.3501,47.9203,-0.4559,-0.3392,-0.1833,-68.9275
17:05:55:475,3.8111,1.2431,12.452,48.2758,-0.7315,-0.7052,-0.1332,-69.1586
17:05:55:497,5.036,0.3191,13.1771,48.4331,-0.8518,-0.934,-0.2035,-69.3777
17:05:55:515,3.9761,-0.4901,12.7511,48.4146,-0.6794,-0.5499,-0.5781,-69.5797
17:05:55:535,2.139,-0.9521,12.425,48.2122,-0.4921,0.0481,-0.8239,-69.7525
17:05:55:555,1.4381,-0.7361,12.7271,48.1239,-0.392,0.2397,-0.6377,-69.8921
17:05:55:576,2.2931,-0.495,12.203,48.0802,-0.1057,-0.0019,-0.2897,-70.0077
17:05:55:596,3.234,-0.1931,10.6061,48.1491,0.2497,-0.3605,-0.1162,-70.1114
17:05:55:615,3.5381,0.1031,8.99,48.3071,0.4008,-0.469,-0.2003,-70.2084
17:05:55:635,2.9891,0.383,7.764,48.3857,0.32,-0.2914,-0.4909,-70.2084
17:05:55:655,1.866,0.479,6.8801,48.5201,0.1603,0.111,-0.7963,-70.2084
17:05:55:675,0.66,0.7301,6.6,48.4805,0.0549,0.5228,-0.9761,-70.2084
17:05:55:697,-0.266,0.8861,6.291,48.3307,0.0964,0.7484,-0.9963,-70.2084
17:05:55:715,-0.831,1.14,5.8031,48.1496,0.2773,0.7133,-0.8973,-70.2084
17:05:55:735,-0.876,1.4561,5.18,48.0945,0.4327,0.4632,-0.7419,-70.2084
17:05:55:756,-0.584,1.7291,4.7441,48.1324,0.4498,0.128,-0.6111,-70.2084
17:05:55:775,-0.2681,1.9781,4.68,48.0771,0.289,-0.1488,-0.56,-70.1074
17:05:55:797,0.233,2.114,5.123,48.1388,-0.0132,-0.2797,-0.56,-69.9903
17:05:55:816,0.351,2.229,6.1931,48.26,-0.425,-0.4265,-0.56,-69.8576
17:05:55:835,0.698,2.169,8.274,48.5836,-0.8231,-0.6403,-0.5897,-69.7092
17:05:55:858,0.9131,2.361,10.946,49.0649,-0.9731,-0.817,-0.7015,-69.5437
17:05:55:876,0.435,2.387,11.903,49.3594,-0.6815,-0.6648,-0.8708,-69.3566
17:05:55:896,-0.525,2.507,11.166,49.5175,-0.2133,-0.1796,-0.8165,-69.1443
17:05:55:915,-0.683,2.643,11.003,48.1905,-0.1026,0.3281,-0.4482,-68.9126
17:05:55:936,-0.026,2.5361,12.3611,48.0555,-0.3101,0.5324,-0.0183,-68.6752
17:05:55:956,0.882,2.234,14.132,48.1071,-0.4602,0.4355,0.3201,-68.4463
17:05:55:976,1.5071,2.0089,15.102,48.2355,-0.4122,0.0896,0.4649,-68.2357
17:05:55:997,2.204,2.174,15.54,48.5204,-0.3356,-0.2168,0.6075,-68.0477
17:05:56:015,2.774,1.616,15.6341,48.8426,-0.2483,-0.136,0.7117,-67.8865
17:05:56:036,2.142,1.001,15.6101,49.0624,-0.092,0.0918,0.5873,-67.7536
17:05:56:055,0.909,0.608,14.2451,49.1991,0.256,0.1801,0.4414,-67.6433
17:05:56:075,-0.2111,0.474,12.1001,49.0476,0.8223,0.2663,0.433,-67.5515
17:05:56:098,-0.635,0.4691,10.124,48.9024,1.2404,0.1833,0.6043,-67.5515
17:05:56:116,-0.194,0.489,8.621,48.6908,1.4671,-0.1136,0.815,-67.5515
17:05:56:135,0.861,0.407,7.3781,48.287,1.4799,-0.5532,0.9373,-67.5515
17:05:56:155,2.182,0.4361,6.9881,47.8518,1.2127,-0.8606,0.9001,-67.5515
17:05:56:176,2.877,0.362,6.674,47.4622,0.836,-0.7829,0.6661,-67.5515
17:05:56:196,2.7,0.168,6.5471,47.1993,0.47,-0.352,0.3158,-67.5515
17:05:56:215,1.9811,0.038,6.78,46.9588,0.0602,0.1822,0.0412,-67.5515
17:05:56:235,1.067,0.12,7.184,46.9235,-0.2271,0.5888,-0.0971,-67.5515
17:05:56:257,0.59,0.213,7.2461,46.8083,-0.293,0.7814,-0.0726,-67.5515
17:05:56:275,0.392,0.402,7.019,46.5106,-0.2196,0.7547,0.0221,-67.5515
17:05:56:297,0.356,0.551,6.6791,46.4616,-0.1409,0.642,0.1317,-67.5515
17:05:56:315,0.114,0.845,6.602,46.1693,-0.1079,0.5803,0.2584,-67.5515
17:05:56:336,0.1451,1.19,6.5591,45.786,-0.077,0.5398,0.4148,-67.5515
17:05:56:356,0.2771,1.5971,6.725,45.6717,-0.0558,0.4568,0.5628,-67.6563
17:05:56:375,0.3941,1.923,7.385,47.1238,-0.1259,0.3003,0.6639,-67.7779
17:05:56:397,0.5951,2.318,8.075,47.2137,-0.2036,0.1204,0.7426,-67.9193
17:05:56:415,0.789,2.555,8.571,47.5975,-0.2452,-0.0296,0.7851,-68.0824
17:05:56:435,1.4,2.576,9.059,47.7846,-0.3484,-0.1147,0.8161,-68.2677
17:05:56:456,2.922,1.985,10.182,47.8329,-0.6145,-0.1977,0.8172,-68.4755
17:05:56:475,4.344,1.233,12.279,47.8055,-1.0604,-0.3031,0.6702,-68.7042
17:05:56:496,4.431,0.6731,14.37,47.6852,-1.3062,-0.1519,0.3286,-68.9461
17:05:56:515,2.901,0.728,14.891,47.7063,-1.1008,0.2599,-0.0034,-69.1886
17:05:56:535,1.9241,1.0511,14.214,47.5853,-0.6985,0.4696,-0.1002,-69.422
17:05:56:555,2.7071,1.4321,13.886,47.2429,-0.5101,0.2556,0.0318,-69.6455
17:05:56:576,4.33,0.872,13.979,46.935,-0.4868,-0.0062,0.1508,-69.8645
17:05:56:597,2.52,-1.419,13.824,46.6001,-0.2739,0.4621,-0.5504,-70.285
17:05:56:615,1.203,-1.6751,13.4051,46.4473,0.1156,0.6696,-0.6429,-70.4628
17:05:56:636,1.4501,-1.6991,12.521,46.3888,0.587,0.4866,-0.4121,-70.6147
17:05:56:658,3.035,-1.4591,10.79,46.2231,1.0457,0.0652,-0.1141,-70.7495
17:05:56:675,4.215,-0.954,8.9921,46.0084,1.2415,-0.153,-0.0492,-70.8762
17:05:56:697,4.253,-0.2651,7.5671,45.7916,1.1245,-0.1126,-0.3205,-70.9947
17:05:56:716,3.2261,0.2441,6.5981,45.5082,0.8573,0.2046,-0.7164,-71.0948
17:05:56:737,1.859,0.51,5.966,45.3799,0.5987,0.5547,-1.0271,-71.0948
17:05:56:756,0.825,0.872,5.69,45.4086,0.4796,0.8122,-1.1165,-71.0948
17:05:56:775,0.2381,1.3001,4.958,45.2778,0.5519,0.8686,-1.0623,-71.0948
17:05:56:797,-0.0551,1.667,3.983,45.2864,0.6775,0.7686,-0.9591,-71.0948
17:05:56:816,-0.129,1.98,3.243,45.2468,0.6424,0.6324,-0.8654,-71.0948
17:05:56:836,-0.144,2.2841,3.114,45.1914,0.404,0.4983,-0.8069,-70.9858
17:05:56:856,-0.0461,2.354,3.555,45.232,0.0368,0.344,-0.7803,-70.8513
17:05:56:875,-0.201,2.3201,4.697,45.0685,-0.3442,0.1631,-0.8154,-70.6944
17:05:56:897,-0.5561,2.129,6.509,44.9345,-0.6815,-0.0828,-0.9229,-70.5157
17:05:56:915,-0.944,1.688,8.259,44.8855,-0.8646,-0.3372,-0.9729,-70.314
17:05:56:939,-1.3841,1.4291,10.0721,44.6911,-0.9987,-0.5127,-0.9005,-70.09
17:05:56:955,-1.647,1.583,11.9921,44.0738,-1.0806,-0.6201,-0.7154,-69.8479
17:05:56:975,-1.916,1.722,13.316,43.7794,-0.9508,-0.452,-0.4482,-69.5951
17:05:56:997,-2.0981,1.908,13.515,43.4267,-0.5709,-0.1147,-0.1481,-69.34
17:05:57:026,-1.7171,1.793,13.3091,43.2594,-0.2793,-0.0008,0.153,-69.0915
17:05:57:035,-0.944,1.6331,13.788,43.2672,-0.293,-0.186,0.3116,-68.858
17:05:57:056,-0.168,1.58,14.781,43.4015,-0.4443,-0.4393,0.4,-68.6437
17:05:57:075,0.5111,1.8101,15.761,43.5169,-0.5676,-0.5222,0.4564,-68.4513
17:05:57:096,0.7361,1.9661,15.741,43.4561,-0.4218,-0.187,0.5745,-68.2825
17:05:57:115,0.4661,1.827,14.5661,43.4262,0.0016,0.3409,0.7224,-68.1404
17:05:57:137,0.066,1.307,12.813,43.0792,0.3124,0.3164,0.6915,-68.0268
17:05:57:156,-0.9911,1.0151,11.1131,42.8994,0.554,0.1779,0.5659,-68.0268
17:05:57:176,-1.832,0.749,9.72,42.7706,0.7871,0.096,0.5468,-68.0268
17:05:57:197,-2.196,0.6611,8.5541,42.5944,0.9669,-0.0796,0.6787,-68.0268
17:05:57:217,-1.995,0.5651,7.814,42.353,1.0095,-0.3765,0.8522,-68.0268
17:05:57:236,-0.972,0.3521,7.812,42.0013,0.8797,-0.716,1.0013,-68.0268
17:05:57:255,0.5261,-0.138,8.274,41.5568,0.6456,-0.9778,1.0332,-68.0268
17:05:57:275,1.464,-0.212,9.0161,41.3605,0.3465,-1.0725,0.9054,-68.0268
17:05:57:298,1.871,-0.36,9.33,41.2975,0.1805,-0.8053,0.6628,-68.0268
17:05:57:316,1.2221,-0.21,8.858,41.3453,0.2241,-0.169,0.4361,-68.1349
17:05:57:335,0.834,-0.147,8.008,41.3712,0.3007,0.4175,0.3637,-68.2538
17:05:57:355,0.777,0.1031,7.395,41.5586,0.2998,0.6963,0.4084,-68.3818
17:05:57:375,0.7871,0.383,7.014,41.9108,0.2699,0.741,0.4095,-68.5199
17:05:57:396,0.593,0.6491,6.368,42.132,0.2955,0.6941,0.3297,-68.667
17:05:57:416,0.291,0.989,5.697,42.3425,0.3263,0.6474,0.2786,-68.8201
17:05:57:436,0.111,1.499,5.6591,42.3279,0.2295,0.5526,0.2743,-68.9774
17:05:57:455,0.123,1.872,5.762,42.1702,0.0826,0.4132,0.2743,-69.139
17:05:57:476,0.3461,2.064,6.44,42.0049,-0.0962,0.2641,0.2595,-69.3049
17:05:57:499,0.6761,2.045,7.577,41.8705,-0.3462,0.0524,0.1946,-69.4748
17:05:57:517,0.7361,1.9631,9.018,41.7601,-0.54,-0.0433,0.1009,-69.6467
17:05:57:535,0.945,1.863,10.3901,41.7651,-0.6527,-0.1189,0.0668,-69.8183
17:05:57:555,1.67,1.5761,11.7551,41.7662,-0.7241,-0.2296,0.1158,-69.9892
17:05:57:576,2.939,1.226,12.686,41.6492,-0.6985,-0.27,0.2094,-70.1616
17:05:57:597,3.341,1.4651,12.8951,41.8054,-0.522,-0.1317,0.1914,-70.3379
17:05:57:615,2.798,1.86,12.65,41.9469,-0.2793,-0.0392,0.0381,-70.5155
17:05:57:635,2.8031,2.543,12.423,42.2627,-0.1165,-0.235,-0.0374,-70.689
17:05:57:656,3.993,2.7611,12.3611,42.4951,-0.1409,-0.6479,-0.03,-70.8564
17:05:57:675,5.625,2.045,12.878,42.4819,-0.4005,-0.8767,-0.162,-71.0175
17:05:57:696,5.3861,0.4451,13.9151,42.2799,-0.7113,-0.7074,-0.627,-71.1662
17:05:57:715,2.798,-0.626,14.336,41.975,-0.7389,-0.1733,-1.2678,-71.2851
17:05:57:735,0.791,-1.0601,14.331,41.6834,-0.507,0.2014,-1.4433,-71.2851
17:05:57:754,0.324,-1.0361,13.4981,41.8167,-0.0579,0.2333,-1.1389,-71.2851
17:05:57:775,1.4981,-0.897,11.961,41.8925,0.4114,-0.0848,-0.7314,-71.2851
17:05:57:797,2.9531,-0.626,10.053,41.8705,0.7127,-0.3222,-0.5111,-71.2851
17:05:57:815,3.2531,-0.3341,8.231,41.7598,0.7882,-0.2009,-0.6238,-71.2851
17:05:57:835,2.496,-0.0491,7.002,41.462,0.6743,0.0769,-0.9144,-71.2851
17:05:57:855,1.364,0.249,6.107,40.9238,0.554,0.329,-1.1495,-71.1737
17:05:57:875,0.365,0.539,5.408,40.6094,0.5306,0.4994,-1.2326,-71.025
17:05:57:898,-0.2801,0.8021,4.589,40.4942,0.6307,0.4525,-1.1793,-70.8382
17:05:57:915,-0.417,1.101,4.0481,40.3385,0.7221,0.1812,-1.0506,-70.6165
17:05:57:936,-0.414,1.544,3.648,40.4751,0.736,-0.1306,-0.9687,-70.3647
17:05:57:955,-0.534,1.9901,3.147,40.7747,0.6797,-0.3956,-0.9272,-70.0861
17:05:57:975,-0.797,2.5451,3.645,40.7318,0.4103,-0.5085,-0.9164,-69.7828
17:05:57:997,-0.6371,2.895,5.003,40.6087,-0.0069,-0.6329,-0.891,-69.4567
17:05:58:018,-0.5561,2.9831,7.175,40.3799,-0.425,-0.7223,-0.8953,-69.1098
17:05:58:035,-0.165,2.84,9.854,40.2581,-0.7986,-0.8022,-0.8378,-68.7433
17:05:58:055,-0.015,2.7851,11.978,40.2789,-0.9742,-0.7862,-0.7197,-68.3603
17:05:58:075,-0.302,3.041,13.268,40.33,-0.839,-0.5372,-0.5248,-67.9654
17:05:58:097,-0.465,3.194,13.706,40.3447,-0.5442,-0.1573,-0.2482,-67.566
17:05:58:116,-0.137,3.1271,14.003,40.2616,-0.2591,0.1247,0.0754,-67.1721
17:05:58:135,0.423,3.0821,14.259,40.1949,-0.0866,0.095,0.3021,-66.7943
17:05:58:155,0.878,2.847,14.228,40.1925,0.0368,-0.0626,0.3915,-66.4389
17:05:58:176,1.251,2.648,14.159,40.2937,0.0411,-0.1987,0.3818,-66.1074
17:05:58:197,1.538,2.1431,14.3981,40.3839,-0.127,-0.1753,0.3435,-65.7987
17:05:58:215,1.7831,1.118,15.387,40.4028,-0.3942,-0.0093,0.2871,-65.5105
17:05:58:235,1.251,0.3041,16.2011,40.3755,-0.4645,0.2035,0.202,-65.2398
17:05:58:255,0.092,0.0911,15.2411,40.618,0.0241,0.4408,0.1605,-64.9834
17:05:58:275,-0.987,0.242,12.756,40.8286,0.8925,0.5697,0.268,-64.7408
17:05:58:296,-1.1951,0.5291,10.479,40.7098,1.5511,0.4164,0.4988,-64.5162
17:05:58:314,-0.4241,0.7451,8.8871,40.5664,1.7406,-0.054,0.7373,-64.3166
17:05:58:336,0.681,1.0369,8.298,40.2409,1.5469,-0.4977,0.8682,-64.1491
17:05:58:354,1.689,1.113,8.3621,39.8973,1.1723,-0.5276,0.8448,-64.0166
17:05:58:375,2.175,1.2431,8.3479,39.7448,0.8764,-0.2115,0.733,-63.9171
17:05:58:397,2.079,1.4081,8.238,39.6384,0.6923,0.2812,0.6064,-63.9171
17:05:58:415,1.704,1.611,7.9601,39.5224,0.6062,0.6537,0.4766,-63.9171
17:05:58:436,1.289,1.695,7.266,39.5037,0.6009,0.7091,0.3893,-63.9171
17:05:58:455,1.2701,1.836,6.681,39.7534,0.5497,0.5526,0.3403,-63.9171
17:05:58:475,2.166,2.018,6.6221,39.9669,0.4412,0.4132,0.3127,-63.9171
17:05:58:500,2.2901,2.744,7.5461,40.1978,0.2998,0.4345,-0.2567,-63.9171
17:05:58:516,0.305,3.522,8.762,40.1938,0.3114,0.3259,-0.7175,-63.9171
17:05:58:536,-0.623,4.1179,9.224,40.1325,0.5721,0.012,-0.7239,-63.9171
17:05:58:556,-0.3161,4.322,8.525,40.1659,0.9478,-0.2467,-0.4227,-63.9171
17:05:58:575,0.576,4.3031,7.883,40.2002,1.1,-0.1807,-0.1875,-63.9171
17:05:58:596,1.203,4.413,7.773,39.9988,0.9861,0.1099,-0.047,-63.9171
17:05:58:615,1.5,4.446,8.441,40.196,0.7573,0.3919,-0.0439,-63.9171
17:05:58:634,1.7081,4.367,9.2981,39.793,0.5466,0.3227,-0.1002,-63.9171
17:05:58:655,1.8401,4.269,9.6,39.6336,0.5008,0.212,-0.1067,-63.823
17:05:58:674,1.385,4.571,9.624,39.6297,0.587,0.2844,-0.1067,-63.7266
17:05:58:696,0.7841,4.8101,9.4211,39.6571,0.7201,0.4185,-0.1258,-63.6274
17:05:58:714,0.662,5.162,8.9441,39.7394,0.7573,0.2823,-0.1449,-63.5241
17:05:58:735,1.4501,5.2991,8.5871,39.8665,0.6072,0.0428,-0.1099,-63.4163
17:05:58:755,2.448,4.884,8.444,39.742,0.338,0.0173,-0.1429,-63.3058
17:05:58:776,2.46,4.113,8.525,39.5297,0.0613,0.3312,-0.3237,-63.1908
17:05:58:797,1.562,3.659,8.6111,39.4053,-0.0622,0.6654,-0.494,-63.0657
17:05:58:816,0.576,3.716,9.315,39.1917,-0.0004,0.6898,-0.6463,-62.925
17:05:58:838,-0.228,3.8261,8.8961,39.3699,0.2039,0.2131,-0.7239,-62.7632
17:05:58:855,0.102,4.1569,7.9241,39.6491,0.3072,-0.3701,-0.5536,-62.5789
17:05:58:876,1.3421,4.209,7.553,39.7996,0.0953,-0.6064,-0.2801,-62.38
17:05:58:899,2.022,4.001,7.749,39.8493,-0.2388,-0.3616,-0.2152,-62.1775
17:05:58:915,1.6511,3.627,8.168,39.788,-0.3985,0.0598,-0.3737,-61.9733
17:05:58:939,0.3341,3.6011,8.2451,39.6289,-0.3612,0.1694,-0.6122,-61.7617
17:05:58:954,-1.0661,3.711,7.541,39.6421,-0.0824,0.1332,-0.7228,-61.5343
17:05:58:976,-1.616,3.8741,6.5261,39.6353,0.2762,0.1195,-0.6142,-61.2876
17:05:58:999,-1.4321,4.188,5.429,39.3353,0.5275,0.0162,-0.3971,-61.0253
17:05:59:015,-0.7691,4.475,4.682,39.274,0.5647,-0.0742,-0.2343,-60.7541
17:05:59:045,-0.218,4.5641,4.5979,38.943,0.4157,0.012,-0.2163,-60.4791
17:05:59:056,-0.206,4.566,5.484,38.7873,0.2007,0.2206,-0.3077,-60.2012
17:05:59:075,-0.7061,4.9301,6.408,38.9855,0.0751,0.2621,-0.3961,-59.9182
17:05:59:098,-1.221,5.153,6.9281,40.6164,0.1316,0.1184,-0.4047,-59.6282
17:05:59:115,-1.391,5.5841,7.077,40.4267,0.2443,-0.1913,-0.2833,-59.3313
17:05:59:135,-1.08,6.041,7.4051,40.2243,0.2326,-0.4775,-0.1375,-59.0321
17:05:59:156,-0.675,6.3281,7.922,40.0062,0.1305,-0.4638,-0.0257,-58.736
17:05:59:175,-0.513,6.5891,8.798,40.0467,0.0177,-0.2254,0.0455,-58.4478
17:05:59:196,-0.623,6.7661,9.672,40.0636,-0.0366,-0.0529,0.0381,-58.1698
17:05:59:215,-1.0031,6.924,10.043,40.0259,-0.0217,-0.0956,-0.0172,-57.9015
17:05:59:236,-1.1569,6.872,9.962,39.8919,-0.0462,-0.1722,-0.0236,-57.6406
17:05:59:255,-1.391,7.0181,10.0451,39.5958,-0.2388,-0.1699,-0.0098,-57.3872
17:05:59:275,-1.722,7.037,10.577,39.4592,-0.6006,-0.0455,0.036,-57.1432
17:05:59:297,-1.43,5.979,11.834,39.4697,-0.9252,0.2109,0.1467,-56.9129
17:05:59:315,-0.4571,4.7531,12.423,39.3334,-0.9879,0.2067,0.2691,-56.7018
17:05:59:335,0.233,3.599,11.513,39.176,-0.6538,0.1258,0.3574,-56.5135
17:05:59:355,-0.527,3.129,9.7751,39.0516,-0.1228,0.2302,0.3084,-56.347
17:05:59:375,-1.3841,2.9381,7.958,38.7983,0.2794,0.1898,0.2988,-56.1968
17:05:59:397,-1.808,2.924,6.978,38.5004,0.3391,-0.0881,0.3414,-56.0603
17:05:59:415,-1.5731,2.9831,6.9041,38.4513,0.1209,-0.4084,0.4117,-55.9391
17:05:59:435,-0.864,3.146,7.665,38.4165,-0.1398,-0.4681,0.5148,-55.837
17:05:59:455,0.0371,3.129,8.13,38.2923,-0.2696,-0.352,0.6138,-55.837
17:05:59:474,0.72,3.1841,8.259,38.207,-0.3388,-0.2552,0.6075,-55.837
17:05:59:496,0.89,3.2951,8.4701,37.9048,-0.4432,-0.1647,0.4957,-55.837
17:05:59:514,0.566,3.407,8.5421,37.43,-0.4751,0.0407,0.3563,-55.837
17:05:59:534,-0.2921,3.5201,8.2541,37.1438,-0.3601,0.3301,0.2734,-55.837
17:05:59:554,-0.606,3.852,7.7471,36.8971,-0.2036,0.4312,0.3297,-55.837
17:05:59:574,-0.6131,4.2671,7.2821,36.6386,-0.0855,0.3706,0.4308,-55.837
17:05:59:596,-0.419,4.542,7.347,36.4874,-0.0505,0.2365,0.4988,-55.837
17:05:59:614,-0.0191,4.659,7.596,36.3092,-0.0345,0.0993,0.5107,-55.837
17:05:59:635,0.056,4.817,7.95,36.2019,0.0007,0.0301,0.4829,-55.837
17:05:59:654,0.066,4.9661,8.654,36.07,0.023,0.0322,0.451,-55.9353
17:05:59:674,0.348,5.217,8.9921,35.9383,0.1294,-0.0136,0.4658,-56.0471
17:05:59:696,0.3941,5.4761,9.2411,35.7687,0.2955,-0.021,0.4553,-56.1719
17:05:59:714,0.413,5.727,9.222,35.5856,0.4837,-0.0615,0.4,-56.308
17:05:59:734,0.9281,5.955,8.7431,35.3208,0.6285,-0.2243,0.3776,-56.4526
17:05:59:754,1.608,6.182,8.664,35.0597,0.5955,-0.2967,0.3286,-56.6043
17:05:59:774,2.0771,6.015,8.817,34.8603,0.4625,-0.2658,0.2074,-56.7612
17:05:59:796,2.058,5.904,9.162,34.6944,0.2944,-0.1966,0.0201,-56.9184
17:05:59:815,1.0039,6.359,9.638,34.7572,0.1922,-0.0327,-0.1216,-57.0697
17:05:59:835,-0.17,6.738,9.9641,34.8422,0.2443,0.1247,-0.2067,-57.2107
17:05:59:854,-0.0821,6.735,10.0961,34.9905,0.338,-0.1189,-0.2524,-57.3383
17:05:59:874,1.605,6.101,10.019,35.03,0.272,-0.5691,-0.1748,-57.4521
17:05:59:896,2.7401,5.5001,10.1081,35.0555,0.0804,-0.5255,-0.2013,-57.5553
17:05:59:914,2.261,4.8581,10.4501,35.0524,-0.0249,0.0641,-0.3791,-57.6464
17:05:59:935,1.218,3.984,10.689,34.974,-0.028,0.4792,-0.6079,-57.6464
17:05:59:954,0.336,3.5561,10.4261,34.9064,0.0624,0.4377,-0.6728,-57.6464
17:05:59:974,-0.149,3.5321,9.758,35.0241,0.1752,0.2014,-0.5845,-57.6464
17:05:59:996,0.2981,3.6131,8.6951,35.0904,0.1997,-0.0604,-0.4132,-57.6464
17:06:00:014,1.0571,3.68,8.015,35.1537,0.0219,-0.1605,-0.2747,-57.6464
17:06:00:034,1.1051,3.762,7.8041,35.1961,-0.1739,0.0279,-0.2716,-57.6464
17:06:00:066,-0.062,3.773,6.878,35.2185,-0.1079,0.2706,-0.4238,-57.6464
17:06:00:081,-0.611,4.001,5.975,35.1739,0.1347,0.2546,-0.4004,-57.6464
17:06:00:100,-0.963,4.137,5.166,35.184,0.355,0.1056,-0.3631,-57.6464
17:06:00:120,-1.0151,4.26,4.541,35.087,0.4476,-0.0934,-0.3194,-57.552
17:06:00:140,-0.879,4.236,4.28,35.0635,0.3816,-0.1913,-0.278,-57.4462
17:06:00:159,-0.903,4.1899,4.2731,35.0101,0.2529,-0.1072,-0.2439,-57.3312
17:06:00:180,-0.821,4.236,4.946,34.9086,0.0656,-0.0136,-0.197,-57.2094
17:06:00:199,-0.912,4.422,5.894,34.8172,-0.1143,0.0705,-0.1683,-57.0839
17:06:00:218,-1.109,4.7141,6.5351,34.8017,-0.1803,0.1035,-0.1492,-56.9567
17:06:00:239,-1.31,4.937,7.136,34.9029,-0.2292,0.1375,-0.1247,-56.8289
17:06:00:259,-1.367,5.373,7.742,34.9063,-0.3197,0.2078,-0.0194,-56.7024
17:06:00:278,-1.3121,5.919,8.585,34.8966,-0.4198,0.3418,0.1328,-56.5822
