Time,Acc_X,Acc_Y,Acc_Z,Meg,Gyr_X,Gyr_Y,Gyr_Z,Ore
17:25:32:207,-0.462,2.6171,9.483,67.2367,-0.1313,-0.0358,-0.0918,-172.5444
17:25:32:226,-0.692,2.612,9.6,67.394,-0.1217,0.0005,-0.0865,-172.5444
17:25:32:245,-0.723,2.552,9.5711,67.3603,-0.0909,-0.04,-0.0886,-172.5444
17:25:32:266,-0.747,2.5481,9.452,67.0374,-0.0472,-0.1081,-0.1045,-172.5444
17:25:32:285,-0.675,2.543,9.126,67.0552,-0.0472,-0.1517,-0.113,-172.5444
17:25:32:305,-0.63,2.5481,9.191,67.3459,-0.1174,-0.1303,-0.1216,-172.5444
17:25:32:325,-0.627,2.481,9.452,67.556,-0.143,-0.1049,-0.129,-172.5444
17:25:32:344,-0.623,2.5811,9.5471,67.6727,-0.1111,-0.1506,-0.111,-172.5444
17:25:32:365,-0.548,2.624,9.504,67.3858,-0.0972,-0.1986,-0.0918,-172.5444
17:25:32:385,-0.4931,2.646,9.626,67.2174,-0.1026,-0.2379,-0.0854,-172.5444
17:25:32:404,-0.3761,2.73,9.54,67.2396,-0.077,-0.2368,-0.0876,-172.5444
17:25:32:424,-0.3761,2.885,9.332,67.4801,-0.0792,-0.1836,-0.0908,-172.5444
17:25:32:443,-0.455,2.964,9.315,67.852,-0.1143,-0.1144,-0.0896,-172.5444
17:25:32:464,-0.5051,2.9351,9.432,68.1161,-0.1122,-0.0921,-0.0833,-172.5444
17:25:32:486,-0.383,3.062,9.3611,67.9774,-0.0727,-0.0964,-0.0578,-172.5444
17:25:32:503,-0.393,3.225,9.1211,67.896,-0.0249,-0.0836,-0.0598,-172.5444
17:25:32:523,-0.5561,3.1151,9.1361,67.7253,-0.011,-0.0623,-0.08,-172.5444
17:25:32:543,-0.4931,2.943,9.4301,67.5045,-0.0312,-0.1112,-0.1024,-172.5444
17:25:32:562,-0.3191,2.864,9.7631,67.3464,-0.0568,-0.1548,-0.1503,-172.5444
17:25:32:582,-0.192,2.765,9.99,67.206,-0.0664,-0.107,-0.2067,-172.5444
17:25:32:603,-0.089,2.742,9.947,66.952,-0.0462,-0.0634,-0.2504,-172.5444
17:25:32:622,-0.072,2.742,9.923,66.9262,-0.0217,-0.1112,-0.2951,-172.5444
17:25:32:642,-0.0431,2.6051,9.974,66.9358,-0.0547,-0.2049,-0.3323,-172.5444
17:25:32:662,-0.0341,2.279,10.4861,66.9098,-0.1504,-0.2729,-0.3207,-172.5444
17:25:32:681,0.071,2.22,10.802,67.0001,-0.1569,-0.2219,-0.2578,-172.5444
17:25:32:702,0.1901,2.2121,10.2731,67.0323,-0.0078,0.059,-0.1801,-172.5444
17:25:32:721,-0.0461,2.394,9.569,67.0094,0.1209,0.2548,-0.1525,-172.5444
17:25:32:741,-0.249,2.397,8.891,66.9517,0.1572,0.1995,-0.1727,-172.5444
17:25:32:760,-0.185,2.4161,8.9081,66.9391,0.0975,0.0516,-0.1886,-172.5444
17:25:32:780,0.164,2.1881,9.054,66.8705,-0.0206,-0.0324,-0.1779,-172.5444
17:25:32:802,0.597,1.908,9.557,66.7306,-0.1473,0.0909,-0.1642,-172.5444
17:25:32:820,0.71,1.614,9.873,66.6014,-0.2005,0.1973,-0.1833,-172.5444
17:25:32:840,0.861,1.061,9.828,66.6725,-0.1706,0.2633,-0.2014,-172.5444
17:25:32:859,0.839,1.2161,9.521,66.7282,-0.1643,0.3538,-0.2535,-172.5444
17:25:32:880,0.8081,1.281,9.1211,66.7286,-0.2654,0.4752,-0.2844,-172.5444
17:25:32:899,0.705,1.382,8.9921,66.5621,-0.3388,0.6306,-0.3057,-172.5444
17:25:32:920,0.538,1.295,9.054,66.276,-0.3601,0.622,-0.344,-172.4492
17:25:32:938,0.492,1.1951,9.3701,66.2045,-0.3208,0.389,-0.3366,-172.3468
17:25:32:958,0.708,0.951,9.591,66.1551,-0.2101,0.0336,-0.3398,-172.2368
17:25:32:978,0.6521,0.824,9.6311,66.3449,-0.0269,-0.3762,-0.3685,-172.1195
17:25:33:000,0.7391,0.7181,9.387,66.5436,0.1709,-0.7125,-0.3748,-171.9944
17:25:33:020,0.609,0.896,8.805,66.5729,0.2805,-0.9147,-0.3791,-171.8601
17:25:33:038,0.504,1.164,9.071,66.5614,0.2688,-1.0073,-0.3281,-171.716
17:25:33:059,0.633,1.307,8.501,66.3907,0.2369,-1.1648,-0.3131,-171.5625
17:25:33:079,0.732,1.7861,8.027,66.2471,0.1134,-0.8657,-0.2504,-171.4087
17:25:33:099,0.437,1.92,8.2571,66.2287,-0.1823,-0.4656,-0.1801,-171.2487
17:25:33:121,1.799,2.0831,8.6021,66.0319,-0.4751,-0.2868,-0.1557,-171.0852
17:25:33:139,1.359,2.1911,10.215,65.8087,-0.5559,-0.0452,-0.1981,-170.9207
17:25:33:158,1.514,1.683,10.139,65.5213,-0.3388,-0.3677,-0.3079,-170.7552
17:25:33:179,0.9761,2.0591,9.638,65.255,-0.1409,-0.4081,-0.3972,-170.587
17:25:33:198,1.299,2.052,9.0161,65.1214,-0.0707,-0.4806,-0.36,-170.4122
17:25:33:222,1.1171,2.337,8.515,65.0218,-0.1165,-0.1559,-0.3429,-170.2291
17:25:33:238,1.0601,2.363,8.508,65.1205,-0.3037,0.2229,-0.2706,-170.039
17:25:33:258,0.8801,2.402,8.247,65.0843,-0.408,0.5677,-0.2067,-169.8431
17:25:33:277,0.708,2.3801,8.547,65.2054,-0.4527,0.8019,-0.1492,-169.6439
17:25:33:305,0.437,2.4851,8.132,65.3855,-0.4356,0.8167,-0.1269,-169.4438
17:25:33:325,0.0281,2.619,7.8281,65.2955,-0.5346,0.8913,-0.08,-169.2446
17:25:33:344,-0.5201,2.4761,8.879,65.2959,-0.6634,0.8753,-0.045,-169.0478
17:25:33:365,-0.467,2.375,10.134,65.3302,-0.6666,0.6412,-0.0183,-168.855
17:25:33:385,0.389,2.2271,10.364,65.0999,-0.4814,0.4326,-0.0162,-168.668
17:25:33:405,0.624,1.9901,10.848,64.962,-0.1962,0.4229,-0.0461,-168.4875
17:25:33:424,0.6911,1.7891,10.6511,64.8079,-0.1248,0.3726,-0.0824,-168.3129
17:25:33:444,-0.378,2.3921,11.714,64.5464,-0.2782,0.5056,-0.1122,-168.1421
17:25:33:464,-0.917,2.567,12.636,64.4519,-0.291,0.5738,-0.0473,-167.9739
17:25:33:484,-1.0369,2.246,12.6221,64.3938,-0.2196,0.6515,-0.0195,-167.8083
17:25:33:503,-0.675,1.731,13.6511,64.4666,-0.11,0.7088,0.0634,-167.6472
17:25:33:523,-0.6251,1.164,14.5751,64.5181,0.1646,0.3246,-0.0047,-167.492
17:25:33:543,-0.168,0.1991,14.628,64.5763,0.5189,-0.3787,-0.143,-167.3434
17:25:33:563,-1.008,0.603,12.954,64.5477,0.7552,-0.9332,-0.2335,-167.1973
17:25:33:583,-3.168,1.757,12.207,64.5468,0.6924,-1.0769,-0.1899,-167.0465
17:25:33:602,-3.8051,2.6171,12.1121,64.4495,0.503,-0.9981,0.1763,-166.8892
17:25:33:622,-0.204,-0.839,11.8241,64.2961,0.4902,-0.8555,0.3114,-166.7296
17:25:33:642,0.006,0.764,10.146,64.0219,0.8701,-0.0914,0.223,-166.5815
17:25:33:667,1.038,-0.1811,7.943,63.5413,1.1916,0.3428,0.3943,-166.4452
17:25:33:682,-1.731,1.827,5.894,62.9634,1.0735,0.4769,0.5892,-166.3207
17:25:33:702,-1.5971,1.329,6.186,62.5687,0.5137,0.4928,0.6786,-166.2109
17:25:33:722,-1.295,0.6971,7.428,62.3337,0.0146,0.3715,0.7796,-166.2109
17:25:33:741,-1.688,0.218,9.1121,62.2669,-0.2302,0.198,0.8243,-166.2109
17:25:33:760,-1.628,-0.71,9.6701,62.2104,-0.3058,-0.2531,0.8148,-166.2109
17:25:33:782,0.104,-0.305,10.524,62.1411,-0.3761,-0.318,0.172,-166.2109
17:25:33:800,0.4901,-0.147,10.862,62.0341,-0.1951,-0.3735,-0.4293,-166.2109
17:25:33:820,0.7961,0.086,10.517,61.9647,0.0784,-0.2511,-0.4133,-166.2109
17:25:33:840,-1.298,0.783,8.628,61.8923,0.5211,0.0789,-0.2611,-166.2109
17:25:33:860,-0.987,1.214,8.678,61.6828,0.6765,0.2182,-0.1686,-166.2109
17:25:33:880,-1.497,1.707,7.685,61.6069,0.5966,-0.1265,-0.0388,-166.2109
17:25:33:900,-1.001,1.803,7.7921,61.5831,0.5701,-0.3032,0.1156,-166.2109
17:25:33:919,0.044,1.8581,7.733,61.395,0.5988,-0.4808,0.1283,-166.2109
17:25:33:938,-1.056,2.7491,6.696,61.3658,0.6148,-0.3926,0.0389,-166.2109
17:25:33:959,-0.869,2.679,6.741,61.292,0.404,-0.0115,0.1283,-166.2109
17:25:33:978,-0.9701,2.751,7.167,61.0002,0.172,0.1288,0.1965,-166.2109
17:25:33:999,-1.0421,3.1151,7.7231,60.8477,-0.0258,0.0736,0.2135,-166.2109
17:25:34:020,-0.146,2.768,8.312,60.7768,-0.1334,-0.0104,0.2273,-166.2109
17:25:34:039,-0.117,3.005,8.544,60.7034,-0.1706,0.0172,0.1794,-166.2109
17:25:34:057,-0.144,2.981,9.009,60.9134,-0.1845,0.0884,0.1954,-166.2109
17:25:34:078,-0.029,2.9741,9.533,60.9417,-0.1185,0.0267,0.19,-166.2109
17:25:34:099,0.135,2.837,9.686,60.6286,-0.0748,-0.1988,0.1464,-166.2109
17:25:34:128,0.0851,2.9471,9.768,60.3997,-0.0014,-0.2648,0.0879,-166.2109
17:25:34:138,-0.158,2.9141,9.665,60.1637,-0.0195,-0.2255,0.0474,-166.2109
17:25:34:160,-0.3041,2.739,9.942,59.9567,-0.1515,-0.2596,0.0326,-166.2109
17:25:34:179,0.131,2.229,10.685,59.6975,-0.3568,-0.3618,0.023,-166.2109
17:25:34:199,0.6191,1.973,11.987,59.5929,-0.4995,-0.5149,0.0517,-166.2109
17:25:34:218,1.4381,1.875,12.957,59.4946,-0.3675,-0.6011,0.1592,-166.2109
17:25:34:239,2.288,2.03,12.612,59.3889,-0.0579,-0.5767,0.2156,-166.2109
17:25:34:258,2.573,2.217,11.5901,59.4573,0.1752,-0.3766,0.1475,-166.2109
17:25:34:279,2.51,2.057,11.003,59.473,0.1689,-0.4022,-0.0069,-166.2109
17:25:34:299,2.352,1.8131,10.809,59.4545,0.1199,-0.5618,-0.1706,-166.2109
17:25:34:321,1.7441,1.535,10.254,59.5228,0.2391,-0.4979,-0.2952,-166.2109
17:25:34:337,1.119,1.341,9.564,59.4419,0.3977,-0.4532,-0.3134,-166.2109
17:25:34:359,1.028,1.1231,8.927,59.3225,0.4403,-0.598,-0.293,-166.2109
17:25:34:378,1.593,0.9,8.8961,58.9624,0.3094,-0.8055,-0.2952,-166.2109
17:25:34:398,2.079,0.84,9.054,58.5671,0.1731,-0.8374,-0.3601,-166.2109
17:25:34:420,2.1701,0.9191,9.009,58.4174,0.1018,-0.5937,-0.4463,-166.2109
17:25:34:438,1.998,1.1351,8.6899,58.3693,0.04,-0.267,-0.5038,-166.2109
17:25:34:458,1.656,1.532,8.453,58.5482,-0.0153,-0.019,-0.5687,-166.2109
17:25:34:477,1.079,1.884,8.1131,58.8386,-0.0004,0.1172,-0.6538,-166.2109
17:25:34:498,0.368,2.246,7.4861,58.8604,0.1145,0.2332,-0.6922,-166.2109
17:25:34:521,-0.204,2.663,6.717,58.7366,0.1603,0.2758,-0.6538,-166.1083
17:25:34:537,-0.134,2.789,6.485,58.5809,0.0326,0.2566,-0.5954,-165.9864
17:25:34:558,-0.129,2.7941,6.782,58.4115,-0.1419,0.2108,-0.5283,-165.8472
17:25:34:578,0.116,2.768,7.266,58.3448,-0.2515,0.1385,-0.4315,-165.6937
17:25:34:599,0.384,2.718,7.7681,58.3746,-0.3069,0.0715,-0.3495,-165.5294
17:25:34:618,0.425,2.765,8.1251,58.5342,-0.3207,0.032,-0.2441,-165.3575
17:25:34:638,0.6191,2.7821,8.4701,58.6035,-0.3409,-0.003,-0.1324,-165.1824
17:25:34:658,0.981,2.9621,8.798,58.6767,-0.3356,0.014,-0.0121,-165.008
17:25:34:679,1.146,3.2321,9.1091,58.6971,-0.2973,0.1086,0.0613,-164.8384
17:25:34:700,1.0361,3.539,9.428,58.6175,-0.2153,0.1874,0.122,-164.6759
17:25:34:718,0.9761,3.785,9.5741,58.493,-0.0983,0.1906,0.1646,-164.5227
17:25:34:738,0.9611,3.965,9.84,58.5239,-0.0153,0.098,0.1646,-164.3797
17:25:34:758,1.2371,3.797,10.227,58.5584,0.0018,-0.0499,0.1123,-164.2466
17:25:34:779,1.419,3.41,10.5431,58.5532,0.0007,-0.1084,0.0198,-164.1208
17:25:34:798,1.601,2.837,11.1521,58.7073,-0.0791,-0.1754,-0.0653,-163.9988
17:25:34:818,1.67,2.469,11.8601,58.7754,-0.1792,-0.2127,-0.11,-163.8777
17:25:34:837,1.289,2.5601,12.042,58.7958,-0.1812,0.0576,-0.1026,-163.7559
17:25:34:861,0.171,3.029,11.942,58.7599,-0.1365,0.4663,-0.0164,-163.6342
17:25:34:878,-0.402,3.3401,11.832,58.7614,-0.0824,0.6557,0.1655,-163.5168
17:25:34:898,-0.453,3.359,11.441,58.8172,0.0177,0.5983,0.2933,-163.4096
17:25:34:918,-0.3431,2.94,11.168,58.9336,0.022,0.3513,0.3454,-163.3164
17:25:34:938,0.389,2.0021,11.492,59.0846,-0.0791,-0.0701,0.3274,-163.3164
17:25:34:957,0.552,1.446,11.8721,59.3801,-0.0419,-0.2776,0.2603,-163.3164
17:25:34:978,0.257,1.085,11.228,59.5176,0.2625,-0.0584,0.2879,-163.3164
17:25:34:998,-0.0071,0.912,9.995,59.3346,0.5391,0.149,0.3508,-163.3164
17:25:35:018,-0.0341,0.749,9.054,59.0374,0.6242,0.0938,0.3741,-163.3164
17:25:35:038,-0.0191,0.7301,8.8031,58.8578,0.5488,-0.2064,0.3422,-163.3164
17:25:35:058,0.363,0.606,8.7671,58.7128,0.4232,-0.4671,0.3295,-163.3164
17:25:35:078,1.0691,0.4121,8.733,58.778,0.304,-0.499,0.3647,-163.3164
17:25:35:098,2.01,0.2321,8.9081,58.9599,0.1518,-0.433,0.3604,-163.3164
17:25:35:118,2.324,0.3401,8.894,59.0091,0.0826,-0.2329,0.2592,-163.3164
17:25:35:137,1.955,0.5531,8.0921,59.0496,0.1273,0.0608,0.1539,-163.3164
17:25:35:159,1.821,0.807,7.0721,59.1455,0.1347,0.2662,0.0741,-163.3164
17:25:35:179,0.7481,1.59,6.179,59.0377,0.073,0.3556,0.0474,-163.3164
17:25:35:197,0.545,1.88,5.8871,59.1519,-0.0588,0.3812,0.0921,-163.3164
17:25:35:218,-0.0461,2.387,5.669,59.1887,-0.1493,0.33,0.1603,-163.3164
17:25:35:238,0.011,2.744,5.9201,59.186,-0.2824,0.2321,0.2497,-163.3164
17:25:35:257,-0.0461,3.161,6.461,59.4693,-0.4367,0.0778,0.2369,-163.3164
17:25:35:278,-0.0701,3.18,7.553,59.6433,-0.5697,-0.1159,0.221,-163.3164
17:25:35:298,0.188,3.072,8.334,59.714,-0.639,-0.2787,0.157,-163.3164
17:25:35:318,0.2,2.792,9.174,59.9149,-0.6729,-0.2414,0.0901,-163.3164
17:25:35:338,0.195,2.7251,10.235,59.9339,-0.6953,-0.2372,0.0624,-163.3164
17:25:35:358,0.5351,2.39,11.2451,59.762,-0.6655,-0.2787,0.0741,-163.3164
17:25:35:378,0.803,2.157,11.879,59.8295,-0.5654,-0.2722,0.0539,-163.3164
17:25:35:398,1.23,2.0621,12.3251,60.1283,-0.4133,-0.1521,0.0506,-163.3164
17:25:35:418,1.445,1.868,12.222,60.3794,-0.2674,-0.0477,0.023,-163.3164
17:25:35:439,1.5221,1.9991,12.2171,60.5361,-0.1248,0.1066,0.0081,-163.3164
17:25:35:459,1.4,1.731,11.858,60.6432,-0.0238,0.1427,-0.0078,-163.3164
17:25:35:478,1.2611,1.65,11.516,60.4804,-0.077,0.0842,-0.0494,-163.3164
17:25:35:499,1.4021,1.559,11.5901,60.4862,-0.2685,-0.003,-0.0558,-163.3164
17:25:35:518,1.8761,1.1231,11.8271,60.7483,-0.5175,-0.0308,-0.077,-163.3164
17:25:35:538,2.2931,0.647,12.5621,60.815,-0.7645,-0.019,-0.1174,-163.3164
17:25:35:558,2.498,0.192,13.043,60.9774,-0.7836,0.0331,-0.1409,-163.3164
17:25:35:578,2.2931,-0.035,12.969,61.2341,-0.5048,0.1459,-0.1356,-163.3164
17:25:35:598,2.084,-0.1811,12.107,61.2687,-0.061,0.2236,-0.0824,-163.3164
17:25:35:618,2.307,-0.2981,11.087,61.5073,0.3391,0.1236,-0.0036,-163.3164
17:25:35:639,2.642,-0.2051,10.17,61.5491,0.6945,-0.1361,-0.0186,-163.3164
17:25:35:658,2.9771,0.1031,9.0641,61.3779,0.9776,-0.4202,-0.0887,-163.3164
17:25:35:678,3.36,0.338,8.01,61.2802,1.0351,-0.6065,-0.2335,-163.3164
17:25:35:698,3.305,0.788,7.311,61.0739,0.8968,-0.5628,-0.4432,-163.3164
17:25:35:718,2.8841,1.391,6.9521,60.9772,0.6935,-0.3989,-0.6156,-163.3164
17:25:35:737,2.448,1.911,6.9161,61.0073,0.5466,-0.3308,-0.738,-163.3164
17:25:35:759,2.2811,2.289,6.777,60.8594,0.4774,-0.3575,-0.8496,-163.3164
17:25:35:778,1.917,2.8301,6.404,60.8059,0.4136,-0.2181,-1.0454,-163.3164
17:25:35:798,1.064,3.06,6.114,60.885,0.2497,0.0098,-1.2317,-163.3164
17:25:35:818,0.2861,2.991,6.602,60.8863,-0.0494,0.0459,-1.3168,-163.2002
17:25:35:839,0.0011,2.684,7.6871,61.1373,-0.293,-0.1,-1.2818,-163.0408
17:25:35:858,-0.129,2.61,8.7191,61.3012,-0.3664,-0.2181,-1.1689,-162.8406
17:25:35:878,-0.029,2.61,9.483,61.3374,-0.3069,-0.2542,-0.9773,-162.6054
17:25:35:899,-0.0191,2.852,9.947,61.3165,-0.143,-0.1743,-0.7571,-162.3435
17:25:35:917,-0.048,3.189,10.448,61.2137,0.056,-0.0616,-0.5166,-162.0642
17:25:35:939,0.2501,3.378,10.74,61.2303,0.2604,-0.0733,-0.3037,-161.777
17:25:35:959,0.5501,3.7781,11.094,61.315,0.4594,-0.1202,-0.1356,-161.4897
17:25:35:978,0.7841,4.087,11.288,61.2229,0.6978,-0.1031,-0.011,-161.2086
17:25:35:998,0.995,4.164,11.015,61.2039,0.8669,-0.1191,0.0315,-160.9382
17:25:36:018,1.146,3.8291,10.905,61.09,0.8988,-0.1786,0.0081,-160.6795
17:25:36:038,1.4711,3.3881,10.991,60.8384,0.8063,-0.3297,-0.0323,-160.4314
17:25:36:058,1.8071,3.141,11.022,60.9125,0.6754,-0.3404,-0.0408,-160.1922
17:25:36:078,1.9601,2.9981,10.859,61.1247,0.5402,-0.1,-0.0419,-159.961
17:25:36:097,1.608,3.06,10.797,61.317,0.4019,0.2258,-0.011,-159.7374
17:25:36:119,0.5501,3.5681,10.349,61.5319,0.6339,0.4514,0.1772,-159.3187
17:25:36:138,0.734,3.522,9.356,61.5478,0.7116,0.0969,0.2145,-159.1304
17:25:36:158,1.4381,3.216,8.769,61.2746,0.5966,-0.2074,0.1698,-158.9577
17:25:36:178,1.361,2.9381,8.63,61.1102,0.5126,-0.0818,0.0252,-158.7975
17:25:36:199,0.363,2.6741,8.1251,61.1191,0.6083,0.2471,-0.0186,-158.6443
17:25:36:219,-0.3551,2.655,7.424,61.1572,0.6626,0.2833,0.038,-158.4977
17:25:36:238,-0.395,2.5931,6.825,61.1892,0.5083,-0.0637,0.0986,-158.3595
17:25:36:259,0.344,2.586,6.974,61.2397,0.1954,-0.3926,0.1507,-158.2312
17:25:36:279,1.332,2.385,7.419,61.3398,-0.0993,-0.4245,0.1613,-158.1131
17:25:36:298,2.0681,2.1911,7.9241,61.4034,-0.3772,-0.2542,0.1772,-158.0041
17:25:36:321,2.187,2.244,8.8219,61.2856,-0.5665,0.014,0.1794,-157.9034
17:25:36:339,1.938,2.4161,9.413,60.9674,-0.4441,0.2566,0.2199,-157.8102
17:25:36:359,1.5911,2.742,9.047,60.6211,-0.0844,0.2822,0.2912,-157.8102
17:25:36:379,1.56,3.2201,7.9481,60.3309,0.2199,0.1182,0.3561,-157.8102
17:25:36:398,1.634,3.647,7.1891,60.2008,0.2998,-0.0307,0.3816,-157.8102
17:25:36:420,1.799,3.936,6.99,60.2059,0.2827,-0.0584,0.3571,-157.8102
17:25:36:438,1.8191,4.0849,7.091,60.1183,0.2338,-0.052,0.3103,-157.8102
17:25:36:457,1.9361,4.2791,7.314,60.095,0.1763,-0.1148,0.2454,-157.8102
17:25:36:478,2.094,4.35,7.5581,60.1844,0.122,-0.1712,0.1411,-157.8102
17:25:36:497,2.151,4.506,7.7921,60.0223,0.0422,-0.151,0.0422,-157.8102
17:25:36:520,1.9691,4.583,8.1491,59.968,-0.0258,-0.0466,-0.0505,-157.8102
17:25:36:540,1.802,4.451,8.748,59.8947,-0.0866,-0.0434,-0.1419,-157.8102
17:25:36:558,1.907,4.2041,9.3461,59.5679,-0.128,-0.1775,-0.1984,-157.8102
17:25:36:578,2.175,4.058,9.77,59.5848,-0.1419,-0.2745,-0.2271,-157.8102
17:25:36:598,2.372,4.104,9.861,59.6024,-0.0993,-0.1957,-0.2441,-157.8102
17:25:36:618,2.1109,4.3241,9.392,59.4729,-0.0397,-0.0212,-0.2559,-157.8102
17:25:36:637,1.802,4.638,8.913,59.3515,-0.1547,-0.0488,-0.2878,-157.8102
17:25:36:658,2.1581,4.295,9.176,59.2812,-0.5325,-0.2765,-0.374,-157.8102
17:25:36:678,2.8031,3.354,10.196,59.2424,-0.8826,-0.3362,-0.4645,-157.8102
17:25:36:697,2.9561,2.5601,10.8671,59.2535,-1.0103,-0.1743,-0.4942,-157.7107
17:25:36:718,2.709,2.2391,11.073,59.3385,-1.0039,0.063,-0.4793,-157.5908
17:25:36:738,2.2691,2.0951,11.001,59.3489,-0.9082,0.4025,-0.3814,-157.4525
17:25:36:759,1.847,1.901,11.034,59.4276,-0.6399,0.544,-0.2431,-157.3015
17:25:36:778,1.799,1.755,10.742,59.485,-0.2227,0.2513,-0.1313,-157.1448
17:25:36:798,1.9331,1.8131,9.717,59.5696,0.2124,-0.2233,-0.077,-156.988
17:25:36:818,2.1941,2.162,8.3,59.4908,0.4583,-0.483,-0.026,-156.8345
17:25:36:838,2.652,2.622,7.23,59.3244,0.4275,-0.466,0.0049,-156.6869
17:25:36:859,2.8721,2.907,6.878,59.0236,0.2178,-0.3212,-0.0642,-156.5452
17:25:36:877,2.894,3.278,6.971,58.6623,0.0049,-0.1968,-0.2016,-156.4054
17:25:36:898,2.5151,3.5411,6.8711,58.2085,-0.0759,-0.0542,-0.3814,-156.261
17:25:36:919,1.802,3.644,6.717,57.9769,-0.1217,0.0257,-0.5591,-156.1053
17:25:36:937,1.0361,3.671,6.552,58.0297,-0.2122,-0.0169,-0.6762,-155.9321
17:25:36:958,0.657,3.675,6.89,58.0528,-0.3568,-0.0744,-0.6922,-155.7383
17:25:36:979,0.638,3.474,7.6061,57.9739,-0.4665,-0.0318,-0.6538,-155.5235
17:25:36:998,0.648,3.3041,8.322,57.8886,-0.4506,0.0639,-0.557,-155.2901
17:25:37:018,0.8441,3.39,8.769,57.6166,-0.3462,0.0874,-0.4357,-155.0427
17:25:37:038,0.9761,3.551,8.824,57.3698,-0.2218,0.0672,-0.3484,-154.7865
17:25:37:058,1.031,3.7901,8.645,57.2731,-0.1803,0.0289,-0.258,-154.5252
17:25:37:079,1.083,4.133,8.8219,57.1934,-0.2377,-0.0073,-0.1558,-154.2625
17:25:37:097,1.17,4.341,9.306,57.0435,-0.3037,0.0044,-0.0536,-154.0019
17:25:37:117,1.083,4.501,9.945,56.9783,-0.2824,0.0682,0.0571,-153.747
17:25:37:138,0.992,4.506,10.376,56.8466,-0.1728,0.0832,0.1891,-153.502
17:25:37:159,1.194,4.2761,10.4141,56.7265,-0.0546,-0.0382,0.2614,-153.2712
17:25:37:178,1.1291,4.0391,10.46,56.645,-0.0429,-0.1733,0.2443,-153.0565
17:25:37:198,0.9041,3.548,10.5341,56.3941,-0.1217,-0.1382,0.2199,-152.8566
17:25:37:219,0.449,3.2681,10.9031,56.1149,-0.2793,0.0385,0.2412,-152.6701
17:25:37:239,0.1091,3.0671,11.3261,55.8604,-0.3601,0.2853,0.3934,-152.4976
17:25:37:259,0.066,2.813,11.475,55.6674,-0.309,0.4844,0.5583,-152.3443
17:25:37:278,0.2291,2.4251,11.3171,55.4494,-0.21,0.3418,0.6029,-152.215
17:25:37:298,0.444,2.2241,11.13,55.1429,-0.1462,-0.0232,0.554,-152.1102
17:25:37:318,0.195,2.0951,10.668,54.7642,-0.0377,-0.0978,0.47,-152.1102
17:25:37:339,-0.4931,2.069,10.16,54.4294,0.1327,0.1449,0.4817,-152.1102
17:25:37:359,-0.747,1.889,9.4781,54.0965,0.289,0.2641,0.5497,-152.1102
17:25:37:378,-0.687,1.731,8.9801,53.8293,0.2881,0.1034,0.5732,-152.1102
17:25:37:399,-0.2111,1.458,8.918,53.5722,0.1071,-0.1445,0.5647,-152.1102
17:25:37:417,0.605,0.953,9.392,53.255,-0.1143,-0.1658,0.5583,-152.1102
17:25:37:438,1.079,0.618,9.962,52.9987,-0.2526,0.0758,0.5679,-152.1102
17:25:37:458,1.335,0.5411,10.493,52.9456,-0.2005,0.3917,0.6115,-152.1102
17:25:37:478,1.407,0.606,10.191,52.6986,0.071,0.61,0.6509,-152.1102
17:25:37:498,1.361,0.903,9.174,52.483,0.3774,0.5886,0.6891,-152.2077
17:25:37:518,1.428,1.398,8.034,52.1884,0.5701,0.4344,0.7105,-152.3283
17:25:37:538,1.538,1.911,7.05,51.8933,0.6552,0.3417,0.7221,-152.4726
17:25:37:559,1.6151,2.435,6.368,51.6949,0.6361,0.3035,0.7232,-152.6405
17:25:37:578,1.7921,2.892,5.901,51.5679,0.5126,0.2747,0.6882,-152.831
17:25:37:597,1.9811,3.225,6.0521,51.4998,0.2816,0.1746,0.6115,-153.0416
17:25:37:618,2.3021,3.323,6.6341,51.2941,0.0135,-0.0594,0.4742,-153.2676
17:25:37:638,2.5661,3.366,7.436,51.1924,-0.1845,-0.2064,0.2805,-153.5025
17:25:37:658,2.451,3.374,8.183,50.941,-0.2813,-0.1743,0.0708,-153.7382
17:25:37:678,2.106,3.218,8.8601,50.6573,-0.3026,-0.1042,-0.0685,-153.9672
17:25:37:698,2.132,3.0101,9.6701,50.3711,-0.3601,-0.2201,-0.1462,-154.1852
17:25:37:718,2.283,2.7491,10.4501,49.9998,-0.4069,-0.3245,-0.2559,-154.3893
17:25:37:739,1.883,2.6411,10.6781,49.7431,-0.3974,-0.2074,-0.3473,-154.5758
17:25:37:758,1.787,2.2721,10.6301,49.4693,-0.5516,-0.1552,-0.39,-154.7424
17:25:37:777,2.5661,1.082,11.0651,49.1409,-1.0912,-0.3362,-0.4452,-154.8873
17:25:37:799,3.035,-0.284,13.247,48.977,-1.8787,-0.4884,-0.5676,-155.0062
17:25:37:818,2.604,-1.419,16.1561,48.6616,-2.1065,-0.2882,-0.5698,-155.0062
17:25:37:838,2.118,-1.914,17.219,48.365,-1.4157,0.1459,-0.3058,-155.0062
17:25:37:858,1.917,-1.467,16.041,48.2746,-0.2952,0.3897,0.1358,-155.0062
17:25:37:878,2.472,-0.4631,13.352,48.0257,0.7297,0.3248,0.487,-155.0062
17:25:37:897,3.044,0.62,10.287,47.9473,1.4831,0.3087,0.5924,-155.0062
17:25:37:918,3.1661,1.5761,7.263,48.012,1.8971,0.297,0.4646,-155.1074
17:25:37:939,2.664,2.7581,4.998,48.1153,1.8205,0.0491,0.1561,-155.2266
17:25:37:958,2.427,3.2441,3.99,48.3393,1.3139,-0.3638,-0.2474,-155.3513
17:25:37:978,2.166,3.137,3.914,48.3466,0.6116,-0.616,-0.7209,-155.4645
17:25:37:999,1.6631,2.5601,4.7711,48.4311,-0.1185,-0.4936,-1.0465,-155.4645
17:25:38:018,1.1411,1.875,6.404,48.3792,-0.6974,-0.1478,-1.2104,-155.4645
17:25:38:038,0.3011,1.343,8.166,48.0991,-0.9933,0.1555,-1.221,-155.4645
17:25:38:059,-0.204,1.01,9.452,48.0621,-0.9954,0.2119,-1.0561,-155.4645
17:25:38:078,-0.3281,1.0391,10.2491,47.7233,-0.7825,0.1396,-0.7879,-155.4645
17:25:38:101,-0.1061,1.3001,10.326,47.5256,-0.4601,0.0864,-0.4889,-155.3492
17:25:38:118,0.423,2.138,8.994,47.777,0.0571,0.2034,-0.044,-155.0891
17:25:38:146,0.5501,2.516,8.482,47.8356,0.1156,0.1629,0.1123,-154.9611
17:25:38:158,0.662,2.9471,8.355,47.8781,0.1614,0.1811,0.2412,-154.8422
17:25:38:179,0.6881,3.194,8.369,47.7729,0.2295,0.1854,0.3114,-154.7363
17:25:38:198,0.794,3.287,8.5751,47.5725,0.2688,-0.003,0.3124,-154.6451
17:25:38:218,1.05,3.309,8.76,47.5242,0.2349,-0.2839,0.2668,-154.6451
17:25:38:238,1.596,3.0701,9.183,47.6491,0.0294,-0.4723,0.1826,-154.6451
17:25:38:259,1.584,3.05,10.0481,47.7381,-0.3228,-0.3926,0.0836,-154.6451
17:25:38:280,1.464,2.751,11.252,47.7408,-0.7517,-0.2265,0.0166,-154.6451
17:25:38:298,2.036,1.331,13.397,47.7375,-1.3391,-0.4085,-0.0898,-154.6451
17:25:38:321,2.3861,0.206,15.842,47.7151,-1.4956,-0.5448,-0.2431,-154.6451
17:25:38:338,1.079,0.077,15.662,47.5433,-0.7463,0.0118,-0.2846,-154.6451
17:25:38:359,-0.872,0.7181,13.383,47.4672,0.3146,0.8282,-0.0419,-154.5473
17:25:38:378,-1.511,0.9581,10.7351,47.5218,0.8988,0.8526,0.2773,-154.4549
17:25:38:397,-1.3361,1.3721,9.021,47.6161,0.9531,0.2758,0.4561,-154.4549
17:25:38:421,-0.417,1.338,8.223,47.6739,0.7232,-0.2808,0.52,-154.4549
17:25:38:438,0.54,1.092,8.393,47.7408,0.4381,-0.4128,0.503,-154.4549
17:25:38:458,1.167,0.864,9.138,47.6502,0.2263,-0.2978,0.5041,-154.4549
17:25:38:478,1.811,0.5321,9.6341,47.5813,0.1507,-0.1552,0.4859,-154.4549
17:25:38:498,1.9361,0.362,9.8201,47.6167,0.1678,-0.0637,0.4125,-154.4549
17:25:38:521,1.6751,0.3641,9.581,47.7721,0.2731,0.0012,0.355,-154.4549
17:25:38:539,1.4,0.5771,8.8361,47.9907,0.4158,0.0331,0.3625,-154.4549
17:25:38:557,1.323,0.941,7.9031,48.223,0.5083,0.0715,0.4029,-154.4549
17:25:38:578,1.416,1.377,7.1,48.3424,0.5137,0.1555,0.4136,-154.4549
17:25:38:599,1.514,1.844,6.495,48.2153,0.436,0.2162,0.3954,-154.5479
17:25:38:619,1.6841,2.279,6.375,48.2657,0.2679,0.1865,0.3178,-154.6533
17:25:38:638,1.797,2.495,6.54,48.1589,0.0795,0.1045,0.1741,-154.7667
17:25:38:658,1.83,2.603,6.9971,48.047,-0.0802,0.0129,0.0135,-154.8819
17:25:38:678,1.763,2.6981,7.548,47.9427,-0.1675,-0.0126,-0.1537,-154.9926
17:25:38:698,1.4021,2.856,8.099,47.8135,-0.1909,0.0246,-0.2771,-155.0928
17:25:38:718,1.2851,2.8331,8.477,47.9101,-0.1695,0.0033,-0.3303,-155.0928
17:25:38:738,1.433,2.849,8.7551,48.3142,-0.1632,-0.0892,-0.375,-155.0928
17:25:38:759,1.692,2.789,9.011,48.8856,-0.2313,-0.1488,-0.4676,-155.0928
17:25:38:778,1.814,2.6771,9.4729,49.2701,-0.4037,-0.1404,-0.5655,-155.0928
17:25:38:798,1.7711,2.495,10.1411,49.446,-0.5952,-0.0542,-0.6304,-155.0928
17:25:38:819,1.6511,2.325,11.094,49.5288,-0.7975,0.0417,-0.6486,-155.0928
17:25:38:838,1.799,2.03,12.0611,49.4755,-0.9507,0.0352,-0.6379,-155.0928
17:25:38:860,2.367,1.437,12.8351,49.6443,-1.0816,-0.0542,-0.6113,-155.0928
17:25:38:878,2.9681,0.582,13.85,49.7405,-1.2338,-0.1276,-0.6496,-155.0928
17:25:38:898,2.69,-0.032,14.5061,49.7717,-1.0519,0.1822,-0.6443,-154.9847
17:25:38:918,1.728,-0.224,14.07,49.8684,-0.3803,0.678,-0.5006,-154.8558
17:25:38:939,1.1771,-0.02,12.6701,50.1113,0.3487,0.6504,-0.2804,-154.7144
17:25:38:958,1.9211,0.12,11.094,50.2304,0.8361,0.0672,-0.1154,-154.5698
17:25:38:977,3.305,0.6611,9.5501,50.378,1.0894,-0.5372,-0.093,-154.4278
17:25:38:998,4.577,0.852,8.168,50.3412,0.9947,-0.7853,-0.2856,-154.2881
17:25:39:019,5.228,0.929,7.424,50.0384,0.5562,-0.6022,-0.6805,-154.1425
17:25:39:037,4.7471,1.1711,7.524,49.875,0.0315,-0.1478,-1.0827,-153.9758
17:25:39:058,3.602,1.305,7.8881,50.0137,-0.293,0.3471,-1.2488,-153.7748
17:25:39:079,2.439,1.497,8.051,50.2059,-0.2856,0.5599,-1.3148,-153.5349
17:25:39:097,1.34,2.112,7.622,50.4872,-0.0588,0.462,-1.2636,-153.2558
17:25:39:118,0.8681,2.684,7.029,50.9377,0.1583,0.2215,-1.1498,-152.9418
17:25:39:138,0.593,3.297,6.6191,51.2659,0.2519,-0.0754,-1.0615,-152.5979
17:25:39:158,0.638,3.57,6.437,51.568,0.1965,-0.3627,-0.9753,-152.2279
17:25:39:178,1.062,3.369,6.71,51.8043,0.0518,-0.501,-0.9114,-151.8355
17:25:39:197,1.007,3.149,7.215,51.8632,-0.0631,-0.4245,-0.9114,-151.423
17:25:39:218,0.6761,3.141,7.7111,51.9617,-0.0748,-0.2936,-0.8689,-150.9911
17:25:39:238,0.233,3.275,8.003,51.804,-0.0014,-0.2606,-0.8231,-150.5418
17:25:39:258,-0.204,3.4481,8.252,51.6457,0.0358,-0.3681,-0.7315,-150.0776
17:25:39:277,-0.402,3.7901,8.4581,51.4512,0.0667,-0.4458,-0.573,-149.6028
17:25:39:298,-0.302,4.154,8.753,51.2624,0.0496,-0.4415,-0.3994,-149.1236
17:25:39:318,-0.141,4.413,9.045,51.304,-0.0153,-0.3607,-0.3006,-148.6456
17:25:39:338,-0.35,4.401,9.8201,51.1874,-0.128,-0.285,-0.2676,-148.1714
17:25:39:358,-0.62,4.25,10.946,51.2077,-0.1728,-0.2798,-0.1984,-147.7023
17:25:39:378,-0.797,3.771,12.212,51.3849,-0.0876,-0.4065,-0.1185,-147.2404
17:25:39:398,-0.491,3.05,12.5981,51.6103,0.1295,-0.5053,-0.0026,-146.7889
17:25:39:418,-0.3281,2.9741,12.6431,51.9308,0.2124,-0.4469,0.1358,-146.3522
17:25:39:438,-0.141,2.78,12.959,52.0313,0.0815,-0.2159,0.2975,-145.9351
17:25:39:458,0.054,2.6,13.733,51.9779,0.0155,0.1045,0.5158,-145.5426
17:25:39:479,0.054,2.624,13.4501,51.9827,0.2986,0.3992,0.7127,-145.1817
17:25:39:499,0.435,2.433,11.8751,52.0744,0.421,0.4663,0.8328,-144.8586
17:25:39:517,1.244,1.8941,11.58,52.1702,0.1273,0.2109,0.8605,-144.5762
17:25:39:539,1.89,1.202,12.222,52.0428,-0.0366,0.0331,0.7477,-144.3319
17:25:39:558,1.632,0.728,11.958,51.7882,0.2252,0.2577,0.6956,-144.1206
17:25:39:578,1.1,0.635,10.512,51.5811,0.6233,0.5217,0.7392,-143.9415
17:25:39:597,0.794,0.8291,8.939,51.4602,0.8456,0.5738,0.8148,-143.7966
17:25:39:617,0.959,1.2311,7.8311,51.5718,0.8212,0.3641,0.886,-143.6881
17:25:39:637,1.7471,1.4801,7.6301,51.3146,0.6339,0.1332,0.8722,-143.6881
17:25:39:657,2.364,1.374,7.6151,50.7996,0.5285,0.1865,0.7796,-143.6881
17:25:39:677,2.259,1.547,7.443,50.3025,0.4753,0.3769,0.6839,-143.6881
17:25:39:697,1.941,1.7621,7.199,49.814,0.3965,0.4939,0.6231,-143.6881
17:25:39:718,1.802,1.923,7.167,49.5412,0.3083,0.4322,0.5647,-143.6881
17:25:39:738,1.637,2.09,7.187,49.49,0.2476,0.3066,0.4965,-143.6881
17:25:39:759,1.589,2.2241,7.136,49.7469,0.1869,0.1991,0.4498,-143.6881
17:25:39:778,1.502,2.3441,7.328,49.8917,0.1167,0.1694,0.404,-143.7823
17:25:39:799,1.325,2.4611,7.6061,50.0323,0.0997,0.2087,0.3923,-143.8884
17:25:39:818,1.2221,2.732,7.773,50.1032,0.1295,0.18,0.3934,-144.0058
17:25:39:838,1.548,2.9141,7.776,49.8203,0.1709,0.0544,0.3752,-144.1344
17:25:39:858,1.9571,3.158,7.9121,49.4907,0.1262,-0.0648,0.3103,-144.2727
17:25:39:878,2.063,3.338,8.283,49.2839,0.088,-0.001,0.2156,-144.4178
17:25:39:899,2.1109,3.426,8.669,49.1136,0.0847,0.114,0.1368,-144.566
17:25:39:918,2.135,3.4571,9.224,49.1446,0.1273,0.1088,0.0602,-144.7145
17:25:39:938,2.4461,3.4241,9.6431,49.3091,0.205,-0.067,-0.0153,-144.8606
17:25:39:959,2.7881,3.575,9.461,49.4523,0.2923,-0.1754,-0.1143,-145.0017
17:25:39:978,2.858,3.824,9.152,49.4443,0.2317,-0.0648,-0.2388,-145.1344
17:25:39:997,2.439,3.984,9.4061,49.4557,0.0507,0.162,-0.3612,-145.254
17:25:40:018,2.139,3.836,10.3061,49.2187,-0.1632,0.1896,-0.4527,-145.3561
17:25:40:039,2.352,3.611,11.132,48.8993,-0.2622,0.1577,-0.4804,-145.3561
17:25:40:058,2.412,3.024,11.219,48.5591,-0.2813,0.1661,-0.5974,-145.3561
17:25:40:081,2.558,2.229,11.2811,48.3331,-0.4836,-0.018,-0.7102,-145.3561
17:25:40:098,3.1331,1.0391,12.045,48.1079,-0.9538,-0.3499,-0.7815,-145.3561
17:25:40:118,2.898,0.611,13.0481,47.9912,-1.0519,-0.1202,-0.7315,-145.3561
17:25:40:139,1.931,0.666,12.212,47.9883,-0.4984,0.4833,-0.4793,-145.3561
17:25:40:159,1.7111,1.8701,8.3651,47.8616,0.271,-0.0573,-0.1132,-145.3561
17:25:40:180,1.668,2.5331,7.256,47.6877,0.2284,-0.517,-0.2601,-145.3561
17:25:40:199,1.1981,2.727,6.93,47.5089,0.172,-0.5213,-0.4133,-145.3561
17:25:40:218,0.657,2.964,6.722,47.2091,0.2838,-0.2776,-0.4432,-145.2601
17:25:40:238,0.293,3.2111,6.3221,46.9863,0.4062,-0.1968,-0.4762,-145.1514
17:25:40:258,0.0161,3.477,5.925,46.9605,0.4125,-0.3457,-0.5633,-145.0287
17:25:40:279,-0.12,3.563,6.09,46.9681,0.2454,-0.5554,-0.6805,-144.8891
17:25:40:297,-0.005,3.498,6.5501,46.9252,0.038,-0.5181,-0.7411,-144.7288
17:25:40:321,-0.072,3.455,7.0841,46.8841,-0.1558,-0.2287,-0.7443,-144.5462
17:25:40:339,-0.185,3.381,7.862,46.7016,-0.3271,0.0715,-0.6731,-144.3421
17:25:40:358,-0.393,3.302,8.769,46.5528,-0.425,0.213,-0.5613,-144.1198
17:25:40:378,-0.477,3.173,9.7751,46.586,-0.3952,0.1629,-0.3825,-143.8844
17:25:40:397,-0.632,3.266,10.3451,46.5948,-0.1973,0.1299,-0.1601,-143.6434
17:25:40:423,-0.824,3.599,10.464,46.4743,0.1071,0.2034,0.1049,-143.4055
17:25:40:439,-0.678,3.797,10.079,46.4624,0.3487,0.2758,0.3816,-143.1808
17:25:40:458,0.066,3.8141,9.995,46.3081,0.3849,0.1374,0.5796,-142.9785
17:25:40:477,1.0481,3.7661,10.026,46.077,0.3211,-0.0212,0.6083,-142.804
17:25:40:498,1.431,3.6131,9.8471,45.8723,0.155,-0.0881,0.4316,-142.6562
17:25:40:521,0.669,3.137,9.77,45.7529,-0.2569,-0.036,0.2145,-142.5268
17:25:40:537,0.26,2.531,10.962,45.7902,-0.8485,0.0023,0.1805,-142.408
17:25:40:558,0.0281,2.045,12.6311,45.6735,-1.1572,0.1225,0.2986,-142.2988
17:25:40:578,0.099,1.836,13.256,45.4373,-0.8687,0.345,0.4859,-142.2034
17:25:40:598,-0.1631,1.832,11.8511,45.1539,-0.2281,0.4929,0.569,-142.2034
17:25:40:623,-0.4931,1.88,9.818,44.9453,0.1433,0.363,0.5221,-142.2034
17:25:40:638,-1.173,1.9631,8.2781,44.8997,0.2241,0.2204,0.4753,-142.2034
17:25:40:658,-1.367,1.892,7.673,44.9594,0.0135,0.0565,0.5221,-142.2034
17:25:40:679,-0.8531,1.5371,8.396,44.6674,-0.3323,-0.1319,0.602,-142.2034
17:25:40:699,0.1811,0.867,9.3341,44.0542,-0.5431,-0.2509,0.6498,-142.2034
17:25:40:718,0.978,0.6941,10.314,43.6014,-0.5984,-0.3106,0.6902,-142.2034
17:25:40:738,1.692,0.6011,10.508,43.3243,-0.4345,-0.1616,0.6956,-142.2034
17:25:40:758,1.56,0.7901,9.9161,43.2905,-0.0887,0.2289,0.6999,-142.2939
17:25:40:778,0.992,1.075,8.709,43.2857,0.1624,0.4173,0.7488,-142.4065
17:25:40:798,0.705,1.523,8.008,43.2362,0.2636,0.378,0.8126,-142.5428
17:25:40:819,0.492,1.9541,7.622,43.0823,0.337,0.2141,0.8553,-142.7044
17:25:40:837,0.638,2.22,7.347,42.9441,0.4073,0.0246,0.8977,-142.8924
17:25:40:858,0.863,2.792,7.0691,43.0715,0.403,-0.1743,0.8456,-143.1068
17:25:40:878,1.409,2.969,7.0211,43.0698,0.2562,-0.2893,0.7403,-143.3449
17:25:40:898,1.737,3.1271,7.23,42.8606,0.038,-0.2595,0.5594,-143.6014
17:25:40:918,1.6721,3.141,7.5551,42.7102,-0.1994,-0.0946,0.3593,-143.8685
17:25:40:938,1.2611,3.0821,7.958,42.5714,-0.4196,0.197,0.2252,-144.1385
17:25:40:958,0.755,2.979,8.99,42.5771,-0.5995,0.4674,0.1698,-144.4066
17:25:40:978,0.782,2.624,10.1321,42.6231,-0.6644,0.4588,0.1347,-144.6708
17:25:40:998,1.155,2.16,11.187,42.5527,-0.6601,0.2481,0.0676,-144.9299
17:25:41:017,1.5071,1.8701,11.7881,42.4167,-0.5654,0.1023,-0.0366,-145.1815
17:25:41:038,1.4261,1.542,11.834,42.1765,-0.4176,0.1885,-0.1621,-145.4223
17:25:41:058,0.767,1.346,11.547,42.0387,-0.3431,0.2705,-0.2027,-145.6491
17:25:41:078,0.6761,1.1471,11.429,41.8616,-0.4984,0.131,-0.1376,-145.8618
17:25:41:097,1.014,0.752,11.8961,41.5862,-0.7879,-0.0158,-0.1037,-146.0629
17:25:41:118,1.026,0.2921,12.8321,41.3191,-0.906,0.0565,-0.0962,-146.2532
17:25:41:138,0.8441,-0.416,13.4261,41.0124,-0.7858,0.0608,-0.0483,-146.4334
17:25:41:159,0.7391,-0.7601,13.4051,40.9043,-0.4059,-0.0776,0.0698,-146.6063
17:25:41:179,0.983,-0.837,12.3131,40.9892,0.1699,-0.3106,0.2986,-146.7776
17:25:41:197,1.6271,-0.4511,10.646,41.1919,0.6233,-0.6022,0.4711,-146.9558
17:25:41:219,2.2211,-0.032,8.867,41.2093,0.736,-0.7352,0.4646,-147.1463
17:25:41:238,2.484,0.489,7.785,41.1099,0.5189,-0.5607,0.3582,-147.3481
17:25:41:257,2.3261,0.8291,7.496,40.836,0.2571,-0.1393,0.2338,-147.5567
17:25:41:278,1.859,1.0781,7.5821,40.4395,0.1253,0.2386,0.1114,-147.767
17:25:41:298,1.548,1.341,7.5791,40.2447,0.1327,0.3695,0.0187,-147.9745
17:25:41:318,1.299,1.6691,7.5701,40.2407,0.2317,0.296,-0.0685,-148.1763
17:25:41:339,1.184,1.9871,7.2821,40.3519,0.3444,0.1247,-0.1739,-148.3696
17:25:41:358,1.136,2.349,7.041,40.5424,0.3338,-0.036,-0.2782,-148.5513
17:25:41:378,1.5581,2.495,7.203,40.8078,0.1082,-0.1712,-0.4122,-148.7177
17:25:41:398,1.7351,2.3921,8.1281,40.876,-0.1973,-0.12,-0.5687,-148.8639
17:25:41:418,1.4711,2.2751,9.306,40.8413,-0.3505,0.0352,-0.6698,-148.9844
17:25:41:438,0.909,2.184,10.242,40.8463,-0.2441,0.2269,-0.6379,-149.0773
17:25:41:458,0.581,2.193,10.608,40.7544,0.0081,0.3333,-0.4676,-149.0773
17:25:41:478,0.423,2.3321,10.728,40.5677,0.3402,0.3513,-0.2335,-149.0773
17:25:41:497,0.1811,2.6651,10.3931,40.4503,0.6563,0.1991,-0.0047,-149.0773
17:25:41:518,0.3101,3.266,9.8921,40.2129,0.8786,0.0385,0.2262,-149.0773
17:25:41:538,0.624,3.723,9.4901,40.0727,0.968,-0.0542,0.3795,-149.0773
17:25:41:559,1.44,3.584,9.375,39.9913,0.886,-0.1616,0.3784,-149.0773
17:25:41:578,1.938,3.237,9.2891,39.8785,0.6605,-0.2808,0.1603,-149.1674
17:25:41:597,1.529,2.775,9.272,39.8271,0.1911,-0.4202,-0.1367,-149.2592
17:25:41:617,0.842,2.658,10.244,39.8593,-0.41,-0.3021,-0.2398,-149.2592
17:25:41:638,0.344,2.409,11.3891,39.8308,-0.8262,-0.018,-0.1601,-149.2592
17:25:41:658,0.444,1.446,12.8951,39.7461,-1.0912,-0.0414,-0.1079,-149.2592
17:25:41:677,0.423,0.7331,13.905,39.4833,-1.104,-0.2925,-0.1706,-149.2592
17:25:41:698,-0.2081,0.4721,13.934,38.9988,-0.6783,-0.1914,-0.1601,-149.2592
17:25:41:719,-1.121,0.398,12.452,38.6915,0.007,0.2193,0.0144,-149.2592
17:25:41:738,-1.494,0.297,10.6511,38.4288,0.4913,0.4492,0.3274,-149.2592
17:25:41:758,-1.386,0.4721,9.018,38.2327,0.6563,0.3322,0.5519,-149.2592
17:25:41:778,-0.939,0.623,8.096,38.1749,0.5211,0.0895,0.6583,-149.2592
17:25:41:798,-0.2831,0.527,8.0651,38.1679,0.2614,-0.0829,0.6775,-149.3676
17:25:41:819,0.327,0.3641,8.6831,38.0056,0.056,-0.1222,0.6806,-149.4968
17:25:41:839,0.7241,0.299,9.243,37.9382,0.0624,-0.0488,0.7338,-149.6465
17:25:41:858,1.0481,0.4691,9.0881,37.8971,0.2614,0.0715,0.7956,-149.818
17:25:41:878,1.098,0.896,8.2901,37.6405,0.4392,0.1534,0.8286,-150.0135
17:25:41:898,1.0121,1.343,7.428,37.3494,0.4753,0.2269,0.7967,-150.2332
17:25:41:918,0.705,1.815,7.0481,37.2072,0.3891,0.3428,0.7679,-150.4755
17:25:41:939,0.564,2.198,7.2701,36.9784,0.2529,0.3513,0.7765,-150.7385
17:25:41:959,0.8801,2.481,7.833,36.7974,0.1891,0.2332,0.8148,-151.0221
17:25:41:978,1.4711,2.6531,8.24,36.6472,0.1911,0.0385,0.7668,-151.3262
17:25:41:998,2.149,2.718,8.685,36.3198,0.1444,-0.1616,0.6413,-151.6479
17:25:42:019,2.855,2.622,9.389,35.9147,0.056,-0.268,0.4678,-151.9819
17:25:42:038,3.159,2.603,10.0361,35.6681,0.0443,-0.1786,0.2784,-152.3211
17:25:42:058,3.1901,2.6291,10.685,35.5357,0.172,0.0459,0.0954,-152.6589
17:25:42:078,2.951,2.591,10.757,35.4047,0.403,0.1523,-0.0866,-152.9895
17:25:42:099,2.913,2.615,10.328,35.3885,0.5285,0.0055,-0.2643,-153.3073
17:25:42:118,2.838,2.562,9.7871,35.33,0.3923,-0.1052,-0.4654,-153.6066
17:25:42:139,2.345,2.538,9.8351,35.2273,0.1475,0.0428,-0.639,-153.8802
17:25:42:161,1.641,2.411,9.684,35.2708,-0.1621,0.1566,-0.7304,-154.1223
17:25:42:178,2.01,1.4081,11.0801,35.17,-1.1316,-0.0924,-0.7497,-154.5031
17:25:42:198,2.2931,0.5561,12.677,35.0423,-1.47,-0.169,-0.8326,-154.6405
17:25:42:218,1.629,-0.092,13.436,35.0243,-1.2859,0.0895,-0.8368,-154.7405
17:25:42:239,0.4421,-0.104,12.6431,34.9613,-0.5963,0.6483,-0.5559,-154.7405
17:25:42:259,-0.12,0.218,11.0801,35.0334,0.154,0.8536,-0.0483,-154.7405
17:25:42:278,0.408,0.7931,9.284,35.1676,0.685,0.5929,0.3157,-154.7405
17:25:42:298,0.9971,1.76,7.785,35.0873,1.0064,0.2503,0.4657,-154.7405
17:25:42:318,1.6961,2.4281,6.696,34.9041,1.0872,-0.1106,0.4114,-154.7405
17:25:42:339,2.5271,2.9501,5.97,34.7645,0.9148,-0.4617,0.1453,-154.8357
17:25:42:358,2.901,3.1841,5.853,34.7702,0.5147,-0.6948,-0.308,-154.931
17:25:42:378,2.85,2.828,6.4541,34.725,-0.0451,-0.6937,-0.8231,-154.931
17:25:42:397,1.919,2.306,7.668,34.8539,-0.4654,-0.3851,-1.221,-154.931
17:25:42:421,0.5501,1.863,8.724,34.9931,-0.6027,-0.0318,-1.3786,-154.931
17:25:42:440,-0.422,1.64,9.488,35.1084,-0.5325,0.1236,-1.2838,-154.931
17:25:42:458,-0.7421,1.662,10.062,35.0648,-0.3292,0.0544,-1.053,-154.8366
17:25:42:479,-0.4811,1.827,10.4291,35.0437,-0.0503,-0.1074,-0.7964,-154.7094
17:25:42:498,0.063,2.011,10.239,34.9341,0.2593,-0.1467,-0.6176,-154.5592
17:25:42:522,0.482,2.301,9.8321,34.9381,0.4466,-0.0509,-0.4814,-154.393
17:25:42:538,0.7271,2.684,9.456,35.2841,0.5115,0.0821,-0.3803,-154.2159
17:25:42:557,0.6881,3.134,9.138,35.4028,0.5413,0.2534,-0.2782,-154.0316
17:25:42:578,0.614,3.486,9.009,35.5992,0.5658,0.3003,-0.1686,-153.8441
17:25:42:600,0.705,3.771,8.903,35.7078,0.5881,0.2193,-0.093,-153.6571
17:25:42:619,0.83,3.872,9.114,35.7998,0.5456,0.03,-0.1005,-153.4725
17:25:42:637,0.8111,3.927,9.3491,36.0645,0.47,-0.1074,-0.1293,-153.2896
17:25:42:658,0.581,3.888,9.662,36.2186,0.4125,-0.1052,-0.1207,-153.1076
17:25:42:678,0.6191,3.75,9.591,36.2086,0.3508,-0.1052,-0.0558,-152.9271
17:25:42:697,0.767,3.6941,9.356,36.3352,0.0997,-0.219,-0.0366,-152.7503
17:25:42:718,0.672,3.704,9.605,36.3612,-0.3175,-0.1988,-0.0835,-152.5772
17:25:42:738,0.485,3.441,10.361,36.4268,-0.7463,-0.0382,-0.1174,-152.4058
17:25:42:758,0.741,2.43,11.7881,36.6406,-1.1071,-0.0509,-0.1537,-152.2346
17:25:42:778,0.708,1.856,12.9311,36.9977,-1.0912,-0.1031,-0.2153,-152.062
17:25:42:798,-0.0461,1.719,12.023,37.2447,-0.4814,0.1863,-0.1495,-151.8865
17:25:42:817,-1.092,1.868,9.816,37.3274,0.221,0.61,0.0826,-151.7125
17:25:42:838,-1.389,1.875,8.0771,37.3671,0.3593,0.5567,0.2423,-151.5481
17:25:42:858,-1.53,2.045,7.752,37.3299,0.1891,0.2013,0.2454,-151.3972
17:25:42:877,-1.221,1.959,7.9361,37.2791,0.0155,-0.2031,0.2135,-151.2593
17:25:42:898,-0.582,1.676,8.276,37.6194,-0.1068,-0.4159,0.2529,-151.1333
17:25:42:918,0.533,1.2521,8.817,38.0628,-0.2802,-0.5288,0.3081,-151.0206
17:25:42:937,1.5,0.9431,9.6,38.3765,-0.4899,-0.5692,0.2731,-150.9221
17:25:42:958,1.7201,0.833,10.2731,38.7751,-0.4931,-0.3383,0.1869,-150.9221
17:25:42:978,0.918,0.987,10.031,38.9719,-0.1781,0.1385,0.1772,-150.9221
17:25:42:998,-0.0071,1.3601,8.6951,38.9688,0.1891,0.4322,0.3454,-150.9221
17:25:43:019,-0.2471,1.896,7.7231,39.1931,0.3305,0.3769,0.5605,-150.9221
17:25:43:038,-0.0671,2.43,7.2251,39.5287,0.3891,0.2056,0.703,-150.9221
17:25:43:058,0.245,2.945,6.95,39.7246,0.4199,0.0268,0.7381,-150.9221
17:25:43:078,0.53,3.381,6.672,40.0076,0.3954,-0.0946,0.6817,-150.9221
17:25:43:098,0.621,3.747,6.978,40.2455,0.238,-0.1414,0.571,-150.9221
17:25:43:118,0.6311,3.714,8.159,40.3408,0.0795,-0.252,0.4157,-150.9221
17:25:43:138,0.717,3.618,9.006,40.4649,0.0847,-0.3915,0.2901,-150.9221
17:25:43:159,1.062,3.603,9.3701,40.4156,0.1646,-0.3979,0.2305,-150.9221
17:25:43:178,1.2491,3.6011,9.677,40.1367,0.1529,-0.2713,0.1262,-150.9221
17:25:43:198,1.304,3.4481,10.16,40.194,0.0773,-0.1754,0.0261,-151.0154
17:25:43:219,1.6511,3.2321,10.431,40.3561,0.0305,-0.1126,-0.0314,-151.1066
17:25:43:238,1.9481,3.2591,10.424,40.6634,-0.0206,-0.0329,-0.0622,-151.1066
17:25:43:258,1.955,3.29,10.089,41.4256,-0.1089,0.0864,-0.1356,-151.1066
17:25:43:279,1.6841,3.357,10.196,41.9963,-0.3772,0.0491,-0.2292,-151.1066
17:25:43:298,1.9691,2.9711,10.8641,42.4969,-0.7241,-0.1382,-0.3367,-151.1066
17:25:43:318,2.372,2.358,11.6831,42.7682,-0.9699,-0.2435,-0.407,-151.1066
17:25:43:338,2.321,1.7021,12.5861,42.9906,-1.0443,-0.268,-0.4921,-151.1066
17:25:43:357,1.926,0.972,12.5351,43.2137,-0.8539,-0.1478,-0.524,-151.1066
17:25:43:378,1.596,0.611,11.8631,43.5059,-0.608,-0.0275,-0.4091,-151.1066
17:25:43:398,1.716,0.24,10.989,43.8134,-0.4473,0.0311,-0.2441,-151.1066
17:25:43:419,1.886,0.1601,10.6751,43.8899,-0.3058,0.0363,-0.0983,-151.1066
17:25:43:438,2.288,0.249,10.491,44.0492,-0.0397,-0.0967,0.0092,-151.1066
17:25:43:458,2.805,0.426,9.5591,44.1128,0.3125,-0.2426,0.0113,-151.1066
17:25:43:478,2.843,0.8051,8.1041,44.3894,0.5211,-0.2808,-0.0983,-151.1066
17:25:43:498,2.3501,1.2881,6.993,44.5572,0.47,-0.2233,-0.2526,-151.1066
17:25:43:518,1.785,1.568,6.519,44.6015,0.2731,-0.1063,-0.4133,-151.1066
17:25:43:538,1.194,1.71,6.3251,44.7587,0.1231,0.0246,-0.5368,-151.1066
17:25:43:563,0.545,1.9511,6.234,44.8888,0.0411,0.1321,-0.6219,-151.1066
17:25:43:584,-0.086,2.2631,6.2051,45.0548,0.0081,0.1694,-0.6358,-151.01
17:25:43:602,-0.378,2.531,6.329,45.346,-0.0494,0.0767,-0.6156,-150.894
17:25:43:618,-0.287,2.646,6.653,45.4968,-0.2047,-0.0754,-0.6145,-150.7598
17:25:43:638,-0.122,2.66,7.428,45.6531,-0.408,-0.1552,-0.6443,-150.6073
17:25:43:657,-0.029,2.531,8.5301,45.813,-0.5932,-0.1882,-0.6517,-150.4356
17:25:43:678,0.308,2.313,9.825,46.1533,-0.7028,-0.1616,-0.6176,-150.245
17:25:43:699,0.3461,2.129,10.955,46.6937,-0.6592,-0.0446,-0.5431,-150.0374
17:25:43:718,0.152,2.2631,11.7431,47.1251,-0.4591,0.1066,-0.374,-149.8168
17:25:43:738,0.0161,2.528,11.8121,47.4415,-0.1015,0.3376,-0.1207,-149.5907
17:25:43:758,0.116,2.718,11.255,47.6353,0.1976,0.4344,0.1411,-149.369
17:25:43:778,0.3701,2.964,10.965,47.6466,0.289,0.3035,0.2879,-149.1604
17:25:43:798,0.827,2.952,10.742,47.7199,0.3009,0.1066,0.3305,-148.9689
17:25:43:819,1.0451,2.775,10.646,47.856,0.1561,-0.0349,0.2912,-148.795
17:25:43:838,0.969,2.624,11.1521,48.1301,-0.176,-0.1882,0.1986,-148.6358
17:25:43:858,0.89,2.253,11.958,48.2437,-0.5005,-0.2318,0.1783,-148.4877
17:25:43:878,1.172,1.458,13.0691,48.4439,-0.7975,-0.301,0.1678,-148.3492
17:25:43:900,1.4501,0.608,13.733,48.7764,-0.8474,-0.3404,0.1209,-148.2188
17:25:43:918,1.0691,0.369,13.0931,49.1066,-0.5186,-0.135,0.1326,-148.0948
17:25:43:939,0.3131,0.524,11.4221,49.407,-0.0067,0.3035,0.2614,-147.9788
17:25:43:964,-0.4931,0.5411,8.652,49.4785,0.4625,0.5024,0.4635,-147.8764
17:25:43:980,-0.501,0.527,8.523,49.4258,0.4466,0.1225,0.488,-147.8764
17:25:44:000,0.111,0.4241,8.417,49.2069,0.3828,-0.2936,0.5019,-147.8764
17:25:44:019,0.846,0.359,8.666,49.1627,0.2412,-0.4159,0.4965,-147.8764
17:25:44:040,1.4951,0.0341,9.272,49.2557,0.0593,-0.3638,0.4103,-147.8764
17:25:44:060,1.376,-0.0011,9.753,49.221,0.0358,-0.1211,0.3508,-147.8764
17:25:44:079,0.851,0.134,9.6911,49.3658,0.1785,0.1661,0.3625,-147.8764
17:25:44:099,0.4871,0.366,8.82,49.595,0.4093,0.3098,0.4785,-147.8764
17:25:44:119,0.38,0.7571,7.941,49.5904,0.5264,0.3279,0.6072,-147.8764
17:25:44:138,0.387,1.092,7.335,49.6659,0.5285,0.2822,0.6775,-147.8764
17:25:44:167,0.42,1.4921,7.0361,49.8045,0.487,0.2258,0.719,-147.9678
17:25:44:178,0.609,1.9181,6.804,49.8811,0.4168,0.1746,0.7583,-148.083
17:25:44:199,0.753,2.3231,6.684,50.0206,0.3263,0.1789,0.7541,-148.2222
17:25:44:218,0.866,2.6531,6.605,50.0994,0.2039,0.1396,0.6913,-148.384
17:25:44:238,1.206,2.801,6.6461,49.9086,-0.0056,0.0587,0.5614,-148.5648
17:25:44:258,1.421,2.8091,7.311,49.7354,-0.3069,0.08,0.3444,-148.7582
17:25:44:280,1.263,2.4371,8.693,49.8689,-0.5314,0.164,0.1646,-148.9557
17:25:44:298,1.124,2.021,10.1531,50.0585,-0.5292,0.1598,0.0869,-149.1512
17:25:44:318,1.6601,1.604,11.063,50.1406,-0.3772,-0.0531,0.0517,-149.3427
17:25:44:338,2.324,1.31,10.986,50.1797,-0.2707,-0.2904,-0.0749,-149.5287
17:25:44:358,2.496,1.154,10.7351,50.0204,-0.3451,-0.2329,-0.2676,-149.7046
17:25:44:382,1.469,1.3121,10.539,49.8605,-0.4111,0.2545,-0.3942,-149.8639
17:25:44:398,0.585,1.212,10.517,49.9292,-0.4516,0.6131,-0.3143,-150.0043
17:25:44:418,0.545,1.2671,10.883,50.1628,-0.5878,0.5749,-0.225,-150.1294
17:25:44:440,1.1411,0.989,11.559,50.3557,-0.6581,0.4025,-0.176,-150.2426
17:25:44:458,1.4261,0.857,12.018,50.4284,-0.5325,0.2162,-0.2324,-150.3453
17:25:44:478,1.56,0.417,12.0731,50.3016,-0.3803,-0.0318,-0.3048,-150.436
17:25:44:498,2.2571,-0.5261,12.3611,50.1052,-0.4091,-0.4031,-0.3431,-150.436
17:25:44:522,2.601,-0.8081,12.926,49.8997,-0.3855,-0.5713,-0.3495,-150.436
17:25:44:538,2.661,-0.863,12.464,49.792,-0.0674,-0.3277,-0.2654,-150.436
17:25:44:558,2.3261,-0.7481,11.097,49.805,0.2443,-0.0126,-0.1398,-150.436
17:25:44:578,2.2781,-0.341,9.981,49.8517,0.3051,0.047,-0.043,-150.436
17:25:44:599,2.13,0.242,9.294,49.87,0.3296,0.0172,-0.0632,-150.436
17:25:44:618,1.754,0.855,8.427,49.9884,0.454,0.0352,-0.1185,-150.436
17:25:44:638,1.344,1.4561,7.2461,50.1609,0.6148,0.1119,-0.1601,-150.436
17:25:44:658,0.942,1.901,6.1091,50.3463,0.6913,0.2013,-0.2186,-150.436
17:25:44:677,0.5591,2.229,5.216,50.447,0.6583,0.279,-0.3026,-150.436
17:25:44:698,0.3101,2.5811,4.845,50.4596,0.4403,0.2162,-0.4218,-150.436
17:25:44:718,0.2171,2.8091,5.259,50.293,0.1572,0.0725,-0.5911,-150.436
17:25:44:738,0.107,2.658,6.0521,50.0346,-0.0622,-0.0978,-0.7836,-150.436
17:25:44:759,0.107,2.447,6.792,49.8575,-0.2515,-0.1851,-0.8911,-150.436
17:25:44:778,0.138,2.1431,7.8761,49.8211,-0.458,-0.1404,-0.9571,-150.436
17:25:44:798,-0.156,1.683,9.291,49.8508,-0.6229,-0.0392,-0.9944,-150.3162
17:25:44:818,-0.6251,1.305,10.548,49.8161,-0.6474,0.047,-0.89,-150.1657
17:25:44:838,-1.1111,1.238,11.441,49.9241,-0.5101,0.1959,-0.5932,-149.9906
17:25:44:858,-1.3361,1.401,11.951,50.0356,-0.2622,0.3578,-0.1728,-149.8029
17:25:44:878,-0.987,1.487,12.0761,50.248,-0.0014,0.3875,0.2699,-149.6181
17:25:44:898,-0.3281,1.662,12.224,50.5433,0.1497,0.2002,0.5679,-149.4505
17:25:44:918,0.686,1.7741,12.246,50.6955,0.1103,-0.1669,0.6839,-149.3085
17:25:44:938,1.7111,1.8131,12.842,50.549,-0.1983,-0.501,0.6211,-149.194
17:25:44:958,2.422,1.604,13.9151,50.1522,-0.5793,-0.6905,0.4412,-149.1033
17:25:44:977,2.9891,0.6251,15.342,49.8214,-0.8145,-0.7523,0.1561,-149.1033
17:25:44:998,2.4911,-0.234,16.034,49.5336,-0.657,-0.6149,-0.1217,-149.1033
17:25:45:018,0.906,-0.188,14.784,49.5105,0.0231,-0.0466,-0.1462,-149.1033
17:25:45:038,-0.357,0.29,11.997,49.7786,0.7989,0.5141,0.0858,-149.1033
17:25:45:058,-0.774,0.426,9.219,50.0089,1.1819,0.6163,0.32,-149.1033
17:25:45:078,-0.728,0.69,7.665,50.2183,1.1511,0.3908,0.4518,-149.1033
17:25:45:097,-0.2921,0.819,7.0241,50.3479,1,0.1194,0.4412,-149.1033
17:25:45:118,-0.287,1.022,6.5981,50.3999,0.8658,0.0055,0.3561,-149.1033
17:25:45:138,-0.2471,1.049,6.3581,50.5594,0.6594,-0.0062,0.3487,-149.1033
17:25:45:160,0.135,1.109,6.7751,50.5853,0.3636,-0.0115,0.3869,-149.1033
17:25:45:178,0.5621,1.145,7.4261,50.6637,0.137,-0.0126,0.3508,-149.1033
17:25:45:198,0.554,1.149,7.881,50.6307,0.0231,-0.001,0.2443,-149.1033
17:25:45:217,0.449,1.142,8.202,50.5114,-0.0195,0.0406,0.1752,-149.1033
17:25:45:239,0.092,1.1711,8.307,50.5711,-0.0025,0.0864,0.1689,-149.1033
17:25:45:258,-0.0221,1.3601,8.3141,50.5821,0.0029,0.0852,0.2369,-149.1033
17:25:45:277,0.2291,1.599,8.391,50.5075,-0.011,0.0886,0.3274,-149.1033
17:25:45:299,0.576,1.796,8.6501,50.4516,-0.0238,0.1002,0.3741,-149.1033
17:25:45:319,0.851,1.944,9.042,50.4227,-0.0004,0.0843,0.3582,-149.1033
17:25:45:338,1.071,2.057,9.389,50.3174,0.0698,0.0278,0.3305,-149.1033
17:25:45:359,1.4231,2.186,9.437,50.3908,0.1464,-0.0733,0.289,-149.2019
17:25:45:378,1.8071,2.3351,9.416,50.4755,0.1954,-0.1158,0.2028,-149.3073
17:25:45:398,2.1611,2.246,9.509,50.4426,0.2061,-0.1254,0.0741,-149.416
17:25:45:418,2.661,2.028,9.686,50.2861,0.1678,-0.1584,-0.0844,-149.5233
17:25:45:438,3.011,1.7261,9.986,50.2786,0.0784,-0.1903,-0.2835,-149.6232
17:25:45:458,3.1451,1.4651,10.019,50.2626,-0.0355,-0.1254,-0.4207,-149.6232
17:25:45:478,3.0491,1.473,10.065,50.3136,-0.1973,0.0587,-0.5144,-149.6232
17:25:45:498,2.712,1.4291,10.419,50.5147,-0.3686,0.1598,-0.606,-149.6232
17:25:45:517,2.913,1.128,10.974,50.8494,-0.641,-0.1563,-0.6857,-149.6232
17:25:45:538,3.4271,0.5771,12.203,50.9914,-1.005,-0.6937,-0.89,-149.6232
17:25:45:559,3.1661,-0.2051,13.0241,51.1043,-1.2114,-0.7853,-1.1316,-149.6232
17:25:45:579,2.13,-0.696,13.67,51.2502,-1.1125,-0.2904,-1.1307,-149.6232
17:25:45:598,1.2821,-0.897,12.9401,51.1671,-0.641,0.3928,-0.7879,-149.5115
17:25:45:618,1.517,-0.399,11.568,51.141,-0.1877,0.7175,-0.3612,-149.3784
17:25:45:638,2.666,-0.09,10.218,51.1184,0.1816,0.7249,-0.2728,-149.238
17:25:45:658,2.1851,1.319,9.152,50.9261,0.6233,0.6621,-0.5581,-149.0906
17:25:45:678,1.608,1.389,7.931,50.9015,0.9233,0.2545,-0.6879,-148.9276
17:25:45:697,1.632,1.343,6.978,51.0498,0.9511,-0.3351,-0.9136,-148.7437
17:25:45:719,1.476,1.686,6.468,51.1869,0.7818,-0.8023,-1.1413,-148.5319
17:25:45:738,1.304,1.688,6.291,51.2927,0.4295,-0.9534,-1.3712,-148.2849
17:25:45:757,1.1981,1.3361,6.99,51.268,0.0773,-0.7235,-1.4711,-147.9968
17:25:45:778,0.959,1.1801,7.955,51.0872,-0.1057,-0.45,-1.5212,-147.6655
17:25:45:798,0.588,1.334,8.192,51.0334,-0.1302,-0.2116,-1.5234,-147.2908
17:25:45:817,0.152,1.4441,8.4011,50.9646,-0.1664,-0.018,-1.4318,-146.8745
17:25:45:839,-0.098,1.652,8.6111,50.7874,-0.1909,0.129,-1.253,-146.4218
17:25:45:859,-0.2921,1.947,8.726,50.6716,-0.2005,0.2045,-1.0539,-145.9403
17:25:45:878,-0.422,2.229,9.002,50.4199,-0.2175,0.1555,-0.8667,-145.4377
17:25:45:898,-0.407,2.433,9.332,50.359,-0.2005,0.063,-0.6443,-144.9216
17:25:45:918,-0.45,2.6861,9.7819,50.3992,-0.1334,0.0087,-0.4187,-144.4002
17:25:45:938,-0.374,2.8061,10.239,50.4799,0.0337,0.0107,-0.1728,-143.8815
17:25:45:958,-0.141,2.955,10.139,50.4845,0.2688,0.0065,0.0847,-143.3743
17:25:45:978,0.224,3.038,10.019,50.3883,0.3849,-0.1116,0.2486,-142.8864
17:25:45:997,0.617,2.955,10.182,50.2606,0.388,-0.2745,0.32,-142.4221
17:25:46:018,0.995,2.9,10.548,49.9911,0.3593,-0.3894,0.3402,-141.9832
17:25:46:038,1.445,2.804,10.85,49.832,0.2146,-0.5181,0.2879,-141.5691
17:25:46:059,1.785,2.627,11.24,49.8183,-0.1345,-0.6022,0.1848,-141.1768
17:25:46:078,2.178,2.244,12.078,49.6301,-0.5027,-0.5735,0.1018,-140.802
17:25:46:098,2.6831,1.4531,13.263,49.6053,-0.7697,-0.6128,-0.0195,-140.4404
17:25:46:117,2.817,0.714,13.3931,49.3367,-0.6846,-0.4894,-0.1324,-140.0868
17:25:46:138,1.938,0.666,11.87,49.0817,-0.2696,0.0374,-0.1537,-139.7376
17:25:46:158,1.0549,0.8741,10.275,49.1101,0.1401,0.462,-0.1026,-139.3935
17:25:46:184,0.4751,0.836,9.0521,49.0097,0.4284,0.4524,-0.0451,-139.057
17:25:46:198,0.4031,0.915,8.051,48.8733,0.5775,0.1842,-0.0058,-138.7299
17:25:46:218,0.5591,0.927,7.2461,48.7851,0.5658,-0.0573,0.0166,-138.4136
17:25:46:237,0.969,0.96,7.0331,48.4357,0.3242,-0.2042,-0.0132,-138.108
17:25:46:259,1.826,0.558,8.8361,47.8548,-0.2589,-0.1584,-0.1706,-137.5193
17:25:46:279,1.644,0.486,9.5861,47.3997,-0.2834,0.0352,-0.2207,-137.2294
17:25:46:298,1.397,0.63,9.734,47.1827,-0.1493,0.2013,-0.1654,-136.9403
17:25:46:319,1.368,0.893,9.1091,47.018,0.0571,0.3024,-0.0707,-136.6547
17:25:46:338,1.3301,1.3241,8.142,46.9635,0.155,0.2896,-0.0314,-136.3756
17:25:46:358,1.241,1.712,7.575,46.844,0.0806,0.2226,-0.0568,-136.1039
17:25:46:378,0.9971,1.995,7.5461,46.3939,-0.0653,0.1629,-0.0835,-135.8381
17:25:46:398,0.981,2.162,8.12,45.9887,-0.1909,0.1055,-0.059,-135.5774
17:25:46:421,1.4111,2.337,8.748,45.8283,-0.1888,0.0331,-0.01,-135.3227
17:25:46:439,1.7561,2.478,8.918,45.8399,-0.1163,0.0203,-0.0271,-135.0752
17:25:46:458,1.653,2.588,9.248,45.8839,-0.0738,0.0406,-0.0866,-134.8336
17:25:46:478,1.407,2.72,9.5981,45.8673,0.0241,0.0491,-0.1005,-134.5961
17:25:46:498,1.502,2.715,9.741,45.6067,0.1262,-0.0414,-0.1057,-134.3622
17:25:46:522,1.766,2.6981,9.966,45.1764,0.1635,-0.1691,-0.158,-134.1315
17:25:46:537,2.063,2.445,10.3301,44.7615,0.2072,-0.2414,-0.2388,-133.9018
17:25:46:558,2.285,2.1911,10.3571,44.5456,0.2571,-0.2659,-0.3303,-133.6701
17:25:46:578,2.5391,1.9391,10.239,44.3211,0.1976,-0.2958,-0.4272,-133.4335
17:25:46:598,2.613,1.8821,10.3811,44.3212,0.006,-0.2797,-0.5229,-133.1885
17:25:46:619,2.805,1.7741,10.874,44.3831,-0.2227,-0.3574,-0.6273,-132.9319
17:25:46:638,3.2891,1.4921,11.343,44.146,-0.4953,-0.5778,-0.7517,-132.6598
17:25:46:658,3.681,0.998,12.059,43.7715,-0.8092,-0.6564,-0.9466,-132.3675
17:25:46:677,3.444,0.4601,13.287,43.2861,-0.9933,-0.4883,-1.104,-132.0482
17:25:46:697,3.672,-0.351,14.094,42.6874,-0.9497,-0.3351,-1.1316,-131.6979
17:25:46:718,3.959,-0.818,13.9121,42.4461,-0.6676,-0.0903,-1.0699,-131.3174
17:25:46:739,3.7121,-0.6,13.287,42.3474,-0.1728,0.2045,-1.0103,-130.9108
17:25:46:759,3.159,-0.327,11.46,42.1115,0.5009,0.411,-0.987,-130.4816
17:25:46:778,2.4941,0.194,9.0041,41.9124,1.0383,0.3662,-0.9338,-130.0327
17:25:46:798,2.202,0.7661,6.875,41.4735,1.2426,0.1129,-0.9327,-129.5664
17:25:46:818,2.1611,1.4681,5.228,40.8248,1.1777,-0.1882,-1.0157,-129.0826
17:25:46:839,2.343,2.0141,4.3451,40.2659,0.8999,-0.4628,-1.1785,-128.5779
17:25:46:858,2.3021,2.2871,3.921,39.909,0.5254,-0.6692,-1.4574,-128.0459
17:25:46:878,1.881,2.37,4.076,39.8537,0.1199,-0.7278,-1.7809,-127.4769
17:25:46:898,1.2581,2.342,4.7921,39.9253,-0.2674,-0.6416,-2.0468,-126.8601
17:25:46:918,0.717,2.1191,6.1211,39.906,-0.6155,-0.5362,-2.215,-126.1878
17:25:46:938,0.377,1.7141,7.709,39.7541,-0.8145,-0.4819,-2.2565,-125.4562
17:25:46:958,0.104,1.389,8.7,39.3126,-0.8464,-0.4128,-2.1363,-124.667
17:25:46:978,-0.213,1.41,9.5381,38.815,-0.8368,-0.2457,-1.9224,-123.8271
17:25:46:998,-0.5801,1.542,10.445,38.5415,-0.7081,0.0554,-1.6287,-122.9463
17:25:47:017,-1.013,1.8461,10.943,38.1038,-0.4304,0.3257,-1.2423,-122.0374
17:25:47:038,-1.226,2.421,11.0531,37.5605,-0.1015,0.3652,-0.8411,-121.1152
17:25:47:059,-0.948,2.856,10.845,37.2537,0.1805,0.2417,-0.5357,-120.1939
17:25:47:078,-0.63,3.156,10.548,36.9238,0.3838,0.1694,-0.3134,-119.2832
17:25:47:098,-0.35,3.359,10.1171,36.6064,0.4679,0.1492,-0.1537,-118.3901
17:25:47:118,-0.132,3.362,10.038,36.3735,0.4115,0.1609,-0.0835,-117.5189
17:25:47:138,0.073,3.378,10.1081,36.1054,0.3296,0.1811,-0.0516,-116.671
17:25:47:158,0.327,3.338,10.215,35.7053,0.2082,0.1204,-0.0547,-115.8466
17:25:47:178,0.825,3.041,10.4291,35.4199,-0.0238,0.0033,-0.1132,-115.0446
17:25:47:197,0.791,3.0791,10.833,35.3495,-0.2589,0.1629,-0.1877,-114.2621
17:25:47:218,0.317,2.9951,11.477,35.3255,-0.3121,0.5545,-0.1664,-113.4968
17:25:47:238,0.341,2.658,11.913,35.3699,-0.2025,0.5354,-0.1037,-112.7496
17:25:47:258,0.612,2.1881,11.583,35.2568,0.0113,0.1811,-0.1654,-112.0211
17:25:47:278,0.447,1.827,10.85,34.9456,0.1902,-0.0637,-0.2685,-111.3079
17:25:47:298,0.02,1.5161,10.203,34.5193,0.2966,-0.0903,-0.3015,-110.6059
17:25:47:318,-0.2831,1.362,9.693,34.2239,0.353,-0.0488,-0.2271,-109.9144
17:25:47:338,-0.1871,1.391,9.387,33.9032,0.3253,-0.1094,-0.0983,-109.2359
17:25:47:358,0.588,1.3961,9.38,33.6623,0.2284,-0.285,0.0027,-108.5746
17:25:47:378,1.613,1.3031,9.3731,33.4651,0.0582,-0.3946,-0.0067,-107.9331
17:25:47:399,2.202,1.31,9.284,33.264,-0.1026,-0.234,-0.1293,-107.3097
17:25:47:419,1.9691,1.391,9.083,33.0316,-0.161,0.1502,-0.2441,-106.6997
17:25:47:438,1.3301,1.5371,8.786,32.9236,-0.1484,0.3939,-0.2771,-106.0994
17:25:47:458,0.933,1.7261,8.664,32.8299,-0.0952,0.329,-0.2463,-105.5078
17:25:47:478,0.803,1.9631,8.436,32.5065,0.0433,0.1874,-0.1856,-104.9258
17:25:47:497,0.882,2.172,8.159,32.3216,0.2582,0.0852,-0.1111,-104.3552
17:25:47:521,0.897,2.502,7.4021,32.0353,0.452,0.0192,-0.0866,-103.7975
17:25:47:539,0.803,2.8331,6.7481,31.7151,0.4774,-0.0264,-0.1005,-103.2524
17:25:47:558,0.708,3.1961,6.449,31.6328,0.3136,-0.0924,-0.1526,-102.7189
17:25:47:578,0.849,3.18,7.031,31.5352,0.0698,-0.1595,-0.2474,-102.1948
17:25:47:598,0.827,3.1871,8.214,31.4383,-0.0588,-0.1371,-0.3388,-101.677
17:25:47:618,0.547,3.0431,9.219,31.4345,0.0496,-0.0712,-0.4005,-101.1624
17:25:47:638,0.348,2.9591,9.404,31.3721,0.2284,-0.1584,-0.4122,-100.6488
17:25:47:658,0.4781,2.94,9.5741,31.3285,0.2423,-0.3681,-0.4634,-100.1354
17:25:47:677,0.7961,2.708,10.112,31.1924,0.1347,-0.4521,-0.54,-99.6201
17:25:47:698,0.945,2.466,10.412,30.9274,0.0465,-0.2489,-0.5538,-99.1007
17:25:47:719,0.6191,2.418,10.713,30.7871,-0.011,-0.0115,-0.5389,-98.5774
17:25:47:738,0.257,2.694,10.608,30.8114,-0.06,-0.0286,-0.4645,-98.0514
17:25:47:758,0.435,2.7731,10.661,30.8344,-0.2079,-0.2947,-0.4059,-97.5254
17:25:47:778,1.088,2.4611,11.039,30.8363,-0.41,-0.6405,-0.3931,-97.0014
17:25:47:798,2.0321,1.937,11.8001,30.8538,-0.6559,-0.8767,-0.39,-96.4799
17:25:47:818,2.496,1.2881,12.698,30.8047,-0.8305,-0.9108,-0.4548,-95.9607
17:25:47:838,2.118,0.905,13.4051,30.6329,-0.7124,-0.6395,-0.4443,-95.4412
17:25:47:857,2.051,0.738,13.0361,30.5641,-0.2995,-0.2797,-0.2207,-94.923
17:25:47:878,2.52,1.082,11.889,30.3119,0.1572,-0.2085,-0.0186,-94.4145
17:25:47:901,2.7911,1.674,10.268,30.0626,0.4062,-0.3829,-0.1132,-93.9202
17:25:47:917,2.403,2.1311,8.748,30.224,0.436,-0.3713,-0.3356,-93.4356
17:25:47:938,1.8401,2.5091,7.685,30.5075,0.3327,-0.1297,-0.5112,-92.9529
17:25:47:958,1.292,2.6891,7.407,30.7741,0.2093,0.0767,-0.6486,-92.4662
17:25:47:977,0.8441,2.828,7.1771,31.0136,0.1666,0.1374,-0.7741,-91.9706
17:25:47:998,0.4181,3.0071,6.7511,31.1247,0.1965,0.1321,-0.8592,-91.4623
17:25:48:018,0.0851,3.086,6.3341,31.1074,0.1455,0.0098,-0.9306,-90.9387
17:25:48:038,0.423,2.94,6.636,31.033,0.007,-0.1286,-1.0359,-90.3975
17:25:48:058,0.425,2.8091,6.9641,30.9913,-0.1121,-0.0989,-1.1828,-89.8351
17:25:48:079,0.174,2.7461,7.46,30.9977,-0.2643,-0.0073,-1.2072,-89.2477
17:25:48:097,0.138,2.61,8.235,31.1836,-0.3675,0.0417,-1.1711,-88.6358
17:25:48:118,-0.0461,2.4761,9.006,31.3555,-0.3537,0.0682,-1.0806,-88.002
17:25:48:138,-0.287,2.478,9.531,31.4681,-0.293,0.015,-0.905,-87.3508
17:25:48:157,-0.477,2.636,10.089,31.596,-0.227,-0.036,-0.657,-86.6894
17:25:48:206,-0.275,2.8901,10.469,31.5917,-0.0781,0.0832,-0.3442,-86.0274
17:25:48:207,-0.11,3.153,10.5821,31.5834,0.1583,0.3088,-0.0738,-85.3752
17:25:48:218,-0.2111,3.704,10.4171,31.7278,0.3965,0.362,0.1518,-84.7414
17:25:48:238,0.183,3.953,10.112,31.7213,0.5488,0.197,0.2944,-84.1325
17:25:48:259,0.303,4.262,9.2981,31.5942,0.3359,-0.1276,0.0826,-82.994
17:25:48:278,0.243,3.905,9.1691,31.5128,-0.127,-0.3095,-0.0653,-82.455
17:25:48:298,1.091,2.447,10.5551,31.3442,-0.9497,-0.5852,-0.225,-81.9292
17:25:48:318,1.131,1.497,12.8801,31.5158,-1.6105,-0.632,-0.3857,-81.4109
17:25:48:338,0.897,0.479,14.367,32.0285,-1.4296,-0.0594,-0.2622,-80.8962
17:25:48:358,-0.189,0.2801,12.8801,32.5025,-0.4399,0.7759,-0.1228,-80.3895
17:25:48:378,-1.382,1.3961,10.112,32.9539,0.4477,1.0325,0.1485,-79.8955
17:25:48:398,-1.295,1.587,7.589,33.2959,0.6786,0.5918,0.3135,-79.4223
17:25:48:418,-1.341,2.162,6.2411,33.7639,0.5296,0.0906,0.2933,-78.9727
17:25:48:439,-0.893,2.066,6.071,34.1575,0.0912,-0.351,0.2625,-78.5456
17:25:48:457,-0.108,1.7651,7.287,34.5942,-0.4026,-0.5266,0.2284,-78.1402
17:25:48:478,0.6521,1.3721,8.891,35.0899,-0.6655,-0.5362,0.2241,-77.7556
17:25:48:498,0.887,1.034,10.089,35.5409,-0.6006,-0.4159,0.1539,-77.3905
17:25:48:521,0.356,0.998,10.122,35.9046,-0.2802,-0.1499,0.1081,-77.0417
17:25:48:537,-0.536,1.338,9.15,36.0343,0.0294,0.0778,0.2369,-76.7078
17:25:48:558,-0.7781,1.8131,8.2331,36.1093,0.1583,0.1225,0.4231,-76.3935
17:25:48:577,-0.711,2.1671,7.6871,36.2764,0.1794,0.0704,0.5221,-76.104
17:25:48:600,-0.7541,2.574,7.457,36.5964,0.1752,-0.0052,0.5562,-75.8413
17:25:48:620,-0.692,2.844,7.649,37.1523,0.122,-0.1191,0.5699,-75.6056
17:25:48:637,-0.278,2.943,8.0801,37.6278,0.0593,-0.2361,0.571,-75.3968
17:25:48:658,0.245,2.993,8.508,38.0311,-0.0056,-0.318,0.5104,-75.2136
17:25:48:678,0.636,2.8091,9.167,38.3442,-0.1004,-0.3351,0.3784,-75.0527
17:25:48:700,0.732,2.588,9.902,38.7196,-0.1313,-0.2478,0.2582,-74.9087
17:25:48:719,0.6191,2.481,10.6061,39.1123,-0.0419,-0.1041,0.2113,-74.7775
17:25:48:737,0.8111,2.258,10.929,39.4355,0.0815,-0.1009,0.173,-74.6573
17:25:48:757,1.167,2.217,11.132,39.8796,0.154,-0.1723,0.1475,-74.5465
17:25:48:777,1.9841,2.208,11.0411,40.0072,0.1082,-0.2116,0.1199,-74.4441
17:25:48:797,2.75,2.2031,11.0291,39.9715,-0.0674,-0.0924,-0.0047,-74.3483
17:25:48:817,2.7311,2.133,11.24,39.9561,-0.2887,0.0342,-0.2357,-74.2536
17:25:48:837,2.388,1.9421,11.688,39.9685,-0.5144,-0.0425,-0.4484,-74.1515
17:25:48:857,2.367,1.403,12.1121,40.2525,-0.6751,-0.1541,-0.5719,-74.0356
17:25:48:878,2.154,0.795,12.5,40.7979,-0.7623,-0.1297,-0.6783,-73.9019
17:25:48:898,1.416,0.23,12.444,41.4324,-0.6347,0.1779,-0.6826,-73.7479
17:25:48:918,0.66,-0.111,11.9201,42.0523,-0.3633,0.4173,-0.522,-73.5755
17:25:48:938,0.54,-0.123,11.1971,42.5844,-0.0557,0.3439,-0.2782,-73.3918
17:25:48:958,0.9401,0.153,9.923,42.8784,0.2465,0.1204,-0.06,-73.2057
17:25:48:979,1.833,0.627,8.654,42.899,0.3923,-0.0137,0.0219,-73.024
17:25:48:999,2.7311,0.9341,7.74,42.8277,0.3391,0.0417,-0.0738,-72.8482
17:25:49:018,3.267,1.0031,7.74,42.9213,0.1305,0.1214,-0.2995,-72.6738
17:25:49:039,3.09,0.9701,8.0291,43.0825,-0.0056,0.2119,-0.5963,-72.4923
17:25:49:058,2.348,0.996,8.154,43.2143,0.022,0.2864,-0.8507,-72.2939
17:25:49:079,1.3781,1.097,7.749,43.54,0.1518,0.3055,-0.9965,-72.071
17:25:49:098,0.581,1.2071,6.9881,43.7801,0.2349,0.314,-1.0508,-71.8201
17:25:49:117,-0.1151,1.3241,6.327,43.8845,0.1486,0.2853,-1.0593,-71.5403
17:25:49:138,-0.51,1.379,6.3461,44.1083,-0.1046,0.2193,-1.0285,-71.2326
17:25:49:158,-0.845,1.329,7.2131,44.3646,-0.3633,0.1821,-0.9838,-70.8992
17:25:49:179,-1.226,1.145,8.4701,44.6736,-0.4675,0.1002,-0.8752,-70.5434
17:25:49:198,-1.377,1.202,9.591,44.8992,-0.3761,-0.0318,-0.6751,-70.1703
17:25:49:218,-1.272,1.4651,10.0571,45.206,-0.1248,-0.1094,-0.3931,-69.7879
17:25:49:238,-1.082,1.8581,9.9881,45.2968,0.1253,-0.1254,-0.1345,-69.4054
17:25:49:258,-0.7931,2.445,9.7751,45.2542,0.3061,-0.0499,0.0836,-69.0312
17:25:49:279,-0.635,2.8901,9.614,45.4801,0.4264,0.1002,0.1922,-68.6712
17:25:49:298,-0.623,3.3641,9.6551,45.9619,0.4764,0.1779,0.2603,-68.3284
17:25:49:318,0.018,3.551,10.062,46.3143,0.5264,0.1683,0.2922,-68.0042
17:25:49:338,0.6521,3.5081,10.29,46.6489,0.5871,0.1629,0.1848,-67.6982
17:25:49:358,0.806,3.443,10.352,46.9114,0.4711,0.0597,-0.0323,-67.405
17:25:49:379,0.686,3.287,10.536,46.9546,0.1028,-0.0477,-0.1739,-67.1175
17:25:49:398,0.605,3.086,11.688,46.8163,-0.3835,0.0736,-0.2153,-66.8323
17:25:49:418,-0.05,3.335,12.861,46.856,-0.525,0.5312,-0.1484,-66.5494
17:25:49:439,-0.7181,3.12,13.022,46.9645,-0.2355,0.8249,-0.0302,-66.2721
17:25:49:458,-1.305,2.6981,12.614,47.1483,0.0241,0.5141,-0.0408,-66.0023
17:25:49:479,-1.554,2.124,11.5901,47.4383,0.304,0.1629,0.0261,-65.7395
17:25:49:498,-2.033,1.8941,10.3691,47.5226,0.5966,0.1513,0.1444,-65.4848
17:25:49:518,-2.418,1.607,9.152,47.6467,0.7446,0.0969,0.3252,-65.2416
17:25:49:538,-2.5001,1.547,8.654,47.7837,0.7073,-0.1649,0.4828,-65.0154
17:25:49:558,-2.078,1.446,8.482,47.9258,0.6009,-0.5001,0.6009,-64.8109
17:25:49:578,-1.197,1.2161,8.6951,47.8868,0.4284,-0.7565,0.6849,-64.6321
17:25:49:598,0.0851,0.984,9.1811,47.8837,0.2295,-0.9247,0.7019,-64.4816
17:25:49:619,1.1411,0.788,10.182,47.5549,-0.0377,-1.0374,0.604,-64.3592
17:25:49:638,1.9211,0.771,10.974,47.3433,-0.1078,-0.8225,0.4019,-64.2602
17:25:49:657,1.277,0.776,10.577,47.3676,0.1422,-0.1446,0.2529,-64.2602
17:25:49:678,0.011,1.1471,9.4301,47.5554,0.3657,0.3343,0.2773,-64.2602
17:25:49:698,-0.156,1.5401,8.688,47.7906,0.4477,0.3832,0.4103,-64.2602
17:25:49:718,0.107,1.925,8.183,47.8623,0.569,0.3567,0.4689,-64.2602
17:25:49:738,0.1661,2.342,7.517,47.9256,0.7297,0.4025,0.4646,-64.2602
17:25:49:758,-0.182,2.871,6.947,47.898,0.8117,0.4577,0.4518,-64.2602
17:25:49:778,-0.369,3.359,6.689,47.939,0.7818,0.329,0.4753,-64.2602
17:25:49:798,-0.084,3.635,6.674,47.9814,0.6552,0.1555,0.4837,-64.2602
17:25:49:819,0.363,3.8261,7.1051,47.9858,0.487,0.065,0.4338,-64.2602
17:25:49:839,0.471,3.819,7.9121,48.1153,0.4455,0.114,0.322,-64.2602
17:25:49:858,0.269,3.716,8.295,48.3038,0.5966,0.1757,0.2529,-64.2602
17:25:49:878,0.296,3.8,7.9481,48.5291,0.7169,0.1086,0.2529,-64.2602
17:25:49:898,0.53,3.9821,7.9121,48.5833,0.5957,-0.052,0.2221,-64.2602
17:25:49:918,0.8801,4.154,8.3,48.4757,0.3752,-0.1478,0.1603,-64.2602
17:25:49:939,0.933,4.509,8.709,48.4319,0.1379,-0.0286,0.0793,-64.2602
17:25:49:958,0.794,4.712,9.059,48.3144,-0.2335,0.1651,-0.044,-64.2602
17:25:49:978,0.818,4.398,10.349,48.389,-0.8251,0.098,-0.2005,-64.2602
17:25:49:998,1.083,3.644,12.236,48.5516,-1.271,-0.0659,-0.3336,-64.2602
17:25:50:018,1.1621,2.957,13.673,48.4609,-1.2742,-0.0733,-0.3431,-64.2602
17:25:50:038,1.514,2.069,13.6661,48.34,-0.9816,-0.019,-0.2878,-64.2602
17:25:50:058,1.526,1.6571,12.4091,48.0753,-0.6102,0.1928,-0.159,-64.2602
17:25:50:078,1.421,1.5491,10.4981,47.7731,-0.4282,0.2471,-0.0302,-64.2602
17:25:50:098,1.103,1.808,9.1571,47.5554,-0.4836,0.0917,0.0804,-64.2602
17:25:50:120,1.038,2.244,9.071,47.3259,-0.5442,-0.2064,0.1624,-64.2602
17:25:50:137,2.099,2.2151,9.521,47.0536,-0.3696,-0.4404,-0.0069,-64.2602
17:25:50:160,1.926,2.3081,8.966,46.6757,-0.0622,-0.2872,-0.2761,-64.2602
17:25:50:178,1.196,2.6,8.429,46.3889,-0.0355,-0.1777,-0.4676,-64.2602
17:25:50:203,0.533,2.8781,8.0771,46.2239,-0.0952,-0.0957,-0.6134,-64.2602
17:25:50:219,-0.204,3.0341,7.8191,46.1663,-0.1206,0.0406,-0.7092,-64.2602
17:25:50:238,-0.5771,3.029,7.895,46.1136,-0.1323,0.0969,-0.7497,-64.2602
17:25:50:259,-0.69,2.907,8.24,45.7954,-0.0494,0.1449,-0.7571,-64.2602
17:25:50:278,-0.8021,2.88,8.159,45.496,0.0901,0.1364,-0.6857,-64.2602
17:25:50:298,-0.4241,2.895,8.214,45.3002,0.1635,0.0246,-0.5655,-64.0428
17:25:50:318,-0.5681,2.835,8.12,44.996,0.2476,0.1874,-0.5186,-63.9088
17:25:50:339,-0.831,2.8211,7.9031,44.8285,0.3422,0.2747,-0.3985,-63.7608
17:25:50:359,-0.771,2.993,7.632,44.7232,0.3817,0.18,-0.2665,-63.6035
17:25:50:378,-0.711,3.3401,7.3781,44.7645,0.3561,0.1225,-0.158,-63.4412
17:25:50:399,-0.639,3.587,7.584,44.961,0.2625,0.197,-0.0718,-63.2779
17:25:50:418,-0.563,3.63,7.8311,45.0543,0.2018,0.2842,-0.0078,-63.1167
17:25:50:439,-0.7061,3.687,8.195,44.7838,0.1231,0.2683,0.0102,-62.9596
17:25:50:458,-1.118,3.74,8.6231,44.3303,-0.0579,0.1077,0.0144,-62.8073
17:25:50:479,-0.7061,3.5081,9.969,43.9498,-0.375,-0.1467,0.0389,-62.6607
17:25:50:498,-0.06,3.51,11.336,44.0255,-0.7421,-0.3915,0.0092,-62.5213
17:25:50:521,0.0521,3.441,12.6431,44.1698,-1.0284,-0.2722,-0.0494,-62.3885
17:25:50:537,0.1571,2.7731,14.1881,44.2574,-1.1593,-0.1116,-0.1259,-62.2608
17:25:50:560,0.1781,1.781,15.339,44.2034,-1.056,-0.2287,-0.2164,-62.1352
17:25:50:578,-0.4931,1.3151,14.906,43.954,-0.5644,-0.2138,-0.2324,-62.0082
17:25:50:600,-1.413,1.238,12.641,43.7322,0.073,0.047,-0.0696,-61.8791
17:25:50:622,-1.7381,1.494,10.421,43.5482,0.4073,0.1523,0.1603,-61.7527
17:25:50:638,-1.5401,1.571,8.705,43.3659,0.5009,0.1151,0.3189,-61.6356
17:25:50:658,-1.073,1.587,7.704,43.1491,0.4062,-0.0616,0.388,-61.5324
17:25:50:678,-0.608,1.695,7.3331,43.1465,0.2072,-0.2713,0.3816,-61.5324
17:25:50:697,-0.153,1.566,7.263,43.2141,-0.0132,-0.3319,0.3146,-61.5324
17:25:50:720,0.032,1.394,7.515,42.9957,-0.2218,-0.1893,0.2625,-61.5324
17:25:50:740,-0.182,1.2521,7.7681,42.7041,-0.3186,0.015,0.2284,-61.5324
17:25:50:758,-0.759,1.2191,7.814,42.268,-0.2622,0.0917,0.2284,-61.5324
17:25:50:778,-1.307,1.269,7.5101,41.9199,-0.1323,0.0076,0.3252,-61.5324
17:25:50:797,-1.4681,1.4531,6.995,41.8164,-0.0451,-0.1435,0.47,-61.5324
17:25:50:818,-1.439,1.647,6.593,41.8937,-0.0366,-0.2105,0.5785,-61.5324
17:25:50:839,-1.59,1.803,6.413,41.9931,-0.0972,-0.1723,0.6604,-61.5324
17:25:50:858,-1.568,1.8941,6.9281,41.9409,-0.2227,-0.1521,0.7583,-61.5324
17:25:50:878,-1.2641,1.913,7.677,41.9202,-0.3015,-0.1893,0.853,-61.5324
17:25:50:898,-0.738,1.944,8.664,41.89,-0.3154,-0.2542,0.8957,-61.6257
17:25:50:918,-0.252,2.018,9.224,41.8676,-0.2643,-0.2574,0.8541,-61.7472
17:25:50:938,-0.1271,2.1071,9.5021,41.7474,-0.2398,-0.1404,0.7733,-61.8941
17:25:50:958,-0.05,2.186,10.0121,41.6683,-0.3164,-0.0265,0.7243,-62.063
17:25:50:978,0.566,2.22,11.0321,41.4872,-0.4771,-0.0679,0.6849,-62.2515
17:25:50:997,1.646,2.1,12.0371,41.1231,-0.6186,-0.1446,0.5881,-62.4575
17:25:51:018,2.7761,2.052,12.9071,48.6062,-0.7241,-0.1276,0.4157,-62.6763
17:25:51:038,3.3251,2.0951,13.4051,48.3244,-0.7591,-0.0201,0.1561,-62.9009
17:25:51:058,3.641,2.112,13.649,48.0934,-0.8613,0.0278,-0.0846,-63.1221
17:25:51:078,4.163,2.121,14.432,47.877,-1.1135,0.0565,-0.2644,-63.3323
17:25:51:098,4.5,1.911,15.873,47.5562,-1.2199,0.2545,-0.4198,-63.5257
17:25:51:121,4.517,1.001,16.316,47.2584,-0.8965,0.6313,-0.4879,-63.6984
17:25:51:139,3.662,-0.621,15.854,46.967,-0.2218,0.8143,-0.5932,-63.849
17:25:51:158,1.902,-0.602,14.1011,46.5761,0.6967,0.6014,-0.7389,-63.9735
17:25:51:178,1.263,-0.4391,11.8361,46.1822,1.3522,0.1066,-0.5314,-64.0691
17:25:51:198,1.716,-0.2741,9.6701,45.6722,1.6874,-0.1851,-0.3123,-64.0691
17:25:51:218,1.799,0.204,7.974,45.3377,1.7619,-0.2553,-0.2526,-64.0691
17:25:51:238,1.778,0.551,6.626,45.1853,1.6045,-0.2787,-0.2878,-64.0691
17:25:51:258,1.634,0.809,5.7761,45.0382,1.3139,-0.2734,-0.4027,-64.0691
17:25:51:277,1.3901,0.884,5.2781,45.0825,0.9574,-0.2659,-0.6198,-64.0691
17:25:51:298,0.9041,0.843,4.979,45.0923,0.6222,-0.1734,-0.8826,-64.0691
17:25:51:318,0.056,0.879,5.1131,45.0319,0.3593,-0.0254,-1.1062,-64.0691
17:25:51:338,-0.9101,1.034,5.412,44.8127,0.2124,0.048,-1.1965,-64.0691
17:25:51:358,-1.5611,1.233,5.805,43.9778,0.1358,-0.0531,-1.1157,-63.9531
17:25:51:379,-1.5761,1.353,6.0131,43.5219,0.0465,-0.2585,-0.9785,-63.8024
17:25:51:398,-1.4321,1.523,6.198,43.21,-0.1089,-0.3872,-0.8709,-63.6229
17:25:51:418,-1.305,1.652,6.851,42.9705,-0.309,-0.4128,-0.7836,-63.4193
17:25:51:438,-0.9221,1.698,7.67,42.6294,-0.4537,-0.4224,-0.7135,-63.1953
17:25:51:458,-1.025,1.7621,8.18,42.1436,-0.5676,-0.3043,-0.6453,-62.954
17:25:51:479,-1.1569,1.853,9.0761,41.7422,-0.7208,-0.1936,-0.4814,-62.699
17:25:51:498,-1.013,2.15,10.2491,41.2411,-0.6772,-0.0084,-0.225,-62.4372
17:25:51:518,-0.8171,2.55,10.742,40.9299,-0.3377,0.2725,0.0815,-62.1779
17:25:51:539,-0.24,2.868,10.266,40.6885,0.0018,0.33,0.32,-61.9313
17:25:51:558,0.482,3.438,10.0001,40.4755,0.0602,0.081,0.3689,-61.7037
17:25:51:577,1.11,3.747,10.349,40.3571,-0.1356,-0.2085,0.2475,-61.495
17:25:51:598,1.6721,3.1511,11.142,40.1662,-0.4771,-0.4799,0.0272,-61.2997
17:25:51:619,1.5551,2.852,12.33,39.9867,-0.8709,-0.4267,-0.1048,-61.1103
17:25:51:638,1.194,2.694,14.12,39.6919,-1.056,-0.1202,-0.0675,-60.9235
17:25:51:658,1.184,2.1,15.519,39.4517,-0.8687,-0.0616,0.0007,-60.7407
17:25:51:678,1.1741,1.406,15.3461,39.2954,-0.3846,-0.2489,0.0016,-60.5637
17:25:51:698,0.2261,1.3841,13.4021,39.0576,0.2274,-0.1446,0.0113,-60.3918
17:25:51:718,-0.4931,1.353,11.286,39.1109,0.653,0.0363,0.1475,-60.2265
17:25:51:739,-0.807,1.298,9.672,39.0372,0.8212,0.0342,0.2475,-60.0719
17:25:51:757,-0.783,1.164,8.7641,39.0512,0.7584,-0.1851,0.3072,-59.9311
17:25:51:778,-0.2321,0.998,8.424,39.229,0.5753,-0.415,0.3433,-59.8054
17:25:51:798,0.741,0.8741,8.2931,39.2234,0.3752,-0.4361,0.3369,-59.6957
17:25:51:818,1.469,0.7451,8.427,39.5469,0.1997,-0.1903,0.2135,-59.6004
17:25:51:838,1.514,0.465,8.35,39.6263,0.055,0.1629,0.0155,-59.6004
17:25:51:858,0.849,0.302,8.01,39.6291,-0.0961,0.4928,-0.1154,-59.6004
17:25:51:877,-0.0311,0.2801,8.013,39.538,-0.2377,0.6557,-0.1622,-59.5092
17:25:51:898,-0.7811,0.2711,8.252,39.2555,-0.2207,0.6461,-0.0846,-59.4154
17:25:51:918,-1.197,0.3161,7.982,38.9962,-0.0195,0.5354,0.1103,-59.3228
17:25:51:938,-1.374,0.656,7.4021,39.0739,0.1997,0.346,0.3528,-59.3228
17:25:51:958,-1.3961,1.188,6.873,39.2273,0.3125,0.1279,0.6126,-59.3228
17:25:51:978,-1.0631,1.7141,7.452,39.3117,0.3422,-0.1361,0.8616,-59.3228
17:25:51:998,-0.455,2.011,8.415,39.412,0.5126,-0.4128,1.0414,-59.3228
17:25:52:019,0.5831,2.342,8.456,39.532,0.7893,-0.6022,1.1777,-59.3228
17:25:52:038,1.3301,2.931,8.1611,39.7137,0.9181,-0.6438,1.1703,-59.3228
17:25:52:057,1.9571,3.2081,8.166,40.0266,0.7212,-0.6777,0.9851,-59.4234
17:25:52:079,2.513,3.2831,8.81,40.3923,0.3338,-0.7096,0.7338,-59.5544
17:25:52:099,2.934,2.9021,9.93,40.4534,-0.0588,-0.6171,0.4689,-59.7057
17:25:52:119,2.949,2.54,10.9001,40.3951,-0.2546,-0.3362,0.2859,-59.8671
17:25:52:138,2.113,2.567,11.003,40.3499,-0.2355,0.0022,0.2529,-60.0324
17:25:52:157,1.917,2.7491,11.0201,40.3949,-0.3047,0.0554,0.3539,-60.2015
17:25:52:178,2.666,2.811,11.36,40.4676,-0.4793,-0.2116,0.3816,-60.3773
17:25:52:208,3.7151,2.8661,12.119,40.6148,-0.6293,-0.4905,0.2465,-60.5586
17:25:52:218,4.2221,2.588,11.985,40.7348,-0.5485,-0.4469,0.0496,-60.7396
17:25:52:237,4.6841,2.088,10.955,40.6937,-0.441,-0.1308,-0.143,-60.9136
17:25:52:259,4.3781,1.5851,10.019,40.7031,-0.492,0.2162,-0.4037,-61.0742
17:25:52:279,3.0731,1.1681,9.933,40.7407,-0.7156,0.3587,-0.6922,-61.212
17:25:52:298,1.7801,0.692,10.3901,40.579,-0.8134,0.4514,-0.8114,-61.3183
17:25:52:318,0.614,0.429,9.825,40.5653,-0.4612,0.4939,-0.4272,-61.3183
17:25:52:338,0.815,0.5051,8.97,40.555,-0.3761,0.3248,-0.2761,-61.3183
17:25:52:358,0.8921,0.587,8.616,40.4692,-0.4228,0.2173,-0.2984,-61.3183
17:25:52:378,0.6671,0.596,8.324,40.6228,-0.4367,0.1959,-0.3718,-61.3183
17:25:52:399,0.413,0.675,8.2811,40.7937,-0.4218,0.1523,-0.4037,-61.3183
17:25:52:418,-0.1151,0.771,8.36,40.8324,-0.3792,0.0917,-0.4389,-61.3183
17:25:52:439,-0.6731,0.867,8.334,40.7809,-0.2142,0.1587,-0.3686,-61.3183
17:25:52:458,-0.9911,0.867,8.247,40.5908,0.007,0.1396,-0.2335,-61.3183
17:25:52:479,-1.08,1.034,8.3809,40.5483,0.1699,-0.1467,-0.0994,-61.3183
17:25:52:499,-0.6611,1.463,8.5129,40.6072,0.271,-0.501,0.0389,-61.3183
17:25:52:522,0.59,1.64,8.628,40.9427,0.2721,-0.6629,0.1081,-61.3183
17:25:52:538,1.526,1.722,8.877,41.3066,0.1859,-0.4841,-0.0228,-61.3183
17:25:52:557,1.701,1.8251,9.4301,41.4135,0.055,-0.0201,-0.242,-61.3183
17:25:52:578,1.239,1.839,10.0841,41.3265,0.0454,0.4258,-0.3623,-61.3183
17:25:52:599,0.585,2.15,10.3661,41.2244,0.1742,0.5918,-0.2963,-61.3183
17:25:52:620,0.315,2.478,10.299,41.3559,0.3954,0.4822,-0.1441,-61.3183
17:25:52:638,0.564,2.5691,10.251,41.6403,0.6242,0.2523,-0.0271,-61.3183
17:25:52:657,0.65,2.787,10.2251,42.1186,0.7594,-0.0095,-0.0408,-61.3183
17:25:52:679,0.71,2.844,10.089,42.519,0.703,-0.1563,-0.1057,-61.3183
17:25:52:698,0.942,2.892,10.563,42.5783,0.4498,-0.0659,-0.1409,-61.3183
17:25:52:719,1.4711,2.909,11.628,42.6423,0.122,0.048,-0.176,-61.3183
17:25:52:738,1.7201,2.703,12.794,42.7699,-0.0983,0.1789,-0.2622,-61.2236
17:25:52:758,1.5,2.4731,13.194,43.0476,0.0337,0.3726,-0.2995,-61.1223
17:25:52:777,1.158,2.289,12.0371,43.3162,0.2646,0.33,-0.3325,-61.0136
17:25:52:798,0.72,2.133,10.536,43.4357,0.1848,0.2822,-0.4005,-60.8963
17:25:52:819,0.183,1.664,9.705,43.5845,-0.0408,0.5237,-0.3814,-60.7688
17:25:52:838,-0.642,1.4801,9.5501,43.6816,-0.1462,0.777,-0.308,-60.6325
17:25:52:863,-1.0661,1.1591,9.6551,43.8916,-0.0344,0.7195,-0.1495,-60.4906
17:25:52:878,-1.075,0.975,9.401,44.0665,0.2529,0.3417,0.0144,-60.3491
17:25:52:898,-0.893,0.857,8.58,44.1948,0.4657,-0.1851,0.0953,-60.2126
17:25:52:919,-0.4481,0.812,7.826,44.4325,0.3912,-0.567,0.1198,-60.083
17:25:52:938,0.1541,0.785,7.8641,44.4578,0.1092,-0.583,0.1188,-59.9612
17:25:52:959,0.621,0.7901,8.195,44.486,-0.1749,-0.3213,0.0996,-59.8469
17:25:52:978,0.4871,0.785,8.453,44.7676,-0.3505,0.0821,0.073,-59.7394
17:25:52:998,0.0851,0.812,8.36,45.0042,-0.3792,0.4194,0.1006,-59.6378
17:25:53:018,-0.2351,0.8981,8.085,45.3199,-0.3548,0.5354,0.1763,-59.5435
17:25:53:038,-0.407,1.082,7.871,45.5966,-0.2845,0.4716,0.2762,-59.5435
17:25:53:058,-0.357,1.367,7.881,45.6831,-0.1962,0.3162,0.3656,-59.5435
17:25:53:078,-0.347,1.628,8.0531,45.712,-0.077,0.1715,0.439,-59.5435
17:25:53:101,-0.237,1.9661,7.9841,45.9884,0.0752,0.0608,0.5466,-59.5435
17:25:53:119,0.164,2.442,7.8881,46.4717,0.1646,-0.0393,0.6253,-59.5435
17:25:53:138,0.633,2.7731,8.046,46.8062,0.1455,-0.1797,0.5944,-59.5435
17:25:53:158,1.038,2.931,8.537,47.0302,0.039,-0.2925,0.4615,-59.5435
17:25:53:178,1.2131,2.9711,9.6191,46.9906,-0.0727,-0.3202,0.2529,-59.5435
17:25:53:198,1.122,2.658,10.7471,46.9444,-0.0855,-0.3095,0.0272,-59.5435
17:25:53:218,0.978,2.346,11.475,46.9865,-0.0195,-0.217,-0.1048,-59.5435
17:25:53:238,0.851,2.33,11.724,47.2144,0.0763,-0.0914,-0.125,-59.5435
17:25:53:257,0.93,2.4761,11.264,47.2916,0.1145,-0.051,-0.1632,-59.5435
17:25:53:279,0.875,2.5721,11.027,47.3307,-0.0568,-0.0967,-0.3015,-59.5435
17:25:53:298,0.803,2.406,11.585,47.3693,-0.3323,-0.1638,-0.4346,-59.5435
17:25:53:318,0.7721,2.2121,12.488,47.3394,-0.5038,-0.2085,-0.4879,-59.5435
17:25:53:338,1.031,1.7501,13.146,47.5421,-0.5368,-0.2361,-0.4975,-59.5435
17:25:53:358,1.095,1.19,13.52,47.8423,-0.4665,-0.1649,-0.4975,-59.5435
17:25:53:378,0.705,0.659,13.4291,48.145,-0.2207,-0.0265,-0.4729,-59.5435
17:25:53:398,0.272,0.323,12.377,48.244,0.121,0.1533,-0.308,-59.5435
17:25:53:418,0.14,0.29,11.13,48.3283,0.3945,0.2534,-0.0601,-59.5435
17:25:53:438,0.329,0.5081,9.959,48.2287,0.6126,0.1438,0.1603,-59.5435
17:25:53:458,0.767,0.917,8.714,48.1757,0.7243,-0.1233,0.2625,-59.5435
17:25:53:479,1.292,1.305,7.7351,48.3274,0.653,-0.334,0.2326,-59.5435
17:25:53:498,1.4861,1.382,7.2011,48.4658,0.4327,-0.3713,0.0836,-59.5435
17:25:53:518,1.1621,1.4291,7.017,48.578,0.2284,-0.3063,-0.0536,-59.5435
17:25:53:538,0.6521,1.4561,6.866,48.7568,0.1199,-0.2691,-0.1207,-59.5435
17:25:53:558,0.2261,1.604,6.7721,48.8243,0.1305,-0.2457,-0.1387,-59.5435
17:25:53:578,0.152,1.899,6.756,48.8869,0.2454,-0.2276,-0.158,-59.5435
17:25:53:598,-0.096,2.2631,6.3701,49.0999,0.3678,-0.1946,-0.2238,-59.5435
17:25:53:618,-0.309,2.627,5.946,49.2974,0.3465,-0.1743,-0.2281,-59.5435
17:25:53:638,-0.264,2.9021,6.104,49.594,0.1486,-0.2095,-0.2303,-59.5435
17:25:53:658,0.075,3.041,6.8831,49.9647,-0.0472,-0.2223,-0.2474,-59.447
17:25:53:678,0.336,3.168,7.749,50.0806,-0.1706,-0.1766,-0.2878,-59.3445
17:25:53:700,0.4301,3.173,8.832,50.093,-0.2685,-0.1425,-0.3367,-59.2343
17:25:53:719,0.612,3.0341,9.8831,49.9848,-0.2589,-0.0903,-0.2889,-59.1157
17:25:53:737,0.741,3.141,10.3091,49.6737,-0.1621,0.1182,-0.193,-58.9908
17:25:53:758,0.387,3.35,10.697,49.7186,-0.0344,0.4503,-0.0983,-58.8635
17:25:53:778,-0.026,3.374,10.742,49.6795,0.1486,0.6174,0.0283,-58.7373
17:25:53:798,0.047,3.4331,10.8791,49.6034,0.3061,0.4769,0.1891,-58.6173
17:25:53:819,0.3131,3.548,10.941,49.8165,0.371,0.0342,0.256,-58.5081
17:25:53:839,1.079,3.5561,11.1371,49.8222,0.2966,-0.3553,0.272,-58.4115
17:25:53:857,1.617,3.6251,11.264,50.0195,0.1614,-0.3457,0.2262,-58.4115
17:25:53:879,1.4711,3.477,11.264,50.1851,-0.0972,-0.069,0.1507,-58.4115
17:25:53:898,0.497,3.357,12.0281,50.3006,-0.4165,0.3172,0.0996,-58.4115
17:25:53:917,-0.405,2.804,12.801,50.4458,-0.3431,0.628,0.1943,-58.4115
17:25:53:938,-1.02,2.4881,12.128,50.5173,0.0869,0.6929,0.3795,-58.4115
17:25:53:959,-1.398,2.198,10.541,50.5676,0.503,0.5599,0.5082,-58.4115
17:25:53:978,-1.5281,2.136,9.2531,50.5309,0.6435,0.2417,0.6094,-58.4115
17:25:53:998,-1.193,1.9871,8.5181,50.5066,0.5914,-0.1063,0.6764,-58.4115
17:25:54:019,-0.7571,1.872,8.063,50.4931,0.4615,-0.318,0.7201,-58.4115
17:25:54:038,-0.137,1.65,7.9151,50.7066,0.254,-0.4085,0.6945,-58.4115
17:25:54:060,0.7481,1.568,8.429,50.8949,-0.0494,-0.4724,0.6126,-58.4115
17:25:54:079,1.526,1.391,9.0881,50.9313,-0.3228,-0.3937,0.406,-58.4115
17:25:54:097,1.493,1.262,9.533,50.9015,-0.4399,-0.069,0.1794,-58.5095
17:25:54:118,0.921,1.116,9.267,50.6975,-0.3772,0.4184,0.0784,-58.6093
17:25:54:138,0.195,1.322,8.5781,50.621,-0.2537,0.8078,0.1485,-58.7088
17:25:54:158,-0.0671,1.626,7.9961,50.5194,-0.1376,0.8812,0.2837,-58.8112
17:25:54:178,-0.029,1.86,7.6751,50.2954,-0.0238,0.6834,0.3816,-58.9213
17:25:54:198,0.14,2.1431,7.524,50.2664,0.1273,0.4108,0.4157,-59.0416
17:25:54:221,0.0251,2.4041,7.1201,50.3145,0.3061,0.2875,0.4316,-59.1727
17:25:54:238,-0.053,2.7731,6.758,50.36,0.403,0.2577,0.5317,-59.3153
17:25:54:258,0.042,3.2561,6.78,50.6644,0.4093,0.1629,0.6072,-59.4726
17:25:54:278,0.3461,3.4931,7.6181,50.7186,0.3296,-0.166,0.5488,-59.6457
17:25:54:299,0.918,3.56,8.6951,50.4951,0.2284,-0.5991,0.4125,-59.8318
17:25:54:319,1.649,3.4571,9.9641,50.4966,0.0485,-0.9555,0.2262,-60.0254
17:25:54:338,2.247,3.29,10.9031,50.4023,-0.1334,-0.8757,0.007,-60.2195
17:25:54:359,1.778,2.7731,12.816,50.1935,-0.4665,0.0267,-0.2952,-60.5804
17:25:54:379,1.388,2.732,13.242,50.0488,-0.4953,0.1513,-0.325,-60.7377
17:25:54:397,2.3621,2.15,13.3691,49.9568,-0.5941,-0.1808,-0.3367,-60.8785
17:25:54:419,3.0731,1.734,13.29,49.7588,-0.7688,-0.3638,-0.5389,-61.0014
17:25:54:438,2.0081,1.092,12.8231,49.6648,-0.7167,0.3268,-0.7209,-61.0994
17:25:54:458,-0.0191,0.611,12.938,49.3978,-0.6017,0.9207,-0.5963,-61.0994
17:25:54:478,-0.441,0.369,14.355,48.9139,-0.3686,0.5886,-0.2112,-61.0994
17:25:54:498,0.899,0.2231,14.535,48.4612,0.2636,-0.3404,0.1922,-61.0994
17:25:54:521,2.853,0.1841,12.167,48.0912,0.8584,-0.9918,0.3816,-61.0994
17:25:54:538,4.079,0.8381,9.3701,48.0048,0.9287,-0.8726,0.271,-61.0994
17:25:54:559,3.8231,1.283,7.677,48.1218,0.5712,-0.2457,-0.093,-61.0994
17:25:54:578,2.657,1.578,6.725,48.2658,0.1689,0.3939,-0.3846,-61.0994
17:25:54:599,1.5461,1.6571,6.164,48.4576,-0.11,0.7301,-0.5581,-61.0994
17:25:54:621,0.53,1.554,5.688,48.3987,-0.2292,0.744,-0.7272,-61.0994
17:25:54:638,-0.587,1.523,5.444,48.101,-0.2366,0.5323,-0.8029,-61.0994
17:25:54:658,-1.1591,1.664,5.3051,47.7815,-0.1983,0.1831,-0.7135,-61.0994
17:25:54:678,-1.133,1.875,5.063,47.5889,-0.1323,-0.0924,-0.5613,-61.0994
17:25:54:697,-0.714,1.904,5.1491,47.5572,-0.1462,-0.2574,-0.4868,-61.0994
17:25:54:720,-0.3401,2.0741,5.724,47.2553,-0.2207,-0.3458,-0.5092,-61.0994
17:25:54:738,0.1331,2.162,6.107,46.8085,-0.2537,-0.3245,-0.5431,-61.0056
17:25:54:758,0.3011,2.3681,6.399,46.3847,-0.3473,-0.1754,-0.5815,-60.8956
17:25:54:778,0.303,2.514,7.1891,45.9289,-0.5005,-0.0531,-0.6156,-60.7685
17:25:54:797,0.2771,2.651,8.183,45.7134,-0.5708,0.0224,-0.6123,-60.624
17:25:54:818,0.0491,2.679,9.0851,45.4633,-0.5644,0.0491,-0.5559,-60.4631
17:25:54:839,-0.422,2.8661,10.014,45.2761,-0.4643,0.0384,-0.4293,-60.2888
17:25:54:858,-0.8,3.273,10.4021,45.0134,-0.2483,0.0522,-0.1526,-60.1069
17:25:54:877,-0.6041,3.611,10.7951,44.7265,-0.0813,-0.0021,0.1805,-59.9278
17:25:54:898,0.186,3.833,11.597,44.4478,0.0103,-0.2095,0.3997,-59.7619
17:25:54:919,1.007,3.747,12.722,44.3926,0.1008,-0.5129,0.4668,-59.6153
17:25:54:937,1.6751,3.5291,13.3211,44.4105,0.2093,-0.6683,0.3923,-59.4888
17:25:54:963,1.613,3.68,13.541,44.5569,0.3009,-0.3979,0.3348,-59.3792
17:25:54:985,1.218,3.7571,13.445,44.7223,0.3988,0.1023,0.3784,-59.2848
17:25:54:998,0.827,3.941,13.158,44.6365,0.5743,0.4236,0.5189,-59.2848
17:25:55:018,0.794,3.6131,12.401,44.5379,0.7403,0.2108,0.5115,-59.2848
17:25:55:038,0.6641,3.0431,11.3381,44.4498,0.7286,-0.2478,0.3402,-59.2848
17:25:55:058,0.435,2.466,10.6181,44.4148,0.5721,-0.4256,0.19,-59.2848
17:25:55:078,0.164,1.808,10.2851,44.4456,0.4509,-0.2585,0.1475,-59.2848
17:25:55:098,-0.441,1.616,9.751,44.4963,0.5243,0.0224,0.2124,-59.2848
17:25:55:118,-0.8981,1.556,8.628,44.694,0.5957,0.015,0.2955,-59.2848
17:25:55:138,-0.6851,1.4891,7.742,45.0526,0.4562,-0.2798,0.3359,-59.2848
17:25:55:164,-0.149,1.4291,7.292,45.4919,0.1583,-0.448,0.3072,-59.2848
17:25:55:178,0.365,1.214,7.464,45.7427,-0.1334,-0.2201,0.2507,-59.2848
17:25:55:198,0.375,1.075,7.637,45.6962,-0.2834,0.2087,0.221,-59.2848
17:25:55:218,0.207,1.0301,7.6301,45.5797,-0.3186,0.4982,0.2432,-59.2848
17:25:55:239,0.243,1.104,7.551,45.4613,-0.26,0.4939,0.289,-59.2848
17:25:55:258,0.36,1.293,7.323,45.5694,-0.159,0.3129,0.3209,-59.2848
17:25:55:278,0.5831,1.5011,7.2701,45.7921,-0.0824,0.1385,0.3146,-59.2848
17:25:55:298,0.638,1.65,7.373,45.8753,-0.0833,0.0246,0.3081,-59.2848
17:25:55:319,0.7391,1.872,7.694,45.8824,-0.1387,-0.0308,0.3647,-59.3764
17:25:55:338,1.086,2.148,8.568,46.0249,-0.1493,-0.0095,0.4487,-59.4784
17:25:55:357,1.701,2.351,9.1481,46.2859,-0.0056,0.0118,0.5115,-59.5932
17:25:55:378,2.036,2.703,9.2651,46.7278,0.1911,-0.0232,0.4646,-59.7224
17:25:55:398,1.857,3.003,9.428,47.1065,0.2476,-0.1265,0.3039,-59.8631
17:25:55:418,1.9001,3.053,10.091,47.1844,0.1689,-0.2681,0.1826,-60.0095
17:25:55:438,2.079,2.9981,10.761,47.1985,0.1529,-0.2936,0.1358,-60.1578
17:25:55:458,2.477,2.813,10.8551,47.2587,0.1646,-0.2212,0.124,-60.3067
17:25:55:478,2.9171,2.6411,10.788,47.5074,0.0443,-0.1606,0.0463,-60.4554
17:25:55:498,2.726,2.4641,10.838,47.727,-0.1909,-0.1393,-0.1441,-60.6001
17:25:55:518,2.216,2.421,11.1281,47.8105,-0.5081,-0.0744,-0.3015,-60.7335
17:25:55:539,1.605,1.9421,11.4701,47.8695,-0.8229,0.1533,-0.3484,-60.8505
17:25:55:558,1.0601,1.2281,12.4901,47.7141,-1.1018,0.3205,-0.341,-60.9498
17:25:55:578,0.621,0.4601,14.01,47.4808,-1.1199,0.2545,-0.2921,-60.9498
17:25:55:598,0.32,0.225,14.741,47.3373,-0.7358,0.0906,-0.0419,-60.9498
17:25:55:619,0.746,0.539,13.584,47.1754,-0.0716,0.0214,0.2912,-60.9498
17:25:55:639,1.739,1.061,10.955,47.0548,0.4657,0.0055,0.4646,-60.9498
17:25:55:658,2.336,1.58,8.673,46.8997,0.5009,-0.0744,0.2944,-61.0491
17:25:55:678,2.333,1.599,7.752,46.9717,0.2358,-0.0488,-0.0536,-61.154
17:25:55:698,1.7441,1.31,7.752,47.0694,0.0198,0.1863,-0.341,-61.2521
17:25:55:718,0.861,1.1569,7.716,47.1897,0.0912,0.5195,-0.4484,-61.2521
17:25:55:740,0.308,1.3241,7.005,47.2648,0.3519,0.6174,-0.3877,-61.2521
17:25:55:758,0.2261,1.638,6.033,47.11,0.5743,0.4674,-0.2835,-61.2521
17:25:55:778,0.482,2.1071,5.022,46.8761,0.619,0.1789,-0.2483,-61.2521
17:25:55:799,0.7751,2.586,4.625,46.7342,0.4232,-0.1009,-0.3037,-61.2521
17:25:55:818,1.1051,2.7821,5.295,46.7287,0.0954,-0.3171,-0.4527,-61.2521
17:25:55:839,1.148,2.9591,6.4901,46.8825,-0.1228,-0.4117,-0.6517,-61.2521
17:25:55:858,0.767,3.165,7.232,47.1074,-0.2302,-0.4916,-0.7688,-61.2521
17:25:55:879,0.36,3.4481,8.0441,47.351,-0.3579,-0.6245,-0.7795,-61.2521
17:25:55:897,-0.0071,3.441,9.761,47.4342,-0.4931,-0.8129,-0.7688,-61.2521
17:25:55:921,-0.2321,3.2681,11.8601,47.4249,-0.4484,-1.0417,-0.5846,-61.1563
17:25:55:938,-0.132,3.347,13.299,47.1565,-0.0696,-1.0374,-0.1632,-61.045
17:25:55:958,0.758,3.4241,13.5221,46.958,0.452,-0.8034,0.3571,-60.9353
17:25:55:978,1.778,3.407,12.782,47.0605,0.8829,-0.3692,0.7232,-60.9353
17:25:55:998,1.974,3.711,11.832,47.2903,0.9819,-0.0573,0.8297,-60.9353
17:25:56:018,2.226,3.824,11.6141,47.6861,0.7254,-0.1052,0.7776,-60.9353
17:25:56:038,2.798,3.7061,11.757,47.8105,0.3912,-0.0883,0.7349,-60.9353
17:25:56:058,2.724,3.7781,11.8121,47.8315,0.2007,0.314,0.7329,-60.9353
17:25:56:078,2.5301,3.419,11.7071,47.8886,-0.0004,0.5312,0.6189,-60.9353
17:25:56:098,1.5461,2.574,11.5511,48.1432,-0.0291,0.6482,0.3923,-60.9353
17:25:56:119,0.248,2.124,10.584,48.3867,0.1657,0.7557,0.3135,-60.9353
17:25:56:138,-0.8021,1.748,9.27,48.5038,0.3593,0.7472,0.3647,-61.0347
17:25:56:159,-1.197,1.683,8.159,48.5506,0.4199,0.594,0.536,-61.1461
17:25:56:178,-0.788,1.6451,7.6391,48.7431,0.3381,0.3035,0.6839,-61.2755
17:25:56:199,0.008,1.571,7.4501,48.989,0.1869,0.0139,0.6806,-61.4259
17:25:56:224,0.729,1.449,7.6421,49.1488,0.0231,-0.1191,0.5977,-61.5955
17:25:56:238,1.488,1.3151,7.907,49.2787,-0.1174,-0.1361,0.4956,-61.7803
17:25:56:258,1.9931,1.286,8.0171,49.2501,-0.225,0.032,0.371,-61.9757
17:25:56:278,1.826,1.295,7.845,49.1505,-0.2867,0.3237,0.2188,-62.1764
17:25:56:298,1.2581,1.2791,7.649,49.2145,-0.3154,0.5215,0.1347,-62.377
17:25:56:318,0.854,1.343,7.5101,48.9689,-0.2515,0.5099,0.1305,-62.5754
17:25:56:339,0.54,1.65,7.088,48.7807,-0.1239,0.3374,0.1869,-62.7722
17:25:56:359,0.6911,2.136,6.8471,53.6543,-0.0451,-0.084,0.2933,-63.1705
17:25:56:378,0.842,2.454,7.218,53.6236,-0.06,-0.1936,0.2944,-63.3754
17:25:56:398,1.134,2.643,7.814,53.8481,-0.1111,-0.2606,0.2964,-63.5842
17:25:56:418,1.601,2.739,8.439,54.1449,-0.1643,-0.3086,0.2423,-63.7966
17:25:56:438,1.524,2.7731,9.2171,54.2966,-0.193,-0.2893,0.1231,-64.0097
17:25:56:458,1.385,2.579,10.2491,54.5033,-0.1567,-0.2872,0.0358,-64.2194
17:25:56:478,1.352,2.579,11.108,54.5365,-0.0514,-0.3138,0.0049,-64.4234
17:25:56:498,1.751,2.5241,11.4131,54.5652,0.0337,-0.3021,-0.0069,-64.6212
17:25:56:519,2.3981,2.49,11.348,54.6566,0.0029,-0.1393,-0.043,-64.8129
17:25:56:539,2.664,2.442,11.384,54.7537,-0.1248,0.1225,-0.1856,-64.9963
17:25:56:558,2.273,2.433,11.6741,54.9952,-0.2441,0.2885,-0.3453,-65.1661
17:25:56:578,1.778,2.493,11.844,55.1701,-0.3271,0.2853,-0.4122,-65.3173
17:25:56:599,1.7711,2.4491,11.9441,55.0051,-0.4313,0.2002,-0.4261,-65.4486
17:25:56:620,2.0681,1.9661,11.939,54.6792,-0.575,0.2481,-0.4634,-65.5596
17:25:56:637,1.6631,1.1111,12.344,54.3188,-0.6282,0.5759,-0.5496,-65.5596
17:25:56:658,0.233,0.783,12.512,53.7968,-0.3974,0.8271,-0.5357,-65.5596
17:25:56:679,-0.3071,0.6251,11.8361,53.5486,-0.061,0.6652,-0.2483,-65.5596
17:25:56:697,0.2021,0.7571,10.862,53.5312,0.1379,0.215,0.0624,-65.5596
17:25:56:720,1.3661,0.9671,9.923,53.451,0.1561,-0.1478,0.1911,-65.5596
17:25:56:738,2.168,1.073,9.236,53.3425,0.072,-0.199,0.0708,-65.5596
17:25:56:758,1.929,1.104,8.685,53.1211,-0.0494,-0.0446,-0.1632,-65.5596
17:25:56:778,1.218,1.073,8.226,52.7927,-0.1484,0.1735,-0.308,-65.5596
17:25:56:798,0.449,0.977,7.5431,52.6222,-0.1046,0.4301,-0.3462,-65.5596
17:25:56:819,-0.486,1.2431,6.897,52.4713,0.0518,0.5642,-0.3006,-65.5596
17:25:56:839,-0.927,1.595,6.0161,52.505,0.2571,0.4598,-0.1473,-65.5596
17:25:56:858,-0.8381,2.054,5.3,52.6287,0.3402,0.1917,0.0241,-65.5596
17:25:56:878,-0.41,2.531,5.187,52.6163,0.2423,-0.1521,0.0975,-65.5596
17:25:56:898,0.107,2.964,5.748,52.8566,0.0752,-0.4159,0.073,-65.5596
17:25:56:920,0.882,3.074,6.899,52.9534,-0.1004,-0.5798,-0.0069,-65.5596
17:25:56:938,1.742,3.029,7.874,53.0049,-0.2227,-0.567,-0.2164,-65.5596
17:25:56:958,1.668,2.871,8.5301,52.9192,-0.3633,-0.3223,-0.4687,-65.5596
17:25:56:978,0.945,2.619,9.5951,52.5679,-0.525,-0.0021,-0.5985,-65.5596
17:25:56:998,0.257,2.543,10.599,52.363,-0.4632,0.3204,-0.5101,-65.5596
17:25:57:018,-0.4601,2.7851,10.974,52.1561,-0.1653,0.5684,-0.2548,-65.5596
17:25:57:037,-0.7181,3.194,10.7681,52.144,0.1837,0.5173,0.0337,-65.5596
17:25:57:058,-0.3401,3.603,10.6301,52.144,0.4136,0.1279,0.2497,-65.5596
17:25:57:078,0.585,3.896,10.328,52.1653,0.4807,-0.2403,0.3369,-65.5596
17:25:57:097,1.646,3.819,10.4171,52.2808,0.2614,-0.4139,0.2944,-65.5596
17:25:57:118,2.285,3.596,11.444,52.2296,-0.1994,-0.4767,0.0656,-65.5596
17:25:57:138,2.1701,3.3431,12.8231,52.1878,-0.6911,-0.3937,-0.1005,-65.5596
17:25:57:158,1.833,2.928,14.6591,52.1359,-1.0284,-0.2266,-0.176,-65.5596
17:25:57:179,1.586,1.4651,15.9521,51.9488,-0.9976,-0.1777,-0.3026,-65.5596
17:25:57:199,0.143,0.771,15.3581,51.7831,-0.5112,-0.0531,-0.3453,-65.5596
17:25:57:221,-1.31,0.659,13.017,51.5312,0.2434,0.3481,-0.0696,-65.5596
17:25:57:238,-1.997,0.749,10.311,51.3198,0.8159,0.5375,0.2816,-65.5596
17:25:57:258,-2.066,0.8021,8.3651,51.171,1.0021,0.2736,0.5466,-65.5596
17:25:57:279,-1.5251,0.843,7.728,50.8901,0.8425,-0.3043,0.67,-65.5596
17:25:57:299,-0.407,0.6371,7.893,50.7356,0.6051,-0.6608,0.6775,-65.5596
17:25:57:318,0.54,0.491,8.355,50.5299,0.4859,-0.5033,0.7094,-65.5596
17:25:57:338,1.304,0.431,8.5781,50.4924,0.4423,-0.2149,0.7221,-65.5596
17:25:57:358,2.0051,0.5441,8.317,50.7272,0.3912,0.0257,0.6509,-65.5596
17:25:57:378,1.9211,0.951,7.7111,50.8924,0.3231,0.3002,0.472,-65.6586
17:25:57:398,1.095,1.137,6.792,51.2137,0.2401,0.529,0.305,-65.7703
17:25:57:419,0.2861,1.319,6.131,51.1335,0.1008,0.595,0.2507,-65.8892
17:25:57:438,-0.299,1.482,5.997,50.893,-0.0546,0.544,0.2668,-66.0134
17:25:57:458,-0.8171,1.7381,5.939,50.648,-0.1558,0.4577,0.32,-66.1433
17:25:57:478,-1.137,2.028,6.0971,50.2287,-0.242,0.3534,0.4338,-66.2811
17:25:57:498,-1.034,2.234,6.5711,49.9336,-0.3314,0.2108,0.5583,-66.4306
17:25:57:517,-0.582,2.423,7.541,49.7751,-0.4111,0.0012,0.6157,-66.5954
17:25:57:538,0.0041,2.445,8.721,49.6968,-0.4218,-0.1979,0.5859,-66.7761
17:25:57:559,0.4751,2.418,9.7871,49.679,-0.3653,-0.3532,0.5369,-66.971
17:25:57:578,0.9731,2.3561,10.9481,49.5599,-0.2876,-0.4213,0.4891,-67.1779
17:25:57:598,1.596,2.1311,12.0971,49.3532,-0.143,-0.3735,0.3934,-67.3945
17:25:57:618,2.357,2.054,12.3971,48.9588,0.0571,-0.1904,0.3593,-67.6177
17:25:57:638,3.0161,2.088,12.131,48.6149,0.104,0.0267,0.238,-67.8462
17:25:57:658,3.0161,2.2961,11.8391,48.3956,0.0007,0.2566,-0.0078,-68.0744
17:25:57:678,2.64,2.2991,11.985,48.4583,-0.1334,0.4034,-0.2058,-68.294
17:25:57:698,2.3839,2.217,12.045,48.3894,-0.2654,0.3354,-0.3388,-68.4987
17:25:57:719,2.597,1.7861,12.243,48.1623,-0.4942,0.1874,-0.4537,-68.6845
17:25:57:738,2.58,0.821,12.9881,47.7824,-0.725,0.2353,-0.6165,-68.8473
17:25:57:757,1.4621,0.117,14.097,47.2595,-0.7017,0.5045,-0.6464,-68.9829
17:25:57:778,0.698,-0.5351,14.5181,46.6852,-0.2558,0.6695,-0.4113,-69.0932
17:25:57:800,0.6521,-0.533,13.706,46.3475,0.4051,0.447,-0.0026,-69.1888
17:25:57:818,1.898,-0.1091,12.0521,46.1568,0.9212,-0.0573,0.3348,-69.284
17:25:57:839,3.3131,0.426,9.959,46.0284,1.1213,-0.3074,0.3274,-69.3879
17:25:57:858,3.825,0.687,8.2691,46.2168,0.9053,-0.2234,0.0144,-69.4979
17:25:57:878,3.5111,0.608,7.788,46.3132,0.5169,0.0512,-0.375,-69.6023
17:25:57:899,2.4191,0.51,7.766,46.2583,0.304,0.3035,-0.6475,-69.6023
17:25:57:918,1.3301,0.675,7.23,46.045,0.37,0.4566,-0.7315,-69.6023
17:25:57:938,0.4901,1.0151,6.0491,45.7188,0.5499,0.5354,-0.6677,-69.6023
17:25:57:958,-0.117,1.5971,4.965,45.465,0.6786,0.5215,-0.5496,-69.6023
17:25:57:978,-0.4601,2.2391,4.148,45.1713,0.6743,0.3481,-0.4357,-69.6023
17:25:57:998,-0.7421,2.943,4.1411,45.3202,0.5434,0.0682,-0.358,-69.6023
17:25:58:018,-0.9551,3.3401,4.962,45.3911,0.4093,-0.2244,-0.3037,-69.6023
17:25:58:038,-0.6131,3.639,5.673,45.1796,0.3988,-0.4713,-0.2164,-69.6023
17:25:58:058,-0.2111,4.044,5.942,45.1482,0.388,-0.5948,-0.2346,-69.6023
17:25:58:078,0.131,4.248,6.471,44.7385,0.1933,-0.649,-0.326,-69.6023
17:25:58:098,0.15,4.566,7.766,44.2966,-0.0664,-0.5746,-0.4133,-69.6023
17:25:58:118,0.02,4.611,9.1241,44.0154,-0.2387,-0.4522,-0.3911,-69.6023
17:25:58:138,0.018,4.6001,10.6151,43.7883,-0.3026,-0.3032,-0.2238,-69.5
17:25:58:159,0.332,4.655,11.834,43.6565,-0.2122,-0.1829,-0.0291,-69.3944
17:25:58:179,0.7121,4.473,12.4781,43.4839,-0.0153,-0.1159,0.1156,-69.2922
17:25:58:198,1.014,4.374,12.4211,43.2307,0.1583,-0.1415,0.1613,-69.1975
17:25:58:218,1.119,4.4269,12.155,43.0486,0.1997,-0.1712,0.1453,-69.1975
17:25:58:237,1.244,4.3031,12.327,42.7617,0.0315,-0.2659,0.0741,-69.1975
17:25:58:259,0.8681,4.2911,12.591,42.6182,-0.1026,-0.0914,0.0241,-69.1975
17:25:58:278,0.128,4.0781,12.497,42.4732,-0.093,0.3268,0.0815,-69.1975
17:25:58:297,-0.2801,3.4571,12.5141,42.3151,-0.1185,0.3471,0.1464,-69.1975
17:25:58:318,-0.4811,2.595,12.282,42.1418,-0.0067,0.2034,0.124,-69.1975
17:25:58:339,-1.113,2.066,11.0801,41.9887,0.322,0.2927,0.1613,-69.1975
17:25:58:358,-1.7171,1.6571,9.38,42.1448,0.5829,0.4099,0.3092,-69.1975
17:25:58:378,-1.932,1.611,8.0801,42.3022,0.6509,0.3812,0.5317,-69.1975
17:25:58:398,-0.668,1.5641,7.1561,42.5883,0.3061,-0.1914,0.7211,-69.1975
17:25:58:418,0.4421,1.566,7.541,42.8585,0.0315,-0.3299,0.6509,-69.1975
17:25:58:438,1.076,1.461,8.0531,43.074,-0.1973,-0.2394,0.5061,-69.1975
17:25:58:459,1.5101,1.4201,8.559,43.1221,-0.3707,0.0129,0.3678,-69.1975
17:25:58:478,1.4381,1.389,8.709,43.1672,-0.4165,0.3821,0.2347,-69.1975
17:25:58:499,0.66,1.427,8.3411,42.9442,-0.3568,0.7142,0.1848,-69.1975
17:25:58:518,0.1541,1.5971,7.788,42.7986,-0.2834,0.8185,0.2731,-69.1975
17:25:58:538,0.0251,1.9541,7.326,42.6016,-0.1919,0.6993,0.404,-69.2975
17:25:58:558,0.1211,2.342,7.043,42.3946,-0.094,0.5088,0.4902,-69.4098
17:25:58:578,0.222,2.679,6.7751,42.2266,-0.0047,0.2959,0.5285,-69.5363
17:25:58:599,0.432,3.149,6.72,42.2161,-0.0036,0.1012,0.5594,-69.678
17:25:58:621,0.906,3.548,7.014,42.3342,-0.0781,-0.0638,0.521,-69.8351
17:25:58:638,1.311,3.723,7.677,42.3024,-0.2142,-0.1563,0.3689,-70.0051
17:25:58:658,1.3661,3.6971,8.824,42.442,-0.3334,-0.1627,0.1815,-70.1818
17:25:58:680,1.1291,3.582,10.136,42.4787,-0.3292,-0.135,0.0666,-70.3591
17:25:58:698,1.086,3.5171,11.25,42.555,-0.1973,-0.15,0.0187,-70.5333
17:25:58:719,1.287,3.4121,11.7,42.71,0.0358,-0.1574,-0.0069,-70.7029
17:25:58:738,1.6721,3.366,11.259,42.7464,0.205,-0.0776,-0.0408,-70.8669
17:25:58:758,1.488,3.515,10.814,42.7464,0.1785,0.0139,-0.1706,-71.0236
17:25:58:779,0.89,3.611,10.893,42.6751,0.007,-0.001,-0.3293,-71.1684
17:25:58:798,0.746,3.3401,11.417,42.6005,-0.1973,-0.133,-0.4113,-71.2965
17:25:58:820,1.292,3,11.985,42.5767,-0.4016,-0.2819,-0.4272,-71.4064
17:25:58:838,1.965,2.4971,12.684,42.6366,-0.558,-0.2904,-0.5027,-71.4978
17:25:58:858,2.044,1.64,13.079,42.7331,-0.5772,-0.1435,-0.6071,-71.4978
17:25:58:878,1.1621,0.9941,13.043,42.8272,-0.4133,0.1353,-0.6401,-71.4978
17:25:58:898,0.3581,0.771,12.4061,42.6224,-0.1132,0.2885,-0.4984,-71.4978
17:25:58:921,0.159,0.8981,11.42,42.3179,0.2349,0.147,-0.225,-71.4978
17:25:58:938,1.067,1.202,10.326,42.0635,0.4976,-0.2403,-0.0069,-71.4978
17:25:58:958,2.163,1.587,8.688,41.7791,0.6094,-0.4745,-0.0238,-71.4978
17:25:58:978,2.3621,1.755,6.9641,41.8221,0.437,-0.3851,-0.2824,-71.4978
17:25:58:998,1.644,1.884,6.0881,42.0629,0.0263,-0.1393,-0.5793,-71.4978
17:25:59:017,0.7271,1.7891,6.2891,42.1019,-0.3462,0.0246,-0.7741,-71.4978
17:25:59:038,0.195,1.53,6.6671,42.1351,-0.4345,0.0736,-0.8496,-71.4978
17:25:59:059,-0.431,1.59,6.5741,41.9194,-0.2674,0.0756,-0.855,-71.4978
17:25:59:078,-0.635,1.781,6.0401,41.5597,-0.0824,-0.0254,-0.7508,-71.3799
17:25:59:098,-0.465,2.138,5.6351,41.3035,-0.0334,-0.1723,-0.6475,-71.2402
17:25:59:118,-0.2951,2.5211,5.6951,40.9397,-0.1419,-0.3032,-0.6368,-71.0824
17:25:59:138,-0.098,2.696,6.3131,40.7873,-0.2898,-0.3266,-0.6421,-70.907
17:25:59:159,0.356,2.837,7.3541,40.8806,-0.3781,-0.2861,-0.6496,-70.7148
17:25:59:178,0.581,2.7851,8.549,41.101,-0.3846,-0.2489,-0.74,-70.5055
17:25:59:197,0.233,2.8061,9.5141,41.3111,-0.3399,-0.2095,-0.8082,-70.2763
17:25:59:218,-0.359,2.924,10.17,41.2228,-0.2962,-0.1754,-0.7305,-70.0264
17:25:59:239,-0.455,3.1271,10.8311,40.9454,-0.275,-0.0892,-0.5197,-69.7603
17:25:59:258,-0.434,3.4241,11.432,40.4741,-0.1983,0.1001,-0.2995,-69.4857
17:25:59:278,-0.656,3.855,11.856,40.2059,-0.0291,0.3066,-0.0887,-69.2106
17:25:59:298,-0.812,4.0151,12.078,39.9869,0.1816,0.2258,0.1231,-68.9422
17:25:59:318,-0.201,4.137,12.212,39.8996,0.3103,-0.0946,0.2933,-68.6872
17:25:59:339,0.681,4.128,12.164,40.0331,0.3359,-0.3425,0.3497,-68.4503
17:25:59:358,1.1531,4.2161,12.1811,40.1614,0.0997,-0.4076,0.2529,-68.2319
17:25:59:378,0.846,4.2521,12.617,40.5496,-0.1419,-0.0021,0.1188,-68.0278
17:25:59:398,-0.359,3.893,12.7961,41.052,-0.1026,0.5141,0.0912,-67.8335
17:25:59:423,-1.118,3.134,12.215,41.3752,0.0582,0.5024,0.1316,-67.6486
17:25:59:437,-1.544,2.5241,11.3411,41.5955,0.2646,0.198,0.1464,-67.4738
17:25:59:458,-1.722,1.8341,10.187,41.7005,0.4093,-0.0712,0.206,-67.3093
17:25:59:478,-1.7261,1.4921,9.327,41.7724,0.4572,-0.1042,0.3305,-67.1574
17:25:59:497,-1.6691,1.197,8.7551,41.6966,0.4796,-0.0542,0.4902,-67.0223
17:25:59:518,-1.331,1.006,8.592,41.8268,0.4104,-0.166,0.6062,-66.9089
17:25:59:538,-0.525,0.8621,8.6501,42.1649,0.3083,-0.3308,0.67,-66.9089
17:25:59:559,0.482,0.852,8.697,42.335,0.2189,-0.2947,0.6775,-66.9089
17:25:59:578,1.0571,0.9821,8.5781,42.7191,0.1284,-0.0744,0.6072,-66.9089
17:25:59:598,1.2971,1.164,8.357,43.2073,0.0635,0.2342,0.521,-66.9089
17:25:59:618,0.918,1.413,7.797,43.4896,0.0688,0.4907,0.437,-66.9089
17:25:59:638,0.5111,1.595,7.062,43.7958,0.0283,0.5631,0.4018,-66.9089
17:25:59:659,0.339,1.719,6.7271,44.1694,-0.0408,0.529,0.4136,-66.9089
17:25:59:677,0.2651,1.9271,6.5861,44.317,-0.0674,0.429,0.4327,-66.9089
17:25:59:698,0.119,2.186,6.5831,44.6119,-0.0802,0.3119,0.454,-66.9089
17:25:59:719,0.059,2.5601,6.93,44.834,-0.0876,0.1928,0.4891,-66.9089
17:25:59:737,0.224,2.876,7.316,45.0117,-0.0472,0.0778,0.5508,-66.9089
17:25:59:758,0.71,3.18,7.788,45.43,-0.077,-0.0776,0.5551,-67.0184
17:25:59:778,1.04,3.311,8.7671,45.6416,-0.1547,-0.1999,0.4305,-67.1435
17:25:59:798,0.897,3.3521,10.0121,45.8756,-0.1706,-0.1829,0.2668,-67.2788
17:25:59:818,0.7001,3.263,11.1491,46.1826,-0.061,-0.0766,0.2071,-67.4189
17:25:59:838,1.088,3.137,11.489,46.4364,0.1305,-0.0648,0.2369,-67.5622
17:25:59:858,1.878,3.173,11.274,46.9002,0.1987,-0.0914,0.1678,-67.7093
17:25:59:878,2.084,3.311,11.037,47.226,0.1167,-0.0318,-0.0238,-67.8565
17:25:59:898,1.7351,3.3431,11.1251,47.3934,-0.0408,0.081,-0.225,-67.9969
17:25:59:918,1.3901,3.101,11.202,47.4118,-0.2016,0.1533,-0.3633,-68.1242
17:25:59:939,1.3781,2.67,11.5391,47.5,-0.3686,0.0661,-0.4602,-68.2344
17:25:59:960,1.4711,2.2481,11.7911,47.5839,-0.4558,-0.0468,-0.5974,-68.3245
17:25:59:977,1.2971,1.4921,11.8151,47.7923,-0.5676,-0.0318,-0.738,-68.3245
17:25:59:998,0.533,0.759,12.387,47.9832,-0.7091,0.1214,-0.789,-68.3245
17:26:00:018,-0.0101,0.251,13.299,48.0433,-0.6538,0.213,-0.5974,-68.3245
17:26:00:038,0.236,0.1751,13.352,48.1407,-0.2515,0.1555,-0.2526,-68.3245
17:26:00:058,1.256,0.354,12.5021,48.2565,0.2434,-0.0883,0.0304,-68.3245
17:26:00:078,2.3981,0.819,10.6541,48.2873,0.668,-0.2298,0.1166,-68.3245
17:26:00:098,2.783,1.269,8.3021,48.4633,0.7776,-0.2159,-0.0601,-68.3245
17:26:00:119,2.4461,1.604,6.732,48.5441,0.5573,-0.1031,-0.3527,-68.3245
17:26:00:140,1.668,1.731,6.047,48.7372,0.2443,0.0554,-0.5954,-68.3245
17:26:00:158,0.7751,1.686,6.0641,49.0552,0.0602,0.1852,-0.723,-68.3245
17:26:00:178,0.143,1.7261,6.126,49.4383,0.1412,0.1928,-0.722,-68.3245
17:26:00:199,-0.117,1.995,5.5631,49.958,0.3263,0.0395,-0.6453,-68.2265
17:26:00:217,-0.072,2.433,4.881,50.1245,0.3699,-0.1548,-0.6058,-68.1088
17:26:00:240,0.0131,2.7821,4.5581,50.2779,0.2221,-0.2538,-0.6474,-67.9726
17:26:00:258,-0.0701,3.1151,4.826,50.6641,-0.0675,-0.2751,-0.743,-67.8169
17:26:00:278,-0.137,3.173,5.8961,50.8984,-0.3985,-0.2347,-0.8452,-67.6392
17:26:00:298,-0.6491,3.0311,7.7921,51.0207,-0.6197,-0.1943,-0.8921,-67.4376
17:26:00:319,-0.989,2.7971,9.6701,50.9839,-0.5943,-0.2432,-0.8037,-67.2121
17:26:00:338,-1.1711,2.828,10.5341,50.7654,-0.3686,-0.2857,-0.5558,-66.9678
17:26:00:358,-1.02,3.101,10.9001,50.5714,-0.209,-0.2527,-0.2599,-66.7141
17:26:00:378,-0.716,3.381,11.264,50.9352,-0.0972,-0.0358,0.004,-66.461
17:26:00:398,-0.63,3.7091,11.693,51.3721,0.0411,0.208,0.2476,-66.2176
17:26:00:419,-0.393,3.948,11.5781,51.5908,0.1869,0.0419,0.4084,-65.7838
17:26:00:439,0.0491,3.903,11.4581,51.9093,-0.0186,-0.1761,0.4106,-65.5971
17:26:00:458,0.456,4.013,12.641,51.9749,-0.4133,-0.2879,0.3733,-65.4299
17:26:00:478,0.65,3.9941,13.821,52.2977,-0.4814,-0.0688,0.4627,-65.2816
17:26:00:499,0.806,3.5291,13.821,52.5959,-0.2079,0.1378,0.502,-65.1547
17:26:00:518,0.135,2.66,12.435,52.6301,0.0975,0.0782,0.3179,-65.0481
17:26:00:538,-0.932,2.069,10.716,52.6882,0.2677,0.0005,0.2211,-64.9544
17:26:00:558,-1.499,1.6211,9.6221,52.7233,0.3327,0.0132,0.268,-64.9544
17:26:00:578,-1.839,1.434,8.5751,52.9032,0.4157,0.0048,0.3882,-64.9544
17:26:00:599,-1.623,1.343,7.73,53.3922,0.3774,-0.1772,0.5372,-64.9544
17:26:00:618,-0.9221,1.365,7.673,53.7492,0.2007,-0.4476,0.5914,-64.9544
17:26:00:638,0.073,1.13,7.9001,53.985,-0.0047,-0.5998,0.5296,-64.9544
17:26:00:658,0.576,0.9311,8.271,54.3792,-0.2558,-0.5231,0.4243,-64.9544
17:26:00:680,0.7961,0.752,9.1121,54.7602,-0.3952,-0.2166,0.3073,-64.9544
17:26:00:701,0.339,0.644,9.018,55.1824,-0.2388,0.2346,0.302,-64.9544
17:26:00:722,-0.2831,0.7301,8.3531,55.6699,-0.0132,0.5411,0.4467,-64.9544
17:26:00:738,-0.438,0.998,7.469,55.9395,0.1156,0.5071,0.6277,-64.9544
17:26:00:757,-0.2081,1.334,6.818,56.0898,0.1709,0.3495,0.7458,-64.9544
17:26:00:778,-0.041,1.655,6.5471,56.1249,0.1305,0.1878,0.7745,-65.0533
17:26:00:798,0.198,1.985,6.8921,56.1831,0.0038,-0.0144,0.7723,-65.176
17:26:00:819,0.909,2.244,7.835,56.1295,-0.1111,-0.1687,0.7712,-65.322
17:26:00:838,1.6841,2.562,8.8751,56.118,-0.1473,-0.2325,0.6841,-65.4899
17:26:00:859,2.044,2.648,9.7031,56.6149,-0.1248,-0.2358,0.5287,-65.6753
17:26:00:877,2.204,2.768,10.661,57.2873,-0.0451,-0.2028,0.3733,-65.8723
17:26:00:898,2.163,2.804,10.9481,58.0151,0.1444,-0.0879,0.2434,-66.0754
17:26:00:921,2.0531,3.089,10.761,58.5997,0.2773,0.0452,0.1636,-66.2805
17:26:00:938,2.058,3.3641,10.721,58.9142,0.2816,0.0952,0.0742,-66.4849
17:26:00:958,2.2901,3.402,10.8791,58.9269,0.2571,0.1634,-0.045,-66.6853
17:26:00:978,1.9241,3.6731,10.859,59.0783,0.2315,0.2453,-0.2035,-66.8774
17:26:00:999,1.4501,3.908,10.91,59.2017,0.1156,0.1324,-0.344,-67.0558
17:26:01:017,1.649,3.965,11.123,59.2824,-0.1356,-0.124,-0.3993,-67.2163
17:26:01:038,2.7281,3.4571,11.76,59.555,-0.4708,-0.2996,-0.4388,-67.3578
17:26:01:058,3.4751,2.354,12.8231,59.8393,-0.7645,-0.2156,-0.5908,-67.4784
17:26:01:079,3.26,0.872,13.5941,60.0029,-0.7167,0.191,-0.8315,-67.5725
17:26:01:098,1.323,-0.018,12.749,60.21,-0.3729,0.6369,-0.9835,-67.5725
17:26:01:118,-0.098,-0.222,12.083,60.156,-0.0983,0.6986,-0.7803,-67.5725
17:26:01:139,-0.101,-0.1571,11.4371,60.0535,0.2263,0.3442,-0.3802,-67.5725
17:26:01:159,0.875,0.3761,9.933,60.3194,0.5306,-0.0782,-0.1631,-67.5725
17:26:01:178,1.5311,0.7091,8.0441,60.4943,0.5477,-0.257,-0.2185,-67.5725
17:26:01:198,1.44,0.9701,6.768,60.6672,0.2465,-0.1123,-0.4238,-67.5725
17:26:01:218,0.5951,1.0661,6.365,60.7528,-0.093,0.1559,-0.6196,-67.5725
17:26:01:238,-0.5201,1.109,6.1691,60.6447,-0.2516,0.3794,-0.6963,-67.5725
17:26:01:258,-1.41,1.338,6.0881,60.6334,-0.2058,0.4624,-0.5962,-67.5725
17:26:01:279,-1.796,1.667,5.91,60.8207,-0.0483,0.3102,-0.4058,-67.4678
17:26:01:298,-1.619,2.045,5.7911,61.0391,0.1092,-0.0037,-0.2302,-67.3535
17:26:01:318,-1.209,2.4041,5.592,61.1441,0.2082,-0.307,-0.1301,-67.2352
17:26:01:338,-0.651,2.6771,5.537,61.2523,0.1486,-0.4763,-0.1024,-67.1159
17:26:01:358,0,2.8181,6.3821,61.1967,-0.0855,-0.5028,-0.1812,-66.9961
17:26:01:378,0.494,2.679,7.85,61.2015,-0.3165,-0.4698,-0.3355,-66.8726
17:26:01:398,0.5689,2.399,9.33,61.4418,-0.4304,-0.3432,-0.4482,-66.7406
17:26:01:418,0.2651,2.301,10.551,61.5759,-0.4059,-0.1645,-0.4632,-66.5969
17:26:01:438,0.0971,2.3321,11.027,61.7495,-0.2676,0.0888,-0.294,-66.4426
17:26:01:459,0.159,2.789,11.0561,61.6906,-0.0972,0.3814,-0.0247,-66.2847
17:26:01:478,0.174,3.3641,11.0411,61.7187,0.0879,0.5646,0.2402,-66.1326
17:26:01:498,0.231,3.738,11.219,61.8779,0.2742,0.4793,0.4063,-65.9946
17:26:01:519,0.5021,3.9101,11.463,62.0916,0.421,0.0962,0.5202,-65.8752
17:26:01:538,1.095,4.022,11.604,62.3481,0.4179,-0.3241,0.5606,-65.777
17:26:01:558,1.9211,4.0751,12.009,62.2855,0.1933,-0.5827,0.5415,-65.777
17:26:01:579,2.532,4.341,12.816,62.3342,-0.1196,-0.5125,0.4243,-65.777
17:26:01:597,2.5391,4.295,13.457,62.4999,-0.1569,-0.0484,0.2509,-65.777
17:26:01:618,1.893,3.651,13.376,62.534,-0.059,0.1398,-0.0268,-65.777
17:26:01:639,0.581,2.7221,12.2411,62.6026,0.0752,0.059,-0.3185,-65.777
17:26:01:658,-0.618,2.169,11.0771,62.6944,0.2167,0.1484,-0.4121,-65.777
17:26:01:678,-1.6691,1.595,9.873,62.5526,0.3943,0.2303,-0.3301,-65.777
17:26:01:699,-2.3801,1.4531,8.75,62.5398,0.5445,0.1559,-0.1354,-65.777
17:26:01:719,-2.502,1.307,7.994,62.6466,0.5497,-0.089,0.0668,-65.777
17:26:01:738,-2.318,1.1951,7.622,62.5511,0.4168,-0.3784,0.1935,-65.777
17:26:01:758,-1.47,0.917,7.97,62.7218,0.1572,-0.5731,0.335,-65.777
17:26:01:777,-0.2441,0.785,8.669,62.8924,-0.0855,-0.5796,0.4041,-65.777
17:26:01:798,0.4991,0.74,9.133,62.6393,-0.1919,-0.3858,0.3541,-65.777
17:26:01:818,0.729,0.7781,9.0731,62.3963,-0.1376,0.0846,0.2775,-65.777
17:26:01:837,-0.048,0.96,8.343,62.1578,-0.0047,0.5049,0.2786,-65.777
17:26:01:859,-0.4931,1.245,7.493,61.9403,0.0272,0.5848,0.3776,-65.777
17:26:01:878,-0.431,1.578,7.103,62.1546,0.038,0.5006,0.5137,-65.777
17:26:01:897,-0.165,1.868,6.909,62.4261,0.0613,0.3506,0.5776,-65.777
17:26:01:918,-0.11,2.265,6.861,62.482,0.1071,0.2197,0.6106,-65.777
17:26:01:938,0.186,2.6891,6.993,62.4939,0.1251,0.0697,0.6457,-65.777
17:26:01:958,0.885,3.086,7.337,62.2751,0.0741,-0.0688,0.617,-65.777
17:26:01:978,1.32,3.2561,8.202,61.9728,-0.0132,-0.1815,0.4605,-65.8822
17:26:01:998,1.536,3.2351,9.066,61.7066,-0.0323,-0.2868,0.2637,-65.9988
17:26:02:018,1.565,3.194,9.636,61.4982,-0.0186,-0.3092,0.1115,-66.1201
17:26:02:039,1.716,3.153,10.316,61.5373,-0.0525,-0.3028,-0.0279,-66.2407
17:26:02:058,2.12,2.967,11.238,61.5046,-0.1174,-0.3135,-0.1449,-66.3558
17:26:02:078,2.259,2.8331,11.93,61.4202,-0.1228,-0.2772,-0.278,-66.4613
17:26:02:098,2.199,2.8421,11.8271,61.2305,-0.0844,-0.1442,-0.3611,-66.5532
17:26:02:119,2.135,2.813,11.583,60.8815,-0.1792,-0.0634,-0.4462,-66.5532
17:26:02:137,2.12,2.619,11.705,60.4351,-0.4315,-0.1687,-0.5919,-66.5532
17:26:02:158,2.331,2.028,12.423,60.2485,-0.672,-0.2549,-0.7217,-66.5532
17:26:02:179,2.051,1.382,12.9401,59.9631,-0.7039,-0.0443,-0.8357,-66.5532
17:26:02:199,0.9371,0.8021,12.9281,59.4394,-0.4868,0.3623,-0.8112,-66.5532
17:26:02:218,-0.242,0.7421,12.425,58.9953,-0.0632,0.557,-0.5813,-66.5532
17:26:02:244,-0.489,0.764,11.453,58.5344,0.3316,0.274,-0.2194,-66.5532
17:26:02:257,0.317,0.998,10.5701,58.0835,0.5636,-0.2219,0.0987,-66.5532
17:26:02:278,1.761,1.25,9.605,57.9406,0.6572,-0.5188,0.268,-66.5532
17:26:02:302,2.891,1.439,8.436,57.9174,0.5573,-0.5242,0.186,-66.5532
17:26:02:318,3.186,1.449,7.8671,57.9431,0.2508,-0.2857,-0.1525,-66.5532
17:26:02:338,2.4191,1.3841,7.7351,58.0459,-0.0377,0.041,-0.5239,-66.5532
17:26:02:358,0.9521,1.3271,7.644,58.0911,-0.1089,0.3239,-0.7069,-66.5532
17:26:02:378,-0.161,1.497,7.227,57.9857,0.056,0.4539,-0.6452,-66.4503
17:26:02:398,-0.7181,1.889,6.413,57.8084,0.355,0.3974,-0.4536,-66.3294
17:26:02:419,-0.8531,2.481,5.219,57.7088,0.5966,0.2271,-0.2439,-66.1978
17:26:02:438,-0.594,3.173,4.472,57.5192,0.5519,-0.0091,-0.1365,-66.0624
17:26:02:458,0.2171,4.1111,5.5151,57.5758,0.073,-0.3081,-0.2823,-65.7869
17:26:02:479,0.6191,4.13,6.801,57.446,-0.1919,-0.3964,-0.426,-65.641
17:26:02:498,0.7751,3.9911,8.571,57.1397,-0.375,-0.3986,-0.6144,-65.4832
17:26:02:519,0.432,3.62,9.813,57.0839,-0.4165,-0.2282,-0.7377,-65.3073
17:26:02:538,-0.3311,3.5321,10.716,56.8399,-0.3803,0.074,-0.6474,-65.1109
17:26:02:558,-0.905,3.594,11.1491,56.5603,-0.2452,0.3847,-0.4271,-64.899
17:26:02:578,-1.358,3.795,11.262,56.6745,-0.0291,0.5486,-0.1088,-64.6807
17:26:02:600,-1.1591,4.0781,11.3411,56.2587,0.2039,0.4081,0.2072,-64.4674
17:26:02:621,-0.4961,4.181,11.216,55.9046,0.4082,0.0835,0.4052,-64.2691
17:26:02:638,0.317,4.446,10.97,55.7326,0.4572,-0.1911,0.5127,-64.0916
17:26:02:658,1.3091,4.362,11.049,55.6569,0.2944,-0.3113,0.5074,-63.9373
17:26:02:679,1.9241,4.391,11.453,55.4017,-0.0058,-0.2518,0.3785,-63.8046
17:26:02:700,1.34,4.5611,11.4941,55.157,-0.1165,0.2783,0.2317,-63.6881
17:26:02:721,0.083,4.104,11.267,55.0765,-0.2153,0.5316,0.1338,-63.5825
17:26:02:737,-0.369,3.1391,11.604,54.847,-0.3006,0.2857,0.0923,-63.4846
17:26:02:758,-0.774,2.423,11.168,54.8188,-0.1057,0.0367,0.0956,-63.3928
17:26:02:778,-1.2401,1.925,9.5351,54.7063,0.1805,0.1122,0.2009,-63.3928
17:26:02:798,-1.7411,1.829,8.0321,54.5733,0.2975,0.2846,0.3818,-63.3928
17:26:02:820,-1.7861,1.8101,7.1531,54.6013,0.1933,0.1398,0.5415,-63.3928
17:26:02:838,-1.3271,1.676,7.431,54.4234,-0.0792,-0.2443,0.5862,-63.3928
17:26:02:857,-0.278,1.257,8.2901,54.2182,-0.2718,-0.5199,0.6021,-63.3928
17:26:02:878,0.662,0.9791,8.889,54.1627,-0.3664,-0.571,0.5446,-63.3928
17:26:02:898,1.182,0.788,9.1309,54.0749,-0.4239,-0.3879,0.4115,-63.3928
17:26:02:920,1.026,0.852,9.143,54.0251,-0.4378,0.0345,0.3307,-63.3928
17:26:02:938,0.59,0.941,8.8841,53.8536,-0.3655,0.4506,0.3616,-63.3928
17:26:02:958,0.222,1.197,8.532,53.5707,-0.2474,0.5943,0.4584,-63.3928
17:26:02:978,0.1331,1.566,7.8671,53.2987,-0.0835,0.5251,0.5584,-63.3928
17:26:03:000,0.152,1.9511,7.251,53.072,0.0368,0.4007,0.6201,-63.4841
17:26:03:017,0.243,2.3201,6.966,53.0867,0.0634,0.2687,0.65,-63.5944
17:26:03:038,0.411,2.72,7.0331,53.2871,0.0358,0.158,0.6628,-63.7242
17:26:03:059,0.72,2.9381,7.553,53.4217,-0.0036,0.0186,0.6277,-63.873
17:26:03:079,1.019,3.0551,8.022,53.5078,-0.0025,-0.1101,0.535,-64.0387
17:26:03:098,1.3061,3.122,8.508,53.4602,-0.0749,-0.2251,0.3913,-64.2171
17:26:03:118,1.6031,3.0071,9.3971,53.0606,-0.2548,-0.2518,0.1892,-64.4024
17:26:03:138,1.895,2.799,10.6781,52.6239,-0.4133,-0.1794,0.0529,-64.5875
17:26:03:158,2.652,2.3201,11.81,52.2807,-0.4782,-0.1251,-0.0631,-64.768
17:26:03:178,2.85,2.1191,12.342,51.9824,-0.4665,-0.0219,-0.212,-64.9397
17:26:03:198,2.508,2.232,12.423,52.0108,-0.5049,0.1367,-0.3578,-65.0977
17:26:03:217,1.955,2.1071,12.483,51.9536,-0.6538,0.1346,-0.51,-65.2372
17:26:03:238,1.905,1.8821,13.323,51.5897,-0.9167,-0.0847,-0.6164,-65.354
17:26:03:258,2.113,1.343,14.408,51.2001,-0.9944,-0.1666,-0.6676,-65.4455
17:26:03:277,1.7111,0.5681,14.958,50.8335,-0.7773,-0.0037,-0.6781,-65.4455
17:26:03:298,0.729,0.11,14.6951,50.4516,-0.2793,0.2388,-0.5419,-65.4455
17:26:03:318,0.063,0.086,13.488,50.2543,0.3497,0.2707,-0.2217,-65.4455
17:26:03:338,0.317,0.3071,11.913,50.0663,0.8755,0.0089,0.12,-65.4455
17:26:03:359,1.2851,0.668,10.002,50.0627,1.2767,-0.2518,0.3679,-65.4455
17:26:03:379,2.027,1.3031,7.965,50.2892,1.4321,-0.3719,0.3659,-65.4455
17:26:03:397,2.271,1.839,6.155,50.7386,1.2394,-0.3943,0.1062,-65.4455
17:26:03:418,2.079,2.117,5.144,51.3595,0.7701,-0.2623,-0.2387,-65.4455
17:26:03:438,1.9121,2.0741,5.1041,51.5117,0.2221,-0.0378,-0.5441,-65.4455
17:26:03:458,1.376,2.006,5.343,51.4681,-0.1803,0.209,-0.8304,-65.4455
17:26:03:478,0.435,2.112,5.355,51.2467,-0.4165,0.3729,-1.024,-65.4455
17:26:03:498,-0.402,2.2841,5.408,50.9464,-0.5878,0.3868,-1.0517,-65.4455
17:26:03:518,-0.903,2.5361,6.1931,50.9135,-0.7039,0.2218,-0.9878,-65.4455
17:26:03:539,-0.726,2.564,7.335,50.763,-0.6379,-0.0527,-0.8346,-65.3318
17:26:03:558,0.018,2.552,8.312,50.5303,-0.3889,-0.2964,-0.6887,-65.1946
17:26:03:579,0.602,2.552,8.475,50.0936,-0.1367,-0.3389,-0.726,-65.0376
17:26:03:599,0.4751,2.588,8.5751,48.9891,-0.0494,-0.1485,-0.7803,-64.8599
17:26:03:618,-0.084,2.672,8.8601,48.9219,-0.1217,0.043,-0.7208,-64.6607
17:26:03:638,-0.278,2.7371,9.873,48.8256,-0.2591,0.0931,-0.5217,-64.4441
17:26:03:658,-0.0581,2.813,11.142,48.7962,-0.2186,0.0419,-0.3131,-64.2178
17:26:03:678,0.2501,2.9141,11.616,48.6264,0.0591,0.1048,-0.1386,-63.9887
17:26:03:697,0.327,3.0311,11.516,48.3573,0.2859,0.1303,-0.0353,-63.7626
17:26:03:718,0.188,2.981,11.3741,48.0919,0.3092,-0.0176,-0.0077,-63.5418
17:26:03:739,0.2141,2.892,11.8031,48.1054,0.2124,-0.1997,0.0381,-63.3275
17:26:03:758,0.581,2.715,12.387,48.251,0.0507,-0.3634,0.0583,-63.1209
17:26:03:779,0.482,2.84,12.866,48.2529,-0.1259,-0.2113,0.07,-62.9226
17:26:03:797,-0.2591,2.912,13.158,48.2875,-0.2133,0.2314,0.154,-62.7333
17:26:03:818,-0.395,2.054,13.481,48.0041,-0.2887,0.2218,0.1742,-62.5554
17:26:03:838,-0.644,1.3241,13.622,47.7248,-0.1888,0.0005,0.1466,-62.3888
17:26:03:858,-1.3031,0.975,12.114,47.6944,0.3114,0.1601,0.2211,-62.2326
17:26:03:879,-1.805,0.876,9.708,47.7273,0.7787,0.4474,0.3913,-62.0895
17:26:03:899,-2.016,1.1569,7.785,47.9113,0.9159,0.4708,0.5797,-61.9648
17:26:03:919,-1.944,1.523,6.899,48.1803,0.7787,0.1506,0.6553,-61.8636
17:26:03:938,-1.734,1.803,6.653,48.2575,0.5178,-0.2794,0.667,-61.8636
17:26:03:958,-0.869,1.772,7.098,48.3536,0.2634,-0.5316,0.7011,-61.8636
17:26:03:978,0.305,1.568,7.215,48.4512,0.0997,-0.488,0.7382,-61.8636
17:26:03:998,0.99,1.403,7.4,48.3501,-0.1495,-0.3582,0.6446,-61.8636
17:26:04:018,1.052,1.3841,8.108,48.16,-0.3015,-0.1272,0.4723,-61.8636
17:26:04:039,0.59,1.413,8.451,48.1915,-0.1803,0.0952,0.3701,-61.8636
17:26:04:058,-0.134,1.611,7.85,48.2584,0.055,0.2101,0.3871,-61.8636
17:26:04:079,-0.4481,1.863,7.172,48.416,0.1496,0.209,0.5265,-61.8636
17:26:04:098,-0.228,2.303,7.1291,48.5499,0.1433,0.1261,0.6361,-61.8636
17:26:04:118,0.068,2.643,7.314,48.3649,0.1529,0.0345,0.6542,-61.9658
17:26:04:138,0.267,2.981,7.6181,48.1127,0.1305,-0.0452,0.6106,-62.0875
17:26:04:159,0.557,3.149,8.24,48.1223,0.0847,-0.0857,0.5329,-62.2265
17:26:04:177,0.7121,3.192,8.9321,47.9468,0.0688,-0.0825,0.4499,-62.3793
17:26:04:198,0.866,3.359,9.543,47.953,0.1284,-0.0315,0.4063,-62.543
17:26:04:219,0.9011,3.536,9.9161,47.9083,0.2349,0.0143,0.3414,-62.7158
17:26:04:256,1.0331,3.6371,10.038,47.8175,0.322,0.0122,0.2382,-62.8948
17:26:04:259,1.5461,3.4451,10.1171,47.6184,0.2657,-0.0825,0.1136,-63.0762
17:26:04:278,1.965,3.122,10.431,47.3166,0.0762,-0.1251,-0.0386,-63.2554
17:26:04:298,1.775,3.0791,10.7231,47.0755,-0.0887,0.0569,-0.1525,-63.427
17:26:04:319,1.4231,2.957,11.061,46.8795,-0.1877,0.2049,-0.1886,-63.5875
17:26:04:338,1.5071,2.78,11.1251,46.8556,-0.2835,0.0197,-0.1961,-63.7365
17:26:04:358,2.091,2.373,11.1041,46.908,-0.4548,-0.2773,-0.2663,-63.8736
17:26:04:379,2.252,1.896,11.5421,47.1248,-0.6251,-0.3486,-0.395,-63.9958
17:26:04:398,1.838,1.382,11.798,47.0287,-0.5889,-0.0378,-0.4599,-64.0994
17:26:04:419,0.846,1.02,11.796,46.897,-0.4591,0.2006,-0.4345,-64.0994
17:26:04:438,0.8561,0.4931,11.901,46.7784,-0.3367,-0.0569,-0.3216,-64.0994
17:26:04:459,2.381,0.692,11.058,46.4602,-0.0759,-0.6083,-0.1312,-64.0994
17:26:04:478,2.666,0.8501,9.7961,46.3542,-0.0557,-0.3102,-0.2174,-64.0994
17:26:04:498,2.487,0.876,8.958,46.2287,-0.1515,-0.0037,-0.36,-64.0994
17:26:04:518,1.83,0.936,8.3,45.8852,-0.2238,0.1643,-0.5015,-64.0994
17:26:04:538,1.0211,1.125,7.8071,45.3497,-0.176,0.2985,-0.5888,-64.0994
17:26:04:559,0.2501,1.4441,6.966,44.836,0.0389,0.4346,-0.5717,-64.0994
17:26:04:578,-0.422,1.757,5.8961,44.5521,0.2529,0.4337,-0.4834,-64.0994
17:26:04:599,-0.683,2.1431,5.046,44.3356,0.3103,0.257,-0.3748,-64.0994
17:26:04:618,-0.611,2.528,4.785,44.2437,0.1774,-0.0315,-0.3207,-64.0994
17:26:04:639,-0.146,2.7341,5.202,44.0445,-0.0568,-0.2646,-0.3409,-64.0994
17:26:04:658,0.396,2.7821,6.377,43.6551,-0.3123,-0.373,-0.426,-64.0994
17:26:04:679,0.681,2.684,8.0171,43.2938,-0.4335,-0.2666,-0.576,-63.9991
17:26:04:698,0.281,2.505,9.116,43.2842,-0.3473,-0.0176,-0.6813,-63.8806
17:26:04:721,-0.4601,2.5601,9.686,43.2326,-0.2144,0.1526,-0.6027,-63.7423
17:26:04:738,-0.393,2.7581,10.1081,42.8967,-0.143,0.1665,-0.4397,-63.5885
17:26:04:760,-0.467,2.943,10.383,42.688,-0.1387,0.2038,-0.3216,-63.4247
17:26:04:778,-0.536,3.2231,11.063,42.2359,-0.1845,0.2772,-0.1013,-63.2562
17:26:04:799,-0.455,3.335,12.059,41.7986,-0.1154,0.2804,0.1412,-63.0909
17:26:04:820,-0.072,3.213,12.581,41.6408,0.071,0.092,0.3084,-62.9368
17:26:04:837,0.2171,3.1631,12.6071,41.5184,0.1518,-0.1752,0.385,-62.7985
17:26:04:859,0.6311,2.897,12.8921,41.4506,0.0337,-0.3997,0.3871,-62.6777
17:26:04:878,0.899,2.991,13.448,41.4973,-0.0632,-0.2783,0.4456,-62.574
17:26:04:897,0.794,3.144,13.1291,41.5282,0.1199,0.2229,0.6053,-62.574
17:26:04:920,0.432,2.88,12.1091,41.3186,0.2762,0.3037,0.6095,-62.574
17:26:04:938,0.468,2.301,11.523,41.0362,0.3263,-0.1112,0.4712,-62.574
17:26:04:958,0.0851,2.0501,10.476,40.7577,0.4433,-0.3784,0.3264,-62.574
17:26:04:978,-0.68,1.8101,9.246,40.6331,0.5178,-0.2038,0.2871,-62.574
17:26:04:998,-1.226,1.614,8.477,40.6596,0.5115,0.0197,0.4095,-62.574
17:26:05:018,-1.2521,1.403,8.0681,40.733,0.4179,-0.0751,0.5404,-62.574
17:26:05:039,-0.6371,1.238,8.12,40.789,0.2475,-0.3263,0.6287,-62.574
17:26:05:058,0.387,0.996,8.6381,41.1155,0.071,-0.3879,0.6457,-62.574
17:26:05:077,1.095,0.7901,9.0161,41.3451,-0.0291,-0.1911,0.5999,-62.574
17:26:05:099,1.335,0.783,9.1,41.5259,-0.0345,0.1154,0.5276,-62.6693
17:26:05:119,1.155,0.9341,8.654,41.8148,0.0613,0.3538,0.4925,-62.7796
17:26:05:138,1.067,0.998,7.893,42.0846,0.1646,0.4241,0.502,-62.904
17:26:05:157,0.971,1.1921,7.34,42.1839,0.2093,0.3591,0.4807,-63.0422
17:26:05:178,0.753,1.401,6.7871,42.1022,0.254,0.307,0.4712,-63.1933
17:26:05:198,0.605,1.6931,6.495,41.9791,0.2349,0.2453,0.5244,-63.3569
17:26:05:218,0.669,2.0021,6.444,41.6487,0.2018,0.2516,0.5947,-63.5346
17:26:05:238,0.7271,2.39,6.48,41.4427,0.1741,0.275,0.6414,-63.7284
17:26:05:257,0.935,2.754,6.837,41.5069,0.0986,0.1782,0.6403,-63.9391
17:26:05:278,1.445,2.9711,7.524,41.5554,-0.061,-0.0336,0.5265,-64.1653
17:26:05:298,1.5791,3.1391,8.568,41.5418,-0.1951,-0.1346,0.3222,-64.4017
17:26:05:318,1.62,2.933,9.758,41.508,-0.2761,-0.2134,0.1508,-64.6406
17:26:05:339,1.991,2.7701,11.0411,41.4782,-0.3399,-0.2634,0.0774,-64.8766
17:26:05:358,2.625,2.538,11.8031,41.3564,-0.325,-0.206,0.0285,-65.1074
17:26:05:377,2.604,2.684,11.781,41.2119,-0.2995,-0.0091,-0.1024,-65.331
17:26:05:397,1.9841,2.888,11.463,40.9528,-0.3675,0.1272,-0.2674,-65.5426
17:26:05:418,1.689,2.847,11.499,40.7311,-0.573,0.1154,-0.3525,-65.7372
17:26:05:438,1.7471,2.4281,12.504,40.5886,-0.8177,0.0399,-0.4228,-65.9123
17:26:05:458,1.728,1.523,13.814,40.4511,-0.8496,0.0495,-0.4632,-66.0661
17:26:05:478,1.103,0.656,14.31,40.3239,-0.6113,0.0835,-0.4482,-66.1982
17:26:05:497,0.435,0.165,14.3141,40.0804,-0.2238,-0.0527,-0.2834,-66.3113
