Time,Acc_X,Acc_Y,Acc_Z,Meg,Gyr_X,Gyr_Y,Gyr_Z,Ore
17:20:48:002,-1.8742,2.9581,9.1926,58.5743,-0.1423,0.0293,0.0928,19.1443
17:20:48:013,-1.608,3.128,9.1304,58.4792,-0.0901,0.0059,0.1674,19.1443
17:20:48:033,-1.3352,3.2022,9.2333,58.4979,-0.0529,-0.0666,0.1844,19.1443
17:20:48:054,-1.2993,3.006,9.4176,58.4605,-0.0539,-0.1486,0.1099,19.1443
17:20:48:073,-1.2826,2.9174,9.3577,58.3543,-0.039,-0.1113,0.063,19.1443
17:20:48:102,-1.261,3.0156,9.1328,58.2805,-0.0497,0.0027,0.0491,19.1443
17:20:48:121,-1.2084,2.994,9.1902,58.4136,-0.1104,0.073,0.0278,19.1443
17:20:48:134,-1.2634,3.0036,9.3075,58.2434,-0.153,0.1229,0.0065,19.1443
17:20:48:156,-1.273,3.0514,9.1184,58.0789,-0.1274,0.1953,-0.002,19.0486
17:20:48:174,-1.273,3.128,8.8642,58.0854,-0.1083,0.2401,-0.0052,18.9503
17:20:48:195,-1.4285,3.0108,8.8618,57.9255,-0.1455,0.1634,-0.0414,18.8501
17:20:48:214,-1.6319,2.6895,9.2118,57.7813,-0.1839,-0.0016,-0.0947,18.75
17:20:48:235,-1.7085,2.4048,9.4756,57.6731,-0.1668,-0.1316,-0.1021,18.6569
17:20:48:255,-1.7085,2.2732,9.6479,57.5884,-0.12,-0.1497,-0.0553,18.6569
17:20:48:275,-1.6487,2.3474,9.5809,57.4866,-0.0816,-0.0985,0.0225,18.6569
17:20:48:295,-1.5553,2.4766,9.5282,57.337,-0.072,-0.0453,0.0885,18.6569
17:20:48:315,-1.474,2.5555,9.5665,57.3377,-0.0752,-0.0314,0.1237,18.6569
17:20:48:335,-1.3639,2.5316,9.5809,57.2031,-0.0401,-0.0591,0.1258,18.6569
17:20:48:356,-1.3639,2.5579,9.3745,57.2452,0.0356,-0.0783,0.113,18.6569
17:20:48:379,-1.474,2.5651,9.195,57.1472,0.0654,-0.0879,0.0981,18.5624
17:20:48:404,-1.4094,2.4837,9.0897,57.2473,0.0292,-0.1145,0.112,18.4675
17:20:48:416,-1.273,2.3976,9.3051,57.4238,-0.039,-0.1497,0.1173,18.3719
17:20:48:437,-1.1551,2.3426,9.6024,57.4148,-0.0891,-0.172,0.1173,18.2752
17:20:48:456,-1.0164,2.333,9.7077,57.6304,-0.0561,-0.1624,0.1344,18.1766
17:20:48:488,-0.9757,2.3809,9.5952,57.4623,0.0366,-0.1262,0.1503,18.0747
17:20:48:506,-0.856,2.5603,9.3649,57.5086,0.1206,-0.1028,0.1716,17.9687
17:20:48:517,-0.6449,2.7619,9.2213,57.5617,0.1377,-0.0996,0.1823,17.8582
17:20:48:542,-0.5085,2.8935,9.2118,57.6143,0.0951,-0.0815,0.1471,17.7423
17:20:48:561,-0.518,2.8792,9.2094,57.596,0.0441,-0.0676,0.0896,17.6202
17:20:48:578,-0.5994,2.8217,9.1902,57.4178,0.0174,-0.0591,0.0321,17.4939
17:20:48:597,-0.7268,2.7787,9.1878,57.4461,0.0121,-0.073,-0.002,17.366
17:20:48:617,-0.7412,2.7547,9.3601,57.4588,0.0068,-0.1145,-0.0095,17.2394
17:20:48:638,-0.7484,2.6919,9.5378,57.6403,0.0142,-0.1603,-0.0116,17.1149
17:20:48:658,-0.7579,2.6895,9.5713,57.7827,0.0281,-0.1316,-0.0063,16.9922
17:20:48:688,-0.6814,2.7206,9.6742,57.5685,0.0036,-0.0794,0.0044,16.8721
17:20:48:700,-0.609,2.723,9.8201,57.4736,-0.0145,-0.0602,-0.0084,16.7538
17:20:48:720,-0.5946,2.7159,9.7771,57.595,0.0132,-0.0314,-0.0372,16.6377
17:20:48:739,-0.585,2.7206,9.655,57.7036,0.0664,-0.0282,-0.0563,16.5242
17:20:48:759,-0.6449,2.7739,9.4947,57.8412,0.1302,-0.0463,-0.0776,16.414
17:20:48:782,-0.7795,2.8002,9.1663,57.6973,0.1771,-0.0485,-0.0925,16.3083
17:20:48:800,-0.7938,2.8289,8.9725,57.6242,0.1643,-0.0644,-0.083,16.2092
17:20:48:820,-0.813,2.86,8.9001,57.5402,0.1025,-0.0751,-0.0659,16.1167
17:20:48:842,-0.8249,2.9174,8.9025,57.8958,0.0249,-0.0431,-0.0457,16.1167
17:20:48:861,-0.8225,2.8552,9.0371,57.6143,-0.0497,-0.0399,-0.0329,16.1167
17:20:48:883,-0.8393,2.7087,9.3027,57.5607,-0.0795,-0.1017,-0.034,16.1167
17:20:48:902,-0.7795,2.6656,9.5809,57.3681,-0.0379,-0.1316,-0.035,16.1167
17:20:48:922,-0.734,2.6871,9.3984,57.469,0.0483,-0.0858,-0.0276,16.1167
17:20:48:942,-0.7364,2.7523,9.3529,57.4501,0.0696,-0.0943,-0.035,16.1167
17:20:48:961,-0.7005,2.6919,9.5713,57.6026,0.0409,-0.171,-0.0393,16.1167
17:20:48:984,-0.6209,2.7595,9.5785,57.6496,0.0664,-0.1571,-0.0169,16.1167
17:20:49:001,-0.5779,2.86,9.3434,57.5447,0.1196,-0.0921,0.0065,16.1167
17:20:49:022,-0.4367,2.9773,9.1759,57.8293,0.143,-0.0655,0.0246,16.1167
17:20:49:041,-0.3984,3.0179,9.1663,57.9138,0.126,-0.0687,0.0119,16.1167
17:20:49:062,-0.4008,2.9844,9.3458,57.8717,0.0855,-0.1007,-0.0169,16.1167
17:20:49:084,-0.463,2.9844,9.3242,57.7435,0.0654,-0.0613,-0.0254,16.1167
17:20:49:103,-0.5683,3.0299,9.1208,57.7637,0.0462,-0.0154,-0.0084,16.1167
17:20:49:122,-0.4391,3.0802,9.0849,57.5693,0.0057,-0.0037,0.015,16.1167
17:20:49:141,-0.4319,3.0323,9.2453,57.7708,-0.0401,-0.0336,-0.0031,16.0251
17:20:49:162,-0.463,2.9509,9.4271,57.6886,-0.0529,-0.057,-0.035,15.9349
17:20:49:184,-0.5085,2.9414,9.2764,57.4339,-0.0209,0.0069,-0.035,15.9349
17:20:49:203,-0.5659,2.9653,9.1161,57.2711,0.0025,0.0101,-0.0222,15.9349
17:20:49:223,-0.5515,2.9127,9.1878,57.269,-0.0103,-0.0495,-0.0329,15.9349
17:20:49:242,-0.5109,2.86,9.3123,57.344,-0.0337,-0.0676,-0.0329,15.9349
17:20:49:262,-0.5133,2.8744,9.2955,57.5465,-0.0518,-0.0293,-0.0126,15.9349
17:20:49:283,-0.5515,2.9055,9.2333,57.6294,-0.0752,0.0112,0.0033,15.9349
17:20:49:304,-0.4845,2.9509,9.408,57.6128,-0.0997,-0.0091,0.0097,15.9349
17:20:49:323,-0.5037,2.9725,9.4008,57.9243,-0.0763,-0.0048,0.0023,15.9349
17:20:49:344,-0.53,2.9797,9.2931,58.2492,-0.0422,-0.0112,-0.0041,15.9349
17:20:49:364,-0.4726,2.9605,9.3601,58.4767,-0.0379,-0.0474,0.0012,15.8448
17:20:49:385,-0.3793,2.9653,9.478,58.3799,-0.0273,-0.0581,0.0044,15.8448
17:20:49:404,-0.4487,2.9605,9.4247,58.325,0.0089,-0.0591,-0.0126,15.8448
17:20:49:424,-0.5252,2.9222,9.4223,58.2965,0.0292,-0.0644,-0.0308,15.7541
17:20:49:448,-0.5109,2.9653,9.2931,58.0919,0.0409,-0.0112,-0.0169,15.7541
17:20:49:465,-0.5037,2.9916,9.207,57.7959,0.0206,0.0229,-0.0095,15.7541
17:20:49:485,-0.4917,2.9342,9.3817,57.7032,-0.023,-0.0325,-0.018,15.7541
17:20:49:506,-0.5324,2.8481,9.5856,57.3965,-0.0316,-0.0581,-0.0286,15.7541
17:20:49:525,-0.542,2.8433,9.4708,57.3662,0.0025,0.0048,-0.019,15.7541
17:20:49:547,-0.5635,2.8911,9.262,57.4511,0.0238,0.0538,0.0012,15.7541
17:20:49:565,-0.4558,2.8983,9.3601,57.4575,0.0164,0.0282,0.0119,15.7541
17:20:49:586,-0.5348,2.8576,9.3458,57.3763,0.0217,0.0101,-0.0052,15.7541
17:20:49:606,-0.6353,2.8026,9.329,57.5268,0.0302,-0.0037,-0.0126,15.7541
17:20:49:626,-0.6233,2.872,9.1663,57.7704,0.0345,0.0197,0.014,15.7541
17:20:49:649,-0.5611,2.9031,9.1878,57.8195,0.0142,0.0154,0.031,15.6633
17:20:49:667,-0.5444,2.8696,9.1831,58.0257,-0.0081,-0.0059,0.0182,15.6633
17:20:49:687,-0.5898,2.8337,9.3099,58.0894,-0.0348,-0.0144,0.0108,15.5719
17:20:49:707,-0.5492,2.8672,9.2453,58.2906,-0.0571,0.025,0.0321,15.481
17:20:49:727,-0.5037,2.8887,9.4612,58.5018,-0.0795,0.0144,0.0395,15.3892
17:20:49:749,-0.4606,2.8481,9.5306,58.5527,-0.0539,-0.0059,0.0257,15.2983
17:20:49:767,-0.5085,2.8481,9.4343,58.7258,-0.0028,0.0016,0.0129,15.2983
17:20:49:788,-0.518,2.8672,9.3027,58.5458,0.0185,0.0059,0.0161,15.2071
17:20:49:808,-0.4798,2.8816,9.4104,58.3975,-0.0039,-0.0027,0.0161,15.2071
17:20:49:828,-0.4606,2.8409,9.4756,58.3171,-0.022,0.0005,0.0044,15.2071
17:20:49:849,-0.5061,2.8457,9.4128,58.163,-0.0145,0.0506,-0.0031,15.1161
17:20:49:868,-0.5061,2.8505,9.2501,58.1205,-0.0028,0.0794,-0.002,15.1161
17:20:49:889,-0.5061,2.8672,9.1807,57.935,0.0004,0.057,-0.0063,15.1161
17:20:49:910,-0.5755,2.8193,9.2285,58.1734,-0.006,0.0101,-0.0233,15.1161
17:20:49:929,-0.609,2.7182,9.1639,58.0534,-0.0113,-0.0069,-0.0222,15.1161
17:20:49:949,-0.5755,2.8433,9.262,58.122,-0.0209,0.0048,-0.0084,15.1161
17:20:49:984,-0.542,2.7302,9.3386,58.2633,-0.0486,-0.0005,-0.0158,15.1161
17:20:49:991,-0.6162,2.7278,9.2716,58.2735,-0.0529,0.0101,-0.0233,15.1161
17:20:50:009,-0.5731,2.7302,9.4463,58.3536,-0.0646,-0.0293,-0.018,15.1161
17:20:50:030,-0.5228,2.7619,9.4971,58.3552,-0.0571,-0.0282,-0.0052,15.1161
17:20:50:052,-0.5587,2.793,9.4295,58.3399,-0.0369,0.0112,-0.0084,15.1161
17:20:50:070,-0.542,2.8074,9.4295,58.0249,-0.0337,0.0197,-0.0063,15.1161
17:20:50:092,-0.5348,2.7906,9.4008,57.8698,-0.022,0.0144,-0.0052,15.1161
17:20:50:111,-0.5563,2.735,9.3769,57.777,-0.0007,0.0005,-0.0244,15.1161
17:20:50:130,-0.6114,2.6991,9.4295,57.5984,0.0068,-0.0272,-0.0382,15.1161
17:20:50:151,-0.609,2.6991,9.3649,57.627,0.0111,-0.024,-0.0265,15.1161
17:20:50:171,-0.6281,2.8002,9.262,57.6629,0.0089,0.0101,-0.0105,15.1161
17:20:50:191,-0.5827,2.7667,9.3793,57.5913,-0.022,-0.008,-0.0126,15.1161
17:20:50:212,-0.6329,2.6824,9.5115,57.4937,-0.0369,-0.0399,-0.019,15.1161
17:20:50:231,-0.6329,2.6967,9.4415,57.4701,-0.006,-0.0154,-0.0041,15.1161
17:20:50:252,-0.5731,2.7643,9.3506,57.5029,0.0111,0.0037,0.0097,15.1161
17:20:50:271,-0.53,2.7882,9.3458,57.5864,-0.0028,-0.0091,0.0108,15.1161
17:20:50:291,-0.5109,2.7182,9.4828,57.6291,-0.0156,-0.0453,0.0023,15.1161
17:20:50:312,-0.4941,2.723,9.4487,57.5609,0.0142,-0.0304,-0.0041,15.1161
17:20:50:332,-0.5085,2.7667,9.2836,57.453,0.0462,-0.0016,-0.0052,15.1161
17:20:50:352,-0.4822,2.805,9.262,57.5045,0.0334,-0.0208,-0.0063,15.1161
17:20:50:372,-0.5061,2.8074,9.2979,57.6661,0.0079,-0.0378,-0.0095,15.1161
17:20:50:392,-0.4893,2.7619,9.3171,57.8417,-0.006,-0.0272,-0.0169,15.1161
17:20:50:412,-0.5444,2.7595,9.3482,57.7944,-0.0156,-0.0123,-0.0222,15.0238
17:20:50:433,-0.5659,2.68,9.3482,58.0102,-0.0209,-0.0133,-0.019,14.9316
17:20:50:453,-0.5539,2.7206,9.3194,58.1273,-0.0166,-0.0027,-0.0073,14.8383
17:20:50:473,-0.542,2.6967,9.3601,58.1978,-0.0156,-0.0133,0.0001,14.8383
17:20:50:493,-0.5492,2.7571,9.2644,58.3024,-0.0028,-0.0176,0.0001,14.8383
17:20:50:513,-0.5348,2.7302,9.3745,58.2039,-0.023,-0.0431,-0.0137,14.8383
17:20:50:534,-0.451,2.6943,9.5139,58.0325,-0.0454,-0.0581,-0.0063,14.8383
17:20:50:554,-0.4606,2.7422,9.5186,57.8236,-0.022,-0.0293,0.0023,14.7472
17:20:50:574,-0.4845,2.7739,9.3817,57.7559,0.0132,-0.0165,0.0065,14.7472
17:20:50:595,-0.4343,2.8433,9.2883,57.4027,0.0313,-0.0368,0.0193,14.7472
17:20:50:614,-0.3864,2.8289,9.3027,57.3275,0.0185,-0.0527,0.015,14.7472
17:20:50:635,-0.3936,2.817,9.4032,57.2976,-0.0156,-0.0378,0.0001,14.6567
17:20:50:655,-0.396,2.7135,9.6407,57.1765,-0.0284,-0.0527,-0.0201,14.5665
17:20:50:675,-0.4367,2.6728,9.5928,57.1904,0.0206,-0.0453,-0.0318,14.5665
17:20:50:695,-0.4558,2.7398,9.3888,57.2914,0.0728,-0.0186,-0.0265,14.5665
17:20:50:716,-0.4032,2.7494,9.3912,57.2677,0.0505,-0.0293,-0.0286,14.5665
17:20:50:736,-0.4295,2.7302,9.4247,57.4222,0.0185,-0.0229,-0.0318,14.5665
17:20:50:756,-0.4439,2.7087,9.4511,57.5716,0.0196,-0.0229,-0.0276,14.5665
17:20:50:776,-0.4128,2.7398,9.3864,57.5926,0.0398,-0.0336,-0.0158,14.5665
17:20:50:796,-0.4367,2.7787,9.3003,57.6849,0.0462,-0.0389,-0.0116,14.5665
17:20:50:817,-0.4175,2.7446,9.2692,57.7271,0.0281,-0.0474,-0.0041,14.5665
17:20:50:837,-0.3984,2.793,9.2237,57.8313,0.0164,-0.0304,0.0065,14.5665
17:20:50:856,-0.3218,2.817,9.2309,57.7548,0.0121,-0.0208,0.0055,14.5665
17:20:50:876,-0.3553,2.8552,9.1926,57.8815,0.01,-0.0208,-0.019,14.5665
17:20:50:896,-0.408,2.7739,9.3051,57.7621,-0.0039,-0.0602,-0.0425,14.5665
17:20:50:917,-0.3673,2.7643,9.521,57.8839,-0.0124,-0.0815,-0.0414,14.5665
17:20:50:937,-0.4128,2.7523,9.5689,57.68,0.0121,-0.0453,-0.0308,14.5665
17:20:50:957,-0.4343,2.7906,9.3769,57.6023,0.0377,-0.0027,-0.019,14.5665
17:20:50:977,-0.4247,2.8576,9.4223,57.7285,0.027,-0.0048,-0.0095,14.5665
17:20:50:998,-0.3936,2.8146,9.341,57.8029,0.0111,0.0069,-0.002,14.5665
17:20:51:018,-0.4008,2.8911,9.3721,58.0788,0.0036,0.0293,-0.0031,14.5665
17:20:51:038,-0.3984,2.8026,9.4564,57.9029,-0.0071,-0.0208,-0.0137,14.5665
17:20:51:058,-0.396,2.8433,9.5139,58.1204,0.0121,-0.0325,-0.0095,14.5665
17:20:51:078,-0.3697,2.8026,9.3864,58.1266,0.0334,0.0005,-0.0031,14.5665
17:20:51:100,-0.3553,2.8552,9.274,58.3433,0.0409,0.0282,0.0129,14.5665
17:20:51:119,-0.3505,2.8433,9.1831,58.4407,0.0334,0.0091,0.0097,14.5665
17:20:51:140,-0.3769,2.8002,9.3242,58.4876,0.0047,-0.0314,-0.0052,14.5665
17:20:51:160,-0.396,2.7811,9.3482,58.26,-0.0145,-0.0218,0.0012,14.5665
17:20:51:180,-0.4391,2.7715,9.3482,57.9806,-0.0262,0.0133,0.0108,14.5665
17:20:51:200,-0.3864,2.7954,9.2788,58.2228,-0.0401,0.0357,0.0257,14.5665
17:20:51:220,-0.3745,2.8074,9.3553,58.0959,-0.0593,0.0368,0.0193,14.5665
17:20:51:240,-0.384,2.7906,9.466,58.0961,-0.0614,0.025,0.0087,14.5665
17:20:51:260,-0.4295,2.8074,9.3649,58.2352,-0.0177,0.0368,0.0065,14.5665
17:20:51:280,-0.4152,2.817,9.2764,58.163,0.0142,0.0218,0.0087,14.5665
17:20:51:302,-0.3769,2.8409,9.2836,58.236,0.0079,0.0005,0.0108,14.5665
17:20:51:322,-0.3601,2.8289,9.3458,58.3216,-0.0252,0.0069,0.0076,14.5665
17:20:51:342,-0.3912,2.7763,9.5809,58.4686,-0.0465,0.0037,-0.002,14.5665
17:20:51:362,-0.4391,2.7278,9.5928,58.7656,-0.0145,0.0027,-0.0073,14.5665
17:20:51:382,-0.4463,2.7398,9.4319,58.6307,0.0356,0.0197,0.0033,14.5665
17:20:51:402,-0.3673,2.8002,9.3817,58.314,0.0451,0.0176,0.0172,14.5665
17:20:51:421,-0.3529,2.7763,9.408,58.3161,0.0334,0.008,0.0087,14.5665
17:20:51:442,-0.408,2.7882,9.3386,58.3146,0.0334,0.0293,-0.0052,14.5665
17:20:51:461,-0.3984,2.7595,9.2142,58.1521,0.0324,0.0442,-0.0052,14.5665
17:20:51:482,-0.4128,2.7302,9.2285,58.3179,0.0079,0.0186,-0.0041,14.5665
17:20:51:501,-0.4056,2.7691,9.262,58.2088,-0.0049,0.008,0.0033,14.5665
17:20:51:522,-0.3864,2.8696,9.1854,57.965,0.0025,0.0293,0.0065,14.5665
17:20:51:542,-0.3218,2.8816,9.2931,58.1667,-0.0145,-0.0016,-0.0137,14.5665
17:20:51:562,-0.317,2.8217,9.4511,58.1142,-0.0433,-0.0389,-0.0372,14.5665
17:20:51:582,-0.3793,2.7523,9.6287,58.118,-0.0529,-0.0325,-0.051,14.5665
17:20:51:602,-0.4223,2.7087,9.6742,57.9247,-0.0241,0.0144,-0.0403,14.5665
17:20:51:622,-0.463,2.7978,9.396,58.091,0.0387,0.073,-0.0169,14.5665
17:20:51:642,-0.4487,2.8624,9.2118,58.0538,0.0601,0.057,-0.0137,14.5665
17:20:51:662,-0.4487,2.8074,9.3171,58.1032,0.0249,-0.0176,-0.034,14.5665
17:20:51:683,-0.5324,2.6919,9.4367,57.936,-0.0113,-0.0325,-0.0435,14.5665
17:20:51:703,-0.5563,2.7039,9.3577,57.6823,-0.0166,0.0378,-0.0222,14.5665
17:20:51:723,-0.4845,2.7595,9.3482,57.9144,-0.022,0.0634,0.0065,14.5665
17:20:51:744,-0.4534,2.7882,9.3625,57.9994,-0.0177,0.0389,0.0055,14.5665
17:20:51:764,-0.4822,2.7858,9.3434,58.2711,0.0142,0.0059,-0.0116,14.5665
17:20:51:784,-0.5228,2.817,9.2931,58.2417,0.0473,-0.0123,-0.0169,14.5665
17:20:51:804,-0.4702,2.7954,9.2572,58.1545,0.0345,-0.0208,-0.0084,14.5665
17:20:51:824,-0.451,2.7739,9.341,58.0281,-0.0049,-0.0133,-0.0031,14.5665
17:20:51:844,-0.4845,2.7547,9.4391,58.1998,-0.0326,0.0016,-0.002,14.5665
17:20:51:865,-0.4965,2.7667,9.3458,58.3581,-0.0209,0.0282,0.0044,14.5665
17:20:51:885,-0.4606,2.8002,9.3147,58.3701,0.0068,-0.0027,0.0087,14.5665
17:20:51:905,-0.4582,2.7667,9.3171,58.0961,0.0345,-0.0719,-0.0052,14.5665
17:20:51:925,-0.4774,2.7835,9.1639,58.0954,0.0601,-0.0858,-0.0095,14.5665
17:20:51:945,-0.4271,2.7763,9.1352,57.9832,0.0451,-0.0581,-0.0041,14.5665
17:20:51:965,-0.3697,2.7858,9.195,58.0812,-0.0156,-0.0208,-0.002,14.5665
17:20:52:013,-0.4367,2.7835,9.4247,57.9814,-0.0848,-0.0208,-0.0116,14.5665
17:20:52:015,-0.4558,2.7135,9.6383,58.1207,-0.0997,-0.0304,-0.0073,14.5665
17:20:52:025,-0.4558,2.7906,9.4756,58.0711,-0.0369,0.0272,0.0097,14.5665
17:20:52:045,-0.4008,2.8481,9.4199,57.8399,-0.006,0.0154,0.0023,14.5665
17:20:52:066,-0.4032,2.7906,9.5785,57.9857,-0.0209,-0.0463,-0.0126,14.5665
17:20:52:086,-0.4343,2.7619,9.5498,57.9344,-0.0103,-0.025,-0.0148,14.5665
17:20:52:107,-0.4798,2.7398,9.3266,58.0471,0.0281,0.0336,-0.0031,14.5665
17:20:52:126,-0.396,2.7882,9.1352,57.8563,0.0441,0.0304,0.0087,14.5665
17:20:52:147,-0.396,2.7978,9.2453,57.96,0.0068,-0.0176,-0.0116,14.5665
17:20:52:167,-0.4558,2.7111,9.3553,57.6261,-0.039,-0.0091,-0.0254,14.5665
17:20:52:188,-0.4989,2.6991,9.4247,57.7073,-0.055,0.0261,-0.0126,14.5665
17:20:52:209,-0.475,2.6991,9.4223,57.8983,-0.039,0.0304,-0.0009,14.5665
17:20:52:228,-0.4439,2.7446,9.341,57.952,-0.0081,0.0197,0.0065,14.5665
17:20:52:252,-0.408,2.7643,9.2812,57.7357,0.0015,-0.0016,0.0023,14.5665
17:20:52:268,-0.4247,2.7547,9.2716,57.7949,-0.0113,-0.0091,-0.0126,14.5665
17:20:52:292,-0.4343,2.7039,9.3362,57.8302,-0.0401,-0.0059,-0.0148,14.5665
17:20:52:308,-0.4104,2.6919,9.3769,57.8426,-0.0561,0.0133,-0.0052,14.5665
17:20:52:329,-0.4295,2.723,9.4391,57.9208,-0.0539,0.0197,-0.0105,14.5665
17:20:52:352,-0.4702,2.6991,9.5019,57.8852,-0.0454,-0.0091,-0.0212,14.5665
17:20:52:368,-0.5037,2.7135,9.4343,57.8684,-0.022,-0.0016,-0.0233,14.5665
17:20:52:392,-0.518,2.7182,9.4295,57.7975,-0.022,0.008,-0.0222,14.5665
17:20:52:413,-0.5611,2.6393,9.4439,57.9686,-0.039,0.0208,-0.019,14.5665
17:20:52:433,-0.5994,2.601,9.3625,57.7737,-0.055,0.0836,-0.0158,14.5665
17:20:52:451,-0.6718,2.5364,9.3123,57.7716,-0.0944,0.1517,-0.0073,14.5665
17:20:52:473,-0.6598,2.5412,9.3123,57.9049,-0.1157,0.1506,0.0246,14.5665
17:20:52:493,-0.6718,2.6106,9.3051,57.8848,-0.0678,0.0879,0.0289,14.5665
17:20:52:513,-0.746,2.6919,9.1974,57.8616,0.0111,0.0123,0.0172,14.5665
17:20:52:533,-0.7484,2.7811,9.0754,57.8746,0.0441,-0.0378,0.0108,14.5665
17:20:52:555,-0.8369,2.7278,9.2261,57.9079,-0.0166,-0.073,-0.0116,14.5665
17:20:52:574,-0.8967,2.5531,9.5019,57.8466,-0.1072,-0.073,-0.0137,14.5665
17:20:52:593,-0.9422,2.5172,9.6407,57.8176,-0.1317,0.0197,0.0129,14.5665
17:20:52:614,-0.9781,2.4837,9.6598,57.7945,-0.1061,0.0804,0.0321,14.5665
17:20:52:634,-1.0977,2.534,9.5689,57.6197,-0.0358,0.0868,0.047,14.5665
17:20:52:654,-1.2443,2.668,9.0538,57.6335,0.0558,0.1218,0.0704,14.5665
17:20:52:675,-1.2921,2.7835,8.7517,57.356,0.0611,0.0996,0.0885,14.5665
17:20:52:693,-1.3878,2.723,8.9342,57.2635,-0.0284,0.0123,0.0939,14.5665
17:20:52:713,-1.5553,2.7039,9.018,57.4728,-0.0997,0.0431,0.1269,14.5665
17:20:52:736,-1.6798,2.7763,8.8283,57.3682,-0.1285,0.1623,0.1759,14.5665
17:20:52:754,-1.6678,2.8193,8.7685,57.6246,-0.1679,0.1815,0.2089,14.5665
17:20:52:775,-1.7282,2.7159,8.9246,57.7252,-0.2084,0.1144,0.2089,14.5665
17:20:52:793,-1.8479,2.6776,9.0993,57.7701,-0.2126,0.0847,0.2153,14.5665
17:20:52:816,-1.7689,2.7571,9.3386,57.9233,-0.1903,0.0495,0.2707,14.5665
17:20:52:836,-1.4213,2.9103,9.5019,58.0124,-0.1317,0.0123,0.3441,14.5665
17:20:52:853,-1.1121,3.061,9.3386,57.808,-0.055,0.0037,0.3771,14.5665
17:20:52:873,-0.7484,3.2596,9.4247,57.4457,-0.022,-0.0826,0.3782,14.5665
17:20:52:894,-0.1831,3.3416,9.801,57.306,-0.0113,-0.2626,0.3835,14.4687
17:20:52:915,0.21,3.2985,9.7436,57.1637,0.0356,-0.2881,0.343,14.3575
17:20:52:934,0.0185,3.2357,9.4439,56.8892,0.0206,-0.1784,0.2611,14.2364
17:20:52:955,-0.6185,3.2333,9.3362,56.596,-0.1136,-0.0538,0.2579,14.1087
17:20:52:974,-1.0546,3.5809,8.9892,56.306,-0.2095,0.108,0.4218,13.9751
17:20:52:995,-0.9494,4.2012,8.723,56.3355,-0.2063,0.1133,0.6114,13.8302
17:20:53:016,-0.609,4.4219,8.735,56.2521,-0.2158,-0.0346,0.6359,13.6677
17:20:53:034,-0.4247,4.2419,9.0562,56.2907,-0.3181,-0.1443,0.5624,13.4864
17:20:53:057,-0.463,3.9165,9.6861,56.4604,-0.4342,-0.188,0.4932,13.2898
17:20:53:074,-0.3147,3.6144,10.2515,56.405,-0.4076,-0.2178,0.474,13.0801
17:20:53:094,-0.07,3.4086,10.285,56.2517,-0.1967,-0.1497,0.4708,12.8589
17:20:53:115,0.0568,3.32,9.6526,56.3399,0.0611,0.0144,0.4335,12.6271
17:20:53:135,0.0568,3.4181,9.0203,56.2943,0.1856,0.1357,0.3782,12.3865
17:20:53:155,0.0616,3.344,8.6345,56.266,0.176,0.19,0.3366,12.1394
17:20:53:176,0.0473,3.32,8.3683,56.3312,0.1441,0.2635,0.3165,11.888
17:20:53:196,0.009,3.2985,8.1362,56.2197,0.1089,0.3157,0.3005,11.6331
17:20:53:216,-0.0915,3.3631,7.8389,55.9277,0.0782,0.3679,0.2963,11.3753
17:20:53:240,-0.207,3.4181,7.6331,55.6806,0.026,0.3881,0.2941,11.1151
17:20:53:258,-0.3458,3.4612,7.6068,55.6968,-0.0411,0.3455,0.2931,10.8526
17:20:53:277,-0.3936,3.5091,7.6116,55.5288,-0.0742,0.3019,0.3048,10.5876
17:20:53:296,-0.2477,3.6,7.7551,55.5229,-0.0827,0.239,0.3069,10.32
17:20:53:317,0.1597,3.8201,8.1745,55.3114,-0.1061,0.1367,0.2462,10.0494
17:20:53:337,0.1573,3.9954,8.9916,55.3325,-0.1551,0.0613,0.0992,9.7784
17:20:53:359,-0.0197,4.1174,9.7675,55.4278,-0.1871,0.1027,-0.0446,9.5109
17:20:53:377,-0.4439,4.0481,9.5067,55.259,-0.0987,0.3935,-0.1288,9.2515
17:20:53:397,-1.0666,4.3376,9.1065,55.2837,-0.0678,0.6172,-0.1692,9.0039
17:20:53:417,-1.1964,4.3519,9.4343,55.3025,-0.2457,0.4787,-0.1405,8.7695
17:20:53:438,-1.0259,4.127,10.5051,55.2935,-0.4853,0.2401,-0.0947,8.5471
17:20:53:458,-0.8465,3.7244,11.5615,55.1634,-0.5608,0.0932,-0.0691,8.3329
17:20:53:479,-1.206,3.3105,12.4959,55.3462,-0.4172,0.0037,-0.019,8.1259
17:20:53:499,-1.2897,3.4134,12.5031,55.3214,-0.0827,0.1272,0.1514,7.9239
17:20:53:519,-1.4118,3.4564,11.5783,55.4403,0.2059,0.3359,0.2899,7.723
17:20:53:538,-1.6391,3.1519,10.9843,55.6159,0.2229,0.2092,0.2494,7.5184
17:20:53:559,-1.5099,2.4957,11.4515,55.6031,0.0771,-0.2445,0.0971,7.3126
17:20:53:579,-1.1767,1.8873,12.067,55.5955,0.0004,-0.4714,-0.0148,7.1104
17:20:53:600,-1.0977,1.5661,12.283,55.5645,0.0238,-0.3148,-0.0467,6.9153
17:20:53:620,-1.8263,1.2,11.7224,55.9027,0.1089,0.0463,-0.0702,6.7288
17:20:53:640,-2.729,0.8955,10.5272,55.9522,0.208,0.3487,-0.034,6.5507
17:20:53:660,-3.0766,0.6491,9.7173,56.0114,0.1856,0.3509,0.0747,6.3805
17:20:53:680,-2.6142,0.3087,10.0648,56.0016,0.0249,0.0762,0.2217,6.2151
17:20:53:702,-1.6295,0.1268,10.6038,56.4405,-0.0241,-0.0826,0.4378,6.0485
17:20:53:721,-0.9159,0.3733,10.1605,56.5483,0.2037,0.1399,0.6359,5.8725
17:20:53:741,-0.5827,0.7591,9.0562,56.784,0.4956,0.4031,0.7339,5.6794
17:20:53:762,-0.2835,1.1157,8.0309,56.8628,0.6522,0.4393,0.7553,5.4676
17:20:53:782,-0.1035,1.6164,7.4728,56.8641,0.6405,0.2646,0.6828,5.237
17:20:53:801,-0.2094,1.9854,7.4632,57.0125,0.5542,-0.0314,0.5294,4.9911
17:20:53:823,-0.5228,2.2128,7.4154,56.9532,0.5553,-0.1401,0.3867,4.735
17:20:53:842,-1.0211,2.3163,7.1157,56.9362,0.616,-0.0037,0.308,4.4758
17:20:53:863,-1.5434,2.3737,6.9864,57.0431,0.5872,0.1112,0.2963,4.2163
17:20:53:881,-1.8287,2.3545,6.9984,57.4385,0.486,0.157,0.324,3.957
17:20:53:901,-1.7928,2.5172,7.0822,57.4228,0.4338,0.1911,0.4069,3.6972
17:20:53:922,-1.7157,3.0275,7.2951,57.3998,0.4413,0.1612,0.4762,3.4333
17:20:53:942,-1.2036,3.4612,7.401,57.6709,0.4583,0.0879,0.4911,3.1625
17:20:53:962,-0.7579,4.0361,7.7216,57.8518,0.4146,-0.0442,0.4282,2.885
17:20:53:982,-0.5372,4.2179,8.0931,58.1618,0.3124,-0.1901,0.2782,2.6022
17:20:54:031,-0.9063,4.4889,8.4981,58.4317,0.2485,-0.2455,0.0907,2.3196
17:20:54:032,-1.5027,4.7641,8.6058,58.5248,0.2091,-0.1987,-0.0478,2.0431
17:20:54:042,-1.8239,5.0016,8.8092,58.6844,0.1334,-0.1912,-0.1117,1.7781
17:20:54:062,-1.6869,5.059,9.4199,58.9705,0.0004,-0.3691,-0.1447,1.5273
17:20:54:082,-0.8847,4.7713,10.7234,59.2923,-0.1551,-0.6417,-0.1799,1.291
17:20:54:102,-0.1256,4.2299,11.9402,59.3536,-0.2851,-0.7194,-0.2172,1.0692
17:20:54:123,0.32,4.0265,13.0086,59.6033,-0.3192,-0.5735,-0.2513,0.8612
17:20:54:143,0.5575,3.9188,12.6903,59.5544,-0.1626,-0.2711,-0.3129,0.6667
17:20:54:164,1.1898,3.6526,12.2614,59.5326,-0.1125,-0.0847,-0.4035,0.4885
17:20:54:184,1.2305,2.9462,12.7573,59.8856,-0.2808,0.0091,-0.5686,0.3289
17:20:54:204,0.1549,2.2205,12.4217,59.8188,-0.2776,0.2997,-0.6943,0.1923
17:20:54:224,-0.5827,1.3412,10.7043,59.7914,-0.0252,0.5256,-0.5771,0.0821
17:20:54:244,-0.4319,1.401,9.1328,59.8424,0.1611,0.4105,-0.2118,0.0821
17:20:54:265,0.5264,2.074,8.2534,59.7898,0.1249,0.09,0.1482,0.0821
17:20:54:284,1.6786,2.9318,7.7288,59.6794,-0.0316,-0.1752,0.2686,0.0821
17:20:54:305,2.074,3.1543,7.7216,59.7567,-0.2925,-0.4639,0.0736,-0.0137
17:20:54:325,1.7551,2.7739,7.9496,59.7113,-0.5363,-0.5202,-0.2959,-0.113
17:20:54:345,1.0032,2.4503,8.3611,59.6044,-0.6024,-0.2732,-0.5867,-0.113
17:20:54:365,0.0281,2.1769,8.2774,59.5651,-0.4406,0.0762,-0.7294,-0.113
17:20:54:385,-0.6425,2.1242,7.8754,59.7876,-0.1317,0.3636,-0.6953,-0.113
17:20:54:406,-0.7962,2.1505,7.4584,59.6616,0.192,0.3423,-0.5398,-0.113
17:20:54:426,-0.7292,2.455,6.9242,59.8745,0.5169,0.3136,-0.413,-0.113
17:20:54:446,-0.8584,2.7715,6.2465,59.9036,0.7213,0.4116,-0.3875,-0.113
17:20:54:466,-1.1791,3.1137,5.8917,59.9719,0.7096,0.4041,-0.3662,-0.113
17:20:54:486,-1.3017,3.5402,6.0544,59.9829,0.5595,0.2273,-0.2948,-0.113
17:20:54:507,-1.3615,4.005,6.7705,60.0098,0.3923,0.073,-0.2172,-0.113
17:20:54:526,-1.5075,4.3089,7.523,60.1094,0.2762,0.0772,-0.149,-0.113
17:20:54:547,-1.529,4.5631,8.0405,60.1308,0.1941,0.2049,-0.0329,-0.113
17:20:54:568,-1.4836,5.0303,8.7565,60.3077,0.0897,0.2518,0.0981,-0.113
17:20:54:588,-1.1408,5.1356,9.2524,60.3675,0.0174,0.2561,0.178,-0.113
17:20:54:607,-0.7484,5.2696,9.6909,60.4479,0.0079,0.2486,0.1535,-0.113
17:20:54:628,-0.6598,5.0542,10.1988,60.4888,-0.0294,0.0527,-0.0457,-0.113
17:20:54:648,-1.0905,4.5727,10.9125,60.5829,-0.1296,-0.1859,-0.331,-0.113
17:20:54:668,-1.596,4.261,12.1077,60.6537,-0.219,-0.335,-0.4397,-0.113
17:20:54:688,-1.9364,3.9141,12.798,60.7066,-0.1051,-0.2093,-0.3246,-0.0162
17:20:54:708,-2.2959,4.0146,12.2064,60.6009,0.1611,0.1367,-0.117,0.0887
17:20:54:728,-2.6859,3.9236,11.1045,60.503,0.2453,0.386,0.0119,0.1957
17:20:54:749,-3.1268,3.5952,10.4859,60.539,0.076,0.3679,0.0822,0.3017
17:20:54:768,-3.6491,3.1376,10.0792,60.5159,-0.1029,0.2838,0.1631,0.4035
17:20:54:788,-3.7496,2.86,9.3529,60.6047,-0.1157,0.271,0.3048,0.4981
17:20:54:809,-3.2345,2.7978,8.9073,60.5774,-0.0955,0.1133,0.4335,0.4981
17:20:54:829,-2.3557,2.6441,8.7182,60.4468,-0.1445,-0.1454,0.4911,0.4981
17:20:54:849,-1.529,2.6177,8.5436,60.505,-0.219,-0.2487,0.4623,0.4981
17:20:54:870,-1.0618,2.4239,8.3276,60.6494,-0.2808,-0.2221,0.3632,0.4981
17:20:54:889,-0.9135,2.0955,7.9232,60.6344,-0.2915,-0.1603,0.2654,0.4981
17:20:54:910,-0.9422,1.9256,7.3268,60.7401,-0.2489,-0.0527,0.2313,0.4981
17:20:54:929,-1.1073,2.0764,6.7609,60.7346,-0.1807,-0.0005,0.2569,0.4981
17:20:54:950,-1.3424,2.1434,6.4235,60.7726,-0.1306,-0.0495,0.276,0.4981
17:20:54:970,-1.596,2.2253,6.2489,60.9468,-0.0859,-0.1134,0.3091,0.4981
17:20:54:990,-1.6008,2.4574,6.2704,60.9914,-0.0337,-0.1816,0.3771,0.4981
17:20:55:012,-1.5003,2.8672,6.2632,61.1667,-0.0007,-0.2093,0.4325,0.4981
17:20:55:032,-1.3376,3.1496,6.3924,61.1674,-0.0518,-0.2786,0.4293,0.4981
17:20:55:052,-1.1623,3.2261,7.197,61.2181,-0.1796,-0.4724,0.3473,0.4981
17:20:55:072,-0.789,2.9797,8.263,61.0943,-0.2553,-0.7066,0.2238,0.4981
17:20:55:091,-0.5707,2.656,9.1304,61.0016,-0.1796,-0.7727,0.1024,0.4034
17:20:55:112,-0.8728,2.6297,9.6191,60.95,0.027,-0.6694,0.0108,0.3069
17:20:55:132,-1.2538,2.9629,9.4128,61.0786,0.2463,-0.4735,-0.0489,0.2133
17:20:55:152,-0.8321,3.7507,9.4176,61.3172,0.2399,-0.3861,-0.0393,0.2133
17:20:55:172,0.1238,4.2706,10.5535,61.1615,-0.1349,-0.6417,-0.1245,0.2133
17:20:55:192,0.7681,4.3328,12.8219,61.0873,-0.645,-0.8675,-0.3715,0.2133
17:20:55:212,0.5695,4.084,14.0195,61.3941,-0.8453,-0.6363,-0.5089,0.2133
17:20:55:232,0.6317,3.7747,13.6026,61.5074,-0.7036,-0.1603,-0.4141,0.2133
17:20:55:253,1.2784,3.2285,13.6816,61.8173,-0.6439,-0.0644,-0.3044,0.2133
17:20:55:272,1.8221,2.4742,14.3312,61.984,-0.6237,-0.2903,-0.2363,0.2133
17:20:55:293,1.9083,1.6307,13.7851,61.8668,-0.3032,-0.2796,-0.1639,0.2133
17:20:55:313,1.8269,1.3029,12.0742,61.8623,0.1814,0.0176,-0.1213,0.2133
17:20:55:333,2.1051,1.255,10.3089,61.8471,0.4136,0.1101,-0.0947,0.2133
17:20:55:353,1.9083,1.2814,9.0347,61.9897,0.2815,0.1122,-0.1373,0.2133
17:20:55:373,1.1324,1.2239,8.2606,61.8767,-0.0177,0.1687,-0.2236,0.2133
17:20:55:393,0.7131,1.1809,7.6403,61.9722,-0.2052,0.2358,-0.2182,0.2133
17:20:55:413,0.4953,1.3962,7.1755,61.9431,-0.2137,0.2156,-0.2055,0.2133
17:20:55:434,0.3105,1.7294,7.3579,61.9344,-0.2297,0.0581,-0.3076,0.2133
17:20:55:454,0.4666,1.9639,7.4441,62.0022,-0.2553,-0.0474,-0.3545,0.2133
17:20:55:474,0.7083,2.3234,7.2185,61.996,-0.1754,0.024,-0.2959,0.2133
17:20:55:495,0.8351,2.8193,7.2329,62.1762,-0.0507,0.1463,-0.298,0.2133
17:20:55:515,0.6078,3.1424,7.0295,62.0686,0.1047,0.2582,-0.3939,0.2133
17:20:55:535,0.0281,3.5354,6.5671,62.0551,0.2644,0.3136,-0.4802,0.2133
17:20:55:555,-0.0078,4.1629,6.6245,62.1017,0.3369,0.1815,-0.3928,0.2133
17:20:55:575,0.7274,4.7521,7.3149,62.2067,0.3454,-0.0847,-0.1927,0.2133
17:20:55:595,1.4148,4.9657,8.2606,62.3283,0.339,-0.3031,-0.1533,0.2133
17:20:55:616,1.3262,4.5751,9.2907,62.5244,0.322,-0.4373,-0.3555,0.2133
17:20:55:635,0.5958,4.1318,10.1964,62.5394,0.3667,-0.4043,-0.5728,0.2133
17:20:55:655,-0.1011,3.801,10.6038,62.4694,0.4658,-0.1987,-0.6314,0.3222
17:20:55:678,-0.4104,3.7651,10.3878,62.6234,0.5094,0.1261,-0.5792,0.4496
17:20:55:696,-0.4295,3.6431,10.4524,62.8419,0.3337,0.2582,-0.5803,0.5932
17:20:55:716,-0.8297,3.0849,11.2552,63.1015,-0.0134,0.1186,-0.6783,0.7524
17:20:55:738,-2.214,2.9964,12.3045,63.057,-0.2361,0.141,-0.6953,0.9298
17:20:55:760,-3.0838,3.1902,12.0311,63.0335,-0.1168,0.5969,-0.364,1.127
17:20:55:779,-2.9354,3.5569,10.9819,63.1886,0.1366,1.0037,0.128,1.3328
17:20:55:800,-2.2624,3.4995,10.6493,63.367,0.1792,0.8162,0.3909,1.5287
17:20:55:818,-2.001,3.2381,10.7545,63.7053,0.1292,0.3903,0.4027,1.7065
17:20:55:840,-2.0369,2.86,10.5631,63.7299,0.1899,0.0634,0.3069,1.8654
17:20:55:859,-1.9029,2.4718,10.0576,63.8789,0.2634,-0.1539,0.178,2.0098
17:20:55:880,-1.7809,2.1817,9.9039,63.7125,0.1643,-0.3798,0.0672,2.1452
17:20:55:900,-1.5434,1.9519,10.1079,63.8757,-0.0443,-0.5234,0.0417,2.2748
17:20:55:920,-1.1815,1.739,9.9757,64.1637,-0.2137,-0.449,0.0758,2.3991
17:20:55:940,-1.2203,1.535,9.4971,63.8583,-0.2925,-0.1838,0.1471,2.5161
17:20:55:962,-1.1145,1.413,8.5101,63.8391,-0.2616,0.1421,0.2984,2.6233
17:20:55:981,-0.7292,1.739,7.4919,63.8606,-0.1722,0.3445,0.4783,2.7156
17:20:56:001,-0.1902,2.0596,6.8309,63.9901,-0.0987,0.3061,0.5901,2.7156
17:20:56:020,0.2674,2.3426,6.6485,63.8473,-0.0656,0.1059,0.5699,2.7156
17:20:56:066,0.2818,2.546,6.8285,63.9484,-0.0188,-0.0815,0.4581,2.7156
17:20:56:071,-0.0245,2.5149,6.862,64.0659,0.0983,-0.1454,0.3261,2.7156
17:20:56:081,-0.4965,2.7547,6.5623,64.5086,0.2431,-0.0666,0.2377,2.7156
17:20:56:102,-0.8871,2.9414,6.4546,64.4991,0.274,-0.0804,0.1929,2.7156
17:20:56:121,-1.1838,3.1352,6.6963,64.4817,0.224,-0.1795,0.1844,2.7156
17:20:56:142,-1.1527,3.2405,7.1204,64.974,0.1899,-0.2594,0.2153,2.7156
17:20:56:162,-0.7388,3.5976,7.6881,65.1539,0.1824,-0.2594,0.2931,2.7156
17:20:56:184,-0.4271,4.1868,8.5436,65.1603,0.1654,-0.2786,0.3208,2.7156
17:20:56:202,-0.3003,4.5511,9.3793,65.3547,0.1366,-0.3606,0.2047,2.7156
17:20:56:225,-0.1543,4.7665,10.5003,65.4173,0.0611,-0.5799,-0.0265,2.7156
17:20:56:244,-0.0006,4.2371,12.5246,65.4671,-0.1296,-1.0262,-0.3118,2.7156
17:20:56:265,0.1549,3.3224,14.0507,65.8819,-0.2723,-1.1965,-0.4077,2.7156
17:20:56:284,0.4038,3.2865,14.3982,66.1726,-0.1807,-0.7684,-0.1969,2.7156
17:20:56:303,1.2138,3.5785,13.258,66.1825,0.0238,-0.0932,0.0566,2.7156
17:20:56:324,1.9537,3.1807,12.2638,66.3165,0.0025,0.2838,0.0182,2.7156
17:20:56:344,1.8748,2.3856,12.4217,66.4793,-0.2446,0.2688,-0.1735,2.7156
17:20:56:364,1.3262,1.794,12.0838,66.6919,-0.2606,0.3732,-0.2182,2.7156
17:20:56:385,1.5757,1.0367,10.2586,66.7159,0.0643,0.5682,-0.1543,2.7156
17:20:56:403,2.4257,1.1228,8.994,66.7839,0.2687,0.337,-0.1533,2.7156
17:20:56:424,2.5478,1.3986,9.0227,66.9537,0.0185,-0.1763,-0.3363,2.7156
17:20:56:443,1.3454,1.3579,9.1352,66.8889,-0.3799,-0.2743,-0.5047,2.7156
17:20:56:464,0.1884,1.5829,8.6824,66.9291,-0.5173,0.0623,-0.4024,2.7156
17:20:56:482,0.2004,2.1721,7.8221,67.1357,-0.365,0.3913,-0.0989,2.7156
17:20:56:504,0.6485,2.6632,6.67,67.435,-0.136,0.5426,0.1045,2.7156
17:20:56:524,1.063,3.1878,6.2387,67.3151,-0.0262,0.3977,0.0609,2.7156
17:20:56:547,1.197,3.3583,6.6293,67.6059,-0.0071,0.0144,-0.1394,2.7156
17:20:56:564,0.9212,3.3942,6.929,67.7513,0.1441,-0.1411,-0.3566,2.7156
17:20:56:585,0.3511,3.3703,6.414,67.6554,0.4391,-0.0101,-0.5377,2.7156
17:20:56:604,-0.0269,3.3751,5.8917,67.8478,0.6074,0.0133,-0.6676,2.7156
17:20:56:625,-0.3075,3.4014,6.1621,67.743,0.5031,-0.2029,-0.7241,2.7156
17:20:56:644,-0.262,3.4564,6.8285,67.7691,0.2644,-0.3851,-0.6708,2.7156
17:20:56:664,-0.015,3.7268,7.4632,67.9986,0.0249,-0.3553,-0.5377,2.7156
17:20:56:685,0.1669,3.9882,8.3635,68.2536,-0.2158,-0.2732,-0.3939,2.8172
17:20:56:708,0.2722,4.1533,9.6646,68.5228,-0.3991,-0.2114,-0.2778,2.9279
17:20:56:725,0.1167,4.532,10.6253,68.6,-0.3735,0.0708,-0.1756,3.0427
17:20:56:745,-0.0867,4.9107,10.4357,68.9551,-0.137,0.4883,-0.0915,3.1574
17:20:56:765,-0.0532,5.0877,10.218,69.2665,0.0526,0.5373,-0.1075,3.2693
17:20:56:786,0.0784,4.8311,10.8981,69.5592,0.0441,0.1815,-0.2937,3.3791
17:20:56:805,-0.2931,4.3041,11.9713,69.6887,-0.0326,-0.0815,-0.5324,3.4932
17:20:56:826,-1.4309,3.9404,12.4026,69.7183,-0.0284,0.1165,-0.6037,3.6215
17:20:56:846,-2.473,3.7053,11.5543,69.8791,0.0718,0.6225,-0.3875,3.7669
17:20:56:866,-2.4993,3.6239,11.1236,69.6844,0.1228,0.7608,-0.051,3.9223
17:20:56:886,-1.8622,3.3224,11.5352,69.8693,0.143,0.3839,0.2121,4.0764
17:20:56:907,-1.4501,3.2022,11.4012,69.9066,0.3316,0.1612,0.3324,4.2184
17:20:56:927,-1.6965,2.9797,9.9063,69.9482,0.5627,0.2316,0.2398,4.3449
17:20:56:947,-2.1206,2.3809,8.7015,70.0925,0.4509,0.1112,0.015,4.4599
17:20:56:967,-2.08,1.535,9.1184,70.2972,-0.0827,-0.3893,-0.0872,4.5735
17:20:56:987,-1.6822,0.8979,10.1725,70.4873,-0.6333,-0.6928,0.047,4.6874
17:20:57:008,-0.9589,0.5958,10.7234,70.666,-0.8623,-0.532,0.3537,4.7948
17:20:57:027,-0.1974,0.8859,10.1055,70.7924,-0.7409,-0.0975,0.6881,4.7948
17:20:57:048,0.4977,1.413,8.8929,70.9747,-0.496,0.2209,0.8959,4.7948
17:20:57:068,1.0917,1.8491,8.0261,71.0978,-0.2979,0.2039,0.982,4.7948
17:20:57:089,1.5111,2.0955,7.5374,71.197,-0.0699,0.0005,1.0012,4.7948
17:20:57:110,1.7503,2.3282,6.749,71.2758,0.3071,-0.1294,0.9724,4.7948
17:20:57:128,1.5709,3.1184,5.7171,71.2475,0.7213,-0.0826,0.8991,4.7045
17:20:57:149,1.1396,3.7053,4.7539,71.1102,0.929,-0.0091,0.7126,4.5815
17:20:57:170,0.4977,4.0002,4.2987,71.1392,0.8491,-0.0325,0.4165,4.4339
17:20:57:189,-0.1107,4.0002,4.5978,71.1906,0.5616,-0.2338,0.1045,4.2743
17:20:57:210,-0.5994,3.8231,5.604,71.256,0.176,-0.5437,-0.1554,4.1151
17:20:57:229,-0.7077,3.7866,7.2449,71.2086,-0.202,-0.8153,-0.2937,3.9659
17:20:57:249,-0.4271,4.0289,9.0084,71.2291,-0.4779,-0.8909,-0.2937,3.8326
17:20:57:270,-0.0915,4.6995,10.4596,71.4999,-0.612,-0.5756,-0.247,3.7148
17:20:57:290,-0.0437,5.7918,11.2816,71.6913,-0.7121,0.0357,-0.2619,3.61
17:20:57:310,-0.5228,6.4313,13.3346,72.001,-1.0359,0.1197,-0.4588,3.5183
17:20:57:330,-0.8465,5.0351,15.5719,72.287,-1.2563,-0.4224,-0.7358,3.5183
17:20:57:351,-1.3184,3.128,16.937,72.6313,-0.9039,-0.7035,-0.8104,3.5183
17:20:57:371,-1.1527,2.0261,17.1362,72.8583,-0.1509,-0.5863,-0.4833,3.5183
17:20:57:391,-0.0843,2.2756,15.5982,73.1159,0.6968,-0.2019,0.1354,3.5183
17:20:57:411,1.2018,2.7398,12.8076,73.5172,1.3369,0.3828,0.5294,3.5183
17:20:57:431,2.074,2.9749,10.3208,73.4829,1.4146,0.8248,0.4453,3.5183
17:20:57:452,1.8963,2.3426,9.1519,73.6406,0.8896,0.8056,0.0172,3.5183
17:20:57:471,0.5575,1.1133,8.6178,73.8076,0.2985,0.8066,-0.3917,3.5183
17:20:57:492,-0.4199,0.469,7.7623,73.9345,0.0473,0.96,-0.4439,3.5183
17:20:57:512,-0.451,0.3781,6.9434,73.8074,-0.0656,0.878,-0.2726,3.5183
17:20:57:532,0.2219,0.603,6.8261,73.8905,-0.2979,0.321,-0.1256,3.5183
17:20:57:552,0.7801,1.0008,7.5446,74.0204,-0.629,-0.318,-0.0904,3.5183
17:20:57:573,1.1492,1.0343,8.5723,73.7201,-0.8421,-0.7397,-0.1394,3.5183
17:20:57:593,1.1731,1.1204,8.8953,73.7872,-0.6929,-0.6321,-0.1075,3.5183
17:20:57:612,0.9793,1.7103,7.7623,73.8109,-0.2265,-0.1188,0.0001,3.5183
17:20:57:633,0.5934,2.4144,6.1095,73.7167,0.1558,0.2358,0.014,3.5183
17:20:57:653,0.3224,2.9964,5.1535,73.453,0.241,0.2933,-0.068,3.5183
17:20:57:673,-0.1376,3.4229,4.8832,73.3011,0.126,0.1602,-0.215,3.5183
17:20:57:692,-0.3266,3.6335,5.4365,73.1118,-0.0262,0.0016,-0.347,3.5183
17:20:57:714,-0.2716,3.6622,6.4618,72.9999,-0.0379,-0.0272,-0.4088,3.5183
17:20:57:733,-0.5228,3.7364,6.8333,73.0946,0.1995,0.1027,-0.4035,3.5183
17:20:57:754,-0.5779,4.3137,6.7783,73.2169,0.4796,0.0431,-0.2236,3.5183
17:20:57:774,0.0544,5.0853,7.2329,73.1693,0.5116,-0.3627,0.0747,3.5183
17:20:57:795,1.0463,5.4012,8.3468,73.1399,0.3028,-0.679,0.1993,3.5183
17:20:57:816,1.5278,5.339,9.7316,73.1609,0.0515,-0.6385,0.0449,3.5183
17:20:57:834,1.0175,4.9466,11.4299,73.3008,-0.137,-0.4085,-0.2172,3.5183
17:20:57:855,0.0329,4.1533,12.6443,73.6036,-0.1573,-0.106,-0.4098,3.5183
17:20:57:874,-0.947,3.3105,13.3609,73.5066,-0.0507,0.0154,-0.4802,3.5183
17:20:57:895,-1.812,2.7326,13.5978,73.5953,0.1047,0.0463,-0.4003,3.5183
17:20:57:914,-2.6118,3.0371,13.2987,73.6065,0.2996,0.3615,-0.0712,3.5183
17:20:57:935,-3.0168,3.6335,12.0407,73.7231,0.5457,0.8695,0.425,3.5183
17:20:57:955,-2.8588,4.1414,10.3519,73.791,0.7415,1.155,0.8437,3.5183
17:20:57:975,-2.6788,4.611,9.5091,73.826,0.7074,0.9622,1.0044,3.5183
17:20:57:995,-3,4.4602,9.4128,73.7776,0.5808,0.5224,0.9161,3.5183
17:20:58:015,-3.5366,4.3669,8.6536,73.5137,0.5584,0.1549,0.8224,3.5183
17:20:58:080,-3.3308,4.3184,7.9639,73.4039,0.3912,-0.1646,0.816,3.5183
17:20:58:082,-2.5161,4.0959,7.8102,73.117,-0.0997,-0.3915,0.8064,3.5183
17:20:58:085,-1.5888,3.4038,8.9025,72.9686,-0.8048,-0.4767,0.7137,3.4059
17:20:58:096,-0.8321,2.4861,10.3974,72.7385,-1.3341,-0.3574,0.5891,3.2705
17:20:58:116,-0.6209,1.614,10.8263,72.6742,-1.3682,-0.0495,0.49,3.1165
17:20:58:137,-0.7388,1.1396,9.6933,72.4932,-1.0636,0.3455,0.5145,2.9478
17:20:58:157,-0.5611,1.255,8.2271,72.3313,-0.7824,0.6395,0.7158,2.7643
17:20:58:177,-0.0843,1.6164,7.2233,72.0719,-0.6205,0.6885,0.9479,2.5587
17:20:58:197,0.5264,2.0979,7.0917,72.1296,-0.4672,0.4606,1.0587,2.3229
17:20:58:218,1.1324,2.4694,7.2138,72.0841,-0.186,0.024,0.9724,2.0533
17:20:58:237,1.319,2.872,6.9912,72.1024,0.1494,-0.3499,0.6956,1.754
17:20:58:257,1.0152,3.0467,6.6939,72.0145,0.2794,-0.4341,0.3377,1.4338
17:20:58:277,0.4475,2.9462,6.6293,71.8091,0.1494,-0.2391,0.0119,1.1086
17:20:58:297,0.2219,2.5699,7.2066,71.8252,-0.071,-0.0495,-0.2385,0.7904
17:20:58:318,0.0185,2.3282,7.6953,71.912,-0.1754,0.0112,-0.4642,0.4888
17:20:58:338,-0.7842,2.2804,7.8102,71.8736,-0.1871,0.0676,-0.6815,0.2114
17:20:58:359,-1.8814,2.0453,8.3204,71.9656,-0.2616,0.1122,-0.7731,-0.0342
17:20:58:379,-2.4251,1.9065,9.1711,72.0645,-0.3351,0.0325,-0.6431,-0.2458
17:20:58:399,-2.1589,2.062,9.7292,71.7847,-0.3596,-0.1539,-0.3651,-0.4277
17:20:58:419,-0.6933,2.4287,10.6851,71.7896,-0.513,-0.4479,-0.116,-0.591
17:20:58:439,1.2018,2.7087,13.4016,71.9651,-0.8261,-0.8185,-0.0851,-0.7463
17:20:58:460,2.275,2.7643,15.8614,72.1441,-0.9028,-0.7322,-0.2831,-0.8977
17:20:58:479,1.7097,2.9677,15.1837,72.0475,-0.6258,0.0442,-0.4929,-1.0384
17:20:58:499,1.4052,2.7254,13.9023,72.0705,-0.5832,0.779,-0.543,-1.163
17:20:58:522,1.3789,1.279,14.9276,71.824,-0.9007,1.0133,-0.5696,-1.2703
17:20:58:542,0.7011,-0.1681,15.3589,71.8139,-0.7568,1.0058,-0.5526,-1.2703
17:20:58:562,0.1741,-1.1384,14.0028,71.7372,0.0153,0.7417,-0.38,-1.2703
17:20:58:581,0.277,-1.0283,11.3677,71.5665,0.8374,0.3519,-0.051,-1.2703
17:20:58:601,1.0439,-0.2064,8.7781,71.3255,1.1815,-0.0229,0.2164,-1.2703
17:20:58:627,1.5374,0.8955,7.6331,71.4172,0.8555,-0.3861,0.1312,-1.2703
17:20:58:642,1.2233,1.2335,8.4287,71.4588,0.1142,-0.5245,-0.2438,-1.2703
17:20:58:661,0.2937,0.8955,9.2979,71.4291,-0.3277,-0.1678,-0.5664,-1.2703
17:20:58:682,-0.7531,0.4929,8.656,71.4118,-0.1477,0.2529,-0.6559,-1.2703
17:20:58:702,-1.3232,0.7065,7.1157,71.6869,0.3166,0.4318,-0.4865,-1.2703
17:20:58:721,-1.2491,1.3125,5.6686,71.8773,0.6426,0.3434,-0.2374,-1.2703
17:20:58:742,-1.0116,1.9998,4.8855,71.98,0.7224,0.0975,-0.1053,-1.2703
17:20:58:762,-0.7747,2.4742,4.919,72.0247,0.6383,-0.1497,-0.1149,-1.2703
17:20:58:783,-0.5396,2.7906,4.8616,72.0712,0.4913,-0.1838,-0.1788,-1.2703
17:20:58:802,-0.6425,3.3153,4.9789,72.0401,0.2442,-0.1071,-0.2694,-1.2703
17:20:58:822,-0.7603,3.2453,5.9348,72.0305,-0.1019,-0.1688,-0.3566,-1.2703
17:20:58:842,-0.7962,3.1424,7.7384,72.427,-0.3735,-0.384,-0.3864,-1.2703
17:20:58:863,-0.7723,3.061,9.4128,72.3396,-0.4427,-0.549,-0.3513,-1.2703
17:20:58:882,-0.9637,3.0084,10.6205,72.3685,-0.3756,-0.433,-0.2395,-1.2703
17:20:58:902,-1.4094,3.0945,11.4945,72.3534,-0.2542,-0.0463,-0.0297,-1.2703
17:20:58:923,-1.6032,3.2692,11.5639,72.5109,-0.0752,0.3988,0.2867,-1.2703
17:20:58:947,-1.194,3.7579,10.9723,72.5664,0.1654,0.6449,0.6157,-1.2703
17:20:58:963,-0.5276,4.3837,10.4166,72.7951,0.3092,0.5756,0.7659,-1.2703
17:20:58:983,-0.3242,5.0638,10.6899,72.87,0.2794,0.3413,0.6775,-1.2703
17:20:59:007,-0.7029,5.2241,10.6134,72.5809,0.2463,0.2561,0.4517,-1.2703
17:20:59:023,-1.3831,4.9202,10.0935,72.4291,0.175,0.2529,0.2132,-1.2703
17:20:59:046,-1.5003,3.7771,11.2289,72.339,-0.2031,0.0123,0.0417,-1.2703
17:20:59:069,-1.2419,2.5627,13.1785,72.4313,-0.4843,-0.2413,0.0268,-1.2703
17:20:59:087,-1.3639,1.8203,13.1474,72.1526,-0.1818,-0.1933,0.0896,-1.2703
17:20:59:107,-1.9172,1.5565,11.4419,72.2529,0.2644,-0.0858,0.1088,-1.2703
17:20:59:125,-1.7665,1.1928,10.4764,72.4608,0.2229,-0.2157,0.162,-1.2703
17:20:59:149,-1.0403,0.9505,11.013,72.4695,-0.2084,-0.3095,0.2707,-1.3612
17:20:59:168,-0.801,0.4786,11.6076,72.6099,-0.4694,-0.172,0.2995,-1.4611
17:20:59:188,-1.0953,0.1029,10.8359,72.8007,-0.2627,0.0197,0.308,-1.5715
17:20:59:208,-1.1892,0.0544,9.0491,73.0486,0.175,0.1367,0.4762,-1.6927
17:20:59:231,-0.5635,0.146,7.0295,73.1094,0.5808,0.1101,0.7531,-1.8279
17:20:59:247,0.6126,0.8142,4.8497,73.2532,0.7799,-0.0442,0.9575,-1.9867
17:20:59:269,1.6283,2.1242,5.1805,73.1524,0.3614,-0.4884,0.8266,-2.1758
17:20:59:288,1.8437,1.7127,7.276,72.8885,-0.3075,-0.7738,0.425,-2.3914
17:20:59:308,0.9284,1.5159,8.8211,73.1282,-0.4417,-0.5692,0.0907,-2.6198
17:20:59:329,0.076,1.6379,8.5364,73.0994,0.0345,-0.2732,0.0172,-2.8491
17:20:59:348,-0.3314,2.3139,7.0534,73.1637,0.5606,-0.0421,0.1035,-3.0738
17:20:59:370,-0.3051,2.9414,6.3876,73.1954,0.6117,-0.0485,0.1439,-3.2962
17:20:59:388,-0.4247,3.2644,6.8118,73.3932,0.3571,-0.1891,0.0491,-3.5177
17:20:59:411,-0.4917,3.2913,7.4871,73.5225,0.1132,-0.2434,-0.0883,-3.7344
17:20:59:428,-0.6742,3.2022,8.318,73.657,-0.1115,-0.1603,-0.1937,-3.9423
17:20:59:448,-0.9589,3.0802,9.4756,73.826,-0.3213,0.0208,-0.2577,-4.1374
17:20:59:469,-1.4716,3.1926,10.3998,73.8834,-0.3799,0.1474,-0.264,-4.3171
17:20:59:488,-1.9125,3.3918,10.7186,74.2525,-0.283,0.0836,-0.2278,-4.4809
17:20:59:510,-1.8359,3.722,11.4395,74.1735,-0.2222,-0.1838,-0.1245,-4.6301
17:20:59:529,-0.8824,3.8303,12.6251,74.2665,-0.234,-0.3883,0.03,-4.7689
17:20:59:548,-0.0485,3.7316,13.4758,74.3345,-0.2308,-0.319,0.1365,-4.9037
17:20:59:570,0.548,3.6407,13.4806,74.4207,-0.2137,-0.0591,0.1535,-5.0392
17:20:59:588,0.8901,3.2453,13.1928,74.6703,-0.2329,0.1655,0.0619,-5.1785
17:20:59:612,1.0128,2.5172,13.5069,74.8829,-0.2467,0.2252,-0.0425,-5.3186
17:20:59:631,0.6772,1.9256,13.0636,74.8081,-0.0411,0.3413,-0.0574,-5.4559
17:20:59:649,0.253,1.5852,11.4371,74.7257,0.2772,0.4073,0.0268,-5.5902
17:20:59:669,0.3009,1.3795,9.3434,75.0082,0.4083,0.3583,0.1237,-5.7242
17:20:59:689,0.7681,1.3603,8.6273,75.0365,0.127,0.125,0.1557,-5.8607
17:20:59:711,1.3143,0.941,9.1184,75.0019,-0.2702,-0.0463,0.1141,-6.0008
17:20:59:730,1.5589,0.6921,9.5234,75.2272,-0.317,-0.0975,0.0214,-6.1437
17:20:59:750,1.2903,0.7663,8.9868,75.1451,-0.088,-0.0357,-0.0819,-6.2863
17:20:59:770,0.8016,1.0869,7.7767,75.1997,0.1089,0.2092,-0.133,-6.4256
17:20:59:790,0.2961,1.4991,6.8405,75.4765,0.1196,0.4648,-0.1383,-6.5592
17:20:59:811,0.0018,2.1027,6.3876,75.598,0.0387,0.663,-0.0979,-6.6853
17:20:59:832,0.0138,2.467,6.5073,75.7611,0.0068,0.6726,-0.0638,-6.805
17:20:59:852,0.0257,2.6536,6.3709,75.7919,0.1324,0.5085,-0.0989,-6.9197
17:20:59:871,-0.082,2.7954,6.0712,75.7341,0.3049,0.2486,-0.1788,-7.0275
17:20:59:892,-0.3218,2.6441,6.0784,75.7845,0.3337,-0.0378,-0.2736,-7.1253
17:20:59:913,-0.585,2.5364,6.3422,75.9272,0.2261,-0.1795,-0.2916,-7.1253
17:20:59:932,-0.9302,2.601,6.8907,76.0726,0.0632,-0.1561,-0.2033,-7.1253
17:20:59:952,-0.9948,2.8696,8.0692,75.9616,-0.0784,-0.0826,-0.0116,-7.1253
17:20:59:972,-0.813,3.32,9.2907,76.0053,-0.1008,-0.0133,0.2015,-7.1253
17:20:59:992,-0.5515,3.8566,10.1605,75.9845,0.0387,-0.0272,0.3282,-7.1253
17:21:00:015,-0.207,3.9428,10.7521,76.0589,0.2208,-0.1891,0.2963,-7.1253
17:21:00:037,0.1741,3.7986,11.2098,76.4895,0.3049,-0.3531,0.1684,-7.1253
17:21:00:082,0.0736,3.6838,11.7847,76.692,0.2197,-0.2924,-0.002,-7.2198
17:21:00:084,-0.7316,3.8231,12.5246,76.8898,0.0462,0.0485,-0.1011,-7.3119
17:21:00:093,-1.3639,3.9141,12.4409,76.8448,-0.0113,0.5256,0.0204,-7.3119
17:21:00:113,-1.3017,3.9978,12.0024,77.0523,0.0281,0.714,0.2441,-7.3119
17:21:00:133,-1.0044,3.5641,11.9761,77.1886,0.075,0.4734,0.3282,-7.4046
17:21:00:153,-1.3591,3.1735,11.7655,77.3028,0.2154,0.1133,0.2664,-7.5059
17:21:00:173,-1.9053,2.7398,10.6469,77.512,0.3891,-0.0921,0.1578,-7.6123
17:21:00:193,-2.4586,2.117,9.947,77.3925,0.2889,-0.2296,0.0768,-7.7193
17:21:00:214,-2.4921,1.4034,10.285,77.4797,-0.0422,-0.3297,0.1525,-7.8223
17:21:00:234,-1.9627,1.0128,10.8455,77.5181,-0.2691,-0.3158,0.3686,-7.9239
17:21:00:254,-1.2156,1.2239,10.7785,77.4873,-0.2201,-0.1454,0.5816,-8.0339
17:21:00:275,-0.7005,1.8945,9.6814,77.5976,0.0164,0.0943,0.7084,-8.1605
17:21:00:295,-0.5252,2.3952,8.1434,77.6136,0.2314,0.2624,0.7116,-8.3089
17:21:00:315,-0.4367,2.6489,6.7759,77.5631,0.2815,0.3157,0.6413,-8.4775
17:21:00:335,-0.3242,2.7523,6.1573,77.5787,0.1622,0.2795,0.5443,-8.6635
17:21:00:355,-0.3505,2.6824,6.256,77.729,0.026,0.2209,0.4272,-8.8629
17:21:00:376,-0.4463,2.6154,6.2608,77.7215,0.0387,0.2071,0.3272,-9.0706
17:21:00:395,-0.5444,2.6512,5.7793,77.6788,0.175,0.1644,0.2505,-9.2834
17:21:00:416,-0.7484,2.8457,5.851,77.9361,0.1995,-0.0495,0.1578,-9.4978
17:21:00:436,-0.8608,2.7039,6.9817,78.0742,0.0696,-0.3542,0.0406,-9.7104
17:21:00:456,-0.9589,2.4622,8.0189,78.313,-0.0166,-0.5213,-0.0403,-9.9156
17:21:00:477,-0.935,2.2923,8.79,78.4266,-0.0348,-0.5202,-0.0425,-10.1114
17:21:00:496,-0.947,2.467,9.4995,78.946,-0.0294,-0.3776,0.0332,-10.2979
17:21:00:517,-0.8991,3.1304,9.7125,79.1274,0.0153,-0.1614,0.1429,-10.4781
17:21:00:537,-0.3577,3.6263,9.9613,79.4377,-0.0113,-0.1337,0.1919,-10.6569
17:21:00:557,0.2411,3.0132,10.6947,79.8046,-0.1466,-0.334,0.0587,-10.8366
17:21:00:577,0.4929,2.196,11.4012,79.8877,-0.2883,-0.4841,-0.0957,-11.0135
17:21:00:597,0.7083,2.3976,12.2279,79.9122,-0.447,-0.3883,-0.1085,-11.1818
17:21:00:617,1.2329,2.9031,12.1101,80.1014,-0.5811,0.0123,-0.0638,-11.3419
17:21:00:637,1.6283,2.994,12.0646,80.2986,-0.8218,0.3786,-0.1852,-11.4966
17:21:00:658,1.7097,2.2804,13.7707,80.1586,-1.1668,0.532,-0.4013,-11.6424
17:21:00:678,1.2784,1.5111,14.6112,80.2677,-1.0306,0.5831,-0.5142,-11.7725
17:21:00:698,0.5599,0.5791,13.1019,80.2316,-0.3256,0.4169,-0.5206,-11.8844
17:21:00:718,0.5336,0.1388,11.4275,80.1571,0.274,0.1176,-0.3939,-11.9775
17:21:00:739,0.8231,0.4834,10.4501,80.1521,0.4104,-0.0847,-0.2788,-11.9775
17:21:00:758,1.1659,0.8692,9.9494,80.4798,0.1931,-0.221,-0.1884,-11.9775
17:21:00:779,0.7944,1.3005,9.2955,80.5254,-0.0624,-0.0272,-0.0947,-11.9775
17:21:00:799,0.6628,1.6714,8.2822,80.7046,-0.1764,0.3242,0.0566,-11.9775
17:21:00:820,1.0271,2.2325,7.4489,80.7799,-0.1967,0.5149,0.1876,-11.9775
17:21:00:839,1.3765,2.7954,7.3071,80.7704,-0.2052,0.418,0.1525,-11.9775
17:21:00:860,1.4722,2.994,7.7192,80.6168,-0.1104,0.1453,-0.0158,-11.9775
17:21:00:880,1.3143,2.7787,7.791,80.7756,0.1888,-0.0091,-0.1991,-11.9775
17:21:00:902,0.8064,2.8074,6.9649,80.8465,0.5968,0.125,-0.3214,-11.9775
17:21:00:922,0.1573,3.1065,5.8104,80.7249,0.7991,0.2848,-0.396,-11.9775
17:21:00:942,-0.4008,3.2812,5.2857,80.6822,0.649,0.2795,-0.4482,-11.9775
17:21:00:964,-0.5468,3.1137,5.616,80.6128,0.3507,0.1783,-0.4802,-11.9775
17:21:00:981,-0.3888,3.0897,6.2871,80.7594,0.1196,0.0549,-0.4429,-11.9775
17:21:01:001,-0.2572,3.2189,7.413,81.0124,-0.0497,-0.0943,-0.4056,-11.9775
17:21:01:022,-0.3649,3.2961,9.0299,81.1871,-0.1402,-0.3052,-0.429,-11.9775
17:21:01:041,-0.6257,3.5019,10.0935,81.4572,-0.0284,-0.3872,-0.4003,-11.9775
17:21:01:061,-0.5492,3.9356,10.3232,81.3279,0.1675,-0.1443,-0.2459,-11.9775
17:21:01:082,-0.5707,4.9346,11.0106,81.5856,0.1451,-0.0399,-0.1597,-11.9775
17:21:01:102,-0.451,4.7402,12.3021,81.9362,-0.0859,-0.2157,-0.2204,-11.9775
17:21:01:121,-0.7053,3.9691,13.7372,82.121,-0.1892,-0.2519,-0.264,-11.9775
17:21:01:143,-1.4429,4.0146,13.9334,81.9066,0.0345,0.1591,-0.0947,-11.9775
17:21:01:162,-1.5505,4.1222,12.4648,81.8479,0.3901,0.7268,0.1471,-11.9775
17:21:01:181,-1.2227,3.332,11.1571,81.6277,0.437,0.8684,0.1375,-11.9775
17:21:01:202,-1.3663,2.86,11.4682,81.2983,0.1846,0.5341,0.0246,-11.9775
17:21:01:222,-1.529,2.534,11.3533,81.5704,0.1079,0.2976,0.0289,-11.9775
17:21:01:242,-1.8191,2.2923,10.0911,81.4195,0.2676,0.3157,-0.0158,-11.9775
17:21:01:262,-1.9986,1.9089,9.0203,81.0821,0.2644,0.2071,-0.1735,-11.9775
17:21:01:283,-2.0177,1.5015,8.8642,80.9843,0.0132,-0.0581,-0.2321,-11.9775
17:21:01:303,-1.855,1.2933,8.927,81.1076,-0.2478,-0.1582,-0.1213,-11.8849
17:21:01:323,-1.879,1.3842,8.9175,81.2995,-0.3586,-0.1177,0.014,-11.7903
17:21:01:343,-1.6726,1.4489,8.4814,81.194,-0.2947,-0.0357,0.1844,-11.699
17:21:01:363,-1.1767,1.6283,7.8826,81.1448,-0.1636,0.0016,0.3952,-11.699
17:21:01:383,-0.5755,1.9448,7.4273,81.0394,-0.0561,-0.0687,0.5411,-11.699
17:21:01:403,-0.1131,2.3091,7.4034,80.9663,0.0036,-0.2168,0.5646,-11.699
17:21:01:424,0.1238,2.4263,7.0415,80.8925,0.1632,-0.237,0.5326,-11.699
17:21:01:444,0.0951,2.601,6.1956,80.8596,0.3933,-0.106,0.474,-11.699
17:21:01:464,-0.0963,2.9007,5.4461,80.9182,0.5201,-0.0293,0.4059,-11.699
17:21:01:485,-0.3458,3.1567,5.2953,80.7552,0.4391,-0.1869,0.2664,-11.699
17:21:01:504,-0.5563,3.2166,6.009,80.8453,0.1867,-0.5076,0.0854,-11.699
17:21:01:524,-0.5898,2.8911,7.547,81.1047,-0.1466,-0.8153,-0.0627,-11.699
17:21:01:545,-0.5444,2.546,9.3553,81.1793,-0.3607,-0.9005,-0.1224,-11.699
17:21:01:565,-0.6957,2.4072,10.4572,81.2034,-0.3053,-0.712,-0.0872,-11.699
17:21:01:585,-0.935,2.8672,10.4309,81.3737,-0.0433,-0.2967,0.0385,-11.699
17:21:01:605,-1.0068,3.7651,10.4453,81.3646,0.1185,-0.0431,0.1333,-11.699
17:21:01:626,-0.9039,4.0409,11.2385,81.3704,0.0515,-0.2072,0.0651,-11.699
17:21:01:645,-0.9182,3.6215,12.067,81.6314,-0.0188,-0.4746,-0.0808,-11.699
17:21:01:665,-0.6066,3.4038,12.7382,81.8327,0.0025,-0.5298,-0.0755,-11.699
17:21:01:686,0.1286,3.4971,13.2317,81.6661,0.0919,-0.3819,0.1024,-11.699
17:21:01:707,0.7753,3.8518,12.6347,81.5717,0.2751,0.0176,0.1887,-11.699
17:21:01:727,1.5254,3.8518,11.8469,81.7256,0.3443,0.3274,0.0747,-11.699
17:21:01:747,2.0357,3.3775,11.7559,81.5788,0.1664,0.3466,-0.1202,-11.699
17:21:01:766,1.6929,2.8241,11.339,81.5703,0.0025,0.4702,-0.2884,-11.699
17:21:01:786,0.9888,1.8275,9.8297,81.399,-0.0241,0.6672,-0.4493,-11.699
17:21:01:807,0.5934,0.9147,8.9701,81.0621,-0.1445,0.4915,-0.5547,-11.699
17:21:01:827,0.8566,0.7041,9.0012,80.9238,-0.4001,0.1186,-0.4652,-11.699
17:21:01:847,0.9236,1.0152,9.2022,80.8622,-0.5747,-0.0357,-0.2842,-11.699
17:21:01:868,0.7298,1.0439,8.8594,80.7675,-0.5173,0.0218,-0.1618,-11.699
17:21:01:888,0.4762,1.5565,7.5637,80.5487,-0.2276,0.2933,-0.0265,-11.699
17:21:01:908,0.5456,2.2229,6.0903,80.5715,0.027,0.4723,0.0672,-11.699
17:21:01:929,0.5695,2.8528,5.7841,80.4945,0.0004,0.2869,0.0076,-11.699
17:21:01:948,0.5862,2.9581,6.3661,80.4796,-0.1178,-0.0368,-0.1149,-11.699
17:21:01:968,0.3559,2.9653,6.7226,80.392,-0.0497,-0.1124,-0.2427,-11.699
17:21:01:988,-0.0843,3.1113,6.6676,80.4038,0.0537,0.0581,-0.3811,-11.699
17:21:02:009,-0.4367,3.0443,6.7926,80.3245,-0.0177,0.1474,-0.4706,-11.699
17:21:02:029,-0.5061,2.6273,7.3268,80.1645,-0.1786,-0.0154,-0.5281,-11.699
17:21:02:049,-0.463,2.6656,8.0644,80.1346,-0.2766,-0.1582,-0.5206,-11.699
17:21:02:091,-0.3888,3.0179,9.0873,79.9897,-0.3298,-0.2317,-0.4759,-11.699
17:21:02:092,-0.3793,3.2118,10.0696,79.8131,-0.2819,-0.1965,-0.4077,-11.6008
17:21:02:109,-0.6257,3.6431,10.072,79.5561,0.0004,0.0197,-0.2662,-11.4926
17:21:02:129,-0.7364,4.477,9.3697,79.5242,0.3475,0.2124,-0.0872,-11.3797
17:21:02:149,-0.4295,5.0279,9.2477,79.3183,0.4604,0.0889,0.0001,-11.2668
17:21:02:169,-0.207,4.8885,10.0457,79.1465,0.3262,-0.2242,-0.1224,-11.1556
17:21:02:189,-0.3242,4.3424,11.2026,79.1989,0.1366,-0.5044,-0.3608,-11.0429
17:21:02:210,-0.667,3.9236,12.0885,79.2861,0.0547,-0.5383,-0.4823,-10.9216
17:21:02:231,-0.935,3.8542,12.4959,79.2323,0.0569,-0.4224,-0.4173,-10.7863
17:21:02:250,-0.9924,3.399,12.6927,79.3074,0.0398,-0.5628,-0.3214,-10.64
17:21:02:275,-0.9111,2.4431,12.7334,79.2929,0.0611,-1.0134,-0.3193,-10.4856
17:21:02:296,-0.9876,1.8203,12.6515,79.2829,0.2282,-1.269,-0.2969,-10.3227
17:21:02:313,-1.1336,1.8562,11.9641,79.1865,0.5606,-0.909,-0.149,-10.1532
17:21:02:332,-1.1049,2.1864,9.9541,79.3434,0.8299,-0.1571,0.0491,-9.9832
17:21:02:352,-0.4654,2.479,8.6201,79.3953,0.616,0.1943,0.1812,-9.82
17:21:02:375,-0.1974,2.5172,8.6895,79.2871,-0.0145,0.1304,0.1695,-9.6682
17:21:02:395,-0.5396,1.9807,9.061,79.2459,-0.5928,0.1261,0.0907,-9.527
17:21:02:415,-1.2179,1.5924,8.8307,79.3151,-0.8037,0.419,0.0971,-9.3928
17:21:02:437,-1.4477,1.3244,8.1075,79.3473,-0.7696,0.6694,0.2558,-9.265
17:21:02:456,-1.1767,1.2598,7.2903,79.1935,-0.6844,0.7278,0.4719,-9.1491
17:21:02:476,-0.8154,1.5278,6.9338,79.1475,-0.6333,0.5256,0.6551,-9.0522
17:21:02:495,-0.3482,1.6863,7.1324,79.1647,-0.531,0.0815,0.7723,-9.0522
17:21:02:516,0.1238,2.0477,7.1515,78.7347,-0.2403,-0.1465,0.8234,-9.0522
17:21:02:536,0.4929,2.4431,6.6891,78.4377,0.11,-0.1049,0.8021,-9.0522
17:21:02:556,0.6078,2.7667,6.2076,78.2602,0.2996,-0.0474,0.6594,-9.0522
17:21:02:575,0.3775,2.9797,6.0592,77.827,0.2708,-0.1156,0.3995,-9.0522
17:21:02:597,0.2171,2.7787,6.2387,77.6875,0.127,-0.2604,0.1173,-9.0522
17:21:02:617,0.0951,2.479,6.8883,77.5817,-0.0678,-0.3435,-0.1096,-9.0522
17:21:02:638,0.0544,2.4885,8.0955,77.4537,-0.2744,-0.4011,-0.2555,-9.0522
17:21:02:658,0.2698,2.6871,9.8154,77.0292,-0.4246,-0.4117,-0.3939,-9.0522
17:21:02:677,1.0606,3.344,11.0321,77.2702,-0.3948,-0.1869,-0.5505,-9.0522
17:21:02:696,1.8269,4.2371,10.9292,77.35,-0.2638,0.3136,-0.8114,-9.0522
17:21:02:717,1.2879,3.8177,10.5392,77.3593,-0.4598,0.4766,-1.2992,-9.0522
17:21:02:736,0.0425,2.3378,12.1705,77.3378,-1.1455,-0.1337,-1.7709,-9.0522
17:21:02:758,-0.667,1.5182,14.4676,77.3723,-1.6696,-0.5746,-1.6208,-8.9407
17:21:02:777,-0.6694,1.1498,15.4977,77.3309,-1.5184,-0.3776,-1.0105,-8.7746
17:21:02:796,-0.1107,1.3196,15.253,77.2133,-0.8804,-0.0314,-0.5004,-8.5773
17:21:02:818,0.8686,1.1617,15.0018,77.2139,-0.3447,-0.09,-0.3087,-8.3679
17:21:02:836,1.3884,0.1125,14.47,77.0292,-0.0838,-0.2253,-0.2959,-8.155
17:21:02:857,0.9045,-0.3093,13.2078,76.8302,0.1547,-0.0069,-0.2332,-7.9401
17:21:02:876,0.9625,-0.4845,11.5735,76.7096,0.3923,0.2497,-0.0947,-7.726
17:21:02:896,1.051,-0.1418,10.3998,76.8329,0.4796,0.2124,-0.0755,-7.5167
17:21:02:918,1.2257,-0.6138,10.2682,76.7145,0.4072,-0.1177,-0.2353,-7.3134
17:21:02:937,0.938,-1.0116,9.6072,76.8414,0.4381,-0.1987,-0.3651,-7.111
17:21:02:957,0.3942,-0.7023,8.4,76.9032,0.5521,0.0229,-0.3427,-6.9042
17:21:02:977,-0.0652,-0.4385,6.9529,77.0412,0.6085,0.2806,-0.2481,-6.6936
17:21:02:996,-0.2309,0.0305,5.671,77.1116,0.5574,0.4872,-0.0915,-6.4815
17:21:03:020,-0.1735,0.7759,4.9238,77.2897,0.3912,0.5927,0.063,-6.2734
17:21:03:040,-0.1328,1.4871,4.7587,77.5335,0.1281,0.6076,0.1205,-6.0741
17:21:03:059,-0.1059,1.8634,4.73,77.6057,-0.0475,0.5639,0.1077,-5.8852
17:21:03:078,-0.1472,2.2851,5.0435,77.6571,-0.0891,0.3551,0.0364,-5.7068
17:21:03:097,-0.1208,2.4861,5.4269,77.8072,-0.0507,-0.025,-0.083,-5.5359
17:21:03:118,-0.0652,2.9222,6.0808,77.9286,-0.0316,-0.3084,-0.1873,-5.3676
17:21:03:139,-0.0389,3.1448,7.209,78.0469,-0.1317,-0.4383,-0.2747,-5.1981
17:21:03:159,0.5384,3.1208,8.68,78.2559,-0.2297,-0.3872,-0.3534,-5.0243
17:21:03:179,0.6413,3.6168,10.4285,78.2007,-0.2531,-0.1688,-0.4812,-4.8442
17:21:03:200,-0.6257,3.3894,12.0598,78.2777,-0.2638,-0.025,-0.658,-4.6553
17:21:03:218,-2.1613,2.7206,13.0612,78.3662,-0.1668,0.1549,-0.6719,-4.4496
17:21:03:240,-2.854,2.6847,12.8459,78.393,0.126,0.5628,-0.3587,-4.2253
17:21:03:261,-2.4921,3.2764,12.2231,78.1132,0.3284,0.8386,0.0502,-3.9913
17:21:03:279,-1.8909,3.5641,11.9737,78.3612,0.2847,0.8077,0.2622,-3.7623
17:21:03:300,-1.946,3.6646,12.4361,78.3513,0.0983,0.6363,0.2718,-3.5465
17:21:03:320,-1.7037,3.5426,12.5749,78.2297,-0.0209,0.5756,0.276,-3.3451
17:21:03:340,-1.5673,3.2961,12.3093,78.2413,-0.0795,0.5671,0.2526,-3.158
17:21:03:361,-1.6008,1.9065,12.9344,77.9515,-0.2435,0.1953,0.112,-2.9848
17:21:03:382,-1.8024,0.3494,13.5188,77.9265,-0.219,-0.2104,0.0321,-2.8209
17:21:03:401,-2.4945,-0.3236,12.259,78.0913,0.2953,-0.0389,0.1514,-2.6622
17:21:03:422,-2.933,0.0066,9.935,77.9061,0.8928,0.2454,0.3686,-2.5097
17:21:03:442,-2.7793,0.3996,8.3109,77.5913,0.9929,0.1346,0.4985,-2.3663
17:21:03:461,-2.3964,0.661,7.4584,77.5734,0.6405,-0.0421,0.5965,-2.2362
17:21:03:482,-2.1206,0.7567,6.9194,77.6992,0.1409,-0.0634,0.6668,-2.1245
17:21:03:502,-1.8909,0.6227,6.7274,77.751,-0.3213,-0.0474,0.6913,-2.1245
17:21:03:521,-1.6056,0.4546,7.0534,77.7275,-0.6354,-0.1348,0.7521,-2.1245
17:21:03:541,-1.2371,0.1412,7.8826,77.821,-0.7121,-0.4032,0.8618,-2.1245
17:21:03:569,-0.4152,-0.0317,8.5101,77.9446,-0.447,-0.6214,1.0204,-2.1245
17:21:03:582,0.21,0.6754,8.5866,78.05,0.0579,-0.615,1.1738,-2.1245
17:21:03:602,0.4642,1.6116,7.9687,78.5046,0.5318,-0.466,1.1961,-2.1245
17:21:03:622,0.682,2.1817,7.1444,78.6161,0.7682,-0.2349,1.0779,-2.2335
17:21:03:643,0.6772,2.613,6.4283,78.6192,0.7394,0.0261,0.9054,-2.3766
17:21:03:663,0.524,2.9988,5.9061,78.802,0.5233,0.2241,0.6775,-2.5482
17:21:03:682,0.1262,3.2046,6.1214,78.9617,0.2048,0.2656,0.3494,-2.7394
17:21:03:703,-0.3912,2.8361,6.8668,78.8495,-0.0635,0.1815,-0.0244,-2.9367
17:21:03:722,-0.8871,2.6847,7.4656,78.7916,-0.169,0.1314,-0.2842,-3.1261
17:21:03:743,-1.5936,2.8002,8.1577,78.8957,-0.2787,0.124,-0.4354,-3.2983
17:21:03:763,-2.3342,2.8816,9.207,78.8709,-0.5035,0.1304,-0.5132,-3.4482
17:21:03:784,-2.4012,2.4909,10.5607,78.7773,-0.76,-0.0975,-0.4738,-3.5724
17:21:03:803,-1.2969,1.5996,12.1125,78.855,-0.9497,-0.482,-0.4088,-3.6723
17:21:03:825,0.1621,0.7496,14.0842,78.8327,-1.0658,-0.8547,-0.4269,-3.6723
17:21:03:844,0.5001,0.5695,16.209,79.0414,-1.0306,-1.0134,-0.4812,-3.6723
17:21:03:864,0.4666,0.5982,15.737,79.3627,-0.5619,-0.5128,-0.3161,-3.6723
17:21:03:884,0.6317,1.0582,13.8353,79.5043,0.0089,0.1133,-0.0414,-3.6723
17:21:03:904,1.1659,1.075,13.1067,79.5406,0.159,0.1804,0.113,-3.6723
17:21:03:926,1.5781,1.2431,12.405,79.6712,0.2154,0.1847,0.3037,-3.6723
17:21:03:944,1.9872,1.6307,10.8885,79.9144,0.4434,0.386,0.408,-3.6723
17:21:03:965,2.4114,1.8108,9.5354,80.1554,0.5222,0.3519,0.211,-3.6723
17:21:03:985,2.0136,1.6959,8.927,80.251,0.1728,0.0517,-0.2491,-3.6723
17:21:04:005,0.7346,0.7184,9.2381,80.3898,-0.4076,-0.2956,-0.6762,-3.6723
17:21:04:025,-0.3673,-0.0197,9.3888,80.5678,-0.7132,-0.3244,-0.7081,-3.6723
17:21:04:045,-0.6718,-0.0724,8.9701,80.6551,-0.5726,-0.041,-0.3704,-3.6723
17:21:04:066,-0.3721,0.4307,7.9472,80.5363,-0.1679,0.2518,0.0289,-3.6723
17:21:04:150,-0.0102,1.2,7.0463,80.5837,0.1856,0.304,0.1951,-3.6723
17:21:04:152,0.1454,1.4106,6.7902,80.6234,0.3262,-0.0048,0.0971,-3.6723
17:21:04:153,0.0497,1.5206,6.3757,80.75,0.4807,-0.1827,-0.034,-3.6723
17:21:04:153,-0.1256,1.8897,5.7817,80.9241,0.6543,-0.0879,-0.117,-3.6723
17:21:04:167,-0.1974,2.3641,5.2427,80.9927,0.6394,0.0772,-0.214,-3.6723
17:21:04:186,-0.3338,2.7374,5.2618,81.0773,0.3188,0.2411,-0.3342,-3.6723
17:21:04:207,-0.463,2.9198,6.0138,81.4408,-0.2063,0.3604,-0.4312,-3.6723
17:21:04:227,-0.88,2.994,7.5422,81.7936,-0.711,0.4244,-0.4833,-3.6723
17:21:04:247,-1.2203,2.9509,9.4875,82.0544,-1.0019,0.3274,-0.4024,-3.6723
17:21:04:266,-1.206,2.68,11.2911,82.3494,-0.9156,0.1229,-0.2012,-3.6723
17:21:04:287,-1.148,2.6919,12.1777,82.2992,-0.4395,0.1218,0.0225,-3.6723
17:21:04:307,-0.99,2.8744,12.1029,82.2578,0.143,0.1559,0.1844,-3.6723
17:21:04:328,-0.6066,2.6321,12.0814,82.0884,0.4849,-0.041,0.1855,-3.6723
17:21:04:348,-0.2955,2.4766,12.6903,82.2041,0.4903,-0.2615,0.1067,-3.6723
17:21:04:368,-0.3434,2.333,13.5619,82.0869,0.2634,-0.3041,0.0704,-3.6723
17:21:04:388,-0.3386,1.8873,13.4854,82.3158,0.0345,-0.008,0.1727,-3.6723
17:21:04:409,-0.1591,2.0237,12.9177,82.2543,-0.1594,0.5383,0.3027,-3.6723
17:21:04:429,-0.5515,1.3125,12.7741,82.1662,-0.4065,0.813,0.2206,-3.6723
17:21:04:448,-1.6798,0.1531,11.866,82.098,-0.3991,0.9387,0.161,-3.6723
17:21:04:469,-2.5998,-0.0556,10.0696,82.3761,-0.0017,1.1475,0.3611,-3.6723
17:21:04:489,-2.8875,0.3613,8.3157,82.3316,0.3742,1.171,0.5656,-3.6723
17:21:04:509,-2.7942,1.1474,7.5685,82.3757,0.3848,0.7278,0.5816,-3.6723
17:21:04:529,-2.3629,1.2407,7.9663,82.1225,0.0707,-0.1028,0.4304,-3.6723
17:21:04:549,-2.0034,0.4929,9.0084,81.7409,-0.2648,-0.8004,0.2579,-3.6723
17:21:04:570,-1.6702,0.0909,9.8441,81.4724,-0.3991,-1.0358,0.2355,-3.6723
17:21:04:590,-1.3831,-0.058,10.0337,81.2068,-0.3117,-0.9186,0.3728,-3.6723
17:21:04:610,-1.1838,0.1125,9.3936,81.2708,-0.0731,-0.6086,0.621,-3.6723
17:21:04:630,-0.5635,0.5934,8.0836,81.0183,0.2112,-0.2754,0.9033,-3.771
17:21:04:650,0.1071,1.2981,7.0463,81.046,0.3699,-0.0591,1.0438,-3.8967
17:21:04:670,0.3464,2.129,7.0463,80.6678,0.2517,-0.0953,0.9682,-4.0546
17:21:04:691,0.2148,2.2205,7.276,80.6273,0.0601,-0.2072,0.7819,-4.2422
17:21:04:711,-0.1376,2.1721,7.0295,80.5742,0.1036,-0.0794,0.6349,-4.4523
17:21:04:731,-0.2166,2.5866,6.6413,80.5829,0.2815,0.0485,0.5358,-4.6797
17:21:04:752,-0.0772,2.9222,6.9147,80.8511,0.3134,-0.1411,0.3803,-4.9189
17:21:04:772,-0.0867,2.7254,7.9687,80.7893,0.1973,-0.4607,0.0981,-5.1645
17:21:04:792,-0.2572,2.2104,9.0227,80.6622,0.1366,-0.6172,-0.1735,-5.4055
17:21:04:812,-0.5659,1.7725,9.9589,80.5825,0.176,-0.5044,-0.3502,-5.6332
17:21:04:832,-1.2347,1.8347,10.6517,80.7563,0.2431,-0.1923,-0.3853,-5.8417
17:21:04:852,-1.5434,1.8873,11.0638,80.7165,0.2304,0.0453,-0.3161,-6.0306
17:21:04:872,-1.0092,1.8969,11.3007,80.8011,0.1196,0.0282,-0.2427,-6.2021
17:21:04:893,-0.1878,1.806,12.0766,80.9632,-0.1338,-0.1529,-0.3012,-6.3583
17:21:04:912,0.277,1.4752,13.4471,80.9161,-0.479,-0.3467,-0.4663,-6.4989
17:21:04:933,0.32,1.4369,14.3456,81.052,-0.629,-0.2988,-0.4993,-6.6202
17:21:04:953,0.4905,1.3771,13.8281,81.3723,-0.5269,0.0762,-0.4109,-6.7224
17:21:04:973,0.5192,0.8213,13.2365,81.4499,-0.4715,0.3221,-0.4088,-6.7224
17:21:04:993,0.3607,0.0592,13.2532,81.268,-0.4566,0.3104,-0.396,-6.7224
17:21:05:013,0.076,-0.4026,12.4863,81.3909,-0.1924,0.402,-0.215,-6.7224
17:21:05:033,0.1597,-0.53,10.666,81.5134,0.2772,0.4904,0.0459,-6.7224
17:21:05:054,0.8447,0.189,9.1424,81.2489,0.6085,0.3359,0.2238,-6.7224
17:21:05:074,1.3597,0.9362,8.735,81.125,0.4956,-0.0953,0.1535,-6.7224
17:21:05:094,0.9428,0.8022,8.6847,80.6316,0.1387,-0.3553,-0.084,-6.7224
17:21:05:115,0.1167,0.6443,8.208,80.2315,-0.039,-0.1816,-0.1458,-6.7224
17:21:05:134,-0.0126,0.8668,7.3484,80.0941,0.0345,0.1144,0.0332,-6.7224
17:21:05:155,0.3488,1.4584,6.5743,79.9627,0.1664,0.2049,0.2047,-6.7224
17:21:05:176,0.5073,2.0381,6.256,79.6093,0.2005,0.1367,0.1589,-6.8139
17:21:05:195,0.3679,2.1362,6.481,79.4229,0.1462,-0.0272,-0.0467,-6.9102
17:21:05:216,0.2818,1.8849,6.6437,79.6159,0.1803,-0.1859,-0.2087,-7.0032
17:21:05:235,0.143,2.1793,6.8979,79.1412,0.2634,-0.1816,-0.3065,-7.0032
17:21:05:255,-0.1878,2.2899,7.401,79.2262,0.208,-0.0559,-0.4525,-7.0032
17:21:05:275,-0.8895,2.0859,7.6307,79.3715,0.075,0.2028,-0.5451,-7.0032
17:21:05:296,-1.5577,2.0094,7.2544,79.3773,0.0334,0.5021,-0.4173,-7.0032
17:21:05:316,-1.3184,2.5507,7.2042,79.415,0.043,0.5767,-0.1447,-7.0032
17:21:05:337,-0.7866,3.1854,8.1242,79.2327,-0.023,0.3679,0.0332,-7.0032
17:21:05:357,-0.597,3.4325,9.9398,79.0267,-0.071,0.0921,0.0236,-7.0032
17:21:05:376,-1.069,3.4684,11.0225,78.6632,0.1281,0.0186,-0.0372,-7.0032
17:21:05:397,-1.4692,3.5617,10.8766,79.057,0.4999,0.1453,0.0172,-7.0032
17:21:05:417,-1.1838,3.6742,10.8622,78.9535,0.6469,0.1591,0.096,-7.0032
17:21:05:437,-0.8871,4.0481,12.1825,78.5672,0.3923,-0.1316,0.0566,-7.0032
17:21:05:457,-0.5468,3.789,13.8449,78.4533,0.0313,-0.4884,0.03,-7.0032
17:21:05:477,-0.3194,3.0897,14.6734,78.2303,0.0111,-0.4724,0.1525,-7.0032
17:21:05:497,-0.4199,2.6536,14.4269,78.1917,0.3561,-0.1486,0.2792,-7.0032
17:21:05:518,-0.8967,2.6082,13.0014,77.9447,0.7831,0.2507,0.3835,-7.0032
17:21:05:538,-1.541,2.6991,10.7067,77.8781,1.0845,0.6491,0.5092,-7.0032
17:21:05:559,-1.9484,3.2309,8.601,77.4843,1.0611,0.8546,0.571,-7.0032
17:21:05:579,-1.8885,3.4325,7.4441,77.28,0.6011,0.5767,0.4687,-7.0032
17:21:05:599,-1.5147,2.8816,7.6451,77.1455,-0.12,-0.0165,0.2164,-7.1044
17:21:05:619,-1.1695,1.8778,8.5603,76.8631,-0.7302,-0.5138,-0.0095,-7.2086
17:21:05:642,-1.2227,1.2622,9.3434,76.7404,-1.0093,-0.6044,-0.0723,-7.3105
17:21:05:659,-1.5123,1.0654,8.994,76.7676,-0.9241,-0.1827,0.0491,-7.4089
17:21:05:683,-1.2634,1.3316,7.6427,76.5781,-0.6248,0.2795,0.3154,-7.5074
17:21:05:703,-0.6766,1.5757,6.7926,76.4737,-0.3703,0.2955,0.555,-7.6145
17:21:05:724,-0.015,1.7749,6.6174,76.3451,-0.1285,-0.0485,0.6477,-7.7386
17:21:05:740,0.2124,2.3234,6.5288,76.2939,0.1547,-0.2679,0.5923,-7.8826
17:21:05:761,0.2626,2.601,6.5169,76.1226,0.3347,-0.3041,0.4282,-8.0442
17:21:05:785,0.0712,2.6919,6.3589,75.858,0.3795,-0.1784,0.2206,-8.2172
17:21:05:805,-0.3386,2.5244,6.5097,75.4268,0.2708,-0.0719,0.0236,-8.3933
17:21:05:826,-0.6885,2.208,7.1372,75.2087,0.0897,-0.1411,-0.1288,-8.5653
17:21:05:846,-0.7866,1.7797,8.4861,75.2178,-0.055,-0.3723,-0.2012,-8.7273
17:21:05:864,-0.8034,1.5494,9.4439,75.1992,-0.0497,-0.482,-0.2023,-8.8777
17:21:05:886,-0.856,1.8634,9.7747,74.9711,0.01,-0.3126,-0.1107,-9.0176
17:21:05:903,-1.0762,2.479,9.9589,74.7815,-0.0337,-0.0719,-0.0105,-9.1492
17:21:05:921,-1.3807,2.7715,10.2371,74.6438,-0.1668,-0.0069,0.0225,-9.278
17:21:05:942,-0.9661,2.9031,10.7833,74.7029,-0.3852,-0.1358,0.0651,-9.4036
17:21:05:966,-0.1543,2.6728,12.4505,74.9855,-0.7078,-0.4682,0.031,-9.5274
17:21:05:984,0.3559,2.2032,14.2134,74.9363,-0.8772,-0.7461,-0.0968,-9.6501
17:21:06:002,0.7968,1.739,14.2834,74.6544,-0.6929,-0.5746,-0.1405,-9.7684
17:21:06:026,1.2712,1.4728,13.8305,74.5568,-0.4768,-0.1784,-0.1788,-9.881
17:21:06:046,0.9888,0.7232,13.8712,74.6231,-0.5035,0.1314,-0.3332,-9.9882
17:21:06:062,-0.1998,-0.0508,13.2844,74.5102,-0.4768,0.4893,-0.3619,-10.0861
17:21:06:085,-0.9494,-0.1753,11.3462,74.6242,-0.1274,0.8684,-0.0457,-10.0861
17:21:06:105,-0.0317,0.39,9.6168,74.3783,0.2453,0.7003,0.409,-10.0861
17:21:06:169,1.5206,1.6355,9.1974,74.2048,0.2889,0.0889,0.5539,-10.1881
17:21:06:170,1.6881,2.1147,8.8307,74.0444,0.0654,-0.1678,0.2718,-10.3092
17:21:06:172,0.6389,1.8634,8.1338,74.0544,-0.1168,0.074,-0.0798,-10.4411
17:21:06:183,-0.0437,1.7342,7.3699,74.0099,-0.1136,0.2561,-0.1639,-10.5699
17:21:06:203,0.1836,1.7964,6.7609,73.9191,0.0068,0.1676,-0.0627,-10.6911
17:21:06:223,0.5719,1.8323,7.2257,73.9873,0.0622,-0.0879,-0.0617,-10.8089
17:21:06:243,0.6628,1.7174,7.6307,73.9566,0.1611,-0.1752,-0.1852,-10.923
17:21:06:264,0.2602,1.7844,7.3603,74.3722,0.3838,-0.0378,-0.3097,-11.0307
17:21:06:283,-0.1328,1.9735,6.3206,74.302,0.5446,0.1889,-0.3289,-11.1271
17:21:06:304,-0.1831,2.3378,5.8319,74.2584,0.4317,0.3093,-0.2587,-11.1271
17:21:06:324,-0.0173,2.534,6.3302,74.0961,0.1132,0.2486,-0.2236,-11.1271
17:21:06:346,-0.015,2.5651,7.456,73.9426,-0.1977,0.1176,-0.247,-11.1271
17:21:06:364,-0.1639,2.6369,8.9462,73.8582,-0.3586,-0.0357,-0.247,-11.1271
17:21:06:386,-0.1472,2.7015,10.2347,73.6842,-0.2861,-0.1997,-0.1799,-11.1271
17:21:06:405,-0.262,3.0156,11.4491,73.5068,-0.0529,-0.3158,-0.0744,-11.1271
17:21:06:425,-0.25,3.0467,12.0957,73.0541,0.2453,-0.318,0.0385,-11.1271
17:21:06:446,0.0664,2.9964,11.9378,73.0067,0.502,-0.1827,0.1397,-11.1271
17:21:06:465,0.1143,3.4086,12.1657,72.9666,0.4924,-0.0304,0.1471,-11.1271
17:21:06:485,-0.2453,3.545,13.0804,73.0017,0.241,0.0442,0.08,-11.1271
17:21:06:506,-0.5324,3.5689,13.3561,72.9412,0.0739,0.3114,0.08,-11.1271
17:21:06:526,-0.5707,3.0802,13.0325,72.9529,0.0142,0.5565,0.079,-11.1271
17:21:06:546,-0.8919,2.0907,12.7908,72.957,-0.0465,0.5351,-0.0137,-11.1271
17:21:06:566,-1.5912,1.2718,12.4146,72.7459,0.0068,0.4073,-0.0723,-11.1271
17:21:06:586,-1.867,0.9194,11.3486,72.8227,0.2783,0.3264,0.0246,-11.1271
17:21:06:607,-1.6295,1.2407,9.7531,72.6856,0.5883,0.2891,0.21,-11.1271
17:21:06:627,-0.9494,1.7581,8.2678,72.6032,0.6469,0.2103,0.3314,-11.1271
17:21:06:648,-0.5468,2.196,7.4512,72.713,0.3784,0.0602,0.3016,-11.2192
17:21:06:668,-0.6114,2.0189,7.2688,72.7851,-0.0475,-0.0943,0.1631,-11.3188
17:21:06:687,-0.9637,1.6714,7.1228,72.4997,-0.3117,-0.0602,0.0726,-11.4216
17:21:06:707,-1.2514,1.6283,6.8812,72.3145,-0.3714,-0.0613,0.1024,-11.5244
17:21:06:728,-1.206,1.5637,6.9458,72.0907,-0.3565,-0.2338,0.1897,-11.6277
17:21:06:748,-0.7819,1.3699,7.3771,71.7126,-0.316,-0.5033,0.2867,-11.7344
17:21:06:768,-0.1783,1.3507,7.7719,71.4617,-0.1818,-0.5863,0.4005,-11.8478
17:21:06:788,0.131,1.8108,7.6546,71.2089,0.0515,-0.3712,0.4549,-11.973
17:21:06:808,-0.0508,2.5029,7.0534,70.9177,0.2527,-0.1113,0.4208,-12.1121
17:21:06:828,-0.2333,2.8481,6.5264,70.7429,0.3188,0.0314,0.3091,-12.2631
17:21:06:848,-0.4032,3.0012,6.7298,70.5396,0.2399,-0.0847,0.1514,-12.4198
17:21:06:869,-0.4893,2.8193,7.6259,70.4992,0.1345,-0.3329,0.0119,-12.5772
17:21:06:889,-0.5157,2.8911,8.8953,70.6586,0.1281,-0.5023,-0.0659,-12.7301
17:21:06:909,-0.396,3.0634,9.8967,70.7919,0.2005,-0.4916,-0.1096,-12.8751
17:21:06:929,-0.3266,3.4923,10.6756,70.9082,0.241,-0.3553,-0.1373,-13.0121
17:21:06:949,-0.0891,3.2596,11.8851,70.8578,0.1409,-0.433,-0.1842,-13.1403
17:21:06:969,0.1621,2.4431,13.5117,71.0273,-0.0838,-0.664,-0.247,-13.2586
17:21:06:990,0.3751,2.1505,15.1167,70.8742,-0.2595,-0.6225,-0.2236,-13.3658
17:21:07:010,0.5815,2.0142,15.9218,71.0943,-0.1615,-0.2636,-0.0798,-13.4645
17:21:07:030,0.8901,2.141,14.3121,71.1244,0.3039,0.3264,0.0832,-13.5596
17:21:07:051,1.1994,2.4503,12.865,70.9376,0.6064,0.4798,0.0555,-13.6585
17:21:07:071,1.1563,1.7653,12.6586,70.9804,0.5648,0.2145,-0.1405,-13.7622
17:21:07:091,0.6939,1.3795,11.799,70.7378,0.6852,0.2795,-0.2289,-13.8618
17:21:07:112,0.481,1.3316,9.3912,71.0195,0.9375,0.5415,-0.182,-13.9542
17:21:07:131,0.6245,1.794,7.3364,70.8329,0.7905,0.6694,-0.1021,-13.9542
17:21:07:152,1.252,2.4,6.8142,70.8619,0.1206,0.6182,-0.0361,-13.9542
17:21:07:172,1.3071,2.601,7.2879,70.6065,-0.6067,0.6023,-0.117,-13.9542
17:21:07:192,0.8183,2.2804,8.2463,70.3409,-0.9646,0.5841,-0.314,-14.0449
17:21:07:212,0.4953,2.0764,8.2511,70.2302,-0.8261,0.5469,-0.4067,-14.0449
17:21:07:232,0.4283,2.3043,8.0692,70.1215,-0.4885,0.435,-0.396,-14.0449
17:21:07:252,0.591,2.1888,8.0333,70.0866,-0.1146,0.0847,-0.4088,-14.0449
17:21:07:272,0.8638,2.2397,7.9567,69.8689,0.3369,-0.2136,-0.4471,-14.0449
17:21:07:293,0.4475,2.6608,6.682,69.6179,0.716,-0.0218,-0.5057,-14.0449
17:21:07:313,-0.3099,3.0347,5.3049,69.6101,0.7458,0.3945,-0.5558,-14.0449
17:21:07:332,-0.88,3.2237,4.5715,69.7996,0.4977,0.598,-0.5366,-14.0449
17:21:07:353,-1.0738,3.4732,4.7587,69.9217,0.2176,0.4041,-0.4588,-14.0449
17:21:07:373,-0.8704,3.4588,5.8678,70.0771,-0.0198,-0.0815,-0.4258,-14.0449
17:21:07:393,-0.5946,3.5139,7.5182,69.9287,-0.1881,-0.4618,-0.4098,-14.0449
17:21:07:413,-0.5731,3.7101,9.3817,70.0649,-0.2403,-0.5767,-0.3832,-14.0449
17:21:07:434,-1.0331,3.8327,11.0201,69.9849,-0.1019,-0.5714,-0.3491,-14.0449
17:21:07:454,-1.2538,4.1031,11.2959,70.3358,0.2261,-0.4447,-0.1927,-13.9447
17:21:07:474,-0.8393,4.5583,11.2552,70.34,0.4402,-0.1369,0.0587,-13.84
17:21:07:494,-0.4534,4.8694,11.6818,70.4087,0.3646,0.0538,0.1471,-13.7401
17:21:07:514,-0.3912,4.8503,12.6688,70.2263,0.1324,0.0698,0.0822,-13.6494
17:21:07:535,-0.5874,4.7593,12.7717,70.2723,0.0398,0.2252,0.015,-13.6494
17:21:07:559,-1.1695,4.1964,12.4074,70.2014,0.0281,0.3051,-0.1043,-13.6494
17:21:07:575,-2.1015,3.3535,12.472,70.3731,-0.0593,0.1506,-0.2214,-13.6494
17:21:07:595,-2.8038,2.3952,11.8947,70.3676,-0.0113,0.1027,-0.1362,-13.5592
17:21:07:615,-3.1436,2.2253,10.4955,70.1915,0.2421,0.2582,0.0875,-13.4661
17:21:07:635,-2.6979,2.3498,9.3912,70.0558,0.3731,0.1378,0.2686,-13.3757
17:21:07:656,-1.7085,2.546,9.2692,70.0556,0.2399,-0.22,0.3643,-13.3757
17:21:07:676,-0.8225,2.7422,9.0586,70.2925,0.0526,-0.302,0.3707,-13.3757
17:21:07:696,-0.6066,2.7978,8.4574,70.3248,-0.1178,-0.0399,0.2505,-13.3757
17:21:07:716,-0.8919,2.4646,7.8706,70.6075,-0.3128,0.2326,0.0896,-13.3757
17:21:07:736,-1.4572,2.1601,7.2616,70.3937,-0.4012,0.353,0.0332,-13.3757
17:21:07:756,-1.4788,2.0931,6.6915,70.2921,-0.2808,0.2486,0.1205,-13.3757
17:21:07:776,-1.0235,2.3761,6.5001,70.2338,-0.071,0.0005,0.2334,-13.3757
17:21:07:797,-0.7292,2.6441,6.6006,70.1755,0.094,-0.2274,0.276,-13.3757
17:21:07:817,-0.7699,2.7111,6.6221,69.9019,0.2154,-0.3041,0.2462,-13.3757
17:21:07:837,-1.1216,2.8983,6.548,69.8824,0.2836,-0.253,0.2089,-13.3757
17:21:07:857,-1.4955,2.9151,6.3015,69.8489,0.2772,-0.1838,0.2132,-13.3757
17:21:07:877,-1.6726,3.0036,6.4379,69.4894,0.1824,-0.1891,0.2526,-13.3757
17:21:07:897,-1.4883,3.0826,7.346,69.4821,0.0387,-0.2754,0.2899,-13.3757
17:21:07:918,-1.4644,3.3727,8.0931,69.6195,-0.0411,-0.2423,0.3059,-13.3757
17:21:07:939,-1.3663,3.6598,8.7206,69.4748,-0.0635,-0.0751,0.292,-13.3757
17:21:07:958,-1.4022,4.1988,9.0634,69.4858,-0.0593,0.1176,0.243,-13.3757
17:21:07:978,-1.6128,4.6421,9.4008,69.4006,-0.0997,0.0581,0.112,-13.3757
17:21:07:998,-1.6008,4.5344,10.7689,69.2316,-0.2393,-0.4192,-0.1085,-13.3757
17:21:08:019,-1.6223,4.0385,12.4768,69.0743,-0.3682,-0.8398,-0.3108,-13.3757
17:21:08:038,-1.2969,3.3368,13.8855,69.2993,-0.3522,-0.9186,-0.3246,-13.3757
17:21:08:059,-0.6497,3.0514,14.6064,69.2662,-0.1242,-0.7301,-0.0925,-13.3757
17:21:08:079,0.2626,3.006,13.8257,69.1657,0.1931,-0.3808,0.2206,-13.3757
17:21:08:099,1.1946,2.6752,13.1856,69.2394,0.2985,-0.1699,0.3229,-13.3757
17:21:08:197,1.4818,2.0572,12.539,69.2048,0.2367,0.0229,0.2643,-13.3757
17:21:08:197,1.2425,1.806,11.3892,69.483,0.2218,0.2742,0.2718,-13.3757
17:21:08:198,1.6187,1.6379,9.7196,69.5748,0.2644,0.4222,0.3547,-13.3757
17:21:08:199,2.0907,2.0955,8.5986,69.5312,0.1941,0.3317,0.3643,-13.4668
17:21:08:200,2.2558,2.6154,8.1218,69.1066,-0.0603,0.124,0.211,-13.5745
17:21:08:221,1.6714,2.8481,8.0357,68.8041,-0.3543,0.0559,-0.034,-13.6919
17:21:08:240,0.9769,2.6512,8.0166,68.6202,-0.5003,0.125,-0.2246,-13.809
17:21:08:260,0.344,2.6728,7.5661,68.3767,-0.3969,0.2955,-0.2831,-13.9183
17:21:08:281,0.344,2.9294,7.2449,67.7819,-0.2276,0.3232,-0.2747,-14.0153
17:21:08:301,0.5599,2.9414,7.6666,67.4569,-0.1828,0.1272,-0.3182,-14.0153
17:21:08:320,0.4546,2.7254,8.1003,67.2627,-0.1328,-0.0304,-0.4194,-14.0153
17:21:08:340,-0.0221,2.6369,7.7384,67.2143,0.0993,0.0964,-0.5047,-14.0153
17:21:08:361,-0.4822,2.7326,6.7681,67.1363,0.3752,0.3189,-0.5206,-14.0153
17:21:08:381,-0.7172,2.7906,5.8439,66.9677,0.4849,0.3754,-0.4674,-14.0153
17:21:08:401,-0.9398,3.1639,5.5394,66.8568,0.4008,0.2369,-0.3949,-14.0153
17:21:08:421,-0.6353,3.5019,6.0592,66.7239,0.2048,-0.0133,-0.3257,-14.0153
17:21:08:441,-0.4128,3.6981,7.0295,66.8687,0.0047,-0.2008,-0.3033,-14.0153
17:21:08:461,-0.5324,3.9236,8.1266,66.9108,-0.1232,-0.2509,-0.2959,-14.0153
17:21:08:481,-0.4606,4.41,9.2142,66.8936,-0.1519,-0.2328,-0.2129,-14.0153
17:21:08:501,-0.1472,4.8987,10.4572,66.7401,-0.1594,-0.2551,-0.1586,-14.0153
17:21:08:523,0.277,4.8598,11.9665,66.6675,-0.2095,-0.3723,-0.2587,-14.0153
17:21:08:542,0.4187,4.0744,12.7669,66.7389,-0.1892,-0.2722,-0.4429,-14.0153
17:21:08:564,-0.3266,3.6335,12.9057,66.697,-0.0635,0.1367,-0.5302,-14.0153
17:21:08:583,-1.8024,4.0505,12.283,66.5655,0.1153,0.6055,-0.3619,-13.9178
17:21:08:603,-2.3701,4.611,10.6708,66.4518,0.2463,0.9068,-0.0414,-13.8104
17:21:08:623,-2.2959,4.4291,9.9733,66.4577,0.1238,0.6086,0.0779,-13.7014
17:21:08:643,-2.123,3.5067,11.1547,66.3954,-0.1509,-0.1411,-0.0489,-13.5951
17:21:08:663,-2.0417,2.9103,12.216,66.3982,-0.1732,-0.5607,-0.0798,-13.4887
17:21:08:684,-1.7426,2.3115,11.5496,66.1937,0.1451,-0.4682,0.0566,-13.3809
17:21:08:703,-1.4572,1.9878,9.947,66.1536,0.3827,-0.1763,0.1216,-13.2765
17:21:08:724,-1.0092,1.9065,9.4511,65.9884,0.1579,-0.1667,0.1333,-13.1775
17:21:08:744,-0.9374,1.7151,9.3003,66.0055,-0.2435,-0.1656,0.1961,-13.0843
17:21:08:764,-1.4979,2.0261,8.7111,66.0013,-0.4236,0.1122,0.308,-13.0843
17:21:08:784,-1.4764,2.3761,7.4871,65.7217,-0.333,0.386,0.5039,-13.0843
17:21:08:805,-0.7388,2.7739,6.1645,65.651,-0.1487,0.4212,0.6764,-13.0843
17:21:08:825,-0.0796,3.274,5.3456,65.5584,-0.0806,0.1911,0.6359,-13.0843
17:21:08:848,0.198,3.1711,5.6495,65.4678,-0.1871,-0.2881,0.3728,-13.0843
17:21:08:868,-0.2189,2.7398,6.5551,65.367,-0.2585,-0.6129,0.0768,-13.0843
17:21:08:885,-0.7986,2.412,6.8213,65.2059,-0.1274,-0.5149,-0.0276,-13.0843
17:21:08:905,-1.2778,2.4191,6.2943,65.0957,0.0823,-0.1838,0.1024,-13.0843
17:21:08:929,-1.2227,2.7978,6.3709,65.0957,0.0812,-0.0613,0.2782,-13.0843
17:21:08:946,-0.7579,2.6776,7.7169,65.0678,-0.0987,-0.3084,0.3451,-13.0843
17:21:08:969,-0.3099,2.6441,9.3529,64.8756,-0.1668,-0.5405,0.3345,-13.0843
17:21:08:986,-0.1543,3.0467,10.6469,64.6938,-0.0124,-0.4149,0.3154,-13.0843
17:21:09:009,-0.4343,3.4397,10.7665,64.7281,0.2847,-0.0676,0.2995,-13.0843
17:21:09:028,-0.6353,3.7053,10.273,64.7296,0.5382,0.2316,0.2899,-13.0843
17:21:09:050,-0.5827,3.9787,10.0768,64.7666,0.5158,0.2976,0.2196,-13.0843
17:21:09:067,-0.0508,4.1438,11.013,64.8429,0.1622,0.0708,0.0406,-13.0843
17:21:09:089,0.4762,3.6861,13.1163,64.7677,-0.3405,-0.2445,-0.1916,-13.0843
17:21:09:108,0.9936,2.8313,14.4772,64.7064,-0.5248,-0.1752,-0.2182,-13.0843
17:21:09:129,1.5206,2.6895,14.3169,64.7476,-0.2446,0.2497,-0.0372,-13.0843
17:21:09:150,2.1123,2.6082,13.3226,64.8822,0.1569,0.4787,0.0417,-13.0843
17:21:09:170,2.1266,2.4335,12.3476,64.7693,0.3923,0.4052,-0.051,-13.0843
17:21:09:192,1.7791,2.3282,10.9579,64.7251,0.519,0.337,-0.1256,-13.0843
17:21:09:212,1.7097,1.7438,9.6335,64.5587,0.4881,0.1325,-0.2214,-13.0843
17:21:09:230,1.7982,1.3675,9.588,64.5585,0.2336,-0.1976,-0.3278,-13.0843
17:21:09:251,1.5111,1.5422,9.6503,64.3756,-0.0731,-0.2626,-0.3236,-13.0843
17:21:09:272,0.8495,1.9496,8.7829,64.2191,-0.2563,0.0794,-0.2555,-13.0843
17:21:09:293,0.3224,2.2875,7.6738,64.0509,-0.3682,0.3604,-0.2087,-13.0843
17:21:09:313,0.3344,2.6034,7.1204,64.1476,-0.4374,0.3104,-0.1618,-13.0843
17:21:09:331,0.4881,3.0299,7.0391,64.1856,-0.4065,0.1442,-0.1277,-13.0843
17:21:09:351,0.8758,3.2764,7.3508,63.9704,-0.2702,0.0602,-0.1501,-13.0843
17:21:09:372,0.8877,3.3535,7.3579,63.9153,0.0111,0.0953,-0.2342,-13.0843
17:21:09:391,0.2554,3.5043,6.6915,63.8362,0.3976,0.1975,-0.347,-13.0843
17:21:09:412,-0.4128,3.6981,5.9946,63.811,0.6628,0.1357,-0.4365,-13.0843
17:21:09:431,-0.6933,3.7962,5.4485,63.7675,0.7298,-0.0123,-0.4674,-13.0843
17:21:09:452,-0.8512,3.9787,5.2211,63.9169,0.5915,-0.0826,-0.4503,-13.0843
17:21:09:471,-0.7125,4.1438,5.659,63.7355,0.2549,-0.139,-0.3981,-12.9722
17:21:09:492,-0.4917,4.0074,6.9506,63.7142,-0.169,-0.2764,-0.3523,-12.8437
17:21:09:513,-0.25,3.8255,8.5436,63.8993,-0.4236,-0.2402,-0.2736,-12.7026
17:21:09:531,-0.25,3.9954,9.679,63.9988,-0.3554,0.0282,-0.1682,-12.5532
17:21:09:552,-0.4463,4.5655,9.8249,63.8985,-0.0529,0.2603,-0.0872,-12.4001
17:21:09:573,-0.3123,4.8646,9.9398,63.7894,0.1654,0.1431,-0.0734,-12.2459
17:21:09:593,-0.0939,4.8215,10.5512,63.9146,0.1664,-0.1411,-0.1565,-12.0899
17:21:09:612,-0.4319,4.6469,12.1346,63.93,0.0515,-0.3776,-0.3044,-11.9298
17:21:09:632,-1.1169,4.6038,12.9607,63.6277,0.0929,-0.2285,-0.2916,-11.7612
17:21:09:652,-1.4788,4.4889,12.1777,63.4123,0.2336,0.223,-0.083,-11.5825
17:21:09:674,-1.4955,4.0457,11.8062,63.3367,0.1238,0.4478,0.0683,-11.402
17:21:09:692,-1.7109,3.5306,12.2997,63.5355,-0.1466,0.4201,0.162,-11.2252
17:21:09:714,-2.3127,3.3464,11.9545,63.3358,-0.104,0.4904,0.2696,-11.0557
17:21:09:733,-2.3797,3.0179,10.2873,63.2467,0.2293,0.5288,0.2952,-10.8968
17:21:09:752,-2.4658,2.6943,9.0897,63.1151,0.3358,0.1889,0.1375,-10.748
17:21:09:774,-2.0991,1.9424,9.0347,62.865,0.0929,-0.3947,-0.0308,-10.6013
17:21:09:793,-1.5386,1.5063,9.4199,62.9842,-0.2425,-0.6907,-0.0574,-10.4512
17:21:09:814,-1.2897,1.3364,9.4319,63.0477,-0.4875,-0.5245,0.015,-10.2995
17:21:09:834,-1.2299,1.5254,8.6536,62.8654,-0.5363,-0.0953,0.2217,-10.1516
17:21:09:856,-0.9254,2.1505,7.2497,62.5457,-0.4172,0.3146,0.474,-10.015
17:21:09:874,-0.5157,2.7063,6.0592,62.6247,-0.3011,0.4222,0.6019,-9.899
17:21:09:895,-0.2859,3.3009,5.7553,62.7406,-0.2755,0.2422,0.5614,-9.8056
17:21:09:916,-0.2213,3.5234,6.4427,62.564,-0.3298,-0.1156,0.3824,-9.8056
17:21:09:934,-0.4798,3.1663,7.0343,62.455,-0.2957,-0.2913,0.1514,-9.8056
17:21:09:956,-0.9637,2.6776,7.1755,62.3152,-0.1168,-0.2956,-0.0084,-9.8056
17:21:09:975,-1.4429,2.3569,7.2353,62.0967,0.0771,-0.3041,-0.0457,-9.8056
17:21:09:995,-1.6726,2.4431,7.5135,62.1867,0.1632,-0.3616,0.0459,-9.8056
17:21:10:015,-1.3161,2.5053,8.0118,62.1144,0.1345,-0.4266,0.2079,-9.8056
17:21:10:035,-0.8728,2.8146,8.467,62.0592,0.0823,-0.3467,0.3505,-9.8056
17:21:10:055,-0.6233,3.2357,8.7948,62.1142,0.0515,-0.1901,0.4261,-9.8056
17:21:10:076,-0.9159,4.005,8.9964,62.3073,0.0494,-0.0442,0.4389,-9.8056
17:21:10:097,-1.0211,4.5535,9.0945,62.7609,-0.0081,-0.0282,0.4218,-9.8056
17:21:10:115,-0.5396,4.7952,10.06,62.8126,-0.235,-0.2487,0.2888,-9.8056
17:21:10:197,0.1765,4.2084,12.122,63.1791,-0.6162,-0.6086,-0.019,-9.8056
17:21:10:197,0.2506,3.6838,14.6686,63.1034,-0.9433,-0.8068,-0.3491,-9.8056
17:21:10:198,0.052,2.6249,15.7777,63.3106,-0.89,-0.5479,-0.4674,-9.8056
17:21:10:198,-0.2859,1.9352,15.0186,63.491,-0.4694,-0.0123,-0.3427,-9.8056
17:21:10:216,0.0879,1.5254,14.2881,63.4351,-0.0891,0.3019,-0.1075,-9.8056
17:21:10:236,0.6413,1.5661,13.8233,63.4686,0.1707,0.4169,0.1684,-9.8056
17:21:10:257,1.0032,1.7246,12.1196,63.1853,0.4913,0.614,0.375,-9.8056
17:21:10:277,1.2233,1.5948,9.993,63.3257,0.7053,0.6353,0.3441,-9.8056
17:21:10:297,1.7073,1.5039,9.2907,63.3711,0.5414,0.1676,0.1471,-9.8056
17:21:10:317,2.1003,1.3292,9.4564,63.6883,0.1579,-0.3041,-0.0627,-9.8056
17:21:10:337,1.8748,1.3484,9.4176,63.7479,-0.1253,-0.3084,-0.2342,-9.8056
17:21:10:357,1.1635,1.3244,8.8283,63.8144,-0.1945,-0.0165,-0.3449,-9.8056
17:21:10:378,0.6676,1.5087,7.6475,64.1291,-0.0965,0.2582,-0.3342,-9.8056
17:21:10:398,0.4738,1.9376,6.402,64.3423,0.059,0.3413,-0.2863,-9.8056
17:21:10:419,0.3823,2.3737,5.6399,64.6858,0.1792,0.2603,-0.3097,-9.7128
17:21:10:438,0.1525,2.5316,5.144,64.8533,0.2953,0.1293,-0.3853,-9.6086
17:21:10:458,-0.14,2.7595,4.6074,65.0224,0.4445,0.0826,-0.4077,-9.4892
17:21:10:479,-0.2883,3.0634,4.2341,64.7255,0.5212,0.0698,-0.3779,-9.3541
17:21:10:499,-0.2907,3.3918,4.0899,64.8718,0.4232,0.0431,-0.364,-9.2042
17:21:10:519,-0.3027,3.4899,4.7539,64.9943,0.0908,-0.1273,-0.4184,-9.0407
17:21:10:539,-0.3505,3.3559,6.3661,65.0178,-0.3692,-0.4181,-0.4588,-8.8624
17:21:10:559,-0.4008,3.2961,8.4838,64.985,-0.694,-0.5298,-0.3917,-8.6693
17:21:10:583,-0.5683,3.4421,10.4094,65.0187,-0.7206,-0.4128,-0.2651,-8.4653
17:21:10:601,-0.4606,3.6359,11.6937,65.0468,-0.4513,-0.2828,-0.1181,-8.2564
17:21:10:620,-0.1998,4.1103,12.4959,65.3437,-0.0582,-0.1891,-0.0031,-8.0474
17:21:10:641,0.2626,4.3161,12.8602,65.6645,0.2165,-0.1071,-0.0063,-7.8412
17:21:10:661,0.4522,4.1079,13.0708,65.8313,0.3134,0.0836,-0.0936,-7.6375
17:21:10:681,-0.1184,4.0648,13.526,66.1096,0.2826,0.3242,-0.1511,-7.4343
17:21:10:701,-0.8177,4.2419,13.4447,66.206,0.3241,0.6055,-0.0329,-7.2293
17:21:10:721,-1.2706,4.1821,12.2638,66.2459,0.4892,0.894,0.1738,-7.0248
17:21:10:741,-1.4453,3.9021,11.2792,66.2821,0.5457,0.9536,0.3197,-6.8289
17:21:10:760,-1.6941,3.4493,10.9962,66.473,0.4903,0.7619,0.4059,-6.6445
17:21:10:781,-2.0058,3.1711,10.2969,66.8094,0.5744,0.6065,0.4826,-6.4744
17:21:10:802,-2.2307,3.3272,8.9701,66.7793,0.7213,0.5394,0.4644,-6.3199
17:21:10:821,-2.1685,3.2309,8.2271,66.9314,0.6096,0.1676,0.2963,-6.1787
17:21:10:842,-1.663,2.6536,8.2439,66.8276,0.2506,-0.3531,0.1184,-6.0447
17:21:10:861,-0.9541,2.1984,8.7326,67.0682,-0.202,-0.6331,0.0076,-5.9133
17:21:10:882,-0.463,1.6863,9.3362,67.2899,-0.5811,-0.63,-0.0499,-5.7816
17:21:10:902,-0.396,1.4393,9.4415,67.5117,-0.6876,-0.3638,-0.0041,-5.6516
17:21:10:922,-0.5133,1.5948,8.2989,67.6251,-0.4619,0.125,0.1344,-5.5252
17:21:10:942,-0.6694,1.9735,6.5743,67.8247,-0.1381,0.4947,0.3218,-5.407
17:21:10:963,-0.463,2.2756,5.3336,67.8526,0.1025,0.3988,0.5443,-5.2998
17:21:10:982,-0.0245,2.7422,4.8233,67.7308,0.2889,-0.0005,0.6668,-5.2998
17:21:11:003,0.253,3.6383,5.0985,67.8096,0.3411,-0.3531,0.5752,-5.2998
17:21:11:023,0.2195,3.6287,5.5896,67.8485,0.1441,-0.566,0.3261,-5.2998
17:21:11:043,-0.2883,3.1208,6.3326,67.7713,-0.1732,-0.5927,0.1184,-5.2998
17:21:11:063,-0.8034,2.7182,7.8317,67.9059,-0.5077,-0.5905,0.015,-5.2998
17:21:11:083,-1.0451,2.3928,9.3984,68.0159,-0.7441,-0.4724,0.0768,-5.2998
17:21:11:104,-0.9374,2.3833,10.4213,67.9832,-0.7068,-0.172,0.2643,-5.2998
17:21:11:124,-0.6837,3.1208,10.5942,68.248,-0.3351,0.2262,0.441,-5.2998
17:21:11:144,-0.5946,4.1198,10.3065,68.3647,0.1505,0.2869,0.49,-5.2998
17:21:11:164,-0.5085,4.9322,9.8919,68.3549,0.5116,0.0527,0.392,-5.2998
17:21:11:185,0.009,5.3462,9.7292,68.4647,0.5947,-0.2306,0.1759,-5.2998
17:21:11:205,1.0558,5.3342,10.6684,68.5447,0.2921,-0.5373,-0.1437,-5.2998
17:21:11:224,1.4315,5.0112,12.4552,68.6451,-0.2723,-0.6491,-0.5196,-5.2998
17:21:11:245,0.3846,4.2299,13.6576,68.8402,-0.776,-0.4032,-0.7635,-5.2998
17:21:11:265,0.0281,2.7254,13.9884,68.6609,-0.9805,-0.0282,-0.7529,-5.2998
17:21:11:285,0.2626,1.614,14.4054,68.5752,-0.9326,0.2465,-0.56,-5.2998
17:21:11:305,0.4134,1.2598,14.7165,68.6924,-0.6695,0.3796,-0.231,-5.2058
17:21:11:325,0.4499,1.2383,12.9894,68.7981,-0.023,0.5596,0.1067,-5.1056
17:21:11:346,0.8662,1.2407,10.3352,68.6532,0.6799,0.4233,0.2217,-5.0119
17:21:11:367,1.8054,1.8132,8.3468,68.9923,0.9993,-0.1113,0.1716,-5.0119
17:21:11:387,2.3109,2.7619,7.5685,68.9482,0.7437,-0.5309,-0.0329,-5.0119
17:21:11:407,1.7456,2.6536,7.3196,68.7252,0.1249,-0.3712,-0.3928,-5.0119
17:21:11:427,0.4953,2.1529,7.1013,68.8158,-0.4108,0.2827,-0.6612,-4.9208
17:21:11:447,-0.3338,1.7653,6.615,68.8505,-0.6567,0.8525,-0.6474,-4.8088
17:21:11:467,-0.3075,1.5709,6.1789,68.8313,-0.6439,1.024,-0.4823,-4.6763
17:21:11:487,-0.3099,1.7916,6.2704,68.7678,-0.4971,0.8993,-0.4354,-4.5301
17:21:11:507,-0.2213,1.9017,6.5097,68.6564,-0.2563,0.614,-0.4599,-4.3729
17:21:11:528,-0.1184,2.0381,6.6485,68.3461,0.0739,0.2603,-0.4748,-4.204
17:21:11:549,-0.0891,2.3163,6.4403,68.2156,0.3624,0.0123,-0.4855,-4.0209
17:21:11:568,0.3176,2.9007,6.347,68.1241,0.4626,-0.0772,-0.4482,-3.8223
17:21:11:588,0.9404,3.7579,7.0439,68.0046,0.3539,-0.2019,-0.4237,-3.6113
17:21:11:608,0.6197,4.0313,8.1051,67.9155,0.1174,-0.3222,-0.5334,-3.3905
17:21:11:628,-0.408,3.6742,8.9294,68.0005,-0.0507,-0.2381,-0.6506,-3.1559
17:21:11:649,-1.5984,3.521,9.8106,68.0117,-0.0454,-0.1103,-0.5324,-2.904
17:21:11:668,-1.8168,3.9858,10.2873,68.2255,0.1643,0.0368,-0.1788,-2.6391
17:21:11:689,-1.0379,4.6445,10.5051,68.2812,0.4391,0.0826,0.1301,-2.3721
17:21:11:709,-0.2955,4.7593,10.9819,68.1665,0.5563,-0.0005,0.1344,-2.1145
17:21:11:729,-0.0269,4.1414,11.8708,68.0827,0.5126,-0.1198,-0.0638,-1.8664
17:21:11:749,-1.0857,4.0528,12.676,68.2151,0.4732,-0.073,-0.2406,-1.6213
17:21:11:770,-2.4754,4.3884,12.2303,68.2365,0.5212,0.2294,-0.1937,-1.3717
17:21:11:790,-2.6429,4.4172,11.1284,67.9781,0.4849,0.5043,-0.002,-1.1177
17:21:11:811,-2.0273,4.0146,11.2074,67.9113,0.1739,0.3956,0.1024,-0.8662
17:21:11:830,-1.7061,3.1137,11.7153,67.6818,-0.1072,0.1985,0.1013,-0.6224
17:21:11:850,-2.1972,2.4861,11.0949,67.4358,-0.0475,0.3839,0.0736,-0.388
17:21:11:871,-2.8181,2.4742,8.994,67.5186,0.1611,0.7513,0.0577,-0.1606
17:21:11:890,-2.9354,2.4957,7.4082,67.6591,0.0398,0.6427,0.0385,0.0624
17:21:11:911,-2.3294,2.278,7.6929,67.3302,-0.4395,0.0453,0.0491,0.2815
17:21:11:931,-1.6391,2.0357,8.747,67.2433,-0.8346,-0.4266,0.063,0.4931
17:21:11:951,-1.4907,1.7509,9.0682,67.2894,-0.923,-0.4596,0.0289,0.6942
17:21:11:971,-1.7133,1.6235,8.33,67.459,-0.7909,-0.2093,0.0949,0.8845
17:21:11:991,-1.7354,1.7725,7.0319,67.4771,-0.5736,0.0261,0.2792,1.0632
17:21:12:012,-1.2897,1.9448,5.9539,67.2763,-0.3788,-0.0517,0.4367,1.2257
17:21:12:032,-0.7531,2.1075,6.1813,67.2226,-0.3138,-0.4266,0.4857,1.3678
17:21:12:052,-0.4558,2.1577,7.0343,66.9101,-0.2574,-0.6566,0.4687,1.4877
17:21:12:072,-0.3577,2.3282,6.7155,66.9314,-0.0475,-0.4927,0.4453,1.5875
17:21:12:092,-0.5492,2.6441,6.2441,66.6973,0.0855,-0.319,0.3547,1.5875
17:21:12:112,-0.8225,2.4168,7.063,66.3553,-0.0529,-0.4213,0.1684,1.5875
17:21:12:132,-1.1892,1.9854,8.3611,66.1726,-0.1935,-0.6001,0.015,1.5875
17:21:12:152,-1.462,1.727,9.0969,65.9293,-0.1168,-0.6001,-0.0297,1.5875
17:21:12:195,-1.663,1.7677,9.1807,66.1722,0.0313,-0.335,-0.0158,1.5875
17:21:12:204,-1.9795,2.2564,9.4875,66.0144,-0.0145,-0.0048,0.0182,1.5875
17:21:12:215,-2.4108,2.8839,9.8776,65.9251,-0.1945,0.2763,0.0875,1.5875
17:21:12:233,-2.4084,3.5713,10.4261,65.6912,-0.3373,0.4435,0.1748,1.5875
17:21:12:256,-1.6295,3.4804,10.9579,65.6004,-0.479,0.2933,0.1855,1.5875
17:21:12:273,-0.463,3.0012,12.2231,65.6688,-0.6791,-0.1188,0.0917,1.5875
17:21:12:293,0.1741,2.9653,14.3192,65.498,-0.8261,-0.4522,-0.0425,1.5875
17:21:12:314,0.0138,2.7254,14.4891,65.6084,-0.7142,-0.2722,-0.1575,1.5875
17:21:12:338,-0.0508,2.321,13.7755,65.3957,-0.5449,0.0059,-0.1884,1.5875
17:21:12:354,0.469,1.4584,14.3791,65.4657,-0.596,-0.1252,-0.1373,1.5875
17:21:12:380,0.8495,0.6491,15.0018,65.3959,-0.5459,-0.2083,0.014,1.5875
17:21:12:399,1.1204,0.2441,14.2445,65.4147,-0.0859,0.0208,0.2451,1.5875
17:21:12:417,1.5326,0.6347,11.7105,65.4278,0.6309,0.304,0.4069,1.5875
17:21:12:441,2.0405,1.6068,9.207,65.5671,1.0238,0.1527,0.3558,1.5875
17:21:12:459,1.7288,2.062,7.9089,65.5081,0.7575,-0.2519,0.0449,1.5875
17:21:12:479,0.8423,1.4943,7.7384,65.5213,0.2059,-0.4032,-0.2502,1.5875
17:21:12:496,0.0401,1.0845,7.1085,65.6298,-0.0784,-0.2178,-0.2863,1.5875
17:21:12:518,-0.3218,0.8405,6.3159,65.5884,-0.0944,0.0687,-0.1714,1.5875
17:21:12:539,-0.396,1.0415,5.741,65.7751,-0.0507,0.2614,-0.0606,1.5875
17:21:12:561,-0.3793,1.1713,5.3695,65.9064,-0.0518,0.2912,-0.0095,1.5875
17:21:12:578,-0.4367,1.4489,5.132,66.0771,-0.0252,0.2848,-0.0158,1.5875
17:21:12:601,-0.5013,1.9208,4.9908,65.9236,0.0686,0.1964,-0.0553,1.5875
17:21:12:619,-0.4463,2.266,4.8664,66.0655,0.1569,-0.0144,-0.1234,1.5875
17:21:12:638,-0.2381,2.5747,5.4748,66.0152,0.0876,-0.2999,-0.2417,1.5875
17:21:12:660,-0.3027,2.6871,6.7585,65.9941,-0.1093,-0.4927,-0.3885,1.5875
17:21:12:679,-0.4917,2.7206,8.5412,66.1147,-0.283,-0.5383,-0.4972,1.5875
17:21:12:701,-0.5611,2.8074,10.6971,66.2633,-0.366,-0.6331,-0.4833,1.6831
17:21:12:720,-0.6933,2.86,12.3978,66.2749,-0.2521,-0.5213,-0.3246,1.7928
17:21:12:740,-1.2467,3.4038,12.4576,66.3104,0.0782,0.024,-0.0276,1.9107
17:21:12:762,-1.4118,3.7962,12.0335,66.4331,0.3145,0.4276,0.2718,2.0257
17:21:12:780,-0.789,3.8734,12.1466,66.6525,0.3358,0.3967,0.4655,2.128
17:21:12:801,-0.4032,3.9835,13.0373,66.6403,0.2325,0.1463,0.4985,2.128
17:21:12:821,-0.5372,3.7507,13.8377,66.7237,0.1718,0.0197,0.4644,2.128
17:21:12:841,-0.5635,3.4397,13.8497,66.6413,0.2708,0.0687,0.5358,2.128
17:21:12:863,-0.14,3.2405,13.5212,66.6688,0.4051,0.0985,0.6008,2.128
17:21:12:881,0.1214,2.5029,13.5428,66.6563,0.4242,-0.0378,0.5209,2.128
17:21:12:902,-0.2285,1.6283,12.6299,66.7603,0.5563,0.0165,0.4463,2.128
17:21:12:920,-1.0403,1.7509,10.2754,66.6958,0.8843,0.3977,0.4751,2.128
17:21:12:941,-1.4477,2.3043,7.8437,66.8755,1.01,0.6012,0.5198,2.128
17:21:12:961,-1.0092,2.9773,6.5432,66.9173,0.6564,0.3019,0.4879,2.128
17:21:12:983,-0.1974,2.6177,7.2664,67.1652,-0.0401,-0.2732,0.2771,2.128
17:21:13:005,0.0951,1.7773,8.4526,67.0468,-0.5992,-0.5076,0.0023,2.0343
17:21:13:021,0.0066,1.3172,8.6895,66.8101,-0.7845,-0.3244,-0.1426,1.942
17:21:13:041,-0.1831,1.0391,8.2152,66.7069,-0.7313,-0.0272,-0.1192,1.942
17:21:13:061,-0.2668,1.1061,7.2616,66.7858,-0.5939,0.2134,-0.0063,1.942
17:21:13:082,-0.2907,1.0558,7.0534,66.6908,-0.528,0.0879,0.0502,1.942
17:21:13:102,-0.341,0.5815,7.5182,66.6561,-0.4672,-0.2445,0.064,1.942
17:21:13:122,-0.3338,0.536,8.062,66.5552,-0.1988,-0.3968,0.1929,1.8519
17:21:13:142,-0.2357,1.2718,7.6116,66.5079,0.3028,-0.2051,0.4378,1.757
17:21:13:161,-0.0173,2.1242,6.6796,66.8453,0.7021,0.0368,0.6082,1.6477
17:21:13:182,0.2028,2.7715,6.1717,66.9703,0.7064,-0.0005,0.5678,1.5182
17:21:13:201,0.2602,3.1161,6.7394,66.9668,0.3763,-0.2423,0.3622,1.371
17:21:13:224,0.1406,2.735,8.2606,67.1119,-0.0209,-0.4543,0.0885,1.2142
17:21:13:245,-0.1878,2.4431,9.4899,67.2698,-0.1828,-0.3478,-0.0574,1.0571
17:21:13:263,-0.5635,2.6273,10.285,67.4001,-0.0955,-0.0442,-0.0574,0.9057
17:21:13:282,-0.8273,3.2524,10.4788,67.6759,0.0792,0.1495,-0.0425,0.7607
17:21:13:301,-0.6425,3.3727,10.8359,67.6399,0.1515,-0.0154,-0.1096,0.6206
17:21:13:322,-0.1854,2.9174,11.3868,67.6003,0.076,-0.3734,-0.2491,0.4879
17:21:13:343,0.131,2.3904,12.6903,67.8615,-0.1626,-0.6353,-0.3332,0.367
17:21:13:362,0.5001,2.4335,13.7198,68.1327,-0.3937,-0.481,-0.2097,0.26
17:21:13:382,1.1396,2.5484,13.526,68.1393,-0.4981,0.0517,-0.0137,0.162
17:21:13:403,1.5302,2.3067,13.4997,68.3348,-0.5779,0.4371,-0.0276,0.0656
17:21:13:424,1.0415,2.0644,13.4614,68.3364,-0.5545,0.5383,-0.0979,-0.0298
17:21:13:443,0.7633,1.8467,12.2327,68.1914,-0.2244,0.6278,0.0545,-0.1206
17:21:13:463,1.4171,1.5206,10.0457,68.2043,0.2304,0.5969,0.2696,-0.2121
17:21:13:485,1.8987,1.7031,9.2189,68.2524,0.2836,0.1655,0.2707,-0.3135
17:21:13:504,2.0764,1.4417,10.0026,68.1514,-0.1455,-0.4426,0.1194,-0.4261
17:21:13:525,1.8485,0.9745,10.1773,68.0039,-0.366,-0.5224,-0.0095,-0.5448
17:21:13:545,0.984,1.3029,8.8451,67.8215,-0.1189,-0.172,-0.0989,-0.6627
17:21:13:566,0.3775,1.413,6.9506,67.6787,0.1835,0.1165,-0.1053,-0.7763
17:21:13:584,0.4403,1.4704,5.2475,67.775,0.3134,0.3125,-0.0489,-0.8851
17:21:13:604,0.5288,1.727,4.5715,67.891,0.2218,0.288,-0.0936,-0.9924
17:21:13:624,0.3583,1.8156,5.1416,67.9558,-0.0028,0.108,-0.263,-1.0974
17:21:13:645,0.1597,1.6307,5.4461,67.7994,-0.0699,-0.008,-0.3864,-1.1927
17:21:13:665,0.0209,1.6642,5.2714,67.9134,0.0142,0.0229,-0.4258,-1.1927
17:21:13:685,-0.2094,1.8873,4.9717,68.0674,0.0121,0.1005,-0.4525,-1.1927
17:21:13:705,-0.2596,2.1936,5.6279,68.1714,-0.2638,0.0325,-0.4237,-1.1927
17:21:13:726,-0.4989,2.6177,7.1396,68.1322,-0.6098,-0.0197,-0.3491,-1.1927
17:21:13:746,-0.9302,2.8385,8.9773,68.0985,-0.8122,-0.0644,-0.2129,-1.1927
17:21:13:766,-0.6861,2.8146,11.5759,68.3519,-0.7664,-0.3361,0.0747,-1.1927
17:21:13:786,0.4331,2.8289,13.8784,68.6104,-0.2979,-0.794,0.4282,-1.1927
17:21:13:807,1.5206,3.1902,14.2062,68.9421,0.4956,-0.7567,0.6082,-1.1927
17:21:13:828,1.7097,3.6383,13.5404,69.163,1.06,-0.4447,0.5007,-1.1927
17:21:13:846,1.8748,3.6838,13.3992,69.139,1.0707,-0.3702,0.4027,-1.2922
17:21:13:867,1.8772,3.859,13.9908,69.2188,0.7671,-0.3244,0.4197,-1.4082
17:21:13:887,1.9226,3.7842,13.7898,69.4485,0.5158,-0.0442,0.5102,-1.5405
17:21:13:907,1.9968,3.6407,13.1498,69.6601,0.3976,0.2848,0.5358,-1.6916
17:21:13:928,1.5972,3.4588,12.2351,69.6393,0.3752,0.4851,0.4133,-1.8641
17:21:13:948,0.5264,3.4947,10.5272,69.6365,0.4679,0.6651,0.2611,-2.0528
17:21:13:967,-0.2094,3.8375,8.6441,69.7305,0.4935,0.7268,0.1503,-2.2515
17:21:13:988,-0.1759,4.1581,8.1003,69.7292,0.1899,0.3839,0.0172,-2.4543
17:21:14:008,0.4451,3.3535,9.0036,69.7909,-0.3021,-0.1358,-0.1927,-2.6551
17:21:14:028,0.6365,2.4048,9.7747,70.1088,-0.5992,-0.4149,-0.4567,-2.8449
17:21:14:048,0.4977,1.468,10.2132,70.0788,-0.7206,-0.4543,-0.6474,-3.0134
17:21:14:069,0.3894,0.74,10.1031,69.9599,-0.6802,-0.2668,-0.5686,-3.1542
17:21:14:089,0.5934,0.8213,9.0993,69.7722,-0.3714,0.0431,-0.2108,-3.2713
17:21:14:109,0.7585,1.2526,7.2999,69.7671,0.0887,0.3477,0.0971,-3.3787
17:21:14:129,0.4666,1.4919,5.7075,69.6259,0.4019,0.4776,0.1674,-3.4912
17:21:14:149,-0.1208,1.6738,4.8544,69.4881,0.4956,0.3051,0.1386,-3.6098
17:21:14:170,-0.5324,1.8443,4.8999,69.7132,0.5244,-0.1358,0.1162,-3.7322
17:21:14:214,-0.3745,1.9543,5.3049,69.4555,0.6,-0.5778,0.1471,-3.8565
17:21:14:217,-0.2907,2.1003,5.875,69.612,0.6181,-0.8047,0.1141,-3.9856
17:21:14:230,-0.274,1.7892,6.5384,70.0245,0.5073,-0.8696,0.0225,-4.1187
17:21:14:250,-0.4941,1.727,7.346,70.273,0.3443,-0.7748,-0.0585,-4.2507
17:21:14:271,-0.7244,1.94,8.141,70.2735,0.159,-0.5767,-0.0691,-4.3797
17:21:14:290,-0.6401,2.4814,9.0514,70.519,-0.0678,-0.3776,0.0119,-4.5049
17:21:14:312,-0.5731,3.1376,10.3208,70.8532,-0.284,-0.2764,0.0342,-4.6288
17:21:14:330,-0.6646,3.5067,11.0734,70.7128,-0.3746,-0.237,-0.0414,-4.7514
17:21:14:351,-0.2835,3.3607,11.7751,70.9038,-0.4427,-0.2871,-0.0776,-4.8695
17:21:14:372,0.996,2.8983,12.8267,71.2018,-0.5491,-0.4969,-0.0137,-4.9813
17:21:14:392,2.3994,2.9892,14.2349,71.11,-0.6461,-0.68,0.0747,-5.0903
17:21:14:411,3.2907,2.8839,14.4987,71.3274,-0.6056,-0.4043,0.0651,-5.1994
17:21:14:432,3.5013,2.534,13.8329,71.3788,-0.4896,0.1975,-0.1043,-5.3105
17:21:14:452,2.8905,1.8491,13.3514,71.5445,-0.4385,0.5959,-0.3278,-5.4188
17:21:14:472,1.9226,1.2837,12.2734,71.4692,-0.2723,0.861,-0.3417,-5.5171
17:21:14:492,1.6786,1.0582,10.3376,71.7344,0.0718,0.9441,-0.133,-5.5171
17:21:14:512,2.2128,1.7079,8.7517,71.9038,0.2506,0.6427,0.0097,-5.5171
17:21:14:532,2.519,1.8945,8.802,71.6202,-0.0901,0.0953,-0.1288,-5.5171
17:21:14:553,2.0064,1.2,8.8594,71.6346,-0.512,0.0762,-0.3246,-5.6086
17:21:14:574,0.9452,0.7304,8.2487,71.4362,-0.5896,0.3881,-0.3811,-5.6086
17:21:14:593,0.5288,0.4881,7.0654,71.4024,-0.3735,0.4712,-0.2204,-5.6086
17:21:14:613,0.8231,0.9625,5.9468,71.0929,-0.1381,0.3445,-0.002,-5.6086
17:21:14:633,1.0008,1.5087,5.8606,70.8869,-0.1807,0.0975,-0.0009,-5.6086
17:21:14:653,1.0463,1.7103,6.5719,70.7367,-0.3437,0.0059,-0.1096,-5.6086
17:21:14:674,0.9093,1.6116,7.2281,70.4143,-0.3192,0.0048,-0.2023,-5.6086
17:21:14:693,0.5336,1.9687,7.3412,70.2291,-0.1157,0.008,-0.2289,-5.6086
17:21:14:713,0.3009,2.2923,7.2784,69.9444,0.0377,0.0613,-0.2214,-5.6086
17:21:14:734,-0.1155,2.5531,7.3771,69.5567,0.0739,0.125,-0.231,-5.6086
17:21:14:754,-0.3194,2.86,7.3819,69.4227,0.0834,0.1059,-0.1842,-5.6086
17:21:14:775,-0.3266,3.3129,7.9639,69.3914,0.0292,-0.0985,-0.1043,-5.6086
17:21:14:795,-0.1131,3.4469,9.7196,69.4779,-0.0688,-0.4437,-0.0585,-5.6086
17:21:14:814,0.186,3.3057,11.217,69.5814,-0.0198,-0.6534,-0.0446,-5.6086
17:21:14:835,0.2889,3.3942,12.2758,69.9362,0.0855,-0.5023,-0.0031,-5.6086
17:21:14:855,0.749,3.2022,12.6664,70.0214,0.1505,-0.025,0.0981,-5.6086
17:21:14:875,1.1922,3.2524,13.066,70.1285,0.1483,0.2752,0.1802,-5.6086
17:21:14:895,1.0343,3.6072,13.2532,70.5315,0.1153,0.4648,0.2281,-5.6086
17:21:14:916,0.6532,3.801,12.5103,70.8548,0.1068,0.6747,0.2462,-5.6086
17:21:14:936,0.469,3.3248,12.2686,70.9829,0.0111,0.5873,0.2121,-5.6086
17:21:14:956,0.9069,2.6441,12.7143,71.1363,-0.055,0.1708,0.3208,-5.7008
17:21:14:977,1.6092,2.4503,12.1944,71.1374,0.257,-0.0794,0.5742,-5.8023
17:21:14:997,1.4967,2.6417,10.3137,70.8064,0.7692,-0.0101,0.5529,-5.9243
17:21:15:017,1.1515,2.7787,8.5268,70.7396,0.847,-0.0453,0.211,-6.0661
17:21:15:036,0.8997,2.0524,8.7302,70.5451,0.225,-0.4895,-0.181,-6.2143
17:21:15:057,0.4158,0.6467,9.6431,70.4692,-0.5248,-0.6768,-0.3992,-6.3527
17:21:15:077,-0.6185,0.0329,9.9326,70.2118,-0.8421,-0.3446,-0.364,-6.472
17:21:15:098,-1.2108,-0.1155,9.1615,70.3396,-0.7931,0.2752,-0.0904,-6.5725
17:21:15:118,-0.9781,0.0449,8.1912,70.2725,-0.6716,0.6768,0.2473,-6.6638
17:21:15:138,-0.3745,0.4929,7.9496,70.3476,-0.6301,0.6449,0.4559,-6.7584
17:21:15:158,0.0497,0.7687,8.1075,70.5917,-0.5098,0.3786,0.5124,-6.865
17:21:15:178,0.2291,0.7998,8.0668,70.5649,-0.1487,0.0879,0.4506,-6.9858
17:21:15:198,0.3631,1.1785,7.2903,70.6025,0.4221,0.008,0.375,-7.1183
17:21:15:218,0.4014,1.5709,6.2004,70.6894,0.8449,0.041,0.259,-7.2601
17:21:15:238,0.3511,1.7797,5.5872,70.9488,0.8779,0.1133,0.1013,-7.4078
17:21:15:260,0.0832,1.9448,5.6925,70.9008,0.6447,0.1186,-0.0648,-7.556
17:21:15:279,-0.25,1.8634,6.1262,70.9497,0.3561,0.0719,-0.1969,-7.6982
17:21:15:299,-0.3386,1.9113,7.3023,70.7873,0.0515,0.0676,-0.2767,-7.8291
17:21:15:319,-0.4008,2.0596,9.0993,70.8102,-0.2233,-0.0336,-0.3374,-7.945
17:21:15:339,-0.5611,2.062,10.0959,70.8491,-0.2819,-0.1379,-0.4088,-8.0442
17:21:15:361,-0.9135,2.1266,10.4788,71.2462,-0.2467,-0.1326,-0.4216,-8.0442
17:21:15:382,-0.4247,1.9807,11.3222,71.1486,-0.3671,-0.1646,-0.3353,-8.0442
17:21:15:401,0.3248,1.9161,12.9368,71.1172,-0.6237,-0.3648,-0.2736,-8.0442
17:21:15:423,1.2257,1.8586,14.2253,71.2595,-0.8176,-0.4351,-0.2332,-8.0442
17:21:15:442,1.8437,1.3795,14.4054,71.4023,-0.8836,-0.1987,-0.2778,-8.0442
17:21:15:463,1.8556,0.4834,14.5657,71.4228,-0.9731,0.0133,-0.461,-8.0442
17:21:15:481,1.1922,-0.5228,14.8558,71.4953,-1.0349,0.1101,-0.6027,-8.0442
17:21:15:502,0.615,-1.3633,13.7372,71.2377,-0.7409,0.4403,-0.4439,-8.0442
17:21:15:521,0.8518,-1.0331,11.7177,71.3798,-0.2148,0.7204,-0.083,-8.0442
17:21:15:542,1.6738,-0.3595,10.0002,71.5691,0.1345,0.6097,0.1589,-8.0442
17:21:15:561,1.9418,0.4977,8.4024,71.621,0.1664,0.4584,0.1237,-8.0442
17:21:15:584,1.453,0.7137,7.861,71.3823,-0.1381,0.2177,-0.1586,-8.0442
17:21:15:601,0.8375,0.134,8.2463,71.1905,-0.4747,-0.0218,-0.3864,-8.0442
17:21:15:622,0.4834,0.1268,8.3904,70.8544,-0.5152,-0.1497,-0.3811,-8.0442
17:21:15:641,0.5719,0.1962,8.4096,70.7701,-0.3149,-0.1997,-0.282,-8.0442
17:21:15:662,0.5216,0.469,7.7862,70.7876,0.0558,-0.0325,-0.2363,-8.0442
17:21:15:682,0.3631,0.7998,6.8883,70.7344,0.437,0.0282,-0.2545,-8.0442
17:21:15:702,0.2435,1.2694,6.2536,70.6686,0.6863,0.0005,-0.2884,-7.9532
17:21:15:722,0.0592,1.6935,5.6351,70.5801,0.7607,-0.0069,-0.3353,-7.8541
17:21:15:742,-0.0341,1.8802,5.6255,70.6969,0.6,-0.0783,-0.396,-7.745
17:21:15:762,-0.1783,2.0357,6.4187,70.7475,0.2762,-0.1699,-0.4738,-7.6234
17:21:15:787,-0.4606,2.0692,8.0118,71.0114,-0.0774,-0.2754,-0.5409,-7.4872
17:21:15:802,-0.609,2.007,9.7268,71.1048,-0.2702,-0.3095,-0.4983,-7.3347
17:21:15:823,-0.5563,1.9065,11.1021,70.9758,-0.2371,-0.2285,-0.363,-7.1669
17:21:15:847,-0.5396,2.0309,12.0718,71.0905,-0.0454,-0.0368,-0.1735,-6.9891
17:21:15:863,-0.5372,2.2516,12.4505,71.0255,0.2442,0.173,0.0033,-6.8078
17:21:15:887,-0.4439,2.5149,12.3308,70.9687,0.5137,0.2944,0.1194,-6.6298
17:21:15:906,-0.2333,2.7595,12.259,70.9805,0.5861,0.3221,0.177,-6.46
17:21:15:923,-0.0365,3.1424,12.5366,71.1318,0.4828,0.3178,0.2164,-6.2986
17:21:15:947,-0.1256,3.1663,12.8913,71.2036,0.3646,0.2742,0.2025,-6.1477
17:21:15:966,-0.6329,2.7494,12.3715,71.3687,0.3614,0.402,0.1173,-6.0067
17:21:15:987,-1.6463,2.1793,11.5956,71.7395,0.3731,0.5362,0.0662,-5.872
17:21:16:006,-2.3749,1.6379,10.5631,71.8647,0.3859,0.5373,0.1972,-5.7404
17:21:16:027,-2.1326,1.523,9.5545,71.7977,0.469,0.3636,0.4612,-5.6139
17:21:16:045,-1.1551,1.6642,8.79,72.0506,0.4764,-0.0186,0.5752,-5.5012
17:21:16:064,-0.1759,1.5972,8.4144,71.9221,0.2261,-0.4128,0.4218,-5.4071
17:21:16:086,0.0592,0.9529,9.1137,71.9204,-0.316,-0.728,0.1077,-5.4071
17:21:16:108,-0.2094,0.0401,9.722,71.8524,-0.7973,-0.7738,-0.1043,-5.4071
17:21:16:125,-0.5755,-0.6114,9.5928,71.7126,-0.9475,-0.5076,-0.0712,-5.4071
17:21:16:149,-0.7675,-0.6688,8.7422,71.5081,-0.8272,-0.0719,0.2185,-5.4071
17:21:16:167,-0.4774,-0.0556,7.8389,71.3819,-0.612,0.2145,0.5411,-5.4071
17:21:16:186,-0.0987,0.4857,7.401,71.3126,-0.5045,0.2156,0.6615,-5.4071
17:21:16:239,-0.0485,0.7472,7.7719,71.1517,-0.4885,-0.0027,0.6296,-5.4071
17:21:16:241,-0.1663,0.5384,8.1242,71.3486,-0.2872,-0.1965,0.6093,-5.4071
17:21:16:247,-0.003,1.0391,7.7145,71.2975,0.192,-0.1294,0.7084,-5.4071
17:21:16:266,0.1956,1.7462,7.075,71.3118,0.5904,-0.0048,0.7542,-5.4071
17:21:16:286,0.1167,2.1888,6.8405,71.3237,0.6501,-0.0538,0.6455,-5.4071
17:21:16:307,0.0353,2.0046,7.7192,71.1977,0.4636,-0.3052,0.4261,-5.4071
17:21:16:327,-0.128,1.94,8.9653,71.2256,0.306,-0.383,0.2409,-5.4071
17:21:16:348,-0.1567,2.0429,10.5559,71.3506,0.2176,-0.3435,0.1248,-5.4071
17:21:16:370,0.0329,2.2056,11.8134,71.3922,0.208,-0.2434,0.0417,-5.4071
17:21:16:389,0.064,2.4957,12.4935,71.3789,0.1579,-0.0783,-0.0947,-5.4071
17:21:16:409,0.0808,2.3258,13.0636,71.3437,-0.1466,0.0538,-0.3001,-5.4071
17:21:16:428,0.8925,1.0774,13.7492,71.2582,-0.5555,-0.0186,-0.3438,-5.4071
17:21:16:449,1.724,0.6658,14.7715,71.1779,-0.6802,-0.0495,-0.2481,-5.4071
17:21:16:468,1.724,1.118,13.7755,71.1795,-0.381,0.4361,-0.263,-5.4071
17:21:16:489,0.9745,1.0463,11.7009,70.9463,-0.1136,0.9856,-0.4802,-5.4071
17:21:16:509,-0.14,0.3829,10.8096,70.881,-0.235,1.0698,-0.6783,-5.4071
17:21:16:529,-0.6622,-0.3595,10.6804,70.4687,-0.3351,0.9015,-0.4738,-5.4071
17:21:16:549,0.0975,-0.3978,9.4804,70.0528,0.0281,0.7374,0.1482,-5.4071
17:21:16:569,1.882,0.3278,7.873,69.7164,0.5542,0.4531,0.6242,-5.4071
17:21:16:593,3.1065,1.9184,6.4044,69.4853,0.5861,-0.0985,0.5113,-5.4071
17:21:16:609,2.8068,2.0477,7.1539,69.2199,-0.17,-0.7397,-0.1032,-5.4071
17:21:16:630,1.7456,0.4092,8.6106,68.874,-0.8314,-0.8526,-0.6261,-5.4071
17:21:16:650,1.0989,-0.2901,8.8953,68.6189,-0.7228,-0.8004,-0.7209,-5.4071
17:21:16:670,0.5432,-0.1059,8.8307,68.1408,-0.3671,-0.7823,-0.6314,-5.4071
17:21:16:692,0.2698,0.0981,8.1769,68.1049,-0.1487,-0.5044,-0.51,-5.4071
17:21:16:710,0.0736,0.2728,7.3125,68.0841,0.0079,-0.1358,-0.4035,-5.4071
17:21:16:732,-0.1926,0.536,6.5767,67.8154,0.1462,0.0751,-0.331,-5.4071
17:21:16:751,-0.3386,1.0463,5.9492,67.728,0.2186,0.1868,-0.2662,-5.3087
17:21:16:772,-0.3577,1.5254,5.7099,67.8425,0.1877,0.1783,-0.2332,-5.203
17:21:16:791,-0.2094,1.6618,6.3494,67.7712,0.043,-0.0346,-0.2545,-5.0905
17:21:16:811,0.1167,1.7366,7.4225,67.7508,-0.0976,-0.2626,-0.2969,-4.9709
17:21:16:832,0.131,1.9974,8.8594,67.7988,-0.2254,-0.3297,-0.3747,-4.8425
17:21:16:852,-0.1448,2.0524,9.7938,67.7781,-0.268,-0.1571,-0.413,-4.702
17:21:16:872,-0.3529,2.1649,10.9579,67.7495,-0.2904,0.0431,-0.3502,-4.5495
17:21:16:892,-0.5396,2.0692,12.1657,67.6992,-0.2691,0.1197,-0.2577,-4.3869
17:21:16:913,-0.7053,1.8658,13.3202,67.4794,-0.1945,0.1016,-0.1767,-4.217
17:21:16:932,-0.8321,1.3962,14.132,67.3657,-0.1093,0.0644,-0.0382,-4.0425
17:21:16:952,-0.6329,1.0223,14.2229,67.2354,0.0707,0.3903,0.2015,-3.8684
17:21:16:973,-0.3745,1.7007,13.986,66.9272,0.2985,0.696,0.4357,-3.7033
17:21:16:993,-0.2094,2.2325,13.2796,66.731,0.4104,0.7417,0.5049,-3.5553
17:21:17:013,-0.1567,1.9232,12.7884,66.3245,0.2889,0.5021,0.3409,-3.4268
17:21:17:033,-0.5444,0.8429,13.3322,65.9402,0.0823,0.1027,0.1109,-3.3111
17:21:17:055,-0.9302,-0.1011,13.325,65.7316,0.2336,-0.1784,0.0917,-3.1991
17:21:17:073,-1.2491,-0.3978,11.6291,65.5524,0.765,-0.1731,0.1983,-3.0907
17:21:17:094,-1.3543,-0.1585,9.9589,64.8521,1.0526,-0.188,0.2611,-2.9888
17:21:17:114,-1.0068,-0.1131,9.1472,64.6583,0.8214,-0.3318,0.3355,-2.8943
17:21:17:134,-0.8321,-0.0772,8.668,64.4146,0.3539,-0.2519,0.4314,-2.8943
17:21:17:155,-1.0594,-0.0461,8.0309,64.2844,-0.0177,0.0879,0.5443,-2.8943
17:21:17:174,-1.1964,0.0861,7.0008,64.2059,-0.1519,0.4201,0.7329,-2.8943
17:21:17:195,-0.8417,0.5958,5.7721,63.82,-0.1381,0.5224,0.9353,-2.8943
17:21:17:214,-0.2835,1.456,5.0507,63.8154,-0.2201,0.2688,0.9586,-2.8943
17:21:17:235,0.1908,1.8634,5.2977,63.4522,-0.5194,-0.1646,0.7371,-2.8943
17:21:17:255,0.3344,1.6594,6.7705,63.2995,-0.8708,-0.4756,0.3867,-2.8943
17:21:17:275,0.2578,0.8142,8.3803,62.8366,-0.9624,-0.6374,0.0598,-2.8943
17:21:17:296,0.0305,0.3541,9.3362,62.5326,-0.6993,-0.6363,-0.1373,-2.8943
17:21:17:317,-0.2596,0.1771,9.5258,62.0598,-0.3106,-0.5309,-0.2193,-2.8943
17:21:17:336,-0.5994,-0.1466,9.813,61.6227,0.01,-0.5778,-0.2332,-2.8943
17:21:17:356,-0.5133,-0.6257,10.2299,61.462,0.2815,-0.6821,-0.1192,-2.8943
17:21:17:376,-0.0317,-0.3476,10.4836,60.8995,0.6394,-0.4266,0.1354,-2.8943
17:21:17:396,0.2937,0.4834,10.1079,60.7433,0.9365,-0.0538,0.3048,-2.8943
17:21:17:417,0.3846,0.929,9.9757,60.7389,0.9482,0.0549,0.2515,-2.8943
17:21:17:436,0.6796,1.0032,10.4812,60.4776,0.7128,-0.1699,0.0768,-2.8943
17:21:17:456,1.0678,1.188,11.4299,60.4993,0.4157,-0.4309,-0.035,-2.8943
17:21:17:477,1.6522,1.3986,12.3284,60.2941,0.2336,-0.5543,0.0033,-2.8943
17:21:17:497,2.4185,1.7007,12.719,60.3434,0.2154,-0.4501,0.08,-2.8943
17:21:17:518,2.4185,2.0764,12.0718,60.2045,0.1494,-0.0016,-0.0254,-2.8943
17:21:17:538,1.9418,1.9328,11.4873,59.9832,-0.1679,0.4553,-0.2257,-2.8943
17:21:17:558,1.9202,1.468,11.7344,59.8249,-0.5491,0.6268,-0.2417,-2.8943
17:21:17:577,1.8532,1.5829,11.6028,59.6164,-0.5885,0.7545,-0.1011,-2.8943
17:21:17:598,1.6475,1.5781,10.4596,59.5861,-0.316,0.8546,-0.0702,-2.8943
17:21:17:618,1.8245,1.4154,9.2692,59.1717,-0.1605,0.5703,-0.1916,-2.8943
17:21:17:638,2.3731,0.6802,9.4636,58.8602,-0.3884,-0.0442,-0.3651,-2.8943
17:21:17:659,2.4832,0.256,10.3854,58.5678,-0.6716,-0.2498,-0.5228,-2.8943
17:21:17:679,1.6522,0.1771,10.1055,58.3475,-0.6535,0.1879,-0.6069,-2.8943
17:21:17:698,0.5001,0.2273,8.0764,58.1342,-0.3714,0.9057,-0.5387,-2.8943
17:21:17:719,-0.0293,0.6156,5.8774,57.7164,-0.1232,1.2658,-0.347,-2.8943
17:21:17:739,-0.1424,1.3196,4.5284,57.3207,-0.0475,1.0793,-0.2459,-2.8943
17:21:17:760,-0.0796,1.5757,4.258,56.9477,-0.0976,0.5362,-0.3278,-2.8943
17:21:17:780,-0.0413,1.1833,4.6726,56.9162,-0.1423,-0.0208,-0.5004,-2.8943
17:21:17:801,-0.003,0.9266,5.324,56.6781,-0.1264,-0.3989,-0.6495,-2.8943
17:21:17:821,-0.408,1.2287,6.2632,56.4714,-0.1956,-0.5298,-0.7688,-2.8
17:21:17:841,-1.0666,1.0774,7.7288,56.1752,-0.3533,-0.4394,-0.7997,-2.6808
17:21:17:861,-1.34,0.5527,8.7541,55.9105,-0.3085,-0.4,-0.6325,-2.5357
17:21:17:882,-1.0522,1.0582,9.4367,55.7776,-0.1178,-0.417,-0.3055,-2.3691
17:21:17:901,-0.4367,1.794,10.3184,55.5878,-0.0465,-0.3734,-0.0201,-2.1928
17:21:17:922,-0.2668,2.0883,11.6435,55.1884,-0.0688,-0.2242,0.0704,-2.0189
17:21:17:941,-0.384,2.1194,12.786,54.812,0.0174,-0.0197,0.0822,-1.8527
17:21:17:961,-0.5085,2.1553,13.0014,54.6664,0.273,0.1431,0.1578,-1.6934
17:21:17:982,-0.1448,1.9089,12.7214,54.4262,0.4487,0.1463,0.2451,-1.5427
17:21:18:002,0.2506,1.8634,13.2054,54.4032,0.3784,0.0527,0.2505,-1.4038
17:21:18:021,0.1023,1.9328,13.9693,54.3845,0.2762,0.0804,0.1993,-1.2778
17:21:18:043,-0.3003,2.0836,13.5069,54.1623,0.4402,0.2252,0.2334,-1.1622
17:21:18:062,-0.3482,2.3067,12.4457,54.1331,0.6309,0.304,0.325,-1.0571
17:21:18:082,-0.6114,2.2104,11.9713,54.1374,0.5446,0.3136,0.3334,-0.9652
17:21:18:102,-1.124,1.9639,11.4467,54.3128,0.4423,0.3455,0.4112,-0.9652
17:21:18:122,-1.4979,1.9352,10.4429,54.0494,0.5244,0.3221,0.4921,-0.9652
17:21:18:142,-1.2467,1.6911,9.789,53.9165,0.5446,0.0112,0.4186,-0.9652
17:21:18:162,-0.7316,0.9123,10.3543,53.8593,0.2857,-0.5085,0.2483,-0.9652
17:21:18:182,-0.5276,0.1244,11.1547,53.8337,-0.0422,-0.7439,0.0832,-0.9652
17:21:18:203,-0.7244,-0.5922,11.3103,53.8978,-0.2254,-0.5884,-0.0084,-0.9652
17:21:18:254,-1.2132,-0.9996,10.5799,53.9494,-0.1871,-0.0985,0.1216,-0.9652
17:21:18:257,-1.4548,-0.81,8.6919,53.9788,0.0876,0.4989,0.4857,-0.9652
17:21:18:263,-1.1408,-0.4193,6.4905,53.8641,0.4093,0.8066,0.8692,-0.9652
17:21:18:283,-0.475,0.74,5.0674,53.8573,0.4839,0.6811,1.0704,-0.9652
17:21:18:304,0.3129,1.8036,5.0052,53.9117,0.2272,0.2752,1.0204,-0.9652
17:21:18:324,0.7322,1.9304,5.4891,54.083,-0.0443,0.1112,0.7446,-0.9652
17:21:18:344,0.8279,2.0931,5.6877,54.046,-0.1615,0.2763,0.4431,-1.0695
17:21:18:364,0.5097,2.6297,6.5504,54.3221,-0.381,0.4851,0.194,-1.1864
17:21:18:384,-0.7986,1.6594,8.7805,54.0916,-0.7132,0.4915,-0.1554,-1.3079
17:21:18:404,-2.1541,0.1603,9.2979,54.045,-0.613,0.4009,-0.281,-1.421
17:21:18:425,-2.4156,-0.0628,9.4851,54.0568,-0.2478,0.1975,0.0672,-1.5197
17:21:18:445,-1.5745,0.5121,9.7771,54.0994,0.1196,0.0772,0.5198,-1.6144
17:21:18:465,-0.597,1.5039,9.8584,53.9119,0.4338,-0.0517,0.702,-1.7208
17:21:18:485,0.1693,2.5555,9.6335,53.7685,0.486,-0.1134,0.6711,-1.8452
17:21:18:505,0.7825,3.2836,10.2203,53.6236,0.1824,-0.1539,0.4048,-1.9887
17:21:18:526,1.0798,2.8457,11.3629,53.3609,-0.1828,-0.27,-0.0137,-2.1428
17:21:18:546,1.1061,2.2104,12.3428,53.3903,-0.316,-0.3872,-0.3342,-2.2936
17:21:18:566,1.3956,1.8706,13.0349,53.2612,-0.2702,-0.4767,-0.4642,-2.431
17:21:18:586,1.8006,1.6355,13.1928,53.0105,-0.1615,-0.3723,-0.5409,-2.5507
17:21:18:606,2.0088,1.3172,13.0445,52.9215,-0.0795,-0.1209,-0.6857,-2.6505
17:21:18:626,1.5733,0.8788,13.0373,53.1324,-0.0699,0.1293,-0.8519,-2.6505
17:21:18:647,1.1061,0.3613,11.8421,53.2337,0.0387,0.4723,-0.8817,-2.6505
17:21:18:666,1.0941,-0.0365,9.9398,53.3915,0.1185,0.6076,-0.9317,-2.6505
17:21:18:686,0.725,-0.2088,10.2132,53.5355,-0.316,0.3253,-1.1543,-2.6505
17:21:18:707,0.2602,-1.0977,11.4395,53.5876,-0.9624,0.0847,-1.3141,-2.6505
17:21:18:727,-0.2285,-1.483,11.7057,53.7286,-1.0711,0.1442,-1.2054,-2.5591
17:21:18:747,-0.5157,-1.0762,10.4644,53.7037,-0.6333,0.3583,-0.853,-2.4315
17:21:18:767,-0.1759,-0.2207,8.2247,53.689,-0.0614,0.5905,-0.4194,-2.2801
17:21:18:788,0.4038,1.0247,5.3025,53.6796,0.3561,0.5671,-0.215,-2.1183
17:21:18:808,0.7346,2.0285,3.8602,53.5246,0.4509,0.0698,-0.3896,-1.9539
17:21:18:828,0.1836,1.7414,4.4231,53.5672,0.2549,-0.5256,-0.7752,-1.7803
17:21:18:848,-0.9685,1.1521,4.8281,53.6505,0.0547,-0.5895,-0.9423,-1.5849
17:21:18:868,-1.7833,1.2144,5.1631,54.0038,-0.0497,-0.4341,-0.7454,-1.3616
17:21:18:888,-1.4357,1.6887,5.863,54.1638,-0.1306,-0.416,-0.4482,-1.1169
17:21:18:908,-1.0259,1.7533,6.8812,54.5722,-0.1455,-0.5394,-0.3545,-0.8621
17:21:18:928,-0.6574,1.7414,7.0678,54.8663,-0.0816,-0.6044,-0.4024,-0.6005
17:21:18:949,-0.3745,1.7605,7.7456,55.1172,-0.2031,-0.6683,-0.5089,-0.3313
17:21:18:969,-0.3601,1.3651,9.8967,55.3937,-0.5715,-0.7162,-0.6762,-0.0517
17:21:18:989,-0.7484,0.5623,12.2112,55.6261,-0.7963,-0.5501,-0.82,0.243
17:21:19:009,-1.596,-0.015,12.932,55.7549,-0.6152,-0.2296,-0.7795,0.5574
17:21:19:029,-1.9842,0.1029,12.932,55.4957,-0.2957,0.1016,-0.4567,0.8902
17:21:19:053,-1.675,0.5145,12.5988,55.4133,-0.0848,0.3381,-0.0531,1.2306
17:21:19:070,-1.2323,1.1276,12.46,55.3345,-0.0518,0.4158,0.1993,1.564
17:21:19:093,-0.8465,1.6116,12.719,55.2522,-0.1679,0.3359,0.2718,1.8819
17:21:19:115,-1.014,1.2072,13.4662,55.3533,-0.3586,0.1357,0.1663,2.1807
17:21:19:134,-1.6319,0.3111,13.9454,55.4013,-0.4055,-0.0218,0.0811,2.4641
17:21:19:153,-2.3342,-0.1609,13.7444,55.3289,-0.1434,-0.1752,0.1887,2.7364
17:21:19:177,-2.4514,-0.0939,12.4122,55.3172,0.3028,-0.2274,0.4506,2.9955
17:21:19:194,-1.9077,-0.0628,10.9364,55.4012,0.5425,-0.3627,0.5944,3.2349
17:21:19:214,-1.3998,-0.4678,11.2337,55.5981,0.2549,-0.6758,0.5411,3.449
17:21:19:236,-1.1456,-0.9703,12.0359,55.8119,-0.1668,-0.6981,0.4943,3.6397
17:21:19:254,-1.4907,-1.5045,11.6483,56.1518,-0.3117,-0.2818,0.5465,3.8088
17:21:19:274,-1.9771,-1.6032,10.6014,56.2775,-0.316,0.2348,0.7286,3.9539
17:21:19:296,-1.9388,-1.4423,9.5306,56.2756,-0.2563,0.4936,1.0427,4.0702
17:21:19:316,-1.5793,-0.932,8.1075,56.5915,-0.0017,0.5021,1.3453,4.0702
17:21:19:333,-0.8919,-0.2542,6.5623,56.5041,0.3806,0.2284,1.5125,4.0702
17:21:19:354,-0.2094,0.1316,5.4676,56.7559,0.6714,-0.2466,1.555,4.0702
17:21:19:376,0.3488,0.5767,4.8233,56.6548,0.8118,-0.5746,1.4955,4.0702
17:21:19:395,0.6126,1.1569,4.7276,56.6322,0.7383,-0.5937,1.3399,3.9481
17:21:19:414,0.7346,1.1521,5.0722,56.4903,0.4423,-0.2935,1.1407,3.782
17:21:19:435,0.7442,0.9769,5.5729,56.4196,0.1356,0.0666,0.9511,3.5792
17:21:19:454,0.5073,1.0175,6.414,56.5044,-0.0454,0.19,0.7265,3.3472
17:21:19:476,0.4714,0.9721,7.209,56.3355,-0.0731,0.0911,0.5092,3.0953
17:21:19:495,0.5097,1.1157,7.7432,56.498,0.0473,-0.1944,0.2995,2.832
17:21:19:516,0.9601,0.8333,8.8379,56.4874,0.1217,-0.713,0.0342,2.5649
17:21:19:535,1.5015,0.4044,10.6253,56.6761,0.0409,-1.1305,-0.2927,2.3023
17:21:19:555,1.6714,0.0329,12.2016,56.8585,-0.1125,-1.1315,-0.5654,2.0557
17:21:19:578,1.6642,-0.597,13.0014,56.9003,-0.185,-0.6715,-0.6176,1.8342
17:21:19:594,1.8054,-0.8004,13.4327,56.9644,-0.2702,-0.0794,-0.3662,1.6395
17:21:19:615,2.4042,-0.1657,14.0842,56.9118,-0.5374,0.4265,0.0257,1.4622
17:21:19:635,2.8044,0.6491,13.5715,56.9974,-0.6684,0.9078,0.0268,1.2884
17:21:19:655,2.3013,0.1747,13.4686,57.0005,-0.7931,0.8876,-0.4067,1.1164
17:21:19:676,0.5503,-1.5386,14.793,57.0543,-0.9284,0.4414,-0.8402,0.9607
17:21:19:695,-1.136,-2.8845,14.8439,56.977,-0.5896,0.0644,-0.7901,0.8381
17:21:19:715,-1.7013,-3.2106,13.9741,56.7707,0.0993,-0.1965,-0.2097,0.8381
17:21:19:737,-0.2166,-2.0704,11.8229,56.7342,0.765,-0.1603,0.6285,0.8381
17:21:19:756,1.6116,-0.082,9.4439,56.6978,1.1005,-0.0868,1.1066,0.7363
17:21:19:776,2.8953,1.2742,8.1601,56.8344,0.9066,-0.1742,0.9182,0.5956
17:21:19:796,3.0532,1.4967,8.3539,56.7773,0.4136,-0.1678,0.3611,0.4217
17:21:19:817,2.1218,0.9314,8.4048,56.7898,0.0569,0.2156,-0.1554,0.235
17:21:19:837,1.1468,0.661,7.5565,56.7914,0.0057,0.7534,-0.3843,0.0552
17:21:19:857,0.7825,0.7256,6.4594,57.1081,0.1174,1.1326,-0.3758,-0.1088
17:21:19:876,0.6389,1.0893,5.2857,57.2601,0.3071,1.2498,-0.3129,-0.257
17:21:19:898,0.4522,1.6475,4.2628,57.3434,0.5276,1.0815,-0.3182,-0.3922
17:21:19:917,0.2339,2.0309,3.7549,57.3332,0.6788,0.6246,-0.4056,-0.5129
17:21:19:937,0.1884,2.2756,3.6018,57.4186,0.6618,0.1154,-0.5334,-0.6168
17:21:19:958,0.1095,2.5053,4.4758,57.5687,0.3124,-0.1614,-0.6612,-0.6168
17:21:19:978,0.0066,2.0644,6.2895,57.7354,-0.2851,-0.139,-0.7912,-0.6168
17:21:19:998,-0.3314,1.4058,8.7972,57.8149,-0.8602,0.0421,-0.8976,-0.6168
17:21:20:018,-0.8967,0.4642,12.6467,57.6149,-1.3287,0.2731,-0.9114,-0.6168
17:21:20:038,-1.7157,-0.5324,15.7633,57.6238,-1.3138,0.6587,-0.6762,-0.6168
17:21:20:058,-2.1254,-0.7836,16.748,57.637,-0.6205,0.91,-0.1341,-0.6168
17:21:20:079,-1.1988,-0.4678,15.9027,57.7323,0.3347,0.6481,0.5465,-0.6168
17:21:20:099,0.2578,0.4929,14.1129,57.6518,1.0813,0.7013,0.8884,-0.6168
17:21:20:120,0.3775,1.8538,12.3811,57.4964,1.3528,0.6363,0.6892,-0.6168
17:21:20:140,-0.0724,2.6465,11.2959,57.2833,1.1176,0.4734,0.3515,-0.6168
17:21:20:159,-0.9541,2.2325,11.2481,57.3203,0.7405,0.3551,-0.0276,-0.6168
17:21:20:179,-2.5807,1.8897,10.9005,57.2339,0.5744,0.2976,-0.3182,-0.6168
17:21:20:201,-3.8189,1.523,9.7077,57.2062,0.5627,0.2113,-0.4397,-0.6168
17:21:20:221,-4.3268,0.5551,9.5186,57.0187,0.323,-0.2051,-0.5004,-0.6168
17:21:20:261,-4.2479,-0.5204,10.7713,56.9772,-0.0774,-0.8771,-0.4919,-0.6168
17:21:20:266,-3.4481,-1.2748,12.1753,56.9049,-0.3256,-1.3574,-0.3023,-0.6168
17:21:20:281,-2.7966,-1.4279,12.055,57.1135,-0.2883,-1.2679,0.0779,-0.6168
17:21:20:301,-2.3342,-0.9799,10.5296,57.2097,-0.0134,-0.4181,0.6114,-0.6168
17:21:20:322,-1.7013,0.0449,7.8389,57.2746,0.4072,0.3786,1.1354,-0.6168
17:21:20:342,-0.813,1.2407,5.2738,57.1332,0.616,0.5703,1.4209,-0.6168
17:21:20:362,-0.1759,2.2684,3.9846,57.4772,0.4519,0.2539,1.3591,-0.6168
17:21:20:382,0.2698,2.5986,4.1049,57.7176,0.0803,-0.1838,1.0587,-0.6168
17:21:20:402,0.3368,2.333,4.7324,57.7411,-0.2297,-0.3595,0.7276,-0.7285
17:21:20:422,0.2219,2.2205,5.0937,57.9688,-0.3288,-0.2647,0.5284,-0.8634
17:21:20:442,-0.0078,2.278,5.3145,57.8821,-0.3011,-0.1507,0.4165,-1.0139
17:21:20:462,-0.1011,2.3809,5.5561,57.7997,-0.219,-0.2146,0.2995,-1.1752
17:21:20:481,-0.1496,2.3737,6.4905,57.8927,-0.1679,-0.4991,0.0939,-1.3427
17:21:20:501,-0.4822,1.7198,8.9773,58.092,-0.2318,-0.7855,-0.1852,-1.5079
17:21:20:523,-1.0427,0.7831,11.2624,57.8655,-0.1455,-0.6928,-0.3342,-1.6618
17:21:20:541,-1.5888,0.8716,12.2231,58.0161,0.0707,-0.2008,-0.2001,-1.7978
17:21:20:562,-1.7545,1.8132,12.472,58.3027,0.0771,0.3381,-0.0393,-1.9207
17:21:20:585,-1.261,2.4191,13.392,58.3379,-0.2286,0.5085,-0.0776,-2.0371
17:21:20:602,-0.6185,1.7294,15.2602,58.3648,-0.5928,0.2614,-0.3577,-2.1446
17:21:20:622,-0.2716,0.5145,16.1994,58.2807,-0.564,0.0229,-0.6314,-2.2369
17:21:20:643,0.0353,0.1196,16.0176,58.3894,-0.1445,-0.0666,-0.6815,-2.2369
17:21:20:663,0.131,0.5815,13.7731,58.4484,0.3529,0.2188,-0.5632,-2.2369
17:21:20:684,0.3894,0.5743,11.6267,58.4407,0.4754,0.6513,-0.4663,-2.2369
17:21:20:703,0.0951,-0.058,10.7115,58.3172,0.2463,0.8035,-0.5057,-2.2369
17:21:20:724,-0.1472,-0.8291,10.1749,58.1156,0.1164,0.6992,-0.412,-2.2369
17:21:20:743,-0.3099,-1.0522,8.8762,58.0796,0.2612,0.5298,-0.1927,-2.2369
17:21:20:765,0.0688,-0.1705,7.6116,58.2271,0.3497,0.206,0.0619,-2.2369
17:21:20:784,0.9428,0.8357,7.0391,58.3208,0.0324,-0.0634,0.1439,-2.2369
17:21:20:804,0.9236,0.9027,7.873,58.3139,-0.6407,-0.1422,-0.1543,-2.2369
17:21:20:825,0.2674,-0.2088,9.2501,58.1877,-1.118,-0.1646,-0.5526,-2.2369
17:21:20:845,-0.3769,-0.5611,10.1701,58.2874,-1.005,-0.1933,-0.6591,-2.2369
17:21:20:864,-0.7268,-0.6305,9.478,58.2422,-0.4055,-0.1039,-0.4599,-2.2369
17:21:20:885,-0.5204,-0.0772,7.5924,58.0139,0.3262,0.0357,-0.0617,-2.2369
17:21:20:905,0.32,0.8859,5.5753,58.1393,0.8438,0.0144,0.2973,-2.2369
17:21:20:925,1.1324,2.1912,4.6002,58.1015,0.8907,-0.1539,0.3165,-2.2369
17:21:20:945,1.1779,2.9007,4.6487,58.2104,0.5361,-0.1571,0.014,-2.2369
17:21:20:965,0.5025,2.747,4.9789,58.1254,0.1515,0.008,-0.3555,-2.2369
17:21:20:985,0.0185,2.4766,5.6686,58.3043,-0.0401,-0.0272,-0.5547,-2.2369
17:21:21:005,-0.1208,2.3402,7.0367,58.4762,-0.1647,-0.2615,-0.6314,-2.2369
17:21:21:026,-0.1352,2.1194,8.5101,58.5832,-0.267,-0.4128,-0.6804,-2.1259
17:21:21:046,-0.4798,1.8706,10.1079,58.8726,-0.3075,-0.4586,-0.7241,-1.9956
17:21:21:067,-0.8824,1.4321,11.7272,58.8037,-0.2521,-0.4437,-0.6964,-1.8414
17:21:21:087,-1.2897,1.3005,13.1258,58.864,-0.0901,-0.2977,-0.5473,-1.6655
17:21:21:107,-1.4931,1.4824,13.459,58.7939,0.1877,0.0495,-0.281,-1.473
17:21:21:127,-1.3352,1.7821,13.1617,59.1277,0.4359,0.3253,-0.0212,-1.2738
17:21:21:147,-1.2323,2.1123,12.92,59.0075,0.5553,0.4712,0.0822,-1.0758
17:21:21:168,-1.3831,2.5651,12.4816,59.08,0.6128,0.4808,0.1322,-0.8841
17:21:21:188,-1.395,2.9055,11.5902,59.1853,0.617,0.4201,0.2419,-0.6999
17:21:21:208,-1.4501,3.2142,11.2361,59.2578,0.4764,0.255,0.2547,-0.5256
