Time,Acc_X,Acc_Y,Acc_Z,Meg,Gyr_X,Gyr_Y,Gyr_Z,Ore
17:14:18:089,-1.9196,2.9557,9.3458,64.3338,-0.1349,-0.2402,0.0289,74.3321
17:14:18:109,-1.7061,3.3368,9.5306,64.3624,-0.1775,-0.0996,0.1205,74.3321
17:14:18:128,-1.6439,3.6096,9.2046,64.3761,-0.1115,0.0676,0.1727,74.2184
17:14:18:157,-1.6654,3.8806,8.5627,64.4177,0.0132,0.0975,0.1439,74.05
17:14:18:174,-1.6702,3.8614,8.7829,64.435,0.0324,-0.1273,0.0268,73.8361
17:14:18:189,-1.7785,3.4971,9.2237,64.3484,0.026,-0.3414,-0.1213,73.5908
17:14:18:209,-1.8479,3.2429,9.3841,64.3088,0.0462,-0.3297,-0.181,73.3432
17:14:18:229,-1.8383,3.0993,9.2812,64.5543,0.043,-0.1763,-0.1533,73.1124
17:14:18:251,-1.8407,3.0132,8.9916,64.4559,0.0238,0.0176,-0.1075,72.9023
17:14:18:275,-1.9077,3.0275,8.5771,64.3993,0.0132,0.1101,-0.0862,72.7105
17:14:18:291,-1.9579,2.9868,8.4455,64.5187,-0.0209,0.0687,-0.0925,72.5334
17:14:18:312,-1.9795,2.9342,8.4263,64.5502,-0.071,0.0037,-0.0893,72.3692
17:14:18:334,-1.934,2.9725,8.4335,64.4128,-0.0965,-0.0463,-0.0606,72.2174
17:14:18:359,-1.8287,3.0179,8.6393,64.2102,-0.1232,-0.139,-0.0297,72.0744
17:14:18:378,-1.7204,3.128,8.8211,64.3338,-0.1296,-0.2083,-0.0084,71.9376
17:14:18:392,-1.7133,3.2405,9.0802,64.0429,-0.1338,-0.2466,0.0023,71.8043
17:14:18:414,-1.5721,3.2836,9.2931,64.0943,-0.1146,-0.2775,0.0119,71.6726
17:14:18:444,-1.4836,3.4277,9.1783,63.9833,-0.0571,-0.2242,0.0204,71.5419
17:14:18:459,-1.5434,3.4493,8.9988,63.828,-0.0273,-0.1624,0.0087,71.4114
17:14:18:472,-1.6271,3.3942,8.7422,63.8599,-0.0369,-0.1198,-0.0095,71.2807
17:14:18:492,-1.7133,3.4851,8.4718,63.8451,-0.072,-0.0485,0.0023,71.1508
17:14:18:512,-1.6463,3.521,8.3515,63.9931,-0.1573,-0.0293,0.0065,71.0216
17:14:18:534,-1.5984,3.3607,9.0251,63.9568,-0.2904,-0.1848,-0.0499,70.8919
17:14:18:555,-1.6774,3.0419,10.1486,63.9569,-0.3479,-0.3893,-0.117,70.7624
17:14:18:572,-1.7785,2.7858,10.6636,63.9589,-0.2414,-0.4085,-0.1149,70.6395
17:14:18:593,-1.9627,2.9414,10.0505,64.2465,-0.0859,-0.2072,-0.0222,70.5289
17:14:18:613,-1.7761,3.1543,9.2405,64.2465,-0.1051,-0.0868,0.0481,70.4279
17:14:18:642,-1.6582,3.0514,9.8848,64.1206,-0.382,-0.3041,-0.0254,70.3305
17:14:18:653,-1.4309,2.3689,11.1021,64.098,-0.6301,-0.6001,-0.1479,70.2362
17:14:18:673,-1.4764,1.8132,11.6937,64.0982,-0.5736,-0.6502,-0.1714,70.2362
17:14:18:694,-1.745,1.523,10.8766,64.1219,-0.2553,-0.3254,-0.0169,70.2362
17:14:18:714,-1.9484,1.8945,9.1759,64.1118,0.0451,0.1719,0.2643,70.2362
17:14:18:736,-1.9149,2.4383,7.995,63.9763,0.1089,0.3967,0.4612,70.2362
17:14:18:754,-1.9555,2.7882,7.9543,63.7498,0.043,0.2454,0.4421,70.2362
17:14:18:775,-1.6654,2.5627,8.8499,63.7103,0.0601,-0.2061,0.3048,70.2362
17:14:18:794,-1.0403,2.1769,9.88,63.7033,0.2272,-0.6619,0.194,70.1373
17:14:18:814,-0.3553,2.0405,10.3687,63.5055,0.4359,-0.7748,0.1567,70.0393
17:14:18:837,-0.1926,2.0955,9.8465,63.4204,0.5574,-0.3755,0.1365,69.9447
17:14:18:856,-0.667,2.4144,8.7206,63.0736,0.5467,0.2422,0.1173,69.8522
17:14:18:875,-1.4883,2.8026,7.6929,63.2019,0.4679,0.6715,0.1141,69.762
17:14:18:896,-1.6295,3.0419,6.7657,63.26,0.3752,0.7502,0.1258,69.762
17:14:18:916,-1.2658,3.3559,6.7394,63.2055,0.1984,0.4084,0.0854,69.6691
17:14:18:938,-0.5539,3.2524,8.1362,62.9038,-0.0497,-0.2413,-0.0936,69.5748
17:14:18:956,0.0449,2.613,9.789,62.8259,-0.185,-0.8015,-0.3545,69.481
17:14:18:976,0.2171,1.9543,11.3007,63.1021,-0.1913,-0.99,-0.5153,69.481
17:14:18:997,-0.1807,1.5637,11.7823,63.0729,-0.1019,-0.6342,-0.4738,69.481
17:14:19:016,-0.6329,1.6935,10.7641,63.3306,0.0057,0.125,-0.215,69.481
17:14:19:037,-0.6837,2.1936,9.7651,63.2587,-0.0624,0.6076,0.0928,69.481
17:14:19:058,-0.3936,2.613,9.8178,63.0291,-0.2467,0.4574,0.2526,69.481
17:14:19:076,-0.1998,2.8744,10.1533,63.1387,-0.3202,0.1485,0.2782,69.481
17:14:19:097,-0.0724,2.9581,10.474,63.3743,-0.284,-0.0154,0.2547,69.481
17:14:19:121,-0.2429,2.8768,10.4285,63.147,-0.1818,0.0272,0.2164,69.481
17:14:19:137,-0.4654,2.7643,9.8919,63.0453,-0.0422,0.1666,0.2132,69.481
17:14:19:157,-0.7125,2.7111,9.5569,63.0075,0.0547,0.2209,0.2505,69.481
17:14:19:180,-0.722,2.9174,9.1591,63.1727,0.1324,0.2742,0.3451,69.481
17:14:19:197,-0.5396,3.207,8.522,63.1781,0.2059,0.3242,0.4325,69.381
17:14:19:217,-0.3505,3.1759,8.2917,63.4684,0.1899,0.1953,0.3909,69.2667
17:14:19:238,-0.2644,3.0227,8.5866,63.5265,0.1196,0.0208,0.2632,69.1396
17:14:19:261,-0.5492,2.7882,8.7159,63.8116,0.0654,0.0165,0.1152,69.0041
17:14:19:278,-0.8871,2.5507,8.8355,64.0921,0.0196,-0.0059,0.031,68.8674
17:14:19:298,-0.9374,2.4574,9.2333,63.9985,-0.006,-0.1401,0.0289,68.7341
17:14:19:321,-0.7938,2.522,9.5856,63.8728,0.0132,-0.204,0.0491,68.6055
17:14:19:341,-0.7244,2.7278,9.5904,63.6682,0.0515,-0.1198,0.0502,68.4814
17:14:19:360,-0.923,2.8289,9.3769,63.6685,0.0473,-0.008,0.0033,68.3601
17:14:19:380,-1.2514,2.7446,9.3338,63.6571,-0.0092,0.0282,-0.0627,68.2427
17:14:19:400,-1.6247,2.601,9.3194,63.2993,-0.0624,0.0676,-0.0766,68.1316
17:14:19:424,-1.7641,2.5244,9.2381,63.1487,-0.104,0.125,-0.0158,68.0285
17:14:19:441,-1.6295,2.6106,9.329,63.098,-0.1423,0.1527,0.0758,67.9302
17:14:19:460,-1.3424,2.6249,9.3912,63.3305,-0.153,0.1272,0.1407,67.8336
17:14:19:481,-1.0331,2.6393,9.5115,63.2484,-0.1551,0.0985,0.1599,67.7356
17:14:19:500,-0.9805,2.668,9.7484,63.417,-0.1881,0.1154,0.1322,67.6351
17:14:19:523,-1.057,2.5101,9.4899,63.3176,-0.185,0.239,0.1088,67.5329
17:14:19:541,-1.1719,2.4957,9.3338,63.0656,-0.1775,0.2422,0.1354,67.43
17:14:19:566,-1.1312,2.5507,9.5234,63.0623,-0.1455,0.0431,0.1897,67.3257
17:14:19:581,-1.0307,2.7135,9.4176,63.2562,-0.0369,-0.0421,0.2387,67.2185
17:14:19:601,-0.9852,2.9174,9.1807,63.2411,0.0334,-0.0059,0.2547,67.1068
17:14:19:632,-1.014,2.9198,9.061,63.2452,0.0121,-0.0091,0.2196,66.989
17:14:19:641,-1.0594,2.7882,9.0849,63.2609,-0.0316,-0.0421,0.1642,66.8671
17:14:19:661,-1.0499,2.6465,9.1328,63.1355,-0.0379,-0.0655,0.1322,66.7416
17:14:19:682,-0.9757,2.5819,9.2261,63.0102,-0.0209,-0.0772,0.1322,66.6152
17:14:19:703,-0.8489,2.5651,9.3003,63.0921,0.0004,-0.1028,0.128,66.489
17:14:19:722,-0.7723,2.5436,9.3745,63.0121,0.0174,-0.1273,0.112,66.3628
17:14:19:742,-0.8273,2.5484,9.4828,62.9258,0.0121,-0.1113,0.0971,66.236
17:14:19:762,-0.8154,2.4742,9.4612,63.0638,-0.0113,-0.0708,0.1067,66.1096
17:14:19:783,-0.8249,2.5531,9.3051,63.0373,-0.0369,0.0091,0.1535,65.9845
17:14:19:805,-0.667,2.7063,9.2166,63.0925,-0.0742,0.0687,0.1961,65.8586
17:14:19:823,-0.5827,2.8457,9.1591,63.1624,-0.1157,0.0911,0.194,65.7287
17:14:19:844,-0.4726,2.8768,9.2668,63.479,-0.1413,0.0421,0.1482,65.593
17:14:19:864,-0.4343,2.7667,9.5426,63.6392,-0.121,-0.041,0.0726,65.4521
17:14:19:883,-0.5803,2.6871,9.6479,63.7963,-0.0337,-0.0644,0.0044,65.3095
17:14:19:905,-0.679,2.6465,9.5402,63.6864,0.0558,-0.0517,-0.0116,65.1684
17:14:19:924,-0.6473,2.6776,9.408,63.7106,0.0961,-0.0197,0.0097,65.0316
17:14:19:944,-0.722,2.7326,9.4056,63.5303,0.0823,-0.0091,0.0172,64.8991
17:14:19:964,-0.7603,2.7643,9.3314,63.5241,0.0558,-0.0005,0.014,64.7709
17:14:19:984,-0.7771,2.7374,9.2477,63.7179,0.0334,0.0399,0.0097,64.6458
17:14:20:004,-0.8465,2.6895,9.3673,63.5161,0.0036,0.0261,-0.0009,64.5245
17:14:20:024,-0.8249,2.613,9.5163,63.3093,-0.0092,-0.008,-0.0041,64.4078
17:14:20:045,-0.8728,2.6417,9.5545,63.1802,0.0174,0.041,0.0172,64.2951
17:14:20:090,-0.8441,2.6608,9.4199,63.4584,0.0473,0.074,0.0417,64.1864
17:14:20:090,-0.8177,2.6895,9.1759,63.369,0.059,0.1112,0.0534,64.0835
17:14:20:106,-0.7866,2.6752,9.0395,63.4919,0.0366,0.1122,0.0427,63.9823
17:14:20:126,-0.856,2.6512,9.1448,63.3878,-0.0049,0.0421,0.0204,63.8822
17:14:20:146,-0.8752,2.5986,9.3912,63.2046,-0.022,-0.0272,0.0065,63.7842
17:14:20:167,-0.935,2.6034,9.5091,63.1869,-0.023,-0.0144,0.0172,63.6905
17:14:20:188,-0.8656,2.6201,9.4923,63.4854,-0.0358,0.0314,0.0395,63.6
17:14:20:209,-0.7675,2.7691,9.4971,63.5364,-0.0561,0.0943,0.0609,63.6
17:14:20:226,-0.746,2.8361,9.4487,63.544,-0.0646,0.1325,0.0491,63.5096
17:14:20:246,-0.8321,2.7643,9.3194,63.6889,-0.0422,0.1485,0.0087,63.4182
17:14:20:266,-0.9517,2.6919,9.2836,63.7845,-0.0188,0.0943,-0.0222,63.3277
17:14:20:286,-0.9709,2.5627,9.3769,63.9354,0.0111,0.0069,-0.0244,63.3277
17:14:20:307,-0.9661,2.5412,9.4247,64.0861,0.0579,-0.0282,-0.0158,63.3277
17:14:20:327,-0.9876,2.455,9.4199,64.0093,0.0876,-0.0506,-0.0041,63.3277
17:14:20:348,-1.0451,2.4885,9.3841,63.8706,0.0834,-0.041,0.0246,63.3277
17:14:20:369,-0.9805,2.522,9.4319,63.9329,0.0515,-0.024,0.0609,63.3277
17:14:20:388,-0.9302,2.5938,9.4367,63.7584,0.0228,0.0112,0.0907,63.3277
17:14:20:408,-0.9206,2.6584,9.466,63.8707,0.0089,0.0304,0.1003,63.3277
17:14:20:428,-0.8608,2.7039,9.4439,63.9511,0.0174,0.0474,0.1067,63.3277
17:14:20:448,-0.7651,2.7571,9.3553,63.9039,0.026,0.0517,0.1035,63.3277
17:14:20:469,-0.7172,2.7643,9.4199,63.7952,0.0164,0.0208,0.0779,63.3277
17:14:20:489,-0.7986,2.7039,9.5258,63.8608,0.0111,0.0144,0.0481,63.237
17:14:20:509,-0.8417,2.6608,9.4343,63.8904,0.0324,0.0442,0.047,63.1467
17:14:20:529,-0.7699,2.7643,9.2237,64.09,0.0675,0.0868,0.0768,63.1467
17:14:20:549,-0.6574,2.8624,9.0538,64.0862,0.0771,0.0921,0.0875,63.056
17:14:20:569,-0.6598,2.8505,8.9964,63.8527,0.0441,0.0591,0.0534,62.9642
17:14:20:589,-0.746,2.7954,9.1472,63.7462,-0.0124,0.0123,0.0097,62.8713
17:14:20:609,-0.8608,2.668,9.3529,63.6742,-0.0433,-0.0261,-0.0041,62.779
17:14:20:629,-0.8369,2.6656,9.2261,63.6952,-0.0124,0.0197,0.0236,62.6888
17:14:20:649,-0.7771,2.7978,9.1663,63.7529,0.01,0.0346,0.0427,62.6888
17:14:20:670,-0.7412,2.793,9.3793,63.7232,-0.0145,-0.057,0.0225,62.6888
17:14:20:690,-0.789,2.7547,9.5545,63.6572,-0.022,-0.0889,-0.0031,62.5987
17:14:20:710,-0.8321,2.7398,9.4247,63.55,0.0025,-0.0091,0.0087,62.5987
17:14:20:730,-0.8273,2.7978,9.2501,63.619,0.0142,0.0772,0.0364,62.5987
17:14:20:751,-0.801,2.8505,9.1974,63.4944,-0.006,0.0826,0.0417,62.5987
17:14:20:771,-0.8273,2.8911,9.1878,63.4955,-0.0262,0.0623,0.0321,62.5076
17:14:20:791,-0.8632,2.8935,9.1208,63.3139,-0.0252,0.0591,0.0289,62.4168
17:14:20:812,-0.8608,2.9294,9.1831,63.3295,-0.022,0.025,0.0257,62.3258
17:14:20:831,-0.8895,2.9031,9.1902,63.3604,-0.0177,-0.0048,0.0193,62.2351
17:14:20:851,-0.9517,2.8887,9.2357,63.3564,-0.0273,-0.0165,0.0129,62.1446
17:14:20:872,-0.9278,2.7978,9.4875,63.5646,-0.0667,-0.0826,0.015,62.1446
17:14:20:892,-1.0355,2.793,9.6885,63.7024,-0.088,-0.0772,0.0385,62.0545
17:14:20:912,-1.0068,2.7643,9.6239,63.8697,-0.0731,0.0091,0.0928,62.0545
17:14:20:932,-0.8656,2.9055,9.3912,63.9366,-0.0422,0.073,0.1567,62.0545
17:14:20:953,-0.6957,2.9533,9.454,63.966,-0.0262,0.0101,0.1674,61.9593
17:14:20:973,-0.6694,2.8744,9.4971,63.8723,0.01,-0.0527,0.1418,61.8598
17:14:20:992,-0.679,2.7858,9.329,63.6916,0.075,-0.0399,0.1312,61.7559
17:14:21:013,-0.6574,2.747,9.1376,63.669,0.1004,-0.0261,0.129,61.6494
17:14:21:033,-0.6018,2.7302,9.1328,63.6669,0.0579,-0.0538,0.1194,61.5409
17:14:21:053,-0.6138,2.7182,9.2931,63.6162,-0.0017,-0.0613,0.1003,61.4309
17:14:21:074,-0.6622,2.6656,9.396,63.7561,-0.0316,-0.0368,0.0907,61.3197
17:14:21:094,-0.7053,2.6847,9.4588,63.7006,-0.0209,-0.0112,0.0917,61.2087
17:14:21:114,-0.7651,2.7135,9.3625,63.7444,-0.0017,0.0091,0.0907,61.0982
17:14:21:134,-0.8776,2.7326,9.1184,63.8416,0.0111,0.0442,0.0939,60.9876
17:14:21:154,-1.0044,2.7523,9.0227,63.7728,0.0015,0.0336,0.096,60.8771
17:14:21:174,-0.9374,2.7278,9.1017,63.6515,-0.0177,-0.0314,0.113,60.7678
17:14:21:194,-0.8321,2.7715,9.1854,63.5534,-0.0124,-0.0581,0.128,60.6588
17:14:21:215,-0.7196,2.7835,9.2261,63.4235,-0.0081,-0.0591,0.1312,60.5503
17:14:21:234,-0.609,2.8193,9.3434,63.1613,-0.0284,-0.0676,0.1312,60.4402
17:14:21:255,-0.6138,2.8481,9.5091,63.3096,-0.0593,-0.074,0.1269,60.3282
17:14:21:275,-0.5492,2.8433,9.5856,63.4731,-0.0678,-0.0399,0.1344,60.2142
17:14:21:295,-0.5085,2.9007,9.3984,63.5222,-0.0379,0.0602,0.1493,60.098
17:14:21:316,-0.518,2.9127,9.1089,63.5891,-0.0177,0.1101,0.1375,59.9788
17:14:21:336,-0.542,2.8792,8.9557,63.6194,-0.0411,0.0858,0.112,59.8575
17:14:21:356,-0.5157,2.7739,8.8068,63.7012,-0.0784,0.0698,0.0864,59.734
17:14:21:376,-0.4558,2.6345,8.8594,63.8162,-0.1125,0.0123,0.0545,59.6088
17:14:21:396,-0.4702,2.6273,8.951,63.9144,-0.1306,-0.0293,0.031,59.4838
17:14:21:416,-0.542,2.6752,8.6297,63.7783,-0.1104,0.0549,0.0353,59.3605
17:14:21:436,-0.6185,2.9916,8.1745,63.5818,-0.0667,0.1527,0.0598,59.2382
17:14:21:456,-0.8656,3.4421,7.7862,63.6345,-0.0465,0.2166,0.0609,59.1141
17:14:21:476,-1.2275,3.722,7.5494,63.761,-0.0688,0.2454,0.0225,58.985
17:14:21:497,-1.6678,3.9787,7.59,63.8173,-0.1093,0.1858,-0.0297,58.8519
17:14:21:516,-2.0273,4.0409,7.8754,63.5232,-0.1541,0.0868,-0.0734,58.7244
17:14:21:537,-2.4634,3.6479,9.1017,63.3937,-0.2393,0.0921,-0.0542,58.6026
17:14:21:557,-2.6836,3.667,9.9398,63.3554,-0.3266,0.4318,0.177,58.4864
17:14:21:577,-2.1852,3.993,10.218,63.4049,-0.43,0.7417,0.506,58.3672
17:14:21:597,-1.4859,4.2251,10.6732,63.3946,-0.6184,0.6747,0.6061,58.2332
17:14:21:617,-1.3448,4.2012,11.1308,63.4174,-0.759,0.468,0.4314,58.0785
17:14:21:637,-1.5529,3.8351,10.9962,63.3668,-0.6833,0.2294,0.1929,57.9091
17:14:21:658,-1.6534,3.466,10.3567,63.2283,-0.4076,-0.0005,0.0726,57.7349
17:14:21:679,-1.5266,3.4158,9.4588,63.4462,-0.0497,-0.0836,0.1269,57.5626
17:14:21:698,-1.1815,3.6072,8.2678,63.5066,0.2399,-0.0517,0.2441,57.3923
17:14:21:718,-0.8632,3.9452,7.3196,63.8536,0.339,-0.0538,0.2877,57.2203
17:14:21:739,-0.9087,4.2371,6.9721,63.8935,0.2346,-0.1401,0.211,57.045
17:14:21:764,-0.8824,4.1653,7.1444,63.7998,0.0356,-0.2988,0.0694,56.8681
17:14:21:785,-0.9302,4.0217,7.4632,63.7127,-0.1189,-0.3808,-0.0627,56.693
17:14:21:800,-1.2371,3.8997,8.0955,63.7846,-0.1839,-0.5065,-0.1692,56.5245
17:14:21:821,-1.3208,3.6024,8.5149,63.7623,-0.1178,-0.6331,-0.2321,56.3665
17:14:21:840,-1.3639,3.533,8.6225,63.4847,0.0313,-0.6257,-0.2332,56.2228
17:14:21:861,-1.4931,3.5019,8.6225,63.0657,0.1036,-0.5703,-0.2001,56.093
17:14:21:884,-1.5673,3.4947,8.5723,62.9517,0.0812,-0.5033,-0.1352,55.9753
17:14:21:900,-1.5147,3.7172,8.5603,62.9216,0.0302,-0.3712,-0.019,55.8672
17:14:21:921,-1.3519,3.9332,8.6847,62.7772,-0.0529,-0.2722,0.0768,55.7633
17:14:21:940,-1.3519,4.1318,8.7613,62.7689,-0.1189,-0.1614,0.1312,55.6601
17:14:21:960,-1.4548,4.4889,8.8594,62.6155,-0.1157,-0.0719,0.1823,55.5559
17:14:21:984,-1.2323,4.867,9.2572,62.4369,-0.0816,-0.1305,0.2206,55.4486
17:14:22:001,-0.7651,4.9729,10.1462,62.5131,-0.0369,-0.3691,0.1823,55.3362
17:14:22:021,-0.4199,5.0495,11.4515,62.4386,0.0004,-0.6672,0.0353,55.2205
17:14:22:045,-0.0461,4.8048,12.865,62.1555,0.0324,-0.7855,-0.1426,55.1057
17:14:22:061,0.2028,4.06,13.2532,61.9398,0.0803,-0.498,-0.3023,54.9983
17:14:22:085,0.3583,3.3966,12.8124,61.6174,0.0398,-0.1071,-0.3747,54.905
17:14:22:133,0.5408,2.9246,12.4696,61.4752,-0.1445,0.0655,-0.4439,54.905
17:14:22:136,0.6006,2.4909,12.6084,61.5427,-0.3873,0.0815,-0.5899,54.905
17:14:22:144,0.5432,1.7151,13.2676,61.363,-0.5513,-0.0836,-0.756,54.905
17:14:22:165,0.2339,0.9793,13.5117,60.9814,-0.4587,-0.1976,-0.8114,54.905
17:14:22:182,0.0377,0.5216,12.6012,60.8548,-0.1328,-0.0399,-0.6719,54.905
17:14:22:205,0.009,0.6251,10.9268,60.7335,0.1569,0.2571,-0.3598,54.905
17:14:22:226,0.2291,1.0223,9.3147,60.6709,0.2091,0.4467,-0.019,54.905
17:14:22:243,0.3272,1.5206,7.8754,60.7427,0.1004,0.6023,0.1919,54.905
17:14:22:269,0.457,1.8156,6.9577,60.4397,-0.0539,0.6342,0.292,54.905
17:14:22:283,0.8686,2.0237,6.6126,60.1439,-0.1562,0.4201,0.3059,54.905
17:14:22:304,1.0487,2.1577,6.7131,60.1002,-0.185,0.1229,0.1482,54.905
17:14:22:323,1.0199,1.8826,6.7107,60.0291,-0.1636,-0.0048,-0.117,54.905
17:14:22:345,0.5288,1.5805,6.2824,59.807,-0.0955,0.239,-0.3289,54.905
17:14:22:365,0.0544,1.2909,5.7769,60.0299,-0.0092,0.5075,-0.4237,54.905
17:14:22:384,-0.4367,1.2311,5.3049,60.0542,0.1164,0.5575,-0.4599,54.905
17:14:22:406,-0.8177,1.3268,4.852,59.9028,0.2783,0.5628,-0.4354,54.905
17:14:22:424,-1.2036,1.8682,4.5188,60.2536,0.3869,0.517,-0.3598,55.0082
17:14:22:444,-1.057,2.4981,4.8568,60.5103,0.3656,0.2497,-0.2427,55.1252
17:14:22:464,-0.5324,3.3057,5.942,60.5048,0.2314,-0.1092,-0.1234,55.251
17:14:22:485,-0.274,3.8542,7.3986,60.8503,0.0569,-0.3308,-0.1075,55.3802
17:14:22:505,-0.4893,4.2706,8.8618,60.9618,-0.1136,-0.3925,-0.2001,55.5105
17:14:22:525,-1.0283,4.4554,10.8718,60.7604,-0.3288,-0.3403,-0.3044,55.6439
17:14:22:545,-1.5218,4.4985,13.1569,60.7991,-0.5885,-0.1316,-0.3044,55.7859
17:14:22:565,-1.596,4.2251,15.5432,60.8739,-0.7739,0.0666,-0.2055,55.9335
17:14:22:586,-1.3735,3.9571,17.2128,60.9,-0.5502,0.1517,-0.0627,56.0832
17:14:22:606,-1.6128,3.926,17.2798,60.8405,0.0579,0.3189,-0.0286,56.2311
17:14:22:625,-2.1733,3.3631,16.1827,61.0354,0.5308,0.4691,-0.1032,56.3793
17:14:22:646,-2.6859,2.2804,15.3876,61.0713,0.6117,0.4521,-0.1181,56.5329
17:14:22:666,-3.3206,1.322,14.3456,61.1724,0.6277,0.6086,0.0076,56.6914
17:14:22:687,-3.862,0.9625,12.2447,61.141,0.8321,0.9654,0.2984,56.8527
17:14:22:707,-3.9224,0.9625,9.7675,61.283,1.0036,1.0708,0.6019,57.0085
17:14:22:727,-3.4098,1.334,8.0764,61.429,0.8853,0.7097,0.767,57.1526
17:14:22:747,-2.6836,1.7605,7.1827,61.4285,0.5446,0.2337,0.7627,57.2786
17:14:22:768,-2.1326,1.8849,6.6772,61.6377,0.1558,-0.0186,0.6082,57.3832
17:14:22:787,-1.9914,1.6116,6.5384,61.6677,-0.1807,-0.1156,0.3835,57.3832
17:14:22:807,-1.8909,1.0367,6.402,61.7339,-0.3991,-0.2104,0.227,57.3832
17:14:22:828,-1.5075,0.6395,6.0975,62.0344,-0.4832,-0.2807,0.2174,57.3832
17:14:22:849,-1.0786,0.6203,5.9587,62.2764,-0.4811,-0.3148,0.2867,57.3832
17:14:22:868,-0.7914,0.7472,5.9803,62.1934,-0.3895,-0.2455,0.3686,57.3832
17:14:22:889,-0.6473,0.7807,5.5155,62.3556,-0.1881,-0.0069,0.4282,57.3832
17:14:22:909,-0.7125,0.9721,4.6193,62.6441,0.0718,0.418,0.5209,57.3832
17:14:22:928,-0.8106,1.3819,3.7095,62.5278,0.2602,0.7907,0.6381,57.3832
17:14:22:949,-1.0116,2.0118,3.1825,62.621,0.3166,0.8801,0.7052,57.3832
17:14:22:969,-1.0666,2.6201,3.2136,62.8017,0.2059,0.5799,0.6487,57.3832
17:14:22:989,-0.9182,3.0467,4.3083,62.8003,-0.0539,-0.0261,0.4783,57.3832
17:14:23:009,-0.8297,3.2716,6.3278,62.9567,-0.3256,-0.6246,0.2313,57.3832
17:14:23:029,-1.1169,3.3129,8.8403,63.1823,-0.5098,-1.1976,-0.1011,57.3832
17:14:23:049,-1.5625,3.1974,10.8407,63.1841,-0.5491,-1.45,-0.3577,57.3832
17:14:23:069,-1.6822,2.9797,11.9139,63.1578,-0.6237,-1.2285,-0.4077,57.3832
17:14:23:090,-1.2682,2.68,13.8018,63.3175,-0.972,-1.0795,-0.3513,57.3832
17:14:23:110,-0.3099,2.3306,17.1649,63.3496,-1.3809,-1.2434,-0.3246,57.3832
17:14:23:130,0.3918,2.2397,19.2586,63.3424,-1.3255,-1.0784,-0.3332,57.3832
17:14:23:151,0.8806,1.9137,19.4644,63.3046,-0.8431,-0.4596,-0.3928,57.3832
17:14:23:171,0.883,1.1228,18.9087,63.1554,-0.2425,0.1495,-0.5078,57.3832
17:14:23:191,-0.0676,0.3039,17.4933,63.2823,0.2442,0.6491,-0.5856,57.3832
17:14:23:211,-0.7962,-0.2303,14.9539,63.4661,0.551,1.2327,-0.4482,57.3832
17:14:23:232,-1.0092,-0.2136,11.6794,63.5073,0.7181,1.6363,-0.133,57.3832
17:14:23:252,-0.2548,0.4116,8.9073,63.6648,0.5989,1.337,0.0854,57.4803
17:14:23:273,0.4403,1.2168,8.5125,63.8227,0.0121,0.4766,-0.0254,57.5784
17:14:23:292,0.7274,0.5791,9.9254,63.7707,-0.6407,-0.2328,-0.4407,57.677
17:14:23:312,0.32,-0.5013,9.9733,64.0836,-0.7643,-0.449,-0.8572,57.7876
17:14:23:332,-0.2716,-0.5372,8.869,64.6955,-0.5035,-0.2828,-0.8965,57.9247
17:14:23:352,-0.4032,-0.1059,7.4943,64.7622,-0.1551,-0.025,-0.624,58.0913
17:14:23:373,-0.0843,0.5121,6.1334,64.9815,0.2261,0.1005,-0.3268,58.2786
17:14:23:393,0.0832,1.0941,5.144,64.8627,0.5979,0.1623,-0.1799,58.4763
17:14:23:415,-0.3601,1.4871,4.4207,64.8558,0.9088,0.2039,-0.1288,58.6832
17:14:23:433,-0.9446,1.7892,3.9129,64.9006,1.1314,0.1431,-0.068,58.8945
17:14:23:453,-1.3304,2.1194,3.6879,65.0089,1.2326,-0.073,0.0246,59.1096
17:14:23:473,-1.2275,2.6656,3.987,64.9473,1.1612,-0.2668,0.1887,59.3259
17:14:23:493,-0.7364,3.5641,4.5906,64.6846,0.8683,-0.3073,0.3494,59.5391
17:14:23:513,-0.6957,4.4052,5.7841,64.6436,0.3699,-0.2498,0.2899,59.7408
17:14:23:533,-0.8345,4.1462,7.1157,64.4242,-0.0976,-0.1443,0.0161,59.9288
17:14:23:555,-1.1025,4.0887,8.534,64.4095,-0.3202,-0.0431,-0.1714,60.1123
17:14:23:574,-1.9268,4.6516,9.7747,64.4971,-0.3288,0.0868,-0.181,60.295
17:14:23:594,-3.0072,5.0303,11.2074,64.6375,-0.2222,0.0581,-0.1213,60.4776
17:14:23:614,-3.1125,4.6732,13.0134,64.7497,0.0387,-0.4043,-0.051,60.6589
17:14:23:634,-2.1757,4.1438,14.7547,64.8297,0.469,-1.0454,0.0193,60.8407
17:14:23:655,-1.6654,4.261,17.0381,64.961,0.7511,-1.3595,0.03,61.0247
17:14:23:675,-1.3089,3.5521,18.1113,65.1593,0.8129,-1.0326,0.0374,61.2081
17:14:23:695,-1.4381,2.3761,17.3372,65.2879,0.8566,-0.2359,0.1493,61.3912
17:14:23:715,-1.3137,1.8443,15.469,65.3787,0.9525,0.4063,0.3569,61.5706
17:14:23:735,-1.0857,2.5364,13.6361,65.5417,1.0579,0.6363,0.4389,61.7397
17:14:23:755,-1.1408,2.455,12.2614,65.4097,1.0505,0.4563,0.1834,61.8958
17:14:23:776,-1.3831,1.5494,11.2122,65.6778,0.9311,0.1783,-0.165,62.0479
17:14:23:796,-1.4501,1.0845,9.4223,65.7775,0.765,0.3317,-0.2076,62.2094
17:14:23:816,-1.3854,1.0415,7.389,65.7322,0.4892,0.8194,-0.0361,62.3838
17:14:23:836,-1.3759,1.2096,5.4796,65.6898,0.1345,1.2636,0.113,62.5625
17:14:23:857,-1.3065,1.322,3.8219,65.8703,-0.1881,1.418,0.2324,62.7358
17:14:23:877,-1.1743,1.5422,2.9186,66.1976,-0.4321,1.0431,0.3218,62.8969
17:14:23:896,-1.0307,1.9496,2.8828,66.3504,-0.5608,0.1943,0.4144,63.0407
17:14:23:917,-0.2429,2.2421,3.6329,66.6476,-0.5768,-0.7311,0.5134,63.1624
17:14:23:936,0.3751,2.5244,4.9095,66.7431,-0.5353,-1.3968,0.474,63.2589
17:14:23:957,0.5575,2.5172,6.5169,66.7756,-0.4278,-1.6642,0.2846,63.2589
17:14:23:977,0.6843,2.1673,7.5757,67.0002,-0.1796,-1.5427,0.0534,63.2589
17:14:23:997,-0.0676,2.0668,6.9649,67.0342,0.1846,-0.8824,-0.117,63.2589
17:14:24:017,-1.2873,2.2899,6.2124,66.9467,0.2985,-0.2573,-0.1117,63.2589
17:14:24:038,-1.7689,2.3282,6.7926,66.9151,0.1057,-0.221,0.0459,63.2589
17:14:24:058,-1.879,2.6656,7.9519,66.473,-0.0539,-0.1049,0.2995,63.2589
17:14:24:078,-1.6654,3.4397,8.8451,66.2534,-0.0838,0.3402,0.5784,63.2589
17:14:24:149,-1.1838,4.3328,9.5761,66.2255,-0.0475,0.6534,0.719,63.2589
17:14:24:152,-0.7005,4.9633,10.0528,66.3578,-0.0316,0.3828,0.6114,63.2589
17:14:24:154,-0.597,5.2289,11.2959,66.4781,-0.218,-0.3872,0.2803,63.2589
17:14:24:161,0.0066,4.1844,14.6734,66.8133,-0.6077,-1.0582,-0.1021,63.2589
17:14:24:180,0.3583,2.3234,17.0142,66.9982,-0.645,-0.9346,-0.2385,63.2589
17:14:24:200,0.6102,2.0883,16.6451,67.4159,-0.219,-0.1827,0.0651,63.2589
17:14:24:219,1.2209,2.5484,14.5179,67.5272,0.1483,0.5852,0.4453,63.2589
17:14:24:240,1.8508,2.8265,13.0134,67.3199,0.143,0.9558,0.5071,63.2589
17:14:24:260,2.0692,3.2166,11.3438,67.1914,0.043,1.1422,0.4069,63.2589
17:14:24:281,1.6427,3.4349,9.5426,67.1589,-0.0039,1.1337,0.2249,63.2589
17:14:24:301,1.1444,2.6895,8.5292,67.1166,-0.0688,0.6715,-0.0478,63.2589
17:14:24:321,0.6556,1.8945,7.8102,67.2873,-0.121,0.09,-0.2842,63.2589
17:14:24:340,0.2506,1.5159,7.322,67.1207,-0.2766,-0.2839,-0.3864,63.2589
17:14:24:361,-0.1711,1.4465,7.8317,67.2886,-0.5928,-0.5023,-0.3885,63.2589
17:14:24:381,-0.1831,1.2048,8.2917,67.2988,-0.7568,-0.5543,-0.3023,63.2589
17:14:24:401,0.1693,1.0391,7.7862,67.4742,-0.5779,-0.3393,-0.1469,63.2589
17:14:24:421,0.6796,1.4441,6.6102,67.6738,-0.2734,0.0644,0.0161,63.2589
17:14:24:440,0.7825,2.0788,5.4485,67.5046,-0.1178,0.3626,0.0364,63.2589
17:14:24:461,0.3583,2.6249,5.2068,67.396,-0.1594,0.2806,-0.1288,63.2589
17:14:24:482,0.0209,2.872,5.8223,67.3141,-0.2084,-0.0208,-0.3214,63.2589
17:14:24:501,0.0879,2.8409,6.4307,67.4199,-0.1008,-0.2029,-0.4535,63.2589
17:14:24:521,0.3224,3.0132,7.2138,67.358,0.0569,-0.3233,-0.5611,63.2589
17:14:24:541,0.0879,3.2357,8.0213,67.4281,0.143,-0.4021,-0.657,63.2589
17:14:24:562,-0.1376,3.4804,9.0586,67.4873,0.1292,-0.3893,-0.6655,63.3698
17:14:24:582,0.2219,3.8106,9.734,67.4557,0.0897,-0.2029,-0.5302,63.5041
17:14:24:602,0.2219,4.5727,10.4524,67.4073,0.0185,0.0762,-0.3992,63.6556
17:14:24:622,0.0185,5.1595,11.3031,67.4818,-0.0337,0.2614,-0.3608,63.8179
17:14:24:643,-0.3745,5.2361,11.6052,67.4187,0.0622,0.4297,-0.4003,63.9878
17:14:24:663,-0.667,4.9226,11.284,67.4537,0.1867,0.4606,-0.494,64.1676
17:14:24:683,-0.8441,4.4554,11.7272,67.376,0.1409,0.1719,-0.608,64.3613
17:14:24:703,-1.3759,3.9093,13.1258,67.3803,0.0111,-0.2029,-0.7369,64.5733
17:14:24:724,-1.812,3.1807,13.8616,67.2672,0.0897,-0.3009,-0.7273,64.8084
17:14:24:744,-1.788,2.6752,13.4207,67.0676,0.355,-0.1028,-0.5174,65.0666
17:14:24:764,-2.0177,2.1649,12.7525,67.324,0.4828,0.0602,-0.3832,65.3421
17:14:24:784,-2.595,1.7868,12.0239,67.3362,0.4391,0.3019,-0.2969,65.6298
17:14:24:805,-2.8612,1.8562,10.8191,67.193,0.4519,0.6736,-0.0542,65.9262
17:14:24:824,-2.5496,1.7797,9.3242,67.134,0.4359,0.7853,0.1024,66.2233
17:14:24:844,-2.595,1.7103,8.8738,67.193,0.1494,0.3988,-0.0095,66.5148
17:14:24:864,-2.2187,1.0989,9.8249,67.2259,-0.2798,-0.1827,-0.1266,66.8034
17:14:24:884,-1.8311,0.6371,10.5171,67.3904,-0.4502,-0.3702,-0.0723,67.0914
17:14:24:905,-1.7809,0.917,9.8848,67.4462,-0.2531,-0.0985,0.0928,67.3772
17:14:24:925,-1.3543,1.48,8.1051,67.368,0.076,0.304,0.3483,67.6546
17:14:24:945,-0.6837,1.9137,6.1956,67.5417,0.257,0.5032,0.5433,67.9151
17:14:24:965,-0.5037,2.0429,5.3384,67.7288,0.1952,0.3722,0.5454,68.1545
17:14:24:986,-0.3817,1.727,5.3671,67.7684,0.0834,0.0336,0.4836,68.3686
17:14:25:006,-0.652,1.9735,5.3839,67.7263,0.0876,-0.1348,0.49,68.5592
17:14:25:026,-0.923,2.5675,5.9013,67.636,0.0611,-0.1944,0.5316,68.7291
17:14:25:046,-0.9781,2.7015,6.6724,67.6491,-0.006,-0.1678,0.5113,68.8758
17:14:25:066,-1.3472,2.6895,6.8094,67.6714,0.1387,0.0421,0.4772,69.0012
17:14:25:086,-1.7498,3.0467,6.3972,67.7665,0.4296,0.1048,0.4868,69.1079
17:14:25:110,-1.7809,3.4229,6.3996,67.6948,0.4977,-0.1656,0.4783,69.1079
17:14:25:130,-1.4883,3.6742,7.7456,67.6512,0.2399,-0.5288,0.4325,69.1079
17:14:25:150,-1.069,3.9978,9.7579,67.587,0.027,-0.6033,0.3973,69.1079
17:14:25:169,-0.8943,4.3017,10.3974,67.611,0.1345,-0.2999,0.3293,69.1079
17:14:25:193,-1.3854,4.7163,10.3687,67.809,0.2218,0.0357,0.2132,69.1079
17:14:25:211,-1.7378,4.6971,10.6875,67.8498,-0.1051,0.3093,0.0875,69.1079
17:14:25:232,-1.6175,3.8231,11.878,67.9365,-0.662,0.5341,-0.0095,69.1079
17:14:25:251,-1.3376,3.2285,13.0684,67.821,-0.8037,0.565,0.0332,69.1079
17:14:25:272,-0.4104,3.332,12.9081,67.8617,-0.4214,0.4329,0.1631,69.1079
17:14:25:292,0.2961,3.3607,12.8674,67.9625,-0.1328,0.0698,0.0832,69.1079
17:14:25:312,0.7633,2.4096,13.6887,68.1048,-0.1381,-0.2381,-0.1842,69.1079
17:14:25:332,0.3918,1.602,13.7222,68.088,-0.0507,-0.0517,-0.3715,69.1079
17:14:25:352,0.0377,0.7448,12.2925,67.6873,0.1483,0.3359,-0.38,69.1079
17:14:25:373,-0.1663,0.2273,11.3462,67.3814,0.1707,0.3274,-0.3055,69.1079
17:14:25:390,-0.0987,0.5456,11.272,67.2849,0.0164,0.1517,-0.1618,69.1079
17:14:25:410,-0.0772,0.984,10.3113,67.5139,-0.0284,0.3402,-0.0126,69.1079
17:14:25:431,-0.3051,1.2144,8.5627,67.5699,0.0334,0.7257,0.0214,69.1079
17:14:25:452,-0.451,1.4536,6.5958,67.5208,0.0419,0.9739,0.0449,69.1988
17:14:25:473,-0.4199,2.0094,5.6136,67.708,-0.0997,0.7971,0.0417,69.1988
17:14:25:491,-0.4223,2.4598,5.9396,67.7345,-0.3021,0.239,-0.0989,69.1988
17:14:25:512,-0.609,2.4574,6.6772,68.1227,-0.3181,-0.2881,-0.3129,69.1988
17:14:25:533,-0.7316,2.2636,7.0295,68.4016,-0.0752,-0.498,-0.4301,69.2955
17:14:25:553,-0.6233,2.4096,6.39,68.6711,0.3177,-0.318,-0.3651,69.4049
17:14:25:571,-0.5898,3.1352,5.324,68.7932,0.535,-0.0282,-0.2438,69.5264
17:14:25:593,-0.4391,3.6526,5.1153,68.7214,0.3582,-0.0272,-0.2374,69.6556
17:14:25:612,-0.4367,3.7555,6.0616,68.6045,-0.0284,-0.1784,-0.3896,69.7907
17:14:25:636,-0.475,3.7196,7.4752,68.4385,-0.3224,-0.2381,-0.5302,69.9348
17:14:25:652,-0.7675,3.7029,8.9557,68.6231,-0.3831,-0.2296,-0.5707,70.0911
17:14:25:672,-1.6295,3.9165,10.4668,68.6298,-0.2254,-0.253,-0.5132,70.2592
17:14:25:691,-1.8574,4.3161,11.1332,68.6373,0.1111,-0.204,-0.2726,70.4397
17:14:25:712,-1.5745,5.0327,10.9029,68.5345,0.4019,-0.0495,0.0076,70.6253
17:14:25:733,-0.7771,5.4832,11.1093,68.3424,0.3635,0.0517,0.0715,70.8079
17:14:25:753,-0.6574,5.3246,12.2184,68.6611,0.1121,0.0442,-0.149,70.9835
17:14:25:773,-2.0225,4.7689,13.2341,68.5545,0.027,0.1559,-0.4535,71.1579
17:14:25:793,-3.5892,4.1127,12.8387,68.6394,0.2218,0.4989,-0.5121,71.3428
17:14:25:812,-4.5858,3.6287,11.4538,68.6119,0.4146,0.8461,-0.3321,71.5427
17:14:25:833,-5.0339,3.0778,10.8622,68.6734,0.3731,0.78,-0.0712,71.7535
17:14:25:854,-4.8538,2.9127,11.1763,68.7398,0.3102,0.4201,0.2473,71.966
17:14:25:873,-4.1641,3.3248,10.6899,68.8141,0.518,0.2209,0.5518,72.1695
17:14:25:893,-3.2106,3.1352,9.1687,68.8058,0.7554,0.0847,0.5731,72.3538
17:14:25:913,-2.741,2.3091,8.3013,68.667,0.6394,-0.3382,0.2537,72.5193
17:14:25:933,-2.6692,1.3125,8.0859,69.1377,0.2367,-0.7642,-0.0553,72.6772
17:14:25:953,-2.6213,0.6419,8.1506,69.0814,-0.1881,-0.9335,-0.0872,72.8366
17:14:25:974,-2.3581,0.7735,8.4359,69.1821,-0.4822,-0.8845,0.1226,72.9958
17:14:25:994,-1.5553,1.4991,8.2104,69.2234,-0.5162,-0.5565,0.4762,73.1459
17:14:26:014,-0.8536,2.1888,7.1396,69.1982,-0.3831,-0.1017,0.7361,73.2736
17:14:26:034,-0.4965,2.3737,6.6317,69.2425,-0.3618,0.0708,0.751,73.3695
17:14:26:054,-0.2907,2.5053,6.9194,69.4219,-0.3778,0.0133,0.6967,73.3695
17:14:26:075,-0.3458,2.9462,6.6556,69.4631,-0.1935,0.0858,0.6881,73.3695
17:14:26:095,-0.4845,3.3583,5.942,69.5693,0.0654,0.2614,0.6274,73.3695
17:14:26:154,-0.8847,3.533,5.4724,69.8521,0.1643,0.2763,0.4783,73.3695
17:14:26:156,-1.4477,3.4636,5.8295,70.0395,0.1302,-0.0272,0.3197,73.3695
17:14:26:158,-1.7713,3.4971,6.591,70.1093,0.1366,-0.4415,0.2643,73.3695
17:14:26:176,-1.5075,3.7149,7.5206,70.3614,0.1537,-0.7343,0.3186,73.3695
17:14:26:195,-0.8297,4.0433,8.8738,70.6144,0.1068,-0.8153,0.3558,73.3695
17:14:26:216,-0.5348,4.3837,10.2993,70.7225,0.1025,-0.6321,0.2877,73.3695
17:14:26:236,-0.9613,4.6469,10.6397,70.7499,0.1877,-0.3158,0.1567,73.277
17:14:26:256,-1.3735,4.7282,10.3687,70.755,0.2037,-0.0943,0.0651,73.181
17:14:26:276,-1.2299,4.599,10.6828,70.5943,0.0015,-0.1539,0.0044,73.0855
17:14:26:296,-1.0116,4.084,12.259,70.5316,-0.268,-0.3638,-0.0787,72.9909
17:14:26:316,-0.9278,3.7125,13.9262,70.6166,-0.2819,-0.4746,-0.083,72.9909
17:14:26:337,-0.5539,3.871,13.5452,70.5772,0.0441,-0.2391,0.0374,72.9909
17:14:26:357,0.1813,3.5856,12.204,70.6542,0.1984,-0.0091,0.0332,72.9909
17:14:26:377,1.0128,2.8385,12.8985,70.6993,-0.0997,-0.0826,-0.1107,72.9909
17:14:26:398,1.724,2.0764,13.8401,70.9707,-0.2084,0.0506,-0.1341,72.9909
17:14:26:417,1.7647,1.5494,12,71.0566,0.241,0.5362,-0.1107,72.9909
17:14:26:437,1.2162,1.3507,8.9145,71.2462,0.6202,0.7236,-0.181,72.9909
17:14:26:457,1.252,1.4991,8.1841,71.5751,0.3337,0.1836,-0.2438,72.9909
17:14:26:478,1.5254,1.8203,9.1113,71.8095,-0.2521,-0.2359,-0.2905,72.9909
17:14:26:498,0.7992,1.9926,9.3841,72.1317,-0.5811,-0.0218,-0.4375,72.9909
17:14:26:518,-0.003,1.8467,8.994,72.3028,-0.5736,0.2571,-0.5441,72.9909
17:14:26:540,-0.3314,1.9831,8.1936,72.4529,-0.3469,0.3359,-0.4514,72.9909
17:14:26:559,-0.0939,2.3474,6.9936,72.6456,-0.0486,0.3604,-0.2545,72.9909
17:14:26:580,0.2171,2.8481,6.0209,72.7937,0.0686,0.3274,-0.1831,72.9909
17:14:26:599,0.1406,3.3703,6.2219,72.8901,-0.0624,0.2901,-0.2767,72.9909
17:14:26:620,-0.1902,3.4349,6.6365,73.0712,-0.0859,0.3104,-0.4003,72.9909
17:14:26:641,-0.7077,3.4014,6.1214,73.0241,0.1718,0.3796,-0.478,72.9909
17:14:26:661,-0.9326,3.5569,5.5274,73.165,0.4008,0.2678,-0.4599,72.9909
17:14:26:680,-0.9039,3.722,5.7601,73.3761,0.42,-0.0889,-0.3939,72.9909
17:14:26:700,-0.6718,3.8471,6.8883,73.3555,0.3252,-0.5309,-0.3747,72.9909
17:14:26:720,-0.4989,4.0409,8.2487,73.2111,0.2421,-0.761,-0.3694,72.9909
17:14:26:741,-0.4415,4.4172,9.4971,73.5405,0.225,-0.6118,-0.2959,73.0842
17:14:26:761,-0.6646,5.0447,10.0241,73.5877,0.3028,-0.1752,-0.1884,73.1839
17:14:26:781,-0.8824,5.598,10.1677,73.3059,0.3955,0.1367,-0.1149,73.2854
17:14:26:801,-0.722,5.7224,10.3926,73.4045,0.388,0.1581,-0.1309,73.3861
17:14:26:821,-0.679,5.4568,11.2792,73.3479,0.2612,-0.0005,-0.282,73.4857
17:14:26:841,-1.2658,4.9729,12.3141,73.2971,0.1707,-0.0293,-0.4599,73.5893
17:14:26:861,-2.7003,4.8622,12.8961,73.3032,0.2357,0.2742,-0.477,73.7038
17:14:26:881,-3.5533,4.7378,12.0646,73.3813,0.3976,0.7598,-0.2449,73.8316
17:14:26:901,-3.6754,4.4076,11.0225,73.4213,0.4242,1.0037,0.0193,73.9655
17:14:26:921,-3.9368,4.1773,10.8503,73.4536,0.2815,0.9153,0.1557,74.0955
17:14:26:941,-3.8722,4.1916,10.7928,73.6467,0.2996,0.7843,0.3304,74.2162
17:14:26:962,-3.3787,4.0433,9.9882,73.6854,0.5414,0.5703,0.4463,74.3241
17:14:26:982,-3.1364,3.4158,8.6943,73.7477,0.6925,0.2603,0.3144,74.4141
17:14:27:002,-3.122,2.6776,7.94,73.9708,0.5265,-0.1049,0.1429,74.4141
17:14:27:022,-2.5783,2.266,7.7192,74.0624,0.1792,-0.3723,0.1919,74.4141
17:14:27:042,-1.9077,2.3139,7.7527,74.1468,-0.1722,-0.4554,0.3016,74.4141
17:14:27:063,-1.4572,2.3186,7.7408,74.2118,-0.4566,-0.3553,0.3387,74.4141
17:14:27:083,-1.1527,2.3904,7.2473,74.2572,-0.5896,-0.0676,0.4005,74.4141
17:14:27:103,-0.9733,2.5005,6.4857,74.4225,-0.5885,0.2177,0.4868,74.4141
17:14:27:123,-0.8321,2.6824,5.7649,74.4093,-0.4928,0.2688,0.5561,74.4141
17:14:27:143,-0.6401,3.1041,5.1948,74.4188,-0.3756,0.1442,0.6114,74.4141
17:14:27:164,-0.4678,3.4971,5.2235,74.4017,-0.3607,-0.0804,0.5752,74.4141
17:14:27:184,-0.4343,3.5498,5.8104,74.3745,-0.3927,-0.2583,0.4346,74.4141
17:14:27:204,-0.8154,3.3942,6.2943,74.5299,-0.2957,-0.351,0.2654,74.3043
17:14:27:224,-1.2514,3.1304,6.2052,74.4554,-0.0731,-0.4522,0.1429,74.1831
17:14:27:244,-1.7761,3.2692,6.2704,74.5338,0.026,-0.63,0.1003,74.0563
17:14:27:264,-1.8024,3.6742,6.9434,74.6846,-0.1008,-0.7588,0.1652,73.9275
17:14:27:284,-1.3854,4.072,8.2176,74.8462,-0.3043,-0.7695,0.2611,73.794
17:14:27:305,-1.0475,4.465,9.5402,75.0033,-0.4129,-0.5969,0.2984,73.6515
17:14:27:325,-0.8441,4.8622,10.194,74.8109,-0.414,-0.2881,0.2654,73.4984
17:14:27:345,-1.0068,5.0542,10.5248,74.8509,-0.5045,-0.1348,0.0949,73.3359
17:14:27:365,-1.014,4.6732,11.8732,74.9798,-0.8325,-0.2509,-0.1479,73.1703
17:14:27:385,-0.8656,3.7053,13.2102,75.0289,-1.054,-0.3297,-0.2767,73.0081
17:14:27:406,-1.1145,3.4181,14.2182,75.0611,-0.9529,-0.2594,-0.2608,72.8567
17:14:27:426,-0.6574,3.1232,13.6193,74.9282,-0.5917,-0.0123,-0.0989,72.7167
17:14:27:445,-0.1376,2.5627,12.4983,74.8994,-0.3735,0.1442,-0.0169,72.5824
17:14:27:466,0.2267,1.7509,12.8363,74.9482,-0.5811,0.0826,-0.0414,72.4506
17:14:27:486,0.3559,1.1641,13.3944,75.0168,-0.7643,0.2795,0.031,72.3217
17:14:27:506,0.5097,0.9338,12.1125,75.2632,-0.5237,0.7694,0.1993,72.1926
17:14:27:527,0.9404,0.6108,9.7149,75.1238,-0.2616,1.1507,0.2803,72.0585
17:14:27:547,1.0534,0.6921,8.7972,75.183,-0.4023,0.9782,0.1834,71.9163
17:14:27:568,1.0654,0.6108,9.0897,75.1378,-0.7366,0.321,-0.0372,71.769
17:14:27:587,0.4618,0.6227,8.6847,75.1984,-0.8506,0.0964,-0.2873,71.623
17:14:27:608,0.052,0.8644,8.6393,75.1892,-0.8975,0.0123,-0.4652,71.4875
17:14:27:628,-0.2405,1.1228,8.4096,75.2582,-0.8442,-0.0208,-0.4567,71.3686
17:14:27:648,-0.1328,1.3196,7.6953,75.4012,-0.6599,0.1836,-0.3864,71.2652
17:14:27:668,0.0353,1.5039,6.8548,75.3511,-0.4289,0.3583,-0.3694,71.1747
17:14:27:688,-0.2907,1.6187,6.7705,75.4874,-0.2521,0.2326,-0.4461,71.1747
17:14:27:708,-0.6449,1.806,7.2927,75.4033,-0.0624,0.008,-0.5696,71.1747
17:14:27:728,-1.0092,2.0524,7.4512,75.3774,0.2623,-0.041,-0.6176,71.1747
17:14:27:749,-0.9924,1.9831,7.5039,75.5533,0.5947,-0.1379,-0.6101,71.1747
17:14:27:769,-0.6622,2.0405,7.8365,75.6597,0.7884,-0.4373,-0.6144,71.1747
17:14:27:789,-0.408,2.3689,8.1984,75.4821,0.8587,-0.5746,-0.6186,71.1747
17:14:27:809,-0.5444,2.8361,8.4861,75.3379,0.8427,-0.6118,-0.6133,71.1747
17:14:27:830,-0.8106,3.1735,8.5986,75.3495,0.7778,-0.6108,-0.5632,71.1747
17:14:27:850,-0.9206,3.4493,8.9246,75.261,0.6703,-0.4873,-0.4407,71.1747
17:14:27:870,-0.6957,3.8973,9.4851,75.2764,0.5169,-0.2796,-0.2969,71.2761
17:14:27:890,-0.6281,4.3932,9.9446,75.2842,0.3635,-0.1411,-0.2225,71.3831
17:14:27:910,-0.4223,3.9236,11.272,75.0603,0.1846,-0.2924,-0.2916,71.4916
17:14:27:930,-0.317,3.0562,12.8028,74.8343,0.0897,-0.4192,-0.4546,71.6026
17:14:27:950,-1.069,2.8839,13.3801,75.0569,0.159,-0.1348,-0.559,71.723
17:14:27:970,-2.4012,3.533,12.676,75.1956,0.3081,0.4116,-0.5121,71.8572
17:14:27:991,-3.0168,3.7795,11.3964,75.282,0.3518,0.8642,-0.3577,72.0045
17:14:28:011,-3.0503,3.1448,10.6995,75.3942,0.1462,0.8706,-0.2438,72.1583
17:14:28:031,-2.8684,2.6632,11.217,75.2624,-0.12,0.451,-0.067,72.3154
17:14:28:051,-2.4969,2.5627,11.6794,75.2136,-0.0582,0.141,0.2142,72.4689
17:14:28:071,-2.2959,2.5412,11.1954,75.2875,0.3188,0.2007,0.3293,72.6073
17:14:28:091,-2.08,1.727,9.5115,75.4111,0.6383,0.2901,0.177,72.7295
17:14:28:112,-2.0584,1.2335,8.3468,75.1874,0.5276,-0.1188,-0.0542,72.843
17:14:28:133,-2.1206,1.1133,8.8953,75.0032,0.0643,-0.7738,-0.1501,72.9562
17:14:28:177,-1.7904,0.7017,9.8249,74.7906,-0.3064,-1.0518,-0.0489,73.07
17:14:28:180,-1.3926,0.7304,10.2706,74.6231,-0.4055,-0.7535,0.1652,73.1813
17:14:28:192,-0.9781,1.0391,9.5928,74.6646,-0.2648,-0.0964,0.4027,73.2824
17:14:28:212,-0.4343,1.3842,8.1099,74.5071,-0.0379,0.4073,0.5827,73.2824
17:14:28:233,-0.2548,1.8371,7.0534,74.4657,0.1036,0.4659,0.6391,73.2824
17:14:28:252,-0.3673,2.3521,6.8788,74.3792,0.1196,0.2443,0.5976,73.2824
17:14:28:272,-0.6377,2.601,7.0056,74.141,0.1473,0.1314,0.5369,73.2824
17:14:28:293,-0.9087,2.5651,6.5623,73.9785,0.3273,0.1879,0.5316,73.2824
17:14:28:313,-1.1001,2.8361,5.9252,73.8163,0.5339,0.0708,0.5561,73.2824
17:14:28:334,-1.1862,3.3009,5.7171,73.7579,0.5467,-0.2754,0.5188,73.2824
17:14:28:357,-1.2514,3.4588,6.5623,73.797,0.3188,-0.5895,0.4378,73.2824
17:14:28:373,-1.014,3.4062,7.6164,73.7485,0.0834,-0.5522,0.424,73.2824
17:14:28:394,-0.5324,3.5665,8.3324,73.4779,-0.0326,-0.2242,0.4538,73.1753
17:14:28:414,-0.3936,4.1438,9.0299,73.2757,-0.0507,-0.0282,0.3579,73.0508
17:14:28:434,-0.6185,4.4554,9.2381,73.3179,0.0121,-0.0879,0.1067,72.9119
17:14:28:454,-0.7986,4.52,10.1007,73.3774,-0.0624,-0.3009,-0.1181,72.7689
17:14:28:474,-1.0403,4.0528,11.8229,73.0482,-0.2329,-0.5076,-0.2545,72.63
17:14:28:498,-1.3424,3.6622,12.1896,72.9853,-0.2851,-0.4501,-0.23,72.5009
17:14:28:520,-0.7388,3.7603,12.8004,72.7453,-0.3117,-0.4149,-0.0009,72.3817
17:14:28:539,0.8614,3.7149,13.121,72.8618,-0.3596,-0.4735,0.1514,72.2643
17:14:28:559,2.1864,2.8026,13.2604,72.8667,-0.464,-0.4362,0.0033,72.1422
17:14:28:579,1.9657,1.3196,13.5763,72.7379,-0.6503,-0.0847,-0.3108,72.0201
17:14:28:599,0.7753,0.2704,13.3035,72.6848,-0.6407,0.5266,-0.445,71.9109
17:14:28:618,-0.1854,0.1579,12.0048,72.7253,-0.2968,0.9813,-0.2905,71.8207
17:14:28:638,-0.0006,0.3374,9.8393,72.9014,0.1675,0.9771,0.014,71.8207
17:14:28:658,0.7226,1.3053,8.6249,72.8307,0.4083,0.5437,0.1951,71.8207
17:14:28:680,1.0415,1.9711,8.2367,72.9505,0.3443,-0.0453,0.0161,71.8207
17:14:28:698,0.4762,2.0142,7.9304,72.8436,0.1569,-0.2402,-0.3076,71.8207
17:14:28:719,-0.1687,1.8945,7.3244,73.0125,-0.006,-0.0985,-0.4993,71.8207
17:14:28:740,-0.6281,1.9113,6.7298,73.0605,-0.1349,0.0378,-0.526,71.8207
17:14:28:758,-0.542,1.8849,6.5288,72.9659,-0.3043,0.0261,-0.4461,71.8207
17:14:28:781,-0.5133,2.0836,7.2688,72.7682,-0.4704,-0.0538,-0.3758,71.8207
17:14:28:801,-0.3936,2.1697,7.9902,72.6555,-0.4417,-0.0975,-0.3438,71.8207
17:14:28:820,-0.341,2.3019,8.007,72.5613,-0.1583,0.0517,-0.3065,71.8207
17:14:28:841,-0.5803,2.546,7.4776,72.4114,0.1483,0.3093,-0.2927,71.8207
17:14:28:860,-0.7053,2.747,7.063,72.2506,0.3039,0.3924,-0.2704,71.8207
17:14:28:880,-0.7819,2.8887,7.0391,71.9739,0.3081,0.2593,-0.2587,71.8207
17:14:28:901,-0.7747,3.1113,7.4297,72.0737,0.2485,0.0186,-0.2427,71.8207
17:14:28:921,-0.6329,3.5139,8.0859,72.1471,0.2016,-0.1539,-0.1479,71.8207
17:14:28:943,-0.667,4.2275,8.7326,72.1577,0.1824,-0.074,-0.0073,71.8207
17:14:28:962,-0.5252,4.8622,8.9486,72.1379,0.2005,0.2017,0.129,71.8207
17:14:28:980,-0.1567,5.1547,9.4851,71.919,0.2218,0.2252,0.1663,71.8207
17:14:29:002,0.2626,4.9777,10.6971,71.8153,0.2101,-0.1401,-0.034,71.8207
17:14:29:020,-0.0126,4.2108,11.799,71.8506,0.175,-0.4884,-0.4173,71.8207
17:14:29:042,-1.0499,3.789,12.7214,71.7424,0.1345,-0.5138,-0.6549,71.8207
17:14:29:061,-2.257,3.6766,13.2939,71.5807,0.1739,-0.1284,-0.5473,71.8207
17:14:29:083,-3.0909,3.2166,12.405,71.4632,0.3284,0.6033,-0.2651,71.8207
17:14:29:100,-3.7974,2.8241,11.3605,71.4182,0.3816,1.0069,-0.0073,71.8207
17:14:29:123,-3.9511,2.5172,10.9436,71.3687,0.2623,0.8652,0.2377,71.8207
17:14:29:142,-3.6227,2.4814,10.8287,71.5346,0.1782,0.5511,0.4932,71.8207
17:14:29:161,-2.8732,2.3378,10.4931,71.5941,0.1963,0.2731,0.5997,71.8207
17:14:29:182,-2.4443,1.9878,10.151,71.4509,0.1654,-0.0325,0.4889,71.8207
17:14:29:203,-2.3581,1.3244,10.1773,71.4698,-0.0071,-0.3734,0.2909,71.8207
17:14:29:220,-2.2959,0.7448,10.2227,71.2671,-0.2137,-0.5447,0.2526,71.8207
17:14:29:243,-2.0512,0.7208,10.0385,71.1176,-0.3341,-0.4778,0.4101,71.8207
17:14:29:265,-1.3567,0.9649,9.3434,71.1024,-0.3192,-0.2541,0.6349,71.8207
17:14:29:282,-0.585,1.5446,8.2917,70.9807,-0.2041,-0.0293,0.8021,71.8207
17:14:29:301,-0.1304,2.0022,7.2784,70.5888,-0.0454,0.0559,0.8373,71.8207
17:14:29:322,0.1908,2.3378,6.3565,70.2327,0.1025,0.0943,0.7766,71.8207
17:14:29:344,0.1621,2.7739,5.3647,69.96,0.1973,0.2209,0.6764,71.7111
17:14:29:363,-0.0102,3.1974,4.7204,69.4654,0.1579,0.2422,0.572,71.5788
17:14:29:385,0.0688,3.1472,5.0028,69.4106,0.01,-0.024,0.4953,71.4284
17:14:29:402,-0.0173,3.1017,5.616,69.0989,-0.0603,-0.2583,0.4069,71.2626
17:14:29:425,-0.3745,3.4134,6.0712,68.702,0.0015,-0.3009,0.3154,71.0842
17:14:29:443,-0.5133,3.3607,7.0199,68.4995,0.0387,-0.432,0.2473,70.8977
17:14:29:463,-0.6497,3.2237,8.007,68.3047,0.0505,-0.5905,0.1961,70.7058
17:14:29:484,-0.7316,3.3057,8.8738,68.264,0.127,-0.6076,0.1887,70.5118
17:14:29:505,-0.475,3.3727,9.6646,68.2425,0.2762,-0.5916,0.1823,70.3162
17:14:29:524,-0.1615,3.5761,9.9852,68.3596,0.4487,-0.5298,0.1258,70.1199
17:14:29:543,-0.4008,4.0959,9.789,68.2396,0.4658,-0.498,-0.0414,69.9247
17:14:29:564,-0.5085,4.4243,10.0624,68.1176,0.1111,-0.5724,-0.2268,69.7365
17:14:29:584,0.2124,3.9571,11.2481,68.0829,-0.4363,-0.615,-0.3033,69.5613
17:14:29:604,0.4762,3.4062,13.0732,67.8008,-0.8048,-0.565,-0.3843,69.4021
17:14:29:624,0.7298,2.9342,13.5547,67.7158,-0.7888,-0.2274,-0.4024,69.2631
17:14:29:644,1.1922,2.4048,13.9621,67.5221,-0.6461,-0.0165,-0.3417,69.1451
17:14:29:666,1.3932,1.6499,14.6399,67.1975,-0.5576,0.0453,-0.3268,69.0449
17:14:29:685,0.9308,0.8644,14.2373,67.1052,-0.333,0.3775,-0.2545,69.0449
17:14:29:705,0.399,0.6054,12.6203,66.8699,0.0558,0.7406,-0.067,69.0449
17:14:29:725,0.2195,0.7759,10.6062,66.8877,0.3571,0.7406,0.1589,69.0449
17:14:29:746,0.6724,1.7318,9.341,66.7003,0.3497,0.435,0.3824,69.0449
17:14:29:767,1.3238,2.7858,8.8044,66.8776,0.0812,0.1453,0.4367,69.0449
17:14:29:785,1.2784,3.0299,8.6058,66.9533,-0.2148,0.0687,0.1834,68.9508
17:14:29:807,0.8901,2.6776,8.1553,67.1005,-0.3213,0.1346,-0.1373,68.8525
17:14:29:826,0.7633,2.5699,7.5733,67.2514,-0.2435,0.2071,-0.2788,68.8525
17:14:29:845,0.5336,2.6345,6.7729,66.9993,-0.1466,0.3221,-0.3779,68.8525
17:14:29:866,-0.1926,2.7015,6.4331,67.0429,-0.1903,0.4467,-0.5419,68.8525
17:14:29:887,-0.6814,2.6512,6.2967,67.1391,-0.2308,0.5351,-0.576,68.8525
17:14:29:907,-0.8776,2.7523,6.2632,67.1906,-0.1317,0.4755,-0.478,68.8525
17:14:29:927,-1.0044,3.1328,6.4403,67.0277,0.0569,0.2539,-0.3726,68.8525
17:14:29:946,-1.2227,3.1232,7.0367,66.8107,0.2325,-0.0847,-0.315,68.8525
17:14:29:966,-0.9446,3.0443,8.0859,66.7159,0.4008,-0.4522,-0.2427,68.8525
17:14:29:987,-0.4989,3.3942,8.6824,66.6804,0.6735,-0.4533,-0.0617,68.8525
17:14:30:007,-0.1424,4.3113,8.5962,66.5739,0.9418,-0.1209,0.1429,68.8525
17:14:30:029,-0.1208,5.1308,8.5627,66.4295,0.9897,0.0655,0.2047,68.8525
17:14:30:048,-0.1615,5.5645,8.7876,66.4375,0.8683,0.0847,0.1365,68.8525
17:14:30:068,-0.1615,5.7272,9.1017,66.4794,0.6607,0.0826,0.0023,68.8525
17:14:30:088,-0.2979,5.6363,9.7364,66.4599,0.322,0.008,-0.1895,68.8525
17:14:30:108,-0.6837,5.1428,11.4419,66.5425,-0.0848,-0.1071,-0.3875,68.8525
17:14:30:129,-1.4285,4.6469,13.0828,66.2649,-0.2723,0.0336,-0.4599,68.8525
17:14:30:148,-2.3151,4.5751,12.8243,66.116,-0.0774,0.6193,-0.3055,68.8525
17:14:30:200,-2.8421,4.5511,11.4203,66.2144,0.1739,1.0825,-0.0808,68.8525
17:14:30:204,-2.9976,4.1079,10.9268,66.0866,0.1867,0.8748,0.0768,68.8525
17:14:30:212,-2.7673,3.5186,11.3773,65.996,0.1579,0.4094,0.2249,68.8525
17:14:30:229,-2.6572,3.2453,10.989,66.1154,0.3347,0.2379,0.3664,68.8525
17:14:30:249,-2.4826,3.1304,9.4588,66.2388,0.5244,0.3381,0.392,68.8525
17:14:30:269,-2.3079,2.9725,8.3952,66.2318,0.3656,0.2028,0.276,68.8525
17:14:30:289,-2.1302,2.5053,8.3928,66.3985,-0.1061,-0.172,0.1375,68.8525
17:14:30:309,-1.7833,1.6331,9.4487,66.4174,-0.5896,-0.5618,0.064,68.8525
17:14:30:330,-1.2826,0.9099,10.261,66.4202,-0.7931,-0.7716,0.0758,68.8525
17:14:30:350,-1.0164,0.6826,10.0983,66.5478,-0.6802,-0.5767,0.1695,68.8525
17:14:30:372,-0.9996,0.9338,8.5986,66.6509,-0.4055,-0.0176,0.3377,68.8525
17:14:30:390,-0.7388,1.3795,6.7633,66.4971,-0.1807,0.5096,0.5539,68.8525
17:14:30:411,-0.4822,1.8873,5.0913,66.347,-0.1146,0.8429,0.7286,68.8525
17:14:30:431,-0.1208,2.4718,4.2102,66.4466,-0.2414,0.8663,0.7627,68.8525
17:14:30:450,0.0975,2.9438,5.0554,66.5107,-0.5715,0.4478,0.5784,68.8525
17:14:30:471,-0.317,2.668,6.5671,66.6964,-0.8197,-0.0336,0.2419,68.8525
17:14:30:492,-1.2993,2.345,7.118,66.9807,-0.6493,-0.1944,-0.0265,68.7538
17:14:30:512,-2.0512,2.2732,7.3962,67.0531,-0.2968,-0.2072,-0.0521,68.6583
17:14:30:532,-1.946,2.5388,7.6905,66.9094,0.0238,-0.2445,0.1503,68.6583
17:14:30:552,-1.6941,3.3105,7.9878,66.9806,0.2399,-0.2903,0.359,68.5652
17:14:30:572,-1.4477,3.8279,8.7278,67.1927,0.2687,-0.4351,0.4048,68.4656
17:14:30:592,-1.1671,4.2897,9.9039,67.1793,0.1846,-0.5554,0.3643,68.3565
17:14:30:612,-0.7555,4.6445,10.8024,67.2908,0.1068,-0.4565,0.3069,68.2392
17:14:30:633,-0.4367,4.6899,11.5956,67.1362,0.0345,-0.3925,0.1567,68.116
17:14:30:653,-0.6162,4.7091,13.1426,67.1493,-0.104,-0.5479,-0.1117,67.9921
17:14:30:673,-0.6909,4.41,14.4772,67.1924,-0.1381,-0.5055,-0.2363,67.8776
17:14:30:693,-0.5133,3.8973,14.6614,67.3394,0.027,-0.1614,-0.2214,67.7763
17:14:30:714,-0.6185,3.4469,13.471,67.4326,0.176,0.2859,-0.2948,67.7763
17:14:30:734,-0.7364,2.9198,13.3346,67.2109,0.0654,0.4169,-0.4184,67.7763
17:14:30:754,0.1238,2.2349,14.0554,67.24,-0.0507,0.3498,-0.2969,67.7763
17:14:30:775,0.8542,1.9998,13.6002,67.1374,0.2485,0.3913,-0.0403,67.7763
17:14:30:794,0.5767,1.7294,11.3701,67.2097,0.8033,0.4553,-0.018,67.7763
17:14:30:814,0.1932,1.4704,8.5316,67.0686,1.0174,0.3828,-0.1032,67.7763
17:14:30:833,0.1549,1.8012,7.3962,67.0835,0.6085,0.0613,-0.0595,67.7763
17:14:30:855,0.4762,2.2995,7.3651,67.2039,-0.0081,-0.1134,0.03,67.7763
17:14:30:873,0.3655,2.3067,7.4465,67.1194,-0.4395,-0.0325,-0.0414,67.7763
17:14:30:894,0.0066,2.1625,7.0798,67.2477,-0.5917,0.0921,-0.165,67.7763
17:14:30:914,-0.1448,2.2684,6.414,67.3664,-0.5406,0.2071,-0.1692,67.7763
17:14:30:935,-0.1783,2.3306,6.2489,67.3825,-0.4822,0.2294,-0.1671,67.7763
17:14:30:955,-0.274,2.074,6.4451,67.459,-0.4257,0.1367,-0.2225,67.7763
17:14:30:976,-0.3075,2.1027,6.4881,67.6075,-0.2616,0.0485,-0.2704,67.7763
17:14:30:996,-0.4104,2.5651,6.2656,67.7278,0.0206,0.0112,-0.2927,67.7763
17:14:31:015,-0.5348,2.9414,6.3541,67.8309,0.2943,-0.0559,-0.2842,67.7763
17:14:31:036,-0.4128,2.8839,6.2895,67.915,0.3795,-0.0889,-0.2704,67.7763
17:14:31:056,-0.4558,3.4899,6.67,67.956,0.3284,-0.0336,-0.2736,67.7763
17:14:31:076,-0.4295,4.2921,7.3771,68.1672,0.2122,-0.0005,-0.2374,67.7763
17:14:31:096,-0.5109,4.7665,7.8341,68.3291,0.1249,0.0613,-0.2129,67.7763
17:14:31:117,-0.7292,5.1619,8.3252,68.5446,0.0547,0.1261,-0.2385,67.87
17:14:31:137,-1.081,5.5884,9.2309,68.7006,0.0079,0.1336,-0.2523,67.9699
17:14:31:156,-1.328,5.6315,9.9829,68.8329,0.0601,0.0613,-0.2694,68.0758
17:14:31:177,-1.4189,5.217,10.4309,68.808,0.2133,-0.0996,-0.3513,68.1881
17:14:31:197,-1.6152,4.6756,11.0154,68.8663,0.2804,-0.3478,-0.461,68.3111
17:14:31:217,-2.2959,4.3304,12.3117,69.0281,0.1632,-0.466,-0.5047,68.4501
17:14:31:237,-3.0239,4.1198,12.9703,68.8359,0.0696,-0.0964,-0.3747,68.6068
17:14:31:257,-3.5055,3.9356,11.8756,68.7157,0.1334,0.5703,-0.0989,68.7765
17:14:31:277,-3.5366,3.7555,10.8072,68.8248,0.1047,0.7821,0.1162,68.9496
17:14:31:298,-3.2106,3.4756,11.0489,68.7126,0.0004,0.4744,0.2366,69.1187
17:14:31:318,-2.8181,3.3727,10.8742,68.789,0.1132,0.1826,0.3782,69.2771
17:14:31:338,-2.2164,3.0419,9.7508,68.8972,0.3475,-0.0165,0.4197,69.4206
17:14:31:359,-2.0321,2.6393,8.9677,69.1339,0.2964,-0.2849,0.2451,69.55
17:14:31:382,-2.08,2.0596,8.8618,69.4955,-0.1093,-0.4703,0.0864,69.6723
17:14:31:401,-1.9962,1.3029,9.3577,69.5279,-0.5949,-0.481,0.0885,69.7916
17:14:31:420,-2.0345,0.9242,9.8249,69.3949,-0.841,-0.4373,0.1919,69.9058
17:14:31:444,-1.8311,1.0104,9.4439,69.5826,-0.7483,-0.3425,0.3728,70.0114
17:14:31:459,-1.2538,1.3077,8.2989,69.6411,-0.4683,-0.2455,0.5795,70.0114
17:14:31:480,-0.5803,1.5661,7.4776,69.8208,-0.2595,-0.3595,0.6988,70.0114
17:14:31:500,-0.5061,1.8419,7.3962,69.6748,-0.202,-0.5511,0.7052,70.0114
17:14:31:520,-0.7077,2.1458,7.5206,69.6664,-0.1583,-0.4202,0.7425,70.0114
17:14:31:541,-0.5922,2.5268,7.0582,69.6779,-0.0081,-0.0176,0.8575,70.0114
17:14:31:560,-0.5779,2.9509,6.1095,69.8697,0.2261,0.3093,0.8895,70.0114
17:14:31:594,-0.6305,3.1878,5.4365,70.2342,0.3965,0.2848,0.8149,70.0114
17:14:31:601,-0.7316,3.5354,5.3839,70.2227,0.3901,0.0314,0.6743,70.0114
17:14:31:621,-0.801,3.6359,6.198,70.4326,0.2048,-0.2967,0.4634,69.9089
17:14:31:641,-0.923,3.4421,7.5302,70.5046,-0.023,-0.4735,0.2771,69.7946
17:14:31:664,-0.8704,3.4014,9.1041,70.6477,-0.1466,-0.5055,0.1983,69.6754
17:14:31:681,-0.5133,3.9667,10.721,70.8076,-0.1008,-0.4298,0.1908,69.5547
17:14:31:701,-0.3529,4.2826,11.5591,70.9802,0.0409,-0.2828,0.0758,69.4338
17:14:31:721,-0.6018,4.2945,11.8325,71.1471,0.0707,-0.1561,-0.1298,69.3168
17:14:31:742,-1.0235,4.1055,12.865,71.209,-0.153,-0.1731,-0.2481,69.2106
17:14:31:764,-0.7603,3.8201,14.415,71.3597,-0.3628,-0.1795,-0.1501,69.1199
17:14:31:781,0.0185,3.8106,14.8965,71.299,-0.267,0.0581,0.0758,69.1199
17:14:31:802,1.0152,3.6311,14.2182,71.161,-0.0465,0.3615,0.161,69.1199
17:14:31:826,1.7456,2.805,13.8592,71.4097,0.0356,0.4499,0.0417,69.1199
17:14:31:842,1.7121,1.9543,13.3992,71.5527,0.1121,0.5788,-0.1075,69.1199
17:14:31:865,1.0295,1.4728,12.0144,71.6456,0.3507,0.8983,-0.1383,69.1199
17:14:31:882,0.5216,1.0008,9.6814,71.889,0.6458,1.057,-0.0648,69.1199
17:14:31:903,0.2076,1.4895,7.7169,71.998,0.7703,0.8045,0.0449,69.1199
17:14:31:924,0.2339,2.5196,6.7226,72.3898,0.5755,0.3093,0.1056,69.1199
17:14:31:943,0.3272,2.7571,6.4881,72.6666,0.1814,-0.1017,-0.0244,69.1199
17:14:31:968,-0.1107,2.3521,6.725,72.9644,-0.186,-0.302,-0.2927,69.1199
17:14:31:984,-0.7412,1.9878,7.0176,73.0203,-0.3746,-0.3808,-0.4439,69.1199
17:14:32:004,-0.9087,1.873,7.0941,72.9871,-0.4129,-0.3318,-0.4003,69.1199
17:14:32:028,-0.7436,2.0979,7.1707,72.8257,-0.4182,-0.1912,-0.2778,69.1199
17:14:32:044,-0.5635,2.388,7.7097,72.6951,-0.3671,-0.0911,-0.1895,69.1199
17:14:32:067,-0.3529,2.6345,7.861,72.6737,-0.0944,0.073,-0.1426,69.1199
17:14:32:085,-0.53,3.0491,7.2353,72.4494,0.3177,0.3615,-0.1543,69.1199
17:14:32:105,-0.5707,3.2381,6.6509,72.4447,0.584,0.4382,-0.1618,69.1199
17:14:32:129,-0.7795,3.5474,6.2004,72.4545,0.6277,0.2582,-0.1554,69.1199
17:14:32:146,-0.8225,3.746,6.3182,72.5791,0.4807,0.0133,-0.1149,69.1199
17:14:32:165,-0.4128,3.9212,6.7394,72.8479,0.2911,-0.1007,-0.0073,69.1199
17:14:32:185,-0.3099,4.5248,7.3023,73.2191,0.1462,-0.0581,0.0971,69.1199
17:14:32:239,-0.2118,5.1763,8.0333,73.3962,0.0473,-0.0154,0.1759,69.1199
17:14:32:241,0.4086,5.7727,9.2166,73.7853,0.0132,-0.1252,0.1983,69.1199
17:14:32:245,1.0774,6.1202,10.4405,73.8851,0.0601,-0.3095,0.03,69.1199
17:14:32:265,0.9817,5.8588,11.1069,73.9643,0.1334,-0.4341,-0.3417,69.1199
17:14:32:286,0.2339,5.4879,11.5711,74.1988,0.1292,-0.3893,-0.6549,69.1199
17:14:32:306,-0.8082,5.5549,12.1944,74.2745,0.0876,-0.0815,-0.6921,69.1199
17:14:32:328,-1.7641,5.2672,11.5113,74.4455,0.1292,0.4957,-0.5707,69.2244
17:14:32:346,-2.6955,4.6014,10.3783,74.7524,0.059,0.9622,-0.5142,69.3489
17:14:32:367,-3.4696,3.5186,10.2203,75.1652,-0.2116,0.9526,-0.4418,69.4908
17:14:32:387,-4.2,2.7063,10.5775,75.3908,-0.3522,0.6374,-0.2672,69.6463
17:14:32:407,-4.4614,2.4239,10.4692,75.7564,-0.1913,0.272,-0.0052,69.8093
17:14:32:429,-4.0469,2.254,9.6144,76.2501,0.0441,-0.0751,0.2366,69.9726
17:14:32:448,-3.122,1.9161,9.3003,76.5849,-0.0134,-0.4948,0.3845,70.1288
17:14:32:468,-2.1206,1.6092,9.7388,76.9554,-0.3447,-0.8047,0.4623,70.271
17:14:32:488,-1.3974,1.3053,10.1007,77.2042,-0.6567,-0.7525,0.4932,70.3946
17:14:32:508,-0.8465,1.4656,9.7986,77.4874,-0.7686,-0.3702,0.5848,70.4975
17:14:32:530,-0.3075,1.9567,8.7972,77.6603,-0.6812,0.0485,0.7595,70.4975
17:14:32:548,0.4666,2.5196,7.7001,77.7585,-0.4875,0.1815,0.9268,70.4975
17:14:32:569,0.8255,3.2189,7.4297,77.8909,-0.3447,-0.0229,0.9501,70.4975
17:14:32:595,1.2544,3.1567,7.6953,77.9148,-0.2212,-0.3308,0.8522,70.4975
17:14:32:608,1.6642,3.0849,7.7791,77.9385,0.0707,-0.4533,0.7723,70.4975
17:14:32:629,1.5685,3.3655,7.1157,78.1517,0.5105,-0.368,0.6413,70.4975
17:14:32:650,0.8973,3.4493,5.9324,78.2895,0.8779,-0.2594,0.3952,70.4023
17:14:32:670,0.3751,3.2985,5.1464,78.1711,0.9503,-0.3403,0.1194,70.2969
17:14:32:689,-0.0461,3.2453,5.2235,78.1294,0.7351,-0.4426,-0.0893,70.1901
17:14:32:710,-0.3673,3.1352,6.1693,78.1661,0.3624,-0.4628,-0.2342,70.09
17:14:32:731,-0.8201,2.8983,7.3843,78.3769,-0.0465,-0.2434,-0.3619,70.09
17:14:32:750,-1.1049,3.4373,8.2391,78.5297,-0.3991,0.3189,-0.3438,70.09
17:14:32:771,-1.2371,4.4363,9.0203,78.6932,-0.628,0.7907,-0.2991,70.09
17:14:32:791,-1.7258,4.9848,9.9206,78.6553,-0.727,0.6758,-0.5281,70.09
17:14:32:810,-2.1589,4.084,11.3175,78.909,-0.7899,0.0996,-0.9402,70.09
17:14:32:831,-2.4754,1.9232,13.538,79.0386,-0.9081,-0.2658,-1.1873,70.09
17:14:32:852,-3.0168,1.0487,15.0736,79.1147,-0.9454,0.1399,-0.9242,70.09
17:14:32:872,-2.5137,2.007,14.9324,79.201,-0.8325,0.9206,-0.2566,70.09
17:14:32:892,-0.7388,2.6752,14.1655,79.1122,-0.6716,1.2242,0.2142,70.1833
17:14:32:912,0.3511,2.7446,14.1009,79.2539,-0.5885,0.9686,0.1375,70.1833
17:14:32:932,0.0473,2.007,14.0842,79.3662,-0.4513,0.5905,-0.2395,70.1833
17:14:32:953,-0.5611,0.7926,13.215,79.5201,-0.0337,0.2348,-0.4301,70.1833
17:14:32:972,-0.3577,0.2847,11.7703,79.414,0.5361,-0.2051,-0.3236,70.2812
17:14:32:996,0.2722,0.7161,10.084,79.5239,0.8726,-0.5224,-0.1565,70.3935
17:14:33:013,0.8638,1.2622,8.79,79.4434,0.7074,-0.5437,-0.133,70.5157
17:14:33:032,0.7394,1.5087,7.6881,79.2019,0.2197,-0.1752,-0.2566,70.6442
17:14:33:052,0.0473,1.5661,6.6054,79.2982,-0.2084,0.369,-0.3811,70.7794
17:14:33:072,-0.4487,1.2861,5.6471,79.1743,-0.3778,0.5767,-0.4546,70.9237
17:14:33:096,-0.5898,1.1545,4.6654,79.1737,-0.2851,0.4425,-0.4727,71.0782
17:14:33:113,-0.6185,1.4776,4.3418,79.0698,-0.1668,0.0346,-0.4674,71.2439
17:14:33:133,-0.652,1.9831,4.9573,79.0059,-0.1605,-0.4479,-0.4407,71.4204
17:14:33:154,-0.5635,2.2828,5.4174,78.7268,-0.1338,-0.5895,-0.4194,71.6068
17:14:33:173,-0.5276,2.8074,5.671,78.7504,-0.0731,-0.3947,-0.4226,71.8018
17:14:33:197,-0.4606,3.5761,5.8391,78.8721,-0.0827,-0.0485,-0.413,72.0044
17:14:33:214,-0.5348,4.1127,6.2584,78.8969,-0.2425,0.2103,-0.4525,72.2138
17:14:33:233,-0.7819,4.3065,7.4584,78.7805,-0.4875,0.2039,-0.5654,72.4294
17:14:33:254,-1.3615,4.2275,9.2477,78.6259,-0.6514,0.0027,-0.7007,72.6536
17:14:33:274,-2.0632,3.9404,11.0758,78.5619,-0.6439,-0.1624,-0.7486,72.8909
17:14:33:299,-2.741,3.7244,12.5031,78.5859,-0.4172,-0.2104,-0.6708,73.1431
17:14:33:314,-2.9689,3.6718,12.4983,78.6838,-0.0092,-0.1571,-0.5174,73.409
17:14:33:335,-2.8445,3.5139,12.5486,78.5759,0.1814,-0.3041,-0.4578,73.6844
17:14:33:355,-2.2983,2.3234,13.2054,78.6727,0.0079,-0.6204,-0.51,73.9687
17:14:33:376,-2.2307,1.4249,14.5155,78.3373,-0.1871,-0.778,-0.4599,74.2627
17:14:33:399,-2.08,0.9314,15.2315,78.2152,-0.0305,-0.5714,-0.1628,74.5651
17:14:33:416,-1.9101,1.1976,13.5811,78.1147,0.4786,0.206,0.2462,74.8669
17:14:33:436,-2.0632,1.8179,10.9125,78.0477,0.8576,1.0367,0.5166,75.1552
17:14:33:457,-2.4251,2.3713,9.2692,77.833,0.8331,1.2871,0.6061,75.422
17:14:33:476,-2.6668,3.0156,8.4383,77.5759,0.6884,1.0591,0.621,75.6643
17:14:33:498,-2.4443,3.5139,7.8849,77.3506,0.5712,0.549,0.4698,75.8816
17:14:33:517,-2.1446,3.2961,7.9208,77.0002,0.2911,-0.1838,0.064,76.0788
17:14:33:536,-1.8766,2.1601,8.9462,77.0187,-0.2158,-0.875,-0.4109,76.2693
17:14:33:565,-1.7856,0.984,10.3567,77.023,-0.678,-1.2018,-0.6879,76.4673
17:14:33:577,-1.8933,-0.0317,11.4084,76.8068,-0.8655,-1.1656,-0.6932,76.6809
17:14:33:598,-1.718,-0.4989,11.4658,76.5109,-0.7419,-0.7386,-0.4067,76.9107
17:14:33:618,-1.3113,-0.0102,9.9613,76.4833,-0.4182,0.0953,0.0928,77.1479
17:14:33:637,-1.0451,0.6682,8.3109,76.4725,-0.1423,0.7992,0.5582,77.3759
17:14:33:658,-0.5994,1.1348,7.0152,76.5734,0.0834,0.9228,0.8564,77.5789
17:14:33:677,-0.2381,2.0237,5.9515,76.6212,0.3571,0.6651,0.9863,77.7475
17:14:33:701,0.0592,3.0275,5.2666,76.3433,0.5819,0.1581,0.8831,77.8787
17:14:33:717,0.0257,3.4923,4.9717,76.1736,0.6458,-0.3574,0.5284,77.9769
17:14:33:738,-0.1759,2.9509,5.4915,76.0835,0.4999,-0.8228,0.0406,77.9769
17:14:33:759,-0.6718,2.4503,6.4546,75.9373,0.2719,-0.9996,-0.3353,77.9769
17:14:33:778,-0.7507,1.873,7.6522,75.7305,0.0654,-0.8728,-0.5057,77.9769
17:14:33:799,-1.069,1.5661,8.5388,75.5908,-0.0348,-0.6033,-0.5632,78.0829
17:14:33:820,-1.675,1.6259,9.4947,74.9623,-0.0774,-0.3553,-0.5824,78.2061
17:14:33:840,-2.214,1.727,10.4166,74.8693,-0.0933,-0.188,-0.5366,78.3469
17:14:33:860,-2.4299,2.0381,10.946,74.6209,-0.071,-0.0687,-0.4354,78.5035
17:14:33:881,-2.4203,2.4191,11.1117,74.4071,-0.12,-0.0186,-0.331,78.6716
17:14:33:902,-1.9436,2.4191,12.0861,74.3437,-0.3405,-0.1614,-0.2534,78.8469
17:14:33:919,-1.5553,2.2995,13.797,74.3355,-0.5545,-0.3095,-0.1618,79.0254
17:14:33:941,-1.3543,2.4383,14.4939,74.1842,-0.4704,-0.1795,-0.0169,79.2026
17:14:33:960,-0.9781,2.3809,13.7031,74.1845,-0.1636,0.0261,0.1003,79.3745
17:14:33:981,-0.3912,1.9878,13.7516,74.0496,-0.0369,-0.1209,0.1333,79.5383
17:14:34:002,-0.1831,0.9194,14.7021,74.0571,-0.0326,-0.3371,0.113,79.6933
17:14:34:020,-0.3434,-0.3021,14.2636,74.102,0.257,-0.1944,0.1493,79.8409
17:14:34:041,-0.4463,-0.7645,12.3188,74.083,0.7426,0.0783,0.3144,79.9832
17:14:34:061,0.4038,-0.5468,10.3639,74.2383,0.9226,0.1719,0.5742,80.1153
17:14:34:081,1.8532,0.2177,9.2883,74.0697,0.7064,0.1559,0.7627,80.2292
17:14:34:102,2.723,1.1444,8.7541,73.9747,0.4189,0.2262,0.6913,80.2292
17:14:34:121,2.8618,1.8347,7.5757,74.0227,0.322,0.4893,0.4314,80.2292
17:14:34:141,2.519,2.2947,5.6758,74.0752,0.2964,0.8386,0.1045,80.2292
17:14:34:161,1.9705,2.723,4.1671,74.1481,0.0834,1.0378,-0.2214,80.2292
17:14:34:182,0.9476,2.9174,3.9655,74.0748,-0.3181,0.9952,-0.5483,80.2292
17:14:34:202,0.0305,2.2229,4.797,74.1649,-0.6067,0.663,-0.8253,80.2292
17:14:34:222,-0.4702,1.6451,5.4485,74.0479,-0.5331,0.2188,-0.9349,80.2292
17:14:34:275,-0.9948,1.8467,5.6806,74.387,-0.2542,-0.0325,-0.8849,80.3456
17:14:34:277,-1.5386,2.1793,5.9898,74.5309,-0.0497,-0.1944,-0.7571,80.4883
17:14:34:282,-1.6175,2.266,7.0319,74.6514,0.0377,-0.5181,-0.6037,80.6523
17:14:34:307,-1.4644,2.5196,7.7001,74.6265,0.1558,-0.6651,-0.4482,80.8321
17:14:34:322,-1.3017,3.2836,8.2439,74.6383,0.192,-0.4383,-0.2758,81.0228
17:14:34:343,-1.0068,3.6957,9.329,74.8091,0.0217,-0.1795,-0.1383,81.2174
17:14:34:369,-1.1216,3.993,10.4644,74.9444,-0.1455,0.0154,-0.1107,81.4092
17:14:34:383,-1.5769,4.2036,11.2935,75.0498,-0.1892,0.1666,-0.1554,81.5959
17:14:34:403,-1.8718,4.1151,11.7129,75.0031,-0.1296,0.2113,-0.198,81.7797
17:14:34:424,-1.8861,3.7627,12.2207,75.0566,-0.0603,0.1133,-0.2055,81.9629
17:14:34:443,-1.788,3.7005,13.1306,75.0983,-0.0369,-0.0101,-0.1639,82.1466
17:14:34:467,-1.6247,3.746,13.8281,75.1329,0.0515,0.0091,-0.1053,82.3285
17:14:34:484,-1.9077,3.6407,12.9894,75.2818,0.2506,0.3487,-0.117,82.5082
17:14:34:504,-2.6764,3.1639,11.5065,75.3843,0.3039,0.696,-0.2023,82.6878
17:14:34:524,-3.5055,2.2732,11.3797,75.4535,0.1558,0.5288,-0.2566,82.8706
17:14:34:544,-3.7448,1.4895,11.3055,75.5521,0.1888,0.0698,-0.1618,83.0574
17:14:34:568,-3.0598,1.3172,10.721,75.4701,0.4189,-0.3979,0.0129,83.2474
17:14:34:586,-2.1565,1.3603,10.1342,75.6254,0.4338,-0.7738,0.0342,83.4359
17:14:34:606,-1.3304,1.3244,10.1533,75.3967,0.0206,-0.9804,-0.0872,83.6206
17:14:34:626,-1.1025,1.1976,10.3854,75.3982,-0.5694,-0.794,-0.2406,83.8042
17:14:34:645,-1.3041,0.469,10.4931,75.3917,-0.9678,-0.383,-0.3523,83.989
17:14:34:668,-1.3184,0.2991,9.8225,75.1859,-0.9624,-0.0314,-0.2332,84.1782
17:14:34:686,-1.1288,1.0152,8.7757,75.3434,-0.6865,0.1794,0.08,84.3681
17:14:34:706,-0.7555,1.6187,8.0094,75.2925,-0.3351,0.0985,0.3792,84.5482
17:14:34:726,-0.0891,1.9472,7.2784,75.3586,0.0993,-0.1933,0.5837,84.7082
17:14:34:746,0.5312,2.208,6.5001,75.2358,0.5659,-0.4373,0.6647,84.8429
17:14:34:768,0.5575,2.5842,5.918,75.5733,0.8608,-0.5607,0.571,84.9513
17:14:34:787,-0.1352,2.5699,6.0688,75.6053,0.8768,-0.6023,0.3558,84.9513
17:14:34:807,-0.6066,2.007,6.5719,75.5691,0.7895,-0.5714,0.1951,84.9513
17:14:34:828,-0.8728,1.9424,6.9697,75.7942,0.7394,-0.4394,0.1897,84.9513
17:14:34:847,-0.7436,2.3689,7.4082,75.6729,0.6628,-0.3659,0.2718,84.9513
17:14:34:870,-0.4558,2.6441,8.1147,75.5381,0.5425,-0.4394,0.2334,84.9513
17:14:34:888,-0.2764,2.8624,9.0156,75.4365,0.4253,-0.5543,0.0534,84.9513
17:14:34:907,-0.2166,2.9964,9.9254,75.353,0.3411,-0.615,-0.1682,84.9513
17:14:34:928,-0.1232,3.0132,10.2969,75.0518,0.3092,-0.5501,-0.3534,84.9513
17:14:34:948,-0.2142,3.2309,10.5147,75.2109,0.1973,-0.4671,-0.5068,84.9513
17:14:34:973,-0.0628,3.2764,10.8933,75.0207,-0.0774,-0.4362,-0.5909,84.9513
17:14:34:989,0.3009,3.195,11.9545,74.9562,-0.4651,-0.3893,-0.6304,85.0498
17:14:35:009,0.4187,2.994,13.2078,74.7361,-0.7302,-0.1731,-0.6644,85.167
17:14:35:029,0.5456,3.0132,13.672,74.8068,-0.662,0.1687,-0.6527,85.3049
17:14:35:049,0.8758,2.8624,13.7922,74.8731,-0.43,0.3604,-0.6357,85.4619
17:14:35:070,1.1731,2.2612,14.3001,74.8894,-0.2158,0.3636,-0.6463,85.6363
17:14:35:090,1.1707,1.3244,13.2724,75.1147,0.1292,0.5927,-0.6559,85.8297
17:14:35:109,1.0295,0.7926,10.4524,75.1312,0.4764,0.9813,-0.6229,86.0423
17:14:35:129,1.0463,1.008,8.857,75.286,0.3443,0.8461,-0.5451,86.2739
17:14:35:149,1.2162,0.7184,9.3984,75.4352,-0.1764,0.1943,-0.5547,86.5205
17:14:35:170,0.9236,0.6347,9.6144,75.6958,-0.3991,-0.0911,-0.5622,86.7789
17:14:35:190,0.3488,0.9051,9.0897,75.9712,-0.1647,-0.025,-0.478,87.0495
17:14:35:210,0.3129,0.8812,7.7169,76.099,0.2506,0.0613,-0.3513,87.3298
17:14:35:233,0.4905,0.9936,5.5825,76.3036,0.5499,0.1985,-0.2289,87.616
17:14:35:250,0.5958,1.5494,4.0421,76.4264,0.4434,0.1676,-0.1969,87.9041
17:14:35:271,0.4211,2.1147,4.203,76.62,-0.0326,-0.073,-0.3481,88.1909
17:14:35:291,0.1119,2.0907,5.0483,76.911,-0.4832,-0.123,-0.5877,88.4786
17:14:35:311,-0.3769,2.1218,5.5753,77.0387,-0.629,0.0964,-0.7443,88.7749
17:14:35:335,-0.8536,2.3809,5.1996,77.0166,-0.5363,0.3487,-0.788,89.0846
17:14:35:351,-1.0307,2.8481,5.1607,77.0549,-0.4608,0.2901,-0.7763,89.4097
17:14:35:372,-0.6885,3.3033,6.6197,77.0756,-0.4864,-0.2019,-0.7529,89.7486
17:14:35:391,-0.3505,3.6215,8.4455,77.3415,-0.4204,-0.7343,-0.7571,90.0993
17:14:35:412,-0.1304,3.8106,10.7833,77.4936,-0.2776,-1.0635,-0.8349,90.462
17:14:35:433,-0.3314,3.5617,11.9761,77.2299,0.0398,-0.8973,-0.8615,90.8416
17:14:35:453,-1.0307,3.95,11.4969,77.2142,0.4328,-0.22,-0.7262,91.2392
17:14:35:473,-1.2778,4.41,10.7833,77.106,0.5276,0.4041,-0.5004,91.6505
17:14:35:493,-1.3711,4.5511,10.1342,77.3727,0.3188,0.8045,-0.3822,92.0667
17:14:35:512,-1.4764,4.6158,10.0935,77.4737,-0.039,0.9302,-0.3768,92.4825
17:14:35:536,-1.3902,4.7426,11.0806,77.6784,-0.3767,0.7321,-0.3917,92.8963
17:14:35:554,-0.9517,4.6612,12.0024,77.4613,-0.4981,0.3892,-0.4503,93.3066
17:14:35:575,-0.3721,3.9643,12.9799,77.5774,-0.5353,-0.1262,-0.6868,93.7151
17:14:35:594,-0.14,2.6393,14.6184,77.9329,-0.6386,-0.7024,-1.0521,94.1307
17:14:35:613,-0.2022,0.8189,16.1803,78.1197,-0.5608,-0.9943,-1.3375,94.5667
17:14:35:636,-0.8225,-0.6855,15.8931,78.0668,-0.0848,-0.7354,-1.3865,95.0353
17:14:35:654,-1.9699,-0.6497,13.2772,77.8658,0.5478,0.0431,-1.1437,95.5422
17:14:35:676,-2.1733,-0.2351,10.6086,77.9688,0.7554,0.5053,-0.7369,96.0799
17:14:35:695,-1.2969,0.0909,8.9462,78.0345,0.4668,0.5032,-0.4013,96.6329
17:14:35:714,-0.3817,0.4522,8.1218,78.2492,0.0089,0.3264,-0.2937,97.1873
17:14:35:738,-0.2261,0.6156,8.802,78.4185,-0.3927,-0.0719,-0.4077,97.7367
17:14:35:755,0.0138,0.2512,9.6503,78.5459,-0.4566,-0.5044,-0.5185,98.2826
17:14:35:775,0.0688,0.2512,9.8369,78.5241,-0.0848,-0.68,-0.4514,98.8295
17:14:35:795,0.2794,0.5384,8.994,78.6341,0.5467,-0.6566,-0.2459,99.3773
17:14:35:815,0.7011,1.3268,7.3149,78.6981,1.1772,-0.4724,-0.0084,99.9212
17:14:35:838,0.792,1.9184,5.4197,78.4348,1.5403,-0.2253,0.0683,100.4545
17:14:35:856,0.3392,2.4,3.987,78.1645,1.5425,-0.1081,-0.0606,100.9745
17:14:35:880,-0.0006,2.6249,3.2901,77.9933,1.2443,-0.2125,-0.2363,101.485
17:14:35:896,-0.1376,2.8385,3.8841,77.4954,0.7501,-0.4288,-0.363,101.9909
17:14:35:916,-0.3793,2.5962,4.986,77.2881,0.2538,-0.4522,-0.4993,102.4934
17:14:35:938,-0.935,2.1003,6.2267,77.0093,-0.072,-0.3489,-0.6431,102.9966
17:14:35:957,-1.5601,1.9352,7.1539,76.8994,-0.1935,-0.3393,-0.6868,103.5067
17:14:35:978,-1.6534,2.4407,8.0189,76.7756,-0.1977,-0.498,-0.6005,104.0248
17:14:35:997,-1.1671,3.14,9.2261,76.9015,-0.2425,-0.7258,-0.5782,104.5473
17:14:36:017,-0.7388,3.3775,10.5559,76.9511,-0.4683,-0.777,-0.7433,105.0721
17:14:36:038,-0.4152,2.723,12.3093,76.9601,-0.8921,-0.6481,-0.9647,105.6049
17:14:36:057,-0.2046,2.007,13.9837,77.2147,-1.2137,-0.5033,-1.0872,106.1539
17:14:36:077,-0.4199,1.9472,15.2172,77.4478,-1.1615,-0.3925,-1.0883,106.723
17:14:36:097,-0.4845,2.266,14.8199,77.5344,-0.6908,-0.1763,-0.9509,107.3135
17:14:36:118,-0.1735,3.1065,12.7525,77.4748,-0.1434,0.0634,-0.7614,107.9207
17:14:36:138,0.4714,3.7938,12.5533,77.7047,-0.1285,-0.0719,-0.7912,108.5365
17:14:36:157,0.816,3.1065,13.7803,77.7839,-0.4704,-0.0889,-0.9967,109.161
17:14:36:178,0.5312,1.9591,13.9884,77.9355,-0.4747,0.2699,-1.0659,109.8013
17:14:36:198,0.5168,0.7543,13.2963,78.1587,-0.1146,0.3306,-0.9455,110.46
17:14:36:218,0.4762,0.6323,12.3045,78.1835,0.2943,0.1453,-0.6612,111.134
17:14:36:241,0.2554,1.1904,10.4596,78.2264,0.6138,0.2731,-0.2598,111.8146
17:14:36:260,-0.0006,1.669,8.3856,78.2404,0.8012,0.5341,0.1067,112.4872
17:14:36:322,0.6676,2.3737,6.6269,78.1943,0.8086,0.4553,0.3909,113.1384
17:14:36:324,1.8173,3.2261,6.0664,78.1378,0.5371,0.025,0.4154,113.7588
17:14:36:325,2.9001,3.344,6.9841,77.9616,0.0377,-0.4341,0.0619,114.3469
17:14:36:343,2.6919,3.0395,8.5531,77.6372,-0.2808,-0.6555,-0.478,114.9152
17:14:36:360,1.2281,2.5819,9.0084,77.3885,-0.0688,-0.7088,-0.9402,115.484
17:14:36:381,0.1645,2.455,8.342,77.417,0.5031,-0.6481,-1.0744,116.0698
17:14:36:400,0.1023,2.8074,6.8405,77.166,1.0281,-0.4756,-0.9381,116.6769
17:14:36:421,0.1262,3.3631,5.683,77.1506,1.1495,-0.4224,-0.8997,117.3006
17:14:36:441,0.0114,3.3583,5.9707,76.7703,0.8182,-0.5076,-1.0616,117.938
17:14:36:460,-0.0796,3.0227,7.2162,76.293,0.3752,-0.3968,-1.1948,118.594
17:14:36:481,-0.3123,3.0132,8.1003,75.8763,0.1451,-0.0091,-1.1532,119.2727
17:14:36:501,-0.5348,3.4253,8.208,75.7645,0.0993,0.4212,-0.9434,119.9725
17:14:36:521,-0.7172,4.2897,8.9701,75.3525,0.0068,0.6033,-0.6985,120.6852
17:14:36:540,-0.88,4.544,10.3711,74.8638,-0.1051,0.5341,-0.5664,121.4008
17:14:36:561,-1.1073,4.261,11.1978,74.7231,-0.0113,0.4308,-0.4983,122.1144
17:14:36:582,-1.34,4.2849,11.26,74.5228,0.2048,0.4009,-0.379,122.8239
17:14:36:604,-1.6128,4.9418,11.3653,74.5051,0.2623,0.4925,-0.2001,123.5258
17:14:36:621,-1.1001,5.0973,11.3055,74.6149,0.1366,0.7161,-0.0648,124.2136
17:14:36:642,-1.1073,4.6301,11.4419,74.7679,-0.0348,0.7736,-0.1831,124.882
17:14:36:662,-1.8311,3.6215,12.0263,74.7692,-0.1274,0.4744,-0.4855,125.5359
17:14:36:682,-2.0321,2.3569,12.3715,74.6732,-0.0113,0.108,-0.6101,126.1853
17:14:36:704,-1.6247,1.0415,11.5089,74.6002,0.3028,-0.1262,-0.5132,126.8371
17:14:36:723,-1.8407,0.9673,10.1103,74.357,0.4711,-0.0932,-0.4077,127.4898
17:14:36:742,-1.9125,1.212,8.8762,74.2818,0.2602,0.0346,-0.2449,128.1413
17:14:36:764,-1.34,1.5685,8.2176,74.1285,-0.0869,0.0783,-0.051,128.7842
17:14:36:783,-0.9278,2.1242,8.1673,74.0788,-0.3383,0.0091,0.0332,129.4087
17:14:36:807,-0.7053,2.4814,8.1625,74.1471,-0.4044,-0.0719,0.0598,130.0112
17:14:36:824,-0.7842,2.6824,8.0285,74.039,-0.3011,-0.0943,0.0885,130.5905
17:14:36:844,-0.5779,2.5172,7.6857,74.3164,-0.0869,-0.1379,0.1493,131.147
17:14:36:864,-0.4104,2.7619,7.2449,74.2684,0.1505,-0.1486,0.2451,131.6803
17:14:36:884,-0.1448,2.9222,6.8501,74.3327,0.273,-0.1326,0.2909,132.1895
17:14:36:906,-0.3505,3.0634,6.5216,74.3762,0.2911,-0.09,0.2121,132.6733
17:14:36:924,-1.1216,3.1974,6.5432,74.4945,0.257,-0.0463,0.0736,133.1358
17:14:36:945,-1.7498,3.0084,6.6891,74.4281,0.2698,-0.0527,0.0236,133.5816
17:14:36:965,-1.9819,2.7691,6.7226,74.2785,0.3656,-0.139,0.0662,134.0126
17:14:36:985,-2.2116,3.2692,6.9482,74.1955,0.4562,-0.2679,0.1727,134.4281
17:14:37:005,-2.2235,3.8058,7.928,74.0559,0.4828,-0.4863,0.2664,134.8249
17:14:37:025,-1.9675,4.1127,9.0826,73.918,0.551,-0.7525,0.2505,135.1999
17:14:37:045,-1.7037,4.6756,9.7316,73.6669,0.6224,-0.8153,0.1344,135.5542
17:14:37:066,-1.328,5.0901,10.3807,73.3057,0.4764,-0.7642,-0.0478,135.8944
17:14:37:087,-1.1623,5.0997,11.3414,72.8849,0.0897,-0.647,-0.3065,136.2271
17:14:37:107,-1.0475,4.477,12.5605,72.5318,-0.3437,-0.3542,-0.5132,136.5613
17:14:37:126,-1.1767,3.7938,13.4112,72.4518,-0.4907,0.0133,-0.5334,136.9039
17:14:37:147,-0.8082,3.7101,12.8937,72.2731,-0.2244,0.2848,-0.3044,137.2556
17:14:37:166,0.2195,3.6933,11.6219,72.2821,0.0983,0.2539,-0.1053,137.6084
17:14:37:187,1.0941,2.8241,11.5328,72.3703,0.0334,-0.0581,-0.2193,137.9564
17:14:37:207,1.1563,2.0668,12.3882,72.582,-0.169,-0.1763,-0.3662,138.3051
17:14:37:228,0.7226,1.4871,12.393,72.82,-0.0571,-0.0186,-0.3438,138.66
17:14:37:247,0.5503,1.0319,10.532,73.0868,0.3369,0.1868,-0.1863,139.0215
17:14:37:267,0.9212,1.3795,8.4431,73.1298,0.5403,0.1996,0.0321,139.3836
17:14:37:288,1.252,2.5507,7.2712,72.9816,0.2889,0.0911,0.1226,139.739
17:14:37:307,0.603,3.32,7.1874,72.988,-0.2297,0.1549,-0.0606,140.0816
17:14:37:327,-0.3553,3.1089,7.6379,72.7475,-0.5576,0.3423,-0.2502,140.4174
17:14:37:348,-0.6646,3.1543,7.4656,72.5912,-0.3501,0.3786,-0.1213,140.7515
17:14:37:368,-0.3817,3.2213,6.0855,72.5208,0.1579,0.369,0.0971,141.0788
17:14:37:388,0.0329,3.3823,4.6965,72.3846,0.3976,0.3541,0.1514,141.3937
17:14:37:410,0.4594,3.7364,4.7563,72.2904,0.143,0.173,0.0033,141.696
17:14:37:429,0.2506,3.8973,5.6566,72.3537,-0.2137,0.057,-0.3193,141.9893
17:14:37:449,-0.6305,3.4277,6.5312,72.4104,-0.3415,-0.0144,-0.6889,142.2851
17:14:37:469,-1.4955,2.7595,7.1109,72.4661,-0.2265,-0.1816,-0.8509,142.5959
17:14:37:489,-2.013,2.4694,6.9171,72.6524,-0.006,-0.2296,-0.7241,142.9276
17:14:37:509,-2.0752,2.872,6.4953,72.7258,0.076,-0.1699,-0.4599,143.2752
17:14:37:529,-1.7402,3.588,7.0582,72.5792,-0.1061,-0.2349,-0.2523,143.6287
17:14:37:549,-1.1503,4.1725,8.3492,72.6872,-0.3607,-0.3457,-0.1618,143.9795
17:14:37:571,-0.6814,4.5607,9.8871,72.7441,-0.4204,-0.4554,-0.133,144.3243
17:14:37:591,-0.4702,4.7234,10.7856,72.9947,-0.2936,-0.3467,-0.1927,144.6623
17:14:37:610,-0.3553,4.7641,11.5304,73.2136,-0.366,0.2646,-0.3374,144.9975
17:14:37:630,-0.4175,4.3376,13.1976,73.2135,-0.4481,0.8588,-0.5174,145.3352
17:14:37:650,-1.7593,3.5713,12.1729,73.1176,0.0174,1.0421,-0.6996,145.6829
17:14:37:673,-3.472,3.8997,10.7665,73.2747,0.3518,0.8514,-0.6644,146.048
17:14:37:691,-4.2311,4.5775,10.474,73.2481,-0.0103,0.8801,-0.3172,146.4288
17:14:37:712,-3.5318,4.7904,11.4515,73.2618,-0.5608,0.9803,0.1557,146.8077
17:14:37:731,-2.7769,5.1835,11.6794,73.2764,-0.6695,0.6864,0.4708,147.1639
17:14:37:752,-2.1972,4.6636,11.8158,73.2086,-0.4427,0.0431,0.4059,147.4863
17:14:37:776,-1.9077,2.8816,11.5543,72.9953,-0.1626,-0.6853,0.1216,147.7805
17:14:37:792,-1.9005,0.5719,10.5123,73.0048,0.1164,-1.2327,-0.1117,148.0606
17:14:37:812,-2.1326,-0.5133,10.0098,73.1734,0.0707,-1.4373,-0.1746,148.3383
17:14:37:834,-1.7856,0.2273,9.7436,73.1124,-0.268,-1.0433,-0.019,148.6164
17:14:37:852,-0.9852,1.6283,9.3218,73.2649,-0.4843,-0.5437,0.1237,148.8872
17:14:37:874,-0.1543,1.9687,8.1936,73.0895,-0.4342,-0.2967,0.1525,149.1451
17:14:37:892,0.5743,1.8634,7.4536,73.1927,-0.2904,-0.1742,0.0843,149.3907
17:14:37:913,0.4834,1.8036,6.3709,73.2973,-0.235,0.0666,-0.083,149.6266
17:14:37:933,-0.262,1.9902,6.6724,73.2777,-0.4438,-0.0389,-0.3246,149.8602
17:14:37:954,-0.7771,1.7581,7.6427,73.4545,-0.6397,-0.3276,-0.4375,150.0997
17:14:37:976,-1.136,1.1976,8.2917,73.5101,-0.4619,-0.3691,-0.3726,150.3473
17:14:37:993,-1.9388,1.13,8.3731,73.5419,-0.186,-0.1369,-0.2481,150.6024
17:14:38:013,-2.3198,1.8395,7.3914,73.6487,0.0812,0.1538,-0.0361,150.8609
17:14:38:034,-1.6439,1.8778,7.3651,73.7268,0.2996,-0.0431,0.1365,151.1146
17:14:38:053,-1.3137,1.7677,8.1529,73.6908,0.47,-0.4298,0.0939,151.3592
17:14:38:077,-1.6199,1.9041,8.8522,73.6763,0.6788,-0.5927,-0.0563,151.5975
17:14:38:094,-1.8479,2.2708,9.0873,73.5726,0.9013,-0.5383,-0.1266,151.8366
17:14:38:114,-0.9829,2.8528,9.4128,73.29,0.978,-0.4032,-0.1043,152.0781
17:14:38:136,-0.6837,3.3631,9.7292,72.893,0.7746,-0.2892,-0.2406,152.3215
17:14:38:155,-1.5601,2.817,10.5075,72.6653,0.2186,-0.3744,-0.5654,152.5722
17:14:38:177,-2.3892,2.141,11.7296,72.3554,-0.4406,-0.3563,-0.6698,152.8401
17:14:38:195,-2.7194,2.266,12.9344,72.2001,-0.9646,-0.0591,-0.4322,153.1253
17:14:38:216,-1.6726,2.4287,13.8616,71.9927,-1.3905,0.2891,-0.0403,153.4152
17:14:38:235,0.0209,2.0094,14.6327,71.9026,-1.6036,0.6491,0.2302,153.6948
17:14:38:256,0.1358,1.3077,14.4365,72.0367,-1.2861,0.9281,0.0907,153.956
17:14:38:276,-0.2189,0.7615,14.391,72.0666,-0.6237,0.6182,-0.1852,154.2061
17:14:38:296,-0.0867,0.2824,13.6457,72.4036,0.1675,0.2593,-0.1991,154.4568
17:14:38:352,-0.2859,0.2632,12.0383,72.2983,0.8619,0.1261,-0.149,154.7117
17:14:38:354,-0.2644,0.2082,9.7101,72.2991,1.2944,0.0985,-0.1064,154.9718
17:14:38:356,0.0592,0.591,7.8945,72.3838,1.3539,0.1133,-0.0574,155.2366
17:14:38:381,0.1047,1.3149,6.9242,72.2405,0.9375,0.1772,-0.0947,155.505
17:14:38:396,-0.1083,1.4489,6.6748,71.8391,0.1558,0.2039,-0.215,155.7756
17:14:38:417,-0.3625,1.2479,6.7083,71.4143,-0.6258,0.2614,-0.3204,156.0497
17:14:38:438,-0.5803,1.267,6.7705,71.142,-1.1413,0.4691,-0.2842,156.3267
17:14:38:457,-0.5204,1.4608,6.9841,70.6544,-1.3905,0.6257,-0.1522,156.6013
17:14:38:480,-0.7579,1.7222,7.4082,70.4779,-1.3895,0.7289,-0.0883,156.867
17:14:38:497,-1.2299,1.6211,7.6187,70.3107,-1.1562,0.6811,-0.165,157.1211
17:14:38:518,-1.5027,1.1276,7.2712,70.3061,-0.6983,0.4286,-0.2374,157.3668
17:14:38:537,-1.6367,1.2239,7.1515,70.5399,-0.0401,0.2188,-0.1533,157.6094
17:14:38:562,-1.7354,1.4919,6.8883,70.7769,0.6873,0.1549,-0.0499,157.8509
17:14:38:578,-1.8574,1.94,6.7155,71.0484,1.2209,-0.0229,-0.0648,158.0921
17:14:38:599,-1.8072,2.4,7.0678,70.9039,1.4285,-0.549,-0.1692,158.3373
17:14:38:618,-1.7037,2.6512,7.5326,70.9649,1.4668,-1.0337,-0.2715,158.5912
17:14:38:638,-2.0034,3.3559,8.1458,70.8208,1.4402,-0.9421,-0.1959,158.8572
17:14:38:659,-2.4012,4.5631,8.6369,70.7112,1.2656,-0.466,0.0566,159.131
17:14:38:679,-2.3988,5.3198,9.2213,70.1374,0.9003,-0.0889,0.259,159.4016
17:14:38:701,-1.8766,5.3462,9.7986,69.0499,0.4306,0.1112,0.2867,159.6596
17:14:38:721,-0.9159,5.3318,10.7306,68.5588,-0.0326,0.2784,0.1972,159.9023
17:14:38:741,-0.6622,4.9777,12.3954,68.2925,-0.4577,0.222,-0.1724,160.1313
17:14:38:761,-1.6989,4.1079,13.9023,68.0147,-0.6375,0.2326,-0.641,160.3584
17:14:38:781,-2.988,2.9342,13.672,67.8451,-0.4108,0.6172,-0.7124,160.5996
17:14:38:800,-3.807,2.2373,12.6132,67.5374,0.0057,0.8546,-0.4386,160.8576
17:14:38:821,-4.0277,1.9232,12.0646,67.281,0.306,0.4584,-0.2726,161.1233
17:14:38:840,-3.8333,1.7821,11.6507,66.551,0.4871,-0.0101,-0.1426,161.3929
17:14:38:861,-3.4385,1.6666,10.587,66.3069,0.6415,-0.1816,0.0012,161.6634
17:14:38:880,-3.4361,1.4847,9.2524,65.6993,0.7,-0.2977,-0.0286,161.9308
17:14:38:900,-3.3523,1.2335,8.9605,65.3171,0.5169,-0.6545,-0.0915,162.1964
17:14:38:921,-2.8564,0.9266,9.1519,64.8689,0.1771,-1.0347,0.0076,162.4608
17:14:38:945,-2.2259,1.1061,9.1328,64.2409,-0.1093,-1.0816,0.2345,162.7179
17:14:38:961,-1.8431,1.6092,8.5555,63.746,-0.2222,-0.8664,0.4879,162.9591
17:14:38:982,-1.3543,1.8993,7.6953,63.6359,-0.1519,-0.6108,0.6935,163.1753
17:14:39:001,-1.0044,1.9567,6.8788,63.451,-0.0017,-0.2434,0.8373,163.3596
17:14:39:022,-0.8465,2.0237,6.1023,63.3088,0.0206,0.0964,0.8895,163.5106
17:14:39:045,-0.6473,2.0644,5.9276,63.1919,-0.1136,0.1027,0.8533,163.627
17:14:39:062,-0.609,2.2301,6.009,62.9464,-0.1477,0.0357,0.7893,163.627
17:14:39:082,-0.8345,2.6871,5.942,62.7177,-0.0092,-0.0101,0.7126,163.627
17:14:39:103,-1.0905,2.9868,5.8223,62.9371,0.1366,-0.1316,0.5987,163.627
17:14:39:123,-1.0618,2.7182,6.5264,62.7216,0.1025,-0.4256,0.4197,163.627
17:14:39:145,-0.9924,2.5795,7.6714,62.5615,0.01,-0.6417,0.2814,163.627
17:14:39:162,-0.9135,2.5866,8.7637,62.5772,-0.0017,-0.6747,0.227,163.627
17:14:39:183,-0.9852,2.8289,9.5785,62.4815,0.0823,-0.4298,0.2526,163.627
17:14:39:203,-0.7986,3.3703,9.8656,62.4098,0.1068,-0.1156,0.3272,163.627
17:14:39:224,-0.6257,3.9835,10.3232,62.5192,-0.0443,-0.024,0.2963,163.627
17:14:39:245,-0.8824,4.4985,11.5496,62.3438,-0.2798,-0.1316,0.079,163.627
17:14:39:263,-0.5874,4.1868,12.9631,62.1594,-0.4555,-0.2093,-0.0979,163.627
17:14:39:284,-0.2166,3.6168,13.8305,62.2777,-0.4864,-0.057,-0.1735,163.627
17:14:39:304,-0.0437,3.3511,13.9023,61.9749,-0.4438,0.2103,-0.1991,163.627
17:14:39:324,0.5408,2.4933,13.4375,61.9896,-0.415,0.4872,-0.2001,163.627
17:14:39:347,0.5216,1.6211,13.1091,61.9879,-0.4822,0.7035,-0.3044,163.627
17:14:39:364,0.2459,1.0104,12.9392,62.2028,-0.6056,0.7406,-0.3363,163.627
17:14:39:385,-0.1519,0.7113,12.35,61.992,-0.5843,0.6821,-0.1373,163.627
17:14:39:405,0.1621,0.3541,11.0345,62.1261,-0.2979,0.5096,0.1631,163.627
17:14:39:425,0.8662,0.0329,10.0792,62.152,0.159,0.1112,0.3366,163.627
17:14:39:447,1.1492,0.6778,9.4319,62.126,0.5318,-0.1539,0.3419,163.627
17:14:39:465,1.1013,1.5039,8.4215,62.3372,0.6192,-0.106,0.2398,163.627
17:14:39:487,0.615,2.0524,7.4393,62.1891,0.421,0.0133,0.0076,163.627
17:14:39:506,0.2841,2.254,7.1755,61.9626,0.1356,-0.0431,-0.2172,163.627
17:14:39:526,0.2148,2.0716,7.1659,61.7091,-0.0017,-0.1156,-0.3268,163.627
17:14:39:546,0.0879,2.1482,7.0917,61.5335,0.0185,0.0016,-0.3502,163.627
17:14:39:566,-0.1107,2.4191,7.1635,61.225,0.0547,0.1005,-0.347,163.627
17:14:39:587,-0.3123,2.5675,7.0534,60.8565,0.1228,0.1719,-0.3395,163.627
17:14:39:606,-0.5587,2.656,6.4331,60.7616,0.2826,0.2784,-0.3278,163.627
17:14:39:627,-0.6598,2.7619,5.8606,60.4864,0.4519,0.2987,-0.2831,163.7288
17:14:39:648,-0.6694,3.1376,5.8941,60.1697,0.5041,0.0868,-0.2481,163.8404
17:14:39:667,-0.5803,3.4158,6.5264,59.771,0.4232,-0.2903,-0.2948,163.9608
17:14:39:687,-0.4271,3.4636,7.3268,59.5643,0.306,-0.5788,-0.3332,164.0906
17:14:39:708,-0.5109,3.7795,8.6321,59.2529,0.1963,-0.7706,-0.2937,164.231
17:14:39:728,-0.5228,4.4435,10.218,58.9196,0.0718,-0.8419,-0.2278,164.3798
17:14:39:748,-0.2812,4.8963,11.7248,58.6854,-0.072,-0.7482,-0.182,164.5343
17:14:39:768,-0.0461,4.8526,12.7573,58.1121,-0.1413,-0.4501,-0.1969,164.6925
17:14:39:788,0.1167,4.1964,13.0253,57.8084,-0.0284,-0.0847,-0.2566,164.8556
17:14:39:813,-0.4439,3.8399,12.7621,57.5366,0.2549,0.3477,-0.3076,165.0258
17:14:39:829,-1.6558,4.0911,11.9545,57.4082,0.5521,0.7896,-0.2651,165.2061
17:14:39:848,-2.9258,4.2419,10.587,57.0241,0.7032,1.0996,-0.1756,165.3945
17:14:39:869,-3.3332,3.9547,9.9494,56.695,0.6043,0.8993,-0.0563,165.5858
17:14:39:889,-2.3916,3.6981,10.9962,56.2426,0.4168,0.2454,0.2345,165.7751
17:14:39:912,-1.4979,3.5761,11.406,55.8117,0.4881,-0.0602,0.4453,165.9516
17:14:39:929,-1.675,3.466,10.194,55.4839,0.8012,0.0953,0.3611,166.1092
17:14:39:949,-2.1517,3.128,8.3833,55.1643,0.9716,0.1506,0.1642,166.2526
17:14:39:970,-2.1805,3.1854,7.6666,54.705,0.7043,-0.2061,0.0683,166.3901
17:14:39:990,-1.4381,3.0371,8.0859,54.3638,0.11,-0.6885,0.0715,166.5235
17:14:40:016,-0.9733,2.6465,8.6536,53.8361,-0.4502,-0.7269,0.0609,166.65
17:14:40:030,-1.1767,2.5723,8.6608,53.4962,-0.7867,-0.3265,0.0822,166.7694
17:14:40:053,-1.1384,2.5029,7.995,53.4692,-0.906,0.1005,0.2877,166.88
17:14:40:071,-0.2835,2.3617,7.0798,53.2905,-0.8367,0.3786,0.6423,166.9739
17:14:40:091,0.6461,2.5316,6.3948,53.2375,-0.6695,0.4393,0.8873,166.9739
17:14:40:114,1.1492,3.1065,6.3972,53.0083,-0.5353,0.2624,0.8415,166.9739
17:14:40:131,0.984,3.4421,6.7418,53.0504,-0.4555,-0.0357,0.5646,166.9739
17:14:40:151,0.3559,3.2961,7.0558,53.003,-0.2968,-0.2828,0.2238,166.9739
17:14:40:171,-0.3912,3.0108,6.7107,53.1959,0.0419,-0.2754,0.0129,166.9739
17:14:40:192,-1.0451,3.0108,6.1549,53.2646,0.4146,-0.1901,0.0321,166.9739
17:14:40:213,-1.3878,3.1878,5.9037,53.2386,0.6298,-0.2999,0.1461,166.9739
17:14:40:232,-1.4357,3.655,6.1023,53.1041,0.6543,-0.5639,0.2505,166.9739
17:14:40:253,-0.7555,4.1701,6.996,52.7003,0.5297,-0.8206,0.4005,166.9739
17:14:40:273,0.1119,4.7354,8.1314,52.4398,0.3039,-0.9634,0.4921,166.9739
17:14:40:292,1.0032,5.083,9.7531,52.0029,-0.0646,-1.0081,0.3186,166.9739
17:14:40:316,0.4038,5.0901,11.7583,51.7141,-0.6322,-0.8036,-0.0819,166.9739
17:14:40:353,-0.5468,4.477,13.3609,51.452,-1.0977,-0.2114,-0.3225,166.9739
17:14:40:354,-0.6449,3.813,13.8449,51.1593,-1.1222,0.2869,-0.1799,166.9739
17:14:40:372,0.2483,3.3966,13.6696,50.8311,-0.8367,0.3285,0.0768,166.9739
17:14:40:393,0.9236,2.6895,13.1952,50.8061,-0.5502,0.0826,-0.0169,166.9739
17:14:40:415,1.2401,1.6762,13.5428,50.8768,-0.4619,-0.221,-0.3491,166.9739
17:14:40:434,1.6187,0.8094,14.0889,50.8359,-0.3575,-0.3478,-0.5281,166.9739
17:14:40:453,1.4794,0.9099,14.2373,51.2931,-0.0422,-0.302,-0.461,166.9739
17:14:40:475,1.9178,0.941,12.731,51.2134,0.3997,0.0591,-0.182,166.9739
17:14:40:494,2.3659,1.0463,10.9914,51.1149,0.7128,0.2976,-0.067,166.9739
17:14:40:515,2.1362,1.3603,9.6048,51.0683,0.6957,0.3583,-0.2513,166.9739
17:14:40:535,1.547,1.255,7.7049,50.7859,0.502,0.715,-0.3971,166.9739
17:14:40:555,0.6796,1.5661,6.3254,50.3855,0.094,1.1273,-0.4375,166.9739
17:14:40:577,0.0903,1.7964,6.0832,50.1039,-0.5385,1.3359,-0.4727,166.9739
17:14:40:594,-0.2022,1.6959,6.5886,50.0903,-0.988,1.3263,-0.4823,166.9739
17:14:40:616,-0.5779,1.7581,7.4345,49.3617,-1.0423,0.9238,-0.4855,167.0752
17:14:40:635,-0.9781,2.0644,7.9161,49.33,-0.7473,0.4883,-0.4109,167.1876
17:14:40:656,-1.0594,2.534,7.8174,49.3324,-0.2478,0.4308,-0.2523,167.3083
17:14:40:676,-1.057,2.9246,6.9506,49.2273,0.3379,0.5671,-0.1266,167.4325
17:14:40:696,-0.7962,3.1352,5.9898,49.3588,0.7767,0.4446,-0.0499,167.5582
17:14:40:716,-0.7053,3.4469,5.5801,49.1533,0.8747,0.0921,-0.0755,167.6848
17:14:40:736,-1.1049,3.8399,5.796,48.9679,0.6639,-0.0921,-0.1671,167.8143
17:14:40:756,-1.6032,4.0002,6.3829,48.6563,0.3539,-0.0719,-0.1671,167.9486
17:14:40:776,-1.9914,4.0672,7.7743,48.6978,0.0812,-0.0613,-0.0648,168.0853
17:14:40:797,-2.2068,4.4507,9.5402,48.1822,-0.0635,-0.0474,0.1152,168.2173
17:14:40:817,-2.0919,4.9107,11.0393,47.6688,0.0334,-0.1624,0.2973,168.3381
17:14:40:838,-1.6606,5.0901,12.0263,47.4271,0.3465,-0.3329,0.3973,168.4416
17:14:40:858,-1.3472,4.8885,12.7813,47.1257,0.6245,-0.4128,0.3409,168.4416
17:14:40:877,-1.8311,4.9609,13.2748,46.8952,0.7138,-0.2903,0.1983,168.4416
17:14:40:897,-2.662,5.1045,13.145,46.7786,0.6925,0.1357,0.1546,168.4416
17:14:40:917,-3.2704,4.6636,11.72,46.331,0.6778,0.6182,0.2142,168.4416
17:14:40:938,-3.6467,3.9476,10.599,46.0141,0.5702,0.7246,0.275,168.4416
17:14:40:958,-3.9416,3.3918,9.9709,45.8753,0.4061,0.5746,0.3282,168.4416
17:14:40:981,-3.8189,3.1591,9.1424,45.6839,0.3241,0.3328,0.409,168.4416
17:14:40:998,-3.3691,2.8098,8.2798,45.3982,0.1856,-0.0336,0.4154,168.4416
17:14:41:018,-3.0574,2.6704,8.2774,45.1101,-0.1658,-0.3861,0.3451,168.4416
17:14:41:038,-2.4419,2.4646,8.5819,44.9461,-0.5736,-0.5076,0.3272,168.4416
17:14:41:059,-2.056,2.074,8.7135,44.6886,-0.7941,-0.5138,0.308,168.4416
17:14:41:084,-1.7426,1.7318,8.5938,44.7091,-0.7803,-0.5405,0.2931,168.4416
17:14:41:100,-1.2347,1.535,7.9496,44.8915,-0.5449,-0.5522,0.3888,168.4416
17:14:41:121,-0.6209,1.669,6.9817,45.182,-0.2531,-0.4682,0.5465,168.3491
17:14:41:140,-0.0724,1.8012,5.863,45.3032,-0.1072,-0.2796,0.653,168.2362
17:14:41:161,0.1932,2.2277,5.2618,45.4597,-0.2521,-0.0325,0.6455,168.101
17:14:41:186,0.0497,2.5053,5.3719,45.846,-0.5258,0.206,0.5316,167.9438
17:14:41:200,-0.1998,2.4885,5.4796,46.2445,-0.5683,0.2891,0.4186,167.769
17:14:41:220,-0.274,2.4215,5.3958,46.6306,-0.3831,0.1176,0.3483,167.5811
17:14:41:240,-0.3458,2.6752,5.9157,46.8578,-0.2574,-0.2157,0.2515,167.3833
17:14:41:260,-0.3912,2.6489,7.1874,47.0373,-0.2968,-0.6044,0.1205,167.1788
17:14:41:285,-0.2285,2.2684,8.5173,46.8133,-0.2542,-0.8238,0.0332,166.973
17:14:41:301,0.0305,2.3306,9.5976,47.0735,-0.0933,-0.8015,0.0246,166.7701
17:14:41:320,-0.1591,3.3129,10.5003,47.334,-0.0252,-0.549,0.0204,166.5709
17:14:41:340,-0.609,4.2945,11.461,47.4262,-0.2009,-0.2658,-0.1021,166.376
17:14:41:361,-0.8201,3.9763,12.055,47.4911,-0.4715,-0.0858,-0.2672,166.1887
17:14:41:385,-0.8584,3.6526,13.011,47.4683,-0.7313,-0.1422,-0.3087,166.015
17:14:41:401,0.0281,3.0993,14.7069,47.4848,-0.8676,-0.3531,-0.1799,165.8562
17:14:41:421,0.7777,2.7739,15.6939,47.4128,-0.6674,-0.4,-0.0478,165.7077
17:14:41:442,0.9984,2.5842,14.8511,47.6796,-0.2414,-0.1891,-0.0531,165.5655
17:14:41:462,0.9553,2.1912,13.9813,47.8366,-0.0028,-0.0751,-0.1842,165.4308
17:14:41:485,0.9069,1.4871,13.7827,48.0265,0.0164,-0.0336,-0.3076,165.3076
17:14:41:502,0.6724,1.1976,13.2628,48.2593,0.1558,-0.0208,-0.3257,165.2
17:14:41:522,0.6867,0.8979,11.7727,48.2719,0.5148,-0.2466,-0.298,165.1085
17:14:41:543,1.2473,0.6227,10.3184,48.1235,0.7277,-0.6992,-0.3023,165.1085
17:14:41:563,1.7336,0.7184,9.4995,48.0792,0.453,-0.8345,-0.3449,165.1085
17:14:41:588,1.7025,0.941,8.8499,48.16,-0.1594,-0.2306,-0.3971,165.1085
17:14:41:603,1.197,1.3077,7.9783,48.3427,-0.6226,0.7129,-0.4194,165.1085
17:14:41:623,0.615,1.4584,6.7298,48.4543,-0.6823,1.1976,-0.4205,165.1085
17:14:41:644,0.4475,1.6738,5.8104,48.5227,-0.5045,1.0058,-0.4067,165.1085
17:14:41:663,0.6532,2.1147,5.1876,48.4,-0.2382,0.4904,-0.3694,165.1085
17:14:41:683,0.8877,2.6273,5.2092,48.4693,0.043,-0.1145,-0.3672,165.1085
17:14:41:704,1.0223,2.9629,5.5585,48.7141,0.3209,-0.582,-0.4173,165.1085
17:14:41:724,0.7848,3.262,5.8989,48.8979,0.5425,-0.7237,-0.5515,165.1085
17:14:41:744,0.0855,3.1376,5.9731,48.7496,0.5989,-0.6214,-0.8061,165.1085
17:14:41:764,-0.679,2.6824,6.4379,48.5766,0.469,-0.4724,-0.9615,165.2085
17:14:41:785,-1.5673,2.5579,7.4824,48.4281,0.1941,-0.4053,-0.9477,165.3391
17:14:41:805,-2.1422,2.6154,8.8044,48.2886,-0.0731,-0.3233,-0.8019,165.4989
17:14:41:825,-2.3103,2.9701,9.8178,48.3436,-0.1807,-0.1827,-0.5377,165.6806
17:14:41:846,-2.0321,3.2961,10.6732,48.2005,-0.1328,-0.1443,-0.2619,165.8735
17:14:41:865,-1.6774,3.2668,11.6004,48.1416,0.0142,-0.2818,-0.117,166.069
17:14:41:886,-1.1892,2.9151,12.0909,48.0598,0.2314,-0.3723,-0.067,166.2607
17:14:41:906,-0.9398,2.7302,12.1968,48.3653,0.3838,-0.3201,-0.0233,166.4474
17:14:41:926,-0.8417,2.6824,12.6227,48.4617,0.3742,-0.2029,0.0481,166.628
17:14:41:946,-0.9254,3.1735,12.4959,48.2345,0.3539,0.0858,0.2238,166.8002
17:14:41:966,-0.734,3.7484,11.7966,48.0003,0.371,0.3636,0.441,166.958
17:14:41:986,-0.3673,3.722,11.7847,47.7613,0.2943,0.304,0.4857,167.0937
17:14:42:007,-0.4845,3.679,11.6004,47.6543,0.273,0.1943,0.3739,167.2063
17:14:42:027,-0.4343,3.7914,10.5248,47.4947,0.3869,0.0453,0.3005,167.3007
17:14:42:052,0.1358,3.5856,9.9906,47.5356,0.3177,-0.3403,0.2057,167.3007
17:14:42:068,0.9141,3.2937,11.2481,47.313,-0.0667,-0.8771,0.1099,167.3007
17:14:42:087,1.8293,2.9151,12.6491,47.1402,-0.3288,-1.0145,0.0747,167.3007
17:14:42:108,1.9418,2.5149,12.7956,47.1293,-0.251,-0.5266,0.0236,167.3007
17:14:42:128,0.9236,2.3067,11.2409,47.2037,-0.0039,0.3466,0.0172,167.3007
17:14:42:152,0.1597,2.1505,9.0323,47.3179,0.2133,1.0836,0.1802,167.3007
17:14:42:169,-0.2572,2.2612,7.0869,47.3277,0.2772,1.337,0.376,167.3007
17:14:42:188,-0.6185,2.3067,6.119,47.3023,0.127,1.1518,0.3984,167.3007
17:14:42:208,-1.2132,2.0812,6.6341,47.245,-0.1008,0.7193,0.3355,167.3007
17:14:42:228,-2.013,1.9735,7.3819,47.1464,-0.0401,0.2518,0.3409,167.3007
17:14:42:253,-2.2355,1.9902,7.3699,47.3244,0.4019,-0.1635,0.4794,167.3007
17:14:42:269,-1.8048,2.1458,6.7974,47.3575,0.8939,-0.4746,0.7009,167.3007
17:14:42:289,-0.8847,2.4215,6.524,47.2715,1.0931,-0.6406,0.8447,167.3007
17:14:42:308,-0.2859,2.6225,6.6221,47.0935,0.9961,-0.5895,0.7989,167.3007
17:14:42:329,0.2219,2.4981,7.0343,47.0226,0.7884,-0.3531,0.6445,167.1837
17:14:42:353,0.481,2.7182,7.2951,46.7374,0.6128,-0.0485,0.5071,167.0434
17:14:42:394,0.9745,3.1615,7.3938,46.417,0.4604,0.1591,0.4027,166.8855
17:14:42:396,1.4746,3.5163,7.873,46.2259,0.2517,0.1453,0.2249,166.7151
17:14:42:409,1.5278,3.6407,8.5484,45.7298,0.0036,0.0602,-0.0744,166.5404
17:14:42:430,1.3884,3.5976,8.8379,45.5588,-0.1977,0.0538,-0.2852,166.3733
17:14:42:454,1.5517,3.9523,9.9829,45.4066,-0.4513,-0.0229,-0.2502,166.2222
17:14:42:470,2.1458,4.1509,11.7392,45.1494,-0.6833,-0.1731,-0.0734,166.0853
17:14:42:492,2.5525,3.8303,11.8995,44.9935,-0.6865,-0.1039,-0.051,165.9564
17:14:42:511,2.2104,3.0562,11.5956,45.0477,-0.7142,0.1282,-0.2704,165.8354
17:14:42:532,1.1563,2.1577,11.2337,45.1695,-0.9209,0.5724,-0.4738,165.7314
17:14:42:555,0.3057,1.8921,11.0321,45.3252,-1.103,0.9132,-0.413,165.7314
17:14:42:571,-0.0867,1.995,10.5942,45.6279,-1.0785,0.8397,-0.2129,165.7314
17:14:42:593,0.1214,1.9184,10.0409,45.8391,-0.9401,0.5341,-0.0553,165.7314
17:14:42:612,0.6915,1.6259,9.3242,46.1831,-0.8112,0.2656,0.0321,165.7314
17:14:42:632,1.0774,1.7055,9.0012,46.7466,-0.7813,0.0815,0.0395,165.7314
17:14:42:653,1.4219,1.7438,8.7805,47.3403,-0.8378,0.1101,-0.0222,165.7314
17:14:42:672,1.465,1.4393,8.6417,47.8128,-0.9326,0.3306,-0.181,165.7314
17:14:42:692,0.6772,1.1061,8.4191,47.9894,-0.9603,0.5586,-0.3939,165.7314
17:14:42:712,0.0114,0.9338,7.9687,48.3502,-0.7494,0.5618,-0.4248,165.7314
17:14:42:733,-0.082,1.2885,7.3125,48.5888,-0.3011,0.3104,-0.247,165.7314
17:14:42:755,0.3631,1.8873,6.5121,48.8666,0.208,0.0517,-0.0031,165.7314
17:14:42:773,0.6724,2.7547,5.8893,48.8899,0.5094,-0.1603,0.0715,165.7314
17:14:42:793,0.5216,3.2405,5.6327,48.8116,0.5063,-0.3414,-0.116,165.7314
17:14:42:813,0.1813,3.1232,5.8319,48.722,0.3166,-0.4703,-0.3683,165.7314
17:14:42:833,-0.1155,3.0778,6.5886,48.5804,0.0313,-0.5044,-0.4876,165.7314
17:14:42:855,-0.4295,3.3248,8.0022,48.6749,-0.3256,-0.4256,-0.4961,165.7314
17:14:42:874,-0.8776,3.3033,9.2979,48.4185,-0.5949,-0.171,-0.4578,165.7314
17:14:42:894,-1.4189,3.1687,10.5051,48.376,-0.661,0.0304,-0.3758,165.7314
17:14:42:913,-1.7833,3.1759,11.6148,48.0997,-0.5248,-0.074,-0.2726,165.7314
17:14:42:934,-1.8359,3.2477,12.4911,48.0913,-0.2915,-0.3393,-0.165,165.7314
17:14:42:954,-1.3424,2.8433,13.392,47.9827,-0.12,-0.5437,-0.0638,165.7314
17:14:42:975,-0.5922,2.1434,14.9181,48.0684,-0.072,-0.5522,0.0182,165.7314
17:14:42:995,-0.3314,1.9376,15.8955,48.0238,-0.0017,-0.0996,0.1354,165.7314
17:14:43:014,-0.7938,1.9567,15.0018,47.9948,0.1441,0.8269,0.1844,165.7314
17:14:43:035,-2.1398,1.657,13.1689,47.785,0.1856,1.6566,0.129,165.7314
17:14:43:057,-3.4026,1.4704,11.5376,47.5966,0.1707,1.9037,0.1865,165.7314
17:14:43:076,-3.7519,1.8634,10.3854,47.7875,0.2815,1.4542,0.441,165.7314
17:14:43:096,-2.811,2.6225,9.7699,47.7756,0.3933,0.5841,0.6732,165.7314
17:14:43:120,-1.4524,2.5172,10.0074,47.7434,0.2218,-0.3084,0.5369,165.7314
17:14:43:137,-0.7364,1.4895,11.4515,47.3978,-0.2478,-0.908,0.0822,165.7314
17:14:43:156,-0.8201,0.0281,12.8124,47.4022,-0.6109,-0.9847,-0.2884,165.7314
17:14:43:177,-1.6056,-0.6233,12.5964,47.3517,-0.5555,-0.5831,-0.3097,165.7314
17:14:43:197,-2.013,-0.4433,11.0417,47.3847,-0.2297,0.1154,0.1152,165.7314
17:14:43:222,-1.6152,0.1579,8.9462,47.5876,0.11,0.8311,0.7542,165.7314
17:14:43:237,-0.9494,1.0941,6.8022,47.5701,0.3145,1.2381,1.2441,165.7314
17:14:43:257,-0.341,1.9304,5.2044,47.5617,0.3656,1.1955,1.4379,165.6311
17:14:43:278,0.0616,2.321,4.0421,47.5069,0.4264,0.8503,1.3666,165.4832
17:14:43:297,0.2626,2.5555,3.405,47.5484,0.5041,0.2923,1.1716,165.2916
17:14:43:321,0.2411,2.7087,3.6066,47.4848,0.4754,-0.3286,0.8873,165.065
17:14:43:337,0.0879,2.266,4.526,47.5014,0.3848,-0.8867,0.5209,164.8123
17:14:43:357,-0.2955,1.8395,5.6518,47.4724,0.2719,-1.1965,0.1887,164.5484
17:14:43:377,-0.3649,1.3196,7.0558,47.1512,0.1079,-1.1305,-0.0105,164.2845
17:14:43:398,-0.3529,1.1904,8.4263,46.7382,-0.0561,-0.7162,-0.084,164.0277
17:14:43:421,-0.609,1.7438,9.3051,46.4371,-0.1913,-0.1912,-0.1181,163.7802
17:14:43:438,-0.6353,2.2612,10.611,46.3088,-0.3618,0.0676,-0.181,163.5433
17:14:43:458,-0.4223,2.412,12.0742,46.2472,-0.464,0.0442,-0.2513,163.3181
17:14:43:480,0.2435,2.2588,13.4184,45.9141,-0.4555,-0.1486,-0.2873,163.1066
17:14:43:500,1.2162,2.2732,14.6231,45.7679,-0.4129,-0.2999,-0.2842,162.9107
17:14:43:524,1.5948,2.6728,15.3685,45.8317,-0.332,-0.188,-0.3608,162.7301
17:14:43:541,1.063,2.9629,15.0305,46.0618,-0.1583,0.1399,-0.4972,162.5674
17:14:43:562,0.4546,2.4383,14.2786,46.0778,0.0206,0.3775,-0.6144,162.4268
17:14:43:580,-0.3434,1.468,14.0195,46.0519,0.1079,0.4105,-0.7273,162.3127
17:14:43:600,-1.596,0.4187,13.1067,46.0185,0.2911,0.4531,-0.7134,162.3127
17:14:43:624,-2.4108,-0.3571,10.7761,45.9149,0.6224,0.4265,-0.4855,162.3127
17:14:43:641,-2.4323,-0.7238,8.8905,45.8214,0.7341,0.0016,-0.1522,162.3127
17:14:43:660,-1.675,-0.8363,9.0682,45.8505,0.388,-0.6363,0.1631,162.3127
17:14:43:681,-0.5874,-0.6281,9.2405,45.5701,0.0281,-0.7844,0.4676,162.3127
17:14:43:700,0.1238,-0.0508,8.4718,45.2581,-0.0337,-0.4628,0.6636,162.3127
17:14:43:725,0.871,0.3757,7.0965,45.5301,0.0302,-0.0804,0.7169,162.3127
17:14:43:740,1.4895,1.0128,5.8343,45.4544,0.0142,0.1921,0.6157,162.1984
17:14:43:761,1.5159,1.7725,5.1464,45.3123,-0.1072,0.3274,0.3419,162.0669
17:14:43:781,1.2616,2.2588,4.8879,45.2676,-0.2457,0.3626,-0.0052,161.9273
17:14:43:801,0.8112,2.3186,4.9693,45.5436,-0.3277,0.3445,-0.3257,161.7907
17:14:43:825,0.0903,2.0548,5.3695,45.7234,-0.332,0.2742,-0.5611,161.668
17:14:43:841,-0.4774,1.727,6.1262,45.9225,-0.219,0.0229,-0.641,161.5675
17:14:43:862,-0.6185,1.669,6.6174,46.2478,0.0228,-0.3233,-0.5771,161.5675
17:14:43:883,-0.4343,2.2373,6.8213,45.9939,0.1941,-0.3936,-0.4322,161.5675
17:14:43:902,-0.1256,2.8409,7.1133,45.9696,0.0834,-0.1656,-0.3214,161.5675
17:14:43:925,-0.2716,3.0993,8.2247,46.1017,-0.2553,0.157,-0.331,161.5675
17:14:43:942,-1.136,3.0706,10.2251,46.1998,-0.5832,0.3786,-0.3619,161.5675
17:14:43:963,-1.7402,2.9486,11.7679,46.1572,-0.6301,0.4233,-0.2268,161.5675
17:14:43:983,-1.745,3.1567,12.676,46.0403,-0.4822,0.3317,0.0342,161.5675
17:14:44:003,-1.3783,2.9366,13.742,46.0516,-0.3224,0.1304,0.2451,161.5675
17:14:44:023,-0.7507,2.6177,14.4748,45.9213,-0.0422,-0.1134,0.3707,161.5675
17:14:44:044,-0.8201,2.8816,14.269,45.8687,0.3294,-0.1166,0.3835,161.5675
17:14:44:063,-1.5505,2.9079,13.0899,45.9732,0.5169,0.1985,0.3091,161.5675
17:14:44:084,-2.272,2.1577,12.4983,45.9337,0.3827,0.4265,0.2164,161.5675
17:14:44:104,-2.8756,1.2215,12.9894,46.0206,0.1217,0.3807,0.1716,161.5675
17:14:44:125,-3.1507,0.8142,13.133,45.9894,0.1345,0.2411,0.3016,161.4736
17:14:44:145,-2.7817,1.2311,11.7655,45.934,0.4743,0.1889,0.539,161.3692
17:14:44:164,-2.1924,1.8347,9.923,45.8587,0.6256,0.2518,0.6146,161.2461
17:14:44:183,-2.0656,2.1553,8.5268,45.9673,0.257,0.4712,0.4549,161.1027
17:14:44:206,-2.2331,1.9232,7.9208,46.0785,-0.366,0.7566,0.26,160.9437
17:14:44:224,-2.26,1.5422,7.873,46.058,-0.8399,0.8375,0.2068,160.7729
17:14:44:244,-1.8909,1.13,7.8754,46.2338,-0.9742,0.5852,0.2473,160.5918
17:14:44:265,-1.5362,0.8812,7.7958,46.5218,-0.8325,0.0921,0.2622,160.4001
17:14:44:287,-1.2084,0.6054,7.7216,46.403,-0.5694,-0.4224,0.2622,160.1985
17:14:44:305,-1.069,0.3876,7.4154,46.7706,-0.2851,-0.7311,0.3091,159.9877
17:14:44:325,-1.0379,0.5575,6.8907,47.0483,-0.0017,-0.7684,0.4612,159.7701
17:14:44:345,-0.8489,1.1252,6.2004,46.9701,0.1899,-0.6374,0.653,159.5426
17:14:44:366,-0.53,1.657,6.0568,47.337,0.208,-0.5065,0.735,159.2982
17:14:44:390,-0.4774,2.0907,6.3182,47.4008,0.1302,-0.3446,0.6583,159.0345
17:14:44:440,-0.5492,2.3976,6.3805,47.5528,0.0993,-0.1326,0.4953,158.7538
17:14:44:441,-0.6138,2.3306,6.6126,47.333,0.1121,-0.0304,0.2579,158.4621
17:14:44:446,-1.0499,1.9567,7.0893,47.833,0.1462,-0.0378,-0.0286,158.1666
17:14:44:467,-1.5123,1.6044,7.9184,47.8183,0.175,-0.1433,-0.2481,157.8793
17:14:44:491,-1.7258,1.5757,9.3936,47.8494,0.1558,-0.3041,-0.38,157.6075
17:14:44:508,-1.3902,1.7198,10.867,48.2215,0.0844,-0.2338,-0.4312,157.3557
17:14:44:528,-1.0211,1.3101,11.7823,48.2232,-0.1178,0.1943,-0.4993,157.1257
17:14:44:548,-1.0379,0.6634,12.8913,48.5662,-0.5395,0.6992,-0.5803,156.9188
17:14:44:568,-2.0106,0.4929,14.3599,48.5002,-0.9997,0.9654,-0.6165,156.7376
17:14:44:593,-3.0885,0.0766,15.0544,48.6327,-1.119,0.9718,-0.4631,156.581
17:14:44:608,-2.7434,0.0957,14.2636,48.6266,-0.8698,0.7225,-0.002,156.4394
17:14:44:629,-1.4118,-0.3739,14.6136,48.8045,-0.7707,0.1612,0.3899,156.2966
17:14:44:649,-0.0891,-1.416,15.8686,48.9535,-0.7643,-0.4554,0.5582,156.1404
17:14:44:668,1.2975,-1.6798,16.1874,48.9456,-0.2712,-0.958,0.669,155.969
17:14:44:693,2.0955,-1.081,14.4724,48.9272,0.5574,-1.1008,0.6093,155.7826
17:14:44:708,2.2247,-0.1681,11.284,48.8368,1.0664,-0.7503,0.3973,155.589
17:14:44:729,1.7719,0.3111,8.5866,49.0299,0.9205,-0.171,0.0545,155.396
17:14:44:750,1.0726,0.3541,6.8046,49.3311,0.453,0.4297,-0.3023,155.2136
17:14:44:770,-0.0006,0.2106,5.9515,49.4828,0.0281,0.7853,-0.6399,155.0507
17:14:44:792,-1.0379,-0.0245,5.671,49.7612,-0.1892,0.7363,-0.8594,154.9169
17:14:44:810,-1.6917,-0.2471,5.9109,49.8785,-0.1541,0.3072,-0.8455,154.8159
17:14:44:830,-1.6367,-0.3045,5.9468,50.1019,0.1324,-0.1582,-0.608,154.8159
17:14:44:850,-1.2419,0.1172,5.5059,50.395,0.5286,-0.3457,-0.2831,154.8159
17:14:44:870,-0.8919,0.9649,4.6415,50.5686,0.8172,-0.2391,-0.0446,154.8159
17:14:44:893,-0.679,1.7581,3.9105,50.622,0.8172,-0.0261,0.031,154.8159
17:14:44:911,-0.5635,2.5077,3.9368,50.8179,0.4977,0.173,0.0119,154.8159
17:14:44:932,-0.3434,3.1519,4.919,50.8501,-0.0635,0.4105,-0.0457,154.8159
17:14:44:951,-0.408,3.5856,6.6676,50.6237,-0.6599,0.6545,-0.2055,154.8159
17:14:44:971,-1.3854,3.5258,8.7661,50.6683,-1.02,0.7161,-0.4471,154.8159
17:14:44:993,-2.5496,3.1639,10.7282,50.6581,-1.0125,0.4414,-0.5483,154.8159
17:14:45:012,-3.4361,2.6656,12.6736,50.4501,-0.7238,-0.0389,-0.4035,154.8159
17:14:45:032,-3.9224,2.1601,14.1631,50.5097,-0.3245,-0.3883,-0.0915,154.8159
17:14:45:052,-3.6251,1.9926,14.9276,50.5959,0.1281,-0.5309,0.3314,154.8159
17:14:45:072,-2.8134,1.9448,14.8798,50.5007,0.5361,-0.4959,0.6903,154.8159
17:14:45:093,-2.2672,2.2104,14.616,50.4441,0.6968,-0.2221,0.8596,154.8159
17:14:45:113,-2.2935,2.5747,13.6193,50.7254,0.6181,0.3104,0.8692,154.8159
17:14:45:133,-2.6931,2.4311,12.7334,50.8709,0.4338,0.7108,0.7339,154.6974
17:14:45:153,-3.3159,1.7438,12.6443,50.8399,0.274,0.7077,0.5411,154.5563
17:14:45:173,-3.8818,1.2622,12.3858,51.1723,0.3454,0.419,0.5028,154.3997
17:14:45:194,-3.5964,1.1713,11.5854,51.4282,0.5957,0.0101,0.6146,154.2292
17:14:45:213,-2.9378,1.1952,10.7521,51.6487,0.649,-0.2881,0.6317,154.0401
17:14:45:233,-2.2887,1.0606,10.3783,51.7558,0.3742,-0.2999,0.5443,153.8332
17:14:45:253,-1.9484,0.4283,10.0648,51.9478,-0.022,-0.0325,0.4176,153.6119
17:14:45:273,-1.7133,0.0861,9.1089,52.0563,-0.2116,0.3604,0.4261,153.3783
17:14:45:294,-1.2945,0.1077,7.6762,52.2538,-0.1434,0.6172,0.5912,153.1326
17:14:45:313,-0.7029,0.3709,6.0473,52.518,0.0121,0.6438,0.8117,152.8691
17:14:45:334,-0.1902,0.9027,5.0554,52.4188,0.0483,0.3807,0.9511,152.5844
17:14:45:354,0.0975,1.2,4.9334,52.4501,0.0079,-0.0304,0.9511,152.2716
17:14:45:375,0.1238,1.401,5.0674,52.5388,0.0632,-0.3435,0.8927,151.931
17:14:45:396,0.1071,1.9017,5.053,52.65,0.2112,-0.5128,0.8277,151.566
17:14:45:415,0.0592,2.2684,5.0339,52.8303,0.3049,-0.5692,0.6999,151.1797
17:14:45:434,-0.0485,2.467,4.8879,52.9343,0.2762,-0.432,0.5188,150.7771
17:14:45:455,-0.2118,2.5795,5.2044,52.9911,0.1057,-0.302,0.3048,150.3641
17:14:45:475,-0.2644,2.4048,6.347,53.1677,-0.1487,-0.3063,0.0779,149.948
17:14:45:496,-0.7842,2.4168,8.1434,53.5013,-0.3991,-0.3904,-0.1426,149.5361
17:14:45:515,-1.0403,2.3163,10.3783,53.7223,-0.6184,-0.449,-0.2852,149.1352
17:14:45:535,-0.8058,2.2421,12.1442,53.6957,-0.7856,-0.4192,-0.363,148.7502
17:14:45:561,-0.6042,1.6116,14.2564,53.9488,-0.9284,-0.5149,-0.5292,148.3837
17:14:45:578,-0.3529,0.1723,16.7169,54.1821,-0.9635,-0.663,-0.6623,148.0419
17:14:45:597,-0.3194,-0.2877,17.6919,54.2303,-0.677,-0.4266,-0.5835,147.7332
17:14:45:616,-0.5157,0.0042,16.0846,54.3874,-0.1796,0.2699,-0.3896,147.4567
17:14:45:637,-0.5468,0.5791,13.4519,54.6927,0.1739,0.9025,-0.2225,147.2058
17:14:45:660,-0.451,0.7687,12.2231,54.8325,0.175,1.0218,-0.1842,146.9733
17:14:45:677,-0.3147,0.6658,11.3486,55.0378,0.1473,0.9068,-0.181,146.7566
17:14:45:697,0.1597,0.4092,9.6503,55.336,0.3305,0.647,-0.2012,146.5554
17:14:45:717,0.7131,0.0981,8.2798,55.4317,0.3795,0.073,-0.3811,146.3708
17:14:45:737,0.883,-0.1394,8.5938,55.5691,-0.0294,-0.5149,-0.6996,146.2088
17:14:45:762,0.4642,-0.5755,9.734,55.7779,-0.6141,-0.5458,-0.9562,146.0773
17:14:45:777,-0.2572,-0.7597,10.1988,55.9333,-0.8453,-0.1848,-0.9658,145.9845
17:14:45:797,-0.5922,-0.609,9.7005,55.948,-0.5971,0.0634,-0.7475,145.9845
17:14:45:818,-0.7244,-0.2327,8.3928,56.1452,-0.0784,0.2166,-0.428,145.9845
17:14:45:838,-0.6353,0.4259,6.6604,56.2193,0.3838,0.3892,-0.1224,145.9845
17:14:45:862,-0.3505,1.2024,5.2164,56.4118,0.617,0.4925,0.0225,145.9845
17:14:45:878,-0.4223,1.6863,4.2197,56.3768,0.6224,0.5575,-0.0627,145.9845
17:14:45:898,-0.7005,2.2349,3.8794,56.2565,0.4349,0.5426,-0.215,145.9845
17:14:45:920,-1.0953,2.5531,4.3274,56.6244,0.1877,0.3935,-0.3225,145.9845
17:14:45:940,-1.3567,2.5484,5.2953,56.7208,-0.0124,0.1059,-0.4067,145.9845
17:14:45:963,-1.2251,2.5364,6.9434,56.6239,-0.1306,-0.3883,-0.4365,145.9845
17:14:45:979,-1.194,2.7206,9.2692,56.8629,-0.1615,-0.8782,-0.4706,145.9845
17:14:46:000,-1.3807,2.9007,11.0417,57.097,-0.0997,-0.9634,-0.4983,145.9845
17:14:46:020,-1.6223,3.0634,12.4217,57.3205,0.0462,-0.7429,-0.4631,145.9845
17:14:46:041,-1.9723,2.8983,12.9607,57.4161,0.2581,-0.3808,-0.412,145.9845
17:14:46:064,-2.3174,2.8959,12.4552,57.474,0.4604,0.074,-0.2905,145.9845
17:14:46:081,-2.1996,2.8146,11.8851,57.4451,0.4647,0.3509,-0.1043,145.9845
17:14:46:102,-2.0034,2.927,12.259,57.4335,0.2581,0.3583,0.0364,145.9845
17:14:46:121,-1.7713,3.0849,12.9823,57.5623,0.0483,0.2795,0.0694,145.9845
17:14:46:140,-1.9125,2.7087,13.404,57.4226,-0.0241,0.2454,-0.0808,145.9845
17:14:46:165,-2.9402,1.5733,13.1043,57.3379,0.0441,0.32,-0.3715,145.9845
17:14:46:182,-4.3292,0.5575,11.5759,57.5784,0.2336,0.5405,-0.4695,146.0756
17:14:46:201,-5.0889,0.146,9.679,57.9508,0.3624,0.6321,-0.281,146.1777
17:14:46:221,-5.5346,0.0018,8.5531,57.9975,0.1824,0.3573,-0.0659,146.2834
17:14:46:241,-5.7021,-0.4504,8.5699,58.2275,-0.2616,-0.0698,0.1067,146.3821
17:14:46:264,-5.3115,-0.8841,8.6824,58.4722,-0.629,-0.3425,0.4431,146.3821
17:14:46:282,-4.4495,-0.9583,8.4407,58.7759,-0.7505,-0.4863,0.9097,146.3821
17:14:46:302,-3.201,-0.8506,7.8269,59.0709,-0.7132,-0.5735,1.3399,146.3821
17:14:46:322,-1.7665,-0.4026,7.5422,59.2902,-0.6951,-0.892,1.6455,146.3821
17:14:46:342,-0.0556,0.3374,7.9137,59.3488,-0.6716,-1.3861,1.8021,146.2843
17:14:46:364,1.2497,0.7783,8.4574,59.5232,-0.6322,-1.7663,1.7478,146.125
17:14:46:383,1.7097,1.4536,9.4176,59.7034,-0.6471,-1.3947,1.4784,145.9105
17:14:46:402,1.523,1.4584,9.3506,59.9024,-0.4481,-0.334,1.1855,145.6529
17:14:46:423,1.1779,1.2814,8.4574,60.2574,-0.1242,0.5778,0.9895,145.3663
17:14:46:472,0.6628,1.3531,7.3173,60.5087,0.2091,1.1965,0.9363,145.0565
17:14:46:475,0.3966,1.5541,6.6461,60.5469,0.4594,1.2775,0.9268,144.726
17:14:46:484,0.3392,1.9232,6.658,60.7382,0.633,0.8088,0.7766,144.3756
17:14:46:504,0.2219,1.8562,7.5637,60.89,0.7405,0.0879,0.4027,144.0114
17:14:46:523,-0.1448,1.9615,9.2022,60.8592,0.8417,-0.4224,0.0065,143.6465
17:14:46:544,-0.207,1.7988,10.4836,60.8871,0.928,-0.6896,-0.2534,143.2945
17:14:46:564,-0.0532,1.3555,11.3605,60.9143,0.8832,-0.8558,-0.4173,142.9643
17:14:46:584,0.2483,1.3699,11.945,60.7868,0.5393,-0.7951,-0.5142,142.6622
17:14:46:605,0.1813,1.255,13.526,60.9333,-0.1967,-0.4735,-0.641,142.3909
17:14:46:628,-0.4678,1.13,14.1009,61.2159,-0.8176,0.5298,-0.6698,142.1535
17:14:46:645,-0.8273,1.3579,13.55,61.1593,-0.9869,1.5255,-0.4887,141.9492
17:14:46:667,-1.2036,1.1545,13.0636,61.2682,-0.9465,1.9536,-0.4812,141.7689
17:14:46:686,-2.1613,0.1627,12.7765,61.4574,-0.8485,1.976,-0.7294,141.6098
17:14:46:705,-2.8612,-0.9105,11.3845,61.7436,-0.5534,1.7045,-0.8658,141.4787
17:14:46:728,-2.5089,-1.4518,10.3065,61.9259,-0.1679,0.91,-0.722,141.3795
17:14:46:746,-1.6534,-1.0355,10.1294,62.3057,0.2091,0.2145,-0.4461,141.3795
17:14:46:765,-0.6885,-0.4965,10.0624,62.2053,0.5105,-0.2796,-0.3715,141.3795
17:14:46:786,-0.4104,-0.4361,9.6861,62.2613,0.5829,-0.598,-0.5686,141.3795
17:14:46:806,-0.6305,-0.5133,8.5914,62.5034,0.551,-0.4415,-0.7401,141.3795
17:14:46:829,-0.8608,-0.475,7.2927,62.595,0.5318,-0.0687,-0.6229,141.3795
17:14:46:847,-0.8369,-0.3165,6.2172,62.6774,0.5297,0.1879,-0.2788,141.3795
17:14:46:866,-0.7244,0.2034,5.6542,62.806,0.4604,0.1889,0.0715,141.3795
17:14:46:887,-0.4128,1.0175,5.5513,62.7729,0.274,0.024,0.2387,141.3795
17:14:46:908,-0.5204,1.6738,6.0688,62.5845,0.0153,-0.139,0.1354,141.3795
17:14:46:931,-0.7579,1.8969,6.682,62.7898,-0.202,-0.1774,-0.1032,141.3795
17:14:46:947,-1.148,1.9711,6.682,62.7436,-0.2371,0.0581,-0.1948,141.3795
17:14:46:967,-1.206,2.3904,6.6676,62.8261,-0.2084,0.2422,-0.0627,141.3795
17:14:46:989,-0.8082,3.006,7.2281,62.9697,-0.1988,0.1506,0.1301,141.3795
17:14:47:008,-0.3434,3.4493,8.2487,63.0732,-0.1977,-0.122,0.178,141.3795
17:14:47:031,-0.2142,3.7531,9.4391,63.0668,-0.1317,-0.286,0.0534,141.3795
17:14:47:048,-0.7507,3.6,10.4979,63.2499,-0.0071,-0.2008,-0.1394,141.3795
17:14:47:068,-1.6415,3.1089,11.0106,63.5088,0.0451,0.0016,-0.2555,141.3795
17:14:47:088,-1.867,2.8983,11.4969,63.7108,-0.0838,0.0804,-0.2182,141.3795
17:14:47:109,-1.8861,2.9438,12.6784,64.0836,-0.3138,-0.0591,-0.2033,141.3795
17:14:47:132,-1.8694,2.8505,13.9597,64.1859,-0.3735,-0.1965,-0.2916,141.3795
17:14:47:149,-2.1135,2.6608,14.0746,64.2234,-0.1711,-0.0261,-0.2991,141.3795
17:14:47:169,-2.6572,2.3402,13.5787,64.3241,0.0164,0.3722,-0.1884,141.3795
17:14:47:189,-3.4696,1.7749,13.3083,64.6227,-0.0465,0.6875,-0.0968,141.3795
17:14:47:209,-4.3627,1.2168,12.7334,64.8375,-0.1221,0.9164,0.0513,141.3795
17:14:47:231,-4.9693,0.9314,11.3414,64.8798,0.0174,0.9526,0.343,141.3795
17:14:47:250,-4.8347,0.8046,9.8201,64.9514,0.2367,0.6971,0.5507,141.3795
17:14:47:270,-4.8347,0.929,9.1089,64.9319,0.3433,-0.0261,0.4016,141.3795
17:14:47:292,-4.1928,0.3517,9.2453,65.2049,0.2357,-0.8899,0.2174,141.3795
17:14:47:310,-3.673,0.0837,9.2022,65.2062,0.1132,-1.156,0.1716,141.3795
17:14:47:330,-3.134,0.3852,8.5603,65.3,0.0313,-0.8696,0.2579,141.3795
17:14:47:351,-2.0895,1.0295,7.7767,65.3389,-0.1338,-0.4458,0.408,141.3795
17:14:47:371,-1.0929,1.3531,7.5302,65.201,-0.4214,-0.0517,0.3451,141.3795
17:14:47:397,-1.1767,0.9529,7.7456,65.239,-0.5928,0.2294,0.0704,141.3795
17:14:47:411,-1.5434,0.213,8.1051,65.1948,-0.3916,0.0144,-0.1426,141.3795
17:14:47:431,-1.4333,-0.0102,7.8269,65.2824,0.2282,-0.5128,-0.1298,141.3795
17:14:47:452,-1.2658,0.1364,7.3914,65.1561,0.9162,-0.7556,0.0087,141.3795
17:14:47:472,-1.0714,0.4666,6.5264,65.2071,1.3923,-0.5596,0.1897,141.3795
17:14:47:492,-1.1719,1.1904,5.5896,65.0956,1.4796,-0.2594,0.2888,141.3795
17:14:47:512,-1.3663,1.3603,5.1996,64.9634,1.1346,0.1176,0.2302,141.3795
17:14:47:533,-1.4692,1.4752,5.2738,64.9036,0.5936,0.5234,0.1844,141.3795
17:14:47:554,-1.7133,1.6816,6.335,64.8249,0.1025,0.5405,0.1461,141.3795
17:14:47:573,-1.8431,1.995,7.8634,64.9814,-0.1338,0.3604,0.0747,141.3795
17:14:47:592,-0.868,3.0826,9.1735,64.9243,-0.1093,0.1005,-0.0212,141.3795
17:14:47:613,-0.585,4.7641,10.7258,64.9691,0.0387,-0.4234,-0.445,141.3795
17:14:47:633,-1.7402,3.6191,12.3643,65.0749,0.1792,-1.1667,-1.2108,141.3795
17:14:47:653,-2.8923,0.7711,13.9047,65.2768,0.1984,-1.762,-1.5547,141.3795
17:14:47:673,-3.2728,-0.3141,14.8391,65.1455,0.0739,-1.8494,-1.0872,141.3795
17:14:47:699,-1.6869,0.1699,15.4858,65.0466,-0.0379,-1.6258,-0.1788,141.4716
17:14:47:714,0.0425,1.0247,16.0319,65.1886,0.127,-1.465,0.3419,141.5685
17:14:47:734,0.6556,0.8644,15.2363,64.986,0.5233,-1.1209,0.3387,141.5685
17:14:47:754,0.658,0.5767,12.2088,64.7417,0.7724,-0.2008,0.3122,141.5685
17:14:47:774,0.9452,0.8189,9.5115,64.5171,0.4477,0.7683,0.36,141.5685
17:14:47:800,1.5661,1.2215,8.2941,64.5071,-0.2659,1.2583,0.2654,141.5685
17:14:47:814,2.0812,1.346,8.3731,64.284,-0.9337,1.2434,-0.0403,141.5685
17:14:47:837,1.9298,0.7184,9.6383,64.6152,-1.316,0.926,-0.4929,141.5685
17:14:47:855,1.4076,0.1436,10.8168,64.8009,-1.2467,0.5511,-0.7827,141.5685
17:14:47:876,0.9332,0.0544,10.8239,64.6595,-0.7547,0.4329,-0.7837,141.6831
17:14:47:898,0.6724,0.0861,9.5904,64.6647,-0.1743,0.7672,-0.5877,141.8254
17:14:47:915,0.5432,0.4857,8.5579,64.6647,0.1856,1.1944,-0.3044,141.989
17:14:47:936,0.2028,1.0175,7.5039,64.9282,0.453,1.4755,-0.084,142.1638
17:14:47:956,-0.2189,1.5757,6.1573,64.6558,0.766,1.5745,0.0502,142.3421
17:14:47:976,-0.6377,2.3569,4.7803,64.599,1.0004,1.4393,0.0832,142.52
17:14:48:000,-1.2012,3.2166,3.8267,64.3252,1.0121,1.1401,-0.0308,142.6964
17:14:48:016,-1.651,3.7555,3.2734,64.114,0.8715,0.8013,-0.2055,142.8739
17:14:48:037,-2.0465,4.1653,3.3476,63.9681,0.6128,0.353,-0.3885,143.053
17:14:48:057,-2.3246,4.1773,4.4638,63.7699,0.2176,-0.1294,-0.576,143.2359
17:14:48:077,-2.8875,3.8997,6.4283,63.7459,-0.2425,-0.4309,-0.7518,143.4273
17:14:48:100,-3.6802,3.3655,8.9198,63.3231,-0.5576,-0.4596,-0.8306,143.629
17:14:48:117,-4.3077,2.4814,11.2648,63.4415,-0.5045,-0.3893,-0.7486,143.8413
17:14:48:137,-4.416,1.9184,12.2877,63.5195,-0.0859,-0.1507,-0.4972,144.0625
17:14:48:157,-4.7773,2.254,11.9665,63.3019,0.3156,0.2124,-0.2225,144.2889
17:14:48:177,-4.8538,2.8624,12.5103,63.1346,0.3081,0.4744,-0.0425,144.5143
17:14:48:200,-4.7198,3.274,13.145,62.9147,0.094,0.9718,0.1354,144.7316
17:14:48:218,-5.077,3.4397,12.4313,62.8634,-0.022,1.6204,0.1823,144.9355
17:14:48:237,-5.9868,3.1519,11.2026,62.8461,-0.072,1.876,0.0502,145.1241
17:14:48:258,-6.7322,2.4957,10.1749,62.7649,-0.0379,1.501,0.0055,145.2999
17:14:48:278,-6.3153,2.1482,9.4804,62.7406,0.1696,0.5202,0.1993,145.4639
17:14:48:301,-5.3258,2.1338,9.1543,62.4193,0.4029,-0.6928,0.3579,145.6121
17:14:48:320,-4.6193,2.2899,9.0873,62.1061,0.4306,-1.5427,0.2803,145.7435
17:14:48:341,-4.0277,2.0596,8.7541,62.1814,0.1025,-1.6002,0.0981,145.8619
17:14:48:360,-3.3547,1.4082,8.3013,62.141,-0.5417,-1.0124,-0.0638,145.97
17:14:48:380,-2.811,0.5815,8.1721,62.044,-1.2212,-0.2423,-0.2076,146.0661
17:14:48:404,-3.1986,0.0401,7.9807,62.1946,-1.6068,0.4648,-0.3321,146.0661
17:14:48:421,-3.7304,-0.5348,7.3603,61.9891,-1.4917,0.7417,-0.2459,146.0661
17:14:48:440,-3.7304,-0.8363,6.3374,62.41,-0.9603,0.4148,0.1748,146.0661
17:14:48:493,-2.6955,-0.6568,5.7123,62.5705,-0.3565,-0.3276,0.7829,146.0661
17:14:48:496,-1.3759,0.3422,6.6221,62.794,0.0473,-1.1827,1.1919,146.0661
17:14:48:506,-0.3673,1.1252,7.6379,63.0086,0.3156,-1.5534,1.162,146.0661
17:14:48:520,-0.1496,1.2263,7.5637,63.0712,0.5595,-1.2508,0.8469,146.0661
17:14:48:541,-0.7555,1.5589,6.9266,63.0611,0.6426,-0.7205,0.5039,146.0661
17:14:48:567,-1.6606,1.9639,6.3063,63.2128,0.4455,-0.1752,0.2622,145.9705
17:14:48:580,-2.5783,2.1673,6.4068,63.3518,-0.0273,0.3381,0.129,145.8711
17:14:48:602,-3.4098,1.8467,7.468,63.2492,-0.4694,0.5607,0.1237,145.7672
17:14:48:621,-3.8889,2.0979,9.2189,63.2229,-0.5427,0.1666,0.3016,145.6539
17:14:48:641,-3.7496,3.1759,10.7545,63.1567,-0.2222,-0.5023,0.5337,145.5249
17:14:48:661,-3.2082,4.1438,12.2447,63.1158,0.1185,-0.9303,0.5124,145.3755
17:14:48:681,-3.3356,3.8566,13.8736,63.0422,0.1877,-0.9932,0.1802,145.2095
17:14:48:704,-3.8572,2.4909,14.1751,63.1234,0.1814,-0.713,-0.1192,145.0402
17:14:48:722,-3.8094,1.1665,14.199,62.9886,0.1494,-0.4735,-0.1053,144.8791
17:14:48:742,-3.4624,0.6634,14.6949,63.0039,0.0919,-0.2722,0.1301,144.7267
17:14:48:762,-2.3677,0.8309,14.0267,62.86,0.1782,0.0378,0.4154,144.5748
17:14:48:782,-1.1073,0.6634,13.617,62.8743,0.2783,0.1272,0.4357,144.4151
17:14:48:803,-0.3912,-0.2016,14.0315,62.9156,0.2985,0.0304,0.2313,144.2497
17:14:48:823,0.0114,-0.475,13.2604,62.7366,0.6106,-0.0346,0.2164,144.0896
17:14:48:842,0.5336,-0.0413,10.7186,62.8202,1.2433,-0.2668,0.3537,143.9361
17:14:48:867,1.2712,1.3101,7.9256,62.4857,1.6298,-0.7098,0.3814,143.7898
17:14:48:884,1.9107,2.5675,7.0415,62.2409,1.1399,-1.0678,0.1045,143.6474
17:14:48:904,1.9083,2.1123,7.7121,62.1024,0.0451,-0.6055,-0.4035,143.513
17:14:48:925,0.8734,1.1276,8.342,61.8386,-0.8027,0.4553,-0.8008,143.3994
17:14:48:944,-0.2572,0.6419,8.0931,61.5835,-0.9518,1.0463,-0.8901,143.3994
17:14:48:968,-0.7244,0.7448,6.807,61.4468,-0.564,0.9015,-0.7379,143.3994
17:14:48:985,-0.8895,1.3125,5.3073,61.3687,-0.2297,0.5149,-0.5462,143.3994
17:14:49:005,-0.5755,1.6935,5.1488,60.9724,-0.1988,0.1431,-0.3885,143.3994
17:14:49:025,-0.2261,1.6935,5.4078,61.0451,-0.136,-0.0879,-0.3118,143.3994
17:14:49:045,0.0999,2.0189,5.4867,61.0834,0.0632,-0.2466,-0.3321,143.3994
17:14:49:069,-0.1256,2.2301,6.0712,61.0143,0.1643,-0.3308,-0.4535,143.3994
17:14:49:085,-0.4678,2.2277,6.1478,61.0989,0.2389,-0.1731,-0.5398,143.3994
17:14:49:105,-1.0044,2.4957,5.2738,61.1281,0.4551,-0.0634,-0.4802,143.3994
17:14:49:125,-1.3807,3.1663,4.5141,60.9336,0.5776,-0.2274,-0.3672,143.3994
17:14:49:146,-1.6008,3.9523,4.5787,60.7573,0.4157,-0.5202,-0.2905,143.4895
17:14:49:169,-1.6367,4.4363,5.671,60.7909,0.0057,-0.7194,-0.2831,143.5856
17:14:49:186,-1.9675,4.386,8.6106,60.8157,-0.5694,-0.7162,-0.4258,143.6844
17:14:49:207,-2.6237,3.6909,12.0503,60.7271,-0.9869,-0.4011,-0.624,143.7881
17:14:49:226,-3.4026,2.7715,14.3791,60.652,-0.9763,0.0059,-0.7337,143.9024
17:14:49:246,-4.2431,1.9232,15.5527,60.5575,-0.6887,0.222,-0.7369,144.0318
17:14:49:270,-4.9549,1.4441,16.1659,60.5469,-0.3831,0.3818,-0.575,144.1778
17:14:49:287,-5.3761,1.5015,14.8463,60.7818,-0.071,0.7843,-0.2332,144.3361
17:14:49:307,-5.3521,1.6816,13.1976,60.946,0.0812,1.0996,0.0928,144.496
17:14:49:328,-5.0602,1.2479,12.7717,60.9826,0.0174,0.9515,0.2611,144.6454
17:14:49:348,-4.6385,0.7783,12.9799,60.8952,0.0897,0.4648,0.3888,144.7786
17:14:49:370,-4.2766,1.0415,11.9737,60.7423,0.3848,0.074,0.4751,144.8932
17:14:49:388,-4.1091,1.3053,10.5171,60.6547,0.4402,-0.0016,0.4453,144.9906
17:14:49:408,-4.0277,1.2837,9.3553,60.6398,0.075,0.2284,0.36,144.9906
17:14:49:429,-3.9416,0.9912,8.0644,60.4863,-0.4342,0.6417,0.3154,144.9906
17:14:49:448,-3.7208,0.4403,7.13,60.2956,-0.9124,0.8535,0.3016,144.9906
17:14:49:470,-3.5031,-0.0245,6.7729,60.0181,-1.2552,0.6907,0.343,144.9906
17:14:49:489,-3.2632,-0.3093,6.9027,60.2015,-1.3479,0.2316,0.5411,144.9906
17:14:49:508,-2.5328,-0.4241,7.2712,60.3369,-1.1222,-0.3616,0.9586,144.9906
17:14:49:529,-1.4405,-0.125,7.118,60.5673,-0.5907,-0.7983,1.4582,144.9906
17:14:49:549,-0.1011,0.0957,5.8606,60.7969,0.0334,-0.8931,1.8458,144.8606
17:14:49:571,0.7298,0.9458,4.8855,60.8398,0.3039,-0.908,1.9044,144.673
17:14:49:590,1.008,1.7198,5.2403,61.0907,0.0324,-0.843,1.5518,144.4304
17:14:49:610,0.8375,1.6887,5.9396,61.0956,-0.3767,-0.432,1.0321,144.1441
17:14:49:630,0.2076,1.2885,7.0463,61.2984,-0.6642,-0.0208,0.4975,143.8299
17:14:49:649,-0.5468,1.0271,7.3747,61.2363,-0.727,0.3413,0.0236,143.5053
17:14:49:672,-0.9757,0.996,7.3747,61.1936,-0.6833,0.5415,-0.3044,143.1873
17:14:49:690,-1.6845,1.075,8.5412,61.1722,-0.6908,0.3136,-0.5963,142.8865
17:14:49:710,-2.5687,0.9362,9.8728,60.9812,-0.5545,-0.1763,-0.8082,142.6113
17:14:49:731,-2.8325,0.3637,11.2672,60.9193,-0.3053,-0.8228,-0.8775,142.3679
17:14:49:751,-2.6501,0.1077,12.7478,60.7943,-0.2158,-1.4351,-0.9178,142.1594
17:14:49:770,-2.1637,-0.4726,14.9994,60.8971,-0.5173,-1.6088,-0.9754,141.9874
17:14:49:792,-1.6367,-1.3442,17.0213,60.8745,-0.8591,-1.155,-0.905,141.8527
17:14:49:811,-1.4094,-0.7645,17.9073,60.8391,-0.8314,-0.433,-0.6197,141.7537
17:14:49:832,-0.9829,0.3159,16.4273,60.7604,-0.4619,0.2401,-0.3225,141.7537
17:14:49:852,-0.4343,0.2154,15.4044,60.7151,-0.2585,0.581,-0.3651,141.7537
17:14:49:872,-0.4487,-1.1001,15.6987,60.852,-0.2158,0.7662,-0.5707,141.7537
17:14:49:893,-0.7603,-1.9214,14.8319,61.0305,0.2336,0.9483,-0.4386,141.7537
17:14:49:912,-0.7196,-1.584,12.216,60.8646,1.0409,0.9036,0.0204,141.7537
17:14:49:933,0.0855,-0.3356,8.8475,60.7355,1.6735,0.5969,0.4857,141.7537
17:14:49:953,0.9452,1.3077,7.2879,60.5602,1.5158,0.0868,0.4399,141.7537
17:14:49:972,0.9021,1.6499,8.1601,60.5006,0.6714,0.0357,-0.1788,141.7537
17:14:49:993,-0.1783,0.5432,8.6201,60.3556,-0.0209,0.8098,-0.7827,141.7537
17:14:50:013,-1.1527,-0.3787,8.0644,60.192,-0.1711,1.4361,-0.9626,141.7537
17:14:50:037,-0.9374,-0.6927,7.2544,60.1286,0.1089,1.2913,-0.7198,141.7537
17:14:50:053,-0.3817,-0.1442,6.9218,59.8186,0.5478,0.7056,-0.4503,141.8577
17:14:50:073,-0.3745,0.5551,6.3087,59.765,0.9514,0.3008,-0.4567,141.9809
17:14:50:093,-0.6766,0.6873,5.3192,59.6509,1.2092,0.2113,-0.5824,142.1259
17:14:50:114,-1.1695,0.6826,4.5476,59.5966,1.2869,0.173,-0.6229,142.2971
17:14:50:138,-1.6199,1.0415,3.9176,59.277,1.239,0.0751,-0.5451,142.4952
17:14:50:153,-1.8503,1.6499,3.6209,59.02,1.059,-0.0698,-0.4077,142.7151
17:14:50:174,-1.8503,1.9807,3.8961,58.7993,0.7085,-0.2764,-0.3055,142.9469
17:14:50:195,-1.6582,2.1864,4.864,58.3133,0.2431,-0.4916,-0.2438,143.1829
17:14:50:215,-1.6104,2.5292,6.536,58.0675,-0.1881,-0.5682,-0.2087,143.4173
17:14:50:239,-2.0249,2.927,8.3252,57.9809,-0.4971,-0.3052,-0.231,143.6465
17:14:50:255,-2.741,3.1663,9.9637,57.9748,-0.7153,0.0858,-0.3172,143.8699
17:14:50:275,-3.7256,2.7715,11.5519,57.6769,-0.8644,0.2901,-0.4461,144.0885
17:14:50:295,-4.3914,1.8802,12.7071,57.7439,-0.858,0.2795,-0.4418,144.3047
17:14:50:315,-4.4303,1.2622,13.7755,57.8255,-0.6599,0.1453,-0.1799,144.5182
17:14:50:339,-4.1067,1.279,13.7994,58.0459,-0.2947,0.2624,0.21,144.7203
17:14:50:355,-4.0469,1.9519,11.9809,58.2512,0.0047,0.6427,0.4357,144.9028
17:14:50:376,-4.6289,1.8802,11.4515,58.4051,-0.1434,0.696,0.2398,145.0613
17:14:50:396,-5.4383,0.4164,12.3619,58.314,-0.3927,0.4276,-0.0531,145.2018
17:14:50:416,-5.604,-0.3882,12.1268,58.2282,-0.1871,0.1314,0.0332,145.3322
17:14:50:440,-5.01,-0.5252,10.8598,58.4998,0.274,-0.1379,0.4069,145.4503
17:14:50:456,-4.2742,0.0885,9.2955,58.6384,0.5435,-0.3446,0.718,145.5495
17:14:50:517,-3.5198,0.7352,8.263,58.6716,0.3443,-0.5192,0.7222,145.5495
17:14:50:518,-2.8708,0.4977,7.928,58.4583,-0.2457,-0.4841,0.4687,145.5495
17:14:50:520,-2.5615,-0.2183,8.0548,58.5107,-0.922,-0.171,0.2047,145.5495
17:14:50:540,-2.272,-0.8267,7.8126,58.5581,-1.4246,0.2401,0.1077,145.5495
17:14:50:557,-2.1398,-0.9033,7.5805,58.8091,-1.6867,0.4265,0.1855,145.5495
17:14:50:581,-2.0154,-0.7119,8.129,58.8684,-1.7218,0.2134,0.3792,145.5495
17:14:50:597,-1.4429,-0.5444,8.7876,58.9119,-1.3863,-0.2604,0.7031,145.5495
17:14:50:617,-0.53,-0.2183,8.8546,59.1178,-0.6557,-0.6427,1.0491,145.4529
17:14:50:641,-0.003,0.3709,7.8945,59.522,0.159,-0.533,1.2419,145.3166
17:14:50:657,0.0497,1.5781,6.0138,59.8984,0.5563,-0.0932,1.1983,145.1459
17:14:50:679,-0.2261,2.266,5.1829,60.4564,0.2698,0.1186,0.8522,144.9454
17:14:50:699,-0.5922,1.8826,5.7984,60.7848,-0.2702,0.1527,0.4101,144.7233
17:14:50:720,-1.3256,1.6403,7.5159,61.2358,-0.53,-0.1337,0.0726,144.4895
17:14:50:743,-2.1135,1.212,9.3218,61.6535,-0.3948,-0.647,-0.2545,144.2534
17:14:50:760,-2.7577,0.5264,10.261,61.8536,-0.055,-0.9378,-0.5036,144.0278
17:14:50:781,-3.1555,0.1627,10.8287,62.0267,0.1643,-0.9282,-0.5611,143.8228
17:14:50:801,-3.2704,0.4977,12.4241,62.2929,0.0897,-0.8355,-0.5142,143.6421
17:14:50:821,-3.1029,0.5121,14.254,62.381,-0.0433,-0.7141,-0.56,143.4825
17:14:50:841,-2.9258,-0.4409,15.5934,62.5483,-0.0134,-0.6257,-0.7188,143.344
17:14:50:860,-2.7721,-1.1886,16.9902,62.8095,0.0919,-0.6236,-0.7795,143.232
17:14:50:880,-2.5017,-0.9679,16.6858,63.2456,0.323,-0.3851,-0.6048,143.232
17:14:50:900,-1.8526,-0.3045,15.0329,63.5572,0.6383,-0.1103,-0.3427,143.232
17:14:50:920,-1.4285,-0.0963,14.8534,63.8121,0.7213,-0.0783,-0.2905,143.232
17:14:50:941,-1.7234,-0.8841,14.5992,64.1048,0.7596,0.2103,-0.3395,143.232
17:14:50:960,-1.788,-1.7468,12.5916,64.2117,1.0142,0.6811,-0.1352,143.232
17:14:50:980,-1.6152,-1.8257,10.3902,64.3434,1.1953,0.7566,0.2451,143.232
17:14:51:000,-1.0546,-0.8961,8.6512,64.6553,1.1261,0.5884,0.62,143.232
17:14:51:021,-0.3936,0.2919,7.3436,64.7297,0.7959,0.532,0.7904,143.232
17:14:51:043,0.1717,0.9194,6.3829,64.846,0.2634,0.7694,0.6178,143.232
