Time,Acc_X,Acc_Y,Acc_Z,Meg,Gyr_X,Gyr_Y,Gyr_Z,Ore
17:17:51:929,-0.5133,2.8098,9.3793,56.3609,0.0079,-0.0304,-0.0095,61.6789
17:17:51:949,-0.7555,2.793,9.3003,56.5297,0.0494,-0.0581,0.0427,61.6789
17:17:51:969,-0.6718,2.9103,9.1639,56.5366,0.0249,-0.0282,0.0875,61.6789
17:17:51:992,-0.655,2.9414,9.3434,56.4857,-0.0443,-0.0357,0.1056,61.6789
17:17:52:008,-0.5683,2.9055,9.5521,56.3787,-0.0827,-0.0453,0.128,61.6789
17:17:52:044,-0.4391,2.8481,9.7986,56.5431,-0.0646,-0.0123,0.1461,61.6789
17:17:52:049,-0.384,2.8528,9.5952,56.5786,0.0601,0.0069,0.1397,61.6789
17:17:52:070,-0.3864,2.9198,9.2501,56.8096,0.1995,-0.0943,0.1067,61.6789
17:17:52:089,-0.3673,2.9821,9.1735,56.8904,0.1941,-0.1635,0.0832,61.6789
17:17:52:109,-0.3194,2.8983,9.1711,56.7103,0.0782,-0.0517,0.0992,61.6789
17:17:52:129,-0.3266,2.9509,9.274,56.6437,-0.0071,0.0772,0.1237,61.6789
17:17:52:149,-0.2285,2.9605,9.061,56.7244,0.0004,0.1112,0.1184,61.6789
17:17:52:169,-0.2381,2.939,9.1974,56.7936,0.0068,0.0368,0.0822,61.6789
17:17:52:190,-0.2261,2.8385,9.1615,56.6456,-0.006,0.0027,0.0502,61.6789
17:17:52:210,-0.2812,2.8816,9.1017,56.5304,-0.0209,0.025,0.0438,61.6789
17:17:52:230,-0.2883,2.8481,9.1831,56.4434,-0.0379,-0.0005,0.047,61.6789
17:17:52:251,-0.1711,2.9222,9.1663,56.532,-0.0305,-0.0346,0.0619,61.6789
17:17:52:271,-0.0461,3.061,9.2405,56.5736,-0.0422,-0.0485,0.0683,61.6789
17:17:52:291,0.0377,3.1184,9.2142,56.7845,-0.0539,-0.0304,0.0523,61.6789
17:17:52:310,0.0209,3.061,9.1663,56.6168,-0.0571,-0.0378,0.0161,61.6789
17:17:52:332,0.0066,2.9533,9.3075,56.4077,-0.0763,-0.074,-0.019,61.6789
17:17:52:351,-0.0197,2.9007,9.5306,56.4023,-0.1093,-0.0613,-0.0361,61.6789
17:17:52:372,-0.0843,2.8289,9.4732,56.438,-0.0891,-0.0154,-0.0414,61.6789
17:17:52:393,-0.0843,2.8863,9.2572,56.2715,-0.039,-0.0112,-0.0361,61.6789
17:17:52:413,-0.128,2.9342,9.2022,56.1934,-0.0209,-0.0549,-0.0361,61.6789
17:17:52:436,-0.1131,2.9677,9.0227,55.9861,-0.022,-0.0591,-0.0308,61.6789
17:17:52:455,-0.0437,2.8768,9.1639,56.1276,-0.0763,-0.0634,-0.0297,61.6789
17:17:52:475,-0.0245,2.8122,9.3912,56.2067,-0.1317,-0.0772,-0.0244,61.6789
17:17:52:493,-0.082,2.7858,9.4636,56.2469,-0.1296,-0.0708,-0.0095,61.6789
17:17:52:516,0.0257,2.8361,9.4588,56.1955,-0.0827,-0.0602,0.014,61.6789
17:17:52:534,0.1693,2.9174,9.2788,56.4056,-0.0177,-0.0634,0.0268,61.6789
17:17:52:556,0.2411,2.9892,9.1352,56.5155,0.01,-0.0985,0.0182,61.6789
17:17:52:574,0.1573,3.2094,8.9749,56.6755,-0.006,-0.0943,0.0087,61.6789
17:17:52:597,-0.015,3.5928,8.8331,56.7543,-0.0166,-0.0772,0.0236,61.6789
17:17:52:613,-0.1083,4.1414,8.5101,56.736,-0.0007,-0.0698,0.0726,61.6789
17:17:52:633,0.0401,4.2897,7.8921,56.7012,-0.0103,-0.0932,0.1205,61.6789
17:17:52:655,0.0353,3.9571,7.5996,56.6663,-0.136,-0.2019,0.1045,61.6789
17:17:52:685,-0.3553,3.4732,7.4489,56.6749,-0.3298,-0.1912,0.063,61.6789
17:17:52:695,-0.6933,3.2357,7.3914,56.6287,-0.4885,0.0346,0.1525,61.6789
17:17:52:718,-0.9278,3.0778,7.5637,56.4032,-0.5885,0.2965,0.3366,61.6789
17:17:52:734,-1.1336,3.2261,7.6283,56.2815,-0.5555,0.4574,0.5252,61.6789
17:17:52:756,-1.0786,3.8351,7.4608,56.2752,-0.4161,0.4627,0.6711,61.6789
17:17:52:777,-0.5587,4.0887,7.8054,56.2098,-0.3426,0.1719,0.6413,61.5708
17:17:52:794,-0.2788,3.6191,8.9916,56.1865,-0.3778,-0.2775,0.4186,61.4384
17:17:52:818,-0.3649,3.3966,10.0289,56.1512,-0.43,-0.4011,0.2036,61.2816
17:17:52:836,-0.7555,3.3296,10.3065,56.1556,-0.5024,-0.1806,0.0502,61.1119
17:17:52:859,-0.7125,2.9749,10.5488,56.0011,-0.726,-0.0559,-0.0563,60.9405
17:17:52:875,-0.3817,2.1984,11.8493,55.9285,-1.0796,-0.1369,-0.149,60.7735
17:17:52:895,-0.3673,1.456,12.9105,56.0029,-1.2041,-0.0474,-0.2012,60.6154
17:17:52:920,-0.9087,1.6451,12.1149,55.9271,-0.857,0.3999,-0.1138,60.4714
17:17:52:936,-1.5003,2.5723,9.8393,56.02,-0.3245,0.7949,0.0971,60.3452
17:17:52:959,-1.529,3.3607,7.8174,56.0767,-0.0539,0.7726,0.2877,60.2334
17:17:52:976,-1.057,3.8471,6.8764,56.1969,-0.104,0.4329,0.3739,60.1242
17:17:52:999,-0.7388,3.6431,7.1659,56.2496,-0.2659,-0.0346,0.2909,60.0066
17:17:53:018,-0.8393,3.1161,7.861,56.1283,-0.3202,-0.3872,0.1312,59.8745
17:17:53:038,-1.0355,2.6608,8.3228,56.1913,-0.2616,-0.4852,0.0694,59.7309
17:17:53:059,-1.1456,2.388,8.5388,56.1288,-0.1668,-0.4021,0.1024,59.5851
17:17:53:076,-1.3735,2.601,8.9581,56.3574,-0.0795,-0.3393,0.1471,59.4407
17:17:53:099,-1.6247,2.8839,9.0538,56.215,0.0601,-0.2999,0.1908,59.2983
17:17:53:120,-1.4118,3.478,8.5699,56.1929,0.1899,-0.2786,0.2696,59.1587
17:17:53:138,-0.8225,3.5809,8.9145,56.3934,0.094,-0.417,0.2995,59.0196
17:17:53:161,-0.2261,3.3344,10.273,56.1831,-0.1615,-0.5692,0.2494,58.8757
17:17:53:179,-0.1083,3.3416,11.8875,56.2728,-0.3277,-0.5192,0.161,58.7254
17:17:53:200,-0.408,3.4899,12.9775,56.4931,-0.2659,-0.318,0.0704,58.5703
17:17:53:220,-0.2381,3.399,13.4064,56.5524,-0.0273,-0.2541,0.0193,58.4144
17:17:53:238,0.3679,2.8983,13.1163,56.4337,0.2005,-0.4884,-0.0137,58.2628
17:17:53:259,1.0534,2.4718,13.2413,56.5706,0.2154,-0.9048,-0.0766,58.1175
17:17:53:279,1.87,2.1123,13.6959,56.4593,0.0238,-1.0859,-0.1298,57.9788
17:17:53:299,2.6776,1.3555,13.8855,56.1362,-0.2403,-0.8345,-0.2236,57.8486
17:17:53:320,2.735,0.1675,14.269,56.4649,-0.6035,-0.3116,-0.3832,57.7291
17:17:53:339,2.0764,-0.8267,14.4963,56.6128,-0.8378,0.2976,-0.462,57.6231
17:17:53:362,1.2401,-1.4327,13.6313,56.4781,-0.6312,0.763,-0.3715,57.6231
17:17:53:379,0.8973,-1.0546,11.4562,56.4943,-0.1296,0.9473,-0.0947,57.6231
17:17:53:401,1.1492,-0.475,9.274,56.6986,0.225,0.7587,0.1567,57.6231
17:17:53:420,1.6235,-0.4576,8.7613,56.7969,0.1888,0.2316,0.2089,57.6231
17:17:53:440,1.7791,-0.5228,9.0562,56.7724,0.0611,-0.1358,0.1727,57.6231
17:17:53:459,1.602,-0.3308,8.8235,57.031,0.1068,-0.1401,0.1525,57.6231
17:17:53:481,1.3765,-0.0006,8.0788,56.8481,0.2293,0.0016,0.1418,57.6231
17:17:53:500,1.1755,0.2369,7.1898,56.7843,0.3422,0.1559,0.1216,57.6231
17:17:53:520,0.8973,0.591,6.186,56.9278,0.4849,0.2507,0.0758,57.6231
17:17:53:542,0.7561,1.0247,5.065,56.9183,0.6,0.2912,0.0033,57.6231
17:17:53:561,0.6485,1.4871,4.404,56.9717,0.5648,0.271,-0.0979,57.6231
17:17:53:582,0.725,1.8826,4.6654,56.9992,0.4157,0.1325,-0.214,57.6231
17:17:53:601,0.8997,2.0237,5.2953,57.2235,0.3007,-0.0091,-0.3587,57.6231
17:17:53:622,0.9745,2.1888,5.5777,57.2184,0.2421,0.0932,-0.5164,57.6231
17:17:53:643,0.4014,2.2397,6.0616,57.3975,0.1132,0.3296,-0.6825,57.6231
17:17:53:662,-0.2692,2.0788,6.9242,57.2988,0.0132,0.3839,-0.7422,57.6231
17:17:53:685,-0.679,2.0907,7.4369,57.4332,0.0292,0.239,-0.6133,57.6231
17:17:53:703,-0.6329,2.4622,8.2965,57.3604,-0.0475,0.0517,-0.3332,57.6231
17:17:53:722,-0.2955,2.6919,10.0337,57.3696,-0.2542,-0.1177,-0.0435,57.6231
17:17:53:743,0.2483,3.0658,12.1657,57.4689,-0.3618,-0.1699,0.1706,57.717
17:17:53:763,0.7968,3.6622,13.5739,57.5419,-0.3309,0.008,0.2984,57.8113
17:17:53:783,0.603,3.8447,14.5944,57.6034,-0.3011,0.2795,0.2302,57.8113
17:17:53:804,-0.0293,3.4229,15.5504,57.6765,-0.2989,0.5383,0.1269,57.8113
17:17:53:824,-0.384,3.0179,15.67,57.7846,-0.0997,0.7331,0.2164,57.8113
17:17:53:843,-0.0676,2.5268,14.4389,57.9236,0.2644,0.7236,0.3611,57.8113
17:17:53:901,0.0616,1.5398,14.4748,58.298,0.421,0.2848,0.3229,57.8113
17:17:53:904,-0.1878,0.3996,13.9549,58.2067,0.6618,-0.0538,0.2345,57.8113
17:17:53:906,-0.7771,-0.0724,11.677,58.3146,1.173,-0.1646,0.1812,57.8113
17:17:53:924,-1.1073,-0.0724,9.5856,58.4257,1.405,-0.4224,0.1493,57.8113
17:17:53:944,-1.0929,0.2967,8.6465,58.6118,1.0867,-0.664,0.1652,57.8113
17:17:53:965,-0.5587,0.5121,8.3492,58.8253,0.4913,-0.6129,0.1972,57.8113
17:17:53:985,-0.0365,0.536,8.3683,59.0334,-0.1232,-0.3105,0.2047,57.8113
17:17:54:006,-0.0389,0.4522,8.3324,59.1071,-0.5385,0.1229,0.1642,57.8113
17:17:54:027,-0.3242,0.3302,7.6164,59.2422,-0.5779,0.4031,0.1173,57.8113
17:17:54:045,-0.384,0.2919,6.8046,59.5251,-0.3767,0.3466,0.1269,57.8113
17:17:54:065,-0.3984,0.3996,6.2465,59.7051,-0.1168,0.1261,0.178,57.8113
17:17:54:086,-0.3601,0.7328,5.8774,59.8497,0.1313,-0.025,0.2558,57.8113
17:17:54:105,-0.4152,1.1928,5.659,59.946,0.274,-0.0613,0.3101,57.8113
17:17:54:126,-0.4678,1.4847,5.4843,59.9281,0.3326,-0.0378,0.343,57.8113
17:17:54:146,-0.3697,1.7868,5.4341,60.1438,0.3294,-0.0368,0.3728,57.8113
17:17:54:166,-0.0269,1.5996,5.6327,60.147,0.2421,-0.0847,0.3739,57.8113
17:17:54:186,0.2578,1.7462,6.3159,60.1437,0.1537,-0.1955,0.3387,57.8113
17:17:54:207,0.1908,2.3234,6.6174,60.1571,0.0919,-0.2051,0.243,57.8113
17:17:54:227,0.1669,2.7523,7.3962,60.1294,-0.0656,-0.1571,0.129,57.8113
17:17:54:247,0.1956,3.4038,9.5498,60.4718,-0.2659,-0.2594,0.0023,57.8113
17:17:54:267,0.0855,3.7747,11.6219,60.5995,-0.2851,-0.3893,-0.1969,57.8113
17:17:54:287,0.2171,3.8758,12.338,60.7922,-0.2052,-0.5224,-0.3832,57.8113
17:17:54:307,0.8447,3.7005,13.9262,60.7728,-0.4449,-0.7375,-0.4919,57.8113
17:17:54:327,1.9202,2.8313,16.9107,60.9805,-0.9337,-0.7631,-0.5622,57.8113
17:17:54:348,2.0357,1.9328,18.6215,61.0678,-1.0583,-0.4149,-0.6335,57.8113
17:17:54:368,1.7743,1.3531,18.3147,61.3767,-0.7036,-0.0399,-0.6272,57.8113
17:17:54:388,2.263,0.3182,18.2022,61.5892,-0.317,0.0218,-0.5196,57.8113
17:17:54:408,2.5023,-0.731,17.4861,61.3372,0.1292,0.1602,-0.3502,57.9307
17:17:54:428,2.0207,-1.1958,13.9262,61.2782,0.8981,0.5213,-0.1703,58.0724
17:17:54:448,1.4435,-0.5252,9.4875,61.5446,1.4168,0.6651,-0.0063,58.2293
17:17:54:469,1.7192,0.2536,6.7107,61.584,1.1389,0.4414,0.1173,58.3919
17:17:54:490,2.342,0.7543,5.8247,61.4456,0.4519,0.1826,0.0992,58.5522
17:17:54:509,2.4138,0.9314,5.5777,61.3883,-0.0497,0.0836,-0.1234,58.7038
17:17:54:529,1.7073,0.9075,5.281,61.1079,-0.2105,0.0218,-0.4429,58.8468
17:17:54:549,0.9428,0.6778,4.7539,61.185,-0.1391,-0.2146,-0.6676,58.9914
17:17:54:569,0.5719,0.6634,4.5021,61.2577,0.0366,-0.6118,-0.7337,59.148
17:17:54:590,0.4134,0.8477,4.651,61.4432,0.2144,-0.9282,-0.7007,59.3253
17:17:54:610,0.3464,1.1276,4.864,61.3046,0.2996,-0.8387,-0.6037,59.525
17:17:54:630,0.3033,1.5613,4.8305,61.6511,0.2389,-0.3201,-0.4706,59.7447
17:17:54:650,0.4355,2.0477,5.2355,62.0218,0.0728,0.1708,-0.3917,59.9805
17:17:54:670,0.3153,2.2756,5.5705,62.09,-0.0507,0.3541,-0.445,60.228
17:17:54:692,-0.0269,2.613,6.1956,62.2505,-0.0901,0.2475,-0.526,60.4835
17:17:54:711,-0.0748,2.8002,6.9984,62.2576,-0.0859,-0.0602,-0.5313,60.7477
17:17:54:731,0.3727,3.0849,8.4885,62.3045,-0.1317,-0.3499,-0.4418,61.0227
17:17:54:751,0.6796,3.2118,10.2945,62.4164,-0.251,-0.3009,-0.347,61.3085
17:17:54:772,0.1334,3.4397,11.854,62.5601,-0.332,0.1367,-0.2545,61.6023
17:17:54:791,-0.6909,3.7842,13.2867,62.5823,-0.2499,0.5948,-0.0808,61.9014
17:17:54:814,-0.7149,3.7077,14.0722,62.7718,0.0409,0.6491,0.1067,62.2026
17:17:54:834,-0.3601,3.9523,14.2038,62.976,0.3795,0.4947,0.2441,62.5004
17:17:54:854,-0.2907,3.8082,14.8941,62.9548,0.4786,0.3743,0.2505,62.7876
17:17:54:873,-0.3601,3.2524,15.2172,63.1972,0.4828,0.418,0.2292,63.0581
17:17:54:894,-0.3194,2.6512,14.7715,63.3452,0.5542,0.5075,0.2696,63.3128
17:17:54:914,-0.3649,1.7103,14.3049,63.5988,0.6596,0.3711,0.2675,63.5547
17:17:54:934,-0.4774,1.1444,13.1091,63.5088,0.912,0.2156,0.2707,63.7842
17:17:54:956,-0.5515,1.3795,11.0106,63.6873,1.1399,0.1644,0.3355,64.0026
17:17:54:974,-0.3697,1.9567,9.061,63.8601,0.9045,0.255,0.3814,64.2112
17:17:54:996,-0.0652,2.5172,7.7671,64.027,0.2218,0.5362,0.3707,64.4066
17:17:55:014,0.0855,2.4981,7.142,64.2688,-0.5385,0.7758,0.2313,64.586
17:17:55:034,-0.0269,1.8419,7.4584,64.255,-1.0572,0.6992,0.0236,64.7475
17:17:55:054,-0.3051,0.9362,7.5446,64.5595,-1.1169,0.3573,-0.1117,64.8958
17:17:55:075,-0.5994,0.4881,7.1946,64.4353,-0.8229,-0.0346,-0.0531,65.0379
17:17:55:093,-0.5659,0.2871,6.6509,64.6049,-0.464,-0.3574,0.1961,65.1798
17:17:55:114,-0.0604,0.5958,6.1167,64.6875,-0.1381,-0.5447,0.5603,65.3203
17:17:55:135,0.4666,1.2502,5.796,64.6701,0.1292,-0.5767,0.8373,65.452
17:17:55:155,0.7777,1.9161,5.2786,64.5415,0.2857,-0.449,0.9225,65.5618
17:17:55:175,0.8662,2.5196,4.8975,64.3389,0.3188,-0.2807,0.8224,65.5618
17:17:55:195,0.3153,2.9605,4.675,64.5896,0.2559,-0.2051,0.572,65.5618
17:17:55:215,-0.0126,3.2094,5.1224,64.452,0.1494,-0.3403,0.3261,65.5618
17:17:55:236,-0.0676,3.1974,6.3111,64.4526,-0.0475,-0.6033,0.1461,65.5618
17:17:55:255,0.0401,2.8672,8.275,64.4418,-0.333,-0.745,0.031,65.5618
17:17:55:275,-0.128,2.8672,10.1175,64.3689,-0.414,-0.615,-0.0137,65.5618
17:17:55:295,-0.4343,3.1687,11.3103,64.2208,-0.2286,-0.4554,-0.0265,65.5618
17:17:55:316,-0.4343,3.4301,12.2973,64.2464,-0.1221,-0.6033,-0.0137,65.5618
17:17:55:336,0.536,3.4875,13.7516,64.4061,-0.2883,-0.8718,0.0364,65.5618
17:17:55:355,1.6355,3.0778,15.3972,64.1982,-0.512,-0.8909,0.0268,65.5618
17:17:55:376,2.184,2.4957,16.6044,63.8719,-0.5449,-0.5511,-0.0318,65.5618
17:17:55:397,2.4209,2.6201,16.2353,63.7975,-0.2723,-0.057,-0.0244,65.5618
17:17:55:416,2.948,2.4742,14.3719,63.6953,0.043,0.3349,-0.0776,65.5618
17:17:55:437,3.4271,1.5422,13.8568,63.5881,-0.0465,0.4606,-0.3087,65.5618
17:17:55:456,2.8666,0.1125,13.8832,63.699,-0.1658,0.6427,-0.5814,65.5618
17:17:55:477,1.9155,-0.8267,12.4792,63.7326,0.1558,0.8972,-0.6698,65.5618
17:17:55:498,1.0319,-0.9631,9.9302,63.814,0.5691,0.9473,-0.5526,65.5618
17:17:55:518,0.7896,-0.1537,7.9807,63.7739,0.5521,0.7736,-0.3097,65.5618
17:17:55:537,0.7394,0.5097,6.6413,63.8554,0.2463,0.6374,-0.149,65.6634
17:17:55:558,0.6341,0.9266,5.5944,64.0667,0.0505,0.5682,-0.1149,65.7756
17:17:55:578,1.0223,0.8955,4.9573,64.3062,0.0451,0.2869,-0.067,65.8921
17:17:55:598,1.7097,1.4393,4.6941,64.3963,-0.0007,-0.123,-0.0574,66.0106
17:17:55:618,2.4138,1.6935,5.6231,64.2976,-0.4118,-0.3095,-0.2204,66.1286
17:17:55:638,2.4568,1.4752,7.4058,64.2473,-0.9337,-0.1028,-0.5654,66.2452
17:17:55:658,1.4148,0.8644,8.4311,64.2869,-0.9987,0.4031,-0.9338,66.3663
17:17:55:679,-0.1591,0.5886,7.9304,64.5239,-0.5438,0.8045,-1.051,66.5047
17:17:55:699,-0.856,0.7472,6.7466,64.5528,0.0345,0.7704,-0.821,66.6735
17:17:55:719,-0.6598,1.5278,6.0903,64.512,0.3774,0.3828,-0.4514,66.8761
17:17:55:739,-0.1496,2.3904,6.1071,64.5494,0.4306,-0.0346,-0.1969,67.1039
17:17:55:759,0.186,3.2118,6.5886,64.7586,0.322,-0.2189,-0.1181,67.343
17:17:55:780,0.2435,3.8925,7.1013,64.9137,0.1196,-0.1997,-0.1415,67.5824
17:17:55:800,0.0951,4.3884,8.3803,65.1064,-0.1892,-0.2498,-0.2076,67.8181
17:17:55:820,-0.1376,4.4219,11.1858,65.0651,-0.5608,-0.3819,-0.2758,68.0501
17:17:55:840,-0.3697,3.8901,13.9286,65.0248,-0.6578,-0.3116,-0.3193,68.2797
17:17:55:865,-0.7316,3.0802,15.4858,65.0836,-0.3703,-0.1294,-0.3087,68.5111
17:17:55:915,-0.7172,2.3354,16.1444,65.1029,0.0036,-0.0346,-0.1756,68.7473
17:17:55:917,-0.2213,2.4957,16.2903,65.0228,0.3699,0.041,0.0981,68.9892
17:17:55:923,-0.1543,3.0419,15.1717,64.7759,0.7543,0.3072,0.2877,69.2329
17:17:55:940,-0.5396,3.2453,12.6419,64.5885,1.0803,0.6449,0.3282,69.4685
17:17:55:961,-0.4965,3.0323,11.3892,64.3648,1.125,0.4883,0.3686,69.6895
17:17:55:981,0.1645,2.7422,11.3175,64.3774,1.1229,-0.0463,0.4506,69.8943
17:17:56:001,0.1669,2.5771,10.0026,64.4159,1.3571,-0.4277,0.324,70.0819
17:17:56:021,-0.2716,2.2708,8.522,64.4012,1.2869,-0.6566,0.0161,70.2499
17:17:56:044,-0.3793,1.6331,8.1362,64.5019,0.584,-0.6662,-0.1863,70.4027
17:17:56:064,-0.4319,0.6634,8.7063,64.3869,-0.3405,-0.4,-0.2491,70.5526
17:17:56:085,-0.5228,-0.2303,9.0323,64.4325,-0.9134,-0.0453,-0.2065,70.7068
17:17:56:107,-0.4128,-0.3284,8.2582,64.5209,-0.9667,0.2113,-0.0467,70.8678
17:17:56:125,-0.1735,-0.0365,6.7783,64.6386,-0.7867,0.2656,0.1003,71.0347
17:17:56:147,-0.0508,0.347,6.1454,64.5353,-0.7015,0.0389,0.1184,71.2007
17:17:56:166,-0.2166,0.323,6.7418,64.6381,-0.629,-0.383,0.0715,71.3595
17:17:56:188,-0.3601,0.7256,7.0008,64.6375,-0.2989,-0.6427,0.1407,71.5098
17:17:56:205,-0.1687,1.5876,6.0281,64.3848,0.1398,-0.5106,0.3101,71.6557
17:17:56:228,-0.0413,2.3402,5.1344,64.3649,0.2985,-0.2551,0.3579,71.7938
17:17:56:246,-0.2381,2.7619,4.9262,64.4829,0.176,-0.1443,0.2238,71.9169
17:17:56:267,-0.6646,2.9342,5.6112,64.4699,-0.0465,-0.2253,0.0161,72.0224
17:17:56:284,-1.0881,2.7811,6.8405,64.4737,-0.2393,-0.351,-0.1053,72.1157
17:17:56:309,-1.1097,2.6919,8.3707,64.4239,-0.381,-0.3254,-0.0851,72.1157
17:17:56:326,-0.8776,2.8576,9.5402,64.2548,-0.5269,-0.1326,-0.0169,72.208
17:17:56:349,-0.813,2.9892,10.8215,64.1962,-0.6759,-0.0133,-0.0318,72.3015
17:17:56:366,-0.9494,2.6704,11.7775,64.2578,-0.7963,0.0527,-0.0862,72.3941
17:17:56:385,-0.6185,2.1386,12.5414,64.342,-0.9081,-0.0272,-0.0308,72.4866
17:17:56:411,0.4953,1.3866,14.3791,64.3478,-1.0924,-0.3648,0.1226,72.5817
17:17:56:429,1.5829,0.4881,16.1946,64.473,-1.1318,-0.5607,0.2132,72.6782
17:17:56:447,1.6307,0.0592,16.398,64.4009,-0.8186,-0.2967,0.1834,72.7719
17:17:56:467,1.7432,0.052,14.9181,64.6322,-0.3426,0.0868,0.2079,72.7719
17:17:56:487,1.9777,-0.1059,14.187,64.7445,-0.0316,0.2379,0.2196,72.7719
17:17:56:507,2.117,-0.2782,13.2293,64.7798,0.2538,0.4766,0.2025,72.7719
17:17:56:526,1.8891,0.0066,11.866,64.9189,0.6256,0.6715,0.1791,72.7719
17:17:56:548,2.0883,0.1125,10.0552,64.9804,0.9333,0.484,0.1248,72.7719
17:17:56:567,2.7972,0.3637,8.6225,64.9973,0.9365,-0.0346,-0.0137,72.7719
17:17:56:588,3.0915,0.5001,8.4861,65.0137,0.4285,-0.4234,-0.3172,72.7719
17:17:56:607,2.1697,-0.3069,9.801,65.1126,-0.4193,-0.3276,-0.7039,72.7719
17:17:56:629,0.5527,-0.9775,10.7426,65.0711,-0.8825,0.1772,-0.8434,72.7719
17:17:56:647,-0.2835,-0.7238,9.8417,65.0436,-0.5587,0.5703,-0.5899,72.8743
17:17:56:669,0.1119,0.2704,7.8413,65.0552,0.1153,0.5511,-0.1927,73.0078
17:17:56:688,1.0439,1.267,6.0832,65.276,0.5659,0.2869,-0.0329,73.1615
17:17:56:710,1.5948,2.1673,5.3647,65.2968,0.5595,0.125,-0.198,73.3187
17:17:56:727,1.3262,2.266,5.5848,65.5819,0.241,0.1389,-0.5441,73.4714
17:17:56:749,0.5145,1.8897,6.2339,65.7555,-0.0379,0.2838,-0.8082,73.6245
17:17:56:768,0.0951,1.7198,6.5623,65.9517,-0.0316,0.3967,-0.8082,73.791
17:17:56:789,0.2291,1.7342,6.8333,66.1153,0.1664,0.3285,-0.6453,73.98
17:17:56:809,0.3153,1.9328,6.6724,66.2847,0.4743,0.1953,-0.5057,74.1911
17:17:56:829,0.0879,2.5866,5.9396,66.6589,0.7809,0.1048,-0.4333,74.418
17:17:56:848,-0.1424,3.2261,5.6351,66.6626,0.8342,0.0272,-0.3758,74.6549
17:17:56:870,-0.4391,3.8471,6.0473,66.7325,0.6426,0.0218,-0.3289,74.8987
17:17:56:889,-0.9565,4.1964,6.9673,66.7168,0.3518,0.0719,-0.3374,75.1469
17:17:56:910,-1.5003,4.4698,7.9041,66.937,0.0121,0.0623,-0.3726,75.3975
17:17:56:929,-1.3448,3.801,10.0744,67.0855,-0.4917,-0.0921,-0.3971,75.6505
17:17:56:949,-1.1121,2.4239,13.3466,67.1474,-0.9955,-0.2157,-0.4003,75.9062
17:17:56:969,-0.8154,1.7174,16.4848,67.2954,-1.169,-0.1795,-0.2758,76.1649
17:17:56:990,-0.8249,2.0166,17.3468,67.1983,-0.9028,0.1687,-0.0883,76.4289
17:17:57:011,-1.3831,1.9759,16.0989,67.2177,-0.4726,0.4819,-0.0478,76.6938
17:17:57:031,-2.0943,1.59,15.2961,67.1503,-0.2254,0.3604,-0.0435,76.9531
17:17:57:050,-2.3988,1.4393,14.3097,67.3032,0.0153,0.1325,0.0992,77.2056
17:17:57:071,-2.2235,1.346,12.6347,67.3366,0.3081,-0.0804,0.2654,77.453
17:17:57:090,-1.9268,0.4403,11.3055,67.3341,0.3433,-0.3606,0.3069,77.6905
17:17:57:110,-1.7474,-0.2877,10.7043,67.5097,0.0951,-0.5841,0.3366,77.9129
17:17:57:130,-1.2227,-0.7789,10.5847,67.4878,-0.1679,-0.6576,0.4879,78.1197
17:17:57:151,-0.7819,-0.9009,9.8704,67.7599,-0.2265,-0.4852,0.6913,78.311
17:17:57:171,-0.6353,-0.5755,8.33,67.7903,-0.1157,-0.1145,0.8873,78.4817
17:17:57:192,-0.5611,0.0425,6.7974,68.0587,0.0079,0.1005,1.0523,78.6251
17:17:57:212,-0.1591,0.6156,5.7314,68.0941,0.1196,-0.0517,1.1535,78.7338
17:17:57:232,0.4331,1.1761,5.5609,67.9969,0.2762,-0.5128,1.1716,78.7338
17:17:57:252,0.9601,1.602,5.7362,68.246,0.4828,-0.8845,1.1194,78.7338
17:17:57:274,1.3741,2.1147,5.8271,68.5043,0.6778,-0.8792,1.0523,78.7338
17:17:57:293,1.6929,2.7039,5.7745,68.5135,0.782,-0.6055,0.9533,78.7338
17:17:57:314,1.815,3.1735,5.9803,68.6436,0.7575,-0.302,0.7808,78.6364
17:17:57:334,1.4698,3.2166,6.2824,68.6319,0.6957,-0.1284,0.5166,78.5037
17:17:57:354,0.8183,3.0969,6.8596,68.6566,0.6469,-0.171,0.2238,78.3413
17:17:57:374,0.0425,2.6704,7.4345,68.6543,0.4881,-0.1955,-0.0222,78.1601
17:17:57:394,-0.5492,2.3593,8.2367,68.527,0.1324,-0.0399,-0.1298,77.9715
17:17:57:414,-0.8608,2.4981,9.0849,68.3587,-0.2542,0.173,-0.0968,77.7855
17:17:57:434,-0.7125,2.8959,9.7388,68.2934,-0.5173,0.2433,-0.0744,77.6076
17:17:57:454,-0.0867,2.8241,11.0782,68.2935,-0.8335,-0.008,-0.2097,77.4378
17:17:57:474,0.3105,1.535,13.6481,68.4551,-1.1647,-0.4905,-0.4876,77.2754
17:17:57:495,0.1908,0.079,15.7466,68.8631,-1.169,-0.5884,-0.5654,77.127
17:17:57:514,0.7825,-0.082,15.804,68.797,-0.7547,-0.0698,-0.1959,77.0042
17:17:57:535,2.0859,0.3087,14.0626,68.9189,-0.2553,0.4819,0.1631,76.9112
17:17:57:556,2.6967,0.1507,13.2844,69.1128,-0.0976,0.5266,0.0747,76.9112
17:17:57:574,2.747,-0.7836,13.0564,69.3691,-0.153,0.4712,-0.1671,76.9112
17:17:57:595,2.5573,-1.852,13.0134,69.4695,-0.2073,0.4584,-0.3087,76.9112
17:17:57:616,2.3228,-2.7099,12.8483,69.4704,-0.234,0.3658,-0.3097,76.9112
17:17:57:635,2.5047,-2.1996,12.5462,69.4482,-0.2382,0.2635,-0.1628,76.9112
17:17:57:655,2.5675,-0.9105,11.7272,69.3985,-0.2105,0.369,-0.0851,76.9112
17:17:57:674,1.9155,-0.082,10.2993,69.7267,-0.1168,0.6587,-0.2236,76.9112
17:17:57:695,1.1109,0.2512,8.5723,69.877,0.0462,0.8397,-0.3715,76.9112
17:17:57:714,0.6748,0.6108,7.1874,70.01,0.2815,0.7214,-0.3907,76.9112
17:17:57:735,0.8351,0.874,5.863,69.9245,0.6426,0.3754,-0.3566,76.9112
17:17:57:755,1.0487,1.1157,4.5643,70.1999,0.961,0.0442,-0.3907,76.9112
17:17:57:775,0.7226,1.5015,3.7789,70.3594,0.9663,-0.0293,-0.4983,76.9112
17:17:57:796,0.3033,1.7366,3.4624,70.4283,0.7085,0.1261,-0.5803,76.9112
17:17:57:816,0.0903,1.7366,3.6999,70.5075,0.3742,0.288,-0.5782,76.9112
17:17:57:836,-0.0054,1.8706,4.2939,70.4992,0.1281,0.2869,-0.5345,76.9112
17:17:57:857,-0.0772,2.0596,5.1129,70.5742,-0.0049,0.0783,-0.5185,76.9112
17:17:57:876,-0.1155,2.2349,6.4618,70.5281,-0.1029,-0.2221,-0.4951,76.9112
17:17:57:930,-0.1107,2.7326,8.0285,70.7497,-0.1445,-0.3947,-0.3875,77.0055
17:17:57:932,-0.07,3.3846,9.5976,70.8196,-0.1221,-0.4554,-0.2023,77.1112
17:17:57:937,-0.0485,4.2227,10.9603,71.0307,-0.0433,-0.4011,0.0268,77.2231
17:17:57:957,0.0209,4.7856,12.1537,71.3318,0.0611,-0.3201,0.2047,77.3344
17:17:57:977,0.332,4.9585,12.9272,71.3697,0.1643,-0.2722,0.2686,77.4367
17:17:57:998,0.7872,4.6014,14.2445,71.5206,0.1079,-0.2626,0.1865,77.4367
17:17:58:018,0.5767,3.7149,15.3996,71.5359,-0.0177,-0.0687,0.0023,77.4367
17:17:58:039,-0.463,3.4062,14.8726,71.7385,0.0844,0.4457,-0.1138,77.4367
17:17:58:058,-1.3902,3.0586,13.3729,71.7174,0.2144,0.8003,-0.1234,77.4367
17:17:58:078,-1.9579,2.1888,12.7597,71.846,0.1473,0.7747,-0.1053,77.4367
17:17:58:098,-2.1661,1.5733,12.6251,72.021,0.1686,0.5927,-0.0233,77.4367
17:17:58:119,-2.1517,1.1713,11.878,71.877,0.3912,0.3125,0.0545,77.4367
17:17:58:140,-2.1589,0.7878,11.1523,72.0957,0.4541,-0.0133,0.0566,77.4367
17:17:58:159,-1.9531,0.5001,11.2193,72.1273,0.1963,-0.2679,0.08,77.4367
17:17:58:180,-1.1097,0.1795,11.598,72.3923,-0.0901,-0.4032,0.1908,77.4367
17:17:58:199,-0.408,-0.0796,11.5831,72.4008,-0.1626,-0.3766,0.2675,77.4367
17:17:58:219,-0.1735,0.0329,10.3472,72.6774,0.0142,-0.1486,0.3208,77.4367
17:17:58:240,-0.2931,0.6443,8.2893,72.6143,0.2921,0.1378,0.392,77.4367
17:17:58:262,-0.4271,1.3316,6.4762,72.3745,0.4679,0.2667,0.4591,77.4367
17:17:58:280,-0.4606,1.4369,5.7266,72.5261,0.5233,0.0762,0.4857,77.4367
17:17:58:300,-0.2572,1.5206,5.7021,72.2711,0.5478,-0.2093,0.5305,77.4367
17:17:58:321,0.052,1.6887,5.7362,72.145,0.6074,-0.2264,0.5656,77.4367
17:17:58:341,-0.1472,1.794,5.4963,71.9572,0.6671,0.0474,0.5071,77.4367
17:17:58:361,-0.6837,1.9663,5.0124,71.9018,0.7043,0.304,0.4335,77.4367
17:17:58:381,-0.8752,2.1553,4.6558,71.7985,0.6778,0.2188,0.4474,77.3277
17:17:58:401,-0.5994,2.3785,5.4102,71.675,0.5116,-0.1891,0.4762,77.2022
17:17:58:422,-0.3577,2.6393,6.9841,71.4781,0.3113,-0.5447,0.4463,77.0608
17:17:58:442,-0.1711,2.8289,8.467,71.2665,0.1356,-0.5959,0.3984,76.9014
17:17:58:461,0.0879,3.1304,10.3519,71.296,-0.0518,-0.5012,0.3537,76.7256
17:17:58:481,0.3224,3.7077,11.2863,71.1018,-0.1498,-0.3105,0.275,76.5364
17:17:58:502,0.2387,4.4554,11.7894,70.741,-0.3106,-0.1901,0.0342,76.3347
17:17:58:522,-0.4702,3.7053,13.672,70.6336,-0.7121,-0.2029,-0.3236,76.1242
17:17:58:542,-0.9829,2.412,14.8002,70.3523,-0.7899,-0.1028,-0.3694,75.9137
17:17:58:563,-0.128,2.3306,14.0961,70.2309,-0.3266,0.0549,0.03,75.7191
17:17:58:583,1.1539,3.2644,11.6961,70.2697,0.1526,0.1836,0.3345,75.5432
17:17:58:603,2.8211,3.4038,11.5639,70.1044,0.0526,-0.0549,0.2899,75.3699
17:17:58:624,3.5683,2.4718,12.8746,69.7647,-0.2808,-0.0751,0.0193,75.1847
17:17:58:644,2.4855,1.739,13.0947,69.8177,-0.2382,0.3967,-0.282,74.9892
17:17:58:664,1.1013,1.1013,11.2792,69.9626,0.1302,0.8301,-0.3683,74.7967
17:17:58:684,0.682,1.118,9.2118,69.7655,0.3465,0.7875,-0.2033,74.6175
17:17:58:704,1.0032,1.3005,8.6943,69.8755,0.1409,0.3818,-0.0499,74.4539
17:17:58:724,0.8877,1.1713,9.1567,69.7844,-0.1818,0.1336,-0.0744,74.3021
17:17:58:745,0.1358,0.8859,8.9175,69.7518,-0.234,0.2262,-0.1373,74.1551
17:17:58:764,-0.3793,1.0558,7.8317,69.5995,-0.0411,0.3775,-0.0563,74.0129
17:17:58:785,-0.3338,1.4465,6.5886,69.6852,0.1707,0.3626,0.1152,73.8771
17:17:58:805,0.0616,1.8802,5.6207,69.6143,0.3017,0.1911,0.2164,73.7451
17:17:58:826,0.3823,2.4718,4.9549,69.4122,0.3497,0.0027,0.1834,73.6101
17:17:58:846,0.4642,2.7571,4.797,69.4745,0.2953,-0.1507,0.0332,73.4683
17:17:58:865,0.4738,2.8098,5.3862,69.2247,0.1867,-0.2871,-0.084,73.3196
17:17:58:886,1.0056,3.0275,6.2315,69.2186,0.1643,-0.3606,-0.0414,73.1704
17:17:58:905,1.6857,3.4732,6.5432,68.977,0.2602,-0.2849,0.0087,73.0243
17:17:58:926,1.8054,4.0768,6.4666,68.9762,0.3039,-0.1273,-0.1181,72.88
17:17:58:946,1.3741,4.4387,6.2919,69.0914,0.1228,0.0623,-0.3875,72.7344
17:17:58:966,0.469,4.3137,7.0008,69.1821,-0.2425,0.1953,-0.6304,72.5919
17:17:58:988,-0.396,4.3137,8.5555,69.3464,-0.4843,0.2262,-0.6666,72.4618
17:17:59:005,-0.856,4.5631,9.7986,69.3131,-0.3362,0.1687,-0.526,72.353
17:17:59:026,-1.0116,5.1691,10.2897,69.392,-0.0017,0.0123,-0.379,72.353
17:17:59:046,-1.0116,5.2098,10.599,69.3409,0.1206,-0.1816,-0.33,72.353
17:17:59:067,-0.8776,4.7354,12.6323,69.5318,-0.1178,-0.432,-0.3268,72.353
17:17:59:087,-0.8943,4.1318,15.0138,69.4263,-0.4044,-0.3744,-0.2374,72.353
17:17:59:107,-0.8895,3.4181,16.0917,69.2256,-0.3959,0.0794,-0.0222,72.353
17:17:59:127,-1.057,2.6943,15.603,69.0856,-0.0209,0.4648,0.211,72.353
17:17:59:148,-1.7952,2.6249,13.7444,68.8105,0.5254,0.5383,0.3814,72.353
17:17:59:168,-2.1876,3.0634,11.1093,68.6919,0.929,0.2763,0.4889,72.353
17:17:59:187,-1.8024,3.2429,9.5761,68.6065,0.7628,-0.2967,0.4357,72.353
17:17:59:208,-1.2778,2.1482,10.2203,68.4987,0.0185,-0.7194,0.2451,72.353
17:17:59:228,-1.002,1.0128,10.9053,68.1359,-0.6663,-0.5245,0.1514,72.353
17:17:59:252,-0.7101,0.4977,10.2323,68.2492,-0.9294,-0.0091,0.2185,72.258
17:17:59:268,-0.5755,0.8357,9.0993,68.1115,-0.9358,0.337,0.3526,72.1617
17:17:59:288,-0.0197,1.2335,7.9448,67.9094,-0.7387,0.3732,0.5071,72.0616
17:17:59:312,0.6102,1.3914,7.0439,68.0116,-0.3575,0.0964,0.5497,71.9524
17:17:59:334,0.8997,1.3029,6.3805,68.0737,0.0494,-0.3563,0.4794,71.8275
17:17:59:353,0.8542,1.7079,5.985,68.0811,0.2879,-0.5565,0.4506,71.6852
17:17:59:372,0.6317,2.278,5.5513,68.0162,0.3209,-0.3201,0.473,71.5279
17:17:59:393,0.3176,2.7087,5.0267,68.1316,0.2421,0.0964,0.457,71.3579
17:17:59:413,-0.1519,2.8505,4.6193,68.0806,0.1707,0.3104,0.3696,71.1742
17:17:59:433,-0.5468,3.0084,4.6606,68.0335,0.1324,0.1463,0.2611,70.9779
17:17:59:454,-0.6574,2.9581,5.7075,68.0864,0.0696,-0.2658,0.1599,70.7718
17:17:59:474,-0.8465,2.6297,7.8682,67.9789,-0.0177,-0.6204,0.0768,70.5607
17:17:59:494,-1.0786,2.321,10.3519,67.7299,-0.0539,-0.4447,0.1067,70.3491
17:17:59:514,-1.3615,2.2032,10.8503,67.4707,0.0972,0.272,0.2505,70.1411
17:17:59:535,-1.1988,3.1783,9.3912,67.3613,0.2953,0.8194,0.3899,69.9367
17:17:59:551,-0.8225,3.9308,9.7508,67.256,-0.0103,0.5298,0.2643,69.7308
17:17:59:571,-0.6646,2.8409,12.283,67.2386,-0.6088,-0.1784,-0.0617,69.5167
17:17:59:593,-0.274,2.0022,14.2714,67.0302,-0.7792,-0.6065,-0.1756,69.2993
17:17:59:614,0.6915,1.9472,15.2554,67.0969,-0.5949,-0.6182,-0.0031,69.0918
17:17:59:637,1.547,2.7206,14.6016,66.7662,-0.2893,-0.3254,0.1599,68.8993
17:17:59:657,2.1817,2.9677,13.4207,66.7596,-0.1573,-0.0389,0.1024,68.7148
17:17:59:677,2.5651,2.5316,13.1856,66.4838,-0.3522,0.2209,-0.084,68.5308
17:17:59:698,2.3898,1.6116,13.2341,66.429,-0.5534,0.5682,-0.2619,68.3485
17:17:59:716,1.8915,0.4905,12.8411,66.0651,-0.4598,0.6949,-0.364,68.1746
17:17:59:736,1.9274,0.1938,11.8684,66.025,-0.1605,0.3818,-0.3321,68.0163
17:17:59:756,2.3779,0.8285,10.666,65.6655,-0.0028,0.0037,-0.2948,67.8776
17:17:59:777,2.1817,1.13,9.9326,65.5919,-0.186,-0.0005,-0.4503,67.7556
17:17:59:795,0.9888,0.6538,9.3912,65.5018,-0.414,0.3093,-0.6932,67.6484
17:17:59:816,-0.1543,0.4881,8.263,65.2758,-0.3586,0.6704,-0.7529,67.6484
17:17:59:838,-0.6185,0.6227,6.8405,65.3623,-0.0923,0.8493,-0.6314,67.6484
17:17:59:857,-0.8082,0.8859,5.3743,65.2571,0.2591,0.7992,-0.4748,67.6484
17:17:59:877,-0.7388,1.3077,4.1049,65.2446,0.6309,0.5618,-0.3587,67.6484
17:17:59:897,-0.6114,1.6959,2.8708,65.156,0.9599,0.1879,-0.2969,67.6484
17:17:59:916,-0.4941,2.467,1.7474,64.9431,1.0909,-0.2168,-0.3087,67.6484
17:17:59:956,-0.4295,3.0562,1.9412,64.7022,0.6596,-0.5703,-0.4248,67.6484
17:17:59:958,-0.5204,2.9055,3.9105,64.5957,-0.3852,-0.5969,-0.5792,67.6484
17:17:59:974,-0.8656,1.9089,8.3348,64.5499,-1.5365,-0.4053,-0.6644,67.6484
17:17:59:995,-0.53,0.5336,13.4782,64.2744,-1.8421,-0.1955,-0.5856,67.6484
17:18:00:015,-0.5204,0.6993,14.6207,64.0461,-0.8186,0.1783,-0.3427,67.755
17:18:00:035,-0.6933,2.2445,12.8124,63.8383,0.4988,0.3402,-0.0617,67.8783
17:18:00:055,-0.8273,4.084,10.9723,63.7124,1.092,0.2774,0.1248,68.0107
17:18:00:078,-0.7029,5.2911,10.0002,63.7815,1.0419,0.1378,0.1791,68.1436
17:18:00:096,-0.5635,5.7272,10.2323,63.9381,0.7447,-0.0719,0.0907,68.2694
17:18:00:116,-0.7747,5.4664,11.4658,63.8298,0.3965,-0.2509,-0.1085,68.3855
17:18:00:137,-1.3472,4.7019,12.9918,63.5816,0.1558,-0.2317,-0.2555,68.4941
17:18:00:158,-1.6534,4.2371,13.6983,63.5497,0.1089,0.041,-0.2076,68.6027
17:18:00:177,-1.7157,3.7292,13.6935,63.5323,0.1462,0.2869,-0.1202,68.7171
17:18:00:196,-2.3246,2.7763,13.8018,63.5789,0.0919,0.4105,-0.116,68.8362
17:18:00:218,-3.2967,2.0524,13.1306,63.3976,0.1377,0.5756,-0.0553,68.9576
17:18:00:237,-3.9129,1.5996,11.9402,63.1865,0.2623,0.5756,0.1056,69.0822
17:18:00:258,-4.0397,1.1109,10.9627,62.8134,0.2133,0.386,0.3112,69.2084
17:18:00:277,-3.323,0.5336,10.5224,62.7073,0.0419,0.0442,0.5603,69.3323
17:18:00:297,-1.9938,0.3852,9.8584,62.838,-0.0252,-0.3095,0.7947,69.4469
17:18:00:317,-0.8297,0.3733,9.0347,62.913,-0.0337,-0.4234,0.914,69.5429
17:18:00:338,-0.4606,0.4475,7.7599,62.5905,0.0249,-0.253,0.9469,69.5429
17:18:00:358,-0.4175,0.7113,6.1358,62.4327,0.1782,-0.0559,1.015,69.5429
17:18:00:377,0.0018,1.2287,4.6917,62.4087,0.2666,-0.0037,1.1482,69.5429
17:18:00:398,0.6317,1.7103,4.3155,62.4086,0.159,-0.1198,1.21,69.5429
17:18:00:418,1.1348,2.0429,4.6026,62.5031,-0.0188,-0.1933,1.1237,69.5429
17:18:00:439,0.9673,2.2253,4.9621,62.5632,-0.0593,-0.1678,0.9193,69.4326
17:18:00:458,0.524,2.333,4.943,62.5151,0.0419,-0.1284,0.7137,69.2856
17:18:00:479,0.2004,2.5316,5.1876,62.3663,0.0887,-0.1358,0.5571,69.11
17:18:00:498,-0.1687,2.4622,5.5992,62.498,0.01,-0.2008,0.376,68.9139
17:18:00:520,-0.4893,2.5436,6.6126,62.5065,-0.1317,-0.3563,0.2025,68.704
17:18:00:540,-0.451,2.0644,8.5914,62.721,-0.2712,-0.6758,0.064,68.4876
17:18:00:559,-0.6718,1.9639,11.0249,62.7036,-0.2467,-0.9495,-0.0254,68.2713
17:18:00:579,-0.8249,2.5627,11.6626,62.7525,-0.0369,-0.7407,-0.018,68.0615
17:18:00:599,-0.274,3.3703,11.2792,62.6748,0.0132,-0.3403,0.0076,67.8624
17:18:00:619,0.3511,3.3679,12.2279,62.6263,-0.333,-0.368,-0.1447,67.6738
17:18:00:640,0.725,2.1529,14.8558,62.6147,-0.7483,-0.7098,-0.3438,67.4921
17:18:00:660,1.5087,1.535,16.7001,62.5321,-0.6812,-0.8526,-0.2715,67.3232
17:18:00:680,2.2223,2.1984,15.6197,62.3703,-0.169,-0.5076,-0.0521,67.1762
17:18:00:700,2.9456,2.4,14.7308,62.163,-0.0284,-0.0623,0.0161,67.0488
17:18:00:721,3.0461,1.5111,14.8319,62.0646,-0.3479,0.5277,-0.0393,66.9305
17:18:00:741,2.0064,0.2895,14.1248,61.9075,-0.382,1.1252,-0.0798,66.8166
17:18:00:760,1.2257,-0.2255,12.3165,61.992,0.0441,1.2242,0.0459,66.7109
17:18:00:781,1.5948,0.5575,9.7101,61.8293,0.5723,0.8919,0.3345,66.615
17:18:00:800,2.3492,1.7438,7.535,61.9608,0.765,0.4371,0.3995,66.5237
17:18:00:822,2.3922,2.0118,6.3541,62.1372,0.5254,0.1634,0.0832,66.424
17:18:00:842,1.9274,1.7557,5.6686,62.3069,0.1686,0.174,-0.2991,66.3119
17:18:00:862,1.3741,1.4489,5.2762,62.4557,-0.121,0.2497,-0.559,66.1986
17:18:00:882,0.8686,1.2646,5.4317,62.4953,-0.3234,0.3029,-0.6857,66.099
17:18:00:902,0.3966,1.2311,5.3647,62.6416,-0.349,0.3743,-0.723,66.099
17:18:00:922,-0.0843,1.3795,4.9597,62.6201,-0.2041,0.3509,-0.7262,66.099
17:18:00:942,-0.4606,1.6235,5.01,62.7112,0.0047,0.0687,-0.69,66.099
17:18:00:962,-0.2931,1.7892,5.3049,62.6484,0.2154,-0.3606,-0.6112,66.099
17:18:00:984,-0.0365,2.117,5.7434,62.6597,0.2921,-0.5937,-0.5654,66.099
17:18:01:003,-0.1687,2.3474,6.7831,62.8009,0.1462,-0.5458,-0.5558,66.099
17:18:01:024,-0.3386,2.6393,8.4646,62.819,-0.0369,-0.4128,-0.4684,66.099
17:18:01:044,-0.1998,3.2596,9.4588,62.7179,-0.0646,-0.2626,-0.2799,66.193
17:18:01:063,0.1573,4.2036,9.9637,62.7216,-0.104,-0.0921,-0.1362,66.302
17:18:01:084,-0.0245,4.9346,10.1414,63.0834,-0.2435,0.1027,-0.1639,66.4179
17:18:01:104,-0.408,5.1619,10.9077,63.2462,-0.4566,0.0804,-0.2873,66.5347
17:18:01:125,-0.384,4.398,13.3035,63.3243,-0.6652,-0.3148,-0.4194,66.6532
17:18:01:145,-0.4439,3.2889,16.276,63.3395,-0.6525,-0.5245,-0.4802,66.7764
17:18:01:165,-0.5922,2.6489,17.5627,63.069,-0.1573,-0.1145,-0.3204,66.912
17:18:01:184,-1.1815,3.0156,15.8614,62.9739,0.6043,0.6694,0.0012,67.0625
17:18:01:205,-1.4692,3.0275,12.8076,63.1971,1.0654,1.1742,0.2473,67.2231
17:18:01:225,-1.7378,2.7906,11.7177,63.2983,0.9226,0.9909,0.3101,67.3817
17:18:01:245,-1.8359,1.9854,11.6794,63.323,0.6298,0.6268,0.2931,67.5286
17:18:01:265,-1.8718,1.3316,10.9268,63.425,0.5755,0.3434,0.2686,67.6627
17:18:01:285,-1.8646,0.8668,10.0241,63.5343,0.5371,0.0751,0.2654,67.7863
17:18:01:306,-1.608,0.8429,9.1878,63.7662,0.404,-0.1113,0.3675,67.9007
17:18:01:325,-0.9948,1.1689,7.9639,63.9754,0.2346,-0.1358,0.5113,68.0069
17:18:01:346,-0.4941,1.5111,7.063,64.1397,-0.1242,-0.0623,0.5497,68.1017
17:18:01:366,-0.3266,1.413,6.8812,64.3394,-0.6013,0.0591,0.4815,68.1017
17:18:01:386,-0.4415,1.0989,7.1324,64.516,-0.8889,0.1165,0.3941,68.1017
17:18:01:407,-0.3888,0.8644,7.5039,64.4705,-0.8453,0.0485,0.3877,68.1017
17:18:01:426,-0.25,1.0893,7.0678,64.7169,-0.4875,-0.0005,0.4612,68.1017
17:18:01:448,-0.2046,1.5757,6.3446,64.8853,-0.1136,-0.0399,0.5039,68.1017
17:18:01:467,-0.1496,1.8514,6.0879,64.8388,0.0526,-0.0996,0.4836,68.1017
17:18:01:487,-0.262,2.0764,6.3972,65.0261,0.0993,-0.1081,0.4293,68.1017
17:18:01:507,-0.3769,2.0477,6.4642,65.315,0.1632,-0.0431,0.375,68.1017
17:18:01:528,-0.4965,2.0572,6.6437,65.2569,0.1877,-0.0027,0.3165,68.1017
17:18:01:549,-0.6497,2.1434,7.3484,65.3916,0.1313,-0.0027,0.2515,68.1017
17:18:01:570,-0.6598,2.0309,8.6393,65.4449,0.0686,-0.0442,0.2079,68.1017
17:18:01:589,-0.8776,2.3306,9.923,65.3441,0.1569,-0.1017,0.1972,68.1017
17:18:01:608,-1.0977,3.1137,9.9183,65.3616,0.3869,-0.0368,0.2494,68.1017
17:18:01:628,-0.9829,4.1773,9.4684,65.5505,0.4562,-0.0069,0.3016,68.1017
17:18:01:648,-0.2333,4.9298,10.1892,65.8971,0.0929,-0.2317,0.2206,68.1017
17:18:01:668,0.3966,4.2778,12.7286,65.9645,-0.5045,-0.6097,-0.0403,68.0112
17:18:01:688,0.9117,3.0467,15.9003,66.2926,-0.8548,-0.7386,-0.2268,67.9161
17:18:01:709,0.9045,2.6106,16.6666,66.2166,-0.5811,-0.3073,-0.1863,67.9161
17:18:01:729,1.0128,2.6656,15.0473,66.3988,-0.0422,0.3242,-0.0308,67.9161
17:18:01:749,1.3813,2.522,13.7898,66.8112,0.1846,0.6576,0.0683,67.9161
17:18:01:769,1.5206,2.0046,12.7119,66.9961,0.2282,0.7172,0.0257,67.9161
17:18:01:790,1.2712,1.0199,11.4945,67.2847,0.2474,0.5234,-0.1341,67.9161
17:18:01:810,0.9888,0.1029,11.0297,67.2651,0.1185,0.1666,-0.2449,67.9161
17:18:01:830,0.6556,0.0377,10.7521,67.286,-0.1285,0.0431,-0.2065,67.9161
17:18:01:849,0.1884,0.2369,9.5545,67.1944,-0.2585,0.3296,-0.1192,67.9161
17:18:01:871,-0.4582,0.7161,7.6762,67.5987,-0.202,0.6363,-0.0297,67.9161
17:18:01:890,-0.6718,1.2215,5.7864,67.6104,-0.0081,0.6097,0.128,67.9161
17:18:01:910,-0.1519,1.806,4.4877,67.3805,0.1867,0.2475,0.2909,67.9161
17:18:01:969,0.5982,2.2349,4.258,67.5639,0.1846,-0.1305,0.2941,67.9161
17:18:01:972,0.6556,2.3186,5.1272,67.5996,0.0111,-0.2967,0.1067,67.9161
17:18:01:974,0.3655,2.196,5.6758,67.7192,0.0142,-0.2434,-0.067,67.9161
17:18:01:993,0.21,2.3593,5.6686,67.9255,0.2485,-0.1688,-0.0925,67.9161
17:18:02:012,0.1908,2.7954,5.4796,68.0907,0.4594,-0.204,-0.0712,67.9161
17:18:02:033,0.2028,3.3009,5.4054,68.3349,0.4264,-0.3009,-0.1043,67.9161
17:18:02:054,0.0832,3.722,6.4953,68.6537,0.0887,-0.3659,-0.182,67.9161
17:18:02:074,-0.25,3.3703,8.6345,68.5725,-0.333,-0.3116,-0.2268,67.9161
17:18:02:094,-0.2979,3.3344,10.4429,68.5123,-0.4129,-0.1103,-0.1075,67.9161
17:18:02:114,-0.1735,3.9284,10.9173,68.4851,-0.1711,0.1442,0.0672,67.9161
17:18:02:135,-0.4487,4.2179,11.8588,68.7709,-0.0912,0.2529,0.1056,67.9161
17:18:02:154,-0.6909,3.938,13.3992,69.0456,-0.1136,0.2209,0.0907,67.9161
17:18:02:175,-0.8297,3.7771,14.2397,68.7463,0.0302,0.1762,0.1525,67.9161
17:18:02:195,-1.2993,3.7388,13.9334,68.9252,0.2389,0.2688,0.2558,67.9161
17:18:02:215,-1.4381,3.7292,13.1904,68.926,0.3273,0.3583,0.4059,67.9161
17:18:02:235,-0.7723,3.4373,13.2461,69.0494,0.2975,0.1975,0.4794,67.9161
17:18:02:256,-0.6861,2.6177,13.5141,69.2895,0.2538,0.024,0.3377,67.9161
17:18:02:275,-1.7856,1.8227,12.9894,69.6069,0.306,0.0676,0.1567,67.9161
17:18:02:295,-2.8445,1.602,11.0734,69.5734,0.4509,0.2294,0.1897,67.9161
17:18:02:314,-2.878,1.5852,9.4684,69.5431,0.4359,0.0943,0.4016,67.9161
17:18:02:336,-1.7545,1.7414,8.7852,69.6414,0.2794,-0.2349,0.6477,67.9161
17:18:02:356,-0.5085,1.8514,8.3133,69.6864,0.1334,-0.4639,0.7244,67.9161
17:18:02:376,0.0066,1.7509,7.6259,69.8112,0.0015,-0.4043,0.5987,67.9161
17:18:02:395,-0.0173,1.7318,6.5312,69.9088,-0.1573,-0.0623,0.4538,67.8048
17:18:02:415,-0.2166,1.8227,5.7625,70.0763,-0.365,0.2582,0.3909,67.6787
17:18:02:434,-0.3266,1.7892,5.6686,70.3691,-0.5481,0.3509,0.3739,67.5405
17:18:02:454,-0.3075,1.861,6.0832,70.4776,-0.5555,0.223,0.3984,67.3932
17:18:02:475,-0.1424,2.1529,6.2124,70.656,-0.3,0.025,0.4442,67.239
17:18:02:495,-0.2524,2.5436,5.9946,70.828,0.0696,-0.1635,0.408,67.0766
17:18:02:515,-0.5755,2.7446,5.4987,70.8279,0.339,-0.2658,0.3027,66.9048
17:18:02:534,-0.9565,2.8648,5.0961,70.9259,0.3987,-0.2892,0.2345,66.7251
17:18:02:554,-1.3807,2.9581,5.5561,71.2944,0.2016,-0.2913,0.2494,66.5414
17:18:02:575,-1.1791,2.9581,6.6796,71.1015,-0.0507,-0.3233,0.3654,66.3565
17:18:02:601,-0.5755,3.3416,8.1625,70.9878,-0.2009,-0.4288,0.4719,66.1695
17:18:02:615,0.3272,3.6622,10.8838,71.1477,-0.2776,-0.6534,0.424,65.9769
17:18:02:636,0.8758,3.6718,13.727,71.1013,-0.1743,-0.8068,0.2057,65.7748
17:18:02:661,0.4666,3.4995,14.7763,71.1755,0.1387,-0.7024,-0.0617,65.5647
17:18:02:682,-0.0461,3.6838,14.3719,71.2695,0.3486,-0.4032,-0.1788,65.3562
17:18:02:700,-0.1519,3.8638,14.065,71.3784,0.1963,-0.0346,-0.1458,65.1588
17:18:02:717,0.1813,3.6981,14.942,71.1335,-0.1477,0.206,-0.1053,64.9755
17:18:02:740,0.9284,2.8935,14.9611,71.3697,-0.1839,0.3807,-0.1096,64.8048
17:18:02:761,1.2832,2.2493,14.1894,71.4969,0.0632,0.5351,-0.2055,64.6452
17:18:02:781,1.1157,1.6092,13.0158,71.6161,0.2655,0.7523,-0.2778,64.4971
17:18:02:800,0.6508,1.4225,11.0901,71.6651,0.4221,0.9813,-0.2321,64.3626
17:18:02:822,0.4546,1.3292,8.8116,71.6741,0.4658,0.9089,-0.1714,64.2432
17:18:02:841,0.4211,1.5948,7.6283,71.6842,0.1483,0.5011,-0.1692,64.1372
17:18:02:861,0.4235,1.6379,8.5508,71.6861,-0.5173,0.1133,-0.2257,64.0431
17:18:02:881,0.3823,0.8094,10.1007,71.9129,-0.9933,-0.0751,-0.3108,64.0431
17:18:02:901,0.009,0.7256,10.2945,71.8123,-0.8538,0.008,-0.2715,64.0431
17:18:02:921,-0.2285,1.1133,8.9366,71.8119,-0.2776,0.1996,-0.117,64.0431
17:18:02:942,-0.3314,1.8969,7.1037,71.6943,0.2932,0.2923,0.0278,64.0431
17:18:02:961,-0.0054,2.2756,5.6183,71.64,0.5947,0.2507,0.112,64.0431
17:18:02:981,0.6676,2.6321,4.7061,71.7064,0.7053,0.1495,0.1216,64.0431
17:18:03:000,1.0941,2.9701,4.3011,71.8635,0.6989,-0.0133,-0.0276,64.0431
17:18:03:022,1.2185,3.0897,4.5619,71.7587,0.5979,-0.2359,-0.2694,64.0431
17:18:03:042,1.3454,2.939,5.3384,71.4054,0.4189,-0.4288,-0.462,64.0431
17:18:03:065,1.2449,2.8792,6.1621,71.3554,0.1941,-0.3776,-0.6037,64.0431
17:18:03:082,1.0439,2.6489,7.0104,71.2112,-0.0869,-0.1838,-0.6825,64.0431
17:18:03:101,0.8686,2.5005,7.8969,71.0972,-0.2925,0.008,-0.6549,64.0431
17:18:03:123,0.5647,2.994,8.9049,71.104,-0.3533,0.1037,-0.5792,64.0431
17:18:03:141,0.2722,4.0146,9.801,70.876,-0.3437,0.2358,-0.4993,64.0431
17:18:03:162,0.0592,4.6181,9.8967,70.5858,-0.2712,0.4414,-0.4674,64.0431
17:18:03:183,-0.0245,4.7593,9.4271,70.6497,-0.1157,0.3892,-0.511,64.0431
17:18:03:202,0.0592,4.4985,10.2108,70.739,-0.1157,-0.0261,-0.6027,64.0431
17:18:03:223,-0.4702,4.0002,11.9139,70.8126,-0.2638,-0.2008,-0.7007,64.1484
17:18:03:242,-1.6247,3.8566,12.618,70.8222,-0.3128,0.2209,-0.6655,64.2702
17:18:03:261,-2.4634,3.8782,12.8387,70.759,-0.2979,0.6736,-0.4482,64.4118
17:18:03:282,-2.4395,3.8686,13.2604,70.8141,-0.2595,0.6651,-0.1937,64.5718
17:18:03:304,-1.6822,3.2865,13.55,70.9146,-0.0955,0.2784,-0.0755,64.7432
17:18:03:322,-0.9422,1.8179,13.4231,70.8191,0.0929,-0.1635,-0.2097,64.9164
17:18:03:342,-1.1216,0.2536,13.066,70.5654,0.1249,-0.3702,-0.4162,65.0872
17:18:03:362,-1.5864,-0.5468,12.6951,70.5892,0.0537,-0.3361,-0.4184,65.262
17:18:03:383,-1.7085,-0.5539,11.9019,70.6564,0.0111,-0.221,-0.1501,65.4502
17:18:03:402,-0.9063,0.1651,10.5655,70.4515,0.0622,-0.1411,0.2505,65.6518
17:18:03:424,-0.0508,1.0917,8.7996,70.308,0.1547,-0.122,0.4921,65.8567
17:18:03:443,0.4522,1.8491,7.1037,70.2917,0.1899,-0.1273,0.4879,66.0486
17:18:03:464,0.5073,2.3234,5.9731,70.1896,0.126,-0.1198,0.3814,66.2186
17:18:03:484,0.5862,2.6417,5.3671,70.2407,0.0217,-0.0847,0.3069,66.3657
17:18:03:503,0.8447,2.723,5.0937,70.2093,-0.0827,-0.0794,0.2217,66.4944
17:18:03:524,0.8255,2.7422,4.9813,70.0743,-0.1487,-0.0921,0.0747,66.6066
17:18:03:545,0.4762,2.6967,4.9789,69.7825,-0.1764,-0.1113,-0.083,66.705
17:18:03:564,0.1262,2.6345,4.986,69.7583,-0.1913,-0.1337,-0.1799,66.7959
17:18:03:584,-0.207,2.7063,5.4556,69.6117,-0.2286,-0.1901,-0.2097,66.7959
17:18:03:604,-0.1998,2.8481,6.1813,69.4208,-0.2009,-0.3361,-0.1916,66.8899
17:18:03:625,-0.1878,3.1328,7.4034,69.282,-0.1306,-0.4873,-0.1469,66.9878
17:18:03:645,-0.2261,3.6048,8.4335,69.0701,-0.0891,-0.3585,-0.0798,67.0884
17:18:03:665,-0.2692,4.139,8.8451,69.0004,-0.0923,-0.0112,-0.0648,67.1897
17:18:03:685,-0.2764,4.4124,10.1653,68.9576,-0.2595,0.0346,-0.2044,67.2895
17:18:03:706,-0.4104,4.1174,12.5557,68.9761,-0.4864,-0.2551,-0.4738,67.3873
17:18:03:725,-1.1025,3.3751,14.6375,68.9043,-0.5832,-0.465,-0.7443,67.4877
17:18:03:746,-1.6367,2.5029,15.7107,69.0191,-0.4907,-0.3158,-0.7933,67.6003
17:18:03:766,-1.9507,2.4957,15.8231,68.8851,-0.2126,-0.0581,-0.5664,67.736
17:18:03:786,-1.7204,2.9222,14.9994,69.0896,0.1632,-0.0218,-0.2118,67.8965
17:18:03:807,-0.408,2.9916,13.4471,69.1284,0.4317,-0.139,0.031,68.074
17:18:03:827,1.1611,2.5077,13.1258,68.9873,0.2623,-0.3244,0.0406,68.2554
17:18:03:846,2.1721,1.1665,13.8377,69.0664,-0.1839,-0.3073,-0.1075,68.4308
17:18:03:866,2.3157,-0.8459,14.4126,68.9658,-0.4257,-0.1241,-0.3172,68.5995
17:18:03:888,2.3013,-2.0824,13.6146,69.1336,-0.2638,-0.0069,-0.4109,68.7674
17:18:03:907,2.5119,-1.7061,11.866,68.8895,0.0664,0.0069,-0.3108,68.9434
17:18:03:926,2.4353,-0.6832,9.8441,68.8221,0.3294,0.024,-0.2778,69.1321
17:18:03:980,1.8724,0.2297,8.196,68.6541,0.4604,0.0474,-0.4067,69.3292
17:18:03:982,1.2042,0.8237,6.6221,68.7605,0.5276,0.1282,-0.559,69.5311
17:18:03:990,0.4738,1.3388,5.3671,68.9032,0.4913,0.1655,-0.6612,69.7413
17:18:04:008,-0.0461,1.6816,5.2187,68.9988,0.3071,0.0559,-0.6985,69.9659
17:18:04:027,-0.1304,1.8921,5.8271,69.0448,0.1515,-0.0676,-0.657,70.2072
17:18:04:047,0.0377,2.1769,6.2776,68.9077,0.2059,-0.0591,-0.5973,70.4658
17:18:04:069,-0.0604,2.2612,5.8917,68.9507,0.4391,-0.0133,-0.6218,70.7394
17:18:04:089,-0.2285,2.4598,5.1996,68.9281,0.6533,-0.0623,-0.6399,71.0255
17:18:04:109,-0.2046,2.7858,4.9358,69.0463,0.6437,-0.1699,-0.5952,71.3251
17:18:04:129,-0.0102,2.9653,5.1781,69.001,0.4114,-0.1987,-0.5547,71.6381
17:18:04:150,0.143,3.1137,5.808,69.1739,0.1292,-0.1731,-0.5739,71.962
17:18:04:169,0.186,3.3966,7.1707,68.8981,-0.1242,-0.2477,-0.625,72.2946
17:18:04:189,0.2339,3.5521,8.5101,68.8257,-0.283,-0.3201,-0.6517,72.6359
17:18:04:209,-0.2189,3.9547,9.8273,68.9023,-0.3032,-0.1987,-0.6346,72.985
17:18:04:229,-0.3721,4.3717,10.194,68.9243,-0.1146,0.1399,-0.5462,73.3447
17:18:04:250,-0.3362,4.8024,9.7555,68.9741,0.11,0.2816,-0.4972,73.7139
17:18:04:271,-0.4487,4.5679,10.3184,68.9415,-0.0497,0.0794,-0.6485,74.0897
17:18:04:290,-0.9565,3.3535,12.6903,68.7564,-0.5162,-0.1369,-0.8349,74.4697
17:18:04:310,-2.0847,2.7446,15.1789,68.6005,-0.6897,0.0985,-0.7273,74.8596
17:18:04:330,-2.272,2.7978,14.7284,68.7682,-0.2957,0.7204,-0.2905,75.2658
17:18:04:350,-1.9555,3.0395,13.5835,68.9122,0.1558,0.8556,0.0662,75.684
17:18:04:371,-2.0847,2.7954,13.0828,68.8613,0.3369,0.5554,0.0694,76.0989
17:18:04:390,-2.7966,2.5172,11.7942,69.1545,0.5371,0.3722,-0.0478,76.4993
17:18:04:412,-3.2441,2.3186,10.2538,69.3733,0.6469,0.1325,-0.1011,76.8867
17:18:04:431,-3.4098,2.0429,9.8513,69.6394,0.3976,-0.2274,-0.0648,77.2671
17:18:04:452,-2.7625,1.806,10.0289,69.7537,0.0537,-0.4181,0.1248,77.6431
17:18:04:474,-1.8455,1.7629,9.7316,69.8645,-0.1232,-0.3542,0.3272,78.013
17:18:04:493,-1.081,1.6762,9.0706,69.8197,-0.1999,-0.22,0.3931,78.3669
17:18:04:513,-0.7005,1.5063,8.5627,69.9886,-0.2585,-0.1784,0.3718,78.6975
17:18:04:535,-0.451,1.3842,8.0381,69.9467,-0.2308,-0.2051,0.3558,79.0028
17:18:04:555,-0.082,1.5254,7.2736,69.999,-0.072,-0.2114,0.3814,79.2841
17:18:04:577,0.1501,1.8802,6.5408,69.7558,0.1441,-0.1891,0.3824,79.5434
17:18:04:594,-0.1663,2.6273,5.7242,69.9125,0.3901,-0.1124,0.3505,79.7805
17:18:04:614,-0.2213,3.2716,4.7994,70.0103,0.584,-0.0527,0.3186,79.9949
17:18:04:635,-0.2692,3.5282,4.4614,70.1591,0.567,-0.1944,0.2047,80.1887
17:18:04:654,-0.5396,3.478,5.0602,70.2477,0.3955,-0.4575,0.0129,80.3636
17:18:04:674,-1.136,3.2961,6.0377,70.1956,0.1941,-0.6608,-0.149,80.5238
17:18:04:694,-1.5338,2.8409,7.3795,70.3025,-0.0358,-0.6864,-0.1714,80.6765
17:18:04:714,-1.273,2.6656,9.1496,70.5565,-0.2126,-0.5756,-0.019,80.8281
17:18:04:734,-0.4343,3.2357,10.812,70.8597,-0.1445,-0.4362,0.1887,80.9802
17:18:04:754,0.548,3.9811,11.4347,71.0191,0.1728,-0.334,0.2462,81.1274
17:18:04:774,0.6843,4.4698,11.418,70.899,0.4604,-0.3606,0.0204,81.2633
17:18:04:795,0.4403,4.0959,11.3557,71.0771,0.4594,-0.4447,-0.3257,81.3839
17:18:04:814,0.0257,3.4086,12.4433,71.1717,0.1228,-0.4479,-0.5153,81.498
17:18:04:834,-0.3003,2.9438,13.6576,71.2461,-0.2095,-0.1859,-0.4514,81.6184
17:18:04:854,0.2004,2.6512,13.2532,71.1258,-0.1743,0.1858,-0.2044,81.7531
17:18:04:874,1.465,2.6249,12.7717,70.963,-0.0145,0.1826,-0.018,81.9009
17:18:04:895,2.4209,2.0405,13.1928,70.8605,-0.006,0.0868,-0.0531,82.0513
17:18:04:915,1.9513,1.5135,12.2136,70.9684,0.1206,0.4531,-0.1895,82.198
17:18:04:935,1.0487,1.5111,10.0146,71.095,0.3688,0.7619,-0.2268,82.3422
17:18:04:955,1.0487,1.7079,8.0716,70.9532,0.4104,0.5298,-0.1746,82.4895
17:18:04:975,1.6546,2.3115,7.3699,71.1995,0.0919,0.0719,-0.1873,82.6407
17:18:04:995,1.5709,2.4981,7.5254,71.3685,-0.496,-0.1284,-0.4056,82.7931
17:18:05:016,0.7155,1.9161,8.479,71.8118,-1.0306,-0.1252,-0.6836,82.946
17:18:05:036,0.0664,1.3795,9.6287,71.9224,-1.1754,-0.172,-0.7539,83.1067
17:18:05:057,-0.0269,1.4297,9.7771,71.8605,-0.8389,-0.188,-0.5664,83.2852
17:18:05:077,0.3894,2.0501,8.9486,71.7119,-0.2787,-0.1614,-0.3129,83.4848
17:18:05:096,0.8758,2.6106,7.5182,71.836,0.208,-0.1156,-0.2129,83.6986
17:18:05:116,1.0152,2.9533,6.6126,72.1165,0.4881,-0.1454,-0.3204,83.9168
17:18:05:136,0.6221,3.0132,5.8941,72.1455,0.6288,-0.1497,-0.5164,84.1346
17:18:05:157,0.0832,3.1902,5.1248,72.2152,0.6533,-0.0538,-0.6304,84.3563
17:18:05:177,-0.3266,3.4421,5.0315,72.1305,0.4775,-0.0069,-0.6421,84.5884
17:18:05:197,-0.0867,3.612,5.9133,71.9438,0.1824,-0.0676,-0.5355,84.8351
17:18:05:217,0.5958,3.938,6.8979,72.2365,0.0068,-0.1507,-0.396,85.0951
17:18:05:237,1.0654,4.2012,7.7288,72.4351,-0.0369,-0.1965,-0.3768,85.3637
17:18:05:257,1.3502,4.2873,8.79,72.2878,-0.0806,-0.2359,-0.462,85.635
17:18:05:279,1.0798,4.328,10.3687,72.2168,-0.1466,-0.2253,-0.6059,85.9086
17:18:05:298,0.7777,3.7436,11.3318,72.3514,-0.1104,-0.0964,-0.7411,86.1873
17:18:05:318,0.4014,3.3081,11.7512,72.1959,-0.0092,0.0698,-0.7933,86.4772
17:18:05:339,-0.0772,3.2333,12.338,72.1052,-0.0039,0.2667,-0.7454,86.7834
17:18:05:359,-0.5587,3.5856,12.676,72.2715,0.0441,0.5447,-0.5931,87.1079
17:18:05:379,-1.1049,4.261,11.9928,72.4877,0.2634,0.812,-0.4205,87.4488
17:18:05:399,-1.1503,4.5272,10.6062,72.5441,0.421,0.8216,-0.3491,87.8007
17:18:05:420,-1.3711,3.8877,10.7593,72.936,0.2314,0.3807,-0.5015,88.156
17:18:05:440,-2.1876,2.8983,11.6267,73.1835,0.0068,-0.0091,-0.7092,88.512
17:18:05:460,-2.7147,2.4191,11.3294,73.1564,0.0558,-0.0996,-0.7273,88.8738
17:18:05:482,-2.5208,1.9208,10.7282,73.4108,0.0601,-0.2796,-0.6112,89.2494
17:18:05:500,-1.6989,1.4369,10.8455,73.6457,-0.1892,-0.5703,-0.445,89.6401
17:18:05:521,-0.5731,0.8883,11.193,73.7932,-0.5216,-0.7418,-0.3012,90.0422
17:18:05:541,0.0616,0.6323,11.5831,73.8921,-0.7632,-0.7439,-0.2545,90.4476
17:18:05:561,0.2865,0.9027,11.0734,74.1,-0.6961,-0.482,-0.2033,90.8503
17:18:05:581,0.5312,1.6983,9.3171,73.9691,-0.2957,-0.1411,-0.0968,91.2488
17:18:05:601,1.3669,2.2875,7.2281,73.7618,0.1409,-0.025,-0.0084,91.6413
17:18:05:621,1.8341,2.8217,5.8008,73.7261,0.3305,-0.1166,-0.117,92.0244
17:18:05:641,1.5709,2.8672,5.4437,73.8571,0.2208,-0.1827,-0.4525,92.3946
17:18:05:661,0.8806,2.4383,5.3097,73.8004,0.0887,-0.0762,-0.7933,92.7561
17:18:05:682,-0.0221,2.1505,5.0937,73.8562,0.0782,0.0154,-1.0307,93.1215
17:18:05:702,-0.4319,1.8802,4.8305,73.7331,0.1121,-0.0644,-1.1011,93.5031
17:18:05:722,-0.5204,1.9926,5.0315,73.5217,0.0897,-0.2583,-1.067,93.9084
17:18:05:742,-0.5515,1.7821,6.2243,73.548,-0.0209,-0.5735,-1.0723,94.3399
17:18:05:762,-0.5324,1.5637,7.4154,73.9221,-0.0262,-0.8228,-1.0563,94.7959
17:18:05:782,-0.3482,2.1075,8.6034,74.063,0.0961,-0.8771,-0.9157,95.2753
17:18:05:802,-0.2644,3.0945,9.3936,73.9084,0.2091,-0.6289,-0.7742,95.7771
17:18:05:822,-0.1759,3.8177,9.9159,73.9851,0.1792,-0.2668,-0.7763,96.2946
17:18:05:842,0.3009,3.8255,10.3137,73.8387,-0.0369,-0.2477,-0.904,96.8223
17:18:05:862,1.0367,3.6311,12.2662,73.8582,-0.4608,-0.6779,-1.1021,97.3604
17:18:05:883,1.0415,2.8816,14.7763,73.9489,-0.7739,-0.9911,-1.3237,97.9134
17:18:05:903,0.4451,2.3593,16.2018,73.8233,-0.6173,-0.6939,-1.313,98.487
17:18:05:927,0.2291,2.9988,14.9587,73.6287,-0.0486,0.0091,-1.0137,99.0906
17:18:05:943,0.8375,3.6072,13.1689,73.6503,0.3284,0.2401,-0.8296,99.7235
17:18:05:993,1.8078,3.2668,13.3609,73.6036,0.1973,-0.0538,-0.9445,100.3738
17:18:05:994,1.477,2.5842,13.2197,73.5228,0.1068,-0.0208,-1.1905,101.0339
17:18:06:004,0.6341,1.7079,11.1236,73.3584,0.2357,0.3839,-1.3801,101.7083
17:18:06:027,0.131,1.0056,9.2548,73.1377,0.094,0.4819,-1.3929,102.4051
17:18:06:046,0.3081,0.6179,9.0873,73.1612,-0.4204,0.1463,-1.1884,103.1313
17:18:06:068,0.7155,0.661,9.868,73.3006,-0.8357,-0.1092,-0.8901,103.8852
17:18:06:088,1.3502,0.5145,10.5368,73.2745,-0.7622,-0.253,-0.6623,104.6578
17:18:06:110,1.4195,0.8118,9.3577,73.2658,-0.1775,-0.2061,-0.5696,105.4369
17:18:06:128,1.063,1.3579,7.2544,73.3916,0.4402,-0.106,-0.5739,106.2158
17:18:06:148,0.6389,1.8419,5.8152,73.438,0.666,-0.188,-0.657,106.992
17:18:06:168,0.4235,2.4335,5.3169,73.6393,0.5403,-0.1901,-0.7134,107.7664
17:18:06:188,0.3296,2.8911,5.2092,73.5742,0.3433,-0.0261,-0.7614,108.5418
17:18:06:209,0.1286,2.8959,5.0698,73.1989,0.2091,0.108,-0.8817,109.3191
17:18:06:229,-0.2405,2.9151,5.1416,73.0536,0.0844,0.1463,-1.0148,110.0994
17:18:06:248,-0.5444,2.7667,5.5466,72.8911,-0.039,0.1186,-1.1096,110.886
17:18:06:270,-1.0379,2.8146,5.8104,72.7168,-0.1008,0.0655,-1.1128,111.6823
17:18:06:289,-1.3878,3.1567,6.4283,72.6495,-0.2041,-0.0836,-0.9796,112.4917
17:18:06:311,-1.5577,3.7723,7.4991,72.6184,-0.3586,-0.335,-0.7315,113.3131
17:18:06:329,-1.0475,4.4913,9.2716,72.6097,-0.5205,-0.7013,-0.3864,114.1404
17:18:06:349,-0.0796,5.1835,11.0201,72.4249,-0.5619,-0.9229,-0.0403,114.9639
17:18:06:371,0.7442,5.6315,12.8674,72.5662,-0.4598,-0.9602,0.0907,115.7702
17:18:06:389,0.938,5.5238,14.0004,72.5475,-0.2148,-0.7695,-0.051,116.5491
17:18:06:409,0.8351,5.3414,14.348,72.803,0.0238,-0.3734,-0.264,117.2985
17:18:06:429,0.3344,5.2313,14.7069,72.7834,0.1121,0.0048,-0.4897,118.0255
17:18:06:449,-0.5109,4.5368,14.4485,72.7041,0.0739,0.3573,-0.7102,118.7378
17:18:06:469,-1.2467,3.1137,14.0889,72.528,-0.0262,0.4489,-0.8647,119.4445
17:18:06:491,-1.3184,1.1785,15.0497,72.2701,-0.136,0.0921,-0.8987,120.1542
17:18:06:509,-1.3831,-0.4289,15.5384,72.43,0.0803,-0.1752,-0.8136,120.872
17:18:06:532,-1.8694,-0.5515,13.4925,72.3653,0.7746,0.0463,-0.543,121.6003
17:18:06:551,-1.7928,0.3087,10.3759,72.0887,1.3475,0.2316,-0.1586,122.3366
17:18:06:570,-1.057,1.3507,8.0094,71.6792,1.2912,0.1399,0.113,123.0715
17:18:06:592,-0.3529,2.0357,6.7537,71.4213,0.7799,-0.0059,0.1461,123.7923
17:18:06:610,-0.1902,2.141,6.3302,71.1659,0.1867,-0.0858,-0.0372,124.4898
17:18:06:632,-0.5204,1.9615,6.3709,70.7852,-0.2606,-0.0495,-0.2193,125.162
17:18:06:651,-1.136,1.806,6.6844,70.6967,-0.4651,-0.0101,-0.2481,125.8153
17:18:06:672,-1.4644,1.7246,6.5288,70.2138,-0.3607,-0.09,-0.1096,126.4556
17:18:06:690,-1.0977,1.9878,6.7178,70.0106,-0.1626,-0.4011,0.1322,127.0835
17:18:06:710,-0.4152,2.4646,6.8524,69.9365,-0.0379,-0.6331,0.3398,127.6945
17:18:06:730,-0.1878,3.2716,7.3651,69.7085,-0.0113,-0.614,0.3792,128.2809
17:18:06:753,-0.2548,3.3655,7.9328,69.6673,-0.0752,-0.4106,0.2409,128.836
17:18:06:770,-0.3529,2.7523,8.4957,69.5676,-0.136,-0.1401,0.0672,129.3586
17:18:06:792,-0.2309,2.3569,9.1304,69.9982,-0.0294,0.0623,-0.0265,129.8561
17:18:06:812,-0.679,2.412,9.4199,70.0661,0.2293,0.041,-0.0989,130.3357
17:18:06:832,-0.7938,2.4885,9.5545,70.2392,0.4083,-0.1369,-0.0936,130.8011
17:18:06:851,-0.4606,2.7494,9.3697,70.1912,0.4178,-0.0975,-0.0201,131.2564
17:18:06:872,-0.329,2.9557,9.341,70.2804,0.175,0.174,-0.0435,131.701
17:18:06:893,-0.2788,2.3737,10.4453,70.2599,-0.3351,0.3178,-0.1927,132.1329
17:18:06:913,0.1501,1.861,12.2375,70.1553,-0.7068,0.4606,-0.2948,132.5532
17:18:06:934,0.591,1.657,13.5763,69.5938,-0.5843,0.5522,-0.38,132.9678
17:18:06:954,0.0162,2.0118,13.1306,69.5298,0.0004,0.5234,-0.4887,133.3807
17:18:06:975,0.131,2.4526,11.2576,69.5892,0.5947,0.3242,-0.477,133.7964
17:18:06:993,0.8255,2.3689,9.7244,69.6113,0.7011,-0.025,-0.5047,134.2185
17:18:07:016,1.2592,1.7127,10.0648,69.4522,0.2027,-0.2328,-0.592,134.6477
17:18:07:035,1.13,1.1444,11.3222,69.3937,-0.2872,-0.0272,-0.5632,135.085
17:18:07:054,0.9864,-0.1418,10.7354,69.385,-0.1711,0.2017,-0.51,135.5332
17:18:07:077,0.9045,-0.3332,9.3003,69.3538,0.2229,0.0314,-0.3981,135.9895
17:18:07:094,0.9523,0.6156,9.2213,69.3939,0.2154,-0.3766,-0.2204,136.4526
17:18:07:114,1.0128,1.4106,9.4032,69.2892,-0.0092,-0.4437,-0.1085,136.919
17:18:07:135,0.8471,2.1194,9.0467,69.1686,-0.0497,-0.2455,-0.0702,137.3824
17:18:07:155,0.7394,2.4814,8.0477,68.9687,0.0696,-0.1305,-0.0925,137.8373
17:18:07:174,0.7202,2.6106,7.2688,69.0136,0.1419,-0.22,-0.1724,138.2815
17:18:07:195,0.5575,2.6106,7.1539,68.8685,0.1089,-0.319,-0.2895,138.7173
17:18:07:215,0.2052,2.5101,7.3747,68.906,0.0834,-0.2775,-0.3896,139.1472
17:18:07:236,-0.2453,2.6584,7.5996,69.059,0.1707,-0.1795,-0.4173,139.5748
17:18:07:255,-0.4056,2.9294,7.1683,69.0058,0.3646,-0.074,-0.3534,140.0042
17:18:07:274,-0.4845,3.274,6.4283,68.6542,0.5222,-0.0272,-0.2694,140.436
17:18:07:295,-0.2979,3.6359,5.918,68.6192,0.4711,-0.0783,-0.1948,140.8678
17:18:07:316,0.1597,3.9547,6.4977,68.5329,0.2048,-0.2338,-0.1479,141.2963
17:18:07:334,0.2626,3.7866,7.7958,68.3709,-0.0944,-0.3851,-0.181,141.7194
17:18:07:356,0.1286,3.7388,9.2429,68.4616,-0.185,-0.4639,-0.1767,142.1362
17:18:07:375,0.2387,3.8973,10.3208,68.1625,-0.0252,-0.4522,-0.0702,142.5469
17:18:07:396,0.6748,4.1916,10.6062,67.8705,0.2559,-0.2658,0.0459,142.9523
17:18:07:415,0.8112,4.1821,10.7426,67.8345,0.4104,-0.1475,0.0119,143.349
17:18:07:435,0.8447,3.7531,11.217,68.0769,0.3603,-0.188,-0.1149,143.7336
17:18:07:456,0.2626,3.8925,11.9498,68.0172,0.2474,-0.1646,-0.2023,144.1075
17:18:07:476,-0.3673,4.1438,12.2423,68.0092,0.1782,0.0474,-0.2001,144.4761
17:18:07:496,-0.7914,3.8154,12.0168,68.0419,0.1611,0.2827,-0.1767,144.8422
17:18:07:517,-1.3687,3.1902,11.7512,67.9063,0.1526,0.3775,-0.1735,145.2059
17:18:07:536,-1.9412,2.7619,11.3629,67.7454,0.2218,0.3328,-0.1096,145.5658
17:18:07:558,-1.6295,2.7835,10.9843,67.5622,0.3806,0.1293,0.1162,145.9218
17:18:07:577,-1.0403,3.1711,10.2012,67.5108,0.518,-0.0016,0.3197,146.2712
17:18:07:597,-0.8608,3.3129,9.0538,67.4352,0.4668,0.0442,0.3197,146.6074
17:18:07:617,-0.6018,2.9557,8.881,67.2916,0.1569,0.0059,0.2632,146.9224
17:18:07:638,-0.0843,2.7135,9.0562,67.3842,-0.0848,-0.0783,0.2941,147.217
17:18:07:657,0.1836,2.5842,8.6632,67.5103,-0.1051,-0.0889,0.26,147.4941
17:18:07:677,0.2076,2.4024,8.0668,67.576,-0.1115,-0.0442,0.178,147.7524
17:18:07:697,0.2339,2.196,7.4967,67.6327,-0.1509,-0.0336,0.1333,147.9941
17:18:07:718,0.1789,2.1888,7.1946,67.7144,-0.2063,-0.0634,0.1077,148.2229
17:18:07:739,-0.0604,2.4981,7.1276,67.585,-0.2553,-0.0676,0.1035,148.4417
17:18:07:760,-0.0939,2.613,7.1946,67.4947,-0.2478,-0.0762,0.1152,148.6517
17:18:07:779,-0.1663,2.6154,7.1109,67.6847,-0.1285,-0.1156,0.1067,148.8526
17:18:07:799,-0.3864,2.9892,6.8381,67.7598,0.0366,-0.1901,0.0726,149.0442
17:18:07:819,-0.3769,3.3488,6.6413,67.3519,0.0929,-0.3137,0.0364,149.2268
17:18:07:841,-0.4032,3.5402,7.0798,67.3005,-0.0326,-0.3979,-0.0169,149.402
17:18:07:859,-0.585,3.6957,7.9472,67.4838,-0.2063,-0.3606,-0.0542,149.5715
17:18:07:881,-0.4893,3.6957,8.613,67.6661,-0.2595,-0.2626,-0.034,149.7379
17:18:07:900,-0.4271,3.8201,9.0945,67.6771,-0.2222,-0.1603,-0.018,149.902
17:18:07:920,-0.6018,4.0098,9.5569,67.5396,-0.185,-0.0634,-0.0276,150.0642
17:18:07:940,-0.6766,4.0098,10.2275,67.4979,-0.121,-0.0378,-0.051,150.2234
17:18:07:960,-0.8512,3.7795,10.5942,67.2344,-0.0049,-0.1049,-0.0766,150.3799
17:18:08:010,-0.7723,3.7819,11.0638,67.4823,0.026,-0.2285,-0.0286,150.535
17:18:08:011,-0.4056,3.7651,11.9785,67.4679,-0.121,-0.2509,0.0758,150.6887
17:18:08:020,-0.0341,3.7172,12.8674,67.3103,-0.2595,-0.1145,0.1716,150.8401
17:18:08:041,0.7585,3.5306,13.066,67.1984,-0.1881,0.0037,0.2611,150.9858
17:18:08:061,1.7192,3.0443,12.551,67.3486,0.0292,-0.0336,0.2345,151.1227
17:18:08:081,2.2319,2.4718,12.3332,67.6656,0.1569,-0.1401,0.1035,151.2489
17:18:08:101,2.4592,2.4622,12.2758,67.4137,0.2314,-0.0037,0.0449,151.3662
17:18:08:121,2.3779,2.7763,11.3868,67.6333,0.4242,0.3317,-0.0009,151.4808
17:18:08:142,1.9513,2.613,9.7244,67.4636,0.6181,0.5266,-0.166,151.5946
17:18:08:163,1.547,1.873,8.0692,67.2215,0.5723,0.4212,-0.3843,151.7088
17:18:08:182,1.2042,1.4465,7.7767,67.1424,0.1867,0.1655,-0.4897,151.8287
17:18:08:203,0.7872,1.6403,8.3492,66.8297,-0.3181,0.157,-0.4375,151.962
17:18:08:222,0.3679,1.9687,8.2511,66.5676,-0.5545,0.3786,-0.3076,152.1134
17:18:08:243,0.387,2.5819,7.6618,66.3978,-0.513,0.435,-0.1628,152.2796
17:18:08:263,1.0008,2.9533,7.468,66.4535,-0.4172,0.1783,-0.083,152.4547
17:18:08:283,1.6522,3.0897,8.0405,66.2123,-0.3277,-0.1816,-0.1511,152.632
17:18:08:304,1.8245,3.006,8.7326,66.283,-0.136,-0.368,-0.3704,152.8095
17:18:08:324,1.1228,2.7643,8.3492,66.3383,0.1963,-0.2477,-0.6421,152.9909
17:18:08:344,0.1765,2.7398,7.3196,66.2934,0.4487,0.0197,-0.7827,153.1827
17:18:08:364,-0.4391,2.7906,6.5288,66.4697,0.421,0.2177,-0.7635,153.3953
17:18:08:384,-0.9541,2.8265,6.4235,66.4914,0.1707,0.3029,-0.674,153.6326
17:18:08:405,-1.2443,2.8026,7.0726,66.4129,-0.0976,0.2358,-0.526,153.8919
17:18:08:425,-1.2467,3.0562,7.4895,66.3668,-0.1466,0.1027,-0.3204,154.1689
17:18:08:445,-0.9829,3.4923,7.8389,66.0963,-0.0763,-0.0506,-0.0925,154.4575
17:18:08:465,-0.5803,3.95,8.6919,65.842,-0.0433,-0.2051,0.1237,154.7497
17:18:08:485,0.1478,4.3041,9.4319,65.7787,0.0313,-0.2775,0.292,155.0368
17:18:08:506,0.9093,4.6134,9.9589,65.7004,0.1409,-0.2839,0.3048,155.3116
17:18:08:525,1.2784,4.4172,10.654,65.4257,0.1334,-0.237,0.1301,155.5682
17:18:08:545,0.682,3.8997,11.5519,65.1125,0.0217,-0.0389,-0.0947,155.8079
17:18:08:565,-0.3434,3.9619,12.137,64.7772,-0.0134,0.1676,-0.1884,156.0377
17:18:08:586,-1.0307,3.9619,11.8804,64.5487,0.0537,0.2209,-0.1916,156.2675
17:18:08:606,-1.7085,3.4181,11.8158,64.614,0.0185,0.1282,-0.1991,156.4986
17:18:08:626,-2.0752,2.4885,11.8612,64.7302,-0.0816,0.0794,-0.1469,156.7308
17:18:08:647,-2.6189,1.8897,11.7679,64.611,-0.0529,0.0964,-0.0095,156.9643
17:18:08:666,-2.9163,1.9424,11.2552,64.4813,0.1387,0.1485,0.2696,157.1972
17:18:08:686,-2.3988,2.0764,9.9517,64.4298,0.3859,0.1975,0.6413,157.4235
17:18:08:707,-1.7856,2.4909,8.7087,64.5621,0.4562,0.1367,0.8703,157.6337
17:18:08:726,-1.0475,2.8002,8.2989,64.6036,0.2399,-0.0389,0.9086,157.8147
17:18:08:748,-0.4822,2.5579,8.2654,64.3669,-0.0646,-0.1763,0.8096,157.9592
17:18:08:767,-0.1639,2.2947,8.4646,63.9985,-0.267,-0.2434,0.6849,158.0667
17:18:08:787,0.1262,1.9902,8.5364,63.8619,-0.3383,-0.2349,0.5901,158.0667
17:18:08:807,0.1765,1.9472,8.4838,63.8621,-0.3288,-0.1209,0.5401,158.0667
17:18:08:828,0.2961,2.2277,8.1027,63.7794,-0.251,0.0666,0.5433,158.0667
17:18:08:848,0.5384,2.6058,7.401,63.777,-0.1157,0.1932,0.5198,158.0667
17:18:08:869,0.5575,2.8648,6.9386,63.6712,-0.0124,0.1474,0.392,158.0667
17:18:08:889,0.411,2.939,6.8812,63.6985,0.0366,-0.0399,0.21,158.0667
17:18:08:909,0.2387,2.9007,6.8166,63.6826,0.0462,-0.1955,0.0534,158.0667
17:18:08:929,0.1143,2.927,7.0176,64.0176,-0.0593,-0.2178,-0.034,158.0667
17:18:08:949,-0.003,2.9749,7.7025,63.8841,-0.2414,-0.1784,-0.0585,158.0667
17:18:08:969,-0.0652,2.927,8.5388,63.6731,-0.3746,-0.1188,-0.051,158.0667
17:18:08:989,-0.0652,2.8744,9.2333,63.5988,-0.3778,-0.0346,-0.0435,158.0667
17:18:09:009,-0.2788,3.1089,9.6838,63.5424,-0.2563,0.0186,-0.0382,158.0667
17:18:09:030,-0.408,3.5856,10.127,63.6149,-0.0912,0.0133,-0.0041,158.0667
17:18:09:050,-0.3601,4.0768,10.127,63.7305,0.0876,-0.0091,0.0417,158.0667
17:18:09:071,-0.4247,4.5679,9.9374,63.8124,0.1622,-0.0836,0.0427,158.0667
17:18:09:094,-0.3123,4.7043,10.2873,63.5627,0.0345,-0.2402,0.0246,158.0667
17:18:09:111,0.0688,4.4195,11.5956,63.6924,-0.1828,-0.4128,0.0225,158.0667
17:18:09:131,0.725,4.261,12.786,63.7896,-0.2276,-0.4138,0.0939,158.0667
17:18:09:151,1.6475,3.734,12.594,63.6802,-0.0475,-0.2711,0.1237,158.0667
17:18:09:171,2.1505,2.9007,12.3236,63.5428,0.0345,-0.2274,-0.0052,158.0667
17:18:09:191,2.0016,1.7462,12.8698,63.4472,-0.0305,-0.1624,-0.1533,158.0667
17:18:09:211,0.9912,1.1641,12.5725,63.1204,0.1995,0.0868,-0.2001,158.0667
17:18:09:232,0.2913,0.8572,10.3496,63.0114,0.7245,0.2593,-0.165,158.0667
17:18:09:252,0.2818,0.5312,8.2798,62.9842,0.8949,0.0453,-0.1543,158.0667
17:18:09:275,0.7633,0.6826,7.9424,62.6129,0.4296,-0.1806,-0.1202,158.0667
17:18:09:291,1.0726,1.2024,8.5244,62.1607,-0.2606,0.0314,-0.0542,158.0667
17:18:09:314,0.8997,1.8251,8.5077,62.0391,-0.6407,0.532,-0.0308,158.0667
17:18:09:337,0.6461,2.3617,7.8562,61.6971,-0.6812,0.8311,-0.0553,158.0667
17:18:09:357,0.5049,2.7039,7.5374,61.435,-0.6663,0.8066,-0.1266,158.0667
17:18:09:377,0.2961,2.8265,7.4393,61.2222,-0.5758,0.6172,-0.2087,158.0667
17:18:09:398,0.0784,2.9868,7.4034,60.9851,-0.3032,0.3029,-0.2767,158.0667
17:18:09:418,0.0138,3.2812,6.9338,60.9366,0.0558,0.0048,-0.298,158.0667
17:18:09:438,0.1597,3.4277,6.536,61.0264,0.2272,-0.1348,-0.3268,158.0667
17:18:09:458,0.1478,3.1567,6.5432,61.0283,0.127,-0.0889,-0.3928,158.0667
17:18:09:478,-0.1735,2.8935,6.9841,60.6626,-0.0688,0.0399,-0.4354,158.0667
17:18:09:498,-0.4487,2.8792,7.5709,60.5905,-0.1445,0.09,-0.3896,158.1586
17:18:09:519,-0.518,3.0873,7.8174,60.6177,-0.0699,0.0538,-0.2587,158.2641
17:18:09:538,-0.3601,3.533,8.0788,60.5726,-0.006,-0.0421,-0.1053,158.3807
17:18:09:558,-0.195,3.9452,8.6154,60.521,-0.023,-0.1305,-0.002,158.5037
17:18:09:573,0.0018,4.3693,9.4008,60.4029,-0.0539,-0.1294,0.0502,158.6268
17:18:09:593,0.1214,4.6971,10.0768,60.0973,-0.0198,-0.0581,0.0587,158.7464
17:18:09:618,0.2028,4.7019,10.8048,59.9644,0.0473,-0.0336,-0.019,158.8611
17:18:09:640,0.2506,4.0959,11.2409,59.9375,0.1228,-0.0144,-0.1618,158.9708
17:18:09:657,-0.1352,3.6359,11.6865,59.9343,0.1142,0.0442,-0.2991,159.0786
17:18:09:674,-0.8871,3.6861,12.5749,59.8042,0.0185,0.1772,-0.2969,159.1902
17:18:09:697,-1.4836,3.9428,12.5677,59.545,0.0611,0.4265,-0.1256,159.3111
17:18:09:718,-1.2299,3.6981,12.012,59.0574,0.1494,0.5256,0.0768,159.4398
17:18:09:736,-1.1097,3.4205,12.0479,58.9624,0.0387,0.4489,0.1802,159.5699
17:18:09:755,-1.3854,3.0275,12.2399,58.669,-0.0859,0.4308,0.194,159.6942
17:18:09:777,-1.879,2.4981,11.7847,58.4252,0.0004,0.386,0.1397,159.8086
17:18:09:796,-2.3318,2.0883,10.9316,58.1786,0.1664,0.1911,0.0598,159.9123
17:18:09:817,-2.4491,1.6594,10.005,57.9126,0.1941,-0.0431,0.0364,160.0076
17:18:09:836,-2.2211,1.4058,9.7412,57.6475,0.0057,-0.1646,0.1301,160.0982
17:18:09:857,-1.8,1.3866,9.7125,57.5996,-0.1988,-0.0975,0.2856,160.0982
17:18:09:878,-1.2538,1.3029,9.2716,57.697,-0.2201,0.0027,0.3622,160.0982
17:18:09:897,-0.789,1.3555,8.6297,57.4888,-0.137,-0.0304,0.3675,160.0982
17:18:09:917,-0.3864,1.6283,8.2582,57.5607,-0.0561,-0.1838,0.3707,160.0982
17:18:09:939,-0.0963,1.7342,8.0429,57.4433,0.0249,-0.2913,0.3675,160.0982
17:18:09:956,-0.0748,1.8945,7.657,57.3635,0.1356,-0.2146,0.3643,160.0982
17:18:09:979,-0.3314,2.2995,7.1444,57.0913,0.2612,-0.0336,0.3877,160.0982
17:18:10:017,-0.5827,2.7374,6.3852,56.8213,0.3582,0.1069,0.3973,160.0982
17:18:10:019,-0.5755,3.0682,5.6471,56.6071,0.322,0.0815,0.3622,160.0982
17:18:10:039,-0.4152,2.9821,5.9468,56.4965,0.0887,-0.1486,0.2632,160.0982
17:18:10:059,-0.4008,2.8026,7.0534,56.2127,-0.1434,-0.3819,0.1365,160.0982
17:18:10:078,-0.4989,2.8648,8.4191,56.1411,-0.2105,-0.4415,0.0513,160.0982
17:18:10:101,-0.6814,2.9055,8.9486,55.9944,-0.1146,-0.2636,0.03,160.0982
17:18:10:118,-0.6742,3.2453,9.0921,55.8938,-0.0156,-0.0495,0.0896,160.0982
17:18:10:139,-0.5563,3.5426,9.7244,56.0975,-0.0017,-0.0399,0.1205,160.0982
17:18:10:158,-0.6233,3.8279,10.4477,56.083,0.0547,-0.1358,0.079,160.0982
17:18:10:178,-0.7986,3.9643,10.8622,55.856,0.1846,-0.204,0.0172,160.0982
17:18:10:199,-0.9278,3.8255,11.0638,55.7165,0.2559,-0.2391,-0.019,160.0982
17:18:10:220,-0.8967,3.8082,11.4156,55.7689,0.1377,-0.2977,-0.0041,160.0982
17:18:10:239,-0.8201,3.6024,12.7095,55.5802,-0.1892,-0.4383,0.0427,160.0982
17:18:10:264,-0.14,3.478,14.336,55.3254,-0.382,-0.4501,0.1695,160.0982
17:18:10:280,1.1085,2.5507,13.8209,55.2085,-0.071,-0.2636,0.2355,160.0982
17:18:10:300,1.4554,2.0405,12.3643,54.9641,0.3347,-0.0794,0.1269,160.0982
17:18:10:320,1.118,1.5254,10.989,54.7529,0.4541,0.1069,0.0161,160.0982
17:18:10:340,0.3272,1.873,9.6431,54.7368,0.519,0.2742,-0.0052,160.0982
17:18:10:360,0.7011,1.8873,7.6475,54.4716,0.5893,0.2262,0.064,160.0982
17:18:10:380,1.4841,2.1242,6.6724,54.2172,0.3752,-0.0708,0.1194,160.0982
17:18:10:401,2.0836,2.6776,7.1946,54.0243,-0.1349,-0.2423,0.0907,160.0982
17:18:10:422,1.8126,2.86,7.8054,53.9665,-0.5481,-0.1262,-0.0819,160.0982
17:18:10:441,0.9912,2.9007,7.803,53.7005,-0.6567,0.0538,-0.2905,160.0982
17:18:10:461,0.3679,2.6058,7.535,53.595,-0.6216,0.073,-0.4056,160.0982
17:18:10:481,0.1214,2.2056,7.8634,53.4882,-0.6226,-0.0687,-0.4429,160.0982
17:18:10:501,0.143,1.9304,8.6728,53.4826,-0.5406,-0.2125,-0.4184,160.0982
17:18:10:522,0.2722,1.9065,8.9121,53.4246,-0.2031,-0.1827,-0.3438,160.0982
17:18:10:542,0.4187,2.4814,8.1817,53.3536,0.2453,0.0772,-0.23,160.0982
17:18:10:562,0.4929,3.0491,6.9553,53.2043,0.5265,0.3722,-0.1991,160.0982
17:18:10:582,0.1621,3.5617,5.8439,52.9165,0.5052,0.4638,-0.3001,160.0982
17:18:10:602,-0.0724,3.7651,5.9563,52.745,0.2027,0.2422,-0.3811,160.0982
17:18:10:622,0.0616,3.6814,7.4824,52.3842,-0.1551,-0.1166,-0.3513,160.0982
17:18:10:643,0.0855,3.6215,8.6728,52.341,-0.2776,-0.2083,-0.2545,160.0982
17:18:10:663,0.1119,3.8303,9.2189,52.0818,-0.1679,-0.0751,-0.132,160.0982
17:18:10:685,0.332,4.0935,9.9135,51.7318,-0.0007,-0.0581,-0.0478,160.0982
17:18:10:705,0.4714,4.194,10.4524,51.3006,0.2112,-0.172,-0.0915,160.0982
17:18:10:724,0.4618,4.0002,10.3208,51.2854,0.371,-0.1795,-0.2353,160.0982
17:18:10:744,0.0066,3.7292,10.5488,51.1017,0.2197,0.0282,-0.3619,160.1884
17:18:10:765,-0.6766,3.4397,11.653,50.9198,-0.1115,0.3849,-0.3438,160.286
17:18:10:785,-1.6367,3.8614,12.4816,50.8382,-0.1732,0.7331,-0.1522,160.3947
17:18:10:805,-2.1111,4.2012,11.6746,50.4492,0.0792,0.9345,0.0683,160.513
17:18:10:825,-1.8263,3.4062,10.7593,50.0646,0.2091,0.7035,0.1695,160.6339
17:18:10:844,-1.5147,2.412,11.6459,50.1022,0.0462,0.1996,0.1919,160.7478
17:18:10:864,-1.2132,2.747,12.5366,50.062,0.0983,0.0325,0.3643,160.8518
17:18:10:885,-0.7292,3.3033,10.7904,49.8655,0.5371,0.2209,0.5188,160.9455
17:18:10:905,-0.6861,3.0802,8.3683,49.9287,0.6724,0.2571,0.3643,160.9455
17:18:10:925,-0.9565,2.4239,7.9591,49.7607,0.175,-0.1039,0.1035,160.9455
17:18:10:945,-0.9517,1.5254,9.2381,49.651,-0.5162,-0.4277,0.0182,160.9455
17:18:10:965,-1.0355,0.9864,10.1294,49.6294,-0.857,-0.3638,0.1312,160.9455
17:18:10:986,-0.8512,0.917,9.9613,49.4078,-0.726,-0.1774,0.3409,160.9455
17:18:11:006,-0.4582,1.3627,8.8307,49.2305,-0.3703,-0.0932,0.5518,160.9455
17:18:11:026,0.0951,2.0189,7.6642,49.2218,-0.0955,-0.0889,0.6913,160.9455
17:18:11:046,0.536,2.5842,6.6604,49.2016,0.0622,-0.0975,0.7244,160.9455
17:18:11:066,0.5312,3.0491,6.0257,48.9898,0.1696,-0.1678,0.6327,160.9455
17:18:11:086,0.332,3.344,5.9061,48.9698,0.2059,-0.2647,0.4868,160.9455
17:18:11:107,-0.1184,3.2333,6.2847,48.9283,0.1611,-0.2913,0.3473,160.9455
17:18:11:127,-0.3984,2.7643,7.4895,48.802,0.1419,-0.4991,0.2419,160.853
17:18:11:148,-0.4032,2.2301,8.3803,48.7306,0.3987,-0.9282,0.1716,160.7491
17:18:11:167,-0.3314,2.5125,8.1721,48.4638,0.8054,-1.1358,0.2025,160.6384
17:18:11:187,0.0832,3.3751,7.5996,48.1464,0.8427,-0.9048,0.3654,160.5233
17:18:11:208,0.7896,4.1318,7.7862,47.6128,0.4487,-0.4309,0.5539,160.4017
17:18:11:228,1.2855,4.7593,8.3856,47.26,0.0409,0.0048,0.5806,160.2674
17:18:11:248,1.1994,5.205,8.6967,47.0494,-0.1381,0.2561,0.4048,160.1149
17:18:11:269,0.8207,5.2241,9.073,46.4204,-0.2457,0.1698,0.1429,159.9448
17:18:11:290,0.9601,4.6134,10.1821,46.0214,-0.4427,-0.2455,-0.0798,159.7648
17:18:11:309,0.926,4.017,12.5175,45.711,-0.7206,-0.5863,-0.182,159.5847
17:18:11:329,1.4315,3.6,14.4772,45.544,-0.8058,-0.5309,-0.0893,159.414
17:18:11:349,2.668,3.2889,14.4293,45.4085,-0.5726,-0.1678,0.0854,159.2576
17:18:11:369,3.6933,2.4383,14.0674,45.5081,-0.4417,0.1495,0.0449,159.1128
17:18:11:389,3.5611,1.1109,14.132,45.4596,-0.4917,0.4371,-0.1671,158.9724
17:18:11:409,2.2199,0.6078,13.3226,45.37,-0.2403,0.7077,-0.2895,158.8392
17:18:11:430,1.7336,0.6251,11.1236,45.4419,0.2975,0.6832,-0.2001,158.72
17:18:11:451,2.0931,0.9745,9.0203,45.4498,0.5691,0.3828,-0.0606,158.6175
17:18:11:470,2.5723,1.5278,8.0094,45.5164,0.2804,0.2475,-0.0435,158.5252
17:18:11:490,2.3204,1.6211,8.0357,45.4655,-0.2819,0.4137,-0.1746,158.5252
17:18:11:510,1.6499,1.2837,8.2367,45.381,-0.5971,0.5778,-0.3246,158.5252
17:18:11:529,1.1109,1.4752,7.6307,45.0633,-0.4758,0.6076,-0.3545,158.5252
17:18:11:550,0.9236,1.9735,6.7155,44.9217,-0.2222,0.4553,-0.3417,158.5252
17:18:11:571,1.008,2.5603,6.2148,44.7897,-0.0827,0.2103,-0.38,158.5252
17:18:11:591,0.9452,2.9462,6.2847,44.7714,-0.0529,0.0357,-0.4823,158.5252
17:18:11:611,0.6652,3.0514,6.3374,44.6597,0.0025,-0.0453,-0.6144,158.5252
17:18:11:634,0.3009,3.0921,6.2465,44.5828,0.0887,-0.0698,-0.7188,158.5252
17:18:11:653,-0.0365,3.0993,6.2632,44.5,0.0897,-0.0985,-0.755,158.5252
17:18:11:673,-0.0604,3.1184,7.142,44.4438,-0.0294,-0.1997,-0.6943,158.5252
17:18:11:693,0.0903,3.128,8.3109,44.2525,-0.1093,-0.2679,-0.5771,158.5252
17:18:11:714,0.0616,3.3105,8.7852,44.1986,-0.0411,-0.1912,-0.4812,158.5252
17:18:11:734,-0.0341,3.5091,9.1687,44.0903,0.0419,-0.1145,-0.3896,158.6247
17:18:11:754,-0.1567,4.0122,9.9254,44.0686,0.094,-0.1103,-0.2523,158.7368
17:18:11:775,-0.082,4.6301,10.3831,43.752,0.2261,-0.0932,-0.1011,158.8567
17:18:11:793,0.2889,4.8963,10.3472,43.5747,0.3507,-0.073,-0.0414,158.9794
17:18:11:815,0.7059,4.6373,10.8718,43.4934,0.224,-0.0794,-0.1309,159.0995
17:18:11:834,0.6485,3.8375,12.1005,43.4441,-0.0603,-0.0325,-0.3087,159.2153
17:18:11:854,-0.2213,3.2118,13.1952,43.3703,-0.1871,0.1229,-0.4098,159.33
17:18:11:874,-1.0594,3.4564,13.349,43.1635,-0.0145,0.2955,-0.2587,159.4504
17:18:11:894,-0.5731,3.5809,12.1633,43.082,0.3017,0.2667,0.0555,159.5803
17:18:11:914,-0.07,3.4828,11.6291,42.9717,0.4178,-0.0772,0.1972,159.7132
17:18:11:934,0.1908,3.5258,11.9521,42.9744,0.4125,-0.2658,0.113,159.8369
17:18:11:954,-0.5013,3.2429,10.8191,42.7468,0.4935,0.0889,-0.1149,159.9474
17:18:11:974,-1.5266,2.4287,9.0538,42.4999,0.4317,0.4755,-0.3204,160.0481
17:18:12:029,-2.3246,1.3603,8.4957,42.2996,0.0515,0.3146,-0.38,160.1476
17:18:12:030,-2.2522,0.4164,8.8546,42.1863,-0.3682,-0.057,-0.2193,160.2527
17:18:12:033,-1.7665,0.1723,9.408,42.1465,-0.5726,-0.2381,0.0502,160.3647
17:18:12:054,-1.2802,0.5695,9.4851,42.1984,-0.5374,-0.1614,0.3218,160.4777
17:18:12:075,-0.4989,1.2311,8.7948,42.1848,-0.3266,0.0186,0.5763,160.5818
17:18:12:095,0.1454,1.7055,7.4584,42.3639,-0.0742,0.1293,0.6956,160.5818
17:18:12:114,0.4355,2.2421,6.5288,42.5603,-0.0092,0.0442,0.6519,160.5818
17:18:12:135,0.2578,2.5651,6.658,42.885,-0.1562,-0.0772,0.5028,160.5818
17:18:12:154,-0.2022,2.412,7.2736,43.139,-0.2318,-0.0794,0.3707,160.5818
17:18:12:175,-0.4391,2.3186,7.3436,43.6071,-0.0166,-0.0229,0.3377,160.5818
17:18:12:195,-0.5659,2.5842,6.8572,43.7621,0.3017,-0.0336,0.3558,160.5818
17:18:12:215,-0.5803,2.8959,6.4068,44.0082,0.3869,-0.106,0.3515,160.5818
17:18:12:235,-0.518,2.9916,7.1468,44.195,0.1111,-0.2328,0.276,160.5818
17:18:12:256,-0.6329,2.8457,8.5531,44.2401,-0.2702,-0.2551,0.194,160.5818
17:18:12:276,-0.6138,2.8624,9.6646,44.3822,-0.3927,-0.0378,0.227,160.5818
17:18:12:296,-0.518,3.2453,10.2347,44.2915,-0.2158,0.2028,0.2973,160.4871
17:18:12:317,-0.4678,3.5593,10.5224,44.2278,0.0196,0.2103,0.2686,160.3844
17:18:12:336,-0.5252,3.7436,10.6421,44.0678,0.1441,0.0634,0.1631,160.2707
17:18:12:357,-0.6718,3.7388,10.855,44.2293,0.1142,-0.0751,0.063,160.1481
17:18:12:377,-0.4367,3.2812,11.6291,44.1429,-0.0561,-0.1699,0.0395,160.0197
17:18:12:397,0.0233,2.9701,13.1904,44.0285,-0.2329,-0.2391,0.1088,159.8901
17:18:12:417,0.4977,3.32,14.2738,44.0158,-0.1615,-0.1411,0.2238,159.7604
17:18:12:437,1.1348,3.2261,13.1306,44.1518,0.1079,0.1442,0.2249,159.6283
17:18:12:458,1.4004,2.1051,12.5557,44.3262,0.027,0.3104,0.0502,159.4903
17:18:12:478,0.6843,1.0822,13.0158,44.6109,-0.1977,0.5075,-0.0617,159.3469
17:18:12:498,0.1908,0.917,12.1149,44.8791,0.1079,0.7056,0.0672,159.2047
17:18:12:518,0.8614,0.8716,9.3386,44.7412,0.681,0.6214,0.2643,159.0679
17:18:12:538,1.6283,0.9505,7.3747,44.6861,0.7011,0.173,0.2292,158.9309
17:18:12:558,1.8796,1.2837,7.5135,44.592,0.0409,-0.2019,0.0736,158.7868
17:18:12:579,1.3789,1.0702,8.4479,44.6744,-0.677,-0.0218,-0.0659,158.6379
17:18:12:598,0.3751,0.9793,8.6752,44.7555,-0.906,0.3988,-0.1256,158.4892
17:18:12:624,-0.2381,1.3436,7.9352,44.869,-0.6248,0.5501,-0.0457,158.3472
17:18:12:644,-0.1184,1.9113,6.9506,45.0287,-0.1786,0.2699,0.0811,158.2133
17:18:12:663,0.4905,2.3785,6.5599,44.9518,0.1015,-0.1166,0.1237,158.0834
17:18:12:683,0.6724,3.0849,6.6437,45.0126,0.1281,-0.2189,0.0374,157.9528
17:18:12:699,0.4666,3.3631,6.9075,45.1238,0.1004,-0.0996,-0.1107,157.8188
17:18:12:723,0.1214,3.4301,6.7807,45.4107,0.1324,0.0794,-0.2161,157.6847
17:18:12:740,-0.1448,3.411,6.5527,45.3906,0.143,0.2134,-0.2534,157.5569
17:18:12:764,-0.2931,3.2865,6.658,45.2584,0.0675,0.1879,-0.2619,157.4374
17:18:12:785,-0.2477,3.0682,7.6068,45.2734,-0.0827,0.0282,-0.2268,157.3267
17:18:12:804,-0.2189,3.0491,8.9318,45.2227,-0.1668,-0.1049,-0.149,157.2254
17:18:12:824,-0.1448,2.9318,9.8297,45.2521,-0.0667,-0.1348,-0.0521,157.1317
17:18:12:845,0.0879,3.2166,10.1988,45.232,0.1132,-0.073,0.0726,157.1317
17:18:12:863,0.2746,3.7149,10.9938,45.2185,0.1483,-0.0314,0.112,157.0415
17:18:12:882,0.3272,3.7531,12.3117,45.1656,0.0961,0.024,-0.0137,156.948
17:18:12:902,-0.3769,3.0419,12.1872,45.2557,0.2357,0.19,-0.2342,156.8505
17:18:12:923,-1.1862,2.8839,11.8373,45.2592,0.3774,0.2987,-0.2502,156.7539
17:18:12:945,-1.3878,3.7388,11.7559,45.2792,0.3699,0.4744,0.0395,156.7539
17:18:12:964,-1.4453,4.3232,10.9675,45.1343,0.3113,0.7779,0.2654,156.7539
17:18:12:984,-1.2514,4.477,10.8072,45.0731,0.1654,0.7395,0.3398,156.7539
17:18:13:005,-1.0116,4.2514,11.2816,45.1142,0.0228,0.3658,0.3304,156.6537
17:18:13:024,-1.4046,3.7579,11.0489,45.055,0.0823,0.0655,0.1802,156.5401
17:18:13:046,-1.8263,2.817,10.2754,45.0375,0.0887,-0.1305,-0.0329,156.4135
17:18:13:066,-2.257,1.6714,10.4046,44.9887,-0.1988,-0.3233,-0.1618,156.2798
17:18:13:085,-2.3462,0.7256,11.3103,44.8815,-0.5374,-0.4362,-0.0744,156.1473
17:18:13:104,-1.922,0.1675,11.5783,44.6926,-0.6173,-0.2807,0.2153,156.0201
17:18:13:125,-1.3854,0.3278,11.1165,44.8415,-0.4672,0.0314,0.523,155.8951
17:18:13:145,-0.7029,0.9936,9.8584,44.8672,-0.1583,0.3019,0.768,155.761
17:18:13:164,-0.0389,1.5302,8.1194,44.7108,0.2272,0.3679,0.8927,155.6079
17:18:13:184,0.469,1.995,6.5097,44.8684,0.5244,0.2262,0.8735,155.4277
17:18:13:205,0.7394,2.4431,5.6949,45.0036,0.6,-0.0368,0.7339,155.2201
17:18:13:225,0.6269,2.9677,5.729,45.0587,0.5105,-0.2083,0.5635,154.9871
17:18:13:246,0.524,3.2644,5.6183,45.2763,0.4604,-0.1433,0.4186,154.7338
17:18:13:266,0.2267,3.4301,5.3025,45.3155,0.4487,-0.0186,0.2366,154.4649
17:18:13:285,-0.4606,3.4134,5.4413,44.9298,0.3443,-0.0485,-0.0031,154.1856
17:18:13:306,-1.2682,3.128,5.8008,44.8203,0.1803,-0.1859,-0.1831,153.9025
17:18:13:326,-1.6199,3.061,6.9912,45.094,-0.0475,-0.3659,-0.1756,153.625
17:18:13:346,-1.4812,3.1831,8.6249,45.0548,-0.2222,-0.4703,-0.0126,153.3586
17:18:13:370,-0.7531,3.6431,10.0433,44.7758,-0.1296,-0.4479,0.2047,153.1017
17:18:13:387,-0.2835,4.6325,10.2395,44.599,0.2059,-0.2828,0.3494,152.8476
17:18:13:407,0.1478,5.4616,9.7149,44.4474,0.4402,-0.1262,0.3643,152.5908
17:18:13:425,0.5025,5.8493,10.1797,44.3574,0.3007,-0.3233,0.2494,152.3252
17:18:13:449,0.7848,5.2816,11.7799,44.5037,-0.088,-0.7439,0.031,152.0498
17:18:13:466,0.658,4.3693,13.2126,44.3876,-0.4044,-0.8483,-0.1522,151.7688
17:18:13:486,0.8423,3.2572,14.6495,44.1566,-0.5662,-0.6182,-0.2033,151.4921
17:18:13:507,1.3717,2.1338,14.8128,44.045,-0.4097,-0.2839,-0.1799,151.2266
17:18:13:526,2.0501,1.1521,13.4638,44.1352,-0.039,-0.0389,-0.1991,150.9753
17:18:13:548,2.1434,0.0497,12.5007,43.9922,0.0803,0.1463,-0.3118,150.7393
17:18:13:567,1.4195,-0.4576,11.2026,43.9844,0.0983,0.566,-0.3992,150.518
17:18:13:588,0.3464,-0.3476,8.9318,43.9916,0.2048,0.9387,-0.4226,150.3153
17:18:13:608,-0.0126,0.1172,6.7035,43.8483,0.1622,0.8375,-0.3768,150.1333
17:18:13:627,0.2004,0.6467,6.143,43.625,-0.2531,0.3274,-0.364,149.9729
17:18:13:649,0.3607,0.9577,7.2209,43.4704,-0.8378,-0.0996,-0.4067,149.8311
17:18:13:669,0.4618,1.2957,8.3856,43.3799,-1.1679,-0.172,-0.412,149.7037
17:18:13:688,0.4499,1.669,8.79,43.2296,-1.1094,-0.025,-0.3694,149.5932
17:18:13:708,0.3607,2.0118,8.4598,43.3691,-0.8325,0.1836,-0.3172,149.5001
17:18:13:728,0.2746,2.3713,7.6881,43.2598,-0.4885,0.3455,-0.2895,149.5001
17:18:13:748,-0.0197,2.8696,6.9362,43.193,-0.1551,0.369,-0.33,149.5001
17:18:13:769,-0.1256,3.1591,6.4714,43.3749,0.1111,0.2358,-0.3896,149.5001
17:18:13:789,-0.2453,3.195,6.1238,43.6561,0.2953,0.0889,-0.4684,149.5001
17:18:13:809,-0.3721,3.1472,5.9587,43.6905,0.3486,0.0559,-0.5558,149.5001
17:18:13:829,-0.7579,3.2213,6.1238,43.6078,0.2644,0.0613,-0.6186,149.5001
17:18:13:850,-1.2275,3.3511,6.6939,43.4565,0.0887,-0.0506,-0.5952,149.5001
17:18:13:869,-1.2084,3.387,7.602,43.3323,-0.1296,-0.2178,-0.4482,149.5001
17:18:13:890,-1.1216,3.4253,9.0251,43.2442,-0.3714,-0.3297,-0.2598,149.5001
17:18:13:910,-1.0786,3.3416,11.2744,43.0493,-0.5342,-0.3457,-0.0606,149.5001
17:18:13:930,-1.0283,3.3488,12.539,42.8972,-0.3511,-0.1582,0.1514,149.5001
17:18:13:951,-0.9972,3.3081,12.5892,42.7635,0.0281,0.0016,0.276,149.5001
17:18:13:970,-1.0187,3.073,12.7454,42.5884,0.1654,0.0154,0.3122,149.5001
17:18:13:990,-1.1671,2.6895,13.7055,42.5082,0.0419,0.073,0.3304,149.5001
17:18:14:047,-1.596,2.6895,14.266,42.5774,0.0334,0.3061,0.4165,149.5001
17:18:14:050,-1.541,3.0156,13.5978,42.4981,0.3209,0.5596,0.6317,149.5001
17:18:14:052,-1.34,3.1759,12.0455,42.6598,0.681,0.6619,0.784,149.5001
17:18:14:072,-1.5194,3.1974,11.0441,42.4433,0.782,0.5692,0.7861,149.5001
17:18:14:090,-1.6463,3.2453,10.7426,42.199,0.7799,0.3477,0.7915,149.5001
17:18:14:112,-1.5051,3.667,9.9015,42.005,0.9833,0.0559,0.8138,149.385
17:18:14:134,-1.0475,4.0098,8.5938,41.898,1.0632,-0.1529,0.7116,149.2421
17:18:14:154,-0.6018,3.7005,7.5135,41.5694,0.6309,-0.237,0.4506,149.0723
17:18:14:174,-0.3529,2.8074,7.9472,41.4557,-0.2403,-0.2924,0.128,148.8799
17:18:14:193,-0.2668,1.5709,9.5402,41.1851,-1.0849,-0.3084,-0.1,148.6742
17:18:14:214,-0.1902,0.3661,10.7689,41.3138,-1.3916,-0.2679,-0.1703,148.4661
17:18:14:233,-0.2142,0.0885,10.8933,41.1454,-1.1105,-0.1337,-0.0936,148.2655
17:18:14:255,-0.2979,0.4881,9.6168,41.185,-0.5024,0.0953,0.0885,148.0759
17:18:14:274,-0.1591,1.1904,7.7504,41.2168,0.1047,0.2497,0.3208,147.8948
17:18:14:294,0.3368,1.9113,5.9372,41.0121,0.502,0.2763,0.4911,147.7159
17:18:14:314,0.4953,2.7446,4.8209,41.2879,0.5861,0.1868,0.4623,147.5287
17:18:14:334,0.4014,3.1376,4.7109,41.1383,0.3795,-0.0069,0.2451,147.3293
17:18:14:354,0.2124,3.1161,5.4126,41.2309,0.1111,-0.1763,-0.0073,147.1184
17:18:14:374,-0.2285,3.0562,6.256,41.1831,-0.0284,-0.2296,-0.2225,146.903
17:18:14:394,-0.6042,2.6393,6.9434,41.2207,-0.0582,-0.2786,-0.3822,146.6907
17:18:14:414,-0.7077,2.3043,8.1171,41.1668,-0.0518,-0.4309,-0.4013,146.4898
17:18:14:434,-0.2788,2.4383,9.0347,41.0671,0.0281,-0.4437,-0.2736,146.3064
17:18:14:454,-0.262,3.0323,9.6263,41.108,0.1526,-0.1656,-0.2055,146.1404
17:18:14:474,-0.655,3.6311,10.3448,40.8745,0.1963,0.2145,-0.2577,145.9857
17:18:14:494,-1.5147,4.0552,10.5583,40.7166,0.192,0.4403,-0.3747,145.8403
17:18:14:514,-1.9914,4.0146,10.9866,40.3657,0.0654,0.288,-0.4748,145.7058
17:18:14:535,-1.7904,3.9547,12.1394,40.1388,-0.2073,-0.0847,-0.4588,145.5854
17:18:14:555,-1.1964,3.9547,13.9382,40.0243,-0.4747,-0.3915,-0.38,145.4817
17:18:14:575,-0.722,3.1137,14.7308,39.8618,-0.5843,-0.4277,-0.347,145.4817
17:18:14:595,-0.8345,1.8251,14.5083,39.7743,-0.58,-0.2604,-0.2937,145.4817
17:18:14:615,-0.6353,0.5073,15.0927,39.7846,-0.6077,-0.1465,-0.0478,145.4817
17:18:14:636,0.1406,-0.015,15.3924,39.8575,-0.3277,-0.024,0.3707,145.4817
17:18:14:655,0.9236,0.1316,12.9344,40.1227,0.4956,0.0293,0.6051,145.4817
17:18:14:675,1.8365,0.7017,9.3817,40.452,1.1421,-0.1987,0.5592,145.4817
17:18:14:696,2.8235,1.5398,7.3047,40.4629,0.9205,-0.4735,0.343,145.3907
17:18:14:717,2.9097,1.6355,6.9673,40.5716,0.1079,-0.3648,-0.035,145.2842
17:18:14:736,1.8628,1.4034,7.2353,40.6451,-0.6375,0.1442,-0.3896,145.1695
17:18:14:756,0.7657,1.389,7.0558,40.6554,-0.8985,0.6289,-0.5345,145.0602
17:18:14:777,0.2602,1.2144,6.7657,40.4546,-0.808,0.731,-0.559,144.969
17:18:14:797,0.131,1.5326,6.9506,40.6669,-0.5534,0.533,-0.5228,144.969
17:18:14:816,0.2171,1.9543,7.1061,40.545,-0.1146,0.2145,-0.4929,144.969
17:18:14:837,0.1956,2.601,6.3852,40.5458,0.4434,0.0282,-0.5057,144.969
17:18:14:858,0.0616,3.1567,5.5155,40.6906,0.7671,0.0538,-0.5707,144.969
17:18:14:878,-0.3817,3.2046,5.0937,40.6896,0.7192,0.1346,-0.6953,144.969
17:18:14:897,-1.1192,2.9557,5.671,40.6217,0.4668,0.1186,-0.7635,144.969
17:18:14:918,-1.7713,2.6943,6.4618,40.6981,0.2612,0.0368,-0.6655,144.969
17:18:14:938,-2.0991,2.8146,6.9649,40.8572,0.1324,-0.0421,-0.4343,144.969
17:18:14:958,-1.9244,3.1615,7.7121,40.4958,-0.0411,-0.0943,-0.1107,144.969
17:18:14:979,-1.3902,3.7005,9.1089,40.7026,-0.2435,-0.1742,0.1908,145.0672
17:18:15:000,-0.7675,4.2108,10.6875,40.3914,-0.3309,-0.2754,0.3526,145.1619
17:18:15:019,-0.2883,4.5009,12.1849,40.363,-0.2883,-0.3648,0.3144,145.1619
17:18:15:038,-0.1011,4.1629,13.4662,40.2947,-0.2499,-0.3521,0.1344,145.1619
17:18:15:059,-0.4271,3.6,14.4102,40.3133,-0.2318,-0.0985,-0.0116,145.1619
17:18:15:079,-1.0068,3.262,14.8463,40.192,-0.1264,0.2731,0.0001,145.1619
17:18:15:100,-1.5051,2.9222,14.1679,40.303,0.1206,0.5831,0.0885,145.1619
17:18:15:119,-2.0321,2.4311,12.9033,40.4297,0.3699,0.6214,0.1301,145.1619
17:18:15:140,-2.5113,2.1362,12.079,40.2081,0.5233,0.3764,0.1578,145.1619
17:18:15:160,-2.8851,2.1027,10.4812,40.4458,0.6873,0.1623,0.2089,145.1619
17:18:15:180,-2.6501,1.995,8.4359,40.4709,0.665,0.0314,0.2867,145.1619
17:18:15:201,-2.2044,1.9687,7.873,40.5894,0.1366,-0.1646,0.36,145.1619
17:18:15:221,-1.4166,1.7964,8.6225,40.8331,-0.58,-0.2509,0.4442,145.1619
17:18:15:241,-0.8177,1.6164,8.7972,40.9399,-0.9113,-0.1198,0.5017,145.1619
17:18:15:261,-0.5061,1.5948,8.1936,41.0504,-0.8506,0.0016,0.5145,145.1619
17:18:15:282,-0.408,1.7773,7.4249,41.2109,-0.7153,-0.0495,0.523,145.1619
17:18:15:301,-0.1376,2.0381,7.614,41.4332,-0.6833,-0.2679,0.5475,145.068
17:18:15:322,0.4834,1.9184,8.4526,41.6862,-0.5843,-0.5117,0.5166,144.9549
17:18:15:341,0.5791,1.7294,8.7948,41.9687,-0.235,-0.5841,0.3718,144.8209
17:18:15:362,0.0832,1.8586,8.2917,42.2041,0.1824,-0.3648,0.2334,144.6686
17:18:15:382,-0.4319,1.9519,7.4249,42.4749,0.4019,0.024,0.1695,144.507
17:18:15:402,-0.9398,2.0644,6.8118,42.9381,0.4274,0.3317,0.1589,144.3393
17:18:15:422,-1.4764,2.1912,6.7155,43.2894,0.3294,0.4734,0.1631,144.1674
17:18:15:442,-1.9077,2.5196,7.0487,43.4582,0.175,0.5064,0.1759,143.9932
17:18:15:463,-1.7976,2.7446,8.0453,43.6574,-0.0465,0.4947,0.2174,143.8158
17:18:15:483,-1.0977,3.0203,9.1878,43.5953,-0.1839,0.4201,0.2505,143.6342
17:18:15:503,-0.1639,3.2596,10.2634,43.6488,-0.1274,0.1016,0.1312,143.447
17:18:15:524,0.0544,2.8816,11.2433,43.8406,-0.0699,-0.4533,-0.2736,143.2526
17:18:15:544,-0.0748,1.7486,12.8148,43.8936,-0.2318,-0.974,-0.6975,143.0565
17:18:15:565,-0.1328,0.2776,14.5298,43.7138,-0.4555,-1.1125,-0.8636,142.8729
17:18:15:584,-0.4295,-0.1394,15.8859,43.4672,-0.4225,-0.8217,-0.7539,142.7178
17:18:15:604,-0.3769,0.7567,15.6963,43.6699,0.0302,-0.2849,-0.3651,142.6001
17:18:15:624,0.1382,1.7103,12.7525,43.7332,0.7458,0.2635,0.0044,142.6001
17:18:15:645,0.6724,2.4957,10.3687,44.0736,1.0366,0.4084,0.0875,142.6001
17:18:15:664,0.4642,2.8026,9.9015,44.2661,0.8054,0.2731,-0.0425,142.6001
17:18:15:684,-0.1424,2.5819,9.2788,44.1661,0.6714,0.1794,-0.1756,142.6001
17:18:15:705,-0.3673,2.0979,7.4895,43.8543,0.682,0.0197,-0.2374,142.6001
17:18:15:725,-0.1543,1.7438,6.7759,43.9109,0.2815,-0.3382,-0.2332,142.6001
17:18:15:745,0.7585,1.3364,7.8945,44.0776,-0.5832,-0.6065,-0.1447,142.6001
17:18:15:765,1.4674,0.7735,9.7603,44.0098,-1.3458,-0.4905,-0.1202,142.6001
17:18:15:785,1.3525,0.4044,11.1619,44.1011,-1.4885,-0.1209,-0.1916,142.6001
17:18:15:805,0.7059,0.5312,10.946,44.043,-0.8687,0.2039,-0.2268,142.6001
17:18:15:825,0.2722,1.456,8.8786,44.3107,0.176,0.3306,-0.1405,142.6001
17:18:15:845,0.3703,2.1051,6.2656,44.5363,0.9343,0.3317,-0.0734,142.6001
17:18:15:865,0.3057,2.8935,4.7396,44.8277,0.9578,0.3775,-0.149,142.6001
17:18:15:886,-0.1639,3.3799,5.1948,45.0356,0.3848,0.4851,-0.3427,142.6001
17:18:15:906,-0.5611,2.9557,6.548,45.0714,-0.0806,0.566,-0.5142,142.6001
17:18:15:926,-0.9398,2.7643,7.2257,45.1233,0.0302,0.4371,-0.5643,142.6001
17:18:15:946,-0.8871,2.8935,6.9075,45.1598,0.4051,0.1314,-0.5196,142.6001
17:18:15:966,-0.7364,3.0754,6.8596,45.263,0.5339,-0.2146,-0.4908,142.6001
17:18:15:987,-0.7316,3.0658,7.4847,45.2153,0.3401,-0.3861,-0.4514,142.6001
17:18:16:012,-0.9924,3.4397,9.2405,45.2562,0.0505,-0.3659,-0.3087,142.6001
17:18:16:027,-0.8536,3.9021,10.8168,45.3574,0.0196,-0.2466,-0.0553,142.6001
17:18:16:072,-0.2309,4.5631,10.9436,45.3564,0.3188,-0.1358,0.1652,142.6001
17:18:16:074,0.7202,4.5966,10.9699,45.497,0.4828,-0.2253,0.1344,142.6001
17:18:16:087,0.8471,4.1629,12.4026,45.603,0.2666,-0.3478,-0.1266,142.6001
17:18:16:110,-0.1543,3.6838,13.8832,45.623,0.0951,-0.0783,-0.3321,142.6001
17:18:16:132,-1.4046,3.722,13.9238,45.7045,0.2687,0.4659,-0.2619,142.6001
17:18:16:152,-2.2379,3.6814,12.2016,45.4849,0.5435,0.943,-0.0787,142.6001
17:18:16:170,-2.461,3.207,11.4419,45.3747,0.5265,0.8812,0.0459,142.6001
17:18:16:191,-1.5864,2.8337,12.8315,45.2507,0.4775,0.2593,0.2505,142.6001
17:18:16:210,-1.124,3.14,12.2758,45.2351,0.9248,-0.025,0.3515,142.6001
17:18:16:230,-1.9268,3.3631,9.6574,45.3663,1.3507,0.125,0.1727,142.6001
17:18:16:251,-2.7171,3.0826,7.2425,45.3725,1.1016,0.3104,-0.002,142.6001
17:18:16:272,-3.134,2.6154,6.5982,45.3851,0.2506,0.3125,0.0225,142.6001
17:18:16:294,-2.5017,2.0142,7.547,45.26,-0.6652,0.2145,0.2611,142.6001
17:18:16:312,-1.6056,1.7677,8.6728,45.4591,-1.1052,0.1378,0.5305,142.6001
17:18:16:332,-0.6861,2.0166,8.8666,45.6354,-0.939,0.0613,0.7329,142.6001
17:18:16:351,0.3894,2.5819,8.0166,45.8727,-0.4374,-0.1166,0.8724,142.6001
17:18:16:370,1.5278,2.9892,6.9817,45.9476,-0.0422,-0.2658,0.8586,142.6001
17:18:16:391,1.7336,3.2548,6.3661,45.9434,0.0377,-0.1742,0.6434,142.6001
17:18:16:410,0.469,3.0419,5.9898,46.1716,-0.0614,0.1037,0.2846,142.489
17:18:16:432,-0.9924,2.6297,5.6734,46.2165,-0.1594,0.3679,0.0395,142.3562
17:18:16:451,-1.7085,2.254,5.5872,46.4637,-0.2126,0.418,0.0619,142.214
17:18:16:471,-1.8455,2.5484,5.9946,46.544,-0.2425,0.2923,0.2036,142.0681
17:18:16:492,-1.8191,3.1256,6.9075,46.7038,-0.3075,0.1815,0.2792,141.9179
17:18:16:511,-1.9316,3.5426,7.4943,46.8982,-0.2734,0.173,0.259,141.7574
17:18:16:532,-2.0273,3.8423,8.0118,47.1098,-0.1381,0.0943,0.2526,141.5834
17:18:16:554,-1.7761,4.0624,8.8211,47.3654,-0.0656,-0.0282,0.3197,141.3977
17:18:16:575,-1.2156,4.3352,9.8776,47.5545,-0.169,0.0037,0.3909,141.2
17:18:16:596,-0.7507,4.6588,10.7761,47.5424,-0.332,0.1037,0.36,140.9901
17:18:16:615,-0.3314,4.3376,11.8756,47.7498,-0.4502,-0.0005,0.1652,140.7651
17:18:16:635,-0.4032,3.6,13.5954,47.7932,-0.5226,-0.2658,-0.1288,140.5266
17:18:16:656,-0.7412,2.6847,14.5418,47.9557,-0.415,-0.384,-0.2937,140.2825
17:18:16:675,-0.8728,2.6776,14.7882,48.1091,-0.1423,-0.3542,-0.1948,140.0448
17:18:16:694,0.4594,2.1697,13.5021,48.3478,0.1089,-0.1752,0.0129,139.823
17:18:16:717,1.4991,1.4225,13.0229,48.4931,0.127,-0.0676,0.0214,139.614
17:18:16:736,1.3047,1.142,12.8291,48.783,0.1111,0.1623,-0.0467,139.4123
17:18:16:756,0.6676,1.6259,10.6995,48.9249,0.4391,0.549,-0.0084,139.2186
17:18:16:776,0.2865,2.1458,7.8467,48.8812,0.7011,0.615,0.0214,139.0338
17:18:16:794,0.399,2.1314,6.1478,48.7984,0.437,0.2422,-0.0308,138.8555
17:18:16:813,0.6508,2.0883,6.4618,48.8442,-0.2105,-0.2391,-0.1437,138.6832
17:18:16:835,0.387,1.7533,7.602,49.049,-0.8218,-0.4682,-0.3001,138.5155
17:18:16:856,-0.1783,1.2048,8.6393,48.9075,-1.086,-0.4415,-0.4312,138.3545
17:18:16:879,-0.6957,0.807,8.7613,48.9678,-0.955,-0.2807,-0.4248,138.2036
17:18:16:895,-0.6909,0.9027,8.2606,48.8817,-0.5843,-0.1795,-0.2587,138.0699
17:18:16:915,-0.0772,1.5517,7.4871,49.2649,-0.1658,-0.2072,-0.0489,137.9535
17:18:16:935,0.2291,2.4,6.8189,49.3948,0.1121,-0.1678,-0.002,137.8487
17:18:16:957,0.2219,3.0562,6.0497,49.7788,0.2346,0.0016,-0.0883,137.7464
17:18:16:977,0.1908,3.533,5.7434,49.9567,0.2293,0.1208,-0.2076,137.6452
17:18:16:996,0.1813,3.6598,5.6638,49.8808,0.1547,0.1527,-0.3289,137.5488
17:18:17:016,-0.0293,3.6957,5.796,50.0483,0.0292,0.1858,-0.4429,137.5488
17:18:17:035,-0.2835,3.6168,6.5121,50.171,-0.1679,0.2081,-0.477,137.5488
17:18:17:057,-0.341,3.6287,7.4704,50.4512,-0.3288,0.2113,-0.4205,137.5488
17:18:17:077,-0.396,3.7436,8.4718,50.2788,-0.4406,0.2316,-0.3342,137.5488
17:18:17:098,-0.7053,3.7747,10.1151,50.4941,-0.5152,0.1996,-0.2555,137.5488
17:18:17:118,-0.7149,3.6024,11.6195,50.594,-0.3064,0.0431,-0.1884,137.5488
17:18:17:137,-0.7651,3.8082,11.5113,50.8238,0.1451,-0.0336,-0.1948,137.5488
17:18:17:157,-1.1503,3.5545,11.4873,50.9974,0.2165,-0.0272,-0.315,137.5488
17:18:17:178,-1.8215,2.7978,12.7837,51.1206,-0.1562,0.0794,-0.412,137.5488
17:18:17:198,-2.54,2.3043,13.9837,51.318,-0.4236,0.3008,-0.3385,137.5488
17:18:17:217,-2.5591,2.2152,13.998,51.5757,-0.3437,0.5117,-0.0744,137.5488
17:18:17:240,-2.1637,1.9376,13.2437,52.0212,-0.1487,0.5053,0.1035,137.5488
17:18:17:258,-1.6822,1.456,13.2509,52.1953,-0.0326,0.2582,0.0949,137.5488
17:18:17:277,-1.718,1.7773,13.0229,52.2852,0.2559,0.0975,0.1141,137.5488
17:18:17:298,-1.7665,2.7398,10.8239,52.4606,0.8129,0.1442,0.2036,137.5488
17:18:17:317,-1.6822,3.4971,8.0285,52.5565,1.0015,0.1964,0.113,137.5488
17:18:17:338,-2.1876,3.3272,7.1898,52.7916,0.3326,0.0826,-0.2268,137.5488
17:18:17:358,-2.4682,2.1529,8.2846,52.9632,-0.6407,-0.0794,-0.4652,137.5488
17:18:17:379,-2.6046,0.9123,9.2357,53.178,-1.1583,-0.1869,-0.4919,137.5488
17:18:17:398,-2.6094,0.0114,9.5426,53.2806,-1.1647,-0.2913,-0.3853,137.5488
17:18:17:418,-2.4347,-0.204,9.1615,53.4761,-0.8825,-0.3883,-0.1277,137.5488
17:18:17:439,-1.8503,-0.0676,8.2702,53.8712,-0.4917,-0.4788,0.2132,137.5488
17:18:17:459,-0.7819,0.0401,7.3819,53.8277,-0.1967,-0.566,0.5028,137.5488
17:18:17:481,-0.3458,0.5958,7.6594,54.1915,-0.1786,-0.6161,0.604,137.5488
17:18:17:499,-0.3147,0.7256,8.3539,54.3272,-0.1945,-0.5012,0.5507,137.5488
17:18:17:519,-0.6018,1.3531,8.3228,54.5378,0.1068,-0.2487,0.5071,137.5488
17:18:17:541,-0.6138,1.9304,7.6187,54.6078,0.5819,-0.1379,0.5124,137.5488
17:18:17:560,-0.6209,2.5579,7.0152,54.5721,0.8907,-0.1273,0.4687,137.5488
17:18:17:580,-0.7675,2.9773,6.941,54.6485,0.9269,-0.1475,0.325,137.5488
17:18:17:600,-0.9254,2.9007,7.0439,54.6755,0.8438,-0.1955,0.1407,137.4588
17:18:17:620,-0.923,3.2985,7.9304,54.8683,0.649,-0.2636,0.0417,137.3611
17:18:17:641,-0.9135,3.8058,9.1807,54.6977,0.4083,-0.2093,0.0108,137.2618
17:18:17:661,-1.1216,4.0696,10.2634,54.8763,0.2218,0.0165,-0.0553,137.1626
17:18:17:681,-1.5266,4.0122,10.9819,55.0065,0.0654,0.2507,-0.1213,137.065
17:18:17:701,-1.8814,3.4301,11.6387,54.9303,-0.0933,0.1868,-0.1437,136.9695
17:18:17:721,-1.4668,2.5436,12.9631,54.8524,-0.2254,-0.2679,-0.0595,136.8777
17:18:17:741,-0.53,1.9184,14.8558,54.956,-0.2031,-0.6672,0.1397,136.8777
17:18:17:762,0.2626,1.8682,14.8869,55.1285,0.1505,-0.5458,0.3515,136.8777
17:18:17:782,0.9117,1.7821,13.0684,55.2852,0.5584,-0.1923,0.3931,136.8777
17:18:17:803,0.9817,0.984,12.8339,55.6045,0.4274,0.0186,0.2462,136.7852
17:18:17:822,0.4499,0.6054,13.1689,55.6251,0.2389,0.2859,0.2004,136.6862
17:18:17:842,0.3129,0.6054,11.5591,55.8101,0.6085,0.3924,0.2782,136.588
17:18:17:862,0.4642,0.8142,9.1567,56.1264,0.9514,0.1943,0.2899,136.4909
17:18:17:883,0.9212,1.4177,7.8389,56.4329,0.6533,-0.025,0.2547,136.3936
17:18:17:902,1.2209,1.5637,7.7886,56.4605,-0.0209,-0.0826,0.1397,136.2947
17:18:17:923,1.0415,1.3938,8.0453,56.5227,-0.5704,0.1293,-0.0073,136.1925
17:18:17:943,0.4738,1.4871,7.724,56.7414,-0.7281,0.4616,-0.0595,136.0915
17:18:17:964,0.1884,1.6738,6.7807,56.7972,-0.5374,0.6012,-0.0382,135.9952
17:18:17:984,0.1238,1.9137,5.7529,57.0485,-0.2137,0.4063,-0.0478,135.905
17:18:18:005,0.2674,2.266,5.3288,56.9876,0.027,-0.0037,-0.0925,135.905
17:18:18:024,0.3799,2.668,5.391,57.1169,0.1238,-0.3148,-0.1778,135.905
17:18:18:044,0.2363,2.9797,5.7482,57.2183,0.1142,-0.2839,-0.2767,135.905
17:18:18:098,-0.1639,3.3129,5.8032,57.378,0.0823,0.0708,-0.314,135.905
17:18:18:100,-0.5611,4.0002,5.5872,57.5497,0.0844,0.4403,-0.2513,135.905
17:18:18:106,-0.5396,4.9274,5.4628,57.5441,0.0324,0.5032,-0.1554,135.905
17:18:18:124,0.0449,5.5741,6.1932,57.8415,-0.1573,0.2369,-0.1234,135.905
17:18:18:144,0.2387,5.5956,7.6475,57.8559,-0.4566,-0.0229,-0.2385,135.905
17:18:18:166,-0.0126,4.8861,9.8178,58.0224,-0.6759,-0.1252,-0.4152,135.905
17:18:18:185,-0.4774,4.0361,11.7799,58.044,-0.5832,-0.1017,-0.4855,135.905
17:18:18:206,-0.9972,3.2812,12.9153,58.1,-0.2116,-0.0229,-0.4375,135.905
17:18:18:226,-1.3639,2.8193,13.2197,58.2012,0.1483,0.0421,-0.3172,135.905
17:18:18:248,-1.2778,2.5771,13.5236,58.1909,0.2144,0.1463,-0.1362,135.905
17:18:18:266,-1.9053,2.8983,13.8808,58.2704,0.1579,0.3807,0.047,135.905
17:18:18:286,-2.4108,3.7771,13.0852,58.1946,0.2676,0.6917,0.3101,135.905
17:18:18:306,-1.9125,4.2491,11.6387,58.3589,0.3859,0.6917,0.5358,135.905
17:18:18:327,-1.4836,3.883,11.5854,58.5359,0.1579,0.2933,0.4122,135.905
17:18:18:347,-1.9029,2.9342,12.3188,58.336,-0.1477,-0.041,0.0694,135.905
17:18:18:367,-2.607,1.5876,12.0766,58.3421,-0.1487,-0.1688,-0.1948,135.905
17:18:18:387,-3.2177,0.2417,11.013,58.6247,-0.0603,-0.2573,-0.2491,135.905
17:18:18:408,-3.1268,-0.2662,10.4261,58.6409,-0.1786,-0.3329,-0.034,135.905
17:18:18:428,-2.0249,0.0736,10.0098,58.5242,-0.3341,-0.2658,0.3345,135.905
17:18:18:447,-1.0187,0.7759,9.1328,58.6829,-0.3149,-0.0123,0.5124,135.905
17:18:18:467,-0.8943,1.3196,7.6642,58.7331,-0.2201,0.2539,0.4208,135.905
17:18:18:487,-1.0594,1.5135,6.2824,58.7912,-0.218,0.2997,0.275,135.905
17:18:18:508,-0.8943,1.3962,5.7793,59.1753,-0.349,0.0666,0.1993,135.905
17:18:18:528,-0.8154,1.1976,6.1573,59.3811,-0.4875,-0.2242,0.194,135.905
17:18:18:549,-0.8632,0.8859,6.9721,59.2303,-0.463,-0.3957,0.3005,135.905
17:18:18:569,-0.3601,0.8692,7.1755,59.3994,-0.1647,-0.4533,0.5102,135.905
17:18:18:589,0.0233,1.5613,6.658,59.7509,0.2304,-0.4224,0.6498,135.905
17:18:18:610,-0.0604,2.1482,6.0592,59.6196,0.371,-0.2977,0.5955,135.905
17:18:18:630,-0.0532,2.2181,6.1765,59.5842,0.176,-0.1603,0.4644,135.8034
17:18:18:649,-0.262,2.2708,7.0295,59.5566,-0.0869,-0.1007,0.3165,135.6877
17:18:18:670,-0.4367,2.129,8.4933,59.3161,-0.2169,-0.1656,0.1855,135.5624
17:18:18:689,-0.5611,2.0309,9.9709,59.275,-0.1061,-0.2711,0.1035,135.4343
17:18:18:711,-0.7029,2.5675,10.5679,59.4051,0.2389,-0.2562,0.0768,135.3059
17:18:18:731,-1.1432,3.5402,10.0696,59.3967,0.5222,-0.1284,0.0332,135.1801
17:18:18:751,-1.34,4.2347,9.7412,59.3018,0.3912,-0.1241,-0.0617,135.0588
17:18:18:772,-1.1288,4.0074,10.5392,59.7346,-0.1455,-0.302,-0.1937,134.9412
17:18:18:791,-0.7819,2.9581,12.484,59.9055,-0.7153,-0.4778,-0.3161,134.8307
17:18:18:812,-0.6425,2.4263,14.1894,60.0617,-0.9166,-0.3308,-0.2895,134.7303
17:18:18:832,-0.2357,2.2875,13.7731,60.0163,-0.7121,0.0229,-0.1607,134.7303
17:18:18:851,0.6197,1.4249,13.6217,60.0873,-0.6269,0.0719,-0.1245,134.7303
17:18:18:872,1.1683,0.2752,14.9324,60.0423,-0.7015,-0.0858,-0.1565,134.7303
17:18:18:892,1.2042,-0.609,15.6317,60.2053,-0.3554,-0.1795,-0.1831,134.7303
17:18:18:912,0.9577,-1.0259,13.2365,60.2469,0.4913,-0.1156,-0.133,134.7303
17:18:18:933,1.3717,-0.4289,10.6421,60.1121,0.9791,-0.1593,-0.0116,134.7303
17:18:18:954,1.7623,0.3398,9.5641,59.8546,0.7256,-0.2093,-0.0063,134.7303
17:18:18:974,1.4602,0.7041,8.5531,60.071,0.3241,0.0218,-0.1884,134.7303
17:18:18:995,0.6987,0.7854,7.5565,59.9655,0.0409,0.2348,-0.4226,134.7303
17:18:19:014,0.0329,0.7854,7.4967,59.8414,-0.284,0.2273,-0.5686,134.7303
17:18:19:034,-0.3194,0.9864,7.6499,59.5456,-0.4204,0.2145,-0.5483,134.7303
17:18:19:054,-0.3553,1.3603,7.2425,59.5463,-0.2382,0.3125,-0.4194,134.7303
17:18:19:074,-0.2692,1.7581,6.2536,59.2412,0.0929,0.4031,-0.2895,134.7303
17:18:19:094,-0.2142,2.2851,5.1781,59.1067,0.3816,0.3487,-0.2097,134.8281
17:18:19:114,-0.1783,2.9486,4.4758,59.1045,0.5137,0.1293,-0.214,134.9341
17:18:19:134,-0.207,3.1615,4.6265,58.8966,0.4232,-0.1518,-0.3001,135.0441
17:18:19:154,-0.1639,3.0921,5.2092,58.8223,0.1995,-0.2967,-0.3683,135.1581
17:18:19:174,-0.082,3.0754,5.9946,58.9586,-0.0411,-0.2562,-0.3651,135.2795
17:18:19:194,-0.0843,3.0395,7.3579,58.82,-0.2808,-0.1593,-0.3268,135.4096
17:18:19:214,-0.2644,2.9294,9.408,58.7962,-0.4118,-0.1582,-0.281,135.5481
17:18:19:234,-0.4223,3.0275,10.8885,58.8776,-0.284,-0.1656,-0.1927,135.6925
17:18:19:254,-0.6837,3.5569,11.5089,58.7748,-0.0103,-0.0602,-0.0435,135.8418
17:18:19:275,-0.6957,3.7627,12.2423,58.3046,0.1547,0.0613,0.1035,135.9936
17:18:19:295,-0.1184,3.5737,12.8507,58.379,0.1877,0.1538,0.1993,136.1422
17:18:19:316,0.5121,3.3894,13.5787,58.3558,0.1249,0.1815,0.1631,136.282
17:18:19:334,0.2794,3.2285,14.3647,58.0987,0.0483,0.2529,0.0268,136.4115
17:18:19:356,-0.4822,3.3894,14.1703,58.0232,0.1505,0.4233,-0.0265,136.5347
17:18:19:374,-1.0666,3.2501,12.9129,57.9249,0.323,0.4521,-0.0126,136.655
17:18:19:395,-1.3017,2.6249,12.743,57.8763,0.2996,0.1612,-0.0084,136.7729
17:18:19:415,-1.273,2.0931,13.078,57.5978,0.3102,-0.0868,-0.0095,136.8878
17:18:19:434,-1.9029,1.6762,11.7559,57.9333,0.6149,-0.0389,-0.0574,137.0005
17:18:19:455,-2.6955,1.4847,9.6861,57.7904,0.8299,0.0676,-0.1107,137.1111
17:18:19:475,-3.3278,1.2766,8.1099,57.5113,0.6032,0.025,-0.0617,137.2224
17:18:19:498,-2.9713,0.8405,7.8802,57.5539,0.0951,-0.2338,0.1322,137.3351
17:18:19:515,-1.9316,0.5767,8.5268,57.7005,-0.3181,-0.5415,0.3803,137.445
17:18:19:538,-1.0283,0.2776,9.1256,57.516,-0.4097,-0.7066,0.5156,137.5435
17:18:19:560,-0.5133,0.3565,8.6178,57.4633,-0.1221,-0.7003,0.5806,137.5435
17:18:19:577,-0.195,0.8716,7.0415,57.4466,0.2985,-0.5767,0.6636,137.5435
17:18:19:601,0.052,1.4632,5.7529,57.0435,0.4722,-0.5437,0.7031,137.5435
17:18:19:619,0.4427,1.9472,5.3958,56.9711,0.306,-0.5469,0.6956,137.5435
17:18:19:639,0.8949,2.4885,5.6566,56.9213,0.043,-0.4075,0.6594,137.5435
17:18:19:659,1.0247,2.9198,5.9324,56.7594,-0.1093,-0.1294,0.539,137.5435
17:18:19:680,0.8566,3.1448,5.6064,56.5947,-0.1264,0.2294,0.3771,137.5435
17:18:19:701,0.3368,3.3655,5.324,56.3871,-0.136,0.4478,0.1834,137.5435
17:18:19:719,-0.2572,3.3344,5.592,56.2926,-0.1999,0.3466,-0.0063,137.5435
17:18:19:738,-0.6718,3.2022,6.323,56.2791,-0.2691,0.0144,-0.1149,137.4474
17:18:19:760,-0.7866,3.2022,7.5135,56.5032,-0.3575,-0.3052,-0.1192,137.3535
17:18:19:780,-1.002,2.9868,10.1007,56.4965,-0.4822,-0.6118,-0.116,137.3535
17:18:19:800,-0.9254,2.3809,12.5151,56.6217,-0.3841,-0.8366,-0.0851,137.3535
17:18:19:821,-0.6742,2.6704,12.9464,56.4244,-0.0017,-0.7184,0.0864,137.3535
17:18:19:840,0.1693,2.9988,12.6203,56.2813,0.1228,-0.6055,0.2675,137.3535
17:18:19:861,1.5326,2.9581,13.4279,56.2804,-0.202,-0.6459,0.3261,137.3535
17:18:19:881,2.4879,2.8768,14.9492,56.0421,-0.5162,-0.6417,0.276,137.3535
17:18:19:900,2.9671,3.1711,15.1956,56.1399,-0.4118,-0.3457,0.2217,137.2563
17:18:19:920,3.3721,3.0897,13.9358,56.1208,-0.1317,0.0985,0.1322,137.1586
17:18:19:940,3.5779,2.2851,13.809,55.7842,-0.1636,0.3274,-0.0947,137.0626
17:18:19:960,3.2477,1.3771,13.8377,55.8362,-0.1999,0.5746,-0.3214,136.9705
17:18:19:980,2.3611,0.3063,12.6299,55.9704,0.1079,0.7576,-0.4908,136.9705
17:18:20:000,1.6594,-0.4313,10.544,56.129,0.453,0.6502,-0.5909,136.9705
17:18:20:021,1.3884,-0.4869,9.5402,56.0765,0.4019,0.2784,-0.5494,136.9705
17:18:20:044,1.547,-0.405,9.3171,55.9792,0.026,0.0783,-0.4365,136.9705
17:18:20:064,1.331,-0.0604,8.8977,56.0482,-0.2819,0.3264,-0.3459,136.9705
17:18:20:114,0.7705,0.3087,8.3976,55.954,-0.3671,0.6321,-0.2736,136.9705
17:18:20:116,0.469,0.728,7.5613,56.1075,-0.1924,0.7077,-0.1575,136.9705
17:18:20:127,0.5815,1.3627,6.3589,56.0308,0.159,0.5607,-0.035,136.9705
17:18:20:144,0.8088,2.0477,5.1709,56.1181,0.4849,0.2901,-0.0244,136.9705
17:18:20:161,0.7131,2.4837,4.4997,55.8141,0.681,-0.0517,-0.165,136.9705
17:18:20:181,0.4187,2.601,3.8937,55.8047,0.7948,-0.2988,-0.3513,136.9705
17:18:20:203,0.1478,2.9462,3.3332,55.8574,0.7756,-0.3073,-0.4471,136.9705
17:18:20:223,0.0497,3.3559,3.2566,55.6446,0.4732,-0.0921,-0.4738,137.0659
17:18:20:242,-0.2213,3.6718,3.9464,55.5947,-0.1221,0.3381,-0.4865,137.1728
17:18:20:262,-0.5563,3.8614,5.4628,55.4342,-0.7078,0.5671,-0.4493,137.291
17:18:20:283,-0.3721,3.883,7.8706,55.1624,-0.9678,0.1815,-0.363,137.4208
17:18:20:302,-0.0891,3.5641,10.7474,54.9127,-0.9241,-0.3233,-0.2905,137.5609
17:18:20:324,-0.1735,3.3368,13.066,54.9925,-0.6162,-0.3318,-0.1501,137.7067
17:18:20:342,-0.1496,3.8177,13.7539,54.8975,-0.1146,-0.0133,0.1056,137.8575
17:18:20:364,0.4905,4.2347,13.5547,54.7503,0.2122,0.157,0.2931,138.0087
17:18:20:384,0.938,3.8853,14.2929,54.7705,0.1515,0.0453,0.2558,138.1511
17:18:20:405,0.5623,3.4325,15.1693,54.6795,0.1377,-0.0197,0.1525,138.2791
17:18:20:424,0.0185,3.7747,14.4054,54.8841,0.5158,0.1623,0.2196,138.3959
17:18:20:444,-0.2524,4.2179,12.4481,54.8882,0.8662,0.3274,0.3186,138.5056
17:18:20:464,-0.4582,4.1366,11.8134,54.5064,0.7447,0.1495,0.2505,138.6051
17:18:20:485,-0.7555,3.588,11.4754,54.2736,0.4818,-0.1582,0.0374,138.6051
17:18:20:505,-1.3017,2.8457,10.7593,54.1825,0.3273,-0.4671,-0.231,138.6051
17:18:20:527,-1.8072,1.8371,10.7569,54.0864,0.1206,-0.7556,-0.3992,138.6051
17:18:20:545,-1.9244,0.8859,11.4443,53.8034,-0.0284,-1.0337,-0.3236,138.6051
17:18:20:566,-1.1838,0.1196,11.6483,53.6525,0.0558,-1.1923,-0.0542,138.7016
17:18:20:586,-0.0102,0.0688,11.473,53.2171,0.2229,-1.0912,0.2366,138.8069
17:18:20:606,0.7178,0.4331,10.7593,53.1619,0.2293,-0.5991,0.3984,138.9122
17:18:20:625,1.0104,0.7496,9.2955,53.2673,0.2027,0.0847,0.4506,139.0092
17:18:20:646,0.6843,1.0869,7.523,53.1483,0.3284,0.5149,0.4272,139.0092
17:18:20:666,0.3153,1.5278,5.7075,53.1047,0.5616,0.5437,0.4048,139.0092
17:18:20:686,0.3129,1.9735,4.4662,53.0867,0.6936,0.2774,0.3995,139.0092
17:18:20:706,0.4786,2.2708,3.9559,52.8322,0.6383,-0.0357,0.3483,139.0092
17:18:20:726,0.5575,2.4837,4.1432,52.6795,0.4583,-0.1827,0.2526,139.0092
17:18:20:746,0.2148,2.5771,4.4327,52.6172,0.2751,-0.0911,0.1663,139.0092
17:18:20:768,-0.0437,2.5866,5.0267,52.3909,0.1537,0.0442,0.1386,139.0092
17:18:20:787,0.1262,2.7015,5.683,52.2467,0.0866,0.09,0.1599,139.0092
17:18:20:807,0.3488,3.1639,6.6317,52.2869,-0.0071,0.1538,0.1407,139.0092
17:18:20:827,0.1358,3.5904,7.8269,52.1694,-0.0795,0.1879,0.0278,139.0092
17:18:20:847,-0.2453,3.6526,8.5962,52.0418,-0.0241,0.1154,-0.1256,139.0092
17:18:20:868,-0.1663,4.328,8.5819,52.0014,0.0622,0.0421,-0.1873,139.0092
17:18:20:888,0.1621,5.1667,9.1854,51.9788,-0.2585,0.0186,-0.2937,139.0092
17:18:20:908,0.1573,4.8455,10.7043,51.8758,-0.9241,0.0602,-0.5281,139.0092
17:18:20:929,0.2219,3.6048,12.35,51.9016,-1.4523,0.1091,-0.6549,139.0092
17:18:20:949,0.7442,2.4191,14.2349,51.7385,-1.6068,0.0708,-0.5579,139.0092
17:18:20:968,1.1252,1.8993,15.1406,51.8172,-1.3532,0.0921,-0.4557,139.0092
17:18:20:988,1.4052,1.2407,14.8558,51.7126,-0.9326,0.1208,-0.4855,139.0092
17:18:21:009,1.1348,0.2345,15.0568,51.6128,-0.6546,0.0495,-0.5867,139.0092
17:18:21:029,0.3176,-0.0365,14.3982,51.8191,-0.2691,0.2305,-0.5057,139.1032
17:18:21:049,-0.2022,0.0814,11.7296,51.9465,0.2559,0.5479,-0.2332,139.22
17:18:21:070,-0.3099,0.4786,9.5282,51.9617,0.3284,0.5746,0.0481,139.355
17:18:21:089,0.3272,0.7113,9.2405,52.0954,-0.1775,0.3636,0.2675,139.496
17:18:21:109,0.6054,1.0965,9.4995,52.4192,-0.6141,0.2635,0.3451,139.6325
17:18:21:129,0.749,0.9745,10.1127,52.3116,-0.612,0.0836,0.259,139.7565
17:18:21:150,0.8566,1.0319,9.7316,52.348,-0.1349,-0.1422,0.1823,139.8659
17:18:21:170,1.0175,1.5135,8.2487,52.5886,0.4849,-0.1987,0.1674,139.9647
17:18:21:190,1.0175,2.0548,6.6891,52.806,0.8065,-0.1017,0.0971,140.0558
17:18:21:211,0.7848,2.5053,5.729,52.8084,0.7628,0.0794,-0.0542,140.0558
17:18:21:232,0.32,2.7523,5.2211,53.1249,0.5691,0.2976,-0.2118,140.0558
17:18:21:251,-0.1567,2.793,4.7037,53.082,0.3997,0.4755,-0.3097,140.0558
17:18:21:272,-0.5779,2.9725,4.483,52.9952,0.2602,0.4105,-0.3417,140.0558
17:18:21:292,-0.7053,3.0443,4.7204,52.8329,0.0929,0.1154,-0.3236,140.15
17:18:21:311,-0.5946,3.4325,5.5896,52.6113,-0.1573,-0.0389,-0.2385,140.2501
17:18:21:332,-0.5994,3.7388,6.6485,52.4034,-0.4395,0.1037,-0.083,140.3544
17:18:21:352,-0.5468,4.0576,7.94,52.0556,-0.5885,0.2433,0.1237,140.4588
17:18:21:372,-0.2405,4.1007,9.5282,51.7874,-0.513,0.0613,0.2451,140.5572
17:18:21:393,-0.0796,3.7842,11.0513,51.4415,-0.3202,-0.2434,0.1887,140.5572
17:18:21:414,-0.3075,3.2333,12.594,51.532,-0.2329,-0.4043,0.0459,140.5572
17:18:21:435,-0.3864,2.5244,13.5978,51.6513,-0.2318,-0.2935,0.0129,140.5572
17:18:21:454,-0.4558,2.2469,14.4078,51.6564,-0.2883,0.0495,0.1056,140.5572
17:18:21:474,-0.5994,2.4718,15.0329,51.8065,-0.2936,0.4702,0.2686,140.5572
17:18:21:494,-0.4774,2.4814,14.4652,51.9795,-0.0784,0.7003,0.3728,140.5572
17:18:21:514,-0.679,1.9232,13.7175,52.1273,0.1718,0.5277,0.2515,140.5572
17:18:21:537,-1.4716,1.3507,13.2006,52.3586,0.3422,0.2433,0.063,140.5572
17:18:21:553,-2.2331,1.3125,12.0024,52.4994,0.5531,0.1549,0.031,140.5572
17:18:21:574,-2.4203,1.0582,10.1749,52.5331,0.584,0.1975,0.0907,140.5572
17:18:21:597,-2.4347,0.5886,9.4032,52.6701,0.176,0.1474,0.1407,140.5572
17:18:21:614,-1.8526,0.0425,10.0265,52.9121,-0.3884,-0.0613,0.2355,140.5572
17:18:21:634,-1.057,-0.2853,10.3902,52.9357,-0.6322,-0.1987,0.3579,140.5572
17:18:21:653,-0.6598,0.0281,9.4247,53.0184,-0.4875,-0.0549,0.4708,140.5572
17:18:21:674,-0.4965,0.6491,7.7049,53.2613,-0.2361,0.1602,0.5678,140.5572
17:18:21:694,-0.1615,1.1809,6.1932,53.5439,-0.0923,0.2134,0.6359,140.5572
17:18:21:715,0.0401,1.2479,5.4221,53.6967,-0.0859,0.141,0.6391,140.5572
17:18:21:734,-0.0939,1.2957,5.5226,53.7564,-0.0891,-0.0069,0.6381,140.4573
17:18:21:754,-0.1059,1.3819,5.5083,53.7927,0.0972,-0.1944,0.6839,140.3352
17:18:21:774,-0.0126,1.7533,5.0674,54.197,0.3933,-0.3457,0.7212,140.1907
17:18:21:795,-0.0843,2.1051,4.651,54.3668,0.453,-0.2636,0.6988,140.0231
17:18:21:815,-0.3625,2.4335,4.7252,54.7813,0.1888,0.041,0.6327,139.8319
17:18:21:836,-0.679,2.4861,5.4796,54.9572,-0.153,0.2039,0.5475,139.6175
17:18:21:855,-0.7196,2.4431,7.1659,55.0408,-0.4065,-0.0495,0.4762,139.3819
17:18:21:875,-0.451,2.5053,9.3817,55.1977,-0.5459,-0.5288,0.4272,139.1264
17:18:21:896,0.3751,2.6584,11.5208,55.6417,-0.5566,-0.8675,0.3675,138.8565
17:18:21:916,1.2042,2.6728,13.5452,56.171,-0.513,-0.8313,0.2409,138.5741
17:18:21:937,1.386,2.6441,14.1918,56.4001,-0.4033,-0.4213,0.0395,138.2827
17:18:21:956,1.331,2.5005,13.7055,56.7648,-0.3447,-0.0176,-0.1341,137.9903
17:18:21:976,1.2927,2.1027,13.8616,57.0267,-0.5237,0.0442,-0.2704,137.7042
17:18:21:996,1.724,1.6235,14.525,57.4821,-0.6301,-0.1624,-0.3076,137.4308
17:18:22:017,2.7159,1.3172,14.4532,57.9042,-0.4395,-0.2977,-0.2662,137.1748
17:18:22:037,3.0006,0.5073,14.0291,58.1823,-0.2414,-0.1774,-0.4067,136.9372
17:18:22:057,2.0429,-0.2542,13.7103,58.5523,-0.1636,0.2103,-0.6335,136.7175
17:18:22:077,0.6676,-0.3906,12.4816,58.6877,0.0803,0.6417,-0.674,136.5216
17:18:22:117,0.052,-0.4409,10.328,58.8559,0.3891,0.6758,-0.5643,136.3579
17:18:22:118,0.5384,-0.8124,8.9533,59.339,0.3284,0.2294,-0.4652,136.2258
17:18:22:137,1.3406,-0.8363,9.5856,59.5648,-0.2265,-0.1848,-0.4343,136.118
17:18:22:158,1.2042,-0.6832,10.4429,59.5253,-0.8058,-0.0059,-0.5057,136.118
17:18:22:178,0.3464,-0.2901,10.3663,59.6895,-0.8602,0.4403,-0.5494,136.118
17:18:22:199,-0.1131,-0.0508,9.9159,59.9261,-0.382,0.4723,-0.4493,136.118
17:18:22:219,0.2028,0.4403,8.1577,60.0254,0.4434,0.1463,-0.2342,136.118
17:18:22:239,0.6173,1.535,6.3589,60.4524,1.0792,-0.1454,-0.0531,136.118
17:18:22:260,0.8614,2.5723,5.3408,60.7609,1.157,-0.1891,0.014,136.118
17:18:22:279,1.0056,2.9198,5.4437,60.7346,0.9003,-0.0517,-0.0265,136.118
17:18:22:300,1.0415,2.9366,5.5561,60.9363,0.7106,0.1176,-0.1618,136.118
17:18:22:319,0.6604,2.8696,5.3791,61.3727,0.6543,0.1442,-0.3747,136.118
17:18:22:340,-0.0341,2.4526,5.4772,61.6419,0.5126,0.0069,-0.5643,136.118
17:18:22:359,-0.329,2.1123,6.28,61.887,0.2367,-0.1177,-0.5174,136.118
17:18:22:380,-0.2453,2.2851,7.1468,61.907,0.0015,-0.0559,-0.2905,136.118
17:18:22:400,-0.2644,2.6943,7.8778,62.2556,-0.0965,0.0943,-0.0957,136.118
17:18:22:421,-0.1711,3.1591,8.6991,62.4804,-0.1615,0.2103,0.0342,136.118
17:18:22:441,-0.2142,3.399,10.1342,62.733,-0.1956,0.2124,0.0822,136.118
17:18:22:461,-0.2477,3.4062,11.2768,62.9656,-0.1242,0.1261,0.0406,136.118
17:18:22:481,-0.384,3.128,12.6132,63.1201,0.0164,-0.0517,-0.0489,136.118
17:18:22:501,-0.6837,2.5172,14.0076,63.1958,0.2165,-0.1806,-0.1192,136.118
17:18:22:521,-1.4501,2.6967,14.5107,63.4585,0.4818,0.1389,-0.0276,136.118
17:18:22:541,-2.0776,3.1878,13.3107,63.7079,0.6298,0.8631,0.2047,136.118
17:18:22:560,-2.3103,3.1328,12.3571,63.7305,0.3827,1.3572,0.3409,136.118
17:18:22:581,-2.5208,2.8098,12.2495,63.7259,-0.0198,1.3148,0.2579,136.118
17:18:22:601,-2.8038,2.388,11.8301,64.0917,-0.1658,0.9579,0.0545,136.118
17:18:22:628,-3.0024,1.7222,11.083,64.3893,-0.1455,0.3988,-0.1778,136.118
17:18:22:642,-3.0766,0.8285,10.5823,64.5148,-0.2371,-0.1188,-0.3023,136.118
17:18:22:662,-2.5352,0.3709,9.7866,65.0297,-0.4055,-0.3137,-0.1927,136.118
17:18:22:682,-1.922,0.1412,9.1974,65.1472,-0.5885,-0.318,-0.0126,136.118
17:18:22:708,-1.4453,-0.1131,9.1113,65.5073,-0.6695,-0.3031,0.1738,136.118
17:18:22:722,-0.9374,0.1986,8.2176,65.9538,-0.4534,-0.2722,0.409,136.118
17:18:22:747,-0.4008,1.1689,6.7729,66.7219,-0.1434,-0.2732,0.6242,136.118
17:18:22:765,0.0951,1.9065,5.6638,66.9122,0.0015,-0.3265,0.6935,136.118
17:18:22:788,0.2937,2.0501,5.4772,67.1811,-0.0092,-0.4873,0.5891,136.118
17:18:22:807,0.1525,1.7821,5.7673,67.5209,-0.006,-0.6406,0.4218,136.118
17:18:22:828,-0.2812,1.6068,6.0042,67.3415,0.0792,-0.6459,0.3037,136.0182
17:18:22:847,-0.7819,1.4704,6.0592,67.6961,0.1622,-0.481,0.2494,135.9068
17:18:22:866,-1.0977,1.3077,6.0473,68.0037,0.1824,-0.3084,0.2451,135.7874
17:18:22:888,-1.2993,1.3388,6.4929,68.1164,0.0558,-0.2264,0.2611,135.6621
17:18:22:906,-1.1575,1.3388,7.4943,68.0914,-0.1509,-0.1635,0.276,135.5309
17:18:22:928,-0.9374,1.3723,9.0299,68.3349,-0.2893,-0.1316,0.2387,135.3931
17:18:22:947,-0.5659,1.7725,10.4166,68.3901,-0.2893,-0.2104,0.1184,135.2494
17:18:22:968,-0.4941,1.9735,11.8971,68.5867,-0.3714,-0.3702,-0.1628,135.1015
17:18:22:987,-1.3089,1.3292,14.1368,68.9996,-0.6684,-0.4767,-0.5078,134.9548
17:18:23:007,-1.3783,0.1364,16.2186,69.3008,-0.8112,-0.449,-0.5345,134.82
17:18:23:027,-0.0078,0.122,16.6331,69.4983,-0.4864,-0.2594,-0.1916,134.7078
17:18:23:048,0.6054,1.3172,15.2243,69.6357,-0.0486,0.2049,0.0001,134.7078
17:18:23:070,0.1406,1.6594,12.8626,69.7661,0.1111,0.7939,-0.1607,134.7078
17:18:23:088,-0.7819,1.2574,11.3007,69.9421,0.0089,0.9675,-0.347,134.7078
17:18:23:108,-1.2084,0.3087,11.6459,70.142,-0.2084,0.7566,-0.2395,134.7078
17:18:23:128,-0.6042,0.0233,11.4921,70.3634,-0.1168,0.5735,0.1716,134.7078
17:18:23:147,0.5168,0.1795,9.8273,70.4816,0.2463,0.3541,0.5188,134.7078
17:18:23:168,1.7121,0.6371,8.2917,70.6339,0.3507,-0.0591,0.5837,134.7078
17:18:23:188,2.3635,1.0271,8.2774,70.7265,-0.0497,-0.4256,0.4122,134.7078
17:18:23:209,1.6977,0.5982,9.1543,70.6922,-0.6205,-0.4192,0.0832,134.7078
17:18:23:231,0.6939,0.1125,10.0241,70.7277,-0.8857,-0.0708,-0.1032,134.7078
17:18:23:250,0.1501,0.1388,9.4008,70.802,-0.5992,0.2369,-0.0734,134.7078
17:18:23:268,0.2124,0.5384,7.7719,70.8508,-0.1264,0.255,-0.0031,134.7078
17:18:23:292,0.3009,0.8142,7.4584,70.8059,-0.0401,0.1154,-0.0553,134.7078
17:18:23:309,0.1884,0.8548,7.8174,70.9115,-0.0486,0.1794,-0.1447,134.7078
17:18:23:329,-0.058,0.9482,7.1372,70.8471,0.2666,0.3913,-0.1842,134.7078
17:18:23:349,-0.1424,1.3819,6.0879,70.8089,0.6511,0.467,-0.2055,134.7078
17:18:23:368,0.0066,1.8634,5.4461,70.9333,0.8449,0.3264,-0.2778,134.7078
17:18:23:388,-0.25,2.1936,5.4245,71.0083,0.8044,0.0559,-0.4365,134.7078
17:18:23:408,-0.4487,2.0429,6.8979,70.9764,0.5041,-0.2402,-0.5505,134.7078
17:18:23:429,-0.3649,1.8299,8.9773,71.0296,0.1398,-0.2796,-0.4919,134.7078
17:18:23:449,-0.1974,1.8443,11.5113,70.9824,-0.0976,-0.0272,-0.3182,134.7078
17:18:23:469,-0.3649,2.2128,13.8353,70.8038,-0.0933,0.4499,-0.1895,134.7078
17:18:23:489,-1.0187,2.9198,13.617,71.0365,0.3582,1.0112,-0.1192,134.7078
17:18:23:509,-1.8455,3.9165,11.7631,71.1184,0.8406,1.2232,-0.0776,134.7078
17:18:23:530,-2.26,4.5057,10.654,71.1524,0.8118,0.9941,-0.0734,134.7078
17:18:23:549,-2.4467,4.4818,11.3629,71.0249,0.5063,0.5224,-0.0659,134.8
17:18:23:570,-2.3222,4.273,12.149,70.8859,0.4668,0.09,0.0662,134.8928
17:18:23:590,-1.7133,3.9404,11.4371,70.8295,0.7639,-0.1177,0.2462,134.9851
17:18:23:610,-1.3878,3.1591,10.4644,70.8059,0.9024,-0.2604,0.2164,134.9851
17:18:23:632,-1.8742,1.6762,10.5559,70.8096,0.6266,-0.3393,-0.0329,134.9851
17:18:23:650,-2.9952,0.2967,11.4419,70.3349,0.3316,-0.4522,-0.2694,134.9851
17:18:23:671,-4.1545,-0.2925,11.6028,70.0754,0.3284,-0.4298,-0.2374,134.9851
17:18:23:692,-4.4662,0.146,10.1438,69.9221,0.5073,-0.1656,0.1184,135.0873
17:18:23:711,-3.1914,0.8931,8.3587,69.7875,0.5212,-0.0772,0.5507,135.1991
17:18:23:732,-1.4357,1.3938,7.3244,69.7145,0.2453,-0.2956,0.7212,135.3062
17:18:23:752,-0.4415,1.5206,7.5278,69.3577,-0.2276,-0.4991,0.5518,135.3062
17:18:23:773,-0.4869,1.1928,7.7169,69.2447,-0.5811,-0.3861,0.2952,135.3062
17:18:23:794,-1.0044,1.1713,7.1252,69.2988,-0.6301,-0.1145,0.2185,135.3062
17:18:23:813,-0.9637,1.2574,6.2124,69.2658,-0.5417,0.0911,0.3664,135.3062
17:18:23:834,-0.5659,1.8132,5.6877,68.9743,-0.4779,0.1495,0.5624,135.3062
17:18:23:854,-0.4056,2.4431,5.3432,69.1292,-0.4182,0.1261,0.6104,135.3062
17:18:23:874,-0.5037,2.5579,5.5274,69.2267,-0.3607,-0.0623,0.4762,135.3062
17:18:23:894,-0.8082,2.4407,6.3805,69.4846,-0.2947,-0.3872,0.3208,135.3062
17:18:23:914,-0.9517,2.2373,7.1515,69.6262,-0.1956,-0.4767,0.2824,135.3062
17:18:23:936,-1.1791,2.1817,7.7958,69.7379,-0.0859,-0.3585,0.2995,135.3062
17:18:23:954,-1.3926,2.1051,8.6824,70.0114,-0.0007,-0.3265,0.3005,135.3062
17:18:23:974,-1.6128,2.5364,9.2429,70.4157,0.0834,-0.3499,0.2984,135.3062
17:18:23:994,-1.7569,3.14,9.8895,70.6907,0.0451,-0.3041,0.292,135.216
17:18:24:015,-1.788,2.927,10.7617,70.8494,-0.0912,-0.2871,0.2419,135.1187
17:18:24:036,-1.4668,2.4742,11.9306,70.6461,-0.234,-0.4288,0.2419,135.0135
17:18:24:056,-0.6718,1.9567,13.0852,70.8566,-0.3852,-0.5927,0.3176,134.9033
17:18:24:075,0.3655,1.4824,14.2014,70.7158,-0.48,-0.6555,0.3984,134.7897
17:18:24:096,1.1061,1.5374,14.7165,70.9132,-0.4363,-0.4628,0.408,134.6701
17:18:24:132,1.736,1.6738,13.6074,70.7991,-0.2648,-0.0687,0.3579,134.545
17:18:24:133,2.1888,1.1228,13.1641,70.7608,-0.3682,0.1719,0.1567,134.4145
17:18:24:154,1.9896,0.2369,13.8616,71.0205,-0.662,0.2806,-0.1341,134.2823
17:18:24:174,1.5852,-0.6138,13.8473,71.2278,-0.6258,0.3636,-0.2927,134.1553
17:18:24:195,1.1659,-1.0642,12.4768,71.575,-0.3288,0.4233,-0.2694,134.0463
17:18:24:215,1.4028,-0.3834,10.6014,71.7907,-0.1551,0.4616,-0.0776,134.0463
17:18:24:234,1.9298,0.5838,8.7278,72.0496,-0.2158,0.5298,0.014,134.0463
17:18:24:256,1.7719,1.1689,7.7767,72.0339,-0.3554,0.565,-0.1341,134.0463
17:18:24:275,1.2449,1.1952,7.1037,72.2,-0.2936,0.4137,-0.3481,134.0463
17:18:24:296,0.8758,0.8501,5.7482,72.1749,-0.0305,0.1261,-0.5047,134.0463
17:18:24:316,0.4666,0.6897,5.4915,72.084,0.0015,-0.2083,-0.5984,134.0463
17:18:24:335,0.2794,0.5671,6.186,71.8445,-0.2393,-0.2242,-0.6357,134.0463
17:18:24:356,-0.2118,0.5049,6.7681,71.8605,-0.283,0.0453,-0.6506,134.0463
17:18:24:376,-0.4367,0.6275,6.4092,71.6695,-0.0188,0.2401,-0.5632,134.0463
17:18:24:396,-0.3362,1.1833,5.9204,71.6354,0.2559,0.2784,-0.4301,134.0463
17:18:24:417,-0.2453,1.5709,5.5968,71.595,0.3326,0.2507,-0.3726,134.1369
17:18:24:436,-0.3769,2.0046,5.9827,71.515,0.2272,0.1921,-0.3683,134.2421
17:18:24:457,-0.6257,2.3713,6.3159,71.6857,0.0993,0.0815,-0.3523,134.3588
17:18:24:477,-0.6885,2.613,7.2855,71.8649,-0.0593,-0.0868,-0.282,134.4857
17:18:24:497,-0.8632,2.927,9.0347,71.6035,-0.2084,-0.335,-0.2342,134.6205
17:18:24:517,-0.7866,3.0969,10.3208,71.3259,-0.2212,-0.4831,-0.1565,134.7591
17:18:24:538,-0.4391,3.3488,11.4203,71.2942,-0.2467,-0.4447,-0.0627,134.8992
17:18:24:557,-0.2333,3.2142,13.2365,71.2988,-0.4214,-0.3734,-0.1043,135.0381
17:18:24:578,0.1836,2.2828,14.3791,71.449,-0.4768,-0.2221,-0.2065,135.1727
17:18:24:599,0.2004,1.94,15.5695,71.7182,-0.414,0.0069,-0.2598,135.3047
17:18:24:618,-0.2118,1.9232,16.2497,71.4803,-0.2755,0.3253,-0.2704,135.4409
17:18:24:638,-1.1001,1.5661,15.1669,71.6116,0.0632,0.63,-0.2852,135.5832
17:18:24:659,-1.9603,1.0223,13.7731,72.0344,0.3997,0.5383,-0.2363,135.7295
17:18:24:679,-1.7402,0.9338,12.9727,72.3596,0.6746,0.0368,-0.0372,135.8821
17:18:24:699,-0.7077,0.6586,11.6004,72.462,1.0015,-0.4213,0.1035,136.0383
17:18:24:719,-1.0475,0.1388,10.5003,72.373,0.9844,-0.5362,-0.0574,136.1914
17:18:24:739,-2.0082,-0.7884,10.0217,72.3282,0.4839,-0.3095,-0.2087,136.3387
17:18:24:760,-2.7314,-1.215,10.3184,72.0417,-0.071,-0.0005,-0.0276,136.4853
17:18:24:780,-2.6429,-1.0666,10.0959,72.1261,-0.2393,0.1506,0.375,136.6355
17:18:24:800,-1.8909,-0.3428,8.9246,71.9727,-0.072,0.1676,0.7755,136.7817
17:18:24:820,-0.789,0.5551,7.8174,71.7023,0.0707,0.0389,1.0076,136.9086
17:18:24:841,0.1358,1.3819,6.9721,71.5288,0.1547,-0.1795,1.014,137.0039
17:18:24:860,0.7442,1.6355,6.1334,71.3679,0.2037,-0.3734,0.8394,137.0039
17:18:24:881,0.7753,1.5924,6.198,71.2391,0.0356,-0.4341,0.5933,137.0039
