Time,Acc_X,Acc_Y,Acc_Z,Meg,Gyr_X,Gyr_Y,Gyr_Z,Ore
16:52:14:246,-0.6385,2.1465,9.9169,39.8718,0.5036,-0.8666,0.4429,-61.6597
16:52:14:263,-0.2139,2.4414,9.8618,39.9191,0.7921,-1.0902,0.477,-61.6597
16:52:14:282,0.1863,2.5786,9.3993,39.9923,0.8389,-1.1679,0.3918,-61.6597
16:52:14:302,0.2643,2.924,8.8785,40.052,0.5781,-1.1349,0.2864,-61.6597
16:52:14:322,0.2336,3.333,8.837,40.218,0.1778,-0.9529,0.2065,-61.6597
16:52:14:343,0.2874,3.2916,9.2967,40.1469,-0.1874,-0.4386,0.1693,-61.6597
16:52:14:363,0.3941,3.0529,9.7564,40.1274,-0.3588,0.165,0.1341,-61.6597
16:52:14:382,0.2615,2.8252,9.9317,40.067,-0.411,0.6058,0.0511,-61.6597
16:52:14:402,-0.0152,2.4151,9.8741,39.9166,-0.363,0.6558,-0.0234,-61.6597
16:52:14:422,-0.3238,2.2407,9.8528,40.1638,-0.2246,0.6686,-0.0043,-61.6597
16:52:14:442,-0.4982,2.0946,9.9131,40.1518,-0.0319,0.725,0.0884,-61.6597
16:52:14:463,-0.5076,2.1356,9.7145,39.9754,0.1214,0.7165,0.165,-61.6597
16:52:14:483,-0.3961,2.218,9.5026,40.1117,0.2183,0.5909,0.1618,-61.6597
16:52:14:503,-0.3848,2.4176,9.1328,40.0293,0.33,0.4844,0.1129,-61.6597
16:52:14:523,-0.4684,2.7714,8.8689,39.9445,0.4535,0.3205,0.033,-61.6597
16:52:14:544,-0.4599,2.9941,8.3184,40.0244,0.5355,0.1469,-0.0458,-61.6597
16:52:14:563,-0.4976,3.3604,7.768,39.9256,0.4599,-0.0202,-0.1693,-61.6597
16:52:14:583,-0.4811,3.6095,7.352,39.745,0.2715,-0.1054,-0.2694,-61.6597
16:52:14:603,-0.7615,3.747,7.3943,39.4904,0.05,-0.1735,-0.3279,-61.6597
16:52:14:623,-1.0707,3.8099,7.8085,39.6118,-0.0681,-0.2715,-0.3045,-61.6597
16:52:14:643,-1.0941,3.7192,7.9911,39.4439,-0.1139,-0.3428,-0.2055,-61.6597
16:52:14:664,-0.6228,3.6249,7.9327,39.5341,-0.2129,-0.2459,-0.0511,-61.6597
16:52:14:686,-0.397,3.6517,8.152,39.7402,-0.4003,-0.2278,-0.0149,-61.6597
16:52:14:702,-0.5673,3.812,9.0098,39.5626,-0.4674,-0.1672,-0.0245,-61.6597
16:52:14:723,-0.1319,3.4988,9.869,39.6942,-0.3162,-0.2129,-0.0596,-61.6597
16:52:14:742,0.2297,3.3284,10.0677,39.7109,-0.164,-0.1278,-0.1341,-61.6597
16:52:14:763,0.434,3.2235,10.2086,39.7066,-0.0713,-0.132,-0.1863,-61.6597
16:52:14:782,0.5551,3.0643,10.2287,40.0404,0.0415,-0.1842,-0.2491,-61.6597
16:52:14:803,0.5733,2.8726,10.0774,40.1977,0.1011,-0.3098,-0.4067,-61.6597
16:52:14:822,0.3952,3.4389,10.1402,40.003,0.0948,-0.4397,-0.4706,-61.6597
16:52:14:842,0.1798,3.3164,10.1739,40.2728,-0.0511,-0.5334,-0.5685,-61.6597
16:52:14:863,-0.2055,2.872,10.6835,40.0307,-0.1863,-0.4248,-0.6281,-61.6597
16:52:14:882,-0.6101,2.4983,11.4284,39.733,-0.1097,-0.2417,-0.5238,-61.6597
16:52:14:902,-0.9466,2.3704,11.7185,39.8189,0.1938,-0.1086,-0.329,-61.5664
16:52:14:922,-0.9204,2.2909,11.3484,39.9503,0.4791,-0.1395,-0.2438,-61.468
16:52:14:942,-0.9315,2.1739,10.3719,39.8692,0.5142,-0.0383,-0.3247,-61.3631
16:52:14:963,-1.0752,1.9433,9.5411,40.2341,0.2619,0.1448,-0.412,-61.2481
16:52:14:982,-1.3433,1.6974,9.5577,40.2874,-0.0192,0.2779,-0.3343,-61.1237
16:52:15:002,-0.8509,1.3027,10.5251,40.2547,-0.1182,0.4759,-0.1757,-60.9954
16:52:15:022,-0.3773,1.0219,10.6999,40.289,-0.0862,1.0178,-0.0862,-60.8671
16:52:15:043,0.0759,0.8934,9.9632,40.3503,-0.1459,1.1307,-0.1288,-60.7387
16:52:15:063,0.1859,1.2564,9.5377,40.3583,-0.5728,-0.099,-0.231,-60.6077
16:52:15:084,0.2497,1.9409,9.7222,40.3344,-0.6377,-1.1317,-0.3098,-60.4698
16:52:15:102,0.7339,2.0919,10.0406,40.3881,-0.3822,-1.1818,-0.2353,-60.3267
16:52:15:123,1.6497,1.6263,9.4071,40.3792,-0.132,-0.6452,-0.2438,-60.1797
16:52:15:142,1.6406,0.9593,8.1164,40.5598,-0.1203,-0.1938,-0.3811,-60.0248
16:52:15:165,1.0128,1.0439,7.5264,40.5266,-0.4056,-0.5632,-0.4716,-59.858
16:52:15:183,0.1806,1.6782,7.7291,40.5916,-0.2576,-0.5888,-0.4802,-59.679
16:52:15:202,-0.1285,1.5698,8.1324,40.5662,-0.0926,-0.741,-0.4046,-59.49
16:52:15:222,-0.0493,1.2512,8.108,40.6033,0.2332,-0.9571,-0.28,-59.2966
16:52:15:243,-0.5241,1.3989,7.3873,40.4294,0.3024,-1.0817,-0.2651,-59.1009
16:52:15:263,-0.561,1.8816,7.0328,40.4182,0.3322,0.4631,-0.0554,-58.9071
16:52:15:283,0.6824,2.1685,7.5187,40.1959,0.3034,0.9656,0.3354,-58.7307
16:52:15:303,0.2688,2.1229,7.7595,40.1496,-0.1107,1.3766,0.2438,-58.5687
16:52:15:323,-0.3495,2.5878,8.2541,40.1677,-0.3183,1.4713,0.3396,-58.4212
16:52:15:343,-0.2914,3.4596,8.7211,40.3398,-0.3556,1.0796,0.6143,-58.2963
16:52:15:363,0.1915,3.4242,9.8012,40.2201,-0.0415,0.4546,0.5643,-58.1968
16:52:15:383,0.6691,2.968,9.8163,40.3418,0.1629,-0.1373,0.033,-58.1066
16:52:15:403,0.7331,2.6172,9.98,40.4601,0.4014,-0.5015,-0.1948,-58.0137
16:52:15:423,0.4624,2.6029,9.4625,40.3478,0.2885,-0.0319,-0.3726,-57.9123
16:52:15:443,-0.3807,2.7784,9.3061,40.3997,0.0213,0.4802,-0.4376,-57.7992
16:52:15:463,-0.7138,2.8029,9.8458,40.6046,-0.1863,0.2225,-0.297,-57.6769
16:52:15:483,-0.3142,1.913,10.3931,40.6937,-0.2545,-0.0245,-0.1139,-57.5531
16:52:15:505,-0.9653,2.4183,10.8762,40.5325,-0.2917,0.2481,0.0809,-57.4334
16:52:15:523,-1.7734,2.1651,10.596,40.7158,-0.3545,0.5994,0.4216,-57.329
16:52:15:543,-2.2752,2.2894,10.2393,40.7866,-0.4834,0.5728,0.7165,-57.329
16:52:15:563,-1.2541,2.4836,10.6282,40.4296,-0.6675,0.4014,0.8315,-57.329
16:52:15:585,-0.6746,1.5564,11.4026,40.5152,-0.7516,0.2214,0.9273,-57.329
16:52:15:603,-1.3719,0.8457,11.3458,40.389,-0.6367,0.5025,1.2648,-57.329
16:52:15:623,-1.4593,-0.117,10.2213,40.4325,-0.4589,1.3319,1.1658,-57.329
16:52:15:643,-1.016,-0.1903,10.1036,40.4335,-0.4099,1.4618,0.6313,-57.421
16:52:15:666,-1.7965,-0.6388,10.0612,40.6896,-0.4322,0.906,0.4429,-57.5285
16:52:15:683,-2.4995,-0.7698,9.9467,40.9323,-0.2853,0.5877,0.3375,-57.6459
16:52:15:703,-2.373,-0.4247,9.2522,41.3343,-0.0948,0.329,0.3513,-57.7723
16:52:15:723,-2.281,0.0705,8.1982,41.6075,0.0809,0.263,0.3311,-57.9064
16:52:15:746,-1.6912,0.7251,7.6164,41.5119,0.1182,0.4621,0.2608,-58.0455
16:52:15:763,-1.55,1.0624,7.3132,41.7867,0.0287,0.8315,0.1767,-58.1868
16:52:15:783,-2.1923,1.1256,7.2806,41.527,-0.05,1.0274,0.2044,-58.3305
16:52:15:802,-2.3937,1.0978,7.2312,41.5062,-0.0149,0.8858,0.3396,-58.4804
16:52:15:823,-2.1327,1.2143,7.2221,41.4164,0.0735,0.5738,0.4131,-58.639
16:52:15:842,-1.4698,1.3633,8.0924,41.163,0.1629,0.4834,0.4312,-58.8066
16:52:15:863,-1.1234,1.8438,8.8806,41.1017,0.411,0.7389,0.3556,-58.9798
16:52:15:883,-1.6907,2.189,8.2206,41.0056,0.5568,0.9028,0.2087,-59.152
16:52:15:903,-2.1186,2.4653,7.5524,40.8216,0.3513,0.4322,0.099,-59.3198
16:52:15:924,-2.6389,3.2227,7.3658,40.9127,0.0096,-0.2427,-0.05,-59.4816
16:52:15:943,-2.9125,3.065,7.7183,41.0849,-0.2161,-0.9497,-0.1906,-59.6345
16:52:15:963,-2.2664,1.7398,8.3628,41.1048,-0.2417,-1.1754,-0.2938,-59.7757
16:52:15:983,-1.9199,1.8704,9.499,40.8642,-0.3396,-0.7559,-0.4408,-59.9015
16:52:16:003,-2.6983,1.4885,10.8136,40.6541,-0.7144,-0.2374,-0.5355,-60.0098
16:52:16:023,-3.9861,1.0186,12.6845,40.759,-1.0487,0.6739,-0.4908,-60.1036
16:52:16:043,-4.6807,0.0011,13.9759,40.6844,-1.1104,1.1424,-0.3119,-60.1036
16:52:16:063,-4.7096,-1.2759,15.1991,40.4735,-0.8858,0.9933,-0.1746,-60.1036
16:52:16:085,-4.8922,-1.5712,15.4964,40.5695,-0.1448,1.0157,0.1405,-60.1953
16:52:16:103,-4.0688,-1.5464,13.2222,40.4406,0.6377,0.8091,0.4514,-60.2932
16:52:16:123,-3.1764,-1.2455,10.3429,40.2622,0.824,0.379,0.5046,-60.3973
16:52:16:143,-2.466,-0.5981,8.9716,40.3801,0.4802,0.0894,0.3875,-60.5069
16:52:16:166,-1.62,0.2383,8.4835,40.295,0.3311,0.0351,0.2459,-60.6193
16:52:16:183,-1.0547,0.6641,7.7304,40.2586,0.2321,0.0511,0.0862,-60.7304
16:52:16:203,-1.2255,1.2419,7.2431,40.1459,0.1171,0.3854,-0.0309,-60.8367
16:52:16:223,-1.7421,1.4183,6.8473,39.6975,-0.0149,0.7495,-0.148,-60.9361
16:52:16:272,-2.524,1.2655,6.8534,39.3939,-0.0979,1.0455,-0.2055,-61.0272
16:52:16:273,-3.0741,0.9779,7.0032,39.3854,0.0224,1.0945,-0.0948,-61.0272
16:52:16:283,-3.1484,0.8015,7.0298,39.2032,0.2555,0.8837,0.0362,-61.0272
16:52:16:303,-2.9506,0.9931,7.2258,38.8682,0.5983,0.4035,0.1331,-61.0272
16:52:16:323,-2.2483,1.0132,6.8757,38.9396,0.972,0.0234,0.1661,-61.0272
16:52:16:343,-2.3137,1.2696,5.9725,38.5626,1.0508,-0.0735,0.1299,-61.0272
16:52:16:363,-2.7592,1.6205,5.5999,38.3022,0.7293,-0.3726,0.1991,-61.0272
16:52:16:382,-2.6461,2.194,7.1721,37.996,0.3045,-0.8645,0.2672,-61.0272
16:52:16:403,-2.4571,2.5556,8.8573,37.7378,0.3332,-0.8017,0.1735,-61.0272
16:52:16:423,-2.7482,2.2921,9.4408,37.2804,0.5217,-0.6186,-0.0234,-61.0272
16:52:16:443,-3.906,2.2337,9.1286,37.1368,0.6548,-0.6154,-0.083,-61.0272
16:52:16:463,-4.1464,2.9686,8.6666,36.9155,0.5004,-0.8134,0.0181,-61.0272
16:52:16:483,-3.543,3.9002,8.8038,36.7087,0.0756,-0.7932,0.1129,-61.0272
16:52:16:504,-3.3432,3.733,9.7001,36.535,-0.5185,-0.3215,0.0713,-61.0272
16:52:16:523,-3.6249,3.0297,11.6003,36.3753,-0.8911,0.0149,0.0958,-61.0272
16:52:16:542,-4.5061,3.0062,13.5411,36.1539,-0.6313,0.0735,0.1948,-61.0272
16:52:16:563,-4.9152,2.1523,13.5134,36.1806,-0.0085,-0.1363,0.4163,-61.1222
16:52:16:584,-4.4948,1.2387,12.4677,35.8762,0.3982,-0.2896,0.543,-61.2293
16:52:16:603,-4.0162,1.0366,10.8291,35.8862,0.6228,0.0138,0.5579,-61.3471
16:52:16:623,-4.0386,1.6066,8.8928,35.7572,0.5419,0.1554,0.4706,-61.4732
16:52:16:643,-3.7096,1.6368,8.134,35.6245,0.0979,-0.131,0.2438,-61.6042
16:52:16:664,-3.4495,1.1605,8.922,35.4393,-0.2364,-0.2374,0.0383,-61.736
16:52:16:683,-3.3332,0.6156,8.8763,35.3241,-0.3311,0.0373,-0.0298,-61.8663
16:52:16:703,-3.0088,0.6381,8.2794,35.2586,-0.4152,0.3481,-0.0287,-61.9956
16:52:16:723,-2.3798,0.6994,7.9003,34.9863,-0.4322,0.6548,-0.0479,-62.1241
16:52:16:743,-2.5476,0.9429,7.2122,34.9328,-0.3567,0.7655,-0.1139,-62.2492
16:52:16:764,-2.8371,0.977,6.5437,34.8087,-0.231,0.6281,-0.0117,-62.372
16:52:16:783,-2.6689,0.9159,6.2034,34.7703,-0.1192,0.6026,0.1214,-62.4961
16:52:16:802,-2.6762,1.2367,5.8772,34.3645,0.0639,0.7357,0.2832,-62.6248
16:52:16:823,-2.7111,1.6443,5.4807,34.3126,0.1448,0.6037,0.2747,-62.7579
16:52:16:844,-3.3417,2.2217,5.1195,34.1656,0.0926,0.477,0.1586,-62.8923
16:52:16:865,-3.9501,2.0868,5.5626,34.0701,-0.2023,0.5217,0.0011,-63.0258
16:52:16:883,-4.6151,1.6063,7.0415,34.1344,-0.4578,0.6548,-0.0096,-63.1603
16:52:16:903,-4.8696,1.2062,8.6459,34.0323,-0.3375,0.6633,0.017,-63.2962
16:52:16:923,-5.1112,1.7933,9.5377,33.7586,-0.0426,0.5281,0.0948,-63.4326
16:52:16:946,-4.7347,2.3926,9.6067,33.7339,0.165,0.1565,0.1033,-63.567
16:52:16:964,-4.4906,3.2353,9.5108,33.5352,0.0639,-0.1522,-0.0479,-63.6962
16:52:16:983,-4.4476,3.5059,10.4555,33.6225,-0.2097,-0.1491,-0.2523,-63.8173
16:52:17:003,-4.7369,3.7578,11.8329,33.5121,-0.2332,0.0181,-0.2438,-63.9302
16:52:17:023,-4.5001,3.7687,11.7874,33.3219,-0.1075,0.049,-0.1735,-64.0358
16:52:17:045,-3.4841,1.8046,11.2965,33.5697,-0.3418,-0.1288,-0.3428,-64.133
16:52:17:064,-3.8442,0.1945,12.2027,33.1579,-0.3492,-0.1714,-0.445,-64.133
16:52:17:083,-4.0139,-0.3868,12.0184,33.4224,0.0628,-0.0916,-0.3332,-64.133
16:52:17:103,-3.956,-0.3154,10.271,33.4768,0.2289,0.0735,-0.2981,-64.133
16:52:17:123,-3.6494,-0.0815,8.8639,33.3359,-0.0692,0.1565,-0.4195,-64.133
16:52:17:144,-3.4783,0.0726,8.3511,33.4193,-0.445,0.1884,-0.6175,-64.133
16:52:17:163,-2.8662,0.4837,8.1715,33.6306,-0.5164,-0.1011,-0.7719,-64.133
16:52:17:183,-2.831,0.0704,8.0002,33.4142,-0.3492,-0.3311,-0.8805,-64.133
16:52:17:203,-3.0158,-0.079,7.6573,33.5076,-0.0298,-0.3407,-0.8794,-64.133
16:52:17:222,-3.3203,0.0108,6.8247,33.6017,0.3002,-0.5164,-0.8038,-64.133
16:52:17:244,-3.3401,0.1778,5.9908,33.3414,0.4929,-0.8304,-0.6665,-64.133
16:52:17:263,-2.7559,0.0768,6.3286,33.3252,0.6782,-1.2009,-0.4642,-64.0265
16:52:17:283,-1.998,0.3128,6.8452,33.3943,1.0476,-1.351,-0.3811,-63.9002
16:52:17:305,-1.9579,0.8378,6.653,33.2257,1.4149,-1.152,-0.4887,-63.7491
16:52:17:323,-2.6063,1.3276,5.8906,33.1607,1.4288,-0.6973,-0.51,-63.5713
16:52:17:343,-3.0207,1.6729,5.9322,32.7534,1.0135,-0.626,-0.3545,-63.375
16:52:17:363,-3.0669,2.1213,7.3363,32.5765,0.4951,-1.0593,-0.2108,-63.1711
16:52:17:383,-2.2073,2.6972,9.098,32.4541,0.2662,-1.3319,-0.197,-62.9649
16:52:17:403,-2.3243,3.3953,10.0515,32.467,0.3577,-0.7932,-0.3982,-62.7509
16:52:17:423,-3.197,3.3804,10.0417,32.2172,0.3971,-0.0767,-0.4695,-62.5249
16:52:17:443,-3.8972,3.2228,9.9208,32.0671,0.2033,0.1107,-0.3056,-62.2916
16:52:17:464,-3.4688,3.0729,10.6963,32.4604,-0.1874,-0.2715,-0.0681,-62.0622
16:52:17:483,-3.3948,2.8819,11.3313,32.2547,-0.3992,-0.6878,-0.0586,-61.841
16:52:17:502,-3.1771,2.6408,12.3382,32.2069,-0.2065,-0.6228,-0.1672,-61.6238
16:52:17:526,-3.7016,2.7167,12.0997,32.3663,0.1842,-0.4216,-0.0692,-61.409
16:52:17:543,-3.6291,2.09,11.2695,32.3604,0.5345,-0.3141,0.0948,-61.2004
16:52:17:564,-3.6271,1.3657,10.3072,32.3116,0.5994,-0.5664,0.0458,-60.9973
16:52:17:583,-3.743,0.9835,9.8396,32.2555,0.4184,-1.0529,-0.083,-60.7962
16:52:17:603,-3.5191,0.5672,9.4419,32.3402,0.2779,-1.2542,-0.1831,-60.5945
16:52:17:625,-2.9618,0.4728,9.0322,32.4062,0.0586,-1.3521,-0.2385,-60.3906
16:52:17:643,-1.97,0.5673,8.9296,32.3169,-0.1746,-1.0849,-0.4216,-60.1806
16:52:17:663,-2.2198,0.7032,8.1907,32.7611,-0.609,-1.0859,-0.4333,-59.9626
16:52:17:683,-2.0961,0.4746,7.6193,32.8397,-0.9273,-0.6303,-0.3588,-59.7396
16:52:17:703,-2.3255,0.5914,7.057,32.8919,-1.1115,-0.1171,-0.2119,-59.5154
16:52:17:723,-2.4248,0.4359,6.7812,33.0677,-1.2744,0.0916,0.1906,-59.3025
16:52:17:743,-1.7176,0.4146,7.4062,33.115,-1.185,0.1171,0.4919,-59.1127
16:52:17:763,-1.0311,0.666,7.8599,32.8789,-0.7751,0.2928,0.5802,-58.9497
16:52:17:782,-1.3498,0.7533,7.0049,32.9674,-0.2545,0.9348,0.511,-58.8109
16:52:17:803,-1.324,0.6997,6.4757,33.1831,-0.2076,1.6491,0.3513,-58.6905
16:52:17:823,-1.9474,1.0299,7.9744,33.3749,-0.3992,0.8113,0.5515,-58.5905
16:52:17:843,-1.4368,0.4416,8.9918,33.241,-0.3865,-0.0096,0.6494,-58.5905
16:52:17:866,-0.744,0.288,9.9987,33.4754,-0.1916,-0.0649,0.3247,-58.5905
16:52:17:883,-1.11,0.7143,10.6448,33.7935,-0.0415,0.033,0.0596,-58.5905
16:52:17:903,-1.3007,0.6743,11.4005,33.7765,0.1054,0.0234,-0.1405,-58.5905
16:52:17:923,-1.6225,1.0058,11.7358,33.9314,0.1586,-0.3162,-0.3503,-58.5905
16:52:17:943,-1.8254,1.4936,11.7962,33.853,0.1033,-0.3769,-0.478,-58.5905
16:52:17:964,-2.4662,1.6986,12.0021,33.3133,0.0958,-0.0426,-0.4695,-58.4921
16:52:17:983,-3.2801,1.6959,11.9014,33.1722,0.1469,0.4376,-0.1916,-58.3869
16:52:18:003,-2.9995,1.4642,11.9244,32.694,-0.0522,0.296,0.1033,-58.2866
16:52:18:023,-1.6978,0.8194,12.7263,32.477,-0.4365,-0.2385,0.0011,-58.1924
16:52:18:043,-1.0809,0.1229,13.4689,32.4416,-0.2587,0.0468,-0.1852,-58.0975
16:52:18:063,-0.8712,-0.7159,12.6593,32.4592,0.0266,0.1586,-0.3205,-57.9959
16:52:18:083,-0.6275,-1.4398,11.5444,32.6427,0.0117,-0.2736,-0.4248,-57.8835
16:52:18:103,-0.3261,-1.3817,10.8305,32.9631,-0.0735,-0.7474,-0.3982,-57.7607
16:52:18:123,-0.1256,-0.8272,10.0425,33.2865,-0.0788,-0.8783,-0.3013,-57.6308
16:52:18:143,0.0194,-0.397,9.1978,33.495,-0.016,-0.7942,-0.2278,-57.4967
16:52:18:163,-0.0985,-0.039,8.3618,33.5858,0.1299,-0.5707,-0.1852,-57.3599
16:52:18:182,-0.4078,0.2765,7.492,33.4364,0.297,-0.2704,-0.132,-57.222
16:52:18:204,-0.6984,0.7766,6.6477,33.1135,0.4035,-0.116,-0.1214,-57.0839
16:52:18:223,-0.9216,1.1561,6.1825,32.7096,0.4259,-0.05,-0.1491,-56.9445
16:52:18:243,-1.0946,1.069,6.3349,32.6732,0.4557,0.148,-0.0607,-56.8057
16:52:18:312,-1.1599,1.0464,6.6769,32.4244,0.5675,0.2491,0.083,-56.6723
16:52:18:313,-1.0502,1.176,6.6918,32.4734,0.6111,0.181,0.1278,-56.5464
16:52:18:314,-1.0233,1.4277,6.9507,32.3623,0.4951,-0.0096,0.0543,-56.4262
16:52:18:323,-1.0743,1.6006,7.6494,32.4734,0.3183,-0.2438,-0.0106,-56.3092
16:52:18:342,-1.1013,1.5157,8.7101,32.502,0.2172,-0.4173,0.0234,-56.1958
16:52:18:363,-1.0915,1.6928,9.465,32.5402,0.2055,-0.4908,0.0862,-56.0884
16:52:18:383,-1.1063,2.0143,10.1264,32.7569,0.1842,-0.3332,0.1693,-55.9892
16:52:18:403,-1.1804,2.383,10.5129,32.6261,0.0862,0.0245,0.2374,-55.9892
16:52:18:422,-1.1064,2.3991,11.0093,32.4178,-0.1011,0.2523,0.3056,-55.9892
16:52:18:446,-0.8344,1.8345,11.8169,32.3763,-0.2757,0.2236,0.3801,-55.9892
16:52:18:463,-1.129,2.0076,12.7186,32.3693,-0.1512,0.3524,0.5036,-55.9892
16:52:18:482,-1.5168,2.4047,12.5931,32.3488,0.2193,0.4546,0.6058,-55.9892
16:52:18:503,-1.2081,1.5989,12.2665,32.6718,0.4259,-0.0351,0.4312,-55.9892
16:52:18:523,-1.1614,0.6241,12.2482,32.6763,0.5078,-0.5313,0.1746,-55.9892
16:52:18:543,-1.4398,0.4259,11.8369,32.7935,0.5078,-0.5856,0.0426,-55.9892
16:52:18:563,-1.5798,0.0829,11.2914,32.569,0.296,-0.5068,-0.0468,-55.9892
16:52:18:583,-1.5718,-0.4406,11.0087,32.2514,-0.0075,-0.3492,-0.0479,-55.9892
16:52:18:604,-1.4968,-0.545,10.6042,32.3521,-0.28,-0.1469,0.033,-55.9892
16:52:18:623,-1.2683,-0.5164,9.9926,31.9018,-0.4919,0.0916,0.1565,-55.9892
16:52:18:643,-1.1601,-0.0636,9.1835,31.8148,-0.5376,0.3992,0.2864,-55.9892
16:52:18:663,-1.123,0.527,8.1523,31.9913,-0.4514,0.6888,0.3822,-55.9892
16:52:18:683,-0.9332,0.6757,7.2178,31.8871,-0.2683,0.8368,0.4663,-55.9892
16:52:18:703,-0.6802,0.6236,6.4753,31.9207,-0.033,0.8166,0.577,-55.9892
16:52:18:723,-0.4559,0.9176,5.6188,32.0713,0.1267,0.7857,0.6729,-55.9892
16:52:18:743,-0.7168,1.7106,5.1658,32.1489,0.1778,0.544,0.6441,-56.092
16:52:18:763,-0.5502,1.9719,5.1456,32.3085,0.0309,-0.0532,0.4865,-56.2103
16:52:18:783,-0.2307,1.8054,5.8702,31.9385,-0.1459,-0.6271,0.247,-56.3363
16:52:18:803,0.0103,1.5578,7.1681,32.2382,-0.3034,-0.9954,-0.0234,-56.4607
16:52:18:823,0.1537,1.4715,8.6039,32.2905,-0.3684,-0.9422,-0.3077,-56.5742
16:52:18:843,0.2375,1.0005,9.7537,32.4018,-0.3343,-0.5536,-0.5941,-56.6666
16:52:18:863,-0.1711,0.767,10.2723,32.4857,-0.3705,0.1107,-0.7442,-56.6666
16:52:18:883,-0.6282,0.6815,10.8377,32.5937,-0.6122,0.4514,-0.8017,-56.6666
16:52:18:903,-1.2852,0.9141,11.7602,32.4211,-0.7751,0.6824,-0.7761,-56.6666
16:52:18:922,-1.7958,1.0894,12.4587,32.2324,-0.741,0.8538,-0.6399,-56.6666
16:52:18:945,-2.3217,1.6534,12.8192,31.9273,-0.5323,0.9614,-0.4621,-56.6666
16:52:18:963,-2.3738,2.0658,12.6726,31.585,-0.4802,0.6739,-0.3077,-56.6666
16:52:18:983,-1.0208,0.8582,13.4587,30.9613,-0.6473,-0.0128,-0.2992,-56.6666
16:52:19:003,0.0437,-0.3546,14.543,30.8365,-0.4003,-0.5142,-0.4546,-56.6666
16:52:19:025,0.6406,-1.3662,14.3129,30.5423,0.115,-0.8858,-0.6611,-56.6666
16:52:19:043,0.7538,-1.73,12.8823,30.6946,0.4429,-1.0881,-0.7634,-56.5631
16:52:19:063,0.6888,-1.4594,11.3178,30.8404,0.5164,-0.9635,-0.6878,-56.4377
16:52:19:082,0.6017,-0.7194,9.7055,30.8212,0.4493,-0.6303,-0.5536,-56.2959
16:52:19:103,0.55,-0.1397,8.3071,31.0056,0.2704,-0.2364,-0.5323,-56.1402
16:52:19:123,0.2769,0.1333,7.3959,31.0798,0.1139,0.1341,-0.5813,-55.97
16:52:19:143,-0.264,0.2765,7.2061,31.0225,0.1395,0.2811,-0.6356,-55.7835
16:52:19:163,-0.5768,0.1619,7.0232,30.8416,0.3833,0.181,-0.6601,-55.5801
16:52:19:183,-0.8409,0.0409,6.8752,30.8197,0.6494,-0.0298,-0.6622,-55.3598
16:52:19:204,-1.0833,0.2106,6.4511,30.5561,0.8283,0.0117,-0.5366,-55.126
16:52:19:223,-1.4502,0.6711,5.8091,30.6557,0.7761,0.1714,-0.3471,-54.8851
16:52:19:243,-0.8258,1.0498,5.8681,30.5533,0.4259,0.2204,-0.1331,-54.6443
16:52:19:263,-0.672,1.5438,6.9422,30.2909,0.0724,-0.2768,-0.0426,-54.4096
16:52:19:283,-0.2591,1.4913,8.0327,30.141,-0.1203,-0.0798,-0.1863,-54.1773
16:52:19:307,0.0183,1.8411,9.0094,30.2453,-0.3332,0.0106,-0.2917,-53.9432
16:52:19:323,-0.3571,1.9985,9.9297,29.9694,-0.5078,0.0905,-0.3556,-53.7049
16:52:19:343,-0.798,2.0942,11.0492,30.0411,-0.4472,0.1491,-0.2928,-53.4634
16:52:19:363,-1.0468,2.2868,11.5196,29.7763,-0.1576,0.2364,-0.116,-53.224
16:52:19:383,-1.114,2.4779,11.1885,29.7428,0.0894,0.3545,0.0735,-52.993
16:52:19:402,-0.9536,2.6117,10.6918,29.9271,0.1086,0.3268,0.1554,-52.774
16:52:19:422,-0.9352,2.5468,10.8766,29.8448,-0.1427,-0.0905,0.0671,-52.5652
16:52:19:447,-1.0774,2.1511,12.0686,29.8932,-0.3247,-0.5536,-0.0266,-52.3631
16:52:19:464,-1.1275,1.6825,12.585,29.7178,-0.2214,-0.478,0.0117,-52.1676
16:52:19:483,-0.8455,0.3657,12.8813,29.3925,-0.0713,-0.8389,-0.1714,-51.9746
16:52:19:503,-1.0152,-0.5044,12.5859,29.3993,0.1416,-0.9752,-0.3939,-51.7754
16:52:19:524,-1.673,-0.6574,11.3839,29.7002,0.3886,-0.4418,-0.247,-51.5717
16:52:19:544,-2.1465,-0.3841,10.2186,29.7873,0.3237,-0.0341,0.0277,-51.3729
16:52:19:566,-1.9114,-0.4302,9.4912,30.1239,-0.0937,-0.1906,0.1129,-51.184
16:52:19:583,-1.509,-0.5479,9.3054,30.4945,-0.527,-0.3609,-0.0064,-51.0017
16:52:19:603,-1.396,-0.6509,9.3634,30.9663,-0.7069,-0.3119,-0.1192,-50.821
16:52:19:623,-1.3767,-0.7624,9.1349,31.4276,-0.6792,-0.0745,-0.1576,-50.6399
16:52:19:643,-1.4393,-0.7184,8.4985,31.7678,-0.5227,0.296,-0.1075,-50.4592
16:52:19:664,-1.5412,-0.5757,7.5811,31.6032,-0.3141,0.7495,0.0586,-50.2842
16:52:19:683,-1.5299,-0.4476,6.5819,31.3227,-0.1405,1.1221,0.3087,-50.123
16:52:19:703,-1.4257,-0.1506,5.8936,31.021,-0.082,1.2275,0.5547,-49.9838
16:52:19:724,-1.1644,0.2543,5.931,30.893,-0.0607,1.12,0.7304,-49.8728
16:52:19:743,-0.9945,0.7157,6.1293,30.7334,0.0341,0.9028,0.7836,-49.8728
16:52:19:763,-0.6827,1.0985,6.6703,31.0989,0.0213,0.2832,0.5632,-49.8728
16:52:19:782,-0.8111,1.5311,7.9979,31.331,-0.1352,-0.7101,0.148,-49.8728
16:52:19:803,-0.8358,1.2823,9.689,31.0246,-0.1203,-1.2765,-0.148,-49.8728
16:52:19:823,-0.9111,1.049,10.78,31.0807,0.0149,-0.9667,-0.2342,-49.8728
16:52:19:844,-1.3827,1.1395,11.0124,31.0982,0.0064,-0.2459,-0.1373,-49.8728
16:52:19:863,-1.8401,1.2944,11.288,30.8432,-0.2747,0.329,0.0628,-49.8728
16:52:19:883,-1.8315,1.5365,12.044,30.5838,-0.6686,0.445,0.2438,-49.8728
16:52:19:903,-1.4256,1.6283,13.244,30.243,-0.8613,0.33,0.2161,-49.8728
16:52:19:923,-1.1877,1.3362,14.2386,30.096,-0.6867,0.2449,0.0405,-49.8728
16:52:19:943,-1.3976,1.0309,14.6647,30.0537,-0.2353,0.0468,-0.1214,-49.8728
16:52:19:963,-0.8486,-0.2868,14.532,30.0797,0.1267,-0.3662,-0.2949,-49.8728
16:52:19:983,-0.6322,-1.4005,13.7522,30.1482,0.5121,-0.3897,-0.4248,-49.8728
16:52:20:004,-0.8007,-1.5014,11.915,30.6463,1.0221,0.1054,-0.313,-49.8728
16:52:20:023,-0.6383,-1.4881,9.8063,30.7787,1.1402,0.1735,-0.2662,-49.78
16:52:20:043,-0.2967,-1.529,8.3891,31.1451,0.758,-0.3119,-0.4099,-49.6766
16:52:20:063,-0.4713,-1.202,8.0259,31.5794,0.2395,-0.6792,-0.5973,-49.557
16:52:20:083,-1.1313,-0.7116,8.258,31.9207,-0.0703,-0.642,-0.6218,-49.4194
16:52:20:104,-1.378,-0.5361,8.2129,31.9302,-0.115,-0.3471,-0.4844,-49.2678
16:52:20:123,-1.5686,-0.3492,7.6504,31.9891,-0.0021,-0.0266,-0.3205,-49.1084
16:52:20:143,-1.7379,-0.1586,7.0603,31.6145,0.1256,0.0916,-0.1821,-48.9464
16:52:20:163,-1.8749,0.0529,6.6091,31.3427,0.197,-0.0798,-0.0564,-48.7862
16:52:20:183,-1.8526,0.1461,6.4317,31.2062,0.2726,-0.3524,0.0937,-48.6327
16:52:20:203,-1.7549,0.2962,6.3638,31.1953,0.4386,-0.4503,0.297,-48.4925
16:52:20:223,-1.3259,0.4094,6.3356,31.4043,0.5792,-0.3641,0.4972,-48.3725
16:52:20:243,-0.9687,0.8885,6.7644,31.4328,0.5015,-0.3332,0.6399,-48.2776
16:52:20:263,-0.3721,1.4662,7.6921,31.3122,0.3364,-0.3364,0.6601,-48.2776
16:52:20:332,-0.2063,1.9431,8.7783,31.2825,0.2438,-0.1565,0.5387,-48.2776
16:52:20:333,-0.4156,2.3194,9.5527,31.3738,0.1906,-0.0319,0.3662,-48.2776
16:52:20:333,-1.0667,2.4731,10.1887,31.8389,0.0319,0.1735,0.3673,-48.2776
16:52:20:343,-1.442,2.5283,10.9511,32.0226,-0.1863,0.5036,0.5983,-48.2776
16:52:20:364,-1.7454,2.4748,11.6644,32.3671,-0.3652,0.8155,0.7644,-48.2776
16:52:20:384,-1.7432,2.0301,12.5402,32.477,-0.6388,0.642,0.625,-48.2776
16:52:20:403,-1.9705,1.5058,13.5899,32.5426,-0.675,0.4141,0.5142,-48.2776
16:52:20:423,-2.3377,1.0818,13.4167,32.7952,-0.2204,0.5408,0.6952,-48.2776
16:52:20:443,-2.2028,0.3881,12.2341,32.9556,0.2726,0.3215,0.7825,-48.3873
16:52:20:464,-1.872,0.1715,11.167,32.8965,0.4078,-0.346,0.6271,-48.5166
16:52:20:484,-1.3486,-0.0883,10.1799,33.3981,0.4429,-0.4099,0.4738,-48.6596
16:52:20:503,-1.1032,-0.2105,8.9986,33.6265,0.2981,-0.0969,0.3002,-48.8104
16:52:20:523,-0.8691,-0.1699,8.295,33.6352,-0.181,0.0085,0.1416,-48.9628
16:52:20:542,-0.8838,0.0577,8.2573,33.6018,-0.7059,0.0724,-0.0032,-49.1115
16:52:20:563,-1.0007,0.1399,8.804,33.505,-1.0146,0.1086,-0.1906,-49.2504
16:52:20:583,-1.1755,-0.1127,9.2243,33.6644,-1.0423,0.0926,-0.3332,-49.3744
16:52:20:603,-1.4097,-0.4124,9.1447,33.606,-0.824,0.1203,-0.297,-49.4833
16:52:20:623,-1.628,-0.5179,8.5203,33.7619,-0.4259,0.2491,-0.0468,-49.5847
16:52:20:643,-1.8695,-0.312,7.5961,33.7787,0.0266,0.4301,0.3854,-49.6921
16:52:20:663,-1.9519,-0.0094,6.553,33.6163,0.3897,0.543,0.8283,-49.8209
16:52:20:683,-1.783,0.3273,6.0943,33.5483,0.4919,0.3215,1.038,-49.9799
16:52:20:703,-1.4911,0.7692,6.2531,33.6993,0.3567,-0.2033,0.9518,-50.1676
16:52:20:723,-1.0948,0.9944,7.2766,33.962,0.1256,-0.7059,0.7123,-50.3761
16:52:20:743,-0.2982,0.5063,8.7502,33.9541,-0.066,-0.8794,0.4408,-50.5956
16:52:20:764,-0.1058,0.1497,10.2236,34.288,-0.1256,-0.5291,0.2129,-50.8174
16:52:20:783,-0.3418,0.1634,10.9647,34.1672,-0.0905,0.1139,0.0777,-51.0361
16:52:20:803,-0.4455,-0.1266,11.5531,34.2715,-0.2268,0.4269,-0.066,-51.2469
16:52:20:823,-0.721,-0.3621,12.3455,33.9216,-0.61,0.725,-0.2002,-51.4455
16:52:20:843,-1.5906,-0.0456,13.0805,33.7604,-0.9593,1.4,-0.3673,-51.6272
16:52:20:863,-2.8967,0.3825,13.5976,33.9119,-1.038,1.7907,-0.4653,-51.7892
16:52:20:883,-3.7163,0.5513,13.6343,33.945,-0.8081,1.6087,-0.3013,-51.9363
16:52:20:903,-3.4832,0.4884,13.7394,34.2268,-0.5164,0.8166,-0.0149,-52.0779
16:52:20:923,-2.6299,0.2806,13.9883,34.8063,-0.0149,0.264,0.2928,-52.2232
16:52:20:943,-1.3087,-0.8456,13.2435,35.3939,0.8304,-0.1086,0.4003,-52.3749
16:52:20:964,-0.5545,-1.5979,11.0504,35.8169,1.3447,-0.576,0.2502,-52.5271
16:52:20:984,-0.6469,-1.3376,9.3386,36.2502,1.334,-1.0657,0.0096,-52.6722
16:52:21:003,-0.7177,-0.8859,8.2503,36.8609,1.0125,-1.4394,-0.1757,-52.8048
16:52:21:023,-0.8787,-0.4949,7.5311,37.1049,0.5983,-1.2904,-0.2065,-52.9247
16:52:21:043,-1.1099,-0.0088,7.0179,37.3892,0.2374,-0.7751,-0.0287,-53.0375
16:52:21:063,-0.9745,0.2921,6.4425,37.6264,-0.0043,-0.197,0.181,-53.1514
16:52:21:083,-0.659,0.6038,6.024,37.4899,-0.164,0.2033,0.2523,-53.2702
16:52:21:103,-0.4258,0.7146,6.2386,37.6128,-0.2193,0.3024,0.1789,-53.3923
16:52:21:123,-0.1302,0.6419,6.551,37.301,0.0075,0.2587,0.0692,-53.5144
16:52:21:144,-0.1381,0.6782,6.5701,37.0442,0.3215,0.2055,-0.0181,-53.6327
16:52:21:163,-0.2367,1.0421,6.5163,37.0689,0.5334,-0.0011,-0.0192,-53.7458
16:52:21:183,0.053,1.4192,7.029,36.964,0.6079,-0.3045,-0.0575,-53.8533
16:52:21:203,0.1801,1.7046,7.5311,37.133,0.5792,-0.2992,-0.1746,-53.9518
16:52:21:223,-0.0701,2.0762,8.2695,37.0799,0.3758,-0.3077,-0.2789,-53.9518
16:52:21:245,-0.5061,2.2995,9.3031,36.966,0.0894,-0.2949,-0.3481,-53.9518
16:52:21:264,-1.2368,2.781,10.5962,37.1661,-0.0287,0.0021,-0.2906,-53.9518
16:52:21:283,-1.9101,3.0045,11.2847,37.519,0.0021,0.4088,-0.1054,-53.9518
16:52:21:303,-2.4581,2.989,11.8168,38.1388,-0.0671,0.5185,0.1299,-53.9518
16:52:21:323,-2.1652,2.8538,12.6777,38.6144,-0.2726,0.1916,0.3034,-53.9518
16:52:21:343,-1.5775,2.3959,13.8647,39.0207,-0.3588,-0.0948,0.2566,-53.9518
16:52:21:363,-1.6065,1.6835,14.5349,39.2373,-0.0916,-0.1554,0.0671,-53.9518
16:52:21:383,-2.1073,0.5848,14.0821,39.8143,0.2736,-0.3471,-0.0777,-53.9518
16:52:21:402,-2.6278,0.0952,12.9039,39.7606,0.5462,-0.3886,-0.0373,-53.9518
16:52:21:422,-2.7257,0.16,11.2711,39.8848,0.6899,-0.2087,0.1629,-53.9518
16:52:21:443,-2.1856,0.3744,9.8569,40.0994,0.4291,-0.3013,0.264,-54.0423
16:52:21:463,-1.1667,0.1834,9.1572,39.8079,-0.1544,-0.4844,0.0735,-54.1346
16:52:21:483,-0.7298,-0.0032,8.701,39.4258,-0.6335,-0.3492,-0.2374,-54.1346
16:52:21:503,-1.0261,-0.1541,8.1877,39.198,-0.8783,0.0043,-0.5078,-54.1346
16:52:21:526,-1.5478,-0.2289,7.5443,39.1628,-0.9039,0.2917,-0.5738,-54.1346
16:52:21:543,-1.7558,-0.4442,6.8326,38.9268,-0.7495,0.4727,-0.4354,-54.1346
16:52:21:566,-1.6732,-0.691,6.2484,38.9819,-0.4983,0.5313,-0.1757,-54.1346
16:52:21:583,-1.7018,-0.7232,6.2491,39.2106,-0.2236,0.3471,0.116,-54.1346
16:52:21:604,-1.6872,-0.4266,6.2928,39.2829,0.197,0.2715,0.4046,-54.1346
16:52:21:623,-1.5643,-0.1002,5.8767,39.6657,0.6047,0.2853,0.625,-54.1346
16:52:21:643,-1.5225,0.7019,6.0457,40.1455,0.7463,-0.0554,0.7314,-54.1346
16:52:21:663,-1.0701,1.2845,7.4182,40.5576,0.4951,-1.1424,0.4951,-54.2316
16:52:21:683,0.3055,0.9005,9.815,40.6915,0.296,-1.9419,0.0266,-54.3308
16:52:21:703,1.2075,0.5743,11.7262,41.1629,0.2119,-1.4096,-0.5046,-54.3308
16:52:21:722,0.934,0.673,12.4556,41.4524,0.1182,-0.1043,-0.9113,-54.3308
16:52:21:743,0.3108,0.6226,12.1607,41.4952,-0.1054,0.8496,-1.1051,-54.3308
16:52:21:763,-0.3768,0.697,12.1117,41.4273,-0.4344,0.9358,-1.2105,-54.3308
16:52:21:782,-1.3025,1.0763,12.7459,41.5123,-0.4951,0.8081,-1.186,-54.3308
16:52:21:802,-2.3374,1.3245,12.8055,41.1076,-0.1565,0.8251,-0.9305,-54.231
16:52:21:822,-3.0018,1.6779,12.3257,41.0065,0.2183,0.5376,-0.378,-54.1157
16:52:21:843,-2.0265,1.0105,12.3229,41.1059,0.2481,-0.1299,0.0969,-54.0035
16:52:21:863,-0.8953,0.3688,12.5029,40.9175,0.3822,-0.4972,0.2651,-53.9025
16:52:21:883,-0.2395,-0.1563,11.7812,41.2832,0.625,-0.4759,0.2246,-53.9025
16:52:21:905,0.1958,-0.4523,10.8888,41.6527,0.4599,-0.6718,0.1214,-53.9025
16:52:21:923,0.5975,-0.52,10.3836,41.9642,-0.0256,-0.7761,0.0948,-53.9025
16:52:21:943,0.8705,-0.3483,9.8487,42.4236,-0.4333,-0.3492,0.1299,-53.9025
16:52:21:964,0.6974,-0.172,8.887,42.9321,-0.5941,0.2747,0.0969,-53.9025
16:52:21:983,0.0299,0.2801,7.7764,43.0477,-0.5313,0.5536,0.0266,-53.9025
16:52:22:004,-0.2939,0.689,6.699,43.0148,-0.2928,0.4663,-0.0085,-53.9025
16:52:22:023,-0.1574,0.7193,6.0739,42.6199,0.0043,0.1086,-0.0703,-53.9025
16:52:22:043,-0.0246,0.7262,5.5873,42.4398,0.3119,-0.131,-0.1501,-53.9025
16:52:22:063,-0.0459,0.9292,5.2829,42.2061,0.5302,-0.2406,-0.1906,-53.9025
16:52:22:083,-0.0871,1.2449,5.1395,41.7398,0.5728,-0.2715,-0.1852,-53.8099
16:52:22:104,-0.2399,1.6979,5.838,41.6759,0.5504,-0.4248,-0.2076,-53.7134
16:52:22:123,0.1797,2.0071,6.909,41.7564,0.643,-0.4674,-0.2587,-53.6119
16:52:22:143,0.5698,2.3182,7.3653,41.6802,0.609,-0.2587,-0.5206,-53.4991
16:52:22:163,-0.2495,2.7217,8.0888,41.6551,0.1789,-0.1533,-0.9018,-53.3616
16:52:22:183,-1.4749,2.5114,9.8181,41.8298,-0.2172,-0.164,-0.9294,-53.1953
16:52:22:204,-2.6251,2.5014,11.3506,41.8887,-0.297,0.016,-0.5749,-53.0098
16:52:22:223,-3.0727,2.8171,12.0947,42.0491,-0.264,0.2278,-0.0192,-52.8243
16:52:22:243,-2.1587,2.7097,12.7567,42.2353,-0.428,0.2172,0.3322,-52.6532
16:52:22:264,-0.9818,2.1397,13.8373,42.4178,-0.6878,0.1544,0.3205,-52.4988
16:52:22:287,-1.4697,2.1224,14.9421,42.7056,-0.4951,0.3684,0.2257,-52.3569
16:52:22:319,-2.401,1.7205,14.6423,42.9653,0.2236,0.5781,0.4333,-52.2321
16:52:22:323,-2.3758,0.7757,13.2742,43.1537,0.7783,0.1331,0.6335,-52.1316
16:52:22:342,-2.1044,0.132,11.9593,43.2482,1.0199,-0.3854,0.7335,-52.1316
16:52:22:363,-1.918,0.1909,10.6222,43.2196,1.0444,-0.478,0.8155,-52.1316
16:52:22:384,-1.5667,0.399,9.3721,43.2426,0.7101,-0.4376,0.7804,-52.1316
16:52:22:403,-1.1896,0.3485,8.9512,43.0455,0.1075,-0.4706,0.6069,-52.1316
16:52:22:423,-0.7179,-0.1121,8.9345,43.0335,-0.4493,-0.461,0.3769,-52.1316
16:52:22:442,-0.3524,-0.4597,8.7447,42.639,-0.7878,-0.3077,0.1874,-52.1316
16:52:22:463,-0.2454,-0.5365,8.1792,42.1349,-0.9305,-0.05,0.0798,-52.1316
16:52:22:484,-0.3806,-0.2932,7.4324,42.0908,-0.8975,0.2651,0.0884,-52.1316
16:52:22:503,-0.3796,-0.1856,6.6156,42.1959,-0.7772,0.445,0.1916,-52.1316
16:52:22:523,-0.1977,-0.113,6.0234,42.2378,-0.6771,0.4674,0.3119,-52.1316
16:52:22:543,-0.1646,0.2277,5.9988,42.1493,-0.5408,0.5717,0.428,-52.1316
16:52:22:564,-0.1655,0.3912,6.0489,42.1519,-0.3087,0.6686,0.4663,-52.1316
16:52:22:584,-0.2229,0.4971,6.204,41.6573,-0.1522,0.5313,0.412,-52.1316
16:52:22:604,-0.3648,0.7096,6.8015,41.6629,-0.1054,0.0958,0.3407,-52.2327
16:52:22:623,-0.3098,0.7199,8.1425,41.9363,-0.0852,-0.4589,0.2672,-52.3408
16:52:22:643,0.3945,0.501,9.4497,41.5875,-0.017,-0.7463,0.115,-52.4515
16:52:22:667,0.6259,0.7341,10.9553,41.3983,-0.1459,-0.6313,-0.1778,-52.5554
16:52:22:683,0.461,0.9663,12.2331,41.061,-0.3024,-0.2225,-0.3961,-52.5554
16:52:22:703,0.4076,0.9549,12.9553,40.876,-0.4983,0.0607,-0.544,-52.5554
16:52:22:723,0.1833,1.1338,13.4811,40.6081,-0.643,0.2087,-0.6899,-52.5554
16:52:22:743,-0.412,1.5503,13.6264,40.6173,-0.577,0.4397,-0.7942,-52.5554
16:52:22:765,-1.0803,1.9757,13.3072,40.5241,-0.3694,0.6154,-0.7889,-52.5554
16:52:22:783,-0.8901,1.3861,13.1692,40.5479,-0.297,0.2598,-0.758,-52.5554
16:52:22:806,-0.3212,0.3068,13.4791,40.2798,-0.1703,-0.1299,-0.7378,-52.5554
16:52:22:823,0.0086,-0.7113,12.8128,40.4919,0.2385,-0.2342,-0.6526,-52.5554
16:52:22:843,0.0327,-1.2987,11.4342,40.579,0.5845,-0.2002,-0.4397,-52.4575
16:52:22:864,0.1774,-1.386,10.4409,40.9835,0.4802,-0.5877,-0.2545,-52.3531
16:52:22:883,0.6487,-1.0967,9.8378,41.3505,0.0596,-0.9561,-0.1799,-52.2459
16:52:22:903,1.0258,-0.7835,9.3954,41.6861,-0.2576,-0.7069,-0.1991,-52.1354
16:52:22:923,0.7612,-0.3519,8.89,41.9243,-0.3503,-0.0703,-0.2864,-52.0189
16:52:22:943,0.3221,-0.1258,8.1488,41.8021,-0.264,0.4344,-0.3641,-51.8938
16:52:22:964,-0.1189,-0.1059,7.415,41.4195,-0.0405,0.5962,-0.3907,-51.7592
16:52:22:983,-0.4374,-0.2014,6.9469,40.6237,0.2832,0.4131,-0.3439,-51.6169
16:52:23:003,-0.5025,-0.0629,6.4191,39.9975,0.7133,0.2151,-0.2502,-51.4706
16:52:23:023,-0.5042,0.3248,5.7122,39.3473,1.0295,0.1565,-0.1533,-51.3242
16:52:23:050,-0.7109,0.7464,5.5349,38.9184,1.0764,0.0628,-0.1246,-51.1792
16:52:23:063,-0.4893,0.8936,5.88,38.7245,0.9859,0.0256,-0.0649,-51.0371
16:52:23:082,-0.2279,1.1155,6.4922,38.7305,0.7719,-0.0447,-0.0884,-50.898
16:52:23:102,-0.4651,1.915,7.8848,38.6093,0.3971,-0.2513,-0.2033,-50.7579
16:52:23:123,-1.1727,2.0905,10.178,38.3019,0.2097,-0.3045,-0.1693,-50.6159
16:52:23:144,-1.6396,2.0167,12.4007,38.1291,0.4269,-0.3386,0.0884,-50.4795
16:52:23:164,-1.0834,2.388,13.1684,37.8522,0.7133,-0.2598,0.3524,-50.359
16:52:23:183,-0.992,3.491,13.0557,37.7138,0.6611,0.0128,0.395,-50.2575
16:52:23:203,-1.1617,3.9953,12.9716,37.3476,0.4322,0.1746,0.3215,-50.2575
16:52:23:223,-1.1818,3.7428,12.7511,37.6209,0.3439,0.2747,0.3056,-50.2575
16:52:23:244,-1.2147,3.4894,11.9761,37.5227,0.4088,0.2225,0.3002,-50.2575
16:52:23:264,-0.5783,2.3162,11.2241,37.3469,0.3843,-0.3034,0.1799,-50.2575
16:52:23:283,-0.2861,1.061,11.0835,37.5164,0.197,-0.9156,-0.1192,-50.2575
16:52:23:303,-0.5858,0.8204,10.8316,37.5739,0.1597,-0.8294,-0.2246,-50.2575
16:52:23:323,-0.8965,0.5268,10.02,37.5168,0.1821,-0.116,-0.083,-50.2575
16:52:23:343,-1.0432,0.2526,9.3736,37.7192,-0.0383,0.2608,0.0894,-50.2575
16:52:23:363,-0.7863,-0.0643,9.0479,37.7309,-0.5132,0.0735,0.1054,-50.2575
16:52:23:382,-0.6524,-0.3456,9.1342,37.6388,-0.906,-0.2108,0.0564,-50.2575
16:52:23:402,-0.826,-0.2596,8.9927,37.2055,-0.9465,-0.1235,0.1235,-50.2575
16:52:23:422,-0.8469,-0.1173,8.389,36.8769,-0.6995,0.2981,0.3087,-50.2575
16:52:23:443,-1.3442,0.0491,8.4097,36.2899,-0.346,0.7623,0.461,-50.2575
16:52:23:464,-1.6738,0.1287,8.3871,36.2787,0.1246,1.054,0.6569,-50.2575
16:52:23:482,-1.1701,0.0423,7.9258,36.4432,0.6335,1.252,0.8815,-50.2575
16:52:23:503,-0.8856,0.4614,7.0138,36.4113,1.0593,1.4075,1.0902,-50.2575
16:52:23:522,-1.1078,1.3527,6.2331,36.7655,1.2797,1.4671,1.235,-50.3508
16:52:23:544,-1.0058,1.9822,5.9946,36.7561,1.2062,1.1317,1.2254,-50.4837
16:52:23:564,-0.4237,2.334,6.1465,36.811,0.8006,0.3992,1.0167,-50.6495
16:52:23:583,-0.1702,2.7892,6.8481,37.033,0.3407,-0.2108,0.6494,-50.8361
16:52:23:603,-0.306,3.1808,7.8618,36.6389,0.0202,-0.263,0.33,-51.0315
16:52:23:623,-0.2364,3.0011,8.9206,36.6918,-0.28,-0.1256,0.115,-51.2279
16:52:23:644,-0.3442,3.0094,10.1713,36.6547,-0.7687,-0.1107,-0.1011,-51.4178
16:52:23:663,-0.3447,2.9572,11.7509,36.2454,-1.2084,-0.0564,-0.3418,-51.5938
16:52:23:683,-0.3186,2.3829,13.4098,35.9985,-1.3383,-0.0607,-0.5419,-51.7488
16:52:23:703,-0.6394,2.2393,13.5636,35.9376,-1.2052,0.0437,-0.4525,-51.8832
16:52:23:723,-0.1947,1.4978,13.6903,35.9901,-0.9348,0.0809,-0.3428,-52.0028
16:52:23:743,-0.1919,0.7924,13.5351,35.976,-0.4748,0.1246,-0.3577,-52.1077
16:52:23:763,-0.8436,0.728,12.394,36.6087,0.0287,0.1948,-0.3332,-52.198
16:52:23:783,-0.7779,0.2934,10.9788,36.8829,0.0149,0.1427,-0.1948,-52.198
16:52:23:804,-0.5172,0.0068,10.6103,37.3882,-0.3173,-0.2438,-0.1107,-52.198
16:52:23:823,-0.4145,0.3923,10.6261,37.7636,-0.5078,-0.61,-0.1256,-52.198
16:52:23:843,-0.2544,0.5643,10.1592,38.02,-0.3364,-0.4589,-0.1735,-52.198
16:52:23:863,-0.2897,0.5719,8.9657,38.274,-0.0256,-0.1065,-0.2545,-52.198
16:52:23:884,-0.393,0.6012,7.6301,38.3124,0.2385,0.1224,-0.3141,-52.198
16:52:23:903,-0.4953,0.5476,6.4801,38.1558,0.3854,-0.0043,-0.3215,-52.198
16:52:23:923,-0.5175,0.5674,5.9784,37.9122,0.4269,-0.3609,-0.3098,-52.198
16:52:23:943,-0.3661,0.5703,5.8911,37.6599,0.5164,-0.5504,-0.2779,-52.198
16:52:23:964,-0.2317,0.7007,5.8932,37.3131,0.708,-0.4472,-0.2449,-52.198
16:52:23:983,-0.0987,1.0777,5.5152,37.1636,0.8251,-0.1874,-0.2033,-52.198
16:52:24:003,-0.13,1.9243,5.2073,36.8626,0.6718,0.0671,-0.2289,-52.198
16:52:24:023,-0.4251,2.5936,5.6707,36.5655,0.1746,0.1065,-0.3865,-52.198
16:52:24:046,-0.9783,2.8419,7.3618,36.3465,-0.3556,-0.1767,-0.4972,-52.198
16:52:24:063,-1.3915,2.5689,9.5329,36.2876,-0.5792,-0.4173,-0.4418,-52.198
16:52:24:084,-1.6712,2.5223,11.4581,36.5322,-0.4376,-0.3535,-0.2151,-52.198
16:52:24:104,-1.6024,2.9529,12.188,36.7618,-0.2119,0.083,0.0894,-52.198
16:52:24:124,-1.4819,3.4629,12.5817,36.8636,-0.2992,0.3769,0.2864,-52.198
16:52:24:143,-0.9838,3.5703,13.6413,37.0826,-0.4322,0.313,0.4046,-52.198
16:52:24:164,-1.0652,3.1771,14.6795,36.8181,-0.1384,0.1405,0.4503,-52.198
16:52:24:183,-1.1888,2.4073,14.173,36.9631,0.6047,-0.0053,0.5962,-52.198
16:52:24:203,-1.2792,1.7176,12.3205,37.1488,0.988,-0.3737,0.5195,-52.198
16:52:24:224,-1.677,1.0512,11.1807,37.2429,0.9167,-0.6484,0.3843,-52.198
16:52:24:244,-1.8874,0.6564,10.4202,37.5981,0.7846,-0.6452,0.3929,-52.198
16:52:24:263,-1.6802,0.5051,9.7439,37.7725,0.4184,-0.6122,0.4322,-52.198
16:52:24:283,-1.0736,0.2996,9.55,37.9324,-0.1214,-0.6132,0.3801,-52.198
16:52:24:303,0.131,0.0407,9.1374,38.1801,-0.6771,-0.4248,0.2087,-52.198
16:52:24:332,0.5836,-0.1768,9.0635,38.026,-1.1711,0.1054,-0.197,-52.198
16:52:24:343,-0.4847,-0.1331,9.2515,38.0107,-1.4458,0.5078,-0.5515,-52.198
16:52:24:363,-1.5125,-0.0954,9.3145,37.9895,-1.3329,0.544,-0.5408,-52.198
16:52:24:382,-1.6611,-0.4336,8.8015,37.8094,-0.9348,0.4791,-0.3034,-52.198
16:52:24:402,-1.5885,-0.3488,7.9049,37.6415,-0.4173,0.428,0.0277,-52.198
16:52:24:423,-1.4217,0.1829,6.9233,37.4638,0.0415,0.5813,0.4067,-52.198
16:52:24:443,-1.3474,0.6189,6.3834,37.2782,0.2481,0.824,0.6494,-52.198
16:52:24:463,-1.49,0.8283,6.4655,37.1676,0.2129,0.6952,0.6548,-52.198
16:52:24:483,-1.7164,0.843,6.7007,37.5173,0.2023,0.3364,0.6356,-52.2973
16:52:24:503,-1.6874,0.9136,7.493,38.1826,0.2513,-0.0905,0.6154,-52.4154
16:52:24:524,-1.5232,1.0781,8.3135,38.1697,0.3151,-0.4951,0.4865,-52.548
16:52:24:543,-1.6067,1.3095,8.9198,38.0237,0.3535,-0.5845,0.3386,-52.6894
16:52:24:564,-1.7985,1.527,9.4274,38.209,0.3492,-0.3524,0.2789,-52.8368
16:52:24:583,-1.3649,1.3748,10.1011,38.0412,0.1799,-0.2012,0.2704,-52.9895
16:52:24:603,-0.8749,1.5544,11.0016,37.9311,-0.23,-0.1022,0.1544,-53.1442
16:52:24:624,-1.1324,2.116,12.5135,37.9619,-0.6686,0.1384,-0.0415,-53.2941
16:52:24:643,-1.4117,2.1931,14.1397,38.0889,-0.692,0.477,-0.066,-53.4365
16:52:24:663,-1.3087,1.8836,14.6965,37.9941,-0.3364,0.8379,0.1278,-53.5771
16:52:24:683,-0.5448,1.201,14.3956,37.5138,0.0373,0.7176,0.264,-53.7218
16:52:24:703,0.0839,0.4977,13.8512,37.5593,0.3503,0.3183,0.3045,-53.8722
16:52:24:723,0.4342,-0.0771,12.5154,37.4327,0.5707,-0.0064,0.2747,-54.0275
16:52:24:743,0.6694,-0.5438,11.3148,37.4595,0.4844,-0.3024,0.1224,-54.1835
16:52:24:763,0.9633,-0.6721,10.5099,37.7642,0.2246,-0.5888,0.0011,-54.3356
16:52:24:782,1.2369,-0.3755,9.7788,38.3292,-0.0639,-0.6111,-0.0681,-54.4813
16:52:24:805,1.3161,0.0106,8.8126,38.5996,-0.2491,-0.2726,-0.1618,-54.6181
16:52:24:823,0.9246,0.5488,7.7188,39.2785,-0.3002,0.2257,-0.2992,-54.7414
16:52:24:843,0.4732,1.1166,6.5166,39.4423,-0.3151,0.5898,-0.4088,-54.848
16:52:24:863,0.252,1.2812,5.6926,39.6452,-0.2768,0.6803,-0.5355,-54.848
16:52:24:883,-0.056,1.1757,5.382,39.5163,-0.0756,0.4642,-0.6058,-54.848
16:52:24:906,-0.2929,0.9327,5.6169,39.3545,0.1672,-0.0905,-0.6377,-54.848
16:52:24:923,-0.663,0.855,5.7965,38.9124,0.4397,-0.3875,-0.5728,-54.848
16:52:24:943,-0.8614,0.9197,5.8503,38.4473,0.6686,-0.4248,-0.4376,-54.848
16:52:24:964,-0.6428,1.0401,5.8392,38.107,0.5494,-0.5355,-0.3609,-54.848
16:52:24:983,-0.3506,1.6679,7.2204,38.0835,0.1448,-0.8006,-0.4078,-54.848
16:52:25:004,-0.4602,2.274,8.9629,38.2072,-0.0426,-0.708,-0.5824,-54.848
16:52:25:023,-1.4471,2.0695,10.383,38.1735,-0.0053,-0.3013,-0.6303,-54.848
16:52:25:044,-2.302,1.932,11.1918,38.3729,0.0234,0.1065,-0.3354,-54.848
16:52:25:063,-2.7092,2.6482,11.6854,38.5188,-0.0841,0.2598,0.0085,-54.848
16:52:25:084,-2.5684,3.1916,12.4628,38.4091,-0.3151,0.2257,0.2076,-54.848
16:52:25:103,-2.1297,2.7851,13.8404,38.2552,-0.4173,0.1246,0.2683,-54.848
16:52:25:123,-1.9775,2.4187,14.7983,37.8422,-0.1299,0.0468,0.3396,-54.848
16:52:25:143,-1.968,2.0231,14.2166,37.7021,0.4418,0.231,0.4897,-54.848
16:52:25:163,-2.0097,1.2397,12.697,37.1922,0.9933,0.2726,0.6516,-54.848
16:52:25:185,-2.2485,0.9399,11.0218,37.1406,1.1541,-0.1405,0.7005,-54.848
16:52:25:203,-2.1346,0.8873,9.9386,37.5218,0.9337,-0.6601,0.7229,-54.848
16:52:25:223,-1.5166,0.6397,9.3555,37.9045,0.5057,-0.8922,0.6803,-54.848
16:52:25:243,-1.0138,0.4738,9.0425,37.9126,-0.0234,-0.7602,0.5089,-54.848
16:52:25:264,-0.7373,0.1378,8.9103,38.0065,-0.5153,-0.2992,0.3364,-54.848
16:52:25:285,-0.8751,0.2165,8.6085,37.9284,-0.8528,0.2917,0.2033,-54.9421
16:52:25:304,-1.1319,0.3504,7.9695,37.3532,-1.0189,0.8177,0.1618,-55.0372
16:52:25:324,-1.3474,0.4594,7.3974,37.096,-0.9518,1.1232,0.2172,-55.1349
16:52:25:343,-1.2762,0.4731,6.99,37.0027,-0.7037,1.2041,0.2821,-55.2384
16:52:25:364,-1.112,0.5729,6.6661,36.8989,-0.3865,1.1679,0.3205,-55.3495
16:52:25:383,-1.2174,0.8442,6.5467,37.123,-0.1139,1.2084,0.3748,-55.4698
16:52:25:403,-1.3654,0.9889,6.6323,37.2174,0.197,1.2733,0.3716,-55.5991
16:52:25:423,-1.8072,1.1489,6.6603,37.2389,0.2672,1.1019,0.363,-55.7361
16:52:25:443,-1.9287,1.2196,7.4888,37.5196,0.1789,0.4482,0.3449,-55.8802
16:52:25:465,-1.6603,0.9877,9.08,37.4551,0.2555,-0.2108,0.264,-56.0294
16:52:25:483,-1.4406,0.9973,10.0963,37.4206,0.445,-0.5015,0.1352,-56.1783
16:52:25:503,-1.4655,1.6137,10.4881,37.0897,0.5015,-0.3354,0.0447,-56.3233
16:52:25:523,-1.1527,2.1123,10.7102,36.8987,0.115,-0.0916,-0.1427,-56.4601
16:52:25:543,-0.8598,2.364,11.5498,36.3095,-0.3545,0.2779,-0.4599,-56.5806
16:52:25:566,-1.2638,2.3544,12.6687,36.0309,-0.5015,0.5483,-0.8464,-56.6729
16:52:25:584,-2.3859,2.6346,12.9767,35.8474,-0.2896,0.8251,-1.0242,-56.6729
16:52:25:603,-2.9448,2.3871,12.4936,35.7899,-0.2449,0.9859,-1.0657,-56.6729
16:52:25:623,-3.0669,1.0864,12.9436,35.6708,-0.3119,0.7676,-1.0689,-56.6729
16:52:25:643,-3.3911,0.0854,13.4119,35.946,-0.0106,0.4024,-0.938,-56.6729
16:52:25:665,-3.3654,-0.4336,12.4876,36.1194,0.3588,0.1107,-0.6111,-56.6729
16:52:25:683,-2.6955,-0.7258,11.2413,36.5167,0.4205,-0.2097,-0.3034,-56.6729
16:52:25:703,-1.9765,-0.6696,10.3591,36.8445,0.231,-0.6984,-0.131,-56.5774
16:52:25:723,-1.3487,-0.3036,9.4092,37.2333,0.0862,-0.9401,0.0096,-56.4832
16:52:25:743,-1.1466,0.2374,7.9563,37.3807,0.049,-0.7399,0.1192,-56.4832
16:52:25:764,-1.1476,0.6696,6.4447,37.7035,-0.0245,-0.6835,0.2193,-56.4832
16:52:25:783,-0.8635,0.9275,5.3293,37.9667,-0.1501,-0.7942,0.2683,-56.4832
16:52:25:803,-0.2039,0.9643,5.3531,37.9318,-0.2342,-0.9071,0.1767,-56.4832
16:52:25:823,0.3705,0.8613,5.8906,37.8833,-0.0777,-0.7868,-0.0287,-56.4832
16:52:25:843,0.4925,0.7587,5.9225,37.5207,0.1906,-0.4834,-0.2406,-56.4832
16:52:25:866,-0.0518,1.0181,5.8108,36.9557,0.362,-0.2789,-0.3513,-56.4832
16:52:25:883,-0.4338,1.2703,5.992,36.5597,0.3577,-0.5025,-0.3077,-56.3882
16:52:25:903,-0.2158,1.5706,6.7609,36.6381,0.2683,-0.8038,-0.2715,-56.286
16:52:25:923,0.191,1.849,7.7172,36.899,0.1661,-0.9997,-0.3929,-56.1746
16:52:25:945,-0.3304,2.0635,8.9484,37.1126,-0.115,-0.7474,-0.6015,-56.0469
16:52:25:963,-1.2342,2.0818,10.3201,37.4878,-0.3109,-0.28,-0.5313,-55.9033
16:52:25:983,-1.8923,2.1627,11.4756,37.5781,-0.3801,0.3087,-0.3013,-55.751
16:52:26:003,-2.3322,2.4506,12.1621,37.4257,-0.3854,0.593,-0.0543,-55.5991
16:52:26:023,-2.3495,2.49,12.7114,37.2314,-0.5419,0.461,0.1022,-55.4539
16:52:26:045,-2.1056,1.7691,14.0995,37.3341,-0.7218,0.099,0.2087,-55.3194
16:52:26:064,-2.0207,0.8808,15.9543,37.2501,-0.3375,-0.05,0.4354,-55.2015
16:52:26:084,-2.1813,0.756,15.5333,37.2874,0.5888,0.2364,0.7069,-55.1091
16:52:26:103,-2.2369,0.5278,13.353,37.2138,1.1349,0.1682,0.7484,-55.1091
16:52:26:124,-2.433,0.1607,11.1295,37.4329,1.1732,-0.0447,0.7421,-55.1091
16:52:26:143,-2.5354,0.212,9.6931,37.2293,1.0114,-0.2268,0.7761,-55.1091
16:52:26:164,-2.2321,0.3609,8.8415,37.2049,0.5973,-0.544,0.7314,-55.1091
16:52:26:183,-1.7229,0.2995,8.8661,37.2786,0.0841,-0.6558,0.5834,-55.1091
16:52:26:204,-1.2474,0.1144,9.0947,37.3981,-0.2576,-0.4951,0.3567,-55.1091
16:52:26:223,-0.9972,0.0379,8.7817,37.1982,-0.4237,-0.116,0.1224,-55.1091
16:52:26:243,-0.9814,0.165,8.0979,37.0589,-0.5366,0.3396,-0.0234,-55.1091
16:52:26:264,-0.9346,0.1321,7.3735,36.4759,-0.5494,0.7293,-0.0809,-55.1091
16:52:26:283,-0.855,0.2347,6.5851,36.4981,-0.4812,1.0604,-0.1086,-55.1091
16:52:26:303,-1.0706,0.4296,5.8477,36.4199,-0.4173,1.2893,-0.0649,-55.1091
16:52:26:323,-1.3431,0.6505,5.1981,36.7051,-0.3141,1.4075,0.115,-55.1091
16:52:26:360,-1.6437,0.9867,4.981,37.413,-0.2065,1.3244,0.4078,-55.1091
16:52:26:368,-1.571,1.2426,5.5127,38.017,-0.1341,0.8932,0.7016,-55.1091
16:52:26:383,-1.0781,1.3758,6.5084,38.3093,-0.2065,0.2076,0.7165,-55.2133
16:52:26:403,-0.7086,1.4965,7.937,38.6544,-0.3343,-0.3545,0.4099,-55.3325
16:52:26:423,-0.8194,1.4881,9.7694,38.7668,-0.2981,-0.6643,-0.0213,-55.4518
16:52:26:444,-1.3865,1.1559,10.8817,38.6035,-0.1884,-0.4578,-0.3183,-55.5589
16:52:26:464,-1.9424,0.4934,12.0237,38.6251,-0.2619,-0.1043,-0.3492,-55.6508
16:52:26:483,-2.1964,0.5235,13.2017,38.383,-0.4578,0.4461,-0.2044,-55.6508
16:52:26:503,-2.4459,1.3249,13.9526,38.362,-0.5707,0.971,-0.2055,-55.6508
16:52:26:525,-3.0742,2.063,13.9331,38.306,-0.3577,1.3329,-0.264,-55.6508
16:52:26:543,-3.7262,2.6914,13.1861,38.3036,-0.0852,1.2307,-0.1906,-55.6508
16:52:26:563,-3.2302,2.0993,12.9758,38.0717,0.0149,0.4791,-0.0085,-55.6508
16:52:26:583,-1.9573,0.4404,13.2873,38.0786,0.2811,-0.4088,0.0575,-55.6508
16:52:26:605,-1.3034,-0.3404,12.3323,38.2564,0.7037,-0.8666,0.0309,-55.6508
16:52:26:623,-1.1883,-0.5486,10.8446,38.5088,0.824,-0.9167,-0.1097,-55.6508
16:52:26:643,-1.0143,-0.8173,9.9181,38.793,0.5579,-1.0678,-0.2449,-55.6508
16:52:26:663,-0.8465,-0.9309,9.4333,39.8614,0.1693,-1.1466,-0.2906,-55.6508
16:52:26:685,-0.7439,-0.6928,8.7091,40.5364,-0.1086,-0.9688,-0.2385,-55.6508
16:52:26:703,-0.8238,-0.2666,7.7229,41.2093,-0.2662,-0.6388,-0.115,-55.6508
16:52:26:723,-0.9423,0.2205,6.7769,41.5648,-0.3056,-0.3737,0.0287,-55.6508
16:52:26:743,-0.6253,0.7417,6.1797,41.5631,-0.3279,-0.2938,0.0341,-55.6508
16:52:26:764,-0.1104,0.8778,6.0061,41.1767,-0.1831,-0.1661,-0.0298,-55.6508
16:52:26:783,0.221,0.8899,5.8971,41.0196,0.0735,-0.066,-0.1416,-55.6508
16:52:26:803,0.1409,1.1333,5.6146,40.6904,0.3183,0.0128,-0.247,-55.6508
16:52:26:823,-0.2033,1.4715,5.6066,40.44,0.4727,-0.0224,-0.2747,-55.6508
16:52:26:843,-0.2648,1.8969,5.939,40.1079,0.4429,-0.3034,-0.263,-55.6508
16:52:26:866,-0.0161,2.0714,7.1252,40.1697,0.3396,-0.8251,-0.3556,-55.6508
16:52:26:883,-0.3278,2.2029,8.5536,40.217,0.2821,-1.2265,-0.4993,-55.6508
16:52:26:903,-0.9322,2.2443,10.0307,40.2565,0.2566,-1.2339,-0.4919,-55.6508
16:52:26:923,-1.1042,2.1271,11.0935,40.681,0.1767,-0.7793,-0.3311,-55.6508
16:52:26:944,-1.3417,2.1174,12.2617,41.0608,0.0011,-0.0724,-0.1469,-55.6508
16:52:26:964,-1.6834,2.3108,13.3142,41.12,-0.099,0.3833,0.0234,-55.6508
16:52:26:983,-1.675,2.0259,14.3706,41.2222,-0.2481,0.2768,0.1554,-55.6508
16:52:27:003,-1.8884,1.5806,15.6862,41.1881,-0.0724,0.1522,0.363,-55.6508
16:52:27:025,-2.2459,1.6905,15.7957,41.0992,0.6782,0.2843,0.7825,-55.6508
16:52:27:043,-1.8212,2.0294,13.851,40.7987,1.2094,0.2917,1.021,-55.6508
16:52:27:064,-1.357,1.8549,12.1258,40.675,1.2403,-0.1352,0.8517,-55.6508
16:52:27:083,-1.415,1.5261,10.7619,40.7174,1.3159,-0.4642,0.6313,-55.6508
16:52:27:103,-1.756,1.7035,8.7903,40.852,1.2254,-0.4301,0.543,-55.6508
16:52:27:124,-1.6072,1.7031,7.4787,40.582,0.6792,-0.395,0.4525,-55.6508
16:52:27:143,-1.2524,1.4615,6.9693,40.7951,-0.0777,-0.3492,0.297,-55.7447
16:52:27:165,-1.0465,1.0509,7.1744,40.8628,-0.6729,-0.2513,0.1416,-55.8401
16:52:27:183,-0.8076,0.4744,7.1217,40.9196,-0.9688,-0.0117,0.0479,-55.9318
16:52:27:203,-0.6269,0.2073,6.5319,40.7223,-1.0572,0.3556,0.0447,-55.9318
16:52:27:225,-0.5857,0.2465,5.8271,40.9688,-1.0827,0.61,0.0596,-55.9318
16:52:27:243,-0.7205,0.1855,5.794,40.9096,-1.004,0.6079,0.0916,-55.9318
16:52:27:263,-0.8633,0.2896,5.8083,41.3286,-0.7197,0.5983,0.2012,-56.0219
16:52:27:283,-1.0153,0.4373,5.9487,41.3446,-0.346,0.56,0.3716,-56.1194
16:52:27:302,-0.8889,0.9123,5.7886,41.9142,-0.0447,0.4493,0.5068,-56.23
16:52:27:324,-0.8166,1.0619,6.3319,41.9859,-0.0671,0.1416,0.4716,-56.3535
16:52:27:343,-0.6241,1.2062,7.5784,42.3063,-0.2129,-0.3907,0.3332,-56.4855
16:52:27:363,-0.4605,1.2763,9.586,42.4784,-0.3322,-0.8283,0.1107,-56.6184
16:52:27:382,0.1351,1.2304,11.6194,42.6881,-0.2097,-0.8475,-0.1065,-56.7446
16:52:27:403,1.4768,1.6385,12.5603,42.4444,-0.05,-0.3748,-0.5068,-56.853
16:52:27:426,1.394,2.1722,12.7682,42.3902,-0.2598,0.2427,-1.1935,-56.853
16:52:27:443,-0.3662,2.0891,13.5129,42.0469,-0.6164,0.5962,-1.499,-56.853
16:52:27:463,-1.48,1.289,14.092,41.2857,-0.6622,0.8389,-1.3659,-56.853
16:52:27:483,-2.2286,1.3599,13.9646,40.6965,-0.3151,1.0167,-1.0519,-56.853
16:52:27:503,-2.3293,1.9381,13.1225,40.0491,0.0724,0.7591,-0.7186,-56.7521
16:52:27:525,-1.4779,1.144,12.3822,39.4286,0.0948,0.1842,-0.5707,-56.633
16:52:27:543,-1.3698,0.3639,12.1788,39.2053,0.2055,-0.1608,-0.395,-56.5011
16:52:27:563,-1.0369,-0.3492,10.9374,38.9885,0.2789,-0.2087,0.0319,-56.3695
16:52:27:583,0.3136,-1.1412,10.1874,39.0367,-0.1352,-0.4887,0.2949,-56.2502
16:52:27:604,1.2093,-1.1982,10.3256,39.2634,-0.7048,-1.0732,0.1501,-56.141
16:52:27:624,1.3009,-1.1143,10.3955,40.0871,-0.9848,-1.2584,-0.0979,-56.0326
16:52:27:643,0.6589,-0.9456,10.2253,40.7152,-0.9688,-0.9305,-0.2406,-55.9177
16:52:27:663,-0.0582,-0.7222,9.6254,41.5862,-0.6686,-0.3215,-0.1629,-55.7973
16:52:27:683,-0.3763,-0.5042,8.5213,41.9183,-0.23,0.3194,0.0383,-55.6787
16:52:27:706,-0.2891,-0.0844,7.0756,42.0673,0.1852,0.675,0.2374,-55.5698
16:52:27:723,0.0478,0.4101,6.0205,42.3692,0.4887,0.6984,0.2789,-55.4741
16:52:27:743,0.0871,0.8483,5.5665,42.0823,0.6654,0.3428,0.1884,-55.4741
16:52:27:764,0.4388,0.8837,5.5337,41.5174,0.9113,-0.0117,0.0426,-55.4741
16:52:27:783,0.0452,1.2286,6.0792,41.2927,1.0604,-0.4503,-0.1224,-55.4741
16:52:27:805,0.1318,1.4505,6.7229,40.9213,1.1019,-0.7048,-0.1448,-55.4741
16:52:27:825,0.4902,1.6983,7.5927,40.733,0.9731,-0.7474,-0.2236,-55.3807
16:52:27:844,0.553,1.8448,9.7292,40.5396,0.7889,-0.9262,-0.3907,-55.2797
16:52:27:864,-0.8277,1.6764,12.5977,40.3579,0.8858,-1.1477,-0.4312,-55.1682
16:52:27:883,-1.7365,1.8907,14.1571,40.1852,1.2637,-1.1562,0.0202,-55.0599
16:52:27:903,-1.4122,2.8729,13.8166,39.4753,1.564,-0.6388,0.593,-55.0599
16:52:27:923,-0.5176,4.1919,12.7646,39.1017,1.4607,-0.0511,0.9337,-55.0599
16:52:27:943,0.3348,4.5471,11.8435,38.8346,1.0934,0.4738,1.0327,-55.0599
16:52:27:963,0.9692,4.007,11.4462,38.8441,0.9273,0.6814,1.0316,-55.0599
16:52:27:983,0.7039,3.9639,9.9958,38.7722,1.0029,0.5153,0.9007,-55.0599
16:52:28:003,0.3652,3.5834,8.6131,38.9588,0.7751,0.0649,0.6324,-55.1613
16:52:28:023,0.2489,2.5102,8.2825,39.1876,0.3577,-0.5408,0.3407,-55.2759
16:52:28:042,-0.0522,1.747,8.5895,39.1425,-0.0298,-0.8049,0.1842,-55.3943
16:52:28:063,-0.0164,1.3199,8.7536,39.1426,-0.444,-0.7708,0.2481,-55.5145
16:52:28:086,0.4746,1.2451,8.8342,39.0194,-1.0125,-0.5004,0.2502,-55.6341
16:52:28:103,0.9143,0.8728,8.9918,39.2186,-1.5182,-0.0894,0.1043,-55.7452
16:52:28:123,1.1088,0.4062,9.0236,39.2142,-1.712,0.2885,-0.0905,-55.8398
16:52:28:143,0.823,0.4456,8.5257,39.0855,-1.5853,0.8815,-0.2427,-55.8398
16:52:28:164,0.0837,0.6764,7.6156,38.7835,-1.3361,1.3713,-0.2811,-55.8398
16:52:28:185,-0.8643,0.6385,7.2518,38.1419,-1.0977,1.5235,-0.1959,-55.8398
16:52:28:203,-0.9571,0.2292,7.2987,37.9935,-0.6824,1.1158,0.0426,-55.8398
16:52:28:224,-0.4227,0.2022,7.2299,37.5694,-0.1331,0.6548,0.2289,-55.8398
16:52:28:243,-0.6556,0.7444,7.1696,37.4618,0.5281,0.4663,0.1938,-55.8398
16:52:28:263,-1.6521,1.3056,7.1745,37.1694,0.9571,0.1075,0.2193,-55.8398
16:52:28:284,-0.5838,1.2472,7.5282,37.203,1.0231,-0.264,0.3662,-55.8398
16:52:28:303,0.3524,2.2708,8.2695,36.8816,0.675,-0.7293,0.0149,-55.8398
16:52:28:323,0.04,3.6721,9.1581,36.5039,0.1906,-0.9433,-0.5206,-55.8398
16:52:28:343,-0.2,3.3108,10.6817,36.3283,-0.2513,-0.7378,-0.7591,-55.8398
16:52:28:375,-0.036,2.1386,11.8935,36.0458,-0.5259,-0.0617,-0.7197,-55.8398
16:52:28:385,-0.0059,2.2635,12.8857,35.5027,-0.79,0.593,-0.5813,-55.8398
16:52:28:403,-0.2639,3.015,13.9,35.2873,-0.9614,0.8485,-0.5962,-55.8398
16:52:28:423,-0.8755,3.313,14.6878,34.8331,-0.7005,0.9497,-0.461,-55.8398
16:52:28:443,-0.6526,3.2792,14.587,34.3628,-0.1288,0.6132,-0.1011,-55.8398
16:52:28:465,1.4917,1.8014,14.3261,34.1075,0.411,-0.3918,0.0213,-55.8398
16:52:28:483,2.1215,0.4684,12.8381,34.1121,0.9603,-1.0338,-0.2076,-55.8398
16:52:28:504,1.1869,0.1813,10.6758,34.2542,1.1573,-0.9571,-0.3811,-55.8398
16:52:28:523,0.4759,-0.0432,8.9722,34.6101,0.8475,-0.9486,-0.2821,-55.8398
16:52:28:543,0.6834,-0.3497,7.9819,35.0654,0.1267,-1.1488,-0.099,-55.8398
16:52:28:565,0.822,-0.232,7.73,35.2589,-0.6154,-1.1019,0.0649,-55.8398
16:52:28:583,0.6925,0.0952,8.0843,35.4529,-0.9976,-0.8666,0.164,-55.8398
16:52:28:603,0.5333,0.3298,8.0688,35.1328,-0.9103,-0.4173,0.2055,-55.8398
16:52:28:623,0.6604,0.7114,7.4914,35.1015,-0.6399,0.0522,0.1533,-55.8398
16:52:28:643,0.6094,0.8442,6.8433,34.7676,-0.3439,0.3971,0.0287,-55.8398
16:52:28:665,0.4906,0.8653,6.249,34.6664,-0.0586,0.4748,-0.0617,-55.7498
16:52:28:683,0.3322,1.0338,5.917,34.3093,0.2033,0.3662,-0.099,-55.6596
16:52:28:703,0.2599,1.2136,5.6026,33.9306,0.4248,0.2853,-0.0224,-55.6596
16:52:28:723,0.5246,1.5915,5.9626,33.7307,0.5632,0.0767,0.0511,-55.6596
16:52:28:751,1.2495,1.9286,6.5935,33.4753,0.5355,-0.1491,0.0202,-55.6596
16:52:28:764,1.6642,2.4682,7.664,33.3961,0.3577,-0.3854,-0.28,-55.6596
16:52:28:783,1.0243,2.764,9.1676,33.4222,0.0798,-0.4727,-0.5366,-55.5583
16:52:28:803,0.0003,2.6594,10.721,33.3409,-0.099,-0.214,-0.4642,-55.4422
16:52:28:823,-0.7377,2.7543,12.1536,33.0031,-0.1139,0.1576,-0.0948,-55.321
16:52:28:843,-0.5943,3.2042,12.9163,32.8178,-0.0862,0.3961,0.2545,-55.2088
16:52:28:864,0.3596,3.1416,13.4049,33.0969,-0.264,0.3045,0.395,-55.1114
16:52:28:883,1.2172,2.6697,14.4304,33.64,-0.4983,0.0852,0.3535,-55.1114
16:52:28:903,1.3729,2.4008,15.1346,33.9152,-0.2885,0.0458,0.3279,-55.1114
16:52:28:923,1.1664,1.9183,14.4299,34.3732,0.1299,0.0277,0.3013,-55.1114
16:52:28:945,0.6294,1.2032,12.817,34.3258,0.5142,0.1395,0.2906,-55.1114
16:52:28:963,-0.3711,1.3051,10.5534,34.2567,0.8847,0.3726,0.395,-55.1114
16:52:28:983,-0.962,1.5968,8.1961,34.427,0.79,0.1533,0.4557,-55.1114
16:52:29:003,-0.9696,1.2654,6.9499,34.7146,0.1203,-0.4291,0.445,-55.1114
16:52:29:024,-0.7524,0.5726,7.5604,34.9793,-0.6037,-0.9656,0.4024,-55.1114
16:52:29:043,-0.4347,0.0536,8.6362,35.3378,-0.9262,-0.9763,0.3843,-55.1114
16:52:29:063,-0.1926,-0.2864,9.2561,35.6126,-0.8602,-0.4993,0.3652,-55.1114
16:52:29:083,-0.3047,-0.305,8.8958,35.9065,-0.5579,0.2651,0.3694,-55.1114
16:52:29:104,-0.4741,-0.1878,8.0187,35.8868,-0.2491,0.7953,0.4621,-55.1114
16:52:29:123,-0.4286,-0.0129,6.8771,36.0532,-0.0266,0.9773,0.5355,-55.1114
16:52:29:143,-0.4878,0.3281,5.979,36.5894,0.0841,0.972,0.5866,-55.1114
16:52:29:164,-0.5229,0.7114,5.6636,36.7848,0.1672,0.8943,0.6207,-55.2132
16:52:29:183,-0.3199,0.9823,6.1768,37.0003,0.2278,0.6707,0.609,-55.3335
16:52:29:203,0.4986,1.0841,7.1102,37.3713,0.2395,0.2992,0.4195,-55.4675
16:52:29:223,0.9959,1.1796,8.0997,37.2833,0.1799,0.0724,0.0053,-55.6018
16:52:29:243,0.6051,1.3947,9.0166,37.4158,0.0405,0.0756,-0.3449,-55.7231
16:52:29:265,-0.2225,1.4776,9.7713,37.7484,-0.1267,0.428,-0.4195,-55.8257
16:52:29:283,-0.4648,1.5911,10.2152,37.8726,-0.378,0.7527,-0.2715,-55.8257
16:52:29:303,-0.0725,1.6288,11.0587,37.5802,-0.8751,0.757,-0.2065,-55.8257
16:52:29:323,0.2808,2.0479,12.9524,37.5459,-1.1796,0.6569,-0.2672,-55.8257
16:52:29:343,-0.0199,2.5862,14.1051,37.2749,-1.0285,0.7676,-0.3109,-55.8257
16:52:29:363,-0.1508,2.9746,14.5537,36.6896,-0.7272,0.8123,-0.0713,-55.8257
16:52:29:382,1.5251,1.6412,15.1274,36.6959,-0.5227,0.2204,-0.0128,-55.8257
16:52:29:404,2.0693,0.4699,15.2415,37.1362,0.1107,-0.5281,-0.3119,-55.8257
16:52:29:424,1.2441,-0.1697,13.3858,37.6887,0.6792,-0.725,-0.5898,-55.8257
16:52:29:443,0.7723,-0.9114,11.7091,38.0775,0.5866,-0.7932,-0.6569,-55.8257
16:52:29:464,0.7431,-1.4444,10.6724,38.7507,0.2236,-0.9039,-0.5781,-55.8257
16:52:29:483,0.7728,-1.2289,9.8474,38.8978,-0.115,-0.7357,-0.445,-55.8257
16:52:29:505,0.6584,-0.5753,8.9153,39.2988,-0.2364,-0.3258,-0.4014,-55.8257
16:52:29:523,0.4422,-0.1628,7.7904,39.3612,-0.1459,0.1075,-0.4269,-55.8257
16:52:29:543,0.2096,-0.0344,6.5535,39.1787,0.0607,0.3929,-0.477,-55.8257
16:52:29:564,-0.0682,0.0439,5.4445,39.2577,0.2183,0.3961,-0.5057,-55.7243
16:52:29:586,-0.3545,0.1539,5.2576,38.7872,0.3056,0.0979,-0.461,-55.6101
16:52:29:603,-0.4507,0.1526,5.3292,38.8046,0.5547,-0.1544,-0.3982,-55.4858
16:52:29:623,-0.6081,0.3325,5.5151,38.8171,0.8102,-0.362,-0.3087,-55.3553
16:52:29:643,-0.7329,0.6997,5.7256,38.4631,0.8538,-0.4014,-0.1746,-55.2235
16:52:29:667,-0.2347,0.8666,6.6341,38.3284,0.6292,-0.4983,-0.0383,-55.0952
16:52:29:683,0.4512,1.3886,7.6491,38.2625,0.197,-0.4237,-0.1043,-54.969
16:52:29:703,0.0892,1.7845,9.391,38.6867,-0.1459,-0.1341,-0.2555,-54.8382
16:52:29:723,-0.7779,1.9516,10.708,38.9028,-0.1703,0.1469,-0.1916,-54.7027
16:52:29:743,-1.3113,2.2012,11.1559,39.3353,-0.0809,0.2183,0.0873,-54.5711
16:52:29:766,-0.9586,2.6201,11.6638,39.7426,-0.1416,0.1352,0.3535,-54.453
16:52:29:783,-0.5401,3.0119,12.7526,39.8048,-0.1948,-0.1757,0.4014,-54.3514
16:52:29:803,-0.482,2.9739,13.9053,39.9185,-0.0916,-0.3087,0.3961,-54.3514
16:52:29:823,-0.5777,2.3721,14.2733,40.128,0.2427,-0.0224,0.5355,-54.3514
16:52:29:844,-0.566,1.9661,13.3631,40.5149,0.5983,0.0234,0.6356,-54.3514
16:52:29:864,-0.4378,1.2148,12.3058,41.1281,0.5334,-0.2853,0.5536,-54.3514
16:52:29:882,-0.7037,0.5394,11.7437,41.7023,0.5164,-0.444,0.4855,-54.3514
16:52:29:902,-0.9006,0.5867,10.588,42.0305,0.3684,-0.4024,0.5291,-54.3514
16:52:29:924,-0.5637,0.3593,9.9618,42.446,-0.1224,-0.4461,0.5153,-54.3514
16:52:29:943,-0.0568,0.0084,9.8095,42.4945,-0.6345,-0.3992,0.4227,-54.3514
16:52:29:963,0.299,-0.1351,9.4352,42.4932,-0.9614,-0.0703,0.297,-54.3514
16:52:29:983,0.2108,0.0854,8.9623,42.6379,-1.0764,0.4493,0.2289,-54.3514
16:52:30:002,-0.1199,0.3722,8.3376,42.5442,-0.9188,0.8485,0.2268,-54.3514
16:52:30:024,-0.3039,0.3846,7.5736,42.3761,-0.576,0.972,0.2832,-54.3514
16:52:30:044,-0.6166,0.2572,6.577,42.2151,-0.1597,0.8634,0.4173,-54.3514
16:52:30:064,-0.6652,0.0764,5.6793,42.0976,0.1789,0.5366,0.6058,-54.445
16:52:30:083,-0.7667,0.165,5.14,42.3713,0.3481,0.1852,0.7964,-54.5622
16:52:30:103,-1.0843,0.4551,4.7087,42.452,0.3332,0.1427,0.9262,-54.7076
16:52:30:124,-0.5347,0.3471,5.5926,42.7998,-0.049,-0.1118,0.8805,-54.8799
16:52:30:143,0.2435,0.1919,8.032,43.101,-0.4418,-0.6899,0.6388,-55.0698
16:52:30:164,0.6714,0.4561,10.3574,43.4269,-0.2278,-0.692,0.5195,-55.2713
16:52:30:183,0.9977,1.3043,10.806,43.1881,0.1842,-0.3843,0.3939,-55.4818
16:52:30:203,1.9608,1.5621,10.6598,43.1075,-0.0777,-0.1703,0.1533,-55.6937
16:52:30:225,2.4691,1.7523,11.6271,42.752,-0.7335,-0.0064,-0.3343,-55.8898
16:52:30:243,1.6693,1.8401,13.5869,42.7073,-1.071,0.3386,-0.7623,-56.053
16:52:30:263,0.5279,1.5916,14.7868,42.4826,-0.889,0.7208,-0.8538,-56.1785
16:52:30:283,0.0014,0.9669,14.8271,42.6829,-0.6718,0.8581,-0.8049,-56.2698
16:52:30:303,-0.2119,-0.3576,14.8602,42.8088,-0.4546,0.5345,-0.7367,-56.2698
16:52:30:325,-0.7824,-0.6402,14.2606,43.242,0.0724,0.1842,-0.4386,-56.2698
16:52:30:343,-0.2525,-1.0611,12.6211,43.3808,0.3716,-0.263,-0.0724,-56.2698
16:52:30:380,0.6546,-1.8725,11.5174,43.9726,0.2385,-0.8634,0.1203,-56.2698
16:52:30:383,1.2287,-1.9378,11.1783,44.3141,0.0788,-1.2158,0.2023,-56.2698
16:52:30:403,1.1671,-0.8794,10.4378,44.6319,0.1107,-0.9986,0.2033,-56.2698
16:52:30:423,0.985,-0.1285,9.2158,44.8892,0.2651,-0.4589,0.1522,-56.2698
16:52:30:443,0.7429,0.2035,7.6262,45.2187,0.3961,0.0777,0.0894,-56.2698
16:52:30:463,0.3635,0.4744,6.2802,45.25,0.4589,0.2598,0.0373,-56.2698
16:52:30:483,0.2448,0.5275,5.2709,45.3439,0.4961,0.1395,0.0266,-56.2698
16:52:30:505,0.2569,0.4533,4.8128,45.2686,0.444,-0.1267,-0.0213,-56.2698
16:52:30:523,0.2973,0.6701,5.0256,44.9976,0.4056,-0.3673,-0.0798,-56.2698
16:52:30:543,0.503,0.8423,5.6431,44.884,0.3726,-0.444,-0.1884,-56.2698
16:52:30:563,0.7295,1.2185,6.3667,44.779,0.33,-0.3907,-0.3599,-56.2698
16:52:30:583,1.0073,1.5165,7.4262,44.6004,0.1938,-0.2342,-0.5962,-56.2698
16:52:30:605,1.0103,1.5097,8.6017,44.4637,0.1086,-0.0948,-0.8155,-56.2698
16:52:30:624,0.5945,1.3825,9.6063,44.443,-0.066,0.0948,-0.9305,-56.2698
16:52:30:643,-0.436,1.3638,10.704,44.399,-0.1693,0.4472,-0.7665,-56.2698
16:52:30:663,-1.4576,1.6596,11.3644,44.3703,-0.066,0.7293,-0.3087,-56.2698
16:52:30:683,-1.5413,1.9327,11.6095,44.4744,0.0298,0.5621,0.2353,-56.2698
16:52:30:704,-0.346,2.0824,12.2078,44.7976,-0.2502,0.1491,0.527,-56.2698
16:52:30:723,0.3572,1.9925,13.7415,44.751,-0.1011,0.0671,0.5962,-56.2698
16:52:30:743,0.1015,1.9163,13.3883,44.8404,0.5536,0.2768,0.6792,-56.2698
16:52:30:763,-0.4475,1.719,11.3902,45.1375,0.8719,0.4141,0.7495,-56.2698
16:52:30:783,-0.4219,0.8204,10.1637,45.4461,0.511,0.0596,0.643,-56.2698
16:52:30:804,-0.1918,-0.2252,10.7728,45.6732,-0.1544,-0.9262,0.3513,-56.2698
16:52:30:825,0.0445,-0.9538,11.818,45.8691,-0.5174,-1.6012,0.0554,-56.2698
16:52:30:843,0.1218,-1.2618,11.9413,46.3678,-0.5451,-1.4107,-0.0671,-56.2698
16:52:30:863,0.1771,-1.4052,11.3308,46.7574,-0.5259,-0.6335,-0.0075,-56.2698
16:52:30:884,0.2578,-1.1859,10.1883,47.0617,-0.5834,0.1778,0.1192,-56.2698
16:52:30:903,0.1021,-0.3175,8.8088,47.5099,-0.642,0.939,0.2598,-56.2698
16:52:30:923,0.0063,0.5018,7.5511,47.5344,-0.6377,1.5661,0.3854,-56.2698
16:52:30:943,0.5259,0.2986,6.5334,47.5046,-0.5004,1.8514,0.477,-56.3604
16:52:30:963,1.1584,0.2798,6.0072,47.6224,-0.2779,1.5437,0.4727,-56.4633
16:52:30:985,1.1467,0.9968,5.9561,47.8889,0.0745,0.8368,0.3396,-56.5762
16:52:31:003,0.4931,1.8554,5.8408,47.9041,0.4695,0.4227,0.0383,-56.6903
16:52:31:023,-0.056,1.7818,5.4393,48.0236,0.6846,0.3311,-0.2619,-56.7955
16:52:31:043,-0.5926,1.1933,5.8671,48.1847,0.4653,0.2257,-0.511,-56.7955
16:52:31:063,-1.2068,0.3055,7.5683,48.16,-0.0032,-0.3098,-0.7005,-56.7955
16:52:31:085,-2.0689,-0.2531,10.0864,48.0479,-0.1874,-0.6782,-0.6154,-56.7955
16:52:31:103,-2.5547,-0.1906,11.9977,48.0357,0.0096,-0.8187,-0.2555,-56.7955
16:52:31:123,-1.8846,0.158,12.6948,47.7259,0.0735,-0.5281,0.0245,-56.7955
16:52:31:143,-0.6817,0.0967,13.3196,47.0743,-0.1831,-0.0043,0.0511,-56.7955
16:52:31:164,-0.5368,0.8268,14.2388,46.9202,-0.4834,0.412,-0.0969,-56.7955
16:52:31:184,-0.833,1.6403,14.5848,46.6829,-0.3024,0.7932,-0.0671,-56.7955
16:52:31:204,-0.1412,1.9408,13.8644,46.8374,-0.0937,0.9092,0.083,-56.7955
16:52:31:223,1.9936,0.8577,13.8274,47.1776,-0.0703,0.5451,0.0138,-56.7955
16:52:31:243,2.8708,0.5793,13.5208,47.6594,0.263,0.2651,-0.4046,-56.7955
16:52:31:266,2.67,0.1089,12.3654,48.0719,0.3247,0.1448,-0.8059,-56.7955
16:52:31:283,2.5214,-1.2346,11.7261,48.3527,0.0085,-0.1107,-1.0529,-56.7955
16:52:31:303,2.1735,-2.0627,11.3307,48.5165,-0.33,-0.2193,-1.12,-56.7955
16:52:31:323,1.2588,-1.6044,10.6748,48.9067,-0.4173,-0.0596,-1.0167,-56.6957
16:52:31:343,0.4351,-0.5732,9.5117,49.0858,-0.2214,0.2587,-0.7932,-56.5638
16:52:31:364,0.1307,-0.0651,8.1632,49.0517,0.1054,0.4099,-0.6335,-56.4062
16:52:31:383,-0.0347,0.2663,6.7105,49.1746,0.4727,0.33,-0.6303,-56.2294
16:52:31:403,-0.2226,0.3377,5.3832,49.0322,0.7282,0.0096,-0.658,-56.0364
16:52:31:422,-0.4383,0.2524,4.779,48.8134,0.8869,-0.3758,-0.6792,-55.8282
16:52:31:443,-0.775,0.2487,4.3382,48.651,1.0263,-0.5951,-0.6984,-55.6039
16:52:31:465,-1.2253,0.4994,4.0269,48.2438,1.0263,-0.5792,-0.6601,-55.3635
16:52:31:483,-1.4302,0.7901,4.343,48.3131,0.8038,-0.5568,-0.5611,-55.1114
16:52:31:503,-1.4317,1.1257,5.5999,48.2079,0.4631,-0.3939,-0.4642,-54.8508
16:52:31:523,-1.0638,1.2542,6.9991,48.249,0.0798,0.4578,-0.3822,-54.5786
16:52:31:543,-1.314,1.5462,8.3572,48.4123,-0.5185,1.9611,-0.4131,-54.2916
16:52:31:564,-2.6799,1.5695,9.6994,48.9126,-1.1924,3.3025,-0.428,-54.2916
16:52:31:583,-4.5394,1.3709,11.2064,49.0711,-1.4703,3.2206,-0.3939,-54.2916
16:52:31:603,-5.9899,1.2569,12.3985,49.2128,-1.152,1.8174,-0.2757,-53.9866
16:52:31:623,-6.3946,0.8695,13.0428,49.5718,-0.5717,0.0713,-0.0373,-53.6984
16:52:31:653,-5.8865,0.7248,13.1138,49.8753,-0.2321,-0.9316,0.3396,-53.4281
16:52:31:664,-5.107,0.9239,13.1164,50.2572,-0.0479,-0.8986,0.6963,-53.1794
16:52:31:685,-4.5292,0.9832,13.0429,50.4589,0.0926,-0.5015,0.8826,-52.9598
16:52:31:703,-3.6741,-0.0367,13.0181,50.7408,0.2002,-0.6196,0.8347,-52.7766
16:52:31:723,-2.993,-0.8832,12.6264,50.602,0.181,-0.9603,0.6228,-52.6279
16:52:31:747,-2.7197,-1.2229,12.3762,50.5815,0.0468,-1.0327,0.5153,-52.505
16:52:31:764,-2.1719,-1.4605,11.8115,50.6583,-0.0128,-0.8837,0.5717,-52.4028
16:52:31:783,-1.5956,-1.3699,10.6281,50.5363,0.0064,-0.658,0.6367,-52.4028
16:52:31:803,-1.2624,-0.8208,9.1866,50.2563,0.0213,-0.5291,0.6548,-52.4028
16:52:31:823,-0.9626,-0.3131,7.8482,50.2084,0.0458,-0.3875,0.6824,-52.4028
16:52:31:844,-0.7595,0.0508,6.6578,49.9638,0.0884,-0.1512,0.725,-52.4028
16:52:31:863,-0.5327,0.3233,5.6844,49.8533,0.1352,0.0617,0.7889,-52.4028
16:52:31:883,-0.3033,0.4404,5.0394,50.2322,0.247,0.1075,0.889,-52.4028
16:52:31:903,0.0038,0.6336,4.4425,50.2378,0.3205,0.0916,0.9699,-52.4028
16:52:31:924,0.2325,0.9256,4.2573,50.4039,0.2949,0.0277,0.906,-52.5006
16:52:31:943,0.3885,1.3123,4.6295,50.6698,0.1373,-0.1789,0.7123,-52.6304
16:52:31:964,0.7922,1.3631,6.1695,50.7493,-0.1416,-0.7453,0.4535,-52.7826
16:52:31:984,0.9847,0.9778,8.6835,50.714,-0.2555,-1.2265,0.1054,-52.9467
16:52:32:003,1.2949,0.1813,10.9145,51.1128,-0.0245,-1.351,-0.2491,-53.1046
16:52:32:023,1.0887,-0.1206,11.7929,50.8657,0.2491,-0.9667,-0.5888,-53.2389
16:52:32:043,0.4504,0.0485,11.9099,50.5963,0.2332,-0.3322,-0.7538,-53.3461
16:52:32:066,0.2181,0.1864,11.7687,50.3858,-0.0884,0.3407,-0.8336,-53.3461
16:52:32:083,-0.252,0.3938,12.161,50.2324,-0.3396,0.8304,-0.9699,-53.3461
16:52:32:103,-1.056,0.7529,12.2228,50.2798,-0.2704,1.0572,-0.9944,-53.3461
16:52:32:123,-1.7179,1.4719,11.5413,50.5905,-0.2172,1.1807,-0.9145,-53.3461
16:52:32:143,-1.4799,1.085,11.3701,50.6897,-0.5132,0.8943,-0.9294,-53.3461
16:52:32:163,-1.5548,-0.0295,11.9952,50.9279,-0.7634,0.56,-1.0338,-53.3461
16:52:32:183,-2.3,-0.2676,12.2526,50.6734,-0.5834,0.411,-0.8954,-53.2285
16:52:32:203,-1.9165,-1.0283,11.7319,50.792,-0.5983,0.0852,-0.7208,-53.0882
16:52:32:223,-0.7837,-2.1567,11.5861,51.0111,-0.9965,-0.4738,-0.6878,-52.9355
16:52:32:243,-0.0876,-2.4057,11.8146,50.8973,-1.2584,-0.8091,-0.6569,-52.7687
16:52:32:263,-0.032,-1.7718,11.3917,51.412,-1.1179,-0.5195,-0.5824,-52.5818
16:52:32:282,-0.4536,-0.9462,10.243,51.6353,-0.6846,0.1544,-0.4791,-52.3732
16:52:32:302,-0.8731,-0.3489,8.5388,51.3956,-0.2119,0.6558,-0.3375,-52.1485
16:52:32:325,-1.0691,0.0415,6.8227,51.4395,0.1522,0.7399,-0.1629,-51.9169
16:52:32:343,-1.0348,0.3704,5.4914,51.1973,0.3535,0.4972,0.0181,-51.6878
16:52:32:363,-0.8105,0.5952,4.76,50.8887,0.4621,0.099,0.1363,-51.4685
16:52:32:385,-0.6113,0.7842,4.6615,50.7465,0.5526,-0.3684,0.2002,-51.2628
16:52:32:403,-0.4021,1.035,4.9831,50.8,0.6196,-0.6601,0.2023,-51.0713
16:52:32:423,-0.1337,1.2837,5.4979,50.5072,0.5909,-0.7708,0.1001,-50.8924
16:52:32:443,0.0058,1.426,6.3307,50.5813,0.3481,-0.8272,-0.0969,-50.7232
16:52:32:463,-0.428,1.4173,8.2109,50.6607,0.0245,-0.9624,-0.2917,-50.5573
16:52:32:485,-0.8553,0.7483,10.496,50.5872,-0.1778,-0.8805,-0.3449,-50.3864
16:52:32:503,-1.6143,0.2368,12.3506,50.9941,-0.2023,-0.3513,-0.1959,-50.2055
16:52:32:523,-2.1628,0.1613,13.3614,50.9715,-0.1597,0.2214,0.1054,-50.021
16:52:32:542,-2.0503,-0.2325,13.945,51.3254,-0.1522,0.4312,0.3737,-49.8462
16:52:32:566,-1.5735,-0.3188,14.489,51.6132,-0.2044,0.3119,0.5621,-49.6922
16:52:32:583,-1.3563,0.1602,14.8661,51.7493,-0.0373,0.346,0.7133,-49.5616
16:52:32:603,-1.0713,0.4373,14.076,52.1659,0.3939,0.379,0.8453,-49.4569
16:52:32:624,-0.6373,0.3888,12.1802,52.325,0.6281,0.1427,0.7634,-49.4569
16:52:32:643,-0.2722,-0.1007,10.7373,52.2586,0.6047,-0.2587,0.4386,-49.4569
16:52:32:663,-0.5249,-0.5406,9.9641,52.4451,0.4365,-0.6303,0.0894,-49.4569
16:52:32:683,-1.061,-1.1042,9.6441,52.5199,0.1597,-0.7846,-0.0468,-49.4569
16:52:32:703,-1.016,-1.7187,9.8777,52.6763,-0.2534,-0.8485,-0.0617,-49.4569
16:52:32:723,-0.4009,-2.2635,10.0253,52.71,-0.6441,-0.7293,-0.1405,-49.4569
16:52:32:743,-0.1287,-2.6571,10.0098,52.7835,-0.8943,-0.4333,-0.2491,-49.4569
16:52:32:764,-0.4154,-2.5679,9.7217,52.9597,-0.9177,-0.0075,-0.2555,-49.4569
16:52:32:783,-1.3192,-1.6078,9.0864,53.2691,-0.6952,0.4599,0.0117,-49.4569
16:52:32:803,-1.9585,-0.8027,8.216,53.7505,-0.3545,0.7091,0.3982,-49.4569
16:52:32:824,-2.2041,-0.2666,6.978,54.0932,0.1097,0.7761,0.8326,-49.4569
16:52:32:843,-2.1025,0.1814,5.6348,54.4664,0.445,0.7144,1.169,-49.4569
16:52:32:863,-1.3849,0.1661,4.6164,54.6474,0.4503,0.3694,1.3447,-49.4569
16:52:32:883,-0.9125,0.2938,5.0999,54.9276,0.0479,-0.2534,1.3564,-49.4569
16:52:32:903,-0.4768,0.3775,6.8442,55.2926,-0.2161,-0.6718,1.3659,-49.5861
16:52:32:924,0.7443,0.2822,8.579,55.5636,-0.1448,-0.6771,1.1477,-49.7583
16:52:32:943,1.2478,0.4171,9.5801,55.2929,-0.0841,-0.395,0.5643,-49.9548
16:52:32:963,1.0322,0.3211,10.0197,55.4395,-0.1448,0.0522,0.0692,-50.1583
16:52:32:983,0.699,-0.4231,10.4467,55.7602,-0.363,0.4131,-0.2906,-50.3541
16:52:33:003,0.2033,-1.2721,11.4204,55.6632,-0.609,0.4759,-0.5025,-50.5337
16:52:33:025,-0.2519,-1.4938,12.3836,55.6478,-0.8262,0.5941,-0.5749,-50.69
16:52:33:044,-0.8499,-1.2034,13.5316,55.7596,-0.8464,0.9135,-0.445,-50.8203
16:52:33:063,-0.7975,-0.9729,14.0097,55.781,-0.4876,1.1434,-0.1565,-50.9291
16:52:33:083,0.4257,-1.7281,13.5493,56.1043,-0.1256,0.7261,-0.1341,-51.0287
16:52:33:103,0.8853,-2.3666,13.2626,56.5324,0.0256,-0.0724,-0.3811,-51.1204
16:52:33:124,0.2516,-2.0299,13.2172,57.2846,0.3982,-0.6079,-0.3311,-51.1204
16:52:33:143,0.4927,-2.1454,12.6468,57.8264,0.8006,-1.2456,-0.05,-51.1204
16:52:33:164,1.5949,-2.5728,11.7563,58.418,0.8773,-1.8408,0.0394,-51.1204
16:52:33:182,2.0964,-2.2171,11.0393,58.9259,0.5909,-1.992,-0.0788,-51.1204
16:52:33:203,1.9871,-1.4814,10.619,59.3321,0.2364,-1.4894,-0.1576,-51.1204
16:52:33:224,1.5791,-0.8097,9.7187,59.5888,0.1395,-0.5589,-0.2161,-51.1204
16:52:33:243,1.0055,-0.3244,8.3044,59.9831,0.2193,0.2853,-0.2811,-51.1204
16:52:33:263,0.313,0.0081,6.7954,60.0883,0.3513,0.6537,-0.2885,-51.1204
16:52:33:283,0.116,0.1772,5.551,60.1757,0.4312,0.5781,-0.2821,-51.1204
16:52:33:302,0.0552,0.2578,4.7363,60.257,0.428,0.1927,-0.3673,-51.1204
16:52:33:323,-0.175,0.4273,4.6231,60.1577,0.395,-0.2513,-0.4376,-51.1204
16:52:33:343,-0.452,0.5152,5.0184,59.8483,0.4301,-0.6228,-0.4653,-51.1204
16:52:33:364,-0.1285,0.4995,5.5864,59.8082,0.4546,-0.8102,-0.4354,-51.1204
16:52:33:383,0.0165,0.7665,6.2679,59.7316,0.3471,-0.6952,-0.4834,-51.1204
16:52:33:403,-0.1442,1.1925,6.893,59.779,0.1139,-0.5472,-0.5121,-51.1204
16:52:33:423,-0.3293,1.6299,7.5303,60.1114,-0.2821,-0.5749,-0.4024,-51.1204
16:52:33:443,-0.3778,1.8905,8.7358,60.7933,-0.7123,-0.7921,-0.1629,-51.1204
16:52:33:463,-0.135,1.8067,10.3748,61.5285,-0.9624,-0.9103,0.1171,-51.1204
16:52:33:484,0.7018,1.2851,12.241,62.1961,-0.9369,-0.7037,0.3577,-51.1204
16:52:33:507,1.4912,0.0621,14.0289,62.589,-0.8634,-0.494,0.4035,-51.1204
16:52:33:523,1.1172,-1.096,16.5683,62.9271,-0.9028,-0.6558,0.3992,-51.1204
16:52:33:543,0.8119,-1.6253,18.0339,63.4122,-0.2779,-0.5387,0.6611,-51.1204
16:52:33:563,1.1209,-2.1847,17.0403,63.9162,0.79,-0.3535,0.9231,-51.1204
16:52:33:583,1.5277,-2.3806,14.0975,64.4438,1.2946,-0.3513,0.8922,-51.1204
16:52:33:605,1.4897,-2.2038,11.961,65.246,1.2062,-0.297,0.708,-51.1204
16:52:33:623,1.3571,-1.9061,10.7277,65.5098,0.8262,-0.3662,0.4322,-51.1204
16:52:33:643,1.3744,-1.8556,10.1311,65.6744,0.3609,-0.3684,0.1331,-51.2142
16:52:33:664,1.3126,-1.7388,9.5726,65.5589,0.0192,-0.1182,-0.1246,-51.3105
16:52:33:683,1.1152,-1.5504,8.9563,65.4842,-0.1874,0.2555,-0.2353,-51.3105
16:52:33:704,1.2194,-1.3098,8.2959,65.3326,-0.2747,0.5707,-0.2587,-51.3105
16:52:33:723,1.0874,-1.0016,7.5431,65.5082,-0.2214,0.8507,-0.2619,-51.3105
16:52:33:743,0.8239,-0.7097,6.7293,65.5671,-0.0596,1.0636,-0.231,-51.3105
16:52:33:763,0.4334,-0.4481,5.94,65.6341,0.1235,1.1264,-0.1352,-51.3105
16:52:33:783,0.182,-0.155,5.3017,65.876,0.33,1.1392,0.0192,-51.3105
16:52:33:804,0.3701,0.3312,5.2344,66.354,0.4535,1.0125,0.1522,-51.3105
16:52:33:823,0.7497,0.5432,5.6349,66.6002,0.3716,0.5408,0.0224,-51.3105
16:52:33:843,0.5604,0.6441,6.7861,67.1201,0.1927,-0.2875,-0.2257,-51.3105
16:52:33:863,0.4149,0.3718,8.412,68.0201,0.1533,-0.8123,-0.2555,-51.3105
16:52:33:885,0.9135,0.1366,9.721,68.5406,0.1959,-0.791,-0.2033,-51.3105
16:52:33:903,1.3731,0.0833,10.339,68.8201,0.1459,-0.2225,-0.2481,-51.3105
16:52:33:923,1.3997,0.1598,10.3616,68.8614,-0.1427,0.2523,-0.3822,-51.3105
16:52:33:943,1.2112,-0.2554,10.5684,68.9774,-0.6207,0.1544,-0.4844,-51.3105
16:52:33:963,0.6403,-0.0454,11.7336,68.8869,-0.9699,-0.3215,-0.4599,-51.3105
16:52:33:984,0.4642,0.0281,12.9251,68.9042,-0.8826,-0.3034,-0.3545,-51.3105
16:52:34:003,0.2575,0.2077,13.2735,69.3284,-0.5057,0.3215,-0.2566,-51.3105
16:52:34:023,0.4373,0.1851,12.8753,69.8075,-0.3258,0.7495,-0.1884,-51.3105
16:52:34:043,1.183,-0.5689,12.7491,70.2059,-0.3769,0.7123,-0.1789,-51.3105
16:52:34:063,1.5011,-0.8403,12.86,70.7079,-0.1682,0.4887,-0.1501,-51.3105
16:52:34:084,2.1332,-1.4049,11.8482,71.2487,-0.0096,0.1565,-0.1831,-51.3105
16:52:34:105,2.8002,-2.5601,11.3343,71.6697,-0.4003,-0.1789,-0.2992,-51.3105
16:52:34:123,2.6927,-2.5417,11.6535,72.3787,-0.8145,-0.2598,-0.3588,-51.2179
16:52:34:143,2.1361,-1.5838,11.4756,73.1194,-0.9018,0.2055,-0.3258,-51.1096
16:52:34:163,1.3393,-0.8711,10.5892,73.6928,-0.6856,0.8688,-0.3843,-50.9828
16:52:34:183,0.5381,-0.3684,9.0384,73.8318,-0.297,1.2275,-0.4205,-50.8381
16:52:34:203,0.0052,-0.1334,7.4236,73.8492,0.1522,1.0764,-0.3758,-50.68
16:52:34:223,-0.0984,-0.0114,6.0393,73.5732,0.5249,0.5313,-0.3673,-50.5148
16:52:34:243,-0.0727,-0.0328,5.0636,73.0741,0.8272,-0.0735,-0.3907,-50.3446
16:52:34:265,-0.0815,-0.039,4.032,72.4972,0.8826,-0.4354,-0.362,-50.1706
16:52:34:283,-0.2274,0.2306,3.3881,71.8589,0.7133,-0.774,-0.2885,-49.9963
16:52:34:303,-0.248,0.4877,3.5997,71.5075,0.2502,-1.1456,-0.1714,-49.8268
16:52:34:323,-0.1335,0.5012,5.1219,71.1014,-0.165,-1.3596,-0.0298,-49.6627
16:52:34:343,0.4011,-0.1026,7.1612,71.249,-0.5036,-1.3351,0.1043,-49.5048
16:52:34:364,1.3483,-0.677,9.7726,71.43,-0.6995,-1.0615,0.1246,-49.3515
16:52:34:385,1.5736,-0.3707,12.0587,71.7768,-0.5738,-0.3396,-0.083,-49.1949
16:52:34:403,1.1519,-0.4886,13.2991,72.1414,-0.3535,0.2012,-0.3247,-49.0286
16:52:34:422,0.6404,-1.0091,13.6993,72.5795,-0.3769,0.4195,-0.2906,-48.8524
16:52:34:443,0.2627,-1.3064,14.4776,73.0798,-0.6122,0.378,-0.0873,-48.6719
16:52:34:464,-0.0923,-0.9979,15.6199,73.2527,-0.3897,0.3524,0.2374,-48.4906
16:52:34:483,-0.113,-0.228,15.2324,73.7306,0.2076,0.4461,0.5472,-48.3188
16:52:34:503,0.3944,-0.2528,13.819,74.1007,0.7059,0.2502,0.6484,-48.1759
16:52:34:523,0.59,-0.8578,12.1391,73.9992,0.8134,-0.28,0.3886,-48.0604
16:52:34:543,0.3242,-1.5616,11.476,73.797,0.609,-0.5696,0.2119,-47.9676
16:52:34:567,0.3221,-2.1686,11.523,73.7252,0.264,-0.7389,0.1544,-47.9676
16:52:34:583,0.4284,-2.9619,11.8605,73.214,-0.0798,-0.6792,0.1224,-47.9676
16:52:34:603,0.4169,-3.2208,11.784,72.7598,-0.2065,-0.28,0.1714,-47.9676
16:52:34:623,0.5458,-3.1696,11.0762,72.38,-0.1437,0.2449,0.2906,-47.9676
16:52:34:645,0.3166,-2.3995,9.9034,71.8114,0.0021,0.7208,0.4908,-47.9676
16:52:34:664,0.2435,-1.5409,8.5929,71.3272,0.1544,1.1019,0.7091,-47.9676
16:52:34:683,0.2461,-0.9191,7.4559,70.5088,0.478,1.2531,0.823,-47.9676
16:52:34:703,0.2833,-0.6431,6.1483,69.9983,0.8166,1.1551,0.9092,-47.9676
16:52:34:723,0.1622,-0.3155,5.192,69.2495,1.1317,0.857,0.971,-47.9676
16:52:34:743,0.0096,0.2084,4.2658,68.5872,1.2329,0.5345,0.9773,-47.9676
16:52:34:763,-0.316,0.9302,4.0062,68.0692,1.2126,-0.0745,0.8464,-48.0919
16:52:34:783,-0.314,1.0589,4.5636,67.8559,0.8453,-0.8038,0.6516,-48.2515
16:52:34:806,0.3002,0.2181,6.2353,67.3208,0.4738,-1.2765,0.4088,-48.4355
16:52:34:823,0.5756,-0.3884,8.3777,66.9677,0.1767,-1.1062,0.1672,-48.6286
16:52:34:843,0.4031,-0.0804,9.8619,66.8623,0.017,-0.5834,0.0447,-48.8188
16:52:34:863,0.9228,-0.1476,10.9796,66.5809,-0.3098,0.016,-0.0405,-49.0028
16:52:34:884,1.1878,-0.4233,12.2131,66.3118,-0.6505,0.6313,-0.1948,-49.175
16:52:34:903,0.9446,-0.3976,13.6653,66.1285,-0.7346,1.0125,-0.3087,-49.3286
16:52:34:923,0.4859,-0.0994,14.2714,65.5378,-0.3716,1.2712,-0.263,-49.4591
16:52:34:943,-0.0308,0.7603,13.5127,64.9255,0.1672,1.499,-0.1033,-49.5707
16:52:34:965,0.0028,1.1557,12.0595,64.5259,0.3843,1.3393,0.0756,-49.6768
16:52:34:983,0.708,0.7139,11.5808,63.8503,0.3279,0.7708,0.1714,-49.788
16:52:35:003,1.1612,1.0879,11.0071,63.423,0.2875,0.1959,0.1363,-49.9065
16:52:35:023,2.3377,-0.0315,10.2418,63.155,-0.2917,-0.132,-0.1821,-50.0315
16:52:35:043,2.6463,-1.8532,11.2821,63.0054,-1.2233,-0.3684,-0.7165,-50.1506
16:52:35:063,1.7169,-2.4304,12.8972,62.8975,-1.5885,-0.4184,-0.9113,-50.1506
16:52:35:083,1.0196,-2.0486,12.9067,62.8318,-1.2605,0.0394,-0.7357,-50.1506
16:52:35:103,0.6082,-1.4411,11.7983,62.5703,-0.5877,0.6814,-0.4865,-50.1506
16:52:35:123,0.1773,-0.5775,9.702,62.0669,0.1065,1.0391,-0.3332,-50.1506
16:52:35:144,0.0231,-0.007,7.7732,61.2772,0.5856,0.9539,-0.2885,-50.1506
16:52:35:164,0.0944,0.2417,6.5747,60.5189,0.8975,0.5717,-0.3268,-50.1506
16:52:35:183,0.2437,0.2172,5.546,59.1586,1.1328,0.4291,-0.4621,-50.1506
16:52:35:203,-0.052,0.1895,4.7788,58.2856,1.1988,0.2885,-0.609,-50.1506
16:52:35:222,-0.6252,0.4471,4.5728,57.3174,1.1221,0.0415,-0.626,-50.1506
16:52:35:242,-1.0847,0.7705,5.0191,56.7495,1.0125,-0.2992,-0.5643,-50.0482
16:52:35:263,-1.2242,0.9203,5.7725,56.3499,0.9071,-0.5494,-0.5121,-49.9324
16:52:35:283,-1.0394,0.8454,6.9205,55.8957,0.544,-0.7602,-0.5845,-49.8065
16:52:35:303,-1.3369,1.2088,8.5011,55.6608,0.1427,-0.6835,-0.7059,-49.6641
16:52:35:323,-2.2852,1.3944,10.2855,55.0792,-0.0756,-0.4727,-0.6867,-49.5011
16:52:35:343,-2.8481,1.4733,11.0264,54.5677,-0.197,-0.2087,-0.3865,-49.3218
16:52:35:364,-2.4762,1.2375,11.7349,53.9538,-0.6079,0.2374,-0.1086,-49.1362
16:52:35:384,-2.0961,0.7871,13.5904,53.2997,-0.9805,0.5068,0.0085,-48.953
16:52:35:404,-2.4081,1.0359,15.3431,52.9332,-0.7186,0.4876,0.1395,-48.7742
16:52:35:423,-2.5973,1.387,15.0914,52.6776,-0.0138,0.5025,0.3673,-48.6025
16:52:35:443,-2.4273,1.1826,13.2537,52.3124,0.5579,0.3109,0.5398,-48.4468
16:52:35:464,-2.2236,0.6593,11.3755,51.8883,0.5334,-0.1991,0.4003,-48.3198
16:52:35:483,-2.2131,0.0098,10.7007,51.5289,0.2651,-0.6132,0.263,-48.2127
16:52:35:503,-2.0455,-0.578,10.4421,50.9755,-0.0043,-0.8315,0.1757,-48.1208
16:52:35:523,-1.8824,-1.069,9.8862,50.1821,-0.1948,-0.8858,0.1395,-48.1208
16:52:35:544,-1.5612,-1.2587,9.2994,49.7091,-0.3268,-0.6707,0.214,-48.1208
16:52:35:563,-0.9307,-1.6031,8.5448,49.1666,-0.4738,-0.4408,0.2033,-48.1208
16:52:35:583,-0.5957,-1.6318,7.9156,48.3639,-0.5888,-0.1352,0.1693,-48.1208
16:52:35:603,-0.6041,-1.3111,7.4833,47.846,-0.576,0.1565,0.2332,-48.1208
16:52:35:622,-0.5458,-1.1177,7.0298,47.6876,-0.2651,0.3929,0.3748,-48.1208
16:52:35:643,-0.3905,-0.9738,5.9635,47.4296,0.1842,0.6005,0.5334,-48.1208
16:52:35:663,-0.3881,-0.4119,4.7732,46.9403,0.4674,0.7197,0.7123,-48.1208
16:52:35:683,-0.3807,0.1748,4.048,46.6531,0.428,0.4812,0.7623,-48.1208
16:52:35:703,-0.2424,0.5796,4.6521,46.048,0.1352,-0.1427,0.6665,-48.1208
16:52:35:723,0.204,0.2913,6.1038,45.2879,-0.1224,-0.6888,0.3918,-48.1208
16:52:35:743,0.3874,-0.2268,8.1584,44.4598,-0.3865,-1.1732,0.0117,-48.1208
16:52:35:763,0.0151,-0.4885,10.622,44.2043,-0.5696,-1.2733,-0.264,-48.1208
16:52:35:783,-0.2919,-0.4369,12.266,43.64,-0.5164,-0.691,-0.2875,-48.1208
16:52:35:803,-0.0645,-0.5219,12.8013,43.1542,-0.6111,0.2225,-0.2246,-48.1208
16:52:35:823,0.4052,-0.3501,13.7728,42.9821,-0.9688,0.7421,-0.3545,-48.1208
16:52:35:843,-0.0992,0.0461,15.4072,42.7421,-0.9081,0.9284,-0.5632,-48.1208
16:52:35:863,-1.0163,0.8831,15.7579,42.3861,-0.2789,1.2243,-0.5611,-48.1208
16:52:35:883,-1.5932,1.9637,14.3587,41.9947,0.3162,1.4192,-0.3929,-48.1208
16:52:35:903,-1.1761,1.837,13.3167,41.5165,0.2438,1.0796,-0.2789,-48.1208
16:52:35:923,0.231,-0.1825,13.7999,41.4884,0.3684,0.346,-0.3556,-48.1208
16:52:35:945,0.5565,-1.4991,13.0303,40.9795,0.6888,-0.2491,-0.5866,-48.1208
16:52:35:963,0.3923,-2.4233,12.1144,40.8265,0.51,-0.5856,-0.6846,-48.0244
16:52:35:982,0.4026,-3.0524,11.9324,40.6399,0.1767,-0.7708,-0.6462,-47.9111
16:52:36:002,0.2236,-2.4513,11.4107,40.2905,0.1203,-0.6069,-0.4972,-47.7794
16:52:36:025,0.0341,-1.2991,10.1938,39.8415,0.247,-0.1246,-0.3279,-47.6316
16:52:36:043,0.0579,-0.3001,8.349,39.0015,0.4046,0.3279,-0.2981,-47.4732
16:52:36:063,0.1963,0.3262,7.0704,38.6647,0.5004,0.5707,-0.4237,-47.3061
16:52:36:083,0.7195,0.6195,6.3257,37.8345,0.7495,0.658,-0.6281,-47.1255
16:52:36:103,0.9175,0.5165,5.2052,37.2017,0.9571,0.7634,-0.9763,-46.9235
16:52:36:124,0.6026,0.587,4.1583,36.6826,0.8794,0.6367,-1.2999,-46.6919
16:52:36:143,-0.0045,0.709,3.7236,36.3667,0.6643,0.5206,-1.4139,-46.423
16:52:36:164,-0.9826,0.8043,4.1209,35.7267,0.5632,0.3929,-1.2957,-46.1148
16:52:36:183,-1.4814,0.7119,5.0965,35.4128,0.543,0.0032,-0.9497,-45.7741
16:52:36:203,-1.2077,0.7195,5.7683,35.0842,0.5249,-0.3119,-0.7154,-45.4187
16:52:36:223,-1.4463,1.2287,6.6145,34.556,0.1821,-0.4056,-0.79,-45.0512
16:52:36:243,-2.3284,1.4521,8.3511,33.7801,-0.3173,-0.2938,-0.8155,-44.6686
16:52:36:264,-3.3209,1.1568,10.4109,33.6513,-0.5408,-0.0543,-0.6143,-44.2667
16:52:36:283,-4.1632,1.2341,12.0362,33.156,-0.5707,0.2087,-0.2534,-43.8593
16:52:36:303,-3.8443,0.8881,13.3792,32.7985,-0.5621,0.2502,0.1267,-43.4593
16:52:36:323,-3.1257,0.1794,14.5775,32.4559,-0.5717,0.3354,0.2736,-43.0782
16:52:36:343,-3.5381,0.537,15.104,32.1285,-0.1427,0.6015,0.4397,-42.7157
16:52:36:363,-4.1597,1.4966,13.7556,31.578,0.4887,0.7229,0.741,-42.3742
16:52:36:383,-3.7491,1.4428,12.2989,31.4923,0.7059,0.2012,0.807,-42.0722
16:52:36:414,-2.4944,0.0518,11.519,31.48,0.5334,-0.5419,0.577,-41.8124
16:52:36:423,-2.0845,-0.8496,11.8652,31.5746,0.1789,-0.7516,0.1778,-41.58
16:52:36:443,-2.3248,-1.4271,12.2705,31.2966,-0.05,-0.5089,-0.0053,-41.357
16:52:36:463,-2.0513,-2.1684,11.857,30.9175,-0.1203,-0.1192,-0.0256,-41.1365
16:52:36:483,-1.3915,-2.4309,10.7689,30.648,-0.231,0.1714,-0.0213,-40.9197
16:52:36:503,-1.0744,-2.1062,9.4871,30.1782,-0.3588,0.4951,-0.0617,-40.706
16:52:36:523,-1.2996,-1.2258,8.2129,29.4325,-0.3087,0.8634,-0.033,-40.4931
16:52:36:543,-1.6044,-0.4818,6.6846,29.1195,-0.0383,1.0125,0.1065,-40.2837
16:52:36:563,-1.7307,-0.0268,5.0787,28.5852,0.1884,0.8208,0.3354,-40.0863
16:52:36:582,-1.4695,0.2771,4.2109,28.1285,0.2619,0.4312,0.6154,-39.9115
16:52:36:603,-1.048,0.6823,4.0214,27.9657,0.263,0.1991,0.791,-39.7659
16:52:36:623,-0.8581,1.1168,4.383,27.8953,0.2438,0.0596,0.774,-39.6526
16:52:36:643,-0.8931,1.4158,5.0766,27.5286,0.1991,-0.1746,0.5781,-39.6526
16:52:36:663,-1.3057,1.4644,6.4854,27.3236,0.0106,-0.5728,0.2917,-39.6526
16:52:36:682,-1.4989,0.7936,8.9147,27.2006,0.0128,-1.1594,0.0788,-39.6526
16:52:36:703,-1.5062,0.6403,10.7713,27.1687,0.3098,-1.6012,-0.0735,-39.6526
16:52:36:723,-1.0658,0.9561,12.2429,27.1273,0.5728,-1.5374,-0.2214,-39.6526
16:52:36:743,-0.3892,0.9114,12.939,26.8008,0.6782,-1.054,-0.4834,-39.6526
16:52:36:763,-0.9717,1.789,12.5875,26.5688,0.5675,-0.2981,-0.7176,-39.5591
16:52:36:782,-1.8285,2.2144,12.1276,26.1923,0.2757,0.4237,-0.7293,-39.4368
16:52:36:803,-2.3891,2.3456,12.1033,26.2394,0.148,0.7974,-0.56,-39.2906
16:52:36:823,-3.1816,3.3826,11.7831,26.2869,0.4599,0.8624,-0.1991,-39.1296
16:52:36:843,-2.5547,4.0045,11.1251,26.6008,0.4067,0.3428,0.2598,-38.9768
16:52:36:863,0.5896,1.8387,12.2515,26.8204,0.2204,-0.3151,0.2502,-38.8478
16:52:36:885,1.2009,0.8335,12.3857,26.769,0.4322,-0.4823,-0.3343,-38.7256
16:52:36:903,-0.0842,0.445,11.2274,26.5052,0.2715,-0.2481,-0.6856,-38.5885
16:52:36:923,-0.535,-0.865,11.1725,26.4984,-0.3929,-0.3577,-0.6707,-38.4364
16:52:36:943,-0.3482,-1.1997,11.4836,26.2905,-0.8645,-0.2012,-0.5036,-38.2687
16:52:36:964,-0.6022,-0.5466,10.982,26.4437,-0.84,0.2459,-0.4216,-38.0848
16:52:36:984,-1.0307,0.0837,9.4079,26.4687,-0.5824,0.3173,-0.4312,-37.8894
16:52:37:003,-1.325,0.5643,7.8677,26.2793,-0.2704,0.0905,-0.4429,-37.6865
16:52:37:023,-1.4501,0.9604,6.5569,26.4491,0.0447,-0.1107,-0.3801,-37.474
16:52:37:044,-1.2623,1.0863,5.5101,26.24,0.2555,-0.1267,-0.3247,-37.2555
16:52:37:064,-1.0894,1.0633,4.9213,26.2444,0.3247,-0.0351,-0.2768,-37.0309
16:52:37:083,-1.0407,1.2034,4.7429,26.1098,0.2619,0.0479,-0.2449,-36.8028
16:52:37:103,-1.1854,1.3639,5.0217,25.9658,0.1938,0.0181,-0.2843,-36.5731
16:52:37:123,-1.6285,1.4556,5.9785,26.2792,0.28,-0.1491,-0.2672,-36.3405
16:52:37:142,-1.841,1.4606,6.8553,26.6304,0.4621,-0.2917,-0.1395,-36.1069
16:52:37:164,-1.326,1.4342,7.8165,27.1144,0.3971,-0.3748,-0.0468,-35.8783
16:52:37:183,-1.3249,1.6727,9.158,27.5401,0.2172,-0.2789,-0.1267,-35.6537
16:52:37:203,-2.047,2.3362,10.2213,28.0246,0.1459,-0.2332,-0.1437,-35.4305
16:52:37:222,-2.4182,2.4536,10.9263,28.5277,0.0149,-0.1682,-0.0192,-35.2098
16:52:37:243,-2.5338,2.3361,11.7262,28.7349,-0.1395,-0.0362,0.1544,-34.9959
16:52:37:264,-2.3775,1.9964,12.6578,28.9499,-0.28,0.1991,0.3151,-34.7932
16:52:37:283,-2.479,2.0289,13.6231,29.3908,-0.0724,0.3418,0.4663,-34.6061
16:52:37:303,-2.9051,2.4118,12.9751,29.9198,0.5132,0.51,0.7059,-34.4377
16:52:37:323,-3.1297,3.0692,11.1301,30.4507,0.8975,0.4333,0.9018,-34.2996
16:52:37:343,-2.8079,2.8622,9.7965,30.8994,0.7037,-0.1799,0.8358,-34.2046
16:52:37:363,-1.7639,1.3894,10.1623,31.4581,0.0756,-0.7729,0.5281,-34.2046
16:52:37:383,-1.7135,0.5002,11.3639,31.6352,-0.3886,-0.8272,0.1405,-34.2046
16:52:37:403,-2.296,-0.431,12.3133,31.8388,-0.6218,-0.4929,-0.0458,-34.2046
16:52:37:423,-2.8484,-1.1938,12.042,31.9023,-0.544,0.0958,0.0671,-34.2046
16:52:37:442,-2.9419,-1.2632,10.5136,31.8167,-0.4812,0.461,0.3545,-34.2046
16:52:37:464,-2.7703,-0.7617,9.0861,31.8437,-0.659,0.4514,0.5462,-34.2046
16:52:37:485,-2.5232,-0.2024,9.0504,31.8361,-0.6335,0.5589,0.6505,-34.2046
16:52:37:502,-2.4916,-0.0294,8.3332,32.3909,-0.2843,1.1019,0.7804,-34.2046
16:52:37:523,-2.5517,0.1973,6.9102,32.5975,-0.0224,1.5086,1.0231,-34.2046
16:52:37:545,-2.417,0.4813,5.6336,32.9092,0.0468,1.4873,1.2605,-34.2046
16:52:37:564,-2.0066,0.7185,5.0243,32.958,-0.0522,1.2158,1.433,-34.3152
16:52:37:583,-1.6658,0.8286,5.3322,32.9561,0.1214,0.7112,1.4799,-34.4767
16:52:37:603,-1.5657,1.2089,5.427,33.1465,0.2694,0.1746,1.4437,-34.6882
16:52:37:625,-1.3002,1.615,5.6926,33.747,0.2129,-0.346,1.2882,-34.9511
16:52:37:643,-1.0275,1.9921,6.6157,33.9205,-0.0586,-0.7474,0.9784,-35.2501
16:52:37:663,-1.0426,2.3579,8.1548,34.5651,-0.2715,-0.8315,0.6654,-35.574
16:52:37:682,-0.7642,2.0191,10.0276,34.771,-0.4812,-0.7559,0.3258,-35.9095
16:52:37:703,-0.0877,1.6696,12.0666,34.9759,-0.593,-0.6473,-0.1107,-36.243
16:52:37:723,-0.1089,1.2989,13.8616,35.0808,-0.576,-0.3087,-0.6399,-36.5548
16:52:37:743,-0.9749,0.8985,14.4746,35.7013,-0.379,0.4099,-0.9071,-36.8236
16:52:37:764,-2.0328,0.7178,13.9107,36.496,-0.1278,1.3308,-0.8368,-37.0425
16:52:37:784,-3.2779,1.8621,12.6725,36.9138,0.1767,1.8163,-0.6015,-37.2204
16:52:37:803,-3.4921,2.4722,11.5977,37.3205,0.1437,1.4426,-0.3492,-37.3779
16:52:37:823,-2.9692,2.0077,11.8542,37.4143,0.115,0.4376,-0.1246,-37.5301
16:52:37:843,-1.6914,1.2125,12.0583,37.5604,0.3375,-0.3726,0.0575,-37.6802
16:52:37:864,-0.7624,0.5544,10.9526,37.8194,0.5195,-0.6558,0.0053,-37.8273
16:52:37:883,-0.4169,0.3385,10.0773,38.0602,0.2513,-0.856,-0.1884,-37.9704
16:52:37:903,-0.0971,-0.1541,9.6202,38.6532,-0.3641,-1.2158,-0.3907,-38.1086
16:52:37:923,0.0516,-0.2177,9.2334,39.295,-0.7932,-1.3979,-0.5046,-38.2345
16:52:37:945,0.0729,0.29,8.9599,39.5619,-0.9124,-1.218,-0.6239,-38.3334
16:52:37:964,-0.0491,0.617,8.5242,39.7485,-0.7623,-0.5802,-0.7836,-38.3334
16:52:37:983,-0.5044,0.5429,7.5187,39.5444,-0.4908,0.247,-0.89,-38.3334
16:52:38:003,-1.0607,0.3475,6.3235,39.5469,-0.2513,0.6686,-0.8815,-38.3334
16:52:38:023,-1.5372,0.3265,5.5315,39.8632,-0.1373,0.5494,-0.8166,-38.3334
16:52:38:043,-1.8899,0.4836,5.5593,40.2791,-0.0202,0.0777,-0.6931,-38.3334
16:52:38:063,-1.9531,0.6571,5.6796,40.3241,0.2481,-0.181,-0.494,-38.3334
16:52:38:083,-1.7543,0.8979,5.7032,40.8993,0.3811,-0.2385,-0.3758,-38.2414
16:52:38:103,-1.8275,1.1231,6.1042,41.1266,0.2704,-0.3024,-0.3875,-38.14
16:52:38:123,-1.8836,1.1824,6.9297,41.0143,-0.0011,-0.5046,-0.4078,-38.0312
16:52:38:143,-2.2474,1.2196,8.1233,41.1345,-0.3002,-0.6537,-0.3716,-37.9153
16:52:38:163,-2.7862,1.2941,9.6721,41.4131,-0.444,-0.6611,-0.1927,-37.7926
16:52:38:183,-2.8001,1.2903,10.6263,41.6609,-0.4386,-0.5121,0.0458,-37.6677
16:52:38:203,-2.4291,1.2263,12.1019,42.0581,-0.4472,-0.4791,0.1842,-37.5493
16:52:38:223,-2.1164,1.1886,12.8339,42.5541,-0.33,-0.0032,0.2225,-37.4358
16:52:38:243,-2.5766,1.0769,13.2491,42.8287,-0.4099,0.4014,0.2395,-37.3297
16:52:38:263,-3.2372,0.8857,14.0768,42.9068,-0.3354,0.4333,0.4525,-37.2355
16:52:38:283,-3.5127,1.0576,14.1525,43.1748,0.0937,0.3577,0.8358,-37.2355
16:52:38:303,-2.9034,0.7341,13.5691,43.3351,0.4844,-0.0564,1.0327,-37.2355
16:52:38:323,-1.6862,-0.4828,13.1391,43.7322,0.6015,-0.5813,0.8475,-37.2355
16:52:38:343,-1.9374,-0.9696,12.9712,43.7824,0.7804,-0.6622,0.6292,-37.2355
16:52:38:364,-2.3358,-0.9265,11.7571,44.1155,0.8964,-0.5195,0.6154,-37.2355
16:52:38:383,-2.1897,-1.0589,10.6909,43.9051,0.6367,-0.4301,0.6196,-37.2355
16:52:38:403,-1.7186,-1.2319,10.2467,44.0729,0.2619,-0.3428,0.6196,-37.2355
16:52:38:427,-1.3176,-1.2845,9.8661,44.2598,0.0287,-0.1097,0.5983,-37.3452
16:52:38:443,-1.1927,-1.0549,8.9919,44.6679,-0.0341,0.2779,0.6196,-37.467
16:52:38:463,-1.1853,-0.4831,7.7731,45.1065,-0.0671,0.6803,0.6952,-37.6032
16:52:38:483,-1.0584,-0.0963,6.7629,45.1593,-0.0064,0.8869,0.7932,-37.7576
16:52:38:502,-0.7159,-0.0505,5.6936,45.1584,0.1448,0.7974,0.8847,-37.9352
16:52:38:523,-0.5821,0.3503,4.8201,45.3799,0.2481,0.6441,0.9412,-38.1389
16:52:38:543,-0.5579,0.833,4.4358,45.1307,0.2992,0.5653,0.9795,-38.3695
16:52:38:563,-0.5643,1.2459,4.4054,45.0893,0.2853,0.5398,0.9262,-38.6266
16:52:38:583,-0.4048,1.5604,4.9292,45.1683,0.1054,0.3183,0.757,-38.9099
16:52:38:603,-0.3488,1.3468,6.2828,45.1334,-0.2768,-0.2427,0.3748,-39.2161
16:52:38:625,-0.6669,0.7371,8.9993,45.0636,-0.478,-0.856,-0.0511,-39.5294
16:52:38:643,-1.422,0.5322,11.1508,45.4311,-0.2566,-0.9039,-0.2395,-39.828
16:52:38:664,-1.7532,0.4035,11.9749,45.2559,0.0373,-0.4386,-0.1789,-40.102
16:52:38:683,-0.922,0.4955,12.0996,45.1143,-0.0202,0.1682,-0.1373,-40.3582
16:52:38:703,-0.6593,1.2428,12.5923,44.5246,-0.2598,0.6516,-0.4354,-40.5974
16:52:38:723,-1.6777,1.5095,13.2073,44.1995,-0.1629,0.9507,-0.6399,-40.8077
16:52:38:743,-2.7758,1.6606,12.6959,43.8731,0.164,1.1402,-0.4865,-40.9866
16:52:38:764,-3.2954,2.5384,11.6748,43.5248,0.1799,1.2637,-0.132,-41.1444
16:52:38:783,-2.2208,2.1828,11.9379,43.0908,-0.1448,0.8432,0.1821,-41.3023
16:52:38:803,-0.8114,1.6106,13.0066,43.0416,0.1171,0.2076,0.2789,-41.4669
16:52:38:825,0.3737,1.2746,11.8035,42.5919,0.2992,-0.3151,0.0852,-41.6385
16:52:38:843,0.6614,0.2385,11.1082,42.5122,-0.0916,-0.6452,-0.3183,-41.8097
16:52:38:863,0.1702,-0.6828,11.2555,42.9253,-0.5046,-0.8187,-0.5227,-41.9679
16:52:38:883,-0.3826,-0.5722,10.6875,43.546,-0.5376,-0.544,-0.4408,-42.1027
16:52:38:903,-0.7456,0.1524,9.3891,43.7784,-0.4173,-0.0341,-0.2608,-42.2153
16:52:38:925,-0.7882,0.8818,7.9687,44.2754,-0.3716,0.3386,-0.2427,-42.3133
16:52:38:943,-0.6741,1.1016,6.8798,44.2412,-0.3119,0.444,-0.3716,-42.3133
16:52:38:963,-0.5757,0.8956,6.1082,44.1268,-0.1725,0.33,-0.5015,-42.3133
16:52:38:983,-0.8147,0.6334,5.9694,44.0333,-0.0405,0.017,-0.6611,-42.3133
16:52:39:003,-1.3494,0.4396,6.2623,43.565,0.1693,-0.329,-0.7123,-42.3133
16:52:39:023,-1.5666,0.202,6.3366,43.2047,0.3769,-0.3002,-0.642,-42.3133
16:52:39:043,-1.8865,0.4929,6.0689,42.2805,0.4642,-0.1086,-0.5281,-42.3133
16:52:39:064,-2.0997,0.8016,6.297,41.8342,0.3886,-0.033,-0.3843,-42.3133
16:52:39:083,-1.8547,0.6956,7.1608,41.3341,0.2342,-0.2885,-0.3471,-42.3133
16:52:39:103,-2.0494,0.8045,8.23,40.6514,0.0617,-0.4195,-0.4184,-42.3133
16:52:39:123,-2.7302,0.9368,9.3292,40.5193,-0.0852,-0.3833,-0.3726,-42.3133
16:52:39:143,-3.2326,1.0116,9.9526,40.1113,-0.1469,-0.083,-0.0617,-42.3133
16:52:39:164,-3.0673,1.3992,10.1321,39.8397,-0.2726,0.1863,0.2992,-42.3133
16:52:39:183,-2.4788,1.8732,10.5482,39.9583,-0.5515,0.2236,0.4397,-42.3133
16:52:39:203,-1.9657,1.6906,11.7952,39.8896,-0.8326,0.0043,0.3322,-42.3133
16:52:39:223,-1.9826,1.0179,13.7928,39.7634,-0.7431,-0.2981,0.2779,-42.3133
16:52:39:246,-2.3946,0.8919,14.6398,39.5329,-0.1757,-0.0862,0.4259,-42.3133
16:52:39:263,-2.4378,0.4166,14.0562,39.3239,0.3002,0.0426,0.5738,-42.3133
16:52:39:283,-2.3178,-0.6088,13.4302,39.0339,0.3833,-0.2438,0.4727,-42.3133
16:52:39:305,-2.9163,-0.771,12.7222,38.9606,0.61,-0.3503,0.4993,-42.3133
16:52:39:323,-2.937,-0.5619,11.2339,38.4523,0.6047,-0.3673,0.5877,-42.3133
16:52:39:343,-2.6008,-0.8648,10.5266,37.8048,0.2033,-0.4674,0.5206,-42.3133
16:52:39:363,-2.1831,-1.2456,10.4772,37.6459,-0.1459,-0.5227,0.3992,-42.3133
16:52:39:383,-2.0253,-1.33,10.0834,37.1554,-0.2566,-0.3992,0.3194,-42.3133
16:52:39:404,-1.8895,-1.1753,9.0721,36.8615,-0.2513,-0.0671,0.3641,-42.4099
16:52:39:423,-1.8188,-0.6584,7.8117,36.7314,-0.2513,0.4195,0.4919,-42.5128
16:52:39:443,-1.5824,-0.2701,6.7074,36.4116,-0.2214,0.7953,0.6324,-42.6273
16:52:39:464,-1.3274,-0.0419,5.6762,36.0957,-0.0596,0.8911,0.7751,-42.7592
16:52:39:483,-1.0383,0.0675,4.687,35.8783,0.0543,0.7197,0.8517,-42.915
16:52:39:504,-0.9912,0.2317,3.9975,36.0743,0.0447,0.5536,0.8443,-43.0966
16:52:39:523,-1.3761,0.6825,3.9866,35.9593,-0.1246,0.3449,0.8177,-43.3077
16:52:39:543,-1.5748,1.0112,4.5087,35.8764,-0.4035,0.0905,0.8304,-43.5447
16:52:39:564,-1.37,0.8435,5.9552,35.9656,-0.8368,-0.3492,0.7176,-43.8087
16:52:39:583,-0.9764,0.4924,8.619,35.8498,-1.0849,-0.7932,0.445,-44.0949
16:52:39:603,-0.9397,0.3903,11.2028,35.663,-0.9859,-0.9784,0.0426,-44.3868
16:52:39:623,-1.1607,0.1746,13.0457,35.9506,-0.5717,-0.6846,-0.2438,-44.6617
16:52:39:643,-1.315,-0.2381,13.5548,35.5104,-0.1916,-0.1246,-0.3066,-44.915
16:52:39:664,-1.368,-0.4121,13.5799,35.6482,-0.1267,0.4844,-0.2055,-45.1464
16:52:39:685,-1.316,-0.0931,13.853,35.08,-0.1054,0.7729,-0.0735,-45.3632
16:52:39:703,-1.3347,0.5308,14.0547,34.9954,0.1033,0.7665,-0.0948,-45.5694
16:52:39:723,-1.7645,1.7345,13.2778,34.7782,0.4386,0.7442,-0.0075,-45.7626
16:52:39:743,-1.3999,2.4231,12.5257,34.7632,0.2246,0.5696,0.1586,-45.9531
16:52:39:763,0.3036,0.5501,13.4334,34.8983,-0.0617,0.0373,0.1746,-46.1496
16:52:39:784,1.5473,-1.0849,13.6896,35.1392,0.2278,-0.5462,-0.1075,-46.3456
16:52:39:803,1.4562,-1.6904,11.9843,35.3649,0.5132,-0.5951,-0.5515,-46.5256
16:52:39:823,0.5034,-2.0507,10.4508,35.3196,0.3087,-0.445,-0.8688,-46.6778
16:52:39:843,-0.1105,-2.4258,9.5729,35.4525,-0.0192,-0.3034,-0.9241,-46.7962
16:52:39:863,-0.7345,-1.8579,8.8139,35.5693,-0.1799,-0.0405,-0.7591,-46.7962
16:52:39:883,-1.1384,-0.9264,7.9669,35.7446,-0.1863,0.2651,-0.494,-46.7962
16:52:39:904,-1.1008,-0.1976,7.2563,35.9292,-0.1118,0.3769,-0.4056,-46.7962
16:52:39:923,-0.8563,0.1716,6.5152,35.9326,0.0681,0.2992,-0.5238,-46.7962
16:52:39:943,-0.8269,0.2728,5.7159,35.9402,0.2257,0.0681,-0.6973,-46.7962
16:52:39:963,-0.9085,0.1731,5.4001,35.7226,0.2044,-0.2268,-0.8794,-46.7962
16:52:39:983,-1.3668,0.12,5.9511,35.3384,0.0745,-0.461,-1.0167,-46.7962
16:52:40:003,-1.8496,-0.1322,6.6718,35.034,0.1129,-0.3332,-0.955,-46.7962
16:52:40:023,-2.3231,-0.2152,7.0927,34.344,0.1533,-0.0639,-0.6931,-46.6795
16:52:40:043,-2.5652,0.2693,7.5966,33.7974,0.1491,0.0916,-0.4078,-46.5434
16:52:40:065,-2.299,0.6284,8.6053,33.7337,0.05,-0.0798,-0.3364,-46.4005
16:52:40:083,-2.1147,0.6892,10.0044,33.0475,0.049,-0.4599,-0.4823,-46.2522
16:52:40:103,-2.4457,0.6214,10.6582,32.8285,0.2065,-0.5036,-0.4589,-46.0903
16:52:40:123,-2.7686,0.4927,10.5918,32.9458,0.346,-0.1544,-0.198,-45.9148
16:52:40:143,-2.8725,0.4102,10.5145,32.6415,0.313,0.1618,0.2672,-45.7385
16:52:40:165,-2.5569,0.8084,10.6885,32.8227,0.297,0.2694,0.6494,-45.5792
16:52:40:183,-2.2976,1.42,10.8561,32.9072,0.362,0.083,0.8272,-45.4494
16:52:40:203,-1.6753,1.3062,10.8558,32.7873,0.2949,-0.2033,0.8719,-45.3551
16:52:40:223,-1.2884,1.1732,11.1957,32.7825,0.1097,-0.2843,0.8304,-45.3551
16:52:40:243,-1.5894,1.7073,11.6231,33.0305,0.0703,-0.1118,0.7942,-45.3551
16:52:40:267,-1.4901,1.3284,11.8676,33.0294,-0.0021,-0.1267,0.643,-45.3551
16:52:40:283,-1.2986,-0.1026,12.4661,33.2459,-0.0649,-0.3961,0.3577,-45.3551
16:52:40:303,-2.1048,-0.3058,12.4405,33.5617,0.1576,-0.2672,0.2587,-45.3551
16:52:40:323,-2.5235,-0.2393,11.4754,33.7406,0.2576,0.0256,0.3386,-45.3551
16:52:40:343,-2.2738,-0.8878,11.0825,34.0043,-0.0256,-0.1097,0.2459,-45.3551
16:52:40:364,-2.0859,-1.525,11.5891,34.139,-0.2214,-0.3002,0.116,-45.3551
16:52:40:383,-2.015,-1.7058,11.4631,34.4958,-0.1267,-0.2438,0.0713,-45.3551
16:52:40:403,-1.9341,-1.6488,10.3994,34.5838,0.0458,0.0532,0.2332,-45.3551
16:52:40:432,-1.8677,-1.1493,8.7962,34.651,0.1682,0.3992,0.5217,-45.3551
16:52:40:445,-1.5989,-0.6904,7.2985,34.2708,0.2278,0.6952,0.8517,-45.3551
16:52:40:463,-1.0383,-0.4291,6.0417,34.382,0.2853,0.7932,1.1243,-45.465
16:52:40:483,-0.5237,0.0488,5.3462,34.4781,0.3162,0.7665,1.2435,-45.611
16:52:40:503,-0.3968,0.653,4.7684,34.5251,0.3567,0.8208,1.2552,-45.7974
16:52:40:523,-0.6373,1.3774,4.3544,34.6435,0.1522,0.84,1.1413,-46.0241
16:52:40:543,-0.6143,1.7231,4.6992,34.9404,-0.3098,0.691,0.9486,-46.2816
16:52:40:563,-0.6373,1.5671,6.3403,34.8998,-0.7431,0.1491,0.6175,-46.5709
16:52:40:583,-0.6838,1.2714,8.6643,34.7798,-0.9252,-0.2566,0.264,-46.8771
16:52:40:603,-1.348,1.2312,10.9317,35.0677,-0.6154,-0.4503,-0.049,-47.1808
16:52:40:623,-2.0979,1.0126,11.5384,34.9067,-0.0809,-0.1331,-0.049,-47.4668
16:52:40:643,-2.314,1.1294,11.0123,34.7143,0.0224,0.3694,0.1278,-47.7396
16:52:40:663,-2.1544,1.5526,11.2308,34.5653,-0.198,0.4578,0.1757,-48.0109
16:52:40:683,-1.8781,1.8377,12.1479,34.5284,-0.3854,0.2012,0.0426,-48.2835
16:52:40:703,-2.0763,1.8224,13.4925,34.6619,-0.2757,-0.0852,-0.0298,-48.5502
16:52:40:723,-2.2297,1.94,13.7169,34.706,-0.082,-0.1895,0.1107,-48.808
16:52:40:743,-0.941,1.1627,13.7731,35.024,-0.2438,-0.2726,0.2481,-49.0657
16:52:40:764,0.6349,-0.9739,14.5583,35.4284,-0.148,-0.4099,-0.0532,-49.3233
16:52:40:782,-0.0888,-0.9177,12.9482,35.942,0.6548,-0.1267,-0.2885,-49.5587
16:52:40:803,-0.8265,-0.4602,10.1218,36.501,0.7996,0.2555,-0.2523,-49.7717
16:52:40:822,-0.8057,-0.6147,8.8334,37.4899,0.2289,0.115,-0.2715,-49.9736
16:52:40:846,-0.0279,-0.6406,8.7258,38.1462,-0.3151,-0.2002,-0.3684,-50.1672
16:52:40:864,0.492,-0.171,8.8061,38.7386,-0.5579,-0.0128,-0.675,-50.3424
16:52:40:883,0.3941,0.1103,8.3132,39.1756,-0.5376,0.4376,-1.0806,-50.4843
16:52:40:903,-0.3453,0.0287,7.5171,39.2887,-0.4259,0.7623,-1.4181,-50.5803
16:52:40:925,-1.1163,-0.2231,7.1625,39.0213,-0.1906,0.7037,-1.5086,-50.5803
16:52:40:943,-1.7677,-0.448,6.7057,38.5607,0.1075,0.4067,-1.4149,-50.5803
16:52:40:963,-2.2903,-0.4208,6.5943,38.3416,0.3364,-0.0852,-1.1786,-50.5803
16:52:40:983,-2.2573,-0.3812,6.6118,37.7767,0.5068,-0.3939,-0.8698,-50.4865
16:52:41:003,-2.2392,-0.438,6.5505,37.3355,0.5419,-0.3737,-0.6633,-50.3648
16:52:41:023,-2.4006,-0.3508,6.7317,36.6803,0.3439,-0.3748,-0.5153,-50.2249
16:52:41:043,-2.6283,-0.2792,7.5293,36.3016,0.0032,-0.5813,-0.3513,-50.0762
16:52:41:064,-2.9504,-0.3787,9.1415,35.9221,-0.1831,-0.8922,-0.1373,-49.9256
16:52:41:083,-3.3339,-0.7424,10.5447,35.5152,-0.0543,-0.9837,0.2417,-49.7772
16:52:41:103,-3.2009,-0.4884,10.9972,35.1228,0.2023,-0.774,0.7133,-49.6417
16:52:41:123,-2.74,-0.0494,11.0215,34.7125,0.3918,-0.3396,1.0689,-49.5326
16:52:41:143,-2.389,0.3832,10.6536,34.7071,0.593,0.0703,1.2829,-49.5326
16:52:41:163,-2.2821,0.9961,9.9964,34.6526,0.6888,0.164,1.4873,-49.5326
16:52:41:183,-1.9431,1.998,9.5251,34.7213,0.494,0.0213,1.6257,-49.5326
16:52:41:203,-1.2832,2.4876,9.9123,34.8954,0.1171,-0.0607,1.565,-49.5326
16:52:41:223,-1.0686,2.9183,10.6683,35.2044,-0.131,-0.0096,1.3074,-49.6755
16:52:41:243,-1.2935,3.3021,11.2872,35.1677,-0.2534,0.1235,1.0678,-49.8528
16:52:41:268,-0.8453,1.9262,12.1981,35.636,-0.4855,-0.1512,0.7101,-50.0633
16:52:41:283,-0.8554,-0.0912,13.7465,35.8694,-0.4812,-0.5845,0.2651,-50.2909
16:52:41:303,-1.4414,-0.6769,13.693,36.1761,-0.0266,-0.3875,0.1363,-50.5131
16:52:41:323,-1.8303,-0.6361,12.362,36.6912,0.2545,0.2033,0.2289,-50.7278
16:52:41:343,-1.5745,-0.8339,10.9901,37.3795,0.2023,0.4823,0.2736,-50.9422
16:52:41:364,-1.239,-1.154,10.1816,38.3433,0.0309,0.4024,0.1405,-51.1609
16:52:41:383,-1.2473,-1.0115,9.5059,38.7321,-0.05,0.2566,-0.0234,-51.3779
16:52:41:403,-1.3958,-0.7238,8.5306,39.3257,-0.0862,0.3737,-0.0671,-51.5864
16:52:41:422,-1.4996,-0.6152,7.6902,39.7977,-0.0128,0.6132,0.0341,-51.7845
16:52:41:444,-1.5308,-0.6244,6.4477,40.1432,0.1373,0.7889,0.198,-51.9763
16:52:41:464,-1.5058,-0.3319,5.2565,40.275,0.2055,0.8815,0.4078,-52.1689
16:52:41:483,-1.4655,0.1485,4.3863,40.3797,0.1725,0.8326,0.6132,-52.3713
16:52:41:503,-1.4681,0.7888,4.0155,39.9951,0.0554,0.6867,0.7634,-52.5915
16:52:41:523,-1.3148,1.4387,4.24,39.6412,-0.2992,0.3726,0.7474,-52.8373
16:52:41:543,-1.0872,1.6333,5.7478,39.4163,-0.7453,-0.2576,0.5015,-53.11
16:52:41:564,-0.8484,1.3889,7.9781,39.1945,-0.9486,-0.9177,0.1192,-53.398
16:52:41:583,-1.0826,1.1308,10.0678,38.7868,-0.8837,-1.2627,-0.231,-53.6823
16:52:41:603,-1.4008,0.8664,11.3027,38.6921,-0.6164,-0.9039,-0.3439,-53.946
16:52:41:623,-1.728,0.9681,11.573,38.6614,-0.2896,-0.1597,-0.2715,-54.1831
16:52:41:644,-1.7539,1.0963,11.4585,38.653,-0.1799,0.395,-0.164,-54.4019
16:52:41:663,-1.6063,1.212,11.6646,38.3615,-0.2459,0.3822,-0.1884,-54.6096
16:52:41:683,-1.3191,1.0479,12.3214,38.1609,-0.3609,0.1512,-0.3045,-54.8068
16:52:41:703,-1.1256,0.9412,13.3395,37.817,-0.3833,0.0692,-0.4599,-54.9878
16:52:41:724,-1.2648,1.2466,13.9457,37.0668,-0.2374,0.2427,-0.5206,-55.1453
16:52:41:743,-0.9684,0.8697,14.2455,36.858,-0.1363,0.3843,-0.5195,-55.2791
16:52:41:763,-0.266,-0.4908,14.5988,36.6788,0.0607,0.1852,-0.7197,-55.3893
16:52:41:782,-0.6589,-0.7776,13.6292,36.7788,0.6207,-0.0085,-0.9113,-55.3893
16:52:41:802,-0.8249,-1.1297,11.3643,36.9246,0.9028,-0.0383,-0.9656,-55.3893
16:52:41:824,-0.7738,-1.6387,9.6036,37.2782,0.6771,-0.0703,-1.1328,-55.3893
16:52:41:843,-0.9187,-1.6837,8.7866,37.6393,0.3013,-0.1363,-1.2616,-55.3893
16:52:41:863,-1.0546,-1.4776,8.3066,37.4953,0.0287,-0.0841,-1.2904,-55.3893
16:52:41:883,-1.2677,-1.0384,7.8423,37.1136,-0.1118,0.0809,-1.2574,-55.2696
16:52:41:903,-1.4344,-0.5503,7.2262,36.5544,-0.1884,0.23,-1.1945,-55.1109
16:52:41:924,-1.6029,-0.1839,6.7267,35.8271,-0.2225,0.2875,-1.1679,-54.9166
16:52:41:944,-1.9222,0.0122,6.6088,35.4482,-0.2055,0.2012,-1.1754,-54.6891
16:52:41:963,-2.1843,-0.2603,6.7854,35.1032,-0.099,-0.1011,-1.087,-54.4304
16:52:41:983,-2.1544,-0.5005,7.0489,34.9733,0.049,-0.3865,-0.9337,-54.1443
16:52:42:003,-2.1846,-0.3182,7.2564,34.7404,0.1629,-0.4418,-0.7463,-53.8352
16:52:42:024,-2.064,-0.1211,7.6222,34.7699,0.2119,-0.3194,-0.5738,-53.5068
16:52:42:044,-1.7688,-0.0668,7.9565,34.628,0.2183,-0.1842,-0.4301,-53.1704
16:52:42:064,-1.5779,0.1043,8.2856,34.6516,0.1735,-0.1459,-0.3769,-52.8296
16:52:42:083,-1.9949,0.6276,8.8848,34.3275,0.1097,-0.3056,-0.4248,-52.4872
16:52:42:103,-2.5147,0.4833,9.926,34.3428,0.1118,-0.5419,-0.3865,-52.1409
16:52:42:124,-2.7441,0.0867,10.6246,34.1581,0.2789,-0.4141,-0.1278,-51.7905
16:52:42:143,-2.9689,-0.0468,10.8272,33.8468,0.4216,-0.0437,0.2843,-51.4454
16:52:42:164,-2.9498,0.3669,10.8431,33.81,0.5238,0.1938,0.6835,-51.1207
16:52:42:183,-2.8899,1.0961,10.8384,33.5441,0.6611,0.1288,0.8741,-50.834
16:52:42:206,-2.6915,1.6863,10.6217,33.0962,0.7612,-0.1192,0.8954,-50.5827
16:52:42:224,-2.2216,1.8721,10.6844,32.7648,0.5749,-0.3109,0.8326,-50.3715
16:52:42:243,-2.1931,1.942,11.175,32.6885,0.3332,-0.1597,0.7602,-50.1947
16:52:42:264,-2.0232,1.5581,11.8535,32.5993,0.0756,-0.1565,0.6313,-50.0502
16:52:42:283,-1.299,-0.0161,12.886,32.2866,-0.1214,-0.4834,0.3556,-49.9339
16:52:42:305,-1.481,-0.4294,13.0841,32.2494,0.1086,-0.3492,0.1746,-49.8278
16:52:42:323,-2.2236,0.0018,11.7545,32.1633,0.4024,0.0958,0.2225,-49.7245
16:52:42:343,-2.2515,-0.0515,10.4246,32.2894,0.2065,-0.05,0.1991,-49.7245
16:52:42:363,-1.5399,-0.5883,10.0665,32.4093,-0.0809,-0.3002,0.0862,-49.7245
16:52:42:382,-1.24,-0.5532,9.7898,32.7248,-0.1831,-0.3428,-0.1448,-49.7245
16:52:42:404,-1.3044,-0.3834,9.0307,32.915,-0.2225,-0.1874,-0.3034,-49.7245
16:52:42:446,-1.4806,-0.3575,8.0172,33.2745,-0.2704,0.1214,-0.2651,-49.6262
16:52:42:448,-1.7966,-0.2911,7.055,33.3301,-0.3066,0.4354,-0.0383,-49.5207
16:52:42:463,-1.9147,-0.1773,6.4796,33.3829,-0.3205,0.4727,0.2587,-49.4193
16:52:42:483,-1.7746,-0.0767,6.5715,33.3355,-0.2598,0.2257,0.4653,-49.4193
16:52:42:504,-1.6865,-0.0041,6.6743,33.209,0.0053,0.0245,0.5856,-49.4193
16:52:42:523,-1.4543,0.1351,6.51,33.1353,0.197,-0.1522,0.6643,-49.4193
16:52:42:543,-1.2467,0.5071,6.4657,32.9267,0.0532,-0.4237,0.6303,-49.4193
16:52:42:563,-1.0058,0.6715,7.1748,32.4572,-0.264,-0.6867,0.478,-49.4193
16:52:42:586,-0.4676,0.3434,8.7688,32.4262,-0.4791,-0.8017,0.1863,-49.4193
16:52:42:602,-0.1489,-0.0822,10.0549,32.0032,-0.4695,-0.4152,-0.1373,-49.4193
16:52:42:622,-0.4477,-0.0508,10.5532,31.5359,-0.329,0.1874,-0.4163,-49.4193
16:52:42:642,-1.0266,0.0037,10.3043,31.175,-0.2183,0.5046,-0.5632,-49.4193
16:52:42:663,-1.5775,0.1313,10.1286,31.2587,-0.2002,0.4024,-0.5707,-49.4193
16:52:42:685,-1.9604,0.3647,10.5977,30.9864,-0.2065,0.1139,-0.4961,-49.4193
16:52:42:704,-2.0376,0.1415,11.317,30.7744,-0.1735,-0.0415,-0.3769,-49.4193
16:52:42:723,-2.0383,0.0965,11.7431,30.4781,-0.2097,0.0639,-0.231,-49.4193
16:52:42:743,-1.8646,0.2119,12.161,30.1582,-0.2928,0.2183,-0.1533,-49.4193
16:52:42:763,-1.2388,-0.6558,12.7451,30.0323,-0.4908,0.1757,-0.2438,-49.3284
16:52:42:784,-1.0281,-1.2497,13.7203,29.8209,-0.5398,0.1576,-0.2747,-49.2315
16:52:42:803,-1.0353,-1.5421,13.9408,29.9878,-0.214,0.2406,-0.1831,-49.1251
16:52:42:824,-0.7904,-1.8314,13.0981,30.1383,0.1182,0.1948,-0.0138,-49.0143
16:52:42:843,-0.258,-1.924,12.0633,29.9803,0.2481,0.0138,0.164,-48.9079
16:52:42:863,0.1077,-1.5584,10.927,29.7873,0.2992,-0.0394,0.2683,-48.811
16:52:42:884,0.0708,-0.6789,9.5191,29.9081,0.3716,0.049,0.3002,-48.811
16:52:42:903,-0.1347,0.0067,8.078,30.1601,0.3535,0.0767,0.2683,-48.811
16:52:42:923,-0.2228,0.5023,6.9459,30.4386,0.231,0.0149,0.2033,-48.811
16:52:42:943,-0.2811,0.7976,6.3691,30.7209,0.0862,-0.1065,0.1129,-48.811
16:52:42:965,-0.1528,0.8193,6.1713,31.2634,-0.0085,-0.2534,0,-48.811
16:52:42:983,-0.1087,1.0186,6.2907,31.2399,-0.0554,-0.2917,-0.1086,-48.811
16:52:43:003,-0.0562,1.0529,6.3988,31.06,-0.0266,-0.1767,-0.165,-48.811
16:52:43:023,-0.1435,1.0812,6.4361,30.9064,0.0053,-0.1022,-0.2257,-48.811
16:52:43:043,-0.1814,0.9061,6.4893,30.7639,-0.0149,-0.1927,-0.2885,-48.811
16:52:43:066,-0.1621,0.7729,6.4605,30.3681,-0.1395,-0.3354,-0.3428,-48.811
16:52:43:083,-0.0251,0.5881,6.6744,30.2424,-0.444,-0.4322,-0.4131,-48.7202
16:52:43:103,0.0042,0.2642,7.566,30.0592,-0.8251,-0.4748,-0.4663,-48.6203
16:52:43:122,-0.2147,0.0402,8.9368,30.158,-1.0402,-0.4823,-0.4365,-48.5079
16:52:43:143,-0.2295,-0.0466,10.065,29.7564,-1.0636,-0.3726,-0.3077,-48.3824
16:52:43:168,-0.2199,-0.159,10.9088,29.3914,-0.9348,-0.1799,-0.1789,-48.2467
16:52:43:183,-0.3802,-0.0994,11.7964,29.4404,-0.6846,-0.1299,-0.0607,-48.1056
16:52:43:202,-0.4751,0.0145,12.7511,29.4838,-0.3268,-0.1299,0.0341,-47.9633
16:52:43:222,-0.461,-0.1102,12.7907,29.1148,-0.0586,0.0905,0.1554,-47.8231
16:52:43:242,-0.7058,-0.2649,13.2635,28.8144,-0.1107,0.0894,0.2672,-47.6937
16:52:43:265,-1.171,0.1052,14.077,28.508,-0.0745,0.116,0.4014,-47.5776
16:52:43:283,-1.226,-0.03,14.4245,28.3884,0.2545,0.1107,0.4642,-47.477
16:52:43:303,-0.1258,-1.7797,14.4894,28.1197,0.3513,-0.5334,0.2726,-47.477
16:52:43:323,0.0807,-2.926,14.7785,28.1732,0.5898,-0.8432,-0.0043,-47.477
16:52:43:344,-0.4557,-2.5353,13.5599,28.4553,1.1147,-0.4631,-0.0234,-47.477
16:52:43:363,-0.6303,-2.1966,11.5074,28.4285,1.2233,-0.2076,0.0564,-47.477
16:52:43:383,-0.2328,-2.1343,9.9174,28.554,0.9124,-0.2364,0.1086,-47.477
16:52:43:402,0.1812,-1.7241,9.0427,28.5568,0.5206,-0.2097,0.0596,-47.477
16:52:43:425,0.4844,-1.3924,8.3653,28.8341,0.1991,-0.0234,-0.0671,-47.477
16:52:43:444,0.4241,-1.1789,7.6825,29.2493,-0.0213,0.3119,-0.198,-47.477
16:52:43:464,-0.183,-0.5802,7.056,29.5764,-0.0788,0.6377,-0.214,-47.477
16:52:43:483,-0.4705,-0.3013,6.3351,29.7008,-0.0032,0.7176,-0.0862,-47.477
16:52:43:506,-0.4054,-0.2571,5.6701,29.7768,0.0916,0.5909,0.116,-47.477
16:52:43:523,-0.3533,0.017,5.1844,29.8057,0.1927,0.3481,0.2523,-47.477
16:52:43:543,-0.3546,0.4355,4.9086,29.7711,0.23,0.0426,0.2683,-47.477
16:52:43:563,-0.2998,0.6571,5.1274,29.7698,0.0884,-0.3503,0.1948,-47.477
16:52:43:584,0.0411,0.4605,6.1656,29.8414,-0.3045,-0.7314,-0.0117,-47.477
16:52:43:602,0.1111,-0.1468,8.1282,29.9184,-0.6516,-0.8294,-0.2364,-47.477
16:52:43:623,-0.1157,-0.7998,10.3102,30.0673,-0.6952,-0.7836,-0.2875,-47.477
16:52:43:643,-0.2658,-0.7881,11.5039,29.941,-0.3428,-0.4408,-0.1916,-47.477
16:52:43:664,-0.1739,-0.4316,11.4867,29.8534,0.0458,0.0788,-0.1373,-47.477
16:52:43:683,-0.1375,0.1189,10.9507,29.9786,0.0958,0.444,-0.2012,-47.477
16:52:43:703,-0.4101,0.666,10.776,29.6667,-0.0767,0.4429,-0.3396,-47.3855
16:52:43:723,-0.6931,0.6957,11.2621,29.3817,-0.2353,0.2672,-0.4195,-47.2869
16:52:43:745,-0.8456,0.5602,11.7759,29.2219,-0.2683,0.2832,-0.3886,-47.1763
16:52:43:764,-1.0899,0.7485,12.1387,29.0816,-0.3162,0.5259,-0.2662,-47.0543
16:52:43:784,0.0144,-0.2415,12.8563,28.4501,-0.5951,0.5142,-0.2459,-46.9288
16:52:43:803,0.8325,-2.2446,14.4985,28.0516,-0.6111,0.2236,-0.4812,-46.798
16:52:43:824,0.3278,-2.4687,14.4496,27.7513,0.0596,0.2598,-0.4919,-46.647
16:52:43:843,0.3661,-2.8538,12.8778,27.5603,0.4663,0.3801,-0.2949,-46.4813
16:52:43:863,1.0096,-3.2856,11.8252,27.5105,0.4354,0.0117,-0.1405,-46.3156
16:52:43:883,1.5679,-2.8352,10.9273,27.8634,0.2513,-0.2076,-0.0809,-46.154
16:52:43:902,1.402,-1.6248,10.1031,28.1718,0.0905,-0.0341,-0.1129,-45.9946
16:52:43:924,1.0547,-0.5629,9.0393,28.2618,0.0106,0.3588,-0.1842,-45.833
16:52:43:944,0.776,-0.0289,7.9844,28.316,0.0383,0.6037,-0.2672,-45.6669
16:52:43:963,0.5666,0.4015,6.9217,28.3649,0.164,0.543,-0.28,-45.4958
16:52:43:983,0.6377,0.7044,6.0825,28.3138,0.2438,0.2427,-0.2821,-45.322
16:52:44:004,0.9294,0.8675,5.8638,28.8526,0.2843,-0.082,-0.3098,-45.146
16:52:44:023,1.2302,1.1627,5.9196,28.7202,0.4078,-0.2321,-0.3748,-44.9636
16:52:44:043,1.5236,1.378,5.6629,28.9301,0.5015,-0.1054,-0.4983,-44.7725
16:52:44:063,1.6937,1.3151,5.5513,28.877,0.4067,-0.0458,-0.6942,-44.5688
16:52:44:085,1.7124,1.316,5.8519,29.0141,0.0969,-0.1746,-0.8805,-44.3493
16:52:44:103,1.5583,1.1449,7.3035,28.9068,-0.296,-0.3992,-1.0955,-44.1092
16:52:44:127,1.3326,0.7396,9.3969,28.8689,-0.477,-0.5472,-1.2637,-43.839
16:52:44:143,1.1268,0.3035,11.1922,28.7078,-0.4312,-0.3258,-1.351,-43.5293
16:52:44:164,0.3988,0.0106,12.7309,28.5238,-0.1011,-0.0309,-1.2403,-43.1772
16:52:44:183,-0.0358,0.0435,12.8903,28.341,0.362,0.198,-0.9784,-42.7902
16:52:44:203,-0.2761,0.7792,12.1742,28.2843,0.6005,0.2385,-0.7836,-42.3818
16:52:44:223,-0.5006,1.3966,11.5193,28.2208,0.4461,0.1512,-0.659,-41.9627
16:52:44:245,-0.7005,1.5104,12.0428,28.3801,0.1278,-0.0394,-0.5749,-41.5385
16:52:44:263,-0.9982,1.2061,13.2032,28.5598,0.0351,-0.0596,-0.5036,-41.1087
16:52:44:283,-1.8111,1.2151,13.6517,28.4134,0.2736,0.0937,-0.3865,-40.6725
16:52:44:303,-2.1484,0.9071,13.1427,28.3308,0.4003,-0.0564,-0.2875,-40.2386
16:52:44:323,-1.4955,-0.6947,13.4535,28.3233,0.3428,-0.6005,-0.3918,-39.8141
16:52:44:343,-1.8543,-1.339,13.6202,27.9188,0.6111,-0.8592,-0.5217,-39.3896
16:52:44:363,-2.2225,-1.2348,12.4984,27.9731,0.824,-0.6952,-0.3875,-38.9598
16:52:44:382,-1.5322,-1.5205,11.581,27.9555,0.6292,-0.7101,-0.2917,-38.5342
16:52:44:403,-0.7467,-1.8774,11.4334,28.2244,0.3173,-0.8794,-0.3939,-38.1162
16:52:44:426,-0.6736,-1.6976,10.8218,28.0809,0.2704,-0.7964,-0.5174,-37.6961
16:52:44:456,-0.9621,-1.3314,9.2337,27.9101,0.3141,-0.3748,-0.511,-37.2665
16:52:44:463,-1.2913,-0.7629,7.48,27.8234,0.2896,0.2821,-0.3194,-36.8274
16:52:44:483,-1.4537,-0.2387,6.0767,27.6506,0.2662,0.8315,-0.0564,-36.3876
16:52:44:503,-1.4184,0.0405,4.8369,27.6081,0.2342,1.0849,0.1682,-35.9593
16:52:44:525,-1.2638,0.1499,4.0514,27.5671,0.1235,1.0838,0.3268,-35.5524
16:52:44:543,-1.4278,0.5726,3.6863,27.6064,0.0788,0.9018,0.4205,-35.1726
16:52:44:563,-1.9161,1.2475,3.5205,28.0068,-0.0106,0.6622,0.5153,-34.8232
16:52:44:583,-2.4854,2.3748,4.2345,28.1398,-0.3801,0.148,0.4802,-34.5111
16:52:44:603,-2.756,2.7564,6.6495,27.9132,-0.906,-0.6984,0.2172,-34.2342
16:52:44:623,-2.288,1.7,10.3428,27.9045,-0.9954,-1.1626,-0.0735,-33.9721
16:52:44:643,-1.5997,0.3524,13.0564,27.7637,-0.4823,-0.823,-0.3002,-33.7058
16:52:44:663,-1.1638,-0.5568,13.7515,27.0216,0.1246,0.0192,-0.3141,-33.4219
16:52:44:683,-0.8417,-1.1634,13.3199,27.1997,0.543,0.9475,-0.0617,-33.1259
16:52:44:703,-0.7332,-1.5294,12.1971,27.1193,0.6537,1.416,0.3961,-32.8358
16:52:44:726,-0.8755,-0.703,11.4439,27.2441,0.4706,0.9656,1.0263,-32.5862
16:52:44:743,-0.4693,1.12,11.3839,27.6089,0.1916,0.0948,1.6864,-32.3923
16:52:44:764,1.0689,2.591,12.0313,27.4978,0.1629,-0.7602,1.9441,-32.2769
16:52:44:783,2.3195,2.9601,12.1543,27.4277,0.2481,-1.1402,1.5523,-32.2769
16:52:44:803,3.5691,1.6252,11.9824,27.2322,0.1171,-1.0849,0.8783,-32.2769
16:52:44:825,3.248,0.6221,11.9321,26.8583,-0.0373,-0.5227,0.1863,-32.2769
16:52:44:843,1.8334,0.6801,11.3484,26.743,0.1246,0.1799,-0.0543,-32.2769
16:52:44:863,1.2529,0.2541,10.2755,26.4297,0.016,0.3056,-0.1097,-32.2769
16:52:44:883,1.2542,-0.5686,10.2642,26.3002,-0.4088,-0.0617,-0.2353,-32.2769
16:52:44:903,0.9623,-0.7091,10.8087,26.3518,-0.692,-0.4248,-0.3513,-32.2769
16:52:44:923,0.4435,-0.4545,10.8741,26.633,-0.5217,-0.3354,-0.3449,-32.2769
16:52:44:943,-0.0034,-0.1414,9.8641,26.8435,-0.082,0.0128,-0.28,-32.2769
16:52:44:963,-0.4042,0.2859,8.1513,26.7636,0.3386,0.3716,-0.2097,-32.2769
16:52:44:983,-0.6521,0.5517,6.4858,26.4744,0.6132,0.5611,-0.0894,-32.2769
16:52:45:003,-0.7053,0.5923,5.147,26.2811,0.7176,0.478,0.0021,-32.2769
16:52:45:023,-0.8492,0.8478,4.3221,25.9752,0.6867,0.0894,0.0511,-32.2769
16:52:45:043,-0.8536,1.0301,4.221,25.7579,0.6239,-0.3556,0.0692,-32.2769
16:52:45:063,-0.7241,1.2517,4.3477,25.3671,0.5376,-0.5621,0.0511,-32.2769
16:52:45:083,-0.6866,1.6239,4.5481,25.2297,0.2364,-0.4163,0.0064,-32.2769
16:52:45:103,-0.6256,1.7344,5.4353,25.0107,-0.2044,-0.1767,-0.0266,-32.2769
16:52:45:123,-0.2882,1.5283,7.3313,25.0666,-0.544,-0.28,-0.1054,-32.2769
16:52:45:143,-0.1258,1.6038,9.2708,25.0871,-0.6888,-0.4589,-0.2225,-32.2769
16:52:45:163,-0.3127,1.5562,10.7783,25.1009,-0.6963,-0.1948,-0.3077,-32.2769
16:52:45:183,-0.8918,1.3424,11.9272,25.2531,-0.6037,0.2172,-0.2044,-32.2769
16:52:45:205,-1.2929,1.1193,12.5461,25.3544,-0.5909,0.6047,0.0979,-32.2769
16:52:45:223,-1.4663,1.1932,13.5341,25.3889,-0.6803,0.6739,0.4844,-32.2769
16:52:45:243,-1.0386,1.3831,14.543,24.9572,-0.5781,0.61,0.7165,-32.2769
16:52:45:263,-0.9675,1.611,14.4764,24.6283,-0.2438,0.7783,0.6824,-32.2769
16:52:45:283,-1.7035,1.2057,13.5782,24.4126,-0.0979,0.7197,0.5856,-32.2769
16:52:45:304,-2.2575,0.1238,14.0908,24.0821,-0.231,-0.0639,0.6239,-32.2769
16:52:45:323,-1.8259,-1.1802,15.0486,24.1066,-0.0671,-0.9582,0.7719,-32.2769
16:52:45:344,-1.2182,-1.0851,14.5354,23.8487,0.4056,-1.1104,1.0093,-32.2769
16:52:45:364,-0.5937,-0.3673,13.0295,23.7304,0.6058,-0.8294,1.0391,-32.3847
16:52:45:383,-0.2327,-0.0896,11.4783,23.8319,0.5195,-0.4269,0.8773,-32.5237
16:52:45:403,-0.1863,-0.1088,10.0234,23.9552,0.4078,0.0543,0.6814,-32.683
16:52:45:423,-0.437,-0.0004,8.5562,24.2427,0.3577,0.5089,0.5472,-32.8601
16:52:45:443,-0.8354,0.353,7.0789,24.5643,0.379,0.8837,0.5025,-33.0437
16:52:45:464,-0.9869,0.4484,5.7306,24.3437,0.4716,1.1008,0.5046,-33.242
16:52:45:487,-1.0045,0.3335,4.4795,24.3668,0.5579,1.0934,0.5142,-33.4476
16:52:45:503,-1.0681,0.2924,3.5415,24.2369,0.5281,0.9539,0.5153,-33.6675
16:52:45:523,-1.2351,0.667,3.2597,24.1054,0.4738,0.79,0.5536,-33.9016
16:52:45:543,-1.0571,0.8834,3.4741,24.0545,0.3428,0.5994,0.5132,-34.1548
16:52:45:563,-0.8493,0.7579,4.4973,24.3961,0.165,0.4674,0.3588,-34.4162
16:52:45:586,-0.6293,0.3984,5.7594,24.4137,-0.0756,0.2108,0.1746,-34.685
16:52:45:603,-0.8206,0.7327,7.4748,24.7748,-0.378,-0.0905,-0.0362,-34.9552
16:52:45:623,-0.7985,0.7879,9.7948,24.9048,-0.5898,-0.297,-0.2683,-35.2177
16:52:45:643,-0.8151,0.4094,11.9554,25.0548,-0.5643,-0.1341,-0.4397,-35.4588
16:52:45:663,-1.0984,0.3375,13.1425,25.009,-0.5206,0.2662,-0.4237,-35.6725
16:52:45:685,-1.3768,0.6305,13.7365,24.9701,-0.6111,0.626,-0.3205,-35.863
16:52:45:703,-1.6645,1.3454,14.2168,24.7897,-0.6654,0.9241,-0.1895,-36.0356
16:52:45:724,-1.9149,1.8341,14.4532,24.567,-0.5164,1.1136,-0.0756,-36.1949
16:52:45:743,-2.3214,2.6661,14.1264,24.362,-0.1948,1.0572,0.1416,-36.3469
16:52:45:764,-1.5439,2.2877,13.7188,24.361,-0.016,0.444,0.3098,-36.506
16:52:45:784,-0.8559,1.6825,13.7502,24.611,0.3471,-0.263,0.1938,-36.674
16:52:45:803,-0.8637,1.0754,12.1519,24.7188,0.84,-0.6186,0.0437,-36.8405
16:52:45:823,-1.0472,0.4733,10.413,25.3095,0.7623,-0.7346,-0.0884,-37.0022
16:52:45:842,-0.9274,-0.093,9.7922,25.7533,0.1927,-1.0093,-0.2183,-37.1611
16:52:45:865,-0.6379,-0.5284,9.8065,26.2051,-0.3375,-1.0072,-0.2906,-37.311
16:52:45:884,-0.5207,-0.4205,9.3742,26.6515,-0.5025,-0.6399,-0.3109,-37.4436
16:52:45:903,-0.5969,-0.1575,8.408,27.1225,-0.4322,-0.1682,-0.3311,-37.5559
16:52:45:923,-0.8426,0.1978,7.1628,27.1805,-0.2906,0.2278,-0.3247,-37.648
16:52:45:944,-0.8886,0.4112,6.0267,27.0324,-0.1459,0.3865,-0.2917,-37.648
16:52:45:965,-0.8511,0.5246,5.1585,26.6691,-0.0192,0.2555,-0.2757,-37.648
16:52:45:984,-0.7299,0.7679,4.6364,26.4423,0.0181,0.0224,-0.3151,-37.648
16:52:46:003,-0.7792,1.083,4.6496,25.9953,0.0287,-0.0224,-0.3769,-37.648
16:52:46:023,-1.036,1.0848,5.3527,25.4474,0.0671,-0.0405,-0.4184,-37.648
16:52:46:044,-1.3386,1.422,6.0991,25.4756,0.1714,-0.1895,-0.3971,-37.648
16:52:46:064,-1.2942,1.4292,7.1278,25.5174,0.2087,-0.4759,-0.3609,-37.648
16:52:46:083,-1.0579,1.3042,8.7798,25.2132,0.1544,-0.7559,-0.4738,-37.648
16:52:46:103,-1.5676,1.3057,10.2426,25.2553,0.1256,-0.5515,-0.625,-37.648
16:52:46:123,-2.7219,1.0434,11.2971,25.5149,0.0756,-0.0564,-0.5068,-37.648
16:52:46:143,-3.5274,0.9503,11.92,25.4979,-0.0064,0.4099,-0.0788,-37.648
16:52:46:163,-3.3616,0.8276,12.7336,25.5126,-0.2928,0.4546,0.379,-37.648
16:52:46:183,-2.4477,0.7131,14.2697,25.6575,-0.5866,0.2726,0.5962,-37.648
16:52:46:203,-2.2011,1.0897,15.375,25.6864,-0.181,0.3215,0.6867,-37.648
16:52:46:223,-2.5194,1.8364,14.0726,25.8233,0.5355,0.4695,0.8528,-37.648
16:52:46:244,-2.1428,1.4235,12.1375,25.795,0.6665,0.0607,0.8038,-37.648
16:52:46:263,-2.0513,0.5198,11.2464,25.9772,0.5419,-0.4802,0.6611,-37.648
16:52:46:283,-2.2886,0.2343,10.6152,26.3837,0.4078,-0.6122,0.6345,-37.648
16:52:46:303,-2.1416,0.1284,10.0685,26.7268,0.0926,-0.5792,0.6388,-37.7544
16:52:46:325,-1.7071,-0.3513,9.9182,26.6898,-0.3971,-0.5685,0.543,-37.8829
16:52:46:345,-1.363,-0.8486,9.8854,26.6122,-0.7325,-0.4961,0.4046,-38.0254
16:52:46:363,-1.1985,-0.9862,9.3625,26.5217,-0.873,-0.2161,0.3162,-38.1744
16:52:46:383,-1.2571,-0.8781,8.6322,26.1982,-0.8666,0.1895,0.3375,-38.3242
16:52:46:403,-1.1047,-0.7409,8.3674,25.8015,-0.6707,0.5366,0.428,-38.4756
16:52:46:423,-0.966,-0.5283,7.7903,25.2106,-0.2087,1.037,0.5078,-38.6316
16:52:46:443,-0.9565,-0.4144,6.3548,24.6919,0.2374,1.5927,0.6079,-38.7889
16:52:46:473,-1.1015,-0.2829,4.8693,24.2037,0.4631,1.8589,0.7442,-38.9588
16:52:46:486,-1.4482,-0.0148,4.1081,24.1574,0.4674,1.7279,0.8698,-39.1502
16:52:46:503,-1.3562,-0.063,4.1565,24.5202,0.4727,1.1402,0.9603,-39.3703
16:52:46:522,-0.8589,-0.148,4.7235,25.0354,0.2268,0.3652,0.7197,-39.6233
16:52:46:543,-1.5491,0.0337,6.9144,25.5979,-0.1139,-0.4706,0.33,-39.8995
16:52:46:563,-1.9876,0.1659,9.1861,25.7999,-0.1735,-1.1328,0.2864,-40.1843
