Time,Acc_X,Acc_Y,Acc_Z,Meg,Gyr_X,Gyr_Y,Gyr_Z,Ore
16:56:40:114,-0.7113,1.6474,9.1613,42.2081,0.3588,-0.6729,0.0319,-66.5853
16:56:40:134,-0.0656,1.9658,8.645,42.2608,0.4684,-0.6292,0.0298,-66.5853
16:56:40:153,0.4503,2.3981,8.1608,42.4063,0.3226,-0.5164,-0.033,-66.5853
16:56:40:173,0.4757,2.9689,8.0961,42.3867,-0.0021,-0.4557,-0.0841,-66.5853
16:56:40:192,0.2087,3.5488,8.3905,42.1332,-0.3268,-0.378,-0.1182,-66.5853
16:56:40:213,0.0064,3.794,9.0127,42.2031,-0.5632,-0.3162,-0.1416,-66.5853
16:56:40:233,0.0795,3.5216,9.5394,42.3386,-0.6675,-0.3215,-0.2012,-66.5853
16:56:40:253,-0.0086,3.1762,10.0798,42.4703,-0.6633,-0.4237,-0.2726,-66.5853
16:56:40:272,-0.3583,2.8996,10.6421,42.5753,-0.5408,-0.5259,-0.2534,-66.5853
16:56:40:293,-0.5242,2.5551,10.7401,42.4231,-0.2608,-0.3726,-0.1448,-66.5853
16:56:40:313,-0.6127,2.2336,10.2817,42.4132,0.0713,-0.0692,-0.0713,-66.5853
16:56:40:334,-0.822,2.3705,9.5351,42.0757,0.3002,0.1182,-0.0458,-66.5853
16:56:40:352,-1.0626,2.761,9.0327,41.8793,0.3375,0.0628,0.0575,-66.5853
16:56:40:372,-0.8363,3.2297,8.8235,41.5861,0.2364,-0.1437,0.1863,-66.5853
16:56:40:393,-0.2068,3.396,8.7315,41.6499,0.1437,-0.0213,0.1512,-66.5853
16:56:40:413,0.0981,3.1742,8.5732,41.9489,0.1086,0.3119,-0.0298,-66.5853
16:56:40:432,-0.0076,3.0142,8.2722,41.9306,0.132,0.7176,-0.1427,-66.5853
16:56:40:453,-0.3878,3.1578,7.9288,41.996,0.1416,0.9326,-0.1363,-66.5853
16:56:40:473,-0.5513,3.256,7.5199,41.847,0.1246,0.856,-0.1011,-66.5853
16:56:40:493,-0.662,3.2825,7.389,41.8146,0.016,0.4951,-0.1448,-66.5853
16:56:40:513,-0.7126,3.2608,7.7852,41.7035,-0.0958,0.0277,-0.2033,-66.5853
16:56:40:532,-0.7763,3.3231,8.1957,41.8928,-0.1395,-0.1395,-0.2033,-66.5853
16:56:40:552,-1.0346,3.6612,8.5203,41.8181,-0.2427,-0.1043,-0.1831,-66.5853
16:56:40:573,-1.2502,3.8637,8.9678,41.7965,-0.4322,-0.0192,-0.1373,-66.5853
16:56:40:593,-1.2769,4.0034,9.7658,41.7101,-0.6356,-0.0649,-0.0788,-66.5853
16:56:40:614,-1.1741,3.9411,10.9177,41.6894,-0.8326,-0.3002,-0.0341,-66.5853
16:56:40:633,-0.9394,3.4461,12.5423,41.5433,-0.8932,-0.5046,-0.0117,-66.5853
16:56:40:653,-0.8308,2.7675,13.8509,41.5072,-0.6313,-0.1512,0.0575,-66.5853
16:56:40:673,-0.8535,2.2859,14.0571,41.5694,-0.1735,0.3183,0.0958,-66.5853
16:56:40:693,-1.0311,2.1808,13.2795,41.6374,0.2449,0.5834,0.1416,-66.5853
16:56:40:713,-1.2054,2.0876,11.9577,41.6927,0.5515,0.6888,0.181,-66.5853
16:56:40:733,-1.49,1.9346,10.6175,41.5935,0.7953,0.7037,0.1512,-66.5853
16:56:40:753,-1.5297,1.5519,9.377,41.6136,0.8645,0.3716,0.0213,-66.5853
16:56:40:773,-1.682,1.0476,8.882,41.9731,0.691,-0.3002,-0.1991,-66.5853
16:56:40:793,-1.9583,0.5869,8.9171,41.8179,0.4951,-0.576,-0.2726,-66.5853
16:56:40:814,-2.1919,0.1544,8.9781,41.8507,0.4653,-0.4418,-0.2161,-66.5853
16:56:40:833,-2.4103,0.1012,8.6366,41.7729,0.4844,-0.3279,-0.1299,-66.5853
16:56:40:853,-2.3375,0.4502,8.1981,41.5721,0.4141,-0.2736,-0.0639,-66.4902
16:56:40:873,-2.0639,0.6947,7.7586,41.5214,0.2566,-0.2395,-0.049,-66.3944
16:56:40:894,-1.7594,0.8137,7.5074,41.5159,0.0852,-0.1852,-0.0681,-66.2994
16:56:40:914,-1.4962,1.0374,7.2689,41.5078,-0.0596,-0.0905,-0.083,-66.2051
16:56:40:933,-1.4101,1.1339,7.0361,41.7404,-0.1437,0.164,-0.0351,-66.1107
16:56:40:953,-1.4316,1.3447,6.925,41.8314,-0.1778,0.461,0.0958,-66.0161
16:56:40:974,-1.3718,1.5494,6.7602,41.8924,-0.164,0.6047,0.2108,-65.9253
16:56:40:993,-1.3735,1.8428,6.6167,41.8482,-0.0703,0.5749,0.2875,-65.9253
16:56:41:014,-1.4054,2.1911,6.4407,41.5215,0.033,0.3322,0.3034,-65.9253
16:56:41:033,-1.2957,2.4803,6.5273,41.4557,0.0468,-0.1693,0.2374,-65.9253
16:56:41:053,-1.3198,2.8454,7.0518,41.6928,-0.0798,-0.6665,0.0639,-65.9253
16:56:41:073,-1.3537,2.8593,7.9714,41.8071,-0.3024,-0.9326,-0.0767,-65.9253
16:56:41:093,-1.2312,2.4755,9.0748,41.8947,-0.4823,-0.6228,-0.0841,-65.9253
16:56:41:114,-1.1048,2.24,10.23,42.1691,-0.5621,-0.1682,-0.0447,-65.9253
16:56:41:133,-1.1659,2.3921,11.0773,42.131,-0.5291,0.1171,-0.0575,-65.9253
16:56:41:153,-1.4241,2.607,11.8176,42.1082,-0.4546,0.1214,-0.1065,-65.9253
16:56:41:174,-1.6072,2.4854,12.372,41.9025,-0.3992,0.0703,-0.0692,-65.9253
16:56:41:193,-1.7215,2.502,13.0835,41.7564,-0.2981,0.0479,0.0213,-65.9253
16:56:41:214,-1.6188,2.6064,13.6219,41.9092,-0.1448,-0.1022,0.1171,-65.9253
16:56:41:233,-1.3722,2.8254,13.9228,41.6074,0.0937,-0.1341,0.2726,-65.9253
16:56:41:254,-0.8437,2.8524,13.5685,41.8279,0.4684,0.0373,0.3939,-65.9253
16:56:41:273,-0.0391,2.2875,12.375,41.7807,0.7016,-0.0958,0.2449,-65.9253
16:56:41:294,0.1863,1.6449,11.3035,42.059,0.7346,-0.3002,-0.0213,-65.9253
16:56:41:314,-0.0423,1.2289,10.3794,42.3382,0.7932,-0.2906,-0.2427,-65.9253
16:56:41:334,-0.197,0.5905,9.3745,42.5212,0.7484,-0.3769,-0.4301,-65.9253
16:56:41:354,-0.1715,0.1819,8.7428,42.542,0.4408,-0.593,-0.4972,-65.9253
16:56:41:374,0.0553,0.1143,8.5143,42.7426,-0.0383,-0.758,-0.4365,-65.9253
16:56:41:394,0.3671,0.2793,8.4738,42.7441,-0.4408,-0.6324,-0.379,-65.9253
16:56:41:414,0.4355,0.5837,8.3804,42.7489,-0.543,-0.0277,-0.3726,-65.9253
16:56:41:434,0.1543,0.815,7.9717,42.8733,-0.3929,0.5515,-0.4631,-65.822
16:56:41:454,-0.2987,1.098,7.2794,42.9816,-0.1884,0.6782,-0.5685,-65.7035
16:56:41:473,-0.8659,1.3028,6.6837,43.208,-0.0692,0.3875,-0.6143,-65.5697
16:56:41:494,-1.2539,1.4938,6.4441,43.0575,0.0096,0.0681,-0.5345,-65.4203
16:56:41:514,-1.2148,1.4449,6.4422,42.86,0.0894,-0.0596,-0.3087,-65.2567
16:56:41:534,-0.6627,1.4138,6.6617,42.9504,0.1565,-0.1352,-0.049,-65.0851
16:56:41:554,0.1559,1.5808,6.8921,42.4861,0.1629,-0.2427,0.0213,-64.9148
16:56:41:574,0.6248,1.9362,7.4479,42.2687,0.0586,-0.4269,-0.1672,-64.7511
16:56:41:593,0.6534,2.1506,8.2308,42.1085,-0.0703,-0.3907,-0.445,-64.5894
16:56:41:614,0.1035,2.312,9.0996,41.8513,-0.1874,-0.0064,-0.6132,-64.4188
16:56:41:634,-0.6149,2.4554,9.7332,42.1012,-0.2364,0.4993,-0.6132,-64.2304
16:56:41:654,-1.3012,2.5067,10.5869,42.2568,-0.3322,0.6196,-0.4376,-64.0248
16:56:41:674,-1.9668,2.6653,11.7187,42.2647,-0.3386,0.4653,-0.1544,-63.8098
16:56:41:694,-2.3193,2.2947,12.6898,42.3779,-0.0586,0.4887,0.23,-63.594
16:56:41:714,-2.0492,1.6855,12.5096,42.4324,0.1661,0.5291,0.5675,-63.387
16:56:41:733,-2.0683,1.8232,12.1078,42.3202,0.2332,0.4642,0.7154,-63.2022
16:56:41:754,-2.1085,2.0625,11.6497,42.4259,0.3045,0.1192,0.6196,-63.0464
16:56:41:774,-2.0904,1.4359,11.3833,42.2483,0.0405,-0.7463,0.3396,-62.9213
16:56:41:794,-1.7767,0.4913,12.1043,42.5529,-0.2683,-1.1701,0.2843,-62.82
16:56:41:814,-1.2461,-0.0373,12.5754,42.5026,-0.2523,-1.0295,0.2332,-62.82
16:56:41:834,-0.8839,-0.1836,12.1139,42.5781,-0.1501,-0.6452,0.1246,-62.82
16:56:41:854,-0.6557,0.0183,10.9779,42.6498,-0.1693,-0.2598,0.0724,-62.82
16:56:41:874,-0.4836,0.2585,9.5254,42.5677,-0.2715,0.2513,0.0671,-62.82
16:56:41:894,-0.624,0.8208,8.024,42.8461,-0.3173,0.8464,0.0873,-62.82
16:56:41:914,-0.7942,1.1294,7.1657,42.9268,-0.2108,1.0423,0.0958,-62.82
16:56:41:934,-0.8685,1.1955,6.2585,42.8039,0.0064,0.8358,0.1501,-62.82
16:56:41:953,-0.7476,1.2706,5.6591,42.7805,0.3364,0.4312,0.2236,-62.82
16:56:41:973,-0.4982,1.4768,5.0381,42.4749,0.5877,-0.1129,0.2364,-62.82
16:56:41:993,-0.3873,1.7537,4.9692,41.9513,0.5291,-0.7005,0.1341,-62.82
16:56:42:015,-0.4885,1.9983,5.9319,41.8177,0.2161,-1.1701,-0.0053,-62.82
16:56:42:035,-0.8922,2.1208,8.0189,41.8221,-0.1672,-0.8208,0.0596,-62.82
16:56:42:053,-0.7265,2.446,9.8262,41.593,-0.198,0.2843,0.2672,-62.82
16:56:42:073,-0.4078,2.6908,10.3414,41.7261,-0.066,1.12,0.1235,-62.82
16:56:42:093,-0.4111,2.9182,10.297,41.7752,0.0841,1.1115,-0.2257,-62.82
16:56:42:129,-0.7402,2.9456,10.4743,41.4626,0.0979,0.4195,-0.5685,-62.82
16:56:42:137,-1.5888,2.5321,11.216,41.1227,0.0277,0.0788,-0.6345,-62.82
16:56:42:153,-2.4022,2.4734,12.0582,40.7767,0.1246,0.3822,-0.3343,-62.82
16:56:42:173,-2.5466,2.7422,12.0807,40.2681,0.2566,0.6835,0.0894,-62.7262
16:56:42:193,-2.0218,3.0877,11.7094,39.7424,0.3684,0.6622,0.3758,-62.6322
16:56:42:214,-1.05,2.897,11.6523,39.8234,0.329,-0.0383,0.2694,-62.6322
16:56:42:233,-0.2798,1.544,11.5314,39.7444,0.2076,-0.9465,-0.1001,-62.6322
16:56:42:254,-0.4545,0.4389,11.4157,39.8478,0.0117,-0.9454,-0.3982,-62.6322
16:56:42:274,-0.7829,-0.2112,11.5406,40.1428,-0.2119,-0.5376,-0.544,-62.6322
16:56:42:293,-0.9711,-0.4529,11.5381,39.878,-0.5387,-0.363,-0.51,-62.5397
16:56:42:314,-1.0482,-0.032,11.4316,39.7634,-0.7186,-0.0745,-0.3087,-62.433
16:56:42:333,-1.0508,0.8253,10.8083,39.5375,-0.5962,0.2523,-0.1597,-62.317
16:56:42:354,-0.9792,1.2766,9.5923,39.1915,-0.2938,0.4472,-0.1725,-62.197
16:56:42:374,-0.9704,1.3743,8.1483,39.2133,-0.0106,0.4312,-0.2364,-62.074
16:56:42:394,-1.124,1.4609,6.9901,39.3224,0.1522,0.1831,-0.2875,-61.947
16:56:42:414,-1.2883,1.6599,6.4071,39.1474,0.2832,-0.0671,-0.2672,-61.8149
16:56:42:435,-1.3057,1.585,5.926,38.9006,0.5323,-0.1384,-0.1916,-61.6761
16:56:42:454,-1.0503,1.4137,5.3619,38.3376,0.7442,-0.1735,-0.1352,-61.5316
16:56:42:473,-0.9593,1.4686,4.9783,37.8773,0.7527,-0.2736,-0.1384,-61.3837
16:56:42:494,-1.1065,2.0643,4.9917,37.4543,0.5217,-0.3407,-0.1139,-61.2343
16:56:42:514,-0.9454,2.3897,5.7749,37.1814,0.1043,-0.4365,-0.0543,-61.0851
16:56:42:534,-0.6572,2.179,7.687,36.9714,-0.313,-0.6122,-0.0064,-60.9407
16:56:42:554,-0.6541,2.031,9.7255,36.648,-0.3822,-0.4163,0.0085,-60.8021
16:56:42:574,-1.2531,2.6647,11.0848,36.1102,-0.1086,0.1565,0.1065,-60.6657
16:56:42:595,-1.716,3.0488,11.4296,35.5372,0.1256,0.5089,0.2938,-60.531
16:56:42:614,-1.8427,3.1307,11.5852,35.4998,0.1171,0.3662,0.4354,-60.4073
16:56:42:634,-1.8689,2.9968,12.2299,35.0393,0.1033,0.1597,0.5472,-60.3034
16:56:42:654,-1.9976,2.5639,12.7248,34.9341,0.4493,0.3609,0.7623,-60.3034
16:56:42:674,-1.9685,1.9818,11.8315,34.9431,0.9454,0.7389,0.9124,-60.3034
16:56:42:694,-1.8998,1.5339,10.5073,34.8806,1.021,0.4259,0.6292,-60.3034
16:56:42:715,-2.3563,1.0417,10.0014,35.0007,0.412,-0.692,0.2949,-60.3034
16:56:42:735,-2.2126,0.3147,10.403,34.8933,-0.3226,-0.9177,0.2534,-60.3034
16:56:42:753,-1.8427,0.0038,10.7576,34.602,-0.7218,-0.2342,0.2246,-60.3034
16:56:42:773,-1.9056,0.79,10.6576,34.6553,-0.9199,0.3961,0.1501,-60.3034
16:56:42:794,-1.8611,0.8849,10.1349,34.577,-1.021,0.4653,0.0202,-60.3034
16:56:42:816,-1.8268,0.8848,9.4527,34.6211,-0.9326,0.2204,-0.0256,-60.3034
16:56:42:834,-1.7824,1.0281,8.7655,34.6561,-0.7133,-0.1672,0.0266,-60.3034
16:56:42:853,-1.5054,0.9122,7.9655,34.6474,-0.4131,-0.4248,0.1565,-60.3034
16:56:42:874,-1.1293,0.7712,7.086,34.3923,-0.1491,-0.4259,0.3109,-60.3034
16:56:42:895,-0.883,0.7868,6.3119,34.5383,0.0458,-0.1586,0.4951,-60.3034
16:56:42:914,-0.6717,0.8937,5.7294,34.4228,0.2012,0.2055,0.6835,-60.3034
16:56:42:934,-0.3849,1.2414,5.464,34.5817,0.362,0.4418,0.7623,-60.3034
16:56:42:954,-0.2102,1.7487,5.3863,34.955,0.3599,0.1576,0.6015,-60.417
16:56:42:973,-0.337,2.353,6.2549,35.0079,0.1469,-0.544,0.2981,-60.5524
16:56:42:993,-0.4742,2.4413,7.9247,35.0666,-0.0884,-1.218,0.0639,-60.7018
16:56:43:013,-0.252,1.6862,9.8289,35.0362,-0.1363,-1.1562,-0.05,-60.8533
16:56:43:033,0.1923,1.319,11.0403,34.8859,-0.0756,-0.3205,-0.1693,-60.9961
16:56:43:053,0.5702,1.7416,11.2967,34.716,-0.395,0.4046,-0.5206,-61.126
16:56:43:073,0.3332,2.1922,11.8249,34.4976,-0.9039,0.8113,-1.0977,-61.2367
16:56:43:093,-1.0141,2.1287,12.8799,34.1409,-1.0029,0.9624,-1.4341,-61.2367
16:56:43:114,-2.27,1.5603,13.5668,33.7674,-0.7932,0.9699,-1.2552,-61.2367
16:56:43:134,-2.4588,0.6277,13.8892,33.5031,-0.5334,0.6303,-0.708,-61.2367
16:56:43:153,-1.6652,-0.2353,14.3922,32.8368,-0.2353,0.0256,-0.1554,-61.2367
16:56:43:174,-0.6545,-0.9195,14.2425,32.1426,0.148,-0.5334,-0.0106,-61.2367
16:56:43:194,-0.2113,-1.0583,13.4374,32.0032,0.3641,-0.8826,-0.1256,-61.2367
16:56:43:214,-0.299,-0.8005,12.2526,31.8259,0.2779,-0.7463,-0.1203,-61.2367
16:56:43:234,-0.2275,-0.5025,11.0439,31.8356,0.0703,-0.2395,-0.0064,-61.2367
16:56:43:254,-0.2753,-0.0803,9.9298,32.3083,-0.1001,0.2885,0.0117,-61.2367
16:56:43:275,-0.4325,0.6107,8.7818,32.857,-0.083,0.6963,-0.0277,-61.2367
16:56:43:294,-0.5734,0.9078,7.605,33.1828,0.066,0.757,-0.1352,-61.2367
16:56:43:314,-0.8971,1.1269,6.6272,33.758,0.2151,0.5355,-0.2002,-61.2367
16:56:43:334,-0.8405,1.0231,6.0238,34.1548,0.3811,0.1522,-0.1533,-61.2367
16:56:43:354,-0.481,0.8489,5.5643,34.1379,0.6409,-0.1341,-0.1214,-61.2367
16:56:43:374,-0.4194,0.9331,5.2683,34.1471,0.8113,-0.264,-0.0894,-61.1463
16:56:43:394,-0.4941,1.4138,5.2249,34.0617,0.8187,-0.2385,0.0064,-61.0527
16:56:43:414,-0.1686,1.8372,5.7926,33.8871,0.6633,-0.2342,0.0543,-60.9592
16:56:43:434,0.0294,2.1927,6.8776,33.813,0.4269,-0.2332,-0.0426,-60.9592
16:56:43:455,-0.2659,2.6479,8.4901,33.7836,0.2843,-0.2257,-0.1618,-60.8685
16:56:43:474,-0.7901,2.9047,9.8691,33.9658,0.3726,-0.3822,-0.2427,-60.7761
16:56:43:494,-1.1139,2.9274,10.1742,33.8805,0.395,-0.3599,-0.2342,-60.6784
16:56:43:514,-1.5892,3.1465,10.3427,33.7746,0.2332,-0.0522,-0.1331,-60.5733
16:56:43:533,-2.0211,3.0267,11.007,33.5749,-0.1618,0.1554,-0.0138,-60.4645
16:56:43:556,-2.4505,2.6408,12.7422,33.501,-0.4535,0.2268,0.2044,-60.3588
16:56:43:575,-2.6496,2.5931,13.8796,33.6731,-0.1405,0.363,0.5866,-60.2618
16:56:43:594,-2.0754,2.1434,13.2078,33.8057,0.4684,0.313,0.79,-60.2618
16:56:43:615,-1.8362,1.7798,11.4839,34.3314,0.7687,-0.1714,0.5749,-60.2618
16:56:43:634,-2.1951,1.4405,10.3372,34.217,0.477,-0.6537,0.3939,-60.2618
16:56:43:654,-2.1538,0.7791,10.0226,34.3331,0.0713,-0.6803,0.3013,-60.2618
16:56:43:674,-2.1596,0.5314,9.5839,34.183,-0.2811,-0.2406,0.2204,-60.2618
16:56:43:695,-2.1023,0.601,9.0401,33.8403,-0.6218,0.2598,0.2012,-60.2618
16:56:43:714,-1.6166,0.3918,8.5319,33.6216,-0.9944,0.4184,0.1735,-60.2618
16:56:43:734,-1.1976,0.3496,8.6612,33.4086,-1.3404,0.3609,0.0916,-60.2618
16:56:43:755,-0.8986,0.4709,8.9307,33.3805,-1.3606,0.3109,0.0426,-60.2618
16:56:43:774,-0.7572,0.2582,8.6778,33.1946,-0.9784,0.4642,0.0341,-60.2618
16:56:43:794,-0.8262,0.3445,8.04,33.1251,-0.4408,0.6377,0.1693,-60.2618
16:56:43:814,-0.9088,0.5066,7.1205,33.0481,0.0085,0.7538,0.4205,-60.2618
16:56:43:834,-0.7275,0.8076,6.3242,33.4455,0.28,0.7815,0.6271,-60.2618
16:56:43:854,-0.4451,1.0349,5.9415,33.3042,0.4184,0.5568,0.625,-60.2618
16:56:43:875,-0.578,1.2345,6.2253,33.7111,0.4237,0.0522,0.4567,-60.2618
16:56:43:894,-0.8881,1.4459,7.246,34.1035,0.23,-0.6026,0.2672,-60.3666
16:56:43:914,-0.891,1.4893,8.5641,34.0406,0.0075,-0.8336,0.1586,-60.4818
16:56:43:934,-0.6821,1.2689,9.8734,34.3472,-0.0426,-0.511,0.0043,-60.5998
16:56:43:954,-0.4916,1.1653,10.6543,34.2854,-0.1331,-0.1895,-0.1959,-60.7144
16:56:43:973,-0.3353,1.2397,11.3857,33.8405,-0.4535,0.0532,-0.4418,-60.8203
16:56:43:994,-0.8643,1.6682,12.7153,33.3566,-0.7112,0.3609,-0.6292,-60.9114
16:56:44:014,-1.3763,1.6649,14.05,33.4576,-0.5653,0.7495,-0.6601,-60.9114
16:56:44:033,-1.7734,1.6259,13.7307,33.2927,-0.1256,1.0753,-0.6122,-60.9114
16:56:44:054,-1.5606,1.2115,12.6463,33.5009,0.0085,0.9103,-0.4716,-60.9114
16:56:44:074,-1.2935,0.8294,12.6544,33.3594,0.0319,0.3215,-0.3087,-60.9114
16:56:44:093,-0.8355,0.3771,12.3715,33.233,0.3992,-0.181,-0.1235,-60.9114
16:56:44:142,-0.2723,-0.3332,11.0012,33.493,0.5813,-0.3897,-0.0426,-60.9114
16:56:44:144,-0.0698,-0.3767,10.0271,33.6369,0.3929,-0.6601,-0.1554,-60.9114
16:56:44:153,-0.3096,0.4574,9.5788,34.0917,-0.1086,-0.9348,-0.2545,-60.9114
16:56:44:173,-0.1522,0.6741,9.3279,34.0814,-0.4567,-0.8166,-0.296,-60.9114
16:56:44:193,0.0129,0.4923,8.7727,33.9649,-0.5802,-0.4046,-0.4642,-60.9114
16:56:44:214,-0.2673,0.39,7.9416,33.8504,-0.3918,0.0884,-0.5462,-60.9114
16:56:44:233,-0.2864,0.2768,6.8536,33.7425,-0.2119,0.2694,-0.5462,-60.9114
16:56:44:254,-0.5471,0.5195,6.2912,33.8716,-0.1884,0.0468,-0.6164,-60.9114
16:56:44:273,-0.9768,0.8234,6.2154,33.7099,-0.0617,-0.181,-0.6015,-60.8054
16:56:44:294,-1.1481,0.7944,6.2546,33.3901,0.2491,-0.3268,-0.4738,-60.6815
16:56:44:315,-1.052,1.0657,6.1366,33.0122,0.5483,-0.4163,-0.313,-60.542
16:56:44:334,-1.0125,1.6834,6.1341,32.8678,0.5589,-0.4578,-0.2257,-60.393
16:56:44:354,-1.0242,2.3117,6.7341,32.0811,0.2576,-0.4887,-0.2289,-60.2397
16:56:44:374,-1.2164,2.5441,8.2343,31.9748,-0.1235,-0.4376,-0.3066,-60.0845
16:56:44:394,-1.3587,1.9766,10.281,31.9025,-0.297,-0.2715,-0.3535,-59.9249
16:56:44:417,-1.4698,1.5889,11.6388,31.7941,-0.2385,-0.0458,-0.3599,-59.7582
16:56:44:434,-1.8606,1.5293,12.403,31.5239,-0.1831,0.4802,-0.3737,-59.5819
16:56:44:454,-2.4881,1.3939,12.6989,31.5516,-0.1948,0.7506,-0.3045,-59.3956
16:56:44:474,-3.0148,1.2382,13.033,31.8177,-0.3524,0.6388,-0.0841,-59.2043
16:56:44:495,-3.2841,1.1191,13.8491,31.6083,-0.3098,0.3886,0.2651,-59.0159
16:56:44:515,-2.9907,0.929,13.8203,32.0754,0.1278,0.3002,0.6942,-58.8391
16:56:44:534,-2.3492,0.3408,12.6476,32.7766,0.7389,0.2183,0.8826,-58.6853
16:56:44:553,-2.2047,-0.0364,10.8267,32.7016,1.0178,-0.297,0.7197,-58.5628
16:56:44:574,-2.4714,0.0996,9.7516,32.8741,0.5919,-0.9007,0.576,-58.471
16:56:44:594,-2.4159,-0.1507,9.9565,32.6707,0.0256,-1.1498,0.4748,-58.471
16:56:44:614,-2.017,-0.6311,10.3175,32.5204,-0.363,-0.9177,0.4269,-58.471
16:56:44:634,-1.6529,-0.8745,10.1516,32.4404,-0.4961,-0.3886,0.3918,-58.471
16:56:44:653,-1.3071,-0.9501,9.2997,32.6931,-0.4525,0.2321,0.3737,-58.471
16:56:44:673,-1.2038,-0.739,8.547,32.5877,-0.4365,0.5132,0.379,-58.471
16:56:44:694,-1.203,-0.3282,7.8991,32.2007,-0.3652,0.6122,0.477,-58.471
16:56:44:714,-1.1746,-0.0391,7.551,31.728,-0.1522,0.5696,0.5792,-58.471
16:56:44:734,-1.1054,0.3115,7.1529,31.5189,0.2097,0.5057,0.6814,-58.471
16:56:44:754,-0.9692,0.3946,6.4751,31.147,0.61,0.4344,0.8049,-58.471
16:56:44:773,-0.7668,0.4157,6.03,31.2714,0.823,0.2534,0.9284,-58.471
16:56:44:795,-0.8237,1.0947,5.8347,31.4589,0.7559,0.1682,0.9593,-58.5821
16:56:44:815,-0.7214,1.6819,6.2486,31.5843,0.4748,0.1192,0.8538,-58.7214
16:56:44:836,-0.4909,1.9735,7.4934,31.6243,0.0117,-0.2055,0.5355,-58.8898
16:56:44:853,-0.507,1.8839,9.2903,31.8689,-0.3492,-0.2928,0.1437,-59.0784
16:56:44:873,-0.7012,1.3638,10.9616,31.9247,-0.3268,0.0905,-0.1427,-59.27
16:56:44:894,-0.7829,0.7837,11.7088,31.9116,-0.0415,0.4972,-0.3386,-59.4504
16:56:44:914,-0.9031,0.8482,11.4182,31.6,-0.1246,0.642,-0.4887,-59.6134
16:56:44:933,-1.3477,1.291,11.7795,31.2356,-0.4589,0.9667,-0.5504,-59.7567
16:56:44:953,-1.857,1.9412,12.5089,31.2578,-0.5089,1.2882,-0.5121,-59.8777
16:56:44:973,-1.9292,2.5782,12.5489,31.0402,-0.4472,1.3596,-0.4546,-59.9778
16:56:44:993,-2.0604,2.1905,13.1553,31.3242,-0.5227,0.7474,-0.5983,-59.9778
16:56:45:018,-2.4542,1.3693,14.0053,31.2792,-0.2438,0.2076,-0.4429,-59.9778
16:56:45:033,-1.8575,0.0661,13.4781,31.6569,0.181,-0.198,-0.1235,-59.9778
16:56:45:053,-1.0806,-0.5094,12.2177,31.9231,0.3141,-0.5291,-0.0405,-59.9778
16:56:45:073,-0.6326,-0.5256,11.3264,32.4383,0.33,-0.7282,-0.0937,-59.9778
16:56:45:094,-0.3886,-0.1213,10.313,32.7499,0.3279,-0.7751,-0.2278,-59.9778
16:56:45:114,-0.2725,0.3644,9.151,33.1027,0.3748,-0.6122,-0.4035,-59.9778
16:56:45:134,-0.2831,0.6158,7.7118,33.3702,0.4727,-0.3418,-0.5802,-59.9778
16:56:45:153,-0.4529,0.7868,6.2533,33.2679,0.5547,-0.0926,-0.6952,-59.9778
16:56:45:174,-0.5852,0.8251,5.1361,33.0328,0.5355,-0.0287,-0.7495,-59.9778
16:56:45:196,-0.6004,0.9032,4.4608,32.3893,0.3588,-0.1842,-0.7772,-59.9778
16:56:45:214,-0.5415,0.8235,4.3841,31.5078,0.2076,-0.3545,-0.7399,-59.9778
16:56:45:233,-0.7042,0.7717,4.7546,30.7468,0.1235,-0.4078,-0.6494,-59.8691
16:56:45:254,-1.042,0.9183,5.4267,30.376,0.2033,-0.2332,-0.4205,-59.7394
16:56:45:275,-1.0834,1.1645,5.8793,29.9336,0.1192,-0.2534,-0.2129,-59.5951
16:56:45:293,-0.7276,1.8045,6.8944,29.9403,-0.2534,-0.6186,-0.2097,-59.4477
16:56:45:316,-1.4403,2.7013,9.3276,30.2638,-0.5994,-0.8698,-0.4855,-59.3039
16:56:45:333,-2.367,1.6971,12.0368,30.3638,-0.3002,-0.7154,-0.3843,-59.1514
16:56:45:353,-2.8846,0.9243,12.679,30.6014,0.2928,-0.2672,-0.0713,-58.985
16:56:45:375,-3.378,1.9055,12.0419,30.4973,0.4291,-0.0021,0.2321,-58.8138
16:56:45:394,-3.3958,2.4151,12.2997,30.4844,-0.0415,-0.1448,0.444,-58.6528
16:56:45:414,-2.8238,1.659,13.5592,30.6358,-0.3077,-0.2108,0.6643,-58.5142
16:56:45:433,-2.5569,1.4791,14.2878,30.5441,0.0309,-0.016,0.8464,-58.3995
16:56:45:455,-2.405,1.5302,13.4147,30.4535,0.5451,-0.1192,0.9443,-58.3995
16:56:45:473,-1.9721,1.2717,11.8809,30.6039,0.6239,-0.4727,0.9167,-58.3995
16:56:45:494,-1.5372,0.7977,11.2109,30.8446,0.3183,-0.7133,0.7634,-58.3995
16:56:45:514,-1.2221,0.3332,11.0748,31.2257,-0.0351,-0.7421,0.5281,-58.3995
16:56:45:533,-1.1183,-0.0791,10.9195,31.8221,-0.23,-0.5653,0.3279,-58.3995
16:56:45:553,-1.0051,-0.3235,10.1944,32.4671,-0.2449,-0.2651,0.2055,-58.3995
16:56:45:573,-0.8306,-0.2165,9.0488,32.9461,-0.2151,0.1054,0.1491,-58.3995
16:56:45:595,-0.6186,0.1984,7.7724,33.4286,-0.181,0.4738,0.1767,-58.3995
16:56:45:614,-0.2203,0.2867,6.7426,34.0223,-0.2438,0.6931,0.197,-58.3995
16:56:45:633,-0.1685,0.4823,6.2286,34.577,-0.33,0.7123,0.1906,-58.3995
16:56:45:655,-0.3183,0.8433,5.9548,34.7541,-0.1906,0.7112,0.2438,-58.3995
16:56:45:673,-0.3668,0.7075,5.52,35.0819,0.0958,0.7421,0.3268,-58.3995
16:56:45:693,-0.4313,0.6428,5.2517,34.7854,0.2321,0.6803,0.3684,-58.3995
16:56:45:713,-0.8748,1.079,5.5491,34.8094,0.1586,0.3418,0.3056,-58.4978
16:56:45:733,-1.5509,1.6723,6.8746,34.6952,-0.1129,-0.3024,0.2598,-58.6077
16:56:45:754,-1.1307,1.0193,8.3688,34.539,-0.2374,-0.6654,0.2704,-58.7278
16:56:45:774,-0.7827,0.4976,9.5652,34.526,-0.2608,-0.4961,0.2023,-58.8546
16:56:45:793,-1.0843,0.8902,10.7232,34.5332,-0.2662,0.0873,0.1863,-58.9835
16:56:45:814,-0.9452,1.0049,11.9624,34.0839,-0.2459,0.3205,0.1895,-59.1128
16:56:45:834,-0.3879,1.1702,12.7494,34.1276,-0.4014,0.0607,0.0437,-59.2461
16:56:45:853,-0.3368,1.6365,13.8988,34.0999,-0.3992,-0.0341,-0.131,-59.3804
16:56:45:875,-0.5237,1.8894,13.9283,34.0658,-0.1065,0.2555,-0.2183,-59.5068
16:56:45:893,-0.848,2.0466,13.0892,34.288,-0.0181,0.6835,-0.3215,-59.6192
16:56:45:914,-1.2303,1.6022,12.8365,34.3442,-0.1214,0.5547,-0.4631,-59.718
16:56:45:934,-1.6941,0.9713,12.7341,34.6221,0.1597,0.2183,-0.428,-59.718
16:56:45:953,-1.467,0.286,11.3481,34.8553,0.477,-0.1863,-0.3077,-59.718
16:56:45:975,-1.1469,-0.2857,10.1405,34.8977,0.3907,-0.5983,-0.2726,-59.718
16:56:45:993,-0.7856,-0.4108,9.8757,35.421,0.1778,-1.0146,-0.1682,-59.718
16:56:46:013,0.0196,-0.0707,9.4826,35.7704,-0.066,-1.1626,-0.082,-59.718
16:56:46:033,0.8504,0.2322,9.1121,36.0418,-0.3588,-0.9358,-0.2012,-59.718
16:56:46:054,1.0027,0.6593,8.7172,36.2893,-0.5153,-0.4259,-0.4546,-59.718
16:56:46:073,0.7115,0.9791,8.1189,36.1408,-0.4461,0.1054,-0.6537,-59.718
16:56:46:093,0.3308,1.022,7.3337,35.8706,-0.2406,0.4674,-0.7154,-59.718
16:56:46:116,0.0571,1.0437,6.6647,35.2055,-0.0479,0.527,-0.6654,-59.718
16:56:46:136,-0.2874,1.3337,6.2866,34.4897,0.1576,0.3577,-0.5579,-59.718
16:56:46:153,-0.4965,1.5566,6.2911,34.1164,0.4418,0.116,-0.4078,-59.718
16:56:46:174,-0.4901,1.2457,6.4177,33.9252,0.7367,-0.1863,-0.2491,-59.6243
16:56:46:193,-0.1973,0.8913,6.5974,34.014,0.8272,-0.3886,-0.0532,-59.523
16:56:46:215,-0.2528,1.7202,7.92,34.4694,0.6111,-0.6122,0.1341,-59.4222
16:56:46:235,-0.2516,2.6625,9.8605,34.9,0.5898,-0.7538,0.1767,-59.3293
16:56:46:254,0.3775,2.2154,10.886,35.0063,0.7272,-0.5249,0.0692,-59.3293
16:56:46:274,0.2253,2.1666,11.1043,35.3466,0.7591,-0.0106,-0.1256,-59.3293
16:56:46:293,-0.6267,2.9773,11.1694,35.6455,0.5259,0.4961,-0.1491,-59.3293
16:56:46:314,-1.0998,3.0364,11.7818,35.7833,0.1469,0.4695,-0.0809,-59.2339
16:56:46:333,-1.0179,2.4172,13.0096,35.7846,-0.115,0.0575,0.0096,-59.1428
16:56:46:355,-1.1049,2.4662,14.0407,35.9184,0.1693,0.0437,0.1299,-59.1428
16:56:46:373,-1.1125,2.2195,13.4604,35.8962,0.7453,0.1906,0.1703,-59.1428
16:56:46:393,-1.3576,1.709,11.8567,35.9147,1.021,-0.017,0.0341,-59.1428
16:56:46:414,-1.7138,1.2232,10.554,35.967,0.8485,-0.3599,-0.0213,-59.1428
16:56:46:433,-1.8104,0.8569,10.0411,36.2194,0.4653,-0.6548,0.0202,-59.1428
16:56:46:454,-1.5224,0.693,9.8526,36.5127,0.1086,-0.6196,0.083,-59.1428
16:56:46:472,-1.1084,0.9292,9.4764,37.1562,-0.1884,-0.3609,0.0958,-59.1428
16:56:46:493,-0.6642,0.8629,9.4722,37.6643,-0.4365,-0.1757,0.049,-59.1428
16:56:46:514,-0.3298,0.7064,9.1284,38.2455,-0.5068,0.066,-0.0681,-59.1428
16:56:46:538,-0.6463,0.9662,8.634,38.846,-0.296,0.4631,-0.1033,-59.1428
16:56:46:553,-0.8506,1.0514,7.6473,39.1748,-0.0532,0.6026,-0.0735,-59.1428
16:56:46:573,-1.0601,1.2117,6.7621,39.7614,0.0958,0.5781,0.0586,-59.1428
16:56:46:594,-1.1428,1.4214,6.0544,39.7856,0.2651,0.5941,0.3002,-59.1428
16:56:46:614,-0.9815,1.6439,5.4387,39.8411,0.4546,0.5089,0.5323,-59.1428
16:56:46:636,-0.7514,2.0247,5.2818,39.5967,0.4929,0.131,0.6143,-59.1428
16:56:46:654,-0.6446,2.4618,5.8136,39.5105,0.3662,-0.4259,0.5153,-59.1428
16:56:46:673,-0.6507,2.71,6.8258,39.2869,0.099,-0.8432,0.3109,-59.1428
16:56:46:693,-0.683,2.4295,8.5491,39.5262,-0.1618,-0.6995,0.1693,-59.1428
16:56:46:717,-1.0128,2.0778,10.2893,39.4818,-0.2023,-0.083,0.1405,-59.1428
16:56:46:734,-1.0171,1.9507,11.5153,39.4371,-0.0628,0.6377,0.2257,-59.1428
16:56:46:753,-0.7685,2.4794,12.0055,39.2714,0.0224,0.6132,0.0948,-59.1428
16:56:46:773,-0.7722,3.2538,12.3851,39.3575,-0.0032,0.4865,-0.0916,-59.1428
16:56:46:793,-0.9895,3.4245,12.4699,39.1319,0.2481,0.61,-0.1906,-59.1428
16:56:46:814,-1.3463,3.793,11.1683,38.9574,0.4301,0.7367,-0.1874,-59.1428
16:56:46:833,-1.1566,3.3505,10.4155,39.2932,0.0671,0.4557,-0.1278,-59.1428
16:56:46:853,-0.6553,2.3321,11.3626,39.6371,-0.2917,-0.0011,-0.0564,-59.1428
16:56:46:873,-0.333,1.7181,11.8205,39.8544,-0.1938,-0.0713,0.0309,-59.1428
16:56:46:894,-0.0368,1.172,11.2044,40.2874,-0.0958,-0.1299,0.0649,-59.1428
16:56:46:914,0.0985,0.9806,10.598,40.5307,-0.2246,-0.3162,0.1022,-59.1428
16:56:46:933,0.3058,1.2001,10.3172,40.8003,-0.3939,-0.4088,0.2129,-59.1428
16:56:46:953,0.6019,1.404,9.6828,40.773,-0.3386,-0.2151,0.2566,-59.1428
16:56:46:973,0.5629,1.5216,8.6357,40.7029,-0.2619,0.3268,0.2534,-59.1428
16:56:46:994,0.3142,1.8422,7.5671,40.6796,-0.3162,0.9124,0.2002,-59.1428
16:56:47:014,-0.1084,2.246,7.1711,40.3303,-0.3141,1.2691,0.0586,-59.1428
16:56:47:033,-0.5665,2.663,6.8178,40.3779,-0.1278,1.0934,-0.0894,-59.1428
16:56:47:054,-0.8854,2.6847,6.3562,40.2554,0.1693,0.5579,-0.1086,-59.1428
16:56:47:073,-0.6945,2.449,5.9482,40.148,0.4759,-0.0809,-0.0383,-59.1428
16:56:47:093,-0.3254,2.5978,5.8355,40.2781,0.5589,-0.5824,-0.0053,-59.1428
16:56:47:116,-0.0999,2.9875,5.9281,39.9389,0.4567,-0.791,0.0106,-59.1428
16:56:47:135,0.3043,2.9171,6.7184,39.7776,0.0937,-0.9135,-0.0309,-59.1428
16:56:47:153,0.5124,3.1489,8.7368,39.9047,-0.3098,-1.2009,-0.1033,-59.1428
16:56:47:173,0.6499,3.3639,11.0851,40.0506,-0.2545,-1.1732,-0.1874,-59.1428
16:56:47:193,0.5237,3.3223,12.2443,40.1229,0.1182,-0.5323,-0.2896,-59.1428
16:56:47:215,-0.0821,3.4837,12.0687,40.2846,0.5015,0.4035,-0.296,-59.1428
16:56:47:233,-0.9036,3.7924,11.3177,40.3683,0.5653,0.7815,-0.2449,-59.1428
16:56:47:253,-1.4779,3.7615,11.0517,40.1931,0.4376,0.5142,-0.1086,-59.1428
16:56:47:273,-1.7903,3.434,11.5078,40.008,0.3705,0.2385,0.1448,-59.1428
16:56:47:293,-1.6953,3.3034,11.7822,40.1815,0.4802,0.3066,0.3875,-59.1428
16:56:47:313,-1.4023,2.6932,11.4745,40.1546,0.6707,-0.0298,0.3183,-59.1428
16:56:47:333,-1.3935,1.9681,10.8933,40.0832,0.4897,-0.3929,0.198,-59.1428
16:56:47:356,-1.6729,2.0369,10.7634,40.1756,0.3556,-0.1586,0.1629,-59.1428
16:56:47:373,-1.7323,1.9173,10.1762,40.3925,0.2002,0.017,0.1001,-59.1428
16:56:47:393,-1.5909,1.5264,9.661,40.4149,-0.1107,-0.0735,0.0586,-59.1428
16:56:47:414,-1.4732,1.6113,9.2743,40.9599,-0.3354,0.0564,0.0479,-59.1428
16:56:47:434,-1.1671,1.5222,8.8084,41.1792,-0.4493,0.2534,0.0373,-59.1428
16:56:47:454,-0.9893,1.6327,8.3587,41.2557,-0.5142,0.3567,-0.0011,-59.1428
16:56:47:474,-1.1299,1.8835,8.0138,41.3801,-0.4216,0.4003,-0.0373,-59.1428
16:56:47:495,-1.0674,1.6933,7.5034,41.5835,-0.2374,0.247,-0.0298,-59.1428
16:56:47:514,-0.9341,1.4207,7.0221,41.3534,-0.016,-0.05,-0.0021,-59.1428
16:56:47:533,-0.8297,1.3899,6.7625,41.4167,0.1874,-0.4386,0.0298,-59.1428
16:56:47:554,-0.9994,1.9235,6.6574,41.3384,0.3492,-0.7229,0.1278,-59.1428
16:56:47:573,-1.1851,2.7635,6.7137,41.0397,0.5781,-0.5962,0.2853,-59.1428
16:56:47:594,-0.8781,3.1113,6.4394,40.9921,0.7123,-0.4195,0.3503,-59.1428
16:56:47:615,-0.4023,3.2388,6.487,40.8735,0.5717,-0.4014,0.4163,-59.1428
16:56:47:633,0.0898,3.3697,6.8971,40.8138,0.4333,-0.3364,0.4248,-59.1428
16:56:47:653,0.5594,3.7395,7.204,40.7406,0.3332,-0.1427,0.2768,-59.235
16:56:47:674,0.6784,4.473,7.6198,40.4198,0.0884,-0.0138,-0.0362,-59.3351
16:56:47:694,0.5494,4.552,8.3453,40.595,-0.3119,-0.1256,-0.3556,-59.4345
16:56:47:714,0.2555,4.4068,9.6665,40.5646,-0.7868,-0.2896,-0.5302,-59.4345
16:56:47:734,0.0209,4.0892,11.484,40.3184,-1.038,-0.2214,-0.5504,-59.4345
16:56:47:755,-0.0921,3.8688,12.9105,40.5844,-0.9869,0.1182,-0.56,-59.4345
16:56:47:774,0.0315,3.0267,13.725,40.3684,-0.9497,0.2289,-0.757,-59.4345
16:56:47:794,-0.2237,1.9092,14.6293,40.0413,-0.7314,0.1011,-0.8475,-59.4345
16:56:47:814,-0.9203,1.4823,14.3342,39.731,-0.1235,0.1714,-0.7942,-59.4345
16:56:47:834,-1.5052,1.327,12.9008,39.6059,0.2459,-0.0383,-0.642,-59.4345
16:56:47:854,-1.5651,1.3005,11.689,39.6834,0.0649,-0.3045,-0.3141,-59.4345
16:56:47:874,-1.0756,1.737,11.2441,39.6375,-0.2566,-0.3875,0.0266,-59.339
16:56:47:894,-0.2388,2.1615,10.4999,39.9665,-0.3247,-0.0948,0.2076,-59.2451
16:56:47:914,0.2652,2.3129,8.9996,39.7067,-0.1246,0.411,0.1043,-59.2451
16:56:47:935,0.1574,2.1793,7.1783,39.64,0.2055,0.7591,-0.0607,-59.2451
16:56:47:953,-0.1569,2.0366,5.4759,39.7489,0.4067,0.7037,-0.1629,-59.1529
16:56:47:975,-0.5043,2.0594,4.2847,39.5331,0.445,0.4014,-0.1852,-59.059
16:56:47:993,-0.6924,1.9632,3.4651,39.3866,0.3705,0.1235,-0.1363,-58.9635
16:56:48:017,-0.7503,1.9744,3.0427,39.5362,0.2459,-0.0064,-0.05,-58.8666
16:56:48:033,-0.8409,2.2573,2.9343,39.592,0.131,-0.1821,0.0852,-58.7717
16:56:48:054,-0.9116,2.7076,3.1143,39.3766,-0.0298,-0.4386,0.2598,-58.7717
16:56:48:077,-0.5764,3.1205,3.902,39.232,-0.4291,-0.7197,0.3567,-58.7717
16:56:48:094,0.0036,3.2569,5.6841,39.1409,-0.9656,-0.8453,0.3758,-58.7717
16:56:48:116,0.5245,2.786,8.4952,38.8259,-1.2776,-0.5015,0.4322,-58.7717
16:56:48:148,0.7067,2.7901,11.5501,38.7203,-1.0838,-0.0692,0.3758,-58.7717
16:56:48:155,0.665,3.2829,13.0475,38.6269,-0.7825,0.3407,0.1959,-58.7717
16:56:48:173,0.4127,3.3493,13.8988,38.6453,-0.9028,0.6878,-0.1576,-58.7717
16:56:48:193,-0.7081,2.5728,15.4406,38.5671,-1.0529,0.9412,-0.395,-58.7717
16:56:48:214,-2.231,1.7259,16.56,38.3005,-0.725,1.2776,-0.1299,-58.7717
16:56:48:234,-2.8691,1.1904,16.7686,38.2668,-0.0809,1.1424,0.2864,-58.7717
16:56:48:254,-2.5875,0.1165,15.5364,38.1217,0.4759,0.5472,0.2949,-58.7717
16:56:48:273,-2.8928,-0.32,13.8273,38.0022,0.8943,0.2033,0.2321,-58.7717
16:56:48:294,-3.3223,0.1117,11.6819,37.8635,1.0338,0.148,0.3567,-58.7717
16:56:48:314,-3.2342,0.9525,10.0016,37.8717,0.6846,-0.0351,0.4418,-58.7717
16:56:48:334,-2.4331,1.1501,9.0374,38.0221,0.0884,-0.2768,0.4248,-58.7717
16:56:48:354,-1.3372,0.7623,8.7631,37.8638,-0.4322,-0.2885,0.2353,-58.7717
16:56:48:373,-0.9214,0.5918,8.4844,37.8406,-0.6377,-0.0181,-0.0032,-58.7717
16:56:48:393,-0.8637,0.5157,7.7214,37.9174,-0.5174,0.3471,-0.1448,-58.7717
16:56:48:414,-0.7724,0.3265,6.5436,37.7774,-0.3173,0.5185,-0.1916,-58.7717
16:56:48:434,-0.7651,0.508,5.6242,37.6266,-0.2481,0.2896,-0.198,-58.7717
16:56:48:454,-0.7235,0.8463,4.9961,37.699,-0.1884,-0.0202,-0.1192,-58.7717
16:56:48:473,-0.5439,0.7946,4.7131,37.7924,-0.0681,-0.0671,0.05,-58.7717
16:56:48:493,-0.5721,0.5244,4.8214,37.9421,0.0926,0.0138,0.2885,-58.7717
16:56:48:514,-0.9615,0.934,4.9731,38.0855,0.1927,0.1086,0.4983,-58.7717
16:56:48:534,-1.4998,2.3008,5.9565,37.9039,-0.1852,-0.1852,0.5313,-58.7717
16:56:48:554,-1.4822,2.6484,8.4429,37.9581,-0.5504,-0.4461,0.5153,-58.7717
16:56:48:573,-0.5848,1.0846,10.8132,37.811,-0.3279,-0.6782,0.3237,-58.7717
16:56:48:593,0.0483,0.6334,11.7095,37.4145,-0.0106,-0.6654,-0.1544,-58.8627
16:56:48:614,-0.3609,1.219,12.0581,37.4882,-0.1299,-0.2949,-0.56,-58.8627
16:56:48:635,-1.2167,1.513,12.8193,37.1004,-0.362,0.3758,-0.8389,-58.8627
16:56:48:654,-2.098,1.7326,13.1137,36.888,-0.4184,0.9433,-0.8975,-58.8627
16:56:48:673,-3.044,2.3682,13.0522,36.6919,-0.3247,1.2712,-0.7144,-58.8627
16:56:48:694,-3.2089,2.6136,12.7427,36.4339,-0.2906,0.9188,-0.4227,-58.8627
16:56:48:714,-2.4792,1.7399,13.2513,36.2727,-0.3151,0.0671,-0.2747,-58.8627
16:56:48:734,-1.9348,0.9696,13.5016,36.4483,0.0117,-0.3652,-0.1821,-58.8627
16:56:48:754,-1.4895,0.3545,12.3874,36.3136,0.3545,-0.3843,-0.1661,-58.8627
16:56:48:774,-1.3935,0.0242,11.1049,36.3151,0.3034,-0.4472,-0.197,-58.8627
16:56:48:793,-1.2281,-0.094,10.2993,36.2356,-0.0011,-0.5345,-0.132,-58.8627
16:56:48:816,-0.795,-0.2124,9.7552,35.9051,-0.1682,-0.4088,-0.0415,-58.8627
16:56:48:833,-0.3504,-0.2064,8.9596,36.1407,-0.116,-0.198,-0.0383,-58.8627
16:56:48:853,-0.2115,-0.0078,8.1904,36.3286,0.0213,-0.1129,-0.0894,-58.8627
16:56:48:873,-0.2393,0.2103,7.4258,36.5424,0.2566,-0.1022,-0.1086,-58.8627
16:56:48:894,-0.169,0.3637,6.5543,36.8512,0.5036,-0.1097,-0.0841,-58.8627
16:56:48:913,-0.1193,0.4878,5.9935,37.1015,0.6856,-0.1693,-0.0937,-58.8627
16:56:48:934,-0.1127,0.6247,5.5408,37.1278,0.8208,-0.1246,-0.1011,-58.8627
16:56:48:954,-0.171,0.9844,5.3693,37.1046,0.9273,0.0053,-0.1192,-58.7684
16:56:48:974,-0.341,1.5981,5.3843,36.9516,0.8304,0.1693,-0.198,-58.6691
16:56:48:994,-0.8949,2.7105,5.8994,36.6705,0.5036,0.1821,-0.2928,-58.5661
16:56:49:016,-1.2548,3.18,7.0058,36.5309,0.1299,0.1139,-0.2726,-58.4563
16:56:49:033,-1.3322,2.8455,8.4845,36.8623,-0.0713,-0.0287,-0.2108,-58.3422
16:56:49:054,-1.5842,2.9161,9.7448,36.8957,-0.1224,0.05,-0.1703,-58.2247
16:56:49:077,-1.9294,3.2341,10.5733,37.2837,-0.1554,0.2055,-0.1725,-58.1037
16:56:49:094,-2.2847,3.1095,11.2518,37.4526,-0.3854,0.2268,-0.1576,-57.981
16:56:49:114,-2.9327,2.4157,12.6985,37.6259,-0.576,0.1363,-0.0351,-57.8586
16:56:49:135,-3.4925,2.1777,13.906,37.5208,-0.4216,0.0607,0.3588,-57.74
16:56:49:153,-3.2531,2.1714,14.379,37.8499,0.1075,-0.0043,0.7367,-57.6336
16:56:49:173,-2.5523,1.9544,13.5481,37.9556,0.6633,-0.2906,0.7623,-57.6336
16:56:49:193,-2.0396,1.3071,12.1223,37.9542,0.8315,-0.4802,0.5536,-57.6336
16:56:49:215,-1.9643,0.9439,11.1831,37.8766,0.724,-0.6473,0.3173,-57.6336
16:56:49:234,-1.9352,0.924,10.4849,37.8662,0.4567,-0.7037,0.1384,-57.6336
16:56:49:255,-1.7625,0.8368,10.0985,37.6511,0.1512,-0.6154,0.0075,-57.6336
16:56:49:276,-1.5043,0.7099,9.5827,37.7394,-0.0234,-0.4546,-0.0788,-57.6336
16:56:49:293,-1.1172,0.6194,8.7833,37.2274,-0.1288,-0.1576,-0.0841,-57.6336
16:56:49:314,-0.8737,0.7027,7.8707,37.3221,-0.2736,-0.049,-0.1267,-57.6336
16:56:49:333,-1.1291,1.1421,7.0268,37.0089,-0.3822,0.0319,-0.0681,-57.6336
16:56:49:353,-1.0036,1.2145,6.7512,36.7979,-0.3002,0.1065,0.1533,-57.6336
16:56:49:373,-0.5388,0.8072,6.3788,36.9584,-0.0117,0.2268,0.3045,-57.6336
16:56:49:394,-0.6343,0.9226,6.1596,36.8892,0.2704,0.3268,0.3311,-57.6336
16:56:49:414,-0.9352,1.5101,5.9336,37.1589,0.4216,0.2992,0.3354,-57.6336
16:56:49:433,-1.0777,2.0855,5.7719,37.2626,0.3705,0.2843,0.2779,-57.6336
16:56:49:453,-1.1307,2.0344,6.2539,37.3811,0.1927,0.3503,0.1597,-57.6336
16:56:49:473,-1.3184,1.9114,6.9107,37.7891,-0.0064,0.2385,0.131,-57.6336
16:56:49:493,-1.3034,1.9681,7.9911,37.967,-0.1033,0.0798,0.164,-57.6336
16:56:49:514,-1.2921,2.4311,9.1738,37.9274,-0.1512,-0.1203,0.099,-57.6336
16:56:49:533,-0.9526,2.3956,10.0008,37.8201,-0.4024,-0.2683,-0.05,-57.6336
16:56:49:554,-0.6413,2.083,11.5497,37.7898,-0.8113,-0.1597,-0.2853,-57.6336
16:56:49:574,-1.0965,2.2866,13.2913,37.5864,-0.7985,0.1224,-0.4642,-57.6336
16:56:49:594,-1.7751,2.7159,13.7301,37.0959,-0.4589,0.5366,-0.461,-57.6336
16:56:49:614,-1.7184,2.0215,13.2611,37.0065,-0.3811,0.5738,-0.5121,-57.6336
16:56:49:634,-2.081,1.1009,13.4331,37.0899,-0.4897,0.379,-0.5877,-57.6336
16:56:49:654,-2.5606,0.6956,13.6378,36.8444,-0.1682,0.4972,-0.3822,-57.6336
16:56:49:674,-2.6519,0.5101,12.4148,36.7252,0.2236,0.5132,-0.1139,-57.6336
16:56:49:695,-2.3349,0.3477,11.0109,36.634,0.1938,0.1821,0.1459,-57.6336
16:56:49:722,-1.677,0.5882,10.7608,36.9107,-0.2204,-0.4663,0.3183,-57.6336
16:56:49:734,-0.8071,1.028,11.1335,37.2381,-0.4365,-0.6154,0.3471,-57.6336
16:56:49:755,-0.1456,1.03,10.7076,37.7799,-0.131,-0.2076,0.1863,-57.6336
16:56:49:774,-0.1776,1.1807,8.8791,38.254,0.3545,0.3226,0.0266,-57.6336
16:56:49:793,-0.2899,1.5941,6.4718,38.1857,0.6739,0.5302,-0.0234,-57.6336
16:56:49:814,-0.1707,1.8589,4.7868,38.2013,0.6281,0.23,-0.1182,-57.6336
16:56:49:840,-0.1683,1.8921,4.2353,38.1736,0.4046,-0.2875,-0.2076,-57.6336
16:56:49:855,-0.2999,1.8753,4.6195,37.9955,0.3141,-0.5238,-0.2023,-57.6336
16:56:49:874,-0.2468,1.6869,5.1175,37.7027,0.3481,-0.4631,-0.1448,-57.6336
16:56:49:894,-0.3546,1.9551,5.7282,37.5077,0.3205,-0.3652,-0.0958,-57.6336
16:56:49:914,-0.4962,2.6039,6.5147,37.4228,0.1682,-0.3162,-0.0554,-57.6336
16:56:49:934,-0.6901,2.8523,7.858,37.6525,0.0373,-0.2513,-0.0266,-57.6336
16:56:49:954,-0.8162,2.647,9.0589,37.7737,0.0564,-0.0926,0.0277,-57.6336
16:56:49:974,-0.987,2.7733,9.9432,37.7825,0.1661,-0.0298,0.0692,-57.6336
16:56:49:994,-1.2331,3.092,10.5116,37.5368,0.1022,-0.083,0.049,-57.6336
16:56:50:014,-1.6045,3.2591,11.2675,37.3402,-0.1384,-0.165,0,-57.6336
16:56:50:034,-1.8766,2.9989,12.5879,37.3391,-0.4152,-0.1235,0.0106,-57.6336
16:56:50:054,-2.0197,2.4337,14.0555,37.3121,-0.3258,0.1363,0.131,-57.6336
16:56:50:073,-2.3035,2.1724,14.3321,37.566,0.3162,0.5589,0.3556,-57.6336
16:56:50:093,-2.4677,2.2016,12.9644,37.6483,0.9433,0.4535,0.444,-57.6336
16:56:50:114,-2.5422,1.8522,11.1174,37.7199,1.0253,-0.1618,0.2928,-57.6336
16:56:50:156,-2.599,1.1004,10.3569,37.5916,0.5675,-0.758,0.1693,-57.6336
16:56:50:157,-2.4587,0.5271,10.5319,37.4765,0.2289,-0.791,0.1991,-57.6336
16:56:50:173,-2.2386,0.6832,10.0484,37.3361,0.165,-0.395,0.28,-57.6336
16:56:50:193,-1.4949,0.5931,8.8601,37.2514,-0.05,-0.0447,0.33,-57.6336
16:56:50:214,-1.039,0.8171,8.7141,37.1762,-0.5888,-0.2023,0.2033,-57.6336
16:56:50:232,-1.0714,1.3758,9.2251,36.9622,-0.9209,-0.2342,0.1118,-57.6336
16:56:50:255,-1.0734,1.4135,9.3315,37.0096,-0.708,0.0511,0.1033,-57.6336
16:56:50:273,-0.9506,1.235,8.2293,36.9042,-0.1544,0.3918,0.1522,-57.6336
16:56:50:294,-0.8734,1.361,6.6859,37.2533,0.2534,0.3705,0.2651,-57.6336
16:56:50:314,-0.8552,1.5666,5.8346,37.2245,0.3237,0.1842,0.4503,-57.6336
16:56:50:339,-0.7194,1.5747,5.7813,37.1854,0.2981,0.2183,0.6452,-57.6336
16:56:50:354,-0.8373,1.8916,6.2366,37.1516,0.3418,0.2225,0.6643,-57.6336
16:56:50:373,-1.0569,2.3577,6.7381,37.1463,0.3748,0.1948,0.577,-57.7329
16:56:50:393,-0.967,2.5,7.3311,37.0404,0.3045,0.0458,0.445,-57.8505
16:56:50:415,-0.8499,2.0857,8.0905,37.0205,0.0266,0.2119,0.3418,-57.982
16:56:50:433,-1.2163,2.1919,9.4556,36.9106,-0.1682,0.576,0.3716,-58.1223
16:56:50:453,-1.3224,3.0184,10.6674,37.2342,-0.1235,0.4802,0.3098,-58.2698
16:56:50:474,-0.6583,3.4427,11.6116,37.2087,-0.1033,0.0011,0.1139,-58.4273
16:56:50:494,-0.2364,3.6767,12.0418,37.1002,-0.1033,0.0969,-0.1299,-58.5878
16:56:50:514,-0.7196,4.3322,12.0581,36.9392,0.0011,0.4951,-0.2726,-58.738
16:56:50:533,-0.9277,4.8645,11.6398,36.832,-0.0479,0.7431,-0.2395,-58.8721
16:56:50:554,-0.225,3.7223,11.9596,36.6767,-0.2949,0.4376,-0.5004,-58.9942
16:56:50:578,-0.6753,2.1292,12.8821,36.3647,-0.1586,0.0948,-0.8517,-59.1021
16:56:50:595,-1.6632,0.8278,12.4441,36.5036,0.2151,0.0224,-0.8496,-59.1021
16:56:50:614,-2.3516,0.1667,11.0512,36.3299,0.3801,-0.0138,-0.609,-59.1021
16:56:50:634,-2.6068,0.309,9.8805,36.3419,0.1831,-0.1757,-0.1608,-59.1021
16:56:50:654,-1.7373,0.9546,8.914,36.6142,-0.0767,-0.2726,0.3056,-59.1021
16:56:50:674,-0.2129,1.3559,8.1622,36.9578,-0.2832,-0.2694,0.4408,-59.1021
16:56:50:693,0.6851,1.8005,7.8088,37.1757,-0.4301,-0.2672,0.1789,-59.1021
16:56:50:714,0.6193,1.7634,7.3716,37.1606,-0.2875,-0.148,-0.1459,-59.1021
16:56:50:735,0.139,1.6874,6.5275,37.2446,-0.0213,-0.0043,-0.3279,-59.1021
16:56:50:754,-0.0724,1.563,5.464,37.1648,0.2332,0.1171,-0.3822,-59.1021
16:56:50:773,0.0348,1.0911,4.8833,37.0151,0.1544,-0.0096,-0.4716,-59.1021
16:56:50:794,-0.3837,1.5128,5.504,37.2876,-0.1959,-0.0713,-0.5046,-59.1021
16:56:50:814,-0.8935,2.0751,7.1361,37.454,-0.2236,0.0777,-0.3843,-59.1021
16:56:50:841,-0.7451,2.1375,8.0931,37.6769,0.0798,0.0905,-0.33,-59.1021
16:56:50:854,-0.4635,2.3138,8.6098,37.6403,0.2023,-0.164,-0.4621,-59.1021
16:56:50:873,-1.2673,3.4432,9.2484,37.7033,0.2033,-0.296,-0.6494,-59.1021
16:56:50:893,-2.3225,3.9496,9.6736,37.657,0.3109,0.0628,-0.5536,-59.1021
16:56:50:915,-2.7198,3.9588,9.1488,37.4965,0.3194,0.4727,-0.3173,-58.9999
16:56:50:934,-3.1488,4.4161,8.9996,37.789,0.0287,0.5994,-0.164,-58.8852
16:56:50:954,-3.5057,4.1208,9.9819,37.8799,-0.4716,0.28,-0.0937,-58.7695
16:56:50:974,-3.8364,3.0001,12.1766,38.033,-0.9145,-0.1522,0.0437,-58.6613
16:56:50:994,-3.9836,2.0533,14.4044,38.2974,-0.7101,-0.1491,0.4525,-58.5623
16:56:51:014,-3.2241,1.0901,14.5178,38.4875,0.0437,0.1682,0.7996,-58.5623
16:56:51:034,-2.8517,0.9142,13.147,38.2613,0.4844,-0.1203,0.7304,-58.5623
16:56:51:054,-2.9571,0.6918,12.1709,38.5265,0.494,-0.5046,0.6271,-58.5623
16:56:51:073,-2.7423,0.3553,11.2719,38.5573,0.4674,-0.5195,0.6239,-58.5623
16:56:51:093,-2.3654,0.437,10.1393,38.5407,0.33,-0.3407,0.6526,-58.5623
16:56:51:114,-1.969,0.8485,9.1614,38.5202,0.0617,-0.3034,0.6516,-58.5623
16:56:51:133,-1.3231,1.1921,8.4772,38.5033,-0.2183,-0.4056,0.609,-58.5623
16:56:51:153,-0.6279,1.2499,7.8524,38.2046,-0.3726,-0.3716,0.4972,-58.5623
16:56:51:173,-0.0627,1.1256,7.1245,37.988,-0.4205,-0.1991,0.3375,-58.6578
16:56:51:193,0.2143,0.9093,6.578,37.9352,-0.4173,-0.0468,0.1522,-58.7628
16:56:51:214,-0.0005,0.9747,6.1772,37.7631,-0.3726,0.0511,0.0437,-58.8712
16:56:51:234,-0.2442,1.2447,6.0777,37.7267,-0.2087,0.2172,0.0979,-58.9776
16:56:51:253,-0.4726,1.2699,5.66,38.1897,0.0437,0.4919,0.1735,-59.0813
16:56:51:273,-0.6393,1.203,5.2945,38.434,0.2225,0.757,0.2332,-59.1842
16:56:51:293,-0.8215,1.4001,5.5589,38.4989,0.2033,0.6047,0.2683,-59.2903
16:56:51:314,-0.9501,1.7838,6.4298,38.3807,-0.0937,0.0681,0.1256,-59.4051
16:56:51:334,-0.9795,1.9645,7.6315,38.524,-0.3822,-0.3215,-0.0383,-59.5276
16:56:51:354,-1.069,1.872,9.0672,38.5597,-0.4365,-0.2779,-0.1278,-59.6491
16:56:51:373,-1.1305,2.2471,10.2496,38.705,-0.5015,-0.0096,-0.2108,-59.7628
16:56:51:393,-0.9392,2.788,11.5798,39.3129,-0.7527,0.2257,-0.3886,-59.8668
16:56:51:414,-1.1799,3.015,13.066,39.1975,-0.9092,0.4983,-0.6239,-59.9575
16:56:51:434,-1.418,2.6782,13.9123,39.1887,-0.8496,0.8102,-0.6356,-59.9575
16:56:51:454,-1.7531,2.5169,14.269,39.2665,-0.7314,1.0221,-0.6196,-59.9575
16:56:51:473,-2.2496,2.4588,14.4587,39.236,-0.6058,0.9965,-0.626,-59.9575
16:56:51:493,-2.4035,1.3399,14.6598,39.0866,-0.3471,0.5547,-0.7016,-59.9575
16:56:51:514,-2.6254,0.3061,13.9147,39.2062,0.2087,0.2481,-0.5675,-59.9575
16:56:51:536,-2.6039,-0.243,12.251,39.7807,0.7591,0.0564,-0.3109,-59.9575
16:56:51:553,-2.1686,-0.3796,10.3296,39.707,0.8368,-0.2523,-0.1395,-59.9575
16:56:51:573,-1.626,-0.1742,9.5454,40.1121,0.4291,-0.6718,-0.0969,-59.9575
16:56:51:593,-0.971,0.4481,9.4394,40.4424,-0.0447,-0.692,-0.1416,-59.9575
16:56:51:615,-0.4561,0.6004,9.1511,40.7541,-0.1991,-0.2076,-0.3375,-59.9575
16:56:51:635,-0.468,0.6265,8.3476,41.0115,-0.0298,0.3375,-0.5962,-59.9575
16:56:51:654,-0.8658,0.6391,7.1096,41.4621,0.2683,0.5568,-0.7059,-59.8574
16:56:51:674,-1.1198,0.6756,5.8965,41.4717,0.4514,0.4376,-0.6761,-59.7341
16:56:51:694,-1.3277,0.934,5.1477,41.6346,0.4876,0.1586,-0.5749,-59.5895
16:56:51:714,-1.2431,1.0299,4.7867,41.3195,0.4929,-0.0426,-0.4259,-59.4271
16:56:51:734,-1.0936,1.1119,4.8859,40.8715,0.445,-0.2427,-0.2981,-59.2521
16:56:51:754,-1.5566,1.6923,5.7366,40.6458,0.3013,-0.5888,-0.2342,-59.0705
16:56:51:774,-2.2954,1.9663,7.5521,40.5841,0.1629,-1.3979,-0.1874,-58.8883
16:56:51:794,-2.3268,1.8398,9.2267,40.4076,0.2481,-2.3369,-0.0607,-58.7104
16:56:51:814,-1.8169,1.7792,9.6739,40.3884,0.3843,-2.1421,0.0415,-58.536
16:56:51:834,-1.4387,2.0392,9.3817,40.3695,0.1522,-1.1583,0.1852,-58.3636
16:56:51:854,-1.5401,2.4375,10.1141,40.502,0.099,0.3354,0.5568,-58.1925
16:56:51:874,-1.7361,3.1624,10.7413,40.2409,0.1725,1.0934,0.774,-58.0348
16:56:51:895,-1.8283,3.8711,10.5702,40.3139,0.0309,1.2563,0.7389,-57.9044
16:56:51:914,-2.0635,3.6368,11.3982,40.2842,-0.3918,0.5313,0.379,-57.8075
16:56:51:934,-2.5795,2.9205,12.526,40.3816,-0.3268,-0.3513,0.2385,-57.8075
16:56:51:954,-2.5045,1.9561,12.4409,40.4805,0.0798,-0.692,0.4333,-57.8075
16:56:51:974,-2.2457,1.4334,11.6274,40.7666,0.2534,-0.4865,0.5291,-57.8075
16:56:51:994,-2.0911,1.1074,10.9846,41.1617,0.1544,-0.2097,0.5302,-57.8075
16:56:52:014,-1.8177,0.8756,10.753,41.6892,-0.0969,-0.2087,0.4173,-57.8075
16:56:52:034,-1.792,0.8235,10.6749,41.5796,-0.346,-0.3066,0.1916,-57.8075
16:56:52:054,-1.6876,0.6065,10.3163,41.6597,-0.4897,-0.1533,0.0586,-57.8075
16:56:52:074,-1.4259,0.2406,9.5444,41.6178,-0.5217,0.2236,0.0298,-57.8075
16:56:52:093,-1.2361,0.3222,8.477,41.3813,-0.5568,0.626,0.0713,-57.8075
16:56:52:113,-0.9584,0.3545,7.4693,41.0521,-0.6313,0.873,0.0724,-57.8075
16:56:52:133,-0.8674,0.539,7.0447,40.937,-0.7591,0.7751,-0.0192,-57.8075
16:56:52:167,-1.2091,0.8916,7.1349,40.9001,-0.6164,0.477,-0.0373,-57.8075
16:56:52:177,-1.1467,0.7789,6.8688,40.8876,-0.181,0.3215,0.1011,-57.8075
16:56:52:193,-0.8874,0.4595,6.4144,40.9948,0.2853,0.4088,0.3077,-57.8075
16:56:52:213,-0.7406,0.7798,6.1808,41.2951,0.5376,0.4078,0.4322,-57.8075
16:56:52:233,-1.237,1.7313,6.7712,41.2855,0.4674,0.0064,0.3961,-57.8075
16:56:52:253,-1.4069,1.9206,7.7846,41.668,0.3151,-0.9167,0.2885,-57.8075
16:56:52:274,-0.8622,1.4837,8.7828,41.8712,0.3205,-1.3947,0.1384,-57.8075
16:56:52:295,-0.6827,1.413,9.5937,41.8835,0.2204,-1.0018,-0.0522,-57.8075
16:56:52:314,-1.3902,2.0703,11.0706,41.5794,-0.0149,-0.2726,-0.2278,-57.8075
16:56:52:335,-1.4429,1.8638,12.0215,41.4686,-0.2395,0.2779,-0.2864,-57.8075
16:56:52:356,-1.2566,1.7309,13.081,41.0694,-0.5302,0.4589,-0.4195,-57.8075
16:56:52:374,-1.7894,1.9513,14.2674,40.8516,-0.4621,0.5877,-0.5962,-57.8075
16:56:52:394,-2.6314,2.168,14.1695,40.8921,-0.1246,0.8123,-0.5153,-57.8075
16:56:52:415,-2.3369,1.2461,13.5968,40.79,0.0149,0.7687,-0.3151,-57.8075
16:56:52:433,-1.8932,0.3725,13.1332,41.0258,0.165,0.4929,-0.1576,-57.8075
16:56:52:454,-1.4608,0.0094,11.9779,41.034,0.4163,0.4088,0.0607,-57.8075
16:56:52:473,-0.8156,-0.1538,10.4565,41.3189,0.3343,0.3268,0.1693,-57.8075
16:56:52:495,-0.1486,-0.0801,9.8955,41.4089,-0.0649,0.0415,0.1373,-57.8075
16:56:52:515,0.2181,0.381,9.593,41.4557,-0.4003,-0.0958,0.0468,-57.8075
16:56:52:535,0.1866,0.8589,9.3427,41.4087,-0.4844,0.0958,-0.1352,-57.8075
16:56:52:553,-0.0964,1.1029,8.5291,41.6478,-0.3002,0.3716,-0.3428,-57.8075
16:56:52:573,-0.473,1.0612,7.4569,41.0718,0.0756,0.4983,-0.4557,-57.8075
16:56:52:593,-0.6187,0.9578,6.1784,40.5643,0.4397,0.346,-0.4088,-57.8075
16:56:52:613,-0.7455,1.0849,5.0546,40.1015,0.5909,0.0341,-0.3971,-57.8075
16:56:52:633,-0.9111,1.2765,4.4958,39.5925,0.6281,-0.2662,-0.3545,-57.8075
16:56:52:653,-0.9602,1.3209,4.3473,39.5587,0.6196,-0.4653,-0.2491,-57.8075
16:56:52:673,-0.9724,1.5469,4.5446,39.2616,0.527,-0.3801,-0.1746,-57.8075
16:56:52:694,-1.0098,1.9739,5.0849,39.0193,0.2619,-0.231,-0.1618,-57.7132
16:56:52:714,-0.983,2.2953,6.2393,38.8995,-0.2268,-0.2726,-0.2236,-57.6161
16:56:52:734,-1.28,2.5386,8.4857,38.4796,-0.6377,-0.3918,-0.3556,-57.5184
16:56:52:754,-1.9738,2.5349,10.663,38.2898,-0.5728,-0.5164,-0.4056,-57.4162
16:56:52:774,-2.4376,2.415,11.7115,38.1073,-0.3737,-0.5025,-0.28,-57.3044
16:56:52:794,-2.5199,2.4569,12.4426,37.8585,-0.3769,-0.2864,-0.0958,-57.1849
16:56:52:814,-2.4034,2.2961,13.4566,37.6458,-0.56,-0.1033,-0.016,-57.0645
16:56:52:835,-2.5081,1.8085,14.7716,37.4678,-0.5526,-0.017,0.0628,-56.948
16:56:52:854,-2.7973,1.4689,15.0449,37.2458,-0.1118,0.1075,0.3034,-56.8361
16:56:52:874,-2.5441,0.9581,13.9891,37.4557,0.4876,0.0106,0.4951,-56.7328
16:56:52:894,-2.2561,0.4257,12.3324,37.5679,0.6867,-0.4227,0.378,-56.7328
16:56:52:914,-2.2399,0.1375,11.2413,37.6494,0.5355,-0.6771,0.247,-56.7328
16:56:52:935,-2.2138,-0.0254,10.7453,37.9007,0.2619,-0.7165,0.1299,-56.7328
16:56:52:954,-2.1255,-0.064,10.4109,37.8662,-0.0383,-0.6899,0.0298,-56.7328
16:56:52:974,-1.6978,-0.2782,9.7807,37.5363,-0.2332,-0.3439,0.0128,-56.7328
16:56:52:994,-1.3019,-0.6368,9.0037,37.5341,-0.4014,0.0319,-0.0703,-56.7328
16:56:53:013,-1.5118,-0.2487,8.2113,37.2442,-0.5856,0.3971,-0.0926,-56.7328
16:56:53:033,-1.6273,0.0337,7.6697,37.0754,-0.6484,0.7261,0.0639,-56.7328
16:56:53:053,-1.3767,-0.1723,7.1734,36.7189,-0.5685,0.8592,0.2289,-56.7328
16:56:53:074,-1.2569,-0.198,6.4617,36.7708,-0.3609,0.9624,0.3748,-56.7328
16:56:53:095,-1.3369,0.2046,5.7648,36.9306,-0.0181,1.1168,0.6079,-56.7328
16:56:53:114,-1.476,0.6493,5.2967,36.8509,0.2928,1.1551,0.8251,-56.7328
16:56:53:140,-1.6427,0.9712,5.2383,36.8623,0.3279,0.9763,0.8879,-56.7328
16:56:53:154,-1.6782,1.4318,6.0508,36.7994,-0.0138,0.3364,0.7953,-56.7328
16:56:53:173,-1.5862,1.6184,8.1382,36.5286,-0.3918,-0.4972,0.5355,-56.7328
16:56:53:193,-1.3315,1.6111,10.4993,36.7188,-0.3684,-1.0157,0.3066,-56.8243
16:56:53:217,-0.5192,1.1298,11.9026,36.4617,0.1682,-1.0391,0.0884,-56.9275
16:56:53:234,0.216,0.951,11.675,36.3065,0.4589,-0.5611,-0.2715,-57.0282
16:56:53:254,-0.2454,1.3811,11.7069,36.0247,0.1235,0.3322,-0.6548,-57.0282
16:56:53:274,-1.6681,2.2086,12.3822,35.6974,-0.2853,1.0647,-0.8847,-57.0282
16:56:53:298,-3.1734,2.654,13.3061,35.1231,-0.3961,1.2073,-0.8208,-57.0282
16:56:53:314,-3.2751,1.8299,13.8974,34.8804,-0.4088,0.5664,-0.5568,-57.0282
16:56:53:333,-2.4149,0.0456,14.9744,34.5458,-0.1554,-0.5323,-0.3673,-57.0282
16:56:53:353,-2.0385,-0.8691,13.5214,34.6091,0.4716,-1.2595,-0.1033,-57.0282
16:56:53:375,-1.4343,-0.9854,10.8942,34.4379,0.7697,-1.0104,0.1874,-57.0282
16:56:53:394,-0.9253,-0.9032,9.7593,34.4743,0.8145,-0.6622,0.1086,-57.0282
16:56:53:414,-0.7352,-0.2077,8.9502,34.9214,0.4099,-0.5036,0.05,-57.0282
16:56:53:434,-0.7382,0.4823,8.4774,35.1627,-0.0692,-0.3119,-0.05,-57.0282
16:56:53:454,-0.808,0.909,8.2013,35.6266,-0.3343,-0.0117,-0.2161,-57.0282
16:56:53:473,-0.9913,0.8447,7.7253,35.9116,-0.2651,0.3609,-0.3439,-57.0282
16:56:53:493,-1.1114,0.7864,6.9276,36.0848,0.0426,0.5462,-0.3556,-57.0282
16:56:53:514,-1.1787,0.7555,6.0583,36.409,0.2576,0.3875,-0.3226,-57.0282
16:56:53:533,-1.3211,1.1284,5.5798,36.4115,0.3268,0.0309,-0.2364,-57.0282
16:56:53:553,-1.147,1.3577,5.3129,36.1151,0.4024,-0.1714,-0.1097,-57.0282
16:56:53:573,-0.7583,1.3797,5.3295,36.2848,0.4131,-0.1501,-0.0852,-57.0282
16:56:53:593,-0.6573,1.5306,5.7147,36.2664,0.264,-0.116,-0.1501,-57.0282
16:56:53:614,-0.8251,1.94,6.6559,36.6289,0.0351,-0.2087,-0.2108,-57.0282
16:56:53:633,-1.087,2.1364,7.7197,36.9117,-0.1256,-0.3151,-0.2513,-56.9327
16:56:53:653,-1.6137,2.3644,8.9886,37.043,-0.2726,-0.2853,-0.2459,-56.8331
16:56:53:673,-2.1589,2.2656,10.2768,37.1827,-0.3087,-0.1086,-0.0894,-56.7281
16:56:53:693,-2.345,2.2378,10.9607,36.9719,-0.3822,0.0554,0.0979,-56.6213
16:56:53:715,-2.2451,1.9718,12.0296,36.8346,-0.6271,-0.083,0.164,-56.521
16:56:53:733,-2.1225,1.4812,13.4459,36.9435,-0.7804,-0.3151,0.1469,-56.521
16:56:53:755,-2.4428,1.1273,14.7612,37.2758,-0.5387,-0.2885,0.2491,-56.521
16:56:53:775,-2.2875,0.7088,14.7001,37.334,0.1001,-0.0649,0.51,-56.521
16:56:53:793,-1.7125,-0.0002,13.5936,38.0006,0.5994,-0.2055,0.5355,-56.521
16:56:53:813,-1.097,0.0944,12.176,38.4581,0.6973,-0.4067,0.3109,-56.521
16:56:53:833,-1.1723,0.3631,11.1606,38.4938,0.5781,-0.4344,-0.0021,-56.521
16:56:53:854,-1.5825,0.3497,10.5432,38.9059,0.3492,-0.527,-0.2353,-56.521
16:56:53:874,-1.52,0.1693,9.8703,39.1552,0.1373,-0.4716,-0.3183,-56.521
16:56:53:894,-1.0387,-0.0011,9.0123,39.1969,-0.0639,-0.131,-0.3705,-56.521
16:56:53:915,-0.8438,0.0297,8.3578,38.9932,-0.3418,0.1927,-0.4738,-56.521
16:56:53:934,-1.067,0.2127,7.9275,39.0455,-0.5866,0.5206,-0.5195,-56.521
16:56:53:955,-1.4572,0.2587,7.623,38.8906,-0.6122,0.6846,-0.4599,-56.4275
16:56:53:974,-1.711,0.3669,7.0421,38.8589,-0.4067,0.7559,-0.2875,-56.3198
16:56:53:994,-1.6237,0.4501,6.4658,39.3258,-0.0937,0.7059,-0.0564,-56.203
16:56:54:014,-1.438,0.8028,5.9576,39.5121,0.1874,0.5664,0.0798,-56.0854
16:56:54:034,-1.3644,1.1885,5.8023,39.5831,0.3673,0.3396,0.016,-55.9725
16:56:54:054,-2.1479,1.5902,6.2278,40.2214,0.4344,-0.083,-0.1895,-55.8647
16:56:54:073,-2.756,1.1785,7.4287,40.4958,0.444,-0.8326,-0.1991,-55.7571
16:56:54:094,-2.8185,0.3741,8.5668,40.6298,0.4461,-1.2393,-0.0767,-55.6486
16:56:54:114,-2.9388,0.3637,10.0875,40.7721,0.4333,-1.2403,0.1341,-55.5388
16:56:54:133,-2.5058,0.6512,10.8928,40.5523,0.511,-0.7506,0.3375,-55.4329
16:56:54:174,-1.5997,0.9402,10.8851,40.418,0.3332,-0.049,0.3769,-55.3359
16:56:54:176,-1.1719,1.4358,11.1428,40.3643,-0.1192,0.4376,0.2246,-55.3359
16:56:54:193,-1.2637,1.7488,12.0527,40.3181,-0.4418,0.5728,0.0128,-55.3359
16:56:54:214,-1.9227,2.2498,12.7379,40.6406,-0.4205,0.6122,-0.0649,-55.3359
16:56:54:233,-2.0801,2.7694,12.7705,41.0451,-0.4386,0.6867,0.0405,-55.3359
16:56:54:254,-0.7977,2.6142,13.6152,41.3629,-0.477,0.7304,-0.0405,-55.3359
16:56:54:274,-0.4416,2.0727,13.8045,41.7871,0.0362,0.7442,-0.4227,-55.3359
16:56:54:293,-1.229,1.4902,11.9173,42.1082,0.5834,0.7453,-0.6388,-55.3359
16:56:54:314,-1.7622,0.735,9.9209,42.4274,0.5057,0.5994,-0.6558,-55.2266
16:56:54:334,-1.897,0.1276,9.1721,42.9068,-0.0277,0.1001,-0.461,-55.099
16:56:54:354,-1.4947,-0.302,8.8607,43.2599,-0.5813,-0.1703,-0.1767,-54.9626
16:56:54:373,-1.2058,-0.0787,8.8263,43.3759,-0.9113,-0.0138,-0.0511,-54.8262
16:56:54:393,-1.2226,0.3351,8.4665,43.6958,-0.9571,0.3535,-0.0554,-54.6939
16:56:54:414,-1.3796,0.4659,7.8475,43.5012,-0.758,0.6388,-0.0788,-54.5652
16:56:54:434,-1.3867,0.4039,7.0129,43.769,-0.3811,0.6973,-0.0437,-54.439
16:56:54:453,-1.2967,0.2335,6.1929,43.6825,0.0405,0.5078,0.0128,-54.3152
16:56:54:474,-1.2023,0.2641,5.4359,43.4494,0.3662,0.1235,0.0351,-54.1952
16:56:54:494,-1.1882,0.4327,5.0951,43.607,0.6335,-0.2917,0.0298,-54.0788
16:56:54:514,-1.2675,0.8411,4.8535,43.7148,0.7623,-0.642,0.0415,-53.9651
16:56:54:534,-1.4817,1.2072,5.1137,44.0343,0.609,-1.0125,0.0394,-53.8541
16:56:54:554,-1.5851,1.2606,6.099,43.8867,0.2129,-1.4458,0.0362,-53.7488
16:56:54:574,-1.5293,0.9936,8.0173,44.1017,-0.2289,-1.8461,0.049,-53.6512
16:56:54:594,-1.7256,1.3323,10.3677,44.0637,-0.3822,-1.696,0.0937,-53.5612
16:56:54:614,-1.5836,1.3371,12.173,43.9421,-0.198,-1.0274,0.2832,-53.5612
16:56:54:634,-1.3938,1.1243,12.7026,43.8614,0.0479,-0.1661,0.4674,-53.5612
16:56:54:653,-1.7046,1.5191,13.7543,43.9877,0.1767,-0.0809,0.5611,-53.5612
16:56:54:673,-1.8799,1.849,15.3024,44.1473,0.4056,-0.6122,0.6207,-53.5612
16:56:54:693,-1.7642,2.0457,15.0752,44.2594,1.0104,-0.5749,0.7548,-53.5612
16:56:54:714,-1.7747,2.6893,13.3812,44.8456,1.384,-0.1278,0.8304,-53.5612
16:56:54:734,-1.6035,2.5739,11.8058,45.0449,1.1679,-0.0426,0.658,-53.5612
16:56:54:754,-1.6396,1.5302,11.1749,45.1613,0.8208,-0.082,0.3971,-53.5612
16:56:54:774,-1.9502,0.9291,10.8355,45.0988,0.7208,0.0415,0.2747,-53.5612
16:56:54:795,-2.0944,0.7862,9.9907,44.9202,0.5611,0.0649,0.3066,-53.5612
16:56:54:814,-1.8203,0.5083,9.3544,44.8067,0.1618,0.082,0.3194,-53.5612
16:56:54:834,-1.1123,0.0447,8.8341,44.6645,-0.3865,0.198,0.2949,-53.6611
16:56:54:854,-0.6532,-0.332,8.4347,44.8808,-0.9358,0.4812,0.1991,-53.7697
16:56:54:874,-0.6928,-0.2116,8.0908,45.1626,-1.2989,0.8773,0.1256,-53.882
16:56:54:894,-0.9526,-0.0464,7.8021,45.0515,-1.367,1.1711,0.1682,-53.9936
16:56:54:914,-1.137,0.1284,7.2331,45.1252,-1.0966,1.3095,0.3513,-54.1052
16:56:54:933,-0.9609,0.2516,6.5036,44.8519,-0.6313,1.2212,0.6271,-54.2225
16:56:54:953,-0.5909,0.5267,5.7391,45.0364,-0.1661,0.9092,0.7708,-54.3552
16:56:54:974,-0.4378,1.1796,5.2768,45.3678,0.1757,0.4248,0.6707,-54.5095
16:56:54:994,-0.7792,2.1432,5.2929,45.4141,0.3428,-0.0394,0.4525,-54.6853
16:56:55:014,-0.7385,2.0705,5.7713,45.2961,0.2459,-0.4472,0.2332,-54.8743
16:56:55:034,-0.1548,1.0226,7.156,45.4097,0.0202,-0.7644,-0.0373,-55.0701
16:56:55:054,-0.5069,0.6101,8.9568,45.494,-0.1086,-0.4908,-0.3056,-55.2623
16:56:55:076,-1.731,1.3155,10.8626,45.4743,0.0032,0.0554,-0.2768,-55.438
16:56:55:094,-2.0017,1.7896,11.2873,45.7337,-0.0958,0.2545,-0.0809,-55.5951
16:56:55:115,-1.5807,2.3222,12.3434,45.7319,-0.6154,0.0479,0.0224,-55.7458
16:56:55:134,-1.3082,2.5478,14.408,45.7057,-0.7687,-0.0266,0.0969,-55.8965
16:56:55:153,-1.1691,2.5221,15.7252,45.881,-0.3907,-0.0905,0.1554,-56.0452
16:56:55:173,-0.5873,1.5954,15.7301,45.8702,0.0064,-0.379,0.1352,-56.1933
16:56:55:193,0.0233,0.1083,15.3584,45.879,0.214,-0.7016,-0.0341,-56.3427
16:56:55:215,-0.1051,-0.562,14.6632,45.8919,0.741,-0.4759,-0.1703,-56.4861
16:56:55:233,-0.5888,-0.5888,12.6054,45.8979,1.2169,-0.3577,-0.1927,-56.6156
16:56:55:255,-0.6211,-0.4859,10.3153,46.0985,1.1935,-0.4887,-0.1086,-56.7326
16:56:55:274,-0.3667,-0.0441,8.7863,46.4088,0.724,-0.6335,-0.0309,-56.8438
16:56:55:294,-0.129,0.7068,7.8681,46.5434,0.2257,-0.4312,0,-56.9531
16:56:55:314,0.1049,1.1851,7.0529,46.8644,-0.0745,-0.0383,-0.0458,-57.0591
16:56:55:333,0.061,1.2778,6.1381,46.958,-0.2033,0.2938,-0.1618,-57.1598
16:56:55:354,0.0461,1.449,5.3745,46.7831,-0.2545,0.3726,-0.2843,-57.2516
16:56:55:375,-0.0927,1.5658,4.7727,46.4391,-0.2662,0.2789,-0.4248,-57.2516
16:56:55:394,-0.3759,1.5328,4.6472,45.9739,-0.247,0.0532,-0.5068,-57.2516
16:56:55:414,-0.6201,1.3584,4.7229,45.8681,-0.2119,-0.1427,-0.4887,-57.2516
16:56:55:434,-0.6816,1.3109,5.1102,45.7963,-0.247,-0.3843,-0.3939,-57.2516
16:56:55:454,-0.5437,1.4198,5.84,46.1342,-0.4227,-0.4163,-0.2896,-57.2516
16:56:55:475,-0.6407,1.7072,7.2927,46.3376,-0.5738,-0.3247,-0.2694,-57.2516
16:56:55:493,-0.7754,1.4662,9.3664,46.5998,-0.6143,-0.378,-0.2821,-57.2516
16:56:55:514,-1.08,1.4234,11.3125,46.6385,-0.4163,-0.4546,-0.2981,-57.2516
16:56:55:535,-1.7017,1.8679,12.5608,46.6844,0.0713,-0.2417,-0.2044,-57.2516
16:56:55:555,-2.1267,2.2805,12.5464,46.7208,0.4993,0.0128,0.0256,-57.2516
16:56:55:575,-2.3851,2.5742,12.8411,46.9332,0.6643,0.0149,0.3066,-57.2516
16:56:55:594,-2.0861,2.6873,12.8711,47.3175,0.7282,-0.0979,0.609,-57.2516
16:56:55:614,-1.4177,2.8007,12.8758,47.2991,0.6665,-0.2044,0.8113,-57.2516
16:56:55:633,-0.76,3.0044,12.8585,47.4882,0.6473,-0.099,0.8634,-57.2516
16:56:55:653,-0.1881,2.3065,12.5168,47.6976,0.6814,-0.2832,0.6665,-57.2516
16:56:55:673,-0.0892,1.3788,12.0508,47.7475,0.6505,-0.5132,0.4333,-57.2516
16:56:55:693,-0.2416,0.9822,11.5413,47.9776,0.6345,-0.5494,0.2736,-57.3524
16:56:55:714,-0.416,0.7977,10.6851,48.1289,0.4716,-0.4078,0.2406,-57.4624
16:56:55:733,-0.341,0.699,9.9174,48.1763,0.0809,-0.2374,0.2076,-57.5796
16:56:55:753,-0.1121,0.4583,9.2011,48.3382,-0.3503,-0.0224,0.132,-57.7024
16:56:55:774,0.2095,0.1997,8.3587,48.4298,-0.7815,0.3194,-0.0021,-57.8265
16:56:55:794,0.2191,0.2824,7.8521,48.8822,-1.1647,0.7176,-0.1214,-57.9454
16:56:55:814,-0.0651,0.4796,7.6442,49.1402,-1.252,0.9465,-0.2204,-58.0539
16:56:55:834,-0.2341,0.476,7.2173,49.4667,-0.9954,1.0508,-0.2459,-58.1482
16:56:55:854,-0.1055,0.1946,6.5551,49.6092,-0.5621,1.0359,-0.1852,-58.1482
16:56:55:874,-0.2439,0.0921,5.9908,49.976,-0.1757,0.8709,-0.1065,-58.1482
16:56:55:894,-0.5334,0.8015,5.7427,50.0234,0.1384,0.7825,-0.0564,-58.1482
16:56:55:914,-0.8044,1.2518,5.9098,49.9785,0.3087,0.6761,-0.0724,-58.1482
16:56:55:934,-1.0947,1.9337,6.7675,49.8307,0.2321,0.3119,-0.1757,-58.1482
16:56:55:955,-1.2482,2.0721,8.121,49.7711,0.1214,-0.0458,-0.33,-58.1482
16:56:55:974,-1.4688,1.3516,10.0961,49.5234,0.1001,-0.4195,-0.4653,-58.1482
16:56:55:994,-1.9287,1.1183,11.4824,49.5689,0.3758,-0.5675,-0.4802,-58.1482
16:56:56:015,-2.0561,1.3203,11.9181,49.5833,0.4812,-0.5494,-0.3545,-58.1482
16:56:56:034,-1.5867,1.7908,12.4844,49.4704,0.0617,-0.4908,-0.2119,-58.1482
16:56:56:054,-1.1796,2.1443,13.6691,49.763,-0.33,0.0862,-0.1171,-58.1482
16:56:56:074,-1.21,2.5124,14.6428,49.8936,-0.1672,0.7037,-0.0862,-58.1482
16:56:56:095,-1.6963,3.1262,13.9997,50.0391,0.2395,0.7218,-0.05,-58.1482
16:56:56:114,-1.0687,2.0781,13.2975,50.4236,0.2938,0.0053,0.0458,-58.1482
16:56:56:135,-0.4033,0.9895,13.3781,50.3773,0.6633,-0.5025,0.1139,-58.1482
16:56:56:154,0.0747,0.4033,11.7083,50.6931,1.2435,-0.5121,0.1299,-58.1482
16:56:56:196,0.3057,0.7553,9.4403,51.0318,1.1882,-0.4301,0.0713,-58.1482
16:56:56:197,0.7139,1.1233,8.1774,51.5177,0.5153,-0.5951,-0.0287,-58.1482
16:56:56:214,0.9359,1.3296,7.8467,51.5905,-0.2811,-0.5536,-0.1725,-58.1482
16:56:56:233,0.8906,1.2305,7.6356,51.4677,-0.7165,-0.214,-0.363,-58.1482
16:56:56:253,0.5138,1.1249,7.3331,51.168,-0.7815,0.0916,-0.5419,-58.1482
16:56:56:273,-0.0091,1.034,6.7172,51.0788,-0.5866,0.2395,-0.6228,-58.1482
16:56:56:293,-0.4597,0.9356,6.0084,51.083,-0.3034,0.1938,-0.5802,-58.1482
16:56:56:314,-0.5453,0.8941,5.6475,51.2454,-0.0341,-0.1416,-0.4684,-58.1482
16:56:56:334,-0.5306,1.1187,5.623,51.4352,0.1927,-0.3854,-0.4056,-58.0459
16:56:56:354,-0.2505,1.3357,5.9202,51.2437,0.4397,-0.51,-0.4354,-57.9323
16:56:56:374,-0.5422,1.611,5.9179,51.063,0.5866,-0.263,-0.5366,-57.8057
16:56:56:393,-1.4756,2.6059,6.0125,51.0101,0.3907,-0.016,-0.5717,-57.6634
16:56:56:414,-2.1413,3.0332,6.8456,50.9953,-0.1363,-0.0032,-0.4823,-57.5066
16:56:56:433,-2.7325,3.1023,8.9628,51.0059,-0.494,-0.2044,-0.2481,-57.3403
16:56:56:453,-2.4656,2.7979,10.9955,50.9436,-0.4472,-0.3151,0.0649,-57.1703
16:56:56:478,-2.0949,2.7786,12.102,51.0389,-0.1735,-0.0298,0.2502,-57.0031
16:56:56:493,-2.1521,3.1076,12.5155,51.3621,0.0745,0.198,0.3811,-56.8447
16:56:56:514,-1.9246,2.8395,12.5668,51.6524,-0.0266,0.1373,0.5281,-56.7022
16:56:56:533,-1.5891,2.5492,13.574,51.9574,-0.2321,0.1246,0.691,-56.583
16:56:56:553,-1.09,2.2808,14.279,52.2145,-0.0383,0.1246,0.7793,-56.4898
16:56:56:574,-0.4839,1.3976,13.8754,52.3931,0.23,-0.2875,0.6622,-56.4898
16:56:56:593,-0.3557,0.6252,13.2264,52.5247,0.2576,-0.6601,0.4919,-56.4898
16:56:56:614,-0.4603,0.4064,12.4295,52.8088,0.2502,-0.6218,0.3907,-56.4898
16:56:56:634,-0.6462,0.5297,11.2082,52.8248,0.0532,-0.4727,0.2853,-56.4898
16:56:56:653,-0.8369,0.4392,10.1747,53.0069,-0.3066,-0.3205,0.2065,-56.4898
16:56:56:673,-0.9441,0.2907,9.2772,52.9659,-0.5962,-0.0756,0.1884,-56.4898
16:56:56:693,-1.1046,0.5465,8.3397,52.9287,-0.7602,0.2332,0.2438,-56.4898
16:56:56:714,-1.0721,0.7243,7.2474,52.9406,-0.7953,0.5376,0.3428,-56.4898
16:56:56:733,-0.9783,0.6084,6.324,52.7296,-0.6984,0.7665,0.4354,-56.4898
16:56:56:753,-0.7074,0.4033,5.5927,52.3903,-0.4972,0.8081,0.5281,-56.4898
16:56:56:774,-0.4188,0.3447,5.0963,52.33,-0.2097,0.6558,0.5994,-56.4898
16:56:56:793,-0.3564,0.541,4.7458,52.4028,0.1107,0.461,0.6207,-56.4898
16:56:56:815,-0.2727,0.6968,4.7076,52.4922,0.3354,0.165,0.5685,-56.5888
16:56:56:835,-0.0136,0.884,5.1177,52.7824,0.2928,-0.3034,0.4067,-56.7072
16:56:56:855,-0.2494,1.3401,6.1896,53.0622,-0.181,-0.3875,0.1576,-56.8411
16:56:56:874,-0.6992,1.0369,8.208,53.0651,-0.6526,0.1948,0.0075,-56.9799
16:56:56:895,-0.47,0.1723,10.2269,53.0492,-0.8858,0.8666,-0.0809,-57.1142
16:56:56:914,-0.0223,-0.187,11.5396,53.0404,-0.824,1.2137,-0.4259,-57.2404
16:56:56:934,-0.6452,0.4123,12.4541,52.9118,-0.5121,0.8081,-0.9859,-57.3514
16:56:56:954,-1.9421,0.7281,12.7926,53.1136,-0.1459,0.2726,-1.3447,-57.3514
16:56:56:974,-2.9484,0.2802,12.7965,52.8489,-0.0554,-0.1405,-1.3287,-57.3514
16:56:56:994,-3.8818,0.7092,13.2609,52.9039,-0.1895,-0.0777,-0.9465,-57.3514
16:56:57:014,-4.1198,1.4607,14.0778,52.4873,-0.3907,0.0213,-0.1086,-57.3514
16:56:57:034,-1.9113,0.7724,15.619,52.2532,-0.5291,-0.3556,0.8113,-57.3514
16:56:57:054,0.847,-0.2347,16.0317,51.7882,-0.0447,-0.8464,1.0306,-57.3514
16:56:57:075,1.96,-1.0829,14.3814,51.5626,0.346,-0.9252,0.5132,-57.3514
16:56:57:093,1.1685,-1.3436,12.5353,51.6328,0.2896,-0.7208,0.0309,-57.3514
16:56:57:114,0.3993,-1.1963,10.7769,51.8621,-0.1586,-0.3056,-0.1533,-57.3514
16:56:57:133,0.2884,-0.9277,10.1869,52.338,-0.4951,0.0894,-0.296,-57.3514
16:56:57:154,0.0208,-0.5988,9.8443,52.9844,-0.2449,0.0809,-0.6026,-57.3514
16:56:57:173,-0.6178,-0.2665,8.7773,53.5603,0.3673,0.0926,-0.7761,-57.3514
16:56:57:194,-1.2086,0.1532,7.1864,54.2549,0.9039,0.1821,-0.691,-57.3514
16:56:57:214,-1.4207,0.8224,5.6557,54.5923,1.285,0.3843,-0.4173,-57.3514
16:56:57:233,-1.1023,1.3783,4.5201,55.0773,1.5533,0.4972,-0.1501,-57.3514
16:56:57:254,-0.4061,1.7071,3.7628,55.0612,1.6758,0.2779,-0.0564,-57.2609
16:56:57:274,-0.0874,2.0788,3.2891,54.8574,1.6129,-0.148,-0.1352,-57.2609
16:56:57:294,0.1084,2.3691,3.123,54.4552,1.1775,-0.4897,-0.2789,-57.2609
16:56:57:315,-0.5285,2.5441,3.9446,54.3031,0.4024,-0.444,-0.3247,-57.1666
16:56:57:333,-1.3062,2.4632,6.1843,53.9932,-0.4141,-0.2374,-0.1043,-57.0667
16:56:57:354,-1.8027,2.752,9.209,53.9047,-0.8634,-0.2268,0.2278,-56.9666
16:56:57:373,-1.0199,2.4865,12.0496,54.1423,-0.6665,-0.363,0.4567,-56.876
16:56:57:393,-0.8584,2.2513,13.116,54.3022,-0.2278,-0.1043,0.4003,-56.876
16:56:57:414,-1.6655,2.2526,13.8684,54.5838,-0.0735,0.3119,0.5259,-56.876
16:56:57:434,-1.6869,2.0885,14.8856,54.5867,0.0532,0.3141,0.791,-56.876
16:56:57:454,-1.5572,2.4233,14.8463,54.9245,0.6984,0.3684,0.8453,-56.876
16:56:57:473,-1.6092,2.0465,12.8461,55.212,1.12,0.1469,0.625,-56.876
16:56:57:494,-1.9214,1.3095,11.2084,55.2216,0.8528,-0.2278,0.4429,-56.876
16:56:57:514,-1.8513,0.7634,10.9857,55.5499,0.2683,-0.5142,0.4078,-56.876
16:56:57:534,-1.4287,0.5849,11.3942,55.3896,-0.2619,-0.4461,0.4322,-56.876
16:56:57:553,-0.5837,0.4513,11.241,55.452,-0.6633,-0.1246,0.4078,-56.876
16:56:57:575,0.2781,0.0619,10.581,55.7124,-0.9028,0.1661,0.1927,-56.9708
16:56:57:596,0.3831,-0.019,9.5148,55.7492,-0.9923,0.2608,-0.0756,-57.0699
16:56:57:614,-0.4521,0.6397,8.3984,55.686,-0.8666,0.3769,-0.2257,-57.1637
16:56:57:634,-1.0863,1.014,7.2953,55.7424,-0.5408,0.5536,-0.1192,-57.1637
16:56:57:654,-1.1182,0.6796,6.0254,55.7352,-0.2151,0.6377,0.0937,-57.1637
16:56:57:674,-0.9333,0.5467,5.2172,55.7319,0.0085,0.5462,0.3162,-57.1637
16:56:57:695,-0.7771,0.943,5.4998,56.0513,0.247,0.2342,0.477,-57.1637
16:56:57:714,-0.3475,0.9701,5.7519,56.3336,0.6984,0.1714,0.4759,-57.2589
16:56:57:734,0.151,0.5767,5.4551,56.9678,1.0189,0.0649,0.3662,-57.3652
16:56:57:753,0.3603,1.0607,5.5769,57.3167,0.9284,-0.264,0.132,-57.4822
16:56:57:775,0.137,1.4173,6.6971,57.6783,0.4823,-0.5153,-0.1192,-57.6053
16:56:57:795,0.075,1.4554,8.2829,57.8822,-0.0564,-0.4365,-0.263,-57.7263
16:56:57:816,-0.3051,1.8469,10.1182,57.9162,-0.4759,-0.1384,-0.494,-57.8377
16:56:57:834,-0.7958,1.6507,11.6911,57.7821,-0.6995,0.1384,-0.56,-57.9297
16:56:57:854,-0.6662,1.2272,13.0985,57.7507,-0.8858,0.0554,-0.5941,-57.9297
16:56:57:874,-0.5337,1.5464,14.2224,57.8025,-0.7761,0.1171,-0.7218,-57.9297
16:56:57:894,-1.1181,2.337,14.5905,57.8653,-0.3769,0.4205,-0.8943,-57.9297
16:56:57:915,-1.7226,2.6843,14.1235,57.9905,-0.2097,0.4046,-0.9103,-57.9297
16:56:57:934,-1.3096,1.9535,14.2763,58.5738,-0.3662,0.2289,-0.6867,-57.9297
16:56:57:954,-0.7413,1.0865,14.9178,58.9414,-0.0117,0.3418,-0.4301,-57.9297
16:56:57:974,-0.3293,0.4894,13.6295,59.188,0.3918,0.131,-0.2576,-57.9297
16:56:57:994,-0.0271,0.0371,12.1708,59.5385,0.3545,-0.296,-0.2545,-57.8361
16:56:58:015,-0.3073,0.1651,10.7856,59.7727,0.3056,-0.3599,-0.3024,-57.7383
16:56:58:034,-0.9059,0.781,9.0112,59.7999,0.3684,-0.2481,-0.3087,-57.6323
16:56:58:054,-1.2383,1.2109,7.1368,59.8212,0.3641,-0.3087,-0.2864,-57.5178
16:56:58:074,-1.3612,1.3134,5.6101,59.8039,0.2278,-0.4684,-0.2161,-57.3976
16:56:58:093,-1.1863,1.1714,4.6253,59.5641,-0.0043,-0.6526,-0.0979,-57.2746
16:56:58:114,-0.655,0.9966,4.3773,59.4342,-0.2619,-0.8155,-0.0021,-57.1534
16:56:58:134,-0.0528,1.0835,4.722,59.2938,-0.3961,-0.7208,-0.0213,-57.0366
16:56:58:154,0.637,0.9303,5.2487,59.1804,-0.3375,-0.4557,-0.1608,-56.9214
16:56:58:175,0.8318,0.6584,5.3618,59.1629,-0.2012,-0.0138,-0.3652,-56.8019
16:56:58:216,0.3883,0.9301,5.7047,59.3522,-0.1778,0.2683,-0.4929,-56.6718
16:56:58:217,-0.1907,1.4493,6.7438,59.3638,-0.2406,0.3279,-0.4621,-56.5282
16:56:58:233,-0.4661,1.6304,8.1676,59.7057,-0.3386,0.3279,-0.3545,-56.3725
16:56:58:253,-0.818,2.0307,10.2202,60.1014,-0.4099,0.4961,-0.2726,-56.2083
16:56:58:274,-1.3179,2.4777,12.6802,60.698,-0.1373,0.8879,-0.1884,-56.0368
16:56:58:293,-1.7703,1.6766,13.6427,61.1847,0.2853,1.0987,-0.0809,-55.859
16:56:58:313,-2.6729,2.3222,13.984,61.9013,0.2545,0.8006,0.05,-55.6813
16:56:58:333,-3.5054,2.7261,15.5169,62.6023,0.0383,0.2427,0.2768,-55.5134
16:56:58:360,-3.0225,1.9309,16.3728,62.8408,0.3737,0.2119,0.724,-55.3595
16:56:58:373,-2.1094,1.6674,15.4226,63.2049,1.2637,0.5078,1.1413,-55.2264
16:56:58:394,-1.8057,1.8641,12.5734,63.7208,2.0303,0.1182,1.1232,-55.1262
16:56:58:414,-1.8393,1.8487,9.7494,63.8825,1.7939,-0.724,0.9081,-55.1262
16:56:58:433,-1.4648,1.4959,8.6885,64.0418,1.104,-1.3085,0.6633,-55.1262
16:56:58:453,-0.9512,1.2585,8.346,64.059,0.3343,-1.2595,0.4291,-55.1262
16:56:58:475,-0.4207,0.8061,7.9193,64.2192,-0.3961,-0.6803,0.2055,-55.1262
16:56:58:494,-0.0255,0.2085,7.2039,64.3532,-1.0455,-0.1139,-0.0106,-55.1262
16:56:58:513,0.1699,-0.0037,7.0871,64.6758,-1.597,-0.0138,-0.2172,-55.1262
16:56:58:534,0.06,0.0648,7.325,65.2724,-1.8397,0.083,-0.378,-55.1262
16:56:58:555,-0.2759,0.1945,7.6023,65.9978,-1.663,0.4014,-0.4184,-55.1262
16:56:58:573,-0.5951,-0.0832,7.1832,66.5084,-1.1882,0.7378,-0.3034,-55.1262
16:56:58:593,-0.9239,-0.1509,6.3785,67.0006,-0.6718,0.8719,0.0021,-55.1262
16:56:58:614,-0.9137,-0.2635,5.5321,67.2749,-0.4887,0.3971,0.362,-55.1262
16:56:58:633,-0.8609,0.3812,5.559,67.4725,-0.2427,0.4461,0.7069,-55.1262
16:56:58:654,-0.8049,1.1782,6.675,67.4938,0.2938,0.5781,0.5611,-55.1262
16:56:58:674,-1.2965,1.5602,6.9057,67.4143,0.4546,-0.0852,0.1341,-55.1262
16:56:58:695,-0.7882,0.5585,8.5393,67.4341,0.2502,-0.8166,0.0905,-55.1262
16:56:58:714,0.1856,-0.1666,10.7055,67.6168,0.1299,-1.2584,-0.1842,-55.1262
16:56:58:734,-0.2145,0.6804,12.2462,67.3117,0.1235,-0.6122,-0.4344,-55.1262
16:56:58:757,-0.6879,1.4577,12.5833,67.5871,0.0319,0.3322,-0.4397,-55.1262
16:56:58:774,-0.7352,1.7521,12.4252,67.6545,-0.33,0.8475,-0.4727,-55.1262
16:56:58:793,-1.0073,2.0888,13.0759,67.7707,-0.5621,0.9827,-0.6047,-55.1262
16:56:58:815,-1.7404,2.3405,13.9051,68.1435,-0.1672,0.9933,-0.6814,-55.1262
16:56:58:833,-2.8059,2.6966,13.2615,68.2297,0.3652,0.8624,-0.5036,-55.1262
16:56:58:853,-2.4313,2.6613,12.9536,68.2238,0.4408,0.4493,-0.0617,-55.1262
16:56:58:873,-0.4512,1.1937,13.2826,68.1654,0.5675,-0.1352,0.0894,-55.1262
16:56:58:893,0.6562,-0.3027,12.1987,68.3679,0.7623,-0.544,-0.1107,-55.1262
16:56:58:913,0.3754,-0.3654,11.22,68.149,0.6143,-0.889,-0.3705,-55.1262
16:56:58:934,0.1835,-0.1273,10.5779,68.3706,0.1001,-1.0806,-0.3577,-55.1262
16:56:58:953,0.6629,-0.2623,10.2576,68.1941,-0.4141,-0.626,-0.3418,-55.0287
16:56:58:974,0.6248,-0.1841,9.3466,68.3129,-0.6548,0.0671,-0.4791,-54.9205
16:56:58:993,-0.0301,0.1411,8.0633,68.752,-0.6377,0.3077,-0.5856,-54.7982
16:56:59:014,-0.6423,0.5356,6.6392,68.8218,-0.4259,0.1118,-0.5547,-54.6601
16:56:59:033,-0.9822,0.8887,5.5243,68.8265,-0.131,-0.3109,-0.4333,-54.5075
16:56:59:054,-0.8997,1.0381,4.5901,68.7287,0.0873,-0.6761,-0.2875,-54.3447
16:56:59:073,-0.2906,0.8209,4.2955,68.6521,0.1054,-0.7665,-0.2012,-54.1764
16:56:59:094,-0.4023,0.6212,4.9686,68.2604,0.1278,-0.4631,-0.1405,-54.0049
16:56:59:114,-0.0924,0.7843,6.5209,68.3106,0.3087,-0.5685,-0.1203,-53.8316
16:56:59:133,0.0197,1.559,7.47,68.2514,0.5632,-0.7484,-0.3215,-53.66
16:56:59:153,-0.3344,2.3827,8.0267,68.146,0.6015,-0.692,-0.4834,-53.484
16:56:59:173,-0.7903,2.0475,9.1844,68.2096,0.2108,-0.5004,-0.5057,-53.2984
16:56:59:194,-0.9026,2.0547,11.8265,68.2076,-0.115,-0.3875,-0.3982,-53.1022
16:56:59:213,-0.4635,2.2788,13.7351,68.0373,-0.099,-0.0064,-0.346,-52.8968
16:56:59:233,-0.4845,2.5115,14.961,68.0165,-0.0298,0.939,-0.3322,-52.6807
16:56:59:253,-0.7199,2.2677,15.6907,67.8628,0.1618,1.4373,-0.2183,-52.4524
16:56:59:273,-1.0841,2.1328,15.4405,67.8957,0.5621,1.2116,-0.0138,-52.2202
16:56:59:293,-1.555,2.5476,14.2182,67.6282,1.3777,0.5504,0.2119,-51.9928
16:56:59:313,-1.5118,2.362,12.1107,67.0017,1.9323,-0.2119,0.2513,-51.7784
16:56:59:333,-1.4725,1.7923,10.2225,66.1852,1.9015,-0.7857,0.0437,-51.5826
16:56:59:360,-1.7742,1.3324,8.9825,65.7525,1.4117,-0.8262,-0.0617,-51.3988
16:56:59:374,-2.2974,0.7863,8.3381,64.9874,0.7101,-0.5717,-0.0138,-51.2208
16:56:59:393,-2.944,-0.202,8.3135,64.6189,0.083,-0.5611,0.2726,-51.049
16:56:59:414,-3.2631,-0.1161,8.8624,64.27,-0.1576,-1.433,0.7325,-50.898
16:56:59:436,-2.4402,0.5381,8.6154,63.9441,0.0256,-2.1655,1.0753,-50.7797
16:56:59:455,-0.879,0.8184,7.3698,63.5342,0.165,-2.2475,1.2265,-50.7797
16:56:59:473,0.6083,1.2669,6.3648,63.3792,-0.1341,-2.0047,1.1136,-50.7797
16:56:59:493,1.758,1.5264,6.3462,62.8775,-0.4983,-1.2339,0.8272,-50.7797
16:56:59:516,1.7702,1.4099,6.6734,62.5525,-0.5174,0.3535,0.4376,-50.7797
16:56:59:535,0.8895,0.9299,6.1562,61.8989,-0.2949,1.8046,0.2747,-50.7797
16:56:59:553,-0.1861,1.1311,5.5704,61.6154,-0.2885,2.388,0.3247,-50.7797
16:56:59:573,-0.5911,1.7684,6.007,61.2015,-0.2875,1.8621,0.4344,-50.7797
16:56:59:593,-0.2548,2.3051,6.7748,60.5974,-0.131,0.8975,0.3833,-50.7797
16:56:59:618,0.3413,2.0449,7.375,60.262,0.0937,0.2246,0.1799,-50.7797
16:56:59:633,0.4829,1.6445,8.1171,59.958,0.0128,-0.0894,-0.0958,-50.7797
16:56:59:653,0.4869,1.5394,9.3539,59.3283,-0.3588,-0.231,-0.2683,-50.7797
16:56:59:673,0.5543,1.8431,11.1981,58.9975,-0.8208,-0.0468,-0.4184,-50.7797
16:56:59:693,0.4637,2.1598,12.5211,58.4409,-1.0497,0.5653,-0.4972,-50.7797
16:56:59:714,0.2768,2.1612,13.3815,58.1717,-1.0497,1.0796,-0.56,-50.7797
16:56:59:733,-0.7246,3.0098,13.639,57.9241,-0.7772,1.2499,-0.5792,-50.7797
16:56:59:753,-1.7011,4.1439,13.0813,57.3932,-0.5462,0.8613,-0.3939,-50.7797
16:56:59:773,-0.9057,2.8793,13.7617,57.3228,-0.6729,-0.0777,-0.1363,-50.7797
16:56:59:793,0.6894,1.2915,15.6668,57.0882,-0.2821,-0.7815,0.0437,-50.7797
16:56:59:817,1.7704,-0.0589,14.8645,56.5001,0.6143,-0.6345,-0.0309,-50.7797
16:56:59:833,1.573,-0.3147,12.6167,56.3354,0.7421,-0.5015,-0.1011,-50.7797
16:56:59:854,1.6423,-0.3493,11.3591,55.8817,0.148,-0.5195,-0.0894,-50.7797
16:56:59:873,1.842,-0.0319,10.8773,55.5275,-0.4163,-0.1107,-0.132,-50.7797
16:56:59:893,1.4492,0.5165,10.1519,55.0245,-0.5387,0.6313,-0.2768,-50.7797
16:56:59:914,0.785,0.7449,8.9024,54.4935,-0.3002,1.12,-0.4365,-50.7797
16:56:59:934,0.0951,0.9891,7.4635,53.999,0.1533,1.2243,-0.477,-50.7797
16:56:59:954,-0.1804,0.8982,5.7772,53.2407,0.6548,1.0327,-0.412,-50.6835
16:56:59:973,-0.24,0.8773,4.4828,52.5896,1.0114,0.659,-0.3258,-50.5749
16:56:59:993,-0.1699,0.6627,3.6234,51.927,1.1211,0.2523,-0.2608,-50.4586
16:57:00:019,-0.4498,0.5588,4.0278,51.4755,1.1413,-0.0468,-0.2246,-50.3376
16:57:00:033,-0.9864,0.8568,4.7164,50.6915,1.2872,-0.1192,-0.1182,-50.2118
16:57:00:053,-1.313,1.6143,4.6622,50.278,1.3095,0.1714,0.0138,-50.0818
16:57:00:073,-2.0013,2.8186,5.0206,49.6427,0.8475,0.2651,0.1022,-49.9524
16:57:00:093,-2.3185,3.8384,6.9494,49.2894,0.2225,-0.2438,0.3024,-49.8337
16:57:00:114,-2.2542,4.4952,9.2527,48.772,0.0053,-0.643,0.4248,-49.7349
16:57:00:133,-2.6627,5.3738,10.5632,48.2509,0.1437,-0.2736,0.6111,-49.7349
16:57:00:154,-2.7572,5.1549,10.8766,47.9598,0.2523,0.2246,0.8858,-49.7349
16:57:00:173,-2.3342,4.7375,11.2509,47.8971,-0.1203,-0.05,1.0423,-49.7349
16:57:00:193,-1.7671,4.6043,12.7893,47.5708,-0.6718,-0.7783,0.9582,-49.7349
16:57:00:220,-1.3513,4.0345,14.1027,47.0112,-0.7261,-0.8954,0.857,-49.7349
16:57:00:233,-1.031,2.8905,14.1783,46.6253,-0.5568,-0.7367,0.6899,-49.7349
16:57:00:253,-0.9339,2.0052,13.3639,46.0744,-0.5206,-0.5259,0.543,-49.8328
16:57:00:273,-0.9495,1.5333,12.2158,45.2178,-0.5004,-0.1544,0.411,-49.9442
16:57:00:294,-0.9288,1.2229,10.7619,44.8216,-0.5781,0.0362,0.2694,-50.0637
16:57:00:315,-0.5537,0.9302,9.1402,44.2402,-0.9007,0.1586,0.1001,-50.189
16:57:00:333,-0.2475,0.3547,8.6255,43.8726,-1.383,0.148,-0.1799,-50.3149
16:57:00:353,-0.4418,-0.1781,9.1427,43.5026,-1.5533,-0.066,-0.3386,-50.4329
16:57:00:373,-0.5882,-0.4586,9.3682,43.0195,-1.2105,-0.1097,-0.2757,-50.5329
16:57:00:393,-0.6568,-0.4036,8.7432,42.7905,-0.6313,0.0554,-0.0479,-50.5329
16:57:00:418,-0.3608,-0.3695,7.5803,42.4056,-0.1469,0.4024,0.2406,-50.5329
16:57:00:433,0.0866,-0.2412,6.3527,41.989,0.0788,0.7442,0.4301,-50.5329
16:57:00:453,-0.0593,0.3662,5.5957,41.4825,0.1235,0.9891,0.494,-50.5329
16:57:00:473,-0.4417,1.0831,5.4747,40.9299,0.1799,1.1147,0.4961,-50.631
16:57:00:494,-0.5144,1.5972,5.896,40.3395,0.2502,0.9231,0.4141,-50.7419
16:57:00:515,0.1241,1.3793,6.5229,39.5884,0.2193,0.2811,0.132,-50.867
16:57:00:533,-0.2671,1.3242,8.4116,39.0318,0.1682,-0.659,-0.3258,-51.0024
16:57:00:553,-0.7402,1.0234,9.8369,38.6453,0.3599,-1.0945,-0.5664,-51.13
16:57:00:573,-0.9251,0.9009,10.745,38.133,0.478,-0.938,-0.5802,-51.2352
16:57:00:593,-0.4945,0.7064,11.1296,37.8138,0.297,-0.3322,-0.5078,-51.2352
16:57:00:614,-0.6275,0.5012,12.1329,37.5951,-0.1448,0.2534,-0.4344,-51.2352
16:57:00:633,-1.1361,1.5225,13.7229,37.2876,-0.2672,0.5057,-0.2672,-51.2352
16:57:00:653,-1.4249,2.417,14.4998,37.0467,0.1767,0.4929,-0.0692,-51.2352
16:57:00:674,-0.952,1.6749,13.9579,36.7306,0.5675,0.2023,-0.0756,-51.2352
16:57:00:695,-1.3558,1.3219,14.0973,36.5723,0.5089,-0.1959,-0.1991,-51.2352
16:57:00:715,-2.1636,1.6164,14.0107,36.3291,0.6154,-0.1629,-0.0266,-51.2352
16:57:00:733,-1.6928,1.0211,13.2556,35.9403,0.691,-0.3119,0.2896,-51.2352
16:57:00:753,-0.6281,0.4202,12.4458,35.785,0.4525,-0.7346,0.4865,-51.2352
16:57:00:773,0.1602,0.6307,11.943,35.051,0.1831,-0.9262,0.609,-51.2352
16:57:00:793,0.7924,1.213,10.8439,34.7966,0.197,-0.4993,0.6005,-51.2352
16:57:00:814,0.9551,1.5272,8.8969,34.5648,0.3396,0.2023,0.4663,-51.2352
16:57:00:833,0.6131,1.4256,6.9491,34.0775,0.4237,0.807,0.3577,-51.3335
16:57:00:853,0.5344,1.4693,5.1677,33.8917,0.5345,1.0561,0.3449,-51.439
16:57:00:873,0.987,1.8485,3.7378,33.3223,0.5526,0.7996,0.1895,-51.5536
16:57:00:893,0.8096,1.6827,3.2037,32.7057,0.6186,0.0543,-0.0979,-51.6775
16:57:00:915,0.0511,1.743,2.9816,32.0894,0.7176,-0.593,-0.1842,-51.8018
16:57:00:934,-0.6455,1.7415,3.1644,31.4827,0.6867,-0.9795,0.0064,-51.9201
16:57:00:954,-0.5883,1.6717,3.4473,31.0851,0.3801,-1.1083,0.3194,-52.0377
16:57:00:976,0.1891,2.0065,4.2218,30.8718,-0.2129,-0.9795,0.5345,-52.1644
16:57:00:997,0.7543,2.527,6.3468,30.1463,-0.8081,-0.8315,0.4993,-52.307
16:57:01:013,1.1079,3.503,8.6274,29.839,-1.0849,-0.4727,0.2481,-52.4617
16:57:01:033,0.9372,3.6452,10.3777,29.608,-1.0923,0.2108,0.0309,-52.6145
16:57:01:053,0.0839,3.2835,11.4088,29.7059,-0.9923,0.6899,-0.0671,-52.7555
16:57:01:073,-0.9785,3.1939,12.889,29.8382,-1.0338,0.5696,0.0532,-52.8843
16:57:01:094,-1.4413,3.1156,14.9864,30.0771,-1.0529,-0.1831,0.3758,-53.0105
16:57:01:113,-0.8177,2.6566,16.4097,30.3987,-0.741,-0.6761,0.7676,-53.1432
16:57:01:133,0.4359,1.8493,15.9859,30.1738,-0.165,-0.6622,0.9018,-53.2912
16:57:01:153,1.1363,0.9689,14.4429,29.9367,0.2917,-0.3971,0.6952,-53.4598
16:57:01:173,0.7822,0.8144,12.9732,30.0186,0.4706,-0.1341,0.3971,-53.6469
16:57:01:193,0.0525,1.1696,11.2309,29.8813,0.4706,0.4216,0.3045,-53.8434
16:57:01:214,-0.3219,1.356,10.0074,30.1727,0.1895,0.8315,0.2502,-54.0436
16:57:01:233,-0.5155,1.3861,9.3115,30.3908,-0.1544,1.1285,0.1171,-54.2498
16:57:01:253,-0.5307,1.1688,8.9112,30.1948,-0.3971,0.9742,-0.1001,-54.4556
16:57:01:273,-0.6927,1.0679,8.2463,30.0822,-0.445,0.7921,-0.2811,-54.6548
16:57:01:295,-0.699,0.5181,7.3175,30.1551,-0.4003,0.84,-0.3811,-54.8383
16:57:01:314,-0.954,0.0409,6.7162,29.7802,-0.3652,0.757,-0.4227,-55.003
16:57:01:333,-1.0844,-0.0788,6.2567,29.5659,-0.3279,0.5302,-0.3151,-55.1488
16:57:01:353,-0.8494,0.0273,5.9241,29.5197,-0.2193,0.2757,-0.0298,-55.2788
16:57:01:374,-0.677,0.3753,6.1858,29.3678,-0.0106,0.0905,0.3449,-55.4014
16:57:01:393,-0.6085,0.5984,6.2432,29.2223,0.2427,0.1874,0.6388,-55.5276
16:57:01:414,-0.4185,0.8933,6.4175,29.2551,0.4365,0.7687,0.7548,-55.6659
16:57:01:433,-0.0061,0.9725,7.3565,29.3296,0.5419,1.3351,0.6516,-55.8218
16:57:01:454,0.1028,1.4263,8.9945,29.3224,0.5281,0.7335,0.3545,-55.9956
16:57:01:473,-0.7932,2.3136,9.7929,29.184,0.4855,-0.4844,0.0234,-56.1847
16:57:01:493,-1.0354,2.4216,10.1288,29.1707,0.3918,-1.1626,-0.3492,-56.3765
16:57:01:514,-0.468,1.9872,10.4928,29.1994,0.1235,-1.021,-0.6079,-56.556
16:57:01:533,-0.4662,1.9418,11.3296,29.4443,-0.264,-0.5888,-0.6622,-56.7103
16:57:01:554,-0.8285,2.2415,12.5346,29.3568,-0.5664,0.0703,-0.5472,-56.8361
16:57:01:573,-1.4142,2.86,13.1949,29.7493,-0.51,0.7378,-0.3992,-56.9345
16:57:01:593,-1.3805,2.7201,12.8938,29.8216,-0.3971,1.1732,-0.4386,-56.9345
16:57:01:615,-1.5291,1.6788,12.3362,30.3019,-0.5685,1.218,-0.6942,-56.9345
16:57:01:633,-2.1425,0.36,12.7988,30.9221,-0.7474,1.318,-0.6782,-56.9345
16:57:01:654,-2.3296,-0.6697,12.6218,31.654,-0.7729,1.1019,-0.4993,-56.9345
16:57:01:673,-1.8329,-1.2901,11.4724,32.3016,-0.8464,0.9891,-0.3897,-56.9345
16:57:01:693,-1.3287,-1.4218,10.0694,33.3276,-1.0434,1.0508,-0.3024,-56.9345
16:57:01:714,-1.12,-1.0705,9.0079,34.1803,-1.1882,1.1211,-0.3258,-56.9345
16:57:01:733,-1.2451,-0.546,8.4086,34.8417,-1.0827,0.9763,-0.4663,-56.9345
16:57:01:753,-1.5598,-0.1245,7.8767,35.486,-0.6643,0.6761,-0.5621,-56.9345
16:57:01:776,-1.6949,-0.0512,6.9608,35.8328,-0.0788,0.2587,-0.51,-56.9345
16:57:01:793,-1.6571,0.0845,5.9486,36.1912,0.4099,-0.2342,-0.3801,-56.9345
16:57:01:813,-1.7815,0.4542,5.3502,36.5178,0.6729,-0.8475,-0.1735,-56.9345
16:57:01:834,-1.7392,0.5954,5.2482,36.3535,0.7474,-1.399,0.0809,-56.9345
16:57:01:853,-1.6581,0.3825,6.3477,35.992,0.8123,-1.9898,0.3279,-56.9345
16:57:01:873,-1.348,1.1616,8.1878,35.8594,1.0231,-2.7351,0.3247,-56.9345
16:57:01:893,-1.0868,2.2104,9.4041,35.5323,1.2733,-2.4561,0.1735,-56.9345
16:57:01:914,-0.6071,2.1927,9.8621,35.5694,1.1551,-1.6161,0.1224,-56.9345
16:57:01:933,-0.5112,2.3466,10.7249,35.5983,0.8368,-1.0242,-0.0405,-56.9345
16:57:01:954,-1.1639,3.1976,11.6582,35.686,0.6079,-0.5249,-0.116,-56.9345
16:57:01:973,-1.5184,3.3328,12.2418,35.8033,0.5281,-0.1054,-0.0575,-56.9345
16:57:01:994,-1.6298,2.7882,12.6637,36.3537,0.4205,0.1033,0.0564,-56.9345
16:57:02:014,-1.6884,2.2128,13.404,37.2274,0.4727,0.1725,0.2906,-56.9345
16:57:02:033,-1.8605,2.3739,13.2796,37.917,0.9518,0.3609,0.5856,-56.9345
16:57:02:053,-1.5225,2.3366,11.4614,38.5879,1.433,0.2885,0.7463,-56.9345
16:57:02:074,-0.9019,2.2392,9.4002,39.5412,1.2233,-0.1821,0.5313,-56.9345
16:57:02:094,-0.754,1.7081,9.1328,40.3224,0.428,-0.906,0.1011,-56.9345
16:57:02:114,-0.9388,1.0102,10.0155,41.0595,-0.3151,-1.104,-0.1235,-56.9345
16:57:02:133,-0.8484,0.3497,10.8981,41.727,-0.8358,-0.7846,-0.1789,-56.9345
16:57:02:153,-0.5908,0.1501,11.639,41.7662,-1.1999,-0.6069,-0.1821,-56.9345
16:57:02:175,0.0677,0.2746,12.2073,41.4899,-1.2925,-0.5313,-0.1299,-56.9345
16:57:02:193,0.5475,0.7294,11.6217,40.9078,-0.955,-0.1767,-0.165,-56.9345
16:57:02:230,0.5483,0.745,10.0696,39.9577,-0.4376,0.2949,-0.3886,-56.9345
16:57:02:236,-0.051,1.2334,8.4142,39.2367,0.0862,0.6462,-0.4663,-56.9345
16:57:02:254,-0.4156,1.3739,6.6359,38.8372,0.5323,0.9348,-0.3929,-56.9345
16:57:02:273,-0.6125,1.3661,5.3455,38.6601,0.7325,0.8507,-0.2843,-56.9345
16:57:02:293,-0.863,1.4787,4.4599,39.2473,0.7687,0.6399,-0.1767,-56.9345
16:57:02:314,-1.179,1.8725,4.2737,39.6967,0.7357,0.3758,-0.1001,-56.9345
16:57:02:333,-1.2197,1.9693,4.7418,39.9272,0.6122,-0.1363,-0.1448,-56.9345
16:57:02:354,-1.2086,1.6741,5.5759,40.2024,0.428,-0.4791,-0.2672,-56.9345
16:57:02:375,-1.1274,1.129,6.7206,40.1139,0.1714,-0.5398,-0.3268,-56.8436
16:57:02:393,-0.8725,1.0362,8.3185,40.2069,-0.1075,-0.5675,-0.4056,-56.7458
16:57:02:414,-0.7393,1.182,10.1367,40.3391,-0.3354,-0.5046,-0.56,-56.6393
16:57:02:435,-0.6373,0.8816,11.308,40.6283,-0.5504,0.0383,-0.6814,-56.5153
16:57:02:453,-1.2683,1.6098,12.207,41.0779,-0.7123,0.889,-0.7474,-56.366
16:57:02:473,-2.2754,2.4639,12.7327,41.5642,-0.6484,1.5672,-0.7059,-56.1881
16:57:02:493,-3.142,3.1511,12.4874,42.0785,-0.5015,1.7205,-0.5334,-55.9853
16:57:02:514,-2.9059,2.4412,12.1851,42.6506,-0.5951,1.0657,-0.2938,-55.7703
16:57:02:536,-2.3082,1.5163,12.829,43.1008,-0.5877,0.1884,-0.0905,-55.5574
16:57:02:558,-1.7096,0.9674,13.1174,43.6343,-0.2906,-0.4919,0.0341,-55.3516
16:57:02:573,-0.9681,0.4086,12.4321,44.1848,-0.1203,-0.8677,0.0703,-55.1548
16:57:02:593,-0.2366,0.0624,11.6992,44.5227,-0.329,-1.3574,0.0586,-54.969
16:57:02:614,0.4829,0.2397,11.0797,45.024,-0.6697,-1.6939,0.0053,-54.7958
16:57:02:634,0.8856,0.1994,10.1407,45.2697,-0.7634,-1.4756,-0.1714,-54.6292
16:57:02:653,0.6683,0.299,9.1515,45.5564,-0.6356,-1.0615,-0.363,-54.459
16:57:02:673,0.3253,0.4955,8.3639,45.8566,-0.1991,-0.7112,-0.3939,-54.2775
16:57:02:693,0.112,0.5485,6.8727,45.3793,0.3268,-0.1299,-0.263,-54.0805
16:57:02:714,0.0499,0.9465,5.4518,45.036,0.5845,0.1214,-0.082,-53.8756
16:57:02:734,0.106,1.5404,4.4805,44.4722,0.6335,0.2694,0.0181,-53.6726
16:57:02:753,0.0389,1.9827,4.1792,43.849,0.5632,0.1341,-0.016,-53.4779
16:57:02:773,-0.0125,2.2852,4.661,43.6121,0.3886,-0.1001,-0.0138,-53.2929
16:57:02:793,0.6506,2.1524,5.8205,43.5205,0.3311,-0.3322,-0.0373,-53.1165
16:57:02:815,1.1584,1.8806,6.8523,43.3502,0.3588,-0.4195,-0.2832,-52.9469
16:57:02:834,0.4372,1.6184,8.4494,43.4784,0.2619,-0.3673,-0.5526,-52.7764
16:57:02:853,-0.5252,1.614,10.0382,43.4964,0.1437,-0.2459,-0.4663,-52.5945
16:57:02:873,-0.9938,1.9461,11.0481,43.5195,-0.1405,0.2087,-0.2257,-52.4004
16:57:02:893,-1.0391,2.5886,11.9857,43.7373,-0.6047,0.9465,-0.0415,-52.1996
16:57:02:913,-1.1707,2.5754,13.0279,44.0411,-0.9539,1.4884,0.0106,-51.9974
16:57:02:933,-1.56,2.229,13.6229,44.1325,-0.8773,1.7056,0.0671,-51.7974
16:57:02:953,-2.1258,2.4957,13.2248,44.3841,-0.3556,1.581,0.198,-51.6015
16:57:02:974,-2.4447,2.3771,12.2275,44.5404,0.1235,0.7985,0.296,-51.4149
16:57:02:993,-2.0324,1.0239,11.3423,44.9335,0.2438,-0.4365,0.2619,-51.2504
16:57:03:015,-1.7594,0.0792,11.0977,45.1014,0.0713,-1.3734,0.1224,-51.1096
16:57:03:034,-1.6289,-0.4066,11.3521,45.2167,-0.1086,-1.6055,0.0862,-50.9823
16:57:03:054,-1.2344,-1.0048,11.4139,45.6812,-0.0202,-1.4426,0.1757,-50.8639
16:57:03:073,-0.4073,-1.7482,10.5293,45.7227,0.2481,-1.3819,0.198,-50.7493
16:57:03:093,0.2699,-1.9239,9.5689,45.7618,0.0181,-1.4926,0.1416,-50.6459
16:57:03:114,0.4875,-1.431,9.2979,46.1768,-0.5164,-1.2914,0.1522,-50.5536
16:57:03:133,0.4097,-1.019,9.2632,46.1391,-0.7964,-0.3386,0.2555,-50.5536
16:57:03:155,0.1037,-0.6384,8.7772,45.7661,-0.6643,0.8645,0.4088,-50.4615
16:57:03:173,-0.0973,-0.4187,7.6704,45.4162,-0.5973,1.383,0.5206,-50.4615
16:57:03:193,-0.4831,0.2427,7.2272,44.8429,-0.6761,1.5022,0.6345,-50.4615
16:57:03:214,-0.5612,0.4429,7.1407,44.0756,-0.3556,1.4298,0.7474,-50.4615
16:57:03:235,-0.5179,0.1747,6.6217,43.6562,0.1916,1.0615,0.7453,-50.4615
16:57:03:253,-0.7276,0.2894,6.2535,43.4836,0.5387,0.3907,0.7825,-50.4615
16:57:03:273,-0.5012,0.53,6.7691,43.4115,0.5643,-0.2385,0.8517,-50.4615
16:57:03:294,0.1455,0.7634,7.945,43.2607,0.6335,-0.5238,0.7708,-50.4615
16:57:03:314,0.7245,0.812,8.904,43.0855,0.6633,-0.6654,0.4908,-50.4615
16:57:03:334,0.9402,1.0525,9.5372,42.5704,0.3439,-0.691,0.148,-50.5663
16:57:03:354,0.9162,1.344,10.4711,42.1906,-0.2938,-0.2214,-0.1405,-50.6785
16:57:03:373,0.8288,1.2913,11.8301,41.9479,-0.9433,0.5664,-0.3769,-50.7844
16:57:03:393,0.2675,0.9268,13.5997,41.6256,-1.1903,1.3116,-0.576,-50.7844
16:57:03:416,-0.5652,1.0914,14.8675,41.0853,-0.9156,1.5352,-0.7538,-50.7844
16:57:03:433,-1.2306,0.9074,14.7604,40.8968,-0.6782,1.2808,-0.8656,-50.7844
16:57:03:453,-1.5584,-0.0303,15.2834,40.292,-0.5185,0.89,-0.791,-50.7844
16:57:03:474,-1.8069,-0.5178,15.4551,39.8702,0.0767,0.4834,-0.5621,-50.7844
16:57:03:493,-1.2895,-1.0343,13.9532,39.6352,0.5164,-0.0085,-0.3109,-50.7844
16:57:03:514,-0.5581,-1.1537,12.7233,39.5078,0.4024,-0.4503,-0.2183,-50.7844
16:57:03:533,0.1234,-0.7418,11.9718,39.2819,0.2183,-0.6452,-0.164,-50.7844
16:57:03:553,0.6417,-0.3326,10.5076,39.7086,0.1714,-0.3556,-0.2981,-50.7844
16:57:03:573,0.6274,0.3126,8.0961,39.3151,-0.1065,0.7623,-0.6196,-50.7844
16:57:03:594,0.3764,0.724,6.0095,38.8369,-0.5728,2.4178,-0.8964,-50.6834
16:57:03:614,-0.3549,0.5477,4.9905,38.1643,-0.9965,3.1716,-1.1296,-50.6834
16:57:03:633,-1.3272,0.535,5.3949,37.2777,-0.9593,2.6318,-1.1509,-50.6834
16:57:03:653,-1.9365,0.4515,6.058,36.8682,-0.2065,1.2222,-0.972,-50.4904
16:57:03:674,-2.1273,0.0712,5.713,36.5227,0.8975,-0.1427,-0.6707,-50.273
16:57:03:697,-2.0779,-0.0937,5.0472,36.49,1.6715,-1.3021,-0.2726,-50.0333
16:57:03:714,-1.9831,0.2973,4.8958,36.6408,2.0431,-2.0122,0.116,-49.7803
16:57:03:734,-1.927,1.3587,5.2212,36.3705,1.9451,-2.1176,0.3939,-49.5273
16:57:03:753,-1.7644,2.3327,6.1642,35.9631,1.318,-1.598,0.3822,-49.286
16:57:03:774,-1.8556,2.1812,7.8584,36.0645,0.576,-0.8102,0.2811,-49.0605
16:57:03:793,-2.6192,2.3077,9.6877,36.0756,0.0905,-0.2481,0.2332,-48.8486
16:57:03:814,-3.4176,2.6335,11.3258,35.6689,-0.1235,-0.1192,0.329,-48.6503
16:57:03:833,-3.868,2.0917,12.3332,35.855,-0.2172,-0.05,0.5025,-48.4685
16:57:03:853,-3.7722,1.3187,13.5017,35.6273,-0.5494,-0.1565,0.7421,-48.3093
16:57:03:874,-3.3297,1.0346,14.7864,35.5522,-0.6058,-0.0373,0.9422,-48.1807
16:57:03:894,-2.3809,0.173,14.9018,35.7405,-0.1459,0.0937,0.9571,-48.0846
16:57:03:915,-1.8979,-0.7356,13.8522,36.0539,0.3045,-0.1554,0.7186,-48.0846
16:57:03:934,-2.1875,-0.3566,12.4098,36.0075,0.5089,-0.2246,0.6548,-48.0846
16:57:03:954,-2.6104,1.3981,11.2967,36.382,0.3183,-0.1533,0.5824,-48.0846
16:57:03:974,-2.3555,1.9342,10.8944,36.5614,-0.1725,-0.1586,0.3907,-48.0846
16:57:03:993,-1.5703,1.0024,10.7475,36.3432,-0.5611,0,0.0969,-48.0846
16:57:04:015,-1.1853,0.1895,10.4432,36.0667,-0.6569,0.2151,-0.2364,-48.0846
16:57:04:033,-1.2855,-0.4975,9.6973,35.688,-0.4887,0.4493,-0.4014,-48.0846
16:57:04:054,-2.0194,-0.6375,8.9595,35.6983,-0.1043,0.6047,-0.2417,-48.0846
16:57:04:074,-2.2389,-0.6308,7.6043,35.5797,0.4876,0.5888,0.1991,-48.0846
16:57:04:093,-1.9516,-0.5677,5.9002,35.5236,0.9816,0.2449,0.6558,-48.0846
16:57:04:115,-1.1872,0.0773,4.877,35.4297,1.2467,-0.2651,0.9752,-48.0846
16:57:04:133,0.6147,0.9039,4.0605,35.0799,1.3297,-0.5941,0.873,-48.0846
16:57:04:153,1.1129,1.7168,3.8054,34.8159,1.1807,-0.7197,0.28,-48.0846
16:57:04:173,0.7219,0.6792,4.5137,34.7213,0.9241,-0.8283,-0.4067,-48.1811
16:57:04:193,-0.2742,0.3889,5.0495,34.6344,0.5728,-0.7921,-0.658,-48.1811
16:57:04:236,-1.5035,0.1572,6.1387,34.4603,-0.0798,-0.5068,-0.3758,-48.1811
16:57:04:238,-2.01,0.2762,7.3073,34.5526,-0.7729,0.2012,0.1022,-48.1811
16:57:04:253,-1.4186,-0.1528,7.765,34.2122,-1.4501,0.2704,0.4589,-48.1811
16:57:04:273,-0.9494,0.4252,8.6467,34.1241,-2.1048,-0.5685,0.7069,-48.1811
16:57:04:293,-0.4453,0.7487,10.9812,34.2154,-2.6691,-1.4575,0.8347,-48.1811
16:57:04:314,-0.276,0.4816,12.9301,33.9542,-2.6574,-0.5153,0.8251,-48.3084
16:57:04:334,0.0825,0.6123,15.4113,33.9028,-1.8929,1.0497,0.7144,-48.4432
16:57:04:353,0.8778,-0.2479,16.1624,34.1324,-1.1605,0.8869,0.4344,-48.5875
16:57:04:373,1.1868,-1.2783,16.6299,34.6497,-0.511,-0.6239,-0.2726,-48.7441
16:57:04:394,0.2909,-1.1088,15.7608,35.1214,-0.0117,-1.2243,-0.6973,-48.8932
16:57:04:415,0.3079,-1.535,14.4955,35.383,0.049,-0.7761,-0.5483,-49.0144
16:57:04:433,0.8202,-1.9017,13.1666,35.8028,-0.1554,-0.1661,-0.3045,-49.1091
16:57:04:453,0.9282,-1.4789,11.7045,36.2285,-0.3726,0.2342,-0.1246,-49.1091
16:57:04:473,0.6227,-0.6737,10.3702,36.2745,-0.3524,0.6047,-0.0554,-49.1091
16:57:04:494,0.2112,0.0129,9.1186,36.2439,-0.0021,0.7378,-0.1405,-49.1091
16:57:04:514,-0.0434,0.543,7.5642,35.9938,0.4333,0.6271,-0.2757,-49.1091
16:57:04:533,-0.1883,0.6357,6.2763,35.5355,0.7037,0.2289,-0.3513,-49.1091
16:57:04:553,-0.4352,0.7684,5.699,34.8004,0.8517,-0.1661,-0.3545,-49.1091
16:57:04:574,-0.5088,0.8083,5.1999,34.2167,0.9986,-0.2406,-0.2395,-49.1091
16:57:04:593,-0.2553,0.6449,4.8043,33.7014,1.0934,-0.0873,-0.1831,-49.1091
16:57:04:614,-0.2793,0.7478,4.9546,33.4392,1.0263,-0.1416,-0.1991,-49.1091
16:57:04:633,-0.2051,1.2892,5.9327,33.3245,0.8187,-0.4152,-0.2694,-49.1091
16:57:04:654,-0.0916,1.5861,7.0898,33.6855,0.6377,-0.3652,-0.3843,-49.1091
16:57:04:674,-0.1484,1.2318,8.5467,33.6578,0.4695,0.0181,-0.5866,-49.1091
16:57:04:694,-0.1426,0.7994,9.9939,33.9175,0.4354,0.0905,-0.7772,-49.1091
16:57:04:713,-0.5181,1.1111,11.2655,34.0398,0.4567,0.0873,-0.8304,-49.1091
16:57:04:735,-1.0452,1.7318,12.6289,33.7924,0.5206,0.0735,-0.741,-49.1091
16:57:04:753,-1.2231,1.5621,13.388,33.6935,0.625,0.4823,-0.4418,-49.0072
16:57:04:773,-1.4598,1.5661,14.0485,33.9145,0.7069,0.873,-0.0234,-48.8871
16:57:04:793,-1.7669,2.3979,14.0175,33.7743,0.7996,0.9252,0.4759,-48.7648
16:57:04:815,-1.6866,2.2504,13.1241,33.6738,0.8869,0.7218,0.6973,-48.6576
16:57:04:833,-2.0107,1.6506,12.5116,33.8823,0.8879,0.2768,0.5557,-48.6576
16:57:04:854,-2.4667,1.5529,11.7844,34.163,0.6441,-0.3205,0.4078,-48.6576
16:57:04:873,-2.3148,1.1696,11.3143,34.7047,0.2598,-0.8507,0.3609,-48.6576
16:57:04:895,-1.6252,0.6138,11.0178,35.4853,-0.1735,-1.251,0.2268,-48.6576
16:57:04:915,-0.7751,-0.046,10.372,36.3565,-0.5078,-1.2584,0.0767,-48.6576
16:57:04:934,-0.4163,-0.4966,9.5418,37.1759,-0.6281,-0.7304,0.0117,-48.6576
16:57:04:954,-0.8668,-0.1816,8.2531,37.7753,-0.6196,-0.0287,0.1576,-48.6576
16:57:04:978,-1.1768,0.1726,7.074,38.3372,-0.4578,0.5802,0.428,-48.6576
16:57:04:994,-1.0307,0.2945,6.0103,38.9455,-0.2257,0.9262,0.6218,-48.6576
16:57:05:014,-0.6582,0.4007,5.1205,39.2084,-0.0447,1.0316,0.691,-48.6576
16:57:05:033,-0.3301,0.513,4.564,39.3832,0.1022,1.0114,0.659,-48.6576
16:57:05:053,-0.4443,0.6891,4.3848,38.8878,0.1789,0.8837,0.6569,-48.6576
16:57:05:074,-0.6184,0.7618,4.8857,39.0277,0.2481,0.8251,0.6973,-48.6576
16:57:05:094,-0.7679,1.1029,6.2281,38.4188,0.1938,0.049,0.6867,-48.7701
16:57:05:114,-0.6947,1.4326,7.5383,38.5585,0.1725,-0.8634,0.5664,-48.9102
16:57:05:133,-0.3729,1.4433,9.0584,38.5055,0.1182,-1.1285,0.4386,-49.0713
16:57:05:154,-0.072,1.2119,10.7741,38.2329,-0.1363,-0.6771,0.412,-49.2437
16:57:05:174,0.4872,1.3118,12.3668,38.2035,-0.5185,0.0319,0.3364,-49.4225
16:57:05:193,0.8427,2.1779,14.0761,38.0121,-0.9209,0.5941,-0.0021,-49.606
16:57:05:214,0.455,2.7411,15.1684,37.5759,-0.7346,1.2542,-0.411,-49.7828
16:57:05:235,-0.4615,2.7821,14.0713,37.4582,-0.0181,1.7684,-0.5526,-49.9352
16:57:05:253,-1.2388,3.3123,12.1194,37.5253,0.2374,1.5672,-0.3843,-50.0593
16:57:05:273,-0.6746,3.6518,11.5174,37.2767,-0.0234,0.6718,-0.049,-50.1684
16:57:05:293,0.2693,2.1629,12.2562,37.262,-0.0905,-0.3002,0.0032,-50.2771
16:57:05:314,1.2901,1.0195,11.7716,37.7804,-0.115,-0.7751,-0.2875,-50.3879
16:57:05:333,1.1599,-0.0028,11.5674,38.0418,-0.3173,-0.971,-0.6878,-50.4908
16:57:05:353,0.4588,-0.4971,11.3106,38.1455,-0.5653,-0.9433,-0.8432,-50.4908
16:57:05:373,-0.0867,-0.5652,10.8212,38.3915,-0.7091,-0.6026,-0.8006,-50.4908
16:57:05:393,-0.352,-0.2364,10.0755,37.7029,-0.61,-0.1416,-0.7325,-50.4908
16:57:05:414,-0.7242,0.1072,9.2628,37.0005,-0.3364,0.0798,-0.7527,-50.4908
16:57:05:433,-1.0401,0.3188,8.0042,35.9688,0.1182,0.3961,-0.5888,-50.4908
16:57:05:453,-0.8615,0.2759,6.6566,35.1404,0.5909,0.3109,-0.4493,-50.4908
16:57:05:474,-0.9175,0.3497,5.5626,35.0585,0.8538,0.0532,-0.4195,-50.4908
16:57:05:493,-1.3766,0.7798,5.1972,34.9326,0.9497,-0.4024,-0.4014,-50.3983
16:57:05:513,-1.8493,1.1299,5.6609,35.0327,1.1221,-0.9614,-0.3524,-50.2966
16:57:05:533,-1.843,1.2719,6.0904,35.2282,1.3372,-1.5704,-0.2949,-50.1881
16:57:05:553,-1.6729,1.7694,6.2347,35.2215,1.2073,-1.8663,-0.2576,-50.0763
16:57:05:573,-1.2635,2.314,7.2839,35.0516,0.7069,-1.7056,-0.1938,-49.9633
16:57:05:593,-0.6255,2.399,8.9716,35.2712,0.2108,-1.2158,-0.1672,-49.8488
16:57:05:615,-0.0973,2.5318,10.6757,34.7945,-0.0362,-0.6409,-0.2065,-49.732
16:57:05:634,0.02,2.8706,11.6278,34.7565,-0.017,0.2864,-0.28,-49.6045
16:57:05:654,-0.1986,2.8642,11.7352,34.7336,0.017,0.9135,-0.2672,-49.4636
16:57:05:673,-0.5543,2.6284,12.0858,34.4448,-0.2097,0.8517,-0.0138,-49.3153
16:57:05:695,-0.7191,2.7488,13.0699,34.2255,-0.28,0.4919,0.3705,-49.1718
16:57:05:714,-0.5521,2.9453,13.4684,34.4044,0.1746,0.2151,0.7027,-49.0431
16:57:05:733,-0.0997,2.3962,12.3013,34.1464,0.659,-0.1991,0.6824,-48.9411
16:57:05:753,0.162,1.422,10.864,33.9418,0.5281,-0.543,0.5036,-48.9411
16:57:05:773,0.0179,0.8991,10.7342,34.0763,-0.0256,-0.8006,0.2736,-48.9411
16:57:05:793,-0.4175,0.9732,11.0461,34.0374,-0.4599,-0.7197,0.1491,-48.9411
16:57:05:815,-0.3997,0.7579,11.2331,34.4314,-0.7484,-0.4738,0.05,-48.9411
16:57:05:833,-0.0972,0.4023,10.7707,34.9626,-0.9007,-0.0554,-0.0724,-48.9411
16:57:05:854,0.1643,0.2535,9.7465,35.2957,-0.8869,0.6047,-0.1491,-48.9411
16:57:05:874,0.0018,0.5066,8.5373,35.2584,-0.6973,1.3021,-0.1842,-48.9411
16:57:05:894,-0.3663,0.8085,7.3247,35.436,-0.3843,1.6012,-0.1831,-48.9411
16:57:05:914,-0.6022,0.9187,6.1005,35.0465,-0.0649,1.5097,-0.1075,-48.9411
16:57:05:934,-0.6589,0.6913,5.025,34.677,0.1661,1.2967,-0.0309,-48.9411
16:57:05:953,-0.9261,0.5512,4.4097,34.4142,0.3386,1.0327,0.082,-48.9411
16:57:05:973,-1.531,0.802,4.1486,34.1681,0.4354,0.7453,0.3141,-48.9411
16:57:05:994,-1.993,1.5389,4.2475,33.7413,0.2906,0.4312,0.5749,-48.9411
16:57:06:014,-2.006,2.5111,5.52,33.5122,-0.231,-0.2012,0.5951,-48.9411
16:57:06:034,-1.9588,2.3821,8.6896,33.348,-0.61,-0.8219,0.3045,-48.9411
16:57:06:053,-2.4495,1.9607,11.8992,32.783,-0.2757,-0.8805,0.1278,-48.9411
16:57:06:073,-2.2893,1.8466,12.5542,32.4955,0.4078,-0.3215,0.082,-48.9411
16:57:06:095,-1.848,2.1922,11.7688,32.172,0.2129,0.1192,-0.1256,-48.9411
16:57:06:115,-1.8636,2.642,12.0879,31.585,-0.5387,0.5313,-0.2683,-48.9411
16:57:06:135,-2.1137,2.7485,13.6469,31.4546,-0.9454,1.1892,-0.1842,-48.9411
16:57:06:153,-2.2728,2.4136,14.9373,31.3655,-0.5909,1.4,0.0575,-48.9411
16:57:06:173,-1.929,2.4793,14.4232,31.4372,-0.0511,1.1999,0.3992,-48.9411
16:57:06:193,-0.8307,1.6626,14.0932,31.44,0.131,0.2374,0.625,-48.9411
16:57:06:214,0.1543,0.4686,14.0467,31.299,0.4248,-0.5376,0.6345,-48.9411
16:57:06:250,1.0036,-0.9083,13.0409,30.621,0.8113,-0.7612,0.5792,-48.9411
16:57:06:253,1.4357,-1.0241,11.4052,30.2584,0.7793,-0.7186,0.3961,-48.9411
16:57:06:273,1.6458,-0.4272,10.2943,30.1337,0.3556,-0.5738,0.1395,-48.9411
16:57:06:294,1.9745,0.2538,9.3289,29.8879,-0.2204,-0.2843,-0.1821,-48.9411
16:57:06:313,1.9081,0.7125,8.6448,29.8771,-0.6058,0.2768,-0.576,-48.9411
16:57:06:333,1.3654,0.8679,7.9106,30.1507,-0.6548,0.9103,-0.9837,-48.9411
16:57:06:353,0.5179,0.9814,6.8781,30.355,-0.3982,1.2126,-1.2169,-48.9411
16:57:06:374,-0.192,1.0443,5.7669,30.2724,-0.0266,1.1551,-1.251,-48.9411
16:57:06:394,-0.6824,0.8672,4.465,30.6048,0.3066,0.7431,-1.1072,-48.9411
16:57:06:415,-1.1417,1.0745,4.0193,30.3229,0.4099,-0.0192,-0.889,-48.8349
16:57:06:433,-1.6368,1.5494,4.3234,29.7879,0.4855,-0.7101,-0.6771,-48.7036
16:57:06:453,-1.2912,1.4843,4.6572,29.5839,0.6281,-1.0093,-0.4855,-48.5525
16:57:06:475,-1.1992,1.5044,5.3083,29.187,0.4823,-1.0231,-0.5142,-48.3864
16:57:06:497,-1.9228,2.072,7.1706,28.6606,0.198,-1.2201,-0.5951,-48.2102
16:57:06:516,-2.1786,2.292,9.3258,28.2323,0.1171,-1.2137,-0.5653,-48.0207
16:57:06:533,-1.9742,1.9958,10.9895,28.0945,0.1554,-0.857,-0.5675,-47.8143
16:57:06:553,-2.203,1.9158,11.5973,27.5373,0.2289,-0.2183,-0.5717,-47.5891
16:57:06:574,-2.8894,2.2309,11.7576,27.2711,0.0586,0.1767,-0.5462,-47.3456
16:57:06:593,-3.6164,2.3865,12.5588,27.0914,-0.231,0.2214,-0.412,-47.0897
16:57:06:614,-3.9677,2.3092,13.8481,26.9852,-0.2906,0.0649,-0.1491,-46.8276
16:57:06:633,-3.8098,2.3908,14.3948,26.988,0.1916,-0.0415,0.2449,-46.5669
16:57:06:653,-3.1201,2.5076,12.997,26.9425,0.8251,0.0181,0.4738,-46.3158
16:57:06:674,-2.6532,2.5092,11.442,26.9956,0.9231,-0.4897,0.313,-46.0871
16:57:06:693,-2.4434,1.6258,11.2675,27.0278,0.5845,-1.1605,0.0298,-45.8849
16:57:06:714,-2.4865,0.8262,11.5446,26.9817,0.4312,-1.2989,-0.1097,-45.6966
16:57:06:734,-2.63,0.3959,11.6055,26.8053,0.3024,-1.235,-0.0948,-45.5136
16:57:06:754,-2.5585,0.1564,11.3482,26.6951,0.2172,-1.2786,0.0437,-45.3316
16:57:06:776,-2.1385,0.0683,10.5869,26.7781,0.1597,-1.1019,0.2502,-45.1563
16:57:06:794,-1.64,0.0852,9.4626,26.7416,0.1544,-0.675,0.461,-44.9917
16:57:06:815,-1.4069,0.2508,8.2015,26.6652,0.2374,-0.1118,0.6803,-44.8425
16:57:06:833,-1.2865,0.5649,6.798,26.5758,0.3535,0.3567,0.9401,-44.7158
16:57:06:854,-0.9347,0.7056,5.6881,25.9642,0.4312,0.5568,1.2052,-44.622
16:57:06:875,-0.3095,0.7566,4.7927,26.2709,0.4823,0.5951,1.3787,-44.622
16:57:06:894,0.1252,1.1072,4.2098,26.3788,0.5866,0.6995,1.4383,-44.622
16:57:06:914,0.5417,1.4614,3.7015,26.5401,0.6835,0.6995,1.3383,-44.622
16:57:06:933,1.0169,1.9779,3.6515,26.8271,0.4216,0.3801,1.0391,-44.7257
16:57:06:953,1.3973,2.1784,4.6694,27.3582,-0.1533,-0.0064,0.5611,-44.8734
16:57:06:974,1.1279,1.9699,6.1424,27.703,-0.6995,0.1672,-0.0138,-45.044
16:57:06:994,0.5507,1.3924,7.2148,28.0229,-1.038,1.0242,-0.3918,-45.2073
16:57:07:014,0.6305,0.1041,8.8351,28.2449,-1.3713,1.5959,-0.5334,-45.344
16:57:07:033,0.1796,-0.1883,11.4528,28.1435,-1.8088,1.5001,-0.7431,-45.4571
16:57:07:054,-1.4936,1.1522,13.9492,27.7146,-1.3968,1.5246,-0.9092,-45.4571
16:57:07:074,-3.009,2.286,13.7059,27.1584,-0.5355,1.5022,-0.8283,-45.4571
16:57:07:094,-4.1195,3.6064,12.2738,26.511,-0.3151,1.1977,-0.478,-45.4571
16:57:07:114,-4.0441,5.5036,12.6415,25.6745,-0.7634,0.6313,0.3013,-45.4571
16:57:07:134,-1.2693,3.1998,15.983,25.029,-1.3723,-0.6622,0.7314,-45.4571
16:57:07:155,1.3955,0.818,18.6266,24.9452,-0.7655,-1.7056,0.6132,-45.4571
16:57:07:173,2.3296,-1.1779,17.4994,25.1191,0.2374,-1.2723,0.0777,-45.4571
16:57:07:194,1.3326,-1.1426,15.1553,25.4206,0.7495,-0.3439,-0.2534,-45.4571
16:57:07:216,0.3769,-0.1602,12.3662,25.6397,0.8049,0.3205,-0.2545,-45.4571
16:57:07:234,0.0752,0.5748,9.8884,25.8741,0.5707,0.4993,-0.3535,-45.4571
16:57:07:253,-0.1001,1.0351,7.9978,25.752,0.2821,0.5909,-0.5376,-45.4571
16:57:07:274,-0.2996,1.0803,6.5443,25.6676,0.1927,0.6782,-0.6622,-45.4571
16:57:07:293,-0.5227,1.2093,5.3327,25.7091,0.2757,0.5792,-0.6942,-45.4571
16:57:07:314,-0.5868,1.3557,4.3651,25.6626,0.3961,0.2694,-0.6633,-45.4571
16:57:07:333,-0.4771,1.2937,3.7579,25.7652,0.4141,-0.2342,-0.6643,-45.4571
16:57:07:354,-0.3366,1.0373,3.5369,25.8514,0.3662,-0.6761,-0.6739,-45.4571
16:57:07:374,-0.0199,0.6209,3.8153,26.1442,0.2875,-0.8741,-0.6643,-45.4571
16:57:07:394,0.0762,0.3315,4.5117,26.5228,0.132,-0.9081,-0.6271,-45.3465
16:57:07:414,0.0949,0.0687,5.853,26.7396,-0.0692,-0.7942,-0.4983,-45.2171
16:57:07:434,-0.0753,0.6578,7.5583,27.0934,-0.2268,-0.8134,-0.5089,-45.0733
16:57:07:453,-1.0036,1.7711,9.0436,27.1026,-0.3897,-0.6324,-0.6473,-44.9171
16:57:07:474,-1.7167,1.8577,10.4633,27.0507,-0.4738,-0.2928,-0.5685,-44.7419
16:57:07:494,-2.3216,1.9264,11.5701,27.1254,-0.5685,0.0043,-0.3332,-44.5485
16:57:07:514,-3.0852,2.9523,13.3518,27.3751,-0.5994,-0.099,0.0319,-44.3463
16:57:07:538,-2.6528,3.1595,15.0334,27.6454,-0.3992,-0.4865,0.3247,-44.1511
16:57:07:554,-1.7054,2.993,15.4915,27.7134,0.0394,-0.2832,0.477,-43.9689
16:57:07:574,-1.2721,3.2847,14.8435,27.5217,0.7335,0.1224,0.4727,-43.8009
16:57:07:594,-1.5251,3.2675,12.9471,27.2764,0.8964,-0.1725,0.1938,-43.6532
16:57:07:616,-1.6911,1.4743,12.5017,26.6896,0.5004,-0.8166,-0.0128,-43.525
16:57:07:634,-2.0291,0.305,12.7273,26.0631,0.3194,-1.0221,-0.0394,-43.4088
16:57:07:654,-2.1522,-0.3239,12.4991,25.9884,0.2885,-0.8666,0.0724,-43.295
16:57:07:674,-1.9872,-0.823,11.5856,25.882,0.214,-0.5398,0.2491,-43.1855
16:57:07:693,-1.7208,-1.0018,10.3387,25.879,0.116,-0.0692,0.4535,-43.0843
16:57:07:714,-1.4977,-0.8482,8.8904,26.093,0.0351,0.4024,0.643,-43.0843
16:57:07:734,-1.5445,-0.1626,7.5627,26.1634,-0.0053,0.8315,0.7772,-43.0843
16:57:07:753,-1.6258,0.3776,6.3115,25.8954,0.0426,1.0572,0.8815,-43.0843
16:57:07:773,-1.6173,0.4016,5.2939,25.9147,0.1501,0.8762,1.0295,-43.0843
16:57:07:799,-1.3276,0.3243,4.4279,25.6145,0.2821,0.576,1.2361,-43.0843
16:57:07:814,-1.0379,0.4298,3.8729,25.614,0.3897,0.3545,1.4149,-43.0843
16:57:07:834,-0.7433,0.7636,3.4876,25.7338,0.3822,0.2662,1.5171,-43.1974
16:57:07:854,-0.4387,1.3944,3.5453,25.9014,0.1448,0.1437,1.4682,-43.3612
16:57:07:874,-0.0869,1.9042,4.3726,26.2076,-0.3907,-0.1384,1.2286,-43.5761
16:57:07:893,0.1113,2.2519,6.4807,26.2617,-0.9646,-0.4205,0.8262,-43.8343
16:57:07:914,0.1303,1.5989,9.6325,26.1661,-1.1136,-0.4525,0.3726,-44.1187
16:57:07:933,-0.1512,0.8955,12.0463,26.1023,-0.8326,0.1405,0.082,-44.4046
16:57:07:955,-0.4309,0.8589,13.5365,25.8835,-0.7772,0.9773,-0.1416,-44.6783
16:57:07:974,-1.0401,1.0089,14.7458,25.6263,-0.9646,1.6821,-0.3854,-44.9341
16:57:07:994,-1.7996,0.9421,15.3084,25.6278,-0.9273,2.1868,-0.4855,-45.1671
16:57:08:014,-2.466,1.2426,14.6007,25.2149,-0.4472,2.4625,-0.3716,-45.3732
16:57:08:036,-3.265,2.7749,13.0673,24.9547,0.2044,2.2209,0.0777,-45.5555
16:57:08:055,-2.2857,3.8468,12.3963,24.8337,0.1086,0.7218,0.8272,-45.7323
16:57:08:075,1.0377,1.8128,13.7423,24.4627,0.1491,-1.1977,0.905,-45.9373
16:57:08:093,2.5644,-0.2121,12.9722,24.37,0.5919,-1.5693,0.2225,-46.1733
16:57:08:114,1.4717,-0.971,11.6881,24.6761,0.6303,-0.8975,-0.4919,-46.4127
16:57:08:133,-0.4608,-0.7393,10.621,24.9593,0.2065,-0.2204,-0.7783,-46.6293
16:57:08:154,-1.47,-0.6892,9.9601,25.5108,-0.3247,0.1182,-0.643,-46.8129
16:57:08:174,-1.7412,-0.532,9.5907,26.4841,-0.6846,0.2023,-0.4003,-46.9693
16:57:08:194,-1.6925,-0.3856,9.2963,26.985,-0.6462,0.3439,-0.1938,-47.107
16:57:08:215,-1.5107,-0.2392,8.3817,27.4336,-0.2683,0.5621,-0.0415,-47.2311
16:57:08:235,-1.414,-0.0349,7.0572,27.7326,0.1789,0.5589,0.0511,-47.3464
16:57:08:263,-1.38,0.3648,5.7887,27.6184,0.4141,0.3268,0.0969,-47.4577
16:57:08:273,-1.3464,0.7563,4.9982,27.2192,0.5536,0.1405,0.2065,-47.5678
16:57:08:293,-0.9873,0.8099,4.5782,27.0152,0.6473,-0.0032,0.2662,-47.6788
16:57:08:314,-0.6816,0.9289,4.4562,26.4873,0.5909,-0.2566,0.2065,-47.7939
16:57:08:334,-0.5691,1.2435,5.1202,26.0424,0.2789,-0.7261,0.0117,-47.9148
16:57:08:354,-0.6734,1.6976,6.5259,25.7125,-0.0341,-0.9401,-0.1789,-48.0382
16:57:08:374,-0.7386,1.8166,8.2186,25.0807,-0.0319,-0.8198,-0.2704,-48.1541
16:57:08:393,-0.7607,2.0543,9.0767,24.5975,0.0575,-0.1959,-0.3428,-48.2549
16:57:08:415,-1.195,2.6912,9.775,24.936,0.0096,0.2949,-0.4418,-48.2549
16:57:08:437,-2.272,3.1931,10.5897,24.75,-0.1874,0.2917,-0.544,-48.2549
16:57:08:454,-3.1373,2.7222,11.8258,24.9989,-0.4578,-0.1299,-0.4301,-48.2549
16:57:08:474,-3.433,2.1772,13.4781,25.0247,-0.6899,-0.4791,-0.1011,-48.2549
16:57:08:495,-3.3715,1.9967,15.2077,24.7402,-0.4855,-0.3481,0.4141,-48.2549
16:57:08:514,-2.4768,1.6225,15.4121,24.862,0.3237,-0.1352,0.7985,-48.2549
16:57:08:535,-1.2988,0.5853,13.3588,25.3386,0.9923,-0.3481,0.6995,-48.2549
16:57:08:553,-1.6468,0.5401,11.3235,25.1636,1.12,-0.5675,0.395,-48.2549
16:57:08:574,-2.3439,1.0991,9.7888,25.6139,0.7868,-0.5909,0.1757,-48.3572
16:57:08:594,-2.9518,1.2455,9.4915,25.8092,0.0681,-0.7037,-0.0138,-48.4675
16:57:08:616,-3.0035,0.3789,9.8713,25.8703,-0.6516,-0.6239,-0.0862,-48.5801
16:57:08:634,-2.7924,-0.7059,10.4763,26.0896,-1.0923,-0.2065,-0.0405,-48.688
16:57:08:654,-2.8604,-0.7038,10.3746,25.8851,-1.137,0.5313,0.1022,-48.7874
16:57:08:673,-2.9837,-0.1588,9.586,26.075,-1.0295,1.2212,0.2278,-48.88
16:57:08:695,-2.9145,-0.1511,8.8097,25.9658,-0.8847,1.4053,0.3535,-48.9733
16:57:08:714,-2.9332,-0.1232,8.1622,25.9443,-0.4972,1.2542,0.5536,-49.0745
16:57:08:736,-2.7778,-0.1622,6.9997,26.0416,0.131,0.9923,0.9241,-49.1885
16:57:08:754,-2.2874,-0.2939,5.8876,26.3273,0.7665,0.6399,1.3393,-49.3249
16:57:08:773,-1.6901,-0.065,4.9138,26.3599,1.2094,0.1554,1.597,-49.4965
16:57:08:793,-1.0515,0.3667,4.3372,26.7299,1.318,-0.2843,1.6502,-49.7132
16:57:08:814,-0.4302,1.0407,4.6241,27.0012,1.0902,-0.7346,1.4437,-49.9793
16:57:08:833,0.0346,1.6238,5.7547,27.0989,0.7719,-1.1189,1.0529,-50.2908
16:57:08:854,0.6759,1.6754,6.9445,26.8563,0.4195,-1.2265,0.5345,-50.6351
16:57:08:873,0.9565,1.5092,8.2579,26.7539,0.1107,-0.9667,0.017,-50.9931
16:57:08:894,0.9074,1.6485,8.9127,26.5351,-0.3971,-0.4269,-0.3865,-51.3445
16:57:08:916,0.5355,2.1104,10.4646,26.6781,-1.1434,0.1608,-0.6686,-51.6752
16:57:08:934,0.0658,2.0738,12.7259,26.8172,-1.5757,0.7325,-0.8741,-51.9758
16:57:08:954,-0.5754,1.7705,14.4611,26.4359,-1.2978,1.0923,-0.9454,-52.2364
16:57:08:974,-1.1674,1.7429,14.7266,26.3684,-0.7453,1.1434,-0.8507,-52.4539
16:57:08:994,-1.4703,1.198,14.2696,26.1217,-0.1842,0.6643,-0.6399,-52.6333
16:57:09:014,-1.4935,0.9757,13.6606,25.7967,0.2076,-0.0724,-0.3684,-52.7841
16:57:09:034,-1.0693,0.6071,13.905,26.0722,0.3929,-1.1168,-0.1916,-52.9176
16:57:09:054,-0.2281,-0.0392,13.8088,26.0671,0.6281,-1.6704,-0.3151,-53.0424
16:57:09:074,0.1349,0.0032,13.1664,26.0479,0.6175,-1.745,-0.543,-53.1539
16:57:09:094,0.1391,0.606,12.1659,26.381,0.428,-1.3702,-0.7016,-53.2452
16:57:09:114,0.1235,0.8804,10.636,26.5637,0.2342,-0.7516,-0.8272,-53.2452
16:57:09:134,-0.1424,0.8246,8.9626,26.5054,0.1118,-0.1437,-0.8837,-53.2452
16:57:09:154,-0.4833,0.8577,7.4617,26.5807,0.0415,0.2172,-0.8762,-53.2452
16:57:09:173,-0.8371,0.9409,6.4499,26.2379,0.0756,0.2055,-0.791,-53.2452
16:57:09:193,-0.9879,1.2335,5.4959,26.0188,0.1405,0.0415,-0.6494,-53.2452
16:57:09:215,-1.8879,1.3621,5.476,25.7521,0.3226,-0.2268,-0.4642,-53.2452
16:57:09:235,-2.5599,1.0472,5.5446,25.5031,0.6462,-0.8208,-0.1065,-53.1483
16:57:09:254,-1.8507,0.6625,5.539,25.4136,0.905,-1.3021,0.2385,-53.0514
16:57:09:274,-0.5193,0.7418,5.2502,25.2566,1.0125,-0.8379,0.444,-53.0514
16:57:09:295,0.5054,1.2637,5.5178,25.653,1.054,0.0905,0.4674,-53.0514
16:57:09:316,0.549,2.3535,6.4953,25.7073,1.004,0.3556,0.1352,-53.0514
16:57:09:333,-0.2669,3.442,7.2148,25.6645,0.6622,0.2459,-0.2938,-53.0514
16:57:09:353,-0.9843,4.001,8.1146,25.6964,0.2012,0.1182,-0.4684,-53.0514
16:57:09:376,-0.5136,3.8623,9.2324,25.8671,-0.2183,-0.0756,-0.412,-53.0514
16:57:09:399,0.1885,3.4904,11.1128,25.7804,-0.725,-0.0106,-0.4578,-53.0514
16:57:09:413,-0.1725,3.1482,13.2127,25.8335,-1.1711,0.4482,-0.5568,-53.0514
16:57:09:433,-1.3166,2.6396,14.9092,25.8304,-0.7719,1.4479,-0.4557,-52.9343
16:57:09:453,-2.554,2.647,14.8308,26.3848,0.0543,1.7673,-0.164,-52.7912
16:57:09:473,-3.1457,2.1004,13.9604,26.8879,0.3758,0.8336,-0.0926,-52.643
16:57:09:493,-3.2487,1.6148,13.0481,27.2235,0.1075,-0.3886,-0.1384,-52.5066
16:57:09:516,-2.6324,1.0164,12.825,27.4327,-0.2076,-0.7293,-0.1086,-52.3781
16:57:09:535,-1.8755,0.1986,12.3669,27.2586,-0.4599,-0.3801,-0.1086,-52.2502
16:57:09:555,-1.1701,-0.1045,11.3729,26.9474,-0.6452,0.2012,-0.1171,-52.1194
16:57:09:574,-1.2181,0.0498,9.9569,26.5415,-0.7016,0.8932,-0.1139,-51.9836
16:57:09:593,-1.912,0.3575,8.4685,26.2102,-0.4802,1.1999,-0.0319,-51.8432
16:57:09:616,-2.2614,0.5557,6.8695,26.0955,-0.1299,1.0327,0.2523,-51.7031
16:57:09:633,-2.034,0.5373,5.5156,25.9025,0.1821,0.4993,0.6399,-51.5744
16:57:09:653,-1.4679,0.6268,4.7511,25.4898,0.4163,-0.2268,0.9571,-51.4719
16:57:09:673,-0.794,0.8732,4.0759,25.806,0.6281,-0.7655,1.087,-51.4719
16:57:09:693,-0.4931,1.127,3.6382,26.0128,0.724,-1.1147,0.9848,-51.4719
16:57:09:714,-0.8221,1.577,4.1538,26.0733,0.5728,-1.2701,0.8315,-51.4719
16:57:09:733,-0.6593,1.624,5.3516,26.7033,0.1735,-1.0838,0.6143,-51.4719
16:57:09:753,-0.1205,1.3041,7.7208,27.0004,-0.3865,-0.8507,0.2768,-51.4719
16:57:09:779,-0.1884,1.1117,10.1887,26.789,-0.6196,-0.4322,-0.1267,-51.4719
16:57:09:794,-0.623,1.1337,11.4908,26.7585,-0.4365,0.1618,-0.4024,-51.4719
16:57:09:814,-0.5859,0.1607,11.5821,26.8986,-0.2566,0.8592,-0.4887,-51.4719
16:57:09:833,-0.8035,0.3583,11.4813,26.7186,-0.3737,1.087,-0.4887,-51.4719
16:57:09:853,-1.503,1.8988,11.793,26.6066,-0.6015,1.0742,-0.461,-51.4719
16:57:09:875,-1.9157,3.1317,12.2525,26.4889,-0.6143,1.1647,-0.2992,-51.4719
16:57:09:894,-1.4324,2.7508,12.9315,26.0442,-0.6537,1.4128,-0.0937,-51.4719
16:57:09:914,-0.987,1.5265,14.0959,25.638,-0.7101,1.367,-0.0256,-51.4719
16:57:09:933,-1.1615,1.0714,15.2295,25.5386,-0.3375,0.8581,-0.0085,-51.4719
16:57:09:953,-0.8787,0.3087,14.6199,25.4414,0.1948,0.0852,0.083,-51.4719
16:57:09:974,-0.232,0.1426,13.0558,25.5486,0.1618,-0.6835,0.0745,-51.4719
16:57:09:993,0.2719,0.6037,11.9018,25.8971,-0.0649,-1.1413,0.0234,-51.4719
16:57:10:015,0.5811,0.9329,10.9231,26.105,0.0202,-1.1296,-0.0926,-51.4719
16:57:10:033,0.6256,1.2948,9.6708,26.7523,0.3577,-1.071,-0.3002,-51.4719
16:57:10:053,0.5363,1.3535,7.8101,27.0959,0.7282,-1.1732,-0.5845,-51.4719
16:57:10:075,0.1416,1,6.1887,27.3111,0.9071,-1.1328,-0.642,-51.4719
16:57:10:095,-0.1444,1.0937,5.167,27.3985,0.9518,-0.7005,-0.659,-51.4719
16:57:10:114,-0.0151,0.258,4.7186,27.2749,0.7634,-0.444,-0.5834,-51.4719
16:57:10:133,-0.3358,0.7958,4.6395,27.0117,0.6239,-0.28,-0.5015,-51.3697
16:57:10:153,-0.5797,1.306,4.418,26.7615,0.7005,-0.0767,-0.3737,-51.2517
16:57:10:174,-0.6393,1.2815,4.2055,26.7175,0.5717,-0.2608,-0.3396,-51.1232
16:57:10:194,-0.6792,1.0657,4.3695,26.7974,0.1491,-0.5877,-0.3396,-50.9928
16:57:10:214,-0.7213,1.3497,4.7459,26.6778,-0.411,-0.6079,-0.3226,-50.8591
16:57:10:233,-0.9126,2.207,6.8611,26.9993,-1.2116,-0.5483,-0.3801,-50.7189
16:57:10:275,-1.2813,2.601,8.8627,27.1225,-1.5895,-0.3897,-0.4631,-50.5746
16:57:10:277,-1.7129,2.5004,11.1102,26.9471,-1.4075,0.511,-0.3599,-50.4063
16:57:10:293,-2.2166,1.286,12.6333,27.3392,-1.1754,0.5802,-0.0468,-50.2211
16:57:10:313,-2.2053,0.917,13.8877,27.5473,-1.1541,0.4621,0.363,-50.0339
16:57:10:333,-1.9467,1.4349,15.2154,27.6598,-1.1189,0.2928,0.7655,-49.8609
16:57:10:353,-1.3311,1.7943,16.0656,27.6781,-0.6707,0.1373,0.9731,-49.714
16:57:10:373,-0.7874,1.9034,15.8414,28.0493,-0.0181,-0.263,0.9018,-49.6009
16:57:10:393,-0.3219,1.3881,14.3969,28.0052,0.4802,-0.4748,0.7059,-49.6009
16:57:10:413,-0.2895,1.0413,12.7635,28.4413,0.5153,-0.4653,0.3662,-49.6009
16:57:10:433,-0.8253,0.8483,12.2018,28.3371,0.099,-0.6388,0.0319,-49.6009
16:57:10:453,-0.8995,-0.0602,12.603,28.1683,-0.2885,-0.6963,-0.1703,-49.6009
16:57:10:473,-0.6497,-0.9802,12.5797,27.895,-0.3428,-0.5323,-0.3034,-49.6009
16:57:10:493,-0.5941,-1.2839,11.5075,27.7637,-0.148,-0.0468,-0.3332,-49.6009
16:57:10:514,-0.8282,-0.9591,9.662,27.2564,0.1043,0.6867,-0.1916,-49.6009
16:57:10:533,-0.9187,-0.5461,7.6303,27.2838,0.3322,1.2893,0.0373,-49.6009
16:57:10:553,-0.8655,-0.3239,5.9359,27.1702,0.5557,1.5555,0.2672,-49.6009
16:57:10:575,-0.6426,-0.2216,4.6387,27.0244,0.774,1.4373,0.4344,-49.6009
16:57:10:593,-0.6288,-0.1767,3.6631,27.2243,0.9731,1.1296,0.5941,-49.6009
16:57:10:615,-0.6299,0.1757,3.4155,27.5787,1.0519,0.7346,0.7634,-49.6009
16:57:10:633,-0.5968,0.7271,3.651,28.0483,0.9678,0.164,0.8134,-49.6009
16:57:10:654,-0.4344,1.5316,4.1337,28.5199,0.7005,-0.7091,0.5909,-49.6009
16:57:10:673,-0.3005,1.4036,5.3435,29.0854,0.2811,-1.5618,0.1916,-49.6009
16:57:10:693,-0.7014,0.7972,6.9331,29.247,-0.1405,-1.9409,0.0224,-49.6009
16:57:10:714,-0.7308,0.4531,8.5118,29.123,-0.5579,-1.6321,0.1363,-49.6009
16:57:10:734,-0.0447,0.7873,10.1886,29.309,-1.1072,-1.3053,0.2534,-49.6009
16:57:10:754,1.0794,1.0434,12.2581,28.7778,-1.712,-0.8102,0.0575,-49.6009
16:57:10:773,1.2942,1.0444,14.3021,28.5863,-1.9164,0.1565,-0.2747,-49.6009
16:57:10:793,0.9308,0.787,15.7076,27.8835,-1.8387,0.9199,-0.6218,-49.6009
16:57:10:816,0.3605,0.0708,16.9256,27.2659,-1.5448,1.1158,-0.8538,-49.6009
16:57:10:836,-0.6713,-0.1051,17.4083,26.6099,-0.9412,1.1307,-0.8794,-49.6009
16:57:10:853,-1.4481,-0.164,17.1066,26.1764,-0.2821,1.0838,-0.6058,-49.6009
16:57:10:873,-1.1031,-0.4991,15.9933,25.9328,0.2534,0.4493,-0.1778,-49.6009
16:57:10:894,-0.0641,-1.0334,14.7424,26.0895,0.4408,-0.2545,0.115,-49.6009
16:57:10:914,0.6025,-0.5723,13.1987,26.7417,0.6122,-0.4908,0.2065,-49.6009
16:57:10:934,0.7157,0.0399,11.1718,27.0775,0.939,-0.2204,0.0979,-49.6009
16:57:10:953,0.467,0.4337,8.7237,27.7072,1.2712,0.1075,-0.0586,-49.6009
16:57:10:974,0.1705,0.512,6.4299,27.9448,1.5533,0.2821,-0.1118,-49.6009
16:57:10:993,0.0523,0.5717,4.5954,27.5627,1.6225,0.1821,-0.1097,-49.6009
16:57:11:014,0.1324,0.5884,3.4101,27.1128,1.5107,-0.0277,-0.1086,-49.6009
16:57:11:034,0.1711,0.7444,2.7948,26.6531,1.2669,-0.3066,-0.1533,-49.6009
16:57:11:054,0.2101,0.9805,2.7081,26.4062,0.9614,-0.5153,-0.1757,-49.6009
16:57:11:073,0.6096,0.8726,2.9178,26.354,0.5195,-0.7729,-0.264,-49.6009
16:57:11:094,0.6809,0.777,3.2484,26.5036,-0.2108,-1.1126,-0.4333,-49.6009
16:57:11:115,0.231,1.4243,4.4782,26.6621,-0.9848,-1.1786,-0.4993,-49.6009
16:57:11:133,0.06,1.8378,7.0652,26.6562,-1.3904,-1.0529,-0.4653,-49.5011
16:57:11:153,0.2397,1.502,9.4572,26.6515,-1.2286,-0.6228,-0.4014,-49.3809
16:57:11:173,0.3481,1.4981,10.6295,26.6813,-0.7623,0.2779,-0.2757,-49.2364
16:57:11:193,0.1063,1.9673,10.8888,26.7927,-0.5685,0.9518,-0.148,-49.0727
16:57:11:215,-0.0666,2.0041,11.4873,26.6191,-0.8155,0.823,-0.1384,-48.903
16:57:11:233,-0.1923,1.6042,13.1864,26.6802,-1.136,0.3045,-0.2342,-48.7369
16:57:11:253,-0.9064,1.2867,15.3903,26.2908,-0.8698,0.115,-0.1725,-48.5682
16:57:11:273,-1.6431,1.2891,16.0765,26.312,-0.0224,0.3162,0.2097,-48.3907
16:57:11:294,-1.579,0.7433,15.0712,26.5267,0.7197,0.2662,0.4099,-48.2162
16:57:11:313,-1.2952,-0.1256,13.4865,26.309,0.8677,-0.1618,0.2938,-48.0613
16:57:11:333,-1.4709,-0.3583,12.5101,26.3917,0.6739,-0.4365,0.1352,-47.9277
16:57:11:353,-1.8173,-0.1554,11.9977,26.8422,0.3556,-0.5334,0.0564,-47.8085
16:57:11:376,-1.7157,-0.5214,11.6913,26.8011,-0.0043,-0.5281,0.0202,-47.699
16:57:11:393,-1.223,-1.2688,11.4087,27.0845,-0.2757,-0.3758,-0.0075,-47.5949
16:57:11:414,-0.9409,-1.3987,10.6173,27.7356,-0.3865,-0.1746,-0.0862,-47.4928
16:57:11:433,-1.2183,-0.7851,9.1421,28.2175,-0.3109,0.2545,-0.0287,-47.3878
16:57:11:453,-1.4165,-0.382,7.5639,28.2684,-0.1086,0.6729,0.2183,-47.2787
16:57:11:474,-1.3854,-0.2837,6.1485,28.4504,0.1735,0.8986,0.5632,-47.1742
16:57:11:493,-1.0719,-0.3258,4.9855,28.4165,0.4791,0.8858,0.9071,-47.1742
16:57:11:514,-0.8193,-0.1529,4.1456,28.3428,0.7644,0.6846,1.1701,-47.1742
16:57:11:533,-0.5312,0.2496,3.7063,28.4156,0.9699,0.4408,1.2989,-47.1742
16:57:11:553,-0.2506,0.8197,3.3543,28.6764,0.8751,-0.0256,1.2212,-47.1742
16:57:11:575,0.1858,1.4257,3.8346,28.4529,0.3652,-0.5408,0.9954,-47.1742
16:57:11:594,0.7943,1.4237,5.5196,28.0861,-0.3375,-0.8262,0.6441,-47.2984
16:57:11:614,1.4412,0.8927,8.4789,27.983,-0.8964,-0.8283,0.1757,-47.4479
16:57:11:633,1.7728,0.0875,11.25,27.7547,-1.2031,-0.4184,-0.2917,-47.6013
16:57:11:653,1.6767,-0.4109,13.3987,27.462,-1.3851,0.5877,-0.6739,-47.7367
16:57:11:673,0.7485,-0.2699,14.7886,27.4255,-1.3798,1.8003,-0.8464,-47.8365
16:57:11:693,-0.5759,0.2403,15.3053,27.2776,-1.0412,2.5552,-0.8272,-47.8365
16:57:11:714,-1.6468,1.1208,14.4407,27.0998,-0.478,2.5104,-0.7399,-47.8365
16:57:11:734,-2.3754,1.7809,13.3275,26.686,-0.2459,1.7556,-0.6675,-47.8365
16:57:11:754,-2.6806,0.9777,13.8736,26.4574,-0.3875,0.363,-0.5877,-47.8365
16:57:11:775,-2.6278,-0.04,15.2602,26.6916,0.0777,-0.692,-0.1757,-47.8365
16:57:11:794,-1.676,-1.0225,14.7336,27.1542,0.8464,-1.2393,0.1714,-47.8365
16:57:11:814,-0.954,-1.3566,13.551,27.392,1.3798,-1.631,0.3194,-47.8365
16:57:11:834,-0.3595,-1.0083,12.2436,28.205,1.384,-2.0463,0.3503,-47.8365
16:57:11:854,0.0369,-0.3473,10.9182,28.9057,1.3297,-2.0516,0.3375,-47.8365
16:57:11:873,0.4101,0.0737,9.2664,29.118,1.3478,-1.6193,0.3066,-47.8365
16:57:11:894,0.5593,0.4098,7.5227,29.0957,1.35,-1.037,0.2789,-47.8365
16:57:11:914,0.5102,0.7165,5.9211,29.5078,1.2786,-0.5036,0.2779,-47.8365
16:57:11:935,0.478,1.1011,4.6932,29.3338,1.1072,-0.1416,0.247,-47.8365
16:57:11:954,0.5257,1.2731,3.931,28.9482,0.9422,0.0085,0.1544,-47.8365
16:57:11:974,0.5633,1.4683,3.4063,28.5042,0.7463,0.0106,0.0554,-47.8365
16:57:11:993,0.5556,2.0216,3.3306,27.9265,0.5164,-0.0117,-0.0511,-47.8365
16:57:12:014,0.5101,2.7303,3.663,27.3423,0.2161,-0.0256,-0.2023,-47.8365
16:57:12:033,0.5191,3.2242,4.4162,27.1286,-0.1757,-0.0894,-0.3716,-47.8365
16:57:12:053,0.543,3.4817,5.5855,26.7682,-0.5632,-0.0639,-0.5504,-47.8365
16:57:12:073,0.4339,3.7287,7.0682,26.8161,-0.8059,0.0894,-0.6963,-47.8365
16:57:12:093,-0.0112,3.8836,8.6379,26.7118,-1.0647,0.4078,-0.8326,-47.8365
16:57:12:114,-0.5885,3.4304,10.3112,26.4281,-1.2595,0.6239,-0.8656,-47.8365
16:57:12:133,-1.0834,2.4114,12.2476,26.4635,-1.5044,0.6218,-0.7037,-47.8365
16:57:12:154,-1.6276,1.9206,14.2236,26.436,-1.4916,0.3811,-0.3801,-47.7463
16:57:12:174,-1.6859,1.4871,15.597,26.6249,-1.1743,0.1469,-0.0128,-47.6396
16:57:12:193,-1.5607,0.91,15.4999,26.6209,-0.7378,-0.198,0.329,-47.528
16:57:12:214,-0.8,0.4592,15.1361,26.6051,-0.1427,-0.1182,0.6281,-47.4258
16:57:12:234,0.0258,-1.2165,14.8216,26.9737,0.5291,-0.3151,0.3577,-47.4258
16:57:12:253,-0.281,-1.1966,12.8679,27.1115,1.0135,-0.2002,0.0894,-47.4258
16:57:12:304,-0.8687,-0.5234,11.1417,27.0622,1.0721,-0.0213,0.1586,-47.4258
16:57:12:306,-1.0911,-0.0718,10.3772,26.9596,0.6271,-0.2885,0.1948,-47.4258
16:57:12:313,-0.6266,-0.0124,9.8805,27.0446,0.1129,-0.4557,0.1703,-47.4258
16:57:12:336,-0.0807,-0.4261,9.6621,26.7216,-0.2768,-0.4046,0.116,-47.4258
16:57:12:354,0.12,-0.5925,9.3165,26.4104,-0.461,-0.2832,0.0266,-47.4258
16:57:12:373,-0.1554,-0.2236,8.6349,26.3974,-0.3726,0.0128,0.0277,-47.4258
16:57:12:393,-0.4612,-0.0081,7.6714,26.1738,-0.1182,0.2726,0.1491,-47.4258
16:57:12:414,-0.5845,0.0926,6.4565,25.9544,0.1054,0.3205,0.3524,-47.4258
16:57:12:433,-0.3638,0.2095,5.5837,25.8259,0.264,0.231,0.5919,-47.4258
16:57:12:454,-0.2752,0.4125,5.1706,25.4743,0.3854,0.0607,0.7868,-47.4258
