Time,Acc_X,Acc_Y,Acc_Z,Meg,Gyr_X,Gyr_Y,Gyr_Z,Ore
16:58:43:523,-1.1016,1.8783,9.7113,38.5727,0.0671,-0.1086,0.2502,-63.8432
16:58:43:544,-1.0917,2.0049,9.7007,38.3837,0.1831,-0.0149,0.2183,-63.8432
16:58:43:563,-1.0739,2.0905,9.4406,38.248,0.2789,0.0405,0.2044,-63.8432
16:58:43:582,-1.0512,2.2173,9.1424,38.1212,0.3013,0.0415,0.1852,-63.8432
16:58:43:602,-1.1246,2.4175,8.9406,38.1564,0.2704,0.049,0.1672,-63.8432
16:58:43:622,-1.1051,2.4252,8.768,37.8351,0.214,0.0554,0.1725,-63.8432
16:58:43:643,-0.9449,2.4544,8.7588,37.9,0.1501,0.0564,0.1991,-63.8432
16:58:43:663,-0.773,2.5211,8.8477,37.9062,0.0937,0.0905,0.2097,-63.8432
16:58:43:682,-0.7252,2.4381,9.189,37.593,0.0532,0.0437,0.181,-63.8432
16:58:43:703,-0.9366,2.4177,9.8387,37.4813,0.0798,-0.0703,0.1501,-63.8432
16:58:43:722,-1.1268,2.3713,10.1492,37.511,0.2619,-0.1001,0.164,-63.8432
16:58:43:743,-1.1199,2.4256,10.0598,37.5237,0.3886,-0.1437,0.1991,-63.8432
16:58:43:763,-1.1037,2.7138,10.1494,37.1857,0.3258,-0.2257,0.2598,-63.8432
16:58:43:783,-0.9776,2.8788,10.5347,37.3006,0.2087,-0.2811,0.3226,-63.8432
16:58:43:802,-0.9327,3.1841,11.0518,37.0571,0.1938,-0.2768,0.3684,-63.8432
16:58:43:822,-0.7719,3.1136,11.2453,37.0829,0.3545,-0.1139,0.3939,-63.9378
16:58:43:843,-0.5986,2.8902,10.8764,36.9893,0.5866,0.1703,0.3801,-64.0375
16:58:43:863,-0.9812,2.5521,10.2751,36.985,0.7783,0.3918,0.346,-64.1407
16:58:43:882,-1.6812,2.5762,9.5581,36.6474,0.9113,0.4876,0.3343,-64.2461
16:58:43:903,-2.3553,2.7143,8.8075,36.4825,0.9145,0.4844,0.363,-64.3545
16:58:43:922,-2.2861,2.8532,8.4183,36.5683,0.625,0.0575,0.3087,-64.4715
16:58:43:943,-1.958,2.6151,8.8027,36.3306,0.1118,-0.4621,0.0979,-64.5981
16:58:43:963,-1.7101,2.1847,9.5331,36.2928,-0.2012,-0.4056,-0.0181,-64.7245
16:58:43:983,-1.4733,1.7096,9.9077,36.4587,-0.2672,-0.0532,-0.0202,-64.8457
16:58:44:003,-1.3591,1.3944,9.5404,36.3409,-0.2406,0.2438,-0.0011,-64.9622
16:58:44:024,-1.5432,1.4403,9.0127,36.2798,-0.3215,0.3396,0.0011,-65.077
16:58:44:043,-1.7359,1.5698,8.5223,36.3904,-0.5355,0.4163,0,-65.1918
16:58:44:063,-1.8095,1.4372,8.4313,36.2601,-0.7133,0.4024,0,-65.3089
16:58:44:082,-1.7938,1.2187,8.4678,36.2589,-0.7197,0.362,0.0362,-65.4285
16:58:44:102,-1.7669,1.2724,8.3545,36.1816,-0.5462,0.4472,0.1331,-65.5502
16:58:44:123,-1.729,1.4566,7.9491,36.175,-0.3013,0.5909,0.2491,-65.6755
16:58:44:142,-1.7731,1.623,7.4869,35.6371,-0.1011,0.5781,0.3066,-65.8073
16:58:44:163,-1.7561,1.6564,6.8565,35.5775,0.0415,0.5951,0.2906,-65.9455
16:58:44:183,-1.7985,1.7455,6.5142,35.5097,0.0575,0.5621,0.2268,-66.0888
16:58:44:202,-2.0131,1.9113,6.3813,35.4305,-0.0522,0.3971,0.1799,-66.2368
16:58:44:223,-2.3013,2.222,6.5983,35.4849,-0.2108,0.2151,0.2161,-66.3906
16:58:44:243,-2.061,2.2535,7.0072,35.6374,-0.363,0.0192,0.23,-66.5514
16:58:44:263,-1.9333,2.3436,7.6662,35.566,-0.4653,-0.1107,0.1554,-66.7199
16:58:44:283,-2.0395,2.6344,8.4579,35.258,-0.4961,-0.148,0.0756,-66.893
16:58:44:306,-2.3728,3.035,9.4258,34.986,-0.4844,-0.231,0.016,-67.0679
16:58:44:323,-2.7246,3.165,10.1119,35.0492,-0.3545,-0.2033,-0.0117,-67.2408
16:58:44:343,-2.9336,3.0103,10.4915,34.8261,-0.198,-0.1618,0.0053,-67.4098
16:58:44:363,-2.5915,2.7744,10.8913,34.7386,-0.2193,-0.3971,-0.0128,-67.5776
16:58:44:383,-1.9465,2.2778,12.0662,34.9324,-0.4461,-0.7218,-0.1512,-67.7444
16:58:44:404,-1.5416,1.6102,13.5415,34.8981,-0.5472,-0.5834,-0.2395,-67.9037
16:58:44:423,-1.3965,1.0611,14.4307,34.7385,-0.3641,-0.0692,-0.1725,-68.0493
16:58:44:443,-0.6673,0.0877,14.0138,34.777,-0.1288,0.428,-0.0873,-68.1848
16:58:44:463,-0.4545,-0.8706,13.4008,34.612,-0.0224,0.5685,-0.2587,-68.3117
16:58:44:483,-1.0334,-0.788,12.6848,34.5816,0.1714,0.51,-0.3247,-68.4239
16:58:44:504,-1.1271,-1.0626,11.6468,34.5064,0.4503,0.2268,-0.2087,-68.5203
16:58:44:523,-0.5875,-1.4668,10.4813,34.3778,0.5515,-0.1735,-0.1278,-68.5203
16:58:44:545,-0.2288,-1.1315,9.6008,34.5314,0.4322,-0.4131,-0.0426,-68.5203
16:58:44:563,-0.1942,-0.1255,8.9194,34.493,0.2289,-0.329,0.0639,-68.5203
16:58:44:582,-0.2065,0.7661,8.3025,34.2685,0.082,-0.1416,0.0745,-68.5203
16:58:44:603,-0.0537,1.1175,7.5696,34.0407,-0.0064,-0.0032,-0.0852,-68.5203
16:58:44:623,-0.3063,1.339,6.966,33.7146,-0.1043,0.0586,-0.3247,-68.5203
16:58:44:643,-0.697,1.3668,6.8584,33.3772,-0.1948,0.0628,-0.4738,-68.5203
16:58:44:663,-0.8292,1.0717,7.0204,33.3835,-0.1405,-0.0373,-0.477,-68.5203
16:58:44:683,-0.7745,0.717,7.2718,33.1753,0.0287,-0.1608,-0.4322,-68.5203
16:58:44:703,-0.7013,0.8402,7.8987,33.2625,0.2757,-0.445,-0.3481,-68.5203
16:58:44:723,-0.4409,0.9878,8.1594,32.9196,0.5621,-0.7421,-0.3205,-68.5203
16:58:44:743,-0.12,1.3048,8.4301,32.8523,0.7261,-0.9262,-0.4024,-68.5203
16:58:44:763,-0.275,1.7376,8.406,32.7855,0.7953,-0.7186,-0.5802,-68.5203
16:58:44:785,-0.4451,2.1012,8.4475,32.6949,0.7751,-0.3567,-0.6888,-68.5203
16:58:44:803,-0.5111,2.4244,8.3474,32.2505,0.5951,0.0181,-0.6601,-68.4272
16:58:44:823,-0.7166,2.945,8.5621,32.0126,0.247,0.2151,-0.5909,-68.3109
16:58:44:842,-1.0199,3.0754,9.334,31.838,0.1054,0.2119,-0.5547,-68.1785
16:58:44:863,-1.5397,3.1913,9.9318,31.7006,0.2662,-0.0053,-0.4972,-68.0307
16:58:44:885,-2.0043,3.66,9.8455,31.5402,0.3929,-0.3875,-0.3087,-67.8715
16:58:44:903,-1.8787,3.6668,10.0838,31.6021,0.2598,-0.6675,-0.1491,-67.7085
16:58:44:923,-1.6628,3.3107,10.9229,31.5179,-0.1448,-0.7484,-0.1001,-67.5478
16:58:44:943,-1.7392,2.8608,12.0318,31.3723,-0.444,-0.3577,-0.0053,-67.3894
16:58:44:963,-2.0242,2.4619,12.7237,31.4579,-0.4248,0.247,0.1565,-67.2355
16:58:44:984,-2.2996,1.7657,13.2106,31.1853,-0.2395,0.2214,0.164,-67.0936
16:58:45:003,-2.7689,1.2868,13.0732,31.3696,0.0586,-0.3471,0.1703,-66.965
16:58:45:023,-2.8102,0.7095,12.0897,30.9532,0.3833,-0.626,0.2715,-66.8466
16:58:45:043,-2.5124,0.2944,11.1795,30.9378,0.5526,-0.6867,0.3354,-66.7396
16:58:45:063,-2.2625,0.2381,10.2678,30.9928,0.477,-0.659,0.3375,-66.6455
16:58:45:084,-2.059,0.517,9.2211,30.7531,0.3002,-0.2683,0.4024,-66.6455
16:58:45:103,-1.6836,0.5494,8.0735,30.5815,0.1033,0.2395,0.4567,-66.6455
16:58:45:123,-0.9898,0.5946,7.0815,30.4052,-0.1586,0.5089,0.4951,-66.6455
16:58:45:143,-0.5574,0.8849,6.1909,30.5465,-0.3961,0.6622,0.4163,-66.6455
16:58:45:166,-0.4061,1.0972,5.432,30.3142,-0.6186,0.8251,0.2747,-66.6455
16:58:45:183,-0.5237,1.143,5.3545,30.4965,-0.7623,0.8805,0.1576,-66.6455
16:58:45:203,-0.6056,1.0751,5.4411,30.5896,-0.7846,0.8443,0.0735,-66.6455
16:58:45:223,-0.7396,1.2042,6.0886,30.6473,-0.6931,0.6154,-0.0043,-66.6455
16:58:45:243,-0.7812,1.3521,6.8705,30.5916,-0.6154,0.2055,-0.0958,-66.6455
16:58:45:266,-0.5316,1.2832,7.9337,30.7841,-0.5888,-0.3034,-0.2481,-66.6455
16:58:45:283,-0.2669,1.1802,8.9332,31.2434,-0.5696,-0.6196,-0.5281,-66.6455
16:58:45:303,-0.7024,1.4044,10.1234,31.3147,-0.5323,-0.4951,-0.857,-66.6455
16:58:45:323,-1.2812,0.9294,11.2087,31.4532,-0.3716,-0.1703,-0.9954,-66.6455
16:58:45:343,-2.0828,0.8017,11.4082,31.1344,-0.1107,0.4748,-0.8783,-66.6455
16:58:45:365,-2.6145,0.7502,11.5239,30.9321,0.1075,0.9252,-0.6963,-66.5404
16:58:45:383,-3.1745,0.703,11.9473,30.5891,0.1661,0.6079,-0.5909,-66.4149
16:58:45:403,-3.7492,0.9944,12.3819,30.2863,0.3481,0.0735,-0.3854,-66.2763
16:58:45:422,-4.0059,1.2326,12.441,30.4067,0.7527,-0.0916,-0.0383,-66.1268
16:58:45:443,-4.1224,1.6856,12.0875,30.2491,1.1434,-0.1256,0.3907,-65.9757
16:58:45:464,-3.5495,2.0834,11.5814,30.281,1.2201,-0.3513,0.6569,-65.8382
16:58:45:483,-2.8615,2.2247,11.3308,30.3534,0.9646,-0.7421,0.5504,-65.7231
16:58:45:503,-2.2554,1.902,11.1135,30.3502,0.824,-0.6143,0.4759,-65.6236
16:58:45:530,-1.8082,0.8923,10.4877,30.3123,0.658,-0.3854,0.4727,-65.6236
16:58:45:543,-1.3095,0.0538,9.8752,30.6464,0.2821,-0.5004,0.4706,-65.6236
16:58:45:564,-1.0555,-0.0516,9.4062,30.7471,-0.1959,-0.4834,0.5611,-65.6236
16:58:45:583,-1.0291,0.4346,8.9666,31.2364,-0.5664,-0.0575,0.7516,-65.6236
16:58:45:602,-1.0447,0.8566,8.4186,31.6475,-0.757,0.5366,0.8634,-65.6236
16:58:45:622,-1.2717,1.1714,7.821,31.591,-0.7442,0.9209,0.8815,-65.6236
16:58:45:645,-1.4605,1.2862,7.308,31.6083,-0.5536,0.8251,0.8592,-65.6236
16:58:45:663,-1.6156,1.092,7.1365,31.4522,-0.2938,0.4099,0.8251,-65.7243
16:58:45:683,-1.4924,1.2935,7.175,31.2254,-0.0554,-0.0011,0.7527,-65.8528
16:58:45:703,-1.1907,1.5667,7.1794,31.1023,0.0319,-0.1448,0.7548,-66.0042
16:58:45:723,-0.3892,1.5741,7.2049,30.8465,-0.0043,0.0202,0.6973,-66.1767
16:58:45:745,-0.1266,1.7084,7.4199,30.6887,-0.0756,0.1043,0.4706,-66.3666
16:58:45:764,-0.2787,1.6893,7.8693,30.6159,-0.1703,-0.1618,0.2374,-66.568
16:58:45:783,-0.593,1.1223,8.6732,30.301,-0.198,-0.5707,0.0468,-66.7734
16:58:45:803,-1.1477,1.0321,9.6688,30.233,-0.0053,-0.6675,0.0511,-66.9741
16:58:45:823,-1.7473,1.0435,9.891,30.2097,0.3535,-0.2853,0.2523,-67.1673
16:58:45:843,-1.9839,1.1683,9.6317,30.2617,0.544,0.083,0.5504,-67.3615
16:58:45:863,-1.7233,1.4041,9.7154,30.485,0.5025,0.1331,0.6654,-67.5689
16:58:45:883,-1.5628,1.9877,10.0548,30.4644,0.3684,0.0213,0.5643,-67.793
16:58:45:903,-1.6397,2.6935,10.5821,30.3218,0.0383,-0.1629,0.3897,-68.0312
16:58:45:922,-1.3875,2.2634,11.8802,30.1379,-0.5291,-0.5334,0.1927,-68.2804
16:58:45:943,-1.2679,1.2295,13.3768,30.2916,-0.7783,-0.3386,0.1352,-68.5306
16:58:45:963,-1.8143,1.262,13.2715,30.3509,-0.3119,0.6164,0.2704,-68.7727
16:58:45:983,-2.4988,1.9074,11.818,30.2896,0.1895,0.9337,0.4003,-69.0142
16:58:46:003,-2.3559,2.0536,10.2359,30.6674,0.2545,0.3183,0.5557,-69.2662
16:58:46:025,-1.4189,1.9247,9.3272,30.7614,0.1331,-0.1618,0.6675,-69.5347
16:58:46:043,-0.6484,1.9895,8.7733,30.8179,0.1011,-0.1448,0.6931,-69.8189
16:58:46:063,-0.2009,2.0972,8.0107,31.2132,0.2406,0.1629,0.7463,-70.1166
16:58:46:083,0.0865,2.2157,6.9609,31.1753,0.3801,0.2672,0.7197,-70.4296
16:58:46:103,0.3045,2.3791,6.1657,31.0539,0.4184,0.0532,0.5707,-70.7601
16:58:46:124,0.5337,2.0584,5.7741,31.1359,0.3205,-0.3066,0.3087,-71.0994
16:58:46:143,0.5775,1.5366,5.8755,31.0326,0.1299,-0.4727,0.0202,-71.4373
16:58:46:164,0.1363,1.0433,6.5386,31.2368,-0.0468,-0.4876,-0.2193,-71.764
16:58:46:183,-0.2695,0.3361,7.3672,31.4428,-0.115,-0.5153,-0.2662,-72.0722
16:58:46:203,-0.3296,-0.2196,8.3479,31.2988,-0.131,-0.6548,-0.197,-72.3643
16:58:46:223,-0.1498,-0.1767,9.3072,31.1607,-0.0681,-0.8177,-0.1938,-72.6402
16:58:46:246,-0.1436,0.3446,9.8631,31.0648,0.0426,-0.7272,-0.2172,-72.901
16:58:46:264,0.0509,0.6858,10.7689,30.8009,0.1043,-0.6239,-0.2513,-73.1437
16:58:46:283,0.2243,0.9026,11.5494,30.5807,0.2342,-0.5504,-0.2981,-73.3697
16:58:46:303,0.5424,1.1005,11.3525,30.6073,0.2395,-0.2875,-0.2832,-73.5766
16:58:46:323,0.7921,1.8458,11.0749,30.5253,-0.0937,0.0798,-0.2938,-73.7671
16:58:46:343,1.1803,2.303,11.3105,30.564,-0.7708,0.3407,-0.4429,-73.9428
16:58:46:363,1.8296,1.3678,12.5855,30.52,-1.5086,0.3705,-0.6367,-74.1004
16:58:46:383,2.0981,0.1387,14.0979,30.1595,-1.6108,0.6867,-0.7548,-74.2299
16:58:46:403,1.8382,-0.3731,14.3713,30.1127,-1.1168,0.7868,-0.7729,-74.3272
16:58:46:423,1.4809,-0.3467,12.9923,30.3965,-0.6356,0.7474,-0.6452,-74.3272
16:58:46:443,1.0432,-0.0601,10.9862,30.4411,-0.6196,0.5334,-0.3854,-74.3272
16:58:46:463,1.0918,0.5392,9.3937,30.7878,-0.7005,0.7218,-0.1799,-74.3272
16:58:46:483,1.0291,0.9452,8.8241,30.9628,-0.4599,1.037,-0.2502,-74.3272
16:58:46:504,0.8532,1.4857,7.5826,30.8587,-0.1842,1.0167,-0.4056,-74.3272
16:58:46:523,0.8298,1.9817,6.6984,30.8791,0.0053,0.8464,-0.5643,-74.3272
16:58:46:543,0.8493,2.3958,6.3536,30.8358,0.1565,0.6324,-0.6942,-74.3272
16:58:46:563,1.0367,2.4237,5.9929,31.0152,0.3918,0.6526,-0.7123,-74.3272
16:58:46:583,1.3195,2.214,5.5419,31.0098,0.4812,0.543,-0.8613,-74.3272
16:58:46:603,1.285,2.1808,5.5794,31.1171,0.3311,0.2491,-1.1828,-74.2278
16:58:46:623,0.747,1.9585,6.2928,31.4376,0.0096,-0.2598,-1.4437,-74.0912
16:58:46:643,0.2102,1.5073,7.879,31.4226,-0.2566,-0.6516,-1.5086,-73.9129
16:58:46:663,-0.1162,1.2023,9.3152,31.6893,-0.2906,-0.6995,-1.4149,-73.6915
16:58:46:682,-0.305,0.8433,10.3444,31.7528,-0.3056,-0.2885,-1.1786,-73.4305
16:58:46:703,-0.8152,1.2967,11.5522,31.6045,-0.4578,0.1895,-0.922,-73.1404
16:58:46:723,-1.5577,2.2266,13.1853,31.6377,-0.3843,0.2683,-0.7186,-72.8319
16:58:46:743,-1.919,2.2934,14.1174,31.921,-0.0138,0.0373,-0.5057,-72.5113
16:58:46:763,-1.9865,2.2084,14.0573,31.9232,0.3737,-0.1118,-0.3056,-72.1826
16:58:46:783,-1.9059,1.9803,13.8129,32.1057,0.4876,0.0309,-0.1086,-71.8508
16:58:46:803,-2.0223,1.9598,13.8981,32.2787,0.3875,0.1554,-0.0405,-71.5227
16:58:46:823,-2.1314,1.1357,14.2164,32.3638,0.2992,0.0021,-0.0852,-71.2016
16:58:46:843,-2.433,0.1225,14.2478,32.5039,0.6239,-0.2651,-0.115,-70.8842
16:58:46:863,-2.8855,-0.1305,12.8295,32.4845,1.0146,-0.5313,-0.1224,-70.5664
16:58:46:884,-2.8728,-0.5498,11.1765,32.2178,0.9262,-0.7101,-0.1033,-70.2487
16:58:46:903,-2.3856,-1.2146,10.3276,32.2792,0.51,-0.889,-0.1288,-69.935
16:58:46:923,-2.0641,-1.3615,9.5902,32.3531,0.1278,-0.8166,-0.1352,-69.6255
16:58:46:943,-1.806,-1.3282,8.6918,32.3084,-0.0809,-0.5494,-0.0617,-69.3202
16:58:46:964,-1.4218,-1.2324,7.4828,32.1584,-0.1416,-0.2108,0.1118,-69.022
16:58:46:984,-1.0478,-0.6107,6.4683,32.1462,-0.0788,0.0554,0.3045,-68.7372
16:58:47:003,-0.5442,0.1125,5.4383,31.6625,-0.0096,0.2012,0.4344,-68.4719
16:58:47:023,-0.0225,0.5492,4.6795,31.1437,-0.1256,0.2587,0.461,-68.2322
16:58:47:043,0.4144,0.8827,4.5958,30.848,-0.3439,0.2491,0.5206,-68.0164
16:58:47:063,0.4612,1.3459,4.7778,30.6244,-0.4972,0.2608,0.5824,-67.8297
16:58:47:083,0.3781,2.0474,5.2047,30.4571,-0.5973,0.2811,0.4248,-67.6702
16:58:47:103,0.4863,2.0805,6.6454,30.699,-0.8219,-0.0075,-0.0415,-67.533
16:58:47:123,-0.0496,0.9531,8.855,30.8196,-0.7304,-0.4621,-0.6271,-67.3974
16:58:47:143,-1.19,0.1383,10.5908,30.9711,-0.1852,-0.7602,-0.8773,-67.2424
16:58:47:166,-2.1729,-0.5581,11.1694,31.1336,0.4216,-0.8507,-0.708,-67.0638
16:58:47:183,-2.4179,-0.3094,11.049,30.9274,0.6516,-0.5994,-0.3386,-66.8649
16:58:47:204,-1.8864,0.3542,11.4572,30.7267,0.5398,-0.2821,-0.0735,-66.6596
16:58:47:223,-1.245,0.6943,12.1136,30.3381,0.4589,0.0287,-0.0202,-66.456
16:58:47:243,-1.1861,1.097,12.3107,30.038,0.5089,0.3066,0.0224,-66.2541
16:58:47:265,-1.0938,1.6256,12.3842,29.9815,0.4333,0.2097,0.1661,-66.0595
16:58:47:283,-0.055,1.5,12.8896,29.8006,0.1533,-0.2885,0.2278,-65.8808
16:58:47:303,1.0562,0.7096,13.5802,29.6425,-0.1533,-0.8975,0.0362,-65.7191
16:58:47:323,1.559,0.2093,13.9804,29.7808,-0.214,-1.0838,-0.1586,-65.5637
16:58:47:343,1.8447,0.04,13.7804,29.8323,-0.1895,-0.9188,-0.3141,-65.4053
16:58:47:364,1.9227,-0.2395,12.6432,29.9286,-0.2129,-0.643,-0.3875,-65.2385
16:58:47:383,1.6964,-0.2664,10.9847,29.9923,-0.297,-0.1075,-0.3705,-65.0609
16:58:47:403,1.1657,-0.0572,9.2169,30.1711,-0.3173,0.4929,-0.3024,-64.8734
16:58:47:423,0.6,0.209,7.798,30.4755,-0.1608,0.8421,-0.247,-64.6791
16:58:47:443,0.2428,0.4222,6.6185,30.7516,0.1011,0.8219,-0.1842,-64.4816
16:58:47:463,0.1547,0.5131,5.6064,30.7084,0.4951,0.5259,-0.0468,-64.2837
16:58:47:485,0.4898,0.7494,4.6618,30.6193,0.7783,0.083,0.1746,-64.0916
16:58:47:503,1.1283,1.0847,4.061,30.4529,0.8443,-0.1086,0.2779,-63.9112
16:58:47:523,1.2133,1.653,4.1798,30.0756,0.692,0.0351,0.0554,-63.742
16:58:47:553,0.6014,2.1136,4.7377,29.6342,0.444,0.0841,-0.2981,-63.5753
16:58:47:564,0.1509,1.9542,5.7267,29.1594,0.1256,-0.2044,-0.5387,-63.4034
16:58:47:583,-0.4317,1.432,7.1292,28.9097,-0.2481,-0.5004,-0.7463,-63.2196
16:58:47:603,-1.476,1.3267,8.7246,28.8778,-0.5078,-0.4227,-0.7229,-63.0165
16:58:47:622,-2.3399,1.6315,10.017,28.6167,-0.6079,0.0075,-0.4056,-62.7936
16:58:47:645,-2.4159,1.4731,10.7787,28.9252,-0.6026,0.411,-0.017,-62.5681
16:58:47:663,-2.0522,1.1409,11.4355,28.9677,-0.5877,0.4322,0.1256,-62.3524
16:58:47:683,-2.0361,1.0722,12.0174,29.1233,-0.6399,0.231,0.1118,-62.1511
16:58:47:703,-2.3648,0.6948,13.0064,28.9151,-0.7176,-0.0373,0.1735,-61.9641
16:58:47:723,-2.5069,0.3077,13.8234,28.7794,-0.609,0.0681,0.4642,-61.7919
16:58:47:745,-2.3058,0.3148,13.7506,28.8152,-0.2417,0.6303,0.7197,-61.64
16:58:47:763,-2.0909,0.4881,12.613,28.6142,0.0128,0.8262,0.7186,-61.516
16:58:47:783,-1.8855,-0.0761,11.9036,28.5116,-0.1437,0.7059,0.5217,-61.421
16:58:47:803,-2.1964,-0.6143,11.8624,28.9203,-0.0043,0.1874,0.3215,-61.421
16:58:47:823,-2.0489,-0.827,10.9897,29.095,0.0916,-0.4259,0.2832,-61.421
16:58:47:843,-1.5491,-0.9039,10.6154,29.3405,-0.1001,-0.8358,0.1948,-61.421
16:58:47:863,-0.8627,-1.1944,10.4099,29.828,-0.3396,-1.0008,0.1842,-61.421
16:58:47:883,-0.226,-1.2352,10.2407,30.1702,-0.4621,-0.8219,0.2172,-61.421
16:58:47:903,0.2422,-1.0517,9.7089,30.6632,-0.412,-0.4429,0.2385,-61.421
16:58:47:923,0.2664,-0.5938,8.7071,30.7155,-0.3279,-0.0192,0.2683,-61.421
16:58:47:943,0.1255,-0.1195,7.777,30.7809,-0.247,0.4503,0.3545,-61.421
16:58:47:964,-0.0033,-0.0258,6.9475,30.6055,-0.1661,0.8368,0.4642,-61.421
16:58:47:983,-0.1354,0.0115,6.5043,30.791,0.0032,0.9624,0.5866,-61.421
16:58:48:003,-0.2011,0.1984,6.1453,30.525,0.2502,0.8496,0.6601,-61.421
16:58:48:025,-0.2501,0.6996,6.0847,30.682,0.264,0.4759,0.5345,-61.421
16:58:48:043,-0.3245,0.9494,6.7687,30.7998,0.0234,-0.0415,0.247,-61.421
16:58:48:064,-0.1536,0.251,7.8449,30.9221,-0.1192,-0.33,-0.0596,-61.421
16:58:48:083,-0.1837,-0.4303,8.8096,30.8766,-0.1682,-0.214,-0.3843,-61.421
16:58:48:103,-0.8287,-0.5896,9.6604,30.7213,-0.132,0.1821,-0.5643,-61.421
16:58:48:124,-1.3527,-0.835,10.0956,30.807,-0.0873,0.5877,-0.5185,-61.421
16:58:48:143,-1.6778,-0.881,10.6874,30.8459,-0.2608,0.7623,-0.3609,-61.421
16:58:48:163,-1.6841,-0.1978,12.0314,30.9259,-0.5025,0.5824,-0.1703,-61.421
16:58:48:183,-1.2819,0.2026,13.3501,30.8698,-0.4152,0.4237,-0.0617,-61.421
16:58:48:203,-0.9016,0.4942,13.8574,30.6154,-0.115,0.3439,-0.1384,-61.421
16:58:48:224,-1.24,1.1448,13.7665,30.5058,0.1831,0.3343,-0.2811,-61.421
16:58:48:243,-1.5203,1.0059,13.2245,30.3979,0.28,0.0926,-0.3322,-61.421
16:58:48:263,-1.3891,-0.258,13.0248,30.371,0.28,-0.2566,-0.313,-61.421
16:58:48:283,-1.2926,-1.2409,12.5382,30.744,0.5866,-0.4088,-0.1512,-61.421
16:58:48:303,-1.2005,-1.343,11.3648,31.2073,0.9891,-0.5685,0.0298,-61.421
16:58:48:323,-0.7517,-1.0967,10.102,31.455,1.1424,-0.8123,0.1576,-61.421
16:58:48:343,-0.1826,-0.8142,9.1867,31.8437,0.8943,-1.0806,0.1299,-61.421
16:58:48:365,-0.0159,-0.1963,8.6751,32.3888,0.4248,-1.1945,0.0085,-61.421
16:58:48:382,0.0423,0.2029,8.1926,32.8121,0.0724,-0.8837,-0.0809,-61.421
16:58:48:403,-0.0477,0.6067,7.6868,32.7506,-0.05,-0.2949,-0.1884,-61.421
16:58:48:423,-0.2922,0.9293,6.9794,32.5919,-0.1097,0.1682,-0.2214,-61.421
16:58:48:443,-0.2314,1.1271,6.5568,32.0845,-0.1214,0.3556,-0.1544,-61.421
16:58:48:463,0.0583,1.2186,6.1373,31.3676,-0.1512,0.4259,-0.1757,-61.421
16:58:48:483,-0.0221,1.3048,6.297,30.8229,-0.1948,0.379,-0.2694,-61.421
16:58:48:504,-0.2705,1.3273,6.8923,30.7688,-0.0735,0.1011,-0.2938,-61.421
16:58:48:523,-0.2265,1.3131,7.1535,30.6652,0.1565,-0.1278,-0.2502,-61.421
16:58:48:543,0.0917,1.1765,7.358,30.6486,0.1256,-0.3279,-0.2087,-61.421
16:58:48:563,0.3951,1.2565,8.2689,30.6246,-0.0767,-0.5238,-0.2502,-61.3271
16:58:48:583,0.0387,1.406,9.6886,30.427,-0.1693,-0.428,-0.3215,-61.227
16:58:48:604,-0.5698,1.3417,10.9117,30.1909,-0.0256,-0.1874,-0.2694,-61.1173
16:58:48:625,-0.9297,1.2623,11.5033,30.3102,0.2406,-0.0437,-0.1118,-61.0006
16:58:48:643,-0.8505,1.4399,11.575,30.2694,0.428,-0.1203,0.0405,-60.8838
16:58:48:663,-0.7244,1.5115,11.6288,30.3491,0.2949,-0.1107,0.0671,-60.772
16:58:48:683,-0.7886,1.312,12.0778,30.2908,0.0607,-0.1001,0.0607,-60.6664
16:58:48:703,-1.085,1.2865,12.4281,30.3823,-0.0617,0.0394,0.1331,-60.5665
16:58:48:723,-1.3501,1.3759,12.4465,30.4246,-0.0149,0.2108,0.1895,-60.474
16:58:48:743,-1.2868,0.9374,12.0869,30.3648,0.0224,-0.1672,0.0575,-60.474
16:58:48:763,-1.4149,0.0671,11.9148,30.507,0.0756,-0.6803,-0.1331,-60.474
16:58:48:783,-1.7675,-0.5519,11.4888,30.5932,0.2545,-0.8517,-0.2065,-60.474
16:58:48:803,-2.0859,-0.7051,10.8386,31.4012,0.3886,-0.8602,-0.1267,-60.3815
16:58:48:823,-1.9331,-0.6774,10.278,31.9179,0.2896,-0.9092,0.1405,-60.2895
16:58:48:843,-1.1321,-0.6285,9.9176,32.4026,0.0522,-0.7964,0.4067,-60.2895
16:58:48:863,-0.1387,-0.6111,9.4944,32.9756,-0.1863,-0.4525,0.4876,-60.2895
16:58:48:884,0.3288,-0.481,8.9657,33.3987,-0.3556,0.1011,0.4078,-60.2895
16:58:48:903,0.3983,-0.4236,8.2482,33.5832,-0.445,0.6473,0.3045,-60.2895
16:58:48:923,0.1328,-0.3786,7.5299,33.7508,-0.4961,0.9699,0.2757,-60.2895
16:58:48:943,-0.0918,-0.2571,6.8766,34.3164,-0.4716,1.1072,0.3705,-60.2895
16:58:48:963,-0.3144,0.0643,6.1367,34.2064,-0.4163,1.2914,0.5227,-60.2895
16:58:48:984,-0.2721,0.388,5.4655,34.0287,-0.4727,1.5725,0.6047,-60.2895
16:58:49:003,-0.7364,0.7955,5.6377,34.2506,-0.8251,1.5065,0.4823,-60.2895
16:58:49:023,-1.2446,0.4614,7.1462,33.9826,-1.0423,1.0359,0.428,-60.2895
16:58:49:043,-1.2514,-0.5447,9.2069,33.9021,-0.6729,-0.0053,0.4344,-60.2895
16:58:49:063,-0.8694,-0.9715,10.2231,34.1809,0.0681,-0.8496,0.4322,-60.3837
16:58:49:084,-0.4505,-0.5585,10.2087,34.3826,0.4897,-1.0934,0.3705,-60.4876
16:58:49:103,-0.1678,-0.1013,10.0256,34.7112,0.4205,-0.7154,0.2481,-60.5974
16:58:49:123,0.017,0.0174,10.6962,34.5216,0.0234,-0.3907,0.1661,-60.7118
16:58:49:143,0.1291,0.126,12.4235,34.2856,-0.2896,-0.5078,0.0586,-60.8302
16:58:49:165,0.3795,0.2031,13.8771,33.9676,-0.1501,-0.8358,-0.0586,-60.9472
16:58:49:183,0.3919,0.156,14.2089,33.4766,0.2566,-0.7974,-0.2385,-61.0549
16:58:49:203,-0.1501,0.3548,13.5644,33.5943,0.5941,-0.5962,-0.3141,-61.1473
16:58:49:223,-0.349,0.3063,12.4768,33.4825,0.6377,-0.6207,-0.3109,-61.1473
16:58:49:243,-0.4467,0.1552,11.6352,33.6706,0.5557,-0.4525,-0.214,-61.1473
16:58:49:265,-0.4358,0.1613,11.0063,34.1553,0.5164,-0.1874,-0.0649,-61.1473
16:58:49:283,0.0476,-0.1019,10.3312,34.4757,0.4216,0.0053,0.0319,-61.1473
16:58:49:303,0.5221,-0.1779,9.9858,34.9782,0.0745,-0.049,-0.0053,-61.1473
16:58:49:323,0.6323,0.2569,9.9418,35.3896,-0.2821,0.0415,-0.0426,-61.1473
16:58:49:343,0.8813,0.3536,9.8327,36.0398,-0.4312,0.3556,-0.1352,-61.1473
16:58:49:365,0.8645,0.3702,9.2226,36.4739,-0.362,0.8326,-0.2694,-61.1473
16:58:49:384,0.4875,0.518,8.1816,36.6228,-0.1256,1.317,-0.3588,-61.1473
16:58:49:404,0.0959,0.6723,6.8956,36.874,0.1299,1.5523,-0.3961,-61.1473
16:58:49:423,-0.2041,0.8577,5.8761,36.929,0.2172,1.3723,-0.4141,-61.1473
16:58:49:443,-0.4835,1.0837,5.4963,36.9781,0.2598,0.8869,-0.3215,-61.1473
16:58:49:464,-0.4235,1.1958,5.8303,36.936,0.4322,0.2789,-0.1288,-61.1473
16:58:49:483,-0.0184,1.2781,5.8623,36.8343,0.609,-0.0948,-0.0245,-61.1473
16:58:49:503,0.0735,1.2972,6.2269,36.5679,0.5259,-0.2811,-0.0596,-61.1473
16:58:49:523,-0.3213,1.6729,7.2048,36.238,0.2364,-0.4812,-0.1011,-61.1473
16:58:49:543,-0.6649,1.5794,8.9004,36.2631,-0.0724,-0.7059,-0.0703,-61.1473
16:58:49:578,-0.8192,1.4286,10.3168,36.0967,-0.0426,-0.7878,0.016,-61.1473
16:58:49:587,-0.9279,1.5435,10.8372,36.0216,0.0617,-0.4727,0.131,-61.1473
16:58:49:602,-1.1342,1.6899,11.2161,35.8636,0.017,-0.0394,0.28,-61.1473
16:58:49:623,-1.4694,1.5931,11.8716,35.7142,-0.1405,0.0149,0.411,-61.1473
16:58:49:644,-1.5397,1.2637,12.8529,35.6323,-0.3056,-0.2353,0.5589,-61.1473
16:58:49:663,-1.4783,1.1323,14.133,35.2308,-0.2704,-0.4834,0.6867,-61.1473
16:58:49:683,-1.5136,1.4719,14.7112,35.3307,0.198,-0.3332,0.8368,-61.1473
16:58:49:703,-1.1452,1.2256,13.7934,35.4784,0.6643,-0.1661,0.906,-61.1473
16:58:49:723,-0.7585,0.4614,12.5413,35.6613,0.7697,-0.247,0.7357,-61.263
16:58:49:745,-1.0135,-0.0051,11.3114,35.8522,0.8208,-0.2513,0.5643,-61.3953
16:58:49:764,-1.4129,0.2974,9.773,35.944,0.6952,-0.1033,0.5238,-61.5422
16:58:49:783,-1.5428,0.5362,8.6827,36.0785,0.2619,0.0628,0.5068,-61.7041
16:58:49:803,-1.3442,0.4695,8.2403,36.2979,-0.3141,0.1288,0.4535,-61.8816
16:58:49:823,-0.9243,0.0717,8.0604,37.1358,-0.7942,0.2449,0.3673,-62.0723
16:58:49:844,-0.5836,-0.2963,7.6755,37.5726,-1.1488,0.5078,0.2374,-62.2697
16:58:49:864,-0.7517,-0.3683,7.0794,38.1352,-1.4053,0.8741,0.1352,-62.4695
16:58:49:883,-1.1765,-0.3091,6.7181,38.6145,-1.4564,1.0913,0.1916,-62.6699
16:58:49:903,-1.2808,-0.2571,6.6344,38.552,-1.2989,0.9305,0.4163,-62.8761
16:58:49:924,-1.0099,-0.236,6.8536,38.3826,-0.9678,0.6058,0.6335,-63.0966
16:58:49:943,-0.9267,-0.1693,7.5488,38.5635,-0.4674,0.3577,0.7357,-63.3348
16:58:49:964,-1.0364,-0.3233,8.6618,38.5256,0.1597,-0.5526,0.6484,-63.5885
16:58:49:983,-1.3548,-0.3338,9.6334,38.4877,0.9177,-2.3071,0.4184,-63.8551
16:58:50:003,-1.3526,0.0324,9.6354,38.6519,1.5044,-3.1237,0.3545,-63.8551
16:58:50:025,-0.6523,0.1287,9.1372,38.6799,1.5193,-2.371,0.543,-64.1378
16:58:50:043,0.3543,0.0819,8.9527,38.2283,0.9688,-0.7261,0.8922,-64.434
16:58:50:064,1.7026,0.4856,9.9651,37.9977,0.2161,0.5515,0.9891,-64.7554
16:58:50:083,2.4052,1.2748,11.2359,37.7063,-0.2885,1.0647,0.5217,-65.0994
16:58:50:103,1.939,1.7245,12.3368,37.3912,-0.3002,1.07,-0.0138,-65.4446
16:58:50:125,1.1012,1.6523,12.6099,37.3354,-0.1011,0.8475,-0.1501,-65.7765
16:58:50:143,0.6852,1.618,12.6435,37.2687,-0.0426,0.5824,-0.0639,-66.0946
16:58:50:163,0.9147,1.5334,12.8209,37.0782,-0.1672,0.5142,0.0053,-66.4028
16:58:50:183,1.5055,0.3963,13.31,36.7084,-0.3588,0.544,-0.1469,-66.7024
16:58:50:202,1.1523,-0.4392,13.3717,36.3661,-0.1129,0.5898,-0.313,-66.9845
16:58:50:224,0.3868,-0.6148,12.3232,36.134,0.362,0.5132,-0.2715,-67.2446
16:58:50:243,0.1104,-0.5866,10.6507,36.103,0.5536,0.2257,-0.1363,-67.4881
16:58:50:263,0.5739,-0.7637,9.3886,36.2571,0.2087,-0.0554,-0.0245,-67.7234
16:58:50:283,0.922,-0.1675,9.1692,36.3225,-0.2694,-0.1927,-0.049,-67.9544
16:58:50:303,0.9912,0.623,9.1209,36.9352,-0.4844,0.1097,-0.1682,-68.1764
16:58:50:324,0.9408,0.9236,8.4394,37.7217,-0.3833,0.5589,-0.3769,-68.3826
16:58:50:343,0.5564,1.0352,7.2027,38.3885,-0.2278,0.8847,-0.5781,-68.5662
16:58:50:363,0.1185,1.1039,6.0967,38.5252,-0.0671,0.9571,-0.6686,-68.7225
16:58:50:383,-0.0345,1.056,5.1622,39.0965,0.05,0.7101,-0.7186,-68.8512
16:58:50:406,-0.147,1.0793,4.6523,38.942,0.0617,0.264,-0.7974,-68.9521
16:58:50:423,-0.3543,1.0733,4.5714,38.682,-0.0106,-0.1576,-0.7421,-68.9521
16:58:50:443,-0.3541,1.1028,4.9829,38.5562,-0.0671,-0.5877,-0.6015,-68.9521
16:58:50:463,-0.1266,1.0862,5.6591,38.144,-0.2704,-0.9688,-0.5483,-68.9521
16:58:50:483,-0.0368,0.9432,7.19,37.8848,-0.577,-1.4245,-0.609,-68.9521
16:58:50:504,-0.1549,0.9118,9.4861,37.6992,-0.7548,-1.8227,-0.6558,-68.9521
16:58:50:523,-0.3767,1.0829,11.2432,37.729,-0.6005,-1.3276,-0.5536,-68.9521
16:58:50:543,-0.3022,1.0068,11.9951,37.5398,-0.4003,-0.3833,-0.3109,-68.9521
16:58:50:564,0.0751,0.7328,12.5876,36.9451,-0.3343,0.1672,-0.1842,-68.9521
16:58:50:583,-0.2166,0.712,13.7577,36.9881,-0.3513,-0.1256,-0.2832,-68.9521
16:58:50:604,-0.7785,0.4359,15.3164,36.9289,-0.0596,-0.6888,-0.2353,-68.9521
16:58:50:623,-1.0596,0.3673,15.8525,36.7952,0.642,-0.8751,0.0437,-68.9521
16:58:50:643,-0.779,0.6626,14.9135,37.0678,1.3276,-0.8059,0.412,-68.9521
16:58:50:664,0.2821,0.5114,13.1755,37.0017,1.515,-0.9848,0.5089,-68.9521
16:58:50:683,1.0953,-0.0654,12.1942,36.6919,1.285,-1.3404,0.2076,-68.9521
16:58:50:703,1.0895,-0.5259,11.9658,36.4695,1.0934,-1.3031,-0.0798,-68.9521
16:58:50:723,0.8548,-0.7747,11.2526,35.9897,0.9539,-0.7836,-0.1874,-68.9521
16:58:50:743,0.6168,-0.8919,10.1208,35.8378,0.6761,-0.0426,-0.1203,-68.9521
16:58:50:763,0.4503,-0.8353,9.1333,35.5047,0.2151,0.5941,0.0021,-68.9521
16:58:50:785,0.3269,-0.458,8.6246,35.3293,-0.2896,0.9124,0.1139,-68.9521
16:58:50:804,0.131,-0.0887,8.4138,35.2259,-0.5919,1.0647,0.1703,-68.9521
16:58:50:823,-0.1798,0.1313,8.1752,35.112,-0.5142,1.0838,0.2087,-68.9521
16:58:50:843,-0.5077,0.3189,7.4518,35.1162,-0.1874,0.9837,0.3322,-68.9521
16:58:50:864,-0.4517,0.4589,6.7528,35.4556,0.1235,0.7123,0.5089,-68.9521
16:58:50:886,-0.0487,0.7095,6.5398,35.6314,0.3183,0.3865,0.5951,-68.9521
16:58:50:903,0.1744,0.9247,6.6324,35.7466,0.5227,0.3386,0.5589,-68.9521
16:58:50:924,0.0516,1.1952,6.4927,35.7956,0.7229,0.4035,0.4791,-68.9521
16:58:50:943,0.1233,1.3905,6.2681,35.494,0.6611,0.4078,0.4024,-68.9521
16:58:50:963,0.2659,1.305,6.686,35.1705,0.2896,0.1437,0.2289,-68.9521
16:58:50:984,0.2399,1.1824,7.8569,34.8534,-0.1491,-0.1789,0.0713,-69.0498
16:58:51:003,0.0611,1.1392,9.3586,34.6144,-0.2033,-0.2843,0.0341,-69.1472
16:58:51:023,0.3143,1.3627,10.4667,34.5555,0.1182,-0.478,0.0788,-69.2423
16:58:51:043,1.3902,1.4365,10.2411,34.4561,0.1256,-0.3939,-0.016,-69.337
16:58:51:063,1.8321,1.7918,10.6929,34.4676,-0.329,0.0075,-0.3726,-69.337
16:58:51:085,1.264,2.214,12.2124,34.3186,-0.6846,0.3641,-0.5962,-69.337
16:58:51:103,0.5724,2.1221,13.2133,34.069,-0.5185,0.5685,-0.6633,-69.337
16:58:51:124,-0.0626,2.0749,12.9534,34.0355,-0.2491,0.7676,-0.625,-69.337
16:58:51:143,-0.258,1.2175,12.3792,33.6994,-0.3162,0.8879,-0.6037,-69.337
16:58:51:167,-0.7549,0.1665,12.6934,33.6513,-0.4152,0.9103,-0.5398,-69.337
16:58:51:183,-1.5218,-0.1645,12.7131,33.7276,-0.3513,0.8358,-0.3865,-69.337
16:58:51:203,-1.7147,-0.905,12.2231,33.8038,-0.3801,0.6761,-0.197,-69.337
16:58:51:223,-1.3793,-1.4736,11.3805,33.8673,-0.5249,0.6281,-0.0277,-69.337
16:58:51:243,-1.0634,-1.1895,10.3831,34.0685,-0.6803,0.7719,0.131,-69.337
16:58:51:266,-0.802,-0.461,9.4246,34.2958,-0.7442,0.857,0.313,-69.337
16:58:51:283,-0.2381,0.1982,8.6409,34.3393,-0.6537,0.7133,0.4397,-69.337
16:58:51:303,0.2204,0.7345,7.8554,34.5463,-0.3886,0.4472,0.4152,-69.337
16:58:51:323,0.5434,1.1168,7.1664,34.6257,-0.0852,-0.0032,0.297,-69.337
16:58:51:343,0.83,1.2471,6.734,34.6526,0.1767,-0.4834,0.1299,-69.337
16:58:51:365,1.0017,1.2012,6.2749,34.6281,0.3662,-0.6207,-0.0649,-69.337
16:58:51:383,0.9709,0.8356,6.0454,34.3312,0.4525,-0.5217,-0.2353,-69.337
16:58:51:403,0.7216,0.6352,5.8195,34.1899,0.3588,-0.3141,-0.3641,-69.337
16:58:51:423,0.218,0.8452,6.2431,33.9707,0.2119,-0.0277,-0.3801,-69.337
16:58:51:443,-0.1821,1.1975,6.8559,33.7154,0.0873,-0.0724,-0.3343,-69.337
16:58:51:465,-0.3893,1.6161,7.8655,33.6713,-0.0351,-0.3119,-0.2917,-69.337
16:58:51:483,-0.7206,1.726,9.3474,33.6367,-0.0532,-0.7314,-0.2981,-69.337
16:58:51:503,-0.9775,1.6424,10.7536,33.8771,-0.0224,-1.1008,-0.231,-69.337
16:58:51:523,-1.2433,1.4822,11.8706,33.8081,0.0128,-1.0199,-0.0916,-69.337
16:58:51:543,-1.4652,1.2545,12.707,33.6467,-0.0106,-0.6654,0.2129,-69.337
16:58:51:595,-1.0728,0.8934,13.539,33.4805,-0.2012,-0.2278,0.5749,-69.337
16:58:51:596,-0.3875,0.62,14.5558,33.2624,-0.2662,0.2704,0.8102,-69.337
16:58:51:604,-0.4183,1.1652,14.9726,33.1048,0.0767,0.7059,0.8581,-69.337
16:58:51:623,-0.5294,1.1906,14.1097,33.3034,0.4855,0.4482,0.6675,-69.337
16:58:51:645,-0.769,0.1621,12.9014,33.2914,0.6335,-0.1831,0.3652,-69.337
16:58:51:663,-1.3896,-0.3794,11.8605,33.6919,0.7761,-0.4706,0.1938,-69.337
16:58:51:683,-1.8219,-0.3651,10.6213,33.9971,0.9326,-0.3684,0.2523,-69.337
16:58:51:703,-1.6597,-0.2883,9.3551,34.1555,0.8017,-0.3407,0.3343,-69.337
16:58:51:723,-0.9477,-0.3954,8.5303,34.2879,0.362,-0.3907,0.3151,-69.337
16:58:51:745,0.0048,-0.7451,8.1815,34.274,-0.2385,-0.4205,0.1778,-69.4344
16:58:51:765,0.4334,-0.8785,7.9924,34.1315,-0.7868,-0.1895,0.0064,-69.5353
16:58:51:783,0.338,-0.6284,7.842,34.0857,-1.0476,0.3386,-0.0373,-69.6303
16:58:51:803,0.1609,-0.3801,7.51,34.1318,-0.988,0.8986,0.0394,-69.6303
16:58:51:823,0.1371,-0.3496,7.0569,34.0831,-0.6899,1.1743,0.198,-69.6303
16:58:51:844,0.2155,-0.1924,6.6443,33.9229,-0.2821,1.1882,0.3769,-69.7265
16:58:51:864,0.1649,0.4937,6.7966,33.8053,0.0873,1.0306,0.4333,-69.8323
16:58:51:883,0.0649,0.7789,7.0937,34.0873,0.4642,0.8688,0.4376,-69.9478
16:58:51:903,0.0611,0.8347,6.8627,34.071,0.6824,0.8634,0.3822,-70.0716
16:58:51:923,-0.189,1.3176,7.1027,34.0311,0.5121,0.4876,0.1778,-70.2037
16:58:51:943,-0.3634,1.2022,7.9569,34.2814,0.115,-0.0958,-0.0394,-70.3393
16:58:51:963,-0.5965,0.8374,9.4508,34.1808,-0.0969,-0.3662,-0.1501,-70.4706
16:58:51:983,-1.1019,1.0231,10.5313,34.0871,0.0373,-0.2683,-0.1384,-70.5917
16:58:52:003,-1.3156,1.0156,10.8481,34.3673,0.1384,-0.1352,0.0532,-70.7044
16:58:52:023,-1.0702,1.4596,11.4115,34.5202,-0.1022,-0.2406,0.1608,-70.8185
16:58:52:043,-0.7393,2.0977,12.6556,33.9592,-0.3588,-0.378,0.1022,-70.9373
16:58:52:064,-0.6793,2.3207,13.7461,33.7391,-0.2651,-0.296,0.0383,-71.0556
16:58:52:083,-0.6784,2.4183,13.6619,33.484,0.0085,-0.0735,0.0043,-71.1693
16:58:52:103,-0.1065,1.6251,13.1898,33.9859,-0.115,-0.148,-0.1054,-71.2803
16:58:52:125,0.2473,0.1816,13.6227,34.2754,-0.2204,-0.2364,-0.4195,-71.3832
16:58:52:143,-0.5022,-0.6609,13.489,34.8162,0.1948,-0.2502,-0.6132,-71.3832
16:58:52:163,-0.9849,-1.1558,12.213,35.2395,0.6069,-0.2576,-0.5589,-71.3832
16:58:52:183,-0.8517,-1.436,10.7879,35.5104,0.625,-0.3588,-0.3694,-71.3832
16:58:52:203,-0.5011,-1.0439,9.7506,35.802,0.3673,-0.3982,-0.2161,-71.3832
16:58:52:224,-0.3136,0.0421,8.9379,36.1474,0.1533,-0.1682,-0.1714,-71.3832
16:58:52:243,-0.1116,0.7337,7.9818,36.2166,0.0798,0.1011,-0.2811,-71.3832
16:58:52:263,-0.0916,0.9677,6.8889,36.2697,0.1139,0.3545,-0.4003,-71.3832
16:58:52:283,-0.0983,0.9864,5.9199,35.8374,0.0703,0.477,-0.51,-71.3832
16:58:52:303,-0.1794,1.0781,5.333,35.2895,-0.0468,0.5217,-0.6079,-71.3832
16:58:52:323,-0.5397,1.1209,5.2783,34.7811,-0.0703,0.4322,-0.6548,-71.3832
16:58:52:343,-0.7559,1.0437,5.2144,34.2669,-0.0256,0.1586,-0.625,-71.3832
16:58:52:363,-0.8953,1.1215,5.5464,33.8515,-0.0873,-0.2161,-0.5962,-71.2886
16:58:52:383,-0.8648,1.1356,6.5517,33.7781,-0.2055,-0.5834,-0.5078,-71.1797
16:58:52:403,-0.6666,1.2045,7.9404,33.3749,-0.2513,-0.8645,-0.4397,-71.0596
16:58:52:423,-0.5331,1.3481,8.8883,33.195,-0.2608,-0.7431,-0.3982,-70.927
16:58:52:444,-0.4071,1.4158,9.9126,33.1652,-0.2981,-0.3567,-0.3694,-70.785
16:58:52:464,-0.7619,1.5249,10.7152,32.7267,-0.2257,0.1767,-0.3311,-70.6322
16:58:52:483,-1.1928,1.5334,11.2101,32.2939,-0.1299,0.3737,-0.2065,-70.4724
16:58:52:506,-1.5535,1.5601,12.0161,32.4876,-0.0053,0.0607,-0.082,-70.3122
16:58:52:523,-1.7606,1.7506,12.6772,32.4452,0.1746,-0.3258,0.0575,-70.1558
16:58:52:543,-1.8139,1.7642,13.0027,32.3117,0.2236,-0.3481,0.264,-70.0073
16:58:52:564,-1.649,1.944,13.1902,32.4454,0.2736,0.0522,0.4738,-69.8718
16:58:52:583,-1.2001,1.7518,13.1176,32.492,0.3013,0.2193,0.494,-69.7583
16:58:52:605,-0.5445,0.5253,13.2302,32.317,0.198,-0.1948,0.2619,-69.6638
16:58:52:623,-0.7459,-0.2518,13.4375,32.3343,0.3098,-0.4855,0.0277,-69.6638
16:58:52:643,-1.3152,-0.2707,12.7474,32.6962,0.7453,-0.2087,0.0937,-69.6638
16:58:52:664,-1.3929,-0.0338,11.0725,32.9904,0.922,0.0607,0.2151,-69.6638
16:58:52:684,-1.371,0.4092,9.5344,33.7128,0.7293,0.3386,0.2151,-69.6638
16:58:52:704,-1.3803,0.706,8.3635,34.3642,0.3577,0.6484,0.1693,-69.6638
16:58:52:723,-1.5678,0.7714,7.6753,35.1996,-0.0564,0.8166,0.0735,-69.6638
16:58:52:743,-2.0283,0.7356,7.4024,35.8332,-0.2502,0.8996,0.0458,-69.6638
16:58:52:763,-2.4024,0.6427,6.8687,36.1589,-0.2257,0.8283,0.1831,-69.6638
16:58:52:784,-2.4329,0.6918,6.2886,36.4551,-0.1384,0.6888,0.4354,-69.6638
16:58:52:804,-2.1804,0.8266,5.8695,36.4225,-0.0234,0.5376,0.7154,-69.6638
16:58:52:823,-1.6051,0.9868,5.6041,36.2273,0.0958,0.4088,0.9124,-69.6638
16:58:52:843,-0.988,1.3619,5.9078,35.9434,0.1395,0.2917,0.8805,-69.6638
16:58:52:863,-0.5011,1.7131,6.2666,35.7882,0.0479,0.2715,0.6207,-69.6638
16:58:52:886,-0.6403,1.5762,6.8242,35.3406,-0.2225,0.3428,0.3066,-69.6638
16:58:52:903,-1.0668,1.5488,7.8371,35.1073,-0.3684,0.2768,0.1629,-69.6638
16:58:52:923,-1.2006,1.4669,8.7626,35.0272,-0.3322,0.2151,0.1054,-69.757
16:58:52:943,-1.3869,1.3486,9.9209,34.8909,-0.2406,-0.0117,0.0053,-69.8526
16:58:52:963,-1.6944,1.3849,10.8335,34.9706,-0.116,-0.3471,-0.0554,-69.9468
16:58:52:984,-1.8781,1.7477,11.1935,35.1001,-0.1725,-0.3066,-0.0671,-69.9468
16:58:53:003,-2.162,2.4155,11.7804,35.3218,-0.2917,0.0394,0.0362,-69.9468
16:58:53:023,-1.9229,2.3808,12.3314,35.5113,-0.3247,0.4046,0.1735,-70.0375
16:58:53:043,-1.8213,2.2107,12.5827,35.6038,-0.2289,0.6164,0.2726,-70.1323
16:58:53:063,-1.627,2.0562,12.5254,35.2276,-0.2257,0.5802,0.3481,-70.2358
16:58:53:085,-1.1294,1.3151,12.843,34.9044,-0.2023,0.2598,0.2843,-70.3506
16:58:53:103,-1.1562,0.9314,13.0002,34.1501,0.0234,-0.0245,0.1799,-70.4716
16:58:53:123,-1.1802,0.4674,12.3918,33.4468,0.247,-0.2002,0.1043,-70.5935
16:58:53:142,-0.9156,-0.2445,11.5744,32.8185,0.1927,-0.3567,0.0106,-70.7144
16:58:53:168,-0.7953,-0.3908,11.1787,32.0786,-0.0043,-0.3929,-0.0405,-70.832
16:58:53:183,-0.6612,-0.0636,10.6609,31.675,-0.0607,-0.1288,-0.0586,-70.944
16:58:53:203,-0.5935,0.2797,9.575,31.4433,0.0511,0.297,-0.0798,-71.048
16:58:53:223,-0.6103,0.6932,8.2406,31.5104,0.1672,0.5557,-0.0798,-71.1437
16:58:53:242,-0.5236,1.145,7.0358,32.1484,0.263,0.6239,-0.0979,-71.1437
16:58:53:266,-0.431,1.3224,6.2194,32.6353,0.3577,0.4589,-0.1927,-71.1437
16:58:53:283,-0.2628,1.344,5.7312,33.4333,0.5164,0.2374,-0.2811,-71.1437
16:58:53:304,-0.2914,1.4638,5.4313,34.1611,0.6782,0.0309,-0.362,-71.1437
16:58:53:323,-0.304,1.5273,5.154,34.4391,0.7123,-0.0958,-0.3737,-71.1437
16:58:53:343,-0.2779,1.6296,5.2322,34.5857,0.5078,-0.1789,-0.4322,-71.1437
16:58:53:365,-0.4728,1.7025,5.9448,34.6744,0.2076,-0.2183,-0.5153,-71.1437
16:58:53:383,-0.9032,2.0173,7.2635,34.4822,-0.0319,-0.3992,-0.5068,-71.1437
16:58:53:403,-1.254,2.4058,8.489,34.0859,-0.0596,-0.5068,-0.4291,-71.1437
16:58:53:423,-1.6255,2.3108,9.2739,33.9302,-0.0873,-0.1693,-0.2662,-71.1437
16:58:53:444,-2.3851,2.6047,10.0077,33.8484,-0.1661,0.2246,-0.0692,-71.1437
16:58:53:464,-2.9129,3.1371,10.6999,33.6488,-0.3716,0.346,0.1384,-71.1437
16:58:53:483,-2.7873,2.9825,11.7835,33.9247,-0.6132,0.2928,0.2427,-71.1437
16:58:53:503,-3.0566,2.6248,13.0948,34.0274,-0.6175,0.2012,0.2864,-71.1437
16:58:53:523,-3.6916,2.5271,13.777,33.9757,-0.2395,0.1427,0.4056,-71.1437
16:58:53:543,-3.9212,2.2131,13.1903,33.804,0.2012,-0.0319,0.543,-71.1437
16:58:53:564,-3.5414,1.3028,12.3425,33.7931,0.2843,-0.4567,0.4961,-71.1437
16:58:53:597,-3.3798,0.5411,11.9903,33.7619,0.2459,-0.7367,0.3865,-71.1437
16:58:53:606,-3.2853,0.1721,11.6672,34.1482,0.2204,-0.6175,0.3258,-71.1437
16:58:53:623,-3.1486,0.1391,11.0405,34.3034,0.165,-0.2108,0.3024,-71.1437
16:58:53:643,-2.7626,0.2678,10.2758,34.5031,0.0767,0.1533,0.2832,-71.1437
16:58:53:664,-2.3152,0.5725,9.4557,34.5849,-0.082,0.3034,0.2108,-71.1437
16:58:53:683,-1.9474,0.7942,8.733,34.3394,-0.2278,0.4301,0.0969,-71.1437
16:58:53:705,-1.8148,0.9833,8.0621,34.1705,-0.2885,0.6079,0.0245,-71.1437
16:58:53:723,-1.6784,0.9937,7.4233,34.0341,-0.2321,0.7953,0.0192,-71.1437
16:58:53:744,-1.5687,0.5983,6.6755,34.1581,-0.0202,0.8719,0.0841,-71.1437
16:58:53:763,-1.6415,0.4303,5.8583,34.4482,0.1884,0.8134,0.2246,-71.2345
16:58:53:782,-1.859,0.6788,5.3951,34.7237,0.3652,0.6601,0.4312,-71.3298
16:58:53:802,-1.8827,1.1565,5.0915,34.5717,0.5025,0.5174,0.6228,-71.4353
16:58:53:823,-1.7828,1.7769,5.0783,34.7998,0.4259,0.2608,0.6526,-71.5576
16:58:53:844,-1.6001,2.0773,5.9394,34.3889,0.1331,-0.3609,0.4067,-71.6995
16:58:53:863,-1.7197,1.7478,7.5718,34.3316,0.082,-0.9742,0.1097,-71.8513
16:58:53:883,-2.1511,1.5955,8.5933,34.6226,0.2076,-1.0891,0.0011,-72
16:58:53:903,-2.1561,1.8258,8.8734,34.7839,0.1192,-0.7676,0.0192,-72.1419
16:58:53:923,-2.0322,2.0532,9.6731,34.7297,-0.2576,-0.3822,-0.0639,-72.2797
16:58:53:945,-2.1946,2.2591,11.0241,34.9214,-0.4695,-0.1043,-0.1746,-72.4118
16:58:53:964,-2.6228,2.6472,12.3763,34.9451,-0.4759,-0.231,-0.2268,-72.5366
16:58:53:983,-2.7929,2.9678,13.178,34.6924,-0.2438,-0.478,-0.1011,-72.6528
16:58:54:003,-2.3671,3.0472,13.1273,34.447,-0.0138,-0.5419,0.0415,-72.7634
16:58:54:023,-1.4486,2.5334,13.4015,34.4686,-0.0926,-0.7048,0.0224,-72.8733
16:58:54:043,-0.5716,1.4465,14.2325,34.0292,-0.1906,-0.6771,-0.2065,-72.9806
16:58:54:063,-0.3865,0.5881,14.4924,33.4035,0.1065,-0.3087,-0.3971,-73.0723
16:58:54:083,-0.5421,0.1607,13.3055,33.3317,0.4099,0.1139,-0.4695,-73.0723
16:58:54:103,-0.6934,0.0419,11.9122,32.9846,0.461,0.3183,-0.4376,-73.0723
16:58:54:124,-0.5525,0.4869,10.7198,33.0828,0.4067,0.3503,-0.379,-73.0723
16:58:54:143,-0.31,0.9479,9.3986,33.1986,0.3971,0.5142,-0.3865,-73.0723
16:58:54:163,-0.2495,1.3346,8.0283,33.3825,0.478,0.6824,-0.5046,-73.0723
16:58:54:183,-0.3233,1.5401,6.568,33.4707,0.5494,0.7804,-0.643,-73.0723
16:58:54:202,-0.5475,1.7271,5.388,33.2405,0.5238,0.7623,-0.7889,-73.0723
16:58:54:223,-0.8667,1.7882,4.7126,33.2803,0.4919,0.6952,-0.889,-73.0723
16:58:54:243,-1.1636,1.7115,4.2969,33.1387,0.5046,0.5504,-0.8847,-72.9553
16:58:54:264,-1.3703,1.7172,4.021,33.0629,0.4897,0.3513,-0.7942,-72.8089
16:58:54:283,-1.6895,2.0628,4.1452,33.302,0.3801,0.0916,-0.6835,-72.6389
16:58:54:303,-1.953,2.4426,4.6348,33.2254,0.1821,-0.0958,-0.5408,-72.4511
16:58:54:323,-1.7884,2.47,5.6953,33.0684,-0.1448,-0.3545,-0.5249,-72.2516
16:58:54:343,-2.359,2.8705,7.0512,33.3837,-0.4472,-0.4631,-0.593,-72.0429
16:58:54:364,-3.1798,3.2284,8.5265,33.7864,-0.5536,-0.3577,-0.4248,-71.8282
16:58:54:383,-3.5035,3.261,9.8015,33.9479,-0.4525,-0.2491,-0.1927,-71.6106
16:58:54:403,-3.4973,2.8001,11.0048,34.5078,-0.2896,-0.2949,-0.0362,-71.3974
16:58:54:423,-3.9273,2.9598,12.0863,34.9979,-0.2002,-0.4738,0.0607,-71.1922
16:58:54:443,-4.0162,2.746,12.7701,35.606,-0.1416,-0.5068,0.2172,-70.9984
16:58:54:463,-3.7522,2.244,13.3724,35.7425,-0.0788,-0.3343,0.4056,-70.8191
16:58:54:483,-3.5809,2.4592,13.5034,36.0222,0.1916,0.0245,0.5589,-70.657
16:58:54:505,-3.3222,2.3818,12.9004,35.9845,0.3918,-0.066,0.5238,-70.518
16:58:54:523,-3.0617,1.7022,12.184,36.2948,0.3641,-0.2619,0.3843,-70.3995
16:58:54:543,-3.1184,1.2598,11.7258,36.4737,0.3513,-0.116,0.3279,-70.2927
16:58:54:563,-3.1362,1.2194,10.9445,36.7586,0.3045,0.0351,0.3045,-70.1975
16:58:54:583,-2.9726,1.1031,10.1638,37.0893,0.1618,0.1267,0.2576,-70.1975
16:58:54:604,-2.7775,1.0555,9.4334,37.143,0.0096,0.2768,0.2278,-70.1975
16:58:54:623,-2.5512,0.9814,8.5936,37.0161,-0.1011,0.4802,0.23,-70.1975
16:58:54:643,-2.3319,1.0288,7.6936,36.8213,-0.1416,0.7101,0.3045,-70.1975
16:58:54:663,-2.0374,1.1104,6.8055,36.4753,-0.1693,0.8113,0.3992,-70.1975
16:58:54:683,-1.9119,1.3099,6.3013,36.0291,-0.132,0.7389,0.4621,-70.1975
16:58:54:703,-1.891,1.6396,5.8506,36.0874,0.0479,0.6569,0.5973,-70.1975
16:58:54:723,-1.6731,1.7234,5.3299,36.1446,0.2896,0.6377,0.7261,-70.1975
16:58:54:743,-1.447,1.85,4.7675,36.2133,0.4663,0.6239,0.7484,-70.1975
16:58:54:763,-1.5822,2.4375,4.6074,36.4388,0.3716,0.5632,0.6111,-70.1975
16:58:54:783,-2.1747,3.1485,5.1977,36.3087,0.0575,0.4716,0.4418,-70.1975
16:58:54:804,-2.4059,2.8884,6.5203,36.5929,-0.2449,0.2949,0.2768,-70.1975
16:58:54:823,-2.9422,2.7419,8.1391,36.6609,-0.3087,-0.0394,0.099,-70.2964
16:58:54:843,-3.365,2.837,9.465,36.4604,-0.033,-0.2459,0.0479,-70.3974
16:58:54:864,-3.0694,2.8297,10.0977,36.6662,0.2151,-0.5557,0.0575,-70.4972
16:58:54:886,-2.4782,2.8156,10.7506,36.5783,0.0319,-0.9028,-0.1363,-70.5966
16:58:54:904,-2.8644,3.0019,12.2476,36.493,-0.0458,-0.9891,-0.2438,-70.6877
16:58:54:923,-3.4239,3.6064,13.4875,36.5164,0.2236,-0.6995,-0.0575,-70.6877
16:58:54:943,-3.2717,4.2406,13.5139,36.2812,0.6281,-0.2981,0.2087,-70.6877
16:58:54:963,-2.3598,4.5788,12.7794,36.4894,0.7591,-0.3492,0.23,-70.6877
16:58:54:984,-1.6175,4.2561,12.1839,36.5586,0.5472,-0.3141,-0.131,-70.6877
16:58:55:003,-1.9457,3.4388,11.6863,36.7726,0.4503,0.1767,-0.3662,-70.6877
16:58:55:023,-2.3753,2.4624,10.6979,36.9285,0.4067,0.544,-0.3865,-70.6877
16:58:55:043,-2.3627,1.8266,9.4734,37.1358,0.1522,0.6154,-0.3002,-70.6877
16:58:55:063,-2.1071,1.6073,8.6207,37.5002,-0.1948,0.3535,-0.1757,-70.6877
16:58:55:083,-1.6515,1.6467,7.9822,37.7041,-0.3758,0.115,-0.0735,-70.6877
16:58:55:104,-1.1692,1.8028,7.1467,37.9501,-0.4163,-0.0479,-0.0649,-70.6877
16:58:55:123,-0.8366,1.873,6.1394,38.3562,-0.4312,-0.1842,-0.1554,-70.6877
16:58:55:143,-0.5982,1.955,5.3386,38.1225,-0.5302,-0.214,-0.3045,-70.6877
16:58:55:165,-0.6049,1.8074,4.8507,37.8616,-0.6452,-0.0575,-0.4354,-70.6877
16:58:55:183,-0.77,1.552,4.7149,38.1987,-0.6494,0.115,-0.4674,-70.6877
16:58:55:203,-0.8129,1.4554,4.9829,37.8858,-0.5621,-0.0085,-0.3833,-70.6877
16:58:55:223,-0.71,1.722,5.7397,37.7489,-0.3268,-0.3247,-0.3162,-70.6877
16:58:55:243,-0.6816,2.2023,6.1984,37.794,-0.1544,-0.5568,-0.3237,-70.6877
16:58:55:265,-0.6274,2.5084,6.8685,37.5923,-0.1991,-0.7186,-0.4099,-70.6877
16:58:55:283,-0.9135,2.6502,8.0531,37.4965,-0.3439,-0.7431,-0.4972,-70.6877
16:58:55:304,-1.3614,2.7695,9.5587,37.5369,-0.3332,-0.5898,-0.4535,-70.6877
16:58:55:323,-1.5906,2.8011,10.7935,37.4296,-0.2768,-0.2513,-0.3418,-70.6877
16:58:55:343,-1.9831,3.1444,11.7797,37.6274,-0.2672,-0.115,-0.3215,-70.6877
16:58:55:364,-2.6661,3.7124,12.0164,37.3874,-0.2704,-0.0767,-0.2811,-70.5975
16:58:55:383,-3.13,3.6961,12.6948,37.4826,-0.4067,-0.0756,-0.1842,-70.5042
16:58:55:403,-3.1221,2.9023,13.5125,37.2897,-0.4418,0.0128,0.0106,-70.5042
16:58:55:423,-3.1746,2.3489,13.9029,36.8659,-0.0905,0.4237,0.2811,-70.5042
16:58:55:443,-3.6422,2.5254,13.0961,36.6773,0.5621,0.6111,0.5291,-70.5042
16:58:55:464,-3.5688,2.0245,11.1768,36.5394,0.8379,0.2119,0.4738,-70.5042
16:58:55:483,-3.505,1.0936,10.0555,36.4699,0.4887,-0.3833,0.2002,-70.5042
16:58:55:503,-3.7648,0.359,10.0757,36.6088,0.0841,-0.7889,0.0096,-70.5042
16:58:55:523,-3.7935,-0.1433,10.0853,37.0098,-0.1789,-0.8475,0.0415,-70.5042
16:58:55:545,-3.3772,-0.1935,10.2204,37.2409,-0.3662,-0.8358,0.2055,-70.5042
16:58:55:564,-2.3089,-0.2304,9.9464,37.443,-0.4205,-0.7857,0.3577,-70.5042
16:58:55:612,-1.3583,-0.0891,8.9456,37.6742,-0.4823,-0.6899,0.3705,-70.5042
16:58:55:614,-1.0207,0.6235,7.8525,38.1584,-0.5483,-0.6633,0.3013,-70.5042
16:58:55:623,-0.9095,1.0918,7.2368,38.3529,-0.5132,-0.6388,0.2417,-70.5042
16:58:55:645,-0.8049,0.9863,6.924,38.4759,-0.363,-0.4046,0.2885,-70.5042
16:58:55:663,-0.5759,0.5216,6.4447,38.4484,-0.1586,0.1373,0.4205,-70.5042
16:58:55:683,-0.6271,0.5506,5.9142,37.9765,0.0256,0.6867,0.5898,-70.5042
16:58:55:703,-0.8218,1.0727,5.3732,37.4477,0.1597,1.0466,0.7123,-70.5042
16:58:55:722,-0.8771,1.519,5.5332,36.85,0.2236,0.955,0.7442,-70.5964
16:58:55:744,-0.8377,2.1317,6.4762,36.5781,0.1661,0.4461,0.5728,-70.7063
16:58:55:763,-1.0638,2.6397,8.029,36.3428,0.1203,-0.1459,0.2992,-70.8243
16:58:55:783,-1.0102,2.1118,9.2111,36.4975,0.3258,-0.5504,0.1033,-70.9422
16:58:55:803,-1.2543,2.3031,9.7533,36.5506,0.3929,-0.7208,-0.0884,-71.0527
16:58:55:823,-1.184,2.5101,10.4164,36.4231,0.0437,-0.5483,-0.2438,-71.1515
16:58:55:844,-1.1474,2.8505,11.8081,36.3473,-0.4365,-0.1139,-0.4227,-71.1515
16:58:55:864,-1.3077,3.1421,13.285,36.0811,-0.7048,0.5164,-0.5685,-71.1515
16:58:55:883,-1.8387,3.1899,14.3688,35.7673,-0.56,1.0402,-0.6473,-71.1515
16:58:55:903,-2.5558,3.3418,14.0497,35.3086,-0.2832,1.3415,-0.6026,-71.1515
16:58:55:923,-2.6783,2.4729,13.6297,34.8217,-0.2214,1.3713,-0.544,-71.1515
16:58:55:944,-2.9856,1.3407,13.5492,34.3452,0.0628,0.9007,-0.444,-71.1515
16:58:55:964,-2.9773,0.2705,12.6231,33.9414,0.4674,0.1086,-0.1842,-71.1515
16:58:55:983,-2.3861,-0.5556,11.101,33.5877,0.5728,-0.4663,0.1299,-71.1515
16:58:56:003,-1.4063,-0.8255,10.5347,33.3978,0.2151,-0.9848,0.3258,-71.1515
16:58:56:025,-0.494,-0.5093,10.3439,33.389,-0.1214,-1.3138,0.4003,-71.1515
16:58:56:043,0.2038,0.2082,9.5439,33.6072,-0.1895,-1.1988,0.3194,-71.1515
16:58:56:063,0.5845,0.9333,8.4529,33.7321,-0.066,-0.89,0.1331,-71.1515
16:58:56:083,0.7351,1.2425,6.8423,33.8496,0.0426,-0.4291,-0.0905,-71.1515
16:58:56:103,0.6412,1.383,5.4801,33.7934,0.082,0.0873,-0.2789,-71.1515
16:58:56:125,0.4033,1.4363,4.6694,33.6655,0.1129,0.4056,-0.4503,-71.1515
16:58:56:143,0.0921,1.209,4.2315,33.412,0.1597,0.3726,-0.5717,-71.1515
16:58:56:164,-0.3839,0.9763,4.0385,33.3672,0.2129,0.1512,-0.6218,-71.1515
16:58:56:183,-0.8281,1.1769,4.4887,32.9977,0.2417,-0.1938,-0.5621,-71.1515
16:58:56:203,-1.0654,1.6586,5.1541,32.6891,0.1842,-0.3992,-0.4663,-71.0535
16:58:56:223,-1.0698,2.0654,6.4568,32.2239,0.0085,-0.3737,-0.4056,-70.9429
16:58:56:243,-0.9187,2.2558,8.1966,31.9815,-0.1533,-0.3428,-0.4514,-70.8204
16:58:56:264,-1.3248,2.6152,9.7628,31.8233,-0.3662,-0.3705,-0.5728,-70.6833
16:58:56:283,-2.2927,3.0075,11.2089,31.7796,-0.4983,-0.2087,-0.5121,-70.5323
16:58:56:303,-2.9171,2.8068,12.3054,31.6947,-0.5025,0.0873,-0.1831,-70.3773
16:58:56:323,-2.8364,2.3429,13.2936,31.5744,-0.5738,0.2917,0.1906,-70.2317
16:58:56:345,-2.5827,1.8248,14.8533,31.1128,-0.6878,0.2278,0.3769,-70.1038
16:58:56:364,-2.795,1.6474,15.8477,30.9172,-0.2257,0.3556,0.6281,-69.9998
16:58:56:383,-3.0034,1.9538,14.8119,30.873,0.5749,0.5504,0.9433,-69.9998
16:58:56:405,-2.61,1.5486,12.5766,30.7614,0.9294,0.3056,0.9326,-69.9998
16:58:56:423,-2.7056,0.97,10.8127,31.0094,0.7261,-0.23,0.6803,-69.9998
16:58:56:443,-3.2453,0.795,10.0924,31.0304,0.4046,-0.4993,0.5376,-69.9998
16:58:56:463,-3.2057,0.5132,9.4855,30.9299,0.0351,-0.4897,0.5504,-69.9998
16:58:56:483,-2.897,0.3605,9.1834,31.262,-0.3364,-0.2928,0.4716,-69.9998
16:58:56:504,-2.4546,-0.0103,8.887,31.1407,-0.6111,-0.1948,0.4301,-69.9998
16:58:56:523,-1.6975,-0.252,8.4808,31.4865,-0.8336,-0.1661,0.3684,-69.9998
16:58:56:543,-1.1978,-0.1757,7.7635,31.3145,-1.0018,-0.0192,0.2906,-69.9998
16:58:56:563,-1.0223,0.1544,7.2379,31.0267,-0.906,0.2246,0.2534,-69.9998
16:58:56:583,-0.8932,0.339,6.2746,30.8644,-0.625,0.4589,0.3173,-70.0976
16:58:56:604,-0.735,0.357,5.183,30.9067,-0.3982,0.7559,0.4131,-70.2068
16:58:56:623,-0.6234,0.5453,4.6465,30.7513,-0.3364,0.8815,0.4716,-70.3292
16:58:56:643,-0.8445,0.6693,4.9491,30.9436,-0.362,0.6995,0.4461,-70.4647
16:58:56:663,-0.9235,0.8043,5.9163,31.1687,-0.2726,0.2683,0.4099,-70.6113
16:58:56:683,-0.5426,0.9349,6.8516,31.3885,-0.1576,-0.165,0.2683,-70.7647
16:58:56:703,-0.2842,1.0695,8.3076,31.5492,-0.197,-0.6037,-0.0564,-70.9148
16:58:56:723,-0.3998,0.6678,10.0065,32.0114,-0.2065,-0.7527,-0.4397,-71.0488
16:58:56:743,-0.6643,0.0692,11.1064,32.2735,-0.0873,-0.5366,-0.6995,-71.1564
16:58:56:763,-0.8758,-0.3513,11.4724,32.4006,-0.1192,-0.1661,-0.7889,-71.1564
16:58:56:785,-1.2934,-0.2662,12.0105,32.566,-0.4802,0.1373,-0.757,-71.1564
16:58:56:803,-1.959,0.7065,13.3285,32.3963,-0.7495,0.4365,-0.5749,-71.1564
16:58:56:823,-2.0949,1.4184,14.3074,32.2413,-0.626,0.7112,-0.3449,-71.1564
16:58:56:843,-1.8722,1.8021,14.5773,32.0577,-0.2385,0.7218,-0.2246,-71.1564
16:58:56:863,-1.5943,2.0453,14.2897,31.7466,0.049,0.2534,-0.263,-71.1564
16:58:56:884,-0.9425,0.993,14.3413,31.904,0.2726,-0.2502,-0.3375,-71.1564
16:58:56:903,-0.4314,-0.4142,14.0199,32.3129,0.8453,-0.4163,-0.363,-71.1564
16:58:56:923,-0.2897,-1.1471,12.1335,32.958,1.2733,-0.4897,-0.3971,-71.1564
16:58:56:943,-0.0703,-1.3032,10.7203,33.6416,1.0135,-0.7538,-0.5132,-71.1564
16:58:56:963,-0.0738,-1.1534,10.5399,34.1786,0.3769,-1.0359,-0.7154,-71.0656
16:58:56:984,-0.4127,-0.5925,10.4949,34.6819,-0.0277,-0.7272,-0.8262,-70.949
16:58:57:003,-0.7846,-0.1008,9.6942,35.2221,-0.1246,-0.1246,-0.8251,-70.8068
16:58:57:023,-0.942,0.22,8.2508,35.2692,-0.0767,0.3961,-0.7889,-70.641
16:58:57:043,-1.1542,0.6218,6.7819,35.3626,0.0447,0.7389,-0.7282,-70.4538
16:58:57:064,-1.2302,0.918,5.6355,35.3296,0.1544,0.7399,-0.6739,-70.2476
16:58:57:083,-1.1437,0.9172,4.862,34.8355,0.2747,0.4514,-0.6207,-70.0241
16:58:57:103,-1.1866,0.8527,4.4694,34.5464,0.3811,0.1331,-0.5696,-69.7851
16:58:57:123,-1.3361,0.8252,4.34,34.1338,0.5121,-0.0798,-0.461,-69.5333
16:58:57:143,-1.3674,0.807,4.4319,34.0543,0.5334,-0.1757,-0.3535,-69.2728
16:58:57:166,-1.5087,1.1394,4.9558,33.8514,0.3726,-0.2002,-0.3024,-69.0069
16:58:57:183,-1.9773,1.6969,6.2109,33.7551,0.1874,-0.1746,-0.263,-68.7378
16:58:57:203,-2.1298,1.7595,7.6239,33.9053,0.0298,-0.1916,-0.2332,-68.4678
16:58:57:224,-2.7405,2.2548,9.4915,33.8879,-0.1884,-0.3279,-0.3237,-68.1955
16:58:57:243,-3.4543,2.628,11.2,33.9171,-0.3194,-0.4035,-0.3194,-67.9206
16:58:57:264,-3.6362,2.0275,12.2724,33.8805,-0.3929,-0.0788,-0.1661,-67.6474
16:58:57:283,-3.6727,1.1785,12.9902,33.8679,-0.6037,0.4408,0.0724,-67.384
16:58:57:303,-3.8812,0.545,14.182,33.812,-0.7538,0.89,0.3992,-67.1416
16:58:57:323,-4.2822,1.0626,14.5552,34.2592,-0.3556,1.1658,0.8038,-66.9319
16:58:57:343,-4.0115,1.3738,13.6657,34.3798,0.099,0.741,1.0945,-66.7634
16:58:57:364,-2.6723,0.0808,12.9982,34.3307,0.1235,-0.4791,1.0178,-66.6348
16:58:57:383,-1.878,-1.1243,13.2078,34.7187,0.116,-1.235,0.7346,-66.5361
16:58:57:403,-1.5971,-1.7344,12.8698,34.8663,0.3109,-1.1232,0.642,-66.5361
16:58:57:423,-1.5114,-1.7725,11.6355,34.9075,0.3939,-0.6814,0.7016,-66.5361
16:58:57:443,-1.3299,-1.2657,10.1325,35.7487,0.2502,-0.2875,0.7793,-66.5361
16:58:57:463,-0.7823,-0.9255,8.694,36.3986,-0.0415,-0.131,0.7846,-66.5361
16:58:57:483,-0.4588,-0.58,7.5469,36.9931,-0.3449,-0.131,0.6675,-66.5361
16:58:57:503,-0.6015,0.1218,6.9144,37.8322,-0.4631,-0.0926,0.5707,-66.5361
16:58:57:523,-0.6802,0.4398,6.3151,38.3254,-0.3183,0.082,0.6047,-66.5361
16:58:57:543,-0.5679,0.4749,5.6201,38.4083,-0.082,0.264,0.6963,-66.5361
16:58:57:564,-0.3605,0.5847,5.095,38.7537,0.1107,0.3865,0.823,-66.6494
16:58:57:583,-0.2582,0.8807,4.6933,38.7219,0.2608,0.4653,0.905,-66.7889
16:58:57:617,-0.3616,1.4712,4.7253,38.9792,0.3045,0.4184,0.8453,-66.9527
16:58:57:623,-0.2233,1.725,4.9272,38.9295,0.2694,0.1586,0.6218,-67.1339
16:58:57:644,-0.4212,1.5684,5.8785,38.846,-0.0213,-0.4291,0.2406,-67.3207
16:58:57:663,-0.4919,0.8113,8.0225,38.767,-0.3992,-1.0242,-0.0447,-67.5027
16:58:57:683,-0.2825,-0.0399,10.3631,38.77,-0.5824,-1.1307,-0.2534,-67.6728
16:58:57:703,-0.2626,-0.3389,12.0412,38.8582,-0.5941,-0.6835,-0.3194,-67.8271
16:58:57:723,-0.3365,-0.2382,13.2142,38.724,-0.5856,0.0309,-0.2555,-67.9674
16:58:57:743,-0.4881,0.2312,14.0737,38.5974,-0.5909,0.4663,-0.1597,-68.0972
16:58:57:763,-0.6349,0.9486,14.5933,38.2062,-0.3492,0.7101,-0.0437,-68.2208
16:58:57:783,-0.8828,1.7131,13.8307,38.1109,0.0979,0.8677,0.0319,-68.3407
16:58:57:803,-0.8401,2.0339,12.7565,38.1658,0.1352,0.643,-0.0256,-68.4562
16:58:57:823,-0.4889,1.1356,12.87,38.1593,-0.1682,0.0767,-0.3364,-68.5594
16:58:57:843,-0.8923,0.257,13.5539,37.8753,-0.131,-0.2534,-0.5802,-68.5594
16:58:57:864,-0.9693,-1.0384,13.455,38.1287,0.1341,-0.544,-0.6005,-68.5594
16:58:57:883,-0.5968,-1.9169,12.7547,37.3899,0.2406,-0.8368,-0.5281,-68.5594
16:58:57:903,-0.1911,-1.714,12.0139,37.4091,0.2438,-0.8666,-0.3705,-68.5594
16:58:57:923,0.1469,-1.1514,10.9336,37.6951,0.2896,-0.4897,-0.2172,-68.5594
16:58:57:943,0.3246,-0.5631,9.405,37.8213,0.3641,0.0586,-0.1874,-68.5594
16:58:57:964,0.1382,0.0417,7.8658,38.7448,0.4472,0.4376,-0.2023,-68.5594
16:58:57:983,0.0031,0.5631,6.4272,39.5889,0.5451,0.5621,-0.2204,-68.5594
16:58:58:003,0.0571,0.8299,5.3522,40.503,0.6196,0.4642,-0.2576,-68.5594
16:58:58:024,0.0665,1.1191,4.8203,40.8491,0.6399,0.2949,-0.3545,-68.5594
16:58:58:043,0.1471,1.2204,4.5332,40.9725,0.6601,0.2427,-0.4791,-68.5594
16:58:58:064,0.1373,1.1662,4.4762,40.6243,0.6175,0.1842,-0.5728,-68.5594
16:58:58:083,-0.012,1.273,4.6201,40.3857,0.4301,0.099,-0.6228,-68.4653
16:58:58:103,-0.2175,1.5061,5.5095,39.9943,0.0319,-0.0415,-0.6686,-68.3504
16:58:58:124,-0.6477,1.8354,6.9432,39.721,-0.3652,-0.099,-0.7144,-68.2149
16:58:58:143,-1.1876,1.6637,8.6389,39.6137,-0.6484,0.0192,-0.6686,-68.0611
16:58:58:164,-1.6937,1.3834,10.4629,39.7015,-0.642,0.1576,-0.5185,-67.8941
16:58:58:183,-2.1547,1.2346,11.6515,39.8771,-0.3439,0.2896,-0.2779,-67.7211
16:58:58:203,-2.795,1.9574,12.2575,40.1455,-0.0415,0.1522,-0.0617,-67.5493
16:58:58:223,-3.1486,2.3823,12.7084,40.3643,-0.1629,-0.148,0.0905,-67.3843
16:58:58:243,-3.2474,1.6335,13.773,40.9345,-0.1416,-0.1767,0.3077,-67.2329
16:58:58:263,-3.5202,1.7796,13.9997,41.6517,0.3364,0.0298,0.6367,-67.1039
16:58:58:283,-3.236,1.9272,12.8881,41.9662,0.7165,-0.0319,0.8251,-67.0037
16:58:58:303,-2.1982,0.8549,11.8022,42.3965,0.5653,-0.5866,0.6015,-67.0037
16:58:58:323,-2.1794,0.1084,11.6641,42.5684,0.3428,-0.8038,0.2395,-67.0037
16:58:58:343,-2.5746,-0.039,11.2109,42.6096,0.2225,-0.5462,0.0841,-67.0037
16:58:58:363,-2.638,-0.3321,10.6221,42.9762,-0.0554,-0.2364,0.0351,-67.0037
16:58:58:383,-2.3639,-0.8013,10.1576,43.0026,-0.4205,-0.0586,0.0287,-67.0037
16:58:58:405,-1.8104,-1.1022,9.7651,43.2855,-0.7665,0.0703,-0.0085,-67.0037
16:58:58:423,-1.602,-0.9036,9.1252,43.1601,-0.9603,0.4376,-0.0341,-67.0037
16:58:58:443,-1.8481,-0.3772,8.1729,42.8327,-0.9624,0.873,0.0522,-67.0037
16:58:58:463,-2.1225,0.2482,7.046,42.3964,-0.7389,1.0615,0.28,-67.0037
16:58:58:483,-2.0123,0.4595,5.943,42.3317,-0.3982,0.8826,0.5707,-67.0037
16:58:58:503,-1.6612,0.5649,5.1493,42.6828,-0.0862,0.4897,0.8187,-67.0037
16:58:58:523,-1.3377,0.6887,4.9685,43.1094,0.1033,0.1789,0.9475,-67.0037
16:58:58:543,-1.1704,0.8378,5.0801,43.3363,0.1746,0.1299,0.9262,-67.0037
16:58:58:563,-1.5968,1.0314,6.0894,43.6276,0.0415,-0.0905,0.8187,-67.0037
16:58:58:583,-1.9614,1.0343,7.8552,44.0065,-0.0224,-0.5888,0.7559,-67.1105
16:58:58:603,-1.9997,0.8207,9.8853,44.2179,0.1906,-0.9209,0.7846,-67.2399
16:58:58:623,-1.2196,0.3033,10.8878,44.166,0.5206,-0.8091,0.7793,-67.3895
16:58:58:643,-0.5945,0.6814,11.0047,44.3412,0.3343,-0.0575,0.5249,-67.5569
16:58:58:663,-0.5985,1.1625,11.6532,44.3305,-0.2012,0.8006,0.1416,-67.7337
16:58:58:683,-0.9654,0.7885,12.7079,44.0629,-0.5472,1.1807,-0.1544,-67.9094
16:58:58:703,-1.5631,0.6234,13.9259,43.8643,-0.4099,1.1392,-0.197,-68.0751
16:58:58:723,-2.034,1.5829,13.8443,43.7265,-0.0106,0.9731,-0.0948,-68.2293
16:58:58:743,-1.1378,1.5178,12.8434,43.8429,-0.1171,0.758,-0.1491,-68.3773
16:58:58:763,-0.1131,-0.6611,13.5546,44.106,-0.4951,0.2875,-0.5185,-68.5189
16:58:58:784,-0.4993,-1.5718,14.2433,44.3595,-0.1427,-0.0458,-0.7016,-68.6378
16:58:58:803,-0.8852,-1.583,13.0855,44.8085,0.3141,-0.2278,-0.5834,-68.6378
16:58:58:823,-0.3951,-1.6049,11.7188,45.3187,0.4557,-0.4056,-0.3801,-68.6378
16:58:58:843,0.2025,-0.8495,10.7392,45.4473,0.2481,-0.6164,-0.3215,-68.6378
16:58:58:863,0.6357,0.3714,9.91,45.6464,0.0894,-0.4418,-0.4961,-68.6378
16:58:58:884,0.5843,0.7891,8.6318,45.9196,0.1916,-0.0234,-0.8315,-68.6378
16:58:58:903,0.2734,0.6953,7.0556,45.5353,0.3311,0.1767,-1.1158,-68.6378
16:58:58:923,-0.2474,0.5702,5.6899,45.2009,0.4716,0.083,-1.252,-68.6378
16:58:58:943,-0.5593,0.4493,4.8259,44.9414,0.5472,-0.2938,-1.2893,-68.541
16:58:58:963,-0.8182,0.4003,4.4543,44.6587,0.5462,-0.7091,-1.2563,-68.4023
16:58:58:984,-1.1737,0.3793,4.8125,44.2887,0.5238,-0.807,-1.1445,-68.2188
16:58:59:003,-1.2496,0.2506,5.4288,44.3613,0.5557,-0.7495,-0.8932,-68.005
16:58:59:023,-0.8299,0.5953,6.2388,43.9976,0.543,-0.7101,-0.7048,-67.7639
16:58:59:043,-0.6649,1.1684,7.4538,44.0192,0.4503,-0.8379,-0.823,-67.5075
16:58:59:065,-1.2893,1.6705,9.0403,43.9134,0.4322,-0.9997,-0.988,-67.2282
16:58:59:083,-2.3161,2.0515,9.9097,44.3049,0.6186,-0.8432,-0.8954,-66.92
16:58:59:103,-2.7789,2.2219,9.8976,44.5594,0.6526,-0.5313,-0.5281,-66.5896
16:58:59:123,-2.8754,2.3126,10.1118,45.0431,0.3258,-0.2417,-0.1416,-66.2524
16:58:59:143,-2.9251,2.5997,11.3446,45.2561,-0.0767,-0.0671,0.1107,-65.9245
16:58:59:165,-2.9293,2.4151,12.959,45.6643,-0.2523,-0.1405,0.2938,-65.6137
16:58:59:183,-2.7062,1.9294,13.9605,45.6985,-0.0085,-0.083,0.5366,-65.3233
16:58:59:203,-2.7239,2.2801,13.3904,45.5949,0.4397,0.198,0.8283,-65.0586
16:58:59:223,-2.6114,2.8556,12.2916,45.7049,0.6952,0.2033,1.0338,-64.8352
16:58:59:243,-1.8448,2.2627,11.5958,45.8709,0.6526,-0.3726,0.9763,-64.6541
16:58:59:264,-0.8815,0.8744,11.7585,46.2119,0.3471,-1.0285,0.6505,-64.5159
16:58:59:283,-0.7397,0.2396,12.3597,46.804,0.2257,-1.1583,0.3247,-64.4025
16:58:59:303,-0.7586,-0.1692,12.3256,47.4156,0.2236,-0.8421,0.2364,-64.3005
16:58:59:323,-0.6119,-0.3242,11.3886,47.4912,0.2449,-0.3833,0.3343,-64.2076
16:58:59:343,-0.1542,-0.1388,9.8161,47.389,0.1352,0.1874,0.5046,-64.2076
16:58:59:363,0.3231,0.141,8.4482,47.0278,-0.2055,0.5355,0.5142,-64.2076
16:58:59:383,0.0599,1.007,7.3855,46.6855,-0.4674,0.8091,0.4152,-64.2076
16:58:59:403,-0.4475,1.7279,6.5791,46.22,-0.4237,0.9262,0.3769,-64.2076
16:58:59:423,-0.6387,1.523,5.6292,45.9642,-0.2502,0.7846,0.4354,-64.2076
16:58:59:443,-0.6282,1.4042,4.8477,45.8095,-0.0788,0.6207,0.56,-64.2076
16:58:59:463,-0.7229,1.7625,4.3937,45.954,0.0426,0.56,0.7123,-64.2076
16:58:59:483,-0.6546,2.3179,4.3776,46.4768,-0.0224,0.4535,0.7612,-64.2076
16:58:59:503,-0.5328,2.8137,5.0248,47.0334,-0.2576,0.181,0.5611,-64.2076
16:58:59:523,-0.2017,2.3516,6.3881,47.6944,-0.5909,-0.28,0.2321,-64.3036
16:58:59:545,-0.463,1.7061,8.6745,47.9754,-0.8464,-0.5781,-0.1033,-64.405
16:58:59:564,-0.7284,0.7805,10.8454,47.9282,-0.7687,-0.2278,-0.1948,-64.4962
16:58:59:586,-0.7585,0.0548,12.0145,47.6441,-0.4259,0.3119,-0.1416,-64.4962
16:58:59:603,-0.5242,-0.1162,12.2326,47.5867,-0.3109,0.527,-0.1107,-64.4962
16:58:59:633,-0.8194,0.4129,12.4609,47.5371,-0.3961,0.5707,-0.1054,-64.4962
16:58:59:645,-1.2182,1.7922,12.8476,47.6187,-0.4216,0.5685,0.1927,-64.4962
16:58:59:663,-0.6595,2.4797,13.0254,47.9566,-0.3077,0.5589,0.4791,-64.4962
16:58:59:683,0.4526,2.5293,13.0378,48.0172,-0.1863,0.4014,0.4141,-64.5904
16:58:59:703,1.4573,1.1395,12.9451,48.1057,-0.2566,-0.1043,0,-64.6963
16:58:59:722,1.0893,-0.4956,13.1153,48.0344,-0.1916,-0.4365,-0.4546,-64.7961
16:58:59:744,0.1981,-1.4885,12.5625,48.4443,0.2513,-0.4695,-0.494,-64.7961
16:58:59:763,-0.3163,-1.642,11.2788,48.4434,0.6218,-0.511,-0.2726,-64.7961
16:58:59:783,-0.096,-1.405,10.0533,48.6224,0.5462,-0.7272,0.033,-64.7961
16:58:59:803,0.6257,-0.8904,9.4701,48.6782,0.1373,-0.8666,0.1224,-64.7961
16:58:59:823,0.9516,-0.1106,9.066,49.1066,-0.197,-0.6409,0.0181,-64.7961
16:58:59:843,0.8614,0.4374,8.4781,49.3919,-0.3119,-0.2225,-0.1661,-64.7961
16:58:59:864,0.3327,0.5712,7.4802,49.5562,-0.2321,0.0916,-0.3066,-64.7961
16:58:59:883,-0.3218,0.6027,6.4207,49.4061,-0.1246,0.2246,-0.2789,-64.7961
16:58:59:903,-0.7089,0.8575,5.7127,49.5199,-0.0458,0.1938,-0.1512,-64.7961
16:58:59:926,-0.4608,1.0904,5.816,49.305,0.0043,0.0096,-0.0298,-64.7961
16:58:59:943,-0.0032,1.214,6.1818,49.1949,0.2065,-0.1075,0.0021,-64.7961
16:58:59:964,0.3717,1.304,6.1978,49.4263,0.3492,-0.1107,-0.0362,-64.7961
16:58:59:983,0.4301,1.5147,6.7436,49.1236,0.2278,-0.1459,-0.1672,-64.7961
16:59:00:007,-0.4354,2.0789,8.3628,48.8843,0.0447,-0.346,-0.2278,-64.7961
16:59:00:023,-0.9205,2.3014,9.8541,48.6631,0.1086,-0.3897,-0.0394,-64.7961
16:59:00:043,-0.733,2.334,10.5998,48.2725,0.1842,-0.296,0.1661,-64.7961
16:59:00:063,-0.2244,2.392,11.331,48.0316,0.1703,-0.0948,0.3077,-64.7961
16:59:00:082,0.0455,2.5194,12.1059,48.436,0.2002,0.0479,0.2896,-64.7961
16:59:00:102,-0.296,2.5537,12.5889,48.7691,0.2257,-0.0213,0.2619,-64.7961
16:59:00:123,-0.4938,2.0343,12.9762,48.9699,0.2417,-0.0926,0.362,-64.7961
16:59:00:143,-0.5741,1.8147,13.1644,49.2277,0.4269,0.0138,0.577,-64.7961
16:59:00:163,-0.7351,2.2785,12.5986,49.2348,0.757,0.2875,0.8145,-64.7961
16:59:00:183,-0.4745,2.4624,11.2712,49.0955,0.8049,0.1171,0.807,-64.9085
16:59:00:203,-0.0506,1.9336,10.4734,48.9459,0.3673,-0.3769,0.4674,-65.0494
16:59:00:223,-0.4042,1.4732,10.8263,49.2796,-0.0607,-0.5919,0.1086,-65.2029
16:59:00:243,-0.7306,0.9319,11.0973,49.7003,-0.2821,-0.5408,-0.0798,-65.3542
16:59:00:263,-0.8296,0.229,10.8992,50.0169,-0.4195,-0.3386,-0.1863,-65.4959
16:59:00:283,-1.0115,-0.091,10.1917,50.6262,-0.4972,0.017,-0.1757,-65.624
16:59:00:305,-1.0419,-0.171,9.0772,50.6977,-0.5888,0.3886,-0.0767,-65.7404
16:59:00:323,-1.1247,0.1972,7.9011,51.014,-0.6771,0.6622,0.0575,-65.8499
16:59:00:343,-1.2304,0.6083,6.9781,51.0453,-0.6792,0.7878,0.1661,-65.9576
16:59:00:363,-1.164,0.6551,6.3194,50.9165,-0.5632,0.7197,0.2747,-66.0677
16:59:00:383,-0.8736,0.5138,5.8906,50.8637,-0.4482,0.6207,0.3694,-66.1844
16:59:00:404,-0.9392,0.5067,5.5404,51.1023,-0.3162,0.6313,0.4269,-66.31
16:59:00:423,-1.1927,0.6899,5.424,50.917,-0.263,0.5877,0.5547,-66.4476
16:59:00:443,-1.2543,1.03,5.9513,51.1122,-0.3535,0.2853,0.6675,-66.6034
16:59:00:463,-0.7366,0.9535,7.1543,51.2952,-0.4865,-0.0958,0.6856,-66.7806
16:59:00:483,0.355,0.6998,8.9164,51.5224,-0.5334,-0.4354,0.444,-66.9765
16:59:00:503,0.6846,0.4568,10.6627,51.5681,-0.3481,-0.4418,0.0437,-67.177
16:59:00:523,0.3477,-0.1514,11.547,52.0816,-0.0639,-0.2204,-0.181,-67.3681
16:59:00:543,-0.2027,-0.1243,11.7035,52.1648,0.1629,-0.0021,-0.2023,-67.5444
16:59:00:563,0.0869,0.069,11.5944,52.2656,0.082,0.0554,-0.1725,-67.7093
16:59:00:583,0.3014,0.6299,12.1477,52.2176,-0.1246,0.2459,-0.2332,-67.8636
16:59:00:603,0.284,0.9373,12.7298,51.8448,-0.2076,0.5653,-0.2619,-68.0045
16:59:00:623,0.1912,1.2817,12.8772,51.4799,-0.2023,0.6835,-0.3332,-68.1313
16:59:00:643,0.6026,0.458,13.2672,51.2759,-0.3492,0.3673,-0.5749,-68.2437
16:59:00:663,0.1527,-0.6095,13.955,51.1287,-0.3758,-0.0192,-0.8932,-68.2437
16:59:00:684,-0.5106,-1.2692,14.0724,51.1133,0.0287,-0.2023,-0.8379,-68.2437
16:59:00:703,-0.5471,-1.8061,12.9912,51.3108,0.4322,-0.4621,-0.5738,-68.2437
16:59:00:723,-0.0617,-1.9999,11.9347,51.9903,0.4993,-0.9177,-0.2779,-68.2437
16:59:00:743,0.3786,-1.3434,11.2072,52.6934,0.4738,-1.0966,-0.1065,-68.2437
16:59:00:763,0.6502,-0.3244,10.1909,53.5696,0.5845,-0.8879,-0.0319,-68.2437
16:59:00:784,0.8463,0.4058,8.5217,54.1203,0.6686,-0.5078,-0.0724,-68.2437
16:59:00:803,0.7002,0.7233,6.8759,54.4536,0.6729,-0.1554,-0.1491,-68.2437
16:59:00:823,0.5186,0.9786,5.5707,54.4309,0.5696,0.0617,-0.2065,-68.2437
16:59:00:843,0.4128,1.1717,4.894,54.2944,0.4908,0.1086,-0.2481,-68.2437
16:59:00:863,0.5359,1.1085,4.6042,53.8861,0.4631,0.0841,-0.3119,-68.2437
16:59:00:883,0.7573,1.1352,4.6243,53.4799,0.4163,0.0468,-0.4354,-68.2437
16:59:00:903,0.6347,1.4016,4.8948,53.0991,0.3354,0.0468,-0.5685,-68.2437
16:59:00:923,0.1287,1.8425,5.3785,53.1629,0.1097,0.0969,-0.5973,-68.2437
16:59:00:943,0.1065,2.0949,6.612,53.2248,-0.2523,0.0319,-0.5408,-68.2437
16:59:00:966,0.1818,2.2448,8.2919,53.7611,-0.56,-0.0511,-0.5504,-68.1372
16:59:00:983,-0.2944,2.4919,10.2818,54.0747,-0.6026,-0.0649,-0.5494,-68.0144
16:59:01:003,-0.805,2.2069,11.7441,54.2126,-0.3545,-0.1416,-0.395,-67.8758
16:59:01:023,-1.1976,1.9586,12.5772,54.3991,-0.0362,-0.05,-0.0979,-67.7274
16:59:01:043,-1.3012,2.4683,12.8167,55.1045,0.1895,0.0405,0.2193,-67.5815
16:59:01:066,-0.8163,2.5024,12.9878,55.6434,0.1192,0.1129,0.412,-67.45
16:59:01:083,-0.4399,2.2105,13.3552,55.9502,0.0692,0.1576,0.4546,-67.3376
16:59:01:103,-0.4337,1.994,13.4298,56.7535,0.2183,0.1033,0.4259,-67.2436
16:59:01:123,-0.3458,1.2458,12.9345,57.0813,0.4078,-0.2406,0.2917,-67.2436
16:59:01:143,-0.6797,0.5834,12.2866,57.4447,0.4546,-0.51,0.1097,-67.2436
16:59:01:164,-1.192,0.635,11.3454,58.1136,0.4621,-0.3215,0.0841,-67.2436
16:59:01:183,-1.2807,0.5274,10.4337,58.1699,0.1767,-0.2033,0.0522,-67.2436
16:59:01:203,-1.0403,-0.0214,10.1081,58.4073,-0.2768,-0.3279,-0.049,-67.2436
16:59:01:223,-0.6945,-0.3386,9.6398,58.3334,-0.6122,-0.313,-0.1661,-67.2436
16:59:01:243,-0.3312,-0.4556,8.7991,58.4325,-0.8592,-0.2002,-0.2726,-67.2436
16:59:01:263,-0.3902,-0.1436,8.0257,58.472,-1.0295,0.0053,-0.3375,-67.2436
16:59:01:283,-0.5679,0.1939,7.4032,58.5785,-1.0018,0.2619,-0.2502,-67.1532
16:59:01:303,-0.4876,0.2159,6.7217,58.546,-0.8081,0.4727,-0.083,-67.0541
16:59:01:323,-0.3225,0.1486,6.1117,58.3297,-0.5802,0.5547,0.0767,-66.9537
16:59:01:343,-0.4405,0.1925,5.9044,58.5531,-0.3439,0.4195,0.1778,-66.8584
16:59:01:364,-0.4489,0.195,6.0442,58.961,-0.0735,0.1672,0.2449,-66.8584
16:59:01:383,-0.3444,0.1692,6.2689,59.2812,0.1139,0.0043,0.2523,-66.8584
16:59:01:403,-0.4914,0.546,7.337,59.7362,0.0884,-0.1586,0.2438,-66.8584
16:59:01:422,-0.0536,0.3053,8.8336,60.3462,0.016,-0.2917,0.1938,-66.8584
16:59:01:443,0.4666,-0.223,10.3615,60.4043,-0.0458,-0.2779,-0.0564,-66.8584
16:59:01:464,0.3451,-0.2967,11.4973,60.5857,-0.0383,-0.1097,-0.3322,-66.8584
16:59:01:483,0.131,-0.3818,12.272,61.0753,0.0245,0.2076,-0.4333,-66.8584
16:59:01:503,-0.0771,-0.384,12.4592,61.339,-0.0011,0.6154,-0.379,-66.7678
16:59:01:523,-0.3938,0.3436,12.8357,61.7088,-0.0724,0.9891,-0.2374,-66.6669
16:59:01:544,-0.6561,1.3435,13.0862,62.1873,-0.017,1.2041,-0.1778,-66.5604
16:59:01:563,-0.6715,2.008,12.9672,62.2032,-0.0362,1.1072,-0.2757,-66.4512
16:59:01:583,-0.2359,1.0799,13.5099,62.6181,-0.2992,0.4865,-0.5675,-66.338
16:59:01:603,-0.5593,-0.0479,14.686,63.0571,-0.2598,0.0862,-0.7421,-66.2087
16:59:01:623,-0.9259,-0.8201,14.8493,63.2773,0.2481,-0.0841,-0.6069,-66.0561
16:59:01:647,-0.5365,-1.7117,13.7446,63.9581,0.6335,-0.2938,-0.3311,-65.8876
16:59:01:664,-0.0618,-2.1969,12.6391,64.3926,0.7612,-0.5909,-0.1246,-65.7143
16:59:01:683,-0.1437,-1.1005,11.5004,64.9411,0.9081,-0.5057,0.0671,-65.5414
16:59:01:703,-0.1973,0.2275,9.8593,64.7917,1.1317,-0.1491,0.1863,-65.3742
16:59:01:723,-0.1065,0.7499,7.837,65.2145,1.2616,0.0894,0.1448,-65.2168
16:59:01:743,-0.1694,1.1942,5.9157,65.0972,1.2297,0.2076,0.0447,-65.0645
16:59:01:763,-0.2682,1.4532,4.5749,64.7766,1.0529,0.1672,-0.0756,-64.9174
16:59:01:783,-0.3497,1.5688,3.8376,64.2695,0.8538,-0.0106,-0.1799,-64.7725
16:59:01:803,-0.3628,1.6873,3.4494,64.1703,0.6441,-0.1661,-0.2715,-64.6261
16:59:01:823,-0.3555,1.7223,3.3515,63.6563,0.3705,-0.1938,-0.3471,-64.474
16:59:01:843,-0.3286,1.6576,3.7667,63.3412,-0.0011,-0.214,-0.4216,-64.3166
16:59:01:864,-0.3383,1.7026,4.855,63.2716,-0.4472,-0.3375,-0.4791,-64.1522
16:59:01:882,-0.564,1.7199,6.4479,63.4072,-0.8389,-0.3599,-0.4834,-63.9785
16:59:01:903,-0.482,1.8029,8.2733,63.4314,-1.0274,-0.2949,-0.4599,-63.7947
16:59:01:925,-0.9867,1.8637,10.1094,63.5844,-0.971,-0.0479,-0.4365,-63.5986
16:59:01:943,-1.8231,1.5959,11.5753,63.8347,-0.6782,0.0224,-0.2033,-63.3931
16:59:01:963,-2.2166,1.6169,12.323,64.3556,-0.1799,-0.0106,0.2257,-63.1881
16:59:01:983,-1.9095,2.0747,12.1712,64.8946,0.0575,-0.0777,0.5685,-63
16:59:02:002,-1.3131,2.1476,12.5772,65.3612,-0.049,-0.1341,0.6984,-62.8399
16:59:02:025,-1.1536,2.0939,13.4846,65.7617,0.0628,0.0948,0.7793,-62.7102
16:59:02:043,-1.3704,2.3351,13.5718,65.8787,0.4855,0.3758,0.8581,-62.6052
16:59:02:063,-1.1698,1.8297,12.6691,66.411,0.6345,0.0053,0.7037,-62.6052
16:59:02:083,-1.1212,0.7096,12.333,66.4867,0.3801,-0.7314,0.3375,-62.6052
16:59:02:103,-1.4399,0.1395,12.6934,66.4977,0.2491,-0.9731,0.1373,-62.6052
16:59:02:123,-1.5361,-0.3475,12.4845,66.374,0.181,-0.7772,0.1235,-62.6052
16:59:02:143,-1.4394,-0.7409,11.9303,66.2691,0.082,-0.4088,0.214,-62.6052
16:59:02:163,-0.9341,-0.9912,11.1197,65.789,-0.0948,-0.099,0.3343,-62.6052
16:59:02:183,-0.3715,-1.1162,10.0653,65.6406,-0.2864,0.0703,0.3737,-62.6052
16:59:02:203,-0.5309,-0.3088,8.9279,65.4718,-0.2704,0.3992,0.4578,-62.6052
16:59:02:223,-0.835,0.8371,7.6571,65.3379,0.0021,0.7985,0.6473,-62.6052
16:59:02:243,-0.7137,1.1997,6.1508,64.9733,0.2662,1.0327,0.8272,-62.6052
16:59:02:263,-0.463,1.2975,4.954,64.6259,0.3811,0.9699,0.9028,-62.6052
16:59:02:283,-0.2973,1.6311,4.3344,64.3282,0.3961,0.5877,0.906,-62.709
16:59:02:305,-0.2082,2.1977,4.2831,63.7111,0.3151,0.1522,0.8453,-62.8442
16:59:02:323,0.1402,2.7236,4.7169,63.6454,0.0884,-0.1597,0.7197,-63.0073
16:59:02:343,0.9571,2.4984,6.1497,63.1431,-0.2438,-0.428,0.4503,-63.1921
16:59:02:363,1.5522,2.0503,8.1226,62.8534,-0.4589,-0.7783,-0.0181,-63.3866
16:59:02:384,1.433,1.6217,9.7985,62.6624,-0.4184,-0.6761,-0.4663,-63.569
16:59:02:404,0.8942,1.6222,10.7437,62.8911,-0.2875,-0.1938,-0.6761,-63.7232
16:59:02:423,0.2604,1.3704,11.3111,62.6906,-0.2779,0.2278,-0.6824,-63.846
16:59:02:443,0.0387,1.0455,11.856,63.0499,-0.395,0.3279,-0.5643,-63.9423
16:59:02:463,-0.2687,1.6315,12.6385,62.7951,-0.3524,0.3929,-0.4078,-63.9423
16:59:02:483,-0.7526,2.6567,12.6273,62.5618,-0.0958,0.6058,-0.2417,-63.9423
16:59:02:505,-1.0452,3.2612,12.2173,62.5291,0.049,0.7186,-0.1001,-63.9423
16:59:02:525,-0.374,2.845,12.1312,62.1544,-0.1395,0.2843,-0.1224,-63.9423
16:59:02:543,0.2163,1.469,12.5067,61.7966,-0.3077,-0.2736,-0.3716,-63.9423
16:59:02:564,0.0963,0.2677,12.4148,61.5521,0.0287,-0.3545,-0.5206,-63.9423
16:59:02:583,-0.3455,-0.4565,11.3397,61.101,0.3471,-0.4056,-0.5472,-63.9423
16:59:02:603,-0.5199,-0.7377,10.3549,60.8189,0.3322,-0.7634,-0.4567,-63.9423
16:59:02:623,-0.0025,-0.8702,9.8394,60.3978,-0.0692,-1.2904,-0.3311,-63.9423
16:59:02:643,0.6927,-0.6353,9.678,59.8388,-0.4908,-1.2648,-0.2992,-63.9423
16:59:02:663,1.0329,-0.2803,9.4223,59.5386,-0.7825,-0.692,-0.3311,-63.9423
16:59:02:686,0.7331,0.0801,8.7871,59.1601,-0.774,0.1533,-0.4024,-63.9423
16:59:02:704,0.0666,0.5397,7.7362,58.6631,-0.5195,0.8049,-0.378,-63.9423
16:59:02:723,-0.3181,0.8074,6.6168,58.3478,-0.2257,0.9273,-0.2757,-63.8517
16:59:02:743,-0.4886,1.1446,5.9636,57.7317,-0.0011,0.5249,-0.1629,-63.756
16:59:02:764,-0.3185,1.6514,6.0056,57.1289,0.2662,0.049,-0.0245,-63.6597
16:59:02:785,0.2763,1.5298,5.9502,56.3755,0.5142,-0.1725,0.0021,-63.5661
16:59:02:803,0.4287,1.7181,6.0937,55.9332,0.5568,-0.2757,-0.1107,-63.4752
16:59:02:823,0.4716,1.9121,6.5817,55.5921,0.395,-0.3886,-0.2321,-63.384
16:59:02:843,0.3794,1.9566,7.9088,55.1779,0.0862,-0.5664,-0.3599,-63.2898
16:59:02:863,-0.198,1.8072,9.5509,54.7466,-0.0767,-0.4908,-0.3854,-63.1859
16:59:02:883,-0.6963,1.6725,10.7909,54.7281,0.0021,-0.0575,-0.164,-63.0703
16:59:02:903,-0.7539,1.3903,11.3502,54.3986,0.1554,0.3609,0.1522,-62.9523
16:59:02:923,-0.8878,1.7386,11.7197,54.1642,0.2204,0.4078,0.3098,-62.8446
16:59:02:943,-1.146,2.2727,11.8114,53.7244,0.2545,0.2044,0.3875,-62.7531
16:59:02:964,-1.2373,2.1616,12.1333,53.4382,0.1746,0.1267,0.4897,-62.7531
16:59:02:984,-1.6452,2.445,12.3429,52.9986,0.1682,0.3354,0.6239,-62.7531
16:59:03:003,-1.4636,2.601,12.5154,52.4013,-0.1118,0.1746,0.6675,-62.7531
16:59:03:023,-0.7159,1.285,13.6936,52.0586,-0.4791,-0.5078,0.4653,-62.7531
16:59:03:043,-0.6808,0.443,14.0077,51.2533,-0.23,-0.5621,0.3077,-62.7531
16:59:03:065,-1.0693,0.6317,13.0474,50.9215,0.2236,-0.0735,0.3056,-62.7531
16:59:03:083,-1.2424,0.7638,11.6999,50.4126,0.2608,-0.0106,0.2545,-62.7531
16:59:03:103,-1.1267,0.3037,10.5358,49.9151,0.1192,-0.1224,0.2246,-62.7531
16:59:03:123,-0.9803,0.1255,9.468,49.23,0,-0.1139,0.2214,-62.7531
16:59:03:143,-0.646,-0.1497,8.2681,48.3255,-0.1341,-0.0745,0.2161,-62.7531
16:59:03:164,-0.2684,-0.3922,7.2989,47.4462,-0.3748,-0.1501,0.1714,-62.7531
16:59:03:183,-0.3254,-0.2273,6.5898,46.6475,-0.5015,-0.0181,0.2002,-62.7531
16:59:03:203,-0.4666,-0.0587,6.0576,46.0955,-0.4035,0.3428,0.3503,-62.7531
16:59:03:223,-0.4455,0.109,5.6351,45.7226,-0.2374,0.6537,0.5536,-62.7531
16:59:03:243,-0.3353,0.313,5.1202,45.0656,-0.0788,0.8858,0.7431,-62.8521
16:59:03:263,-0.0566,0.5414,5.0508,44.431,-0.1118,0.7697,0.7985,-62.9755
16:59:03:283,0.0974,0.998,5.9196,44.0666,-0.2704,0.2119,0.6196,-63.1251
16:59:03:303,0.3871,0.769,7.3199,43.3106,-0.2768,-0.5334,0.3375,-63.2922
16:59:03:323,0.6511,0.3772,8.5777,43.1024,-0.1214,-0.8166,0.0437,-63.4631
16:59:03:343,0.3316,0.4334,9.222,42.8673,0.1097,-0.3268,-0.1065,-63.6248
16:59:03:364,0.2704,0.6706,9.3934,42.4276,0.0564,0.2406,-0.1214,-63.7761
16:59:03:383,0.2062,0.9734,10.3195,42.0244,-0.3918,0.3002,-0.2917,-63.9202
16:59:03:403,-0.0696,0.8946,11.8984,41.7566,-0.7719,0.1991,-0.478,-64.0501
16:59:03:423,-0.461,0.5611,13.5688,41.4096,-0.7538,0.2747,-0.5164,-64.1576
16:59:03:443,-0.9915,0.7693,14.3473,41.3571,-0.4706,0.6079,-0.3673,-64.1576
16:59:03:464,-1.0159,0.9661,14.3696,41.2319,-0.3215,0.7783,-0.1703,-64.1576
16:59:03:483,-0.2374,0.0935,14.7135,41.0082,-0.6005,0.2672,-0.2012,-64.1576
16:59:03:503,0.0996,-0.777,15.8744,40.7044,-0.609,-0.2438,-0.2906,-64.1576
16:59:03:523,0.4535,-1.7096,15.8875,40.0773,-0.0085,-0.378,-0.264,-64.1576
16:59:03:544,0.8728,-2.4803,14.3604,39.5125,0.5557,-0.4567,-0.0692,-64.1576
16:59:03:565,1.275,-2.2107,12.5795,39.1796,0.8166,-0.61,0.1821,-64.1576
16:59:03:583,1.3449,-0.9516,10.7665,38.4562,0.905,-0.4663,0.3173,-64.1576
16:59:03:603,1.1979,0.3981,8.9234,38.0141,0.9028,-0.1608,0.2662,-64.1576
16:59:03:623,1.0149,1.0541,7.1592,37.4512,0.8113,0.0245,0.0756,-64.1576
16:59:03:654,0.8085,1.3741,5.6691,36.8426,0.6718,0.0437,-0.1491,-64.1576
16:59:03:663,0.6266,1.3726,4.5635,36.4858,0.5504,-0.0277,-0.3258,-64.1576
16:59:03:683,0.5799,1.2336,3.893,36.4662,0.4141,-0.164,-0.4631,-64.1576
16:59:03:703,0.4113,1.247,3.8422,36.1604,0.2811,-0.2427,-0.543,-64.1576
16:59:03:722,0.4021,1.2087,4.2177,35.8126,0.2076,-0.2747,-0.527,-64.1576
16:59:03:743,0.8236,1.2819,4.6309,35.325,0.1192,-0.1693,-0.5185,-64.1576
16:59:03:765,1.3079,1.557,5.5177,34.7241,-0.0415,0.017,-0.6505,-64.1576
16:59:03:783,1.1087,1.7909,6.7811,33.9939,-0.1884,0.1725,-0.9241,-64.1576
16:59:03:803,0.2088,1.341,8.4536,33.5259,-0.2619,0.1682,-1.0018,-64.1576
16:59:03:822,-0.2857,1.0171,9.5923,32.9939,-0.3183,0.0021,-0.8507,-64.0492
16:59:03:843,-0.3649,1.0463,10.7006,33.0005,-0.4961,0.0426,-0.5951,-63.9173
16:59:03:864,-0.5712,1.5573,12.1527,32.6183,-0.6452,0.0873,-0.3567,-63.7712
16:59:03:883,-0.5215,1.9788,13.5648,32.6188,-0.5866,0.016,-0.1246,-63.6188
16:59:03:903,0.1141,1.658,14.6046,32.7128,-0.445,-0.0767,-0.0511,-63.4669
16:59:03:925,-0.0981,1.6907,15.1069,32.5963,-0.1522,0.033,-0.0362,-63.3148
16:59:03:943,-0.8929,2.1329,14.8432,32.1671,0.4141,0.3407,0.1874,-63.1626
16:59:03:963,-0.8603,1.8215,13.8367,31.7941,0.9145,0.0852,0.3173,-63.0223
16:59:03:983,-0.5484,1.2514,12.5237,31.2248,0.9603,-0.4812,0.1011,-62.8994
16:59:04:002,-0.9934,0.8972,11.9554,30.6591,0.8208,-0.7591,-0.1192,-62.7847
16:59:04:024,-1.2016,0.5686,11.4566,30.4053,0.5919,-0.6878,-0.2033,-62.6707
16:59:04:043,-1.2142,0.1963,10.985,30.023,0.2065,-0.5355,-0.2683,-62.5546
16:59:04:063,-0.962,-0.4704,10.7267,29.8704,-0.2012,-0.3056,-0.2896,-62.4336
16:59:04:083,-0.64,-0.9857,10.0256,29.7093,-0.4642,0.116,-0.3247,-62.304
16:59:04:103,-0.8731,-0.7642,8.854,29.3777,-0.5153,0.7186,-0.2726,-62.1624
16:59:04:123,-1.264,-0.2573,7.5054,29.3431,-0.3588,1.1764,-0.0447,-62.0128
16:59:04:143,-1.1994,0.0886,6.3689,28.9367,-0.1054,1.1892,0.2385,-61.867
16:59:04:163,-0.6751,0.2336,5.5116,28.5483,0.1256,0.9433,0.4876,-61.7364
16:59:04:182,0.014,0.2367,4.9695,28.5283,0.3141,0.873,0.5909,-61.6273
16:59:04:203,0.245,0.4136,4.5912,28.2059,0.4695,0.8656,0.5227,-61.6273
16:59:04:223,0.0253,0.7928,4.3611,28.2266,0.4855,0.7655,0.3641,-61.6273
16:59:04:243,-0.0106,0.9828,4.6476,28.2935,0.2608,0.3982,0.148,-61.6273
16:59:04:264,0.0109,0.7039,5.992,27.6812,-0.0894,-0.1501,-0.1033,-61.6273
16:59:04:283,-0.5216,0.2219,8.0738,27.3279,-0.3811,-0.6367,-0.2427,-61.6273
16:59:04:306,-0.7156,-0.0154,9.8068,27.1738,-0.4035,-0.6697,-0.1597,-61.6273
16:59:04:323,-0.3537,0.2592,10.7717,27.1585,-0.4195,-0.3716,-0.0479,-61.6273
16:59:04:343,0.1212,0.909,11.8677,27.3779,-0.5877,-0.1033,-0.1959,-61.6273
16:59:04:364,0.019,1.3419,13.1778,27.548,-0.7208,0.0075,-0.5132,-61.6273
16:59:04:383,-0.9542,1.465,14.1036,27.5787,-0.5557,0.363,-0.6867,-61.5326
16:59:04:404,-2.1696,2.093,14.0666,27.375,-0.1693,0.7399,-0.5004,-61.4142
16:59:04:423,-2.4135,2.9861,13.7457,27.0142,-0.116,0.741,-0.2236,-61.284
16:59:04:443,-1.4397,2.5829,14.2073,26.6213,-0.3418,0.3449,-0.2928,-61.1542
16:59:04:464,-1.1175,1.0836,15.0738,26.363,-0.0958,0.1267,-0.494,-61.0168
16:59:04:483,-1.4497,-0.1445,13.8127,26.1517,0.4461,0.0713,-0.444,-60.8632
16:59:04:503,-1.4998,-0.6646,12.2217,26.1745,0.4195,-0.0245,-0.247,-60.6996
16:59:04:523,-1.0029,-0.7842,11.7064,26.3072,0.0607,-0.3503,0.0106,-60.5371
16:59:04:543,0.0569,-1.0122,11.0556,26.589,-0.1139,-0.4301,0.1139,-60.3832
16:59:04:564,0.4976,-0.8741,9.6053,26.7136,-0.0277,-0.2278,0.0309,-60.2358
16:59:04:583,0.3474,-0.2478,7.8901,26.8696,0.1565,0.016,-0.0202,-60.0909
16:59:04:603,0.2101,0.302,6.2468,27.3433,0.3716,0.1331,-0.0213,-59.947
16:59:04:623,0.2694,0.5476,4.9471,27.1858,0.5632,0.1501,-0.0064,-59.8055
16:59:04:643,0.4825,0.5889,4.1771,27.078,0.6686,0.0128,0.0021,-59.6661
16:59:04:663,0.9128,0.721,4.0316,27.2595,0.6697,-0.1927,0.0287,-59.5311
16:59:04:685,1.0665,0.997,4.101,27.252,0.7261,-0.2076,-0.0266,-59.3991
16:59:04:703,0.8001,1.8456,4.2465,26.871,0.6984,-0.0351,-0.1831,-59.2662
16:59:04:723,0.0789,2.8715,4.9311,27.0318,0.4152,0.0586,-0.3971,-59.1287
16:59:04:743,-0.519,3.0395,6.5354,26.903,-0.1203,-0.2278,-0.5813,-58.9841
16:59:04:763,-1.2183,2.8751,9.1382,26.7672,-0.6473,-0.6952,-0.6835,-58.8293
16:59:04:784,-1.596,2.0577,11.9081,26.9981,-0.8049,-0.7676,-0.5983,-58.6582
16:59:04:803,-1.6746,1.0019,13.6014,27.1978,-0.543,-0.2406,-0.329,-58.4694
16:59:04:823,-1.6487,0.7574,14.2497,27.5223,-0.1906,0.3205,0.0788,-58.2731
16:59:04:843,-1.4835,1.3264,14.5555,27.5411,-0.0735,0.3471,0.3322,-58.0871
16:59:04:863,-1.5014,1.787,14.5256,27.5565,0.0767,0.1842,0.51,-57.92
16:59:04:883,-1.653,2.0498,13.7973,27.5434,0.4312,0.2225,0.6931,-57.7749
16:59:04:903,-1.6271,1.9345,12.4141,27.5458,0.7846,0.1043,0.8358,-57.6577
16:59:04:923,-0.9485,1.656,11.1033,27.6174,0.8485,-0.3929,0.643,-57.6577
16:59:04:943,-0.9181,1.4583,10.5933,27.7502,0.6143,-0.8081,0.214,-57.6577
16:59:04:963,-1.26,1.1669,10.596,27.5864,0.3173,-0.9933,-0.1341,-57.6577
16:59:04:983,-1.4036,0.6846,10.5251,27.6668,0.0405,-0.9039,-0.3716,-57.6577
16:59:05:003,-1.4408,0.1227,10.2053,27.7682,-0.2087,-0.5941,-0.4897,-57.6577
16:59:05:023,-1.4453,-0.2645,9.5343,27.5267,-0.3811,-0.1863,-0.494,-57.5607
16:59:05:043,-1.3043,-0.5027,8.7425,27.5276,-0.5142,0.1363,-0.3961,-57.4481
16:59:05:066,-1.3715,-0.272,7.9223,27.4834,-0.5451,0.3567,-0.2012,-57.325
16:59:05:086,-1.5755,0.3159,7.2333,27.3823,-0.4312,0.6218,0.0532,-57.1983
16:59:05:103,-1.4553,0.644,6.5715,27.4139,-0.231,0.8677,0.3002,-57.0769
16:59:05:123,-1.2332,0.6448,5.9559,27.9132,-0.0607,0.9933,0.4716,-56.9695
16:59:05:142,-1.1401,0.8673,5.4588,28.5855,0.1203,1.0497,0.6196,-56.9695
16:59:05:164,-1.3146,1.4317,5.4143,29.4766,0.3034,0.7846,0.7091,-56.9695
16:59:05:183,-1.3896,2.188,6.0548,30.209,0.3694,0.2044,0.6771,-56.9695
16:59:05:203,-0.9214,2.2834,7.046,31.0693,0.2268,-0.5355,0.4376,-56.9695
16:59:05:223,-0.4927,1.8215,8.5523,31.4805,-0.0117,-0.8624,0.0468,-56.9695
16:59:05:243,-0.7873,1.3686,10.2347,31.7774,-0.0649,-0.5717,-0.2417,-56.9695
16:59:05:263,-1.4255,1.108,11.298,32.2381,0.0841,-0.017,-0.2481,-56.9695
16:59:05:285,-1.6918,0.8375,12.0219,32.3982,0.197,0.2193,-0.1022,-56.9695
16:59:05:303,-1.4089,0.7905,12.7012,32.3943,0.1682,0.1533,-0.0277,-56.9695
16:59:05:323,-1.564,1.0405,13.3809,32.4286,0.2332,0.1491,0.0479,-56.9695
16:59:05:343,-1.8325,1.8146,13.4619,32.0479,0.4876,0.2885,0.329,-56.9695
16:59:05:363,-1.7245,2.9424,12.6495,31.9113,0.6388,0.4365,0.5515,-56.9695
16:59:05:383,-0.8624,3.1133,12.0148,31.8667,0.3418,0.2864,0.4951,-56.9695
16:59:05:403,-0.0338,1.8058,12.4042,31.8142,0.1075,-0.083,0.2065,-56.9695
16:59:05:423,-0.2441,1.0547,12.0551,32.3691,0.411,-0.2065,0.0511,-56.9695
16:59:05:445,-0.3739,0.7077,10.4931,33.0533,0.5078,-0.2417,0.0969,-56.9695
16:59:05:464,-0.063,0.5517,9.4828,33.4349,0.1852,-0.3396,0.1395,-56.9695
16:59:05:484,0.4721,0.7483,9.0479,34.0166,-0.2246,-0.5334,0.1065,-56.9695
16:59:05:503,0.9355,1.1215,8.4561,34.6089,-0.4929,-0.5068,-0.0192,-56.9695
16:59:05:523,1.0618,1.4929,7.5385,35.2218,-0.6345,-0.2864,-0.264,-56.9695
16:59:05:544,0.7878,1.8144,6.5116,35.6433,-0.6782,0.0213,-0.544,-56.9695
16:59:05:563,0.4667,1.829,5.445,35.693,-0.6824,0.3098,-0.7538,-56.9695
16:59:05:583,0.1574,1.6102,4.6333,35.8289,-0.7357,0.4865,-0.8773,-56.9695
16:59:05:603,-0.1314,1.5205,4.4805,35.7501,-0.8251,0.4674,-0.8698,-56.9695
16:59:05:623,-0.3402,1.6314,5.1613,35.5601,-0.7665,0.1693,-0.7399,-56.9695
16:59:05:644,-0.045,1.707,5.8209,35.499,-0.5643,-0.2619,-0.6271,-56.8752
16:59:05:666,0.3117,1.917,6.6337,35.6255,-0.4237,-0.5238,-0.6856,-56.7635
16:59:05:683,0.3317,1.7347,7.9589,36.079,-0.3503,-0.6047,-0.7878,-56.631
16:59:05:703,0.0163,1.3952,9.3625,36.1528,-0.2598,-0.7389,-0.7165,-56.4761
16:59:05:722,-0.2255,1.3083,10.7833,36.772,-0.2193,-0.643,-0.6015,-56.3014
16:59:05:743,-0.6146,1.5147,11.7846,37.1703,-0.099,-0.2651,-0.4759,-56.1092
16:59:05:763,-1.0319,1.4805,12.5756,37.4202,0.0106,-0.0649,-0.3322,-55.9057
16:59:05:783,-1.249,1.497,13.0934,37.8342,0.082,-0.1246,-0.165,-55.6983
16:59:05:803,-1.0246,1.2135,13.7191,38.3636,0.0319,-0.1874,-0.0788,-55.4932
16:59:05:825,-1.0606,1.1535,14.4555,38.6148,0.0756,-0.0298,-0.0192,-55.2907
16:59:05:843,-1.5573,1.351,14.5808,38.8214,0.4163,0.4472,0.1086,-55.0897
16:59:05:864,-1.9958,1.5532,13.5673,38.9664,0.8507,0.691,0.2651,-54.896
16:59:05:883,-2.1542,1.2626,12.0572,39.3782,0.9635,0.3588,0.1735,-54.7183
16:59:05:903,-2.5654,0.4755,11.257,39.8425,0.7399,-0.3939,-0.0277,-54.5557
16:59:05:925,-2.8914,-0.1705,10.8656,40.1837,0.4834,-0.7846,-0.0277,-54.4007
16:59:05:943,-2.7539,-0.5901,10.6565,40.5281,0.2129,-0.7442,0.1065,-54.2517
16:59:05:963,-2.3355,-0.7438,10.324,40.816,-0.0085,-0.477,0.2342,-54.1117
16:59:05:983,-1.77,-0.8918,9.5809,41.0469,-0.1863,-0.1033,0.3194,-53.983
16:59:06:003,-1.2817,-0.9425,8.6368,41.2584,-0.3929,0.1501,0.3354,-53.8687
16:59:06:024,-1.284,-0.3217,7.64,41.4576,-0.5632,0.3918,0.3662,-53.7683
16:59:06:043,-1.3848,0.5095,7.0024,41.7793,-0.5217,0.626,0.4738,-53.7683
16:59:06:063,-1.2476,0.743,6.1724,41.831,-0.3162,0.741,0.6356,-53.7683
16:59:06:083,-0.8654,0.6672,5.3442,41.9919,-0.1544,0.7878,0.7815,-53.7683
16:59:06:103,-0.7165,0.8321,4.7495,42.3077,-0.0415,0.7953,0.9252,-53.7683
16:59:06:123,-0.5753,1.2333,4.8067,42.2756,-0.0458,0.6271,0.9497,-53.7683
16:59:06:143,-0.4664,1.285,5.2092,42.5392,-0.1522,0.2587,0.8272,-53.7683
16:59:06:164,-0.3684,0.9155,6.0967,42.6573,-0.3556,-0.2087,0.6558,-53.7683
16:59:06:182,-0.6159,1.2185,8.1077,42.7261,-0.5781,-0.6452,0.5174,-53.8743
16:59:06:203,-0.3234,1.1717,10.113,43.1325,-0.5994,-0.7878,0.3811,-53.9951
16:59:06:223,0.1781,0.5671,11.721,43.3209,-0.3716,-0.4855,0.1373,-54.1206
16:59:06:243,0.0111,0.3707,12.2834,43.5767,-0.0948,0.082,-0.1256,-54.2406
16:59:06:263,-0.555,0.6119,12.2257,43.5934,-0.1554,0.4163,-0.2864,-54.3494
16:59:06:283,-1.1633,0.8567,12.8851,43.559,-0.3215,0.5078,-0.3205,-54.4456
16:59:06:304,-1.4287,1.0101,13.6954,43.7104,-0.1959,0.5962,-0.1916,-54.4456
16:59:06:326,-1.5409,1.2418,13.6024,43.4823,0.1437,0.6601,-0.0298,-54.4456
16:59:06:343,-1.3996,2.0021,13.1199,43.6771,0.3449,0.4876,0.1437,-54.4456
16:59:06:363,-0.1699,1.6392,13.2806,43.9224,0.1491,-0.2023,0.0756,-54.4456
16:59:06:383,0.8448,0.3478,13.8556,43.9476,0.1107,-0.4876,-0.1448,-54.4456
16:59:06:403,0.6475,-0.4508,13.3307,44.1486,0.511,-0.3439,-0.2736,-54.4456
16:59:06:423,-0.0738,-0.3474,11.8448,44.2333,0.7069,-0.3141,-0.2896,-54.4456
16:59:06:443,-0.2414,-0.3611,10.7947,44.5663,0.5536,-0.5302,-0.214,-54.4456
16:59:06:463,-0.0298,-0.0967,10.2067,44.7387,0.2193,-0.7474,-0.2108,-54.4456
16:59:06:483,0.2475,0.0339,9.7213,45.1441,0.0916,-0.5845,-0.2949,-54.4456
16:59:06:503,0.1567,0.0286,8.5833,44.9131,0.2012,-0.0979,-0.363,-54.4456
16:59:06:523,-0.1321,0.3506,7.103,44.6326,0.3609,0.3109,-0.3726,-54.4456
16:59:06:543,-0.3206,0.6562,5.7892,44.1946,0.5057,0.4386,-0.3577,-54.4456
16:59:06:564,-0.3102,0.7598,4.8719,43.3747,0.5877,0.3024,-0.3247,-54.4456
16:59:06:583,-0.2457,0.882,4.445,42.8045,0.6473,0.0809,-0.3162,-54.4456
16:59:06:603,-0.1653,0.9898,4.3058,42.3128,0.6856,-0.0926,-0.2981,-54.4456
16:59:06:623,-0.217,1.2471,4.5401,41.6943,0.5515,-0.2044,-0.3205,-54.4456
16:59:06:643,-0.3541,1.6618,5.0806,41.1308,0.3002,-0.1459,-0.3098,-54.4456
16:59:06:663,-0.0658,1.7873,6.3964,40.6164,-0.1501,-0.1927,-0.3311,-54.4456
16:59:06:684,-0.4088,2.0867,8.5675,40.0622,-0.4791,-0.3098,-0.4163,-54.4456
16:59:06:703,-1.1413,2.3403,10.6671,39.8127,-0.3694,-0.2981,-0.3098,-54.4456
16:59:06:723,-1.5042,2.2817,11.4439,39.4435,0.0277,-0.0745,-0.0383,-54.3471
16:59:06:743,-1.5454,2.5202,11.4172,39.2233,0.1395,0.0607,0.2236,-54.2515
16:59:06:763,-1.397,2.9698,11.9178,39.1514,-0.0979,0.0309,0.3545,-54.2515
16:59:06:784,-1.1641,2.9198,13.1942,39.0422,-0.3024,-0.0894,0.346,-54.2515
16:59:06:803,-1.53,2.6268,14.322,39.0777,-0.0767,-0.0298,0.4674,-54.2515
16:59:06:823,-1.9864,2.9849,13.9545,39.0774,0.4961,0.2736,0.7304,-54.2515
16:59:06:843,-1.6802,3.0446,12.5974,39.1223,0.691,0.083,0.7634,-54.2515
16:59:06:863,-1.2681,1.8953,11.6918,39.1648,0.346,-0.5408,0.4322,-54.2515
16:59:06:884,-1.9001,1.0261,11.7652,38.9281,0.1608,-0.7644,0.2087,-54.2515
16:59:06:903,-2.3412,0.622,11.2004,38.9428,0.1938,-0.5568,0.2576,-54.2515
16:59:06:923,-2.2468,0.3262,10.4236,39.0025,0.0862,-0.3811,0.3694,-54.2515
16:59:06:943,-1.8299,0.0977,9.453,39.3937,-0.1139,-0.1884,0.4631,-54.2515
16:59:06:964,-1.3379,-0.0264,8.3986,39.3714,-0.3907,-0.0458,0.4897,-54.2515
16:59:06:984,-1.0619,0.1668,7.4081,39.2547,-0.692,0.0735,0.4844,-54.345
16:59:07:003,-0.9642,0.6667,6.8528,39.0022,-0.8113,0.3364,0.5195,-54.45
16:59:07:023,-0.7867,0.6407,6.2911,38.1767,-0.6846,0.5685,0.6164,-54.5669
16:59:07:043,-0.4992,0.4472,5.8485,37.6274,-0.4546,0.7644,0.7027,-54.699
16:59:07:065,-0.4041,0.3333,5.0486,37.4776,-0.2545,0.9944,0.7687,-54.8489
16:59:07:083,-0.4561,0.6624,4.6138,37.1106,-0.2438,0.9837,0.8368,-55.0216
16:59:07:103,-0.6245,1.2799,5.1114,37.0164,-0.4386,0.5206,0.7942,-55.2222
16:59:07:123,-0.387,1.5621,6.5329,36.7273,-0.6643,-0.1331,0.6537,-55.4484
16:59:07:143,0.2401,1.4862,8.3409,36.6448,-0.7857,-0.5015,0.3375,-55.6911
16:59:07:164,0.0778,1.4111,10.1601,36.3793,-0.7176,-0.313,-0.083,-55.9329
16:59:07:183,-0.2326,0.5931,11.318,36.2559,-0.5888,0.2012,-0.3322,-56.1584
16:59:07:203,-0.8582,0.1773,11.9297,36.0365,-0.4237,0.7208,-0.4322,-56.3609
16:59:07:223,-1.4269,0.3241,12.3682,35.6197,-0.3386,0.8315,-0.3854,-56.5405
16:59:07:243,-1.6563,0.5308,12.9278,35.4389,-0.3098,0.6643,-0.2576,-56.7042
16:59:07:265,-1.7248,1.0162,13.5361,34.8283,-0.1757,0.5781,-0.0447,-56.8558
16:59:07:283,-1.7933,1.737,13.794,34.6891,0.1171,0.6611,0.1863,-57.0012
16:59:07:303,-1.5211,2.4306,13.4224,34.3042,0.2385,0.4078,0.3226,-57.1515
16:59:07:323,-0.1202,1.273,13.2885,34.4003,-0.016,-0.3705,0.2598,-57.3115
16:59:07:343,0.6339,-0.257,13.6186,34.5535,0.0543,-0.7399,0.0287,-57.4748
16:59:07:363,0.4332,-1.0111,12.7499,34.6253,0.6324,-0.6516,-0.0617,-57.6287
16:59:07:383,0.1121,-1.2592,11.058,34.4808,0.8634,-0.7559,-0.1043,-57.7736
16:59:07:403,0.2227,-1.3914,9.7548,34.209,0.5483,-1.1466,-0.0703,-57.9143
16:59:07:423,0.4034,-1.0325,8.9628,34.3753,0.0586,-1.3031,-0.0596,-58.0524
16:59:07:442,0.3384,-0.1607,8.4405,34.5328,-0.2811,-1.0913,-0.0373,-58.1855
16:59:07:463,0.2614,0.4519,7.7269,34.7506,-0.4024,-0.6707,-0.0564,-58.3113
16:59:07:483,0.1151,0.7297,6.9876,34.5673,-0.3535,-0.1714,-0.1022,-58.4274
16:59:07:503,0.0446,0.8209,6.1352,34.5056,-0.3024,0.2087,-0.1437,-58.5332
16:59:07:522,0.0805,0.8729,5.562,33.6486,-0.3109,0.3354,-0.2087,-58.6291
16:59:07:545,0.2505,0.9627,5.4403,32.632,-0.2938,0.2683,-0.3173,-58.6291
16:59:07:563,0.2557,1.0739,5.6692,31.9277,-0.2406,0.1533,-0.4865,-58.6291
16:59:07:583,0.2109,1.0345,6.3002,31.3485,-0.2044,-0.0586,-0.577,-58.6291
16:59:07:603,0.5598,0.8277,7.1073,30.9034,-0.2002,-0.1735,-0.6707,-58.6291
16:59:07:623,0.5667,0.8331,8.5901,31.0002,-0.2289,-0.1608,-0.8666,-58.6291
16:59:07:643,-0.0011,0.796,9.7715,30.7821,-0.2214,-0.0138,-0.9486,-58.6291
16:59:07:673,-0.7545,0.619,10.9085,30.8885,-0.1075,0.2023,-0.7548,-58.6291
16:59:07:683,-1.3818,0.9264,11.6142,30.9921,0.1341,0.379,-0.3524,-58.6291
16:59:07:703,-1.4069,1.2807,11.9433,31.1554,0.3268,0.4046,0.0692,-58.5388
16:59:07:723,-1.1852,1.7074,12.2027,30.9721,0.2672,0.1991,0.2374,-58.5388
16:59:07:743,-1.1733,1.6972,13.0507,30.9424,0.0277,0.0703,0.2417,-58.5388
16:59:07:763,-1.3376,1.3847,13.6551,30.73,0.0724,0.1831,0.3173,-58.5388
16:59:07:783,-1.8305,1.4868,13.5293,30.4241,0.3449,0.511,0.4578,-58.5388
16:59:07:803,-1.9853,1.2996,12.7474,30.75,0.5195,0.3364,0.4887,-58.5388
16:59:07:823,-1.9661,0.5357,11.965,31.0494,0.4397,-0.0979,0.3311,-58.5388
16:59:07:843,-2.233,0.1066,11.4847,31.2003,0.3439,-0.2353,0.2555,-58.5388
16:59:07:863,-2.2637,-0.1195,10.8947,31.6385,0.2332,-0.1522,0.3087,-58.5388
16:59:07:883,-1.9143,-0.4542,10.4543,31.6582,-0.0266,-0.2225,0.2832,-58.5388
16:59:07:903,-1.5353,-0.55,10.0679,31.7307,-0.2129,-0.1703,0.2214,-58.5388
16:59:07:925,-1.0783,-0.5508,9.2418,32.4826,-0.33,0.0394,0.1916,-58.5388
16:59:07:943,-0.7434,-0.3898,8.3057,32.8389,-0.3961,0.3524,0.1554,-58.5388
16:59:07:963,-0.6278,0.0696,7.2277,33.2333,-0.33,0.6697,0.1437,-58.5388
16:59:07:983,-0.7046,0.4325,6.2761,33.3535,-0.2225,0.7676,0.1501,-58.5388
16:59:08:003,-0.6449,0.541,5.5012,33.1802,-0.1075,0.7176,0.1916,-58.5388
16:59:08:024,-0.7323,0.7432,5.1155,32.7511,0.0085,0.6367,0.2108,-58.5388
16:59:08:043,-0.9749,0.7834,5.2708,32.7424,0.0596,0.3684,0.1746,-58.5388
16:59:08:064,-0.9115,0.4959,5.8334,32.7804,0.0234,-0.0628,0.0777,-58.5388
16:59:08:083,-0.9384,0.3695,6.7958,32.9319,-0.033,-0.3258,-0.0234,-58.5388
16:59:08:103,-0.9667,-0.1225,7.9592,33.0288,-0.1373,-0.3737,-0.0703,-58.5388
16:59:08:123,-1.3095,-0.3427,9.7454,33.0299,-0.1405,-0.2619,-0.0681,-58.5388
16:59:08:143,-1.2996,-0.4794,10.9518,33.0583,0.0607,-0.0767,0.0064,-58.5388
16:59:08:164,-1.0326,-0.3865,11.4229,32.8899,0.2108,0.0767,0.0319,-58.5388
16:59:08:183,-0.5629,-0.0827,11.3811,32.6502,0.1224,0.2768,-0.0394,-58.5388
16:59:08:203,-0.6751,0.5698,11.8948,32.5707,-0.1086,0.4908,-0.1299,-58.5388
16:59:08:223,-1.2036,1.2647,12.5793,32.0954,-0.2193,0.6942,-0.1001,-58.5388
16:59:08:243,-1.2249,1.813,13.223,31.7395,-0.28,0.7197,-0.0586,-58.5388
16:59:08:264,-0.3185,0.778,14.0077,31.573,-0.5345,0.1416,-0.3343,-58.5388
16:59:08:283,-0.4834,-0.1936,15.1991,31.8841,-0.477,-0.1991,-0.5749,-58.5388
16:59:08:305,-0.764,-0.9247,15.5922,32.1136,0.1522,-0.2949,-0.4472,-58.5388
16:59:08:323,-0.2659,-1.8691,14.4249,32.9642,0.6026,-0.625,-0.297,-58.5388
16:59:08:343,0.156,-2.0688,13.2939,33.6369,0.6761,-1.0316,-0.1182,-58.5388
16:59:08:363,0.2656,-1.0973,12.1409,34.2658,0.8208,-0.9784,0.0362,-58.5388
16:59:08:382,0.3078,-0.1911,10.1089,34.6306,1.0402,-0.5951,0.1054,-58.5388
16:59:08:404,0.2302,0.4955,7.7187,34.8933,1.1189,-0.164,0.099,-58.5388
16:59:08:423,-0.035,1.1023,5.8036,34.9412,1.0764,0.164,0.083,-58.5388
16:59:08:443,-0.0847,1.4345,4.4572,34.6147,0.9859,0.2598,0.0277,-58.5388
16:59:08:463,-0.0561,1.5878,3.4869,34.2013,0.8017,0.1363,-0.0841,-58.5388
16:59:08:483,0.3218,1.7965,3.3747,33.5886,0.543,-0.0287,-0.2576,-58.5388
16:59:08:504,0.5056,2.0821,4.2132,33.298,0.3524,-0.1022,-0.6164,-58.5388
16:59:08:523,-0.4117,2.0041,5.1432,33.1829,0.2172,-0.1416,-0.9742,-58.5388
16:59:08:543,-1.6482,1.5628,6.4518,33.1484,0.0192,-0.428,-1.0199,-58.5388
16:59:08:563,-2.2443,1.6454,7.8711,33.1894,-0.1618,-0.8166,-0.7719,-58.4414
16:59:08:583,-2.0958,2.1243,9.0268,33.6718,-0.2214,-0.609,-0.4088,-58.3224
16:59:08:603,-1.7918,2.6297,9.7896,33.7899,-0.1299,0.247,-0.0703,-58.1891
16:59:08:626,-1.5484,3.0753,9.8118,33.8483,0.0373,0.9997,0.1395,-58.0531
16:59:08:642,-1.8401,3.459,9.4273,33.7876,0.0543,1.1775,0.2321,-57.9255
16:59:08:663,-2.1443,3.2045,9.5275,33.9382,-0.1586,0.5632,0.3343,-57.8167
16:59:08:685,-1.8374,2.5885,10.7176,34.1739,-0.5121,-0.4354,0.4791,-57.8167
16:59:08:703,-1.2574,2.0925,12.3738,34.4509,-0.6462,-0.8113,0.6707,-57.8167
16:59:08:723,-0.2702,1.6472,13.7653,34.7395,-0.3865,-0.7378,0.8059,-57.8167
16:59:08:743,0.8325,0.5552,13.7769,35.1453,-0.1874,-0.7729,0.5057,-57.8167
16:59:08:763,0.3901,0.0921,13.5461,35.0662,-0.1491,-0.7453,0.0969,-57.8167
16:59:08:784,-0.4082,0.237,13.1604,35.4007,-0.1384,-0.6399,0.016,-57.8167
16:59:08:803,-0.3591,-0.1156,12.6641,35.2014,-0.33,-0.6675,-0.0554,-57.8167
16:59:08:823,-0.007,-0.4588,11.9121,35.0242,-0.5494,-0.56,-0.1256,-57.8167
16:59:08:843,0.2866,-0.0529,10.7903,35.0276,-0.7335,-0.2236,-0.1554,-57.8167
16:59:08:863,0.3106,0.3511,9.4344,34.6694,-0.84,0.28,-0.2598,-57.8167
16:59:08:883,-0.1713,0.8669,8.1419,34.7647,-0.8443,0.7634,-0.329,-57.8167
16:59:08:903,-0.6004,1.0296,7.1173,34.9051,-0.6675,1.038,-0.3205,-57.8167
16:59:08:923,-0.8562,0.8369,6.1609,34.6722,-0.4046,0.9944,-0.2608,-57.8167
16:59:08:943,-0.957,0.4907,5.4609,34.8212,-0.2225,0.7027,-0.1916,-57.8167
16:59:08:963,-0.9807,0.0328,5.3637,35.1171,-0.083,0.3194,-0.1203,-57.8167
16:59:08:983,-1.0519,-0.3037,5.3291,35.2009,0.0564,0.0309,-0.0341,-57.8167
16:59:09:003,-1.22,0.1348,5.6354,35.5426,0.0617,-0.148,0.0458,-57.8167
16:59:09:023,-1.0715,0.0588,6.2871,35.7026,-0.1672,-0.2747,0.0309,-57.8167
16:59:09:043,-1.0192,-0.1735,7.402,36.0426,-0.4482,-0.2023,-0.0575,-57.8167
16:59:09:065,-1.5693,0.2811,8.6851,36.2464,-0.6015,0.3311,-0.0862,-57.8167
16:59:09:083,-2.1446,0.7052,10.0245,36.2613,-0.658,0.9124,-0.1256,-57.8167
16:59:09:103,-2.2363,0.5613,11.2619,36.0812,-0.6952,1.0242,-0.2672,-57.8167
16:59:09:123,-2.1669,0.0278,12.5223,35.6619,-0.6537,0.9571,-0.4322,-57.7203
16:59:09:143,-2.4686,-0.1134,13.3536,35.4258,-0.4695,1.1019,-0.3865,-57.6114
16:59:09:164,-2.7056,-0.2023,13.8323,35.1438,-0.3503,1.3457,-0.0468,-57.4952
16:59:09:183,-2.3089,-0.3313,14.6109,34.6826,-0.4184,1.1541,0.3375,-57.3866
16:59:09:203,-0.6768,-1.5707,15.9343,34.6287,-0.5323,0.3737,0.4365,-57.3866
16:59:09:223,0.3614,-2.8564,16.793,34.567,0.0511,-0.33,0.3875,-57.3866
16:59:09:243,0.2273,-3.0032,15.3521,34.3514,1.103,-0.5345,0.329,-57.3866
16:59:09:263,-0.2904,-2.1018,12.7274,34.6501,1.6417,-0.8187,0.3673,-57.3866
16:59:09:283,-0.2207,-1.3046,10.7461,34.8013,1.6651,-0.9305,0.3886,-57.3866
16:59:09:303,-0.14,-0.0395,9.1741,34.9221,1.4181,-0.7591,0.3396,-57.3866
16:59:09:323,-0.0746,0.9265,7.6893,35.0113,1.0476,-0.3716,0.2193,-57.3866
16:59:09:343,-0.1412,1.1556,6.3444,34.6631,0.6761,-0.016,0.0245,-57.3866
16:59:09:363,-0.5721,1.1442,5.2603,33.9928,0.3918,0.1203,-0.1384,-57.3866
16:59:09:383,-0.976,1.1084,4.6986,33.7549,0.296,-0.0117,-0.1906,-57.3866
16:59:09:403,-0.9478,0.8469,4.4144,33.4481,0.3056,-0.3279,-0.1576,-57.3866
16:59:09:423,-0.4095,0.6109,4.3888,32.798,0.2821,-0.5547,-0.1533,-57.3866
16:59:09:445,-0.1716,0.6884,4.6826,32.7186,0.2055,-0.5781,-0.2033,-57.3866
16:59:09:464,-0.2334,1.0398,5.2608,32.3519,0.1011,-0.4855,-0.2545,-57.3866
16:59:09:483,-0.113,1.3315,6.2839,31.9999,-0.0128,-0.4791,-0.2981,-57.3866
16:59:09:503,-0.0245,1.1689,7.5367,31.6906,-0.1288,-0.5973,-0.4152,-57.3866
16:59:09:522,-0.7378,1.2862,8.5918,31.5782,-0.2033,-0.5451,-0.4291,-57.2915
16:59:09:544,-1.4261,1.4534,9.5286,31.5033,-0.1363,-0.1256,-0.0745,-57.1837
16:59:09:564,-1.6998,1.8328,10.5551,31.4156,0.0362,0.3024,0.3833,-57.0774
16:59:09:586,-2.0252,2.8061,11.5237,31.3967,0.1576,0.3045,0.5909,-57.0774
16:59:09:603,-2.3455,3.1592,12.3664,31.1732,0.2278,0.1927,0.7186,-57.0774
16:59:09:622,-2.5989,2.9366,13.2052,31.047,0.3577,0.2108,0.9199,-57.0774
16:59:09:644,-3.2079,3.2885,13.6559,30.7786,0.6835,0.5973,1.1903,-57.0774
16:59:09:680,-3.2013,3.6518,13.3833,30.8444,0.8613,0.5728,1.2574,-57.0774
16:59:09:683,-2.4552,2.8393,13.4108,30.5323,0.329,-0.0884,0.7144,-57.0774
16:59:09:703,-2.9219,1.9926,14.5164,30.4683,-0.0596,-0.4003,0.1363,-57.1783
16:59:09:722,-3.2708,0.8149,14.5811,30.356,-0.1214,-0.1895,-0.082,-57.2774
16:59:09:743,-3.1883,-0.4201,13.9084,30.0409,-0.1203,0.1022,-0.049,-57.3684
16:59:09:764,-2.4538,-0.9859,12.4664,29.6776,-0.0064,0.3961,0.2002,-57.3684
16:59:09:783,-1.4204,-0.9126,10.3618,29.5649,0.1043,0.6441,0.4834,-57.4617
16:59:09:803,-0.6207,-0.314,8.1158,29.8676,0.0256,0.6367,0.5802,-57.5712
16:59:09:825,-0.2989,0.6422,6.5202,29.8246,-0.1033,0.4365,0.4663,-57.6987
16:59:09:843,-0.1899,0.7912,5.2613,29.7413,-0.1129,0.181,0.3694,-57.8396
16:59:09:864,0.0124,0.4566,4.1296,29.7776,-0.132,-0.0309,0.3737,-57.9907
16:59:09:883,0.1073,0.4904,3.4834,29.7936,-0.2864,-0.1682,0.3982,-58.1528
16:59:09:903,0.0893,0.9528,3.6326,29.4176,-0.527,-0.2555,0.3673,-58.3265
16:59:09:924,-0.1209,1.2805,4.299,29.6754,-0.6303,-0.264,0.2587,-58.5084
16:59:09:943,-0.3334,1.655,5.1309,29.6836,-0.5962,-0.2097,0.1821,-58.6932
16:59:09:964,0.0172,1.6489,6.5893,29.3941,-0.7208,-0.3748,0.0628,-58.8806
16:59:09:983,0.7608,0.961,8.5026,29.6846,-0.8326,-0.363,-0.2619,-59.0634
16:59:10:003,0.7666,0.4655,10.4993,29.3453,-0.6611,0.0053,-0.7154,-59.2249
16:59:10:024,-0.2111,0.3397,11.1457,28.8164,-0.2598,0.5121,-1.0008,-59.3457
16:59:10:043,-1.3847,-0.0613,11.6716,28.4476,-0.0671,0.625,-0.8996,-59.3457
16:59:10:064,-2.0767,0.6262,12.4841,27.7943,-0.0681,0.4653,-0.478,-59.3457
16:59:10:083,-2.0294,1.9491,13.5273,27.1777,-0.05,0.2704,-0.1139,-59.3457
16:59:10:103,-1.5733,2.482,14.0851,26.9376,0.1863,0.0564,0.0777,-59.3457
16:59:10:123,-1.0449,2.5694,13.8468,26.4328,0.5589,-0.2619,0.1948,-59.3457
16:59:10:143,-0.118,1.8774,13.2779,26.492,0.6622,-0.7878,0.1214,-59.3457
16:59:10:163,0.3271,0.8866,12.8886,26.4166,0.5451,-0.8751,-0.2183,-59.3457
16:59:10:183,-0.5185,0.7093,12.4979,26.0991,0.6526,-0.4535,-0.4621,-59.3457
16:59:10:203,-1.262,0.3856,11.3205,26.3119,0.6292,-0.2236,-0.5121,-59.3457
16:59:10:223,-1.2344,-0.3247,10.4543,26.356,0.2385,-0.363,-0.4567,-59.3457
16:59:10:243,-0.8507,-0.5122,10.395,26.5426,-0.2545,-0.6462,-0.395,-59.3457
16:59:10:263,-0.3715,-0.0883,10.345,26.5843,-0.3865,-0.5046,-0.3556,-59.3457
16:59:10:283,-0.1624,0.3041,9.2356,26.2079,-0.1565,-0.0703,-0.4067,-59.3457
16:59:10:304,-0.2522,0.8,7.4439,26.2114,0.0894,0.296,-0.444,-59.3457
16:59:10:323,-0.3855,1.1931,5.8414,25.8442,0.1767,0.3929,-0.4919,-59.3457
16:59:10:343,-0.3015,1.3221,4.8875,25.6717,0.1288,0.2779,-0.5738,-59.3457
16:59:10:363,-0.464,1.2585,4.7348,25.4689,0.0554,0.0458,-0.6803,-59.242
16:59:10:382,-0.7159,1.1705,4.7757,25.2085,0.0437,-0.2523,-0.7016,-59.1195
16:59:10:404,-0.8713,1.1585,5.0184,24.7572,-0.0277,-0.4546,-0.6718,-58.9782
16:59:10:423,-1.1754,1.2993,5.726,24.5335,-0.198,-0.6164,-0.5728,-58.8176
16:59:10:443,-1.1408,1.4436,7.3266,24.6277,-0.3481,-0.8443,-0.4823,-58.6483
16:59:10:464,-0.9404,1.3947,8.7305,24.6629,-0.3737,-0.8805,-0.5025,-58.4674
16:59:10:483,-1.3106,1.4605,9.7726,24.7208,-0.297,-0.5621,-0.5195,-58.2708
16:59:10:503,-1.4642,1.1912,10.7225,24.6733,-0.0979,-0.3386,-0.3162,-58.0604
16:59:10:523,-1.0977,0.8424,11.3243,24.6108,0.1203,-0.2225,0.0351,-57.8466
16:59:10:543,-1.1888,1.3614,11.7418,24.8239,0.2949,-0.0202,0.3407,-57.6417
16:59:10:563,-1.4574,2.1611,11.9517,24.858,0.3758,-0.0192,0.6005,-57.4573
16:59:10:583,-0.9962,2.2119,11.9734,24.9755,0.297,-0.0937,0.9369,-57.3044
16:59:10:603,-0.3357,2.3945,12.2805,24.8951,0.1757,0.0532,1.1775,-57.1915
16:59:10:623,-0.3632,3.4265,12.5628,24.828,0.2726,0.6122,1.2744,-57.1915
16:59:10:643,-0.1388,3.5012,12.5093,24.4945,0.428,0.6878,1.0796,-57.1915
16:59:10:663,-0.1726,2.8071,11.8459,24.1856,0.3535,0.1512,0.5142,-57.1915
16:59:10:684,-0.8006,1.8425,11.6635,24.3268,0.1246,-0.4173,0.0937,-57.1915
16:59:10:703,-0.9305,0.6866,11.8807,24.2811,-0.1501,-0.7697,-0.1107,-57.1915
16:59:10:723,-1.0141,-0.209,12.0786,24.5207,-0.3513,-0.7144,-0.2268,-57.1915
16:59:10:743,-1.1358,-0.6145,11.7011,25.0763,-0.3737,-0.2683,-0.1895,-57.1915
16:59:10:763,-1.0778,-0.6809,10.3806,25.5708,-0.3194,0.4014,-0.0075,-57.1915
16:59:10:784,-1.1534,-0.3109,8.7223,25.8008,-0.3215,1.0412,0.1746,-57.1915
16:59:10:803,-1.4042,0.201,7.2117,26.251,-0.2981,1.4277,0.3237,-57.1915
16:59:10:823,-1.5503,0.4444,6.2418,26.2903,-0.2161,1.3606,0.4557,-57.1915
16:59:10:843,-1.3074,0.4238,5.5876,26.426,-0.0841,0.8837,0.5802,-57.1915
16:59:10:863,-1.0054,0.4591,5.1623,26.1104,0.1256,0.3599,0.6718,-57.1915
16:59:10:884,-0.7999,0.6045,4.9198,25.959,0.2949,-0.0192,0.6803,-57.1915
16:59:10:903,-0.7622,0.803,4.9219,25.7895,0.165,-0.297,0.6345,-57.3034
16:59:10:923,-0.2693,0.7848,5.7402,25.8679,-0.2491,-0.5132,0.5664,-57.4367
16:59:10:943,0.57,0.4719,7.4325,25.7831,-0.8049,-0.8656,0.3684,-57.5886
16:59:10:966,0.9609,0.3288,9.4722,25.6865,-1.202,-0.9092,0.0383,-57.7475
16:59:10:983,0.8476,0.2445,11.2596,25.6603,-1.1711,-0.2992,-0.1948,-57.8929
16:59:11:004,0.3394,0.3097,12.2622,25.6365,-0.7602,0.4131,-0.2289,-58.0213
16:59:11:023,-0.016,0.566,12.4866,25.3029,-0.3865,0.5611,-0.1948,-58.1336
16:59:11:043,-0.2114,1.0031,12.599,25.1379,-0.148,0.4184,-0.2374,-58.2349
16:59:11:064,-0.6842,1.3464,12.5582,24.9633,0.0969,0.5036,-0.2662,-58.2349
16:59:11:083,-1.3075,1.7623,12.3235,24.9054,0.2555,0.6761,-0.1895,-58.2349
16:59:11:103,-1.3318,2.0347,11.9199,25.1565,0.2374,0.5291,-0.0756,-58.2349
16:59:11:123,0.2825,0.3258,11.8765,25.3864,-0.066,-0.4993,-0.1757,-58.2349
16:59:11:143,1.5626,-1.2008,12.0763,25.377,-0.1395,-1.3297,-0.4503,-58.2349
16:59:11:164,1.7504,-1.6481,11.9623,25.5588,0.2576,-1.6715,-0.6686,-58.2349
16:59:11:183,1.8806,-1.9107,10.9089,25.6345,0.4035,-1.7939,-0.6973,-58.2349
16:59:11:203,2.3887,-1.828,10.035,25.6552,-0.1416,-1.4426,-0.643,-58.2349
16:59:11:223,2.6706,-1.1935,9.9825,25.8274,-0.9231,-0.6729,-0.6399,-58.2349
16:59:11:243,2.2617,-0.5808,10.0456,26.1227,-1.2776,0.2225,-0.7357,-58.2349
16:59:11:264,1.2768,0.0215,9.8227,26.5901,-1.1094,0.9081,-0.8581,-58.2349
16:59:11:283,0.3557,0.448,8.9938,26.6159,-0.6026,1.1541,-0.9135,-58.119
16:59:11:303,-0.3094,0.6712,7.6364,26.4193,-0.0692,0.9603,-0.9177,-57.9714
16:59:11:323,-0.7435,0.786,6.6275,26.26,0.3056,0.5696,-0.9358,-57.7961
16:59:11:343,-1.004,0.6885,5.8868,25.7695,0.5398,0.2055,-0.922,-57.5949
16:59:11:363,-1.0837,0.6859,5.4106,25.4514,0.5898,0.0341,-0.8304,-57.3701
16:59:11:384,-1.1414,0.8224,5.6998,25.1236,0.5164,-0.0096,-0.6995,-57.1264
16:59:11:402,-0.8935,0.8973,6.6269,25.1801,0.3215,-0.1171,-0.6132,-56.8693
16:59:11:423,-0.5924,0.9343,8.1748,25.3778,0.0767,-0.3013,-0.6814,-56.6015
16:59:11:445,-0.8001,0.9549,9.6892,25.5472,0.0075,-0.2619,-0.7495,-56.3175
16:59:11:464,-1.007,0.6568,10.7468,25.6616,0.0447,0.0351,-0.5909,-56.0153
16:59:11:483,-1.0915,0.6887,11.464,25.7746,0.0873,0.51,-0.3311,-55.701
16:59:11:502,-1.1486,0.7941,12.041,25.7746,0.1256,0.8283,-0.0873,-55.3852
16:59:11:523,-1.38,1.1313,12.32,25.8661,0.1533,0.7953,0.0777,-55.0776
16:59:11:543,-1.6592,1.4271,12.5529,25.7289,0.165,0.5472,0.2598,-54.7848
16:59:11:564,-1.7495,1.8519,12.613,25.5328,0.1799,0.1821,0.4961,-54.5136
16:59:11:583,-1.6692,2.5338,12.6837,25.225,0.2491,0.0266,0.7676,-54.2706
16:59:11:603,-1.1124,2.6422,12.5318,24.9497,0.3364,-0.1075,0.8294,-54.063
16:59:11:622,-0.3946,1.4258,12.3999,24.9052,0.3056,-0.5675,0.5398,-53.8912
16:59:11:643,-0.5262,-0.0949,12.5988,24.8139,0.2353,-1.1253,0.0298,-53.7427
16:59:11:664,-1.3529,-1.4382,12.633,24.8923,0.3162,-1.2659,-0.2129,-53.5972
16:59:11:691,-2.2684,-1.9174,12.2386,24.878,0.5515,-0.988,-0.0617,-53.4472
16:59:11:704,-2.6111,-1.8204,11.4428,24.6473,0.6846,-0.6675,0.3567,-53.3023
16:59:11:723,-2.1942,-1.5366,10.3278,24.5144,0.642,-0.3961,0.7272,-53.1787
16:59:11:743,-1.4611,-1.2509,9.0458,24.7265,0.4322,-0.0266,0.9561,-53.0872
16:59:11:764,-0.9149,-0.6941,8.0731,24.8094,0.1842,0.3865,1.0444,-53.0872
16:59:11:783,-0.6758,0.0536,7.3014,24.8927,0.0447,0.7133,1.0625,-53.0872
16:59:11:803,-0.4558,0.4788,6.5909,24.6937,0.1011,1.0082,1.0785,-53.0872
16:59:11:825,-0.0635,0.7232,5.6322,24.1791,0.2885,1.2403,1.0987,-53.0872
16:59:11:843,-0.0155,1.2741,4.7395,23.6056,0.411,1.35,1.0402,-53.0872
16:59:11:864,-0.3434,1.6742,4.2938,23.4313,0.4195,1.2254,0.9603,-53.2156
16:59:11:883,-0.2335,1.5846,4.2099,23.4368,0.3684,0.7846,0.8688,-53.3708
16:59:11:903,0.1451,1.5592,4.4907,23.4606,0.1501,0.3311,0.642,-53.5541
16:59:11:923,0.0136,1.5429,5.3881,23.7305,-0.2726,-0.05,0.2768,-53.7572
16:59:11:943,-0.5657,1.4418,7.7167,23.7942,-0.6324,-0.2736,0.05,-53.9638
16:59:11:964,-0.5947,1.3739,9.8609,23.6183,-0.7112,-0.3939,-0.0309,-54.1674
16:59:11:983,0.1766,1.0965,11.2125,23.5124,-0.6792,-0.2183,-0.1874,-54.3612
16:59:12:003,0.5583,0.729,12.1957,23.3748,-0.9486,0.0362,-0.5462,-54.5398
16:59:12:024,-0.0449,0.8839,13.7443,22.9384,-1.2776,0.4834,-0.774,-54.6876
16:59:12:043,-0.8261,0.815,14.8992,22.7715,-1.1828,1.3042,-0.7495,-54.8035
16:59:12:064,-1.6248,0.8295,14.8573,22.3914,-0.5398,2.009,-0.5983,-54.8035
16:59:12:083,-2.4145,1.5981,13.653,22.3595,0.1384,1.9632,-0.3822,-54.8035
16:59:12:103,-2.0704,1.7987,12.6748,22.1225,0.3418,0.857,-0.2981,-54.8035
16:59:12:123,-1.2302,0.5471,12.8708,22.0095,0.1597,-0.3886,-0.511,-54.8035
16:59:12:146,-0.5598,-1.4445,13.2697,22.2031,0.1821,-0.955,-0.6388,-54.8035
16:59:12:163,-0.3337,-2.451,12.9285,22.1201,0.2502,-1.004,-0.5962,-54.8035
16:59:12:183,-0.1476,-2.4299,12.1527,22.3824,0.2065,-0.8326,-0.4003,-54.8035
16:59:12:205,0.1886,-1.8114,11.0594,22.8291,0.0724,-0.5355,-0.198,-54.8035
16:59:12:223,0.2885,-0.7151,9.8034,22.6831,0.05,-0.0639,-0.1171,-54.8035
16:59:12:243,0.1492,0.2066,8.4481,22.7988,0.1725,0.2513,-0.1799,-54.8035
16:59:12:263,-0.0453,0.7515,6.8476,22.7343,0.3449,0.3545,-0.2672,-54.8035
16:59:12:283,-0.0608,0.9714,5.4921,22.6051,0.4578,0.2853,-0.3247,-54.8035
16:59:12:304,-0.0006,1.2028,4.6679,21.9681,0.4631,0.0958,-0.3982,-54.8035
16:59:12:323,0.1003,1.199,4.4557,21.6716,0.445,-0.1033,-0.3726,-54.8035
16:59:12:343,0.4867,1.1137,4.6677,21.3352,0.5206,-0.2768,-0.3758,-54.7012
16:59:12:363,0.6681,1.344,5.1277,21.1964,0.543,-0.5941,-0.5355,-54.5887
16:59:12:382,0.2222,1.8907,6.1849,21.1254,0.4674,-0.8805,-0.7761,-54.46
16:59:12:403,-0.4349,1.8742,7.3316,21.2267,0.3801,-0.9209,-0.906,-54.3071
16:59:12:423,-1.1487,1.9208,8.27,21.3681,0.1682,-0.4887,-0.8911,-54.125
16:59:12:443,-2.1651,2.1481,9.2635,21.4682,-0.1714,0.131,-0.7602,-53.9158
16:59:12:463,-3.3925,2.1786,10.6326,21.289,-0.4088,0.4461,-0.4791,-53.688
16:59:12:482,-4.0677,1.7486,12.2019,21.2282,-0.4014,0.2183,-0.0681,-53.4564
16:59:12:506,-3.8461,1.3633,13.182,21.2539,-0.3056,-0.33,0.2779,-53.2367
16:59:12:523,-3.1716,1.0428,13.7767,21.7088,-0.247,-0.4088,0.5217,-53.0362
16:59:12:543,-2.8465,0.9684,14.1667,21.8629,0.0426,-0.0277,0.6963,-52.8572
16:59:12:563,-2.6932,0.9916,13.5009,22.2589,0.4248,0.0138,0.774,-52.706
16:59:12:585,-2.1141,-0.0303,12.7882,22.1717,0.4237,-0.5504,0.6526,-52.5891
16:59:12:603,-1.9355,-0.5569,12.4029,22.3778,0.3066,-0.8027,0.4653,-52.4986
16:59:12:623,-2.0148,-0.4962,12.0013,22.4827,0.2204,-0.5334,0.4461,-52.4986
16:59:12:643,-1.8423,-0.5987,11.4884,22.58,-0.0149,-0.2236,0.428,-52.4986
16:59:12:663,-1.6721,-0.699,11.0285,22.6993,-0.3013,0.0468,0.3599,-52.4986
16:59:12:685,-1.3875,-0.9061,10.2893,22.7717,-0.5206,0.3215,0.2843,-52.4986
16:59:12:703,-1.2053,-1.0328,9.17,22.4217,-0.6537,0.6718,0.2608,-52.4986
16:59:12:723,-1.3763,-0.5863,8.0563,22.2178,-0.5643,1.0785,0.3524,-52.4986
16:59:12:743,-1.5593,0.0385,6.9471,21.7882,-0.3247,1.2116,0.5824,-52.4986
16:59:12:763,-1.2604,0.2271,5.8882,21.5439,-0.0362,1.0923,0.8496,-52.4986
16:59:12:785,-0.6142,0.0543,5.1083,21.6393,0.2044,0.9273,0.9944,-52.4986
16:59:12:803,-0.3189,0.132,4.5876,21.666,0.4141,0.7878,1.0167,-52.4986
16:59:12:824,-0.4561,0.4088,4.4846,21.7713,0.5302,0.6452,1.0029,-52.6132
16:59:12:843,-0.5951,0.9036,4.9032,21.7489,0.3897,0.5919,0.9443,-52.7531
16:59:12:867,-0.6288,1.1315,6.0641,21.8593,-0.0862,0.4812,0.7996,-52.9231
16:59:12:883,-0.4229,0.6866,8.5998,22.1171,-0.6313,-0.2608,0.4748,-53.1219
16:59:12:903,0.0276,-0.0378,11.5361,22.3275,-0.5345,-0.8155,0.0426,-53.3321
16:59:12:923,-0.0934,-0.072,12.6438,22.335,0.1959,-0.4876,-0.2906,-53.5298
16:59:12:943,-0.4203,0.3911,11.6324,22.3938,0.5472,0.0202,-0.4578,-53.704
16:59:12:966,-1.067,1.6088,11.0015,22.2573,0.2225,0.3268,-0.5707,-53.8549
16:59:12:983,-1.6355,2.5842,11.5616,22.1551,-0.2193,0.4408,-0.6771,-53.9827
16:59:13:003,-2.4011,2.9214,12.6214,22.2343,-0.1938,0.5632,-0.6729,-54.0829
16:59:13:023,-3.0959,3.6239,13.0378,21.862,0.0415,0.4482,-0.5408,-54.0829
16:59:13:043,-2.1874,2.7871,13.3112,21.966,0.0852,-0.4173,-0.4418,-54.0829
16:59:13:065,-1.0227,0.8217,13.7339,21.902,0.1906,-1.0487,-0.6281,-54.0829
16:59:13:083,-1.0813,-0.2354,13.3539,21.8477,0.6399,-1.0529,-0.7719,-54.0829
16:59:13:103,-1.5649,-0.528,11.8012,22.0251,0.7218,-1.0316,-0.741,-54.0829
16:59:13:123,-1.6437,-0.9011,10.7886,22.1092,0.3364,-1.2723,-0.5632,-54.0829
16:59:13:143,-1.1179,-0.9706,9.8702,22.3076,-0.0202,-1.4362,-0.3428,-54.0829
16:59:13:165,-0.6685,-0.4265,8.7227,22.5239,-0.164,-1.3329,-0.2002,-54.0829
16:59:13:183,-0.3136,0.371,7.7689,22.7807,-0.2502,-1.0678,-0.1767,-54.0829
16:59:13:203,0.1819,0.7248,6.8627,22.7923,-0.2992,-0.4301,-0.2906,-54.0829
16:59:13:223,0.2777,0.6701,5.9313,22.9886,-0.3652,0.3343,-0.4684,-53.9912
16:59:13:243,-0.0422,0.655,5.265,23.0098,-0.4418,0.7719,-0.6154,-53.8832
16:59:13:264,-0.7248,0.7947,5.1958,22.7305,-0.4759,0.7953,-0.7186,-53.7557
16:59:13:283,-1.0339,0.7396,5.5964,22.6228,-0.3961,0.3386,-0.6899,-53.6099
16:59:13:303,-0.9299,0.6871,6.0937,22.3258,-0.2395,-0.1437,-0.6015,-53.4478
16:59:13:323,-0.8656,0.8063,6.5502,22.424,-0.099,-0.2672,-0.5142,-53.2706
16:59:13:347,-0.8472,0.9945,7.293,22.0813,-0.0671,-0.2992,-0.4408,-53.0818
16:59:13:364,-0.8959,0.8809,8.6233,22.2347,-0.1235,-0.3833,-0.4354,-52.8845
16:59:13:383,-1.2779,0.7758,10.0942,22.1635,-0.1246,-0.4397,-0.3918,-52.6786
16:59:13:403,-1.699,0.9586,11.3233,22.0657,-0.0607,-0.3332,-0.2172,-52.4652
16:59:13:423,-1.9503,1.0813,12.0362,21.8376,0.099,0.0607,0.0809,-52.2495
16:59:13:445,-2.099,1.0983,12.4574,22.0655,0.2427,0.3194,0.4567,-52.0442
16:59:13:464,-1.6935,1.3427,12.8913,21.9421,0.2342,0.2225,0.7144,-51.8644
16:59:13:483,-1.048,1.4987,13.5668,21.9462,0.1416,0.0096,0.7506,-51.7173
16:59:13:503,-0.7375,1.7144,14.2144,21.8962,0.2353,-0.0138,0.7154,-51.6
16:59:13:523,-0.9179,2.1386,13.9569,22.1442,0.5898,0.1341,0.691,-51.5076
16:59:13:545,-1.0436,2.0975,12.9217,22.2048,0.8059,-0.0703,0.6324,-51.5076
16:59:13:564,-1.0417,1.3911,11.9289,22.249,0.8294,-0.3024,0.4919,-51.5076
16:59:13:583,-1.4891,1.2139,10.9815,22.4384,0.9007,-0.2832,0.3513,-51.5076
16:59:13:603,-1.8106,1.1594,9.7341,22.4493,0.6164,-0.3141,0.2438,-51.5076
16:59:13:623,-1.589,0.3533,9.5278,22.5363,0.0277,-0.5526,0.1405,-51.5076
16:59:13:644,-1.2199,-0.3714,9.6098,22.4841,-0.378,-0.6037,0.0064,-51.5076
16:59:13:665,-1.0413,-0.7576,9.2817,22.8595,-0.61,-0.4578,-0.1033,-51.5076
16:59:13:697,-0.8822,-0.9233,8.4664,23.1801,-0.7506,-0.2545,-0.0884,-51.5076
16:59:13:706,-0.7848,-0.5341,7.6357,23.529,-0.757,0.0564,0.0479,-51.5076
16:59:13:723,-0.6462,-0.1837,6.8395,23.7699,-0.6537,0.4216,0.214,-51.5076
16:59:13:743,-0.35,-0.0583,6.3247,24.263,-0.5632,0.6739,0.3322,-51.5076
16:59:13:763,-0.2918,0.1232,5.9666,24.3264,-0.444,0.9646,0.3801,-51.5076
16:59:13:783,-0.4481,0.4345,5.5484,24.5996,-0.2736,1.1509,0.4248,-51.5076
16:59:13:803,-0.7751,0.9027,5.6414,24.5049,-0.2012,0.9518,0.4354,-51.5076
16:59:13:826,-0.9047,1.2123,6.5851,24.3792,-0.2843,0.3971,0.3907,-51.5076
16:59:13:843,-0.4385,0.9673,8.1069,24.3469,-0.3034,-0.2481,0.2193,-51.5076
16:59:13:863,0.1518,0.3057,9.443,24.1613,-0.1054,-0.4461,-0.0713,-51.5076
16:59:13:883,-0.1953,0.2185,10.2037,23.9217,0.1714,-0.0554,-0.3098,-51.5076
16:59:13:903,-1.0408,0.2294,10.7302,23.8649,0.264,0.3013,-0.33,-51.5076
16:59:13:923,-1.6905,0.2998,11.5805,23.7277,0.164,0.3194,-0.2119,-51.5076
16:59:13:943,-1.9637,0.8251,12.2303,23.6982,0.1703,0.3961,-0.0064,-51.5076
16:59:13:963,-2.0091,2.0815,12.7082,24.0872,0.2119,0.3865,0.2353,-51.5076
16:59:13:983,-1.6946,3.1172,13.1079,23.962,0.2949,0.3205,0.4248,-51.5076
16:59:14:003,-0.7184,3.5093,13.7821,23.9102,0.3258,-0.1001,0.4184,-51.5076
16:59:14:024,0.8488,2.3231,14.4225,23.6852,0.1916,-0.691,0.0692,-51.5076
16:59:14:043,1.1042,0.8677,14.8291,23.4771,0.3492,-0.5621,-0.3705,-51.5076
16:59:14:063,0.2613,-0.1797,13.7929,23.3604,0.6633,-0.2513,-0.6239,-51.5076
16:59:14:083,-0.364,-1.1223,12.4573,23.2595,0.626,-0.2885,-0.5983,-51.5076
16:59:14:104,-0.4475,-1.6136,11.4817,23.3823,0.4163,-0.4961,-0.3652,-51.5076
16:59:14:123,-0.3765,-1.1416,10.439,23.3802,0.3726,-0.411,-0.0777,-51.5076
16:59:14:144,-0.4467,-0.3009,8.976,23.2413,0.461,-0.2481,0.1384,-51.5076
16:59:14:163,-0.2972,0.1799,7.2976,23.1925,0.5227,-0.231,0.214,-51.5076
16:59:14:183,-0.0291,0.6049,6.1421,23.2401,0.5025,-0.3662,0.2151,-51.5076
16:59:14:206,0.3043,1.0623,5.4692,22.9905,0.4823,-0.4738,0.1821,-51.5076
16:59:14:223,0.6844,1.2922,5.3122,23.0446,0.4791,-0.4727,-0.0021,-51.5076
16:59:14:243,0.8899,1.1336,5.1746,22.7828,0.4727,-0.2672,-0.3066,-51.5076
16:59:14:263,0.5323,0.9776,4.7895,22.6257,0.363,0.0724,-0.5483,-51.5076
16:59:14:283,-0.3005,1.1251,5.0366,22.7902,0.132,0.2992,-0.6377,-51.5076
16:59:14:305,-0.9838,1.3226,5.6378,22.8033,-0.1352,0.3258,-0.5515,-51.5076
16:59:14:323,-1.2022,1.4652,6.6104,22.9619,-0.3982,0.2353,-0.445,-51.5076
16:59:14:343,-1.2704,1.5277,8.0093,23.05,-0.5526,0.1501,-0.3694,-51.5076
16:59:14:363,-1.5474,1.7264,9.5499,23.2037,-0.4716,0.0266,-0.2417,-51.5076
16:59:14:383,-1.2288,1.7355,10.6229,23.238,-0.3386,-0.164,-0.0479,-51.5076
16:59:14:404,-1.0827,2.1775,11.5981,23.1633,-0.3151,-0.2938,0.0405,-51.5076
16:59:14:423,-1.1314,2.6279,12.2974,23.1774,-0.264,-0.198,0.131,-51.5076
16:59:14:443,-1.1797,2.981,12.9611,23.0279,-0.1938,0.0639,0.2885,-51.5076
16:59:14:463,-0.9592,3.2587,13.3199,22.8816,-0.0671,0.3215,0.5632,-51.5076
16:59:14:483,-0.6267,3.4975,13.4647,22.9415,0.2768,0.4823,0.7197,-51.5076
16:59:14:504,-0.6101,3.7898,12.8682,22.9013,0.5749,0.4823,0.5334,-51.5076
16:59:14:523,-0.7948,2.9055,12.1604,23.1622,0.5643,-0.0884,0.1022,-51.5076
16:59:14:543,-1.5226,1.643,11.6331,23.4677,0.4983,-0.3524,-0.1416,-51.5076
16:59:14:564,-2.3221,1.2526,11.046,23.6123,0.5323,-0.1459,-0.1916,-51.5076
16:59:14:586,-2.6721,0.8653,10.2098,23.4921,0.3343,-0.0873,-0.1618,-51.5076
16:59:14:603,-2.6779,0.2725,9.7946,23.3971,-0.1054,-0.1725,-0.0979,-51.5076
16:59:14:623,-2.3479,-0.0655,9.6392,23.2672,-0.4429,-0.164,0.0256,-51.5076
16:59:14:643,-1.7917,-0.3283,9.1163,23.4761,-0.5643,0.0405,0.1075,-51.5076
16:59:14:663,-1.4979,-0.2591,8.0534,24.0098,-0.4748,0.4014,0.2044,-51.5076
16:59:14:686,-1.3098,-0.0322,6.7829,24.2812,-0.2523,0.7964,0.3875,-51.5076
16:59:14:704,-1.0426,0.1504,5.4605,24.8334,-0.0298,0.9827,0.6239,-51.5076
16:59:14:723,-0.6578,0.2862,4.471,24.9982,0.0894,0.8496,0.8006,-51.5076
16:59:14:743,-0.3457,0.6642,3.97,24.6197,0.1214,0.5909,0.873,-51.5076
16:59:14:763,-0.1006,1.0057,3.9641,24.5027,0.1278,0.3471,0.8411,-51.5982
16:59:14:785,0.1231,1.2963,4.3653,24.2206,-0.0692,-0.0021,0.6899,-51.718
16:59:14:803,0.3933,1.2772,5.5783,24.1018,-0.6729,-0.4642,0.412,-51.8634
16:59:14:823,0.5605,0.8358,8.1417,23.7636,-1.3532,-0.9529,0.0437,-52.0223
16:59:14:843,0.4235,0.3669,10.8519,23.9603,-1.6215,-0.8315,-0.1789,-52.1777
16:59:14:867,0.3841,0.1334,13.1129,23.7655,-1.3127,-0.1469,-0.181,-52.3146
16:59:14:884,0.5208,-0.0051,14.1696,23.7096,-0.8826,0.5536,-0.1757,-52.4339
16:59:14:903,0.0111,0.4468,14.5571,23.7396,-0.6686,0.939,-0.4152,-52.538
16:59:14:923,-0.9971,0.9818,14.4287,23.5665,-0.4291,1.136,-0.5941,-52.538
16:59:14:943,-2.1426,1.6479,13.7094,23.5765,-0.164,1.4128,-0.5707,-52.538
16:59:14:967,-2.9564,2.7127,12.7783,23.6932,-0.0554,1.6928,-0.4024,-52.538
16:59:14:983,-2.7264,2.1913,12.2494,23.8199,-0.2417,1.4905,-0.4216,-52.538
16:59:15:003,-2.752,0.937,12.8779,23.8531,-0.1725,0.8453,-0.5792,-52.538
16:59:15:023,-3.0454,0.0113,12.8137,24.1066,0.3556,0.0948,-0.4695,-52.538
16:59:15:043,-2.614,-1.0164,11.4305,24.2705,0.6005,-0.4163,-0.2513,-52.538
16:59:15:065,-1.8421,-1.656,10.7409,24.1976,0.3971,-0.8081,-0.0767,-52.538
16:59:15:083,-1.0439,-1.6215,10.4546,24.4811,0.164,-0.9081,0.0798,-52.538
16:59:15:103,-0.4937,-1.1159,9.8376,24.8156,0.1437,-0.5004,0.1618,-52.538
16:59:15:123,-0.2935,-0.5509,8.7509,25.3182,0.2555,-0.0341,0.1352,-52.538
16:59:15:142,-0.3207,-0.0946,7.3278,25.8035,0.3875,0.1735,0.0681,-52.538
16:59:15:165,-0.4149,0.3793,6.0203,26.2162,0.4844,0.1618,0.0128,-52.538
16:59:15:184,-0.3444,0.715,5.0902,26.3825,0.5345,-0.0479,-0.0468,-52.538
16:59:15:203,-0.0907,0.9535,4.562,26.2986,0.5345,-0.3098,-0.1469,-52.538
16:59:15:223,0.1395,1.1254,4.2243,26.0029,0.4855,-0.3737,-0.2757,-52.538
16:59:15:243,0.0551,1.3536,4.0701,25.5981,0.3205,-0.2438,-0.4472,-52.538
16:59:15:264,-0.1113,1.6962,4.4662,25.4963,-0.0096,-0.1799,-0.5334,-52.538
16:59:15:283,-0.0937,1.8739,5.84,25.1856,-0.3843,-0.4216,-0.6399,-52.538
16:59:15:303,-0.4057,1.8343,8.0204,24.8687,-0.692,-0.7463,-0.8166,-52.4456
16:59:15:323,-1.0537,1.6855,10.2447,24.5682,-0.757,-0.7868,-0.9188,-52.3286
16:59:15:347,-1.7514,1.2942,12.0287,24.7861,-0.5909,-0.379,-0.79,-52.1816
16:59:15:363,-2.3968,1.0984,13.4147,24.6298,-0.3226,0.115,-0.5387,-52.0096
16:59:15:383,-3.2023,1.0633,14.3322,24.56,-0.0405,0.313,-0.2204,-51.8244
16:59:15:403,-3.6283,1.2381,14.6208,24.8856,0.1938,0.2055,0.1352,-51.6394
16:59:15:423,-3.5406,1.2764,14.7115,24.7855,0.4152,0.0192,0.5132,-51.4687
16:59:15:445,-3.2359,1.5694,14.2614,24.7243,0.8283,0.2225,0.8847,-51.3167
16:59:15:464,-3.1102,2.1138,12.866,25.1177,1.3297,0.4642,1.1732,-51.2014
16:59:15:484,-2.9284,2.2843,10.9853,25.1527,1.5448,0.1661,1.1583,-51.2014
16:59:15:503,-2.7451,1.5852,9.6148,25.1252,1.3042,-0.4216,0.8507,-51.2014
16:59:15:523,-2.9192,0.8749,9.296,25.0244,0.8581,-0.8219,0.5046,-51.2014
16:59:15:545,-3.0345,0.3767,9.3439,24.9083,0.4035,-0.938,0.3002,-51.2014
16:59:15:564,-2.9809,0.0547,9.3504,24.9388,-0.0724,-0.7932,0.2097,-51.2014
16:59:15:583,-2.6213,-0.3041,9.2775,24.6051,-0.5355,-0.4173,0.2427,-51.2014
16:59:15:603,-1.8586,-0.7965,9.1597,24.7279,-0.9635,-0.049,0.2672,-51.2014
16:59:15:623,-1.2135,-0.9343,8.8399,24.5942,-1.2808,0.2715,0.2151,-51.2014
16:59:15:645,-1.0896,-0.5198,8.1261,24.2508,-1.2989,0.6654,0.165,-51.2014
16:59:15:664,-1.1201,-0.194,6.8858,24.3818,-1.1008,0.9923,0.1554,-51.2014
16:59:15:683,-1.2051,-0.1761,5.4831,24.539,-0.9252,1.3223,0.1363,-51.2014
16:59:15:726,-1.2985,-0.1317,4.5617,24.5803,-0.8411,1.5661,0.1821,-51.2014
16:59:15:728,-1.4794,-0.0476,4.4988,25.1311,-0.8208,1.6087,0.2321,-51.2014
16:59:15:745,-1.7639,0.127,5.2336,25.1363,-0.7282,1.1647,0.2853,-51.2014
16:59:15:764,-1.8375,0.4889,6.54,25.2577,-0.5291,0.2811,0.3811,-51.2998
16:59:15:783,-1.7757,0.4333,8.2173,25.5216,-0.3513,-0.7655,0.4429,-51.4151
16:59:15:804,-1.4301,0.5143,10.0616,25.5211,-0.1405,-1.2957,0.5046,-51.545
16:59:15:826,-0.5757,0.5062,11.2436,25.7738,0.082,-0.9507,0.4163,-51.6853
16:59:15:843,0.1782,0.226,12.074,26.0321,0.0298,-0.379,0.0777,-51.8308
