Time,Acc_X,Acc_Y,Acc_Z,Meg,Gyr_X,Gyr_Y,Gyr_Z,Ore
16:59:44:311,-2.7035,2.7311,9.2307,47.7603,0.5281,-0.8815,-0.6601,0.082
16:59:44:333,-2.3925,3.0182,8.8108,47.4434,0.6335,-1.1179,-0.5025,0.0907
16:59:44:351,-1.9148,3.6239,8.4195,47.54,0.5483,-1.5182,-0.4653,0.1013
16:59:44:371,-1.4424,3.8461,8.2356,47.7849,0.3801,-1.9121,-0.6154,0.1127
16:59:44:391,-1.1696,3.5649,8.025,47.6238,0.0649,-1.8834,-0.7612,0.1241
16:59:44:411,-0.588,3.0626,8.133,47.8675,-0.1427,-1.3638,-0.6452,0.1323
16:59:44:432,-0.0528,2.6057,8.4961,47.8367,-0.1725,-0.7144,-0.5856,0.1365
16:59:44:451,-0.012,2.6032,8.2353,47.5152,-0.346,-0.6654,-0.5483,0.1376
16:59:44:471,-0.2553,2.6347,8.1358,47.3028,-0.4908,-0.4237,-0.5802,0.1367
16:59:44:491,-0.6244,2.8053,8.1951,47.0121,-0.6537,-0.3481,-0.5025,0.1334
16:59:44:511,-0.5641,2.9355,8.2049,47.1228,-0.7612,-0.395,-0.3513,0.1288
16:59:44:533,0.0416,2.8799,8.3675,47.1295,-0.8059,-0.4205,-0.3279,0.1231
16:59:44:552,0.3839,2.6237,8.5915,47.2414,-0.7932,-0.2257,-0.4344,0.1182
16:59:44:571,0.1396,2.323,8.7957,47.4288,-0.7037,0.0192,-0.4865,0.112
16:59:44:591,-0.3296,2.2275,8.9781,47.4457,-0.5494,0.099,-0.4493,0.1056
16:59:44:611,-0.7893,2.4924,9.1906,47.6801,-0.3588,-0.0841,-0.3641,0.1007
16:59:44:632,-0.9824,3.0069,9.5613,47.6149,-0.214,-0.3386,-0.2534,0.0984
16:59:44:651,-0.8009,3.1179,9.5568,47.33,-0.1235,-0.1863,-0.116,0.0983
16:59:44:671,-0.1949,3.2144,9.5234,47.2842,-0.1214,0.4589,0.0341,0.0976
16:59:44:691,0.0151,3.55,9.4192,47.2003,-0.2332,0.8102,-0.0053,0.0941
16:59:44:711,-0.3377,3.6109,9.5952,47.1651,-0.3066,0.675,-0.2076,0.0882
16:59:44:732,-0.6048,3.0484,9.7524,46.9563,-0.0884,0.3034,-0.3045,0.0828
16:59:44:751,-0.6059,2.7084,9.3708,47.0942,0.2694,0,-0.1842,0.0817
16:59:44:771,-0.2922,2.7787,8.8431,46.9786,0.4663,-0.0756,-0.0064,0.0849
16:59:44:791,0.1865,3.1539,8.3722,46.9782,0.411,0.1341,0.0586,0.0894
16:59:44:812,0.2697,3.4447,8.1646,47.131,0.2289,0.3918,-0.0085,0.092
16:59:44:832,-0.1795,3.8457,8.3648,47.0673,0.0245,0.3907,-0.066,0.0917
16:59:44:851,-0.4788,4.066,8.9175,46.9207,-0.1331,0.2183,-0.05,0.0899
16:59:44:871,-0.5332,4.1248,9.7902,46.9011,-0.2023,0.1097,-0.0319,0.0876
16:59:44:891,-0.4876,3.9093,10.4779,47.0281,-0.1373,0.1278,-0.0192,0.0855
16:59:44:911,-0.4858,3.5908,10.6744,46.931,-0.05,0.0532,-0.0075,0.0841
16:59:44:932,-0.5735,3.3722,10.773,46.8917,-0.0575,-0.2385,0.0415,0.0838
16:59:44:951,-0.7095,3.3992,11.3283,46.8039,-0.0809,-0.3343,0.1618,0.0845
16:59:44:972,-0.588,3.3457,11.7882,46.9127,0.0245,-0.1267,0.3077,0.0856
16:59:44:991,-0.3406,3.0744,11.3634,46.7589,0.2289,0.1789,0.3258,0.0872
16:59:45:013,-0.1506,2.5802,10.5028,46.7024,0.28,0.1384,0.1576,0.089
16:59:45:032,-0.2789,2.1355,10.1437,46.5709,0.0373,-0.2662,-0.0958,0.0908
16:59:45:051,-0.2919,1.595,10.7462,46.6035,-0.2779,-0.5089,-0.2385,0.0915
16:59:45:071,-0.2406,0.7031,11.5854,46.5251,-0.3322,-0.2906,-0.2864,0.0905
16:59:45:092,-0.689,0.3847,11.343,46.5146,-0.049,0.1554,-0.2246,0.0889
16:59:45:112,-0.9925,0.6576,10.2717,46.4316,0.3503,0.3066,-0.0894,0.0886
16:59:45:132,-0.6538,1.0358,8.8269,46.4184,0.5376,0.0128,-0.0256,0.0913
16:59:45:152,0.0862,1.3423,7.4949,46.2393,0.4173,-0.4354,-0.1565,0.0962
16:59:45:172,0.6828,1.718,6.7834,46.1637,0.1331,-0.7687,-0.4876,0.1011
16:59:45:192,0.4183,1.8858,6.7738,46.1882,-0.1022,-0.7836,-0.8198,0.1043
16:59:45:213,-0.2799,1.8206,7.0842,46.3343,-0.2002,-0.6015,-0.8911,0.1055
16:59:45:232,-0.7708,1.6695,7.2203,46.5117,-0.1767,-0.3215,-0.7431,0.1054
16:59:45:252,-1.0679,1.6518,7.1805,46.7139,-0.1565,-0.0256,-0.5153,0.1046
16:59:45:272,-1.1675,1.7918,7.0452,46.7875,-0.1554,0.1842,-0.3109,0.1029
16:59:45:292,-1.2508,1.8257,7.0219,46.6979,-0.1437,0.3237,-0.23,0.1005
16:59:45:311,-1.4647,1.9045,7.2331,46.7123,-0.1672,0.2928,-0.2097,0.0977
16:59:45:332,-1.5618,1.8858,7.5766,46.6532,-0.1948,0.1182,-0.1906,0.0949
16:59:45:352,-1.7398,2.0641,8.0675,46.9214,-0.2353,-0.0245,-0.1107,0.0926
16:59:45:372,-1.6406,2.2784,8.5762,46.9327,-0.3066,-0.0437,0.0309,0.0904
16:59:45:392,-1.5449,2.7542,9.2072,47.0079,-0.3811,0.1203,0.1405,0.0877
16:59:45:413,-1.1182,2.7657,9.745,46.8167,-0.4802,0.2896,0.1363,0.0836
16:59:45:433,-0.6227,2.4641,10.3657,46.9798,-0.7229,0.2395,0.0351,0.0777
16:59:45:452,-0.196,2.2378,11.5328,46.7308,-1.0423,-0.0703,-0.131,0.0695
16:59:45:472,-0.1281,1.9576,13.2789,46.9002,-1.1488,-0.0245,-0.2289,0.0597
16:59:45:492,-0.2688,1.6878,14.1301,46.9428,-0.9316,0.4919,-0.1618,0.0493
16:59:45:512,-0.2377,1.2636,13.5854,47.0657,-0.576,1.1796,-0.0554,0.0392
16:59:45:533,0.0611,0.3302,12.5865,47.3177,-0.3173,1.7396,-0.0798,0.0295
16:59:45:552,-0.6554,0.0128,12.0408,47.7039,-0.2459,1.4745,-0.2364,0.0199
16:59:45:572,-1.1572,-0.114,11.5816,47.8798,-0.0256,0.9539,-0.231,0.0124
16:59:45:597,-1.1743,-0.6086,10.784,48.1486,0.3194,0.4227,-0.197,0.0095
16:59:45:613,-0.9664,-1.135,9.7806,48.2292,0.5557,-0.0043,-0.2321,0.0115
16:59:45:632,-0.6655,-1.2591,8.9853,48.4062,0.51,-0.4738,-0.2534,0.0168
16:59:45:653,-0.3354,-1.0406,8.6019,48.4744,0.2002,-0.8826,-0.2214,0.0229
16:59:45:672,-0.0854,-0.6827,8.5278,48.486,-0.1224,-0.8773,-0.1672,0.0272
16:59:45:694,0.17,-0.287,8.1861,48.693,-0.2459,-0.379,-0.1512,0.0285
16:59:45:712,0.1099,0.1331,7.5615,48.712,-0.2619,0.2108,-0.2268,0.0269
16:59:45:734,-0.3738,0.5236,7.3214,49.0874,-0.2278,0.4418,-0.3322,0.0231
16:59:45:752,-0.7917,0.5117,7.2258,49.0916,-0.0798,0.1938,-0.4227,0.0194
16:59:45:772,-1.1787,0.443,7.2059,49.2304,0.2172,-0.1725,-0.4205,0.0184
16:59:45:793,-1.4868,0.5812,7.0324,49.1307,0.5611,-0.4653,-0.3141,0.0217
16:59:45:813,-1.4044,0.7689,6.7266,48.9579,0.7591,-0.6516,-0.2055,0.0291
16:59:45:833,-1.3362,1.3513,6.8271,49.2154,0.7346,-1.3234,-0.23,0.0388
16:59:45:853,-1.0049,1.707,7.0352,49.3771,0.5046,-2.3838,-0.2821,0.0507
16:59:45:874,-0.5356,1.9282,8.5547,49.4917,0.2161,-3.1705,-0.3567,0.0638
16:59:45:893,0.1365,1.9231,11.0367,49.8399,0.2257,-3.1929,-0.3503,0.0769
16:59:45:915,0.8336,1.5405,11.7436,49.984,0.5366,-2.4551,-0.1799,0.0902
16:59:45:935,1.1413,1.6248,11.0279,50.2413,0.8219,-1.0604,0.1246,0.1032
16:59:45:952,1.1107,1.7652,10.9391,50.7818,0.7665,0.527,0.3524,0.1133
16:59:45:972,1.0601,2.0625,11.8975,50.9651,0.5781,1.6076,0.4344,0.1169
16:59:45:992,0.8027,2.3748,12.1975,51.1704,0.4163,1.631,0.4684,0.1162
16:59:46:011,0.3432,2.5992,12.2027,51.3174,0.3258,1.6129,0.4823,0.1142
16:59:46:032,0.4167,1.6683,12.9808,51.1983,0.3354,1.2999,0.4141,0.1116
16:59:46:052,-0.1481,1.5145,13.0744,51.3977,0.5462,0.2885,0.1703,0.1113
16:59:46:072,-0.6617,1.3,12.3708,51.5154,0.6856,-0.9954,0.0011,0.1171
16:59:46:092,0.0487,0.6519,12.4807,51.7727,0.7069,-1.4618,0.0426,0.1277
16:59:46:113,0.522,0.0795,12.1231,51.7987,0.6814,-1.2339,0.05,0.1396
16:59:46:132,0.6187,0.478,11.1574,52.0092,0.6026,-0.3599,0.1001,0.1495
16:59:46:152,0.6454,0.6471,9.5251,52.0257,0.2949,0.2076,0.1331,0.1552
16:59:46:172,0.8131,0.8792,8.2914,51.9257,-0.2726,0.0341,0.1118,0.1561
16:59:46:192,0.6751,1.1571,7.542,51.9549,-0.8272,-0.1427,0.0554,0.1524
16:59:46:212,0.4488,1.3498,7.1557,52.0752,-1.0615,0.0713,0.0979,0.1444
16:59:46:232,0.2437,0.9529,6.3077,52.3662,-1.0508,0.2087,0.1533,0.1343
16:59:46:252,-0.3336,0.9899,4.8014,52.4905,-1.0625,0.3694,0.2151,0.1238
16:59:46:272,-0.5869,0.155,4.1731,52.6646,-1.565,0.5547,0.2906,0.1121
16:59:46:292,-1.4573,1.1792,4.651,52.81,-2.0963,1.564,0.6175,0.0917
16:59:46:321,-1.0479,0.9296,6.3394,52.9589,-1.828,1.4671,1.169,0.067
16:59:46:335,0.1502,0.0656,7.069,53.0829,-1.6279,0.8709,1.2733,0.0442
16:59:46:352,0.0159,0.862,8.0325,53.2763,-1.4458,-0.0468,1.186,0.0293
16:59:46:373,0.5387,0.6669,8.7007,53.4707,-1.2233,-0.8102,1.0167,0.0182
16:59:46:392,1.5772,-0.4117,9.4298,53.338,-1.2052,-1.1008,0.5366,0.0116
16:59:46:412,2.1043,-1.6313,10.4392,53.3329,-1.0466,-0.7815,0.0096,0.0055
16:59:46:433,1.4036,-0.8949,12.0096,53.5774,-0.4567,-0.4983,0.0479,0.0003
16:59:46:452,1.1887,-0.5481,12.9158,53.6093,0.3439,-0.4482,0.4716,0.0001
16:59:46:472,0.9762,-0.1903,13.1011,53.7085,0.5015,-0.6686,0.1831,0.0061
16:59:46:492,1.2848,0.42,12.7154,53.6848,0.2395,-0.9614,-0.2278,0.0134
16:59:46:512,1.6955,0.4606,13.0701,53.6405,0.0468,-0.8517,-0.1938,0.0194
16:59:46:532,2.7909,0.2221,13.8274,53.3853,-0.3141,-0.4344,-0.1278,0.0223
16:59:46:552,3.345,-0.9966,14.6188,53.379,-0.4514,0.1107,-0.2002,0.0205
16:59:46:572,3.2061,-2.4709,14.8105,53.5306,-0.2789,0.7346,-0.3077,0.0155
16:59:46:592,2.44,-3.2743,14.1647,53.788,0.1033,1.0008,-0.3183,0.0103
16:59:46:612,1.6572,-3.381,13.1714,53.8875,0.3673,0.5888,-0.2992,0.008
16:59:46:633,1.5735,-3.3001,12.0904,54.1634,0.5419,-0.0852,-0.1757,0.01
16:59:46:653,2.1181,-2.9109,10.9032,53.7932,0.658,-0.3109,-0.0809,0.016
16:59:46:672,2.2897,-2.3257,9.5932,53.8454,0.758,-0.0437,-0.1011,0.0233
16:59:46:691,1.7174,-1.5892,8.3825,53.3557,0.9103,0.3119,-0.1661,0.0303
16:59:46:711,1.1478,-0.738,7.2185,52.9974,1.1104,0.477,-0.1959,0.0374
16:59:46:732,0.8466,-0.3015,6.1183,53.0168,1.3202,0.4397,-0.2055,0.0459
16:59:46:752,0.5926,0.0298,5.3176,53.0193,1.4266,0.2843,-0.2364,0.0564
16:59:46:772,0.2901,0.1597,4.9432,52.8935,1.5193,0.2268,-0.2481,0.0683
16:59:46:792,-0.1621,0.3245,4.953,52.7861,1.6449,-0.0138,-0.231,0.0815
16:59:46:814,-0.2117,0.6796,5.0101,52.7784,1.7077,-0.4546,-0.1501,0.097
16:59:46:833,0.25,1.313,5.1806,52.771,1.6236,-0.6963,-0.1586,0.1145
16:59:46:853,0.5165,1.5258,5.5491,52.8045,1.3723,-0.6611,-0.263,0.1315
16:59:46:873,0.2586,1.9615,5.9774,52.8132,0.9337,-0.544,-0.3077,0.1454
16:59:46:893,0.2748,2.4628,7.3233,52.7943,0.3141,-0.6995,-0.2896,0.1546
16:59:46:913,0.3904,2.6093,9.3812,52.7739,-0.2236,-0.9731,-0.2672,0.1592
16:59:46:933,0.0365,3.4439,11.0049,52.5381,-0.3183,-0.4631,-0.1192,0.1603
16:59:46:953,-0.17,3.7758,12.0086,52.3191,-0.1842,0.2278,0.2342,0.1588
16:59:46:972,0.4334,3.9686,13.1174,52.4768,-0.0926,0.4663,0.5195,0.1562
16:59:46:992,0.9184,3.7396,13.6856,52.2131,0.0021,0.691,0.642,0.1536
16:59:47:012,0.8132,4.0193,13.7838,52.1182,0.0586,0.7474,0.6143,0.151
16:59:47:033,0.4686,3.5143,13.5646,51.9431,0.1267,0.6665,0.5526,0.1487
16:59:47:052,0.3864,2.6196,13.0423,51.9752,0.1789,0.4844,0.5174,0.1476
16:59:47:072,-0.1235,2.1516,12.2672,52.0488,0.2278,0.3556,0.4748,0.1476
16:59:47:092,-0.4448,1.7272,11.3101,52.0838,0.1235,0.099,0.5153,0.1484
16:59:47:112,-0.1319,1.095,10.6271,52.1238,-0.1714,-0.033,0.576,0.149
16:59:47:132,0.512,0.3985,10.016,52.0281,-0.4748,0.0394,0.5025,0.1472
16:59:47:152,0.4482,-0.0335,9.2912,51.9797,-0.658,0.3588,0.4376,0.1424
16:59:47:172,-0.2626,-0.2012,8.4456,51.9139,-0.7208,0.955,0.5632,0.1343
16:59:47:193,-0.5352,-0.1884,7.736,51.7252,-0.6782,1.4181,0.8155,0.1232
16:59:47:212,-0.4125,-0.0679,7.249,51.6372,-0.4418,1.5927,1.0104,0.1112
16:59:47:232,0.1428,0.0202,6.8729,51.4091,-0.1618,1.4043,1.0402,0.1011
16:59:47:252,0.2213,0.4121,6.2411,51.0524,0.1182,1.1104,0.9305,0.0946
16:59:47:272,-0.3317,0.9024,5.8361,50.5733,0.2214,0.6878,0.8006,0.0916
16:59:47:292,-0.6018,0.7882,6.6644,50.3736,0.1586,-0.0032,0.7506,0.0913
16:59:47:311,0.4151,0.6117,8.5693,50.5707,0.2076,-0.5738,0.659,0.0942
16:59:47:332,1.4577,0.9952,10.5789,50.2333,0.5185,-1.0221,0.1991,0.1005
16:59:47:352,1.0742,1.3549,11.5341,50.1847,0.9827,-1.3127,-0.1831,0.1117
16:59:47:372,0.9407,1.8441,10.9434,50.0416,1.1839,-1.1328,-0.1778,0.1272
16:59:47:392,1.6037,2.5843,10.3053,50.104,0.8602,-0.6015,-0.0767,0.1418
16:59:47:412,2.0248,3.6401,10.6244,49.9795,0.4216,-0.0948,-0.0894,0.1504
16:59:47:433,2.4716,4.1408,11.2344,49.9324,0.1235,0.1097,-0.1491,0.1532
16:59:47:452,2.7881,4.8373,12.0173,50.051,-0.0096,0.1437,-0.3013,0.153
16:59:47:472,2.9668,4.9153,12.2135,49.8084,-0.0096,0.0713,-0.4951,0.152
16:59:47:492,2.9739,4.0562,12.2802,49.9375,-0.1778,-0.049,-0.659,0.151
16:59:47:512,2.6832,2.4151,13.0328,49.7414,-0.2321,-0.1884,-0.7484,0.1491
16:59:47:532,2.2553,0.8742,13.1645,49.7372,-0.1054,-0.3428,-0.724,0.1479
16:59:47:552,1.767,0.0012,12.6944,49.6222,0.0703,-0.4642,-0.6356,0.1486
16:59:47:572,1.3201,0.1507,11.5861,49.6101,0.2992,-0.5281,-0.4621,0.1515
16:59:47:592,1.2739,0.6346,9.6523,49.423,0.4248,-0.5877,-0.3354,0.1567
16:59:47:611,1.3069,1.2793,7.8824,49.4835,0.3705,-0.6856,-0.3428,0.163
16:59:47:632,1.3267,1.5861,6.7935,49.4087,0.2513,-0.6792,-0.4354,0.1689
16:59:47:652,0.8773,1.8896,5.7622,49.1883,0.2012,-0.4078,-0.4951,0.1736
16:59:47:672,0.3367,2.0361,4.8446,49.2748,0.115,-0.1831,-0.4695,0.1764
16:59:47:692,0.0286,2.0944,4.1691,49.105,0.0202,-0.115,-0.4035,0.1776
16:59:47:712,-0.1419,2.0027,3.9559,49.2242,-0.082,-0.2108,-0.3375,0.1779
16:59:47:732,0.0539,1.8796,4.1218,49.1136,-0.0841,-0.3226,-0.2757,0.178
16:59:47:752,0.3248,1.8183,4.3223,48.9102,0.0075,-0.2981,-0.2981,0.1786
16:59:47:772,0.0074,2.063,4.2777,48.7796,0.0554,-0.263,-0.2917,0.18
16:59:47:792,0.2533,2.4643,4.5511,48.5937,-0.0607,-0.313,-0.1916,0.1813
16:59:47:812,0.8201,2.8722,5.5871,48.7084,-0.2768,-0.3897,-0.2204,0.1816
16:59:47:832,0.8311,3.0942,7.5281,48.7266,-0.3673,-0.3918,-0.313,0.1805
16:59:47:852,0.7853,3.377,8.9646,48.7071,-0.3151,-0.2768,-0.2768,0.1788
16:59:47:873,1.0629,3.6127,10.392,49.0874,-0.2225,-0.1022,-0.2246,0.177
16:59:47:891,1.0982,4.1391,11.7706,49.0975,0.082,0.1831,-0.1554,0.1756
16:59:47:912,1.2154,4.4723,11.9053,49.1184,0.4983,0.3961,-0.1086,0.1762
16:59:47:932,1.1829,4.7185,11.0558,49.3328,0.5888,0.3013,-0.0958,0.1794
16:59:47:952,1.0404,4.9654,10.7559,49.5854,0.2119,0.1512,-0.1278,0.1828
16:59:47:971,0.8835,4.8406,11.8352,49.6112,-0.2523,0.0468,-0.1235,0.1829
16:59:47:992,1.3742,3.3449,13.317,49.6548,-0.4791,-0.1767,-0.197,0.1799
16:59:48:012,1.2714,2.065,14.2433,49.5146,-0.4195,-0.2576,-0.2917,0.1765
16:59:48:033,0.5587,1.322,14.3981,49.5077,-0.2906,-0.0511,-0.1874,0.1736
16:59:48:052,0.183,1.0612,13.8529,49.4159,-0.198,0.2055,0.0319,0.1713
16:59:48:072,0.087,1.1925,12.6647,49.674,-0.2044,0.3705,0.231,0.1686
16:59:48:092,0.1597,1.1437,11.0923,49.7575,-0.3652,0.4759,0.3407,0.1649
16:59:48:112,0.2152,0.7658,10.2475,49.8175,-0.4834,0.444,0.3865,0.1594
16:59:48:132,0.2632,0.7087,9.825,49.9721,-0.2406,0.5164,0.4088,0.1536
16:59:48:152,0.0418,0.8477,8.5666,50.1796,0.1757,0.692,0.4684,0.1502
16:59:48:172,-0.2816,0.9529,6.8145,50.3699,0.4173,0.8964,0.5696,0.1494
16:59:48:192,-0.5298,1.1151,5.4408,50.3897,0.4152,0.9933,0.692,0.1494
16:59:48:212,-0.5379,1.3319,5.0163,50.3017,0.297,0.9135,0.7868,0.1488
16:59:48:232,-0.1317,1.7299,5.0566,50.0716,0.2555,0.7964,0.7932,0.1478
16:59:48:252,0.2695,1.8755,5.0173,49.64,0.1373,0.6026,0.6399,0.1469
16:59:48:272,0.3708,1.8317,5.3663,49.5325,-0.1065,0.3162,0.4152,0.1456
16:59:48:292,0.5268,1.7777,6.4173,49.461,-0.2896,0.2906,0.2012,0.1431
16:59:48:320,0.514,1.9029,7.5635,49.7843,-0.2875,0.5856,0.0777,0.1389
16:59:48:334,0.424,2.3223,8.1273,49.9179,-0.3173,0.8507,-0.0841,0.1333
16:59:48:351,0.3668,2.6216,8.4947,50.0827,-0.5962,0.7751,-0.2161,0.1258
16:59:48:372,0.845,2.8147,9.9375,50.165,-1.0476,0.6377,-0.395,0.1159
16:59:48:392,0.5255,2.94,11.8693,49.9397,-1.2371,0.7261,-0.5792,0.1025
16:59:48:411,-0.0611,2.8425,12.85,49.9042,-1.2861,0.8379,-0.5856,0.0875
16:59:48:433,-0.0503,2.579,13.8289,50.0481,-1.3489,0.9241,-0.5078,0.0713
16:59:48:452,0.3118,0.8577,15.4442,50.1292,-1.1221,0.5856,-0.5738,0.055
16:59:48:473,-0.0707,-0.4655,15.6431,50.0951,-0.625,-0.1118,-0.5749,0.0436
16:59:48:492,-0.2546,-1.1789,14.5756,50.3741,-0.3364,-0.6835,-0.4578,0.0396
16:59:48:512,-0.3284,-0.8763,13.3175,50.4867,-0.2183,-0.8869,-0.3056,0.0399
16:59:48:534,-0.147,-0.3477,11.9838,50.6089,-0.0884,-0.9369,-0.2151,0.0422
16:59:48:553,-0.1159,0.1451,10.2839,50.7589,0.0532,-0.922,-0.2108,0.0458
16:59:48:571,-0.3404,0.5377,8.7209,50.5708,0.1746,-0.9262,-0.2076,0.0505
16:59:48:592,-0.2358,0.6086,7.7877,50.6178,0.3013,-0.8986,-0.1852,0.0564
16:59:48:612,-0.1491,0.8174,7.1903,50.4776,0.4993,-0.6761,-0.1821,0.0632
16:59:48:632,-0.0988,0.8612,6.4405,50.4224,0.6729,-0.3758,-0.1927,0.0706
16:59:48:652,-0.1716,0.8286,5.8915,50.4286,0.774,-0.1395,-0.2151,0.0781
16:59:48:672,-0.2519,0.7514,5.9605,50.6398,0.8006,-0.1341,-0.2417,0.0854
16:59:48:692,-0.3142,1.5786,5.8338,50.6824,0.7974,-0.2704,-0.247,0.0933
16:59:48:712,0.3125,1.3916,5.9134,50.6503,0.4972,-0.3354,-0.4269,0.1009
16:59:48:733,0.1349,1.7695,6.7542,50.8536,0.1789,-0.1831,-0.5696,0.1056
16:59:48:752,0.0798,1.762,7.922,50.6577,-0.0735,0.1661,-0.658,0.1066
16:59:48:772,-0.7437,1.9982,8.8008,50.4798,-0.1842,0.6111,-0.625,0.1039
16:59:48:792,-1.6347,2.3393,9.281,50.5461,-0.214,0.8507,-0.3982,0.0988
16:59:48:812,-2.0887,3.038,9.8127,50.8868,-0.2119,0.8358,-0.0916,0.093
16:59:48:833,-1.8963,3.5051,10.1644,50.793,-0.2598,0.4972,0.181,0.0877
16:59:48:852,-0.9862,3.3897,10.8213,51.1096,-0.4365,-0.1001,0.2789,0.0837
16:59:48:872,-0.4134,2.7899,12.0789,51.5655,-0.6037,-0.5664,0.1863,0.0805
16:59:48:892,-0.384,1.875,13.6119,51.675,-0.544,-0.724,0.1139,0.0778
16:59:48:912,-0.3478,0.6081,14.3448,51.5063,-0.247,-0.7389,0.0713,0.0767
16:59:48:932,-0.5405,-0.5417,13.9651,51.6627,-0.0713,-0.6942,0.0607,0.0782
16:59:48:952,-1.0291,-1.1108,13.4195,51.842,-0.0671,-0.5781,0.1522,0.0805
16:59:48:972,-1.0194,-1.4163,12.8142,51.6151,-0.0862,-0.4876,0.3077,0.0822
16:59:48:992,-0.6413,-1.4775,12.1208,51.8234,-0.0468,-0.3641,0.3971,0.0836
16:59:49:012,-0.2648,-1.2084,11.2169,52.3198,0.0703,-0.0926,0.4184,0.0849
16:59:49:033,-0.4916,-0.7782,9.9044,52.2774,0.1831,0.2555,0.4354,0.0859
16:59:49:052,-0.7199,-0.2623,8.5812,52.2662,0.2395,0.5004,0.5366,0.0864
16:59:49:071,-0.7075,0.08,7.3162,52.6597,0.2449,0.6186,0.6164,0.0863
16:59:49:091,-0.7411,0.3638,6.5009,52.5055,0.2278,0.626,0.6686,0.0859
16:59:49:112,-0.7333,0.5473,6.0996,52.4829,0.2395,0.5813,0.7176,0.0854
16:59:49:132,-0.5862,0.8404,5.7735,52.6998,0.2576,0.5472,0.7591,0.0853
16:59:49:152,-0.4853,1.3574,5.7124,52.6969,0.2087,0.4216,0.7389,0.0855
16:59:49:172,-0.0385,1.9393,6.2197,52.8684,0.1107,0.2523,0.6324,0.0858
16:59:49:192,0.5928,2.0303,6.7604,52.8724,-0.033,0.1086,0.3918,0.0858
16:59:49:212,0.9372,1.6879,7.5275,52.8264,-0.3428,-0.1224,0.0458,0.0849
16:59:49:236,0.7124,1.237,9.1845,52.9124,-0.5334,-0.0841,-0.2268,0.0819
16:59:49:252,0.1566,1.0082,10.824,52.6151,-0.2172,0.4578,-0.2736,0.0773
16:59:49:272,-0.5441,1.2485,10.7916,52.7998,0.3439,0.9497,-0.1043,0.0735
16:59:49:292,-0.3057,1.5919,9.5458,53.0501,0.3982,1.0199,0.0405,0.072
16:59:49:312,-0.3389,2.305,9.3912,52.9316,0.0298,0.9113,0.0586,0.0698
16:59:49:333,-0.3348,2.7438,10.533,53.0345,-0.3545,0.5728,0.0681,0.065
16:59:49:352,-0.3099,2.7995,11.9853,53.347,-0.5206,0.2065,0.0522,0.0591
16:59:49:372,0.0322,2.3435,12.7602,53.571,-0.5749,-0.017,0.0383,0.0539
16:59:49:392,0.8349,0.2525,13.4978,53.6454,-0.6154,-0.1703,-0.1491,0.0489
16:59:49:412,0.3277,-1.4784,14.044,53.6777,-0.3833,-0.3481,-0.313,0.0448
16:59:49:433,-0.4012,-2.0471,13.3829,53.5199,-0.0245,-0.4386,-0.2364,0.0438
16:59:49:452,-0.3147,-2.0701,11.9326,53.2646,0.0969,-0.4173,-0.1086,0.046
16:59:49:472,0.0114,-1.5629,10.633,53.4087,-0.0575,-0.2928,-0.0596,0.0484
16:59:49:492,0.205,-0.8408,9.6672,53.4372,-0.2853,-0.1363,-0.0905,0.0485
16:59:49:512,0.1638,-0.1758,8.8256,53.3633,-0.4354,0.033,-0.1767,0.0459
16:59:49:532,-0.0955,0.3736,8.0752,53.6609,-0.4674,0.1363,-0.2395,0.0415
16:59:49:552,-0.0811,0.6207,7.8305,53.9868,-0.3705,0.148,-0.2704,0.0366
16:59:49:572,-0.0071,0.7837,7.5896,53.996,-0.1043,0.1586,-0.346,0.0328
16:59:49:592,-0.0385,0.7384,7.1454,54.1283,0.2119,0.0564,-0.4195,0.0316
16:59:49:613,-0.2368,1.0164,6.6495,53.9852,0.4908,-0.1352,-0.4535,0.0336
16:59:49:633,-0.2184,1.1841,6.2837,53.9229,0.6015,-0.3599,-0.4802,0.0388
16:59:49:653,-0.1999,1.3554,6.4231,54.0582,0.5664,-0.5345,-0.5249,0.0455
16:59:49:673,-0.2769,1.628,6.7017,54.2536,0.4046,-0.593,-0.577,0.0523
16:59:49:692,-0.3073,1.5702,7.3655,54.3828,0.082,-0.543,-0.6409,0.0575
16:59:49:712,-0.8715,1.4931,8.5778,54.6483,-0.1767,-0.4184,-0.6228,0.0593
16:59:49:732,-1.4761,1.3269,9.8981,54.6439,-0.2214,-0.411,-0.4216,0.0589
16:59:49:752,-1.5291,1.5101,10.6834,54.4549,-0.116,-0.4461,-0.132,0.0588
16:59:49:772,-1.1922,2.0473,10.6966,54.5199,-0.1022,-0.2065,0.0788,0.0596
16:59:49:792,-0.9318,2.2994,11.0675,54.3129,-0.2438,0.28,0.1533,0.0588
16:59:49:812,-1.5057,2.259,11.5246,54.2063,-0.4152,0.7591,0.1906,0.0545
16:59:49:833,-2.4747,1.7692,12.1613,54.3687,-0.5738,1.0636,0.3268,0.0458
16:59:49:853,-3.5067,1.2726,13.219,54.6087,-0.4312,1.1605,0.5643,0.0369
16:59:49:875,-4.1374,1.3391,13.6285,54.5751,0.2438,0.8602,0.8922,0.0297
16:59:49:893,-3.3829,0.5147,12.0505,54.7535,0.7815,0.2481,0.9976,0.0308
16:59:49:912,-2.7191,-0.1988,10.4064,54.827,0.6686,-0.2821,0.8347,0.0381
16:59:49:932,-2.3045,-0.9376,10.118,54.87,0.1916,-0.4472,0.6356,0.0452
16:59:49:952,-1.9437,-1.3128,10.7176,54.6284,-0.0681,-0.3758,0.5387,0.0487
16:59:49:972,-1.284,-1.3966,10.7058,55.0605,-0.1437,-0.3311,0.4951,0.0501
16:59:49:993,-0.6064,-0.9146,10.2553,55.1663,-0.395,-0.3109,0.3748,0.0505
16:59:50:012,-0.5184,0.3983,10.0897,55.0371,-0.8187,0.164,0.1256,0.0475
16:59:50:032,-0.2684,-0.3482,10.2582,55.4455,-1.2467,0.6931,-0.3077,0.0378
16:59:50:056,-1.4469,-0.7291,10.8389,55.5379,-1.285,1.0796,-0.593,0.0223
16:59:50:072,-2.8091,-0.2918,10.8844,55.0844,-0.7005,1.1913,-0.297,0.0061
16:59:50:092,-2.6602,-0.0122,9.916,55.0012,0.1469,1.0253,0.1799,-0.0041
16:59:50:112,-1.7633,-0.0581,8.2551,55.0461,0.873,0.7399,0.4951,-0.0058
16:59:50:132,-1.385,-0.1987,6.8457,55.297,1.2872,0.3694,0.6037,-0.0001
16:59:50:152,-1.6508,0.6058,5.9204,55.1381,1.4926,0.0884,0.724,0.0107
16:59:50:172,-1.176,1.2658,5.3255,55.5774,1.4149,-0.2278,0.7719,0.0242
16:59:50:194,-0.7126,1.4315,5.6126,55.6889,0.9529,-0.5398,0.6814,0.0375
16:59:50:212,-0.0562,1.5484,6.2275,55.3542,0.5749,-1.0913,0.3684,0.0493
16:59:50:232,0.7477,0.9472,6.4568,55.1422,-0.0926,-0.9965,-0.1384,0.0591
16:59:50:252,0.6994,0.5582,7.0217,55.1846,-0.7538,-0.6569,-0.2864,0.0612
16:59:50:271,0.4242,0.2817,8.2649,54.9847,-1.1605,-0.1331,-0.1469,0.0562
16:59:50:292,-0.0777,0.2144,9.9293,54.8046,-1.2243,0.1576,0.0426,0.046
16:59:50:319,-0.1663,1.037,11.9351,54.6978,-0.9284,0.0075,0.2726,0.0354
16:59:50:333,0.7374,1.1122,12.7223,54.6583,-0.4535,-0.2364,0.3109,0.029
16:59:50:351,1.2768,0.9449,12.4615,54.525,-0.1107,-0.2002,0.1735,0.0275
16:59:50:371,1.7627,-0.3533,12.2275,54.769,-0.1405,-0.1448,-0.1852,0.0277
16:59:50:391,0.7802,-1.3952,13.3857,54.8561,-0.0767,-0.0394,-0.6154,0.0267
16:59:50:411,-0.4566,-2.3419,13.4481,54.9025,0.2811,-0.5142,-0.9688,0.0266
16:59:50:432,-0.4278,-1.8985,11.3898,54.9241,0.0969,-1.5608,-1.0391,0.0321
16:59:50:451,0.4695,-1.4762,10.2263,54.7319,-0.4983,-1.8919,-1.1168,0.0397
16:59:50:471,0.3302,-1.2786,10.156,54.6347,-1.0114,-1.432,-1.0295,0.0424
16:59:50:492,0.1905,-1.1434,9.9719,54.6252,-1.2563,-1.1381,-0.6537,0.0391
16:59:50:512,0.308,-0.7917,9.3335,54.6289,-1.2904,-1.0029,-0.3034,0.0331
16:59:50:533,0.279,-0.0746,8.3378,54.4816,-1.3223,-0.7602,0.0543,0.0264
16:59:50:552,0.54,0.084,7.738,54.7779,-1.2233,-0.511,0.1384,0.0181
16:59:50:572,0.6307,0.0201,7.4148,54.7055,-0.7857,-0.2843,0.0671,0.0102
16:59:50:594,0.5757,0.1152,7.5907,54.7595,-0.1118,-0.0138,-0.0287,0.0054
16:59:50:612,0.6437,0.2089,7.4549,54.8345,0.6654,0.1586,-0.1629,0.0057
16:59:50:632,0.6414,0.6461,6.8317,54.884,1.0497,0.4312,-0.1522,0.0115
16:59:50:651,0.7613,1.4139,6.7308,54.5437,1.1253,0.6143,-0.1948,0.019
16:59:50:671,0.7395,1.8662,7.1082,54.5357,1.1243,1.3766,-0.2459,0.0252
16:59:50:692,0.8729,1.6472,8.1569,54.8548,0.9997,2.0676,-0.2992,0.0276
16:59:50:712,0.4761,1.1718,9.084,54.91,0.6729,1.8855,-0.3886,0.0261
16:59:50:732,-0.9799,1.2753,10.0693,54.8682,0.4184,1.1264,-0.2736,0.0232
16:59:50:752,-1.5118,1.5274,10.9303,54.846,0.4525,1.1999,0.0649,0.0217
16:59:50:772,-3.1068,4.6911,13.4576,54.6603,0.9007,2.0612,0.4301,0.0204
16:59:50:792,-1.8464,3.5914,11.7982,54.5907,1.646,3.9062,0.7272,0.0204
16:59:50:812,-1.517,1.2397,10.5227,54.4086,1.959,5.0134,0.79,0.0188
16:59:50:838,-1.2781,-0.1474,9.2699,54.4572,0.6207,1.5033,0.2715,0.0139
16:59:50:851,-3.6742,1.8357,10.0562,54.2997,-0.4035,-0.4141,-0.3077,0.0087
16:59:50:871,-4.3243,1.1855,11.4335,54.1865,-0.905,-0.329,-0.3215,0.0043
16:59:50:895,-4.4407,-0.8687,12.5885,54.1215,-0.9529,-0.3354,-0.3865,-0.0032
16:59:50:911,-4.9706,-1.9729,12.7242,54.1132,-0.5132,-0.6313,-0.3013,-0.0094
16:59:50:932,-3.9187,-1.7919,12.2175,54.6398,0.0021,-1.1339,-0.214,-0.0095
16:59:50:951,-3.0707,-1.763,11.4422,54.5696,0.4205,-1.2414,-0.3386,-0.0033
16:59:50:971,-2.9564,-1.3787,9.9327,54.4514,0.5813,-1.021,-0.4141,0.006
16:59:50:992,-3.3205,-1.1559,8.5587,54.298,0.4472,-0.922,-0.4067,0.0149
16:59:51:012,-3.0223,-0.6824,8.0237,53.9552,0.1735,-1.0199,-0.2108,0.022
16:59:51:032,-2.7381,0.1076,7.5095,53.623,-0.0128,-0.8453,0.0287,0.0274
16:59:51:052,-2.2395,-0.2587,6.9236,53.5385,-0.0287,-0.675,0.231,0.0311
16:59:51:072,-2.2198,-0.1519,6.5272,53.9055,0.1789,-0.7101,0.2832,0.0347
16:59:51:092,-1.7667,0.4439,6.453,53.9511,0.5025,-0.8443,0.3503,0.0407
16:59:51:112,-1.9489,-0.1181,5.7799,53.9882,0.7484,-0.7793,0.3801,0.0507
16:59:51:132,-1.6194,0.7614,5.9128,54.2261,0.9241,-0.511,0.3641,0.0612
16:59:51:152,-1.6209,1.259,6.4174,54.2363,0.9529,-0.8421,0.4812,0.0725
16:59:51:172,-1.4824,1.784,6.9007,54.4223,0.6675,-1.3468,0.593,0.0852
16:59:51:192,-1.1331,2.2861,7.4211,54.5595,0.1182,-1.5288,0.6367,0.0969
16:59:51:212,-0.7924,2.1655,8.3926,54.3913,-0.3982,-0.972,0.7751,0.104
16:59:51:233,-0.2847,1.6921,9.6448,54.2743,-0.6377,0.0096,0.9986,0.1041
16:59:51:251,0.544,1.6008,10.7036,54.1398,-0.7005,0.6356,0.9859,0.0983
16:59:51:272,1.061,2.2338,11.5972,54.1787,-0.7229,0.5973,0.7527,0.0895
16:59:51:292,1.3513,2.8843,12.3675,53.8722,-0.692,0.2906,0.4802,0.081
16:59:51:312,1.4294,2.8783,12.6499,53.8823,-0.5994,0.2108,0.263,0.0741
16:59:51:332,1.3446,2.5831,12.5634,53.5866,-0.6281,0.3343,0.1363,0.068
16:59:51:352,1.3851,1.4443,12.8044,53.7196,-0.8155,0.3034,0.0916,0.0605
16:59:51:372,1.2312,0.1091,13.4418,53.6125,-0.8517,-0.1075,0.1043,0.052
16:59:51:392,1.0985,-1.3925,13.1045,53.7239,-0.6154,-0.5174,0.1821,0.0464
16:59:51:412,1.2302,-2.0821,12.2555,53.7896,-0.3268,-0.6718,0.1767,0.0449
16:59:51:433,1.5567,-1.9677,11.3726,53.6942,-0.297,-0.8336,0.0905,0.0462
16:59:51:452,1.7839,-1.8354,10.3482,53.3727,-0.5015,-0.8538,0.0511,0.0478
16:59:51:472,1.4486,-1.8878,9.69,53.341,-0.691,-0.7314,0.0085,0.0473
16:59:51:492,0.3327,-0.6499,8.9121,53.1071,-0.5334,-0.7974,0.0128,0.0454
16:59:51:512,-0.0787,-0.0143,8.2756,53.0393,-0.1703,-1.2967,0.1501,0.0463
16:59:51:533,0.7592,-0.1313,8.1644,52.9479,0.3673,-1.9824,0.2896,0.0537
16:59:51:553,2.0274,0.0191,7.9434,53.1148,0.9635,-2.3401,0.1001,0.0691
16:59:51:572,2.4893,0.4561,6.9478,53.1194,1.268,-2.1761,-0.3098,0.0904
16:59:51:592,2.1594,0.6297,6.1327,53.1726,1.2542,-1.3383,-0.6037,0.1118
16:59:51:612,1.2402,0.5546,5.3486,53.4586,1.0742,-0.3567,-0.5717,0.1279
16:59:51:632,0.5081,1.1576,5.2353,53.5494,0.7197,0.2938,-0.2289,0.1373
16:59:51:652,1.0629,1.8698,5.9182,53.6409,0.3811,0.6835,0.0884,0.1406
16:59:51:672,1.806,2.3461,6.9526,53.5141,0.1927,0.9688,0.1278,0.1393
16:59:51:692,2.3038,2.8668,7.7304,53.303,-0.0564,0.8613,-0.0426,0.1356
16:59:51:714,2.2904,3.1141,8.7249,53.3028,-0.3545,0.5472,-0.3641,0.1305
16:59:51:732,2.401,2.7848,10.886,53.1378,-0.5451,0.066,-0.6846,0.1247
16:59:51:751,2.1574,3.7872,11.4106,53.1149,-0.2789,0.6377,-0.7293,0.12
16:59:51:771,1.6556,3.4774,11.257,53.0279,-0.3716,1.0444,-0.7059,0.1139
16:59:51:792,0.4592,3.3948,12.1346,52.6779,-0.4993,1.2957,-0.4929,0.1047
16:59:51:811,-0.3809,2.9325,14.0172,52.735,-0.3205,1.1647,-0.0075,0.0941
16:59:51:832,0.1244,2.307,15.3697,52.5278,0.1746,0.7357,0.3716,0.087
16:59:51:852,0.9589,1.4086,15.4818,52.3923,0.6441,0.3886,0.3535,0.0866
16:59:51:872,0.9315,0.4923,14.4423,52.7141,0.8858,0.3109,0.0245,0.0912
16:59:51:892,-0.6786,-0.1028,12.8202,53.3519,0.8219,0.5185,-0.0979,0.097
16:59:51:912,-1.3959,-0.4745,11.1461,53.5748,0.4376,0.7815,0.0777,0.1004
16:59:51:932,-1.1089,-0.747,10.3923,53.8372,-0.0862,0.9561,0.1363,0.0988
16:59:51:952,-0.8525,-1.0849,10.0581,54.0443,-0.4067,1.0721,0.05,0.0922
16:59:51:972,-0.8651,-1.318,9.4216,53.7461,-0.5866,0.9891,-0.0894,0.0828
16:59:51:993,-1.2801,-1.2054,8.5539,53.8572,-0.6707,0.9199,-0.1512,0.0725
16:59:52:012,-1.7896,-0.9862,7.7253,53.7887,-0.6558,0.8443,-0.0362,0.062
16:59:52:033,-1.7332,-0.6585,7.1126,53.8527,-0.5888,0.7091,0.181,0.0524
16:59:52:053,-1.2061,-0.4214,6.8548,53.9671,-0.4248,0.6494,0.2992,0.0444
16:59:52:073,-1.2199,-0.0606,6.3887,54.0235,-0.1746,0.8049,0.3726,0.0382
16:59:52:092,-1.6238,0.3907,5.6933,53.95,-0.0213,1.0135,0.4599,0.0331
16:59:52:112,-1.9167,0.8382,5.2264,53.9049,-0.0234,1.2201,0.6186,0.0282
16:59:52:132,-1.1352,1.0061,5.6098,53.8166,-0.1384,1.2691,0.6516,0.0221
16:59:52:152,-1.194,1.5778,6.1638,54.0579,-0.2225,1.498,0.3726,0.0144
16:59:52:172,-2.2107,1.9991,6.9492,53.9751,-0.4163,1.466,0.1278,0.0043
16:59:52:192,-2.886,1.5006,9.0639,53.8836,-0.6111,0.922,-0.0522,-0.0074
16:59:52:212,-2.9437,1.1438,11.205,54.1152,-0.2896,0.5994,-0.1373,-0.0169
16:59:52:233,-3.3523,1.3193,11.6542,54.2139,0.2236,0.4567,-0.1682,-0.0213
16:59:52:252,-3.3116,1.572,11.1829,54.464,0.5025,0.543,-0.0777,-0.0213
16:59:52:273,-3.3511,1.8051,11.0358,54.7154,0.3854,0.4599,0.0085,-0.0201
16:59:52:292,-3.5304,2.2671,11.7604,54.6218,0.1842,0.297,0.1682,-0.0197
16:59:52:312,-3.3292,2.6102,12.6863,54.6836,0.1767,-0.1065,0.4599,-0.0191
16:59:52:344,-1.8727,2.0374,13.2421,54.6644,0.2992,-0.577,0.5707,-0.0148
16:59:52:354,-0.5411,0.5043,12.9912,54.7536,0.4067,-0.6952,0.264,-0.0088
16:59:52:372,-1.2331,-0.3793,11.9192,54.6922,0.3322,-0.6377,-0.0341,-0.0019
16:59:52:392,-1.852,-0.9078,10.9481,54.7422,-0.0415,-0.7197,-0.1544,0.0033
16:59:52:412,-1.7937,-1.3725,11.1348,54.5104,-0.5334,-0.9305,-0.2151,0.0054
16:59:52:432,-1.3048,-1.902,11.8721,54.5201,-0.7836,-1.103,-0.2906,0.0049
16:59:52:452,-1.0184,-1.864,11.8117,54.507,-0.6356,-1.0327,-0.4003,0.004
16:59:52:472,-1.1233,-1.1647,10.5986,54.3942,-0.3141,-0.9603,-0.4365,0.0045
16:59:52:492,-1.0598,-0.6279,9.2808,54.5582,-0.049,-1.0508,-0.3992,0.0073
16:59:52:512,-0.5902,-0.3044,8.5484,54.5962,0.2129,-0.9869,-0.3556,0.0128
16:59:52:532,-0.352,-0.0503,7.7417,54.522,0.4951,-0.6718,-0.3535,0.0199
16:59:52:552,-0.5252,0.113,6.8406,54.7989,0.7761,-0.4333,-0.3481,0.0277
16:59:52:572,-0.777,0.1953,6.0378,54.8467,1.0434,-0.379,-0.2864,0.0368
16:59:52:592,-0.4515,0.3987,5.7886,54.7142,1.2403,-0.5643,-0.198,0.0481
16:59:52:611,0.1389,0.8626,5.8263,54.6263,1.4437,-0.7421,-0.2278,0.0621
16:59:52:633,0.2815,1.4071,5.6448,54.6315,1.5225,-0.8869,-0.4429,0.0783
16:59:52:652,-0.4009,2.3423,5.5226,54.4319,1.367,-1.0934,-0.6494,0.0951
16:59:52:671,-1.0043,2.9413,5.8228,54.1898,0.9923,-1.285,-0.6558,0.111
16:59:52:692,-1.2985,3.5529,6.9688,54.0912,0.5068,-1.2744,-0.4589,0.124
16:59:52:712,-1.0489,3.7619,8.6967,54.1829,0.1916,-1.0359,-0.1608,0.1332
16:59:52:732,-0.639,4.053,10.1393,54.1304,0.1565,-0.5238,0.0979,0.1392
16:59:52:751,-0.4951,4.2507,10.9108,54.1392,0.2076,-0.1001,0.2938,0.1428
16:59:52:772,-0.4257,4.4576,11.3961,54.1742,0.2566,0.05,0.4919,0.1453
16:59:52:791,0.0318,4.6653,11.8654,54.2206,0.2023,-0.1086,0.5526,0.1477
16:59:52:812,0.0988,4.7322,12.4077,54.1105,0.2076,-0.1129,0.5238,0.1502
16:59:52:832,-0.0054,4.27,12.4339,54.0574,0.2938,-0.0458,0.511,0.153
16:59:52:852,0.0383,3.4798,12.0923,54.2705,0.2715,-0.0224,0.4205,0.156
16:59:52:872,0.1733,2.3265,11.7119,54.5111,0.1192,0.0394,0.2129,0.1583
16:59:52:891,-0.3474,1.482,11.6719,54.8075,-0.0287,0.2598,-0.0011,0.1584
16:59:52:912,-1.0493,0.9751,11.3646,55.2298,-0.1661,0.5323,-0.0798,0.1562
16:59:52:932,-1.3585,0.5619,10.6634,55.3077,-0.3716,0.8166,-0.0671,0.1513
16:59:52:952,-1.1227,0.0986,9.8819,55.212,-0.6494,0.9582,-0.1192,0.143
16:59:52:972,-1.1896,-0.3918,9.6134,55.0774,-0.8102,0.8932,-0.2523,0.1319
16:59:52:992,-1.7935,-0.428,9.2655,54.7787,-0.6792,0.8091,-0.1927,0.1204
16:59:53:012,-2.2177,-0.2333,8.3635,54.9317,-0.4003,0.7676,0.0703,0.1112
16:59:53:033,-2.1917,0.249,7.0896,54.9545,-0.1235,0.8262,0.4131,0.1048
16:59:53:053,-1.6755,0.9507,5.835,55.1385,0.0117,0.8166,0.6846,0.1006
16:59:53:071,-1.1352,1.3391,5.107,55.1779,-0.0341,0.7133,0.7527,0.0974
16:59:53:091,-0.9993,1.5662,5.0472,54.8126,-0.0969,0.6739,0.7421,0.094
16:59:53:111,-1.1816,1.719,5.2782,54.4577,-0.0841,0.6441,0.8006,0.0904
16:59:53:132,-1.4837,2.4304,5.5297,54.5238,-0.0745,0.4865,0.9103,0.0874
16:59:53:152,-1.0607,3.0571,6.2911,54.4582,-0.2502,0.0287,0.9209,0.0854
16:59:53:172,-0.2222,3.0664,7.6973,54.8631,-0.445,-0.4163,0.724,0.084
16:59:53:192,0.1763,2.8031,9.8662,55.0691,-0.4408,-0.6665,0.4088,0.0834
16:59:53:213,0.2406,2.8518,11.287,55.2126,-0.0862,-0.4951,0.1895,0.0844
16:59:53:232,0.5863,3.1308,11.2191,55.0123,0.1288,-0.198,0.0319,0.0872
16:59:53:252,0.7045,3.6062,10.9402,54.9541,-0.115,0.0064,-0.1512,0.0886
16:59:53:272,0.5922,3.912,11.7227,54.863,-0.5313,0.1022,-0.2619,0.0861
16:59:53:292,0.6663,3.8994,13.6506,54.7352,-0.5941,0.0788,-0.3183,0.0803
16:59:53:312,0.573,4.0632,14.8065,55.1739,-0.2097,-0.0309,-0.3119,0.0755
16:59:53:334,1.247,3.3455,14.6362,55.4956,0.1246,-0.3662,-0.3375,0.0751
16:59:53:352,1.1663,1.4731,13.9741,55.3123,0.3343,-0.56,-0.6271,0.0782
16:59:53:372,-0.3329,0.346,13.2915,55.2482,0.658,-0.7548,-0.7431,0.0842
16:59:53:392,-1.3411,0.1052,11.886,55.2089,0.8826,-0.823,-0.5611,0.094
16:59:53:414,-1.1432,0.2596,10.2863,54.9522,0.659,-0.824,-0.3311,0.1053
16:59:53:432,-0.0185,0.2557,9.4374,54.9189,0.0798,-0.7974,-0.2747,0.1136
16:59:53:452,0.8744,-0.0552,9.5746,54.9707,-0.3865,-0.6665,-0.4322,0.1168
16:59:53:472,0.9656,-0.4146,9.9605,55.2276,-0.4706,-0.4961,-0.6111,0.116
16:59:53:492,0.2365,-0.2224,9.6008,55.1731,-0.1086,-0.0767,-0.6015,0.1145
16:59:53:512,-0.371,0.159,8.1727,55.3515,0.2938,0.3407,-0.4035,0.1142
16:59:53:532,-0.5366,0.6238,6.5891,55.0324,0.5494,0.5355,-0.1767,0.1151
16:59:53:552,-0.3234,1.0071,5.416,54.7556,0.675,0.4855,-0.0373,0.1174
16:59:53:571,0.105,1.3944,4.7504,54.6512,0.7261,0.296,-0.0532,0.1209
16:59:53:592,0.2032,1.8006,4.4599,54.359,0.7665,0.0958,-0.1629,0.1257
16:59:53:612,0.1262,2.3281,4.2646,54.3811,0.757,-0.0564,-0.2353,0.1317
16:59:53:632,0.2713,2.9686,4.305,54.1902,0.5291,-0.3428,-0.2555,0.1379
16:59:53:652,0.6761,3.3722,5.2153,54.3627,0.0511,-0.7708,-0.3748,0.1431
16:59:53:672,0.5787,3.8349,7.1415,54.3277,-0.2406,-0.7623,-0.5355,0.146
16:59:53:692,-0.1433,4.3202,8.4928,54.1402,-0.1672,-0.1139,-0.5025,0.1467
16:59:53:712,-0.7777,4.7639,8.9277,54.3281,-0.1693,0.5313,-0.3141,0.145
16:59:53:732,-1.1177,4.9832,9.7334,54.3982,-0.4354,0.6611,-0.1192,0.14
16:59:53:752,-1.0032,4.9533,11.1492,54.3107,-0.6665,0.5717,0.033,0.1324
16:59:53:772,-0.5103,4.3173,12.5647,54.4545,-0.8251,0.3556,0.0437,0.1237
16:59:53:792,-0.3887,3.4038,14.4164,54.4416,-0.7676,0.2108,-0.0106,0.1148
16:59:53:812,-0.7491,3.0089,15.298,54.6348,-0.1757,0.576,0.0862,0.1081
16:59:53:832,-0.8545,2.5406,14.0764,54.3379,0.4291,0.7272,0.1629,0.1053
16:59:53:852,-0.9893,1.9006,12.2205,54.1794,0.625,0.444,0.0458,0.1064
16:59:53:873,-1.4619,1.1145,10.9128,54.1122,0.5004,0.0277,-0.1288,0.1096
16:59:53:892,-2.0558,0.457,10.5098,54.0167,0.2789,-0.2694,-0.2087,0.1132
16:59:53:912,-2.3277,-0.0133,10.2902,53.9645,0.066,-0.3705,-0.1544,0.1161
16:59:53:932,-1.9353,-0.2745,9.9082,54.2339,-0.2172,-0.4301,-0.1022,0.1178
16:59:53:952,-1.5008,-0.5267,9.2915,54.2063,-0.5696,-0.4621,-0.1437,0.117
16:59:53:972,-1.0338,-1.0197,9.2557,54.2639,-0.9103,-0.5834,-0.1874,0.1134
16:59:53:992,-0.9937,-0.9009,9.8348,54.1117,-0.8773,-0.3897,-0.1618,0.1078
16:59:54:012,-1.2474,-0.4844,9.3828,53.9121,-0.4408,0.1906,0.0309,0.1025
16:59:54:033,-1.4944,0.208,7.8501,53.7433,0.0011,0.7154,0.3066,0.0983
16:59:54:052,-1.5747,0.8457,6.1644,53.8289,0.1789,0.9507,0.5291,0.0958
16:59:54:072,-1.5164,1.3761,5.2318,53.957,0.2033,0.9593,0.675,0.0933
16:59:54:092,-1.4069,1.6938,4.9325,53.8983,0.2268,0.7964,0.758,0.0912
16:59:54:112,-1.2905,2.0291,4.9158,53.5719,0.2491,0.5664,0.7836,0.0903
16:59:54:132,-1.331,2.6866,4.96,53.543,0.1522,0.214,0.7399,0.0905
16:59:54:152,-1.2188,2.8041,5.4652,53.2482,-0.2065,-0.4429,0.6505,0.0913
16:59:54:172,-0.7981,2.3926,7.0299,53.3277,-0.658,-1.1594,0.5877,0.092
16:59:54:192,0.2033,1.8338,9.6036,53.2019,-0.7644,-1.317,0.5089,0.0929
16:59:54:212,1.1821,1.8282,11.5874,53.539,-0.4078,-0.7889,0.3577,0.0942
16:59:54:235,1.3303,2.2092,11.8668,53.5223,-0.1246,-0.082,0.1437,0.0953
16:59:54:252,0.9832,2.7414,11.6803,53.4937,-0.2619,0.4163,-0.0106,0.094
16:59:54:272,0.3734,3.2495,12.3347,53.4653,-0.5249,0.7399,-0.1182,0.0883
16:59:54:292,-0.1636,3.6754,13.3789,53.5557,-0.4983,0.9795,-0.1267,0.0793
16:59:54:312,-0.2149,3.9494,13.8991,53.4717,-0.2353,0.8773,-0.1363,0.0703
16:59:54:352,0.5082,3.4747,13.733,53.433,-0.0554,0.4173,-0.2555,0.0644
16:59:54:354,1.2493,1.5475,13.8078,53.47,0.0075,-0.2161,-0.5749,0.0621
16:59:54:372,0.5793,-0.0367,13.5774,53.2628,0.3418,-0.4291,-0.8507,0.0635
16:59:54:392,-0.715,-0.2688,12.0533,52.9685,0.6324,-0.197,-0.7964,0.0685
16:59:54:412,-1.0688,-0.1412,10.3482,52.8792,0.4099,-0.1107,-0.5707,0.074
16:59:54:432,-0.4954,-0.1635,9.6998,52.3797,-0.1437,-0.1373,-0.461,0.0762
16:59:54:452,-0.0459,-0.2904,9.9218,52.2604,-0.461,-0.0979,-0.5057,0.0741
16:59:54:472,-0.2977,-0.1553,9.7799,52.0589,-0.3599,0.0798,-0.5994,0.07
16:59:54:492,-0.9752,0.2194,8.9219,51.6367,-0.0245,0.2246,-0.5749,0.0665
16:59:54:512,-1.3194,0.6036,7.6957,51.6441,0.33,0.2779,-0.4525,0.0656
16:59:54:533,-1.1965,0.8926,6.6095,51.3895,0.5973,0.197,-0.3183,0.0675
16:59:54:553,-0.8134,1.1313,5.8533,51.0409,0.7825,0.0628,-0.2757,0.072
16:59:54:572,-0.7865,1.4808,5.2288,50.8295,0.9135,0.0341,-0.2906,0.0786
16:59:54:592,-0.9302,1.82,4.7219,50.6257,0.9294,0.0479,-0.28,0.0861
16:59:54:612,-1.1363,2.2972,4.4525,50.2068,0.7719,0.0202,-0.23,0.0933
16:59:54:632,-0.9545,2.8137,4.8549,49.7897,0.3407,-0.2023,-0.1895,0.0989
16:59:54:652,-0.9578,3.2834,6.1094,49.4103,-0.1107,-0.231,-0.2129,0.1013
16:59:54:672,-0.9489,3.4539,7.7264,49.2586,-0.3907,0.0224,-0.2268,0.1001
16:59:54:692,-1.4661,3.4544,9.4007,49.1033,-0.4897,0.3811,-0.247,0.0956
16:59:54:713,-2.0776,3.4976,10.5921,48.7498,-0.4259,0.6537,-0.1278,0.089
16:59:54:732,-2.4589,3.3719,11.4368,48.7828,-0.297,0.6303,0.0043,0.0823
16:59:54:751,-2.4342,3.1543,12.1321,48.7029,-0.1725,0.2619,0.116,0.0774
16:59:54:772,-2.2062,3.0414,12.695,48.3986,-0.1182,-0.1235,0.131,0.0755
16:59:54:791,-2.2638,2.8415,13.2141,48.3816,-0.017,-0.1256,0.1842,0.0755
16:59:54:812,-2.5257,2.9866,13.1198,48.5095,0.2449,0.164,0.3087,0.0763
16:59:54:832,-2.3925,2.7251,12.4342,48.4932,0.4578,0.1586,0.3609,0.0785
16:59:54:852,-2.0849,1.9314,11.458,48.3471,0.4535,-0.1448,0.231,0.0825
16:59:54:872,-2.128,1.0761,10.7193,48.2439,0.2172,-0.2906,0.0245,0.0872
16:59:54:892,-2.6763,0.5123,10.343,47.9967,-0.0809,-0.1544,-0.0554,0.0897
16:59:54:912,-2.9506,-0.0357,9.6392,47.4247,-0.4067,0.1203,0.0085,0.0886
16:59:54:933,-2.8991,-0.5965,9.0027,46.811,-0.774,0.28,0.0948,0.0835
16:59:54:952,-2.8292,-0.5226,8.693,46.345,-0.9805,0.3247,0.1629,0.0749
16:59:54:971,-2.4959,-0.5716,8.4037,46.1447,-0.9443,0.1661,0.2033,0.0652
16:59:54:992,-2.2819,-0.3778,7.9087,45.8701,-0.823,-0.0926,0.2023,0.057
16:59:55:012,-2.3148,-0.2093,7.5096,45.7963,-0.6441,-0.0788,0.3364,0.051
16:59:55:033,-2.5538,0.3247,6.9402,45.7693,-0.4163,0.1661,0.6164,0.0465
16:59:55:053,-2.4277,0.5532,6.3396,45.4238,-0.2598,0.3556,0.8964,0.0429
16:59:55:072,-2.2251,0.6318,6.1207,45.3172,-0.1331,0.3492,1.0732,0.0401
16:59:55:092,-1.9429,0.6704,6.4324,45.1536,0.0298,0.3056,1.1722,0.0387
16:59:55:112,-1.8521,0.9075,6.8855,45.3346,0.2055,0.2704,1.1935,0.0391
16:59:55:133,-1.5101,1.0449,7.3302,45.5022,0.2332,0.1725,1.1626,0.041
16:59:55:152,-1.0869,1.1012,8.2957,45.458,0.1192,0.0586,1.0359,0.0432
16:59:55:172,-0.5823,1.1367,9.4911,45.3042,0.0266,0.1171,0.8272,0.0448
16:59:55:192,-0.5258,1.5784,10.475,45.1681,0.0543,0.4163,0.5898,0.0448
16:59:55:212,-0.8801,1.9772,11.0825,44.971,0.1214,0.5323,0.411,0.0434
16:59:55:232,-1.0954,2.598,11.403,44.9302,0.1948,0.4195,0.3215,0.0421
16:59:55:252,-0.8819,3.2064,11.463,44.8502,0.1491,0.3013,0.198,0.0418
16:59:55:271,-1.0508,3.689,11.8858,45.0825,-0.0309,0.3375,0.0394,0.0411
16:59:55:291,-1.2305,4.026,12.5569,44.7841,-0.1352,0.5046,-0.0117,0.0384
16:59:55:313,-0.9397,3.7949,12.7493,44.4187,-0.1118,0.6015,-0.0681,0.0341
16:59:55:332,-0.3134,2.3618,12.4609,44.6176,-0.099,0.4291,-0.2704,0.0297
16:59:55:351,-0.7212,0.6153,12.1982,44.736,0.0426,0.115,-0.5302,0.0265
16:59:55:371,-1.7445,-0.166,11.5,44.6095,0.2151,-0.1235,-0.5664,0.0261
16:59:55:392,-2.1183,-0.448,10.6596,44.7124,0.1597,-0.3237,-0.3886,0.028
16:59:55:412,-1.3805,-0.5261,10.3072,44.3876,-0.1501,-0.5259,-0.3141,0.0303
16:59:55:432,-0.8003,-0.4237,10.4298,44.1592,-0.3428,-0.5483,-0.4131,0.0311
16:59:55:452,-0.748,-0.0623,10.0957,43.8792,-0.2417,-0.3002,-0.5334,0.0305
16:59:55:472,-1.2097,0.4688,8.922,43.5406,0.0043,-0.0724,-0.5568,0.0295
16:59:55:492,-1.3158,0.8164,7.7142,43.1433,0.1874,-0.0703,-0.5046,0.0295
16:59:55:512,-1.1068,1.0951,6.9836,43.0899,0.3439,-0.1011,-0.4546,0.0311
16:59:55:532,-1.1868,0.6946,7.1637,42.8753,0.5238,-0.1341,-0.4706,0.0342
16:59:55:552,-2.3653,0.2896,8.0454,42.6992,0.8954,-0.0543,-0.2896,0.0392
16:59:55:572,-2.9407,0.9176,7.8326,42.3048,1.4149,0.3205,0.1214,0.0471
16:59:55:593,-2.244,1.4545,6.5093,42.3033,1.5597,0.3524,0.329,0.0578
16:59:55:612,-1.5568,2.5924,5.6018,41.8657,1.3425,0.1256,0.2811,0.0693
16:59:55:632,-1.2239,3.5614,5.4018,41.5779,0.9401,-0.2534,0.0809,0.0798
16:59:55:652,-1.3935,4.073,5.8009,41.467,0.5472,-0.4876,-0.0671,0.0885
16:59:55:672,-1.4049,4.2921,6.2541,41.2867,0.1927,-0.5653,-0.099,0.0948
16:59:55:692,-1.327,4.4731,7.1725,41.2809,-0.1459,-0.5345,-0.1075,0.0984
16:59:55:712,-1.2278,4.4597,8.5466,41.1675,-0.3961,-0.5057,-0.1533,0.0992
16:59:55:732,-1.5963,4.5049,9.882,40.9667,-0.4216,-0.4301,-0.1799,0.0979
16:59:55:752,-1.9923,4.2592,10.7937,41.0381,-0.2726,-0.4535,-0.066,0.0966
16:59:55:772,-2.2478,4.0973,11.3747,40.9746,-0.1001,-0.4642,0.0969,0.097
16:59:55:795,-2.0024,3.7959,11.6737,41.03,0.0341,-0.362,0.2885,0.099
16:59:55:812,-1.6868,3.5071,12.0551,40.9478,0.0798,-0.1118,0.2683,0.1013
16:59:55:832,-1.7947,2.6242,12.1825,40.8215,0.0777,-0.1043,0.1001,0.1028
16:59:55:852,-2.0586,1.3445,12.0448,40.5723,-0.0468,-0.2694,-0.0979,0.104
16:59:55:873,-2.5736,0.2651,12.0511,40.4018,-0.1842,-0.3396,-0.1672,0.1047
16:59:55:892,-2.8232,-0.2769,11.8256,40.1217,-0.2289,-0.1618,-0.0351,0.1044
16:59:55:911,-2.6709,-0.4127,11.1518,40.2074,-0.2427,0.1682,0.1448,0.1029
16:59:55:932,-2.2188,-0.1455,9.9692,40.1063,-0.264,0.4173,0.2598,0.0997
16:59:55:955,-1.5834,0.1574,8.6169,39.876,-0.3705,0.4514,0.1693,0.0953
16:59:55:972,-1.4686,0.9622,7.5065,39.8399,-0.4876,0.2172,0.1288,0.0901
16:59:55:991,-1.5911,0.8534,6.8792,40.0768,-0.5611,0.1959,0.1735,0.0848
16:59:56:012,-1.7705,1.2615,6.4953,39.901,-0.4855,0.2065,0.3854,0.0795
16:59:56:032,-1.5989,1.1975,6.5544,39.6806,-0.3258,0.4386,0.6473,0.0748
16:59:56:051,-1.3602,1.8934,6.5229,39.3576,-0.0298,0.5089,0.8368,0.071
16:59:56:072,-1.0773,2.2293,6.2876,39.0737,0.2789,0.4003,0.8624,0.0706
16:59:56:091,-1.0796,2.4762,6.1995,38.8435,0.3939,0.1139,0.8059,0.0725
16:59:56:111,-1.1239,3.0295,6.458,38.8755,0.395,-0.0926,0.757,0.0764
16:59:56:135,-0.8086,3.4134,7.0015,39.0347,0.2172,-0.2172,0.6643,0.0809
16:59:56:151,-0.2452,3.4845,7.9158,39.1684,-0.0351,-0.2023,0.411,0.084
16:59:56:171,-0.2582,3.3073,9.1703,39.2644,-0.2257,-0.0373,0.0777,0.0843
16:59:56:191,-0.9614,3.3119,10.3513,39.3351,-0.2119,0.3119,-0.0617,0.082
16:59:56:212,-1.1618,3.187,11.1226,39.0265,-0.1916,0.4461,-0.0362,0.0783
16:59:56:233,-1.0415,2.9014,11.9371,39.0923,-0.263,0.395,-0.1118,0.0739
16:59:56:252,-1.3621,2.9842,12.9061,39.0592,-0.0862,0.3673,-0.1054,0.0696
16:59:56:272,-1.4515,3.3943,13.1538,38.7752,0.2225,0.3535,-0.0032,0.0674
16:59:56:292,-1.3754,3.8569,12.8868,38.8886,0.3918,0.2097,0.0043,0.0679
16:59:56:312,-1.0027,3.8121,12.3904,39.0325,0.3673,0.0287,-0.0522,0.07
16:59:56:332,-0.3888,2.2274,12.3398,39.1415,0.2268,-0.1821,-0.2257,0.0723
16:59:56:361,-0.8048,1.104,12.1777,39.0815,0.4248,-0.1938,-0.362,0.0748
16:59:56:372,-1.418,0.9778,10.8517,39.0083,0.6356,-0.1075,-0.3513,0.0793
16:59:56:392,-1.693,1.4484,9.2828,38.9865,0.5185,-0.1512,-0.2683,0.0845
16:59:56:412,-1.2946,1.7048,8.2026,39.045,0.0809,-0.3737,-0.2704,0.0883
16:59:56:432,-0.8641,1.541,7.8284,38.9738,-0.3652,-0.6665,-0.3886,0.0895
16:59:56:455,-0.5028,0.9177,8.1464,38.6228,-0.5994,-0.7559,-0.5132,0.0888
16:59:56:472,-0.8567,0.9424,8.4892,38.3614,-0.4897,-0.4227,-0.5728,0.087
16:59:56:492,-1.0817,1.091,8.1832,38.0914,-0.1235,0.0192,-0.4887,0.085
16:59:56:512,-1.1039,1.2796,7.1506,38.1904,0.1544,0.1576,-0.444,0.084
16:59:56:532,-1.3558,1.234,6.5477,38.2669,0.2757,0.0415,-0.4078,0.0842
16:59:56:552,-1.8128,1.1991,6.7059,38.1959,0.4184,-0.0394,-0.2715,0.0862
16:59:56:571,-2.1206,1.5349,6.624,38.2233,0.643,0.1118,-0.0287,0.0901
16:59:56:592,-1.8304,2.008,6.2555,38.0893,0.658,0.0617,0.1075,0.0952
16:59:56:612,-1.8378,2.1832,6.4925,38.0202,0.4056,-0.3907,0.1437,0.1003
16:59:56:632,-2.0137,2.8335,7.3242,37.5359,0.1799,-0.6026,0.2513,0.1055
16:59:56:651,-1.7585,3.4416,8.1006,37.7594,0.0692,-0.4482,0.3822,0.1102
16:59:56:672,-1.1336,3.8507,8.5223,37.5438,-0.0234,-0.1501,0.4184,0.1134
16:59:56:691,-1.0185,4.6147,9.2045,37.5926,-0.0745,0.1097,0.3961,0.1141
16:59:56:713,-1.1511,5.0014,10.0711,38.1876,-0.0458,-0.0085,0.3567,0.1135
16:59:56:732,-1.3493,5.1859,10.8065,38.4763,0.0181,-0.4312,0.3215,0.114
16:59:56:751,-1.2473,4.9718,11.1192,38.5626,0.0373,-0.8081,0.3354,0.1174
16:59:56:771,-0.9386,4.7546,11.5616,38.2552,0.0096,-0.7218,0.3737,0.1226
16:59:56:791,-0.845,4.5844,11.9571,38.0344,0.0426,-0.2151,0.4056,0.1266
16:59:56:812,-1.0754,4.3828,11.8978,38.1579,0.1608,0.1118,0.3726,0.1284
16:59:56:833,-0.9247,3.8033,10.7675,37.8807,0.0958,-0.1459,0.1533,0.1299
16:59:56:852,-0.7936,2.4989,9.6779,37.5879,-0.346,-0.5749,-0.2374,0.1307
16:59:56:872,-1.4866,1.1724,9.8974,38.0745,-0.7665,-0.7208,-0.4631,0.1295
16:59:56:892,-2.0743,0.3371,10.3087,37.9519,-0.8719,-0.3641,-0.2789,0.1261
16:59:56:912,-1.8445,0.1399,10.0528,38.1865,-0.8081,0.1256,0.0298,0.1205
16:59:56:932,-0.9418,0.8305,8.6418,38.3339,-0.7612,0.4983,0.1767,0.1131
16:59:56:951,-0.007,0.499,7.2707,38.5037,-0.971,0.3982,-0.0287,0.1038
16:59:56:972,-0.5824,0.0185,7.6562,38.5599,-1.1179,0.0117,-0.1821,0.0934
16:59:56:992,-1.2708,0.2826,8.2731,38.2664,-0.7964,0.1618,0.0777,0.0844
16:59:57:013,-0.932,0.7439,7.7631,37.9256,-0.3503,0.4067,0.4024,0.0781
16:59:57:033,-0.3031,1.3762,6.5895,38.0294,-0.1011,0.5707,0.4706,0.0738
16:59:57:052,-0.1194,1.5808,5.8523,37.9612,-0.0586,0.4301,0.3386,0.0704
16:59:57:072,-0.7168,1.8157,6.0253,38.4681,-0.0788,0.0447,0.2268,0.068
16:59:57:092,-0.7828,2.1274,6.626,38.7557,-0.0564,-0.2427,0.2981,0.0678
16:59:57:113,-0.2443,2.0491,7.2487,38.8831,-0.1235,-0.3141,0.2523,0.069
16:59:57:133,0.2238,1.838,8.3572,39.0187,-0.3077,-0.3449,0.082,0.0694
16:59:57:152,0.2491,1.7377,9.7676,39.23,-0.346,-0.1906,-0.1043,0.0686
16:59:57:171,-0.0045,1.7315,10.7536,39.3416,-0.3173,0.0649,-0.2481,0.0664
16:59:57:192,-0.129,1.7036,11.3684,39.3656,-0.2917,0.2002,-0.3758,0.063
16:59:57:212,-0.4209,1.8358,11.8205,39.2931,-0.362,0.1491,-0.4472,0.059
16:59:57:232,-0.8358,2.0195,12.6759,39.3662,-0.3737,0.2033,-0.4014,0.0547
16:59:57:252,-0.7052,2.3144,13.2943,39.5554,-0.2385,0.5089,-0.2885,0.0502
16:59:57:272,-0.7009,2.7491,13.446,39.8015,-0.0405,0.8634,-0.2683,0.0451
16:59:57:292,-0.8479,3.0225,12.9703,40.0432,0.1065,1.0093,-0.2672,0.0398
16:59:57:312,-0.7762,2.058,12.4993,40.0849,0.0905,0.7687,-0.3535,0.0349
16:59:57:332,-0.9373,0.3467,12.5472,40.3191,0.1799,0.329,-0.4812,0.0314
16:59:57:352,-1.4779,-0.5506,12.0504,40.2132,0.3865,-0.0724,-0.5174,0.0314
16:59:57:372,-1.7038,-0.9511,11.0257,40.1433,0.395,-0.2704,-0.3833,0.035
16:59:57:392,-1.6101,-1.005,10.3234,39.8502,0.1565,-0.3109,-0.2342,0.039
16:59:57:412,-1.3107,-0.7304,9.9634,40.0149,-0.0298,-0.4035,-0.1118,0.0413
16:59:57:432,-1.0251,-0.5312,9.4706,39.758,0.0149,-0.4578,-0.0628,0.0432
16:59:57:451,-1.0071,-0.1337,8.7553,39.7274,0.2449,-0.4631,0.0256,0.0462
16:59:57:472,-0.6636,0.2506,7.784,39.7966,0.5078,-0.3205,0.0852,0.0513
16:59:57:492,-0.4426,0.8076,6.6439,39.5732,0.7005,-0.1576,0.0873,0.0577
16:59:57:512,-0.2466,1.0118,5.6211,39.534,0.7602,-0.016,0.0149,0.0645
16:59:57:533,-0.3887,1.1783,5.0817,39.388,0.7325,-0.0106,-0.0554,0.0714
16:59:57:552,-0.4614,1.5152,4.9928,39.1484,0.6548,-0.0852,-0.0479,0.0767
16:59:57:572,-0.2874,1.8239,5.3942,39.0424,0.4621,-0.1618,-0.0692,0.0822
16:59:57:592,-0.137,2.2187,6.4328,39.0459,0.2385,-0.2076,-0.1608,0.0862
16:59:57:612,-0.1052,2.6079,7.7019,39.1204,0.0937,-0.2885,-0.28,0.0886
16:59:57:632,-0.4001,2.926,9.0059,39.5163,0.0713,-0.4035,-0.3279,0.0905
16:59:57:651,-0.8781,3.411,10.1155,39.5749,0.1842,-0.3918,-0.1959,0.0932
16:59:57:671,-1.1411,3.9701,10.9386,39.8003,0.3407,-0.2555,0.0596,0.097
16:59:57:691,-0.8922,4.6513,11.4084,40.0315,0.4993,-0.033,0.2864,0.1016
16:59:57:711,-0.4604,5.1565,11.5183,40.1578,0.5611,0.0532,0.3567,0.1065
16:59:57:732,-0.2294,5.0163,11.603,40.219,0.4557,0.0415,0.2779,0.1111
16:59:57:752,-0.7429,4.4269,12.1217,40.6564,0.3875,0.1565,0.1799,0.1144
16:59:57:772,-1.6054,3.8937,12.4792,40.868,0.6324,0.2949,0.2353,0.1172
16:59:57:792,-2.149,3.776,11.6239,40.8967,0.971,0.3311,0.3396,0.122
16:59:57:812,-2.072,3.6288,9.8203,40.9265,0.9859,0.2598,0.3237,0.1292
16:59:57:832,-1.9635,2.6411,8.6762,41.0773,0.4131,0.0085,0.0138,0.1352
16:59:57:853,-3.1031,1.5885,9.3453,40.9835,-0.2257,-0.0692,-0.1767,0.1365
16:59:57:872,-3.67,0.4867,10.1912,41.2155,-0.5206,0.116,-0.0128,0.1336
16:59:57:892,-3.387,0.193,10.3787,41.0806,-0.5387,0.3513,0.2214,0.1284
16:59:57:912,-2.26,0.538,9.2902,41.2491,-0.478,0.4919,0.2821,0.1225
16:59:57:932,-1.7321,0.9303,7.7345,41.3745,-0.609,0.593,0.1182,0.1158
16:59:57:951,-2.0227,0.6562,6.8393,40.9845,-0.8166,0.6111,0.0319,0.107
16:59:57:972,-2.7476,0.4506,7.1154,41.1017,-0.8368,0.7314,0.2193,0.0966
16:59:57:991,-3.0836,0.7364,7.1194,40.9738,-0.5515,0.8858,0.6548,0.0868
16:59:58:011,-2.9335,1.167,6.5267,40.9822,-0.2268,0.8645,1.0945,0.0796
16:59:58:033,-2.3154,1.607,5.8932,41.3021,-0.0649,0.7378,1.3745,0.0753
16:59:58:051,-1.4886,2.2048,5.7958,41.4926,-0.0319,0.5046,1.3979,0.073
16:59:58:071,-1.135,2.6529,6.0515,41.5223,-0.0617,0.1746,1.2297,0.072
16:59:58:092,-0.8762,2.6942,6.515,41.4053,-0.2151,-0.3716,1.0423,0.0724
16:59:58:111,-0.405,2.3972,7.7816,41.7051,-0.3833,-0.8006,0.8964,0.0743
16:59:58:132,0.2605,2.1941,9.4339,41.8624,-0.3567,-0.8751,0.7506,0.0775
16:59:58:153,0.9013,2.3476,10.7124,41.9178,-0.1991,-0.6228,0.4429,0.0811
16:59:58:172,0.8744,2.6202,11.1798,41.9375,-0.0862,-0.2523,0.0575,0.0835
16:59:58:191,0.399,2.8205,11.1532,42.2158,-0.1086,0.1427,-0.2651,0.0837
16:59:58:211,-0.2202,2.8977,11.4371,42.1677,-0.2332,0.5089,-0.4876,0.0806
16:59:58:233,-0.6937,3.0404,11.8118,42.3134,-0.2789,0.8624,-0.6122,0.0742
16:59:58:253,-1.0406,3.1925,11.7529,42.4427,-0.3066,1.1999,-0.7506,0.0652
16:59:58:272,-1.3807,2.8847,11.4208,42.5051,-0.4205,1.3478,-0.8805,0.0538
16:59:58:294,-1.9876,2.2227,11.9617,42.5659,-0.5611,1.2137,-0.9305,0.0404
16:59:58:311,-2.432,1.8299,12.5203,42.7403,-0.3471,0.61,-0.8123,0.0284
16:59:58:332,-1.995,1.1228,12.3446,42.8485,-0.2353,-0.1267,-0.7325,0.0222
16:59:58:363,-1.6497,-0.0809,12.3712,42.7332,-0.3567,-0.658,-0.7442,0.0205
16:59:58:373,-1.8971,-0.7191,12.7438,42.7093,-0.2864,-0.7453,-0.6132,0.0206
16:59:58:391,-1.9967,-0.5586,12.1391,42.8695,0.0798,-0.6516,-0.3237,0.0228
16:59:58:412,-1.4654,0.0398,10.5075,42.8911,0.4514,-0.6665,-0.1171,0.0281
16:59:58:433,-0.9943,0.6726,8.6927,42.9432,0.7133,-0.7133,-0.0468,0.0372
16:59:58:455,-0.5523,1.2046,7.2018,42.6251,0.8602,-0.7389,-0.0415,0.0465
16:59:58:471,-0.1731,1.3856,6.208,42.4285,0.9145,-0.6792,-0.1299,0.0577
16:59:58:491,-0.125,1.4779,5.5991,42.0969,0.9593,-0.5621,-0.2342,0.0686
16:59:58:511,-0.2403,1.7387,5.1603,41.7711,1.0061,-0.527,-0.2555,0.0793
16:59:58:533,0.0577,2.1775,4.8363,41.6312,0.9241,-0.6154,-0.3162,0.0912
16:59:58:552,0.4869,2.681,4.9858,41.661,0.6856,-0.7059,-0.5206,0.1001
16:59:58:571,0.3052,2.9988,5.6794,41.6787,0.363,-0.6132,-0.8081,0.1078
16:59:58:592,-0.455,3.1221,6.7598,41.6752,0.0575,-0.3268,-0.9294,0.1118
16:59:58:612,-1.1952,3.3431,8.0487,42.0775,-0.1054,-0.0053,-0.8102,0.112
16:59:58:634,-1.3836,3.7371,8.9893,42.1824,-0.0681,0.2459,-0.6207,0.11
16:59:58:651,-1.3402,3.9284,9.5745,42.1681,0.0064,0.2268,-0.5451,0.1076
16:59:58:672,-1.8108,4.2948,10.3183,42.4839,0.0948,0.1043,-0.5195,0.1061
16:59:58:692,-2.7295,4.4785,10.9995,42.2664,0.2321,-0.1107,-0.3503,0.1062
16:59:58:712,-2.8672,4.5173,11.3485,42.2345,0.3109,-0.2885,-0.066,0.109
16:59:58:733,-2.3617,4.7099,11.546,42.3827,0.2321,-0.3173,0.0703,0.113
16:59:58:752,-1.8891,4.5044,12.0315,42.3542,0.1224,-0.2246,0.0319,0.1163
16:59:58:772,-1.9513,3.6032,12.6162,42.3273,0.1107,-0.165,-0.1352,0.1182
16:59:58:792,-2.4832,2.4352,12.4704,42.2783,0.2289,-0.0745,-0.2097,0.1199
16:59:58:812,-3.0799,1.8834,11.5646,42.186,0.3428,0.1522,-0.1352,0.1221
16:59:58:832,-3.0796,1.6687,10.2674,42.0898,0.2576,0.3843,-0.0224,0.1239
16:59:58:852,-2.9504,1.3297,9.105,41.9937,-0.0362,0.5547,0.017,0.1232
16:59:58:871,-2.828,0.9145,8.2456,42.0268,-0.3822,0.6175,0.0213,0.1191
16:59:58:892,-2.7727,0.4809,7.7768,42.0013,-0.6143,0.6356,0.0735,0.1119
16:59:58:912,-2.6461,0.3927,7.4827,41.9379,-0.6739,0.5802,0.1927,0.1034
16:59:58:932,-2.3956,0.5571,7.0664,41.7513,-0.6239,0.5526,0.3662,0.0953
16:59:58:952,-2.1115,0.7627,6.7557,42.1342,-0.5376,0.5632,0.5302,0.0881
16:59:58:972,-1.8661,1.1011,6.4488,42.0742,-0.4078,0.5526,0.6665,0.0819
16:59:58:992,-1.5272,1.2818,6.1932,42.398,-0.3119,0.444,0.7037,0.077
16:59:59:013,-1.5693,1.5608,6.2359,42.6337,-0.2119,0.2736,0.6952,0.0733
16:59:59:032,-1.4119,2.0406,6.2371,42.7921,-0.1618,0.0948,0.6867,0.0715
16:59:59:052,-0.9989,2.3492,6.4835,42.9041,-0.2608,-0.1097,0.5579,0.0706
16:59:59:072,-0.6697,2.21,7.2746,42.9632,-0.4791,-0.2906,0.296,0.0693
16:59:59:092,-0.6913,1.7972,8.5344,42.8682,-0.6324,-0.2417,0.0575,0.0667
16:59:59:112,-1.1331,1.4184,10.0009,42.9979,-0.5015,0.0043,-0.0447,0.0626
16:59:59:132,-1.4177,1.8238,10.8185,42.8181,-0.0468,0.2459,-0.0234,0.0591
16:59:59:152,-1.216,2.2948,10.3143,42.8629,0.2491,0.0862,-0.1118,0.0585
16:59:59:171,-1.1166,2.9505,9.9505,43.0932,0.0979,-0.0724,-0.3247,0.0598
16:59:59:192,-1.3264,3.2099,10.6618,43.0708,-0.2108,0.0809,-0.494,0.0595
16:59:59:212,-1.6087,3.0966,11.888,43.61,-0.3034,0.3183,-0.5302,0.0558
16:59:59:232,-1.6984,3.3265,12.6807,43.9461,-0.1672,0.478,-0.4961,0.0508
16:59:59:251,-1.4281,3.4127,12.5477,44.0607,-0.0224,0.5121,-0.5313,0.0466
16:59:59:272,-1.18,2.2466,12.2666,44.5146,-0.1001,0.297,-0.7421,0.0427
16:59:59:292,-1.6471,0.7274,12.5716,44.4961,-0.083,0.1192,-0.9135,0.0389
16:59:59:312,-2.5479,0.1583,12.0056,44.7501,0.049,0.2364,-0.7932,0.0364
16:59:59:332,-2.5753,0.0674,10.7629,45.0516,-0.0692,0.3567,-0.5334,0.0345
16:59:59:351,-1.9389,0.0229,10.0763,45.2853,-0.4578,0.2002,-0.4418,0.0305
16:59:59:372,-1.5235,0.1304,10.2774,45.8362,-0.6835,-0.1373,-0.5217,0.0243
16:59:59:391,-1.4434,0.3083,10.003,46.243,-0.5121,-0.3918,-0.5919,0.0187
16:59:59:412,-1.4134,0.5337,9.0264,46.3028,-0.1991,-0.5291,-0.5526,0.0164
16:59:59:432,-1.2616,0.7502,8.2225,46.514,0.1235,-0.4834,-0.4706,0.0176
16:59:59:451,-1.2092,1.0537,7.3167,46.6233,0.4301,-0.3087,-0.4227,0.0211
16:59:59:472,-1.2954,1.3361,6.4017,46.6947,0.6803,-0.2268,-0.3737,0.0264
16:59:59:491,-1.313,1.744,5.5838,46.6775,0.7985,-0.3471,-0.3268,0.0334
16:59:59:511,-0.9566,2.0273,5.2539,46.8959,0.7527,-0.5834,-0.3322,0.0417
16:59:59:532,-0.7772,2.508,5.3821,46.914,0.6548,-0.5962,-0.4152,0.0502
16:59:59:551,-0.6896,2.877,5.7099,47.3137,0.4461,-0.3971,-0.5345,0.0575
16:59:59:573,-1.1388,2.7916,6.7426,47.6141,0.1022,-0.2289,-0.7378,0.0613
16:59:59:591,-2.1632,2.4459,8.3803,47.4862,-0.1373,-0.1405,-0.8145,0.0613
16:59:59:611,-3.3145,2.4338,10.1277,47.7375,-0.0106,-0.0192,-0.643,0.0596
16:59:59:632,-4.2143,2.7807,10.7825,47.8439,0.3492,0.1661,-0.2704,0.0598
16:59:59:652,-4.092,3.1092,10.463,48.0445,0.4812,0.1618,0.0468,0.0628
16:59:59:672,-3.8802,3.4023,10.5789,48.3431,0.3279,0.0064,0.1182,0.0663
16:59:59:692,-3.9389,3.1116,11.5466,49.1163,0.148,-0.1224,0.1544,0.0689
16:59:59:711,-4.1394,2.7488,12.6515,49.271,0.1586,0.0277,0.3247,0.0707
16:59:59:732,-4.0984,2.6904,13.0059,49.6733,0.3662,0.2694,0.5355,0.073
16:59:59:752,-3.7227,2.5499,12.4355,49.7646,0.5121,0.2385,0.6026,0.0764
16:59:59:772,-3.6235,2.2047,11.7534,50.1295,0.511,0.0277,0.5217,0.0807
16:59:59:791,-3.6386,1.648,11.0573,50.1601,0.4365,-0.1267,0.4759,0.0856
16:59:59:812,-3.7114,1.446,10.4304,50.1045,0.3194,-0.0692,0.544,0.0904
16:59:59:832,-3.3312,1.1916,9.5323,50.4939,0.1214,0.0735,0.6345,0.0938
16:59:59:852,-2.8794,1.115,8.6883,50.5065,-0.1629,0.1863,0.6622,0.0947
16:59:59:871,-2.5757,1.0872,7.9175,50.657,-0.4248,0.2012,0.6633,0.0926
16:59:59:891,-2.2497,0.9045,7.4078,50.722,-0.6292,0.0852,0.6824,0.0884
16:59:59:912,-1.9157,0.7074,7.4434,50.9462,-0.7335,0.0692,0.7495,0.0833
16:59:59:932,-1.7158,0.6919,7.6951,51.2397,-0.642,0.2406,0.857,0.0779
16:59:59:952,-1.6146,0.9411,7.4565,51.6471,-0.3886,0.3929,1.0104,0.073
16:59:59:972,-1.2314,1.2691,6.7366,52.1215,-0.1672,0.4195,1.12,0.07
16:59:59:991,-0.9132,1.5355,6.2407,52.185,-0.0564,0.3822,1.1189,0.0684
17:00:00:011,-0.708,1.7915,6.0383,52.0064,-0.0362,0.2385,1.0189,0.0676
17:00:00:033,-0.7701,2.0978,6.1681,51.785,-0.0511,0.1533,0.9103,0.0674
17:00:00:052,-0.6399,2.4429,6.5756,51.7283,-0.1629,0.1022,0.7761,0.0672
17:00:00:085,-0.7386,2.4236,7.4719,51.5486,-0.3311,0.0979,0.5355,0.0657
17:00:00:116,-1.0755,2.1252,8.558,51.8476,-0.3929,0.1192,0.3279,0.0627
17:00:00:117,-1.3308,2.1323,9.4281,52.0149,-0.2523,0.2502,0.2183,0.0593
17:00:00:132,-1.5223,2.1102,10.1235,52.6733,-0.116,0.3226,0.0671,0.0561
17:00:00:152,-2.2936,2.3441,10.7361,53.1071,0.0575,0.4301,-0.0085,0.0536
17:00:00:172,-2.525,2.7766,10.6858,53.0322,0.3109,0.4961,0.0681,0.0521
17:00:00:192,-2.2034,3.284,9.9483,53.1191,0.363,0.411,0.1001,0.0523
17:00:00:212,-1.9191,3.5931,9.6415,53.1008,0.1831,0.3375,0.0351,0.0527
17:00:00:233,-1.9029,3.6197,10.1942,52.947,-0.0564,0.3939,-0.0128,0.0514
17:00:00:251,-1.7764,3.6778,10.9754,53.2365,-0.2225,0.4759,-0.0192,0.048
17:00:00:271,-1.2407,2.7833,11.4769,53.6642,-0.3705,0.5355,-0.1341,0.0428
17:00:00:292,-1.2515,1.2511,11.9755,53.9201,-0.3716,0.3098,-0.3556,0.0362
17:00:00:327,-1.9008,0.0997,11.8132,53.8788,-0.2289,-0.0405,-0.4386,0.0312
17:00:00:333,-2.4056,-0.0225,11.1304,54.0606,-0.1448,-0.3375,-0.3077,0.0295
17:00:00:352,-1.907,0.2288,10.3881,54.1568,-0.33,-0.5057,-0.2055,0.0298
17:00:00:378,-1.1717,0.831,9.9888,54.0942,-0.5526,-0.6569,-0.2672,0.0291
17:00:00:391,-0.7907,1.0954,9.4495,54.3552,-0.6388,-0.7751,-0.478,0.0278
17:00:00:411,-0.8091,1.2739,8.6822,54.5359,-0.5281,-0.8304,-0.6537,0.0263
17:00:00:432,-0.8652,1.372,7.8184,54.6587,-0.33,-0.9369,-0.675,0.0264
17:00:00:451,-0.9756,1.454,6.9691,54.6665,-0.1427,-0.8187,-0.6239,0.0286
17:00:00:471,-1.1324,1.468,6.1142,54.9356,-0.0596,-0.5643,-0.5078,0.0314
17:00:00:491,-0.7234,1.1561,6.2449,55.4051,-0.0607,-0.3151,-0.4141,0.0333
17:00:00:512,-0.5197,0.9072,7.305,55.3766,0.131,0.0852,-0.4727,0.0338
17:00:00:532,-0.8103,1.0054,7.8958,55.543,0.4844,0.3386,-0.4557,0.0345
17:00:00:552,-0.858,1.3594,7.6872,55.784,0.6729,0.4695,-0.4834,0.0366
17:00:00:571,-0.9793,1.8493,7.9467,55.7709,0.6037,0.4663,-0.5611,0.039
17:00:00:592,-1.3246,1.8736,9.0315,56.0625,0.4674,0.2981,-0.6675,0.0405
17:00:00:614,-2.2496,2.3513,9.9938,56.3139,0.527,0.3354,-0.5738,0.0418
17:00:00:637,-2.6688,3.0314,10.2552,56.0271,0.6654,0.3971,-0.3087,0.0442
17:00:00:651,-2.711,3.8465,10.1049,56.17,0.7495,0.3343,-0.099,0.0479
17:00:00:671,-2.8075,4.6111,9.9864,56.0311,0.725,0.1874,-0.0021,0.0526
17:00:00:692,-3.0121,4.7041,9.9554,55.8748,0.5483,-0.0543,0.0043,0.0576
17:00:00:712,-3.4271,4.6886,10.4027,56.0177,0.3503,-0.1938,0.0703,0.062
17:00:00:732,-3.5053,4.4483,11.0779,56.0856,0.2736,-0.1863,0.1767,0.0658
17:00:00:751,-3.5164,3.9454,11.4896,56.0679,0.3077,-0.1789,0.1821,0.0694
17:00:00:771,-3.2784,2.7531,11.1693,56.1865,0.2385,-0.3705,0.0138,0.0732
17:00:00:792,-3.6087,1.4047,11.042,56.502,-0.0128,-0.626,-0.2417,0.0763
17:00:00:812,-4.3123,0.466,11.2489,56.5907,-0.1618,-0.5483,-0.2513,0.0783
17:00:00:833,-4.4369,-0.0873,10.7914,56.8546,-0.2065,-0.2917,-0.0756,0.0791
17:00:00:852,-4.0164,-0.2237,9.7136,56.9865,-0.3002,-0.0958,0.0405,0.0785
17:00:00:872,-3.444,-0.1098,8.3313,57.0305,-0.4908,0.0192,0.0639,0.0761
17:00:00:892,-3.025,-0.0531,7.2803,56.9043,-0.7357,0,0.0245,0.0713
17:00:00:912,-2.895,0.0269,6.7884,57.1708,-0.8389,0.0319,0.083,0.0646
17:00:00:933,-2.8894,0.028,6.2822,57.3099,-0.8123,0.1895,0.3024,0.0575
17:00:00:952,-2.6518,0.3377,5.9424,57.2866,-0.7282,0.3588,0.5547,0.0503
17:00:00:972,-2.1917,0.6542,5.5944,57.3643,-0.6324,0.5579,0.7293,0.0434
17:00:00:992,-1.8539,1.0762,5.5532,57.5492,-0.544,0.7538,0.7634,0.0362
17:00:01:012,-1.9272,1.4375,5.8823,57.4759,-0.4493,0.7389,0.7293,0.0289
17:00:01:033,-1.975,1.8186,6.1594,57.4132,-0.3481,0.5494,0.7165,0.0221
17:00:01:052,-1.6435,1.7846,6.5664,57.7004,-0.4269,0.1267,0.5877,0.0179
17:00:01:071,-1.5046,1.3831,7.9222,57.583,-0.6399,-0.3354,0.3748,0.0142
17:00:01:092,-1.7045,0.8269,9.9429,57.6992,-0.6367,-0.4067,0.2364,0.011
17:00:01:111,-2.0614,0.752,11.4161,57.8267,-0.2598,-0.1299,0.2779,0.0088
17:00:01:132,-1.971,1.2887,11.4507,57.5913,0.0383,0.1182,0.3109,0.0085
17:00:01:151,-1.6161,1.9436,11.4454,57.6147,0.0117,0.1033,0.1735,0.0086
17:00:01:172,-1.6123,2.4157,11.8044,57.3667,-0.1852,0.0788,-0.0362,0.0077
17:00:01:192,-1.6784,2.5336,12.8023,57.3256,-0.2683,0.1852,-0.1661,0.005
17:00:01:215,-1.8131,2.7741,13.5547,57.4526,-0.1522,0.3428,-0.2278,0.0014
17:00:01:232,-1.8371,3.161,13.6244,57.4389,0.0543,0.3322,-0.2395,-0.0017
17:00:01:252,-1.5137,2.5145,12.9461,57.8177,0.1118,0.0128,-0.3098,-0.0029
17:00:01:272,-1.3399,1.1068,12.6564,57.8937,0.1906,-0.4599,-0.4472,-0.0021
17:00:01:293,-1.481,-0.0526,11.9721,57.6915,0.3982,-0.7165,-0.544,0.0022
17:00:01:311,-2.1004,-0.3411,10.6342,57.4806,0.4908,-0.4791,-0.4929,0.0089
17:00:01:332,-2.4804,-0.2991,9.4545,57.4886,0.2097,-0.2885,-0.3311,0.0144
17:00:01:351,-2.2706,-0.393,9.1278,57.3119,-0.2364,-0.2151,-0.2204,0.0162
17:00:01:372,-1.9081,-0.4771,9.3228,57.4427,-0.4557,-0.1927,-0.181,0.0144
17:00:01:392,-1.8568,-0.5019,9.3102,57.3037,-0.3513,-0.2225,-0.1948,0.0114
17:00:01:412,-1.6614,-0.3682,8.7703,57.5071,-0.0319,-0.2811,-0.1352,0.0102
17:00:01:432,-1.4787,-0.1513,7.8795,57.6109,0.33,-0.2225,-0.0852,0.0123
17:00:01:451,-1.3273,0.2636,6.8202,57.5763,0.6132,-0.0798,-0.0341,0.0168
17:00:01:472,-1.3455,0.6816,5.8921,57.4982,0.758,0.033,0,0.0226
17:00:01:492,-1.2918,1.032,5.3094,57.2597,0.8017,0.0458,0.0671,0.0289
17:00:01:512,-0.9509,1.4412,5.2208,57.0812,0.7793,-0.0649,0.0916,0.0356
17:00:01:532,-0.6136,2.0205,5.5924,56.6423,0.6665,-0.2704,-0.0128,0.0424
17:00:01:551,-0.421,2.6394,6.3072,56.3839,0.477,-0.411,-0.2204,0.0489
17:00:01:572,-0.7679,2.9482,7.3494,56.5737,0.2385,-0.3524,-0.4983,0.0539
17:00:01:592,-1.4844,3.1691,8.5052,56.5296,0.1405,-0.0213,-0.593,0.0562
17:00:01:612,-2.3822,3.3367,9.4569,56.3394,0.1363,0.3854,-0.511,0.0563
17:00:01:632,-3.1554,3.5833,9.9511,56.4444,0.1778,0.6984,-0.2427,0.0548
17:00:01:651,-3.4469,3.878,10.1428,56.3312,0.1597,0.6271,0.0468,0.0527
17:00:01:672,-3.3015,4.1306,10.4832,56.0676,0.0341,0.3013,0.2193,0.0511
17:00:01:696,-3.1671,4.3953,11.0932,55.9636,-0.082,0.1054,0.2832,0.0501
17:00:01:711,-3.1974,3.9007,11.7143,55.7738,-0.2513,0.0522,0.2747,0.0488
17:00:01:733,-3.406,3.0565,12.617,55.5637,-0.2438,0.0075,0.3237,0.0465
17:00:01:753,-3.2327,2.0866,12.9167,55.6808,0,-0.1522,0.3226,0.0457
17:00:01:771,-3.1352,1.2718,11.9583,55.652,0.2076,-0.2832,0.2353,0.0476
17:00:01:791,-3.0066,0.642,10.7705,55.614,0.1789,-0.2587,0.1352,0.0512
17:00:01:811,-3.0365,0.5455,9.691,55.9354,-0.0671,0.0043,0.066,0.0534
17:00:01:832,-2.8179,0.2675,8.6712,55.8674,-0.461,0.3056,-0.0298,0.0516
17:00:01:851,-2.5975,-0.5301,8.3515,55.6869,-0.9103,0.3364,-0.2321,0.0446
17:00:01:872,-2.6573,-1.4632,8.9943,55.7663,-1.0955,0.1373,-0.3545,0.034
17:00:01:891,-2.8752,-1.3751,9.3525,55.7874,-0.8688,0.0926,-0.3173,0.024
17:00:01:912,-2.785,-1.1071,8.5864,55.747,-0.544,0.1278,-0.1597,0.0168
17:00:01:932,-2.6999,-0.633,7.5997,55.8471,-0.2747,0.23,0.033,0.0122
17:00:01:951,-2.63,-0.1458,7.0084,55.8049,-0.0617,0.3056,0.2566,0.0094
17:00:01:971,-2.6174,0.2001,6.8253,55.9164,0.1469,0.2438,0.412,0.0083
17:00:01:991,-2.6842,0.6523,6.5193,56.1386,0.3599,0.2289,0.576,0.0096
17:00:02:011,-2.5,0.7014,6.4891,56.0929,0.4227,0.0607,0.6026,0.0126
17:00:02:032,-2.5409,1.2137,6.4083,56.1437,0.4461,-0.0617,0.625,0.0168
17:00:02:051,-2.5359,1.7268,6.1604,56.3103,0.2864,-0.1554,0.6164,0.0215
17:00:02:072,-2.2366,1.5991,6.3237,55.9935,-0.198,-0.6079,0.4855,0.0249
17:00:02:091,-2.0582,1.6055,7.0122,56.034,-0.7463,-1.0998,0.3375,0.0262
17:00:02:112,-1.6546,1.924,8.6702,55.9618,-1.038,-1.2467,0.2374,0.0257
17:00:02:133,-1.2163,1.5574,10.4712,55.9488,-0.9646,-1.2957,0.099,0.0245
17:00:02:151,-0.9272,1.2822,12.0293,55.9256,-0.6548,-1.3287,-0.0415,0.0247
17:00:02:171,-0.6067,1.4255,12.7421,55.5645,-0.3013,-1.152,-0.1214,0.0275
17:00:02:191,-0.2448,1.7563,12.9091,55.3792,-0.0256,-0.6207,-0.2214,0.0316
17:00:02:212,-0.2212,2.1343,12.7064,55.2726,0.0735,0.049,-0.3279,0.0342
17:00:02:232,-0.8067,2.8179,12.5766,55.2691,0.0862,0.7218,-0.3599,0.0334
17:00:02:252,-1.2059,3.045,12.3127,55.479,0.0798,1.0093,-0.2864,0.0294
17:00:02:271,-1.0025,2.1705,12.1875,55.2134,0.0298,0.7474,-0.3375,0.0242
17:00:02:292,-0.9035,1.1,12.1828,55.6335,0.1544,0.1192,-0.4663,0.0209
17:00:02:312,-1.0286,0.324,11.4231,55.7205,0.2555,-0.0617,-0.5291,0.0217
17:00:02:332,-1.2726,-0.3428,10.7663,55.935,0.0926,-0.0415,-0.4525,0.0235
17:00:02:353,-1.4091,-0.8684,10.5548,56.0547,-0.3311,-0.0916,-0.3492,0.0233
17:00:02:379,-1.598,-0.8945,10.7501,55.896,-0.5994,-0.0181,-0.1661,0.0198
17:00:02:391,-1.382,-0.6419,10.4406,55.8187,-0.5323,-0.0011,0.0383,0.0147
17:00:02:411,-1.0953,-0.4041,9.4607,55.4252,-0.2587,0.0128,0.1437,0.0109
17:00:02:433,-0.5382,-0.3754,8.4385,55.6598,0.0256,-0.0085,0.1672,0.0095
17:00:02:451,-0.4066,0.1215,7.6223,55.3656,0.3822,0.0479,0.1182,0.0106
17:00:02:471,-0.5094,0.5766,6.559,55.0202,0.7687,0.1714,0.1384,0.0144
17:00:02:492,-0.5671,0.7498,5.5288,54.7332,1.0327,0.198,0.1916,0.0207
17:00:02:512,-0.5257,1.0668,5.0904,54.6126,1.1211,0.05,0.2151,0.029
17:00:02:532,-0.3762,1.7723,4.9517,54.4598,1.054,-0.0767,0.1927,0.0384
17:00:02:553,-0.2201,2.443,5.2344,54.3432,0.7602,-0.0873,0.066,0.0472
17:00:02:571,-0.3361,2.8518,6.007,54.1444,0.3535,0.0788,-0.1512,0.0527
17:00:02:591,-0.7309,2.8369,7.2929,54.1796,-0.0937,0.1267,-0.3939,0.0536
17:00:02:612,-1.4924,2.6329,8.6872,53.9899,-0.3492,0.0873,-0.5185,0.0508
17:00:02:633,-2.2308,2.6478,9.7105,53.9373,-0.395,-0.0586,-0.3843,0.0462
17:00:02:651,-2.4778,2.8585,10.3988,53.8964,-0.3194,-0.1214,-0.1299,0.0436
17:00:02:671,-2.2451,3.2177,10.8111,53.6254,-0.23,-0.1299,0.1533,0.0419
17:00:02:691,-1.5987,3.3674,11.1201,53.357,-0.297,-0.1991,0.2449,0.0409
17:00:02:713,-1.1298,2.9711,11.9493,53.1847,-0.5579,-0.3535,0.1501,0.0393
17:00:02:732,-1.3613,2.2429,13.3542,52.9747,-0.6973,-0.3375,-0.0053,0.036
17:00:02:751,-1.7697,1.0231,14.3775,52.9456,-0.5387,-0.2832,-0.0798,0.032
17:00:02:771,-2.0914,-0.4211,14.324,52.88,-0.1735,-0.2928,-0.0958,0.0297
17:00:02:792,-2.6107,-1.173,13.4593,52.8867,0.1959,-0.264,-0.0426,0.0307
17:00:02:812,-2.89,-1.3272,12.3021,52.8178,0.3588,-0.1246,0.0681,0.0342
17:00:02:832,-2.9632,-1.2197,11.1919,52.6958,0.313,0.0511,0.1437,0.0377
17:00:02:851,-2.8994,-1.1663,10.2113,52.7899,0.1405,0.1512,0.181,0.0397
17:00:02:871,-2.6579,-0.9766,9.3453,52.6062,-0.0532,0.1842,0.1948,0.0397
17:00:02:892,-2.2696,-0.8323,8.468,52.688,-0.2236,0.1586,0.1895,0.038
17:00:02:912,-1.7593,-0.7825,8.0331,52.6509,-0.3247,0.0852,0.1405,0.0351
17:00:02:933,-1.5327,-0.4033,7.5208,52.3688,-0.23,0.2193,0.164,0.032
17:00:02:951,-1.4453,-0.0203,6.7208,52.3474,-0.0277,0.4642,0.28,0.0292
17:00:02:971,-1.3831,0.1456,5.9781,52.405,0.1437,0.7154,0.4014,0.0269
17:00:02:991,-1.3431,-0.019,5.844,52.4162,0.1884,0.6963,0.4003,0.0247
17:00:03:012,-1.7397,0.2147,6.2254,52.1296,0.2683,0.4865,0.33,0.0231
17:00:03:032,-2.0801,0.7499,6.5222,52.1844,0.3982,0.1373,0.3609,0.0236
17:00:03:051,-1.9545,0.912,6.6207,52.1467,0.4088,-0.3822,0.3439,0.0272
17:00:03:071,-1.5572,1.2981,7.2049,52.008,0.2087,-0.7932,0.2491,0.0331
17:00:03:092,-1.3482,1.7004,7.94,52.1147,0.0298,-0.8634,0.115,0.0391
17:00:03:111,-1.431,1.787,8.744,52.1996,-0.1065,-0.7623,0.05,0.0437
17:00:03:132,-1.6481,2.3689,9.6546,52.214,-0.1001,-0.4546,0.2002,0.0468
17:00:03:152,-1.4198,3.063,10.1748,52.1038,-0.1001,-0.082,0.4344,0.0485
17:00:03:172,-0.7541,3.3287,10.561,51.6134,-0.3056,0.1906,0.4205,0.0478
17:00:03:191,-0.1998,3.2508,11.2636,51.0226,-0.6739,0.2715,0.1661,0.0434
17:00:03:211,-0.2841,3.3537,12.6138,50.6956,-0.938,0.3045,-0.1235,0.0355
17:00:03:232,-0.9908,3.7618,13.872,50.4369,-0.7112,0.5824,-0.1118,0.0257
17:00:03:251,-1.3163,3.3265,14.2275,50.3611,-0.2992,0.6441,0.2843,0.0173
17:00:03:271,-0.5525,1.5553,13.811,50.3158,0.2097,0.5526,0.7357,0.013
17:00:03:291,0.9777,-0.7005,12.8732,50.1533,0.4408,0.3992,0.4269,0.0131
17:00:03:311,0.4488,-0.8404,12.0431,49.5165,0.5589,0.2566,-0.1959,0.0148
17:00:03:332,-0.9201,-0.6123,10.7216,49.3037,0.5856,0.2417,-0.4397,0.0175
17:00:03:352,-1.5493,-0.4383,9.0719,49.0282,0.3151,0.2555,-0.412,0.0199
17:00:03:372,-1.4782,-0.5801,7.9399,49.0053,-0.2193,0.1948,-0.4173,0.0194
17:00:03:391,-1.4587,-0.989,8.2752,48.7312,-0.7261,-0.1842,-0.6005,0.0149
17:00:03:411,-1.7309,-0.5832,8.8955,49.0832,-0.7133,-0.412,-0.6079,0.0093
17:00:03:432,-1.7939,-0.4146,8.8855,49.0378,-0.2736,-0.3971,-0.4812,0.0061
17:00:03:451,-1.6815,0.0034,8.0338,49.0065,0.2459,-0.4312,-0.2875,0.0072
17:00:03:472,-1.2887,0.3657,7.1741,48.9393,0.6207,-0.5909,-0.1267,0.0126
17:00:03:492,-0.5962,0.9113,6.5625,48.7791,0.8198,-0.7463,-0.0117,0.0219
17:00:03:511,-0.0446,1.5871,6.1942,48.4651,0.9018,-0.6984,-0.0724,0.033
17:00:03:532,0.0846,2.1485,6.1475,48.2258,0.8805,-0.5526,-0.2246,0.044
17:00:03:551,0.0842,2.6706,6.3879,48.1953,0.7548,-0.4067,-0.4141,0.0536
17:00:03:573,-0.09,2.8804,7.0345,47.8313,0.4972,-0.3886,-0.6409,0.061
17:00:03:592,-0.5689,2.6975,7.888,47.9417,0.2129,-0.4333,-0.791,0.0659
17:00:03:612,-1.3001,2.4198,9.0867,47.8381,0.0085,-0.4908,-0.7655,0.0687
17:00:03:632,-2.0393,2.7099,10.5618,47.5021,0.0596,-0.3971,-0.494,0.0707
17:00:03:651,-2.0007,3.0991,11.3092,47.3959,0.3481,-0.1182,-0.1405,0.0734
17:00:03:671,-1.7525,3.1443,11.2695,47.1867,0.5227,-0.0117,0.0437,0.0774
17:00:03:691,-1.7648,3.2111,11.3407,46.9497,0.4322,-0.1874,0.1246,0.082
17:00:03:711,-1.8464,3.0549,12.1536,46.8876,0.2757,-0.3024,0.214,0.0865
17:00:03:732,-2.1525,3.1074,13.111,46.8151,0.3173,-0.0213,0.3599,0.0903
17:00:03:751,-2.3013,3.0866,13.3106,46.5808,0.5036,0.2076,0.5057,0.0935
17:00:03:772,-2.1135,2.2457,12.8037,46.3685,0.577,0.0085,0.5004,0.0976
17:00:03:793,-2.408,1.2396,12.2062,46.1997,0.544,-0.2225,0.4418,0.103
17:00:03:812,-2.8023,0.8368,11.8275,46.1253,0.5653,-0.1714,0.5355,0.109
17:00:03:833,-2.6285,0.8009,10.9253,46.0208,0.5951,0.0841,0.7048,0.1151
17:00:03:852,-2.1067,0.9634,9.6853,46.2259,0.4578,0.2108,0.774,0.1199
17:00:03:872,-1.4341,1.299,8.4656,46.289,0.1725,0.2779,0.725,0.1225
17:00:03:891,-0.8046,1.3996,7.4301,46.3017,-0.1938,0.3162,0.5291,0.122
17:00:03:911,-0.6264,0.9909,7.0461,46.6802,-0.5728,0.231,0.2736,0.118
17:00:03:932,-0.8685,0.9472,7.1277,46.7693,-0.7027,0.3684,0.2427,0.1115
17:00:03:952,-1.1384,0.9084,7.1753,46.5491,-0.5845,0.6015,0.362,0.1038
17:00:03:972,-1.1141,0.7686,7.2035,46.2548,-0.363,0.6399,0.4791,0.0965
17:00:03:992,-1.1876,0.9738,7.5507,46.1664,-0.0777,0.445,0.5408,0.0912
17:00:04:012,-1.2376,1.4151,7.6249,45.7075,0.2353,0.2789,0.6132,0.0896
17:00:04:032,-1.0974,1.8294,7.2521,45.755,0.4248,0.2896,0.6824,0.0911
17:00:04:053,-0.7131,2.0877,7.0961,45.6509,0.4418,0.3109,0.6675,0.0936
17:00:04:073,-0.409,2.3745,7.1044,45.6769,0.3673,0.2257,0.5526,0.0958
17:00:04:093,-0.0381,2.5891,7.1845,45.647,0.2449,-0.017,0.3801,0.0978
17:00:04:112,0.2517,2.531,7.5189,45.6444,0.1033,-0.2033,0.1725,0.1
17:00:04:133,0.1305,2.7839,8.2581,45.5944,0.0511,-0.0724,0.016,0.1018
17:00:04:154,-0.0876,3.3237,8.7809,45.1026,0.0532,0.1171,-0.0703,0.1022
17:00:04:173,0.0338,3.6813,9.0412,45.0212,-0.0948,0.1256,-0.23,0.1015
17:00:04:193,-0.0955,3.9318,9.5033,44.8404,-0.3567,0.2065,-0.4802,0.0988
17:00:04:213,-0.4678,3.7452,10.5691,44.6774,-0.5781,0.378,-0.692,0.0931
17:00:04:233,-1.3162,3.4626,11.7637,44.3233,-0.6175,0.5888,-0.7431,0.0848
17:00:04:253,-1.8954,3.6235,12.4282,44.4136,-0.4706,0.7506,-0.5547,0.0757
17:00:04:274,-1.5158,3.5818,12.292,44.2357,-0.3247,0.7421,-0.3843,0.0674
17:00:04:293,-1.1281,3.2626,12.3122,44.2339,-0.2449,0.5408,-0.4503,0.0603
17:00:04:312,-0.9385,2.2454,12.2257,44.2706,-0.1033,0.2129,-0.5951,0.055
17:00:04:333,-1.2081,1.235,11.636,44.5553,-0.016,-0.049,-0.7261,0.0526
17:00:04:352,-1.4543,0.542,10.8182,44.411,-0.1331,-0.1927,-0.7059,0.0518
17:00:04:372,-1.299,-0.0124,10.2784,44.3717,-0.3492,-0.1043,-0.5919,0.0503
17:00:04:400,-1.2459,-0.3965,10.0437,44.2822,-0.4727,0.0543,-0.511,0.0467
17:00:04:412,-1.5928,-0.2777,9.8672,43.9649,-0.3481,0.066,-0.3865,0.042
17:00:04:433,-1.6875,0.1593,9.1036,43.8908,-0.0373,-0.0713,-0.1842,0.0393
17:00:04:452,-1.2506,0.5357,7.94,43.8485,0.264,-0.2364,-0.0319,0.0404
17:00:04:472,-0.8071,0.9708,6.913,43.8133,0.4802,-0.3045,0.0256,0.0445
17:00:04:492,-0.4669,1.2787,6.314,43.4404,0.6005,-0.378,-0.0287,0.0506
17:00:04:512,-0.4679,1.6004,5.9745,43.3709,0.691,-0.4791,-0.0852,0.0578
17:00:04:533,-0.5142,2.1768,5.7705,43.1175,0.7101,-0.4716,-0.1022,0.0661
17:00:04:552,-0.3484,2.6289,5.8757,42.7194,0.5824,-0.3726,-0.1554,0.0741
17:00:04:572,-0.168,2.9799,6.6421,42.5249,0.3375,-0.2342,-0.3545,0.0798
17:00:04:593,-0.2867,2.9611,7.9878,42.2579,0.1224,-0.1139,-0.6548,0.0824
17:00:04:613,-1.0632,2.7755,9.1725,41.8862,0.1129,0.1001,-0.8177,0.0826
17:00:04:632,-2.1294,3.1231,9.9449,41.8739,0.3194,0.3471,-0.6707,0.0821
17:00:04:653,-2.5739,3.7004,10.1075,41.868,0.5323,0.4919,-0.3343,0.0829
17:00:04:672,-2.3957,4.2459,10.1471,41.8034,0.5025,0.3567,-0.181,0.0848
17:00:04:692,-2.6053,4.7151,10.5602,41.7692,0.296,0.0639,-0.1959,0.0866
17:00:04:712,-2.9681,4.6289,11.4044,41.5866,0.132,-0.2523,-0.1395,0.0881
17:00:04:732,-3.3889,4.5908,12.1185,41.3147,0.1778,-0.4014,0.0841,0.0905
17:00:04:751,-3.3434,4.7271,12.2707,40.9457,0.4312,-0.3439,0.4078,0.095
17:00:04:772,-2.6951,4.3999,11.4131,40.6652,0.6452,-0.2981,0.5281,0.1018
17:00:04:792,-2.1799,3.6897,10.0624,40.7508,0.5345,-0.3513,0.3492,0.1095
17:00:04:812,-2.1157,2.4667,9.547,40.6064,0.1097,-0.4078,0.0011,0.1149
17:00:04:832,-2.873,1.5135,9.8497,40.7051,-0.2289,-0.3268,-0.1799,0.1165
17:00:04:853,-3.4403,0.7538,9.9403,40.5153,-0.3811,-0.2108,-0.0926,0.1154
17:00:04:872,-3.4629,0.482,9.8811,40.4154,-0.3279,-0.2395,0.148,0.1133
17:00:04:893,-2.8653,0.3796,8.9065,40.1186,-0.2928,-0.2289,0.2726,0.1122
17:00:04:914,-1.9869,0.7688,7.8623,40.0475,-0.3758,-0.2161,0.3577,0.1113
17:00:04:933,-1.3428,0.8781,7.1281,40.0321,-0.5983,-0.0586,0.2704,0.1091
17:00:04:952,-1.2008,1.2034,6.6772,39.8506,-0.7367,0.3024,0.2608,0.1038
17:00:04:972,-1.2837,1.4846,6.4441,39.7463,-0.7069,0.6942,0.3609,0.096
17:00:04:992,-1.3917,1.742,6.3545,39.6651,-0.543,0.9465,0.5376,0.087
17:00:05:013,-1.1851,1.9286,6.4369,39.3748,-0.2768,0.9316,0.6729,0.0787
17:00:05:033,-0.9888,2.1208,6.2954,39.3457,-0.083,0.7644,0.6143,0.0729
17:00:05:053,-1.1261,2.2725,6.3147,39.3227,-0.0405,0.4802,0.4227,0.0691
17:00:05:072,-1.6221,2.5086,6.8135,39.4019,-0.1097,0.1214,0.3013,0.0667
17:00:05:092,-1.7318,2.6616,7.8662,39.3658,-0.2545,-0.2225,0.2875,0.0655
17:00:05:111,-1.3794,2.3608,9.3862,39.3849,-0.3428,-0.4163,0.1863,0.0649
17:00:05:132,-1.3288,2.0988,10.7227,39.2026,-0.1522,-0.2214,0.05,0.0646
17:00:05:152,-1.7708,2.1744,11.3008,38.74,0.2129,0.1043,0.0383,0.0651
17:00:05:172,-1.9508,2.6549,11.0899,38.9359,0.4152,0.2832,0.1097,0.0668
17:00:05:192,-1.5957,2.8413,11.0203,38.9251,0.3737,0.3577,0.0426,0.0686
17:00:05:212,-1.7849,3.0437,11.2763,38.9609,0.3524,0.494,-0.0426,0.0693
17:00:05:233,-2.1266,3.1877,11.4371,38.8718,0.4237,0.5707,0.0096,0.0693
17:00:05:251,-2.1093,3.8299,11.2319,38.8391,0.5685,0.6611,0.148,0.0698
17:00:05:272,-1.7354,4.5974,10.7312,38.6261,0.5494,0.6345,0.1448,0.0711
17:00:05:292,-0.8141,3.7565,10.303,38.9268,0.2566,0.4291,-0.1299,0.0716
17:00:05:312,-1.1121,2.8109,10.6705,38.6713,0.0522,0.3013,-0.4738,0.0697
17:00:05:333,-1.92,2.0594,10.4018,38.533,0.1043,0.2683,-0.5557,0.0674
17:00:05:353,-2.5599,1.3972,9.4028,38.5048,0.0319,0.1863,-0.4653,0.0658
17:00:05:373,-2.7933,1.2931,8.696,38.72,-0.2598,0.0096,-0.2928,0.0639
17:00:05:394,-2.3597,1.2408,8.5683,38.4729,-0.6281,-0.2289,-0.1352,0.0605
17:00:05:413,-1.6872,0.8773,8.9957,38.681,-0.8517,-0.3652,-0.2204,0.0557
17:00:05:433,-1.3649,0.1082,9.536,38.7091,-0.7591,-0.378,-0.2651,0.0503
17:00:05:452,-1.8256,0.9097,9.7519,38.6497,-0.3641,-0.3811,-0.1767,0.0466
17:00:05:472,-1.507,1.0605,8.9146,38.5309,0.1107,-0.3364,-0.1054,0.0468
17:00:05:492,-1.1914,1.4043,7.6643,38.6139,0.411,-0.3524,-0.1118,0.0504
17:00:05:512,-1.2938,1.416,6.842,38.6182,0.5717,-0.2278,-0.1001,0.0558
17:00:05:532,-1.6574,1.8294,6.557,38.4861,0.6771,-0.1352,-0.0277,0.062
17:00:05:552,-1.6707,2.3059,6.1592,38.5256,0.7495,0.016,0.05,0.0684
17:00:05:572,-1.4046,2.8697,5.7896,38.692,0.675,0.017,0.0192,0.0744
17:00:05:592,-1.2426,3.5012,5.8629,38.5439,0.4621,-0.0937,-0.1395,0.0793
17:00:05:613,-1.2804,3.7077,6.3582,38.3056,0.2332,-0.1618,-0.3237,0.0826
17:00:05:633,-1.905,4.2385,7.1495,38.2903,0.0319,-0.1906,-0.4291,0.084
17:00:05:652,-2.4583,4.1061,7.9945,38.0982,-0.0926,-0.1299,-0.379,0.0841
17:00:05:675,-2.9422,4.4246,8.8999,37.9376,-0.1171,-0.1757,-0.1789,0.0834
17:00:05:693,-2.8728,4.6971,9.5094,37.7879,-0.1203,-0.1991,0.0373,0.0834
17:00:05:713,-2.5391,4.5964,10.2481,37.6712,-0.1437,-0.2374,0.115,0.0835
17:00:05:732,-2.3825,4.4868,11.0217,37.9771,-0.1373,-0.2864,0.116,0.0838
17:00:05:753,-2.4916,4.2154,11.7101,37.8104,-0.0479,-0.2374,0.1469,0.0845
17:00:05:774,-2.7663,4.3322,12.0279,38.1399,0.1544,-0.0745,0.263,0.086
17:00:05:794,-2.8972,4.5454,11.8587,38.0042,0.3354,0.0373,0.3673,0.0886
17:00:05:813,-2.5877,4.0621,11.1881,37.551,0.3034,0.05,0.2811,0.0918
17:00:05:832,-2.4489,3.017,10.8611,37.701,0.0224,-0.1799,-0.0096,0.0938
17:00:05:852,-2.7836,1.4586,11.3552,37.7224,-0.263,-0.4674,-0.3716,0.0939
17:00:05:872,-3.5267,0.3925,11.5316,37.7993,-0.296,-0.5121,-0.4706,0.0932
17:00:05:892,-3.8532,-0.1928,10.9638,37.6504,-0.2395,-0.3418,-0.3002,0.0929
17:00:05:912,-3.3116,-0.1849,9.7799,37.8955,-0.1097,-0.2832,-0.049,0.093
17:00:05:932,-2.6271,-0.1656,8.0503,37.8363,-0.2768,-0.132,0.0979,0.0932
17:00:05:951,-2.1114,0.2157,6.8306,38.0913,-0.4951,0.049,0.1767,0.0911
17:00:05:972,-1.8753,0.4621,5.8803,37.9029,-0.6878,0.2938,0.2811,0.0863
17:00:05:992,-1.9518,0.8916,5.2814,37.8951,-0.7783,0.5419,0.4759,0.079
17:00:06:012,-1.9072,1.3485,4.9876,37.6571,-0.7708,0.7772,0.7112,0.0701
17:00:06:032,-1.8311,1.8252,5.0989,37.7764,-0.7591,1.0625,0.9305,0.0599
17:00:06:052,-1.7591,2.1993,5.6085,37.4073,-0.7133,1.0647,1.0199,0.0497
17:00:06:072,-1.375,2.398,6.2091,37.4631,-0.6335,0.7314,0.9805,0.0398
17:00:06:092,-1.0199,2.5383,6.9019,37.4977,-0.5696,0.2417,0.7538,0.0323
17:00:06:112,-0.8989,2.5189,7.7721,37.1711,-0.577,-0.2481,0.3982,0.0276
17:00:06:134,-1.2438,2.2618,8.904,37.052,-0.642,-0.5153,0.0724,0.0248
17:00:06:152,-1.7169,1.7385,10.2562,36.9333,-0.6143,-0.5813,-0.1118,0.0225
17:00:06:172,-1.8477,1.3553,11.5499,36.7028,-0.3641,-0.444,-0.0948,0.0213
17:00:06:193,-1.7662,1.158,11.9571,36.8496,-0.0979,-0.1011,-0.0894,0.0212
17:00:06:213,-1.6741,0.9123,11.9481,36.8365,-0.0298,0.2108,-0.1672,0.0208
17:00:06:234,-2.0417,1.0033,12.2426,36.9206,-0.0617,0.313,-0.2204,0.0188
17:00:06:253,-2.4062,1.5663,12.6659,37.0165,0.0948,0.3737,-0.1192,0.0163
17:00:06:272,-2.387,2.2703,12.347,37.0083,0.3471,0.411,0.0468,0.0155
17:00:06:293,-2.0564,2.829,11.494,37.0148,0.3332,0.3982,0.1267,0.0163
17:00:06:313,-1.5474,2.0945,11.5087,36.8005,-0.0213,0.2236,-0.0724,0.0161
17:00:06:332,-1.5811,0.8128,12.5431,36.8449,-0.2002,-0.1746,-0.3364,0.0139
17:00:06:352,-1.9859,0.1079,12.7964,37.0435,0.0266,-0.4376,-0.3673,0.0134
17:00:06:373,-1.9684,-0.2577,11.6696,36.9028,0.2364,-0.7069,-0.2427,0.0168
17:00:06:409,-1.485,-0.3582,10.3731,36.7099,0.1118,-0.9028,-0.1661,0.0228
17:00:06:412,-1.1429,0.2229,9.5064,36.6882,-0.0969,-0.856,-0.0979,0.0281
17:00:06:432,-0.5098,0.6066,8.8131,36.6437,-0.1725,-0.6973,-0.0575,0.0317
17:00:06:452,0.0095,0.8078,8.0254,36.3372,-0.1086,-0.5142,-0.1139,0.0341
17:00:06:473,0.407,1.2948,7.374,36.6464,0.0224,-0.313,-0.2332,0.0361
17:00:06:492,0.6057,1.4099,6.6913,36.3997,0.214,-0.0926,-0.3875,0.0379
17:00:06:512,0.453,1.2557,6.0379,36.2932,0.3205,-0.0245,-0.5866,0.0399
17:00:06:533,-0.1056,1.3153,5.8451,36.4436,0.4163,-0.0064,-0.7218,0.0421
17:00:06:552,-0.6169,1.5165,5.7326,36.1826,0.5568,-0.0437,-0.7367,0.0452
17:00:06:573,-0.8463,1.7976,5.5646,36.1778,0.5632,-0.1416,-0.7005,0.0496
17:00:06:593,-0.7118,1.8215,5.9327,36.1168,0.3481,-0.23,-0.7197,0.054
17:00:06:613,-0.9846,1.8339,6.851,35.8291,0.1586,-0.1746,-0.7729,0.0568
17:00:06:634,-1.5201,2.0491,7.7696,35.9745,0.0681,-0.0362,-0.7229,0.0578
17:00:06:654,-1.9036,2.4374,8.6146,35.932,0.05,0.0671,-0.5834,0.0576
17:00:06:671,-2.4337,2.9581,9.2568,36.0014,0.0437,0.0862,-0.4184,0.0572
17:00:06:692,-2.8729,3.4193,10.0432,36.0639,-0.0149,0.0511,-0.2406,0.0567
17:00:06:712,-3.2522,3.8085,10.7723,35.8062,-0.0756,-0.0394,-0.0351,0.0561
17:00:06:732,-2.9441,3.6341,11.4073,35.4946,-0.2033,-0.2513,0.1182,0.0556
17:00:06:752,-2.4782,2.9208,12.6065,35.6723,-0.3545,-0.3748,0.1512,0.055
17:00:06:772,-2.7902,2.9161,14.1854,35.6441,-0.1672,-0.0884,0.2236,0.054
17:00:06:792,-2.8104,2.8184,14.317,35.8167,0.2757,0.1778,0.3545,0.0541
17:00:06:814,-2.5771,2.0483,13.0738,35.9966,0.5025,0.0671,0.2992,0.0567
17:00:06:832,-2.6544,1.4496,11.6667,36.1568,0.4599,-0.0309,0.1459,0.061
17:00:06:852,-3.1388,0.9635,10.7769,35.9326,0.2598,0.05,0.0522,0.0646
17:00:06:872,-3.5606,0.6414,10.1223,36.2791,0.033,0.1991,0.1097,0.0658
17:00:06:892,-3.4198,0.1552,9.2874,36.3715,-0.2726,0.2119,0.1906,0.0645
17:00:06:912,-2.7975,-0.0958,8.3904,36.4797,-0.5983,0.1065,0.2193,0.0605
17:00:06:932,-2.1019,-0.4719,7.5252,36.5044,-0.9039,-0.0809,0.1352,0.0545
17:00:06:952,-1.4156,-1.4956,8.0246,36.5574,-1.0891,-0.2938,0.0128,0.047
17:00:06:972,-1.8015,-1.3457,8.7889,36.3009,-0.7729,-0.0138,0.1214,0.0395
17:00:06:992,-2.158,-0.8386,8.2296,36.4296,-0.2278,0.4535,0.5366,0.0343
17:00:07:012,-1.9819,-0.3524,6.9805,36.4843,0.1341,0.8059,0.9358,0.0314
17:00:07:033,-1.5429,0.0742,6.4393,36.6555,0.3258,1.0008,1.1551,0.0295
17:00:07:052,-1.2476,0.7353,6.1692,36.725,0.4653,1.0029,1.1711,0.0283
17:00:07:072,-1.4609,1.4808,5.9844,36.5897,0.4695,0.7453,1.1126,0.0282
17:00:07:092,-1.4644,1.9764,6.1215,36.5358,0.3716,0.3215,1.0838,0.0294
17:00:07:111,-1.1161,2.1085,6.9214,36.1387,0.214,-0.0979,0.9475,0.0319
17:00:07:133,-0.9955,2.2684,8.017,36.0028,0.1224,-0.214,0.7772,0.0351
17:00:07:151,-0.9285,2.8328,8.8959,36.2048,0.1491,-0.0724,0.6143,0.0379
17:00:07:172,-0.8492,2.895,9.1993,36.1975,0.1171,0.1331,0.4237,0.0399
17:00:07:192,-1.1481,3.0603,9.5508,36.4748,-0.1448,0.2097,0.1735,0.0397
17:00:07:212,-1.8907,2.763,10.7095,36.8148,-0.4695,0.3247,0.0458,0.0363
17:00:07:232,-2.5098,2.7373,12.2556,36.5519,-0.5834,0.5046,0.083,0.0299
17:00:07:252,-3.0186,2.4491,13.4467,36.4639,-0.3577,0.6505,0.2342,0.0226
17:00:07:272,-3.8822,3.0954,13.6325,36.7171,0.0703,0.7272,0.5259,0.0172
17:00:07:292,-3.8135,3.9791,12.4765,36.2867,0.2161,0.3726,0.8251,0.0155
17:00:07:312,-2.6225,3.0166,11.482,36.7146,-0.1022,-0.4152,0.7868,0.0165
17:00:07:332,-1.5569,1.9747,12.5819,36.9266,-0.2225,-0.8283,0.5472,0.0192
17:00:07:352,-1.163,1.1044,13.4507,36.7681,0.1054,-0.6388,0.3354,0.0236
17:00:07:374,-1.2484,0.6099,13.0346,36.9769,0.379,-0.477,0.1895,0.0292
17:00:07:392,-0.8946,0.2915,11.8576,37.1144,0.3077,-0.7399,0.1054,0.0355
17:00:07:412,-0.2306,0.3128,10.1903,37.0968,0.083,-1.0093,-0.0362,0.0425
17:00:07:432,0.5816,0.0423,8.6013,37.5246,-0.1054,-0.9688,-0.1735,0.0488
17:00:07:452,1.1483,0.0271,7.9729,37.4745,-0.1075,-0.6569,-0.4301,0.0532
17:00:07:472,0.8227,0.3984,7.3511,37.5521,0.165,-0.1735,-0.6761,0.0557
17:00:07:493,0.1415,0.9327,6.2221,37.6222,0.494,0.165,-0.758,0.0575
17:00:07:512,-0.1474,1.1186,4.9787,37.462,0.6697,0.1469,-0.791,0.06
17:00:07:532,0.247,1.1328,4.7306,37.5234,0.6399,-0.1118,-0.8475,0.0637
17:00:07:552,0.3195,1.1415,5.1683,37.493,0.6324,-0.2949,-1.0157,0.0685
17:00:07:572,-0.7689,1.7022,5.2678,37.4763,0.7186,-0.214,-1.0785,0.074
17:00:07:591,-1.4042,2.4029,5.2017,37.679,0.6931,-0.1906,-0.8794,0.0798
17:00:07:612,-1.2201,2.8507,6.0733,37.842,0.4599,-0.3801,-0.7399,0.0853
17:00:07:632,-1.3492,3.6951,7.3451,37.6421,0.2534,-0.4163,-0.7559,0.0897
17:00:07:652,-1.8808,4.5699,8.2198,37.6842,0.1373,-0.165,-0.6356,0.0927
17:00:07:672,-2.0726,4.546,8.8903,37.5182,-0.0681,0.1469,-0.3119,0.0934
17:00:07:692,-1.9962,4.575,10.1713,37.5217,-0.3811,0.2214,-0.1554,0.0911
17:00:07:711,-2.1128,4.6544,11.7854,37.3188,-0.5089,0.2726,-0.2012,0.086
17:00:07:732,-2.4382,4.0588,12.8907,37.3555,-0.593,0.1831,-0.2832,0.0798
17:00:07:752,-3.366,3.257,13.9886,37.2352,-0.5291,-0.1224,-0.2459,0.0737
17:00:07:772,-3.9056,2.9266,14.1695,37.2846,-0.0862,-0.2395,0.1831,0.0711
17:00:07:792,-3.4582,2.5202,12.5794,37.6668,0.2608,-0.2459,0.5281,0.0735
17:00:07:813,-3.2253,2.2039,10.8714,37.9488,0.1746,-0.2449,0.5941,0.0778
17:00:07:833,-3.6117,2.0956,10.023,38.2374,-0.0884,-0.1682,0.6516,0.0805
17:00:07:853,-3.6308,2.0041,9.3855,38.3423,-0.4195,-0.2129,0.8208,0.0808
17:00:07:873,-2.6298,1.0024,9.451,38.4095,-0.9135,-0.4088,0.7378,0.0785
17:00:07:892,-2.0069,-0.027,10.201,38.5141,-1.2126,-0.5206,0.4333,0.0732
17:00:07:912,-1.83,-0.7427,10.2666,38.7158,-1.1083,-0.2321,0.2747,0.0665
17:00:07:932,-1.7088,-0.9178,9.1837,38.9253,-0.8251,0.198,0.3247,0.0592
17:00:07:952,-1.4487,-0.4312,7.5656,39.0841,-0.6164,0.4887,0.4695,0.0518
17:00:07:972,-1.1633,0.1397,6.2482,38.9207,-0.4589,0.7112,0.5781,0.0444
17:00:07:992,-0.9474,0.4986,5.4921,38.8328,-0.3098,0.7304,0.6867,0.0372
17:00:08:012,-0.8944,0.6814,5.2771,38.5643,-0.0873,0.6313,0.7676,0.0316
17:00:08:034,-1.1129,1.1335,5.2802,38.6646,0.1959,0.626,0.8602,0.0282
17:00:08:052,-1.3154,1.8693,5.4686,38.621,0.363,0.5174,0.8634,0.0273
17:00:08:071,-1.287,1.9679,5.8892,38.7837,0.3066,0.115,0.7815,0.0283
17:00:08:092,-1.1228,1.8231,6.73,38.6283,0.0735,-0.3311,0.609,0.0307
17:00:08:111,-1.0023,1.673,8.0215,38.544,-0.2438,-0.6196,0.3886,0.0336
17:00:08:132,-1.2031,1.1058,9.6709,38.5448,-0.4227,-0.2928,0.2843,0.035
17:00:08:152,-1.5523,1.4649,11.4658,38.7269,-0.3386,0.3407,0.3865,0.033
17:00:08:172,-1.4492,2.5078,12.1695,38.871,-0.0639,0.7825,0.4141,0.0284
17:00:08:192,-0.7821,2.6408,12.3553,38.8443,-0.1427,0.5249,0.0969,0.0234
17:00:08:212,-0.7869,2.4671,13.0207,38.6912,-0.3503,0.2406,-0.3545,0.0187
17:00:08:232,-1.0278,1.9811,14.2225,38.8343,-0.3513,0.231,-0.5962,0.0138
17:00:08:252,-1.3997,1.695,14.8805,38.7663,-0.0287,0.4897,-0.6271,0.0092
17:00:08:272,-1.6577,1.8892,14.4887,38.9894,0.3577,0.5728,-0.5036,0.0061
17:00:08:292,-1.2623,1.3583,13.4283,39.3757,0.5643,0.4216,-0.4535,0.0055
17:00:08:312,-1.1054,0.3123,12.5664,39.4466,0.7059,-0.066,-0.5164,0.0076
17:00:08:332,-1.238,-0.1029,11.6159,39.8171,0.7527,-0.5345,-0.543,0.0138
17:00:08:351,-1.3817,0.0726,10.5638,39.5823,0.6132,-0.61,-0.4983,0.0223
17:00:08:372,-1.416,0.3149,9.648,39.6333,0.2236,-0.4546,-0.4493,0.0294
17:00:08:413,-1.3806,0.4327,9.417,39.8056,-0.1916,-0.2119,-0.4514,0.032
17:00:08:415,-1.5501,0.6441,9.2917,39.6397,-0.2928,0.0053,-0.428,0.0304
17:00:08:432,-1.602,0.6141,8.4111,39.7625,-0.1448,0.0617,-0.3684,0.0278
17:00:08:452,-1.4511,0.7188,7.1948,39.8247,0.0788,-0.0756,-0.296,0.0266
17:00:08:472,-1.1736,0.8581,6.027,39.9085,0.2906,-0.3024,-0.2395,0.0282
17:00:08:492,-0.9081,0.9995,5.1489,39.7952,0.4237,-0.6292,-0.2183,0.0328
17:00:08:512,-0.8668,1.5199,4.5875,40.0284,0.4961,-1.0678,-0.1884,0.0405
17:00:08:532,-0.6397,1.6974,4.0976,39.822,0.4791,-1.3532,-0.1352,0.051
17:00:08:552,-0.2716,2.2231,3.9859,39.8802,0.2853,-1.614,-0.131,0.0627
17:00:08:572,0.3169,2.4289,4.413,39.6746,-0.0607,-1.9142,-0.2502,0.074
17:00:08:591,0.9866,2.172,5.8851,39.8318,-0.477,-2.0101,-0.4961,0.0837
17:00:08:612,1.2489,2.0752,8.4625,39.8121,-0.6729,-1.5384,-0.856,0.0902
17:00:08:632,0.0605,2.7243,10.7268,40.2886,-0.4546,-0.643,-0.8975,0.0925
17:00:08:652,-0.5825,2.3978,11.5899,40.2314,-0.1959,0.1831,-0.5323,0.0916
17:00:08:672,-0.7324,2.5473,12.1789,40.2916,-0.0948,0.5941,-0.2438,0.0885
17:00:08:692,-0.835,2.8694,12.7029,40.4848,-0.0745,0.6707,-0.0681,0.0843
17:00:08:712,-0.8949,2.5844,13.5274,40.2583,-0.1267,0.4312,-0.033,0.0801
17:00:08:733,-1.2883,2.2707,14.6937,40.1506,0.0916,0.3652,0.0543,0.0768
17:00:08:752,-1.6665,2.3016,14.9142,39.8473,0.5856,0.4503,0.329,0.0766
17:00:08:772,-1.2651,1.9825,13.7557,40.0651,0.9475,0.4631,0.5526,0.0801
17:00:08:793,-0.7783,1.7216,12.1771,40.0506,1.0125,0.2534,0.4972,0.0862
17:00:08:813,-0.675,1.3385,10.7688,40.0122,0.8975,0.0277,0.2768,0.0934
17:00:08:833,-0.9137,1.1681,9.9768,40.353,0.7655,0.0767,0.099,0.1003
17:00:08:854,-1.1686,1.0357,9.1275,40.2968,0.5973,0.2534,-0.0319,0.1055
17:00:08:873,-1.1811,0.8759,8.2676,40.5141,0.2406,0.2896,-0.1565,0.108
17:00:08:893,-0.9413,0.6766,7.7127,40.5365,-0.1959,0.2576,-0.3343,0.1071
17:00:08:915,-0.4999,0.8001,7.4098,40.7685,-0.5068,0.2843,-0.577,0.1027
17:00:08:934,-0.0365,0.7493,7.2722,40.7518,-0.5834,0.2864,-0.9348,0.0959
17:00:08:952,0.0456,0.2679,7.1211,41.1729,-0.4557,-0.3492,-1.3649,0.0892
17:00:08:972,-0.5455,-0.5643,7.016,41.0459,-0.2917,-1.3542,-1.5352,0.0877
17:00:08:992,-1.3596,-0.2967,6.8869,41.0677,0.1491,-1.498,-1.3628,0.0928
17:00:09:012,-1.8125,0.876,6.5848,41.0063,0.5888,-1.1828,-0.8688,0.1021
17:00:09:032,-1.5724,1.3431,5.6579,40.9409,0.7176,-0.5802,-0.1895,0.1129
17:00:09:052,-1.068,1.5275,5.1803,40.5889,0.4908,0.2502,0.2672,0.1208
17:00:09:072,-0.4358,2.0011,5.5651,40.5831,-0.0405,0.6824,0.4887,0.1222
17:00:09:092,-0.036,1.9859,6.8393,40.6495,-0.6761,0.477,0.5046,0.1173
17:00:09:113,-0.1218,1.9513,7.9787,40.8644,-1.1147,0.2747,0.4865,0.1084
17:00:09:134,-0.2911,2.086,9.0654,40.5975,-1.1871,0.5036,0.5132,0.0972
17:00:09:153,-0.2548,2.2393,9.7871,40.7661,-1.0998,0.791,0.4482,0.0847
17:00:09:173,-0.3828,2.0048,10.8385,40.6284,-1.1317,0.6697,0.198,0.0714
17:00:09:196,-0.9495,2.1753,11.6318,40.6759,-1.2116,0.5334,0.0298,0.0583
17:00:09:212,-1.1203,2.0165,12.5591,40.6712,-1.2786,0.6335,-0.0213,0.045
17:00:09:232,-1.2302,1.4882,13.7528,40.6918,-1.2904,0.7261,-0.0735,0.0306
17:00:09:251,-1.4313,1.1403,14.7113,40.7548,-1.0167,0.7123,-0.0341,0.0161
17:00:09:272,-0.8382,0.5916,14.9126,40.8083,-0.7282,0.444,-0.033,0.0047
17:00:09:292,-0.2319,-0.3757,15.0398,40.6054,-0.5398,-0.1118,-0.1767,-0.0029
17:00:09:312,-0.1474,-1.0085,14.9539,40.8626,-0.0873,-0.4855,-0.2502,-0.0056
17:00:09:332,-0.1797,-1.0777,13.8803,40.853,0.5078,-0.445,-0.2779,-0.0023
17:00:09:352,-0.4499,-0.6945,12.2437,40.8358,0.8432,-0.1831,-0.2779,0.0049
17:00:09:372,-0.5924,-0.3055,10.8678,40.9293,0.609,-0.2672,-0.2789,0.0126
17:00:09:393,-0.6691,-0.1279,10.2015,40.9282,0.1192,-0.4876,-0.297,0.0183
17:00:09:412,-0.4522,-0.0302,10.0176,40.8717,-0.0788,-0.5408,-0.3002,0.0211
17:00:09:433,-0.2673,0.1196,9.4477,40.8954,0.0649,-0.4621,-0.3364,0.0234
17:00:09:452,-0.522,0.3904,8.278,40.9309,0.445,-0.2853,-0.3567,0.0266
17:00:09:472,-0.8083,0.6821,6.8363,41.0091,0.8411,-0.2119,-0.2821,0.0326
17:00:09:492,-1.004,0.8894,5.5884,41.1417,1.0402,-0.2417,-0.1469,0.0414
17:00:09:513,-0.7098,0.9364,5.2136,40.8804,0.9348,-0.3843,-0.0075,0.0516
17:00:09:533,-1.1346,1.3023,4.9057,40.4898,0.691,-0.56,0.3875,0.0613
17:00:09:553,-1.3561,1.727,4.4611,40.33,0.263,0.0298,0.9412,0.069
17:00:09:572,-1.1555,1.7494,4.9841,39.8547,0.0575,1.2169,0.9624,0.0694
17:00:09:593,-0.2137,2.5305,6.789,39.7561,0.0735,1.4596,0.6995,0.0631
17:00:09:613,0.6359,2.2804,7.739,40.1143,0.0383,0.3801,0.3524,0.0575
17:00:09:633,0.7573,2.6601,8.1293,39.7897,-0.0117,-0.3173,-0.2342,0.0566
17:00:09:653,0.1118,2.3985,8.8557,40.0449,-0.2513,-0.7112,-0.6132,0.0578
17:00:09:673,-0.8625,2.37,10.2646,40.2768,-0.3087,-0.5451,-0.5941,0.0588
17:00:09:692,-1.2462,2.1831,11.045,40.0391,-0.28,0.379,-0.2257,0.0585
17:00:09:713,-1.1201,2.3922,11.397,39.9809,-0.3162,0.3748,0.0745,0.0537
17:00:09:732,-0.828,1.991,12.6213,40.0691,-0.3428,0.1214,0.0873,0.049
17:00:09:751,-1.0261,2.2368,13.6928,39.9614,-0.0075,-0.0319,0.1363,0.0463
17:00:09:772,-1.4891,2.8668,13.5591,40.1023,0.4876,0.132,0.2715,0.0475
17:00:09:792,-1.48,2.618,12.7619,40.1252,0.7676,0.197,0.3737,0.0519
17:00:09:813,-1.3548,1.8083,12.3836,39.8101,1.0135,-0.0468,0.2449,0.058
17:00:09:833,-1.6235,0.8273,11.1148,39.8475,0.9571,-0.4014,-0.0458,0.0675
17:00:09:852,-2.3955,0.7857,10.3415,39.7211,0.7719,-0.4546,-0.1522,0.0772
17:00:09:872,-2.6192,0.6582,9.6384,39.5086,0.3386,-0.5781,-0.1746,0.0852
17:00:09:892,-2.3911,0.1103,9.3579,39.6597,-0.2715,-0.6462,-0.2342,0.0897
17:00:09:912,-2.569,-0.2539,9.3975,39.6584,-0.7335,-0.4887,-0.1757,0.0892
17:00:09:932,-2.6412,-0.3925,9.0979,39.6783,-0.9273,-0.1448,0.1256,0.0846
17:00:09:952,-2.0312,-0.3583,8.5268,39.5495,-0.9199,0.2928,0.5174,0.0771
17:00:09:972,-1.3266,-0.0797,7.8647,39.5428,-0.7793,0.7314,0.7506,0.0678
17:00:09:994,-1.0079,-0.0167,7.094,39.449,-0.6111,0.9124,0.84,0.0577
17:00:10:013,-0.9619,-0.0162,6.6222,39.1408,-0.4844,0.7793,0.8943,0.0484
17:00:10:033,-0.7429,-0.0345,6.5375,39.1876,-0.2992,0.5291,0.9773,0.0412
17:00:10:053,-0.3377,0.1946,6.6434,38.9881,-0.0075,0.2843,1.0008,0.0372
17:00:10:072,0.0762,0.5573,6.5053,38.9549,0.2321,0.049,0.922,0.0369
17:00:10:092,0.7081,0.704,6.5554,38.9978,0.2065,-0.2747,0.6356,0.0395
17:00:10:112,0.9868,0.8393,7.0883,38.9239,0.0543,-0.4929,0.2385,0.0429
17:00:10:134,1.0916,0.8373,7.9834,38.7922,-0.0969,-0.4493,-0.132,0.0459
17:00:10:152,0.926,0.7911,8.968,38.8813,-0.1906,-0.1714,-0.4248,0.0469
17:00:10:172,0.7401,1.0294,9.7264,38.7412,-0.1725,0.2417,-0.6015,0.0455
17:00:10:193,0.5999,1.5599,9.9241,38.5853,-0.1778,0.4621,-0.8155,0.042
17:00:10:213,0.1681,1.8799,10.2064,38.9078,-0.2992,0.4131,-1.0838,0.0372
17:00:10:233,-0.6002,1.9401,10.8281,39.0957,-0.4695,0.28,-1.2488,0.0315
17:00:10:252,-1.3796,1.7243,11.9409,38.9881,-0.7261,0.148,-1.1913,0.0251
17:00:10:272,-1.6538,1.3363,13.5519,39.0355,-1.0274,0.2864,-0.9859,0.0168
17:00:10:291,-1.5471,0.3752,15.4314,38.9457,-1.1583,0.2896,-0.7761,0.0057
17:00:10:312,-0.979,-1.0704,16.8384,38.6576,-0.9145,-0.0181,-0.5323,-0.0053
17:00:10:332,-0.3651,-1.8383,17.2138,38.7108,-0.3141,-0.3886,-0.3226,-0.0114
17:00:10:351,-0.1688,-1.8788,15.9314,38.5817,0.3056,-0.6718,-0.2055,-0.0102
17:00:10:372,-0.0016,-1.5154,13.8132,38.6877,0.643,-0.9124,-0.1139,-0.0029
17:00:10:392,0.1348,-0.8902,11.4794,38.6309,0.7016,-0.8656,-0.0468,0.0076
17:00:10:428,0.1037,-0.382,9.3794,38.893,0.5557,-0.6058,0.0202,0.0175
17:00:10:436,0.0371,-0.0476,7.8251,38.5497,0.3556,-0.2843,0.0607,0.0246
17:00:10:454,-0.1443,0.1361,6.7292,38.3331,0.263,0.0032,0.0767,0.0284
17:00:10:472,-0.1904,0.1179,5.8283,38.1064,0.2949,0.1906,0.0979,0.0304
17:00:10:492,-0.009,0.2034,5.1959,38.2227,0.3577,0.3077,0.0575,0.0319
17:00:10:512,-0.0652,0.3915,4.9253,37.9126,0.3929,0.3237,-0.0351,0.0334
17:00:10:532,-0.1732,0.3663,5.1423,38.04,0.4844,0.1288,-0.1299,0.0353
17:00:10:552,-0.2001,0.538,5.4659,37.6996,0.625,-0.1373,-0.1672,0.0394
17:00:10:572,-0.1686,0.8928,5.6037,37.6255,0.6324,-0.3141,-0.23,0.0458
17:00:10:592,-0.3173,1.2316,5.9232,37.5914,0.3694,-0.2332,-0.3481,0.0522
17:00:10:612,-0.8079,1.4883,6.7388,37.6564,-0.0468,-0.1171,-0.428,0.0553
17:00:10:634,-1.4928,1.6095,8.4277,37.4468,-0.3237,0.0937,-0.3364,0.0542
17:00:10:653,-2.064,1.722,10.3989,37.4098,-0.1991,0.247,-0.0596,0.0507
17:00:10:673,-2.4352,2.127,11.3934,37.3713,0.2023,0.3279,0.3769,0.0486
17:00:10:693,-2.2271,2.6854,11.7587,37.2174,0.5323,0.2576,0.7293,0.0498
17:00:10:713,-1.5031,3.3221,11.9601,37.4996,0.6015,0.0383,0.889,0.054
17:00:10:733,-0.7965,3.4295,12.5651,37.6977,0.3013,-0.3386,0.7495,0.0593
17:00:10:752,-0.659,2.8605,13.8533,37.5698,0.0202,-0.5345,0.6058,0.0633
17:00:10:771,-0.6905,2.3928,15.1915,37.6793,0.1757,-0.4567,0.6292,0.0665
17:00:10:792,-0.4091,1.5652,14.9577,37.788,0.5866,-0.297,0.6122,0.0714
17:00:10:812,-0.4685,1.1444,13.394,37.8096,0.8187,-0.0607,0.4887,0.0786
17:00:10:833,-0.8491,0.9641,11.7103,37.9126,0.7069,0.1789,0.3481,0.0855
17:00:10:853,-1.3274,0.5582,10.6025,38.1684,0.3758,0.3449,0.2257,0.0896
17:00:10:872,-1.8685,0.1883,10.1165,38.0403,0.1139,0.4301,0.2332,0.0901
17:00:10:892,-2.0044,0.2058,9.4142,37.9476,0.0607,0.4716,0.3492,0.0885
17:00:10:912,-1.7078,0.4666,8.2094,38.0632,0.1139,0.4418,0.4493,0.0867
17:00:10:932,-1.2893,0.8861,6.6912,38.2993,0.1491,0.4599,0.5153,0.0856
17:00:10:952,-0.9339,0.9516,5.3435,38.4116,0.0916,0.5973,0.5195,0.0843
17:00:10:972,-0.779,0.7512,4.7429,38.5675,0.0021,0.6846,0.494,0.0817
17:00:10:992,-1.0748,0.6665,4.6584,38.3724,-0.0426,0.8166,0.4897,0.0779
17:00:11:013,-1.5214,0.8844,4.5976,38.1509,-0.0532,0.9624,0.5962,0.073
17:00:11:033,-1.7418,1.1924,4.4631,38.3023,-0.1129,1.0114,0.7655,0.0674
17:00:11:053,-1.4463,1.3849,4.8075,38.4535,-0.2342,0.8081,0.89,0.0613
17:00:11:072,-0.6874,1.5392,5.6449,38.6535,-0.4141,0.2672,0.8688,0.0558
17:00:11:092,-0.0151,1.376,7.0266,38.6404,-0.6377,-0.3556,0.5824,0.0519
17:00:11:112,0.2276,1.1051,8.5729,38.6855,-0.6228,-0.5526,0.2992,0.0495
17:00:11:133,0.1487,1.3826,9.5362,38.7067,-0.4876,-0.3609,0.2119,0.0483
17:00:11:152,0.4877,1.6612,10.0385,38.7086,-0.5675,-0.1043,0.1373,0.0465
17:00:11:172,0.7495,1.7322,11.0991,38.9185,-0.9188,0.0916,-0.1373,0.0417
17:00:11:194,0.2804,1.942,12.8542,39.3809,-1.1189,0.3652,-0.428,0.0326
17:00:11:212,-0.2585,1.839,14.199,39.6466,-1.0647,0.7282,-0.56,0.0207
17:00:11:232,-1.0217,1.8243,15.2116,39.8565,-0.7133,1.1339,-0.61,0.0074
17:00:11:251,-1.6201,1.9853,15.1648,39.8527,-0.2566,1.2307,-0.5557,-0.0047
17:00:11:272,-1.9367,1.573,14.7092,40.1718,0.0969,1.0231,-0.5611,-0.0135
17:00:11:292,-2.3384,0.6893,14.4013,40.2941,0.4865,0.3982,-0.5792,-0.0178
17:00:11:312,-2.598,0.0464,13.3932,40.5814,0.8847,-0.2789,-0.5547,-0.0148
17:00:11:333,-2.4738,-0.3784,11.813,40.6445,0.9081,-0.593,-0.5025,-0.0056
17:00:11:351,-2.0364,-0.8867,10.8589,40.7247,0.593,-0.6196,-0.4834,0.0041
17:00:11:372,-1.774,-0.8648,10.5376,40.6541,0.3386,-0.5664,-0.4695,0.0112
17:00:11:394,-1.7679,-0.4537,9.8387,40.8946,0.3407,-0.4312,-0.4056,0.0164
17:00:11:412,-1.9476,0.1814,8.4095,40.6174,0.5015,-0.3843,-0.2449,0.0217
17:00:11:432,-1.7866,0.8416,6.6582,41.1522,0.61,-0.4567,-0.0554,0.0282
17:00:11:452,-1.408,1.1871,5.2991,40.961,0.5813,-0.7602,0.0724,0.0361
17:00:11:472,-0.6835,1.1261,4.5134,40.6876,0.4823,-1.2531,0.1725,0.0456
17:00:11:492,0.3513,0.9019,4.7644,40.7555,0.3918,-1.6747,0.1544,0.0571
17:00:11:514,0.9211,1.0218,5.42,40.4279,0.4418,-1.6736,0.0053,0.07
17:00:11:532,0.7728,1.5044,5.7341,40.7242,0.5898,-1.3148,-0.0969,0.0829
17:00:11:552,0.7339,1.9131,5.8331,40.8627,0.5483,-0.8751,-0.0628,0.0946
17:00:11:572,0.833,2.1478,6.6024,40.8332,0.2917,-0.6281,-0.0958,0.103
17:00:11:592,0.5567,2.5679,8.1018,41.3377,0.0628,-0.7112,-0.1693,0.1083
17:00:11:612,0.2809,2.9226,9.6015,41.2171,0.0287,-0.7964,-0.1746,0.1126
17:00:11:632,-0.0892,3.1656,10.6175,41.4837,0.1884,-0.7484,-0.0351,0.1174
17:00:11:652,0.2159,3.449,11.305,41.7648,0.3918,-0.8294,0.2427,0.1236
17:00:11:672,0.8826,4.0542,11.5624,41.8721,0.5888,-0.8602,0.4173,0.1321
17:00:11:691,1.5361,4.659,11.4183,41.6618,0.6367,-0.7825,0.4291,0.1418
17:00:11:712,1.8967,5.0512,11.2721,41.7875,0.5195,-0.6409,0.2938,0.1511
17:00:11:732,1.7334,5.3614,11.1927,42.2893,0.3013,-0.4642,0.1352,0.1582
17:00:11:752,1.6727,4.9564,11.4654,42.6392,0.0596,-0.329,-0.0671,0.1625
17:00:11:773,1.2159,3.9686,12.0841,42.9668,-0.1512,-0.3503,-0.4131,0.1643
17:00:11:792,0.3763,2.8902,12.5755,43.2527,-0.2779,-0.4205,-0.675,0.1648
17:00:11:812,-0.5309,1.8007,12.7841,43.02,-0.2885,-0.329,-0.7293,0.1647
17:00:11:832,-1.0967,0.7339,12.6372,42.8364,-0.2044,-0.1384,-0.6132,0.164
17:00:11:853,-1.3882,0.2098,11.8297,42.7548,-0.0447,0.1512,-0.3865,0.163
17:00:11:872,-1.3853,0.2237,10.3978,42.8096,0.0841,0.5323,-0.1246,0.1616
17:00:11:891,-0.9623,0.3732,8.6795,43.0839,0.0405,0.8986,0.0383,0.159
17:00:11:912,-0.7935,0.5609,7.2728,43.2517,-0.0564,1.2669,0.1001,0.1538
17:00:11:932,-0.9814,0.7328,6.1418,43.4193,-0.0713,1.5555,0.197,0.1461
17:00:11:952,-1.4423,0.8516,4.9927,43.2512,-0.0394,1.6907,0.4173,0.137
17:00:11:972,-1.6971,1.0747,3.9814,43.3097,-0.1086,1.6044,0.7697,0.1277
17:00:11:992,-1.2768,1.2563,3.5488,43.2863,-0.3354,1.3276,1.0849,0.1184
17:00:12:012,-0.7115,1.4504,4.0059,43.3143,-0.6963,1.0242,1.2212,0.1086
17:00:12:033,-0.223,1.7111,5.4216,43.6383,-0.9412,0.7133,1.1945,0.0974
17:00:12:052,0.5023,1.395,7.2257,43.8229,-0.971,0.1182,0.9869,0.0869
17:00:12:072,0.9525,1.0507,8.938,44.0347,-0.7346,-0.5345,0.659,0.0802
17:00:12:092,0.9266,1.2438,9.865,44.2507,-0.4354,-0.7985,0.4408,0.079
17:00:12:112,0.9784,1.5084,10.3834,44.4674,-0.2672,-0.8123,0.3535,0.0811
17:00:12:132,1.4586,1.7482,11.1281,44.3786,-0.2875,-1.0018,0.2917,0.0842
17:00:12:152,2.2194,1.9985,12.1109,44.3812,-0.3056,-1.251,0.1544,0.0884
17:00:12:173,2.9971,2.1211,12.8652,44.37,-0.3013,-1.4841,-0.0958,0.094
17:00:12:191,3.4669,2.0204,13.6773,44.2743,-0.2694,-1.6151,-0.4461,0.101
17:00:12:211,3.3832,1.9567,14.1014,44.2977,-0.1203,-1.5576,-0.7112,0.1091
17:00:12:235,3.5337,1.4856,13.8869,44.2699,0.0383,-1.2424,-0.8634,0.1176
17:00:12:252,3.3521,0.8981,13.445,44.3554,0.2268,-0.5643,-0.9688,0.125
17:00:12:272,2.5964,0.6989,12.6223,44.1039,0.4961,0.1554,-0.9465,0.1297
17:00:12:292,1.6898,1.0072,11.6036,44.1311,0.6984,0.5291,-0.8709,0.1328
17:00:12:311,1.2522,1.3182,10.5568,43.8594,0.6175,0.4376,-0.7772,0.1357
17:00:12:332,1.5332,1.0898,9.9912,43.6753,0.1661,0.0809,-0.8326,0.1381
17:00:12:351,1.4274,0.6703,10.2846,43.6715,-0.33,-0.1341,-1.0295,0.1385
17:00:12:372,0.9552,0.5203,10.5994,43.4112,-0.4354,0.0575,-1.0881,0.1361
17:00:12:392,0.3608,0.7342,9.6743,43.5025,-0.2406,0.5526,-0.9593,0.132
17:00:12:434,-0.0881,1.3055,8.072,43.5568,-0.0202,1.0849,-0.6697,0.1269
17:00:12:436,-0.2111,1.772,6.4511,43.2538,0.0351,1.3947,-0.4014,0.1207
17:00:12:452,-0.1279,2.0809,5.4765,43.502,-0.0554,1.35,-0.2534,0.1135
17:00:12:471,-0.1089,2.1189,5.1873,43.2308,-0.1672,1.0774,-0.2044,0.106
17:00:12:491,-0.0845,2.0102,5.6491,43.1664,-0.1533,0.6761,-0.2055,0.0993
17:00:12:512,-0.1846,1.9582,6.192,43.0881,0.049,0.3929,-0.2172,0.0952
17:00:12:532,-0.1791,1.9114,6.5161,43.1067,0.3173,0.1448,-0.1799,0.0944
17:00:12:552,-0.165,2.0842,6.788,42.9497,0.461,-0.0362,-0.0745,0.0969
17:00:12:572,-0.095,2.5997,7.3388,42.7468,0.4802,-0.0202,-0.017,0.1012
17:00:12:591,-0.0206,3.055,8.162,42.521,0.3907,0.2321,-0.0905,0.1049
17:00:12:613,-0.3291,3.1159,9.2748,42.1888,0.2002,0.3897,-0.1778,0.1062
17:00:12:633,-0.6337,3.4526,10.6527,42.1234,0.1714,0.3471,-0.2864,0.1056
17:00:12:652,-0.7268,3.7566,11.5084,42.05,0.3992,0.0681,-0.5174,0.1057
17:00:12:671,-0.6987,4.4818,11.8931,41.8878,0.7261,0.0128,-0.8496,0.109
17:00:12:692,-1.4444,4.846,11.5029,41.9865,0.6377,-0.5227,-0.8453,0.1151
17:00:12:713,-1.837,4.8235,11.5692,42.0755,0.3162,-0.6569,-0.643,0.1221
17:00:12:733,-1.6423,4.232,12.3059,41.848,0.0234,-0.5472,-0.3513,0.1268
17:00:12:751,-1.2856,3.1871,12.9968,41.8493,0.1224,-0.1927,-0.164,0.1291
17:00:12:772,-1.2377,2.3484,12.63,41.7196,0.4631,0.0916,-0.0958,0.1315
17:00:12:791,-1.746,2.1564,11.5087,41.1769,0.7165,0.2406,0.0032,0.1356
17:00:12:812,-2.0035,1.837,9.9146,40.9879,0.5398,0.2576,0.1672,0.1407
17:00:12:833,-2.0697,1.1027,8.9428,40.976,0.0021,0.1001,0.2236,0.1432
17:00:12:852,-2.1897,0.7972,8.8402,40.8344,-0.5366,0.0032,0.3279,0.1416
17:00:12:872,-1.8795,0.4045,8.7315,41.3153,-0.7123,0.1735,0.5164,0.1365
17:00:12:892,-1.3599,0.3178,8.2736,41.3942,-0.6782,0.4493,0.6973,0.1296
17:00:12:912,-0.7852,0.3347,7.6696,41.3625,-0.5536,0.6973,0.8251,0.1221
17:00:12:933,-0.7809,0.6045,6.8894,41.4345,-0.4237,0.9454,0.8826,0.1139
17:00:12:952,-1.0998,0.7914,5.9731,41.1995,-0.3535,1.2393,0.988,0.1068
17:00:12:971,-1.1582,0.8341,5.3477,41.1217,-0.3599,1.4937,1.0583,0.098
17:00:12:992,-1.136,1.1415,5.3521,40.9941,-0.4227,1.515,1.0306,0.0878
17:00:13:012,-1.1332,1.5016,5.8271,40.6143,-0.4802,1.2371,0.9443,0.0772
17:00:13:032,-1.0915,1.5783,6.7081,40.5991,-0.4855,0.8123,0.7889,0.0677
17:00:13:051,-1.1059,1.7417,7.7739,40.5953,-0.4099,0.5515,0.5334,0.0604
17:00:13:072,-0.9644,1.6177,8.8424,40.6962,-0.4386,0.4546,0.2906,0.0544
17:00:13:094,-1.4332,1.5195,10.3038,40.7394,-0.4099,0.412,0.0554,0.0483
17:00:13:113,-2.0668,1.839,11.4033,40.5256,-0.1427,0.3748,0.0948,0.0431
17:00:13:132,-2.1664,2.0284,11.7288,40.5125,0.1182,0.2491,0.1565,0.0409
17:00:13:151,-2.1461,2.2882,11.8489,40.1435,0.1778,0.0234,0.1182,0.0412
17:00:13:172,-1.9194,2.6826,12.3256,39.8921,0.083,-0.1256,0.1075,0.0425
17:00:13:192,-1.3173,2.544,12.8604,39.8313,-0.017,0.0596,0.1022,0.0435
17:00:13:212,-1.2421,2.7465,13.6597,39.6992,0.2097,0.3503,0.132,0.043
17:00:13:232,-1.0154,3.1859,13.229,39.5998,0.6462,0.4269,0.1863,0.044
17:00:13:252,-0.735,3.3863,12.0465,39.799,0.824,0.2278,0.0437,0.0478
17:00:13:271,-0.9506,2.9523,10.7738,39.8691,0.7453,-0.0692,-0.1757,0.0533
17:00:13:292,-1.4578,2.5969,9.6058,39.8803,0.444,-0.2385,-0.2843,0.0588
17:00:13:312,-1.3559,2.1004,9.3549,40.1416,-0.1246,-0.4621,-0.3332,0.0621
17:00:13:332,-1.2448,1.4697,10.364,40.0557,-0.6207,-0.8027,-0.4919,0.0619
17:00:13:351,-1.4749,1.1807,10.8752,39.8649,-0.7027,-0.84,-0.5792,0.0602
17:00:13:372,-2.0183,1.0651,10.0741,39.9372,-0.4535,-0.6111,-0.4684,0.0588
17:00:13:392,-2.3689,1.2059,8.4242,39.789,-0.1799,-0.3386,-0.1874,0.0586
17:00:13:412,-2.3363,1.455,6.9086,40.1814,0.0522,-0.1427,0.1725,0.0594
17:00:13:432,-1.895,1.7631,5.7056,40.3554,0.2204,-0.1586,0.4503,0.0615
17:00:13:452,-0.9925,1.5887,5.1905,40.2214,0.3173,-0.4589,0.5015,0.0654
17:00:13:471,-0.2134,1.7256,5.588,40.1017,0.4195,-0.8113,0.2576,0.0715
17:00:13:492,-0.2842,2.1899,5.5812,40.0553,0.642,-0.7761,-0.0053,0.0801
17:00:13:512,-0.4474,2.582,4.94,39.9729,0.6611,-0.4887,-0.0884,0.0896
17:00:13:532,-0.2996,2.8407,4.8351,39.701,0.3045,-0.3513,-0.165,0.0967
17:00:13:552,-0.1966,2.8255,6.1023,39.6924,-0.1139,-0.4621,-0.3066,0.0998
17:00:13:572,-0.383,2.8027,7.8377,39.602,-0.2576,-0.5621,-0.4259,0.1006
17:00:13:592,-0.7955,2.9432,9.0227,39.7883,-0.1224,-0.3982,-0.4056,0.1013
17:00:13:612,-1.2573,3.3607,9.3669,39.7996,0.0373,-0.0809,-0.2342,0.1023
17:00:13:632,-1.4972,3.8007,9.8293,39.8188,0.0149,0.1341,0.0224,0.1027
17:00:13:651,-1.492,4.2608,10.642,39.9279,-0.0543,0.1693,0.2726,0.102
17:00:13:672,-1.2189,4.3825,11.8588,39.6844,-0.1182,-0.0234,0.4046,0.1009
17:00:13:692,-1.1704,4.2406,13.4046,39.5692,-0.049,-0.2683,0.3609,0.1007
17:00:13:711,-1.7463,4.5898,14.3019,39.5693,0.3066,0.017,0.4205,0.1026
17:00:13:732,-1.7015,4.242,13.7141,39.5194,0.5909,0.2534,0.4482,0.1059
17:00:13:751,-1.6054,3.2104,12.6576,39.4818,0.5387,0.1821,0.2268,0.1098
17:00:13:773,-2.236,2.5109,11.7675,39.8913,0.3801,0.1703,0.0021,0.1128
17:00:13:792,-2.845,1.8207,10.8401,39.9064,0.1725,0.2981,0.0021,0.1143
17:00:13:812,-3.0056,1.2147,9.8508,40.38,-0.1682,0.4919,0.1054,0.1131
17:00:13:832,-2.7913,0.7165,9.0094,40.3055,-0.5792,0.6899,0.1565,0.1078
17:00:13:852,-2.4388,0.3019,8.3476,40.2361,-0.8773,0.8656,0.1725,0.0982
17:00:13:872,-2.1304,0.0471,7.5914,40.549,-0.9912,0.9688,0.1778,0.0858
17:00:13:891,-2.108,-0.0344,6.8293,40.4811,-0.9571,0.972,0.2789,0.0724
17:00:13:911,-2.2515,-0.055,6.2178,40.5301,-0.7878,1.0263,0.527,0.0598
17:00:13:932,-2.2655,0.1488,5.5432,40.3931,-0.5579,1.0955,0.8709,0.0489
17:00:13:953,-1.9163,0.3839,5.2964,40.328,-0.3375,1.1253,1.1392,0.0398
17:00:13:973,-1.6243,0.8079,5.2029,40.3855,-0.1405,1.0657,1.2882,0.0326
17:00:13:992,-1.2656,1.42,5.0814,40.4951,-0.0958,0.8986,1.2733,0.0273
17:00:14:012,-0.9707,1.9959,5.5234,40.6875,-0.2385,0.4557,1.0827,0.0228
17:00:14:032,-0.754,2.2077,6.7484,40.7901,-0.5004,-0.1852,0.7293,0.0194
17:00:14:052,-0.7452,2.0233,8.8054,40.901,-0.5068,-0.6675,0.3801,0.0178
17:00:14:072,-0.6698,1.9515,10.4716,40.7291,-0.1852,-0.7878,0.1491,0.0192
17:00:14:092,-0.494,2.2927,10.6105,40.6588,0.1224,-0.5483,-0.0256,0.0236
17:00:14:114,-0.5711,2.778,10.4871,40.757,0.0362,-0.1278,-0.2726,0.0272
17:00:14:132,-1.1381,3.2538,11.2895,40.763,-0.2193,0.0575,-0.4919,0.0268
17:00:14:151,-1.2822,3.1718,12.4935,40.8073,-0.363,-0.0021,-0.6878,0.0236
17:00:14:172,-1.4637,2.8705,13.6379,40.8008,-0.131,0.0862,-0.8219,0.02
17:00:14:192,-1.7719,2.6816,14.0536,41.0837,0.4599,0.2875,-0.6761,0.0185
17:00:14:212,-1.649,3.447,13.4152,41.0185,1.0689,0.2704,-0.4046,0.0213
17:00:14:232,-0.8621,4.0921,12.272,41.1784,1.2893,-0.1416,-0.4152,0.029
17:00:14:252,-0.5062,3.6912,11.3153,41.2483,1.0689,-0.5238,-0.7846,0.0393
17:00:14:272,-1.2041,1.956,10.9963,41.6667,0.8091,-0.5845,-1.2148,0.0486
17:00:14:292,-2.7481,1.0971,10.2417,42.0581,0.5515,-0.2779,-1.2818,0.0557
17:00:14:312,-3.9015,0.9307,9.3068,42.1879,0.0617,0.2172,-0.988,0.0585
17:00:14:333,-4.1276,0.9938,9.183,42.5556,-0.659,0.4525,-0.6005,0.0547
17:00:14:352,-3.7568,1.1679,9.7499,42.567,-1.0849,0.297,-0.3737,0.045
17:00:14:372,-3.4072,1.0823,9.8671,42.3573,-1.021,0.0064,-0.263,0.0341
17:00:14:392,-3.3159,1.1514,9.0164,42.3488,-0.6718,-0.148,-0.1363,0.0265
17:00:14:412,-3.0301,1.3009,7.7388,42.4152,-0.2757,-0.3173,0.0692,0.0231
17:00:14:433,-2.4001,1.3576,6.507,42.5668,0.0202,-0.4535,0.2587,0.0239
17:00:14:451,-1.5749,1.3878,5.7328,42.8302,0.2321,-0.5078,0.3513,0.0277
17:00:14:471,-1.1292,1.5438,5.3368,42.9537,0.4046,-0.5259,0.329,0.0334
17:00:14:491,-0.9154,1.6094,5.1641,42.8138,0.5547,-0.5195,0.2885,0.0404
17:00:14:511,-0.6455,1.6441,5.3437,42.879,0.6654,-0.4844,0.2576,0.0485
17:00:14:532,-0.4212,2.2897,5.6816,42.5831,0.7751,-0.1863,0.1725,0.0569
17:00:14:553,-0.163,2.8534,5.8689,42.57,0.625,0.0894,-0.0745,0.0639
17:00:14:572,-0.4797,2.9426,6.9903,42.4709,0.23,0.115,-0.4514,0.067
17:00:14:591,-1.2174,3.0783,8.9964,42.5259,0.0437,0.1884,-0.6069,0.0666
17:00:14:612,-1.9103,3.2798,10.1434,42.6426,0.2268,0.5962,-0.5557,0.0649
17:00:14:632,-2.2009,3.6744,10.1943,43.0875,0.3205,0.9624,-0.3811,0.0629
17:00:14:651,-2.3236,4.25,10.2197,43.2093,0.1107,1.0008,-0.3056,0.0593
17:00:14:671,-2.8023,4.4518,11.0976,43.4338,-0.2683,0.8017,-0.3098,0.0534
17:00:14:692,-3.6827,4.3504,12.5312,43.5114,-0.3439,0.4972,-0.1299,0.046
17:00:14:712,-3.7471,3.9579,13.1068,43.5125,-0.1384,0.0415,0.1427,0.0413
17:00:14:733,-3.2647,3.1691,12.6958,43.5246,0.0096,-0.3513,0.1331,0.0414
17:00:14:752,-3.2027,2.0405,11.8666,44.0423,-0.1597,-0.6665,-0.1512,0.0432
17:00:14:772,-3.7146,1.3775,11.1127,44.1102,-0.3992,-0.8943,-0.3609,0.0446
17:00:14:792,-3.8505,0.4571,10.9233,44.2949,-0.6037,-1.1424,-0.3716,0.0453
17:00:14:812,-3.6621,-0.3016,10.4825,44.6168,-0.6931,-1.0827,-0.2821,0.046
17:00:14:832,-3.2894,-0.7084,9.5626,44.8352,-0.7889,-0.7069,-0.1086,0.0455
17:00:14:851,-3.0386,-0.7997,8.4931,44.6899,-0.89,-0.116,0.0873,0.042
17:00:14:871,-3.0386,-0.5865,7.5433,44.9116,-0.9273,0.3119,0.3364,0.0348
17:00:14:892,-2.6182,-0.3224,7.2141,45.0534,-0.8049,0.4897,0.5792,0.0259
17:00:14:911,-1.9932,0.115,6.915,44.9898,-0.5195,0.5717,0.7048,0.0177
17:00:14:932,-1.9583,0.5263,6.1698,45.2268,-0.2395,0.6292,0.7516,0.0117
17:00:14:952,-1.9605,0.7493,5.4513,45.3143,-0.1522,0.4472,0.8336,0.0075
17:00:14:972,-1.6771,0.7928,5.5796,45.3743,-0.165,0.198,0.8858,0.0049
17:00:14:992,-1.6009,1.1418,6.0726,45.4636,-0.1086,0.1043,0.8911,0.0035
17:00:15:014,-1.3065,1.3585,6.273,45.4064,-0.181,-0.0213,0.8081,0.0031
17:00:15:032,-0.9763,1.106,7.1634,45.333,-0.4663,-0.3428,0.5398,0.0021
17:00:15:051,-1.0554,0.7419,8.9788,45.1694,-0.6377,-0.5717,0.2683,0.0005
17:00:15:072,-1.6615,0.5566,10.5858,45.337,-0.4546,-0.4216,0.1735,-0.0008
17:00:15:092,-2.0334,0.9574,10.8145,45.0705,-0.1065,-0.1075,0.263,-0.0013
17:00:15:111,-1.906,1.4416,10.3013,45.0551,-0.0202,0.1043,0.2619,-0.0011
17:00:15:132,-1.6756,1.4518,10.5171,45.4424,-0.1778,0.1938,0.1395,-0.0022
17:00:15:152,-1.4759,0.942,11.4346,45.3132,-0.3918,0.247,-0.0479,-0.0053
17:00:15:172,-1.5356,0.6655,12.6129,45.5622,-0.5132,0.3407,-0.1852,-0.0106
17:00:15:191,-1.8644,0.8336,13.2779,46.0615,-0.477,0.4993,-0.197,-0.0172
17:00:15:212,-1.6298,0.7348,13.3289,46.2306,-0.4706,0.4642,-0.2374,-0.0241
17:00:15:232,-1.6033,0.4566,13.3761,46.7059,-0.5291,0.3268,-0.3407,-0.0309
17:00:15:252,-1.6422,-0.0662,13.5568,46.9585,-0.4557,0.1491,-0.3705,-0.0372
17:00:15:271,-1.5999,-0.5402,13.4239,47.0194,-0.2779,-0.0862,-0.3694,-0.0413
17:00:15:291,-1.6015,-0.5882,12.7799,47.5304,-0.083,-0.2832,-0.3418,-0.0426
17:00:15:311,-1.7476,-0.0805,11.4838,47.5823,0.0884,-0.3066,-0.2843,-0.0412
17:00:15:332,-1.8712,0.2774,9.8307,47.7631,0.1629,-0.2534,-0.2193,-0.0387
17:00:15:351,-1.7927,0.3628,8.3287,47.6139,0.1938,-0.2747,-0.1267,-0.036
17:00:15:372,-1.4526,0.1202,7.019,47.4734,0.2087,-0.445,-0.0628,-0.0326
17:00:15:392,-1.3082,-0.2653,5.9533,47.1636,0.1959,-0.7069,-0.0277,-0.028
17:00:15:412,-1.2201,-0.527,5.1266,47.167,0.1767,-1.0178,0.049,-0.0219
17:00:15:432,-0.5585,-0.8602,4.7725,47.149,0.1448,-1.3447,0.1054,-0.014
17:00:15:452,0.4686,-0.5627,5.665,47.4391,0.1672,-1.3755,-0.0341,-0.0046
17:00:15:472,0.4252,-0.0268,6.2951,47.373,0.3662,-0.8996,-0.2364,0.0047
17:00:15:492,-0.0115,0.4085,6.2524,47.35,0.4088,-0.3141,-0.2811,0.0122
17:00:15:512,-0.2285,0.7562,6.5869,47.3353,0.2172,0.0798,-0.2406,0.0162
17:00:15:532,-0.1965,1.2361,7.7445,47.4159,-0.0256,0.0894,-0.2523,0.0168
17:00:15:552,-0.2038,1.6439,9.4057,47.395,-0.0958,-0.0671,-0.3769,0.0158
17:00:15:572,-0.7454,2.2994,10.6722,47.676,0.1033,-0.132,-0.4291,0.0156
17:00:15:593,-1.1925,2.5434,11.1059,47.5418,0.3545,-0.1278,-0.33,0.0177
17:00:15:613,-1.5802,2.8948,11.3017,47.4412,0.4525,-0.1927,-0.2012,0.0216
17:00:15:633,-1.4677,3.2936,11.7273,47.4833,0.428,-0.2214,-0.0415,0.0264
17:00:15:653,-1.3663,3.5514,12.2902,47.6884,0.3652,-0.2183,0.0192,0.0311
17:00:15:672,-1.3663,3.4637,12.7029,47.9051,0.3503,-0.214,0.0628,0.0352
17:00:15:692,-1.4475,2.8911,12.6737,48.3857,0.444,-0.3811,0.0213,0.0396
17:00:15:712,-1.6102,2.0706,11.6746,48.5973,0.4599,-0.8389,-0.1139,0.046
17:00:15:732,-2.0354,1.0797,10.4364,48.7462,0.1906,-1.5586,-0.3151,0.0551
17:00:15:752,-2.6484,0.1319,9.6577,49.0493,-0.2427,-2.1123,-0.3066,0.0654
17:00:15:773,-1.628,-1.1761,10.9856,48.5613,-0.6643,-2.6084,-0.2587,0.0751
17:00:15:793,-0.7835,-1.3926,12.6889,48.7226,-0.5004,-2.6467,-0.3268,0.0849
17:00:15:812,-0.0582,-1.6448,12.4701,48.6138,-0.1267,-2.1996,-0.313,0.0962
17:00:15:832,0.2062,-1.73,10.7656,48.575,-0.0373,-1.3926,-0.1874,0.1068
17:00:15:852,0.0428,-1.5218,9.1641,48.6682,-0.2545,-0.2672,0.1586,0.1122
17:00:15:871,0.0463,-1.2594,8.3039,48.7094,-0.4876,0.8613,0.6164,0.1089
17:00:15:892,0.0418,-0.7823,8.2911,48.2885,-0.4365,1.7279,0.9582,0.0979
17:00:15:912,0.0556,-0.3151,8.123,48.3068,-0.0649,2.2752,1.2222,0.0834
17:00:15:932,0.3222,0.0186,7.6568,48.211,0.3311,2.4189,1.3415,0.0697
17:00:15:952,0.1289,0.6613,6.8852,48.6365,0.6441,2.3784,1.3148,0.0586
17:00:15:972,-0.1218,1.4618,6.2961,48.5348,0.6782,2.1495,1.2105,0.0502
17:00:15:992,-0.207,1.8274,6.4332,48.5067,0.4141,1.7098,1.0359,0.0431
17:00:16:012,-0.2435,2.0308,7.2886,48.224,0.0649,1.0668,0.8198,0.0363
17:00:16:032,-0.1144,1.9842,8.6133,48.102,-0.1554,0.478,0.5611,0.0308
17:00:16:056,-0.105,1.9124,10.2072,47.768,-0.1405,0.2151,0.3205,0.0271
17:00:16:073,0.0135,1.5972,11.4631,47.5779,0.0319,0.1586,0.1373,0.025
17:00:16:092,0.1813,1.1143,12.143,47.6147,0.0852,0.099,-0.1139,0.0245
17:00:16:112,0.2908,0.6749,12.5777,47.5216,0.0106,0.2172,-0.3801,0.0242
17:00:16:133,-0.2284,0.4335,12.7882,47.8292,-0.0383,0.5866,-0.5195,0.022
17:00:16:152,-0.7865,0.5215,12.7564,48.1401,0.0405,0.9891,-0.4056,0.0172
17:00:16:171,-0.676,0.7298,12.5502,47.9788,0.1288,1.0849,-0.2587,0.0111
17:00:16:192,-0.0104,0.3876,12.1481,47.9953,0.2545,0.8027,-0.2726,0.0057
17:00:16:212,0.2124,0.1117,11.6901,48.109,0.3588,0.2204,-0.4631,0.0034
17:00:16:232,-0.0766,0.0915,11.0743,47.7996,0.4663,-0.2992,-0.5696,0.0054
17:00:16:252,-0.0823,0.0826,10.1844,47.7181,0.4014,-0.4163,-0.6239,0.0106
17:00:16:272,-0.3098,0.0965,9.4128,47.7314,0.1278,-0.2385,-0.6569,0.0151
17:00:16:292,-0.489,0.1337,8.9975,47.7799,-0.2704,-0.0138,-0.6622,0.0157
17:00:16:312,-0.7931,0.1891,8.9251,47.9364,-0.5898,0.1171,-0.6973,0.012
17:00:16:332,-1.164,0.2322,8.6258,47.774,-0.6345,0.1629,-0.6803,0.0056
17:00:16:353,-1.5632,0.3599,8.1607,47.7352,-0.4621,0.1118,-0.5919,-0.0006
17:00:16:371,-1.6354,0.5325,7.6527,47.8315,-0.1416,-0.0468,-0.4014,-0.0045
17:00:16:392,-1.3205,0.703,7.148,47.7419,0.2193,-0.3066,-0.2513,-0.0044
17:00:16:411,-1.1248,1.0129,6.4955,47.5502,0.5206,-0.5856,-0.1395,0.0001
17:00:16:437,-0.8416,1.4609,6.2817,47.3778,0.6899,-1.153,0.0798,0.0097
17:00:16:451,0.2267,2.1937,7.2699,47.639,0.857,-2.1942,0.444,0.0225
17:00:16:472,1.8677,2.7901,8.3323,47.7211,1.2595,-2.8778,0.6271,0.0444
17:00:16:492,3.098,3.4339,8.6224,47.6037,1.5608,-2.8597,0.3599,0.0725
17:00:16:512,3.2244,4.2264,8.6292,47.7196,1.4011,-2.5626,-0.2065,0.1012
17:00:16:532,2.6031,4.4582,9.2938,47.7913,0.9231,-2.0356,-0.6846,0.1257
17:00:16:552,1.4892,4.284,10.4314,47.4745,0.6345,-1.1104,-0.8017,0.1427
17:00:16:571,0.8499,3.8656,10.9503,47.467,0.5408,-0.4791,-0.7186,0.1529
17:00:16:592,0.2541,3.5079,10.8916,47.2638,0.4642,-0.131,-0.6281,0.1592
17:00:16:612,-0.1394,3.169,11.3252,47.35,0.3418,-0.099,-0.5366,0.1634
17:00:16:632,-0.349,2.9574,11.9362,47.5423,0.3322,-0.0873,-0.4791,0.1667
17:00:16:652,-0.9335,2.9736,11.9882,47.2935,0.5015,0.1863,-0.4088,0.1699
17:00:16:673,-1.4907,3.0447,10.9897,47.3327,0.5919,0.6973,-0.2417,0.1726
17:00:16:692,-1.5632,2.6675,10.2646,47.2084,0.3332,0.774,-0.1065,0.1732
17:00:16:711,-1.31,1.9867,10.6913,47.0165,-0.0149,0.3726,-0.1682,0.1713
17:00:16:733,-1.1209,1.3779,11.0162,46.9754,-0.1448,-0.0085,-0.313,0.1693
17:00:16:751,-1.0484,1.1879,10.5805,47.0519,-0.2108,-0.2097,-0.4248,0.1681
17:00:16:771,-0.4957,1.6065,10.8088,46.9124,-0.2268,-0.625,-0.4621,0.1674
17:00:16:791,0.9702,1.52,9.5783,46.8357,-0.0554,-1.449,-0.791,0.171
17:00:16:811,1.2554,1.9994,8.3836,46.8891,-0.2885,-1.8621,-1.169,0.178
17:00:16:833,0.7434,1.7436,7.7979,46.9018,-0.544,-2.1793,-1.2904,0.1851
17:00:16:852,-0.0359,1.3653,7.5842,46.8034,-0.8475,-1.9845,-0.9795,0.191
17:00:16:871,-0.0986,1.0208,7.6804,47.0112,-0.9145,-1.0434,-0.2917,0.1924
17:00:16:892,0.8442,0.977,7.9354,46.821,-0.8027,0.1288,0.2119,0.1881
17:00:16:913,0.875,1.2536,7.6998,46.8266,-0.5664,1.466,0.4035,0.1787
17:00:16:932,0.4396,1.2506,7.2895,47.231,-0.3843,2.0026,0.6292,0.1657
17:00:16:951,0.5737,1.3256,7.3891,47.3779,-0.132,1.5863,0.7825,0.1533
17:00:16:972,0.738,1.7424,7.6335,47.5619,0.1938,0.9763,0.873,0.1457
17:00:16:993,1.0024,2.3632,7.6024,47.6081,0.4759,0.8251,0.9092,0.1434
17:00:17:012,1.3367,2.4268,7.9033,47.6523,0.4621,0.7016,0.7878,0.1434
17:00:17:032,1.4068,2.3947,8.9261,47.5267,0.3279,0.2843,0.6313,0.1438
17:00:17:052,1.429,2.6013,9.7184,47.6499,0.4024,0.2161,0.5824,0.1454
17:00:17:072,1.5533,2.756,9.8745,47.83,0.4887,0.4961,0.6154,0.1476
17:00:17:095,1.8424,2.6256,9.8389,47.7934,0.2651,0.6377,0.5259,0.1485
17:00:17:114,1.6691,2.5799,10.6267,47.7965,-0.1203,0.4972,0.3364,0.1466
17:00:17:133,0.9693,2.7422,11.9846,47.5656,-0.2065,0.4418,0.3066,0.1422
17:00:17:151,0.4505,3.0434,12.8772,47.4435,0.0788,0.5398,0.4929,0.1389
17:00:17:172,0.5637,3.1158,12.2764,47.4299,0.3971,0.6505,0.6122,0.1373
17:00:17:192,1.1191,2.8496,11.2252,47.9571,0.3407,0.5898,0.576,0.1373
17:00:17:212,1.5384,2.1666,11.183,48.1602,0.0511,0.2374,0.3386,0.1367
17:00:17:232,1.4668,1.3954,11.539,48.4589,0.0021,-0.1746,0.1182,0.1361
17:00:17:252,1.3069,0.8147,11.0927,48.267,0.1672,-0.3843,0.0256,0.1377
17:00:17:272,1.3291,0.703,9.9521,47.9764,0.1884,-0.5227,0.0021,0.1416
17:00:17:292,1.6071,0.834,9.0287,48.008,-0.0405,-0.5568,0.0138,0.1457
17:00:17:311,1.9034,1.1952,8.6276,47.9881,-0.2992,-0.4067,0.0202,0.1478
17:00:17:332,1.8516,1.6666,8.2957,47.9391,-0.3992,-0.2097,0.0362,0.147
17:00:17:352,1.7003,1.9758,7.6355,48.0888,-0.3449,-0.0681,0.0234,0.1448
17:00:17:377,1.3671,2.1855,6.6853,48.2741,-0.2502,-0.017,-0.0256,0.1424
17:00:17:391,1.222,2.2362,6.0424,48.2821,-0.2087,-0.0554,-0.0916,0.1406
17:00:17:411,1.1387,2.2154,6.1745,48.5619,-0.1735,-0.0735,-0.1586,0.1393
17:00:17:433,0.7787,2.3099,6.389,48.5971,-0.0021,-0.0362,-0.1086,0.1385
17:00:17:461,0.7778,2.5833,6.474,48.505,0.1341,-0.0916,-0.0011,0.139
17:00:17:472,1.4017,2.7072,6.7731,48.5494,0.1011,-0.2843,-0.0064,0.1408
17:00:17:497,2.1648,2.5523,7.6509,48.2539,-0.0649,-0.4919,-0.1831,0.1432
17:00:17:518,2.0805,2.4998,9.0615,48.2591,-0.214,-0.6335,-0.4269,0.1452
17:00:17:534,1.4423,2.7676,10.2898,48.2894,-0.0554,-0.5302,-0.4386,0.1471
17:00:17:580,1.07,3.114,10.6048,48.4391,0.2395,-0.1959,-0.2566,0.1498
17:00:17:603,1.2157,3.3425,10.4221,48.3408,0.3588,0.1416,-0.083,0.1527
