Time,Acc_X,Acc_Y,Acc_Z,Meg,Gyr_X,Gyr_Y,Gyr_Z,Ore
17:19:00:272,3.2553,-0.2174,9.3993,50.1665,-0.2619,-0.0735,-0.033,0.1043
17:19:00:284,3.2321,-0.0603,9.6502,50.1824,-0.0809,0.0937,0.0138,0.1029
17:19:00:304,2.9618,-0.0699,9.6469,50.3616,0.0873,0.0671,0.0703,0.1019
17:19:00:324,2.9382,-0.0906,9.3308,50.7085,0.2683,-0.0298,0.131,0.1025
17:19:00:346,3.2163,-0.0169,8.8522,50.9013,0.4291,-0.049,0.1363,0.1049
17:19:00:366,3.3184,0.0958,8.2073,50.8935,0.5291,0.0617,0.0841,0.1083
17:19:00:384,3.4725,0.4349,7.899,50.9947,0.5696,0.2832,-0.0096,0.1115
17:19:00:404,3.4627,1.0542,8.0298,51.0296,0.4791,0.3801,-0.1299,0.1137
17:19:00:424,2.8592,1.6189,8.5834,50.8502,0.2545,0.4024,-0.1107,0.1144
17:19:00:444,2.1614,2.224,9.4981,51.0568,-0.115,0.263,-0.033,0.1133
17:19:00:465,1.8783,2.6168,10.7549,50.7679,-0.4897,-0.1384,0.1011,0.1106
17:19:00:485,2.6912,2.6474,11.8906,50.6207,-0.6356,-0.5962,0.2672,0.108
17:19:00:504,3.9033,2.4641,12.5966,50.73,-0.3673,-0.7772,0.3002,0.1076
17:19:00:524,4.1758,2.1712,12.5337,50.8658,0.197,-0.807,0.2108,0.1106
17:19:00:545,3.8663,1.9217,11.5981,50.9051,0.8336,-0.9167,0.0511,0.1185
17:19:00:566,3.6476,1.9256,10.4314,51.0854,1.3447,-0.905,-0.0447,0.133
17:19:00:584,4.1094,2.1368,9.3734,51.1328,1.7056,-0.6548,-0.0852,0.1478
17:19:00:604,4.5123,2.2785,8.4125,51.0543,1.8951,-0.1373,-0.082,0.1642
17:19:00:624,4.3432,2.3455,7.7616,51.1572,1.9174,0.2726,-0.0649,0.1783
17:19:00:646,4.1473,2.4698,7.2471,51.0644,1.8056,0.3961,-0.0756,0.1912
17:19:00:665,4.2899,2.8047,6.8129,50.9383,1.5437,0.4067,-0.1214,0.2002
17:19:00:684,4.2564,3.1683,6.6253,50.9716,1.2073,0.4525,-0.2065,0.208
17:19:00:704,4.0285,3.3625,6.9907,50.747,0.8741,0.3066,-0.3151,0.2133
17:19:00:726,3.82,3.7082,7.0563,50.6761,0.5589,0.0075,-0.4024,0.2182
17:19:00:744,3.5358,4.1439,7.3121,50.6558,0.2151,-0.1363,-0.4141,0.2216
17:19:00:765,2.7445,4.5299,8.201,50.5854,-0.1288,-0.5057,-0.3109,0.224
17:19:00:784,2.0032,4.9189,9.01,50.6349,-0.4205,-0.988,-0.2587,0.2265
17:19:00:804,1.2341,5.2255,9.5872,50.6626,-0.3662,-1.7801,0.1576,0.2311
17:19:00:824,1.9544,6.8114,9.8953,50.5076,0.3056,-2.0409,1.1392,0.2414
17:19:00:844,3.6686,7.0193,9.0199,50.4249,1.2542,-1.433,1.5033,0.2567
17:19:00:865,4.2816,5.6109,7.9285,50.2061,1.9643,-0.4535,1.5331,0.2733
17:19:00:884,4.8542,4.8102,7.3313,50.37,2.4327,0.2683,1.5022,0.288
17:19:00:904,5.3033,4.6806,6.6321,50.3449,2.5647,0.4589,1.4064,0.3013
17:19:00:924,5.6475,4.9748,5.8434,50.4874,2.2869,0.3694,1.3894,0.3138
17:19:00:944,6.5936,5.3477,5.4842,50.6746,1.6992,0.2129,1.3862,0.3247
17:19:00:965,7.0628,5.3723,5.8045,50.7394,1.0998,0.0405,1.2212,0.3325
17:19:00:984,7.2046,5.0841,6.211,51.0211,0.6473,-0.1586,1.0636,0.3382
17:19:01:004,7.2194,4.3953,6.4103,51.0265,0.3992,-0.1288,0.9593,0.3426
17:19:01:025,7.4931,3.803,6.5875,51.2796,0.2694,0.197,0.8208,0.3449
17:19:01:045,7.5179,3.1848,6.9048,50.9955,0.1459,0.5866,0.6345,0.3439
17:19:01:065,7.0961,2.3555,7.4988,51.2166,-0.0213,0.8496,0.4173,0.3394
17:19:01:084,6.3243,1.4558,8.3134,51.0738,-0.1842,0.9837,0.2257,0.3323
17:19:01:105,5.6139,0.6824,8.9662,51.3098,-0.2161,0.9039,0.0894,0.3237
17:19:01:126,5.3337,0.1463,8.8412,51.2785,-0.1331,0.8091,-0.066,0.3153
17:19:01:144,5.1845,-0.0529,8.4031,51.5823,-0.0522,0.8507,-0.264,0.3092
17:19:01:166,5.0104,0.0035,7.9089,51.5774,-0.0181,0.8304,-0.444,0.3026
17:19:01:185,4.8345,0.0107,7.5445,51.7713,0.0053,0.8645,-0.6196,0.2962
17:19:01:206,4.3326,0.1965,7.4151,52.0841,0.099,0.7974,-0.7772,0.2898
17:19:01:225,4.0504,0.548,6.9623,52.2098,0.2172,0.643,-0.8858,0.2847
17:19:01:244,3.7012,0.9314,6.6601,52.2922,0.2236,0.642,-0.9571,0.2811
17:19:01:265,3.3611,1.3154,6.6441,52.4968,0.2076,0.4961,-0.9763,0.2775
17:19:01:285,3.2869,1.7517,6.4203,52.5361,0.1895,0.181,-0.9869,0.2753
17:19:01:305,3.2625,2.2267,6.1116,52.4475,0.1576,-0.0224,-1.005,0.2752
17:19:01:325,3.1472,2.9156,6.0726,52.3063,0.1693,-0.0106,-0.9603,0.276
17:19:01:345,2.945,3.673,6.002,52.4752,0.2278,0.1097,-0.7878,0.2765
17:19:01:366,2.6747,3.9467,5.9607,52.3012,0.1767,0.3343,-0.5174,0.2764
17:19:01:385,2.7671,4.1735,6.3584,52.3685,0.0053,0.3843,-0.2332,0.2745
17:19:01:405,3.395,4.5771,6.7596,52.4298,-0.2353,0.1618,-0.0788,0.2716
17:19:01:425,4.1899,5.1782,7.2739,52.8724,-0.4951,-0.1288,-0.0458,0.269
17:19:01:445,4.6324,5.467,7.9719,53.2867,-0.6037,-0.2885,-0.0884,0.2667
17:19:01:466,4.9782,5.7573,8.3843,53.7163,-0.5046,-0.2246,-0.1693,0.2648
17:19:01:484,5.158,6.1957,8.7213,54.0403,-0.3002,0.0011,-0.2395,0.2632
17:19:01:505,5.1932,6.5307,8.8011,54.2785,-0.116,0.3992,-0.3087,0.2609
17:19:01:526,4.7258,6.5712,9.2098,54.4557,-0.1405,0.7996,-0.4322,0.2559
17:19:01:545,3.6061,6.4783,10.5528,54.3319,-0.1852,0.9646,-0.5185,0.2491
17:19:01:565,2.3452,6.2334,11.4641,54.4935,-0.0777,0.7154,-0.4535,0.2412
17:19:01:585,1.4681,5.5255,11.5821,54.7699,0.0735,0.4046,-0.2459,0.2362
17:19:01:606,1.0313,4.3977,11.5658,54.6234,0.1959,0.3375,-0.0373,0.234
17:19:01:625,1.1183,3.5296,11.4618,54.5954,0.3258,0.3513,0.0724,0.2332
17:19:01:645,1.4444,2.8645,11.0077,54.5104,0.3694,0.3801,-0.0351,0.2331
17:19:01:666,1.0851,2.678,10.6467,54.5543,0.2598,0.3641,-0.3173,0.2325
17:19:01:686,0.2704,2.9609,10.3836,54.6989,0.0649,0.1054,-0.5738,0.2314
17:19:01:705,-0.4011,3.391,10.1123,55.0047,0.0224,0.0138,-0.6196,0.2307
17:19:01:725,-0.213,3.6946,9.3881,55.1991,0.1916,0.0862,-0.5025,0.2304
17:19:01:745,0.1947,4.0554,8.38,55.4343,0.445,0.2065,-0.379,0.2308
17:19:01:766,0.3651,4.3678,6.9029,55.3272,0.6654,0.3077,-0.1916,0.2325
17:19:01:788,0.531,4.4746,5.6454,55.5206,0.7176,0.411,0.0767,0.2345
17:19:01:806,0.5896,4.4597,4.9349,55.5694,0.6218,0.3939,0.363,0.2365
17:19:01:825,1.1758,4.4069,4.7619,55.5609,0.5217,0.3609,0.626,0.2389
17:19:01:845,1.8769,4.1705,4.8626,55.8059,0.4653,0.2779,0.7304,0.2407
17:19:01:865,2.3973,3.9648,4.8166,55.6232,0.4067,0.0894,0.6611,0.2429
17:19:01:886,2.7374,3.9685,4.7344,55.7551,0.3024,-0.0415,0.4983,0.2457
17:19:01:904,2.7785,4.0704,4.8669,55.5359,0.1554,-0.0138,0.3279,0.2482
17:19:01:925,2.675,4.3999,5.4816,55.7128,0.0394,0.0639,0.2172,0.2491
17:19:01:944,2.6386,4.756,6.2601,55.7276,0.0043,0.083,0.1203,0.249
17:19:01:965,2.5152,5.1174,7.0877,55.8956,0.049,0.0862,0.0639,0.2485
17:19:01:984,2.4941,5.7338,7.6038,55.8646,0.1629,-0.0266,0.1118,0.2486
17:19:02:005,2.9022,6.2309,7.4319,56.0244,0.2108,-0.1011,0.2417,0.2505
17:19:02:025,3.3735,6.3258,7.5753,56.2242,0.0809,0.0809,0.3098,0.2526
17:19:02:046,3.8927,6.2534,8.3599,56.1836,-0.1874,0.2875,0.1842,0.252
17:19:02:066,3.8906,6.1438,9.5061,56.3896,-0.5504,0.2353,-0.1139,0.2481
17:19:02:085,3.096,5.6651,10.5432,56.8675,-0.9167,-0.0628,-0.4557,0.2421
17:19:02:105,1.8109,5.0805,11.6424,57.0439,-0.9827,-0.4152,-0.6281,0.236
17:19:02:125,1.0099,4.9866,11.9192,57.2016,-0.5206,-0.6015,-0.3929,0.2332
17:19:02:145,1.4496,4.7615,10.6059,57.3203,0.0884,-0.3045,-0.0032,0.2351
17:19:02:166,2.1606,4.2955,9.4809,57.4408,0.3173,0.379,0.1629,0.2379
17:19:02:185,2.4775,3.8042,9.1717,57.1675,0.2108,0.6271,0.1182,0.2368
17:19:02:205,2.4603,3.2828,9.1472,57.3717,-0.0979,0.2768,-0.082,0.2336
17:19:02:225,2.1404,2.8134,8.8529,57.3188,-0.3705,-0.3034,-0.329,0.2309
17:19:02:245,1.8552,2.5714,8.2888,57.3807,-0.4567,-0.6399,-0.5334,0.2306
17:19:02:286,1.4255,2.5361,7.8482,57.5532,-0.3513,-0.5675,-0.625,0.2315
17:19:02:287,1.1764,2.4649,7.4494,57.7686,-0.0958,-0.3226,-0.6377,0.2327
17:19:02:304,1.0442,2.5267,7.0301,58.0249,0.1522,-0.0948,-0.6356,0.2339
17:19:02:326,0.9155,2.6595,6.5871,57.943,0.264,0.0202,-0.6143,0.2351
17:19:02:345,0.7726,2.8353,6.1881,58.0626,0.2417,-0.0213,-0.5653,0.2361
17:19:02:366,0.736,3.1566,5.8583,57.9174,0.1395,-0.1288,-0.4674,0.2374
17:19:02:385,0.8437,3.3049,5.7194,57.885,-0.017,-0.1703,-0.3481,0.2385
17:19:02:406,0.9828,3.3679,6.0705,57.7572,-0.1256,-0.2587,-0.2534,0.2391
17:19:02:425,1.3043,3.5232,6.456,57.8023,-0.1288,-0.4514,-0.2214,0.2399
17:19:02:445,1.7382,3.7137,6.7357,57.6878,-0.0852,-0.6643,-0.2374,0.2422
17:19:02:465,2.0142,4.0184,6.9055,58.0268,-0.0447,-0.7112,-0.2832,0.2461
17:19:02:486,2.1565,4.6409,7.4686,58.0887,-0.0362,-0.6058,-0.3034,0.2505
17:19:02:505,2.2,5.2733,8.1896,58.1898,-0.0564,-0.5866,-0.3354,0.2536
17:19:02:525,2.1616,5.9492,9.1288,58.3286,-0.0522,-0.5781,-0.3396,0.2568
17:19:02:545,2.023,6.3837,10.113,58.2042,-0.017,-0.7655,-0.3268,0.2602
17:19:02:567,1.4761,6.3967,11.1211,58.1562,0.0032,-1.3329,-0.231,0.2662
17:19:02:585,1.7014,6.3937,12.0231,57.982,0.3183,-1.6726,-0.0767,0.2751
17:19:02:604,2.7352,6.4867,11.8733,58.1864,0.8954,-1.2382,0.017,0.2889
17:19:02:625,3.3731,6.2099,10.8083,58.0699,1.3361,-0.4908,-0.066,0.3032
17:19:02:653,3.1911,6.2957,9.8969,58.1832,1.4256,0.1703,-0.1789,0.315
17:19:02:665,2.4864,6.2543,9.5662,58.2937,1.2925,0.5589,-0.2332,0.323
17:19:02:685,1.7053,6.1248,9.4175,58.287,1.1062,0.6281,-0.2108,0.3278
17:19:02:705,1.2887,5.9394,8.9366,58.0853,0.9529,0.4876,-0.1895,0.3312
17:19:02:725,1.1734,5.8246,7.8183,57.6678,0.8145,0.3545,-0.2193,0.3344
17:19:02:745,0.911,5.5382,6.6786,57.401,0.6622,0.4386,-0.247,0.3372
17:19:02:765,0.4319,5.0762,6.2001,57.3944,0.593,0.5557,-0.181,0.3382
17:19:02:785,0.3302,4.6504,6.0248,57.0284,0.6441,0.4354,-0.0426,0.3388
17:19:02:805,0.6763,4.1994,5.2962,56.953,0.7506,0.1118,0.083,0.3411
17:19:02:825,1.3635,4.0979,4.0958,56.8815,0.7708,-0.1735,0.1352,0.3463
17:19:02:846,2.0741,4.2435,3.109,57.0672,0.6675,-0.3151,0.1182,0.3528
17:19:02:865,2.6398,4.6129,2.2396,56.9858,0.4429,-0.3439,0.0724,0.3591
17:19:02:885,3.11,5.1709,1.8104,56.7058,0.1054,-0.3332,0.0064,0.3635
17:19:02:905,3.4128,5.748,1.6191,56.8254,-0.3535,-0.2662,-0.0617,0.3652
17:19:02:924,3.5215,6.268,1.9236,56.7066,-0.938,-0.198,-0.1182,0.3629
17:19:02:944,3.339,6.4403,3.0613,56.6929,-1.548,-0.3471,-0.1416,0.3564
17:19:02:966,3.2025,6.4077,4.6786,56.6738,-1.9994,-0.7069,-0.115,0.3459
17:19:02:985,3.4633,6.5029,6.514,56.7194,-2.1825,-1.0849,-0.0703,0.3376
17:19:03:005,3.6907,6.455,7.9369,56.6163,-2.1006,-1.3947,-0.0681,0.3297
17:19:03:025,3.9894,6.8425,8.9117,56.4223,-2.0101,-1.6768,-0.0724,0.3244
17:19:03:047,4.6562,6.6919,10.0792,56.653,-1.8653,-1.7162,-0.0138,0.321
17:19:03:065,5.6634,6.0356,11.3659,56.8784,-1.4032,-1.4202,-0.0511,0.3186
17:19:03:085,6.6109,5.6045,11.7894,56.7276,-0.791,-1.2765,-0.2821,0.318
17:19:03:106,6.8258,5.7285,10.9405,56.9324,-0.4024,-1.2893,-0.5376,0.3209
17:19:03:127,6.397,6.0814,10.6397,56.7463,-0.3247,-1.3968,-0.5866,0.326
17:19:03:146,6.3103,6.0349,10.3196,56.185,-0.1746,-1.5597,-0.4237,0.3324
17:19:03:166,6.8217,5.7577,9.3066,56.3669,-0.0905,-1.729,-0.2992,0.3407
17:19:03:185,7.395,5.019,7.9771,56.3487,-0.2779,-1.9228,-0.2864,0.3501
17:19:03:206,7.4559,4.3556,6.9669,56.5259,-0.8251,-2.1985,-0.3535,0.3597
17:19:03:226,7.0497,3.5541,6.6243,56.1711,-1.4085,-2.4104,-0.379,0.3648
17:19:03:245,6.7381,2.5194,6.506,56.2746,-1.7609,-2.3614,-0.3961,0.3673
17:19:03:266,6.5065,1.4135,6.3162,55.7118,-1.8717,-2.2049,-0.5185,0.3671
17:19:03:286,6.2023,0.5624,5.7191,55.5139,-1.8578,-1.9281,-0.8123,0.3649
17:19:03:305,5.5855,0.1258,5.3382,55.4017,-1.6694,-1.7737,-1.2148,0.3618
17:19:03:325,4.702,-0.0385,4.7537,55.4487,-1.433,-1.5395,-1.5746,0.3597
17:19:03:345,3.9102,0.2353,4.0716,55.3341,-1.219,-1.1669,-1.8887,0.3587
17:19:03:366,3.1637,0.6336,3.9954,55.377,-0.9816,-0.7272,-2.058,0.3582
17:19:03:385,2.8091,1.1448,3.9582,55.0277,-0.7101,-0.4163,-2.108,0.3571
17:19:03:405,2.8258,1.5578,3.6878,54.9584,-0.5345,-0.3045,-2.0963,0.3574
17:19:03:424,3.3159,2.0813,3.7947,54.9735,-0.5973,-0.3481,-2.0484,0.3587
17:19:03:445,3.7499,2.24,4.7236,54.785,-0.857,-0.6462,-2.0963,0.3595
17:19:03:465,2.9702,3.0712,6.1,54.7312,-0.9252,-0.906,-2.058,0.3595
17:19:03:485,2.6279,5.643,7.0106,54.59,-0.6601,-0.6132,-1.4128,0.3589
17:19:03:507,3.3119,6.5096,7.5525,54.0339,-0.6494,-0.3066,-0.4738,0.3569
17:19:03:525,4.9947,6.3649,8.613,54.0089,-1.0902,-0.6111,0.2768,0.3522
17:19:03:544,6.3483,5.6566,10.3194,53.9199,-1.4756,-1.2659,0.5951,0.3442
17:19:03:565,7.0199,5.285,11.4041,53.6557,-1.4501,-1.729,0.6005,0.3346
17:19:03:584,7.0041,5.5112,11.8578,53.263,-1.0551,-1.7844,0.5824,0.3262
17:19:03:605,7.3898,5.729,11.891,53.1433,-0.3748,-1.5448,0.5132,0.3207
17:19:03:624,7.9487,5.9592,11.2481,52.8811,0.2683,-1.1807,0.3311,0.3201
17:19:03:644,8.1711,5.9329,10.7289,52.6627,0.7325,-0.8251,0.1746,0.3241
17:19:03:665,8.0103,4.5754,10.2205,52.2707,1.2148,-0.6548,0.083,0.3318
17:19:03:685,8.2478,3.7898,8.9928,52.2373,1.6406,-0.4248,0.1256,0.3433
17:19:03:707,8.5233,3.4958,7.604,52.1121,1.7897,-0.1714,0.2246,0.3571
17:19:03:724,8.3366,3.418,6.3492,51.827,1.5555,-0.1437,0.3194,0.3711
17:19:03:744,7.9569,3.3753,5.6183,51.7411,1.0859,-0.1182,0.4961,0.3827
17:19:03:765,7.3375,2.8931,5.4603,51.7587,0.6303,-0.0192,0.6729,0.3897
17:19:03:785,6.7389,2.4163,5.3929,51.7619,0.3492,0.1863,0.7538,0.3916
17:19:03:804,6.1101,1.7708,5.3067,51.7836,0.3141,0.4908,0.7037,0.3911
17:19:03:824,5.4357,1.2526,4.9519,51.7328,0.4546,0.7932,0.477,0.39
17:19:03:845,4.7631,1.399,4.331,51.5633,0.6281,1.0774,0.1501,0.39
17:19:03:865,4.0268,1.7118,3.9593,51.3985,0.7708,1.3574,-0.1341,0.3914
17:19:03:885,3.497,2.0904,3.7873,51.248,0.9486,1.5054,-0.263,0.3938
17:19:03:904,3.2671,2.4796,3.6311,50.8613,1.1019,1.4713,-0.2598,0.3975
17:19:03:925,3.2841,3.0667,3.0971,51.0103,1.1126,1.2329,-0.2044,0.4023
17:19:03:944,3.4615,4.0765,2.6097,50.9754,0.8815,0.9241,-0.0468,0.4073
17:19:03:966,3.9751,5.0342,2.4599,50.882,0.5036,0.7293,0.1703,0.4106
17:19:03:986,4.8645,5.6723,3.1397,50.6986,0.1267,0.8113,0.3875,0.4106
17:19:04:006,5.7599,5.6307,4.2435,50.9315,-0.1118,0.922,0.461,0.4067
17:19:04:025,6.5676,5.4484,5.4304,50.8022,-0.231,0.9326,0.3886,0.4015
17:19:04:045,7.1281,5.7159,6.3759,50.4704,-0.197,0.8134,0.2161,0.3955
17:19:04:066,7.6279,6.3442,6.8019,50.3744,-0.1416,0.6069,0.0713,0.3907
17:19:04:086,7.947,7.0083,7.1142,50.1989,-0.2555,0.4099,0.0266,0.3869
17:19:04:105,8.3546,7.0929,8.0906,49.9372,-0.4621,0.0979,-0.0085,0.3834
17:19:04:125,8.9563,6.7197,9.3506,49.5554,-0.4823,-0.3577,-0.2065,0.3796
17:19:04:144,9.4283,6.8199,9.785,49.5119,-0.1874,-0.8262,-0.5813,0.3787
17:19:04:166,9.3993,6.801,9.2101,49.2638,0.1661,-1.0146,-0.9358,0.3833
17:19:04:185,8.9369,6.0487,8.5199,49.1158,0.5313,-0.8879,-1.1328,0.3906
17:19:04:204,8.8511,5.3038,7.7042,49.0074,0.8783,-0.6452,-1.2126,0.4012
17:19:04:225,8.9484,4.8654,6.5182,48.8375,1.0391,-0.5611,-1.2967,0.4137
17:19:04:245,8.8265,4.9273,5.3431,48.8645,0.8517,-0.4003,-1.367,0.4266
17:19:04:282,8.1059,5.1032,4.6524,48.7377,0.4195,-0.1991,-1.3478,0.4367
17:19:04:288,6.8941,5.1096,4.5204,48.6273,-0.0298,-0.0341,-1.2009,0.4424
17:19:04:304,5.7514,4.5791,4.6366,48.4139,-0.3237,0.1938,-0.9454,0.4436
17:19:04:324,4.8438,3.7733,4.786,48.4752,-0.4493,0.363,-0.7027,0.4416
17:19:04:345,3.9677,2.9051,4.6186,48.5198,-0.5046,0.3098,-0.5483,0.438
17:19:04:365,3.1294,2.3559,4.2359,48.473,-0.5515,0.099,-0.4876,0.4339
17:19:04:384,2.6282,2.1008,3.873,48.5292,-0.5685,-0.1544,-0.4897,0.4301
17:19:04:404,2.409,2.2408,3.6087,48.4317,-0.6271,-0.3268,-0.5579,0.4267
17:19:04:424,2.2017,2.7814,3.6899,48.1409,-0.6675,-0.4056,-0.6186,0.4234
17:19:04:445,2.1206,3.6964,3.9357,47.8034,-0.5983,-0.2566,-0.5557,0.42
17:19:04:465,2.3561,4.5849,4.2956,47.6869,-0.4961,0.0958,-0.3897,0.4166
17:19:04:484,2.682,5.3169,4.7913,47.8679,-0.3694,0.4248,-0.2566,0.4128
17:19:04:504,2.872,5.9809,5.2861,47.8348,-0.3205,0.6643,-0.0735,0.409
17:19:04:525,2.8227,6.2213,6.206,47.6338,-0.3258,0.7751,0.1799,0.4045
17:19:04:545,3.1338,6.3971,7.1721,47.3876,-0.2811,0.5749,0.4131,0.3994
17:19:04:566,3.7668,6.2445,7.6898,47.2552,-0.2236,0.2811,0.5323,0.3947
17:19:04:584,4.3479,6.1286,8.0401,46.9602,-0.1927,0.0894,0.544,0.3916
17:19:04:604,4.7906,6.4319,8.0034,47.2181,-0.1746,-0.0277,0.5015,0.3891
17:19:04:624,5.0225,6.872,8.0827,46.9069,-0.2055,0.0256,0.4993,0.3868
17:19:04:646,5.3082,6.6649,8.6041,46.6965,-0.2097,0.0756,0.511,0.3839
17:19:04:666,5.7751,6.4,9.1347,46.5571,-0.0681,0.0617,0.3503,0.3813
17:19:04:685,5.6256,6.323,9.2083,46.4718,0.1789,0.2587,0.1043,0.3801
17:19:04:704,4.916,6.4716,9.1995,46.1992,0.3865,0.4046,0.0319,0.3807
17:19:04:725,4.3376,6.3646,8.99,46.0089,0.5738,0.2662,0.197,0.383
17:19:04:744,4.4804,5.7606,8.1957,45.9205,0.7059,-0.0287,0.4706,0.3874
17:19:04:765,4.9366,5.621,6.9185,45.6161,0.5462,-0.2938,0.6878,0.3929
17:19:04:785,5.3275,5.5087,6.3571,45.6768,0.0064,-0.2555,0.9475,0.3966
17:19:04:805,5.7519,4.5498,7.2306,45.6218,-0.5451,0.0138,1.1754,0.3945
17:19:04:824,5.7585,3.0802,8.187,46.0782,-0.7495,0.2992,1.1903,0.3869
17:19:04:845,5.3224,2.1631,8.5421,46.1119,-0.5951,0.6505,1.0274,0.377
17:19:04:865,4.4994,1.8821,8.0869,46.3436,-0.264,0.8719,0.7357,0.3679
17:19:04:886,3.3783,1.9221,7.3129,46.3478,0.0745,0.8379,0.5174,0.3609
17:19:04:905,2.6205,2.1085,6.0964,46.321,0.3162,0.6771,0.4088,0.3586
17:19:04:927,2.3217,2.2935,5.0543,46.092,0.4674,0.5653,0.3418,0.3586
17:19:04:945,2.2456,2.6307,4.2712,46.0558,0.5281,0.5057,0.3183,0.3601
17:19:04:971,2.438,3.0823,3.6067,46.3683,0.4887,0.4823,0.3354,0.3622
17:19:04:985,2.6454,3.463,3.3659,46.4266,0.3226,0.5185,0.3151,0.3636
17:19:05:005,3.072,4.1031,3.2547,46.6357,0.0916,0.609,0.2789,0.3634
17:19:05:025,3.4117,4.5586,3.7498,46.8776,-0.1672,0.7889,0.2662,0.3608
17:19:05:046,4.0233,5.0535,4.8205,47.1208,-0.346,0.9805,0.3386,0.3546
17:19:05:065,4.9541,5.0087,6.1704,47.1619,-0.4386,1.0678,0.2832,0.3477
17:19:05:084,5.6817,5.0856,7.2717,47.2872,-0.4759,0.9199,0.066,0.3394
17:19:05:106,6.0199,5.951,7.991,47.5206,-0.5515,0.7059,-0.1086,0.3319
17:19:05:125,5.9756,6.7441,8.6102,47.5364,-0.7559,0.4738,-0.1246,0.3246
17:19:05:145,6.1567,6.855,9.7703,47.4737,-1.0157,0.2875,0.0479,0.3162
17:19:05:165,6.6852,5.8661,11.0698,47.1862,-1.0359,-0.1011,0.0309,0.3067
17:19:05:185,7.3965,5.4146,11.6559,47.1188,-0.6761,-0.643,-0.3556,0.2996
17:19:05:205,7.5407,5.6614,11.145,46.9576,-0.1086,-1.0764,-0.8507,0.2989
17:19:05:225,7.2522,5.9597,9.9037,46.8696,0.4163,-1.087,-1.318,0.305
17:19:05:245,6.2699,6.0558,8.7771,46.8009,0.7431,-0.6675,-1.5831,0.3149
17:19:05:265,5.5979,6.2908,7.8862,46.8743,0.9944,0.0043,-1.383,0.3255
17:19:05:285,5.687,5.8571,7.0858,46.8794,0.9337,0.478,-0.9976,0.3349
17:19:05:305,6.0124,5.3064,6.7259,46.7949,0.5472,0.4791,-0.7272,0.3417
17:19:05:325,6.0099,4.5369,6.7323,46.948,0.0884,0.4024,-0.6313,0.3449
17:19:05:346,5.4504,3.9442,7.0414,47.243,-0.2864,0.28,-0.6611,0.3445
17:19:05:367,4.7296,4.1225,7.5064,47.4676,-0.5227,0.083,-0.6516,0.3413
17:19:05:386,4.2343,4.7391,7.4045,47.7805,-0.692,-0.4014,-0.5238,0.3377
17:19:05:405,3.941,5.0474,6.0886,47.5691,-1.0125,-0.9997,-0.4088,0.3338
17:19:05:424,3.7998,4.0946,4.8364,47.7376,-1.5384,-1.3596,-0.4599,0.3284
17:19:05:445,3.7298,2.9295,5.0162,47.8024,-1.878,-1.3287,-0.7293,0.3194
17:19:05:466,3.3444,2.7629,5.8594,47.5937,-1.6353,-0.5494,-0.9401,0.3076
17:19:05:485,2.9558,3.0409,6.5807,47.8867,-0.9859,0.6122,-0.8837,0.2954
17:19:05:508,2.7509,3.2886,6.9804,48.1548,-0.3386,1.2999,-0.7634,0.286
17:19:05:525,2.6384,3.3251,7.6977,47.9392,0.1043,1.531,-0.5898,0.2807
17:19:05:544,2.612,3.0264,8.1665,48.0777,0.4557,1.3287,-0.4365,0.2791
17:19:05:565,2.5462,2.6462,7.8162,48.362,0.5334,0.8698,-0.3481,0.281
17:19:05:585,2.3207,2.3594,7.3076,48.8772,0.3226,0.3886,-0.3119,0.2842
17:19:05:604,2.2095,2.3885,7.3624,49.1382,0.0617,0.0394,-0.2864,0.2863
17:19:05:625,2.1992,2.526,7.9133,49.1618,0.05,-0.1011,-0.3151,0.2871
17:19:05:645,2.1058,2.6153,7.8696,49.1532,0.247,-0.0319,-0.4152,0.2885
17:19:05:665,1.7522,2.907,7.3207,49.41,0.3449,0.0639,-0.5291,0.2915
17:19:05:684,1.7267,3.6408,7.0647,49.3194,0.2193,0.1437,-0.5951,0.2947
17:19:05:704,1.5302,4.3828,7.6082,49.3309,0.0277,0.3109,-0.626,0.2963
17:19:05:724,1.2154,4.6642,8.5943,49.2569,-0.1065,0.5046,-0.4141,0.2957
17:19:05:745,1.4156,4.2912,9.4824,48.9766,-0.2651,0.2438,-0.0926,0.2935
17:19:05:767,2.0817,3.5506,10.0609,48.9088,-0.5164,-0.478,0.1097,0.2902
17:19:05:785,2.8235,2.9348,10.4918,49.0435,-0.626,-1.2595,0.082,0.2874
17:19:05:805,2.9748,3.2935,10.3047,48.9591,-0.6218,-1.6694,0.0277,0.2853
17:19:05:824,2.4013,3.9208,10.008,48.9066,-0.7463,-1.6215,0.3024,0.2835
17:19:05:846,2.2481,3.786,10.0289,49.0361,-1.0295,-1.2393,0.8762,0.2787
17:19:05:866,2.8321,2.3684,10.8017,49.172,-1.2201,-0.9199,1.3063,0.2702
17:19:05:886,3.5795,1.0561,11.338,49.3342,-1.0625,-0.7282,1.3393,0.2589
17:19:05:905,3.7029,0.4448,11.01,49.1425,-0.5824,-0.6026,1.0157,0.2494
17:19:05:925,2.9626,0.7431,9.6636,49.2596,-0.0117,-0.527,0.593,0.245
17:19:05:945,1.8367,1.4457,8.055,49.1341,0.3897,-0.5536,0.3577,0.2461
17:19:05:965,1.2698,2.3254,6.4354,48.5445,0.6345,-0.5195,0.3173,0.2509
17:19:05:985,0.9794,3.0947,5.2379,48.5335,0.6803,-0.3652,0.4376,0.2573
17:19:06:005,1.2431,3.7476,4.5874,48.4627,0.5845,-0.2012,0.625,0.2631
17:19:06:024,1.9706,3.982,4.5975,48.104,0.4802,0.0564,0.7527,0.2669
17:19:06:045,2.627,4.2893,4.7883,47.9199,0.3971,0.4418,0.807,0.2689
17:19:06:067,3.3018,4.7392,5.3274,47.8463,0.2523,0.8964,0.8879,0.2686
17:19:06:085,4.103,4.564,6.4719,47.7054,0.1416,1.2094,0.9007,0.2656
17:19:06:104,4.8512,4.3724,7.7049,47.7151,0.0873,1.3191,0.7687,0.2612
17:19:06:124,5.4603,4.3663,8.6671,47.7694,0.0735,1.1594,0.5568,0.2566
17:19:06:145,5.8594,4.6621,9.1583,47.6962,0.0511,0.7165,0.2491,0.2533
17:19:06:167,6.1565,5.3409,9.511,47.387,-0.0138,0.2108,-0.016,0.2516
17:19:06:184,6.237,6.3325,9.8846,47.6323,-0.0937,-0.1693,-0.1672,0.2516
17:19:06:205,6.3487,6.8863,10.3656,47.4247,-0.116,-0.2438,-0.1033,0.2518
17:19:06:225,6.7593,6.6253,10.6939,47.4131,-0.0628,-0.2044,-0.0692,0.2517
17:19:06:245,7.1053,6.1407,10.6793,47.501,0.0138,-0.132,-0.1352,0.2519
17:19:06:266,7.2783,5.1671,10.5071,47.2182,0.0798,-0.0234,-0.2789,0.2527
17:19:06:306,7.268,4.391,10.2652,47.027,0.2534,0.1384,-0.4929,0.2541
17:19:06:306,7.1063,4.3188,9.7266,46.8258,0.4812,0.3748,-0.6739,0.2569
17:19:06:324,6.5458,4.6553,9.1016,46.6639,0.4674,0.5206,-0.6665,0.2609
17:19:06:344,5.8833,4.5344,8.8199,46.9459,0.1863,0.5749,-0.3929,0.2637
17:19:06:366,5.0993,3.6474,8.7444,46.678,-0.1459,0.4173,-0.0383,0.2634
17:19:06:385,4.2179,2.5245,8.3568,46.3714,-0.3226,0.0298,0.2832,0.2607
17:19:06:405,3.3088,1.3994,7.2636,46.2281,-0.4141,-0.5589,0.4802,0.2577
17:19:06:424,2.6484,0.5776,6.1848,46.2844,-0.4365,-1.1956,0.5121,0.2558
17:19:06:445,2.4207,0.3056,4.9869,46.1765,-0.4227,-1.7045,0.3961,0.2559
17:19:06:465,2.4277,0.1916,3.7679,46.0975,-0.4546,-1.8717,0.1938,0.2576
17:19:06:485,2.521,0.0983,3.0821,46.0877,-0.6207,-1.7024,-0.1267,0.2592
17:19:06:505,2.5918,0.5263,3.1639,45.9887,-0.6111,-1.4916,-0.4344,0.2592
17:19:06:525,2.638,1.3835,2.5429,45.8396,-0.5142,-0.8177,-0.5728,0.2591
17:19:06:545,2.4979,2.4071,2.3562,46.0212,-0.7059,0.2204,-0.4141,0.2564
17:19:06:570,2.3345,2.7403,4.1403,46.3563,-1.0338,1.0508,0.0916,0.2475
17:19:06:585,3.0609,2.023,6.3516,46.5787,-1.2148,1.3617,0.6718,0.2338
17:19:06:604,4.6051,0.5121,8.3033,46.7958,-1.3468,1.0753,0.8187,0.2171
17:19:06:625,5.4669,-0.4568,10.1954,46.822,-1.3308,1.0008,0.6516,0.2003
17:19:06:646,5.5485,-0.1657,12.4774,46.7701,-1.0476,0.9284,0.4195,0.1829
17:19:06:665,5.1908,0.6187,14.3764,46.7626,-0.5749,0.3013,0.2268,0.1725
17:19:06:685,4.9741,1.8583,14.0276,46.5999,-0.1278,-0.5323,0.1043,0.1679
17:19:06:705,4.4862,2.7569,12.8837,46.2484,-0.1884,-1.3702,0.2438,0.1696
17:19:06:726,4.503,2.6816,12.6516,46.2623,-0.4269,-1.7993,0.4961,0.1725
17:19:06:745,4.936,2.5446,12.9465,46.0622,-0.4344,-1.7386,0.675,0.1727
17:19:06:766,5.4695,2.0338,13.35,45.872,-0.0745,-1.5203,0.7697,0.1729
17:19:06:785,5.9406,1.2229,13.1861,45.7652,0.5738,-1.2329,0.7751,0.1747
17:19:06:806,7.0584,0.3309,12.1936,45.4695,1.0785,-0.8166,0.7772,0.1822
17:19:06:825,6.4474,-0.082,10.6762,45.7099,1.0551,-0.5281,0.7729,0.1905
17:19:06:852,6.6094,-0.4223,9.8982,45.8064,0.7005,-0.3982,0.7857,0.1986
17:19:06:865,6.3971,-0.7525,9.7624,45.7483,0.3833,-0.2225,0.7176,0.2033
17:19:06:885,5.9168,-0.7922,9.671,45.5076,0.4461,-0.0117,0.5345,0.2052
17:19:06:905,5.161,-0.7206,8.7915,45.5451,0.8006,0.1203,0.296,0.2077
17:19:06:927,4.2139,-0.5261,7.3617,45.4513,1.2031,0.1363,0.0437,0.2138
17:19:06:946,3.3178,-0.0266,5.8326,45.249,1.5097,0.1224,-0.1299,0.2239
17:19:06:965,2.7956,0.7513,4.4659,45.3053,1.6353,0.1405,-0.1661,0.2373
17:19:06:984,2.5129,1.3728,3.5729,45.1817,1.6108,0.2119,-0.1491,0.2505
17:19:07:006,2.4447,1.7653,3.1983,44.7913,1.5757,0.3247,-0.1203,0.2636
17:19:07:026,2.547,2.2891,3.37,44.6833,1.5597,0.5057,-0.017,0.2757
17:19:07:045,2.9345,2.7853,3.686,44.3585,1.5512,0.6186,0.1735,0.2865
17:19:07:065,3.5431,3.2563,4.1265,44.4853,1.499,0.5749,0.3471,0.2965
17:19:07:085,4.5395,3.8168,4.4996,44.3089,1.399,0.4322,0.4706,0.3059
17:19:07:105,5.5672,4.1499,4.8961,44.2243,1.2265,0.2023,0.4919,0.315
17:19:07:125,6.5669,4.4747,5.2187,44.0346,0.9986,-0.0564,0.4078,0.3235
17:19:07:145,7.2042,5.0422,5.4461,43.9649,0.7272,-0.2736,0.23,0.3313
17:19:07:165,7.7227,5.729,5.8805,44.0626,0.5238,-0.3599,0.0575,0.3381
17:19:07:185,8.3726,6.4966,6.3065,43.8048,0.3992,-0.3056,-0.0767,0.3437
17:19:07:206,9.1691,7.208,7.2183,43.7316,0.3045,-0.2811,-0.1778,0.3482
17:19:07:226,9.7704,7.3091,8.087,43.6228,0.2097,-0.5579,-0.363,0.3525
17:19:07:244,10.2778,7.4645,8.7315,43.5139,0.1895,-1.0221,-0.7314,0.3583
17:19:07:265,10.5175,8.112,8.8823,43.4113,0.2821,-1.1232,-1.0402,0.3665
17:19:07:285,10.5363,7.3926,9.3821,43.4709,0.4525,-0.658,-1.0593,0.3753
17:19:07:305,10.5333,4.5246,10.4865,43.5468,0.543,-0.132,-0.9763,0.3826
17:19:07:324,10.7057,1.7702,11.0603,43.3026,0.7048,-0.4269,-1.2936,0.39
17:19:07:344,11.0787,1.4807,10.4285,43.2073,0.9997,-0.6814,-1.8025,0.4011
17:19:07:366,9.8735,2.28,8.8034,43.3342,1.2126,-0.7996,-2.1655,0.4177
17:19:07:385,8.4442,3.3923,6.7277,43.2927,1.1743,-0.6026,-2.322,0.4329
17:19:07:407,6.762,4.1984,4.9251,42.8902,0.807,-0.3183,-2.2432,0.448
17:19:07:425,5.5138,4.1082,3.7547,42.6216,0.1831,-0.2683,-2.0196,0.4585
17:19:07:445,4.5533,3.2953,3.6015,42.2083,-0.3811,-0.4951,-1.7737,0.4636
17:19:07:466,3.7294,2.4021,3.6041,41.5924,-0.7655,-0.8208,-1.6268,0.4647
17:19:07:485,3.198,1.9109,3.3758,41.4756,-0.9624,-1.1253,-1.5874,0.4632
17:19:07:505,2.7807,1.7575,3.2496,41.5845,-1.0008,-1.3585,-1.6683,0.4609
17:19:07:526,2.4434,2.1045,3.1313,41.3326,-0.9401,-1.416,-1.713,0.4587
17:19:07:545,2.0583,2.6956,3.2894,41.5721,-0.8592,-1.4064,-1.5831,0.4566
17:19:07:566,1.7763,3.2735,3.9367,41.7811,-0.758,-1.5161,-1.3404,0.4549
17:19:07:585,1.8046,3.9438,4.8215,42.1016,-0.5909,-1.8898,-1.0178,0.4537
17:19:07:606,1.8362,4.8183,5.3869,42.5483,-0.3811,-2.4231,-0.5919,0.4548
17:19:07:625,1.9091,5.5985,5.3259,42.8603,-0.1629,-2.783,-0.0884,0.456
17:19:07:644,2.0992,6.5131,4.8511,43.2784,0.0607,-2.7532,0.5664,0.4583
17:19:07:665,2.5286,6.8084,4.1806,43.215,0.2332,-2.4828,1.416,0.4596
17:19:07:686,3.4077,6.1674,3.0528,43.1509,0.3119,-2.1911,2.0175,0.4601
17:19:07:706,2.6819,5.6968,2.0303,43.1714,0.0266,-1.4415,2.3838,0.4565
17:19:07:724,4.5739,7.4538,1.6867,42.9852,-0.3567,0.5643,2.4455,0.4465
17:19:07:744,8.0617,12.1694,5.237,43.0986,-0.2438,1.5799,1.6566,0.4294
17:19:07:765,1.1948,11.1831,5.3481,43.2604,-0.8485,1.3457,1.2435,0.4201
17:19:07:785,0.6226,11.6105,9.0853,43.2981,-1.0082,1.5938,1.8461,0.4055
17:19:07:805,3.5169,9.4082,10.6247,43.3479,-0.6186,1.4426,2.3156,0.3888
17:19:07:824,5.2165,7.7436,11.1535,43.2134,0.1299,1.9526,2.668,0.3727
17:19:07:845,6.8908,4.8676,10.149,43.0876,0.7495,2.8692,2.9661,0.3586
17:19:07:866,7.7925,3.1012,8.8323,42.9221,0.8336,3.36,3.1929,0.3438
17:19:07:885,9.7723,0.1032,8.6219,43.1158,0.2491,3.3281,3.0013,0.3327
17:19:07:904,10.3821,-1.5583,9.8494,43.4906,-0.4919,2.2453,2.108,0.3168
17:19:07:925,8.7017,-1.9076,10.8191,43.9443,-0.3407,2.0526,1.3372,0.3008
17:19:07:945,7.17,-1.6658,10.0705,44.1708,-0.0256,2.1261,1.0497,0.2871
17:19:07:965,6.5149,-1.2387,9.0535,44.1803,0.2619,2.0218,0.8187,0.2763
17:19:07:985,5.7472,-0.8918,7.7638,44.0989,0.4056,1.8812,0.5632,0.2689
17:19:08:005,4.9283,-0.1552,6.3979,43.8835,0.4301,1.7322,0.3449,0.2637
17:19:08:025,4.4416,0.1825,5.4089,43.7115,0.4067,1.2243,0.1437,0.26
17:19:08:045,4.1299,0.4723,4.2246,43.6948,0.4706,1.1147,-0.0373,0.2588
17:19:08:065,3.6268,0.8293,3.8479,43.5503,0.5195,1.6609,-0.0383,0.2574
17:19:08:085,3.4628,0.9465,3.9886,43.6134,0.5589,2.4327,0.0969,0.2535
17:19:08:105,3.8824,1.6581,3.7531,43.8667,0.4567,3.0683,0.2246,0.2459
17:19:08:125,4.2369,2.1789,3.7093,43.887,-0.0628,3.3739,0.1618,0.2343
17:19:08:146,4.4042,3.4105,4.5575,43.7433,-0.9742,3.1599,0.0458,0.217
17:19:08:167,4.5352,3.2876,7.0042,44.0712,-1.8578,2.355,-0.0841,0.19
17:19:08:185,3.2831,3.2886,8.1858,43.7668,-2.1942,2.2411,-0.3311,0.165
17:19:08:205,2.5867,2.7389,9.4761,43.8856,-2.3795,2.1155,-0.4642,0.1351
17:19:08:225,2.1826,3.0408,11.9487,44.0051,-2.0164,1.3255,-0.5707,0.1056
17:19:08:245,1.5091,3.2979,12.9302,43.908,-1.2446,0.626,-0.6388,0.0845
17:19:08:266,0.8365,3.0064,13.3268,44.0038,-0.6164,0.5728,-0.5462,0.0725
17:19:08:284,1.058,3.6037,13.6613,44.1168,0.0383,0.5738,-0.6313,0.0661
17:19:08:320,0.5759,3.6213,13.2296,44.1615,-0.0149,0.7889,-0.7815,0.064
17:19:08:326,-0.4723,3.0976,14.1279,43.8827,-0.3375,1.0306,-0.9678,0.0588
17:19:08:344,-1.9089,1.4754,14.8886,43.5645,-0.4344,0.7548,-0.8794,0.0517
17:19:08:365,-2.1623,-0.1462,14.7017,43.4581,-0.1363,0.0894,-0.5685,0.0454
17:19:08:384,-0.8907,-0.6227,13.5997,42.9696,0.3854,-0.5515,-0.3886,0.0455
17:19:08:406,0.6553,-0.8317,11.6723,43.0819,0.905,-1.0945,-0.4653,0.0542
17:19:08:425,1.7218,-0.2557,9.4907,43.3666,0.9848,-1.1647,-0.79,0.0666
17:19:08:445,1.4379,-0.0209,7.7178,43.6136,0.2715,-0.8858,-0.9241,0.0791
17:19:08:466,0.8675,-0.3158,7.5284,44.1229,-0.5526,-0.2917,-0.8432,0.0829
17:19:08:486,0.4103,-0.9202,7.9045,44.5886,-0.9954,-0.0458,-0.6931,0.0774
17:19:08:505,0.5055,-1.1122,8.1026,44.846,-1.0253,0.0437,-0.6239,0.0691
17:19:08:525,0.386,-1.0771,8.2856,44.745,-0.7091,0.7389,-0.477,0.0597
17:19:08:546,-0.2759,-0.9985,7.9133,44.7932,-0.0415,0.5068,0.0735,0.0517
17:19:08:566,-0.4931,-0.8929,7.6591,45.1873,0.7453,0.3247,0.5281,0.0515
17:19:08:586,-0.3944,-0.5825,6.7512,45.1884,1.2659,0.6292,0.6186,0.0578
17:19:08:605,0.0147,0.0287,6.5686,45.1728,1.2169,0.5653,0.477,0.0668
17:19:08:626,-0.1911,1.1032,7.1909,45.3606,0.9326,0.0021,0.2534,0.0757
17:19:08:645,-0.1308,2.0384,8.3562,45.5783,0.8102,-0.4301,0.0245,0.0841
17:19:08:665,-0.6098,2.5918,8.6846,45.8534,0.7644,-0.7591,-0.0021,0.0936
17:19:08:685,-1.0201,2.3755,8.7684,45.9596,0.609,-0.8826,0.2193,0.1035
17:19:08:706,-0.9204,2.1868,8.8341,45.7743,0.3641,-0.7229,0.5408,0.1119
17:19:08:725,-0.4384,1.774,9.022,45.6482,0.0256,-0.3087,0.7123,0.1169
17:19:08:745,-0.8884,2.1183,9.5862,45.5021,-0.0969,0.3492,0.6686,0.1172
17:19:08:765,-2.6632,3.1222,10.7141,45.7092,0.2183,0.9699,0.7974,0.1145
17:19:08:785,-4.4822,4.1516,11.5051,45.7641,0.6792,1.1307,1.4181,0.1131
17:19:08:805,-4.7639,4.5776,11.5688,46.1006,0.8932,1.2893,2.3305,0.115
17:19:08:825,-3.4106,4.1136,11.6396,46.3843,0.7484,1.35,2.9331,0.1173
17:19:08:846,-1.5341,3.7056,11.5481,46.4769,0.4365,1.0732,2.8586,0.118
17:19:08:866,-0.6681,3.182,11.3446,46.4612,0.0234,0.6367,2.2815,0.1171
17:19:08:885,-0.2529,2.5251,11.28,46.4282,-0.5153,0.1107,1.647,0.1141
17:19:08:905,0.4191,1.8737,11.1617,46.497,-1.0231,-0.379,1.1807,0.1092
17:19:08:925,1.2377,1.5153,11.0926,46.6673,-1.4415,-0.5813,0.8464,0.1026
17:19:08:944,1.4365,0.7016,11.0938,46.7001,-1.8557,-0.3428,0.593,0.0932
17:19:08:965,0.8437,-0.7397,11.1334,46.8686,-2.1942,0.0245,0.4578,0.078
17:19:08:984,0.5361,-2.1335,10.687,46.811,-2.322,0.3205,0.2502,0.06
17:19:09:004,0.4214,-2.7085,10.3332,46.8005,-2.0739,0.3364,-0.1086,0.0394
17:19:09:025,0.2425,-1.8972,9.6047,46.4483,-1.5405,0.1618,-0.3865,0.0218
17:19:09:045,0.1597,-0.9982,8.7813,46.4477,-0.9965,0.0415,-0.4386,0.0099
17:19:09:065,0.4174,-0.6658,8.6157,46.363,-0.5579,0.1491,-0.3982,0.0023
17:19:09:086,0.78,0.1389,9.0705,46.2346,-0.0692,0.1373,-0.4078,-0.0021
17:19:09:106,0.7707,1.4455,9.4721,46.2695,0.3279,0.28,-0.2385,-0.0026
17:19:09:126,-0.0747,1.8435,9.514,46.7135,0.2896,0.6505,0.2278,-0.0019
17:19:09:145,-0.5967,0.944,10.1177,46.8263,0.0554,0.7421,0.6537,-0.0041
17:19:09:165,0.3221,0.2637,10.9732,47.0606,0.0309,0.5632,0.593,-0.0081
17:19:09:185,0.7315,-0.2557,11.4656,46.9303,0.28,0.2332,0.1469,-0.0103
17:19:09:206,0.6438,-0.5092,11.2284,47.1888,0.5398,-0.2183,-0.2694,-0.0077
17:19:09:225,0.9215,-0.3464,10.9305,47.3754,0.626,-0.8006,-0.4631,-0.0015
17:19:09:245,1.4394,0.0626,10.7411,47.3851,0.4919,-1.268,-0.4376,0.0089
17:19:09:266,2.0351,-0.5712,10.2713,47.5589,0.3034,-1.104,-0.1916,0.0198
17:19:09:289,2.2714,-0.9934,10.1,47.4016,0.2204,-0.5515,-0.0703,0.0282
17:19:09:306,2.2824,-1.1059,9.9309,47.4949,0.3918,-0.1405,-0.0309,0.032
17:19:09:326,2.3967,-0.3862,9.6324,47.6144,0.7101,-0.2268,-0.0564,0.0367
17:19:09:346,2.4735,0.0439,8.6195,47.5224,0.7878,-0.231,-0.099,0.0443
17:19:09:366,2.1994,0.1363,8.5363,47.9124,0.626,0.0607,-0.1043,0.0521
17:19:09:386,2.2329,0.879,8.8952,47.9678,0.6143,0.2811,-0.1757,0.0559
17:19:09:406,2.1877,1.7038,8.3603,47.9471,0.5834,0.1373,-0.2736,0.0596
17:19:09:426,2.1565,1.7923,8.1087,47.8387,0.1916,-0.0692,-0.4312,0.0635
17:19:09:446,1.8611,1.1558,8.0576,48.3101,-0.4472,-0.1011,-0.724,0.0644
17:19:09:465,1.1935,0.3473,8.1133,48.2812,-1.0167,-0.1075,-1.0604,0.0601
17:19:09:485,0.5659,-0.5806,8.2821,48.6564,-1.2989,-0.0596,-1.3415,0.0517
17:19:09:505,0.0831,-0.8785,8.4643,48.7895,-1.1977,0.0341,-1.4767,0.0413
17:19:09:525,-0.06,-0.712,8.2549,49.2087,-0.8368,0.0128,-1.548,0.0322
17:19:09:545,-0.2137,-0.5964,7.5753,49.2361,-0.4738,-0.0138,-1.5139,0.0263
17:19:09:566,-0.0919,-0.4318,7.5499,49.3451,-0.1661,-0.0586,-1.3766,0.0235
17:19:09:586,0.3498,0.1508,8.3393,49.718,0.2289,-0.0916,-1.2126,0.0236
17:19:09:606,0.5234,0.5192,8.3489,49.7281,0.6005,-0.1852,-1.0114,0.0274
17:19:09:626,0.6855,0.9558,8.558,49.7786,0.7985,-0.2917,-0.8059,0.0346
17:19:09:645,1.1819,1.6105,9.4993,49.7769,0.8507,-0.3524,-0.6643,0.0435
17:19:09:665,1.3045,1.4834,9.2234,49.8815,0.6665,-0.6324,-0.5483,0.0529
17:19:09:685,1.1913,0.7944,9.1881,49.8134,0.3322,-0.8751,-0.4802,0.0615
17:19:09:704,1.0227,0.4654,9.497,49.8622,0.1767,-0.7538,-0.4599,0.0679
17:19:09:725,0.8834,0.155,9.7129,49.9154,0.2225,-0.5781,-0.4354,0.0728
17:19:09:745,0.8522,0.1817,9.8223,50.0973,0.3865,-0.2896,-0.4205,0.0774
17:19:09:766,0.6878,0.689,9.9315,50.302,0.625,0.0415,-0.4035,0.0826
17:19:09:785,0.4667,1.1925,9.9933,50.5261,0.7836,0.1278,-0.3151,0.0881
17:19:09:805,0.5505,1.3942,10.4074,50.5647,0.7878,0.083,-0.1842,0.0949
17:19:09:826,0.518,1.2872,10.4822,50.7009,0.5845,0.1778,-0.0798,0.1014
17:19:09:846,0.0505,1.0014,10.4273,50.9005,0.2257,0.4567,0.0213,0.1049
17:19:09:866,-0.718,0.7267,10.547,51.2979,-0.0266,0.725,0.1916,0.1041
17:19:09:885,-1.0127,0.5086,10.5196,51.5639,-0.0809,0.8443,0.4748,0.1003
17:19:09:905,-0.7924,0.4323,10.3477,51.5822,-0.1714,0.6303,0.7069,0.0959
17:19:09:925,-0.4981,0.1512,10.2278,51.7561,-0.3982,0.4333,0.8027,0.0913
17:19:09:945,-0.1427,0.1849,10.1252,51.8776,-0.5462,0.3226,0.7154,0.0855
17:19:09:965,0.0565,0.3773,9.9056,51.7586,-0.5483,0.3141,0.5632,0.079
17:19:09:984,-0.0866,0.5869,9.3621,51.8672,-0.4195,0.4205,0.4472,0.0727
17:19:10:006,-0.3486,0.7705,8.8617,51.8641,-0.2257,0.4929,0.4589,0.0673
17:19:10:026,-0.4611,0.7428,8.4369,51.8954,-0.0458,0.5046,0.5451,0.0633
17:19:10:046,-0.4507,0.7138,8.0945,52.3524,0.1842,0.4759,0.643,0.061
17:19:10:066,-0.3492,0.6795,7.565,52.171,0.3971,0.3652,0.643,0.0609
17:19:10:085,-0.5889,0.7794,7.1929,51.943,0.5089,0.1395,0.5632,0.0633
17:19:10:106,-0.5919,0.9453,7.3427,51.8213,0.5621,-0.0905,0.4642,0.0673
17:19:10:126,-0.428,1.217,7.7372,51.9537,0.5621,-0.2555,0.3822,0.0735
17:19:10:146,-0.1332,1.691,7.9874,51.9899,0.5078,-0.1672,0.2917,0.0789
17:19:10:166,-0.0333,2.0219,8.1867,52.1504,0.3737,0.0075,0.1395,0.0841
17:19:10:185,-0.1062,2.2415,8.8483,52.5034,0.2268,0.0798,-0.0341,0.0865
17:19:10:205,-0.0939,2.5548,10.1819,52.449,0.2172,0.2896,-0.1352,0.0877
17:19:10:225,0.2161,3.2029,11.0666,52.5612,0.4908,0.3982,-0.1192,0.0884
17:19:10:246,0.0988,3.5507,10.8302,52.1513,0.8081,0.4099,-0.0383,0.0919
17:19:10:267,-0.0808,3.3355,10.8192,51.9576,0.955,0.3098,0.0767,0.0976
17:19:10:286,-0.4863,2.2637,10.9917,51.6895,0.9827,0.3268,0.2364,0.1039
17:19:10:334,-0.3658,1.7428,11.5712,51.6948,1.0295,0.3875,0.3087,0.1109
17:19:10:336,0.3278,2.2873,11.5084,51.7108,1.1839,0.0341,0.2694,0.1187
17:19:10:352,1.0068,2.2547,10.2433,51.8838,1.1051,-0.4333,0.1246,0.1296
17:19:10:366,1.0973,1.8759,9.2038,52.3597,0.4759,-0.3609,-0.0916,0.14
17:19:10:386,1.2028,2.0913,9.8352,51.9901,-0.3098,0.0149,-0.3045,0.1433
17:19:10:406,0.5757,2.4256,10.5811,52.0408,-0.6952,0.0117,-0.4653,0.139
17:19:10:426,0.0485,2.2272,10.6105,52.2493,-0.8943,-0.1799,-0.3939,0.1324
17:19:10:447,-0.0647,1.7003,10.3712,51.8973,-1.0913,-0.2002,-0.2491,0.125
17:19:10:465,0.2386,1.3311,10.1643,52.1211,-1.1168,-0.1586,-0.2257,0.1161
17:19:10:485,0.3394,0.9651,9.8168,52.3861,-0.9007,-0.1629,-0.3364,0.1074
17:19:10:505,0.4228,0.9258,9.1344,52.3159,-0.5579,-0.2214,-0.5259,0.101
17:19:10:525,0.434,1.2605,8.4032,52.3827,-0.2481,-0.2768,-0.7091,0.0978
17:19:10:546,0.2854,1.5601,7.7168,52.4102,-0.0905,-0.2992,-0.7846,0.0971
17:19:10:566,0.2148,1.815,7.5049,52.4301,-0.0128,-0.2704,-0.7367,0.0977
17:19:10:586,0.4397,2.0921,7.4386,52.1525,0.1001,-0.2513,-0.6324,0.0988
17:19:10:606,0.5768,2.4035,7.1596,52.1902,0.1906,-0.2821,-0.5472,0.101
17:19:10:626,0.5199,2.5807,7.1556,52.3385,0.0692,-0.3194,-0.3907,0.1037
17:19:10:646,0.7122,2.5406,7.8793,52.2028,-0.0979,-0.2502,-0.1278,0.1052
17:19:10:666,0.9836,2.1118,8.7847,52.3397,-0.0788,-0.0437,-0.066,0.1051
17:19:10:685,0.5423,2.0323,9.14,52.6546,0,-0.0287,-0.1203,0.1048
17:19:10:705,-0.3028,1.8105,9.8615,52.643,-0.2183,-0.0852,-0.1097,0.1045
17:19:10:725,-0.303,1.6545,11.8676,52.764,-0.3045,-0.1725,-0.1022,0.1025
17:19:10:745,0.2973,2.237,12.6327,52.8545,0.0937,-0.5547,-0.3332,0.1015
17:19:10:766,0.2158,2.867,11.7039,52.6237,0.379,-0.8326,-0.6952,0.106
17:19:10:786,-0.395,3.368,11.361,52.5608,0.2055,-0.856,-0.8634,0.1127
17:19:10:805,-1.1106,3.6011,11.8134,52.7259,0.0916,-0.9422,-0.7996,0.1178
17:19:10:826,-1.5387,2.9992,11.5761,52.6881,0.1224,-1.1413,-0.6058,0.1228
17:19:10:845,-1.6806,1.9918,10.9433,52.8526,0.05,-1.1732,-0.296,0.1286
17:19:10:866,-1.3742,1.2719,10.6922,52.7456,-0.0032,-1.103,0.0351,0.1334
17:19:10:886,-1.0767,0.7803,10.2589,52.7648,0.0138,-1.186,0.3588,0.1377
17:19:10:906,-0.706,-0.0038,9.281,52.6653,-0.1352,-1.2052,0.6686,0.1421
17:19:10:927,-0.2434,-0.6616,8.9198,52.627,-0.5004,-1.0636,0.8517,0.1442
17:19:10:946,-0.0497,-0.8245,9.0221,52.7474,-0.7602,-1.037,0.9039,0.1425
17:19:10:967,0.2,-0.6167,8.7377,52.7848,-0.8549,-1.1594,0.9018,0.1387
17:19:10:985,0.5162,-0.3953,8.3218,52.7918,-0.8368,-1.12,0.8688,0.1352
17:19:11:005,0.8862,-0.1119,8.0405,52.7676,-0.6548,-0.9954,0.824,0.1315
17:19:11:025,1.2158,0.1524,7.553,52.5406,-0.3162,-0.8208,0.7634,0.1292
17:19:11:046,1.7821,0.6718,7.1606,52.429,0.0341,-0.6218,0.691,0.1291
17:19:11:066,2.5032,1.0971,6.8462,52.5272,0.3077,-0.3769,0.6069,0.131
17:19:11:086,2.8233,1.1891,6.6453,52.457,0.4067,-0.0671,0.5153,0.1342
17:19:11:105,2.7115,1.3341,6.8988,52.435,0.3737,0.2513,0.5206,0.1367
17:19:11:126,2.925,1.6394,7.5853,52.6675,0.346,0.461,0.5951,0.1374
17:19:11:145,3.3199,1.9541,8.0025,52.7274,0.3524,0.4088,0.5888,0.1375
17:19:11:166,3.6769,2.1376,8.1871,52.6832,0.2502,0.2236,0.5408,0.138
17:19:11:186,4.2435,1.989,8.5799,52.59,-0.0021,0.1682,0.4365,0.1382
17:19:11:207,4.7758,1.5998,9.293,52.5124,-0.1991,0.2395,0.1916,0.1365
17:19:11:226,4.8997,1.48,10.0753,52.2436,-0.2321,0.2885,-0.0958,0.1334
17:19:11:246,4.5813,1.6664,10.5181,52.2446,-0.2406,0.2523,-0.2779,0.1304
17:19:11:266,4.1439,1.6692,10.6298,52.2104,-0.4035,0.2055,-0.2183,0.1274
17:19:11:286,4.0319,0.971,10.8932,51.95,-0.7431,0.1288,-0.1373,0.1227
17:19:11:307,4.1367,-0.0768,11.6388,51.627,-1.152,-0.3822,-0.2172,0.1158
17:19:11:325,4.9657,-0.8886,12.2103,51.3655,-1.5746,-1.4745,-0.593,0.1089
17:19:11:345,5.8891,-1.1613,11.9618,51.0132,-1.7152,-2.5296,-1.2424,0.1051
17:19:11:366,6.2288,-0.5196,10.9633,50.8098,-1.5746,-3.1418,-1.7471,0.1071
17:19:11:385,5.8437,0.175,9.3483,50.6322,-1.3851,-2.9533,-1.7705,0.1104
17:19:11:405,5.35,0.5061,8.2695,50.6164,-1.2723,-2.0761,-1.1722,0.1133
17:19:11:425,5.4213,0.2494,7.859,50.476,-1.0934,-0.9742,-0.1821,0.1106
17:19:11:446,6.0172,-0.5139,7.8372,50.4014,-0.8677,-0.1395,0.6686,0.1024
17:19:11:466,6.4332,-1.6992,7.5593,50.493,-0.7154,0.3024,1.0348,0.0916
17:19:11:485,6.2741,-1.771,7.5413,50.5232,-0.643,0.4046,0.9071,0.0807
17:19:11:504,6.0783,-2.8134,7.0408,50.7699,-0.6026,0.198,0.4983,0.0715
17:19:11:526,5.943,-2.5679,7.062,50.6437,-0.363,0.197,-0.2949,0.0653
17:19:11:545,5.0325,-1.9524,6.8218,50.7021,-0.083,-0.0596,-0.8688,0.0638
17:19:11:565,4.2964,-1.4544,6.4433,50.5039,0.1661,-0.2651,-1.169,0.067
17:19:11:585,4.0924,-0.9309,6.3104,50.508,0.3641,-0.3556,-1.2574,0.0734
17:19:11:605,4.1067,-0.3698,6.1403,50.3624,0.4983,-0.3375,-1.2201,0.0817
17:19:11:625,4.2917,0.0431,6.4102,50.1015,0.527,-0.3151,-1.1562,0.0907
17:19:11:646,4.566,0.26,6.8052,50.038,0.4642,-0.4472,-1.0827,0.0998
17:19:11:666,4.8835,0.4795,7.4794,50.0581,0.3205,-0.6281,-0.9475,0.1087
17:19:11:685,5.4159,0.6887,8.4023,50.0997,0.0979,-0.7612,-0.6888,0.1162
17:19:11:706,6.0816,0.7106,9.5472,50.0448,0.0266,-0.8304,-0.4056,0.1213
17:19:11:725,6.8879,0.4986,10.4922,50.0708,0.1118,-0.7751,-0.1672,0.1251
17:19:11:745,7.421,0.4172,11.3257,49.9255,0.2885,-0.6835,-0.0447,0.1287
17:19:11:765,7.6649,0.3495,11.8739,49.7468,0.4738,-0.7133,0.0586,0.1337
17:19:11:785,7.8216,0.2918,11.9797,49.4682,0.7112,-0.774,0.1341,0.1397
17:19:11:805,7.7086,0.6609,11.6526,49.212,1.103,-0.6484,0.0873,0.1479
17:19:11:826,6.996,1.4101,10.8472,49.0766,1.4756,-0.4429,0.0564,0.1591
17:19:11:846,6.6831,1.7428,9.516,48.7747,1.6896,-0.0852,0.1246,0.1735
17:19:11:866,6.6648,1.3918,8.2121,48.8535,1.6321,0.3279,0.1469,0.186
17:19:11:885,6.6028,1.1348,7.317,49.0698,1.3021,0.5185,0.1618,0.1977
17:19:11:905,6.486,0.9181,7.1088,49.1796,0.6835,0.4461,0.2917,0.2062
17:19:11:926,6.4606,0.4837,7.4446,49.7365,0.0628,0.2747,0.5494,0.2092
17:19:11:945,6.6523,-0.0092,7.5933,50.0033,-0.2491,0.2353,0.7165,0.2074
17:19:11:967,6.6469,-0.4347,7.1478,50.262,-0.2992,0.4365,0.625,0.202
17:19:11:984,5.9338,-0.7398,7.1501,50.4243,-0.1139,0.7453,0.4173,0.1957
17:19:12:006,4.9945,-0.8528,7.1109,50.4135,0.2928,0.9561,0.2257,0.1902
17:19:12:024,4.2702,-0.6287,6.8471,50.2053,0.7176,0.9699,0.0703,0.1892
17:19:12:045,3.7405,0.0007,6.602,49.9704,0.9763,0.6995,-0.0703,0.1921
17:19:12:066,3.5246,0.8082,6.3925,49.7627,0.9571,0.1054,-0.1256,0.1991
17:19:12:085,3.8831,1.2486,6.324,49.671,0.7846,-0.5249,-0.0873,0.2083
17:19:12:106,4.38,1.6563,6.1787,49.5783,0.7357,-0.7335,-0.2151,0.218
17:19:12:126,4.4179,2.3936,5.9881,49.534,0.7985,-0.6218,-0.3843,0.2279
17:19:12:146,4.3056,3.06,5.8624,49.3569,0.724,-0.4376,-0.3279,0.2377
17:19:12:166,4.6163,3.1876,6.1574,49.7099,0.5547,-0.3492,-0.1107,0.2461
17:19:12:186,5.4622,3.2956,6.684,49.7588,0.4716,-0.3449,-0.0745,0.252
17:19:12:206,6.3761,3.7064,7.0656,49.8405,0.4141,-0.2513,-0.2726,0.2575
17:19:12:226,6.8172,4.6056,7.3731,49.8017,0.2353,-0.1959,-0.4557,0.2625
17:19:12:245,7.0459,5.1949,7.7213,49.9214,-0.116,-0.1906,-0.3982,0.2662
17:19:12:265,7.2227,4.7771,8.5665,49.7995,-0.4472,-0.1373,-0.1522,0.2665
17:19:12:285,7.5898,3.887,9.8912,49.6729,-0.3726,0.0224,0.0234,0.2633
17:19:12:305,7.9268,3.2041,10.423,49.4298,0.0937,0.1597,0.05,0.26
17:19:12:340,7.8844,2.5943,9.9236,49.5516,0.4397,0.1022,0.0692,0.2603
17:19:12:349,7.8995,1.4354,9.0262,49.679,0.4322,-0.263,0.1693,0.2635
17:19:12:366,8.2673,0.2845,8.2748,49.7766,0.3705,-0.593,0.0894,0.2683
17:19:12:384,8.5846,0.2155,7.5687,50.1277,0.4269,-0.7644,-0.1874,0.2741
17:19:12:404,8.6348,0.7935,6.6657,50.0366,0.4269,-0.7889,-0.4695,0.2814
17:19:12:425,8.1759,1.257,5.7426,49.8251,0.1863,-0.6633,-0.6228,0.289
17:19:12:445,7.4072,1.397,5.233,49.7866,-0.1884,-0.4397,-0.5919,0.2941
17:19:12:466,6.5885,1.1532,4.9746,49.8298,-0.4876,-0.1608,-0.4802,0.295
17:19:12:485,5.7958,0.9891,4.8794,49.9053,-0.5717,0.1501,-0.4557,0.2922
17:19:12:504,5.0085,0.9551,4.6815,49.8603,-0.4961,0.3929,-0.5419,0.2878
17:19:12:525,4.2981,1.1207,4.4383,49.9975,-0.4056,0.4951,-0.6888,0.2837
17:19:12:545,3.8617,1.5938,4.3031,50.4531,-0.3662,0.4173,-0.8336,0.2807
17:19:12:565,3.5687,2.1373,4.2916,50.162,-0.3652,0.2342,-0.9326,0.2789
17:19:12:585,3.4622,2.5862,4.4147,50.0795,-0.4056,0.0564,-0.9412,0.2781
17:19:12:606,3.609,2.9313,4.6817,50.2011,-0.4621,-0.0277,-0.8656,0.2771
17:19:12:625,3.8143,3.3978,5.2577,50.1507,-0.5068,0.0543,-0.7484,0.2754
17:19:12:646,4.1009,3.7263,6.0902,50.4404,-0.5387,0.1927,-0.5738,0.2722
17:19:12:666,4.2593,3.7821,7.2531,50.6027,-0.5153,0.3024,-0.2896,0.2683
17:19:12:685,4.8378,4.0479,8.7223,50.4654,-0.3673,0.4227,0.0607,0.2633
17:19:12:705,5.6107,4.356,9.9062,50.3566,-0.3205,0.4546,0.4503,0.2583
17:19:12:726,6.4347,3.9185,10.7795,50.3631,-0.5068,0.2438,0.8081,0.2519
17:19:12:745,7.0494,3.0985,11.564,50.1554,-0.5994,0.017,0.8656,0.2455
17:19:12:765,7.2016,2.5271,12.0495,50.2862,-0.3524,-0.1586,0.6846,0.2385
17:19:12:785,6.9959,2.1629,11.693,50.5301,0.0064,-0.3662,0.5376,0.2349
17:19:12:808,6.9421,1.6808,10.7,50.484,0.2374,-0.5281,0.4834,0.2353
17:19:12:825,7.0446,1.2948,9.7417,50.6192,0.4344,-0.4951,0.3748,0.2376
17:19:12:845,7.1208,1.2627,8.6596,50.9636,0.5536,-0.2917,0.2332,0.2418
17:19:12:865,6.9152,1.6909,7.8853,50.8193,0.3769,-0.0437,0.2374,0.2462
17:19:12:885,6.5917,1.5726,7.4604,51.1715,-0.1437,0.0756,0.4397,0.248
17:19:12:905,6.2607,0.6674,7.6435,51.1921,-0.6218,0.1224,0.6452,0.2445
17:19:12:926,6.0927,-0.1792,7.7785,50.928,-0.7399,0.2555,0.6473,0.2365
17:19:12:946,5.7499,-0.4198,7.5366,50.961,-0.5536,0.5195,0.4578,0.2273
17:19:12:965,5.1242,-0.0808,6.9885,50.959,-0.2481,0.8059,0.2023,0.2189
17:19:12:985,4.3188,0.3226,6.3318,51.1723,-0.0138,0.9646,0.0245,0.2138
17:19:13:005,3.5373,0.5666,6.0383,51.0742,0.1884,1.0029,-0.016,0.2104
17:19:13:025,3.3512,0.9798,6.0095,50.9806,0.4322,0.9081,-0.0564,0.2091
17:19:13:045,3.3377,1.6099,5.825,50.839,0.6622,0.7761,-0.1948,0.2107
17:19:13:066,3.3109,2.2178,5.8475,50.5586,0.7655,0.7037,-0.3237,0.2148
17:19:13:086,3.2031,2.8509,6.1192,50.8122,0.8017,0.6345,-0.3918,0.2202
17:19:13:106,3.1327,3.3932,6.7498,50.9532,0.7293,0.4525,-0.2885,0.2262
17:19:13:125,3.6201,3.4403,7.4383,50.9536,0.4865,0.1011,-0.0202,0.2318
17:19:13:146,4.4376,3.1008,8.1141,51.2997,0.3247,-0.0586,0.0809,0.2359
17:19:13:166,5.1677,3.3119,8.5474,51.2336,0.3865,0.1001,-0.1022,0.2388
17:19:13:185,5.279,4.0372,8.8418,51.2894,0.4535,0.3705,-0.3279,0.2419
17:19:13:206,5.1362,5.0298,9.5163,51.5002,0.4642,0.5068,-0.4014,0.2452
17:19:13:225,5.0879,5.4483,10.2444,51.3632,0.3418,0.4919,-0.3205,0.2481
17:19:13:246,5.4527,5.1467,10.5644,51.2076,0.1107,0.4812,-0.1746,0.2498
17:19:13:266,6.0008,4.3414,11.0111,51.3217,0.0351,0.6675,-0.1672,0.2491
17:19:13:286,6.2117,3.9406,11.5685,51.0607,0.3439,0.8879,-0.3737,0.2475
17:19:13:307,5.8971,3.5803,11.0629,50.8855,0.6622,0.6654,-0.5408,0.2491
17:19:13:327,5.6519,2.7388,9.9704,50.6989,0.5579,0.3215,-0.5547,0.2542
17:19:13:345,5.7662,2.037,9.4813,50.5466,0.3673,0.1448,-0.5515,0.259
17:19:13:366,6.0094,1.9607,9.1203,51.0063,0.3833,0.0011,-0.6228,0.2632
17:19:13:385,6.0565,2.3969,8.412,50.8796,0.3311,-0.099,-0.7027,0.2676
17:19:13:404,5.6824,2.6792,7.8124,50.8599,0.0075,-0.1043,-0.6963,0.2715
17:19:13:426,4.846,2.4309,7.3726,50.9478,-0.3535,-0.0245,-0.5802,0.2722
17:19:13:445,4.023,1.6389,6.9421,50.8898,-0.5419,0.0788,-0.3705,0.2694
17:19:13:465,3.4296,0.923,6.439,50.7825,-0.4706,0.2012,-0.2608,0.2646
17:19:13:486,2.9539,0.6601,5.8224,50.8123,-0.2321,0.296,-0.3258,0.2603
17:19:13:505,2.5427,0.8123,5.1051,50.6055,0.0415,0.3662,-0.56,0.2582
17:19:13:526,2.0393,1.4453,4.456,50.312,0.181,0.3811,-0.8017,0.2587
17:19:13:545,1.4222,2.4142,4.4212,49.9438,0.181,0.3481,-0.9071,0.2604
17:19:13:565,1.0354,3.3926,4.7101,49.8762,0.1182,0.1916,-0.8389,0.2623
17:19:13:585,1.1304,4.3463,5.2565,50.2389,-0.0351,0.0224,-0.675,0.2639
17:19:13:606,1.3881,5.0166,5.7705,50.4184,-0.2747,-0.016,-0.5195,0.264
17:19:13:625,1.6025,5.5102,6.6994,50.4599,-0.4897,0.1416,-0.3481,0.2616
17:19:13:646,1.6151,6.0149,7.8129,50.5632,-0.6856,0.2044,-0.0287,0.2565
17:19:13:666,1.3232,6.5125,8.8849,50.6073,-0.8954,0.2044,0.5057,0.249
17:19:13:687,1.5397,5.4892,10.0169,50.4061,-0.9465,0.3662,1.2116,0.2378
17:19:13:707,2.315,3.9509,10.9198,50.2632,-0.7538,0.6218,1.6215,0.2272
17:19:13:725,3.1646,3.244,11.5124,50.0769,-0.363,0.7932,1.465,0.2167
17:19:13:746,3.4084,3.5476,11.5549,50.0362,-0.1522,0.6675,1.0189,0.21
17:19:13:767,3.1421,3.7138,11.7799,49.8603,-0.2236,0.6462,0.7016,0.2049
17:19:13:786,2.9256,3.337,12.4062,49.8404,-0.0703,0.6814,0.6111,0.2007
17:19:13:805,2.7027,2.7699,11.8588,49.6275,0.3045,0.7506,0.6228,0.1978
17:19:13:825,2.6307,1.946,10.7599,49.5768,0.4716,0.8113,0.6526,0.1977
17:19:13:845,2.6573,1.4559,9.8587,49.5149,0.5909,0.7793,0.5345,0.1988
17:19:13:865,2.6796,1.704,9.1249,49.4833,0.5227,0.5387,0.3364,0.2014
17:19:13:885,2.4809,2.2937,8.8665,49.2239,0.0234,0.2172,0.181,0.2037
17:19:13:905,2.2805,1.9223,9.2227,49.4917,-0.8187,-0.164,0.197,0.2018
17:19:13:925,1.9112,0.396,9.9084,49.3746,-1.5203,-0.3684,0.3354,0.1936
17:19:13:945,2.041,-0.5355,10.2318,49.5172,-1.597,-0.4088,0.3822,0.1804
17:19:13:966,2.1748,-0.6,9.4102,49.5016,-1.2286,-0.4046,0.2555,0.1677
17:19:13:985,1.951,0.0396,8.0152,49.5433,-0.8485,-0.2938,0.0809,0.1585
17:19:14:005,1.5388,0.9296,6.852,49.4218,-0.6132,-0.1831,0.0181,0.152
17:19:14:024,1.1612,1.3979,6.1976,49.1713,-0.4578,-0.0575,0.1054,0.1471
17:19:14:044,1.0333,1.5909,6.1783,48.9853,-0.2353,0.2097,0.247,0.1429
17:19:14:067,1.0943,2.0813,6.423,48.8805,0.0948,0.51,0.3471,0.1397
17:19:14:085,0.9745,2.589,6.6967,48.8384,0.3418,0.7804,0.4535,0.1383
17:19:14:105,0.9371,2.9493,7.3875,48.6878,0.4865,0.9358,0.6058,0.1379
17:19:14:125,1.0925,2.9199,8.1218,48.3711,0.5004,0.9582,0.7527,0.1381
17:19:14:145,1.5302,2.7646,9.2236,48.1765,0.3982,0.9018,0.7878,0.1381
17:19:14:166,2.1272,2.2225,10.2155,48.1626,0.197,0.5387,0.6548,0.1373
17:19:14:184,2.5091,1.8987,11.1102,48.4073,0.1714,0.1139,0.2651,0.1371
17:19:14:204,2.6209,2.1882,11.691,48.2962,0.3396,-0.2598,-0.2374,0.139
17:19:14:224,2.4887,3.0805,11.9164,48.5459,0.4695,-0.4887,-0.5824,0.1442
17:19:14:245,2.309,3.7071,12.0604,48.652,0.3897,-0.6186,-0.6665,0.1511
17:19:14:265,2.4124,3.852,12.4895,48.5599,0.2236,-0.6345,-0.5866,0.1572
17:19:14:285,2.5679,3.7976,12.9193,48.5281,0.3268,-0.5078,-0.4876,0.1621
17:19:14:305,2.7684,4.0383,12.7336,49.0776,0.7016,-0.2055,-0.4503,0.1678
17:19:14:343,2.645,3.8156,11.8761,49.099,0.7974,0.0745,-0.3396,0.1752
17:19:14:344,2.3946,2.5115,11.1265,49.0377,0.593,0.0703,-0.0287,0.1818
17:19:14:365,2.9632,1.2762,10.6605,48.9581,0.5738,-0.1043,0.1884,0.1868
17:19:14:385,3.7792,1.1575,9.7444,48.8998,0.7516,-0.3279,0.0564,0.1928
17:19:14:406,4.043,1.7502,8.548,48.276,0.6686,-0.5227,-0.2172,0.202
17:19:14:425,3.7801,2.3162,7.6287,47.9405,0.2342,-0.6643,-0.3673,0.2089
17:19:14:445,3.2256,2.2577,7.0606,47.5216,-0.3162,-0.7144,-0.2917,0.2129
17:19:14:466,2.6301,1.5155,6.8001,47.5735,-0.7037,-0.6782,-0.0256,0.2119
17:19:14:485,2.3623,0.691,6.5642,47.3369,-0.7793,-0.5345,0.2268,0.2076
17:19:14:505,2.4291,0.3779,6.2146,47.3595,-0.5504,-0.2917,0.263,0.2024
17:19:14:525,2.336,0.6608,5.5848,47.4846,-0.2225,-0.0373,0.0788,0.1985
17:19:14:545,2.2245,1.1785,5.2788,47.2551,-0.0522,0.0979,-0.1629,0.1967
17:19:14:566,2.0555,1.5697,5.2675,47.512,-0.0245,0.0735,-0.3641,0.1962
17:19:14:586,1.943,2.0351,5.4794,47.6631,-0.0117,-0.0287,-0.5227,0.1964
17:19:14:605,1.9184,2.5248,5.9885,47.4359,-0.0298,-0.1118,-0.6154,0.1971
17:19:14:625,1.8715,2.8125,6.7749,47.2137,-0.0979,-0.1331,-0.6186,0.1979
17:19:14:645,1.837,2.9798,7.7522,47.0428,-0.1352,-0.1097,-0.4525,0.198
17:19:14:675,2.0879,3.0737,8.4856,46.9051,-0.1906,-0.1033,-0.2161,0.1974
17:19:14:685,2.4769,3.0956,9.2001,46.9072,-0.3205,-0.1107,-0.0287,0.1959
17:19:14:704,2.8622,2.9202,9.8782,46.9927,-0.4535,-0.1065,0.0873,0.193
17:19:14:725,3.0173,2.6604,10.5878,47.1072,-0.5249,-0.0458,0.148,0.1888
17:19:14:744,2.78,2.4738,11.4982,46.948,-0.4599,0.0798,0.2236,0.1838
17:19:14:766,2.7373,2.6025,12.1943,46.9515,-0.2246,0.0852,0.329,0.1793
17:19:14:784,2.8279,2.6703,12.147,46.8596,-0.0362,-0.0479,0.4237,0.177
17:19:14:804,3.0893,2.9153,12.0645,46.5971,-0.05,-0.2151,0.4589,0.1764
17:19:14:824,3.0347,2.916,11.9641,46.473,-0.1874,-0.4088,0.4919,0.1762
17:19:14:848,2.8593,2.3864,11.96,46.2524,-0.346,-0.5941,0.6186,0.1751
17:19:14:865,3.2222,1.8688,11.7586,46.1354,-0.3183,-0.6569,0.7229,0.1732
17:19:14:885,3.6045,1.739,11.354,45.9163,-0.2246,-0.5643,0.7218,0.1717
17:19:14:906,3.8421,1.5517,10.8861,45.9053,-0.378,-0.4865,0.7431,0.1703
17:19:14:925,3.9442,0.8157,10.7532,45.5677,-0.6963,-0.4791,0.7772,0.1668
17:19:14:944,4.0188,0.0206,10.6958,45.3839,-0.7421,-0.4237,0.7463,0.1609
17:19:14:965,4.0576,-0.4257,10.046,45.1091,-0.4493,-0.2332,0.5856,0.1548
17:19:14:984,3.8494,-0.4825,8.8772,44.9327,-0.0224,0.1107,0.3758,0.1509
17:19:15:005,3.3264,-0.1489,7.7028,44.868,0.3811,0.5472,0.231,0.1496
17:19:15:025,2.5778,0.0956,6.675,44.7014,0.7367,0.9699,0.2087,0.1502
17:19:15:045,2.0989,0.4357,5.8938,44.6127,1.0551,1.2648,0.2651,0.1525
17:19:15:066,1.9488,1.0013,5.3295,44.7022,1.2648,1.3723,0.2992,0.1566
17:19:15:086,1.9874,1.7731,5.0016,44.5696,1.3127,1.3436,0.2427,0.1621
17:19:15:105,1.788,2.5471,5.005,44.6267,1.2084,1.2797,0.1416,0.168
17:19:15:125,1.6671,3.2558,5.5017,44.8908,0.9497,1.0859,0.082,0.1732
17:19:15:145,1.7339,4.0367,6.2315,44.8234,0.5227,0.7602,0.115,0.1768
17:19:15:166,1.9818,4.0428,7.3812,44.6439,-0.0319,0.3833,0.2502,0.1776
17:19:15:186,2.3957,3.5993,8.6375,44.3646,-0.4344,0.0873,0.3673,0.175
17:19:15:207,2.9075,3.2901,9.5179,44.1107,-0.511,-0.0479,0.3077,0.1705
17:19:15:225,3.1966,3.5681,9.9904,44.0797,-0.4205,-0.0043,0.116,0.1662
17:19:15:246,2.9368,3.8546,10.6815,44.0762,-0.5153,0.1895,0.0373,0.1623
17:19:15:266,2.5263,3.6285,11.8029,43.8852,-0.8613,0.477,0.2438,0.156
17:19:15:286,2.0147,2.3376,13.405,43.8383,-1.0955,0.8592,0.5557,0.145
17:19:15:306,1.9173,0.9988,14.9592,43.7355,-0.7921,1.137,0.7996,0.1307
17:19:15:325,2.1698,0.0846,15.3233,43.4801,-0.0309,0.9731,0.8741,0.1192
17:19:15:345,2.4003,-0.1456,14.1545,43.4622,0.8049,0.6367,0.7804,0.116
17:19:15:366,2.7254,0.65,12.2261,43.5403,1.3393,0.3396,0.5664,0.122
17:19:15:385,3.4696,1.8932,10.417,43.7741,1.2989,0.1363,0.3748,0.1315
17:19:15:405,2.9558,2.3749,9.0778,43.5053,0.7634,0.28,0.3002,0.1411
17:19:15:425,2.0825,2.1521,8.7916,43.3286,0.1629,0.8262,0.3737,0.1443
17:19:15:446,1.0211,1.6651,8.7233,42.7161,-0.1938,1.1189,0.5728,0.1396
17:19:15:466,0.1007,0.7094,8.8356,42.0163,-0.313,1.1882,0.8294,0.1326
17:19:15:488,0.1271,0.2859,8.8682,41.5032,-0.1927,1.1615,1.0647,0.1239
17:19:15:504,0.179,0.1999,8.2262,41.2598,0.1129,0.7304,1.185,0.1172
17:19:15:525,0.6586,0.0785,7.1011,41.2558,0.4844,0.2236,1.0327,0.1158
17:19:15:546,1.2574,0.2665,6.2175,41.2605,0.823,-0.2172,0.5419,0.12
17:19:15:565,1.8636,0.8688,5.956,41.4571,1.0423,-0.6984,-0.0873,0.1292
17:19:15:585,2.1024,1.6278,5.9187,41.2973,1.1094,-1.1839,-0.5792,0.1425
17:19:15:605,1.6345,1.939,6.0027,41.224,1.0274,-1.3968,-0.8006,0.1583
17:19:15:625,1.3407,2.1352,6.6738,41.1108,0.988,-1.2212,-0.8421,0.1739
17:19:15:645,1.6326,2.5672,6.6161,40.8675,0.494,-0.7548,-0.4014,0.1876
17:19:15:666,1.9356,2.4103,6.8826,40.6875,-0.1682,-0.2374,0.0202,0.1931
17:19:15:687,2.7479,2.5175,7.4834,40.43,-0.2608,-0.4301,-0.131,0.1926
17:19:15:705,2.8541,2.5693,7.4448,40.3982,-0.5589,-0.5291,-0.2821,0.1924
17:19:15:725,2.9007,2.8539,8.1002,40.4402,-0.8964,-0.3673,-0.3215,0.1896
17:19:15:745,2.3652,3.2977,9.4906,40.1336,-1.0135,-0.0979,-0.2885,0.1832
17:19:15:766,1.8156,3.3226,10.3814,40.1552,-0.972,0.1554,-0.1331,0.1745
17:19:15:785,1.3712,3.0609,11.0909,40.3228,-0.9433,0.4599,0.0277,0.1655
17:19:15:806,0.8049,2.434,11.721,39.8315,-0.9092,0.5387,0.1693,0.155
17:19:15:825,0.7661,1.6397,12.5863,39.8028,-0.8666,0.3045,0.2885,0.1447
17:19:15:846,1.1771,1.2108,12.7144,39.5895,-0.725,-0.3322,0.1693,0.1366
17:19:15:866,1.4959,0.7145,12.1972,39.1985,-0.6037,-0.8996,-0.0511,0.1331
17:19:15:888,1.9434,1.2962,11.768,39.1131,-0.4621,-0.8326,-0.3066,0.133
17:19:15:905,1.3886,1.4556,11.476,39.1935,-0.5387,-0.3854,-0.2598,0.1328
17:19:15:925,0.7583,1.1377,11.7032,38.9884,-0.6867,0.016,-0.0149,0.1292
17:19:15:944,0.6454,0.5977,12.0222,38.8701,-0.6154,0.2087,0.2204,0.1227
17:19:15:965,0.7071,0.3128,11.565,38.7402,-0.3205,0.2427,0.2683,0.1165
17:19:15:985,0.6097,0.2534,10.6506,38.7667,0.0181,0.1799,0.2545,0.1129
17:19:16:005,0.725,0.5781,9.2266,38.6544,0.2917,-0.0916,0.1437,0.1129
17:19:16:024,0.4189,0.9935,7.5039,38.4316,0.5355,-0.1661,0.0735,0.1163
17:19:16:044,0.6617,1.5699,6.4077,38.0391,0.675,-0.23,0.0862,0.1222
17:19:16:066,0.8172,2.1428,5.7583,37.6909,0.758,-0.0554,0.1384,0.1289
17:19:16:085,1.0722,2.6161,5.4671,37.4943,0.8208,0.1033,0.2523,0.1354
17:19:16:104,1.5044,3.0775,5.5485,37.4194,0.8059,0.2012,0.3418,0.1415
17:19:16:124,1.8269,3.3599,5.802,37.3374,0.6473,0.2853,0.4046,0.1467
17:19:16:146,2.1748,3.3781,6.2897,37.2627,0.2832,0.3205,0.4503,0.1498
17:19:16:167,2.5672,2.884,7.3526,37.4593,-0.1065,0.2555,0.4099,0.1494
17:19:16:184,2.9569,2.6679,9.1336,37.5892,-0.2161,0.0064,0.1938,0.1472
17:19:16:204,3.151,2.8068,10.1256,37.6527,-0.115,-0.0979,-0.0245,0.1457
17:19:16:224,3.1025,3.0826,10.4073,37.3615,-0.0202,-0.1086,-0.1054,0.1456
17:19:16:246,3.2546,3.1998,10.7275,37.0837,-0.0639,-0.0905,-0.1437,0.146
17:19:16:266,3.4637,3.1851,11.2861,36.9664,-0.2076,-0.1544,-0.2289,0.1458
17:19:16:285,3.7394,3.2408,11.834,36.7216,-0.4418,-0.3652,-0.362,0.145
17:19:16:305,3.5311,2.8535,12.3338,36.619,-0.7016,-0.3854,-0.3322,0.1431
17:19:16:328,3.2469,1.4924,13.3256,36.3836,-0.8187,-0.1001,-0.1043,0.1381
17:19:16:356,3.2594,0.0546,13.9797,36.401,-0.4961,0.0884,0.0277,0.1322
17:19:16:365,3.6041,-0.3155,13.5402,36.4634,0.1554,-0.0213,-0.115,0.1287
17:19:16:384,3.697,0.1298,11.8315,36.2712,0.5078,-0.0437,-0.3684,0.1313
17:19:16:405,3.2994,0.6599,10.1809,36.4523,0.2608,-0.0064,-0.4897,0.1358
17:19:16:425,2.4895,0.608,8.9413,36.5679,-0.2459,-0.066,-0.5153,0.1376
17:19:16:445,1.7591,0.0182,8.5727,36.4713,-0.6356,-0.1022,-0.3758,0.1354
17:19:16:465,1.4477,-0.5782,8.2944,36.213,-0.6409,-0.165,-0.2747,0.1306
17:19:16:485,1.5541,-0.6457,7.563,36.2971,-0.3268,-0.362,-0.3641,0.1268
17:19:16:505,1.6723,-0.2884,6.3957,35.8102,0.066,-0.5717,-0.6207,0.1272
17:19:16:525,1.8168,0.4941,5.2117,35.5815,0.2789,-0.5408,-0.8773,0.1317
17:19:16:546,1.8682,1.4615,4.5411,35.6673,0.3109,-0.3684,-1.0285,0.1375
17:19:16:566,1.9465,2.3901,4.6145,35.5588,0.1544,-0.1948,-1.0199,0.1429
17:19:16:584,1.7595,2.8409,5.232,35.4984,-0.1065,0.1043,-0.8219,0.1448
17:19:16:605,1.6031,2.6782,6.4584,35.5451,-0.3215,0.4397,-0.4908,0.1431
17:19:16:625,1.847,2.3382,7.9516,35.4122,-0.3002,0.6122,-0.198,0.1382
17:19:16:645,2.0283,1.9983,9.1447,35.2184,-0.1629,0.7176,-0.0362,0.1331
17:19:16:665,2.1214,1.6079,9.906,35.3074,-0.0713,0.6803,0.0586,0.1286
17:19:16:684,2.1548,1.4235,10.51,35.479,-0.0085,0.4951,0.0181,0.1253
17:19:16:705,2.1316,1.5197,10.6799,35.608,0.0692,0.1884,-0.1373,0.1236
17:19:16:725,1.9205,1.8647,10.6201,35.545,-0.0106,0.0617,-0.2449,0.1238
17:19:16:750,1.5957,1.9507,10.7803,35.5689,-0.2491,0.1459,-0.1405,0.123
17:19:16:765,1.3108,1.7223,11.5551,35.403,-0.4216,0.1278,0.0011,0.1197
17:19:16:784,1.0237,1.3623,12.1162,35.7396,-0.4472,0.1469,0.1597,0.1153
17:19:16:805,0.8101,1.1106,12.5063,35.7639,-0.3875,0.2023,0.3109,0.1105
17:19:16:825,0.3352,0.8043,12.4174,35.818,-0.3205,0.2108,0.4291,0.1059
17:19:16:847,0.2058,0.3467,12.4061,35.8963,-0.346,0.0511,0.56,0.1019
17:19:16:865,0.5915,0.2493,12.165,35.7375,-0.3758,-0.1022,0.5664,0.0983
17:19:16:884,0.59,0.1166,11.5539,35.8478,-0.5387,-0.2417,0.5195,0.0951
17:19:16:907,0.6376,-0.1799,11.141,35.7531,-0.8762,-0.2172,0.4972,0.0903
17:19:16:926,0.8098,-0.382,10.8879,35.7304,-1.0231,-0.2726,0.3833,0.0829
17:19:16:944,0.9731,-0.1832,10.3136,36.0301,-0.8858,-0.4354,0.2044,0.0752
17:19:16:966,1.0135,0.1185,9.1881,36.4203,-0.6005,-0.6164,0.0905,0.0697
17:19:16:985,1.1372,0.484,7.9459,36.4723,-0.2619,-0.7069,0.033,0.0681
17:19:17:006,1.0677,0.74,6.7773,36.1526,-0.0224,-0.5856,0.0745,0.0694
17:19:17:026,1.1762,1.0462,6.1576,36.2468,0.1416,-0.2917,0.1852,0.0715
17:19:17:046,1.1517,1.1713,6.0286,35.8616,0.3588,0.0575,0.3034,0.0738
17:19:17:066,1.2181,1.3923,6.0236,35.7848,0.625,0.3577,0.4014,0.076
17:19:17:085,1.3697,1.7239,5.9053,35.7296,0.7261,0.4972,0.461,0.0792
17:19:17:105,1.4937,1.9015,5.9851,35.8797,0.5408,0.4823,0.5281,0.0824
17:19:17:126,1.6879,1.5583,6.9465,35.8655,0.1373,0.4663,0.6047,0.0836
17:19:17:145,2.1894,1.0401,8.5375,35.8769,-0.1097,0.3716,0.5802,0.0817
17:19:17:166,2.6688,0.7001,9.9202,36.0478,-0.0511,0.2853,0.3471,0.0783
17:19:17:185,2.8577,0.7213,10.7609,36.0705,0.1331,0.2321,0.0266,0.077
17:19:17:206,2.7029,1.2512,11.0631,36.2659,0.2608,0.2395,-0.231,0.0775
17:19:17:225,2.1416,1.7513,11.4838,36.5764,0.0948,0.3183,-0.2875,0.0785
17:19:17:245,1.8472,1.6073,12.5613,36.5835,-0.3013,0.3918,-0.1533,0.0771
17:19:17:265,1.9648,1.0412,14.1304,36.6092,-0.3758,0.2417,-0.1203,0.0723
17:19:17:287,2.4479,0.7117,14.6942,36.8623,-0.0383,-0.0958,-0.2672,0.0691
17:19:17:305,2.4846,0.4942,14.0809,36.7482,0.2576,-0.2406,-0.3971,0.0704
17:19:17:324,2.3332,0.205,13.3206,36.4433,0.362,-0.2513,-0.3684,0.0744
17:19:17:344,2.5606,0.0179,12.5292,36.6405,0.4205,-0.2523,-0.2683,0.0791
17:19:17:365,2.7689,-0.4327,11.8197,36.2649,0.3322,-0.2513,-0.1916,0.0842
17:19:17:385,2.8443,-0.8195,11.0527,36.0955,0.1341,-0.395,-0.2417,0.0881
17:19:17:407,2.754,-1.2404,10.3388,36.4543,-0.1469,-0.4972,-0.3002,0.091
17:19:17:425,2.6158,-1.4307,9.595,36.5963,-0.2672,-0.5685,-0.4195,0.0921
17:19:17:445,2.2079,-1.1242,8.6111,36.6327,-0.1352,-0.6388,-0.6069,0.0932
17:19:17:465,1.6856,-0.5297,7.4698,36.6142,0.1129,-0.5983,-0.7133,0.0961
17:19:17:484,1.2674,0.1329,6.3373,36.6832,0.3577,-0.4653,-0.6771,0.1009
17:19:17:504,1.0506,0.5974,5.4274,36.3719,0.5291,-0.3013,-0.5749,0.1068
17:19:17:524,1.1042,0.8981,4.9936,36.0603,0.6154,-0.1757,-0.4663,0.1133
17:19:17:544,1.3695,1.3649,4.7344,36.2649,0.6697,-0.1405,-0.4259,0.12
17:19:17:565,1.5388,1.9734,4.5449,36.3809,0.6218,-0.0405,-0.4184,0.1269
17:19:17:585,1.549,2.4599,4.6995,36.2615,0.3609,0.2193,-0.3141,0.1323
17:19:17:605,1.4998,2.2848,5.6563,36.4219,-0.0671,0.5355,-0.1011,0.1335
17:19:17:624,1.8442,1.8612,7.3735,36.6262,-0.3386,0.6526,-0.0106,0.1298
17:19:17:644,1.927,1.602,8.5354,36.4038,-0.3971,0.8155,-0.0628,0.1237
17:19:17:666,1.8209,1.4485,9.1742,36.6558,-0.5472,1.0583,-0.0447,0.1162
17:19:17:690,1.7413,1.1713,10.4422,36.6327,-0.6878,1.3138,-0.0405,0.1061
17:19:17:704,1.2786,1.1697,12.3106,36.742,-0.5483,1.351,-0.0447,0.0943
17:19:17:728,0.6192,1.0753,13.6647,36.878,-0.2555,1.0178,-0.0117,0.0845
17:19:17:747,0.3695,1.2919,14.0808,37.0193,0.0032,0.3971,0.0138,0.079
17:19:17:766,0.3693,1.4358,13.6996,37.4035,0.1011,-0.4642,0.0181,0.0786
17:19:17:785,0.745,1.1205,13.2868,37.351,0.0096,-1.2424,-0.0894,0.0824
17:19:17:805,1.0179,0.6551,12.9794,37.4676,-0.0703,-1.7077,-0.2395,0.0885
17:19:17:824,1.2825,0.4549,12.5535,37.5568,-0.116,-1.7726,-0.2949,0.0956
17:19:17:859,1.4858,0.3484,12.1152,37.5511,-0.3013,-1.3074,-0.1054,0.1017
17:19:17:866,1.4426,0.0447,11.9098,37.3725,-0.5419,-0.6164,0.2246,0.103
17:19:17:888,1.4732,-0.6054,11.7407,37.0385,-0.609,-0.231,0.4354,0.0997
17:19:17:905,1.6699,-0.8765,11.3013,36.8172,-0.543,-0.0075,0.3918,0.0943
17:19:17:926,1.4059,-0.7278,10.4352,36.5811,-0.3066,0.0894,0.1576,0.0889
17:19:17:961,0.8646,-0.2048,9.2783,36.3366,0.049,0.0266,-0.0064,0.0866
17:19:17:966,0.2904,0.413,7.8395,36.6304,0.4482,-0.0564,0.017,0.088
17:19:17:984,0.1644,0.9209,6.4135,36.5309,0.7921,-0.1182,0.1852,0.0925
17:19:18:006,0.3851,1.1992,5.311,36.5774,1.0178,-0.0692,0.3652,0.1008
17:19:18:026,0.7918,1.3543,4.9195,36.5626,1.1264,0.0979,0.4312,0.1089
17:19:18:046,1.2505,1.7745,5.2641,36.4682,1.1754,0.2576,0.4333,0.1179
17:19:18:074,1.5307,2.1388,5.7305,36.6317,1.0913,0.2651,0.4482,0.1266
17:19:18:093,1.9518,2.5131,6.2141,36.7146,0.7325,0.1491,0.4748,0.1347
17:19:18:104,2.3967,2.4415,7.2872,36.9553,0.2757,0.017,0.4184,0.139
17:19:18:124,2.872,2.3576,8.7137,37.0142,0.1011,-0.0394,0.2353,0.1407
17:19:18:150,3.2076,2.6245,9.6223,37.2618,0.1544,-0.0639,-0.0405,0.1418
17:19:18:165,3.2237,3.2447,10.0022,37.6988,0.1597,-0.0703,-0.2917,0.1437
17:19:18:188,3.028,3.7154,10.5979,37.9504,-0.0085,0.0064,-0.4716,0.1454
17:19:18:204,2.6326,3.8061,11.5059,38.1784,-0.2257,0.0649,-0.5164,0.1452
17:19:18:224,2.5557,3.6786,12.7637,38.5239,-0.1874,0.0532,-0.4855,0.1433
17:19:18:247,2.6906,3.3051,13.5695,38.3641,0.1789,0.0671,-0.444,0.1424
17:19:18:265,2.5521,2.6899,13.2017,38.282,0.51,0.0958,-0.263,0.1447
17:19:18:285,2.7055,1.6255,12.3118,38.4595,0.5707,0.0809,0.0075,0.149
17:19:18:304,3.5355,1.0137,11.6379,38.4982,0.577,-0.0926,0.0543,0.1538
17:19:18:324,4.072,0.9903,10.6073,38.1616,0.4919,-0.362,-0.1224,0.1595
17:19:18:352,3.7789,1.3641,9.2613,37.9785,0.1246,-0.6782,-0.3247,0.1655
17:19:18:365,3.1495,1.5426,8.39,37.5434,-0.5206,-0.8964,-0.2789,0.169
17:19:18:384,2.7978,1.1176,8.2235,37.1737,-1.021,-0.9433,-0.0703,0.1676
17:19:18:405,2.8637,0.291,8.0246,37.0979,-1.1264,-0.9231,0.0287,0.1623
17:19:18:424,3.0046,-0.1815,7.5089,37.0493,-0.8719,-0.8613,-0.0767,0.1567
17:19:18:445,2.8897,-0.14,6.8446,37.2198,-0.4365,-0.7399,-0.2736,0.1534
17:19:18:465,2.6781,0.2854,6.0681,37.3163,-0.0149,-0.5877,-0.4461,0.1537
17:19:18:484,2.585,0.7439,5.6151,37.2798,0.2576,-0.3524,-0.5195,0.1568
17:19:18:504,2.7195,1.4514,5.5689,37.3354,0.478,-0.2097,-0.5856,0.1614
17:19:18:525,2.7713,2.0554,5.5703,37.5908,0.5419,-0.0884,-0.5738,0.1673
17:19:18:545,2.801,2.2791,6.015,37.6177,0.4195,0.116,-0.4663,0.1728
17:19:18:566,2.8136,2.2818,7.0019,37.3615,0.3194,0.3056,-0.3311,0.1764
17:19:18:585,2.6412,2.1244,8.1267,37.5031,0.2694,0.461,-0.1586,0.1779
17:19:18:605,2.7711,2.0631,9.3631,37.5996,0.2449,0.51,0.0096,0.1784
17:19:18:624,2.8365,1.7856,9.9495,37.7747,0.1789,0.445,0.1299,0.1784
17:19:18:645,3.0036,1.4938,10.4418,37.9848,0.0011,0.3162,0.1139,0.178
17:19:18:666,2.9593,1.5907,10.9546,38.2194,-0.1171,0.2246,-0.0639,0.1766
17:19:18:684,2.571,2.3111,11.4583,38.1122,-0.1011,0.1778,-0.2236,0.1749
17:19:18:704,2.1326,3.0114,11.7089,38.0666,-0.0373,0.05,-0.2055,0.1738
17:19:18:725,1.8951,3.3944,11.5638,37.9721,-0.0341,-0.1331,-0.0234,0.1736
17:19:18:747,1.9918,3.1171,11.2403,37.8006,-0.2246,-0.3609,0.2406,0.1737
17:19:18:766,2.5183,2.2802,11.0917,37.7836,-0.3843,-0.5749,0.3386,0.1727
17:19:18:786,3.0908,1.6208,11.0275,37.8164,-0.3545,-0.6569,0.2651,0.1714
17:19:18:807,3.1896,1.4895,10.2043,37.757,-0.296,-0.5227,0.1522,0.1707
17:19:18:826,3.1037,1.5614,9.4209,37.6111,-0.5696,-0.2076,0.1799,0.1692
17:19:18:845,2.904,0.9146,9.6989,37.6674,-1.0189,0.1906,0.2811,0.1632
17:19:18:866,2.5051,-0.0807,10.679,37.656,-1.071,0.5249,0.2662,0.1511
17:19:18:886,2.1503,-0.5144,10.9794,37.7867,-0.6856,0.609,0.1341,0.1394
17:19:18:905,1.6635,-0.3363,9.9201,37.8125,-0.1363,0.5004,-0.0468,0.1326
17:19:18:925,1.2656,0.2837,8.3127,37.6645,0.3066,0.3556,-0.1735,0.1305
17:19:18:945,0.8606,0.8143,6.8858,37.6629,0.5749,0.2726,-0.1906,0.1327
17:19:18:966,0.776,1.2833,6.0018,37.2261,0.7602,0.3109,-0.1448,0.1377
17:19:18:985,0.7224,1.6346,5.5236,37.1457,0.9433,0.4972,-0.1129,0.143
17:19:19:006,0.7378,2.0602,5.5785,37.2748,1.1498,0.8102,-0.0575,0.1496
17:19:19:025,1.1069,2.5006,5.8883,37.5509,1.3148,1.1062,-0.017,0.1567
17:19:19:044,1.584,2.9402,6.4856,37.4626,1.2094,1.4032,-0.0341,0.1637
17:19:19:065,1.739,3.0848,7.6513,37.6105,0.7889,1.5246,-0.0447,0.168
17:19:19:085,1.6914,2.8522,9.0173,37.7679,0.4823,1.2531,-0.131,0.1683
17:19:19:104,1.923,3.0033,10.1311,37.5217,0.4205,0.8091,-0.3535,0.168
17:19:19:125,1.8513,3.7879,10.6556,37.564,0.5015,0.3343,-0.593,0.1692
17:19:19:144,1.5747,4.7692,10.7083,37.8212,0.4663,0.0181,-0.7101,0.173
17:19:19:165,1.3193,5.3611,10.8683,37.8924,0.2427,-0.1352,-0.6707,0.177
17:19:19:185,1.4069,5.6268,11.4261,37.9274,-0.0138,-0.2438,-0.5526,0.1793
17:19:19:205,1.6647,5.6485,11.8349,38.0358,-0.1608,-0.2747,-0.4344,0.1798
17:19:19:225,1.5043,5.0376,12.0048,37.7525,-0.2747,-0.2214,-0.2385,0.1792
17:19:19:245,1.3257,3.9529,11.8887,37.868,-0.297,-0.1097,0.0884,0.1773
17:19:19:265,1.8814,3.2231,11.5857,38.0006,-0.2268,-0.1341,0.379,0.1751
17:19:19:285,2.318,2.8237,10.7454,38.062,-0.2981,-0.2853,0.5036,0.1735
17:19:19:305,2.4097,2.5054,9.7845,38.5488,-0.6356,-0.5888,0.5547,0.1714
17:19:19:325,2.2555,1.8608,9.1567,38.6201,-1.1498,-0.8379,0.6388,0.1671
17:19:19:345,1.9576,0.7772,9.1836,39.0718,-1.5831,-0.7612,0.873,0.1587
17:19:19:367,1.8604,-0.2736,9.206,39.1895,-1.5682,-0.5323,1.1019,0.1452
17:19:19:385,2.0865,-1.0045,8.7258,39.3322,-1.1285,-0.3119,1.1221,0.134
17:19:19:405,2.345,-1.233,7.9358,39.5737,-0.4887,-0.1608,0.857,0.1253
17:19:19:425,2.5098,-0.9097,7.0175,39.634,0.1352,-0.0862,0.346,0.122
17:19:19:445,2.1816,-0.3731,6.233,39.6663,0.5898,-0.0607,-0.2023,0.1244
17:19:19:468,1.8822,0.3098,5.7148,39.7072,0.8081,-0.0415,-0.5813,0.1315
17:19:19:485,1.833,1.2774,5.6925,40.0602,0.8421,-0.0224,-0.7484,0.1388
17:19:19:504,1.8088,2.3895,6.1363,40.5509,0.7761,0.0681,-0.8091,0.1469
17:19:19:524,1.5534,3.2866,6.8619,41.1076,0.6313,0.3481,-0.7059,0.1537
17:19:19:544,1.0388,3.6229,7.7826,41.4602,0.3961,0.6771,-0.362,0.1575
17:19:19:565,0.8276,3.5513,8.7049,41.7439,0.1065,0.7229,0.0458,0.1576
17:19:19:585,0.7285,3.053,9.4831,42.0687,-0.1554,0.6643,0.3428,0.1551
17:19:19:606,0.6318,2.6098,10.2626,42.3905,-0.3726,0.6026,0.5483,0.1497
17:19:19:625,0.7277,2.4087,10.9931,42.2976,-0.4301,0.477,0.626,0.1442
17:19:19:645,1.0608,2.3344,11.6953,42.6582,-0.3588,0.2704,0.6026,0.1383
17:19:19:665,1.4186,2.5528,12.1436,42.9391,-0.1703,-0.0309,0.4865,0.1344
17:19:19:686,1.6827,2.9524,12.0306,42.9967,0.0383,-0.5259,0.3513,0.1338
17:19:19:705,1.6434,2.8641,11.3038,43.2932,-0.0522,-0.7048,0.3556,0.1365
17:19:19:724,1.5903,2.205,11.0383,43.7406,-0.4056,-0.4631,0.4844,0.1379
17:19:19:745,1.5203,1.3583,11.2072,44.0825,-0.5834,-0.2576,0.6122,0.1352
17:19:19:766,1.533,0.4696,11.0614,44.3979,-0.823,0.1065,0.7442,0.1294
17:19:19:787,1.68,-0.3856,11.0236,44.5343,-1.1669,0.494,0.7612,0.1205
17:19:19:805,1.5741,-0.6292,10.5982,44.7605,-1.2861,0.6111,0.4812,0.1069
17:19:19:826,1.0881,-0.5064,9.668,45.0175,-1.1935,0.5387,0.0543,0.0927
17:19:19:846,0.2135,-0.536,9.1409,45.1774,-1.0764,0.5483,-0.1501,0.0802
17:19:19:865,-0.0746,-0.1044,9.5681,45.3654,-0.7889,0.3524,-0.0926,0.0687
17:19:19:885,0.1756,0.4319,9.2275,45.7646,-0.2151,-0.2374,-0.0479,0.0619
17:19:19:904,0.5153,0.9597,8.2285,45.8661,0.313,-0.5557,-0.0554,0.0627
17:19:19:925,0.6017,1.3007,7.1358,45.9734,0.6824,-0.5877,-0.016,0.0689
17:19:19:945,0.7802,1.4415,6.4715,46.5454,0.9028,-0.4546,0.1331,0.0778
17:19:19:965,1.1537,1.808,6.0916,46.7836,1.021,-0.2459,0.2364,0.0877
17:19:19:985,1.1372,1.8849,5.8896,47.161,0.8986,0.1735,0.3077,0.097
17:19:20:005,1.0789,1.6041,6.7953,47.5067,0.5962,0.6856,0.4461,0.1024
17:19:20:024,1.3289,1.4955,8.0751,47.7038,0.494,0.8262,0.4695,0.1035
17:19:20:046,1.5961,1.3821,8.8433,48.0977,0.3684,0.8453,0.3332,0.1035
17:19:20:066,1.7165,1.5507,9.6957,48.4662,0.2214,0.7889,0.0713,0.1023
17:19:20:088,1.521,1.8377,10.6448,48.6742,0.1799,0.7474,-0.2097,0.1005
17:19:20:104,1.0214,2.125,11.243,48.8026,0.1278,0.7538,-0.3503,0.0986
17:19:20:126,0.5691,2.1962,11.6751,49.0034,0.0128,0.8751,-0.3748,0.0956
17:19:20:145,0.495,2.1915,12.7046,49.038,-0.1043,0.889,-0.263,0.0917
17:19:20:165,0.3417,2.064,13.2608,49.392,-0.1512,0.6377,-0.1608,0.0866
17:19:20:185,-0.0277,1.2955,13.513,49.5026,-0.2662,0.4876,-0.0426,0.0824
17:19:20:205,0.0348,0.5341,13.8079,49.8076,-0.2534,-0.0075,0.1288,0.0781
17:19:20:225,0.7038,0.1389,13.1617,49.8592,0.0106,-0.6388,0.1842,0.0772
17:19:20:245,1.3951,-0.0924,11.5214,50.2189,0.131,-0.8645,0.1235,0.0811
17:19:20:266,1.7669,-0.0623,10.0357,50.1961,-0.0767,-0.79,0,0.086
17:19:20:284,1.6697,-0.007,9.2232,50.4682,-0.4152,-0.659,-0.1235,0.0884
17:19:20:305,1.4277,-0.1173,8.8966,50.468,-0.6792,-0.5451,-0.1767,0.0872
17:19:20:325,1.4575,-0.2709,8.7071,50.6487,-0.6867,-0.5249,-0.2097,0.0837
17:19:20:360,1.4726,-0.2597,8.3424,50.5724,-0.4099,-0.4929,-0.3386,0.0807
17:19:20:366,1.469,0.0857,7.7403,50.771,0.016,-0.4386,-0.5015,0.0803
17:19:20:384,1.2622,0.5248,7.0168,50.9602,0.3918,-0.2374,-0.6005,0.0834
17:19:20:404,1.1118,1.1514,6.6681,50.9334,0.6569,0.0511,-0.576,0.0885
17:19:20:424,1.0818,1.7029,6.4754,51.2921,0.8613,0.2853,-0.4791,0.0945
17:19:20:446,1.1814,2.3363,6.5212,51.5626,0.939,0.4887,-0.3524,0.1011
17:19:20:466,1.1842,2.5909,6.7646,51.6577,0.8091,0.6611,-0.181,0.1076
17:19:20:486,0.9752,2.4458,7.5707,52.0675,0.5419,0.774,-0.0202,0.1112
17:19:20:504,0.9206,2.1283,8.5283,52.2254,0.3481,0.7932,0.0862,0.112
17:19:20:526,0.8837,2.0491,9.7458,52.4477,0.3354,0.7825,0.083,0.1114
17:19:20:546,0.4423,1.9792,10.4522,52.7539,0.4812,0.7804,0.0266,0.1113
17:19:20:566,-0.2024,2.2013,10.8114,52.7423,0.5728,0.7676,0.0437,0.1126
17:19:20:585,-0.7757,2.4023,11.0725,52.9906,0.4812,0.6345,0.181,0.1141
17:19:20:606,-0.6736,2.4268,11.2636,53.1269,0.2917,0.3726,0.2513,0.1154
17:19:20:625,-0.6155,2.7293,11.8479,53.2465,0.2694,0.1629,0.1288,0.1164
17:19:20:646,-0.9428,3.2128,11.9544,53.2841,0.4621,-0.115,0.0351,0.119
17:19:20:665,-1.2301,3.3601,11.0253,53.4346,0.5227,-0.2992,0.1097,0.1237
17:19:20:685,-1.1944,2.9607,10.1745,53.316,0.3215,-0.3024,0.28,0.1293
17:19:20:705,-0.685,2.2297,9.6155,53.4483,0.0351,-0.3119,0.412,0.133
17:19:20:725,-0.1376,1.6183,9.1943,53.5303,-0.2257,-0.2172,0.4237,0.1341
17:19:20:745,-0,1.0035,8.7268,53.7349,-0.577,0.0788,0.3045,0.1322
17:19:20:765,-0.3687,0.5945,9.1675,53.9293,-0.9837,0.4397,0.1554,0.1254
17:19:20:785,-0.8942,0.245,9.9299,54.3465,-1.1264,0.5547,0.0777,0.1139
17:19:20:805,-0.9885,0.247,10.0358,54.628,-0.9071,0.4131,0.0075,0.1019
17:19:20:825,-0.7116,0.5657,9.3283,54.4668,-0.5355,0.1597,-0.082,0.0931
17:19:20:845,-0.356,1.0983,8.3708,54.6498,-0.2129,-0.0341,-0.1831,0.0885
17:19:20:865,-0.2441,1.4511,7.4045,54.6263,0.049,-0.0884,-0.2449,0.0875
17:19:20:885,-0.4795,1.6365,6.813,54.6792,0.263,0.0969,-0.2246,0.0886
17:19:20:905,-0.5458,1.9793,6.521,54.9741,0.4983,0.3854,-0.1597,0.0907
17:19:20:925,-0.7334,2.4466,6.4379,55.3939,0.6973,0.7655,-0.1246,0.0934
17:19:20:945,-1.2715,2.8608,6.4575,55.5629,0.7719,1.07,-0.0671,0.0959
17:19:20:965,-1.8659,2.8602,6.6768,55.7917,0.576,1.2318,0.1022,0.0976
17:19:20:985,-2.1924,2.4516,7.8272,55.7967,0.2076,1.2307,0.313,0.0962
17:19:21:008,-2.101,2.1021,9.285,55.6828,0.049,1.0263,0.4088,0.0922
17:19:21:025,-1.8711,1.9264,10.1427,55.5238,0.1491,0.6292,0.3087,0.0886
17:19:21:045,-1.623,2.2014,10.0937,55.6114,0.2906,0.1075,0.0745,0.088
17:19:21:065,-1.6146,2.7255,9.6729,55.3413,0.2513,-0.1821,-0.0735,0.0903
17:19:21:085,-1.6119,2.9189,9.6797,55.6694,0.0085,-0.1416,-0.0894,0.0927
17:19:21:105,-1.6388,2.8075,10.4073,55.7382,-0.1331,-0.0671,-0.0958,0.0927
17:19:21:125,-1.4918,3.1037,10.8214,55.9604,-0.0532,-0.1373,-0.1459,0.0919
17:19:21:145,-1.6222,4.0354,11.0455,56.0489,-0.0043,-0.4472,-0.1384,0.0923
17:19:21:165,-0.5173,4.2973,10.4742,56.3497,-0.1948,-1.2137,0.0884,0.0947
17:19:21:185,-1.0994,3.5179,9.7699,56.5667,-0.8773,-1.7173,0.2289,0.0982
17:19:21:205,-0.4162,2.5686,10.316,56.6996,-1.5757,-1.9472,0.51,0.0971
17:19:21:226,1.0863,2.2907,11.2463,56.7085,-1.7396,-2.3965,0.6356,0.0927
17:19:21:245,1.8225,1.6498,11.0052,56.6189,-1.7301,-2.6659,0.7037,0.0896
17:19:21:265,2.0196,1.016,10.5627,56.6073,-1.8536,-2.5147,0.9135,0.0871
17:19:21:285,1.7538,0.219,10.6456,56.5988,-1.9409,-2.2986,1.4288,0.0821
17:19:21:306,2.682,-0.6235,10.1601,56.8432,-1.7056,-2.092,1.8812,0.0752
17:19:21:326,3.7395,-0.9251,9.3326,57.1289,-1.3063,-1.8056,1.9824,0.069
17:19:21:344,3.9846,-1.2105,8.3769,57.2959,-0.6856,-1.1754,1.6129,0.0646
17:19:21:366,3.5658,-1.3317,7.4841,57.511,-0.033,-0.3545,0.9284,0.0624
17:19:21:385,3.3279,-0.9863,7.0147,57.4172,0.4993,0.1703,0.3396,0.0628
17:19:21:404,3.3695,-0.4978,6.4844,57.4112,0.7091,0.4014,-0.0213,0.0656
17:19:21:424,4.0011,-0.1713,6.3684,57.3022,0.7442,0.5792,-0.4163,0.0694
17:19:21:446,3.8103,0.237,7.5803,57.3261,0.7942,0.9529,-0.7559,0.0731
17:19:21:468,2.6401,0.7866,9.5835,57.4193,0.9348,1.0774,-0.626,0.0756
17:19:21:485,2.2819,0.5165,11.2555,57.5778,1.0913,0.84,-0.1778,0.0784
17:19:21:505,2.7377,0.2723,11.7752,57.5424,1.2329,0.3215,0.0394,0.084
17:19:21:526,3.0672,0.3731,11.5837,57.5985,1.2563,-0.2928,-0.0341,0.0945
17:19:21:544,2.8751,0.8407,10.9995,57.6259,1.1104,-0.8358,-0.1278,0.1063
17:19:21:565,2.745,1.2546,10.4217,57.492,0.8304,-1.1754,-0.0969,0.1203
17:19:21:585,2.8938,1.3221,10.3764,57.4206,0.5451,-1.3319,-0.1022,0.1333
17:19:21:605,3.0445,1.3972,10.4595,57.3435,0.494,-1.4256,-0.2449,0.1451
17:19:21:625,2.9662,1.7948,10.0628,57.3708,0.4716,-1.4926,-0.3237,0.1572
17:19:21:644,3.2017,2.1402,9.4056,57.3586,0.2587,-1.4341,-0.2672,0.169
17:19:21:665,3.394,1.9062,9.2324,57.4615,-0.0788,-1.1711,-0.2097,0.1781
17:19:21:685,3.6454,1.1856,9.5719,57.5537,-0.2736,-0.8762,-0.2395,0.183
17:19:21:704,3.6168,0.6841,9.5959,57.4355,-0.3961,-0.5078,-0.3769,0.185
17:19:21:724,3.1319,0.6892,9.5782,57.0907,-0.8017,0.1022,-0.3939,0.1837
17:19:21:745,1.8845,-0.1617,10.8079,57.1851,-1.3042,0.8549,-0.131,0.1751
17:19:21:766,1.3446,-0.9769,12.8105,56.7155,-1.1328,1.1988,0.1703,0.1583
17:19:21:785,1.606,-1.2271,12.5959,56.6878,-0.5345,0.9369,0.2523,0.1441
17:19:21:805,1.9057,-0.9833,10.7004,56.6837,-0.0138,0.5366,0.0809,0.1359
17:19:21:825,1.8575,-0.3584,8.6738,56.7227,0.329,0.1533,-0.1852,0.1342
17:19:21:845,1.4374,0.4646,6.8993,56.9563,0.5685,-0.1054,-0.3151,0.1374
17:19:21:865,1.1944,1.2386,5.5674,56.9206,0.7665,-0.1852,-0.2928,0.1436
17:19:21:885,1.0309,1.8001,4.6836,57.1703,0.9635,-0.0149,-0.1842,0.1515
17:19:21:906,1.0256,2.3772,4.5956,57.2583,1.1402,0.3609,-0.0415,0.1595
17:19:21:925,0.9628,3.0391,4.7581,57.1456,1.2478,0.7314,0.2151,0.1668
17:19:21:945,1.2198,4.1468,5.1567,57.3646,1.0732,1.0977,0.6175,0.1726
17:19:21:965,1.8163,4.4989,6.7593,57.5464,0.4418,1.6875,1.2414,0.1732
17:19:21:985,2.5585,3.2162,9.4486,57.6166,-0.297,1.647,1.5299,0.1651
17:19:22:005,3.274,1.9779,11.7101,57.7642,-0.4472,0.6888,1.0157,0.1533
17:19:22:025,3.8173,2.1754,11.8198,57.9089,-0.1991,-0.3471,0.1256,0.1474
17:19:22:046,3.6372,2.9765,11.5026,57.7499,-0.05,-0.6792,-0.3982,0.1489
17:19:22:065,3.2272,3.9564,11.3277,57.545,0.1459,-0.7016,-0.6409,0.1531
17:19:22:085,3.0676,4.4661,11.2145,57.3224,0.4695,-0.5387,-0.6377,0.159
17:19:22:104,3.4264,4.6701,10.8309,57.4546,0.873,-0.3024,-0.5398,0.1665
17:19:22:125,3.5163,4.6385,9.5298,57.4982,1.2222,-0.0958,-0.4951,0.1761
17:19:22:145,3.2548,4.081,8.1971,57.7332,0.8932,0.3556,-0.2268,0.1862
17:19:22:166,3.1912,2.4886,8.6659,57.772,0.0575,0.6782,0.1948,0.1896
17:19:22:185,3.752,1.0762,10.0414,57.6056,-0.428,0.5898,0.346,0.1856
17:19:22:205,4.3563,0.0643,10.4125,57.221,-0.5536,0.3258,0.2108,0.1788
17:19:22:225,4.7548,-0.3258,9.7084,57.0461,-0.5781,0.1735,-0.1054,0.1727
17:19:22:246,4.3008,-0.291,8.6009,56.7966,-0.7357,0.4237,-0.4333,0.1663
17:19:22:266,3.1736,-0.5011,8.2899,56.7743,-1.169,0.8858,-0.5078,0.1566
17:19:22:285,2.0034,-0.8287,9.0848,56.7688,-1.4415,1.2733,-0.4621,0.1425
17:19:22:305,1.486,-1.1737,9.5755,56.7915,-1.3223,1.1509,-0.346,0.124
17:19:22:326,1.6603,-1.3777,9.3122,56.8536,-0.8517,0.6345,-0.3897,0.107
17:19:22:345,1.9541,-1.2079,8.1475,56.763,-0.2885,0.0894,-0.6654,0.0997
17:19:22:367,1.9392,-0.6649,6.8447,56.5914,0.0511,-0.1714,-0.9976,0.0984
17:19:22:384,1.6729,-0.1535,6.4936,56.3712,0.198,-0.4152,-1.2925,0.101
17:19:22:406,1.1645,0.2335,6.8702,56.4283,0.2917,-0.7016,-1.4937,0.1067
17:19:22:425,1.0197,1.4223,7.6016,56.4133,0.411,-0.8869,-1.3947,0.1133
17:19:22:445,1.814,2.5596,8.008,56.3182,0.461,-0.8762,-1.2222,0.1221
17:19:22:465,1.8921,2.8404,7.9529,56.3047,0.3386,-0.5962,-0.8879,0.1304
17:19:22:485,2.2256,3.1208,8.6976,56.2208,0.1267,-0.2002,-0.5259,0.1356
17:19:22:504,2.46,2.9741,9.6598,56.3298,-0.0117,-0.0149,-0.2981,0.1372
17:19:22:525,2.5495,2.9662,10.4384,56.3774,-0.0671,-0.1118,-0.2906,0.1372
17:19:22:545,2.2379,3.2375,10.9966,56.2421,-0.0586,-0.28,-0.3322,0.1375
17:19:22:566,1.7511,3.5189,11.1372,56.2321,-0.0234,-0.3492,-0.2885,0.1389
17:19:22:584,1.3116,3.7291,11.286,56.0158,-0.1224,-0.2364,-0.1331,0.1399
17:19:22:606,1.4023,3.7942,11.8173,55.8432,-0.2204,-0.2523,-0.0362,0.1395
17:19:22:625,1.2207,3.7213,11.7691,55.5581,-0.3354,-0.2992,-0.1437,0.1387
17:19:22:645,0.3158,3.3055,11.7514,55.3291,-0.5632,-0.2033,-0.1427,0.1366
17:19:22:665,-0.5102,2.1722,12.0283,55.1089,-0.6473,-0.2853,0.0894,0.1322
17:19:22:685,0.1258,1.0493,12.3186,54.8746,-0.3322,-0.3332,0.3268,0.128
17:19:22:705,1.3309,0.4035,11.2557,55.0022,-0.0458,-0.2033,0.2598,0.1267
17:19:22:725,1.6788,0.2203,10.2934,54.7968,-0.3492,0.0117,0.1427,0.1263
17:19:22:745,1.7835,-0.276,10.2246,55.0339,-0.9262,0.115,0.1288,0.1218
17:19:22:765,1.8963,-1.0022,10.7797,54.9506,-1.1882,0.0798,0.0958,0.1123
17:19:22:784,2.0317,-1.4385,10.7298,55.2199,-0.9699,-0.0798,-0.0405,0.1018
17:19:22:805,2.1643,-1.3719,9.7395,55.3407,-0.4642,-0.2417,-0.231,0.0947
17:19:22:826,2.0634,-0.9653,8.2334,55.3351,0.0649,-0.3279,-0.4141,0.0931
17:19:22:844,1.8469,-0.443,6.6187,54.894,0.4834,-0.3034,-0.4961,0.0964
17:19:22:866,1.7342,0.0592,5.4276,54.4265,0.7559,-0.1299,-0.4791,0.1029
17:19:22:885,1.6011,0.5761,4.9102,53.659,0.9412,0.115,-0.4312,0.1107
17:19:22:906,1.4757,1.2957,4.8385,53.5241,1.0955,0.4738,-0.3811,0.119
17:19:22:925,1.1785,2.1034,5.232,53.2869,1.1296,0.7932,-0.2726,0.1268
17:19:22:944,0.7986,2.8176,6.0916,53.3314,0.9923,0.9199,-0.0362,0.1335
17:19:22:966,0.9467,3.2328,7.2708,53.2242,0.7261,0.7506,0.2268,0.1386
17:19:22:985,1.6293,3.1964,8.2942,53.4751,0.3268,0.3961,0.2566,0.1412
17:19:23:005,2.3158,2.8934,9.5395,53.5803,-0.0053,-0.0287,-0.0415,0.1422
17:19:23:025,2.563,2.9542,10.7107,53.2988,-0.1448,-0.3865,-0.4706,0.1427
17:19:23:046,2.5461,3.7185,11.4308,53.1367,-0.3024,-0.4642,-0.7293,0.1436
17:19:23:065,1.9227,3.6325,12.4463,53.2587,-0.4642,-0.0852,-0.6835,0.1425
17:19:23:084,1.4193,2.9627,13.6261,53.0487,-0.4365,0.1544,-0.5419,0.1387
17:19:23:105,1.2436,2.4246,14.5261,52.9589,-0.0894,0.28,-0.4567,0.1348
17:19:23:126,1.1426,2.0494,14.2633,52.8436,0.4184,0.1682,-0.4397,0.1344
17:19:23:144,1.3801,1.6675,13.139,52.3697,0.8379,0.0479,-0.3492,0.1385
17:19:23:165,1.8136,1.3307,11.5511,51.8666,0.9763,0.0213,-0.2151,0.1465
17:19:23:185,2.3305,1.5544,10.2426,51.4742,0.9177,-0.1565,-0.1256,0.1556
17:19:23:206,2.8124,2.26,9.0051,51.0444,0.6516,-0.296,-0.0564,0.1651
17:19:23:224,2.8252,2.9036,7.9164,50.8537,0.0905,-0.3034,0.0607,0.1706
17:19:23:244,2.4398,2.4477,7.6022,50.7058,-0.6878,-0.2395,0.2992,0.1707
17:19:23:265,2.3342,1.6395,7.9662,50.6533,-1.2084,-0.3077,0.4312,0.164
17:19:23:286,1.9618,0.7056,7.9488,50.6395,-1.3617,-0.4802,0.5078,0.1536
17:19:23:307,1.9725,0.1249,7.6784,50.6355,-1.1764,-0.6931,0.4876,0.1432
17:19:23:325,2.36,-0.0705,6.6812,50.6844,-0.8155,-0.8762,0.2768,0.1359
17:19:23:344,2.4945,0.0832,5.8356,50.5426,-0.5249,-0.7783,-0.0138,0.1325
17:19:23:366,2.4693,0.539,5.6935,50.7316,-0.3151,-0.5046,-0.2757,0.131
17:19:23:386,2.2708,0.9783,5.8618,50.4312,-0.0575,-0.3492,-0.4823,0.1307
17:19:23:405,2.0198,1.4567,6.2289,50.461,0.1714,-0.2129,-0.5462,0.1325
17:19:23:425,2.3568,2.5516,7.2521,50.6169,0.3279,-0.2033,-0.4791,0.1356
17:19:23:445,2.6264,3.6457,7.6466,50.5109,0.2736,-0.2864,-0.2683,0.1401
17:19:23:465,2.4136,3.7848,8.1302,50.7408,-0.1363,-0.2172,0.1554,0.1429
17:19:23:485,3.3827,3.2622,9.2654,50.3771,-0.5227,-0.4291,0.478,0.1414
17:19:23:507,4.4211,3.0524,10.2537,50.1866,-0.5451,-0.7314,0.4472,0.1379
17:19:23:524,3.7043,1.939,11.008,50.1926,-0.5856,-0.8517,0.5164,0.1354
17:19:23:544,3.4054,0.6975,12.1452,50.031,-0.6473,-0.7953,0.6803,0.1322
17:19:23:566,3.8536,0.5259,13.2804,49.903,-0.3524,-0.8081,0.6069,0.1286
17:19:23:585,4.2013,0.9674,13.1888,49.8644,0.1884,-0.7474,0.2864,0.1286
17:19:23:605,3.8483,1.6101,12.4387,49.6076,0.4844,-0.3418,-0.0362,0.133
17:19:23:625,2.7407,1.5966,11.6519,49.3031,0.544,0.4014,-0.1363,0.138
17:19:23:645,1.5433,0.3927,11.2777,49.4138,0.642,1.1147,-0.0298,0.1403
17:19:23:667,1.347,-0.7869,10.8639,49.465,0.8155,1.3564,0.1448,0.1413
17:19:23:686,1.819,-0.6781,10.2666,49.4369,0.7548,1.169,0.1416,0.1431
17:19:23:705,1.3939,-0.4835,9.4038,49.3279,0.297,0.8592,0.0852,0.145
17:19:23:725,0.6462,-0.6848,9.2455,49.6057,-0.4163,0.6154,0.1693,0.1433
17:19:23:745,0.5112,-0.7757,9.1783,49.1672,-0.9412,0.3811,0.3439,0.1361
17:19:23:765,0.5036,-0.9574,9.2025,49.0621,-1.087,0.1448,0.5025,0.1251
17:19:23:785,0.7217,-0.9551,8.6223,48.9592,-0.9497,0.0213,0.5909,0.115
17:19:23:805,0.9733,-0.574,7.6407,48.8227,-0.6494,0.0085,0.4993,0.1062
17:19:23:825,0.842,-0.1582,6.577,48.5677,-0.3237,0.1725,0.3641,0.1001
17:19:23:845,0.7751,0.2693,5.9202,48.7219,-0.0245,0.4472,0.2832,0.0962
17:19:23:866,0.7116,0.6267,5.4412,48.8807,0.2268,0.7612,0.2183,0.0937
17:19:23:885,0.4775,0.9105,5.726,48.8745,0.3652,1.1094,0.1757,0.092
17:19:23:908,0.4055,1.2878,6.5259,48.8028,0.4993,1.2435,0.1565,0.0902
17:19:23:926,0.6503,1.9305,7.1469,48.5305,0.626,1.1328,0.1576,0.0894
17:19:23:944,0.7513,2.5587,7.3824,48.3673,0.4472,1.0476,0.231,0.0901
17:19:23:966,0.9065,2.5178,8.3342,48.0258,-0.1384,1.202,0.4503,0.0877
17:19:23:984,1.3587,2.2526,9.508,47.7799,-0.5526,1.1392,0.4141,0.0808
17:19:24:006,1.6662,2.2449,10.3958,47.5461,-0.8645,0.9113,0.1576,0.0691
17:19:24:024,1.678,2.9242,11.0793,47.6854,-1.0987,0.7548,0.0692,0.0583
17:19:24:045,1.0426,3.3016,11.2109,47.6342,-1.4192,1.1637,0.412,0.0443
17:19:24:066,-0.1334,2.369,11.9552,47.788,-1.8418,1.9153,1.1647,0.0218
17:19:24:086,-0.6974,0.071,14.3143,47.8899,-2.009,2.3731,1.8727,-0.0057
17:19:24:105,0.4412,-1.8163,16.804,48.005,-1.5086,1.9015,1.9132,-0.0312
17:19:24:125,0.8432,-2.8526,17.3773,47.9276,-0.4876,1.0114,1.2904,-0.0507
17:19:24:145,0.5765,-3.3752,16.2973,47.4595,0.4887,0.4887,0.6878,-0.0571
17:19:24:165,0.5705,-2.7493,15.0253,46.9237,1.1913,0.0202,0.3215,-0.0528
17:19:24:185,0.5457,-1.866,13.3306,46.7628,1.4799,-0.5195,0.165,-0.0417
17:19:24:205,0.9532,-1.7166,12.4309,46.455,1.5225,-1.1328,0.0884,-0.0254
17:19:24:225,0.945,-1.8349,11.805,46.3659,1.6981,-1.9089,-0.165,-0.0053
17:19:24:245,0.5623,-1.5758,9.3788,46.3251,1.5033,-1.8727,-0.3268,0.0195
17:19:24:266,0.1932,-1.3755,7.3569,46.077,1.0189,-1.1551,-0.3279,0.04
17:19:24:286,0.4316,-1.4493,6.4709,46.1098,0.7346,-0.7186,-0.2076,0.0532
17:19:24:306,1.0129,-0.7209,6.1495,45.8443,0.6899,-0.4589,-0.2789,0.0626
17:19:24:326,1.09,-0.2974,5.5291,45.2737,0.8198,-0.3077,-0.51,0.0709
17:19:24:345,0.9172,0.4409,4.4977,45.2581,0.8815,-0.1224,-0.7123,0.0797
17:19:24:386,0.7592,1.2877,3.8059,45.0144,0.6558,-0.0117,-0.8166,0.0875
17:19:24:387,1.2353,1.7186,3.675,44.9617,0.1256,0.0011,-0.8954,0.0923
17:19:24:405,1.2605,2.7096,5.0794,44.6614,-0.4354,-0.0703,-1.0764,0.0923
17:19:24:425,0.9735,2.9141,7.1069,44.2748,-0.7367,-0.05,-1.186,0.0881
17:19:24:444,-0.0835,2.718,9.3076,44.3369,-0.9081,0.0703,-1.0508,0.0814
17:19:24:466,-0.8367,2.0914,10.2428,44.2363,-0.9401,-0.0532,-0.6963,0.073
17:19:24:485,-0.8263,1.0085,11.0489,44.1327,-0.8602,-0.2268,-0.3087,0.0654
17:19:24:505,-0.3815,0.4153,11.9873,44.3882,-0.5398,-0.1778,-0.1533,0.0591
17:19:24:525,0.1203,0.4593,12.209,43.9726,-0.0617,-0.2119,-0.2087,0.0562
17:19:24:545,0.2316,1.1576,12.0466,43.3995,0.1437,-0.1672,-0.2683,0.0573
17:19:24:565,-0.1065,1.5024,11.8125,42.971,0.0596,-0.1991,-0.2406,0.0593
17:19:24:584,-0.1672,1.3576,11.6438,42.6914,-0.1341,-0.3886,-0.1661,0.0605
17:19:24:605,-0.075,0.752,11.7369,42.4273,-0.2779,-0.4759,-0.1107,0.0608
17:19:24:624,-0.3565,0.0896,11.6755,42.191,-0.3205,-0.3066,-0.0075,0.0601
17:19:24:645,-0.8243,-1.0859,11.5125,41.7496,-0.2992,-0.0224,0.1789,0.0582
17:19:24:665,-1.138,-1.7771,11.2655,41.5588,-0.2992,0.3961,0.2023,0.055
17:19:24:685,-1.4024,-2.2091,11.0475,41.4734,-0.4653,0.61,0.1288,0.0499
17:19:24:705,-1.5673,-2.3437,10.9629,41.4101,-0.6665,0.576,-0.0266,0.0425
17:19:24:726,-1.4788,-1.7636,10.5309,41.6527,-0.691,0.3492,-0.1831,0.0341
17:19:24:745,-1.5689,-0.9375,9.5995,41.7639,-0.6207,0.1256,-0.2087,0.0269
17:19:24:766,-1.1312,-0.2474,8.5113,41.9176,-0.4333,-0.033,-0.1352,0.0213
17:19:24:785,-0.4448,0.3964,7.5222,42.0077,-0.148,-0.1065,-0.0948,0.0183
17:19:24:806,-0.2775,0.9052,6.48,41.6775,0.1331,0.1331,-0.0735,0.0179
17:19:24:825,-0.3317,1.3702,5.7503,41.5809,0.3471,0.5334,-0.0266,0.0184
17:19:24:845,-0.5731,1.7329,5.7828,41.2671,0.5376,0.8507,0.0937,0.0193
17:19:24:866,-0.509,1.8853,6.1619,40.8395,0.7942,0.8719,0.3215,0.0209
17:19:24:886,-0.0606,2.1428,6.6042,40.4597,1.0625,0.6367,0.5888,0.0252
17:19:24:906,0.6174,2.6881,6.6572,40.0973,1.0647,0.4365,0.7123,0.0326
17:19:24:925,0.9943,3.2986,6.9007,39.9538,0.6516,0.5653,0.741,0.0395
17:19:24:945,1.1727,3.3639,7.7651,39.8308,0.1214,0.9816,0.8379,0.0413
17:19:24:966,1.0328,2.9712,9.344,39.9496,-0.1544,1.4288,0.9081,0.0362
17:19:24:985,0.3165,2.757,11.0126,40.0668,-0.1501,1.7183,0.9231,0.0289
17:19:25:005,-0.2936,2.4725,12.5925,40.1387,-0.0607,1.7269,0.9135,0.0201
17:19:25:025,-0.8638,1.8099,13.831,40.2621,0.0405,1.351,0.8123,0.0125
17:19:25:045,-1.0437,1.3492,14.7523,40.4984,0.1512,0.9848,0.494,0.0075
17:19:25:065,-1.6575,0.9625,15.5143,40.7025,0.296,0.757,0.0788,0.0048
17:19:25:086,-2.9174,0.2858,15.866,40.6639,0.5121,0.6729,-0.1469,0.004
17:19:25:107,-3.7679,-0.4885,15.7435,40.6315,0.9167,0.4173,-0.0468,0.006
17:19:25:125,-2.9866,-0.2545,14.4119,40.2603,1.5171,-0.1129,0.0405,0.014
17:19:25:145,-1.4095,0.5262,11.8216,39.9265,1.63,-0.5323,-0.1171,0.0289
17:19:25:165,-0.9008,0.8645,10.0087,39.7203,1.1296,-0.5547,-0.4195,0.0443
17:19:25:185,-1.282,0.7115,9.3448,39.6325,0.4855,-0.5526,-0.6494,0.0543
17:19:25:207,-1.7898,0.3091,9.2153,39.462,0.0075,-0.6537,-0.6441,0.0591
17:19:25:226,-1.935,-0.1033,8.5285,39.2948,-0.2481,-0.8698,-0.5142,0.0609
17:19:25:246,-1.5966,-0.2879,7.3559,39.2751,-0.3556,-1.1637,-0.445,0.0623
17:19:25:266,-1.1279,-0.546,6.0983,39.1186,-0.3865,-1.3809,-0.5164,0.0642
17:19:25:285,-0.7802,-0.5725,5.4131,38.898,-0.231,-1.3638,-0.7463,0.0669
17:19:25:305,-0.7131,-0.3177,4.7857,38.8467,0.1107,-1.2403,-1.021,0.071
17:19:25:325,-0.6627,0.2859,4.2867,39.0273,0.4706,-1.0199,-1.2254,0.0775
17:19:25:345,-0.7174,0.8886,3.8552,38.8118,0.7357,-0.6239,-1.3063,0.0859
17:19:25:366,-0.7906,1.2772,3.6523,38.7469,0.9273,-0.1267,-1.2574,0.0954
17:19:25:385,-0.8484,1.6518,3.5284,38.5115,1.104,0.3652,-1.0774,0.103
17:19:25:404,-0.8715,2.2826,3.8332,38.3231,1.07,1.1275,-0.8059,0.1108
17:19:25:425,-1.2268,3.0692,5.2182,38.1378,0.7304,1.9249,-0.5345,0.1146
17:19:25:445,-1.4077,4.0243,7.164,38.063,0.1554,2.0739,-0.4312,0.1124
17:19:25:467,-2.3833,4.2896,9.1262,38.061,-0.51,1.9515,-0.4365,0.1043
17:19:25:486,-4.4761,4.2713,11.3117,38.2511,-1.2403,1.8493,-0.2715,0.09
17:19:25:505,-6.2382,3.759,13.8727,38.1373,-1.5661,1.4767,0.23,0.0707
17:19:25:525,-6.5901,3.0873,15.3409,38.1721,-1.2339,0.7027,0.5856,0.0523
17:19:25:545,-5.7857,2.9438,14.3992,38.1045,-0.6601,-0.264,0.609,0.0414
17:19:25:565,-4.7742,3.1184,12.2382,37.897,-0.6196,-0.9901,0.4961,0.0381
17:19:25:585,-4.6832,3.042,11.2802,37.7933,-1.0263,-1.3095,0.494,0.0363
17:19:25:605,-5.0295,2.0294,11.4986,37.3418,-1.3564,-1.4181,0.7665,0.0321
17:19:25:625,-5.0508,0.6335,11.58,37.223,-1.2925,-1.3276,1.1147,0.0267
17:19:25:646,-4.855,-0.49,11.0464,36.8809,-1.1381,-0.9103,1.3297,0.0219
17:19:25:667,-4.974,-1.1719,10.6906,36.7169,-1.2062,-0.3758,1.4288,0.0156
17:19:25:686,-4.8162,-1.6316,10.6469,36.4125,-1.318,-0.1597,1.5235,0.0068
17:19:25:705,-3.8724,-1.6526,10.5593,36.2835,-1.235,-0.2364,1.5012,-0.0023
17:19:25:726,-2.4942,-1.2035,9.9643,35.9681,-0.8698,-0.5291,1.2499,-0.0104
17:19:25:746,-1.5015,-0.4802,8.6785,35.7059,-0.3588,-0.8123,0.8283,-0.0136
17:19:25:767,-1.1239,0.2872,7.313,35.2306,0.0437,-0.9018,0.445,-0.011
17:19:25:786,-1.0543,0.8457,6.3944,34.761,0.2821,-0.9124,0.2683,-0.006
17:19:25:806,-0.9462,1.1697,5.8368,34.8848,0.51,-0.9028,0.3577,0.0016
17:19:25:825,-0.5378,1.5339,5.3947,34.9042,0.6984,-0.7804,0.6345,0.011
17:19:25:849,0.1171,1.78,5.4506,34.7214,0.7304,-0.4131,0.9337,0.0217
17:19:25:866,0.5884,2.0085,6.0172,34.874,0.625,0.0256,1.1179,0.0286
17:19:25:886,0.5071,1.9836,6.8965,34.7656,0.3886,0.3854,1.2659,0.0329
17:19:25:905,0.355,1.6273,8.1371,34.4296,0.1139,0.4099,1.4447,0.0335
17:19:25:925,0.7713,1.0087,9.2711,34.5458,-0.0202,0.0256,1.4405,0.0326
17:19:25:945,1.6949,0.8741,9.957,34.6449,0.0149,-0.4908,1.1189,0.0332
17:19:25:966,2.4162,1.1696,10.0193,34.5663,0.0224,-0.8911,0.5675,0.037
17:19:25:986,2.3644,1.6144,10.355,34.7359,-0.2257,-1.0093,0.0649,0.0422
17:19:26:006,1.6384,1.8184,11.7433,34.6169,-0.6026,-0.9827,-0.0937,0.0453
17:19:26:027,1.3848,1.6058,13.6706,34.5164,-0.7548,-1.0891,0.0628,0.0457
17:19:26:046,2.242,1.3178,14.6929,34.1713,-0.4919,-1.3564,0.0788,0.0466
17:19:26:066,2.8751,1.0654,14.3859,34.2026,-0.2065,-1.4234,-0.1171,0.0513
17:19:26:085,2.712,0.4113,13.7935,33.9973,-0.083,-1.2818,-0.247,0.058
17:19:26:105,2.7153,-0.1578,13.52,34.1611,-0.0224,-1.2446,-0.1799,0.0647
17:19:26:125,3.5203,-0.4692,12.6131,34.4037,0.0873,-1.2467,-0.1352,0.072
17:19:26:145,3.9864,-0.6725,11.3663,34.4806,0.0096,-1.1732,-0.2332,0.0798
17:19:26:166,3.6284,-0.7827,10.4129,34.5813,-0.264,-1.1019,-0.3535,0.0866
17:19:26:187,3.0455,-1.0235,9.6802,34.8596,-0.5834,-1.0817,-0.3322,0.0902
17:19:26:205,2.7155,-1.4505,8.7195,34.837,-0.7612,-1.0678,-0.3109,0.0915
17:19:26:225,2.6247,-1.4911,7.4551,34.6837,-0.7506,-0.9475,-0.4067,0.0915
17:19:26:245,2.6393,-1.2663,6.3838,34.54,-0.5696,-0.5866,-0.5888,0.0911
17:19:26:266,2.3968,-1.1553,5.9171,34.3894,-0.1778,0.0277,-0.8464,0.0901
17:19:26:286,1.8716,-0.9385,5.6923,34.4523,0.3843,0.5824,-1.0593,0.0897
17:19:26:306,1.4585,-0.5519,5.376,34.2924,0.9124,0.9614,-1.1072,0.0915
17:19:26:326,1.4277,0.0138,5.0823,34.4289,1.1456,1.1392,-1.0391,0.0957
17:19:26:346,1.6448,0.4874,5.3168,34.5116,1.0391,1.1104,-0.9571,0.1006
17:19:26:366,1.8508,0.9422,5.8974,34.7532,0.7932,1.0636,-0.9103,0.1046
17:19:26:411,1.6398,1.098,6.6904,34.7295,0.4759,1.0764,-0.8741,0.1063
17:19:26:412,1.2446,1.1197,7.8852,34.5323,0.1373,1.0423,-0.7463,0.105
17:19:26:425,0.9807,1.2222,9.0554,34.1727,-0.1246,0.8038,-0.5856,0.1013
17:19:26:444,0.591,1.0767,9.8561,34.1438,-0.4173,0.6271,-0.4195,0.0963
17:19:26:466,0.3907,0.6371,11.0396,33.7786,-0.6686,0.4248,-0.313,0.0894
17:19:26:485,0.7157,0.2685,12.0245,33.552,-0.7612,-0.1288,-0.4557,0.0821
17:19:26:505,1.1609,0.1848,12.2532,33.4298,-0.7964,-0.8688,-0.8134,0.0773
17:19:26:527,1.6266,0.4928,11.8861,33.2808,-0.8549,-1.5246,-1.1658,0.0759
17:19:26:545,1.8744,1.2778,11.5983,32.8979,-0.9603,-1.877,-1.2648,0.0769
17:19:26:566,1.793,1.7644,11.4909,32.7635,-1.0636,-1.8046,-0.9433,0.0782
17:19:26:585,2.1,1.5557,11.7583,32.3352,-1.1754,-1.531,-0.3407,0.0766
17:19:26:605,3.0038,0.5564,12.1841,32.2033,-1.1605,-1.1839,0.1182,0.0722
17:19:26:625,3.4655,-0.873,12.19,31.6718,-1.1647,-0.6729,0.2534,0.0659
17:19:26:646,3.2381,-2.3529,12.4343,31.7506,-1.2286,-0.1469,0.1789,0.0563
17:19:26:666,2.7338,-3.4939,12.6405,31.763,-1.0678,0.2214,-0.0649,0.0454
17:19:26:694,2.2391,-3.597,11.9997,31.9067,-0.6739,0.5068,-0.4429,0.0363
17:19:26:705,1.7019,-2.7278,10.8044,31.937,-0.2491,0.7761,-0.8677,0.0295
17:19:26:726,0.9518,-1.6127,9.3686,31.7416,0.1821,1.0221,-1.1477,0.0259
17:19:26:745,-0.0323,-0.7739,7.7495,31.8111,0.5164,1.0444,-1.1839,0.0259
17:19:26:765,-0.615,0.1995,6.7295,31.7909,0.7932,1.0923,-0.9188,0.0285
17:19:26:785,-1.16,0.96,5.9071,31.5554,1.0274,1.2318,-0.4397,0.0328
17:19:26:805,-1.1227,1.3067,5.4898,32.1472,1.1179,1.4192,0.2012,0.0377
17:19:26:825,-0.3185,1.5714,5.5884,32.17,1.103,1.3425,0.692,0.0422
17:19:26:846,0.2877,1.5591,5.8752,32.2212,0.9092,1.218,0.8304,0.0464
17:19:26:865,0.5653,1.6152,6.4793,32.0849,0.5323,0.9933,0.8123,0.0491
17:19:26:885,0.2641,1.5153,7.6379,32.1337,0.1278,0.7878,0.7793,0.0489
17:19:26:905,0.026,1.1397,9.1183,31.8161,-0.1139,0.5483,0.8155,0.0462
17:19:26:925,-0.0234,1.0963,10.7366,31.5884,-0.132,0.4919,0.7804,0.0425
17:19:26:945,0.0335,1.3658,11.7281,31.6678,0.0479,0.3077,0.5898,0.0394
17:19:26:965,-0.1136,1.7081,12.3631,31.533,0.1757,0.2204,0.3056,0.0389
17:19:26:985,-0.5904,2.043,12.6265,31.6264,0.1501,0.1341,0.0394,0.0396
17:19:27:005,-1.1194,2.1289,13.2603,31.8505,-0.0277,0.0053,-0.1267,0.04
17:19:27:024,-0.9447,1.9298,13.7615,32.0635,0.0532,-0.4099,-0.1075,0.0403
17:19:27:046,0.2229,1.6963,13.3051,32.0876,0.2108,-1.1701,0.0383,0.0437
17:19:27:066,2.0834,0.6506,11.3297,32.2472,-0.1384,-2.0984,0.0106,0.0514
17:19:27:086,3.2331,-0.7982,9.8728,32.6016,-0.89,-2.6371,-0.1139,0.0587
17:19:27:106,4.1336,-1.6987,9.1081,32.8327,-1.3809,-2.799,-0.329,0.0617
17:19:27:126,4.4994,-1.9239,8.5501,32.8645,-1.4884,-2.4242,-0.6218,0.0617
17:19:27:145,4.2924,-1.8886,8.1419,33.0962,-1.4075,-1.5097,-0.7836,0.059
17:19:27:165,3.3592,-1.7552,8.1238,32.7824,-1.2829,-0.3183,-0.7069,0.0525
17:19:27:185,2.0353,-1.8451,8.5856,32.6316,-1.1168,0.6399,-0.4312,0.0418
17:19:27:205,0.843,-2.0269,9.3694,32.8735,-0.8986,1.1935,-0.0607,0.029
17:19:27:225,0.4897,-2.1806,9.9123,33.2922,-0.5334,1.3234,0.2406,0.0159
17:19:27:246,0.6715,-2,9.692,33.5064,0.0224,1.1317,0.2938,0.0063
17:19:27:266,1.1545,-1.5635,8.6969,33.8,0.6931,0.7304,0.1011,0.0033
17:19:27:286,2.1022,-0.6352,7.4768,33.9859,1.2126,0.3066,-0.3226,0.0085
17:19:27:305,2.5619,0.186,6.1453,34.086,1.4554,-0.0756,-0.8017,0.0202
17:19:27:326,1.7484,0.4785,4.818,34.2725,1.3564,-0.2875,-1.1754,0.0354
17:19:27:346,1.3836,1.3716,4.9746,34.3367,0.9113,-0.2268,-1.1988,0.0498
17:19:27:369,0.9999,2.1282,6.5349,34.452,0.3173,-0.05,-0.8358,0.0598
17:19:27:386,0.9693,2.3305,8.5708,34.4886,-0.1001,0.099,-0.2246,0.0619
17:19:27:405,0.9005,1.5708,10.3449,34.2935,-0.2076,0.2151,0.3258,0.0601
17:19:27:425,1.1439,0.5627,11.6099,34.4167,-0.1544,0.181,0.7005,0.0567
17:19:27:446,1.4318,-0.2036,12.2704,34.5038,-0.0937,0.0649,0.8123,0.0536
17:19:27:466,1.6463,-0.5604,12.7793,34.5696,-0.148,-0.0916,0.7282,0.0519
17:19:27:487,1.9556,-0.5354,13.1237,34.3658,-0.1576,-0.3183,0.4716,0.0504
17:19:27:505,2.2321,0.0303,13.2777,34.5901,-0.0681,-0.6005,0.131,0.0503
17:19:27:526,2.0962,0.5584,12.8689,34.3999,0.0607,-0.7484,-0.1661,0.053
17:19:27:545,1.4505,0.8233,12.5384,34.4811,0.0873,-0.5568,-0.1618,0.0562
17:19:27:566,0.9278,0.2837,12.848,34.7118,0.3173,-0.3087,0.2129,0.0589
17:19:27:588,1.4977,-0.5576,12.7236,34.7028,0.8943,-0.0905,0.6313,0.063
17:19:27:606,1.8382,-0.9966,11.2537,34.9002,1.2148,0.2214,0.8208,0.0706
17:19:27:625,1.319,-0.6762,10.6418,34.8765,1.0338,0.4578,1.0306,0.0789
17:19:27:646,0.4464,-1.1308,10.8018,35.0777,0.6792,0.5866,1.4863,0.084
17:19:27:666,0.1795,-1.481,10.8552,35.2385,0.5313,0.6707,1.9909,0.0849
17:19:27:686,0.8968,-1.3178,10.2721,35.0081,0.6601,0.3567,2.2113,0.0847
17:19:27:705,1.2802,-0.8555,9.0761,34.9739,0.7772,-0.477,2.1517,0.0877
17:19:27:725,0.7794,-0.2378,7.2311,34.9634,0.9028,-1.3606,1.9622,0.0961
17:19:27:745,0.5405,-0.0562,5.4322,34.6681,0.8538,-1.5523,1.6076,0.1089
17:19:27:766,0.8587,0.5202,4.4061,34.8371,0.6984,-1.5693,1.1488,0.1236
17:19:27:784,1.9724,1.0837,3.9495,34.7691,0.1427,-1.1147,0.7101,0.134
17:19:27:807,2.0977,1.6546,5.0812,34.5765,-0.2864,-0.5355,0.6218,0.1385
17:19:27:826,2.0434,1.9869,6.7917,35.0754,-0.0117,-0.0128,0.6154,0.1374
17:19:27:847,2.3347,2.0846,7.4793,35.0981,0.4706,0.28,0.7687,0.1364
17:19:27:865,2.9071,2.1147,7.5161,34.9681,0.7144,0.5153,0.8911,0.1373
17:19:27:884,3.304,2.2094,7.4849,34.8457,0.6303,0.6569,0.8698,0.1386
17:19:27:904,3.1077,2.5958,7.741,34.8045,0.3162,1.0135,0.8432,0.1381
17:19:27:925,3.5931,1.9224,8.6692,34.5646,-0.0969,1.4501,0.8741,0.1325
17:19:27:945,4.2663,2.1189,9.8,34.426,-0.4365,1.3116,0.6846,0.1217
17:19:27:965,4.4523,2.2928,10.6624,34.5025,-0.6611,0.593,0.3886,0.1109
17:19:27:985,3.9306,2.3648,11.3207,34.5747,-0.9678,-0.049,0.1757,0.1026
17:19:28:005,3.9073,1.7515,12.3056,34.5118,-1.268,-0.4248,0.1043,0.0953
17:19:28:025,4.5543,0.7365,13.2308,34.7644,-1.3521,-0.89,0.0053,0.0883
17:19:28:044,4.3698,-0.9399,13.8703,34.7528,-1.3489,-1.2254,-0.0394,0.0836
17:19:28:065,3.7536,-2.7622,13.9385,34.7547,-1.07,-1.564,-0.033,0.081
17:19:28:084,4.601,-3.2079,12.8367,34.6422,-0.5089,-2.0196,-0.0916,0.083
17:19:28:104,5.5165,-2.8409,10.9501,34.5747,-0.0043,-2.0548,-0.2129,0.0918
17:19:28:124,5.8783,-2.7072,9.3344,34.6044,0.1203,-1.2872,-0.2938,0.1032
17:19:28:145,5.3994,-2.2574,8.7921,34.5839,0.0053,-0.164,-0.2417,0.1101
17:19:28:166,4.1842,-2.6115,8.692,34.569,-0.1416,0.5621,-0.1725,0.1098
17:19:28:185,4.0794,-2.6055,8.3521,34.7413,-0.2236,0.6643,-0.1586,0.1057
17:19:28:205,4.132,-2.4864,7.708,34.9024,-0.2523,0.5856,-0.4184,0.1009
17:19:28:226,3.8373,-2.1248,7.0681,35.1024,-0.3034,0.4748,-0.7602,0.0969
17:19:28:247,3.597,-1.6299,6.8093,34.9892,-0.4227,1.2478,-1.0146,0.0933
17:19:28:266,2.641,-1.6371,6.1692,35.0769,-0.6856,2.5786,-1.0721,0.0827
17:19:28:286,3.8646,-0.6898,6.7467,35.0906,-0.938,2.7266,-1.1019,0.0645
17:19:28:306,4.4373,0.2491,7.8041,35.4459,-1.1051,1.9632,-1.1126,0.0447
17:19:28:326,3.7241,-0.164,8.3624,35.3855,-1.169,1.103,-1.2275,0.0271
17:19:28:346,3.055,-0.3513,9.0033,35.645,-1.136,0.6718,-1.3936,0.0156
17:19:28:366,2.8848,-0.496,10.2059,35.2651,-0.8496,0.6942,-1.5075,0.0051
17:19:28:386,1.6499,-0.9899,10.9009,35.168,-0.1554,0.9529,-1.5948,-0.0025
17:19:28:428,0.7612,-0.7582,11.5233,35.1425,0.6175,1.1477,-1.3021,-0.0056
17:19:28:430,0.0814,0.0724,11.0829,35.1866,1.2307,0.1938,-0.8954,-0.0021
17:19:28:445,0.6373,0.8502,10.2748,35.5432,1.6396,-0.7772,-0.8102,0.0111
17:19:28:467,0.3942,0.2505,9.5311,35.8117,1.6896,-1.4021,-0.9752,0.0334
17:19:28:486,0.4487,-0.8332,9.1236,36.0913,1.3798,-1.8908,-0.9326,0.0562
17:19:28:505,0.8147,-0.4006,9.3868,36.193,0.8741,-1.9334,-0.5781,0.0749
17:19:28:525,0.9264,0.53,9.2156,36.2855,0.4035,-1.6523,-0.3279,0.0902
17:19:28:544,0.9663,0.6821,9.0067,36.0001,-0.1001,-1.8972,-0.0245,0.1004
17:19:28:565,1.753,-0.5504,9.3164,35.9907,-0.5398,-2.157,0.4163,0.107
17:19:28:585,2.889,-1.5217,9.0347,35.9556,-0.7272,-1.8642,0.6132,0.1097
17:19:28:605,3.401,-1.5789,9.3124,36.1604,-0.5909,-1.087,0.477,0.109
17:19:28:627,2.504,-1.4116,10.2561,36.1382,-0.2513,-0.4727,0.5643,0.1065
17:19:28:645,1.4229,-1.4847,11.0819,36.5358,-0.0245,-0.1831,1.0583,0.104
17:19:28:665,1.734,-2.1215,11.1174,36.6971,-0.0767,0.1703,1.597,0.1006
17:19:28:685,2.779,-2.6521,10.4101,36.9361,-0.2491,0.6143,1.6704,0.094
17:19:28:705,3.2005,-2.4328,9.7395,37.2698,-0.264,0.9358,1.2414,0.0848
17:19:28:726,2.6191,-1.6372,9.3505,37.1346,0.0085,1.1541,0.7996,0.0758
17:19:28:746,1.8279,-0.8658,8.6619,36.8437,0.4461,1.1594,0.6452,0.0691
17:19:28:766,1.7332,-0.3551,7.7204,36.8779,0.84,1.0423,0.6729,0.0665
17:19:28:786,1.796,-0.1179,6.929,36.4834,1.0955,1.0444,0.7218,0.0675
17:19:28:805,1.9295,0.3615,6.5667,36.2837,1.2361,0.9305,0.7282,0.0704
17:19:28:824,2.2059,0.9332,6.5013,36.4221,1.2904,0.4716,0.642,0.0756
17:19:28:845,2.799,1.6072,6.6676,36.001,1.2243,-0.0532,0.527,0.0839
17:19:28:865,2.8424,2.0418,7.0152,36.1032,1.0157,-0.3801,0.4791,0.094
17:19:28:885,2.8129,2.0511,7.684,35.9438,0.6611,-0.5579,0.626,0.1036
17:19:28:905,3.4381,1.9668,8.3561,35.8935,0.2704,-0.8081,0.9624,0.1106
17:19:28:924,5.1453,2.0887,9.0502,35.9,0.0341,-0.9837,1.0306,0.1154
17:19:28:945,6.3977,2.1786,9.4661,35.6251,-0.1011,-1.251,0.7591,0.1197
17:19:28:966,7.1397,2.0215,9.7179,35.661,-0.2502,-1.3777,0.5462,0.1254
17:19:28:985,7.3791,1.4433,10.3706,35.5291,-0.4844,-1.1168,0.5909,0.1292
17:19:29:005,7.7285,0.2814,11.4506,35.4617,-0.675,-0.4929,0.8943,0.129
17:19:29:025,8.3748,-0.6486,12.3967,35.5718,-0.5419,0.1065,1.0519,0.1232
17:19:29:045,8.6878,-1.3536,12.8408,35.6143,-0.0873,0.4397,0.9018,0.1158
17:19:29:065,8.3312,-2.6981,12.6004,35.4376,0.4035,0.5302,0.576,0.1109
17:19:29:086,7.884,-3.6251,11.9913,35.5894,0.7048,0.5195,0.1427,0.1103
17:19:29:105,7.7562,-3.2,11.1067,35.6443,0.807,0.3343,-0.3875,0.1132
17:19:29:128,7.1608,-2.4076,9.9456,35.5489,0.7197,0.0277,-0.9497,0.1199
17:19:29:148,6.7511,-1.3776,8.6616,35.4232,0.4695,-0.1767,-1.3766,0.1272
17:19:29:166,5.9544,-0.8179,6.9312,35.4497,0.1033,-0.1448,-1.7343,0.1354
17:19:29:185,4.4792,-1.0952,5.4578,35.3178,-0.3503,0.2172,-1.9472,0.1391
17:19:29:206,3.132,-1.3262,5.0342,35.2407,-0.7921,0.906,-1.7418,0.1371
17:19:29:225,2.3391,-0.6784,5.9403,35.3779,-0.8943,1.3894,-1.3947,0.1277
17:19:29:245,1.9591,0.103,5.898,35.3826,-0.5653,1.3287,-1.2169,0.1157
17:19:29:266,1.467,0.9637,5.7413,35.2155,-0.1405,1.4096,-1.07,0.1057
17:19:29:286,0.8458,1.633,6.2841,35.2879,0.1842,1.5959,-0.7154,0.099
17:19:29:305,0.2229,2.3476,7.0822,35.6976,0.4248,1.7034,-0.132,0.094
17:19:29:325,0.514,2.7444,7.3593,35.4398,0.5376,1.5714,0.5483,0.0893
17:19:29:345,1.0752,1.9958,7.7325,35.3704,0.3503,1.4341,1.0593,0.0854
17:19:29:366,1.3475,0.5548,8.284,35.4536,-0.1235,1.5448,1.2989,0.0788
17:19:29:387,1.4737,-0.4067,9.3134,35.2924,-0.6271,1.5075,1.2116,0.0683
17:19:29:407,1.2346,-0.7803,10.3753,35.5495,-0.7804,1.2648,0.7453,0.0542
17:19:29:426,0.6966,-0.8379,11.0268,35.6438,-0.5121,0.8453,0.1182,0.0416
17:19:29:446,-0.3919,-0.8922,11.2464,35.8164,-0.1661,0.412,-0.2236,0.0342
17:19:29:466,-0.3238,-0.6725,11.3583,35.9242,0.1097,-0.2513,-0.3098,0.0317
17:19:29:486,-0.2463,0.0062,12.0247,35.8814,0.8208,-1.1136,-0.5185,0.0371
17:19:29:506,-0.0877,0.4983,12.0777,35.5605,1.5672,-1.318,-0.791,0.0522
17:19:29:526,0.2233,1.1846,11.3442,35.3563,1.9717,-0.774,-0.8347,0.0741
17:19:29:546,-0.5806,1.8328,9.4816,35.3406,1.3585,1.1967,-0.5589,0.0909
17:19:29:566,-0.9626,1.9297,9.2381,35.2931,0.6037,1.2297,0.0724,0.0947
17:19:29:585,-0.557,1.2928,9.4481,35.464,-0.0202,1.2382,0.3418,0.0922
17:19:29:605,-0.5266,0.6662,10.0265,35.3785,-0.4887,1.3819,0.3801,0.0843
17:19:29:625,-1.0633,0.0957,10.2866,35.3322,-1.0082,1.2265,0.2917,0.0721
17:19:29:645,-2.057,-1.0542,10.7906,35.261,-1.6225,1.0796,0.2108,0.0559
17:19:29:666,-2.4836,-1.8456,11.0005,35.0372,-2.0676,0.7591,0.1821,0.0358
17:19:29:685,-2.2248,-1.9077,10.9973,34.9967,-2.1368,0.2864,0.0586,0.0144
17:19:29:705,-1.7942,-1.5608,10.6227,34.7348,-1.6704,-0.1757,-0.1437,-0.0037
17:19:29:725,-1.3249,-0.9572,9.8669,34.8305,-0.7708,-0.5015,-0.3471,-0.0146
17:19:29:745,-0.9967,-0.5587,8.8485,34.9558,0.3045,-0.6835,-0.5217,-0.0158
17:19:29:766,-0.7983,-0.1698,8.0559,34.9619,1.2031,-0.7974,-0.5792,-0.0068
17:19:29:785,-0.4024,0.683,7.3845,34.8968,1.9558,-0.6643,-0.5387,0.0086
17:19:29:805,-0.1995,1.9,5.7942,34.9431,2.1389,-0.0554,-0.231,0.0293
17:19:29:825,0.0143,3.0386,4.9122,34.7936,1.4245,0.5909,0.4344,0.0455
17:19:29:845,0.8535,3.1272,5.4897,34.7766,0.6271,0.5557,0.7123,0.0529
17:19:29:866,1.2247,3.0971,6.8649,34.5746,0.0617,0.5888,0.6505,0.0539
17:19:29:885,1.0487,2.4121,8.4191,34.6358,-0.2065,0.6132,0.5664,0.0506
17:19:29:905,1.2087,2.3017,9.795,34.6198,-0.1693,0.4897,0.4472,0.0455
17:19:29:925,1.4166,2.6556,10.7602,34.8551,0.0671,0.2619,0.2513,0.0423
17:19:29:945,1.1988,2.9289,11.2419,35.0518,0.1799,0.1874,0.1352,0.042
17:19:29:965,0.6984,2.9183,11.9654,35.2665,0.0437,0.1661,0.1331,0.0423
17:19:29:985,0.2893,2.4823,13.1009,35.1196,-0.2236,-0.0373,0.2374,0.0414
17:19:30:006,0.7186,2.1738,14.238,35.0863,-0.3364,-0.4887,0.2694,0.0398
17:19:30:025,1.1628,1.6766,14.6904,35.0872,-0.197,-0.84,0.1224,0.0404
17:19:30:045,0.9426,0.5094,14.1143,34.8139,-0.082,-0.9997,-0.0106,0.044
17:19:30:065,0.9676,-0.2762,13.6663,34.7791,0.0319,-1.0923,-0.0213,0.0491
17:19:30:086,1.2537,-0.3594,13.1842,34.6381,0.2523,-1.0391,-0.0405,0.0566
17:19:30:105,1.52,-0.5428,12.4472,34.568,0.3205,-0.8602,-0.0554,0.0636
17:19:30:126,1.8083,-0.8219,11.5159,34.6512,0.2736,-0.6175,-0.2268,0.0712
17:19:30:146,1.4113,-0.8645,10.4482,34.4134,0.1384,-0.379,-0.4876,0.0758
17:19:30:166,1.0186,-0.7958,9.4258,34.4566,-0.0511,-0.3992,-0.7208,0.079
17:19:30:186,0.7852,-0.7295,8.2775,34.2549,-0.1576,-0.5568,-1.0082,0.0809
17:19:30:205,0.5019,-0.5166,7.2646,33.9968,-0.2427,-0.5749,-1.1583,0.0828
17:19:30:226,0.4398,-0.2169,6.8589,33.8486,-0.1214,-0.5046,-1.2275,0.0844
17:19:30:246,0.4464,0.1667,6.5018,33.9099,0.1757,-0.4386,-1.2808,0.087
17:19:30:266,0.3749,0.7794,6.1281,33.7017,0.5238,-0.1938,-1.2435,0.0918
17:19:30:285,0.2876,1.6231,5.6592,33.7484,0.7495,0.1373,-1.087,0.098
17:19:30:305,0.1914,2.4882,5.7773,33.7084,0.7101,0.4184,-0.84,0.104
17:19:30:324,0.2005,2.7682,6.599,33.4785,0.4929,0.4621,-0.5802,0.108
17:19:30:344,0.2087,2.6119,7.6141,33.2906,0.2161,0.4546,-0.3662,0.1098
17:19:30:365,0.217,2.203,8.4571,32.9456,-0.0426,0.3524,-0.2364,0.1092
17:19:30:385,0.3316,1.9158,8.9672,33.1515,-0.2055,0.0245,-0.2278,0.1072
17:19:30:429,0.6445,1.9311,9.2864,33.4674,-0.2747,-0.3077,-0.3545,0.1056
17:19:30:430,0.6183,1.7934,9.4299,33.6664,-0.3918,-0.5046,-0.5153,0.1048
17:19:30:446,0.617,1.5619,9.7654,33.6362,-0.5951,-0.5824,-0.5579,0.1035
17:19:30:465,0.5513,1.9547,10.0397,33.6624,-0.7612,-0.4003,-0.5323,0.1005
17:19:30:485,1.3119,1.2996,11.0184,33.8251,-0.824,-0.7197,-0.5685,0.0958
17:19:30:505,1.5691,1.1686,10.707,33.7594,-0.8773,-0.9348,-0.8656,0.0921
17:19:30:525,1.2352,0.7407,10.6993,33.7647,-0.8634,-0.8123,-1.1498,0.0891
17:19:30:545,0.4924,0.1708,11.8283,33.9007,-0.8453,-0.4472,-1.0146,0.085
17:19:30:567,-0.207,-0.2397,12.9666,34.0863,-0.4365,-0.115,-0.6356,0.0797
17:19:30:587,-0.5174,-0.3962,13.2788,33.8781,0.23,0.3386,-0.0884,0.0773
17:19:30:606,-0.4731,-0.5387,12.1742,33.927,0.5557,0.7687,0.4301,0.0782
17:19:30:626,-0.2689,-0.5583,10.9159,34.1327,0.3215,0.9209,0.6622,0.0791
17:19:30:646,-0.6087,-0.5396,10.2795,33.8607,0.0596,0.7868,0.5302,0.0774
17:19:30:666,-0.9472,-0.236,9.6109,34.0162,-0.1033,0.3077,0.4759,0.0747
17:19:30:686,-1.0376,0.248,8.6494,33.6816,-0.1554,-0.1789,0.4823,0.0727
17:19:30:706,-0.833,0.5074,7.4982,33.3992,-0.1714,-0.477,0.5472,0.0721
17:19:30:726,-0.589,0.7234,6.7434,33.1654,-0.1416,-0.477,0.6494,0.0723
17:19:30:746,-0.4169,0.9164,6.3504,33.0453,-0.0181,-0.2119,0.7687,0.0725
17:19:30:766,-0.2347,1.0453,5.9854,32.8418,0.1586,0.082,0.8943,0.0725
17:19:30:786,0.1269,1.2905,5.6835,32.9343,0.2811,0.3662,0.9944,0.0729
17:19:30:805,0.5999,1.5377,5.9669,32.6186,0.3109,0.6867,1.0327,0.0727
17:19:30:825,0.9971,1.5666,6.7087,32.7461,0.2374,0.9965,1.0263,0.0712
17:19:30:845,1.3864,1.468,7.5522,32.6859,0.1192,1.2627,0.9678,0.0676
17:19:30:865,1.4788,1.2582,8.9418,32.6729,0.0043,1.5001,0.8091,0.0617
17:19:30:885,1.2227,0.9924,10.6555,32.9595,0.1427,1.6736,0.7176,0.0542
17:19:30:905,1.1271,1.0409,11.4717,32.987,0.5142,1.746,0.5866,0.0479
17:19:30:925,1.1305,1.7746,11.4451,33.0994,0.7634,1.6098,0.3577,0.0446
17:19:30:945,1.0435,2.7035,11.5516,33.2795,0.7037,1.2904,0.1224,0.0436
17:19:30:966,0.601,3.3534,11.91,33.4156,0.4195,0.8358,-0.1384,0.0432
17:19:30:985,0.0142,3.2803,12.9501,33.5851,0.116,0.3215,-0.3481,0.0423
17:19:31:006,-0.1799,3.14,13.9268,33.6639,0.1746,-0.0788,-0.4195,0.0418
17:19:31:025,-0.1472,3.0613,13.8428,33.7625,0.3556,-0.1576,-0.4376,0.0441
17:19:31:046,-0.303,2.6388,13.5865,33.9799,0.3716,-0.1352,-0.3599,0.0482
17:19:31:065,-0.2635,1.9577,13.5744,33.9909,0.4141,-0.2523,-0.1586,0.0517
17:19:31:085,0.1396,1.4499,12.9389,33.9302,0.4344,-0.4759,-0.0117,0.0569
17:19:31:105,0.616,1.2687,11.6203,33.9421,0.2246,-0.922,-0.0437,0.0631
17:19:31:125,0.7091,1.0778,9.9541,33.735,-0.2938,-1.4948,-0.264,0.069
17:19:31:145,0.4306,0.8111,8.592,33.5677,-0.9348,-2.1389,-0.4312,0.0729
17:19:31:165,0.2478,0.2728,7.3031,33.8275,-1.4469,-2.6169,-0.4312,0.0745
17:19:31:185,0.7189,-0.1341,6.1773,34.1125,-1.6758,-2.6712,-0.3588,0.0743
17:19:31:205,1.3708,-0.4285,5.1614,34.7507,-1.5139,-1.9472,-0.3481,0.0722
17:19:31:225,1.3739,-0.3252,4.348,35.1059,-1.0487,-0.4887,-0.3471,0.0674
17:19:31:246,0.9387,0.053,3.917,35.4644,-0.5259,1.2999,-0.2843,0.0592
17:19:31:266,0.1201,0.7658,4.0524,35.7274,-0.2821,2.6063,-0.1192,0.0474
17:19:31:285,-0.5005,1.2196,6.4946,35.5689,-0.2321,3.1503,0.2459,0.0321
17:19:31:305,-1.0273,0.8089,9.0922,35.3384,0.0373,2.7244,0.6175,0.0165
17:19:31:324,-1.3164,0.2005,10.5156,35.5154,0.478,2.0069,0.922,0.0062
17:19:31:344,-1.3574,0.113,10.6672,35.724,0.7889,1.2052,0.9933,0.0033
17:19:31:365,-1.5738,-0.1876,10.2168,35.8733,0.5036,0.7208,0.9007,0.0052
17:19:31:384,-1.2631,-0.5108,10.6032,36.3194,0.0437,0.1661,0.691,0.0058
17:19:31:404,-1.1583,-0.7839,11.0071,36.6494,-0.2726,-0.3247,0.3641,0.0054
17:19:31:425,-1.2513,-0.6919,11.0385,36.9249,-0.4067,-0.6537,-0.0128,0.0046
17:19:31:445,-1.287,-0.1294,10.7286,37.7766,-0.3865,-0.7165,-0.3524,0.0044
17:19:31:465,-1.604,0.5045,10.6326,38.3085,-0.2044,-0.3034,-0.5472,0.0045
17:19:31:485,-2.1281,1.0536,9.9891,38.5007,-0.0969,0.2033,-0.6207,0.0038
17:19:31:504,-2.9151,1.5347,9.2499,38.9383,-0.4131,0.6675,-0.4695,0.0009
17:19:31:525,-3.6846,1.2012,9.5783,39.1316,-0.9326,1.0231,-0.0437,-0.0078
17:19:31:545,-4.0967,0.1358,10.6007,39.1561,-1.0891,1.1488,0.4205,-0.0215
17:19:31:565,-4.6128,-1.0629,11.3654,39.2685,-1.0135,1.3021,0.823,-0.0364
17:19:31:584,-4.8775,-2.1124,11.9399,39.2821,-0.9688,1.2222,1.1083,-0.051
17:19:31:605,-4.8258,-2.8455,11.8456,39.7145,-1.0285,0.9273,1.1988,-0.0646
17:19:31:625,-4.7808,-2.9663,12.1135,40.2673,-0.9443,0.6271,1.0519,-0.0773
17:19:31:645,-4.4461,-2.4478,11.8108,40.4623,-0.4897,0.1586,0.7591,-0.0867
17:19:31:665,-3.6866,-1.7052,10.4563,40.6139,-0.23,-0.2225,0.4567,-0.0901
17:19:31:685,-2.8448,-1.1089,9.2616,40.762,-0.2651,-0.6047,0.2385,-0.0904
17:19:31:704,-2.0891,-0.6357,8.3433,41.0263,-0.1608,-1.0764,0.083,-0.0886
17:19:31:724,-1.399,-0.1775,7.2249,41.1744,-0.0032,-1.4032,-0.082,-0.0834
17:19:31:746,-0.938,0.2704,6.4853,41.5088,0.1437,-1.6172,-0.164,-0.0753
17:19:31:766,-0.6525,0.7289,6.1763,41.3909,0.2906,-1.7152,-0.1395,-0.064
17:19:31:785,-0.3111,1.154,6.1535,41.2458,0.4141,-1.7152,-0.0128,-0.0532
17:19:31:805,-0.0473,1.3583,6.4906,41.3029,0.5195,-1.5576,0.2374,-0.0405
17:19:31:825,0.1034,1.2963,6.7032,41.0488,0.5589,-1.235,0.4865,-0.0281
17:19:31:846,-0.1626,1.1177,7.6637,40.891,0.3503,-0.8464,0.725,-0.017
17:19:31:866,-0.7362,1.058,9.7497,41.1657,0.214,-0.7453,1.0732,-0.0112
17:19:31:885,-0.21,0.9019,10.9369,41.1837,0.3119,-0.972,1.3851,-0.0055
17:19:31:905,0.222,0.8916,11.5086,41.3694,0.3567,-1.1008,1.3723,0.0021
17:19:31:926,0.3713,1.0995,11.7512,41.7653,0.2662,-1.1913,1.2105,0.0114
17:19:31:945,0.5541,1.0934,12.2049,42.2091,0.0383,-1.071,1.1434,0.0186
17:19:31:966,1.1183,0.678,13.1832,42.3892,-0.1501,-0.8496,1.1807,0.024
17:19:31:985,1.7859,-0.1165,14.1644,42.5337,-0.1501,-0.7559,1.2233,0.0264
17:19:32:005,2.7658,-0.9158,14.4353,42.595,0.1352,-0.8091,1.0913,0.0292
17:19:32:025,3.5573,-1.6632,13.6521,42.7544,0.5632,-0.889,0.7005,0.0352
17:19:32:046,4.2017,-1.9885,12.405,43.1185,0.9358,-0.9869,0.263,0.0454
17:19:32:065,4.6159,-1.8589,10.8698,43.2777,1.0444,-0.9231,-0.0234,0.059
17:19:32:085,4.8612,-1.5551,9.6373,43.4911,0.7516,-0.6122,-0.1427,0.0722
17:19:32:105,4.81,-1.6346,9.4613,43.6346,0.2321,-0.1448,-0.1576,0.0805
17:19:32:125,4.5284,-2.0109,10.1096,43.7604,-0.0096,0.1395,-0.2332,0.0823
17:19:32:145,4.0982,-2.1116,10.1123,43.7487,0.1192,0.3343,-0.3492,0.0815
17:19:32:166,3.6926,-1.8329,9.45,43.795,0.4759,0.4653,-0.4589,0.0809
17:19:32:184,3.3994,-1.3473,8.2802,43.6714,0.8145,0.4163,-0.6697,0.0826
17:19:32:204,3.1935,-0.7169,7.0952,43.5365,0.9667,0.2992,-0.9358,0.0875
17:19:32:225,2.8336,-0.1266,6.3271,43.5444,0.9795,0.1522,-1.1253,0.0943
17:19:32:246,2.6139,0.5352,6.0246,43.1945,0.8815,-0.1416,-1.2467,0.1021
17:19:32:266,2.6902,1.1754,5.9264,43.0217,0.6963,-0.5866,-1.2978,0.1111
17:19:32:284,3.1924,1.5916,5.7456,42.9608,0.3854,-1.0817,-1.2967,0.1212
17:19:32:304,3.3735,1.1122,5.3205,43.0079,-0.0607,-1.1136,-1.2393,0.1309
17:19:32:325,3.1604,0.4361,5.8596,42.9131,-0.5962,-0.8358,-1.2978,0.1362
17:19:32:346,2.9414,-0.0261,6.3899,42.8793,-1.1328,-0.8027,-1.5608,0.1361
17:19:32:365,2.9538,-0.2002,6.9159,43.3308,-1.7333,-0.8805,-1.9824,0.1319
17:19:32:385,1.8311,-0.6699,8.221,43.267,-2.1942,-0.4908,-2.2475,0.1232
17:19:32:405,-0.1381,-0.8736,9.4987,43.321,-2.3412,0.2161,-2.1399,0.1084
17:19:32:437,-0.9334,-0.5343,10.2561,43.4379,-2.2975,0.9624,-1.7514,0.0884
17:19:32:444,0.5202,-0.1902,11.4446,43.1926,-2.0761,0.8986,-1.2627,0.0655
17:19:32:466,0.5463,-0.5485,11.8146,42.9073,-1.5629,0.346,-1.0785,0.046
17:19:32:485,-0.4306,-1.2458,11.8621,42.6554,-0.9944,-0.1778,-1.0008,0.0338
17:19:32:505,-0.1035,-1.8209,11.6412,42.6939,-0.6782,-0.4908,-0.824,0.0279
17:19:32:525,0.4626,-1.9121,11.701,42.6047,-0.4557,-0.4727,-0.7793,0.0252
17:19:32:544,-0.8108,-2.3907,11.8266,42.5074,-0.363,-0.4078,-0.7005,0.0243
17:19:32:565,-2.0208,-3.0646,13.2862,42.5072,-0.5483,-0.7314,-0.3418,0.0232
17:19:32:584,-1.5982,-3.1757,12.7028,42.4554,-0.7815,-0.5015,0.016,0.0209
17:19:32:604,-0.7474,-3.0923,12.1286,42.4663,-0.9241,-0.3992,0.2566,0.015
17:19:32:625,0.1081,-2.83,10.9076,42.3324,-0.8656,-0.4322,0.2651,0.0076
17:19:32:646,0.527,-2.0661,9.5452,42.1465,-0.6228,-0.3833,0.1256,0.0011
17:19:32:666,0.6095,-1.3073,8.3361,41.9576,-0.296,-0.2321,0.0788,-0.0028
17:19:32:685,0.654,-0.6452,7.6949,41.8594,0.0426,-0.0671,0.0894,-0.0044
17:19:32:705,0.029,-0.5334,6.7034,42.0188,0.4173,0.395,0.1118,-0.0039
17:19:32:727,-0.6522,-0.5119,5.2827,41.9952,0.9081,1.7716,0.0043,-0.0029
17:19:32:745,0.333,0.4765,5.4054,41.7689,1.2488,2.6329,-0.0319,-0.0025
17:19:32:766,1.6466,1.7231,6.6076,41.519,1.4596,2.6478,-0.0554,-0.0016
17:19:32:785,2.1199,2.7387,8.3188,40.9089,1.3415,1.0391,-0.0106,0.0031
17:19:32:806,1.8781,2.2,9.5508,40.5999,0.972,-0.576,-0.0319,0.0135
17:19:32:825,1.2547,0.8928,9.5356,40.55,0.0788,-1.5491,0.2257,0.0242
17:19:32:845,1.8862,0.2278,10.2511,40.3122,-0.7825,-0.5483,0.6175,0.0276
17:19:32:866,2.9872,1.1298,11.8285,40.3346,-0.7932,-0.0703,0.9412,0.0205
17:19:32:885,3.0109,1.5045,12.5703,40.3636,-0.1341,-0.1107,1.1988,0.0133
17:19:32:905,2.6848,1.2076,12.9549,40.1486,0.477,-0.1363,1.6215,0.0122
17:19:32:926,1.7701,-0.3539,13.8347,39.9489,0.8208,0.527,2.2145,0.0146
17:19:32:944,2.4129,-0.9841,14.8557,39.8129,1.2339,1.285,2.6031,0.016
17:19:32:965,3.8182,-0.7097,15.5714,39.5459,1.8727,1.0572,2.2262,0.0191
17:19:32:984,3.9654,-0.3088,13.974,39.3922,2.5158,0.4716,1.3819,0.031
17:19:33:005,3.4613,-0.6964,11.8992,39.0463,2.6819,-0.131,0.6611,0.0513
17:19:33:024,3.506,-0.1899,9.6039,39.2434,2.0899,0.0128,0.1469,0.074
17:19:33:045,3.7802,0.615,8.4177,38.8404,1.1317,0.0543,-0.1884,0.0896
17:19:33:065,3.3636,1.1595,7.8699,38.528,0.2353,-0.1927,-0.4184,0.0976
17:19:33:085,1.8942,0.6407,7.5115,38.4483,-0.6601,-0.1629,-0.3535,0.099
17:19:33:106,1.1672,-0.1607,8.1403,38.3871,-1.2531,0.0138,-0.099,0.0927
17:19:33:124,1.1589,-0.2658,8.3618,38.1613,-1.3659,-0.1075,0.0394,0.0816
17:19:33:144,1.1638,0.1167,6.9596,38.3789,-1.1903,-0.0256,0.2321,0.071
17:19:33:166,1.7944,0.028,6.2311,38.781,-0.8507,0.857,0.1522,0.0605
17:19:33:185,1.2545,1.0508,5.957,38.5249,-0.3513,2.108,-0.2119,0.0479
17:19:33:205,0.5393,1.487,5.8447,38.3987,0.2161,2.6776,-0.395,0.034
17:19:33:224,-0.7273,0.4237,6.6116,38.3837,0.7112,2.0665,-0.2427,0.0233
17:19:33:244,-0.3786,2.8568,8.3304,37.8303,1.3862,1.3894,0.066,0.0217
17:19:33:265,-1.8967,1.5758,8.8078,37.6091,1.1488,1.8397,0.4163,0.0257
17:19:33:285,-1.706,1.5261,9.9038,37.5601,1.2403,1.1871,0.7506,0.0275
17:19:33:304,-0.5482,0.8729,9.7339,37.5005,0.8826,0.9113,0.7027,0.0324
17:19:33:324,-0.2556,0.1426,10.3345,37.4678,0.3481,0.8315,0.2289,0.0341
17:19:33:345,-0.9728,-0.1405,10.7056,37.6114,-0.1107,0.4887,-0.3982,0.0317
17:19:33:367,-1.8773,-0.2308,11.0198,37.7233,-0.4791,0.544,-0.791,0.0256
17:19:33:384,-3.0606,-0.0784,11.3247,37.571,-0.5355,0.2055,-1.0029,0.0187
17:19:33:404,-4.2836,0.2256,11.8567,37.4991,-0.2417,-0.2151,-0.8826,0.0129
17:19:33:424,-3.963,0.8332,11.5216,37.4518,0.4269,-0.7399,-0.7154,0.0133
17:19:33:445,-3.3116,1.7365,10.1101,37.2167,0.988,-1.087,-0.6558,0.0221
17:19:33:466,-2.9438,2.548,7.2707,37.3299,0.9039,-0.791,-0.2811,0.0362
17:19:33:485,-2.7596,2.0533,6.085,37.231,0.0405,-0.0106,0.2183,0.0451
17:19:33:504,-2.4007,1.3908,6.4972,37.0754,-0.6548,0.3694,0.411,0.0436
17:19:33:526,-2.2794,0.6168,7.7351,37.1457,-1.0934,0.7506,0.3907,0.0337
17:19:33:545,-3.1758,-0.1534,8.9278,37.1596,-1.2009,0.7868,0.2385,0.0216
17:19:33:566,-4.2748,-1.2657,9.8862,37.2568,-1.383,0.6665,0.1118,0.0055
17:19:33:584,-4.8944,-1.7175,10.496,37.3934,-1.812,0.3407,0.0319,-0.0085
17:19:33:606,-4.7475,-1.8003,11.692,37.5315,-2.1357,-0.0256,0.0256,-0.0286
17:19:33:625,-3.8657,-1.3775,12.428,37.3358,-1.7971,-0.988,-0.0745,-0.0433
17:19:33:644,-2.984,-0.6431,11.416,37.4807,-1.0593,-1.7961,-0.1576,-0.0509
17:19:33:665,-2.2447,0.2285,9.2991,37.3883,-0.4269,-2.0995,0.0351,-0.0485
17:19:33:685,-1.4851,0.8639,7.4497,37.3978,-0.0479,-1.8216,0.1405,-0.0405
17:19:33:705,-1.0124,1.4444,6.689,37.3916,0.1629,-1.284,0.2832,-0.0317
17:19:33:725,-0.9411,1.4204,6.8612,37.4288,0.4163,-0.3652,0.5643,-0.0244
17:19:33:745,-0.207,1.7923,7.7981,37.4996,0.6888,0.5132,0.8581,-0.02
17:19:33:766,0.0355,1.7697,9.082,37.4415,1.0114,0.8187,0.9262,-0.0165
17:19:33:785,1.0098,1.5701,10.7021,37.1107,1.3638,0.9284,0.9199,-0.0122
17:19:33:805,1.4168,0.5021,11.2374,36.9624,1.5118,0.8038,0.791,-0.005
17:19:33:825,1.1526,0.9328,10.887,37.1608,1.5171,0.5259,0.4919,0.0039
