Time,Acc_X,Acc_Y,Acc_Z,Meg,Gyr_X,Gyr_Y,Gyr_Z,Ore
17:08:27:598,1.3891,2.3298,8.4106,51.092,-0.1757,-0.3428,0.2427,0.1431
17:08:27:599,1.5711,2.3191,8.702,51.1729,-0.2502,-0.0894,0.2545,0.1439
17:08:27:615,1.4185,2.2533,9.1697,51.1237,-0.2555,0.0298,0.1991,0.1427
17:08:27:635,1.0167,2.2125,10.1985,51.4137,-0.1608,0.2555,0.1278,0.1405
17:08:27:655,0.8434,1.5042,11.6262,51.3157,0.2523,0.1512,-0.1395,0.1378
17:08:27:675,1.3041,0.878,11.6802,51.291,0.8922,-0.4674,-0.7495,0.1375
17:08:27:695,1.9248,0.9356,10.4441,51.2799,1.3606,-0.9827,-1.5374,0.1452
17:08:27:715,2.2983,1.6788,8.9408,51.1626,1.3947,-1.0391,-2.1719,0.1602
17:08:27:735,1.8364,2.5926,7.886,51.1649,1.0785,-0.9816,-2.4349,0.1774
17:08:27:755,0.7871,4.6901,6.7783,51.0791,0.5153,-0.8773,-1.8951,0.192
17:08:27:777,0.6616,6.9835,6.5608,51.0943,-0.0117,-0.4046,-0.4557,0.2019
17:08:27:796,0.6326,5.6794,7.1944,51.2443,-0.1341,-0.3801,0.1107,0.2052
17:08:27:816,1.2401,4.8152,6.9206,51.3639,-0.148,-0.1554,0.2225,0.206
17:08:27:835,1.6413,4.3553,6.6721,51.2286,-0.1224,0.1735,0.164,0.2058
17:08:27:856,1.4128,4.2714,6.6554,51.2873,-0.1884,0.5515,-0.0096,0.2042
17:08:27:876,0.6879,4.4691,7.0796,51.2836,-0.3599,0.7953,-0.0319,0.2006
17:08:27:896,0.2261,4.7977,7.9286,51.129,-0.5238,0.7857,0.1022,0.1944
17:08:27:916,0.3291,4.8242,8.6187,51.4729,-0.5813,0.6367,0.2364,0.1864
17:08:27:936,0.4143,4.5575,8.9717,51.9737,-0.543,0.5132,0.2949,0.1783
17:08:27:956,0.4116,4.2864,9.1935,51.7533,-0.5036,0.478,0.3013,0.171
17:08:27:976,0.3085,4.1452,9.545,51.792,-0.4344,0.4376,0.3066,0.1642
17:08:27:996,0.3446,4.0652,9.8796,51.6459,-0.3428,0.3609,0.3524,0.1582
17:08:28:016,0.5301,3.9901,10.0067,51.6903,-0.263,0.2278,0.3833,0.1533
17:08:28:036,0.7702,3.8464,10.0627,51.7187,-0.2417,0.1427,0.4035,0.1496
17:08:28:056,0.9186,3.5809,10.197,51.9027,-0.2875,0.1437,0.3907,0.1468
17:08:28:076,0.9228,3.6292,10.6721,52.1226,-0.3471,0.1916,0.3439,0.1438
17:08:28:096,0.8428,3.5638,11.1412,52.3106,-0.3641,0.1597,0.3343,0.1401
17:08:28:116,0.8543,3.1648,11.2029,52.492,-0.3407,0.049,0.3332,0.1361
17:08:28:136,0.8848,2.4748,10.9311,52.7256,-0.3535,0.0234,0.2853,0.1328
17:08:28:156,0.5788,1.8179,10.9806,52.8065,-0.3716,0.2172,0.198,0.1298
17:08:28:176,0.0842,1.3777,11.4193,53.2214,-0.23,0.4259,0.1746,0.1258
17:08:28:196,-0.1966,1.1311,11.4256,53.5967,0.083,0.4823,0.2342,0.1215
17:08:28:216,-0.4151,0.9296,10.8562,53.8394,0.362,0.4322,0.3077,0.119
17:08:28:236,-0.5183,0.6997,10.0097,54.1043,0.4834,0.3524,0.3875,0.1193
17:08:28:256,-0.5747,0.5267,9.2981,54.0404,0.4184,0.2406,0.4599,0.1214
17:08:28:276,-0.4001,0.6307,8.7712,54.196,0.2779,0.0788,0.4897,0.1238
17:08:28:296,-0.071,0.9669,8.313,54.173,0.1586,-0.0756,0.4834,0.126
17:08:28:316,0.2408,1.1466,7.8252,54.4001,0.0415,-0.0894,0.4525,0.1279
17:08:28:336,0.401,1.3239,7.6774,54.5358,-0.0138,0.0181,0.3545,0.1292
17:08:28:356,0.4097,1.6327,7.6295,54.4368,0.0383,0.1256,0.2321,0.1293
17:08:28:376,0.1924,1.9864,7.503,54.7872,0.1278,0.1757,0.1544,0.129
17:08:28:397,-0.0086,2.2861,7.328,54.4918,0.1427,0.1938,0.1214,0.129
17:08:28:416,-0.076,2.4361,7.1725,54.4734,0.0692,0.1746,0.1097,0.1292
17:08:28:436,-0.1635,2.5575,7.2266,54.4686,-0.0362,0.2108,0.0948,0.129
17:08:28:457,-0.3322,2.6995,7.5877,54.851,-0.1491,0.2459,0.1054,0.1279
17:08:28:477,-0.6652,2.672,8.3232,54.757,-0.1916,0.263,0.1235,0.1256
17:08:28:497,-0.7795,2.8446,9.0204,54.7726,-0.0798,0.1554,0.132,0.1226
17:08:28:517,-0.7698,3.1391,9.3293,55.27,0.0926,0.0479,0.0958,0.1207
17:08:28:536,-0.8054,3.4868,9.3819,55.5445,0.1842,-0.0586,0.0948,0.1207
17:08:28:557,-0.78,3.6602,9.4206,55.763,0.1352,-0.1735,0.1586,0.1223
17:08:28:578,-0.646,3.6761,9.7933,55.9425,-0.0309,-0.2896,0.2704,0.1245
17:08:28:597,-0.2388,3.6129,10.5876,55.9609,-0.1416,-0.3641,0.3801,0.1261
17:08:28:617,0.4424,3.3528,11.3362,55.8931,-0.0607,-0.3364,0.3918,0.1272
17:08:28:637,1.1243,3.326,11.7057,56.0421,0.1118,-0.2332,0.2864,0.1285
17:08:28:657,1.5227,3.268,11.9311,56.0246,0.2694,-0.1725,0.0777,0.1306
17:08:28:678,1.6476,3.3235,12.0044,56.2597,0.4067,-0.2374,-0.1703,0.1335
17:08:28:697,1.6677,3.4264,11.9576,56.3932,0.5696,-0.3418,-0.4014,0.1377
17:08:28:717,1.2001,3.0702,11.3497,56.4872,0.6377,-0.3556,-0.4983,0.1437
17:08:28:737,0.6838,2.7485,11.0569,56.5892,0.5387,-0.2938,-0.3886,0.1507
17:08:28:757,0.6901,2.4625,11.2796,56.4925,0.5291,-0.2906,-0.1597,0.1569
17:08:28:777,1.07,2.032,10.9807,56.6402,0.7133,-0.313,0.0362,0.1626
17:08:28:797,1.5025,1.4676,9.9126,56.7662,0.8666,-0.3375,0.1618,0.1697
17:08:28:816,1.894,1.0692,8.6449,56.7444,0.7772,-0.3194,0.1831,0.1784
17:08:28:836,2.1475,0.8711,7.8301,56.8225,0.4621,-0.296,0.132,0.1869
17:08:28:856,2.1204,0.915,7.551,56.7495,0.082,-0.3364,0.0511,0.1931
17:08:28:876,2.0998,0.8285,7.5275,56.6581,-0.197,-0.4418,-0.0373,0.1963
17:08:28:897,2.1255,0.7416,7.2489,56.7839,-0.3375,-0.4951,-0.1991,0.1974
17:08:28:918,1.9832,0.7874,6.9744,56.7415,-0.3961,-0.4333,-0.4472,0.1975
17:08:28:937,1.626,1.0876,6.6394,56.7961,-0.3886,-0.3034,-0.7176,0.1966
17:08:28:957,1.0779,1.5745,6.3539,56.8974,-0.3407,-0.1001,-0.8869,0.1951
17:08:28:978,0.5511,2.2787,6.2227,56.5704,-0.2843,0.1065,-0.8719,0.1927
17:08:28:997,0.2193,2.8852,6.0607,56.5634,-0.3215,0.2087,-0.6739,0.1898
17:08:29:017,0.3223,3.1456,6.0767,56.6805,-0.5153,0.2257,-0.3992,0.1861
17:08:29:038,0.7374,2.9912,6.4638,56.7469,-0.7304,0.264,-0.198,0.181
17:08:29:058,1.1695,3.0656,7.1286,56.9444,-0.8517,0.3471,-0.1586,0.1739
17:08:29:077,1.3054,3.3677,7.9252,57.0759,-0.906,0.4184,-0.1608,0.1652
17:08:29:097,1.0724,3.506,8.9886,57.0942,-0.9582,0.3918,-0.0969,0.1556
17:08:29:117,1.0597,3.4279,10.1553,57.1347,-0.8837,0.2704,0.0117,0.1454
17:08:29:137,1.1817,3.2316,10.9514,57.2005,-0.6707,0.2949,0.0713,0.1361
17:08:29:158,1.1891,3.1238,11.7897,57.0904,-0.4184,0.3822,0.0852,0.1285
17:08:29:177,1.03,3.012,12.2978,57.2947,-0.2119,0.3183,0.1001,0.1225
17:08:29:197,0.9929,2.9354,12.5711,57.0545,-0.0979,0.132,0.116,0.1186
17:08:29:218,1.0374,2.5851,12.7029,57.001,0.0138,-0.0692,0.1097,0.1166
17:08:29:238,0.8273,2.0975,12.5537,56.6183,0.1224,-0.1299,0.082,0.1166
17:08:29:258,0.2932,1.2704,12.5431,56.6046,0.1714,-0.0224,0.1086,0.118
17:08:29:277,0.1492,0.6122,12.7827,56.3634,0.3119,-0.0032,0.1086,0.1197
17:08:29:297,0.3498,0.1783,11.9715,56.3526,0.5728,-0.1725,-0.0149,0.1219
17:08:29:316,0.4795,0.0875,10.4554,56.1803,0.6643,-0.2779,-0.2097,0.1267
17:08:29:337,0.2402,0.366,9.1809,55.9631,0.4791,-0.263,-0.395,0.1335
17:08:29:357,-0.1214,0.73,8.8859,55.7908,0.0692,-0.2012,-0.444,0.1394
17:08:29:377,-0.3759,0.8423,9.3098,55.5343,-0.3141,-0.1629,-0.3737,0.1419
17:08:29:397,-0.3566,0.9041,9.7407,55.4669,-0.4259,-0.1608,-0.2747,0.1407
17:08:29:419,-0.1538,1.0661,9.7782,55.3097,-0.2949,-0.1278,-0.1703,0.1379
17:08:29:436,0.2292,1.1793,9.2594,55.3018,-0.0958,-0.1491,-0.1139,0.1356
17:08:29:457,0.5032,1.3579,8.6155,55.2153,0.0948,-0.2566,-0.1544,0.135
17:08:29:477,0.5002,1.5355,7.9634,55.0955,0.214,-0.4078,-0.2417,0.1365
17:08:29:497,0.3241,1.869,7.5275,55.2755,0.2885,-0.5472,-0.3034,0.1397
17:08:29:517,0.2443,2.2794,7.2555,55.4405,0.4024,-0.7037,-0.3194,0.1445
17:08:29:537,0.2738,2.7933,6.8387,55.3277,0.5015,-0.7846,-0.2992,0.1509
17:08:29:558,0.3051,3.2485,6.5025,55.3319,0.5387,-0.8006,-0.2183,0.1587
17:08:29:586,0.4245,3.5248,6.361,55.0981,0.4514,-0.824,-0.1278,0.1672
17:08:29:596,0.544,3.5571,6.3586,54.8878,0.2491,-0.7527,0.0053,0.1752
17:08:29:616,1.0575,3.3595,6.714,54.7296,-0.0043,-0.5153,0.0713,0.1815
17:08:29:636,1.4849,3.1048,7.5956,54.7956,-0.1288,-0.1874,-0.0192,0.1848
17:08:29:656,1.7041,3.1485,8.4271,54.6096,-0.0522,0.1693,-0.1789,0.1852
17:08:29:675,1.6553,3.6347,9.1071,54.6376,0.033,0.3194,-0.3119,0.1841
17:08:29:697,1.3265,3.7851,9.3576,54.3878,-0.0149,0.2278,-0.3396,0.1828
17:08:29:716,1.2326,3.7938,9.6561,54.2513,-0.2779,0.0564,-0.2683,0.1818
17:08:29:737,1.5519,3.4944,10.2271,54.2053,-0.6388,-0.1682,-0.2225,0.1796
17:08:29:756,2.1987,2.8686,11.2048,54.3275,-0.8411,-0.3918,-0.3322,0.1753
17:08:29:778,2.9,2.4068,11.9307,54.1789,-0.7048,-0.4312,-0.6324,0.1699
17:08:29:796,2.7565,2.2861,11.9965,54.2348,-0.3354,-0.346,-0.9752,0.1654
17:08:29:816,2.0448,2.7905,11.7037,54.0251,0.0053,-0.3418,-1.0306,0.1636
17:08:29:836,1.9249,2.8534,10.9557,53.9756,0.1618,-0.4237,-0.8943,0.1647
17:08:29:856,2.1058,2.335,10.0311,53.5136,0.1139,-0.4631,-0.7123,0.168
17:08:29:877,2.5765,1.7926,9.4492,53.3871,-0.0905,-0.3811,-0.5579,0.1714
17:08:29:896,2.7292,1.5048,9.439,53.129,-0.3418,-0.1597,-0.461,0.173
17:08:29:918,2.5529,1.015,9.9114,52.7369,-0.5685,0.1246,-0.3034,0.1717
17:08:29:937,2.5654,0.3544,10.396,52.6101,-0.708,0.2715,-0.2012,0.167
17:08:29:957,2.5195,-0.2463,10.7829,52.5958,-0.6601,0.2736,-0.2161,0.1599
17:08:29:977,2.4921,-0.5311,10.6426,52.4218,-0.4088,0.1373,-0.3918,0.1527
17:08:29:997,2.076,-0.5395,9.8276,52.5395,-0.0777,-0.1097,-0.7272,0.1478
17:08:30:018,1.5274,0.0277,8.584,51.808,0.2172,-0.3641,-1.0678,0.1468
17:08:30:037,0.8074,0.7232,7.3991,51.5608,0.4046,-0.5174,-1.2361,0.1498
17:08:30:057,0.2427,1.5893,6.4868,51.6219,0.4727,-0.5547,-1.1722,0.1555
17:08:30:076,-0.0575,2.203,5.8874,51.41,0.3513,-0.4951,-0.906,0.1623
17:08:30:096,0.0611,2.2191,5.9213,51.1002,0.1001,-0.3662,-0.5579,0.1682
17:08:30:116,0.6923,1.9338,6.4247,51.5095,-0.1065,-0.1916,-0.2875,0.1714
17:08:30:136,1.2051,1.7473,7.2839,51.2294,-0.2534,-0.083,-0.1863,0.1719
17:08:30:156,1.6305,1.6805,8.2855,51.2195,-0.3961,-0.1821,-0.2002,0.1703
17:08:30:176,1.8546,1.734,9.1987,51.1487,-0.5036,-0.5696,-0.2938,0.1675
17:08:30:196,1.7751,1.8284,9.6612,51.229,-0.5536,-0.889,-0.3971,0.1648
17:08:30:216,1.5754,2.002,9.8254,50.8762,-0.5632,-0.9209,-0.3705,0.1627
17:08:30:236,1.4535,2.2366,10.3773,51.0904,-0.5547,-0.544,-0.2342,0.1609
17:08:30:256,1.5203,2.4462,11.07,50.878,-0.3886,-0.0447,-0.0554,0.158
17:08:30:277,1.5828,2.2901,11.4006,50.9378,-0.1714,0.5164,0.0948,0.1546
17:08:30:302,1.6419,2.0986,11.7543,50.8511,-0.0373,0.8613,0.164,0.1513
17:08:30:317,1.5236,1.7965,11.9631,50.7279,0.0468,0.8794,0.1735,0.1479
17:08:30:336,1.561,1.4023,12.0398,50.9584,0.1693,0.6569,0.1416,0.1451
17:08:30:356,1.5796,1.0199,11.3693,50.8514,0.2736,0.2843,0.0447,0.1438
17:08:30:378,1.6429,0.9031,10.6059,50.9657,0.2534,0.0106,0,0.1448
17:08:30:397,1.4603,0.9545,10.0173,50.628,0.1341,-0.0692,0.0862,0.147
17:08:30:416,1.3265,0.845,9.8183,50.2968,-0.049,0.0607,0.3716,0.1487
17:08:30:437,1.5442,0.0792,9.8029,50.2515,-0.2736,0.2108,0.6611,0.1485
17:08:30:457,2.0633,-0.5649,9.9348,49.8954,-0.4014,0.2694,0.6963,0.1455
17:08:30:476,2.2326,-0.6732,9.7882,49.9039,-0.362,0.2619,0.5142,0.1406
17:08:30:498,1.8093,-0.2718,9.4423,49.8642,-0.264,0.1437,0.2779,0.1358
17:08:30:517,1.2767,0.4035,8.989,49.9791,-0.115,-0.05,0.1171,0.1323
17:08:30:537,0.7947,1.0188,8.2511,49.741,0.0511,-0.231,0.0554,0.1308
17:08:30:557,0.3714,1.5215,7.4927,49.708,0.1533,-0.3215,0.083,0.1315
17:08:30:576,0.2589,1.9454,6.821,49.5424,0.1608,-0.3705,0.1331,0.1337
17:08:30:597,0.2574,2.307,6.5842,49.26,0.1011,-0.4003,0.1757,0.1365
17:08:30:619,0.231,2.6062,6.6132,48.8362,0.0319,-0.4216,0.2587,0.1388
17:08:30:638,0.2204,2.7669,6.9359,48.1911,-0.0639,-0.2779,0.4131,0.1407
17:08:30:658,0.6532,2.7501,7.4208,47.7873,-0.1011,-0.1033,0.5387,0.1412
17:08:30:678,1.2129,2.3605,8.0123,47.7556,-0.083,0.1341,0.4887,0.1404
17:08:30:697,1.6436,2.2138,8.4982,47.6988,-0.0564,0.3226,0.3247,0.1389
17:08:30:718,1.8658,2.4706,9.1198,47.8703,-0.1043,0.4205,0.2119,0.137
17:08:30:736,2.1596,2.9634,9.927,48.151,-0.1384,0.4663,0.1491,0.1344
17:08:30:757,2.245,3.1771,10.4898,48.0651,-0.1533,0.5281,0.1256,0.1313
17:08:30:777,2.4198,2.8998,11.0688,48.1813,-0.2608,0.5632,0.1618,0.1279
17:08:30:797,2.7979,2.333,11.9878,48.2641,-0.4205,0.5387,0.2012,0.1236
17:08:30:816,3.2692,1.5817,13.1431,47.9854,-0.3332,0.4482,0.115,0.1178
17:08:30:836,3.4866,1.1394,13.5047,48.2362,0.0511,0.3428,-0.1693,0.1124
17:08:30:856,2.9493,1.3922,12.432,48.4232,0.3939,0.2151,-0.4567,0.1104
17:08:30:877,2.2225,1.6755,11.3015,48.109,0.4184,0.0873,-0.5025,0.1124
17:08:30:896,2.0252,1.9193,11.0567,47.8723,0.3066,-0.1054,-0.4216,0.1161
17:08:30:917,2.2198,2.027,10.7001,47.6552,0.2768,-0.2853,-0.3705,0.1196
17:08:30:937,2.2114,2.1274,10.0339,47.0459,0.1874,-0.3801,-0.3183,0.1232
17:08:30:957,2.0628,2.0612,9.5534,46.5825,-0.1075,-0.3183,-0.1086,0.1267
17:08:30:976,2.2487,1.3129,9.9985,46.1801,-0.4322,-0.0117,0.1831,0.1279
17:08:30:997,2.4122,0.2651,10.5883,45.9036,-0.4493,0.3918,0.3407,0.1249
17:08:31:016,2.2846,-0.515,10.1808,45.3407,-0.2523,0.6281,0.2587,0.1194
17:08:31:037,2.0461,-0.7409,9.0846,45.1486,-0.1256,0.6058,-0.0021,0.1141
17:08:31:056,1.5915,-0.3416,8.7544,44.8531,0.0437,0.4418,-0.3183,0.1103
17:08:31:077,1.2071,0.172,8.6174,44.9465,0.4152,0.198,-0.5472,0.1084
17:08:31:096,0.7537,0.5854,7.748,45.0729,0.7059,-0.1927,-0.6665,0.1102
17:08:31:116,0.4121,1.2297,6.7206,44.8911,0.7027,-0.5973,-0.6505,0.1168
17:08:31:137,0.3589,1.9908,5.9469,45.0973,0.444,-0.6313,-0.494,0.1255
17:08:31:156,0.2269,2.2734,6.4542,45.2308,0.1224,-0.2055,-0.2076,0.1329
17:08:31:176,0.3524,2.0311,7.6978,45.2447,0.0564,0.3258,0.1491,0.1361
17:08:31:196,0.741,1.5889,8.7718,45.6877,0.2065,0.7208,0.4078,0.1357
17:08:31:217,1.1752,1.1082,9.353,45.5916,0.4184,0.9827,0.478,0.1347
17:08:31:237,1.2287,0.8021,9.6121,45.7392,0.5387,1.0657,0.4748,0.1346
17:08:31:256,1.0158,0.7353,9.968,45.7139,0.4706,0.9582,0.4248,0.1354
17:08:31:276,0.7887,0.8369,10.3612,45.7074,0.2938,0.609,0.3673,0.1363
17:08:31:296,0.5866,0.9229,10.6477,45.8877,0.0319,0.1139,0.2683,0.1368
17:08:31:317,0.4463,0.9843,11.085,45.8655,-0.2459,-0.3545,0.1235,0.1367
17:08:31:337,0.2617,1.1029,11.5647,46.1875,-0.3428,-0.6335,-0.0096,0.136
17:08:31:356,-0.0041,1.2107,11.7545,45.9514,-0.2598,-0.6611,-0.0554,0.1352
17:08:31:376,-0.106,1.2887,11.7563,46.0619,-0.0224,-0.5589,0.0149,0.1351
17:08:31:397,0.0395,1.399,11.0655,45.9296,0.1767,-0.4887,0.1405,0.1365
17:08:31:416,0.1923,1.2083,10.3424,45.7263,0.1235,-0.4227,0.3109,0.1397
17:08:31:436,0.3641,0.8926,9.9061,45.7855,-0.2033,-0.3726,0.4983,0.1426
17:08:31:456,0.5989,0.3876,10.2999,46.1371,-0.5941,-0.2374,0.6345,0.1431
17:08:31:477,0.8108,-0.0955,10.9635,46.2304,-0.758,-0.0905,0.6281,0.1393
17:08:31:496,0.9383,-0.2356,11.3277,46.3372,-0.6164,0.0575,0.5238,0.1329
17:08:31:516,0.92,-0.1626,10.7806,46.5531,-0.3066,0.0862,0.3354,0.1265
17:08:31:536,0.9317,0.2175,9.4395,46.7629,-0.0649,-0.0149,0.1097,0.1224
17:08:31:556,0.8287,0.8258,8.2273,46.7881,0.0511,-0.2076,-0.099,0.1212
17:08:31:594,0.5205,1.4134,7.2924,46.9366,0.1363,-0.3556,-0.2353,0.1221
17:08:31:600,0.1176,2.0648,6.6946,46.9184,0.2268,-0.3556,-0.2598,0.1245
17:08:31:619,-0.1388,2.2755,6.2938,46.9276,0.297,-0.1842,-0.1214,0.1279
17:08:31:636,-0.0245,2.4437,6.1007,46.8611,0.3577,-0.0106,-0.0128,0.1314
17:08:31:656,0.2571,2.5173,6.1436,46.8596,0.3524,0.2023,0.0873,0.1346
17:08:31:676,0.4072,2.4244,6.5466,46.8594,0.2587,0.2981,0.1437,0.1371
17:08:31:696,0.5481,2.4108,7.0125,46.9365,0.0383,0.2821,0.2278,0.1385
17:08:31:716,1.1191,2.0851,8.0079,47.0143,-0.2662,0.2406,0.3098,0.1382
17:08:31:737,1.9607,1.7443,9.3609,46.9982,-0.4322,0.2183,0.2417,0.1353
17:08:31:757,2.3665,1.6298,10.321,47.4808,-0.3918,0.2917,0.0713,0.1307
17:08:31:777,2.0713,1.2522,11.0941,47.8339,-0.3481,0.5526,-0.0319,0.1259
17:08:31:798,1.9698,0.695,12.1274,48.2025,-0.3258,0.6761,-0.0628,0.1206
17:08:31:816,2.4825,0.1055,12.9704,48.4931,-0.1544,0.6931,-0.2545,0.1148
17:08:31:837,2.8937,0.22,12.9869,48.7944,0.2204,0.5249,-0.6952,0.11
17:08:31:857,2.8009,0.9905,12.0161,48.8217,0.4503,-0.0468,-1.1541,0.1089
17:08:31:876,2.2555,1.8502,11.0477,48.7482,0.3843,-0.4599,-1.432,0.1123
17:08:31:896,1.4092,2.8981,10.7176,48.423,0.2875,-0.5313,-1.4,0.1178
17:08:31:916,0.6206,3.1946,10.2925,48.2292,0.0405,-0.3449,-0.9316,0.1229
17:08:31:936,0.8475,2.5288,10.4994,48.3749,-0.3375,0.0224,-0.3396,0.1257
17:08:31:956,1.4772,1.6621,11.1551,48.183,-0.5919,0.3311,-0.0458,0.1237
17:08:31:977,1.4489,0.7563,11.914,48.4104,-0.6345,0.4205,-0.0128,0.1179
17:08:31:997,0.8502,0.1367,12.1721,48.6838,-0.5132,0.1395,-0.0756,0.1105
17:08:32:016,0.5326,-0.0137,11.4229,48.5498,-0.3982,-0.313,-0.1097,0.1046
17:08:32:036,0.5459,0.1019,10.1819,48.2844,-0.2981,-0.8219,-0.3215,0.1014
17:08:32:056,0.5282,0.6381,8.9073,48.3163,-0.1278,-1.218,-0.6186,0.1009
17:08:32:078,0.2767,1.402,7.5661,48.4064,0.0437,-1.3819,-0.8315,0.1035
17:08:32:096,0.0565,2.0779,6.1794,48.557,0.1192,-1.2818,-0.7772,0.1086
17:08:32:117,0.454,2.1108,4.7973,48.8085,-0.0713,-0.8038,-0.6047,0.1145
17:08:32:137,0.7221,2.1468,4.5411,49.1584,-0.511,0.0628,-0.4599,0.1181
17:08:32:156,0.4952,2.1031,6.4286,48.9109,-0.824,1.1072,-0.2843,0.1152
17:08:32:176,0.1457,1.9547,9.6225,49.0514,-0.5536,1.7024,-0.0532,0.1052
17:08:32:196,0.1979,1.7935,11.7629,49.0832,0.1778,1.646,0.1384,0.0938
17:08:32:216,0.161,1.1974,11.4277,48.9131,0.7484,1.0689,0.2332,0.0881
17:08:32:236,0.0167,0.4202,10.0309,49.1186,0.5888,0.378,0.2864,0.0903
17:08:32:256,0.3008,0.211,9.512,49.1897,0.1075,-0.1363,0.2055,0.0949
17:08:32:276,0.4243,0.4228,9.8469,49.1472,-0.0681,-0.2928,0.0607,0.0971
17:08:32:295,0.2172,0.7208,10.0995,49.3553,0.1043,-0.1405,-0.0181,0.0975
17:08:32:316,-0.0832,0.8132,10.0489,49.5128,0.3279,0.1597,0.0245,0.0985
17:08:32:336,-0.1436,0.7817,9.8285,49.3583,0.3141,0.4056,0.0841,0.1008
17:08:32:356,-0.2694,0.4444,10.3807,49.7031,0.0287,0.5579,0.1491,0.1027
17:08:32:377,-0.171,-0.3337,11.7456,49.5359,-0.1608,0.4163,0.2385,0.102
17:08:32:397,0.5845,-0.5491,12.5977,49.3857,0.0021,0.2002,0.1916,0.0992
17:08:32:416,1.1102,-0.4513,12.1773,49.6655,0.2513,0.1448,0.0532,0.0977
17:08:32:436,0.8797,-0.2964,11.2556,49.6218,0.2938,0.1863,-0.0969,0.0989
17:08:32:456,0.0092,-0.6105,10.5597,49.679,-0.016,0.131,-0.0213,0.1012
17:08:32:476,-0.1424,-0.6336,10.7834,49.6597,-0.3439,0.0362,0.131,0.1014
17:08:32:497,-0.0394,-0.2991,10.7145,49.7052,-0.3013,0.0511,0.1352,0.0985
17:08:32:517,-0.2691,0.0555,9.9348,49.5631,-0.1139,0.0713,0.0639,0.0952
17:08:32:537,-0.4456,0.5867,8.7462,49.6755,0.0213,-0.0522,0.0011,0.0934
17:08:32:558,-0.6193,1.0694,7.6435,49.5967,0.0426,-0.2481,-0.0064,0.0933
17:08:32:576,-0.6837,1.5379,6.8959,49.2772,0.0713,-0.2768,0.0181,0.0944
17:08:32:597,-0.8022,1.8179,6.5379,49.271,0.1608,-0.1395,0.05,0.0958
17:08:32:616,-0.9513,2.2174,6.3505,49.0635,0.2353,0.1224,0.1192,0.0976
17:08:32:637,-1.2571,2.4112,6.4817,48.7751,0.2172,0.3439,0.2193,0.0995
17:08:32:657,-1.5979,2.4275,6.8497,48.7326,0.0873,0.477,0.411,0.1006
17:08:32:676,-1.5232,2.1217,7.4521,48.7741,-0.0735,0.395,0.6377,0.1002
17:08:32:696,-0.9173,1.506,7.9824,48.7241,-0.2417,0.2246,0.7559,0.0984
17:08:32:716,-0.0142,1.2235,8.8648,48.6673,-0.3183,0.1107,0.6494,0.0956
17:08:32:736,0.5278,1.1807,9.6723,48.5372,-0.2332,0.1075,0.3694,0.0923
17:08:32:757,0.5346,1.4879,10.0337,48.4693,-0.1491,0.1086,0.0809,0.0895
17:08:32:776,0.532,1.5855,10.2925,48.3748,-0.197,0.1565,-0.0948,0.0875
17:08:32:796,0.6125,1.479,11.2779,48.2801,-0.23,0.5046,-0.2161,0.0853
17:08:32:816,0.5761,1.13,12.4592,48.4483,-0.1522,0.8059,-0.3002,0.0817
17:08:32:836,0.715,1.0688,13.0991,48.3175,-0.0554,0.659,-0.4482,0.0772
17:08:32:856,0.7055,1.3165,13.2351,47.9813,0.0554,0.2108,-0.6015,0.0737
17:08:32:876,0.291,1.452,12.5475,47.9091,0.1395,-0.1608,-0.6707,0.0725
17:08:32:899,-0.3298,1.2774,11.9827,47.8228,0.1831,-0.083,-0.5547,0.0737
17:08:32:916,-0.5011,1.2383,11.7381,47.963,0.2662,0.1821,-0.3024,0.0756
17:08:32:936,-0.4254,1.0933,11.3909,47.8048,0.3322,0.3439,-0.05,0.0774
17:08:32:956,-0.2147,0.8652,10.9288,47.8824,0.2406,0.2704,0.1097,0.0793
17:08:32:977,-0.1055,0.4908,10.5179,47.8546,0.0224,-0.033,0.1714,0.0808
17:08:32:997,-0.0548,0.196,10.3337,47.5606,-0.1352,-0.3897,0.1608,0.0813
17:08:33:016,0.0325,0.0012,9.9841,47.3621,-0.0916,-0.7304,0.1182,0.0813
17:08:33:038,0.4285,0.1911,9.0691,47.1607,0.1171,-0.9486,0.0128,0.0825
17:08:33:056,0.8706,0.4068,7.5822,47.0114,0.3652,-1.0945,-0.1693,0.0861
17:08:33:077,1.2857,0.7056,5.8731,46.8564,0.4727,-1.0274,-0.4376,0.0925
17:08:33:096,1.2595,1.4238,4.7409,46.9037,0.3258,-0.6409,-0.6377,0.1004
17:08:33:116,0.8171,1.8036,4.8858,46.9525,0.0394,-0.181,-0.6942,0.1065
17:08:33:136,0.4038,2.3954,6.0328,47.0323,-0.1459,0.1246,-0.6047,0.1084
17:08:33:156,0.3102,2.8316,7.1528,46.7825,-0.2151,0.1267,-0.4418,0.1071
17:08:33:176,0.2661,2.7965,8.2044,46.6152,-0.3375,-0.0319,-0.28,0.1048
17:08:33:196,-0.0959,2.4443,9.2828,46.7868,-0.4503,-0.313,-0.0948,0.1019
17:08:33:218,-0.0954,1.9477,9.9464,46.7127,-0.5142,-0.5227,0.1384,0.0986
17:08:33:236,0.2621,1.7479,10.862,46.5751,-0.4663,-0.3428,0.3215,0.0953
17:08:33:257,0.5823,1.8655,11.9509,46.4542,-0.1405,0.1086,0.3418,0.0919
17:08:33:276,0.2276,2.1768,12.506,46.488,0.3364,0.3875,0.2917,0.0895
17:08:33:296,-0.2372,2.442,12.1367,46.4653,0.6303,0.3918,0.3109,0.0904
17:08:33:317,-0.6425,2.4082,11.5604,46.4599,0.609,0.2119,0.4461,0.0944
17:08:33:337,-0.6348,2.2708,11.3417,46.6569,0.3961,-0.0575,0.6058,0.0995
17:08:33:356,-0.2403,1.7673,11.7286,47.0266,0.2289,-0.1512,0.6399,0.1037
17:08:33:376,-0.048,1.1571,12.688,47.1481,0.2885,-0.0011,0.5973,0.1066
17:08:33:396,-0.2117,0.4545,13.3234,47.0957,0.4567,-0.0756,0.5483,0.1091
17:08:33:417,-0.3356,-0.1035,12.886,47.1769,0.6643,-0.3897,0.5121,0.1128
17:08:33:437,-0.1477,-0.2337,11.6345,47.26,0.7208,-0.5302,0.4386,0.1194
17:08:33:456,-0.389,-0.3644,10.6023,47.0665,0.5462,-0.4642,0.4386,0.1278
17:08:33:476,-0.6342,-0.4767,10.0911,46.7718,0.247,-0.3992,0.6569,0.1351
17:08:33:496,-0.3279,-0.3985,9.9686,46.7297,0.099,-0.3066,0.8932,0.1396
17:08:33:517,0.034,-0.4585,9.63,46.1129,0.1895,-0.1448,1.005,0.1417
17:08:33:536,0.4117,-0.2149,8.8204,46.0388,0.3492,0.0458,0.9518,0.1436
17:08:33:557,0.6959,0.3758,7.8507,46.1435,0.4003,0.1938,0.7825,0.1461
17:08:33:600,0.7791,0.9116,7.1415,46.046,0.1799,0.1672,0.6005,0.1489
17:08:33:602,0.7716,1.3571,6.8963,45.9581,-0.1331,-0.0426,0.4195,0.1503
17:08:33:619,0.8154,1.8496,6.9508,45.9241,-0.2598,-0.2832,0.3056,0.1496
17:08:33:637,0.7346,2.1265,6.8336,45.8614,-0.1661,-0.3865,0.2587,0.1482
17:08:33:657,0.6204,2.1362,6.4972,45.9414,-0.0202,-0.329,0.2651,0.1479
17:08:33:677,0.3631,1.9209,6.3698,45.9866,0.1022,-0.1341,0.2928,0.1487
17:08:33:696,0.2119,1.8194,6.4711,45.957,0.1831,0.049,0.363,0.1499
17:08:33:717,0.2041,1.7416,6.8805,45.9886,0.2321,0.1682,0.4227,0.1512
17:08:33:737,0.4922,1.8417,7.2889,46.0155,0.3034,0.1554,0.4088,0.1523
17:08:33:756,0.8705,2.0333,7.3663,45.6816,0.3748,0.1448,0.3002,0.154
17:08:33:777,0.9302,2.1398,7.4407,45.5989,0.3322,0.1906,0.1373,0.1565
17:08:33:797,0.7863,2.392,7.6618,45.5119,0.1682,0.1576,0.0554,0.1588
17:08:33:818,1.1081,2.8787,8.1888,45.3106,0.0202,0.0873,-0.0085,0.1599
17:08:33:836,1.7255,3.3116,8.7013,45.2726,-0.0138,0.1118,-0.0767,0.1599
17:08:33:856,2.3553,3.3457,9.1066,45.3414,-0.0075,0.2183,-0.1799,0.1593
17:08:33:876,2.6501,3.051,9.7414,45.4153,-0.0554,0.4514,-0.2779,0.1584
17:08:33:897,2.8334,2.6696,10.9085,45.6031,-0.0075,0.708,-0.3769,0.1564
17:08:33:916,3.2639,2.4198,11.8797,45.602,0.1725,0.922,-0.5557,0.1533
17:08:33:936,3.0195,1.8019,12.5258,45.3506,0.3322,0.9742,-0.7676,0.1507
17:08:33:956,3.1467,1.9428,12.7955,45.6125,0.4514,0.7037,-0.9369,0.1491
17:08:33:976,3.5502,2.7982,12.479,45.1821,0.5994,0.3545,-1.2329,0.1493
17:08:33:996,2.8,3.3669,11.6679,45.2068,0.5696,0.1256,-1.4575,0.1521
17:08:34:016,1.8871,3.5995,11.2514,45.4958,0.3418,-0.2789,-1.5586,0.1561
17:08:34:036,0.9796,3.4571,11.118,45.5922,0.0202,-0.6739,-1.5129,0.1597
17:08:34:057,0.2962,2.5066,10.995,45.7396,-0.2246,-0.9199,-1.3777,0.162
17:08:34:076,-0.0064,1.5999,10.7975,45.8673,-0.3609,-0.8528,-1.235,0.163
17:08:34:097,0.035,1.071,10.8417,46.0162,-0.3056,-0.6824,-1.1594,0.1626
17:08:34:117,0.1588,0.9448,10.4673,46.0806,0.1086,-0.658,-1.219,0.1616
17:08:34:137,0.1307,1.064,9.2573,46.0615,0.6175,-0.7804,-1.3521,0.1631
17:08:34:157,-0.0671,1.5162,7.6143,46.208,0.9018,-0.9571,-1.4554,0.1696
17:08:34:177,-0.3679,1.9582,6.3333,45.888,0.8389,-1.1296,-1.4341,0.18
17:08:34:198,-0.5934,2.3951,5.6987,45.9067,0.5621,-1.2265,-1.3106,0.1912
17:08:34:217,-0.5754,2.6615,5.751,45.9872,0.2715,-1.2605,-1.1562,0.2005
17:08:34:237,-0.45,2.9095,5.9869,46.1668,0.1288,-1.1999,-1.0157,0.2069
17:08:34:256,-0.2007,3.3834,6.6782,46.4176,0.0937,-0.988,-0.9231,0.2115
17:08:34:277,-0.3493,3.3972,7.6298,46.6609,0.2395,-0.5994,-0.7964,0.2149
17:08:34:296,-0.4158,3.6672,8.0401,46.769,0.4599,-0.2076,-0.5738,0.2184
17:08:34:316,-0.4963,3.693,8.5265,46.7384,0.5589,0.2864,-0.2726,0.223
17:08:34:336,-0.4833,3.4194,9.3365,46.9118,0.4802,0.6643,0.0884,0.2278
17:08:34:356,-0.1292,3.0994,10.5632,46.9277,0.2587,0.6622,0.3205,0.2315
17:08:34:376,0.2597,2.4813,11.823,47.146,0.1672,0.3811,0.3396,0.2331
17:08:34:396,0.3415,2.1492,12.2058,47.2881,0.3375,0.0777,0.2129,0.2338
17:08:34:417,0.1209,2.1612,11.6224,47.5741,0.4535,-0.1075,0.1203,0.2361
17:08:34:436,-0.0785,2.1926,11.0936,47.5325,0.3662,-0.1714,0.1533,0.2404
17:08:34:457,-0.3038,2.203,10.8709,47.6067,0.2044,-0.1565,0.2747,0.2444
17:08:34:477,-0.4851,1.9316,10.7254,47.5007,0.0969,-0.099,0.4386,0.247
17:08:34:496,-0.5346,1.8166,10.3823,47.4639,0.0617,-0.0554,0.5589,0.2482
17:08:34:516,-0.8706,1.8595,9.8057,47.4347,0.0351,-0.066,0.6729,0.2489
17:08:34:535,-0.9359,2.1185,9.0229,47.4174,-0.0373,-0.1278,0.8283,0.2492
17:08:34:556,-0.7103,2.1582,8.405,47.5238,-0.1725,-0.1246,0.9731,0.2491
17:08:34:576,-0.2088,2.0981,8.1202,47.9102,-0.2438,-0.1405,1.0359,0.2478
17:08:34:597,0.1443,1.9554,7.8526,47.8176,-0.1852,-0.1618,0.939,0.2456
17:08:34:617,0.3031,2.2283,7.4121,48.2112,-0.0234,-0.1544,0.7602,0.2436
17:08:34:636,0.2611,2.7027,7.4994,48.2643,0.1544,-0.1107,0.6335,0.243
17:08:34:657,0.2297,3.022,7.8436,48.3598,0.4152,-0.1341,0.6186,0.244
17:08:34:676,0.2064,3.1411,7.6561,48.1875,0.5962,-0.2789,0.692,0.2472
17:08:34:696,0.4899,3.4228,6.6833,47.9522,0.4141,-0.4088,0.8347,0.2527
17:08:34:716,1.0709,3.5587,6.3713,47.6713,-0.1884,-0.4088,1.0231,0.2579
17:08:34:737,2.043,3.2965,7.3044,47.6217,-0.6814,-0.2672,1.054,0.2584
17:08:34:757,2.7741,3.0612,8.6318,47.5996,-0.6856,0.0628,0.8879,0.2533
17:08:34:778,2.8264,3.2321,9.257,47.661,-0.3237,0.5238,0.6995,0.2461
17:08:34:796,2.7578,3.7834,8.5297,47.443,-0.2214,0.9092,0.6952,0.2401
17:08:34:816,2.9999,3.8303,8.5841,47.3387,-0.5526,1.3159,0.7815,0.2349
17:08:34:836,3.1797,3.2303,9.8503,47.1677,-0.8326,1.5182,0.7602,0.2261
17:08:34:856,3.1566,2.6522,11.2828,47.2189,-0.7878,1.3979,0.6473,0.2135
17:08:34:875,3.1747,2.5163,11.5158,47.3298,-0.5898,0.8751,0.5536,0.2006
17:08:34:896,3.6057,2.7237,10.7904,47.4634,-0.4791,0.3588,0.4344,0.1909
17:08:34:918,3.9675,2.988,10.3002,47.6988,-0.4205,0.2151,0.2672,0.1845
17:08:34:936,3.9397,3.5194,10.2313,48.1925,-0.3109,0.2789,0.1033,0.1796
17:08:34:957,3.3527,4.1364,9.962,48.1694,-0.3098,0.2949,0.0447,0.1753
17:08:34:976,2.5345,4.2172,9.8108,48.3013,-0.4834,0.2928,0.1554,0.1715
17:08:34:996,1.4938,3.7175,10.5052,48.1749,-0.7325,0.3439,0.478,0.1664
17:08:35:016,1.182,2.9089,11.6357,47.7432,-0.7719,0.1703,0.8443,0.1588
17:08:35:037,1.6566,1.8744,11.8518,47.8678,-0.543,-0.0522,0.9454,0.1505
17:08:35:057,1.792,0.9685,11.1101,47.5045,-0.1086,-0.1416,0.7091,0.1445
17:08:35:077,1.5091,0.633,9.7302,47.5487,0.313,-0.0117,0.3513,0.1427
17:08:35:096,1.2385,1.1815,8.6978,47.8377,0.6814,0.1906,0.0245,0.1444
17:08:35:117,0.9526,2.1448,8.1343,47.9302,1.0135,0.2278,-0.1341,0.149
17:08:35:140,0.6112,2.755,7.2429,47.8184,1.1221,0.131,-0.1097,0.1564
17:08:35:156,0.5458,3.1669,6.467,47.8463,0.9529,0.0277,0.0245,0.1658
17:08:35:177,0.5629,3.3123,6.2956,48.1295,0.7229,0.1491,0.2129,0.1746
17:08:35:197,0.5139,3.3044,6.7838,48.1485,0.5526,0.4291,0.4333,0.1811
17:08:35:216,0.5279,3.1353,8.2412,48.3435,0.577,0.6207,0.6377,0.1848
17:08:35:238,0.7064,2.8076,8.9433,48.8146,0.791,0.593,0.7729,0.1872
17:08:35:257,0.9528,2.4803,8.576,48.7215,0.7708,0.5419,0.8272,0.1912
17:08:35:277,0.9844,2.2486,8.777,48.9063,0.4269,0.4344,0.7815,0.196
17:08:35:296,1.0993,2.3743,9.3811,48.7928,0.1011,0.0671,0.5962,0.1985
17:08:35:316,1.2012,3.0985,9.5657,48.88,-0.1011,-0.3386,0.3588,0.1993
17:08:35:337,0.9836,3.5589,9.566,49.022,-0.2981,-0.4621,0.2129,0.1999
17:08:35:356,0.3609,3.4706,10.0612,48.9822,-0.4983,-0.3311,0.2949,0.1998
17:08:35:376,-0.11,2.6584,11.2485,49.087,-0.5387,-0.1299,0.5919,0.1975
17:08:35:399,0.2751,1.9053,12.0992,48.8388,-0.3311,0.0128,0.8283,0.1936
17:08:35:416,0.8036,1.395,12.0523,48.9735,-0.0245,0.1235,0.8123,0.1901
17:08:35:436,0.8241,1.365,11.31,49.3291,0.1246,0.1512,0.6505,0.1887
17:08:35:456,0.417,1.5483,10.45,49.4333,-0.0138,0.0948,0.5621,0.1888
17:08:35:477,0.2804,1.7456,9.8431,49.6214,-0.1948,-0.0106,0.5707,0.1885
17:08:35:497,0.4873,1.951,9.1094,49.6089,-0.1906,-0.0703,0.5738,0.187
17:08:35:516,0.7524,2.0161,8.0458,49.511,-0.0948,-0.0426,0.5515,0.1854
17:08:35:536,1.0709,2.1678,7.0676,49.4748,-0.0522,-0.0245,0.5121,0.1846
17:08:35:560,1.2499,2.311,6.2193,49.4647,-0.0245,-0.0607,0.4301,0.184
17:08:35:577,1.3185,2.4852,5.5533,49.5411,-0.0383,-0.0554,0.3418,0.1839
17:08:35:598,1.2468,2.7144,5.3253,49.1946,-0.0777,0.0011,0.2811,0.1839
17:08:35:616,1.3008,3.1118,5.3745,49.3377,-0.0745,0.1299,0.2449,0.1833
17:08:35:636,1.3612,3.6044,5.5979,49.3247,-0.1182,0.3109,0.2204,0.182
17:08:35:656,1.3545,3.9211,6.0791,49.6717,-0.2161,0.4642,0.2151,0.1797
17:08:35:676,1.255,3.9018,6.8256,49.6249,-0.4131,0.6697,0.3087,0.1759
17:08:35:698,1.1987,3.6498,8.3049,49.8281,-0.5504,0.8262,0.4876,0.1697
17:08:35:716,1.7293,3.2597,9.9906,49.7903,-0.5046,0.8177,0.5632,0.1611
17:08:35:736,2.5197,2.8076,11.1862,49.8921,-0.2598,0.5504,0.4418,0.1521
17:08:35:756,2.9807,2.7595,10.9299,50.0259,-0.0256,0.247,0.181,0.1458
17:08:35:776,2.6884,2.8208,10.6659,50.1312,-0.2151,0.2502,0.0437,0.1436
17:08:35:798,2.287,2.8408,11.7241,50.0541,-0.543,0.3013,0.0458,0.1411
17:08:35:816,1.9899,2.3995,13.2201,49.912,-0.6005,0.2342,0.0873,0.1357
17:08:35:836,2.1392,2.0712,14.0219,50.0299,-0.3173,0.016,0.0745,0.1292
17:08:35:856,2.5888,1.7849,13.5198,49.9943,0.0628,-0.2342,-0.0128,0.1254
17:08:35:876,2.9904,1.9229,12.1613,50.0525,0.2928,-0.4088,-0.1693,0.1261
17:08:35:897,2.9779,2.3224,10.5532,49.6783,0.2002,-0.4046,-0.2885,0.13
17:08:35:916,2.4603,2.2322,9.864,49.921,-0.2566,-0.1991,-0.2023,0.1344
17:08:35:935,2.2494,1.5834,10.5352,49.945,-0.6973,-0.0607,-0.017,0.1347
17:08:35:956,2.3152,0.9003,10.9741,50.2479,-0.8443,-0.099,0.0681,0.1301
17:08:35:977,2.27,0.3888,10.6785,50.2654,-0.8208,-0.3077,0.0011,0.1237
17:08:35:997,2.1219,0.1667,9.4043,50.5205,-0.7165,-0.5909,-0.1938,0.118
17:08:36:016,1.8423,0.437,8.0669,50.662,-0.6015,-0.6973,-0.378,0.1147
17:08:36:036,1.4387,0.6459,6.9236,50.6184,-0.4333,-0.6143,-0.4759,0.1132
17:08:36:056,1.1815,0.8045,6.325,50.7384,-0.2608,-0.4482,-0.4812,0.1128
17:08:36:076,1.358,1.1204,6.0667,50.9162,-0.049,-0.2566,-0.5015,0.113
17:08:36:096,1.6591,1.567,5.9512,50.9149,0.1522,0.0181,-0.5802,0.1139
17:08:36:116,1.5606,1.9142,5.9729,50.892,0.2076,0.2938,-0.5834,0.1153
17:08:36:136,1.3783,2.1573,6.8531,50.8342,0.0692,0.4525,-0.4727,0.1162
17:08:36:158,0.9979,1.7718,8.0532,50.7038,-0.0905,0.4706,-0.33,0.1152
17:08:36:176,0.6541,1.2854,9.5639,51.0667,-0.3034,0.4482,-0.0884,0.1125
17:08:36:200,0.7458,0.4502,11.7021,51.2012,-0.3449,0.2832,0.116,0.1081
17:08:36:216,1.1312,-0.2169,13.0737,51.4877,-0.0362,-0.0522,0.1331,0.1033
17:08:36:236,1.3214,-0.4843,12.7803,51.7484,0.3918,-0.2843,-0.0319,0.1019
17:08:36:257,0.9925,-0.5109,11.6071,51.5369,0.5866,-0.3396,-0.2395,0.1055
17:08:36:276,0.7947,0.2541,11.1463,51.465,0.5206,-0.2875,-0.3492,0.112
17:08:36:298,0.4559,1.1696,11.1566,51.5454,0.4653,-0.247,-0.3375,0.1183
17:08:36:316,0.1778,1.6917,11.1297,51.4323,0.4461,-0.3119,-0.1821,0.1238
17:08:36:336,0.1107,1.6183,10.5928,51.3692,0.4195,-0.411,0.0607,0.1291
17:08:36:357,0.4804,1.2716,9.8906,51.4021,0.23,-0.3833,0.2949,0.1347
17:08:36:377,0.906,1.0671,9.8191,51.7955,-0.0798,-0.2757,0.4056,0.139
17:08:36:396,1.0411,0.6687,10.0367,51.6385,-0.3662,-0.1714,0.4567,0.1403
17:08:36:416,1.1448,0.14,10.231,51.4395,-0.6952,-0.1278,0.4535,0.1386
17:08:36:444,1.3938,-0.0507,10.7528,51.9042,-0.9241,-0.1469,0.3439,0.1339
17:08:36:456,1.3783,0.055,11.3021,51.7749,-0.8187,-0.1746,0.1522,0.1269
17:08:36:478,1.1737,0.4084,10.9369,51.443,-0.3737,-0.2651,-0.0021,0.1202
17:08:36:496,1.0529,0.99,9.4786,51.4804,0.1352,-0.2906,-0.0852,0.1171
17:08:36:516,0.9217,1.4743,7.9239,51.6189,0.5536,-0.1767,-0.1129,0.1185
17:08:36:536,0.9058,1.9433,6.6451,51.5954,0.8666,0.0277,-0.0969,0.1232
17:08:36:556,0.8948,2.3406,5.5739,51.5908,0.9805,0.2906,-0.0287,0.13
17:08:36:577,0.8535,2.8909,5.2343,51.7068,0.8964,0.5973,0.0607,0.137
17:08:36:596,0.6284,3.3044,5.349,51.953,0.6931,0.8645,0.2214,0.1422
17:08:36:616,0.2843,3.1328,5.6969,52.1131,0.3194,1.0625,0.51,0.1447
17:08:36:636,0.6248,2.7396,6.6003,52.0753,-0.1363,1.037,0.8038,0.1429
17:08:36:665,1.4923,2.0972,7.565,52.3459,-0.4865,0.8719,0.8517,0.137
17:08:36:676,2.2513,1.7798,8.3257,52.2122,-0.757,0.79,0.6324,0.1286
17:08:36:696,2.5377,1.8364,10.2311,52.1691,-0.9561,0.7367,0.3875,0.1186
17:08:36:716,2.4714,1.343,13.1546,52.103,-0.7964,0.3332,0.1778,0.1067
17:08:36:736,2.639,0.7588,14.2044,52.3504,-0.2821,-0.1778,-0.0958,0.0969
17:08:36:756,2.6467,0.6209,13.3334,52.2471,0.1001,-0.3886,-0.4163,0.0937
17:08:36:776,2.4456,0.9607,12.5026,52.2893,0.1852,-0.3652,-0.6399,0.0959
17:08:36:797,2.1732,1.6031,12.6193,52.2574,0.1725,-0.3662,-0.6803,0.0995
17:08:36:816,1.9641,1.8016,12.728,52.3665,0.3332,-0.3737,-0.6207,0.103
17:08:36:836,1.7421,1.5663,12.2096,51.982,0.6058,-0.2757,-0.544,0.1075
17:08:36:856,1.9286,2.0243,11.1508,52.3381,0.7783,-0.0862,-0.4621,0.1137
17:08:36:876,1.907,2.2701,10.1003,52.5234,0.5983,0.1512,-0.3258,0.1208
17:08:36:895,1.7653,1.9233,10.0159,52.5602,0.0958,0.2246,-0.1576,0.1261
17:08:36:916,1.8621,1.2681,10.8136,52.9297,-0.296,0.0106,-0.0969,0.1269
17:08:36:936,2.0751,0.6475,11.1886,53.0295,-0.296,-0.329,-0.2289,0.1247
17:08:36:956,2.0485,0.2879,10.4331,52.7732,-0.0096,-0.6196,-0.5153,0.1232
17:08:36:976,1.5789,0.1474,8.7225,52.6312,0.2257,-0.6782,-0.7389,0.1253
17:08:36:996,1.2534,0.5353,7.5745,52.6076,0.3364,-0.5557,-0.823,0.1304
17:08:37:016,1.16,1.1488,6.9277,52.6044,0.5121,-0.3332,-0.824,0.1362
17:08:37:036,1.1019,1.6599,6.4752,52.9166,0.7665,-0.0756,-0.7889,0.1423
17:08:37:056,0.8006,2.3522,5.9526,52.9521,0.9518,0.2183,-0.6761,0.1491
17:08:37:076,0.1916,3.1376,5.9464,53.2632,0.9369,0.5249,-0.3492,0.1565
17:08:37:096,0.1039,3.4651,6.2819,53.5084,0.7474,0.5856,0.1501,0.1627
17:08:37:116,0.7448,2.9972,6.8636,53.9252,0.4493,0.4205,0.4855,0.167
17:08:37:136,1.4565,2.3404,7.5764,53.9435,0.2055,0.3226,0.5504,0.1694
17:08:37:156,1.8553,1.848,8.4192,53.7514,0.0692,0.412,0.3205,0.1701
17:08:37:177,1.1907,1.4025,9.3942,53.8823,-0.0298,0.4951,-0.0106,0.1691
17:08:37:197,0.29,1.5681,10.1536,53.5103,-0.1448,0.2853,-0.1778,0.1667
17:08:37:219,-0.3139,1.7861,10.4066,53.2691,-0.2981,-0.115,-0.1597,0.1639
17:08:37:245,-0.3545,1.8201,10.1729,53.3483,-0.378,-0.2065,-0.1118,0.1617
17:08:37:256,-0.199,2.2635,9.8656,53.4488,-0.3556,0.2257,-0.148,0.1595
17:08:37:276,-0.5901,2.5393,10.1079,53.4624,-0.3247,0.6899,-0.1512,0.1559
17:08:37:298,-0.9918,2.7591,10.8345,53.5144,-0.2598,0.7165,-0.0639,0.1503
17:08:37:316,-1.2387,2.5893,10.6097,53.5959,-0.1789,0.3705,0.1469,0.1442
17:08:37:336,-1.1546,2.0304,9.9453,53.4714,-0.2757,0.1874,0.3652,0.1402
17:08:37:356,-1.2004,1.0491,9.6655,53.6357,-0.5206,0.1586,0.5323,0.1371
17:08:37:376,-0.8301,0.5422,10.1249,53.4296,-0.8453,0.0543,0.5888,0.1325
17:08:37:398,-0.3503,0.3993,10.7846,53.1366,-1.0242,-0.1693,0.5089,0.1255
17:08:37:417,-0.1021,0.4728,10.7099,53.2114,-0.9326,-0.3087,0.3865,0.1174
17:08:37:437,0.0602,0.7569,9.7704,53.2854,-0.6548,-0.1789,0.3002,0.1105
17:08:37:456,0.0957,1.2012,8.4844,53.2104,-0.3524,0.2694,0.28,0.1054
17:08:37:476,-0.1334,1.5797,7.7899,53.4112,-0.1565,0.7846,0.3524,0.101
17:08:37:498,-0.1503,1.9768,7.8362,53.389,-0.0777,0.9028,0.4301,0.0959
17:08:37:516,-0.0697,2.4304,7.8777,53.4451,-0.0745,0.5015,0.4365,0.0905
17:08:37:536,0.2188,2.813,7.4035,53.257,-0.1586,0,0.4354,0.0866
17:08:37:556,0.5958,2.8668,7.1677,53.3144,-0.2896,-0.2172,0.3982,0.0849
17:08:37:576,0.5755,2.3693,7.9078,53.1552,-0.3098,-0.0671,0.3418,0.0837
17:08:37:606,0.5385,1.7969,9.1549,53.0561,-0.1235,0.1884,0.2406,0.0816
17:08:37:616,0.5193,1.3299,10.1961,52.9381,0.197,0.3386,0.082,0.0794
17:08:37:639,0.5125,1.3505,10.6208,52.969,0.4152,0.2928,-0.1299,0.0787
17:08:37:655,-0.0355,1.6266,10.512,52.8832,0.4248,0.0447,-0.247,0.0801
17:08:37:675,-0.4749,1.7689,10.3057,52.7983,0.2332,-0.181,-0.1948,0.0831
17:08:37:696,-0.6028,1.4738,10.6619,52.8003,-0.0053,-0.2662,-0.05,0.0861
17:08:37:721,0.1573,1.294,11.6101,52.7676,-0.1192,-0.2917,0.0053,0.0878
17:08:37:736,0.867,1.2509,12.2607,52.9671,-0.0117,-0.3694,-0.1022,0.0884
17:08:37:756,1.1716,1.5823,11.995,52.6666,0.2545,-0.4386,-0.2002,0.0897
17:08:37:778,1.0555,1.5619,10.7352,52.5697,0.3694,-0.2949,-0.1906,0.0934
17:08:37:797,0.9376,1.329,10.1774,52.3437,0.2246,-0.016,-0.1256,0.0982
17:08:37:815,1.0297,1.3928,10.3404,51.9396,0.0373,0.1544,-0.0703,0.1009
17:08:37:836,0.7881,0.5446,10.484,51.9108,-0.2491,0.2246,-0.0053,0.1009
17:08:37:856,0.9779,0.0275,11.1712,52.0714,-0.5483,0.1395,-0.0351,0.0983
17:08:37:877,1.1179,-0.087,11.5371,51.7325,-0.56,-0.0543,-0.2278,0.0932
17:08:37:896,0.9873,-0.0661,10.927,51.7132,-0.3471,-0.1852,-0.4621,0.0883
17:08:37:916,0.7099,0.2651,9.9964,51.5709,-0.0415,-0.1437,-0.6846,0.0855
17:08:37:936,0.4647,0.9077,8.9376,51.7558,0.3726,-0.0373,-0.8283,0.0852
17:08:37:956,0.1185,1.4063,7.5201,51.6722,0.7559,0.0894,-0.8358,0.0877
17:08:37:977,-0.1991,2.0785,6.2412,51.8273,0.9571,0.1427,-0.6484,0.0931
17:08:37:996,-0.2406,2.7609,5.259,51.6991,0.8613,0.0511,-0.3279,0.1003
17:08:38:017,-0.0603,3.1575,5.6189,51.4655,0.4983,-0.2385,0.017,0.1077
17:08:38:037,0.3069,2.97,5.8245,51.5414,0.0979,-0.6303,0.2757,0.1135
17:08:38:057,0.5294,2.1849,6.6379,51.5698,-0.3822,-0.6526,0.4503,0.118
17:08:38:076,0.8173,1.6462,8.6869,51.8153,-0.5866,-0.6058,0.494,0.1189
17:08:38:097,0.9019,1.195,10.3868,52.071,-0.3684,-0.6707,0.3886,0.117
17:08:38:117,0.3986,0.6261,10.5145,52.1526,-0.0777,-0.8698,0.2449,0.1164
17:08:38:137,0.1886,0.4103,10.3948,52.1448,0.0309,-1.1189,0.1171,0.119
17:08:38:159,0.5542,0.7326,10.0501,52.0359,0.0522,-1.4841,-0.049,0.1243
17:08:38:177,1.4863,1.8765,9.6557,51.8644,-0.0266,-1.4554,-0.1778,0.1317
17:08:38:196,1.417,2.1947,9.5524,51.6091,-0.1278,-1.0135,-0.3002,0.1392
17:08:38:216,0.9955,2.0267,10.033,51.2546,-0.1863,-0.5132,-0.2576,0.144
17:08:38:236,0.7927,1.7328,10.8604,51.174,-0.198,-0.2576,-0.0405,0.1457
17:08:38:256,1.0272,1.1543,11.2516,50.8551,-0.2427,-0.3822,0.1991,0.1455
17:08:38:276,2.1154,0.9865,11.2177,50.7235,-0.198,-0.5802,0.2576,0.1449
17:08:38:297,2.506,0.684,10.5707,50.921,-0.1022,-0.445,0.1544,0.1455
17:08:38:316,2.348,0.5056,9.927,51.0858,-0.1491,-0.0777,0.082,0.1466
17:08:38:336,2.0718,0.4952,9.8451,51.0795,-0.3173,0.3173,0.0884,0.1462
17:08:38:357,1.8772,0.5723,10.1778,50.8457,-0.4567,0.6122,0.0703,0.1427
17:08:38:376,1.5502,0.8733,10.5733,50.9807,-0.4727,0.5845,0.0522,0.1362
17:08:38:397,1.1359,1.3333,10.3007,51.2179,-0.3503,0.2768,0.1022,0.129
17:08:38:416,0.9353,1.7786,9.2002,51.3375,-0.2076,0.0138,0.1821,0.1238
17:08:38:437,1.0127,2.0827,8.0913,51.6252,-0.0437,-0.0085,0.2747,0.1212
17:08:38:456,1.2407,2.041,7.3258,51.7866,0.0958,0.131,0.3077,0.1202
17:08:38:476,1.3687,1.9062,6.9913,51.48,0.2076,0.2875,0.2555,0.12
17:08:38:497,1.4218,1.869,6.8824,51.3433,0.2736,0.4131,0.1618,0.12
17:08:38:517,1.1107,2.2741,6.8615,51.0553,0.2619,0.5462,0.1097,0.1201
17:08:38:536,0.5701,2.4227,6.914,51.0393,0.1011,0.6271,0.1916,0.1198
17:08:38:556,0.2287,2.1134,7.3963,51.1336,-0.1799,0.6388,0.3588,0.1179
17:08:38:576,0.6797,1.6316,8.4739,50.9421,-0.3641,0.6484,0.4908,0.1136
17:08:38:613,1.5841,1.4141,9.7251,51.2124,-0.3652,0.6601,0.4227,0.1073
17:08:38:643,2.2522,1.5453,10.996,51.2108,-0.2183,0.5462,0.2342,0.1005
17:08:38:646,2.3909,1.7771,11.3928,51.1548,-0.1118,0.3386,0.0617,0.0951
17:08:38:656,2.0503,1.7857,11.7272,50.9687,-0.1501,0.1118,0.0862,0.0919
17:08:38:677,2.0038,1.2386,11.9978,51.1992,-0.3535,-0.016,0.2257,0.0899
17:08:38:696,2.5731,0.3915,12.7805,51.1768,-0.5824,-0.2023,0.2875,0.0873
17:08:38:719,3.342,-0.1735,13.5577,51.3249,-0.5909,-0.3929,0.1725,0.0835
17:08:38:740,3.815,-0.4796,13.6291,51.2419,-0.2576,-0.3833,-0.0181,0.0801
17:08:38:756,3.7906,-0.4506,12.5428,51.3699,0.197,-0.1906,-0.1821,0.0791
17:08:38:794,3.4436,-0.2041,10.8526,51.2556,0.33,0.1725,-0.2151,0.0811
17:08:38:796,2.6584,-0.4706,10.2117,51.3232,0.0202,0.5089,-0.1448,0.0835
17:08:38:816,2.2238,-0.8653,10.6042,51.5749,-0.3705,0.4993,-0.0373,0.0823
17:08:38:836,2.2637,-1.0466,11.0192,51.541,-0.4961,0.1001,-0.0309,0.0773
17:08:38:857,2.5375,-1.0468,10.3679,51.8591,-0.297,-0.2843,-0.1714,0.0719
17:08:38:877,2.5257,-0.8339,8.702,51.8465,0.0405,-0.4418,-0.445,0.0699
17:08:38:897,2.1975,-0.2766,7.0194,51.7375,0.3354,-0.2608,-0.7197,0.0719
17:08:38:917,1.5933,0.2372,5.953,51.8527,0.4844,0.0224,-0.8485,0.0761
17:08:38:936,1.4142,0.289,5.941,51.7348,0.5313,0.0958,-0.8986,0.0807
17:08:38:960,1.7429,0.4972,6.5054,51.5613,0.6452,-0.1107,-1.0157,0.0851
17:08:38:976,1.711,0.9755,6.5599,51.8168,0.7389,-0.1714,-1.103,0.0911
17:08:38:996,1.311,1.3978,6.7217,51.7567,0.6729,-0.1118,-1.0753,0.0987
17:08:39:017,0.6955,1.7363,7.2341,51.8182,0.4195,-0.0224,-0.9188,0.1058
17:08:39:036,-0.0675,1.793,8.1746,52.1193,0.1043,0.0405,-0.5653,0.1108
17:08:39:056,-0.1292,1.6155,9.3441,52.1151,-0.1331,-0.0639,-0.132,0.1125
17:08:39:076,0.7339,1.3944,10.4572,51.8544,-0.1384,-0.1831,0.1278,0.1119
17:08:39:096,1.1921,0.876,10.6616,51.6884,0.0383,-0.1767,0.1267,0.1112
17:08:39:116,1.3369,1.1353,10.4604,51.5011,0.0586,-0.0479,0.0383,0.1119
17:08:39:136,1.0669,1.7674,10.7226,51.1834,-0.1118,0.1629,-0.0394,0.1129
17:08:39:157,0.6748,2.3264,11.8596,51.4211,-0.2268,0.3396,0.0128,0.1118
17:08:39:176,0.5577,2.3056,12.8922,51.5979,-0.0745,0.3237,0.1703,0.1086
17:08:39:196,0.8087,1.7014,12.9226,51.6868,0.2427,0.2981,0.2523,0.1058
17:08:39:216,0.8443,0.9045,12.0224,51.8719,0.4546,0.2715,0.2502,0.1057
17:08:39:236,0.6268,0.4377,11.227,51.925,0.4503,0.3237,0.2651,0.1079
17:08:39:256,0.361,-0.018,10.7373,51.7648,0.3002,0.3705,0.2662,0.1104
17:08:39:275,-0.0742,-0.5099,10.4512,52.0816,-0.0117,0.3567,0.2555,0.1118
17:08:39:296,-0.0891,-0.4053,10.7642,52.2651,-0.3854,0.2161,0.2129,0.1107
17:08:39:316,-0.0033,0.0567,11.0123,52.4047,-0.4578,-0.0862,0.1373,0.1068
17:08:39:336,0.1157,0.6394,10.1552,52.497,-0.2736,-0.3481,0.0884,0.1028
17:08:39:356,0.2655,1.2934,8.7178,52.4652,-0.0213,-0.3939,0.0852,0.1012
17:08:39:378,0.24,1.7202,7.3193,52.2882,0.2129,-0.2757,0.1661,0.1023
17:08:39:396,0.2752,1.838,6.1719,52.1768,0.3545,-0.066,0.2811,0.105
17:08:39:416,0.1839,1.7703,5.7158,52.3203,0.3843,0.165,0.3694,0.1083
17:08:39:436,0.211,1.9647,5.8538,52.3676,0.3875,0.3354,0.428,0.111
17:08:39:456,0.0052,1.9388,6.3244,52.4853,0.3226,0.4674,0.4908,0.1128
17:08:39:476,-0.1527,1.8934,7.0265,52.5765,0.1395,0.3513,0.5472,0.1135
17:08:39:497,-0.0501,1.9012,7.8456,52.4018,-0.0862,0.0884,0.5238,0.1132
17:08:39:516,0.2145,2.0691,8.7961,52.1842,-0.1778,-0.2204,0.444,0.112
17:08:39:536,0.4498,2.3032,9.1631,52.0388,-0.0437,-0.4514,0.3822,0.1112
17:08:39:556,0.6604,2.3586,8.8966,51.9918,0.0788,-0.4227,0.3758,0.1124
17:08:39:576,0.9062,2.369,9.1254,51.7494,0.0564,-0.0916,0.4227,0.115
17:08:39:607,1.2826,2.2649,10.2514,52.2755,-0.0926,0.1682,0.4493,0.1164
17:08:39:616,1.8527,1.7756,11.6404,52.2269,-0.1459,0.1927,0.378,0.1153
17:08:39:636,2.4707,1.776,12.6928,52.2287,-0.0149,-0.0319,0.1224,0.1129
17:08:39:656,2.6251,2.2106,12.4433,52.5564,0.197,-0.3545,-0.1554,0.1121
17:08:39:676,2.4648,2.6105,11.2935,52.3167,0.1767,-0.4578,-0.2715,0.1148
17:08:39:696,1.8511,1.9792,10.7294,51.8906,-0.082,-0.2598,-0.2044,0.1189
17:08:39:716,1.9146,1.544,11.5846,51.5362,-0.2002,-0.0032,-0.0383,0.1206
17:08:39:736,2.3555,1.2749,12.2298,51.7121,0.0224,0.0511,0.066,0.1193
17:08:39:757,2.7354,1.0809,11.4901,51.6683,0.2906,0.0085,0.0788,0.1185
17:08:39:776,2.6139,0.5188,10.0323,51.4929,0.2545,0.0266,0.0788,0.1203
17:08:39:796,2.3091,-0.0422,9.2334,51.7387,-0.1512,0.0213,0.0628,0.1226
17:08:39:816,2.1048,-0.2365,9.52,51.4331,-0.5802,-0.0692,0.0011,0.1222
17:08:39:837,2.155,-0.2737,10.049,51.5437,-0.675,-0.2587,-0.1182,0.1185
17:08:39:856,2.2151,-0.2311,9.6602,51.7088,-0.4099,-0.4716,-0.3354,0.1139
17:08:39:876,2.0544,0.0996,8.4345,51.8217,-0.0202,-0.5536,-0.5951,0.112
17:08:39:896,1.7565,0.8329,6.8944,51.9906,0.2715,-0.4674,-0.7964,0.1139
17:08:39:916,1.3053,1.628,5.6661,51.5571,0.3609,-0.2811,-0.8453,0.1185
17:08:39:936,0.7992,2.1382,5.1589,51.5654,0.28,-0.0916,-0.6995,0.1235
17:08:39:956,0.7364,2.6165,5.2651,51.602,0.1491,0.0287,-0.4727,0.1272
17:08:39:976,0.8459,2.8837,5.6671,51.4819,-0.049,0.2225,-0.2438,0.129
17:08:39:996,0.874,2.4872,6.7688,51.5592,-0.3056,0.411,-0.0522,0.1283
17:08:40:016,0.8046,2.1973,8.4447,52.0181,-0.3971,0.4152,0.116,0.1244
17:08:40:036,0.6604,1.989,9.6611,51.964,-0.3215,0.2938,0.2513,0.1189
17:08:40:056,0.4223,1.3272,10.3672,52.1068,-0.2683,0.1384,0.4046,0.1143
17:08:40:076,0.7011,0.7872,10.8808,52.0234,-0.2789,-0.0319,0.4993,0.1108
17:08:40:096,1.2932,0.843,11.2351,51.9705,-0.2055,-0.181,0.3992,0.1081
17:08:40:124,1.5014,0.8953,10.9983,52.0283,-0.1278,-0.1192,0.2151,0.1067
17:08:40:137,1.5462,1.4732,11.183,51.7283,-0.164,0.132,0.0415,0.1061
17:08:40:156,1.3629,2.2455,11.8729,51.8587,-0.2246,0.2406,-0.0522,0.1044
17:08:40:177,0.7558,2.0775,12.4137,51.6359,-0.3034,0.1097,0.0426,0.1015
17:08:40:196,0.3157,1.0085,12.5962,51.4328,-0.3726,-0.165,0.23,0.0982
17:08:40:217,0.5631,0.447,12.6675,51.1409,-0.2757,-0.2906,0.3822,0.0955
17:08:40:238,0.9486,-0.3217,11.9604,51.1599,0.0224,-0.1927,0.4844,0.0939
17:08:40:256,1.0244,-1.7279,10.8131,51.364,0.0639,0.1054,0.444,0.0942
17:08:40:277,1.2393,-2.2481,10.6741,51.4068,-0.1672,0.3811,0.263,0.0944
17:08:40:306,1.0355,-1.5921,11.5007,51.5466,-0.313,0.363,-0.0234,0.0918
17:08:40:316,0.3586,-0.6058,11.3297,51.6552,-0.1884,-0.0021,-0.2214,0.0873
17:08:40:337,-0.0636,0.4107,10.0894,51.6369,0.0096,-0.2821,-0.2023,0.085
17:08:40:358,0.0066,1.2112,8.5702,51.4762,0.1831,-0.3939,-0.0649,0.0859
17:08:40:376,0.3365,1.7645,7.2911,51.5307,0.3066,-0.3332,0.082,0.089
17:08:40:397,0.5442,1.9722,6.3917,51.3222,0.3822,-0.214,0.2033,0.093
17:08:40:416,0.8178,2.0518,5.724,51.218,0.363,-0.131,0.3024,0.0972
17:08:40:436,1.0511,2.1947,5.6786,51.3216,0.297,-0.033,0.3503,0.101
17:08:40:456,1.255,2.439,5.7294,51.0752,0.2193,0.0649,0.3758,0.1038
17:08:40:476,1.2905,2.3848,6.0056,51.1857,0.0862,0.2789,0.362,0.1054
17:08:40:498,1.0349,1.7212,6.6998,50.7785,-0.1256,0.5856,0.395,0.1051
17:08:40:516,1.2941,1.0926,8.2478,50.3974,-0.3641,0.791,0.4078,0.1017
17:08:40:536,1.9834,0.9432,10.4117,50.2194,-0.3077,0.6665,0.2183,0.095
17:08:40:559,2.2056,1.0056,11.4403,50.2421,0.0266,0.2704,-0.115,0.0882
17:08:40:582,1.8242,1.4484,11.0929,50.1891,0.2938,-0.1033,-0.3503,0.0856
17:08:40:596,1.2506,1.6688,10.3579,50.2543,0.1746,-0.1373,-0.3151,0.0879
17:08:40:624,1.2992,1.4112,11.1325,50.0647,-0.1533,0.083,-0.165,0.0908
17:08:40:637,1.811,1.0042,12.9494,49.8486,-0.165,0.2033,-0.165,0.0901
17:08:40:657,2.1666,0.9059,13.7472,49.8175,0.132,0.1373,-0.3641,0.0876
17:08:40:677,1.8355,1.0603,13.1607,49.6766,0.4301,0.0681,-0.5281,0.0872
17:08:40:696,1.1706,0.9524,12.3662,50.0421,0.4546,0.0788,-0.4535,0.0901
17:08:40:716,1.2102,0.9257,11.8567,50.018,0.3854,0.0128,-0.2513,0.0937
17:08:40:736,1.4939,0.628,11.1856,49.9104,0.2853,0.0202,-0.0777,0.097
17:08:40:756,1.674,-0.036,10.5399,49.8945,0.0937,0.0224,-0.0043,0.0997
17:08:40:776,1.8792,-0.2803,10.1766,49.7271,-0.1405,-0.1278,-0.0628,0.1008
17:08:40:796,1.7933,-0.2704,9.6615,49.6446,-0.2906,-0.395,-0.1938,0.1005
17:08:40:816,1.51,-0.2024,8.8487,49.694,-0.3247,-0.593,-0.3545,0.1
17:08:40:836,1.4173,0.3149,7.9641,49.657,-0.2332,-0.6526,-0.4865,0.1002
17:08:40:856,1.1755,0.7737,6.9365,49.2806,-0.1001,-0.5419,-0.5909,0.1013
17:08:40:876,0.9227,1.1106,6.1647,48.9414,-0.0075,-0.3737,-0.6196,0.1033
17:08:40:896,0.6144,1.3636,5.6948,48.9268,0.0532,-0.2012,-0.5611,0.1053
17:08:40:918,0.5258,1.544,5.5635,48.6165,0.0777,-0.0128,-0.4291,0.1071
17:08:40:935,0.6372,1.9701,5.9385,48.6326,0.0777,0.1746,-0.2821,0.1082
17:08:40:956,0.6563,2.3252,6.4407,48.5212,-0.017,0.3375,-0.1139,0.1083
17:08:40:977,0.5796,2.0489,7.6416,48.5403,-0.28,0.3886,0.0862,0.1071
17:08:40:996,0.4413,1.4635,9.4423,48.3093,-0.4227,0.2438,0.2917,0.1034
17:08:41:016,0.6783,0.9316,10.8738,48.4894,-0.3652,0.0234,0.4567,0.0984
17:08:41:037,0.8642,0.0554,11.7206,48.5255,-0.2129,-0.1011,0.5217,0.0944
17:08:41:056,0.9216,-0.43,12.3241,48.2959,-0.0554,-0.2374,0.5068,0.0923
17:08:41:077,1.356,-0.0587,12.2952,48.1557,0.132,-0.4514,0.3332,0.0921
17:08:41:096,1.614,1.0438,11.7982,47.9367,0.2779,-0.56,0.0468,0.0946
17:08:41:119,1.3507,2.4126,11.0846,47.7903,0.3151,-0.5334,-0.1065,0.0993
17:08:41:136,0.6474,2.9879,10.69,47.5448,0.1842,-0.3737,-0.0319,0.1048
17:08:41:156,0.0917,3.049,10.8021,47.5379,0.0926,-0.1991,0.2065,0.1088
17:08:41:177,-0.2453,2.6081,10.8058,47.26,0.099,0.0298,0.5004,0.1108
17:08:41:196,-0.683,1.7357,10.447,47.2036,0.1448,0.3354,0.7868,0.1113
17:08:41:216,-0.8006,0.8695,9.7739,47.1501,0.0532,0.6611,1.0689,0.1105
17:08:41:237,-1.0721,-0.3049,9.6531,47.0771,-0.2012,0.9944,1.2691,0.1079
17:08:41:257,-0.9607,-1.2528,10.3708,46.806,-0.5089,1.0998,1.4,0.1013
17:08:41:277,-0.2227,-1.6293,11.2361,46.6205,-0.7218,0.8528,1.3138,0.0912
17:08:41:296,0.3545,-1.574,11.7696,46.473,-0.6803,0.3545,1.0455,0.08
17:08:41:317,0.7004,-0.9563,11.2725,46.1967,-0.3066,-0.1256,0.7548,0.071
17:08:41:336,0.8515,-0.0112,9.7114,46.1082,0.2278,-0.3375,0.5909,0.0669
17:08:41:356,0.9716,0.6924,7.9143,45.9634,0.6707,-0.2438,0.5888,0.069
17:08:41:381,1.1405,1.0352,6.571,45.6699,0.9262,-0.0468,0.6441,0.0748
17:08:41:397,1.49,1.1108,5.5833,45.6698,0.9497,0.082,0.6654,0.0821
17:08:41:417,1.9947,1.2461,5.1128,45.3678,0.774,0.2151,0.6047,0.0892
17:08:41:436,2.1176,1.2042,5.4508,45.2538,0.4706,0.379,0.4929,0.0947
17:08:41:456,1.8437,1.4449,6.6759,45.5249,0.1938,0.4823,0.4259,0.097
17:08:41:476,1.7707,1.5395,8.0782,45.5181,0.0309,0.4003,0.4024,0.0962
17:08:41:496,2.1883,1.5414,9.3665,45.3874,0.0681,0.1405,0.2864,0.094
17:08:41:516,2.6531,1.4845,9.9872,45.3498,0.1874,-0.1405,0.066,0.093
17:08:41:536,2.7184,1.6026,10.448,45.1403,0.2364,-0.3034,-0.1384,0.0947
17:08:41:556,2.7667,1.6559,10.6805,44.695,0.1288,-0.4067,-0.2374,0.0981
17:08:41:576,3.0058,1.7088,11.2547,44.8235,-0.082,-0.395,-0.3151,0.1018
17:08:41:597,3.2649,1.4399,11.9812,44.9915,-0.1714,-0.412,-0.4716,0.1041
17:08:41:616,3.4817,1.6003,12.4097,44.9888,-0.1214,-0.4131,-0.7016,0.1054
17:08:41:636,3.0723,1.6269,12.4328,44.6311,-0.0671,-0.3364,-0.8592,0.1069
17:08:41:655,2.2786,1.283,12.6913,44.5397,-0.082,-0.23,-0.8709,0.1087
17:08:41:676,1.9781,1.0099,13.1233,44.4194,0.099,-0.1874,-0.8421,0.1098
17:08:41:696,1.9676,1.205,12.5835,44.1235,0.4546,-0.1491,-0.873,0.1114
17:08:41:716,1.6003,1.4997,11.2026,44.0922,0.5707,0.0341,-0.8379,0.1155
17:08:41:736,0.9731,1.4084,10.198,43.7136,0.2672,0.2204,-0.6409,0.1205
17:08:41:756,0.6038,1.2493,10.2293,43.2589,-0.1916,0.2204,-0.3748,0.1227
17:08:41:776,0.6345,0.6914,10.4051,42.8428,-0.4312,-0.0522,-0.2087,0.1208
17:08:41:796,0.9914,0.3888,9.7917,42.542,-0.4035,-0.4461,-0.2278,0.1175
17:08:41:817,1.3281,0.4328,8.4795,42.6478,-0.2449,-0.7431,-0.3992,0.1158
17:08:41:836,1.295,0.681,6.9951,42.4544,-0.1022,-0.8932,-0.6058,0.1172
17:08:41:856,1.2699,1.2024,5.8965,42.3142,-0.0351,-0.856,-0.7474,0.121
17:08:41:876,1.0412,1.5957,5.3335,42.1319,-0.0362,-0.7186,-0.7857,0.1256
17:08:41:896,0.9572,1.95,5.3284,41.9109,-0.0106,-0.4759,-0.7165,0.1296
17:08:41:916,1.0796,2.1494,5.5972,41.7489,0.0756,-0.0884,-0.6164,0.1326
17:08:41:936,1.2324,2.3338,6.1874,41.751,0.1246,0.3396,-0.5334,0.1343
17:08:41:956,0.922,2.3545,7.3234,41.3352,0.0777,0.6888,-0.4088,0.1343
17:08:41:976,0.7978,2.2754,8.9006,41.3619,0.0479,0.6643,-0.2353,0.1322
17:08:41:996,1.0228,2.0591,10.2501,41.2294,0.1395,0.3769,-0.0862,0.1293
17:08:42:016,1.2303,1.6792,10.7027,41.2902,0.3002,0.0756,-0.0319,0.128
17:08:42:036,1.1098,1.5165,10.6575,41.1938,0.3034,-0.0319,-0.0884,0.1295
17:08:42:057,0.4566,1.8718,11.1572,41.148,0.23,0.0543,-0.1586,0.1323
17:08:42:077,-0.5798,2.527,11.9811,41.0127,0.2353,0.2481,-0.197,0.1343
17:08:42:096,-1.7856,3.5997,13.1619,41.0075,0.4642,0.428,-0.1331,0.1353
17:08:42:116,-2.1294,3.8656,13.1378,40.8826,0.7985,0.4557,0.0405,0.1367
17:08:42:136,-1.6978,3.427,12.4093,40.8092,0.8741,0.4738,0.2151,0.1405
17:08:42:157,-1.1976,2.6133,11.7798,40.7797,0.8102,0.2896,0.379,0.1457
17:08:42:176,-0.6213,2.1387,10.8176,40.9421,0.6654,-0.082,0.6005,0.151
17:08:42:197,0.1674,1.9358,9.9056,40.6812,0.4599,-0.4386,0.9177,0.157
17:08:42:216,1.2477,1.4158,8.8153,40.4701,0.1831,-0.5398,1.2009,0.1631
17:08:42:236,2.2872,0.4697,7.997,40.0541,-0.1852,-0.2534,1.2361,0.168
17:08:42:256,2.7553,-0.1419,7.9203,39.7961,-0.5579,0.2555,1.0178,0.1689
17:08:42:283,2.5206,-0.3497,8.4651,39.1469,-0.7804,0.6835,0.6569,0.1642
17:08:42:296,1.8248,0.0562,8.898,39.1788,-0.7208,0.8358,0.3599,0.1548
17:08:42:316,1.1832,0.64,8.5422,39.0714,-0.5046,0.6952,0.2002,0.144
17:08:42:335,0.7626,1.1639,7.6014,39.3225,-0.3215,0.3449,0.1416,0.1352
17:08:42:357,0.5041,1.4829,6.5812,39.1568,-0.2321,0.0554,0.1246,0.1298
17:08:42:377,0.469,1.8371,5.9163,39.1177,-0.2395,-0.1278,0.0905,0.1271
17:08:42:396,0.2742,2.2962,5.5557,39.1035,-0.2523,-0.1341,0.0756,0.1256
17:08:42:420,-0.2464,2.9317,5.7438,39.1697,-0.1916,0.1331,0.1959,0.1244
17:08:42:436,-0.8288,3.5134,5.9773,38.9091,-0.0138,0.9784,0.5174,0.1223
17:08:42:456,-1.1093,3.442,6.5785,38.8343,0.033,1.8685,0.9135,0.1176
17:08:42:475,-0.4324,3.0058,8.1763,38.7158,-0.049,2.1708,1.1807,0.1084
17:08:42:496,0.3963,2.2062,10.233,38.7245,-0.0245,2.0995,1.1562,0.0963
17:08:42:519,0.7897,1.8276,11.9153,39.0231,0.0809,1.7109,0.9294,0.0839
17:08:42:536,1.0294,1.9379,12.5666,39.0803,0.0756,0.8347,0.6409,0.0738
17:08:42:556,1.059,1.9141,12.5606,39.2996,-0.1778,-0.0767,0.3737,0.0683
17:08:42:576,1.4656,1.7655,12.7096,39.1672,-0.4078,-0.8081,0.1597,0.0665
17:08:42:596,2.2398,1.7356,12.9197,39.0207,-0.4259,-1.2659,-0.0756,0.0675
17:08:42:616,2.7646,1.4304,12.4988,38.5859,-0.3418,-1.4085,-0.346,0.0712
17:08:42:636,2.9432,1.2864,12.0993,38.7974,-0.1927,-1.1818,-0.6803,0.0768
17:08:42:657,2.642,1.6282,11.8694,38.6236,0.0564,-0.758,-0.9518,0.0824
17:08:42:676,2.2241,2.2584,11.3352,38.8162,0.2364,-0.5004,-1.0157,0.0875
17:08:42:696,1.7661,2.3986,10.6832,39.0783,0.1043,-0.3002,-0.8475,0.0923
17:08:42:716,1.3977,1.5198,10.6754,38.9062,-0.2268,-0.1171,-0.6037,0.0955
17:08:42:736,1.4116,0.6954,11.2192,38.8974,-0.4322,0.0106,-0.4716,0.0953
17:08:42:756,1.4405,0.0213,11.5641,38.5471,-0.3758,-0.0724,-0.5046,0.0921
17:08:42:776,1.3819,-0.344,10.9798,38.2184,-0.1565,-0.362,-0.6761,0.0889
17:08:42:796,1.0808,-0.2863,9.7289,38.0922,0.0979,-0.6867,-0.9071,0.0887
17:08:42:816,0.5626,0.1273,8.2026,37.8127,0.23,-0.9103,-1.021,0.0924
17:08:42:837,0.3125,0.6144,6.9754,37.5377,0.2364,-0.9891,-1.005,0.099
17:08:42:857,0.5434,0.9583,6.1543,37.5354,0.2385,-0.89,-0.9475,0.1064
17:08:42:876,0.7992,1.0634,5.7833,37.3961,0.3577,-0.6899,-0.9497,0.1135
17:08:42:896,0.891,1.3125,5.5171,37.1701,0.4897,-0.3886,-1.0423,0.1202
17:08:42:917,0.3699,2.0558,5.6556,36.888,0.4695,-0.0884,-1.0593,0.1268
17:08:42:936,-0.2708,2.8188,6.28,36.8413,0.2225,-0.0458,-0.7932,0.1321
17:08:42:957,-0.3372,2.8351,7.0899,36.4067,-0.1224,-0.264,-0.3982,0.135
17:08:42:976,0.1935,2.4148,8.3839,36.5353,-0.346,-0.5707,-0.0085,0.1357
17:08:42:996,0.793,1.6557,9.1587,36.5472,-0.3151,-0.7282,0.1767,0.1356
17:08:43:016,1.1453,1.247,9.4355,36.5745,-0.3513,-0.8134,0.2055,0.136
17:08:43:037,1.3303,1.2027,9.9618,36.7849,-0.4855,-0.9028,0.2002,0.1369
17:08:43:057,1.429,1.3082,10.8308,36.963,-0.5142,-1.0945,0.1948,0.1372
17:08:43:076,1.6305,1.516,11.471,37.1103,-0.3439,-1.1999,0.2033,0.1378
17:08:43:097,2.4105,1.9579,12.5067,37.0799,0.1746,-0.8719,0.1895,0.14
17:08:43:117,2.4437,2.5801,11.995,36.9257,0.4035,-0.7878,-0.0437,0.1443
17:08:43:136,1.5516,2.1694,11.9128,36.7407,0.3066,-0.9199,-0.0053,0.1513
17:08:43:156,1.1552,2.0129,11.6248,36.6198,0.0852,-1.2094,0.3173,0.1585
17:08:43:176,1.6524,1.8169,11.3478,36.5602,-0.1086,-1.3819,0.7325,0.1651
17:08:43:196,2.4229,1.5461,11.2215,36.6046,-0.2491,-1.367,1.0572,0.1705
17:08:43:216,3.587,0.6018,11.1253,36.7004,-0.3439,-1.3638,1.1573,0.1741
17:08:43:237,3.2685,-0.0913,10.5419,36.8074,-0.4386,-1.2105,1.1275,0.1765
17:08:43:256,3.6255,-0.4657,10.3048,36.7246,-0.4184,-1.0466,0.9571,0.1777
17:08:43:278,3.3574,-0.8259,9.8152,36.9079,-0.2385,-0.8485,0.7921,0.1779
17:08:43:297,3.2045,-0.7497,9.1341,36.6863,0.1512,-0.6942,0.6005,0.1783
17:08:43:316,3.2968,-0.3062,8.0868,36.427,0.6739,-0.56,0.3002,0.1807
17:08:43:336,3.1312,0.2627,6.5567,36.2293,1.0838,-0.3215,0.0245,0.1868
17:08:43:357,3.153,0.5998,5.3007,36.2288,1.1275,0.0117,-0.1512,0.196
17:08:43:376,2.7325,2.3305,4.6214,36.0976,0.9688,0.4578,-0.066,0.2056
17:08:43:398,2.9913,3.0706,4.9624,36.2075,0.7442,0.9571,0.2491,0.2123
17:08:43:417,3.4981,2.5534,6.8676,36.2976,0.4972,1.0327,0.3503,0.2139
17:08:43:437,4.0546,2.429,7.8587,36.5565,0.3694,0.3939,0.3769,0.2122
17:08:43:457,4.5556,2.0146,8.47,36.6983,0.1767,-0.395,0.4024,0.2119
17:08:43:476,4.3256,1.5788,8.511,36.5754,0.0873,-0.3428,0.3524,0.2149
17:08:43:497,5.0959,1.7798,8.3736,36.5956,0.1469,0.2949,0.4397,0.2174
17:08:43:517,5.893,3.4882,10.5293,36.6992,0.3471,0.889,0.8038,0.2171
17:08:43:536,5.6212,1.2959,8.3562,36.7669,0.857,0.8517,0.9305,0.2132
17:08:43:556,5.8836,2.0907,9.0633,36.751,0.5685,1.3542,1.0806,0.2125
17:08:43:577,8.0972,2.6715,9.1078,36.8631,0.2885,1.7471,0.7069,0.2094
17:08:43:596,8.3813,2.7081,10.5909,37.2404,0.2236,1.8738,0.1054,0.2014
17:08:43:626,6.1323,1.8229,10.5975,37.145,0.5174,1.7812,-0.5856,0.1915
17:08:43:636,5.141,2.4839,10.3816,37.2467,0.8464,1.5714,-0.922,0.1845
17:08:43:656,4.3006,3.6916,9.738,37.3663,0.7836,0.5472,-0.8794,0.1815
17:08:43:676,3.9053,3.4122,8.3148,37.4593,0.0586,0.033,-0.6239,0.1839
17:08:43:697,4.2554,2.1696,8.6452,37.3889,-1.0029,-0.5856,-0.4237,0.1859
17:08:43:717,4.7717,0.9457,9.6962,37.3156,-1.6332,-0.9039,-0.4653,0.1831
17:08:43:736,4.5288,-0.1394,10.6301,37.3467,-1.4894,-0.6792,-0.6537,0.1767
17:08:43:757,3.801,-0.4007,9.9656,37.1662,-0.8358,-0.2672,-0.8698,0.1692
17:08:43:777,2.6117,-0.2129,8.4502,37.1846,-0.1714,0.2012,-0.9869,0.1636
17:08:43:797,1.8864,0.2734,7.4552,36.9841,0.1778,0.4748,-0.9614,0.161
17:08:43:817,1.669,0.653,6.6388,36.9155,0.2119,0.2427,-0.9252,0.1602
17:08:43:836,1.4758,0.4991,6.0739,36.9533,0.1501,-0.1469,-0.9209,0.161
17:08:43:856,1.5844,0.6398,6.1385,37.1301,0.1597,-0.3854,-0.9901,0.1635
17:08:43:876,1.6219,1.1166,6.3983,37.2199,0.1065,-0.4173,-1.0135,0.1674
17:08:43:898,1.8505,1.7988,6.4924,37.2195,-0.3087,-0.5057,-1.0167,0.1714
17:08:43:917,2.1051,2.1493,6.9988,37.2303,-0.9518,-0.527,-1.0476,0.1735
17:08:43:936,2.549,1.8138,7.7917,37.3449,-1.432,-0.9678,-1.0966,0.1705
17:08:43:957,2.9747,2.096,7.8419,37.8198,-1.6672,-0.6069,-1.2201,0.1649
17:08:43:976,2.1734,1.7439,7.896,37.8329,-1.7758,1.6704,-1.4,0.1563
17:08:43:997,0.4612,2.0002,9.36,37.7825,-1.9217,3.7369,-1.1658,0.1373
17:08:44:017,-0.5428,2.2365,12.0807,37.7151,-1.5725,2.5733,-0.477,0.1062
17:08:44:036,0.0369,1.9106,13.2446,37.6695,-0.8102,0.0671,0.411,0.0777
17:08:44:056,0.9665,0.5752,11.7367,37.7121,-0.2981,-0.8038,0.5057,0.0653
17:08:44:076,1.3022,0.1577,11.5883,37.7443,-0.5483,-0.7091,0.28,0.0647
17:08:44:096,1.5457,-0.0095,12.7185,37.9012,-0.6239,-0.8879,0.0798,0.0638
17:08:44:116,1.2185,-0.1387,13.0468,37.7613,-0.3002,-1.3755,-0.1139,0.0618
17:08:44:136,1.216,-0.5137,12.0399,37.767,0.115,-1.6087,-0.132,0.0641
17:08:44:156,1.8316,-0.6997,10.9715,37.9253,0.197,-0.9593,0.0948,0.0714
17:08:44:177,2.3991,-1.2218,10.8005,37.792,0.099,0.1938,0.3982,0.078
17:08:44:196,2.3912,-1.4595,10.9153,37.8086,-0.0319,0.7378,0.6452,0.0784
17:08:44:217,2.2369,-1.6374,11.0649,38.0907,-0.2087,0.8826,0.7325,0.0746
17:08:44:236,1.8956,-1.8521,10.9817,38.4345,-0.2246,0.8922,0.7453,0.0683
17:08:44:256,2.121,-1.7131,10.3558,38.3557,-0.0905,1.0029,0.6824,0.0613
17:08:44:277,1.9963,-1.5314,9.4128,38.6627,0.1139,1.0785,0.5334,0.0547
17:08:44:297,0.984,-1.0636,8.521,38.8188,0.3087,0.9731,0.379,0.0495
17:08:44:317,0.0714,-0.4033,7.7987,38.7106,0.4716,0.6356,0.428,0.0465
17:08:44:336,-0.0035,0.1011,7.3227,38.6889,0.5834,0.3247,0.5824,0.0464
17:08:44:356,0.3938,0.4602,7.0425,38.5907,0.6761,0.0617,0.7101,0.0489
17:08:44:377,0.1063,0.7644,6.8734,39.0873,0.7825,-0.1693,0.7516,0.0534
17:08:44:396,-0.8724,1.5428,6.4102,38.8642,0.8805,-0.0011,0.7942,0.0598
17:08:44:416,-0.3104,2.0691,6.7398,39.3252,0.7314,0.395,0.9582,0.067
17:08:44:436,0.6633,1.513,7.0821,39.4536,0.411,0.2481,0.9891,0.0714
17:08:44:457,1.7828,0.9564,7.9197,39.7708,0.0394,0.066,0.7069,0.0738
17:08:44:478,2.2758,0.7745,8.9418,40.0487,-0.1693,-0.1501,0.2417,0.074
17:08:44:496,2.0903,1.2714,10.159,40.2098,-0.1948,-0.2662,-0.0703,0.0734
17:08:44:517,2.0055,1.941,11.096,40.2448,-0.0586,-0.3109,-0.1459,0.0731
17:08:44:537,2.5593,2.104,11.6115,40.6313,-0.0053,-0.1693,-0.1448,0.074
17:08:44:557,2.6579,1.6339,12.2945,40.7784,-0.0788,0.1565,-0.2545,0.0752
17:08:44:576,1.9487,0.8044,13.5337,40.69,-0.0979,0.2555,-0.3716,0.0744
17:08:44:596,1.8176,0.1159,13.8574,40.9549,0.0256,0.1416,-0.4386,0.0724
17:08:44:617,1.9041,-0.5455,13.4827,40.739,0.1927,0.0745,-0.4844,0.0716
17:08:44:637,1.9912,-1.0498,12.6269,40.636,0.3769,0.082,-0.4951,0.0726
17:08:44:656,2.5213,-0.4521,11.6961,40.6091,0.625,0.0681,-0.4344,0.0752
17:08:44:676,3.0494,-0.0237,10.5753,40.5593,0.7623,0.1427,-0.4269,0.0797
17:08:44:697,2.6066,0.2367,9.4471,40.5773,0.5856,0.2608,-0.4291,0.0856
17:08:44:717,1.5296,0.0981,8.8,40.4865,0.2236,0.2981,-0.3854,0.0902
17:08:44:736,0.9545,-0.3112,8.459,40.2112,-0.0681,0.1352,-0.4397,0.0916
17:08:44:757,0.6515,-0.4861,7.95,40.3123,-0.164,-0.1554,-0.5866,0.0907
17:08:44:776,0.4096,-0.14,7.1337,40.0145,-0.0639,-0.3609,-0.7069,0.09
17:08:44:796,-0.0793,0.1155,6.4126,40.0075,0.165,-0.527,-0.7304,0.091
17:08:44:817,-0.4444,0.4832,5.8835,39.9927,0.428,-0.7793,-0.6143,0.0945
17:08:44:837,-0.3133,0.9885,5.8708,39.9266,0.6729,-0.9901,-0.4248,0.1013
17:08:44:856,0.2355,1.5854,5.9928,39.9978,0.9231,-1.0114,-0.247,0.1113
17:08:44:876,0.8736,2.1751,6.3804,40.2075,1.1711,-0.9827,-0.1129,0.1237
17:08:44:896,1.6043,2.6799,7.0656,40.1487,1.4745,-0.9433,-0.0426,0.1379
17:08:44:917,1.8252,2.831,8.6548,40.1958,1.8951,-0.9007,-0.0852,0.1543
17:08:44:936,1.1473,2.9109,8.6693,40.3324,2.2326,-0.5323,-0.2438,0.1738
17:08:44:956,0.5525,3.9728,7.59,40.0793,0.2992,2.2496,0.4184,0.1962
17:08:44:976,1.1587,3.5978,10.7693,40.2424,-0.1884,1.6694,0.6005,0.1961
17:08:44:996,1.0392,3.2084,11.1291,40.7438,-0.4248,0.3449,0.4472,0.1853
17:08:45:017,1.3104,3.3615,11.8454,40.5757,-0.7048,-0.2704,0.3311,0.1793
17:08:45:036,1.2309,3.4115,12.592,40.7321,-0.5621,-0.6686,0.2481,0.1744
17:08:45:057,1.0073,3.3777,12.4266,40.6756,-0.1884,-0.9678,0.4046,0.1718
17:08:45:076,1.5099,3.5011,11.5747,40.54,-0.0373,-0.8507,0.5653,0.1735
17:08:45:097,1.5315,2.5124,10.9748,40.6678,-0.0969,-0.5132,0.7154,0.1774
17:08:45:116,1.8398,1.4663,10.714,40.4477,-0.1789,-0.7325,0.8027,0.1791
17:08:45:137,2.5455,1.0977,10.4134,40.7511,-0.164,-0.7708,0.7836,0.1806
17:08:45:156,2.788,0.8763,9.6586,40.6963,-0.1586,-0.2875,0.7048,0.1826
17:08:45:177,2.7231,0.7306,9.0746,40.5194,-0.4291,0.5749,0.6867,0.1831
17:08:45:196,1.5389,0.5166,9.4748,40.5059,-0.758,1.5054,0.7846,0.1778
17:08:45:217,2.3389,-0.626,10.379,40.3886,-0.9231,1.6034,0.6207,0.1646
17:08:45:237,1.4172,-0.1739,10.8078,40.4071,-0.7602,1.2137,0.2694,0.1481
17:08:45:257,0.5577,0.3976,10.3038,40.5575,-0.3024,0.8411,0.0713,0.1339
17:08:45:277,0.1604,0.6708,9.0452,40.6091,0.1714,0.5845,0.0905,0.1252
17:08:45:297,0.1103,1.1539,7.8347,40.5635,0.5962,0.4621,0.1842,0.1221
17:08:45:317,0.4353,1.7336,6.9791,40.5554,0.9113,0.4397,0.2683,0.1234
17:08:45:337,0.7809,2.2201,6.5978,40.4256,1.1147,0.3237,0.2513,0.1278
17:08:45:356,1.0633,2.7508,6.5063,40.3833,1.2158,0.0405,0.1597,0.1345
17:08:45:376,1.4384,3.2012,6.0452,40.4549,1.0434,-0.5302,-0.0564,0.1437
17:08:45:396,1.6631,3.6956,6.43,40.292,0.725,-0.2779,-0.2012,0.1553
17:08:45:416,1.8557,3.6098,7.2955,40.2339,0.461,-0.0937,-0.2928,0.1638
17:08:45:436,2.3131,3.3657,8.0375,40.5159,0.3162,0.0479,-0.4525,0.1688
17:08:45:456,2.6133,3.3653,8.6121,40.7834,0.2779,0.181,-0.7421,0.1716
17:08:45:477,2.2425,3.9064,8.9986,41.0514,0.2523,0.3567,-0.8304,0.1731
17:08:45:496,1.4998,4.4318,9.4836,41.3106,0.198,0.4312,-0.6313,0.1736
17:08:45:516,1.2791,4.5987,10.0806,41.2562,-0.0224,0.4141,-0.3247,0.173
17:08:45:536,1.4683,4.3921,10.8043,41.5792,-0.4291,0.296,-0.049,0.1712
17:08:45:556,2.0313,3.8052,11.4837,41.6639,-0.7815,-0.05,0.0692,0.1666
17:08:45:576,2.6787,2.8884,12.2633,41.9612,-1.038,-0.4312,0.0341,0.1606
17:08:45:596,3.1379,2.3029,12.7791,42.1505,-1.0274,-0.8262,-0.1576,0.1541
17:08:45:632,3.3914,2.3853,12.7339,42.553,-0.691,-1.1392,-0.3918,0.1492
17:08:45:636,3.2361,2.3765,11.8873,42.5994,-0.2938,-1.1434,-0.4237,0.1483
17:08:45:656,3.3242,2.2255,10.7703,42.545,-0.2129,-0.7804,-0.247,0.1512
17:08:45:676,3.4023,1.8665,10.1242,42.755,-0.4738,-0.1895,-0.1001,0.1541
17:08:45:696,3.0125,1.2622,10.1906,43.0037,-0.6537,0.1884,-0.1214,0.1524
17:08:45:716,2.4965,0.9144,10.0825,43.2338,-0.5738,0.4216,-0.214,0.1466
17:08:45:736,2.2455,1.0293,9.032,43.645,-0.3194,0.7027,-0.3737,0.1395
17:08:45:756,1.0001,1.5182,8.1505,43.75,-0.066,1.1903,-0.4099,0.1332
17:08:45:776,1.5606,1.0169,7.4346,44.0143,0.2789,1.8951,-0.3332,0.1268
17:08:45:797,1.296,1.2616,7.3902,44.1339,0.8368,2.0963,-0.4386,0.1197
17:08:45:817,0.5713,1.8117,7.3995,44.3223,1.2818,1.6247,-0.5153,0.1154
17:08:45:837,0.5347,2.2666,6.63,44.8343,1.2701,1.0859,-0.5078,0.1169
17:08:45:857,-0.0678,2.5505,6.8877,44.998,1.0029,0.7495,-0.4354,0.1221
17:08:45:876,-0.3746,2.4729,7.4924,45.1832,0.8102,0.2992,-0.2896,0.1269
17:08:45:896,-0.4247,2.4179,7.8795,45.1689,0.5994,-0.0021,-0.1522,0.132
17:08:45:916,-0.4167,2.4714,8.2908,45.5855,0.3513,-0.1341,-0.0266,0.1371
17:08:45:936,-0.5662,2.4593,8.8156,45.627,0.1906,-0.1831,0.0894,0.141
17:08:45:956,-0.9044,2.2365,9.0645,46.096,0.0053,-0.4056,0.3449,0.1438
17:08:45:976,-0.2231,1.6887,8.7043,46.6637,-0.3684,-0.8219,0.8432,0.146
17:08:45:996,1.6133,0.6562,9.9809,47.1054,-0.89,-1.5054,1.038,0.1476
17:08:46:016,2.9232,0.9001,9.3463,47.3092,-1.3478,-1.548,0.5238,0.1475
17:08:46:036,2.6613,1.0609,10.0663,47.467,-1.6087,-1.4394,-0.1576,0.1444
17:08:46:057,1.1149,1.3401,10.9661,47.9369,-1.614,-1.1232,-0.6601,0.1387
17:08:46:076,-0.8194,1.419,11.7532,47.9245,-1.3798,-0.708,-0.6526,0.1311
17:08:46:096,-1.7522,1.2203,12.1043,48.2319,-0.9667,-0.2332,-0.2683,0.1228
17:08:46:117,-1.634,1.1543,11.6725,48.0699,-0.4919,0.2523,0.1352,0.1152
17:08:46:136,-1.5541,0.9289,10.6742,48.3853,-0.3524,0.7027,0.4205,0.109
17:08:46:156,-1.3495,0.8778,10.4881,48.708,-0.6281,0.9742,0.6037,0.1027
17:08:46:177,-1.2206,0.6842,10.6116,48.825,-0.8805,1.0476,0.6175,0.0932
17:08:46:196,-0.9997,0.4346,10.7844,49.0824,-0.8496,0.9656,0.5153,0.0808
17:08:46:217,-0.6855,0.2911,10.2049,49.2524,-0.4983,0.7761,0.3002,0.068
17:08:46:236,-0.6662,0.525,9.1743,49.197,-0.2278,0.8336,0.1831,0.0586
17:08:46:256,-0.7437,0.7219,9.1812,49.2768,-0.1427,1.071,0.3109,0.0521
17:08:46:276,-0.4428,0.9249,9.5964,49.5835,0.2002,1.1062,0.4141,0.0455
17:08:46:296,-0.0785,1.349,9.3678,50.23,0.724,1.0189,0.3588,0.0405
17:08:46:317,-0.213,1.7891,8.6242,50.5052,1.1189,0.9273,0.2438,0.0403
17:08:46:337,-0.7042,2.1889,8.1769,50.9435,1.1743,0.8198,0.2353,0.0444
17:08:46:359,-1.2082,2.4091,8.2049,50.9835,1.021,0.6239,0.2928,0.0501
17:08:46:377,-1.3396,2.5575,8.6228,51.313,0.8677,0.3939,0.3577,0.0557
17:08:46:396,-1.0509,2.7072,8.9607,51.2731,0.8272,0.0979,0.3109,0.0611
17:08:46:417,-0.7668,2.884,8.9444,51.507,0.8613,-0.1427,0.1427,0.0673
17:08:46:437,-1.012,2.8391,8.557,51.6269,0.7602,-0.181,0.0692,0.075
17:08:46:456,-1.2105,2.9321,8.6871,51.5061,0.428,0.0287,0.1597,0.0827
17:08:46:477,-1.1267,2.6211,9.557,51.815,0.0628,0.2449,0.2779,0.0874
17:08:46:496,-0.8562,2.3619,10.68,51.8708,-0.1491,0.2662,0.2896,0.0878
17:08:46:517,-0.5187,2.1143,11.4669,51.9485,-0.1437,0.0671,0.1661,0.0856
17:08:46:537,-0.5532,1.665,11.3628,52.4566,0.0096,-0.1043,-0.0106,0.0836
17:08:46:557,-0.8651,1.4242,11.019,52.4879,0.0681,-0.0468,-0.1139,0.0836
17:08:46:578,-1.0303,1.4965,11.3353,52.7521,0.0149,0.1086,-0.0926,0.0845
17:08:46:597,-1.0662,1.5179,11.3214,52.9456,0.1906,0.0671,-0.0021,0.0842
17:08:46:616,-0.9033,1.4673,10.4819,53.2855,0.2981,0.1288,0.0894,0.0846
17:08:46:637,-0.8289,1.4403,9.9045,53.3724,0.1246,0.2438,0.1331,0.0866
17:08:46:656,-0.8519,1.2961,9.7034,53.6789,-0.1522,0.1672,0.131,0.087
17:08:46:676,-0.6782,0.9435,9.5532,53.5938,-0.3503,-0.0692,0.0298,0.0852
17:08:46:697,-0.4668,0.9407,9.5304,53.4977,-0.3492,-0.3535,-0.1597,0.0825
17:08:46:717,-0.4476,1.0883,9.1337,53.5994,-0.0948,-0.675,-0.3503,0.0807
17:08:46:736,-0.4061,1.294,8.2669,53.5424,0.2747,-0.8911,-0.4589,0.0821
17:08:46:757,-0.3153,1.5539,7.2578,53.5103,0.5856,-0.8719,-0.4791,0.0878
17:08:46:777,-0.1886,1.8965,6.5305,53.5013,0.7314,-0.6846,-0.4163,0.0966
17:08:46:796,-0.064,2.4212,6.3535,53.8146,0.7665,-0.4503,-0.3215,0.1061
17:08:46:816,0.0231,2.9319,6.3831,54.2061,0.7357,-0.2119,-0.2204,0.115
17:08:46:836,-0.3128,3.2442,6.6832,54.379,0.5941,0.0703,-0.0617,0.1227
17:08:46:857,-0.7963,3.2733,7.1572,54.7226,0.3705,0.263,0.1693,0.1281
17:08:46:876,-0.6907,3.2959,8.0279,55.0757,0.1235,0.3322,0.3982,0.1307
17:08:46:896,-0.2374,3.2366,9.1221,54.9216,-0.0064,0.3045,0.4929,0.1308
17:08:46:916,0.2939,3.1919,9.9572,55.2693,0.1086,0.0862,0.3939,0.1296
17:08:46:937,0.3866,3.151,9.8798,55.4062,0.3311,-0.1001,0.1672,0.1296
17:08:46:957,-0.0952,3.1916,9.4304,55.4631,0.3354,-0.0256,0.0628,0.1324
17:08:46:977,-0.6161,3.3388,9.6743,55.4768,0.1448,0.2183,0.0852,0.1357
17:08:46:997,-0.6442,3.6591,10.5027,55.5723,0.0192,0.3652,0.1075,0.1366
17:08:47:018,-0.8308,3.6939,11.0843,55.6765,0.0628,0.3961,0.0511,0.1352
17:08:47:036,-1.2642,3.6002,11.1664,55.6759,0.1842,0.3162,-0.0011,0.1335
17:08:47:057,-1.7939,3.313,10.7504,55.9537,0.2875,0.1874,0.0447,0.1329
17:08:47:077,-2.0134,3.0497,10.2255,56.1457,0.2981,0.0767,0.1948,0.134
17:08:47:097,-1.8092,2.8665,9.6457,56.2931,0.2342,0.0916,0.3726,0.1361
17:08:47:117,-1.5668,2.2494,8.9649,56.2707,0.0224,0.2608,0.4802,0.1381
17:08:47:136,-1.2225,2.0895,9.1563,56.1346,-0.3961,0.478,0.4291,0.1382
17:08:47:156,-1.1277,2.0335,9.8476,56.0419,-0.6388,0.3098,0.2246,0.1338
17:08:47:177,-0.9748,2.1328,9.9289,56.2946,-0.5281,-0.1139,0.0043,0.1268
17:08:47:197,-0.7649,2.2165,9.1699,56.4666,-0.2417,-0.3843,-0.1618,0.122
17:08:47:217,-0.6604,2.3749,8.1483,56.3354,0.0351,-0.3843,-0.2427,0.121
17:08:47:237,-0.6178,2.6515,7.4481,56.3555,0.2246,-0.2002,-0.2427,0.1228
17:08:47:257,-0.7946,2.9432,7.0299,56.1152,0.3524,0.0021,-0.1852,0.1256
17:08:47:277,-1.0616,2.9974,7.0011,56.1059,0.4621,0.1033,-0.0905,0.1284
17:08:47:297,-1.0807,3.0552,6.8756,55.8878,0.5653,0.0256,-0.05,0.1315
17:08:47:317,-0.8474,3.2368,6.7859,56.2936,0.5749,-0.1214,-0.1097,0.1357
17:08:47:336,-0.7133,3.1578,6.9768,56.233,0.4674,-0.2715,-0.2598,0.1408
17:08:47:356,-0.9652,3.2137,7.389,56.4031,0.3471,-0.3716,-0.3918,0.1457
17:08:47:377,-1.2752,3.5393,7.8303,56.2609,0.2278,-0.4376,-0.3684,0.1501
17:08:47:396,-1.2226,4.1313,8.4343,56.5033,0.1544,-0.4791,-0.2534,0.154
17:08:47:416,-0.9265,4.3577,8.8925,56.7345,0.2523,-0.5355,-0.214,0.1575
17:08:47:436,-0.5635,4.6247,8.8469,56.8371,0.363,-0.5856,-0.2683,0.1618
17:08:47:456,-0.6255,4.7925,8.554,56.7525,0.2491,-0.4802,-0.2896,0.1674
17:08:47:477,-0.8202,4.8742,9.0087,56.6512,-0.066,-0.2278,-0.2289,0.1722
17:08:47:496,-0.8142,4.786,10.2665,56.4088,-0.2151,-0.1203,-0.1416,0.1739
17:08:47:517,-0.4911,4.8175,11.0145,56.2208,-0.066,-0.2385,-0.0777,0.1727
17:08:47:536,-0.4317,4.4995,10.3529,56.1477,0.1011,-0.3737,0.0713,0.1725
17:08:47:557,0.2038,4.3939,10.1246,56.2757,-0.0064,-0.3332,0.2374,0.1749
17:08:47:576,1.0777,4.252,10.1489,56.097,-0.1065,-0.5206,0.2789,0.1771
17:08:47:596,1.5947,4.1626,9.7396,56.4842,-0.2694,-0.7591,0.2087,0.1789
17:08:47:616,1.8271,3.7128,9.1929,56.6451,-0.6846,-0.8634,0.1288,0.1806
17:08:47:643,1.8546,3.1811,9.4056,56.7723,-1.1488,-0.8815,0.0287,0.1802
17:08:47:656,1.6557,2.3925,9.8542,56.677,-1.4181,-0.9316,-0.0564,0.1758
17:08:47:676,1.6867,1.7049,10.2336,56.5734,-1.3553,-0.9827,-0.1246,0.169
17:08:47:696,1.7675,1.2477,10.0537,56.6173,-0.9635,-1.0199,-0.231,0.1623
17:08:47:716,1.7905,1.0826,9.3841,56.4635,-0.3684,-0.972,-0.4131,0.1583
17:08:47:736,1.554,1.2088,8.1771,56.3326,0.164,-0.9412,-0.6026,0.1589
17:08:47:756,1.3754,1.7544,7.0868,56.5306,0.4493,-0.8741,-0.708,0.164
17:08:47:776,1.2725,2.3105,6.4388,56.7411,0.5632,-0.8198,-0.7005,0.1718
17:08:47:796,1.2171,2.6972,6.0407,56.6877,0.5675,-0.758,-0.658,0.1805
17:08:47:816,0.8573,3.1082,5.869,56.483,0.4088,-0.5856,-0.5462,0.1893
17:08:47:836,0.2134,3.7222,6.442,56.6354,0.1778,-0.4248,-0.2289,0.1963
17:08:47:855,0.4155,3.8423,7.3758,56.651,0.0341,-0.445,0.2172,0.2005
17:08:47:876,1.2953,3.2234,8.2218,56.4196,-0.0362,-0.6548,0.3939,0.203
17:08:47:896,1.8625,2.8587,8.5866,56.3279,-0.0234,-0.7783,0.2385,0.2054
17:08:47:916,1.9351,3.1864,8.6665,56.5465,-0.1288,-0.7484,0.115,0.2085
17:08:47:936,2.0053,3.4745,9.224,56.1362,-0.3375,-0.6015,0.1789,0.2113
17:08:47:957,2.3882,3.4823,10.1427,56.0336,-0.4003,-0.3971,0.2246,0.2117
17:08:47:975,2.8507,4.0548,10.9459,56.0136,-0.2513,-0.2097,0.1065,0.2102
17:08:47:998,2.4864,4.5671,11.2202,55.9644,-0.1097,-0.1022,0.0405,0.2086
17:08:48:016,1.5218,4.1804,11.2118,56.0669,-0.1054,-0.1214,0.2481,0.2079
17:08:48:037,1.5315,3.0308,11.3398,55.8437,-0.264,-0.2257,0.6015,0.2073
17:08:48:056,2.0976,1.9238,11.857,55.8164,-0.3215,-0.3588,0.7389,0.206
17:08:48:076,2.6198,1.2771,11.7295,55.6284,-0.1373,-0.5643,0.691,0.2042
17:08:48:096,2.8416,0.9716,10.6089,55.3007,-0.0809,-0.6643,0.6186,0.2043
17:08:48:117,2.9059,0.7027,9.9252,55.3897,-0.3684,-0.5738,0.5738,0.2062
17:08:48:136,2.8608,0.5203,10.186,55.1537,-0.5707,-0.4855,0.511,0.2063
17:08:48:157,2.7377,0.4287,10.2174,55.0632,-0.4067,-0.379,0.3886,0.2037
17:08:48:176,2.6005,0.5978,9.708,55.0849,0.0021,-0.1842,0.2704,0.2012
17:08:48:196,2.4008,0.8558,8.611,55.2711,0.4472,0.0011,0.1597,0.2006
17:08:48:216,2.2212,1.281,7.3956,55.4237,0.7889,0.1799,0.0777,0.2029
17:08:48:236,2.1744,1.5792,6.4273,55.3233,1.0029,0.3109,0.0394,0.2077
17:08:48:256,2.3663,1.9514,5.6812,55.2269,1.1392,0.4269,-0.0479,0.2138
17:08:48:277,2.4933,2.5066,5.2346,55.4775,1.1669,0.5078,-0.1906,0.221
17:08:48:296,2.2289,3.2112,4.9809,55.5829,1.0678,0.5462,-0.2736,0.2286
17:08:48:317,1.6074,4.097,4.9957,55.7283,0.7751,0.6015,-0.115,0.2352
17:08:48:336,1.6199,4.5321,5.7922,56.2224,0.3375,0.6239,0.264,0.2397
17:08:48:356,2.1397,3.9728,7.242,56.2618,0.0213,0.4152,0.5046,0.2403
17:08:48:377,3.0258,3.5603,8.1351,56.1345,-0.0277,-0.0735,0.4024,0.2384
17:08:48:396,3.7561,3.725,8.5247,56.126,0.0128,-0.6079,0.0575,0.2377
17:08:48:416,4.0556,4.4149,8.5548,55.9792,0.0075,-0.9954,-0.2332,0.2402
17:08:48:436,4.1702,5.0839,8.6651,55.6799,-0.148,-0.9997,-0.2459,0.2453
17:08:48:457,4.4655,5.1089,9.37,55.6915,-0.3439,-0.757,-0.116,0.2499
17:08:48:478,4.9973,4.6902,10.5684,55.4138,-0.5004,-0.6069,-0.0468,0.2518
17:08:48:497,5.6972,4.3529,11.5694,54.9305,-0.4472,-0.577,-0.0958,0.2512
17:08:48:517,5.859,3.7835,11.7138,54.9053,-0.3652,-0.4003,-0.1054,0.2503
17:08:48:537,5.8073,2.6214,11.7164,54.8832,-0.2981,-0.1459,-0.0798,0.2494
17:08:48:556,6.0473,1.9038,11.7317,54.5674,-0.0777,0.0256,-0.1288,0.2478
17:08:48:577,6.2028,1.7954,10.9978,54.7614,0.1608,0.0447,-0.2502,0.2465
17:08:48:597,5.8955,2.1595,9.8306,54.6822,0.0351,0.016,-0.3322,0.2473
17:08:48:617,5.2978,2.2957,9.02,54.6908,-0.329,-0.0798,-0.2906,0.2483
17:08:48:638,4.6211,1.8294,8.5735,54.7734,-0.7016,-0.1693,-0.198,0.2472
17:08:48:656,4.092,1.1344,8.2884,54.7428,-0.8283,-0.2183,-0.1842,0.2433
17:08:48:681,3.6536,0.6431,7.9871,54.6898,-0.6675,-0.2076,-0.3034,0.2379
17:08:48:696,3.1901,0.4764,7.0462,54.6691,-0.2992,-0.2246,-0.5472,0.2327
17:08:48:716,2.7151,0.6835,5.7284,54.674,0.0032,-0.1991,-0.8251,0.231
17:08:48:736,2.4299,1.0593,4.695,54.6884,0.1192,-0.1661,-1.0423,0.2322
17:08:48:757,2.5136,1.2717,4.2357,54.6748,0.0756,-0.1778,-1.2446,0.2351
17:08:48:776,2.8799,1.629,4.1185,54.7565,-0.0958,-0.2353,-1.5118,0.2382
17:08:48:796,2.9802,2.0939,4.7311,54.4052,-0.3609,-0.1938,-1.7758,0.2407
17:08:48:817,2.3706,2.803,5.5861,53.9499,-0.5856,0.0298,-1.8546,0.2413
17:08:48:837,1.3807,3.5633,7.2889,53.7233,-0.6047,0.4759,-1.4937,0.2393
17:08:48:858,0.9357,3.9983,8.8582,53.4908,-0.379,0.6069,-0.8634,0.2338
17:08:48:876,1.4785,4.2122,9.5761,53.3443,-0.1757,0.576,-0.3151,0.2285
17:08:48:896,2.2529,4.3503,9.6581,53.0953,-0.2502,0.3109,-0.0522,0.2245
17:08:48:917,2.5134,4.68,9.9488,52.9919,-0.5472,-0.0234,0.0266,0.2214
17:08:48:937,2.2904,4.7398,10.7596,52.7988,-0.7921,-0.0649,0.2385,0.2173
17:08:48:957,2.5598,4.4324,11.8183,52.8588,-0.7484,0.0287,0.5355,0.211
17:08:48:977,3.1021,4.3003,12.3785,52.6846,-0.4706,0.0703,0.6643,0.2033
17:08:48:997,3.1723,4.2571,12.2207,52.3932,-0.2268,0.1001,0.6239,0.1972
17:08:49:018,2.8147,3.9934,12.0143,51.8995,-0.2161,0.2033,0.6814,0.1935
17:08:49:037,2.621,3.1633,12.1441,51.4444,-0.2172,0.3034,0.8549,0.1901
17:08:49:057,2.9871,2.323,12.061,51.4949,-0.066,0.4184,0.9986,0.186
17:08:49:077,3.5608,1.7067,11.256,51.566,-0.033,0.3066,0.9752,0.182
17:08:49:097,3.8541,0.9925,10.4439,51.9053,-0.3939,0.1959,0.8251,0.1794
17:08:49:117,3.8858,0.3698,10.2548,51.9104,-0.7495,0.1554,0.5515,0.1752
17:08:49:137,3.3384,0.0133,9.7591,51.8565,-0.7825,0.1565,0.1693,0.1681
17:08:49:157,2.34,-0.0039,9.0429,51.8007,-0.643,0.2789,-0.083,0.1603
17:08:49:176,1.623,0.0382,8.473,51.6059,-0.3119,0.4216,-0.1608,0.1532
17:08:49:197,1.1547,0.2914,7.6395,51.3174,0.1288,0.4557,-0.1842,0.1479
17:08:49:217,0.8713,0.6058,6.6994,51.5511,0.4812,0.412,-0.1735,0.146
17:08:49:237,0.8284,0.9906,6.0575,51.4784,0.6942,0.3929,-0.1395,0.1477
17:08:49:257,0.9157,1.4031,5.793,51.4324,0.7942,0.3173,-0.1427,0.1518
17:08:49:276,0.9746,1.9325,5.5023,51.5113,0.6856,0.2161,-0.2023,0.1573
17:08:49:297,0.7579,2.4809,5.8247,51.735,0.3833,0.2832,-0.1512,0.163
17:08:49:318,0.7607,2.6746,6.8071,51.534,0.0969,0.3694,0.0788,0.1662
17:08:49:336,0.9826,2.7694,7.9676,51.7313,-0.115,0.4291,0.3694,0.1662
17:08:49:356,1.5218,2.7702,8.9378,51.7488,-0.2364,0.379,0.5696,0.1635
17:08:49:376,1.744,3.1194,9.3494,51.5952,-0.3588,0.2459,0.6739,0.1595
17:08:49:397,2.3564,3.0303,10.0003,51.3168,-0.6069,-0.0905,0.7591,0.155
17:08:49:417,2.8322,2.8643,10.5816,51.2299,-0.8602,-0.1427,0.7101,0.1499
17:08:49:436,2.9985,2.3971,11.3101,51.0278,-0.9795,0.0256,0.6175,0.1431
17:08:49:457,3.2237,1.9735,12.2029,50.4606,-0.8996,0.2587,0.4897,0.1343
17:08:49:477,3.4078,1.5937,12.9077,50.2684,-0.6835,0.3418,0.2896,0.1247
17:08:49:496,3.3784,0.7028,13.2183,50.2876,-0.5153,-0.0011,0.0607,0.1162
17:08:49:516,3.2915,-0.0778,12.8329,50.0319,-0.297,-0.1054,-0.1022,0.1108
17:08:49:537,3.5144,-0.6092,12.4561,50.1278,-0.082,-0.1938,-0.2406,0.1082
17:08:49:556,3.8407,-0.5512,11.8395,49.7935,0.2097,-0.3737,-0.4493,0.1079
17:08:49:577,3.6409,-0.0951,11.1022,49.4964,0.4429,-0.6569,-0.5909,0.1109
17:08:49:597,3.1821,0.1139,10.0922,49.6852,0.3237,-0.445,-0.4695,0.1176
17:08:49:617,2.8438,0.1141,9.2174,49.4532,-0.0554,-0.0224,-0.1725,0.1239
17:08:49:648,2.6382,-0.1322,8.8003,49.4592,-0.329,0.0426,-0.0011,0.1251
17:08:49:656,2.599,-0.296,8.2526,49.356,-0.395,-0.0532,-0.1097,0.1226
17:08:49:676,2.4189,-0.2712,7.4889,49.1452,-0.264,-0.2033,-0.3684,0.1194
17:08:49:695,2.2503,-0.0807,6.9148,49.0214,-0.0415,-0.2225,-0.609,0.1178
17:08:49:716,2.0608,0.3089,6.3886,48.8566,0.2289,-0.2023,-0.8123,0.1185
17:08:49:736,1.9136,0.8136,5.9899,48.875,0.4131,-0.1906,-0.9422,0.1216
17:08:49:756,1.836,1.3558,5.8593,48.6831,0.3961,-0.1746,-0.9177,0.1267
17:08:49:776,1.9179,1.8242,6.1597,48.5692,0.2417,-0.083,-0.7985,0.1322
17:08:49:798,1.9011,1.9806,6.8419,48.25,0.0075,0.066,-0.6111,0.1361
17:08:49:816,1.9233,2.0138,8.0518,47.9214,-0.1831,0.3034,-0.3322,0.1374
17:08:49:836,1.7853,1.7727,9.3681,47.7078,-0.1576,0.4056,-0.0671,0.1355
17:08:49:856,1.6728,1.3836,10.2354,47.4935,-0.0128,0.2938,0.1703,0.1323
17:08:49:876,2.0012,1.148,10.8075,47.3639,0.0607,0.1672,0.3822,0.1303
17:08:49:896,2.3731,0.9355,10.9601,46.9972,0.0979,0.05,0.4503,0.1295
17:08:49:916,2.4429,0.9765,11.033,46.7057,0.1129,-0.0224,0.3449,0.1295
17:08:49:936,2.2426,1.3947,11.1119,46.4651,0.1182,-0.1118,0.2065,0.1302
17:08:49:956,1.8893,1.864,11.3491,46.1829,0.1341,-0.3865,0.1831,0.1314
17:08:49:976,1.7893,2.0299,11.0631,46.1342,0.0905,-0.7144,0.2747,0.1337
17:08:49:996,1.879,1.6966,10.8253,46.26,-0.0788,-0.7516,0.4312,0.1372
17:08:50:016,2.2101,1.1669,11.0263,46.0726,-0.0713,-0.6654,0.5621,0.1397
17:08:50:037,2.5591,0.6845,10.8517,45.8604,0.0894,-0.5717,0.609,0.141
17:08:50:057,2.757,0.4077,9.992,46.0079,0.0394,-0.4472,0.6441,0.1431
17:08:50:076,2.799,0.058,9.4449,45.8531,-0.395,-0.2023,0.7101,0.1449
17:08:50:097,2.8538,-0.5374,10.0698,46.1359,-0.8773,0.1384,0.7921,0.1429
17:08:50:117,2.871,-1.011,10.9613,46.597,-0.8719,0.3705,0.6995,0.135
17:08:50:136,2.564,-1.1747,10.9602,46.6788,-0.4546,0.4738,0.4557,0.1245
17:08:50:157,2.094,-0.9075,9.9589,46.4399,0.1043,0.4684,0.1725,0.1163
17:08:50:181,1.6583,-0.2828,8.5227,46.3063,0.5717,0.3918,-0.0405,0.1132
17:08:50:197,1.3539,0.4415,7.1462,45.7475,0.8592,0.2864,-0.1576,0.1151
17:08:50:217,1.2753,1.1452,6.0981,45.449,0.9667,0.2044,-0.1884,0.1207
17:08:50:236,1.3605,1.8571,5.4973,45.2107,0.9316,0.2044,-0.1821,0.1281
17:08:50:257,1.4416,2.6246,5.4941,45.0317,0.7846,0.2278,-0.1459,0.1357
17:08:50:276,1.4618,3.1719,5.8669,45.1633,0.5557,0.2342,-0.0202,0.1422
17:08:50:297,1.4816,3.4773,6.6085,45.3345,0.2417,0.2204,0.2694,0.1466
17:08:50:317,1.9224,3.2205,7.5503,45.1884,-0.0745,0.164,0.6494,0.1483
17:08:50:337,2.7706,2.7349,8.8112,45.2435,-0.3087,0.1267,0.8645,0.147
17:08:50:356,3.7476,2.2644,9.8922,45.0059,-0.3492,-0.0192,0.7591,0.1433
17:08:50:377,4.3706,2.1364,10.4414,44.7914,-0.2459,-0.2225,0.3407,0.1395
17:08:50:396,4.3353,2.2308,10.6508,44.5195,-0.2417,-0.3066,-0.0383,0.1375
17:08:50:417,3.9297,2.1014,11.5287,44.6607,-0.3599,-0.263,-0.1235,0.1371
17:08:50:436,3.9165,1.8841,12.6317,44.5542,-0.3194,-0.3247,-0.0735,0.1358
17:08:50:458,4.3642,1.7055,12.9452,44.6242,-0.1256,-0.4237,-0.0703,0.1343
17:08:50:477,4.603,1.3973,12.4866,44.4284,0.0053,-0.4184,-0.1437,0.1347
17:08:50:497,4.4728,0.9246,11.9351,44.6483,0.0884,-0.3545,-0.2491,0.1366
17:08:50:517,4.1968,0.5135,11.3747,44.1943,0.2672,-0.3226,-0.395,0.1391
17:08:50:537,4.0918,0.6942,10.6812,43.9583,0.5142,-0.3726,-0.544,0.1429
17:08:50:557,3.9448,1.1449,9.3376,43.5356,0.5738,-0.4578,-0.6207,0.149
17:08:50:576,3.6852,1.5003,8.1007,43.522,0.2278,-0.461,-0.5494,0.1568
17:08:50:597,3.293,1.3722,7.5935,43.5519,-0.3237,-0.3684,-0.346,0.1628
17:08:50:616,3.0211,0.8266,7.7873,43.417,-0.7506,-0.2619,-0.1352,0.164
17:08:50:640,2.7655,0.1545,7.8515,43.3009,-0.8656,-0.23,-0.0671,0.1601
17:08:50:656,2.6922,-0.2539,7.862,43.278,-0.7474,-0.2033,-0.083,0.1539
17:08:50:676,2.5951,-0.3066,7.3473,42.9659,-0.5057,-0.1682,-0.2598,0.1479
17:08:50:696,2.3345,-0.0456,6.711,43.0009,-0.3375,-0.1469,-0.4472,0.1439
17:08:50:716,2.2592,0.4706,6.489,42.898,-0.2364,-0.1214,-0.5792,0.1419
17:08:50:738,2.2241,1.0884,6.4417,42.7743,-0.1246,-0.1224,-0.658,0.1409
17:08:50:757,2.1861,1.4662,6.4746,42.7371,-0.1011,-0.0713,-0.6186,0.141
17:08:50:776,2.3207,1.8625,6.8012,42.3749,-0.1714,0.0554,-0.4216,0.1415
17:08:50:796,2.5861,1.8898,7.6642,42.327,-0.23,0.2715,-0.1341,0.1407
17:08:50:815,2.8299,1.7087,8.5157,42.2699,-0.1522,0.4557,0.0937,0.1379
17:08:50:837,3.1269,1.6094,9.0106,42.1163,-0.0681,0.4684,0.2236,0.1343
17:08:50:857,3.2188,1.4514,9.3,42.0766,-0.1618,0.3971,0.3268,0.1311
17:08:50:877,3.3902,1.1083,9.8757,41.9994,-0.3492,0.33,0.4322,0.1279
17:08:50:897,3.3891,0.8104,10.6532,41.7517,-0.478,0.329,0.4983,0.1232
17:08:50:917,3.4247,0.638,11.4918,41.5385,-0.5185,0.4024,0.5302,0.1172
17:08:50:936,3.342,0.5118,12.2614,41.3837,-0.4248,0.4908,0.4631,0.1102
17:08:50:956,2.9444,0.3418,12.6888,41.0662,-0.2683,0.478,0.3386,0.1033
17:08:50:977,2.3972,0.1494,12.8588,40.5443,-0.1693,0.3822,0.2843,0.0979
17:08:50:997,1.9421,-0.3462,12.808,40.4665,-0.1246,0.1576,0.3396,0.094
17:08:51:017,1.8076,-0.9574,12.5182,40.0118,-0.0607,-0.0607,0.3886,0.0914
17:08:51:039,2.1231,-1.2404,12.0766,39.6172,0.0649,-0.2662,0.3599,0.0902
17:08:51:056,2.4513,-1.3189,11.1987,39.6973,0.0958,-0.4173,0.2683,0.0909
17:08:51:076,2.4787,-1.482,10.4752,39.6962,-0.0745,-0.3556,0.1863,0.0932
17:08:51:096,2.1863,-1.6388,10.328,39.6419,-0.2236,-0.1916,0.131,0.0945
17:08:51:116,1.8887,-1.5108,10.2827,39.6964,-0.0596,-0.0298,0.1341,0.0937
17:08:51:137,1.61,-1.3812,9.6419,39.7194,0.3279,0.1224,0.1661,0.0925
17:08:51:156,1.5471,-0.977,8.5619,39.6653,0.7708,0.2225,0.1512,0.0934
17:08:51:176,1.4612,-0.3851,7.2758,39.6879,1.0987,0.1895,0.0873,0.0975
17:08:51:197,1.47,0.2679,6.0808,39.6899,1.1828,0.0841,0.0032,0.105
17:08:51:216,1.555,0.9496,5.3598,39.367,1.0827,-0.017,-0.0735,0.1147
17:08:51:245,1.5911,1.6816,5.2104,39.2859,0.9294,-0.066,-0.1363,0.1246
17:08:51:256,1.5705,2.3356,5.2221,39.1747,0.7495,-0.0777,-0.1203,0.1335
17:08:51:276,1.7226,2.8425,5.6262,39.223,0.4482,0.0681,0.0809,0.1411
17:08:51:296,2.0604,2.9836,6.5311,39.1029,0.1384,0.2757,0.3481,0.1457
17:08:51:316,2.4,2.7427,7.5429,39.2338,-0.1469,0.428,0.5802,0.1462
17:08:51:336,2.7901,2.471,8.8328,39.1673,-0.3141,0.4727,0.691,0.1431
17:08:51:356,3.2322,2.132,10.0275,38.7375,-0.2576,0.3577,0.5856,0.1377
17:08:51:376,3.7088,2.1535,10.5971,38.5772,-0.1299,0.0916,0.3045,0.1327
17:08:51:398,3.8719,2.3187,10.7504,38.2154,-0.1363,-0.0958,0.0298,0.1302
17:08:51:420,3.6591,2.3464,11.1686,38.2368,-0.3567,-0.0767,-0.0596,0.1295
17:08:51:437,3.5324,2.0554,12.0877,38.1068,-0.5824,-0.0277,0.033,0.1276
17:08:51:456,3.6426,1.4563,13.0482,37.8071,-0.5696,-0.033,0.1373,0.1233
17:08:51:476,4.0903,1.0275,13.3409,37.9266,-0.2726,-0.2087,0.0905,0.1182
17:08:51:496,4.3889,0.6935,12.4917,37.8695,-0.0075,-0.3141,-0.0788,0.1153
17:08:51:516,4.2424,0.5132,11.726,37.5981,0.0852,-0.3162,-0.2715,0.1163
17:08:51:536,4.0228,0.5318,11.294,37.541,0.1586,-0.3726,-0.3439,0.1186
17:08:51:556,3.9859,0.6242,10.487,37.5819,0.2214,-0.4802,-0.3173,0.1219
17:08:51:576,3.9523,0.5798,9.6123,37.7327,0.0713,-0.5015,-0.2395,0.1263
17:08:51:596,3.8075,0.2268,9.0848,37.5209,-0.2172,-0.4738,-0.131,0.1302
17:08:51:616,3.5999,-0.3744,8.8771,37.3423,-0.4503,-0.4695,-0.0447,0.1316
17:08:51:647,3.4237,-0.9317,8.6207,37.3159,-0.4663,-0.4993,-0.0724,0.1306
17:08:51:656,3.2587,-1.2357,8.0527,37.2133,-0.3024,-0.5504,-0.2204,0.1289
17:08:51:676,3.0864,-1.1403,7.2035,37.4318,-0.0522,-0.6079,-0.4716,0.1286
17:08:51:696,2.8803,-0.7142,6.2371,37.3188,0.1459,-0.6015,-0.7602,0.1309
17:08:51:716,2.5177,-0.1763,5.4151,37.2883,0.2193,-0.51,-0.9869,0.1357
17:08:51:736,2.1418,0.5645,5.1879,37.0078,0.1725,-0.3801,-1.0412,0.1413
17:08:51:756,2.0815,1.246,5.2946,36.8398,0.0383,-0.2332,-0.9337,0.1466
17:08:51:776,1.9481,1.7566,5.8541,37.0354,-0.1842,-0.0362,-0.6526,0.1501
17:08:51:798,1.9397,1.8127,6.8237,36.7567,-0.4525,0.2491,-0.1182,0.1506
17:08:51:816,2.276,1.2145,8.1942,36.8703,-0.5696,0.5227,0.3961,0.1468
17:08:51:836,2.8484,0.6528,9.6105,37.1216,-0.461,0.6931,0.7016,0.1392
17:08:51:856,3.4695,0.1973,10.3658,36.7069,-0.1831,0.6377,0.6952,0.1305
17:08:51:878,3.841,0.1302,10.5163,36.4393,0.0011,0.478,0.4493,0.124
17:08:51:897,3.7362,0.4835,10.8005,36.3437,-0.0213,0.363,0.2119,0.1206
17:08:51:917,3.2927,0.8619,11.423,35.904,-0.1075,0.2672,0.1278,0.1186
17:08:51:936,2.9085,1.0242,12.2284,35.8783,-0.0852,0.2427,0.2268,0.1165
17:08:51:956,2.7558,0.9689,12.5833,36.1802,0.1097,0.1682,0.3801,0.1141
17:08:51:976,2.9403,0.9691,12.1796,36.0528,0.3183,0.1459,0.4429,0.113
17:08:51:997,2.9127,0.9678,11.6606,35.9697,0.445,0.1852,0.3929,0.1139
17:08:52:016,2.5533,0.9056,11.0628,36.0785,0.428,0.1842,0.4056,0.116
17:08:52:037,2.3307,0.448,10.6449,35.9293,0.2246,0.1821,0.5664,0.1184
17:08:52:056,2.4995,-0.0419,10.4207,35.7913,-0.0011,0.0777,0.7059,0.1193
17:08:52:081,2.97,-0.5645,10.0815,35.9723,-0.2576,-0.0064,0.6973,0.1185
17:08:52:096,3.1372,-1.056,10.0116,35.9547,-0.51,0.0948,0.5526,0.116
17:08:52:117,2.886,-1.2618,10.4223,36.1373,-0.5738,0.3119,0.3737,0.1112
17:08:52:136,2.3145,-1.1694,10.5472,35.9567,-0.3492,0.4546,0.2545,0.1045
17:08:52:157,1.6852,-0.8694,10.0133,36.1562,0.016,0.4567,0.2012,0.0982
17:08:52:176,1.4224,-0.3531,8.9219,36.2046,0.3854,0.2864,0.1852,0.0946
17:08:52:197,1.3956,0.2931,7.5959,36.2869,0.6271,0.0437,0.1469,0.095
17:08:52:216,1.4584,0.9159,6.5017,36.3099,0.6995,-0.1288,0.1065,0.0991
17:08:52:237,1.5308,1.5666,6.0008,36.4184,0.6494,-0.1757,0.0948,0.1052
17:08:52:256,1.49,2.1216,5.7926,36.538,0.5132,-0.1799,0.1586,0.1116
17:08:52:277,1.5316,2.3873,5.9997,36.3824,0.2662,-0.0979,0.3748,0.1171
17:08:52:296,1.9464,2.2593,6.613,36.4667,-0.0053,-0.0085,0.6771,0.1204
17:08:52:316,2.4969,1.5027,7.4122,36.5365,-0.1991,0.1107,0.8602,0.1203
17:08:52:336,3.2237,0.8359,8.4369,36.3673,-0.2811,0.2513,0.8347,0.1177
17:08:52:357,3.933,0.4892,9.4175,36.3768,-0.197,0.2555,0.5398,0.1131
17:08:52:377,4.2492,0.6789,10.1254,36.4116,-0.0266,0.1565,0.0224,0.1091
17:08:52:397,3.8792,1.1719,10.2036,35.9734,0.0522,0.066,-0.3939,0.1074
17:08:52:417,3.1937,1.5738,10.551,35.9267,-0.1011,0.1714,-0.4663,0.1078
17:08:52:436,2.7071,1.5425,11.5157,36.0655,-0.28,0.28,-0.2587,0.1073
17:08:52:458,2.9746,1.2668,12.5595,36.0296,-0.2161,0.2246,-0.0948,0.1043
17:08:52:476,3.553,1.0899,12.8536,36.1442,0.066,0.0426,-0.181,0.101
17:08:52:496,3.6435,0.9648,12.2524,36.2881,0.2289,-0.0894,-0.3279,0.1004
17:08:52:516,3.369,0.691,11.9623,35.9185,0.214,-0.0575,-0.3268,0.1028
17:08:52:536,3.1258,0.1439,11.9439,35.9547,0.247,-0.0234,-0.2076,0.1054
17:08:52:557,3.4324,-0.0668,11.6863,35.8302,0.4748,-0.1331,-0.1757,0.1076
17:08:52:576,3.6279,0.0297,10.4391,35.8208,0.5547,-0.2289,-0.2183,0.1116
17:08:52:597,3.5028,0.122,9.3618,36.011,0.2821,-0.2523,-0.2587,0.1176
17:08:52:616,2.9936,-0.1504,8.9874,36.2438,-0.1224,-0.2502,-0.23,0.1225
17:08:52:636,2.7783,-0.5968,8.8247,36.2944,-0.3577,-0.3652,-0.2065,0.124
17:08:52:663,2.821,-1.0019,8.6038,36.1606,-0.3609,-0.4322,-0.2938,0.1235
17:08:52:676,2.7928,-0.8371,8.0748,35.8734,-0.1256,-0.4397,-0.5589,0.1228
17:08:52:696,2.3797,-0.3171,7.0904,36.2393,0.1022,-0.4099,-0.8379,0.1238
17:08:52:717,1.861,0.3585,6.3312,36.0289,0.1672,-0.3705,-0.9443,0.1273
17:08:52:737,1.6311,0.9598,5.9577,36.3695,0.0948,-0.3173,-0.8666,0.1317
17:08:52:758,1.7476,1.4027,6.0363,36.435,0.0128,-0.2694,-0.7165,0.1354
17:08:52:776,1.9972,1.715,6.3366,36.6415,-0.0862,-0.1373,-0.5195,0.138
17:08:52:796,2.2697,1.9167,6.9657,36.5405,-0.1831,0.0117,-0.3045,0.1391
17:08:52:817,2.5312,1.7044,8.0173,36.2346,-0.2992,0.1789,-0.0564,0.1382
17:08:52:837,2.8712,1.3295,9.2742,36.0839,-0.3077,0.2821,0.1501,0.1353
17:08:52:856,3.3649,0.9993,10.2357,35.6994,-0.1171,0.2246,0.1522,0.131
17:08:52:876,3.5658,0.8956,10.5277,35.5312,0.1416,0.0724,-0.0064,0.128
17:08:52:896,3.4492,1.1846,10.2749,35.4855,0.2768,-0.0703,-0.1703,0.128
17:08:52:917,3.1793,1.5507,10.1707,35.5672,0.1906,-0.1459,-0.1916,0.1306
17:08:52:939,3.0369,1.8772,10.4423,35.3055,0.0798,-0.1842,-0.0894,0.1335
17:08:52:956,3.1472,2.0585,10.689,35.2316,0.0522,-0.1789,0.0224,0.1354
17:08:52:976,3.2491,2.1509,10.8858,35.0363,0.0617,-0.148,0.0788,0.1367
17:08:52:996,3.1635,1.986,10.9968,35.1897,0.0543,-0.1256,0.1352,0.1377
17:08:53:017,3.0539,1.6402,11.2214,34.8686,0.017,-0.0128,0.2002,0.1387
17:08:53:037,2.5881,1.0154,11.3754,34.6466,0.0437,0.0639,0.2534,0.1387
17:08:53:056,2.2878,0.2687,11.3416,34.5818,0.0969,-0.0053,0.3652,0.1384
17:08:53:076,2.4554,-0.2772,10.7727,34.5991,0.1682,-0.1757,0.4397,0.1384
17:08:53:097,2.8061,-0.5874,9.8471,34.3622,0.0948,-0.2821,0.4227,0.1397
17:08:53:117,2.9085,-0.7777,9.3236,34.4862,-0.148,-0.2119,0.3535,0.1415
17:08:53:138,2.6829,-0.8444,9.4002,34.5598,-0.3556,-0.0468,0.3045,0.1416
17:08:53:156,2.3589,-0.551,9.4008,34.3769,-0.3375,0.0085,0.2459,0.139
17:08:53:175,2.1079,-0.2799,8.8794,34.4575,-0.2342,-0.0479,0.2374,0.1355
17:08:53:197,2.1444,0.102,8.2721,34.5011,-0.1107,-0.1799,0.2268,0.133
17:08:53:217,2.2725,0.4104,7.2027,34.7317,0,-0.4014,0.1693,0.132
17:08:53:237,2.3844,0.8408,6.2633,34.7503,0.0256,-0.56,0.0979,0.1331
17:08:53:256,2.4815,1.3172,5.622,34.8975,-0.0181,-0.6494,0.0681,0.1357
17:08:53:276,2.697,1.6183,5.3323,35.1546,-0.1597,-0.6622,0.1171,0.1387
17:08:53:297,2.9672,1.8839,5.4873,35.5363,-0.4056,-0.4993,0.2193,0.1408
17:08:53:317,3.3101,1.8302,6.5103,35.558,-0.5802,-0.1501,0.3364,0.1403
17:08:53:336,3.5714,1.6485,7.56,35.6725,-0.5866,0.1608,0.3982,0.1362
17:08:53:356,3.9874,1.318,8.463,35.5517,-0.5994,0.3737,0.4259,0.1299
17:08:53:375,4.5069,0.6968,9.4817,35.3934,-0.5983,0.4589,0.3141,0.1224
17:08:53:398,4.9253,0.1818,10.5333,35.2024,-0.4525,0.4823,0.0319,0.1145
17:08:53:416,5.0903,0.1756,11.3467,35.0837,-0.1203,0.428,-0.3929,0.1076
17:08:53:436,4.7693,0.7553,11.2591,34.9978,0.1938,0.3396,-0.7783,0.1039
17:08:53:456,4.2175,1.4594,11.0297,34.9181,0.2076,0.3545,-0.9241,0.1044
17:08:53:476,3.6126,1.6964,11.21,34.91,0.0213,0.4237,-0.7868,0.1062
17:08:53:496,3.5763,1.5956,11.8704,34.6977,-0.0724,0.5238,-0.5664,0.1065
17:08:53:517,3.7152,1.2874,12.3265,34.577,0.0522,0.5302,-0.4408,0.1046
17:08:53:536,3.9576,0.9788,12.4022,34.3192,0.2427,0.4653,-0.4205,0.1028
17:08:53:556,3.9914,0.612,12.0012,34.2739,0.2906,0.3492,-0.4322,0.1028
17:08:53:577,3.7645,-0.0441,11.6569,33.9084,0.1884,0.1586,-0.4291,0.1042
17:08:53:596,3.918,-0.4877,11.4066,34.1917,0.2161,-0.0798,-0.4557,0.1059
17:08:53:616,4.0234,-0.543,10.4771,34.1295,0.3652,-0.2214,-0.5813,0.1084
17:08:53:636,3.8917,-0.2144,9.2224,34.0227,0.3354,-0.2129,-0.6931,0.113
17:08:53:663,3.2258,0.0555,8.4623,33.8519,0.0884,-0.0426,-0.7208,0.1181
17:08:53:676,2.5716,0.0162,8.4443,34.0264,-0.165,0.1192,-0.6069,0.121
17:08:53:696,2.2411,-0.1705,8.5747,33.9002,-0.2044,0.1192,-0.4802,0.1206
17:08:53:716,2.1866,-0.3548,8.2275,33.8794,-0.0522,0.0703,-0.4972,0.1188
17:08:53:736,2.1319,-0.2134,7.5604,33.9424,0.1629,0.0117,-0.6505,0.118
17:08:53:756,1.9707,0.2445,6.8066,33.8098,0.3503,-0.1139,-0.8656,0.1196
17:08:53:776,1.7799,1.0603,6.1543,33.6172,0.4056,-0.2853,-1.0391,0.1238
17:08:53:797,1.6805,1.8244,5.7549,33.9431,0.3194,-0.4163,-1.0647,0.1298
17:08:53:817,1.6266,2.3367,5.6858,34.1768,0.1395,-0.3716,-0.9252,0.1359
17:08:53:836,1.6793,2.5712,6.3447,34.3384,-0.0639,-0.0948,-0.6388,0.1406
17:08:53:856,2.0305,2.4989,7.5557,34.5372,-0.1288,0.2044,-0.3119,0.142
17:08:53:876,2.3295,2.0928,8.5291,34.6543,-0.099,0.3875,-0.1011,0.1406
17:08:53:896,2.5721,1.6766,9.3671,34.5191,-0.1097,0.4408,0.0351,0.1383
17:08:53:918,2.7604,1.3401,10.2753,34.7392,-0.0692,0.3343,0.1043,0.1356
17:08:53:936,2.9755,1.214,10.6428,34.7751,0.05,0.1097,0.05,0.1333
17:08:53:958,3.0355,1.3301,10.7174,34.8522,0.1075,-0.0788,-0.0096,0.1328
17:08:53:976,2.951,1.5767,10.7438,34.7222,0.1129,-0.1586,-0.0447,0.1339
17:08:53:996,2.8781,1.8309,10.8629,34.5911,0.0873,-0.1075,-0.0373,0.1356
17:08:54:016,2.6287,2.1367,11.3138,34.6346,0.1107,0.0011,-0.0117,0.1369
17:08:54:036,2.1784,2.2262,11.7734,34.3213,0.1746,0.0628,0.0724,0.1378
17:08:54:056,1.8786,2.0802,11.9632,34.1289,0.1938,-0.0351,0.2151,0.1389
17:08:54:076,1.6868,1.5246,11.8828,34.0639,0.1938,-0.247,0.3449,0.1404
17:08:54:097,1.6878,0.8893,11.6547,33.9378,0.2576,-0.3822,0.3833,0.1425
17:08:54:116,1.8118,0.5876,10.846,33.9497,0.3418,-0.4557,0.3918,0.1455
17:08:54:136,1.9596,0.527,9.8191,34.0832,0.2087,-0.4663,0.4418,0.1496
17:08:54:156,2.0187,0.3008,9.1998,34.1557,-0.1459,-0.3567,0.543,0.1532
17:08:54:179,2.1021,-0.1772,9.4576,34.3503,-0.4067,-0.1565,0.6069,0.1536
17:08:54:196,2.1065,-0.2664,9.7405,34.6073,-0.3087,0.0277,0.5334,0.1504
17:08:54:216,1.8627,-0.021,9.2545,34.8672,-0.0617,0.1246,0.4248,0.1463
17:08:54:236,1.518,0.4502,8.2864,34.8164,0.1469,0.1001,0.3386,0.1439
17:08:54:256,1.283,0.866,7.2651,34.5681,0.2832,0.0415,0.2832,0.1436
17:08:54:276,1.2045,1.3044,6.5827,34.5702,0.3971,0.0767,0.2768,0.1451
17:08:54:296,1.1686,1.7438,6.1683,34.4054,0.5227,0.1544,0.3119,0.1476
17:08:54:316,1.3646,2.2884,5.7386,34.706,0.5632,0.2523,0.3801,0.1509
17:08:54:337,1.5031,2.7002,5.6262,35.0465,0.4078,0.3897,0.4759,0.1543
17:08:54:357,1.6357,2.9664,6.2277,35.4404,0.1246,0.4993,0.659,0.1563
17:08:54:377,1.9565,2.6087,7.2552,35.491,-0.1459,0.5376,0.8911,0.1554
17:08:54:396,2.549,1.9497,8.461,35.3981,-0.2757,0.5611,1.0263,0.1516
17:08:54:416,3.2852,1.3812,9.7023,35.0589,-0.2151,0.5281,0.9742,0.1457
17:08:54:436,3.979,1.2715,10.3735,35.0696,0.0138,0.3556,0.6675,0.1399
17:08:54:458,4.3398,1.5731,10.4352,35.3782,0.1533,0.1448,0.2481,0.1368
17:08:54:476,4.1293,2.1689,10.493,35.9495,0.0735,0.0245,-0.0032,0.1367
17:08:54:496,3.7914,2.4346,10.9979,36.0939,-0.1373,0.0128,0.016,0.1375
17:08:54:516,3.7713,2.2589,11.672,36.656,-0.3215,-0.0192,0.1959,0.1369
17:08:54:537,4.2851,1.8305,12.1393,36.6321,-0.3364,-0.1129,0.2406,0.1344
17:08:54:557,4.7366,1.3975,12.1099,36.4583,-0.2545,-0.1746,0.1118,0.1315
17:08:54:577,4.8058,1.0378,11.9365,36.3741,-0.1608,-0.1043,-0.0767,0.1297
17:08:54:596,4.4122,0.8975,11.8574,36.1855,0.0245,0.0383,-0.2406,0.1287
17:08:54:616,3.8947,0.9096,11.5104,36.2619,0.2225,0.1097,-0.2726,0.1285
17:08:54:636,3.6878,1.0403,10.658,36.2152,0.2566,0.0639,-0.1895,0.1297
17:08:54:658,3.5466,0.9238,9.9886,36.4068,0.0075,0.0224,-0.066,0.1319
17:08:54:676,3.3701,0.4428,9.9144,36.4517,-0.2672,0.0021,0.0341,0.1327
17:08:54:696,3.1684,-0.2092,9.9619,36.6773,-0.3268,-0.0426,0.0373,0.1311
17:08:54:717,2.9546,-0.5153,9.4455,36.3707,-0.1884,-0.1299,-0.0692,0.1283
17:08:54:736,2.7779,-0.4225,8.496,36.5123,0.0192,-0.2481,-0.2768,0.1268
17:08:54:756,2.4089,-0.1536,7.4708,36.3796,0.1831,-0.4003,-0.51,0.1277
17:08:54:776,2.2673,0.3696,6.6456,36.294,0.3056,-0.5068,-0.7027,0.1312
17:08:54:796,2.0245,0.9781,6.0743,36.5711,0.3769,-0.4759,-0.8017,0.1367
17:08:54:816,1.8964,1.6579,5.9022,36.5435,0.3971,-0.346,-0.7453,0.143
17:08:54:837,1.8512,2.1487,5.9894,36.6658,0.3237,-0.1405,-0.5078,0.1491
17:08:54:857,2.0076,2.2962,6.4111,36.8618,0.1948,0.0596,-0.1746,0.1536
17:08:54:876,2.3556,2.0257,7.1555,36.9717,0.066,0.148,0.1171,0.1557
17:08:54:896,2.8537,1.5456,8.0515,37.015,-0.0234,0.1395,0.2896,0.1558
17:08:54:920,3.4197,1.1517,8.8421,37.1392,-0.0649,0.0319,0.2726,0.1548
17:08:54:936,3.7631,0.9678,9.2546,36.979,-0.0671,-0.1331,0.1086,0.1538
17:08:54:956,3.7736,1.051,9.6532,37.1587,-0.0532,-0.2683,-0.1043,0.1535
17:08:54:976,3.3921,1.3771,9.8469,37.154,-0.0341,-0.2747,-0.1874,0.1541
17:08:54:996,3.2148,1.627,10.1794,37.3814,-0.0479,-0.0916,-0.1129,0.1553
17:08:55:016,3.2555,1.8318,10.7277,37.3934,0.0213,0.1171,-0.0767,0.1556
17:08:55:037,3.1102,1.9684,11.0879,37.6225,0.132,0.1895,-0.0884,0.1551
17:08:55:057,2.8543,1.9186,11.3365,37.5651,0.1831,0.2225,-0.0798,0.1553
17:08:55:077,2.5066,1.9003,11.6003,37.5261,0.2076,0.2353,-0.016,0.1559
17:08:55:096,2.0038,1.6101,11.6302,37.4371,0.2172,0.1416,0.116,0.1567
17:08:55:117,1.8889,1.1341,11.3538,37.6987,0.1863,-0.0532,0.3151,0.1578
17:08:55:136,2.3484,0.4478,10.7064,37.6879,0.1214,-0.23,0.4386,0.1592
17:08:55:156,2.817,0.1788,9.925,37.7638,0.0245,-0.3503,0.3939,0.1608
17:08:55:176,2.9584,0.0499,9.2104,38.1542,-0.1842,-0.2821,0.3045,0.1623
17:08:55:196,2.728,-0.0062,9.3155,38.285,-0.379,0.0181,0.2747,0.1623
17:08:55:217,2.1811,0.1707,9.6956,38.073,-0.3151,0.3066,0.2832,0.1592
17:08:55:236,1.7632,0.3609,9.6638,37.9616,-0.132,0.4227,0.3939,0.1545
17:08:55:257,1.7388,0.5293,9.3425,38.2063,0.1033,0.3396,0.4716,0.1504
17:08:55:277,2.0161,0.8064,8.4472,37.9776,0.3024,0.1054,0.4195,0.1483
17:08:55:297,2.1763,1.2217,7.429,38.13,0.3875,-0.1256,0.2917,0.1492
17:08:55:316,2.2773,1.6306,6.7519,38.272,0.4056,-0.2768,0.164,0.1524
17:08:55:338,2.3065,2.1473,6.2385,37.9195,0.3961,-0.2917,0.0671,0.1568
17:08:55:357,2.3273,2.6643,5.9714,37.989,0.3024,-0.164,0.0639,0.1615
17:08:55:377,2.4309,2.982,6.187,38.1529,0.1405,0.0862,0.1746,0.1652
17:08:55:397,2.6206,3.031,6.873,38.2386,-0.0192,0.3354,0.3375,0.1665
17:08:55:416,3.0021,2.8413,7.8397,38.5357,-0.1395,0.5259,0.4099,0.1649
17:08:55:437,3.3272,2.7249,8.908,38.7591,-0.2214,0.6377,0.3662,0.1613
17:08:55:456,3.1455,2.4604,10.0907,38.8895,-0.2097,0.6069,0.3077,0.1561
17:08:55:477,3.1758,2.32,11.1861,38.6845,-0.0106,0.4376,0.2619,0.1508
17:08:55:497,3.2702,2.3412,11.568,38.7513,0.28,0.1544,0.197,0.1474
17:08:55:518,3.4504,2.4646,11.1772,38.7619,0.3897,-0.198,0.1235,0.1477
17:08:55:537,3.7434,2.3603,10.7278,38.9724,0.2193,-0.5281,0.0437,0.1515
17:08:55:557,4.1775,2.0255,10.7944,38.9436,0.0937,-0.7037,-0.0862,0.1561
17:08:55:576,4.5846,1.8753,10.8405,38.9161,0.2044,-0.6984,-0.296,0.1605
17:08:55:597,4.7115,2.0914,10.4449,39.0546,0.3716,-0.5451,-0.5153,0.1656
17:08:55:618,4.3552,2.326,9.9459,39.0706,0.3737,-0.2917,-0.5919,0.1717
17:08:55:637,3.8945,2.1447,9.7197,38.7425,0.2236,-0.0405,-0.4791,0.1773
17:08:55:665,3.7249,1.5871,10.0004,39.164,0.1192,0.1427,-0.2949,0.1806
17:08:55:675,3.8659,1.059,9.8037,39.1097,0.1799,0.1192,-0.2374,0.1816
17:08:55:697,3.9626,0.8482,9.0375,39.1205,0.082,0.016,-0.2938,0.1826
17:08:55:717,3.7989,0.7498,8.4356,39.3457,-0.2023,-0.1299,-0.3897,0.1838
17:08:55:736,3.3056,0.6209,8.4257,39.3558,-0.4855,-0.1895,-0.4067,0.1838
17:08:55:756,2.962,0.5244,8.654,39.1688,-0.4887,-0.198,-0.3886,0.1816
17:08:55:777,2.6743,0.5178,8.2829,39.2542,-0.3077,-0.1735,-0.4078,0.1786
17:08:55:796,2.4201,0.7044,7.6159,39.5897,-0.1278,-0.2023,-0.4876,0.1766
17:08:55:817,2.1052,1.0767,6.9045,39.5315,-0.0298,-0.2981,-0.5749,0.1764
17:08:55:837,1.8229,1.5878,6.3359,39.916,-0.049,-0.4216,-0.5856,0.1778
17:08:55:856,1.7807,2.075,6.1437,39.9946,-0.1725,-0.4695,-0.4567,0.18
17:08:55:876,1.9254,2.3521,6.4888,39.8974,-0.3002,-0.3886,-0.2246,0.1815
17:08:55:896,2.3474,2.3931,7.3236,39.6944,-0.4195,-0.2608,0.099,0.1812
17:08:55:917,2.9559,1.9098,8.2591,39.8219,-0.477,-0.1192,0.3801,0.1789
17:08:55:937,3.6895,1.6231,9.158,39.5115,-0.4887,-0.0394,0.51,0.1748
17:08:55:956,4.1015,1.2515,10.1063,39.641,-0.5291,-0.05,0.576,0.17
17:08:55:976,4.5401,0.7945,11.0186,39.8514,-0.3854,-0.1618,0.5185,0.1648
17:08:55:997,4.8064,0.5949,11.0964,39.6438,-0.0277,-0.2896,0.2545,0.1605
17:08:56:017,4.7239,1.1782,10.4136,39.6269,0.3418,-0.4046,-0.1246,0.1598
17:08:56:037,4.2321,2.0903,9.4555,39.4615,0.4993,-0.4759,-0.3918,0.1636
17:08:56:057,3.8176,2.8453,8.7315,39.3404,0.4418,-0.4472,-0.4237,0.1702
17:08:56:077,3.8197,3.3879,8.565,39.6348,0.2789,-0.28,-0.3087,0.177
17:08:56:097,3.8986,3.5797,8.9559,39.5167,0.1821,0.05,-0.2002,0.1817
17:08:56:117,3.6752,3.4779,9.4932,39.8156,0.2214,0.4067,-0.1129,0.1838
17:08:56:137,3.291,3.107,9.882,40.0306,0.2694,0.5941,-0.0245,0.1843
17:08:56:156,2.9958,2.6392,10.0894,40.1679,0.2576,0.5749,0.0841,0.184
17:08:56:176,2.89,1.9648,10.1229,39.8389,0.1278,0.3481,0.2055,0.1837
17:08:56:197,3.1268,1.0812,9.9392,39.9603,-0.0681,0.0713,0.296,0.1834
17:08:56:217,3.4053,0.2654,9.7716,39.963,-0.2555,-0.0522,0.3119,0.1825
17:08:56:237,3.4325,-0.3265,9.7919,39.9402,-0.4078,0.066,0.3066,0.1806
17:08:56:257,3.1462,-0.7015,10.3445,39.966,-0.4131,0.2896,0.28,0.1768
17:08:56:277,2.6336,-0.5459,10.5888,40.0301,-0.1927,0.3439,0.2172,0.1715
17:08:56:297,2.2164,0.117,9.9983,40.021,0.05,0.2417,0.1938,0.1671
17:08:56:317,2.0165,0.8565,9.1652,39.7253,0.1299,-0.017,0.2332,0.1654
17:08:56:337,2.142,1.2643,8.3608,39.4541,0.1299,-0.2906,0.2715,0.1659
17:08:56:357,2.3854,1.4985,7.8044,39.8486,0.2065,-0.4131,0.2736,0.1677
17:08:56:377,2.5738,1.8059,7.3272,39.6301,0.3386,-0.3961,0.2395,0.1706
17:08:56:397,2.6654,2.1481,6.7792,39.51,0.4227,-0.296,0.2129,0.1745
17:08:56:417,2.6562,2.4826,6.4784,39.4524,0.3907,-0.1661,0.2513,0.179
17:08:56:436,2.8216,2.5796,6.4107,39.2919,0.296,-0.083,0.3322,0.1829
17:08:56:457,3.1661,2.6252,6.2933,39.2681,0.131,-0.0777,0.3673,0.1856
17:08:56:477,3.4986,2.3979,6.3898,39.5281,-0.1427,-0.0415,0.33,0.187
17:08:56:496,3.7939,2.1612,7.0429,39.334,-0.3205,0.0319,0.2129,0.1864
17:08:56:517,3.9059,2.0843,7.8094,39.2259,-0.33,0.165,0.0468,0.1836
17:08:56:537,3.7878,2.408,8.2615,39.452,-0.2768,0.3322,-0.0532,0.1799
17:08:56:557,3.6524,2.7741,8.8543,39.5228,-0.3311,0.4993,-0.0043,0.176
17:08:56:579,3.5618,2.9296,9.534,39.488,-0.3982,0.5834,0.1256,0.1712
17:08:56:597,3.6114,2.7706,10.013,39.7612,-0.5334,0.5611,0.3034,0.1651
17:08:56:617,3.8869,2.2962,10.79,39.817,-0.5792,0.4312,0.3673,0.1578
17:08:56:636,4.2482,1.9232,11.1516,39.5112,-0.494,0.1576,0.2406,0.1501
17:08:56:657,4.5353,1.8535,11.401,39.5747,-0.3481,-0.0405,0.0064,0.1443
17:08:56:677,4.569,2.0545,11.323,39.1796,-0.1437,-0.1586,-0.2087,0.1409
17:08:56:697,4.1678,1.8761,10.6931,38.9074,-0.1192,-0.0916,-0.2129,0.14
17:08:56:717,3.9362,1.0453,10.9618,38.8943,-0.231,0.1629,0.016,0.1399
17:08:56:737,4.0888,-0.0274,11.3362,38.5911,-0.0873,0.3332,0.1608,0.1376
17:08:56:757,4.4529,-0.5466,10.7641,38.4631,0.2662,0.2981,0.0341,0.1345
17:08:56:776,4.5386,-0.2312,9.2405,38.5374,0.412,0.1182,-0.2896,0.1341
17:08:56:797,4.1005,0.1685,7.949,38.6802,0.0106,-0.1054,-0.511,0.1372
17:08:56:817,3.5287,0.0694,8.0214,38.9866,-0.6005,-0.148,-0.478,0.1398
17:08:56:837,3.2348,-0.4754,8.8503,38.9508,-0.8538,-0.0564,-0.313,0.1378
17:08:56:856,3.2103,-0.9545,9.3332,38.6896,-0.7123,0.1278,-0.2587,0.1317
17:08:56:877,3.0076,-0.9394,9.2552,38.3928,-0.3513,0.2438,-0.3811,0.1248
17:08:56:897,2.5962,-0.4105,8.4226,38.1263,-0.0809,0.181,-0.5611,0.1201
17:08:56:916,2.1759,0.1375,7.681,38.1919,-0.0415,0.0021,-0.6739,0.1186
17:08:56:937,1.966,0.642,7.3608,38.3967,-0.0415,-0.2246,-0.7186,0.1189
17:08:56:956,1.9182,1.0019,7.043,38.3782,0.0106,-0.3758,-0.6942,0.1204
17:08:56:977,2.0778,1.4998,6.6974,38.4469,0.0213,-0.3481,-0.5888,0.1229
17:08:56:996,2.4003,2.0386,6.7458,38.4654,-0.0713,-0.2406,-0.4078,0.1256
17:08:57:017,2.6807,2.1068,7.2482,38.1906,-0.2598,-0.1373,-0.1735,0.1269
17:08:57:036,3.0382,1.6064,8.1906,38.2576,-0.3716,-0.0841,0.0628,0.1261
17:08:57:057,3.8571,1.265,9.0675,38.2564,-0.2864,-0.0309,0.1352,0.1233
17:08:57:077,4.4772,1.1276,9.3593,38.236,-0.1586,-0.0309,-0.0021,0.1202
17:08:57:097,4.5472,1.1345,9.565,38.2829,-0.164,0.0053,-0.2033,0.1186
17:08:57:117,4.1872,1.145,10.1833,38.2209,-0.1597,0.0213,-0.3268,0.1175
17:08:57:137,3.87,1.1451,10.6401,38.0447,-0.0426,0.0447,-0.3577,0.1164
17:08:57:158,3.5981,1.2609,10.5862,37.7712,0.132,0.0681,-0.379,0.116
17:08:57:177,3.395,1.5119,10.2464,37.6286,0.2204,0.099,-0.4056,0.117
17:08:57:197,3.1075,1.7499,10.3541,37.6756,0.2055,0.1682,-0.4269,0.119
17:08:57:218,2.866,2.0137,10.6593,37.5698,0.2289,0.214,-0.4216,0.1209
17:08:57:238,2.4452,2.1541,10.9189,37.5031,0.28,0.2715,-0.3471,0.1227
17:08:57:258,1.9737,2.017,10.9491,37.5775,0.2289,0.1906,-0.1501,0.1245
17:08:57:277,1.6599,1.2049,10.7117,37.8159,0.016,0.0053,0.1405,0.1262
17:08:57:297,1.8668,-0.1862,10.698,37.813,-0.1821,-0.1033,0.3588,0.1267
17:08:57:317,2.3506,-1.2331,10.7131,37.7609,-0.1075,-0.1554,0.4131,0.1254
17:08:57:336,2.7119,-1.6923,9.9933,37.9247,-0.0053,-0.1278,0.346,0.1239
17:08:57:357,2.6927,-1.649,9.3893,37.9169,-0.1427,0.0245,0.2683,0.1237
17:08:57:376,2.2364,-1.3856,9.5941,38.0277,-0.3386,0.131,0.2406,0.1225
17:08:57:397,1.7387,-0.8995,9.8349,38.1797,-0.3939,0.1086,0.2864,0.1191
17:08:57:417,1.5865,-0.4264,9.7926,38.0759,-0.3066,0.0405,0.3662,0.1147
17:08:57:436,1.649,0.1644,9.4998,38.0417,-0.1054,-0.0415,0.4365,0.1108
17:08:57:456,1.9414,0.7486,8.8845,38.1042,0.0543,-0.164,0.4929,0.1086
17:08:57:476,2.2532,1.0748,8.1717,37.8976,0.1341,-0.264,0.494,0.1085
17:08:57:496,2.4383,1.4124,7.7366,37.7526,0.1629,-0.3087,0.4823,0.1097
17:08:57:516,2.5928,1.5422,7.6606,37.8212,0.2044,-0.263,0.4919,0.1115
17:08:57:537,2.8047,1.576,7.5607,37.7544,0.3045,-0.1682,0.5121,0.1135
17:08:57:557,2.9656,1.5474,7.35,37.6253,0.3258,-0.016,0.5238,0.1157
17:08:57:577,3.181,1.4041,7.4126,37.5875,0.2225,0.1469,0.5195,0.1179
17:08:57:597,3.3504,1.0791,7.9318,37.6346,0.1001,0.2236,0.4397,0.1188
17:08:57:616,3.4498,0.8222,8.5146,37.4906,0.0692,0.2385,0.297,0.1183
17:08:57:637,3.6356,0.8696,8.895,37.5867,0.1246,0.2353,0.0916,0.1174
17:08:57:679,3.5395,1.2143,9.2056,37.4887,0.1629,0.2321,-0.1043,0.117
17:08:57:681,3.3008,1.6414,9.4279,37.7875,0.1544,0.2843,-0.1959,0.1175
17:08:57:697,2.9802,1.9665,9.6673,37.7595,0.0724,0.3151,-0.1533,0.1179
17:08:57:717,2.8082,1.899,10.1185,37.7182,-0.0958,0.2811,0.0319,0.1177
17:08:57:737,3.0414,1.4835,10.75,37.8304,-0.2278,0.083,0.1501,0.1161
17:08:57:757,3.6536,1.0332,11.3034,37.736,-0.214,-0.1288,0.1022,0.1136
17:08:57:777,4.228,0.9607,11.3041,37.7927,-0.0383,-0.28,-0.0905,0.1119
17:08:57:797,4.1861,1.0533,10.7832,37.6498,0.0564,-0.3258,-0.2736,0.1123
17:08:57:817,3.8407,0.8587,10.5898,37.5572,-0.0234,-0.197,-0.2033,0.1143
17:08:57:836,3.9482,0.251,11.0653,37.6801,-0.0106,-0.0011,0,0.1158
17:08:57:856,4.2534,-0.3146,11.0569,37.8059,0.1352,0.0884,0.1097,0.1156
17:08:57:876,4.4865,-0.7434,10.5796,37.5318,0.1714,0.1224,0.1001,0.1157
17:08:57:897,4.5623,-0.8664,10.2072,37.4593,0.099,0.0447,-0.0405,0.1165
17:08:57:917,4.3888,-0.7152,9.7768,37.644,-0.0192,-0.1512,-0.2278,0.1173
17:08:57:937,4.0152,-0.6876,9.1868,37.63,-0.1448,-0.2651,-0.3205,0.1184
17:08:57:959,3.7747,-0.788,8.7289,37.3891,-0.2076,-0.1757,-0.3449,0.1191
17:08:57:976,3.4846,-0.8095,8.5477,37.6308,-0.1235,0.0277,-0.444,0.1188
17:08:57:997,2.9364,-0.4842,8.2005,37.3732,0.0735,0.1714,-0.6005,0.118
17:08:58:017,2.3651,-0.0439,7.6315,37.4554,0.2268,0.1916,-0.7282,0.1182
17:08:58:038,1.8305,0.5462,6.9782,37.5282,0.2491,0.0617,-0.7921,0.12
17:08:58:056,1.4205,1.0656,6.6062,37.7398,0.1629,-0.0873,-0.757,0.123
17:08:58:076,1.2989,1.4582,6.61,37.8032,0.0522,-0.1544,-0.6079,0.1261
17:08:58:095,1.3557,1.6329,6.8489,37.7812,-0.016,-0.0937,-0.3418,0.1283
17:08:58:116,1.784,1.6413,7.3231,37.7161,-0.0383,0.0479,-0.0554,0.1292
17:08:58:136,2.3367,1.5378,7.9356,37.8957,-0.049,0.1395,0.1118,0.1288
17:08:58:156,2.7711,1.4599,8.5108,37.5153,-0.0681,0.1033,0.1767,0.1277
17:08:58:177,3.0991,1.3728,8.9232,37.4415,-0.0979,0.0064,0.1714,0.1264
17:08:58:199,3.3672,1.3116,9.2623,37.3075,-0.1043,-0.0798,0.1011,0.1253
17:08:58:216,3.4316,1.2714,9.5819,37.3741,-0.0617,-0.0809,0.0224,0.1245
17:08:58:236,3.4285,1.404,9.882,37.3366,0.0277,-0.0075,-0.0277,0.1241
17:08:58:257,3.3117,1.6368,9.894,37.6217,0.1246,0.0798,-0.0767,0.1241
17:08:58:277,3.1736,2.0674,9.8531,37.8074,0.1054,0.1522,-0.116,0.1248
17:08:58:297,2.9801,2.3869,10.1328,37.9803,0.0234,0.1629,-0.1182,0.1254
17:08:58:317,2.9264,2.6384,10.5531,38.08,-0.0415,0.1672,-0.0617,0.1254
17:08:58:337,2.9317,2.5696,11.0752,38.0622,-0.0767,0.1629,0.0138,0.1246
17:08:58:357,2.7948,2.1845,11.3476,38.1215,-0.1011,0.1171,0.0979,0.1232
17:08:58:378,2.3321,1.3862,11.3656,38.2335,-0.181,0.0628,0.2364,0.1218
17:08:58:396,2.1296,0.1667,11.6095,38.0335,-0.2534,0.0575,0.4248,0.1198
17:08:58:416,2.311,-0.94,11.7665,38.017,-0.0958,0.0192,0.5089,0.1168
17:08:58:437,2.5075,-1.5563,11.0442,37.9365,0.1384,-0.033,0.4621,0.1145
17:08:58:456,2.4416,-1.7227,10.0857,38.1135,0.1405,0.0479,0.3641,0.1146
17:08:58:476,2.0746,-1.5102,9.7858,38.156,0.0234,0.1395,0.2683,0.1153
17:08:58:496,1.485,-1.0008,9.6448,38.0829,-0.0149,0.0926,0.2204,0.1149
17:08:58:516,1.2164,-0.2668,9.4666,38.071,0.0266,0.0554,0.2598,0.1141
17:08:58:536,1.0738,0.4794,8.9322,37.9342,0.0958,-0.0479,0.3503,0.1135
17:08:58:556,1.2594,0.9601,8.336,37.9376,0.0852,-0.099,0.4983,0.1137
17:08:58:576,1.7266,1.1946,8.0766,37.7897,0.1235,-0.1043,0.577,0.1142
17:08:58:596,2.0766,1.366,7.8286,37.6582,0.2406,-0.0809,0.5568,0.1147
17:08:58:616,2.1534,1.523,7.4421,37.807,0.296,-0.0021,0.5355,0.1161
17:08:58:636,2.1298,1.6,7.3038,37.9459,0.2374,0.0394,0.5653,0.1178
17:08:58:657,2.3228,1.5957,7.5127,38.0332,0.1246,0.0852,0.6303,0.1191
17:08:58:677,2.6223,1.333,7.9708,38.0434,0.0969,0.1341,0.658,0.1193
17:08:58:696,2.9734,1.1084,8.1429,37.747,0.099,0.1746,0.6122,0.1187
17:08:58:717,3.3279,0.8579,8.4136,38.0138,0.0405,0.2097,0.4589,0.1179
17:08:58:739,3.5193,0.9446,8.8407,37.8071,0.0266,0.2129,0.214,0.1169
17:08:58:757,3.332,1.215,9.201,37.7393,0.0617,0.2417,0.0032,0.1158
17:08:58:776,3.1219,1.5337,9.4821,38.2447,0.1469,0.3098,-0.0894,0.115
17:08:58:796,2.9396,1.8105,9.6999,38.356,0.1884,0.3843,-0.0905,0.1147
17:08:58:816,2.7994,1.9401,9.9533,38.1901,0.1373,0.3875,-0.0287,0.1146
17:08:58:836,2.8131,1.7968,10.3876,38.3103,0.0138,0.2449,0.0341,0.1141
17:08:58:856,3.0935,1.4898,10.7545,38.271,-0.0873,0.0106,0.0213,0.1132
17:08:58:876,3.5216,1.235,10.9825,38.2063,-0.0852,-0.1586,-0.1033,0.1124
17:08:58:896,3.9052,1.3246,11.1734,38.3649,0.049,-0.2502,-0.2779,0.1123
17:08:58:916,3.8403,1.4141,10.6435,38.5705,0.1948,-0.2726,-0.4035,0.1137
17:08:58:939,3.6482,1.3701,10.2204,38.5982,0.132,-0.1395,-0.3843,0.1168
17:08:58:957,3.5764,0.9809,10.4452,38.7081,0.0394,-0.0085,-0.2523,0.1194
17:08:58:976,3.8223,0.7241,10.573,38.5808,0.115,0.0053,-0.2246,0.1204
17:08:58:996,3.7466,0.6958,10.1137,38.4856,0.1299,-0.0138,-0.2523,0.1213
17:08:59:016,3.5932,0.5735,9.5434,38.2617,-0.0117,-0.1299,-0.2438,0.1227
17:08:59:037,3.6684,0.4744,9.2474,38.3549,-0.2566,-0.2257,-0.2225,0.1239
17:08:59:057,3.6509,-0.0582,9.3072,38.1801,-0.4344,-0.1884,-0.1938,0.1236
17:08:59:077,3.5867,-0.6867,9.643,38.5269,-0.3897,-0.0681,-0.2289,0.1214
17:08:59:097,3.3305,-0.8601,9.3809,38.3917,-0.1799,0.0894,-0.3471,0.1184
17:08:59:116,2.7372,-0.643,8.8906,38.3651,-0.0405,0.116,-0.4972,0.1162
17:08:59:138,2.1879,-0.257,8.4037,38.3574,0.0341,-0.0053,-0.5909,0.1156
17:08:59:157,1.8589,0.1996,7.9453,38.4954,0.0681,-0.1427,-0.593,0.1163
17:08:59:176,1.7728,0.6803,7.6726,38.6141,0.1405,-0.2033,-0.5472,0.118
17:08:59:196,1.772,1.1796,7.2164,38.9414,0.2044,-0.2172,-0.4663,0.1205
17:08:59:216,1.9005,1.6832,6.8915,39.0209,0.1288,-0.1661,-0.3066,0.1236
17:08:59:236,2.1241,1.8008,6.9995,39.1682,-0.066,-0.082,-0.0873,0.1262
17:08:59:256,2.3179,1.4745,7.6219,39.1205,-0.2364,0.0085,0.1214,0.1267
17:08:59:276,2.7954,1.1801,8.445,39.2182,-0.2364,0.0703,0.264,0.1249
17:08:59:298,3.3291,0.9406,8.8618,39.1261,-0.1544,0.0692,0.2694,0.122
17:08:59:317,3.6015,0.8132,9.1188,39.268,-0.1341,0.0447,0.1927,0.1197
17:08:59:337,3.6137,0.6547,9.3985,39.6745,-0.1682,0.0458,0.131,0.118
17:08:59:356,3.6273,0.6698,9.9882,39.827,-0.115,0.0756,0.05,0.1163
17:08:59:376,3.3635,0.8043,10.2754,40.1305,0.0554,0.083,-0.0319,0.1146
17:08:59:397,3.0628,1.0976,10.1043,40.2284,0.1629,0.0554,-0.0692,0.1143
17:08:59:417,2.9093,1.535,10.1357,40.3011,0.1778,0.0426,-0.1139,0.1153
17:08:59:437,2.5541,1.9684,10.3197,40.5645,0.1842,0.0181,-0.1278,0.1167
17:08:59:456,2.2961,2.1226,10.5838,40.5382,0.2119,0.0149,-0.0586,0.1184
17:08:59:476,2.1912,2.1672,10.7283,40.4188,0.2129,0.0437,0.0628,0.1201
17:08:59:496,1.9487,1.8079,10.8376,40.8094,0.1182,0.0713,0.2278,0.1219
17:08:59:517,1.8172,0.9049,11.1133,41.0839,-0.049,0.0617,0.4333,0.1226
17:08:59:536,2.0166,-0.1136,11.3299,41.3392,-0.0894,-0.0213,0.5217,0.1219
17:08:59:556,2.2545,-0.91,10.8781,41.5315,-0.0202,-0.116,0.4929,0.1204
17:08:59:577,2.4678,-1.292,10.1439,41.4881,0.0064,-0.1075,0.3897,0.1199
17:08:59:597,2.3879,-1.2755,9.5753,41.2406,-0.0373,-0.0224,0.2459,0.1199
17:08:59:617,1.982,-0.8659,9.394,41.2317,-0.1097,0.0468,0.1682,0.1196
17:08:59:637,1.7798,-0.2692,9.422,41.5219,-0.0948,0.0224,0.1629,0.1184
17:08:59:657,1.8451,0.3686,9.0721,41.4016,-0.0192,-0.0405,0.1746,0.1171
17:08:59:677,1.9739,0.9287,8.4827,41.4151,0.0085,-0.0958,0.2278,0.1166
17:08:59:696,2.2836,1.1989,8.0228,41.1915,-0.0245,-0.0852,0.3013,0.1167
17:08:59:717,2.604,1.3942,7.9329,40.9631,-0.0447,0.0011,0.33,0.1166
17:08:59:736,2.728,1.4455,8.0135,40.9255,-0.0224,0.083,0.3183,0.1159
17:08:59:756,2.696,1.4179,8.0869,40.8248,-0.0192,0.1224,0.2981,0.1148
17:08:59:776,2.6554,1.2552,8.2451,40.753,-0.0841,0.1661,0.28,0.1137
17:08:59:798,2.6995,0.9231,8.7153,40.6218,-0.1352,0.1991,0.2417,0.112
17:08:59:817,2.7314,0.6144,9.0834,40.6422,-0.131,0.1906,0.1491,0.1097
17:08:59:836,2.7104,0.3442,9.2702,40.6775,-0.0873,0.1757,0.0202,0.1074
17:08:59:857,2.6145,0.2606,9.4268,40.6762,-0.0319,0.2023,-0.1171,0.1056
17:08:59:876,2.3943,0.496,9.6743,40.9478,0.066,0.2364,-0.2523,0.1044
17:08:59:896,2.1381,0.988,9.7372,40.9956,0.1757,0.2342,-0.3535,0.1038
17:08:59:916,1.8722,1.5596,9.7895,41.3139,0.2662,0.1246,-0.379,0.1043
17:08:59:936,1.8568,2.0571,9.4835,41.395,0.2864,-0.0564,-0.3386,0.1061
17:08:59:956,1.9123,2.2162,9.2896,41.5666,0.1224,-0.1618,-0.1938,0.1091
17:08:59:976,2.2559,2.0092,9.6987,41.6226,-0.0798,-0.1863,-0.017,0.1116
17:08:59:996,2.702,1.4135,10.1954,41.7707,-0.2044,-0.2364,0.0692,0.1122
17:09:00:017,3.2801,0.8882,10.7794,41.8934,-0.2108,-0.2204,0.0053,0.1116
17:09:00:037,3.6209,0.7798,11.1845,41.5995,-0.0277,-0.2172,-0.2129,0.1106
17:09:00:057,3.3188,0.9263,10.7694,41.5469,0.1267,-0.2204,-0.3961,0.111
17:09:00:079,2.9608,1.0815,10.8075,41.3549,0.0916,-0.1427,-0.3577,0.1133
17:09:00:096,2.8613,0.7942,10.9875,41.3071,0.1171,-0.1448,-0.2193,0.1153
17:09:00:116,2.9831,0.3339,10.8618,41.226,0.1831,-0.115,-0.1022,0.1171
17:09:00:136,3.3116,-0.0413,10.4398,41.5966,0.3151,-0.1341,-0.1118,0.1191
17:09:00:156,3.4692,-0.0046,9.6178,41.5364,0.4227,-0.2545,-0.2385,0.1221
17:09:00:176,3.4891,0.3453,8.4862,41.6512,0.3833,-0.3684,-0.3811,0.1268
17:09:00:196,3.2397,0.6636,7.6049,41.5313,0.1299,-0.3002,-0.411,0.1325
17:09:00:216,2.9968,0.6311,7.685,41.3512,-0.1874,-0.0532,-0.2885,0.1364
17:09:00:236,2.8573,0.1594,8.4557,41.1883,-0.3013,0.1459,-0.1714,0.1365
17:09:00:257,2.868,-0.1866,8.8424,41.3084,-0.2395,0.1842,-0.1991,0.1337
17:09:00:276,2.7755,-0.103,8.8515,41.1895,-0.1703,0.1597,-0.3183,0.1308
17:09:00:296,2.4252,0.2686,8.7106,41.1382,-0.1246,0.0926,-0.4205,0.1287
17:09:00:317,2.0861,0.6496,8.5602,41.4659,-0.0798,0.0511,-0.4493,0.1276
17:09:00:336,1.7158,0.9985,8.4284,41.3428,0.0011,0.0596,-0.4035,0.127
17:09:00:356,1.503,1.3532,8.2543,41.5723,0.0649,0.0745,-0.264,0.127
17:09:00:379,1.5024,1.6307,7.9942,41.8976,0.0532,0.0511,-0.0916,0.1274
17:09:00:396,1.5637,1.6994,7.9043,41.6655,-0.0756,0.0117,0.0884,0.1278
17:09:00:416,1.778,1.5386,8.1905,41.7561,-0.1895,-0.0394,0.2417,0.1274
17:09:00:437,2.1491,1.3368,8.5049,41.904,-0.2172,-0.0767,0.3268,0.1257
17:09:00:456,2.4822,1.3596,8.7204,41.4779,-0.1938,-0.1097,0.3567,0.1237
17:09:00:477,2.8075,1.417,8.7542,41.4481,-0.1725,-0.1203,0.3577,0.1219
17:09:00:497,3.076,1.5922,8.8546,41.3223,-0.1672,-0.0873,0.3343,0.1203
17:09:00:517,3.1527,1.6405,9.0791,41.1778,-0.1703,-0.0287,0.3258,0.1187
17:09:00:536,3.2335,1.7005,9.4614,40.9002,-0.1416,0.0383,0.3279,0.1169
17:09:00:557,3.3521,1.7069,9.6509,41.1389,-0.0415,0.0341,0.2853,0.1149
17:09:00:576,3.41,1.749,9.5952,41.2077,0,0.0628,0.2364,0.1137
17:09:00:596,3.2903,1.8278,9.7945,41.5021,0.0341,0.0948,0.1927,0.113
17:09:00:616,3.0772,1.8352,9.8199,41.7259,0.0575,0.1054,0.197,0.1125
17:09:00:636,3.0418,1.8302,9.9784,42.0621,0.0415,0.1278,0.2427,0.1123
17:09:00:657,3.0048,1.6076,10.2958,41.9082,0.0043,0.1586,0.2864,0.1118
17:09:00:676,3.0197,1.3564,10.7431,42.0636,-0.0117,0.181,0.3045,0.1108
17:09:00:697,3.054,1.5554,11.2368,41.9023,0.0373,0.1341,0.2417,0.1095
17:09:00:717,2.568,1.5281,10.9727,41.5915,-0.0554,-0.0426,0.2662,0.1087
17:09:00:737,2.2915,0.5875,10.9381,41.2975,-0.3737,-0.1522,0.4578,0.1084
17:09:00:756,2.4319,-0.8733,11.5988,41.4829,-0.4259,-0.1352,0.5462,0.1061
17:09:00:776,2.7317,-1.7375,11.7163,41.243,0.0298,-0.0905,0.4269,0.1021
17:09:00:796,2.7298,-1.6914,10.3427,41.2296,0.5345,-0.1001,0.1427,0.1005
17:09:00:817,2.2139,-1.0498,8.7717,41.2961,0.6196,-0.0405,-0.0234,0.104
17:09:00:836,1.5319,-0.4035,8.1057,41.3102,0.3609,0.0628,0.0096,0.1096
17:09:00:857,1.0628,-0.0282,8.5117,41.44,0.0884,0.1469,0.2268,0.1134
17:09:00:877,1.145,0.1091,8.9306,41.6433,0.0138,0.1033,0.4674,0.1138
17:09:00:897,1.7559,0.077,8.8644,41.5495,-0.0181,0.016,0.6186,0.1129
17:09:00:916,2.3664,0.0321,8.7912,41.6464,-0.0884,-0.0383,0.6271,0.1119
17:09:00:936,2.5805,0.0507,8.907,41.6613,-0.1576,-0.0437,0.5738,0.1107
17:09:00:956,2.7016,0.0757,9.2526,41.3795,-0.164,0.0096,0.5334,0.109
17:09:00:976,2.7983,0.0795,9.5851,41.4801,-0.0479,0.0575,0.4525,0.1068
17:09:00:996,2.852,0.2473,9.3906,41.5041,0.1182,0.0841,0.3268,0.1051
17:09:01:016,2.7391,0.6643,8.9453,41.3083,0.1842,0.0862,0.2119,0.1048
17:09:01:038,2.6552,0.9437,8.6164,40.9171,0.1331,0.0596,0.1618,0.1055
17:09:01:056,2.7267,1.0013,8.552,40.964,0.0287,0.0713,0.1714,0.1062
17:09:01:076,2.8318,0.9641,8.6635,40.9295,-0.016,0.1331,0.165,0.1062
17:09:01:096,2.8928,0.9109,8.8058,40.8457,0,0.1576,0.1118,0.1053
17:09:01:117,2.8939,0.9535,8.7246,40.8701,-0.0064,0.1278,0.0341,0.1043
17:09:01:136,2.8767,1.0466,8.6182,41.0603,-0.0607,0.0649,-0.0351,0.1035
17:09:01:156,2.8074,1.0159,8.707,40.8919,-0.1405,0.0745,-0.0617,0.1028
17:09:01:176,2.8076,0.835,9.1628,41.0117,-0.1469,0.1459,-0.0703,0.1016
17:09:01:197,2.8217,0.7438,9.4979,41.1189,-0.082,0.1576,-0.1203,0.0996
17:09:01:216,2.799,0.5824,9.8505,41.209,-0.0149,0.1672,-0.1661,0.0981
17:09:01:237,2.8028,0.5928,10.1534,41.0795,0.0873,0.1459,-0.2204,0.0971
