Time,Acc_X,Acc_Y,Acc_Z,Meg,Gyr_X,Gyr_Y,Gyr_Z,Ore
17:32:16:615,2.6714,3.5187,8.8645,57.254,-0.1299,0.0266,-0.1022,0.2369
17:32:16:634,2.5562,3.6019,8.9105,57.0564,-0.0138,0.1267,-0.0852,0.2359
17:32:16:654,2.4817,3.7228,8.9339,56.9794,0.0586,0.1459,-0.0564,0.2355
17:32:16:674,2.4804,3.8083,8.8011,56.8094,0.0703,0.1224,-0.0256,0.2354
17:32:16:694,2.4937,3.7768,8.6734,56.9021,0.0192,0.0884,0.0138,0.2352
17:32:16:715,2.6046,3.6987,8.6062,57.0802,-0.0617,0.0628,0.0224,0.2345
17:32:16:734,2.6281,3.6214,8.6674,56.8033,-0.132,0.099,-0.017,0.233
17:32:16:754,2.5094,3.5537,8.8379,56.7006,-0.1789,0.1672,-0.0809,0.2308
17:32:16:774,2.3349,3.457,9.0019,56.7626,-0.1767,0.2364,-0.1373,0.2282
17:32:16:794,2.1945,3.369,9.1119,56.6842,-0.1129,0.3045,-0.1842,0.2256
17:32:16:815,2.0685,3.4266,9.1684,56.7954,0.016,0.3268,-0.2576,0.2238
17:32:16:834,1.9082,3.6152,9.0434,56.8477,0.1491,0.2768,-0.3449,0.2234
17:32:16:854,1.5398,3.6273,8.7628,57.0199,0.2576,0.2513,-0.3992,0.2241
17:32:16:874,1.2109,3.6094,8.466,57.375,0.3322,0.181,-0.3705,0.2258
17:32:16:894,1.203,3.7773,8.2059,57.2853,0.3801,0.1022,-0.3268,0.2283
17:32:16:915,1.3335,3.8888,7.9458,56.9063,0.4291,0.1118,-0.2789,0.2313
17:32:16:934,1.5374,4.0478,7.7198,56.6412,0.4631,0.1703,-0.2481,0.2344
17:32:16:954,1.7568,4.2839,7.589,56.3343,0.4589,0.2374,-0.2608,0.2373
17:32:16:974,1.8256,4.4655,7.5765,56.1777,0.4163,0.3173,-0.2683,0.2396
17:32:16:994,1.7568,4.5658,7.6277,56.2418,0.3237,0.3599,-0.2449,0.2408
17:32:17:015,1.8198,4.5946,7.7497,56.4575,0.2183,0.2672,-0.2459,0.2415
17:32:17:034,1.9009,4.5473,7.916,56.5817,0.1043,0.1065,-0.3013,0.2418
17:32:17:054,1.7994,4.5519,8.0126,56.522,-0.0064,-0.0351,-0.3748,0.2418
17:32:17:074,1.6914,4.5604,8.0753,56.4124,-0.1256,-0.198,-0.4322,0.2414
17:32:17:095,1.6322,4.6321,8.0578,56.1506,-0.231,-0.3577,-0.4354,0.2409
17:32:17:115,1.6183,4.6614,8.1756,56.2477,-0.297,-0.444,-0.4291,0.2401
17:32:17:134,1.5615,4.6307,8.2202,56.6311,-0.3119,-0.4908,-0.4291,0.2394
17:32:17:154,1.6073,4.7174,8.2483,56.8018,-0.2885,-0.4621,-0.4472,0.2388
17:32:17:175,1.6085,4.8112,8.3078,57.1451,-0.2236,-0.3066,-0.4759,0.2381
17:32:17:195,1.4009,4.9595,8.4399,57.2132,-0.1363,-0.1448,-0.4855,0.2374
17:32:17:215,1.1693,5.0772,8.4967,56.886,-0.0586,-0.0234,-0.477,0.2369
17:32:17:234,0.8971,5.2149,8.479,56.71,0.016,0.0745,-0.445,0.2366
17:32:17:254,0.4534,5.4136,8.2876,56.6953,0.0735,0.1938,-0.3673,0.2363
17:32:17:274,0.0002,5.6746,8.0122,56.6142,0.0873,0.2981,-0.3375,0.2359
17:32:17:294,-0.4579,5.6989,7.6736,56.717,0.0117,0.5515,-0.3971,0.2344
17:32:17:315,-0.7662,6.1624,8.1792,56.727,0.0852,0.7964,-0.4429,0.2318
17:32:17:334,-0.9305,6.3087,8.7577,56.7693,0.3024,1.1285,-0.2534,0.2297
17:32:17:354,-0.9801,5.704,8.7842,56.7231,0.4535,1.1796,0.0266,0.2289
17:32:17:374,-0.6945,5.9233,9.4747,56.5324,0.4695,1.3202,0.0969,0.2279
17:32:17:395,-0.5195,5.89,9.9923,56.0731,0.5738,1.1573,0.131,0.228
17:32:17:416,-0.5692,5.4785,9.7845,55.7529,0.6718,0.8411,0.3226,0.2301
17:32:17:434,-0.304,4.9803,9.1204,55.3676,0.6005,0.412,0.4663,0.2337
17:32:17:454,0.0691,4.6462,8.4561,55.1715,0.2981,-0.1054,0.5132,0.2371
17:32:17:476,0.3774,4.3638,8.1679,54.8755,-0.0894,-0.2779,0.4418,0.2385
17:32:17:494,-0.1355,3.9767,8.65,55.1248,-0.3471,0.0075,0.4365,0.2365
17:32:17:516,-0.367,3.3356,9.3764,55.0323,-0.4929,0.0032,0.625,0.2329
17:32:17:534,0.0558,3.0816,10.0252,55.3175,-0.56,-0.2065,0.741,0.2293
17:32:17:554,0.4991,3.1474,10.4258,55.2651,-0.4493,-0.2321,0.6697,0.2267
17:32:17:575,0.6238,2.962,10.6393,55.6499,-0.1246,-0.1267,0.5547,0.2261
17:32:17:595,0.3501,2.6645,10.3636,55.6572,0.3801,-0.131,0.4684,0.2292
17:32:17:615,0.0936,2.4555,9.2526,55.3687,0.8783,-0.3205,0.494,0.2374
17:32:17:634,0.1067,2.5254,7.8382,55.3561,1.1189,-0.363,0.5973,0.2488
17:32:17:654,0.191,2.4539,6.5389,55.1017,1.0615,-0.2246,0.725,0.2598
17:32:17:676,0.2699,2.3977,5.7797,54.8599,0.7761,0.0522,0.856,0.2677
17:32:17:695,0.4265,2.4959,5.5379,54.7896,0.3822,0.2598,0.9348,0.2713
17:32:17:715,0.7742,2.9258,5.6856,54.7503,-0.0564,0.3652,0.9486,0.2707
17:32:17:734,1.0015,3.2249,6.0919,54.7958,-0.444,0.4791,0.9007,0.2661
17:32:17:754,1.1831,3.3592,6.6937,54.564,-0.6899,0.5557,0.8485,0.2587
17:32:17:775,1.4028,3.4312,7.3129,54.7623,-0.7868,0.6207,0.7697,0.2499
17:32:17:794,1.697,3.5084,7.8899,54.6092,-0.7676,0.6388,0.6132,0.2407
17:32:17:815,1.5201,3.3827,8.1252,54.6071,-0.7314,0.724,0.2906,0.2314
17:32:17:835,1.1929,3.5855,8.3254,54.6628,-0.6654,0.6218,0.116,0.2224
17:32:17:854,0.7238,3.8662,8.527,54.5187,-0.6473,0.5398,0.0894,0.2141
17:32:17:875,0.468,4.2617,8.6934,54.7792,-0.6654,0.4003,0.1831,0.2065
17:32:17:895,0.5687,4.49,8.883,54.528,-0.6675,0.3311,0.3226,0.1994
17:32:17:915,0.8693,4.4687,9.0721,54.2328,-0.5547,0.3428,0.4333,0.1931
17:32:17:935,1.2595,4.4861,8.9478,54.1106,-0.3716,0.4014,0.4535,0.1881
17:32:17:957,1.3176,4.5485,8.7919,54.1151,-0.2033,0.5174,0.444,0.1838
17:32:17:975,1.3075,4.7058,8.7188,53.8647,-0.1278,0.5983,0.4482,0.1799
17:32:17:995,1.2159,4.7077,8.9034,54.0547,-0.1459,0.6399,0.4716,0.1756
17:32:18:015,1.2582,4.7068,9.3205,54.2167,-0.1267,0.5259,0.4823,0.1716
17:32:18:035,1.4567,4.8656,9.53,54.0761,-0.0106,0.3013,0.4663,0.1696
17:32:18:056,1.7038,5.1519,9.355,53.6776,0.1331,0.1405,0.4184,0.1698
17:32:18:075,1.7164,5.3454,9.0201,53.9792,0.2161,0.1011,0.3982,0.1711
17:32:18:095,1.8333,5.6581,9.0098,53.6063,0.2119,0.1906,0.3737,0.1722
17:32:18:116,1.5787,5.7729,9.1744,53.3117,0.1714,0.263,0.3513,0.1726
17:32:18:134,1.209,5.6662,9.3695,53.3181,0.0511,0.2779,0.4024,0.172
17:32:18:155,1.0462,5.5676,9.9901,53.1815,-0.1427,0.1895,0.477,0.1703
17:32:18:175,1.1827,5.4699,11.1742,53.1389,-0.2012,0.0011,0.4951,0.1687
17:32:18:195,1.2514,5.2262,11.69,53.1361,-0.0362,-0.1459,0.4514,0.1692
17:32:18:215,1.4083,4.733,11.6281,53.115,0.1821,-0.1789,0.33,0.1716
17:32:18:234,0.9673,4.0574,11.3069,53.1922,0.378,-0.1672,0.1427,0.1754
17:32:18:255,0.0252,3.3053,10.8196,52.9832,0.5536,-0.3013,0.099,0.1808
17:32:18:275,-0.6507,2.7817,10.226,53.1838,0.6697,-0.6005,0.2374,0.1891
17:32:18:295,-0.7678,2.3769,9.3267,53.2477,0.7197,-0.8869,0.4322,0.1999
17:32:18:315,-0.7586,1.8885,8.3829,53.212,0.658,-0.9358,0.6228,0.2113
17:32:18:337,-0.7196,1.3811,7.8055,52.5549,0.5004,-0.8006,0.7868,0.2211
17:32:18:355,-0.413,1.3289,7.674,52.3818,0.3418,-0.7453,0.8964,0.2292
17:32:18:375,0.2773,1.6365,7.6161,52.2432,0.247,-0.7559,0.9092,0.2364
17:32:18:394,1.1204,2.1656,7.4846,51.8585,0.2374,-0.7335,0.8219,0.2433
17:32:18:415,2.0011,3.1102,7.1766,51.6679,0.2598,-0.6111,0.6239,0.2497
17:32:18:437,2.4743,4.0082,6.9841,51.5404,0.2342,-0.3215,0.3939,0.2542
17:32:18:455,2.4915,4.6462,7.1967,51.6713,0.2161,-0.0128,0.2364,0.2565
17:32:18:475,2.2523,5.124,7.4897,51.597,0.2576,0.1522,0.1959,0.2576
17:32:18:494,2.0526,5.3126,7.6684,51.4263,0.297,0.1299,0.264,0.2589
17:32:18:520,1.9094,4.8968,7.5883,51.5107,0.3151,-0.0575,0.3939,0.2614
17:32:18:535,2.0815,4.1363,7.2096,51.2767,0.313,-0.23,0.4876,0.2652
17:32:18:555,2.3936,3.5938,6.8691,51.1166,0.3343,-0.2704,0.4695,0.2695
17:32:18:575,2.5278,3.4216,6.6295,51.2477,0.3726,-0.1576,0.3865,0.2736
17:32:18:594,2.7343,3.5241,6.569,51.0966,0.4056,-0.0894,0.296,0.2773
17:32:18:617,2.9648,3.7477,6.5745,51.0755,0.4141,-0.1341,0.1789,0.2811
17:32:18:635,3.4548,4.2747,6.429,50.9722,0.4014,-0.1735,0.0138,0.285
17:32:18:654,3.8183,5.0813,6.484,50.5591,0.3865,-0.0916,-0.1767,0.2884
17:32:18:674,3.6685,5.5083,6.6793,50.1595,0.3641,0.0256,-0.3471,0.2908
17:32:18:694,3.4256,5.9673,7.0285,49.7849,0.3183,0.0128,-0.4163,0.2926
17:32:18:716,3.5909,6.5537,7.5045,49.8023,0.2449,-0.1384,-0.4173,0.2947
17:32:18:735,4.0161,6.8474,7.8049,49.8169,0.1852,-0.2811,-0.4738,0.2973
17:32:18:755,4.2698,6.7677,8.2036,49.6738,0.1469,-0.2619,-0.5898,0.2997
17:32:18:774,4.4845,6.7904,8.9782,49.5606,0.2065,-0.1746,-0.7516,0.3017
17:32:18:794,4.6469,6.8015,9.5609,49.1735,0.3599,-0.132,-0.971,0.3042
17:32:18:815,4.3886,6.6793,9.7821,48.7914,0.5345,-0.1224,-1.2414,0.3075
17:32:18:835,3.434,6.3549,9.4501,48.4643,0.6281,-0.0788,-1.399,0.3114
17:32:18:855,2.4808,6.0204,9.0726,48.3755,0.5132,0.0256,-1.3745,0.3141
17:32:18:874,1.4078,5.2906,9.3191,48.242,0.1927,0.0437,-1.2222,0.3144
17:32:18:894,0.6382,4.4612,10.1912,48.4522,-0.0245,-0.1554,-0.9529,0.3137
17:32:18:917,0.8838,3.8443,10.4451,48.2868,0.0362,-0.4865,-0.6856,0.3152
17:32:18:935,1.6221,3.5557,9.5881,48.1188,0.2459,-0.6324,-0.6164,0.3194
17:32:18:955,2.1662,3.7458,8.2941,47.9805,0.3737,-0.4855,-0.7229,0.3245
17:32:18:975,1.8529,4.1154,7.3614,47.6519,0.3343,-0.28,-0.8464,0.3282
17:32:18:995,1.328,4.5627,6.7707,47.7973,0.1416,-0.2449,-0.8049,0.33
17:32:19:016,1.0089,4.6782,6.5731,47.5055,-0.1054,-0.4472,-0.7037,0.3306
17:32:19:035,0.9745,4.3361,6.4765,47.3542,-0.3407,-0.8315,-0.6239,0.3312
17:32:19:055,1.025,3.8807,6.3667,47.276,-0.445,-1.0253,-0.5962,0.3324
17:32:19:074,1.0834,3.6322,6.1892,47.249,-0.4056,-0.9965,-0.6047,0.3337
17:32:19:096,1.0054,3.5755,6.1271,47.0863,-0.2789,-0.8858,-0.6207,0.3352
17:32:19:115,0.9541,3.6697,5.9615,47.2374,-0.1139,-0.8613,-0.6175,0.3378
17:32:19:135,1.0041,3.8648,5.5012,47.1303,-0.0128,-0.8943,-0.6015,0.3414
17:32:19:155,1.1247,4.2362,5.0909,47.2745,-0.0532,-0.8805,-0.5515,0.3449
17:32:19:174,1.2862,4.7424,4.8851,47.1152,-0.2236,-0.8581,-0.4865,0.3473
17:32:19:195,1.4531,5.0786,5.0487,47.0826,-0.4429,-0.8421,-0.4205,0.3477
17:32:19:215,1.6269,5.6714,5.5872,46.6607,-0.609,-0.8017,-0.3215,0.3466
17:32:19:235,1.873,6.1054,6.0736,46.568,-0.7059,-0.7495,-0.2076,0.3443
17:32:19:255,2.2066,6.3207,6.5378,46.5637,-0.7623,-0.6441,-0.1033,0.3411
17:32:19:274,2.4806,6.3723,7.1887,46.6783,-0.741,-0.4195,-0.0852,0.3371
17:32:19:295,2.4724,6.1764,8.1192,46.9817,-0.5781,-0.1075,-0.1469,0.3327
17:32:19:315,2.3523,6.1126,8.6893,46.9775,-0.2704,0.1288,-0.2502,0.3294
17:32:19:334,2.0983,6.3905,8.5682,46.9319,0.0064,0.2694,-0.3513,0.3279
17:32:19:354,1.9446,6.9698,8.2889,46.7038,0.0926,0.3769,-0.395,0.327
17:32:19:375,1.8237,7.6545,8.418,46.3858,0.0149,0.4695,-0.4078,0.3253
17:32:19:394,1.7397,8.3167,9.0333,46.2276,-0.0926,0.5781,-0.4301,0.3222
17:32:19:416,1.2954,8.652,9.8924,46.3088,-0.0809,0.7378,-0.411,0.3182
17:32:19:435,0.8245,8.612,10.5735,46.0162,0.0926,0.7516,-0.2779,0.3153
17:32:19:455,0.4945,7.6823,10.4395,45.9217,0.1735,0.5164,-0.082,0.3141
17:32:19:478,0.4454,6.365,10.0457,45.8353,0.0586,0.0798,0.132,0.3139
17:32:19:495,0.5886,5.1102,9.8083,45.7726,-0.0788,-0.3215,0.3087,0.3145
17:32:19:516,0.9135,4.1569,9.4449,46.0514,-0.1086,-0.5419,0.4291,0.3159
17:32:19:534,1.1776,3.5181,9.0075,46.4518,-0.1139,-0.511,0.4897,0.3175
17:32:19:554,1.1912,3.0336,8.597,46.3941,-0.2108,-0.3194,0.5015,0.3179
17:32:19:576,1.0278,3.0519,8.6363,46.2889,-0.3673,-0.23,0.5217,0.3163
17:32:19:595,1.2091,3.5125,8.5143,46.3663,-0.4152,-0.3535,0.5291,0.3144
17:32:19:615,1.5572,3.8691,7.9048,46.0767,-0.3332,-0.4312,0.4802,0.3134
17:32:19:635,1.721,4.0961,7.1972,46.0713,-0.1938,-0.3279,0.4056,0.3132
17:32:19:654,1.5953,4.2675,6.7106,45.9324,-0.0064,-0.1086,0.3492,0.3136
17:32:19:676,1.4258,4.4414,6.2884,45.9275,0.1682,0.1469,0.3577,0.3143
17:32:19:695,1.3501,4.4079,6.0048,45.7082,0.3056,0.3194,0.3982,0.3153
17:32:19:715,1.3162,4.2082,5.8708,45.6983,0.3705,0.4035,0.4546,0.3166
17:32:19:735,1.4769,4.0243,5.8979,45.8277,0.4035,0.3758,0.494,0.3181
17:32:19:754,1.7655,4.1658,5.8432,45.9428,0.4184,0.3194,0.4738,0.3201
17:32:19:775,2.1186,4.5381,5.6362,46.1106,0.3449,0.2992,0.4141,0.3218
17:32:19:795,2.3529,4.9579,5.7146,46.1768,0.2055,0.3066,0.2928,0.3224
17:32:19:815,2.4541,5.4204,6.4072,46.2721,0.0596,0.3599,0.1118,0.3214
17:32:19:835,2.172,5.7173,7.2128,46.2322,0.066,0.3481,-0.0362,0.3202
17:32:19:856,1.9046,6.2214,7.8579,46.6137,0.1565,0.3002,-0.0884,0.3197
17:32:19:877,1.8681,6.714,8.4843,46.8921,0.2789,0.2172,-0.1065,0.3204
17:32:19:895,1.8962,7.1138,9.1097,47.2519,0.4599,0.082,-0.1118,0.3231
17:32:19:915,2.121,7.514,9.0859,47.3506,0.6154,0.017,-0.116,0.3277
17:32:19:934,2.3091,7.8441,8.7637,47.144,0.5802,0.0224,-0.1629,0.3324
17:32:19:956,2.4227,8.1749,9.1054,47.0882,0.4163,0.0394,-0.2385,0.3358
17:32:19:975,2.267,8.1743,9.7682,47.2428,0.3811,0.0064,-0.3002,0.3385
17:32:19:995,1.8473,7.4712,9.7858,47.4416,0.4472,0.0586,-0.2481,0.3417
17:32:20:016,1.3745,6.4844,9.669,47.7471,0.3918,0.1906,-0.0873,0.3442
17:32:20:034,1.0389,5.3236,9.7855,48.2572,0.3215,0.2002,0.1661,0.346
17:32:20:055,1.5017,4.5513,9.5784,48.3672,0.3556,0.0277,0.4141,0.3486
17:32:20:075,2.4885,4.19,8.5551,48.4534,0.3907,-0.1097,0.4983,0.3524
17:32:20:095,3.0824,3.9586,7.2464,48.4917,0.2033,-0.0852,0.4184,0.3554
17:32:20:115,3.1607,3.8759,6.3428,48.3904,-0.1991,-0.0383,0.3002,0.355
17:32:20:134,3.0127,4.1135,6.2699,48.5385,-0.5717,-0.0713,0.2087,0.3514
17:32:20:155,2.8738,4.2048,6.2497,48.7796,-0.6888,-0.198,0.1341,0.3468
17:32:20:175,2.9948,3.965,5.9728,48.7327,-0.6399,-0.2768,0.0181,0.3429
17:32:20:195,2.8017,3.481,5.6761,48.9066,-0.5132,-0.1522,-0.1682,0.3395
17:32:20:215,2.3498,3.2892,5.7679,49.3088,-0.3098,0.0511,-0.3396,0.3365
17:32:20:234,1.837,3.4107,5.8073,49.1911,-0.0586,0.1501,-0.4344,0.3348
17:32:20:255,1.4903,3.8603,5.7231,49.2216,0.1459,0.0979,-0.4291,0.3348
17:32:20:275,1.3768,4.4403,5.4589,49.4244,0.2683,-0.0287,-0.3173,0.3366
17:32:20:294,1.4915,4.9281,5.0145,49.6265,0.1959,-0.1022,-0.1448,0.3387
17:32:20:315,1.6797,5.2232,4.857,49.5373,-0.033,-0.066,0.0277,0.3393
17:32:20:335,1.9794,5.2881,5.1775,49.8648,-0.3354,0.0937,0.1512,0.337
17:32:20:354,2.1868,5.4308,6.4074,49.8024,-0.5185,0.2545,0.1906,0.3321
17:32:20:375,2.2984,5.5213,7.7348,49.8569,-0.4514,0.3098,0.1565,0.3268
17:32:20:394,2.4049,5.6835,8.4875,50.3994,-0.2502,0.2651,0.116,0.3231
17:32:20:415,2.7249,6.1223,8.8822,50.544,-0.0607,0.1288,0.0511,0.3215
17:32:20:435,2.9587,6.5641,8.8107,50.8345,0.0639,0.0064,-0.0586,0.3217
17:32:20:455,2.9806,7.0463,8.5734,51.1198,0.0628,0.0021,-0.1714,0.3221
17:32:20:475,2.7091,7.2251,8.8084,51.1324,-0.0202,0.0894,-0.2491,0.3217
17:32:20:494,2.2319,7.0904,9.4079,51.3153,-0.0617,0.2406,-0.2736,0.3201
17:32:20:515,1.8596,6.773,10.2013,51.2384,0.0245,0.4397,-0.2896,0.3181
17:32:20:534,1.4804,6.5949,10.965,51.2673,0.2779,0.6292,-0.346,0.3169
17:32:20:555,0.9644,6.5631,11.0794,51.4545,0.6239,0.6846,-0.3524,0.3179
17:32:20:575,0.6696,6.4925,10.3624,51.5499,0.8283,0.4472,-0.2715,0.3214
17:32:20:594,0.5434,6.1428,8.987,51.7985,0.7751,0.0777,-0.0873,0.3269
17:32:20:616,0.8202,5.4348,7.7724,51.9336,0.5313,-0.181,0.1608,0.3323
17:32:20:636,1.5129,4.7866,6.8788,51.8466,0.2055,-0.2459,0.2843,0.3359
17:32:20:654,1.9075,4.3661,6.6184,51.6675,-0.1352,-0.1267,0.2395,0.3364
17:32:20:675,1.6835,4.2329,6.8916,52.0054,-0.411,0.1384,0.1469,0.3334
17:32:20:695,1.2837,4.3997,7.377,51.8325,-0.5621,0.3929,0.1192,0.3276
17:32:20:715,0.8137,4.5119,7.8915,51.9244,-0.5664,0.461,0.1576,0.3209
17:32:20:735,0.576,4.6034,7.9301,51.934,-0.4259,0.2555,0.2225,0.3157
17:32:20:755,0.6577,4.6199,7.5041,51.6116,-0.2161,-0.0798,0.2747,0.3137
17:32:20:775,1.0377,4.4451,6.7533,51.88,0.033,-0.3119,0.2651,0.315
17:32:20:794,1.2394,4.2658,5.7923,52.1574,0.3056,-0.3258,0.1991,0.3189
17:32:20:815,1.3656,4.3987,4.9656,52.2888,0.4727,-0.1629,0.1448,0.3236
17:32:20:835,1.3748,4.5567,4.4056,52.5924,0.5153,0,0.1214,0.3281
17:32:20:855,1.4311,4.713,4.0874,52.5118,0.3982,0.1373,0.0958,0.3312
17:32:20:875,1.3924,4.9072,4.1488,52.5184,0.1437,0.2832,0.0713,0.3318
17:32:20:894,1.3176,5.1021,4.9238,52.2789,-0.1139,0.4397,0.0224,0.3294
17:32:20:916,1.2869,5.4316,5.8965,52.5077,-0.2161,0.5025,-0.0373,0.3253
17:32:20:935,1.3649,6.1193,6.7728,52.5021,-0.2087,0.5557,-0.1278,0.3208
17:32:20:955,1.2569,6.721,7.5379,52.4933,-0.1469,0.5589,-0.2236,0.3165
17:32:20:975,1.046,7.3095,8.1068,52.6321,-0.0969,0.5334,-0.2928,0.3126
17:32:20:995,1.0056,8.0336,8.7555,52.8136,-0.0586,0.4291,-0.3375,0.3093
17:32:21:016,0.9128,8.3707,9.317,52.904,-0.0021,0.2832,-0.378,0.3071
17:32:21:035,0.9581,8.4452,10.0217,52.9366,0.116,0.0543,-0.4003,0.3066
17:32:21:055,1.1131,8.1906,10.225,52.8359,0.3567,-0.2268,-0.4301,0.3092
17:32:21:074,1.2613,7.8901,9.4254,52.9532,0.626,-0.4056,-0.4078,0.3152
17:32:21:096,1.1854,7.2317,8.2183,52.7038,0.6037,-0.2949,-0.3087,0.3216
17:32:21:115,0.8317,6.5342,7.9063,52.6801,0.2523,-0.0256,-0.1224,0.3247
17:32:21:135,0.5423,5.8888,8.7894,52.7632,-0.116,0.1714,0.1427,0.3237
17:32:21:154,0.9192,5.31,9.3997,52.9002,-0.1927,0.033,0.3822,0.3221
17:32:21:174,1.8757,4.9265,8.8466,52.965,-0.2459,-0.1182,0.4738,0.3212
17:32:21:194,2.3104,4.2391,8.1244,53.0426,-0.5749,-0.1203,0.3524,0.3183
17:32:21:215,2.1237,3.7048,8.2363,53.0079,-1.0306,-0.1554,0.1501,0.3114
17:32:21:235,1.6869,3.6339,8.7573,53.0443,-1.2659,-0.395,-0.0266,0.3029
17:32:21:254,1.4066,3.5517,8.8062,52.9291,-1.1424,-0.6899,-0.1363,0.2962
17:32:21:274,1.2204,3.2228,8.1769,52.6966,-0.7825,-0.8602,-0.231,0.293
17:32:21:294,1.1667,3.0599,7.2272,52.7426,-0.3694,-0.8421,-0.3087,0.2933
17:32:21:315,1.1302,2.9205,6.3917,52.7683,0.0202,-0.6548,-0.3545,0.2961
17:32:21:335,1.1515,3.1147,5.5599,53.0027,0.3194,-0.4472,-0.3556,0.3005
17:32:21:354,1.1966,3.609,4.9462,53.0612,0.4748,-0.3162,-0.33,0.3057
17:32:21:374,1.2165,4.1419,4.4531,53.1993,0.445,-0.2321,-0.2364,0.3106
17:32:21:395,1.2646,4.6462,4.2715,53.2841,0.23,-0.1491,-0.0948,0.3137
17:32:21:415,1.542,5.0513,4.6441,53.2639,-0.0724,-0.0756,0.05,0.3141
17:32:21:435,1.7609,5.1211,5.5735,53.2715,-0.2981,-0.0596,0.1214,0.3123
17:32:21:454,2.0562,5.3295,6.5827,53.3961,-0.3481,-0.0532,0.1129,0.3097
17:32:21:474,1.9095,5.6528,7.3665,53.2121,-0.3056,0.0926,0.0745,0.307
17:32:21:495,1.3409,6.0831,8.529,53.3381,-0.2513,0.2214,0.1341,0.304
17:32:21:515,1.1367,6.3505,9.4254,53.29,-0.1863,0.0884,0.2811,0.3018
17:32:21:535,1.4732,6.629,9.7254,52.986,-0.1757,-0.1246,0.3183,0.3009
17:32:21:555,1.7181,6.9714,10.04,53.0934,-0.1863,-0.1448,0.2672,0.3002
17:32:21:575,1.5373,7.1307,10.524,53.1214,-0.1437,-0.0277,0.2246,0.2993
17:32:21:594,1.3878,7.2093,11.0135,52.9176,-0.0138,0.0362,0.2087,0.2989
17:32:21:615,1.3714,7.2433,11.0345,52.8644,0.2172,0.0969,0.2023,0.3
17:32:21:634,1.1829,6.7967,10.5577,52.9045,0.378,0.1916,0.2257,0.3022
17:32:21:654,0.9839,6.0557,10.0445,52.6531,0.4461,0.1693,0.2768,0.305
17:32:21:675,0.9673,5.3294,9.2533,52.6429,0.4812,0.1405,0.3811,0.3084
17:32:21:695,1.0488,4.3656,8.3882,52.7192,0.3907,0.2332,0.5536,0.3111
17:32:21:715,1.5729,3.6561,7.839,52.6358,0.1938,0.3609,0.6292,0.3119
17:32:21:735,2.0234,3.0822,7.4917,52.4585,-0.1278,0.5707,0.5291,0.3093
17:32:21:754,1.8197,2.7725,7.8466,52.3713,-0.494,0.7825,0.3034,0.3024
17:32:21:775,1.281,2.9316,8.4701,52.3849,-0.6739,0.7889,0.0671,0.2932
17:32:21:795,0.6485,3.4563,8.7361,52.3399,-0.5536,0.6963,-0.0511,0.2846
17:32:21:815,0.3351,3.9848,8.2275,52.1607,-0.2789,0.626,-0.0809,0.2785
17:32:21:835,0.3271,4.3226,7.4354,52.3598,-0.0447,0.5994,-0.0926,0.2746
17:32:21:854,0.2446,4.528,6.7196,52.096,0.1086,0.5994,-0.0809,0.272
17:32:21:875,0.1945,4.5752,6.2001,51.9566,0.2087,0.5728,-0.0202,0.2704
17:32:21:895,0.1089,4.6042,5.7899,52.1105,0.2811,0.5227,0.0841,0.2699
17:32:21:915,0.2014,4.6688,5.5927,51.4553,0.3311,0.4418,0.2268,0.2702
17:32:21:934,0.6941,4.7994,5.3298,51.2656,0.3109,0.3183,0.3098,0.2711
17:32:21:956,1.0911,5.1115,5.0887,51.3573,0.1959,0.2949,0.3013,0.2717
17:32:21:975,1.2388,5.4703,5.3359,51.2314,-0.0224,0.4535,0.2321,0.27
17:32:21:994,1.0579,5.6884,6.3713,51.1139,-0.1895,0.6292,0.1363,0.2657
17:32:22:015,0.8991,6.0844,7.6601,51.2455,-0.1448,0.6792,0.0319,0.2609
17:32:22:034,0.5695,6.4391,8.5025,50.8967,0.0234,0.7506,-0.0224,0.2569
17:32:22:054,0.3481,6.8122,9.3841,50.7279,0.1192,0.6633,-0.0373,0.2538
17:32:22:074,0.3055,7.1771,10.0163,50.6278,0.0905,0.3045,-0.0724,0.2521
17:32:22:095,0.3963,7.3154,10.5659,50.7256,0.0149,-0.0969,-0.1427,0.2519
17:32:22:115,0.6429,7.4124,11.3215,50.4426,0.0415,-0.4333,-0.2587,0.2535
17:32:22:134,0.8417,7.7547,11.7978,50.5662,0.3279,-0.6484,-0.3758,0.2582
17:32:22:155,0.7185,7.7518,10.961,50.771,0.6356,-0.5579,-0.3641,0.2658
17:32:22:174,0.1464,6.89,9.8965,50.8106,0.4546,-0.082,-0.2044,0.2711
17:32:22:194,-0.0796,5.9384,11.1059,50.8581,0.0138,0.2917,0,0.2706
17:32:22:215,-0.0028,4.7823,12.3894,50.8528,-0.0096,0.0756,0.1171,0.2696
17:32:22:234,0.5962,3.9862,12.1623,50.6475,0.2268,-0.3918,0.115,0.2723
17:32:22:255,1.1572,3.5441,10.8257,50.294,0.4333,-0.692,-0.016,0.2787
17:32:22:274,1.3379,3.3153,9.2698,50.1476,0.4876,-0.8219,-0.1554,0.2865
17:32:22:294,1.2612,3.2886,7.7938,49.8012,0.3982,-0.8507,-0.2555,0.2939
17:32:22:315,0.9809,3.2895,6.6065,50.0733,0.2289,-0.8091,-0.2789,0.2999
17:32:22:335,0.9131,3.5193,5.9299,49.7557,0.0522,-0.7783,-0.2683,0.3042
17:32:22:355,1.0443,3.599,5.4633,49.8996,-0.033,-0.7846,-0.3013,0.3076
17:32:22:375,0.973,3.3532,4.9862,49.897,-0.0277,-0.6931,-0.3737,0.3107
17:32:22:395,0.8411,3.3218,4.635,50.0545,0.0213,-0.5004,-0.4312,0.3132
17:32:22:415,0.6554,3.4162,4.3613,49.9541,0.0649,-0.3056,-0.445,0.315
17:32:22:434,0.4487,3.5119,4.2475,50.1646,0.0958,-0.1884,-0.4088,0.3164
17:32:22:455,0.3644,3.8254,4.2445,50.162,0.1203,-0.1618,-0.3066,0.3178
17:32:22:474,0.5746,4.2133,4.1236,50.267,0.116,-0.1714,-0.1884,0.3194
17:32:22:494,0.8057,4.4664,4.0305,50.0033,-0.0277,-0.1491,-0.0798,0.3201
17:32:22:515,1.1431,4.8452,4.4731,50.2114,-0.264,-0.1512,-0.0138,0.319
17:32:22:534,1.2477,5.2924,4.9679,49.9526,-0.4301,-0.1224,0.0351,0.3164
17:32:22:554,1.1867,5.6428,5.6785,49.978,-0.5153,-0.0021,0.1097,0.3126
17:32:22:575,1.131,5.6558,6.6369,50.0263,-0.4535,0.1224,0.1959,0.3085
17:32:22:594,1.0645,5.6358,7.3518,49.9934,-0.2353,0.1831,0.2481,0.3056
17:32:22:617,1.1816,5.6987,7.6246,49.9691,-0.0043,0.1661,0.2566,0.3045
17:32:22:654,1.2915,5.8591,7.4017,50.3221,0.1171,0.1661,0.2183,0.3048
17:32:22:655,1.2758,6.2384,7.1657,50.4025,0.0447,0.2193,0.1842,0.3046
17:32:22:675,1.227,6.6282,7.4499,50.4191,-0.1884,0.3386,0.1693,0.3024
17:32:22:695,1.3436,7.311,8.7754,50.7038,-0.445,0.4269,0.0894,0.2972
17:32:22:716,1.1213,7.7948,10.3987,50.6859,-0.4961,0.3087,-0.0351,0.2913
17:32:22:735,0.4312,7.526,10.7941,50.6641,-0.4844,0.0043,-0.05,0.2868
17:32:22:755,0.0185,6.5645,10.8018,50.8362,-0.725,-0.3279,0.1022,0.2824
17:32:22:775,0.2008,5.8716,11.3763,50.9671,-0.8932,-0.593,0.2683,0.2782
17:32:22:795,0.2486,4.614,11.4581,50.6665,-0.84,-0.5398,0.3939,0.2743
17:32:22:815,0.1734,3.063,11.1895,50.7809,-0.8251,-0.1693,0.4184,0.2695
17:32:22:835,0.0602,2.4175,11.5754,50.9493,-0.8389,0.1799,0.2779,0.2623
17:32:22:854,-0.5587,2.4728,12.0696,50.9882,-0.5483,0.3535,0.0532,0.2555
17:32:22:874,-1.2599,2.8572,11.3542,51.1657,-0.0671,0.3215,-0.017,0.2524
17:32:22:894,-1.2022,3.635,9.629,51.1101,0.2832,0.1789,0.0873,0.2531
17:32:22:915,-0.6244,4.3044,7.7532,50.9565,0.4876,0.0543,0.2002,0.2565
17:32:22:935,-0.1832,4.7666,5.9317,50.5883,0.5557,0.0586,0.3151,0.2609
17:32:22:954,0.113,5.2499,4.4896,50.3297,0.4567,0.2108,0.461,0.2644
17:32:22:974,0.3051,5.2877,3.7848,50.3004,0.2108,0.4716,0.6356,0.2649
17:32:22:994,0.8279,5.0195,3.9605,50.1549,-0.1022,0.6452,0.7357,0.262
17:32:23:016,1.1604,4.687,4.8567,50.2626,-0.3109,0.6761,0.7016,0.2566
17:32:23:034,1.3113,4.4698,5.8792,50.374,-0.3641,0.6143,0.6345,0.2508
17:32:23:054,1.4196,4.2348,6.7271,50.2158,-0.3662,0.5025,0.5451,0.2453
17:32:23:074,1.4054,3.9515,7.9751,50.4234,-0.3237,0.412,0.4599,0.2405
17:32:23:095,1.6662,3.8283,9.2921,50.3021,-0.1043,0.247,0.3311,0.2378
17:32:23:115,1.8617,3.9665,9.7929,50.0923,0.2566,-0.0032,0.1331,0.239
17:32:23:135,1.8826,4.418,9.4321,50.1233,0.4674,-0.132,0.0117,0.243
17:32:23:154,1.9149,4.7976,9.1154,50.1881,0.3758,-0.1118,0.017,0.247
17:32:23:174,2.0262,4.9692,9.4411,50.2311,0.0713,-0.0948,0.0075,0.2486
17:32:23:196,2.0622,5.0085,10.3533,50.0438,-0.1746,-0.3279,-0.0745,0.2488
17:32:23:215,2.2522,5.2551,10.9151,50.2381,-0.2172,-0.6356,-0.1821,0.25
17:32:23:235,2.4128,5.3874,10.8228,50.1674,-0.0809,-0.7208,-0.2491,0.2529
17:32:23:255,2.4809,5.4637,10.3189,50.0249,0.0309,-0.6207,-0.231,0.2564
17:32:23:274,2.2874,5.1603,9.5543,50.2848,-0.0256,-0.4951,-0.1437,0.2593
17:32:23:294,2.127,4.4743,9.0529,50.2391,-0.4514,-0.3556,0.0373,0.2587
17:32:23:319,2.2958,3.7239,9.7093,50.4946,-1.0104,-0.3343,0.1799,0.2535
17:32:23:335,2.3579,3.012,10.3757,50.4679,-1.2563,-0.5238,0.1884,0.2464
17:32:23:355,1.9997,2.5613,10.0056,50.1671,-1.1882,-0.7176,0.1842,0.2405
17:32:23:374,1.7393,2.0559,8.8735,50.223,-1.0167,-0.8006,0.2097,0.2364
17:32:23:394,1.7241,1.7166,7.7668,50.4524,-0.8432,-0.7346,0.0948,0.2335
17:32:23:415,1.4492,1.5983,7.0159,50.5926,-0.6175,-0.5664,-0.083,0.2314
17:32:23:435,1.2864,2.0168,6.4561,51.0336,-0.3258,-0.3375,-0.1267,0.2304
17:32:23:454,1.3847,2.333,6.1636,51.1067,-0.0277,-0.0777,-0.0777,0.2303
17:32:23:476,1.341,2.2358,5.772,50.9708,0.2534,0.1789,0.0202,0.2311
17:32:23:495,1.8232,2.4549,5.6505,51.1442,0.3599,0.3971,0.0756,0.232
17:32:23:517,2.4001,2.9734,5.9809,51.0594,0.2459,0.51,0.0522,0.2315
17:32:23:535,2.6127,3.117,6.7143,50.9527,-0.0405,0.4621,-0.0373,0.2295
17:32:23:555,2.4574,2.9312,7.865,51.3172,-0.4237,0.28,-0.1235,0.225
17:32:23:575,2.4524,2.859,9.3381,51.2661,-0.6633,0.0192,-0.2268,0.2195
17:32:23:595,2.3742,3.0513,10.4467,51.0512,-0.5983,-0.2225,-0.3428,0.2153
17:32:23:615,2.1624,3.2473,10.9406,51.051,-0.3726,-0.2896,-0.3726,0.2132
17:32:23:635,2.1368,3.4285,11.0276,51.1305,-0.1586,-0.2321,-0.3684,0.2128
17:32:23:655,2.4479,3.8006,11.0073,51.4786,0.0522,-0.1033,-0.4684,0.2136
17:32:23:675,2.451,4.4372,11.1308,51.8238,0.2949,0.1629,-0.6196,0.215
17:32:23:695,1.886,4.9244,11.3348,52.1406,0.4663,0.4418,-0.6686,0.2166
17:32:23:716,1.2675,5.3334,11.5039,52.193,0.5919,0.3982,-0.5568,0.219
17:32:23:734,1.042,5.3081,11.1261,52.0799,0.609,0.198,-0.3811,0.2227
17:32:23:754,0.7506,4.7026,10.5732,51.9841,0.4929,-0.0192,-0.2108,0.2268
17:32:23:774,0.685,3.9783,10.0456,52.0209,0.3513,-0.2246,-0.0043,0.2309
17:32:23:795,0.8189,2.9593,9.3557,52.0026,0.2683,-0.2981,0.2172,0.2347
17:32:23:815,1.3642,2.1198,8.3473,52.121,0.0767,-0.1533,0.3258,0.2369
17:32:23:835,1.8184,1.5942,7.9772,52.3925,-0.329,0.1352,0.1948,0.2348
17:32:23:854,1.6069,1.6511,8.6033,52.2995,-0.6718,0.3141,-0.083,0.2283
17:32:23:875,0.9128,2.1511,9.2283,52.374,-0.7037,0.2374,-0.2917,0.221
17:32:23:895,0.4417,2.7569,9.2506,52.2016,-0.511,0.1437,-0.3226,0.2154
17:32:23:915,0.2787,3.1499,8.6826,52.2697,-0.2459,0.1129,-0.2523,0.2122
17:32:23:934,0.4293,3.2846,8.0406,52.1955,0.0096,0.1565,-0.1544,0.211
17:32:23:955,0.6065,3.3112,7.5513,52.5084,0.2949,0.2193,-0.0617,0.2117
17:32:23:975,0.7667,3.2603,6.9528,52.6874,0.5738,0.2417,-0.0106,0.2147
17:32:23:995,0.7219,3.2032,6.2026,52.3678,0.7112,0.2214,0.0468,0.2193
17:32:24:015,0.8283,3.2889,5.7495,52.3518,0.6473,0.1746,0.1491,0.224
17:32:24:034,1.1185,3.3635,5.3928,52.5244,0.4205,0.1459,0.1608,0.2272
17:32:24:055,1.4157,3.518,5.6955,52.4256,0.1288,0.2044,0.083,0.2279
17:32:24:075,1.5194,3.6984,6.6286,52.5569,-0.0628,0.313,-0.0362,0.2261
17:32:24:095,1.532,3.9664,7.6273,52.4497,-0.1278,0.3748,-0.1948,0.2232
17:32:24:115,1.4023,4.3641,8.5735,52.4933,-0.1011,0.3929,-0.3694,0.2201
17:32:24:134,1.0778,4.8823,9.3416,52.2705,-0.0468,0.3524,-0.5025,0.2174
17:32:24:155,0.6275,5.3852,9.9344,52.1152,-0.0415,0.2662,-0.5323,0.2153
17:32:24:174,0.4044,5.6639,10.4174,52.0999,-0.115,0.1565,-0.461,0.2133
17:32:24:194,0.2937,5.4131,11.0961,52.4488,-0.2502,0.0351,-0.4014,0.2109
17:32:24:215,0.5399,5.2558,11.8436,52.9765,-0.296,-0.0979,-0.4067,0.2084
17:32:24:235,0.7442,5.1585,12.2793,53.138,-0.2002,-0.1182,-0.4567,0.2068
17:32:24:255,0.7032,4.881,12.2345,53.3244,-0.0756,-0.066,-0.4503,0.2061
17:32:24:275,0.3575,4.2645,12.2093,53.4142,-0.0043,-0.0181,-0.3194,0.2059
17:32:24:295,0.3841,3.6099,11.9417,53.2724,0.0969,-0.1256,-0.0862,0.2069
17:32:24:315,0.9509,3.0473,10.9208,53.1351,0.1629,-0.2119,0.1182,0.2092
17:32:24:335,1.5137,2.6074,9.7537,53.0837,0.0202,-0.1512,0.1863,0.2107
17:32:24:355,1.5157,2.2359,8.9246,53.3759,-0.296,-0.1118,0.1884,0.2095
17:32:24:375,1.2725,2.046,8.3835,53.6118,-0.7304,-0.2204,0.2172,0.2051
17:32:24:395,1.3996,1.9691,8.1864,53.7883,-1.071,-0.4365,0.2097,0.1985
17:32:24:416,1.53,1.7954,7.9646,53.7379,-1.1072,-0.5877,0.0958,0.1918
17:32:24:435,1.4631,1.629,7.5607,53.764,-0.9294,-0.6196,-0.0905,0.1864
17:32:24:455,1.3649,1.7773,7.125,53.8359,-0.658,-0.5121,-0.2608,0.1829
17:32:24:475,1.4227,2.0996,7.0533,53.9202,-0.2853,-0.2204,-0.395,0.181
17:32:24:495,1.1808,2.0995,7.1366,54.2119,0.1256,0.0926,-0.4557,0.1809
17:32:24:517,0.8606,2.2425,7.0047,54.2689,0.4844,0.3386,-0.4237,0.1831
17:32:24:535,0.8881,2.705,6.871,54.5439,0.5877,0.4834,-0.313,0.1858
17:32:24:555,0.7563,2.7836,7.0899,54.734,0.4599,0.6111,-0.1725,0.1873
17:32:24:575,0.575,2.5129,7.69,54.6623,0.2065,0.5462,-0.0085,0.187
17:32:24:595,0.7594,2.6298,8.551,54.4863,0.033,0.3247,0.0948,0.1857
17:32:24:616,1.105,2.9179,9.1194,54.8041,0.0437,0.0767,0.0884,0.1853
17:32:24:635,1.3735,3.1067,9.0922,54.7381,0.0745,-0.0224,-0.0032,0.1859
17:32:24:660,1.471,3.3766,9.2046,54.8621,0.1011,-0.0021,-0.1288,0.1867
17:32:24:674,1.4371,3.558,9.268,55.0344,0.2119,0.0713,-0.2768,0.1879
17:32:24:695,1.2965,3.6028,9.1252,55.0886,0.2566,0.2289,-0.3992,0.1891
17:32:24:715,0.9891,4.1071,9.3638,54.9628,0.1938,0.3907,-0.4855,0.1891
17:32:24:734,0.4532,4.3702,9.872,55.1556,0.0724,0.4695,-0.5153,0.1876
17:32:24:755,-0.1179,4.5669,10.4906,55.2721,-0.066,0.3801,-0.4674,0.185
17:32:24:774,-0.6853,4.2439,10.6483,55.1278,-0.2002,0.1767,-0.3332,0.1823
17:32:24:794,-1.1192,3.6142,10.7711,55.2598,-0.3726,0.0522,-0.1235,0.1789
17:32:24:815,-1.2741,3.1256,11.18,55.3465,-0.444,0.0681,0.1118,0.1749
17:32:24:834,-1.4745,2.364,11.5055,55.3585,-0.379,0.1427,0.3449,0.171
17:32:24:855,-1.4191,1.7069,11.5719,55.4463,-0.2545,0.2683,0.5568,0.1678
17:32:24:874,-1.1842,1.1509,11.5407,55.7318,-0.1735,0.3151,0.6494,0.165
17:32:24:894,-0.7682,1.099,11.5282,56.0451,-0.017,0.1491,0.5877,0.1637
17:32:24:915,-0.3737,1.4352,10.8509,56.0709,0.2704,-0.0735,0.428,0.1657
17:32:24:934,-0.1505,2.0782,9.531,55.7128,0.5515,-0.1001,0.2566,0.1706
17:32:24:954,-0.0575,2.7417,8.2842,56.0879,0.7442,0.0064,0.1437,0.1768
17:32:24:974,-0.0459,3.2886,7.2033,55.8909,0.8027,0.1097,0.099,0.1833
17:32:24:994,-0.0853,3.5999,6.5777,55.9792,0.7761,0.1725,0.1075,0.1892
17:32:25:015,-0.3073,3.6673,6.1307,56.0579,0.7644,0.263,0.1746,0.1947
17:32:25:035,-0.3938,3.7849,5.9525,56.0526,0.8379,0.5462,0.3173,0.1997
17:32:25:055,-0.3582,3.8537,5.9473,55.9142,0.9614,0.9667,0.4621,0.204
17:32:25:074,-0.3341,3.7605,5.8709,55.6376,1.0082,1.2563,0.5366,0.2073
17:32:25:096,-0.3007,3.8368,5.9393,55.7642,0.8688,1.284,0.5249,0.2091
17:32:25:115,-0.309,4.0465,6.1612,55.8711,0.576,1.0721,0.4365,0.209
17:32:25:135,-0.3293,4.3324,6.6654,55.7498,0.2183,0.6942,0.3077,0.2075
17:32:25:155,-0.4092,4.4848,7.4773,55.8727,-0.0703,0.2619,0.1629,0.2052
17:32:25:174,-0.453,4.5381,8.1459,55.7587,-0.2438,-0.1054,-0.0064,0.2032
17:32:25:194,-0.5047,4.8658,8.8836,55.8281,-0.3609,-0.3726,-0.2012,0.2015
17:32:25:215,-0.5119,5.2378,9.7027,55.9141,-0.3268,-0.411,-0.3396,0.2004
17:32:25:235,-0.6881,5.0721,10.5543,56.3436,-0.164,-0.3332,-0.4408,0.2
17:32:25:255,-1.0657,4.8903,11.045,56.2598,0.0202,-0.3961,-0.4972,0.2011
17:32:25:274,-0.9941,5.1073,11.2141,56.2159,0.1874,-0.6452,-0.477,0.2045
17:32:25:295,-0.6599,5.4262,10.7868,56.2548,0.3481,-0.7367,-0.3684,0.2103
17:32:25:315,-0.5058,4.9954,9.7033,56.4028,0.3684,-0.477,-0.1927,0.2161
17:32:25:335,-0.3951,4.5038,9.1917,56.1563,0.1672,-0.1352,0.0117,0.2191
17:32:25:355,0.0219,4.3621,9.3842,56.1671,-0.0745,-0.0213,0.1576,0.2192
17:32:25:375,0.3614,4.164,9.422,56.3401,-0.2906,-0.049,0.1714,0.2176
17:32:25:395,0.5162,3.8141,9.4045,56.4966,-0.5302,-0.0852,0.1033,0.214
17:32:25:416,0.3423,3.3202,9.5457,56.573,-0.791,-0.148,-0.0011,0.2083
17:32:25:435,0.0876,2.8071,9.8135,56.3733,-0.9433,-0.363,-0.0916,0.2018
17:32:25:455,0.1518,2.5359,9.7742,56.5417,-0.906,-0.6569,-0.1757,0.1967
17:32:25:475,0.3262,2.3549,9.4153,56.628,-0.642,-0.8379,-0.3056,0.1942
17:32:25:495,0.4777,2.3392,8.6104,56.7458,-0.2065,-0.8347,-0.477,0.1953
17:32:25:516,0.4109,2.574,7.5703,57.2117,0.2246,-0.6846,-0.6228,0.1996
17:32:25:535,0.0987,3.0986,6.5231,57.2861,0.5334,-0.4876,-0.6313,0.2058
17:32:25:554,-0.1239,3.6089,5.7007,57.3726,0.6686,-0.2598,-0.4802,0.2126
17:32:25:575,-0.1443,4.0118,5.2621,57.1789,0.6186,0.0373,-0.2364,0.2181
17:32:25:594,-0.101,4.2135,5.27,57.1993,0.445,0.2885,-0.0075,0.2213
17:32:25:615,-0.172,4.1031,5.6436,57.1398,0.1714,0.4003,0.1661,0.2217
17:32:25:635,-0.1461,4.1297,6.3827,57.3964,-0.1863,0.3492,0.2864,0.2192
17:32:25:654,0.105,4.6781,7.6805,57.3071,-0.4386,0.1533,0.3524,0.2149
17:32:25:674,0.1754,4.878,8.827,57.3407,-0.4493,-0.1757,0.3865,0.2116
17:32:25:694,0.1315,4.8593,9.281,57.3496,-0.3279,-0.3843,0.4248,0.2105
17:32:25:715,0.1818,4.9003,9.4814,57.0998,-0.1746,-0.3002,0.4482,0.2107
17:32:25:734,0.2063,4.9616,9.7944,56.936,-0.0543,-0.0458,0.461,0.2109
17:32:25:754,0.0427,4.9405,9.9995,57.0292,0.017,0.1512,0.4887,0.2108
17:32:25:774,0.0441,4.7863,10.13,56.892,-0.0447,0.2278,0.5494,0.2098
17:32:25:795,0.4872,4.9185,10.5519,56.9459,-0.1544,0.2353,0.544,0.2079
17:32:25:815,0.8367,5.1499,10.9915,56.8473,-0.2151,0.2257,0.4163,0.2053
17:32:25:834,0.2856,4.4514,11.1997,56.6029,-0.3056,0.1363,0.297,0.2022
17:32:25:855,-0.2208,3.786,11.416,56.8516,-0.3577,-0.1299,0.2928,0.1996
17:32:25:875,-0.4255,3.2462,11.3162,56.8295,-0.2364,-0.3279,0.4365,0.199
17:32:25:894,-0.2795,2.6156,10.5427,57.097,-0.0575,-0.2619,0.6079,0.2001
17:32:25:915,-0.1978,1.5996,9.4972,57.0398,-0.1118,-0.0447,0.6963,0.2003
17:32:25:935,0.0988,1.2102,9.4111,57.0213,-0.3588,0.099,0.643,0.1977
17:32:25:955,0.3345,1.3358,9.8378,57.0447,-0.4653,-0.0011,0.4621,0.1939
17:32:25:974,0.4109,1.761,9.7791,57.1812,-0.3034,-0.1895,0.2704,0.1918
17:32:25:995,0.4516,2.4774,9.1168,57.0206,-0.0351,-0.263,0.1459,0.1924
17:32:26:015,0.2647,3.0211,8.2394,57.1721,0.2491,-0.2278,0.1395,0.1952
17:32:26:034,0.233,3.3032,7.339,57.3767,0.4908,-0.1533,0.2534,0.1998
17:32:26:056,0.3494,3.3915,6.594,57.382,0.6388,-0.0756,0.3673,0.2054
17:32:26:074,0.4776,3.3557,6.0379,57.5016,0.7346,-0.0075,0.4514,0.2115
17:32:26:095,0.4869,3.3934,5.6825,57.6114,0.7442,0.0479,0.5398,0.2176
17:32:26:115,0.535,3.4532,5.4076,57.59,0.609,0.0511,0.6324,0.2228
17:32:26:134,0.6925,3.4949,5.4361,57.5122,0.3077,0.0394,0.6973,0.226
17:32:26:154,0.9124,3.416,6.0901,57.5405,-0.0383,0.0426,0.6942,0.2263
17:32:26:175,1.2377,3.5719,7.1835,57.2484,-0.23,0.016,0.6207,0.2249
17:32:26:195,1.4736,3.7347,7.9732,57.151,-0.2779,-0.082,0.4812,0.2232
17:32:26:215,1.8511,4.1386,8.6709,56.9862,-0.28,-0.2065,0.3386,0.2221
17:32:26:235,2.076,4.2856,9.0822,56.7741,-0.2332,-0.198,0.1927,0.2214
17:32:26:256,2.5119,4.8203,9.4978,56.6679,-0.2076,-0.0756,0.049,0.2205
17:32:26:275,2.9294,5.4432,10.148,56.496,-0.1874,0.181,-0.1256,0.2183
17:32:26:295,3.1469,5.6738,11,56.3788,-0.1586,0.3354,-0.3322,0.2151
17:32:26:315,3.1121,5.6815,11.8969,56.4913,0.0351,0.363,-0.6814,0.2126
17:32:26:335,2.178,5.5633,12.0024,56.6675,0.4759,0.4525,-1.0849,0.2125
17:32:26:355,0.2615,4.7777,11.0026,56.9184,0.8358,0.6814,-1.202,0.2147
17:32:26:375,-1.1464,3.9438,10.0492,57.0097,0.7367,0.8145,-0.9284,0.2161
17:32:26:395,-1.4369,3.5364,10.4513,57.0762,0.3737,0.8017,-0.4429,0.2149
17:32:26:415,-0.7145,3.4037,11.2688,56.5488,0.1948,0.4684,-0.0011,0.2133
17:32:26:435,0.2856,3.1766,11.0373,56.3048,0.1288,0.0085,0.2481,0.2139
17:32:26:455,1.1785,2.8177,10.1543,56.2683,-0.0341,-0.4354,0.3258,0.2158
17:32:26:475,1.8732,2.4023,9.2544,56.1693,-0.2949,-0.8496,0.2768,0.2181
17:32:26:494,2.3262,2.0214,8.6151,56.4335,-0.477,-1.1551,0.1437,0.2205
17:32:26:517,2.7258,1.8543,8.1122,56.7651,-0.4589,-1.2382,-0.0564,0.2234
17:32:26:534,2.6656,1.5738,7.4547,56.9535,-0.264,-1.0827,-0.3119,0.227
17:32:26:554,2.228,1.4309,6.897,57.0921,-0.0149,-0.8091,-0.544,0.231
17:32:26:575,1.8518,1.8419,6.4931,56.9897,0.2044,-0.6441,-0.7389,0.2356
17:32:26:594,1.4191,2.4277,6.1512,56.9513,0.3609,-0.576,-0.8517,0.2411
17:32:26:617,1.0109,2.9262,5.7727,56.8947,0.4535,-0.5195,-0.8528,0.2472
17:32:26:635,0.7569,3.5243,5.4943,56.6689,0.4791,-0.3758,-0.7165,0.253
17:32:26:680,0.7443,4.1027,5.4987,56.3428,0.3961,-0.1267,-0.4855,0.2573
17:32:26:682,0.8312,4.385,5.8402,56.3879,0.2278,0.1235,-0.2459,0.2591
17:32:26:695,1.1211,4.5455,6.6206,56.5417,0.0617,0.247,-0.0745,0.2587
17:32:26:716,1.326,4.8403,7.6064,56.3673,0.0213,0.2172,0.0021,0.2577
17:32:26:735,1.507,5.2313,8.1893,56.5913,0.0511,0.0266,0.0202,0.2576
17:32:26:754,1.5784,5.3204,8.3322,56.8515,0.0149,-0.1363,0.0096,0.2583
17:32:26:774,1.5754,5.4054,8.9323,56.7318,-0.0958,-0.214,-0.0011,0.2587
17:32:26:794,1.7088,5.59,9.6368,56.666,-0.1043,-0.2853,-0.0117,0.259
17:32:26:815,2.1275,5.8837,9.9096,56.7016,-0.0075,-0.3513,-0.0554,0.2604
17:32:26:834,2.5672,6.3345,9.6042,56.627,0.0266,-0.313,-0.2246,0.2622
17:32:26:854,2.3344,6.6247,9.8466,56.6881,-0.0948,-0.0926,-0.4046,0.2623
17:32:26:874,1.5679,6.3915,10.597,56.5919,-0.1586,0.1448,-0.4855,0.2604
17:32:26:894,0.8205,5.9272,11.001,56.4266,-0.0894,0.3354,-0.4599,0.258
17:32:26:915,0.096,5.1744,11.1056,56.2889,-0.0096,0.3279,-0.362,0.2559
17:32:26:935,-0.4569,4.3277,10.7619,56.3057,0.0564,0.0362,-0.1906,0.2555
17:32:26:955,-0.3245,3.6128,9.8004,56.3697,0.083,-0.2576,0.0575,0.2571
17:32:26:975,0.192,3.1077,8.5676,56.2673,0.0096,-0.2864,0.2246,0.2588
17:32:26:995,0.3467,2.6377,7.7897,56.1233,-0.2917,-0.0575,0.2694,0.2578
17:32:27:016,0.1593,2.6144,8.1312,56.2425,-0.6739,0.1491,0.2768,0.2524
17:32:27:035,-0.185,2.744,8.7779,56.3053,-0.8389,0.0298,0.3183,0.2453
17:32:27:055,-0.233,2.8684,8.707,56.2352,-0.7761,-0.2672,0.4365,0.2395
17:32:27:075,0.193,3.0576,7.9241,56.1725,-0.593,-0.51,0.56,0.2365
17:32:27:096,0.7045,2.9909,6.9311,56.138,-0.4333,-0.5142,0.6218,0.2353
17:32:27:115,0.9545,2.9008,6.5111,55.9618,-0.2821,-0.2374,0.6175,0.2342
17:32:27:135,1.028,2.8646,6.516,55.5507,-0.0213,0.1267,0.6292,0.2332
17:32:27:155,1.1603,2.9101,6.4037,56.1906,0.2236,0.3375,0.642,0.233
17:32:27:174,1.4172,3.0296,6.0883,56.1863,0.3205,0.3929,0.642,0.2336
17:32:27:195,1.8493,3.3044,5.7786,56.2545,0.1512,0.3662,0.5866,0.2334
17:32:27:216,2.3106,3.438,6.3692,56.0558,-0.2076,0.3364,0.4514,0.2308
17:32:27:235,2.5793,3.4537,7.9513,55.837,-0.4141,0.2459,0.2704,0.2262
17:32:27:255,2.72,3.6859,9.2607,55.4708,-0.362,-0.0021,0.0703,0.2227
17:32:27:275,2.8866,4.198,10.0595,55.5314,-0.2726,-0.329,-0.0937,0.2215
17:32:27:295,3.1487,4.5636,10.4397,55.4622,-0.2268,-0.56,-0.2417,0.2223
17:32:27:315,3.3514,4.7328,10.725,55.5273,-0.1203,-0.5046,-0.3971,0.2239
17:32:27:334,3.4056,5.0612,11.0837,55.621,0.0266,-0.2033,-0.5568,0.2253
17:32:27:354,3.1673,5.2671,11.4964,55.8286,0.1842,0.1278,-0.7005,0.2262
17:32:27:375,2.7016,5.467,12.0518,55.8158,0.3311,0.33,-0.8262,0.2271
17:32:27:395,1.8379,5.4285,12.5569,55.9752,0.5355,0.3971,-0.8517,0.2291
17:32:27:416,0.8354,4.9347,12.4663,55.8957,0.7538,0.3652,-0.6654,0.233
17:32:27:434,0.1667,3.8891,11.5532,55.8096,0.8251,0.2917,-0.2864,0.2383
17:32:27:454,0.313,2.9389,10.6483,55.7875,0.6771,0.1373,0.1341,0.2434
17:32:27:477,1.2466,2.2283,9.8145,55.5158,0.4961,-0.0905,0.4078,0.2481
17:32:27:495,2.616,2.2707,8.8111,55.3504,0.3758,-0.2161,0.3694,0.2525
17:32:27:516,3.3529,2.5294,7.9864,55.4803,0.2119,-0.0532,0.1182,0.2552
17:32:27:535,3.1284,2.5657,7.5757,55.4669,-0.0202,0.099,-0.1363,0.255
17:32:27:554,2.6561,2.7065,7.549,55.6914,-0.2364,-0.0575,-0.3056,0.2533
17:32:27:576,2.2369,2.75,7.3709,55.6471,-0.3077,-0.3811,-0.4173,0.252
17:32:27:595,1.8159,2.5758,6.7702,55.5566,-0.264,-0.6516,-0.4983,0.2525
17:32:27:615,1.54,2.4665,6.0244,55.3896,-0.1906,-0.7367,-0.5557,0.2542
17:32:27:635,1.2485,2.4617,5.6097,55.321,-0.099,-0.5983,-0.5813,0.2561
17:32:27:654,1.0517,2.8165,5.5844,55.4128,0.0745,-0.4046,-0.5696,0.2584
17:32:27:674,0.9108,3.3095,5.4123,55.6106,0.2491,-0.3077,-0.4695,0.2617
17:32:27:695,1.0991,3.9268,4.9962,55.6123,0.2087,-0.2491,-0.3066,0.2649
17:32:27:715,1.4115,4.488,4.897,55.7747,-0.0798,-0.1065,-0.1363,0.2656
17:32:27:734,1.5762,4.4658,5.7429,55.6724,-0.4674,0.049,0.0192,0.2623
17:32:27:754,1.8923,4.4497,7.1237,55.8498,-0.6846,0.099,0.0979,0.2564
17:32:27:775,2.1505,4.71,8.4523,55.941,-0.7165,0.1065,0.0979,0.2498
17:32:27:795,2.2838,4.6058,9.3558,55.8409,-0.6186,0.0809,0.0106,0.2438
17:32:27:816,2.1725,4.3807,10.1422,55.9558,-0.4216,0.1522,-0.066,0.2391
17:32:27:835,2.1128,4.3044,10.547,55.8024,-0.1448,0.2619,-0.1618,0.2361
17:32:27:856,2.3425,4.6401,10.6605,55.77,0.05,0.3354,-0.2949,0.2346
17:32:27:875,2.5044,5.6664,10.5834,55.9486,0.1331,0.3865,-0.4961,0.2339
17:32:27:895,2.0488,6.4301,10.6067,55.9731,0.0394,0.3865,-0.6015,0.2326
17:32:27:915,1.118,6.391,10.7816,55.9319,-0.2183,0.181,-0.4865,0.2301
17:32:27:934,0.356,5.2791,11.1123,56.0996,-0.5547,-0.0745,-0.1842,0.226
17:32:27:956,0.2526,3.8036,11.6613,56.1466,-0.7772,-0.2726,0.1203,0.2207
17:32:27:975,0.2051,2.3388,12.1411,56.0306,-0.7846,-0.3141,0.3396,0.2152
17:32:27:995,0.3515,1.1629,12.0964,56.1029,-0.5983,-0.263,0.4887,0.2108
17:32:28:016,0.6974,0.4845,11.5345,55.8827,-0.3939,-0.1799,0.5015,0.2077
17:32:28:035,1.1368,0.444,10.7867,56.1905,-0.247,-0.1491,0.3471,0.2059
17:32:28:054,1.3736,0.8667,9.9678,56.1308,-0.0937,-0.1672,0.0916,0.2054
17:32:28:075,1.2575,1.6098,9.0669,56.0325,0.1214,-0.1469,-0.1778,0.2065
17:32:28:095,0.9119,2.3898,8.0895,56.1801,0.3322,-0.082,-0.2906,0.2093
17:32:28:115,0.5377,2.9482,7.1598,56.1342,0.4642,0.0011,-0.2619,0.2132
17:32:28:134,0.293,3.312,6.5553,55.9558,0.4376,-0.0575,-0.083,0.2172
17:32:28:155,0.3728,3.3567,6.2173,55.8685,0.3503,-0.3087,0.1214,0.2215
17:32:28:175,0.58,2.9903,5.8004,56.3393,0.3194,-0.4887,0.3162,0.2263
17:32:28:195,1.0331,2.5581,5.2431,56.3586,0.3056,-0.5164,0.4344,0.2312
17:32:28:215,1.6069,2.4084,4.8638,56.289,0.2183,-0.3258,0.4546,0.235
17:32:28:234,2.1139,2.4853,5.0076,56.1917,0.0703,0.0458,0.3822,0.236
17:32:28:255,2.4245,2.8516,5.6967,55.8744,-0.0745,0.4003,0.2246,0.2341
17:32:28:275,2.4341,3.3723,6.6352,55.6399,-0.2225,0.544,0.0309,0.2301
17:32:28:294,2.2175,3.8107,7.8813,55.8689,-0.3737,0.5334,-0.1235,0.2246
17:32:28:315,2.0079,4.1682,9.3914,55.9457,-0.4195,0.4269,-0.2065,0.2189
17:32:28:336,1.9493,4.1522,10.7779,55.8635,-0.2768,0.3428,-0.2832,0.2145
17:32:28:354,1.9493,4.4893,11.6874,55.9721,0.0373,0.3162,-0.3992,0.2125
17:32:28:375,2.0576,5.1754,11.7293,55.8546,0.2427,0.3066,-0.5036,0.2129
17:32:28:395,2.2349,5.1777,12.017,55.8616,0.164,0.3162,-0.6462,0.2131
17:32:28:415,2.2741,4.8259,13.1263,55.9372,0.116,0.2257,-0.9007,0.2128
17:32:28:436,1.5138,3.9632,13.8727,55.9243,0.2949,-0.0639,-1.0881,0.2146
17:32:28:455,0.7283,2.9496,13.212,56.1189,0.5813,-0.3556,-1.0008,0.2202
17:32:28:475,0.4391,2.1148,11.8995,56.2791,0.7985,-0.4003,-0.774,0.2283
17:32:28:495,0.4583,1.5843,10.8299,56.0565,0.9635,-0.4259,-0.5164,0.238
17:32:28:519,1.2847,2.0227,9.555,56.1893,1.1307,-0.5398,-0.3886,0.2496
17:32:28:535,2.1101,3.0615,7.9813,56.1293,1.1701,-0.4567,-0.4152,0.2619
17:32:28:555,2.1759,4.1128,6.6476,56.3121,0.8922,-0.0777,-0.4227,0.2711
17:32:28:575,1.4677,4.5149,6.0319,56.4187,0.2651,0.3609,-0.2843,0.2738
17:32:28:595,0.9172,4.1571,6.3777,56.4719,-0.4472,0.4333,-0.0916,0.2695
17:32:28:618,0.6278,3.5016,7.2257,56.5086,-0.8634,0.2566,0.0096,0.2612
17:32:28:635,0.5252,3.1164,7.9272,56.0948,-0.8145,0.0117,-0.0149,0.2534
17:32:28:688,0.2644,2.805,7.7445,56.0765,-0.4727,-0.2587,-0.0554,0.2492
17:32:28:691,0.2432,2.7554,6.8318,56.147,-0.2236,-0.4897,-0.0341,0.2485
17:32:28:695,0.2838,2.8404,6.1082,56.2007,-0.1565,-0.5419,0.0724,0.2492
17:32:28:717,0.6431,2.9905,5.6995,56.3528,-0.1544,-0.4472,0.2087,0.2498
17:32:28:735,0.9963,3.0693,5.6763,56.386,-0.1842,-0.2608,0.313,0.2495
17:32:28:755,1.3093,3.4381,5.9552,56.2831,-0.2002,-0.0607,0.3609,0.2482
17:32:28:775,1.3146,3.8217,6.4124,56.1484,-0.2055,0.132,0.4152,0.246
17:32:28:795,1.4172,4.1497,6.9896,56.1465,-0.23,0.2672,0.5185,0.2431
17:32:28:817,1.6237,4.4837,7.9327,56.3354,-0.2172,0.4642,0.6154,0.2394
17:32:28:835,1.7636,4.5951,8.9682,56.2905,-0.1107,0.6686,0.6058,0.2355
17:32:28:855,1.8253,4.531,10.1354,56.1911,0.115,0.8496,0.5217,0.2326
17:32:28:875,1.6928,4.4876,10.8818,56.3423,0.4823,0.9954,0.3961,0.2319
17:32:28:895,1.6991,4.6952,10.8673,56.0115,0.7804,1.021,0.1821,0.2336
17:32:28:916,1.54,5.5131,10.7471,56.0705,0.8581,0.922,-0.0724,0.2368
17:32:28:935,0.8061,6.1623,10.7986,56.3136,0.807,0.7942,-0.2353,0.2401
17:32:28:955,0.0557,6.4368,10.9303,56.1806,0.7389,0.6132,-0.2992,0.2435
17:32:28:975,-0.6807,6.3829,11.0207,56.3043,0.7846,0.5121,-0.2917,0.2473
17:32:28:995,-1.247,5.9877,10.6807,56.2423,0.8677,0.4599,-0.1874,0.2525
17:32:29:016,-1.6684,5.37,9.9503,55.9855,0.708,0.2715,-0.0383,0.2575
17:32:29:035,-2.2185,4.504,9.207,55.7562,0.3109,-0.0021,0.23,0.2607
17:32:29:055,-1.9278,3.7045,8.8616,55.6937,-0.0788,-0.1767,0.593,0.2617
17:32:29:075,-0.9739,3.11,8.4247,55.7557,-0.3407,-0.2055,0.7644,0.2609
17:32:29:097,-0.2645,2.7709,8.1324,55.9054,-0.6196,-0.066,0.7282,0.2573
17:32:29:115,0.134,2.916,8.2163,55.9479,-0.8688,-0.033,0.5802,0.2508
17:32:29:135,0.5314,3.5727,8.3003,56.2028,-0.9986,-0.1863,0.4503,0.2435
17:32:29:155,0.7458,4.0606,8.3051,56.0418,-0.9582,-0.3354,0.3726,0.2368
17:32:29:175,0.8233,4.3248,7.9908,55.6182,-0.7484,-0.3854,0.3535,0.2319
17:32:29:196,0.6872,4.321,7.4981,55.8302,-0.4706,-0.2843,0.4152,0.2292
17:32:29:215,0.4086,3.8704,7.2112,55.4928,-0.1852,-0.0362,0.5366,0.2277
17:32:29:235,0.2878,3.2684,6.9029,55.281,0.1363,0.1576,0.643,0.228
17:32:29:255,0.2663,2.7749,6.4806,55.4534,0.3769,0.2651,0.7314,0.2299
17:32:29:275,0.5189,2.5142,6.0359,55.5666,0.4365,0.3045,0.7016,0.2324
17:32:29:295,0.4484,2.5955,6.0121,55.4711,0.4195,0.329,0.5249,0.2345
17:32:29:315,0.4958,3.2427,6.0227,55.5493,0.3077,0.2278,0.4067,0.2362
17:32:29:335,0.7076,3.9141,6.3367,55.474,0.0745,0.1437,0.4056,0.2366
17:32:29:354,0.8203,4.4034,7.0179,55.5301,-0.1725,0.0798,0.395,0.2353
17:32:29:374,1.2573,5.1382,8.1825,55.5029,-0.2427,0.1629,0.3002,0.2327
17:32:29:394,1.8273,6.0459,9.2909,55.755,-0.0841,0.3268,0.1363,0.2303
17:32:29:415,2.0287,6.8745,10.0411,55.6659,0.1022,0.5366,-0.0735,0.2283
17:32:29:434,1.332,6.9102,10.6093,55.6475,0.1522,0.659,-0.1725,0.2261
17:32:29:454,0.7199,6.8149,11.4384,55.3411,0.0298,0.4684,-0.164,0.2236
17:32:29:474,0.3718,6.4543,12.4014,55.0551,-0.0681,0.0245,-0.1331,0.2222
17:32:29:495,0.1821,5.8377,12.9205,54.7726,0.0777,-0.3854,-0.0692,0.2237
17:32:29:516,0.1425,4.9365,12.2224,54.4785,0.4173,-0.5611,0.0692,0.2293
17:32:29:534,0.2284,3.8183,10.8151,54.5597,0.6643,-0.4546,0.2385,0.2372
17:32:29:554,0.6735,3.1056,9.6736,54.5239,0.7516,-0.3002,0.3737,0.2452
17:32:29:576,1.2092,2.8104,8.7061,54.7578,0.7325,-0.2161,0.4131,0.2528
17:32:29:595,1.9131,2.9979,7.7934,55.0486,0.6037,-0.0596,0.3641,0.2588
17:32:29:615,2.1202,3.0738,7.0525,54.8027,0.2619,0.197,0.2332,0.2613
17:32:29:635,1.6751,2.9219,7.0334,54.7865,-0.3439,0.3237,0.1086,0.2582
17:32:29:654,1.0914,2.746,7.799,54.4026,-0.8837,0.1948,0.0745,0.2506
17:32:29:675,1.1726,2.6116,8.6123,54.2159,-1.0934,-0.1852,0.0905,0.2423
17:32:29:695,1.4451,2.4989,8.6761,54.312,-0.8645,-0.5142,0.0245,0.2371
17:32:29:715,1.5402,2.2745,7.8487,54.2805,-0.4482,-0.544,-0.1139,0.2356
17:32:29:735,1.3015,2.3178,6.8427,54.3408,-0.1267,-0.2715,-0.2427,0.2359
17:32:29:754,0.9534,2.5741,6.2669,54.2552,0.0703,-0.0021,-0.2896,0.2364
17:32:29:775,0.7809,3.0539,5.9684,54.1986,0.1395,0.1171,-0.2683,0.2368
17:32:29:795,0.6016,3.5247,5.7969,54.114,0.1097,0.1022,-0.1618,0.2371
17:32:29:815,0.523,3.7014,5.6416,53.9946,-0.0138,0.0713,0.0181,0.2369
17:32:29:835,0.7056,3.723,5.7138,54.1096,-0.1884,0.1288,0.1725,0.2352
17:32:29:857,0.8489,3.5855,6.3401,53.9078,-0.3386,0.3098,0.2385,0.2315
17:32:29:875,0.8607,3.6039,7.091,53.4291,-0.3929,0.4344,0.2246,0.2263
17:32:29:895,0.9323,3.7935,7.9005,53.2672,-0.4354,0.4621,0.2119,0.2205
17:32:29:915,1.0963,4.1128,8.6906,53.4646,-0.4653,0.3758,0.1874,0.2146
17:32:29:935,1.395,4.4248,9.4001,53.248,-0.3854,0.2395,0.1533,0.2098
17:32:29:956,1.6954,4.7671,9.65,53.2945,-0.2183,0.1895,0.099,0.2067
17:32:29:975,1.7783,5.0846,9.713,53.2874,-0.1522,0.3077,0.0415,0.204
17:32:29:995,1.3397,5.0676,10.3703,53.3273,-0.28,0.56,0.0043,0.1994
17:32:30:016,0.9743,5.2641,11.759,53.2581,-0.3652,0.5451,-0.0245,0.1933
17:32:30:034,0.74,5.3385,12.8446,53.4053,-0.2151,0.3045,-0.0788,0.189
17:32:30:056,0.606,5.1611,12.6579,53.2158,0.0596,0.0617,-0.1192,0.1883
17:32:30:075,0.4009,4.4424,11.6765,53.2117,0.165,-0.0149,-0.1512,0.1895
17:32:30:095,-0.1327,3.4991,10.9071,53.276,0.0926,-0.0437,-0.1437,0.1905
17:32:30:115,-0.6266,2.8436,10.4762,53.1185,-0.0266,-0.0437,-0.016,0.1907
17:32:30:135,-0.5453,2.528,10.1964,52.9881,-0.1203,0.0117,0.1799,0.19
17:32:30:155,-0.2734,1.9907,9.73,52.6307,-0.2768,0.1001,0.2715,0.1878
17:32:30:175,-0.1782,1.4552,9.724,52.5251,-0.5206,0.1501,0.2087,0.1833
17:32:30:195,-0.0903,1.5105,10.1865,52.415,-0.5802,0.05,0.0064,0.178
17:32:30:215,-0.137,2.182,10.1993,52.2389,-0.3556,-0.1821,-0.2598,0.175
17:32:30:234,-0.4851,2.7888,9.3809,52.2013,-0.0852,-0.3556,-0.4003,0.1753
17:32:30:255,-0.7969,3.3048,8.3931,52.1328,0.1256,-0.5004,-0.3684,0.1783
17:32:30:275,-0.7379,3.6296,7.4753,51.9012,0.3066,-0.5451,-0.1767,0.1832
17:32:30:295,-0.5727,3.7324,6.6726,51.6964,0.5398,-0.4461,0.0341,0.1898
17:32:30:315,-0.3544,3.6388,5.8504,51.7611,0.7644,-0.2204,0.2523,0.1974
17:32:30:337,-0.0045,3.5066,5.1533,51.5069,0.8389,0.0277,0.4472,0.2046
17:32:30:354,0.5131,3.6867,4.9515,50.997,0.7272,0.2619,0.5898,0.2101
17:32:30:374,0.8473,3.6954,5.2094,50.678,0.5206,0.4599,0.6324,0.2128
17:32:30:394,0.9359,3.432,5.9824,50.5367,0.231,0.5643,0.5685,0.2126
17:32:30:415,0.9818,3.5176,7.5651,50.3713,0.0128,0.3716,0.4163,0.2107
17:32:30:435,0.8515,3.7925,8.987,50.4953,0.0809,-0.1171,0.2694,0.211
17:32:30:455,1.0993,4.3126,9.2699,50.1645,0.3045,-0.6441,0.1214,0.2159
17:32:30:475,1.5698,4.9956,9.0573,50.0979,0.4024,-0.7974,-0.0192,0.2234
17:32:30:495,1.6973,5.4817,9.1006,49.9,0.3854,-0.6516,-0.1437,0.2303
17:32:30:518,1.9864,6.259,9.825,49.6312,0.3119,-0.4056,-0.2183,0.2359
17:32:30:534,2.2228,6.8951,11.056,49.7643,0.297,-0.2193,-0.2981,0.2391
17:32:30:554,2.156,6.7949,11.7526,49.6315,0.3833,-0.2097,-0.4216,0.2429
17:32:30:574,1.569,6.4292,11.9482,49.721,0.4823,-0.1799,-0.4823,0.2474
17:32:30:594,0.5634,5.3213,11.7541,49.5898,0.4046,-0.0362,-0.3098,0.2511
17:32:30:617,0.2483,4.2681,12.1245,49.4574,0.1938,-0.1533,-0.0277,0.2534
17:32:30:634,0.8682,3.3371,12.0772,48.9701,0.1927,-0.625,0.1437,0.2574
17:32:30:655,2.0597,3.0698,10.8792,48.8903,0.3897,-1.0615,0.0543,0.2653
17:32:30:683,2.9387,3.4264,9.05,48.6111,0.4972,-1.1232,-0.1416,0.2751
17:32:30:695,2.9972,3.6488,7.3958,48.4538,0.2938,-0.8379,-0.2534,0.2828
17:32:30:716,2.5925,3.504,6.5328,48.3745,-0.1916,-0.4557,-0.2491,0.285
17:32:30:735,2.2311,3.054,6.5209,48.3011,-0.7165,-0.3087,-0.1746,0.282
17:32:30:755,2.2422,2.6574,6.7466,48.0317,-1.0199,-0.3535,-0.1565,0.2758
17:32:30:775,2.3104,2.2793,6.6351,47.9886,-1.0529,-0.4003,-0.2491,0.2693
17:32:30:795,2.0714,1.8147,6.3218,47.8806,-0.9358,-0.378,-0.4088,0.2633
17:32:30:816,1.7782,1.8067,6.284,47.792,-0.7506,-0.4003,-0.5419,0.2585
17:32:30:835,1.5721,1.9649,6.163,47.5952,-0.527,-0.5845,-0.5707,0.2564
17:32:30:855,1.5491,2.0716,5.6516,47.1578,-0.3769,-0.7325,-0.5557,0.2565
17:32:30:875,1.7015,2.211,5.1394,47.2349,-0.3843,-0.7868,-0.5185,0.2573
17:32:30:895,1.9216,2.5228,5.1194,47.259,-0.5025,-0.7357,-0.4578,0.2572
17:32:30:916,2.0324,2.7516,5.6347,47.3258,-0.577,-0.6494,-0.3652,0.2558
17:32:30:935,2.045,2.7559,6.2645,47.3725,-0.6303,-0.6186,-0.2427,0.2536
17:32:30:955,2.2418,3.1102,7.1927,47.1491,-0.6984,-0.658,-0.1491,0.251
17:32:30:975,2.8797,3.9678,8.4537,47.0789,-0.577,-0.6335,-0.1831,0.2487
17:32:30:994,3.0422,4.6786,9.8029,46.7686,-0.1703,-0.4599,-0.2502,0.2486
17:32:31:015,2.8079,4.8848,10.1736,46.8425,0.3322,-0.4514,-0.2566,0.2524
17:32:31:035,2.9178,5.179,9.4248,46.7898,0.4876,-0.5494,-0.2513,0.2589
17:32:31:055,3.4184,5.7623,9.0128,46.4452,0.3279,-0.4599,-0.3173,0.2646
17:32:31:074,3.7462,6.5132,9.4351,46.3435,0.0969,-0.165,-0.4365,0.2673
17:32:31:096,3.4208,7.3495,10.6338,46.0491,-0.0032,0.1629,-0.5089,0.2672
17:32:31:115,2.8121,7.3991,11.3324,46.154,0.0798,0.3066,-0.4141,0.2666
17:32:31:135,2.4845,6.7248,11.3785,46.1694,0.1299,0.2779,-0.2204,0.2664
17:32:31:154,2.2942,5.6398,11.2545,46.0454,0.0192,-0.0032,0.0021,0.2667
17:32:31:174,2.3554,4.3724,10.8988,45.9554,-0.2012,-0.5174,0.1916,0.2672
17:32:31:195,2.5589,2.973,10.4223,45.7963,-0.3971,-0.9912,0.2928,0.2681
17:32:31:215,2.8339,1.9201,9.6498,45.3412,-0.5249,-1.1977,0.3449,0.2689
17:32:31:235,3.1166,1.3209,8.7636,45.2652,-0.6739,-0.9646,0.3098,0.2678
17:32:31:255,2.9295,1.0114,7.9502,45.1554,-0.9124,-0.3449,0.2619,0.2625
17:32:31:275,2.4002,1.0388,8.2127,44.947,-1.1466,0.4152,0.3013,0.2515
17:32:31:296,1.7735,0.8818,8.8945,44.8169,-1.1349,0.7506,0.4248,0.2379
17:32:31:315,1.5287,0.6263,9.0322,44.7801,-0.8837,0.8326,0.5249,0.2252
17:32:31:335,1.684,0.6095,8.7174,44.5051,-0.4706,0.89,0.5153,0.2155
17:32:31:355,1.8969,0.8173,8.1712,44.3907,-0.0607,0.9869,0.412,0.209
17:32:31:374,1.831,1.1308,7.8159,43.9871,0.2715,0.89,0.2619,0.206
17:32:31:394,1.6078,1.4015,7.2436,43.9839,0.477,0.5792,0.1235,0.2064
17:32:31:415,1.7687,2.0236,6.7069,43.935,0.51,0.1459,-0.0011,0.2097
17:32:31:435,2.3117,2.7602,6.7156,43.9479,0.478,-0.0564,-0.1565,0.2141
17:32:31:454,2.568,3.0099,6.7388,44.0386,0.5249,-0.0554,-0.2385,0.2188
17:32:31:476,2.2211,3.0245,6.7539,43.9699,0.4514,0.0383,-0.263,0.2231
17:32:31:495,2.1605,3.2558,7.2822,43.834,0.2257,-0.0128,-0.2395,0.2257
17:32:31:516,2.5622,3.6472,7.7625,43.6253,-0.0213,-0.4163,-0.2566,0.2278
17:32:31:535,2.89,3.7945,8.1826,43.3334,-0.2108,-0.6548,-0.3684,0.2296
17:32:31:555,2.9958,3.9003,8.7191,43.0474,-0.3215,-0.6143,-0.4397,0.2302
17:32:31:575,2.9,3.9568,9.4082,43.0264,-0.3599,-0.4195,-0.4301,0.2296
17:32:31:595,2.851,3.9084,9.9661,42.9325,-0.3481,-0.2161,-0.3396,0.2279
17:32:31:615,2.9258,3.6854,10.4503,43.0449,-0.3109,-0.1086,-0.2608,0.2257
17:32:31:635,2.8706,3.5607,10.5999,43.0888,-0.2662,-0.0756,-0.2875,0.2239
17:32:31:655,2.4825,3.693,10.7538,43.1942,-0.2257,0.0362,-0.3087,0.2219
17:32:31:675,2.451,4.5652,10.667,43.1206,-0.1618,-0.1171,-0.1852,0.2207
17:32:31:695,3.1334,4.9146,10.5179,43.0373,-0.1182,-0.1533,0.0245,0.2203
17:32:31:715,3.4977,3.8821,10.2375,43.1279,-0.165,0.017,0.1341,0.2189
17:32:31:734,3.585,2.3435,10.2853,42.9081,-0.2981,0.4727,0.2789,0.2149
17:32:31:754,3.8425,1.5698,11.313,42.9024,-0.3524,0.9486,0.3024,0.2076
17:32:31:781,3.8638,1.2199,12.1015,42.8939,-0.1011,1.0306,0.2119,0.2011
17:32:31:795,3.6925,1.259,11.4755,42.6217,0.132,0.9262,0.116,0.1975
17:32:31:815,3.2076,1.3556,10.3232,42.4244,-0.0096,0.7357,0.0479,0.1945
17:32:31:834,2.8024,1.3026,9.2683,42.3328,-0.4163,0.2683,0.0138,0.1903
17:32:31:854,2.5427,1.1716,8.4002,41.7721,-0.8017,-0.2715,-0.0053,0.1849
17:32:31:875,2.4989,0.9849,7.821,41.596,-0.9465,-0.6729,-0.0287,0.1796
17:32:31:895,2.488,0.7791,7.2603,41.2798,-0.8272,-0.8719,-0.1118,0.1758
17:32:31:915,2.3924,0.5848,6.4703,41.227,-0.6313,-0.8485,-0.2236,0.1738
17:32:31:935,2.3374,0.6606,5.7973,41.0292,-0.4642,-0.6963,-0.3481,0.1728
17:32:31:955,2.3023,1.0091,5.6161,40.7958,-0.2694,-0.4802,-0.4472,0.1725
17:32:31:975,2.2623,1.5196,5.7067,40.6582,-0.0075,-0.2087,-0.4642,0.1732
17:32:31:995,2.2232,2.0036,5.7862,40.5608,0.1725,0.0756,-0.4014,0.1745
17:32:32:015,1.9496,2.0993,5.9981,40.3652,0.131,0.3013,-0.2236,0.175
17:32:32:034,1.9644,2.1459,6.5134,40.5579,-0.0458,0.5142,0.0373,0.1731
17:32:32:055,2.301,2.4331,7.7251,40.3792,-0.2406,0.8017,0.2225,0.168
17:32:32:074,2.2958,2.3974,9.3862,40.4161,-0.2843,0.9348,0.3013,0.1612
17:32:32:095,2.0138,2.0708,10.6756,40.7771,-0.1799,0.7463,0.3801,0.1557
17:32:32:115,2.2632,2.0076,11.7617,40.721,-0.1086,0.3684,0.3939,0.1523
17:32:32:134,2.5298,2.2729,12.1829,41.0199,-0.1097,-0.0937,0.2481,0.1512
17:32:32:155,2.5526,3.1718,12.3864,40.9657,-0.1789,-0.4333,0.1171,0.1514
17:32:32:175,2.6605,4.4753,12.2131,41.1015,-0.2321,-0.7272,0.0777,0.1523
17:32:32:195,2.57,4.5094,12.0484,41.0994,-0.2747,-0.7516,0.1341,0.1532
17:32:32:215,2.5676,4.2963,12.0141,41.3368,-0.264,-0.5568,0.2374,0.1532
17:32:32:234,2.6289,3.7957,12.0649,41.4111,-0.2608,-0.3279,0.3354,0.152
17:32:32:255,2.6633,2.0318,12.5869,41.4028,0.0277,-0.1118,0.3258,0.1514
17:32:32:274,2.7545,0.7229,12.3068,41.3246,0.5707,0.3162,0.2949,0.1534
17:32:32:295,2.8907,-0.1147,11.2031,41.0975,0.889,0.5834,0.2449,0.1577
17:32:32:315,2.7824,-0.35,10.1101,41.0754,0.7804,0.7836,0.1491,0.1617
17:32:32:336,2.3059,-0.6426,9.8009,40.6057,0.4046,0.922,0.0617,0.1622
17:32:32:355,1.7148,-0.8949,9.629,40.4782,0.0862,0.9018,-0.016,0.1596
17:32:32:375,1.2398,-0.831,9.0332,40.214,-0.0341,0.824,-0.0745,0.1557
17:32:32:394,0.991,-0.2248,8.1057,39.9708,0.0106,0.7431,-0.1512,0.1523
17:32:32:415,0.9608,0.6378,7.3728,39.4352,0.1075,0.7314,-0.1842,0.1498
17:32:32:434,0.6802,0.913,6.8139,39.4654,0.2214,0.6611,-0.1799,0.1484
17:32:32:454,0.4702,1.0736,6.1865,39.109,0.2832,0.5015,-0.132,0.1485
17:32:32:475,0.5938,1.5687,5.7247,39.0193,0.2438,0.3939,-0.0979,0.1489
17:32:32:495,0.5604,1.9954,5.4399,38.7475,0.1629,0.411,-0.0905,0.1488
17:32:32:515,0.5212,2.265,5.4617,39.0901,0.0437,0.445,-0.0564,0.1474
17:32:32:534,0.6063,2.7043,5.7094,38.8622,-0.0884,0.5664,-0.0543,0.1447
17:32:32:555,0.3635,3.2567,6.1244,39.0065,-0.2928,0.8805,-0.0532,0.139
17:32:32:575,-0.0389,3.313,7.6245,39.168,-0.5685,1.0945,0.0426,0.1298
17:32:32:594,-0.2809,2.8018,9.9285,39.1175,-0.6335,0.9081,0.1448,0.1197
17:32:32:616,0.0895,2.6983,11.6279,39.3627,-0.3567,0.3449,0.1352,0.1136
17:32:32:635,0.3803,2.7633,12.1743,39.7664,0.0043,-0.0447,-0.0479,0.1127
17:32:32:655,0.1439,3.006,11.9193,39.8699,0.1948,-0.0298,-0.2204,0.1143
17:32:32:687,-0.2781,3.6958,11.982,39.9195,0.1416,0.1863,-0.2257,0.1153
17:32:32:695,-0.6925,3.9485,12.6662,39.8475,0.0649,0.3013,-0.1437,0.1146
17:32:32:716,-0.7969,3.7495,13.2507,40.0291,0.132,0.2012,-0.0373,0.1145
17:32:32:735,-0.4853,3.7348,13.2232,40.1286,0.3045,-0.0266,-0.0032,0.1164
17:32:32:755,-0.2186,3.7725,12.6397,40.2343,0.4706,-0.1405,-0.0202,0.1208
17:32:32:775,-0.1915,3.1876,12.0373,40.3727,0.6207,-0.0692,0.0224,0.1264
17:32:32:794,0.0192,2.5133,11.4419,40.3315,0.7027,0.1278,0.1906,0.1321
17:32:32:816,0.6707,1.8062,10.9744,40.0615,0.7697,0.33,0.3662,0.1376
17:32:32:835,1.2313,1.0111,10.437,39.6753,0.7378,0.5792,0.4067,0.142
17:32:32:855,1.3916,0.6146,9.9162,39.6809,0.5004,0.6824,0.3428,0.144
17:32:32:874,1.0116,0.4647,9.5956,39.5753,0.1097,0.5206,0.2619,0.1432
17:32:32:894,0.4749,0.4463,9.0253,39.2402,-0.3258,0.0671,0.2342,0.1403
17:32:32:916,0.4037,0.7594,8.4117,39.2966,-0.6995,-0.4589,0.2768,0.1364
17:32:32:935,0.6651,0.8886,7.9763,39.0437,-0.8208,-0.8805,0.2906,0.1331
17:32:32:955,0.8026,0.6945,7.4039,38.8155,-0.7101,-1.1541,0.2225,0.1319
17:32:32:974,1.0356,0.8509,6.791,38.8821,-0.4983,-1.219,0.1097,0.133
17:32:32:994,1.4554,1.1548,6.3934,38.7682,-0.2502,-1.1136,-0.0426,0.1358
17:32:33:015,1.5548,1.5135,6.1568,38.764,0.0713,-0.7815,-0.198,0.1398
17:32:33:035,1.546,2.2092,5.9715,38.6491,0.3268,-0.3087,-0.2523,0.1442
17:32:33:055,1.4828,2.9511,6.1657,38.5088,0.3684,0.1501,-0.2119,0.1472
17:32:33:074,1.2536,3.161,6.7546,38.4996,0.2204,0.494,-0.1267,0.1476
17:32:33:095,0.949,2.843,7.9876,38.605,0.0032,0.6739,-0.017,0.1451
17:32:33:115,0.7072,2.7134,9.4969,38.6768,-0.0692,0.6558,0.0798,0.1413
17:32:33:135,0.442,2.4864,10.5809,38.8769,0.0713,0.4525,0.1565,0.1392
17:32:33:155,0.2791,2.2422,10.8318,38.8732,0.2481,0.1565,0.2459,0.1399
17:32:33:174,0.1751,2.0116,10.7301,38.9414,0.3354,-0.1065,0.3726,0.1428
17:32:33:195,1.2288,1.8741,10.3966,38.9341,0.2726,-0.5121,0.461,0.1472
17:32:33:215,1.7771,2.8922,10.2625,39.1381,0.2289,-0.4759,0.0979,0.1516
17:32:33:235,1.7204,3.3141,9.4713,39.4529,0.2236,-0.3386,-0.1299,0.1555
17:32:33:255,1.2656,3.8646,9.0976,39.626,0.0287,0.0511,-0.2246,0.1565
17:32:33:275,0.7071,3.7001,9.5159,39.5823,-0.3481,0.2385,-0.1065,0.1534
17:32:33:295,0.3128,2.7311,10.9016,39.5481,-0.7527,0.0532,0.082,0.147
17:32:33:315,0.4564,1.4968,12.1328,39.6494,-0.9209,-0.4067,0.2278,0.1407
17:32:33:335,0.9086,0.1668,12.6279,39.7596,-0.8421,-0.593,0.2513,0.1358
17:32:33:355,1.2137,-0.9874,12.5841,40.0291,-0.7591,-0.4099,0.1533,0.1313
17:32:33:375,1.2798,-1.4144,12.7779,40.1634,-0.7218,-0.1735,-0.05,0.1259
17:32:33:395,0.9373,-1.3605,12.9507,40.1595,-0.4684,-0.099,-0.3056,0.1217
17:32:33:417,0.2394,-1.0646,12.4099,40.0832,0.0692,-0.0884,-0.4546,0.1212
17:32:33:435,0.0442,0.1646,10.7768,40.1459,0.5313,-0.2214,-0.4589,0.1258
17:32:33:454,0.1617,1.3561,8.8037,40.1651,0.7357,-0.3449,-0.4173,0.1335
17:32:33:476,0.3576,2.219,7.0531,40.003,0.6973,-0.3418,-0.3545,0.1416
17:32:33:495,0.0586,2.2154,5.8023,39.832,0.56,-0.1544,-0.2257,0.1478
17:32:33:517,0.061,2.4978,5.2166,39.8792,0.4802,0.1192,-0.0713,0.1522
17:32:33:535,0.1741,2.7099,4.9681,39.555,0.4429,0.3013,0.0224,0.1547
17:32:33:555,0.1087,2.4689,4.8159,39.3607,0.4354,0.4248,0.0745,0.1566
17:32:33:575,0.073,2.4709,4.9712,39.1731,0.3503,0.642,0.1405,0.1574
17:32:33:595,0.2871,2.8553,5.7088,39.2671,0.1373,0.7825,0.1693,0.1556
17:32:33:615,0.3048,2.9154,6.8052,39.0957,-0.1416,0.8208,0.1533,0.1513
17:32:33:635,0.3277,2.8296,8.504,39.1558,-0.3386,0.6697,0.1203,0.1453
17:32:33:655,0.4851,2.7981,10.0007,39.3137,-0.2662,0.3641,0.05,0.1406
17:32:33:675,0.6631,3.2035,10.6617,39.4823,-0.0298,0.2204,-0.0671,0.1386
17:32:33:695,0.5431,3.6231,10.9129,39.6978,0.1097,0.1884,-0.1586,0.1384
17:32:33:715,0.258,4.0187,11.2048,39.8686,0.1097,0.2012,-0.1757,0.1385
17:32:33:734,0.0689,4.174,11.6896,40.2107,0.033,0.0798,-0.1682,0.1383
17:32:33:754,0.0672,4.1564,12.2615,40.3836,-0.0319,-0.1842,-0.1799,0.1386
17:32:33:775,0.3887,4.2529,12.5739,40.6805,0.1224,-0.379,-0.2044,0.1407
17:32:33:795,0.5884,4.4092,12.0778,40.8473,0.4067,-0.2672,-0.1821,0.1451
17:32:33:815,0.4073,3.3796,11.3285,40.8512,0.4376,0.1331,-0.0351,0.149
17:32:33:835,0.5623,2.3535,11.4875,41.0449,0.2353,0.363,0.2225,0.15
17:32:33:854,1.2742,1.4631,11.8095,41.2428,0.2033,0.264,0.3875,0.1503
17:32:33:874,1.9798,0.9621,11.2135,41.0915,0.2875,0.0937,0.362,0.152
17:32:33:894,2.0632,0.6144,9.7775,41.3961,0.1991,-0.1224,0.2289,0.1545
17:32:33:915,1.5185,0.8269,8.5232,41.0478,-0.2236,-0.2587,0.115,0.1546
17:32:33:934,0.904,1.0969,7.7633,41.0476,-0.8027,-0.3875,0.1991,0.1509
17:32:33:954,0.8735,1.111,7.4392,41.0918,-1.3095,-0.543,0.3811,0.1428
17:32:33:975,1.1221,0.8674,7.3754,41.0749,-1.4351,-0.7697,0.4812,0.1339
17:32:33:994,1.4342,0.5986,6.9442,41.2263,-1.3266,-0.8251,0.4791,0.126
17:32:34:015,1.6558,0.4842,6.5449,41.4013,-1.1711,-0.7261,0.3545,0.1191
17:32:34:034,1.9162,0.3734,6.8501,41.2236,-0.9486,-0.5398,0.1916,0.1131
17:32:34:055,1.8139,0.1175,7.5539,41.2163,-0.5323,-0.2364,0.0405,0.1087
17:32:34:074,1.773,0.3094,7.7236,41.0872,-0.0703,-0.0522,-0.1011,0.1075
17:32:34:094,1.8432,0.9692,8.0422,41.413,0.1331,-0.0479,-0.1672,0.1085
17:32:34:115,1.5538,1.1394,8.5995,41.6577,0.1011,-0.0926,-0.1512,0.11
17:32:34:134,1.5189,1.1321,9.68,41.9908,0.1469,-0.1129,-0.0202,0.1115
17:32:34:155,1.619,1.117,10.4912,42.2849,0.3929,-0.0735,0.0692,0.1146
17:32:34:174,1.8156,1.2673,10.4735,42.2927,0.6814,-0.0969,0.1256,0.1201
17:32:34:195,2.253,1.4404,9.8994,42.5031,0.7697,-0.131,0.1022,0.1273
17:32:34:215,2.3442,1.5824,9.6097,42.5102,0.6388,-0.0011,0.016,0.1334
17:32:34:234,2.1854,1.8174,10.1316,42.6441,0.3758,0.083,-0.0639,0.1369
17:32:34:254,2.2326,2.2287,10.8468,42.9328,0.2012,-0.0447,-0.1608,0.1391
17:32:34:275,2.4459,2.6491,11.0348,43.2074,0.1203,-0.1767,-0.3066,0.1411
17:32:34:295,2.4458,3.108,10.9761,43.1942,-0.0234,-0.1672,-0.4195,0.1423
17:32:34:315,2.0303,3.1665,11.0441,43.2847,-0.2757,-0.1097,-0.4503,0.1414
17:32:34:336,1.4077,2.6229,11.6316,43.2783,-0.5036,-0.0256,-0.3843,0.1379
17:32:34:355,0.8973,1.6235,12.2557,43.2555,-0.4748,-0.0319,-0.2906,0.1338
17:32:34:375,0.519,0.705,12.2701,43.2964,-0.1767,0.0138,-0.2087,0.1313
17:32:34:395,0.5317,0.0971,11.4625,43.2206,0.1586,0.2097,-0.1565,0.1313
17:32:34:415,0.3223,-0.2629,10.6868,43.2909,0.2108,0.5334,-0.1746,0.1311
17:32:34:435,-0.0482,-0.0842,10.5054,43.4059,0.0713,0.577,-0.2406,0.1295
17:32:34:455,-0.5139,0.2077,10.2987,43.4123,-0.0458,0.3215,-0.2459,0.1276
17:32:34:475,-0.5957,0.6206,9.5567,43.3583,0.0096,-0.0192,-0.1789,0.1272
17:32:34:495,-0.2992,1.132,8.2489,43.2949,0.1672,-0.2161,-0.0937,0.129
17:32:34:516,0.071,1.7278,6.8978,43.4062,0.2992,-0.181,-0.0192,0.1322
17:32:34:534,0.479,2.7162,6.1379,43.0575,0.3396,0.0128,0.0926,0.1352
17:32:34:555,0.6565,3.7911,6.2147,43.0602,0.3748,0.2002,0.2875,0.1375
17:32:34:574,0.6194,3.7572,6.3648,43.4286,0.4961,0.1086,0.5909,0.1405
17:32:34:595,0.7003,3.0478,5.9715,43.401,0.5824,-0.0809,0.8251,0.1454
17:32:34:616,0.9986,2.407,5.4338,43.3832,0.4812,-0.099,0.8517,0.1501
17:32:34:636,1.169,2.2327,5.6926,43.5294,0.1735,0.1107,0.6995,0.152
17:32:34:654,1.0854,2.3186,6.9563,43.6365,-0.0468,0.4248,0.5291,0.1501
17:32:34:697,0.9149,2.1061,8.0279,43.3304,-0.1097,0.6409,0.3971,0.1462
17:32:34:698,0.8824,2.0534,8.9649,43.5159,-0.2002,0.6984,0.2108,0.1412
17:32:34:715,0.8145,2.3418,10.1387,43.3834,-0.2843,0.5217,0.0149,0.136
17:32:34:734,0.8176,2.8913,11.137,43.3637,-0.2427,0.2246,-0.197,0.1323
17:32:34:754,0.4334,3.4392,11.6775,43.474,-0.0745,0.1565,-0.3492,0.1305
17:32:34:774,-0.232,3.8547,11.9465,43.4099,0.0309,0.3407,-0.2917,0.1292
17:32:34:794,-0.4252,4.0373,12.4849,43.5295,-0.0554,0.3992,-0.1672,0.127
17:32:34:815,-0.1534,3.9804,13.5105,43.3948,-0.0617,0.3662,-0.0969,0.1245
17:32:34:835,0.2307,3.6897,14.0308,43.4411,0.1842,0.3982,-0.1086,0.1236
17:32:34:855,-0.2088,2.8401,13.9493,43.4422,0.4429,0.5994,-0.0979,0.1243
17:32:34:874,-0.9815,2.1048,14.0372,43.458,0.6771,0.6558,0.0607,0.1265
17:32:34:894,-0.9936,1.6441,13.6269,43.4749,0.9092,0.4184,0.3013,0.1315
17:32:34:915,-0.3205,1.5683,12.1933,43.6565,1.0263,0.1544,0.5227,0.1393
17:32:34:934,0.4062,1.1985,10.4629,43.3363,0.8336,0.1097,0.6899,0.1467
17:32:34:955,0.8441,0.7522,9.4702,43.3006,0.3918,0.082,0.757,0.1507
17:32:34:975,1.1464,0.334,9.2483,43.1704,-0.0554,-0.165,0.7687,0.1517
17:32:34:994,1.7815,-0.002,8.9382,42.9359,-0.2087,-0.5994,0.7091,0.1527
17:32:35:015,2.5352,-0.054,7.7269,42.8711,-0.0862,-0.9763,0.4993,0.1563
17:32:35:035,2.8338,0.166,6.1267,43.0917,0.0756,-1.0231,0.2119,0.1621
17:32:35:055,2.6399,0.6255,4.9548,43.159,0.1469,-0.8145,0.0053,0.1678
17:32:35:074,2.3283,1.1564,4.3159,43.446,0.1459,-0.5227,-0.1054,0.1722
17:32:35:095,2.0725,1.3686,4.3256,43.1983,0.0767,-0.2523,-0.1118,0.1746
17:32:35:116,2.0793,1.4778,4.4529,43.111,-0.0256,-0.1246,-0.1363,0.1754
17:32:35:134,2.1821,1.7487,4.7596,43.2052,-0.2119,-0.0649,-0.1895,0.1744
17:32:35:154,1.936,2.2437,5.4779,43.3588,-0.4195,-0.0128,-0.2374,0.1714
17:32:35:174,1.547,2.6635,6.7591,43.4693,-0.5451,-0.0192,-0.181,0.1671
17:32:35:195,1.3922,2.8171,7.7711,43.7276,-0.5802,-0.0532,-0.0405,0.1625
17:32:35:215,1.7181,3.1625,8.9179,43.9226,-0.6803,0.0096,0.0319,0.1572
17:32:35:235,1.8591,2.847,10.4089,44.1079,-0.7506,0.0713,0.0117,0.1507
17:32:35:255,1.8453,2.305,11.9041,44.2857,-0.6356,0.0681,-0.1214,0.1445
17:32:35:275,1.3406,2.1641,12.9243,44.6806,-0.2843,-0.0511,-0.2906,0.1411
17:32:35:295,1.0228,2.5829,12.5644,44.5662,0.0937,-0.2747,-0.3939,0.1421
17:32:35:315,0.7982,3.3048,11.7023,44.4353,0.3268,-0.2875,-0.362,0.146
17:32:35:335,0.8922,4.2394,10.9802,44.5178,0.395,-0.1448,-0.2608,0.1503
17:32:35:355,1.1707,4.843,10.6458,44.8709,0.3077,0.0032,-0.1512,0.1533
17:32:35:375,1.2226,4.6177,10.617,45.2415,0.0586,0.05,-0.0756,0.1543
17:32:35:395,0.812,3.5294,11.0871,45.5324,-0.3247,-0.0245,-0.082,0.1524
17:32:35:415,0.0364,2.2783,12.0197,45.7634,-0.5579,-0.1533,-0.0468,0.1487
17:32:35:435,-0.5209,1.1147,12.7574,46.3419,-0.5334,-0.1757,0.0511,0.1448
17:32:35:454,-0.6174,0.1356,12.9105,45.9911,-0.3183,-0.0958,0.1256,0.142
17:32:35:474,-0.5531,-0.3177,12.3078,46.0753,-0.1246,-0.0256,0.0979,0.1407
17:32:35:495,-0.5191,-0.3106,11.6328,46.0961,-0.0447,-0.0213,0.0298,0.1403
17:32:35:516,-0.484,-0.0183,10.7094,46.291,0.0415,-0.1065,-0.0075,0.1408
17:32:35:534,-0.3628,0.3667,9.5467,46.5698,0.198,-0.1789,-0.0234,0.1429
17:32:35:554,-0.3203,0.8588,8.2716,47.0191,0.412,-0.1586,-0.0043,0.1467
17:32:35:575,-0.2145,1.487,7.1106,47.3163,0.6356,-0.0894,0.0617,0.1521
17:32:35:595,-0.0161,2.0483,6.0027,47.4405,0.8091,0,0.1703,0.1587
17:32:35:616,0.2092,2.5036,5.0387,47.6199,0.8592,0.0809,0.3194,0.1656
17:32:35:635,0.4958,2.8399,4.4806,47.8152,0.7261,0.1214,0.5121,0.1714
17:32:35:654,0.9518,2.8913,4.3929,47.9795,0.4855,0.099,0.691,0.1754
17:32:35:674,1.2196,2.7739,4.6176,48.3261,0.2023,0.0873,0.8113,0.1771
17:32:35:695,1.7429,2.8499,5.1514,48.3223,-0.1054,0.1522,0.8592,0.1761
17:32:35:715,2.2927,2.6935,6.0589,48.3366,-0.4237,0.2193,0.7815,0.172
17:32:35:734,2.8794,2.5087,7.2383,48.2396,-0.6292,0.2012,0.5696,0.1659
17:32:35:754,3.1198,2.3249,8.3394,48.4945,-0.6899,0.2278,0.2033,0.1591
17:32:35:774,2.7853,2.4975,9.8186,48.2431,-0.6313,0.3407,-0.1693,0.152
17:32:35:795,2.1751,3.1847,11.1415,48.6707,-0.3705,0.3268,-0.412,0.1465
17:32:35:815,1.6064,3.7297,11.5639,48.9871,-0.0287,0.3833,-0.4429,0.1437
17:32:35:834,1.2296,4.0179,11.5422,49.4591,0.1278,0.5419,-0.3609,0.1419
17:32:35:854,1.2119,4.0799,12.0445,50.0336,0.0394,0.4865,-0.2949,0.1397
17:32:35:875,1.373,4.082,12.8467,50.4983,-0.0756,0.148,-0.2513,0.138
17:32:35:894,1.6658,3.9981,12.9431,51.0065,-0.1554,-0.0852,-0.2225,0.1372
17:32:35:915,1.372,2.9181,13.0915,51.3792,-0.3418,0.0383,-0.2044,0.1347
17:32:35:934,0.8067,1.7115,14.147,51.2851,-0.4195,0.1288,-0.1054,0.1306
17:32:35:955,0.9034,0.5739,14.5548,51.4427,-0.0362,-0.0958,0.0096,0.1293
17:32:35:976,1.81,0.0373,12.7947,51.7513,0.5004,-0.1427,0.0064,0.1333
17:32:35:995,2.3668,-0.1453,10.5668,51.7601,0.6143,0.1459,-0.1576,0.1381
17:32:36:016,1.9845,-0.0719,9.3743,51.8573,0.3237,0.2608,-0.33,0.1403
17:32:36:034,1.4818,0.0996,8.856,52.0875,-0.0511,0.0192,-0.3907,0.1401
17:32:36:054,1.2415,0.3481,8.362,52.2141,-0.2523,-0.3268,-0.3929,0.1395
17:32:36:075,1.1869,0.6057,7.6211,52.3728,-0.2406,-0.5536,-0.3897,0.1399
17:32:36:095,1.1649,0.8109,6.6839,52.8294,-0.1767,-0.5792,-0.4035,0.1412
17:32:36:115,1.2107,1.1484,5.9175,53.2944,-0.1533,-0.4876,-0.4259,0.1426
17:32:36:135,1.1291,1.3314,5.6867,53.4811,-0.1597,-0.3354,-0.4397,0.1431
17:32:36:155,1.0056,1.4179,5.8297,53.6937,-0.1043,-0.2449,-0.4237,0.1434
17:32:36:175,0.9676,1.6266,6.0661,53.9581,-0.0085,-0.181,-0.395,0.1441
17:32:36:195,0.9043,1.983,6.2181,54.1355,0.0138,-0.0277,-0.3237,0.1447
17:32:36:215,0.937,2.2383,6.9215,54.3545,-0.0979,0.1097,-0.2183,0.1437
17:32:36:234,0.8397,2.0445,8.1015,54.7134,-0.2172,0.1246,-0.1171,0.1415
17:32:36:255,1.2067,1.9387,9.4987,54.6233,-0.2832,-0.0788,-0.0894,0.1392
17:32:36:275,1.5643,1.8776,10.7342,54.6029,-0.2278,-0.3716,-0.1757,0.1384
17:32:36:295,1.7992,1.8824,11.7442,54.5751,-0.0351,-0.5004,-0.2917,0.1399
17:32:36:316,1.7718,1.7449,12.1033,55.0029,0.33,-0.5259,-0.362,0.1445
17:32:36:335,1.6723,2.0991,11.8528,55.0313,0.7453,-0.2427,-0.3609,0.1516
17:32:36:354,1.6693,2.9379,11.309,55.1427,1.0508,0.0032,-0.3279,0.1603
17:32:36:374,1.7468,3.8117,10.547,55.2256,1.0955,0.0948,-0.3215,0.1696
17:32:36:394,1.9038,4.8258,9.9711,55.3119,0.8719,0.165,-0.3034,0.1772
17:32:36:415,1.656,5.0913,9.7176,55.1435,0.4024,0.1331,-0.2587,0.1812
17:32:36:436,0.9903,4.3334,9.9689,55.2005,-0.1938,-0.1001,-0.1416,0.181
17:32:36:455,0.6398,2.8521,10.7203,55.4451,-0.5046,-0.3279,-0.0277,0.1784
17:32:36:475,0.3515,1.9063,11.05,55.5578,-0.4514,-0.2193,-0.0043,0.1754
17:32:36:494,0.1367,1.2776,11.0388,55.4786,-0.1757,-0.0192,0.0213,0.1735
17:32:36:516,0.041,0.9366,10.2617,55.8145,-0.0298,0.2406,0.0032,0.1722
17:32:36:535,-0.3314,0.8278,9.7689,55.9933,-0.2502,0.3716,-0.0266,0.169
17:32:36:554,-0.7467,0.814,9.7828,56.3362,-0.5632,0.2481,-0.0021,0.1633
17:32:36:575,-0.9124,0.8933,9.649,56.449,-0.6367,-0.0596,0.0884,0.1577
17:32:36:595,-0.5203,1.194,9.0275,56.6475,-0.4802,-0.2981,0.1693,0.1541
17:32:36:615,-0.263,1.4157,8.1546,56.2972,-0.2097,-0.4014,0.2065,0.1533
17:32:36:635,-0.0584,1.5238,7.1279,56.357,0.0341,-0.3577,0.2587,0.1547
17:32:36:655,0.2557,1.7797,6.3478,56.5511,0.1863,-0.2129,0.3141,0.157
17:32:36:675,0.5522,2.0391,6.0116,56.8653,0.2789,-0.0021,0.3726,0.1592
17:32:36:694,0.7618,2.1781,6.0762,57.1543,0.3694,0.1129,0.3769,0.1616
17:32:36:721,0.9273,2.5094,6.0306,57.3461,0.4291,0.1842,0.3556,0.1643
17:32:36:734,1.0657,2.9701,6.086,57.4113,0.3407,0.2906,0.3449,0.1661
17:32:36:754,1.3249,3.208,6.5078,57.442,0.083,0.4567,0.3588,0.1654
17:32:36:774,1.4294,2.9693,7.6911,57.4462,-0.1501,0.5866,0.3332,0.1617
17:32:36:794,1.597,2.9677,9.0708,57.6746,-0.2183,0.4951,0.2545,0.1573
17:32:36:815,1.7472,3.0785,9.9626,57.7918,-0.1373,0.2757,0.1246,0.1542
17:32:36:835,1.6618,3.4124,10.2334,57.8655,-0.0873,0.165,0.0043,0.1524
17:32:36:855,1.3706,3.9097,10.5996,57.8999,-0.1214,0.1884,-0.0234,0.1506
17:32:36:875,1.1992,3.9798,11.5253,58.0717,-0.1895,0.2161,0.0351,0.148
17:32:36:894,1.0957,3.6701,12.4501,58.0201,-0.1874,0.0287,0.0628,0.1458
17:32:36:915,1.3223,3.5366,12.7725,57.8734,-0.05,-0.3141,0.0522,0.1461
17:32:36:935,1.7196,3.8149,12.301,57.686,0.1842,-0.4865,0.0075,0.1495
17:32:36:955,1.9128,3.975,11.6377,57.7663,0.3929,-0.2598,0.0256,0.154
17:32:36:975,1.5016,3.0553,11.0946,57.5954,0.3875,0.1991,0.1086,0.157
17:32:36:994,0.9267,1.586,11.7286,57.8111,0.1214,0.5164,0.2704,0.1564
17:32:37:016,1.0332,0.6618,13.0774,57.9181,0.1235,0.2374,0.4024,0.1554
17:32:37:040,1.8186,0.2016,12.6228,57.8686,0.3769,-0.0405,0.3726,0.1578
17:32:37:055,2.2678,0.0099,10.9071,57.9073,0.5249,-0.1352,0.1693,0.1627
17:32:37:075,2.0236,0.4967,9.3984,57.7283,0.3471,-0.0596,-0.0447,0.1666
17:32:37:097,1.3247,0.7887,8.5759,57.5786,0.05,-0.0756,-0.066,0.168
17:32:37:115,1.3258,0.9384,8.0708,57.4556,-0.131,-0.2214,-0.016,0.168
17:32:37:135,1.7184,1.0425,7.3919,57.5691,-0.1586,-0.4141,-0.0681,0.1685
17:32:37:155,1.9628,0.9476,6.5975,57.7425,-0.1299,-0.5376,-0.2342,0.1699
17:32:37:175,1.9975,1.0099,6.0003,57.896,-0.0948,-0.4493,-0.4727,0.1715
17:32:37:196,1.5837,1.4464,5.9973,58.1569,-0.0096,-0.198,-0.6313,0.1726
17:32:37:215,1.039,1.9687,6.2329,58.1594,0.1501,-0.0245,-0.6164,0.1738
17:32:37:234,0.8317,2.5023,6.3178,58.2389,0.2864,0.0213,-0.4823,0.176
17:32:37:254,0.8416,2.9113,6.2808,58.0231,0.2364,0.1129,-0.3077,0.1779
17:32:37:274,1.1741,3.2576,6.9268,57.9501,-0.0011,0.1427,-0.181,0.1778
17:32:37:295,1.3801,3.1259,8.1601,58.1939,-0.2087,0.066,-0.1586,0.1759
17:32:37:315,1.175,3.0399,9.3013,57.9842,-0.2417,-0.0128,-0.1618,0.1738
17:32:37:334,0.8334,3.0645,10.0293,57.9876,-0.1267,-0.1033,-0.0756,0.1727
17:32:37:355,0.7696,2.9567,10.2068,58.0633,0.0415,-0.1586,0.0756,0.1734
17:32:37:374,1.2536,2.8728,10.0433,57.9106,0.1906,-0.1618,0.1565,0.1754
17:32:37:394,1.5765,2.9713,9.6715,57.9039,0.2672,-0.1022,0.1182,0.1781
17:32:37:415,1.5739,3.2035,9.3681,57.6176,0.2183,-0.0479,0.0405,0.1804
17:32:37:434,1.6034,3.791,9.2556,57.4783,0.1129,-0.0437,0.0043,0.1818
17:32:37:454,1.6594,4.2687,9.0989,57.2409,-0.1107,0.0043,0.0298,0.1815
17:32:37:474,1.6359,4.2749,9.6142,57.1472,-0.5259,0.0862,0.1118,0.1776
17:32:37:495,1.4458,3.3459,10.7768,56.9464,-0.9316,-0.0245,0.148,0.1704
17:32:37:516,1.0087,2.072,12.39,57.2171,-1.1051,-0.1405,0.1214,0.1615
17:32:37:535,0.4234,1.4232,13.712,57.2211,-0.7761,-0.1501,0.1054,0.1545
17:32:37:555,0.1067,0.5267,13.4959,57.2448,-0.2864,-0.0979,0.1522,0.1514
17:32:37:577,0.0699,-0.1714,12.6815,57.1089,-0.0192,0.0745,0.132,0.1504
17:32:37:595,-0.141,-0.2322,12.2292,57.178,0.0543,0.164,0.0043,0.15
17:32:37:615,-0.6683,0.1104,11.6117,57.1733,0.1065,0.0437,-0.0905,0.1504
17:32:37:634,-0.9449,0.7661,10.4421,56.9483,0.1959,-0.1491,-0.0767,0.1524
17:32:37:654,-0.9192,1.5778,9.0162,56.7394,0.2928,-0.2012,0.0426,0.1556
17:32:37:676,-0.5118,1.9328,7.6355,56.8125,0.3567,-0.1959,0.198,0.1594
17:32:37:695,0.0407,2.0087,6.5599,56.6478,0.3684,-0.2204,0.3002,0.1634
17:32:37:715,0.4226,2.0007,5.5974,56.2532,0.3386,-0.1618,0.3034,0.1672
17:32:37:734,0.5331,2.1509,5.2497,56.4021,0.2651,-0.0245,0.28,0.1698
17:32:37:754,0.5183,2.5486,5.3547,56.2753,0.2204,0.1224,0.3141,0.1711
17:32:37:775,0.6227,2.9329,5.736,56.0422,0.2545,0.2172,0.4152,0.172
17:32:37:795,1.0794,2.9483,6.0953,56.0171,0.296,0.2321,0.4887,0.1732
17:32:37:815,1.7672,2.8957,6.3187,55.9695,0.2534,0.2917,0.4727,0.174
17:32:37:835,2.2417,2.9352,6.8241,55.9011,0.05,0.3939,0.3897,0.1729
17:32:37:855,2.2568,3.0043,7.6287,55.7843,-0.2587,0.3034,0.2896,0.1697
17:32:37:875,2.2378,3.0808,8.687,55.8127,-0.5589,0.0575,0.1842,0.1649
17:32:37:895,2.2237,3.355,9.6962,55.5898,-0.6718,-0.1682,0.0596,0.16
17:32:37:915,2.1927,3.7289,10.4213,55.4516,-0.5951,-0.2417,-0.0224,0.1559
17:32:37:935,2.1965,3.8877,10.7704,55.4265,-0.4493,-0.083,-0.082,0.1525
17:32:37:957,1.9418,3.6917,11.2459,55.3395,-0.4184,0.1661,-0.1373,0.1484
17:32:37:975,1.6766,3.667,12.182,55.1361,-0.4897,0.1618,-0.164,0.1436
17:32:37:995,1.4721,3.7021,13.1611,55.2525,-0.4152,0.0128,-0.1501,0.1395
17:32:38:016,1.49,3.5784,13.6188,55.041,-0.1491,-0.0713,-0.1022,0.1378
17:32:38:035,1.383,2.8209,13.4362,54.8012,0.082,0.1416,-0.0245,0.1376
17:32:38:055,1.1264,1.5348,13.4144,54.8959,0.2268,0.3524,0.0958,0.1375
17:32:38:075,1.3154,0.4614,13.251,54.6972,0.4269,0.2928,0.2204,0.1388
17:32:38:095,1.9015,-0.1572,12.1691,54.5874,0.7229,0.1672,0.2172,0.1431
17:32:38:115,2.3066,-0.3872,10.3065,54.5568,0.8453,0.2225,0.083,0.149
17:32:38:134,2.0794,-0.1932,8.7564,54.7523,0.6186,0.3268,-0.0607,0.1534
17:32:38:155,1.6213,0.1105,7.9874,54.7044,0.2204,0.2108,-0.1384,0.1549
17:32:38:175,1.3556,0.2141,7.667,54.8557,-0.132,-0.1491,-0.1331,0.1547
17:32:38:195,1.5604,0.1512,7.3689,54.9508,-0.2992,-0.5174,-0.1799,0.1547
17:32:38:215,1.7757,0.203,6.8475,54.6409,-0.3077,-0.61,-0.2949,0.1552
17:32:38:234,1.8544,0.5518,6.6038,54.5631,-0.1991,-0.4919,-0.4503,0.1559
17:32:38:255,1.7609,1.3061,6.3719,54.4583,0.0341,-0.2076,-0.5781,0.1571
17:32:38:276,1.8732,2.6022,6.3108,54.4022,0.2949,0.1022,-0.6973,0.1591
17:32:38:295,2.2433,4.1167,6.5627,54.3898,0.5845,0.4567,-0.8528,0.1618
17:32:38:315,2.0917,4.8096,6.7004,54.335,0.8272,0.823,-0.9667,0.1651
17:32:38:334,1.6187,4.9935,6.6909,54.3622,0.7591,1.2052,-0.9688,0.167
17:32:38:356,0.7606,4.6428,7.9337,54.2587,0.2364,1.4873,-0.8049,0.1635
17:32:38:375,-0.1524,3.7229,10.4359,53.9058,-0.2736,1.0391,-0.5653,0.1562
17:32:38:395,-0.3649,2.8921,12.6971,53.7481,-0.3034,0.0639,-0.3886,0.1516
17:32:38:415,-0.0613,2.228,12.8331,53.5912,0.132,-0.7453,-0.3386,0.1541
17:32:38:436,0.395,2.1969,11.2312,53.4513,0.6654,-1.0849,-0.4024,0.1634
17:32:38:454,0.4184,2.9182,9.4619,53.4356,1.0146,-0.7325,-0.4024,0.1754
17:32:38:475,0.087,3.4205,8.2626,53.4457,1.1615,-0.2129,-0.2651,0.1869
17:32:38:495,-0.1324,3.8399,7.587,53.3079,1.0476,0.0862,-0.0617,0.1964
17:32:38:516,-0.1214,4.3667,7.2083,53.1033,0.6665,0.1416,0.1214,0.2026
17:32:38:536,0.0139,4.7473,7.3554,53.1751,0.1597,-0.017,0.2044,0.2049
17:32:38:555,0.0968,4.9304,7.9145,53.0741,-0.3407,-0.1959,0.2502,0.2036
17:32:38:575,-0.144,4.5687,8.6691,52.7397,-0.8315,-0.3481,0.3662,0.1988
17:32:38:595,-0.243,3.4171,9.8072,53.0241,-1.1615,-0.6292,0.5217,0.1918
17:32:38:615,-0.1035,2.3195,10.7113,53.0298,-1.1392,-0.7069,0.6218,0.1849
17:32:38:635,0.1828,1.5662,10.9197,53.0608,-0.9326,-0.5675,0.6888,0.1791
17:32:38:655,0.7191,0.8437,10.7361,53.27,-0.8389,-0.2385,0.7208,0.1731
17:32:38:675,1.2641,-0.0487,11.1246,53.2793,-0.9422,0.1618,0.626,0.1647
17:32:38:695,1.2692,-0.914,11.7802,53.2675,-0.9582,0.3673,0.378,0.1546
17:32:38:717,0.8675,-1.2639,11.9948,53.2895,-0.7261,0.4131,0.0394,0.1456
17:32:38:735,0.3597,-0.8462,11.304,52.8326,-0.2278,0.3907,-0.263,0.1405
17:32:38:755,0.0939,0.0474,9.952,52.7283,0.3183,0.3992,-0.4503,0.1402
17:32:38:775,-0.082,1.1205,8.2273,52.5567,0.7197,0.3332,-0.5621,0.144
17:32:38:794,-0.4642,1.7437,6.6317,52.3622,0.8453,0.2853,-0.5547,0.1498
17:32:38:815,-0.6854,2.3881,5.5464,52.5478,0.7687,0.231,-0.4599,0.1557
17:32:38:835,-0.6185,3.205,5.1074,52.5629,0.5898,0.2002,-0.28,0.1603
17:32:38:855,-0.4853,3.6895,5.0944,52.7943,0.3854,0.2246,-0.0724,0.1631
17:32:38:875,0.0013,3.8826,5.5087,53.0278,0.1757,0.1767,0.0756,0.1642
17:32:38:894,0.473,3.726,6.3344,52.9352,0.05,0.2417,0.1097,0.164
17:32:38:915,0.7964,3.6015,7.362,52.941,-0.0373,0.4695,0.0394,0.1621
17:32:38:935,0.9269,3.4369,9.3989,52.8578,-0.1416,0.6569,-0.0479,0.1581
17:32:38:955,0.8623,3.1898,12.5813,52.5371,0.115,0.4173,-0.1874,0.1557
17:32:38:975,0.7112,3.0779,13.3093,52.4171,0.7857,-0.2353,-0.3716,0.1611
17:32:38:995,0.8387,3.8201,11.9566,52.2767,1.2222,-0.6143,-0.5153,0.1733
17:32:39:015,0.888,5.165,10.2013,52.3816,1.2744,-0.9135,-0.6558,0.188
17:32:39:035,0.4664,6.3501,9.0252,52.0275,1.0157,-0.8528,-0.6558,0.2013
17:32:39:055,-0.0673,6.8423,8.9062,52.1232,0.5919,-0.5281,-0.5121,0.2098
17:32:39:074,-0.1795,6.9382,9.6064,51.764,0.4003,-0.2789,-0.3364,0.2148
17:32:39:094,0.2113,6.904,9.8043,51.7846,0.4259,-0.198,-0.2044,0.2194
17:32:39:115,0.345,6.1341,9.4435,51.7416,0.2161,-0.0735,-0.1022,0.2223
17:32:39:134,0.3722,4.8753,10.2778,51.8519,-0.2076,-0.0724,0.0894,0.2216
17:32:39:154,1.0154,3.2831,11.7783,52.0948,-0.2502,-0.2726,0.2726,0.2201
17:32:39:174,1.8456,2.1117,11.951,51.9592,0.1459,-0.4035,0.2513,0.2221
17:32:39:195,2.222,1.836,10.6144,51.8946,0.3524,-0.3247,0.0405,0.2265
17:32:39:215,1.4868,2.0713,9.0448,51.9829,-0.016,-0.2342,-0.1927,0.2284
17:32:39:234,0.341,2.2102,8.3821,52.1294,-0.7346,-0.1757,-0.0916,0.2243
17:32:39:254,-0.0659,2.1018,8.7789,52.241,-1.2233,-0.3716,0.1459,0.2156
17:32:39:274,0.1442,1.742,8.664,52.2989,-1.3872,-0.7655,0.2555,0.2064
17:32:39:295,0.464,1.469,7.8567,52.4028,-1.367,-1.2701,0.1789,0.1991
17:32:39:315,0.8749,1.5641,6.9397,52.3418,-1.202,-1.6044,0.016,0.195
17:32:39:335,1.4117,2.3914,6.7884,52.5317,-1.0859,-1.5767,-0.264,0.1918
17:32:39:354,1.905,3.0692,6.7047,52.6516,-0.8645,-1.4405,-0.5238,0.1902
17:32:39:374,2.0303,3.5818,6.7751,52.7597,-0.5866,-0.9145,-0.6643,0.1887
17:32:39:394,1.9783,3.927,6.9359,52.8005,-0.2566,-0.3716,-0.6771,0.1879
17:32:39:415,1.5989,3.8737,7.2235,52.7688,-0.1033,0.2651,-0.5376,0.1865
17:32:39:434,1.6739,3.727,8.3712,52.5275,-0.0245,0.6324,-0.3162,0.1839
17:32:39:454,1.7987,3.3342,9.5378,52.2767,0.247,0.7772,-0.1459,0.1824
17:32:39:475,1.7267,2.8658,10.0767,52.0873,0.658,0.7623,-0.0394,0.1844
17:32:39:494,1.5754,2.7225,9.7601,51.9984,0.9231,0.5515,0.0138,0.1899
17:32:39:516,1.5959,2.9054,9.5372,52.2002,0.8858,0.2896,0.099,0.1968
17:32:39:535,1.5507,2.8372,9.4846,52.2138,0.824,0.1001,0.1778,0.2038
17:32:39:554,1.3528,2.8503,9.1566,52.4855,0.6878,0.0043,0.2704,0.2101
17:32:39:575,1.4006,3.0086,9.0694,52.5159,0.5217,-0.0458,0.3748,0.2151
17:32:39:595,1.47,3.2646,9.0138,52.4541,0.4493,0.0053,0.4503,0.2191
17:32:39:615,1.474,3.8658,8.9066,52.0726,0.362,0.1778,0.4535,0.2218
17:32:39:635,0.7347,3.9753,9.1981,52.1046,0.1874,0.3705,0.4716,0.2224
17:32:39:655,-0.2341,3.358,9.8645,51.8285,-0.0607,0.2576,0.6526,0.2209
17:32:39:676,-0.4818,2.4096,10.5108,51.5301,-0.2938,-0.3002,0.9284,0.2191
17:32:39:696,0.1727,1.676,11.2187,51.561,-0.4067,-0.9273,1.1285,0.2185
17:32:39:716,1.1744,1.1279,11.1646,51.5208,-0.4674,-1.3053,1.1402,0.2193
17:32:39:735,1.6075,0.5849,10.9885,51.5899,-0.6196,-1.6598,0.9422,0.2208
17:32:39:755,1.7359,0.3659,10.6419,51.5953,-0.7538,-1.8248,0.6878,0.222
17:32:39:775,1.6077,0.5177,10.1856,51.7638,-0.8187,-1.7247,0.5036,0.2222
17:32:39:795,1.5092,0.7264,9.7383,51.5449,-0.6952,-1.4202,0.4365,0.222
17:32:39:816,1.5624,1.0858,9.0337,51.5816,-0.2438,-0.9752,0.4599,0.2222
17:32:39:834,1.6909,1.4943,7.912,51.5534,0.3822,-0.3716,0.5653,0.2245
17:32:39:854,1.9358,1.6633,7.1266,51.3603,0.9358,0.4376,0.7048,0.2285
17:32:39:875,2.4005,1.6934,5.9243,51.0895,1.3862,1.2094,0.7282,0.2323
17:32:39:895,2.6554,2.2771,4.5914,51.1119,1.3148,1.2222,0.5919,0.2374
17:32:39:915,2.797,3.1259,3.7639,51.1958,0.8794,1.1317,0.5142,0.2402
17:32:39:934,3.0069,3.9283,3.3251,50.8164,0.2161,1.1413,0.5078,0.2381
17:32:39:955,3.2517,3.6251,3.9978,50.6828,-0.543,1.1381,0.4855,0.2295
17:32:39:975,3.3949,3.3374,5.6377,50.608,-1.1094,0.9167,0.4205,0.2164
17:32:39:995,3.7109,2.777,7.0199,50.4889,-1.3308,0.6771,0.329,0.2018
17:32:40:015,3.9728,2.5115,8.5483,50.0946,-1.2531,0.8538,0.1831,0.1867
17:32:40:034,3.9417,2.5634,10.3011,50.0435,-0.9316,0.9688,0.0596,0.1729
17:32:40:056,3.1423,2.3829,11.6799,49.8415,-0.2587,1.1062,-0.0351,0.163
17:32:40:075,3.7541,3.321,12.1998,49.5357,-0.0564,0.8677,-0.0075,0.1577
17:32:40:095,3.6887,3.0719,13.5979,49.4312,-0.2555,0.6207,0.1107,0.1525
17:32:40:115,3.4944,2.3125,15.2009,49.129,-0.1693,0.1863,0.0298,0.1491
17:32:40:135,3.4744,2.4768,15.1858,48.9523,0.1757,-0.378,-0.1491,0.1511
17:32:40:156,3.4463,2.9532,13.8027,48.7578,0.3503,-0.5675,-0.2619,0.1569
17:32:40:175,3.1803,2.6546,12.9848,48.6091,0.4014,-0.3226,-0.2545,0.1623
17:32:40:195,2.8565,1.9292,12.9019,48.7512,0.6335,-0.1001,-0.1491,0.1676
17:32:40:215,2.9192,1.72,12.2491,48.7232,1.0157,0.017,-0.0426,0.1753
17:32:40:234,3.33,2.0607,10.9402,48.768,1.2233,0.0639,-0.0106,0.1849
17:32:40:254,3.4024,2.1886,9.2974,48.8471,1.0668,-0.0873,-0.0032,0.1947
17:32:40:275,3.207,2.0487,8.1361,48.6168,0.5877,-0.2236,-0.0011,0.2019
17:32:40:295,2.9111,1.6859,7.7269,48.5014,0.132,-0.3311,0.0277,0.2056
17:32:40:315,3.1092,1.448,7.8806,48.4377,-0.0106,-0.1522,0.0064,0.2066
17:32:40:337,2.9632,1.1232,7.88,48.3759,0.1235,-0.0979,-0.0522,0.2077
17:32:40:355,2.6529,1.0501,7.7685,48.465,0.609,-0.5153,-0.2395,0.2137
17:32:40:375,2.3782,0.9432,7.1011,48.8119,1.054,-0.6228,-0.3237,0.2247
17:32:40:395,2.5177,1.6949,6.5239,48.6907,1.3904,-0.1799,-0.5302,0.2373
17:32:40:415,2.5252,3.0591,5.6328,48.8618,1.3127,0.4908,-0.8017,0.2477
17:32:40:436,2.0501,4.0176,5.8116,48.579,0.9305,0.8602,-0.8315,0.2528
17:32:40:454,1.781,4.3182,6.3507,48.4727,0.6058,0.4748,-0.6079,0.2559
17:32:40:475,1.8824,4.3228,6.8753,48.3401,0.329,0.1107,-0.4227,0.2584
17:32:40:495,1.8749,4.076,7.2916,47.9179,0.2204,-0.0649,-0.2704,0.2605
17:32:40:516,1.8976,3.9241,7.3313,47.696,0.2406,-0.1214,-0.1075,0.263
17:32:40:535,2.301,4.1378,7.3714,47.7651,0.3109,0.0075,-0.0277,0.2656
17:32:40:555,2.3141,4.2973,7.6458,47.8398,0.3726,0.2811,-0.0192,0.2676
17:32:40:575,2.1529,4.3647,8.0628,47.5926,0.4482,0.5004,0.0106,0.2691
17:32:40:595,2.0542,4.3809,8.447,47.5785,0.5015,0.5004,0.0373,0.2707
17:32:40:615,2.1294,4.6858,8.4581,47.4018,0.4897,0.412,0.0128,0.2729
17:32:40:635,2.0119,5.2623,8.4178,47.1011,0.3386,0.3545,-0.0224,0.2743
17:32:40:655,1.8455,5.8726,8.6336,47.2369,0.0767,0.3002,-0.0373,0.2741
17:32:40:675,1.5969,6.433,9.1979,47.1443,-0.2619,0.2055,-0.0117,0.2715
17:32:40:694,0.9255,6.0532,10.1312,47.0045,-0.6047,0.0767,0.0916,0.2666
17:32:40:716,0.4728,4.47,11.5516,46.8671,-0.7484,-0.132,0.313,0.2608
17:32:40:742,1.1026,3.5507,12.2424,46.7377,-0.4876,-0.198,0.4844,0.2568
17:32:40:755,1.7208,2.7993,11.2945,46.5487,-0.1395,-0.099,0.4003,0.2557
17:32:40:775,1.7785,2.1293,9.9609,46.6589,-0.1065,0.1416,0.214,0.2546
17:32:40:794,1.4791,1.8934,9.1408,46.6023,-0.2151,0.4259,-0.0894,0.2513
17:32:40:816,0.887,2.0391,8.7928,46.3037,-0.2321,0.724,-0.3322,0.246
17:32:40:835,0.1778,2.5189,8.9443,45.9709,-0.0713,1.0029,-0.378,0.2403
17:32:40:855,-0.1481,3.0368,8.5787,45.61,0.2183,1.0104,-0.296,0.2365
17:32:40:874,-0.0614,3.3978,7.5563,45.5941,0.3567,0.8049,-0.2204,0.235
17:32:40:894,0.1164,3.5014,6.5685,45.4062,0.2917,0.5632,-0.1874,0.2345
17:32:40:915,-0.0024,3.6475,6.374,45.2999,0.2044,0.379,-0.1299,0.234
17:32:40:935,0.0844,3.7533,6.3839,45.3442,0.3066,0.2342,-0.0841,0.2349
17:32:40:955,0.2147,4.0906,5.9922,45.8473,0.4269,0.1395,-0.0852,0.2375
17:32:40:974,0.2758,4.6162,5.7368,45.5949,0.3875,0.1118,-0.0767,0.2402
17:32:40:994,0.1551,4.9909,5.6446,45.5409,0.2587,0.0575,-0.0256,0.2422
17:32:41:015,0.0799,4.763,6.1289,45.41,0.1118,0.0916,0.0926,0.243
17:32:41:035,0.3527,4.669,6.6952,45.2272,0.0596,0.1373,0.099,0.243
17:32:41:055,0.5345,4.9701,7.2711,44.9236,0.0692,0.2811,-0.0234,0.2424
17:32:41:074,0.2001,5.4171,7.9768,44.8048,0.1129,0.4173,-0.1491,0.2412
17:32:41:094,-0.1563,5.8503,8.5408,44.5962,0.2151,0.3992,-0.1501,0.2406
17:32:41:115,-0.314,6.381,8.5161,44.2645,0.3471,0.3822,-0.0777,0.2414
17:32:41:135,-0.3676,6.6042,8.3105,44.3378,0.3226,0.5078,0.0649,0.242
17:32:41:155,-0.402,6.3403,8.6753,44.112,0.1427,0.4993,0.231,0.2412
17:32:41:175,-0.2084,6.0121,9.4777,44.0102,-0.0522,0.2992,0.3237,0.2394
17:32:41:198,0.3316,5.8737,9.9721,44.114,-0.0287,-0.0841,0.28,0.2391
17:32:41:216,0.8356,6.1139,9.5937,43.8988,0.0202,-0.3002,0.1831,0.2406
17:32:41:235,0.8615,5.8838,9.1936,43.7131,-0.2545,-0.1097,0.2576,0.2403
17:32:41:255,0.6816,4.9913,9.9543,43.5145,-0.6409,0.0437,0.3428,0.2357
17:32:41:274,0.6604,4.0724,10.9353,43.4089,-0.7793,0.033,0.3865,0.2295
17:32:41:297,0.8696,3.4944,11.0968,43.3765,-0.6601,0.016,0.3662,0.2239
17:32:41:315,1.0486,3.1222,10.5517,43.0725,-0.4344,0.0149,0.2076,0.22
17:32:41:335,0.9396,2.7987,9.6652,42.8067,-0.2875,-0.0373,0.0319,0.2176
17:32:41:354,0.8111,2.7342,8.8841,42.8465,-0.3364,-0.0373,-0.0873,0.2151
17:32:41:374,0.7453,2.6384,8.4259,42.6181,-0.494,0.016,-0.1927,0.2111
17:32:41:395,0.2372,2.457,8.1905,42.5331,-0.5451,0.0309,-0.263,0.2061
17:32:41:416,-0.1757,2.3483,7.6756,42.5441,-0.4173,-0.148,-0.2694,0.2026
17:32:41:434,-0.0801,2.4799,6.754,42.3664,-0.3056,-0.2757,-0.231,0.201
17:32:41:455,0.6221,3.0583,5.9825,42.265,-0.3982,-0.0681,-0.2023,0.1988
17:32:41:474,0.8296,3.5279,6.7197,42.3568,-0.4259,0.2832,-0.2236,0.194
17:32:41:495,0.3052,3.5632,7.697,42.1624,-0.1033,0.3971,-0.2076,0.1904
17:32:41:517,0.1491,3.7521,7.8322,42.0308,0.1735,0.2864,-0.0703,0.1898
17:32:41:535,0.4054,3.9244,7.6124,41.759,0.1235,0.1192,0.0149,0.1901
17:32:41:555,0.5521,3.7158,7.63,41.6883,-0.1192,-0.0309,0.0373,0.1895
17:32:41:577,0.5261,3.6101,8.3584,41.504,-0.2438,-0.0852,0.0192,0.1879
17:32:41:595,0.4923,3.8324,9.0283,41.633,-0.0617,-0.0437,-0.0138,0.1872
17:32:41:615,0.3839,4.1049,9.219,41.7574,0.1693,0.0894,-0.0085,0.188
17:32:41:635,0.2879,4.0995,9.2242,41.6693,0.2694,0.132,0.017,0.1895
17:32:41:655,0.3761,4.1751,9.4346,41.4871,0.2981,0.0969,-0.0341,0.1913
17:32:41:677,0.0221,4.3053,9.8151,41.4927,0.4078,0.0979,-0.1405,0.1938
17:32:41:695,-0.404,4.432,9.8394,41.1655,0.5068,0.083,-0.1288,0.1973
17:32:41:715,-0.2401,5.0501,9.6316,40.9754,0.5004,-0.0383,-0.1267,0.2015
17:32:41:734,-0.3279,5.5669,9.3268,40.7708,0.3737,-0.1192,-0.1799,0.2053
17:32:41:755,-0.857,5.5504,9.396,40.6487,0.1086,-0.0277,-0.1491,0.2068
17:32:41:776,-1.7334,5.4122,9.911,40.3491,-0.2161,-0.0106,0.0532,0.2055
17:32:41:795,-1.7841,5.0967,10.0688,40.2916,-0.4653,-0.3418,0.3503,0.2033
17:32:41:815,-0.8949,4.5919,9.8361,39.8809,-0.5877,-0.6164,0.4834,0.2016
17:32:41:835,-0.309,3.7743,9.658,39.8047,-0.4578,-0.494,0.5036,0.2005
17:32:41:854,0.0125,3.1312,9.2567,39.7556,-0.1427,-0.0192,0.5515,0.2
17:32:41:875,0.0243,2.5231,8.9992,39.5519,0.0852,0.5994,0.626,0.1985
17:32:41:895,0.129,1.9785,8.9896,39.612,0.1278,0.9007,0.5866,0.1957
17:32:41:915,-0.0525,1.6077,8.9757,39.3733,0.0234,0.8453,0.4035,0.1918
17:32:41:935,-0.0793,1.7456,9.0865,39.2532,-0.0479,0.5909,0.1778,0.1879
17:32:41:954,-0.2212,2.4463,9.0188,38.9682,0.1022,0.2906,0.0128,0.1864
17:32:41:974,-0.3306,3.1171,8.3818,38.9734,0.3758,0.0873,0.0053,0.1882
17:32:41:995,-0.2286,3.5564,7.3816,38.8588,0.5856,0.0575,0.0649,0.1924
17:32:42:015,-0.0903,3.8007,6.6379,38.8172,0.6707,0.132,0.115,0.1974
17:32:42:035,0.0443,4.0406,6.1181,38.7739,0.6239,0.2566,0.115,0.2016
17:32:42:057,0.0093,4.3652,6.019,39.0686,0.4429,0.3524,0.0937,0.2039
17:32:42:075,-0.1228,4.5086,6.3673,38.7969,0.2651,0.3194,0.082,0.2045
17:32:42:095,-0.1721,4.4923,6.6706,38.7041,0.1852,0.2427,0.082,0.2047
17:32:42:115,-0.1213,4.5703,6.9399,38.7875,0.1831,0.2129,0.0543,0.2051
17:32:42:134,-0.2511,4.7091,7.2745,38.6561,0.1672,0.3386,-0.0277,0.2049
17:32:42:155,-0.424,4.9267,7.9578,38.5269,0.1821,0.4088,-0.1118,0.2041
17:32:42:175,-0.6073,5.3761,8.5638,38.7504,0.2513,0.3513,-0.164,0.2037
17:32:42:195,-0.7804,5.6855,8.8832,38.5678,0.313,0.2012,-0.1991,0.2046
17:32:42:215,-1.0055,6.0048,8.9111,38.3586,0.3141,0.0032,-0.181,0.2065
17:32:42:234,-1.2983,5.8973,8.5751,38.2783,0.0522,-0.1267,-0.1214,0.2077
17:32:42:254,-1.2775,5.9053,9.4915,37.8413,-0.6175,-0.1842,-0.0777,0.2043
17:32:42:275,-0.8694,6.1424,11.8005,37.7157,-0.9646,-0.6654,-0.1288,0.1989
17:32:42:295,-0.7226,5.5534,12.8577,37.9748,-0.6526,-1.2904,-0.1427,0.1984
17:32:42:315,-0.1921,4.7192,11.9428,38.0091,-0.1384,-1.5576,-0.0522,0.2045
17:32:42:334,0.6119,4.0514,10.6059,38.082,0.2002,-1.2393,0.0287,0.213
17:32:42:355,1.0657,3.4652,9.6481,38.0469,0.3811,-0.6281,0.0319,0.2202
17:32:42:375,1.1935,3.2353,9.099,37.8708,0.4897,-0.1501,-0.0373,0.2255
17:32:42:395,1.2072,3.9051,8.4564,37.5059,0.5813,0.0298,-0.0958,0.2303
17:32:42:415,0.869,3.9381,7.2388,37.4939,0.3982,0.3109,-0.0798,0.233
17:32:42:436,0.6446,3.5827,6.8971,37.7397,-0.1693,0.5313,-0.0607,0.2301
17:32:42:455,0.4818,3.0819,7.7561,37.6676,-0.7304,0.4429,-0.1448,0.2221
17:32:42:475,0.4162,2.8256,8.7757,37.6863,-0.8666,0.1097,-0.2704,0.2135
17:32:42:495,0.241,2.6234,9.1308,37.903,-0.5323,-0.2885,-0.4227,0.2086
17:32:42:519,-0.0066,2.4656,8.3338,38.0723,0.0021,-0.5856,-0.5504,0.2099
17:32:42:536,-0.0926,2.731,7.0813,38.3545,0.3961,-0.6888,-0.6164,0.2151
17:32:42:555,-0.176,3.2886,6.077,38.275,0.6037,-0.6281,-0.56,0.2227
17:32:42:575,-0.0661,3.8577,5.2876,38.45,0.642,-0.511,-0.4035,0.2305
17:32:42:594,0.1102,4.1736,4.7056,38.163,0.4993,-0.3354,-0.247,0.2368
17:32:42:615,0.0721,4.1068,4.6449,38.2483,0.0979,-0.0926,-0.0979,0.2391
17:32:42:635,-0.3184,3.765,5.6303,38.0658,-0.6175,0.0181,0.0703,0.2353
17:32:42:655,-0.4323,3.6673,8.0135,37.8635,-1.5384,-0.6739,0.363,0.226
17:32:42:675,0.4683,3.5979,10.7673,38.0421,-1.9387,-1.9909,0.5888,0.2183
17:32:42:695,1.8759,3.3647,11.9806,37.9291,-1.3404,-2.9778,0.6175,0.2194
17:32:42:717,2.8909,3.0857,10.5566,38.0098,-0.3503,-3.0854,0.3588,0.23
17:32:42:750,3.4534,4.1346,8.7264,38.1429,0.3503,-2.4381,0.0373,0.2443
17:32:42:754,3.7926,5.8727,7.4489,38.5151,0.659,-1.3436,-0.131,0.257
17:32:42:774,3.641,7.1282,7.0485,38.5761,0.6633,-0.1235,-0.2257,0.2643
17:32:42:794,3.1686,7.7652,7.2703,38.5416,0.5387,0.8081,-0.2481,0.2664
17:32:42:815,2.7187,7.7024,7.9144,38.4373,0.2129,1.4075,-0.231,0.2631
17:32:42:835,1.9253,7.2665,9.3447,38.1058,-0.2129,1.6183,-0.1746,0.2548
17:32:42:855,1.0162,6.4664,10.8886,37.7464,-0.4354,1.2829,0.0106,0.2449
17:32:42:875,0.5255,4.926,11.4308,37.7716,-0.5696,0.5919,0.2715,0.2366
17:32:42:894,0.7229,3.5247,11.4019,37.6971,-0.6718,-0.0213,0.4408,0.2306
17:32:42:915,1.1007,2.427,11.3386,37.6404,-0.6239,-0.2768,0.5504,0.2262
17:32:42:934,1.6119,1.5956,11.1013,37.7884,-0.4472,-0.1565,0.6047,0.223
17:32:42:954,1.9281,0.9511,10.6672,37.6104,-0.2875,0.1522,0.5185,0.2197
17:32:42:974,1.8151,0.5619,10.1928,37.8295,-0.1948,0.3428,0.33,0.2162
17:32:42:994,1.745,0.6909,9.7233,37.8463,-0.0916,0.3258,0.0649,0.2134
17:32:43:015,1.5266,1.2053,8.8832,37.8778,0.1416,0.0884,-0.2183,0.2133
17:32:43:035,1.3675,1.8732,7.4758,37.8623,0.363,-0.1043,-0.3609,0.2162
17:32:43:055,1.2639,2.467,6.1891,38.0868,0.4461,-0.1363,-0.3705,0.2206
17:32:43:074,0.904,2.8205,5.2522,37.9983,0.4322,-0.0362,-0.3215,0.2247
17:32:43:094,0.3547,3.4833,4.6023,38.0717,0.3375,0.0948,-0.1852,0.2274
17:32:43:115,-0.0766,4.4127,3.9496,38.0306,0.1416,0.2172,0.0756,0.2282
17:32:43:135,-0.1666,3.9036,3.7989,37.8474,-0.1852,0.4376,0.4365,0.2255
17:32:43:155,0.487,3.7698,4.8438,37.5605,-0.527,0.4365,0.6846,0.2195
17:32:43:175,1.1903,3.4327,6.2441,37.75,-0.8102,0.3215,0.691,0.2114
17:32:43:196,1.7618,3.4415,7.9275,37.7667,-0.9986,-0.0032,0.4929,0.2029
17:32:43:215,2.0679,3.9349,9.4777,37.6551,-0.9827,-0.3332,0.2012,0.1959
17:32:43:235,1.8063,3.7359,10.5879,37.8154,-0.8155,-0.4557,-0.0681,0.191
17:32:43:255,1.5661,3.7198,11.3411,37.4453,-0.5164,-0.5643,-0.1672,0.1887
17:32:43:274,1.6671,4.0599,11.4952,37.2312,-0.2002,-0.5877,-0.1352,0.1893
17:32:43:296,2.0346,4.5527,11.3309,37.1292,-0.0777,-0.5941,-0.0479,0.1915
17:32:43:316,2.6355,4.7606,11.5167,37.063,-0.1075,-0.5802,-0.0245,0.1936
17:32:43:335,3.2984,4.4144,12.1069,36.9077,-0.0426,-0.5249,-0.0894,0.1958
17:32:43:354,3.8659,4.2448,12.4894,36.7622,0.1831,-0.3641,-0.2587,0.1989
17:32:43:374,3.2797,3.496,12.1668,36.6483,0.3066,0.0277,-0.2694,0.2019
17:32:43:396,2.4517,2.0006,12.6547,36.5793,0.1129,0.3226,-0.0468,0.2019
17:32:43:416,2.4856,0.7723,13.7645,36.8235,0.0798,0.2747,0.2332,0.2008
17:32:43:435,3.0071,0.2298,13.6115,36.9155,0.4855,-0.1725,0.2555,0.2039
17:32:43:455,3.9047,0.6844,11.3972,37.0352,0.8613,-0.5888,0.0948,0.2127
17:32:43:474,3.769,1.8971,8.5799,37.2162,0.7836,-0.5366,-0.1214,0.2228
17:32:43:494,3.1548,2.2363,6.7985,37.23,0.2555,-0.0351,-0.1065,0.2271
17:32:43:516,2.8123,1.9855,6.5053,37.499,-0.4088,0.2491,-0.1129,0.2243
17:32:43:535,2.5736,1.6425,7.0709,37.553,-0.7942,0.4046,-0.2012,0.2165
17:32:43:554,2.1045,1.415,7.682,37.6365,-0.692,0.4961,-0.3875,0.208
17:32:43:574,1.3019,1.3266,7.719,37.4878,-0.2257,0.5004,-0.577,0.2026
17:32:43:595,0.7254,1.6672,7.0487,37.2706,0.1938,0.3662,-0.6409,0.2017
17:32:43:615,0.5033,2.1011,6.4298,37.3085,0.3652,0.1341,-0.5504,0.2038
17:32:43:634,0.4756,2.3174,5.9016,37.2549,0.4461,-0.148,-0.4418,0.208
17:32:43:654,2.3519,2.6314,5.6189,37.2502,0.4834,-0.2268,-0.3641,0.2133
17:32:43:677,1.0731,2.5914,5.2716,37.704,0.4003,0.1097,-0.4397,0.217
17:32:43:695,1.3544,2.7435,5.6168,37.7192,0.1608,0.3332,-0.3961,0.2176
17:32:43:715,1.2871,2.9561,6.6795,37.5384,-0.0543,0.4983,-0.3737,0.2155
17:32:43:734,1.1703,3.6042,8.072,37.4323,-0.0841,0.6239,-0.3013,0.2119
17:32:43:754,1.0003,4.1389,9.1367,37.4229,0.1214,0.5249,-0.2012,0.2098
17:32:43:776,0.8018,4.3144,9.3457,37.5844,0.3226,0.2938,-0.0586,0.2106
17:32:43:795,0.8583,4.5116,9.1094,37.4923,0.3567,0.1001,0.0916,0.213
17:32:43:816,1.1093,4.9065,9.0466,37.5703,0.23,-0.0298,0.1948,0.2153
17:32:43:835,1.4179,5.0937,8.9709,37.4538,0.0671,-0.0596,0.2364,0.2165
17:32:43:854,1.6475,5.2849,9.092,37.2669,-0.2012,0.0628,0.1916,0.2153
17:32:43:875,1.5332,5.5625,10.1031,37.0728,-0.4621,0.3545,0.1118,0.2105
17:32:43:895,1.1022,5.4695,11.4322,37.3179,-0.6196,0.544,0.1054,0.2031
17:32:43:915,0.4404,4.7406,12.6102,37.0401,-0.6324,0.3929,0.2065,0.1954
17:32:43:934,0.2105,3.3417,12.8874,36.9726,-0.5408,-0.1533,0.3556,0.1904
17:32:43:954,0.6766,2.2945,12.3854,37.2083,-0.2896,-0.5579,0.4525,0.1895
17:32:43:974,1.1218,1.6935,11.2614,37.2884,-0.1299,-0.6196,0.4929,0.1911
17:32:43:994,1.1952,0.9746,10.1703,37.4682,-0.2214,-0.544,0.494,0.1922
17:32:44:016,1.2529,0.6938,9.793,37.7453,-0.4546,-0.3311,0.4429,0.1907
17:32:44:035,1.1414,0.6864,10.0619,37.9823,-0.593,-0.1522,0.2949,0.1866
17:32:44:057,0.8001,0.9918,10.1222,37.8594,-0.4024,-0.1129,0.1288,0.1831
17:32:44:075,0.5427,1.5994,9.5098,37.8784,0.0373,-0.1278,0.0522,0.1828
17:32:44:095,0.32,1.9802,8.2609,37.9775,0.4397,-0.1129,0.0511,0.1863
17:32:44:115,0.2737,2.5685,7.0476,37.7872,0.643,0.0181,0.1437,0.1914
17:32:44:135,0.086,2.5227,6.4921,37.5415,0.7985,0.2268,0.2757,0.1967
17:32:44:156,0.1084,2.2602,6.2074,37.7165,1.0519,0.3247,0.3599,0.2032
17:32:44:175,0.3307,2.5002,5.6721,37.7691,1.2627,0.379,0.4301,0.2114
17:32:44:195,0.8217,3.3114,5.2736,37.8311,1.2765,0.3758,0.4887,0.2201
17:32:44:215,1.3101,4.2073,4.944,37.766,1.0274,0.2513,0.5345,0.2278
17:32:44:235,1.8922,4.8491,4.9938,38.102,0.5419,0.066,0.5419,0.2328
17:32:44:255,2.444,4.8292,5.7401,37.8994,0.0447,-0.0649,0.4567,0.2344
17:32:44:275,2.7613,4.3853,6.9472,38.0666,-0.2619,-0.0362,0.2502,0.2332
17:32:44:295,2.7056,4.5142,8.1613,37.9332,-0.3673,0.0575,0.0287,0.2302
17:32:44:315,2.5418,4.8142,9.3452,37.845,-0.3279,0.0852,-0.1065,0.2269
17:32:44:335,2.4823,5.1441,10.1184,37.7784,-0.2545,0.0426,-0.1416,0.2243
17:32:44:355,2.3995,5.3373,10.6184,37.6212,-0.3002,0.0277,-0.0979,0.2219
17:32:44:375,2.5543,5.2544,11.3861,37.4509,-0.4046,-0.1065,-0.0277,0.219
17:32:44:395,3.2106,5.2876,12.0535,37.5163,-0.346,-0.2747,-0.0926,0.2172
17:32:44:415,3.5689,5.1961,11.9632,37.8321,-0.1703,-0.3428,-0.2768,0.2172
17:32:44:438,3.1217,4.5855,11.376,37.9993,-0.1427,-0.2214,-0.3758,0.2175
17:32:44:456,2.7184,3.5904,11.5408,38.0697,-0.2534,-0.1501,-0.3056,0.2165
17:32:44:475,2.9508,2.7794,11.769,38.083,-0.2268,-0.2055,-0.1789,0.2155
17:32:44:495,3.4565,2.3504,11.2432,38.149,-0.0873,-0.1789,-0.1352,0.2155
17:32:44:516,3.3344,2.048,10.3513,38.0236,-0.1139,-0.1171,-0.1863,0.2153
17:32:44:536,2.7506,1.7547,9.4794,38.0381,-0.3567,-0.2076,-0.2087,0.214
17:32:44:555,2.2392,1.3288,8.8695,38.1211,-0.7474,-0.4056,-0.1597,0.2105
17:32:44:575,2.0715,1.0392,8.5892,38.2776,-1.0423,-0.6271,-0.1437,0.2054
17:32:44:595,2.1081,0.9227,8.2681,38.5686,-1.0849,-0.7836,-0.2193,0.2002
17:32:44:615,1.9608,0.8662,7.78,38.5639,-0.8943,-0.7953,-0.379,0.1964
17:32:44:635,1.5521,0.9297,7.2208,38.6641,-0.6132,-0.6228,-0.5611,0.1942
17:32:44:655,1.0572,1.2407,6.7846,38.8646,-0.3418,-0.3865,-0.5994,0.1932
17:32:44:675,0.9447,1.7582,6.644,38.9686,-0.0767,-0.1608,-0.478,0.1931
17:32:44:695,1.0861,2.1552,6.3955,39.1397,0.214,0.1586,-0.2992,0.194
17:32:44:715,1.3566,2.5571,6.218,39.4166,0.4035,0.5025,-0.1139,0.195
17:32:44:734,1.6402,2.7916,6.4704,39.5984,0.4088,0.7133,0.0468,0.1953
17:32:44:759,2.0248,2.8624,7.0689,39.4419,0.3311,0.7154,0.164,0.1948
17:32:44:774,2.491,2.9593,7.9016,39.5178,0.2566,0.5387,0.1469,0.1943
17:32:44:794,2.6346,3.1626,8.5504,39.2933,0.2204,0.2779,0.0064,0.1946
17:32:44:817,2.3532,3.2844,8.7897,39.3802,0.1767,-0.0245,-0.0681,0.1961
17:32:44:835,2.1974,3.4486,8.8938,39.1598,0.0213,-0.3098,-0.0298,0.198
17:32:44:855,2.3957,3.544,9.4448,39.2494,-0.198,-0.5249,0.0213,0.199
17:32:44:875,2.964,3.3024,10.1722,39.3941,-0.2864,-0.7282,-0.0596,0.2001
17:32:44:895,3.5501,3.5084,10.4334,39.6349,-0.1948,-0.7442,-0.2981,0.2019
17:32:44:916,3.404,4.0426,10.3041,39.6991,-0.1075,-0.4014,-0.4876,0.2034
17:32:44:934,2.712,4.698,11.0268,39.7945,-0.0287,0.363,-0.4195,0.2022
17:32:44:954,1.7493,4.3626,12.0191,39.7546,0.2332,1.0913,-0.1522,0.1991
17:32:44:974,1.1573,3.4595,12.54,39.4292,0.5345,1.5661,0.1107,0.196
17:32:44:994,0.8536,2.8889,12.6313,39.5926,0.8783,1.6949,0.1661,0.1949
17:32:45:015,0.4461,2.6507,12.0782,39.7733,1.1701,1.6129,0.1512,0.1968
17:32:45:035,-0.0501,2.5404,10.9322,39.8268,1.07,1.4671,0.214,0.1995
17:32:45:055,-0.2976,2.1952,10.1367,39.9505,0.4972,1.2126,0.3173,0.1991
17:32:45:075,-0.2703,1.9637,10.1133,40.2706,-0.2172,0.6803,0.2576,0.1948
17:32:45:095,-0.2801,1.6373,10.304,40.2696,-0.6377,0.1086,0.0767,0.1886
17:32:45:116,-0.2991,1.679,9.8665,40.1398,-0.577,-0.3396,-0.099,0.1845
17:32:45:135,-0.2301,2.1512,8.8087,40.354,-0.2534,-0.576,-0.1533,0.184
17:32:45:155,-0.0932,2.5003,7.5254,40.3092,0.0809,-0.5941,-0.0692,0.187
17:32:45:175,0.1288,2.608,6.4829,40.1535,0.3641,-0.5195,0.05,0.1922
17:32:45:196,0.4125,2.7995,5.6224,40.3962,0.5792,-0.4024,0.0958,0.1988
17:32:45:216,0.3863,3.1153,4.9242,40.3876,0.7027,-0.2097,0.1522,0.2058
17:32:45:236,0.2724,3.8263,4.5831,40.6279,0.7942,0.1608,0.3769,0.2122
17:32:45:255,0.4141,4.2522,4.2428,40.6256,0.8262,0.856,0.7133,0.2162
17:32:45:275,0.7575,4.2757,4.5486,40.9719,0.658,1.6374,0.9475,0.2154
17:32:45:296,0.8679,3.9499,6.0835,40.7687,0.3428,1.9845,0.9859,0.2096
17:32:45:315,0.9547,3.7705,8.0924,40.3999,0.0884,1.5033,0.8017,0.2024
17:32:45:334,0.6501,4.0157,9.2565,40.4403,-0.0948,0.5227,0.4834,0.1978
17:32:45:354,0.2257,4.5246,9.7847,40.044,-0.2747,-0.3992,0.2928,0.1967
17:32:45:374,0.3054,5.1161,9.9084,39.9856,-0.3929,-0.8922,0.2438,0.198
17:32:45:395,0.5991,5.4594,9.9449,40.5575,-0.4227,-0.9837,0.1682,0.2
17:32:45:416,0.8988,5.6817,10.2832,40.3687,-0.3567,-0.8049,0.0713,0.2016
17:32:45:434,1.1677,5.6487,10.7458,40.5421,-0.1533,-0.5015,-0.0798,0.2031
17:32:45:454,1.2871,5.8474,11.0183,40.5265,0.1735,-0.2768,-0.2332,0.2056
17:32:45:474,1.1173,6.2633,10.4446,40.3107,0.445,0.0138,-0.2619,0.2091
17:32:45:494,0.1227,5.807,9.6124,40.5367,0.3247,0.4376,-0.0309,0.2106
17:32:45:516,-0.8476,4.9761,9.8429,40.7082,-0.2364,0.6132,0.4706,0.2068
17:32:45:535,-1.0781,3.6387,11.0349,40.5961,-0.7889,0.2246,1.0253,0.1996
17:32:45:555,-0.295,1.956,11.3071,40.564,-0.9635,-0.5483,1.4256,0.1942
17:32:45:574,1.4056,1.1853,10.2523,40.5813,-0.8315,-1.1626,1.5299,0.1934
17:32:45:594,3.1415,1.473,8.7703,40.5619,-0.6782,-1.0913,1.318,0.1944
17:32:45:616,3.8567,1.6722,7.313,40.9905,-0.7484,-0.5281,1.021,0.1927
17:32:45:635,3.8882,1.3335,6.9263,41.1883,-1.185,0.0671,0.7378,0.1847
17:32:45:655,3.6203,0.998,7.856,41.6868,-1.5725,0.378,0.4802,0.171
17:32:45:676,3.5484,0.8781,8.933,41.635,-1.5437,0.3194,0.2246,0.1564
17:32:45:695,3.3567,0.7512,9.1572,41.5091,-1.1647,0.1661,-0.0607,0.1451
17:32:45:715,3.0699,0.5695,8.6056,41.7109,-0.6718,0.1022,-0.3343,0.1382
17:32:45:734,2.8952,0.636,7.9622,41.6849,-0.3056,0.2427,-0.5483,0.1341
17:32:45:754,2.6608,0.7255,7.967,41.8745,-0.0266,0.4855,-0.6686,0.131
17:32:45:776,2.3895,0.8225,8.006,41.9969,0.2172,0.5792,-0.7027,0.129
17:32:45:796,2.0904,1.0111,7.773,41.9252,0.3449,0.5057,-0.7016,0.1288
17:32:45:815,1.8511,1.3583,7.7887,42.0242,0.2438,0.3503,-0.6558,0.129
17:32:45:835,1.626,1.5689,7.9317,41.8532,0.0202,0.1459,-0.5738,0.1286
17:32:45:854,1.656,1.6571,8.3064,42.1218,-0.197,0.0181,-0.4855,0.1273
17:32:45:875,1.7425,1.7176,8.9537,42.1182,-0.3109,0.0192,-0.444,0.1249
17:32:45:895,1.7334,1.6259,9.3396,42.0582,-0.3215,0.1107,-0.4855,0.122
17:32:45:915,1.3195,1.25,9.5149,42.2005,-0.3726,0.1693,-0.5355,0.1182
17:32:45:935,1.0068,1.2381,9.8968,42.4769,-0.4046,0.1182,-0.5664,0.1142
17:32:45:955,0.8449,1.465,10.2774,42.341,-0.3599,0.0479,-0.6111,0.1108
17:32:45:975,0.7504,2.0163,10.9607,42.5095,-0.2608,0.0234,-0.6473,0.1082
17:32:45:995,0.6113,2.7772,11.9875,42.539,-0.1778,-0.083,-0.6516,0.107
17:32:46:015,-0.3527,2.9035,12.7622,42.6273,-0.1608,-0.2821,-0.5195,0.1069
17:32:46:035,-1.7698,2.5099,13.1777,42.7559,-0.2183,-0.5334,-0.0639,0.1076
17:32:46:056,-1.7137,2.0972,12.7834,42.9145,-0.2715,-1.037,0.5856,0.11
17:32:46:075,-0.5181,1.3384,12.2979,42.9126,-0.2353,-0.9859,1.0487,0.1128
17:32:46:095,0.5391,0.2948,11.7968,42.8552,0.0298,-0.675,1.2393,0.1155
17:32:46:116,1.1717,-0.5803,10.797,42.856,0.28,-0.3726,1.1786,0.1189
17:32:46:135,1.5536,-0.8278,9.755,42.9223,0.2789,-0.2225,0.9529,0.122
17:32:46:156,1.9758,-0.3319,9.1195,42.8363,0.1118,-0.197,0.5834,0.1241
17:32:46:175,2.002,0.221,8.8019,43.1955,0.066,-0.0852,0.0916,0.1251
17:32:46:195,2.1513,0.7894,7.9477,43.2196,0.0735,-0.4578,-0.3087,0.1279
17:32:46:215,2.1217,1.3481,7.1946,43.251,0.0277,-0.7367,-0.6292,0.1326
17:32:46:234,1.8327,1.7376,6.6791,43.2027,-0.0032,-0.7985,-0.7719,0.1376
17:32:46:256,0.8848,2.0818,6.5272,42.9193,0.0043,-0.9539,-0.6186,0.1431
17:32:46:275,0.0401,2.4586,6.6848,42.7538,-0.0202,-1.6981,-0.2566,0.1514
17:32:46:295,0.3942,2.8712,6.4281,42.6172,-0.1427,-2.7031,0.1129,0.1641
17:32:46:315,1.0506,2.8722,6.1692,42.6806,-0.3237,-2.9438,0.4834,0.1773
17:32:46:334,2.4458,1.7106,6.7558,42.8125,-0.2087,-2.1474,0.7016,0.1863
17:32:46:355,3.6958,1.9276,6.9099,43.0379,-0.0426,-1.6332,0.7431,0.1937
17:32:46:375,4.7981,1.9547,7.9183,42.997,0.1661,-1.0125,0.5462,0.1991
17:32:46:395,5.5635,1.6521,8.8978,43.2714,0.4503,-0.6218,0.2364,0.2046
17:32:46:415,6.1128,1.5942,9.0836,43.129,0.7282,-0.7144,-0.1544,0.2132
17:32:46:438,6.3323,1.9152,8.081,43.1055,0.6345,-0.8741,-0.544,0.2244
17:32:46:455,6.2326,2.6381,8.391,43.0031,0.7293,-1.1615,-0.9656,0.2365
17:32:46:475,5.9683,2.3066,5.9284,43.3311,0.3865,0.2715,-0.9145,0.2439
17:32:46:494,5.5789,0.7244,5.1698,43.7405,-0.197,3.8583,-0.9337,0.2282
17:32:46:516,4.6394,3.4393,10.8395,43.7606,0.2938,4.8484,-0.9773,0.204
17:32:46:537,4.7861,2.8881,9.8824,43.5525,0.9454,4.8484,-1.1253,0.1872
17:32:46:555,3.688,2.4879,11.005,43.1267,0.7634,4.4258,-1.1754,0.1719
17:32:46:575,4.1,0.7558,12.0434,42.6747,-0.4163,1.8685,-1.696,0.1575
17:32:46:595,1.9106,0.8934,12.0008,42.5161,-0.7772,-2.1889,-2.2677,0.1585
17:32:46:615,0.4532,0.636,12.0495,42.432,-1.0455,-2.3177,-2.3028,0.1629
17:32:46:635,1.0789,1.3631,11.584,42.307,-0.6782,-1.9611,-1.6513,0.1661
17:32:46:655,1.5044,1.7084,10.4704,42.3582,-0.2662,-2.5179,-1.1019,0.1746
17:32:46:675,1.8943,1.5607,8.8408,42.2715,-0.0021,-1.7599,-0.5408,0.1832
17:32:46:695,2.9301,1.149,7.8493,42.204,-0.1884,-0.5046,0.0032,0.1851
17:32:46:715,3.3961,0.4662,7.6945,42.4977,-0.576,-0.0043,0.131,0.181
17:32:46:735,3.3879,0.1059,7.6759,42.6965,-0.8507,0.0969,-0.033,0.1738
17:32:46:774,2.9273,-0.3228,8.8388,42.7677,-0.8922,0.05,-0.2204,0.1657
17:32:46:775,2.7212,-0.0635,7.261,42.6557,-0.8272,0.1799,-0.4376,0.1587
17:32:46:794,2.5735,0.0198,7.0224,42.666,-0.6665,0.7676,-0.4653,0.1499
17:32:46:816,2.0536,0.3449,6.7099,42.6447,-0.5302,1.1892,-0.6186,0.1408
17:32:46:835,1.5918,0.7028,6.91,42.5271,-0.4386,1.5118,-0.6718,0.1312
17:32:46:855,1.1869,1.1705,7.5866,42.7137,-0.329,1.3383,-0.6473,0.123
17:32:46:875,0.9511,1.536,8.0932,42.9423,-0.2534,1.2009,-0.5973,0.1163
17:32:46:894,0.7906,2.0923,8.6584,42.892,-0.2608,1.3021,-0.5153,0.1093
17:32:46:917,0.6602,2.6534,9.4017,42.8793,-0.2481,1.399,-0.4248,0.1018
17:32:46:935,0.4589,2.7607,10.0713,42.7645,-0.1022,1.3691,-0.4557,0.0953
17:32:46:955,-0.1974,2.6192,10.7301,42.7079,0.1767,1.2776,-0.5302,0.0915
17:32:46:975,-0.804,2.6901,11.2397,42.3559,0.4099,1.3681,-0.4557,0.0899
17:32:46:995,-1.3812,2.773,11.8369,42.4032,0.4855,1.5938,-0.2481,0.0885
17:32:47:016,-2.0072,2.7034,12.2708,42.7634,0.5068,1.5767,-0.0043,0.0873
17:32:47:035,-2.0676,2.5712,12.3011,42.8957,0.5068,1.251,0.148,0.0871
17:32:47:055,-1.9097,2.3827,11.8978,43.205,0.3524,0.9071,0.131,0.0871
17:32:47:075,-1.8163,2.0225,11.5508,43.1933,-0.0319,0.8336,0.0096,0.0847
17:32:47:094,-2.078,1.574,11.5451,43.0883,-0.4312,0.7069,-0.0905,0.0785
17:32:47:116,-2.5406,1.1914,11.7593,43.0556,-0.5856,0.4535,-0.1288,0.071
17:32:47:135,-2.9307,0.6225,12.3046,43.0542,-0.3982,0.0479,-0.0639,0.0659
17:32:47:155,-2.6762,0.1892,11.914,43.0883,-0.0106,-0.2151,0.0596,0.0657
17:32:47:175,-2.3783,-0.2349,11.3248,43.0578,0.247,-0.033,0.1672,0.068
17:32:47:194,-2.1536,-0.4546,10.6227,43.4029,0.3098,0.181,0.2545,0.0706
17:32:47:215,-2.0923,-0.5669,9.8921,43.1466,0.1735,0.2779,0.2332,0.0717
17:32:47:235,-1.9115,-0.4579,9.1979,43.2118,-0.0916,0.2076,0.1171,0.0706
17:32:47:255,-1.8812,-0.4187,8.5877,43.3039,-0.4046,0.2566,-0.0213,0.0665
17:32:47:274,-1.8131,-0.1147,8.0379,43.1613,-0.6132,-0.016,-0.1097,0.0607
17:32:47:296,-1.6341,0.3652,7.5869,43.0778,-0.6824,-0.3364,-0.2246,0.0552
17:32:47:315,-1.5187,0.7583,7.1638,43.241,-0.626,-0.5366,-0.3332,0.0508
17:32:47:335,-1.3375,1.2399,6.6521,42.9543,-0.3811,-0.8986,-0.3854,0.0494
17:32:47:355,-1.0804,1.8046,5.8993,43.0241,-0.0788,-1.0764,-0.3354,0.052
17:32:47:375,-0.9648,2.1795,5.4328,43.0465,0.0383,-0.8219,-0.1916,0.0556
17:32:47:395,-0.8648,2.2991,5.4054,42.9581,0.0894,-0.3492,-0.0266,0.0581
17:32:47:415,-0.709,2.3775,5.7723,42.9833,0.181,0.1991,0.1459,0.0594
17:32:47:435,-0.9923,2.6104,6.3902,43.0538,0.3375,0.5707,0.3098,0.0605
17:32:47:454,-1.2678,2.75,7.0454,43.1732,0.4674,0.6324,0.4876,0.0624
17:32:47:474,-1.1856,2.8737,7.3704,43.388,0.3939,0.4525,0.5834,0.0645
17:32:47:494,-0.9266,3.2091,7.8903,43.4834,0.2183,0.0884,0.5398,0.0664
17:32:47:516,-0.7491,3.6304,8.7529,43.6811,-0.1416,-0.3386,0.3811,0.0668
17:32:47:535,-0.9439,4.0439,9.8415,43.9099,-0.6154,-0.7197,0.1725,0.0648
17:32:47:554,-1.5748,3.9599,11.282,43.9276,-1.1786,-0.725,0.0926,0.0584
17:32:47:574,-2.131,3.3047,13.4877,43.9617,-1.4181,-0.6079,0.1938,0.0484
17:32:47:595,-2.1466,2.8019,15.672,44.3819,-1.12,-0.4844,0.2087,0.0391
17:32:47:615,-1.8594,2.8921,16.4224,44.4119,-0.2704,-0.4919,0.2747,0.0367
17:32:47:635,-1.2417,2.9645,15.9507,44.4479,0.4014,-0.4503,0.2523,0.0408
17:32:47:654,-0.9234,1.8521,15.2888,44.6998,0.7697,-0.5387,0.3811,0.0493
17:32:47:676,-0.2555,0.181,14.6394,44.7528,0.8336,-0.395,0.5472,0.0587
17:32:47:694,0.6579,-1.1121,14.436,44.7867,0.9699,-0.2566,0.6356,0.068
17:32:47:716,1.3925,-1.5244,13.6764,44.8185,1.4351,-0.2587,0.4716,0.0809
17:32:47:735,1.7209,-1.2103,11.7593,44.8545,1.7907,-0.2864,0.1767,0.0977
17:32:47:755,1.517,-0.6247,9.6027,44.7071,1.7183,-0.2576,-0.0873,0.1147
17:32:47:776,0.9518,-0.2936,8.2789,44.6572,1.3691,-0.3407,-0.2151,0.1294
17:32:47:795,0.627,-0.2186,7.5178,44.5651,0.8805,-0.4493,-0.2172,0.1401
17:32:47:816,0.7296,-0.3865,7.0643,44.5979,0.4972,-0.6005,-0.1842,0.1476
17:32:47:835,1.0273,-0.4781,6.6123,44.2522,0.3513,-0.9422,-0.2789,0.1544
17:32:47:854,0.9776,-0.4041,5.8411,44.1454,0.3386,-1.3787,-0.4173,0.1626
17:32:47:875,0.9209,-0.1804,5.0663,44.0581,0.3226,-1.6992,-0.511,0.1722
17:32:47:895,1.0901,0.0803,4.3877,44.0566,0.2821,-1.8216,-0.5941,0.1822
17:32:47:915,1.4075,0.6441,3.9296,44.1111,0.1948,-1.8727,-0.7027,0.1919
17:32:47:935,1.3953,1.3528,3.8373,44.2291,-0.0181,-1.7077,-0.7421,0.1996
17:32:47:954,1.3206,2.1597,4.3576,44.6676,-0.2938,-1.1818,-0.6473,0.2029
17:32:47:975,1.2986,2.7079,5.0645,44.9973,-0.5036,-0.7282,-0.5185,0.2022
17:32:47:995,1.2172,3.1425,6.0927,45.1806,-0.7133,-0.5046,-0.4376,0.1985
17:32:48:015,1.1526,3.2629,7.199,45.3835,-0.8081,-0.5057,-0.4014,0.1934
17:32:48:035,0.8639,3.7193,8.4658,45.6795,-0.8677,-0.5387,-0.3311,0.1879
17:32:48:057,0.7434,4.1468,9.7789,45.6636,-0.9518,-0.5707,-0.1341,0.1815
17:32:48:075,1.1583,4.2841,10.891,45.9988,-1.0114,-0.5132,0.131,0.1741
17:32:48:095,1.7017,4.0152,12.1398,46.0778,-0.9401,-0.2406,0.3428,0.1656
17:32:48:115,1.9391,3.9283,13.1215,46.3722,-0.7101,0.0128,0.4259,0.1578
17:32:48:134,2.0444,4.0769,13.5417,46.7579,-0.5046,-0.0064,0.4642,0.152
17:32:48:156,2.1601,4.2574,13.6273,47.0714,-0.4908,0.132,0.593,0.1464
17:32:48:175,2.2162,3.5349,14.0413,47.1853,-0.494,0.4546,0.7154,0.1393
17:32:48:195,2.0454,2.2283,14.6045,47.0761,-0.1821,0.6505,0.7761,0.1331
17:32:48:215,2.6701,1.1465,14.5114,47.0602,0.4131,0.6122,0.7453,0.1318
17:32:48:234,2.6513,0.4861,12.8477,46.8118,0.9497,0.5845,0.5919,0.1363
17:32:48:256,2.6064,0.4214,11.292,46.549,1.0029,0.5643,0.477,0.1428
17:32:48:275,2.2032,0.3884,10.1265,46.6058,0.6952,0.4429,0.4184,0.1481
17:32:48:295,1.7305,-0.071,10.0793,46.5031,0.2896,0.4056,0.4716,0.1497
17:32:48:315,1.7547,-0.4654,10.2613,46.5998,0.1469,0.1948,0.4716,0.1499
17:32:48:334,1.7803,-0.4716,9.8549,46.698,0.2374,-0.0053,0.4024,0.1512
17:32:48:354,1.8,-0.1195,8.8449,46.6483,0.379,-0.2257,0.2683,0.1547
17:32:48:374,1.5577,0.297,7.7216,46.585,0.4908,-0.4972,0.132,0.1606
17:32:48:395,1.4031,0.8446,6.5691,46.494,0.5675,-0.6973,0.0905,0.1681
17:32:48:415,1.3912,1.0661,5.6274,46.1932,0.6292,-0.7729,0.0979,0.1765
17:32:48:436,1.4468,1.445,4.934,45.8422,0.6675,-0.7729,0.0777,0.1854
17:32:48:455,1.3921,1.8975,4.4663,45.5559,0.6154,-0.6643,0.0884,0.1937
17:32:48:475,1.4992,2.4541,4.3457,45.6262,0.5057,-0.4301,0.1469,0.2003
17:32:48:494,1.9726,2.8179,4.5325,45.2881,0.3173,-0.2576,0.198,0.2045
17:32:48:515,2.4198,3.2869,5.108,45.4214,-0.0564,-0.0362,0.2151,0.2052
17:32:48:536,2.8731,3.2878,6.7654,45.1666,-0.4919,0.1757,0.2417,0.2012
17:32:48:555,3.339,2.7785,9.2842,45.147,-0.6399,0.2981,0.1608,0.1943
17:32:48:575,3.9403,2.5235,11.4559,45.3881,-0.3567,0.1544,-0.1033,0.1891
17:32:48:594,3.9447,2.6448,12.1853,45.4597,0.116,0.0043,-0.5259,0.1893
17:32:48:615,3.4018,3.9943,12.0185,45.515,0.5174,0.0437,-0.8347,0.1937
17:32:48:635,2.6018,5.1418,11.8814,45.7061,0.692,0.3875,-0.7974,0.1989
17:32:48:655,2.1689,5.9643,12.2144,45.6667,0.7495,0.6697,-0.5717,0.2038
17:32:48:675,2.2709,6.3103,12.9143,45.7437,0.7016,0.7857,-0.3077,0.2076
17:32:48:695,2.4418,5.335,13.6126,45.6271,0.6942,0.5536,-0.1182,0.2113
17:32:48:715,3.0143,3.7755,13.9408,45.5694,0.9188,0.2374,0.0437,0.2177
17:32:48:735,3.7049,2.5765,13.264,45.4114,1.2755,-0.0298,0.0586,0.2279
17:32:48:787,4.1309,2.461,11.4304,45.4038,1.4863,-0.2545,-0.0426,0.2415
17:32:48:788,4.1474,2.7962,9.5487,45.2291,1.3042,-0.3119,-0.1182,0.255
17:32:48:795,3.9316,2.8943,8.3382,45.1489,0.905,-0.3151,-0.1086,0.2653
17:32:48:817,3.7247,2.4763,7.5818,44.7299,0.543,-0.3492,-0.0671,0.2724
17:32:48:835,3.5463,1.9229,6.8851,44.6239,0.3034,-0.4642,-0.0703,0.2773
17:32:48:855,3.334,1.5704,6.021,44.3223,0.1767,-0.6409,-0.1373,0.2816
17:32:48:875,3.0897,1.5089,5.0805,44.0303,0.1022,-0.7272,-0.2406,0.2856
17:32:48:894,2.7808,1.4899,4.1627,44.1106,0.0373,-0.7048,-0.3141,0.289
17:32:48:916,2.5646,1.3946,3.6174,44.2835,-0.0522,-0.6313,-0.378,0.2914
17:32:48:935,2.4803,1.3556,3.3711,44.6144,-0.1129,-0.5632,-0.4525,0.2931
17:32:48:955,2.4645,1.7184,3.3707,44.4382,-0.1512,-0.3854,-0.5355,0.2938
17:32:48:974,2.2797,2.2533,3.4843,44.4232,-0.2129,-0.0692,-0.5483,0.293
17:32:48:994,2.1492,3.0134,3.795,44.3904,-0.363,0.3311,-0.4322,0.2896
17:32:49:015,2.037,3.715,4.5258,44.2587,-0.658,0.8709,-0.2342,0.282
17:32:49:035,2.012,4.5635,6.406,44.2181,-0.9656,1.5001,0.0181,0.2692
17:32:49:055,1.8367,4.9446,9.1101,44.2808,-1.0689,1.7545,0.2747,0.2533
17:32:49:074,1.7271,5.0441,10.9006,44.4653,-1.0796,1.3393,0.477,0.2383
17:32:49:094,1.4037,5.0563,11.6637,44.7203,-1.0796,0.7655,0.5792,0.2251
17:32:49:115,0.7196,5.138,12.4796,44.9726,-0.9539,0.3811,0.724,0.2141
17:32:49:135,0.2293,5.7383,12.6674,45.1793,-0.6505,-0.0032,0.9401,0.2068
17:32:49:155,0.508,6.2619,12.2175,45.5911,-0.494,-0.2598,1.0764,0.2023
17:32:49:175,1.1072,6.5798,12.0432,45.5372,-0.3449,-0.131,0.8326,0.199
17:32:49:194,1.1064,6.1597,12.2707,45.8227,0.0564,0.6026,0.2843,0.1962
17:32:49:216,0.2519,4.8794,12.0963,45.5146,0.675,1.3745,-0.0798,0.1956
17:32:49:234,-0.146,3.637,11.1749,45.5126,0.9326,1.5278,0.1054,0.1974
17:32:49:255,0.7252,2.7995,10.5737,45.4672,0.7761,1.1796,0.2875,0.1996
17:32:49:274,1.65,2.0519,10.0318,45.2046,0.3609,0.7059,0.1778,0.2004
17:32:49:295,2.3361,1.4566,9.7112,45.08,-0.165,0.5526,-0.1203,0.1978
17:32:49:315,2.4854,0.7911,9.2175,45.0558,-0.5217,0.6718,-0.4684,0.1911
17:32:49:335,1.9353,0.1457,8.1191,45.0851,-0.8304,0.8592,-0.8081,0.1812
17:32:49:355,1.0021,-0.1491,7.9129,45.2473,-0.9678,1.2233,-0.9752,0.1678
17:32:49:374,0.3006,-0.2802,7.5621,45.3012,-0.8805,1.1456,-1.0018,0.1546
17:32:49:394,-0.1299,-0.1685,7.2596,45.317,-0.658,0.8453,-0.938,0.144
17:32:49:415,-0.3852,-0.0229,6.4804,45.1667,-0.4365,0.3513,-0.905,0.1374
17:32:49:435,-0.6844,0.1834,6.2321,44.9886,-0.297,0.2055,-0.971,0.1331
17:32:49:455,-0.8592,0.7299,6.0183,44.9443,-0.1075,0.0287,-0.9656,0.1309
17:32:49:474,-1.1005,1.2235,5.4648,44.5978,0.0426,-0.0575,-1.0231,0.1308
17:32:49:494,-1.583,1.9883,5.4649,44.6716,0.1384,0.1799,-1.1296,0.1311
17:32:49:516,-2.3348,2.5766,5.9154,44.7127,0.2726,0.2555,-1.0806,0.132
17:32:49:535,-2.8838,3.7407,6.4117,44.5909,0.1789,0.2002,-0.857,0.1329
17:32:49:555,-3.0085,4.2585,7.3391,44.6372,-0.1363,0.3364,-0.4972,0.1313
17:32:49:574,-3.0068,4.4672,9.1426,44.6327,-0.5291,0.428,-0.1331,0.1258
17:32:49:595,-2.8443,4.5094,11.0364,44.5259,-0.5462,0.297,0.0916,0.1194
17:32:49:616,-2.3223,4.5655,12.1803,44.6453,-0.3396,-0.0245,0.0948,0.1153
17:32:49:635,-2.3252,5.02,12.8481,44.5983,-0.2108,-0.2214,-0.0362,0.1137
17:32:49:655,-2.7265,5.1689,13.3685,44.7047,-0.3748,-0.1192,-0.0362,0.1113
17:32:49:676,-4.4045,4.4412,14.9316,44.8447,-0.6473,-0.1906,0.2278,0.1062
17:32:49:695,-2.4039,3.9581,15.7326,44.8375,-0.3822,-0.0564,0.4727,0.102
17:32:49:716,-1.4745,2.7589,15.5624,44.7471,0.3492,0.2289,0.5504,0.1033
17:32:49:735,-0.9052,2.4833,14.4883,44.7026,1.1999,0.2715,0.5675,0.1121
17:32:49:754,-0.4497,2.5372,12.8246,44.463,1.7066,0.1597,0.6558,0.1268
17:32:49:774,0.2128,2.7842,10.8437,44.3,1.7812,-0.1842,0.7261,0.1441
17:32:49:795,0.832,3.0127,8.8368,44.1538,1.2446,-0.3311,0.8283,0.1586
17:32:49:815,1.3259,2.5922,8.0068,43.7216,0.4227,-0.4376,0.8389,0.1661
17:32:49:834,1.6146,1.7159,8.0687,43.6993,-0.3268,-0.4354,0.8389,0.1666
17:32:49:854,1.704,0.6825,8.3056,43.3346,-0.7144,-0.4642,0.7836,0.1628
17:32:49:874,1.5925,0.2513,8.0325,43.249,-0.7389,-0.6047,0.692,0.1584
17:32:49:895,1.319,0.1017,7.5193,43.0477,-0.6164,-0.7602,0.5685,0.1556
17:32:49:915,1.3021,-0.1477,7.1515,42.9809,-0.2502,-1.0285,0.411,0.1561
17:32:49:934,1.6262,0.7233,6.6911,42.9759,0.2566,-0.9731,0.115,0.1614
17:32:49:954,1.3981,1.9054,6.8336,43.4886,0.8315,-0.642,-0.3375,0.1703
17:32:49:974,0.8947,3.2542,6.5721,43.6754,1.2243,-0.1672,-0.5632,0.1819
17:32:49:995,-0.0238,4.1542,6.3719,43.659,1.2361,0.2768,-0.3748,0.1925
17:32:50:015,-0.7967,4.6269,6.7526,43.4789,1.0647,0.6633,0.1608,0.2005
17:32:50:034,-1.1957,4.2466,7.6648,43.2405,0.9081,0.8443,0.7772,0.2061
17:32:50:055,-0.9665,3.3525,8.4708,42.9311,0.7932,0.4791,1.317,0.2114
17:32:50:075,0.2763,2.3622,8.3912,42.697,0.6143,-0.3652,1.5235,0.2183
17:32:50:095,2.0129,1.6232,7.8109,42.4555,0.33,-1.3372,1.1562,0.2266
17:32:50:115,3.1855,1.6719,7.0719,42.0786,0.0128,-2.0676,0.2566,0.2356
17:32:50:134,3.3266,3.471,6.9403,41.963,-0.2608,-1.9089,-0.7314,0.2426
17:32:50:154,1.7626,5.0507,7.8159,41.7089,-0.3354,-1.1094,-1.2414,0.2453
17:32:50:175,0.5091,6.0517,8.9111,41.7208,-0.2193,-0.0671,-0.9965,0.2444
17:32:50:195,0.3274,5.9792,10.2798,41.8185,-0.0341,0.6761,-0.5057,0.2416
17:32:50:215,0.7619,5.0486,11.5977,41.5932,0.1608,0.6675,-0.2332,0.2398
17:32:50:235,1.166,4.6017,12.2411,41.6462,0.329,0.1608,-0.2683,0.2412
17:32:50:255,1.2466,4.3733,12.1084,41.3743,0.4493,-0.33,-0.3737,0.2457
17:32:50:274,1.2154,4.4179,11.8072,40.8376,0.5568,-0.6537,-0.4184,0.2526
17:32:50:295,1.2193,4.6623,11.1589,40.8139,0.6611,-0.6835,-0.3982,0.2609
17:32:50:315,1.1761,5.1465,10.4742,40.6937,0.5078,-0.3982,-0.2779,0.2677
17:32:50:334,1.1238,4.8544,10.0161,40.6904,0.1373,-0.2108,-0.1299,0.2706
