Time,Acc_X,Acc_Y,Acc_Z,Meg,Gyr_X,Gyr_Y,Gyr_Z,Ore
17:50:36:715,-1.446,5.244,7.548,42.5579,-0.1107,0.3326,0.6336,0.2838
17:50:36:736,-1.7171,5.483,7.409,41.3261,-0.2097,0.3497,0.6401,0.2942
17:50:36:757,-1.767,5.49,7.452,41.3302,-0.2523,0.3634,0.6953,0.2942
17:50:36:780,-1.628,5.34,7.301,42.6041,-0.2321,0.4657,0.6358,0.2938
17:50:36:795,-1.767,5.2871,7.4021,42.3276,-0.2204,0.4987,0.51,0.2932
17:50:36:814,-2.1311,5.438,7.097,42.3276,-0.2683,0.4711,0.4525,0.2927
17:50:36:836,-2.495,5.651,7.1531,42.3276,-0.3652,0.5243,0.4951,0.2922
17:50:36:855,-2.5331,5.718,7.8521,42.4255,-0.3887,0.5339,0.6038,0.2913
17:50:36:878,-2.358,5.634,8.1491,43.1492,-0.3131,0.4731,0.6911,0.29
17:50:36:894,-2.4251,5.5601,8.206,40.8167,-0.2577,0.4476,0.7615,0.2884
17:50:36:914,-2.559,5.553,8.7491,41.1272,-0.2023,0.3091,0.8062,0.287
17:50:36:936,-2.622,5.5001,8.5721,42.3074,-0.1118,0.0876,0.8189,0.2857
17:50:36:953,-2.37,5.4071,7.8011,41.3412,-0.084,-0.0104,0.8519,0.2847
17:50:36:989,-2.121,5.3441,7.2,41.1865,-0.0914,0.1121,0.8744,0.284
17:50:36:993,-2.121,5.301,7.428,41.1718,-0.115,0.2111,0.8477,0.2836
17:50:37:013,-2.2151,5.4521,7.2701,41.5648,-0.1255,0.1419,0.7541,0.2833
17:50:37:035,-2.2841,5.541,7.124,42.0633,-0.1585,0.2271,0.7114,0.2831
17:50:37:053,-2.37,5.648,7.6241,40.9709,-0.2012,0.3006,0.7039,0.2828
17:50:37:077,-2.306,5.9381,8.0261,41.3776,-0.2097,0.2335,0.6901,0.2823
17:50:37:093,-2.011,6.249,7.988,41.3365,-0.1948,0.1803,0.6336,0.2815
17:50:37:113,-1.544,6.41,8,42.1574,-0.2375,0.159,0.5569,0.2807
17:50:37:136,-1.482,6.3071,8.481,42.1415,-0.279,0.2548,0.4781,0.2798
17:50:37:154,-1.8941,6.606,9.168,42.1068,-0.2747,0.3986,0.5153,0.2786
17:50:37:181,-1.9031,6.599,9.437,42.0309,-0.15,0.4753,0.6901,0.2773
17:50:37:193,-1.293,6.065,9.5081,41.9786,0.0587,0.5669,0.7359,0.2761
17:50:37:212,-0.891,5.45,9.441,42.3279,0.2941,0.6064,0.5303,0.2759
17:50:37:233,-0.977,5.2061,9.422,42.8712,0.3953,0.5275,0.281,0.2767
17:50:37:253,-0.6821,4.9661,9.86,42.4544,0.3569,0.128,0.1723,0.2787
17:50:37:282,0.159,4.4351,9.437,42.4125,0.4326,-0.2768,0.1222,0.2812
17:50:37:292,0.959,4.054,8.34,42.3843,0.5551,-0.2342,0.1446,0.284
17:50:37:312,1.407,4.0061,7.617,43.2994,0.5508,0.0428,0.232,0.2875
17:50:37:331,1.2851,3.9011,7.5641,42.334,0.3101,0.3869,0.3843,0.2916
17:50:37:353,0.803,3.6731,8.223,41.9763,-0.1085,0.4859,0.5474,0.2957
17:50:37:391,0.677,3.3281,9.066,42.3409,-0.605,0.2783,0.6091,0.2985
17:50:37:395,0.914,3.173,10.0781,42.3167,-0.9362,-0.1511,0.4164,0.2984
17:50:37:411,1.05,3.494,10.107,41.8028,-0.8276,-0.4951,-0.0247,0.2949
17:50:37:431,0.7991,4.107,9.35,41.8041,-0.4686,-0.5793,-0.4529,0.2889
17:50:37:451,0.408,4.796,8.1049,41.2529,-0.1096,-0.4877,-0.6777,0.2825
17:50:37:478,-0.086,5.397,6.942,41.6456,0.0544,-0.2043,-0.6425,0.2775
17:50:37:490,-0.5,5.684,6.827,41.3281,0.0641,0.111,-0.3858,0.2746
17:50:37:510,-0.8831,5.502,7.0781,42.6575,0.0214,0.2996,-0.0205,0.2735
17:50:37:530,-0.9581,5.0711,7.679,41.6629,-0.0701,0.2655,0.2757,0.2734
17:50:37:551,-0.596,4.5491,7.6241,41.6622,-0.1576,0.0705,0.3673,0.2736
17:50:37:582,-0.218,4.377,7.653,41.6614,-0.1874,0.1013,0.3151,0.2733
17:50:37:590,-0.1271,4.7,7.988,41.6441,-0.1352,0.1814,0.2277,0.2724
17:50:37:610,-0.4001,5.1671,8.2039,41.6006,-0.0766,0.1942,0.1617,0.2711
17:50:37:630,-0.606,5.6801,8.127,40.7103,-0.0286,0.1814,0.1543,0.2701
17:50:37:653,-0.491,6.161,8.3261,41.6006,0.0118,0.1899,0.1947,0.2696
17:50:37:680,-0.381,6.558,8.6081,41.6006,0.1354,0.3176,0.2192,0.2696
17:50:37:691,-0.5051,6.891,9.243,41.588,0.227,0.7448,0.3002,0.2702
17:50:37:710,-0.852,6.7211,10.995,41.2047,0.3336,1.0783,0.4674,0.2718
17:50:37:730,-0.524,6.738,12.401,42.1594,0.5679,0.9536,0.4983,0.2741
17:50:37:750,-0.203,6.879,12.1091,42.162,0.8331,0.5786,0.2991,0.2774
17:50:37:788,-0.675,7.344,10.8371,40.4972,1.0473,0.3719,0.0221,0.2821
17:50:37:792,-2.1551,8.198,9.456,40.529,1.1463,0.65,-0.1143,0.2887
17:50:37:808,-3.716,8.304,9.362,41.3349,0.9769,0.9344,0.0818,0.297
17:50:37:828,-4.6181,7.025,10.016,41.1626,0.6489,0.877,0.4877,0.3061
17:50:37:852,-4.365,4.947,10.521,41.2589,0.4487,0.4295,0.9085,0.3146
17:50:37:877,-3.6251,3.6041,9.422,41.9949,0.4689,-0.0648,1.1535,0.3218
17:50:37:889,-3.053,2.907,7.461,40.8078,0.503,-0.199,1.2482,0.328
17:50:37:909,-2.78,2.78,5.733,40.7909,0.4689,0.0236,1.2994,0.3338
17:50:37:929,-2.5901,3.156,4.794,40.6104,0.3399,0.3741,1.3036,0.3392
17:50:37:951,-2.234,3.872,4.4951,40.7525,0.0758,0.5862,1.2004,0.3442
17:50:37:981,-1.784,4.365,4.44,40.8933,-0.2949,0.5285,1.0449,0.348
17:50:37:989,-1.439,4.4081,4.619,40.8968,-0.5826,0.3634,0.9351,0.3498
17:50:38:008,-1.022,4.3151,4.655,41.1236,-0.6315,0.2698,0.9212,0.3492
17:50:38:029,-0.5051,4.365,4.581,40.8548,-0.4718,0.3634,0.9734,0.3466
17:50:38:047,-0.05,4.619,4.4141,41.2563,-0.2555,0.6746,1.0202,0.343
17:50:38:080,0.0881,5.2271,4.9571,41.4855,-0.1969,1.1187,1.0438,0.3397
17:50:38:088,-0.381,5.553,6.2621,41.4033,-0.3865,1.3094,1.1077,0.3369
17:50:38:108,-0.6221,5.747,8.4191,40.986,-0.7435,0.9526,1.1396,0.3338
17:50:38:128,-0.63,5.8451,9.611,41.231,-0.9277,0.3165,0.9351,0.3293
17:50:38:147,-0.591,6.1541,9.987,41.1761,-0.8797,0.0214,0.6421,0.323
17:50:38:192,-0.8141,6.932,11.5961,41.1718,-0.2023,0.047,0.4887,0.3085
17:50:38:207,-0.57,6.731,11.4551,41.2029,0.3143,-0.1276,0.4962,0.3027
17:50:38:227,-0.3731,6.494,9.911,40.8011,0.6691,-0.1958,0.3268,0.2996
17:50:38:247,-0.239,6.7781,9.5081,39.8297,0.6935,-0.1969,0.0754,0.3003
17:50:38:279,-0.0551,7.13,9.774,40.5382,0.6628,-0.4781,-0.1877,0.3038
17:50:38:287,-0.191,7.02,8.826,41.3837,0.6468,-0.6293,-0.3369,0.3087
17:50:38:307,-0.4211,6.62,9.264,41.3473,0.52,-0.411,-0.258,0.3145
17:50:38:327,-0.419,5.952,9.884,41.2728,0.4581,-0.2373,0.0147,0.3204
17:50:38:346,-0.2801,4.98,9.791,40.9631,0.5178,-0.0776,0.4153,0.3259
17:50:38:382,-0.225,4.08,9.2,41.035,0.6414,0.0066,0.6698,0.3311
17:50:38:385,0.0641,3.9491,7.622,40.7793,0.7011,-0.0456,0.6102,0.3363
17:50:38:406,0.399,4.205,5.843,40.7796,0.4945,-0.021,0.4258,0.342
17:50:38:425,0.7991,4.38,5.1461,39.6565,-0.0564,-0.0158,0.2288,0.3476
17:50:38:446,0.878,4.293,5.304,40.745,-0.6764,-0.1895,-0.1302,0.3515
17:50:38:480,0.3491,4.176,5.726,41.069,-0.9724,-0.3502,-0.6405,0.3522
17:50:38:485,-0.6371,4.365,6.291,40.0199,-0.8212,-0.4377,-1.074,0.3492
17:50:38:505,-1.367,5.1071,6.3341,40.7333,-0.3301,-0.4004,-1.254,0.3437
17:50:38:525,-1.815,5.78,5.8001,41.8002,0.1621,-0.1426,-1.0453,0.3384
17:50:38:549,-1.853,6.1301,5.0651,40.8584,0.422,0.144,-0.5052,0.335
17:50:38:591,0.066,6.9371,5.69,40.8322,0.1567,0.4529,0.3365,0.3342
17:50:38:605,0.576,6.9341,6.317,40.8104,-0.2108,0.4188,0.3257,0.3352
17:50:38:624,0.437,6.69,7.703,40.7674,-0.5857,0.3784,0.2054,0.3367
17:50:38:644,0.1091,6.714,9.93,39.9907,-0.7318,0.3091,0.0232,0.3374
17:50:38:722,-0.101,7.02,11.855,40.4842,-0.476,0.1728,-0.1951,0.3324
17:50:38:723,-0.531,7.581,12.398,40.4803,0.0928,0.0694,-0.4136,0.3273
17:50:38:724,-1.199,8.4761,11.237,40.4624,0.5573,0.1056,-0.5339,0.3232
17:50:38:724,-2.454,9.077,10.401,38.9399,0.6212,0.3347,-0.4551,0.3219
17:50:38:744,-3.5051,8.919,10.727,41.2145,0.5008,0.3954,-0.1248,0.3233
17:50:38:781,-4.175,7.65,11.0411,41.0061,0.374,0.1664,0.3087,0.3259
17:50:38:784,-4.3331,5.9741,10.3181,41.0061,0.3825,-0.1884,0.5793,0.3289
17:50:38:803,-4.235,4.8611,8.594,40.9656,0.5039,-0.2182,0.6688,0.3323
17:50:38:825,-4.0961,4.4111,6.927,41.8191,0.6744,0.0257,0.7124,0.3364
17:50:38:844,-3.3641,4.418,5.232,41.7314,0.6808,0.2996,0.7913,0.3412
17:50:38:881,-2.4851,4.5161,3.872,42.0348,0.4379,0.5999,0.7774,0.3468
17:50:38:885,-1.985,4.485,3.224,41.9671,-0.0382,0.8822,0.6091,0.352
17:50:38:904,-1.5251,4.7411,4.038,41.8743,-0.542,0.8588,0.3407,0.3554
17:50:38:924,-1.2281,4.959,4.6121,42.253,-0.8308,0.4625,0.2447,0.3556
17:50:38:943,-0.335,4.727,4.3871,41.4822,-0.9138,0.2633,0.5133,0.3525
17:50:38:990,2.5391,4.107,5.721,41.9662,-0.4399,0.698,0.9648,0.3471
17:50:39:003,3.305,3.7121,5.6831,42.9617,-0.0947,0.6585,0.7795,0.3407
17:50:39:022,3.3701,3.7811,5.457,41.9763,-0.0223,0.6212,0.378,0.3345
17:50:39:042,3.044,5.007,6.3911,41.9283,-0.4058,0.5009,-0.2207,0.3297
17:50:39:062,2.1439,6.113,8.7851,42.0755,-0.9479,-0.0594,-0.8099,0.3265
17:50:39:085,1.2341,6.405,10.952,42.6293,-1.1642,-0.6933,-1.1624,0.3233
17:50:39:103,0.413,6.764,12.872,42.7315,-0.833,-1.0384,-1.3489,0.3182
17:50:39:121,-0.05,7.3241,13.715,43.6627,-0.2002,-1.2057,-1.4074,0.3113
17:50:39:142,0.035,7.571,13.1621,41.8523,0.3101,-1.2354,-1.2796,0.3039
17:50:39:161,-0.026,7.188,12.2,42.8949,0.4348,-1.2675,-1.0857,0.2979
17:50:39:182,-0.575,6.2111,11.3381,42.9268,0.1621,-1.2931,-1.074,0.2952
17:50:39:201,-0.747,5.447,11.9861,42.8788,-0.1033,-1.2653,-1.204,0.2957
17:50:39:222,-0.165,5.0981,12.08,42.599,0.0982,-1.2695,-1.2349,0.2978
17:50:39:241,0.452,4.863,10.452,42.4308,0.4826,-1.0884,-1.0282,0.2994
17:50:39:261,0.7721,4.703,8.3711,43.3782,0.685,-0.6251,-0.7395,0.3007
17:50:39:281,0.923,4.6451,7.0091,43.9968,0.5072,-0.2725,-0.5276,0.303
17:50:39:301,0.8921,4.3939,6.477,43.9456,-0.0478,-0.3024,-0.4817,0.3068
17:50:39:320,1.0601,3.939,6.6521,43.8818,-0.6007,-0.7083,-0.682,0.3114
17:50:39:340,1.2821,3.609,6.4751,43.2704,-0.7913,-1.147,-1.0718,0.3148
17:50:39:360,1.029,3.587,5.553,43.2571,-0.6369,-1.1131,-1.3776,0.3152
17:50:39:391,0.2501,3.855,5.034,43.8447,-0.3312,-0.5431,-1.3648,0.3081
17:50:39:402,-0.326,3.8381,5.457,43.7684,0.0012,0.0631,-1.0495,0.3037
17:50:39:421,-0.45,3.633,6.039,43.7156,0.243,0.2676,-0.7139,0.3005
17:50:39:440,-0.402,3.92,6.2981,43.0904,0.3314,0.2377,-0.6351,0.2991
17:50:39:460,-0.651,4.6841,6.113,44.6551,0.2131,0.2058,-0.7002,0.2995
17:50:39:483,-1.058,5.409,6.3791,43.6908,-0.0894,0.2153,-0.6766,0.3008
17:50:39:500,-1.1059,6.1511,7.3991,43.6908,-0.3376,0.1845,-0.5882,0.3016
17:50:39:519,-1.1681,6.683,8.481,43.534,-0.4536,0.209,-0.4839,0.3012
17:50:39:539,-1.317,6.9251,9.6311,44.0743,-0.4675,0.4604,-0.2676,0.2994
17:50:39:559,-1.518,6.678,11.97,44.4512,-0.3876,0.7267,-0.0012,0.2966
17:50:39:582,-1.46,6.503,14.108,43.9176,-0.0925,0.536,0.0232,0.2931
17:50:39:601,-1.367,6.336,14.271,44.43,0.2921,0.1601,-0.3198,0.2898
17:50:39:619,-2.4611,6.201,13.6481,43.4343,0.5636,-0.0414,-0.7608,0.2882
17:50:39:639,-4.01,6.024,12.911,43.4618,0.6298,-0.264,-0.813,0.2887
17:50:39:658,-4.116,5.838,11.781,45.0037,0.6733,-0.5164,-0.4742,0.2913
17:50:39:679,-3.819,4.964,9.822,44.6889,0.8555,-0.4568,0.019,0.2952
17:50:39:699,-3.2321,3.884,7.3391,44.6171,0.9866,-0.2267,0.4994,0.3004
17:50:39:717,-2.028,3.6251,5.1821,43.395,0.8279,0.2218,0.7114,0.3071
17:50:39:737,-0.924,3.606,4.3871,44.1821,0.3538,0.617,0.5963,0.3147
17:50:39:758,-0.2441,3.9011,4.5551,44.0623,-0.2907,0.65,0.2192,0.3216
17:50:39:790,-0.158,4.1951,5.3231,44.7684,-0.8862,0.3336,-0.1823,0.3259
17:50:39:802,-0.402,4.3361,6.0011,44.7798,-1.1153,-0.0446,-0.3602,0.3258
17:50:39:817,-0.534,4.4561,6.0491,43.6941,-0.8425,-0.1393,-0.2453,0.3213
17:50:39:837,-0.378,4.6121,5.345,44.0912,-0.3077,0.1089,0.0679,0.3145
17:50:39:857,-0.1151,4.9571,4.452,44.0224,0.08,0.4423,0.4588,0.3084
17:50:39:879,0.119,4.925,4.095,44.9834,0.1748,0.7608,0.7444,0.3047
17:50:39:901,-0.1991,5.16,4.895,44.0391,0.1642,0.9259,0.786,0.3034
17:50:39:918,-0.4811,5.7251,5.69,44.9906,0.0214,0.7128,0.7422,0.3037
17:50:39:937,-0.074,6.096,5.9651,44.2177,-0.3035,0.3198,0.6794,0.3045
17:50:39:957,0.2771,6.281,6.9731,44.0888,-0.5804,0.356,0.4514,0.3045
17:50:39:981,-0.572,6.489,9.446,44.2671,-0.5752,0.6585,0.1052,0.3029
17:50:40:001,-1.731,6.7571,11.589,44.2918,-0.3227,0.6553,0.0434,0.2996
17:50:40:017,-1.863,6.297,12.5231,44.2381,-0.082,0.4114,0.2438,0.2957
17:50:40:036,-0.8981,5.3351,12.839,44.1872,0.1493,0.2698,0.2288,0.2923
17:50:40:056,-0.302,5.024,13.581,44.3348,0.4869,0.0694,-0.1706,0.2904
17:50:40:082,-1.425,4.8941,12.437,43.5472,0.635,-0.0946,-0.7011,0.2905
17:50:40:102,-3.4121,4.8461,11.951,44.8401,0.2802,-0.1,-0.9153,0.2925
17:50:40:117,-3.785,4.4561,12.7721,43.7898,-0.1,-0.3609,-0.6362,0.2953
17:50:40:135,-2.3921,3.321,12.188,43.7802,-0.0681,-0.5846,-0.1387,0.2967
17:50:40:156,-0.749,2.172,10.416,44.6294,0.21,-0.4301,0.1745,0.2969
17:50:40:191,-0.086,1.7,8.627,44.6366,0.4198,-0.1074,0.0637,0.2973
17:50:40:201,0,2.258,7.3541,44.2628,0.3538,-0.0104,-0.3571,0.2988
17:50:40:217,0.176,3.039,6.492,44.2628,0.0118,-0.3715,-0.8184,0.301
17:50:40:235,0.176,3.525,5.6801,43.2557,-0.3344,-0.7987,-1.2551,0.3025
17:50:40:255,-0.426,3.975,5.151,42.7281,-0.4729,-0.8712,-1.5609,0.3021
17:50:40:279,-1.7021,4.305,4.9931,44.104,-0.3813,-0.6145,-1.5906,0.2995
17:50:40:294,-2.562,4.672,5.1011,44.0413,-0.1841,-0.3183,-1.2636,0.2957
17:50:40:315,-2.622,4.887,5.3951,43.0884,0.0353,-0.1446,-0.7639,0.2918
17:50:40:335,-2.6531,4.5041,5.625,43.9959,0.2207,-0.0594,-0.3571,0.2889
17:50:40:355,-2.715,4.595,5.627,42.6209,0.2174,-0.1202,-0.2186,0.2876
17:50:40:380,-2.981,5.385,5.534,43.0411,-0.1224,-0.216,-0.3081,0.2877
17:50:40:394,-3.62,5.598,5.747,43.0623,-0.6497,-0.3183,-0.2889,0.2879
17:50:40:417,-4.128,5.277,6.978,42.636,-1.094,-0.1489,-0.0492,0.2861
17:50:40:434,-4.422,5.136,10.835,43.1722,-1.3592,-0.0509,0.0796,0.2813
17:50:40:454,-3.905,5.093,14.282,42.8697,-1.0428,-0.411,0.0243,0.2734
17:50:40:481,-2.703,6.017,14.3261,43.6593,-0.1138,-0.4547,-0.1899,0.2635
17:50:40:494,-3.8,7.257,12.894,43.589,0.7862,0.1823,-0.338,0.2551
17:50:40:517,-6.953,7.736,11.79,43.0523,0.9994,0.5851,0.0839,0.2517
17:50:40:533,-8.327,6.656,11.529,43.0158,0.4954,0.3847,0.983,0.2539
17:50:40:554,-7.0961,4.14,11.7281,41.6188,0.1503,-0.1426,1.7447,0.2588
17:50:40:590,-4.6421,2.411,10.2821,42.1458,0.2867,-0.5441,1.8161,0.2632
17:50:40:596,-3.3731,2.318,8.1371,42.1367,0.4465,-0.4877,1.3292,0.2671
17:50:40:617,-3.512,3.06,5.723,42.1259,0.3293,-0.2139,0.8999,0.2712
17:50:40:633,-3.45,3.747,4.4831,40.7683,-0.1064,0.2366,0.8999,0.2753
17:50:40:653,-2.9021,3.747,5.156,42.1482,-0.5741,0.6414,1.0523,0.2783
17:50:40:679,-2.375,3.35,6.633,41.7977,-0.8202,0.5627,1.114,0.2788
17:50:40:692,-1.877,3.18,6.767,41.7439,-0.7978,0.1345,1.1566,0.2763
17:50:40:739,-1.017,3.305,6.4391,41.4595,-0.5879,-0.0136,1.2621,0.2716
17:50:40:740,-0.747,3.4241,5.9081,41.4239,-0.2182,0.2527,1.3931,0.2663
17:50:40:752,-0.4571,3.1061,5.6351,40.1254,0.2665,0.7384,1.5007,0.2621
17:50:40:781,-0.237,3.4961,5.577,42.0659,0.6159,1.2412,1.4656,0.2601
17:50:40:791,0.155,4.5611,6.659,42.0499,0.7554,1.3489,1.2994,0.2611
17:50:40:812,0.416,5.27,7.557,41.1745,0.7256,1.2434,1.1854,0.2645
17:50:40:832,0.538,5.7131,8.0771,41.2479,0.7117,1.1485,1.0927,0.2694
17:50:40:851,0.7361,5.943,8.24,41.991,0.5508,1.0889,1.016,0.275
17:50:40:880,1.0571,6.027,9.99,40.5909,0.243,1.1539,0.9531,0.2807
17:50:40:891,1.404,5.411,12.441,40.5519,0.1088,0.8673,0.8775,0.2853
17:50:40:911,2.151,5.04,12.9581,41.3398,0.1716,0.3198,0.6038,0.2881
17:50:40:932,2.022,4.763,12.5831,40.4247,0.1759,0.1056,0.1287,0.29
17:50:40:951,0.66,4.473,12.393,41.2573,0.0268,0.1099,-0.2985,0.2918
17:50:40:993,-1.4561,3.932,14.012,40.7569,-0.4388,0.0609,-0.3773,0.2929
17:50:41:010,-1.034,3.345,13.6601,40.7247,-0.4771,-0.3204,-0.1845,0.2926
17:50:41:030,-0.56,2.933,11.9771,40.8341,-0.4664,-0.6614,-0.1621,0.2907
17:50:41:049,-0.1991,2.943,10.059,39.918,-0.6625,-0.9276,-0.3347,0.2876
17:50:41:078,-0.024,3.113,8.951,40.322,-0.9553,-1.1513,-0.5243,0.2843
17:50:41:089,0.167,3.218,8.235,40.258,-1.1323,-1.3537,-0.6458,0.2805
17:50:41:109,0.138,3.101,7.844,39.7768,-1.127,-1.3207,-0.6959,0.2753
17:50:41:132,-0.2201,2.826,8.0141,39.9302,-0.9001,-1.1854,-0.6874,0.2684
17:50:41:149,-0.6611,2.756,8.5001,39.4338,-0.4718,-1.1833,-0.6585,0.2602
17:50:41:180,-0.737,2.649,7.9211,40.5184,-0.0041,-1.2493,-0.5797,0.244
17:50:41:189,-0.723,2.49,6.966,39.8581,0.3666,-1.1598,-0.5063,0.2391
17:50:41:209,-0.668,2.469,6.384,39.6926,0.6307,-0.9585,-0.4327,0.2373
17:50:41:232,-0.342,2.672,5.625,38.2349,0.7213,-0.6986,-0.4082,0.2385
17:50:41:250,-0.359,3.257,5.232,39.0047,0.5573,-0.3919,-0.5254,0.2422
17:50:41:281,-1.046,3.8861,5.3981,39.4416,0.1099,-0.0946,-0.6223,0.2471
17:50:41:289,-1.7141,4.3481,6.614,39.4205,-0.4729,0.2047,-0.5957,0.2514
17:50:41:310,-2.298,4.6211,9.504,39.3906,-0.8584,0.2953,-0.5276,0.2528
17:50:41:332,-2.607,4.715,11.3351,39.8557,-0.7424,-0.069,-0.4082,0.2505
17:50:41:349,-1.652,5.2031,11.0771,39.0738,-0.4058,-0.2182,-0.2463,0.2455
17:50:41:391,-0.452,6.072,11.117,39.6701,0.0587,0.3932,-0.0236,0.2402
17:50:41:409,0.021,6.077,11.4191,38.8424,-0.0692,0.1217,0.0551,0.2362
17:50:41:432,0.456,5.4191,11.675,38.8424,-0.3728,-0.2149,0.004,0.2341
17:50:41:449,0.179,4.1501,11.589,38.8119,-0.5505,-0.3002,-0.1888,0.2331
17:50:41:478,-0.4931,3.2111,12.0821,39.4136,-0.59,-0.1128,-0.3923,0.2288
17:50:41:488,-1.604,2.445,12.822,38.5813,-0.4441,-0.0243,-0.5499,0.2248
17:50:41:509,-2.3441,2.148,12.336,39.3429,-0.1107,-0.2788,-0.6575,0.2203
17:50:41:531,-2.43,2.129,10.169,39.2935,0.1599,-0.5889,-0.6713,0.2165
17:50:41:548,-2.3921,2.253,7.8371,38.436,0.2526,-0.6645,-0.7011,0.2145
17:50:41:582,-2.586,2.6411,6.53,39.2432,0.2207,-0.6421,-0.7417,0.2142
17:50:41:588,-2.4371,2.9171,5.838,39.2547,0.2174,-0.7433,-0.6596,0.2149
17:50:41:607,-1.7741,3.027,5.084,39.2554,0.3975,-0.7124,-0.4466,0.2162
17:50:41:627,-1.1201,3.156,4.452,38.6553,0.748,-0.378,-0.193,0.2182
17:50:41:647,-0.539,3.7571,3.789,39.4517,1.0568,-0.0082,-0.0131,0.222
17:50:41:682,0.0521,4.7359,3.207,38.8569,1.0867,0.1962,0.1372,0.2282
17:50:41:686,0.947,5.6291,2.663,38.7805,0.7426,0.3677,0.3311,0.2363
17:50:41:707,1.814,6.348,3.0731,37.3406,0.1557,0.7309,0.509,0.2448
17:50:41:727,2.013,6.5321,5.043,37.9966,-0.3642,1.2594,0.5548,0.2514
17:50:41:746,1.182,6.3881,8.1221,38.5726,-0.6955,1.2061,0.525,0.2545
17:50:41:793,1.6271,6.441,11.0501,39.4131,-0.9288,0.0353,0.3971,0.254
17:50:41:806,2.1851,6.149,11.354,38.5251,-0.9809,-0.1958,0.1926,0.2507
17:50:41:825,1.7681,5.864,11.709,39.1585,-1.1014,0.1099,-0.1653,0.2452
17:50:41:847,0.351,5.1551,14.184,39.0992,-1.2526,0.5947,-0.3932,0.2299
17:50:41:878,-1.152,3.74,18.48,39.7822,-0.9522,0.5776,-0.3048,0.22
17:50:41:885,-1.1681,2.2129,19.5551,39.7147,0.0448,-0.0296,-0.1749,0.2094
17:50:41:905,-0.1601,1.755,16.476,39.715,1.0772,-0.2171,-0.3432,0.2014
17:50:41:925,-0.1391,2.253,13.4921,39.2661,1.4585,-0.0243,-0.698,0.1996
17:50:41:947,-1.125,2.876,11.508,39.1514,1.2103,-0.2171,-0.9387,0.2041
17:50:41:981,-1.7381,3.144,9.87,38.4405,0.6084,-0.8286,-0.9685,0.2122
17:50:41:985,-1.4921,2.9531,8.22,39.2582,0.0587,-1.6307,-0.9035,0.2204
17:50:42:005,-0.831,2.598,6.329,39.1221,-0.1756,-2.2144,-0.8557,0.2259
17:50:42:025,-0.405,2.5721,4.629,39.3042,-0.1309,-2.3391,-0.8343,0.2282
17:50:42:045,0.08,2.6411,3.3221,39.5901,0.129,-1.864,-0.7821,0.2285
17:50:42:081,0.5981,2.543,3.0581,39.6255,0.4263,-0.8647,-0.6713,0.2286
17:50:42:085,0.665,3.2231,4.028,39.4933,0.6383,-0.0659,-0.4977,0.23
17:50:42:105,0.3221,3.479,5.553,38.865,0.7565,0.2921,-0.3102,0.2333
17:50:42:124,0.068,3.671,6.686,39.6794,0.7927,0.4135,-0.0982,0.2383
17:50:42:148,-0.134,3.879,7.461,39.5492,0.6819,0.5691,0.0115,0.2446
17:50:42:190,-1.4441,4.31,9.056,38.8797,0.179,0.7949,-0.1067,0.2576
17:50:42:204,-1.9391,4.935,10.2341,40.3067,-0.0755,0.7832,-0.1686,0.2624
17:50:42:224,-2.4971,5.5571,11.309,40.0381,-0.3077,0.4774,-0.0982,0.2654
17:50:42:244,-2.3801,6.261,11.4551,39.38,-0.5496,-0.0935,0.0829,0.2662
17:50:42:279,-1.563,6.836,10.368,40.671,-0.8575,-0.3993,0.2959,0.2648
17:50:42:288,-1.367,7.016,10.8611,40.6753,-1.2089,-0.3044,0.542,0.2611
17:50:42:303,-1.527,6.269,12.252,40.5291,-1.3368,-0.4334,0.7956,0.2547
17:50:42:324,-1.365,4.968,12.626,39.6451,-1.1205,-0.6347,0.8946,0.2456
17:50:42:344,-1.472,3.2711,11.982,40.2881,-0.6102,-0.6071,0.8371,0.2351
17:50:42:381,-1.286,2.297,10.002,41.0324,0.0928,-0.3908,0.6581,0.2254
17:50:42:383,-1.494,2.337,7.074,41.0351,0.6372,0.1547,0.2981,0.2187
17:50:42:403,-2.5931,3.0701,5.4071,40.4145,0.5456,1.009,0.0125,0.2164
17:50:42:423,-3.7541,3.4721,6.738,41.8838,-0.0095,1.4138,0.0381,0.2178
17:50:42:443,-3.9911,2.751,8.297,40.5155,-0.3609,0.7895,0.2672,0.2199
17:50:42:480,-2.715,2.249,7.188,41.9592,-0.2258,-0.1244,0.3769,0.2202
17:50:42:483,-1.425,2.289,5.036,41.9485,0.1301,-0.2694,0.3343,0.2189
17:50:42:508,-0.555,2.9021,3.609,41.3848,0.439,0.1983,0.3374,0.2179
17:50:42:523,-0.0191,3.8621,3.264,39.9872,0.5562,0.7778,0.4696,0.2188
17:50:42:543,0.588,4.82,3.803,41.6211,0.4635,1.156,0.6645,0.2218
17:50:42:587,1.397,5.8061,5.9291,41.6529,0.1664,1.5863,0.9201,0.2261
17:50:42:600,1.797,5.919,7.368,42.0006,-0.0286,1.8666,1.0906,0.2303
17:50:42:620,2.2931,5.696,9.75,41.3735,-0.0701,2.0508,1.1918,0.2336
17:50:42:640,2.427,5.256,12.123,42.492,0.177,1.7174,1.1748,0.2359
17:50:42:661,2.772,5.213,12.7481,42.7124,0.3677,1.0633,1.0022,0.2369
17:50:42:680,2.7641,5.117,12.2,43.3825,0.0374,0.5307,0.6634,0.2375
17:50:42:700,2.348,4.8491,13.2221,43.3212,-0.8148,0.3156,0.2032,0.2389
17:50:42:725,0.8231,3.4631,16.871,42.5118,-1.4955,0.0012,-0.2303,0.2406
17:50:42:739,-0.266,1.9571,20.3921,42.3457,-1.3304,-0.8712,-0.5222,0.2398
17:50:42:759,0.023,1.1569,19.59,41.2433,-0.3279,-1.6563,-0.8801,0.2341
17:50:42:781,-0.249,1.3961,15.798,42.7771,0.7182,-1.554,-1.2178,0.2247
17:50:42:799,-1.427,2.625,12.336,43.3258,1.1324,-1.0119,-1.3159,0.2162
17:50:42:820,-2.7821,3.719,10.2581,43.2221,0.9471,-0.6827,-1.1837,0.2129
17:50:42:840,-3.156,3.6731,9.2,43.532,0.5115,-0.8595,-0.8907,0.2152
17:50:42:863,-2.406,3.1901,7.629,43.528,0.2196,-1.4497,-0.7491,0.2209
17:50:42:883,-1.539,3.015,5.498,44.8665,0.0417,-1.7883,-0.8535,0.227
17:50:42:900,-0.972,3.036,4.241,44.847,-0.0936,-1.7916,-1.0612,0.2317
17:50:42:920,-0.7451,3.1031,3.681,43.7186,-0.1639,-1.6339,-1.1943,0.2349
17:50:42:940,-0.522,3.302,3.8291,44.3491,-0.0979,-1.3229,-1.1709,0.2366
17:50:42:963,-0.5651,3.41,4.258,44.2657,0.1727,-0.9255,-1.0037,0.2372
17:50:42:990,-0.4811,3.704,4.349,44.5368,0.5019,-0.4462,-0.7193,0.2371
17:50:42:998,-0.5201,4.059,4.7201,44.4857,0.7043,0.2431,-0.452,0.2373
17:50:43:019,-1.125,4.391,5.6231,43.0517,0.8055,0.7608,-0.2718,0.2387
17:50:43:039,-1.949,4.6331,5.943,43.9225,0.683,1.0709,-0.0225,0.2422
17:50:43:059,-2.279,4.8221,6.7841,44.8175,0.3091,1.4799,0.2618,0.2476
17:50:43:081,-2.732,4.901,9.018,44.7394,-0.1341,1.7589,0.4121,0.254
17:50:43:099,-3.2201,5.004,11.651,44.722,-0.4484,1.3574,0.3993,0.26
17:50:43:119,-3.12,5.2631,12.585,43.57,-0.4782,0.3997,0.249,0.2641
17:50:43:139,-2.7371,5.8061,10.65,44.5533,-0.5624,-0.2523,0.1734,0.2653
17:50:43:159,-2.571,6.3881,9.81,44.5373,-1.0332,-0.2746,0.3758,0.2639
17:50:43:183,-2.471,6.173,10.995,45.6764,-1.5977,-0.247,0.7029,0.2609
17:50:43:198,-2.502,4.6331,12.678,45.5997,-1.7575,-0.3215,0.8988,0.2559
17:50:43:219,-2.789,2.6891,13.298,45.2705,-1.3613,-0.3044,0.9053,0.2477
17:50:43:238,-2.8991,1.511,12.396,45.7977,-0.6401,-0.117,0.7561,0.2359
17:50:43:258,-3.1391,1.6001,10.473,44.92,0.0022,0.2366,0.4377,0.2227
17:50:43:283,-3.785,2.4551,9.044,45.3251,0.3058,0.518,0.1244,0.2111
17:50:43:298,-4.1111,3.216,7.6601,45.3251,0.3304,0.3358,0.0477,0.2035
17:50:43:317,-3.656,3.554,5.982,44.6976,0.2131,-0.0253,0.2075,0.1999
17:50:43:337,-2.631,3.683,4.727,45.3186,0.0778,-0.0935,0.4536,0.1992
17:50:43:357,-1.599,3.7451,4.363,44.1349,0.0278,0.1706,0.6879,0.2
17:50:43:392,-0.95,3.7931,4.71,44.9159,0.1418,0.4646,0.8658,0.2012
17:50:43:397,-0.2201,4.083,4.4951,44.3421,0.356,0.6212,0.9724,0.2024
17:50:43:417,0.8591,4.672,4.16,43.5327,0.4709,0.9621,1.0458,0.2038
17:50:43:436,1.826,5.1311,4.605,44.1513,0.4784,1.5693,1.114,0.206
17:50:43:457,2.264,5.0831,6.473,45.1857,0.5306,2.2927,1.1672,0.2092
17:50:43:479,2.422,4.8251,9.054,45.2259,0.7756,2.6219,1.1546,0.2129
17:50:43:498,2.685,4.83,10.751,45.1511,1.1005,2.3683,0.998,0.2168
17:50:43:516,3.047,5.076,11.048,45.3675,1.1336,1.7461,0.7263,0.2213
17:50:43:536,2.9891,5.148,10.986,44.1167,0.766,1.0644,0.3215,0.2273
17:50:43:556,1.902,5.562,11.022,45.5023,-0.0414,0.6425,-0.176,0.2348
17:50:43:583,-0.2321,5.6771,13.377,45.1636,-1.129,0.5456,-0.6192,0.2425
17:50:43:597,-2.792,4.5881,18.6731,44.3936,-1.7672,0.0535,-0.7491,0.2479
17:50:43:617,-3.68,3.077,21.999,44.1869,-1.3229,-1.0714,-0.7161,0.2476
17:50:43:636,-3.141,2.127,19.653,45.3934,-0.1075,-1.8917,-0.9355,0.2405
17:50:43:656,-3.146,2.4191,14.654,44.4565,0.7873,-1.8087,-1.1901,0.2296
17:50:43:681,-3.6371,3.489,11.285,44.5226,0.912,-1.2706,-1.188,0.2208
17:50:43:695,-3.9341,3.9581,10.272,43.1036,0.7139,-1.0671,-0.9717,0.2179
17:50:43:715,-3.3881,3.915,9.027,44.1354,0.602,-1.5615,-0.7704,0.22
17:50:43:734,-2.468,3.621,6.485,44.6494,0.5413,-2.1016,-0.7096,0.2245
17:50:43:754,-1.659,3.467,3.995,44.0691,0.4273,-2.1836,-0.7639,0.2296
17:50:43:791,-1.013,3.491,2.4581,45.2295,0.293,-1.8161,-0.8577,0.2401
17:50:43:797,-0.632,3.5891,1.842,45.2393,0.2025,-1.1791,-0.9228,0.2448
17:50:43:814,-0.6581,3.8381,2.529,43.679,0.1588,-0.4632,-0.879,0.2487
17:50:43:834,-1.08,4.049,4.497,44.4076,0.2665,-0.0883,-0.7065,0.2517
17:50:43:855,-1.446,4.016,5.106,44.3687,0.5573,-0.0764,-0.4093,0.2544
17:50:43:879,-1.4201,4.1021,4.275,43.6157,0.749,0.3378,-0.0726,0.2575
17:50:43:897,-1.776,4.334,4.521,43.7557,0.6989,1.1688,0.1393,0.2621
17:50:43:914,-2.8511,4.217,5.79,43.9048,0.4784,1.8463,0.2959,0.2679
17:50:43:933,-3.725,4.178,7.8041,44.0375,0.2057,2.1372,0.4227,0.2737
17:50:43:954,-4.506,4.403,9.978,44.57,-0.0905,1.7696,0.4588,0.2786
17:50:43:981,-4.508,4.763,11.172,44.1905,-0.4697,0.8097,0.4386,0.2816
17:50:43:995,-3.716,5.024,10.6241,44.0951,-0.7754,-0.1585,0.3289,0.2819
17:50:44:013,-2.658,5.457,9.111,43.7299,-1.094,-0.5602,0.2948,0.2794
17:50:44:033,-1.9751,6.048,9.159,43.2079,-1.5295,-0.3354,0.413,0.274
17:50:44:052,-2.1,5.964,10.94,42.4019,-1.8354,-0.1213,0.5899,0.2657
17:50:44:080,-2.4521,4.9571,12.386,41.5242,-1.8246,-0.2427,0.7902,0.2544
17:50:44:094,-2.9141,3.4961,11.934,41.3841,-1.4635,-0.413,0.8849,0.2405
17:50:44:114,-3.074,2.7851,9.6641,43.2175,-1.1248,-0.2447,0.8041,0.2261
17:50:44:133,-3.405,2.696,8.879,43.1666,-1.0673,0.4529,0.5804,0.2129
17:50:44:152,-4.3121,2.577,10.746,41.485,-0.8851,0.927,0.3695,0.2009
17:50:44:189,-4.776,2.555,11.867,42.6588,-0.2491,0.6255,0.3119,0.1897
17:50:44:196,-4.092,2.8661,9.719,42.8964,0.4763,0.0333,0.3502,0.1806
17:50:44:212,-3.254,3.269,6.9371,42.8659,0.8609,0.014,0.4812,0.176
17:50:44:232,-2.253,3.551,5.117,42.4004,1.0079,0.2238,0.6677,0.1766
17:50:44:253,-0.912,3.953,4.3151,42.4014,1.0142,0.536,0.8425,0.1812
17:50:44:278,0.368,4.547,4.787,42.7238,0.9706,0.8205,0.9394,0.1886
17:50:44:291,1.56,5.213,5.4071,42.6713,0.8789,0.9068,0.9255,0.1973
17:50:44:313,2.319,5.507,6.3821,42.6278,0.6713,1.0527,0.8669,0.2065
17:50:44:333,2.8391,5.399,8.127,42.9527,0.5508,1.1187,0.7743,0.2149
17:50:44:352,3.207,5.27,9.5471,43.0363,0.6414,1.1092,0.5686,0.2221
17:50:44:383,2.693,5.0381,10.7411,42.3702,0.8257,1.0814,0.3471,0.2284
17:50:44:396,2.151,4.968,11.45,42.0327,0.8407,0.9109,0.247,0.2346
17:50:44:413,1.9481,4.892,11.903,43.2536,0.6298,0.7789,0.0839,0.2412
17:50:44:430,1.22,4.5491,12.47,42.1337,0.2856,0.8321,-0.1877,0.2474
17:50:44:450,-0.299,4.008,14.733,42.103,-0.0456,0.8332,-0.421,0.252
17:50:44:482,-1.25,3.245,17.1341,42.3664,-0.0659,0.1174,-0.568,0.2542
17:50:44:490,-0.8,2.3711,16.265,41.5317,0.3143,-0.9937,-0.8045,0.2544
17:50:44:513,-0.704,2.1701,12.3581,41.9373,0.6765,-1.4847,-1.188,0.2547
17:50:44:530,-1.041,2.816,9.1091,41.1523,0.5753,-1.276,-1.3967,0.257
17:50:44:550,-1.515,3.455,7.6841,41.6551,0.1599,-0.9511,-1.4032,0.2607
17:50:44:591,-1.992,3.5801,7.8641,41.4068,-0.2779,-0.8775,-1.368,0.2635
17:50:44:599,-2.4971,3.6041,8.093,40.2739,-0.476,-1.1407,-1.3936,0.2639
17:50:44:611,-2.9831,3.5081,8.1371,40.1595,-0.4239,-1.3644,-1.2583,0.2616
17:50:44:630,-3.218,2.943,8.1461,40.0058,-0.067,-1.4571,-0.9398,0.2576
17:50:44:649,-2.6,2.0861,7.2911,40.2951,0.4817,-1.4304,-0.7096,0.2536
17:50:44:680,-2.2001,1.6451,5.948,40.525,0.9536,-1.3069,-0.6788,0.2518
17:50:44:690,-2.444,1.5401,4.1741,40.5162,0.9823,-0.9991,-0.6288,0.2534
17:50:44:709,-2.1791,1.743,5.079,40.0498,0.5616,-0.2106,-0.5765,0.258
17:50:44:730,-3.1871,1.8971,8.826,38.1113,0.26,0.1728,-0.698,0.2633
17:50:44:750,-4.772,2.1,10.9091,38.9839,0.2014,-0.4983,-0.8002,0.2674
17:50:44:782,-5.277,2.907,9.686,39.873,0.0661,-1.2152,-0.8002,0.27
17:50:44:789,-5.382,3.9221,8.781,39.9272,-0.2384,-1.1214,-0.6948,0.2714
17:50:44:811,-5.4491,4.475,9.3101,38.8979,-0.5474,-0.8147,-0.4498,0.2712
17:50:44:829,-5.262,4.808,10.401,38.2783,-0.8905,-0.7924,-0.1462,0.2689
17:50:44:849,-3.9071,5.613,11.958,38.2998,-1.2345,-1.1674,-0.0631,0.2643
17:50:44:880,-3.108,5.7941,12.0701,38.0962,-1.2302,-1.4975,-0.1856,0.2568
17:50:44:889,-2.6651,6.0341,11.2901,38.0417,-1.0204,-1.3197,-0.1089,0.247
17:50:44:912,-2.066,6.551,12.128,37.6705,-0.7776,-0.8019,0.0818,0.2363
17:50:44:930,-2.976,6.111,13.04,38.1283,-0.1331,-0.4909,0.0722,0.2262
17:50:44:948,-4.089,5.8451,11.496,37.6779,0.8023,-0.1915,0.0616,0.2183
17:50:44:992,-4.3001,6.237,7.919,37.7868,1.629,1.1252,0.639,0.2153
17:50:45:013,-3.512,5.6651,7.6121,37.2738,1.5991,1.1965,0.9223,0.2186
17:50:45:028,-1.958,4.454,6.738,36.7983,1.3732,0.7789,1.1151,0.2272
17:50:45:048,-0.527,3.293,5.094,36.5389,1.1016,0.4913,1.0821,0.2394
17:50:45:077,0.413,2.9051,4.148,36.4413,0.7671,0.5115,0.853,0.2662
17:50:45:087,0.339,3.041,4.5,36.3385,0.4922,0.6053,0.5963,0.2778
17:50:45:110,-0.2471,3.264,5.6561,37.2879,0.4209,0.3284,0.5548,0.2869
17:50:45:128,0.114,3.281,5.805,36.0653,0.5477,-0.2822,0.7178,0.2939
17:50:45:149,1.6631,3.597,4.94,37.1123,0.7597,-0.5016,0.8169,0.2997
17:50:45:181,2.9651,4.368,4.473,34.7607,0.9343,-0.1191,0.7189,0.3059
17:50:45:186,3.863,6.089,5.51,34.7788,0.961,0.2505,0.5196,0.3131
17:50:45:207,4.4621,7.842,6.518,35.8393,0.7224,0.0524,0.3098,0.3211
17:50:45:226,3.945,8.4191,7.1621,34.6716,0.2463,-0.1969,0.1361,0.3293
17:50:45:248,3.114,8.502,8.354,35.8541,-0.2343,-0.5185,-0.0918,0.3361
17:50:45:282,2.882,8.457,9.444,35.2099,-0.5794,-0.753,-0.3741,0.3399
17:50:45:287,1.931,7.727,9.935,35.2156,-0.704,-0.5261,-0.5851,0.3405
17:50:45:306,-0.086,7.1741,11.295,34.3636,-0.7785,-0.0329,-0.6661,0.3381
17:50:45:326,-2.03,6.2591,13.9331,34.992,-0.8755,0.1823,-0.5467,0.3337
17:50:45:346,-2.3561,4.878,15.968,34.9933,-0.5442,-0.3374,-0.2687,0.3277
17:50:45:391,-0.1481,3.111,9.5111,34.8155,0.8757,-0.6379,0.0668,0.3212
17:50:45:405,0.2651,3.3431,7.076,34.7486,0.9886,-0.216,0.1106,0.317
17:50:45:425,0.4901,3.575,6.176,35.6607,0.6137,-0.1926,0.0573,0.317
17:50:45:448,0.8801,3.515,5.513,34.8519,0.1152,-0.6155,-0.1132,0.3207
17:50:45:479,1.7231,3.558,4.569,35.0648,-0.2833,-0.9713,-0.4136,0.33
17:50:45:485,2.072,3.635,4.196,35.06,-0.4899,-0.7891,-0.8482,0.3317
17:50:45:505,1.268,3.987,5.082,33.1413,-0.4729,-0.3833,-1.2295,0.331
17:50:45:527,0.0521,4.521,6.1331,34.6529,-0.2534,-0.2566,-1.3424,0.3286
17:50:45:544,-0.5531,5.067,6.602,34.0248,0.0726,-0.2149,-1.1795,0.3259
17:50:45:579,-0.603,6.032,7.236,34.6445,0.4273,-0.0957,-0.9281,0.324
17:50:45:589,-0.44,6.683,7.04,34.8812,0.667,-0.0446,-0.6458,0.3242
17:50:45:604,-0.5291,6.8261,6.626,35.5646,0.6531,0.1877,-0.3134,0.327
17:50:45:624,-0.584,7.08,7.5551,34.5732,0.5072,0.325,-0.1408,0.3316
17:50:45:647,-0.4811,7.3271,8.354,35.512,0.3719,0.1675,-0.0961,0.3369
17:50:45:680,-0.0221,7.554,8.601,35.5074,0.2526,0.012,-0.0492,0.342
17:50:45:684,0.2051,7.889,8.919,35.4898,0.2057,0.0268,-0.1387,0.3463
17:50:45:704,-0.263,8.5001,8.982,35.4946,0.2313,0.1675,-0.3156,0.3496
17:50:45:724,-1.4651,9.027,8.994,35.235,0.275,0.4839,-0.3528,0.3524
17:50:45:745,-3.6221,8.8451,9.702,34.5445,0.2238,0.8258,-0.0716,0.3555
17:50:45:790,-4.396,6.1871,11.534,35.0124,0.2717,0.0811,0.7305,0.3585
17:50:45:803,-3.146,4.992,8.805,35.7919,0.6733,-0.1724,0.6911,0.3611
17:50:45:824,-2.337,5.052,6.26,34.8139,0.9152,0.2025,0.4929,0.3635
17:50:45:847,-1.9151,5.601,4.672,35.5554,0.8214,0.5189,0.3993,0.3668
17:50:45:880,-1.1471,5.8421,3.743,35.3641,0.4615,0.5851,0.4377,0.3782
17:50:45:887,-0.3521,5.5361,3.444,36.331,-0.099,0.5041,0.4471,0.3848
17:50:45:903,0.222,4.976,4.083,35.2194,-0.6443,0.3241,0.3407,0.3896
17:50:45:923,0.4421,4.4921,4.713,35.5055,-0.8925,0.0087,0.2692,0.391
17:50:45:946,0.8561,4.377,4.6961,35.8264,-0.8521,-0.1937,0.3365,0.3887
17:50:45:981,1.227,4.4081,4.548,36.158,-0.6859,-0.0648,0.4887,0.3838
17:50:45:984,1.4711,4.521,5.3831,36.158,-0.492,0.2377,0.6848,0.378
17:50:46:003,1.574,4.7291,6.374,36.012,-0.1778,0.2377,0.7913,0.3724
17:50:46:029,1.859,5.622,6.348,36.0018,0.177,0.0588,0.6612,0.368
17:50:46:046,2.226,7.02,5.831,36.1009,0.2728,-0.0381,0.3993,0.3656
17:50:46:082,1.9961,8.081,5.8001,36.3165,0.08,0.0833,0.1159,0.3653
17:50:46:085,1.17,8.5601,7.89,35.9854,-0.1926,0.2335,-0.0716,0.3661
17:50:46:103,0.5689,8.462,10.112,36.3328,-0.2938,-0.232,-0.1217,0.3665
17:50:46:123,0.8351,7.8101,10.346,35.1379,-0.1704,-0.6975,-0.1408,0.3656
17:50:46:145,1.524,7.3481,10.251,36.4567,0.0556,-0.7242,-0.2868,0.3639
17:50:46:194,1.0121,8.0231,9.1781,37.4212,0.4911,-0.6432,-1.0666,0.3625
17:50:46:200,0.2381,9.101,8.5361,37.4184,0.2302,-0.4216,-1.2466,0.3623
17:50:46:220,-0.771,9.0101,9.03,37.3663,-0.3865,-0.3587,-0.9302,0.364
17:50:46:244,-1.116,7.214,10.521,36.3861,-0.9245,-0.4505,-0.3059,0.3664
17:50:46:261,-0.3761,4.9451,11.948,37.8887,-0.8755,-0.656,0.1936,0.3674
17:50:46:281,0.648,3.6641,10.8971,37.1175,-0.3142,-0.8553,0.2299,0.3651
17:50:46:300,0.6671,3.3761,8.189,37.0829,0.1418,-0.6282,-0.0375,0.3599
17:50:46:320,0.368,4.0849,6.36,37.0754,0.144,-0.2203,-0.3187,0.3543
17:50:46:345,-0.0551,4.6451,6.0371,36.4186,-0.2747,-0.1458,-0.5541,0.3506
17:50:46:361,-0.306,4.638,6.056,37.3363,-0.6667,-0.5708,-0.8961,0.3488
17:50:46:382,-0.704,4.832,5.22,37.9827,-0.7487,-0.965,-1.3222,0.3474
17:50:46:400,-1.472,5.15,4.313,37.9353,-0.5965,-0.8339,-1.5587,0.3443
17:50:46:420,-1.7981,5.234,4.1501,37.3034,-0.2725,-0.2916,-1.4021,0.3395
17:50:46:444,-0.924,5.648,4.821,36.7377,0.1983,0.2175,-0.9696,0.3341
17:50:46:460,-0.0191,6.173,4.964,36.0518,0.6329,0.5701,-0.4785,0.3294
17:50:46:480,0.327,6.417,5.141,36.6418,0.7842,0.9206,-0.0578,0.3268
17:50:46:500,0.5711,6.5411,5.8361,36.6137,0.5999,1.0186,0.1958,0.3275
17:50:46:519,0.8111,6.618,7.007,36.3361,0.225,0.91,0.2916,0.3314
17:50:46:545,1.019,6.7811,8.943,36.749,-0.1746,0.6522,0.3066,0.337
17:50:46:560,1.194,6.731,10.538,36.8128,-0.3993,0.3539,0.231,0.3424
17:50:46:591,0.8831,7.2311,11.838,36.7953,-0.4451,0.1899,-0.0705,0.3459
17:50:46:598,-0.213,8.1191,12.879,35.8413,-0.4089,0.0364,-0.5233,0.3466
17:50:46:618,-1.772,9.0431,13.409,35.8239,-0.2534,-0.166,-0.8898,0.3452
17:50:46:639,-3.627,9.087,13.121,35.8182,-0.0542,-0.232,-0.8141,0.3425
17:50:46:661,-4.59,8.16,12.875,36.0893,0.1332,-0.2331,-0.3304,0.3393
17:50:46:680,-4.3451,6.0581,12.008,36.072,0.4806,-0.3098,0.1851,0.3366
17:50:46:697,-3.4091,4.1381,9.786,35.14,0.9653,-0.3673,0.5068,0.3351
17:50:46:717,-2.7581,3.12,6.954,35.7881,1.2731,-0.1446,0.5697,0.3353
17:50:46:737,-2.511,3.072,4.533,35.2596,1.222,0.2335,0.4121,0.3382
17:50:46:763,-2.3411,3.654,3.087,35.0066,0.7501,0.5936,0.1766,0.3442
17:50:46:780,-2.318,4.277,3.3791,34.7498,0.0065,0.7661,-0.0407,0.3615
17:50:46:797,-2.607,4.7,4.943,34.7421,-0.605,0.406,-0.1909,0.3684
17:50:46:818,-2.607,5.012,5.493,33.7369,-0.8339,-0.3183,-0.1441,0.3714
17:50:46:837,-1.7261,5.1581,4.694,35.0066,-0.6944,-0.7465,0.069,0.3701
17:50:46:859,-0.555,5.3831,3.597,35.5607,-0.3748,-0.6336,0.3204,0.3659
17:50:46:879,0.327,5.711,3.1331,35.5424,-0.0659,-0.1606,0.5611,0.361
17:50:46:897,1.079,6.2831,3.4271,35.5209,0.1525,0.2207,0.7422,0.3572
17:50:46:916,1.6271,7.0061,3.401,35.526,0.1493,0.3475,0.7413,0.3553
17:50:46:936,1.641,7.6931,4.1501,33.7204,-0.1682,0.5808,0.5719,0.355
17:50:46:961,1.0001,7.935,6.269,34.1488,-0.5229,0.6542,0.3758,0.3551
17:50:46:990,0.674,8.069,8.661,33.9157,-0.6816,0.3145,0.2575,0.3541
17:50:46:997,0.746,7.971,9.587,33.9329,-0.6124,-0.0329,0.1873,0.3514
17:50:47:015,0.923,7.7531,10.1501,33.8984,-0.4408,0.0257,0.0744,0.3473
17:50:47:036,0.854,7.506,11.321,33.6964,-0.1543,0.0631,-0.0896,0.3427
17:50:47:060,0.533,7.7651,10.8281,33.3607,0.2079,-0.0903,-0.3986,0.3388
17:50:47:078,-0.474,8.45,9.638,32.9567,0.2344,0.1567,-0.6809,0.3366
17:50:47:096,-1.604,8.397,10.6271,32.9567,-0.1639,0.4604,-0.5691,0.3364
17:50:47:116,-2.0351,7.0871,12.887,32.2688,-0.4175,0.2005,-0.1462,0.3365
17:50:47:136,-1.185,5.4191,12.695,33.1938,-0.1789,-0.345,0.2885,0.3354
17:50:47:156,-0.041,4.3001,10.677,33.1938,0.2068,-0.2043,0.5079,0.3335
17:50:47:183,0.1241,3.8291,9.525,33.1938,0.3729,0.1547,0.4844,0.3324
17:50:47:195,-0.2111,3.8741,8.484,33.1938,0.1972,0.0609,0.2874,0.333
17:50:47:215,-0.1151,3.984,7.6391,33.0698,-0.2023,-0.444,-0.045,0.3343
17:50:47:235,0.2,4.059,6.554,32.7943,-0.4569,-1.147,-0.5158,0.3347
17:50:47:254,0.0761,4.3241,4.6031,33.4075,-0.4536,-1.5029,-1.0058,0.3328
17:50:47:280,-0.4601,4.739,2.73,32.1272,-0.3823,-1.0821,-1.3094,0.3293
17:50:47:294,-0.831,5.1791,2.6111,32.124,-0.281,-0.1435,-1.27,0.3253
17:50:47:314,-0.824,5.361,4.071,32.2137,-0.0734,0.5552,-0.9003,0.3218
17:50:47:334,-0.927,5.103,5.6321,32.2027,0.3015,0.8557,-0.3411,0.3196
17:50:47:354,-0.563,4.988,5.721,31.5751,0.7128,1.0132,0.1213,0.3194
17:50:47:390,-0.3731,5.3441,5.627,32.2456,0.8715,1.4703,0.265,0.322
17:50:47:394,-0.7091,6.06,6.518,32.2306,0.8075,1.7685,0.1563,0.3276
17:50:47:413,-1.3001,6.783,7.263,31.7741,0.6212,1.6514,0.0243,0.3352
17:50:47:434,-2.028,7.7171,7.794,32.5666,0.1972,1.3478,0.0434,0.3437
17:50:47:454,-2.4971,8.579,9.353,32.8639,-0.4015,0.8918,0.1361,0.3511
17:50:47:478,-2.552,8.636,10.967,32.3808,-0.7136,0.4273,0.1766,0.3557
17:50:47:493,-2.1521,9.134,11.5511,30.9783,-0.5229,0.2101,0.0403,0.356
17:50:47:513,-3.215,9.417,11.39,32.3555,-0.2694,0.4168,-0.0598,0.3536
17:50:47:534,-4.91,9.108,11.9411,31.45,-0.1266,0.5882,0.2267,0.3507
17:50:47:554,-5.478,7.746,12.2831,32.3705,-0.0158,0.3965,0.8093,0.3485
17:50:47:579,-4.7,5.375,10.854,32.4071,0.1695,0.0077,1.3761,0.3474
17:50:47:593,-3.4331,3.51,8.048,32.4071,0.4166,-0.052,1.5976,0.3475
17:50:47:612,-2.607,2.6051,5.6441,31.9792,0.5317,0.3432,1.4411,0.3492
17:50:47:632,-2.4281,2.6681,4.007,32.485,0.3569,0.8013,1.0544,0.3524
17:50:47:652,-2.6771,3.216,3.5111,31.6799,-0.1746,1.0985,0.6517,0.3564
17:50:47:680,-2.883,3.798,4.133,31.0984,-0.8575,0.9654,0.3204,0.3594
17:50:47:692,-2.895,4.4591,5.412,31.0984,-1.3166,0.3699,0.1435,0.3592
17:50:47:712,-2.409,4.779,5.85,31.2349,-1.3623,-0.2746,0.282,0.3546
17:50:47:732,-1.149,5.0141,5.532,31.0582,-1.0354,-0.4557,0.6176,0.3465
17:50:47:751,0.1931,5.471,5.1131,31.2349,-0.5112,-0.1106,0.9287,0.3372
17:50:47:790,1.031,5.723,5.333,31.9857,-0.0021,0.3901,1.1928,0.3291
17:50:47:796,1.8041,5.538,5.855,31.9857,0.3772,0.5669,1.3655,0.3239
17:50:47:812,3.1121,5.742,5.817,31.6779,0.6084,0.601,1.261,0.3223
17:50:47:831,3.384,6.324,5.268,30.3115,0.5402,0.9547,0.8562,0.3239
17:50:47:851,1.73,6.8171,7.064,31.4279,0.0481,1.3734,0.4462,0.3276
17:50:47:879,-0.294,6.927,10.6841,32.2339,-0.4302,0.8673,0.2129,0.331
17:50:47:892,-1.1081,6.597,12.8411,32.2339,-0.5123,-0.3332,0.1574,0.3318
17:50:47:911,0.1571,6.3041,11.6921,31.4239,-0.3003,-1.195,0.0434,0.33
17:50:47:930,1.148,6.474,10.296,31.6757,-0.0968,-0.9778,-0.3997,0.3273
17:50:47:950,-0.287,6.783,9.4991,30.308,-0.0692,-0.3013,-0.9355,0.3252
17:50:47:981,-3.194,7.865,10.6121,31.4558,-0.4345,0.3688,-1.1667,0.3235
17:50:47:991,-5.598,7.779,14.024,31.4558,-0.9468,0.0759,-0.9302,0.3212
17:50:48:009,-4.788,6.225,14.802,31.8191,-0.9214,-1.1492,-0.4199,0.3165
17:50:48:030,-2.1551,4.415,12.132,31.582,-0.3151,-1.4443,-0.1057,0.3096
17:50:48:050,-0.7301,3.537,9.683,31.582,0.4507,-0.7998,-0.1046,0.3032
17:50:48:081,-0.804,3.635,7.847,30.957,0.9632,-0.2277,-0.2207,0.2999
17:50:48:091,-1.137,4.245,6.408,30.957,0.8268,-0.1298,-0.2761,0.3009
17:50:48:110,-0.984,4.4591,5.874,31.5481,0.2793,-0.4514,-0.3645,0.305
17:50:48:130,-0.6701,4.04,5.402,30.1605,-0.0979,-0.9872,-0.5743,0.3094
17:50:48:150,-0.3731,3.788,4.284,30.4765,-0.1437,-1.2035,-0.7608,0.3119
17:50:48:191,-0.081,3.867,3.645,30.8886,0.0311,-0.8073,-0.8173,0.3127
17:50:48:194,-0.048,4.083,4.2889,30.6159,0.3602,-0.1543,-0.7022,0.3129
17:50:48:210,-0.395,4.269,5.1371,31.1087,0.6724,0.1376,-0.4774,0.3136
17:50:48:229,-0.51,4.8131,5.771,30.0309,0.7736,0.0513,-0.3358,0.3162
17:50:48:249,-0.0551,5.435,5.484,29.8742,0.6383,-0.1469,-0.3528,0.3206
17:50:48:285,0.2291,5.979,5.015,29.6403,0.3197,-0.0446,-0.454,0.326
17:50:48:292,-0.215,6.755,5.615,29.3709,-0.082,0.3847,-0.5296,0.3309
17:50:48:309,-1.257,7.652,7.931,29.2956,-0.5048,0.7065,-0.5627,0.334
17:50:48:329,-2.358,8.193,11.225,29.0637,-0.6443,0.6064,-0.5616,0.3348
17:50:48:349,-3.1751,8.7851,13.002,29.8444,-0.3088,0.1738,-0.5424,0.3329
17:50:48:382,-3.852,9.774,12.602,30.3939,0.0939,0.0001,-0.5158,0.3295
17:50:48:388,-4.463,10.217,12.1061,30.2731,0.3879,0.1099,-0.3443,0.3271
17:50:48:407,-4.781,9.582,11.402,29.3187,0.5477,0.1834,0.216,0.3267
17:50:48:428,-4.5131,7.722,10.421,30.4323,0.5019,0.2025,0.9553,0.3286
17:50:48:447,-3.273,5.349,9.597,31.853,0.4476,0.2335,1.4432,0.3321
17:50:48:482,-1.9781,3.506,8.328,32.658,0.5264,0.3017,1.5295,0.3364
17:50:48:490,-1.542,2.562,6.6311,31.7321,0.6179,0.5862,1.2397,0.341
17:50:48:507,-1.832,2.799,5.3111,33.6515,0.52,0.9589,0.7167,0.3462
17:50:48:528,-2.291,3.621,4.876,33.8976,0.08,0.9504,0.2438,0.3516
17:50:48:547,-2.6411,4.233,4.6511,33.173,-0.5655,0.4551,0.0264,0.3558
17:50:48:595,-1.731,4.2889,5.1341,34.592,-1.3271,-0.4184,0.3024,0.3571
17:50:48:609,-0.5891,4.32,5.8481,33.1083,-1.1333,-0.4408,0.4929,0.3543
17:50:48:627,0.045,4.406,6.236,32.9404,-0.5633,-0.3013,0.5867,0.3477
17:50:48:647,0.401,4.8491,5.589,33.4722,0.129,-0.1969,0.6528,0.339
17:50:48:678,1.3301,5.715,4.6601,33.217,0.5391,0.0822,0.7646,0.3256
17:50:48:687,2.1371,6.3551,4.682,32.8594,0.7096,0.4967,0.7743,0.3244
17:50:48:706,2.5271,7.253,4.742,33.9603,0.6042,0.7491,0.5835,0.3265
17:50:48:727,2.108,7.863,6.1091,33.8898,0.0598,1.0942,0.3758,0.3307
17:50:48:746,0.983,7.875,10.1861,34.0437,-0.5229,0.9195,0.2405,0.3346
17:50:48:780,-0.084,7.0661,13.4471,34.8205,-0.5965,-0.0584,0.1595,0.3357
17:50:48:786,0.4661,6.5081,13.397,34.4418,-0.2193,-0.9778,-0.0694,0.3337
17:50:48:807,0.9761,6.891,11.8361,34.1338,0.2014,-1.1822,-0.6203,0.3308
17:50:48:825,-0.405,7.5641,9.98,34.7604,0.374,-0.7839,-1.1815,0.3291
17:50:48:845,-2.4761,8.703,10.437,34.4653,0.1727,-0.181,-1.3872,0.3293
17:50:48:881,-3.8951,8.505,12.173,33.9793,-0.1363,-0.346,-1.0303,0.3302
17:50:48:889,-2.801,6.908,11.958,33.8024,-0.0925,-1.0086,-0.3827,0.3304
17:50:48:905,-0.522,5.225,9.54,34.3225,0.291,-1.0799,0.0861,0.3297
17:50:48:926,0.7751,4.152,7.217,34.9322,0.6574,-0.428,0.2481,0.3297
17:50:48:945,0.657,3.692,6.176,35.7607,0.7543,0.29,0.1904,0.3316
17:50:48:991,-0.218,4.001,5.661,35.4777,-0.0371,-0.0243,-0.2911,0.3354
17:50:49:008,0.147,4.169,5.0651,36.4636,-0.5059,-0.8178,-0.6585,0.34
17:50:49:024,0.21,4.3361,4.038,35.0645,-0.7563,-1.1769,-1.057,0.3432
17:50:49:044,-0.23,4.5761,3.822,36.3322,-0.753,-0.9531,-1.2636,0.3435
17:50:49:079,-0.381,4.925,4.3031,36.5773,-0.4154,-0.5026,-1.1934,0.3359
17:50:49:085,-0.239,5.3471,4.761,35.9324,0.1354,0.029,-0.8449,0.3303
17:50:49:108,-0.503,5.622,5.022,35.9367,0.6403,0.7193,-0.3869,0.3265
17:50:49:127,-0.9461,6.206,6.243,36.9378,0.9653,1.3328,-0.1387,0.3262
17:50:49:144,-1.82,6.807,7.806,37.4924,1.0431,1.4404,-0.0034,0.3297
17:50:49:182,-2.0831,7.0631,8.5871,39.1037,0.8374,1.0325,0.2245,0.3365
17:50:49:184,-1.58,7.221,8.5871,38.6851,0.4817,0.6084,0.3215,0.3444
17:50:49:203,-1.4321,7.53,9.068,39.814,0.1088,0.5467,0.135,0.3516
17:50:49:226,-1.791,8.1821,10.701,40.4928,-0.1288,0.3699,-0.2164,0.3567
17:50:49:245,-2.538,9.0311,11.757,39.5313,-0.0914,-0.1435,-0.5712,0.3594
17:50:49:280,-3.6101,9.8981,11.043,41.1234,0.0331,-0.6347,-0.73,0.36
17:50:49:283,-4.295,10.082,10.0061,41.12,0.0246,-0.7146,-0.4828,0.3598
17:50:49:303,-4.475,9.101,9.5561,39.5632,0.0022,-0.4642,0.0414,0.3595
17:50:49:328,-4.08,7.0391,9.7691,41.3531,0.065,-0.1767,0.6507,0.3591
17:50:49:345,-3.057,4.9301,9.2861,41.1558,0.2515,-0.1244,0.9883,0.359
17:50:49:390,-2.519,3.281,5.9081,43.0253,0.4518,0.4381,0.4579,0.3598
17:50:49:402,-2.76,3.783,5.046,43.3958,0.1588,0.6991,0.0349,0.3617
17:50:49:422,-2.9501,4.5161,4.593,41.4566,-0.3387,0.4253,-0.225,0.3647
17:50:49:442,-2.8541,5.103,4.1741,42.8662,-0.8541,-0.2129,-0.2368,0.3677
17:50:49:462,-2.3921,5.201,3.942,43.7441,-1.1994,-0.836,-0.0055,0.3689
17:50:49:481,-1.061,5.232,3.6191,44.5513,-1.26,-1.114,0.3194,0.3671
17:50:49:501,0.267,5.1671,3.707,44.09,-0.9607,-0.6677,0.5878,0.3619
17:50:49:525,0.933,5.244,4.406,44.1879,-0.3472,-0.0764,0.753,0.3538
17:50:49:542,1.388,5.694,4.3871,44.188,0.225,0.1536,0.8286,0.3445
17:50:49:561,2.051,6.62,3.8201,44.7582,0.3655,0.3113,0.7583,0.3368
17:50:49:585,2.142,7.5971,4.126,45.0296,0.0374,0.6755,0.5142,0.3325
17:50:49:600,1.136,7.715,6.813,46.3192,-0.4697,0.9408,0.264,0.3316
17:50:49:621,0.3371,7.4321,10.205,46.039,-0.6806,0.4401,0.1287,0.3322
17:50:49:642,-0.1871,7.1381,11.9621,45.9316,-0.5144,-0.3257,0.069,0.3319
17:50:49:660,0.183,6.7331,12.171,47.5051,-0.2651,-0.7561,0.1,0.3294
17:50:49:683,0.95,6.348,12.4721,47.8302,0.0289,-0.7337,-0.0726,0.3253
17:50:49:701,0.152,6.2591,11.5481,47.8951,0.3186,-0.5079,-0.5669,0.3213
17:50:49:721,-1.542,6.941,11.606,47.2837,0.2217,-0.1777,-0.9025,0.3183
17:50:49:740,-2.928,6.738,12.729,49.4391,-0.0862,-0.3695,-0.7736,0.3171
17:50:49:760,-2.291,5.7971,12.389,49.4165,-0.1192,-0.9841,-0.4114,0.3175
17:50:49:790,-0.953,4.8011,10.085,50.7556,0.1418,-1,-0.2122,0.3178
17:50:49:800,-0.603,4.523,7.859,50.8522,0.374,-0.4099,-0.2335,0.3172
17:50:49:819,-1.295,5.076,6.8291,50.5887,0.2207,0.1643,-0.3113,0.3167
17:50:49:842,-1.832,5.627,6.7241,50.4964,-0.3567,0.0588,-0.3975,0.3172
17:50:49:860,-1.884,5.457,6.6041,51.2619,-0.9607,-0.6028,-0.5595,0.3186
17:50:49:880,-1.5971,5.282,5.694,52.3026,-1.2185,-1.26,-0.7875,0.3192
17:50:49:899,-1.671,5.234,4.239,53.234,-1.0608,-1.2973,-0.927,0.3166
17:50:49:920,-1.8671,5.292,3.2741,52.5277,-0.5591,-0.6102,-0.7832,0.3104
17:50:49:940,-1.6091,5.471,3.2951,52.2217,0.096,0.3389,-0.3284,0.3019
17:50:49:959,-1.046,5.495,3.813,52.5706,0.5924,1.1326,0.3109,0.2937
17:50:49:981,-0.4721,5.304,5.0501,53.5564,0.8865,1.6844,0.8019,0.2884
17:50:49:998,-0.4331,5.241,6.257,54.2085,0.9812,1.8814,0.9852,0.2875
17:50:50:019,-0.594,5.6801,7.193,53.6132,0.6628,1.6918,0.9511,0.2908
17:50:50:043,-0.9701,5.687,8.637,54.2078,0.1238,1.3861,0.7987,0.2973
17:50:50:059,-0.776,5.663,9.954,54.4911,-0.2258,0.8396,0.5719,0.3052
17:50:50:080,-0.6341,5.8211,10.55,55.0192,-0.4282,0.5521,0.2725,0.3116
17:50:50:098,-1.0991,6.431,11.7971,54.8812,-0.4408,0.5115,-0.1121,0.315
17:50:50:119,-2.4041,7.518,12.927,53.6515,-0.2512,0.4423,-0.4529,0.3154
17:50:50:141,-4.221,8.3561,13.373,54.9406,-0.0021,0.2366,-0.4785,0.3136
17:50:50:158,-5.801,8.165,12.4031,55.8843,0.1546,-0.0349,-0.0694,0.3109
17:50:50:191,-6.0191,7.118,11.4761,55.5561,0.1493,-0.0818,0.5676,0.3085
17:50:50:198,-4.796,4.782,10.7321,54.9016,0.2387,-0.1563,1.0576,0.3073
17:50:50:218,-3.0911,3.096,8.927,56.6135,0.5871,-0.1393,1.064,0.3074
17:50:50:241,-2.064,2.7131,6.702,56.6259,0.9206,0.1856,0.6677,0.3085
17:50:50:257,-1.755,3.551,4.6751,56.9998,0.9078,0.5072,0.2245,0.3112
17:50:50:278,-1.827,4.638,3.243,56.4362,0.4166,0.7289,0.0253,0.3159
17:50:50:297,-1.8551,5.019,3.1331,56.2363,-0.3461,0.8013,0.1255,0.3223
17:50:50:317,-1.3931,4.842,4.634,57.4345,-1.0065,0.5595,0.3268,0.3289
17:50:50:340,-0.62,4.629,6.3941,57.9378,-1.1727,0.111,0.4642,0.3329
17:50:50:358,0.174,4.538,7.157,56.2499,-0.8393,-0.0659,0.5654,0.3325
17:50:50:381,0.332,4.4081,7.617,55.8538,-0.247,0.1601,0.6688,0.3278
17:50:50:397,0.377,4.782,7.38,54.6268,0.407,0.193,0.7444,0.3213
17:50:50:417,0.993,5.787,6.312,55.5687,0.7523,0.0844,0.7743,0.3157
17:50:50:440,1.565,6.8051,5.084,56.4849,0.6659,0.0407,0.6634,0.3131
17:50:50:456,1.347,7.418,5.225,56.4636,0.2409,0.2505,0.4568,0.3146
17:50:50:482,0.8591,7.628,7.4711,56.7669,-0.1596,0.2878,0.2607,0.3189
17:50:50:496,1.0331,7.595,9.492,56.7315,-0.3014,-0.1031,0.1415,0.3235
17:50:50:516,1.179,7.2881,10.3061,56.3948,-0.2065,-0.3886,-0.0333,0.3265
17:50:50:537,0.923,6.9461,11.096,56.3794,0.0172,-0.4056,-0.3198,0.3273
17:50:50:557,0.392,7.133,11.4791,56.1315,0.358,-0.4823,-0.7513,0.3267
17:50:50:593,-1.176,7.463,10.55,56.9878,0.6403,-0.4206,-1.172,0.3259
17:50:50:596,-2.856,8.124,10.3391,56.969,0.5477,-0.2757,-1.2253,0.3261
17:50:50:614,-3.335,7.842,10.8161,56.9024,0.2665,-0.476,-0.8375,0.3279
17:50:50:640,-2.138,6.455,10.16,55.6399,0.2281,-0.7839,-0.2772,0.331
17:50:50:656,-0.536,5.105,8.445,57.4827,0.3953,-0.7242,0.1404,0.334
17:50:50:678,0.188,4.152,6.614,56.7226,0.5019,-0.249,0.2564,0.3365
17:50:50:694,0.0371,3.9821,5.625,56.7857,0.3228,0.1664,0.1042,0.3391
17:50:50:715,-0.4331,4.212,5.445,57.808,-0.2267,0.1738,-0.1749,0.3423
17:50:50:741,-0.618,4.401,5.886,57.3792,-0.8191,-0.362,-0.5105,0.3457
17:50:50:757,-0.3641,4.6481,5.637,57.3522,-1.1184,-1.0747,-0.8673,0.3476
17:50:50:802,-0.371,4.878,4.947,57.6199,-1.0906,-1.2643,-1.1039,0.3408
17:50:50:803,-0.5411,5.15,4.8881,57.0219,-0.7776,-0.7433,-1.1198,0.333
17:50:50:814,-1.1059,5.0831,6.173,56.6715,-0.1331,0.1504,-0.8779,0.3244
17:50:50:834,-1.116,5.265,7.452,57.5719,0.6659,0.4594,-0.4114,0.3175
17:50:50:856,-0.239,5.85,6.7121,57.6797,1.1463,0.3517,-0.0641,0.3146
17:50:50:880,0.042,6.027,5.8601,58.2981,1.1048,0.4711,0.0008,0.3171
17:50:50:894,-0.486,5.852,6.485,57.9191,0.7523,0.6777,-0.0396,0.3234
17:50:50:914,-0.8021,6.0791,7.7531,55.8541,0.4326,0.5424,-0.1919,0.3311
17:50:50:933,-1.2161,6.434,8.4791,57.249,0.1961,0.258,-0.3975,0.3378
17:50:50:956,-1.628,7.016,8.742,57.2592,-0.0595,0.0524,-0.5743,0.3426
17:50:50:990,-2.447,7.8461,9.786,57.116,-0.2417,0.0385,-0.7853,0.3452
17:50:50:994,-3.6821,8.94,11.354,57.1133,-0.2566,-0.0573,-0.9398,0.3455
17:50:51:013,-4.968,9.3641,12.156,54.7304,-0.0914,-0.3268,-0.8354,0.3441
17:50:51:033,-5.921,8.8181,11.601,56.7205,0.1408,-0.5142,-0.3986,0.3421
17:50:51:056,-5.916,7.8371,10.682,55.5631,0.2728,-0.4675,0.1308,0.3407
17:50:51:078,-4.98,5.924,9.81,55.585,0.4326,-0.3663,0.5974,0.3406
17:50:51:092,-3.4361,4.2,8.251,56.5661,0.6553,-0.314,0.8477,0.3419
17:50:51:112,-2.148,3.458,6.267,56.5706,0.798,-0.1,0.6783,0.3449
17:50:51:132,-1.8341,3.666,4.2889,56.2901,0.667,0.2281,0.2139,0.3496
17:50:51:155,-2.229,4.554,3.1781,55.5828,0.0672,0.5467,-0.1823,0.3552
17:50:51:181,-2.9501,5.268,4.416,55.1016,-0.8564,0.5296,-0.3295,0.3601
17:50:51:191,-3.3491,5.1341,6.944,55.0526,-1.4678,-0.281,-0.241,0.3614
17:50:51:212,-2.466,4.65,7.433,53.4546,-1.4124,-1.4411,0.004,0.3571
17:50:51:231,-0.68,4.4201,5.8841,54.5527,-0.8979,-2.012,0.2353,0.3482
17:50:51:254,0.954,4.7981,3.92,53.9576,-0.2981,-1.6541,0.3747,0.3378
17:50:51:281,1.7711,5.3951,3.116,54.489,0.1312,-0.7806,0.4844,0.3292
17:50:51:291,1.979,6.1181,3.647,55.3924,0.2771,-0.0914,0.5728,0.3239
17:50:51:311,1.886,6.68,4.983,54.1598,0.2079,0.0588,0.5526,0.3221
17:50:51:331,1.9121,7.049,5.5631,55.1263,0.015,-0.1511,0.3758,0.3223
17:50:51:351,1.941,7.418,6.3341,55.1304,-0.3151,-0.0531,0.0924,0.3231
17:50:51:391,1.5941,7.356,8.606,53.6308,-0.5965,0.0407,-0.1973,0.323
17:50:51:395,0.689,6.884,10.641,53.7308,-0.5283,-0.183,-0.3986,0.3212
17:50:51:410,0.186,6.7091,11.651,53.3481,-0.2108,-0.4685,-0.4742,0.3177
17:50:51:431,0.3251,6.8051,11.67,52.2397,0.179,-0.6187,-0.6298,0.3139
17:50:51:450,-0.345,7.19,11.1221,52.2512,0.407,-0.3556,-0.96,0.3113
17:50:51:479,-1.511,7.9181,11.57,53.1981,0.3015,-0.0637,-1.1604,0.3107
17:50:51:490,-2.078,7.968,12.554,53.1663,0.0672,-0.1767,-0.9802,0.3117
17:50:51:510,-1.422,7.0781,12.317,52.1791,0.0001,-0.5708,-0.5254,0.3129
17:50:51:530,-0.378,5.6171,10.94,53.2895,0.1088,-0.6964,-0.0353,0.3135
17:50:51:550,0.21,4.389,9.063,52.2253,0.3154,-0.5037,0.247,0.3137
17:50:51:582,0.0851,3.9101,7.335,52.314,0.3655,-0.2907,0.199,0.3143
17:50:51:590,-0.134,4.023,5.967,52.2927,0.0406,-0.4056,-0.0418,0.3157
17:50:51:610,-0.146,4.2,5.0861,52.239,-0.4527,-0.8232,-0.3508,0.3168
17:50:51:630,0.033,4.382,4.184,52.6767,-0.7722,-1.2589,-0.6639,0.3162
17:50:51:649,0.1451,4.461,2.967,52.4649,-0.901,-1.1716,-0.879,0.313
17:50:51:681,0.186,4.6451,2.819,51.7818,-0.8521,-0.2938,-0.9409,0.3074
17:50:51:688,-0.2801,4.839,5.1341,51.6481,-0.5059,0.6874,-0.7767,0.3006
17:50:51:709,-0.6851,4.7771,7.172,50.569,0.1503,0.9014,-0.4029,0.2942
17:50:51:729,-0.086,5.0951,7.2,51.6903,0.7895,0.8514,-0.0631,0.2906
17:50:51:749,0.179,5.6171,6.513,51.4219,0.9632,0.9834,0.0329,0.2913
17:50:51:790,-1.202,6.369,8.438,51.4354,0.1812,1.0431,-0.1823,0.2963
17:50:51:809,-1.731,6.6521,10.3391,50.3432,-0.0659,0.5808,-0.2453,0.3034
17:50:51:828,-1.887,6.975,10.943,50.0688,-0.1213,0.0896,-0.2388,0.3099
17:50:51:848,-1.7621,7.6331,11.201,51.2938,-0.1075,-0.1446,-0.2729,0.314
17:50:51:879,-1.8911,8.39,11.3831,50.5464,-0.0627,-0.0925,-0.4157,0.3161
17:50:51:889,-2.7701,8.804,11.8331,51.3126,0.0683,0.2133,-0.4977,0.3156
17:50:51:907,-4.355,8.397,12.2141,50.306,0.2131,0.4082,-0.2772,0.3156
17:50:51:928,-5.2121,7.1141,12.587,51.3359,0.3091,0.308,0.2001,0.3164
17:50:51:948,-4.396,5.105,11.8211,50.2793,0.5786,-0.0307,0.6581,0.3182
17:50:51:982,-3.189,3.537,9.4031,50.0673,1.0057,-0.1255,0.8636,0.3211
17:50:51:988,-2.6411,2.957,6.6551,50.0123,1.2785,0.1504,0.7871,0.3259
17:50:52:008,-2.4971,3.3311,4.313,49.5637,1.1836,0.4711,0.5389,0.3333
17:50:52:028,-2.6141,4.119,2.9,48.5492,0.5914,0.7139,0.281,0.3426
17:50:52:047,-2.7491,4.7291,3.075,49.6265,-0.2417,0.6522,0.1,0.3519
17:50:52:081,-2.5811,4.985,4.0091,49.0631,-0.8191,0.1089,0.0232,0.3583
17:50:52:088,-1.9421,5.256,4.3901,50.0547,-0.9553,-0.5313,0.1276,0.36
17:50:52:107,-1.07,5.414,3.774,49.7821,-0.7136,-0.6517,0.3747,0.3573
17:50:52:126,-0.215,5.6681,3.485,50.0586,-0.2949,-0.0168,0.6944,0.352
17:50:52:146,0.6,6.2711,4.313,50.0779,0.1418,0.5137,1.0491,0.3469
17:50:52:191,2.003,6.74,4.208,49.1109,0.2174,0.6724,1.5263,0.344
17:50:52:207,2.2571,6.546,4.95,48.9706,-0.1426,0.7044,1.3537,0.344
17:50:52:226,2.2421,7.023,6.362,49.3081,-0.4857,0.6116,0.8008,0.3456
17:50:52:246,1.5671,7.851,8.354,48.2212,-0.7062,0.4796,0.0989,0.347
17:50:52:280,-0.129,8.2271,10.7531,49.0649,-0.6753,0.3688,-0.3198,0.3445
17:50:52:289,-1.247,8.107,12.633,49.0216,-0.3205,0.1814,-0.2453,0.3403
17:50:52:306,-1.01,7.7051,12.626,48.9782,0.2622,-0.0722,-0.0461,0.3357
17:50:52:326,-0.864,7.674,10.289,48.8978,0.6212,0.0172,-0.1078,0.3327
17:50:52:345,-1.523,7.9541,9.3071,48.6604,0.3729,0.5797,-0.257,0.3328
17:50:52:381,-2.4491,7.767,11.192,49.2678,-0.0659,0.8268,-0.2368,0.3351
17:50:52:389,-2.559,6.764,12.5831,49.2641,-0.2694,0.2857,0.0338,0.337
17:50:52:408,-1.863,5.4641,11.18,48.2779,-0.2289,-0.362,0.3215,0.3375
17:50:52:425,-1.022,4.691,8.515,46.9977,-0.2236,-0.623,0.3619,0.3367
17:50:52:445,-0.378,4.3511,6.542,47.9736,-0.3546,-0.6805,0.1893,0.3352
17:50:52:481,0.222,4.2791,5.5871,48.6027,-0.492,-0.7945,-0.0865,0.3329
17:50:52:490,0.552,4.413,4.6481,48.5671,-0.5368,-0.9841,-0.4125,0.3295
17:50:52:506,0.873,4.868,3.533,48.4079,-0.6135,-0.9607,-0.6596,0.3253
17:50:52:524,1.227,5.3081,3.489,47.869,-0.7435,-0.4408,-0.7545,0.3205
17:50:52:544,0.7721,5.138,5.247,48.164,-0.7318,0.2878,-0.6575,0.315
17:50:52:590,-0.3731,3.884,9.111,48.1029,0.2366,0.2346,-0.0131,0.3088
17:50:52:604,-0.1361,4.1381,8.345,48.0659,0.8086,0.1695,0.0392,0.303
17:50:52:627,-0.539,4.82,7.643,48.5914,1.026,0.2974,-0.1057,0.2993
17:50:52:644,-1.4291,5.414,7.356,47.455,0.9141,0.3582,-0.2346,0.3031
17:50:52:682,-2.289,6.0431,7.746,48.2632,0.6435,0.2431,-0.3326,0.3091
17:50:52:684,-2.705,6.561,8.259,48.1209,0.2941,-0.1969,-0.4253,0.3159
17:50:52:706,-2.4251,7.0421,8.3141,48.1393,-0.0681,-0.4931,-0.5094,0.3215
17:50:52:723,-2.246,7.71,9.2261,48.1066,-0.2247,-0.2683,-0.6991,0.3249
17:50:52:743,-3.081,8.6,10.346,48.3951,-0.0701,0.03,-0.9239,0.3261
17:50:52:781,-4.796,9.2111,10.6241,47.161,0.0439,0.2485,-0.8375,0.3261
17:50:52:789,-6.0551,8.823,11.237,47.1665,-0.1138,0.1919,-0.2826,0.3262
17:50:52:808,-5.736,6.987,11.532,48.4054,-0.2332,-0.1128,0.3769,0.3262
17:50:52:823,-4.4051,4.8461,10.902,47.458,-0.0148,-0.3183,0.7987,0.3254
17:50:52:848,-3.266,3.3,9.147,47.1657,0.3964,-0.2683,0.8764,0.3244
17:50:52:880,-2.765,2.921,7.2551,48.1425,0.6787,0.0236,0.6379,0.3246
17:50:52:882,-2.7131,3.4631,5.6231,48.096,0.5829,0.2846,0.2768,0.3269
17:50:52:903,-2.784,4.308,4.8731,46.9097,0.1173,0.4146,0.0158,0.3308
17:50:52:924,-2.658,4.8221,5.1581,47.1605,-0.4408,0.1899,-0.0598,0.3345
17:50:52:944,-2.1311,4.7891,5.292,48.5016,-0.7754,-0.3535,-0.0034,0.3361
17:50:52:990,-0.086,4.743,3.8291,48.7978,-0.5846,-0.7263,0.2405,0.3301
17:50:53:003,0.54,5.177,3.398,48.7389,-0.2577,-0.1435,0.3598,0.3245
17:50:53:022,0.71,5.931,4.0331,47.6374,0.0098,0.4071,0.4749,0.3195
17:50:53:041,0.605,6.6761,5.225,47.6457,0.1354,0.5083,0.5398,0.3164
17:50:53:061,0.7511,7.3751,5.958,47.7407,0.0448,0.3326,0.5185,0.3152
17:50:53:081,0.519,7.466,7.2221,48.7168,-0.1991,0.4029,0.4972,0.3154
17:50:53:102,0.495,7.554,9.3821,48.6775,-0.2758,0.3241,0.4685,0.3155
17:50:53:120,0.588,7.451,10.643,49.1478,-0.084,-0.036,0.3789,0.3149
17:50:53:140,0.722,7.446,10.44,47.7975,0.1195,-0.3161,0.2725,0.3138
17:50:53:160,0.969,7.341,10.16,47.1735,0.177,-0.3087,0.0935,0.3133
17:50:53:181,0.356,7.329,9.698,48.7738,0.1748,-0.0477,-0.242,0.3136
17:50:53:203,-0.9941,7.7051,10.095,48.7834,-0.0286,0.4146,-0.503,0.3144
17:50:53:220,-2.2361,7.6211,11.85,48.7711,-0.3014,0.5851,-0.4338,0.3152
17:50:53:241,-2.5211,6.824,13.265,48.1541,-0.246,0.2494,-0.0353,0.315
17:50:53:260,-1.6931,5.598,12.099,49.2147,0.1216,-0.1,0.4621,0.3138
17:50:53:283,-0.8621,4.631,9.666,49.8465,0.4326,-0.0477,0.7189,0.3129
17:50:53:304,-0.479,4.238,7.722,49.6065,0.4507,0.1451,0.6507,0.3136
17:50:53:320,-0.5051,4.169,6.623,48.7883,0.1759,0.0971,0.4269,0.3158
17:50:53:339,-0.4001,4.1981,5.9321,48.4984,-0.117,-0.2683,0.1606,0.3181
17:50:53:359,0.0521,4.2191,4.845,48.8069,-0.2087,-0.6677,-0.1121,0.3192
17:50:53:390,0.389,4.1741,3.5441,49.669,-0.1107,-0.639,-0.3475,0.319
17:50:53:399,0.5021,4.1861,2.862,49.7082,0.08,-0.1426,-0.4731,0.3183
17:50:53:421,0.4541,4.439,3.185,49.4115,0.26,0.4423,-0.4561,0.3179
17:50:53:439,0.4751,4.8611,4.0931,50.3857,0.3026,0.7213,-0.34,0.3186
17:50:53:459,0.303,5.2031,5.3261,49.5473,0.293,0.748,-0.3176,0.3203
17:50:53:478,-0.359,5.964,6.288,50.6455,0.1994,0.5648,-0.3795,0.3226
17:50:53:498,-0.788,6.489,7.239,49.6515,-0.0829,0.4381,-0.3113,0.3251
17:50:53:518,-0.9671,6.065,8.682,49.8134,-0.1693,0.4199,-0.1706,0.327
17:50:53:538,-0.8,6.125,9.267,50.7926,0.0001,0.4125,-0.1749,0.3275
17:50:53:557,-0.96,6.7091,9.753,49.8122,0.0864,0.4423,-0.3326,0.3273
17:50:53:579,-1.415,7.626,10.6001,51.1708,0.1557,0.3198,-0.6106,0.3273
17:50:53:597,-2.085,8.826,10.842,51.2132,0.275,0.1046,-0.9333,0.3275
17:50:53:617,-3.321,9.896,10.3631,50.0412,0.2227,-0.0158,-1.0942,0.3284
17:50:53:637,-5.0231,9.731,10.272,50.2863,-0.1213,0.1354,-0.7949,0.3299
17:50:53:656,-6.2921,8.5361,12.018,51.2629,-0.4845,0.2238,-0.127,0.3308
17:50:53:679,-5.9501,6.185,13.272,52.1885,-0.4069,-0.1287,0.5771,0.3299
17:50:53:697,-4.463,3.867,11.79,51.1793,0.2174,-0.3928,1.0032,0.3275
17:50:53:719,-3.024,2.505,9.054,51.8972,0.9769,-0.1798,0.9883,0.3259
17:50:53:736,-2.3561,2.34,6.087,51.62,1.4244,0.1738,0.6347,0.3277
17:50:53:756,-2.1431,3.194,3.8801,52.5752,1.2614,0.4945,0.2245,0.3338
17:50:53:789,-2.1161,4.277,3.147,52.4513,0.5966,0.4998,-0.0481,0.3428
17:50:53:797,-2.037,4.7531,3.1421,52.2928,-0.1713,0.047,-0.0982,0.3519
17:50:53:817,-1.559,4.715,3.161,52.2611,-0.7008,-0.5389,0.0296,0.3581
17:50:53:836,-0.725,4.8581,2.982,52.3301,-0.9107,-0.7945,0.1745,0.3597
17:50:53:857,-0.2321,5.2511,3.056,52.535,-0.9118,-0.4685,0.2629,0.3572
17:50:53:879,0.1001,5.9021,4.047,53.6951,-0.6934,-0.0434,0.3044,0.3519
17:50:53:896,0.1001,6.8741,4.382,53.5808,-0.4334,0.1334,0.3151,0.3456
17:50:53:921,-0.141,7.796,4.4711,54.0834,-0.5559,0.3262,0.3407,0.3399
17:50:53:937,-0.3521,8.27,6.264,54.0515,-0.9789,0.3954,0.3832,0.335
17:50:53:957,-0.773,8,8.9,54.0343,-1.1727,0.2463,0.395,0.3295
17:50:53:980,-0.941,7.643,11.354,54.6606,-0.9203,0.1419,0.3812,0.3223
17:50:53:996,-1.0369,7.1591,12.7091,54.4632,-0.327,0.1248,0.3481,0.314
17:50:54:020,-0.9701,6.941,13.698,54.3933,0.3506,0.1163,0.3109,0.3068
17:50:54:037,-0.491,6.587,13.0661,54.1017,0.9439,-0.2192,0.2362,0.3027
17:50:54:055,0,6.539,10.349,54.8332,1.2635,-0.4429,-0.0908,0.303
17:50:54:081,-0.326,7.0781,8.283,54.5368,1.0526,-0.1852,-0.4913,0.3078
17:50:54:095,-0.831,7.3481,8.675,54.3426,0.488,-0.0978,-0.5233,0.3153
17:50:54:120,-0.498,6.6851,8.8121,55.0064,0.0789,-0.3343,-0.2399,0.3224
17:50:54:137,0.1331,5.814,8.2661,54.9832,-0.1309,-0.2938,0.0829,0.3274
17:50:54:155,0.21,4.782,8.0171,54.9927,-0.2215,0.0811,0.2948,0.3298
17:50:54:190,-0.321,4.097,7.947,54.4935,-0.2833,0.2911,0.2948,0.3302
17:50:54:197,-0.737,4.164,7.734,55.2311,-0.5081,0.0535,0.0744,0.3293
17:50:54:213,-0.6971,4.286,7.2551,55.1783,-0.8404,-0.558,-0.2835,0.327
17:50:54:234,-0.4211,4.389,6.564,53.8121,-1.0044,-1.1876,-0.7011,0.3225
17:50:54:253,-0.347,4.4269,5.297,54.8984,-0.9107,-1.3793,-1.0314,0.3156
17:50:54:277,-0.4481,4.487,4.505,55.0954,-0.6412,-0.8221,-1.1539,0.3073
17:50:54:293,-0.828,4.509,5.3501,54.3251,-0.1917,0.0428,-0.9952,0.2993
17:50:54:313,-0.84,4.8371,6.686,54.6815,0.3006,0.4242,-0.5904,0.293
17:50:54:333,-0.7661,4.827,7.1051,54.6399,0.6372,0.5307,-0.2079,0.2899
17:50:54:353,-0.941,4.794,7.16,54.5166,0.7831,0.5862,-0.0364,0.2903
17:50:54:379,-1.274,5.22,7.299,54.4222,0.6957,0.5989,-0.0439,0.2938
17:50:54:393,-1.4921,5.708,8.187,54.4973,0.4795,0.4935,-0.1132,0.2991
17:50:54:413,-1.7021,5.687,8.852,54.6516,0.3836,0.2826,-0.1728,0.3048
17:50:54:433,-1.5491,6.24,8.919,54.6242,0.3996,0.2079,-0.2729,0.3095
17:50:54:452,-1.4201,7.439,9.2501,55.3645,0.3805,0.2612,-0.4572,0.3136
17:50:54:480,-1.8551,8.72,9.875,56.5434,0.3549,0.275,-0.6564,0.3175
17:50:54:492,-2.9231,9.678,10.191,56.5475,0.2696,0.193,-0.7182,0.3214
17:50:54:513,-4.269,9.611,10.3511,56.5422,0.0374,0.0578,-0.4327,0.325
17:50:54:537,-4.92,8.433,10.89,56.557,-0.2108,-0.0168,0.1137,0.3279
17:50:54:552,-4.482,6.204,11.412,56.5583,-0.1203,-0.0551,0.6251,0.3291
17:50:54:590,-3.6341,4.224,10.583,57.2577,0.3985,-0.0371,0.9233,0.3291
17:50:54:594,-3.081,3.0911,8.4,56.1327,0.9866,0.242,0.934,0.3299
17:50:54:612,-3.038,3.1271,6.1691,56.179,1.2529,0.6681,0.7157,0.3333
17:50:54:635,-3.108,3.8891,4.464,56.0776,0.9738,0.9472,0.4462,0.3402
17:50:54:652,-3.215,4.593,3.932,56.3718,0.2335,0.9493,0.2192,0.349
17:50:54:678,-3.065,5.0141,4.596,56.6248,-0.6443,0.4135,0.0616,0.3568
17:50:54:691,-2.5691,4.997,5.46,56.5577,-1.2037,-0.3919,0.0125,0.3606
17:50:54:712,-1.6541,4.7,5.601,55.6996,-1.2473,-1,0.135,0.3589
17:50:54:736,-0.393,4.7771,4.701,55.986,-0.9214,-1.1865,0.3098,0.3526
17:50:54:751,0.626,5.079,3.813,55.9577,-0.5081,-0.7252,0.4685,0.3444
17:50:54:782,1.029,5.55,4.335,54.6847,-0.0829,-0.0573,0.6251,0.3367
17:50:54:791,1.017,6.321,5.0861,55.3844,0.2313,0.161,0.6996,0.3312
17:50:54:829,0.933,7.269,5.235,55.5749,0.194,0.0609,0.5984,0.3287
17:50:54:830,0.6791,7.748,5.996,55.5607,-0.1372,-0.052,0.4003,0.3285
17:50:54:851,0.6791,7.722,7.311,55.3531,-0.4271,-0.2171,0.2725,0.3288
17:50:54:882,0.863,7.499,8.544,55.1524,-0.4995,-0.3407,0.1862,0.328
17:50:54:890,0.842,7.037,9.9971,55.0896,-0.3503,-0.2267,0.1009,0.3257
17:50:54:910,0.576,6.728,11.699,55.2684,0.0087,-0.1671,-0.0407,0.3226
17:50:54:930,0.09,6.908,11.646,55.0715,0.4038,-0.2842,-0.3975,0.32
17:50:54:952,-0.891,7.731,10.7801,54.8005,0.5243,-0.1617,-0.9248,0.3192
17:50:54:993,-3.144,8.462,11.534,53.669,-0.1,-0.2992,-1.0005,0.3204
17:50:55:011,-2.353,7.298,11.096,54.3999,-0.2353,-0.803,-0.3932,0.3226
17:50:55:030,-0.95,5.6651,9.269,54.1987,-0.1033,-0.8115,0.2288,0.3239
17:50:55:050,0.0161,4.25,8,54.052,0.1067,-0.2416,0.5813,0.3235
17:50:55:079,-0.0671,3.4751,7.5401,52.9884,0.2398,0.2196,0.5643,0.3213
17:50:55:089,-0.4841,3.621,7.155,53.0179,0.0917,0.1823,0.3013,0.3212
17:50:55:110,-0.7571,4.08,6.69,53.9383,-0.2577,-0.3119,-0.1408,0.3218
17:50:55:129,-0.845,4.619,5.903,53.837,-0.5687,-0.8723,-0.6192,0.3215
17:50:55:152,-1.0151,5.067,4.986,52.9939,-0.7403,-1.0884,-0.9153,0.3191
17:50:55:181,-1.1681,5.277,4.938,53.4193,-0.7105,-0.7956,-0.9302,0.3149
17:50:55:189,-1.377,5.2991,5.891,53.3826,-0.3802,-0.2916,-0.7129,0.3091
17:50:55:208,-1.2761,5.285,6.348,53.4636,0.1343,-0.0551,-0.3411,0.3033
17:50:55:229,-0.7211,5.4281,5.991,52.3442,0.5125,0.1771,0.0158,0.2996
17:50:55:251,-0.4211,5.589,6.197,53.2918,0.6765,0.4125,0.2001,0.299
17:50:55:281,-0.443,5.663,6.056,52.3118,0.6084,0.3699,0.2863,0.3013
17:50:55:289,-0.287,5.897,6.1211,53.2659,0.3048,0.356,0.3033,0.3055
17:50:55:308,-0.215,6.122,7.071,53.2282,0.0098,0.4135,0.2523,0.3099
17:50:55:328,-0.201,6.281,8.2421,52.121,-0.1033,0.487,0.2054,0.3134
17:50:55:351,-0.134,6.5441,9.2,52.0634,-0.0829,0.6159,0.1202,0.3154
17:50:55:392,-2.033,8.342,11.6561,51.0182,0.0183,0.8268,-0.4689,0.3163
17:50:55:407,-3.857,8.897,12.111,51.8468,-0.0276,0.4796,-0.5371,0.3167
17:50:55:427,-5.112,8.2721,11.766,51.7553,-0.1767,0.1814,-0.1408,0.3171
17:50:55:451,-5.1881,6.6521,11.771,50.7098,-0.1469,0.1238,0.363,0.3175
17:50:55:479,-4.221,4.925,10.904,51.6634,0.3442,0.0822,0.6911,0.3165
17:50:55:487,-3.369,4.061,8.129,50.6501,0.9929,0.3358,0.8126,0.3166
17:50:55:507,-2.945,4.0901,5.4101,49.8823,1.3402,0.8898,0.7956,0.3197
17:50:55:527,-2.945,4.511,3.125,51.697,1.1666,1.3744,0.7444,0.3266
17:50:55:552,-3.048,5.0741,2.307,49.7728,0.3953,1.6951,0.7146,0.3364
17:50:55:583,-3.048,5.0981,3.149,50.9137,-0.655,1.5405,0.6347,0.3458
17:50:55:587,-2.717,4.925,4.476,49.7919,-1.4817,0.7895,0.4877,0.3513
17:50:55:606,-1.9781,5.052,4.916,50.6043,-1.8161,-0.0381,0.4323,0.3502
17:50:55:626,-1.341,5.306,4.1861,50.0641,-1.8033,-0.3684,0.6017,0.343
17:50:55:645,-0.8741,5.519,3.81,50.028,-1.6105,0.1567,0.9351,0.3317
17:50:55:681,-0.503,5.8301,4.959,50.5637,-1.1525,0.9206,1.2919,0.3186
17:50:55:686,-0.081,6.4001,5.771,50.4303,-0.6284,1.2221,1.6158,0.3059
17:50:55:708,0.248,6.6041,5.508,50.397,-0.3109,1.6087,1.798,0.2957
17:50:55:725,-0.261,6.395,5.2661,49.9892,-0.1394,2.3907,1.7628,0.2886
17:50:55:746,-1.149,6.3161,6.8051,50.7186,-0.0616,3.2887,1.6382,0.2841
17:50:55:790,-2.358,7.0391,14.417,51.8416,-0.4558,2.3288,1.6137,0.2813
17:50:55:805,-1.362,5.493,14.429,50.3912,-0.426,0.617,1.4539,0.2789
17:50:55:825,0.284,5.2151,12.8651,50.1826,-0.1064,0.0737,0.7828,0.2757
17:50:55:845,-0.558,5.8781,12.204,51.1538,0.1748,0.1365,-0.0418,0.2722
17:50:55:880,-2.8991,6.486,11.8571,49.4701,0.1056,0.0162,-0.2527,0.2686
17:50:55:885,-4.506,5.759,11.9861,51.1083,-0.3833,-0.2054,0.069,0.2683
17:50:55:905,-4.341,4.1351,12.8441,50.9377,-0.7466,-0.6368,0.3172,0.2675
17:50:55:926,-2.306,2.723,12.003,50.2745,-0.6124,-1.1705,0.2225,0.2651
17:50:55:945,-0.7781,2.4641,9.753,51.2009,-0.082,-1.1098,-0.2175,0.2619
17:50:55:982,-1.245,3.101,7.176,50.9535,0.3697,-0.656,-0.5734,0.2595
17:50:55:985,-2.181,4.035,5.6231,50.8591,0.2313,-0.2916,-0.584,0.259
17:50:56:005,-2.1431,4.1141,5.7521,50.7766,-0.3919,-0.3524,-0.5616,0.2598
17:50:56:024,-1.4291,3.755,6.362,50.7507,-0.8393,-0.8084,-0.846,0.2598
17:50:56:044,-0.9701,3.81,5.874,50.5873,-0.8287,-1.1077,-1.2732,0.2569
17:50:56:081,-1.6301,4.169,4.854,50.8894,-0.5368,-0.8009,-1.4447,0.2516
17:50:56:084,-2.588,4.688,4.88,50.8216,-0.2332,-0.1574,-1.2008,0.2458
17:50:56:105,-2.78,4.925,5.8961,50.5371,0.08,0.1578,-0.7502,0.2404
17:50:56:122,-2.181,4.76,6.1901,50.4655,0.4135,0.0598,-0.3912,0.2365
17:50:56:151,-1.542,4.554,5.058,51.4427,0.5807,0.0396,-0.2516,0.235
17:50:56:189,-2.454,5.325,6.2981,51.4383,0.1077,0.5371,-0.2974,0.2388
17:50:56:203,-2.8301,5.3321,8.074,50.6754,-0.3887,0.2314,-0.2932,0.2412
17:50:56:224,-2.775,4.9061,8.879,50.9074,-0.7136,-0.1137,-0.3869,0.2417
17:50:56:243,-3.0191,4.731,9.8561,51.9342,-0.9309,-0.084,-0.6127,0.2394
17:50:56:279,-3.515,5.8211,11.895,52.9157,-0.9852,-0.1159,-0.9569,0.2341
17:50:56:283,-4.709,6.8501,13.155,52.8672,-0.9575,-0.4994,-1.1912,0.2262
17:50:56:304,-6.483,6.455,12.3431,52.976,-0.8137,-0.8243,-1.0922,0.2172
17:50:56:324,-7.101,5.988,10.593,51.7142,-0.7029,-0.7839,-0.698,0.2079
17:50:56:344,-7.197,5.78,10.8491,51.5558,-0.7657,-0.3257,-0.0939,0.1991
17:50:56:381,-7.376,4.518,12.446,52.4612,-0.7392,-0.2512,0.5516,0.191
17:50:56:385,-6.8231,2.6651,11.8931,52.4114,-0.378,-0.6304,0.8733,0.1834
17:50:56:405,-5.555,1.787,9.0461,51.8728,0.1653,-0.8073,0.7743,0.1772
17:50:56:422,-4.676,2.124,6.039,52.4901,0.6457,-0.3322,0.4505,0.174
17:50:56:445,-4.76,2.783,4.155,52.3086,0.8822,0.5041,0.4078,0.1743
17:50:56:482,-4.446,3.4031,4.0189,52.5635,0.7096,1.0164,0.6677,0.178
17:50:56:485,-3.627,3.63,4.469,52.5437,0.2984,0.8588,0.8541,0.1837
17:50:56:504,-2.717,3.4481,4.44,52.4449,-0.1107,0.3805,0.9223,0.1893
17:50:56:523,-1.52,3.74,4.212,52.6463,-0.4143,0.1226,0.9659,0.1932
17:50:56:543,-0.5531,4.1471,4.9571,52.856,-0.606,0.2804,1.064,0.1949
17:50:56:591,0.095,3.896,7.37,52.4947,-0.3759,0.2366,1.3133,0.1942
17:50:56:601,0.495,3.9251,7.44,52.506,-0.1033,0.3369,1.2365,0.1917
17:50:56:620,0.423,4.935,7.883,53.3901,0.0481,0.7033,0.8829,0.1888
17:50:56:640,-0.8141,6.41,9.501,52.4159,0.014,0.928,0.5537,0.1868
17:50:56:660,-1.932,7.214,11.187,53.9931,-0.1926,0.6032,0.5239,0.186
17:50:56:681,-1.9871,7.004,12.051,53.9698,-0.3194,0.0865,0.6655,0.1859
17:50:56:701,-1.4891,6.137,12.341,53.0239,-0.1661,-0.166,0.8136,0.1855
17:50:56:720,-0.5291,5.268,12.0971,51.5084,0.2259,-0.2097,0.8775,0.1846
17:50:56:740,0.1091,4.676,11.0651,53.3657,0.6585,0.0833,0.8115,0.1838
17:50:56:760,-0.618,4.403,10.718,53.1561,0.8427,0.4625,0.6496,0.1843
17:50:56:784,-1.8551,4.238,10.641,53.0687,0.7117,0.5189,0.4727,0.1872
17:50:56:801,-2.909,3.788,10.806,53.0274,0.407,0.4466,0.3789,0.1922
17:50:56:829,-3.476,3.261,11.4551,53.2157,0.1429,0.3497,0.346,0.1982
17:50:56:839,-3.68,2.886,11.912,53.2084,0.0704,0.0044,0.3066,0.2036
17:50:56:859,-3.1271,2.957,10.454,52.821,0.0641,-0.494,0.2788,0.2076
17:50:56:882,-2.0419,3.3191,8.378,52.4949,-0.1405,-0.6986,0.265,0.2103
17:50:56:900,-1.173,3.534,7.397,52.5027,-0.4729,-0.6581,0.2234,0.2126
17:50:56:918,-0.639,3.336,7.476,52.1682,-0.7114,-0.5719,0.1766,0.2143
17:50:56:939,0.138,3.06,7.9571,52.1104,-0.7754,-0.5867,0.1276,0.2145
17:50:56:959,0.7991,2.756,8.2541,51.8275,-0.6401,-0.6325,0.0179,0.2127
17:50:56:993,0.959,2.498,8.4191,51.8044,-0.3791,-0.6071,-0.128,0.2092
17:50:57:001,0.765,2.397,8.429,51.7814,-0.1033,-0.5516,-0.275,0.2048
17:50:57:019,0.291,2.6291,8.5481,51.5078,0.2057,-0.4536,-0.4199,0.2008
17:50:57:038,-0.395,3.008,8.79,50.3088,0.538,-0.33,-0.4444,0.1979
17:50:57:058,-0.6101,3.1991,8.469,50.9324,0.7777,-0.3417,-0.2996,0.1968
17:50:57:083,-0.189,3.312,8.0981,50.6262,0.8066,-0.2629,-0.1643,0.1977
17:50:57:100,0.066,3.324,8.012,50.5605,0.6957,-0.1915,-0.2282,0.2009
17:50:57:118,-0.053,3.7001,8.39,50.2855,0.4954,-0.1233,-0.4157,0.206
17:50:57:138,-0.299,4.305,8.67,50.2855,0.2217,-0.0786,-0.5691,0.212
17:50:57:158,-0.84,4.803,9.894,50.1905,-0.0883,0.0492,-0.6394,0.2177
17:50:57:181,-1.1681,4.9061,11.156,49.0204,-0.2779,-0.1383,-0.6735,0.2221
17:50:57:200,-1.209,5.165,11.8091,48.9983,-0.3109,-0.4227,-0.7938,0.2244
17:50:57:217,-1.628,5.3471,11.283,50.0075,-0.2822,-0.7231,-0.9366,0.2244
17:50:57:237,-1.961,5.778,10.062,47.8551,-0.4612,-0.851,-0.912,0.2227
17:50:57:257,-2.231,5.7251,10.229,47.9487,-0.8041,-0.8095,-0.6883,0.2204
17:50:57:280,-2.0231,4.863,11.283,48.024,-0.8564,-0.9404,-0.4615,0.2178
17:50:57:299,-1.604,3.822,10.95,47.971,-0.4462,-1.211,-0.4657,0.214
17:50:57:317,-1.3361,3.1991,8.7641,48.1881,0.1226,-1.1982,-0.6117,0.2086
17:50:57:337,-1.4771,3.2831,6.4751,47.9855,0.4709,-0.7103,-0.7087,0.2033
17:50:57:356,-2.1161,3.738,5.247,46.9219,0.4135,-0.0764,-0.6777,0.2001
17:50:57:390,-2.6381,3.834,5.6231,46.7701,0.0289,0.2932,-0.5148,0.2
17:50:57:399,-2.6261,3.197,6.992,46.7806,-0.2694,0.1558,-0.3443,0.2021
17:50:57:415,-2.0711,2.4161,7.349,46.762,-0.1991,-0.249,-0.2878,0.2042
17:50:57:436,-1.4891,2.2129,6.4031,45.9829,0.1162,-0.476,-0.3816,0.2045
17:50:57:456,-1.278,2.73,5.28,45.7979,0.3942,-0.3374,-0.4742,0.2035
17:50:57:478,-1.185,3.362,4.8281,45.7851,0.5349,-0.1116,-0.3923,0.2028
17:50:57:499,-0.6341,4.308,4.698,45.7666,0.5295,-0.0466,-0.1866,0.2037
17:50:57:515,0.648,5.5121,4.8281,45.6639,0.3154,-0.0296,-0.0173,0.2062
17:50:57:535,1.431,6.489,5.3861,44.6149,0.0076,0.1888,0.0434,0.2099
17:50:57:556,1.682,7.202,6.7241,44.6491,-0.327,0.4902,0.1128,0.2137
17:50:57:581,2.0561,7.731,9.123,44.7686,-0.5965,0.6916,0.1884,0.2175
17:50:57:598,2.1439,7.5731,11.979,44.75,-0.557,0.6852,0.1574,0.2161
17:50:57:615,1.3061,7.1381,13.9541,43.6258,-0.1533,0.4071,0.052,0.2128
17:50:57:635,1.0331,7.638,14.412,43.5818,0.2046,-0.0764,-0.1024,0.2094
17:50:57:654,1.0841,8.007,13.191,42.5752,0.1855,-0.6401,-0.224,0.2078
17:50:57:680,0.923,7.0751,12.1301,41.6432,-0.1789,-0.803,-0.1717,0.2081
17:50:57:699,0.777,5.447,12.8411,41.7775,-0.362,-0.6443,-0.1441,0.2086
17:50:57:714,0.66,3.6611,13.65,40.7674,-0.0403,-0.5441,-0.2197,0.2078
17:50:57:733,0.9641,2.8301,12.8201,41.0685,0.5807,-0.5772,-0.3838,0.2066
17:50:57:754,0.894,2.795,10.7411,40.9113,0.945,-0.3535,-0.5489,0.2073
17:50:57:790,0.344,2.9051,9.6311,39.7839,0.8299,-0.1128,-0.5947,0.2112
17:50:57:799,-0.2351,2.9501,9.02,39.8679,0.4615,-0.2458,-0.6766,0.217
17:50:57:814,-0.6731,3.056,8.366,39.768,-0.0137,-0.6837,-0.8269,0.2226
17:50:57:834,-0.6941,3.1661,7.145,38.9893,-0.4771,-1.261,-0.9324,0.2264
17:50:57:854,-0.278,3.1541,5.754,37.2529,-0.8564,-1.5199,-0.9973,0.2272
17:50:57:878,0.44,3.036,5.285,38.5509,-1.0779,-1.2643,-1.0379,0.2249
17:50:57:893,0.8561,2.886,6.3101,38.513,-0.9277,-0.7913,-1.0687,0.2198
17:50:57:916,0.689,3.099,6.971,37.7307,-0.4356,-0.5633,-1.1252,0.2127
17:50:57:933,0.404,3.7001,7.014,37.6803,-0.0414,-0.4014,-1.1049,0.2059
17:50:57:953,0.021,4.032,7.8401,36.6889,0.1823,-0.117,-0.9142,0.2012
17:50:57:981,-0.156,3.944,8.8211,35.5632,0.5158,-0.0466,-0.6053,0.199
17:50:57:992,-0.072,4.02,9.0611,36.5233,0.7575,-0.0903,-0.3549,0.1994
17:50:58:015,-0.117,4.004,8.625,35.4825,0.7682,-0.1926,-0.2793,0.2027
17:50:58:033,-0.158,4.233,8.1611,35.311,0.5423,-0.1404,-0.2921,0.2078
17:50:58:052,-0.603,4.65,9.0851,35.2468,0.1748,0.0268,-0.2676,0.2137
17:50:58:080,-1.1201,4.3871,10.8851,34.4527,-0.0564,0.144,-0.1057,0.2188
17:50:58:092,-0.759,4.2551,12.647,33.4795,0.0736,-0.0062,0.0125,0.2217
17:50:58:115,-0.062,4.557,12.575,34.4437,0.4241,-0.2661,-0.1632,0.2231
17:50:58:131,-0.539,4.9181,10.8641,33.3266,0.5829,-0.3354,-0.4455,0.2246
17:50:58:153,-1.554,5.237,10.0571,34.2752,0.3048,-0.2757,-0.4774,0.2274
17:50:58:190,-2.313,4.947,10.5311,33.4074,0.0001,-0.3833,-0.3901,0.2308
17:50:58:193,-2.478,4.061,9.863,33.3784,-0.0095,-0.5505,-0.2783,0.2332
17:50:58:214,-2.162,3.309,8.24,33.3574,0.1397,-0.33,-0.1228,0.2343
17:50:58:231,-1.733,3.06,7.241,33.3632,0.2079,0.1259,-0.0173,0.235
17:50:58:251,-1.76,3.051,6.7691,33.1687,0.1429,0.485,-0.1067,0.2361
17:50:58:280,-1.9151,3.3281,6.5921,33.0301,-0.0542,0.5072,-0.2665,0.2375
17:50:58:291,-1.8,3.9221,6.3191,32.0675,-0.3481,0.1973,-0.3389,0.2387
17:50:58:311,-1.508,4.3271,6.255,32.3212,-0.6869,-0.0861,-0.2698,0.2387
17:50:58:331,-0.972,4.554,7.071,32.0011,-0.7828,-0.3279,-0.1302,0.2367
17:50:58:350,-0.3971,4.389,7.433,32.5979,-0.4089,-0.3971,0.0115,0.2323
17:50:58:381,-0.191,4.269,6.911,31.6267,0.2452,-0.1926,0.1691,0.2271
17:50:58:390,-0.1151,4.619,6.054,31.6094,0.7362,0.1387,0.3161,0.2237
17:50:58:410,-0.3881,5.352,6.027,32.0345,0.7628,0.2943,0.4301,0.2241
17:50:58:432,-0.266,5.7611,5.898,31.0639,0.4166,0.0268,0.5228,0.2276
17:50:58:450,0.5951,5.732,5.994,31.0946,-0.0777,-0.2106,0.5185,0.2322
17:50:58:482,1.452,5.462,6.7601,29.8552,-0.4217,-0.1926,0.281,0.2353
17:50:58:490,1.421,5.3831,8.405,29.8164,-0.4707,0.045,-0.1143,0.2357
17:50:58:509,0.753,5.61,10.2341,29.7988,-0.2427,0.1323,-0.4401,0.2341
17:50:58:532,0.4181,6.261,11.397,29.8033,0.0778,0.1013,-0.5382,0.2319
17:50:58:550,-0.024,6.137,11.658,30.7683,0.3751,0.0631,-0.4199,0.2307
17:50:58:590,0.3221,6.1661,11.354,29.5789,0.5221,0.0641,-0.3209,0.2314
17:50:58:593,0.224,5.852,11.3231,29.5966,0.536,0.1206,-0.4423,0.234
17:50:58:609,-0.4481,5.409,11.223,29.3176,0.4518,0.0077,-0.5521,0.2378
17:50:58:631,-0.599,5.148,10.703,29.5257,0.26,-0.3024,-0.4913,0.2421
17:50:58:649,-0.012,4.6571,9.554,29.3051,0.0192,-0.5142,-0.2921,0.2459
17:50:58:676,0.353,3.74,8.436,29.3051,-0.1863,-0.4004,-0.062,0.2484
17:50:58:689,0.521,3.132,7.8881,29.5257,-0.3855,-0.1213,0.0776,0.2489
17:50:58:709,0.0641,2.8691,7.866,29.2819,-0.6517,0.029,0.0446,0.2475
17:50:58:731,-0.704,2.687,8.067,28.5702,-0.9735,-0.1031,-0.0439,0.2443
17:50:58:749,-0.797,2.756,8.1371,29.1113,-1.2217,-0.5526,-0.0631,0.2387
17:50:58:780,-0.419,2.663,7.5191,27.549,-1.2495,-0.9437,-0.0876,0.2304
17:50:58:789,0,2.603,6.7241,27.2586,-1.0417,-0.9639,-0.1643,0.2199
17:50:58:809,0.3851,2.921,6.264,27.9025,-0.6454,-0.6742,-0.2505,0.2086
17:50:58:843,0.839,3.549,5.7641,27.9025,-0.2002,-0.1543,-0.3273,0.1983
17:50:58:848,1.076,4.545,6.197,27.9025,0.2036,0.439,-0.4231,0.1906
17:50:58:879,0.732,5.304,6.968,27.2586,0.4954,0.7832,-0.4029,0.1865
17:50:58:888,0.102,5.555,7.485,27.9283,0.6073,1.009,-0.1686,0.1863
17:50:58:907,-0.689,5.507,8.565,26.9785,0.5562,1.1198,0.168,0.1894
17:50:58:930,-0.9701,5.301,9.6071,26.4237,0.4283,0.8929,0.413,0.1945
17:50:58:947,-0.603,4.9211,9.8291,26.2162,0.3325,0.422,0.5175,0.2003
17:50:58:991,-0.122,5.2961,8.3231,26.0576,-0.0872,0.3997,0.3322,0.2058
17:50:59:008,-0.845,5.4311,10.2341,23.809,-0.4324,0.8876,0.3076,0.2104
17:50:59:029,-1.76,5.2751,12.944,24.9571,-0.4931,0.8972,0.3076,0.2137
17:50:59:047,-2.198,5.0951,14.318,24.9571,-0.1405,0.4049,0.2234,0.2149
17:50:59:079,-2.085,5.1311,12.513,24.6535,0.2813,-0.067,0.1319,0.2123
17:50:59:087,-2.054,5.402,10.433,24.6535,0.3165,-0.0275,0.133,0.2116
17:50:59:107,-2.444,5.39,10.05,23.9978,0.0524,0.1695,0.2501,0.2126
17:50:59:132,-2.7371,4.734,10.382,23.9978,-0.1661,0.1493,0.494,0.2142
17:50:59:146,-2.409,3.824,9.954,23.8901,-0.215,0.095,0.7891,0.2148
17:50:59:181,-1.937,2.8301,9.35,23.8901,-0.1576,0.4029,0.9915,0.2144
17:50:59:185,-1.9901,2.241,9.4031,23.8901,-0.0488,0.7832,0.9915,0.2134
17:50:59:205,-2.622,2.22,9.133,22.8709,0.0129,0.7673,0.8189,0.2124
17:50:59:228,-2.789,2.562,8.0891,23.8253,-0.0659,0.3241,0.7029,0.2119
17:50:59:247,-2.2031,2.823,6.5111,22.8709,-0.1959,-0.0935,0.7114,0.2116
17:50:59:282,-1.599,2.96,5.1851,22.8658,-0.2406,-0.1521,0.8051,0.2109
17:50:59:285,-0.977,3.192,4.584,22.8658,-0.1906,0.1345,0.9531,0.2097
17:50:59:305,-0.4811,3.4961,4.517,22.8658,-0.0436,0.5328,1.1214,0.2084
17:50:59:325,0.0521,3.7811,4.77,22.8658,0.0726,0.8972,1.3144,0.2076
17:50:59:345,0.7991,4.14,5.558,21.5953,0.1653,1.1848,1.4421,0.2078
17:50:59:394,1.859,4.748,7.1291,21.0421,0.2122,1.5832,1.3963,0.2087
17:50:59:404,1.685,4.796,8.697,30.7402,0.1034,1.5192,1.3399,0.2103
17:50:59:425,1.871,4.808,9.932,31.3211,-0.0968,1.1059,1.244,0.2123
17:50:59:448,2.235,4.533,11.007,29.986,-0.2768,0.5925,1.0458,0.2153
17:50:59:479,2.676,4.233,11.5841,30.33,-0.3728,0.1686,0.7743,0.2152
17:50:59:485,2.975,3.9821,12.923,29.5424,-0.3481,0.0674,0.3832,0.2139
17:50:59:504,2.5151,3.743,13.758,30.2226,-0.1,-0.0616,-0.0993,0.2117
17:50:59:524,1.433,4.128,13.583,29.385,0.1152,-0.1767,-0.584,0.2094
17:50:59:544,0.0521,4.5761,13.449,29.397,0.1823,-0.2959,-0.8855,0.2081
17:50:59:581,-0.9221,4.77,13.2701,28.0864,0.2227,-0.4632,-0.9409,0.2079
17:50:59:584,-1.197,4.8701,12.075,28.2146,0.2676,-0.5516,-0.8141,0.2084
17:50:59:604,-1.3961,4.71,11.0411,28.6915,0.1588,-0.2981,-0.5041,0.2096
17:50:59:624,-1.5941,4.0631,10.806,28.5222,-0.0201,-0.0989,-0.1493,0.2112
17:50:59:643,-1.4411,3.3521,10.521,28.627,-0.2247,-0.1852,0.0073,0.2123
17:50:59:684,-1.034,2.7491,9.944,29.2743,-0.4015,-0.5974,-0.1046,0.2124
17:50:59:686,-0.285,2.5811,8.5751,30.0566,-0.4675,-1.1972,-0.4093,0.2111
17:50:59:703,0.253,2.766,6.5951,26.8708,-0.4399,-1.4773,-0.8119,0.2084
17:50:59:723,0.282,3.132,5.0501,27.1613,-0.3652,-1.3155,-1.1241,0.205
17:50:59:743,0.344,3.597,4.3939,25.2119,-0.2651,-0.8136,-1.2605,0.2017
17:50:59:789,-0.338,4.26,7.0301,25.2309,0.1365,0.0087,-0.9206,0.1988
17:50:59:802,-0.4241,3.968,7.7891,25.1914,0.5924,0.1099,-0.4731,0.1966
17:50:59:822,-0.2539,3.63,7.478,24.6849,1.0175,0.3336,-0.0939,0.1955
17:50:59:842,-0.1151,3.587,7.109,26.4856,1.1463,0.6212,0.0488,0.1964
17:50:59:864,-0.402,3.6641,7.0541,25.8659,0.9536,0.8119,0.0573,0.2005
17:50:59:883,-0.7661,4.0421,7.653,23.9455,0.5082,0.8375,0.003,0.2075
17:50:59:901,-1.4411,4.31,8.517,25.5154,-0.018,0.7682,-0.093,0.2159
17:50:59:921,-2.315,4.595,9.932,24.9575,-0.5804,0.6841,-0.1035,0.2237
17:50:59:941,-2.883,4.7171,12.54,25.227,-0.9064,0.3912,-0.0481,0.2291
17:50:59:964,-2.6021,4.77,13.725,25.969,-0.6731,-0.2299,-0.0566,0.2305
17:50:59:982,-1.9421,5.16,11.946,25.7298,-0.2289,-0.591,-0.1695,0.2278
17:51:00:001,-1.8101,5.862,9.9491,25.8228,-0.1064,-0.4397,-0.1771,0.2225
17:51:00:020,-2.222,6.161,9.654,24.664,-0.3865,-0.1563,0.0264,0.2174
17:51:00:041,-2.679,5.189,10.5191,24.3756,-0.737,-0.0764,0.3928,0.214
17:51:00:063,-2.586,3.453,11.237,24.3159,-0.8063,0.0214,0.6293,0.2113
17:51:00:082,-2.519,1.925,11.84,24.361,-0.4654,0.1983,0.5878,0.2074
17:51:00:101,-2.4611,1.272,10.971,24.2377,0.1418,0.225,0.3013,0.2019
17:51:00:120,-2.8511,1.8011,8.984,25.1219,0.5914,0.2485,-0.1717,0.1963
17:51:00:140,-3.491,2.747,6.9611,24.986,0.6244,0.2036,-0.4892,0.1926
17:51:00:165,-3.603,3.374,5.7281,24.2816,0.3688,0.047,-0.4477,0.192
17:51:00:190,-3.0881,3.6041,5.204,25.0807,0.1365,-0.1787,-0.2122,0.1941
17:51:00:201,-2.394,3.494,4.8401,24.2584,0.1077,-0.2608,0.0626,0.1973
17:51:00:220,-1.6571,3.51,4.3151,25.1333,0.2174,-0.1052,0.3481,0.2001
17:51:00:240,-0.515,3.8891,4.28,25.4345,0.3186,0.2122,0.6038,0.2022
17:51:00:262,0.296,4.212,4.7561,25.3138,0.4103,0.6309,0.7615,0.2045
17:51:00:281,0.693,4.77,5.213,24.6764,0.3975,0.8577,0.8084,0.2072
17:51:00:300,0.942,5.3441,5.967,25.3789,0.1312,0.928,0.7998,0.2105
17:51:00:320,0.818,5.51,7.4471,24.999,-0.2427,0.8599,0.7785,0.2143
17:51:00:339,0.897,5.3681,9.384,24.8131,-0.4834,0.5648,0.7519,0.2177
17:51:00:359,1.175,5.079,10.787,25.7303,-0.5016,0.1994,0.6901,0.2195
17:51:00:383,1.364,4.9451,11.46,25.0729,-0.3844,-0.0883,0.5367,0.2172
17:51:00:399,1.479,5.2031,11.723,25.0621,-0.377,-0.2299,0.3087,0.2145
17:51:00:418,1.6061,5.16,12.4391,25.0415,-0.5676,-0.461,0.0626,0.2116
17:51:00:439,1.385,4.691,12.659,24.5775,-0.7796,-0.7092,-0.2772,0.2082
17:51:00:458,0.4541,4.2551,13.2341,24.6049,-0.9277,-0.6869,-0.6095,0.2035
17:51:00:482,-0.347,3.69,14.496,25.2034,-0.8702,-0.7135,-0.6991,0.1973
17:51:00:499,-0.194,2.895,14.984,24.5811,-0.4473,-0.8647,-0.5904,0.1899
17:51:00:518,0.3011,2.251,13.658,25.1154,0.2079,-0.7561,-0.5393,0.1829
17:51:00:538,0.375,2.0261,11.9,24.0619,0.6435,-0.3076,-0.5563,0.1787
17:51:00:558,-0.1481,2.136,10.6481,24.7106,0.6531,-0.0093,-0.6362,0.1782
17:51:00:590,-0.8741,2.34,9.7361,24.8654,0.3123,-0.1361,-0.7767,0.1808
17:51:00:597,-1.161,2.309,8.8691,24.8597,-0.1394,-0.7083,-0.9452,0.1839
17:51:00:617,-0.785,2.273,7.385,23.9245,-0.4643,-1.3707,-1.1241,0.1855
17:51:00:638,-0.443,2.2871,5.735,23.9759,-0.6348,-1.6307,-1.2955,0.1846
17:51:00:658,-0.302,2.51,4.71,23.9103,-0.6614,-1.4667,-1.4714,0.1814
17:51:00:679,-0.3731,2.886,4.28,24.1662,-0.5709,-1.0299,-1.5917,0.1769
17:51:00:697,-0.675,3.443,4.617,23.5307,-0.4621,-0.5185,-1.5385,0.1718
17:51:00:717,-0.783,4.0061,6.128,21.9635,-0.3887,-0.1298,-1.254,0.1669
17:51:00:737,-0.7901,3.791,8.096,23.3277,-0.084,0.1238,-0.7661,0.1623
17:51:00:757,-0.608,3.144,8.256,23.1996,0.4465,0.2783,-0.2527,0.1587
17:51:00:782,-0.45,3.056,7.979,23.3174,0.7628,0.7213,0.0414,0.1579
17:51:00:796,-1.0511,3.161,8.481,23.4473,0.7404,1.0612,0.1319,0.1607
17:51:00:817,-1.515,3.419,8.9981,22.4297,0.4273,1.09,0.1617,0.1661
17:51:00:855,-1.635,3.731,9.638,23.0693,-0.0265,1.0623,0.1213,0.1721
17:51:00:856,-2.406,3.779,11.4791,23.4515,-0.4399,1.0121,0.0764,0.1768
17:51:00:881,-2.8541,4.04,13.478,23.6169,-0.6369,0.4423,0.0605,0.1786
17:51:00:896,-2.2031,4.4681,13.073,23.6159,-0.6508,-0.3246,-0.0162,0.1772
17:51:00:915,-1.499,4.763,11.433,23.6138,-0.7264,-0.5346,-0.0588,0.1736
17:51:00:935,-1.506,4.899,11.292,22.8412,-0.9416,-0.2896,0.0329,0.1686
17:51:00:956,-2.085,4.119,12.939,23.4808,-1.0428,-0.1767,0.2629,0.1625
17:51:00:990,-2.124,2.625,13.895,24.1264,-0.7861,-0.4238,0.4227,0.1547
17:51:00:995,-2.109,0.8741,13.014,22.879,-0.2173,-0.4973,0.3471,0.1463
17:51:01:015,-1.9901,0.3071,11.2661,24.0352,0.4604,-0.2353,0.0711,0.1395
17:51:01:035,-2.555,0.906,9.4751,23.998,0.9706,0.1504,-0.3176,0.1362
17:51:01:055,-3.7211,1.866,7.914,22.9154,1.0931,0.2985,-0.4881,0.1373
17:51:01:079,-4.293,2.507,6.774,23.9371,0.8492,0.1675,-0.3486,0.1424
17:51:01:095,-3.881,2.7011,6.245,23.837,0.5039,-0.1094,-0.0759,0.1494
17:51:01:115,-3.1511,2.601,5.4221,23.7915,0.4007,-0.3471,0.1574,0.1562
17:51:01:135,-2.4521,2.735,4.28,23.7793,0.4294,-0.3129,0.3332,0.162
17:51:01:155,-2.073,3.0911,3.504,24.1389,0.4049,-0.0104,0.4887,0.167
17:51:01:181,-1.6901,3.783,4.1411,24.9669,0.258,0.2292,0.6911,0.1719
17:51:01:195,-1.2311,4.3361,4.658,24.8707,0.1567,0.1226,0.8957,0.1763
17:51:01:214,-0.3641,4.9421,4.3541,24.6192,0.0172,0.0759,1.0714,0.1798
17:51:01:234,0.543,5.727,4.3151,23.8382,-0.2886,0.3389,1.1461,0.1823
17:51:01:253,0.717,5.871,5.735,23.6134,-0.737,0.8279,1.2515,0.1833
17:51:01:282,0.5861,5.541,8.766,25.1146,-0.9991,0.9941,1.3804,0.182
17:51:01:295,0.8321,5.1821,11.115,25.2108,-0.8584,0.8225,1.4037,0.1779
17:51:01:313,1.2941,4.952,12.587,26.4892,-0.4324,0.5658,1.3218,0.172
17:51:01:335,2.013,4.437,12.2351,25.9514,-0.1288,0.4722,1.2067,0.1664
17:51:01:354,2.3261,3.9461,12.482,27.0201,-0.1959,0.796,0.9691,0.1625
17:51:01:390,1.2221,3.3671,14.285,27.505,-0.5016,1.0303,0.5921,0.1598
17:51:01:393,-0.539,2.2819,17.28,27.4666,-0.6869,0.7938,0.3769,0.1568
17:51:01:413,-1.001,1.0181,19.248,27.1109,-0.2758,-0.0562,0.2523,0.1522
17:51:01:434,0.0251,0.329,16.8041,27.4288,0.6201,-0.7327,-0.0865,0.1475
17:51:01:453,0.521,0.7091,12.5951,27.8001,1.2444,-0.6336,-0.4839,0.1458
17:51:01:482,0.1091,1.703,9.597,28.3413,1.1943,-0.3002,-0.7215,0.1493
17:51:01:493,-0.8591,2.253,8.06,27.3272,0.617,-0.2481,-0.7736,0.1564
17:51:01:513,-1.1351,2.258,7.512,27.1734,-0.1138,-0.5943,-0.6916,0.1639
17:51:01:532,-0.699,1.827,6.827,27.2749,-0.5527,-1.0842,-0.6735,0.1686
17:51:01:552,-0.1121,1.43,5.6831,28.7028,-0.6678,-1.2866,-0.7523,0.1693
17:51:01:581,0.3371,1.406,5.058,28.7946,-0.5379,-1.1055,-0.8822,0.1668
17:51:01:593,0.533,1.779,4.974,28.7665,-0.2384,-0.7754,-0.9771,0.1625
17:51:01:612,0.282,2.2751,5.352,29.7731,0.1013,-0.4121,-0.9398,0.1583
17:51:01:632,0.356,2.751,5.5361,28.254,0.2995,-0.1276,-0.7321,0.1557
17:51:01:651,0.5021,2.763,6.497,28.1551,0.407,0.2826,-0.4412,0.155
17:51:01:682,0.215,2.361,7.557,29.2196,0.5999,0.4679,-0.2079,0.1561
17:51:01:692,0.183,2.423,7.574,29.2448,0.6414,0.535,-0.1035,0.1589
17:51:01:711,0.023,2.6531,7.5431,28.7447,0.374,0.7235,-0.1525,0.1633
17:51:01:731,-0.749,3.2141,8.601,28.3705,-0.1639,0.8929,-0.274,0.168
17:51:01:751,-1.92,3.74,11.048,30.2604,-0.7615,0.8779,-0.3475,0.1711
17:51:01:793,-2.54,3.5651,13.6121,30.5814,-1.1227,0.4859,-0.2622,0.1708
17:51:01:795,-2.353,3.398,15.417,30.0456,-0.9937,-0.0798,-0.1877,0.1662
17:51:01:811,-1.652,3.7121,14.73,29.8787,-0.4868,-0.477,-0.3241,0.1586
17:51:01:830,-1.544,4.2911,13.131,30.4352,-0.15,-0.4334,-0.4529,0.1508
17:51:01:850,-2.004,4.842,12.65,29.2464,-0.1533,-0.3374,-0.3986,0.145
17:51:01:879,-2.636,4.454,12.654,30.4731,-0.2608,-0.4493,-0.2155,0.1413
17:51:01:895,-3.146,3.027,12.207,30.5561,-0.2364,-0.5356,-0.0375,0.1381
17:51:01:912,-3.3641,1.8131,11.457,30.4309,0.0417,-0.2938,-0.0258,0.1351
17:51:01:931,-3.78,1.6601,10.808,29.8625,0.4241,0.0439,-0.1462,0.1329
17:51:01:950,-4.3931,2.162,9.786,31.0286,0.6361,0.1099,-0.2463,0.1326
17:51:01:982,-4.491,2.579,8.39,31.0401,0.6148,-0.1255,-0.1877,0.1349
17:51:01:993,-3.876,2.706,6.695,31.0001,0.4922,-0.4855,-0.0131,0.1388
17:51:02:010,-3.0191,2.634,5.019,30.468,0.3729,-0.5889,0.1787,0.1434
17:51:02:030,-2.1401,2.6651,4.208,31.481,0.2643,-0.3982,0.3673,0.1478
17:51:02:049,-1.4921,2.6651,3.978,30.8981,0.1823,-0.166,0.558,0.1517
17:51:02:079,-1.1059,2.795,4.373,31.0134,0.1844,0.1195,0.7337,0.1551
17:51:02:092,-0.6131,3.1031,5.1581,31.0041,0.3186,0.2804,0.8562,0.1581
17:51:02:109,0.4061,3.8381,5.345,31.4946,0.536,0.4177,0.853,0.1612
17:51:02:129,1.155,4.583,5.723,30.7869,0.7352,0.8438,0.7689,0.165
17:51:02:148,1.076,5.138,5.9891,31.9128,0.8118,1.1528,0.7189,0.17
17:51:02:191,0.993,6.563,9.3461,31.6969,0.1951,1.1102,0.8084,0.1764
17:51:02:210,0.962,6.17,11.472,31.7941,0.0192,0.6596,0.967,0.1832
17:51:02:228,1.613,5.534,12.063,32.8533,0.0203,0.1024,1.0576,0.189
17:51:02:247,2.7431,4.973,11.658,31.6037,-0.0403,-0.052,0.8935,0.193
17:51:02:278,2.865,4.652,11.7851,31.7262,-0.2204,0.1462,0.4599,0.1976
17:51:02:288,1.517,4.104,13.0541,31.6879,-0.4579,0.4273,0.0082,0.1982
17:51:02:308,-0.05,3.384,15.216,32.178,-0.5229,0.2868,-0.2516,0.1971
17:51:02:328,-0.417,2.49,16.1981,32.6562,-0.2236,-0.2097,-0.34,0.1941
17:51:02:348,-0.23,1.961,14.706,31.9982,0.3112,-0.5133,-0.4945,0.1907
17:51:02:381,-0.534,2.024,11.8931,32.6184,0.5818,-0.4525,-0.6948,0.189
17:51:02:396,-1.283,2.4551,9.954,32.1172,0.2921,-0.3322,-0.7853,0.1901
17:51:02:410,-1.8581,2.5121,9.2861,32.1516,-0.3109,-0.4823,-0.748,0.1924
17:51:02:427,-1.482,2.1671,8.91,32.3809,-0.7572,-1.0341,-0.6991,0.1931
17:51:02:447,-0.723,1.7411,7.497,31.832,-0.8319,-1.521,-0.8332,0.1906
17:51:02:482,-0.273,1.7531,5.8331,33.6189,-0.6849,-1.5359,-1.1528,0.1853
17:51:02:487,-0.266,2.402,4.904,33.8024,-0.4697,-1.2195,-1.4543,0.1786
17:51:02:511,-0.7061,3.1991,4.677,32.3274,-0.3131,-0.7615,-1.5289,0.1723
17:51:02:528,-1.085,3.884,5.8451,31.6438,-0.1543,-0.3502,-1.3105,0.1673
17:51:02:546,-1.034,4.04,7.313,32.2718,0.1833,-0.1787,-0.8119,0.1635
17:51:02:590,-0.2201,3.3071,7.6361,31.8107,1.2038,0.3954,0.2788,0.1614
17:51:02:611,0.1811,3.278,7.416,31.6418,1.2805,0.8609,0.5452,0.1622
17:51:02:626,0.3011,3.132,7.7561,32.3341,0.9109,1.1912,0.6922,0.167
17:51:02:646,0.183,2.751,9.0221,32.0767,0.3762,1.302,0.6528,0.1754
17:51:02:680,-0.203,2.5931,10.476,33.0105,-0.0446,1.1144,0.3695,0.1934
17:51:02:685,-0.723,3.0941,11.591,32.1569,-0.3376,0.632,-0.0876,0.1987
17:51:02:705,-0.62,3.939,11.9531,31.6908,-0.5932,-0.117,-0.4231,0.2007
17:51:02:726,-0.2201,4.514,10.9691,31.6199,-0.8532,-0.6028,-0.5052,0.1995
17:51:02:747,-0.213,4.758,10.4591,31.9356,-1.1323,-0.5228,-0.4455,0.1954
17:51:02:780,-0.965,4.253,11.721,31.6587,-1.3432,-0.2203,-0.2537,0.1887
17:51:02:785,-1.7621,3.194,13.806,31.5702,-1.2387,-0.2234,-0.0588,0.1796
17:51:02:805,-2.411,1.806,14.4311,29.6711,-0.7253,-0.2395,-0.0311,0.1687
17:51:02:825,-2.966,0.846,13.758,29.7243,0.0385,-0.0892,-0.1408,0.1583
17:51:02:882,-3.464,1.011,11.508,30.9328,0.6989,0.0225,-0.4316,0.151
17:51:02:883,-4.137,2.1071,9.279,30.1346,0.8023,0.1345,-0.6724,0.1487
17:51:02:884,-4.424,3.044,8.06,30.1663,0.505,-0.0573,-0.715,0.1506
17:51:02:904,-4.094,3.393,7.014,29.9759,0.2409,-0.5346,-0.6288,0.1544
17:51:02:925,-3.4361,3.465,5.457,29.8695,0.1514,-0.8658,-0.4881,0.158
17:51:02:945,-2.904,3.647,4.1771,29.8113,0.1557,-0.7146,-0.3209,0.1605
17:51:02:990,-2.6411,4.415,4.076,29.8283,0.1994,0.1184,0.2661,0.1625
17:51:03:004,-2.33,4.9091,4.974,29.2119,0.2813,0.2687,0.6486,0.1644
17:51:03:024,-1.13,5.4311,4.916,30.576,0.406,0.2346,0.9776,0.1665
17:51:03:047,0.246,5.66,4.8611,30.4618,0.4774,0.7096,1.2312,0.1691
17:51:03:078,0.7751,5.574,5.534,30.3873,0.5275,1.3211,1.3857,0.1761
17:51:03:083,0.959,5.792,7.014,30.1636,0.3367,1.6215,1.4347,0.181
17:51:03:103,0.8831,5.624,9.432,28.471,0.0609,1.4586,1.357,0.1862
17:51:03:124,1.1051,5.138,11.1101,28.5211,-0.1181,0.8566,1.2195,0.1907
17:51:03:145,1.749,4.581,11.2991,28.2626,-0.2949,0.4018,1.0245,0.1936
17:51:03:181,2.228,4.4591,12.042,28.5454,-0.6315,0.3901,0.672,0.1946
17:51:03:192,1.3331,3.7691,14.2901,28.0831,-0.9479,0.5317,0.2299,0.1935
17:51:03:203,-0.218,2.517,17.397,28.7355,-0.8777,0.3773,-0.0513,0.1893
17:51:03:224,-0.7331,1.439,18.6709,28.0042,-0.2758,-0.247,-0.2229,0.1828
17:51:03:245,-0.168,0.9461,15.798,28.47,0.5423,-0.7593,-0.4987,0.1766
17:51:03:280,0.0881,1.298,11.745,28.8846,0.9045,-0.639,-0.798,0.1738
17:51:03:283,-0.539,2.2271,9.384,28.8514,0.6105,-0.3246,-1.009,0.1754
17:51:03:304,-1.65,2.7611,8.714,28.7709,-0.0947,-0.3673,-1.0208,0.1791
17:51:03:328,-1.865,2.759,8.709,28.6959,-0.7072,-0.8775,-0.8855,0.1817
17:51:03:346,-1.19,2.522,7.703,29.4943,-0.9863,-1.4645,-0.7556,0.1807
17:51:03:391,-0.041,1.9811,5.52,29.403,-0.7722,-1.1513,-0.7597,0.1759
17:51:03:401,-0.062,2.1221,5.649,29.5578,-0.3472,-0.5505,-0.7875,0.1684
17:51:03:421,-0.263,2.438,6.044,29.5584,0.1375,-0.1094,-0.6937,0.1601
17:51:03:442,-0.294,2.8661,6.195,28.6913,0.5147,0.0566,-0.4924,0.153
17:51:03:461,-0.069,2.9981,6.075,29.4843,0.6787,0.2281,-0.2772,0.1488
17:51:03:481,-0.0911,2.9411,6.116,29.5396,0.6904,0.5616,-0.1035,0.1482
17:51:03:501,-0.359,3.0791,6.827,29.5852,0.5306,0.9643,0.0147,0.1505
17:51:03:521,-1.017,3.099,8.074,29.5635,0.3006,1.2093,0.0562,0.1548
17:51:03:541,-2.0231,3.3071,9.288,29.3756,0.1013,1.2594,0.0414,0.1602
17:51:03:560,-2.921,3.8771,10.983,30.7495,-0.1948,1.1582,0.0733,0.1652
17:51:03:583,-3.5,3.9371,13.44,30.2337,-0.41,0.8353,0.2129,0.1693
17:51:03:600,-3.045,3.843,14.508,30.2313,-0.362,0.1163,0.3832,0.1717
17:51:03:620,-1.808,3.951,13.1171,30.2166,-0.2002,-0.4088,0.3971,0.1719
17:51:03:644,-1.049,4.37,11.7161,29.3904,-0.231,-0.477,0.3226,0.1703
17:51:03:661,-1.2311,4.779,11.778,29.3368,-0.4984,-0.4121,0.3204,0.168
17:51:03:682,-1.8221,4.2101,12.8291,29.6096,-0.7455,-0.5048,0.4377,0.1659
17:51:03:699,-2.409,2.5721,13.3661,29.6881,-0.6391,-0.6091,0.5303,0.1632
17:51:03:719,-2.564,0.9821,12.7601,30.4412,-0.1917,-0.4727,0.5185,0.1589
17:51:03:746,-2.444,0.4001,11.613,29.9909,0.3623,-0.118,0.3439,0.1534
17:51:03:759,-2.784,0.6761,10.002,30,0.8023,0.095,-0.014,0.1486
17:51:03:792,-3.515,1.514,8.074,31.3596,0.9482,0.0844,-0.3645,0.1464
17:51:03:798,-3.9701,2.4161,6.269,31.3672,0.7341,-0.052,-0.4381,0.1478
17:51:03:819,-3.6821,2.991,5.448,31.3068,0.3549,-0.2842,-0.2527,0.1522
17:51:03:843,-2.99,3.089,4.725,31.2549,0.1077,-0.5389,-0.0012,0.1582
17:51:03:860,-2.1281,3.168,4.193,32.0571,0.0428,-0.4386,0.2575,0.1638
17:51:03:878,-1.2761,3.489,4.4111,31.8969,0.2122,-0.0392,0.4653,0.168
17:51:03:898,-0.431,4.329,4.83,31.9011,0.5402,0.2409,0.5813,0.1707
17:51:03:918,0.483,5.543,4.26,31.862,0.7063,0.4401,0.6549,0.173
17:51:03:943,1.103,6.383,4.4711,31.8091,0.5796,0.9973,0.8008,0.1761
17:51:03:960,0.5689,6.1421,6.525,32.2866,0.389,1.5672,1.0874,0.1808
17:51:03:982,0.3251,5.742,9.159,32.2727,0.3239,1.5437,1.3718,0.1864
17:51:03:998,0.7721,5.342,10.8161,32.8162,0.3975,1.0931,1.4667,0.1919
17:51:04:018,1.629,4.94,11.496,33.4032,0.5306,0.4433,1.3878,0.1972
17:51:04:042,2.781,4.571,10.581,33.192,0.4518,-0.0733,1.1652,0.2022
17:51:04:060,3.4661,4.454,10.014,33.0345,0.0428,-0.1787,0.6751,0.2074
17:51:04:081,3.128,4.6241,10.619,32.3468,-0.5783,-0.1222,0.0073,0.2129
17:51:04:098,1.211,4.497,12.779,32.2777,-1.1514,-0.0776,-0.4987,0.2174
17:51:04:117,-0.527,3.786,16.076,33.1234,-1.2845,-0.2182,-0.5318,0.2188
17:51:04:137,-0.843,2.6651,18.475,32.5615,-0.638,-0.5548,-0.3508,0.2158
17:51:04:160,-0.0071,1.655,16.77,32.5685,0.5136,-0.7689,-0.3241,0.2086
17:51:04:194,0.662,1.674,12.9611,33.4453,1.305,-0.5654,-0.5499,0.2003
17:51:04:197,0.246,2.438,9.65,33.4258,1.3604,-0.3652,-0.8983,0.1956
17:51:04:216,-0.821,3.345,7.682,33.2113,0.8086,-0.3407,-1.1826,0.1971
17:51:04:237,-1.221,3.956,7.44,32.7421,0.0396,-0.7103,-1.2935,0.2037
17:51:04:258,-0.7901,4.028,7.007,32.9942,-0.5048,-1.3431,-1.3159,0.2115
17:51:04:279,-0.354,3.7811,5.984,33.8295,-0.753,-1.5348,-1.3244,0.2174
17:51:04:296,-0.3161,3.467,5.3021,34.1785,-0.7913,-1.2365,-1.3552,0.2195
17:51:04:316,-0.294,3.4841,5.481,34.0186,-0.671,-0.7678,-1.3893,0.2179
17:51:04:336,-0.488,3.776,6.8201,34.2931,-0.3589,-0.3556,-1.3244,0.2137
17:51:04:360,-0.819,3.963,7.8251,34.6419,0.1588,-0.3854,-1.1081,0.2081
17:51:04:381,-0.5171,4.154,7.038,34.2788,0.536,-0.346,-0.7704,0.2025
17:51:04:395,-0.366,3.984,6.822,34.2334,0.6489,0.3059,-0.4487,0.1988
17:51:04:415,-0.96,3.8861,8.378,34.6599,0.7437,0.8822,-0.2857,0.1981
17:51:04:436,-1.8341,3.9821,9.954,34.7609,0.7969,0.7778,-0.2101,0.2002
17:51:04:459,-1.8341,3.963,9.4391,34.6968,0.6617,0.3293,-0.1163,0.2047
17:51:04:482,-1.559,4.054,8.831,35.2309,0.2377,0.2537,-0.0578,0.2108
17:51:04:495,-1.4771,4.0631,10.406,35.2256,-0.1789,0.209,-0.0556,0.2174
17:51:04:515,-1.1111,4.221,12.132,35.0409,-0.181,-0.0776,-0.1217,0.223
17:51:04:534,-1.061,4.547,12.2231,35.4199,0.1855,-0.3279,-0.3039,0.226
17:51:04:559,-1.9391,4.8341,11.129,35.0648,0.406,-0.3268,-0.3645,0.2265
17:51:04:590,-2.7821,4.806,10.703,36.2333,0.3475,-0.2575,-0.2036,0.2264
17:51:04:594,-3.201,4.152,10.349,36.0848,0.2654,-0.2788,-0.0173,0.2272
17:51:04:614,-3.0311,3.515,9.338,35.5222,0.21,-0.2864,0.1042,0.229
17:51:04:634,-2.353,3.324,8.472,35.8141,0.1045,-0.1682,0.1191,0.2311
17:51:04:657,-1.86,3.357,7.356,36.7994,0.0268,-0.1,0.0136,0.233
17:51:04:677,-1.865,3.477,5.5361,37.0255,-0.1246,0.0918,-0.0918,0.2355
17:51:04:693,-2.025,3.855,5.127,37.0255,-0.5644,0.4412,-0.1078,0.2359
17:51:04:714,-2.543,3.776,7.0901,37.0334,-1.0385,0.5094,-0.0726,0.235
17:51:04:734,-2.631,3.795,9.5321,36.5239,-1.0449,-0.021,0.0243,0.2315
17:51:04:754,-1.8,3.788,9.3671,36.9239,-0.54,-0.672,0.1884,0.225
17:51:04:782,-0.6131,3.795,7.512,36.8761,0.0928,-0.7891,0.3567,0.2177
17:51:04:793,0.1691,4.1981,5.7851,36.8741,0.488,-0.3609,0.4547,0.2125
17:51:04:813,0.042,4.4591,5.625,38.179,0.5328,0.1558,0.5516,0.2111
17:51:04:833,-0.0911,4.655,6.6521,37.7886,0.3932,0.0939,0.6091,0.2128
17:51:04:853,0.4541,5.057,7.088,38.3017,0.1727,-0.3024,0.5068,0.2161
17:51:04:893,0.942,5.21,7.272,38.5242,-0.1224,-0.5111,0.2938,0.2194
17:51:04:894,1.029,5.0471,8.1101,38.499,-0.3014,-0.51,0.0733,0.2214
17:51:04:913,0.8231,4.83,8.8361,38.9294,-0.2173,-0.3237,-0.0887,0.2216
17:51:04:932,0.389,4.7,9.647,39.3058,0.0172,0.0566,-0.1547,0.2205
17:51:04:953,-0.089,5.004,11.0651,39.7304,0.242,0.1856,-0.1217,0.2195
17:51:04:990,-0.065,5.174,11.517,39.2606,0.2089,-0.0701,-0.0258,0.2196
17:51:04:994,0.6671,4.8821,11.318,39.2381,0.0001,-0.3876,-0.0279,0.2205
17:51:05:012,0.947,4.3511,11.0621,40.5338,-0.1192,-0.4397,-0.2835,0.2211
17:51:05:032,0.801,4.1981,10.988,40.5266,-0.1192,-0.3673,-0.5637,0.2208
17:51:05:051,0.782,4.38,10.662,40.4937,-0.0829,-0.2779,-0.5723,0.2198
17:51:05:078,0.7481,4.176,9.908,40.9557,-0.0499,-0.1628,-0.3465,0.2186
17:51:05:092,0.717,3.561,9.236,40.9327,-0.0957,0.0012,-0.0726,0.2175
17:51:05:111,0.902,3.161,9.056,41.7453,-0.2182,0.0694,-0.0003,0.2164
17:51:05:131,0.612,2.871,8.733,42.5982,-0.3492,-0.0201,-0.1695,0.2149
17:51:05:151,0.1361,2.8451,8.39,42.5906,-0.4345,-0.2086,-0.389,0.2126
17:51:05:182,-0.1511,3.1181,7.763,42.6452,-0.3813,-0.4173,-0.5871,0.2093
17:51:05:192,-0.342,3.546,6.894,42.629,-0.2097,-0.4505,-0.6852,0.2052
17:51:05:211,-0.261,4.02,6.3911,42.6985,-0.0234,-0.4036,-0.6511,0.2017
17:51:05:230,-0.1391,4.181,5.649,43.0335,0.1408,-0.2512,-0.5361,0.1994
17:51:05:250,-0.0071,4.257,5.34,43.4392,0.2142,0.0896,-0.3389,0.1985
17:51:05:281,0.2621,4.578,5.862,44.3073,0.2089,0.4518,-0.2005,0.1991
17:51:05:290,-0.1361,4.6091,7.265,44.2845,0.1514,0.7747,-0.1451,0.2007
17:51:05:310,-1.077,4.128,9.14,44.2925,0.1748,0.8023,-0.0055,0.2027
17:51:05:330,-1.049,4.016,9.8201,45.0823,0.2963,0.5115,0.1469,0.2052
17:51:05:350,-0.644,4.016,9.231,45.5289,0.3517,0.3645,0.1563,0.208
17:51:05:391,-0.414,4.205,8.759,46.4389,0.242,0.4316,0.0967,0.2109
17:51:05:394,-0.704,4.463,9.0461,46.9135,-0.0021,0.5521,0.036,0.2141
17:51:05:410,-1.0631,4.961,10.3871,46.4688,-0.2918,0.5584,-0.0396,0.2169
17:51:05:430,-1.6541,5.213,12.156,47.3266,-0.393,0.3613,-0.1419,0.2184
17:51:05:450,-2.981,4.7,12.686,47.3342,-0.2577,0.0342,-0.0876,0.2179
17:51:05:479,-3.254,4.31,12.216,47.8297,-0.1437,-0.2501,0.2214,0.2162
17:51:05:489,-2.574,3.86,11.936,47.814,-0.0276,-0.2171,0.4994,0.2142
17:51:05:509,-2.025,2.979,11.498,48.7004,0.2537,-0.1393,0.5984,0.2124
17:51:05:529,-1.599,2.4761,9.848,48.6913,0.536,-0.0466,0.5142,0.2117
17:51:05:548,-1.6211,2.301,8.081,48.3375,0.538,0.2676,0.3758,0.213
17:51:05:582,-2.102,2.5001,7.4351,48.4595,0.2387,0.6329,0.2234,0.2159
17:51:05:589,-2.9471,2.687,7.727,49.5525,-0.0872,0.6959,0.0796,0.2192
17:51:05:609,-3.1841,2.8691,7.44,49.5525,-0.2758,0.3667,0.0434,0.2215
17:51:05:629,-2.837,3.2111,6.623,50.449,-0.3941,0.1099,0.0957,0.2222
17:51:05:649,-2.466,3.482,5.9411,50.449,-0.4143,0.029,0.1884,0.2213
17:51:05:679,-2.028,3.7091,5.151,50.6538,-0.3492,0.0001,0.3492,0.2192
17:51:05:691,-1.137,4.293,4.718,51.1808,-0.2992,0.0791,0.5303,0.2164
17:51:05:709,-0.3761,5.024,5.0891,52.2402,-0.2992,0.2687,0.6859,0.2136
17:51:05:728,-0.0191,5.4191,6.027,52.0039,-0.2491,0.4305,0.8616,0.2109
17:51:05:747,0.5861,5.723,6.774,51.8025,-0.1767,0.5606,1.0746,0.2085
17:51:05:791,1.7201,5.768,9.803,52.0757,-0.1713,0.8929,1.1609,0.2067
17:51:05:808,1.8551,5.435,11.369,52.8991,-0.0531,0.6553,0.9798,0.2057
17:51:05:827,1.9601,5.261,12.003,53.2099,0.1002,0.1493,0.7018,0.205
17:51:05:847,2.063,5.2751,11.484,53.2099,0.1216,-0.2799,0.3268,0.2046
17:51:05:881,1.811,5.562,11.381,54.071,-0.067,-0.3257,-0.0418,0.2056
17:51:05:887,0.95,5.706,12.5321,54.071,-0.2853,-0.2938,-0.3219,0.2062
17:51:05:907,-0.203,5.433,12.9131,55.1145,-0.362,-0.2746,-0.4807,0.2057
17:51:05:927,-1.5971,4.973,13.547,55.9241,-0.3898,-0.0456,-0.4306,0.2038
17:51:05:947,-2.0921,4.131,15.0341,55.1145,-0.2736,-0.1255,-0.1738,0.2011
17:51:05:981,-1.152,2.9381,14.208,55.9241,0.2153,-0.5782,0.0466,0.198
17:51:05:987,0.092,2.328,10.859,55.9241,0.7139,-0.5932,0.0562,0.196
17:51:06:007,0.48,2.5241,8.0021,57.734,0.7384,-0.2129,-0.0566,0.1969
17:51:06:026,0.035,2.9381,6.7811,56.8042,0.2377,0.095,-0.1621,0.2004
17:51:06:048,-0.584,3.0911,6.9161,57.734,-0.4686,-0.0381,-0.2388,0.2044
17:51:06:080,-0.689,2.9051,7.1141,58.332,-0.9885,-0.5398,-0.3091,0.206
17:51:06:086,-0.417,2.613,6.81,58.332,-1.129,-0.9181,-0.3591,0.2034
17:51:06:106,-0.129,2.4161,6.614,58.5726,-0.8936,-0.9542,-0.3838,0.1967
17:51:06:126,0.4181,2.6681,6.341,57.6204,-0.4004,-0.753,-0.3923,0.1882
17:51:06:146,0.827,2.979,5.876,59.4974,0.0854,-0.2373,-0.3591,0.1804
17:51:06:193,0.729,3.321,7.109,60.3565,0.7011,0.5317,-0.1877,0.1754
17:51:06:207,0.341,3.434,7.361,61.1549,0.782,0.5552,-0.1962,0.1737
17:51:06:225,-0.3641,3.819,7.3301,61.6326,0.6531,0.5862,-0.258,0.1755
17:51:06:245,-1.1681,4.3361,7.7441,61.2334,0.293,0.6127,-0.2155,0.1799
17:51:06:278,-1.427,4.59,8.565,62.5296,-0.1309,0.5328,-0.0301,0.1912
17:51:06:285,-1.317,4.317,9.585,62.5296,-0.4399,0.6479,0.2075,0.195
17:51:06:305,-1.355,3.996,11.5511,63.3468,-0.4697,0.8002,0.3598,0.1963
17:51:06:325,-1.29,3.963,12.7001,63.6308,-0.2918,0.7096,0.3545,0.1951
17:51:06:346,-1.065,4.308,12.8,63.2248,-0.1394,0.3986,0.2267,0.1929
17:51:06:381,-0.9821,4.499,11.7491,63.1844,-0.1628,0.0513,0.1063,0.1907
17:51:06:384,-1.1801,4.5161,10.703,63.1844,-0.3865,-0.0307,0.054,0.1888
17:51:06:404,-1.788,4.1621,11.2631,64.5927,-0.6636,-0.0456,0.0659,0.1867
17:51:06:426,-2.066,3.482,12.068,64.9906,-0.7381,-0.2916,0.1159,0.1833
17:51:06:444,-1.836,2.4791,11.7041,64.9906,-0.5016,-0.4718,0.1532,0.1783
17:51:06:482,-1.652,1.6841,10.349,64.081,-0.1107,-0.2683,0.1819,0.1727
17:51:06:492,-1.8941,1.4231,9.003,66.0031,0.0982,0.045,0.1532,0.1682
17:51:06:507,-2.495,1.514,8.06,65.9948,-0.0382,0.1408,0.0253,0.1654
17:51:06:524,-2.828,1.6091,7.634,66.0031,-0.3567,-0.1159,-0.0854,0.1639
17:51:06:545,-2.4641,1.8581,7.155,66.0031,-0.557,-0.5633,-0.1132,0.162
17:51:06:589,-1.683,2.426,5.474,66.0899,-0.312,-0.6986,-0.0183,0.1586
17:51:06:607,-1.451,3.024,5.117,66.0519,-0.0584,-0.4258,0.1404,0.1542
17:51:06:624,-0.852,3.92,5.2181,66.9418,0.1013,-0.0883,0.4014,0.1468
17:51:06:644,0.092,4.7981,5.972,67.4639,0.1875,0.0151,0.7018,0.1452
17:51:06:678,1.175,5.304,5.8481,68.4559,0.1727,0.03,0.9159,0.145
17:51:06:684,1.826,5.3801,6.516,68.4611,-0.0319,0.3667,1.0341,0.1458
17:51:06:708,1.85,4.892,8.697,68.4865,-0.2002,0.5776,1.0544,0.1466
17:51:06:725,2.211,4.3271,10.617,68.2403,-0.1767,0.4615,0.9883,0.1469
17:51:06:746,2.93,3.8891,11.424,68.3204,0.0065,0.1132,0.7806,0.1466
17:51:06:780,3.657,3.7211,11.328,68.864,0.0406,-0.1287,0.4258,0.1462
17:51:06:791,3.612,3.266,12.0371,68.864,-0.115,-0.166,-0.0109,0.1463
17:51:06:807,3.248,2.814,13.4681,68.8119,-0.2992,-0.3076,-0.4509,0.1463
17:51:06:825,2.484,2.672,14.316,69.2961,-0.3887,-0.51,-0.9376,0.1452
17:51:06:845,0.8471,2.567,15.092,69.268,-0.345,-0.5687,-1.2445,0.143
17:51:06:905,-0.122,2.4191,15.5831,69.0838,-0.1576,-0.5665,-1.1656,0.14
17:51:06:906,-0.1841,1.8491,15.12,69.0838,0.2387,-0.4718,-0.8514,0.1371
17:51:06:907,-0.029,1.2791,13.595,69.1228,0.7139,-0.2299,-0.5797,0.1355
17:51:06:927,-0.158,1.289,11.7611,69.4735,0.8726,-0.0253,-0.4977,0.1367
17:51:06:943,-0.6941,1.439,10.2431,69.3167,0.6094,-0.0179,-0.5158,0.1409
17:51:06:991,-0.96,1.643,8.2991,69.1428,-0.1352,-0.836,-0.7704,0.1464
17:51:07:006,-0.845,1.751,6.5591,69.1697,-0.2417,-1.0406,-0.991,0.1507
17:51:07:023,-1.034,2.0021,5.1491,70.1073,-0.2267,-0.7998,-1.107,0.1527
17:51:07:041,-1.221,2.409,4.643,65.4216,-0.15,-0.3791,-1.1081,0.1525
17:51:07:061,-1.719,2.601,5.0291,65.8894,0.0257,-0.1063,-1.0069,0.1511
17:51:07:080,-2.011,2.79,5.5481,66.0415,0.3495,-0.0637,-0.7832,0.1495
17:51:07:100,-1.5131,3.132,5.015,66.2633,0.5838,0.0876,-0.4306,0.1485
17:51:07:122,-0.785,3.065,5.666,67.358,0.6392,0.5061,-0.0322,0.1489
17:51:07:140,-0.237,2.778,5.934,66.8148,0.7054,0.7332,0.2501,0.1513
17:51:07:160,0.3101,2.84,5.52,68.0571,0.5627,0.9888,0.2905,0.1555
17:51:07:184,0.0881,3.18,6.3,68.5544,0.1695,1.2988,0.0562,0.1674
17:51:07:200,-0.797,3.503,7.619,68.6483,-0.3003,1.4927,-0.2069,0.1731
17:51:07:224,-2.181,3.8981,10.325,67.9604,-0.7264,1.7248,-0.2377,0.1767
17:51:07:240,-3.278,4.152,13.8281,69.9994,-0.8319,1.4468,-0.0109,0.1774
17:51:07:259,-3.225,4.4561,15.5111,69.518,-0.6369,0.6084,0.2607,0.1751
17:51:07:282,-2.222,4.509,13.682,67.9138,-0.4845,-0.0925,0.4067,0.171
17:51:07:300,-1.616,4.566,12.3311,67.8444,-0.7211,-0.1255,0.5048,0.1664
17:51:07:324,-1.671,4.116,13.686,67.6736,-1.1077,-0.0573,0.5921,0.1615
17:51:07:341,-1.9781,3.087,15.525,67.9862,-1.0821,-0.2214,0.5389,0.1551
17:51:07:359,-2.3891,1.8371,15.8441,66.6462,-0.5357,-0.5016,0.4536,0.1467
17:51:07:391,-2.5001,1.056,13.49,67.0954,0.2046,-0.5824,0.3481,0.1386
17:51:07:398,-2.993,1.052,10.634,66.8655,0.6765,-0.3268,0.1979,0.1333
17:51:07:418,-3.965,1.5281,8.462,66.8282,0.7639,-0.0764,0.1009,0.1323
17:51:07:441,-4.31,2.045,7.397,66.6176,0.5477,-0.0818,0.2012,0.1348
17:51:07:458,-3.8021,2.186,6.707,68.4716,0.4027,-0.3928,0.3567,0.139
17:51:07:480,-2.883,2.3111,5.0861,67.9214,0.4826,-0.6986,0.4419,0.1434
17:51:07:498,-1.887,2.766,3.233,68.8445,0.4954,-0.6262,0.5079,0.1477
17:51:07:518,-1.044,3.407,2.285,69.5148,0.3655,-0.181,0.527,0.1523
17:51:07:541,-0.45,4.071,2.393,69.5369,0.0769,0.3443,0.5697,0.157
17:51:07:557,0.243,5,4.011,69.4379,-0.3131,0.6084,0.6794,0.1609
17:51:07:582,0.662,5.34,7.097,70.584,-0.4419,0.6618,0.8499,0.1628
17:51:07:597,0.44,4.7359,9.1901,71.1962,-0.0286,0.5584,1.0884,0.1624
17:51:07:617,1.1051,4.875,10.212,68.9923,0.5371,0.5862,1.2803,0.1617
17:51:07:638,1.8671,4.808,10.133,70.5481,0.8598,0.667,1.3505,0.163
17:51:07:657,2.4341,4.3841,10.212,72.1392,0.8609,0.6874,1.2897,0.1674
17:51:07:680,2.685,3.975,10.4471,73.061,0.6372,0.5499,1.0341,0.1739
17:51:07:696,2.793,3.834,11.5481,71.9923,0.1823,0.2303,0.608,0.1812
17:51:07:716,2.678,3.762,12.3791,72.1272,-0.2694,-0.3737,0.0008,0.187
17:51:07:741,1.613,3.819,12.614,72.5858,-0.6688,-0.6325,-0.6138,0.1901
17:51:07:757,0.08,3.5201,14.4761,72.4489,-0.8436,-0.558,-0.8279,0.1898
17:51:07:789,-0.3851,2.8421,15.899,72.7151,-0.4632,-0.6986,-0.6724,0.1861
17:51:07:796,0.212,2.174,14.2421,73.7755,0.3442,-0.722,-0.5296,0.1811
17:51:07:816,0.705,2.1791,11.45,73.7417,0.9547,-0.2395,-0.5222,0.1779
17:51:07:838,0.222,2.627,9.786,74.6921,0.9493,0.2303,-0.5435,0.1791
17:51:07:855,-0.615,2.759,9.197,73.256,0.4731,0.1621,-0.5276,0.1837
17:51:07:879,-0.737,2.4761,8.637,74.665,-0.0308,-0.428,-0.5499,0.189
17:51:07:895,-0.182,2.4041,7.097,74.8749,-0.3077,-1.0458,-0.6926,0.1924
17:51:07:915,0.258,2.6171,5.402,75.227,-0.3972,-1.1513,-0.9035,0.193
17:51:07:938,0.26,2.981,4.466,76.3132,-0.3717,-0.886,-1.0421,0.1915
17:51:07:955,0.0971,3.527,4.409,76.3651,-0.3099,-0.4493,-1.0516,0.189
17:51:07:980,-0.146,4.0519,5.7161,77.0263,-0.1884,-0.1052,-0.9142,0.1863
17:51:07:995,-0.23,4.1981,6.8441,76.6895,0.0843,-0.1222,-0.634,0.1839
17:51:08:015,0.236,4.068,6.894,76.7529,0.4487,-0.0329,-0.3059,0.1823
17:51:08:039,0.186,3.656,6.516,78.2838,0.7725,0.4487,-0.0674,0.1826
17:51:08:055,-0.345,3.834,6.906,78.6867,0.8438,0.9195,0.0679,0.1855
17:51:08:082,-1.01,4.0631,7.823,78.7638,0.6031,1.1698,0.183,0.1909
17:51:08:094,-1.346,4.073,9.441,78.3953,0.3026,1.0879,0.2714,0.1975
17:51:08:114,-1.527,3.791,10.65,79.4534,0.1184,0.8727,0.3385,0.2037
17:51:08:134,-1.511,3.788,11.9531,80.4703,-0.0862,0.6042,0.3428,0.2081
17:51:08:154,-1.3361,3.788,13.016,79.5624,-0.2097,0.1942,0.1777,0.2106
17:51:08:191,-0.7901,4.262,12.714,80.021,-0.1841,-0.3237,-0.0972,0.2112
17:51:08:194,-0.548,4.839,11.283,79.8965,-0.2577,-0.5867,-0.2804,0.2103
17:51:08:213,-0.8861,5.1581,10.8131,79.7924,-0.474,-0.5068,-0.2665,0.2086
17:51:08:234,-1.401,4.8251,11.469,80.5056,-0.6369,-0.3843,-0.0802,0.2059
17:51:08:255,-1.932,3.819,12.063,79.5923,-0.5485,-0.3758,0.1435,0.2018
17:51:08:278,-1.889,2.625,11.5751,79.2959,-0.281,-0.2555,0.3013,0.1967
17:51:08:292,-1.616,1.674,10.7801,79.0156,0.0022,0.0748,0.3257,0.1921
17:51:08:313,-1.745,1.37,9.609,79.1458,0.2207,0.2932,0.1213,0.189
17:51:08:333,-2.48,1.772,8.22,79.9055,0.242,0.34,-0.2229,0.1876
17:51:08:354,-2.976,2.4551,6.7931,78.9959,0.0566,0.1334,-0.4455,0.1877
17:51:08:381,-3.065,3.053,5.699,79.9442,-0.2321,-0.1458,-0.4179,0.1883
17:51:08:392,-2.895,3.345,5.352,79.9441,-0.4345,-0.3663,-0.2005,0.1883
17:51:08:412,-2.353,3.374,5.592,79.2712,-0.3941,-0.428,0.1255,0.1867
17:51:08:432,-1.556,3.321,5.544,79.826,-0.0425,-0.3151,0.4664,0.1841
17:51:08:454,-0.237,3.867,5.108,79.8257,0.3847,0.0428,0.7167,0.1817
17:51:08:481,0.825,4.667,5.1251,80.5695,0.7373,0.5691,0.8317,0.1812
17:51:08:491,1.665,5.5571,5.007,80.592,0.7884,0.9344,0.8722,0.1837
17:51:08:512,1.8671,5.9981,5.757,79.6652,0.5072,1.2082,0.8744,0.1887
17:51:08:531,1.4951,5.988,7.449,81.7061,0.0672,1.2082,0.8679,0.1947
17:51:08:554,1.436,5.663,9.93,81.27,-0.3151,0.8524,0.8456,0.1998
17:51:08:594,1.934,5.043,11.517,82.8357,-0.4175,0.2857,0.7391,0.2026
17:51:08:596,2.439,4.43,11.9651,82.4612,-0.3439,-0.1671,0.5463,0.2028
17:51:08:612,2.688,4.382,11.685,81.9464,-0.3898,-0.2256,0.2427,0.2014
17:51:08:631,2.084,4.5161,12.317,81.0415,-0.6369,-0.0456,-0.1195,0.1993
17:51:08:656,0.5089,4.0849,13.938,81.6125,-0.9277,0.0876,-0.3389,0.1958
17:51:08:680,-0.915,3.135,16.497,81.1623,-0.9138,-0.1596,-0.3475,0.1904
17:51:08:691,-0.7661,2.064,16.571,80.0447,-0.3567,-0.8328,-0.3347,0.1831
17:51:08:711,0.2261,1.607,12.8651,80.8812,0.3165,-1.1012,-0.5115,0.1762
17:51:08:731,0.456,2.0021,9.326,80.2796,0.455,-0.737,-0.7428,0.1723
17:51:08:754,-0.1121,2.646,7.9331,79.6426,0.0331,-0.3812,-0.8918,0.1717
17:51:08:782,-0.948,2.754,7.9571,79.3792,-0.5155,-0.4334,-0.9461,0.1721
17:51:08:790,-1.2311,2.6561,7.749,79.3263,-0.8308,-0.7305,-0.9504,0.1708
17:51:08:811,-0.948,2.577,7.095,79.6701,-0.9001,-0.8658,-0.9333,0.1669
17:51:08:830,-0.6581,2.567,6.8201,78.6681,-0.7327,-0.7146,-0.9014,0.1607
17:51:08:849,-0.3611,2.6921,6.746,79.3206,-0.3503,-0.4153,-0.8269,0.1536
17:51:08:881,-0.237,2.814,6.851,78.5958,0.111,0.0257,-0.6991,0.1471
17:51:08:908,-0.39,2.921,7.277,78.8505,0.5306,0.3208,-0.5456,0.1429
17:51:08:910,-0.2231,3.1631,7.3541,77.8458,0.7873,0.2857,-0.3986,0.1421
17:51:08:929,0.116,3.23,6.927,78.3649,0.8587,0.2996,-0.2622,0.1446
17:51:08:950,0.2171,3.192,7.109,79.3759,0.7842,0.5456,-0.127,0.1497
17:51:08:993,0.0371,3.1781,8.007,80.3488,0.6691,0.798,-0.0652,0.1563
17:51:08:995,-0.35,3.3161,8.8121,80.4418,0.5616,0.8961,-0.0683,0.1633
17:51:09:009,-1.0031,3.659,9.3671,79.9049,0.341,0.8609,-0.0524,0.1703
17:51:09:029,-1.8581,4.032,10.6151,80.0569,-0.0872,0.7639,0.0637,0.1766
17:51:09:049,-2.2031,3.8501,12.518,80.4656,-0.573,0.4082,0.2362,0.1812
17:51:09:079,-1.535,3.338,13.8491,80.5357,-0.7722,-0.0872,0.2927,0.1823
17:51:09:089,-0.6941,3.309,13.545,80.2902,-0.6284,-0.4036,0.117,0.1798
17:51:09:108,-0.8741,3.7091,12.717,79.7167,-0.4729,-0.4599,-0.0674,0.175
17:51:09:129,-1.563,3.896,12.59,80.3781,-0.5123,-0.4173,-0.0578,0.1697
17:51:09:148,-1.956,3.1151,12.762,79.97,-0.5112,-0.4355,0.0776,0.1643
17:51:09:183,-1.9901,1.641,12.233,80.9729,-0.2002,-0.3502,0.1276,0.1589
17:51:09:188,-1.896,0.606,10.722,80.7355,0.341,-0.0264,-0.0055,0.1541
17:51:09:207,-2.432,0.7211,8.8211,79.3616,0.7703,0.4913,-0.3048,0.1518
17:51:09:227,-3.546,1.674,8.084,80.3766,0.6819,0.8418,-0.5413,0.1528
17:51:09:247,-4.3601,2.246,8.3021,80.3923,0.2782,0.5158,-0.5595,0.1567
17:51:09:281,-3.876,2.3921,7.706,80.1066,-0.0095,-0.3865,-0.4231,0.1609
17:51:09:287,-2.741,2.3711,5.7161,80.0902,-0.0436,-0.9064,-0.3241,0.1637
17:51:09:307,-1.982,2.5841,4.502,80.1204,0.1024,-0.7231,-0.2399,0.1647
17:51:09:327,-1.602,3.149,4.3031,79.7207,0.2537,-0.3024,-0.0481,0.1651
17:51:09:348,-1.2761,3.9341,4.7321,80.0311,0.3836,0.0546,0.1841,0.1661
17:51:09:390,-0.503,5.244,6.192,80.1933,0.4635,0.1834,0.656,0.1683
17:51:09:407,0.198,5.8061,6.918,80.8074,0.4869,0.1803,0.7795,0.1718
17:51:09:426,0.3491,5.826,7.485,80.6967,0.5147,0.3506,0.8562,0.176
17:51:09:447,0.686,5.9621,8.888,81.184,0.4826,0.4518,0.8968,0.1807
17:51:09:479,1.017,5.8421,10.2911,81.9817,0.4709,0.3102,0.8286,0.1917
17:51:09:488,1.416,5.7131,10.4231,82.7044,0.4092,0.0194,0.6401,0.1974
17:51:09:506,1.73,5.522,10.5791,82.611,0.1077,-0.0627,0.2874,0.2029
17:51:09:526,1.5,5.337,11.7851,81.3163,-0.2289,-0.1276,-0.2197,0.2072
17:51:09:546,0.375,5.3441,12.851,82.6114,-0.4803,-0.1649,-0.6831,0.2093
17:51:09:582,-1.271,5.129,14.481,82.0371,-0.5655,-0.2608,-0.8279,0.2087
17:51:09:586,-1.887,4.439,15.2111,81.9256,-0.3099,-0.5196,-0.5957,0.2059
17:51:09:606,-1.221,3.4361,14.043,81.0692,0.2921,-0.5708,-0.241,0.2021
17:51:09:625,-0.4361,2.859,11.4671,81.7351,0.8577,-0.2118,-0.0375,0.1997
17:51:09:646,-0.467,3.017,9.633,81.3313,0.9684,0.2346,-0.0492,0.2008
17:51:09:682,-1.197,3.276,8.505,82.0578,0.6255,0.2494,-0.1441,0.2054
17:51:09:685,-1.5041,3.407,7.6361,81.9997,0.0481,-0.231,-0.2505,0.2112
17:51:09:707,-1.0511,3.372,6.506,80.2287,-0.4782,-0.9585,-0.3497,0.2156
17:51:09:725,-0.407,3.1751,4.988,81.2693,-0.802,-1.3314,-0.421,0.2168
17:51:09:745,-0.036,3.063,4.404,81.0906,-0.9138,-1.1631,-0.4583,0.2145
17:51:09:790,0.0161,3.221,5.414,81.4849,-0.5123,-0.2566,-0.4892,0.2092
17:51:09:806,-0.108,3.5891,7.064,80.6789,-0.117,0.1024,-0.3582,0.2023
17:51:09:825,-0.144,3.6011,8.553,80.9363,0.4422,0.1973,-0.128,0.1956
17:51:09:844,0.078,3.4241,8.151,80.7269,1.009,0.308,0.0839,0.1906
17:51:09:879,0.15,3.75,7.493,81.6254,1.1804,0.6777,0.1649,0.191
17:51:09:887,-0.141,4.1711,7.6841,81.5589,0.9087,0.9163,0.168,0.1974
17:51:09:906,-0.539,4.346,8.2541,82.308,0.3783,0.8759,0.1671,0.2062
17:51:09:925,-0.804,4.607,9.219,82.1574,-0.2204,0.7309,0.1393,0.2146
17:51:09:943,-1.5251,4.559,11.141,81.4913,-0.7051,0.6436,0.1649,0.2202
17:51:09:981,-2.172,4.236,13.5041,81.0309,-0.785,0.4177,0.2885,0.2214
17:51:09:987,-1.796,4.226,14.654,82.3485,-0.4527,0.0205,0.3993,0.2188
17:51:10:007,-1.097,4.293,13.524,80.7298,-0.0191,-0.314,0.3928,0.2145
17:51:10:024,-0.6971,4.698,11.706,81.6932,0.129,-0.411,0.3055,0.2109
17:51:10:044,-0.783,4.863,10.94,81.691,-0.0468,-0.4547,0.2245,0.2089
17:51:10:080,-1.1201,4.1471,10.452,80.749,-0.2779,-0.6038,0.2054,0.2077
17:51:10:084,-1.3931,2.8571,9.5591,80.6354,-0.41,-0.5005,0.1862,0.2061
17:51:10:106,-1.398,1.839,9.374,80.7187,-0.3663,0.012,0.052,0.2033
17:51:10:123,-2.078,1.5281,9.5231,78.233,-0.0798,0.4284,-0.2698,0.1997
17:51:10:143,-3.1751,1.985,8.7491,79.2035,0.2089,0.4828,-0.6277,0.1965
17:51:10:191,-3.993,3.4001,6.401,80.1365,0.0566,-0.0158,-0.535,0.195
17:51:10:203,-3.45,3.546,6.24,78.9708,-0.0872,-0.3087,-0.1951,0.1953
17:51:10:222,-2.327,3.6041,5.69,79.9641,0.08,-0.5324,0.1435,0.1962
17:51:10:242,-0.984,4.054,4.517,79.9399,0.3325,-0.4642,0.4056,0.1966
17:51:10:261,-0.1031,4.5851,3.686,79.8451,0.4348,0.0641,0.5878,0.1967
17:51:10:283,0.538,5.2871,4.3871,79.3296,0.4241,0.6436,0.6996,0.1977
17:51:10:304,0.863,5.996,5.742,79.2178,0.3527,0.7895,0.77,0.2002
17:51:10:322,0.978,6.3161,6.6551,79.1477,0.1855,0.6735,0.8519,0.2038
17:51:10:341,1.076,6.18,7.9121,79.2707,-0.0063,0.5083,0.9489,0.2078
17:51:10:361,1.565,5.919,8.991,79.2946,-0.0883,0.2229,0.9776,0.2116
17:51:10:386,2.24,5.493,9.4631,80.2762,-0.0606,0.0247,0.8584,0.2147
17:51:10:402,2.666,5.364,9.722,79.2555,-0.0223,-0.0679,0.6006,0.2166
17:51:10:421,2.721,5.648,10.152,80.1637,-0.2503,-0.084,0.2501,0.2177
17:51:10:440,2.178,5.601,11.141,80.2681,-0.6593,-0.0659,-0.1356,0.2183
17:51:10:461,0.6311,4.9901,12.915,79.2236,-0.9746,0.0822,-0.4572,0.2182
17:51:10:486,-1.31,4.166,15.86,79.5534,-0.8936,0.1567,-0.5754,0.2162
17:51:10:504,-2.0231,3.17,17.1911,78.1611,-0.2662,-0.2054,-0.4146,0.2114
17:51:10:521,-1.2041,2.519,14.735,78.9181,0.5466,-0.4525,-0.2325,0.2046
17:51:10:541,-0.663,2.4671,11.4071,78.7294,0.9376,-0.2683,-0.2442,0.1982
17:51:10:560,-0.836,2.9411,9.077,77.671,0.6946,-0.0957,-0.3465,0.1953
17:51:10:591,-1.2431,3.278,7.8971,77.5354,0.0257,-0.2799,-0.3932,0.1969
17:51:10:603,-1.2881,3.149,7.3031,77.461,-0.605,-0.7018,-0.3954,0.201
17:51:10:619,-0.95,2.807,6.4511,77.5575,-0.8521,-1.0321,-0.4529,0.2046
17:51:10:640,-0.642,2.538,5.304,77.6703,-0.785,-0.9894,-0.5169,0.205
17:51:10:659,-0.33,2.78,4.605,76.3148,-0.5837,-0.5974,-0.5541,0.2016
17:51:10:681,-0.165,3.36,4.947,76.6289,-0.3759,-0.0349,-0.5532,0.196
17:51:10:703,-0.278,3.819,6.758,76.5089,-0.1096,0.3187,-0.4434,0.1899
17:51:10:720,-0.108,3.987,7.8281,75.2378,0.3293,0.2261,-0.2271,0.1846
17:51:10:739,0.531,4.154,8.0381,76.2134,0.7319,0.3932,-0.0045,0.1807
17:51:10:759,0.279,3.779,8.273,75.3325,1.1293,0.7363,0.1734,0.1791
17:51:10:782,0,3.905,7.715,75.8991,1.254,1.0335,0.2757,0.1809
17:51:10:798,-0.35,4.152,7.919,75.946,0.9675,1.337,0.2544,0.1864
17:51:10:818,-0.8981,4.329,9.1211,76.0488,0.5167,1.2625,0.1702,0.1952
17:51:10:838,-1.614,4.346,10.466,76.2561,0.1002,0.8162,0.0914,0.2057
17:51:10:858,-2.018,4.5521,11.328,75.115,-0.3151,0.1738,0.0551,0.2154
17:51:10:881,-2.1041,4.6571,12.125,74.9798,-0.509,-0.3801,-0.0268,0.2221
17:51:10:901,-1.52,4.88,11.46,74.8899,-0.4547,-0.6773,-0.0791,0.2253
17:51:10:923,-1.482,4.959,11.4311,74.7399,-0.3151,-0.4216,-0.0131,0.225
17:51:10:937,-2.1881,4.8971,11.73,74.6089,-0.1298,-0.2373,0.1511,0.2221
17:51:10:958,-2.555,4.25,11.888,73.4844,-0.1064,-0.2544,0.4493,0.2184
17:51:10:991,-2.3891,2.838,11.3021,73.4123,-0.036,-0.3417,0.6155,0.2152
17:51:11:004,-1.8461,1.76,10.1381,73.4613,0.1429,-0.1724,0.5346,0.213
17:51:11:019,-1.6691,1.574,9.075,73.4598,0.3421,0.2826,0.2267,0.2113
17:51:11:037,-2.555,2.148,8.4071,73.4599,0.4263,0.6383,-0.159,0.2105
17:51:11:057,-3.579,3.065,7.418,72.6833,0.3048,0.5382,-0.3741,0.2109
17:51:11:079,-3.704,3.8771,6.267,72.5843,-0.0148,0.1749,-0.2835,0.2127
17:51:11:097,-3.1961,4.1381,5.072,72.4927,-0.3535,-0.1691,-0.0183,0.2153
17:51:11:119,-2.729,4.073,4.478,72.4547,-0.5527,-0.1298,0.3076,0.2175
17:51:11:137,-2.162,3.9341,4.962,72.4763,-0.5081,0.0162,0.6612,0.218
17:51:11:156,-1.176,3.855,4.916,71.2771,-0.2651,0.078,0.9767,0.2165
17:51:11:182,0.0521,4.092,5.0771,71.2804,0.0417,0.4029,1.1481,0.2136
17:51:11:196,0.9881,4.542,5.726,71.2626,0.3666,0.6894,1.1407,0.2108
17:51:11:221,1.539,5.045,5.5871,71.5066,0.5115,0.877,1.0202,0.2089
17:51:11:236,1.5431,5.567,6.236,71.0247,0.2898,1.1593,0.8658,0.2092
17:51:11:256,1.1051,5.715,8.206,71.9422,-0.0649,1.1688,0.7146,0.2116
17:51:11:281,0.918,5.6651,10.179,70.8708,-0.2949,0.7895,0.5995,0.2178
17:51:11:295,1.1771,5.7491,11.591,70.8302,-0.4419,0.161,0.4547,0.2188
17:51:11:316,1.4261,5.646,12.221,70.8066,-0.6017,-0.378,0.265,0.2181
17:51:11:336,1.838,5.354,12.75,71.6054,-0.7498,-0.5569,0.085,0.2156
17:51:11:355,1.704,5.0471,13.385,71.6013,-0.8584,-0.3396,-0.1408,0.2113
17:51:11:391,0.495,4.368,14.759,71.8151,-0.8777,-0.0616,-0.3006,0.2055
17:51:11:395,-0.2711,3.395,16.4321,71.647,-0.6656,-0.1671,-0.2707,0.1984
17:51:11:418,-0.012,2.301,16.085,71.3022,-0.1128,-0.575,-0.2218,0.191
17:51:11:435,0.5089,1.775,13.38,71.0116,0.4731,-0.6837,-0.3591,0.1851
17:51:11:455,0.2981,1.9901,10.5431,70.8611,0.6148,-0.477,-0.6127,0.1827
17:51:11:479,-0.704,2.51,9.008,69.5997,0.2856,-0.3791,-0.8407,0.1836
17:51:11:495,-1.4891,2.739,8.2751,69.5296,-0.2588,-0.6304,-0.8992,0.1857
17:51:11:519,-1.3931,2.687,7.674,69.3189,-0.6827,-1.112,-0.8514,0.1864
17:51:11:536,-0.8741,2.4401,6.525,70.232,-0.8382,-1.407,-0.8364,0.1842
17:51:11:554,-0.2681,2.316,5.352,69.4146,-0.7871,-1.2792,-0.8609,0.1793
17:51:11:583,0.15,2.493,4.8851,69.5026,-0.6156,-0.786,-0.8855,0.173
17:51:11:594,0.167,2.7611,5.5601,69.4522,-0.3876,-0.2234,-0.8482,0.1664
17:51:11:616,-0.215,2.6771,7.3661,69.3129,-0.0297,0.0833,-0.6703,0.1607
17:51:11:636,-0.182,2.55,7.8611,68.188,0.5658,-0.0605,-0.5072,0.1567
