Time,Acc_X,Acc_Y,Acc_Z,Meg,Gyr_X,Gyr_Y,Gyr_Z,Ore
17:15:57:163,-0.8831,4.341,8.675,39.6742,-0.1075,-0.1298,-0.1057,0.197
17:15:57:189,-0.6101,3.8771,8.673,40.5921,-0.0158,0.1387,-0.0982,0.197
17:15:57:205,-0.2921,3.515,8.625,40.5921,0.0864,0.4828,-0.1387,0.1969
17:15:57:224,-0.333,3.599,8.532,39.8742,0.1365,0.7821,-0.1866,0.1966
17:15:57:244,-0.6251,3.831,8.7851,40.81,0.144,0.9174,-0.2303,0.1962
17:15:57:263,-1.118,4.248,9.446,40.1147,0.1684,0.7161,-0.2474,0.1956
17:15:57:283,-1.7741,4.526,10.311,41.2965,0.2515,0.1226,-0.1792,0.195
17:15:57:304,-1.985,4.3271,9.353,40.3679,0.2696,-0.4536,-0.0908,0.1948
17:15:57:324,-1.628,4.497,8.685,40.1147,0.1781,-0.4505,-0.0769,0.1958
17:15:57:343,-1.4771,4.703,8.405,39.8976,0.1152,-0.2874,-0.0972,0.1976
17:15:57:362,-1.5941,4.5641,8.1371,40.4839,0.111,-0.1042,-0.062,0.1998
17:15:57:391,-1.6931,4.593,8.8091,40.8209,0.129,-0.0722,-0.0247,0.2019
17:15:57:404,-1.508,4.499,8.6351,40.8254,0.1781,-0.1724,0.0243,0.2037
17:15:57:423,-0.962,4.119,7.8611,40.4839,0.1588,0.0407,-0.0205,0.2056
17:15:57:443,-0.654,3.963,7.895,40.478,0.1375,0.2911,-0.1248,0.2078
17:15:57:463,-1.2041,4.145,8.5841,39.7824,0.1226,0.2943,-0.1749,0.2095
17:15:57:482,-1.5011,4.4921,9.034,40.4562,0.129,0.0663,-0.161,0.2106
17:15:57:508,-1.451,4.5851,8.429,39.5232,0.1184,-0.0168,-0.1515,0.2111
17:15:57:522,-1.068,4.368,8.208,39.5232,0.1045,0.1397,-0.1845,0.212
17:15:57:542,-1.1111,4.406,8.3141,40.6866,0.1375,0.1899,-0.2346,0.2131
17:15:57:562,-1.628,4.961,8.67,39.4365,0.1664,0.1089,-0.1834,0.2141
17:15:57:582,-1.875,5.409,8.817,40.3643,0.2441,-0.052,-0.0802,0.2153
17:15:57:607,-1.5851,5.153,8.1821,40.6816,0.2728,-0.0392,-0.0205,0.217
17:15:57:621,-1.1681,4.731,8.153,39.4365,0.2472,0.0865,-0.0737,0.2193
17:15:57:641,-1.2881,4.875,8.448,40.3643,0.2259,0.0822,-0.143,0.222
17:15:57:661,-1.436,5.0831,8.4791,40.3643,0.2259,-0.0125,-0.1728,0.2245
17:15:57:682,-1.056,4.784,8.192,40.3526,0.1929,-0.1469,-0.2388,0.2271
17:15:57:702,-0.876,4.7081,7.3661,40.3522,0.0534,-0.0883,-0.3773,0.2296
17:15:57:721,-2.82,5.778,4.955,40.1313,-0.2054,0.2687,-0.3645,0.2316
17:15:57:740,-2.49,6.101,9.59,39.4194,-0.3365,0.0396,-0.111,0.2325
17:15:57:760,-0.711,5.081,8.022,40.3299,-0.1138,-0.5111,-0.1632,0.2315
17:15:57:791,-1.683,4.6931,7.5,39.5078,-0.036,0.2485,-0.3688,0.2306
17:15:57:800,-3.51,6.161,11.534,39.5092,0.2217,0.1184,-0.1089,0.2299
17:15:57:819,-1.853,5.907,9.257,39.1881,0.4891,-0.7146,0.1276,0.2295
17:15:57:839,-0.6941,5.1101,6.7481,39.9427,0.1088,-0.4014,-0.1387,0.2312
17:15:57:859,-0.9191,5.198,7.308,40.8954,-0.2108,-0.4845,-0.2122,0.2342
17:15:57:880,-1.089,5.759,8.251,39.7754,-0.3472,-0.6975,-0.2175,0.2362
17:15:57:899,-1.302,6.149,8.6471,39.9766,-0.23,-0.8264,-0.1185,0.2366
17:15:57:919,-0.378,6.1151,7.7081,40.9281,-0.0021,-0.753,0.0371,0.2364
17:15:57:942,1.139,5.8211,5.378,39.9242,0.0778,-0.1915,0.0371,0.2366
17:15:57:959,1.2941,5.8691,6.588,39.8718,-0.0947,0.2932,-0.0674,0.2376
17:15:57:981,0.392,5.706,9.456,39.8718,-0.3151,-0.1606,-0.1143,0.2384
17:15:57:999,0.138,5.196,11.096,39.7313,-0.3972,-1.1503,-0.095,0.238
17:15:58:018,0.708,4.928,9.633,39.6481,-0.4291,-1.6829,-0.1706,0.2366
17:15:58:038,1.409,4.875,7.8251,40.9174,-0.4612,-1.3335,-0.2835,0.235
17:15:58:059,1.3181,5.012,8.0771,39.8633,-0.4015,-0.7391,-0.4455,0.2332
17:15:58:084,1.131,4.878,8.216,38.4898,-0.2065,-0.3706,-0.5296,0.2311
17:15:58:099,1.5431,4.59,7.433,41.1166,-0.0106,-0.0371,-0.6298,0.229
17:15:58:118,1.445,4.389,6.966,40.178,0.0971,0.2591,-0.7886,0.2276
17:15:58:138,0.995,4.521,7.112,40.1853,0.0598,0.2761,-0.9142,0.2271
17:15:58:159,0.624,4.703,7.746,40.7769,-0.1011,0.0631,-0.9791,0.227
17:15:58:189,0.4871,4.9301,8.429,40.2773,-0.2949,-0.4429,-1.0047,0.2268
17:15:58:198,0.3011,5,8.2871,40.2976,-0.36,-0.5857,-1.0143,0.2259
17:15:58:218,-0.4361,5.4041,7.311,39.7469,-0.2406,-0.0201,-0.9111,0.2242
17:15:58:237,-1.29,5.682,9.149,39.3118,0.0087,0.798,-0.7587,0.2221
17:15:58:257,-1.1801,5.6081,10.095,40.2293,0.1886,0.6329,-0.6425,0.2205
17:15:58:279,-1.3361,5.735,10.5431,40.2291,0.2142,0.0109,-0.6416,0.22
17:15:58:297,-1.6781,6.005,10.598,38.9486,0.1365,-0.8712,-0.568,0.2206
17:15:58:317,-0.558,5.457,9.707,40.364,0.2441,-0.9852,-0.4817,0.2219
17:15:58:337,0.468,5.021,9.312,40.1175,0.503,-0.4727,-0.4859,0.2237
17:15:58:357,0.267,5.2631,9.365,40.0985,0.6605,-0.133,-0.5968,0.2265
17:15:58:381,-0.333,5.8331,9.1781,40.7478,0.7139,-0.1426,-0.5105,0.2306
17:15:58:397,-1.101,6.8,8.9651,40.8302,0.7106,-0.2342,-0.4731,0.236
17:15:58:417,-1.568,7.3361,8.223,40.5319,0.6969,0.0034,-0.3954,0.2422
17:15:58:436,-1.448,7.164,8.244,40.4943,0.4911,0.1536,-0.3475,0.2489
17:15:58:456,-1.815,7.035,9.111,40.2389,0.032,-0.2342,-0.3167,0.2555
17:15:58:479,-1.187,5.811,9.942,40.393,-0.3535,-0.7987,-0.2559,0.2604
17:15:58:498,-0.3761,4.526,9.7811,40.7126,-0.4845,-1.0406,-0.3176,0.2624
17:15:58:516,-0.431,3.879,9.4991,39.942,-0.3578,-0.6401,-0.4487,0.2616
17:15:58:536,-1.578,3.891,9.1211,39.9096,-0.0786,-0.0616,-0.4434,0.259
17:15:58:556,-2.157,3.671,9.0131,39.8864,0.4209,0.4029,-0.1984,0.2563
17:15:58:591,-2.406,3.767,7.895,40.5825,0.6841,0.3805,-0.093,0.2553
17:15:58:596,-2.2121,3.702,6.798,40.3601,0.5605,0.0896,-0.0322,0.2571
17:15:58:615,-1.875,3.683,6.0221,39.5972,0.2089,-0.0872,-0.0737,0.2607
17:15:58:637,-1.7861,3.57,6.0611,40.5419,-0.2193,-0.019,-0.1345,0.2643
17:15:58:656,-1.8221,3.5321,6.758,39.5794,-0.476,0.209,-0.1632,0.2662
17:15:58:679,-1.9631,3.8501,7.3271,39.5489,-0.443,0.3816,-0.1376,0.2656
17:15:58:696,-2.126,4.3481,7.5431,39.7333,-0.2736,0.3347,-0.0598,0.2632
17:15:58:715,-2.0089,4.7359,7.442,39.3859,-0.116,0.1004,0.0786,0.2603
17:15:58:736,-1.7381,4.863,7.682,40.5062,-0.0276,-0.2501,0.1936,0.258
17:15:58:755,-1.652,5.103,7.619,39.5468,0.0789,-0.4471,0.282,0.2567
17:15:58:783,-1.571,5.174,7.521,40.5033,0.2377,-0.3715,0.3237,0.2562
17:15:58:795,-1.25,5.249,7.272,38.587,0.3794,-0.117,0.3289,0.2569
17:15:58:814,-0.7541,5.574,7.131,39.5417,0.3432,-0.1116,0.2672,0.2589
17:15:58:834,-0.338,5.9981,7.076,39.5268,0.1546,-0.247,0.2458,0.2619
17:15:58:854,-0.077,6.1421,7.385,39.2536,-0.1341,-0.1702,0.2362,0.265
17:15:58:886,-0.431,6.161,8.769,38.7949,-0.3046,-0.1287,0.1585,0.267
17:15:58:896,-0.821,5.862,9.6161,39.7598,-0.3439,-0.2831,0.1106,0.2675
17:15:58:914,-0.642,6,9.729,39.7598,-0.3142,-0.3279,0.1532,0.2666
17:15:58:934,-0.105,6.24,9.6401,38.7772,-0.3312,-0.2831,0.1713,0.265
17:15:58:953,0.914,6.4271,10.059,39.1136,-0.4121,-0.1063,-0.029,0.263
17:15:58:991,1.182,5.7491,10.445,38.3983,-0.4792,-0.0872,-0.4359,0.2605
17:15:58:994,0.854,4.973,10.782,38.3866,-0.4462,-0.1777,-0.7385,0.2572
17:15:59:013,0.701,4.595,10.935,38.3907,-0.3407,-0.3502,-0.7747,0.2533
17:15:59:033,0.933,3.831,10.883,38.6407,-0.1724,-0.4056,-0.6809,0.2494
17:15:59:052,1.2131,2.8691,10.725,37.3847,0.0342,-0.5196,-0.6447,0.246
17:15:59:077,1.4021,2.352,10.0301,37.9963,0.2515,-0.6134,-0.6991,0.2438
17:15:59:094,1.184,2.718,8.565,37.6821,0.3942,-0.509,-0.6863,0.2429
17:15:59:113,1.1411,2.8691,7.1051,37.9979,0.3591,-0.2683,-0.5489,0.2434
17:15:59:154,1.0841,2.8691,6.4631,37.9808,0.1088,-0.1308,-0.4817,0.2451
17:15:59:155,0.6341,3.312,6.7721,37.6849,-0.2949,-0.3322,-0.5563,0.2467
17:15:59:181,0.516,3.395,6.81,37.4404,-0.5794,-0.525,-0.6618,0.2471
17:15:59:192,0.3011,3.525,7.028,37.4298,-0.6039,-0.4312,-0.7565,0.245
17:15:59:212,0.0371,3.6401,7.287,37.7703,-0.4984,-0.2342,-0.7385,0.241
17:15:59:233,-0.237,3.6881,7.665,38.6817,-0.3492,-0.0807,-0.665,0.2364
17:15:59:252,-0.467,3.8861,7.698,37.7502,-0.2162,-0.0551,-0.584,0.2319
17:15:59:280,-0.68,4.188,7.8611,36.8636,-0.0766,-0.0562,-0.4604,0.2283
17:15:59:292,-0.5291,4.3939,8.0651,36.8636,0.0289,-0.1478,-0.3528,0.2257
17:15:59:311,-0.158,4.65,8.515,38.1585,0.0331,-0.264,-0.3315,0.2244
17:15:59:332,-0.0431,4.887,9.123,38.1585,-0.0169,-0.2683,-0.3816,0.224
17:15:59:351,-0.12,5.0381,9.8771,37.2521,-0.0223,-0.1458,-0.4657,0.2239
17:15:59:392,-0.266,5.136,10.473,36.9611,0.0821,0.0492,-0.5094,0.2239
17:15:59:396,-0.615,5.165,10.842,36.9561,0.2238,0.2548,-0.4434,0.2241
17:15:59:412,-0.917,5.138,10.9451,36.9488,0.2963,0.3369,-0.3549,0.2249
17:15:59:430,-1.386,5.447,10.77,36.2915,0.3069,0.4008,-0.2698,0.2265
17:15:59:451,-1.7141,5.478,10.526,37.8335,0.3091,0.5339,-0.1015,0.2288
17:15:59:479,-1.64,4.746,10.653,36.4844,0.2207,0.3827,-0.0769,0.2318
17:15:59:491,-1.997,4.229,10.686,37.39,0.0747,-0.0253,-0.1695,0.235
17:15:59:511,-2.6381,3.776,10.251,36.8772,0.065,-0.2618,-0.2144,0.2374
17:15:59:532,-3.1961,3.7211,9.4991,37.5302,0.2292,-0.1724,-0.0162,0.2389
17:15:59:551,-2.741,3.218,8.912,36.6275,0.3719,-0.0594,0.2555,0.2401
17:15:59:580,-2.1911,3.324,8.6351,36.6109,0.2643,-0.2353,0.3769,0.242
17:15:59:590,-1.2881,3.182,8.417,36.6109,-0.0243,-0.3769,0.3109,0.2442
17:15:59:610,-0.9341,2.945,8.7731,35.7053,-0.345,-0.3695,0.1042,0.2455
17:15:59:630,-0.974,2.862,8.936,36.0092,-0.5804,-0.3673,0.0488,0.2449
17:15:59:651,-0.857,3.051,8.7281,35.095,-0.5709,0.0044,0.2182,0.242
17:15:59:682,-0.915,3.3401,8.354,35.9288,-0.3185,0.5402,0.5218,0.2375
17:15:59:690,-0.8021,3.3641,7.844,35.9053,-0.0265,0.8844,0.7795,0.233
17:15:59:712,-0.51,3.539,7.586,35.8959,0.1578,0.7502,0.9181,0.23
17:15:59:731,-0.1511,3.7931,7.466,36.4109,0.3091,0.258,0.8339,0.2288
17:15:59:751,-0.084,4.3601,7.404,35.4687,0.4646,-0.2544,0.509,0.2294
17:15:59:791,-0.3521,5.012,7.1261,36.1023,0.5838,-0.3502,0.0935,0.2351
17:15:59:809,-0.33,4.9661,7.406,36.084,0.505,-0.2544,0.0957,0.2394
17:15:59:829,-0.033,4.796,8.508,36.0736,0.3197,-0.4525,0.1244,0.244
17:15:59:849,0.492,4.8221,9.633,35.7999,0.0906,-0.6827,0.0456,0.2485
17:15:59:868,0.504,5.1671,10.574,34.8967,-0.0627,-0.5474,-0.1238,0.2513
17:15:59:889,0,5.6411,10.751,35.0358,-0.1011,-0.0403,-0.1547,0.2524
17:15:59:908,-0.6371,6.099,10.8251,35.9198,-0.0872,0.485,0.0711,0.2523
17:15:59:929,-0.024,5.481,10.899,36.2411,-0.1181,0.5936,0.2683,0.2519
17:15:59:948,1.031,4.748,11.2661,35.8414,-0.2087,0.3091,0.1202,0.2513
17:15:59:967,1.4021,4.1831,11.232,35.8414,-0.2289,-0.0371,-0.2442,0.2503
17:15:59:988,1.0211,3.623,10.4801,34.9442,-0.1,-0.0403,-0.5328,0.2489
17:16:00:008,0.722,2.9861,9.8411,37.0648,0.03,-0.0605,-0.5541,0.2473
17:16:00:028,0.969,2.766,9.0251,36.2629,0.0566,-0.2362,-0.3943,0.2462
17:16:00:047,1.352,2.862,8.297,36.5638,0.0257,-0.2416,-0.1994,0.2454
17:16:00:066,1.4621,3.089,7.8281,35.6941,-0.0584,-0.1606,-0.143,0.2448
17:16:00:087,1.203,3.302,7.449,35.3621,-0.1372,-0.0733,-0.2474,0.244
17:16:00:106,0.83,3.546,6.848,34.8241,-0.1437,-0.0253,-0.4146,0.243
17:16:00:127,0.294,3.587,6.329,35.688,-0.0851,-0.0712,-0.5222,0.2416
17:16:00:147,-0.057,3.7571,5.876,34.8322,-0.0329,-0.2139,-0.5072,0.2405
17:16:00:167,-0.096,4.073,5.9531,35.8178,-0.0468,-0.3961,-0.4785,0.2397
17:16:00:192,-0.029,4.595,6.734,36.1292,-0.0979,-0.6912,-0.568,0.2391
17:16:00:206,0.284,4.205,6.702,36.5851,-0.0371,-0.7785,-0.7395,0.2381
17:16:00:227,-0.203,4.466,6.5201,36.5444,0.1567,-0.3257,-0.8588,0.2368
17:16:00:246,-0.7571,4.691,7.335,36.1943,0.2887,0.0012,-0.73,0.2361
17:16:00:266,-0.5081,4.2191,8.141,36.6885,0.2441,-0.1841,-0.6373,0.2367
17:16:00:288,0.236,3.491,7.5401,36.6641,0.1567,0.128,-0.8577,0.2383
17:16:00:307,-1.077,4.8341,9.506,36.6464,0.1119,0.3284,-0.8961,0.2398
17:16:00:326,-1.1711,5.4551,10.61,35.5029,0.0406,-0.1372,-0.6575,0.2414
17:16:00:346,0.006,5.4191,10.775,36.3297,0.0033,-0.2608,-0.5776,0.2427
17:16:00:366,1.208,4.629,10.416,36.8376,-0.0106,0.3986,-0.8577,0.2431
17:16:00:386,0.717,3.9101,9.566,36.3228,-0.0692,1.2551,-1.3637,0.2433
17:16:00:406,-2.052,4.691,8.9651,36.3001,-0.263,1.7429,-1.7398,0.2439
17:16:00:425,-4.029,5.469,9.1301,35.8132,-0.5186,1.8549,-1.7515,0.245
17:16:00:446,-6.4931,6.659,10.8881,35.321,-0.5166,1.7674,-1.3691,0.2461
17:16:00:465,-7.046,6.1181,10.6361,36.762,-0.1469,0.9973,-0.4466,0.2465
17:16:00:487,-4.788,4.3151,9.377,36.7455,0.2046,0.6394,0.4269,0.247
17:16:00:505,-3.737,3.668,9.2711,37.568,0.227,0.5862,0.8051,0.2485
17:16:00:525,-3.2201,2.9861,9.2711,36.6355,0.1705,0.5307,0.6358,0.251
17:16:00:545,-2.775,2.486,8.453,37.5705,0.0778,0.3475,0.2533,0.254
17:16:00:565,-2.576,2.457,7.299,37.2304,-0.1661,0.551,0.1341,0.2565
17:16:00:591,-2.6741,2.538,6.99,36.9712,-0.395,1.155,0.2863,0.2579
17:16:00:605,-2.93,2.763,7.1651,36.778,-0.4291,1.6343,0.492,0.2583
17:16:00:625,-3.11,3.4241,7.047,36.6816,-0.2907,1.793,0.6634,0.2582
17:16:00:645,-2.837,3.788,6.525,36.5953,-0.1255,1.793,0.7316,0.2586
17:16:00:664,-2.648,3.867,6.195,37.3496,-0.0223,1.8303,0.6155,0.2603
17:16:00:685,-2.696,4.0421,6.183,36.1134,0.0747,1.8421,0.4685,0.2632
17:16:00:703,-3.227,4.557,6.578,36.8932,0.1972,1.8356,0.363,0.267
17:16:00:724,-3.9821,5.0591,6.7961,36.8533,0.3623,1.7995,0.3055,0.2715
17:16:00:744,-3.962,5,7.011,36.7871,0.5519,1.7739,0.2757,0.2772
17:16:00:763,-3.44,4.389,7.655,37.7623,0.7276,1.6386,0.0764,0.2841
17:16:00:783,-5.5091,5.1581,4.4141,37.9764,0.4305,1.6673,-0.1675,0.292
17:16:00:803,-5.624,4.856,8.807,37.9257,-0.5229,0.6436,-0.1313,0.3003
17:16:00:822,-5.0351,3.953,10.181,37.8243,-0.0947,-0.0093,-0.698,0.3051
17:16:00:842,-8.1791,5.268,9.4961,37.7046,0.1323,-0.704,-0.8173,0.306
17:16:00:862,-8.04,6.1271,8.994,38.0462,-0.2045,-1.8204,-0.1973,0.3053
17:16:00:882,-6.467,5.931,9.647,38.1018,-0.6124,-2.647,0.0764,0.3032
17:16:00:903,-4.626,4.712,10.028,37.8351,-0.7978,-2.9783,-0.1238,0.299
17:16:00:922,-3.5,3.6881,10.457,38.0659,-0.9118,-2.6428,-0.3369,0.2915
17:16:00:942,-2.8421,2.895,11.208,38.8711,-0.9874,-2.0802,-0.323,0.2811
17:16:00:962,-2.447,2.5841,11.2631,38.5688,-0.9831,-1.602,-0.2027,0.2689
17:16:00:990,-1.839,2.222,10.7201,38.2493,-0.8148,-1.1598,-0.0791,0.2562
17:16:01:002,-1.4891,1.851,9.99,38.1349,-0.4792,-0.9148,-0.1067,0.2438
17:16:01:022,-1.616,2.0089,8.8961,38.548,-0.1277,-0.9522,-0.2815,0.2331
17:16:01:042,-2.016,2.67,7.646,39.1332,0.0576,-1.226,-0.4742,0.2245
17:16:01:061,-2.33,3.123,6.951,39.456,0.0065,-1.5796,-0.6149,0.2181
17:16:01:082,-2.729,3.4121,6.7121,38.9836,-0.2193,-1.9929,-0.6735,0.2131
17:16:01:101,-2.6381,3.542,6.894,39.8223,-0.4643,-2.3125,-0.5957,0.208
17:16:01:121,-1.788,3.254,7.253,39.4259,-0.6124,-2.354,-0.4913,0.2013
17:16:01:141,-0.855,3.2111,7.691,40.2566,-0.6241,-1.979,-0.5158,0.1927
17:16:01:161,-0.318,3.1301,8.364,40.5166,-0.6113,-1.456,-0.6138,0.1827
17:16:01:181,-0.086,3.108,9.3701,40.7517,-0.6135,-0.8808,-0.5584,0.1724
17:16:01:200,-0.563,3.3641,10.521,39.9643,-0.54,-0.5196,-0.2826,0.1626
17:16:01:220,-0.941,3.245,11.213,40.5315,-0.3524,-0.3886,-0.0513,0.1539
17:16:01:240,-0.7091,2.792,10.856,40.4456,-0.1213,-0.2458,-0.0311,0.1469
17:16:01:260,-0.491,2.4551,11.453,40.4456,0.0417,-0.0073,-0.2079,0.1417
17:16:01:282,-1.116,2.519,11.651,40.4557,0.0747,-0.0499,-0.3816,0.1382
17:16:01:300,-1.9661,2.967,11.055,40.4456,0.0874,0.0811,-0.3497,0.1362
17:16:01:319,-2.2721,3.218,10.8011,41.1616,0.1833,0.5222,-0.1515,0.1353
17:16:01:339,-2.1431,3.036,11.7521,41.1616,0.2089,0.4913,-0.0088,0.1358
17:16:01:359,-2.5571,2.864,11.7611,40.6758,0.0693,-0.1042,0.0881,0.1377
17:16:01:389,-2.715,2.7371,11.1011,41.1517,-0.0351,-0.2586,0.3033,0.1396
17:16:01:399,-2.3321,2.4281,10.5791,41.1517,-0.0351,-0.0978,0.5995,0.1404
17:16:01:418,-1.949,2.129,9.7001,41.1279,-0.0393,0.1035,0.8243,0.1404
17:16:01:439,-1.4801,1.8611,9.6641,41.8652,-0.0553,0.2281,0.8977,0.1402
17:16:01:459,-0.917,1.937,9.5321,41.3571,-0.0531,0.1345,0.8169,0.1401
17:16:01:478,-0.567,1.8011,8.211,41.8956,-0.1415,0.1578,0.7678,0.1397
17:16:01:498,-0.285,1.631,6.966,41.145,-0.3099,0.3421,0.7209,0.139
17:16:01:518,-0.4841,1.466,6.207,40.6511,-0.4771,0.6329,0.6751,0.1376
17:16:01:538,-0.587,1.346,6.65,40.9326,-0.6773,0.7661,0.7274,0.1355
17:16:01:558,-0.821,1.37,6.987,40.3458,-0.7956,0.503,0.8051,0.1324
17:16:01:580,-1.044,1.449,6.683,40.9232,-0.7796,0.3326,0.9329,0.1279
17:16:01:597,-0.948,1.605,6.98,41.1851,-0.6955,0.3912,1.1183,0.1225
17:16:01:618,-0.8861,1.88,8.1131,40.7315,-0.5538,0.4594,1.2845,0.1168
17:16:01:638,-0.6941,1.6481,8.864,40.3734,-0.3609,0.4561,1.3196,0.1116
17:16:01:658,-0.414,1.1141,9.8921,39.3102,-0.2395,0.4082,1.1066,0.1074
17:16:01:679,-0.524,1.133,11.019,41.1239,-0.1352,0.0887,0.7561,0.1043
17:16:01:698,-0.836,1.1981,11.1461,41.1052,0.0289,-0.1244,0.4898,0.1017
17:16:01:718,-0.792,1.044,11.148,40.3792,0.2089,-0.0957,0.3576,0.0999
17:16:01:738,-0.903,1.274,11.316,40.3724,0.3506,0.1269,0.2874,0.0991
17:16:01:758,-1.2551,1.971,12.015,40.1562,0.4987,0.422,0.2225,0.0995
17:16:01:795,-1.748,2.897,12.695,40.9156,0.6872,0.373,0.1756,0.1016
17:16:01:798,-0.9941,2.529,12.927,40.2844,0.8427,0.0098,0.085,0.1056
17:16:01:816,-0.309,1.748,12.3551,40.5527,0.8651,-0.3684,-0.1738,0.1113
17:16:01:837,-0.3971,1.94,11.771,40.5274,0.8385,-0.4525,-0.3369,0.118
17:16:01:860,-0.165,1.9901,10.49,40.6852,0.9098,-0.1702,-0.2314,0.1251
17:16:01:880,0.5711,1.6571,9.125,40.1249,1.027,0.3059,-0.0344,0.1324
17:16:01:897,1.115,1.626,8.223,40.4133,1.1111,0.6138,0.085,0.1405
17:16:01:916,1.158,1.988,7.998,40.899,1.1367,0.5999,0.0168,0.1497
17:16:01:937,0.614,2.39,8.192,40.3889,1.0633,0.2079,-0.2687,0.16
17:16:01:956,-0.129,2.8931,7.89,39.8406,0.8854,-0.4195,-0.6425,0.1706
17:16:01:981,-0.689,3.2261,6.669,39.6823,0.7128,-0.6699,-0.846,0.1803
17:16:01:996,-0.9551,3.261,5.781,40.4847,0.5627,-0.4493,-0.7758,0.1886
17:16:02:016,-1.149,3.506,5.462,39.9874,0.4092,-0.1031,-0.5489,0.1954
17:16:02:035,-1.3001,3.8861,5.958,39.4417,0.2387,0.1206,-0.3539,0.201
17:16:02:056,-1.515,4.466,6.942,39.4336,0.0886,-0.0733,-0.2761,0.2054
17:16:02:081,-1.314,4.705,6.959,40.2928,0.0448,-0.3129,-0.2835,0.2086
17:16:02:095,-0.747,4.4351,6.858,40.2928,0.1024,-0.2267,-0.356,0.2104
17:16:02:115,-0.6821,4.4321,7.296,40.6336,0.1323,-0.0424,-0.4987,0.2114
17:16:02:135,-1.4921,4.887,8.52,40.2203,0.0704,-0.1393,-0.5862,0.2123
17:16:02:159,-2.126,5.112,9.233,39.3675,-0.0542,-0.5261,-0.5446,0.2134
17:16:02:194,-2.102,4.904,9.9491,38.9118,-0.1821,-0.7327,-0.3784,0.214
17:16:02:196,-1.7141,4.5641,10.437,38.8718,-0.2289,-0.4951,-0.143,0.2134
17:16:02:215,-1.958,4.482,11.0261,39.2986,-0.1863,0.1152,0.0073,0.2116
17:16:02:235,-3.002,5.184,11.522,40.1252,-0.1628,0.5925,0.0786,0.2096
17:16:02:255,-3.618,5.8421,11.9171,39.7604,-0.1639,0.7704,0.2512,0.2083
17:16:02:278,-3.0551,4.887,11.8721,39.7317,-0.2045,0.47,0.346,0.2077
17:16:02:295,-3.156,3.644,11.5031,38.5036,-0.2875,0.1152,0.166,0.2074
17:16:02:314,-3.792,3.297,10.653,38.8378,-0.3237,-0.0605,0.052,0.2065
17:16:02:334,-3.7181,3.101,9.8681,39.3203,-0.2491,0.0769,0.249,0.2046
17:16:02:353,-2.942,2.7161,9.3791,38.9706,-0.1682,0.1653,0.5015,0.2025
17:16:02:382,-2.399,2.72,8.7161,38.6735,-0.1372,0.2516,0.5708,0.2005
17:16:02:394,-2.047,2.565,8.2751,39.4754,-0.1884,0.2889,0.4377,0.1989
17:16:02:414,-1.946,2.2391,8.271,39.1528,-0.3481,0.0705,0.1766,0.1975
17:16:02:434,-1.923,2.0981,7.679,38.3295,-0.4962,-0.2023,0.0158,0.1957
17:16:02:456,-1.911,2.091,7.224,38.3143,-0.5357,-0.2203,0.1213,0.1925
17:16:02:479,-1.755,2.364,6.779,38.8674,-0.443,-0.0488,0.4408,0.1882
17:16:02:493,-1.262,2.7251,6.566,38.837,-0.2364,0.3028,0.8051,0.1836
17:16:02:513,-0.6131,2.955,7.121,38.3153,-0.0095,0.4945,0.9713,0.18
17:16:02:533,-0.354,3.1871,8.3141,37.6896,0.1727,0.159,0.8636,0.1782
17:16:02:553,-0.048,3.0911,8.4139,38.7876,0.3304,-0.3908,0.5474,0.1781
17:16:02:590,0.15,3.192,8.493,38.5224,0.4209,-0.6273,0.199,0.1791
17:16:02:593,-0.098,3.767,8.8811,38.4975,0.4155,-0.5921,0.0392,0.1809
17:16:02:613,-0.4361,3.905,9.542,38.4921,0.3495,-0.5164,0.0392,0.1833
17:16:02:632,-0.35,3.506,9.803,38.7913,0.2452,-0.5048,0.036,0.1859
17:16:02:652,-0.381,3.4271,10.22,38.7762,0.1067,-0.4973,-0.0236,0.1882
17:16:02:678,-0.881,4.092,10.763,38.7612,-0.0456,-0.3663,-0.0216,0.1896
17:16:02:693,-1.29,4.787,11.3951,38.7556,-0.0862,-0.0392,0.1574,0.1899
17:16:02:711,-1.1471,4.892,12.1211,38.7556,-0.0286,0.2559,0.3055,0.1896
17:16:02:732,-0.1031,3.929,12.302,38.4467,0.0257,0.2388,0.2032,0.1895
17:16:02:752,0.3731,3.015,11.747,38.4467,0.0459,0.2431,-0.0961,0.1895
17:16:02:782,0.167,2.598,11.0381,38.4566,0.0811,0.2633,-0.2644,0.1896
17:16:02:791,0.423,1.925,10.272,38.4566,0.1482,0.1686,-0.2207,0.1901
17:16:02:811,0.645,1.746,9.575,38.4415,0.1781,-0.0329,-0.1717,0.1909
17:16:02:832,0.789,2.253,8.8571,38.4415,0.1951,-0.1617,-0.1664,0.1919
17:16:02:853,0.789,2.61,8.172,38.4363,0.1951,-0.2149,-0.2346,0.1928
17:16:02:881,0.521,2.9141,7.3421,39.0632,0.1855,-0.2299,-0.3134,0.1938
17:16:02:891,0.047,3.072,6.6521,39.0667,0.1972,-0.1915,-0.3358,0.1949
17:16:02:911,-0.35,3.056,6.135,39.0576,0.1909,-0.1554,-0.3602,0.1961
17:16:02:931,-0.807,3.3071,5.8841,39.0422,0.128,-0.1159,-0.3869,0.1977
17:16:02:951,-1.0991,3.879,6.0701,39.375,0.0278,-0.1458,-0.3443,0.1995
17:16:02:992,-0.9311,4.224,6.185,38.5455,-0.0744,-0.1617,-0.2687,0.2009
17:16:02:995,-0.84,4.389,6.659,38.191,-0.1469,-0.0605,-0.2718,0.2015
17:16:03:012,-0.792,4.281,7.064,39.0183,-0.1522,0.0257,-0.3591,0.2012
17:16:03:031,-0.965,4.059,7.7771,39.3476,-0.1565,0.1365,-0.4349,0.2004
17:16:03:051,-1.346,4.356,8.615,39.8829,-0.2139,0.0811,-0.3187,0.1995
17:16:03:079,-1.4291,4.4801,9.441,38.7274,-0.296,-0.0551,-0.1152,0.1986
17:16:03:092,-1.3481,4.6931,10.263,39.0577,-0.3503,-0.1873,-0.0183,0.1973
17:16:03:111,-0.78,4.403,10.895,39.0577,-0.2768,-0.0637,-0.0344,0.1954
17:16:03:132,-0.51,3.879,11.721,39.063,-0.1756,0.0791,-0.1664,0.1931
17:16:03:151,-1.58,4.466,12.8561,39.063,-0.1053,0.1195,-0.2058,0.1908
17:16:03:195,-2.361,5.349,13.023,40.096,0.08,0.3943,0.0776,0.1887
17:16:03:196,-1.9751,4.473,12.839,40.096,0.3037,0.649,0.3502,0.1877
17:16:03:212,-2.394,3.599,12.3191,40.1256,0.3985,0.6564,0.3098,0.1886
17:16:03:232,-3.642,3.446,11.244,39.8837,0.4689,0.5743,0.2245,0.1912
17:16:03:254,-4.192,3.039,9.9941,40.7419,0.5957,0.5936,0.2948,0.195
17:16:03:281,-3.8591,2.67,9.6401,40.0386,0.6329,0.3358,0.4258,0.2
17:16:03:292,-3.254,3.048,9.2,40.0297,0.4954,-0.1819,0.5164,0.2058
17:16:03:311,-2.222,3.032,8.697,40.0048,0.225,-0.5068,0.4877,0.2114
17:16:03:331,-1.31,2.474,8.151,39.1347,-0.1522,-0.6347,0.2938,0.2157
17:16:03:351,-1.1059,2.2871,7.7681,39.378,-0.5741,-0.6762,0.1287,0.2176
17:16:03:390,-0.6581,2.802,6.525,39.6952,-1.0875,-0.3044,0.4323,0.2114
17:16:03:407,-0.306,2.96,6.5201,39.67,-0.9639,0.159,0.7114,0.204
17:16:03:427,-0.1121,3.206,6.954,39.4609,-0.6252,0.4774,0.8882,0.1957
17:16:03:447,-0.2711,3.429,7.248,39.202,-0.2406,0.5041,0.9329,0.1882
17:16:03:467,-0.165,3.3791,7.193,39.6183,0.1546,0.3954,0.8297,0.1826
17:16:03:487,-0.2591,3.723,7.562,40.2476,0.5243,0.325,0.6102,0.1796
17:16:03:507,-0.407,4.3511,8.735,40.51,0.7693,0.0098,0.346,0.1798
17:16:03:527,-0.1361,4.506,9.671,40.4997,0.7543,-0.4951,-0.0088,0.183
17:16:03:548,0.219,4.403,9.86,41.3456,0.6222,-0.7902,-0.3241,0.1883
17:16:03:566,0.071,3.831,10.2581,41.0072,0.472,-0.6347,-0.4551,0.1938
17:16:03:586,-0.728,4.035,10.5281,41.2371,0.2622,-0.3737,-0.3975,0.1987
17:16:03:606,-1.523,5.1551,10.6121,40.7204,0.0556,0.0385,-0.0854,0.2023
17:16:03:626,-1.6571,5.835,10.952,42.0981,-0.0681,0.371,0.3343,0.2049
17:16:03:651,-0.558,5.385,11.793,41.8815,-0.1192,0.2793,0.4962,0.2067
17:16:03:669,0.842,4.3841,12.422,41.8815,-0.1585,-0.1724,0.2106,0.2075
17:16:03:687,1.2611,3.422,12.3191,41.0133,-0.1906,-0.5494,-0.3039,0.2074
17:16:03:706,1.043,2.6681,11.505,41.5873,-0.1235,-0.5739,-0.5595,0.2064
17:16:03:726,1.124,1.8371,10.569,41.2428,0.0396,-0.3801,-0.4561,0.2048
17:16:03:746,1.239,1.698,9.573,42.3378,0.1875,-0.1244,-0.2112,0.2034
17:16:03:766,1.3181,2.28,8.39,42.0865,0.3165,0.2431,0.0349,0.2028
17:16:03:791,1.562,2.5001,7.332,41.5725,0.3996,0.5552,0.1,0.2033
17:16:03:806,1.256,2.723,6.7691,41.5635,0.3836,0.5669,-0.0737,0.2052
17:16:03:825,0.3611,3.206,6.659,43.3218,0.2952,0.2505,-0.34,0.2082
17:16:03:846,-0.1151,3.338,5.946,43.3269,0.2164,-0.1777,-0.5648,0.2116
17:16:03:865,-0.333,3.381,5.4551,41.9431,0.1812,-0.3417,-0.6607,0.2147
17:16:03:885,-0.575,3.989,5.498,43.0919,0.1525,-0.2992,-0.5786,0.2173
17:16:03:905,-0.804,4.614,5.771,43.9764,0.1323,-0.0531,-0.3943,0.2192
17:16:03:926,-0.864,4.854,6.429,43.0756,0.0928,0.1408,-0.2889,0.2208
17:16:03:945,-0.6221,4.662,7.272,43.9478,0.0268,0.0513,-0.3145,0.2222
17:16:03:964,-0.668,4.839,8.3351,43.9478,-0.0957,-0.2864,-0.3997,0.2233
17:16:03:984,-0.9821,5.318,8.994,43.9437,-0.2225,-0.4067,-0.3923,0.224
17:16:04:004,-1.056,5.285,9.71,42.8634,-0.2875,-0.0776,-0.2314,0.2237
17:16:04:025,-1.154,5.021,10.181,44.2012,-0.2278,0.5435,0.0329,0.2225
17:16:04:046,-1.1231,4.655,10.8521,43.9396,-0.1394,0.9142,0.2171,0.2213
17:16:04:065,-1.185,4.8101,11.438,43.3392,-0.0786,0.829,0.2533,0.2204
17:16:04:088,-1.401,5.2751,11.601,44.9566,-0.0148,0.5893,0.1808,0.2199
17:16:04:104,-1.712,5.732,11.594,43.5526,0.0587,0.4444,0.0967,0.2198
17:16:04:124,-1.5491,5.213,11.567,44.3128,0.0991,0.1163,-0.0344,0.2202
17:16:04:144,-1.836,4.451,11.1101,44.3128,0.0991,-0.1255,-0.2303,0.221
17:16:04:164,-2.696,4.008,10.1621,44.3128,0.1216,-0.0925,-0.2772,0.2218
17:16:04:190,-3.3161,3.5321,9.176,46.1187,0.2025,0.1632,-0.0769,0.2226
17:16:04:203,-3.4481,3.077,8.991,46.1187,0.2558,0.1525,0.1936,0.2237
17:16:04:223,-2.9111,3.036,8.7611,45.1846,0.21,-0.2149,0.3641,0.2254
17:16:04:246,-2.018,3.3521,8.319,45.8687,0.096,-0.4312,0.396,0.2272
17:16:04:263,-1.221,3.245,7.959,44.0467,-0.0692,-0.3119,0.2746,0.2285
17:16:04:283,-1.077,3.108,7.7651,45.8613,-0.2833,-0.1372,0.1106,0.2288
17:16:04:303,-1.2551,3.132,7.418,45.8582,-0.4547,0.0716,0.1,0.2278
17:16:04:323,-1.398,3.084,7.155,45.4148,-0.5133,0.2835,0.2831,0.2254
17:16:04:343,-1.319,3.1271,6.99,46.1209,-0.4408,0.4157,0.5591,0.222
17:16:04:362,-1.0369,3.362,7.014,46.5886,-0.2481,0.4572,0.8136,0.2184
17:16:04:382,-0.531,3.743,7.299,46.4155,0.0022,0.2963,0.9639,0.2154
17:16:04:402,-0.134,4.1351,7.8611,46.2735,0.2611,-0.0403,0.9372,0.2136
17:16:04:422,0.356,4.154,8.2631,44.4627,0.5147,-0.3833,0.6666,0.2134
17:16:04:442,0.483,4.128,8.651,46.7177,0.6553,-0.6102,0.2342,0.215
17:16:04:464,0.059,4.53,8.805,46.4416,0.619,-0.7541,-0.0737,0.2182
17:16:04:481,-0.1751,4.815,8.73,47.1828,0.4911,-0.6336,-0.1185,0.2223
17:16:04:502,-0.129,4.746,9.056,46.2187,0.3325,-0.3695,-0.0556,0.2267
17:16:04:522,-0.194,4.8821,9.36,47.3255,0.1642,-0.1276,-0.0077,0.2307
17:16:04:542,-0.6491,5.55,9.987,46.3618,0.0374,0.159,0.0722,0.2338
17:16:04:561,-0.941,5.9741,10.0181,46.7679,0.0214,0.4657,0.1766,0.2361
17:16:04:592,-0.378,5.526,10.3181,46.6298,0.0353,0.5979,0.0861,0.238
17:16:04:602,0.3251,4.9091,11.081,47.0116,-0.0393,0.2889,-0.1845,0.2398
17:16:04:622,0.6,3.9821,11.297,47.123,-0.1917,-0.1489,-0.4657,0.2409
17:16:04:643,0.7721,2.993,10.7081,47.123,-0.279,-0.2001,-0.5871,0.2408
17:16:04:661,1.024,2.364,10.1411,47.1204,-0.2321,0.1451,-0.5126,0.2395
17:16:04:681,1.139,2.5241,9.341,46.5559,-0.0701,0.5765,-0.3838,0.2375
17:16:04:701,1.124,3.0101,8.3951,46.5517,0.1375,1.0794,-0.34,0.2357
17:16:04:720,0.849,3.407,8.019,47.3875,0.2867,1.2486,-0.4242,0.2351
17:16:04:740,0.387,3.573,7.296,47.2708,0.2441,0.7576,-0.5573,0.2364
17:16:04:761,0.018,3.486,6.039,47.2244,0.0758,0.1706,-0.7022,0.2387
17:16:04:783,-0.0911,3.2141,5.3741,47.2293,-0.0403,0.0663,-0.8332,0.2409
17:16:04:800,-0.5531,3.3,5.3741,46.8689,-0.1288,0.3262,-0.9664,0.2422
17:16:04:819,-1.599,3.824,5.577,46.8718,-0.2566,0.6149,-1.0655,0.2426
17:16:04:839,-2.1521,4.3991,5.783,46.7879,-0.3131,1.0697,-1.0027,0.2424
17:16:04:860,-2.66,5.0501,6.3671,47.1523,-0.2258,1.6994,-0.8227,0.2415
17:16:04:882,-3.0791,5.22,6.894,48.0856,-0.0947,2.0295,-0.6298,0.2408
17:16:04:899,-3.572,4.94,7.136,47.2987,-0.0126,2.1926,-0.5307,0.2414
17:16:04:919,-4.4201,4.964,7.763,48.4484,0.0598,2.2447,-0.3943,0.2434
17:16:04:939,-5.289,5.3711,8.196,46.3921,0.1471,1.9997,-0.1313,0.2465
17:16:04:959,-5.207,5.601,8.4911,47.3943,0.225,1.6759,0.1031,0.2506
17:16:04:991,-4.992,5.5931,8.934,47.0761,0.2676,1.4404,0.1063,0.2554
17:16:05:000,-5.399,5.457,9.702,47.6612,0.3645,1.3541,-0.0439,0.2608
17:16:05:019,-5.765,5.316,9.659,47.1285,0.4997,1.4032,-0.1962,0.2663
17:16:05:039,-6.242,5.624,9.0581,47.0777,0.5466,1.646,-0.2698,0.272
17:16:05:060,-6.665,5.945,8.139,46.4319,0.5349,2.1457,-0.2718,0.2783
17:16:05:087,-6.96,5.66,7.926,47.6954,0.5849,2.527,-0.2707,0.2851
17:16:05:098,-8.9261,5.8301,4.0781,47.6355,0.2921,2.6016,-0.3113,0.2932
17:16:05:118,-9.62,4.6961,5.639,47.9543,-0.54,1.8123,-0.0066,0.3014
17:16:05:140,-8.8181,3.702,7.3871,47.5684,-0.312,0.9333,0.1585,0.3067
17:16:05:157,-8.004,3.446,7.5761,46.6812,0.3165,-0.019,0.2597,0.3089
17:16:05:181,-7.542,3.5891,5.838,47.7293,0.5019,-1.129,0.2032,0.3109
17:16:05:202,-7.08,3.465,4.672,47.5656,0.0874,-2.0068,-0.0055,0.3135
17:16:05:217,-6.3851,3.228,4.6241,45.327,-0.6517,-2.728,-0.3699,0.3151
17:16:05:239,-6.11,3.18,5.3861,47.1817,-1.3815,-3.2978,-0.5936,0.3129
17:16:05:257,-5.813,2.852,6.516,47.5845,-1.7618,-3.5183,-0.4359,0.3045
17:16:05:281,-4.587,2.366,7.49,48.304,-1.7692,-2.8728,0.0307,0.2899
17:16:05:297,-3.6491,2.2181,7.8521,46.6981,-1.5733,-1.717,0.5261,0.2713
17:16:05:316,-3.6611,2.627,7.5671,46.9193,-1.2867,-0.5846,0.8658,0.252
17:16:05:338,-3.998,3.111,8.28,47.2291,-0.8404,0.0257,0.9564,0.2347
17:16:05:356,-4.13,3.683,8.474,46.774,-0.2886,-0.3769,0.9415,0.2209
17:16:05:391,-3.792,3.788,8.448,47.1683,0.2238,-1.1865,0.9201,0.2117
17:16:05:397,-3.632,4.121,8.141,46.6984,0.4103,-2.205,0.7902,0.207
17:16:05:416,-3.27,4.389,8.232,46.6115,0.3112,-2.844,0.6421,0.2055
17:16:05:436,-1.899,3.9461,8.678,46.4724,0.1567,-2.8025,0.4727,0.2051
17:16:05:457,-0.591,3.194,9.125,46.7915,-0.0542,-2.2624,0.2171,0.2044
17:16:05:479,-0.407,2.888,9.5351,46.3467,-0.3876,-1.7075,-0.1024,0.2025
17:16:05:496,-1.08,3.278,9.956,47.8867,-0.7552,-1.3324,-0.3284,0.199
17:16:05:516,-1.3691,3.393,10.241,46.8794,-0.9468,-0.95,-0.4327,0.1931
17:16:05:536,-1.518,3.534,11.127,46.5641,-0.9607,-0.6038,-0.437,0.1849
17:16:05:555,-0.9701,3.216,12.243,46.3124,-0.868,-0.6443,-0.4359,0.1754
17:16:05:581,-0.1631,2.5961,12.185,46.5012,-0.7455,-0.705,-0.5435,0.1654
17:16:05:595,0.411,1.8971,11.694,44.2341,-0.5431,-0.608,-0.7087,0.1555
17:16:05:615,0.44,1.389,10.536,45.8444,-0.2875,-0.3439,-0.8119,0.1463
17:16:05:637,0.48,1.02,8.7491,44.4915,-0.0446,0.3176,-0.7715,0.1387
17:16:05:654,0.7721,1.0991,9.303,45.8244,0.1695,1.1528,-0.6245,0.1335
17:16:05:679,0.746,1.344,10.658,46.2812,0.3069,0.5808,-0.4636,0.1313
17:16:05:695,-0.033,2.048,8.4311,45.8725,0.2824,-0.3396,-0.3059,0.1317
17:16:05:715,-0.582,2.471,6.647,45.8653,0.0693,-0.5494,-0.1174,0.133
17:16:05:736,-0.843,2.402,5.735,45.66,-0.2864,-0.3695,-0.0268,0.1342
17:16:05:755,-0.903,2.031,5.888,45.6648,-0.6912,0.03,-0.1174,0.1342
17:16:05:790,-0.867,2.093,6.935,45.2495,-1.0428,0.275,-0.1536,0.1322
17:16:05:794,-0.8261,2.565,7.4111,45.2092,-1.3058,0.3176,-0.0258,0.1279
17:16:05:814,-1.4561,2.9501,7.0181,45.1493,-1.4817,0.6447,0.1287,0.121
17:16:05:836,-1.824,2.735,7.5671,45.4472,-1.5711,1.286,0.3183,0.1117
17:16:05:854,-1.9511,2.182,8.251,44.9514,-1.5082,1.6567,0.5122,0.101
17:16:05:878,-2.301,1.181,9.626,44.3579,-1.3826,1.4842,0.6623,0.0901
17:16:05:893,-2.808,0.879,11.247,44.9131,-1.2165,0.7096,0.8328,0.0797
17:16:05:913,-2.928,1.1111,12.269,44.5665,-0.8137,0.0214,1.1023,0.0698
17:16:05:933,-2.535,0.9701,12.59,44.4905,-0.1426,-0.1415,1.2621,0.0607
17:16:05:953,-1.508,0.2111,13.0421,43.827,0.505,0.1601,1.0288,0.0544
17:16:05:987,-1.451,0.573,12.777,43.9926,0.9983,0.2238,0.5026,0.0522
17:16:05:993,-2.172,2.153,12.951,43.4711,1.3115,0.4071,0.0051,0.0546
17:16:06:012,-2.411,3.1151,12.717,43.7094,1.5543,0.6021,-0.0429,0.0612
17:16:06:033,-2.172,1.8491,11.807,44.1257,1.5522,0.4444,-0.0407,0.0714
17:16:06:052,-3.179,1.25,10.559,43.621,1.3061,0.2068,-0.2783,0.0843
17:16:06:080,-4.3931,1.739,9.2591,43.1817,1.0388,0.1771,-0.2644,0.0977
17:16:06:092,-4.403,1.578,8.285,43.5902,0.8672,0.3517,0.069,0.1101
17:16:06:111,-3.785,1.1741,8.35,43.5807,0.7117,0.2474,0.297,0.1212
17:16:06:133,-3.297,1.463,8.477,43.1759,0.5275,-0.2672,0.2725,0.1311
17:16:06:152,-2.837,1.6931,8.18,43.2526,0.3314,-0.7444,0.1094,0.1391
17:16:06:190,-2.4281,1.674,7.854,43.5348,0.0896,-1.0427,-0.0535,0.145
17:16:06:193,-2.267,1.808,7.5281,43.5472,-0.1288,-1.0566,-0.0844,0.1482
17:16:06:212,-2.081,1.8971,7.1981,43.4784,-0.2523,-0.7433,0.0456,0.1489
17:16:06:232,-1.932,1.851,7.4111,43.6333,-0.3046,-0.3237,0.2106,0.1477
17:16:06:252,-1.956,1.899,7.4591,42.7034,-0.2736,-0.0477,0.3556,0.1455
17:16:06:279,-1.982,2.012,7.437,42.6835,-0.1479,0.1728,0.5153,0.1429
17:16:06:291,-2.018,2.5121,7.931,42.5158,0.0289,0.2153,0.6783,0.1408
17:16:06:310,-1.82,2.943,8.594,42.1173,0.2387,-0.0829,0.8019,0.1397
17:16:06:331,-1.0871,2.919,8.6801,42.1149,0.4326,-0.5218,0.7965,0.1402
17:16:06:352,-0.438,2.783,8.7731,42.2622,0.5573,-0.7871,0.5813,0.1423
17:16:06:381,-0.278,2.9021,8.876,41.1652,0.5957,-0.9159,0.282,0.1455
17:16:06:390,-0.407,3.099,9.233,42.0671,0.5349,-0.9639,0.0764,0.1494
17:16:06:410,-0.5651,3.2711,9.789,40.9999,0.3356,-1.0288,-0.0109,0.1535
17:16:06:430,-0.716,3.5651,10.1411,41.2816,0.014,-0.967,-0.0109,0.1571
17:16:06:450,-0.8951,4.25,10.899,41.558,-0.3088,-0.6475,0.021,0.1593
17:16:06:481,-0.9341,4.526,11.3141,41.519,-0.509,0.0023,0.0892,0.1596
17:16:06:490,-0.606,3.7211,11.654,40.9788,-0.6795,0.5521,0.0722,0.1582
17:16:06:510,-0.464,2.687,11.9291,40.9281,-0.8925,0.634,-0.0802,0.1553
17:16:06:531,-0.689,2.3471,11.994,41.0612,-1.0439,0.4199,-0.1814,0.1505
17:16:06:551,-0.342,1.3841,11.237,40.1183,-0.9885,0.3571,-0.1238,0.1435
17:16:06:592,0.93,0.051,10.856,40.5432,-0.4493,-0.1128,-0.1567,0.1272
17:16:06:609,1.064,0.3551,10.61,40.4859,-0.0382,-0.477,-0.3273,0.1201
17:16:06:629,1.038,0.783,9.5801,39.8705,0.39,-0.5281,-0.4657,0.1147
17:16:06:650,0.7751,1.365,8.5271,39.4488,0.7628,-0.2523,-0.5115,0.1119
17:16:06:670,0.2501,1.8941,7.6601,39.4249,1.0227,0.1334,-0.4753,0.1124
17:16:06:689,-0.369,2.313,7.086,39.027,1.1346,0.3858,-0.4327,0.1164
17:16:06:708,-0.824,2.6921,6.494,38.9752,1.1219,0.4338,-0.3901,0.1236
17:16:06:729,-1.1081,3.039,6.1091,38.5948,1.0121,0.371,-0.3625,0.133
17:16:06:748,-1.3121,3.6041,6.489,39.168,0.8279,0.1728,-0.3719,0.1434
17:16:06:768,-1.374,4.131,6.758,39.0995,0.6307,-0.1532,-0.406,0.1536
17:16:06:788,-1.082,4.0849,6.8651,37.8733,0.4401,-0.2864,-0.4636,0.1623
17:16:06:808,-0.9101,3.905,7.311,38.8869,0.1909,-0.33,-0.5413,0.1691
17:16:06:831,-1.5011,4.2791,8.52,37.9611,-0.1309,-0.4344,-0.5712,0.174
17:16:06:848,-1.767,4.454,9.3671,37.0183,-0.3813,-0.5708,-0.4646,0.1767
17:16:06:867,-1.5611,4.164,10.241,36.5196,-0.443,-0.3801,-0.2377,0.1769
17:16:06:889,-1.355,3.755,10.799,36.809,-0.2833,0.0162,-0.0492,0.1751
17:16:06:908,-1.3961,3.554,11.136,37.2253,-0.0468,0.4305,-0.0236,0.1726
17:16:06:931,-2.013,4.0661,11.465,36.809,0.128,0.6618,-0.0683,0.1706
17:16:06:948,-2.3561,4.688,12.092,36.8021,0.2227,0.4902,-0.0588,0.1703
17:16:06:967,-1.851,4.0519,12.3,36.7855,0.2131,-0.1458,-0.1484,0.1716
17:16:06:993,-2.0591,3.242,11.709,36.0115,0.1418,-0.5878,-0.4136,0.1735
17:16:07:007,-2.976,2.955,10.401,36.0115,0.1801,-0.5739,-0.4945,0.1748
17:16:07:027,-3.3731,2.3351,9.626,36.2532,0.3026,-0.3044,-0.3059,0.1756
17:16:07:047,-3.072,1.6841,9.659,35.9587,0.2921,-0.4377,-0.1046,0.1766
17:16:07:067,-2.535,1.899,9.561,36.4097,0.1247,-0.8851,0.0531,0.178
17:16:07:086,-1.626,2.141,8.9771,36.0106,-0.0468,-1.0619,0.2097,0.1788
17:16:07:107,-0.8951,2.043,8.283,36.0191,-0.1628,-0.8382,0.3076,0.1782
17:16:07:130,-0.701,2.2031,7.7441,36.0041,-0.1969,-0.4301,0.3886,0.1762
17:16:07:147,-0.725,2.3921,7.572,36.0093,-0.198,-0.0434,0.4929,0.1734
17:16:07:166,-0.864,2.7041,7.935,35.1756,-0.2173,0.0737,0.5963,0.1706
17:16:07:186,-0.852,3,7.94,36.3442,-0.181,-0.0051,0.6996,0.1682
17:16:07:211,-0.582,3.084,7.6361,35.5184,-0.0488,0.0535,0.7604,0.166
17:16:07:230,-0.4241,3.3521,7.619,35.5032,0.1269,0.2058,0.7498,0.1645
17:16:07:246,-0.393,3.791,7.694,36.2114,0.2845,0.3017,0.7124,0.1639
17:16:07:265,-0.168,3.951,8.036,35.3766,0.3591,0.3048,0.6358,0.1646
17:16:07:285,0.1811,3.8651,9.034,36.2051,0.3058,-0.003,0.4621,0.1667
17:16:07:305,0.554,3.6521,9.7601,35.3573,0.1738,-0.5142,0.2054,0.1697
17:16:07:328,0.732,3.288,10.253,35.3573,0.0001,-0.705,-0.0524,0.1722
17:16:07:345,0.483,3.4241,10.749,35.8685,-0.1937,-0.4579,-0.2144,0.1733
17:16:07:365,0.0131,3.6851,10.911,35.4531,-0.3185,0.1451,-0.1473,0.1728
17:16:07:392,-0.6611,4.013,11.031,35.4438,-0.3503,0.7321,0.1063,0.1711
17:16:07:405,-0.7181,4.154,11.807,35.4507,-0.3503,0.9344,0.3311,0.1689
17:16:07:427,0.2381,3.551,12.5111,36.1918,-0.4313,0.5061,0.265,0.167
17:16:07:445,1.131,2.646,12.4511,36.6456,-0.5474,-0.0158,-0.0993,0.1647
17:16:07:464,1.136,1.88,11.682,35.8379,-0.5591,-0.1469,-0.4071,0.1614
17:16:07:484,0.99,1.2101,10.916,35.5798,-0.4249,-0.0147,-0.4103,0.1571
17:16:07:504,1.014,0.9821,10.1411,35.5737,-0.2173,0.1174,-0.1717,0.1526
17:16:07:527,1.158,1.3361,9.3341,36.3578,0.0065,0.2868,0.0946,0.1485
17:16:07:545,1.376,1.6571,8.4101,36.3297,0.2068,0.4199,0.2139,0.1457
17:16:07:564,1.3181,1.832,7.703,37.5894,0.3123,0.4998,0.1094,0.1446
17:16:07:583,0.686,2.3591,7.442,37.1175,0.3197,0.3965,-0.1228,0.1454
17:16:07:604,-0.0221,2.828,6.8441,37.1175,0.3186,0.2314,-0.2974,0.1474
17:16:07:627,-0.4001,2.775,6.4031,37.1175,0.3506,0.2144,-0.3741,0.1502
17:16:07:644,-0.6731,2.912,6.365,36.6534,0.3772,0.1121,-0.3912,0.1537
17:16:07:663,-0.8501,3.434,6.674,36.6534,0.3772,-0.0338,-0.3443,0.1575
17:16:07:683,-0.8381,3.714,6.846,37.4558,0.3314,-0.1458,-0.3145,0.1613
17:16:07:703,-0.689,3.656,6.99,36.6535,0.2537,-0.0764,-0.3337,0.1648
17:16:07:725,-0.7421,3.8741,7.469,37.938,0.177,0.0524,-0.3209,0.1679
17:16:07:744,-0.941,4.1021,8.421,37.938,0.0982,0.1302,-0.2453,0.1705
17:16:07:762,-1.154,4.4561,9.518,37.938,-0.0191,0.0194,-0.1578,0.1729
17:16:07:792,-0.95,4.413,10.5041,37.1394,-0.1053,-0.0764,-0.0822,0.1747
17:16:07:803,-0.6461,4.119,10.955,37.938,-0.067,0.1132,-0.0705,0.1758
17:16:07:825,-0.7781,3.905,11.4071,37.938,0.0715,0.4753,-0.1419,0.1762
17:16:07:845,-1.583,4.281,11.565,37.938,0.2131,0.6948,-0.209,0.1766
17:16:07:861,-2.313,5.033,11.649,38.2832,0.2984,0.7502,-0.1675,0.1778
17:16:07:882,-2.0089,4.593,11.934,39.105,0.2728,0.4135,-0.1356,0.1804
17:16:07:901,-2.217,3.8501,11.4881,38.2832,0.1141,-0.0104,-0.3134,0.1837
17:16:07:923,-3.0791,3.558,10.2551,39.105,-0.0021,0.0588,-0.3975,0.1865
17:16:07:942,-3.651,3.077,9.3101,39.105,-0.018,0.4305,-0.2016,0.1881
17:16:07:961,-3.654,2.663,9.264,37.8303,-0.0126,0.4327,0.1159,0.1892
17:16:07:981,-3.065,2.2751,9.2471,39.105,-0.0584,-0.0371,0.2927,0.1901
17:16:08:002,-2.3771,2.148,9.077,38.6688,-0.1576,-0.4749,0.2555,0.1906
17:16:08:023,-1.781,1.746,8.747,39.105,-0.2801,-0.5389,0.0818,0.1901
17:16:08:041,-1.9061,1.736,8.5271,39.105,-0.3844,-0.3311,-0.045,0.1881
17:16:08:060,-2.423,2.06,8.1581,39.105,-0.3567,0.0322,0.1,0.1849
17:16:08:080,-2.514,2.201,7.763,39.534,-0.1937,0.3113,0.4653,0.1812
17:16:08:102,-2.121,2.366,7.425,39.0951,0.065,0.3741,0.8328,0.1781
17:16:08:123,-1.6061,2.759,7.6001,39.0951,0.3453,0.1962,1.0373,0.1765
17:16:08:141,-1.1231,3.242,7.782,39.0951,0.5658,-0.2043,1.0236,0.177
17:16:08:160,-0.5891,3.6371,7.5521,39.9332,0.7117,-0.4803,0.8456,0.1797
17:16:08:198,-0.2111,3.831,7.368,39.508,0.8097,-0.4153,0.6069,0.184
17:16:08:200,-0.165,4.0181,7.8041,40.3552,0.782,-0.3567,0.3695,0.1894
17:16:08:225,-0.393,4.26,8.46,39.9766,0.5957,-0.5846,0.2277,0.1957
17:16:08:239,-0.4211,4.2889,8.8601,39.545,0.3143,-0.8499,0.1851,0.2019
17:16:08:260,-0.0431,4.04,9.485,40.3853,-0.0126,-0.998,0.1116,0.2071
17:16:08:279,0.308,4.104,10.1411,39.5691,-0.3333,-0.8766,-0.0045,0.2099
17:16:08:299,0.045,4.856,10.55,40.3839,-0.5294,-0.2171,0.0232,0.2098
17:16:08:323,-0.527,5.4401,11.244,39.9906,-0.5516,0.5285,0.2245,0.2074
17:16:08:339,-0.1721,4.94,11.7281,39.9432,-0.5155,0.7065,0.2959,0.2042
17:16:08:358,0.485,4.071,12.252,39.105,-0.5251,0.3954,0.0179,0.2008
17:16:08:381,0.492,3.4751,12.135,39.9432,-0.5186,-0.085,-0.3773,0.1968
17:16:08:399,0.473,2.562,11.333,39.105,-0.4121,-0.2234,-0.5851,0.1923
17:16:08:419,0.578,1.7051,10.569,39.534,-0.2332,-0.1628,-0.5595,0.1876
17:16:08:438,0.528,1.581,9.882,38.2832,-0.0627,-0.1011,-0.371,0.1835
17:16:08:458,0.497,1.952,9.0101,38.2832,0.0821,0.0129,-0.1046,0.1802
17:16:08:483,0.566,2.2751,8.405,39.105,0.1823,0.0461,0.0892,0.178
17:16:08:498,0.588,2.7041,7.904,39.105,0.243,-0.0637,0.1042,0.1772
17:16:08:520,0.5261,2.859,7.4471,38.6906,0.3048,-0.1574,-0.0183,0.1774
17:16:08:538,0.195,2.8331,6.9491,38.3245,0.3495,-0.199,-0.1973,0.1786
17:16:08:557,-0.2591,3.1871,6.6311,38.3245,0.374,-0.2086,-0.2687,0.1805
17:16:08:591,-0.3401,3.719,6.542,37.5931,0.3921,-0.1585,-0.1823,0.1832
17:16:08:597,-0.249,4.145,6.5441,37.5931,0.3911,-0.0221,-0.1046,0.1864
17:16:08:621,-0.215,4.341,6.71,38.0853,0.3697,0.1163,-0.1334,0.1898
17:16:08:637,-0.2321,4.3121,7.0691,38.4291,0.3228,0.0844,-0.242,0.1934
17:16:08:658,-0.345,4.4321,7.617,38.4291,0.2036,-0.1426,-0.338,0.197
17:16:08:681,-0.618,4.8731,8.3351,38.0853,0.0214,-0.3268,-0.3304,0.2002
17:16:08:697,-0.6011,5.124,9.212,38.0853,-0.1704,-0.3374,-0.2442,0.2026
17:16:08:719,-0.378,5.0951,10.014,38.0853,-0.2896,-0.0786,-0.128,0.2036
17:16:08:738,-0.1361,4.65,10.5881,38.0853,-0.2534,0.3645,-0.0513,0.2034
17:16:08:757,-0.311,4.463,10.986,36.7506,-0.1181,0.7309,-0.0833,0.2024
17:16:08:782,-0.9701,4.947,11.321,37.5931,0.032,0.8097,-0.0769,0.2014
17:16:08:797,-1.58,5.5481,11.141,37.1054,0.1748,0.7661,0.0253,0.2012
17:16:08:820,-1.317,5.4551,11.297,36.7564,0.2878,0.6277,0.1265,0.2025
17:16:08:837,-1.0391,4.5851,11.5751,37.1054,0.2878,0.159,-0.0131,0.2048
17:16:08:857,-1.6781,4.14,10.9331,36.7564,0.2207,-0.2086,-0.3039,0.2077
17:16:08:879,-2.4161,3.582,9.6041,36.7564,0.2259,-0.0115,-0.3625,0.2103
17:16:08:896,-2.907,3.132,9.001,36.7564,0.258,0.3528,-0.1419,0.2125
17:16:08:918,-2.9501,3.348,8.922,35.9202,0.2079,0.2153,0.2021,0.2148
17:16:08:936,-2.183,3.3671,8.5001,36.7564,0.0896,-0.0349,0.4195,0.2173
17:16:08:956,-1.271,2.838,8.0861,36.3068,-0.117,-0.1276,0.2853,0.2194
17:16:08:992,-1.187,2.543,7.854,35.7892,-0.4026,-0.15,-0.0045,0.2202
17:16:08:996,-1.7171,2.613,7.5671,35.7892,-0.6508,-0.0914,-0.0566,0.2192
17:16:09:018,-1.901,2.543,7.157,35.7892,-0.753,0.0908,0.2203,0.216
17:16:09:038,-1.59,2.438,6.947,35.3466,-0.6849,0.3113,0.6145,0.2111
17:16:09:055,-1.008,2.67,6.9851,27.5015,-0.491,0.4157,0.9383,0.2054
17:16:09:077,-0.476,3.2111,7.346,27.8522,-0.2267,0.2911,1.0714,0.2001
17:16:09:095,-0.0671,3.563,7.473,28.7785,0.0811,0.0353,0.983,0.1959
17:16:09:117,0.2741,3.819,7.442,27.7125,0.3911,-0.1915,0.7646,0.1935
17:16:09:134,0.612,4.056,7.425,27.7255,0.6233,-0.3663,0.5431,0.1933
17:16:09:154,0.911,4.205,7.991,27.747,0.6446,-0.5952,0.33,0.1952
17:16:09:182,0.8231,4.3721,8.984,27.4267,0.4146,-0.9767,0.0764,0.1988
17:16:09:195,0.552,4.691,9.5591,27.5844,0.0448,-1.0725,-0.1473,0.2027
17:16:09:224,0.6551,4.619,9.7001,28.6326,-0.2981,-0.5995,-0.2112,0.2053
17:16:09:233,0.234,4.461,10.157,27.7118,-0.5336,0.1749,-0.127,0.2057
17:16:09:253,-0.6701,5.222,11.048,28.2873,-0.7221,0.406,0.0168,0.2041
17:16:09:280,-0.429,5.3351,11.8001,29.334,-0.8489,0.2388,0.1255,0.2009
17:16:09:294,1.014,4.341,12.549,29.2725,-0.9544,-0.1724,-0.0663,0.1963
17:16:09:317,1.826,3.5651,13.112,28.6752,-1.0278,-0.5474,-0.4625,0.1898
17:16:09:334,1.902,2.4551,12.8651,30.0805,-0.9553,-0.575,-0.7682,0.1816
17:16:09:354,1.799,1.308,12.015,30.9243,-0.7275,-0.3374,-0.8279,0.1722
17:16:09:391,1.5671,0.822,10.995,30.7742,-0.4388,-0.069,-0.6798,0.1631
17:16:09:401,1.2371,1.0661,9.753,29.3643,-0.132,0.1803,-0.3986,0.1555
17:16:09:417,1.124,1.4471,8.649,29.2733,0.1748,0.4049,-0.1078,0.1499
17:16:09:433,1.112,1.4591,7.907,30.0575,0.4135,0.4199,-0.0162,0.1469
17:16:09:453,0.705,1.94,7.3181,30.2472,0.5434,0.1728,-0.1291,0.1466
17:16:09:479,0.4061,2.615,6.5951,29.9896,0.5892,-0.0573,-0.3145,0.1485
17:16:09:493,0.5021,2.864,5.852,30.6696,0.5732,-0.1298,-0.4924,0.1521
17:16:09:513,0.547,2.991,5.3231,30.455,0.5295,-0.0456,-0.6042,0.1567
17:16:09:534,0.267,3.345,5.283,30.5479,0.4273,0.0844,-0.6735,0.1618
17:16:09:553,-0.129,3.855,5.5601,29.9523,0.26,0.1238,-0.7278,0.1668
17:16:09:583,-0.321,4.059,5.85,30.442,0.0544,0.1067,-0.7767,0.1712
17:16:09:593,-0.4121,3.7931,6.777,29.485,-0.215,-0.0019,-0.8779,0.1744
17:16:09:612,-1.2401,4.121,8.388,29.5374,-0.5709,-0.3758,-0.9685,0.176
17:16:09:635,-1.803,4.466,9.755,29.6826,-0.8808,-0.6282,-0.8662,0.1751
17:16:09:652,-1.7291,4.233,10.7441,29.5735,-1.0396,-0.492,-0.6724,0.1713
17:16:09:680,-1.662,3.9371,11.603,30.9244,-0.9107,0.0939,-0.4284,0.1648
17:16:09:692,-1.7981,3.8651,12.4841,29.9378,-0.5303,0.6255,-0.1621,0.1571
17:16:09:712,-1.884,3.9011,12.891,29.4283,-0.082,0.8162,0.0253,0.1503
17:16:09:733,-2.1071,4.2071,12.939,29.293,0.3134,0.7949,0.0839,0.1463
17:16:09:752,-2.246,4.5611,12.626,30.2419,0.602,0.698,0.0754,0.1456
17:16:09:792,-2.0591,3.9821,12.039,31.063,0.6969,0.4657,-0.0588,0.148
17:16:09:793,-2.7701,3.4841,11.364,30.9888,0.6318,0.1814,-0.2963,0.1527
17:16:09:811,-3.687,2.993,10.361,30.6166,0.5189,0.078,-0.404,0.1585
17:16:09:833,-4.197,2.39,9.705,31.1952,0.4081,0.1226,-0.2793,0.1642
17:16:09:851,-4.269,2.064,9.5111,30.1093,0.243,-0.019,-0.0098,0.1694
17:16:09:879,-3.5891,1.868,9.4391,30.0405,-0.0329,-0.2959,0.2692,0.1736
17:16:09:891,-2.3891,1.808,9.413,30.2574,-0.4217,-0.4866,0.4291,0.1762
17:16:09:910,-1.458,1.839,9.48,30.3922,-0.8031,-0.3908,0.4674,0.1761
17:16:09:932,-1.152,1.9451,9.549,31.1863,-1.0374,-0.1478,0.4727,0.1728
17:16:09:951,-0.96,1.811,8.912,30.0406,-1.0098,0.2494,0.5654,0.1664
17:16:09:981,-0.735,1.6721,8.297,31.543,-0.7413,0.6159,0.7305,0.1582
17:16:09:991,-0.6011,1.8131,7.986,30.5937,-0.3791,0.6596,0.8935,0.1502
17:16:10:011,-0.5081,2.177,7.694,31.6817,0.0118,0.4103,1.0438,0.1438
17:16:10:032,-0.251,2.45,7.538,31.3381,0.4155,0.1578,1.048,0.1401
17:16:10:050,0.0971,2.7251,7.3751,31.0648,0.798,-0.0446,0.8755,0.1394
17:16:10:080,0.581,2.9051,7.433,31.4208,1.0772,-0.2703,0.6486,0.142
17:16:10:095,0.8681,3.029,7.878,32.0613,1.1378,-0.5526,0.3758,0.1475
17:16:10:111,0.851,3.305,8.469,31.8115,0.9343,-0.851,0.1116,0.1551
17:16:10:133,0.894,3.249,8.7641,32.1461,0.6148,-0.8786,-0.0769,0.1632
17:16:10:151,0.842,3.228,8.996,32.0161,0.2366,-0.7732,-0.2122,0.1703
17:16:10:191,-0.18,4.193,9.465,30.7482,-0.4399,-0.0093,-0.2197,0.1753
17:16:10:211,-0.354,4.229,10.136,30.7233,-0.6753,0.1387,-0.1823,0.1778
17:16:10:232,0.078,3.747,11.153,31.4433,-0.8905,-0.1042,-0.2889,0.1779
17:16:10:248,0.5689,3.2351,12.288,31.3672,-1.0928,-0.5591,-0.5137,0.176
17:16:10:268,0.6341,2.742,12.935,30.5758,-1.1696,-0.8041,-0.649,0.1717
17:16:10:289,0.837,1.712,13.157,31.9408,-0.9948,-0.7433,-0.5947,0.1646
17:16:10:308,1.086,0.965,12.686,30.6136,-0.6263,-0.5452,-0.4668,0.1549
17:16:10:329,1.239,1.121,11.385,31.3187,-0.1607,-0.1884,-0.2399,0.1439
17:16:10:348,1.622,1.3871,9.875,31.1639,0.3165,0.2229,0.0499,0.1335
17:16:10:367,2.1041,1.31,8.6681,30.6612,0.6915,0.3847,0.1563,0.1258
17:16:10:389,1.934,1.499,8.108,31.2618,0.8843,0.1877,-0.029,0.1219
17:16:10:408,1.316,2.1221,7.746,30.5632,0.8896,-0.3013,-0.4136,0.1254
17:16:10:429,1.196,2.292,6.71,31.5654,0.7736,-0.6145,-0.8066,0.131
17:16:10:448,0.971,2.447,5.8721,31.1121,0.6383,-0.492,-0.9867,0.1372
17:16:10:467,0.459,2.696,5.5031,31.2331,0.5115,-0.1458,-1.0015,0.1433
17:16:10:488,-0.086,3.089,5.465,31.0648,0.3783,0.1504,-0.9333,0.1491
17:16:10:507,-0.426,3.393,5.69,30.378,0.21,0.1919,-0.8651,0.1545
17:16:10:528,-0.627,3.501,6.1541,30.218,-0.0137,0.0908,-0.8833,0.1591
17:16:10:546,-1.266,3.846,7.0931,29.9118,-0.3578,-0.0861,-0.9739,0.1624
17:16:10:566,-1.956,4.253,8.091,29.7371,-0.7403,-0.2373,-0.9569,0.1637
17:16:10:593,-2.251,4.126,9.432,29.6874,-1.0354,-0.1862,-0.7639,0.1621
17:16:10:610,-2.507,3.822,10.6391,29.6429,-1.1738,0.0566,-0.4785,0.1575
17:16:10:629,-2.4761,3.542,11.783,30.1432,-1.1227,0.3943,-0.2197,0.1506
17:16:10:646,-2.076,3.168,12.7211,29.5146,-0.9362,0.6553,-0.0631,0.1425
17:16:10:665,-2.0021,3.281,13.344,30.4549,-0.6934,0.7534,0.0062,0.1346
17:16:10:686,-1.8701,3.276,13.8371,30.4662,-0.4302,0.6298,0.0744,0.1278
17:16:10:706,-1.659,2.409,13.988,29.8282,-0.2289,0.307,-0.0247,0.1229
17:16:10:728,-2.1551,1.703,13.239,29.7395,-0.0936,0.1365,-0.2474,0.1194
17:16:10:745,-2.93,1.19,11.783,31.0135,0.0566,0.4188,-0.2559,0.1171
17:16:10:765,-3.6011,0.855,10.454,30.9641,0.2344,0.8173,0.0349,0.1161
17:16:10:785,-3.7061,0.587,9.767,30.4705,0.3399,0.7309,0.4164,0.117
17:16:10:805,-3.251,0.431,8.987,30.4898,0.2995,0.2974,0.6336,0.1198
17:16:10:827,-2.6261,0.534,8.192,31.7761,0.0896,0.0055,0.6401,0.1233
17:16:10:845,-2.298,0.822,7.6241,31.0668,-0.263,-0.0179,0.6038,0.1263
17:16:10:865,-2.4761,1.382,7.6031,31.9187,-0.6497,0.0833,0.72,0.1274
17:16:10:884,-2.306,1.631,7.7651,33.0086,-0.9032,0.1899,0.9958,0.1262
17:16:10:907,-1.8,1.478,8.1101,32.0153,-0.9586,0.2474,1.244,0.1226
17:16:10:924,-1.331,1.569,8.393,33.0352,-0.8372,0.1473,1.3921,0.1171
17:16:10:944,-0.816,1.8611,8.556,33.1533,-0.5474,0.0396,1.4901,0.1108
17:16:10:964,-0.1271,1.9661,8.3741,33.9831,-0.1394,0.0566,1.5177,0.1046
17:16:10:994,0.315,2.1551,8.3471,33.9807,0.2813,0.093,1.4102,0.1001
17:16:11:007,0.5951,2.385,8.532,33.9441,0.6361,-0.021,1.1609,0.0983
17:16:11:024,0.878,2.366,8.697,33.6899,0.8779,-0.3161,0.7987,0.0997
17:16:11:043,1.1,2.22,8.9291,34.3932,0.9514,-0.7294,0.3513,0.1038
17:16:11:063,1.2341,2.0621,9.056,34.9784,0.8577,-1.0373,-0.1057,0.1097
17:16:11:084,1.076,2.196,9.3701,34.2777,0.652,-1.0086,-0.3901,0.1162
17:16:11:107,0.689,2.289,9.707,35.2393,0.3814,-0.6123,-0.356,0.1221
17:16:11:124,0.0251,2.6411,9.9971,35.1334,0.096,-0.0264,-0.1132,0.1268
17:16:11:144,-0.615,3.297,10.416,35.075,-0.149,0.5541,0.1511,0.13
17:16:11:162,-0.632,3.882,11.306,35.5673,-0.3813,0.65,0.281,0.1321
17:16:11:183,0.425,3.467,12.288,37.1181,-0.573,0.3369,0.1756,0.133
17:16:11:206,1.088,2.85,13.172,37.0851,-0.6412,-0.0807,-0.1909,0.132
17:16:11:240,1.079,1.832,13.4681,36.9777,-0.4868,-0.2992,-0.5786,0.1288
17:16:11:243,0.8681,0.989,13.289,36.6451,-0.2023,-0.4377,-0.7886,0.1242
17:16:11:262,0.554,1.0421,12.393,37.598,0.1204,-0.413,-0.6735,0.1196
17:16:11:282,0.662,1.4711,11.117,38.1965,0.4316,-0.1671,-0.3262,0.1166
17:16:11:305,1.2011,1.6601,9.6161,37.6879,0.6798,0.159,-0.0556,0.1158
17:16:11:323,1.773,1.439,8.4101,37.3263,0.7853,0.3304,-0.1228,0.1176
17:16:11:342,1.479,1.667,7.6241,38.088,0.7171,0.1695,-0.4572,0.1219
17:16:11:361,0.545,2.1221,7.0901,38.8083,0.5541,-0.2395,-0.8343,0.1276
17:16:11:392,0.1001,2.182,6.2951,39.3452,0.4146,-0.4973,-1.0825,0.1333
17:16:11:406,-0.0671,1.9901,5.826,39.3018,0.3762,-0.4173,-1.172,0.1382
17:16:11:423,-0.357,2.21,5.829,39.0222,0.3729,-0.2447,-1.1613,0.1423
17:16:11:441,-1.006,2.811,6.348,40.0406,0.3602,-0.0989,-1.0846,0.1461
17:16:11:461,-1.4051,3.137,6.647,40.9356,0.358,-0.0733,-0.9611,0.1497
17:16:11:481,-1.527,2.957,6.743,40.8813,0.3751,0.0598,-0.8343,0.1531
17:16:11:506,-2.033,3.2471,7.842,40.6834,0.242,-0.0627,-0.7715,0.1566
17:16:11:522,-2.9261,4.2889,9.264,42.5339,-0.084,-0.4909,-0.6692,0.16
17:16:11:541,-3.036,4.715,10.208,41.7103,-0.4111,-0.5921,-0.4551,0.1621
17:16:11:561,-2.595,4.317,10.715,42.1678,-0.5166,0.1013,-0.1345,0.1616
17:16:11:583,-2.576,3.972,11.3501,42.9262,-0.3919,0.9664,0.2097,0.1593
17:16:11:603,-2.772,4.0061,12.1301,42.6185,-0.2534,1.2572,0.4366,0.1571
17:16:11:620,-3.1121,4.3481,12.741,43.1705,-0.1959,1.0292,0.4792,0.1563
17:16:11:640,-2.978,4.377,13.026,43.0548,-0.1448,0.5786,0.4227,0.1565
17:16:11:660,-2.495,3.4031,13.085,44.3342,-0.0521,0.143,0.2192,0.1571
17:16:11:680,-3.048,2.546,12.4841,44.3785,0.0874,-0.003,-0.0854,0.1574
17:16:11:702,-4.106,2.208,11.3471,44.586,0.3069,0.1919,-0.1078,0.1577
17:16:11:719,-4.4321,1.947,10.4801,45.1076,0.5605,0.3965,0.2555,0.1588
17:16:11:739,-3.6971,1.547,10.047,46.0707,0.6798,0.1983,0.6358,0.1617
17:16:11:759,-2.5691,1.346,9.3221,46.5318,0.5753,-0.117,0.7061,0.1663
17:16:11:790,-1.745,1.578,8.529,47.2497,0.2835,-0.199,0.5824,0.1715
17:16:11:802,-1.3601,1.815,7.722,47.3027,-0.1033,0.0151,0.5335,0.1758
17:16:11:819,-1.281,1.973,7.224,47.6845,-0.4899,0.2996,0.6262,0.1782
17:16:11:839,-1.322,2.186,7.0181,48.5155,-0.7444,0.5052,0.8349,0.1782
17:16:11:859,-1.233,2.28,6.9251,48.1078,-0.7998,0.5862,1.0629,0.176
17:16:11:879,-1.149,2.649,7.737,47.8966,-0.6497,0.4348,1.2397,0.1721
17:16:11:900,-0.9551,3.041,8.714,49.1696,-0.1917,0.0694,1.3707,0.1678
17:16:11:919,-0.309,2.8331,8.144,48.9845,0.5243,-0.0008,1.39,0.1643
17:16:11:938,-0.12,3.137,8.0621,49.2444,1.2583,0.1888,1.2067,0.1635
17:16:11:959,-0.3161,3.8651,8.505,49.4228,1.745,-0.0093,0.8925,0.1672
17:16:11:983,-0.3611,4.437,8.364,51.902,1.7632,-0.5985,0.4877,0.1761
17:16:12:002,-0.165,4.5491,8.093,52.5374,1.4351,-1.0918,0.1052,0.1887
17:16:12:019,-0.041,4.3511,8.031,52.0561,0.8075,-1.2504,-0.159,0.2021
17:16:12:038,-0.2441,4.2889,8.709,51.958,0.0982,-0.9926,-0.1345,0.2135
17:16:12:058,-0.5291,4.0901,9.405,52.6248,-0.491,-0.4249,0.0318,0.2209
17:16:12:081,-0.893,4.1861,9.753,52.9764,-0.8489,0.2377,0.1926,0.2233
17:16:12:102,-1.293,4.6001,10.416,52.651,-0.9309,0.7213,0.3747,0.2214
17:16:12:118,-1.065,4.679,11.321,52.1835,-0.7743,0.665,0.5441,0.2169
17:16:12:137,0.234,3.704,12.255,52.6314,-0.5389,0.0098,0.378,0.2112
17:16:12:158,1.079,2.919,11.934,53.3608,-0.2758,-0.4834,-0.1356,0.2053
17:16:12:190,0.914,2.411,10.935,53.3598,0.0235,-0.3598,-0.5222,0.1998
17:16:12:201,0.8921,1.8371,9.887,53.3416,0.3101,-0.0807,-0.5382,0.1956
17:16:12:216,1.086,1.686,9.2591,53.8755,0.4368,-0.0648,-0.3602,0.1936
17:16:12:237,1.127,2.3321,8.642,53.7822,0.3602,-0.2043,-0.1419,0.1938
17:16:12:257,1.313,2.7131,8.0051,54.5508,0.1503,-0.2714,-0.0726,0.1953
17:16:12:279,1.239,3.156,7.5071,53.6082,-0.1128,-0.2256,-0.1695,0.1968
17:16:12:297,0.854,3.551,6.875,54.5137,-0.3344,-0.0925,-0.2612,0.1974
17:16:12:317,0.411,3.4961,6.3431,54.4336,-0.4643,0.1248,-0.3145,0.1966
17:16:12:337,-0.077,3.4511,6.434,55.247,-0.5166,0.1643,-0.373,0.1947
17:16:12:357,-0.498,3.656,6.791,54.8033,-0.4834,0.0333,-0.4103,0.192
17:16:12:382,-0.546,3.831,6.9371,54.7257,-0.3833,-0.067,-0.437,0.1885
17:16:12:399,-0.515,3.992,7.0181,55.5653,-0.2332,0.0407,-0.4711,0.1848
17:16:12:415,-0.63,3.9581,7.418,55.6505,-0.0883,0.1728,-0.5307,0.1814
17:16:12:436,-0.836,3.872,8.067,55.1228,-0.0425,0.0876,-0.6117,0.179
17:16:12:455,-1.185,4.032,8.795,56.5757,-0.1298,-0.2106,-0.6468,0.1777
17:16:12:480,-1.46,4.296,9.432,56.3212,-0.2768,-0.4696,-0.5968,0.1769
17:16:12:499,-1.2641,4.1501,10.1381,56.689,-0.3887,-0.4462,-0.4722,0.1755
17:16:12:517,-1.02,3.939,10.6391,57.4034,-0.3802,0.0162,-0.257,0.1732
17:16:12:536,-1.2071,3.798,11.33,57.2152,-0.2662,0.6138,-0.0109,0.1702
17:16:12:555,-1.4891,3.879,11.991,57.1754,-0.198,0.8013,0.1137,0.1677
17:16:12:591,-1.982,4.502,12.0611,57.0779,-0.1682,0.7341,0.1628,0.1662
17:16:12:598,-2.21,4.892,12.0221,57.0245,-0.0979,0.6788,0.2416,0.1654
17:16:12:615,-1.7861,3.908,11.951,57.9165,-0.0425,0.4008,0.1702,0.1654
17:16:12:635,-2.2841,3.144,11.582,57.8416,-0.0137,0.1024,-0.1259,0.1656
17:16:12:654,-3.182,2.814,10.562,58.3979,0.0874,0.0716,-0.2601,0.1658
17:16:12:678,-3.723,2.435,9.6161,58.4061,0.26,0.2144,-0.078,0.1662
17:16:12:700,-3.503,2.1101,9.3671,58.0598,0.3794,0.0461,0.2342,0.1672
17:16:12:714,-2.8751,2.1701,8.7281,57.7983,0.3538,-0.2299,0.4312,0.1693
17:16:12:734,-2.1191,1.983,8.177,58.7846,0.1961,-0.2714,0.4067,0.1719
17:16:12:754,-1.58,1.538,7.9211,57.8912,-0.0744,-0.2512,0.2192,0.1742
17:16:12:781,-1.7261,1.6121,7.895,59.2273,-0.3887,-0.2927,0.1052,0.1753
17:16:12:797,-1.872,2.177,7.478,59.1773,-0.5985,-0.2139,0.2863,0.1744
17:16:12:814,-1.599,2.493,7.05,57.966,-0.606,0.1067,0.6773,0.1714
17:16:12:833,-1.173,2.7611,7.0331,59.344,-0.459,0.4008,1.0182,0.1672
17:16:12:853,-0.761,3.111,7.742,59.2593,-0.2491,0.3602,1.145,0.163
17:16:12:881,-0.354,3.4271,7.952,59.1759,0.0268,0.0172,1.081,0.1596
17:16:12:895,0.174,3.35,7.521,57.8654,0.3708,-0.0968,0.8627,0.1575
17:16:12:912,0.159,3.63,7.73,57.8174,0.6446,-0.1521,0.5739,0.1573
17:16:12:933,0.131,3.975,8.127,58.5133,0.7309,-0.4078,0.3289,0.1593
17:16:12:953,0.473,3.807,8.5991,59.2403,0.6244,-0.7135,0.0796,0.1635
17:16:12:991,0.7961,3.41,9.236,59.2641,0.3964,-0.9778,-0.2027,0.1685
17:16:12:993,0.827,3.245,10.136,59.2352,0.0619,-1.0501,-0.3965,0.1729
17:16:13:014,0.507,3.74,10.571,59.2103,-0.2768,-0.6571,-0.3241,0.1754
17:16:13:033,-0.084,3.956,10.593,59.4717,-0.4643,0.1567,-0.0854,0.1755
17:16:13:052,-0.749,4.3481,11.0171,58.3468,-0.5368,0.7437,0.1649,0.1738
17:16:13:081,-0.3761,4.298,11.8691,58.7669,-0.6007,0.6542,0.3289,0.1714
17:16:13:094,0.8921,3.3,12.573,59.0962,-0.7136,0.1121,0.1255,0.1684
17:16:13:112,1.464,2.378,12.5831,58.916,-0.7743,-0.3311,-0.3591,0.1641
17:16:13:131,1.172,1.578,12.137,59.3732,-0.6528,-0.3791,-0.698,0.1583
17:16:13:151,1.1051,0.767,11.534,58.8238,-0.3802,-0.3066,-0.6905,0.1517
17:16:13:181,1.074,0.4871,10.734,59.2036,-0.0734,-0.2171,-0.4689,0.1456
17:16:13:194,1.0549,1.253,9.765,59.1197,0.2089,-0.0584,-0.1781,0.1411
17:16:13:211,1.4951,1.7081,8.7641,58.9198,0.4027,0.0748,0.0201,0.1386
17:16:13:248,1.692,1.935,7.952,58.902,0.4316,0.1195,-0.0769,0.1383
17:16:13:250,1.299,2.505,7.217,57.6204,0.3475,0.0822,-0.3347,0.1399
17:16:13:281,1.0001,2.6321,6.437,59.574,0.2591,0.1099,-0.5595,0.1425
17:16:13:291,0.681,2.483,6.1421,58.5688,0.1823,0.0993,-0.7215,0.1454
17:16:13:310,0.1331,2.747,6.4031,59.4237,0.1024,-0.0818,-0.7991,0.1481
17:16:13:331,-0.144,3.1781,6.429,59.5584,0.0417,-0.2597,-0.7832,0.1506
17:16:13:350,-0.141,3.372,6.365,59.5088,0.0278,-0.0818,-0.7321,0.1521
17:16:13:391,-0.225,3.3881,6.8291,59.4998,0.0129,0.0674,-0.7118,0.153
17:16:13:395,-0.4721,3.498,7.557,59.4876,-0.0786,-0.0755,-0.7289,0.1537
17:16:13:412,-0.984,3.9461,8.771,59.6658,-0.2683,-0.346,-0.7257,0.154
17:16:13:433,-1.439,4.4591,10.148,59.8344,-0.4686,-0.6071,-0.6234,0.1535
17:16:13:452,-1.001,4.1351,10.701,59.1941,-0.507,-0.281,-0.3517,0.1514
17:16:13:478,-0.7571,3.5801,11.34,58.9313,-0.3492,0.3741,-0.0887,0.148
17:16:13:495,-0.888,3.494,12.02,58.8925,-0.1224,0.8301,0.0424,0.1447
17:16:13:513,-1.314,3.783,12.69,58.7309,0.0598,0.8429,0.0722,0.1428
17:16:13:531,-1.7291,4.3601,12.738,59.6819,0.1929,0.632,0.0414,0.1428
17:16:13:551,-0.965,3.707,12.884,59.5763,0.2898,0.3688,-0.045,0.1444
17:16:13:581,-0.915,2.766,12.87,58.2516,0.2292,-0.0798,-0.4125,0.1469
17:16:13:594,-1.994,2.694,11.69,58.3692,0.1354,-0.183,-0.7002,0.1495
17:16:13:611,-2.88,2.409,10.1501,58.3474,0.194,0.2537,-0.5339,0.1515
17:16:13:632,-3.302,1.9661,9.6041,58.9786,0.3356,0.535,-0.0982,0.1533
17:16:13:651,-3.093,1.724,9.489,58.9313,0.39,0.0822,0.2171,0.1559
17:16:13:680,-2.195,1.751,8.927,58.9767,0.2941,-0.5005,0.2427,0.1592
17:16:13:693,-1.142,1.664,8.544,59.1377,0.0257,-0.6955,0.0509,0.1621
17:16:13:710,-0.8591,1.7531,8.189,58.1429,-0.2992,-0.5867,-0.1356,0.1634
17:16:13:730,-1.1561,2.031,7.8881,57.7836,-0.5442,-0.3257,-0.1132,0.1624
17:16:13:751,-1.379,2.306,7.538,58.1105,-0.6454,0.0225,0.1691,0.1593
17:16:13:791,-0.711,2.759,7.8641,57.4373,-0.3919,0.2485,0.8755,0.1549
17:16:13:810,0.0011,3.048,7.691,58.24,-0.0616,0.2633,0.998,0.1501
17:16:13:828,0.291,3.4841,7.787,58.1706,0.3026,0.2612,0.9159,0.146
17:16:13:847,0.3941,3.7121,8.1011,58.0858,0.6148,0.0609,0.6517,0.143
17:16:13:867,0.425,3.728,8.0981,57.9247,0.8183,-0.3013,0.2607,0.1423
17:16:13:888,0.44,3.656,8.369,57.5596,0.8811,-0.6592,-0.1024,0.1441
17:16:13:908,0.5711,3.173,9.111,57.6758,0.7947,-1.0662,-0.421,0.1483
17:16:13:927,0.483,2.897,9.956,56.5936,0.5669,-1.375,-0.7087,0.1539
17:16:13:947,0.344,3.101,10.062,56.8418,0.3197,-1.1461,-0.7343,0.1597
17:16:13:967,-0.1121,3.345,9.7121,56.9625,0.1312,-0.15,-0.4455,0.1644
17:16:13:987,-0.9221,3.6251,10.217,56.7613,-0.0786,0.7384,-0.0492,0.1673
17:16:14:007,-0.989,3.963,11.1341,56.7397,-0.395,0.831,0.2267,0.1689
17:16:14:026,0.38,3.242,12.377,56.8308,-0.7871,0.2346,0.1723,0.1703
17:16:14:046,1.649,2.141,13.0661,56.1524,-1.1162,-0.51,-0.2601,0.171
17:16:14:065,1.589,1.368,12.987,55.8741,-1.1824,-0.7583,-0.649,0.1693
17:16:14:086,1.0091,1.1021,12.3,55.613,-0.8745,-0.5441,-0.5936,0.1638
17:16:14:106,0.959,0.9581,11.1461,54.9748,-0.3162,-0.1532,-0.2155,0.1549
17:16:14:126,1.491,0.9101,9.657,56.1466,0.2494,0.2527,0.0829,0.1446
17:16:14:146,1.8881,0.929,8.733,56.1296,0.6563,0.4103,0.102,0.136
17:16:14:166,1.584,1.437,7.9121,55.5673,0.7958,0.1504,-0.1504,0.131
17:16:14:192,0.9281,2.2061,6.69,55.4884,0.7276,-0.0968,-0.4807,0.1304
17:16:14:206,0.566,2.502,5.565,55.3482,0.5616,-0.1011,-0.7204,0.1332
17:16:14:225,0.3611,2.615,4.857,55.036,0.3623,0.0461,-0.8332,0.1379
17:16:14:246,0.0641,2.775,4.7921,54.8841,0.161,0.1206,-0.8631,0.1432
17:16:14:265,-0.414,3.23,5.201,53.8922,-0.0499,-0.0008,-0.8887,0.1484
17:16:14:287,-0.627,3.609,5.493,54.8238,-0.2065,-0.1532,-0.9078,0.1528
17:16:14:305,-0.6131,3.57,5.982,53.9053,-0.2864,-0.1606,-0.9782,0.1558
17:16:14:325,-1.116,3.7931,7.0691,55.1671,-0.4228,-0.247,-1.1187,0.1569
17:16:14:344,-1.958,4.2431,8.745,53.323,-0.6315,-0.6102,-1.2156,0.1564
17:16:14:364,-2.207,4.1951,9.5351,53.996,-0.8095,-0.7646,-1.14,0.1546
17:16:14:386,-2.447,3.956,10.521,53.0513,-0.9053,-0.2694,-0.8705,0.1511
17:16:14:405,-3.158,4.205,11.843,52.9963,-0.8669,0.3741,-0.3816,0.1456
17:16:14:424,-2.9231,3.896,13.313,53.4297,-0.753,0.5765,0.0466,0.1386
17:16:14:445,-2.097,3.35,14.342,53.8903,-0.5985,0.4561,0.1521,0.1315
17:16:14:463,-2.1161,3.702,14.7761,52.6276,-0.4132,0.3741,0.0414,0.1254
17:16:14:485,-2.037,3.5891,14.9171,52.5328,-0.1959,0.3901,-0.0088,0.1203
17:16:14:506,-2.057,2.4791,14.3351,52.4681,-0.0052,0.3858,-0.1067,0.1162
17:16:14:524,-2.832,1.899,13.0211,52.4363,0.2089,0.4785,-0.1195,0.1134
17:16:14:543,-3.369,1.413,11.469,52.3822,0.4806,0.7182,0.0989,0.1121
17:16:14:563,-3.591,1.1981,10.782,52.9634,0.6915,0.6106,0.4227,0.1124
17:16:14:591,-3.251,1.023,10.322,52.475,0.7202,0.0066,0.5932,0.115
17:16:14:603,-2.349,0.7451,9.614,52.2616,0.5605,-0.5409,0.494,0.1201
17:16:14:623,-1.53,0.362,8.7851,52.1695,0.2558,-0.6901,0.2586,0.1263
17:16:14:643,-1.5131,0.4031,7.998,51.6056,-0.0925,-0.4419,0.1628,0.1318
17:16:14:663,-1.7531,0.575,7.3031,52.3903,-0.3898,0.029,0.3758,0.1353
17:16:14:684,-1.877,0.783,7.0781,51.6465,-0.5932,0.4082,0.8232,0.1364
17:16:14:703,-1.551,1.092,7.176,51.8655,-0.6508,0.4199,1.3133,0.1355
17:16:14:722,-0.8141,1.631,7.148,51.1602,-0.5261,0.2772,1.7159,0.1332
17:16:14:742,0.1811,2.2871,7.205,52.2579,-0.2427,0.1493,1.9524,0.1299
17:16:14:762,1.2131,2.7011,7.488,52.5177,0.146,0.0247,1.9471,0.1261
17:16:14:782,2.1851,2.747,7.8161,52.0268,0.569,-0.1319,1.6382,0.1228
17:16:14:802,2.396,2.787,8.5121,50.8921,0.8981,-0.4258,1.0554,0.121
17:16:14:821,1.9841,2.9261,8.975,50.6065,1.0431,-0.9287,0.4036,0.1216
17:16:14:841,1.9001,2.7281,8.9651,50.1677,1.0355,-1.243,-0.0802,0.1248
17:16:14:862,1.926,2.4881,9.1541,50.5062,0.8885,-1.2579,-0.3176,0.1299
17:16:14:883,1.8071,2.51,9.3551,50.8211,0.5999,-0.9639,-0.3699,0.1359
17:16:14:904,1.122,3.5441,9.6191,50.5965,0.2344,-0.3002,-0.2346,0.1418
17:16:14:921,0.705,4.08,9.528,50.3309,-0.0979,0.4828,0.0104,0.1468
17:16:14:941,0.701,4.008,9.939,49.9623,-0.4164,0.9152,0.0935,0.1506
17:16:14:961,0.971,3.7331,11.156,50.1423,-0.7998,0.6639,-0.1132,0.1533
17:16:14:991,1.218,3.3671,12.798,49.8971,-1.1738,-0.1426,-0.5776,0.1539
17:16:15:001,1.139,2.883,13.617,49.8042,-1.3186,-0.8232,-0.9494,0.1495
17:16:15:021,1.131,1.959,13.6961,49.8189,-1.1568,-0.9159,-0.9611,0.1409
17:16:15:041,1.16,1.2191,13.263,49.9069,-0.737,-0.5995,-0.7044,0.1297
17:16:15:060,1.5221,0.903,12.0341,49.4286,-0.1628,-0.0381,-0.3549,0.1183
17:16:15:081,1.8881,1.064,10.521,49.318,0.4113,0.4774,-0.0802,0.1098
17:16:15:102,2.151,1.0991,9.3071,49.2908,0.8364,0.5914,-0.0481,0.1059
17:16:15:120,1.998,1.289,8.096,50.1497,1.0366,0.3528,-0.2665,0.1069
17:16:15:140,1.4711,1.626,6.659,49.411,1.0878,0.0876,-0.5489,0.1118
17:16:15:159,1.007,1.7,5.589,48.9469,1.0483,-0.0275,-0.7917,0.1191
17:16:15:184,0.665,1.9811,4.758,48.7579,0.9461,-0.0679,-0.9142,0.1276
17:16:15:201,0.38,2.2991,4.2821,49.449,0.8033,-0.0104,-0.9333,0.1366
17:16:15:219,0.011,2.883,4.16,48.9166,0.5743,0.0214,-0.9313,0.1455
17:16:15:239,-0.4931,3.506,4.672,49.9092,0.2707,-0.069,-0.9398,0.1537
17:16:15:265,-1.178,4.004,5.7851,50.2709,-0.0936,-0.3919,-0.9952,0.1602
17:16:15:283,-1.7021,4.1861,6.777,49.6684,-0.4834,-0.6282,-1.0473,0.1641
17:16:15:299,-2.222,4.3751,8.189,48.8172,-0.8564,-0.4249,-0.958,0.1644
17:16:15:319,-3.0881,4.9421,10.1741,49.6146,-1.0897,0.0854,-0.632,0.1614
17:16:15:339,-3.464,5.004,11.831,49.4562,-1.0886,0.485,-0.2144,0.1559
17:16:15:359,-2.8391,4.3511,12.8651,49.3921,-0.8734,0.7182,0.0744,0.1493
17:16:15:392,-2.6741,4.152,13.988,49.3565,-0.5261,0.8216,0.1745,0.1429
17:16:15:399,-3.1481,4.415,14.8121,48.896,-0.1756,0.6298,0.1574,0.1381
17:16:15:418,-2.93,3.8621,14.955,48.8396,0.0789,0.2303,0.0531,0.1354
17:16:15:438,-2.612,2.646,14.555,48.809,0.1705,-0.0712,-0.1195,0.1346
17:16:15:458,-3.215,1.949,13.1261,48.4649,0.2003,0.0833,-0.1601,0.1348
17:16:15:478,-4.077,1.605,11.4551,48.7779,0.2824,0.7332,0.1319,0.1356
17:16:15:497,-4.6091,1.145,10.385,48.0139,0.3432,1.1389,0.6006,0.1377
17:16:15:518,-4.566,0.9221,9.81,49.5691,0.2643,0.9206,0.9787,0.1418
17:16:15:538,-3.9221,1.1351,9.1901,49.5721,0.0459,0.3762,1.2152,0.1471
17:16:15:558,-2.8301,1.212,8.481,49.6631,-0.2449,0.0236,1.2897,0.1516
17:16:15:583,-2.1761,1.325,7.9931,50.0872,-0.5655,0.0364,1.2121,0.154
17:16:15:597,-2.025,1.6121,7.538,49.65,-0.8287,0.2452,1.1833,0.1536
17:16:15:617,-1.803,1.7651,7.3421,49.5354,-0.9607,0.4146,1.2803,0.1506
17:16:15:638,-1.286,1.952,7.598,49.6603,-0.9362,0.3571,1.4389,0.1458
17:16:15:657,-0.4691,2.079,7.916,49.49,-0.7264,0.161,1.5668,0.1399
17:16:15:681,0.246,2.0711,8.364,48.7359,-0.377,0.0225,1.4997,0.1338
17:16:15:696,0.653,2.3351,8.5391,49.3069,0.0257,-0.0477,1.2579,0.1283
17:16:15:716,1.005,2.309,8.63,49.2825,0.4539,-0.0008,0.983,0.1247
17:16:15:736,0.854,2.1,8.91,49.5682,0.798,0.0236,0.705,0.1238
17:16:15:756,0.5951,2.184,9.477,49.2967,0.9291,-0.2405,0.4749,0.1261
17:16:15:793,0.705,2.162,9.7121,49.5676,0.8427,-0.4898,0.2896,0.1309
17:16:15:796,0.8471,1.976,9.9731,49.5676,0.6574,-0.5048,0.1532,0.1368
17:16:15:816,0.78,1.664,10.212,50.6961,0.4507,-0.3961,0.085,0.1425
17:16:15:836,-0.012,2.3561,10.22,50.672,0.2643,-0.102,0.1543,0.1473
17:16:15:856,-0.8261,3.254,9.956,51.5608,0.1258,0.3656,0.3576,0.151
17:16:15:881,-1.08,3.8051,10.208,51.1195,-0.0308,0.6681,0.5952,0.1537
17:16:15:896,-0.251,3.254,10.9691,51.1233,-0.2406,0.3625,0.6134,0.1562
17:16:15:915,0.863,2.337,11.385,50.7122,-0.4675,-0.1489,0.2182,0.1576
17:16:15:936,1.0451,1.703,10.998,50.0715,-0.5581,-0.2575,-0.2453,0.1567
17:16:15:955,0.842,1.0901,10.617,51.4527,-0.459,-0.1415,-0.3943,0.1535
17:16:15:982,0.7961,0.6641,9.978,51.7155,-0.2619,-0.1372,-0.2996,0.1491
17:16:15:994,0.677,0.903,9.188,51.7155,-0.0584,-0.0531,-0.1451,0.1447
17:16:16:015,0.59,1.368,8.517,51.7067,0.0906,0.0481,-0.0546,0.1412
17:16:16:036,0.48,1.973,7.986,51.7067,0.1557,0.047,-0.0461,0.139
17:16:16:054,0.159,2.7281,7.3781,51.7067,0.177,0.0705,-0.0769,0.1382
17:16:16:080,-0.12,3.237,6.863,51.6863,0.2046,0.1942,-0.1217,0.1385
17:16:16:096,-0.218,3.314,6.726,51.6863,0.2014,0.2101,-0.2282,0.1399
17:16:16:114,-0.4361,3.41,6.963,52.1128,0.1204,-0.003,-0.4179,0.1421
17:16:16:134,-0.7331,3.585,7.284,51.5015,0.0161,-0.3087,-0.5734,0.1443
17:16:16:154,-0.768,3.527,7.1291,52.3565,-0.0148,-0.297,-0.617,0.1456
17:16:16:194,-0.8621,3.446,7.308,52.6586,0.015,-0.067,-0.5723,0.1461
17:16:16:197,-1.017,3.321,7.926,52.6401,0.0161,0.014,-0.4913,0.1461
17:16:16:213,-1.1951,3.206,8.649,52.9586,-0.0734,-0.1543,-0.4498,0.1463
17:16:16:233,-1.4081,3.3431,9.465,52.9532,-0.1852,-0.3354,-0.3932,0.1464
17:16:16:253,-1.1441,3.237,10.272,53.274,-0.1831,-0.2362,-0.2346,0.1459
17:16:16:277,-0.986,2.919,11.2631,53.7629,-0.0564,0.03,-0.0652,0.1447
17:16:16:292,-1.322,2.9141,12.3071,53.2841,0.0556,0.1462,-0.012,0.1435
17:16:16:313,-2.198,3.704,12.5231,52.9688,0.1173,0.3091,0.036,0.1428
17:16:16:333,-2.7821,4.5161,12.3221,54.3083,0.1918,0.6724,0.265,0.1429
17:16:16:353,-1.9901,3.654,12.204,54.0353,0.2185,0.634,0.4759,0.1444
17:16:16:381,-1.968,2.84,11.7731,54.8914,0.1653,0.3293,0.3567,0.1471
17:16:16:394,-2.9231,2.78,10.895,54.616,0.1525,0.2153,0.1319,0.1499
17:16:16:413,-3.405,2.361,9.863,55.5168,0.2685,0.3017,0.1202,0.1523
17:16:16:432,-3.189,1.4441,9.0941,54.5914,0.3879,0.2826,0.2097,0.1549
17:16:16:452,-3.1031,1.1351,8.3471,54.8135,0.374,0.0833,0.247,0.158
17:16:16:480,-2.964,1.4441,7.617,56.1332,0.1983,-0.0019,0.2981,0.1614
17:16:16:492,-2.526,1.406,7.1051,55.2301,-0.1203,0.0598,0.3673,0.1645
17:16:16:513,-2.322,1.413,6.81,56.643,-0.5144,0.1141,0.4258,0.1664
17:16:16:532,-2.373,1.791,6.5471,57.0098,-0.8808,0.1919,0.5728,0.1661
17:16:16:552,-2.133,2.019,6.65,56.4969,-1.1344,0.2846,0.8158,0.1631
17:16:16:591,-1.59,2.277,7.107,56.7622,-1.2452,0.2633,1.0458,0.1574
17:16:16:594,-0.891,2.567,8.0891,56.3302,-1.1631,0.0939,1.1961,0.1496
17:16:16:612,-0.045,2.613,8.924,56.5863,-0.7935,-0.1137,1.2099,0.1404
17:16:16:631,0.566,2.153,9.2741,57.1251,-0.1246,-0.0488,1.0449,0.1314
17:16:16:651,0.6551,1.952,9.75,57.1049,0.5818,-0.1521,0.7072,0.1245
17:16:16:679,0.717,2.45,10.203,57.5639,1.1005,-0.5719,0.3704,0.1217
17:16:16:692,1.0841,2.876,10.172,57.0015,1.3658,-1.031,0.1511,0.1236
17:16:16:712,1.553,2.807,10.119,57.4469,1.4042,-1.1524,-0.0481,0.1295
17:16:16:731,1.373,3.1871,10.703,57.2092,1.2273,-1.1364,-0.1951,0.1379
17:16:16:751,0.8351,4.142,10.622,57.6847,0.8971,-0.9074,-0.1387,0.1474
17:16:16:781,0.614,4.8011,10.16,58.363,0.52,-0.314,0.0754,0.1565
17:16:16:791,0.689,4.629,9.731,57.8755,0.1557,0.3059,0.1649,0.1642
17:16:16:811,0.768,4.6931,10.205,58.1241,-0.215,0.4423,0.0776,0.1703
17:16:16:831,0.918,4.466,11.156,58.1273,-0.5985,0.1312,-0.2133,0.1739
17:16:16:851,0.648,4.178,12.132,58.6422,-0.9129,-0.345,-0.6755,0.1745
17:16:16:880,-0.17,4.0181,12.269,57.9031,-0.9586,-0.5633,-0.8801,0.1715
17:16:16:891,-0.1481,3.1031,12.2351,58.1243,-0.7626,-0.5175,-0.7033,0.1655
17:16:16:911,0.581,1.799,12.089,57.7562,-0.4505,-0.5708,-0.4967,0.1582
17:16:16:932,0.966,1.3601,11.613,57.968,-0.1053,-0.525,-0.4615,0.1512
17:16:16:951,1.0549,1.3511,10.3991,58.5165,0.2377,-0.231,-0.4668,0.1457
17:16:16:990,0.765,1.523,8.817,58.5623,0.5264,0.2079,-0.4199,0.1426
17:16:16:992,0.4301,1.779,7.277,58.5038,0.7458,0.5595,-0.307,0.1424
17:16:17:012,0.473,1.8251,6.1331,58.6741,0.8939,0.6618,-0.1994,0.145
17:16:17:031,0.581,2.016,5.376,59.0339,0.9343,0.4476,-0.1909,0.1504
17:16:17:052,0.59,2.414,4.689,58.5571,0.8374,0.0822,-0.2889,0.1577
17:16:17:079,0.557,2.883,4.406,59.0413,0.6425,-0.1554,-0.4689,0.1659
17:16:17:091,0.504,3.185,4.313,59.2273,0.3921,-0.2458,-0.6937,0.1738
17:16:17:111,0.3221,3.501,4.718,60.0261,0.0587,-0.2661,-0.879,0.1803
17:16:17:131,-0.369,4.425,6.0731,59.7046,-0.3813,-0.4099,-0.9717,0.1848
17:16:17:153,-0.879,5.217,7.787,59.6118,-0.8584,-0.6784,-0.9802,0.1864
17:16:17:183,-0.572,4.8371,9.0701,58.7581,-1.1663,-0.5846,-0.9643,0.1844
17:16:17:191,-0.716,4.358,10.287,59.2119,-1.2387,-0.1319,-0.9472,0.1787
17:16:17:210,-1.592,4.473,11.6111,59.0154,-1.144,0.3123,-0.7597,0.1706
17:16:17:231,-2.066,4.518,12.638,59.1543,-0.8936,0.4828,-0.4284,0.1616
17:16:17:251,-1.7501,4.1899,12.951,59.4451,-0.5112,0.6372,-0.1462,0.1532
17:16:17:290,-1.5971,4.286,13.3511,60.0531,-0.132,0.7107,-0.029,0.1465
17:16:17:291,-1.362,4.253,14.0981,59.1998,0.0832,0.2974,-0.0301,0.1425
17:16:17:309,-0.78,3.635,14.043,59.1951,0.0502,-0.4014,-0.2463,0.1412
17:16:17:330,-0.8141,2.886,12.846,59.4702,-0.0234,-0.4269,-0.5233,0.1406
17:16:17:350,-1.688,2.251,11.18,60.3016,0.0491,0.2996,-0.52,0.1397
17:16:17:391,-2.942,1.3721,9.542,60.6758,0.2611,0.748,0.1884,0.1403
17:16:17:407,-2.562,1.224,9.137,60.0484,0.1844,0.0674,0.3385,0.143
17:16:17:427,-1.829,1.128,8.508,60.496,-0.0115,-0.4642,0.264,0.1458
17:16:17:447,-1.365,0.951,7.883,60.5,-0.2747,-0.4099,0.0989,0.1473
17:16:17:470,-1.7261,1.1111,7.545,61.0256,-0.5101,-0.0701,0.0754,0.1467
17:16:17:487,-2.064,1.389,7.2551,60.7347,-0.6423,0.3198,0.3215,0.1442
17:16:17:506,-1.8821,1.751,7.311,60.4892,-0.6688,0.5413,0.72,0.1404
17:16:17:526,-1.25,2.198,7.4951,60.8666,-0.5932,0.5126,1.0544,0.1362
17:16:17:546,-0.618,2.747,8.012,61.3025,-0.4228,0.3326,1.2035,0.132
17:16:17:568,0.116,2.948,7.9091,60.1285,-0.1671,0.1163,1.1524,0.1281
17:16:17:585,0.782,2.909,7.871,61.4844,0.1238,0.0641,0.8935,0.125
17:16:17:606,0.9281,3.108,8.0771,61.384,0.3975,-0.0499,0.5313,0.1234
17:16:17:625,0.713,3.218,8.8211,60.8257,0.5541,-0.4419,0.1713,0.1238
17:16:17:646,0.5689,3.0341,9.647,61.67,0.5551,-1.0278,-0.1567,0.1259
17:16:17:668,0.861,2.486,10.212,61.2481,0.4635,-1.3889,-0.4455,0.1288
17:16:17:685,1.0931,2.22,10.533,60.2637,0.3134,-1.3186,-0.5947,0.1313
17:16:17:705,0.935,2.574,10.248,61.5724,0.1823,-0.5378,-0.3901,0.1327
17:16:17:725,0.581,2.505,10.035,60.9759,0.0747,0.4839,-0.0173,0.1334
17:16:17:745,0,2.7251,10.394,61.4061,-0.1096,0.9419,0.1756,0.1341
17:16:17:767,0.045,2.9501,11.354,61.8111,-0.3227,0.5904,0.1595,0.135
17:16:17:790,1.3421,2.151,12.432,61.7999,-0.4899,-0.166,-0.225,0.1352
17:16:17:805,1.62,1.538,13.0781,61.7423,-0.5474,-0.7732,-0.8364,0.1335
17:16:17:824,1.0931,1.076,12.863,61.0022,-0.4962,-0.884,-1.204,0.1295
17:16:17:844,0.653,0.98,12.02,61.9584,-0.3663,-0.5633,-1.0911,0.1239
17:16:17:867,0.5351,1.1231,11.034,61.2264,-0.1618,0.0034,-0.6383,0.118
17:16:17:884,0.8441,1.301,10.064,60.6488,0.0406,0.3667,-0.2175,0.1132
17:16:17:904,1.436,1.277,9.221,61.5089,0.1599,0.4114,-0.1845,0.1104
17:16:17:924,1.239,1.808,8.2991,61.0176,0.1705,0.2622,-0.4583,0.1096
17:16:17:943,0.7151,2.2181,7.1981,60.5611,0.1673,0.1738,-0.73,0.1101
17:16:17:966,0.404,2.1791,6.219,61.4664,0.2046,0.2111,-0.8779,0.1114
17:16:17:983,0.159,2.4191,5.7401,61.5402,0.2548,0.2377,-0.8983,0.1133
17:16:18:004,0.116,2.6411,5.6681,61.5682,0.2952,0.1195,-0.8972,0.1159
17:16:18:023,-0.06,2.984,5.615,61.145,0.2867,-0.1074,-0.9995,0.1191
17:16:18:043,-0.431,3.362,5.8601,61.7239,0.2153,-0.314,-1.155,0.1224
17:16:18:065,-0.479,3.2471,6.111,60.6411,0.0939,-0.4738,-1.2892,0.125
17:16:18:084,-0.785,3.012,7.2671,60.8915,-0.1458,-0.704,-1.4373,0.1266
17:16:18:104,-1.911,3.5201,8.876,60.5503,-0.5357,-0.9735,-1.4788,0.1266
17:16:18:123,-2.399,3.395,10.413,59.8328,-0.9021,-0.8573,-1.2913,0.1241
17:16:18:143,-2.8061,3.137,11.5631,60.0065,-1.0055,-0.052,-0.895,0.1186
17:16:18:163,-3.522,2.79,12.719,59.7981,-0.8137,0.9483,-0.3209,0.1112
17:16:18:190,-3.8471,2.634,13.7681,59.7602,-0.5453,1.2412,0.1532,0.1046
17:16:18:202,-3.4571,2.6291,14.2631,58.7683,-0.2938,1.041,0.346,0.1004
17:16:18:222,-3.1151,2.66,14.663,58.4156,-0.0606,0.6703,0.2927,0.0985
17:16:18:243,-2.739,2.127,14.481,58.7369,0.1482,0.209,0.0008,0.0984
17:16:18:265,-2.969,1.679,13.121,58.364,0.3091,0.0844,-0.2932,0.0993
17:16:18:282,-3.6131,1.3031,11.474,57.8273,0.4954,0.4199,-0.2292,0.101
17:16:18:302,-4.161,1.0661,10.346,57.6197,0.6893,0.6746,0.1489,0.1039
17:16:18:322,-4.0841,0.86,9.9821,57.3649,0.7639,0.3145,0.5281,0.1089
17:16:18:342,-3.189,0.671,9.578,57.1041,0.6724,-0.3257,0.6368,0.1156
17:16:18:363,-2.114,0.431,9.1451,57.1217,0.4476,-0.7593,0.4834,0.1222
17:16:18:385,-1.5971,0.1781,8.469,57.5922,0.1781,-0.7721,0.2342,0.127
17:16:18:402,-1.7381,0.293,7.722,56.6559,-0.0894,-0.4227,0.1521,0.1294
17:16:18:421,-2.0021,0.642,7.086,56.9718,-0.3259,0.1291,0.4227,0.1296
17:16:18:442,-1.9751,1.064,7.133,56.9664,-0.5016,0.5413,0.9819,0.1285
17:16:18:463,-1.542,1.442,7.514,56.8775,-0.5527,0.5254,1.5338,0.1268
17:16:18:482,-0.7181,1.6841,7.6151,57.079,-0.4399,0.3293,1.7735,0.1246
17:16:18:500,0.066,1.887,7.481,56.0745,-0.1874,0.2537,1.7277,0.122
17:16:18:520,0.5831,2.2871,7.643,55.9576,0.1312,0.1738,1.5466,0.1199
17:16:18:540,0.914,2.531,7.689,55.6289,0.4604,0.0737,1.3036,0.119
17:16:18:560,0.995,2.517,8.031,55.6019,0.6733,-0.1617,0.9372,0.12
17:16:18:590,0.8351,2.6321,8.484,54.5799,0.6957,-0.5985,0.525,0.1231
17:16:18:599,0.8561,2.7131,8.994,54.6066,0.5701,-0.9042,0.2533,0.1272
17:16:18:620,1.254,2.543,9.6761,55.2413,0.3569,-1.0373,0.1031,0.1312
17:16:18:640,1.7231,2.529,10.0451,55.4582,0.096,-0.7455,0.0754,0.134
17:16:18:661,1.677,2.747,10.119,55.3787,-0.1458,0.0311,0.0839,0.1353
17:16:18:681,0.897,3.156,9.923,55.5473,-0.3344,0.9035,0.0434,0.1352
17:16:18:699,0.186,3.4721,10.322,55.2211,-0.5431,1.1454,-0.0225,0.1347
17:16:18:719,0.3851,3.278,11.553,55.0895,-0.8287,0.5882,-0.274,0.1341
17:16:18:740,0.351,3.1421,12.7601,55.198,-1.0843,-0.3002,-0.7459,0.132
17:16:18:761,-0.215,2.871,13.236,53.7678,-1.0928,-0.7817,-1.0559,0.1268
17:16:18:783,-0.393,2.129,13.298,54.0315,-0.7998,-0.7913,-1.0005,0.1185
17:16:18:798,-0.069,1.155,13.409,54.0064,-0.3066,-0.6293,-0.7545,0.1086
17:16:18:819,0.291,0.695,12.848,54.3885,0.1844,-0.459,-0.5754,0.0997
17:16:18:839,0.4901,0.8411,11.5361,53.7211,0.5903,-0.1287,-0.4561,0.0938
17:16:18:860,0.435,1.193,9.944,53.0823,0.8502,0.2122,-0.3784,0.0918
17:16:18:880,0.207,1.4321,8.187,53.7873,0.9844,0.4316,-0.3688,0.0937
17:16:18:898,0.047,1.566,6.635,53.6147,1.0355,0.5061,-0.3847,0.0988
17:16:18:918,-0.12,1.6571,5.625,53.3899,1.026,0.4092,-0.404,0.1064
17:16:18:938,-0.249,1.913,4.971,54.1183,0.961,0.1834,-0.4594,0.1156
17:16:18:959,-0.431,2.352,4.94,53.9495,0.8236,-0.1233,-0.5786,0.1256
17:16:18:992,-0.833,2.9861,5.2901,53.3866,0.6265,-0.4568,-0.7321,0.1352
17:16:18:998,-0.833,3.108,5.261,54.7713,0.4316,-0.5474,-0.8514,0.1434
17:16:19:017,-0.8501,2.888,5.565,52.8455,0.2131,-0.345,-0.9952,0.1493
17:16:19:038,-1.542,3.3,6.432,53.7346,-0.1,-0.2544,-1.0803,0.1534
17:16:19:057,-2.298,3.6881,7.751,53.3069,-0.4675,-0.3556,-1.0069,0.1556
17:16:19:080,-2.5691,3.623,9.0731,53.3068,-0.7509,-0.3769,-0.8162,0.1555
17:16:19:097,-2.7941,3.7121,10.2821,54.6825,-0.8137,-0.0744,-0.4935,0.1526
17:16:19:117,-3.017,3.903,11.103,54.7464,-0.6571,0.3497,-0.0791,0.1478
17:16:19:137,-2.933,3.8861,11.9051,54.6895,-0.3941,0.6926,0.199,0.1427
17:16:19:160,-2.8511,4.181,13.3871,54.2661,-0.1724,0.3912,0.2714,0.1389
17:16:19:189,-2.162,3.956,14.5511,54.2987,-0.084,-0.5367,0.1202,0.137
17:16:19:196,-1.1351,3.173,14.682,54.315,-0.0947,-1.1566,-0.2357,0.1355
17:16:19:217,-0.567,1.887,13.8401,53.9492,-0.0371,-0.9905,-0.5083,0.1327
17:16:19:236,-1.3481,1.325,12.554,53.852,0.144,-0.2214,-0.3975,0.129
17:16:19:257,-2.306,1.262,11.5001,53.8291,0.3453,0.5158,0.0744,0.1261
17:16:19:281,-2.291,0.975,10.6961,54.1953,0.4326,0.5829,0.5218,0.1259
17:16:19:299,-1.9541,1.2431,9.654,54.179,0.3921,0.2346,0.7039,0.1284
17:16:19:315,-1.583,1.454,8.5841,54.1786,0.2676,-0.019,0.6911,0.1319
17:16:19:335,-1.611,1.5971,7.5431,54.1693,0.0864,0.0257,0.6538,0.1351
17:16:19:357,-1.784,1.653,6.882,54.2415,-0.1011,0.2804,0.7615,0.1375
17:16:19:393,-1.829,1.724,6.767,55.3699,-0.2907,0.3816,0.9607,0.1389
17:16:19:395,-1.64,1.94,7.224,55.3491,-0.4547,0.2815,1.1375,0.1394
17:16:19:415,-1.2431,2.253,8.0719,54.9255,-0.5186,0.012,1.2462,0.1387
17:16:19:435,-0.606,2.2181,8.2991,54.7891,-0.3663,-0.1596,1.3047,0.1365
17:16:19:457,0.107,2.043,8.3141,54.0241,-0.0148,-0.0434,1.2419,0.1333
17:16:19:481,0.3731,2.4,8.426,54.8669,0.4113,0.1473,1.112,0.1303
17:16:19:495,0.519,2.73,8.508,54.38,0.7565,0.0652,0.9511,0.1295
17:16:19:514,0.789,2.9141,8.438,54.3684,0.9163,-0.2373,0.7092,0.1317
17:16:19:534,0.938,3.17,8.759,55.6641,0.8854,-0.5483,0.4088,0.1361
17:16:19:555,1.287,3.144,9.2471,55.2355,0.7032,-0.7763,0.1341,0.1418
17:16:19:582,1.7471,2.847,9.93,54.8533,0.4231,-0.7337,-0.0418,0.1473
17:16:19:593,1.512,3.015,10.361,55.6948,0.1216,-0.3886,-0.1228,0.1515
17:16:19:614,1.0331,3.542,10.763,55.6693,-0.115,0.1675,-0.1365,0.154
17:16:19:633,0.693,4.0301,11.136,55.6693,-0.2438,0.5712,-0.1024,0.1551
17:16:19:654,0.933,3.884,11.735,55.1691,-0.3322,0.5968,-0.1462,0.1553
17:16:19:682,1.242,3.285,12.578,55.1284,-0.5186,0.1983,-0.47,0.155
17:16:19:693,0.653,3.137,12.935,55.1132,-0.6901,-0.1341,-0.7875,0.1535
17:16:19:713,0,2.78,12.36,55.2307,-0.6636,-0.0349,-0.6681,0.15
17:16:19:733,0.0761,2.081,11.742,55.0956,-0.4282,0.2655,-0.2207,0.1452
17:16:19:755,0.729,1.643,10.986,55.0804,-0.084,0.3699,0.1702,0.1406
17:16:19:793,1.4711,1.715,10.085,54.5987,0.2302,0.2474,0.2597,0.1374
17:16:19:794,1.694,1.88,8.714,54.6065,0.4103,0.1302,0.0786,0.1362
17:16:19:813,1.301,2.1191,7.394,55.4862,0.4635,0.1397,-0.1717,0.1368
17:16:19:833,0.77,2.373,6.4031,55.458,0.4496,0.193,-0.3124,0.139
17:16:19:853,0.54,2.378,5.8121,55.4484,0.4049,0.161,-0.3432,0.1423
17:16:19:878,0.547,2.4161,5.5961,55.4336,0.3432,0.0023,-0.3762,0.1463
17:16:19:893,0.3341,2.811,5.661,54.576,0.2717,-0.1585,-0.4615,0.1504
17:16:19:912,0.023,3.206,6.147,54.5507,0.2537,-0.2353,-0.5701,0.154
17:16:19:932,-0.273,3.204,6.324,54.5841,0.3165,-0.2139,-0.6564,0.1569
17:16:19:952,-0.9341,3.6161,6.509,55.1758,0.3048,-0.1393,-0.6841,0.1595
17:16:19:982,-1.4411,4.1501,7.323,55.1494,0.1216,-0.2438,-0.6533,0.1622
17:16:19:992,-1.949,4.8251,8.3021,55.2056,-0.198,-0.4014,-0.5648,0.1644
17:16:20:012,-1.956,4.9901,9.432,54.3258,-0.4334,-0.3257,-0.4093,0.1654
17:16:20:031,-1.7261,4.6571,10.172,54.8446,-0.378,0.0631,-0.2388,0.1643
17:16:20:052,-2.049,4.748,11.048,55.1939,-0.1181,0.5147,-0.0258,0.1622
17:16:20:080,-2.03,4.976,11.754,55.2237,0.1034,0.4987,0.1319,0.1609
17:16:20:092,-1.7051,5.004,12.3701,54.7255,0.1536,0.1493,0.1574,0.1612
17:16:20:111,-1.202,4.9091,13.016,53.8182,0.0406,-0.3172,0.0329,0.1628
17:16:20:132,-0.6251,4.473,13.095,54.4084,-0.1735,-0.4568,-0.1601,0.164
17:16:20:151,-0.56,3.3761,12.386,54.3413,-0.3162,-0.0562,-0.3102,0.1638
17:16:20:192,-1.736,2.874,11.4071,53.3386,-0.2534,0.6479,-0.2016,0.1622
17:16:20:195,-2.82,2.615,10.5911,53.3552,-0.0286,1.0282,0.2106,0.1607
17:16:20:212,-2.873,2.2061,10.4801,52.8898,0.21,0.6309,0.5921,0.1608
17:16:20:233,-2.3681,2.04,10.586,52.2903,0.4027,-0.2651,0.6805,0.1625
17:16:20:255,-1.317,1.913,9.8321,52.3799,0.5445,-0.8264,0.5292,0.1649
17:16:20:277,-1.01,1.727,8.5871,51.4514,0.6244,-0.5654,0.396,0.167
17:16:20:293,-1.439,1.8011,7.679,51.5234,0.5977,-0.0104,0.3843,0.1692
17:16:20:311,-1.899,2.294,6.956,51.5508,0.4348,0.4476,0.5921,0.1722
17:16:20:331,-1.743,2.732,6.638,51.4162,0.1716,0.6138,0.9181,0.1763
17:16:20:355,-1.161,2.9,6.786,50.0071,-0.1053,0.5382,1.0949,0.1805
17:16:20:382,-0.7571,3.017,7.392,49.4845,-0.2417,0.3059,1.0245,0.1837
17:16:20:391,-0.587,3.084,7.533,49.4138,-0.1735,0.1536,0.9489,0.1852
17:16:20:410,-0.314,3.024,7.605,48.4449,0.0693,0.1909,0.934,0.1853
17:16:20:431,-0.0911,3.264,7.6721,49.378,0.3464,0.2985,0.917,0.1853
17:16:20:452,0.2411,3.6041,7.9811,48.4112,0.4763,0.2111,0.8328,0.1863
17:16:20:479,0.7271,3.762,8.235,47.5927,0.4198,-0.1085,0.6368,0.1888
17:16:20:490,0.9041,3.767,8.627,47.5947,0.2728,-0.4568,0.3502,0.192
17:16:20:511,0.863,3.6851,9.02,48.1017,0.1312,-0.5857,0.0668,0.1948
17:16:20:531,0.945,3.5651,9.35,47.231,0.0342,-0.477,-0.1015,0.1964
17:16:20:551,0.969,3.525,9.587,46.4517,-0.0446,-0.2427,-0.1408,0.1968
17:16:20:590,0.0851,4.593,9.87,46.3528,-0.3376,-0.1383,-0.2633,0.1964
17:16:20:609,0.246,4.449,10.05,46.3528,-0.5453,-0.2054,-0.406,0.1953
17:16:20:629,0.464,4.119,10.478,45.5257,-0.8564,-0.2523,-0.6479,0.1936
17:16:20:652,-0.266,4.004,11.285,46.3168,-1.0704,-0.1563,-0.763,0.191
17:16:20:668,-1.199,3.9611,11.694,45.437,-1.0161,-0.0584,-0.5691,0.1865
17:16:20:689,-1.0031,3.362,12.2831,45.415,-0.7307,-0.1094,-0.1664,0.1796
17:16:20:708,-0.024,2.502,12.575,43.6145,-0.3578,-0.4047,0.0764,0.1714
17:16:20:728,0.875,2.105,11.757,44.4481,0.0076,-0.4696,0.069,0.1632
17:16:20:748,1.05,2.289,10.277,43.5694,0.3186,-0.1191,0.0583,0.1561
17:16:20:767,0.9281,2.411,8.919,43.5573,0.5125,0.2431,0.0924,0.1508
17:16:20:787,0.717,2.373,7.658,42.6891,0.5977,0.3752,0.1031,0.1481
17:16:20:807,0.351,2.498,6.7241,41.2326,0.6051,0.307,0.0659,0.1481
17:16:20:827,0.0971,2.5961,6.039,42.162,0.5669,0.1408,0.0115,0.1506
17:16:20:850,0.011,2.792,5.517,41.2892,0.4859,-0.004,-0.0641,0.1548
17:16:20:867,-0.0221,3.144,5.2181,42.2562,0.3953,-0.019,-0.1313,0.1601
17:16:20:886,-0.117,3.5681,5.12,41.3474,0.3037,0.0407,-0.1909,0.1656
17:16:20:906,-0.17,3.75,5.355,41.3373,0.1866,-0.0073,-0.2985,0.1708
17:16:20:927,-0.452,4.0301,6.183,41.3233,-0.0158,-0.2608,-0.454,0.1752
17:16:20:948,-0.737,4.461,7.454,39.8827,-0.3088,-0.6208,-0.5254,0.1789
17:16:20:968,-0.768,4.7359,8.7761,39.6389,-0.5846,-0.6922,-0.5009,0.1812
17:16:20:991,-0.488,4.5281,9.836,38.0166,-0.6753,-0.2501,-0.4434,0.179
17:16:21:006,-0.876,4.5161,10.689,38.0474,-0.5698,0.5072,-0.2835,0.1749
17:16:21:026,-1.3721,4.7771,11.838,38.0049,-0.3813,0.8108,-0.0461,0.1706
17:16:21:049,-1.197,4.8701,12.683,38.2479,-0.2045,0.5402,0.1244,0.1675
17:16:21:067,-0.797,5.1431,13.164,36.7962,-0.0584,0.1217,0.1521,0.1658
17:16:21:085,-0.081,4.992,13.3661,36.4644,0.0098,-0.1606,0.0764,0.1649
17:16:21:105,0.492,4.092,13.1021,36.6924,-0.0286,-0.1819,-0.1536,0.1645
17:16:21:125,-0.168,3.1031,12.101,34.2075,-0.0478,0.1866,-0.3986,0.164
17:16:21:145,-1.7411,2.723,10.7531,35.8571,0.0396,0.78,-0.3304,0.1635
17:16:21:164,-2.741,2.378,9.99,35.2988,0.1599,1.0037,0.0307,0.1641
17:16:21:184,-2.99,2.124,9.9011,33.8401,0.2174,0.487,0.3704,0.1661
17:16:21:204,-2.48,2.124,9.54,33.8096,0.2025,-0.2949,0.4983,0.1691
17:16:21:224,-1.556,1.8251,8.706,34.6652,0.1429,-0.5048,0.4621,0.1715
17:16:21:246,-1.616,1.784,7.943,33.0252,0.0832,-0.1745,0.4377,0.1728
17:16:21:264,-1.913,2.021,7.241,33.8598,0.0396,0.2943,0.5771,0.1732
17:16:21:284,-1.769,2.2031,6.815,34.8046,-0.0084,0.6926,0.8616,0.1737
17:16:21:317,-1.427,2.522,6.683,33.5053,-0.0446,0.8279,1.1183,0.1746
17:16:21:323,-1.01,2.8421,7.16,32.4834,-0.0297,0.5999,1.2078,0.1759
17:16:21:344,-0.567,3.245,7.548,31.9235,0.0641,0.1089,1.1769,0.1773
17:16:21:364,0.203,3.2951,7.727,32.7947,0.1961,-0.216,1.0619,0.1786
17:16:21:390,0.7871,3.384,7.8521,31.4248,0.2483,-0.2864,0.8636,0.1796
17:16:21:403,1.1291,3.4241,8.1371,31.4248,0.1918,-0.2501,0.6453,0.1808
17:16:21:423,1.175,3.443,8.345,31.6449,0.063,-0.2299,0.461,0.182
17:16:21:445,1.0211,3.518,8.6801,31.6449,-0.0894,-0.2064,0.3332,0.1829
17:16:21:463,0.959,3.563,9.252,31.6449,-0.2139,-0.2405,0.2342,0.1829
17:16:21:483,0.981,3.6131,9.686,31.0223,-0.3237,-0.2629,0.1617,0.182
17:16:21:503,0.8681,3.9491,10.0211,31.3133,-0.4175,-0.1074,0.1265,0.1799
17:16:21:523,0.8321,4.073,9.9851,30.8505,-0.4185,0.2207,0.0509,0.1768
17:16:21:549,0.437,4.265,10.224,31.1772,-0.395,0.5009,-0.1334,0.1735
17:16:21:563,0.1811,4.3271,10.6481,30.7269,-0.5209,0.3347,-0.3752,0.1704
17:16:21:583,0.191,3.891,11.505,31.0973,-0.8009,-0.133,-0.6883,0.1676
17:16:21:602,-0.326,3.546,12.329,30.6327,-1.0002,-0.4632,-0.8588,0.1635
17:16:21:622,-0.831,2.996,12.717,30.6327,-0.9394,-0.5048,-0.7033,0.1569
17:16:21:645,-0.6491,2.162,12.434,29.8097,-0.671,-0.3354,-0.3156,0.1487
17:16:21:662,0.215,1.296,11.661,29.4315,-0.2608,0.0172,0.0434,0.1404
17:16:21:682,0.95,1.1981,10.5551,30.3049,0.128,0.2783,0.2277,0.1336
17:16:21:702,1.278,1.1861,9.3821,29.5088,0.3549,0.356,0.1979,0.1297
17:16:21:722,0.957,1.406,8.216,29.8264,0.3708,0.2559,0.0062,0.1286
17:16:21:743,0.0971,2.081,7.088,30.7556,0.2835,0.1578,-0.1046,0.1296
17:16:21:762,-0.089,2.198,6.011,30.4158,0.2153,0.2016,-0.0535,0.1315
17:16:21:791,0.159,2.21,5.508,30.9534,0.2057,0.2963,0.0201,0.1341
17:16:21:802,0.396,2.459,5.501,30.9534,0.2335,0.2229,0.0168,0.1371
17:16:21:821,0.353,2.943,5.814,29.8121,0.2366,-0.036,-0.0993,0.1401
17:16:21:842,0.2771,3.3551,6.315,29.3237,0.1909,-0.3598,-0.3262,0.1431
17:16:21:861,0.507,3.458,6.671,29.8121,0.0789,-0.5463,-0.616,0.1455
17:16:21:881,0.519,3.429,7.598,30.6728,-0.1128,-0.525,-0.8631,0.147
17:16:21:900,-0.285,3.774,8.924,29.8121,-0.3855,-0.4557,-0.9504,0.1473
17:16:21:921,-1.1591,4.121,10.169,30.0979,-0.5752,-0.247,-0.7928,0.1462
17:16:21:941,-1.401,3.975,10.823,29.8121,-0.542,0.1269,-0.5393,0.1435
17:16:21:960,-1.4411,4.0631,11.7761,29.4806,-0.3589,0.4604,-0.2974,0.14
17:16:21:982,-1.262,4.205,12.827,30.0761,-0.1522,0.3497,-0.1578,0.1369
17:16:22:001,-1.089,4.377,13.308,30.0761,0.0513,0.1226,-0.128,0.1349
17:16:22:021,-0.888,4.554,13.4951,28.998,0.2505,0.144,-0.093,0.1342
17:16:22:043,-0.543,4.193,13.4801,29.8617,0.3506,0.1312,-0.1163,0.1349
17:16:22:061,-0.6461,3.3311,12.8681,29.1322,0.341,0.159,-0.2868,0.1367
17:16:22:080,-1.6301,2.8331,11.649,29.8694,0.3634,0.4828,-0.3762,0.1394
17:16:22:100,-2.672,2.4881,10.401,28.4764,0.4976,0.8418,-0.1803,0.1427
17:16:22:119,-3.309,2.127,9.8081,30.6432,0.6084,0.7213,0.133,0.1473
17:16:22:140,-3.333,1.916,9.492,30.0837,0.5477,-0.004,0.3183,0.1532
17:16:22:160,-2.562,1.583,8.876,30.0837,0.3154,-0.6762,0.3289,0.1594
17:16:22:188,-1.9061,1.3961,8.1821,28.7123,0.0192,-0.7967,0.3215,0.164
17:16:22:199,-1.7171,1.332,7.686,28.7123,-0.1906,-0.4642,0.4184,0.1661
17:16:22:219,-1.616,1.415,7.1291,29.6331,-0.2662,0.0236,0.6496,0.1659
17:16:22:240,-1.281,1.4321,6.7931,28.6612,-0.2705,0.4284,0.9415,0.1643
17:16:22:259,-0.8831,1.916,6.798,28.6357,-0.2512,0.4625,1.1811,0.1624
17:16:22:279,-0.266,2.474,6.813,29.5743,-0.1841,0.2857,1.3186,0.1606
17:16:22:298,0.42,2.883,6.863,28.6542,-0.0712,0.0162,1.3207,0.159
17:16:22:318,1.1291,3.257,6.99,29.5742,0.0758,-0.2032,1.2078,0.1577
17:16:22:339,1.665,3.3401,7.337,29.1517,0.2398,-0.3119,0.9776,0.1567
17:16:22:359,1.773,3.4031,8.081,28.2186,0.2941,-0.5389,0.6091,0.1565
17:16:22:382,1.6751,3.4241,8.907,27.8144,0.1866,-0.8766,0.2214,0.1571
17:16:22:398,1.656,3.3671,9.6311,27.8144,0.0257,-1.0373,-0.0162,0.1578
17:16:22:418,2.06,2.9141,10.119,27.7886,-0.0851,-0.8797,-0.111,0.1576
17:16:22:439,2.022,3.0101,10.665,26.4627,-0.1246,-0.4482,-0.0716,0.1564
17:16:22:458,1.85,3.314,10.935,26.4627,-0.1372,-0.0616,-0.0353,0.1545
17:16:22:481,1.7801,3.4601,10.9211,26.4627,-0.1437,0.1781,-0.1323,0.1525
17:16:22:497,1.7201,3.453,10.935,26.4627,-0.2002,0.2314,-0.3602,0.1507
17:16:22:517,1.5431,3.386,11.3741,24.2055,-0.3439,0.0876,-0.6564,0.1491
17:16:22:539,0.9041,3.285,11.816,26.4627,-0.4942,-0.2064,-0.8992,0.1472
17:16:22:558,0.195,2.9861,11.594,26.4627,-0.4973,-0.2395,-0.943,0.1445
17:16:22:591,-0.0551,2.502,11.522,24.9944,-0.3759,-0.1085,-0.7224,0.1408
17:16:22:601,0.143,1.925,11.34,25.5291,-0.2971,-0.1458,-0.4051,0.137
17:16:22:617,0.806,1.7201,10.533,35.0207,-0.2608,-0.1958,-0.1302,0.1335
17:16:22:639,1.416,1.736,9.54,35.0086,-0.1948,-0.0136,0.0264,0.1302
17:16:22:656,1.632,1.8581,8.673,33.8562,-0.1363,0.1738,-0.0077,0.1269
17:16:22:677,1.4,2.2151,7.904,33.9429,-0.0979,0.2612,-0.1462,0.1242
17:16:22:695,1.024,2.438,7.445,33.9671,-0.0297,0.2559,-0.2826,0.1224
17:16:22:715,0.768,2.519,6.7961,34.9922,0.0949,0.1983,-0.3816,0.1215
17:16:22:737,0.7631,2.538,6.092,33.5648,0.2591,0.2442,-0.4625,0.1216
17:16:22:755,0.581,2.823,5.654,33.6091,0.3729,0.2292,-0.5446,0.123
17:16:22:782,0.207,3.017,5.472,34.1169,0.3762,0.1046,-0.6405,0.1258
17:16:22:795,-0.213,3.1541,6.039,33.8318,0.2515,-0.1915,-0.7715,0.1293
17:16:22:814,-0.3521,3.204,6.923,34.4741,0.0076,-0.5516,-0.862,0.1328
17:16:22:836,-0.855,3.635,8.474,32.9629,-0.3174,-0.7444,-0.8514,0.1349
17:16:22:854,-0.998,3.8981,10.011,33.8127,-0.5261,-0.5591,-0.6724,0.1349
17:16:22:878,-1.176,3.9581,11.189,32.4888,-0.4612,0.093,-0.3923,0.1327
17:16:22:894,-1.436,4.145,12.0701,32.5663,-0.2034,0.6553,-0.0748,0.1294
17:16:22:918,-1.164,4.26,12.927,32.5404,0.0991,0.7204,0.15,0.1271
17:16:22:938,-0.953,4.674,13.337,31.7736,0.3325,0.4509,0.2607,0.1268
17:16:22:954,-0.591,5.069,13.437,31.1979,0.4763,0.2772,0.2896,0.1286
17:16:22:991,0.0761,4.7981,13.5791,31.996,0.4848,0.143,0.1862,0.132
17:16:22:995,0.176,3.951,13.0211,31.5262,0.3591,0.1259,-0.1121,0.1361
17:16:23:014,-0.845,3.132,11.883,30.1108,0.3069,0.5275,-0.3443,0.1403
17:16:23:035,-2.0921,2.577,10.868,31.1835,0.4018,0.9259,-0.2431,0.1444
17:16:23:054,-2.799,2.177,10.2431,30.7646,0.4624,0.7875,0.0616,0.1492
17:16:23:078,-2.72,1.8821,9.719,31.025,0.406,0.1983,0.3044,0.1549
17:16:23:094,-2.0419,1.581,9.039,30.5919,0.2174,-0.314,0.3556,0.1605
17:16:23:113,-1.4531,1.514,8.484,30.6949,-0.0468,-0.4121,0.3385,0.1646
17:16:23:134,-1.1951,1.499,8.103,30.4025,-0.2236,-0.15,0.3917,0.1665
17:16:23:153,-0.9701,1.526,7.655,29.3544,-0.2758,0.2377,0.5591,0.1664
17:16:23:182,-0.668,1.5761,7.313,30.1415,-0.2427,0.5285,0.7871,0.165
17:16:23:193,-0.39,1.808,7.0811,30.5009,-0.1576,0.6372,0.9767,0.1634
17:16:23:213,-0.105,2.34,7.035,29.6468,-0.0297,0.5776,1.1087,0.162
17:16:23:233,0.3701,2.699,6.9161,29.3064,0.1588,0.3667,1.2195,0.1612
17:16:23:254,0.9761,2.775,6.576,30.6736,0.3953,0.1803,1.2195,0.1615
17:16:23:279,1.421,3.005,6.9371,30.677,0.5753,-0.1128,1.0321,0.1631
17:16:23:293,1.629,3.2831,7.43,30.0506,0.5775,-0.6379,0.705,0.166
17:16:23:317,1.862,3.249,7.998,28.9207,0.3569,-1.1566,0.2874,0.1696
17:16:23:336,2.283,3.003,8.376,28.929,0.015,-1.2909,-0.093,0.1727
17:16:23:352,2.424,2.4671,9.255,28.6155,-0.3481,-1.0267,-0.3039,0.1739
17:16:23:388,1.718,2.598,9.779,28.5132,-0.6603,-0.5431,-0.29,0.1726
17:16:23:391,0.7721,2.972,9.791,28.7321,-0.8202,0.0961,-0.1024,0.1688
17:16:23:411,0.26,3.362,10.1291,27.9926,-0.9053,0.4305,0.0403,0.163
17:16:23:432,0.449,3.7691,10.974,29.9723,-0.9916,0.2932,0.0147,0.1563
17:16:23:451,1.5101,3.326,12.152,29.8689,-1.1451,-0.1511,-0.3497,0.1492
17:16:23:478,1.5671,2.67,13.322,28.8994,-1.3197,-0.5441,-0.9333,0.1408
17:16:23:491,0.437,2.151,13.646,27.3445,-1.3698,-0.7083,-1.2295,0.1304
17:16:23:511,-0.285,1.667,13.248,28.3425,-1.1781,-0.4397,-0.9739,0.1181
17:16:23:530,-0.1601,1.356,12.159,29.2646,-0.737,0.062,-0.3528,0.1052
17:16:23:551,0.8681,1.0369,10.5911,29.1848,-0.2012,0.535,0.2171,0.0938
17:16:23:580,1.85,0.618,9.5951,28.2448,0.2324,0.7448,0.4258,0.0859
17:16:23:590,1.8311,0.69,9.207,28.0869,0.4326,0.3986,0.2021,0.082
17:16:23:610,0.995,1.2341,8.012,27.779,0.4487,-0.102,-0.2036,0.0817
17:16:23:630,0.566,1.3601,6.561,27.7333,0.3975,-0.1841,-0.5052,0.0833
17:16:23:650,0.2621,1.521,5.589,28.5007,0.3336,0.0546,-0.535,0.0857
17:16:23:680,0.1121,1.703,5.283,29.421,0.2665,0.2953,-0.4018,0.0888
17:16:23:690,0.2291,1.997,5.3381,27.4572,0.1898,0.3156,-0.3091,0.0924
17:16:23:710,0.2771,2.316,5.766,28.2787,0.113,0.2164,-0.3591,0.0961
17:16:23:730,0.2171,2.502,6.7931,28.2703,-0.001,-0.1361,-0.5404,0.0995
17:16:23:751,0.212,2.5931,7.6241,28.446,-0.1789,-0.4642,-0.7725,0.1017
17:16:23:790,-0.321,3.144,8.8931,27.2586,-0.4175,-0.5559,-0.9239,0.1023
17:16:23:793,-0.8831,3.431,10.2941,27.3394,-0.5943,-0.3161,-0.8247,0.1009
17:16:23:809,-1.379,3.5441,11.397,27.8251,-0.573,0.1601,-0.4668,0.0979
17:16:23:830,-1.4561,3.4601,12.5081,28.4341,-0.3631,0.5595,-0.1004,0.094
17:16:23:850,-1.283,3.7811,13.4801,28.3784,-0.116,0.5573,0.0989,0.0908
17:16:23:876,-0.929,4.277,13.935,27.5084,0.1471,0.3273,0.2075,0.0892
17:16:23:889,-0.1391,4.1351,14.498,27.4277,0.3805,0.0683,0.1969,0.0893
17:16:23:910,0.5021,3.4721,15.008,28.3402,0.4401,-0.3598,-0.0982,0.091
17:16:23:930,0.2291,2.5931,14.3141,28.2106,0.3634,-0.5016,-0.5637,0.0934
17:16:23:950,-0.9911,1.899,12.252,28.0857,0.3847,0.0844,-0.7033,0.0959
17:16:23:981,-2.4281,1.439,10.797,28.8397,0.5264,0.8801,-0.3549,0.0985
17:16:23:991,-3.144,1.226,10.445,28.5747,0.6372,0.8353,0.1435,0.1027
17:16:24:011,-2.921,1.083,9.944,29.587,0.6457,0.1226,0.5048,0.1088
17:16:24:033,-1.791,0.843,9.303,29.5484,0.5328,-0.5398,0.5494,0.1155
17:16:24:051,-0.977,1.128,8.529,29.5535,0.3367,-0.6955,0.4514,0.1211
17:16:24:083,-0.773,1.2101,7.689,29.3342,0.177,-0.3428,0.4419,0.1249
17:16:24:090,-0.809,1.274,7.181,28.4962,0.0641,0.1238,0.5303,0.127
17:16:24:112,-0.768,1.6931,7.148,28.4083,-0.0351,0.3421,0.7348,0.1283
17:16:24:136,-0.575,2.186,7.284,27.4001,-0.0914,0.274,0.9702,0.1292
17:16:24:150,-0.146,2.481,7.5281,28.2868,-0.0446,0.0759,1.0949,0.1298
17:16:24:192,1.1,2.543,7.308,27.5535,0.4007,0.0865,1.0117,0.1301
17:16:24:207,1.292,2.814,7.6481,27.5878,0.6051,0.1536,0.8189,0.1303
17:16:24:227,1.376,3.2111,8.3141,27.4622,0.6628,-0.1478,0.6017,0.1313
17:16:24:247,1.5911,3.2591,9.075,26.1453,0.6084,-0.6731,0.3535,0.1341
17:16:24:266,1.905,2.85,9.674,25.7901,0.5093,-1.0416,0.0509,0.1383
17:16:24:286,2.171,2.352,10.062,26.5248,0.4124,-1.0267,-0.241,0.1427
17:16:24:306,1.902,2.2751,9.959,27.6398,0.3464,-0.6038,-0.3347,0.1465
17:16:24:326,1.2341,2.646,9.726,27.3435,0.2676,0.0109,-0.257,0.1492
17:16:24:346,0.7151,3.288,9.654,26.5667,0.1173,0.47,-0.1174,0.1512
17:16:24:365,0.6551,3.5921,9.9611,26.1331,-0.1235,0.4509,-0.0535,0.1531
17:16:24:386,1.1771,3.407,10.7771,27.0906,-0.5016,-0.084,-0.2463,0.1551
17:16:24:405,1.4981,3.137,11.333,25.2626,-0.8467,-0.558,-0.6394,0.1567
17:16:24:426,0.7871,2.972,11.5271,26.9222,-0.9596,-0.5048,-0.8492,0.1562
17:16:24:445,0.423,2.622,11.448,26.8199,-0.8382,-0.2373,-0.5947,0.1525
17:16:24:465,0.9971,1.724,11.673,26.8401,-0.5666,-0.085,-0.1781,0.146
17:16:24:485,1.788,1.38,11.297,27.6651,-0.2844,-0.0989,0.0456,0.1381
17:16:24:505,2.139,1.614,10.322,26.7634,-0.0169,0.0162,0.0818,0.1304
17:16:24:525,2.063,1.755,9.128,27.4778,0.2057,0.1994,0.0062,0.1243
17:16:24:545,1.752,1.763,7.89,26.9743,0.3591,0.3347,-0.1067,0.12
17:16:24:564,1.208,2.06,6.884,26.0709,0.4465,0.3752,-0.1856,0.118
17:16:24:590,0.926,2.318,5.936,28.1024,0.5104,0.3475,-0.1888,0.1182
17:16:24:605,0.9881,2.5691,5.39,27.9511,0.5551,0.2505,-0.1951,0.1203
17:16:24:625,0.995,2.969,5.043,26.6865,0.5786,0.1056,-0.2793,0.1241
17:16:24:645,0.851,3.264,4.854,26.3944,0.538,-0.0542,-0.4679,0.129
17:16:24:664,0.713,3.3521,4.931,27.2206,0.358,-0.2384,-0.7363,0.1346
17:16:24:684,0.09,3.575,6.3791,28.385,-0.0308,-0.6581,-1.008,0.1404
17:16:24:704,-0.6011,4.214,7.7801,26.5542,-0.5581,-1.1791,-1.1187,0.1455
17:16:24:724,-0.452,4.14,9.317,26.4674,-0.9299,-1.0182,-0.9995,0.1488
17:16:24:744,-0.405,3.8381,10.311,26.1502,-0.9735,-0.2853,-0.7267,0.1485
17:16:24:764,-0.773,3.779,11.582,26.6564,-0.7637,0.4689,-0.4242,0.1444
17:16:24:784,-0.831,4.068,12.8411,27.2343,-0.4643,0.6201,-0.2069,0.1378
17:16:24:803,-0.5531,4.3511,13.4351,26.342,-0.1576,0.3827,-0.0887,0.1312
17:16:24:825,-0.0911,4.593,13.842,26.261,0.0758,-0.0147,-0.0887,0.1261
17:16:24:843,0.605,4.437,13.947,27.7344,0.1546,-0.3928,-0.2346,0.1231
17:16:24:863,0.851,3.489,13.1981,27.1323,0.0854,-0.3695,-0.5712,0.1219
17:16:24:883,-0.5051,2.754,11.702,27.8612,-0.0169,0.2025,-0.781,0.1217
17:16:24:902,-2.2961,2.565,10.4111,26.4776,-0.036,0.8716,-0.5094,0.1215
17:16:24:924,-3.141,2.297,10.289,27.0438,-0.018,0.862,0.0158,0.1217
17:16:24:944,-2.978,2.031,10.349,27.771,-0.0468,0.0982,0.4258,0.1227
17:16:24:962,-1.808,1.7771,10.014,27.8381,-0.1033,-0.6102,0.5378,0.1247
17:16:24:991,-0.788,1.794,9.384,28.6026,-0.1798,-0.6837,0.5207,0.1265
17:16:25:002,-0.6491,1.787,8.52,27.7676,-0.2034,-0.2353,0.591,0.1246
17:16:25:023,-0.7331,1.736,7.8731,27.7899,-0.1437,0.3358,0.7615,0.1219
17:16:25:042,-0.68,1.9661,7.584,28.6459,-0.0297,0.5968,0.9969,0.1195
17:16:25:061,-0.426,2.268,7.6031,27.813,0.1141,0.5147,1.1652,0.1184
17:16:25:082,0.0011,2.567,7.569,27.9075,0.3037,0.1792,1.2121,0.1186
17:16:25:102,0.552,2.682,7.188,27.6167,0.5669,-0.0627,1.147,0.1201
17:16:25:121,0.878,2.9621,7.193,28.5283,0.8203,-0.1361,0.9872,0.1228
17:16:25:141,0.818,3.539,8.3351,28.3488,0.9664,-0.4153,0.7871,0.1268
17:16:25:161,1.2221,3.7121,9.197,27.8784,1.0175,-1.0682,0.5526,0.1323
17:16:25:181,2.396,2.9141,9.231,28.5464,1.0345,-1.2728,0.2225,0.1386
17:16:25:201,2.9801,2.4761,9.305,28.8764,0.9844,-1.0256,-0.0896,0.1447
17:16:25:223,2.738,2.795,9.396,28.712,0.8203,-0.3556,-0.1888,0.1507
17:16:25:240,2.228,3.161,9.674,29.0259,0.5158,0.2846,-0.0972,0.1568
17:16:25:260,1.7201,3.3521,9.48,29.0157,0.1631,0.5776,0.0093,0.1628
17:16:25:280,1.4711,3.63,9.156,29.5404,-0.0766,0.7374,0.0531,0.1677
17:16:25:300,1.455,4.121,9.24,29.5871,-0.2864,0.6937,0.0019,0.1711
17:16:25:322,1.871,4.226,9.743,29.5197,-0.6017,0.3411,-0.242,0.1729
17:16:25:343,1.785,3.8891,10.397,29.4086,-1.0278,-0.1554,-0.6991,0.1729
17:16:25:360,1.0211,3.407,10.8641,29.4425,-1.3271,-0.4493,-1.0197,0.1696
17:16:25:389,0.557,2.859,10.4921,30.305,-1.4209,-0.4377,-0.895,0.1625
17:16:25:400,0.827,2.225,10.275,30.1098,-1.3219,-0.2416,-0.5115,0.1524
17:16:25:420,1.44,1.775,9.54,29.9981,-1.0556,-0.0733,-0.1706,0.1407
17:16:25:442,1.917,1.451,8.838,29.13,-0.7615,0.1909,-0.0396,0.1288
17:16:25:460,1.883,1.202,8.898,29.0225,-0.5644,0.2153,-0.1888,0.1183
17:16:25:480,1.266,1.368,8.96,29.9949,-0.4558,-0.2234,-0.4316,0.1097
17:16:25:500,0.7391,1.6811,8.22,29.969,-0.3237,-0.5324,-0.518,0.1027
17:16:25:526,0.7361,1.806,7.394,29.2732,-0.1448,-0.3556,-0.4722,0.0964
17:16:25:540,0.7721,2.105,6.5951,29.2653,0.0587,0.176,-0.3465,0.0915
17:16:25:559,0.768,2.411,6.621,29.2615,0.2409,0.65,-0.2516,0.089
17:16:25:581,0.645,2.649,6.93,29.9852,0.3356,0.7267,-0.2846,0.0893
17:16:25:599,0.2741,2.957,7.799,30.0441,0.2963,0.4646,-0.4434,0.092
17:16:25:620,-0.1151,3.168,8.168,29.9817,0.1354,0.0172,-0.6511,0.0962
17:16:25:640,-0.486,3.3431,8.421,29.9516,-0.0872,-0.0466,-0.747,0.0998
17:16:25:659,-0.95,3.573,9.3701,30.0101,-0.2875,0.1983,-0.6468,0.1024
17:16:25:681,-1.511,3.8051,10.89,30.8772,-0.3642,0.371,-0.4221,0.1036
17:16:25:699,-1.7,3.963,11.907,30.1479,-0.3024,0.3602,-0.1675,0.1039
17:16:25:720,-1.434,3.956,12.563,30.1344,-0.1383,0.3602,0.0307,0.1036
17:16:25:739,-1.013,3.975,12.944,30.0669,0.1067,0.4498,0.1372,0.1033
17:16:25:759,-1.068,4.413,12.9611,29.3063,0.3879,0.6724,0.2043,0.1041
17:16:25:792,-0.891,4.518,13.143,30.9863,0.6116,0.8045,0.3226,0.1067
17:16:25:798,-0.642,3.836,13.248,31.0127,0.6233,0.5126,0.2182,0.1114
17:16:25:819,-1.269,2.9771,12.518,30.3563,0.439,0.1856,-0.1899,0.1177
17:16:25:838,-2.5451,2.574,11.309,30.2325,0.3112,0.3752,-0.3932,0.1238
17:16:25:858,-3.462,2.1461,10.653,28.8387,0.3101,0.649,-0.0663,0.1291
17:16:25:879,-3.6341,1.674,10.3781,30.5515,0.3123,0.4646,0.4429,0.1342
17:16:25:897,-3.002,1.3271,9.887,30.4291,0.2782,0.0503,0.803,0.1392
17:16:25:919,-1.98,1.126,9.14,28.9401,0.1642,-0.2118,0.919,0.1435
17:16:25:939,-1.317,1.289,8.2901,28.8948,-0.0095,-0.1532,0.9648,0.1464
17:16:25:957,-0.855,1.353,7.584,29.4956,-0.1639,0.1643,1.0491,0.1478
17:16:25:982,-0.474,1.478,7.097,28.8018,-0.2395,0.5147,1.1748,0.1479
17:16:25:997,-0.2471,1.76,6.834,29.4472,-0.23,0.6735,1.3218,0.1471
17:16:26:017,0.143,2.139,6.947,29.4077,-0.1266,0.5925,1.4293,0.1461
17:16:26:036,0.677,2.529,6.918,27.9385,0.0758,0.307,1.4719,0.1454
17:16:26:056,1.3181,2.684,6.789,29.2584,0.3378,0.0971,1.3761,0.1453
17:16:26:082,1.644,2.874,7.512,28.6086,0.5488,-0.1756,1.0842,0.1463
17:16:26:097,1.665,3.075,8.532,28.5038,0.6212,-0.6656,0.689,0.1486
17:16:26:119,1.7591,3.113,9.2591,28.9258,0.5477,-1.0438,0.2885,0.1519
17:16:26:136,2.151,2.6891,9.434,29.0292,0.3942,-0.8733,0.0253,0.1551
17:16:26:157,2.156,2.402,9.5321,29.1367,0.2227,-0.2864,-0.0566,0.1578
17:16:26:191,1.742,2.483,9.7691,28.6376,0.0076,0.225,-0.0088,0.1598
17:16:26:196,1.3421,2.862,9.779,28.654,-0.1959,0.4433,0.0392,0.1611
17:16:26:216,1.0451,3.4361,9.815,28.6655,-0.3492,0.5083,0.0221,0.1616
17:16:26:236,1.007,4.0061,10.1741,29.3027,-0.4973,0.3582,-0.0705,0.161
17:16:26:256,1.359,3.999,10.7771,26.7809,-0.6284,0.1184,-0.3091,0.1593
17:16:26:282,0.995,3.788,11.457,27.4146,-0.736,-0.0551,-0.7011,0.1563
17:16:26:295,0.083,3.5771,11.9621,27.516,-0.7285,-0.2064,-0.9228,0.1519
17:16:26:316,-0.227,2.9171,12.053,25.9147,-0.6007,-0.2757,-0.7491,0.1462
17:16:26:336,0.054,2.16,11.6681,26.8084,-0.4313,-0.3556,-0.4029,0.1398
17:16:26:355,1.112,1.499,10.4921,27.0035,-0.1841,-0.1841,-0.0972,0.1337
17:16:26:381,2.0411,1.131,10.0781,25.0104,0.065,0.0257,-0.0216,0.1286
17:16:26:395,1.977,1.289,9.954,26.4129,0.1567,-0.2949,-0.2388,0.1252
17:16:26:415,1.697,1.497,9.056,26.6084,0.1546,-0.5804,-0.5296,0.1234
17:16:26:434,1.44,1.605,7.871,26.5238,0.2387,-0.3545,-0.6628,0.1223
17:16:26:454,1.218,1.8491,6.791,25.7693,0.3634,0.1312,-0.6394,0.1218
17:16:26:479,1.3211,2.0951,6.063,25.3981,0.4529,0.5211,-0.584,0.1227
17:16:26:494,1.244,2.4071,5.453,24.7784,0.4965,0.5999,-0.6095,0.1255
17:16:26:514,0.909,2.771,4.991,25.8168,0.4911,0.5126,-0.7215,0.1299
17:16:26:534,0.3731,3.1991,4.9069,24.7087,0.3921,0.29,-0.8918,0.1354
17:16:26:553,-0.263,3.573,6.03,25.2604,0.1332,-0.1691,-1.0953,0.141
17:16:26:591,-0.927,4.226,7.296,25.8372,-0.2768,-0.8553,-1.2136,0.1456
17:16:26:596,-1.271,4.298,8.7521,25.7183,-0.622,-1.0438,-1.1209,0.1472
17:16:26:613,-1.35,4.1351,10.2701,25.1949,-0.7487,-0.6528,-0.927,0.1453
17:16:26:634,-1.8671,4.461,11.247,24.3873,-0.6252,0.1291,-0.5925,0.1406
17:16:26:654,-2.0231,4.37,12.413,25.2325,-0.3844,0.7193,-0.2772,0.1352
17:16:26:678,-2.073,4.6121,13.152,24.7196,-0.1713,0.7278,-0.095,0.1313
17:16:26:693,-1.8581,4.856,13.538,23.7567,0.03,0.5083,0.003,0.1294
17:16:26:713,-1.3931,4.832,13.868,22.7163,0.0991,0.0844,-0.0759,0.1294
17:16:26:733,-0.9191,4.0661,13.6121,22.687,-0.0084,-0.2395,-0.3932,0.1304
17:16:26:754,-1.46,2.9291,12.4871,23.494,-0.082,0.0865,-0.7054,0.131
17:16:26:782,-2.8751,2.306,10.902,23.5316,0.0342,0.7917,-0.5862,0.131
17:16:26:793,-3.95,1.782,10.016,21.731,0.2046,1.2264,-0.1057,0.1317
17:16:26:814,-4.4051,1.49,9.8291,22.5173,0.2941,0.8481,0.3897,0.1343
17:16:26:833,-4.065,1.166,9.8921,21.8598,0.2771,0.0012,0.6187,0.1386
17:16:26:852,-2.8871,0.795,9.329,21.9844,0.1621,-0.623,0.5335,0.1428
17:16:26:879,-2.2151,0.807,8.582,21.7631,0.0033,-0.5824,0.4462,0.1454
17:16:26:892,-2.0591,0.795,7.859,21.0921,-0.1042,-0.1606,0.5494,0.1459
17:16:26:911,-1.889,1.052,7.284,21.6754,-0.1479,0.3591,0.8243,0.1453
17:16:26:934,-1.3961,1.4351,7.1411,21.659,-0.1458,0.6127,1.1715,0.1444
17:16:26:951,-0.7661,1.767,7.1021,22.1384,-0.1053,0.5819,1.3793,0.144
17:16:26:991,-0.201,2.1911,7.076,21.6697,-0.0115,0.4029,1.4006,0.1439
17:16:27:000,0.353,2.4641,6.923,21.455,0.1525,0.2218,1.3101,0.1442
17:16:27:016,0.7601,2.696,6.947,21.2755,0.3314,0.0993,1.112,0.145
17:16:27:032,0.878,2.988,7.452,21.1455,0.4113,-0.1691,0.8434,0.1467
17:16:27:052,0.705,3.3641,8.1251,20.3919,0.3805,-0.5995,0.558,0.1492
17:16:27:081,0.9761,3.173,8.594,20.9931,0.3143,-0.8339,0.3076,0.1518
17:16:27:091,1.299,2.8181,9.554,20.4613,0.2153,-0.9096,0.0562,0.1539
17:16:27:111,1.335,2.763,10.461,20.5584,0.0982,-0.901,-0.1195,0.155
17:16:27:137,1.184,3.048,10.866,21.916,-0.0137,-0.6528,-0.2122,0.155
17:16:27:151,0.9761,3.1661,10.751,21.3773,-0.0925,-0.1137,-0.2622,0.154
17:16:27:181,0.42,3.683,10.586,21.4443,-0.1639,0.3464,-0.2559,0.1527
17:16:27:191,0.0971,4.2791,10.914,21.4418,-0.2716,0.5147,-0.2005,0.1515
17:16:27:211,0.375,4.221,11.5391,21.4125,-0.5112,0.2452,-0.3113,0.1508
17:16:27:231,0.282,3.846,12.5471,21.4544,-0.752,-0.2023,-0.6436,0.1495
17:16:27:252,-0.309,3.333,12.8081,20.9846,-0.7828,-0.5431,-0.877,0.1462
17:16:27:280,-0.515,2.795,12.4631,21.7991,-0.6358,-0.5431,-0.682,0.1407
17:16:27:291,0.147,2.093,11.5751,21.4055,-0.3216,-0.3129,-0.2793,0.1341
17:16:27:311,1.1651,1.6841,10.526,21.4515,0.0693,0.0961,0.0136,0.1279
17:16:27:330,1.553,1.533,9.59,21.9814,0.3868,0.2366,0.0201,0.1238
17:16:27:351,1.292,1.32,8.649,22.7489,0.5445,0.0652,-0.258,0.1225
17:16:27:390,0.234,1.6481,7.6841,23.1597,0.5147,-0.33,-0.5968,0.1237
17:16:27:393,-0.3851,2.036,6.4871,22.7419,0.4263,-0.4334,-0.665,0.1262
17:16:27:411,-0.335,1.9331,5.8931,22.6875,0.3953,-0.2618,-0.5243,0.129
17:16:27:431,-0.1121,2.141,5.618,22.608,0.3645,-0.1543,-0.404,0.1321
17:16:27:451,0.042,2.6531,5.58,22.5533,0.3026,-0.1532,-0.3847,0.1355
17:16:27:479,0.102,3.005,5.678,22.9659,0.2217,-0.2001,-0.5285,0.139
17:16:27:495,0.068,3.1871,6.0371,22.6682,0.0864,-0.2885,-0.7608,0.1419
17:16:27:511,-0.3041,3.326,6.9611,23.222,-0.1341,-0.4642,-0.9941,0.144
17:16:27:532,-0.848,3.527,8.187,23.8753,-0.4078,-0.6304,-1.1507,0.1447
17:16:27:551,-1.403,3.776,9.2471,22.6789,-0.605,-0.3417,-1.1007,0.1435
17:16:27:583,-2.133,3.932,10.311,23.5929,-0.6528,0.2815,-0.8301,0.1406
17:16:27:590,-2.7341,4.217,11.33,23.5785,-0.5357,0.7384,-0.4082,0.1368
17:16:27:613,-2.5811,4.257,12.171,23.1347,-0.296,0.7693,0.0008,0.1336
17:16:27:630,-2.1521,4.415,12.81,23.0485,-0.0115,0.5595,0.1723,0.1318
17:16:27:650,-1.571,4.839,13.4681,23.0098,0.21,0.2442,0.1511,0.1315
17:16:27:681,-0.9071,4.688,13.832,23.0046,0.2153,-0.1489,-0.0472,0.1328
17:16:27:693,-0.663,3.587,13.524,23.9143,0.0587,-0.2512,-0.4423,0.1347
17:16:27:713,-1.614,2.5361,12.197,23.6627,0.0022,0.3293,-0.665,0.1359
17:16:27:730,-3.134,2.222,10.751,23.8898,0.1067,1.0709,-0.3677,0.1368
17:16:27:750,-3.8711,1.9301,10.0571,24.2154,0.258,1.1741,0.2299,0.1388
17:16:27:793,-2.933,1.37,8.6321,24.1912,0.2207,-0.2938,0.6868,0.1476
17:16:27:810,-2.183,1.155,7.4591,24.1437,-0.018,-0.5793,0.5643,0.1513
17:16:27:827,-2.27,1.305,6.4511,24.1032,-0.3151,-0.3706,0.5686,0.153
17:16:27:846,-2.4011,1.296,5.771,24.9669,-0.573,0.0375,0.7913,0.1523
17:16:27:866,-2.246,1.4231,5.534,25.462,-0.8074,0.274,1.1172,0.1498
17:16:27:886,-1.757,1.676,5.8961,25.7793,-1.0098,0.1567,1.4198,0.1459
17:16:27:907,-1.1059,2.048,6.8171,24.8301,-1.1514,-0.231,1.5859,0.1404
17:16:27:926,-0.225,2.273,7.466,25.3229,-1.0886,-0.6379,1.6137,0.1328
17:16:27:946,0.765,2.064,8.4191,25.8996,-0.7861,-0.7359,1.4582,0.1232
17:16:27:966,1.3211,1.866,9.171,26.4409,-0.3131,-0.5611,1.1588,0.1129
17:16:27:987,1.2731,1.643,10.847,26.3708,0.1898,-0.4834,0.8062,0.1038
17:16:28:007,1.103,1.76,11.9651,26.2403,0.6244,-0.7945,0.4983,0.0976
17:16:28:026,1.388,1.842,12.401,26.7919,0.978,-0.8744,0.2533,0.0948
17:16:28:045,1.766,1.959,12.336,26.8216,1.2156,-0.7882,0.0168,0.0953
17:16:28:065,2.082,1.9901,11.742,27.6512,1.3189,-0.6028,-0.242,0.0988
17:16:28:085,1.6151,2.526,10.682,27.7402,1.2816,-0.2362,-0.5191,0.105
17:16:28:105,0.693,3.24,9.5831,27.1423,1.0548,0.1803,-0.6937,0.1134
17:16:28:125,0.1811,3.647,9.188,28.1544,0.5838,0.3284,-0.78,0.1231
17:16:28:145,-0.072,4.097,9.5201,28.9677,-0.1192,0.1653,-0.8748,0.1329
17:16:28:164,-0.074,3.8531,9.875,28.5227,-0.884,0.1195,-0.991,0.1402
17:16:28:192,-0.45,3.1631,10.983,29.4597,-1.3729,0.373,-0.9962,0.1428
17:16:28:207,-0.6611,2.589,11.567,29.4013,-1.504,0.4359,-0.6713,0.1404
17:16:28:227,0.215,1.4681,11.546,29.3266,-1.357,0.4008,-0.128,0.1338
17:16:28:244,1.433,0.743,10.868,30.2435,-1.0183,0.3486,0.2853,0.1246
17:16:28:263,2.408,0.6161,10.184,30.1844,-0.6187,0.4125,0.477,0.1148
17:16:28:285,2.556,0.75,9.786,29.9155,-0.2875,0.3677,0.3737,0.1062
17:16:28:308,1.965,1.236,8.781,29.9119,-0.0446,0.2442,0.1148,0.0999
17:16:28:325,1.3091,1.53,7.4231,30.8213,0.1684,0.2783,-0.0631,0.0958
17:16:28:344,0.959,1.739,6.4391,30.8197,0.3399,0.3869,-0.0993,0.094
17:16:28:363,0.825,2.0741,5.948,30.8182,0.4379,0.3688,-0.0822,0.0946
17:16:28:384,0.863,2.4641,5.6081,30.9274,0.4646,0.2366,-0.128,0.0972
17:16:28:405,0.65,2.84,5.517,30.9415,0.4326,0.1013,-0.2889,0.1011
17:16:28:426,0.267,3.027,5.5721,31.7648,0.3143,-0.0659,-0.5158,0.1056
17:16:28:443,-0.218,2.9741,6.269,31.6229,0.0661,-0.2874,-0.7374,0.1097
17:16:28:462,-0.9461,3.2711,7.4111,31.1878,-0.2949,-0.5048,-0.8162,0.1127
17:16:28:483,-1.329,3.3431,8.5961,31.7738,-0.6209,-0.3812,-0.6991,0.1133
17:16:28:503,-1.757,3.41,10.452,33.0697,-0.7839,-0.1052,-0.5532,0.1112
17:16:28:523,-2.172,3.453,11.9531,33.0208,-0.6742,0.2047,-0.3486,0.1071
17:16:28:542,-2.306,3.369,12.9131,32.9889,-0.3503,0.485,-0.111,0.1022
17:16:28:561,-2.1041,3.1781,13.425,33.9306,0.0715,0.7107,0.052,0.0983
17:16:28:593,-2.1281,3.68,13.6001,33.8939,0.4027,0.7118,0.1426,0.0967
17:16:28:604,-1.8431,4.023,14.0501,33.7653,0.5818,0.5307,0.2299,0.0983
17:16:28:622,-1.446,3.573,14.175,34.2783,0.521,0.1195,0.0551,0.1024
17:16:28:641,-1.518,2.546,13.155,34.6988,0.3006,0.0066,-0.3295,0.1075
17:16:28:661,-2.3771,1.892,11.661,34.7301,0.2142,0.5819,-0.3975,0.112
17:16:28:681,-3.5411,1.7081,10.641,35.1699,0.2941,1.1763,-0.0173,0.116
17:16:28:703,-3.9071,1.3601,10.1861,35.2175,0.3953,1.0345,0.4707,0.1207
17:16:28:724,-3.467,0.9371,9.707,35.8284,0.389,0.3198,0.7103,0.1265
17:16:28:742,-2.634,0.767,9.0851,34.7219,0.1961,-0.4877,0.6677,0.1324
17:16:28:761,-1.7411,0.575,8.5961,35.5328,-0.1415,-0.8456,0.5367,0.1367
17:16:28:783,-1.496,0.5201,8.213,36.6364,-0.3748,-0.6251,0.5175,0.138
17:16:28:803,-1.5041,0.6011,7.584,36.5657,-0.4206,-0.0115,0.6996,0.1362
17:16:28:821,-1.367,0.975,7.191,36.2682,-0.3524,0.634,1.0619,0.1329
17:16:28:841,-0.783,1.535,7.1291,37.7582,-0.2045,0.8353,1.4497,0.1298
17:16:28:860,0.0611,1.9691,7.0691,37.0568,0.0203,0.7224,1.635,0.1278
17:16:28:881,0.693,2.517,7.0901,37.7194,0.3037,0.3943,1.5711,0.1274
17:16:28:902,1.041,2.9171,7.0691,38.2707,0.6031,0.0151,1.3101,0.1288
17:16:28:923,1.182,3.137,6.992,38.7628,0.765,-0.3748,0.9085,0.1318
17:16:28:940,0.945,3.324,7.6511,38.5598,0.7128,-0.7839,0.4557,0.1364
17:16:28:960,0.8921,3.1151,8.649,38.6388,0.5605,-1.2909,0.0434,0.1415
17:16:28:989,1.0841,2.804,9.489,39.8542,0.3805,-1.5902,-0.2857,0.1459
17:16:28:999,1.227,2.751,10.1171,39.8439,0.2131,-1.3996,-0.4604,0.1487
17:16:29:019,1.079,2.862,10.643,39.7269,0.0534,-0.7817,-0.4604,0.1498
17:16:29:039,0.5689,3.0461,10.727,39.8493,-0.115,-0.0744,-0.3677,0.1495
17:16:29:060,0.2051,3.395,10.811,41.207,-0.2918,0.3028,-0.307,0.1486
17:16:29:079,0.198,3.831,11.2661,41.1778,-0.4547,0.2548,-0.3048,0.1473
17:16:29:101,0.732,3.606,11.891,41.1107,-0.6539,-0.0764,-0.4977,0.1455
17:16:29:120,0.365,3.185,12.7091,41.8863,-0.8478,-0.428,-0.8716,0.1424
17:16:29:138,-0.5,2.7731,12.939,42.6448,-0.8851,-0.542,-0.958,0.1373
17:16:29:159,-0.512,1.983,12.5921,42.5297,-0.7381,-0.3129,-0.6138,0.1303
17:16:29:182,0.308,1.37,11.778,43.203,-0.4132,0.0652,-0.1195,0.1226
17:16:29:199,1.3451,1.073,11.0171,43.1146,-0.0243,0.2953,0.1745,0.1158
17:16:29:219,1.62,1.023,10.3181,43.7387,0.2153,0.2527,0.0019,0.1114
17:16:29:239,0.933,1.3721,9.3071,43.7531,0.3048,0.0631,-0.3443,0.1097
17:16:29:258,0.282,1.4201,8.055,43.7913,0.3921,0.078,-0.5478,0.1098
17:16:29:281,-0.215,1.545,7.052,44.6301,0.5306,0.356,-0.5285,0.1111
17:16:29:300,-0.4121,1.686,6.329,44.1879,0.6681,0.5296,-0.4029,0.1138
17:16:29:318,-0.338,2.0741,5.8331,44.8549,0.7267,0.4636,-0.3198,0.1186
17:16:29:339,-0.2539,2.7611,5.5961,44.8035,0.6969,0.2676,-0.3411,0.1251
17:16:29:381,-0.2471,3.257,5.565,45.746,0.5892,0.047,-0.4722,0.1326
17:16:29:392,-0.2801,3.486,5.4791,46.3822,0.4146,-0.0722,-0.6926,0.1399
17:16:29:396,-0.503,3.5801,5.984,46.2553,0.1781,-0.1094,-0.8961,0.1461
17:16:29:416,-1.0031,3.8171,7.325,47.4254,-0.1448,-0.3109,-0.9632,0.1507
17:16:29:436,-1.7861,4.274,8.8211,46.8795,-0.492,-0.5207,-0.8812,0.1531
17:16:29:457,-2.126,4.308,10.248,48.052,-0.622,-0.3726,-0.6969,0.1528
17:16:29:478,-2.612,4.6451,10.433,48.4896,-0.4451,0.2303,-0.3145,0.15
17:16:29:497,-2.442,4.5971,10.701,48.3522,-0.1576,0.9728,0.0786,0.1465
17:16:29:516,-2.339,4.983,11.7041,49.045,0.0278,1.2008,0.2799,0.1446
17:16:29:536,-2.2819,5.421,12.8051,49.3493,0.0331,0.8961,0.2447,0.1455
17:16:29:557,-1.671,4.7891,13.4111,49.5856,-0.0777,0.3997,-0.0566,0.1482
17:16:29:584,-1.494,3.2351,13.337,49.808,-0.1554,0.1195,-0.5265,0.1508
17:16:29:598,-2.868,2.627,12.47,49.805,-0.0766,0.2996,-0.7118,0.1521
17:16:29:616,-4.173,2.2751,11.211,51.4814,0.111,0.7352,-0.4168,0.1526
17:16:29:635,-4.616,1.7081,10.545,51.6866,0.2611,0.8907,0.0839,0.1537
17:16:29:655,-4.551,1.547,9.8891,51.4428,0.2302,0.5563,0.4514,0.1566
17:16:29:679,-3.852,1.415,9.116,52.9722,0.0439,0.1078,0.6304,0.1604
17:16:29:695,-3.141,1.2,8.177,53.1638,-0.1821,-0.0648,0.6868,0.1636
17:16:29:715,-2.918,1.1711,7.586,53.397,-0.3685,0.0674,0.7487,0.1651
17:16:29:735,-2.8781,1.368,7.2911,54.1121,-0.4771,0.2324,0.9276,0.1648
17:16:29:755,-2.442,1.5641,7.346,54.1382,-0.492,0.2622,1.1769,0.1632
17:16:29:791,-1.578,1.758,7.521,54.442,-0.3972,0.1567,1.3687,0.1608
17:16:29:798,-0.9341,2.127,7.713,54.3462,-0.2108,-0.052,1.4656,0.158
17:16:29:815,-0.282,2.4641,7.653,55.2231,0.0683,-0.2043,1.4827,0.1554
17:16:29:835,0.423,2.4641,7.631,54.7982,0.4155,-0.1276,1.3613,0.1536
17:16:29:855,0.485,2.799,7.794,56.1831,0.6179,-0.1937,1.1012,0.1537
17:16:29:878,0.234,3.2111,8.309,57.059,0.5903,-0.4812,0.8104,0.156
17:16:29:895,0.15,3.1751,8.979,56.7482,0.4507,-0.7721,0.5474,0.1595
17:16:29:915,0.5741,2.708,9.5111,57.8632,0.3645,-0.6986,0.4056,0.163
17:16:29:934,0.7391,2.4641,10.196,58.16,0.3101,-0.5367,0.2512,0.1657
17:16:29:954,0.6191,2.766,10.485,58.3391,0.1408,-0.4397,0.0318,0.1677
17:16:29:981,0.303,3.3191,10.557,59.5026,-0.0755,-0.2384,-0.1675,0.1691
17:16:29:997,0.0401,3.4841,10.5401,59.498,-0.2204,0.0375,-0.2868,0.1693
17:16:30:014,-0.074,3.6611,10.646,59.1901,-0.3333,0.0694,-0.388,0.1685
17:16:30:033,0.095,3.6041,10.8611,60.0583,-0.5474,-0.0403,-0.5989,0.1669
17:16:30:054,-0.263,3.467,11.3471,60.6461,-0.7861,-0.0318,-0.8737,0.1642
17:16:30:086,-1.0631,3.158,11.6231,61.2272,-0.7998,0.1578,-0.8898,0.1597
17:16:30:094,-1.056,2.4521,11.397,60.711,-0.6071,0.3475,-0.5371,0.1539
17:16:30:113,-0.294,1.451,11.393,60.3342,-0.3535,0.1419,-0.1345,0.1481
17:16:30:134,0.645,1.3481,10.868,61.3831,-0.1309,-0.2001,0.0414,0.1432
17:16:30:153,1.28,1.6211,9.7931,61.6934,-0.0063,-0.2896,0.0062,0.1394
17:16:30:191,1.404,1.892,8.577,62.6267,0.0268,-0.1106,-0.1291,0.1366
17:16:30:197,1.3421,2.1341,7.545,62.6153,0.0672,0.1525,-0.2303,0.1346
17:16:30:213,1.254,2.249,6.755,63.4112,0.1673,0.2889,-0.3262,0.1336
17:16:30:233,1.0931,2.3951,6.111,62.7051,0.2824,0.176,-0.4785,0.1338
17:16:30:253,0.794,2.7371,5.532,62.6961,0.3517,-0.0679,-0.6416,0.1352
17:16:30:278,0.5591,3.0101,5,63.7174,0.3602,-0.2523,-0.7853,0.1374
17:16:30:295,0.3221,3.1661,5.0891,64.1512,0.2643,-0.413,-0.9728,0.1402
17:16:30:312,-0.0551,3.125,5.6921,65.4695,0.0864,-0.6017,-1.1997,0.1426
17:16:30:333,-0.7781,2.981,6.959,64.5744,-0.165,-0.7945,-1.3893,0.144
17:16:30:352,-1.743,3.101,8.256,65.9232,-0.4569,-0.9318,-1.4629,0.1437
17:16:30:381,-2.4851,3.288,9.5831,66.7049,-0.7072,-0.7668,-1.3424,0.1411
17:16:30:393,-3.141,3.422,11.096,66.5117,-0.8074,-0.2225,-1.0175,0.1363
17:16:30:412,-3.608,3.594,12.4751,66.5731,-0.7147,0.2601,-0.5595,0.13
17:16:30:432,-3.582,3.6371,13.409,67.6407,-0.4451,0.5211,-0.1174,0.1237
17:16:30:451,-3.3611,3.803,13.875,68.0619,-0.0905,0.5723,0.1458,0.1188
17:16:30:481,-3.021,4.1711,14.3591,68.2857,0.1833,0.3912,0.2214,0.1162
17:16:30:495,-2.186,3.767,14.5841,68.7849,0.2131,-0.067,0.052,0.116
17:16:30:513,-2.0021,2.787,13.8281,68.2364,0.0991,-0.3002,-0.3326,0.1171
17:16:30:531,-3.062,2.115,12.216,67.7213,0.1034,0.1919,-0.4753,0.118
17:16:30:551,-4.185,1.851,10.749,68.0022,0.2463,0.846,-0.1121,0.1187
17:16:30:590,-4.542,1.5161,10.1141,67.9794,0.3794,0.8268,0.4173,0.1207
17:16:30:593,-3.977,1.236,9.755,67.8511,0.4007,0.1888,0.6933,0.1247
17:16:30:610,-2.792,0.9731,9.2141,68.3117,0.2611,-0.461,0.6282,0.1293
17:16:30:632,-2.013,0.858,8.805,68.8424,0.0374,-0.6091,0.4547,0.133
17:16:30:650,-1.7531,0.867,8.18,68.7884,-0.1096,-0.3886,0.4642,0.1346
17:16:30:682,-1.3931,0.858,7.3751,67.8579,-0.1458,0.1099,0.6623,0.1342
17:16:30:694,-0.986,0.975,6.939,68.979,-0.1203,0.5595,0.9446,0.1331
17:16:30:712,-0.6941,1.5161,6.839,68.2867,-0.0499,0.6053,1.2419,0.1323
17:16:30:732,-0.215,1.9181,6.851,68.1881,0.1013,0.406,1.4613,0.1322
17:16:30:751,0.468,2.1431,6.659,68.5608,0.3219,0.1291,1.4688,0.1329
17:16:30:782,1.067,2.574,6.872,67.97,0.5391,-0.1063,1.294,0.1346
17:16:30:793,1.488,2.84,7.469,67.8798,0.6468,-0.4505,0.9724,0.1375
17:16:30:811,1.5311,2.8541,8.4311,68.4451,0.5988,-0.8786,0.5057,0.1412
17:16:30:831,1.448,2.8331,8.936,68.45,0.422,-1.1694,0.0659,0.145
17:16:30:850,1.337,2.6081,9.245,68.5492,0.1994,-0.9585,-0.1717,0.1478
17:16:30:881,1.0931,2.486,9.911,67.9015,0.0076,-0.5398,-0.161,0.1492
17:16:30:893,0.7271,2.4641,10.5161,67.8433,-0.1213,-0.3087,-0.0887,0.1493
17:16:30:911,0.533,2.634,10.337,68.463,-0.1991,-0.1596,-0.1781,0.1483
17:16:30:930,0.253,3.02,10.1501,68.5469,-0.2438,0.0396,-0.3145,0.1464
17:16:30:951,0.047,3.348,10.248,68.5378,-0.3813,0.0342,-0.4551,0.1442
17:16:30:994,-0.18,2.936,11.912,68.838,-1.2037,-0.33,-1.0442,0.1387
17:16:31:008,-1.104,2.646,12.879,68.8493,-1.5019,-0.3322,-1.0069,0.1325
17:16:31:027,-1.3001,2.04,13.064,68.1148,-1.4539,-0.1446,-0.5489,0.1229
17:16:31:047,-0.6371,1.449,13.083,68.1397,-1.1099,0.1024,0.0414,0.1112
17:16:31:068,0.449,1.1111,12.063,68.1037,-0.573,0.3048,0.4227,0.0993
17:16:31:088,1.206,0.963,10.662,67.2322,-0.034,0.5606,0.4951,0.0895
17:16:31:107,1.136,1.02,9.626,67.0456,0.4146,0.5371,0.2981,0.0833
17:16:31:127,0.516,1.2311,8.378,67.6198,0.7245,0.2665,-0.0631,0.0813
17:16:31:147,0.1361,1.4921,6.7721,67.0624,0.9291,0.1152,-0.3517,0.0829
17:16:31:167,0.09,1.643,5.501,66.8164,1.0483,0.1141,-0.4615,0.0874
17:16:31:188,-0.024,1.9181,4.998,68.0219,1.0207,-0.0201,-0.5083,0.0945
17:16:31:208,-0.342,2.483,4.746,67.5992,0.8353,-0.3417,-0.5669,0.1031
17:16:31:226,-0.414,2.7971,4.3061,67.1757,0.5584,-0.5281,-0.634,0.1118
17:16:31:246,-0.2561,2.7611,4.3421,67.8242,0.1909,-0.4408,-0.7459,0.1191
17:16:31:266,-0.6701,2.864,5.915,67.9278,-0.2875,-0.3919,-0.8694,0.1241
17:16:31:288,-1.4561,3.146,8.096,68.0621,-0.8052,-0.7433,-0.9185,0.1262
17:16:31:307,-1.695,2.799,9.623,68.2345,-1.1791,-0.7657,-0.8482,0.1244
17:16:31:326,-1.944,2.649,10.7921,69.2871,-1.3677,-0.2586,-0.6501,0.1183
17:16:31:346,-2.502,2.957,12.3221,68.2957,-1.339,0.437,-0.3326,0.1092
17:16:31:366,-2.727,3.1901,13.404,68.0911,-1.0821,0.8535,0.0839,0.0992
17:16:31:391,-2.262,3.194,14.282,68.7024,-0.6966,0.8898,0.4216,0.09
17:16:31:406,-1.487,3.321,15.1061,69.2389,-0.263,0.5979,0.5622,0.0831
17:16:31:425,-0.5531,2.8691,15.884,68.307,0.1045,0.0183,0.3726,0.079
17:16:31:445,-0.144,1.961,15.578,68.9195,0.3271,-0.3374,-0.1695,0.0771
17:16:31:465,-0.9551,1.2071,13.7771,67.9945,0.4763,-0.0125,-0.6288,0.0767
17:16:31:486,-2.435,1.1471,11.517,67.981,0.634,0.7875,-0.4859,0.0777
17:16:31:505,-3.371,1.131,10.253,69.1528,0.7341,1.2104,0.1085,0.0812
17:16:31:525,-3.302,0.882,9.458,68.941,0.7149,0.8631,0.623,0.0878
