Time,Acc_X,Acc_Y,Acc_Z,Meg,Gyr_X,Gyr_Y,Gyr_Z,Ore
17:04:47:804,-0.498,4.9451,8.103,33.699,-0.0905,0.0961,0.1489,0.273
17:04:47:824,-0.4001,4.734,8.1821,33.4799,-0.1926,0.0918,0.1532,0.2735
17:04:47:844,-0.4091,4.6451,8.369,34.6347,-0.2139,0.1217,0.1469,0.2727
17:04:47:864,-0.3971,4.617,8.522,34.4174,-0.1895,0.1365,0.1469,0.2713
17:04:47:891,-0.3281,4.6091,8.3711,34.7723,-0.1746,0.1312,0.1435,0.2695
17:04:47:904,-0.3611,4.688,8.163,34.7723,-0.1863,0.1601,0.1308,0.2675
17:04:47:924,-0.4691,4.923,8.153,34.5618,-0.2258,0.2005,0.133,0.2655
17:04:47:944,-0.56,5.043,8.3621,34.5618,-0.2597,0.1983,0.1798,0.2636
17:04:47:964,-0.455,4.856,8.4,34.5618,-0.279,0.1792,0.2225,0.2618
17:04:47:984,-0.417,4.6931,8.297,34.0225,-0.2768,0.1951,0.216,0.2599
17:04:48:003,-0.5411,4.724,8.216,33.4674,-0.2725,0.2399,0.2054,0.2578
17:04:48:023,-0.6731,4.937,8.271,34.8413,-0.263,0.2772,0.2064,0.2557
17:04:48:043,-0.819,4.935,8.175,33.8505,-0.296,0.2793,0.232,0.2539
17:04:48:063,-0.9431,4.7771,8.1221,32.7859,-0.3237,0.3113,0.2149,0.2521
17:04:48:083,-1.1711,4.94,8.211,33.6469,-0.2992,0.3326,0.1617,0.2502
17:04:48:103,-1.1681,5.3201,8.127,33.5515,-0.2918,0.2463,0.1233,0.2483
17:04:48:123,-1.1681,5.505,7.689,34.0735,-0.3663,0.1856,0.1148,0.2464
17:04:48:143,-1.1321,5.213,7.6961,32.4989,-0.4675,0.2857,0.1244,0.2444
17:04:48:163,-1.116,4.832,8.0719,33.9356,-0.5101,0.3954,0.0573,0.2419
17:04:48:189,-1.353,4.9901,8.678,33.577,-0.4516,0.4839,-0.0386,0.2389
17:04:48:205,-2.2481,5.4311,10.469,34.4866,-0.3546,0.29,-0.0461,0.2356
17:04:48:223,-2.255,5.562,9.6071,34.11,-0.2236,-0.1222,0.0499,0.2326
17:04:48:243,-1.997,5.1581,8.769,34.5301,-0.2395,-0.2001,0.1202,0.2298
17:04:48:262,-1.8941,5.1551,8.2781,33.5977,-0.2045,-0.0073,0.1702,0.2274
17:04:48:289,-1.439,4.6241,8.177,34.1114,-0.2491,-0.1446,0.3066,0.2254
17:04:48:302,-0.876,3.905,8.031,34.1366,-0.2449,-0.2555,0.281,0.2236
17:04:48:324,-1.01,4.011,7.868,34.1076,-0.2343,-0.249,0.1213,0.2218
17:04:48:342,-1.566,4.964,7.95,32.3402,-0.2566,-0.1298,0.0764,0.22
17:04:48:361,-1.623,5.3081,8.6471,32.5603,-0.2608,-0.1052,0.1148,0.2181
17:04:48:382,-1.757,5.586,9.7361,34.6,-0.1522,-0.1233,0.1213,0.2162
17:04:48:404,-1.322,5.2061,8.915,33.1433,-0.0914,-0.2234,0.1063,0.2145
17:04:48:422,-0.972,5.007,8.5391,33.1067,-0.0584,0.1845,-0.0322,0.2133
17:04:48:441,-1.053,4.947,9.7001,33.0958,-0.051,0.1601,-0.1547,0.2126
17:04:48:461,-0.795,4.995,9.939,33.9767,-0.0905,-0.297,-0.2548,0.2124
17:04:48:481,-0.452,4.9451,9.432,34.1494,0.0087,-0.3833,-0.3645,0.2122
17:04:48:504,-0.378,5.043,9.216,33.8143,0.0928,-0.4258,-0.4295,0.212
17:04:48:521,-0.989,5.936,8.781,33.2511,0.1204,-0.2725,-0.4327,0.2122
17:04:48:540,-2.353,6.759,8.5511,33.0913,0.2036,0.0887,-0.2069,0.2128
17:04:48:561,-2.646,5.84,8.807,34.1228,0.2153,0.4125,0.2405,0.2141
17:04:48:588,-1.674,3.441,9.789,33.1727,0.1088,0.553,0.5196,0.2162
17:04:48:599,-0.093,1.3271,10.5911,33.0871,-0.1724,0.0674,0.3652,0.2184
17:04:48:620,0.2171,0.6761,10.923,33.1101,-0.2929,-0.2342,-0.0887,0.2193
17:04:48:640,0.38,2.019,10.461,33.1265,0.0566,-0.1969,-0.242,0.2184
17:04:48:660,0.282,2.85,9.5081,33.1227,0.1951,-0.3609,-0.3124,0.217
17:04:48:680,1.134,2.9381,8.3021,33.3594,0.1375,-0.2384,-0.2442,0.2164
17:04:48:700,1.017,3.2471,7.962,32.9235,-0.0425,0.0896,-0.1866,0.2164
17:04:48:719,0.6911,3.0101,8.2661,34.0184,-0.2555,0.3028,-0.0726,0.2165
17:04:48:740,-0.108,3.458,8.738,33.1288,-0.3259,0.3028,-0.0268,0.2158
17:04:48:760,-0.282,3.597,8.247,33.1049,-0.3461,0.159,0.0338,0.2141
17:04:48:782,-0.804,3.8051,8.211,33.708,-0.3279,0.1141,0.0679,0.2116
17:04:48:799,-0.287,3.525,8.3381,32.8748,-0.3706,-0.1074,0.1265,0.2091
17:04:48:819,0.15,3.4751,9.1091,32.8365,-0.2438,-0.0542,0.0946,0.2063
17:04:48:839,0.531,3.4241,9.027,33.6645,-0.0382,-0.0434,-0.0088,0.2032
17:04:48:858,0.425,3.812,8.8451,32.8023,0.1354,0.0513,-0.0461,0.2008
17:04:48:881,0.497,3.7331,8.697,33.6765,0.1812,0.1013,0.0201,0.1996
17:04:48:898,0.504,3.431,9.044,33.6721,0.146,0.1345,0.0668,0.1997
17:04:48:918,0.495,3.582,9.5441,32.6744,0.1408,0.0311,0.0158,0.2004
17:04:48:938,0.174,4.353,9.6761,33.2067,0.2217,-0.1511,-0.0461,0.2014
17:04:48:958,-0.11,4.679,9.626,32.322,0.3591,-0.2896,-0.0472,0.2025
17:04:48:993,-0.0101,4.727,9.236,33.2142,0.4763,-0.3076,-0.0418,0.2045
17:04:48:998,0.183,4.992,9.008,33.1391,0.4826,-0.1926,-0.0961,0.2074
17:04:49:018,0.464,5.634,9.492,33.0575,0.406,-0.1724,-0.1441,0.2111
17:04:49:037,0.8111,5.613,10.548,33.1793,0.3708,-0.1734,-0.1814,0.2153
17:04:49:058,1.019,5.1791,10.794,32.7899,0.5519,0.1567,-0.2718,0.2192
17:04:49:080,0.437,5.5361,10.545,33.5479,0.7373,0.5754,-0.4029,0.2234
17:04:49:097,-0.395,5.6531,10.112,33.2374,0.8161,0.698,-0.3784,0.2286
17:04:49:117,-1.061,5.909,9.5471,33.1653,0.7458,0.5819,-0.2164,0.2353
17:04:49:138,-1.398,6.2831,9.4871,32.146,0.6042,0.4572,0.0264,0.2429
17:04:49:157,-0.917,5.9411,9.705,32.4639,0.4283,0.0631,0.1213,0.2502
17:04:49:182,-0.345,5.052,9.71,33.6535,0.2398,-0.3843,-0.0386,0.2566
17:04:49:197,-0.599,4.1381,9.434,32.3368,0.2515,-0.2885,-0.2453,0.2615
17:04:49:218,-1.623,3.8261,9.224,32.5693,0.4795,-0.0531,-0.2857,0.2647
17:04:49:237,-2.1881,3.776,8.558,33.2591,0.6383,-0.1682,-0.2303,0.2677
17:04:49:257,-2.047,3.6131,7.9091,32.3592,0.5551,-0.4525,-0.2229,0.2715
17:04:49:281,-1.817,3.704,7.6151,33.3331,0.3549,-0.5857,-0.2164,0.2758
17:04:49:297,-1.398,3.47,7.533,33.3339,0.2472,-0.4173,-0.1686,0.2795
17:04:49:316,-1.0511,3.348,7.385,33.2398,0.2196,-0.2342,-0.1877,0.2823
17:04:49:337,-1.061,3.4961,7.3061,32.2382,0.2259,-0.2225,-0.2707,0.2843
17:04:49:356,-1.221,3.702,7.076,33.4262,0.2238,-0.4366,-0.3273,0.286
17:04:49:391,-1.13,3.7931,6.501,33.429,0.1503,-0.5292,-0.2921,0.2874
17:04:49:396,-0.924,4.049,5.9321,33.3532,-0.0265,-0.3396,-0.1547,0.2887
17:04:49:415,-0.63,4.1981,5.6711,32.3755,-0.2353,0.0556,-0.0344,0.2893
17:04:49:435,-0.95,5.076,6.8681,32.365,-0.4324,0.0172,0.0668,0.289
17:04:49:455,-0.8021,4.995,7.05,33.8019,-0.4899,-0.2139,0.1713,0.2875
17:04:49:479,-0.579,4.83,7.373,33.7644,-0.3546,-0.1255,0.1202,0.2846
17:04:49:495,-0.8981,5.1821,7.349,31.8957,-0.198,-0.0253,0.0147,0.2812
17:04:49:515,-1.1801,5.553,7.3181,32.8525,-0.115,-0.003,-0.0322,0.2783
17:04:49:535,-1.391,5.804,7.5641,33.2946,-0.0957,-0.1202,-0.029,0.2764
17:04:49:554,-1.365,5.6291,7.916,33.3156,-0.1309,-0.2064,-0.045,0.2751
17:04:49:582,-1.25,5.7371,8.5271,33.2878,-0.2023,-0.3407,-0.0802,0.2741
17:04:49:594,-1.164,5.591,9.4151,33.7575,-0.3503,-0.3502,-0.128,0.2729
17:04:49:614,-1.1921,5.328,10.5,32.6124,-0.4995,-0.1671,-0.11,0.2709
17:04:49:634,-1.472,5.208,11.39,34.0178,-0.4707,0.1046,0.0424,0.2677
17:04:49:654,-1.056,4.9331,11.493,33.5034,-0.41,0.1376,0.1851,0.2636
17:04:49:680,-0.096,4.5281,11.204,33.5393,-0.5676,-0.0051,0.1585,0.2594
17:04:49:694,0.7031,3.908,11.2271,34.1735,-0.8467,-0.1094,0.0466,0.2547
17:04:49:713,0.66,3.2471,11.457,34.0412,-0.9107,0.0225,-0.0439,0.2489
17:04:49:733,0.212,2.778,11.558,34.0168,-0.6156,0.161,-0.0481,0.2418
17:04:49:753,0.428,2.445,11.177,33.823,-0.2065,0.0055,0.0136,0.2346
17:04:49:799,1.038,2.574,10.536,35.5377,0.1045,-0.3854,0.0414,0.229
17:04:49:800,1.91,2.519,9.408,34.2052,0.308,-0.6837,-0.0726,0.2256
17:04:49:813,2.52,2.366,8.175,35.0246,0.3549,-0.7114,-0.3337,0.224
17:04:49:833,2.379,2.7011,7.0301,35.2206,0.2238,-0.5239,-0.5947,0.2239
17:04:49:853,1.749,3.146,6.3431,35.221,0.0235,-0.1904,-0.7224,0.2244
17:04:49:879,1.0841,3.3791,6.315,35.1238,-0.1426,0.0109,-0.7257,0.225
17:04:49:894,0.7961,3.546,6.7361,35.3826,-0.1831,-0.0637,-0.6681,0.225
17:04:49:913,0.861,3.542,6.9731,35.0835,-0.0723,-0.2023,-0.6362,0.2244
17:04:49:933,0.777,3.7121,6.911,35.341,0.1162,-0.2788,-0.6607,0.2235
17:04:49:952,0.404,4.1351,6.846,35.2838,0.2259,-0.3535,-0.6746,0.223
17:04:49:984,-0.129,4.715,7.263,36.4056,0.1716,-0.5122,-0.6351,0.2233
17:04:49:992,-0.33,5.093,8.0381,35.9622,0.0715,-0.6677,-0.5158,0.224
17:04:50:013,-0.17,5.22,8.757,35.8713,-0.001,-0.6922,-0.4051,0.2247
17:04:50:031,-0.06,5.3711,9.396,34.8965,-0.0212,-0.3758,-0.3571,0.2249
17:04:50:053,-0.4211,5.507,10.571,35.6812,0.0001,0.1152,-0.3517,0.2247
17:04:50:080,-0.972,5.6321,12.0371,35.6974,0.1588,0.3006,-0.2729,0.2249
17:04:50:092,-1.073,5.6921,12.683,35.6737,0.4965,0.2601,-0.1484,0.2256
17:04:50:112,-0.795,5.799,12.35,36.174,0.7895,0.1919,-0.1238,0.2276
17:04:50:132,-0.8381,6.1301,11.7161,36.0447,0.8981,0.274,-0.1738,0.2315
17:04:50:152,-0.929,5.945,11.208,36.2639,0.8246,0.242,-0.2144,0.2374
17:04:50:193,-1.1111,5.613,10.65,37.0883,0.652,0.0982,-0.2453,0.2446
17:04:50:195,-1.511,5.043,10.1381,36.9838,0.569,0.0183,-0.2431,0.2518
17:04:50:212,-2.0021,4.514,9.2021,36.2415,0.6287,0.0663,-0.2314,0.2584
17:04:50:232,-2.361,4.32,8.139,36.7611,0.5999,0.0566,-0.2069,0.2645
17:04:50:252,-2.492,4.32,7.4231,36.8181,0.356,-0.0648,-0.1121,0.2706
17:04:50:279,-2.157,4.0421,6.93,36.7399,-0.0351,-0.2118,-0.0012,0.2759
17:04:50:293,-1.511,3.4121,6.7931,37.5937,-0.4505,-0.1287,0.0605,0.2794
17:04:50:311,-1.293,2.9501,7.191,36.6118,-0.7168,0.1397,0.1063,0.2801
17:04:50:332,-1.506,2.874,7.67,37.7817,-0.6678,0.4796,0.2481,0.2778
17:04:50:353,-1.559,2.897,7.9091,39.2563,-0.3227,0.7022,0.5026,0.2737
17:04:50:382,-1.3001,3.237,7.7321,37.9564,0.0971,0.6394,0.7359,0.2698
17:04:50:392,-0.7451,3.7451,7.3541,37.5467,0.4561,0.4263,0.8818,0.2679
17:04:50:412,-0.081,3.9581,6.813,37.349,0.7128,0.2101,0.8829,0.2684
17:04:50:431,0.2741,4.262,6.53,37.1935,0.7969,-0.084,0.7242,0.2714
17:04:50:451,0.588,4.5731,6.437,38.2541,0.6926,-0.5026,0.5153,0.2761
17:04:50:480,1.199,4.614,6.489,37.2136,0.4316,-0.7967,0.3502,0.2815
17:04:50:491,1.6511,4.557,7.1381,38.0464,0.0439,-0.8733,0.1851,0.2861
17:04:50:512,1.598,4.6481,8.292,38.3354,-0.2651,-0.7018,0.0318,0.2888
17:04:50:532,1.16,4.916,9.2711,36.9017,-0.2875,-0.3609,-0.0492,0.2889
17:04:50:551,0.638,5.493,9.8321,38.5752,-0.1543,-0.2597,-0.1015,0.2871
17:04:50:591,0,7.085,10.334,38.0542,-0.2247,-0.7711,-0.3295,0.2846
17:04:50:609,0.8801,6.5681,10.325,38.8883,-0.4803,-0.8936,-0.5276,0.2821
17:04:50:629,1.328,5.684,10.694,38.5376,-0.8947,-0.7263,-0.763,0.2796
17:04:50:648,0.4661,5.1341,11.3951,38.4215,-1.1258,-0.1819,-0.8013,0.2762
17:04:50:669,-0.9191,4.856,12.1091,38.0533,-0.9564,0.3517,-0.5371,0.2706
17:04:50:688,-1.278,4.454,12.302,38.8201,-0.542,0.3613,-0.1078,0.263
17:04:50:707,-0.074,3.858,11.603,36.4396,-0.0755,0.0887,0.2629,0.2549
17:04:50:727,1.469,3.5201,10.2791,37.2426,0.2654,-0.1106,0.3801,0.2478
17:04:50:747,2.465,3.2951,8.642,37.2747,0.4294,-0.0914,0.216,0.2428
17:04:50:769,2.5421,3.1541,7.181,38.1276,0.4891,0.143,-0.0982,0.2404
17:04:50:787,1.893,3.3,6.195,37.7009,0.5167,0.3156,-0.338,0.2401
17:04:50:808,1.256,3.434,5.711,38.6489,0.5456,0.2303,-0.4646,0.2416
17:04:50:828,1.026,3.4961,5.1611,38.5463,0.5838,-0.0243,-0.568,0.2447
17:04:50:848,0.792,3.74,4.567,38.4224,0.602,-0.1713,-0.6564,0.2489
17:04:50:869,0.528,4.1141,4.196,38.0878,0.5903,-0.1393,-0.6916,0.2538
17:04:50:888,0.0011,4.6091,4.205,39.0995,0.4667,-0.1478,-0.7437,0.2592
17:04:50:907,-0.57,4.98,4.955,38.9666,0.1716,-0.4855,-0.8013,0.2648
17:04:50:927,-0.8711,5.474,5.615,39.0149,-0.2384,-0.8893,-0.7682,0.2702
17:04:50:947,-1.044,6.3161,6.8801,38.9338,-0.5581,-0.672,-0.5658,0.2744
17:04:50:970,-0.8621,6.4031,8.33,38.8762,-0.737,-0.0093,-0.3369,0.2759
17:04:50:992,-1.226,6.333,10.461,38.7342,-0.6955,0.6746,-0.2197,0.2745
17:04:51:007,-1.9301,6.7211,12.279,38.6363,-0.4601,0.798,-0.127,0.2711
17:04:51:026,-2.15,7.518,12.9731,38.8444,-0.1959,0.5328,0.0381,0.267
17:04:51:047,-1.9871,8.148,13.128,38.7975,-0.036,0.2633,0.2501,0.2635
17:04:51:069,-0.7421,7.1591,13.1051,38.5216,-0.1033,-0.1255,0.2438,0.2612
17:04:51:086,0.3491,5.4881,13.0541,38.8455,-0.3057,-0.2757,-0.0407,0.2601
17:04:51:106,-0.1721,4.281,12.87,38.8317,-0.2619,0.1675,-0.2453,0.2593
17:04:51:126,-1.781,3.932,12.221,38.455,0.1833,0.8386,-0.1398,0.2576
17:04:51:146,-2.658,3.692,10.911,38.4636,0.6819,0.8535,0.1255,0.2553
17:04:51:167,-2.504,3.539,9.291,37.7903,0.8865,0.3613,0.2885,0.2546
17:04:51:185,-1.9181,3.4841,7.658,38.4217,0.7512,-0.1265,0.346,0.2573
17:04:51:205,-1.374,3.3161,6.638,39.3437,0.4624,-0.1298,0.411,0.2627
17:04:51:225,-1.214,3.02,6.101,37.4232,0.2207,0.1163,0.4781,0.2689
17:04:51:245,-1.2311,2.907,5.943,38.3183,0.0769,0.373,0.5622,0.2744
17:04:51:268,-1.128,3.101,5.994,38.0457,0.0192,0.5254,0.7902,0.2785
17:04:51:285,-0.6101,3.395,6.066,37.8252,0.0459,0.5743,1.0746,0.2815
17:04:51:304,0.143,3.573,6.1901,38.2401,0.179,0.5317,1.1748,0.2835
17:04:51:324,0.662,3.791,6.111,38.4894,0.4283,0.4646,1.0842,0.2851
17:04:51:344,0.638,4.3721,5.8811,37.4855,0.6819,0.3591,0.934,0.2868
17:04:51:367,0.6911,5.019,5.697,38.0866,0.7415,0.0151,0.8019,0.2893
17:04:51:392,1.2011,5.4551,5.879,37.8688,0.5189,-0.4845,0.6325,0.2984
17:04:51:404,2.027,5.4191,6.362,38.0355,0.1269,-0.8221,0.3897,0.3035
17:04:51:425,2.4701,5.325,7.0331,38.0375,-0.2119,-0.6251,0.1543,0.3069
17:04:51:444,2.072,5.684,8.256,37.9567,-0.3717,-0.1478,0.036,0.3077
17:04:51:466,1.6181,5.9741,9.3791,37.4127,-0.4271,-0.0179,-0.014,0.3065
17:04:51:483,1.29,6.431,10.1141,37.7329,-0.4558,-0.2214,-0.1323,0.304
17:04:51:503,1.076,6.992,10.2791,36.803,-0.3823,-0.3769,-0.2368,0.3004
17:04:51:524,1.38,7.202,10.248,37.6551,-0.377,-0.4834,-0.3422,0.2963
17:04:51:544,2.2211,6.9011,10.22,37.05,-0.5974,-0.5122,-0.5105,0.2922
17:04:51:565,2.444,6.2111,10.7891,38.3591,-0.8478,-0.3215,-0.7022,0.2875
17:04:51:584,1.811,5.268,11.5391,36.6857,-0.8159,-0.0722,-0.813,0.2815
17:04:51:604,1.0451,4.487,11.874,37.5718,-0.4845,-0.0744,-0.7619,0.2748
17:04:51:623,0.789,4.1621,11.498,37.8624,-0.1522,-0.3726,-0.5819,0.2687
17:04:51:643,1.395,3.791,10.3421,36.9715,-0.0095,-0.5633,-0.406,0.264
17:04:51:665,1.9571,3.407,9.123,37.3939,0.0609,-0.3119,-0.3347,0.2607
17:04:51:683,1.811,3.182,8.067,37.8203,0.227,0.0674,-0.3795,0.2584
17:04:51:703,1.352,3.032,7.062,36.9485,0.5477,0.2186,-0.4551,0.2573
17:04:51:723,1.086,2.907,5.972,36.6237,0.862,-0.0296,-0.5573,0.2584
17:04:51:742,0.8471,3.1391,4.83,36.411,1.0227,-0.4067,-0.7002,0.262
17:04:51:765,0.65,3.539,3.992,37.1279,1.0057,-0.6827,-0.8119,0.2676
17:04:51:805,0.3821,3.953,3.5351,37.7543,0.8416,-0.8445,-0.8972,0.2745
17:04:51:806,-0.084,4.43,3.221,37.5856,0.5892,-0.7635,-0.9504,0.2816
17:04:51:822,-0.56,4.925,3.4151,36.8985,0.2472,-0.606,-0.9813,0.2878
17:04:51:841,-1.041,5.502,4.2701,36.813,-0.2716,-0.6443,-1.008,0.2925
17:04:51:864,-1.4531,5.9411,5.838,35.8789,-0.8223,-0.7146,-0.9664,0.2947
17:04:51:881,-1.7051,6.089,8.0719,37.7444,-1.0982,-0.5548,-0.8205,0.2932
17:04:51:901,-2.219,6.467,10.1621,36.8773,-0.965,-0.1265,-0.5904,0.2882
17:04:51:921,-2.768,7.365,11.582,36.0285,-0.6944,0.2655,-0.2932,0.2813
17:04:51:941,-2.978,7.9541,12.4601,38.0393,-0.4388,0.52,-0.0279,0.2746
17:04:51:961,-2.658,8.292,13.143,36.6559,-0.165,0.4348,0.2277,0.2696
17:04:51:986,-1.1951,7.6451,13.332,37.075,-0.0777,-0.1543,0.3704,0.2665
17:04:52:000,0.1931,6.506,12.9971,35.8415,-0.1926,-0.5175,0.2106,0.2645
17:04:52:020,0,5.3231,12.291,35.5537,-0.132,-0.0946,-0.0311,0.2621
17:04:52:040,-1.5371,5.076,11.433,37.0182,0.194,0.65,-0.0503,0.2594
17:04:52:062,-2.4971,4.961,9.9821,36.1548,0.4326,0.8386,0.1808,0.2586
17:04:52:081,-2.298,4.772,8.4431,36.5869,0.3304,0.6149,0.4014,0.2607
17:04:52:100,-1.508,4.298,7.253,37.1115,-0.0403,0.3667,0.5441,0.2644
17:04:52:120,-0.962,3.6491,6.6641,36.2124,-0.4291,0.3497,0.5932,0.2676
17:04:52:140,-0.776,3.2141,6.441,35.4125,-0.6391,0.5862,0.6176,0.2687
17:04:52:162,-0.812,2.9141,6.5201,36.7401,-0.6528,1.0005,0.7305,0.2674
17:04:52:191,-0.989,2.8811,7.449,37.5846,-0.5676,1.0772,0.9394,0.2649
17:04:52:199,-0.651,2.9621,8.3231,37.5639,-0.2801,0.8023,1.2334,0.2621
17:04:52:219,0.212,3.036,8.807,37.0224,0.2676,0.5563,1.4517,0.2595
17:04:52:239,1.122,3.506,8.462,36.6718,0.8609,0.4253,1.4497,0.2584
17:04:52:260,1.68,4.241,7.679,35.5037,1.2188,0.3954,1.2397,0.2601
17:04:52:281,1.938,4.9571,7.071,37.9062,1.1495,0.2101,0.9031,0.2654
17:04:52:299,1.6991,5.5481,7.1861,36.5964,0.7341,-0.1841,0.558,0.2733
17:04:52:318,1.359,5.885,7.622,36.4324,0.3186,-0.4505,0.3619,0.2813
17:04:52:339,1.6991,5.732,8.3141,36.4582,0.0736,-0.5708,0.2629,0.2873
17:04:52:361,2.1109,5.7011,8.553,37.1662,-0.0883,-0.5974,0.0744,0.2908
17:04:52:383,1.5311,6.4721,8.5601,37.6022,-0.1448,-0.4067,-0.1408,0.2919
17:04:52:398,1.254,6.956,8.3231,36.288,-0.2566,-0.4258,-0.2963,0.2914
17:04:52:418,2.058,6.513,8.175,37.4579,-0.7487,-0.7732,-0.5328,0.2902
17:04:52:438,2.544,5.553,9.0851,37.4663,-1.5307,-0.9223,-0.8386,0.2871
17:04:52:459,1.73,4.995,11.172,36.4331,-2.0057,-0.5815,-0.8535,0.28
17:04:52:482,0.926,4.152,12.456,38.0138,-1.8342,-0.1,-0.5404,0.2681
17:04:52:498,0.7961,3.4121,11.555,36.956,-1.2239,0.3176,-0.1899,0.2531
17:04:52:517,1.3541,3.0461,9.635,37.8553,-0.8499,0.4444,0.0446,0.2386
17:04:52:538,2.142,2.73,8.8571,37.8458,-0.6306,0.1462,0.1904,0.2265
17:04:52:559,2.2781,2.6411,8.357,38.4395,-0.622,-0.3428,0.0296,0.2168
17:04:52:591,2.01,2.6801,7.4141,38.0184,-0.6039,-0.5985,-0.2016,0.2084
17:04:52:597,1.596,3.036,6.9131,37.9914,-0.5283,-0.362,-0.3571,0.2004
17:04:52:617,1.067,3.36,7.437,36.5551,-0.2267,0.0896,-0.4295,0.1929
17:04:52:637,0.5501,3.4511,8.0651,37.8781,0.2089,0.1717,-0.4807,0.1871
17:04:52:659,0.078,3.8891,8.1461,37.8461,0.5701,-0.1639,-0.5148,0.1842
17:04:52:679,-0.1151,4.461,7.856,37.3815,0.7586,-0.4877,-0.5041,0.1848
17:04:52:697,-0.134,4.935,7.5521,38.6083,0.798,-0.5207,-0.5499,0.1879
17:04:52:715,-0.005,5.093,7.947,38.3982,0.6733,-0.4493,-0.5968,0.1927
17:04:52:735,-0.069,5.0471,8.508,38.2534,0.3921,-0.4685,-0.568,0.1983
17:04:52:756,-0.393,5.0981,8.96,38.2327,0.1599,-0.2586,-0.3838,0.2035
17:04:52:789,-0.5171,5.0981,9.8321,39.4565,-0.0041,0.0418,-0.1195,0.2074
17:04:52:796,-0.663,5.196,10.832,39.4575,-0.0649,0.3816,0.0839,0.21
17:04:52:816,-0.9911,5.352,12.063,37.7181,0.0428,0.5307,0.2672,0.2117
17:04:52:835,0.009,4.14,12.674,39.0667,0.2217,0.0961,0.3587,0.2132
17:04:52:857,0.78,3.384,12.2111,39.4056,0.2142,-0.5079,0.1851,0.2148
17:04:52:882,0.294,3.173,11.225,39.8385,0.227,-0.395,0.052,0.2158
17:04:52:895,-0.8501,3.2831,10.028,39.4209,0.3953,0.3421,0.1244,0.2163
17:04:52:915,-1.4801,3.372,9.2261,39.9085,0.5008,0.8492,0.3481,0.2178
17:04:52:935,-1.7291,3.69,8.307,39.8527,0.3517,0.8088,0.5356,0.2211
17:04:52:955,-1.544,3.984,7.346,38.1717,0.0065,0.632,0.6155,0.2256
17:04:52:992,-1.0369,3.8261,6.8171,40.639,-0.4154,0.5616,0.6251,0.2295
17:04:52:994,-0.711,3.5321,6.927,40.6232,-0.7424,0.6116,0.6293,0.2315
17:04:53:014,-0.7211,3.348,7.4141,39.3191,-0.8074,0.7491,0.6826,0.2308
17:04:53:034,-0.6011,3.1511,7.974,40.4865,-0.6645,0.7054,0.771,0.2278
17:04:53:054,-0.3761,3.053,8.3591,41.0467,-0.3855,0.5126,0.8903,0.2236
17:04:53:080,-0.048,3.0701,8.426,40.6775,0.0428,0.3358,1.0214,0.2194
17:04:53:094,0.4781,3.17,8.093,40.6354,0.5008,0.1962,1.048,0.2163
17:04:53:114,1.007,3.4511,7.8161,41.2931,0.7853,0.0247,0.9564,0.2155
17:04:53:133,1.2371,3.846,7.6151,40.8527,0.8268,-0.1862,0.7902,0.2175
17:04:53:154,1.304,4.214,7.686,41.6989,0.6872,-0.3567,0.6197,0.2215
17:04:53:184,1.5791,4.2791,8.3471,41.3034,0.4539,-0.5133,0.4727,0.2265
17:04:53:193,1.802,4.154,9.6041,41.5168,0.1503,-0.7774,0.2874,0.2309
17:04:53:213,1.598,4.437,10.524,41.5168,-0.0243,-0.9201,0.1777,0.2337
17:04:53:233,1.1651,5.1821,10.689,42.2847,0.1056,-0.5761,0.2012,0.2343
17:04:53:253,1.0601,5.957,10.5431,41.7792,0.3219,-0.133,0.2555,0.2337
17:04:53:283,2.1041,5.696,10.358,42.6616,0.2111,-0.1543,0.1511,0.2338
17:04:53:293,2.9681,5.153,10.0061,42.6412,-0.2768,-0.3396,-0.1973,0.235
17:04:53:313,2.422,4.763,10.394,42.5452,-0.6773,-0.085,-0.4487,0.2351
17:04:53:333,1.3451,4.5161,11.2781,42.5389,-0.6636,0.2025,-0.3326,0.233
17:04:53:357,1.251,3.87,11.1821,43.1293,-0.2597,0.2846,-0.0513,0.2292
17:04:53:395,1.91,3.2351,10.497,42.8355,0.1781,0.1354,0.0499,0.2254
17:04:53:398,2.5901,3.144,8.9651,42.8311,0.3921,-0.1489,-0.0109,0.2235
17:04:53:413,2.8361,3.324,7.6961,42.8147,0.3623,-0.2427,-0.1578,0.2234
17:04:53:432,2.693,3.561,7.064,43.6715,0.1918,-0.2597,-0.3091,0.2246
17:04:53:452,2.3381,3.621,6.6281,43.6507,0.0939,-0.1011,-0.3869,0.2261
17:04:53:479,1.9571,3.4481,6.542,43.5377,0.146,0.0791,-0.4477,0.2273
17:04:53:491,1.371,3.692,6.4271,42.6304,0.3154,0.0726,-0.5094,0.2286
17:04:53:512,0.827,4.0991,6.068,43.1851,0.5456,-0.0125,-0.551,0.2305
17:04:53:532,0.396,4.6001,5.874,44.0238,0.6861,-0.2234,-0.601,0.2338
17:04:53:556,0.102,5.0741,5.709,43.9995,0.6542,-0.4973,-0.6138,0.2384
17:04:53:585,-0.168,5.538,5.7161,44.0742,0.4945,-0.606,-0.584,0.2436
17:04:53:591,-0.182,5.885,6.0731,43.9896,0.2633,-0.5548,-0.5137,0.2486
17:04:53:612,-0.1121,6.237,6.932,45.1718,-0.0286,-0.395,-0.4188,0.2526
17:04:53:631,-0.101,6.5801,8.692,45.132,-0.3077,-0.3801,-0.3059,0.2551
17:04:53:654,0.1571,6.53,10.4921,44.5826,-0.3898,-0.492,-0.1962,0.2558
17:04:53:682,0.471,6.518,11.3141,45.4535,-0.198,-0.345,-0.1419,0.2545
17:04:53:691,0.432,7.037,11.678,45.4066,0.0949,0.0481,-0.1121,0.2521
17:04:53:713,1.218,6.7211,12.2351,45.1059,0.1152,-0.0861,-0.1035,0.2505
17:04:53:733,2.142,6.012,12.101,45.4766,-0.1798,-0.558,-0.1567,0.2502
17:04:53:757,2.0771,5.0621,11.682,45.4534,-0.1948,-0.2736,-0.2027,0.2493
17:04:53:816,0.842,4.7359,10.919,45.6471,0.2142,0.4423,-0.2058,0.2474
17:04:53:817,-0.0431,4.571,10.038,44.7191,0.652,0.7107,-0.1248,0.2467
17:04:53:817,-0.443,4.602,8.541,45.5097,0.8055,0.3795,-0.0683,0.249
17:04:53:831,-0.486,4.581,7.011,44.2873,0.6989,0.0631,-0.0716,0.2539
17:04:53:851,-0.4091,4.38,5.9651,44.0363,0.3814,0.0129,-0.0844,0.26
17:04:53:878,-0.63,4.265,5.673,45.1872,0.0203,0.2101,-0.0066,0.2657
17:04:53:891,-0.941,4.159,5.8451,44.8784,-0.1841,0.5371,0.2106,0.27
17:04:53:911,-0.998,4.1831,6.3311,45.5747,-0.2395,0.6468,0.4707,0.2726
17:04:53:931,-0.63,4.3991,6.738,45.5354,-0.1937,0.4967,0.6698,0.2738
17:04:53:951,-0.065,4.4681,7.188,45.4516,-0.0446,0.3037,0.7604,0.274
17:04:53:981,0.404,4.509,7.428,44.1997,0.2196,0.1567,0.7498,0.2738
17:04:53:990,0.8081,4.617,7.3661,44.4703,0.472,0.0609,0.6347,0.2739
17:04:54:010,0.969,5.009,6.887,44.1607,0.4826,0.0461,0.4653,0.2752
17:04:54:030,0.8801,5.6201,6.863,43.7655,0.1354,0.1686,0.3332,0.2777
17:04:54:053,0.789,6.048,7.883,45.2446,-0.3301,0.2527,0.2948,0.2804
17:04:54:087,1.218,5.6771,9.245,44.9648,-0.5752,0.2633,0.2458,0.2817
17:04:54:090,1.562,5.615,10.4471,44.9471,-0.5516,0.1706,0.1148,0.2805
17:04:54:110,1.646,5.742,10.976,43.926,-0.2918,0.1675,-0.0407,0.2774
17:04:54:130,1.1531,6.3881,11.096,44.912,0.111,0.2335,-0.1621,0.2737
17:04:54:150,1.448,6.3191,10.787,44.7111,0.4784,0.0311,-0.2282,0.2713
17:04:54:191,2.499,5.55,9.0701,44.8085,0.389,-0.3769,-0.5424,0.2711
17:04:54:207,1.764,5.6171,8.721,44.8274,0.2387,-0.1,-0.518,0.273
17:04:54:227,1.481,5.234,8.51,44.3032,0.1664,0.0012,-0.3337,0.2758
17:04:54:248,1.539,4.959,7.95,45.0823,0.1323,-0.084,-0.1664,0.2785
17:04:54:266,1.9811,4.485,7.1141,45.0579,0.1024,-0.2234,-0.0961,0.2807
17:04:54:286,2.228,4.1501,6.281,45.3845,-0.018,-0.2885,-0.1632,0.2824
17:04:54:306,1.79,4.346,5.912,44.4521,-0.2384,-0.2927,-0.2707,0.2835
17:04:54:330,1.2461,4.547,6.0581,44.2393,-0.3567,-0.1745,-0.2815,0.2839
17:04:54:346,1.151,4.538,6.458,45.394,-0.2705,-0.0978,-0.224,0.2833
17:04:54:366,1.325,4.638,6.702,44.2101,-0.018,-0.085,-0.1942,0.2815
17:04:54:386,1.419,4.854,6.576,44.2101,0.308,-0.0456,-0.275,0.2792
17:04:54:406,1.1171,5.174,6.195,44.2126,0.5712,-0.0329,-0.4625,0.2773
17:04:54:426,0.411,5.747,5.6561,45.0326,0.7085,-0.0275,-0.6266,0.2769
17:04:54:446,-0.0671,6.158,5.417,45.3003,0.6414,-0.1116,-0.6926,0.2786
17:04:54:465,-0.2681,6.606,5.4911,44.2527,0.2867,-0.3279,-0.6798,0.2825
17:04:54:485,-0.318,6.8981,6.087,45.0637,-0.165,-0.2842,-0.5776,0.2876
17:04:54:505,-0.395,6.9131,7.284,45.52,-0.4707,0.047,-0.4529,0.2925
17:04:54:525,-0.819,7.26,8.807,45.1746,-0.5101,0.47,-0.3017,0.2955
17:04:54:545,-1.322,7.734,10.322,44.1816,-0.3227,0.5808,-0.0811,0.2963
17:04:54:564,-1.59,8.4469,10.952,43.8221,0.0439,0.4188,0.2192,0.2955
17:04:54:589,-0.407,8.114,11.079,43.7987,0.3868,0.0385,0.4664,0.2944
17:04:54:605,1.179,6.98,10.71,43.781,0.3282,-0.4909,0.2991,0.294
17:04:54:625,1.2731,6.087,10.1981,44.0222,0.0524,-0.4866,-0.1132,0.295
17:04:54:647,-0.335,5.723,9.8291,44.9531,-0.0041,0.209,-0.2698,0.2964
17:04:54:665,-1.812,5.514,9.5591,43.9841,0.1493,0.7065,-0.093,0.2969
17:04:54:684,-2.1,5.3951,8.706,44.6269,0.2036,0.52,0.1552,0.2972
17:04:54:704,-1.4681,5.3111,7.77,44.6326,-0.0573,0.045,0.2618,0.2984
17:04:54:724,-0.486,4.88,6.99,42.5227,-0.5783,-0.2651,0.2171,0.3006
17:04:54:746,0.035,4.104,6.743,42.8996,-1.0832,-0.0349,0.1276,0.3024
17:04:54:763,-0.1961,3.707,6.983,43.7558,-1.2995,0.4924,0.1595,0.3018
17:04:54:783,-0.656,3.618,7.4021,44.0094,-1.1184,0.9558,0.3695,0.2976
17:04:54:803,-0.543,3.491,7.737,42.9316,-0.7029,0.9536,0.6134,0.2903
17:04:54:824,-0.158,3.836,8.0171,44.1353,-0.2736,0.5478,0.7817,0.282
17:04:54:844,0.3611,4.126,8.4071,42.7144,0.1833,-0.0318,0.8679,0.2746
17:04:54:864,1.0721,4.087,8.048,42.3745,0.7063,-0.2981,0.8306,0.2689
17:04:54:883,1.412,4.356,7.394,42.6418,1.1122,-0.3396,0.6603,0.2652
17:04:54:903,1.5,4.9421,6.678,43.3844,1.1719,-0.4792,0.477,0.2643
17:04:54:924,1.7591,5.261,6.3821,42.3897,0.8023,-0.7743,0.3044,0.2668
17:04:54:944,1.85,5.469,6.54,42.6276,0.2335,-0.9713,0.1404,0.2723
17:04:54:963,1.634,5.718,6.8201,42.9483,-0.1682,-0.6773,0.0744,0.2786
17:04:54:990,0.909,6.551,7.109,42.4076,-0.3578,-0.1308,0.1063,0.2832
17:04:55:003,0.519,7.502,7.536,43.5687,-0.5336,-0.0179,0.1426,0.2849
17:04:55:023,1.364,7.748,8.383,42.8761,-0.9459,-0.4909,0.0637,0.2846
17:04:55:044,2.973,6.5891,9.542,41.9479,-1.5531,-1.1077,-0.1823,0.2828
17:04:55:064,3.873,4.952,11.084,42.9573,-2.027,-1.1268,-0.5233,0.2788
17:04:55:082,3.0161,4.2431,12.3311,44.022,-1.8769,-0.4121,-0.6544,0.2707
17:04:55:102,1.5581,3.9821,12.353,42.4553,-1.096,0.3784,-0.4381,0.2581
17:04:55:122,1.103,3.6491,10.586,43.0663,-0.1671,0.6852,-0.0993,0.2423
17:04:55:144,1.7921,3.582,8.529,42.6279,0.4263,0.502,0.1383,0.2273
17:04:55:162,3.0641,3.101,7.332,42.1888,0.4444,-0.2757,0.1116,0.2172
17:04:55:182,3.389,3.2111,6.975,41.6409,0.0033,-1.2419,-0.161,0.2127
17:04:55:201,3.009,3.369,7.064,42.1094,-0.3578,-1.3474,-0.4008,0.212
17:04:55:222,2.46,3.324,7.3391,41.5095,-0.3748,-0.7252,-0.4785,0.2114
17:04:55:241,1.8071,3.477,7.3541,41.4015,-0.117,0.0791,-0.4082,0.2087
17:04:55:260,1.565,3.755,7.289,40.2719,0.1536,0.3838,-0.2729,0.2046
17:04:55:280,1.766,4.403,6.959,40.4914,0.2068,0.225,-0.1845,0.2009
17:04:55:301,2.044,5.076,6.825,40.4825,0.1451,0.1184,-0.1686,0.1994
17:04:55:320,2.1611,5.3081,6.9161,40.2311,0.1258,0.2474,-0.2474,0.1999
17:04:55:340,1.991,5.2751,7.44,40.243,0.0459,0.3358,-0.4071,0.2011
17:04:55:360,1.208,5.5841,8.9051,41.1215,-0.1138,0.1866,-0.4828,0.2028
17:04:55:387,0.849,5.282,10.574,40.0444,-0.0638,-0.1011,-0.34,0.205
17:04:55:399,1.0451,4.988,11.141,40.0374,0.2505,-0.1265,-0.1984,0.2068
17:04:55:419,1.1651,5.162,11.079,39.0203,0.5712,0.1312,-0.1695,0.2079
17:04:55:439,0.765,5.5931,10.4711,39.8634,0.6904,0.4615,-0.1558,0.2087
17:04:55:459,0.3131,5.696,10.152,40.7081,0.6179,0.6084,-0.0578,0.2108
17:04:55:481,0.7361,4.9571,10.181,40.5823,0.2344,0.209,-0.0311,0.215
17:04:55:499,0.4541,4.983,10.1,40.5105,-0.3142,-0.1148,-0.0513,0.2208
17:04:55:519,-0.2321,4.9211,10.2911,38.9441,-0.5272,0.1814,0.1372,0.2265
17:04:55:540,-0.417,4.439,10.188,39.3152,-0.2929,0.6863,0.3928,0.2294
17:04:55:559,-0.11,3.972,9.99,40.199,0.0396,0.6405,0.4568,0.2292
17:04:55:581,0.248,3.81,9.133,37.6575,0.1482,0.1141,0.2777,0.2272
17:04:55:598,0.4751,3.716,7.794,39.8489,0.0747,-0.1947,0.0679,0.2274
17:04:55:619,0.528,3.453,6.939,38.4687,-0.165,-0.0562,-0.0301,0.2276
17:04:55:639,0.3731,3.218,6.858,38.9533,-0.4516,0.1643,-0.0077,0.2271
17:04:55:659,0.057,3.108,7.1411,38.6994,-0.6039,0.3816,0.1361,0.2253
17:04:55:681,-0.2201,3.419,7.7081,37.7499,-0.5698,0.4135,0.345,0.2223
17:04:55:699,-0.024,3.8,7.8011,37.6312,-0.2875,0.4177,0.5516,0.2184
17:04:55:719,0.4991,4.011,7.8491,38.4084,0.1173,0.3795,0.6443,0.2147
17:04:55:739,1.0601,4.133,7.7771,38.4046,0.4581,0.1291,0.5974,0.2127
17:04:55:758,1.385,4.365,7.5791,38.1385,0.6776,-0.1308,0.4471,0.213
17:04:55:790,1.469,4.679,7.5,36.8072,0.6935,-0.3545,0.265,0.2153
17:04:55:798,1.4741,5.064,7.6481,37.6764,0.4933,-0.4898,0.1756,0.2192
17:04:55:832,1.7111,5.1581,7.947,36.5348,0.2537,-0.363,0.1617,0.2234
17:04:55:839,1.895,5.138,8.73,37.1991,0.1088,-0.1383,0.1159,0.2268
17:04:55:858,1.74,5.414,9.549,36.3222,0.08,-0.1191,0.0434,0.2291
17:04:55:878,1.491,5.933,9.8801,37.2055,0.0789,-0.2618,-0.0045,0.2306
17:04:55:898,1.419,6.4151,9.765,37.1964,0.0726,-0.3119,-0.0322,0.2315
17:04:55:917,2.063,6.1271,9.5711,36.9025,-0.003,-0.395,-0.0972,0.2323
17:04:55:938,3.279,5.246,9.137,36.9219,-0.312,-0.4685,-0.2963,0.2328
17:04:55:957,3.327,4.497,9.264,35.0578,-0.7413,-0.2651,-0.5382,0.232
17:04:55:982,2.226,4.013,9.839,36.8637,-0.8617,0.1578,-0.584,0.2291
17:04:55:997,1.584,3.551,10.5281,36.3082,-0.5644,0.242,-0.4157,0.2242
17:04:56:017,2.0749,3.0581,10.1381,36.2803,-0.1246,-0.1745,-0.2846,0.2188
17:04:56:040,2.846,2.799,9.056,36.0259,0.129,-0.5995,-0.3625,0.2143
17:04:56:057,3.0131,2.9021,7.926,35.8491,0.1045,-0.7615,-0.5243,0.2113
17:04:56:081,2.353,3.4151,7.368,35.7097,-0.1298,-0.6347,-0.6425,0.2092
17:04:56:097,1.601,3.764,7.0571,36.363,-0.3151,-0.2725,-0.5925,0.2073
17:04:56:117,1.191,3.8051,6.8921,35.5904,-0.2938,0.1387,-0.4774,0.205
17:04:56:139,0.9881,3.999,6.8201,35.7624,-0.1437,0.2943,-0.421,0.2027
17:04:56:156,0.8471,4.3001,6.765,35.7426,0.0289,0.0802,-0.4487,0.2015
17:04:56:190,0.7601,4.6451,6.693,35.5756,0.1557,-0.2362,-0.5446,0.2014
17:04:56:199,0.5711,4.878,6.729,36.2134,0.1961,-0.3748,-0.6394,0.202
17:04:56:216,0.15,5.349,7.1141,35.3541,0.1141,-0.3769,-0.6362,0.203
17:04:56:237,0.0401,5.5481,7.658,35.3477,-0.003,-0.2703,-0.5148,0.2042
17:04:56:256,0.107,5.61,8.3381,34.6896,-0.1255,-0.036,-0.4008,0.2052
17:04:56:279,-0.0191,5.8661,9.288,34.5379,-0.1798,0.2346,-0.2953,0.2059
17:04:56:295,-0.18,5.8451,10.385,35.4474,-0.0798,0.4018,-0.2079,0.2063
17:04:56:315,-0.3041,5.838,11.22,34.6509,0.1152,0.3645,-0.1536,0.2068
17:04:56:334,-0.488,6.012,11.1941,35.2623,0.3495,0.4103,-0.0631,0.208
17:04:56:354,-0.9791,6.6041,10.658,35.3442,0.5019,0.568,0.0903,0.2104
17:04:56:382,-0.4361,6.228,10.2221,34.6504,0.4837,0.4764,0.2746,0.2143
17:04:56:394,0.3221,5.435,9.446,35.4345,0.1886,0.2175,0.2725,0.2194
17:04:56:414,-0.366,5.067,9.137,34.6496,-0.1341,0.3293,0.1723,0.2239
17:04:56:435,-1.245,4.5161,9.1181,35.4429,-0.2375,0.5339,0.199,0.2268
17:04:56:454,-1.563,4.097,9.317,35.0787,-0.2258,0.4316,0.3194,0.2282
17:04:56:479,-1.185,3.764,9.293,34.8426,-0.2588,-0.004,0.4216,0.2287
17:04:56:493,-0.3881,3.237,8.975,34.7824,-0.3279,-0.2608,0.4408,0.228
17:04:56:513,0.116,2.957,8.558,35.0811,-0.4271,-0.1222,0.3917,0.2259
17:04:56:534,0.119,2.8181,8.28,35.0671,-0.524,0.193,0.3673,0.2225
17:04:56:555,-0.132,2.7491,7.9091,36.1006,-0.5218,0.5169,0.4429,0.2183
17:04:56:590,-0.302,2.859,7.809,35.9073,-0.4313,0.5947,0.6134,0.2139
17:04:56:593,-0.1631,3.281,7.667,35.5176,-0.3216,0.4242,0.7871,0.2099
17:04:56:614,0.215,3.6011,7.751,36.1284,-0.1426,0.29,0.9138,0.2063
17:04:56:633,0.7961,3.7331,7.701,36.0472,0.1301,0.2527,0.9702,0.2035
17:04:56:654,1.22,4.212,7.646,36.0703,0.341,0.1408,0.9266,0.202
17:04:56:678,1.682,4.581,7.698,36.0415,0.4146,-0.0573,0.8371,0.202
17:04:56:692,2.096,4.743,7.8521,36.407,0.3538,-0.2523,0.6507,0.2034
17:04:56:713,2.2541,4.767,8.2871,36.4204,0.2281,-0.3204,0.3928,0.2054
17:04:56:733,1.9691,4.875,8.8211,36.4149,0.1621,-0.198,0.2064,0.2072
17:04:56:753,2.001,4.901,9.5081,36.4149,0.1204,-0.281,0.1319,0.2086
17:04:56:782,2.472,4.784,9.659,37.0191,-0.0073,-0.3748,0.0466,0.2097
17:04:56:793,2.544,4.698,9.942,37.7452,-0.1852,-0.2788,-0.1004,0.2101
17:04:56:812,1.979,4.976,10.2311,36.2619,-0.2768,-0.0968,-0.1899,0.2094
17:04:56:832,2.444,4.535,10.382,37.2703,-0.3407,-0.1554,-0.1984,0.2077
17:04:56:854,3.3011,4.0661,10.193,37.9899,-0.5516,-0.2331,-0.2974,0.2053
17:04:56:880,3.083,3.8261,10.418,37.2793,-0.7157,-0.102,-0.4273,0.2019
17:04:56:893,2.412,3.563,10.5041,37.2569,-0.6028,0.1163,-0.4572,0.1973
17:04:56:912,2.039,3.3881,10.2821,37.6666,-0.3344,0.0887,-0.4029,0.1922
17:04:56:931,2.135,3.1421,9.573,37.5284,-0.1022,-0.1724,-0.3869,0.1877
17:04:56:952,2.336,2.8901,8.405,37.8807,-0.0319,-0.4206,-0.4753,0.1843
17:04:56:991,2.1041,2.8901,7.574,38.5219,-0.1235,-0.4386,-0.5999,0.1818
17:04:56:993,1.4951,3.053,7.332,38.4799,-0.2673,-0.4366,-0.6416,0.1796
17:04:57:011,1.1201,3.02,7.1051,39.1019,-0.2758,-0.3257,-0.5936,0.1771
17:04:57:032,0.9641,2.967,6.911,38.107,-0.1756,-0.1393,-0.5914,0.1743
17:04:57:052,0.686,3.182,6.882,38.7693,-0.0681,-0.0275,-0.6309,0.1718
17:04:57:080,0.32,3.554,7.1051,38.751,0.0428,-0.084,-0.6405,0.1704
17:04:57:091,0.011,3.9251,7.263,38.4404,0.1812,-0.2054,-0.6309,0.17
17:04:57:113,0.078,4.265,7.533,39.1183,0.3101,-0.3119,-0.5829,0.1703
17:04:57:134,0.3701,4.5971,8,38.8304,0.2089,-0.5228,-0.5478,0.1715
17:04:57:152,0.413,5.04,8.828,39.582,0.0183,-0.4909,-0.4998,0.1732
17:04:57:182,0.449,4.8941,9.932,39.3528,0.03,-0.1682,-0.4487,0.1744
17:04:57:200,0.2171,4.9331,10.5071,38.7949,0.2654,0.2527,-0.3965,0.1752
17:04:57:212,-0.026,5.232,10.6361,39.2532,0.47,0.4561,-0.3145,0.1768
17:04:57:232,-0.314,5.727,10.425,39.9212,0.4401,0.4114,-0.2229,0.1801
17:04:57:252,-0.701,6.3791,10.3061,39.2334,0.2622,0.3805,-0.078,0.1848
17:04:57:281,0.0041,6.0701,10.617,39.7693,-0.0169,0.1951,0.0807,0.1898
17:04:57:292,0.662,5.174,10.557,38.3111,-0.4345,0.0247,0.0286,0.1937
17:04:57:313,-0.048,4.217,10.818,39.3119,-0.6167,0.389,-0.0769,0.1951
17:04:57:333,-1.3571,3.6641,11.271,38.337,-0.4132,0.6874,0.021,0.1939
17:04:57:352,-1.8551,3.4121,11.472,39.4125,-0.0158,0.4273,0.2853,0.192
17:04:57:389,-0.986,2.9861,10.631,38.5853,0.2867,-0.1563,0.4877,0.191
17:04:57:394,0.023,2.73,9.1639,39.0438,0.3527,-0.3587,0.477,0.191
17:04:57:411,0.3371,2.8211,7.943,39.3069,0.1642,-0.1469,0.378,0.1916
17:04:57:432,0.195,2.7611,7.3061,39.3189,-0.1554,0.3102,0.3492,0.1921
17:04:57:451,-0.3731,2.706,7.473,39.0173,-0.4143,0.6277,0.4249,0.1922
17:04:57:477,-0.7571,2.658,7.971,38.5489,-0.4334,0.6106,0.6006,0.1913
17:04:57:492,-0.572,2.7251,8.103,38.2015,-0.1917,0.4359,0.8212,0.1897
17:04:57:518,0.14,2.931,7.8971,38.1796,0.1875,0.3378,0.983,0.1878
17:04:57:533,0.8561,3.1871,7.3661,37.5349,0.52,0.29,0.9798,0.1868
17:04:57:552,1.1651,3.549,6.875,37.5327,0.6596,0.1951,0.8425,0.1878
17:04:57:582,1.239,3.992,6.734,37.5327,0.5317,-0.036,0.689,0.1908
17:04:57:590,1.2371,4.3391,6.978,38.3104,0.2952,-0.2075,0.6165,0.1948
17:04:57:611,1.5911,4.3751,7.5881,37.536,0.1471,-0.1702,0.5932,0.1982
17:04:57:633,2.2421,4.296,8.4911,37.5197,0.0491,-0.2256,0.492,0.2005
17:04:57:650,2.7521,4.5041,9.219,38.1296,-0.1192,-0.4206,0.2927,0.2018
17:04:57:681,2.783,4.8011,9.9011,37.4141,-0.2705,-0.3961,0.1,0.2017
17:04:57:690,2.475,4.875,10.1741,37.4003,-0.2215,-0.0957,-0.0236,0.2002
17:04:57:710,1.962,5.3351,10.5311,37.4003,-0.0829,0.0055,-0.0737,0.1979
17:04:57:731,2.985,4.9301,10.605,37.0048,-0.1969,-0.4056,-0.1525,0.1961
17:04:57:751,3.923,4.2911,10.751,36.6679,-0.6145,-0.7849,-0.4434,0.1944
17:04:57:793,2.606,2.984,11.651,35.9992,-0.8532,0.0066,-0.6394,0.191
17:04:57:806,1.991,2.814,11.843,36.0044,-0.4291,0.3145,-0.3475,0.1853
17:04:57:828,2.4791,2.603,10.5311,36.353,0.0161,0.1515,-0.1515,0.1783
17:04:57:845,3.1091,2.514,8.5961,36.7226,0.2676,-0.0221,-0.2271,0.1723
17:04:57:865,2.958,2.7491,7.244,36.0264,0.2196,-0.2395,-0.4657,0.1686
17:04:57:886,2.1611,3.12,6.348,36.7174,-0.0542,-0.4195,-0.665,0.1672
17:04:57:906,1.364,3.36,6.051,36.0293,-0.2673,-0.2822,-0.6522,0.1672
17:04:57:927,1.143,3.3641,6.3071,35.3774,-0.2705,-0.0861,-0.5328,0.1674
17:04:57:946,1.388,3.4391,6.4181,36.0042,-0.1213,-0.003,-0.485,0.1668
17:04:57:965,1.452,3.63,6.468,35.0714,0.0587,-0.0392,-0.601,0.1656
17:04:57:986,0.995,4.0751,6.461,35.7213,0.1664,-0.1682,-0.7747,0.1646
17:04:58:005,0.495,4.4471,6.774,35.4734,0.1503,-0.3481,-0.846,0.1644
17:04:58:026,0.411,4.4801,7.2821,35.554,-0.0052,-0.5005,-0.796,0.165
17:04:58:045,0.447,4.497,8.07,35.5172,-0.1863,-0.4408,-0.6755,0.1661
17:04:58:065,0.279,4.775,9.231,34.6865,-0.2555,-0.1458,-0.5797,0.1668
17:04:58:085,0.035,4.878,10.401,34.6682,-0.1735,0.2079,-0.4977,0.1668
17:04:58:104,-0.383,4.842,11.5151,34.2502,0.0172,0.406,-0.3827,0.166
17:04:58:125,-0.773,5.024,12.132,34.0136,0.2654,0.4092,-0.1823,0.1653
17:04:58:144,-0.6731,5.1941,12.0101,34.6223,0.4624,0.3677,0.0392,0.1656
17:04:58:164,-0.503,5.663,11.745,34.6107,0.5605,0.4412,0.2544,0.1672
17:04:58:190,0.2261,5.447,11.426,34.0837,0.4731,0.3432,0.3587,0.1704
17:04:58:204,0.234,4.971,10.8491,34.4811,0.258,0.4082,0.2182,0.1749
17:04:58:225,-0.6461,4.5281,10.7891,34.0341,0.0982,0.503,0.1031,0.1801
17:04:58:244,-1.343,4.1381,10.574,33.7837,0.0704,0.551,0.1841,0.1848
17:04:58:263,-1.4651,3.719,10.143,33.3515,0.0556,0.4008,0.3013,0.1887
17:04:58:283,-1.1201,3.4151,9.611,33.3636,-0.0084,0.1951,0.3769,0.192
17:04:58:303,-0.551,3.135,9.003,34.0129,-0.1789,0.0279,0.3971,0.1947
17:04:58:325,-0.122,2.921,8.2541,32.6168,-0.4015,0.0833,0.3789,0.1965
17:04:58:343,0.08,2.838,7.3421,33.6289,-0.5911,0.4168,0.3823,0.1971
17:04:58:363,0.143,2.802,6.6161,33.365,-0.7455,0.7406,0.4291,0.1959
17:04:58:383,-0.1121,2.8931,7.2671,33.1611,-0.8916,0.4977,0.4812,0.1933
17:04:58:406,-0.0671,3.132,7.811,32.5546,-0.8212,-0.1265,0.6453,0.1896
17:04:58:425,0.708,3.005,8.232,32.8288,-0.3908,-0.2916,0.8764,0.185
17:04:58:442,1.505,3.1421,8.5271,32.7849,0.1929,-0.1617,1.0065,0.1789
17:04:58:462,2.276,3.35,8.041,33.3083,0.6702,0.0129,0.9372,0.1724
17:04:58:483,2.664,3.503,8.2631,33.9515,0.8279,-0.1085,0.6826,0.1676
17:04:58:502,3.0161,3.714,8.369,33.9515,0.7554,-0.6123,0.3439,0.1663
17:04:58:526,3.428,3.47,8.211,32.8707,0.6414,-0.6827,0.0381,0.1684
17:04:58:543,3.21,3.522,8.345,32.8607,0.4646,-0.5207,-0.2325,0.1721
17:04:58:562,2.7161,3.795,8.319,32.802,0.2292,-0.2938,-0.388,0.176
17:04:58:592,1.9601,4.107,8.673,34.0835,-0.0351,-0.0637,-0.4071,0.1797
17:04:58:602,1.076,4.899,9.501,34.0664,-0.2566,-0.1213,-0.307,0.1827
17:04:58:624,1.469,5.1671,10.2431,32.72,-0.4612,-0.4173,-0.2112,0.1847
17:04:58:642,2.994,4.3991,10.8611,33.3976,-0.7392,-0.6006,-0.3059,0.1854
17:04:58:661,3.507,3.692,11.948,32.7834,-0.9778,-0.542,-0.5382,0.1844
17:04:58:682,2.817,3.039,12.7931,33.4137,-0.8925,-0.2533,-0.6362,0.1808
17:04:58:701,2.12,2.4431,13.128,32.6769,-0.4782,-0.0019,-0.5393,0.1744
17:04:58:723,1.8521,2.3201,12.437,32.6622,0.0821,0.0172,-0.3187,0.1665
17:04:58:741,2.2811,2.208,10.509,32.6367,0.553,-0.0008,-0.1803,0.1591
17:04:58:760,2.721,2.1671,8.532,32.6127,0.7788,0.0225,-0.2218,0.1544
17:04:58:783,2.628,2.3711,6.98,32.2444,0.749,-0.0861,-0.3869,0.1554
17:04:58:800,2.037,2.6921,5.85,32.1898,0.586,-0.2277,-0.584,0.1595
17:04:58:823,1.5191,2.8901,5.07,32.5403,0.4539,-0.2714,-0.6831,0.1644
17:04:58:840,1.337,2.9531,4.727,32.523,0.3475,-0.2618,-0.7182,0.1692
17:04:58:860,1.268,3.075,4.7681,32.4359,0.2174,-0.3226,-0.7673,0.1736
17:04:58:882,0.993,3.3431,5.268,32.3838,0.0971,-0.3715,-0.8236,0.1774
17:04:58:900,0.662,3.6761,5.8601,31.898,0.0917,-0.4088,-0.8535,0.1801
17:04:58:920,0.435,3.996,6.137,32.7324,0.1013,-0.3908,-0.9163,0.1819
17:04:58:939,0.073,4.698,6.789,31.8387,-0.1011,-0.5463,-0.9355,0.1833
17:04:58:959,-0.1031,5.177,8.0021,31.5414,-0.4451,-0.6964,-0.8312,0.1839
17:04:58:990,-0.2711,5.184,9.542,31.7646,-0.6145,-0.5196,-0.6596,0.1829
17:04:58:999,-0.467,5.256,10.8401,31.7078,-0.4451,-0.0338,-0.4711,0.1799
17:04:59:020,-0.666,5.651,11.7971,32.1432,-0.132,0.4604,-0.2793,0.1762
17:04:59:039,-0.728,6.125,12.528,31.5853,0.0556,0.4466,-0.0939,0.1739
17:04:59:059,-0.639,6.5441,12.714,32.135,0.1536,0.257,0.1191,0.1736
17:04:59:079,-0.0101,6.431,12.6041,31.3684,0.2003,0.1578,0.2575,0.1747
17:04:59:099,0.5089,5.711,12.104,30.7965,0.0769,0.1323,0.1094,0.1764
17:04:59:120,-0.294,4.7359,11.6441,31.7507,-0.0106,0.3923,-0.111,0.178
17:04:59:138,-1.815,4.154,11.2271,31.7403,0.1386,0.7246,-0.0833,0.1795
17:04:59:159,-2.813,4.028,10.95,31.0101,0.3527,0.6533,0.1777,0.1816
17:04:59:183,-2.5211,3.8291,10.0691,31.6286,0.3591,0.176,0.4621,0.185
17:04:59:199,-1.511,3.534,9.209,31.6106,0.1099,-0.1756,0.6655,0.1889
17:04:59:221,-0.539,3.3881,8.6201,31.4944,-0.2929,-0.1435,0.8158,0.1917
17:04:59:238,0.2981,2.8421,8.2301,31.9935,-0.5879,0.3464,0.9266,0.1921
17:04:59:258,0.6221,2.445,8.1131,31.8254,-0.6784,0.9558,0.9628,0.19
17:04:59:282,0.4991,2.328,8.33,31.8185,-0.6039,1.188,0.9915,0.1867
17:04:59:298,0.21,2.613,8.251,31.7365,-0.3557,1.0132,1.1023,0.1832
17:04:59:317,0.554,2.9051,7.9001,31.6272,0.1056,0.7512,1.2983,0.1803
17:04:59:337,1.436,3.168,7.368,31.6817,0.5669,0.439,1.3698,0.1788
17:04:59:357,2.142,3.6491,7.05,32.3253,0.8374,0.0844,1.2152,0.1795
17:04:59:390,2.3021,4.1231,6.758,32.5636,0.9248,-0.1052,0.8988,0.1827
17:04:59:397,2.1611,4.746,6.8681,32.5608,0.8086,-0.2822,0.5739,0.1876
17:04:59:418,2.132,4.952,7.272,31.8715,0.4922,-0.4451,0.3481,0.1933
17:04:59:437,2.0171,4.856,8.079,32.538,0.096,-0.4429,0.1521,0.1986
17:04:59:457,1.907,4.7171,9.338,33.0955,-0.1821,-0.2981,0.0446,0.2021
17:04:59:478,1.7951,4.521,10.454,32.5183,-0.3142,-0.1393,-0.0258,0.2033
17:04:59:496,1.359,4.7,11.237,31.8351,-0.2779,0.0908,-0.0887,0.2024
17:04:59:517,0.665,5.232,11.7851,32.4509,-0.0531,0.2281,-0.0652,0.2004
17:04:59:537,1.311,5.067,11.7371,33.1102,0.1727,0.0439,-0.0183,0.1987
17:04:59:557,2.8601,4.281,11.3471,33.0979,0.0789,-0.3971,-0.193,0.1981
17:04:59:582,3.176,3.69,10.6601,32.4479,-0.2034,-0.4471,-0.503,0.1979
17:04:59:596,2.5871,3.156,9.894,32.4374,-0.3418,0.1024,-0.6095,0.197
17:04:59:616,1.637,3.17,9.894,33.0765,-0.3472,0.5371,-0.4679,0.1954
17:04:59:637,1.436,3.309,9.5231,33.0779,-0.2406,0.4146,-0.1728,0.1935
17:04:59:656,2.357,2.708,8.5361,33.0779,-0.0744,0.1706,-0.0205,0.1917
17:04:59:680,2.834,2.546,7.6721,33.7761,-0.0564,-0.2023,-0.1121,0.1903
17:04:59:696,2.652,2.795,6.8321,33.0875,-0.1607,-0.4334,-0.2112,0.189
17:04:59:715,2.171,2.979,6.185,33.6562,-0.2384,-0.281,-0.2633,0.1872
17:04:59:735,1.5581,3.156,5.934,33.0044,-0.1511,0.0663,-0.2537,0.1849
17:04:59:755,1.163,3.3431,6.0491,33.1219,0.0225,0.209,-0.2186,0.1828
17:04:59:790,0.993,3.7091,6.2831,34.3558,0.1354,0.047,-0.2516,0.1818
17:04:59:795,1.043,3.929,6.3221,34.3235,0.1833,-0.1937,-0.3497,0.182
17:04:59:815,1.0549,4.305,6.3341,34.3376,0.1875,-0.2916,-0.454,0.1829
17:04:59:835,0.792,4.839,6.645,34.3377,0.0832,-0.2331,-0.5254,0.1839
17:04:59:856,0.5021,5.234,7.605,34.8132,-0.1448,-0.1787,-0.5382,0.185
17:04:59:883,0.3491,5.229,8.5241,35.3791,-0.3567,-0.1116,-0.4753,0.1855
17:04:59:894,0.198,5.256,9.647,34.7434,-0.3802,0.0854,-0.3422,0.1851
17:04:59:914,0.413,5.0831,10.7651,35.3732,-0.1713,0.2665,-0.2069,0.1838
17:04:59:934,0.566,4.9661,11.414,34.8323,0.0544,0.307,-0.2218,0.1827
17:04:59:954,0.495,5.256,11.874,35.5303,0.1408,0.2025,-0.2601,0.1825
17:04:59:981,0.231,5.5601,11.594,35.5303,0.1503,0.225,-0.1398,0.1834
17:04:59:994,-0.026,5.49,11.3141,36.2312,0.177,0.5061,0.0296,0.185
17:05:00:013,-0.227,4.88,10.868,34.9731,0.1204,0.5712,0.0488,0.1874
17:05:00:034,-1.006,4.698,10.8281,35.7631,0.0311,0.47,0.0371,0.1901
17:05:00:053,-1.6211,4.535,10.7291,36.5236,0.1238,0.2911,0.1936,0.1927
17:05:00:081,-1.3841,4.032,10.3751,36.8272,0.3762,0.1632,0.3289,0.195
17:05:00:093,-0.639,3.53,9.5231,36.8549,0.5147,-0.0712,0.2672,0.1975
17:05:00:113,-0.1481,3.2831,8.522,36.8591,0.4465,-0.1276,0.1287,0.2006
17:05:00:133,0.066,2.996,7.7681,38.0764,0.1653,-0.0499,-0.0077,0.2039
17:05:00:153,-0.1121,2.7281,7.4231,38.8391,-0.2054,0.1152,-0.0908,0.2065
17:05:00:191,-0.572,2.6171,7.445,38.9744,-0.4493,0.3102,-0.012,0.2077
17:05:00:193,-0.771,2.6171,7.514,38.9724,-0.4388,0.5009,0.2214,0.2072
17:05:00:212,-0.7331,3.041,7.5641,38.5621,-0.23,0.6032,0.477,0.2054
17:05:00:233,-0.405,3.654,7.749,39.3163,-0.0115,0.4263,0.6528,0.2037
17:05:00:253,0.0521,3.972,7.7921,38.9564,0.2174,0.1899,0.7422,0.2029
17:05:00:279,0.432,4.116,7.5281,39.7518,0.5275,0.1184,0.7305,0.203
17:05:00:296,0.519,4.686,7.4351,39.4311,0.733,0.047,0.6507,0.2046
17:05:00:313,0.717,5.4401,7.715,39.3992,0.6553,-0.2427,0.5643,0.208
17:05:00:332,1.349,5.4071,8.163,40.2307,0.3868,-0.477,0.4269,0.2127
17:05:00:351,1.5821,4.952,8.675,40.5321,0.1994,-0.314,0.2256,0.2169
17:05:00:381,1.124,4.9571,9.762,40.5351,0.1599,-0.1361,0.0903,0.2198
17:05:00:394,0.801,5.0831,10.277,41.3633,0.1738,-0.1873,0.0946,0.2216
17:05:00:413,0.3581,5.639,10.3991,42.2083,0.2452,-0.0584,0.1671,0.2229
17:05:00:432,-0.1121,6.537,10.521,42.2071,0.3762,0.1259,0.2938,0.224
17:05:00:453,0.7631,6.233,10.473,41.7606,0.4678,-0.0403,0.3396,0.2261
17:05:00:482,2.726,4.887,9.8201,42.9756,0.3026,-0.4803,0.0807,0.2292
17:05:00:497,3.315,4.107,9.3101,42.9776,-0.082,-0.5261,-0.3187,0.2321
17:05:00:514,2.676,3.597,9.3911,42.9319,-0.3609,-0.1563,-0.4753,0.2335
17:05:00:532,2.072,3.204,9.42,44.2268,-0.3631,0.1919,-0.3816,0.2328
17:05:00:551,1.74,3.233,9.1661,43.7452,-0.2119,0.2516,-0.2122,0.2309
17:05:00:590,1.931,3.2351,8.366,44.1662,-0.0542,0.012,-0.1845,0.2288
17:05:00:598,2.108,3.161,7.1651,44.5896,0.0353,-0.1617,-0.2985,0.2271
17:05:00:613,1.919,3.3521,6.458,44.9261,0.0417,-0.198,-0.3975,0.2259
17:05:00:632,1.5431,3.8291,5.967,44.9421,-0.0041,-0.2054,-0.4199,0.2251
17:05:00:653,1.1891,4.32,5.568,45.7664,-0.0564,-0.1159,-0.4509,0.2246
17:05:00:680,0.866,4.791,5.642,45.3783,-0.132,-0.021,-0.5339,0.2244
17:05:00:695,0.7391,4.8581,6.152,46.6182,-0.2332,-0.1031,-0.632,0.2242
17:05:00:713,0.413,4.851,6.9611,46.5979,-0.2938,-0.2799,-0.7022,0.2236
17:05:00:732,-0.017,5.076,7.643,47.8516,-0.2076,-0.3332,-0.7161,0.2223
17:05:00:752,-0.1961,5.349,8.031,47.4568,-0.034,-0.216,-0.6713,0.2206
17:05:00:781,-0.117,5.4311,8.5601,48.7152,0.0619,-0.1884,-0.6331,0.2194
17:05:00:794,-0.2231,5.5121,9.066,48.6852,0.0192,-0.2959,-0.616,0.2192
17:05:00:812,-0.51,5.622,9.7241,47.467,0.0353,-0.2075,-0.5328,0.2195
17:05:00:832,-0.678,5.771,10.2911,49.221,0.1514,0.0194,-0.4051,0.2198
17:05:00:851,-0.687,6.063,10.5551,48.9268,0.1886,0.1558,-0.3113,0.2207
17:05:00:881,-0.6941,6.249,10.595,49.8438,0.1088,0.2761,-0.2282,0.2224
17:05:00:895,-1.238,6.695,10.533,49.8559,0.0459,0.5094,-0.0972,0.2246
17:05:00:910,-1.278,6.1181,10.5881,49.2265,0.0843,0.5862,0.0456,0.227
17:05:00:931,-1.611,5.306,10.208,50.7843,0.1013,0.3795,0.0115,0.2297
17:05:00:951,-2.564,5.129,10.1291,51.7621,0.2207,0.2261,0.0318,0.2322
17:05:00:991,-2.27,4.502,8.946,52.2918,0.4561,-0.084,0.2777,0.2348
17:05:01:011,-1.556,4.109,8.189,52.2997,0.1886,-0.2395,0.2043,0.2377
17:05:01:029,-1.187,3.762,8.022,52.2823,-0.2512,-0.2362,0.1287,0.241
17:05:01:048,-0.972,3.434,8.139,53.2156,-0.6625,-0.0861,0.1532,0.2438
17:05:01:067,-0.879,3.297,8.441,52.5261,-0.8541,0.2005,0.2885,0.2448
17:05:01:087,-0.759,3.36,8.505,53.4557,-0.7072,0.5147,0.4887,0.243
17:05:01:108,-0.431,3.35,8.127,52.0234,-0.2853,0.6991,0.6069,0.2387
17:05:01:128,-0.4121,3.759,7.437,53.8954,0.194,0.6414,0.6187,0.2335
17:05:01:147,-0.443,4.413,6.602,53.6376,0.5093,0.3923,0.6401,0.2291
17:05:01:167,-0.1631,4.8461,6.362,54.3604,0.5285,0.0012,0.6432,0.2273
17:05:01:187,0.171,5.1311,6.453,55.134,0.3805,-0.3801,0.6165,0.2285
17:05:01:208,0.5141,5.256,6.7811,55.1334,0.2782,-0.3652,0.5813,0.2318
17:05:01:227,0.794,5.3351,7.404,56.0857,0.2292,-0.2203,0.4962,0.2351
17:05:01:247,1.062,5.088,8.256,56.0704,0.1067,-0.2788,0.3119,0.2377
17:05:01:266,0.899,4.928,9.188,55.1818,-0.0755,-0.4866,0.1341,0.2397
17:05:01:287,0.5981,5.0141,9.7811,56.1493,-0.1576,-0.4632,0.0924,0.2411
17:05:01:307,0.114,5.622,10.1411,55.0452,-0.1138,-0.0499,0.1979,0.2411
17:05:01:326,-0.3971,6.515,10.4231,57.0833,0.0428,0.388,0.3619,0.2397
17:05:01:346,-0.146,6.9221,10.559,56.0998,0.1343,0.3858,0.4269,0.2377
17:05:01:365,1.641,5.744,10.5071,55.8843,-0.0808,-0.1702,0.2192,0.2367
17:05:01:390,2.798,4.3991,10.5071,57.1087,-0.4931,-0.6049,-0.1792,0.2372
17:05:01:407,2.441,3.513,11.031,57.1057,-0.688,-0.4653,-0.3432,0.2378
17:05:01:426,1.778,3.005,11.376,57.9419,-0.4175,-0.1052,-0.2016,0.2362
17:05:01:445,1.685,2.742,10.737,56.8954,0.1045,0.1132,0.0243,0.2322
17:05:01:465,2.08,3.0461,9.075,56.8697,0.5158,0.1653,0.1213,0.2274
17:05:01:485,2.4341,3.1991,7.059,57.7227,0.6755,0.1312,0.0221,0.2242
17:05:01:505,2.2781,3.362,5.51,57.6072,0.5807,0.0364,-0.2197,0.2237
17:05:01:524,1.641,3.87,4.746,57.5714,0.2728,-0.1628,-0.3699,0.2258
17:05:01:544,1.187,4.2889,4.4021,58.7864,-0.0936,-0.2427,-0.356,0.2296
17:05:01:565,0.983,4.38,4.6151,58.6993,-0.3535,-0.1042,-0.3465,0.2335
17:05:01:588,0.894,4.3601,5.369,58.8044,-0.4291,-0.0221,-0.4103,0.236
17:05:01:605,0.954,4.253,5.97,58.8044,-0.3609,-0.1255,-0.4924,0.2366
17:05:01:624,0.825,4.396,6.4271,57.8101,-0.2545,-0.2799,-0.5851,0.2356
17:05:01:644,0.504,4.6331,6.863,58.9603,-0.2023,-0.378,-0.6735,0.2336
17:05:01:664,0.035,4.9301,7.5401,58.9514,-0.2853,-0.4291,-0.6692,0.2312
17:05:01:684,-0.326,5.268,8.1461,60.2456,-0.4271,-0.3013,-0.5094,0.2289
17:05:01:704,-0.575,5.5721,9.039,60.2069,-0.5112,0.0566,-0.3102,0.2264
17:05:01:724,-0.6821,5.766,10.2461,60.3304,-0.4536,0.3454,-0.1504,0.2236
17:05:01:743,-0.888,6.015,11.388,60.3002,-0.2938,0.3517,-0.0566,0.2205
17:05:01:763,-1.2401,6.525,12.537,60.953,-0.1926,0.1004,0.0136,0.2175
17:05:01:790,-1.5251,6.7931,12.9131,60.9531,-0.0542,-0.0659,0.1426,0.2151
17:05:01:805,-1.14,6.218,12.9011,60.9513,0.1898,0.1269,0.2842,0.2134
17:05:01:823,-0.6731,5.081,12.288,59.8651,0.2887,0.1195,0.2171,0.212
17:05:01:843,-1.532,5.007,11.8211,60.8533,0.2771,0.1099,0.1606,0.2116
17:05:01:866,-2.253,4.6841,10.8281,60.7766,0.4305,0.2815,0.3365,0.2125
17:05:01:882,-2.289,4.38,9.614,59.5138,0.6605,0.5648,0.5261,0.2142
17:05:01:904,-1.923,4.317,8.3861,61.4277,0.652,0.4199,0.5963,0.2167
17:05:01:923,-1.2881,4.181,7.0931,61.1127,0.3239,0.0833,0.5335,0.2208
17:05:01:943,-0.867,3.8291,6.413,60.1169,-0.281,-0.0935,0.4099,0.2263
17:05:01:962,-0.8981,3.441,6.8561,60.0949,-0.8723,-0.0243,0.4377,0.2316
17:05:01:983,-0.879,2.945,7.646,60.3888,-1.127,0.1877,0.6251,0.2346
17:05:02:006,-0.539,2.543,8.319,60.496,-0.9789,0.487,0.8414,0.2336
17:05:02:022,-0.033,2.318,8.8841,60.5705,-0.5485,0.667,1.016,0.2288
17:05:02:042,0.401,2.672,8.955,61.2185,-0.0148,0.5627,1.1598,0.2218
17:05:02:062,1.11,3.135,8.498,60.185,0.5093,0.4029,1.2473,0.215
17:05:02:082,1.926,3.611,7.5191,59.955,0.8832,0.3549,1.2121,0.2103
17:05:02:104,2.594,4.008,6.815,59.5827,0.9632,0.2804,0.9776,0.2086
17:05:02:121,2.853,4.425,6.599,60.5507,0.7224,0.0129,0.6038,0.2105
17:05:02:142,2.558,4.719,7.0661,61.4144,0.3495,-0.2597,0.2927,0.2154
17:05:02:161,2.408,4.619,7.8161,59.5902,0.0641,-0.3758,0.1446,0.2215
17:05:02:193,2.2901,4.901,8.474,60.5227,-0.0979,-0.2938,0.0551,0.2267
17:05:02:204,2.099,5.22,8.84,60.6108,-0.1917,-0.0989,-0.0769,0.23
17:05:02:221,1.5911,5.792,9.417,59.6085,-0.2853,0.0034,-0.2027,0.2313
17:05:02:240,1.301,6.039,10.176,59.8263,-0.3578,-0.216,-0.2559,0.2312
17:05:02:260,1.9481,5.4881,10.349,58.8305,-0.4569,-0.4909,-0.3389,0.2302
17:05:02:283,2.889,4.674,10.488,60.2237,-0.7583,-0.6592,-0.5552,0.2285
17:05:02:301,2.81,3.9581,11.271,59.9187,-1.1142,-0.6293,-0.7309,0.2257
17:05:02:320,2.123,3.3791,12.2261,60.4583,-1.1067,-0.5153,-0.6533,0.221
17:05:02:340,1.8401,2.852,12.2231,59.351,-0.6517,-0.3013,-0.4082,0.2138
17:05:02:359,2.154,2.747,11.22,60.536,-0.067,-0.1128,-0.2155,0.2045
17:05:02:382,2.918,2.694,9.255,59.5066,0.3186,-0.067,-0.1984,0.189
17:05:02:400,3.14,2.646,7.5041,59.826,0.3688,-0.1904,-0.3986,0.1858
17:05:02:420,2.625,2.874,6.116,58.8558,0.1909,-0.3237,-0.6575,0.1853
17:05:02:439,1.977,2.936,5.2991,59.6476,0.0098,-0.2427,-0.763,0.186
17:05:02:459,1.634,2.766,5.117,58.6664,-0.0777,-0.1383,-0.7853,0.1866
17:05:02:488,1.409,2.828,5.211,58.9827,-0.1235,-0.2149,-0.8577,0.187
17:05:02:502,1.1291,2.8301,5.393,58.9681,-0.1405,-0.378,-0.976,0.187
17:05:02:519,0.7721,2.9381,5.474,59.1894,-0.1511,-0.4781,-1.0879,0.1866
17:05:02:539,0.2741,3.4481,5.8331,59.5762,-0.2427,-0.5303,-1.1848,0.1856
17:05:02:559,-0.2321,4.001,6.6281,59.9724,-0.4612,-0.5526,-1.237,0.1842
17:05:02:590,-0.678,4.224,8.251,59.6098,-0.7232,-0.3769,-1.2306,0.1819
17:05:02:599,-1.8221,4.43,10.284,57.4469,-0.7381,-0.0329,-1.1155,0.1781
17:05:02:619,-2.9861,5.0951,11.936,58.932,-0.3706,0.2303,-0.8279,0.1735
17:05:02:638,-3.311,5.538,12.65,58.3546,0.0906,0.2804,-0.4945,0.1696
17:05:02:659,-3.057,5.8181,13.004,59.1581,0.2824,0.1451,-0.2218,0.1678
17:05:02:680,-2.835,6.333,13.418,57.7966,0.1727,-0.0349,0.0392,0.1684
17:05:02:699,-2.622,6.618,13.3991,57.357,0.0544,0.1536,0.3343,0.1699
17:05:02:718,-1.815,5.61,13.265,58.3038,0.0353,0.4956,0.4994,0.1713
17:05:02:737,-1.973,4.878,12.927,56.9759,0.1418,0.7597,0.5142,0.1726
17:05:02:758,-2.571,4.305,12.039,58.5268,0.505,0.9441,0.6134,0.1745
17:05:02:782,-2.885,4.1021,10.7081,57.8417,0.9163,0.9089,0.7316,0.178
17:05:02:797,-2.681,4.3271,9.4729,56.6708,1.0227,0.3986,0.7891,0.1842
17:05:02:817,-1.7981,4.1471,8.1821,57.4972,0.7245,-0.1606,0.7624,0.1923
17:05:02:838,-1.044,3.5921,7.742,57.4544,0.1173,-0.3791,0.6475,0.2004
17:05:02:858,-0.7571,3.0941,8.115,56.6943,-0.4803,-0.2597,0.6401,0.2059
17:05:02:881,-0.4811,2.526,8.6441,56.3264,-0.7722,0.1909,0.8062,0.2073
17:05:02:899,-0.201,1.9331,8.967,56.2546,-0.6667,0.8194,1.0619,0.205
17:05:02:917,0.2891,1.6451,9.099,56.7997,-0.3185,1.1144,1.2397,0.2008
17:05:02:937,0.729,2.0089,8.747,55.5162,0.0534,0.9675,1.3207,0.1973
17:05:02:957,1.206,2.4071,8.441,56.2086,0.4166,0.5637,1.3186,0.1954
17:05:02:994,1.878,2.6681,7.476,55.7279,0.8097,0.3059,1.2897,0.1957
17:05:02:997,2.472,2.991,6.686,56.6923,1.1059,0.2409,1.1811,0.1982
17:05:03:016,2.891,3.441,6.236,54.5799,1.1538,0.0162,0.9404,0.2033
17:05:03:036,3.114,4.0181,6.0221,56.2829,0.9206,-0.3035,0.6421,0.2106
17:05:03:057,3.2981,4.358,6.3341,55.091,0.5317,-0.5367,0.3993,0.2185
17:05:03:078,3.578,4.205,6.8081,55.4134,0.2196,-0.5228,0.2086,0.2252
17:05:03:097,3.794,3.9341,7.205,54.4002,0.0214,-0.3343,-0.0386,0.2297
17:05:03:116,3.36,4.3001,7.646,54.5897,-0.1884,-0.2086,-0.3241,0.2321
17:05:03:136,2.1251,5.1191,8.1821,54.8686,-0.3557,-0.1563,-0.5041,0.2328
17:05:03:156,1.457,5.646,8.8691,54.1741,-0.5059,-0.4482,-0.5126,0.2321
17:05:03:184,2.187,5.538,8.898,53.8641,-0.7626,-0.6997,-0.5072,0.23
17:05:03:195,3.138,5.3711,9.8891,54.1196,-1.2335,-0.8317,-0.6425,0.2259
17:05:03:215,3.2861,4.8941,11.132,54.2683,-1.6265,-0.7956,-0.7587,0.219
17:05:03:235,2.8721,3.9461,12.597,54.0453,-1.6446,-0.4718,-0.8269,0.2084
17:05:03:256,1.9841,3.539,13.4831,52.9681,-1.1855,-0.1255,-0.7619,0.1952
17:05:03:280,1.814,3.1391,13.2341,53.3099,-0.443,0.0268,-0.5862,0.1816
17:05:03:297,2.252,2.637,11.6201,54.1936,0.1408,-0.0446,-0.6138,0.1708
17:05:03:315,2.151,2.39,9.81,53.3819,0.4038,-0.1202,-0.8108,0.1645
17:05:03:335,1.347,2.409,8.357,53.0971,0.4667,-0.1446,-0.9611,0.1623
17:05:03:355,0.5141,2.438,7.289,53.4411,0.4911,-0.1489,-0.9643,0.1628
17:05:03:391,0.095,2.534,6.365,53.4063,0.536,-0.1585,-0.8577,0.165
17:05:03:397,0.119,2.732,5.6711,53.3553,0.5508,-0.1947,-0.7385,0.1685
17:05:03:414,0.21,3.108,5.3231,53.1981,0.4731,-0.3066,-0.7002,0.1729
17:05:03:433,0.066,3.642,5.0381,53.3497,0.3239,-0.3524,-0.7587,0.1778
17:05:03:453,-0.4721,4.1981,5.223,52.7527,0.1705,-0.2703,-0.8429,0.1821
17:05:03:478,-1.034,4.5731,5.6681,52.7527,-0.0084,-0.2714,-0.8907,0.1855
17:05:03:497,-1.5611,4.9901,6.585,52.7024,-0.3077,-0.4366,-0.8662,0.1878
17:05:03:513,-1.8671,5.328,7.9691,53.1852,-0.671,-0.6358,-0.7215,0.1884
17:05:03:534,-1.839,5.093,9.4511,50.6176,-0.8202,-0.3886,-0.5063,0.1864
17:05:03:554,-2.078,5.079,10.931,52.2471,-0.6093,0.1013,-0.2868,0.182
17:05:03:581,-2.076,5.2991,11.678,52.0518,-0.215,0.4817,-0.1024,0.1769
17:05:03:595,-2.016,5.756,11.778,52.0585,-0.0308,0.4551,-0.0012,0.1733
17:05:03:613,-2.011,6.321,12.149,52.0338,-0.1298,0.2005,0.0946,0.172
17:05:03:632,-1.089,5.72,12.9011,52.3468,-0.4217,-0.2842,0.2054,0.1718
17:05:03:653,-0.144,4.442,13.461,51.6137,-0.6113,-0.3663,0.2661,0.1706
17:05:03:681,-0.33,3.537,13.571,51.8817,-0.3642,0.1419,0.3545,0.167
17:05:03:693,-0.9431,3.1031,13.169,51.8388,0.2665,0.7673,0.5153,0.1626
17:05:03:714,-0.876,2.886,12.113,52.2162,0.7565,0.6533,0.6304,0.1607
17:05:03:732,-0.455,3.003,10.152,51.8631,0.8331,0.1899,0.6655,0.1628
17:05:03:752,-0.014,2.9771,8.201,50.7822,0.5669,0.062,0.6368,0.1675
17:05:03:791,-0.0191,2.8211,6.86,51.1654,0.1152,0.2911,0.5952,0.1726
17:05:03:794,-0.417,2.802,6.372,51.1632,-0.2716,0.7033,0.6933,0.1767
17:05:03:812,-0.663,2.78,6.6881,51.0972,-0.4388,0.9333,0.9479,0.1792
17:05:03:831,-0.189,2.526,7.1621,51.0771,-0.4282,0.7491,1.1396,0.1801
17:05:03:851,0.2651,2.706,7.545,52.0036,-0.3131,0.373,1.2217,0.1798
17:05:03:879,0.6071,2.9051,7.8881,51.1421,-0.0243,0.1291,1.276,0.1783
17:05:03:892,1.3451,2.8811,7.998,51.1214,0.3814,0.0396,1.2909,0.1767
17:05:03:912,2.0891,3.12,7.799,50.3324,0.6287,-0.036,1.1672,0.1762
17:05:03:931,2.415,3.587,8.048,50.7311,0.634,-0.1649,0.9394,0.1775
17:05:03:952,2.5391,3.8891,8.283,51.1939,0.5508,-0.2373,0.6805,0.1803
17:05:03:981,2.645,3.965,8.73,51.5486,0.4496,-0.2447,0.4505,0.1836
17:05:03:994,2.6351,4.054,9.209,49.9395,0.341,-0.2714,0.2544,0.1868
17:05:04:011,2.7911,4.0301,9.341,50.3268,0.2227,-0.3098,0.0786,0.1897
17:05:04:031,2.772,4.071,9.18,51.5434,0.111,-0.1606,-0.0865,0.1918
17:05:04:051,2.286,4.593,9.195,50.6582,0.0107,0.0674,-0.1845,0.1933
17:05:04:082,2.726,4.494,9.362,51.5434,-0.1948,-0.0158,-0.2314,0.1942
17:05:04:093,3.492,3.858,9.5111,50.6742,-0.5879,-0.3332,-0.4188,0.1945
17:05:04:113,3.123,3.393,9.8801,50.6791,-0.9245,-0.3982,-0.6501,0.1929
17:05:04:131,2.087,3.285,10.404,50.6245,-0.9724,-0.0627,-0.6127,0.1883
17:05:04:152,1.46,3.113,10.866,50.5452,-0.7296,0.1749,-0.3517,0.1816
17:05:04:191,2.4581,2.531,9.5321,50.5971,-0.0701,-0.2555,-0.1121,0.1744
17:05:04:209,2.57,2.811,8.345,50.5975,0.0459,-0.2907,-0.2207,0.1681
17:05:04:229,2.448,2.981,7.682,49.7686,-0.0115,-0.3237,-0.3124,0.1634
17:05:04:250,2.2541,3.06,7.313,51.0283,-0.181,-0.363,-0.404,0.1602
17:05:04:269,1.8671,3.218,7.289,51.4747,-0.2427,-0.2447,-0.4349,0.1581
17:05:04:290,1.728,3.237,7.2581,50.6482,-0.099,-0.0551,-0.4401,0.1562
17:05:04:308,1.529,3.3911,7.026,50.5626,0.1397,0.0769,-0.5105,0.1539
17:05:04:329,1.1171,3.767,6.7931,51.0219,0.3464,0.0183,-0.6288,0.1521
17:05:04:349,0.624,4.329,6.621,49.3562,0.3825,-0.2501,-0.7363,0.1515
17:05:04:369,0.2381,4.796,7.2701,49.9365,0.1738,-0.6102,-0.78,0.1528
17:05:04:388,0.0281,4.782,8.201,50.3912,-0.0499,-0.7476,-0.7044,0.1553
17:05:04:408,-0.1361,4.676,9.48,50.9004,-0.0254,-0.4514,-0.6064,0.1576
17:05:04:428,-0.326,4.8221,10.241,50.3095,0.2174,-0.0786,-0.4967,0.1587
17:05:04:448,-0.3281,5.1071,10.5641,51.4206,0.3751,0.2357,-0.4253,0.1588
17:05:04:468,-0.819,5.567,11.0981,51.0601,0.275,0.2963,-0.388,0.1595
17:05:04:488,-1.599,5.9261,11.606,51.5491,0.2313,0.3347,-0.2357,0.1617
17:05:04:508,-2.0089,6.4151,11.714,50.5178,0.4411,0.5669,0.0776,0.1652
17:05:04:528,-1.056,5.9261,11.646,51.3249,0.5584,0.4753,0.2853,0.1689
17:05:04:548,-0.4001,4.8371,11.249,50.6891,0.4007,0.1888,0.1446,0.1733
17:05:04:568,-1.0991,4.145,11.0861,52.3772,0.1823,0.1834,-0.0034,0.1786
17:05:04:591,-1.958,3.81,10.95,52.1708,0.1695,0.4711,0.1862,0.1839
17:05:04:607,-2.081,3.539,10.356,52.1767,0.3282,0.6831,0.6155,0.1882
17:05:04:627,-1.2311,3.3401,8.958,49.604,0.4124,0.6788,0.8818,0.1917
17:05:04:647,-0.153,3.264,7.5671,50.4067,0.2153,0.5402,0.8519,0.1954
17:05:04:667,0.296,3.029,6.8681,51.1751,-0.2289,0.3943,0.7103,0.1996
17:05:04:690,0.035,2.826,6.939,50.7225,-0.6337,0.3336,0.7039,0.2036
17:05:04:707,-0.117,2.603,6.923,52.3836,-0.7733,0.5445,0.9053,0.206
17:05:04:727,0.0761,2.598,7.023,52.4475,-0.6391,0.9003,1.2141,0.2054
17:05:04:746,0.677,2.886,7.241,52.5378,-0.4015,1.0388,1.4187,0.2023
17:05:04:771,1.1291,3.336,7.722,53.2157,-0.2267,0.7523,1.4475,0.198
17:05:04:786,1.359,3.7211,8.378,52.1529,-0.0521,0.2047,1.3505,0.1941
17:05:04:806,1.8431,3.903,8.57,52.9618,0.1823,-0.2075,1.1843,0.1913
17:05:04:826,2.453,4.152,8.697,52.0535,0.3729,-0.2672,1.0054,0.1892
17:05:04:846,3.021,4.334,9.092,52.657,0.4379,-0.2277,0.8243,0.1877
17:05:04:865,3.53,4.353,9.542,53.0939,0.3868,-0.2544,0.5474,0.1874
17:05:04:885,3.672,4.257,9.923,53.5383,0.2185,-0.3311,0.1873,0.1884
17:05:04:905,3.2861,4.0751,10.145,53.5213,0.1034,-0.2512,-0.0748,0.1901
17:05:04:925,2.745,4.107,10.2101,52.9704,0.1119,-0.0786,-0.1675,0.1917
17:05:04:945,2.147,4.77,10.1411,52.9542,0.146,-0.0488,-0.1781,0.1928
17:05:04:969,2.621,5.069,9.875,52.9489,0.1056,-0.1265,-0.2261,0.1936
17:05:04:992,3.42,4.6091,9.738,54.1426,-0.2438,-0.3513,-0.5285,0.1944
17:05:05:005,2.8001,4.0181,9.7571,53.2813,-0.6667,-0.3535,-0.8801,0.1955
17:05:05:026,1.539,3.546,10.157,54.09,-0.8117,0.0375,-0.8865,0.1958
17:05:05:045,0.684,3.446,10.571,54.0576,-0.6178,0.3028,-0.5776,0.1939
17:05:05:067,1.139,3.051,10.38,54.8721,-0.2406,0.1013,-0.2815,0.19
17:05:05:086,2.333,2.603,9.089,54.0034,-0.0063,-0.2927,-0.2868,0.1854
17:05:05:104,2.652,2.747,7.605,54.0034,-0.0808,-0.4036,-0.5083,0.1815
17:05:05:124,2.12,2.795,6.614,54.3486,-0.3312,-0.1958,-0.6755,0.1786
17:05:05:144,1.292,2.795,6.183,53.9618,-0.4654,0.1621,-0.6553,0.1765
17:05:05:166,0.899,2.747,6.123,54.6893,-0.3855,0.3389,-0.5393,0.1742
17:05:05:185,0.911,2.8541,6.188,54.3108,-0.2076,0.1942,-0.4625,0.1715
17:05:05:204,1.1291,3.048,6.192,54.3192,-0.018,-0.1255,-0.4859,0.1689
17:05:05:224,1.287,3.3641,6.039,55.5219,0.0874,-0.4047,-0.6245,0.167
17:05:05:244,1.143,3.7811,6.1541,55.0923,0.0906,-0.459,-0.813,0.1659
17:05:05:263,0.957,3.9581,6.65,55.4564,-0.0084,-0.413,-0.9504,0.1653
17:05:05:284,0.4751,4.071,7.8131,55.8412,-0.2045,-0.4164,-1.0666,0.1651
17:05:05:303,-0.285,4.296,9.219,56.2552,-0.3567,-0.4781,-1.0644,0.165
17:05:05:322,-0.8831,4.5281,10.3151,55.131,-0.2981,-0.2703,-0.9185,0.1645
17:05:05:343,-1.4411,4.983,11.192,55.4318,-0.084,0.1046,-0.7215,0.1632
17:05:05:363,-1.8671,5.4641,11.766,57.0664,0.1375,0.3645,-0.4987,0.1612
17:05:05:390,-1.9781,6.0341,12.0101,56.2076,0.242,0.3869,-0.2282,0.1597
17:05:05:403,-1.743,6.704,12.188,56.1764,0.1514,0.2261,0.019,0.16
17:05:05:422,-1.01,6.755,12.575,56.1611,-0.1394,0.0162,0.1265,0.1619
17:05:05:442,-0.33,5.5961,12.7811,56.1226,-0.4782,-0.0147,0.0349,0.1646
17:05:05:466,-0.855,4.1951,12.99,56.511,-0.4962,0.3816,-0.0418,0.1665
17:05:05:482,-2.1,3.692,12.872,55.7275,-0.034,0.8471,0.1552,0.1661
17:05:05:502,-2.4041,3.561,12.353,57.4311,0.5914,0.7289,0.461,0.1642
17:05:05:522,-1.6421,3.285,10.61,56.6496,0.8971,0.1686,0.5185,0.163
17:05:05:542,-1.008,3.185,8.867,57.4495,0.782,-0.1926,0.4195,0.1647
17:05:05:562,-0.7781,3.216,7.581,57.0472,0.3389,-0.2149,0.3993,0.1693
17:05:05:582,-0.587,3.048,6.882,57.0129,-0.1576,0.1195,0.5389,0.175
17:05:05:601,-0.3731,2.718,7.1651,57.4636,-0.4953,0.52,0.7348,0.1801
17:05:05:621,-0.024,2.2151,7.658,56.2223,-0.573,0.5317,0.884,0.1831
17:05:05:641,0.2501,2.0381,7.61,58.0909,-0.3844,0.3986,1.0065,0.1836
17:05:05:661,0.5231,2.352,7.452,57.407,-0.0403,0.2815,1.1535,0.182
17:05:05:680,1.256,2.639,7.289,57.0453,0.3772,0.1845,1.2717,0.1792
17:05:05:700,1.946,2.816,7.095,57.6261,0.7437,0.1312,1.1683,0.1768
17:05:05:721,2.24,3.2261,7.1,57.6033,0.8524,-0.1852,0.8403,0.1761
17:05:05:740,2.154,3.716,7.028,58.048,0.7117,-0.5494,0.4482,0.178
17:05:05:760,2.037,4.071,7.236,57.6224,0.407,-0.7359,0.1904,0.182
17:05:05:791,2.403,3.905,7.701,58.6169,0.0641,-0.6251,0.054,0.1869
17:05:05:799,2.4941,3.74,8.606,58.6277,-0.2417,-0.3663,-0.1376,0.191
17:05:05:820,2.072,3.8,9.4631,57.3565,-0.4143,-0.2129,-0.29,0.1934
17:05:05:840,1.481,4.4231,9.968,58.1938,-0.4356,-0.1052,-0.2846,0.1937
17:05:05:860,1.7111,4.973,10.203,57.6399,-0.4505,-0.1042,-0.2357,0.1921
17:05:05:888,3.308,4.5161,10.7081,58.4806,-0.7168,-0.4153,-0.3847,0.1891
17:05:05:899,4.2341,3.515,11.936,57.6576,-1.2782,-0.9756,-0.8056,0.1858
17:05:05:919,3.818,2.531,13.028,58.7533,-1.6213,-1.0256,-1.0421,0.1814
17:05:05:939,2.6141,2.079,13.277,58.2159,-1.2398,-0.2597,-0.8013,0.1741
17:05:05:960,1.8041,1.8131,12.573,57.8057,-0.3557,0.6287,-0.2868,0.1628
17:05:05:989,2.0201,1.8731,10.67,57.0223,0.4316,0.8801,0.0839,0.14
17:05:05:999,2.654,1.935,8.8001,57.0073,0.8001,0.6106,0.133,0.1359
17:05:06:019,3.09,1.94,7.595,57.8687,0.7958,-0.1415,-0.161,0.1371
17:05:06:038,2.606,2.313,6.621,58.1125,0.6094,-0.8339,-0.5276,0.1411
17:05:06:064,1.7351,2.5961,6.056,58.497,0.503,-0.9148,-0.6703,0.1455
17:05:06:082,1.416,2.364,5.685,59.7352,0.5999,-0.6262,-0.6564,0.1491
17:05:06:098,1.38,2.481,5.1701,59.7722,0.7054,-0.3237,-0.6755,0.1526
17:05:06:118,1.2011,2.8421,5.189,59.8277,0.6489,-0.2544,-0.7459,0.157
17:05:06:138,0.705,3.513,5.556,59.6633,0.4177,-0.5228,-0.8386,0.1623
17:05:06:161,0.2051,4.322,5.951,59.4364,0.1812,-0.6517,-0.8609,0.1673
17:05:06:193,0.2381,4.751,7.311,60.9345,0.0758,-0.477,-0.8429,0.1708
17:05:06:198,0.1241,4.9541,8.309,60.8834,0.1759,-0.0073,-0.8865,0.173
17:05:06:218,-0.9701,5.601,9.5711,59.9791,0.2824,0.4509,-0.993,0.175
17:05:06:238,-2.442,6.75,10.7081,60.4637,0.3378,0.4423,-0.9078,0.1784
17:05:06:257,-3.117,7.7,11.3141,61.0217,0.3932,0.3326,-0.4987,0.1831
17:05:06:281,-2.916,8.33,12.176,61.6095,0.4433,0.1888,0.021,0.1885
17:05:06:298,-1.9871,8.5211,12.666,60.8698,0.5306,0.1067,0.3886,0.194
17:05:06:317,-0.6491,7.923,13.284,61.7297,0.5829,0.0151,0.3971,0.1993
17:05:06:337,-0.278,6.6281,12.9611,61.7137,0.5147,-0.198,0.0957,0.2045
17:05:06:360,-1.068,5.093,11.826,61.9685,0.4817,0.0759,-0.0887,0.2093
17:05:06:382,-2.126,4.1741,10.9931,62.1488,0.5466,0.4956,0.054,0.2137
17:05:06:397,-2.523,4.4201,9.927,62.3892,0.652,0.6724,0.5153,0.2187
17:05:06:417,-1.578,4.499,8.802,62.3443,0.5519,0.5786,0.9159,0.2247
17:05:06:437,-0.479,4.236,7.758,62.8038,0.1695,0.2292,0.9085,0.231
17:05:06:457,-0.053,3.975,7.071,63.0478,-0.329,-0.0403,0.7157,0.236
17:05:06:482,0.291,3.5681,7.052,63.3229,-0.72,-0.0679,0.6251,0.2381
17:05:06:497,0.6,3.101,6.9851,63.2051,-0.8404,0.2474,0.6868,0.2365
17:05:06:516,0.8441,2.4431,6.8291,62.9404,-0.6678,0.7332,0.7785,0.2319
17:05:06:536,1.0451,2.2151,6.746,62.7843,-0.4206,0.9419,0.7657,0.2263
17:05:06:555,0.849,2.8781,7.5881,62.2997,-0.2822,0.6244,0.7519,0.2216
17:05:06:593,1.088,3.032,7.5041,63.3925,0.0183,0.2314,0.9318,0.2182
17:05:06:597,1.7951,2.787,6.86,63.3914,0.4518,0.3923,1.0108,0.2159
17:05:06:616,2.106,3.5651,6.755,62.4106,0.6553,0.5339,0.8935,0.2155
17:05:06:635,2.408,4.451,6.516,62.6932,0.5338,0.487,0.7455,0.2178
17:05:06:656,2.805,4.808,6.8171,62.1165,0.179,0.4444,0.4738,0.2217
17:05:06:679,2.621,5.1341,7.995,63.3244,-0.1906,0.1962,0.1713,0.2256
17:05:06:695,2.621,4.806,9.137,62.3523,-0.4015,-0.0818,-0.0088,0.2279
17:05:06:715,2.412,4.7651,9.552,63.5759,-0.4877,-0.021,-0.1057,0.2279
17:05:06:735,1.491,5.562,10.4111,63.2058,-0.4493,0.2868,-0.0769,0.2259
17:05:06:754,1.122,5.912,10.847,63.5071,-0.2844,0.3432,0.0733,0.2228
17:05:06:781,2.3171,5.172,10.5911,64.4156,-0.231,0.0066,0.0861,0.2202
17:05:06:794,3.384,4.705,10.344,63.4922,-0.4953,-0.395,-0.2368,0.2179
17:05:06:814,3.162,4.035,10.562,62.5004,-0.7221,-0.3354,-0.5371,0.2147
17:05:06:834,2.496,2.79,10.646,63.1799,-0.6178,0.0109,-0.5968,0.21
17:05:06:858,1.716,2.337,10.3031,63.1583,-0.3429,0.1302,-0.5009,0.2046
17:05:06:879,1.409,2.577,9.36,62.83,-0.0936,0.0001,-0.2687,0.1999
17:05:06:894,1.79,2.7731,7.9691,62.83,-0.0115,-0.1937,-0.0887,0.1964
17:05:06:915,2.19,3.0941,6.863,63.2077,-0.0734,-0.3129,-0.0748,0.1939
17:05:06:933,2.324,3.336,6.3221,63.5925,-0.2087,-0.3769,-0.2079,0.1918
17:05:06:956,2.07,3.5891,6.185,62.6976,-0.3503,-0.3492,-0.3838,0.1897
17:05:06:992,1.625,3.8261,6.5201,63.1012,-0.4408,-0.2746,-0.5285,0.187
17:05:06:994,1.292,4.02,6.9971,63.0798,-0.4271,-0.199,-0.6084,0.1838
17:05:07:013,1.124,3.968,7.3421,63.1979,-0.2844,-0.0786,-0.6618,0.1802
17:05:07:033,0.7151,4.0781,7.3421,62.0468,-0.0595,0.1035,-0.7054,0.1769
17:05:07:056,0.0251,4.425,7.689,61.8564,0.1323,0.1664,-0.7139,0.1747
17:05:07:078,-0.294,4.566,8.465,61.6869,0.2089,-0.1682,-0.6628,0.1743
17:05:07:093,-0.321,4.712,8.702,61.9636,0.2014,-0.4301,-0.5541,0.1754
17:05:07:112,-0.2711,4.8341,9.1421,61.0534,0.1866,-0.3385,-0.421,0.177
17:05:07:133,-0.282,5.0501,9.552,63.1303,0.21,-0.0573,-0.3358,0.1785
17:05:07:153,-0.2711,5.2031,10.176,62.2349,0.225,0.2218,-0.3156,0.1803
17:05:07:182,-0.443,5.39,11.136,62.0889,0.1621,0.1578,-0.3059,0.1828
17:05:07:191,-0.594,5.6201,11.2631,61.9626,0.0758,0.0034,-0.2707,0.1857
17:05:07:212,-0.2321,5.3801,11.354,61.0723,-0.0052,0.0652,-0.1484,0.1881
17:05:07:232,0.461,4.4351,11.199,61.9627,-0.2076,0.0194,-0.1675,0.19
17:05:07:253,-0.062,3.968,10.899,61.058,-0.4654,0.1195,-0.3284,0.1908
17:05:07:282,-1.293,3.704,10.358,61.0678,-0.4792,0.5669,-0.2527,0.19
17:05:07:291,-2.0921,3.6401,9.935,61.0732,-0.2289,1.042,0.0531,0.1883
17:05:07:311,-1.901,3.491,9.4151,60.591,-0.0351,0.8651,0.3002,0.1873
17:05:07:331,-1.322,3.348,8.766,59.5361,-0.1246,0.2218,0.3194,0.1878
17:05:07:351,-0.749,2.907,8.477,59.6764,-0.4313,-0.4664,0.1723,0.1885
17:05:07:393,-0.5291,2.196,8.642,59.8804,-0.9223,-0.476,0.2384,0.1875
17:05:07:411,-0.6851,2.184,8.6081,59.441,-0.7967,0.0375,0.5015,0.1833
17:05:07:432,-0.57,2.306,8.721,58.7228,-0.4984,0.4902,0.7508,0.1763
17:05:07:451,-0.1361,2.6081,8.5721,59.4383,-0.1596,0.5435,0.9233,0.1613
17:05:07:478,0.3131,3,8.268,58.9976,0.161,0.3358,1.0097,0.1565
17:05:07:491,0.806,3.209,7.619,58.9755,0.4646,0.1323,0.967,0.1541
17:05:07:511,1.218,3.539,7.344,58.7522,0.6137,-0.0648,0.7541,0.1543
17:05:07:532,1.524,3.9701,7.172,58.5613,0.5849,-0.2608,0.51,0.1566
17:05:07:552,1.682,4.1381,7.449,57.6671,0.3805,-0.4334,0.2672,0.1601
17:05:07:583,1.5581,4.1981,8.24,57.6885,0.1002,-0.641,0.0349,0.1636
17:05:07:591,1.46,3.9491,9.0581,57.7179,-0.0254,-0.7252,-0.1132,0.1659
17:05:07:611,1.584,3.644,9.6521,58.2016,-0.0456,-0.7305,-0.257,0.1665
17:05:07:637,1.553,3.8411,9.863,57.7998,-0.1298,-0.6742,-0.3497,0.1657
17:05:07:654,1.409,4.401,10.097,58.3034,-0.3066,-0.5452,-0.3443,0.1639
17:05:07:680,1.8311,4.3991,10.409,57.9983,-0.5442,-0.4419,-0.3337,0.1615
17:05:07:692,2.5991,3.57,10.713,57.976,-0.8734,-0.3492,-0.5148,0.158
17:05:07:711,2.044,3.2021,11.613,57.3703,-1.2686,-0.4153,-0.7843,0.1527
17:05:07:733,0.9761,2.9861,12.4601,57.5779,-1.4007,-0.363,-0.7215,0.1449
17:05:07:753,0.681,2.426,13.083,57.5511,-1.1248,-0.1787,-0.4103,0.1345
17:05:07:791,2.568,1.181,11.532,57.4973,0.0311,0.0194,-0.0896,0.1233
17:05:07:809,2.9561,1.31,9.7121,57.4918,0.3314,0.1792,-0.2857,0.1137
17:05:07:829,2.427,1.875,8.807,57.2526,0.3602,0.2144,-0.4646,0.1073
17:05:07:853,1.9361,2.004,8.067,57.0454,0.389,0.1035,-0.5222,0.1048
17:05:07:868,1.677,1.983,7.3541,57.0201,0.5061,0.1056,-0.5947,0.105
17:05:07:894,1.491,2.1911,6.9161,57.6463,0.6062,0.0822,-0.6937,0.1068
17:05:07:907,1.364,2.3231,6.5321,57.391,0.6733,0.062,-0.7597,0.1099
17:05:07:928,1.0961,2.558,6.279,57.2887,0.7171,0.062,-0.8162,0.1141
17:05:07:950,0.813,2.8661,6.195,57.9609,0.7182,0.047,-0.8673,0.1195
17:05:07:970,0.4061,3.252,6.207,56.9891,0.619,-0.019,-0.9163,0.1258
17:05:07:988,-0.0101,3.755,6.429,56.9248,0.4146,-0.0275,-0.9196,0.1328
17:05:08:007,-0.2591,4.1899,6.992,56.9138,0.1354,0.0802,-0.8727,0.1398
17:05:08:028,-0.7901,4.787,8.0861,57.3776,-0.1203,0.2068,-0.7832,0.1462
17:05:08:052,-1.2761,5.177,9.236,57.6757,-0.1585,0.3688,-0.6223,0.1513
17:05:08:068,-1.341,5.378,10.035,57.6568,0.0556,0.5211,-0.4604,0.1549
17:05:08:087,-1.056,5.505,10.344,58.014,0.3666,0.6447,-0.4051,0.1575
17:05:08:107,-1.214,6.003,10.9091,57.5189,0.4177,0.5467,-0.4498,0.1601
17:05:08:127,-1.506,6.6371,12.3071,58.3956,0.0481,0.0077,-0.4572,0.164
17:05:08:148,-1.077,5.7371,12.954,57.4352,-0.443,-0.4812,-0.3816,0.1694
17:05:08:167,-0.735,3.822,13.392,57.4352,-0.6912,-0.3035,-0.3475,0.1744
17:05:08:190,-1.8,2.9261,13.059,58.2864,-0.4942,0.3219,-0.2548,0.1762
17:05:08:207,-2.7821,2.4761,12.326,57.7456,0.0693,0.9856,-0.0279,0.1743
17:05:08:226,-3.3401,2.634,11.225,58.6492,0.4678,0.8684,0.1478,0.1711
17:05:08:249,-3.2231,2.948,9.59,58.144,0.4465,0.2911,0.2863,0.1699
17:05:08:268,-2.5571,2.886,8.5271,57.7294,0.0448,-0.2086,0.4195,0.1722
17:05:08:286,-1.934,2.579,7.856,58.179,-0.4154,-0.2938,0.5878,0.1764
17:05:08:306,-1.3361,2.079,7.6151,57.2924,-0.6315,0.1567,0.7519,0.1797
17:05:08:326,-1.197,2.0951,7.8041,58.2107,-0.6391,0.5936,0.8764,0.1801
17:05:08:347,-1.187,2.22,8.285,57.3477,-0.5005,0.5904,0.9937,0.1778
17:05:08:365,-0.924,2.1101,8.424,57.2265,-0.2045,0.3475,1.1077,0.1745
17:05:08:386,-0.57,2.1791,8.216,56.7094,0.2569,0.1728,1.2035,0.1712
17:05:08:406,-0.089,2.447,7.923,56.7443,0.7298,0.0982,1.2184,0.1683
17:05:08:425,0.408,2.859,7.4021,56.6584,0.9962,0.0066,1.1333,0.1669
17:05:08:448,0.8081,3.324,7.22,56.6562,0.9482,-0.1947,0.9479,0.1681
17:05:08:465,0.899,3.747,7.655,56.6669,0.6628,-0.5196,0.7092,0.1721
17:05:08:485,0.9971,3.771,8.421,56.2655,0.3805,-0.7285,0.5228,0.1778
17:05:08:505,1.206,3.6761,9.044,56.2658,0.2292,-0.6091,0.3684,0.1835
17:05:08:525,1.316,4.004,9.41,56.1889,0.129,-0.2864,0.249,0.1874
17:05:08:548,1.433,4.4269,9.3101,56.1637,-0.0084,0.1132,0.1862,0.1894
17:05:08:564,0.923,5.229,9.446,56.1463,-0.1969,0.3602,0.133,0.1903
17:05:08:590,0.5711,6.032,9.8171,55.7104,-0.3472,0.3293,0.1511,0.1906
17:05:08:604,1.464,6.0581,10.277,55.6854,-0.5283,0.0652,0.0892,0.1908
17:05:08:624,2.444,5.325,11.0891,54.7021,-0.8117,-0.3481,-0.2496,0.1905
17:05:08:646,2.367,4.035,12.1421,55.1886,-1.0033,-0.5857,-0.6447,0.1891
17:05:08:664,1.29,3.024,12.858,54.2893,-0.8031,-0.4803,-0.6596,0.1854
17:05:08:683,0.5591,2.241,12.561,54.6648,-0.1831,-0.1649,-0.34,0.179
17:05:08:704,0.7241,2.052,11.067,53.2389,0.5391,0.1601,0.019,0.1709
17:05:08:724,1.517,2.0831,9.03,53.7276,1.0079,0.2633,0.183,0.1641
17:05:08:746,2.0921,1.94,7.1021,54.2258,1.1208,0.0556,0.0764,0.1612
17:05:08:764,2.0201,2.112,5.6111,52.9246,0.9045,-0.3332,-0.2357,0.1628
17:05:08:783,1.328,2.627,4.3871,54.1092,0.5573,-0.527,-0.4349,0.168
17:05:08:803,0.77,2.8931,3.722,54.1092,0.2654,-0.4099,-0.4466,0.1746
17:05:08:823,0.4181,3.237,3.8321,53.1594,-0.0201,-0.2331,-0.4349,0.1805
17:05:08:848,-0.0191,3.893,4.689,53.2527,-0.2716,-0.247,-0.3997,0.1851
17:05:08:865,-0.203,4.3271,6.1541,52.3861,-0.4675,-0.4888,-0.3741,0.1881
17:05:08:882,-0.4931,4.875,7.5,52.812,-0.5591,-0.7413,-0.3752,0.1891
17:05:08:902,-0.752,5.433,8.5961,51.9351,-0.4953,-0.6176,-0.3997,0.1877
17:05:08:923,-0.962,5.723,9.8801,51.9433,-0.4154,-0.428,-0.3986,0.1842
17:05:08:944,-1.1081,5.562,10.794,50.9743,-0.3333,-0.2874,-0.3337,0.1795
17:05:08:964,-1.293,5.196,11.4191,50.9518,-0.1841,-0.0456,-0.1664,0.1747
17:05:08:989,-1.482,5.1431,12.0491,50.9518,0.0246,0.1994,0.0594,0.1705
17:05:09:001,-1.293,5.0951,12.5591,50.9518,0.1855,0.2207,0.2447,0.1671
17:05:09:021,-0.9581,5.076,12.314,49.6449,0.2622,0.2238,0.3535,0.1653
17:05:09:044,-0.747,5.273,12.152,50.531,0.291,0.3347,0.4514,0.1651
17:05:09:062,0.327,4.3601,12.365,50.5332,0.1077,0.0428,0.4514,0.1662
17:05:09:082,0.3611,3.542,11.852,49.64,-0.1884,-0.1287,0.3098,0.1681
17:05:09:101,-0.642,3.0581,11.175,49.0384,-0.1948,0.308,0.3662,0.1701
17:05:09:121,-1.35,3.2231,10.571,48.1336,0.1088,0.8822,0.7294,0.1707
17:05:09:143,-0.68,2.969,10.121,47.6174,0.4709,0.9717,1.0469,0.1701
17:05:09:160,0.531,2.7371,9.192,47.1114,0.5167,0.4103,0.9116,0.1703
17:05:09:182,1.155,2.754,8.3621,47.0815,0.2494,-0.1702,0.591,0.1728
17:05:09:200,1.2221,2.847,7.584,46.1704,-0.149,-0.2799,0.4056,0.1766
17:05:09:220,1.1771,2.67,7.05,46.1062,-0.4558,0.2207,0.4269,0.1797
17:05:09:242,0.911,2.637,7.0541,46.0702,-0.59,0.8876,0.5324,0.1807
17:05:09:261,0.528,2.627,8.046,44.6219,-0.5505,1.0229,0.6091,0.1794
17:05:09:281,0.282,2.847,8.3111,45.0736,-0.2801,0.6542,0.7231,0.1768
17:05:09:299,0.2891,3.173,8.036,44.5897,0.2377,0.4381,0.8786,0.1739
17:05:09:319,0.753,3.551,7.67,44.5158,0.7149,0.2164,0.9074,0.1712
17:05:09:342,1.311,4.001,7.011,43.1349,0.9078,0.0012,0.7998,0.17
17:05:09:360,1.7321,4.1981,6.7811,43.1144,0.7565,-0.1563,0.5984,0.1714
17:05:09:392,1.5551,4.4351,7.373,43.2178,0.3645,-0.346,0.3769,0.1755
17:05:09:399,1.4501,4.38,8.067,42.3402,0.0406,-0.3513,0.3002,0.1808
17:05:09:419,1.7471,3.8981,9.0221,42.3322,-0.0947,-0.166,0.2512,0.1856
17:05:09:443,1.488,3.953,9.992,42.3056,-0.1118,-0.1074,0.1255,0.1885
17:05:09:459,0.9041,4.4351,10.4711,41.4031,-0.0063,-0.1052,0.0818,0.1896
17:05:09:479,0.5711,4.9571,10.38,40.8832,0.1536,0.0023,0.1563,0.1892
17:05:09:499,0.6551,5.4191,10.107,39.9937,0.2217,-0.0051,0.2331,0.1883
17:05:09:519,1.962,4.947,9.7841,40.4823,0.0854,-0.2245,0.2032,0.1881
17:05:09:542,3.222,4.2911,9.501,40.4923,-0.3365,-0.4014,-0.0972,0.189
17:05:09:559,3.047,3.4481,9.6161,40.4716,-0.7583,-0.1947,-0.4412,0.1902
17:05:09:583,1.9571,2.742,10.3181,40.5265,-0.8393,0.1962,-0.5083,0.1871
17:05:09:597,1.2731,2.225,10.4711,40.5265,-0.5837,0.2772,-0.3028,0.1821
17:05:09:618,1.407,2.004,9.7571,39.5853,-0.1746,0.2111,-0.0609,0.1766
17:05:09:640,2.1011,2.069,8.417,39.1297,0.1216,0.03,0.052,0.172
17:05:09:659,2.585,2.474,7.196,37.3443,0.1833,-0.1128,0.0158,0.1693
17:05:09:681,2.8511,2.6801,6.5801,38.7658,0.014,-0.346,-0.1376,0.1681
17:05:09:698,2.678,2.981,6.08,37.8893,-0.2321,-0.459,-0.3124,0.1675
17:05:09:718,2.487,3.0221,6.044,37.8996,-0.3194,-0.2171,-0.3997,0.1662
17:05:09:741,2.4341,2.945,6.362,37.8989,-0.2694,0.0109,-0.4977,0.1641
17:05:09:757,2.283,3.053,6.518,37.8989,-0.1448,0.0428,-0.6351,0.1617
17:05:09:791,2.025,3.336,6.461,37.0114,-0.0777,-0.0488,-0.8227,0.1599
17:05:09:797,1.3691,3.87,6.813,37.0114,-0.1522,-0.2192,-1.0101,0.1588
17:05:09:817,0.717,4.31,7.418,36.9917,-0.3142,-0.3939,-1.1016,0.158
17:05:09:839,0.351,4.475,8.946,37.5874,-0.5783,-0.6262,-1.0559,0.1567
17:05:09:858,0.078,4.662,10.2311,36.7296,-0.6528,-0.5835,-0.8929,0.1542
17:05:09:878,-0.189,4.851,11.2061,36.7296,-0.362,-0.052,-0.7385,0.1501
17:05:09:914,-0.62,5.2631,11.874,36.7296,0.0203,0.3528,-0.6607,0.1459
17:05:09:916,-1.041,5.919,12.149,35.2847,0.2324,0.2974,-0.5829,0.1438
17:05:09:938,-1.185,6.321,12.4271,35.2846,0.2281,-0.0073,-0.4679,0.1443
17:05:09:956,-0.9701,6.156,13.002,35.8613,0.0587,-0.3919,-0.3677,0.1463
17:05:09:981,-0.153,5.036,13.4351,35.0371,-0.2267,-0.753,-0.371,0.1481
17:05:09:996,-0.2591,3.867,13.361,35.8613,-0.2886,-0.5261,-0.4136,0.1479
17:05:10:016,-1.4411,2.8541,12.293,35.0371,0.1482,0.3591,-0.3209,0.1457
17:05:10:039,-2.679,2.639,11.318,34.4318,0.7586,1.0197,-0.1195,0.1442
17:05:10:056,-3.11,2.9771,10.085,34.4318,0.994,0.5808,0.0659,0.1467
17:05:10:080,-2.612,3.1991,8.441,34.4416,0.7404,-0.1649,0.1884,0.1531
17:05:10:095,-1.757,3.056,7.3271,34.4416,0.1503,-0.4898,0.2991,0.1605
17:05:10:115,-1.128,2.744,6.978,33.6042,-0.476,-0.2001,0.4312,0.1657
17:05:10:135,-0.9221,2.5001,7.4231,34.4682,-0.8276,0.4071,0.6262,0.1673
17:05:10:155,-0.879,2.4041,7.986,33.8982,-0.8041,0.8418,0.8328,0.1654
17:05:10:196,-0.773,2.5721,8.0651,32.9521,-0.5005,1.0675,1.0075,0.1617
17:05:10:197,-0.522,2.8421,8.2421,32.9521,-0.1213,0.9578,1.1055,0.1582
17:05:10:215,-0.1481,3.084,8.213,32.9521,0.2452,0.4594,1.1151,0.1562
17:05:10:237,0.423,3.18,7.947,32.9521,0.6094,-0.0179,1.0427,0.1561
17:05:10:256,0.8081,3.546,7.631,32.9521,0.864,-0.2342,0.9085,0.1577
17:05:10:278,1.2701,3.848,7.7081,32.9521,0.8917,-0.3567,0.7678,0.1611
17:05:10:294,1.919,3.795,8.184,32.9521,0.7032,-0.5346,0.5782,0.166
17:05:10:314,2.2421,3.719,8.958,31.9814,0.4539,-0.7871,0.3204,0.1711
17:05:10:335,2.4671,3.489,9.4991,31.9814,0.3336,-0.8178,0.0872,0.1751
17:05:10:354,2.678,3.197,9.303,31.689,0.276,-0.4983,-0.111,0.1775
17:05:10:381,2.135,3.707,9.099,31.689,0.0917,0.0044,-0.2622,0.1791
17:05:10:393,1.172,4.8251,9.3671,31.1334,-0.1735,0.2857,-0.1909,0.1802
17:05:10:414,1.608,4.8941,9.882,31.1334,-0.4291,0.1983,-0.0513,0.1811
17:05:10:436,2.889,4.2,10.301,31.1334,-0.7179,-0.0594,-0.1558,0.1809
17:05:10:454,2.8961,3.692,11.139,31.2418,-0.8734,-0.1276,-0.4253,0.1786
17:05:10:480,2.2211,3.156,11.714,30.3805,-0.7444,-0.084,-0.5222,0.1737
17:05:10:492,1.598,2.615,11.84,30.3805,-0.3802,-0.0584,-0.3932,0.1675
17:05:10:513,1.62,2.151,10.806,29.835,0.0172,-0.0903,-0.242,0.1615
17:05:10:534,1.9841,2.115,8.994,29.835,0.2611,0.0353,-0.1313,0.1575
17:05:10:552,2.094,2.232,7.593,29.8349,0.291,0.1089,-0.1121,0.1557
17:05:10:592,1.991,2.4311,6.6641,28.8685,0.1099,-0.0381,-0.2133,0.1557
17:05:10:594,1.553,2.826,6.111,28.8685,-0.1884,-0.2012,-0.3262,0.1565
17:05:10:612,1.0331,2.979,5.951,28.8685,-0.4291,-0.1574,-0.3932,0.1566
17:05:10:631,0.531,2.9771,6.458,28.9692,-0.4484,0.062,-0.4082,0.1554
17:05:10:652,0.183,3.158,7.3871,28.9692,-0.2577,0.0012,-0.3582,0.1534
17:05:10:679,0.1091,3.4961,7.536,28.13,0.0661,-0.1052,-0.307,0.1511
17:05:10:692,-0.026,4.1899,7.691,28.0109,0.3228,-0.1895,-0.3389,0.1496
17:05:10:711,-0.12,4.8821,8.0171,28.0109,0.3677,-0.3578,-0.371,0.1495
17:05:10:731,-0.117,4.925,8.898,27.1805,0.2824,-0.4621,-0.3795,0.151
17:05:10:752,-0.407,4.82,9.774,27.2874,0.2526,-0.3961,-0.3699,0.153
17:05:10:782,-0.687,4.901,10.026,27.1805,0.3134,0.0428,-0.3039,0.1549
17:05:10:791,-0.809,5.112,10.1141,26.5056,0.2654,0.6329,-0.1888,0.1573
17:05:10:811,-1.017,5.16,10.617,26.5056,0.032,1.0335,-0.062,0.1607
17:05:10:831,-1.46,5.244,11.5121,26.897,-0.23,1.0836,0.1265,0.1649
17:05:10:853,-1.8221,5.541,12.0821,25.4954,-0.2427,1.0803,0.4429,0.1686
17:05:10:882,-0.912,4.595,12.252,25.8978,-0.1266,0.8013,0.5697,0.1713
17:05:10:891,-0.7301,3.953,12.1421,25.0037,-0.1053,0.3113,0.3747,0.1734
17:05:10:912,-1.391,3.86,11.766,25.0037,0.0033,0.0214,0.3812,0.1747
17:05:10:934,-1.472,3.747,10.7681,25.0037,0.2739,0.2527,0.6783,0.1753
17:05:10:951,-0.879,3.539,9.918,25.0037,0.4209,0.2633,0.8136,0.1762
17:05:10:992,0.6671,3.044,8.163,24.6605,-0.1874,-0.3663,0.4547,0.1783
17:05:11:010,0.93,2.739,7.73,24.6605,-0.7307,-0.3843,0.3055,0.1807
17:05:11:033,0.954,2.28,7.4831,23.95,-1.0321,0.0918,0.2757,0.1815
17:05:11:049,0.4751,2.1671,7.742,23.95,-0.998,0.682,0.3289,0.179
17:05:11:069,0.023,2.3471,8.477,23.2872,-0.6082,0.8034,0.5057,0.1733
17:05:11:089,0.164,2.304,8.465,26.7517,-0.0115,0.5563,0.6944,0.1659
17:05:11:109,0.387,2.699,8.1251,26.2817,0.5104,0.1567,0.7444,0.1592
17:05:11:133,0.5089,3.257,7.3751,25.535,0.8236,-0.0307,0.6975,0.1547
17:05:11:150,0.686,3.606,6.9011,25.3849,0.9078,0.1013,0.6486,0.1536
17:05:11:169,0.698,3.956,7.196,26.1236,0.7682,0.1312,0.5974,0.1557
17:05:11:189,0.7601,4.229,7.619,24.7418,0.505,-0.0829,0.5111,0.1603
17:05:11:209,1.0571,4.217,8.031,25.0491,0.2802,-0.1574,0.4036,0.1663
17:05:11:232,1.158,4.224,8.991,24.4028,0.1088,-0.216,0.2277,0.1721
17:05:11:249,1.0811,4.305,9.851,24.293,-0.0148,-0.3908,0.0881,0.1768
17:05:11:268,1.0331,4.482,10.2941,23.8922,-0.018,-0.3322,0.0807,0.1801
17:05:11:288,0.902,5.052,10.703,23.3517,0.0534,-0.2064,0.1276,0.1817
17:05:11:309,1.469,5.457,10.758,22.4379,0.1034,-0.2353,0.1202,0.1821
17:05:11:331,3.0641,4.6451,10.3991,23.292,-0.0894,-0.3322,-0.1632,0.1824
17:05:11:350,3.332,3.965,10.785,22.4094,-0.5719,-0.3769,-0.6522,0.1829
17:05:11:367,2.3651,3.111,11.2871,22.073,-0.9203,-0.1756,-0.8588,0.183
17:05:11:390,1.4501,2.117,11.8001,21.3221,-0.8541,0.2079,-0.7076,0.1814
17:05:11:408,0.969,1.679,11.462,21.2825,-0.4282,0.439,-0.3369,0.1773
17:05:11:430,1.328,1.629,10.107,21.1375,0.0778,0.4359,-0.029,0.1716
17:05:11:448,2.1109,1.763,8.553,21.8372,0.3399,0.2047,0.0243,0.1664
17:05:11:468,2.3141,2.198,7.6121,21.2736,0.2366,-0.2853,-0.1558,0.1634
17:05:11:487,1.797,2.814,6.9161,22.0467,-0.0851,-0.6751,-0.4125,0.1628
17:05:11:507,1.148,3.0791,6.465,21.2803,-0.3109,-0.4866,-0.518,0.1634
17:05:11:529,0.744,3.02,6.633,21.0382,-0.3216,0.0129,-0.5339,0.1634
17:05:11:547,0.459,3.182,7.0931,20.1756,-0.1798,0.2921,-0.5148,0.1619
17:05:11:566,0.222,3.405,7.382,20.4624,0.0672,0.2559,-0.4956,0.16
17:05:11:587,0.066,3.5891,7.2701,20.338,0.3143,0.0663,-0.5361,0.1586
17:05:11:607,-0.086,3.8861,6.882,19.1713,0.4337,-0.0243,-0.5776,0.1583
17:05:11:629,-0.326,4.2671,6.705,19.1777,0.3591,0.0001,-0.5254,0.1594
17:05:11:649,-0.467,4.518,7.074,19.0188,0.1546,0.0759,-0.4082,0.1618
17:05:11:666,-0.594,4.748,8.1251,18.8984,-0.0531,0.0396,-0.2687,0.165
17:05:11:686,-0.527,4.8221,9.444,18.9414,-0.1096,0.0535,-0.1504,0.168
17:05:11:705,-0.431,4.8461,10.7921,18.0691,-0.0542,-0.067,-0.0854,0.1704
17:05:11:728,-0.2801,4.904,11.505,18.5154,0.0917,-0.0434,-0.0524,0.1717
17:05:11:747,-0.3971,5.1911,11.886,18.48,0.243,0.1621,-0.012,0.1725
17:05:11:765,-0.7541,5.835,11.9411,17.5482,0.3569,0.4316,0.0881,0.1731
17:05:11:792,0.0491,5.2751,12.54,18.5188,0.258,0.1248,0.1308,0.1744
17:05:11:806,0.8231,4.346,12.642,18.5157,-0.165,-0.5452,-0.0791,0.1771
17:05:11:827,0.317,3.245,12.599,17.7051,-0.4558,-0.413,-0.2676,0.1805
17:05:11:845,-1.149,2.519,12.144,18.3457,-0.2204,0.4188,-0.1792,0.1822
17:05:11:865,-2.069,2.258,11.934,17.2536,0.2633,0.8225,0.1074,0.1811
17:05:11:885,-2.006,2.426,10.5,18.3135,0.5391,0.4273,0.3322,0.1791
17:05:11:905,-1.245,2.457,8.793,18.2711,0.4529,-0.036,0.3939,0.1792
17:05:11:929,-0.764,2.565,7.449,18.02,0.0991,-0.1787,0.3982,0.1818
17:05:11:945,-0.4931,2.708,6.8081,18.0269,-0.2844,0.0055,0.5015,0.1854
17:05:11:964,-0.089,2.6891,6.564,17.9723,-0.5038,0.325,0.6709,0.1881
17:05:11:986,0.3011,2.7491,6.686,18.0651,-0.573,0.4401,0.737,0.1888
17:05:12:004,0.428,3.125,6.851,18.35,-0.5294,0.3762,0.705,0.1875
17:05:12:025,0.5831,3.4721,7.1741,18.2759,-0.3631,0.2324,0.6996,0.1847
17:05:12:045,0.954,3.5801,7.4111,17.6501,-0.0701,0.0439,0.6634,0.1813
17:05:12:063,1.146,3.6611,7.4111,18.7255,0.2739,-0.0627,0.5079,0.1777
17:05:12:083,0.878,4.097,7.2821,19.3867,0.5551,-0.0381,0.3151,0.1748
17:05:12:104,0.5021,4.4801,7.5911,18.1278,0.5721,-0.183,0.1691,0.1735
17:05:12:127,0.401,4.5731,8.22,18.3643,0.3814,-0.4718,0.1308,0.1743
17:05:12:144,0.6431,4.346,8.819,17.9247,0.179,-0.5687,0.0924,0.1771
17:05:12:163,0.935,4.212,9.6161,18.3389,0.014,-0.5228,-0.0077,0.1805
17:05:12:191,1.2581,4.032,10.136,17.982,-0.1585,-0.477,-0.1228,0.1831
17:05:12:203,1.194,3.81,10.581,17.7256,-0.3014,-0.2683,-0.2164,0.1844
17:05:12:226,0.3011,4.485,11.0771,17.0065,-0.3109,-0.0147,-0.1473,0.1841
17:05:12:243,0.365,4.772,11.247,17.5184,-0.2375,0.0268,0.0125,0.1823
17:05:12:262,1.943,3.6761,11.153,16.8698,-0.3791,-0.2458,-0.0822,0.1797
17:05:12:283,2.412,2.79,11.369,17.8996,-0.6849,-0.4642,-0.3677,0.1773
17:05:12:303,1.706,1.9541,11.6561,17.8578,-0.7796,-0.3385,-0.437,0.1744
17:05:12:324,1.0961,1.3961,11.34,17.2673,-0.5303,-0.0115,-0.2069,0.1702
17:05:12:344,0.9521,1.449,10.2821,17.3122,-0.1383,0.2366,0.1361,0.1643
17:05:12:362,1.515,1.715,8.67,16.9379,0.129,0.2516,0.3109,0.1583
17:05:12:382,2.4911,1.973,7.0541,18.3762,0.0683,0.0439,0.1979,0.1536
17:05:12:403,2.8511,2.361,6.212,18.3676,-0.3609,-0.3087,-0.0748,0.151
17:05:12:424,2.2571,2.759,6.3911,17.868,-0.8553,-0.5239,-0.3241,0.1499
17:05:12:441,1.6871,2.519,7.2551,17.8285,-1.0044,-0.4355,-0.4168,0.1483
17:05:12:461,1.0451,2.364,7.433,18.6525,-0.6742,-0.0542,-0.4381,0.1443
17:05:12:481,0.8081,2.601,7.404,17.6215,-0.1767,0.1845,-0.5041,0.1377
17:05:12:501,0.7151,2.969,7.076,18.6531,0.1013,-0.2618,-0.7044,0.1303
17:05:12:525,0.191,2.787,6.798,19.451,0.0331,-0.9127,-0.8557,0.1248
17:05:12:542,-0.2111,3.87,6.894,18.957,-0.2193,-0.8286,-0.5786,0.122
17:05:12:560,0.411,3.4361,6.8201,18.8795,-0.3748,-0.2651,-0.2207,0.1202
17:05:12:591,0.813,2.945,8.357,19.0671,-0.6475,0.388,-0.1536,0.1178
17:05:12:600,0.614,3.264,10.229,18.9371,-0.6912,0.6766,-0.0205,0.1147
17:05:12:624,0.519,3.204,11.378,17.8825,-0.5453,0.667,0.0711,0.1111
17:05:12:640,0.5591,3.17,11.8721,20.1964,-0.474,0.5445,-0.0216,0.1075
17:05:12:660,0.677,3.053,12.8681,20.0951,-0.5101,0.4018,-0.2047,0.1041
17:05:12:679,0.404,2.8661,13.959,20.0815,-0.3887,0.1601,-0.2761,0.1013
17:05:12:700,0.066,2.9021,13.629,20.0038,0.0214,0.1823,-0.2207,0.0986
17:05:12:723,0.329,2.723,12.353,21.155,0.2387,0.4807,-0.275,0.0956
17:05:12:741,0.147,2.4071,11.5031,20.8491,0.0939,0.8002,-0.4008,0.0936
17:05:12:759,-0.843,1.727,11.091,19.501,0.0087,1.0314,-0.4657,0.0937
17:05:12:780,-2.3081,1.418,11.436,20.7865,0.1866,1.0271,-0.5361,0.0955
17:05:12:799,-3.194,1.5161,11.148,21.4185,0.5317,0.65,-0.3752,0.0981
17:05:12:821,-2.895,1.176,9.824,20.7798,0.7575,0.4125,-0.0418,0.1016
17:05:12:840,-2.114,1.26,9.0611,20.7388,0.8194,0.2953,0.1851,0.1065
17:05:12:859,-0.78,1.1381,8.1461,21.4465,0.7862,0.3486,0.1851,0.1126
17:05:12:882,0.294,1.2221,7.32,20.8842,0.685,0.7256,0.1649,0.1198
17:05:12:899,-0.608,2.2181,8.2991,20.3493,0.5946,0.7704,0.2863,0.1274
17:05:12:921,-1.779,2.33,7.3061,21.8243,0.5999,0.4572,0.6933,0.1351
17:05:12:939,-2.148,2.601,6.863,22.0127,0.5541,0.3358,1.1342,0.1429
17:05:12:959,-0.792,2.469,6.3461,22.6203,0.2921,0.1664,1.1993,0.1504
17:05:12:991,0.8681,1.8581,5.661,22.8542,-0.2588,0.2133,0.6623,0.1577
17:05:12:998,0.918,1.365,5.603,22.6352,-0.7487,0.3901,-0.0918,0.1639
17:05:13:020,0.365,1.356,6.075,21.6874,-1.0651,0.8588,-0.6692,0.1675
17:05:13:040,-0.8021,2.0711,7.5191,23.6188,-1.1918,1.4575,-0.993,0.1678
17:05:13:059,-2.3321,3.077,9.458,23.406,-1.1824,1.3839,-1.0697,0.165
17:05:13:083,-2.4971,3.905,10.473,23.5683,-1.0482,0.7235,-0.9387,0.155
17:05:13:098,-2.262,4.518,11.1941,23.6068,-0.7893,0.2016,-0.7928,0.149
17:05:13:121,-3.254,4.3151,11.781,24.4163,-0.5431,-0.232,-0.7107,0.1427
17:05:13:140,-3.273,3.384,11.759,24.442,-0.5218,-0.3928,-0.5819,0.1366
17:05:13:158,-1.499,1.9901,11.8211,24.5804,-0.638,-0.4249,-0.404,0.1307
17:05:13:181,-1.628,2.208,11.783,25.735,-0.8159,-0.0136,-0.1973,0.1243
17:05:13:197,-1.997,1.928,12.9611,25.5106,-1.0769,-0.1606,-0.1558,0.1174
17:05:13:219,-1.683,1.3631,13.203,26.1801,-1.3559,-0.8349,-0.224,0.1096
17:05:13:237,-0.9071,0.381,11.936,26.4983,-1.552,-1.2067,-0.2793,0.0993
17:05:13:257,-0.414,-0.614,11.3021,26.5918,-1.6745,-1.1481,-0.3517,0.0859
17:05:13:280,0.068,-1.265,10.988,27.9376,-1.7575,-1.3431,-0.3284,0.0699
17:05:13:297,0.432,-1.208,10.011,27.1098,-1.7896,-1.5913,-0.2069,0.0519
17:05:13:320,1.2341,-1.311,9.128,28.4806,-1.748,-1.3559,-0.1228,0.0321
17:05:13:336,1.668,-1.5311,8.8331,28.3703,-1.6415,-0.9809,-0.1484,0.0111
17:05:13:356,1.5,-1.229,8.936,27.9587,-1.4178,-0.4888,-0.2218,-0.0097
17:05:13:393,1.0721,-1.337,8.5391,28.5899,-1.0193,0.143,-0.3219,-0.029
17:05:13:396,0.315,-1.023,8.544,28.5313,-0.5719,0.3869,-0.4359,-0.0452
17:05:13:418,-0.057,-0.374,8.591,27.3711,-0.1309,0.176,-0.3719,-0.057
17:05:13:435,0.1361,-0.1301,8.393,27.3092,0.2941,0.0225,-0.258,-0.0643
17:05:13:456,0.159,0.041,8.472,28.3992,0.6648,0.0566,-0.2633,-0.0677
17:05:13:479,0.27,0.326,8.213,28.4999,0.9514,0.0759,-0.3625,-0.0672
17:05:13:495,0.0281,0.6041,8.7851,28.6188,1.1474,0.2707,-0.487,-0.0634
17:05:13:519,0.0281,0.1661,9.951,28.7553,1.1219,0.2698,-0.632,-0.0567
17:05:13:535,-0.359,0.1421,9.389,29.064,0.8907,0.0908,-0.6755,-0.0477
17:05:13:555,-1.0991,0.578,9.614,29.9414,0.5957,0.1387,-0.503,-0.038
17:05:13:581,-1.3961,0.8531,10.689,28.7334,0.3836,0.2676,-0.2665,-0.0292
17:05:13:594,-1.688,0.57,11.3021,29.7076,0.2676,0.2271,-0.2846,-0.0217
17:05:13:616,-2.016,0.534,12.513,29.8572,0.2771,0.1334,-0.2527,-0.0155
17:05:13:634,-2.27,0.324,12.417,30.0303,0.4294,0.0674,0.0158,-0.0103
17:05:13:655,-1.451,0.3791,13.263,29.9414,0.6755,0.3219,0.346,-0.0057
17:05:13:681,-0.6851,-0.197,13.691,31.2066,0.9237,0.325,0.4429,-0.0002
17:05:13:694,-0.864,-0.99,12.657,31.5102,1.0005,0.2409,0.346,0.0069
17:05:13:718,-1.3811,-1.0691,10.902,31.727,0.9365,0.4401,0.2853,0.0153
17:05:13:734,-1.685,-1.208,10.0661,31.9004,0.7969,0.5488,0.3033,0.0245
17:05:13:754,-1.9991,-1.167,10.3751,30.8455,0.5338,0.045,0.314,0.0339
17:05:13:790,-2.174,-0.389,9.791,31.9971,0.2526,-0.6677,0.3289,0.0422
17:05:13:800,-1.4441,0.015,9.4511,32.0436,0.096,-0.786,0.3747,0.0476
17:05:13:817,-0.63,-0.24,9.1211,32.8411,0.0012,-0.868,0.3747,0.0499
17:05:13:833,-0.309,-0.312,8.211,32.003,-0.0777,-0.7626,0.3704,0.0498
17:05:13:853,-0.053,-0.073,7.6961,32.196,-0.0905,-0.4749,0.4153,0.0478
17:05:13:879,-0.108,0.4631,7.3901,32.1642,-0.0041,-0.0253,0.4812,0.045
17:05:13:894,-0.524,1.166,7.6121,32.1113,0.1536,0.4125,0.623,0.0424
17:05:13:912,-0.6101,1.59,8.12,32.1236,0.3484,0.4668,0.8445,0.0418
17:05:13:934,-0.4841,1.808,7.8131,32.3071,0.5775,0.3113,1.0544,0.0436
17:05:13:956,0.102,1.664,7.485,32.2921,0.7895,0.3304,1.064,0.0471
17:05:13:981,0.315,2.057,8.187,32.8567,0.8939,0.2452,0.8286,0.0524
17:05:13:992,0.32,2.5601,9.2,32.8431,0.9215,-0.102,0.5175,0.0592
17:05:14:012,0.3581,2.273,9.8651,33.1259,0.8757,-0.525,0.183,0.0671
17:05:14:034,0.296,1.8971,10.181,33.6139,0.7543,-0.8744,-0.093,0.0749
17:05:14:052,0.428,1.6571,10.6721,33.5179,0.6009,-0.9446,-0.2122,0.0815
17:05:14:080,0.495,1.818,11.2511,33.1403,0.4593,-0.6837,-0.2155,0.0864
17:05:14:092,0.375,2.189,11.4311,34.0909,0.3037,-0.1521,-0.1856,0.0898
17:05:14:113,0.5261,2.3471,11.895,33.1068,0.1013,0.3752,-0.1728,0.0924
17:05:14:133,0.947,1.736,12.41,33.1995,-0.1682,0.52,-0.2559,0.0946
17:05:14:152,0.6101,1.119,12.822,34.5679,-0.4845,0.2133,-0.4594,0.0962
17:05:14:191,0.0131,0.8891,12.2351,34.172,-0.655,-0.0403,-0.4231,0.096
17:05:14:198,0.15,0.482,11.426,33.2667,-0.6007,0.0225,-0.1015,0.0937
17:05:14:215,0.669,0.2471,10.5401,32.8825,-0.3983,0.1451,0.231,0.0899
17:05:14:233,1.397,0.12,9.564,34.1828,-0.1576,0.2783,0.3652,0.0857
17:05:14:251,1.8161,0.3911,8.481,33.0491,0.0225,0.3602,0.2768,0.0822
17:05:14:278,1.601,0.8891,7.655,33.4866,0.1077,0.3187,0.0668,0.0802
17:05:14:291,0.933,1.4831,7.0661,33.0292,0.113,0.1632,-0.1451,0.0796
17:05:14:312,0.423,1.887,6.461,33.4662,0.1195,0.1717,-0.2548,0.08
17:05:14:333,0.188,2.0621,6.576,33.9407,0.1705,0.2463,-0.2707,0.0811
17:05:14:351,-0.251,2.091,7.493,33.9429,0.275,0.2196,-0.257,0.0828
17:05:14:381,-0.551,2.304,8.309,33.2461,0.389,-0.3109,-0.2601,0.0854
17:05:14:391,-0.2711,2.534,8.225,33.2412,0.5499,-0.5526,-0.2335,0.0881
17:05:14:412,0.057,2.589,8.484,33.1913,0.6957,-0.4525,-0.2868,0.0909
17:05:14:432,0.143,2.814,8.867,33.7743,0.7352,-0.3183,-0.4264,0.0943
17:05:14:453,-0.1361,3.233,9.5591,34.0006,0.65,-0.2799,-0.5467,0.0989
17:05:14:481,-0.45,3.6041,9.956,33.8712,0.5402,-0.2544,-0.5115,0.1043
17:05:14:490,-0.4721,3.5771,10.1411,33.8144,0.488,-0.0509,-0.3369,0.1097
17:05:14:511,-0.381,3.522,10.5161,34.1127,0.4518,0.0865,-0.2133,0.115
17:05:14:531,-0.3161,3.81,10.9571,33.9751,0.3729,0.062,-0.1728,0.1202
17:05:14:552,-0.2711,4.056,11.0741,33.2576,0.2622,0.0375,-0.176,0.1253
17:05:14:591,-1.259,3.743,11.057,33.3163,0.0524,0.5701,-0.0876,0.1299
17:05:14:612,-1.731,2.993,11.405,33.2851,-0.1926,0.3932,-0.0791,0.134
17:05:14:629,-2.339,2.4161,11.414,33.5032,-0.4953,0.0716,-0.0663,0.1378
17:05:14:650,-2.6261,1.851,10.761,33.4883,-0.6678,0.1354,0.0989,0.1406
17:05:14:669,-2.514,1.341,10.569,33.457,-0.6742,0.34,0.4227,0.1411
17:05:14:689,-2.114,1.035,10.3871,32.8686,-0.573,0.2868,0.6922,0.1391
17:05:14:710,-1.3481,0.764,10.229,32.7346,-0.4249,0.0183,0.7519,0.1357
17:05:14:728,-0.536,0.7091,9.683,33.0095,-0.2929,-0.2362,0.6282,0.1316
17:05:14:748,-0.2471,1.083,8.742,32.4596,-0.1798,-0.2054,0.5697,0.1274
17:05:14:768,-0.122,1.463,7.7081,32.7582,-0.0755,0.1312,0.6859,0.123
17:05:14:787,-0.0101,1.743,6.9251,33.2739,-0.003,0.5541,0.8115,0.1189
17:05:14:809,-0.156,2.0381,6.695,32.0976,0.0107,0.7246,0.8786,0.1156
17:05:14:828,-0.443,2.634,6.738,31.9946,-0.0073,0.5862,0.9201,0.1139
17:05:14:848,-0.567,2.886,7.124,32.6528,0.0001,0.2133,0.934,0.114
17:05:14:867,-0.251,2.835,7.1261,30.8459,0.0033,-0.1862,0.8425,0.1153
17:05:14:887,0.107,2.9021,7.5551,32.3643,-0.0095,-0.3545,0.6623,0.1168
17:05:14:908,0.203,2.9981,8.175,31.5206,-0.036,-0.476,0.4377,0.1175
17:05:14:927,0.186,2.955,9.125,31.7301,-0.0659,-0.6549,0.2501,0.1175
17:05:14:947,0.428,2.538,9.903,30.8331,-0.0595,-0.8115,0.1085,0.1168
17:05:14:967,0.6101,1.9781,11.117,30.6163,-0.0254,-0.9255,-0.0311,0.1156
17:05:14:992,0.588,1.94,11.706,31.0673,0.032,-0.9201,-0.1143,0.1138
17:05:15:009,0.6431,2.297,11.8121,31.0928,0.113,-0.5463,-0.0769,0.1114
17:05:15:026,0.9281,2.7041,11.666,31.0757,0.1077,-0.0338,-0.029,0.1084
17:05:15:048,1.335,2.8181,11.9531,31.4702,-0.0553,0.242,-0.0961,0.1059
17:05:15:066,2.003,2.292,12.729,30.9422,-0.3717,-0.0093,-0.3571,0.1043
17:05:15:086,2.072,1.554,12.884,31.3221,-0.7327,-0.525,-0.6692,0.1036
17:05:15:109,1.754,1.016,12.47,30.9204,-0.9257,-0.6208,-0.6585,0.1024
17:05:15:126,1.598,0.75,11.711,31.9157,-0.8031,-0.1798,-0.2399,0.0991
17:05:15:146,1.991,0.5921,11.06,31.5682,-0.4601,0.3347,0.1372,0.0932
17:05:15:165,2.3141,0.714,10.047,32.4245,-0.051,0.6894,0.3215,0.0858
17:05:15:186,2.369,0.74,9.2,31.9343,0.2366,0.7875,0.2001,0.0792
17:05:15:208,1.7561,1.272,8.472,31.8768,0.3464,0.6192,-0.1686,0.075
17:05:15:227,0.849,1.808,7.868,31.7868,0.3219,0.2985,-0.5532,0.0738
17:05:15:246,0.057,2.0621,7.0931,32.165,0.2409,0.0598,-0.7789,0.0751
17:05:15:265,-0.287,2.0261,6.5351,32.6109,0.1397,-0.0307,-0.8077,0.0779
17:05:15:285,-0.342,2.117,6.353,31.9919,0.0161,-0.1244,-0.7332,0.0813
17:05:15:308,-0.2711,2.2991,6.477,31.9317,-0.1033,-0.2032,-0.617,0.0844
17:05:15:325,-0.2351,2.388,6.659,31.8198,-0.2054,-0.1947,-0.4509,0.0869
17:05:15:345,-0.177,2.318,6.9041,32.7628,-0.264,-0.1031,-0.3102,0.0882
17:05:15:365,0.08,2.0951,7.493,32.0707,-0.279,-0.0093,-0.2868,0.088
17:05:15:393,0.092,2.0981,8.7611,32.7145,-0.3109,-0.1255,-0.3528,0.0868
17:05:15:409,-0.0911,2.474,10.1291,32.7036,-0.2938,-0.4323,-0.3975,0.085
17:05:15:424,0.174,2.27,10.655,33.3327,-0.115,-0.411,-0.4125,0.0829
17:05:15:444,0.018,2.184,11.247,33.6838,0.1972,0.0034,-0.3677,0.0804
17:05:15:464,-0.35,2.1551,12.24,33.0889,0.4305,0.3102,-0.2996,0.0779
17:05:15:484,-0.4931,2.411,12.786,33.0691,0.4795,0.3838,-0.2442,0.0767
17:05:15:507,-0.6581,2.6771,12.5321,32.9819,0.4561,0.5947,-0.1089,0.078
17:05:15:527,-1.329,3.4151,12.027,34.0021,0.4763,1.1454,0.216,0.0812
17:05:15:544,-1.5251,3.192,11.97,33.9553,0.455,1.383,0.5111,0.0859
17:05:15:563,-1.764,2.4551,11.826,34.3656,0.2558,1.0675,0.4482,0.092
17:05:15:584,-2.3201,1.7531,11.0771,34.0096,-0.0084,0.5211,0.1873,0.0993
17:05:15:604,-2.837,1.509,10.2551,33.8686,-0.1479,0.2357,0.1276,0.1069
17:05:15:624,-2.751,1.4471,10.002,33.8081,-0.1469,-0.0349,0.3439,0.1127
17:05:15:644,-2.124,1.253,9.777,34.0969,-0.0925,-0.3417,0.5378,0.1162
17:05:15:662,-1.185,0.7331,9.468,33.9045,-0.1277,-0.6592,0.4707,0.1176
17:05:15:683,-0.462,0.3431,9.188,33.8083,-0.2949,-0.9745,0.2171,0.1176
17:05:15:705,-0.2111,0.606,8.682,34.1666,-0.4271,-1.0086,0.1116,0.1162
17:05:15:723,-0.191,0.915,8.046,34.8394,-0.3737,-0.5761,0.3033,0.113
17:05:15:742,-0.1601,1.08,7.404,33.5709,-0.1969,0.0535,0.6762,0.1079
17:05:15:762,-0.033,1.176,7.083,34.2356,-0.0041,0.5382,0.9787,0.1017
17:05:15:791,0.009,1.619,7.052,35.1164,0.1226,0.5979,1.066,0.0965
17:05:15:806,-0.1361,2.261,7.605,34.9353,0.2185,0.2889,1.0032,0.0932
17:05:15:822,0.033,2.529,7.878,34.6499,0.3794,-0.2458,0.8553,0.0924
17:05:15:841,0.645,2.4671,7.9691,34.3608,0.6073,-0.477,0.639,0.0934
17:05:15:861,0.9971,2.747,8.532,34.5476,0.7969,-0.5537,0.3704,0.0951
17:05:15:881,1.0331,3.0221,9.092,34.5009,0.8694,-0.5793,0.0946,0.0975
17:05:15:903,0.7241,3.032,10.3661,35.4074,0.7725,-0.8104,-0.1536,0.1011
17:05:15:922,0.765,2.9771,10.8251,34.1485,0.5679,-1.096,-0.2548,0.106
17:05:15:941,1.127,2.9501,10.926,35.8125,0.3389,-0.8434,-0.1334,0.1115
17:05:15:967,0.9881,3.506,11.055,35.7953,0.0991,-0.183,0.0978,0.1162
17:05:15:984,0.9881,3.879,11.256,35.3961,-0.1288,0.5957,0.2564,0.1192
17:05:16:002,1.689,3.135,11.84,34.668,-0.443,0.8694,0.1574,0.121
17:05:16:021,1.874,2.1221,12.743,35.3396,-0.8393,0.4242,-0.2633,0.1225
17:05:16:040,1.5,1.37,12.417,35.3379,-1.0949,-0.1404,-0.6405,0.1232
17:05:16:060,1.3091,0.803,11.8211,34.8184,-1.0576,-0.1713,-0.6458,0.1218
17:05:16:080,1.503,0.362,11.1251,36.4551,-0.753,0.0683,-0.3838,0.1171
17:05:16:100,1.833,0.362,10.224,36.3731,-0.3109,0.3411,-0.1547,0.11
17:05:16:119,1.998,0.8651,9.231,36.1242,0.144,0.4444,0.0093,0.1022
17:05:16:139,2.309,0.908,8.4101,36.444,0.4678,0.3219,-0.0396,0.096
17:05:16:159,2.223,1.128,7.49,36.8517,0.6201,0.012,-0.3252,0.0926
17:05:16:190,1.74,1.5401,6.7241,36.9668,0.6094,-0.2288,-0.6788,0.0922
17:05:16:199,1.2371,2.045,6.063,36.9164,0.5189,-0.2501,-0.8918,0.0944
17:05:16:220,0.7961,2.366,5.6831,37.1865,0.4209,-0.0861,-0.8983,0.098
17:05:16:239,0.5089,2.546,5.625,37.0014,0.293,0.0556,-0.8312,0.1021
17:05:16:259,0.0971,2.79,5.9201,37.296,0.1323,0.0631,-0.7938,0.1065
17:05:16:279,-0.2921,3.051,6.678,36.8016,-0.0478,-0.1511,-0.7949,0.1108
17:05:16:299,-0.321,3.0791,7.698,37.264,-0.2247,-0.4195,-0.8099,0.1143
17:05:16:319,-0.378,3.075,9.0941,36.9456,-0.3833,-0.6656,-0.8088,0.1166
17:05:16:339,-0.5531,3.156,10.3511,36.5404,-0.4121,-0.5697,-0.6863,0.1171
17:05:16:359,-0.692,3.228,11.2751,37.0983,-0.2886,-0.2288,-0.4881,0.1156
17:05:16:382,-0.678,3.168,11.979,37.0472,-0.0499,0.2772,-0.3167,0.1093
17:05:16:400,-0.663,3.24,12.657,38.1581,0.146,0.4327,-0.2485,0.1072
17:05:16:419,-0.797,3.443,12.767,37.8433,0.2591,0.3059,-0.2591,0.1071
17:05:16:438,-1.0369,3.834,12.401,37.3622,0.2995,0.2963,-0.2442,0.1088
17:05:16:459,-0.699,3.609,12.279,37.7776,0.2515,0.2218,-0.1675,0.1116
17:05:16:483,-0.867,3.077,12.099,37.2716,0.0874,0.0811,-0.2079,0.1148
17:05:16:500,-1.5611,2.577,11.39,38.1087,-0.0957,0.0077,-0.2325,0.1175
17:05:16:518,-2.15,1.9571,10.689,38.1173,-0.2139,0.1621,-0.095,0.1191
17:05:16:538,-2.399,1.439,10.67,37.8564,-0.2981,0.0588,0.1446,0.1196
17:05:16:558,-1.9151,0.87,10.808,38.4168,-0.3823,-0.3417,0.3109,0.119
17:05:16:591,-1.006,0.3191,10.7561,39.131,-0.4664,-0.7083,0.2896,0.117
17:05:16:598,-0.369,-0.0941,10.3661,38.1692,-0.5538,-0.7615,0.1426,0.1132
17:05:16:617,-0.381,-0.135,9.4729,38.7008,-0.5974,-0.4866,0.0978,0.1075
17:05:16:637,-0.747,0.084,8.33,38.6188,-0.5133,0.1056,0.297,0.1006
17:05:16:657,-0.9581,0.3671,7.5551,39.3865,-0.3439,0.7033,0.6528,0.0938
17:05:16:680,-0.8981,0.822,7.1501,39.393,-0.1671,0.8992,0.9713,0.0889
17:05:16:698,-0.6941,1.37,7.007,39.2526,-0.0041,0.6809,1.1876,0.0862
17:05:16:716,-0.0311,1.8251,6.851,39.8513,0.1823,0.3486,1.2717,0.0856
17:05:16:737,0.483,2.3471,7.04,39.6921,0.3953,0.1226,1.1843,0.0866
17:05:16:757,0.794,2.771,7.3751,39.4795,0.5786,-0.0659,0.9511,0.0886
17:05:16:782,1.005,2.6801,8.3351,40.1175,0.6446,-0.3279,0.6358,0.0917
17:05:16:798,0.801,2.6531,9.099,40.061,0.5721,-0.6347,0.3865,0.0955
17:05:16:816,0.686,2.838,9.7241,40.7172,0.4444,-0.7018,0.3311,0.0995
17:05:16:837,1.1,2.7491,10.2701,40.5905,0.2782,-0.5474,0.3407,0.1029
17:05:16:856,1.416,2.921,10.686,40.582,0.047,-0.232,0.3279,0.1054
17:05:16:880,1.476,3.281,11.0651,41.2689,-0.1926,0.1013,0.3801,0.1068
17:05:16:897,1.685,3.666,11.369,41.2712,-0.3387,0.3901,0.5185,0.107
17:05:16:916,2.843,3.5441,12.08,41.0954,-0.4388,0.4998,0.5389,0.1064
17:05:16:936,3.657,2.8931,12.923,41.0612,-0.5687,0.2793,0.1904,0.1049
17:05:16:955,3.53,1.7291,12.975,41.8011,-0.6412,-0.0338,-0.3923,0.1024
17:05:16:990,3.032,0.372,12.075,42.4486,-0.5676,-0.0989,-0.8088,0.0985
17:05:16:995,2.3141,-0.243,11.16,42.4563,-0.3652,0.0418,-0.8737,0.0939
17:05:17:015,1.869,-0.1571,10.3061,43.2153,-0.1064,0.1462,-0.6948,0.0896
17:05:17:034,1.907,-0.111,9.315,43.1102,0.1226,0.2793,-0.5158,0.0864
17:05:17:055,1.6391,0.309,8.445,43.2114,0.225,0.3847,-0.5786,0.0848
17:05:17:078,0.9641,0.908,7.833,43.9154,0.1951,0.2996,-0.781,0.085
17:05:17:095,0.1331,1.497,7.097,43.305,0.0811,0.1024,-0.927,0.0863
17:05:17:114,-0.29,2.201,6.5321,43.8938,-0.0191,-0.0221,-0.8492,0.088
17:05:17:135,0.0011,2.649,6.3821,43.7867,-0.051,-0.0627,-0.6416,0.0895
17:05:17:154,0.6,2.7011,6.542,44.6227,-0.0478,-0.1085,-0.5829,0.0907
17:05:17:181,0.9881,2.795,6.789,43.9576,-0.0063,-0.0946,-0.7332,0.0913
17:05:17:194,1.0841,2.72,7.143,43.8947,0.0832,-0.003,-0.9632,0.0914
17:05:17:215,0.9971,2.462,7.749,45.4398,0.1451,-0.085,-1.1613,0.0918
17:05:17:234,0.581,2.493,8.943,44.7909,0.1429,-0.3545,-1.2221,0.0926
17:05:17:254,0.143,2.718,9.975,45.3834,0.1195,-0.6208,-1.1454,0.0935
17:05:17:281,-0.266,3.06,10.4921,45.6913,0.1983,-0.4664,-0.9802,0.0941
17:05:17:296,-0.699,3.0821,10.658,45.5744,0.3964,0.1163,-0.7758,0.0945
17:05:17:313,-1.116,3.041,11.321,45.5284,0.5019,0.6755,-0.6447,0.0962
17:05:17:334,-1.832,3.063,12.5921,45.8649,0.358,0.7639,-0.6458,0.1002
17:05:17:353,-2.933,3.1421,13.5761,45.6641,0.065,0.1515,-0.6373,0.1059
17:05:17:391,-3.218,2.8541,13.923,46.7865,-0.1543,-0.6282,-0.4327,0.1111
17:05:17:394,-2.7371,2.1341,13.464,46.7265,-0.2321,-0.8744,-0.2325,0.1134
17:05:17:414,-2.954,1.5401,12.0251,46.6739,-0.1022,-0.2842,-0.0556,0.1123
17:05:17:432,-3.8861,1.212,10.7321,46.6527,0.1716,0.6106,0.2523,0.1099
17:05:17:453,-4.257,1.0871,10.172,47.3389,0.389,0.7693,0.6517,0.1091
17:05:17:484,-3.6851,1.02,9.975,47.7436,0.4422,0.176,0.8988,0.1111
17:05:17:494,-2.4731,1.0781,9.755,48.4478,0.3645,-0.6879,0.9105,0.1148
17:05:17:513,-0.9341,0.786,9.243,48.9981,0.1909,-1.0662,0.7604,0.1176
17:05:17:532,-0.218,0.788,8.402,49.6382,-0.0499,-0.7615,0.6677,0.1182
17:05:17:552,-0.3611,0.987,7.574,48.8272,-0.2736,-0.0307,0.7743,0.1166
17:05:17:583,-0.498,1.056,6.848,49.6088,-0.4345,0.6841,1.0065,0.1139
17:05:17:595,-0.4571,1.2341,6.729,50.3602,-0.5357,1.0186,1.2462,0.1112
17:05:17:611,-0.314,1.6361,6.683,51.2255,-0.557,0.9387,1.4059,0.1089
17:05:17:633,0.0641,1.902,6.5921,51.2076,-0.4643,0.6255,1.4219,0.1069
17:05:17:652,0.449,2.1101,7.0691,52.2224,-0.3014,0.2335,1.2419,0.105
17:05:17:681,0.5261,2.411,8.6081,51.9606,-0.1277,-0.3578,0.8733,0.1028
17:05:17:693,0.758,2.313,9.666,52.6223,0.0928,-0.9713,0.4366,0.1005
17:05:17:712,0.8561,1.791,10.3661,52.5473,0.3293,-1.0747,0.054,0.0981
17:05:17:732,0.27,1.9781,10.8371,53.2799,0.472,-0.8073,-0.0811,0.0958
17:05:17:752,-0.105,2.067,11.5631,53.3086,0.4209,-0.413,0.1052,0.0945
17:05:17:791,-0.0791,2.088,11.9771,54.2612,0.1557,-0.1606,0.3886,0.0947
17:05:17:795,0.095,2.2271,12.0131,54.2732,-0.1437,0.0609,0.5665,0.0953
17:05:17:813,0.231,2.435,12.1421,55.0819,-0.378,0.3421,0.5643,0.0954
17:05:17:831,0.59,1.89,12.614,54.4292,-0.5932,0.422,0.3704,0.0943
17:05:17:851,0.4901,0.9731,12.8771,55.3135,-0.7904,0.275,0.0392,0.0922
17:05:17:882,0.255,0.6641,12.678,56.6865,-0.7924,0.2196,-0.0375,0.0885
17:05:17:892,0.4661,0.549,12.207,56.0548,-0.5197,0.2463,0.3087,0.0835
17:05:17:912,1.6151,0.02,11.1581,56.9139,-0.117,0.3358,0.6464,0.0783
17:05:17:931,2.235,0.443,9.9731,57.3663,0.2921,0.4935,0.7976,0.0744
17:05:17:952,2.549,0.666,9.116,56.9364,0.5551,0.5669,0.7348,0.0728
17:05:17:981,2.4941,0.884,8.074,58.1889,0.5647,0.4253,0.3865,0.0741
17:05:17:991,2.072,1.277,7.239,57.9064,0.3783,0.1728,-0.0333,0.0776
17:05:18:012,1.397,1.724,6.377,59.4772,0.1375,0.1451,-0.2633,0.0817
17:05:18:032,0.71,1.796,5.984,58.9125,-0.0936,0.3454,-0.2377,0.0852
17:05:18:053,0.272,1.854,6.161,59.6144,-0.3003,0.4646,-0.0513,0.0877
17:05:18:081,0.3341,2.031,6.7481,59.9464,-0.4249,0.3719,0.1265,0.089
17:05:18:091,0.59,2.136,7.397,60.8411,-0.4249,0.2314,0.1723,0.089
17:05:18:111,0.7751,2.081,7.89,60.8323,-0.3014,0.1473,0.0296,0.0876
17:05:18:131,0.765,2.162,8.412,60.8167,-0.0914,0.1259,-0.2027,0.0855
17:05:18:152,0.483,2.423,9.0319,60.958,0.1375,0.0578,-0.3932,0.0837
17:05:18:192,-0.1631,2.6771,10.437,62.25,0.3814,-0.2032,-0.5382,0.0831
17:05:18:209,-0.431,2.7161,11.3261,62.2296,0.3762,-0.3695,-0.5148,0.0841
17:05:18:228,-0.5081,2.598,11.958,62.1393,0.358,-0.3237,-0.3591,0.0862
17:05:18:247,-0.464,2.459,12.561,63.0781,0.3612,-0.004,-0.0802,0.089
17:05:18:268,-0.68,2.795,12.53,63.0799,0.3772,0.406,0.2447,0.0919
17:05:18:292,-0.8261,3.273,12.494,63.064,0.3623,0.7512,0.5474,0.0949
17:05:18:307,-0.7331,2.864,12.506,63.7788,0.2324,0.5478,0.6091,0.0984
17:05:18:328,-1.185,2.328,11.807,63.6692,0.0619,0.1419,0.3194,0.1029
17:05:18:348,-1.994,1.9811,10.581,64.896,0.0396,0.078,0.0744,0.1077
17:05:18:367,-2.658,1.88,9.863,65.2066,0.1599,0.1728,0.1521,0.1113
17:05:18:387,-2.492,1.5761,9.552,65.5375,0.2494,-0.0605,0.3524,0.1136
17:05:18:407,-1.9271,1.427,9.3821,66.2839,0.2068,-0.4141,0.3726,0.1154
17:05:18:427,-0.9821,1.1111,9.3,65.4401,0.0502,-0.7294,0.1649,0.1175
17:05:18:447,-0.2081,0.8411,9.1421,66.7577,-0.132,-0.9138,-0.0918,0.1192
17:05:18:466,0.08,0.9101,8.5961,66.7093,-0.2054,-0.8328,-0.1473,0.1197
17:05:18:490,-0.0221,1.305,7.871,67.1152,-0.1352,-0.4099,0.1085,0.1185
17:05:18:507,-0.108,1.7171,7.193,67.0418,0.0331,0.0982,0.5218,0.1156
17:05:18:526,0.162,1.9691,6.7691,67.7525,0.179,0.5189,0.8264,0.1121
17:05:18:546,0.2981,2.4791,6.7931,67.662,0.2238,0.5627,0.8977,0.1096
17:05:18:566,0.3581,3.087,6.971,67.1933,0.243,0.2633,0.8008,0.1093
17:05:18:590,0.645,3.269,7.1051,68.5609,0.291,-0.0818,0.5686,0.1108
17:05:18:606,0.8681,3.362,7.514,68.5609,0.3432,-0.3002,0.2948,0.1132
17:05:18:626,0.8321,3.3311,8.659,68.9502,0.3708,-0.4834,0.0946,0.1156
17:05:18:646,0.734,3.17,9.786,69.3736,0.3399,-0.6912,-0.0791,0.118
17:05:18:665,0.803,2.991,10.5311,69.7888,0.3091,-0.6219,-0.1653,0.1204
17:05:18:686,1.127,2.5001,11.091,69.798,0.2515,-0.3407,-0.1771,0.1227
17:05:18:706,0.959,2.5691,11.565,69.7749,0.1216,0.0342,-0.1015,0.1248
17:05:18:725,0.296,3.348,12.0731,70.224,-0.0297,0.3667,0.1,0.1263
17:05:18:745,0.3461,3.728,12.408,70.6857,-0.1288,0.518,0.3322,0.1275
17:05:18:765,1.766,2.73,12.8891,70.76,-0.2247,0.4466,0.2885,0.1283
17:05:18:785,2.432,1.631,13.3421,70.8301,-0.3535,0.0844,-0.1547,0.129
17:05:18:805,2.1851,0.7361,12.803,71.1757,-0.377,-0.2342,-0.5754,0.1291
17:05:18:825,1.934,0.156,11.6111,70.7386,-0.1969,-0.2342,-0.6288,0.1281
17:05:18:845,1.704,0.2111,10.325,71.1719,0.0821,-0.0104,-0.4093,0.126
17:05:18:864,1.8431,0.755,9.0101,70.8353,0.3123,0.2857,-0.1238,0.1235
17:05:18:884,2.276,1.0871,7.8011,70.5964,0.3677,0.439,-0.0822,0.1217
17:05:18:906,2.216,1.325,7.184,71.1554,0.225,0.3315,-0.3486,0.1215
17:05:18:924,1.3661,2.045,6.5711,70.8676,-0.0234,0.0342,-0.6447,0.1231
17:05:18:944,0.4661,2.591,5.91,70.8495,-0.2076,-0.0275,-0.7065,0.1256
17:05:18:964,0.195,2.6321,5.6111,71.3219,-0.2747,0.1163,-0.5968,0.1275
17:05:18:994,0.267,2.67,6.02,71.581,-0.2736,0.1451,-0.5413,0.1283
17:05:19:003,0.315,2.9531,6.5591,71.5723,-0.2395,-0.0253,-0.5989,0.1282
17:05:19:023,0.3701,3.156,6.837,72.0555,-0.1628,-0.1265,-0.715,0.1274
17:05:19:043,0.1691,3.2711,7.136,71.8558,-0.0308,0.0044,-0.7991,0.1261
17:05:19:063,0.0161,3.02,7.9451,72.3718,0.0641,0.0151,-0.8429,0.1245
17:05:19:083,-0.39,2.993,9.422,72.1549,0.0235,-0.3119,-0.8907,0.1233
17:05:19:103,-0.728,3.336,10.3031,72.098,-0.0254,-0.5644,-0.8354,0.1229
17:05:19:123,-0.8021,3.3911,10.797,72.5672,0.0491,-0.2405,-0.6212,0.123
17:05:19:143,-1.1201,3.513,11.6321,72.9334,0.2122,0.3912,-0.2826,0.1229
17:05:19:162,-1.314,3.546,12.4871,72.879,0.2793,0.7332,-0.0109,0.1226
17:05:19:184,-1.805,3.6401,13.0931,72.9901,0.1886,0.6991,0.0957,0.1234
17:05:19:203,-1.9751,3.6491,13.638,72.9891,0.0311,0.437,0.1213,0.1261
17:05:19:222,-1.307,3.108,13.9211,72.9049,-0.1448,-0.0318,0.0924,0.1298
17:05:19:242,-1.118,2.55,13.346,72.8615,-0.2833,-0.2064,-0.0034,0.1333
17:05:19:262,-1.899,2.0951,11.675,72.8615,-0.2608,0.1558,0.0275,0.1353
17:05:19:282,-2.8421,1.782,10.332,73.4133,-0.0584,0.7673,0.2938,0.1352
17:05:19:301,-3.057,1.43,9.9011,72.877,0.1418,0.6724,0.5771,0.134
17:05:19:321,-2.564,1.2671,9.501,72.9532,0.225,-0.021,0.5995,0.1334
17:05:19:340,-1.539,1.1861,9.099,72.8885,0.227,-0.6742,0.4003,0.1344
17:05:19:360,-0.4961,1.0871,8.5751,72.0973,0.1716,-0.9702,0.1552,0.1361
17:05:19:390,-0.1121,1.152,7.971,73.2547,0.1162,-0.8499,0.069,0.1373
17:05:19:400,-0.101,1.317,7.26,73.2372,0.0747,-0.3663,0.199,0.1372
17:05:19:420,-0.1991,1.5641,6.683,72.614,-0.0095,0.242,0.4493,0.1361
17:05:19:441,-0.2921,1.9301,6.5561,73.8384,-0.1543,0.6064,0.6879,0.1346
17:05:19:460,-0.326,2.4191,6.47,73.2988,-0.2725,0.617,0.851,0.1335
17:05:19:480,-0.069,2.859,6.506,73.6332,-0.2875,0.4859,0.9383,0.133
17:05:19:500,0.272,3.252,7.011,73.1207,-0.2193,0.2665,0.9031,0.1328
17:05:19:521,0.593,3.3311,8.093,72.9183,-0.1255,-0.15,0.6783,0.1322
17:05:19:540,0.815,3.099,9.116,73.3393,-0.0169,-0.6358,0.3024,0.1312
17:05:19:560,0.861,2.699,9.798,73.413,0.1056,-0.8009,-0.0003,0.1299
17:05:19:582,0.66,2.6321,10.6241,73.7671,0.1673,-0.7305,-0.1174,0.1285
17:05:19:600,0.519,2.711,11.445,74.3069,0.1482,-0.5963,-0.0822,0.1269
17:05:19:620,0.401,2.775,11.8601,74.2445,0.0641,-0.362,0.0082,0.1255
17:05:19:639,0.159,3.012,12.0101,74.7888,-0.0137,0.0375,0.1543,0.1244
17:05:19:658,-0.2711,3.714,12.056,73.6526,-0.0638,0.4273,0.3662,0.1232
17:05:19:681,0.353,3.297,12.18,74.4402,-0.15,0.5317,0.4451,0.1222
17:05:19:698,1.431,2.088,12.396,75.0502,-0.3609,0.3475,0.0839,0.1218
17:05:19:718,1.208,1.346,12.341,74.9693,-0.5581,0.0663,-0.4316,0.1219
17:05:19:738,0.734,0.7931,11.73,75.3309,-0.5314,0.0109,-0.5754,0.1214
17:05:19:761,0.648,0.192,11.046,75.3294,-0.3174,0.0939,-0.3656,0.1194
17:05:19:791,0.768,0.192,10.205,75.8743,-0.0468,0.1601,-0.0716,0.1161
17:05:19:798,1.242,0.597,9.2021,75.2213,0.1759,0.2144,0.0914,0.1126
17:05:19:818,1.677,0.896,8.1941,75.8615,0.2452,0.2016,-0.0216,0.1099
17:05:19:838,1.448,1.341,7.493,75.8291,0.1621,0.0674,-0.2889,0.1086
17:05:19:860,0.7601,1.959,6.8651,76.3391,0.0033,-0.0403,-0.4764,0.1088
17:05:19:878,0.164,2.411,6.3941,76.2817,-0.1372,0.0694,-0.4828,0.1097
17:05:19:898,-0.153,2.519,6.468,76.3026,-0.2523,0.1695,-0.4136,0.1105
17:05:19:918,-0.249,2.5361,6.8891,76.2816,-0.3066,0.1248,-0.3497,0.1109
17:05:19:937,-0.189,2.531,6.975,77.4553,-0.2417,0.1601,-0.2974,0.1109
17:05:19:957,-0.2539,2.534,7.121,77.4654,-0.1011,0.3134,-0.242,0.1102
17:05:19:982,-0.306,2.555,7.586,77.5056,-0.0063,0.2633,-0.242,0.1078
17:05:19:997,-0.165,2.6321,8.5721,78.0758,-0.0234,-0.084,-0.3465,0.1074
17:05:20:017,-0.1721,2.7371,9.975,78.646,-0.0851,-0.5474,-0.4902,0.1074
17:05:20:037,-0.1601,2.847,10.8611,78.0919,-0.0403,-0.7242,-0.5307,0.107
17:05:20:060,-0.053,2.799,11.409,78.6449,0.1972,-0.3439,-0.3816,0.1059
17:05:20:079,-0.294,2.7851,12.132,79.922,0.4476,0.1376,-0.1994,0.1051
17:05:20:097,-0.5,2.886,12.5081,79.2602,0.5147,0.4029,-0.1376,0.1062
17:05:20:116,-1.075,3.269,12.3431,80.0342,0.4305,0.5424,-0.0503,0.1094
17:05:20:136,-1.796,3.872,11.8721,80.0846,0.3367,0.7406,0.2086,0.1139
17:05:20:156,-1.626,3.609,11.687,80.9013,0.2537,0.7853,0.4749,0.119
17:05:20:191,-1.4321,2.783,11.7491,80.8798,0.0619,0.4859,0.4216,0.1242
17:05:20:196,-2.011,2.366,11.271,80.7806,-0.1192,0.1206,0.2182,0.1287
17:05:20:216,-2.3651,1.8581,10.442,80.2149,-0.1107,0.0993,0.2054,0.1314
17:05:20:235,-2.4131,1.7051,10.1861,80.801,0.0374,0.1238,0.3908,0.1325
17:05:20:257,-1.6931,1.571,9.8171,81.5797,0.1781,-0.1042,0.5142,0.1331
17:05:20:277,-0.675,1.37,9.441,81.5729,0.1929,-0.3311,0.3619,0.1338
17:05:20:296,0.03,1.052,9.204,81.5692,0.0129,-0.4823,0.0136,0.1344
17:05:20:315,-0.038,0.965,8.769,81.9874,-0.2651,-0.5261,-0.2303,0.1343
17:05:20:335,-0.3971,1.0039,8.0291,82.5389,-0.4516,-0.2992,-0.1653,0.1327
17:05:20:357,-0.701,1.217,7.373,81.2544,-0.4697,0.1951,0.1862,0.1293
17:05:20:380,-0.792,1.5761,7.188,83.3136,-0.3578,0.5999,0.6549,0.1252
17:05:20:394,-0.4571,2.033,7.2941,82.8092,-0.2023,0.6287,0.9574,0.1216
17:05:20:415,-0.0911,2.67,7.6961,82.8108,-0.0297,0.308,1.0097,0.1195
17:05:20:435,0.3371,2.996,7.976,83.6205,0.2142,-0.1128,0.8541,0.1187
17:05:20:456,0.66,3.0581,8.079,83.566,0.5019,-0.3843,0.527,0.1188
17:05:20:480,0.665,3.252,8.4431,84.1995,0.7011,-0.51,0.1766,0.1201
17:05:20:494,0.4871,3.336,9.128,83.6668,0.7267,-0.6123,-0.0631,0.1229
17:05:20:514,0.3011,3.015,9.906,84.9515,0.6051,-0.7294,-0.1803,0.127
17:05:20:534,0.147,2.718,10.397,84.2772,0.4316,-0.6645,-0.1792,0.1314
17:05:20:553,-0.0551,2.732,10.8881,84.4589,0.2739,-0.4014,-0.0513,0.135
17:05:20:591,-0.539,3.3551,11.0621,85.033,0.1738,-0.0093,0.1723,0.1375
17:05:20:594,-0.651,4.001,11.1581,85.0153,0.1162,0.3912,0.3715,0.1394
17:05:20:613,-0.39,4.554,11.3021,86.4814,0.0598,0.5521,0.5037,0.1415
17:05:20:633,1.122,3.546,11.4911,85.1812,-0.082,0.4049,0.3237,0.1438
17:05:20:655,1.9241,2.2151,11.646,85.8932,-0.3418,0.0588,-0.2377,0.1457
17:05:20:677,1.2371,1.607,11.357,86.345,-0.5101,-0.2555,-0.6192,0.1461
17:05:20:693,0.801,1.334,10.71,86.2998,-0.426,-0.3035,-0.4785,0.1444
17:05:20:712,1.019,0.9101,9.9851,86.2364,-0.1959,-0.1713,-0.1653,0.1412
17:05:20:733,1.629,0.927,9.408,84.9516,-0.0169,-0.0434,-0.0492,0.1377
17:05:20:754,1.922,1.059,8.7881,84.929,-0.0191,-0.1404,-0.2016,0.1349
17:05:20:781,1.713,1.214,8.144,85.4752,-0.1724,-0.2981,-0.454,0.1329
17:05:20:792,1.024,1.751,7.854,84.7955,-0.3728,-0.2703,-0.5808,0.131
17:05:20:812,0.315,2.309,7.536,84.0652,-0.5038,-0.0168,-0.4689,0.1282
17:05:20:832,0.068,2.253,7.346,85.2367,-0.5474,0.2633,-0.2815,0.1246
17:05:20:853,0.078,2.136,7.203,85.9444,-0.5463,0.3752,-0.2207,0.121
17:05:20:879,0.068,2.2391,7.244,84.6441,-0.5166,0.4177,-0.2453,0.1175
17:05:20:892,0.0131,2.426,7.437,83.8739,-0.4334,0.3741,-0.2815,0.1139
17:05:20:912,0.0641,2.4521,7.674,85.1849,-0.3142,0.2324,-0.3326,0.1106
17:05:20:932,0.164,2.34,8.0261,85.1771,-0.2002,0.0854,-0.406,0.1076
17:05:20:951,0.0491,2.366,9.0701,84.6777,-0.1437,-0.1361,-0.4913,0.1051
17:05:20:991,0.071,2.6201,9.827,85.9281,-0.0616,-0.3407,-0.4722,0.1031
17:05:20:994,0.399,2.6891,10.313,85.8682,0.128,-0.1489,-0.3528,0.1014
17:05:21:011,0.3611,2.835,10.976,85.3711,0.3058,0.1387,-0.2527,0.1004
17:05:21:030,0.126,2.7731,11.867,85.3307,0.3304,0.1195,-0.2846,0.101
17:05:21:050,-0.074,2.4281,12.563,86.0153,0.2548,-0.0318,-0.3869,0.103
17:05:21:078,-1.068,2.816,12.5561,86.6685,0.2409,-0.0125,-0.3304,0.1053
17:05:21:090,-1.4771,3.111,12.221,86.6625,0.3186,0.2718,-0.0556,0.1073
17:05:21:111,-1.302,2.7251,11.91,86.1237,0.2409,0.4646,0.0892,0.11
17:05:21:131,-2.102,2.5481,11.6321,86.0404,0.0481,0.3975,0.0861,0.1133
17:05:21:151,-2.969,2.057,10.88,85.0601,-0.0659,0.3113,0.1148,0.1163
17:05:21:181,-3.4481,1.641,10.2221,86.1965,-0.0223,0.3165,0.2447,0.1185
17:05:21:190,-3.218,1.545,9.8411,85.4465,0.0832,0.1653,0.411,0.1199
17:05:21:211,-2.3681,1.485,9.437,86.614,0.128,0.0012,0.428,0.1212
17:05:21:231,-1.4771,1.064,9.437,85.8064,-0.0063,-0.1478,0.199,0.1225
17:05:21:251,-1.2521,0.786,9.585,85.0223,-0.3333,-0.3823,-0.1015,0.1232
17:05:21:279,-1.5131,0.788,9.252,86.2666,-0.6348,-0.3598,-0.1132,0.1223
17:05:21:291,-1.671,0.927,8.661,85.1849,-0.7094,0.0683,0.2501,0.119
17:05:21:311,-1.776,1.143,8.283,85.7798,-0.5463,0.6351,0.7956,0.1139
17:05:21:331,-1.152,1.241,8.07,86.0798,-0.3142,0.8716,1.1578,0.1089
17:05:21:351,-0.905,1.8011,8.3381,86.279,-0.1022,0.6755,1.2547,0.1054
17:05:21:389,-0.644,2.34,8.33,86.364,0.1269,0.2005,1.1598,0.1038
17:05:21:393,-0.342,2.984,8.5361,86.2518,0.407,-0.0818,0.9745,0.1039
17:05:21:411,0.2501,2.979,9.2981,86.6965,0.6201,-0.3598,0.6496,0.1055
17:05:21:430,0.492,2.8451,9.6641,85.7005,0.7032,-0.5719,0.183,0.1086
17:05:21:451,0.215,2.735,10.0901,85.6014,0.7276,-0.6571,-0.1686,0.1127
17:05:21:478,0.068,2.3711,10.296,87.5544,0.7969,-0.656,-0.2601,0.1174
17:05:21:491,0.164,1.9571,10.5071,86.2016,0.8757,-0.6282,-0.1866,0.1223
17:05:21:510,0.116,2.139,10.5791,86.1442,0.8544,-0.5037,-0.1185,0.1275
17:05:21:530,-0.3161,2.783,10.253,86.371,0.7575,-0.2075,-0.0472,0.1331
17:05:21:552,-1.046,3.692,9.894,85.7816,0.6042,0.1567,0.0573,0.1389
17:05:21:581,-1.329,4.535,10.4111,86.3058,0.3762,0.225,0.2149,0.145
17:05:21:590,-0.2321,4.023,11.057,84.9702,0.0183,-0.1937,0.1617,0.1509
17:05:21:610,0.914,2.8211,10.9691,87.042,-0.3472,-0.4323,-0.1653,0.1553
17:05:21:629,0.437,2.2031,10.641,86.581,-0.4782,-0.2501,-0.3006,0.1565
17:05:21:650,0.1691,1.8491,9.846,86.5182,-0.281,0.0268,-0.0598,0.1547
17:05:21:681,0.9851,0.8651,9.128,87.0377,0.0278,0.1717,0.1851,0.1516
17:05:21:690,1.74,0.743,8.534,86.1743,0.1621,0.0162,0.1415,0.1493
17:05:21:710,1.895,1.368,8.0891,86.1742,0.0991,-0.1895,-0.0364,0.1482
17:05:21:730,1.637,2.004,7.524,86.1508,-0.099,-0.2267,-0.209,0.1477
17:05:21:751,1.103,2.7041,7.1411,87.013,-0.3077,-0.0349,-0.2485,0.147
17:05:21:791,0.5501,2.9411,6.657,86.6201,-0.4612,0.4082,-0.1356,0.1456
17:05:21:806,0.444,2.8691,6.983,86.2999,-0.4239,0.4135,-0.2229,0.1435
17:05:21:826,0.255,2.907,7.3901,86.2674,-0.3418,0.2036,-0.3625,0.1411
17:05:21:846,-0.0191,2.9141,7.713,87.5499,-0.181,0.0129,-0.4967,0.1384
17:05:21:866,-0.2801,3.041,7.7561,87.5569,0.0331,0.0492,-0.5669,0.1357
17:05:21:886,-0.306,3.173,8.031,85.532,0.1833,0.1365,-0.5606,0.1333
17:05:21:905,-0.2539,3.1781,8.663,86.7515,0.1599,0.0769,-0.5404,0.1318
17:05:21:925,-0.45,3.1151,9.774,87.6235,-0.0201,-0.1563,-0.5478,0.1316
17:05:21:949,-0.687,3.1991,10.761,87.2202,-0.1798,-0.3087,-0.5072,0.1328
17:05:21:966,-0.716,3.357,11.318,87.559,-0.1288,-0.0744,-0.2974,0.134
17:05:21:985,-0.836,3.542,11.6081,88.0626,0.1195,0.4327,0.0158,0.1342
17:05:22:005,-0.716,3.714,11.783,87.4414,0.3475,0.7298,0.1798,0.1337
17:05:22:025,-1.034,4.178,11.852,87.087,0.4422,0.6969,0.1595,0.1339
17:05:22:045,-1.247,4.37,11.862,87.1416,0.4155,0.439,0.0573,0.1362
17:05:22:066,-0.989,3.5561,11.9771,87.5403,0.2207,-0.0201,-0.2112,0.1405
17:05:22:085,-1.523,2.835,12.053,87.5185,-0.0829,-0.395,-0.5318,0.1455
17:05:22:105,-2.5211,2.4191,11.22,87.7834,-0.2481,-0.3246,-0.5115,0.1499
17:05:22:125,-3.306,2.076,10.1861,87.736,-0.1778,0.2229,-0.0556,0.1523
17:05:22:148,-3.2801,1.686,9.827,88.3627,-0.0137,0.5265,0.4866,0.1524
17:05:22:164,-2.559,1.43,9.432,87.7316,0.0758,0.3358,0.6773,0.1515
17:05:22:190,-1.899,1.605,8.8931,87.2945,0.063,0.0705,0.525,0.1512
17:05:22:204,-1.266,1.4471,8.2661,87.3078,-0.0606,-0.0168,0.2405,0.1517
17:05:22:224,-1.149,1.509,7.847,87.3097,-0.2705,-0.0446,0.0924,0.1524
17:05:22:247,-1.077,1.77,7.44,88.0102,-0.4334,0.0023,0.2032,0.1526
17:05:22:265,-0.9341,1.9091,7.299,87.4434,-0.4771,0.1195,0.4153,0.1517
