Time,Acc_X,Acc_Y,Acc_Z,Meg,Gyr_X,Gyr_Y,Gyr_Z,Ore
17:25:43:763,-0.4416,2.3182,9.5398,39.8912,-0.4128,0.0259,-0.3927,119.9502
17:25:43:782,-0.7229,2.2943,9.8846,38.8667,-0.3499,0.0685,-0.3757,123.5649
17:25:43:801,-1.0426,2.25,9.9361,38.106,-0.2657,-0.0639,-0.377,126.3275
17:25:43:821,-0.8714,2.3972,9.9289,38.585,-0.1912,-0.1121,-0.4473,129.0199
17:25:43:841,-1.0665,2.5097,9.8954,41.2953,-0.1195,-0.124,-0.4545,131.6435
17:25:43:861,-1.0881,2.6546,9.6619,38.8219,-0.0777,-0.0958,-0.4121,134.2037
17:25:43:884,-0.9911,2.6606,9.4572,39.1282,-0.0902,-0.0351,-0.3754,136.7029
17:25:43:901,-1.0306,2.5827,9.6284,39.5442,-0.1078,0.0182,-0.3296,139.1414
17:25:43:920,-0.7289,2.5744,9.7445,39.1441,-0.135,-0.0162,-0.3562,141.5191
17:25:43:939,-0.547,2.6678,9.9097,39.8963,-0.1773,-0.09,-0.4326,143.8368
17:25:43:959,-0.7086,2.6294,10.1228,39.2016,-0.2199,-0.0846,-0.4606,146.0972
17:25:43:980,-0.9468,2.5301,10.3646,38.1212,-0.2623,-0.0135,-0.4289,148.3039
17:25:44:000,-1.0306,2.4487,10.7393,37.8745,-0.2902,0.0568,-0.3882,150.4599
17:25:44:019,-1.1575,2.1674,11.1966,37.5544,-0.2775,0.1266,-0.3378,152.5657
17:25:44:040,-1.1982,1.8801,11.855,37.9095,-0.1451,0.1724,-0.3024,154.6208
17:25:44:060,-1.1024,1.7579,11.879,36.4063,0.0152,0.2682,-0.304,156.6143
17:25:44:080,-1.209,1.8418,11.7449,37.7297,0.1228,0.4616,-0.3006,158.559
17:25:44:100,-1.3897,2.1386,12.0657,38.0554,0.2674,0.644,-0.3011,160.4557
17:25:44:121,-2.0769,2.2811,11.7688,38.546,0.3625,0.778,-0.2697,162.3058
17:25:44:139,-2.916,2.1015,11.3103,37.5881,0.3369,0.8549,-0.1802,164.1108
17:25:44:159,-3.5194,1.8932,11.0972,37.157,0.2301,0.6992,-0.0867,165.8729
17:25:44:181,-4.0988,1.3869,10.859,38.9082,0.1036,0.3782,0.023,167.5928
17:25:44:199,-4.4136,0.2436,10.2569,36.8581,-0.0399,0.0304,0.1623,169.2685
17:25:44:220,-3.9132,-0.7272,9.9672,37.7375,-0.1315,-0.2415,0.3258,170.898
17:25:44:239,-2.8514,-1.382,9.62,37.9488,-0.1323,-0.442,0.3695,172.4786
17:25:44:259,-2.3271,-2.0776,9.2717,36.9468,-0.0673,-0.426,0.3596,174.0007
17:25:44:279,-2.0122,-2.3541,9.3219,37.4401,0.1095,-0.2173,0.3407,175.4639
17:25:44:303,-1.6279,-1.8058,9.219,37.4972,0.4112,-0.0386,0.2606,176.87
17:25:44:320,-1.519,-0.5381,8.1344,36.817,0.5622,0.0374,0.173,178.2223
17:25:44:339,-1.5717,0.7213,7.1588,36.6802,0.4949,0.0227,0.1359,179.5243
17:25:44:359,-1.6292,1.8513,6.492,39.6106,0.2491,-0.025,0.1509,-179.2179
17:25:44:378,-1.683,2.3553,6.3591,40.4097,-0.0828,-0.1334,0.2358,-178.0006
17:25:44:400,-1.5358,2.3278,6.9756,37.9903,-0.3235,-0.2641,0.3538,-176.8229
17:25:44:420,-0.8654,2.0955,7.8208,38.5023,-0.4277,-0.3062,0.3714,-175.6864
17:25:44:440,-0.7517,1.6023,8.3786,37.478,-0.412,-0.3059,0.3314,-174.5954
17:25:44:459,-0.8379,1.2049,8.7138,39.4329,-0.3318,-0.2665,0.2827,-173.5513
17:25:44:478,-0.8977,1.1678,8.9473,36.6147,-0.2415,-0.2039,0.2142,-172.5524
17:25:44:500,-1.1084,1.3461,9.1819,39.6743,-0.1659,-0.1648,0.1543,-171.5956
17:25:44:522,-1.3981,1.4838,9.3231,38.0554,-0.131,-0.1296,0.1261,-170.6768
17:25:44:541,-1.8686,1.5377,9.7385,38.9859,-0.058,-0.0804,0.1559,-169.7921
17:25:44:559,-2.1511,1.7532,10.3933,39.4649,0.1255,-0.1033,0.2286,-168.9393
17:25:44:578,-1.8243,2.3218,10.3359,37.2163,0.3335,-0.1738,0.2616,-168.1169
17:25:44:599,-1.525,2.8329,9.7337,36.1961,0.3886,-0.1469,0.2939,-167.3254
17:25:44:619,-1.3083,3.1179,9.2812,39.9956,0.2831,-0.0524,0.3242,-166.5658
17:25:44:639,-1.1647,3.0556,9.5302,37.5025,0.1356,0.003,0.3168,-165.8379
17:25:44:659,-0.9312,2.8174,10.0199,37.1856,-0.0037,-0.0023,0.2337,-165.1414
17:25:44:679,-0.9468,2.42,10.3359,38.8055,-0.1454,-0.0508,0.0912,-164.4768
17:25:44:701,-1.0617,2.323,10.47,39.165,-0.3691,-0.127,-0.0478,-163.8375
17:25:44:719,-1.0102,2.1913,11.375,36.8299,-0.5432,-0.1688,-0.2425,-163.2257
17:25:44:739,-2.3295,1.169,13.3143,38.3797,-0.5715,-0.1848,-0.287,-162.6356
17:25:44:759,-2.2516,0.4962,13.6638,38.9336,-0.4671,-0.1909,-0.1935,-162.0591
17:25:44:779,-2.1367,-0.3358,13.1958,37.6811,-0.2151,-0.2111,-0.0984,-161.4906
17:25:44:801,-1.1922,-0.4758,12.1387,39.4649,0.1612,-0.2484,0.0276,-160.9321
17:25:44:819,-0.1795,-0.1251,10.4496,39.4649,0.5633,-0.2852,0.1085,-160.3856
17:25:44:838,0.309,0.3478,8.296,39.8823,0.8376,-0.1973,0.1213,-159.8543
17:25:44:858,0.2611,0.6985,6.5722,38.9881,0.7939,-0.0596,0.1647,-159.3412
17:25:44:878,0.3305,0.4447,6.6261,39.8621,0.3513,0.093,0.2832,-158.8467
17:25:44:900,0.6465,0.0377,7.2414,40.0227,-0.111,0.0909,0.3471,-158.371
17:25:44:920,0.8225,-0.0928,7.3419,39.2326,-0.3448,-0.1208,0.2744,-157.9167
17:25:44:938,0.9458,-0.3035,7.385,40.2402,-0.5084,-0.3515,0.1367,-157.4871
17:25:44:958,1.2643,-0.3956,8.0686,39.2594,-0.641,-0.5563,-0.0182,-157.082
17:25:44:978,2.1992,-0.3286,8.709,40.123,-0.6396,-0.666,-0.1362,-156.6968
17:25:45:000,2.8289,0.0126,8.8647,38.4281,-0.4708,-0.617,-0.3362,-156.3251
17:25:45:019,2.2842,0.1814,8.7593,40.1535,-0.2644,-0.4141,-0.6036,-155.9623
17:25:45:039,0.941,0.3142,8.6228,40.3734,-0.1369,-0.1235,-0.7602,-155.6023
17:25:45:058,-0.0382,0.2652,8.5354,39.9658,-0.0847,0.0925,-0.7035,-155.2373
17:25:45:079,-0.0418,0.0557,8.9927,38.0121,-0.1246,0.1849,-0.5005,-154.8584
17:25:45:101,0.2084,-0.0066,9.3447,39.4056,-0.1371,0.1761,-0.3456,-154.4645
17:25:45:120,0.5891,0.2185,9.389,39.1114,-0.0948,0.0853,-0.2942,-154.0614
17:25:45:139,0.7914,0.5441,9.7649,40.5256,-0.1225,-0.0026,-0.3485,-153.6565
17:25:45:159,0.2898,1.0409,10.1623,39.4319,-0.1579,-0.0705,-0.4936,-153.253
17:25:45:179,-0.0909,1.3545,10.4209,42.3882,-0.1906,-0.1219,-0.5434,-152.8445
17:25:45:199,-0.4488,1.3354,11.7964,39.3575,-0.3262,-0.0449,-0.5413,-152.4316
17:25:45:219,-0.5099,1.1175,13.3705,39.8107,-0.3728,0.0781,-0.5078,-152.0124
17:25:45:239,-1.0593,0.9822,14.0218,39.4249,-0.1688,0.1247,-0.5189,-151.5868
17:25:45:258,-1.9811,0.8745,13.8973,39.113,0.1455,0.1868,-0.5179,-151.1571
17:25:45:278,-2.0745,1.2121,13.6423,40.5739,0.4144,0.2573,-0.3868,-150.7222
17:25:45:299,-2.0254,1.3605,13.1263,41.3934,0.5769,0.3665,-0.2057,-150.2825
17:25:45:319,-2.2983,1.242,12.1184,41.3557,0.6134,0.5519,-0.0529,-149.843
17:25:45:339,-3.4272,0.1694,10.8315,39.5548,0.4208,0.643,0.0587,-149.4094
17:25:45:361,-3.7085,-1.4766,11.4348,39.6333,-0.0023,0.4054,0.1881,-148.9863
17:25:45:379,-3.2548,-2.742,12.4835,40.2837,-0.2482,-0.0098,0.2579,-148.5776
17:25:45:398,-2.8873,-3.1454,11.606,39.2868,-0.0205,-0.3675,0.1762,-148.1874
17:25:45:418,-2.2133,-2.6941,9.4273,40.9751,0.3521,-0.4074,0.1293,-147.8183
17:25:45:437,-1.7153,-1.9555,7.9896,40.0466,0.4967,0.2014,0.1301,-147.125
17:25:45:457,-0.954,-0.3693,7.482,40.4072,0.4541,0.4792,0.088,-146.7977
17:25:45:478,-0.9145,0.8577,7.1313,41.209,0.3977,0.6483,0.0606,-146.4882
17:25:45:500,-1.4041,1.1666,6.4214,41.0582,0.2397,0.9183,0.1897,-146.188
17:25:45:519,-1.8027,1.3174,6.4309,41.2833,0.0491,1.256,0.4867,-145.8992
17:25:45:539,-2.1259,1.3821,7.2917,41.4643,0.0291,1.2592,0.8159,-145.6267
17:25:45:557,-2.1391,1.2648,7.3731,40.1335,0.1111,0.7601,1.0414,-145.3623
17:25:45:578,-1.2736,1.7436,6.8152,40.9704,0.0533,0.1716,1.0571,-145.1229
17:25:45:601,-0.4189,1.8298,7.2893,40.8979,-0.0641,-0.0931,0.933,-144.9178
17:25:45:620,-0.5374,1.4012,8.2278,41.1146,-0.0508,-0.0585,0.876,-144.7919
17:25:45:638,-0.122,1.4359,8.9951,40.8125,0.121,-0.0351,0.8646,-144.6865
17:25:45:658,0.8764,1.5341,8.6659,42.7753,0.1923,-0.1126,0.7304,-144.6865
17:25:45:678,1.6701,1.8394,7.8244,41.1214,0.0355,-0.1688,0.415,-144.6865
17:25:45:700,2.034,2.0464,8.1368,41.5147,-0.2436,-0.0489,-0.0497,-144.6865
17:25:45:743,1.0883,1.7137,10.1898,41.5074,-0.2079,-0.0271,-0.3935,-144.6865
17:25:45:743,0.3676,1.6909,11.6036,42.5421,0.1199,-0.1512,-0.59,-144.6865
17:25:45:757,0.0576,1.5664,11.1415,41.029,0.3236,-0.1904,-0.7192,-144.6865
17:25:45:777,-1.1072,2.2775,10.2449,41.6271,0.2011,-0.0215,-0.6771,-144.6865
17:25:45:798,-1.5202,1.7699,10.3586,42.4121,-0.099,0.1308,-0.4614,-144.6865
17:25:45:818,0.3161,1.3354,12.5589,41.8084,-0.0847,0.0182,-0.6694,-144.6865
17:25:45:838,1.4558,1.5688,14.2552,41.7647,0.3188,-0.0796,-1.1855,-144.6865
17:25:45:858,0.1797,1.8106,13.343,42.2558,0.6011,0.19,-1.5195,-144.6865
17:25:45:878,-2.6144,1.5437,11.6479,41.2738,0.5021,0.7806,-1.3472,-144.5746
17:25:45:901,-3.7109,1.0936,11.8945,42.0825,0.3955,1.2355,-0.8598,-144.423
17:25:45:918,-2.6539,0.5764,12.6427,41.223,0.6941,1.4502,-0.6199,-144.2201
17:25:45:938,-2.1391,0.2424,11.4779,42.0941,1.0661,1.4435,-0.5022,-143.9762
17:25:45:958,-1.7393,0.3047,9.0538,41.4469,1.1327,1.207,-0.4359,-143.6808
17:25:45:977,-0.4392,-0.0557,6.164,41.0462,0.6877,0.3497,-0.708,-143.381
17:25:46:003,-0.2657,0.3897,5.6265,42.8194,0.1329,-0.1107,-1.1568,-143.066
17:25:46:020,-0.6344,-0.2987,5.0411,40.9458,-0.4564,-0.5147,-1.3735,-142.7333
17:25:46:039,-2.3223,-1.1941,6.4573,41.9479,-0.8799,-0.7589,-1.2545,-142.3738
17:25:46:058,-2.7101,-1.4048,8.7892,41.8884,-0.7853,-0.809,-0.9906,-141.9834
17:25:46:078,-1.9021,-1.1977,10.1252,41.5428,-0.343,-0.7446,-0.8396,-141.5653
17:25:46:099,-1.9296,-0.489,10.1168,43.194,0.1476,-0.5491,-0.9197,-141.1297
17:25:46:120,-3.1459,0.6877,8.1763,42.0049,0.2991,-0.5507,-1.0516,-140.6832
17:25:46:139,-3.9108,2.6223,6.5219,42.297,0.0259,-0.3523,-0.9943,-140.2218
17:25:46:159,-4.598,2.2715,7.573,41.5649,-0.3097,0.1742,-0.6915,-139.7373
17:25:46:179,-3.912,1.7962,8.2541,43.3447,-0.4293,0.3135,-0.3549,-139.2294
17:25:46:201,-3.0333,1.3785,8.8132,41.1455,-0.4077,0.1609,-0.0787,-138.7101
17:25:46:218,-2.1188,0.7344,8.1524,42.2855,-0.2737,0.2107,0.2305,-138.1918
17:25:46:238,0.3461,0.2472,10.124,42.1821,-0.3792,0.1769,0.4241,-137.6857
17:25:46:258,-0.2932,0.9858,12.4021,41.6649,-0.4434,-0.0148,0.0491,-137.1996
17:25:46:278,-2.6838,0.4806,12.8594,41.9726,-0.1805,-0.0335,-0.6729,-136.7431
17:25:46:298,-2.8083,1.8824,10.5873,42.0062,0.3103,0.02,-0.7946,-136.3161
17:25:46:319,-2.9531,3.0101,10.1779,43.3801,0.359,-0.0197,-0.8843,-135.8934
17:25:46:339,-4.9559,2.0441,12.444,41.8744,0.0975,0.0011,-1.1634,-135.4562
17:25:46:358,-5.8788,0.1466,13.4352,42.2764,0.22,-0.013,-1.1903,-135.0012
17:25:46:378,-5.7543,-0.4088,13.1802,41.6386,0.6131,-0.021,-1.0295,-134.5229
17:25:46:401,-6.1949,0.4268,11.1236,42.686,1.007,0.1519,-0.7639,-133.9982
17:25:46:422,-5.8178,1.8813,10.0378,43.9751,1.064,0.2507,-0.2579,-133.4486
17:25:46:438,-5.2312,1.3138,10.203,42.1733,0.7633,0.4464,0.1474,-132.8801
17:25:46:457,-5.2576,-0.0772,10.2413,43.4709,0.3154,0.3311,0.1897,-132.3104
17:25:46:477,-6.2679,-1.7723,11.9232,41.6585,-0.2143,0.383,0.1639,-131.7549
17:25:46:499,-6.147,-1.6011,11.9484,43.4915,-0.2066,0.2802,0.5032,-131.219
17:25:46:520,-3.9348,-1.5293,9.3794,42.0724,0.1891,0.3958,0.9517,-130.7066
17:25:46:538,-2.278,-0.9248,6.0611,43.7878,0.4035,0.2571,1.255,-130.2288
17:25:46:558,-1.2341,0.4926,5.2841,43.3639,0.0054,0.065,1.2121,-129.7952
17:25:46:578,-0.9995,1.3102,6.012,43.8433,-0.5267,0.0661,0.892,-129.4104
17:25:46:599,-1.6184,1.4539,6.595,44.5687,-0.853,0.3825,0.7288,-129.0784
17:25:46:620,-1.2952,1.4491,5.35,43.3116,-1.0612,0.6094,0.7354,-128.7924
17:25:46:638,-0.5877,0.8517,6.3878,43.3954,-1.4154,0.4129,0.7509,-128.5491
17:25:46:659,-0.2884,-0.1035,8.326,45.3175,-1.7289,0.317,0.7498,-128.3478
17:25:46:678,0.1318,-0.8769,11.4097,42.3915,-1.7001,0.1359,0.6835,-128.1936
17:25:46:701,-0.7421,-0.5536,12.4835,43.8753,-1.0889,-0.0607,0.3807,-128.0882
17:25:46:720,-2.1403,0.088,10.5083,43.5091,-0.2002,0.5122,0.2153,-128.0882
17:25:46:738,-4.0186,0.0964,8.9401,42.7574,0.3415,0.7684,0.2379,-128.0882
17:25:46:758,-5.2384,0.7835,8.6288,41.9798,0.5202,0.8467,0.2619,-128.0882
17:25:46:778,-4.0114,1.6335,6.4704,41.8655,0.7042,0.7612,0.4529,-128.0882
17:25:46:801,-2.1176,1.2791,5.3296,44.607,0.5867,0.6009,0.5458,-128.0882
17:25:46:821,-2.3737,1.5293,6.6416,43.8899,0.2443,0.3697,0.2976,-128.0882
17:25:46:838,-2.2445,1.4467,8.2374,42.5149,-0.0833,0.3372,0.1301,-128.0882
17:25:46:859,-2.2935,1.1857,10.2988,42.9587,-0.0865,0.0025,-0.0388,-128.0882
17:25:46:879,-1.7189,1.6131,12.541,43.0132,0.3324,-0.4838,-0.1687,-128.0882
17:25:46:903,-0.8187,1.3833,11.7377,45.3266,0.6331,-0.6694,-0.3272,-128.0882
17:25:46:920,-1.6196,1.3797,9.1376,43.9115,0.3356,-0.6114,-0.4132,-128.0882
17:25:46:939,-2.1894,1.5401,10.2054,44.2742,-0.0117,-0.2646,-0.4859,-128.0882
17:25:46:958,-1.6519,1.6311,12.4464,44.0468,-0.0575,0.2432,-0.7275,-128.0882
17:25:46:978,-0.8558,1.1199,12.1423,43.342,-0.0436,0.1806,-1.1429,-128.0882
17:25:47:007,-1.7788,-0.0114,12.8761,43.342,0.0562,-0.1541,-1.4801,-128.0882
17:25:47:019,-3.5385,-0.9248,15.1806,43.5663,0.5668,-0.3544,-1.4609,-128.0882
17:25:47:039,-4.07,-1.3222,13.4448,43.6778,1.0232,-0.6987,-1.1504,-127.9749
17:25:47:057,-2.6431,-0.9044,11.9699,45.6497,1.2187,-1.2032,-0.9634,-127.8187
17:25:47:085,-2.4372,-0.5536,10.6675,44.9588,1.2989,-1.7787,-1.189,-127.6124
17:25:47:101,-0.881,-1.479,3.3556,44.5836,0.3409,-1.7755,-1.5027,-127.3616
17:25:47:120,0.4634,-1.5209,6.7386,44.6167,-0.3342,-1.706,-1.6598,-127.0736
17:25:47:138,0.0803,-2.6055,8.0243,43.3905,-0.6626,-1.1243,-1.581,-126.7393
17:25:47:157,-1.1814,-1.4575,7.7154,43.4388,-0.8335,-0.976,-1.5885,-126.3609
17:25:47:178,-3.3697,-1.3342,9.1232,44.3545,-0.4727,-1.3949,-1.414,-125.9411
17:25:47:199,-2.4025,-0.9439,10.3455,45.4167,0.0837,-1.3826,-1.2468,-125.4889
17:25:47:217,-1.9536,-0.8015,8.8503,45.4363,0.4475,-1.2916,-1.1861,-125.0037
17:25:47:237,-1.0605,-0.5632,6,44.9088,0.3194,-0.7842,-1.2609,-124.4686
17:25:47:258,-1.4364,0.1467,6.7338,44.0879,0.0927,-0.5864,-1.3994,-123.9071
17:25:47:278,-1.5813,0.2388,7.7908,44.961,0.0805,-0.4487,-1.679,-123.3189
17:25:47:298,-1.9943,-0.0581,4.7394,45.8107,-0.2657,-0.1371,-1.8276,-122.7022
17:25:47:318,-5.1343,-1.3689,6.638,44.8012,-0.8069,0.3692,-1.0468,-122.0541
17:25:47:339,-3.1064,-0.4459,10.0139,44.9938,-0.8026,1.1029,-0.516,-121.3624
17:25:47:359,-1.5166,0.5345,9.972,45.548,-0.7741,1.0677,-0.4886,-120.6427
17:25:47:378,-2.5234,0.2592,11.2505,43.5588,-0.6018,0.8304,-0.4976,-119.9264
17:25:47:406,-3.2201,-0.4615,10.7585,44.1698,-0.5211,0.9301,-0.2979,-119.2217
17:25:47:420,-4.5537,-0.3597,9.1579,45.7925,-0.6396,0.7311,-0.0508,-118.5247
17:25:47:443,-3.4499,-0.0784,10.3431,44.9052,-0.7568,0.607,0.0342,-117.8391
17:25:47:459,-3.6439,-0.6758,12.4978,44.5716,-0.6322,0.5849,0.0105,-117.1738
17:25:47:479,-4.483,-1.6526,13.0605,43.3912,-0.3163,0.5127,0.0014,-116.5349
17:25:47:502,-4.9523,-2.0045,12.8678,45.8024,-0.0913,0.6344,0.0696,-115.9228
17:25:47:524,-4.4388,-1.2623,12.1698,43.6102,0.0837,0.6472,0.1554,-115.3336
17:25:47:536,-3.3147,-1.333,10.1216,44.1041,-0.0804,0.3609,0.0254,-114.7645
17:25:47:557,-4.5932,-2.5804,13.5741,45.4626,-0.3835,-0.1107,0.0302,-114.2167
17:25:47:577,-4.2939,-2.7611,16.0497,44.4186,-0.119,-0.674,0.4023,-113.6884
17:25:47:596,-5.5329,-3.2304,15.5612,44.7792,0.7985,-0.8926,0.6092,-113.1777
17:25:47:617,-7.7439,-4.3987,6.735,46.6153,1.8475,-0.9504,0.557,-112.6925
17:25:47:639,-6.0093,-3.5057,4.1828,43.9338,1.6733,-0.8889,1.1586,-112.2376
17:25:47:657,-4.2149,-2.8545,6.0479,45.095,0.8898,-1.3206,1.6545,-111.8008
17:25:47:678,-2.8394,-2.4463,8.0171,45.1523,0.2363,-1.0578,1.7714,-111.4009
17:25:47:701,0.0971,-1.1366,8.97,44.2213,-0.0306,-0.4849,1.7762,-111.0612
17:25:47:721,0.5771,-0.8086,8.3224,44.8579,-0.0655,0.0483,1.4747,-110.7869
17:25:47:738,0.1689,-0.2867,7.5622,45.7782,-0.0817,0.3324,1.2244,-110.552
17:25:47:772,-0.4404,0.0533,5.5762,44.1642,-0.0633,0.4951,1.2198,-110.3806
17:25:47:780,0.291,0.8146,5.6971,45.4714,-0.3302,0.3907,1.3352,-110.2602
17:25:47:802,0.2383,1.1055,8.2398,44.5053,-0.6466,0.5665,1.2089,-110.2602
17:25:47:816,0.3856,0.1718,9.2417,43.1498,-0.657,0.7639,0.8494,-110.2602
17:25:47:836,-0.0238,0.0629,9.1843,43.0755,-0.4386,1.1253,0.7117,-110.2602
17:25:47:857,-0.5099,0.416,8.6264,45.481,-0.2657,1.2022,0.5487,-110.2602
17:25:47:876,-0.5757,1.26,8.8634,44.4943,-0.2122,0.8808,0.3418,-110.2602
17:25:47:899,-0.8379,0.4687,9.6595,44.7093,0.0696,-0.2322,0.1439,-110.368
17:25:47:920,-0.7098,0.1,9.6679,44.1747,0.2959,-0.849,-0.0023,-110.4885
17:25:47:938,-0.0981,0.2747,9.96,43.595,0.224,-0.8972,-0.0745,-110.6147
17:25:47:959,-0.857,-0.003,11.9891,44.4305,-0.0034,-0.8364,-0.1197,-110.7371
17:25:47:977,-0.8762,-1.0912,14.3893,45.6456,-0.2415,0.024,-0.0294,-110.8517
17:25:47:998,-2.1511,-1.8298,11.3762,43.4876,-0.204,2.2622,-0.038,-110.9586
17:25:48:018,-3.5301,-1.4144,13.1982,44.6029,-0.2471,2.1599,0.0856,-111.0602
17:25:48:038,-3.6331,-0.9164,13.2125,44.4185,0.0613,2.0643,0.3312,-111.1603
17:25:48:058,-3.5325,-0.2556,11.2253,44.8097,0.5955,1.7894,0.4979,-111.2591
17:25:48:079,-3.3422,0.4902,10.3227,43.3021,0.88,0.9178,0.4414,-111.3686
17:25:48:102,-3.4332,0.0198,10.7417,43.6844,0.9561,-0.2764,0.0638,-111.4835
17:25:48:119,-4.0617,-0.6542,11.8682,44.5419,1.0091,-1.1645,-0.2518,-111.5974
17:25:48:139,-3.9336,-0.9882,11.5976,43.8614,1.2499,-1.4109,-0.197,-111.697
17:25:48:158,-3.0501,-0.3071,9.2932,45.3057,1.554,-1.1699,0.1136,-111.697
17:25:48:180,-1.6519,0.671,7.6209,45.0854,1.4429,-0.8226,0.3149,-111.697
17:25:48:202,-0.7169,1.2827,7.5443,43.77,0.8831,-0.5379,0.1847,-111.697
17:25:48:220,-0.5099,0.4986,8.1069,43.8531,0.2672,-0.2149,-0.2707,-111.697
17:25:48:239,-0.9947,-0.1407,8.5726,43.7524,-0.3552,0.138,-0.8718,-111.697
17:25:48:267,-1.422,-0.1419,8.0985,42.2819,-0.4647,0.3492,-0.9853,-111.697
17:25:48:276,-1.871,-0.1694,9.699,42.0721,-0.2391,0.3449,-1.0018,-111.697
17:25:48:298,-2.084,-0.3118,9.5266,43.107,0.208,0.4246,-0.8606,-111.697
17:25:48:318,-2.6431,-0.2388,7.8423,41.7042,0.4741,0.4006,-0.5299,-111.697
17:25:48:337,-3.0322,0.3992,6.4549,42.9316,0.5055,0.3633,-0.2129,-111.697
17:25:48:358,-2.5629,1.2109,6.237,41.4666,0.4509,0.3918,-0.1011,-111.5804
17:25:48:377,-2.1271,1.9962,6.917,43.3302,0.4829,0.4336,-0.2278,-111.445
17:25:48:398,-1.9368,2.5133,6.5423,41.8139,0.4837,0.5364,-0.4255,-111.3003
17:25:48:418,-2.776,2.5875,5.5954,41.6576,0.2815,0.6153,-0.5432,-111.1508
17:25:48:437,-3.5074,2.8246,5.5834,41.6116,-0.0021,0.5998,-0.6047,-110.992
17:25:48:456,-4.2376,2.3529,7.4533,40.7296,-0.0564,0.4501,-0.6366,-110.7963
17:25:48:477,-5.2959,1.7927,8.7234,42.7289,0.109,0.3354,-0.4609,-110.5868
17:25:48:497,-5.7747,1.7412,8.6145,39.5724,0.1905,0.2328,-0.1578,-110.3736
17:25:48:518,-5.6801,2.2799,8.6923,41.2787,0.1447,0.219,0.0417,-110.1487
17:25:48:539,-5.9339,2.1566,9.565,39.6651,0.1383,0.2067,0.1879,-109.918
17:25:48:557,-6.1662,2.0297,9.9947,39.6747,0.1558,0.1607,0.3591,-109.6902
17:25:48:576,-5.552,2.1111,9.9097,39.9576,0.0967,0.0597,0.4225,-109.4706
17:25:48:596,-5.637,2.25,10.3766,40.3273,0.0506,0.1359,0.4742,-109.264
17:25:48:617,-5.8801,2.1051,10.9165,39.2295,0.1124,0.2115,0.5671,-109.0748
17:25:48:637,-5.5676,2.3469,10.3479,39.1874,0.0967,0.256,0.5343,-108.9035
17:25:48:655,-5.4263,2.4379,9.0741,39.0364,-0.1478,0.248,0.4329,-108.7534
17:25:48:676,-4.9786,2.0213,8.9868,38.4088,-0.4178,0.1559,0.2598,-108.6238
17:25:48:696,-5.0852,1.1929,10.3036,39.1899,-0.4029,0.0943,0.1879,-108.5139
17:25:48:719,-5.4922,0.6566,10.3335,37.5296,-0.2447,0.2014,0.3058,-108.4226
17:25:48:736,-5.4527,0.7452,9.0071,39.5262,-0.2279,0.3505,0.4861,-108.4226
17:25:48:756,-4.3873,1.345,7.652,37.1471,-0.4306,0.3636,0.422,-108.4226
17:25:48:776,-4.0808,1.3569,7.8004,38.3725,-0.6053,0.2272,0.1964,-108.4226
17:25:48:796,-4.3645,0.6506,8.1763,37.8556,-0.6295,0.1149,0.1245,-108.4226
17:25:48:817,-4.483,0.3669,7.9369,37.3645,-0.6149,0.0254,0.1684,-108.4226
17:25:48:839,-4.1299,0.3406,7.9321,37.1312,-0.6058,-0.0825,0.2206,-108.4226
17:25:48:858,-3.985,0.2269,8.6169,35.7044,-0.4527,-0.0567,0.2835,-108.4226
17:25:48:877,-3.8139,0.2951,7.9812,35.9201,-0.3225,0.0991,0.4478,-108.4226
17:25:48:899,-3.76,0.5309,7.2988,34.3504,-0.2865,0.1276,0.6691,-108.4226
17:25:48:921,-3.3422,1.1115,7.6281,34.6236,-0.2317,0.0941,0.7152,-108.4226
17:25:48:939,-3.2895,1.333,7.9453,34.2423,-0.1387,0.0222,0.6744,-108.5158
17:25:48:958,-3.4535,1.4108,8.1955,35.4448,-0.0668,-0.0132,0.6257,-108.6197
17:25:48:977,-3.5601,1.5413,8.1476,36.0004,-0.0191,0.0128,0.6108,-108.7695
17:25:48:996,-3.3542,1.6011,8.4576,35.3344,-0.0242,0.0102,0.5935,-108.9254
17:25:49:019,-3.3757,1.4276,9.0263,34.682,-0.0484,-0.0194,0.4893,-109.0969
17:25:49:039,-3.6882,1.2157,9.4596,36.5419,-0.0271,-0.0141,0.3684,-109.2829
17:25:49:056,-3.9479,1.2767,9.3136,32.8807,0.0461,0.0778,0.3218,-109.4807
17:25:49:077,-3.6499,1.5221,8.9628,33.9787,0.1074,0.1274,0.3421,-109.6868
17:25:49:097,-3.3649,1.6203,9.0753,33.5033,0.0613,0.0967,0.268,-109.8976
17:25:49:118,-3.5206,1.5173,10.0546,32.4286,-0.0737,0.0379,0.0728,-110.1109
17:25:49:139,-4.5225,1.096,10.7501,33.7964,-0.1387,0.0033,-0.1416,-110.3266
17:25:49:157,-4.2903,1.072,10.7273,32.332,-0.0812,0.085,-0.1448,-110.5417
17:25:49:178,-3.6774,1.1786,10.634,32.332,0.0046,-0.0263,-0.1424,-110.7508
17:25:49:196,-3.3003,0.7787,10.6435,31.6904,0.0549,-0.3608,-0.3386,-110.9501
17:25:49:218,-3.7049,0.0916,10.9775,32.4331,0.0621,-0.5629,-0.5807,-111.1402
17:25:49:236,-4.0844,-0.4962,11.4707,32.6741,0.1076,-0.4623,-0.6263,-111.3169
17:25:49:256,-4.2065,-0.3992,10.7034,30.5745,0.2815,-0.1539,-0.495,-111.4728
17:25:49:276,-3.8294,0.1526,9.1699,31.6682,0.419,0.2331,-0.3091,-111.6025
17:25:49:297,-3.2776,0.5058,7.9632,31.5708,0.3897,0.4155,-0.242,-111.707
17:25:49:318,-2.6838,0.5417,7.7095,31.0353,0.2331,0.3559,-0.3378,-111.707
17:25:49:337,-2.4923,0.3035,8.3966,30.4377,0.0831,0.0826,-0.549,-111.707
17:25:49:356,-2.6024,0.1443,8.7042,30.4135,0.097,-0.2175,-0.8108,-111.707
17:25:49:376,-2.8693,-0.0976,8.6192,30.5478,0.2389,-0.4708,-0.9386,-111.707
17:25:49:396,-3.0597,0.0904,7.8759,30.1129,0.4096,-0.532,-0.904,-111.707
17:25:49:417,-2.9005,0.5106,7.0403,30.1095,0.4965,-0.3613,-0.761,-111.707
17:25:49:438,-2.7999,1.1367,6.6991,29.0982,0.4674,-0.1589,-0.6252,-111.707
17:25:49:457,-2.7592,1.5078,6.6752,26.8381,0.4096,0.0062,-0.5714,-111.6097
17:25:49:478,-3.0621,1.6754,6.8128,29.3379,0.3724,0.1231,-0.5719,-111.4879
17:25:49:497,-3.4906,1.8824,6.6919,28.2087,0.3777,0.1484,-0.589,-111.3448
17:25:49:519,-3.827,2.2308,6.4776,28.3281,0.3702,0.1553,-0.5629,-111.1831
17:25:49:543,-3.8127,2.3924,6.8691,28.4134,0.2973,0.1191,-0.5275,-111.0015
17:25:49:557,-4.3717,2.2739,7.7166,28.6633,0.2331,-0.0234,-0.5589,-110.8011
17:25:49:576,-4.9954,1.7855,8.6013,28.3219,0.2552,-0.1475,-0.5615,-110.5862
17:25:49:595,-5.4647,1.7077,8.7282,27.3068,0.3806,-0.2439,-0.4321,-110.3562
17:25:49:618,-5.2073,2.1027,8.2457,26.8714,0.4855,-0.2418,-0.1805,-110.1112
17:25:49:635,-4.9894,2.2021,8.7689,27.403,0.424,-0.1925,0.0137,-109.8543
17:25:49:657,-4.9834,2.2308,9.7864,27.9221,0.3532,-0.1315,0.0981,-109.5912
17:25:49:677,-5.4287,1.6287,9.8989,26.3116,0.3479,-0.0503,0.1687,-109.0756
17:25:49:696,-6.2966,1.8106,10.0258,27.7744,0.3119,0.2882,0.4315,-108.8274
17:25:49:717,-6.1685,2.256,9.3638,26.0959,0.1827,0.5359,0.6457,-108.5841
17:25:49:735,-5.3857,2.7108,9.067,26.2633,-0.0215,0.4448,0.5493,-108.3479
17:25:49:755,-5.0313,2.8485,9.0634,25.6386,-0.2048,0.3077,0.218,-108.1274
17:25:49:783,-6.3206,1.8968,9.541,26.5414,-0.2402,0.1159,0.1706,-107.9302
17:25:49:795,-6.6546,1.5078,9.6595,27.4544,-0.1733,-0.0071,0.2877,-107.7571
17:25:49:815,-5.8154,1.734,8.8503,27.1226,-0.2271,-0.1653,0.3314,-107.5997
17:25:49:835,-4.7907,2.0261,8.1057,24.5434,-0.4428,-0.2135,0.1519,-107.4566
17:25:49:855,-4.7608,1.5185,8.3954,24.3819,-0.6263,-0.2021,-0.014,-107.3295
17:25:49:875,-5.175,0.6542,9.3914,24.6077,-0.5723,-0.1054,0.0281,-107.2207
17:25:49:895,-5.2779,0.3633,8.8658,25.4612,-0.4764,0.0552,0.2236,-107.2207
17:25:49:916,-4.3932,0.6554,7.5538,24.0231,-0.5712,0.1194,0.386,-107.2207
17:25:49:936,-3.7181,1.06,7.1612,24.7786,-0.719,0.1958,0.3804,-107.2207
17:25:49:956,-3.7253,0.8721,8.162,25.4252,-0.629,0.2286,0.3703,-107.2207
17:25:49:975,-3.6941,0.7644,8.2278,23.1739,-0.3853,0.2288,0.4984,-107.2207
17:25:49:996,-3.5541,1.0026,7.4126,25.6982,-0.2609,0.1364,0.6473,-107.2207
17:25:50:026,-3.0633,1.5209,7.1205,25.8644,-0.2338,0.0549,0.6124,-107.2207
17:25:50:036,-3.0309,1.6514,7.6508,24.9558,-0.1744,-0.1307,0.4896,-107.2207
17:25:50:056,-3.4595,1.1582,8.4229,25.062,-0.0021,-0.3264,0.4617,-107.2207
17:25:50:076,-3.517,1.0684,8.6109,26.3542,0.1657,-0.4125,0.5328,-107.2207
17:25:50:097,-2.946,1.3713,8.5486,24.1308,0.2309,-0.3485,0.4955,-107.3242
17:25:50:121,-2.7245,1.473,8.9664,25.9398,0.2922,-0.2263,0.3716,-107.4385
17:25:50:138,-2.7915,1.5712,8.8192,25.062,0.3162,-0.0332,0.2598,-107.5634
17:25:50:158,-2.946,1.825,8.2386,25.057,0.174,0.0781,0.1066,-107.695
17:25:50:177,-2.8095,1.7711,8.1141,25.5406,-0.0913,0.1095,-0.104,-107.8277
17:25:50:196,-3.3099,1.1582,9.5386,24.2415,-0.2146,0.0999,-0.3032,-107.9587
17:25:50:219,-4.3693,0.1885,10.9692,24.4595,-0.0791,0.0821,-0.2609,-108.0857
17:25:50:238,-5.5006,0.2424,11.1966,25.0118,0.118,0.1577,0.0353,-108.2046
17:25:50:257,-4.4435,1.1355,10.3263,24.1433,0.121,-0.0077,0.0867,-108.3119
17:25:50:276,-3.3338,1.6095,10.3766,25.5956,-0.0056,-0.3227,-0.2287,-108.4128
17:25:50:298,-3.3673,0.8877,10.8818,25.347,-0.086,-0.4591,-0.5621,-108.5101
17:25:50:321,-4.7883,0.0916,11.624,26.201,0.0259,-0.1871,-0.3855,-108.6053
17:25:50:338,-4.6375,-0.149,11.3905,25.9277,0.2419,0.248,-0.0428,-108.6053
17:25:50:355,-2.6455,1.5461,7.7083,24.7948,0.318,0.46,0.0784,-108.6053
17:25:50:375,-2.272,1.734,7.0678,25.7879,0.0861,0.4224,-0.1333,-108.6053
17:25:50:396,-2.6754,0.896,8.1631,24.6344,-0.246,0.1782,-0.4763,-108.6053
17:25:50:415,-2.7807,0.3513,9.2645,26.0558,-0.3331,-0.0833,-0.7027,-108.6053
17:25:50:436,-2.7891,0.1718,9.5039,27.3975,-0.151,-0.2423,-0.7791,-108.6053
17:25:50:455,-2.9615,0.3023,8.2829,28.1417,0.175,-0.2564,-0.6643,-108.6053
17:25:50:475,-2.3031,1.2336,6.6847,27.4298,0.3859,-0.0793,-0.4286,-108.6053
17:25:50:495,-2.0493,1.8058,6.3436,27.635,0.3678,0.1074,-0.308,-108.6053
17:25:50:515,-2.1858,2.0596,7.1229,28.1991,0.3164,0.1159,-0.3432,-108.6053
17:25:50:535,-2.8131,1.9339,6.8404,26.587,0.4523,0.0501,-0.5184,-108.6053
17:25:50:555,-2.9914,2.2703,6.0551,26.9939,0.5891,-0.0876,-0.5978,-108.6053
17:25:50:576,-3.0932,2.3266,6.091,27.937,0.5103,-0.135,-0.6558,-108.5117
17:25:50:596,-3.6008,2.0464,7.0439,27.1986,0.3186,-0.1342,-0.7424,-108.3939
17:25:50:618,-4.1538,1.7137,7.8495,27.3656,0.228,-0.0889,-0.8132,-108.2502
17:25:50:640,-4.4842,1.643,8.1416,28.6856,0.2709,-0.0963,-0.7496,-108.0818
17:25:50:656,-4.5908,1.8214,8.0099,28.3419,0.3079,-0.0812,-0.638,-107.8903
17:25:50:676,-4.9607,1.9315,8.4529,28.9602,0.2341,0.064,-0.5253,-107.6751
17:25:50:700,-5.2743,2.0129,9.0287,29.2262,0.1503,0.2509,-0.3954,-107.4393
17:25:50:726,-5.503,2.2272,8.9987,29.7849,0.1612,0.3338,-0.2776,-107.1885
17:25:50:738,-5.4108,2.4571,8.6145,30.3947,0.1492,0.2818,-0.218,-106.9277
17:25:50:757,-5.3665,2.2978,9.0502,29.0403,0.0054,0.134,-0.2505,-106.6617
17:25:50:776,-6.0201,1.6574,10.7154,29.1366,-0.1659,-0.0878,-0.3424,-106.3937
17:25:50:795,-6.4415,1.6382,11.4348,29.2053,-0.0892,-0.2417,-0.2643,-106.1214
17:25:50:818,-5.661,2.0836,10.1168,29.0648,0.1492,-0.226,-0.0081,-105.8497
17:25:50:841,-4.981,2.42,9.304,30.552,0.1303,-0.258,0.0848,-105.5796
17:25:50:855,-4.9894,1.7556,10.2389,30.199,-0.1134,-0.2713,0.0105,-105.3148
17:25:50:876,-6.0512,1.0026,10.5621,30.073,-0.1989,-0.1888,-0.1266,-105.0583
17:25:50:896,-5.9208,1.0361,9.365,31.4572,-0.091,0.0299,0.0529,-104.8118
17:25:50:918,-5.0912,1.6382,8.1739,31.5102,-0.1147,0.1633,0.2425,-104.5722
17:25:50:937,-5.1881,1.2205,8.4217,31.1461,-0.3768,0.178,0.1533,-104.343
17:25:50:956,-5.6454,0.1598,9.9827,31.7153,-0.6175,0.0584,-0.0017,-104.1301
17:25:50:977,-5.807,-0.5297,10.0893,33.0869,-0.5251,-0.0963,-0.0311,-103.9346
17:25:50:996,-5.6658,-0.7871,9.1484,31.1749,-0.3108,-0.1576,0.1186,-103.7553
17:25:51:016,-4.9104,-0.3585,8.5079,31.1824,-0.2237,-0.1536,0.4305,-103.5896
17:25:51:038,-4.179,0.0509,8.1392,32.8767,-0.2548,0.007,0.6577,-103.3062
17:25:51:059,-3.8641,0.331,7.8316,33.4937,-0.2745,0.3287,0.827,-103.2042
17:25:51:077,-3.6654,0.6039,7.7035,34.3156,-0.1968,0.3071,0.8545,-103.1054
17:25:51:096,-3.4559,0.9008,7.3252,35.5763,-0.1158,0.1508,0.8244,-103.1054
17:25:51:123,-3.3566,1.1115,7.215,35.4302,-0.0852,-0.0609,0.7415,-103.1054
17:25:51:137,-3.4332,0.9044,8.0614,34.4606,0.0405,-0.221,0.6856,-103.1054
17:25:51:157,-3.5505,0.6841,8.4624,35.3528,0.2275,-0.2359,0.721,-103.1054
17:25:51:176,-3.3374,0.8709,8.0817,35.9099,0.298,-0.0955,0.7714,-103.1054
17:25:51:196,-3.0513,1.2683,7.7154,34.6241,0.2355,0.0893,0.7282,-103.1054
17:25:51:219,-2.843,1.4096,7.7118,36.5717,0.1412,0.1947,0.5959,-103.1992
17:25:51:237,-3.0465,1.4742,7.9572,35.1761,0.0618,0.2123,0.4324,-103.3093
17:25:51:256,-3.0944,1.3809,8.1979,36.3105,-0.0229,0.1436,0.2457,-103.4348
17:25:51:275,-3.086,1.0972,8.4804,35.8937,-0.1129,0.0163,0.0297,-103.5717
17:25:51:295,-3.3721,0.6961,8.9975,36.2698,-0.1664,-0.0782,-0.1046,-103.7147
17:25:51:316,-3.8653,0.5321,9.5985,34.2308,-0.1552,-0.0452,-0.0966,-103.8588
17:25:51:337,-4.4028,0.8781,10.0246,37.7293,-0.0697,0.0493,0.0196,-103.9995
17:25:51:358,-3.1495,1.6131,9.4596,37.7293,-0.1004,-0.1272,-0.177,-104.1347
17:25:51:377,-2.9531,1.6993,8.9353,36.5744,-0.3382,-0.3792,-0.6686,-104.2665
17:25:51:395,-4.2819,0.3454,9.7804,35.6329,-0.5086,-0.4428,-0.9203,-104.3947
17:25:51:417,-5.8537,-0.6111,11.096,36.5672,-0.3813,-0.1195,-0.5938,-104.5091
17:25:51:440,-5.5832,-0.5357,11.3055,36.1337,-0.0721,0.273,-0.051,-104.6103
17:25:51:460,-4.5489,0.8625,9.8738,38.5322,0.0898,0.4816,0.2537,-104.6103
17:25:51:477,-3.2716,1.9399,7.9465,37.4844,-0.0593,0.3532,0.1232,-104.6103
17:25:51:497,-2.5509,2.3469,7.8315,36.8833,-0.2724,0.036,-0.332,-104.6103
17:25:51:524,-2.8729,1.3246,8.6264,38.1326,-0.3467,-0.3121,-0.5978,-104.6103
17:25:51:539,-3.0322,0.647,9.3531,36.8117,-0.294,-0.4987,-0.6811,-104.6103
17:25:51:555,-3.0082,0.1407,9.9528,37.8727,-0.1366,-0.4548,-0.6332,-104.6103
17:25:51:576,-3.0645,-0.0844,10.0833,37.2228,0.114,-0.2058,-0.4476,-104.6103
17:25:51:596,-2.7999,0.258,8.782,37.2207,0.2184,0.1524,-0.2281,-104.6103
17:25:51:619,-2.4731,0.9583,7.4413,38.0435,0.1217,0.4206,-0.1048,-104.6103
17:25:51:638,-2.2516,1.3354,7.5694,37.1798,0.0757,0.5186,-0.1426,-104.6103
17:25:51:657,-2.2002,1.3797,8.059,37.0677,0.2339,0.4198,-0.2356,-104.6103
17:25:51:676,-2.5018,1.4419,7.4257,37.812,0.3535,0.191,-0.3152,-104.6103
17:25:51:697,-2.5449,1.552,6.9804,38.5376,0.3295,-0.0857,-0.418,-104.6103
17:25:51:725,-2.849,1.2947,7.7621,37.974,0.3452,-0.3099,-0.4851,-104.6103
17:25:51:737,-3.1938,0.9595,8.5307,36.9078,0.4602,-0.3943,-0.4295,-104.6103
17:25:51:756,-3.2285,1.3868,7.9967,37.0453,0.4919,-0.2764,-0.2718,-104.6103
17:25:51:775,-3.3841,1.8046,8.1667,38.344,0.3689,-0.0197,-0.1605,-104.5189
17:25:51:796,-3.5349,2.0764,8.4864,37.3609,0.2262,0.2477,-0.0955,-104.4113
17:25:51:814,-4.0892,2.3062,8.9053,38.409,0.118,0.3806,-0.0984,-104.2929
17:25:51:836,-4.4328,2.1626,9.1579,39.2792,0.0464,0.3306,-0.1791,-104.1695
17:25:51:857,-4.5381,1.8334,9.4943,38.8118,0.0083,0.1433,-0.2553,-104.0444
17:25:51:876,-4.902,1.667,10.3993,38.8642,-0.0388,-0.091,-0.2896,-103.9176
17:25:51:896,-4.9236,1.8824,10.4616,36.4372,-0.004,-0.1736,-0.2361,-103.7873
17:25:51:915,-4.6614,2.0345,10.0246,38.5102,0.0208,-0.1198,-0.1424,-103.6531
17:25:51:937,-4.6255,2.0058,10.2186,38.2458,-0.082,-0.1845,-0.1658,-103.5148
17:25:51:955,-5.1175,1.1079,10.7728,39.8154,-0.188,-0.2633,-0.3152,-103.3747
17:25:51:976,-5.977,0.5501,11.0948,38.6751,-0.1507,-0.396,-0.4113,-103.2349
17:25:51:996,-5.6969,0.5609,9.9169,38.8113,0.0459,-0.3872,-0.2132,-103.0949
17:25:52:016,-4.7979,1.1869,8.709,38.111,0.1127,-0.3312,-0.0103,-102.95
17:25:52:037,-4.9786,0.8972,8.8958,37.6153,-0.0727,-0.2828,-0.0563,-102.8002
17:25:52:057,-5.5006,0.1454,9.6009,38.0125,-0.2447,-0.2316,-0.1839,-102.6505
17:25:52:075,-5.6825,-0.0521,9.3387,38.1373,-0.2002,-0.1861,-0.1301,-102.5042
17:25:52:094,-5.2396,-0.0856,8.4241,38.0287,-0.1068,-0.1187,0.0278,-102.3603
17:25:52:114,-4.2472,0.4699,8.1093,38.0061,-0.1387,-0.09,0.1796,-102.2196
17:25:52:140,-3.9946,0.3585,8.5486,39.587,-0.2253,-0.078,0.1575,-102.0858
17:25:52:163,-4.1024,0.0629,8.5905,38.3079,-0.1944,-0.0841,0.0907,-101.9639
17:25:52:185,-4.2855,0.0317,7.9764,39.4396,-0.0721,-0.0569,0.1458,-101.8536
17:25:52:194,-3.6953,0.3777,7.4198,37.8865,-0.0162,0.0741,0.3192,-101.7526
17:25:52:215,-3.1375,0.6901,7.6687,37.1528,-0.0588,0.1615,0.4422,-101.6602
17:25:52:235,-3.1375,0.5776,8.132,40.4608,-0.0719,0.138,0.3969,-101.6602
17:25:52:254,-3.4751,0.4076,8.1631,38.3861,0.0208,0.0381,0.3248,-101.6602
17:25:52:274,-3.3219,0.4723,8.1643,39.2623,0.1396,-0.0417,0.3298,-101.6602
17:25:52:294,-3.0238,0.6913,8.3463,38.5664,0.2392,-0.1011,0.4079,-101.6602
17:25:52:315,-2.7305,0.9284,8.3631,38.8209,0.3316,-0.111,0.4113,-101.6602
17:25:52:336,-2.6479,1.2863,8.0004,38.495,0.3881,-0.1099,0.3224,-101.6602
17:25:52:355,-2.4899,1.3342,7.7597,37.9426,0.3297,-0.0793,0.1775,-101.6602
17:25:52:380,-2.5389,1.163,8.3379,39.86,0.1561,-0.1166,-0.0329,-101.6602
17:25:52:404,-2.6718,0.6219,9.1831,39.3723,-0.0484,-0.2199,-0.4414,-101.6602
17:25:52:414,-3.2153,0.3298,9.6499,39.1842,-0.0535,-0.1541,-0.4534,-101.6602
17:25:52:435,-3.438,0.7416,9.5638,40.1196,-0.0966,-0.0652,-0.385,-101.6602
17:25:52:455,-2.5054,0.9882,9.4704,38.5815,-0.2474,-0.2439,-0.5504,-101.6602
17:25:52:474,-2.1104,1.1606,10.476,37.7006,-0.3624,-0.3994,-0.8857,-101.6602
17:25:52:494,-2.5545,0.1514,11.3103,37.5571,-0.3728,-0.3901,-1.1189,-101.6602
17:25:52:514,-3.6475,-0.6758,12.268,38.9795,-0.1893,-0.1999,-0.957,-101.6602
17:25:52:537,-3.8007,-0.7524,12.262,38.5809,0.1036,0.1535,-0.6555,-101.5321
17:25:52:555,-3.104,-0.0724,10.7405,35.8231,0.1961,0.2802,-0.5642,-101.3814
17:25:52:574,-2.3187,0.2747,9.7302,37.2356,0.1156,0.0928,-0.7621,-101.2235
17:25:52:594,-2.503,-0.325,10.1108,39.082,0.126,-0.2138,-0.9315,-101.0493
17:25:52:614,-2.3749,-0.8865,10.7261,38.8113,0.2978,-0.4553,-0.9714,-100.8699
17:25:52:636,-2.363,-0.9643,10.3239,38.5875,0.4493,-0.4918,-0.9208,-100.6711
17:25:52:656,-2.2038,-0.6327,9.0813,37.9755,0.4613,-0.2492,-0.7576,-100.4469
17:25:52:674,-1.6148,0.1909,7.7478,38.6476,0.3324,0.1082,-0.6606,-100.1942
17:25:52:694,-1.2329,0.7153,7.6759,37.6839,0.2831,0.2829,-0.7432,-99.9133
17:25:52:714,-2.0457,0.7715,7.5478,37.9102,0.3937,0.3074,-0.7706,-99.6116
17:25:52:738,-2.4468,0.9942,6.8164,37.4819,0.4935,0.154,-0.7181,-99.293
17:25:52:754,-2.4049,1.3833,6.3831,38.1701,0.5111,-0.0995,-0.7751,-98.9563
17:25:52:774,-2.2588,1.5365,6.8451,37.4572,0.5622,-0.3837,-0.9296,-98.601
17:25:52:794,-2.9926,1.3174,7.1157,36.3598,0.64,-0.5936,-0.9621,-98.226
17:25:52:814,-3.438,1.2731,6.9972,38.0599,0.5995,-0.6348,-0.883,-97.8302
17:25:52:835,-3.5828,1.3713,7.0091,36.1164,0.4166,-0.4362,-0.7474,-97.4099
17:25:52:856,-3.5553,1.4874,7.5419,36.207,0.1942,-0.1057,-0.6172,-96.9621
17:25:52:874,-3.827,1.4048,9.0071,37.2433,0.1271,0.1742,-0.5107,-96.4908
17:25:52:894,-4.3968,1.3785,9.6092,36.36,0.1734,0.4113,-0.3373,-96.0037
17:25:52:915,-4.5405,1.6694,8.9736,36.0932,0.0988,0.5457,-0.1815,-95.5099
17:25:52:938,-4.5632,1.9926,8.8156,38.0719,-0.0703,0.5247,-0.1357,-95.0127
17:25:52:957,-4.41,1.9758,9.626,37.83,-0.1326,0.2717,-0.2231,-94.5172
17:25:52:977,-4.8206,1.406,10.8027,35.0425,-0.0186,-0.054,-0.2758,-94.028
17:25:52:995,-5.6287,1.2097,11.4612,37.1737,0.1654,-0.2114,-0.1496,-93.5502
17:25:53:015,-5.1654,1.1618,10.9596,37.7309,0.1963,-0.34,-0.0603,-93.0799
17:25:53:042,-4.5812,1.2229,10.5765,37.5582,0.077,-0.4609,-0.1016,-92.6158
17:25:53:055,-4.5381,0.6111,11.3857,36.948,0.0608,-0.6133,-0.1698,-92.1595
17:25:53:076,-5.1295,0.149,12.1208,34.886,0.2139,-0.6098,-0.0409,-91.7126
17:25:53:095,-4.6147,0.3202,11.1918,35.823,0.2128,-0.4663,0.076,-91.2742
17:25:53:116,-3.8653,0.6267,10.2868,37.543,-0.041,-0.3757,-0.0151,-90.8429
17:25:53:141,-3.7265,0.2915,10.804,35.7973,-0.2519,-0.307,-0.1634,-90.4223
17:25:53:159,-4.4315,-0.9607,11.8825,37.7986,-0.2191,-0.205,-0.1168,-90.0142
17:25:53:177,-3.9503,-0.8565,10.9476,35.6663,-0.029,-0.0556,0.0917,-89.6176
17:25:53:195,-3.5457,-0.5896,10.1671,36.969,0.0741,0.0667,0.2955,-89.2312
17:25:53:215,-3.2931,-0.4124,9.7577,38.5025,0.1103,0.1705,0.4188,-88.8576
17:25:53:236,-2.9615,-0.0197,9.2226,37.1644,0.2163,0.3103,0.5607,-88.5007
17:25:53:254,-2.5006,0.3166,8.6875,36.2404,0.3897,0.4014,0.6832,-88.1648
17:25:53:274,-1.9057,0.829,7.7753,35.4857,0.5865,0.4091,0.7282,-87.8526
17:25:53:294,-1.6519,1.2276,6.9732,37.8268,0.6768,0.3332,0.6361,-87.5651
17:25:53:314,-1.8338,1.0924,7.5215,36.5828,0.6099,0.1777,0.4276,-87.3019
17:25:53:337,-1.9356,0.6638,8.7904,35.1676,0.5684,0.0147,0.2342,-87.0597
17:25:53:354,-2.1559,0.4004,8.7904,36.7187,0.7196,-0.0194,0.1367,-86.8322
17:25:53:376,-1.8291,0.8146,7.7274,37.8969,0.8978,0.0978,0.1455,-86.6131
17:25:53:395,-1.6806,1.3916,7.2342,35.5485,0.8709,0.2411,0.1157,-86.3969
17:25:53:414,-1.695,1.5293,7.7885,36.9123,0.681,0.3404,-0.0446,-86.1742
17:25:53:435,-1.92,1.339,7.8746,38.0176,0.5433,0.3343,-0.304,-85.9485
17:25:53:455,-2.4635,1.151,7.9106,38.1652,0.4059,0.2446,-0.5418,-85.7171
17:25:53:474,-3.3027,0.6267,8.8108,35.2782,0.191,0.1561,-0.74,-85.474
17:25:53:495,-4.1886,0.3633,9.5709,37.518,0.0682,0.1881,-0.757,-85.2151
17:25:53:515,-3.839,0.9619,9.3686,37.8238,0.1266,0.2933,-0.5392,-84.9367
17:25:53:542,-3.104,1.5963,8.6611,37.8238,0.1881,0.2656,-0.3719,-84.6411
17:25:53:554,-2.9819,1.7592,8.7749,36.9544,0.1007,0.0864,-0.488,-84.3355
17:25:53:574,-3.5301,1.3976,9.0442,35.2342,-0.0471,-0.0961,-0.7216,-84.0241
17:25:53:594,-3.3841,1.1247,9.5027,36.6049,-0.1699,-0.1608,-0.801,-83.7048
17:25:53:614,-3.2057,1.0026,10.1934,37.1589,-0.2476,-0.1073,-0.8492,-83.373
17:25:53:637,-3.7492,0.7225,10.1037,36.1428,-0.1976,0.0059,-0.9442,-83.0302
17:25:53:655,-3.9419,0.3837,9.6763,35.0033,-0.1036,-0.0199,-0.9922,-82.6756
17:25:53:675,-3.7552,0.0581,9.7397,35.6676,-0.0868,-0.1504,-0.9695,-82.3058
17:25:53:695,-3.426,-0.2759,10.0701,34.8795,-0.0764,-0.2583,-0.8958,-81.9196
17:25:53:717,-3.1315,-0.404,10.0905,33.901,0.0054,-0.2854,-0.7746,-81.5166
17:25:53:737,-2.7772,-0.1071,9.2609,36.651,0.147,-0.2258,-0.6159,-81.0996
17:25:53:756,-2.3821,0.5836,8.0961,36.4901,0.2317,-0.1304,-0.4446,-80.6829
17:25:53:774,-1.877,1.0636,8.2852,35.8203,0.1945,-0.1107,-0.3461,-80.2573
17:25:53:818,-1.847,0.9571,8.9939,35.6384,0.223,-0.2524,-0.3615,-79.8246
17:25:53:819,-2.0266,1.169,8.0291,35.1815,0.5039,-0.4212,-0.377,-79.3891
17:25:53:837,-1.7105,1.6454,6.589,34.6695,0.7284,-0.5344,-0.32,-78.9538
17:25:53:855,-1.6567,2.0548,5.8288,34.5904,0.4296,-0.4276,-0.4534,-78.5137
17:25:53:876,-2.284,2.1506,6.0383,35.6298,0.2014,-0.3643,-0.5469,-77.5854
17:25:53:894,-2.9843,2.1494,6.5411,33.1468,0.1071,-0.3219,-0.5258,-77.1316
17:25:53:913,-3.3159,2.4535,6.6452,34.2142,0.0296,-0.2809,-0.4819,-76.6697
17:25:53:934,-3.5696,2.7647,6.4968,33.0491,-0.1179,-0.2471,-0.4782,-76.201
17:25:53:954,-4.0868,2.8844,7.0187,34.0937,-0.2676,-0.2756,-0.4822,-75.7281
17:25:53:974,-4.7069,3.0616,8.4516,33.0258,-0.2114,-0.3674,-0.4579,-75.2546
17:25:53:994,-5.4826,2.5456,9.3112,33.288,-0.0215,-0.4335,-0.2902,-74.7823
17:25:54:013,-5.5688,2.6678,9.1699,34.0197,0.0845,-0.4255,-0.1027,-74.3134
17:25:54:038,-5.163,2.8653,8.8,31.9172,-0.0114,-0.3613,-0.0593,-73.8483
17:25:54:055,-4.8853,2.6558,9.1292,35.7377,-0.1755,-0.339,-0.1112,-73.3883
17:25:54:074,-5.6011,2.074,10.4855,33.4461,-0.1989,-0.3272,-0.0904,-72.9377
17:25:54:094,-6.0141,1.4659,11.8394,32.8477,0.0038,-0.2604,0.0872,-72.4989
17:25:54:114,-5.9639,1.3258,11.758,33.8488,0.1865,-0.1911,0.2489,-72.0724
17:25:54:138,-5.3773,1.5892,10.5155,31.5894,0.0818,-0.233,0.2659,-71.6588
17:25:54:154,-4.9798,1.0684,10.8794,33.2639,-0.0535,-0.2963,0.2124,-71.2602
17:25:54:174,-5.2935,0.3561,11.9149,31.2204,0.0645,-0.2058,0.329,-70.8788
17:25:54:194,-4.8493,0.3202,11.527,32.9847,0.2477,0.0592,0.574,-70.5162
17:25:54:216,-3.4883,1.1618,9.4764,31.6119,0.1026,0.3242,0.6294,-70.1721
17:25:54:238,-2.2014,1.7592,7.7897,33.2035,-0.384,0.2664,0.3109,-69.8473
17:25:54:255,-2.4563,1.3809,9.1029,33.7854,-0.6828,0.0952,-0.1096,-69.5475
17:25:54:276,-3.9623,0.228,10.0139,33.6663,-0.6261,0.1524,-0.0862,-69.2755
17:25:54:295,-4.1897,-0.3466,9.2872,31.4425,-0.5438,0.2904,0.2965,-69.0266
17:25:54:314,-3.4571,0.0521,8.1679,31.6121,-0.5701,0.378,0.6976,-68.7918
17:25:54:343,-2.4994,0.8793,7.7777,32.2211,-0.6623,0.2845,0.6691,-68.5705
17:25:54:357,-2.685,1.181,8.818,33.2815,-0.5467,0.0927,0.5274,-68.3862
17:25:54:378,-3.5493,0.6758,8.782,30.7625,-0.3067,0.0429,0.618,-68.2398
17:25:54:394,-3.1638,0.5573,7.7346,33.5941,-0.2016,-0.0412,0.8105,-68.1257
17:25:54:414,-2.0733,1.1582,7.4185,32.6108,-0.2362,-0.1451,0.7772,-68.1257
17:25:54:443,-1.5058,1.1893,8.3535,32.8748,-0.2538,-0.2886,0.4638,-68.1257
17:25:54:455,-2.7628,0.5944,9.1304,33.717,-0.1566,-0.3288,0.4145,-68.1257
17:25:54:477,-3.0824,0.2987,9.2334,33.299,-0.0508,-0.237,0.5956,-68.1257
17:25:54:494,-2.782,0.2675,9.2166,32.749,-0.0061,-0.1248,0.7415,-68.1257
17:25:54:514,-1.8027,0.8242,9.3818,34.6442,0.0112,-0.0977,0.6513,-68.1257
17:25:54:543,-1.6794,1.017,9.474,34.1474,-0.0178,-0.1714,0.4459,-68.1257
17:25:54:557,-1.7153,0.4938,10.5645,33.9234,-0.0854,-0.2793,0.2313,-68.1257
17:25:54:575,-1.5968,0.1502,11.0925,33.1819,-0.1134,-0.3805,0.075,-68.1257
17:25:54:594,-1.6124,0.0317,11.5928,31.1426,-0.1161,-0.372,-0.0132,-68.2247
17:25:54:615,-1.4376,0.3154,12.0717,32.7094,-0.0796,-0.2868,-0.0124,-68.3265
17:25:54:641,-0.7505,0.6626,11.7772,32.0759,0.0091,-0.0761,0.0377,-68.4275
17:25:54:656,-0.6308,1.011,11.0362,32.1844,0.0363,0.1388,-0.0135,-68.526
17:25:54:675,-0.6044,0.9319,11.3391,33.4644,-0.1022,0.2344,-0.1573,-68.6223
17:25:54:695,-1.3191,0.4914,12.523,32.8432,-0.238,0.3271,-0.3115,-68.7164
17:25:54:717,-2.017,0.0916,12.1627,33.3482,-0.1251,0.5977,-0.4121,-68.7164
17:25:54:738,-2.0864,0.4256,10.1827,34.7718,0.1316,0.8882,-0.2401,-68.7164
17:25:54:758,-0.8235,1.0792,8.5989,32.4432,0.179,0.9505,-0.0782,-68.7164
17:25:54:773,-0.213,1.1618,8.8204,32.7005,-0.0673,0.6057,-0.2742,-68.7164
17:25:54:792,-0.7636,0.3813,10.2353,31.9462,-0.3187,0.1596,-0.7027,-68.7164
17:25:54:814,-1.4951,-0.1275,10.4388,32.6353,-0.2828,-0.1259,-0.9179,-68.7164
17:25:54:834,-1.4687,0.1478,9.0801,32.4966,-0.0713,-0.1573,-0.8185,-68.7164
17:25:54:856,-1.0916,0.902,8.7354,30.6098,0.0091,0.0049,-0.5602,-68.7164
17:25:54:876,-1.3466,0.5944,10.1096,32.7076,0.012,0.0483,-0.4721,-68.7164
17:25:54:894,-2.6239,0.6518,9.0598,33.37,0.3178,0.0035,-0.4782,-68.7164
17:25:54:913,-2.5425,1.4838,7.3144,31.5585,0.6294,0.0877,-0.1964,-68.7164
17:25:54:936,-2.0996,2.0872,6.8822,32.4987,0.6573,0.065,0.0395,-68.7164
17:25:54:954,-2.0457,2.6941,7.579,32.0184,0.5625,-0.1355,0.0609,-68.7164
17:25:54:974,-2.0948,2.8342,8.0327,30.9127,0.55,-0.3371,-0.0854,-68.6196
17:25:54:994,-2.752,2.6067,8.0399,32.2589,0.5937,-0.4489,-0.2713,-68.5189
17:25:55:014,-2.8622,2.6689,8.6025,32.2744,0.579,-0.4668,-0.2819,-68.4102
17:25:55:042,-2.9986,2.5959,9.444,32.3422,0.5503,-0.4306,-0.2398,-68.2883
17:25:55:059,-3.4044,2.5612,9.9959,32.9053,0.5697,-0.3722,-0.202,-68.0048
17:25:55:077,-3.3602,2.7108,9.5326,32.0807,0.5926,0.0624,0.0262,-67.8477
17:25:55:095,-3.4954,2.7623,9.3722,30.2816,0.4605,0.2571,0.0931,-67.6831
17:25:55:115,-3.7696,2.6246,9.9696,32.3805,0.4171,0.2706,0.1237,-67.5157
17:25:55:134,-3.6546,2.7276,10.4628,31.8323,0.4799,0.223,0.117,-67.3496
17:25:55:155,-4.0186,2.5887,10.7609,34.1932,0.5492,0.1924,0.0789,-67.1865
17:25:55:174,-4.9978,2.1829,11.211,33.7975,0.701,0.2464,0.1823,-67.0249
17:25:55:196,-5.3066,1.8118,10.294,31.6417,0.7636,0.2288,0.3889,-66.8682
17:25:55:215,-4.9248,1.7759,9.2729,32.0122,0.6333,0.0437,0.4968,-66.7059
17:25:55:237,-4.9786,1.6646,9.2908,31.3197,0.5066,-0.2692,0.5107,-66.5493
17:25:55:256,-4.9164,1.2468,10.3646,32.2148,0.624,-0.4703,0.4995,-66.4
17:25:55:274,-4.2795,0.75,9.7397,30.9299,0.7625,-0.4138,0.5431,-66.2552
17:25:55:297,-3.3733,1.1726,7.5143,33.0279,0.5252,-0.1885,0.5077,-66.1342
17:25:55:314,-2.582,1.7663,6.1245,31.8717,-0.0351,0.0592,0.2851,-66.0168
17:25:55:334,-2.9914,1.4,6.486,31.9709,-0.5424,0.1979,0.1051,-65.9098
17:25:55:355,-2.746,0.8158,7.4976,34.3499,-0.7968,0.2533,0.0672,-65.8148
17:25:55:374,-2.6359,0.5142,8.1931,31.9328,-0.9209,0.424,0.0872,-65.8148
17:25:55:393,-2.4623,0.3585,8.7174,34.2476,-0.9387,0.7109,0.108,-65.8148
17:25:55:413,-2.2552,0.2149,8.6911,33.6995,-0.8735,0.938,0.1634,-65.8148
17:25:55:433,-1.9763,0.5118,7.998,32.9495,-0.8282,0.9266,0.2185,-65.8148
17:25:55:453,-2.005,0.8051,8.1344,32.0852,-0.7544,0.84,0.1359,-65.8148
17:25:55:474,-2.503,0.6997,8.2182,32.9837,-0.6325,0.7793,0.1335,-65.8148
17:25:55:494,-2.8131,0.8182,7.8315,33.2912,-0.5598,0.7825,0.2001,-65.8148
17:25:55:514,-2.9507,1.2659,7.4473,33.2715,-0.5968,0.847,0.2031,-65.8148
17:25:55:533,-3.4954,1.661,7.5921,33.2843,-0.6788,0.9367,0.2015,-65.8148
17:25:55:560,-4.24,1.6347,8.3403,32.4824,-0.6551,0.8539,0.2302,-65.8148
17:25:55:574,-4.2316,1.4288,9.31,32.3749,-0.4687,0.5761,0.268,-65.8148
17:25:55:594,-3.9671,1.3533,9.7218,33.4321,-0.2644,0.2635,0.2515,-65.9128
17:25:55:615,-3.7612,1.1702,9.8642,31.8613,-0.1763,0.1079,0.2047,-66.0269
17:25:55:638,-3.9611,0.8278,10.2904,32.9137,-0.1832,0.1745,0.1913,-66.1535
17:25:55:657,-4.4543,0.3969,10.6004,33.2798,-0.2013,0.4027,0.324,-66.2887
17:25:55:673,-4.5034,0.4878,10.6208,33.4556,-0.2018,0.5801,0.4854,-66.4293
17:25:55:693,-4.6015,0.8889,10.5909,33.1129,-0.1414,0.5436,0.5951,-66.5806
17:25:55:712,-4.2616,1.0648,10.8016,33.1129,0.0277,0.2832,0.6688,-66.7436
17:25:55:734,-3.2991,1.3246,10.6591,33.1052,0.183,-0.0164,0.6076,-66.9215
17:25:55:754,-3.0082,2.0022,10.7393,32.3872,0.2531,-0.1661,0.4182,-67.1136
17:25:55:774,-4.3669,2.578,10.3024,33.3144,0.1918,-0.1035,0.3698,-67.3173
17:25:55:794,-5.0888,2.0991,10.3371,32.6337,0.1918,-0.119,0.6004,-67.5261
17:25:55:829,-2.8251,1.7208,10.5526,34.0054,0.3766,-0.3834,0.6321,-67.7344
17:25:55:837,-0.7265,2.0321,9.4021,34.4607,0.4238,-0.792,0.2129,-67.9477
17:25:55:854,-0.5182,2.475,7.9297,33.0593,0.0744,-0.9073,-0.3362,-68.17
17:25:55:874,-1.9308,1.8645,8.5989,34.0138,-0.3078,-0.6439,-0.7043,-68.3911
17:25:55:893,-3.8677,0.7045,9.6583,35.2814,-0.4061,-0.3685,-0.59,-68.5985
17:25:55:915,-4.6722,0.434,10.3934,34.2415,-0.2215,-0.1528,-0.2449,-68.7844
17:25:55:939,-4.6925,1.0744,10.7489,34.7517,0.1532,-0.2452,0.0385,-68.9496
17:25:55:957,-4.428,1.8669,9.9025,34.8512,0.4696,-0.369,0.104,-69.1028
17:25:55:973,-5.3904,2.6606,7.8567,33.322,0.5396,-0.381,0.1969,-69.2497
17:25:55:992,-4.5668,2.5636,7.7921,35.1262,0.4634,-0.2958,0.3317,-69.3892
17:25:56:012,-3.8498,2.0153,8.2146,33.8417,0.42,-0.3105,0.3519,-69.5196
17:25:56:032,-3.6475,1.5856,8.2745,34.2275,0.461,-0.4338,0.264,-69.646
17:25:56:054,-3.7121,1.096,8.1799,34.4939,0.4786,-0.4737,0.1977,-69.7733
17:25:56:073,-3.3889,0.5968,8.6911,35.4613,0.4264,-0.4737,0.2246,-69.8996
17:25:56:094,-2.837,0.3178,9.2992,34.8089,0.3987,-0.4442,0.3453,-70.0207
17:25:56:113,-2.5054,0.495,8.6839,33.3331,0.4453,-0.1869,0.4963,-70.1387
17:25:56:133,-2.6,0.2723,8.478,33.8798,0.3692,0.1926,0.7128,-70.2585
17:25:56:154,-0.7349,1.3773,8.964,34.9243,0.2251,0.4001,1.1629,-70.3842
17:25:56:175,0.8189,2.4044,9.1591,34.585,0.1532,0.4017,0.9597,-70.5245
17:25:56:197,-0.0454,1.4443,7.5814,36.2042,0.1431,0.3697,0.3117,-70.6969
17:25:56:212,-1.2796,1.7173,6.7949,34.5468,-0.1779,0.7372,-0.0116,-70.8933
17:25:56:232,-4.1155,1.7017,7.4485,34.099,-0.7592,1.5522,-0.2087,-71.0924
17:25:56:253,-5.4455,0.908,7.9908,36.2865,-1.1576,2.2813,-0.2603,-71.2869
17:25:56:275,-4.8051,0.5537,8.0506,35.2636,-1.1646,2.1679,0.043,-71.4787
17:25:56:294,-4.4926,1.6394,8.2697,35.9653,-0.9688,1.5495,0.3908,-71.6732
17:25:56:313,-5.7879,2.645,8.9173,34.2503,-0.7899,1.117,0.3498,-71.8794
17:25:56:333,-6.4044,2.0034,7.8136,36.2019,-0.5294,0.8249,0.2529,-72.1082
17:25:56:356,-5.7603,2.3948,6.9864,36.4049,-0.376,0.5447,0.4249,-72.3594
17:25:56:377,-4.6985,2.5097,7.2749,35.6071,-0.461,0.2744,0.4678,-72.6249
17:25:56:394,-4.7105,2.4702,7.8471,36.3687,-0.5773,0.0259,0.3341,-72.9013
17:25:56:413,-4.6087,2.3218,8.2769,34.7469,-0.6237,-0.0228,0.19,-73.1923
17:25:56:435,-4.1682,2.0045,7.8016,36.1731,-0.6383,0.0919,0.0494,-73.4967
17:25:56:455,-4.6207,1.7292,8.2517,34.3021,-0.7393,0.1322,-0.103,-73.8126
17:25:56:473,-5.4491,1.2492,8.8467,36.0827,-0.7851,0.0917,-0.2025,-74.1357
17:25:56:493,-5.965,1.0301,8.5582,35.6649,-0.6902,0.097,-0.0859,-74.4616
17:25:56:512,-4.9726,1.4144,8.217,35.3686,-0.5928,0.1785,0.2358,-74.7942
17:25:56:532,-3.9898,1.7005,8.205,36.7293,-0.5313,0.2145,0.4108,-75.1282
17:25:56:554,-4.3717,1.6119,8.4684,36.9053,-0.4125,0.065,0.3349,-75.4704
17:25:56:574,-4.7165,1.2504,8.314,36.7913,-0.1627,-0.3171,0.2587,-75.8252
17:25:56:593,-4.4998,1.3007,7.6388,36.7465,0.0722,-0.5174,0.3522,-76.1878
17:25:56:613,-4.4304,1.801,7.0307,36.4634,0.1162,-0.393,0.5213,-76.5499
17:25:56:633,-3.9934,2.2883,6.9349,36.7626,0.0144,-0.1318,0.664,-76.9101
17:25:56:655,-3.6666,2.4702,7.1205,35.9806,-0.0724,0.0227,0.7019,-77.2727
17:25:56:675,-4.0629,2.8761,7.2617,35.8804,-0.0591,0.0009,0.5165,-77.644
17:25:56:694,-4.6997,2.7695,7.2007,37.2139,-0.0687,-0.0191,0.4904,-78.0257
17:25:56:715,-4.6375,2.7827,6.9684,38.1674,-0.1422,0.0232,0.5011,-78.7762
17:25:56:734,-4.0425,2.8725,6.7015,37.9195,-0.3118,-0.0034,0.3868,-79.1619
17:25:56:757,-3.7277,2.8126,6.9517,37.2055,-0.5342,-0.1581,0.1445,-79.5517
17:25:56:774,-4.6411,2.1243,8.3475,38.7333,-0.6341,-0.3672,0.0244,-79.9479
17:25:56:792,-5.7352,1.4551,9.7565,39.1282,-0.5757,-0.568,0.1618,-80.3499
17:25:56:811,-5.2037,1.0086,10.2401,38.7632,-0.4937,-0.7957,0.3794,-80.7545
17:25:56:832,-3.0106,0.7703,10.4604,37.944,-0.54,-1.0362,0.3269,-81.1588
17:25:56:855,-2.0553,0.3537,11.7628,37.5339,-0.5933,-1.0514,0.1208,-81.5666
17:25:56:874,-5.4299,0.3633,14.078,36.1691,-0.319,-0.7344,0.422,-81.9826
17:25:56:896,-6.2607,0.2101,13.8949,38.1704,0.0914,-0.4657,1.0188,-82.4047
17:25:56:913,-3.1088,0.1443,12.4775,39.052,0.3905,-0.5102,1.2201,-82.8276
17:25:56:932,0.8094,0.8386,11.3079,39.0948,0.5071,-0.7624,0.6534,-83.2563
17:25:56:961,-0.0801,0.8697,10.2054,37.8732,0.4973,-1.159,-0.0084,-83.7021
17:25:56:975,-1.6782,0.6123,9.6775,38.9309,0.4472,-1.1893,-0.1522,-84.1794
17:25:56:992,-2.0805,0.5537,8.9377,37.9891,0.2536,-0.9573,-0.0449,-84.6441
17:25:57:012,-1.3658,1.2145,9.1424,39.6787,0.1241,-0.5989,0.0347,-85.0846
17:25:57:032,-1.3418,2.0716,9.2717,38.8788,0.1436,-0.3965,-0.0215,-85.5035
17:25:57:058,-1.9775,2.6678,9.3471,38.6061,0.2853,-0.4593,-0.0579,-85.9085
17:25:57:073,-2.0924,3.0939,9.5159,38.684,0.5662,-0.6434,-0.1613,-86.3001
17:25:57:094,-2.4791,3.064,8.6564,38.9656,0.763,-0.7906,-0.2175,-86.6766
17:25:57:113,-2.7341,3.0376,7.9297,39.5241,0.8139,-0.8596,-0.1914,-87.0335
17:25:57:133,-2.2289,2.9012,7.6891,38.5104,0.779,-0.8484,-0.2739,-87.3653
17:25:57:155,-2.023,2.8126,7.4964,39.3458,0.681,-0.8263,-0.4015,-87.6723
17:25:57:173,-2.2696,2.7049,7.7657,40.1837,0.5721,-0.7046,-0.4169,-87.9547
17:25:57:196,-2.4743,2.6821,7.4185,38.9703,0.3223,-0.4292,-0.3764,-88.209
17:25:57:218,-2.5365,2.6246,7.6723,40.7281,0.0269,-0.188,-0.2667,-88.4358
17:25:57:235,-1.8003,2.0979,8.4492,39.525,-0.1203,-0.0497,-0.1892,-88.6367
17:25:57:254,-1.2221,1.6358,8.964,40.5072,-0.1502,-0.0894,-0.1591,-88.8182
17:25:57:272,-0.881,1.3186,9.8666,40.3661,-0.0189,-0.1131,-0.1565,-88.9867
17:25:57:293,-0.863,1.2229,10.3012,39.2946,0.2229,0.1117,-0.1211,-89.1458
17:25:57:319,-0.0011,1.4359,9.1675,39.7548,0.2397,0.3977,-0.141,-89.2952
17:25:57:338,0.1497,1.4754,8.6623,40.8263,0.0898,0.6584,-0.3035,-89.4341
17:25:57:353,-0.3459,1.5269,8.3882,40.301,-0.1941,0.8512,-0.4806,-89.5626
17:25:57:372,-3.1291,1.1965,10.4005,40.3985,-0.5139,1.0243,-0.5147,-89.6832
17:25:57:391,-2.8179,1.1426,11.6814,40.2072,-0.6271,1.1663,-0.2936,-89.6832
17:25:57:411,-2.3941,2.0883,12.444,38.68,-0.4567,1.2275,-0.0657,-89.6832
17:25:57:432,-2.6802,2.9838,11.3618,40.6719,-0.0977,1.0877,0.0417,-89.6832
17:25:57:452,-3.5014,3.3812,10.0019,40.4732,0.1031,1.0238,-0.1205,-89.6832
17:25:57:474,-5.3174,2.5552,9.2717,40.1516,0.0238,1.0257,-0.394,-89.6832
17:25:57:492,-5.5868,2.1937,8.7366,39.2446,-0.1198,1.1308,-0.402,-89.6832
17:25:57:511,-4.8278,1.7436,7.634,40.0804,-0.2042,1.1314,-0.3003,-89.6832
17:25:57:531,-4.6363,1.4204,7.6496,39.4986,-0.3773,0.8299,-0.4124,-89.6832
17:25:57:553,-4.7895,0.9415,8.2793,40.2999,-0.5076,0.317,-0.6052,-89.6832
17:25:57:572,-4.7847,0.3454,8.472,40.8599,-0.5121,-0.1877,-0.7163,-89.6832
17:25:57:592,-4.5106,0.0078,7.8854,38.2164,-0.4753,-0.4111,-0.6537,-89.6832
17:25:57:611,-3.9467,0.076,7.1851,40.2377,-0.5334,-0.4394,-0.4374,-89.6832
17:25:57:631,-2.855,0.5812,7.9225,39.2696,-0.7097,-0.3512,-0.1733,-89.6832
17:25:57:653,-2.4875,0.5237,8.4349,40.1534,-0.7946,-0.2479,-0.0774,-89.6832
17:25:57:681,-2.3558,0.6171,8.551,38.8069,-0.7206,-0.1336,-0.0305,-89.6832
17:25:57:692,-2.0266,0.841,8.4169,39.9268,-0.552,-0.1504,0.0539,-89.6832
17:25:57:712,-1.525,1.3114,8.5175,38.8188,-0.3728,-0.2255,0.0933,-89.6832
17:25:57:732,-2.1607,1.7627,9.3507,40.0603,-0.2269,-0.3331,-0.0265,-89.6832
17:25:57:754,-2.6132,1.7436,9.4273,39.6221,-0.0122,-0.3768,-0.1203,-89.6832
17:25:57:775,-2.3953,2.0632,8.5857,40.8284,0.1886,-0.307,-0.0896,-89.6832
17:25:57:792,-2.4875,2.1626,8.3116,40.0233,0.1913,-0.2362,-0.1205,-89.6832
17:25:57:813,-3.0609,1.7747,9.6021,40.1109,0.0536,-0.2497,-0.2177,-89.6832
17:25:57:861,-3.3135,1.3833,10.4221,40.1555,0.0981,-0.3203,-0.2793,-89.6832
17:25:57:862,-3.2668,1.4036,9.9217,40.1605,0.3337,-0.4572,-0.295,-89.6832
17:25:57:872,-2.7831,1.1726,9.0442,38.6235,0.4555,-0.6247,-0.3472,-89.6832
17:25:57:892,-3.0645,0.6207,9.8367,38.6235,0.2834,-0.7491,-0.4867,-89.6832
17:25:57:912,-4.1454,0.1143,11.867,39.4261,0.072,-0.8079,-0.5845,-89.6832
17:25:57:932,-4.4088,-0.0664,12.5912,39.0979,0.1833,-0.8079,-0.4737,-89.6832
17:25:57:955,-2.2145,0.3454,10.7166,40.794,0.5071,-0.6492,-0.1887,-89.6832
17:25:57:974,-1.0162,0.7823,9.8068,39.5616,0.5015,-0.4668,-0.1828,-89.6832
17:25:57:993,-1.4747,0.7332,9.7924,40.5089,0.2003,-0.2748,-0.5107,-89.59
17:25:58:012,-3.2823,-0.0353,10.6639,39.3025,-0.1331,-0.1294,-0.9256,-89.4882
17:25:58:033,-3.0645,-0.3597,11.3822,39.8221,-0.2495,0.0584,-0.9956,-89.3698
17:25:58:055,-1.7596,-0.6195,11.5486,40.366,-0.0836,0.1394,-0.9299,-89.2255
17:25:58:073,-1.0605,-0.3478,11.8718,39.8621,0.6616,-0.503,-1.2239,-88.8902
17:25:58:093,-1.1683,0.1431,9.7864,40.3825,0.8307,-0.6639,-1.4002,-88.7016
17:25:58:112,-1.4639,0.4364,6.9146,39.429,0.4605,-0.6378,-1.4457,-88.4827
17:25:58:132,-1.6315,0.5585,5.7426,39.3529,-0.168,-0.3978,-1.3922,-88.2218
17:25:58:160,-1.8255,0.1658,6.395,38.0797,-0.6812,-0.188,-1.3051,-87.9151
17:25:58:174,-2.4731,0.088,8.6959,39.4622,-0.7414,0.0749,-1.1855,-87.5637
17:25:58:191,-3.4308,0.2819,9.6009,38.2655,-0.4732,0.374,-0.949,-87.1787
17:25:58:211,-3.256,0.5776,9.2046,38.403,-0.1398,0.5332,-0.6745,-86.7409
17:25:58:231,-2.9244,0.5992,8.1524,39.1694,0.0946,0.4954,-0.5325,-86.3028
17:25:58:252,-2.4192,0.6219,7.6651,38.4077,0.2389,0.2597,-0.5991,-85.8553
17:25:58:273,-2.7173,0.3681,8.3056,39.6907,0.4299,-0.0857,-0.6923,-85.4034
17:25:58:292,-2.8753,0.2424,8.7078,39.4167,0.6421,-0.2157,-0.6641,-84.9453
17:25:58:313,-2.7891,0.4435,7.8663,39.9462,0.5875,-0.1651,-0.5778,-84.4754
17:25:58:333,-2.9675,0.7931,7.5562,40.0088,0.2978,-0.0431,-0.4161,-83.9902
17:25:58:364,-3.7971,1.2025,8.296,40.1651,0.0248,0.1172,-0.1701,-83.4922
17:25:58:373,-3.7827,1.4718,9.395,39.263,-0.1145,0.2086,-0.0433,-82.9866
17:25:58:393,-3.3985,1.5257,10.7477,38.6472,-0.0396,0.2464,-0.01,-82.4889
17:25:58:412,-3.6906,1.0708,11.4983,38.5795,0.2054,0.2326,0.1599,-82.0005
17:25:58:432,-3.2177,1.1845,11.1703,39.8641,0.3606,0.1849,0.3224,-81.5268
17:25:58:454,-2.8729,1.3845,10.6735,38.7165,0.3385,0.1295,0.3498,-81.0676
17:25:58:472,-3.0717,1.1486,10.6316,41.1921,0.2262,0.0858,0.4028,-80.6244
17:25:58:492,-3.772,1.0888,11.1942,40.7004,0.1886,0.1929,0.5754,-80.1998
17:25:58:512,-4.1119,1.4778,11.278,40.1047,0.2022,0.3034,0.7735,-79.7945
17:25:58:532,-3.6941,1.7747,10.5155,41.0031,0.1042,0.1633,0.8443,-79.4111
17:25:58:552,-3.1938,1.7041,10.2772,40.6478,-0.034,-0.1539,0.7778,-79.0543
17:25:58:575,-2.6024,1.424,10.4688,40.191,-0.1091,-0.4758,0.5719,-78.7304
17:25:58:592,-2.2564,0.5213,10.7884,40.0256,-0.0657,-0.7014,0.3804,-78.4421
17:25:58:613,-2.8119,-0.0712,11.8754,40.7238,0.3303,-0.4599,0.3594,-78.2069
17:25:58:630,-2.9077,-0.1694,10.8159,42.529,0.8107,-0.0465,0.3852,-77.9923
17:25:58:653,-2.6586,-0.3513,7.4341,41.2958,0.7993,0.0366,0.3607,-77.7885
17:25:58:672,-2.3043,-0.2185,5.5224,40.8276,0.3825,-0.1051,0.2079,-77.5956
17:25:58:692,-2.1176,0.1574,5.9102,42.1828,-0.0452,-0.2908,-0.0707,-77.41
17:25:58:713,-3.0501,-0.3705,7.154,40.0821,-0.245,-0.3888,-0.1461,-77.2324
17:25:58:732,-3.5026,-0.6027,7.7382,42.2706,-0.302,-0.3342,0.0078,-77.0605
17:25:58:754,-3.013,-0.8745,7.9656,39.7194,-0.2982,-0.291,0.2646,-76.8911
17:25:58:772,-1.9883,-0.2939,8.8168,41.4718,-0.1102,-0.205,0.553,-76.7274
17:25:58:792,-1.9703,0.726,8.1332,40.9107,0.1391,-0.1262,0.8161,-76.5764
17:25:58:811,-2.1511,1.5544,7.9692,41.4992,0.2328,-0.0471,0.9911,-76.4455
17:25:58:830,-1.9356,2.317,7.6711,42.0725,0.2251,-0.0132,1.1426,-76.3418
17:25:58:851,-1.1204,3.1466,8.1536,40.6936,0.0975,-0.0401,1.2491,-76.3418
17:25:58:873,-0.5099,3.8421,8.7054,39.6542,-0.0679,-0.0138,1.1629,-76.3418
17:25:58:893,-0.8331,3.8217,9.1927,42.8026,-0.2085,0.0991,0.8776,-76.3418
17:25:58:913,-1.8362,3.0041,10.0282,41.8479,-0.3275,0.2083,0.5221,-76.3418
17:25:58:931,-2.3342,2.6187,10.6627,42.5211,-0.3014,0.1724,0.3815,-76.3418
17:25:58:951,-1.9643,2.6199,10.7549,43.273,-0.1512,0.035,0.4132,-76.4468
17:25:58:979,-1.7632,2.4487,11.2014,42.9104,-0.0426,-0.1355,0.3759,-76.5664
17:25:58:991,-2.0828,2.0704,12.116,41.6957,0.0317,-0.2439,0.284,-76.6983
17:25:59:012,-2.4958,2.0883,11.9532,41.6238,0.195,-0.2937,0.2651,-76.8406
17:25:59:031,-2.5964,2.7743,11.4719,41.84,0.2981,-0.2822,0.3682,-76.9903
17:25:59:052,-2.0302,2.9203,11.1308,40.3617,0.2083,-0.1129,0.4792,-77.1434
17:25:59:072,-1.0462,2.6977,11.6754,41.9085,0.0083,-0.0939,0.4856,-77.3
17:25:59:092,-0.019,1.9782,12.1687,42.9818,-0.1166,-0.1573,0.3796,-77.4717
17:25:59:113,0.7351,1.078,13.0796,39.9777,-0.1254,-0.1957,0.2257,-77.6554
17:25:59:131,0.2539,0.179,12.4153,41.3421,0.121,0.0222,0.0145,-77.8473
17:25:59:151,-0.7062,0.2328,10.1336,43.5133,0.5223,0.4395,-0.1091,-78.0426
17:25:59:173,-0.9408,0.0784,7.6855,42.1997,0.7138,0.6286,-0.1831,-78.2314
17:25:59:191,-1.2269,0.1383,5.8695,40.499,0.5591,0.3987,-0.3072,-78.4061
17:25:59:213,-1.3586,0.495,5.9856,41.5762,0.0464,-0.0575,-0.3815,-78.5631
17:25:59:231,-1.0988,0.5644,7.9824,41.6897,-0.5656,-0.4045,-0.3725,-78.6989
17:25:59:251,-0.6463,0.7715,9.972,40.9054,-0.8833,-0.4412,-0.2452,-78.8166
17:25:59:273,0.4347,1.5101,10.7022,41.5756,-0.8258,-0.1986,-0.0678,-78.9236
17:25:59:293,0.6669,1.983,10.0115,42.913,-0.564,0.2224,0.034,-79.0273
17:25:59:313,-0.049,2.56,9.9947,41.6307,-0.3898,0.5798,-0.0462,-79.1333
17:25:59:332,-0.4943,2.5911,10.0869,41.0361,-0.1605,0.6848,-0.178,-79.2426
17:25:59:352,-0.8355,2.0441,8.2637,40.8625,0.2791,0.6254,-0.3315,-79.3506
17:25:59:372,-1.0306,2.1219,6.9804,40.6988,0.506,0.4656,-0.4156,-79.4509
17:25:59:393,-1.1587,2.062,6.5423,42.6089,0.461,0.3663,-0.4721,-79.4509
17:25:59:413,-1.4316,1.8932,7.3431,42.3954,0.2861,0.2568,-0.503,-79.4509
17:25:59:432,-1.6806,1.9279,7.9022,40.9949,0.2107,0.174,-0.5,-79.4509
17:25:59:453,-2.0074,2.2284,7.7142,40.2317,0.2344,0.1942,-0.4372,-79.4509
17:25:59:473,-2.4935,2.2966,7.9812,41.2174,0.1343,0.2893,-0.3245,-79.4509
17:25:59:494,-3.1734,2.1781,8.1248,42.411,0.0653,0.1639,-0.2425,-79.4509
17:25:59:513,-3.9288,2.4176,9.0071,42.8053,0.0299,0.0677,-0.1155,-79.4509
17:25:59:532,-4.2975,2.42,9.377,39.8858,-0.05,0.0339,0.0419,-79.4509
17:25:59:551,-3.7648,2.1817,10.045,41.0203,-0.151,-0.0521,0.1423,-79.4509
17:25:59:571,-3.1088,1.8801,11.0266,39.9185,-0.2,-0.1845,0.178,-79.4509
17:25:59:592,-3.3817,1.8286,12.3793,40.6835,-0.1113,-0.1395,0.3104,-79.4509
17:25:59:610,-4.7308,2.3948,13.2185,41.5,0.0997,0.1732,0.6766,-79.4509
17:25:59:631,-3.9348,3.0388,11.6491,40.8285,0.0315,0.1351,0.9149,-79.4509
17:25:59:650,-2.2061,3.404,11.4408,40.8643,-0.1997,-0.1099,0.7141,-79.4509
17:25:59:672,-0.9025,3.0053,12.4895,40.9667,-0.2221,-0.1696,0.1138,-79.4509
17:25:59:695,-1.8614,1.2588,12.9599,41.0741,0.0871,-0.1057,-0.3112,-79.4509
17:25:59:711,-3.3637,0.3753,12.0477,40.4433,0.4978,0.1109,-0.4239,-79.4509
17:25:59:729,-3.9527,-0.2137,8.8287,41.0919,0.5343,0.1833,-0.3413,-79.4509
17:25:59:749,-3.8857,-0.4423,5.9353,41.0397,0.0259,0.1055,-0.19,-79.4509
17:25:59:774,-3.5661,-0.0305,5.1788,40.7473,-0.7052,0.1468,-0.1245,-79.4509
17:25:59:794,-3.7037,-0.0569,6.8918,40.3806,-1.152,0.17,-0.051,-79.4509
17:25:59:812,-4.0114,-0.4986,8.5498,40.981,-1.1635,0.1702,0.1972,-79.4509
17:25:59:832,-3.4212,-0.6542,9.0287,39.3342,-0.9587,0.244,0.5205,-79.4509
17:25:59:946,-1.786,-0.2843,9.3279,40.4328,-0.6311,0.2808,0.6606,-79.4509
17:25:59:947,-1.3203,0.3633,9.377,41.0786,-0.2218,0.2666,0.6174,-79.4509
17:25:59:948,-1.7453,0.8493,8.4792,42.1903,0.0845,0.2485,0.582,-79.4509
17:25:59:948,-2.26,1.3042,7.1887,40.2469,0.154,0.3007,0.6174,-79.5506
17:25:59:949,-1.8877,1.6945,6.474,41.8557,0.0618,0.35,0.5615,-79.6706
17:25:59:953,-1.8686,1.8405,6.3148,40.4577,-0.1289,0.2837,0.3762,-79.8134
17:25:59:970,-2.2624,1.5676,7.2797,42.2816,-0.2298,0.2398,0.2028,-79.9706
17:25:59:989,-3.0202,1.1438,7.9022,40.7216,-0.2538,0.2432,0.2134,-80.1392
17:26:00:009,-3.5122,1.0181,8.2709,41.5969,-0.2676,0.2746,0.3543,-80.314
17:26:00:029,-3.6259,1.175,8.6264,39.2801,-0.278,0.1958,0.5051,-80.4929
17:26:00:050,-3.3889,1.3689,9.2956,40.4899,-0.2447,-0.0207,0.5929,-80.6789
17:26:00:070,-3.2093,1.558,10.2772,41.0121,-0.1494,-0.2697,0.6449,-80.8764
17:26:00:091,-2.9077,1.74,10.9189,41.0121,-0.0535,-0.4764,0.6909,-81.0902
17:26:00:109,-2.1631,1.9806,11.3175,40.7294,-0.0354,-0.5869,0.6944,-81.3206
17:26:00:129,-1.9763,2.487,12.347,41.1809,0.0022,-0.5344,0.6728,-81.5676
17:26:00:152,-2.1774,2.9682,13.0617,41.1236,0.106,-0.3347,0.6859,-81.83
17:26:00:169,-0.6284,3.6003,12.5529,41.1545,0.0935,-0.2676,0.6784,-82.1078
17:26:00:189,0.2695,2.2236,12.8809,41.4717,-0.0053,-0.3967,0.3112,-82.3991
17:26:00:209,0.5951,0.2101,14.3174,40.492,-0.0495,-0.637,-0.1352,-82.7036
17:26:00:229,-0.444,-0.7691,14.4395,42.8336,0.3015,-0.6583,-0.5418,-83.0162
17:26:00:249,-1.2389,-1.3174,11.2924,40.9949,0.9796,-0.2234,-0.7568,-83.3231
17:26:00:269,-1.6148,-1.1175,7.3814,42.3622,1.3338,0.1721,-0.7434,-83.6089
17:26:00:293,-1.8626,-0.1203,5.0244,42.2187,1.0541,0.175,-0.6313,-83.8565
17:26:00:310,-1.8123,0.6674,5.739,41.5618,0.2869,0.0264,-0.6375,-84.0569
17:26:00:331,-2.3881,0.5956,8.4684,42.4408,-0.4466,-0.23,-0.7549,-84.2139
17:26:00:350,-2.0338,0.8817,9.784,41.1351,-0.6636,-0.2572,-0.6798,-84.3385
17:26:00:374,-0.942,1.6442,9.5853,41.7235,-0.5004,-0.0897,-0.3906,-84.4369
17:26:00:389,0.1294,2.7085,8.6013,41.959,-0.2809,0.1676,-0.2231,-84.4369
17:26:00:413,0.315,3.2723,8.1057,42.1828,-0.1611,0.3298,-0.3485,-84.4369
17:26:00:429,-0.8079,2.4152,8.0889,40.2965,-0.1004,0.3913,-0.7751,-84.4369
17:26:00:449,-2.2074,1.5437,7.7873,41.41,0.0999,0.3148,-1.0867,-84.4369
17:26:00:470,-2.1583,0.9379,6.984,39.9078,0.3612,0.1753,-1.0785,-84.4369
17:26:00:489,-2.5713,0.756,6.0467,40.613,0.5013,0.0403,-0.9386,-84.4369
17:26:00:509,-2.7616,1.096,6.1221,41.3476,0.4115,0.0147,-0.7227,-84.4369
17:26:00:529,-3.177,0.9978,7.4329,40.3999,0.1774,0.0216,-0.6089,-84.3446
17:26:00:550,-3.9515,0.7021,8.3822,41.5203,0.0459,0.068,-0.516,-84.2256
17:26:00:572,-3.7001,1.0505,8.6133,42.0217,0.0341,0.1471,-0.2278,-84.0876
17:26:00:589,-3.772,1.6634,8.9113,40.9007,-0.0213,0.2576,0.0366,-83.9358
17:26:00:609,-4.2699,2.0297,9.7074,43.3439,-0.1251,0.3154,0.1857,-83.781
17:26:00:630,-3.9611,2.0836,10.4077,41.7974,-0.1733,0.2358,0.2497,-83.6324
17:26:00:650,-3.4703,1.8465,11.0123,40.3525,-0.1731,-0.0146,0.2497,-83.496
17:26:00:671,-3.4284,1.7747,12.3063,39.9059,-0.1731,-0.3557,0.2552,-83.374
17:26:00:690,-4.4004,2.0357,13.7716,40.3019,-0.0546,-0.6018,0.3224,-83.2662
17:26:00:710,-4.5142,2.6486,13.4962,41.798,0.2733,-0.634,0.598,-83.1724
17:26:00:731,-2.4635,3.0269,11.6886,40.3121,0.6064,-0.6479,0.9629,-83.1724
17:26:00:749,-0.5326,3.4686,11.8538,42.39,0.578,-0.939,1.0505,-83.1724
17:26:00:770,0.3987,3.0963,13.1203,41.2535,0.4552,-1.1552,0.6153,-83.1724
17:26:00:789,-1.4472,1.3869,13.3825,43.2817,0.5505,-1.0261,-0.2755,-83.1724
17:26:00:809,-3.2177,0.7237,11.0948,41.5876,0.9359,-0.6194,-0.7488,-83.1724
17:26:00:829,-4.1071,0.2113,7.5383,42.8,1.1756,-0.152,-0.7117,-83.1724
17:26:00:849,-4.3071,0.5477,5.4792,42.5649,0.8195,0.1082,-0.5075,-83.1724
17:26:00:872,-4.3394,0.8278,5.5176,41.7749,-0.7491,0.5958,-0.2023,-83.1724
17:26:00:891,-4.5405,0.5393,7.312,43.0189,-1.1294,0.8576,0.0318,-83.0666
17:26:00:909,-4.0233,0.3933,8.3248,42.0176,-1.1259,1.1215,0.264,-82.9512
17:26:00:930,-2.9867,0.495,8.1847,41.8906,-0.9912,1.2142,0.3924,-82.8402
17:26:00:953,-1.9512,0.6423,7.5395,42.9118,-0.8165,1.1439,0.4843,-82.7458
17:26:00:976,-1.9595,0.665,6.7649,41.8548,-0.6868,0.851,0.5445,-82.7458
17:26:00:989,-2.2265,0.8529,6.9002,43.5534,-0.5006,0.4435,0.5586,-82.7458
17:26:01:009,-2.1714,1.0337,7.136,40.1711,-0.2495,0.101,0.5466,-82.7458
17:26:01:029,-1.9284,1.3677,6.6883,42.3372,-0.1084,-0.2583,0.537,-82.7458
17:26:01:049,-2.0876,1.8561,6.6847,41.9797,-0.1566,-0.5222,0.4278,-82.7458
17:26:01:076,-2.8993,2.1302,7.9967,40.483,-0.1866,-0.4604,0.3503,-82.7458
17:26:01:091,-3.7372,2.1614,8.5474,43.5176,-0.192,-0.2939,0.4467,-82.7458
17:26:01:109,-3.3829,2.0129,8.2745,42.9989,-0.4005,-0.1848,0.5386,-82.8363
17:26:01:129,-2.6646,1.7903,9.3818,42.747,-0.5739,-0.0849,0.5261,-82.9381
17:26:01:149,-2.1882,1.6059,10.7633,42.5951,-0.5587,0.0501,0.4292,-83.0536
17:26:01:169,-2.0673,1.2791,11.1332,43.8801,-0.5102,0.113,0.2941,-83.1885
17:26:01:189,-2.2756,0.7668,11.6539,43.1454,-0.425,0.0741,0.2238,-83.344
17:26:01:209,-2.831,0.7057,12.4691,42.4249,-0.2002,0.0677,0.3221,-83.5148
17:26:01:229,-2.9891,1.2205,12.1064,43.6811,-0.025,0.0648,0.4859,-83.6962
17:26:01:250,-2.9867,2.2069,12.1088,45.2777,0.0328,0.0203,0.5706,-83.8846
17:26:01:270,-2.3223,2.5014,11.8502,44.835,-0.042,-0.1608,0.5674,-84.0796
17:26:01:291,0.0935,2.7994,12.0621,43.9814,-0.2154,-0.4628,0.198,-84.2853
17:26:01:312,0.6765,1.5042,13.7141,45.4548,-0.1257,-0.5169,-0.3061,-84.504
17:26:01:329,0.1055,-0.2951,14.9579,44.1864,0.4451,-0.2519,-0.602,-84.7356
17:26:01:351,-1.2485,-1.0983,13.3861,44.4279,1.0714,0.0957,-0.6857,-84.9687
17:26:01:372,-1.2664,-1.4036,9.9444,43.5753,1.2661,0.0464,-0.6896,-85.1858
17:26:01:394,-1.4711,-1.1366,6.8655,45.4746,0.9207,-0.2886,-0.7032,-85.3548
17:26:01:409,-1.519,-0.3226,5.8001,45.0318,0.3007,-0.6117,-0.7994,-85.4836
17:26:01:430,-1.9332,-0.0138,6.7518,45.8976,-0.2218,-0.6647,-0.7597,-85.4836
17:26:01:450,-2.3797,0.4567,8.2805,43.9408,-0.4186,-0.3797,-0.4707,-85.4836
17:26:01:471,-1.6447,1.2683,8.7162,45.3831,-0.4231,0.0701,-0.2092,-85.4836
17:26:01:491,-0.7038,1.552,8.1811,44.4248,-0.4279,0.2994,-0.1107,-85.4836
17:26:01:512,-0.2692,2.2583,8.9975,44.0518,-0.2551,0.44,-0.312,-85.4836
17:26:01:531,-0.5877,2.2931,9.468,45.6945,0.1372,0.4557,-0.6817,-85.4836
17:26:01:551,-1.9332,1.5149,8.782,44.4886,0.5375,0.3386,-0.7858,-85.4836
17:26:01:572,-2.4109,0.8613,6.2179,44.8598,0.7577,0.1761,-0.7232,-85.4836
17:26:01:591,-2.4192,1.2623,6.1293,45.7821,0.6656,0.0355,-0.5623,-85.4836
17:26:01:610,-2.6562,1.4335,6.389,43.9656,0.4259,0.0717,-0.4649,-85.4836
17:26:01:629,-3.1112,1.4132,6.9373,45.5715,0.1622,0.1865,-0.3807,-85.3763
17:26:01:648,-3.3242,1.5939,7.8794,46.9744,-0.0852,0.3236,-0.1964,-85.2487
17:26:01:670,-3.5529,1.91,8.8958,46.0242,-0.2093,0.3604,0.0087,-85.1076
17:26:01:689,-3.6379,2.1554,9.626,47.8141,-0.1861,0.1902,0.1541,-84.9601
17:26:01:711,-3.6127,2.5732,10.3359,47.6757,-0.1249,-0.0423,0.2491,-84.8163
17:26:01:730,-2.9495,2.56,11.0996,47.9874,-0.0769,-0.2388,0.3098,-84.6824
17:26:01:750,-2.5641,2.2919,12.1806,50.5507,-0.053,-0.3347,0.2598,-84.5611
17:26:01:774,-2.9196,1.8896,12.8163,51.9401,0.028,-0.3051,0.1801,-84.4544
17:26:01:791,-4.1083,2.1554,13.0485,51.1298,0.1865,-0.2101,0.2627,-84.3617
17:26:01:809,-4.7081,2.9131,12.1782,52.2784,0.3769,0.0065,0.5703,-84.3617
17:26:01:829,-3.7241,2.797,10.6304,52.5435,0.4666,0.0709,0.9184,-84.3617
17:26:01:849,-1.0282,2.8222,10.9428,50.8679,0.3577,-0.3414,1.1301,-84.3617
17:26:01:921,-0.3171,2.7611,11.8873,51.5521,0.2909,-0.6242,0.7788,-84.3617
17:26:01:922,-2.5126,1.4994,11.126,49.3123,0.448,-0.5589,-0.0428,-84.3617
17:26:01:922,-3.5816,0.5345,9.2932,48.9476,0.6477,-0.421,-0.4787,-84.3617
17:26:01:928,-3.6738,-0.6363,6.905,48.6059,0.644,-0.4593,-0.557,-84.3617
17:26:01:948,-3.8677,-0.8086,6.6656,49.0924,0.1638,-0.5778,-0.4572,-84.3617
17:26:01:968,-3.8761,-0.5513,7.5155,48.0398,-0.4756,-0.3648,-0.2111,-84.3617
17:26:01:988,-3.8222,-0.5896,8.642,47.2828,-0.976,0.0435,0.1335,-84.3617
17:26:02:008,-2.9986,-0.5249,9.0251,46.7525,-1.1952,0.4621,0.5336,-84.3617
17:26:02:032,-1.4879,-0.2675,8.642,46.8167,-1.1547,0.7625,0.8465,-84.3617
17:26:02:052,-0.8702,0.1419,8.6348,46.3089,-0.7944,0.868,1.0044,-84.3617
17:26:02:071,-0.9145,0.5393,8.63,46.6859,-0.4351,0.7045,0.9876,-84.3617
17:26:02:090,-1.1084,1.0229,8.1859,47.6614,-0.0833,0.4094,0.9389,-84.4815
17:26:02:109,-1.6842,1.5293,7.2845,47.8723,0.1135,0.0403,0.9224,-84.6345
17:26:02:129,-1.3742,2.3469,6.5267,47.2461,0.0584,-0.2841,0.8489,-84.8158
17:26:02:149,-1.118,2.9574,6.5555,47.944,-0.2175,-0.3485,0.6739,-85.0218
17:26:02:170,-1.2269,3.5057,7.7621,46.9072,-0.4825,-0.1744,0.4316,-85.2504
17:26:02:189,-1.8973,3.2471,9.14,47.8553,-0.5861,0.0954,0.2795,-85.4962
17:26:02:209,-1.9141,2.7288,9.8271,46.9998,-0.593,0.2366,0.2252,-85.7545
17:26:02:230,-2.0721,2.2392,10.6507,46.922,-0.5222,0.3063,0.1644,-86.0206
17:26:02:249,-2.3845,1.7675,11.211,47.4548,-0.3981,0.2643,0.1133,-86.2914
17:26:02:270,-2.6586,1.2659,11.5007,48.3255,-0.2817,0.1332,0.1096,-86.5541
17:26:02:289,-2.5461,0.817,11.9651,48.5431,-0.1134,0.0307,0.1317,-86.8199
17:26:02:309,-2.6503,0.6877,12.1902,48.5431,0.0919,-0.1627,0.1975,-87.0854
17:26:02:329,-2.9483,1.4742,12.5541,47.9839,0.2706,-0.3147,0.2499,-87.3551
17:26:02:348,-2.527,2.0704,12.3386,49.4157,0.3396,-0.4583,0.2289,-87.6167
17:26:02:369,-1.361,2.1314,11.8801,49.0836,0.2227,-0.646,0.1066,-87.8761
17:26:02:391,0.206,1.7747,12.3338,49.6009,0.0978,-0.7137,-0.1386,-88.1337
17:26:02:408,1.2212,0.8003,13.5992,48.6284,0.2728,-0.4223,-0.4428,-88.3877
17:26:02:427,0.5113,-0.2903,13.6315,50.0764,0.7694,0.1644,-0.6572,-88.6357
17:26:02:447,-0.5063,-0.4687,11.1463,48.9535,1.1045,0.5852,-0.7616,-88.8704
17:26:02:469,-0.6643,-0.5273,7.4928,50.0244,0.9473,0.46,-0.8992,-89.0817
17:26:02:489,-0.5757,-0.6506,4.4402,47.7982,0.2091,-0.1328,-1.0766,-89.2572
17:26:02:508,-0.8271,-0.8039,4.5276,48.3609,-0.6665,-0.735,-1.2273,-89.3908
17:26:02:528,-1.2066,-0.9128,8.2685,47.7202,-0.9872,-0.9864,-1.2281,-89.4816
17:26:02:548,-2.6311,-0.7823,11.0158,47.7627,-0.755,-0.7944,-0.8476,-89.4816
17:26:02:568,-1.707,0.2221,11.7437,48.0672,-0.2844,-0.4338,-0.3741,-89.4816
17:26:02:587,-0.3674,1.1534,10.8064,48.1831,0.0621,-0.1334,-0.2089,-89.4816
17:26:02:607,-0.0478,2.0608,10.6328,47.8968,0.3535,0.0123,-0.3325,-89.4816
17:26:02:628,-0.2489,2.9156,10.859,48.9682,0.8302,0.2677,-0.6854,-89.4816
17:26:02:648,-0.936,2.2739,8.6575,47.6721,1.0733,0.3396,-0.9432,-89.4816
17:26:02:668,-1.2832,2.0512,6.5818,47.9978,0.9548,0.3394,-1.0329,-89.4816
17:26:02:692,-1.9967,1.394,5.2267,46.5406,0.5252,0.3599,-0.9847,-89.3776
17:26:02:709,-2.3977,1.0972,5.4038,47.143,0.0227,0.4523,-0.8215,-89.2342
17:26:02:728,-2.4539,0.9475,7.2186,47.4615,-0.1845,0.5918,-0.639,-89.0501
17:26:02:748,-2.697,0.7332,8.1512,47.1976,-0.1747,0.6536,-0.4401,-88.8341
17:26:02:771,-2.9232,0.8446,8.3188,47.9125,-0.1294,0.5596,-0.246,-88.596
17:26:02:792,-3.2943,1.339,8.8012,48.4354,-0.0375,0.3143,-0.1053,-88.3389
17:26:02:809,-3.3685,1.7831,9.4237,47.9257,0.0991,0.0563,-0.0404,-88.0798
17:26:02:828,-3.1171,2.1159,9.4488,48.3214,0.1689,-0.0878,-0.0281,-87.8241
17:26:02:848,-2.588,2.2619,8.9568,48.2151,0.0187,-0.1667,-0.0713,-87.5735
17:26:02:868,-2.1236,2.226,9.1256,47.123,-0.2559,-0.1834,-0.1682,-87.3279
17:26:02:890,-2.6203,1.9196,10.1946,46.9216,-0.4788,-0.1853,-0.1509,-87.0865
17:26:02:908,-3.9132,1.6873,12.0597,46.2365,-0.4298,-0.0647,0.1567,-86.8498
17:26:02:928,-4.8314,2.4559,13.2616,47.723,-0.1747,0.1958,0.6728,-86.6187
17:26:02:949,-2.5246,3.0305,11.922,48.3785,-0.1651,0.1037,0.8087,-86.3993
17:26:02:971,-0.596,2.1314,13.9859,46.0227,-0.3499,-0.14,0.3477,-86.2045
17:26:02:997,-2.0781,0.5561,15.2943,46.9374,-0.152,-0.2519,-0.3014,-86.0441
17:26:03:009,-3.2464,-0.3214,13.106,46.8757,0.5556,-0.1225,-0.5432,-85.9119
17:26:03:028,-3.8198,-0.6147,8.824,46.8714,1.2144,0.2413,-0.4529,-85.7874
17:26:03:048,-3.7899,-0.0808,5.8192,49.5818,1.252,0.2424,-0.2049,-85.6489
17:26:03:071,-3.4846,0.4555,5.5283,48.3899,0.7306,0.1183,-0.0968,-85.4871
17:26:03:088,-3.7037,0.258,6.2873,46.4316,0.1188,-0.0367,-0.2537,-85.3029
17:26:03:117,-3.8258,-0.2688,6.6033,48.0588,-0.2761,-0.1331,-0.3474,-84.9076
17:26:03:140,-3.5541,-0.3537,6.5279,47.739,-0.8199,0.0656,-0.1149,-84.7039
17:26:03:157,-3.3446,-0.5944,6.9218,47.91,-1.0157,0.1806,-0.0148,-84.5015
17:26:03:175,-3.4739,-0.7703,8.0734,46.7151,-0.9318,0.2227,0.1474,-84.3083
17:26:03:194,-3.4655,-0.7332,8.5582,46.5129,-0.6175,0.1489,0.3983,-84.1301
17:26:03:214,-3.1794,-0.6351,7.9417,46.7925,-0.3353,-0.0631,0.6784,-83.9805
17:26:03:235,-2.7293,-0.0521,7.5036,47.2207,-0.1896,-0.2141,0.8084,-83.8564
17:26:03:256,-2.0721,0.4579,7.3635,46.7925,-0.1645,-0.2769,0.7389,-83.7613
17:26:03:273,-1.8123,0.8182,7.4281,47.8159,-0.213,-0.3078,0.5916,-83.7613
17:26:03:298,-1.9212,0.9535,8.0578,47.3492,-0.2484,-0.196,0.4864,-83.7613
17:26:03:313,-2.3163,1.0924,8.3834,47.3167,-0.2916,0.0158,0.4872,-83.7613
17:26:03:332,-2.6287,1.321,8.6911,46.9967,-0.3592,0.2307,0.5317,-83.7613
17:26:03:354,-2.776,1.406,9.3423,47.2888,-0.3832,0.3772,0.5844,-83.7613
17:26:03:372,-2.6323,1.3976,9.632,47.0226,-0.4013,0.3705,0.6209,-83.7613
17:26:03:391,-2.2349,1.4084,9.8559,47.0054,-0.4886,0.24,0.5993,-83.7613
17:26:03:411,-2.4085,1.5317,10.8267,47.1924,-0.5677,0.1553,0.5474,-83.8547
17:26:03:430,-2.3223,1.4287,12.2932,47.9213,-0.4703,0.0669,0.48,-83.9708
17:26:03:450,-2.576,1.4778,13.6052,47.3342,-0.1763,0.0334,0.5184,-84.1068
17:26:03:470,-2.6742,2.1291,13.6662,47.4744,0.1021,0.0997,0.5458,-84.2603
17:26:03:490,-1.7932,2.2775,12.2955,47.3397,0.0648,-0.1198,0.3842,-84.4284
17:26:03:511,-0.9169,2.657,11.9771,48.7839,-0.1632,-0.4969,-0.0302,-84.6075
17:26:03:531,-0.013,1.1043,13.2652,46.4956,-0.2847,-0.7003,-0.548,-84.7932
17:26:03:550,-0.0609,-0.9307,15.2691,47.0083,0.0826,-0.3523,-0.8161,-84.9741
17:26:03:573,-0.9923,-1.831,15.2512,47.4546,0.7987,0.4358,-0.8433,-85.1439
17:26:03:592,-1.428,-2.3649,11.5821,47.7552,1.1343,0.8382,-0.6803,-85.3086
17:26:03:611,-1.2185,-2.2428,7.1935,47.1703,0.8043,0.5734,-0.5725,-85.447
17:26:03:629,-1.1778,-1.3461,5.7474,48.0004,0.1439,0.1346,-0.7147,-85.447
17:26:03:649,-1.215,-0.993,6.8667,46.584,-0.3067,-0.3296,-0.9424,-85.447
17:26:03:671,-2.1092,-1.2216,8.7701,44.3638,-0.3046,-0.4916,-0.8297,-85.447
17:26:03:689,-2.6551,-0.7332,9.468,46.4922,-0.0298,-0.3435,-0.4276,-85.447
17:26:03:709,-1.7034,0.4998,8.9233,44.4133,0.261,-0.258,-0.1043,-85.447
17:26:03:730,-0.7589,1.6287,8.0027,47.6633,0.3857,-0.2607,-0.0832,-85.447
17:26:03:748,-0.2166,2.548,8.077,46.8323,0.4826,-0.1736,-0.4268,-85.447
17:26:03:770,-0.6487,2.4211,7.8375,45.8293,0.5822,0.0326,-0.8425,-85.447
17:26:03:792,-1.6603,1.6502,7.0319,45.2245,0.5766,0.1164,-0.9506,-85.447
17:26:03:808,-1.9907,1.1055,6.31,46.2578,0.4467,0.1332,-0.8979,-85.3439
17:26:03:829,-2.4683,0.9751,6.152,45.7108,0.2259,0.133,-0.7557,-85.209
17:26:03:851,-2.5461,0.9679,7.0283,48.3517,0.0927,0.1271,-0.6212,-85.0397
17:26:03:870,-2.7999,0.9427,8.1272,45.3399,0.1044,0.0874,-0.4646,-84.8421
17:26:03:893,-3.2021,1.1247,8.5941,43.773,0.1564,0.0746,-0.2742,-84.6227
17:26:03:985,-3.5194,1.3725,9.0825,44.9101,0.2118,0.0259,-0.0971,-84.3882
17:26:03:986,-3.748,1.6718,9.298,45.2645,0.1947,-0.0034,0.0433,-84.1338
17:26:03:987,-4.0557,2.0141,9.4333,44.5024,0.0427,0.1615,0.2387,-83.887
17:26:03:988,-4.0748,2.0919,9.4201,45.2388,-0.2045,0.3026,0.4055,-83.6416
17:26:03:989,-3.2117,1.8453,9.869,45.7671,-0.4769,0.256,0.3351,-83.4027
17:26:04:007,-3.1303,1.7017,11.7688,45.9992,-0.5041,-0.0154,0.198,-83.1778
17:26:04:027,-4.3214,1.4742,13.7141,44.1691,-0.2085,-0.221,0.3253,-82.9759
17:26:04:048,-5.242,1.6957,14.4946,43.6059,0.2496,-0.2487,0.6933,-82.7972
17:26:04:068,-4.0246,1.9267,12.8163,44.1029,0.4094,-0.5408,0.936,-82.6362
17:26:04:088,-1.8231,2.1279,11.9747,44.2087,0.3063,-0.8956,0.7237,-82.4937
17:26:04:111,-0.2405,1.6514,13.0461,45.4959,0.3593,-0.9155,0.0478,-82.3875
17:26:04:128,-1.3323,0.4854,13.841,45.1706,0.779,-0.5467,-0.4116,-82.3875
17:26:04:148,-3.2141,-0.2221,11.5306,46.5666,1.1042,-0.1121,-0.4012,-82.3875
17:26:04:169,-3.4272,-0.6782,7.6975,46.7895,0.8421,0.0504,-0.3091,-82.3875
17:26:04:193,-3.584,-0.8027,5.399,46.2457,0.1372,0.0989,-0.2318,-82.2805
17:26:04:208,-4.0341,-0.7213,5.3176,47.1743,-0.5536,0.1809,-0.0974,-82.1529
17:26:04:227,-4.7248,-0.7464,6.4932,44.6769,-0.9169,0.3274,0.1855,-82.0141
17:26:04:247,-4.4387,-0.9511,6.5902,44.836,-1.1209,0.5383,0.5168,-81.8759
17:26:04:270,-3.1423,-1.0696,6.334,45.3194,-1.257,0.5918,0.8561,-81.7513
17:26:04:288,-1.6351,-0.8266,6.6357,45.172,-1.2506,0.579,1.0206,-81.6541
17:26:04:308,-1.0342,-0.2053,7.6532,46.7269,-1.0253,0.382,0.9703,-81.6541
17:26:04:327,-1.1024,0.3286,8.1021,46.3395,-0.6306,0.0959,0.8401,-81.6541
17:26:04:347,-1.2844,0.416,7.8076,45.6925,-0.266,-0.2841,0.7583,-81.6541
17:26:04:368,-0.9456,0.6746,7.3503,46.2198,-0.1217,-0.5645,0.6118,-81.6541
17:26:04:389,-1.4304,1.2025,7.9142,45.983,-0.1571,-0.5605,0.3762,-81.7597
17:26:04:408,-2.0038,1.1055,8.5223,45.9543,-0.3749,-0.2825,0.2675,-81.8874
17:26:04:427,-2.6251,0.9762,9.8307,45.1246,-0.6791,0.0613,0.2968,-82.0291
17:26:04:447,-2.7568,0.8051,10.932,45.0953,-0.8535,0.4176,0.4164,-82.1791
17:26:04:467,-2.6503,0.7404,12.3506,45.9158,-0.8863,0.6155,0.5463,-82.3384
17:26:04:488,-2.6443,0.7883,13.0425,45.9157,-0.6932,0.5958,0.6049,-82.5126
17:26:04:508,-2.6036,0.8613,13.0808,45.2178,-0.3531,0.3876,0.6047,-82.707
17:26:04:528,-2.2061,0.9272,13.1144,44.9631,-0.0229,0.0275,0.5698,-82.9225
17:26:04:547,-2.7029,1.1941,13.8925,47.0304,0.2203,-0.3203,0.4691,-83.1574
17:26:04:567,-3.0597,1.8418,14.2372,45.5283,0.4837,-0.4876,0.4419,-83.4156
17:26:04:587,-1.9308,2.0249,13.0964,46.4956,0.7556,-0.4085,0.4976,-83.6785
17:26:04:608,-0.3363,2.1626,12.286,47.9626,0.8126,-0.4226,0.4414,-83.9431
17:26:04:627,1.1182,0.5094,12.183,45.4365,0.6672,-0.5062,0.0326,-84.2087
17:26:04:647,-0.2513,-0.8589,12.59,45.3578,0.5348,-0.4601,-0.585,-84.4728
17:26:04:667,-1.7249,-2.0596,11.1379,47.7004,0.7106,-0.1105,-0.8817,-84.7235
17:26:04:688,-2.4037,-2.2918,8.721,47.4314,0.925,0.4709,-0.8422,-84.9415
17:26:04:710,-1.5226,-1.965,6.006,46.7923,0.9199,0.8648,-0.5541,-85.1162
17:26:04:728,-1.2413,-0.8242,5.089,46.2028,0.6248,0.7628,-0.3701,-85.2497
17:26:04:747,-1.7752,-0.4016,6.1317,46.4751,0.155,0.1218,-0.5149,-85.3507
17:26:04:768,-2.6922,-0.4411,8.0566,46.2193,-0.1837,-0.6306,-0.7219,-85.3507
17:26:04:789,-2.2169,0.1478,9.3195,46.7923,-0.2561,-1.0974,-0.5298,-85.3507
17:26:04:808,-0.3016,1.0217,9.5614,47.0172,-0.1313,-1.1435,-0.1128,-85.3507
17:26:04:828,1.0368,2.2332,9.6356,45.133,-0.0231,-0.8221,0.1485,-85.3507
17:26:04:848,0.716,3.1717,10.2736,46.2044,0.0219,-0.3129,0.0992,-85.3507
17:26:04:868,-0.0598,3.0281,10.0689,45.5415,0.183,0.1127,-0.2649,-85.3507
17:26:04:889,-1.3562,2.1051,8.2769,46.1256,0.4743,0.4347,-0.703,-85.3507
17:26:04:908,-1.4196,1.57,6.6009,45.286,0.611,0.5729,-0.7791,-85.3507
17:26:04:928,-1.9009,1.4264,6.0072,46.4759,0.4669,0.6571,-0.7898,-85.3507
17:26:04:947,-1.9859,1.2037,6.7829,47.7623,0.1969,0.5916,-0.7623,-85.3507
17:26:04:970,-2.5928,0.9487,7.9501,45.485,0.0456,0.42,-0.7685,-85.3507
17:26:04:988,-3.2033,0.9475,8.49,47.3885,0.0725,0.281,-0.6926,-85.3507
17:26:05:010,-3.6151,1.2384,9.1388,46.7232,0.1569,0.1266,-0.4806,-85.2231
17:26:05:027,-4.0006,1.5437,9.7912,46.5384,0.2698,-0.0516,-0.2739,-85.0753
17:26:05:047,-4.0246,1.7532,9.4644,45.7229,0.4001,-0.0862,-0.0689,-84.9137
17:26:05:067,-3.4021,1.9315,9.2046,47.0586,0.3793,-0.0641,0.1176,-84.7451
17:26:05:088,-3.2979,1.8777,9.7757,46.0641,-0.0495,-0.1901,0.2225,-84.4086
17:26:05:109,-3.5936,1.916,11.1978,46.4321,-0.1126,-0.311,0.3666,-84.2471
17:26:05:128,-4.1945,2.2212,12.6954,45.8126,0.0222,-0.2511,0.6992,-84.1024
17:26:05:147,-3.0429,2.7635,12.4787,47.155,0.1159,-0.177,0.9176,-83.962
17:26:05:167,-1.9332,3.4207,11.539,46.492,-0.0559,-0.295,0.7269,-83.8397
17:26:05:191,-1.2257,2.9443,11.5952,46.7583,-0.2676,-0.4516,0.1921,-83.743
17:26:05:207,-1.6926,1.09,13.1407,47.2793,-0.0881,-0.4556,-0.1527,-83.743
17:26:05:226,-2.922,0.2233,13.5393,46.4036,0.4733,0.0374,-0.1461,-83.743
17:26:05:247,-3.5146,-0.1167,10.3275,47.2835,0.7407,0.4818,0.0497,-83.743
17:26:05:266,-3.444,-0.0186,6.6009,46.1775,0.4112,0.5878,0.1791,-83.743
17:26:05:288,-3.1794,0.4447,5.1967,46.644,-0.1805,0.4837,0.0675,-83.743
17:26:05:306,-3.517,0.2711,5.7438,46.999,-0.6213,0.2587,-0.0667,-83.743
17:26:05:327,-3.7049,-0.3358,6.6919,48.8821,-0.7659,0.1521,-0.0124,-83.743
17:26:05:347,-3.4559,-0.7679,7.0199,47.5294,-0.7523,0.1404,0.161,-83.743
17:26:05:366,-2.6694,-0.7871,6.9182,47.8881,-0.6831,0.1215,0.4039,-83.743
17:26:05:387,-2.0038,-0.4363,6.8044,46.8041,-0.5986,0.093,0.5692,-83.743
17:26:05:411,-2.0984,0.0868,6.5459,47.1754,-0.5605,0.0459,0.6606,-83.743
17:26:05:426,-2.2756,0.5297,6.5171,48.4501,-0.5797,-0.111,0.7511,-83.743
17:26:05:446,-2.2756,0.9032,6.9433,47.1585,-0.6032,-0.3648,0.8425,-83.743
17:26:05:467,-1.7153,1.1247,7.7394,47.0358,-0.6266,-0.5712,0.8539,-83.743
17:26:05:487,-0.875,1.8537,8.7138,46.8848,-0.6953,-0.6548,0.7117,-83.8519
17:26:05:507,-0.6296,2.2751,10.2365,47.1038,-0.6918,-0.4801,0.443,-83.9932
17:26:05:527,-0.8618,2.0644,11.0613,47.9761,-0.6327,-0.1674,0.2481,-84.1629
17:26:05:547,-1.349,1.7616,11.9029,47.7025,-0.4399,0.0664,0.2297,-84.3541
17:26:05:567,-1.8362,1.6131,12.505,47.9565,-0.1025,0.1745,0.2843,-84.5565
17:26:05:591,-1.7441,1.7388,12.0645,47.4429,0.191,0.0802,0.2454,-84.7646
17:26:05:609,-1.5645,1.6358,11.1643,48.8123,0.2797,-0.1419,0.1389,-84.9778
17:26:05:628,-1.4867,1.4718,11.0242,48.7959,0.2472,-0.2458,0.0297,-85.1937
17:26:05:650,-1.7716,1.2013,11.1092,47.7599,0.1604,-0.2484,0.0126,-85.4073
17:26:05:667,-2.2397,1.5293,11.7042,47.4911,0.0818,-0.1512,0.0976,-85.6146
17:26:05:689,-2.1511,2.1686,12.0753,48.1394,0.019,-0.0535,0.113,-85.814
17:26:05:711,-0.9564,2.2619,11.7449,46.9393,-0.144,-0.2655,-0.1064,-86.0083
17:26:05:729,-0.3279,1.7376,12.5685,47.0972,-0.2354,-0.5331,-0.4039,-86.2006
17:26:05:748,0.6406,0.4938,13.8422,47.7599,-0.0767,-0.6447,-0.7733,-86.3886
17:26:05:769,-0.0705,-0.9691,14.5461,47.5233,0.4432,-0.3967,-1.0332,-86.5637
17:26:05:790,-1.355,-1.5999,9.3782,47.3392,0.9718,0.0219,-0.9648,-86.7165
17:26:05:809,-1.039,-1.4108,6.498,47.1376,1.0571,0.2219,-0.8217,-86.8312
17:26:05:828,-0.5015,-1.0648,6.3112,47.4507,0.6235,0.0283,-0.7906,-86.8312
17:26:05:848,-0.8522,-1.4551,7.482,46.9394,0.0389,-0.2777,-0.9573,-86.8312
17:26:05:867,-1.5537,-1.3425,8.4181,46.6831,-0.3531,-0.3579,-0.9554,-86.8312
17:26:05:894,-1.8303,-0.9523,8.9748,46.5095,-0.5395,-0.2058,-0.7285,-86.8312
17:26:05:911,-1.5238,-0.1718,9.1675,46.3276,-0.5265,0.162,-0.3176,-86.8312
17:26:05:979,-1.1802,0.5178,9.0717,46.0637,-0.3579,0.4475,0.0667,-86.7307
17:26:05:979,-1.1024,1.4659,8.6707,46.0932,-0.1142,0.6475,0.2164,-86.6268
17:26:05:980,-1.185,2.1482,7.8363,46.5007,0.1657,0.7404,0.1541,-86.5312
17:26:05:988,-1.4137,1.6682,6.2598,47.1805,0.399,0.7364,-0.0915,-86.5312
17:26:06:006,-1.6746,1.5652,5.7498,45.829,0.3992,0.5828,-0.3517,-86.5312
17:26:06:026,-2.1116,0.9942,5.927,44.6771,0.2634,0.3047,-0.5216,-86.5312
17:26:06:047,-2.6515,0.8326,6.6333,45.8648,0.068,0.0163,-0.5836,-86.4361
17:26:06:066,-2.8418,0.8398,7.7298,45.7525,-0.1454,-0.0732,-0.4619,-86.326
17:26:06:086,-2.989,0.8194,8.7222,46.3705,-0.31,-0.0162,-0.2723,-86.198
17:26:06:106,-2.9256,0.9176,9.4859,45.6161,-0.4056,0.0672,-0.0603,-86.0562
17:26:06:126,-3.1016,1.1187,10.3155,44.8336,-0.4327,0.0794,0.1122,-85.9092
17:26:06:146,-3.2967,1.2181,11.3163,46.0416,-0.3933,-0.03,0.2028,-85.7651
17:26:06:168,-3.0166,1.0553,11.7556,45.2545,-0.2591,-0.1584,0.2563,-85.6311
17:26:06:193,-2.1451,1.0026,11.6,44.7857,-0.0926,-0.2295,0.3208,-85.5105
17:26:06:209,-1.7656,1.0098,11.7724,45.5067,-0.0306,-0.2442,0.3333,-85.4047
17:26:06:228,-2.2708,1.2516,12.1878,44.5279,-0.0314,-0.3014,0.3221,-85.3138
17:26:06:247,-2.9077,2.08,12.9982,45.7631,-0.0354,-0.3392,0.4641,-85.3138
17:26:06:268,-1.7525,2.1279,12.2261,47.2917,0.0219,-0.2383,0.7117,-85.3138
17:26:06:289,-0.5374,1.9962,12.3626,44.7695,-0.0876,-0.3757,0.7983,-85.3138
17:26:06:308,0.1222,0.9523,13.9559,45.5335,-0.2522,-0.6087,0.5447,-85.3138
17:26:06:327,-1.2497,-0.3442,14.6407,46.7487,-0.0836,-0.4609,-0.0236,-85.3138
17:26:06:346,-2.8873,-0.9415,12.1172,44.8133,0.5284,0.0184,-0.3229,-85.3138
17:26:06:367,-3.5481,-1.6801,8.3403,46.5827,1.0618,0.4944,-0.2854,-85.3138
17:26:06:387,-4.2257,-1.655,6.3495,43.3938,1.0328,0.3098,-0.1599,-85.3138
17:26:06:407,-3.93,-1.3988,6.4369,46.0045,0.5937,-0.2162,-0.035,-85.3138
17:26:06:427,-2.8909,-1.4299,7.0977,44.1016,0.101,-0.5565,0.035,-85.3138
17:26:06:446,-2.2433,-1.3868,7.6197,43.0788,-0.2508,-0.6444,0.1319,-85.3138
17:26:06:468,-1.4496,-1.3449,7.5969,44.7461,-0.4641,-0.4146,0.3117,-85.3138
17:26:06:489,-0.9061,-1.1127,7.5478,43.325,-0.7084,0.3093,0.7439,-85.3138
17:26:06:507,-0.9564,-0.6686,7.9249,45.9326,-0.6721,0.4608,0.9565,-85.3138
17:26:06:528,-0.9145,-0.0844,8.1703,45.066,-0.5342,0.4669,1.1522,-85.3138
17:26:06:546,-0.7995,0.6219,8.1859,45.9824,-0.3819,0.4067,1.3432,-85.3138
17:26:06:566,-0.4967,1.0529,8.4026,45.2206,-0.2623,0.3186,1.4049,-85.3138
17:26:06:585,0.2635,1.4802,8.6157,44.362,-0.1978,0.1774,1.291,-85.4403
17:26:06:611,0.8297,2.0692,9.1544,45.7134,-0.1028,0.1205,1.0116,-85.6122
17:26:06:626,0.6609,2.5504,9.6571,44.2307,0.0243,0.182,0.6214,-85.8292
17:26:06:647,-0.0011,2.645,9.632,43.6389,0.1266,0.2933,0.264,-86.0833
17:26:06:667,-0.7002,2.1889,9.2094,43.8765,0.1257,0.2922,0.1098,-86.3656
17:26:06:686,-1.3885,1.9662,9.456,43.9019,0.0682,0.256,0.0726,-86.6603
17:26:06:706,-2.0002,1.8561,9.6787,43.9019,-0.0516,0.1455,0.0901,-86.9545
17:26:06:727,-1.8961,1.7615,10.2772,45.1921,-0.1989,-0.0164,0.0723,-87.2424
17:26:06:746,-1.7441,1.5078,11.2804,44.532,-0.2737,-0.1445,0.0054,-87.5234
17:26:06:765,-2.1415,1.4862,12.5685,44.0583,-0.1997,-0.1219,0.0403,-87.7995
17:26:06:787,-2.5425,1.9567,12.936,44.3959,-0.0687,-0.0583,0.1349,-88.0739
17:26:06:806,-1.677,2.0429,12.1663,43.1728,-0.0801,-0.2473,0.0923,-88.3429
17:26:06:827,-0.0981,1.837,11.6395,42.4165,-0.2082,-0.6969,-0.1991,-88.6089
17:26:06:846,1.1362,0.5597,11.7712,42.8711,-0.2482,-1.1214,-0.6169,-88.8695
17:26:06:865,1.0607,-0.6889,13.7476,41.3905,0.1524,-1.2271,-1.0204,-89.1223
17:26:06:886,-0.0095,-1.2516,14.0936,40.8108,0.8459,-0.7826,-1.2116,-89.3556
17:26:06:907,-0.2956,-1.7328,11.3223,41.9779,1.2405,-0.3006,-1.1823,-89.5556
17:26:06:926,-0.2716,-1.9471,7.5311,40.8809,0.975,-0.3251,-1.0446,-89.7069
17:26:06:947,-0.347,-1.5149,5.7701,41.5528,0.2786,-0.5195,-0.981,-89.8047
17:26:06:968,-0.0789,-0.7165,6.887,40.9332,-0.3512,-0.7725,-1.0409,-89.8047
17:26:06:988,0.2731,-1.0648,8.3487,41.921,-0.7494,-0.9275,-1.0558,-89.8047
17:26:07:007,-0.0538,-0.7895,9.9085,40.787,-0.8871,-0.5656,-0.9301,-89.8047
17:26:07:026,0.2359,-0.2472,11.1332,41.264,-0.7243,0.1902,-0.7751,-89.8047
17:26:07:046,0.3245,0.3801,11.0972,42.5123,-0.4285,0.6443,-0.5911,-89.8047
17:26:07:066,-0.0777,0.9942,10.865,40.3275,-0.0535,0.7287,-0.3557,-89.6923
17:26:07:087,-0.1423,0.6734,10.1659,41.4745,0.2938,0.9268,-0.3096,-89.562
17:26:07:106,-0.8774,0.7045,9.0694,40.8459,0.534,1.0643,-0.2734,-89.4208
17:26:07:127,-1.3526,0.6949,7.5921,39.0783,0.5697,0.974,-0.1674,-89.273
17:26:07:146,-1.6818,0.8182,6.8835,39.5335,0.428,0.803,-0.042,-89.1163
17:26:07:166,-1.4975,0.9942,6.8846,40.3052,0.2009,0.7929,-0.0148,-88.9524
17:26:07:187,-1.9476,1.4491,8.7689,40.5836,0.0307,0.7753,-0.0891,-88.7866
17:26:07:209,-2.3773,1.2276,9.0562,39.9678,0.0576,0.7338,-0.1663,-88.6226
17:26:07:226,-2.9496,1.3928,9.395,40.4842,0.1447,0.6438,-0.1099,-88.4613
17:26:07:246,-3.1674,1.5353,9.4692,40.8721,0.2464,0.5716,0.0129,-88.3002
17:26:07:265,-3.0992,1.4599,9.5769,40.3041,0.3023,0.4294,0.0768,-88.1376
17:26:07:286,-3.3147,1.2815,9.7373,40.3978,0.2696,0.1628,0.0691,-87.9763
17:26:07:306,-3.0669,1.0505,9.7134,40.3272,0.1723,-0.05,0.1375,-87.8185
17:26:07:325,-3.9372,1.2073,10.8255,41.3488,-0.0705,-0.1584,0.1983,-87.6646
17:26:07:346,-4.9379,1.7831,11.7509,40.783,-0.2375,-0.0801,0.4353,-87.5177
17:26:07:370,-3.2285,1.716,11.7006,38.7521,-0.2604,0.0496,0.8609,-87.3828
17:26:07:385,-1.7393,1.6718,11.4432,39.4492,-0.3187,-0.2932,1.0286,-87.2684
17:26:07:408,-0.6619,1.3019,12.4607,39.0897,-0.4745,-0.6234,0.8973,-87.2684
17:26:07:425,-0.6068,0.4471,13.665,39.8242,-0.4431,-0.8205,0.5123,-87.2684
17:26:07:456,-1.5621,-0.8242,12.1136,39.8382,0.0309,-0.568,0.0217,-87.2684
17:26:07:466,-2.4743,-1.5437,8.739,38.6531,0.5867,0.0344,-0.3597,-87.2684
17:26:07:486,-3.256,-1.1546,6.0048,40.0454,0.7226,0.0936,-0.557,-87.2684
17:26:07:506,-3.0262,-0.149,5.4254,37.9747,0.3457,-0.1091,-0.4843,-87.2684
17:26:07:526,-2.2109,-0.3358,7.0343,40.3844,-0.2892,-0.4239,-0.4614,-87.2684
17:26:07:546,-2.9029,-0.6231,7.5598,39.5082,-0.686,-0.3714,-0.5227,-87.2684
17:26:07:566,-2.1607,-0.7213,7.7861,39.5368,-0.9185,-0.1049,-0.3157,-87.2684
17:26:07:586,-1.4568,-0.8685,7.6867,38.7272,-1.0506,0.2307,-0.0587,-87.2684
17:26:07:608,-1.2808,-0.8134,9.0909,39.5939,-1.1217,0.3119,0.1719,-87.2684
17:26:07:629,-1.0928,-0.592,9.7673,38.7133,-0.8647,0.1037,0.3631,-87.2684
17:26:07:646,-1.3454,-0.234,9.1579,39.0211,-0.3973,-0.0045,0.5163,-87.2684
17:26:07:666,-0.7577,0.3837,8.2805,40.6745,-0.0735,0.0829,0.6475,-87.2684
17:26:07:691,-0.3327,0.5992,8.1691,40.4248,-0.0056,0.0909,0.6164,-87.2684
17:26:07:705,-0.5003,0.8098,9.4153,37.5996,-0.1006,-0.1176,0.3762,-87.2684
17:26:07:725,-1.5298,0.3885,9.9277,39.2773,-0.135,-0.1448,0.0758,-87.2684
17:26:07:745,-2.1882,0.3921,10.1491,39.4448,-0.099,0.0283,0.0419,-87.2684
17:26:07:765,-1.5813,0.6051,10.6639,38.4328,-0.0969,0.2666,0.2308,-87.2684
17:26:07:787,-1.3011,0.6423,10.9404,39.7185,-0.0471,0.4299,0.2904,-87.2684
17:26:07:807,-1.5585,0.7476,11.5054,38.0536,0.0445,0.3543,0.2441,-87.2684
17:26:07:827,-1.7776,0.6626,11.922,37.2111,0.1796,0.2342,0.1969,-87.2684
17:26:07:848,-1.6627,0.5573,12.8941,38.405,0.321,0.1058,0.1639,-87.2684
17:26:07:869,-1.847,0.5166,13.5848,38.2959,0.5122,0.072,0.1365,-87.2684
17:26:07:890,-3.08,0.6255,13.1263,38.3846,0.7923,0.8118,0.3961,-87.2684
17:26:07:906,-2.8634,1.2576,12.3566,38.8603,0.8163,0.7969,0.5778,-87.2684
17:26:07:925,-1.3203,1.5485,11.8442,40.4092,0.7524,0.2898,0.3658,-87.2684
17:26:07:958,-0.0933,1.552,12.2405,39.9012,0.7697,-0.3523,-0.1868,-87.2684
17:26:07:964,0.7746,0.2544,12.9528,39.436,0.9452,-0.4218,-0.8191,-87.3667
17:26:07:985,-0.4775,-0.7236,12.4524,40.825,1.2712,0.0917,-1.0135,-87.4656
17:26:08:005,-1.5358,-1.3473,9.371,41.9424,1.3537,0.6046,-0.854,-87.4656
17:26:08:026,-2.0613,-1.3665,5.9772,41.4908,0.9183,0.9415,-0.5413,-87.4656
17:26:08:046,-1.3921,-0.1323,3.5818,38.4465,0.1308,0.6342,-0.5392,-87.4656
17:26:08:068,-1.0641,0.7404,4.427,39.2844,-0.5715,-0.2937,-1.0367,-87.4656
17:26:08:090,-1.9464,0.4196,7.4485,39.4843,-0.7944,-0.7896,-1.3024,-87.4656
17:26:08:108,-3.1231,-0.4615,8.8694,39.8679,-0.71,-0.8764,-0.9538,-87.3682
17:26:08:126,-2.8849,-0.1359,9.6871,38.936,-0.4748,-0.6564,-0.4116,-87.2478
17:26:08:146,-1.6878,0.7763,9.7768,40.4435,-0.2056,-0.2955,-0.1131,-87.098
17:26:08:166,-0.93,1.649,9.1089,38.9966,-0.0306,-0.2492,-0.2244,-86.9301
17:26:08:186,-0.0897,2.5923,10.1779,38.6738,0.3074,-0.0673,-0.7299,-86.7593
17:26:08:208,-0.9348,1.6191,8.9544,38.1388,0.5822,0.1127,-1.0257,-86.5922
17:26:08:233,-1.8159,0.8338,7.1109,37.2934,0.5263,0.1974,-0.9919,-86.4231
17:26:08:249,-2.8239,0.8194,6.1484,38.3038,0.2554,0.3263,-0.7695,-86.2329
17:26:08:265,-2.7209,1.3605,6.2753,36.8771,0.011,0.3375,-0.6084,-86.0071
17:26:08:291,-2.4935,1.4084,7.2246,39.0421,-0.103,0.3077,-0.6122,-85.7489
17:26:08:306,-3.3889,1.2456,7.81,38.0027,-0.1198,0.1641,-0.528,-85.4698
17:26:08:327,-3.5565,1.0445,8.5187,38.5345,-0.1046,-0.1174,-0.3597,-85.1796
17:26:08:346,-4.1694,1.0493,9.8642,37.1564,-0.0498,-0.1906,-0.1535,-84.8795
17:26:08:366,-4.0616,0.9224,10.7704,39.499,0.0075,-0.0766,0.027,-84.5666
17:26:08:387,-3.681,0.738,10.9739,38.3271,-0.0189,0.1718,0.1895,-84.2563
17:26:08:408,-3.2153,0.7907,11.1403,37.6385,-0.0772,0.3095,0.2579,-83.9537
17:26:08:427,-3.2237,0.8553,11.5126,36.0022,-0.1062,0.2643,0.2928,-83.6636
17:26:08:446,-4.1347,1.4132,12.6403,37.0864,0.0038,0.2781,0.4611,-83.3905
17:26:08:466,-4.9751,1.983,12.3099,36.0685,0.1335,0.2038,0.7517,-83.1355
17:26:08:486,-3.5289,2.3385,11.3103,35.631,0.0238,-0.0117,0.8513,-82.9006
17:26:08:508,-1.0749,3.1214,11.5797,35.3223,-0.1472,-0.0884,0.3767,-82.6904
17:26:08:527,-0.0334,2.299,12.0669,36.5438,-0.2175,0.0911,-0.5437,-82.5125
17:26:08:547,-3.08,-0.0317,12.1459,36.6144,-0.0157,0.427,-0.8936,-82.3641
17:26:08:567,-4.6243,-1.4515,10.5083,35.8663,0.2557,0.7553,-0.7666,-82.2198
17:26:08:587,-5.0912,-2.3469,5.7438,35.6631,0.2531,0.7271,-0.41,-82.0567
17:26:08:608,-4.8541,-1.1809,6.2466,35.7225,-0.0388,0.2989,-0.1131,-81.8682
17:26:08:627,-5.0481,-1.0397,7.069,36,-0.2972,-0.1528,-0.046,-81.6616
17:26:08:646,-4.7069,-1.1402,7.0008,34.3715,-0.3898,-0.3067,0.0734,-81.4519
17:26:08:665,-3.2931,-0.8051,6.8787,34.8334,-0.4317,-0.3571,0.4004,-81.2498
17:26:08:687,-2.2325,-0.4004,7.1815,35.8631,-0.4644,-0.3616,0.646,-81.0587
17:26:08:711,-1.9643,-0.1059,7.5682,34.9651,-0.4578,-0.3467,0.7141,-80.8857
17:26:08:726,-1.8985,0.2448,6.7829,36.1626,-0.3382,-0.2987,0.7431,-80.742
17:26:08:746,-1.4915,0.665,6.9864,35.0415,-0.3083,-0.4636,0.8342,-80.6319
17:26:08:765,-1.2533,1.2348,7.7992,34.5704,-0.3459,-0.6505,0.8419,-80.6319
17:26:08:788,-1.0617,1.7747,8.369,34.5444,-0.3459,-0.6066,0.7381,-80.6319
17:26:08:807,-1.4185,1.9136,8.709,34.3787,-0.3592,-0.4761,0.5019,-80.6319
17:26:08:826,-2.0816,1.6143,8.7964,33.5072,-0.417,-0.2631,0.2784,-80.6319
17:26:08:845,-2.582,1.4958,9.8882,33.0491,-0.5331,-0.041,0.231,-80.6319
17:26:08:865,-2.8286,1.2001,10.8064,33.5896,-0.5249,0.1263,0.2603,-80.6319
17:26:08:886,-2.4444,0.9858,10.9273,34.8414,-0.355,0.1822,0.321,-80.6319
17:26:08:907,-2.4097,0.841,10.8087,34.8414,-0.1637,0.1023,0.2939,-80.6319
17:26:08:941,-2.4827,0.4375,11.0769,32.528,-0.0649,-0.0668,0.1895,-80.7345
17:26:08:945,-2.7089,0.0018,11.3139,34.1445,-0.0045,-0.1989,0.0987,-80.8454
17:26:08:966,-3.0094,0.1155,11.8885,33.0029,0.0152,-0.2865,0.0992,-80.9598
17:26:08:986,-3.2381,0.8996,12.5242,33.082,0.0203,-0.2354,0.2025,-81.074
17:26:09:012,-1.8734,1.3102,11.9807,33.0571,0.0626,-0.0524,0.3501,-81.1878
17:26:09:038,-1.0222,1.4419,12.1399,34.6117,-0.0213,-0.1648,0.2763,-81.3048
17:26:09:044,0.2336,1.3533,12.9216,33.4759,-0.1651,-0.4215,0.0547,-81.4287
17:26:09:065,0.8345,-0.1215,14.1475,31.2684,-0.237,-0.4657,-0.4103,-81.5581
17:26:09:087,-0.9504,-1.5221,13.3502,31.657,0.0067,-0.1065,-0.9781,-81.6873
17:26:09:107,-1.3359,-2.1638,10.3742,31.4774,0.5021,0.4304,-1.1903,-81.8021
17:26:09:127,-1.8374,-2.6246,7.4545,33.4183,0.7668,0.5513,-1.1871,-81.8021
17:26:09:148,-2.1391,-2.3517,6.7075,33.4163,0.5777,-0.0055,-1.0771,-81.8021
17:26:09:167,-1.6447,-1.7232,8.0578,33.4128,0.1809,-0.6495,-0.9259,-81.8021
17:26:09:186,-1.3993,-1.3354,9.2525,32.8938,-0.09,-0.8756,-0.7818,-81.8021
17:26:09:208,-1.4675,-0.9236,9.5805,32.088,-0.1667,-0.6514,-0.5866,-81.8021
17:26:09:227,-0.766,-0.1167,9.6021,32.4152,-0.1233,-0.2378,-0.275,-81.8021
17:26:09:246,-0.632,0.1502,9.541,32.6566,-0.0295,0.1455,-0.1141,-81.6817
17:26:09:265,-0.954,0.738,9.7697,32.7149,0.1183,0.3849,-0.1429,-81.552
17:26:09:286,-1.045,0.732,9.0813,31.5617,0.8416,0.5521,-0.4196,-81.4233
17:26:09:308,-1.7273,0.5968,7.2055,32.5289,0.9926,0.4288,-0.4361,-81.2896
17:26:09:327,-1.3191,0.513,5.6576,32.27,0.828,0.1908,-0.4659,-81.0069
17:26:09:346,-2.0421,0.6195,5.4984,33.736,0.4922,0.0019,-0.4465,-80.8231
17:26:09:365,-2.6203,0.7655,6.5746,33.5123,0.2653,0.0906,-0.3306,-80.6447
17:26:09:385,-3.4104,0.7488,6.826,32.4573,0.0291,0.2041,-0.0633,-80.4477
17:26:09:409,-3.4775,0.9296,7.7549,32.9346,-0.1688,0.2488,0.218,-80.2362
17:26:09:426,-3.1818,1.2228,8.946,32.0873,-0.2476,0.2789,0.3956,-80.0169
17:26:09:447,-2.8681,1.5293,10.1683,33.0988,-0.1901,0.2371,0.4491,-79.8016
17:26:09:464,-2.7808,1.558,11.509,32.2673,0.048,0.1407,0.4798,-79.6021
17:26:09:485,-2.1631,1.7268,11.8969,33.4206,0.3377,-0.0023,0.4955,-79.4246
17:26:09:506,-1.2556,2.3373,11.4229,33.2169,0.4871,-0.1661,0.3224,-79.2686
17:26:09:527,-1.2126,2.7863,11.4576,32.1625,0.4744,-0.2508,0.0265,-79.1326
17:26:09:547,-2.8454,2.5002,12.0214,32.6429,0.4781,-0.1248,0.0249,-79.0125
17:26:09:566,-4.6087,2.748,12.1866,33.1264,0.4996,0.1412,0.4222,-78.9008
17:26:09:585,-3.7851,3.0999,10.3526,31.1884,0.2243,0.1085,0.606,-78.7877
17:26:09:605,-2.7748,2.9395,9.6811,33.1102,-0.2503,-0.1797,0.4068,-78.6728
17:26:09:625,-1.4005,1.7603,11.1786,33.2935,-0.4024,-0.3733,-0.1496,-78.5694
17:26:09:645,-1.7836,-0.246,12.614,32.9147,-0.1014,-0.5105,-0.5498,-78.5694
17:26:09:665,-2.4432,-1.1666,12.5828,32.7289,0.4528,-0.1467,-0.6074,-78.5694
17:26:09:685,-3.2404,-1.7328,9.9013,32.1693,0.7505,0.1567,-0.4199,-78.5694
17:26:09:705,-3.9467,-1.7687,6.832,34.7104,0.5641,0.1135,-0.1251,-78.4735
17:26:09:725,-3.5505,-0.7452,5.6947,32.9874,0.1228,-0.1435,-0.0316,-78.3543
17:26:09:747,-3.2153,-0.3011,5.9413,33.7828,-0.2849,-0.3826,-0.1011,-78.2214
17:26:09:767,-3.0477,-0.5632,6.1819,33.0979,-0.6106,-0.4476,0.0025,-78.087
17:26:09:786,-2.3977,-0.574,6.5686,32.7667,-0.8855,-0.3829,0.2142,-77.9552
17:26:09:812,-1.7536,-0.3585,7.6999,33.0582,-0.9606,-0.2511,0.3794,-77.8301
17:26:09:830,-1.677,-0.2089,8.7701,34.0348,-0.7904,-0.1691,0.5522,-77.7213
17:26:09:845,-1.2604,-0.0605,8.788,34.0441,-0.5427,-0.1837,0.7469,-77.7213
17:26:09:865,-0.5948,0.4914,8.7976,34.1529,-0.3297,-0.1848,0.8079,-77.7213
17:26:09:886,-0.6092,1.0062,8.5905,34.26,-0.2069,-0.2213,0.7876,-77.7213
17:26:09:909,-0.4273,1.7879,8.8778,32.0576,-0.1203,-0.2766,0.6902,-77.7213
17:26:09:927,-0.1854,2.3936,9.0107,32.6337,-0.1113,-0.2497,0.487,-77.7213
17:26:09:946,-0.0442,2.5708,9.638,34.0091,-0.1315,-0.1065,0.2331,-77.7213
17:26:09:991,-0.5087,2.2488,10.713,32.0844,-0.0218,0.1117,0.0885,-77.7213
17:26:09:992,-1.3754,1.9567,11.1367,32.9552,0.1692,0.2256,0.0875,-77.7213
17:26:10:019,-1.4903,1.9279,10.6304,33.2213,0.3257,0.2315,0.0576,-77.9092
17:26:10:033,-1.3957,1.7196,10.1312,33.4922,0.3404,0.1458,-0.0073,-78.0003
17:26:10:053,-1.2353,1.5844,10.883,33.5926,0.1662,0.0246,-0.0806,-78.0003
17:26:10:074,-2.1439,1.5305,11.9328,33.1054,0.0126,-0.0636,-0.2015,-78.0003
17:26:10:092,-3.1447,2.1865,12.7169,32.572,0.0158,-0.0926,-0.2041,-78.0003
17:26:10:113,-2.588,2.5708,11.8538,32.7472,0.1484,-0.0295,-0.0707,-78.0003
17:26:10:133,-1.2197,2.4211,11.5533,33.0465,-0.0689,-0.523,-0.2034,-78.0003
17:26:10:153,0.8022,1.7352,12.4883,32.9552,-0.1992,-0.6679,-0.6252,-78.0003
17:26:10:174,1.5204,-0.167,13.8637,33.0061,0.0014,-0.4194,-1.1115,-78.0003
17:26:10:191,-0.1878,-1.2875,14.0744,32.64,0.501,0.1812,-1.2774,-78.0003
17:26:10:210,-1.0282,-1.9806,11.6371,33.6862,0.8384,0.7396,-1.2127,-78.0003
17:26:10:230,-1.7405,-2.3349,8.1344,34.2352,0.6821,0.8467,-0.9783,-78.0003
17:26:10:251,-1.7848,-2.317,5.6983,32.4623,0.1191,0.4789,-0.7829,-78.0003
17:26:10:275,-2.1355,-1.5365,6.4393,32.7949,-0.4026,-0.0473,-0.6342,-77.8794
17:26:10:290,-2.7065,-1.1917,8.9245,34.5304,-0.4394,-0.2316,-0.299,-77.7298
17:26:10:309,-3.08,-0.507,9.9696,31.7111,-0.1728,-0.2002,0.2393,-77.5624
17:26:10:333,-1.3993,0.4447,9.9289,32.7785,0.1167,-0.1001,0.5735,-77.3885
17:26:10:349,0.1557,1.2252,9.0598,31.9882,0.2336,-0.0055,0.5525,-77.222
17:26:10:374,0.9817,2.7492,9.4117,31.4636,0.4027,0.1207,0.0976,-77.0755
17:26:10:392,0.795,3.1454,9.1388,32.2105,0.6475,0.2613,-0.5522,-76.9516
17:26:10:408,-1.1024,2.1518,7.9357,34.1476,0.8227,0.3186,-0.7882,-76.8414
17:26:10:432,-1.5262,1.345,6.6464,33.9402,0.8062,0.3109,-0.7229,-76.7214
17:26:10:447,-1.9452,1.1498,5.3847,32.144,0.5329,0.2216,-0.541,-76.5724
17:26:10:467,-1.7501,1.6454,5.83,31.5514,0.2262,0.0943,-0.4819,-76.3919
17:26:10:486,-2.2241,1.5676,6.9086,32.4863,0.0403,0.0951,-0.4252,-76.1888
17:26:10:506,-2.9184,1.5401,7.5287,30.8262,-0.1012,0.1141,-0.2233,-75.9707
17:26:10:530,-2.9376,1.7855,8.4385,33.2992,-0.1597,0.0911,-0.0409,-75.7417
17:26:10:547,-2.6203,2.1458,9.0897,32.8202,-0.1664,-0.0119,0.0451,-75.507
17:26:10:568,-2.8478,2.1733,10.1731,32.2846,-0.0873,-0.1382,0.1583,-75.28
17:26:10:586,-2.6742,2.6175,11.2373,31.6978,0.0847,-0.2215,0.2851,-75.0635
17:26:10:606,-1.5262,2.7575,11.3678,32.2846,0.1644,-0.2242,0.2284,-74.8597
17:26:10:629,-1.3945,2.8868,11.6814,32.421,0.1779,-0.1512,0.0808,-74.6702
17:26:10:649,-2.7089,2.7527,12.2752,33.031,0.2403,-0.0455,0.1418,-74.4921
17:26:10:666,-4.325,3.0233,12.6726,32.7418,0.3849,0.1548,0.4886,-74.3201
17:26:10:687,-2.7341,2.9646,11.0518,32.3339,0.2821,0.0134,0.5221,-74.155
17:26:10:709,-1.3981,2.724,10.8506,32.7969,0.0491,-0.2585,0.0811,-73.9948
17:26:10:735,-1.1898,1.6083,12.353,32.3339,0.0581,-0.3416,-0.5829,-73.8659
17:26:10:748,-3.4464,0.0449,12.7684,32.4627,0.306,-0.2274,-0.7695,-73.7408
17:26:10:776,-4.4651,-1.0349,11.3857,33.4107,0.4906,0.0304,-0.6108,-73.6218
17:26:10:783,-5.0505,-1.8537,8.7653,32.6138,0.2765,0.0853,-0.2686,-73.4858
17:26:10:803,-5.2468,-1.7101,7.4688,32.5648,-0.184,0.0762,0.1181,-73.3241
17:26:10:823,-4.6123,-1.054,7.8723,32.5527,-0.5566,0.1335,0.3991,-73.1406
17:26:10:845,-4.0569,-1.0923,8.0949,33.8326,-0.7781,0.3165,0.6521,-72.9509
17:26:10:863,-3.2129,-0.9535,7.8519,31.5211,-0.8956,0.5055,0.9112,-72.7732
17:26:10:883,-2.0745,-0.5979,7.7047,31.3473,-0.9153,0.5082,1.0396,-72.6211
17:26:10:903,-1.4891,-0.1897,8.308,31.9755,-0.7193,0.4089,1.0398,-72.5032
17:26:10:927,-1.8542,0.1311,8.1153,34.0543,-0.4301,0.2975,1.1091,-72.5032
17:26:10:946,-1.9775,0.5728,7.2258,33.6377,-0.2684,0.2051,1.2425,-72.5032
17:26:10:964,-1.5453,1.1295,6.7206,31.9489,-0.2594,0.1724,1.2987,-72.5032
17:26:10:984,-1.0737,1.3701,7.0774,32.0266,-0.2482,0.0872,1.2334,-72.5032
17:26:11:004,-0.6906,1.892,7.6975,32.0859,-0.1848,-0.083,1.0856,-72.6285
17:26:11:024,-0.4548,2.3517,7.9118,33.7688,-0.197,-0.2079,0.8494,-72.7937
17:26:11:046,-0.7995,2.4642,8.6671,30.623,-0.254,-0.2404,0.6238,-72.9962
17:26:11:064,-1.1802,2.2583,9.8965,32.2791,-0.1813,-0.1531,0.5447,-73.2278
17:26:11:087,-1.2377,2.1913,10.6771,32.2791,-0.0194,0.0126,0.5445,-73.4796
17:26:11:103,-1.0641,2.4559,10.4999,31.8262,0.061,0.044,0.4742,-73.7446
17:26:11:127,-0.8439,2.493,10.0582,32.2634,-0.0495,-0.2,0.3072,-74.0214
17:26:11:147,-0.7289,2.6654,11.193,32.7064,-0.1297,-0.4449,0.1077,-74.3074
17:26:11:165,-1.0054,2.4259,12.535,31.4429,-0.0562,-0.3797,-0.0119,-74.5974
17:26:11:185,-1.9081,2.3529,13.0808,32.1632,0.0877,-0.1225,0.1258,-74.8872
17:26:11:206,-1.7812,3.1837,12.7385,32.8782,0.1455,0.0238,0.231,-75.1701
17:26:11:229,-0.9324,3.5225,11.9903,32.3276,0.0099,-0.1845,0.1021,-75.4455
17:26:11:246,0.8943,4.206,12.936,32.3094,-0.049,-0.6245,-0.4715,-75.7181
17:26:11:267,2.2507,2.0524,14.3498,31.721,0.151,-0.8258,-1.2854,-75.9887
17:26:11:284,0.3844,-0.0293,14.5233,30.6704,0.6142,-0.4303,-1.5959,-76.2475
17:26:11:305,-0.4608,-0.9583,12.0525,32.2751,0.9548,0.105,-1.5639,-76.4682
17:26:11:325,-1.1695,-1.406,8.3667,33.0989,0.7535,0.4768,-1.3126,-76.6265
17:26:11:345,-1.009,-1.3186,6.2717,33.4012,0.2054,0.4944,-1.1397,-76.7168
17:26:11:364,-0.6236,-0.7093,7.6292,33.9388,-0.1406,0.2597,-1.2007,-76.7168
17:26:11:384,-0.948,-1.0792,8.1428,32.1044,-0.2724,0.0901,-1.1544,-76.7168
17:26:11:404,-1.1659,-0.6087,8.7437,33.0926,-0.3499,-0.0143,-0.9938,-76.7168
17:26:11:426,-1.3514,0.2987,9.0741,33.586,-0.2969,0.0286,-0.7552,-76.6232
17:26:11:447,-1.4735,0.8613,8.5989,33.6415,-0.1105,0.2195,-0.5586,-76.5009
17:26:11:465,-1.9212,1.2504,7.8854,32.6068,0.0698,0.2581,-0.4848,-76.3561
17:26:11:484,-1.6495,1.5616,7.4712,31.209,0.1979,0.1625,-0.4015,-76.1964
17:26:11:504,-1.2592,1.7723,7.2115,31.7502,0.2677,0.0469,-0.4119,-76.0253
17:26:11:526,-1.4388,1.6454,6.65,32.8384,0.2853,0.0406,-0.5477,-75.8426
17:26:11:547,-2.2205,1.3916,6.9289,33.2932,0.1646,0.0043,-0.6774,-75.6497
17:26:11:564,-2.697,1.1355,7.6616,33.4769,-0.0183,-0.0465,-0.6438,-75.4444
17:26:11:584,-2.843,1.1977,8.4397,32.1601,-0.1264,-0.0199,-0.4915,-75.2215
17:26:11:604,-2.7987,1.2851,9.553,34.6392,-0.1882,-0.0082,-0.3069,-74.9818
17:26:11:630,-3.165,1.2432,10.288,33.8095,-0.1139,0.0603,-0.1815,-74.7308
17:26:11:648,-3.4332,1.3749,10.4556,33.8249,0.0557,0.0818,-0.0393,-74.4771
17:26:11:666,-3.3386,1.7831,10.6148,33.5044,0.2278,0.0184,0.1597,-74.2251
17:26:11:684,-2.6802,2.0512,9.954,33.7683,0.3457,0.0717,0.3027,-73.9773
17:26:11:704,-2.2564,2.1614,9.7948,33.0669,0.2855,0.1263,0.3021,-73.7369
17:26:11:727,-2.2911,2.2799,10.6615,34.2783,0.0957,0.0304,0.2076,-73.5081
17:26:11:746,-3.7301,2.0129,11.7473,32.6091,-0.0285,-0.0415,0.0763,-73.2925
17:26:11:766,-5.066,2.4463,12.2943,33.9078,0.0003,0.0049,0.2054,-73.0897
17:26:11:784,-3.3697,2.5911,10.4221,34.7707,0.1337,0.1503,0.6092,-72.897
17:26:11:808,-1.762,2.5983,11.2469,35.1006,-0.0676,-0.1557,0.7093,-72.7133
17:26:11:825,-0.7984,1.9854,13.094,33.8311,-0.2964,-0.3824,0.468,-72.5477
17:26:11:847,-1.9715,0.3921,13.8793,34.1071,-0.1747,-0.2854,-0.0579,-72.4212
17:26:11:864,-3.1339,-0.2723,11.7281,33.1227,0.2935,0.0557,-0.2992,-72.318
17:26:11:884,-3.0405,-0.72,8.3188,36.0338,0.6669,0.4203,-0.1948,-72.2181
17:26:11:905,-3.2907,-0.3214,6.747,35.167,0.4994,0.4832,-0.12,-72.1082
17:26:11:927,-3.5996,-0.2388,6.9517,34.7073,0.0136,0.4682,-0.1312,-71.9869
17:26:11:945,-3.6451,-0.6937,7.9213,35.664,-0.3997,0.4121,-0.161,-71.859
17:26:11:968,-3.1566,-0.8302,8.2852,34.3451,-0.5584,0.4278,-0.0654,-71.7305
17:26:12:008,-2.6467,-0.89,7.8327,34.6812,-0.531,0.5639,0.0774,-71.6059
17:26:12:009,-2.4779,-0.4411,7.7454,34.8994,-0.4948,0.6411,0.2358,-71.4903
17:26:12:024,-2.6395,0.064,7.8052,35.3894,-0.3808,0.4813,0.3959,-71.3878
17:26:12:044,-2.7077,0.4639,7.0834,35.6145,-0.1707,0.1969,0.5652,-71.3878
17:26:12:068,-2.0038,1.2025,6.2262,35.2202,-0.0372,0.0097,0.7831,-71.3878
17:26:12:085,-1.124,1.655,6.4776,33.8348,-0.2527,-0.491,0.7378,-71.3878
17:26:12:104,-0.8355,2.2631,7.7334,35.1919,-0.3369,-0.6836,0.468,-71.3878
17:26:12:126,-1.1276,2.5277,9.0311,34.76,-0.3459,-0.5664,0.207,-71.3878
17:26:12:144,-1.5609,2.1362,9.4225,34.3012,-0.3795,-0.3134,0.1112,-71.3878
17:26:12:163,-1.6483,2.0417,10.355,36.2803,-0.3193,-0.1288,0.0941,-71.3878
17:26:12:183,-1.6674,1.8382,11.1679,35.57,-0.1243,-0.0497,0.064,-71.3878
17:26:12:203,-1.6878,1.7975,11.7209,36.6662,0.1598,-0.0287,0.0142,-71.3878
17:26:12:224,-1.8817,1.8681,11.2385,36.8766,0.3867,-0.1254,-0.0457,-71.3878
17:26:12:246,-1.9093,1.8549,10.8123,35.0418,0.4581,-0.331,-0.1096,-71.3878
17:26:12:265,-1.6076,1.5856,10.7968,35.4217,0.432,-0.3922,-0.1765,-71.3878
17:26:12:283,-1.8351,1.6861,10.9404,36.7051,0.3351,-0.2338,-0.1661,-71.3878
17:26:12:304,-2.3618,2.2009,11.0254,36.8366,0.199,-0.0095,-0.103,-71.3878
17:26:12:331,-1.6375,2.4104,10.4676,36.5062,-0.0628,-0.0753,-0.173,-71.3878
17:26:12:346,-0.4285,2.159,11.0984,36.7056,-0.3222,-0.3312,-0.4316,-71.3878
17:26:12:365,0.4706,1.2528,12.9575,35.3436,-0.2878,-0.3177,-0.797,-71.3878
17:26:12:384,0.1402,-0.404,14.1247,37.0675,0.1596,0.0435,-1.0055,-71.3878
17:26:12:404,-0.8905,-0.9176,12.6199,36.1672,0.6815,0.4685,-1.0071,-71.3878
17:26:12:424,-1.0677,-1.2204,9.2621,37.0003,0.7348,0.5292,-0.9251,-71.3878
17:26:12:446,-1.1264,-1.1654,6.577,35.1964,0.3148,0.0624,-0.907,-71.3878
17:26:12:467,-0.942,-0.6734,6.7984,37.1988,-0.1965,-0.5898,-1.0468,-71.2952
17:26:12:484,-1.604,-0.9355,8.551,38.0927,-0.4788,-0.8234,-0.9229,-71.1682
17:26:12:505,-2.2253,-0.4423,10.3024,37.2902,-0.4157,-0.6292,-0.4856,-71.0137
17:26:12:524,-1.3287,0.5585,10.7573,36.7255,-0.1677,-0.3714,-0.1096,-70.834
17:26:12:544,0.1378,1.3773,10.0426,36.0895,-0.0468,-0.1975,-0.0862,-70.6491
17:26:12:564,0.467,2.3996,10.1779,36.698,0.0973,-0.0167,-0.3112,-70.4585
17:26:12:584,0.3593,2.7827,10.2138,37.4349,0.3977,0.2043,-0.7733,-70.272
17:26:12:604,-0.7469,1.9339,8.8982,37.5991,0.6139,0.2709,-1.0609,-70.0888
17:26:12:625,-1.4628,1.2552,7.8316,37.3997,0.7441,0.2376,-1.1158,-69.8996
17:26:12:643,-1.956,0.7033,6.0778,37.6606,0.5886,0.0885,-0.9932,-69.6871
17:26:12:664,-2.3714,0.7428,6.152,38.4409,0.3202,0.0448,-0.8308,-69.4385
17:26:12:684,-2.4528,0.7979,7.3288,37.3213,0.232,0.1924,-0.7027,-69.1513
17:26:12:704,-3.1207,0.817,7.1803,37.4935,0.1612,0.1388,-0.4478,-68.8342
17:26:12:727,-3.1315,1.3042,7.4509,37.2868,0.1082,-0.0303,-0.2287,-68.4815
17:26:12:746,-2.8801,1.673,7.8579,36.808,0.0227,-0.1874,-0.1605,-68.1175
17:26:12:764,-3.4128,1.8824,8.9532,38.7127,0.0096,-0.2782,-0.0768,-67.7524
17:26:12:784,-3.4715,1.892,9.565,37.3186,0.0107,-0.3528,0.043,-67.3916
17:26:12:806,-2.1295,1.8046,10.1922,37.036,-0.0969,-0.4093,0.1426,-67.0374
17:26:12:829,-2.6551,1.9722,11.7509,38.7339,-0.254,-0.5198,0.1192,-66.693
17:26:12:846,-3.8031,2.2248,13.3143,36.0651,-0.2719,-0.6125,0.128,-66.3624
17:26:12:864,-4.5632,2.6929,13.6926,37.5968,-0.0319,-0.4271,0.4278,-66.0487
17:26:12:883,-2.2792,2.8329,11.2804,38.802,0.256,0.0227,0.9381,-65.7513
17:26:12:902,0.2838,3.8158,11.5761,38.2365,0.0376,0.0014,1.0593,-65.4723
17:26:12:923,1.0212,2.0776,12.9815,40.2376,-0.3342,-0.0942,0.4422,-65.2231
17:26:12:945,-1.5657,0.1766,14.1151,38.7741,-0.4194,-0.0657,-0.5536,-65.0151
17:26:12:964,-2.8981,-1.2037,12.3506,37.7345,0.0262,0.224,-0.8984,-64.8426
17:26:12:983,-3.772,-1.8944,8.5977,37.3974,0.5385,0.8406,-0.777,-64.6768
17:26:13:003,-4.2771,-2.1578,5.1536,36.7342,0.6057,1.2725,-0.3437,-64.4917
17:26:13:024,-4.313,-1.0672,4.7059,38.438,0.1521,1.2294,0.1482,-64.2789
17:26:13:049,-3.9814,-0.4806,5.5642,38.6391,-0.4101,0.8869,0.3599,-64.047
17:26:13:063,-3.6091,-0.6961,6.3232,37.8677,-0.7195,0.3689,0.276,-63.8137
17:26:13:084,-3.2728,-0.9607,6.8188,38.9484,-0.8189,-0.0548,0.2441,-63.5997
17:26:13:103,-2.4144,-0.8422,7.3108,38.8292,-0.7837,-0.4074,0.3919,-63.41
17:26:13:124,-2.0673,-0.5154,7.4209,38.8629,-0.7014,-0.5795,0.5418,-63.245
17:26:13:144,-2.1044,-0.1442,7.8363,38.7575,-0.6655,-0.5994,0.6678,-63.1065
17:26:13:164,-2.0314,0.1814,8.3284,40.0141,-0.6394,-0.5997,0.7562,-63.01
17:26:13:183,-1.5322,0.2867,8.2206,38.7939,-0.5853,-0.5856,0.8204,-63.01
17:26:13:204,-0.966,0.4938,8.6216,40.4987,-0.6149,-0.6109,0.8377,-63.01
17:26:13:227,-0.5087,0.7943,9.8319,38.7607,-0.7153,-0.54,0.7804,-63.01
17:26:13:246,-0.8235,0.6626,10.6627,38.6789,-0.6847,-0.3003,0.6395,-63.01
17:26:13:266,-1.6615,0.3969,11.351,40.3771,-0.5574,-0.0838,0.5312,-63.01
17:26:13:283,-1.7632,0.5261,11.5713,40.3771,-0.3097,0.0688,0.6262,-63.1083
17:26:13:305,-1.7189,0.9834,11.369,41.0843,-0.0082,0.1292,0.7738,-63.2257
17:26:13:333,-1.3191,1.3378,11.0661,40.0959,0.2088,0.1577,0.8183,-63.3635
17:26:13:345,-1.2569,1.345,10.6531,38.7911,0.2807,0.1223,0.6968,-63.5231
17:26:13:363,-1.1347,1.5377,10.9823,41.0301,0.1862,0.0288,0.5341,-63.7015
17:26:13:383,-1.8805,1.6466,11.8359,39.1242,0.0477,-0.0252,0.3434,-63.8948
17:26:13:402,-2.3761,2.0608,12.5661,39.0439,-0.0271,-0.0218,0.2398,-64.0984
17:26:13:426,-1.6495,1.8872,12.3853,38.5169,-0.0263,0.065,0.2446,-64.3062
17:26:13:442,-0.4392,1.8645,12.6846,40.095,-0.102,-0.0604,0.1439,-64.516
17:26:13:462,1.0368,0.5872,13.3634,39.4571,-0.2045,-0.3163,-0.1709,-64.7282
17:26:13:483,0.1737,-1.3102,13.7512,40.0309,-0.1864,-0.4053,-0.785,-64.9396
17:26:13:506,-1.015,-2.0452,12.8881,40.3572,0.5732,0.3372,-1.173,-65.141
17:26:13:524,-1.9536,-2.475,9.966,39.7732,0.82,0.6989,-0.9371,-65.4778
17:26:13:545,-1.9835,-2.4475,6.6656,39.2318,0.6842,0.5063,-0.5791,-65.5994
17:26:13:568,-2.0589,-1.8358,5.5583,38.716,0.2578,-0.1555,-0.3879,-65.5994
17:26:13:583,-1.5621,-1.2073,6.8368,39.9133,-0.0146,-0.6186,-0.3813,-65.5994
17:26:13:602,-1.3622,-0.7584,7.8555,38.4622,-0.156,-0.6572,-0.3602,-65.5994
17:26:13:623,-1.3921,-0.2699,8.9844,39.6872,-0.1286,-0.478,-0.2526,-65.5994
17:26:13:643,-1.3801,0.4603,9.6535,39.3576,0.0818,-0.1696,-0.0713,-65.5994
17:26:13:664,-1.2533,0.7045,8.8275,38.8157,0.1937,-0.0085,0.1399,-65.5994
17:26:13:683,-1.4472,1.1163,8.6492,40.3753,0.2472,0.154,0.2912,-65.5994
17:26:13:703,-1.1455,1.4706,8.897,38.8896,0.3945,0.2845,0.1746,-65.5994
17:26:13:723,-1.2042,1.5137,7.9956,38.118,0.4821,0.2219,-0.0771,-65.5994
17:26:13:749,-1.7141,1.1043,6.899,38.5791,0.3401,-0.0407,-0.1245,-65.5994
17:26:13:764,-1.9308,1.2935,7.3108,38.7186,0.1819,-0.0753,-0.0513,-65.5994
17:26:13:782,-1.8901,1.3857,7.2976,37.8859,-0.0554,0.0909,0.0044,-65.5994
17:26:13:803,-2.0924,1.3055,8.2865,37.5586,-0.2024,0.1649,0.0582,-65.5994
17:26:13:824,-2.6802,1.1187,9.5099,37.3963,-0.131,0.0448,0.2049,-65.5994
17:26:13:846,-2.8227,1.3186,10.4448,37.5678,0.0147,-0.0748,0.3791,-65.5994
17:26:13:868,-2.4803,1.5772,10.8602,39.6591,0.1084,-0.0346,0.4742,-65.5994
17:26:13:883,-1.6208,1.6215,11.2828,40.116,0.1641,0.0395,0.4262,-65.5994
17:26:13:903,-1.422,1.7304,11.8311,36.6862,0.2232,0.1322,0.325,-65.5994
17:26:13:922,-1.9356,1.3294,11.7281,38.0549,0.2341,0.1809,0.324,-65.5994
17:26:13:943,-3.1207,1.394,12.1447,38.4037,0.2664,0.2144,0.5794,-65.5994
17:26:13:963,-3.4356,2.0081,12.2596,38.3424,0.3138,0.2328,0.8542,-65.5994
17:26:13:984,-0.7541,1.9758,11.1331,38.1133,0.1191,-0.0346,0.6838,-65.5994
17:26:14:029,0.7615,2.2943,11.8861,39.1516,-0.0263,-0.3355,0.1005,-65.5994
17:26:14:030,0.467,1.4311,13.4723,38.5731,0.1569,-0.4588,-0.6992,-65.5994
17:26:14:042,-1.9488,-0.3166,13.8685,38.8943,0.6461,-0.1667,-0.9901,-65.6914
17:26:14:063,-3.1914,-1.4934,11.3618,39.5448,0.9923,0.0885,-0.8707,-65.6914
17:26:14:084,-4.1682,-2.1255,7.4676,38.3659,0.697,0.0704,-0.5045,-65.6914
17:26:14:103,-4.7584,-1.8358,5.6217,38.6102,0.0304,0.1884,-0.0617,-65.6914
17:26:14:123,-4.7512,-0.6111,6.2382,39.0194,-0.519,0.3378,0.2992,-65.6914
17:26:14:144,-4.9655,-0.3501,7.312,38.5903,-0.7659,0.3761,0.6342,-65.6914
17:26:14:166,-4.1347,-0.4328,8.0339,39.4267,-0.7307,0.374,1.0188,-65.6914
17:26:14:184,-2.3833,-0.4639,7.8627,38.4551,-0.5824,0.293,1.2433,-65.6914
17:26:14:205,-0.7014,0.3873,6.65,39.2244,-0.45,0.1391,1.2579,-65.6914
17:26:14:226,-0.9264,0.9332,6.7218,37.8033,-0.4013,-0.0319,1.1669,-65.6914
17:26:14:246,-1.4256,0.9978,6.2047,39.4409,-0.3824,-0.1256,1.0119,-65.8066
17:26:14:264,-1.4364,0.9583,5.9557,38.7445,-0.4769,-0.1848,0.9141,-65.9643
17:26:14:283,-1.2126,0.8709,7.4736,40.3554,-0.7408,-0.3155,0.8766,-66.1583
17:26:14:304,-1.0617,0.7644,9.0981,39.296,-0.9251,-0.3177,0.7756,-66.3811
17:26:14:323,-0.8786,0.7799,10.1886,38.8253,-0.9193,-0.2066,0.7149,-66.6338
17:26:14:347,-0.5158,0.8338,10.6651,40.4303,-0.7821,-0.054,0.6888,-66.9155
17:26:14:364,-0.7098,0.8278,11.5713,38.3304,-0.6319,-0.0236,0.6236,-67.2209
17:26:14:382,-1.2054,0.9631,12.3973,37.2773,-0.4418,-0.0817,0.5176,-67.5486
17:26:14:402,-0.7253,1.2839,12.7002,38.7349,-0.1986,-0.1656,0.5226,-67.8952
17:26:14:423,-0.2788,1.4168,12.4392,37.0968,0.024,-0.2588,0.5559,-68.2542
17:26:14:447,0.1677,1.8932,13.264,39.273,0.0387,-0.2415,0.5415,-68.6224
17:26:14:463,-0.79,2.1398,13.8123,38.0607,0.057,-0.1009,0.4579,-69.0076
17:26:14:483,-0.3147,2.7515,13.5669,38.2909,0.1082,0.0826,0.4904,-69.3987
17:26:14:504,1.0548,2.7396,12.8366,37.2894,0.1106,-0.0197,0.4193,-69.7933
17:26:14:523,2.7798,0.9954,13.6399,37.7574,-0.0516,-0.2639,-0.0353,-70.1919
17:26:14:542,1.3277,-1.0864,14.8526,38.0135,-0.1137,-0.1648,-0.7887,-70.5922
17:26:14:563,-0.1819,-2.457,13.9619,39.6787,0.3247,0.1388,-1.3083,-70.9794
17:26:14:583,-1.4831,-3.3633,10.3646,39.3753,0.9998,0.5343,-1.5019,-71.3289
17:26:14:602,-2.1032,-3.3154,7.136,38.0712,1.2749,0.4933,-1.3102,-71.6204
17:26:14:622,-2.017,-2.2559,5.8408,39.9134,1.0368,0.0504,-0.8838,-71.8469
17:26:14:644,-0.4225,-1.1127,6.7506,37.1166,0.4901,-0.2926,-0.4694,-72.0109
17:26:14:667,-0.8259,-0.4304,8.0267,38.7165,0.0248,-0.3051,-0.3408,-72.1304
17:26:14:684,-0.4955,0.4028,9.0454,38.4245,-0.1621,-0.0958,-0.1735,-72.2266
17:26:14:704,-0.4296,0.6303,8.3714,38.4245,-0.0487,0.2677,0.0145,-72.2266
17:26:14:723,-0.4249,1.5904,8.3236,38.6125,0.0203,0.448,0.1676,-72.2266
17:26:14:753,-0.1747,2.25,8.3499,36.4971,0.1226,0.4019,0.2648,-72.2266
17:26:14:768,0.0887,2.5875,8.1931,36.1062,0.3084,0.2624,0.1082,-72.3177
17:26:14:785,-0.2824,2.0237,7.3276,37.7428,0.5223,0.1905,-0.7043,-72.408
17:26:14:804,-1.0557,1.6945,7.1097,38.0028,0.5194,0.0259,-0.7405,-72.408
17:26:14:828,-1.4472,1.3809,6.7566,37.5518,0.4179,-0.0242,-0.6185,-72.408
17:26:14:846,-1.8626,1.8334,6.9457,38.597,0.2091,0.1162,-0.4127,-72.408
17:26:14:864,-1.8195,2.1937,7.5562,38.4324,0.0229,0.2744,-0.28,-72.408
17:26:14:884,-1.8291,2.2093,8.1476,39.0682,-0.1171,0.3244,-0.2188,-72.408
17:26:14:904,-1.8853,2.171,9.0011,37.0435,-0.144,0.1998,-0.2047,-72.408
17:26:14:923,-2.3905,2.1937,10.2341,36.428,-0.009,0.0699,-0.1839,-72.408
17:26:14:943,-2.618,2.1434,10.8195,37.7248,0.1644,0.0147,-0.1538,-72.408
17:26:14:966,-2.5138,2.0896,10.3718,38.4641,0.17,-0.058,-0.1352,-72.408
17:26:14:983,-2.4144,2.1279,10.3311,38.2378,0.0456,-0.1557,-0.1221,-72.408
17:26:15:003,-2.8813,2.1374,11.272,39.6181,-0.0402,-0.1302,0.0134,-72.408
17:26:15:022,-3.9132,2.3912,12.7564,38.7205,0.0935,0.109,0.3349,-72.408
17:26:15:043,-3.438,2.5085,12.3219,38.2368,0.1732,0.244,0.6041,-72.408
17:26:15:063,-1.2305,2.6821,11.0134,39.0913,-0.0468,0.0429,0.3732,-72.408
17:26:15:082,-0.3159,2.2643,12.0178,38.3156,-0.1811,-0.1595,-0.3312,-72.408
17:26:15:102,-1.9835,0.2807,13.8841,38.8462,0.1417,0.0033,-0.7607,-72.408
17:26:15:122,-3.7049,-0.9008,13.2245,39.1446,0.705,0.4003,-0.6958,-72.408
17:26:15:143,-4.5393,-1.9088,9.6224,37.5518,0.8163,0.5657,-0.3831,-72.408
17:26:15:162,-4.4902,-1.9076,6.0491,38.1372,0.297,0.4318,-0.0864,-72.408
17:26:15:182,-3.7396,-0.999,5.0746,40.1136,-0.4588,0.0216,-0.0489,-72.308
17:26:15:201,-3.4008,-0.9044,6.4309,39.5422,-1.025,-0.1983,-0.0971,-72.1882
17:26:15:222,-3.4176,-1.3988,8.0458,38.0092,-1.2487,-0.1003,0.0803,-72.0654
17:26:15:243,-3.2787,-1.4646,8.7749,39.4263,-1.1819,0.1402,0.3956,-71.9506
17:26:15:265,-2.0589,-1.1905,8.6623,38.8964,-1.0303,0.3753,0.7131,-71.849
17:26:15:282,-1.7908,-0.7248,8.5163,38.6271,-0.7883,0.5415,1.0438,-71.849
17:26:15:302,-1.9021,-0.0114,8.065,38.7424,-0.4871,0.4504,1.3501,-71.849
17:26:15:322,-1.8171,0.5537,7.4736,38.5645,-0.2652,0.211,1.496,-71.849
17:26:15:344,-1.1228,1.5114,7.1648,40.7773,-0.1523,-0.2018,1.4225,-71.849
17:26:15:363,-0.2022,2.6019,7.379,40.1319,-0.1483,-0.6095,1.0097,-71.9495
17:26:15:383,-0.0574,2.9706,8.3954,40.4798,-0.2106,-0.6671,0.4334,-72.099
17:26:15:402,-1.1156,2.1027,9.1783,39.3941,-0.2929,-0.445,0.1335,-72.2872
17:26:15:423,-2.2038,1.5808,10.2389,39.4636,-0.2506,-0.1187,0.2132,-72.4946
17:26:15:443,-2.6096,1.4551,10.7836,40.1381,-0.1113,0.13,0.3812,-72.7061
17:26:15:463,-1.9943,1.6239,10.4616,40.1381,-0.0569,0.1234,0.3703,-72.9192
17:26:15:483,-1.7884,1.6789,10.5466,39.688,-0.0854,-0.0002,0.276,-73.1377
17:26:15:503,-2.0984,1.6418,11.205,38.2119,-0.0831,-0.0828,0.2395,-73.3635
17:26:15:523,-2.1104,1.6933,11.7904,40.0327,-0.0261,-0.0348,0.2523,-73.5941
17:26:15:543,-1.8793,1.6933,11.8802,39.4879,0.0232,0.0464,0.2393,-73.8272
17:26:15:563,-1.9212,2.0512,11.8251,37.9556,0.0062,0.0565,0.1852,-74.0617
17:26:15:584,-2.3534,2.6869,12.7265,38.7091,0.0461,0.0102,0.0861,-74.2974
17:26:15:604,-0.5972,1.801,12.8163,37.928,0.1468,-0.1917,-0.084,-74.5333
17:26:15:624,1.2236,0.5369,12.7193,40.2413,0.166,-0.4756,-0.3168,-74.7664
17:26:15:645,0.8285,-0.841,13.191,39.2028,0.134,-0.6524,-0.7299,-74.992
17:26:15:664,-0.7074,-1.4192,12.9863,36.8174,0.298,-0.4569,-1.0364,-75.2027
17:26:15:683,-1.5849,-2.0584,10.7764,39.1306,0.6853,0.1788,-1.0159,-75.3886
17:26:15:702,-1.8111,-2.2404,7.9848,38.4247,0.9399,0.677,-0.7855,-75.5371
17:26:15:723,-1.458,-1.412,6.5195,38.8464,0.885,0.6946,-0.4686,-75.641
17:26:15:744,-1.1587,-0.7787,6.4693,39.1627,0.5835,0.2579,-0.3858,-75.641
17:26:15:764,-1.4053,-0.4675,7.166,38.4419,0.2525,-0.3501,-0.5024,-75.641
17:26:15:783,-1.6914,-0.2125,8.2338,39.032,-0.0146,-0.6932,-0.5155,-75.641
17:26:15:801,-1.0294,0.4986,9.5051,37.8964,-0.1765,-0.5499,-0.2936,-75.641
17:26:15:823,-0.772,0.8506,9.14,37.2577,-0.106,-0.0386,-0.0726,-75.641
17:26:15:842,-0.8091,1.5868,8.7629,39.1513,0.0016,0.3777,0.0616,-75.641
17:26:15:862,-0.8139,2.3721,8.7066,38.5875,0.1055,0.5601,0.1165,-75.641
17:26:15:883,-0.9109,2.724,8.1608,39.4711,0.3233,0.5135,-0.0744,-75.641
17:26:15:902,-1.5801,2.2212,7.063,37.6784,0.5481,0.2906,-0.4039,-75.641
17:26:15:922,-1.2988,2.1051,6.0598,37.5756,0.5979,0.0288,-0.5562,-75.641
17:26:15:944,-1.4987,2.2739,6.249,38.6869,0.412,-0.185,-0.5996,-75.641
17:26:15:964,-1.932,2.2655,7.2701,37.3657,0.1103,-0.2548,-0.6311,-75.641
