Time,Acc_X,Acc_Y,Acc_Z,Meg,Gyr_X,Gyr_Y,Gyr_Z,Ore
17:44:51:522,-1.6965,1.3208,8.8558,60.3346,-0.1125,0.1045,-0.1051,175.6587
17:44:51:544,-1.6965,1.3208,8.8558,57.3648,-0.1442,0.5395,-0.2224,176.0491
17:44:51:562,-1.7874,1.7252,9.8752,58.3346,-0.1442,0.5395,-0.2224,176.5547
17:44:51:580,-1.8329,1.9501,9.9518,60.1037,-0.534,-0.1019,0.1869,176.282
17:44:51:600,-1.8114,2.1272,9.7603,60.0941,-0.4557,-0.1263,0.1893,175.964
17:44:51:619,-1.7779,2.3019,9.5713,57.6848,-0.3873,-0.1251,0.2027,175.4474
17:44:51:638,-1.785,2.3761,9.4277,59.0285,-0.3336,-0.0885,0.2309,174.9578
17:44:51:660,-1.7611,2.3904,9.4349,57.6421,-0.2982,-0.0237,0.2724,174.4121
17:44:51:679,-1.7874,2.3139,9.6455,58.0039,-0.2774,0.0447,0.3176,173.8561
17:44:51:699,-1.6822,2.1416,9.8034,58.5246,-0.2566,0.0642,0.3701,173.3423
17:44:51:719,-1.5458,2.0339,9.7962,59.0106,-0.2212,-0.003,0.4092,172.8916
17:44:51:739,-1.3902,1.9119,9.4804,58.9621,-0.1687,-0.0983,0.4361,172.4359
17:44:51:761,-1.1797,1.7611,9.2219,59.7788,-0.1332,-0.1373,0.4679,172.0574
17:44:51:779,-1.0433,1.6487,9.2339,57.8335,-0.1467,-0.1263,0.4838,171.6811
17:44:51:807,-0.8829,1.6295,9.3272,59.8452,-0.1809,-0.1398,0.485,171.3724
17:44:51:820,-0.7131,1.5793,9.3224,57.4509,-0.2114,-0.1862,0.4813,171.0876
17:44:51:840,-0.5647,1.6032,9.1741,58.4541,-0.2297,-0.2546,0.4544,170.834
17:44:51:876,-0.4187,1.7779,9.1238,59.0795,-0.2529,-0.2803,0.4214,170.6036
17:44:51:883,-0.1819,1.8377,9.2578,58.964,-0.2798,-0.2436,0.3946,170.407
17:44:51:902,-0.0814,2.0004,9.5186,58.187,-0.3067,-0.2143,0.3494,170.2841
17:44:51:924,-0.0574,2.2756,9.7053,59.7187,-0.3678,-0.2827,0.2687,170.1777
17:44:51:939,-0.0526,2.7996,9.9613,59.3633,-0.4924,-0.4648,0.1869,170.112
17:44:51:961,-0.0646,2.8762,10.5021,57.447,-0.5865,-0.5784,0.1747,170.0143
17:44:51:980,0.067,2.534,10.9902,59.4464,-0.5621,-0.5857,0.2162,169.9067
17:44:52:005,0.5049,2.0028,11.1649,58.4934,-0.4228,-0.5918,0.2541,169.8661
17:44:52:020,0.9691,1.4883,11.4544,59.8894,-0.2419,-0.5283,0.2516,169.9329
17:44:52:040,1.1773,0.9906,11.3851,59.2915,-0.0599,-0.4403,0.1673,170.0668
17:44:52:080,0.8351,0.8495,10.7533,59.0696,0.149,-0.5185,-0.1369,170.7104
17:44:52:081,0.5312,0.8662,10.861,58.1604,0.1282,-0.4635,-0.2578,171.0334
17:44:52:101,0.3493,0.7155,10.8897,57.8617,0.0659,-0.4379,-0.3275,171.3764
17:44:52:121,0.4187,0.5767,10.9974,60.1905,-0.0013,-0.4599,-0.3519,171.7695
17:44:52:140,0.5336,0.4283,11.1147,58.6175,-0.0416,-0.4501,-0.3556,172.1441
17:44:52:160,0.4594,0.2823,11.2558,58.4548,-0.0648,-0.3976,-0.3702,172.5057
17:44:52:186,0.402,0.0838,11.6985,59.4722,-0.0795,-0.2375,-0.38,172.8624
17:44:52:201,0.5886,-0.2967,12.2513,59.3304,-0.0392,-0.0628,-0.3812,173.2325
17:44:52:219,0.9834,-0.5695,12.2225,59.8199,0.0793,-0.0555,-0.4252,173.7412
17:44:52:243,1.3424,-0.5671,11.4018,58.6175,0.2724,-0.2265,-0.5364,174.371
17:44:52:271,1.6128,-0.0646,10.6217,57.6307,0.4703,-0.3304,-0.7111,175.2545
17:44:52:279,1.6056,0.3876,10.148,60.8602,0.6426,-0.1044,-0.8907,176.3038
17:44:52:306,1.0241,0.0646,10.0188,59.6716,0.7635,0.311,-1.0642,177.4001
17:44:52:319,0.536,-0.2895,9.9828,59.4396,0.7488,0.377,-1.2572,178.6599
17:44:52:341,0.6245,0.0622,9.7484,59.3014,0.5778,-0.1801,-1.4539,180.1905
17:44:52:363,0.6269,0.95,8.7577,59.634,0.3921,-0.8301,-1.5932,182.0042
17:44:52:382,0.5216,1.0624,7.6905,59.9207,0.3164,-1.0439,-1.5687,183.8147
17:44:52:399,1.0337,0.7226,7.267,58.2336,0.4507,-0.8484,-1.4405,185.5011
17:44:52:419,0.5408,1.3831,6.0849,59.0348,0.772,-0.521,-1.4624,187.1328
17:44:52:442,-0.0598,2.5747,5.8983,61.1646,0.9565,-0.1141,-1.2401,188.3563
17:44:52:464,-0.012,2.5579,6.2405,58.6436,0.9578,0.3183,-0.716,188.915
17:44:52:489,0.2704,2.187,6.8602,60.68,0.9077,0.6103,-0.402,189.1125
17:44:52:501,0.4068,1.5338,7.0445,58.9184,0.8075,0.4943,-0.2884,189.431
17:44:52:519,0.8686,2.3019,6.53,59.8004,0.2956,-0.5735,-0.3238,190.0114
17:44:52:541,0.7585,2.8259,6.6879,60.125,0.0488,-0.5637,-0.4166,190.5963
17:44:52:565,0.7753,2.1799,7.1665,60.0433,-0.0453,-0.0738,-0.4386,191.0228
17:44:52:582,0.4164,2.3545,8.5137,60.0433,0.0622,0.9072,-0.5315,191.1917
17:44:52:599,-0.4427,3.0197,10.2078,61.2719,0.0977,1.4924,-0.5999,191.1582
17:44:52:619,-0.9787,3.149,10.3944,58.2371,-0.0758,1.1235,-0.5058,191.1386
17:44:52:639,-1.6152,3.74,11.744,58.2371,-0.0733,1.2505,-0.4313,190.9727
17:44:52:660,-1.7994,3.259,12.9356,58.3975,-0.0477,1.3715,-0.3311,190.6669
17:44:52:679,-1.3495,2.4646,14.5197,59.8029,-0.0245,1.2224,-0.2908,190.4642
17:44:52:699,-0.6772,1.8521,14.2253,58.3327,-0.0611,0.5358,-0.424,190.6888
17:44:52:721,-1.7779,2.7374,13.4477,58.387,-0.1894,-0.0017,-0.7416,191.3306
17:44:52:742,-3.7567,4.2496,16.0511,58.7964,-0.2481,0.4307,-0.8528,191.8337
17:44:52:763,-3.8213,2.7063,18.1041,58.4339,0.1148,1.0538,-0.4655,191.7867
17:44:52:780,-3.8477,1.2395,16.666,58.7818,0.7574,1.0587,-0.1686,191.4454
17:44:52:799,-5.135,1.4931,13.0265,58.2725,1.2534,0.5334,-0.2077,191.1896
17:44:52:823,-6.2453,2.211,9.5474,58.5183,1.4257,0.1693,-0.2004,190.9194
17:44:52:844,-6.4415,2.1416,7.8604,59.1517,1.2791,0.1974,0.0879,190.308
17:44:52:860,-5.4652,1.5218,7.2814,57.9122,0.97,0.2597,0.5302,189.2449
17:44:52:878,-3.9123,0.8471,7.0038,58.73,0.656,0.129,0.9126,187.9571
17:44:52:898,-2.2612,0.5336,5.7763,57.5681,0.4373,-0.1618,1.108,186.7182
17:44:52:918,-0.7418,0.7537,4.1516,58.0925,0.2455,-0.4086,1.1215,185.6729
17:44:52:939,-0.146,1.3854,3.2136,56.4138,-0.0379,-0.4342,1.0128,184.7758
17:44:52:961,-0.2513,1.4046,3.0796,57.1395,-0.3446,-0.1618,0.8686,182.9859
17:44:52:977,-0.0646,3.2782,4.0941,58.9725,-0.5523,0.3293,0.8283,182.0377
17:44:52:997,0.1149,3.7998,4.4028,57.0513,-0.512,0.2133,0.871,181.0747
17:44:53:017,0.5647,2.7494,3.9242,56.1946,-0.5352,0.0129,0.8307,180.2784
17:44:53:040,0.6197,2.2134,5.537,56.3558,-0.606,0.0752,0.6267,179.683
17:44:53:062,0.28,1.7874,6.9966,58.0457,-0.5535,-0.0017,0.3347,179.4227
17:44:53:080,-0.4977,2.1152,7.7623,56.9773,-0.2053,-0.1593,0.0757,179.4184
17:44:53:099,-1.0122,3.1633,7.6379,57.8529,0.3457,-0.1569,-0.0941,179.5583
17:44:53:119,-1.0792,6.2692,6.0778,58.0457,0.8185,0.0618,-0.0782,179.553
17:44:53:141,-1.4477,6.0634,6.5659,58.3168,0.5143,0.3709,0.276,179.0271
17:44:53:160,-2.4431,3.7328,10.5811,57.8674,-0.4203,0.4869,0.507,178.222
17:44:53:179,-2.8116,3.3045,14.2876,58.2486,-1.0104,0.2548,0.43,177.6053
17:44:53:198,-3.015,3.2064,15.3524,56.7997,-1.0275,0.1216,0.4214,177.069
17:44:53:221,-3.0796,3.6419,15.137,58.1313,-0.727,0.2682,0.4825,176.3911
17:44:53:240,-2.7709,3.5246,15.6347,56.632,-0.5205,0.6604,0.5998,175.4855
17:44:53:258,-1.7994,2.7159,16.6158,55.1909,-0.4093,1.0025,0.678,174.4886
17:44:53:280,-1.0433,1.8066,16.9292,57.8538,-0.2249,1.0184,0.5595,173.697
17:44:53:300,-0.7011,1.5673,15.4792,56.7701,0.16,0.6494,0.2565,173.3773
17:44:53:320,-1.1222,2.2804,12.5527,56.3565,0.6047,0.1815,-0.099,173.5224
17:44:53:343,-1.3735,3.192,9.8345,55.9162,0.8246,-0.0872,-0.3299,173.9226
17:44:53:359,-1.6798,3.5821,8.863,56.3691,0.7195,-0.0066,-0.3861,174.3175
17:44:53:380,-2.4167,3.2327,9.8106,55.4842,0.4544,0.3416,-0.3323,174.5128
17:44:53:400,-3.0245,2.7206,10.9424,54.0846,0.3017,0.5981,-0.2322,174.5118
17:44:53:425,-3.3667,2.4311,10.9831,55.2796,0.3176,0.5322,-0.1063,174.4038
17:44:53:446,-1.9717,1.8042,9.3679,55.5345,0.4617,-0.251,0.2101,174.19
17:44:53:558,-0.3637,1.3376,8.3103,54.5423,0.5094,-0.6566,0.3091,174.2341
17:44:53:559,1.2491,1.6582,6.8961,54.7025,0.7036,-0.7397,0.2186,174.4758
17:44:53:560,1.5194,2.1679,5.147,54.7356,0.9895,-0.5918,-0.1002,174.9664
17:44:53:570,0.7155,2.7517,4.3238,54.8811,1.1899,-0.2302,-0.4447,175.603
17:44:53:571,-0.2584,3.3188,3.8859,55.7837,1.2901,0.1473,-0.6708,176.2238
17:44:53:571,-1.139,3.9075,3.7615,53.4542,1.3145,0.3208,-0.7074,176.7251
17:44:53:579,-1.6343,4.276,3.6251,54.3033,1.2669,0.3159,-0.5083,177.0125
17:44:53:598,-1.1222,4.0989,3.2973,53.8294,1.185,0.2267,-0.1418,177.0065
17:44:53:621,-0.347,3.9936,3.0915,54.5411,1.0641,0.1925,0.149,176.7503
17:44:53:640,0.2967,3.9888,3.1729,52.4039,0.9003,0.1913,0.2137,176.4827
17:44:53:659,0.2201,3.7448,2.8331,53.8231,0.6401,0.1864,0.0842,176.3231
17:44:53:679,0.4331,3.2064,2.9432,54.588,0.1612,0.1986,-0.1271,176.3775
17:44:53:699,-0.1531,2.2971,2.6249,56.1109,-0.5572,0.1852,-0.4631,176.7286
17:44:53:722,-1.3974,1.2467,2.1751,54.102,-1.5016,0.2389,-0.9151,177.4567
17:44:53:740,-2.8714,-0.1196,2.3234,53.3625,-2.5009,0.592,-1.3109,178.3198
17:44:53:760,-5.6112,-1.663,6.8554,51.8147,-3.3183,1.4655,-1.5443,179.0468
17:44:53:779,-7.6618,-3.472,10.4327,52.103,-3.5235,2.4014,-1.5199,179.5655
17:44:53:799,-9.0927,-2.814,10.9113,50.6718,-2.8442,3.3849,-1.449,179.8931
17:44:53:822,-9.4732,-2.6895,8.8678,50.8993,-2.0941,4.1252,-1.3696,180.1491
17:44:53:842,-9.5976,-3.1131,7.0158,49.4909,-2.3604,3.6928,-1.4319,180.9044
17:44:53:861,-11.1888,-3.0604,9.9757,49.6205,-3.08,2.6457,-1.5309,182.4352
17:44:53:879,-12.0574,-3.2064,13.0624,48.2532,-3.3891,1.4619,-1.2938,184.1922
17:44:53:904,-7.8844,-3.2184,8.3103,47.0083,-2.0611,0.1131,-0.5742,186.405
17:44:53:924,-7.2622,-2.388,7.2838,47.4757,-2.0391,-0.5601,-0.5926,187.1491
17:44:53:941,-8.8247,-1.6439,7.456,45.2826,-2.204,-1.0243,-0.5498,187.5949
17:44:53:960,-6.7143,-2.4837,9.198,46.0865,-2.1063,-1.2748,-0.1454,187.453
17:44:53:979,-6.4343,-1.4644,7.3627,47.2136,-2.0012,-1.8698,0.1869,186.5201
17:44:53:999,-5.549,-1.8281,8.2887,44.7533,-2.1735,-2.2961,0.4141,185.1549
17:44:54:022,-3.7926,-2.0578,9.3129,44.2428,-2.3665,-2.6834,0.7269,183.2618
17:44:54:041,-1.9047,-2.1703,9.1789,46.6326,-2.066,-2.5588,0.9077,181.2316
17:44:54:079,-1.1079,-2.5795,8.9827,43.1215,-1.3782,-1.8612,0.9065,179.5205
17:44:54:085,-0.0885,-2.1751,7.4225,45.4265,-0.7734,-1.1929,0.7696,178.2515
17:44:54:104,0.2106,-2.0363,6.1065,45.1065,-0.3922,-0.4159,0.5705,177.552
17:44:54:118,-0.5623,-1.5458,6.4128,45.0054,-0.2566,0.3428,0.3176,177.398
17:44:54:138,-1.8784,-1.6463,8.2217,45.3577,-0.187,1.0049,0.1575,177.6957
17:44:54:157,-2.412,-2.4646,10.0522,43.7747,-0.0172,1.2627,0.1392,178.1545
17:44:54:177,-2.2995,-3.2136,11.6411,43.9566,0.1856,0.9585,0.0757,178.6212
17:44:54:198,-2.9599,-3.405,13.9358,43.7851,0.3628,0.4332,-0.1454,179.1051
17:44:54:221,-4.7186,-3.2949,15.0509,44.6809,0.7049,0.0056,-0.3837,179.6355
17:44:54:239,-5.1924,-3.6251,14.723,43.8438,1.0983,-0.3291,-0.4252,180.0643
17:44:54:260,-4.9268,-3.2973,12.3661,43.7943,1.2803,-0.7629,-0.402,180.2919
17:44:54:278,-4.9675,-3.0197,10.7868,42.7055,1.0995,-0.8789,-0.4289,180.4952
17:44:54:301,-4.9699,-3.0485,11.7272,45.0787,0.6206,-0.5845,-0.446,180.8366
17:44:54:322,-6.2668,-3.1824,14.278,44.3878,0.1856,-0.1544,-0.5767,181.4666
17:44:54:341,-7.4465,-4.2018,15.149,45.4228,0.2748,0.5358,-0.6207,182.3755
17:44:54:360,-6.8387,-4.0152,10.9687,45.2931,0.6975,0.9109,-0.6329,184.4784
17:44:54:378,-5.8911,-3.6897,8.9827,45.5703,0.2284,0.4063,-0.7037,185.4457
17:44:54:399,-4.8359,-3.4217,7.4225,46.5563,-0.3372,0.2438,-0.7868,186.4556
17:44:54:421,-4.4291,-2.9503,6.4965,46.4658,-0.6769,0.6238,-0.876,187.7193
17:44:54:439,-4.4171,-2.5771,6.1496,45.8103,-0.6903,1.3849,-0.9041,189.3175
17:44:54:459,-4.5105,-2.0554,5.7523,46.7819,-0.4118,2.278,-0.8589,191.2987
17:44:54:479,-4.8072,-1.2562,5.1565,46.3706,-0.0196,2.9365,-0.7697,193.5715
17:44:54:504,-5.0943,-0.5862,4.8479,47.5188,0.3176,3.2456,-0.6085,195.9234
17:44:54:519,-5.2451,-0.1149,4.934,47.2402,0.59,3.292,-0.3824,198.163
17:44:54:539,-5.6566,0.2513,5.3216,46.5624,0.8515,3.1369,-0.1039,200.0757
17:44:54:559,-5.403,-0.1699,4.5823,49.1907,1.1142,2.7288,0.2284,201.3791
17:44:54:579,-4.5105,-1.1198,3.3811,48.3687,1.218,2.1399,0.5314,201.9418
17:44:54:602,-3.393,-2.333,2.2301,49.9022,1.0567,1.6012,0.6621,201.9954
17:44:54:618,-3.0652,-3.2566,1.8592,51.1288,0.6658,1.1797,0.5607,201.9303
17:44:54:640,-3.2806,-4.3238,2.3761,51.4851,0.1685,0.884,0.331,202.0918
17:44:54:660,-4.0199,-5.0824,3.125,50.692,-0.2224,0.7618,0.0989,202.5912
17:44:54:681,-4.3765,-6.3099,3.4529,51.2467,-0.4484,0.6897,-0.0672,203.3935
17:44:54:705,-4.6995,-7.4393,3.0772,52.9453,-0.5718,0.5749,-0.2016,204.4331
17:44:54:723,-5.2834,-8.6668,2.0698,51.9553,-0.6244,0.6177,-0.3775,205.8865
17:44:54:739,-5.872,-9.4469,1.4931,52.7099,-0.7612,0.84,-0.6255,207.9937
17:44:54:758,-6.0921,-9.7867,2.0459,53.3179,-0.9713,1.1894,-0.9188,210.9893
17:44:54:779,-7.2766,-9.8297,3.1083,53.2942,-1.0874,1.5169,-1.2425,214.9257
17:44:54:805,-8.9085,-9.5785,2.5268,54.0449,-0.738,1.7636,-1.5736,224.4137
17:44:54:822,-7.87,-9.4445,1.8975,54.468,-0.771,1.4888,-1.5406,228.7977
17:44:54:841,-7.2526,-9.5378,2.3952,53.8523,-1.0617,1.0905,-1.6078,232.4974
17:44:54:858,-7.7336,-9.9709,2.936,53.5669,-1.2792,0.7997,-1.7996,235.6848
17:44:54:880,-8.7386,-10.6026,2.546,54.2546,-1.2193,0.7044,-1.9719,238.5977
17:44:54:903,-9.1478,-10.8993,1.5266,54.1342,-0.9946,0.7924,-2.044,241.4263
17:44:54:919,-8.942,-10.5595,0.7968,54.295,-0.876,0.9488,-2.0501,244.2331
17:44:54:939,-8.4467,-9.5952,1.2347,52.5069,-1.0129,0.994,-2.0538,246.8483
17:44:54:959,-7.8772,-8.3366,2.5196,53.7108,-1.2792,0.8706,-2.0525,249.0182
17:44:54:981,-7.6307,-7.0804,3.8524,52.9544,-1.4368,0.6055,-2.0452,250.5714
17:44:55:005,-7.9466,-5.805,5.0058,51.5609,-1.3977,0.2047,-2.0037,251.3635
17:44:55:021,-7.8844,-4.4028,4.5248,50.827,-1.2193,-0.3976,-1.8888,251.189
17:44:55:040,-7.1139,-4.209,3.5701,53.3841,-0.8088,-0.5869,-1.5724,250.6531
17:44:55:058,-6.3625,-3.9027,2.1392,54.3348,-0.4167,-0.4574,-1.3183,250.2564
17:44:55:078,-5.9509,-3.9912,1.6056,55.9021,-0.3678,-0.5649,-1.1558,249.6994
17:44:55:100,-6.1376,-4.0056,1.3208,55.1824,-0.6561,-0.8777,-1.1069,248.7296
17:44:55:119,-7.5637,-3.6371,3.4744,53.1536,-0.9664,-0.9926,-1.1301,247.6191
17:44:55:139,-7.4082,-4.6923,2.5795,55.5314,-1.1411,-1.1746,-0.9457,246.2433
17:44:55:158,-7.5948,-5.5896,2.1152,55.3472,-1.0996,-0.9303,-0.6952,245.128
17:44:55:182,-7.7216,-6.3458,2.5053,56.008,-0.9029,-0.5698,-0.496,244.452
17:44:55:199,-7.9035,-7.523,2.1559,56.0316,-0.7135,-0.3585,-0.3617,244.0186
17:44:55:218,-8.272,-8.6046,1.7874,55.6731,-0.5938,-0.3463,-0.2859,243.5968
17:44:55:239,-8.8104,-9.6431,1.1198,55.2406,-0.4924,-0.3035,-0.2371,243.2099
17:44:55:263,-9.1454,-10.2437,0.8782,56.1497,-0.4557,-0.1813,-0.1418,242.6374
17:44:55:286,-9.4277,-10.8467,0.9523,56.4589,-0.5144,-0.1911,-0.0843,242.3575
17:44:55:303,-8.8391,-10.9639,1.2443,56.1268,-0.5718,-0.2473,0.0158,242.0253
17:44:55:325,-8.3605,-10.4064,1.4764,56.7291,-0.5168,-0.207,0.0647,241.7424
17:44:55:338,-8.0662,-9.5354,1.0744,57.7288,-0.2554,0.1216,0.0537,241.8852
17:44:55:358,-8.2792,-8.6883,0.4164,56.8,0.1368,0.8363,0.0684,242.9147
17:44:55:383,-9.1525,-8.4969,0.0359,55.903,0.5497,1.854,0.1954,245.1902
17:44:55:407,-9.5019,-9.4349,-0.0096,55.3283,0.8014,2.7325,0.4972,248.6059
17:44:55:421,-9.2195,-10.1886,0.5527,56.255,0.8637,3.1967,0.8283,252.6505
17:44:55:437,-8.6788,-10.2796,0.7896,55.792,0.9419,3.424,1.0506,257.1071
17:44:55:457,-8.1595,-10.0211,0.8519,54.641,1.0225,3.4631,1.1728,261.6995
17:44:55:479,-7.8317,-9.5498,1.1055,57.3431,1.0078,3.303,1.2339,266.1855
17:44:55:503,-7.5565,-8.6405,1.3304,59.8564,0.9284,2.9622,1.2608,270.3221
17:44:55:518,-7.3795,-7.4967,1.3998,59.9728,0.8783,2.5859,1.3011,274.0332
17:44:55:537,-7.0564,-6.4941,1.6056,55.5174,0.8869,2.3024,1.4123,277.4211
17:44:55:557,-6.6449,-5.8146,1.6367,51.769,0.9504,2.096,1.5882,280.6083
17:44:55:667,-6.2883,-5.3527,1.5553,50.766,1.0359,1.8931,1.7727,283.6522
17:44:55:667,-6.0658,-5.0824,1.1844,51.5857,1.1251,1.672,1.9474,286.5522
17:44:55:668,-5.8528,-4.9771,0.6508,52.1057,1.1752,1.4313,2.1221,289.2602
17:44:55:668,-5.5705,-5.2188,0.0646,51.292,1.1349,1.1687,2.298,291.7397
17:44:55:668,-5.2235,-5.5011,-0.1077,52.7372,0.9712,0.8657,2.4299,293.9283
17:44:55:677,-4.8479,-5.9079,-0.2369,52.103,0.7415,0.5248,2.4984,295.6803
17:44:55:698,-4.4602,-6.5037,-0.3781,52.0729,0.5204,0.2096,2.4984,296.9887
17:44:55:718,-3.8477,-7.9633,-0.6963,50.6122,0.149,-0.1923,2.2943,297.8995
17:44:55:738,-3.4457,-8.7529,-0.7394,49.0562,0.0011,-0.2803,2.1184,298.9222
17:44:55:756,-2.8857,-9.3966,-0.4953,50.2158,-0.1247,-0.3744,1.8545,298.9694
17:44:55:776,-2.2397,-9.7986,-0.5623,51.6403,-0.2285,-0.521,1.4514,298.4182
17:44:55:797,-2.1751,-10.1551,-0.725,51.2167,-0.3483,-0.7445,0.8857,296.8973
17:44:55:817,-3.1657,-10.7868,-1.1653,49.0195,-0.4863,-0.9877,0.2296,294.2988
17:44:55:836,-4.5416,-12.2871,-2.0411,50.3826,-0.6476,-1.166,-0.3995,290.9501
17:44:55:859,-3.996,-12.3948,-1.7037,48.1682,-0.9713,-1.3261,-0.9505,287.1151
17:44:55:879,-4.1204,-11.5836,0.1986,47.2901,-1.3916,-1.4886,-1.5871,282.9684
17:44:55:900,-5.6136,-10.7773,2.0124,47.9957,-1.548,-1.5142,-2.2627,279.0392
17:44:55:917,-8.2863,-10.4351,2.4526,46.4125,-1.2413,-1.3041,-2.7966,275.9462
17:44:55:936,-11.0931,-10.483,1.5577,45.3818,-0.6647,-0.9901,-3.0104,273.8364
17:44:55:957,-12.8519,-10.1958,0.4044,45.2097,-0.1198,-0.7006,-2.8076,272.5142
17:44:55:976,-12.2967,-9.1262,-0.7202,45.1292,0.2748,-0.4513,-2.248,271.7468
17:44:55:996,-10.3825,-7.6259,-1.1557,45.0825,0.4312,-0.1911,-1.6139,271.4686
17:44:56:017,-8.7075,-6.2524,-0.8303,43.9855,0.342,-0.0714,-1.1619,271.3945
17:44:56:036,-7.7001,-5.4173,-0.2177,43.4278,0.0903,-0.229,-0.9298,271.0741
17:44:56:057,-6.9918,-4.611,0.4642,46.0773,-0.154,-0.5295,-0.7942,270.3248
17:44:56:076,-6.5587,-3.9601,1.2658,49.5862,-0.2261,-0.6712,-0.6366,269.3437
17:44:56:097,-6.0706,-3.3308,1.2538,45.623,-0.0367,-0.5417,-0.4484,268.5632
17:44:56:116,-5.5418,-3.1274,1.1246,46.4079,0.2455,-0.2705,-0.2334,268.1533
17:44:56:136,-5.0752,-3.0963,0.9308,44.5688,0.4434,-0.0775,-0.0428,267.9833
17:44:56:157,-4.6971,-3.5462,0.5527,44.518,0.5228,-0.1349,0.0818,267.7429
17:44:56:177,-3.6156,-5.0513,-0.5312,43.745,0.0989,-1.2406,-0.0208,266.9958
17:44:56:197,-4.3119,-5.3288,-1.2969,43.0584,-0.0306,-1.4825,-0.303,265.1922
17:44:56:216,-4.8383,-5.4748,-1.1964,41.251,-0.1968,-1.386,-0.6476,261.2355
17:44:56:236,-6.5611,-5.8935,-1.5601,40.0989,-0.369,-1.1294,-0.9481,259.8657
17:44:56:257,-8.059,-6.6185,-0.7442,40.3651,-0.6183,-0.863,-1.1155,258.8885
17:44:56:276,-9.533,-7.4178,-0.2441,36.0346,-0.7844,-0.6175,-1.1582,258.2669
17:44:56:296,-10.258,-7.736,0.548,38.1144,-0.8773,-0.4464,-1.0996,257.8308
17:44:56:316,-10.2485,-7.5494,1.2443,35.7711,-0.8858,-0.345,-0.9383,257.4831
17:44:56:336,-10.6385,-8.0351,1.4237,35.9815,-0.8345,-0.3731,-0.7306,257.0477
17:44:56:357,-10.1527,-9.4301,1.3232,36.5915,-0.8113,-0.5417,-0.4728,256.3387
17:44:56:378,-9.3535,-10.8012,0.9141,34.4168,-0.7881,-0.7238,-0.2627,255.3856
17:44:56:396,-8.4706,-11.3109,0.8255,37.6393,-0.6708,-0.6456,-0.2468,254.5088
17:44:56:416,-8.6907,-10.2556,0.6748,36.9525,-0.3947,-0.2009,-0.4313,254.238
17:44:56:437,-10.3442,-9.1908,0.0455,36.3667,-0.0147,0.5444,-0.6158,254.9441
17:44:56:457,-11.9402,-9.119,-0.414,33.4515,0.2369,1.3104,-0.4973,256.5973
17:44:56:478,-12.2369,-9.9326,-0.5336,32.6741,0.2565,1.8528,-0.0807,258.8956
17:44:56:496,-10.7438,-10.5045,-0.0431,32.1843,0.0903,2.1253,0.4129,261.5413
17:44:56:516,-9.1406,-9.8273,1.2179,30.495,-0.1308,2.1913,0.7049,264.3379
17:44:56:536,-8.2481,-8.26,2.2899,29.3991,-0.2346,2.1131,0.7574,267.1003
17:44:56:557,-8.4299,-6.2333,3.0389,41.2688,-0.209,1.8614,0.7257,269.6194
17:44:56:588,-8.8176,-4.6134,3.2231,53.2846,-0.0783,1.4888,0.8503,273.5049
17:44:56:599,-7.8796,-3.7615,2.8092,41.7665,0.4703,0.9915,1.7849,275.0149
17:44:56:623,-7.011,-4.3956,1.6104,33.5649,0.86,1.0306,2.3017,276.6972
17:44:56:639,-6.4271,-5.324,0.8901,33.5617,1.1092,1.176,2.7171,278.8281
17:44:56:656,-5.8624,-6.6066,0.3326,34.8792,1.2021,1.297,2.9956,281.2603
17:44:56:676,-5.3049,-7.7216,-0.0239,36.6292,1.1349,1.2701,3.1105,283.8578
17:44:56:698,-4.5703,-8.6525,-0.4331,38.5347,0.9248,1.0526,3.0494,286.3294
17:44:56:716,-3.7854,-9.1861,-0.6126,38.1421,0.5802,0.6458,2.8136,288.2072
17:44:56:738,-3.2566,-9.2291,-0.9787,39.3027,0.1795,0.173,2.408,289.2295
17:44:56:760,-3.3308,-9.2363,-1.5003,39.053,-0.2701,-0.2888,1.9132,289.1864
17:44:56:776,-3.7424,-9.7507,-1.7372,40.8073,-0.8137,-0.7311,1.4257,287.9742
17:44:56:796,-3.8501,-10.5021,-1.5529,41.1899,-1.4906,-1.3884,0.959,284.9395
17:44:56:816,-3.9865,-10.7031,-0.2871,40.0322,-2.2187,-2.3242,0.4825,279.2632
17:44:56:836,-3.7232,-9.9661,0.6078,38.8882,-2.6109,-2.973,0.0635,271.7089
17:44:56:856,-4.4195,-9.6359,1.1174,39.495,-2.5205,-2.9681,-0.27,264.2325
17:44:56:876,-5.1087,-10.3274,0.9117,39.259,-2.1087,-2.4464,-0.4618,258.3275
17:44:56:896,-4.6062,-10.8179,0.5791,39.8056,-1.6225,-1.7744,-0.562,254.3165
17:44:56:916,-4.2832,-11.3755,0.2058,39.132,-1.1925,-1.0939,-0.7563,252.1131
17:44:56:937,-3.7639,-10.8179,0.2393,38.2682,-0.8516,-0.4293,-1.0996,251.5367
17:44:56:956,-4.6899,-9.9613,0.7729,39.8634,-0.6097,0.1229,-1.5846,252.1556
17:44:56:976,-6.7645,-9.8154,0.9787,40.8088,-0.3788,0.5346,-2.022,253.5373
17:44:56:997,-8.6596,-10.3633,0.5432,39.6548,-0.0599,0.8498,-2.2419,255.3587
17:44:57:018,-9.4062,-10.4806,0.0622,38.322,0.2675,1.0892,-2.2333,257.4032
17:44:57:042,-9.2411,-9.5593,-0.3135,37.5751,0.5106,1.2114,-2.1381,259.4591
17:44:57:060,-8.4993,-7.6235,-0.2273,37.1231,0.5558,1.1015,-2.0745,261.2031
17:44:57:078,-7.5996,-6.1328,0.122,38.6491,0.5558,1.0013,-1.9658,262.6953
17:44:57:097,-6.9703,-4.0367,0.9356,40.4309,0.7965,1.1919,-1.6665,264.3071
17:44:57:118,-6.3338,-3.7041,1.127,41.0104,0.9749,1.2175,-1.4307,265.9598
17:44:57:144,-5.7858,-3.74,0.9045,40.7889,1.1997,1.1992,-1.2425,269.2151
17:44:57:164,-5.2905,-4.1803,0.5815,39.5377,1.3695,1.0709,-1.1497,270.6395
17:44:57:179,-5.9821,-4.1204,0.1842,38.9622,1.4037,0.735,-1.1814,271.6261
17:44:57:197,-4.8742,-5.3862,0.0191,37.8033,1.3267,0.3843,-1.2352,272.1744
17:44:57:218,-5.3815,-5.8002,-0.548,37.8977,1.262,0.1229,-1.3488,272.4067
17:44:57:245,-5.7954,-6.0419,-0.6508,36.9462,1.1166,-0.0213,-1.4405,272.4799
17:44:57:263,-6.6927,-6.2859,-0.4522,37.5771,0.9773,-0.0799,-1.5199,272.5024
17:44:57:287,-7.9011,-6.5515,-0.3972,35.8109,0.8429,-0.119,-1.5504,272.51
17:44:57:297,-9.0497,-6.9751,-0.4331,36.938,0.6707,-0.2155,-1.4478,272.4121
17:44:57:318,-9.7053,-7.456,-0.2584,35.6303,0.4483,-0.3365,-1.2034,272.148
17:44:57:341,-10.0499,-8.0016,-0.4403,37.0147,0.2369,-0.4245,-0.8858,271.747
17:44:57:360,-9.7507,-8.2696,-0.335,37.3767,0.0036,-0.4745,-0.5339,271.2217
17:44:57:378,-9.2291,-8.9803,-0.3063,35.8715,-0.3177,-0.5772,-0.2089,270.5107
17:44:57:398,-9.5474,-10.8419,0.2919,35.8696,-0.716,-0.6859,0.0366,269.6574
17:44:57:417,-10.0164,-12.8351,1.4046,36.4903,-1.0031,-0.6676,0.2089,268.798
17:44:57:438,-10.2652,-12.5862,2.735,36.2673,-1.1326,-0.7959,0.2357,267.8127
17:44:57:458,-11.6028,-9.8369,3.0628,36.0938,-1.0507,-1.0952,0.2015,266.4522
17:44:57:479,-13.6726,-7.8317,1.1366,34.2598,-0.7502,-1.3163,0.4288,264.782
17:44:57:500,-13.6439,-8.6213,-0.3446,34.7621,-0.5327,-1.1367,1.1594,263.2244
17:44:57:516,-12.1412,-10.3179,-0.8614,33.0571,-0.501,-0.5845,2.0463,262.2649
17:44:57:539,-9.9637,-11.2678,-0.8495,34.1595,-0.5608,0.0777,2.7097,262.083
17:44:57:563,-7.523,-10.2102,0.5599,39.0822,-0.8956,0.9378,3.1117,262.643
17:44:57:579,-7.1497,-9.2794,1.6534,46.088,-0.9396,1.1259,3.0983,263.7452
17:44:57:599,-6.6473,-8.4227,2.3043,37.5622,-0.6671,1.4216,3.108,267.6423
17:44:57:616,-6.9559,-7.0588,3.216,31.4877,-0.1015,1.9164,3.1569,270.9535
17:44:57:638,-6.3673,-6.4367,2.1703,34.9537,0.5326,2.2511,3.24,275.2937
17:44:57:661,-5.348,-6.4343,1.5075,36.8218,0.8392,2.1497,3.3108,280.0727
17:44:57:782,-4.5488,-6.4965,0.9069,37.8225,0.8405,1.6793,3.2436,284.543
17:44:57:782,-4.2305,-6.7358,0.725,38.8203,0.6645,1.0245,3.0665,288.1976
17:44:57:782,-3.8572,-7.0564,0.5551,39.7966,0.5094,0.3916,2.8282,290.8063
17:44:57:783,-3.5462,-7.3771,0.2991,42.5716,0.4654,-0.0726,2.5668,292.4949
17:44:57:783,-3.2806,-7.7695,-0.1244,41.0124,0.4874,-0.3414,2.2943,293.47
17:44:57:784,-2.857,-8.138,-0.481,41.9488,0.5204,-0.4513,2.0072,293.951
17:44:57:798,-2.4287,-8.6429,-0.9906,42.9545,0.5228,-0.4318,1.6859,294.2009
17:44:57:822,-2.0722,-9.5282,-1.1964,43.8022,0.4495,-0.3194,1.295,294.3915
17:44:57:839,-1.9645,-10.4758,-1.2993,41.4727,0.3127,-0.1679,0.7904,294.514
17:44:57:857,-2.4694,-10.7677,-0.7513,41.7046,0.1649,0.0178,0.1588,294.5584
17:44:57:877,-3.5844,-10.7318,-0.067,42.1227,0.1123,0.1937,-0.5315,294.463
17:44:57:897,-5.1135,-10.8227,0,43.7409,0.1624,0.2377,-1.1619,293.937
17:44:57:921,-6.9512,-11.0285,-0.2728,44.0678,0.2162,0.0716,-1.6665,292.6661
17:44:57:941,-8.3701,-10.6959,-1.529,42.8855,0.2101,-0.3401,-2.0024,290.4207
17:44:57:956,-8.0925,-9.7125,-2.9097,42.6085,0.0317,-0.7555,-2.1307,287.5446
17:44:57:977,-7.4848,-8.6309,-2.8355,40.9537,-0.435,-0.9595,-2.1662,284.6194
17:44:57:999,-8.7434,-9.064,-0.2201,41.2312,-1.2462,-0.7775,-2.2749,281.9667
17:44:58:019,-9.4899,-9.6335,0.4379,41.9556,-1.0544,-0.2705,-2.2505,279.8607
17:44:58:041,-9.3655,-9.3368,0.6867,40.9161,-0.5596,0.3403,-2.1503,279.222
17:44:58:062,-8.6046,-8.418,0.7466,42.2093,-0.0159,0.8217,-2.0415,280.2892
17:44:58:077,-7.6283,-7.267,0.7513,39.0142,0.4422,1.0783,-1.9963,281.7287
17:44:58:098,-7.456,-5.9868,0.457,38.6836,0.7391,1.0331,-2.0489,283.0154
17:44:58:120,-7.3125,-4.879,0.4164,39.2646,0.8392,0.7191,-2.0489,283.806
17:44:58:142,-7.0349,-4.3334,0.3781,41.403,0.8282,0.2841,-1.9731,284.0158
17:44:58:159,-6.6975,-3.9841,0.1627,41.3969,0.8319,-0.0897,-1.8436,283.7664
17:44:58:177,-6.719,-3.6538,-0.268,42.3167,0.8832,-0.2876,-1.7104,283.2906
17:44:58:199,-5.549,-4.7234,-0.0622,42.7419,0.8857,-0.3621,-1.5883,282.811
17:44:58:220,-5.6495,-4.946,-0.7155,42.1871,0.9834,-0.3059,-1.5602,282.4642
17:44:58:237,-5.4078,-5.4963,-0.1866,41.3623,1.0396,-0.075,-1.5614,282.4693
17:44:58:257,-5.4987,-6.2453,0.1507,39.8959,1.086,0.0813,-1.6029,282.7231
17:44:58:276,-6.4893,-6.9105,0.6532,39.937,1.1178,0.1363,-1.6457,283.0667
17:44:58:296,-7.6283,-7.0062,0.055,41.1746,1.1374,0.0264,-1.6384,283.3125
17:44:58:318,-8.5472,-7.0732,-0.3613,40.4592,1.0531,-0.2106,-1.5235,283.3008
17:44:58:339,-9.0736,-7.5853,-0.7466,41.485,0.8515,-0.4305,-1.3134,283.0319
17:44:58:357,-9.4397,-7.9059,-1.005,41.1227,0.579,-0.6333,-1.0629,282.5139
17:44:58:377,-9.6622,-8.0758,-1.2706,41.173,0.2479,-0.8288,-0.7917,281.7351
17:44:58:396,-9.6526,-8.2505,-1.0217,43.5989,-0.1222,-0.9644,-0.4948,280.7853
17:44:58:416,-9.4852,-8.2935,-0.2871,43.2431,-0.4765,-1.0243,-0.1931,279.7201
17:44:58:438,-10.1192,-9.3918,-0.4068,45.068,-0.705,-1.0267,0.0842,278.6185
17:44:58:458,-10.1791,-10.9807,0.1699,43.8063,-0.9029,-0.9706,0.3958,277.5307
17:44:58:477,-9.0401,-10.9161,0.7442,45.1092,-0.9029,-0.7775,0.7696,276.5301
17:44:58:499,-8.9827,-10.2533,1.1007,47.3419,-0.8113,-0.7836,0.788,274.6169
17:44:58:522,-9.411,-10.6074,0.5001,47.9875,-0.5315,-0.6321,0.8637,273.9063
17:44:58:536,-9.1358,-10.8562,-0.5192,50.0739,-0.1528,-0.163,1.0445,273.7102
17:44:58:557,-8.4299,-10.7605,-0.9739,49.5208,0.1026,0.4857,1.2424,274.3269
17:44:58:577,-7.5661,-10.0116,-0.201,49.7085,0.1465,1.0612,1.3609,275.6603
17:44:58:600,-6.9583,-8.6046,1.0289,50.0171,0.1221,1.4155,1.3878,277.5116
17:44:58:617,-6.4247,-7.0971,1.6558,52.2458,0.1893,1.5425,1.4074,279.5875
17:44:58:639,-6.1161,-6.1807,1.5936,59.1121,0.32,1.5181,1.4734,281.7085
17:44:58:657,-5.7523,-5.6207,1.127,60.7412,0.4434,1.435,1.5833,283.7708
17:44:58:676,-5.458,-5.1254,0.4762,52.8527,0.5204,1.3715,1.7006,285.7747
17:44:58:696,-5.4102,-4.9077,-0.1507,48.0735,0.5082,1.3421,1.8154,287.7707
17:44:58:721,-5.482,-5.0034,-0.6532,51.3064,0.3787,1.3385,1.9498,289.8771
17:44:58:737,-5.5466,-5.4317,-0.8375,52.4841,0.1368,1.3593,2.0989,292.1779
17:44:58:760,-5.4556,-6.1807,-0.6628,56.5378,-0.1687,1.3861,2.2381,294.7067
17:44:58:781,-5.3384,-6.9942,-0.3517,58.4826,-0.4778,1.3678,2.3237,297.457
17:44:58:805,-5.2738,-7.9801,-0.0383,57.0196,-0.7563,1.2615,2.3408,300.3197
17:44:58:819,-4.855,-8.662,0.1005,57.0196,-0.9933,1.0612,2.2821,303.1064
17:44:58:836,-4.4985,-9.2387,0.1053,57.0196,-1.2034,0.763,2.138,305.5702
17:44:58:857,-4.3454,-9.9398,-0.0072,57.0196,-1.4136,0.3758,1.9071,307.4224
17:44:58:877,-4.3837,-10.6552,0.0598,57.0196,-1.6189,-0.0714,1.6029,308.3843
17:44:58:900,-4.3645,-11.275,0.2441,57.0196,-1.741,-0.4672,1.2424,308.3719
17:44:58:918,-4.3023,-11.4257,0.6317,58.4462,-1.7154,-0.7616,0.8332,307.4273
17:44:58:953,-5.08,-11.6076,0.0742,60.3359,-1.2157,-0.9706,-0.0501,303.269
17:44:58:958,-5.1685,-11.5717,-0.3398,60.3359,-0.9335,-0.9644,-0.4545,300.6623
17:44:58:976,-4.5823,-10.8323,-0.1268,60.5487,-0.7441,-0.9706,-0.8528,297.796
17:44:58:998,-4.7402,-9.7771,0.5551,59.2431,-0.5791,-0.962,-1.289,294.7832
17:44:59:018,-5.6495,-9.2578,0.9308,58.9392,-0.2798,-0.8667,-1.6934,291.9465
17:44:59:035,-7.1545,-9.4277,0.268,58.2463,0.1697,-0.7421,-1.9927,289.4942
17:44:59:055,-8.4491,-9.8393,-0.95,61.1236,0.5974,-0.6553,-2.1527,287.464
17:44:59:075,-8.8128,-9.5617,-1.6558,59.2063,0.8282,-0.6126,-2.1808,285.8147
17:44:59:096,-8.5448,-8.3557,-1.7707,59.8238,0.8881,-0.5393,-2.1381,284.5256
17:44:59:115,-7.7121,-6.9512,-1.5099,57.3817,0.8576,-0.4355,-2.0403,283.6048
17:44:59:135,-6.9033,-5.8289,-1.0457,58.2478,0.7831,-0.3353,-1.9157,282.9983
17:44:59:156,-6.5539,-5.0154,-0.7107,55.8986,0.7049,-0.2693,-1.8033,282.5838
17:44:59:175,-6.1831,-4.386,-0.5767,55.1482,0.6511,-0.2778,-1.686,282.218
17:44:59:195,-5.9438,-3.9242,-0.4738,56.9486,0.5961,-0.3181,-1.5541,281.8322
17:44:59:217,-5.6925,-3.7113,-0.5384,57.791,0.5595,-0.3206,-1.4282,281.4854
17:44:59:237,-5.6112,-3.8261,-0.7346,58.3375,0.5412,-0.2558,-1.3061,281.2716
17:44:59:257,-5.7188,-4.1252,-0.8016,59.3273,0.5143,-0.141,-1.1888,281.2492
17:44:59:276,-5.9079,-4.5296,-1.084,59.4998,0.4825,-0.0384,-1.0947,281.3826
17:44:59:299,-6.0634,-5.0847,-1.3495,57.1595,0.3945,0.0398,-1.0031,281.633
17:44:59:317,-6.384,-5.817,-1.3735,60.4224,0.2345,0.0801,-0.942,281.9147
17:44:59:336,-6.7717,-6.4965,-1.1031,59.0113,0.0268,0.0447,-0.9115,282.1409
17:44:59:356,-7.3747,-6.9344,-0.6341,57.7389,-0.1772,-0.086,-0.9151,282.2082
17:44:59:379,-8.0255,-7.6187,-0.6054,55.9595,-0.3177,-0.2424,-0.9005,282.0446
17:44:59:402,-8.5878,-8.8199,-0.1699,57.7026,-0.468,-0.5051,-0.7734,281.1274
17:44:59:420,-9.0832,-8.674,-0.0981,56.9065,-0.4106,-0.5087,-0.7343,280.6471
17:44:59:435,-9.1047,-8.3988,0.1292,57.8954,-0.3006,-0.4293,-0.6598,280.2635
17:44:59:455,-9.9182,-9.131,-0.6102,57.8954,-0.1283,-0.3267,-0.5364,279.9832
17:44:59:475,-9.7867,-10.1934,-0.9882,57.2927,-0.0624,-0.2094,-0.3299,279.8359
17:44:59:502,-9.5713,-10.6528,-0.9284,58.5114,-0.088,-0.1227,-0.1723,279.7965
17:44:59:516,-9.2841,-10.2867,-0.6413,56.9157,-0.1076,-0.0848,-0.1466,279.8065
17:44:59:535,-9.7149,-9.2339,-0.6915,59.4701,-0.0917,-0.0811,-0.1698,279.8093
17:44:59:558,-10.4854,-9.0856,-1.0576,58.2842,-0.0086,0.0826,-0.0843,280.0219
17:44:59:576,-11.2176,-9.3392,-1.3424,60.6916,0.0317,0.399,0.1637,280.6072
17:44:59:598,-11.3683,-9.7268,-1.4142,59.975,0.0158,0.8034,0.5351,281.7017
17:44:59:616,-10.2461,-9.4612,-0.2823,61.0903,-0.1002,1.1601,0.9553,283.2379
17:44:59:636,-9.2339,-8.6046,0.8829,58.5492,-0.2102,1.3397,1.273,285.0687
17:44:59:655,-8.4323,-7.3914,1.8042,59.475,-0.2395,1.297,1.4941,286.9344
17:44:59:675,-8.1021,-6.4845,2.3019,64.1104,-0.1821,1.0929,1.6981,288.6204
17:44:59:695,-7.9155,-6.0179,2.2325,72.34,-0.0306,0.8021,1.9486,290.03
17:44:59:715,-7.5302,-5.8002,1.6199,58.9727,0.16,0.5273,2.2565,291.0647
17:44:59:735,-6.9296,-6.006,0.6628,54.2093,0.3005,0.3061,2.5753,291.7719
17:44:59:755,-6.3099,-6.3864,0.0431,55.3111,0.3322,0.1766,2.8478,292.3612
17:44:59:776,-5.7284,-7.0229,-0.3637,57.0737,0.2846,0.1436,3.0323,292.9819
17:44:59:843,-5.1733,-7.6666,-0.4834,58.0017,0.1893,0.1693,3.1105,293.7275
17:44:59:843,-4.4339,-8.26,-0.28,58.0431,0.0696,0.2047,3.075,295.5532
17:44:59:844,-3.9505,-8.5735,-0.3135,58.6252,-0.0343,0.1998,2.9187,296.5541
17:44:59:855,-3.0508,-8.4132,-0.7466,59.0443,-0.2505,0.1339,2.4434,297.5157
17:44:59:875,-2.4024,-8.8941,-0.7513,59.5144,-0.424,0.0923,2.1319,298.5085
17:44:59:901,-2.1727,-9.4325,-0.7872,57.1303,-0.6158,-0.0213,1.6676,299.1613
17:44:59:921,-2.6034,-9.7986,-0.6485,58.0364,-0.782,-0.1251,1.1019,299.3162
17:44:59:935,-3.1729,-9.7053,-0.1029,58.5512,-0.843,-0.1178,0.518,299.1825
17:44:59:955,-4.2712,-9.734,-0.0526,58.711,-0.7282,0.0142,-0.0098,299.0899
17:44:59:977,-5.1039,-10.2963,-0.2871,57.2055,-0.5413,0.1925,-0.4252,299.2011
17:44:59:996,-5.6542,-11.4377,-1.017,56.5951,-0.4203,0.2646,-0.7624,299.2691
17:45:00:016,-5.0417,-11.9833,-1.1079,58.2286,-0.4521,0.2084,-1.1106,298.9477
17:45:00:034,-4.8192,-10.8562,-0.0742,55.5626,-0.5621,0.1143,-1.5834,298.1664
17:45:00:054,-5.7834,-9.9876,1.0792,55.8146,-0.5242,0.1082,-2.1271,297.1354
17:45:00:077,-7.8461,-10.0666,1.0648,56.4201,-0.2444,0.1009,-2.5693,296.0226
17:45:00:095,-9.9733,-10.6361,0.2584,55.6359,0.1136,-0.0408,-2.8076,294.7477
17:45:00:115,-11.1625,-10.2245,-0.9236,55.4746,0.3237,-0.4355,-2.8161,293.0561
17:45:00:135,-11.4521,-8.3605,-1.3639,55.2793,0.3054,-0.8337,-2.6096,291.0566
17:45:00:155,-11.0309,-5.7045,-1.5314,52.5609,0.2626,-0.841,-2.1735,289.3694
17:45:00:177,-9.4014,-4.1898,-1.809,51.9798,0.3127,-0.4611,-1.5431,288.4957
17:45:00:207,-7.3364,-4.2496,-1.5099,52.3108,0.2944,-0.0139,-0.9481,288.5031
17:45:00:218,-4.8024,-4.1659,0.2082,52.1175,-0.0355,-0.1215,-0.5901,288.2815
17:45:00:237,-4.398,-3.8166,0.1268,52.7123,-0.0294,-0.4037,-0.6805,287.641
17:45:00:260,-4.197,-3.8237,-0.4379,55.3281,0.0573,-0.5466,-0.7722,286.8148
17:45:00:276,-3.862,-4.185,-1.0887,55.7399,0.0952,-0.5772,-0.8699,285.9629
17:45:00:296,-4.4985,-4.6038,-1.1844,53.8232,0.006,-0.5515,-1.0397,285.187
17:45:00:318,-4.9795,-5.3168,-1.0146,52.2381,-0.1687,-0.6138,-1.2486,284.2571
17:45:00:335,-6.274,-5.8146,-0.8829,53.2595,-0.3715,-0.7775,-1.4612,283.1987
17:45:00:354,-7.7169,-6.3793,-0.201,53.2374,-0.5132,-0.8704,-1.6042,282.0429
17:45:00:375,-8.3677,-7.681,1.6199,52.171,-0.5034,-0.8655,-1.6261,280.928
17:45:00:394,-9.1334,-8.9683,2.6345,51.5122,-0.2517,-0.9706,-1.708,279.6947
17:45:00:415,-10.3418,-8.7769,3.3882,52.1361,-0.0563,-1.6572,-1.9145,277.6828
17:45:00:435,-10.7892,-9.2483,3.6156,51.2065,-0.0831,-2.7152,-1.8937,274.4409
17:45:00:456,-10.3083,-9.1765,2.2875,51.6768,0.094,-3.2674,-1.5956,270.623
17:45:00:475,-9.4684,-9.5856,1.2706,50.2096,0.4715,-2.7726,-1.2657,267.4714
17:45:00:495,-10.6887,-9.7531,-0.3685,50.9593,0.7806,-1.7036,-0.9066,265.5814
17:45:00:514,-10.2509,-9.9422,-0.7035,50.0526,0.7574,-0.6822,-0.4924,264.8695
17:45:00:534,-9.3942,-9.6096,0.6915,50.6415,0.4764,0.0826,-0.1503,265.0247
17:45:00:554,-9.8225,-8.997,1.663,51.5732,0.3212,0.6995,0.0317,265.8911
17:45:00:574,-10.5188,-9.1669,1.2778,49.7627,0.3725,1.2933,0.2724,267.3918
17:45:00:594,-10.2963,-10.0834,0.2728,52.1156,0.4007,1.8492,0.6511,269.5167
17:45:00:614,-9.7507,-10.6313,0.3039,53.4727,0.1832,2.2731,1.0042,272.1299
17:45:00:634,-8.7577,-9.9852,1.0289,52.2988,-0.1833,2.5541,1.229,275.1614
17:45:00:656,-7.9633,-8.8654,2.4024,53.2378,-0.4057,2.807,1.3768,278.5897
17:45:00:674,-7.6283,-7.5422,3.5342,55.9488,-0.3397,3.1063,1.4856,282.5655
17:45:00:694,-7.5589,-6.384,4.0845,61.5234,-0.005,3.3201,1.6248,286.9679
17:45:00:716,-7.3149,-5.6207,3.9841,64.8466,0.441,3.3775,1.8533,291.6555
17:45:00:736,-6.9535,-5.2786,3.4744,55.2875,0.8686,3.2566,2.1465,296.2967
17:45:00:759,-6.2812,-5.3982,2.601,50.4011,1.2082,3.0672,2.4422,300.8563
17:45:00:782,-5.391,-6.1567,0.5647,54.118,1.3353,2.504,2.7818,309.6672
17:45:00:795,-5.3073,-6.9823,-0.1436,56.4076,1.0958,2.1473,2.8209,313.7112
17:45:00:816,-5.1637,-7.8963,-0.5647,57.7765,0.7378,1.7636,2.7977,317.4108
17:45:00:835,-4.8503,-8.729,-0.5767,56.466,0.3054,1.3556,2.7122,320.7042
17:45:00:856,-4.5057,-9.3679,-0.457,58.9846,-0.1076,0.9634,2.5253,323.5081
17:45:00:878,-4.3502,-9.7388,-0.3063,59.3108,-0.4484,0.603,2.2394,325.744
17:45:00:896,-4.4794,-10.258,-0.3206,60.7536,-0.7099,0.3013,1.9009,327.3908
17:45:00:916,-4.4698,-10.5858,-0.134,58.8737,-0.9261,0.0557,1.5479,328.4556
17:45:00:938,-4.3693,-10.593,0.3374,61.4787,-1.0898,-0.1679,1.1765,328.8527
17:45:00:957,-4.2927,-10.3179,0.8447,61.4787,-1.168,-0.3792,0.7855,328.4631
17:45:00:976,-4.7809,-10.6217,0.9882,60.6743,-1.1509,-0.5759,0.4104,327.2979
17:45:00:994,-4.9843,-11.5167,0.7657,60.121,-1.0459,-0.7042,0.0916,325.4817
17:45:01:014,-4.5464,-12.2967,0.5623,61.8126,-0.876,-0.7177,-0.2224,323.3074
17:45:01:034,-3.4959,-11.6435,1.151,61.4374,-0.6121,-0.5588,-0.65,321.079
17:45:01:054,-3.3428,-9.3727,2.4981,59.8773,-0.2065,-0.3194,-1.2511,318.939
17:45:01:077,-5.2403,-8.0734,2.5005,59.0055,0.419,-0.1288,-1.8839,316.9364
17:45:01:094,-7.8221,-7.6953,1.06,61.9352,1.1227,-0.0494,-2.2627,315.2047
17:45:01:114,-9.4852,-7.9633,-0.7107,58.5912,1.5943,-0.1557,-2.2162,313.6752
17:45:01:134,-9.2554,-8.351,-2.1176,58.4929,1.7177,-0.3389,-1.8558,312.2536
17:45:01:161,-7.6833,-8.0542,-2.5555,57.7765,1.5711,-0.3878,-1.46,311.0715
17:45:01:181,-6.1639,-7.669,-2.4144,56.4764,1.3194,-0.229,-1.245,310.3128
17:45:01:198,-5.4341,-6.9512,-1.8257,54.6411,1.0555,-0.0127,-1.2352,309.9822
17:45:01:221,-5.8959,-5.7021,-0.1029,53.0725,0.7855,0.2927,-1.3562,310.2684
17:45:01:241,-5.9629,-5.3839,0,51.9035,0.904,0.4234,-1.2914,310.7097
17:45:01:255,-5.7165,-5.2451,-0.4235,49.9375,1.0958,0.5407,-1.1778,311.3098
17:45:01:279,-5.4556,-5.2522,-0.8351,56.531,1.2204,0.6177,-1.0825,312.0013
17:45:01:294,-5.2977,-5.4413,-1.206,61.4251,1.2449,0.6604,-1.0287,312.7613
17:45:01:314,-5.2738,-5.8744,-1.4237,61.6365,1.2119,0.6849,-1.008,313.5795
17:45:01:334,-5.324,-6.4917,-1.5745,59.9645,1.1532,0.6812,-1.0238,314.4481
17:45:01:355,-5.4173,-7.0636,-1.7037,57.7937,1.0934,0.6482,-1.1033,315.2721
17:45:01:374,-5.5825,-7.5853,-1.6056,55.3546,1.0445,0.6348,-1.2474,316.0713
17:45:01:394,-6.1807,-7.9346,-1.2203,55.2667,1.0005,0.6116,-1.4453,316.8652
17:45:01:414,-7.1521,-8.4682,-0.6102,56.5713,0.9944,0.5761,-1.6237,317.6335
17:45:01:434,-8.0303,-8.8846,-0.0814,54.6936,1.0567,0.5101,-1.7056,318.3493
17:45:01:458,-8.5926,-9.0951,-0.2656,54.6126,1.251,0.4405,-1.6689,319.0046
17:45:01:476,-8.6213,-9.1669,-1.2156,53.6466,1.4978,0.3843,-1.5614,319.6053
17:45:01:495,-8.8319,-9.131,-2.3904,53.8251,1.5992,0.3049,-1.4624,320.1374
17:45:01:517,-9.6311,-9.4158,-3.4863,54.6433,1.3841,0.1473,-1.394,320.5294
17:45:01:537,-10.7007,-9.7723,-3.6514,54.5596,0.8405,-0.053,-1.2437,320.6808
17:45:01:559,-11.2965,-10.5428,-3.0245,53.9481,0.1685,-0.141,-0.9457,320.7045
17:45:01:577,-10.9472,-11.2606,-1.7731,54.8386,-0.3959,-0.0897,-0.5523,320.7142
17:45:01:596,-9.4229,-11.7583,1.6056,52.4618,-0.7343,-0.0738,-0.2371,320.6674
17:45:01:614,-10.0403,-9.5234,0.1412,54.7429,-0.9432,-0.4489,-0.1662,320.1826
17:45:01:636,-10.7222,-9.0233,-0.6221,54.0306,-0.8406,0.1009,0.0867,320.3319
17:45:01:658,-10.3466,-9.2195,-0.4068,53.3415,-0.5425,1.198,0.6157,321.6917
17:45:01:678,-8.595,-8.4084,1.2299,52.7694,-0.5132,2.5565,1.5222,324.077
17:45:01:696,-8.059,-7.547,1.5123,52.5868,-0.5156,2.664,1.7519,327.1841
17:45:01:715,-7.5589,-6.7167,1.6271,51.2917,-0.5584,2.4784,1.9376,330.435
17:45:01:736,-6.9535,-6.1065,1.6271,58.8208,-0.6341,2.0605,2.1184,336.4136
17:45:01:757,-6.2237,-6.006,1.3998,72.3919,-0.7074,1.5963,2.2956,338.8758
17:45:01:775,-5.391,-6.1017,1.0433,56.3564,-0.7759,1.1467,2.4129,340.7055
17:45:01:796,-4.7258,-6.4678,0.8423,47.5782,-0.8699,0.7337,2.4373,342.0544
17:45:01:815,-4.2281,-6.92,0.5982,48.407,-0.9664,0.3965,2.3676,343.1083
17:45:01:836,-3.8022,-7.3842,0.4259,50.0549,-1.0532,0.1693,2.2296,343.946
17:45:01:971,-3.5677,-7.8293,0.4068,50.5143,-1.1131,0.085,2.0317,344.6616
17:45:01:973,-3.5892,-8.2002,0.3948,52.351,-1.1363,0.1436,1.7886,345.4855
17:45:01:974,-3.7878,-8.5759,0.4642,51.549,-1.1363,0.3135,1.5222,346.5226
17:45:01:975,-4.0295,-8.7577,0.7346,50.8213,-1.1411,0.4979,1.2437,347.7931
17:45:01:976,-4.5248,-9.2937,1.1653,52.975,-1.2144,0.4882,0.9444,348.9092
17:45:01:977,-5.2451,-9.8513,1.4812,52.4662,-1.3391,0.1681,0.6328,349.3124
17:45:01:978,-5.683,-10.1934,1.8736,51.5533,-1.4209,-0.251,0.3775,348.8727
17:45:01:997,-6.0754,-10.0068,2.2445,52.7952,-1.3403,-0.51,0.1954,347.8914
17:45:02:016,-6.4798,-9.7914,2.3665,51.0588,-1.0996,-0.582,0.0623,346.688
17:45:02:039,-6.7238,-9.5043,2.6441,49.9542,-0.7661,-0.5735,0.028,345.4724
17:45:02:055,-6.1328,-10.4686,1.5314,50.1235,-0.3727,-0.6273,0.1038,344.2198
17:45:02:074,-4.989,-11.0907,1.151,49.9395,-0.0086,-0.6321,0.1331,342.9488
17:45:02:095,-3.7256,-11.7751,-0.0598,48.9967,0.3872,-0.5442,0.0061,341.6898
17:45:02:116,-2.8044,-10.6265,-0.4714,49.1662,0.7427,-0.2766,-0.3494,340.6393
17:45:02:138,-4.6828,-9.4923,0.1914,48.0231,1.1422,0.0764,-1.1668,339.7588
17:45:02:155,-5.884,-10.0834,-0.335,46.0004,1.4306,0.1449,-1.3598,338.2615
17:45:02:176,-6.4271,-10.4136,-1.0576,46.0643,1.7409,0.228,-1.4368,337.7804
17:45:02:196,-6.4558,-9.9063,-1.474,45.5714,1.94,0.333,-1.4661,337.5675
17:45:02:215,-6.2596,-8.8846,-1.6845,43.4727,2.0255,0.41,-1.4844,337.5934
17:45:02:239,-5.7667,-7.6786,-1.7348,44.3875,2.0072,0.4002,-1.4759,337.6989
17:45:02:258,-4.788,-6.9081,-1.7707,43.4192,1.9205,0.3538,-1.4649,337.8254
17:45:02:275,-3.6108,-6.7238,-2.1057,42.4606,1.8777,0.4393,-1.5235,338.1218
17:45:02:294,-3.5701,-6.4439,-2.4383,44.8465,1.9131,0.7411,-1.6848,338.868
17:45:02:314,-4.0558,-6.2429,-2.2014,45.3212,1.951,1.165,-1.7948,340.2167
17:45:02:338,-5.1039,-6.2285,-1.8281,45.2205,2.0219,1.545,-1.763,342.113
17:45:02:356,-5.2379,-5.738,-2.0052,45.7365,2.1453,1.9188,-1.6152,344.536
17:45:02:375,-5.1685,-6.8506,-2.5005,43.2701,2.1758,2.0397,-1.4991,347.1188
17:45:02:394,-5.8289,-7.0134,-2.4981,42.4158,2.0304,1.9518,-1.4075,349.6145
17:45:02:417,-6.0562,-7.4489,-2.3186,41.2842,1.8533,1.7746,-1.3256,351.878
17:45:02:437,-6.4654,-7.4824,-2.0459,39.7123,1.6407,1.4289,-1.2792,353.7242
17:45:02:455,-7.2718,-7.2,-1.9454,40.3399,1.3817,0.862,-1.245,354.9328
17:45:02:476,-7.9035,-7.3125,-2.1224,40.8555,1.1422,0.2951,-1.1069,355.4684
17:45:02:494,-8.0925,-7.9346,-2.6297,41.3276,0.9602,-0.0811,-0.8443,355.5462
17:45:02:516,-7.8245,-8.5376,-3.2495,38.1379,0.7794,-0.2412,-0.5425,355.4222
17:45:02:536,-7.4321,-8.9133,-3.673,38.1672,0.5289,-0.2339,-0.292,355.2436
17:45:02:555,-7.145,-8.8032,-3.3787,37.2336,0.1722,-0.1337,-0.1112,355.1554
17:45:02:574,-7.858,-9.1358,-2.9336,36.6143,-0.2371,-0.0262,0.0183,355.1909
17:45:02:595,-7.9968,-11.9785,-1.6965,37.4145,-1.0251,0.2414,0.4434,355.6867
17:45:02:620,-7.054,-12.6174,-0.2225,35.6835,-1.2865,0.3232,0.5448,355.9761
17:45:02:640,-6.7382,-12.1866,0.7035,36.0827,-1.2523,0.3831,0.4386,356.351
17:45:02:659,-7.523,-12.0335,0.2417,35.2262,-0.9041,0.559,0.2431,356.9884
17:45:02:677,-8.4443,-11.8181,-0.5551,34.4143,-0.4936,0.8962,0.1246,358.0725
17:45:02:693,-9.1167,-11.3396,-1.2347,34.2858,-0.2334,1.297,0.1282,359.6652
17:45:02:714,-9.0664,-10.1432,-1.0193,36.9128,-0.1503,1.7111,0.2284,1.785
17:45:02:737,-8.9779,-8.4538,-0.1316,34.5257,-0.1638,2.0911,0.3799,4.3723
17:45:02:756,-9.0066,-6.9224,0.7681,38.3597,-0.1626,2.3427,0.59,7.3189
17:45:02:774,-8.8439,-5.8313,1.4883,37.6461,-0.1161,2.3953,0.893,10.3657
17:45:02:795,-8.339,-5.0991,1.6487,38.7517,-0.0379,2.2157,1.2632,13.2941
17:45:02:820,-7.5876,-4.8718,1.1318,37.7077,-0.0074,1.8357,1.6383,15.8724
17:45:02:837,-6.987,-4.9627,0.5432,29.544,-0.1198,1.3336,1.9596,17.9049
17:45:02:855,-6.4678,-5.391,0.1938,30.1088,-0.3495,0.8461,2.2333,19.4586
17:45:02:876,-6.0203,-6.1208,-0.0479,30.2382,-0.6073,0.4613,2.4581,20.6885
17:45:02:894,-5.5537,-7.0158,-0.0885,32.2756,-0.8479,0.1705,2.6303,21.6771
17:45:02:915,-5.0225,-8.0782,-0.1101,30.552,-1.0495,-0.0237,2.7256,22.563
17:45:02:935,-4.544,-8.9922,-0.0861,32.7801,-1.2034,-0.1459,2.7134,23.3723
17:45:02:953,-4.0223,-9.5761,0.2297,34.7117,-1.3098,-0.2021,2.5851,24.169
17:45:02:975,-3.6873,-9.8154,0.5216,35.6473,-1.3427,-0.2229,2.3347,24.9352
17:45:02:994,-3.8309,-10.3944,0.8614,34.8804,-1.2902,-0.2058,1.9877,25.6406
17:45:03:016,-4.3071,-11.0261,0.9715,34.1521,-1.179,-0.2094,1.5967,26.1548
17:45:03:037,-4.8981,-11.4377,1.0576,34.9796,-1.0397,-0.2913,1.2107,26.2878
17:45:03:060,-5.6877,-11.6866,0.9332,35.6847,-0.6964,-0.5784,0.6206,25.0599
17:45:03:075,-5.6207,-12.0622,0.4786,37.4976,-0.4814,-0.7042,0.4251,23.832
17:45:03:096,-4.7402,-12.3924,0.0072,38.2294,-0.3165,-0.8178,0.248,22.1969
17:45:03:117,-3.082,-11.72,0.3398,36.0898,-0.2053,-0.907,-0.0049,20.1573
17:45:03:141,-2.4694,-10.5284,1.0576,37.1306,-0.0392,-0.8875,-0.4191,17.8488
17:45:03:153,-3.7711,-9.7436,1.2538,37.8487,0.3457,-0.7128,-0.909,15.5901
17:45:03:173,-5.1781,-9.9422,0.2249,39.602,0.9162,-0.4464,-1.2609,13.7884
17:45:03:192,-6.5803,-10.4518,-1.1773,40.5718,1.3805,-0.3267,-1.4563,12.3506
17:45:03:214,-7.2191,-10.3083,-2.3067,38.7689,1.4904,-0.5515,-1.6054,10.7229
17:45:03:233,-7.3364,-9.0951,-3.0317,40.4195,1.1887,-1.1563,-1.7459,8.2917
17:45:03:253,-7.0349,-7.7288,-2.8187,39.1067,0.5741,-1.8783,-1.8363,4.9194
17:45:03:274,-6.3625,-6.4893,-1.8568,38.2569,-0.0477,-2.4085,-1.8412,0.9545
17:45:03:294,-5.9533,-5.6542,-1.1342,40.1414,-0.3702,-2.4672,-1.7679,357.1708
17:45:03:316,-5.7691,-4.9795,-0.5384,38.3204,-0.3544,-2.0481,-1.6347,354.2284
17:45:03:334,-5.7571,-4.3956,-0.524,35.1105,-0.088,-1.3701,-1.4649,352.4532
17:45:03:355,-5.458,-4.0152,-0.8399,34.6637,0.2284,-0.67,-1.2584,351.74
17:45:03:374,-5.0895,-3.9793,-1.1533,34.8919,0.397,-0.1593,-1.0727,351.7482
17:45:03:394,-5.0895,-4.0582,-0.8016,39.8884,0.3738,0.0899,-0.9774,352.1179
17:45:03:418,-5.5513,-4.922,0.2871,43.955,0.2137,-0.053,-0.9127,352.2798
17:45:03:437,-5.5155,-5.0154,-0.9236,43.0964,0.0854,-0.3108,-0.8882,352.137
17:45:03:453,-5.3288,-5.8313,-0.682,44.174,0.1722,-0.334,-0.9005,351.9941
17:45:03:474,-5.4796,-6.5228,-1.3328,43.1194,0.171,-0.2668,-0.9505,351.9584
17:45:03:496,-5.9151,-7.0445,-1.4979,42.9698,0.1661,-0.2253,-1.0703,352.0417
17:45:03:517,-7.8102,-8.0495,-1.7492,43.4585,-0.0208,-0.0787,-1.2572,352.236
17:45:03:533,-8.4156,-8.7577,-1.5529,43.5196,-0.1088,0.0593,-1.223,352.3791
17:45:03:554,-8.9779,-9.1478,-1.4764,43.6156,-0.1369,0.2218,-1.168,353.5353
17:45:03:574,-9.3416,-9.1717,-1.3567,42.5245,-0.1858,0.3183,-1.0886,354.3411
17:45:03:595,-9.9828,-9.7914,-1.4142,44.896,-0.3238,0.2866,-0.9676,355.0815
17:45:03:621,-10.3561,-10.7821,-1.1198,45.5082,-0.5621,0.1473,-0.7905,355.632
17:45:03:635,-10.4997,-12.0072,-0.8447,45.4476,-0.8137,-0.0066,-0.5889,355.958
17:45:03:655,-9.7627,-12.2201,0.2106,47.238,-0.9469,-0.0591,-0.4252,356.186
17:45:03:674,-9.3224,-10.7198,1.1844,47.0655,-0.832,0.019,-0.3849,356.4834
17:45:03:698,-10.0953,-9.4493,0.5791,47.5361,-0.457,0.2182,-0.4044,357.0504
17:45:03:714,-11.2511,-8.8295,-0.1723,47.8657,-0.1234,0.5322,-0.2346,358.0179
17:45:03:734,-11.8014,-8.9133,-0.3948,49.3412,0.0121,0.9109,0.2003,359.4742
17:45:03:754,-10.5571,-8.8008,0.3278,50.8209,0.0378,1.2872,0.7953,1.3766
17:45:03:773,-9.2004,-8.339,1.1103,50.7161,0.083,1.6085,1.3096,3.6735
17:45:03:795,-8.0542,-7.5565,1.7755,52.3455,0.182,1.8064,1.6542,6.2633
17:45:03:815,-7.4106,-6.9535,2.1272,54.1213,0.2956,1.8186,1.89,8.9388
17:45:03:844,-6.9703,-6.5013,2.2971,54.9071,0.3897,1.6293,2.083,11.4508
17:45:03:853,-6.4247,-6.14,2.0506,49.2333,0.4727,1.3055,2.2601,13.5889
17:45:03:876,-5.805,-6.0155,1.6032,44.9465,0.5436,0.95,2.4141,15.2933
17:45:03:908,-5.2953,-6.0873,1.005,48.4982,0.5863,0.6335,2.5253,16.6609
17:45:03:913,-4.7856,-6.25,0.4929,53.3893,0.5937,0.4259,2.5961,17.83
17:45:03:933,-4.331,-6.597,-0.0574,52.5407,0.5888,0.3684,2.6181,18.9601
17:45:03:953,-3.8907,-6.9942,-0.4307,54.3465,0.5326,0.4124,2.5876,20.1749
17:45:04:044,-3.2806,-8.0877,-0.6963,54.6893,0.2369,0.5517,2.3114,22.9693
17:45:04:045,-3.1035,-8.6501,-0.6365,55.9334,0.0354,0.57,2.039,24.6206
17:45:04:045,-3.2231,-8.9085,-0.3685,55.9937,-0.176,0.5016,1.6798,26.1288
17:45:04:046,-3.8764,-9.3966,-0.256,57.2961,-0.3605,0.3648,1.2803,27.3161
17:45:04:054,-4.4937,-10.0403,-0.2632,58.7186,-0.4998,0.2023,0.9187,28.0593
17:45:04:074,-4.9268,-10.4088,-0.0718,58.1291,-0.6195,0.0032,0.5839,28.2393
17:45:04:095,-5.2738,-10.3035,0.1196,58.7073,-0.7099,-0.2436,0.2565,27.7136
17:45:04:115,-5.7332,-10.1671,0.5264,58.8403,-0.7526,-0.5039,-0.044,26.4809
17:45:04:135,-6.1663,-10.2915,0.5288,60.3641,-0.6928,-0.7213,-0.2859,24.6932
17:45:04:155,-6.128,-10.5141,0.1531,60.7314,-0.5315,-0.8374,-0.4508,22.6426
17:45:04:181,-5.7236,-10.7701,-0.3589,61.4252,-0.3495,-0.8215,-0.5938,20.6296
17:45:04:199,-4.8192,-9.9757,-0.3733,60.9138,-0.1931,-0.681,-0.7954,18.9195
17:45:04:217,-5.269,-8.729,0.2273,60.7451,-0.0392,-0.4257,-1.0923,17.6965
17:45:04:234,-6.6951,-8.2361,0.2704,58.9793,0.2235,-0.108,-1.3268,17.1532
17:45:04:254,-7.8437,-8.662,-0.7992,62.073,0.535,0.1351,-1.361,17.1496
17:45:04:274,-7.7025,-9.0066,-1.9023,62.0229,0.6499,0.1595,-1.2572,17.2778
17:45:04:297,-6.6138,-8.54,-2.0483,63.1119,0.4471,-0.0054,-1.1729,17.1736
17:45:04:314,-5.5537,-7.8317,-1.2036,60.4214,0.1099,-0.2033,-1.2205,16.7136
17:45:04:334,-5.2283,-6.676,-0.0766,58.2954,-0.1406,-0.3731,-1.3904,15.9611
17:45:04:354,-5.336,-5.6064,0.5145,57.4922,-0.2163,-0.51,-1.5626,15.0133
17:45:04:379,-5.4341,-4.8766,0.7585,52.9128,-0.1564,-0.5943,-1.6164,14.0037
17:45:04:396,-5.2403,-4.6349,0.7202,54.0913,-0.0062,-0.5955,-1.5675,13.0209
17:45:04:416,-5.1398,-4.5488,0.1029,62.244,0.2235,-0.4965,-1.515,11.8024
17:45:04:434,-5.7643,-4.7856,-1.2132,64.7592,0.5314,-0.108,-1.4783,11.689
17:45:04:452,-6.396,-5.1924,-1.7683,65.6238,0.535,0.0874,-1.4441,11.9402
17:45:04:475,-6.8195,-6.3362,-0.8495,65.7354,0.3872,0.2035,-1.3904,12.3466
17:45:04:496,-7.4393,-5.9438,-1.4405,64.2577,0.2858,0.2255,-1.35,12.8216
17:45:04:512,-8.0758,-6.7023,-0.5168,64.1259,0.2797,0.4149,-1.2425,13.5082
17:45:04:534,-8.4778,-7.0588,-0.3159,65.151,0.2406,0.333,-1.1741,14.0818
17:45:04:554,-9.0138,-7.7336,0.1627,64.02,0.2064,0.0838,-1.0923,14.3162
17:45:04:575,-9.521,-8.5113,0.4187,64.755,0.1734,-0.3169,-0.9835,14.058
17:45:04:598,-9.8656,-9.3129,0.5288,66.322,0.2113,-0.7164,-0.8418,13.337
17:45:04:615,-9.7531,-9.5713,-0.2393,63.5535,0.3493,-1.006,-0.6573,12.2666
17:45:04:633,-9.4612,-9.3392,-0.8542,63.0653,0.4874,-1.0524,-0.4496,11.1596
17:45:04:653,-9.5569,-9.8321,-1.9501,65.6322,0.5631,-0.94,-0.2639,10.2058
17:45:04:675,-9.1214,-10.3585,-2.2014,63.7766,0.4336,-0.7507,-0.0672,9.4704
17:45:04:693,-8.4347,-10.2221,-1.5816,65.123,0.1661,-0.5918,0.0476,8.884
17:45:04:713,-8.5017,-9.4397,-1.0648,66.2253,-0.0184,-0.4574,0.0488,8.4384
17:45:04:732,-9.0712,-9.1789,-1.2682,65.9594,-0.0807,-0.2937,0.0794,8.1777
17:45:04:753,-9.6479,-9.6311,-1.8329,63.7427,-0.1222,-0.0066,0.2333,8.2775
17:45:04:781,-9.8608,-10.3346,-2.1081,62.0872,-0.2419,0.4283,0.4899,8.8712
17:45:04:794,-9.5091,-10.3561,-1.4883,63.2029,-0.4484,0.9573,0.766,10.0663
17:45:04:813,-8.6022,-9.5067,-0.0168,64.3667,-0.6818,1.4264,0.9908,11.8389
17:45:04:833,-7.9777,-8.3222,1.3448,64.7479,-0.8137,1.7343,1.141,14.0169
17:45:04:854,-7.858,-7.1809,2.5268,68.4686,-0.8015,1.8296,1.2547,16.3597
17:45:04:876,-7.7193,-6.1759,3.2997,67.5161,-0.6402,1.6977,1.4184,18.574
17:45:04:893,-7.2048,-5.0369,2.6201,52.6335,-0.0147,1.0416,1.9291,20.3899
17:45:04:913,-6.8842,-5.1087,1.5099,52.0496,0.243,0.7288,2.2357,23.2444
17:45:04:936,-6.731,-5.4078,0.4546,54.2727,0.3445,0.4943,2.5375,24.3166
17:45:04:952,-6.5109,-6.2046,-0.2106,55.8822,0.3041,0.3526,2.8221,25.3134
17:45:04:974,-5.9749,-7.3268,-0.4259,56.5343,0.2015,0.3281,3.0482,26.3779
17:45:04:997,-5.3145,-8.5256,-0.457,56.2422,0.0952,0.3684,3.1398,27.6342
17:45:05:014,-4.8742,-9.4636,-0.3063,54.7429,0.0073,0.3843,3.0494,29.0389
17:45:05:032,-4.5894,-9.7436,-0.2417,56.2911,-0.0453,0.3342,2.8001,30.4929
17:45:05:054,-4.6062,-10.0211,-0.5862,56.27,-0.0819,0.2108,2.4556,31.7852
17:45:05:074,-4.7139,-10.4303,-0.6556,55.0708,-0.176,0.019,2.0928,32.6252
17:45:05:094,-4.2114,-10.5524,-0.8758,57.5217,-0.3018,-0.2449,1.7275,32.756
17:45:05:114,-3.6156,-10.5715,-0.9739,54.733,-0.4582,-0.5466,1.3341,31.8993
17:45:05:133,-2.9791,-10.2197,-0.8853,55.5686,-0.6366,-0.8276,0.8943,29.926
17:45:05:154,-2.6632,-10.1982,-0.8997,55.0189,-0.7697,-1.0096,0.419,27.0677
17:45:05:173,-2.1512,-10.3322,-0.8806,56.2634,-0.8296,-1.0329,-0.0636,23.8234
17:45:05:195,-2.0722,-10.7175,-0.9595,55.2029,-0.8626,-0.896,-0.6219,20.7882
17:45:05:213,-2.4933,-10.6098,-0.0574,53.9681,-0.9029,-0.626,-1.2743,18.3713
17:45:05:233,-3.3428,-9.8584,1.4165,54.9847,-0.8455,-0.2778,-1.9523,16.756
17:45:05:258,-5.4317,-9.5186,2.3067,55.2144,-0.4948,0.1485,-2.5913,16.0602
17:45:05:275,-8.2146,-9.4684,1.608,56.0728,0.0977,0.5016,-3.0629,16.1056
17:45:05:292,-10.5117,-9.6191,0.2991,55.5175,0.5986,0.5822,-3.2071,16.3963
17:45:05:312,-11.3061,-9.2578,-0.5264,54.5731,0.8075,0.4136,-3.0055,16.5388
17:45:05:331,-10.7964,-8.3462,-0.9763,54.7295,0.8087,0.1754,-2.6231,16.4783
17:45:05:353,-8.418,-6.1519,-0.926,53.6623,0.4959,-0.1483,-1.9304,16.2675
17:45:05:374,-7.8054,-5.0943,-0.4044,52.9616,0.2455,-0.284,-1.7227,15.4427
17:45:05:395,-7.4943,-4.3023,0.3829,48.9803,0.0329,-0.4049,-1.5076,14.8069
17:45:05:415,-7.0851,-4.1085,0.9188,51.3769,-0.0147,-0.4599,-1.2254,14.0913
17:45:05:436,-9.7029,-2.4407,1.261,54.1639,0.1001,-0.4892,-0.9432,13.417
17:45:05:456,-4.6421,-4.3454,0.8351,54.4604,0.3469,-0.3914,-0.5657,12.8063
17:45:05:473,-5.4054,-4.6493,-0.4738,56.342,0.5802,-0.2387,-0.4411,12.4855
17:45:05:492,-5.415,-4.8957,-0.7346,55.7969,0.5815,-0.2387,-0.3629,12.1928
17:45:05:513,-5.1422,-5.4748,-1.1486,54.6961,0.5106,-0.3072,-0.3275,11.8271
17:45:05:532,-5.0201,-5.9725,-1.3328,53.7392,0.3689,-0.378,-0.3543,11.3727
17:45:05:560,-5.0871,-6.5037,-1.3639,54.1771,0.2162,-0.4269,-0.4508,10.8755
17:45:05:576,-5.4293,-6.8674,-1.2419,54.4998,0.0635,-0.4709,-0.6011,10.3367
17:45:05:593,-6.2094,-7.3316,-1.2706,55.0759,-0.055,-0.5051,-0.7587,9.7908
17:45:05:613,-6.932,-7.9394,-1.3208,55.7561,-0.1516,-0.5051,-0.8626,9.2817
17:45:05:633,-7.4776,-8.6213,-1.4237,52.0286,-0.2517,-0.4868,-0.9041,8.8077
17:45:05:660,-7.9514,-9.1047,-1.4309,53.9019,-0.358,-0.4587,-0.9285,8.3837
17:45:05:674,-8.5902,-9.1573,-1.1605,54.0104,-0.4778,-0.4318,-0.9457,7.9917
17:45:05:694,-9.7101,-9.8058,-1.3352,53.8135,-0.5621,-0.3756,-0.9163,7.6873
17:45:05:712,-10.203,-10.7031,-1.3065,53.3136,-0.6916,-0.3389,-0.7856,7.4138
17:45:05:732,-9.9182,-11.4832,-0.6054,52.3965,-0.9017,-0.4061,-0.6097,7.0189
17:45:05:759,-9.387,-11.0405,0.6126,51.5914,-1.0043,-0.4892,-0.5168,6.4869
17:45:05:774,-9.6503,-9.7531,0.9356,50.2074,-0.7771,-0.4159,-0.5181,6.0689
17:45:05:792,-10.7414,-9.1382,-0.2823,51.1805,-0.3165,-0.097,-0.4411,6.0642
17:45:05:813,-10.684,-9.7507,-1.3854,51.3494,0.1172,0.9671,0.3396,6.6983
17:45:05:835,-9.5043,-9.6646,-0.5336,51.7015,0.072,1.49,0.7586,7.9976
17:45:05:857,-8.3198,-8.7171,0.7011,51.4514,0.0635,1.9237,1.0091,12.3832
17:45:05:874,-7.59,-7.4512,1.6295,50.3146,0.1551,2.1693,1.1337,15.181
17:45:05:893,-7.3675,-6.3027,1.9741,52.9427,0.3127,2.1619,1.2082,18.0175
17:45:05:913,-7.1665,-5.3384,1.8999,53.757,0.452,1.9151,1.3243,20.6293
17:45:05:933,-6.7143,-4.8072,1.4572,54.7679,0.5473,1.5584,1.5063,22.8169
17:45:05:956,-6.3194,-4.6804,0.7537,44.4716,0.5925,1.2444,1.7177,24.6559
17:45:05:973,-6.0323,-4.7832,0.1866,38.3485,0.5668,1.0453,1.9205,26.2965
17:45:05:993,-5.738,-5.2786,-0.2297,38.9571,0.4972,0.9732,2.1123,28.0125
17:45:06:013,-5.4245,-5.9174,-0.4642,43.3933,0.3848,0.9989,2.2601,29.8838
17:45:06:033,-5.1135,-6.5874,-0.4738,41.8275,0.2211,1.0379,2.3444,31.9263
17:45:06:057,-4.8526,-7.322,-0.2082,42.3065,0.0097,1.0172,2.3506,34.0574
17:45:06:147,-4.666,-8.1428,-0.1029,40.3532,-0.2163,0.9109,2.2663,36.1532
17:45:06:148,-4.6062,-8.7936,0.2225,40.615,-0.446,0.7288,2.1025,38.0374
17:45:06:149,-4.9651,-9.4134,0.3757,41.4212,-0.6329,0.4882,1.8777,39.537
17:45:06:150,-5.482,-10.3394,0.2058,41.6374,-0.7649,0.2353,1.6505,40.599
17:45:06:165,-5.7236,-11.1458,0.2584,40.2368,-0.9005,-0.0311,1.4379,41.1207
17:45:06:173,-5.9174,-11.653,0.5767,42.3399,-1.0141,-0.3133,1.1997,41.0403
17:45:06:191,-6.1424,-11.7272,0.9523,37.9866,-1.03,-0.5527,0.9309,40.2916
17:45:06:214,-6.1783,-11.72,1.0792,38.6297,-0.9237,-0.7348,0.6817,39.0271
17:45:06:234,-6.1424,-11.586,1.2084,37.9914,-0.7417,-0.852,0.4703,37.351
17:45:06:256,-5.6495,-11.2199,1.328,38.1178,-0.4888,-0.8777,0.2895,33.5012
17:45:06:274,-4.264,-8.7338,1.7922,38.4165,0.2638,-0.7018,-0.1857,31.6409
17:45:06:293,-5.281,-8.4993,0.8088,38.0621,0.7928,-0.5026,-0.485,30.1495
17:45:06:311,-6.1424,-9.1071,-0.9834,37.1883,1.2595,-0.3597,-0.6512,29.0399
17:45:06:333,-6.0945,-9.7651,-2.7135,36.5945,1.4232,-0.3621,-0.7294,28.0641
17:45:06:355,-5.6088,-9.3392,-3.4624,35.6709,1.2436,-0.4403,-0.876,27.0289
17:45:06:373,-5.5896,-8.1499,-3.2566,35.0925,0.871,-0.4525,-1.1203,26.0403
17:45:06:392,-5.6949,-6.8243,-2.4335,35.4532,0.4642,-0.4269,-1.3232,25.1452
17:45:06:412,-5.7619,-5.7715,-1.3687,36.0247,0.1429,-0.378,-1.4075,24.3805
17:45:06:439,-5.6016,-5.1924,-0.5432,34.5325,-0.0245,-0.3377,-1.3879,23.7137
17:45:06:456,-5.2211,-4.8455,0.055,31.6771,-0.0367,-0.3084,-1.3244,23.1268
17:45:06:473,-4.745,-4.6804,0.2489,30.7424,0.0867,-0.2791,-1.2902,22.586
17:45:06:492,-4.7402,-4.4937,-0.1412,30.5626,0.3017,-0.2168,-1.3244,22.1859
17:45:06:512,-4.8598,-4.3884,-0.7729,30.9298,0.5008,-0.119,-1.3659,21.9875
17:45:06:538,-4.922,-4.7522,-1.2275,34.7243,0.612,0.0068,-1.3684,22.0212
17:45:06:552,-5.135,-5.3934,-1.7563,37.4978,0.6279,0.1082,-1.3855,22.278
17:45:06:574,-5.5992,-5.7739,-1.864,35.6329,0.5228,0.0887,-1.4649,22.5476
17:45:06:593,-6.1232,-6.5659,-1.943,34.2857,0.4031,0.0618,-1.5761,22.8123
17:45:06:612,-6.8746,-6.7765,-1.4285,34.1221,0.3237,0.008,-1.6714,23.0105
17:45:06:634,-7.5398,-7.0445,-0.6317,33.5886,0.2125,-0.13,-1.7459,23.0238
17:45:06:653,-8.4156,-8.1045,-1.6606,33.217,0.0708,-0.4587,-1.8485,22.6582
17:45:06:673,-8.729,-8.9707,-1.9143,31.3464,-0.2982,-1.2296,-1.9255,21.3482
17:45:06:691,-8.8271,-9.8704,-0.3972,31.1639,-0.6867,-1.3456,-1.923,19.8906
17:45:06:712,-10.0642,-9.9278,1.3711,31.7593,-0.5608,-0.8044,-1.9646,19.1141
17:45:06:737,-13.943,-8.6477,1.529,30.9557,0.6144,0.2548,-1.675,19.7418
17:45:06:757,-14.0004,-9.3918,0.1436,29.6257,0.8967,0.0679,-0.9799,20.1096
17:45:06:774,-12.7059,-10.5164,-0.804,28.9362,0.7122,-0.5588,-0.2126,19.7042
17:45:06:792,-10.4686,-10.7486,-1.6726,27.9124,0.3848,-1.2308,0.248,18.4278
17:45:06:812,-9.7819,-8.8606,-2.0961,29.601,0.0891,-1.5875,0.3127,16.7162
17:45:06:837,-10.6983,-7.7934,-2.68,28.4628,-0.1186,-1.4531,0.3811,15.1998
17:45:06:852,-10.3944,-8.3868,-3.2806,29.2388,-0.3495,-0.9388,0.7818,14.2079
17:45:06:875,-8.2552,-10.3131,-4.1396,29.55,-0.4985,0.0691,1.3487,14.3304
17:45:06:892,-6.4247,-10.7462,-3.649,30.7123,-0.4521,1.8589,1.67,16.5851
17:45:06:913,-6.7525,-9.1047,-1.7874,33.9255,-0.1919,4.0666,1.6688,21.7057
17:45:06:936,-8.1021,-7.4465,0.5791,36.7913,-0.055,5.4227,1.6187,28.742
17:45:06:954,-8.6333,-6.2596,2.5508,36.2608,-0.1112,5.4899,1.6762,36.0788
17:45:06:972,-8.2935,-5.738,2.9719,22.35,-0.1601,4.6115,1.8301,42.361
17:45:06:992,-6.9942,-5.8696,2.1679,23.4497,-0.1906,3.3018,2.028,47.1008
17:45:07:014,-5.3839,-6.2046,1.072,28.7615,-0.2334,2.1057,2.1636,50.5798
17:45:07:033,-4.745,-6.2668,0.1938,29.5034,-0.2798,1.2933,2.1514,53.1721
17:45:07:052,-4.7737,-6.2596,-0.0981,30.9925,-0.3348,0.8119,2.0708,55.2016
17:45:07:075,-4.7354,-6.5252,-0.5432,31.1676,-0.3531,0.581,2.0256,56.9799
17:45:07:094,-4.6947,-6.8052,-0.7346,30.3166,-0.3788,0.4967,2.0036,58.7682
17:45:07:118,-4.4674,-7.2646,-0.7872,30.5595,-0.4399,0.4503,1.9938,60.5608
17:45:07:134,-4.1803,-7.9202,-0.8136,31.7898,-0.5107,0.4344,1.9462,62.4384
17:45:07:153,-3.7735,-8.6429,-0.7537,32.5461,-0.5938,0.4026,1.824,64.2875
17:45:07:174,-3.1059,-10.2915,-0.6796,33.133,-0.7978,0.1669,1.2473,67.0108
17:45:07:196,-3.5079,-10.9137,-0.4187,33.1477,-0.8992,-0.0518,0.8014,67.4555
17:45:07:218,-4.2162,-11.1003,-0.1579,32.0343,-0.9432,-0.3353,0.331,66.9908
17:45:07:236,-5.0393,-11.0716,-0.1651,33.761,-0.9005,-0.6321,-0.0831,65.6594
17:45:07:255,-5.659,-11.3683,-0.548,33.6784,-0.8015,-0.8924,-0.3849,63.6319
17:45:07:272,-5.6638,-11.8828,-1.0313,33.2422,-0.7245,-1.1074,-0.5987,61.0714
17:45:07:292,-4.8407,-12.3326,-1.005,33.8897,-0.6964,-1.243,-0.8076,58.0934
17:45:07:319,-3.9817,-11.5143,0.0024,34.7837,-0.6512,-1.2589,-1.1313,54.884
17:45:07:334,-4.6612,-9.9374,0.9834,35.4605,-0.4032,-1.1331,-1.5699,51.675
17:45:07:352,-6.1854,-9.1741,0.926,34.8443,0.1429,-0.8374,-1.9133,48.9323
17:45:07:372,-7.4656,-9.722,-0.5288,35.1017,0.8637,-0.4599,-2.0037,47.0229
17:45:07:392,-7.6259,-10.4303,-2.1344,34.2875,1.4965,-0.0359,-1.9047,46.0872
17:45:07:416,-6.7549,-9.9111,-2.8403,34.5181,1.9975,0.6849,-1.7569,46.4773
17:45:07:448,-5.86,-8.8654,-3.1226,36.2872,2.5326,1.8186,-1.6408,52.1341
17:45:07:462,-5.1087,-7.4154,-3.0413,35.3638,2.8966,2.719,-1.5699,55.5033
17:45:07:482,-5.872,-5.1254,-1.9932,35.2451,2.1392,1.7551,-1.6701,57.5422
17:45:07:496,-6.341,-4.3119,-1.1605,36.5316,1.4794,0.5725,-1.6188,58.038
17:45:07:516,-5.9653,-3.5007,-1.2538,31.8747,1.0848,-0.3035,-1.3427,57.5294
17:45:07:535,-5.2451,-3.9218,-3.1872,33.2636,0.5302,-1.2748,-1.0776,55.9214
17:45:07:555,-5.3073,-3.8596,-1.8831,37.6309,-0.0844,-1.7488,-0.8601,53.7679
17:45:07:574,-4.8957,-4.6588,-1.7731,37.5007,-0.292,-2.0017,-0.7184,51.3335
17:45:07:596,-4.9005,-5.4006,-1.0624,37.1581,-0.3079,-1.5716,-0.5547,49.4572
17:45:07:613,-5.1063,-6.2429,-0.7202,37.3209,-0.1723,-1.1868,-0.4435,48.0699
17:45:07:632,-5.1829,-7.0205,-0.4235,36.2081,-0.1149,-1.1184,-0.4435,46.6691
17:45:07:654,-5.4293,-7.48,-0.4546,36.462,-0.1308,-1.4324,-0.5461,45.0009
17:45:07:673,-6.2548,-8.0518,-1.0552,35.2295,-0.1613,-1.8881,-0.7013,42.8076
17:45:07:691,-6.9607,-8.595,-2.01,35.8801,-0.176,-2.2387,-0.8088,40.26
17:45:07:715,-7.3508,-9.1525,-2.7135,35.8801,-0.2053,-2.3658,-0.8369,37.6146
17:45:07:735,-7.6355,-9.3224,-3.1729,34.59,-0.2652,-2.3047,-0.8381,35.1075
17:45:07:752,-8.3103,-9.478,-3.3308,35.5058,-0.3434,-2.0799,-0.8052,32.9071
17:45:07:772,-9.0473,-10.4375,-3.6754,35.5058,-0.4118,-1.7256,-0.6805,31.1657
17:45:07:793,-9.0903,-12.1723,-3.7759,35.5058,-0.5217,-1.3078,-0.4667,29.9236
17:45:07:814,-8.0638,-13.3376,-2.7541,35.5058,-0.7026,-0.9864,-0.3152,29.0212
17:45:07:835,-7.5781,-12.5097,-1.4883,35.6518,-0.7807,-0.8362,-0.3995,28.278
17:45:07:853,-9.064,-10.7318,-1.5649,35.1509,-0.5963,-0.6822,-0.6072,27.7136
17:45:07:871,-10.6146,-9.8919,-2.4263,36.9029,-0.2933,-0.2962,-0.5571,27.6279
17:45:07:892,-11.0979,-10.1192,-2.8666,35.8153,-0.1271,0.2976,-0.1674,28.2598
17:45:07:914,-9.9039,-10.3466,-2.5914,35.555,-0.1332,0.9133,0.3518,29.5722
17:45:07:933,-8.6668,-9.6335,-1.4979,37.2058,-0.2359,1.391,0.7403,31.4168
17:45:07:954,-7.9298,-8.1523,-0.0598,37.3401,-0.3116,1.7172,0.9688,33.6513
17:45:07:973,-7.6068,-6.6521,0.8566,38.3824,-0.2517,1.8736,1.1581,36.111
17:45:07:997,-7.2861,-5.6734,1.1677,41.368,-0.1173,1.8406,1.3891,38.5962
17:45:08:014,-6.7956,-5.1972,0.6078,41.7392,0.0036,1.6439,1.6468,40.9283
17:45:08:033,-6.2859,-5.0417,-0.0407,36.0778,0.006,1.3519,1.8949,42.9569
17:45:08:052,-5.8672,-5.2618,-0.603,32.6122,-0.1344,1.0392,2.1209,44.634
17:45:08:072,-5.4987,-5.8026,-0.7489,34.6524,-0.3666,0.774,2.3114,46.1079
17:45:08:100,-5.123,-6.609,-0.6413,37.8826,-0.6244,0.5664,2.4507,48.7223
17:45:08:118,-4.5153,-8.1165,-0.0598,39.8502,-1.0556,0.2121,2.5228,49.7213
17:45:08:132,-4.2473,-8.8654,0.055,40.2893,-1.1864,0.0826,2.4568,50.7513
17:45:08:209,-3.8644,-9.3631,0.335,40.4778,-1.3,-0.0555,2.3249,51.6382
17:45:08:210,-3.6921,-9.5856,0.6389,41.8832,-1.3953,-0.2375,2.1172,52.2507
17:45:08:211,-3.9171,-10.1551,0.7059,41.6816,-1.4454,-0.4367,1.8704,52.5009
17:45:08:211,-4.0128,-10.8467,0.8949,42.9949,-1.4576,-0.6187,1.6212,52.3467
17:45:08:231,-4.0606,-11.3444,1.1438,43.6424,-1.4136,-0.8178,1.339,51.6508
17:45:08:251,-3.8524,-11.4377,1.3448,42.6328,-1.2707,-1.0096,1.0005,50.3433
17:45:08:273,-3.996,-11.4975,1.4094,43.1526,-1.0055,-1.1245,0.6084,48.4785
17:45:08:300,-4.3597,-11.3061,0.8806,45.0535,-0.6183,-1.1233,0.1893,46.2679
17:45:08:315,-4.2329,-11.0907,0.4307,46.8342,-0.2859,-1.1355,-0.1931,43.7617
17:45:08:334,-3.7711,-11.2152,0.4331,45.1113,-0.1821,-1.5154,-0.6133,40.2731
17:45:08:357,-3.9099,-10.7964,-0.5575,46.5155,-0.4985,-2.7201,-1.2071,34.3216
17:45:08:371,-4.5583,-10.2748,-0.1268,45.5421,-1.1216,-4.1006,-1.785,25.8464
17:45:08:393,-5.5011,-10.0235,-0.2058,44.4016,-1.3085,-4.4183,-2.1441,17.4025
17:45:08:413,-6.4343,-10.1192,-0.8662,47.3282,-0.8968,-3.4824,-2.237,11.4297
17:45:08:431,-6.7143,-9.8249,-1.517,47.0988,-0.2701,-1.9211,-2.1527,8.6045
17:45:08:452,-6.396,-9.0903,-1.4142,47.0988,0.1343,-0.6004,-2.0354,8.0889
17:45:08:472,-6.1424,-7.8102,-0.5384,48.0308,0.265,0.1986,-1.9792,8.7962
17:45:08:496,-6.3984,-6.2285,0.0359,48.603,0.2895,0.5211,-2.0037,9.9373
17:45:08:516,-5.9701,-5.3408,0.6867,47.6013,0.2773,0.5444,-1.9377,11.039
17:45:08:533,-5.9677,-4.7306,0.5982,46.6236,0.3383,0.5309,-1.8082,12.9531
17:45:08:552,-3.2638,-5.6279,0.3183,46.2,0.276,-0.1422,-1.4307,12.9058
17:45:08:574,-5.4939,-5.2522,-0.2847,46.8477,0.3261,0.0508,-1.2193,13.1957
17:45:08:595,-5.4317,-5.5155,-0.9739,50.1031,0.4043,0.1852,-1.2975,13.7188
17:45:08:616,-5.3049,-6.0658,-0.9787,50.9537,0.2174,0.1607,-1.278,14.2202
17:45:08:633,-5.4963,-6.6449,-0.9308,48.6935,-0.0111,0.1705,-1.2804,14.7273
17:45:08:651,-5.9174,-7.1115,-0.5025,50.16,-0.1882,0.2145,-1.3378,15.2844
17:45:08:672,-6.3769,-7.3388,0.0359,51.0837,-0.3067,0.245,-1.4062,15.862
17:45:08:693,-7.0947,-7.3986,0.4977,50.6259,-0.3483,0.2243,-1.4527,16.4099
17:45:08:712,-8.0471,-7.8389,0.4307,50.133,-0.297,0.1717,-1.4514,16.8824
17:45:08:731,-8.7697,-8.4371,0.146,50.0901,-0.1943,0.1583,-1.3745,17.3491
17:45:08:751,-9.454,-8.7362,-0.1914,49.8215,-0.055,0.2096,-1.2535,17.8735
17:45:08:771,-10.0522,-8.473,-0.6102,49.7892,0.0854,0.3159,-1.1179,18.527
17:45:08:795,-11.1434,-8.461,-1.3161,50.0491,0.1404,0.4161,-0.9078,19.3019
17:45:08:813,-12.1699,-9.7675,-1.9095,49.5447,-0.0062,0.4259,-0.5486,20.0694
17:45:08:832,-11.8397,-11.342,-1.4453,53.12,-0.3519,0.3391,-0.0782,20.7092
17:45:08:851,-10.672,-11.6866,-0.2082,52.2827,-0.6488,0.223,0.2944,21.1753
17:45:08:873,-10.2796,-10.861,0.5862,51.6768,-0.6366,0.2206,0.4605,21.6305
17:45:08:895,-10.9448,-10.3896,-0.0766,54.1746,-0.358,0.399,0.5778,22.2818
17:45:08:912,-11.7177,-10.9496,-0.7155,54.0708,-0.1711,0.6445,0.8552,23.2704
17:45:08:932,-11.4736,-11.6698,-0.548,55.5164,-0.1662,0.9488,1.2791,24.6401
17:45:08:951,-10.459,-11.3874,0.0407,55.4657,-0.1931,1.2884,1.6981,26.4477
17:45:08:973,-9.2004,-10.4207,1.2275,55.9718,-0.165,1.6512,2.0305,28.734
17:45:08:992,-8.1619,-8.9539,2.2158,57.3705,-0.0392,1.9176,2.2516,31.4351
17:45:09:014,-7.7336,-6.9392,2.4766,57.93,0.3982,1.8675,2.601,37.0988
17:45:09:032,-7.413,-6.5276,2.0052,53.439,0.568,1.6012,2.8539,39.8134
17:45:09:053,-6.9392,-6.6353,1.1892,47.9787,0.6376,1.2383,3.1239,42.1884
17:45:09:080,-6.3936,-6.9559,0.4403,51.546,0.5827,0.8437,3.3536,44.2505
17:45:09:098,-5.8217,-7.4943,-0.1292,56.4057,0.441,0.5175,3.5087,46.0629
17:45:09:113,-5.1709,-8.0997,-0.5216,56.0339,0.2577,0.3013,3.5857,47.7227
17:45:09:130,-4.4076,-8.7482,-0.4211,58.2956,0.0598,0.1779,3.5686,49.4013
17:45:09:150,-3.4983,-9.3846,-0.256,59.8396,-0.1039,0.1082,3.4269,51.149
17:45:09:172,-2.5675,-9.7101,-0.1268,58.3178,-0.2273,0.0239,3.1349,52.8879
17:45:09:193,-1.9334,-9.7962,0.2513,61.0961,-0.3262,-0.0787,2.6828,54.3956
17:45:09:211,-1.8185,-9.5354,0.4977,60.3075,-0.3812,-0.2033,2.1209,55.4048
17:45:09:231,-2.1775,-9.5617,0.2441,60.4804,-0.3812,-0.3414,1.587,55.734
17:45:09:251,-2.266,-9.7651,-0.1053,61.4691,-0.3947,-0.4709,1.1472,55.3237
17:45:09:276,-2.0698,-10.27,-0.402,61.6794,-0.4557,-0.5759,0.7305,54.1205
17:45:09:292,-2.1392,-10.8658,-0.4522,61.4754,-0.5291,-0.6309,0.2516,52.1942
17:45:09:311,-2.802,-11.196,-0.2465,63.8218,-0.5486,-0.615,-0.3152,49.7719
17:45:09:331,-3.8429,-11.2319,-0.0407,64.1435,-0.4888,-0.554,-0.9053,47.1987
17:45:09:351,-4.5583,-11.2654,0.1149,62.6006,-0.3947,-0.5124,-1.4075,44.6641
17:45:09:372,-4.6086,-11.1314,0.4522,63.5242,-0.325,-0.554,-1.8216,42.1263
17:45:09:391,-4.9005,-10.861,0.9763,64.0214,-0.2224,-0.6053,-2.237,39.6786
17:45:09:411,-5.9509,-10.7581,1.1605,63.9083,0.0231,-0.5772,-2.6707,37.6016
17:45:09:431,-7.7025,-11.1984,0.4642,64.486,0.3457,-0.6321,-3.0641,35.7901
17:45:09:451,-9.3081,-11.275,-0.603,65.1809,0.4752,-1.028,-3.3537,33.7046
17:45:09:473,-10.3442,-8.741,-1.06,64.9244,0.0244,-1.91,-3.3402,28.3519
17:45:09:514,-9.7484,-6.7549,-0.6652,65.2635,-0.2224,-1.8587,-2.9908,26.0472
17:45:09:523,-9.0233,-5.4102,-0.2752,66.6437,-0.3629,-1.5167,-2.4887,24.3714
17:45:09:532,-7.8269,-5.0584,-0.0909,64.5568,-0.4435,-1.1453,-1.9536,23.2139
17:45:09:548,-6.5827,-4.9819,0.5767,62.4131,-0.5645,-0.9363,-1.5199,22.2967
17:45:09:569,-5.6662,-4.9747,1.1605,61.7804,-0.6903,-0.9363,-1.2938,21.3463
17:45:09:594,-5.5418,-4.7115,1.3376,61.0613,-0.7209,-1.0011,-1.2364,20.3108
17:45:09:612,-5.5346,-4.5559,1.2251,66.0732,-0.683,-1.0463,-1.179,19.1977
17:45:09:633,-5.4604,-4.7641,1.0217,67.6794,-0.6427,-1.072,-1.091,18.0632
17:45:09:655,-5.3862,-5.2618,0.7178,69.1907,-0.5938,-1.0182,-1.0031,17.0441
17:45:09:673,-5.4173,-5.8361,0.39,70.1628,-0.5327,-0.8692,-0.9591,16.2259
17:45:09:691,-5.7643,-6.4104,0.1101,70.4604,-0.5132,-0.703,-0.9762,15.6351
17:45:09:710,-6.2859,-6.8889,0.0479,70.6029,-0.5559,-0.5466,-1.0067,15.2461
17:45:09:730,-6.9751,-7.5829,0.079,71.5894,-0.6305,-0.4232,-1.0251,15.0046
17:45:09:753,-7.7001,-8.4658,0.1484,72.6707,-0.7233,-0.3377,-1.0055,14.8625
17:45:09:773,-8.1811,-9.2004,0.3398,72.8932,-0.8137,-0.2827,-0.9579,14.7826
17:45:09:792,-8.6835,-9.7531,0.6245,70.3411,-0.8687,-0.2363,-0.9139,14.7299
17:45:09:812,-9.0353,-9.8824,1.017,73.2049,-0.8773,-0.2155,-0.8736,14.6709
17:45:09:831,-9.8201,-10.3107,0.9523,73.706,-0.8479,-0.2729,-0.8284,14.5415
17:45:09:856,-10.5141,-10.8873,1.0289,72.6418,-0.7978,-0.3499,-0.7245,14.3228
17:45:09:875,-10.9687,-11.2511,1.0528,73.9113,-0.6916,-0.3817,-0.5718,14.0572
17:45:09:891,-11.0166,-10.8658,1.2538,74.4131,-0.4741,-0.3084,-0.3983,13.8577
17:45:09:911,-11.0381,-9.4708,1.2586,73.4407,-0.1454,-0.1544,-0.2358,13.8508
17:45:09:933,-12.3589,-8.1715,-0.8207,72.9757,0.5094,0.3135,0.3457,14.622
17:45:09:957,-12.4475,-9.2291,-1.5003,72.939,0.5729,0.7203,0.9162,15.7077
17:45:09:972,-11.4425,-10.0546,-0.7657,73.0172,0.4764,1.2114,1.5479,17.3337
17:45:09:994,-9.7843,-9.9805,0.6508,73.5971,0.3738,1.6219,2.0561,19.4282
17:45:10:012,-8.2193,-9.1525,1.8449,71.5483,0.4055,1.8809,2.375,21.8533
17:45:10:030,-7.2335,-8.0566,2.601,72.8093,0.59,2.0239,2.5424,24.5096
17:45:10:052,-6.7908,-7.4393,2.4431,74.3455,0.8503,2.019,2.6523,27.218
17:45:10:071,-6.4582,-7.0851,1.9836,68.2878,1.0628,1.8565,2.7684,29.7836
17:45:10:091,-5.939,-7.0708,1.261,62.0842,1.1887,1.6512,2.8991,32.1553
17:45:10:110,-5.1589,-7.2981,0.7968,61.7371,1.2204,1.5156,3.0042,34.5077
17:45:10:130,-4.678,-7.4489,0.7729,64.3778,1.1875,1.4827,3.0286,36.9609
17:45:10:153,-4.5942,-7.657,0.524,64.8902,1.1581,1.5376,2.9761,39.6551
17:45:10:172,-4.6445,-7.9537,0.2776,65.6332,1.1105,1.6122,2.9003,42.6975
17:45:10:191,-4.7617,-8.5256,0.0383,65.1155,0.9932,1.6476,2.8307,46.0982
17:45:10:307,-4.544,-9.0568,-0.0215,65.1105,0.805,1.5767,2.7427,49.7068
17:45:10:309,-4.3023,-9.4636,-0.1675,64.3835,0.579,1.3703,2.5753,53.2552
17:45:10:310,-4.0199,-9.8273,-0.5575,62.8833,0.3261,1.066,2.3249,56.4769
17:45:10:311,-3.6299,-10.1264,-0.9428,60.8352,0.0207,0.6788,1.9938,58.9795
17:45:10:312,-3.5414,-10.3609,-0.9212,62.3067,-0.3593,0.2438,1.576,60.4032
17:45:10:312,-3.6108,-10.2939,-0.2704,64.565,-0.7441,-0.1752,1.1117,60.5037
17:45:10:333,-3.8524,-10.1791,0.3852,63.663,-0.9994,-0.5869,0.6377,59.1347
17:45:10:354,-4.41,-10.2748,0.6197,62.1584,-1.1228,-1.0768,0.1954,56.0766
17:45:10:373,-4.6301,-10.4447,0.2273,62.1218,-1.1411,-1.5338,-0.1528,51.5126
17:45:10:394,-2.7733,-10.9017,-0.9643,62.9113,-1.1204,-1.9137,-0.716,40.5049
17:45:10:411,-2.2062,-10.5164,-0.4714,60.5049,-1.1595,-1.7549,-1.1558,35.401
17:45:10:429,-3.4887,-10.1049,0.3733,62.9113,-1.0263,-1.2638,-1.7263,31.7549
17:45:10:454,-5.4724,-10.3872,0.5288,61.5995,-0.5779,-0.5124,-2.215,30.1078
17:45:10:471,-7.2574,-10.8036,-0.213,63.8354,0.0036,0.151,-2.507,30.0014
17:45:10:492,-8.3916,-10.4471,-0.9787,59.999,0.4165,0.4833,-2.6536,30.5776
17:45:10:511,-8.5663,-9.4301,-1.3591,60.6502,0.5534,0.5114,-2.6634,31.1938
17:45:10:530,-7.9729,-7.9705,-1.2538,59.6996,0.4568,0.3281,-2.5803,31.5015
17:45:10:550,-7.2646,-6.7382,-0.7657,57.1394,0.2516,0.0557,-2.4704,31.3735
17:45:10:571,-7.0708,-5.6255,-0.3757,58.057,0.0744,-0.1826,-2.3677,30.9176
17:45:10:591,-7.1139,-4.7115,-0.0933,52.663,-0.0282,-0.3634,-2.2346,30.2434
17:45:10:611,-6.609,-4.4889,0.0072,54.6488,-0.0954,-0.5503,-2.0415,29.3434
17:45:10:637,-6.4463,-4.398,0.1196,59.6724,-0.1479,-0.7873,-1.8363,28.1245
17:45:10:652,-6.4295,-4.4913,-0.6197,64.4275,-0.1833,-1.0475,-1.7031,26.6467
17:45:10:671,-6.4702,-4.9962,-1.261,64.09,-0.3214,-1.2418,-1.5541,24.9876
17:45:10:691,-6.3051,-5.6566,-1.5338,62.3288,-0.5486,-1.3407,-1.4075,23.2651
17:45:10:712,-6.1615,-6.3218,-1.2969,61.7864,-0.7991,-1.3383,-1.3122,21.5756
17:45:10:734,-5.9127,-6.7454,-0.4522,62.8045,-0.9445,-1.1599,-1.2633,20.0974
17:45:10:751,-6.353,-7.0732,-0.0598,62.4485,-0.9176,-0.9241,-1.2987,18.9177
17:45:10:771,-7.078,-7.8221,-0.0287,62.3767,-0.8259,-0.7555,-1.3354,17.9513
17:45:10:791,-7.6833,-8.5926,-0.012,59.3665,-0.7417,-0.6908,-1.3427,17.0708
17:45:10:813,-8.4203,-9.0449,-0.3135,61.2179,-0.6317,-0.6383,-1.3476,16.2904
17:45:10:833,-8.9611,-9.3248,-0.6461,60.274,-0.5083,-0.5124,-1.3244,15.6588
17:45:10:853,-10.8132,-10.3298,-0.9476,62.8612,-0.413,-0.2351,-1.1472,15.0429
17:45:10:871,-11.4736,-10.928,-0.7178,61.0658,-0.4472,-0.1838,-0.9628,14.8446
17:45:10:892,-11.5478,-10.7964,0.0359,60.182,-0.4814,-0.2106,-0.7355,14.6254
17:45:10:911,-11.1888,-9.3081,0.8064,58.9753,-0.3837,-0.2949,-0.5217,14.2975
17:45:10:934,-11.61,-7.8676,0.1555,59.6333,-0.0941,-0.3902,-0.3055,13.9096
17:45:10:953,-12.5408,-7.6618,-1.2658,58.3258,0.1844,-0.3621,0.0647,13.6119
17:45:10:969,-13.2658,-8.5998,-2.2277,60.5835,0.2724,-0.1215,0.6511,13.6581
17:45:10:988,-12.5001,-9.6574,-2.1655,55.8367,0.1991,0.3171,1.3658,14.2007
17:45:11:009,-10.8921,-9.7053,-0.9571,56.4049,0.0244,0.713,1.9901,15.212
17:45:11:029,-9.5689,-9.1573,0.5049,56.5262,-0.132,0.8315,2.4092,16.3793
17:45:11:051,-8.7529,-8.5184,1.3735,56.2259,-0.1638,0.658,2.6548,17.378
17:45:11:069,-8.2241,-8.0853,1.4979,56.8463,-0.0709,0.2646,2.8221,17.9136
17:45:11:088,-8.1906,-7.9442,0.8901,57.6034,0.0744,-0.2277,2.9748,17.8541
17:45:11:109,-7.992,-7.8724,-0.3661,49.0789,0.2333,-0.6871,3.1422,17.1386
17:45:11:132,-7.4512,-7.9753,-1.5075,48.6555,0.3041,-0.973,3.3291,15.9499
17:45:11:150,-6.8339,-8.2169,-2.1368,49.1697,0.2504,-1.0341,3.4892,14.5338
17:45:11:168,-6.3625,-8.4491,-2.3139,50.3067,0.1331,-0.9021,3.5894,13.1396
17:45:11:189,-6.0323,-8.7721,-2.0985,50.6062,-0.0147,-0.6383,3.6346,11.9606
17:45:11:210,-5.6686,-9.0879,-1.5793,50.8995,-0.1491,-0.3365,3.6505,11.1689
17:45:11:234,-5.0154,-9.4923,-0.9571,51.0343,-0.2529,-0.0983,3.6236,10.7531
17:45:11:253,-4.0941,-9.655,-0.3087,52.0179,-0.3336,0.0068,3.5087,10.539
17:45:11:272,-3.0102,-9.6933,0.335,49.4869,-0.3947,-0.0164,3.2852,10.247
17:45:11:292,-2.0339,-9.7795,0.6293,50.3143,-0.4044,-0.1227,2.937,9.5985
17:45:11:315,-0.6604,-10.684,0.4331,48.6926,-0.2786,-0.3291,1.9071,6.7244
17:45:11:333,-0.0574,-10.6648,0.3063,48.8779,-0.1748,-0.3682,1.1936,4.5273
17:45:11:350,-0.1914,-10.5212,-0.0191,48.2428,-0.0306,-0.3279,0.3506,2.6417
17:45:11:369,-1.1079,-10.5571,-0.6676,48.7573,0.1392,-0.1911,-0.5291,1.8691
17:45:11:390,-2.1655,-10.739,-1.3472,47.1868,0.2553,-0.0506,-1.3354,2.1385
17:45:11:410,-2.735,-10.928,-1.9071,48.8423,0.2614,0.019,-2.0428,2.8245
17:45:11:435,-3.6945,-10.7414,-1.998,48.0403,0.1404,0.0264,-2.7172,3.473
17:45:11:452,-5.7691,-10.8706,-1.797,46.4743,0.0073,0.0997,-3.3353,4.1853
17:45:11:470,-8.4586,-11.8301,-2.0578,48.2915,0.0354,0.3745,-3.7593,5.349
17:45:11:489,-11.0142,-13.285,-2.8355,44.5184,0.2394,0.8327,-3.9328,7.1712
17:45:11:514,-12.3565,-13.151,-3.5509,45.9809,0.4593,1.3617,-3.8986,9.6119
17:45:11:532,-12.2465,-11.72,-3.4002,44.6829,0.5363,1.8357,-3.7092,12.4956
17:45:11:549,-11.1793,-10.1767,-1.8257,46.5266,0.4116,2.0935,-3.4221,15.3877
17:45:11:569,-10.1743,-8.5184,0.1292,47.0254,0.2492,1.9579,-3.1826,17.7599
17:45:11:590,-9.4349,-6.9559,1.4668,43.8147,0.2467,1.5156,-3.0006,19.3488
17:45:11:617,-9.1597,-5.4628,2.0506,46.1351,0.3958,0.8535,-2.7831,19.9936
17:45:11:632,-8.6835,-4.5033,1.5625,47.3881,0.6108,0.0618,-2.4814,19.6757
17:45:11:650,-8.3127,-3.9553,0.4857,46.1966,0.7488,-0.7677,-2.1515,18.4692
17:45:11:668,-8.0949,-3.5175,-0.8255,47.57,0.7281,-1.4898,-1.8375,16.5482
17:45:11:688,-7.5661,-3.5366,-1.8568,45.3141,0.5473,-1.9883,-1.504,14.1538
17:45:11:709,-6.9583,-3.8812,-2.4024,45.6186,0.2895,-2.1507,-1.168,11.6441
17:45:11:729,-6.4606,-4.41,-3.0652,45.6997,0.0305,-2.0188,-0.8809,9.3376
17:45:11:753,-5.9988,-5.0201,-3.2806,45.0932,-0.2737,-1.7317,-0.6708,7.3985
17:45:11:773,-6.14,-6.7836,-1.9549,44.1555,-0.9273,-0.995,-0.4875,4.8004
17:45:11:790,-6.6951,-8.0758,-1.3185,42.7978,-1.1033,-0.6615,-0.4643,4.0908
17:45:11:814,-7.066,-9.1717,-0.4905,44.2027,-1.1778,-0.3914,-0.4704,3.688
17:45:11:837,-7.5709,-9.7843,0.0766,45.3516,-1.1619,-0.2778,-0.5461,3.4131
17:45:11:858,-8.1667,-9.7603,0.6221,42.2507,-1.0801,-0.3011,-0.6586,3.0827
17:45:11:871,-9.3512,-10.0451,0.5025,42.7923,-0.953,-0.433,-0.7429,2.6018
17:45:11:891,-10.7175,-10.7725,0.3924,44.0453,-0.8516,-0.6248,-0.716,1.9261
17:45:11:913,-11.3061,-10.9615,1.0528,42.9838,-0.7587,-0.8618,-0.54,0.9895
17:45:11:937,-11.2845,-9.9494,1.005,41.623,-0.4472,-1.0634,-0.2896,359.852
17:45:11:949,-11.8134,-8.8247,-0.9452,43.1735,0.1453,-1.0255,-0.0281,358.8304
17:45:11:969,-12.6963,-8.7529,-3.3547,41.0897,0.6548,-0.6615,0.3542,358.3076
17:45:11:991,-13.3161,-9.3416,-4.9077,43.3489,0.7537,-0.0787,0.8735,358.5249
17:45:12:014,-12.7753,-9.8034,-4.7617,42.5996,0.4214,0.5199,1.4746,359.4429
17:45:12:033,-11.5549,-10.2772,-2.6465,40.3689,-0.1442,0.9548,2.0378,0.8803
17:45:12:052,-10.2317,-10.136,-0.1531,42.8515,-0.5877,1.1332,2.4336,2.5774
17:45:12:070,-9.332,-9.4612,1.785,43.8625,-0.694,1.0892,2.678,4.311
17:45:12:089,-8.9803,-8.93,2.3689,43.6705,-0.4998,0.7728,2.8514,5.769
17:45:12:113,-8.4275,-8.3055,1.6223,41.5185,-0.198,0.1583,3.0005,6.492
17:45:12:131,-7.6857,-8.0255,0.4498,32.5354,-0.0221,-0.6138,3.1361,6.1531
17:45:12:149,-7.2048,-7.9896,-0.0479,36.7723,0.0048,-1.3041,3.229,4.8016
17:45:12:171,-6.7932,-8.0853,-0.7537,37.5484,0.0647,-1.7048,3.2949,2.6537
17:45:12:199,-6.3386,-8.2816,-1.2012,38.9925,0.1856,-1.7549,3.3707,0.1132
17:45:12:213,-5.5729,-8.5137,-1.5194,39.3717,0.3298,-1.491,3.4623,357.5893
17:45:12:232,-3.5509,-8.7721,-1.7061,41.2459,0.5106,-0.5417,3.466,355.4798
17:45:12:250,-2.5531,-8.7147,-1.5673,42.362,0.4581,-0.1361,3.2827,354.034
17:45:12:270,-1.8138,-8.6525,-1.3759,40.5535,0.3102,0.107,2.9614,352.9568
17:45:12:294,-1.2514,-8.5113,-1.0624,39.7218,0.1001,0.1644,2.5253,352.9341
17:45:12:311,-0.938,-8.6046,-0.9069,39.4932,-0.1308,0.0813,2.0243,352.7294
17:45:12:396,-0.548,-9.1956,-0.9284,39.5795,-0.3495,-0.0665,1.5039,352.0266
17:45:12:397,-0.1651,-9.8752,-0.7896,39.7568,-0.5388,-0.2119,0.9236,350.7618
17:45:12:398,-0.2919,-10.459,-0.8471,41.6323,-0.6219,-0.2449,0.2211,349.5333
17:45:12:400,-1.1797,-10.8802,-0.8662,41.9831,-0.5779,-0.075,-0.5718,349.3277
17:45:12:414,-2.5388,-11.2439,-0.9069,40.8016,-0.4423,0.2499,-1.3476,350.5116
17:45:12:431,-3.7926,-11.7153,-1.0074,41.2281,-0.2945,0.5541,-2.0257,352.4548
17:45:12:451,-4.9101,-12.2608,-0.6772,41.3878,-0.1821,0.6824,-2.6439,354.166
17:45:12:469,-6.4989,-12.8471,-1.0265,39.6312,-0.0575,0.4931,-3.2938,354.8647
17:45:12:490,-8.5615,-14.2206,-2.3713,38.5786,-0.1479,-0.2302,-3.9939,353.7679
17:45:12:512,-10.952,-14.546,-2.5172,39.5772,-0.8992,-1.6963,-4.6401,350.0912
17:45:12:529,-12.8279,-13.1318,-1.3495,38.8606,-1.9731,-3.0634,-4.9297,344.7955
17:45:12:549,-13.6965,-10.7462,0.8638,37.7617,-2.8015,-3.5667,-4.6255,339.4087
17:45:12:569,-12.8853,-8.1739,3.2136,36.9712,-2.9664,-3.1403,-3.7422,335.0716
17:45:12:589,-11.1697,-6.2883,4.0845,35.9323,-2.4337,-2.2192,-2.6377,332.1308
17:45:12:610,-8.9683,-5.5059,3.472,34.0238,-1.6078,-1.3701,-1.6616,330.3706
17:45:12:630,-6.8866,-5.0369,2.6249,34.4497,-0.9078,-0.8178,-0.9933,329.3267
17:45:12:650,-5.5872,-4.587,1.4333,37.8753,-0.4191,-0.466,-0.6549,328.7303
17:45:12:668,-5.0847,-4.2425,0.5647,38.7846,-0.187,-0.2815,-0.5291,328.3828
17:45:12:688,-4.8311,-4.2257,-0.8399,39.3678,-0.314,-0.2131,-0.4704,328.1198
17:45:12:711,-4.7043,-4.7402,-1.2419,40.3256,-0.5535,-0.1471,-0.4289,327.7379
17:45:12:729,-4.5727,-5.5179,-1.1198,39.1079,-0.8394,0.0056,-0.4044,327.7915
17:45:12:755,-4.6373,-6.2907,-0.5456,36.6065,-1.0788,0.2365,-0.4472,328.1068
17:45:12:769,-4.8981,-6.8506,-0.0048,37.4591,-1.1888,0.5175,-0.5523,328.7466
17:45:12:790,-5.5202,-7.602,0.4044,39.9872,-1.1864,0.8131,-0.672,329.7302
17:45:12:809,-6.4056,-8.6931,0.7322,37.1858,-1.1314,1.0709,-0.7697,330.9842
17:45:12:832,-7.1402,-9.7101,1.0983,39.6234,-1.0288,1.2273,-0.8369,332.3754
17:45:12:850,-7.669,-10.057,1.4165,36.3517,-0.8638,1.2456,-0.9212,333.739
17:45:12:871,-8.0423,-9.7819,1.5697,37.1881,-0.6512,1.1528,-1.0324,334.9302
17:45:12:891,-9.0018,-9.6814,1.4213,37.4297,-0.4729,0.9243,-1.1228,335.8194
17:45:12:910,-10.3346,-10.2413,1.2873,37.6848,-0.3934,0.5602,-1.1155,336.3037
17:45:12:928,-10.9376,-10.6385,1.6558,38.8297,-0.3763,0.0606,-0.9432,336.2657
17:45:12:949,-10.7318,-10.325,1.9621,38.8419,-0.2322,-0.4281,-0.6756,335.7361
17:45:12:969,-10.1743,-9.2171,1.1294,38.5667,0.1807,-0.6908,-0.4215,334.9759
17:45:12:991,-10.5978,-8.7553,-0.8423,37.3441,0.7012,-0.6786,-0.2016,334.3101
17:45:13:015,-11.3803,-8.9516,-2.4622,36.6107,0.9944,-0.4831,0.0671,333.9413
17:45:13:029,-11.4305,-9.3105,-3.283,36.6952,0.9895,-0.1654,0.4532,334.0178
17:45:13:049,-10.5332,-9.3177,-2.7254,37.9118,0.7305,0.1351,0.8796,334.5139
17:45:13:069,-9.5234,-8.8702,-0.9117,38.5667,0.4239,0.3293,1.2327,335.2755
17:45:13:093,-8.9061,-7.9466,0.7418,37.0698,0.364,0.4955,1.4856,336.2603
17:45:13:111,-8.7769,-6.9775,1.6558,38.5938,0.5974,0.6873,1.725,337.5239
17:45:13:131,-8.6022,-6.6736,1.7037,39.9366,0.9969,0.8363,2.0659,339.0212
17:45:13:149,-7.547,-7.1258,0.1196,40.8635,1.6993,1.0331,2.8392,340.725
17:45:13:168,-7.1019,-7.3866,-0.7107,35.3242,1.8142,1.0844,3.1166,344.4702
17:45:13:194,-6.6903,-7.6427,-1.3567,30.1958,1.7702,1.0746,3.3108,346.4489
17:45:13:212,-6.0371,-8.0136,-1.9741,35.6131,1.5589,0.972,3.422,348.3945
17:45:13:231,-5.3647,-8.3725,-2.0028,37.3773,1.1642,0.7215,3.4196,350.045
17:45:13:252,-4.8239,-8.6118,-1.7348,39.456,0.6914,0.3599,3.2852,351.1269
17:45:13:268,-4.3956,-8.6835,-1.3567,38.57,0.2797,-0.0518,3.0555,351.4655
17:45:13:289,-4.0152,-8.729,-0.9739,39.2773,-0.0099,-0.3976,2.7891,351.0276
17:45:13:309,-3.6873,-8.8606,-0.9547,40.2877,-0.1357,-0.6004,2.513,349.9926
17:45:13:331,-3.4744,-9.3775,-1.1414,42.4673,-0.1711,-0.6627,2.232,348.6106
17:45:13:352,-2.9001,-9.8106,-1.1821,40.2721,-0.1699,-0.6114,1.9303,347.1349
17:45:13:371,-2.4335,-10.081,-1.3639,40.0215,-0.1369,-0.5026,1.5247,345.7469
17:45:13:389,-2.2516,-10.014,-1.541,42.2115,-0.0868,-0.3524,0.992,344.6888
17:45:13:408,-2.5005,-9.9135,-1.6941,42.0832,-0.1039,-0.2729,0.3995,343.8444
17:45:13:428,-2.9934,-9.8417,-1.9119,42.7697,-0.1992,-0.284,-0.1747,343.0141
17:45:13:450,-3.6156,-10.3083,-2.2397,43.621,-0.3507,-0.3059,-0.6744,342.2096
17:45:13:472,-3.6778,-11.019,-2.3354,44.1992,-0.5449,-0.2778,-1.1057,341.5321
17:45:13:492,-3.9529,-11.3181,-1.797,43.0902,-0.7673,-0.1764,-1.5675,341.1238
17:45:13:512,-5.123,-11.5549,-0.9476,42.6813,-0.9151,0.0044,-2.0757,341.082
17:45:13:529,-6.8506,-11.9139,-0.5647,44.9205,-0.8443,0.3232,-2.5241,341.597
17:45:13:551,-8.4036,-12.1938,-0.5408,43.2207,-0.628,0.6763,-2.8149,342.618
17:45:13:573,-9.3129,-11.9091,-0.3374,42.8698,-0.3971,0.9158,-2.9322,343.8641
17:45:13:593,-8.7577,-8.8654,0.5192,42.6836,-0.0624,0.7496,-2.7843,345.0077
17:45:13:610,-8.1069,-7.1282,0.6724,43.2579,0.0928,0.4185,-2.6121,345.6692
17:45:13:628,-7.602,-5.7117,0.4451,44.1124,0.2467,0.0386,-2.4178,345.8734
17:45:13:647,-6.853,-4.9316,-0.1029,44.2818,0.3652,-0.3218,-2.2114,344.9652
17:45:13:673,-6.5348,-4.0726,-0.6556,42.6083,0.3677,-0.6871,-2.0073,343.9119
17:45:13:690,-6.2907,-3.7137,-1.5697,42.6062,0.2321,-1.0365,-1.8216,342.4965
17:45:13:711,-6.1567,-3.7208,-2.2373,46.8798,-0.0783,-1.3163,-1.6176,340.7832
17:45:13:727,-6.0826,-4.2544,-2.5077,43.3414,-0.4998,-1.4336,-1.3977,339.0201
17:45:13:748,-5.9581,-5.147,-2.3067,42.4976,-0.9176,-1.3603,-1.1839,337.3512
17:45:13:772,-5.6758,-6.006,-1.5506,42.4976,-1.2694,-1.1819,-1.0141,335.91
17:45:13:792,-5.5442,-6.5635,-0.7801,42.6722,-1.4845,-0.9486,-0.9298,334.7538
17:45:13:809,-5.5705,-7.1617,-0.012,43.8022,-1.5651,-0.7152,-0.9139,333.8742
17:45:13:828,-5.9486,-7.9346,0.5384,43.3217,-1.537,-0.5332,-0.9542,333.1944
17:45:13:848,-6.5898,-8.7242,0.9165,42.9848,-1.4307,-0.4391,-1.0312,332.6114
17:45:13:870,-7.2048,-9.1573,1.2203,45.7811,-1.2719,-0.4562,-1.1179,331.9804
17:45:13:889,-7.9561,-9.5258,1.0863,45.5682,-1.0434,-0.51,-1.1912,331.2771
17:45:13:909,-8.7673,-9.7125,0.8255,45.2461,-0.7917,-0.5442,-1.2144,330.532
17:45:13:928,-9.9781,-10.1815,0.3254,44.7832,-0.5755,-0.582,-1.1729,329.7751
17:45:13:948,-11.0668,-10.6672,-0.1795,45.1094,-0.4191,-0.6138,-1.0275,329.027
17:45:13:970,-11.2582,-10.727,-0.1125,44.4047,-0.336,-0.6492,-0.7746,328.2947
17:45:13:990,-10.7222,-9.9039,0.3254,46.3579,-0.2163,-0.6969,-0.5156,327.5414
17:45:14:011,-10.873,-8.6548,-0.5097,48.2431,0.0903,-0.703,-0.3311,326.8168
17:45:14:028,-11.9545,-8.2696,-1.9693,49.6717,0.4214,-0.4965,-0.1027,326.4087
17:45:14:049,-12.4164,-9.064,-1.8927,46.6224,0.5167,0.366,0.9382,326.5336
17:45:14:073,-10.8802,-9.2171,-0.8327,48.2713,0.4568,0.7105,1.5369,327.2592
17:45:14:088,-9.4301,-8.9228,0.5216,49.6735,0.4226,0.8755,1.9523,329.9174
17:45:14:108,-8.4347,-8.0925,1.5601,49.6877,0.5118,0.8547,2.1807,331.3611
17:45:14:128,-8.0997,-7.279,1.6367,51.1372,0.7525,0.7154,2.3249,332.6854
17:45:14:148,-7.9657,-6.743,0.9428,55.4708,1.0347,0.57,2.4996,333.8568
17:45:14:171,-7.6331,-6.6568,0.1029,61.0737,1.2314,0.4869,2.7427,334.9286
17:45:14:191,-7.2885,-6.8554,-0.4451,48.924,1.2913,0.465,3.009,335.8898
17:45:14:210,-6.8148,-7.346,-0.871,44.3815,1.2449,0.5053,3.2607,336.8884
17:45:14:228,-6.207,-8.059,-1.1198,47.7909,1.119,0.5639,3.4586,338.0788
17:45:14:250,-5.482,-8.6213,-1.0935,49.7066,0.9284,0.592,3.5613,339.372
17:45:14:270,-4.7258,-9.1669,-0.9667,50.2913,0.6951,0.5273,3.5234,340.6631
17:45:14:289,-4.0104,-9.4253,-0.8351,50.8706,0.4312,0.3257,3.3426,341.6613
17:45:14:309,-3.5773,-9.5019,-0.6843,51.7365,0.1685,0.0264,3.0433,342.1166
17:45:14:329,-3.4481,-9.5043,-0.7489,51.9035,-0.0282,-0.284,2.6719,341.8445
17:45:14:355,-3.5318,-9.667,-0.871,51.987,-0.1369,-0.4843,2.2931,340.9585
17:45:14:374,-3.3811,-9.947,-1.0122,50.9341,-0.1626,-0.5454,1.9364,339.6882
17:45:14:391,-2.9934,-10.5284,-1.3519,51.9557,-0.1247,-0.5136,1.5674,338.2879
17:45:14:476,-2.2827,-10.7198,-1.5506,49.4249,-0.0599,-0.4073,1.1178,337.0139
17:45:14:477,-2.0746,-10.4184,-1.9621,48.9597,0.028,-0.2363,0.5338,336.1921
17:45:14:478,-2.747,-10.3226,-2.6728,48.7153,0.1038,0.0142,-0.1185,336.1366
17:45:14:480,-3.4983,-10.6552,-3.5414,48.8052,0.039,0.2402,-0.7074,336.7332
17:45:14:495,-3.9194,-11.4449,-3.8501,48.9597,-0.2908,0.3159,-1.2181,337.3566
17:45:14:522,-4.9005,-11.1362,-1.1438,49.3927,-1.394,0.096,-2.3018,336.8401
17:45:14:530,-6.597,-10.9185,0.3374,47.8527,-1.5968,0.1595,-2.7892,336.1219
17:45:14:552,-8.5567,-10.9926,0.6389,47.447,-1.4319,0.3428,-3.0654,335.639
17:45:14:572,-9.7053,-11.2941,0.1675,50.2976,-1.1326,0.4833,-3.0568,335.3651
17:45:14:590,-9.7364,-11.0405,0.323,48.9597,-0.9554,0.4711,-2.8577,335.0727
17:45:14:608,-8.7171,-9.9589,1.0696,47.8527,-0.8504,0.3636,-2.6182,334.6503
17:45:14:628,-7.6666,-8.26,1.6941,47.2642,-0.6549,0.2512,-2.4581,334.1167
17:45:14:652,-7.4704,-6.6066,1.4859,47.0412,-0.3629,0.1571,-2.38,333.5309
17:45:14:669,-7.5996,-5.3886,1.1294,48.5562,-0.1357,-0.0213,-2.2505,332.8045
17:45:14:688,-7.4608,-4.6995,0.7944,46.5875,-0.0514,-0.3524,-2.0024,331.7483
17:45:14:708,-6.8435,-4.5583,0.2465,48.102,-0.0428,-0.7616,-1.7043,330.2717
17:45:14:728,-6.2357,-4.6828,-0.4977,48.102,-0.0721,-1.1221,-1.4722,328.4554
17:45:14:750,-5.9055,-4.8383,-1.1701,46.7612,-0.1344,-1.3285,-1.3452,326.4578
17:45:14:769,-5.7188,-5.1446,-1.7085,47.1054,-0.2261,-1.3371,-1.2902,324.4947
17:45:14:790,-5.6782,-5.6901,-1.9071,46.5809,-0.3372,-1.1685,-1.2633,322.8025
17:45:14:808,-5.6518,-6.0897,-1.596,45.4212,-0.4484,-0.9034,-1.2657,321.4485
17:45:14:828,-5.8863,-6.3769,-1.2514,44.2996,-0.4936,-0.6163,-1.317,320.4687
17:45:14:851,-6.5755,-6.6616,-1.0433,43.5906,-0.4741,-0.3634,-1.3879,319.807
17:45:14:869,-7.3651,-7.4895,-1.1342,46.4647,-0.4448,-0.2058,-1.4185,319.3498
17:45:14:887,-8.1069,-8.4371,-0.9476,44.1212,-0.4533,-0.13,-1.4087,318.971
17:45:14:908,-8.9994,-9.2985,-0.8088,44.2914,-0.4497,-0.0872,-1.3989,318.6656
17:45:14:928,-9.7819,-9.6239,-0.8638,44.2017,-0.4008,-0.0628,-1.3757,318.3969
17:45:14:951,-10.8945,-9.8728,-0.9571,44.756,-0.3898,-0.0701,-1.3097,318.1443
17:45:14:971,-12.3302,-10.7725,-0.2201,42.9055,-0.5718,-0.345,-0.843,317.8424
17:45:14:990,-11.586,-9.5067,0.9476,44.1271,-0.6231,-0.769,-0.5046,316.5312
17:45:15:013,-11.4927,-7.7288,1.3519,43.0405,-0.413,-1.2015,-0.2419,315.2324
17:45:15:036,-13.0696,-7.6355,-0.5432,42.3213,0.1551,-1.3224,0.0134,313.8368
17:45:15:051,-13.8999,-8.5352,-2.2923,42.5565,0.6316,-1.1074,0.5363,312.7682
17:45:15:071,-13.3041,-9.8273,-2.9719,40.6644,0.8234,-0.5894,1.317,312.3768
17:45:15:088,-11.7464,-10.2724,-2.7996,39.4728,0.8319,0.0874,2.0769,312.8455
17:45:15:108,-9.9326,-10.1886,-1.919,41.4302,0.7232,0.6897,2.667,314.0929
17:45:15:128,-8.796,-9.7484,-0.4786,43.0099,0.557,1.0856,3.0311,315.8827
17:45:15:151,-8.193,-9.2531,0.524,48.1909,0.4483,1.1699,3.2143,317.8977
17:45:15:170,-7.7551,-8.7841,0.8351,48.032,0.4116,0.9353,3.3401,319.6868
17:45:15:187,-7.2574,-8.461,0.9523,39.8188,0.3762,0.4931,3.4733,320.9064
17:45:15:208,-6.5204,-8.2863,0.6389,41.3523,0.3884,0.0606,3.6016,321.664
17:45:15:228,-5.6662,-8.1835,0.1842,41.894,0.4324,-0.2583,3.7006,322.0119
17:45:15:248,-4.8263,-8.1643,-0.1388,43.7367,0.4666,-0.4538,3.7262,322.0152
17:45:15:269,-3.9984,-8.2624,-0.5025,43.7448,0.5033,-0.5307,3.6688,321.768
17:45:15:288,-3.1274,-8.4108,-0.7107,45.2253,0.5228,-0.5246,3.5124,321.3754
17:45:15:310,-2.2493,-8.406,-0.7968,45.5722,0.5191,-0.4868,3.2473,320.8458
17:45:15:332,-1.5769,-8.3462,-0.9858,45.5722,0.513,-0.3927,2.8661,320.3041
17:45:15:350,-1.1318,-8.2122,-1.2586,45.5722,0.4972,-0.2546,2.4019,319.931
17:45:15:370,-0.8877,-8.1859,-1.3495,45.5722,0.4275,-0.119,1.8875,319.8102
17:45:15:388,-0.9021,-8.3916,-1.5745,45.5722,0.3041,-0.0201,1.3328,319.9286
17:45:15:407,-0.9691,-8.7793,-1.7922,48.5645,0.1245,0.0374,0.7648,320.1892
17:45:15:434,-2.5627,-9.8249,-1.34,46.6423,-0.3788,0.0716,-0.4362,320.3981
17:45:15:454,-3.862,-10.5858,-1.0026,46.6423,-0.5437,0.1119,-0.9896,320.5045
17:45:15:475,-4.9627,-11.4808,-1.0265,47.4573,-0.5767,0.223,-1.4576,320.6522
17:45:15:487,-6.1185,-12.7107,-1.4357,47.5886,-0.5791,0.322,-1.8436,320.872
17:45:15:508,-6.7478,-13.8975,-1.3759,46.8015,-0.6708,0.3758,-2.1747,320.9857
17:45:15:529,-6.8172,-13.8425,-0.256,46.5524,-0.8027,0.3721,-2.5314,320.8298
17:45:15:547,-7.5446,-13.0744,0.8997,45.4111,-0.7697,0.366,-2.9529,320.4485
17:45:15:567,-9.0209,-12.3829,1.151,46.7918,-0.4399,0.421,-3.3024,320.0885
17:45:15:588,-10.7055,-11.8038,0.7178,46.6357,0.0757,0.5126,-3.4111,319.9243
17:45:15:608,-11.7105,-10.5045,0.0766,47.4965,0.5876,0.5236,-3.2095,319.9469
17:45:15:631,-11.3755,-8.6716,-0.9332,46.9841,0.9907,0.4283,-2.7489,320.033
17:45:15:651,-9.655,-7.1139,-1.9238,48.0472,1.1801,0.2756,-2.1723,320.1161
17:45:15:669,-7.2861,-6.2836,-2.4239,47.4364,1.0567,-0.0188,-1.6836,319.9016
17:45:15:688,-5.6853,-5.6925,-2.8427,52.9894,0.6755,-0.466,-1.4966,319.148
17:45:15:708,-5.2953,-5.0536,-2.7996,52.811,0.1001,-1.0011,-1.5602,317.7359
17:45:15:728,-5.2953,-4.5966,-2.1703,49.0469,-0.5376,-1.4947,-1.6506,315.7105
17:45:15:760,-5.3958,-4.398,-1.474,47.8396,-1.0226,-1.8123,-1.6628,310.8312
17:45:15:772,-5.5849,-4.4219,-0.8423,47.4754,-1.278,-1.8453,-1.5883,308.7203
17:45:15:790,-5.3001,-5.5202,-1.1151,47.3874,-1.2926,-1.6181,-1.4441,307.1202
17:45:15:811,-5.3097,-6.3601,-0.9906,45.6756,-1.1802,-0.7946,-1.1961,306.0497
17:45:15:828,-6.1304,-6.7167,-0.5599,45.3066,-1.1656,-0.433,-1.2193,305.412
17:45:15:847,-7.8939,-6.0538,-0.0814,46.7083,-1.1399,-0.1911,-1.2462,305.057
17:45:15:867,-9.7244,-5.0656,0.1914,45.3382,-1.0837,-0.0836,-1.0776,304.8435
17:45:15:888,-10.5093,-5.4389,-0.4594,47.1516,-1.0043,-0.0836,-0.65,304.706
17:45:15:915,-10.3561,-6.7669,-1.1246,46.9426,-1.0556,-0.1984,-0.143,304.4824
17:45:15:933,-9.7507,-7.8269,-1.0552,46.9773,-1.3036,-0.455,0.2076,304.0128
17:45:15:946,-9.7029,-8.1141,-0.4355,47.4809,-1.5944,-0.7763,0.3091,303.183
17:45:15:966,-10.5906,-7.7145,0.5743,49.7665,-1.7606,-0.9889,0.2736,302.0963
17:45:15:986,-12.7035,-8.3031,0.9739,50.4049,-1.7312,-1.0952,0.3249,300.924
17:45:16:011,-13.797,-8.9659,1.3831,52.158,-1.5871,-1.1514,0.5827,299.7507
17:45:16:031,-14.1105,-8.8176,2.2684,48.125,-1.3904,-1.2821,0.9077,298.5376
17:45:16:052,-15.2088,-7.3196,2.9384,49.2136,-1.0043,-1.4373,1.1948,297.2607
17:45:16:066,-16.9292,-6.7549,2.199,49.3849,-0.3751,-1.3798,1.565,296.1364
17:45:16:087,-18.1352,-8.5304,1.0457,49.5404,0.2638,-0.995,2.1734,295.6435
17:45:16:107,-17.5059,-10.7031,0.4307,51.9684,0.5876,-0.659,2.9077,295.7781
17:45:16:127,-15.6275,-12.2441,0.4834,52.8808,0.6254,-0.6053,3.4977,296.1245
17:45:16:147,-13.6056,-12.0646,1.5027,54.0154,0.5729,-0.6993,3.7934,296.3599
17:45:16:167,-12.7202,-10.9472,2.6584,55.8356,0.6401,-0.8618,3.8301,296.265
17:45:16:188,-12.2824,-10.0475,3.1514,54.9579,0.8686,-1.1331,3.7824,295.4597
17:45:16:210,-11.7583,-9.679,3.0269,54.4815,1.1728,-1.5643,3.7494,293.3294
17:45:16:243,-11.1697,-9.4182,2.6225,56.1066,1.4953,-2.0359,3.7128,289.1704
17:45:16:246,-10.3466,-9.2148,2.211,56.1605,1.8288,-2.3768,3.6834,282.2766
17:45:16:266,-9.3799,-9.0233,1.7204,56.3709,2.1856,-2.5283,3.6468,272.0311
17:45:16:286,-8.7075,-8.6309,1.2467,57.6768,2.5264,-2.5002,3.5613,258.3066
17:45:16:308,-7.8413,-8.4873,0.3924,55.2723,2.739,-2.494,3.4574,241.9633
17:45:16:327,-7.0445,-8.3557,-0.3661,56.3617,2.6755,-2.7531,3.2656,225.6995
17:45:16:350,-7.3555,-6.9775,0.4164,57.5385,1.8472,-3.9723,2.5143,205.823
17:45:16:368,-7.7551,-6.1543,0.9954,55.6646,1.5943,-4.3572,2.138,201.6927
17:45:16:386,-7.937,-5.1206,1.5051,56.04,1.4978,-4.4195,1.813,199.5591
17:45:16:408,-8.4562,-4.2999,1.5027,54.1775,1.4721,-4.2863,1.5833,198.4196
17:45:16:428,-8.1212,-3.1346,1.4118,55.7097,1.3402,-4.0835,1.4184,197.7967
17:45:16:451,-7.5829,-2.4191,2.4455,56.2962,1.014,-3.761,1.2974,197.4062
17:45:16:467,-6.932,-2.3115,4.1252,55.7235,0.6401,-3.4702,1.1814,197.2039
17:45:16:557,-6.7549,-1.5912,6.4128,52.967,0.3762,-3.3089,0.97,197.261
17:45:16:571,-6.408,-1.1198,6.3051,52.6459,0.4275,-3.2063,0.7599,197.497
17:45:16:572,-5.7404,0.0048,4.7689,53.235,0.6413,-3.0121,0.5632,197.8722
17:45:16:573,-5.6638,1.2778,3.4241,57.6839,0.6731,-2.5539,0.4092,198.2458
17:45:16:573,-6.5085,2.1081,3.4169,58.0395,0.4055,-1.8355,0.386,198.3849
17:45:16:587,-6.5324,1.1964,6.7621,58.8159,-0.1552,-1.1074,0.5705,198.089
17:45:16:612,-5.1709,-0.0742,9.1669,55.2922,-0.4875,-0.8032,0.7538,197.4921
17:45:16:628,-4.6493,0.2369,8.016,54.8308,-0.325,-0.8594,0.6707,196.9924
17:45:16:647,-4.9579,1.3783,5.324,56.1009,-0.0379,-0.8496,0.4911,196.6493
17:45:16:671,-4.8168,2.2899,4.3119,55.4169,-0.0269,-0.5148,0.4886,196.1866
17:45:16:687,-4.2329,2.211,5.5059,55.1163,-0.2493,0.0325,0.6267,195.3756
17:45:16:708,-3.661,2.0794,6.4367,54.7629,-0.4179,0.3257,0.711,194.3877
17:45:16:727,-2.881,2.2397,6.3936,53.5681,-0.4448,0.2976,0.7049,193.4177
17:45:16:749,-2.2923,2.4837,5.8696,53.8706,-0.3886,0.1937,0.6682,192.5301
17:45:16:767,-1.7683,2.7517,5.5681,52.6841,-0.3128,0.1644,0.6462,191.6655
17:45:16:793,-1.4788,3.1226,5.6542,53.6049,-0.2493,0.2169,0.6401,190.7967
17:45:16:810,-1.0648,3.2925,6.2405,53.1214,-0.1503,0.2426,0.6951,189.8915
17:45:16:832,-0.6724,3.0796,6.542,50.8547,-0.1296,0.1766,0.7342,188.0915
17:45:16:847,-0.6939,3.1274,7.1641,52.8318,-0.0819,0.1424,0.7318,187.191
17:45:16:867,-0.6867,3.283,7.1282,52.2533,-0.0062,0.052,0.7085,186.3337
17:45:16:885,-0.7489,3.5916,7.0181,50.4699,0.0244,-0.0714,0.6902,185.5452
17:45:16:906,-0.7537,4.008,7.6307,49.0812,0.0158,-0.0506,0.6805,184.7653
17:45:16:927,-0.7346,4.2975,8.5208,51.0896,0.0073,0.0202,0.6731,183.9692
17:45:16:945,-0.8806,4.41,9.6239,50.4006,-0.0013,-0.0653,0.6023,183.2822
17:45:16:965,-1.206,4.611,9.5641,50.4846,-0.0062,-0.3695,0.4569,182.861
17:45:16:985,-1.2897,5.2164,9.143,50.5192,-0.0941,-0.6236,0.2883,182.7281
17:45:17:004,-1.6463,5.4365,9.722,48.9056,-0.2737,-0.5674,0.1991,182.648
17:45:17:027,-1.6295,5.415,11.0931,49.5475,-0.4497,-0.3866,0.1637,182.5592
17:45:17:046,-1.273,5.5968,10.928,48.1828,-0.4545,-0.2668,0.1099,182.451
17:45:17:065,-1.2849,5.6279,10.3609,47.922,-0.5034,-0.2253,0.0073,182.44
17:45:17:087,-2.1129,4.8192,13.1844,48.3134,-0.7759,0.0068,-0.1039,182.4738
17:45:17:106,-2.8881,3.4672,16.2042,48.9292,-0.815,0.5566,-0.1711,182.4117
17:45:17:127,-3.9841,2.8522,15.7807,48.6817,-0.2908,1.0758,-0.2175,182.2552
17:45:17:145,-4.2018,2.5053,12.9045,51.4186,0.408,1.2786,-0.165,181.9562
17:45:17:167,-2.0722,3.6156,9.6598,48.8643,0.8282,1.3495,0.0024,181.4354
17:45:17:189,-3.405,2.7206,6.4176,46.6091,0.8563,1.3678,-0.1821,181.0361
17:45:17:209,-3.8261,2.1703,6.53,47.8497,0.3176,1.2395,-0.2114,180.7059
17:45:17:224,-3.6945,1.7228,7.3866,44.1814,-0.2065,1.1186,-0.1173,180.324
17:45:17:245,-3.1537,1.2108,8.0279,46.2175,-0.369,1.0758,0.039,179.8292
17:45:17:264,-2.9767,1.2634,6.4271,45.3758,0.3115,1.5364,0.3127,179.0718
17:45:17:285,-2.3067,1.7922,5.4245,45.2928,0.656,1.6378,0.4031,176.8986
17:45:17:308,-1.3974,0.682,5.324,45.4577,0.7562,1.4472,0.3506,175.797
17:45:17:328,-2.0315,0.8447,5.4245,45.4163,0.6877,1.1491,0.0818,175.1084
17:45:17:350,-3.3954,1.6247,5.7188,45.0101,0.656,0.9536,-0.3177,174.9413
17:45:17:365,-4.3573,2.0411,6.006,45.6503,0.6694,0.9072,-0.4753,174.9622
17:45:17:388,-4.7832,2.0554,5.9151,45.9908,0.7403,0.8742,-0.4166,174.915
17:45:17:409,-4.721,1.8736,4.8598,43.1539,0.7342,0.6555,-0.3556,174.875
17:45:17:428,-5.6399,2.4072,4.9173,44.4391,0.4959,0.344,-0.485,175.1715
17:45:17:448,-6.3601,2.5747,4.9962,45.6797,0.2039,-0.1398,-0.6683,175.9748
17:45:17:465,-7.0684,2.5149,5.9151,42.8809,-0.0257,-0.5283,-0.8003,177.1664
17:45:17:485,-7.5278,2.2421,6.4104,42.205,-0.176,-0.7641,-0.865,178.577
17:45:17:505,-7.3005,2.3474,5.7332,43.4429,-0.2725,-0.9449,-0.8516,180.0492
17:45:17:525,-7.2407,2.3952,5.2427,42.2528,-0.4875,-0.8826,-0.9053,181.5165
17:45:17:546,-7.5302,1.9573,5.7858,41.8395,-0.7807,-0.5368,-0.9457,182.8382
17:45:17:567,-7.9992,1.8855,6.0227,42.8157,-0.8846,-0.3438,-0.8626,183.9755
17:45:17:586,-8.3725,2.1009,6.9679,40.3361,-0.8333,0.3013,-0.661,184.5856
17:45:17:609,-9.7962,1.6271,10.7462,41.7498,-0.8602,1.5059,-0.4802,184.5781
17:45:17:627,-10.8826,0.8949,12.8207,38.8528,-0.7978,1.9066,-0.3629,184.3226
17:45:17:647,-10.5882,0.8375,11.2893,40.9138,-0.5547,1.2957,-0.2273,184.1425
17:45:17:666,-9.4325,0.4355,8.193,39.906,-0.3873,0.6116,-0.1344,184.0566
17:45:17:689,-8.4538,0.4283,6.1376,39.1248,-0.4472,0.2866,-0.143,184.1006
17:45:17:708,-7.322,0.6796,6.9966,42.8565,-1.1436,0.4246,-0.2969,184.5902
17:45:17:728,-6.0419,-0.1627,8.0949,41.4088,-1.5382,0.0288,-0.3519,185.076
17:45:17:746,-4.2257,-0.0622,7.1521,38.6354,-1.8192,-0.9412,-0.4557,185.9095
17:45:17:767,-4.2592,0.9356,5.7691,38.8516,-1.9793,-1.6425,-0.6231,186.9352
17:45:17:791,-5.1924,1.5386,5.7069,37.8177,-1.9304,-1.4617,-0.6268,187.7772
17:45:17:810,-4.9579,1.3831,6.3936,38.2162,-1.592,-0.7519,-0.3177,188.1139
17:45:17:830,-4.1874,1.139,6.396,37.782,-1.0288,-0.0579,0.0879,187.9057
17:45:17:852,-3.4839,0.8088,5.9557,38.2825,-0.4741,0.4063,0.3579,187.3421
17:45:17:865,-3.4529,0.8399,5.4748,39.1494,-0.1919,0.5468,0.397,186.745
17:45:17:886,-3.6778,0.8638,4.8933,35.8805,-0.2542,0.3269,0.3335,186.2002
17:45:17:905,-4.1539,1.1246,4.6804,36.964,-0.5303,0.1045,0.2687,185.7218
17:45:17:927,-4.7593,1.0744,5.5968,36.0076,-0.887,0.1021,0.226,185.322
17:45:17:945,-5.4652,0.7418,7.0875,36.6498,-1.1644,0.2524,0.2174,184.9431
17:45:17:970,-6.3003,0.469,8.4586,35.4607,-1.2865,0.454,0.2345,184.5724
17:45:17:993,-7.456,0.5838,10.5093,36.2434,-1.2584,0.7105,0.2773,184.1797
17:45:18:008,-8.1404,0.4762,11.9474,34.4904,-1.0837,0.9097,0.3836,183.6816
17:45:18:027,-8.0231,0.2417,12.5216,34.5459,-0.8259,0.9989,0.5167,183.0181
17:45:18:047,-7.8772,0.1747,12.4762,34.7438,-0.6439,1.0159,0.5302,182.3422
17:45:18:065,-7.8676,-0.0407,12.5216,34.7304,-0.6036,0.9561,0.4055,181.8392
17:45:18:085,-8.0518,-0.3039,13.3807,34.886,-0.6989,0.7545,0.182,181.6294
17:45:18:109,-9.1525,-0.3254,15.7974,35.812,-0.6964,0.6421,-0.1112,181.8626
17:45:18:128,-10.0546,-0.7322,16.5153,35.1963,-0.2554,0.6311,-0.3238,182.4361
17:45:18:147,-9.4995,-1.1557,13.7061,33.8918,0.5888,0.5712,-0.3397,183.0515
17:45:18:170,-8.8271,-1.1414,10.0188,36.0818,1.3536,0.7423,-0.3397,184.5933
17:45:18:191,-8.1332,-0.1579,6.4319,35.6484,1.7812,1.6293,-0.4008,185.5972
17:45:18:211,-7.5661,-0.0215,5.9222,35.8383,1.7152,1.9604,-0.336,186.474
17:45:18:228,-6.7836,-0.1795,5.8624,35.9178,1.6578,2.0251,-0.2358,187.1823
17:45:18:245,-6.0969,-0.2106,5.5825,35.6363,1.7177,1.8675,-0.143,187.6398
17:45:18:265,-6.2333,0.2225,4.6852,36.4247,1.8851,1.6232,-0.0513,187.8105
17:45:18:285,-6.1065,0.3206,3.5605,36.2386,2.0292,1.3983,0.1624,187.3884
17:45:18:308,-5.1589,-0.3087,2.5196,38.1403,2.0365,1.1369,0.4947,186.1298
17:45:18:326,-4.1779,-0.9021,1.6582,35.5925,1.8594,0.8119,0.6963,184.3434
17:45:18:346,-3.3882,-1.4309,1.0863,36.176,1.543,0.5334,0.689,182.5916
17:45:18:368,-3.137,-1.9214,0.8997,36.878,1.1679,0.377,0.5277,181.2383
17:45:18:389,-3.3452,-2.4957,0.804,36.861,0.8234,0.3868,0.2577,180.5062
17:45:18:406,-3.8668,-3.2279,0.8016,39.1953,0.546,0.548,-0.055,180.4078
17:45:18:425,-4.5368,-3.9075,0.8471,36.9956,0.3078,0.8083,-0.4081,181.0322
17:45:18:450,-5.5466,-4.5392,1.0241,38.2889,0.0476,1.0514,-0.8027,182.6118
17:45:18:469,-6.4654,-5.5872,1.4836,37.651,-0.2163,1.1894,-1.157,185.3726
17:45:18:489,-6.9344,-6.6927,2.0459,36.735,-0.4411,1.1247,-1.4759,189.6594
17:45:18:507,-6.8866,-7.8628,2.4479,36.8664,-0.6231,0.8021,-1.829,195.8658
17:45:18:525,-7.3819,-8.2983,2.7302,35.5805,-0.8015,0.3306,-2.2724,203.9222
17:45:18:546,-9.0616,-8.6668,2.345,35.6986,-0.9115,0.0325,-2.7404,213.0606
17:45:18:570,-10.8706,-8.8056,1.73,34.945,-0.931,0.1119,-3.0507,222.2673
17:45:18:646,-11.4592,-8.4538,1.5697,34.4013,-0.9664,0.4002,-3.0592,230.6974
17:45:18:647,-10.4973,-7.669,2.1583,33.6898,-1.0361,0.7924,-2.8968,238.2203
17:45:18:648,-10.617,-7.4058,2.8618,32.5227,-1.0679,1.0868,-2.8308,245.1461
17:45:18:649,-12.4403,-8.8367,3.3404,33.3119,-0.7881,1.2798,-2.8125,257.0677
17:45:18:665,-12.3494,-9.1334,2.802,34.3042,-0.6195,1.0612,-2.6548,261.2342
17:45:18:691,-11.2247,-8.4012,1.7444,32.2308,-0.4753,0.8461,-2.4471,264.3347
17:45:18:708,-10.0858,-7.2981,1.3304,32.4853,-0.4716,0.7802,-2.3079,266.8821
17:45:18:725,-9.3344,-6.2788,1.6941,30.5472,-0.6012,0.7679,-2.2321,269.062
17:45:18:745,-9.1214,-5.2858,2.2875,31.8861,-0.7111,0.6739,-2.1894,270.8311
17:45:18:767,-8.8056,-4.331,2.522,30.5801,-0.7368,0.4063,-2.1173,271.9439
17:45:18:787,-7.8748,-3.5821,1.931,35.6103,-0.6231,0.1852,-1.9157,272.5746
17:45:18:806,-7.3484,-3.003,1.2514,40.2631,-0.4998,0.107,-1.7215,272.9703
17:45:18:826,-6.676,-2.9432,0.8351,39.1381,-0.5779,-0.0323,-1.5015,273.0774
17:45:18:846,-6.4606,-3.3523,1.0576,32.3671,-0.7978,-0.2094,-1.328,272.8783
17:45:18:867,-6.6114,-3.8022,1.2921,32.2077,-0.9554,-0.3291,-1.201,272.4818
17:45:18:886,-6.9655,-4.4219,1.2945,31.5402,-0.9432,-0.3011,-1.08,272.1008
17:45:18:906,-7.2359,-5.1278,1.1797,31.3669,-0.8284,-0.1361,-0.9481,271.9342
17:45:18:926,-7.2048,-6.1783,0.9356,31.2645,-0.7026,0.085,-0.8381,272.033
17:45:18:947,-7.2694,-7.1306,0.7537,28.5554,-0.6598,0.2365,-0.8088,272.3322
17:45:18:967,-7.7384,-8.071,0.8638,28.8776,-0.7172,0.2903,-0.8736,272.6675
17:45:18:986,-8.3557,-8.7673,1.2227,28.1387,-0.804,0.2793,-0.9786,272.9558
17:45:19:008,-9.198,-9.1525,1.4405,26.6588,-0.8198,0.2572,-1.0703,273.1749
17:45:19:027,-9.655,-8.9563,1.6223,27.4983,-0.7563,0.2585,-1.113,273.3721
17:45:19:049,-10.4207,-8.729,1.3495,27.8647,-0.6684,0.223,-1.0862,273.4999
17:45:19:067,-11.3587,-9.521,0.8159,26.3848,-0.6073,0.2011,-0.9444,273.6267
17:45:19:085,-11.4233,-10.1695,0.9236,27.2213,-0.6244,0.1974,-0.6952,273.7453
17:45:19:106,-10.4136,-8.8415,1.8688,27.4042,-0.347,0.3354,-0.4227,273.9408
17:45:19:127,-11.8636,-8.1308,0.9452,26.5837,0.0671,0.5101,-0.4166,274.7922
17:45:19:148,-13.2227,-8.2098,0.1388,25.6967,0.4043,0.7398,-0.2102,275.6235
17:45:19:167,-14.0052,-8.461,-0.2776,27.548,0.5729,1.0074,0.2052,276.8401
17:45:19:188,-13.1462,-8.2385,-0.2106,27.7474,0.612,1.242,0.7489,278.4503
17:45:19:205,-11.5023,-7.6355,0.95,27.6024,0.5143,1.3812,1.3035,280.3197
17:45:19:227,-10.4207,-6.853,2.0052,28.134,0.4581,1.3971,1.7299,282.3047
17:45:19:251,-9.6479,-6.1065,2.6034,29.5605,0.5399,1.253,2.0818,284.1956
17:45:19:270,-8.9827,-5.7547,2.6082,30.8054,0.7146,0.9793,2.4263,285.8671
17:45:19:284,-8.339,-5.6853,2.0674,36.1402,0.9162,0.6494,2.7549,287.2114
17:45:19:304,-7.7815,-5.8696,1.2443,37.4457,1.075,0.311,3.0396,288.1225
17:45:19:324,-7.3388,-6.2883,0.5695,33.2179,1.1667,0.0667,3.2681,288.6721
17:45:19:345,-6.932,-6.9416,-0.0287,34.0992,1.2388,-0.003,3.4379,289.0892
17:45:19:364,-6.451,-7.5685,-0.5192,36.1128,1.2925,0.0972,3.5466,289.6753
17:45:19:385,-5.671,-8.1093,-0.7681,38.1088,1.2754,0.2805,3.5833,290.6022
17:45:19:406,-4.8838,-8.6907,-0.9763,38.7798,1.1618,0.4307,3.4977,291.9354
17:45:19:431,-4.3765,-9.119,-1.2275,40.861,0.9346,0.4625,3.2595,293.502
17:45:19:451,-4.252,-9.0544,-0.9811,41.694,0.59,0.3623,2.8967,294.9719
17:45:19:465,-4.3813,-8.7075,-0.4164,41.0029,0.2406,0.1656,2.4776,295.9918
17:45:19:486,-4.5655,-8.9827,-0.0024,42.9697,-0.005,-0.0335,2.0781,296.4046
17:45:19:506,-4.4411,-9.4588,0.0933,42.627,-0.1247,-0.1984,1.725,296.1112
17:45:19:528,-4.1994,-9.8824,0.0144,45.2108,-0.1699,-0.334,1.3353,295.0657
17:45:19:546,-3.9314,-10.0738,-0.213,42.9874,-0.1577,-0.3927,0.8686,293.4686
17:45:19:567,-4.2832,-10.0929,-0.7178,43.8784,-0.1357,-0.2827,-0.2419,290.4975
17:45:19:587,-4.8024,-10.0211,-0.6365,44.6308,-0.1674,-0.1434,-0.7832,289.7662
17:45:19:606,-4.6253,-9.9876,-0.1866,45.1519,-0.22,-0.009,-1.2437,289.5239
17:45:19:625,-4.2162,-9.5139,0.7418,44.0827,-0.2273,0.1082,-1.7141,289.5699
17:45:19:647,-4.8383,-9.3799,1.1198,44.6813,-0.0367,0.355,-2.259,290.2051
17:45:19:668,-6.9607,-9.9135,0.5551,43.8642,0.4019,0.752,-2.7733,291.7126
17:45:19:685,-9.1884,-10.8586,-0.7035,43.7414,0.8625,1.0783,-3.1032,293.6911
17:45:19:706,-10.1049,-11.0166,-1.7587,43.5896,1.0482,1.055,-3.2217,295.3497
17:45:19:724,-10.2293,-10.0977,-2.0172,42.4804,0.794,0.6287,-3.2303,296.008
17:45:19:746,-9.7675,-8.4778,-1.2778,42.9583,0.2052,-0.0628,-3.1582,295.4316
17:45:19:765,-9.3177,-7.0349,-0.1149,41.4647,-0.3983,-0.7433,-3.0128,293.8075
17:45:19:786,-9.1334,-5.7236,0.993,42.3639,-0.76,-1.2357,-2.8063,291.5588
17:45:19:807,-8.7817,-4.6277,1.3639,43.5948,-0.7966,-1.4983,-2.4972,289.0709
17:45:19:832,-8.1428,-3.8381,1.2945,45.3462,-0.6158,-1.5704,-2.11,286.5979
17:45:19:849,-7.3292,-3.4122,0.4714,44.0774,-0.3238,-1.4837,-1.7166,284.3882
17:45:19:867,-6.6209,-3.2853,-0.3541,42.9911,-0.0831,-1.265,-1.3842,282.6047
17:45:19:885,-6.2094,-3.4505,-0.9739,41.3529,0.0341,-0.9644,-1.1436,281.2719
17:45:19:905,-5.8528,-3.9601,-1.2921,42.0951,0.0586,-0.6126,-0.9554,280.4257
17:45:19:934,-5.7404,-4.6564,-1.4836,42.0826,0.0256,-0.2681,-0.843,280.0323
17:45:19:948,-5.8289,-5.3145,-1.4859,42.5029,-0.0611,-0.0005,-0.8174,280.001
17:45:19:963,-6.2261,-5.9366,-1.2275,41.4081,-0.1784,0.1827,-0.8577,280.1987
17:45:19:985,-6.8842,-6.6855,-0.9906,41.1457,-0.3055,0.2756,-0.9212,280.496
17:45:20:005,-7.5805,-7.7647,-0.8183,40.5193,-0.4252,0.2731,-0.9689,280.7653
17:45:20:026,-8.8056,-9.3679,-0.1866,42.0052,-0.5706,0.1766,-1.1203,280.9592
17:45:20:044,-9.7723,-9.0879,-0.3613,41.2119,-0.5254,0.1241,-1.2267,281.1735
17:45:20:067,-11.2678,-9.1597,-0.5719,40.945,-0.5303,0.0826,-1.2218,281.1235
17:45:20:089,-12.3422,-9.5306,-0.5025,41.6258,-0.6354,0.0532,-1.0373,281.0385
17:45:20:105,-12.1484,-9.1167,-0.3948,40.3499,-0.7807,0.0032,-0.7184,280.89
17:45:20:126,-11.2247,-7.882,-0.1101,40.5234,-0.865,-0.0518,-0.3751,280.6925
17:45:20:145,-11.3731,-7.2407,-0.1172,40.5234,-0.804,-0.0421,-0.0917,280.5163
17:45:20:163,-12.1651,-7.9131,-0.5216,39.122,-0.5767,0.1192,0.226,280.5709
17:45:20:185,-13.0217,-9.3272,-0.8519,40.3602,-0.3079,0.5199,0.6499,281.1816
17:45:20:206,-12.8997,-10.1958,-0.457,39.2062,-0.0599,1.0563,1.1349,282.5118
17:45:20:230,-11.7512,-10.1336,0.1795,38.5814,0.2015,1.5865,1.5821,284.585
17:45:20:245,-10.6217,-9.3918,1.1222,39.8676,0.4507,2.0129,1.9009,287.2945
17:45:20:268,-9.9565,-8.2529,1.5936,39.8027,0.6499,2.1387,2.1025,290.2675
17:45:20:286,-9.6215,-7.1139,1.5888,40.3746,0.7672,1.909,2.2772,293.107
17:45:20:304,-9.1454,-6.2405,1.2179,44.9334,0.7892,1.4155,2.48,295.4465
17:45:20:327,-8.6309,-5.8313,0.5791,48.2433,0.7476,0.8412,2.7097,297.1674
17:45:20:346,-8.1332,-5.8624,0.1412,40.7672,0.6645,0.3489,2.9394,298.2699
17:45:20:364,-7.7791,-6.1926,-0.2082,36.8944,0.5912,0.0239,3.1581,299.0157
17:45:20:385,-7.4512,-6.7932,-0.4905,39.3284,0.5546,-0.1031,3.3609,299.7324
17:45:20:404,-6.853,-7.5063,-0.5264,39.6241,0.5265,-0.0934,3.5283,300.5696
17:45:20:427,-6.0634,-8.083,-0.524,40.6545,0.4898,-0.0457,3.6114,301.652
17:45:20:446,-5.3073,-8.5041,-0.6317,41.171,0.4312,-0.0127,3.571,302.986
17:45:20:468,-4.1731,-8.8247,-0.6628,39.263,0.1783,-0.0543,3.1275,306.3004
17:45:20:486,-3.9649,-8.8487,-0.6915,39.0498,-0.0111,-0.1764,2.7708,307.7468
17:45:20:504,-3.9171,-9.0186,-0.6628,39.0479,-0.22,-0.3353,2.397,308.71
17:45:20:526,-3.6945,-9.4182,-0.5336,38.1602,-0.413,-0.4819,2.0219,308.9542
17:45:20:544,-3.2518,-9.7531,-0.4451,39.6166,-0.534,-0.5784,1.6089,308.3378
17:45:20:564,-2.79,-9.6144,-0.4953,38.0946,-0.5731,-0.626,1.1129,306.7039
17:45:20:585,-3.1537,-9.8058,-0.4953,37.9559,-0.5572,-0.571,0.5424,304.2953
17:45:20:606,-4.142,-10.0092,-0.9356,38.2882,-0.5132,-0.4513,-0.0379,301.6464
17:45:20:626,-4.8885,-10.9256,-1.4907,36.8018,-0.5071,-0.3108,-0.5376,299.2739
17:45:20:646,-4.5751,-11.3827,-1.3185,37.0737,-0.6329,-0.2216,-0.9884,297.1006
17:45:20:722,-4.6493,-10.9759,-0.1962,35.6245,-0.8211,-0.1996,-1.5406,294.819
17:45:20:723,-5.9964,-10.3513,1.0193,35.3247,-0.8748,-0.1996,-2.16,292.4849
17:45:20:723,-8.2265,-9.9757,0.7298,32.4818,-0.6745,-0.2681,-2.6646,290.2132
17:45:20:724,-9.8895,-10.0164,-0.4642,35.3861,-0.38,-0.3316,-2.8931,288.2325
17:45:20:744,-10.3705,-9.8608,-1.2538,33.5812,-0.1809,-0.3108,-2.8723,286.7133
17:45:20:763,-9.9828,-8.918,-1.4046,34.7767,-0.0795,-0.2009,-2.7709,285.7072
17:45:20:785,-9.2531,-7.3866,-1.2347,33.7343,-0.0062,-0.0188,-2.6695,285.2061
17:45:20:812,-8.4897,-6.0275,-0.9404,33.287,0.0134,0.1058,-2.5571,284.9628
17:45:20:830,-7.87,-5.0249,-0.8016,32.8061,-0.0721,-0.0115,-2.4361,284.5785
17:45:20:847,-7.1809,-4.52,-0.5049,38.9616,-0.3092,-0.3988,-2.314,283.5741
17:45:20:866,-6.6784,-4.2856,-0.1866,39.2775,-0.606,-0.9168,-2.226,281.7854
17:45:20:885,-6.4893,-4.2449,-0.1579,36.1254,-0.7966,-1.2833,-2.1674,279.5422
17:45:20:908,-6.4534,-4.4076,-0.3829,33.3372,-0.8492,-1.3554,-2.1063,277.3292
17:45:20:926,-6.9368,-5.2116,-0.5312,29.9446,-0.7783,-0.8044,-1.9084,274.279
17:45:20:946,-7.2311,-5.7308,-0.4762,30.8773,-0.6622,-0.3353,-1.7948,273.662
17:45:20:967,-7.4967,-6.128,-0.3159,31.7752,-0.5376,0.0801,-1.7129,273.5541
17:45:20:984,-7.7767,-6.3075,-0.1507,30.298,-0.4655,0.311,-1.675,273.7495
17:45:21:005,-8.4467,-6.7908,-0.0431,30.5216,-0.479,0.3318,-1.6665,273.9266
17:45:21:026,-9.2961,-7.6116,0.012,29.9934,-0.5291,0.2292,-1.6371,273.9505
17:45:21:045,-9.9589,-8.3294,0.2058,29.4636,-0.5584,0.1326,-1.5785,273.8163
17:45:21:064,-10.4854,-8.2265,0.2632,28.6014,-0.5034,0.0801,-1.5125,273.6218
17:45:21:084,-11.0357,-7.5326,0.122,29.5995,-0.4081,0.063,-1.4209,273.4113
17:45:21:108,-12.3422,-7.791,-0.213,28.4287,-0.3971,0.0227,-1.2315,273.1708
17:45:21:126,-13.4405,-8.808,-0.1962,28.17,-0.5144,-0.0689,-0.876,272.8694
17:45:21:146,-12.8399,-9.1861,0.9787,27.7893,-0.65,-0.1874,-0.4069,272.481
17:45:21:164,-11.5621,-8.7625,1.7085,25.5293,-0.5327,-0.2754,-0.0074,272.0312
17:45:21:185,-11.3946,-8.4491,0.6508,26.0907,-0.1064,-0.2522,0.2333,271.6685
17:45:21:210,-12.189,-8.6716,-0.6054,24.6977,0.331,0.0471,0.452,271.7089
17:45:21:226,-13.2443,-9.5522,-1.1557,25.1522,0.5912,0.6067,0.7757,272.4578
17:45:21:247,-13.1151,-9.8273,-0.6221,23.287,0.7122,1.2456,1.2119,274.0462
17:45:21:265,-11.9378,-9.4205,0.4403,23.1854,0.7623,1.7429,1.6554,276.3123
17:45:21:284,-10.6265,-8.406,1.6654,24.405,0.7831,1.9811,2.0158,278.9855
17:45:21:308,-9.8776,-7.3196,2.211,23.0263,0.8588,1.9261,2.2882,281.688
17:45:21:326,-9.5186,-6.5803,2.2158,26.2411,0.9382,1.6134,2.5472,284.1667
17:45:21:344,-9.1023,-6.2309,1.6582,35.3061,0.9773,1.1259,2.8319,286.1514
17:45:21:363,-8.6572,-6.2668,0.7992,28.817,0.948,0.5883,3.1215,287.4684
17:45:21:384,-7.7527,-7.3579,-0.0694,22.1058,0.8026,-0.0372,3.5967,288.1989
17:45:21:408,-7.4058,-8.1141,-0.402,24.7754,0.7647,-0.0604,3.7372,289.4196
17:45:21:428,-6.8483,-9.0616,-0.4164,25.3715,0.7024,0.03,3.8276,290.2062
17:45:21:445,-6.1065,-9.746,-0.2106,26.5366,0.6144,0.1302,3.8191,291.3184
17:45:21:464,-5.3288,-10.0259,-0.0694,28.15,0.5277,0.1876,3.6822,292.7349
17:45:21:483,-4.7354,-9.9159,-0.0215,31.8549,0.4446,0.1876,3.4232,294.3875
17:45:21:506,-4.2329,-9.6933,-0.067,31.6293,0.3335,0.0887,3.0811,296.0185
17:45:21:524,-3.9649,-9.6718,-0.4498,31.3317,0.1832,-0.0775,2.7048,297.3229
17:45:21:546,-3.4792,-9.9278,-0.8255,34.1071,-0.0245,-0.2729,2.3188,297.9137
17:45:21:564,-2.8355,-10.1791,-0.7657,33.8547,-0.2725,-0.4379,1.8802,297.4637
17:45:21:584,-2.3689,-9.8943,-0.4355,33.9934,-0.4655,-0.5124,1.3255,295.8824
17:45:21:607,-2.9408,-9.6957,-0.079,34.3175,-0.5278,-0.4501,0.6841,293.6844
17:45:21:624,-4.0654,-9.7388,0.0191,35.9219,-0.4668,-0.2998,0.0794,291.662
17:45:21:644,-4.9364,-9.9613,-0.2632,35.534,-0.3458,-0.1642,-0.4057,290.1306
17:45:21:665,-5.0871,-10.3561,-0.7107,35.3298,-0.2639,-0.0714,-0.7942,289.0644
17:45:21:686,-4.5655,-10.2269,-0.7657,35.7394,-0.2774,-0.053,-1.1888,288.0126
17:45:21:705,-5.013,-9.5737,-0.122,36.3405,-0.336,-0.0408,-1.686,286.931
17:45:21:723,-6.3984,-9.4397,0.1699,35.0169,-0.2957,-0.0005,-2.1735,285.981
17:45:21:744,-8.1452,-9.9182,-0.4714,33.9316,-0.1454,0.0105,-2.5253,285.2108
17:45:21:763,-9.3272,-10.5404,-1.1677,34.9058,-0.0379,-0.0274,-2.7098,284.4772
17:45:21:784,-9.7292,-10.1862,-1.1892,32.7443,-0.0355,-0.0433,-2.7978,283.8234
17:45:21:804,-9.6479,-9.2459,-0.9547,34.4194,-0.0355,0.03,-2.8283,283.3936
17:45:21:824,-9.1478,-7.9466,-0.5982,32.6057,-0.0086,0.1424,-2.788,283.215
17:45:21:845,-8.1787,-6.0562,0.2584,31.1272,0.0977,0.2841,-2.5412,283.2468
17:45:21:865,-7.5924,-5.4102,0.3685,30.1649,0.2333,0.2915,-2.3775,283.5551
17:45:21:890,-7.0684,-5.001,0.1005,35.1747,0.4092,0.2707,-2.2285,283.6348
17:45:21:909,-10.8371,-1.7085,0.5456,36.2894,0.4972,0.1314,-2.1918,283.5121
17:45:21:924,-4.4818,-4.1252,-1.0887,35.2953,0.3579,-0.3817,-1.989,282.7181
17:45:21:944,-6.6616,-5.1517,-0.5958,35.2136,0.3591,-0.0359,-1.7679,282.4698
17:45:21:964,-6.0658,-4.7737,-1.2514,35.6248,0.4226,-0.0017,-1.8656,282.3403
17:45:21:985,-6.2931,-5.2307,-0.9404,35.5275,0.4031,0.1143,-1.8852,282.3677
17:45:22:017,-6.8674,-5.3791,-1.1629,33.523,0.3237,0.1082,-1.9304,282.3766
17:45:22:031,-7.6403,-5.659,-1.1007,33.339,0.2162,0.0581,-1.9548,282.3403
17:45:22:045,-8.5519,-6.0347,-1.1079,34.549,0.0622,-0.075,-1.9206,282.1203
17:45:22:063,-9.3392,-6.6712,-1.1486,33.4464,-0.0929,-0.207,-1.8155,281.7305
17:45:22:082,-9.7843,-7.3747,-1.2371,35.119,-0.2334,-0.3279,-1.6579,281.1827
17:45:22:104,-10.459,-8.2863,-1.3663,34.6506,-0.3837,-0.4232,-1.5064,280.519
17:45:22:124,-10.9639,-8.7434,-1.0648,34.6724,-0.5682,-0.5026,-1.3647,279.7811
17:45:22:144,-11.7823,-8.9922,-0.9763,35.1458,-0.7661,-0.6175,-1.2144,278.8931
17:45:22:163,-12.7657,-9.655,-0.7226,36.2654,-0.9701,-0.7201,-0.9957,277.8677
17:45:22:187,-13.1892,-10.2413,0.0885,37.281,-1.1192,-0.7323,-0.6756,276.8325
17:45:22:204,-12.8997,-9.9613,1.127,39.0182,-1.0434,-0.6896,-0.3446,275.8653
17:45:22:225,-12.469,-8.5615,1.3352,38.6422,-0.6708,-0.6248,-0.0685,274.9423
17:45:22:243,-12.9356,-7.2431,-0.0622,39.803,-0.1393,-0.5051,0.2052,274.2117
17:45:22:263,-13.8521,-7.3986,-1.151,40.1401,0.2137,-0.2351,0.6548,273.8172
17:45:22:286,-13.7779,-8.3605,-1.4118,40.537,0.3212,0.1681,1.3023,273.949
17:45:22:306,-10.6289,-8.9659,0.0024,41.448,0.2846,0.9256,2.4788,276.0382
17:45:22:326,-9.4995,-8.6835,0.9236,41.8434,0.3005,1.1369,2.7928,277.5827
17:45:22:343,-8.7769,-8.2887,1.3878,44.136,0.3774,1.187,2.959,279.3149
17:45:22:363,-8.2696,-7.8604,1.5194,44.136,0.474,1.0648,3.0628,280.9883
17:45:22:387,-7.8748,-7.4991,1.2778,50.4101,0.546,0.8229,3.1581,282.4348
17:45:22:405,-7.4058,-7.3292,0.9212,40.6267,0.5912,0.5725,3.2558,283.6471
17:45:22:425,-7.0181,-7.2598,0.5838,42.0052,0.6169,0.3807,3.3438,284.6188
17:45:22:443,-6.7071,-7.4058,0.2465,43.0021,0.6193,0.2585,3.4135,285.5179
17:45:22:464,-6.4582,-7.6594,-0.0526,46.8263,0.5961,0.1998,3.4623,286.4657
17:45:22:484,-6.1232,-7.9226,-0.3302,47.8181,0.5424,0.1962,3.4806,287.5571
17:45:22:505,-5.6471,-8.2863,-0.5384,47.7116,0.441,0.1901,3.4513,288.8362
17:45:22:523,-5.0465,-8.6381,-0.5025,47.7116,0.2883,0.1522,3.3414,290.2927
17:45:22:544,-4.5655,-8.9396,-0.6078,47.7116,0.1087,0.0642,3.1325,291.8156
17:45:22:564,-4.0343,-9.2722,-0.4786,47.7116,-0.0941,-0.0665,2.8307,293.188
17:45:22:585,-3.5868,-9.5091,-0.4714,49.9832,-0.2884,-0.2387,2.4336,294.0349
17:45:22:603,-3.1944,-9.722,-0.414,50.3047,-0.4533,-0.3927,1.9694,294.0248
17:45:22:624,-3.0485,-10.0164,-0.2728,49.418,-0.584,-0.4855,1.444,292.9303
17:45:22:644,-2.869,-10.4351,-0.0574,49.8859,-0.6647,-0.5491,0.8588,290.5397
17:45:22:663,-3.3811,-10.9543,-0.0526,51.4557,-0.6732,-0.6053,0.193,286.892
17:45:22:685,-4.5033,-11.5908,-0.2632,50.6408,-0.6036,-0.5552,-0.5266,283.1244
17:45:22:707,-5.7715,-11.5526,-0.3063,51.2425,-0.4973,-0.3524,-1.2792,280.5949
17:45:22:725,-7.0253,-10.6026,0.6915,50.8129,-0.4362,-0.0701,-2.0134,279.4747
17:45:22:829,-8.8798,-9.2961,1.4524,51.0675,-0.2835,0.1449,-2.5962,279.1575
17:45:22:831,-11.2678,-7.7551,1.2921,51.0103,0.0964,0.3159,-2.8918,279.3859
17:45:22:834,-12.9619,-6.25,-3.5821,51.0382,0.9468,0.3782,-2.3738,279.8258
17:45:22:834,-11.062,-6.4845,-4.3286,50.0573,0.6548,0.3257,-1.7789,281.1542
17:45:22:835,-9.2148,-6.5515,-3.0485,50.2071,-0.0929,0.0642,-1.394,281.1478
17:45:22:854,-7.8844,-6.317,-1.1653,50.4212,-0.7942,-0.2583,-1.2841,280.3948
17:45:22:874,-6.7836,-5.7332,0.3565,50.4861,-1.1595,-0.5283,-1.2804,279.078
17:45:22:888,-5.8074,-5.1254,1.4165,50.4893,-1.1668,-0.6456,-1.2975,277.5532
17:45:22:902,-5.403,-4.4937,1.7276,50.9443,-0.8626,-0.5882,-1.3403,276.1958
17:45:22:923,-5.2714,-3.7232,1.2395,48.3736,-0.3837,-0.4147,-1.3904,275.2251
17:45:22:943,-5.269,-2.9216,0.2297,47.7464,0.0512,-0.2534,-1.4246,274.6285
17:45:22:966,-5.1876,-2.5723,-0.2441,49.9608,0.2614,-0.1569,-1.3818,274.2543
17:45:22:985,-5.0513,-2.4383,-0.2513,51.9356,0.3188,-0.1251,-1.3073,273.9219
17:45:23:003,-6.4391,-2.735,0.8064,55.2175,0.1539,-0.3401,-1.2633,273.2831
17:45:23:024,-5.1996,-3.3284,0.0096,56.0802,0.0879,-0.5674,-1.2511,272.2866
17:45:23:044,-5.5753,-4.6229,-1.1318,54.7469,0.3958,-0.3023,-1.2425,271.7996
17:45:23:068,-5.8122,-5.5561,-1.4189,52.8786,0.4605,-0.0335,-1.2254,271.7603
17:45:23:088,-6.1041,-6.7693,-1.8449,52.9364,0.4288,0.1033,-1.3,271.947
17:45:23:109,-6.597,-7.9992,-1.8712,53.3362,0.2773,0.1754,-1.4588,272.2224
17:45:23:123,-7.3149,-9.2961,-1.9717,50.3661,0.0476,0.1375,-1.6994,272.4154
17:45:23:144,-8.2265,-10.124,-1.6534,51.5173,-0.2688,0.0019,-1.9426,272.3813
17:45:23:166,-9.1932,-10.5141,-0.993,52.7109,-0.5999,-0.1459,-2.1454,272.1241
17:45:23:185,-10.002,-10.605,-0.3159,51.275,-0.8626,-0.3072,-2.259,271.628
17:45:23:204,-11.2702,-11.0429,0.0742,51.2073,-1.041,-0.4355,-2.2615,270.9338
17:45:23:225,-12.792,-11.019,1.5601,53.6497,-1.063,-0.4697,-1.8607,269.4748
17:45:23:243,-12.6413,-9.4899,2.1894,53.1371,-0.7026,-0.3475,-1.537,268.8753
17:45:23:268,-12.9189,-7.8413,0.8949,53.2369,-0.0648,-0.1496,-1.1985,268.5246
17:45:23:283,-14.0076,-7.4776,-1.2012,55.7191,0.4752,0.1094,-0.7624,268.5243
17:45:23:303,-14.6058,-8.0853,-2.1488,53.3295,0.5986,0.4295,-0.1295,268.9271
17:45:23:323,-13.7611,-8.5424,-2.0411,55.4252,0.4593,0.8217,0.6108,269.8477
17:45:23:344,-11.8612,-8.2217,-0.9476,56.0565,0.2467,1.2004,1.2754,271.2621
17:45:23:364,-10.057,-7.5685,0.6341,54.7776,0.0341,1.3776,1.7653,272.9903
17:45:23:386,-8.8989,-6.7358,1.8736,56.3657,-0.0941,1.2896,2.083,274.7132
17:45:23:404,-8.26,-6.1328,2.4096,57.3085,-0.0746,0.9964,2.3163,276.1715
