Time,Acc_X,Acc_Y,Acc_Z,Meg,Gyr_X,Gyr_Y,Gyr_Z,Ore
17:18:44:760,-1.7614,3.9635,8.8191,59.5211,-0.0433,0.195,0.004,-15.6446
17:18:44:761,-1.7451,4.3343,8.7071,59.3551,0.1188,0.0926,0.0488,-15.6446
17:18:44:777,-1.6586,4.4936,8.7369,59.2703,0.1669,0.0241,0.0912,-15.6446
17:18:44:798,-1.5884,4.4729,8.4436,59.2841,0.0523,0.0553,0.1553,-15.6446
17:18:44:817,-1.61,4.2185,8.4564,59.2015,-0.1818,0.1165,0.2331,-15.6446
17:18:44:837,-1.35,4.2474,8.8732,59.0158,-0.3303,0.173,0.3173,-15.6446
17:18:44:859,-1.482,4.3436,9.2667,59.1936,-0.3212,0.2167,0.2796,-15.6446
17:18:44:877,-1.7496,4.4612,9.1889,59.0638,-0.2214,0.2571,0.3358,-15.6446
17:18:44:898,-1.7995,4.3003,8.816,59.267,-0.0891,0.1624,0.4248,-15.6446
17:18:44:918,-1.5539,4.3339,8.6471,59.1798,-0.0161,-0.0885,0.4918,-15.6446
17:18:44:938,-1.095,4.4546,8.4789,59.2738,-0.0363,-0.3296,0.435,-15.7417
17:18:44:960,-0.7784,4.3743,8.3932,59.1733,-0.0849,-0.3151,0.4419,-15.8517
17:18:44:978,-0.5871,4.4261,8.3456,59.3858,-0.1052,-0.1439,0.4341,-15.9734
17:18:44:999,-0.6303,4.4658,8.1657,59.483,-0.1075,-0.0009,0.4099,-16.1061
17:18:45:018,-0.6957,4.4495,7.9379,59.5973,-0.0949,0.03,0.3673,-16.2491
17:18:45:038,-0.7346,4.3879,7.6888,59.6422,-0.0767,-0.0243,0.3002,-16.4008
17:18:45:060,-0.8928,4.3414,7.4296,59.4427,-0.1161,-0.1044,0.2443,-16.5587
17:18:45:078,-1.1109,4.2694,7.582,59.7688,-0.2191,-0.116,0.2501,-16.7207
17:18:45:099,-0.9981,4.2203,7.8748,59.6414,-0.3164,-0.1063,0.2647,-16.8871
17:18:45:118,-0.829,4.1749,8.2304,59.9938,-0.3325,-0.1133,0.2693,-17.0581
17:18:45:138,-0.8703,4.1808,8.3521,60.0675,-0.2829,-0.1275,0.2846,-17.2335
17:18:45:159,-0.9609,4.332,8.4304,59.8419,-0.2219,-0.1639,0.3433,-17.4146
17:18:45:178,-0.6438,4.24,8.6331,59.4704,-0.1701,-0.1976,0.3971,-17.6033
17:18:45:198,-0.516,4.4967,9.0059,59.8402,-0.1404,-0.1379,0.4128,-17.8003
17:18:45:218,-0.5378,4.6326,9.2012,59.3332,-0.1149,-0.0405,0.3839,-18.0052
17:18:45:238,-0.6578,4.3285,8.9576,59.1237,-0.05,0.0363,0.3509,-18.2166
17:18:45:258,-0.8646,4.156,8.6506,59.4073,-0.0675,-0.0228,0.396,-18.4349
17:18:45:278,-0.6749,4.3443,8.9323,59.3432,-0.2246,-0.0782,0.4546,-18.662
17:18:45:298,-0.1834,4.7245,9.7083,59.367,-0.3845,0.0823,0.4428,-18.8971
17:18:45:318,0.2551,4.5476,10.2271,59.5596,-0.3634,0.2521,0.3678,-19.1385
17:18:45:340,0.3329,4.0425,10.0939,59.5745,-0.2061,0.1634,0.2378,-19.3844
17:18:45:358,0.2541,3.653,9.7509,59.721,-0.0646,-0.0907,0.1479,-19.6315
17:18:45:378,0.5374,3.1528,9.378,59.6595,-0.0309,-0.3288,0.1262,-19.8772
17:18:45:398,0.8405,3.1945,9.2437,59.6813,-0.1424,-0.4351,0.1454,-20.121
17:18:45:418,1.123,3.3879,9.52,59.7131,-0.4329,-0.4454,0.0364,-20.3616
17:18:45:439,1.3995,2.9317,10.1484,59.5697,-0.6818,-0.3154,-0.1989,-20.5919
17:18:45:458,1.3542,1.9555,10.5627,59.4073,-0.7273,-0.2436,-0.4486,-20.8032
17:18:45:478,1.2752,0.9721,10.6865,59.3752,-0.6861,-0.242,-0.508,-20.9889
17:18:45:498,1.332,0.652,11.0035,59.2807,-0.6316,-0.1808,-0.4279,-21.1496
17:18:45:518,1.6492,0.741,11.2867,59.434,-0.5812,0.05,-0.3197,-21.2886
17:18:45:539,1.6433,0.9249,11.3537,59.567,-0.456,0.3491,-0.2246,-21.4101
17:18:45:558,1.5753,1.1231,10.9235,59.6385,-0.2401,0.2488,-0.1886,-21.5199
17:18:45:578,1.4222,1.2106,10.2261,59.4889,0.0041,-0.0866,-0.154,-21.6209
17:18:45:598,1.272,1.2539,9.6412,59.1187,0.1185,-0.4048,-0.0683,-21.7157
17:18:45:618,1.2277,1.4693,9.4083,58.9363,0.0214,-0.4405,0.039,-21.8067
17:18:45:638,1.2982,1.6498,9.4222,58.6875,-0.1214,-0.1853,0.1032,-21.8067
17:18:45:658,1.0343,1.9166,9.4062,58.7449,-0.1671,0.2252,0.1529,-21.8983
17:18:45:678,0.7339,2.0855,9.005,58.5996,-0.0938,0.4352,0.1902,-21.9908
17:18:45:698,0.7688,2.0978,8.5322,58.3693,0.0164,0.292,0.2145,-22.0878
17:18:45:720,1.0368,2.3187,8.3579,58.1941,0.0937,-0.062,0.1932,-22.1909
17:18:45:738,1.1272,2.6628,8.3875,58.2974,0.1524,-0.2705,0.0818,-22.298
17:18:45:758,0.826,2.8781,8.2793,57.9773,0.1197,-0.1755,-0.0868,-22.4031
17:18:45:778,0.2058,2.6041,8.2527,57.9308,-0.0461,0.0658,-0.1675,-22.5004
17:18:45:798,-0.2436,2.4637,8.615,58.139,-0.1511,0.1525,-0.0689,-22.5004
17:18:45:820,0.0997,2.6613,9.218,58.1013,-0.057,0.083,0.1075,-22.5004
17:18:45:838,0.7028,3.1496,9.499,57.9286,0.1724,0.0807,0.1895,-22.5929
17:18:45:858,1.0867,3.5027,9.3288,57.9396,0.3552,0.1216,0.1642,-22.6904
17:18:45:878,1.1258,3.5758,8.8961,57.9313,0.4161,0.1393,0.0692,-22.79
17:18:45:898,0.9793,3.5144,8.844,57.6502,0.3411,0.0586,-0.0156,-22.8896
17:18:45:920,0.8619,3.2634,9.2091,57.4297,0.2388,0.0284,-0.0803,-22.986
17:18:45:938,0.4487,3.1114,9.5687,57.175,0.1906,0.1634,-0.0832,-23.0763
17:18:45:958,0.0957,3.1004,9.6731,56.7463,0.1321,0.3144,-0.0231,-23.0763
17:18:45:978,0.1375,3.1434,10.0289,56.5716,0.041,0.4158,0.0526,-23.0763
17:18:46:002,0.364,3.1242,10.4409,56.6025,0.0593,0.5091,0.114,-23.0763
17:18:46:018,0.3952,3.2625,10.4548,56.218,0.2139,0.5393,0.1282,-23.167
17:18:46:039,0.1871,3.4755,9.8468,56.2884,0.35,0.5088,0.0991,-23.2598
17:18:46:058,-0.1341,3.4615,9.1977,56.1788,0.2893,0.401,0.0582,-23.3544
17:18:46:078,-0.2135,3.0509,9.1785,56.0383,0.0275,0.1957,0.0107,-23.4484
17:18:46:100,0.0345,2.5315,10.5001,55.7693,-0.2741,0.0278,0.0519,-23.5412
17:18:46:118,0.3666,2.1917,12.1457,55.7165,-0.2902,0.0722,0.0847,-23.6332
17:18:46:138,0.2034,1.9533,12.5242,55.487,0.0109,0.1857,0.0533,-23.7243
17:18:46:158,-0.3449,1.5317,11.5081,55.1904,0.3141,0.105,0.0306,-23.8148
17:18:46:178,-0.7282,1.2524,10.3333,55.1639,0.349,-0.1775,0.0462,-23.905
17:18:46:200,-0.8817,0.8466,9.61,54.9887,0.1709,-0.4459,0.0633,-23.9959
17:18:46:218,-0.8724,0.7959,9.581,54.9061,-0.115,-0.4834,0.1834,-24.0876
17:18:46:238,-0.1702,1.1479,9.9469,54.6446,-0.3032,-0.2711,0.3449,-24.1836
17:18:46:257,0.4101,1.4437,9.7509,54.587,-0.2778,0.0903,0.4355,-24.2884
17:18:46:278,0.4306,1.7589,8.9163,54.3587,-0.1999,0.1683,0.4073,-24.4039
17:18:46:298,0.3112,1.887,8.2167,54.2064,-0.2025,-0.0249,0.366,-24.5305
17:18:46:318,0.3077,1.9056,7.9161,54.186,-0.2141,-0.1997,0.3399,-24.6666
17:18:46:338,0.356,1.8333,7.7967,54.1103,-0.1797,-0.2665,0.31,-24.8102
17:18:46:358,0.2192,1.7634,7.8409,54.2943,-0.0596,-0.2271,0.283,-24.9595
17:18:46:378,-0.127,1.6952,7.4708,54.1579,0.119,-0.0962,0.2635,-25.1134
17:18:46:399,-0.2789,1.7002,7.0008,54.1165,0.1798,-0.1329,0.2372,-25.2722
17:18:46:418,-0.5543,1.8098,6.9947,53.9232,0.0752,-0.2841,0.2286,-25.4354
17:18:46:437,-0.5034,2.1441,7.6845,53.7804,-0.0021,-0.3392,0.3088,-25.6029
17:18:46:458,-0.3208,2.4882,8.2072,53.5484,0.1074,-0.2079,0.3492,-25.776
17:18:46:480,-0.2099,2.9087,7.9721,53.4964,0.2887,0.017,0.3751,-25.9558
17:18:46:498,-0.0915,3.4202,7.4847,53.0593,0.2487,0.0336,0.3658,-26.1442
17:18:46:518,0.2792,3.792,7.684,52.9949,-0.0251,-0.0023,0.318,-26.3404
17:18:46:538,0.6763,3.8284,8.5801,52.9443,-0.3153,-0.0217,0.1631,-26.5406
17:18:46:558,0.5527,3.395,10.1595,52.6199,-0.4371,-0.0657,-0.0586,-26.7373
17:18:46:581,0.25,2.5165,11.1752,52.453,-0.2934,0.0172,-0.1282,-26.9232
17:18:46:598,0.0807,1.8148,11.2572,52.412,-0.0885,0.0822,-0.0397,-27.0984
17:18:46:618,0.2657,1.4901,10.9623,52.3057,0.0126,0.0177,0.1451,-27.2688
17:18:46:637,1.2403,1.5769,10.9526,52.4894,-0.0118,-0.0911,0.3185,-27.4416
17:18:46:658,2.5646,1.7378,11.2462,52.408,-0.0165,-0.072,0.3445,-27.6208
17:18:46:679,3.4047,1.6788,11.105,52.1782,0.0347,0.0159,0.1613,-27.805
17:18:46:698,3.5115,1.6352,10.6003,52.1639,-0.0399,0.0702,-0.1497,-27.9862
17:18:46:718,3.2554,1.1128,10.176,51.8743,-0.3694,-0.0092,-0.5483,-28.1533
17:18:46:737,2.4129,0.7716,10.4303,51.5252,-0.8151,0.072,-0.8775,-28.2909
17:18:46:779,1.551,0.0499,11.1357,51.3369,-1.1269,0.3352,-0.9596,-28.3889
17:18:46:781,0.6279,-0.1398,11.7332,51.502,-1.1283,0.5509,-0.7653,-28.3889
17:18:46:798,0.4243,-0.0539,11.7145,51.6456,-0.8486,0.5301,-0.4237,-28.3889
17:18:46:818,0.9373,0.5081,10.9371,51.7208,-0.5345,0.3777,-0.1057,-28.3889
17:18:46:838,1.5097,1.1599,10.1403,51.9309,-0.29,0.2468,-0.0823,-28.3889
17:18:46:858,1.2849,1.6305,9.4336,52.0904,-0.2024,-0.0142,-0.2898,-28.3889
17:18:46:878,0.628,1.5939,9.081,51.7814,-0.2335,-0.2173,-0.4809,-28.3889
17:18:46:898,-0.1875,1.3411,8.8445,51.5664,-0.1872,-0.129,-0.5103,-28.3889
17:18:46:918,-0.863,1.1347,8.2121,51.3235,-0.0275,0.0385,-0.4171,-28.3889
17:18:46:938,-1.1885,1.1971,7.5318,50.8393,0.122,0.1087,-0.2272,-28.3889
17:18:46:959,-0.8276,1.4064,7.1102,51.0885,0.163,0.0585,-0.0387,-28.3889
17:18:46:978,-0.3225,1.7035,7.2225,51.1156,0.1276,-0.0471,0.0036,-28.3889
17:18:46:998,-0.1789,1.7244,7.6177,51.1434,0.1218,-0.1444,-0.0239,-28.3889
17:18:47:018,0.0043,1.5707,8.0892,51.2571,0.2071,-0.2579,-0.0204,-28.3889
17:18:47:038,0.2242,1.4349,8.4371,51.2504,0.3433,-0.3571,0.0517,-28.3889
17:18:47:058,0.549,1.5539,8.5836,51.1843,0.4533,-0.3948,0.169,-28.3889
17:18:47:078,0.8283,1.8629,8.6433,51.2275,0.473,-0.3449,0.2549,-28.3889
17:18:47:098,0.9361,2.1875,8.647,51.3044,0.421,-0.1965,0.3205,-28.3889
17:18:47:118,1.0118,2.3737,8.717,51.7974,0.3326,-0.0185,0.3546,-28.3889
17:18:47:138,0.6137,2.5254,9.2688,51.7561,0.2421,0.1971,0.204,-28.3889
17:18:47:158,-0.3417,2.9968,9.8422,51.5583,0.0758,0.5137,0.4096,-28.3889
17:18:47:178,-0.1734,2.8328,10.5777,51.7854,-0.1419,0.4914,0.5974,-28.3889
17:18:47:199,0.2688,2.748,11.3799,51.4996,-0.2312,0.2127,0.5298,-28.3889
17:18:47:218,0.7065,2.4277,11.9599,51.2762,-0.1812,0.0002,0.4521,-28.3889
17:18:47:242,0.7914,2.4458,12.2977,51.2629,-0.0461,0.0189,0.3599,-28.3889
17:18:47:258,0.3295,2.4942,12.0124,51.374,0.0063,0.0795,0.2207,-28.3889
17:18:47:278,0.1779,2.1597,11.6734,51.5793,-0.2075,0.1526,0.0759,-28.3889
17:18:47:298,-0.2427,1.4796,11.9598,51.9521,-0.3682,0.3244,-0.0285,-28.3889
17:18:47:318,-1.1146,0.9024,11.9525,51.8473,-0.2326,0.4482,0.0598,-28.3889
17:18:47:340,-1.5646,0.6171,11.1943,52.0691,0.0298,0.2475,0.3014,-28.4798
17:18:47:358,-1.1801,0.5476,10.2631,52.2405,0.1195,-0.2184,0.5194,-28.5835
17:18:47:378,0.0286,0.6801,9.8913,52.1404,-0.0071,-0.6505,0.5797,-28.7031
17:18:47:398,0.9302,0.8192,9.8314,52.459,-0.1813,-0.7184,0.4181,-28.8383
17:18:47:418,1.0999,0.781,9.2761,52.5392,-0.3349,-0.3758,0.1323,-28.9798
17:18:47:439,0.5551,0.7848,8.2899,52.4332,-0.4954,0.0758,-0.0565,-29.1173
17:18:47:458,-0.4133,0.8375,7.7113,52.6273,-0.6147,0.309,-0.089,-29.2461
17:18:47:478,-0.7726,0.6322,7.6281,52.5578,-0.5298,0.1487,0.0083,-29.3679
17:18:47:498,-0.671,0.4182,7.4107,52.6535,-0.2926,-0.1693,0.1238,-29.487
17:18:47:518,-0.6171,0.7753,7.2891,52.8486,-0.0981,-0.4006,0.2889,-29.6081
17:18:47:538,-0.3306,1.0532,7.3928,53.036,0.0005,-0.3003,0.3987,-29.7363
17:18:47:558,-0.1746,1.2221,7.3131,53.1227,0.164,-0.1055,0.4566,-29.8753
17:18:47:578,-0.1734,1.3281,7.1689,53.2228,0.2326,-0.0085,0.4378,-30.0251
17:18:47:599,-0.3465,1.4162,7.4296,53.2351,0.2214,-0.0309,0.447,-30.1862
17:18:47:618,-0.4871,1.6214,8.1422,53.4565,0.1955,-0.0702,0.4629,-30.3586
17:18:47:638,-0.5557,1.8623,8.7744,53.6199,0.1995,-0.0642,0.5071,-30.5428
17:18:47:658,-0.4155,2.1683,9.3775,53.7327,0.1778,-0.1329,0.5364,-30.741
17:18:47:678,0.215,2.1584,10.5166,54.0486,0.1223,-0.2357,0.4609,-30.9511
17:18:47:698,0.4947,2.1166,11.7829,54.1945,0.1401,-0.122,0.3499,-31.1698
17:18:47:720,0.5921,1.7138,12.1423,54.4959,0.2212,0.1236,0.2726,-31.3931
17:18:47:738,0.6067,1.3767,11.644,54.5086,0.1983,0.2333,0.2478,-31.6191
17:18:47:758,1.0312,1.0605,11.0513,54.9147,-0.0916,0.1911,0.244,-31.8487
17:18:47:778,2.1177,0.7239,11.1853,55.3173,-0.5354,0.2069,0.1795,-32.0782
17:18:47:798,3.0484,-0.0549,11.9089,55.3368,-0.85,0.3753,-0.0161,-32.3035
17:18:47:820,2.6599,-0.4236,12.3255,55.2517,-0.9007,0.4853,-0.3055,-32.5165
17:18:47:838,1.5632,-0.6759,12.4157,55.3295,-0.862,0.4796,-0.5187,-32.7082
17:18:47:858,1.0397,-1.1669,12.5442,55.1792,-0.6895,0.4516,-0.544,-32.8722
17:18:47:878,1.0669,-1.3033,12.1238,55.1763,-0.4136,0.3499,-0.4809,-33.0136
17:18:47:898,1.6202,-0.7652,11.4717,55.3913,-0.1636,0.1013,-0.3309,-33.1351
17:18:47:918,2.4165,-0.1599,10.9247,55.5078,-0.0711,-0.2385,-0.2548,-33.2428
17:18:47:938,2.8765,0.0809,10.1975,55.6087,-0.171,-0.3104,-0.3783,-33.338
17:18:47:958,2.4838,0.3096,9.3266,55.6154,-0.4329,0.0079,-0.5881,-33.338
17:18:47:978,1.5924,0.4943,8.6353,55.8257,-0.6218,0.4949,-0.7049,-33.338
17:18:48:001,0.6295,0.4902,8.1836,55.8882,-0.555,0.9084,-0.6579,-33.338
17:18:48:019,0.0421,0.1901,7.3329,55.8397,-0.2662,1.0328,-0.5517,-33.338
17:18:48:038,-0.4693,0.7827,5.9853,55.8719,0.0523,0.8542,-0.4122,-33.338
17:18:48:058,-0.6045,1.1341,4.555,55.978,0.2466,0.4375,-0.2901,-33.338
17:18:48:077,-0.816,0.7876,4.1999,55.7551,0.1924,0.1375,-0.1401,-33.338
17:18:48:100,-0.041,1.027,4.8054,55.8173,-0.1962,-0.4939,-0.1844,-33.338
17:18:48:118,-0.149,0.9998,6.3836,55.6403,-0.5083,-0.6655,-0.3518,-33.338
17:18:48:138,-0.4611,0.695,7.8294,55.6494,-0.5855,-0.3932,-0.4657,-33.338
17:18:48:158,-0.897,0.7265,10.6885,55.5897,-0.2886,-0.5021,-0.36,-33.338
17:18:48:177,-0.5527,0.2073,10.4182,55.5714,0.4531,-0.5131,-0.0852,-33.338
17:18:48:200,0.3417,-0.0316,10.1368,55.4833,0.9003,-0.53,0.0351,-33.338
17:18:48:218,0.6843,0.4748,10.6087,55.4609,0.7364,-1.1271,-0.0208,-33.338
17:18:48:238,0.8256,0.9067,11.6139,55.3184,0.3524,-1.7301,-0.0143,-33.338
17:18:48:258,1.4423,1.1281,11.9618,55.2799,0.2428,-0.983,0.0264,-33.338
17:18:48:277,1.5637,1.1963,11.3615,55.3567,0.0332,-0.0211,0.0838,-33.338
17:18:48:299,0.9677,1.6895,11.0593,55.054,-0.385,0.81,0.1504,-33.338
17:18:48:318,0.5172,2.0391,11.898,55.1131,-0.4942,1.4156,0.271,-33.338
17:18:48:338,-0.0012,1.6747,12.156,55.0635,-0.2476,1.434,0.3471,-33.338
17:18:48:358,-0.5955,0.7266,11.6217,54.8399,0.1727,0.9876,0.4265,-33.338
17:18:48:377,-1.3624,-0.2464,11.5107,54.885,0.382,0.1627,0.6019,-33.338
17:18:48:398,-1.4679,-0.4564,13.0915,54.6586,0.3044,-0.4228,0.8613,-33.338
17:18:48:418,-0.6496,-0.7643,14.684,54.2164,0.4162,-0.5338,0.9564,-33.338
17:18:48:438,-0.271,-0.6588,14.6931,53.7283,0.5542,-0.3316,0.8296,-33.338
17:18:48:458,-0.1008,-0.8068,13.811,53.2207,0.5833,-0.3547,0.6008,-33.338
17:18:48:479,-0.1185,-0.6959,12.4913,53.0707,0.6258,-0.3329,0.4241,-33.4373
17:18:48:498,0.307,-0.8581,10.6446,52.6537,0.6407,-0.1367,0.2956,-33.548
17:18:48:518,0.5925,-0.826,8.7836,52.36,0.5693,-0.1684,0.2512,-33.6665
17:18:48:538,0.7376,-0.6533,7.7775,52.3131,0.207,-0.4412,0.1807,-33.7916
17:18:48:558,0.9246,-0.2725,8.3147,51.9405,-0.043,-0.7496,0.0111,-33.9189
17:18:48:580,0.7586,0.0985,8.389,51.4035,-0.0713,-0.7163,-0.1062,-34.0413
17:18:48:599,0.5735,0.2804,8.3244,51.2744,0.0643,-0.4561,-0.1117,-34.1554
17:18:48:618,0.5797,0.43,7.5296,51.1775,0.3512,-0.0817,-0.082,-34.2619
17:18:48:638,0.6313,0.518,6.6734,50.6588,0.5548,0.2384,-0.1026,-34.363
17:18:48:657,0.5798,0.5705,5.7558,50.3749,0.5664,0.3978,-0.1362,-34.4588
17:18:48:679,0.412,0.6123,5.8705,50.3159,0.429,0.2253,-0.2018,-34.5491
17:18:48:699,-0.1681,0.839,6.5999,50.0841,0.3332,-0.0228,-0.1777,-34.5491
17:18:48:718,-0.3529,0.7769,7.5582,49.8758,0.2466,-0.2947,-0.1091,-34.5491
17:18:48:738,-0.6839,0.9517,8.4958,49.917,0.2339,-0.3837,-0.0356,-34.5491
17:18:48:757,-0.8269,0.776,9.5103,49.6814,0.251,-0.2176,0.2058,-34.5491
17:18:48:799,-0.1077,0.7766,9.9306,49.7288,0.3035,0.0202,0.3903,-34.5491
17:18:48:801,0.3134,1.2802,9.8619,49.5741,0.2431,0.1342,0.3046,-34.6506
17:18:48:818,0.6766,1.6274,9.5149,49.3503,0.0045,0.2935,0.0499,-34.758
17:18:48:838,0.4142,1.0478,9.3603,49.0324,-0.4434,0.378,-0.2525,-34.8607
17:18:48:859,-0.0764,0.3646,10.4946,48.873,-0.8095,0.2977,-0.3865,-34.8607
17:18:48:878,0.3807,-0.416,11.4666,48.5905,-0.8512,0.2745,-0.2612,-34.8607
17:18:48:898,1.5121,-0.846,11.5733,48.5277,-0.68,0.329,-0.0903,-34.8607
17:18:48:918,2.0893,-1.134,11.4742,48.4477,-0.6043,0.4438,-0.2001,-34.8607
17:18:48:938,0.808,-0.1655,10.998,48.3848,-0.5704,0.6212,-0.2902,-34.8607
17:18:48:959,0.9518,-0.5648,10.5573,48.1882,-0.3413,0.7162,-0.1325,-34.8607
17:18:48:978,2.6033,-1.5822,9.2186,47.9715,-0.1005,0.5213,-0.1004,-34.8607
17:18:48:999,2.5663,-1.3939,8.143,47.8558,-0.5346,-0.1228,-0.3327,-34.8607
17:18:49:018,1.4343,-0.4879,9.8022,47.9333,-1.2264,-0.7947,-0.553,-34.8607
17:18:49:038,0.1888,0.0756,12.2391,47.67,-1.2443,-0.9575,-0.769,-34.8607
17:18:49:059,-0.3114,0.1337,12.223,47.6508,-0.8184,-0.6178,-0.6408,-34.8607
17:18:49:078,-0.531,0.5656,10.2135,47.8551,-0.3217,-0.1881,-0.3435,-34.8607
17:18:49:098,-0.4607,0.9473,7.8993,48.0266,0.0612,-0.0435,-0.0404,-34.8607
17:18:49:118,-0.0524,1.0877,6.1932,48.1331,0.4209,-0.1013,0.1144,-34.8607
17:18:49:138,0.4632,1.2339,5.1824,48.3264,0.7672,-0.148,0.1865,-34.8607
17:18:49:158,1.7312,0.3892,4.6508,48.3882,0.7458,0.072,0.0157,-34.8607
17:18:49:178,1.1162,1.3399,4.0369,48.0861,0.1493,0.4858,-0.1886,-34.8607
17:18:49:198,0.8197,0.8921,5.7578,47.8455,-0.8744,0.384,-0.2956,-34.8607
17:18:49:218,-0.0574,0.857,10.0163,47.8251,-1.2145,-0.2693,-0.3036,-34.8607
17:18:49:240,-0.8165,0.6406,14.0776,47.7344,-0.6455,-0.9514,-0.0987,-34.8607
17:18:49:258,0.0653,0.2534,14.9936,47.7686,0.4885,-0.9177,0.2157,-34.8607
17:18:49:278,1.0022,0.6319,11.9328,47.7653,1.0873,-0.258,0.4427,-34.8607
17:18:49:298,1.8209,1.0894,9.1185,47.89,0.6828,0.3282,0.3577,-34.8607
17:18:49:318,1.8805,1.5255,8.3942,47.944,-0.0464,0.7364,0.0244,-34.8607
17:18:49:340,2.0571,0.5432,9.9379,48.1788,-0.5494,0.6284,-0.3675,-34.8607
17:18:49:358,1.5474,-0.3982,11.7182,48.307,-0.5543,0.5084,-0.6341,-34.8607
17:18:49:378,0.0266,-0.6583,11.9573,48.5905,-0.4653,0.8031,-0.6168,-34.8607
17:18:49:398,-1.4768,-0.4034,11.3349,48.6603,-0.3295,1.1522,-0.3079,-34.7512
17:18:49:418,-1.9043,0.2241,10.8632,48.7245,-0.18,0.8936,0.2338,-34.6389
17:18:49:438,-1.1902,0.8582,11.7705,48.8428,-0.1826,0.1568,0.5248,-34.5417
17:18:49:458,0.6689,0.5175,13.4202,48.4865,-0.3704,-0.3444,0.4198,-34.5417
17:18:49:478,1.9294,-0.002,15.0903,48.4372,-0.5852,-0.1642,0.0887,-34.5417
17:18:49:498,1.4165,-0.5024,15.5477,48.4667,-0.4773,0.0944,-0.2626,-34.5417
17:18:49:518,0.1193,-1.0571,14.3271,48.8169,-0.3678,0.4222,-0.4269,-34.5417
17:18:49:538,-0.9654,-1.2077,12.2216,48.6519,-0.2523,0.6113,-0.3814,-34.4504
17:18:49:558,-1.8766,-0.9413,10.4146,48.7162,-0.1681,0.6595,-0.1139,-34.3497
17:18:49:578,-2.2465,-0.5385,8.7055,48.5101,0.1175,0.447,0.2817,-34.2516
17:18:49:598,-2.0821,-0.0852,7.2508,48.3512,0.5127,0.0307,0.7005,-34.2516
17:18:49:620,-0.7601,-0.0588,6.0628,47.7544,0.9224,-0.515,0.9582,-34.2516
17:18:49:638,0.2471,0.1831,5.1293,47.4207,1.0082,-0.9357,0.8354,-34.2516
17:18:49:658,-0.1856,0.8814,5.4413,47.0159,0.5995,-1.1246,0.679,-34.2516
17:18:49:677,-0.0821,0.6033,8.071,46.7408,0.4405,-1.0258,0.5637,-34.2516
17:18:49:699,0.0496,0.1659,9.2529,46.3422,0.9171,-0.6891,0.5383,-34.2516
17:18:49:720,0.417,-0.3358,8.2656,46.2906,1.3272,-0.3888,0.5535,-34.2516
17:18:49:738,0.8645,-0.6191,6.9607,45.8419,1.2065,-0.2698,0.4975,-34.2516
17:18:49:758,0.7318,-0.3374,7.0542,45.5952,0.7703,-0.404,0.2836,-34.3608
17:18:49:777,0.4495,-0.4942,8.2796,45.279,0.243,-0.667,0.1693,-34.4771
17:18:49:798,0.439,-0.9841,10.7102,45.0587,0.057,-0.7223,0.1107,-34.5958
17:18:49:818,0.4079,-1.3693,12.0589,44.6945,0.3071,-0.3791,0.2215,-34.7148
17:18:49:838,0.1751,-0.9604,11.097,44.2036,0.5159,0.1714,0.383,-34.8395
17:18:49:858,-0.0975,-0.0873,9.6179,43.7926,0.4112,0.3956,0.3235,-34.9747
17:18:49:878,0.6848,-0.2306,8.6286,43.2101,0.0152,0.2184,0.2432,-35.1188
17:18:49:898,1.6464,-0.9379,8.5507,43.0132,-0.5447,0.0835,-0.0038,-35.2651
17:18:49:919,1.2321,-1.7373,9.4792,42.7469,-1.3348,-0.1087,-0.2289,-35.4032
17:18:49:938,0.2866,-2.9505,12.896,42.4848,-1.8637,-0.6006,-0.161,-35.5245
17:18:49:958,1.8187,-4.3803,16.079,42.358,-1.3141,-0.9771,0.1921,-35.632
17:18:49:978,3.5743,-4.3412,15.5256,41.9401,-0.2435,-0.9562,0.5486,-35.7401
17:18:49:998,4.4328,-3.2285,12.2304,41.3634,0.2769,-0.3878,0.5907,-35.8637
17:18:50:019,3.8302,-1.4138,9.1325,41.0324,-0.0703,0.4198,0.3004,-36.0022
17:18:50:038,3.1136,-0.5542,7.8086,40.5744,-0.5813,1.104,-0.05,-36.1422
17:18:50:058,2.2741,-0.0282,7.2405,40.3408,-0.8335,1.4341,-0.1989,-36.2715
17:18:50:080,2.0874,0.3265,6.8923,40.0269,-0.8023,1.3079,-0.1718,-36.3873
17:18:50:099,2.0672,0.7026,7.0401,39.9522,-0.621,0.7219,-0.1849,-36.4918
17:18:50:117,1.7508,1.1162,7.5653,39.822,-0.3004,-0.052,-0.3029,-36.5846
17:18:50:137,1.456,0.8881,7.907,39.7578,0.0505,-0.5826,-0.4799,-36.5846
17:18:50:158,1.1596,0.3301,7.9385,39.7343,0.1274,-0.6438,-0.5924,-36.5846
17:18:50:177,0.8961,-0.2007,8.4592,39.7851,-0.2034,-0.4923,-0.6085,-36.5846
17:18:50:200,0.607,-0.5659,10.038,39.7817,-0.796,-0.3116,-0.6186,-36.5846
17:18:50:218,-0.2787,-0.064,12.6658,39.7907,-1.0168,-0.003,-0.5011,-36.5846
17:18:50:238,-0.4788,-0.3132,14.3929,39.6843,-0.5075,0.2233,-0.2499,-36.5846
17:18:50:258,-0.3415,-0.167,13.7282,39.6706,0.2901,0.5164,0.1601,-36.5846
17:18:50:278,0.6773,0.0941,11.543,39.3157,0.8078,0.7573,0.486,-36.5846
17:18:50:298,1.9593,0.1852,9.5334,39.161,0.8712,0.8991,0.5616,-36.5846
17:18:50:318,1.8721,1.0965,8.1191,39.1448,0.6582,0.9418,0.4836,-36.5846
17:18:50:338,1.9161,1.1795,8.097,39.1723,0.2812,0.6592,0.3542,-36.5846
17:18:50:358,1.5837,1.18,8.884,39.146,0.0607,0.3851,0.1113,-36.5846
17:18:50:377,0.7904,0.6236,10.2463,39.2865,0.0537,0.2347,0.0116,-36.5846
17:18:50:398,0.0754,0.4138,10.2255,39.291,0.2049,0.1385,0.051,-36.5846
17:18:50:418,-0.0498,0.0191,10.0327,39.3307,0.119,0.0615,0.0731,-36.5846
17:18:50:438,-0.0022,-0.6781,10.324,39.4569,-0.0222,-0.1255,0.0827,-36.5846
17:18:50:457,0.1465,-1.071,10.6984,39.5047,-0.1366,-0.4052,0.0544,-36.5846
17:18:50:479,-0.15,-1.0693,11.3865,40.1241,-0.1255,-0.6607,0.0118,-36.5846
17:18:50:498,-0.141,-0.9776,11.2697,40.2635,0.0334,-0.7242,0.022,-36.5846
17:18:50:518,0.2068,-0.8963,10.2335,40.2688,0.2189,-0.5257,0.0109,-36.5846
17:18:50:538,0.4241,-0.7716,8.4961,40.6238,0.2425,-0.1828,-0.0316,-36.5846
17:18:50:557,0.5979,-0.6503,7.1259,40.6176,0.0334,0.0491,-0.1287,-36.5846
17:18:50:579,0.3302,-0.3494,6.7769,40.4219,-0.3312,0.0904,-0.2002,-36.5846
17:18:50:598,0.0077,-0.1067,7.9512,40.6998,-0.4244,-0.0532,-0.1434,-36.5846
17:18:50:618,-0.1609,-0.0778,8.7472,40.8638,-0.0816,-0.3453,-0.0153,-36.5846
17:18:50:638,0.0246,-0.3372,8.5607,40.9497,0.3054,-0.7245,0.1006,-36.5846
17:18:50:658,0.0565,-0.3514,8.381,41.4905,0.4644,-0.9617,0.1953,-36.5846
17:18:50:679,0.2153,-0.3216,8.6257,41.6021,0.4964,-0.9298,0.2531,-36.5846
17:18:50:698,0.2671,-0.1892,8.955,42.287,0.5385,-0.6139,0.2735,-36.5846
17:18:50:718,0.407,-0.3637,8.7057,42.6575,0.5977,-0.2421,0.2298,-36.5846
17:18:50:738,0.2459,-0.3482,8.415,42.9383,0.5169,-0.0089,0.1881,-36.5846
17:18:50:757,0.2341,-0.3527,8.5571,43.3399,0.3401,0.0304,0.1284,-36.6822
17:18:50:806,0.188,-0.3337,9.4606,43.6629,0.1717,-0.229,0.0468,-36.7819
17:18:50:808,0.0044,-0.4273,10.7663,44.1051,0.2015,-0.5091,0.0116,-36.8808
17:18:50:818,0.3306,-0.9228,11.2912,44.5895,0.2912,-0.5845,0.0318,-36.9785
17:18:50:838,0.7772,-1.237,11.0993,44.8603,0.1579,-0.3795,0.0444,-37.076
17:18:50:858,0.9043,-1.2449,11.0333,45.2854,-0.1619,-0.0478,0.0213,-37.1722
17:18:50:878,0.899,-1.1279,11.4359,45.6841,-0.3929,0.2588,-0.0164,-37.2644
17:18:50:898,1.3353,-1.2681,11.564,46.0028,-0.3408,0.5556,-0.0197,-37.2644
17:18:50:918,2.1851,-1.633,10.9309,46.4267,-0.223,0.6153,-0.073,-37.2644
17:18:50:938,2.3635,-1.6397,10.4351,47.0662,-0.37,0.363,-0.2704,-37.2644
17:18:50:960,2.3768,-1.8147,11.1421,47.6561,-0.6844,0.1076,-0.4711,-37.2644
17:18:50:978,2.3607,-2.1896,12.6831,48.229,-0.7494,0.0826,-0.5031,-37.2644
17:18:50:998,2.0147,-1.8094,12.8421,48.5344,-0.3853,0.3126,-0.3291,-37.2644
17:18:51:018,2.1659,-1.0192,11.1058,48.7417,-0.0314,0.6014,-0.1272,-37.2644
17:18:51:037,3.0366,-0.6561,9.2277,49.071,0.0963,0.6322,-0.1888,-37.2644
17:18:51:058,3.2747,-0.705,7.4364,49.1881,0.0738,0.3357,-0.4867,-37.2644
17:18:51:078,2.4022,-0.6988,6.4029,49.3841,-0.3543,-0.0244,-0.6871,-37.2644
17:18:51:098,1.3087,-0.4649,7.7027,49.6087,-0.7308,-0.3167,-0.655,-37.2644
17:18:51:118,0.5813,-0.2842,9.2104,49.902,-0.6162,-0.1728,-0.4569,-37.2644
17:18:51:137,0.4665,0.1667,9.2581,50.0872,-0.1436,0.2989,-0.1497,-37.2644
17:18:51:158,0.9056,0.4673,7.4742,50.1688,0.2155,0.5574,-0.0348,-37.2644
17:18:51:178,1.0959,0.7734,6.2932,50.4221,0.1863,0.4403,-0.0688,-37.2644
17:18:51:198,0.8848,1.2624,6.427,50.7138,0.0948,0.1684,-0.1447,-37.2644
17:18:51:218,0.0121,1.8827,7.499,50.8665,0.1067,-0.1262,-0.1363,-37.1736
17:18:51:238,-0.942,2.1252,8.9075,51.1733,0.2076,-0.4713,-0.0301,-37.0819
17:18:51:258,-0.891,1.6045,10.2992,51.4188,0.3768,-0.636,0.25,-37.0819
17:18:51:278,0.4517,0.8389,11.1771,51.9279,0.5095,-0.5359,0.6148,-37.0819
17:18:51:298,1.8733,0.8326,11.438,52.0571,0.4986,-0.364,0.8668,-37.0819
17:18:51:318,2.8612,1.1952,11.9804,52.3128,0.423,-0.2871,0.8595,-37.0819
17:18:51:340,3.1452,1.2035,12.295,52.6381,0.5224,-0.1767,0.5962,-37.0819
17:18:51:358,2.4656,0.7281,11.6186,52.7558,0.6266,-0.0151,0.3223,-37.0819
17:18:51:378,1.5526,0.213,10.6915,53.0026,0.5745,0.2039,0.2479,-37.0819
17:18:51:398,0.9336,0.1988,10.0329,53.4503,0.3624,0.4287,0.2591,-37.0819
17:18:51:418,0.5095,0.1706,10.0493,53.6624,0.1054,0.4311,0.2393,-37.0819
17:18:51:438,0.3798,-0.2771,11.1473,53.8153,-0.0747,0.0809,0.1623,-37.0819
17:18:51:458,0.1527,-0.3717,13.1946,54.3729,-0.0151,-0.2887,0.1835,-37.0819
17:18:51:478,0.0275,-0.4449,14.7929,54.6098,0.3914,-0.5716,0.2666,-37.0819
17:18:51:498,0.4038,-0.6356,14.0387,54.9638,0.9662,-0.6906,0.3766,-37.1816
17:18:51:518,0.8523,-0.6715,11.7692,55.1945,1.1323,-0.5044,0.4735,-37.2968
17:18:51:538,1.7078,-0.4223,9.0292,55.0973,1.037,-0.3216,0.4185,-37.4303
17:18:51:558,1.8353,-0.0491,6.8597,55.2286,0.554,-0.094,0.1898,-37.5772
17:18:51:578,1.615,0.3722,6.1278,55.2621,-0.1268,-0.1435,-0.1315,-37.7263
17:18:51:598,0.9946,0.6293,7.5992,55.4567,-0.5821,-0.2546,-0.3521,-37.8631
17:18:51:618,0.6182,0.4102,8.9541,55.5494,-0.4729,-0.3239,-0.3642,-37.9801
17:18:51:638,0.455,0.1124,9.1696,55.7253,-0.1162,-0.2126,-0.2196,-38.0792
17:18:51:658,0.6056,0.479,8.4742,55.402,0.1269,0.1375,0.0575,-38.0792
17:18:51:678,0.6257,1.4146,8.1148,55.528,0.2173,0.3454,0.1594,-38.1727
17:18:51:699,0.8878,1.8666,8.1802,55.8295,0.3327,0.388,0.0967,-38.2698
17:18:51:719,0.9484,2.0534,8.2429,55.9689,0.4542,0.4012,-0.0131,-38.3681
17:18:51:737,0.5736,1.9523,8.1708,56.1662,0.3716,0.4772,-0.1435,-38.4639
17:18:51:758,0.0063,2.2016,9.066,56.1404,0.0949,0.4721,-0.1734,-38.4639
17:18:51:778,-0.3784,2.2151,10.866,55.8188,0.0459,0.4005,-0.1154,-38.4639
17:18:51:798,-0.235,1.8031,12.2127,56.1141,0.309,0.3619,-0.0739,-38.4639
17:18:51:819,0.4857,1.1963,12.2258,56.0199,0.6985,0.3048,-0.0614,-38.4639
17:18:51:838,1.0379,0.6876,11.3302,56.0346,0.8048,0.2961,-0.1971,-38.4639
17:18:51:858,1.2602,0.2355,10.2466,56.1364,0.5384,0.363,-0.33,-38.4639
17:18:51:878,1.2522,0.0735,10.2777,55.9886,0.0888,0.4575,-0.396,-38.4639
17:18:51:898,0.9989,0.0331,11.7809,55.6716,-0.149,0.4257,-0.4122,-38.4639
17:18:51:919,1.1092,-0.349,13.2441,55.5006,0.1208,0.2843,-0.2917,-38.4639
17:18:51:938,2.3269,-0.9419,12.4048,55.5606,0.5973,0.3028,-0.1344,-38.4639
17:18:51:958,2.7374,-0.6843,10.1516,55.7101,0.6584,0.3597,-0.1973,-38.4639
17:18:51:978,2.3648,-0.3199,9.0691,55.875,0.3219,0.3424,-0.43,-38.4639
17:18:51:998,1.8452,-0.1619,8.9247,55.9862,0.0009,0.3406,-0.5827,-38.4639
17:18:52:020,1.4578,-0.1258,9.0989,56.167,-0.2224,0.1497,-0.6072,-38.4639
17:18:52:038,1.0486,0.3014,9.0946,56.2128,-0.275,0.0114,-0.511,-38.4639
17:18:52:063,0.949,0.821,8.4901,55.9382,-0.2023,-0.1396,-0.3986,-38.4639
17:18:52:079,1.0933,1.1642,7.6743,55.8168,-0.13,-0.2619,-0.3126,-38.4639
17:18:52:098,0.9677,1.2673,7.0385,55.768,-0.1047,-0.4168,-0.357,-38.4639
17:18:52:118,0.5217,0.9885,6.4446,55.4666,-0.2034,-0.5301,-0.4189,-38.372
17:18:52:138,-0.2493,0.8145,6.438,55.3838,-0.4775,-0.3319,-0.3679,-38.2674
17:18:52:157,-0.9933,1.0434,7.0574,55.5133,-0.6361,0.0915,-0.1913,-38.1519
17:18:52:178,-1.2252,1.6586,7.0475,55.8062,-0.4656,0.5032,0.1175,-38.0331
17:18:52:199,0.1948,2.0896,6.3683,55.9907,-0.1246,0.6098,0.3614,-37.9235
17:18:52:218,2.4615,1.8381,5.713,56.0379,0.0303,0.2263,0.1428,-37.8301
17:18:52:238,2.431,2.0549,6.6943,56.0499,-0.1322,-0.4974,-0.3497,-37.8301
17:18:52:258,0.1842,2.1877,9.1976,56.0171,-0.1159,-1,-0.5781,-37.7287
17:18:52:278,-0.6799,1.4316,10.7974,55.9047,0.3088,-0.7288,-0.3193,-37.6105
17:18:52:298,-0.1332,1.3559,9.5439,55.9656,0.6039,0.0579,0.0915,-37.487
17:18:52:318,0.8036,1.9844,8.2274,55.8557,0.2901,0.4394,0.255,-37.3727
17:18:52:338,1.6724,2.3252,8.8854,56.0761,-0.1915,0.3505,0.1171,-37.271
17:18:52:358,1.1936,2.4827,10.8322,56.1441,-0.4412,0.1422,-0.1082,-37.1745
17:18:52:378,0.4697,1.9105,13.0097,56.0973,-0.3493,0.195,-0.1348,-37.0753
17:18:52:398,0.2594,1.6066,13.6561,55.9484,-0.0481,0.5066,0.0149,-36.9739
17:18:52:418,0.4253,1.6894,12.7994,56.0063,0.1065,0.7063,0.1232,-36.8766
17:18:52:438,0.7962,1.1192,11.5684,56.0776,-0.0074,0.5128,0.0001,-36.8766
17:18:52:457,-0.2818,0.8709,11.6523,55.8801,-0.4172,0.0616,-0.1656,-36.7863
17:18:52:480,-0.966,0.2863,13.2517,56.1433,-0.5258,-0.1019,-0.0685,-36.6943
17:18:52:499,-1.2149,-0.0258,13.3514,56.3123,-0.2506,-0.1267,0.1594,-36.6943
17:18:52:518,-0.7813,-0.1437,12.0985,56.5042,-0.1144,-0.3216,0.3431,-36.6943
17:18:52:538,0.0122,0.2075,11.2093,56.362,-0.1461,-0.5364,0.4781,-36.6943
17:18:52:557,1.0759,0.8702,10.3553,56.0459,-0.1378,-0.519,0.5011,-36.6943
17:18:52:579,1.4787,1.3789,8.9676,56.0647,-0.1338,-0.3575,0.3092,-36.6943
17:18:52:598,1.3138,1.2264,7.5575,55.7265,-0.2391,-0.153,0.1195,-36.6943
17:18:52:618,0.8812,0.8705,6.7255,55.6739,-0.4255,0.0564,0.0408,-36.6943
17:18:52:638,0.3379,0.5908,6.8175,55.7477,-0.5779,0.2032,0.0762,-36.6943
17:18:52:658,0.4091,0.2086,7.7117,55.6223,-0.4604,0.1307,0.199,-36.6943
17:18:52:679,1.8174,0.0476,8.3832,55.45,-0.0188,-0.005,0.2305,-36.6943
17:18:52:698,1.6422,0.6603,7.6464,55.5754,0.395,-0.127,-0.0352,-36.6943
17:18:52:718,0.5117,0.6798,6.6046,55.8921,0.4299,-0.2774,-0.2923,-36.6943
17:18:52:738,-0.3822,0.5406,6.4401,55.8666,0.3284,-0.1898,-0.2914,-36.6943
17:18:52:757,-0.101,0.3356,6.3948,55.5601,0.2228,0.0158,-0.1334,-36.6943
17:18:52:800,0.4818,0.5798,6.7429,55.698,0.0448,0.1038,-0.0772,-36.6943
17:18:52:801,0.5694,0.98,7.6001,55.5814,-0.0824,0.0269,-0.2142,-36.6943
17:18:52:818,-0.093,1.0175,8.6662,55.6351,-0.1073,-0.1324,-0.3764,-36.6943
17:18:52:837,-0.5506,0.43,9.7701,55.8576,-0.0798,-0.2913,-0.3961,-36.6943
17:18:52:857,-0.4469,-0.0882,10.3853,55.6814,-0.1295,-0.2998,-0.3,-36.6943
17:18:52:878,0.2797,-0.5836,10.855,55.6274,-0.3442,-0.1551,-0.2697,-36.6943
17:18:52:898,0.9106,-0.8824,11.8617,55.5112,-0.6249,0.071,-0.3454,-36.5992
17:18:52:918,1.2836,-1.2131,13.5855,55.2852,-0.6446,0.1355,-0.4083,-36.4927
17:18:52:938,1.9059,-1.9928,14.732,55.3394,-0.2898,-0.1165,-0.4253,-36.3741
17:18:52:959,1.4469,-2.5904,14.4912,55.1952,-0.0031,-0.5437,-0.4014,-36.243
17:18:52:978,1.1443,-2.8643,14.48,55.3801,-0.0416,-0.7185,-0.304,-36.1048
17:18:52:998,1.329,-2.7776,14.7573,55.6622,-0.1971,-0.298,-0.1231,-35.9605
17:18:53:018,1.6453,-2.3002,14.3243,55.3958,-0.0984,0.2807,0.2552,-35.8172
17:18:53:037,2.636,-1.3039,12.4142,55.1385,0.1865,0.6312,0.6756,-35.69
17:18:53:058,3.7533,-0.0147,9.7856,54.9767,0.373,0.5172,0.7501,-35.5938
17:18:53:078,4.5263,0.8975,7.4901,54.7059,0.2028,0.1626,0.371,-35.5938
17:18:53:098,4.4105,1.7271,7.1954,54.4483,-0.2672,-0.2255,-0.1952,-35.5938
17:18:53:118,3.4261,1.948,7.9895,54.0656,-0.6084,-0.1848,-0.745,-35.5938
17:18:53:138,2.3752,1.5642,8.2566,53.8825,-0.6457,0.2917,-1.0421,-35.4893
17:18:53:158,1.3565,0.7852,7.368,53.8883,-0.4526,0.8464,-1.0672,-35.3491
17:18:53:178,0.4669,0.7175,5.8082,54.0415,-0.2675,0.9998,-0.9255,-35.1766
17:18:53:199,0.1939,0.8046,5.3237,53.982,-0.1659,0.6059,-0.8316,-34.9786
17:18:53:218,0.4447,0.7206,5.628,54.0475,-0.0245,0.05,-0.7676,-34.7593
17:18:53:238,1.0914,0.7289,6.1975,53.8626,-0.0168,-0.276,-0.7335,-34.5211
17:18:53:258,1.5874,0.859,7.5203,53.6118,-0.1998,-0.3858,-0.8271,-34.2646
17:18:53:278,1.2852,0.837,9.2153,53.6058,-0.3299,-0.2009,-0.98,-33.9855
17:18:53:298,0.7617,0.2393,10.5915,53.1837,-0.2599,0.0541,-0.9929,-33.6797
17:18:53:318,0.3208,-0.1544,11.2631,53.0391,-0.0649,0.3025,-0.7601,-33.3499
17:18:53:339,0.1816,0.2574,11.1963,52.9451,0.1158,0.4231,-0.4787,-33.0062
17:18:53:358,0.3683,0.64,10.7887,52.7385,0.2074,0.362,-0.3204,-32.6581
17:18:53:378,0.5449,0.897,10.6291,52.5908,0.1991,0.2179,-0.2694,-32.3103
17:18:53:398,0.6039,0.8951,10.7999,52.3222,0.1719,0.1309,-0.2489,-31.964
17:18:53:418,0.7535,0.557,10.9953,52.0844,0.1375,0.2108,-0.1804,-31.6199
17:18:53:438,1.1071,0.47,10.8114,51.9017,0.0526,0.4063,-0.0768,-31.2807
17:18:53:458,1.887,0.2094,10.7769,51.6625,-0.2506,0.2545,-0.1597,-30.9493
17:18:53:478,2.3396,0.0577,12.2449,51.4155,-0.7315,-0.0635,-0.4488,-30.6211
17:18:53:498,1.3832,-0.5,14.693,51.3591,-0.6932,-0.2213,-0.6596,-30.2855
17:18:53:518,0.3316,-1.3004,15.556,51.1635,0.0246,-0.2374,-0.6128,-29.937
17:18:53:538,0.3853,-1.7576,13.413,50.771,0.766,-0.09,-0.362,-29.5794
17:18:53:558,1.038,-1.3107,10.6536,50.2385,0.8496,-0.0251,-0.2242,-29.2219
17:18:53:578,1.6213,-0.9256,9.3059,49.6376,0.4567,-0.163,-0.4764,-28.8662
17:18:53:598,1.6257,-0.6916,9.621,49.3583,0.0195,-0.2627,-0.8247,-28.5023
17:18:53:618,0.7554,-0.587,10.2767,48.9158,-0.0796,-0.2043,-1.0599,-28.1182
17:18:53:638,0.0991,-0.4221,9.9246,49.0544,0.0786,-0.0153,-1.0229,-27.7086
17:18:53:658,0.4495,0.0448,8.386,48.7242,0.2501,0.2312,-0.857,-27.2772
17:18:53:678,1.1151,0.687,6.7992,48.4129,0.2353,0.255,-0.8547,-26.8297
17:18:53:698,0.9736,1.0997,6.2822,48.0596,0.0978,-0.0208,-0.9789,-26.3658
17:18:53:720,0.476,0.9763,6.8044,47.563,0.1016,-0.3852,-0.9908,-25.8823
17:18:53:738,0.1952,0.8809,7.4797,47.2977,0.3433,-0.6041,-0.8485,-25.3807
17:18:53:758,0.4986,0.6508,7.4529,46.968,0.6994,-0.5657,-0.6669,-24.8668
17:18:53:777,0.989,0.6319,6.3775,46.5596,0.8172,-0.2875,-0.6063,-24.3463
17:18:53:798,1.1844,0.9083,5.5889,46.5212,0.4937,-0.1197,-0.7517,-23.8202
17:18:53:820,0.7316,0.8831,6.3619,46.0834,-0.0042,-0.1615,-0.9913,-23.2824
17:18:53:838,-0.1748,0.5604,8.4768,45.9168,-0.2338,-0.2849,-1.0706,-22.7255
17:18:53:858,-0.4181,-0.1078,10.4379,45.8136,-0.079,-0.508,-0.9843,-22.1494
17:18:53:877,0.268,-0.7012,10.9069,45.4493,0.2046,-0.5907,-0.8614,-21.5578
17:18:53:898,1.2111,-1.0246,10.238,45.4239,0.2317,-0.276,-0.7342,-20.9551
17:18:53:919,1.9742,-1.1118,9.731,45.1472,0.0169,0.15,-0.7249,-20.3448
17:18:53:938,1.8286,-1.1325,10.5571,45.0579,-0.2366,0.3371,-0.915,-19.7255
17:18:53:958,1.7586,-1.4996,12.5705,44.7792,-0.1287,0.0904,-0.991,-19.0927
17:18:53:978,2.6471,-2.2588,12.1869,44.5644,0.4204,0.0492,-0.9095,-18.4452
17:18:53:998,2.4768,-1.7839,8.9589,44.052,0.424,0.5956,-0.8527,-17.7857
17:18:54:018,1.3492,-0.5025,7.4487,43.8288,-0.7885,0.6612,-1.1739,-17.1141
17:18:54:038,0.0617,-0.4789,10.2653,43.4391,-1.8954,0.4978,-1.4461,-16.4191
17:18:54:057,0.0374,-1.1872,12.6175,43.3201,-1.8577,0.0198,-1.309,-15.6967
17:18:54:078,0.7359,-0.6579,12.7538,43.2076,-1.2634,-0.586,-0.9507,-14.9553
17:18:54:100,2.6214,0.2268,11.4197,42.8699,-0.7112,-0.7276,-0.753,-14.2057
17:18:54:118,3.8939,0.8617,9.0516,42.5526,-0.677,-0.2882,-0.9932,-13.4505
17:18:54:138,3.018,1.604,9.4667,42.3627,-1.1731,-0.2268,-1.5246,-12.6782
17:18:54:158,2.3033,0.3611,10.5006,41.8844,-1.1716,-0.0177,-2.061,-11.8701
17:18:54:178,0.8655,-0.1283,10.0248,41.5292,-0.7512,0.2059,-2.0563,-11.0123
17:18:54:198,0.5176,-0.2573,9.1162,41.048,-0.3441,0.4067,-1.5438,-10.1127
17:18:54:218,0.7268,0.0584,7.9672,40.6774,0.0413,0.5862,-1.0666,-9.1914
17:18:54:238,0.8829,0.3492,6.7519,40.4134,0.1996,0.5002,-0.8782,-8.2632
17:18:54:257,0.5737,0.5274,6.6743,40.1432,0.0669,0.083,-0.8783,-7.3299
17:18:54:278,0.679,0.653,7.8869,39.9166,-0.1062,-0.3732,-0.977,-6.3964
17:18:54:298,0.3405,0.8782,9.6134,39.7341,-0.0578,-0.6232,-0.9674,-5.4567
17:18:54:318,-0.0163,0.6942,10.727,39.1653,0.2662,-0.682,-0.7966,-4.5132
17:18:54:338,-0.3386,0.4121,10.6252,39.2302,0.6339,-0.5217,-0.4344,-3.5743
17:18:54:357,-0.0166,0.4359,10.0246,38.7777,0.8262,-0.3934,0.0069,-2.6535
17:18:54:378,0.7547,0.679,9.4251,38.3089,0.736,-0.3481,0.2532,-1.7652
17:18:54:401,1.1481,1.0886,9.9455,37.8571,0.4266,-0.3976,0.2681,-0.9145
17:18:54:418,1.5018,1.1764,11.3833,37.9019,0.3191,-0.3702,0.1691,-0.0988
17:18:54:438,1.67,0.8979,12.021,37.4301,0.5136,-0.1049,0.1014,0.6863
17:18:54:458,1.6533,0.6495,11.295,37.5288,0.5828,0.3633,0.082,1.4428
17:18:54:481,1.3351,0.7898,11.062,37.4876,0.3192,0.7856,0.0855,2.1732
17:18:54:498,1.199,0.4522,11.8579,36.9641,0.0346,0.8008,0.0278,2.8786
17:18:54:519,0.7501,-0.2224,12.9318,36.6667,-0.093,0.3601,-0.0245,3.5622
17:18:54:538,0.6535,-0.9328,13.6765,36.5997,0.0676,-0.0967,0.0664,4.2249
17:18:54:557,1.0752,-1.364,13.268,36.5151,0.2986,-0.4796,0.1371,4.8634
17:18:54:579,1.6754,-1.1915,12.3471,36.426,0.0952,-0.8586,0.1154,5.4775
17:18:54:599,2.2618,-0.4393,12.5089,36.9568,-0.2537,-0.9905,0.0474,6.0696
17:18:54:618,2.3818,0.3248,12.6745,36.8044,-0.2229,-0.7315,-0.1017,6.6447
17:18:54:637,2.2876,0.764,10.9452,36.7012,-0.0904,-0.1799,-0.2751,7.2089
17:18:54:658,1.9553,0.9076,8.9151,36.5013,-0.2127,0.3251,-0.4697,7.769
17:18:54:678,1.3995,0.8516,7.6905,36.1545,-0.3598,0.6688,-0.5846,8.3303
17:18:54:699,0.6702,0.8118,7.237,36.1082,-0.2715,0.7263,-0.5823,8.8961
17:18:54:718,-0.0716,0.6891,7.8316,36.3985,0.1549,0.3238,-0.4544,9.464
17:18:54:738,-0.1269,0.2822,8.0614,36.5537,0.8983,-0.1999,-0.2639,10.0269
17:18:54:758,0.4064,0.1307,7.1527,36.8634,1.4963,-0.4004,-0.1021,10.5771
17:18:54:779,0.5644,0.4635,5.8564,37.4168,1.5367,-0.2978,-0.049,11.1088
17:18:54:805,0.2846,0.6743,6.1501,37.484,1.1795,-0.2641,-0.1432,11.6222
17:18:54:818,0.3196,0.1448,6.8814,37.5845,0.9813,-0.166,-0.1615,12.1222
17:18:54:837,0.3604,-0.371,6.9199,38.0254,0.8813,-0.0302,-0.0047,12.6086
17:18:54:860,0.5279,-0.2752,6.6738,38.2039,0.593,0.0269,0.1787,13.0761
17:18:54:878,1.0101,-0.1869,7.2556,38.3145,0.1694,0.0455,0.2244,13.5214
17:18:54:898,1.3303,-0.4266,8.0735,38.8497,-0.0822,0.3215,0.2123,13.9464
17:18:54:918,1.4682,-0.49,8.1988,39.1229,-0.2413,0.5716,0.1875,14.3528
17:18:54:938,1.5726,-0.2704,8.2732,39.3297,-0.508,0.4968,0.0228,14.7425
17:18:54:959,1.9645,-0.3102,9.3575,39.8359,-0.7918,0.1283,-0.2293,15.1224
17:18:54:978,3.0825,-1.1147,10.706,40.1673,-0.9433,-0.2223,-0.58,15.5027
17:18:54:998,2.8281,-1.837,12.2002,40.3989,-1.3358,-0.7423,-0.9976,15.8971
17:18:55:018,1.849,-2.1338,16.0305,40.6662,-1.6305,-1.068,-1.1066,16.32
17:18:55:037,2.2937,-2.6266,18.7473,40.6123,-0.9365,-0.8265,-0.7838,16.7719
17:18:55:059,4.2222,-2.8272,16.0475,40.924,0.0953,-0.3125,-0.4721,17.2366
17:18:55:078,4.9061,-1.7595,11.7122,41.0511,0.1004,0.1295,-0.4737,17.7026
17:18:55:098,4.4388,-0.7054,9.1973,41.7919,-0.4406,0.6034,-0.7343,18.1742
17:18:55:118,3.0485,0.3282,7.6295,42.1138,-0.8837,0.945,-0.9387,18.6619
17:18:55:138,2.0098,1.324,7.1224,42.5805,-1.0988,0.8499,-0.9384,19.1705
17:18:55:158,1.6828,1.4429,7.4657,42.6349,-0.9681,0.4189,-0.8752,19.698
17:18:55:178,1.6888,0.9263,7.5957,42.9021,-0.6835,-0.1722,-0.8431,20.2409
17:18:55:198,1.8714,0.6009,7.9776,42.854,-0.4765,-0.5889,-0.8338,20.7978
17:18:55:217,1.8643,0.4257,8.5743,43.085,-0.2648,-0.585,-0.8934,21.368
17:18:55:238,1.279,0.0138,9.1162,43.476,0.0299,-0.1645,-0.9681,21.9531
17:18:55:258,0.1996,-0.3035,8.9098,43.8987,0.3024,0.3954,-0.8131,22.5525
17:18:55:277,0.0608,-0.3104,8.4086,44.1012,0.4008,0.7544,-0.527,23.1581
17:18:55:298,0.616,0.1339,8.3736,44.6529,0.369,0.6732,-0.3862,23.7608
17:18:55:317,1.2426,0.4689,8.9456,45.5001,0.3969,0.3059,-0.4524,24.3578
17:18:55:339,0.992,0.7152,9.6673,45.8594,0.5445,-0.1152,-0.5993,24.9523
17:18:55:358,0.8638,0.5759,9.9387,46.4601,0.7085,-0.2436,-0.6584,25.5485
17:18:55:378,0.7202,0.7028,9.9736,46.9239,0.7028,-0.1512,-0.6214,26.1475
17:18:55:398,0.6529,1.0141,10.1802,47.2727,0.5427,0.003,-0.5796,26.748
17:18:55:417,0.6433,1.3157,10.5459,47.4335,0.359,0.1377,-0.5882,27.3494
17:18:55:438,0.3635,1.4479,10.8134,47.7334,0.1813,0.1798,-0.6432,27.9529
17:18:55:457,-0.1962,1.2377,11.3248,48.0542,0.0021,0.2066,-0.6391,28.5605
17:18:55:478,-0.8796,1.0415,12.1209,48.2875,-0.0729,0.5083,-0.4195,29.1711
17:18:55:498,-1.5514,1.0868,12.0857,48.7523,0.1176,1.0597,-0.0539,29.7755
17:18:55:518,-1.9481,1.1469,10.6654,49.2277,0.356,1.3858,0.3229,30.3607
17:18:55:538,-1.4903,1.0948,9.0962,49.6492,0.4086,1.2269,0.6088,30.9139
17:18:55:558,-0.8944,0.972,8.5528,50.05,0.2354,0.8604,0.6538,31.4284
17:18:55:578,-0.9447,0.6604,8.9266,50.5293,0.0979,0.2093,0.6044,31.9044
17:18:55:598,-0.902,0.2511,9.5561,50.8097,0.0666,-0.4514,0.6915,32.3434
17:18:55:618,-0.4671,0.279,10.2511,51.1701,0.0179,-1.059,0.7656,32.7433
17:18:55:638,0.357,0.5663,10.7608,51.474,0.0335,-1.2414,0.763,33.104
17:18:55:658,1.2771,0.6741,9.9184,51.6757,0.0045,-0.8065,0.6133,33.4297
17:18:55:678,1.715,0.7109,8.5663,52.0429,-0.2688,-0.0668,0.3742,33.7285
17:18:55:698,1.4806,0.6548,8.4255,52.5839,-0.6609,0.2694,0.0483,34.0098
17:18:55:718,0.3422,0.6597,9.5493,52.9421,-0.6731,0.1096,-0.1291,34.2836
17:18:55:738,-0.2789,0.3397,9.954,53.0867,-0.1627,-0.2079,-0.0618,34.553
17:18:55:758,0.0234,0.0086,9.0814,53.4805,0.4187,-0.3599,0.1104,34.8142
17:18:55:778,0.4312,0.1439,7.6483,54.0331,0.6265,-0.2857,0.239,35.0615
17:18:55:798,0.968,0.5243,6.9769,54.0768,0.438,-0.2441,0.1772,35.2924
17:18:55:818,0.8906,0.6442,7.2735,54.0579,0.1665,-0.1658,0.0377,35.5112
17:18:55:838,0.0439,0.3608,8.9418,54.4999,0.0513,-0.1239,0.0157,35.7228
17:18:55:858,-0.6143,0.0927,10.3395,54.399,0.3041,0.0786,0.2819,35.9254
17:18:55:878,-0.0794,0.1329,10.2437,54.6173,0.6884,0.0707,0.494,36.1094
17:18:55:898,0.7435,0.4639,9.0334,54.859,0.7479,-0.1713,0.3537,36.2691
17:18:55:918,0.8327,1.1244,8.456,55.5024,0.4125,-0.2942,0.0227,36.4129
17:18:55:938,0.7325,1.1325,8.7201,55.7959,0.0374,-0.1881,-0.3542,36.555
17:18:55:958,0.8414,0.5233,8.8159,56.2469,-0.3441,0.0965,-0.6105,36.7105
17:18:55:978,0.8641,-0.4332,9.8456,56.1409,-0.7623,-0.0058,-0.7465,36.883
17:18:56:000,1.3737,-0.8963,11.8397,56.1832,-0.855,-0.1528,-0.5764,37.0772
17:18:56:018,2.3959,-1.3279,12.8079,56.0255,-0.6688,0.1647,-0.298,37.2849
17:18:56:038,2.9431,-1.3303,13.0739,56.1602,-0.6119,0.2604,-0.3761,37.4983
17:18:56:058,2.9258,-1.5067,13.6876,56.1112,-0.6443,0.26,-0.6728,37.7229
17:18:56:078,2.5818,-1.8405,14.126,56.0961,-0.4846,0.3242,-0.8025,37.9655
17:18:56:100,2.2179,-1.9558,13.1877,56.1667,-0.1047,0.3598,-0.7633,38.2287
17:18:56:118,1.3188,-1.2813,10.946,56.1791,0.2269,0.3011,-0.6584,38.5089
17:18:56:138,0.4866,-0.2197,8.2859,56.0703,0.317,0.2066,-0.5715,38.8018
17:18:56:158,0.5288,0.5257,6.3996,56.1167,0.0966,-0.0832,-0.5471,39.1056
17:18:56:179,0.6775,0.8491,6.1874,55.8126,-0.389,-0.5561,-0.5944,39.4183
17:18:56:199,0.5706,1.0075,7.9478,55.5998,-0.6955,-0.8535,-0.6509,39.7431
17:18:56:218,-0.1446,1.2816,9.6825,55.0566,-0.6067,-0.6882,-0.6447,40.0824
17:18:56:238,-0.2663,1.2663,10.1229,55.026,-0.2362,-0.0711,-0.5488,40.4343
17:18:56:257,-0.0173,1.1239,8.7403,54.9522,0.1454,0.6869,-0.5155,40.7957
17:18:56:278,0.1911,0.7852,6.5661,54.8301,0.18,1.0621,-0.5437,41.1633
17:18:56:298,0.1575,0.2099,5.9126,54.5092,-0.1152,1.0131,-0.5228,41.5387
17:18:56:318,-0.3708,-0.07,7.1976,54.2889,-0.3213,0.6441,-0.3212,41.9195
17:18:56:338,-0.9106,0.2481,9.3824,53.8078,-0.087,-0.174,0.0288,42.296
17:18:56:358,-0.4568,1.1144,10.8215,53.6384,0.6157,-0.9216,0.2571,42.6555
17:18:56:377,0.5686,1.6307,9.7227,53.9399,1.032,-0.8489,0.1778,42.9949
17:18:56:398,1.6454,1.3861,8.0254,53.8988,0.6172,-0.0591,-0.0425,43.3201
17:18:56:418,1.6926,1.4442,8.1859,53.8875,-0.1995,0.6107,-0.246,43.6402
17:18:56:437,0.8354,1.6488,10.1017,54.0836,-0.5694,0.577,-0.3531,43.961
17:18:56:458,-0.405,1.5339,12.3344,53.5454,-0.3784,0.0928,-0.2591,44.2848
17:18:56:479,-0.7566,0.9555,13.2474,53.4545,0.1419,-0.1886,0.0592,44.6035
17:18:56:498,-0.6663,0.8321,12.0892,53.3995,0.4837,0.0002,0.4353,44.907
17:18:56:518,-0.3063,1.1547,10.0356,53.4709,0.3112,0.3007,0.5803,45.1848
17:18:56:537,-0.0918,0.8411,9.1195,53.4706,-0.3032,0.3585,0.5235,45.4352
17:18:56:558,0.5777,0.0204,11.103,53.2217,-0.8086,0.034,0.4769,45.6607
17:18:56:578,0.9934,-0.7194,12.8788,53.0771,-0.6022,-0.5429,0.2462,45.8638
17:18:56:598,0.7637,-1.5657,12.8422,52.8644,-0.1707,-0.9921,-0.0743,46.0546
17:18:56:618,0.4792,-2.0411,11.3992,52.445,0.026,-1.0484,-0.3962,46.2448
17:18:56:637,0.3017,-2.0174,9.4609,51.9209,-0.4059,-0.3921,-0.6828,46.447
17:18:56:658,-0.2456,-1.5284,8.7581,51.8012,-1.0761,0.5143,-0.805,46.6709
17:18:56:678,-0.7861,-0.8634,8.8795,51.5151,-1.4804,1.1946,-0.6793,46.9183
17:18:56:698,-1.0595,-0.1671,9.1676,51.5996,-1.261,1.2231,-0.3573,47.1804
17:18:56:718,-0.921,0.2802,8.6191,51.4369,-0.6491,0.7386,0.0731,47.4433
17:18:56:738,-0.2081,0.5825,7.4358,51.5564,-0.0715,0.104,0.4955,47.6916
17:18:56:758,0.341,1.2596,6.5258,51.1315,0.0992,-0.4106,0.673,47.9131
17:18:56:777,0.293,1.6587,7.1966,51.0627,0.1684,-0.7124,0.6111,48.1051
17:18:56:823,-0.0595,1.6966,8.3343,50.8369,0.4608,-0.6461,0.5143,48.2707
17:18:56:825,0.0924,1.1756,8.614,50.604,0.7555,-0.3642,0.4201,48.4133
17:18:56:838,0.3093,0.7672,8.1957,50.4352,0.7869,0.1012,0.2334,48.5377
17:18:56:860,-0.1988,0.7647,7.6848,50.6185,0.5638,0.5412,0.0223,48.6517
17:18:56:878,-1.1955,0.6096,7.8511,50.1955,0.27,0.5239,-0.163,48.7632
17:18:56:898,-2.2119,0.0682,9.0998,50.01,0.1818,0.0846,-0.149,48.8772
17:18:56:918,-2.1825,-0.7768,10.5018,49.6167,0.2655,-0.5067,0.0069,48.991
17:18:56:937,-1.0027,-1.7161,11.4123,49.3051,0.2384,-0.7168,0.0972,49.0997
17:18:56:960,0.0276,-2.2407,12.0567,49.0857,-0.048,-0.5027,0.0084,49.2025
17:18:56:978,-0.4541,-2.4227,12.7202,49.0687,-0.4101,-0.148,-0.1062,49.3041
17:18:56:998,-1.2421,-2.6995,13.5171,48.9219,-0.5311,0.0684,-0.0186,49.4071
17:18:57:018,-0.9768,-2.8171,13.0633,48.6367,-0.2591,0.0871,0.3412,49.5055
17:18:57:038,-0.0448,-2.3454,11.6698,48.3087,-0.0557,-0.3231,0.6857,49.5055
17:18:57:059,1.6218,-1.396,11.9246,47.7985,-0.3155,-0.8857,0.7341,49.5055
17:18:57:078,3.3733,-0.6521,14.2691,47.6631,-0.5849,-1.036,0.5802,49.5055
17:18:57:098,4.448,-0.449,16.6473,47.5076,-0.2042,-0.732,0.3476,49.5055
17:18:57:118,4.8866,-0.6065,15.2766,47.2573,0.6059,-0.1281,0.0452,49.5055
17:18:57:138,4.6548,-0.8018,11.3552,47.3266,0.9211,0.47,-0.3294,49.5055
17:18:57:158,3.5551,-0.9465,8.1177,47.0725,0.5751,0.8709,-0.7191,49.5055
17:18:57:178,2.125,-1.1736,6.8818,46.6602,0.1452,0.827,-1.0098,49.5055
17:18:57:198,0.5625,-1.3288,6.6644,46.1344,-0.1326,0.5339,-1.1106,49.5055
17:18:57:218,-0.5227,-1.4457,6.6324,45.7444,-0.1577,0.2307,-0.9492,49.6226
17:18:57:241,-0.5625,-1.1285,6.4579,45.3009,-0.1098,0.1274,-0.5036,49.7657
17:18:57:258,0.3821,-0.3668,6.2401,45.0538,0.026,0.1989,-0.1082,49.9177
17:18:57:278,1.0199,0.4472,5.7023,44.97,0.1409,0.2218,-0.0857,50.0679
17:18:57:298,0.7182,1.0604,5.6739,45.0298,0.145,0.0222,-0.2921,50.2175
17:18:57:317,0.1956,0.9721,6.6597,44.5742,0.204,-0.3893,-0.5314,50.3745
17:18:57:338,-0.4568,0.359,7.9961,44.6195,0.3358,-0.6972,-0.5097,50.5447
17:18:57:358,-0.9378,0.455,8.8859,44.1062,0.5391,-0.7014,-0.269,50.7245
17:18:57:378,-0.7074,0.6229,8.753,43.7994,0.7278,-0.431,-0.0612,50.9045
17:18:57:398,-0.0893,0.7897,7.8301,43.5093,0.6142,-0.0184,-0.0102,51.0792
17:18:57:417,0.457,1.0003,7.797,43.1008,0.1299,0.1922,-0.12,51.2492
17:18:57:438,0.1514,1.282,9.4722,42.615,-0.2972,0.0564,-0.2308,51.4194
17:18:57:458,-0.8919,1.2191,11.7645,42.4026,-0.2919,-0.364,-0.2208,51.5933
17:18:57:478,-1.1073,0.7443,13.1766,42.2896,0.1574,-0.5813,0.0268,51.7673
17:18:57:498,-0.4947,0.5372,12.4341,42.1141,0.4305,-0.3065,0.2787,51.932
17:18:57:517,0.5892,0.4168,11.1973,42.0486,0.1403,0.3417,0.3132,52.0814
17:18:57:540,0.6485,-0.1076,10.6907,41.7334,-0.4824,0.9012,0.2674,52.2178
17:18:57:558,-0.022,-0.2884,11.5438,41.4489,-1.0455,0.865,0.4579,52.3405
17:18:57:578,-0.2581,-0.465,13.913,41.5648,-1.1965,0.2411,0.76,52.4449
17:18:57:598,0.0872,-1.0994,15.5367,41.401,-0.471,-0.4894,1.0471,52.4449
17:18:57:618,0.1264,-1.4465,13.4542,41.0612,0.425,-0.924,1.2833,52.4449
17:18:57:638,0.7901,-1.3944,10.5903,41.2671,0.5505,-1.0508,1.5429,52.4449
17:18:57:657,1.4858,-1.0686,9.0266,41.2824,0.3463,-1.3223,1.5481,52.4449
17:18:57:678,2.3928,-0.5214,8.6374,41.1786,-0.1014,-1.3324,1.373,52.3236
17:18:57:698,2.8324,-0.0301,8.8221,41.1668,-0.3888,-0.8786,0.9773,52.164
17:18:57:718,1.9777,0.6321,8.6968,41.4085,-0.3182,-0.3552,0.5249,51.9828
17:18:57:737,1.4476,0.9402,7.5635,41.4769,-0.0437,0.0821,0.2133,51.7936
17:18:57:757,1.0858,0.9419,6.1525,41.6334,0.3048,0.222,-0.0832,51.6045
17:18:57:778,0.9008,0.5144,4.212,41.7635,0.3548,-0.0155,-0.336,51.4237
17:18:57:798,0.5849,0.1139,4.0912,41.5633,-0.0209,-0.5163,-0.557,51.2599
17:18:57:818,0.5788,-0.1223,5.9287,41.3026,-0.3371,-0.9073,-0.7506,51.1222
17:18:57:838,0.3373,0.0193,8.2794,41.6038,-0.3637,-0.7306,-0.8425,51.0178
17:18:57:857,0.5393,-0.2726,9.3817,42.0606,-0.0992,-0.0289,-0.7908,51.0178
17:18:57:878,0.9582,-1.0198,8.6271,41.9535,0.1109,0.7591,-0.6322,51.0178
17:18:57:898,1.2214,-1.8792,7.5072,42.3188,-0.0607,0.8581,-0.4106,51.0178
17:18:57:919,0.7741,-1.8031,8.1477,42.5225,-0.4926,0.3079,-0.2087,51.0178
17:18:57:938,0.3693,-1.4643,9.9906,42.2985,-0.4884,-0.0519,-0.1359,51.0178
17:18:57:958,-0.2329,-1.6595,10.9279,42.2679,-0.1094,-0.1014,-0.096,51.0178
17:18:57:978,-0.4053,-2.042,10.1205,42.5203,0.1593,0.0013,0.1928,51.0178
17:18:57:998,0.7436,-1.887,9.2509,42.1451,0.0137,0.0372,0.6128,51.0178
17:18:58:019,2.3612,-1.2125,9.6506,42.1984,-0.517,-0.1284,0.8399,51.0178
17:18:58:038,4.1439,-0.4978,11.7479,42.4648,-1.0412,-0.4498,0.6579,51.0178
17:18:58:058,6.105,-0.7298,14.1123,42.3763,-1.1612,-0.5642,0.0407,51.0178
17:18:58:078,4.597,-1.068,15.2603,42.5343,-1.1068,-0.4088,-0.6836,51.0178
17:18:58:099,2.4496,-1.3606,16.0478,42.9485,-0.8474,-0.0196,-0.9174,51.0178
17:18:58:118,2.2958,-1.8385,15.3371,42.9097,-0.2476,0.4234,-0.714,51.0178
17:18:58:137,2.3855,-1.8618,13.0208,43.3956,0.2397,0.5561,-0.4309,51.0178
17:18:58:158,2.8165,-1.4538,10.6588,43.6466,0.3574,0.593,-0.2313,51.0178
17:18:58:177,2.7204,-1.1129,8.8808,43.9814,0.3383,0.7975,-0.248,51.0178
17:18:58:199,2.2803,-1.2511,7.2528,44.1279,0.1917,0.816,-0.4358,51.0178
17:18:58:218,1.7237,-1.243,6.78,44.2967,-0.2377,0.67,-0.6584,51.0178
17:18:58:238,1.1447,-0.8991,7.3717,44.1441,-0.4827,0.5296,-0.8474,51.1248
17:18:58:258,0.2211,-0.7575,8.3875,44.2732,-0.4224,0.2961,-0.9186,51.2612
17:18:58:278,0.219,-0.7862,9.0064,44.4555,0.0144,0.3595,-0.7479,51.4251
17:18:58:299,0.3358,-0.5438,8.0628,44.701,0.6754,0.4553,-0.4169,51.6052
17:18:58:318,0.659,-0.8119,6.1085,44.8979,1.0202,0.3482,-0.1896,51.7884
17:18:58:338,0.3447,-0.8063,4.4958,44.9861,0.8256,0.102,-0.0272,51.9677
17:18:58:358,0.3534,-0.4856,4.6797,45.4041,0.1883,-0.2573,0.1496,52.1393
17:18:58:378,0.6233,-0.0643,7.0542,45.4417,-0.2907,-0.3169,0.3052,52.2996
17:18:58:398,0.8422,0.1113,9.4167,45.3453,-0.2855,0.1209,0.4555,52.4447
17:18:58:418,0.5294,0.2918,10.3128,45.7399,-0.0018,0.5664,0.6465,52.5687
17:18:58:438,0.7093,0.5831,10.0265,46.001,0.1822,0.5164,0.7404,52.6652
17:18:58:458,0.9264,1.128,10.1755,46.0668,0.2281,0.1293,0.6272,52.6652
17:18:58:478,0.9352,1.2327,10.5579,46.5582,0.1886,-0.2416,0.3865,52.6652
17:18:58:498,0.6681,0.9613,11.3562,46.8048,0.0721,-0.3518,0.1846,52.6652
17:18:58:518,0.5101,0.4161,12.5837,47.1995,-0.0335,-0.2853,0.0849,52.6652
17:18:58:537,0.4064,0.063,13.5921,47.4977,-0.0352,0.0436,0.0407,52.6652
17:18:58:558,-0.0962,-0.3864,13.6945,47.7931,0.1226,0.7175,0.1123,52.6652
17:18:58:579,-0.5242,-1.3073,12.3286,47.8952,0.3329,1.0067,0.0701,52.6652
17:18:58:598,-0.7313,-1.9262,11.2546,48.0424,0.4607,0.6423,0.0315,52.6652
17:18:58:618,-1.3238,-1.5316,10.4074,48.4188,0.4979,0.0677,0.2508,52.6652
17:18:58:638,-0.7835,-1.4418,10.2189,48.6368,0.4077,-0.4936,0.5851,52.6652
17:18:58:658,0.7465,-1.3751,10.1681,49.1147,0.2854,-0.8686,0.7999,52.6652
17:18:58:678,1.8136,-0.7702,10.0916,49.8022,0.1337,-1.0825,0.6891,52.6652
17:18:58:699,2.2631,-0.3201,9.5089,50.0138,-0.127,-0.701,0.3874,52.6652
17:18:58:718,1.602,0.1265,8.7097,50.3476,-0.4333,-0.0297,0.1027,52.6652
17:18:58:738,0.7343,0.3296,8.7858,50.8236,-0.5846,0.3896,-0.029,52.6652
17:18:58:757,0.171,0.2383,8.9526,50.8791,-0.3037,0.3526,-0.0363,52.6652
17:18:58:778,0.2007,-0.2308,8.0385,50.6391,-0.0072,0.1482,0.092,52.6652
17:18:58:798,0.5513,-0.463,7.4596,50.6332,-0.0745,0.0088,0.1618,52.6652
17:18:58:831,0.6938,-0.4717,8.0155,50.5564,-0.2896,-0.0131,0.1103,52.6652
17:18:58:838,0.5779,-0.4687,8.8738,50.4351,-0.2351,0.2023,0.0472,52.6652
17:18:58:858,0.1672,-0.371,8.7836,50.4233,0.0758,0.4836,0.0637,52.6652
17:18:58:878,0.0916,-0.4287,7.9918,50.6081,0.4062,0.5567,0.1344,52.6652
17:18:58:898,0.3182,-0.4889,7.1602,50.8153,0.5489,0.3978,0.1929,52.5688
17:18:58:918,0.2261,-0.5928,7.3635,51.0736,0.473,-0.0099,0.1456,52.4675
17:18:58:938,-0.5034,-0.4696,8.5026,51.6817,0.3389,-0.3187,0.1561,52.3635
17:18:58:959,-0.6485,-0.5434,9.8481,51.7355,0.3168,-0.3604,0.2655,52.2556
17:18:58:978,-0.0877,-0.6117,10.4154,51.9834,0.3508,-0.1434,0.33,52.1401
17:18:58:998,1.0087,-0.8079,10.2213,52.3418,0.303,0.1085,0.2332,52.0164
17:18:59:018,1.4906,-1.0886,9.8105,52.453,0.0821,0.2816,0.0212,51.8898
17:18:59:038,1.4049,-1.579,10.0203,52.8073,-0.1989,0.147,-0.2224,51.7683
17:18:59:058,0.6953,-2.0276,11.3899,53.2007,-0.4229,-0.1224,-0.3599,51.6606
17:18:59:078,1.2922,-2.737,13.0478,53.5009,-0.2879,-0.0707,-0.1844,51.5684
17:18:59:098,1.7445,-2.3868,12.3114,53.6003,-0.131,0.1772,-0.1863,51.5684
17:18:59:118,1.8225,-2.2906,12.1239,53.9568,-0.459,0.3934,-0.4719,51.5684
17:18:59:138,1.3363,-2.573,13.066,53.6163,-0.7914,0.6712,-0.718,51.5684
17:18:59:162,0.9126,-3.6875,14.047,53.732,-0.9161,0.4509,-0.7344,51.5684
17:18:59:178,0.3917,-3.811,15.1858,53.7533,-0.7107,-0.015,-0.506,51.5684
17:18:59:198,0.6709,-3.277,14.3371,53.4153,-0.1779,-0.1873,-0.1227,51.5684
17:18:59:218,1.3542,-1.9618,11.8076,53.5711,0.1154,-0.1452,0.0872,51.5684
17:18:59:240,2.0304,-0.8303,9.2379,53.5261,0.0876,0.1226,-0.0401,51.5684
17:18:59:258,2.0451,0.064,7.5008,53.3254,-0.0419,0.4452,-0.362,51.5684
17:18:59:278,3.0215,0.5655,6.3363,53.3807,-0.0927,0.6983,-0.532,51.5684
17:18:59:298,1.9292,0.5876,5.3684,53.3076,0.1949,0.6328,-0.6807,51.5684
17:18:59:318,1.8099,0.8326,4.4801,53.0112,0.5842,0.0345,-0.5941,51.5684
17:18:59:339,1.0289,0.9889,4.128,53.0065,0.7487,-0.6857,-0.6617,51.661
17:18:59:358,0.3067,0.8685,5.1492,53.22,0.5351,-1.0405,-0.6776,51.7755
17:18:59:378,-0.1058,0.5484,7.0071,52.7767,0.0775,-0.6853,-0.6155,51.9069
17:18:59:398,-0.6539,0.6466,8.8275,53.0552,-0.2484,0.4105,-0.3011,52.0539
17:18:59:418,-0.3686,0.8897,9.5541,53.1214,-0.162,1.3164,0.0438,52.2039
17:18:59:438,0.1009,1.3606,8.5657,53.0084,0.2205,1.5409,0.2043,52.3456
17:18:59:458,0.1677,1.912,6.8315,52.9837,0.3179,0.8921,0.0898,52.4764
17:18:59:478,-0.1431,1.9502,6.59,52.7395,-0.1068,0.0796,-0.171,52.6028
17:18:59:498,-0.5707,1.2719,7.8618,52.7533,-0.7084,-0.1623,-0.2806,52.7336
17:18:59:518,-1.2093,0.8007,10.5842,52.7153,-1.0398,-0.1633,-0.1867,52.8697
17:18:59:538,-1.1726,0.1743,13.0386,52.8054,-0.7645,-0.1345,0.055,53.0056
17:18:59:558,-0.7292,0.0795,13.4623,52.8075,-0.2032,-0.0878,0.3194,53.1313
17:18:59:578,-0.6053,0.454,12.191,52.6652,0.0707,0.0057,0.3483,53.2421
17:18:59:598,-0.7027,-0.0734,11.0105,52.4751,-0.1639,0.0489,0.2467,53.3386
17:18:59:618,-1.4795,-1.0763,11.5297,52.3519,-0.7493,0.0641,0.1271,53.3386
17:18:59:638,-2.7021,-1.9645,13.4538,52.1758,-0.8805,-0.0403,0.3062,53.3386
17:18:59:658,-3.0088,-2.6139,14.1031,51.9216,-0.3998,-0.1832,0.778,53.3386
17:18:59:678,-1.9076,-2.4691,12.0378,51.8026,0.3364,-0.5991,1.2237,53.3386
17:18:59:698,-0.4466,-2.447,9.8026,51.3754,0.2831,-0.8268,1.1954,53.3386
17:18:59:720,-0.2185,-2.4505,8.5877,51.1598,0.0177,-1.1184,0.8746,53.3386
17:18:59:738,0.0037,-2.8367,8.214,51.09,-0.5669,-0.9264,0.7932,53.3386
17:18:59:758,-0.0483,-2.4165,8.8239,50.9444,-0.8057,-0.7148,0.741,53.2359
17:18:59:778,-0.2938,-2.0298,9.3053,50.7708,-0.722,-0.5747,0.828,53.1144
17:18:59:798,-0.4678,-1.4309,9.7528,50.8142,-0.2036,-0.5599,0.9703,52.9674
17:18:59:819,-0.3618,-0.9538,9.0031,50.4199,0.5165,-0.5689,1.1552,52.7888
17:18:59:838,0.3375,-1.17,7.3421,50.371,0.9099,-0.5605,1.1841,52.5722
17:18:59:858,0.5981,-1.2435,6.0658,50.1231,0.7004,-0.493,1.0776,52.3149
17:18:59:878,0.4764,-0.9701,6.5197,49.6383,0.1953,-0.2219,1.031,52.0308
17:18:59:898,0.4907,-0.6862,7.841,49.0963,0.0076,0.2078,1.0083,51.7189
17:18:59:918,1.3699,-0.606,8.7667,48.7722,0.0742,0.5642,0.848,51.3818
17:18:59:938,1.7105,-0.5349,8.9155,48.3435,0.1289,0.8456,0.4207,51.0281
17:18:59:958,0.9153,-1.073,8.9584,47.856,0.1022,0.8682,0.0081,50.6741
17:18:59:977,-0.1719,-1.8843,9.4236,47.609,0.0301,0.5224,-0.1401,50.3329
17:19:00:000,-0.7208,-2.5995,10.8141,47.2251,0.022,0.0303,-0.0164,50.0067
17:19:00:018,-0.1151,-2.9154,11.9408,46.9142,0.2307,-0.2008,0.2532,49.6885
17:19:00:038,1.2338,-2.6801,11.507,46.6516,0.4736,-0.103,0.4332,49.3684
17:19:00:058,2.4717,-2.2873,10.2305,46.5932,0.4939,-0.0059,0.2887,49.0425
17:19:00:078,2.6782,-2.3518,9.4655,46.8044,0.3038,-0.0552,-0.0478,48.719
17:19:00:099,2.6247,-3.078,9.8913,46.5659,0.0319,-0.2157,-0.2086,48.4087
17:19:00:118,2.5115,-3.3111,11.1477,46.7382,-0.0773,-0.148,-0.2106,48.1149
17:19:00:138,1.8972,-3.4799,12.4749,46.4382,0.006,-0.1907,-0.3405,47.8383
17:19:00:158,1.923,-3.5155,13.2571,46.4072,0.1788,-0.0805,-0.3896,47.582
17:19:00:178,3.2598,-3.6331,13.1176,46.2843,0.5058,-0.1036,-0.4399,47.3465
17:19:00:199,3.9485,-3.6349,11.012,46.1169,0.5223,0.2707,-0.6814,47.134
17:19:00:218,3.818,-3.2588,8.4529,46.1401,-0.1922,0.5062,-1.1724,46.9547
17:19:00:238,1.8752,-3.014,8.8399,46.134,-1.4713,0.8178,-1.6512,46.8277
17:19:00:258,-0.8476,-2.1237,11.1197,45.8176,-1.9308,0.8653,-1.7358,46.8277
17:19:00:277,-1.968,-1.967,11.9291,45.4439,-1.657,0.8211,-1.3884,46.8277
17:19:00:299,-1.9879,-1.1471,10.6975,45.2391,-1.1084,0.6855,-0.8927,46.8277
17:19:00:318,-1.5347,-0.3316,9.4641,44.9324,-0.492,0.466,-0.5439,46.8277
17:19:00:338,-0.647,-0.0937,7.7603,44.7082,0.032,0.4042,-0.401,46.8277
17:19:00:358,-0.3754,0.0542,5.9665,44.6587,0.1103,0.5525,-0.4754,46.9266
17:19:00:378,-1.0892,-0.0199,5.6149,45.045,-0.049,0.663,-0.5391,47.0402
17:19:00:398,-1.5335,-0.197,6.5314,45.1493,-0.0457,0.5377,-0.334,47.1682
17:19:00:418,-1.1027,-0.3412,7.5215,45.3835,0.2474,-0.0092,-0.0873,47.3026
17:19:00:438,-0.9328,-0.2495,8.8196,45.3713,0.6321,-0.8185,0.0114,47.437
17:19:00:458,-0.6913,-0.5225,9.1674,45.3579,0.9342,-1.2825,0.0448,47.5679
17:19:00:480,-0.3875,-0.6146,8.8464,45.1346,0.8296,-1.183,0.0532,47.6929
17:19:00:498,-0.1317,-0.4655,8.7066,45.0944,0.3889,-0.5429,0.0287,47.8113
17:19:00:518,-0.3977,-0.1901,9.5208,45.0537,-0.036,0.0475,-0.0213,47.9248
17:19:00:538,-0.7444,-0.2257,10.8823,45.0024,-0.1226,0.1467,-0.0124,48.0357
17:19:00:557,-0.7441,-0.1647,11.9431,44.9436,0.1038,-0.1449,0.0889,48.1434
17:19:00:579,-0.774,-0.155,12.3349,44.9153,0.4241,-0.5457,0.1764,48.2439
17:19:00:598,-0.5123,-0.5068,12.262,44.7452,0.5185,-0.5646,0.1975,48.3342
17:19:00:618,-0.3984,-1.1522,12.249,44.9202,0.4349,-0.1515,0.1835,48.3342
17:19:00:638,-0.188,-1.4162,11.6877,44.9283,0.1245,0.26,0.1269,48.3342
17:19:00:657,-0.3688,-1.556,12.6655,44.9223,-0.212,0.4104,-0.0424,48.3342
17:19:00:678,-0.5883,-2.409,13.4764,45.2537,-0.3535,0.4196,-0.2578,48.3342
17:19:00:698,-1.3769,-2.8097,14.0297,45.4669,-0.0016,0.0553,-0.3085,48.3342
17:19:00:718,-1.3164,-3.3166,12.7359,45.8156,0.3187,0.0044,-0.1893,48.4274
17:19:00:738,-1.4455,-3.0574,10.2984,45.9635,0.6295,0.0038,-0.0706,48.5227
17:19:00:758,-1.2307,-2.7016,7.5119,46.035,0.4597,0.1705,0.0591,48.6156
17:19:00:778,-1.5968,-1.9338,6.4914,46.0639,-0.1443,0.3971,0.0671,48.6156
17:19:00:798,-2.2206,-1.4267,7.0992,45.8824,-0.496,0.463,0.2253,48.6156
17:19:00:818,-2.2217,-1.1478,7.8396,45.8456,-0.3281,0.1989,0.5543,48.6156
17:19:00:853,-1.5878,-1.0144,8.0008,46.0728,0.1428,-0.4577,0.8507,48.6156
17:19:00:861,-0.7518,-0.8706,7.7128,46.0468,0.5088,-1.0732,0.9809,48.6156
17:19:00:878,-0.2402,-0.8736,7.4981,46.0964,0.6145,-1.1817,0.9797,48.6156
17:19:00:898,0.1876,-0.8832,7.3473,46.015,0.553,-0.6474,0.9725,48.6156
17:19:00:918,0.3314,-0.845,7.9463,46.3767,0.4816,-0.0561,0.8899,48.6156
17:19:00:938,0.7801,-1.4089,8.2787,46.725,0.5003,0.1941,0.7668,48.5032
17:19:00:959,1.0297,-1.5695,8.4648,47.0732,0.3992,0.1679,0.6194,48.3658
17:19:00:978,0.5241,-1.1448,9.2806,47.4605,0.3039,0.0186,0.4727,48.2141
17:19:00:998,0.3125,-1.023,9.7409,47.5633,0.4086,0.068,0.3461,48.0511
17:19:01:018,0.5162,-1.2382,9.1215,47.6485,0.4941,0.3242,0.249,47.8812
17:19:01:037,0.8715,-1.5775,8.1856,47.4155,0.2579,0.4578,0.0743,47.7086
17:19:01:058,0.9289,-1.6775,8.4356,47.3176,-0.2354,0.392,-0.2054,47.5412
17:19:01:078,0.1441,-2.0259,10.4693,47.3206,-0.5637,0.1464,-0.4637,47.3887
17:19:01:098,-0.3659,-2.617,12.6874,47.1839,-0.3771,-0.0482,-0.4188,47.2574
17:19:01:118,0.3715,-2.5369,12.5138,47.3321,0.01,0.1832,-0.2811,47.1426
17:19:01:137,1.1618,-1.9299,11.2111,47.5451,0.0227,0.4725,-0.5,47.0421
17:19:01:158,1.4831,-2.1701,10.7398,47.7615,-0.247,0.7573,-0.874,47.0421
17:19:01:178,1.3136,-2.8874,10.9484,48.001,-0.4642,0.6834,-1.1819,47.0421
17:19:01:198,0.7796,-3.4022,11.2204,48.0929,-0.4023,0.4897,-1.2896,47.0421
17:19:01:218,0.0855,-2.4851,10.3776,48.377,-0.0885,0.4912,-1.1327,47.0421
17:19:01:238,-0.216,-1.6135,8.4157,48.4206,0.1595,0.6217,-0.9567,47.0421
17:19:01:258,0.377,-1.4025,6.3126,48.4576,-0.1466,0.5477,-0.9128,47.156
17:19:01:278,0.1821,-1.4144,6.4601,48.4501,-0.9436,0.0284,-1.0633,47.2967
17:19:01:298,-0.194,-1.335,8.9202,48.268,-1.3555,-0.5677,-1.0522,47.4699
17:19:01:318,-0.7093,-1.0798,10.9417,48.0186,-1.1076,-0.6639,-0.8742,47.6714
17:19:01:339,-1.2392,-0.5497,11.2657,48.0265,-0.4088,-0.4366,-0.6152,47.8932
17:19:01:358,-1.1183,-0.5346,9.573,47.8248,0.2667,0.2082,-0.3189,48.1268
17:19:01:378,-0.4412,-0.4172,6.7098,47.7849,0.4273,0.7148,-0.0833,48.3598
17:19:01:398,0.3539,-0.16,6.0298,47.5294,0.1466,0.6105,-0.1168,48.5891
17:19:01:418,0.2032,0.5869,7.6276,47.2959,-0.0964,-0.0562,-0.1619,48.8174
17:19:01:438,-0.5877,0.2955,10.6715,47.3385,0.1291,-0.9508,-0.2836,49.0471
17:19:01:458,-1.1143,-0.3071,12.1209,47.108,0.6718,-1.2621,0.0008,49.2785
17:19:01:478,-0.4182,-0.3605,11.8999,47.3369,0.9525,-0.9731,0.4393,49.4978
17:19:01:499,0.8288,0.3536,11.145,47.245,0.7637,-0.4268,0.5942,49.6918
17:19:01:519,1.5808,1.1142,11.1289,47.5967,0.4502,-0.0229,0.4035,49.8596
17:19:01:537,1.1814,1.3402,11.5906,47.3822,0.3515,0.0974,0.1401,50.0104
17:19:01:558,0.6004,1.0629,11.741,47.6396,0.4498,0.0236,0.0499,50.1526
17:19:01:577,0.1624,0.8909,11.5509,47.55,0.5242,-0.0382,0.0915,50.288
17:19:01:598,-0.2442,0.8644,11.3991,47.6506,0.5801,0.0678,0.1532,50.4149
17:19:01:618,-0.7998,0.6276,10.6887,47.5468,0.6274,0.3017,0.2298,50.5314
17:19:01:638,-1.3225,0.1466,9.8048,47.5257,0.5785,0.4809,0.3453,50.6352
17:19:01:658,-0.9599,-0.6484,9.2296,47.56,0.3319,0.4596,0.476,50.6352
17:19:01:678,-0.243,-1.513,9.8814,47.577,-0.0492,0.1768,0.4885,50.6352
17:19:01:698,0.2775,-1.8002,11.0764,47.5584,-0.1964,-0.5656,0.4594,50.6352
17:19:01:720,0.2723,-2.0817,12.7509,47.5599,-0.1645,-1.2578,0.3784,50.6352
17:19:01:738,0.3555,-2.3786,12.4886,47.4404,0.0751,-1.4828,0.3267,50.6352
17:19:01:758,0.4459,-1.821,10.7868,47.0184,-0.1114,-0.7953,0.2804,50.6352
17:19:01:778,-0.4529,-0.7107,9.8155,46.838,-0.379,-0.0085,0.1707,50.6352
17:19:01:798,-1.8818,-0.1596,10.8945,46.5748,-0.1479,0.3351,0.1858,50.6352
17:19:01:821,-1.937,-0.6914,10.0019,46.3928,0.6243,0.3664,0.4491,50.6352
17:19:01:837,-0.842,-0.9664,7.709,46.2176,0.9769,0.2436,0.688,50.6352
17:19:01:858,-0.9282,-0.1821,6.7134,46.1186,0.8601,0.088,0.6327,50.6352
17:19:01:878,-0.649,-0.3774,7.0715,46.0973,0.3844,-0.1041,0.644,50.6352
17:19:01:898,-0.7987,-0.6157,8.3254,45.9586,0.3936,0.0892,0.6902,50.5389
17:19:01:918,-0.5297,-0.8001,8.2097,45.7185,0.6541,0.3977,0.8603,50.4195
17:19:01:938,0.5601,-0.456,7.1128,45.5197,0.8265,0.4475,0.8599,50.272
17:19:01:957,0.5731,-0.1108,5.7864,45.5313,0.7159,0.2331,0.4394,50.1018
17:19:01:977,0.5633,-0.0599,5.5164,45.3055,0.0602,0.072,0.2326,49.9231
17:19:02:000,0.4666,-0.757,7.7908,44.995,-0.4934,-0.1801,0.0575,49.7436
17:19:02:018,0.1136,-0.8831,11.0413,44.9175,-0.445,-0.3857,0.0477,49.5686
17:19:02:038,0.3765,-0.8891,12.3479,44.6517,0.0789,-0.2349,0.1521,49.3965
17:19:02:058,1.4121,-1.1237,11.1268,44.3439,0.375,0.0536,0.0951,49.2242
17:19:02:078,1.9368,-1.2408,10.3483,44.2813,0.1867,0.2549,-0.1803,49.0559
17:19:02:101,1.4495,-0.9553,10.565,44.338,-0.2074,0.3986,-0.3355,48.901
17:19:02:118,1.9004,-1.2288,11.7908,44.0122,-0.2505,0.4425,-0.4387,48.7634
17:19:02:138,1.9554,-1.2526,11.514,43.5572,-0.185,0.4627,-0.6632,48.647
17:19:02:158,1.5528,-1.2204,11.4384,43.2816,-0.5151,0.4674,-0.9293,48.647
17:19:02:178,1.1138,-2.047,12.69,43.1492,-0.9446,0.4448,-1.1448,48.647
17:19:02:198,0.1609,-2.4687,14.2849,42.8021,-0.8789,0.4792,-1.0261,48.647
17:19:02:218,-0.3609,-2.3954,13.882,42.4569,-0.2639,0.4485,-0.5805,48.647
17:19:02:238,-0.0077,-1.6448,11.0059,42.3175,0.3365,0.3689,-0.0859,48.647
17:19:02:258,0.9022,-0.5138,8.2447,42.0671,0.5766,0.1525,-0.0074,48.647
17:19:02:278,0.9768,-0.0708,6.2753,41.6162,0.0126,-0.1943,-0.1419,48.647
17:19:02:298,0.3641,0.2546,7.0822,41.383,-0.7059,-0.2101,-0.2645,48.647
17:19:02:318,0.1264,0.522,8.6354,41.1357,-0.8858,-0.0698,-0.2199,48.647
17:19:02:338,-0.0162,0.687,9.1493,40.8195,-0.4859,0.1055,-0.1158,48.647
17:19:02:358,0.238,1.1803,8.2688,40.7417,0.0775,0.2331,-0.0307,48.647
17:19:02:378,1.0426,1.0052,6.6196,40.438,0.4839,0.3666,-0.0442,48.647
17:19:02:398,0.6715,1.4881,5.6827,40.2131,0.4597,0.2548,-0.2181,48.647
17:19:02:418,0.2815,1.3311,6.4468,40.0665,0.311,-0.1837,-0.3955,48.647
17:19:02:438,-0.1709,0.931,7.9853,39.6769,0.3079,-0.3944,-0.4166,48.647
17:19:02:458,-0.3929,0.9159,8.7699,39.2614,0.3176,-0.2206,-0.2122,48.7484
17:19:02:480,-0.0793,1.2594,9.4648,39.2312,0.2939,-0.267,-0.0231,48.852
17:19:02:498,0.1848,1.3964,10.5838,38.6323,0.2707,-0.4204,0.0248,48.9528
17:19:02:518,0.2323,1.669,11.7222,38.6771,0.391,-0.4209,0.0722,49.049
17:19:02:538,0.0964,1.7907,12.2578,38.2966,0.6625,-0.3119,0.0859,49.1394
17:19:02:558,0.0647,1.6852,11.3438,37.7333,0.8302,-0.0628,0.1292,49.1394
17:19:02:579,0.0803,1.503,10.2549,37.5209,0.6827,0.2554,0.1329,49.1394
17:19:02:598,-0.0532,1.1527,9.5869,37.4662,0.2623,0.4977,0.0879,49.1394
17:19:02:618,-0.9702,1.2324,10.4339,37.3123,-0.1785,0.476,0.1502,49.1394
17:19:02:638,-0.9368,0.9791,11.4545,36.8921,-0.3122,0.3144,0.4882,49.1394
17:19:02:657,0.3924,0.9741,12.3161,36.8185,-0.323,0.1212,0.6219,49.1394
17:19:02:678,-0.0887,0.7074,13.2523,36.6975,0.0042,-0.1005,0.4169,49.1394
17:19:02:698,-1.4881,-0.1327,11.9464,36.5844,0.4485,-0.4908,0.3203,49.1394
17:19:02:718,-1.8523,-0.8605,10.5886,36.6054,0.3441,-0.3413,0.4999,49.1394
17:19:02:738,-1.6319,-0.8673,9.5102,36.7046,0.0178,-0.1504,0.7374,49.1394
17:19:02:758,-0.6052,-0.5593,9.5014,36.6999,-0.3928,-0.1042,0.8555,49.1394
17:19:02:779,0.0786,-0.0767,9.6066,36.9337,-0.4606,-0.325,0.7627,49.1394
17:19:02:799,0.3501,-0.1206,9,36.791,-0.4512,-0.4059,0.5673,49.0406
17:19:02:818,0.0626,0.0041,8.5965,37.0175,-0.4501,-0.3813,0.4115,48.9272
17:19:02:838,-0.2887,-0.0041,8.6803,37.1814,-0.3224,-0.2331,0.3898,48.8042
17:19:02:876,-0.3625,0.0204,8.2761,37.2269,-0.1111,-0.2654,0.4479,48.6712
17:19:02:878,-0.2639,0.2744,7.8684,36.9955,0.0732,-0.3742,0.531,48.5258
17:19:02:898,0.1031,0.3273,7.1704,36.9227,0.1924,-0.3636,0.556,48.3658
17:19:02:918,0.2674,0.2587,6.6608,36.8227,0.1591,-0.3194,0.4944,48.1916
17:19:02:938,-0.0858,0.4832,6.606,36.8072,0.0368,-0.3514,0.4409,48.006
17:19:02:958,-0.2282,0.5863,6.9903,36.849,-0.0669,-0.4016,0.4341,47.8096
17:19:02:978,-0.2621,0.6825,7.4509,36.9124,-0.1333,-0.2612,0.4283,47.6061
17:19:02:998,-0.0781,0.5624,8.2638,37.0853,-0.153,-0.0482,0.4724,47.3947
17:19:03:018,0.4591,0.4345,9.077,36.9464,-0.0703,-0.0387,0.4763,47.1734
17:19:03:038,0.4698,0.814,9.6703,36.9731,-0.0394,-0.3603,0.33,46.9431
17:19:03:059,0.5415,0.5802,10.7086,37.1314,-0.066,-0.6847,0.1778,46.7094
17:19:03:078,1.4679,-0.74,11.7597,37.3073,0.0132,-0.6129,0.1048,46.4777
17:19:03:098,2.1725,-1.4673,11.791,37.6784,0.1082,-0.1604,0.0581,46.2504
17:19:03:118,1.41,-1.0111,11.1189,37.521,-0.077,0.4387,0.0456,46.0286
17:19:03:138,1.1772,-0.3912,11.2647,37.5805,-0.4181,0.6524,0.0539,45.813
17:19:03:158,2.3722,-1.0324,11.9462,37.6179,-0.5238,0.4408,-0.2336,45.6052
17:19:03:178,2.3942,-1.2681,12.2343,37.3353,-0.6496,0.1576,-0.5924,45.4164
17:19:03:198,1.5867,-1.3434,13.0966,37.3763,-0.6695,0.1171,-0.8549,45.2582
17:19:03:218,0.9736,-1.992,13.1818,37.6103,-0.4796,0.2775,-1.0014,45.1374
17:19:03:240,0.8689,-2.721,12.3612,37.6311,-0.3045,0.3736,-1.0568,45.1374
17:19:03:258,0.875,-3.0941,11.1116,37.5867,-0.3962,0.492,-0.9312,45.1374
17:19:03:278,1.1594,-2.8487,10.477,37.8078,-0.6731,0.49,-0.7447,45.1374
17:19:03:299,1.3428,-2.1751,10.322,37.5816,-0.7998,0.5613,-0.6618,45.1374
17:19:03:318,0.3633,-1.4112,9.7354,37.5937,-0.6545,0.645,-0.6797,45.1374
17:19:03:340,-0.614,-0.8867,8.4833,37.6547,-0.3651,0.6576,-0.5543,45.1374
17:19:03:358,-1.1375,-0.4358,7.2069,37.7932,-0.1066,0.5139,-0.2383,45.1374
17:19:03:378,-0.7855,-0.1102,6.3836,37.661,0.1235,0.2513,0.1131,45.1374
17:19:03:398,-0.2589,0.1848,5.9526,37.8456,0.2634,-0.0592,0.298,45.1374
17:19:03:418,0.0832,0.7811,5.9921,37.8996,0.266,-0.3023,0.3266,45.1374
17:19:03:440,0.186,1.0151,6.2829,38.1627,0.1425,-0.4409,0.2,45.1374
17:19:03:458,0.4176,0.4819,7.1965,38.2397,-0.1245,-0.6476,0.0263,45.1374
17:19:03:478,0.6094,-0.2055,8.946,38.4708,-0.2865,-0.7286,0.0471,45.1374
17:19:03:499,0.9987,-0.7073,10.6996,38.472,-0.1457,-0.6224,0.1588,45.1374
17:19:03:518,1.348,-0.7098,11.4546,38.3376,0.2364,-0.3439,0.2705,45.1374
17:19:03:539,1.411,-0.1716,10.8229,38.2391,0.5656,-0.0404,0.2484,45.1374
17:19:03:558,1.08,0.4271,9.5598,38.3149,0.5095,0.2325,0.174,45.1374
17:19:03:578,0.7253,0.6425,9.3831,38.447,0.1478,0.2849,0.0282,45.1374
17:19:03:598,0.4327,0.5806,10.3259,38.7205,-0.1154,0.1636,-0.1212,45.1374
17:19:03:618,0.155,0.2552,11.4276,38.8807,-0.1695,0.0478,-0.0976,45.1374
17:19:03:638,0.202,-0.076,12.3876,39.0987,-0.0693,0.0021,0.0262,45.1374
17:19:03:658,0.0018,-0.1382,12.7726,39.1013,0.1556,0.1496,0.114,45.1374
17:19:03:678,-0.2634,-0.0788,12.1476,39.2375,0.2402,0.281,0.2089,45.1374
17:19:03:698,-0.6436,-0.1469,11.6705,39.4496,-0.0661,0.4307,0.1954,45.1374
17:19:03:719,-1.053,-0.1376,12.4301,39.5639,-0.2129,0.3503,0.225,45.1374
17:19:03:738,-1.1494,-1.1786,12.4745,40.1566,0.0177,0.2559,0.2565,45.1374
17:19:03:758,-1.4966,-1.7497,11.4759,40.4247,0.3311,0.0449,0.4722,45.1374
17:19:03:778,-0.6733,-1.8049,10.5857,40.6851,0.4057,-0.2547,0.6733,45.1374
17:19:03:798,0.6495,-1.6055,10.2663,40.9213,0.3075,-0.5507,0.5984,45.1374
17:19:03:820,1.3155,-1.4232,10.2536,41.3252,0.1833,-0.465,0.3354,45.1374
17:19:03:838,0.9743,-1.4625,9.3711,41.4554,0.0736,-0.2172,0.0111,45.1374
17:19:03:858,-0.1026,-1.3918,8.7323,41.8181,-0.175,0.0426,-0.1081,45.1374
17:19:03:878,-1.0822,-1.2139,8.5439,41.8395,-0.2463,0.0545,0.0188,45.1374
17:19:03:898,-1.4143,-0.8597,8.3216,42.1271,-0.0563,-0.0379,0.326,45.1374
17:19:03:918,-1.1763,-0.4785,7.7791,42.2732,0.2895,-0.1586,0.5955,45.039
17:19:03:938,-0.5312,-0.0959,7.0693,42.5289,0.5697,-0.2546,0.7013,44.9209
17:19:03:958,0.0858,0.1278,6.2231,42.7993,0.6493,-0.2352,0.6249,44.7812
17:19:03:978,0.1886,0.2572,5.743,42.8951,0.5115,-0.1749,0.4429,44.6245
17:19:04:002,-0.1201,0.2655,5.8552,43.2068,0.23,-0.1467,0.2601,44.4581
17:19:04:018,-0.582,0.201,7.0006,43.8745,-0.0696,-0.1215,0.1391,44.2891
17:19:04:038,-1.2689,0.1732,9.0127,44.3337,-0.0829,-0.1506,0.1588,44.1208
17:19:04:058,-0.9074,-0.4301,10.1666,44.602,0.2719,-0.28,0.263,43.9501
17:19:04:079,-0.0152,-1.034,9.8653,45.0013,0.4782,-0.4789,0.3361,43.7744
17:19:04:100,0.6163,-0.9369,9.7275,45.0746,0.2714,-0.5514,0.3475,43.5908
17:19:04:120,1.1169,-0.6988,10.17,44.9807,-0.0773,-0.3483,0.2332,43.4014
17:19:04:139,1.2615,-0.8016,10.8536,45.2003,-0.3423,-0.0008,0.0255,43.2127
17:19:04:157,0.9132,-1.149,11.4454,45.6167,-0.4219,0.3259,-0.0947,43.0319
17:19:04:178,0.9278,-1.6312,11.7609,45.7763,-0.4083,0.3536,-0.0713,42.8612
17:19:04:198,2.0817,-1.8661,11.923,46.0299,-0.314,0.1834,-0.0099,42.6985
17:19:04:218,3.1054,-1.712,11.3999,46.273,-0.2384,-0.027,-0.1658,42.5423
17:19:04:238,2.8233,-1.3602,10.9995,46.4204,-0.534,-0.253,-0.5905,42.4008
17:19:04:258,1.9145,-1.3696,12.12,46.7704,-1.0122,-0.1488,-0.9902,42.2903
17:19:04:278,0.7202,-2.197,14.1139,46.8576,-0.9044,0.0504,-1.0143,42.2903
17:19:04:301,0.8043,-2.5804,13.6485,46.9749,-0.3153,0.2477,-0.649,42.2903
17:19:04:318,1.4186,-2.3357,11.5358,46.9758,0.2959,0.2029,-0.2158,42.2903
17:19:04:338,2.7265,-1.5368,8.6364,46.6755,0.2674,-0.0907,-0.1216,42.2903
17:19:04:357,3.102,-0.5825,8.1542,46.5988,-0.3314,-0.2997,-0.5657,42.2903
17:19:04:378,1.8575,-0.4949,9.0306,46.5317,-0.7697,-0.1851,-0.9591,42.2903
17:19:04:398,0.4072,-0.4993,9.9101,46.625,-0.7356,0.2168,-1.023,42.2903
17:19:04:418,-0.5293,-0.6555,9.6247,46.9268,-0.3382,0.5672,-0.7689,42.3829
17:19:04:438,-0.846,-0.3407,8.1827,47.1192,0.2453,0.7715,-0.4542,42.4967
17:19:04:457,-0.4358,-0.0866,6.1921,47.3035,0.5582,0.7758,-0.1269,42.6186
17:19:04:480,0.2212,0.2579,4.9281,47.3477,0.5325,0.5912,-0.0464,42.7389
17:19:04:498,0.6016,0.6415,4.8138,47.2873,0.2875,0.2889,-0.0989,42.8568
17:19:04:518,0.6983,0.9022,6.2081,47.5312,0.0435,-0.14,-0.2399,42.9757
17:19:04:538,0.2096,0.9805,8.3312,47.7787,-0.0003,-0.5539,-0.3621,43.1007
17:19:04:558,-0.1021,0.9064,9.9934,47.7567,0.1621,-0.6283,-0.2222,43.2342
17:19:04:579,0.637,0.3794,10.7929,48.0206,0.4479,-0.4544,-0.1017,43.3688
17:19:04:598,1.3487,0.3923,10.3377,48.4233,0.6096,-0.1292,0.0088,43.5002
17:19:04:618,1.4407,1.0328,9.6581,48.7576,0.4322,0.0947,-0.0159,43.6256
17:19:04:638,1.1023,1.4076,9.8092,48.8981,0.1264,0.2244,-0.1782,43.7484
17:19:04:658,0.8166,1.1452,10.3512,49.1067,-0.1106,0.3252,-0.2673,43.8752
17:19:04:678,0.3254,0.811,11.1841,49.357,-0.1771,0.3967,-0.2586,44.0073
17:19:04:698,0.3238,0.421,11.7639,49.3835,-0.1676,0.3521,-0.1439,44.1437
17:19:04:718,0.6108,0.1811,12.4963,49.8368,-0.0991,0.3199,-0.0175,44.28
17:19:04:737,0.6661,0.4227,12.4632,50.0664,-0.1753,0.4941,0.0044,44.4124
17:19:04:758,0.1775,-0.0693,13.0199,50.2736,-0.2831,0.4759,0.0227,44.5413
17:19:04:778,-0.2413,-1.1347,13.7662,50.7257,-0.0668,0.033,0.0722,44.665
17:19:04:799,-0.7903,-1.9524,13.469,50.9266,0.4094,-0.3541,0.3106,44.7806
17:19:04:818,-0.4945,-2.0093,11.9932,51.1565,0.8038,-0.527,0.6461,44.8778
17:19:04:837,0.3552,-1.7015,10.2215,51.2483,0.6999,-0.5674,0.8091,44.8778
17:19:04:861,1.2641,-1.1875,9.4001,51.5435,0.3107,-0.5478,0.6821,44.8778
17:19:04:894,1.2589,-0.6516,9.3042,51.6709,-0.0746,-0.4443,0.3887,44.8778
17:19:04:901,0.5384,-0.3437,9.2578,51.9536,-0.2807,-0.251,0.1386,44.8778
17:19:04:918,-0.3623,-0.1665,9.1544,52.2827,-0.2942,-0.0712,0.0431,44.8778
17:19:04:937,-0.8538,-0.1672,8.852,52.6914,-0.0871,0.0866,0.1039,44.8778
17:19:04:958,-0.832,-0.1977,7.9329,52.9506,0.1999,0.2039,0.2293,44.8778
17:19:04:978,-0.4651,-0.2847,7.0928,53.1417,0.3357,0.1268,0.3343,44.8778
17:19:04:998,-0.1552,-0.0507,7.2185,53.3734,0.3849,-0.1009,0.3346,44.8778
17:19:05:018,-0.0855,0.0438,7.4159,53.7279,0.515,-0.233,0.2617,44.8778
17:19:05:038,-0.2132,0.0668,7.3855,53.6492,0.6316,-0.1187,0.2398,44.8778
17:19:05:059,0.0221,0.1179,7.0129,54.117,0.6724,0.1733,0.2669,44.8778
17:19:05:078,0.3241,0.2077,6.5564,54.3298,0.5337,0.345,0.2222,44.8778
17:19:05:099,0.4154,0.3482,6.6663,54.1843,0.3094,0.282,0.1099,44.8778
17:19:05:118,0.4466,0.1323,7.3016,54.2686,0.0849,-0.0241,-0.0352,44.8778
17:19:05:138,0.0481,-0.2824,8.7883,54.5383,-0.0646,-0.2778,-0.1106,44.8778
17:19:05:158,-0.0927,-0.7245,10.6667,54.6047,0.0024,-0.1987,-0.0024,44.8778
17:19:05:178,0.2953,-0.9853,11.0629,55.1783,0.1962,0.0495,0.1235,44.8778
17:19:05:198,1.0486,-1.1856,10.2424,55.5522,0.1263,0.198,0.1521,44.8778
17:19:05:217,1.5839,-1.03,10.0342,55.91,-0.2775,0.1292,-0.0518,44.8778
17:19:05:240,1.8301,-1.1206,11.3828,55.9596,-0.7021,-0.0274,-0.3222,44.8778
17:19:05:258,2.1098,-1.6805,12.8631,55.9813,-0.7315,0.0484,-0.5089,44.8778
17:19:05:278,1.7589,-2.0995,12.8117,55.7467,-0.6805,0.0759,-0.6022,44.8778
17:19:05:298,1.2455,-2.2424,12.7556,55.7824,-0.8241,-0.0186,-0.6186,44.8778
17:19:05:318,0.9163,-2.406,13.5739,55.669,-1.0253,0.0116,-0.5585,44.8778
17:19:05:339,0.7057,-2.482,14.8285,55.9131,-0.8934,0.0852,-0.3429,44.8778
17:19:05:358,1.0529,-2.2335,14.5677,55.8067,-0.2948,0.086,0.068,44.8778
17:19:05:378,1.6182,-1.6317,12.3266,55.7615,0.2683,0.0441,0.4006,44.8778
17:19:05:398,2.444,-0.2972,9.9563,55.6073,0.2215,-0.0094,0.4316,44.8778
17:19:05:418,2.0924,0.5935,9.0063,55.3793,-0.0066,-0.0262,0.038,44.8778
17:19:05:439,1.8274,0.5215,8.5231,55.2332,-0.133,0.1734,-0.2113,44.8778
17:19:05:458,1.2882,0.451,7.8401,54.9391,-0.0245,0.4299,-0.3113,44.8778
17:19:05:478,0.8953,0.5822,6.6102,54.7501,0.1929,0.6363,-0.3048,44.8778
17:19:05:498,0.519,0.7985,5.2893,54.5503,0.3168,0.6679,-0.2775,44.8778
17:19:05:518,0.2417,1.116,4.616,54.3895,0.3431,0.6487,-0.194,44.8778
17:19:05:538,0.7716,0.7582,4.8308,54.1883,0.4393,0.5572,-0.1112,44.8778
17:19:05:558,0.465,1.181,4.3617,54.2296,0.5679,0.3805,-0.0233,44.8778
17:19:05:578,1.2774,0.3911,4.5905,54.4168,0.4549,-0.0506,-0.1177,44.8778
17:19:05:598,0.4687,0.4533,5.6598,54.5253,0.1535,-0.3807,-0.227,44.8778
17:19:05:618,-0.2327,0.5943,8.0294,54.5568,-0.1068,-0.6746,-0.114,44.8778
17:19:05:638,0.3012,0.3739,10.6882,54.7393,-0.0521,-0.8512,0.1804,44.8778
17:19:05:658,1.4405,0.6591,11.9192,54.5966,0.2441,-0.8861,0.4214,44.8778
17:19:05:678,2.488,1.3387,11.5843,54.3502,0.3416,-0.7857,0.4085,44.8778
17:19:05:698,3.3073,1.7194,11.1854,54.2965,0.0705,-0.4936,0.0844,44.8778
17:19:05:720,3.1398,1.6749,11.6207,53.7682,-0.3818,-0.0512,-0.3389,44.8778
17:19:05:738,2.188,1.2714,12.8815,53.6675,-0.7088,0.3983,-0.5979,44.8778
17:19:05:758,0.8848,1.2655,14.1142,53.5003,-0.6576,0.7763,-0.5288,44.8778
17:19:05:778,0.4212,1.522,14.1185,53.1281,-0.2935,0.8329,-0.2572,44.8778
17:19:05:798,0.5257,1.2467,13.623,53.1339,-0.0303,0.3213,-0.0077,44.9706
17:19:05:820,-0.2199,0.1153,14.0925,52.7177,0.3958,-0.8939,0.1076,44.9706
17:19:05:838,-1.1099,-0.6059,13.6645,52.5938,0.9535,-2.0219,0.2652,44.9706
17:19:05:858,-0.8338,-1.3453,12.9564,52.331,1.2428,-2.1672,0.5149,44.9706
17:19:05:878,0.2775,-1.321,11.1916,52.0515,1.1958,-1.3444,0.6381,44.9706
17:19:05:899,1.9135,-0.9648,9.4212,51.6911,0.5305,0.0114,0.4,44.9706
17:19:05:918,2.4197,-0.5165,8.8543,51.581,-0.4747,1.1323,-0.1485,44.9706
17:19:05:938,1.0838,0.1697,9.5681,51.3144,-1.0686,1.5359,-0.6223,44.9706
17:19:05:958,-0.3598,0.3136,10.2795,51.2432,-0.9567,1.3155,-0.7133,44.9706
17:19:05:978,-0.7145,-0.1278,9.9667,50.6638,-0.3057,0.8689,-0.5096,44.9706
17:19:05:998,-0.8083,-0.126,8.084,50.3019,0.3803,0.5059,-0.1626,44.9706
17:19:06:018,-0.5074,0.0779,5.8164,50.0837,0.7092,0.1683,0.1543,44.9706
17:19:06:038,0.1189,0.2008,4.5038,49.7936,0.6726,0.0066,0.2649,44.9706
17:19:06:058,0.3766,0.3519,4.7669,49.2651,0.4499,-0.1814,0.2103,44.9706
17:19:06:079,1.417,0.5607,7.5609,49.1382,0.3836,-0.6455,-0.007,44.9706
17:19:06:100,1.8524,1.3376,10.9821,48.8874,0.7836,-0.8788,-0.565,44.9706
17:19:06:118,-0.5397,1.4971,11.1486,48.8403,1.2034,-0.2722,-1.1317,44.9706
17:19:06:138,-1.8215,0.0264,9.2813,48.67,1.0557,0.8765,-1.0263,45.0992
17:19:06:158,-2.0738,-0.8307,7.1756,48.6301,0.4654,1.4169,-0.4003,45.2559
17:19:06:177,-1.8168,0.2073,7.4711,48.568,-0.0835,0.4995,0.1407,45.4129
17:19:06:198,-0.1171,0.8268,9.533,48.2634,-0.0996,-0.6948,0.117,45.5556
17:19:06:218,0.9411,0.2854,10.4548,47.963,0.0796,-0.8999,-0.2278,45.6924
17:19:06:238,0.8998,-0.4498,9.3773,47.8468,-0.1762,-0.092,-0.4668,45.838
17:19:06:258,0.5695,-0.5792,8.9903,47.6201,-0.7887,0.6413,-0.5896,46.001
17:19:06:277,0.7706,-0.6747,9.9618,47.6703,-1.1402,0.7067,-0.5858,46.1806
17:19:06:298,1.2542,-1.0134,10.6702,47.1509,-1.062,0.3658,-0.6219,46.3757
17:19:06:318,1.0461,-1.5716,11.1321,46.9219,-0.9639,-0.1113,-0.6897,46.5869
17:19:06:338,0.7183,-2.2289,12.4856,46.5497,-0.8969,-0.3154,-0.607,46.8158
17:19:06:358,0.5173,-2.5322,13.7517,46.1429,-0.6901,-0.1935,-0.3317,47.0576
17:19:06:378,1.2365,-2.5217,13.6752,45.7524,-0.254,0.007,0.0219,47.301
17:19:06:398,1.8618,-1.9406,11.6532,45.7943,0.0988,0.1434,0.2592,47.5337
17:19:06:418,2.0154,-1.1536,8.8086,45.5012,0.0794,0.1891,0.3041,47.7497
17:19:06:438,2.0004,-0.7556,6.6662,45.2687,-0.2809,0.082,0.2207,47.9496
17:19:06:458,1.8349,-0.5607,6.2548,45.3241,-0.8124,-0.2742,0.0849,48.1377
17:19:06:481,1.7683,-0.002,7.6957,44.8061,-1.0738,-0.6129,-0.0434,48.3197
17:19:06:499,1.2467,0.3492,9.026,44.4203,-0.8945,-0.6958,-0.1568,48.5004
17:19:06:518,0.4589,0.725,9.2381,44.6284,-0.5094,-0.4492,-0.0237,48.6819
17:19:06:538,0.8335,1.5557,8.2304,44.5266,-0.2448,-0.1914,0.3139,48.8567
17:19:06:558,2.1147,2.229,7.5929,44.5566,-0.039,-0.3782,0.4895,49.0136
17:19:06:580,2.6212,2.2963,7.6299,44.4328,0.1455,-0.8871,0.4569,49.1487
17:19:06:599,2.4924,2.2997,8.7967,44.3159,0.4399,-1.5573,0.3075,49.2644
17:19:06:618,2.3658,1.7165,9.6845,44.1283,0.6622,-1.5676,0.1924,49.3644
17:19:06:638,2.6187,1.1589,9.6739,44.1974,0.3932,-0.5736,0.0511,49.3644
17:19:06:658,2.659,1.0021,10.2768,44.025,-0.1135,0.6393,-0.1475,49.3644
17:19:06:679,1.8875,1.1612,10.8196,44.1647,-0.2618,0.9745,-0.2688,49.4596
17:19:06:699,0.9617,1.1395,11.5014,44.1494,-0.0542,0.5246,-0.2397,49.562
17:19:06:718,0.6933,0.9175,11.7939,43.9375,0.3826,-0.176,-0.1004,49.6677
17:19:06:738,0.6657,0.5563,11.1122,43.8461,0.6829,-0.5281,0.0246,49.7699
17:19:06:757,0.8213,0.3269,10.5448,43.5638,0.584,-0.4513,0.0791,49.8642
17:19:06:778,0.9339,0.3112,10.7096,43.5232,0.229,-0.0667,-0.0075,49.8642
17:19:06:799,1.215,0.2945,11.2231,42.8561,-0.1467,0.6159,-0.2089,49.8642
17:19:06:818,0.3856,-0.2158,11.5565,42.6974,-0.4581,1.1237,-0.4832,49.9646
17:19:06:838,-0.814,-1.0751,12.3996,42.7753,-0.6358,0.9565,-0.5004,50.0813
17:19:06:857,-2.182,-1.8317,14.2354,42.8265,-0.5243,0.6662,-0.1793,50.2119
17:19:06:898,-2.4265,-2.2024,14.6719,42.8248,0.173,0.1756,0.4582,50.3397
17:19:06:899,-1.2417,-2.0241,13.0988,43.1099,0.7749,-0.1278,1.0135,50.4411
17:19:06:918,0.2279,-1.3634,10.8228,42.953,1.0054,-0.3082,1.2067,50.4411
17:19:06:939,1.7326,-0.9105,8.8794,43.0451,0.7978,-0.2206,1.0418,50.4411
17:19:06:958,2.1955,-0.3861,7.6728,43.3667,0.2838,-0.1014,0.6326,50.4411
17:19:06:978,1.3225,0.1631,8.1759,43.232,-0.1905,0.0035,0.2784,50.4411
17:19:06:998,0.4284,0.2176,8.9224,43.0921,-0.1803,0.0785,0.1354,50.4411
17:19:07:018,0.0307,0.1332,8.4329,42.7973,0.098,0.1613,0.1761,50.4411
17:19:07:038,0.0564,0.14,7.2309,42.8371,0.3393,0.1607,0.2765,50.4411
17:19:07:058,0.5314,0.2305,6.4309,42.5171,0.3717,0.0236,0.3282,50.4411
17:19:07:078,0.9616,0.3673,6.452,42.6183,0.3172,-0.1219,0.2894,50.4411
17:19:07:098,0.6753,0.5165,7.0596,43.0504,0.2694,-0.1347,0.2256,50.3508
17:19:07:118,0.5025,0.3972,8.0504,42.9842,0.3837,0.0453,0.2375,50.2548
17:19:07:138,0.5651,0.3527,8.1265,42.8998,0.5868,0.3624,0.2268,50.1523
17:19:07:159,0.2509,0.2921,7.3002,42.8544,0.5951,0.5808,0.1893,50.0443
17:19:07:178,0.0214,0.4021,6.8785,42.7698,0.4215,0.5354,0.2119,49.9315
17:19:07:198,0.3733,0.3336,7.1393,42.7533,0.2201,0.2237,0.2016,49.8135
17:19:07:218,0.5484,0.2376,7.7818,42.9141,0.0205,-0.1316,0.1236,49.6917
17:19:07:241,0.5142,0.2527,9.1837,42.8641,-0.1097,-0.4422,0.0212,49.5697
17:19:07:258,0.7468,-0.2586,10.2343,42.7685,-0.092,-0.6095,-0.0765,49.4517
17:19:07:279,0.8635,-0.8304,10.4462,42.5539,-0.1335,-0.54,-0.0505,49.3401
17:19:07:298,1.9123,-1.2465,10.8115,42.2893,-0.3829,-0.536,0.0564,49.2336
17:19:07:318,4.5889,-1.3711,11.8747,42.3904,-0.5486,-0.8133,-0.0283,49.1295
17:19:07:340,5.4858,-1.2928,13.0816,42.4178,-0.5088,-1.5205,-0.5909,49.0344
17:19:07:358,3.255,-1.3333,14.2815,42.4581,-0.4006,-1.9244,-1.1128,49.0344
17:19:07:378,1.8526,-1.7437,15.0752,42.497,-0.1433,-1.3527,-1.0334,49.0344
17:19:07:398,2.8854,-2.0663,13.9683,42.2567,0.128,-0.0956,-0.7349,49.0344
17:19:07:418,3.7445,-1.5692,11.1949,41.9389,0.0773,1.0459,-0.6505,49.0344
17:19:07:438,3.5848,-1.0088,8.9446,41.7624,-0.3205,1.3272,-0.8808,49.0344
17:19:07:458,2.4861,-0.6389,8.1531,41.4174,-0.7412,1.0445,-1.0884,49.1307
17:19:07:478,1.035,-0.4225,8.1059,41.5322,-0.9554,0.5708,-1.0612,49.2612
17:19:07:498,-0.3122,-0.169,8.183,41.1652,-1,0.2222,-0.8715,49.4269
17:19:07:518,-0.6782,-0.0487,8.2395,40.8635,-0.8581,0.0661,-0.5003,49.6185
17:19:07:538,0.6224,0.2928,7.9843,40.6895,-0.5163,-0.0398,-0.0658,49.8204
17:19:07:559,2.0143,1.0949,7.6304,40.3568,-0.131,-0.394,-0.0128,50.0183
17:19:07:578,1.5594,1.7992,7.2469,40.1473,0.045,-0.6951,-0.3449,50.213
17:19:07:598,0.859,1.4601,7.2019,40.2071,-0.0278,-0.3258,-0.6369,50.4164
17:19:07:618,-0.3004,0.8459,6.8942,39.6805,-0.2022,0.4971,-0.6342,50.6368
17:19:07:638,-0.711,0.5949,6.4104,39.6239,-0.4077,1.0872,-0.4057,50.8719
17:19:07:658,-0.4094,0.9339,6.9328,39.2667,-0.5829,0.9995,-0.1838,51.1139
17:19:07:678,0.3964,1.105,8.3882,38.9454,-0.4963,0.4441,-0.0449,51.3557
17:19:07:698,0.8236,1.3101,10.3743,38.8429,-0.1173,-0.2376,0.0506,51.592
17:19:07:720,0.7635,1.3103,11.7255,38.5371,0.4201,-0.6538,0.1282,51.8183
17:19:07:738,0.9604,1.1243,11.7717,38.5001,0.7279,-0.5862,0.1973,52.0302
17:19:07:759,1.4259,1.1522,11.3727,38.2856,0.635,-0.156,0.208,52.2257
17:19:07:778,1.8176,1.1429,11.1209,37.9449,0.3586,0.2719,0.0896,52.4069
17:19:07:798,1.5909,0.9243,11.1979,37.7451,0.0446,0.4746,-0.0837,52.5804
17:19:07:819,0.6453,0.5501,11.8558,37.5904,-0.1513,0.4854,-0.1927,52.753
17:19:07:838,-0.4875,0.1587,12.4397,37.4761,-0.1164,0.5336,-0.0714,52.9271
17:19:07:858,-1.2071,-0.0765,12.0731,37.354,0.0146,0.5931,0.2121,53.0962
17:19:07:877,-1.7531,-0.24,11.4267,37.0044,0.0804,0.2172,0.552,53.2501
17:19:07:898,-1.2861,-0.806,12.3447,36.5657,-0.0337,-0.0589,0.8387,53.3779
17:19:07:918,-0.3768,-1.2183,12.6273,36.2098,0.2907,-0.3686,1.1165,53.4701
17:19:07:938,0.7408,-1.4025,12.0608,35.8321,0.4965,-0.5511,1.3006,53.4701
17:19:07:958,2.0697,-1.2061,11.1752,35.5056,0.4901,-0.7466,1.2084,53.4701
17:19:07:978,2.6202,-1.0181,10.6648,35.5021,0.2747,-0.7129,0.8229,53.4701
17:19:07:999,1.9983,-1.0563,9.8661,35.2169,-0.111,-0.3771,0.4076,53.4701
17:19:08:019,0.7387,-0.8376,9.6046,34.9197,-0.4567,0.0772,0.192,53.4701
17:19:08:038,-0.2081,-0.5232,9.2061,34.9045,-0.5054,0.3792,0.2491,53.4701
17:19:08:058,-0.7489,-0.1097,8.7963,34.6552,-0.2479,0.3017,0.4854,53.4701
17:19:08:077,-0.2989,-0.0552,8.2793,34.5736,0.2978,-0.0938,0.7232,53.3659
17:19:08:100,1.2703,-0.2405,7.3777,34.5783,0.7697,-0.523,0.828,53.2361
17:19:08:118,1.9849,-0.0005,6.7391,34.6501,0.7801,-0.8002,0.6131,53.0793
17:19:08:138,1.5329,0.1325,7.328,34.4239,0.562,-0.6921,0.29,52.906
17:19:08:158,0.8661,-0.0395,8.1208,34.4757,0.4634,-0.1714,0.1207,52.7277
17:19:08:178,0.4742,-0.037,8.1783,34.4491,0.5153,0.4681,0.2,52.5488
17:19:08:198,0.8555,-0.0128,7.426,34.085,0.5918,0.7422,0.3208,52.3647
17:19:08:218,1.273,0.213,6.7327,33.9725,0.5034,0.5066,0.2967,52.1721
17:19:08:238,1.0414,0.329,7.1201,34.1045,0.2584,-0.0315,0.1318,51.9737
17:19:08:258,0.616,-0.212,8.6199,33.9064,0.0855,-0.4087,0.0547,51.7764
17:19:08:278,0.3626,-0.9387,10.2536,34.0056,0.0506,-0.2793,0.2054,51.5823
17:19:08:299,1.0527,-1.2845,11.0276,34.1455,0.1527,-0.0386,0.3649,51.3852
17:19:08:318,2.2994,-1.5515,10.5039,34.1145,0.1586,0.0404,0.2663,51.1813
17:19:08:338,2.6838,-1.5586,10.276,33.8392,-0.1079,0.1143,0.015,50.9764
17:19:08:358,2.7145,-1.7776,11.0998,34.0499,-0.3211,0.1633,-0.1644,50.7801
17:19:08:378,2.8647,-2.1391,11.2428,34.1804,-0.276,0.4097,-0.289,50.5982
17:19:08:398,2.3844,-1.9265,10.4891,34.2748,-0.4938,0.5934,-0.4389,50.4346
17:19:08:418,1.7839,-1.52,11.0192,34.3952,-0.9195,0.6346,-0.6289,50.2955
17:19:08:438,1.625,-1.8456,12.1619,34.2807,-1.0765,0.3912,-0.7838,50.1868
17:19:08:458,0.9086,-2.2764,12.6701,34.0669,-0.9846,0.0981,-0.7487,50.1868
17:19:08:481,0.3225,-1.9988,12.2595,33.9799,-0.7237,0.0031,-0.4785,50.1868
17:19:08:498,0.463,-1.2168,10.5225,33.7255,-0.5232,0.0872,-0.2065,50.1868
17:19:08:518,0.9901,-0.646,8.6741,33.6923,-0.53,0.0855,-0.1055,50.1868
17:19:08:538,1.635,0.0509,7.547,33.5644,-0.6713,0.0292,-0.0952,50.1868
17:19:08:558,1.8952,0.5762,7.1217,33.756,-0.6348,-0.2768,-0.2397,50.1868
17:19:08:580,2.0231,0.805,7.5388,33.8396,-0.7214,-0.2624,-0.405,50.1868
17:19:08:599,0.7961,0.9513,8.8288,33.7724,-0.6133,-0.0948,-0.6775,50.1868
17:19:08:618,-0.5016,0.4754,9.2613,33.8427,-0.2265,0.2053,-0.631,50.1868
17:19:08:638,-0.7084,0.2353,8.0772,33.8797,0.1803,0.4897,-0.4146,50.1868
17:19:08:658,-0.167,0.1056,6.4078,34.0001,0.1893,0.5496,-0.251,50.1868
17:19:08:679,0.3921,0.4817,6.9657,34.1579,-0.1223,0.2168,-0.2531,50.1868
17:19:08:698,0.5364,0.4286,9.2932,34.5974,-0.1985,-0.1813,-0.372,50.2788
17:19:08:718,0.223,0.2459,11.2158,34.7263,-0.0225,-0.123,-0.4918,50.3823
17:19:08:738,0.432,-0.1481,11.2644,34.6361,0.0038,0.6839,-0.5854,50.4996
17:19:08:758,0.513,0.067,10.8,34.8349,-0.4711,1.8469,-0.6128,50.6335
17:19:08:778,-0.0492,0.5687,11.5029,34.8928,-0.7522,2.1177,-0.5841,50.785
17:19:08:798,-0.9637,0.8269,12.5208,34.8662,-0.4197,1.4638,-0.4765,50.9518
17:19:08:818,-1.4549,0.8034,12.5716,35.0487,0.2848,0.5034,-0.288,51.129
17:19:08:838,-1.4852,0.5958,11.3458,35.0101,0.6159,-0.1507,-0.0392,51.3098
17:19:08:861,-1.4345,0.992,11.2317,34.704,0.3466,-0.2586,0.2046,51.4853
17:19:08:878,-1.1584,1.1947,12.18,35.0284,0.2619,-0.0384,0.3872,51.6474
17:19:08:908,-0.8033,0.8828,12.3105,34.9433,0.4024,0.1768,0.5246,51.7898
17:19:08:918,-0.6769,-0.021,11.7555,34.9494,0.7033,0.0064,0.6033,51.9094
17:19:08:938,-0.9062,-0.9791,10.9689,35.2119,0.8924,-0.2096,0.7243,52.0047
17:19:08:958,-0.8633,-1.6191,10.088,35.4251,0.9553,-0.5371,0.8403,52.0047
17:19:08:978,-0.3935,-2.1937,9.6032,35.6122,0.604,-0.818,0.8474,52.0047
17:19:08:998,0.3177,-2.466,10.5348,35.8166,0.0929,-1.1365,0.7694,52.0047
17:19:09:018,0.6369,-2.5084,12.0226,35.7523,-0.2185,-1.2081,0.5511,52.0047
17:19:09:038,0.7166,-2.518,12.2619,35.9203,-0.2155,-0.8976,0.2649,52.0047
17:19:09:058,0.1145,-2.1116,10.9296,36.0742,-0.2485,-0.2626,0.0651,52.0047
17:19:09:078,-0.8695,-1.4319,9.8563,36.092,-0.1607,0.1629,0.0116,52.0047
17:19:09:098,-1.2912,-0.9064,8.5532,36.3609,0.1668,0.2865,0.1987,52.0047
17:19:09:118,-0.7289,-0.4852,6.9144,36.5254,0.4948,0.1844,0.4649,52.0047
17:19:09:138,0.1229,-0.0164,5.5299,36.4281,0.5835,-0.1025,0.5495,52.0047
17:19:09:159,0.4143,0.3757,5.4516,36.2059,0.5153,-0.4616,0.4291,52.0047
17:19:09:179,0.0656,0.4214,6.1962,36.1292,0.5526,-0.6642,0.2987,51.9033
17:19:09:198,-0.3424,0.2001,6.8388,36.0266,0.7034,-0.6338,0.297,51.7934
17:19:09:218,-0.1755,-0.0466,6.6397,36.0432,0.7764,-0.3629,0.3719,51.6741
17:19:09:238,-0.1934,0.1847,6.2389,35.7618,0.5525,-0.0968,0.4066,51.5435
17:19:09:258,-0.0952,0.3873,6.6214,35.6682,0.2369,-0.0876,0.323,51.4007
17:19:09:278,-0.2023,0.095,7.792,35.4493,-0.0172,-0.2413,0.2133,51.2527
17:19:09:298,-0.018,-0.7107,9.6638,35.2688,-0.0659,-0.3457,0.2183,51.1023
17:19:09:318,0.6044,-1.1169,10.8132,35.2262,0.0332,-0.2635,0.2905,50.9483
17:19:09:340,1.3637,-1.3211,11.0372,35.3121,0.0687,-0.1589,0.0634,50.79
17:19:09:358,1.1376,-1.9522,10.3151,35.7091,-0.2172,0.0991,-0.4369,50.6393
17:19:09:378,-0.2318,-2.4958,10.1055,35.7592,-0.9239,0.3758,-0.8025,50.5136
17:19:09:398,-0.1999,-2.7509,11.9501,35.5284,-1.3976,0.5731,-0.4215,50.4219
17:19:09:418,1.9625,-1.991,13.8892,35.367,-1.1261,0.3963,0.1094,50.4219
17:19:09:438,4.2826,-0.7679,14.5796,35.1877,-0.5001,-0.1194,0.0689,50.4219
17:19:09:458,5.0446,-0.3485,13.6134,35.0514,-0.1552,-0.405,-0.5073,50.4219
17:19:09:478,4.4563,-1.1674,12.9867,35.0166,-0.4169,-0.1873,-1.089,50.4219
17:19:09:498,2.8936,-1.8913,13.5003,35.1175,-0.6046,0.3226,-1.2706,50.4219
17:19:09:518,1.5387,-1.9459,13.2749,34.9715,-0.4136,0.6032,-1.0394,50.4219
17:19:09:538,0.8902,-1.5881,11.9012,35.0024,-0.0181,0.5195,-0.6622,50.4219
17:19:09:558,0.7135,-1.2639,9.8684,34.6854,0.2854,0.1563,-0.3934,50.4219
17:19:09:578,0.7697,-1.0233,8.3188,34.7092,0.3229,-0.0705,-0.2645,50.519
17:19:09:598,0.401,-0.6917,7.0479,34.4098,0.2715,0.0043,-0.1072,50.6202
17:19:09:619,0.1584,-0.3089,6.0684,34.42,0.1244,0.2396,0.0078,50.7205
17:19:09:638,0.2232,0.0528,5.3848,34.5112,0.0742,0.3231,0.1466,50.8162
17:19:09:658,0.7876,0.5942,5.0918,34.8828,0.0998,0.2529,0.2598,50.8162
17:19:09:678,1.2865,1.1051,5.0398,34.8457,0.117,0.0155,0.195,50.8162
17:19:09:698,1.0073,1.3537,5.3064,34.8363,0.0615,-0.3677,-0.0082,50.8162
17:19:09:721,0.4945,0.9563,6.2527,34.7552,-0.0774,-0.6715,-0.1012,50.8162
17:19:09:738,0.5562,0.4429,7.9566,34.9303,-0.192,-0.7658,0.0207,50.8162
17:19:09:758,1.0372,0.396,9.8829,34.6037,-0.1519,-0.8129,0.2005,50.8162
17:19:09:777,1.59,0.6667,11.4561,34.8288,-0.0635,-0.6402,0.2617,50.8162
17:19:09:798,1.9842,1.0451,12.1142,34.7443,0.1545,-0.1962,0.1125,50.8162
17:19:09:818,1.9225,1.198,11.3789,34.5917,0.2234,0.2422,-0.1653,50.8162
17:19:09:838,1.6164,1.2327,10.6642,34.4184,0.0982,0.4996,-0.439,50.8162
17:19:09:858,1.0098,1.3635,10.8897,34.4656,-0.065,0.5167,-0.6421,50.8162
17:19:09:878,0.1947,1.2279,11.5874,34.2868,-0.147,0.5232,-0.7516,50.9212
17:19:09:898,-0.4336,0.8884,12.2121,34.3029,-0.0829,0.6018,-0.6631,51.0488
17:19:09:918,-0.4492,0.6084,11.9096,34.2897,0.0312,0.9043,-0.5273,51.1941
17:19:09:938,-1.3676,0.3515,11.0756,34.5342,0.0338,0.7916,-0.432,51.3523
17:19:09:958,-1.9823,-0.4828,11.0836,34.4661,-0.1403,0.2485,-0.2708,51.5194
17:19:09:978,-2.3715,-1.9155,12.731,34.5638,-0.0332,-0.0789,-0.1134,51.6894
17:19:09:999,-2.1623,-3.5622,12.2991,34.5632,0.4176,-0.3685,0.1136,51.8559
17:19:10:018,-1.0564,-4.3828,10.9467,34.217,0.4621,-0.5079,0.5049,52.0095
17:19:10:038,-0.1691,-3.709,10.1928,34.3952,0.1537,-0.7873,1.028,52.1362
17:19:10:058,0.461,-2.2859,10.8886,34.4263,-0.1831,-0.6767,1.3561,52.1362
17:19:10:078,1.0237,-0.8442,11.0117,34.4906,-0.2465,-0.406,1.2874,52.1362
17:19:10:101,0.8278,0.3338,10.4677,34.6229,-0.132,-0.034,1.1326,52.1362
17:19:10:118,0.8014,0.8584,8.8743,34.5619,0.1334,0.1591,1.0206,52.1362
17:19:10:139,1.3617,0.0101,6.9464,34.441,0.2495,0.2364,1.0272,52.1362
17:19:10:158,0.732,1.3593,5.1614,34.4837,0.3008,0.3792,1.0716,52.0243
17:19:10:178,1.6133,1.3023,4.8025,34.6697,0.2043,0.3033,1.0336,51.8771
17:19:10:198,1.7918,1.3651,5.9882,34.6779,0.064,0.0697,0.4755,51.7029
17:19:10:218,1.0392,1.0066,7.1459,34.7811,0.1496,0.0562,0.0477,51.5215
17:19:10:238,0.2571,0.1316,7.7215,34.7183,0.1966,0.2609,-0.1095,51.3453
17:19:10:258,-0.7118,-0.1848,7.7279,34.7515,0.1834,0.4734,-0.0076,51.1777
17:19:10:278,-0.9499,-0.1879,8.1632,34.8274,0.0905,0.4783,0.3208,51.0125
17:19:10:299,-0.205,0.0178,9.5116,34.7808,0.0334,0.4055,0.5256,50.8388
17:19:10:318,0.2846,0.3397,10.1648,34.965,0.1388,0.4169,0.5189,50.652
17:19:10:338,0.3764,0.3272,10.0375,34.902,0.1488,0.1426,0.3845,50.4534
17:19:10:358,1.1301,-0.0032,9.6408,35.0055,-0.0362,0.0501,0.1896,50.2491
17:19:10:378,1.4792,-0.4187,9.3518,35.4213,-0.4042,0.1056,-0.0411,50.0469
17:19:10:398,1.5784,-0.5137,10.1513,35.5049,-0.799,0.0443,-0.2995,49.8551
17:19:10:418,1.7723,-1.1141,11.6137,35.652,-0.8908,-0.0892,-0.5041,49.6821
17:19:10:438,2.3366,-1.995,12.338,35.7578,-0.8069,0.1623,-0.6098,49.5338
17:19:10:457,2.1114,-1.7843,11.8969,35.7368,-0.6196,0.5738,-0.5507,49.4129
17:19:10:480,2.3291,-1.8811,11.3766,35.5311,-0.514,0.785,-0.6097,49.3129
17:19:10:498,2.2335,-2.3088,11.0256,35.3782,-0.4868,0.6277,-0.7873,49.3129
17:19:10:518,1.8262,-2.7086,12.7781,35.3299,-0.9017,-0.0217,-1.0931,49.3129
17:19:10:538,2.1825,-4.0279,15.5051,35.344,-0.8098,-0.796,-1.2689,49.3129
17:19:10:558,2.7952,-4.9674,16.7825,35.2293,-0.4747,-0.6791,-1.1652,49.3129
17:19:10:578,2.1,-4.529,14.683,35.3883,-0.0495,-0.1068,-0.9795,49.3129
17:19:10:598,0.1904,-3.4507,11.5253,35.488,-0.0007,0.3762,-0.6818,49.4213
17:19:10:618,-0.9523,-2.3171,9.1665,35.296,-0.0499,0.3095,-0.299,49.5469
17:19:10:638,-0.5748,-1.3735,7.9858,35.2499,0.0571,0.1857,-0.0432,49.6764
17:19:10:658,-0.3911,-1.0387,6.4342,35.1209,0.3367,0.1902,0.0541,49.802
17:19:10:679,0.0524,-0.274,4.4057,34.7955,0.3892,0.0376,0.0512,49.9215
17:19:10:698,0.4323,0.3694,3.7541,35.0166,0.1671,-0.2427,-0.2107,50.0379
17:19:10:718,-0.1282,0.5831,4.84,34.9288,-0.0352,-0.4366,-0.5089,50.1615
17:19:10:737,-0.7815,0.2428,6.557,34.9701,-0.0355,-0.3811,-0.5394,50.2999
17:19:10:758,-1.379,0.3064,7.5971,35.2224,0.1891,-0.26,-0.3642,50.4527
17:19:10:778,-1.3727,0.2401,7.6973,35.2145,0.3713,-0.1852,-0.1589,50.6097
17:19:10:798,-0.5746,0.2171,7.87,34.9994,0.3417,-0.1683,-0.0324,50.7655
17:19:10:818,0.3775,0.3281,8.6587,35.1751,0.2304,-0.307,-0.0541,50.9171
17:19:10:838,0.6838,0.5738,9.9638,35.2995,0.082,-0.3141,-0.2503,51.0674
17:19:10:860,0.3045,0.4788,11.4065,35.3626,0.0805,-0.1458,-0.4086,51.2238
17:19:10:878,-0.2574,0.1629,12.1898,35.6356,0.3376,0.247,-0.3637,51.3881
17:19:10:920,-0.6943,0.0101,11.1038,35.5948,0.6308,0.6624,-0.0936,51.5565
17:19:10:922,-0.5691,0.3181,9.6693,35.8753,0.5674,0.9976,0.2021,51.7191
17:19:10:938,-0.1083,0.6248,9.3178,35.892,0.4315,0.6695,0.2873,51.8685
17:19:10:958,0.0136,0.9192,9.8577,36.0993,0.2164,0.3413,0.1266,52.0042
17:19:10:978,-0.3151,0.0549,10.806,36.1742,-0.0045,0.3264,-0.0658,52.134
17:19:10:998,-1.0874,-0.5786,11.4971,36.3616,-0.1807,0.3079,-0.0501,52.2625
17:19:11:018,-1.5473,-1.419,12.6202,36.277,-0.332,0.0481,0.0355,52.3885
17:19:11:038,-1.9484,-2.4034,14.1812,36.0764,-0.257,-0.1915,0.2902,52.5077
17:19:11:059,-1.6283,-3.0537,14.344,35.6621,0.2571,-0.5305,0.6499,52.6081
17:19:11:079,-0.8152,-2.9809,12.5791,35.6797,0.6299,-0.6419,1.0104,52.6081
17:19:11:098,0.0917,-2.1419,10.5337,35.5986,0.5777,-0.4444,1.1426,52.6081
17:19:11:118,0.57,-1.1626,8.9614,35.8629,0.2158,-0.2173,0.9734,52.6081
17:19:11:137,0.5021,-0.4009,8.5633,35.6262,-0.1457,-0.0071,0.741,52.6081
17:19:11:158,0.2004,-0.0191,8.4833,35.6586,-0.2318,0.1695,0.6108,52.6081
17:19:11:178,-0.1718,0.3156,8.3105,35.3402,-0.0184,0.2247,0.6573,52.6081
17:19:11:198,0.1903,0.1988,7.7644,35.0289,0.2209,0.0378,0.6755,52.5068
17:19:11:218,0.4294,0.1834,7.5405,35.0081,0.246,-0.3054,0.6216,52.3855
17:19:11:239,0.2973,0.3046,8.4021,34.8078,0.2826,-0.6443,0.5853,52.2463
17:19:11:258,0.2596,0.1029,9.114,34.7252,0.5166,-0.6747,0.5448,52.0909
17:19:11:278,0.3687,-0.0115,8.9748,34.7336,0.7359,-0.362,0.5423,51.9203
17:19:11:298,0.6707,0.0092,8.4467,34.4955,0.7125,0.028,0.4552,51.7355
17:19:11:318,0.6603,0.0904,8.2921,34.3989,0.5176,0.2493,0.2553,51.5413
17:19:11:339,0.1285,-0.0441,8.593,34.2457,0.3572,0.2654,0.0876,51.3453
17:19:11:358,-0.5498,-0.2133,9.2491,34.1646,0.3692,0.2121,0.0951,51.1518
17:19:11:378,-0.591,-0.3537,9.193,34.051,0.3938,0.2746,0.1485,50.9596
17:19:11:398,-0.3505,-0.3629,8.7609,33.6571,0.0627,0.5498,0.0382,50.769
17:19:11:417,-0.0869,-1.0025,9.0417,33.1081,-0.7483,0.6638,-0.2846,50.5862
17:19:11:438,-0.4016,-1.9112,11.8251,33.0348,-1.3505,0.456,-0.5224,50.4223
17:19:11:458,-0.0799,-2.3279,14.9052,32.6873,-0.9241,0.1488,-0.4316,50.2802
17:19:11:478,0.7161,-2.4169,14.5801,32.6646,-0.0345,-0.0428,-0.4428,50.1557
17:19:11:498,0.5,-1.9974,12.2907,32.5833,0.0621,-0.0351,-0.6879,50.0518
17:19:11:518,-0.4954,-2.1294,12.0209,32.2148,-0.3244,0.2478,-0.9547,50.0518
17:19:11:539,-1.0634,-2.7157,12.2293,32.105,-0.2771,0.4203,-0.8238,50.0518
17:19:11:558,-0.7374,-2.8745,11.4743,32.3098,-0.0305,0.2598,-0.4204,50.0518
17:19:11:578,0.1468,-2.1476,10.5519,32.4482,0.2166,-0.2773,-0.0199,50.0518
17:19:11:598,0.5341,-1.1204,9.7124,32.4638,0.4102,-1.0477,0.1145,50.0518
17:19:11:618,0.801,0.0501,8.6107,32.5438,0.3536,-1.3593,0.0996,50.0518
17:19:11:638,1.4241,-0.3702,8.5867,32.3197,0.0765,-0.7854,-0.0198,50.0518
17:19:11:658,0.6333,0.6656,7.5505,31.9278,-0.0603,-0.0607,-0.2065,50.0518
17:19:11:678,0.7682,0.4869,6.7725,32.1175,-0.2531,0.8017,-0.1925,50.0518
17:19:11:698,0.4297,0.8258,6.2752,31.8226,-0.2133,1.0641,-0.1912,50.0518
17:19:11:719,0.1194,0.7244,5.9992,31.9054,-0.1399,0.9825,-0.1767,50.0518
17:19:11:738,-0.2542,0.6748,6.0189,31.9683,-0.0116,0.5395,-0.1186,50.0518
17:19:11:758,-0.3429,0.6407,6.5509,31.9821,0.0513,-0.2056,0.0181,50.0518
17:19:11:778,0.2433,0.727,8.0707,31.6141,0.1216,-0.7765,0.1681,50.0518
17:19:11:798,0.762,0.9393,9.2792,31.5695,0.3018,-0.961,0.2133,50.0518
17:19:11:820,1.0681,0.9479,9.9678,31.2663,0.438,-0.7925,0.1398,50.0518
17:19:11:838,1.116,0.8819,10.3102,31.351,0.424,-0.3509,0.0985,50.0518
17:19:11:858,1.356,0.9219,10.3968,31.1843,0.3089,0.1471,0.0719,50.0518
17:19:11:878,1.5856,1.1384,10.2029,31.1623,0.1754,0.4975,0.0167,50.0518
17:19:11:898,1.4318,1.3933,9.9939,30.9891,0.0078,0.5753,-0.0963,50.0518
17:19:11:919,0.9994,1.4687,10.3071,30.8546,-0.1191,0.3617,-0.2282,50.0518
17:19:11:938,0.3097,1.3155,11.0983,30.811,-0.1205,0.1018,-0.254,50.0518
17:19:11:958,0.0563,1.0062,11.8157,31.2112,-0.0224,-0.0596,-0.1683,50.0518
17:19:11:978,0.703,0.1982,12.1671,31.3031,0.0992,-0.1159,-0.0967,50.0518
17:19:11:999,1.8949,-0.1416,11.4687,31.4987,0.0055,0.2783,-0.047,50.0518
17:19:12:018,1.7406,-0.1553,11.0152,31.5909,-0.4625,0.6724,-0.3087,50.0518
17:19:12:038,-0.1746,-0.533,12.0391,31.631,-0.6684,0.332,-0.7395,50.0518
17:19:12:057,-1.8926,-1.4516,12.4316,31.4109,-0.3729,-0.1407,-0.6127,50.0518
17:19:12:078,-2.8848,-2.0317,12.4054,31.3844,-0.0079,-0.4225,-0.0924,50.0518
17:19:12:100,-2.6735,-1.7526,11.2836,31.3137,0.4441,-0.6347,0.6097,50.0518
17:19:12:118,-1.3444,-1.0266,10.1508,31.2922,0.546,-0.7018,1.1384,50.0518
17:19:12:138,0.2223,-0.1339,9.2431,31.0381,0.5705,-0.7998,1.1772,50.0518
17:19:12:158,0.8121,0.0998,7.9243,30.8811,0.4541,-0.6485,0.8315,50.0518
17:19:12:178,0.4965,0.0743,6.6123,30.9946,0.0736,-0.4447,0.3882,50.0518
17:19:12:200,0.0508,-0.23,6.3412,31.0265,-0.4453,0.0123,0.1812,50.0518
17:19:12:218,-0.2919,-0.1631,6.6405,30.9907,-0.714,0.3451,0.123,50.0518
17:19:12:238,-0.7057,-0.0291,7.2302,30.9999,-0.7604,0.2805,0.0905,50.0518
17:19:12:257,-0.7095,0.1489,8.5322,31.0714,-0.4703,-0.1012,0.092,50.0518
17:19:12:278,-0.7575,0.0615,9.0621,30.7206,0.2076,-0.4562,0.1383,50.0518
17:19:12:298,-0.793,0.0124,8.0512,30.7727,0.7114,-0.5104,0.2404,50.0518
17:19:12:318,-0.5667,0.146,6.9743,30.7316,0.6712,-0.3366,0.3605,49.9579
17:19:12:338,-0.2671,0.3241,6.9192,30.7185,0.2533,-0.0935,0.3553,49.8533
17:19:12:358,-0.0103,0.3578,8.1841,30.3334,-0.1287,0.1673,0.3086,49.7397
17:19:12:379,-0.1218,0.3019,9.5561,30.507,-0.152,0.2292,0.2831,49.6202
17:19:12:398,0.061,0.0941,10.2386,30.4015,0.0445,0.025,0.2905,49.4945
17:19:12:418,0.3118,-0.0317,10.3084,30.3319,0.1906,-0.1819,0.3083,49.3619
17:19:12:437,0.7408,0.0782,10.0178,30.2654,0.0968,-0.1503,0.2517,49.2225
17:19:12:458,1.0908,0.1101,10.0137,30.0862,-0.2414,0.0542,-0.013,49.0803
17:19:12:480,0.9182,-0.2451,10.872,29.8204,-0.6744,0.0869,-0.408,48.9477
17:19:12:498,1.4645,-1.3842,12.6757,29.526,-0.9803,0.1001,-0.7175,48.8384
17:19:12:518,1.6063,-2.0654,14.0441,29.2183,-0.9368,0.2962,-0.8292,48.8384
17:19:12:538,1.3048,-2.3475,14.2919,29.19,-0.6715,0.3769,-0.8898,48.8384
17:19:12:559,0.5884,-2.5258,13.6126,28.9181,-0.3841,0.2529,-0.99,48.8384
17:19:12:580,0.0797,-2.6873,12.9814,28.5816,-0.6022,0.4413,-0.9512,48.8384
17:19:12:598,-0.165,-3.0326,14.2528,28.5652,-0.6436,0.5747,-0.7461,48.8384
17:19:12:619,0.3427,-3.008,13.9961,28.4834,-0.1281,0.3906,-0.2976,48.8384
17:19:12:638,1.3539,-2.6828,12.4501,28.1245,0.2748,0.0829,0.1054,48.8384
17:19:12:658,1.7917,-1.8032,10.6999,28.1034,0.1649,-0.2398,0.096,48.8384
17:19:12:678,1.7446,-1.0278,9.8587,27.7063,-0.2783,-0.0828,-0.1535,48.8384
17:19:12:698,1.2486,-0.9131,9.2984,27.5365,-0.4362,0.2905,-0.3797,48.8384
17:19:12:718,0.3983,-0.5609,8.0262,27.114,-0.3048,0.6288,-0.3204,48.9369
17:19:12:738,0.0819,-0.2532,6.7026,26.8688,-0.0347,0.8376,-0.1192,49.0415
17:19:12:760,0.2109,0.1235,5.3004,26.6691,0.2656,0.8389,0.0817,49.1449
17:19:12:778,0.5163,0.355,4.1961,26.9139,0.349,0.6448,0.1537,49.2417
17:19:12:798,0.4472,0.6311,4.382,26.8295,0.2857,0.2124,0.074,49.2417
17:19:12:818,0.33,0.697,5.4124,26.5074,0.2755,-0.2593,-0.0442,49.2417
17:19:12:838,-0.2434,0.6846,6.9088,26.2146,0.3871,-0.677,-0.0784,49.3327
17:19:12:859,-0.2895,0.269,8.0476,25.8313,0.5841,-0.9094,0.0296,49.4228
17:19:12:878,0.5878,-0.1876,8.5323,25.7893,0.675,-0.6974,0.2447,49.4228
17:19:12:898,1.9302,-0.2353,8.5415,25.9276,0.4988,-0.2394,0.4246,49.4228
17:19:12:933,2.4937,0.0739,9.1285,26.0609,0.1007,0.0644,0.2902,49.4228
17:19:12:938,1.9313,0.5339,10.2812,25.9811,-0.1869,0.2461,0.006,49.4228
17:19:12:959,1.089,0.5401,11.5578,25.8621,-0.1348,0.2803,-0.196,49.4228
17:19:12:978,0.5055,0.3089,11.7015,25.6883,0.1267,0.3086,-0.1866,49.4228
17:19:12:998,0.7155,0.1865,11.0617,25.4025,0.1892,0.2917,-0.0982,49.4228
17:19:13:018,0.9915,0.4421,10.8919,25.0781,-0.0866,0.284,-0.2154,49.4228
17:19:13:037,0.3612,1.1664,11.3756,24.7261,-0.492,0.4602,-0.5089,49.4228
17:19:13:059,-0.5315,0.91,12.1589,24.5004,-0.8322,0.9029,-0.7995,49.524
17:19:13:078,-1.6416,0.2945,12.8134,24.3723,-0.8443,0.9665,-0.8318,49.6498
17:19:13:099,-2.6435,-0.8743,13.5047,24.0198,-0.2848,0.3367,-0.6539,49.798
17:19:13:117,-3.031,-2.169,12.5155,24.047,0.4089,-0.3672,-0.323,49.9614
17:19:13:139,-3.0799,-2.7008,11.3184,24.3383,0.615,-0.7675,0.1127,50.1278
17:19:13:161,-1.7131,-2.959,10.8971,24.246,0.4521,-0.8176,0.5459,50.2821
17:19:13:178,0.1653,-2.5948,10.5792,24.352,0.3366,-0.4731,0.8136,50.41
17:19:13:198,1.2169,-1.6094,9.2132,24.2842,0.2766,-0.073,0.6932,50.5063
17:19:13:218,0.9278,-1.0165,8.0538,23.967,0.0824,0.0532,0.2931,50.5063
17:19:13:240,-0.2692,-0.8228,7.4335,23.7533,-0.0492,-0.03,0.0346,50.5063
17:19:13:258,-1.224,-0.854,7.4024,23.9773,-0.063,-0.1614,0.1389,50.5063
17:19:13:278,-1.281,-0.8601,7.449,24.2021,0.1575,-0.3104,0.4893,50.5063
17:19:13:298,-0.6239,-0.6534,7.0311,24.2863,0.4694,-0.4669,0.8608,50.5063
17:19:13:318,0.234,-0.2073,6.434,24.5448,0.6424,-0.6363,0.9924,50.5063
17:19:13:339,0.608,0.2831,6.1996,24.7636,0.631,-0.6465,0.86,50.5063
17:19:13:358,0.8918,0.5032,6.3602,24.971,0.5229,-0.4356,0.6392,50.5063
17:19:13:378,1.1438,0.5224,6.5927,24.9465,0.4597,-0.0111,0.411,50.5063
17:19:13:398,1.4815,0.2225,6.4146,25.3159,0.3441,0.351,0.1155,50.4155
17:19:13:417,1.1145,0.2596,6.7749,25.1996,-0.0061,0.3508,-0.1781,50.4155
17:19:13:438,0.2638,0.0941,8.8453,25.4525,-0.4316,-0.1208,-0.4601,50.4155
17:19:13:458,-0.7577,-0.4258,11.7688,25.6897,-0.4717,-0.3615,-0.5685,50.4155
17:19:13:478,-0.8139,-1.1208,13.1789,25.6954,-0.1496,-0.1691,-0.4864,50.4155
17:19:13:498,-0.3705,-1.6232,12.3091,25.879,-0.0326,0.1867,-0.4254,50.4155
17:19:13:517,-0.1534,-1.637,11.4408,25.8752,-0.3643,0.4225,-0.4707,50.4155
17:19:13:538,-0.3731,-1.5178,11.7954,25.6553,-0.764,0.5404,-0.5599,50.4155
17:19:13:558,-0.0991,-2.1771,12.8299,25.4545,-0.9137,0.5146,-0.6069,50.4155
17:19:13:578,0.3466,-2.7994,13.3164,25.4915,-0.7876,0.3944,-0.4992,50.4155
17:19:13:598,0.3157,-2.7386,13.5594,25.3825,-0.6588,0.0805,-0.3155,50.4155
17:19:13:620,0.3724,-2.633,14.0049,25.3652,-0.4828,-0.097,-0.1596,50.4155
17:19:13:638,0.4825,-2.4878,13.721,25.6399,-0.1607,-0.2042,-0.0061,50.4155
17:19:13:658,1.2179,-2.25,12.7547,25.575,0.11,-0.324,0.1801,50.4155
17:19:13:678,1.8703,-1.9129,11.5933,25.5596,0.2822,-0.3835,0.2652,50.4155
17:19:13:698,2.1264,-1.1182,10.076,25.8174,0.1926,-0.3499,0.1841,50.4155
17:19:13:720,2.0892,0.0325,8.8471,25.6394,-0.1967,0.029,-0.0814,50.4155
17:19:13:738,0.9534,0.0779,8.83,25.9154,-0.54,0.5114,-0.4558,50.4155
17:19:13:758,-0.3301,0.1239,8.1272,26.0659,-0.352,0.649,-0.5201,50.4155
17:19:13:778,-1.1822,-0.0114,6.7373,26.5095,-0.0881,0.5883,-0.3467,50.5107
17:19:13:798,-1.6699,-0.006,5.8181,27.0852,0.1507,0.3231,-0.0396,50.6125
17:19:13:819,-1.2446,0.2696,5.3249,27.3037,0.3278,-0.0425,0.2469,50.7101
17:19:13:838,-0.1578,0.5852,5.4317,27.3796,0.4011,-0.4614,0.3523,50.7101
17:19:13:858,0.3137,0.7581,6.065,27.4367,0.1836,-0.8174,0.1983,50.7101
17:19:13:878,0.2389,0.4201,7.8672,27.4423,-0.1122,-0.8519,-0.0063,50.7101
17:19:13:898,0.1389,-0.1657,9.7448,27.4452,-0.1348,-0.5404,-0.0345,50.7101
17:19:13:918,0.3799,-0.5834,10.3157,27.4665,0.1078,-0.1165,0.0881,50.7101
17:19:13:938,1.1018,-0.6687,9.8485,27.6339,0.2469,0.0828,0.233,50.7101
17:19:13:957,1.6366,-0.3485,9.4295,27.904,0.1732,0.0023,0.1976,50.7101
17:19:13:978,1.5049,-0.139,9.6141,27.969,-0.0387,-0.1642,0.0625,50.7101
17:19:14:000,1.1051,-0.1732,10.7411,28.1064,-0.145,-0.3096,-0.0554,50.7101
17:19:14:018,0.8839,-0.2576,11.84,28.3064,-0.0245,-0.218,-0.0347,50.7101
17:19:14:038,0.9721,-0.2312,12.053,28.1998,0.1376,0.069,0.0108,50.7101
17:19:14:058,1.0346,-0.0716,11.6874,28.2351,0.1016,0.4374,-0.0281,50.7101
17:19:14:078,0.2867,0.2903,11.5367,28.0289,-0.0807,0.744,-0.1323,50.7101
17:19:14:100,-0.2804,0.6691,11.7557,28.1261,-0.183,0.9622,-0.1499,50.7101
17:19:14:118,-0.7148,0.3571,11.7259,28.1728,-0.1208,0.8959,-0.0647,50.7101
17:19:14:138,-1.0707,-0.0402,11.9437,28.1926,0.0698,0.3338,0.1555,50.7101
17:19:14:158,-1.2343,-0.9633,11.4904,28.3114,0.3079,-0.3677,0.2744,50.7101
17:19:14:178,-1.8898,-1.4709,11.6856,28.4259,0.3181,-0.753,0.3961,50.7101
17:19:14:198,-2.128,-1.9403,11.8512,28.4635,0.3277,-1.0409,0.5737,50.7101
17:19:14:218,-1.3396,-2.4226,12.1131,28.7762,0.3713,-0.7439,0.8589,50.7101
17:19:14:238,-0.0991,-2.3377,10.7254,29.0038,0.5186,-0.3653,1.064,50.7101
17:19:14:258,1.0904,-1.902,9.0366,29.1725,0.4416,0.0977,1.0043,50.7101
17:19:14:278,0.8954,-1.3469,7.47,29.6006,0.2527,0.238,0.6821,50.6175
17:19:14:298,-0.0638,-1.0484,6.7813,29.6256,-0.0334,0.2543,0.4958,50.5064
17:19:14:318,-0.9152,-0.7782,7.023,29.8261,-0.0347,0.0948,0.5803,50.3813
17:19:14:338,-0.7198,-0.7071,6.9114,30.0856,0.2107,-0.1822,0.7761,50.2381
17:19:14:358,0.0119,-0.5377,6.4512,30.1566,0.404,-0.3375,0.9118,50.0704
17:19:14:378,0.4821,-0.0793,6.2747,30.2509,0.4183,-0.3554,0.8562,49.8756
17:19:14:398,0.6596,0.3799,6.6627,30.427,0.3838,-0.2355,0.6244,49.6583
17:19:14:418,0.3304,0.4707,6.8915,30.6658,0.3656,-0.0086,0.3462,49.4281
17:19:14:437,-0.1913,0.4298,6.8694,30.7349,0.2654,0.2603,0.2155,49.1941
17:19:14:458,-0.1667,0.3494,6.9933,30.8884,0.1106,0.4607,0.2143,48.9597
17:19:14:479,0.0433,0.3348,7.4763,30.7237,-0.1103,0.435,0.1996,48.7251
17:19:14:498,0.3317,0.2206,8.824,30.9355,-0.3004,0.0953,0.1134,48.4913
17:19:14:518,0.1831,-0.1136,10.8366,31.1168,-0.3377,-0.3589,0.0203,48.2615
17:19:14:538,0.1226,-0.5454,12.7173,31.1214,-0.1406,-0.6318,0.0642,48.038
17:19:14:558,0.8924,-0.9859,13.2071,31.1387,0.1001,-0.5178,0.172,47.818
17:19:14:579,1.6056,-1.0501,12.6523,30.9819,0.0596,-0.2291,0.148,47.5985
17:19:14:598,2.4826,-1.055,12.5806,30.6085,-0.2158,0.0284,-0.0455,47.3823
17:19:14:618,3.3132,-1.468,12.8481,30.7219,-0.4133,0.1504,-0.3037,47.1772
17:19:14:638,3.0825,-1.5606,12.9658,30.63,-0.6016,0.126,-0.6416,46.9925
17:19:14:658,1.6684,-1.7615,13.9253,30.8612,-0.6035,0.0541,-0.9617,46.84
17:19:14:679,0.8864,-2.2116,13.8012,30.8113,-0.2729,0.0941,-0.9336,46.7265
17:19:14:698,0.6023,-2.3105,12.8415,31.2253,0.1664,0.0554,-0.716,46.7265
17:19:14:718,1.1813,-2.1715,10.9927,30.9941,0.2724,0.1352,-0.5158,46.7265
17:19:14:738,1.2576,-1.4333,9.7998,31.039,0.1508,0.2064,-0.5042,46.7265
17:19:14:760,1.014,-1.1313,9.1148,30.9557,-0.1003,0.3633,-0.6337,46.7265
17:19:14:778,0.3682,-0.8394,8.4952,30.8566,-0.1809,0.4961,-0.7559,46.7265
17:19:14:799,-0.4125,-0.6517,7.6567,30.6384,-0.2382,0.6596,-0.7121,46.7265
17:19:14:818,-1.0146,-0.3552,6.9033,30.9261,-0.2118,0.7234,-0.5764,46.7265
17:19:14:838,-1.2836,-0.1253,6.1722,30.9088,-0.1649,0.7023,-0.3836,46.7265
17:19:14:860,-1.1367,0.2228,5.5487,30.7491,-0.1615,0.5683,-0.203,46.7265
17:19:14:878,-0.6177,0.5791,5.654,30.833,-0.227,0.3095,-0.1243,46.7265
17:19:14:899,-0.2864,0.9481,6.7795,30.3938,-0.1685,0.0611,-0.147,46.8172
17:19:14:918,-0.2487,1.0291,7.4804,29.9515,0.0683,0.001,-0.1995,46.9104
17:19:14:955,-0.4566,0.9233,7.4818,29.6481,0.201,0.0201,-0.2081,47.0079
17:19:14:960,-0.4946,0.6677,7.3265,29.4741,0.1842,0.0879,-0.106,47.1091
17:19:14:978,-0.0725,0.5613,7.5962,29.5084,0.0351,0.0571,0.034,47.21
17:19:14:998,0.4198,0.7499,8.6465,29.7355,-0.1568,-0.1481,0.0913,47.306
17:19:15:018,0.306,1.0045,10.4089,29.5214,-0.2786,-0.4569,0.0424,47.3964
17:19:15:038,0.0802,0.9986,12.8827,29.5889,-0.0679,-0.5983,0.0645,47.3964
17:19:15:059,0.5417,0.7359,13.5289,29.5257,0.4654,-0.3406,0.218,47.3964
17:19:15:078,1.0676,0.7828,11.8532,29.3301,0.6893,0.0893,0.3178,47.3964
17:19:15:098,1.6641,0.9692,10.6801,29.0006,0.3668,0.2986,0.1574,47.3964
17:19:15:118,1.4341,1.108,10.8437,28.8781,-0.0476,0.4168,-0.0948,47.3964
17:19:15:138,1.2054,0.936,11.7296,28.6071,-0.2437,0.5368,-0.1888,47.3964
17:19:15:158,1.4424,0.6405,11.94,28.4067,-0.1577,0.3263,-0.1576,47.3964
17:19:15:178,1.3999,-0.1281,12.2139,28.3922,0.1543,-0.0454,-0.2369,47.3964
17:19:15:198,0.4106,-0.9883,10.6992,28.3426,0.9834,-0.7075,-0.3264,47.3964
17:19:15:217,0.7998,-2.1329,7.9801,27.9141,0.7002,-0.36,-0.3613,47.4932
17:19:15:240,-0.4483,-2.288,7.6489,27.6542,-0.4506,-0.1793,-0.5942,47.6027
17:19:15:258,-1.5644,-2.821,11.4575,27.601,-1.5562,-0.0254,-0.5769,47.7332
17:19:15:278,-2.1283,-2.9464,14.9789,27.4933,-1.227,-0.2558,-0.3296,47.8763
17:19:15:298,-1.9331,-2.8145,15.0434,27.3526,-0.2465,-0.3815,0.0748,48.022
17:19:15:318,-2.0854,-1.5658,12.5419,27.2698,0.6652,-0.4489,0.2697,48.1575
17:19:15:339,-2.0729,-0.9044,9.4633,27.2896,1.0631,-0.2533,0.3528,48.2777
17:19:15:358,-1.8374,-0.5012,7.1243,27.3582,1.2681,0.0696,0.4271,48.3797
17:19:15:378,-0.8899,-0.3889,4.6987,27.4413,1.275,0.4149,0.4288,48.3797
17:19:15:398,-0.1936,-0.3656,2.729,27.4201,0.7118,0.5915,0.2636,48.3797
17:19:15:418,-0.0815,-0.1962,3.151,27.6915,-0.1947,0.2446,0.0487,48.3797
17:19:15:438,-0.6979,-0.0237,6.5502,27.9108,-0.6044,-0.5149,-0.097,48.3797
17:19:15:458,-1.0413,-0.5798,9.2467,28.3255,-0.3318,-1.1448,-0.0491,48.3797
17:19:15:478,-1.0213,-0.7915,10.463,28.5281,0.063,-1.1055,0.2411,48.3797
17:19:15:498,0.0853,-0.7897,10.373,28.8221,0.3992,-0.3851,0.6048,48.3797
17:19:15:519,1.3513,-0.4208,8.9245,28.8039,0.4388,0.3126,0.6629,48.3797
17:19:15:538,1.7053,0.1226,7.7869,29.1436,0.026,0.5227,0.3005,48.3797
17:19:15:558,0.7734,0.4681,8.3966,29.3666,-0.4535,0.2754,-0.2142,48.3797
17:19:15:578,-0.1617,-0.0718,10.2451,29.6641,-0.6574,-0.0223,-0.5439,48.3797
17:19:15:598,-1.1277,-0.6417,11.5824,29.7122,-0.6283,0.019,-0.5252,48.3797
17:19:15:620,-1.6591,-1.0951,12.1049,29.8374,-0.594,0.0869,-0.3129,48.3797
17:19:15:638,-0.7756,-1.9136,12.4692,29.9283,-0.6594,-0.0173,-0.0358,48.3797
17:19:15:658,0.5264,-2.0526,13.0652,29.8947,-0.6254,-0.2559,0.1968,48.3797
17:19:15:677,1.1745,-1.6279,13.0997,30.045,-0.3102,-0.542,0.2244,48.3797
17:19:15:698,1.4759,-1.4119,12.2475,30.1676,-0.0959,-0.5184,0.0572,48.3797
17:19:15:719,1.8277,-1.6141,11.1538,30.4597,-0.1623,-0.1257,-0.1165,48.3797
17:19:15:738,1.8483,-2.1475,10.7098,30.549,-0.6075,0.1878,-0.3022,48.3797
17:19:15:758,1.8226,-2.494,12.0184,30.6565,-0.898,0.1333,-0.3412,48.3797
17:19:15:778,1.5808,-2.4482,12.6009,30.5406,-0.8096,-0.0225,-0.2443,48.3797
17:19:15:798,1.3762,-2.0374,11.7096,30.4331,-0.53,-0.2228,-0.1326,48.471
17:19:15:818,1.6261,-1.1124,10.0093,30.0893,-0.509,-0.1065,-0.1808,48.5649
17:19:15:838,1.4253,-0.618,8.5766,30.2748,-0.5735,0.1371,-0.3656,48.6648
17:19:15:858,0.9174,-0.3968,7.9353,30.4163,-0.5811,0.4091,-0.511,48.7769
17:19:15:878,0.4078,-0.164,6.7924,30.4776,-0.4242,0.4191,-0.5245,48.9049
17:19:15:899,0.4166,0.2064,5.8809,30.3837,-0.3904,0.3522,-0.3965,49.0471
17:19:15:921,0.8002,0.6178,5.4186,30.415,-0.4216,0.2298,-0.2991,49.1987
17:19:15:938,1.0245,0.797,5.8519,30.4732,-0.4222,0.0799,-0.2833,49.357
17:19:15:958,1.1158,0.6839,7.3622,30.326,-0.2053,-0.1576,-0.4016,49.5221
17:19:15:977,0.6858,0.0516,8.693,30.3744,0.1823,-0.6597,-0.6344,49.6993
17:19:16:001,0.1626,-1.1928,9.4446,30.6213,0.3484,-0.9015,-0.72,49.8945
17:19:16:018,-0.6231,-1.9164,10.3077,30.6175,0.2793,-0.5638,-0.436,50.1053
17:19:16:038,-0.7609,-1.9354,10.928,30.8085,0.1896,-0.0482,-0.0017,50.319
17:19:16:058,-0.3407,-1.5248,11.1249,31.0922,0.1869,0.2438,0.2979,50.522
17:19:16:078,0.4467,-1.2413,11.0768,31.3435,0.2058,0.3256,0.3894,50.7065
17:19:16:100,0.6113,-0.9927,11.0314,31.4417,0.2099,0.3075,0.3291,50.8717
17:19:16:118,-0.0476,-0.8955,11.5814,31.4829,0.3031,0.1038,0.2827,51.0209
17:19:16:138,-0.098,-1.0727,11.5199,31.5747,0.4393,-0.0916,0.4228,51.1543
17:19:16:158,0.2557,-0.8232,11.5267,31.7936,0.4276,-0.0178,0.6425,51.2655
17:19:16:177,0.8956,-0.1979,11.1932,31.8948,0.3281,0.3386,0.6386,51.2655
17:19:16:199,0.9725,0.0684,10.8589,32.0572,0.101,0.7129,0.336,51.2655
17:19:16:218,0.2626,-0.6522,11.0933,32.1622,0.0218,0.6355,0.1634,51.2655
17:19:16:238,-0.4517,-1.6546,11.3091,32.4699,0.0225,0.3029,0.2126,51.2655
17:19:16:258,-0.7572,-2.2663,11.469,33.1268,0.2388,-0.3493,0.3816,51.2655
17:19:16:278,-0.6221,-2.5178,10.9806,33.5339,0.3653,-0.8622,0.5146,51.2655
17:19:16:299,0.1444,-2.7486,10.6552,34.1624,0.265,-0.979,0.5284,51.2655
17:19:16:318,0.7823,-2.7574,10.1827,34.5906,0.039,-0.6199,0.4109,51.2655
17:19:16:338,0.4558,-2.1741,9.6135,34.6269,-0.2134,-0.1495,0.3034,51.2655
17:19:16:357,-0.2288,-1.5089,9.1795,34.956,-0.2904,0.0616,0.2784,51.2655
17:19:16:379,-0.6778,-0.9367,8.825,35.0808,-0.1293,0.0277,0.4271,51.2655
17:19:16:398,-0.5339,-0.5413,8.6297,35.5183,0.1607,-0.1995,0.6262,51.2655
17:19:16:418,-0.1604,-0.3195,8.4378,35.5973,0.4558,-0.4288,0.759,51.2655
17:19:16:438,0.1681,-0.1521,8.0932,35.9301,0.7168,-0.5012,0.8194,51.1527
17:19:16:457,0.5784,-0.0969,7.4711,36.1278,0.8744,-0.421,0.7648,51.0123
17:19:16:479,0.7729,-0.1583,6.9903,36.2604,0.7879,-0.3097,0.5622,50.8482
17:19:16:498,0.6787,-0.24,7.2374,36.5304,0.5583,-0.1179,0.3361,50.6691
17:19:16:518,0.3576,-0.4058,8.2131,36.8873,0.3819,0.0044,0.1733,50.4836
17:19:16:538,0.1769,-0.5511,9.3145,36.9224,0.3918,0.1167,0.174,50.2966
17:19:16:558,0.6714,-0.9651,9.7229,37.4319,0.4786,0.0781,0.2009,50.1071
17:19:16:578,1.3537,-1.3386,9.8804,37.4909,0.4512,-0.0726,0.1444,49.915
17:19:16:598,1.717,-1.5529,10.1342,37.8433,0.3333,-0.1002,0.0085,49.7231
17:19:16:618,1.7307,-1.7253,10.3812,38.1226,0.1441,0.0544,-0.182,49.5374
17:19:16:638,1.2774,-2.0157,10.4328,38.3669,-0.065,0.2501,-0.3404,49.365
17:19:16:657,0.7534,-2.2023,10.8365,38.4106,-0.2174,0.2553,-0.3346,49.2115
17:19:16:680,1.4945,-2.8238,11.5099,38.7883,-0.1981,0.0696,-0.2384,49.0728
17:19:16:698,2.5568,-2.8194,11.1214,38.7015,-0.0521,0.0816,-0.1901,48.9459
17:19:16:718,3.0569,-2.5763,10.4071,38.5488,-0.1394,-0.0012,-0.4954,48.8315
17:19:16:738,2.5452,-2.6332,10.1775,38.6287,-0.5328,0.0406,-0.9916,48.8315
17:19:16:758,1.342,-3.0358,10.902,38.5067,-1.0053,0.279,-1.3234,48.8315
17:19:16:778,0.3017,-3.6131,12.4602,38.4087,-1.1723,0.3912,-1.1964,48.8315
17:19:16:798,-0.0068,-3.3938,13.0322,38.6714,-0.819,0.2549,-0.731,48.8315
17:19:16:818,0.279,-2.4167,11.8369,38.7063,-0.3385,0.0395,-0.2095,48.8315
17:19:16:838,0.7077,-0.9234,9.8941,38.4477,-0.1289,-0.1361,-0.0129,48.8315
17:19:16:861,1.1806,-0.2874,8.5438,38.5465,-0.1598,-0.1599,-0.1187,48.8315
17:19:16:879,0.8286,-0.0117,8.1164,38.5033,-0.2431,0.0449,-0.2914,48.8315
17:19:16:898,0.2549,0.06,7.9663,38.6099,-0.2152,0.4112,-0.2335,48.8315
17:19:16:918,-0.1387,0.3051,7.5768,38.9861,-0.076,0.6223,-0.0397,48.9242
17:19:16:937,-0.1053,0.6319,7.0658,39.2114,0.1395,0.5935,0.1215,48.9242
17:19:16:969,0.2284,0.7239,6.5344,39.2297,0.2996,0.431,0.1666,48.9242
17:19:16:978,0.4155,0.8436,6.4355,39.3568,0.3686,0.2373,0.1075,48.9242
17:19:16:998,0.3773,0.6708,6.7372,39.338,0.3026,-0.0918,-0.0491,48.9242
17:19:17:018,0.3728,0.1815,7.8534,39.2944,0.1157,-0.3227,-0.1163,48.9242
17:19:17:037,0.1606,-0.0072,9.6333,39.2329,0.0479,-0.3002,-0.0005,48.9242
17:19:17:057,0.3776,-0.0898,10.6621,39.7729,0.1481,-0.1414,0.1665,48.9242
17:19:17:078,0.8232,0.0678,10.9308,39.7504,0.234,0.0975,0.2648,48.9242
17:19:17:098,1.1017,0.3098,10.6656,39.709,0.2255,0.3531,0.2327,48.9242
17:19:17:118,0.9052,0.5566,10.2264,40.1063,0.1466,0.4796,0.1274,48.9242
17:19:17:139,0.4914,0.6344,10.1479,40.3575,0.0074,0.4468,0.0588,48.9242
17:19:17:158,0.1037,0.4663,10.7161,40.6347,-0.1007,0.2953,0.0592,48.9242
17:19:17:179,0.0941,-0.0068,11.771,41.0762,-0.1246,0.1504,0.1563,48.9242
17:19:17:198,0.4442,-0.0708,13.197,41.4322,0.0107,0.1872,0.2308,48.9242
17:19:17:218,0.5352,-0.0619,13.2174,41.7512,0.3253,0.3412,0.2044,48.9242
17:19:17:240,0.3358,-0.1368,12.2876,42.0501,0.3204,0.4694,0.0949,48.9242
17:19:17:258,-0.1541,-0.6421,11.9706,42.3677,0.2423,0.3182,0.0478,48.9242
17:19:17:278,-0.4179,-1.1597,12.1612,42.9384,0.103,0.3523,0.1693,48.9242
17:19:17:298,-0.6608,-1.1968,11.9068,43.1429,0.3132,0.0956,0.3141,48.9242
17:19:17:318,-0.4621,-1.2285,10.8643,43.3768,0.3099,-0.1197,0.4207,48.9242
17:19:17:339,-0.2837,-1.0516,10.489,43.6732,0.2067,-0.3802,0.3718,48.9242
17:19:17:358,-0.0931,-0.934,10.1171,43.7968,0.0871,-0.3344,0.3561,48.9242
17:19:17:378,-0.1373,-0.3883,9.3386,44.1313,0.0082,0.0247,0.2898,48.9242
17:19:17:398,-0.5498,0.0676,8.1212,44.539,-0.0535,0.3454,0.1682,48.9242
17:19:17:418,-1.1658,0.2303,7.512,45.1306,-0.1105,0.3907,0.1214,48.9242
17:19:17:438,-1.5749,0.0899,7.5086,45.6076,-0.0067,0.0805,0.1527,48.9242
17:19:17:458,-1.6907,-0.0446,7.5245,46.1378,0.2154,-0.2707,0.3169,48.9242
17:19:17:478,-1.529,-0.0694,7.4643,46.3808,0.4892,-0.4906,0.4868,48.9242
17:19:17:498,-1.1385,-0.0152,7.419,46.6578,0.7216,-0.5958,0.5937,48.833
17:19:17:518,-0.2828,-0.029,7.3648,46.9918,0.8613,-0.4667,0.6138,48.7232
