Time,Acc_X,Acc_Y,Acc_Z,Meg,Gyr_X,Gyr_Y,Gyr_Z,Ore
16:48:25:440,0.1069,2.0806,8.4818,63.0535,-0.4596,0.894,1.0094,56.6284
16:48:25:457,0.2247,1.9357,8.7602,62.7863,-0.2663,0.4976,1.0897,56.6284
16:48:25:478,0.3806,2.064,8.8916,62.6396,0.0029,-0.1321,1.1661,56.6284
16:48:25:498,0.9745,2.3847,9.1617,62.5236,0.1912,-0.5199,1.287,56.5103
16:48:25:518,1.7607,2.5799,9.2721,62.5032,0.278,-0.3825,1.361,56.3503
16:48:25:537,2.315,2.8169,9.044,62.812,0.2806,-0.0401,1.3961,56.1481
16:48:25:557,2.636,3.2601,9.0799,62.8978,0.1775,0.221,1.3108,55.9048
16:48:25:577,2.5128,3.5006,9.4118,62.866,0.025,0.4605,1.1211,55.6266
16:48:25:598,2.1353,3.5556,9.831,62.6541,-0.0798,0.5844,0.9446,55.321
16:48:25:618,1.5335,3.3854,10.2044,62.3098,-0.0983,0.5489,0.7886,54.9941
16:48:25:637,0.9263,3.2656,10.4065,62.1277,-0.0343,0.4631,0.7492,54.6507
16:48:25:658,0.3523,3.3077,10.1738,61.7975,0.055,0.4461,0.7917,54.2884
16:48:25:678,-0.2298,3.337,9.403,61.9255,0.0334,0.252,0.8417,53.9115
16:48:25:698,-0.6787,2.716,9.3216,62.1133,-0.2487,-0.3778,0.8654,53.5152
16:48:25:718,-0.5565,1.9873,10.959,62.2335,-0.4902,-0.7719,0.9132,53.1013
16:48:25:738,-0.3963,1.5766,11.9311,62.2795,-0.2161,-0.3561,0.8855,52.672
16:48:25:759,-1.1327,1.8735,10.7562,62.3405,0.1965,0.0126,1.009,52.2258
16:48:25:777,-1.2373,2.4365,9.2594,62.0726,0.1898,-0.1177,1.0604,51.756
16:48:25:798,-0.6821,2.6452,8.8973,61.9207,-0.1326,-0.4891,0.9468,51.2637
16:48:25:817,0.2179,2.3258,9.5069,61.6001,-0.4069,-0.5276,0.7369,50.7574
16:48:25:837,0.594,1.976,9.7399,61.4316,-0.5462,-0.277,0.6013,50.2468
16:48:25:858,0.9512,1.9635,9.9244,61.2696,-0.6067,-0.0206,0.514,49.7345
16:48:25:878,1.1461,1.8859,9.761,61.1626,-0.4738,0.3008,0.3338,49.2276
16:48:25:898,0.7819,1.8678,8.8885,61.1754,-0.2278,0.5486,0.1663,48.7287
16:48:25:917,0.0855,2.0314,7.7021,61.4687,-0.0366,0.5932,0.0832,48.2406
16:48:25:941,-0.4401,2.3428,7.0312,61.0692,0.0254,0.3815,0.1006,47.7636
16:48:25:958,-0.6205,2.5749,6.8845,60.8991,0.0099,0.0905,0.1984,47.2958
16:48:25:977,-0.1928,2.7139,7.2717,60.6834,-0.0197,-0.1576,0.3667,46.8331
16:48:25:998,0.5211,3.0425,8.0734,60.5261,-0.0487,-0.2461,0.4588,46.3707
16:48:26:017,1.2199,3.181,8.8954,60.4365,-0.047,-0.0782,0.4004,45.9074
16:48:26:040,1.4619,3.2886,9.2887,60.2451,-0.0797,0.201,0.2314,45.4469
16:48:26:057,1.2422,3.266,9.6049,60.1946,-0.2056,0.3956,0.0684,44.9951
16:48:26:078,0.8439,3.0468,10.1411,60.2258,-0.2755,0.4903,-0.0315,44.5569
16:48:26:098,0.4145,2.8295,10.5734,59.8761,-0.1956,0.4535,-0.0417,44.1341
16:48:26:117,0.1099,2.6825,10.6157,59.967,-0.0455,0.2926,0.0163,43.7248
16:48:26:139,0.1384,2.4935,10.7541,59.8464,0.0219,0.0394,0.0756,43.3258
16:48:26:157,0.2426,2.2893,11.3696,59.8207,0.0191,-0.1838,0.1034,42.9352
16:48:26:178,0.3881,1.9736,11.8618,59.5713,0.085,-0.2027,0.1427,42.5521
16:48:26:198,0.5515,1.9086,11.6217,59.3799,0.2185,-0.0831,0.2083,42.1746
16:48:26:217,1.1542,2.0308,10.8408,58.9469,0.2288,-0.0332,0.1747,41.8003
16:48:26:239,1.8087,1.9088,10.1779,58.6033,-0.1174,-0.2011,-0.1247,41.4324
16:48:26:258,1.7894,1.039,10.6762,58.3878,-0.8496,-0.3175,-0.5577,41.086
16:48:26:278,1.0544,0.1442,12.5341,58.1761,-1.2861,0.069,-0.7718,40.7779
16:48:26:298,0.3286,-0.6941,13.3337,57.9626,-0.9649,0.6843,-0.8388,40.5125
16:48:26:317,-0.4735,-0.5141,11.8637,58.1035,-0.3356,0.8096,-0.6004,40.2844
16:48:26:339,-0.897,-0.6977,9.8739,57.9619,0.1941,0.749,-0.3221,40.0808
16:48:26:358,-0.8604,0.1417,8.6524,58.0349,0.3822,0.3238,-0.0564,39.89
16:48:26:378,-0.0913,0.5968,8.3643,57.8446,0.3074,-0.1619,-0.0321,39.704
16:48:26:398,0.4601,0.5267,8.2924,57.7503,0.2144,-0.186,-0.1225,39.5248
16:48:26:417,0.5538,0.73,8.0916,57.4476,-0.0301,-0.0317,-0.157,39.3558
16:48:26:438,0.3551,0.9758,8.4162,56.8832,-0.3502,0.2351,-0.2442,39.1995
16:48:26:458,-0.1427,0.8775,9.1791,56.4863,-0.492,0.4657,-0.325,39.0593
16:48:26:478,-0.8243,0.516,9.5708,56.0526,-0.3552,0.5569,-0.279,38.9352
16:48:26:498,-1.1261,0.3656,9.2763,55.588,-0.0337,0.4766,-0.09,38.8227
16:48:26:520,-1.0448,0.4911,8.5253,55.436,0.2701,0.3095,0.0954,38.7138
16:48:26:538,-0.8423,0.9353,7.6704,55.1499,0.3746,0.1023,0.2507,38.6024
16:48:26:558,-0.3179,1.4415,7.3192,55.1999,0.302,-0.0023,0.3598,38.4828
16:48:26:578,0.2611,1.6279,7.3181,55.1282,0.1862,0.0059,0.3463,38.3553
16:48:26:598,0.2681,1.4389,7.1893,54.814,0.1146,-0.0562,0.3456,38.2197
16:48:26:619,0.4217,1.5674,7.1107,54.3791,0.0127,-0.3044,0.4823,38.0747
16:48:26:638,1.5299,2.3428,7.9426,54.1747,-0.2531,-0.4712,0.4147,37.9173
16:48:26:658,2.0014,2.6166,9.4752,53.8672,-0.4936,-0.1695,0.0184,37.7546
16:48:26:678,1.4786,1.6586,10.8587,53.6406,-0.4625,0.4434,-0.214,37.6011
16:48:26:698,0.5742,1.4736,11.3714,53.6162,-0.1422,0.8816,-0.1743,37.4607
16:48:26:718,0.0286,1.891,11.0299,53.6012,0.141,0.7631,0.0428,37.3279
16:48:26:738,0.4194,1.7801,10.4103,53.8269,0.1712,0.3014,0.1321,37.1953
16:48:26:758,0.616,1.2714,10.2699,53.5131,0.0009,-0.1844,0.0241,37.0618
16:48:26:778,0.2819,0.467,10.9716,53.1683,-0.1318,-0.2709,-0.0907,36.9325
16:48:26:798,0.0819,-0.0708,11.3082,52.8406,-0.012,0.3088,-0.3095,36.8126
16:48:26:818,-0.8775,0.8672,10.527,52.4945,0.0988,0.8114,-0.4632,36.7095
16:48:26:838,-1.6645,1.7156,9.7613,52.2484,-0.13,0.7085,-0.4174,36.7095
16:48:26:858,-1.5759,2.0167,10.2752,52.1207,-0.3621,0.4619,-0.4,36.7095
16:48:26:878,-2.4127,2.2445,11.5762,51.9452,-0.1709,0.192,-0.2869,36.7095
16:48:26:901,-3.2825,1.8986,11.2611,51.7363,0.2487,-0.2531,0.1452,36.7095
16:48:26:918,-2.546,0.3318,9.7922,51.7265,0.3364,-0.5182,0.525,36.7095
16:48:26:938,-1.1534,0.1748,9.4536,51.3996,-0.0525,-0.7472,0.449,36.7095
16:48:26:958,-0.394,0.2346,10.1499,51.3994,-0.5762,-0.7223,0.1647,36.6162
16:48:26:977,-0.488,-0.5367,11.1955,50.9874,-0.8089,-0.296,-0.0734,36.5247
16:48:26:999,-0.9636,-1.1611,11.2565,50.9843,-0.6171,0.2013,-0.1347,36.5247
16:48:27:018,-1.0999,-0.9851,10.0631,50.5353,-0.216,0.4788,0.023,36.5247
16:48:27:038,-1.2675,-0.0181,9.0646,50.1987,0.1033,0.5108,0.2036,36.5247
16:48:27:057,-0.8787,0.5936,8.262,50.0158,0.3691,0.2349,0.2651,36.4318
16:48:27:078,-0.6287,0.8451,7.4192,49.9653,0.5838,0.0034,0.1795,36.3324
16:48:27:099,-0.5696,1.0354,6.3301,49.6362,0.6118,-0.0694,0.1008,36.2303
16:48:27:118,-0.3682,1.2005,5.5867,49.579,0.363,-0.0944,0.0013,36.129
16:48:27:138,-0.4479,1.4923,5.9764,49.4591,0.0265,-0.1244,-0.1155,36.0323
16:48:27:158,-0.8553,1.3931,6.9933,49.2774,-0.144,-0.0912,-0.1175,36.0323
16:48:27:178,-1.0008,1.26,7.7226,48.9712,-0.1999,0.0301,0.0008,36.0323
16:48:27:198,-0.8463,1.4352,8.1725,48.7762,-0.2619,0.1553,0.088,36.0323
16:48:27:218,-0.6996,1.761,8.9329,48.7661,-0.318,0.1138,0.0641,36.0323
16:48:27:237,-0.9233,1.8607,9.5847,48.9072,-0.2049,0.2567,0.0872,35.941
16:48:27:258,-1.1407,1.5497,10.0185,48.7189,-0.0217,0.1758,0.0713,35.8486
16:48:27:281,-1.2005,0.9526,10.2114,48.5516,0.036,-0.0638,-0.0165,35.757
16:48:27:298,-1.1106,0.0769,10.8541,48.5144,0.0211,0.1736,0.1048,35.757
16:48:27:318,-0.8144,0.1191,11.2064,48.2766,-0.1205,0.4224,0.3502,35.6633
16:48:27:337,-0.217,0.6548,11.1503,48.1946,-0.2358,0.0206,0.4543,35.5586
16:48:27:358,0.5365,0.0708,11.808,48.4691,-0.1306,-1.0802,0.2843,35.4399
16:48:27:380,0.7611,-0.3062,12.6383,48.1728,0.112,-1.8809,-0.169,35.3167
16:48:27:398,0.9573,-0.7273,12.869,48.2835,-0.0685,-1.7171,-0.6478,35.2078
16:48:27:418,0.5511,-0.9045,12.9899,48.3768,-0.6879,-0.384,-0.8168,35.2078
16:48:27:438,-0.0964,-1.2833,13.1648,48.2399,-1.0704,1.0354,-0.5872,35.2078
16:48:27:491,-0.1594,-1.3416,12.5776,48.3647,-0.8764,1.4178,-0.2127,35.2078
16:48:27:493,0.2623,-1.0564,11.4425,48.455,-0.3698,0.8998,-0.0383,35.2078
16:48:27:501,0.3752,-0.3507,10.4223,48.3136,0.0409,0.0832,-0.0693,35.2078
16:48:27:518,0.4612,-0.0602,9.7036,48.1343,0.1699,-0.3966,-0.1587,35.2078
16:48:27:538,0.4254,0.1037,9.0326,48.125,0.1606,-0.3166,-0.2206,35.2078
16:48:27:557,0.792,-0.0041,8.1557,48.4377,0.0884,0.0854,-0.302,35.2078
16:48:27:579,0.2503,0.5187,7.3607,48.3973,-0.0044,0.4745,-0.4587,35.2078
16:48:27:599,-0.6021,0.7267,6.882,48.5623,-0.1235,0.4962,-0.5663,35.2078
16:48:27:618,-1.0398,0.5433,6.8856,48.6384,-0.1559,0.3269,-0.5912,35.2078
16:48:27:638,-1.2676,0.3713,7.0539,48.861,-0.0448,0.15,-0.4675,35.2078
16:48:27:660,-0.8482,0.4957,6.9787,48.8064,0.1496,0.0674,-0.244,35.2078
16:48:27:679,-0.5663,1.3049,7.1052,48.7462,0.2911,-0.0232,-0.0633,35.2078
16:48:27:698,-0.1839,1.563,7.3085,48.9203,0.3027,-0.0844,0.0463,35.2078
16:48:27:718,-0.1317,1.3151,7.822,48.8728,0.227,-0.1914,-0.0191,35.2078
16:48:27:738,-0.3055,1.4648,8.427,48.7387,0.1197,-0.2507,-0.0805,35.2078
16:48:27:758,-0.294,1.2735,8.617,48.8772,-0.1465,0.0551,-0.1611,35.2078
16:48:27:778,-0.3595,1.167,9.929,49.1306,-0.5258,0.2193,-0.1926,35.3042
16:48:27:798,-0.5019,1.015,11.108,49.25,-0.5452,0.3804,-0.0804,35.404
16:48:27:818,-0.8694,1.0773,11.6577,49.4681,-0.3238,0.4219,0.2123,35.5007
16:48:27:838,-0.9385,1.096,11.9683,49.6661,-0.0766,0.2217,0.4424,35.5007
16:48:27:858,-0.134,0.8452,12.363,49.917,0.0223,-0.2199,0.3844,35.5007
16:48:27:878,-0.0001,0.677,13.0755,50.0608,-0.1124,-0.5664,0.1309,35.5007
16:48:27:898,-0.4944,0.6832,13.7636,50.2671,-0.1696,-0.271,0.0192,35.5007
16:48:27:918,-0.9173,0.4124,13.7315,50.4093,-0.1825,0.2762,0.0619,35.5007
16:48:27:937,-0.9527,0.2367,13.5969,50.7662,-0.1031,0.4758,0.2213,35.5007
16:48:27:958,-0.3261,-0.0848,13.3012,50.9058,0.1237,0.5337,0.2344,35.5007
16:48:27:978,-0.8538,-0.3029,12.3277,51.0783,0.4245,0.1197,0.1846,35.5007
16:48:27:998,-1.0015,-0.7147,10.9572,51.2368,0.7376,-0.7454,0.1156,35.5007
16:48:28:018,-0.5009,-0.6434,9.757,51.2218,0.5731,-1.1658,-0.0067,35.5007
16:48:28:039,-0.0491,-0.7794,9.3582,51.0926,0.1546,-1.233,-0.1969,35.5007
16:48:28:058,-0.1827,-0.8987,8.9995,51.2668,-0.36,-0.5716,-0.362,35.5007
16:48:28:078,-1.3243,-1.0882,8.6582,51.3056,-0.8011,0.144,-0.2892,35.5007
16:48:28:098,-2.1942,-1.3077,8.5489,51.2827,-0.9543,0.4142,0.0258,35.5007
16:48:28:118,-2.4854,-0.8498,8.9767,51.4515,-0.716,-0.0294,0.4327,35.5007
16:48:28:141,-1.7765,-0.1225,9.0611,51.6732,-0.1887,-0.5012,0.7195,35.5007
16:48:28:158,-1.0823,0.121,8.9897,51.5599,0.1923,-0.2798,0.7334,35.5007
16:48:28:179,-0.128,-0.3312,8.3304,51.8036,0.3339,0.2422,0.6811,35.5007
16:48:28:198,-0.2299,-0.1723,7.3606,51.5152,0.5695,0.8468,0.8156,35.5007
16:48:28:218,0.168,-0.0726,5.8415,51.6738,0.7911,1.2306,0.8938,35.5007
16:48:28:238,0.4745,0.4686,4.6835,51.5107,0.4828,1.2941,0.5663,35.3999
16:48:28:258,0.0132,1.0738,4.3958,51.5005,-0.2867,1.0421,0.1318,35.2879
16:48:28:278,-1.3389,1.0187,6.5795,51.908,-0.7074,0.6023,0.0502,35.176
16:48:28:298,-1.3093,0.4133,8.8661,52.1487,-0.4008,-0.4365,0.1837,35.0624
16:48:28:318,-1.111,-0.0498,10.4191,52.1883,0.2791,-1.4856,0.1332,34.9435
16:48:28:338,-1.3756,0.3614,11.2578,52.058,0.7949,-1.8426,-0.0583,34.8245
16:48:28:358,-1.5453,0.0334,11.2235,52.153,0.7451,-1.5672,-0.103,34.7117
16:48:28:378,-1.218,-0.4596,10.9047,51.891,0.3823,-0.5667,0.0041,34.6054
16:48:28:398,-1.004,-0.5515,10.8613,51.997,-0.1646,0.248,0.0528,34.5027
16:48:28:421,-0.1524,-0.536,11.6179,52.0717,-0.4878,0.5899,0.0243,34.4026
16:48:28:438,1.3186,-0.6185,12.0893,52.3415,-0.5553,0.6694,-0.1179,34.3061
16:48:28:458,0.9767,-0.7679,12.8947,52.3613,-0.6045,0.484,-0.4784,34.3061
16:48:28:478,-0.1572,-1.1878,13.862,52.2761,-0.5873,0.2392,-0.8088,34.3061
16:48:28:498,-0.9406,-2.108,14.6338,52.4036,-0.5143,0.1849,-0.9315,34.3061
16:48:28:521,-0.7285,-2.9062,14.2133,52.078,-0.298,0.3995,-0.7198,34.3061
16:48:28:538,-0.127,-2.7798,12.4613,51.9487,-0.0331,0.544,-0.2414,34.3061
16:48:28:558,0.254,-2.0783,10.6985,51.9718,0.2022,0.4519,0.126,34.3061
16:48:28:578,0.9238,-1.2051,9.0141,51.4898,0.4433,0.0961,0.3286,34.3061
16:48:28:598,1.1673,-0.3692,7.6642,51.2811,0.6113,-0.3728,0.1826,34.3061
16:48:28:619,0.5458,0.0647,6.8836,51.2003,0.4963,-0.8241,-0.116,34.3061
16:48:28:638,0.2704,0.037,6.9828,50.8847,0.2717,-0.9316,-0.41,34.3061
16:48:28:658,-0.1075,-0.0969,7.0114,50.7201,0.0951,-0.5041,-0.5391,34.3061
16:48:28:677,-0.1713,-0.1134,6.68,50.5569,-0.1605,0.1396,-0.4657,34.3061
16:48:28:698,0.1655,0.0911,6.6436,50.413,-0.3325,0.4594,-0.1774,34.3061
16:48:28:718,0.0753,0.4589,7.1223,50.2575,-0.2913,0.3849,0.0571,34.3061
16:48:28:739,0.1455,0.7476,7.6748,50.0648,-0.0961,0.1578,0.1357,34.3061
16:48:28:758,0.4309,0.7617,7.9004,49.9065,0.1458,-0.0794,0.0361,34.3061
16:48:28:778,0.239,1.0733,7.7173,49.6116,0.272,-0.2142,-0.1544,34.3061
16:48:28:799,0.2755,0.6836,8.0146,49.2016,0.1869,-0.3331,-0.2371,34.3061
16:48:28:818,-0.0927,0.5919,8.5353,48.8611,0.0317,-0.3294,-0.2972,34.3061
16:48:28:838,-0.4,0.675,9.2219,48.8077,-0.1417,-0.2359,-0.1979,34.3061
16:48:28:858,-0.4624,0.7036,10.0383,48.549,-0.2679,0.0239,-0.0075,34.3061
16:48:28:877,-0.2459,0.9106,10.5214,48.5825,-0.1838,0.3205,0.1965,34.3061
16:48:28:900,-0.0729,1.2048,10.2831,48.5159,0.0271,0.4881,0.3168,34.3061
16:48:28:918,-0.0371,1.501,9.8744,47.9848,0.1317,0.42,0.3545,34.3061
16:48:28:938,-0.0881,1.6497,9.9904,47.9201,0.0674,0.2824,0.3098,34.3061
16:48:28:958,-0.973,1.9847,10.5579,47.577,-0.0986,0.2213,0.2433,34.3061
16:48:28:978,-1.2786,1.6119,11.2518,47.0375,-0.1781,0.1353,0.3004,34.3061
16:48:28:999,-0.3221,0.3079,12.1673,46.7433,-0.4065,-0.3321,0.2885,34.3061
16:48:29:018,-0.8772,-0.288,14.5506,46.6021,-0.9212,-0.7083,0.1499,34.3061
16:48:29:038,-1.4343,-1.4192,17.7332,46.0684,-0.5256,-1.0023,0.1826,34.3061
16:48:29:058,-1.2565,-2.0945,16.8025,45.5715,0.5811,-0.9034,0.4111,34.3061
16:48:29:078,-0.8234,-1.8543,13.1458,45.316,1.023,-0.3954,0.645,34.3061
16:48:29:098,0.395,-1.4702,9.8028,44.8169,0.7745,-0.0528,0.5048,34.3061
16:48:29:118,0.7354,-1.1731,8.2036,44.4344,0.1285,0.3477,0.0771,34.3061
16:48:29:138,-0.448,-1.4426,8.1234,44.2015,-0.4588,0.2889,-0.2397,34.3061
16:48:29:158,-1.7792,-1.7425,8.4763,43.9888,-0.5576,-0.1757,-0.1397,34.3061
16:48:29:178,-2.2373,-1.4052,9.0386,43.9251,-0.1668,-0.9205,0.2865,34.3061
16:48:29:198,-1.2241,-0.6874,9.4539,43.5998,0.6143,-1.4539,0.5447,34.3061
16:48:29:218,0.095,-0.2123,8.1794,43.2432,1.2133,-1.1172,0.4509,34.3061
16:48:29:238,0.9214,0.1745,5.6228,43.0632,0.8879,0.0008,0.1094,34.2057
16:48:29:257,0.6979,0.2236,4.5952,42.8578,-0.1444,1.2107,-0.1455,34.107
16:48:29:280,-0.1358,0.1066,5.6434,42.6588,-0.8639,1.8715,-0.2997,34.107
16:48:29:298,-1.157,0.0362,6.6548,42.3177,-0.9189,1.7694,-0.3072,34.107
16:48:29:318,-1.4543,-0.1957,7.2747,42.3276,-0.5664,1.1603,-0.1909,34.107
16:48:29:338,-1.0907,-0.4575,7.5094,42.0763,-0.113,0.5214,-0.0677,34.107
16:48:29:358,-1.3561,-0.4224,8.1323,41.7731,0.1842,-0.1186,0.064,34.107
16:48:29:379,-1.7483,-0.2095,9.4091,41.4381,0.3392,-0.6576,0.234,34.107
16:48:29:398,-1.9385,-0.1848,10.7662,41.2854,0.4421,-0.8872,0.3368,34.107
16:48:29:418,-1.4712,-0.2811,11.6825,41.0509,0.5087,-0.7775,0.465,34.107
16:48:29:437,-0.5233,-0.2537,12.0924,40.8275,0.4372,-0.3393,0.535,34.0037
16:48:29:457,0.2821,-0.0024,12.2167,40.8346,0.2501,0.1686,0.3358,33.8844
16:48:29:506,0.1188,-0.0264,12.179,41.0064,0.0117,0.4582,0.1169,33.7606
16:48:29:508,0.2349,-0.1934,12.4653,40.995,-0.0055,0.5078,0.0295,33.6377
16:48:29:518,0.8622,-0.7015,12.0276,40.8305,0.1896,0.2783,0.0028,33.5169
16:48:29:538,1.2426,-0.2869,11.2542,40.719,0.2001,-0.0954,-0.1371,33.4002
16:48:29:558,1.2946,-0.2172,11.0578,40.394,-0.0127,-0.3985,-0.4024,33.2946
16:48:29:577,1.5315,-0.6721,11.4145,40.1273,-0.3326,-0.4813,-0.7381,33.2946
16:48:29:599,0.7118,-1.1354,12.5766,40.0015,-0.543,-0.2642,-0.9316,33.2946
16:48:29:618,-0.0313,-1.6967,12.9833,39.7632,-0.4236,0.109,-0.8099,33.2946
16:48:29:638,-0.4633,-1.3794,11.508,39.8286,-0.1362,0.2318,-0.5037,33.2946
16:48:29:660,-0.8462,-0.8303,9.5252,39.9595,-0.0696,0.1817,-0.2479,33.2946
16:48:29:678,-0.9579,-0.2546,8.0713,39.994,-0.154,0.2093,-0.0439,33.2946
16:48:29:698,-0.7875,0.4568,7.8156,40.2095,-0.1417,0.0339,0.0803,33.2946
16:48:29:718,-0.1194,0.9247,7.8652,40.4257,-0.0319,-0.1281,-0.0389,33.2946
16:48:29:738,-0.2417,1.0024,7.3702,40.4948,-0.0373,-0.0615,-0.2021,33.2946
16:48:29:759,-0.7031,0.8305,7.0016,40.7816,-0.1575,0.0904,-0.2906,33.2946
16:48:29:778,-0.9564,0.6888,7.1024,40.5269,-0.2563,0.1669,-0.2828,33.2946
16:48:29:798,-0.8505,0.4084,7.7017,40.6291,-0.2379,0.0301,-0.1775,33.2946
16:48:29:817,-0.3152,0.3304,8.4484,40.6214,-0.121,0.0902,0.0159,33.2946
16:48:29:837,0.2898,0.4431,8.501,40.5664,0.0927,0.1346,0.2096,33.2946
16:48:29:858,0.6937,0.6961,8.3253,40.3372,0.1085,0.0958,0.1362,33.2946
16:48:29:878,0.3768,0.9025,8.9983,40.3379,-0.0037,0.0023,-0.038,33.2946
16:48:29:898,0.4003,0.5894,10.4022,40.2768,0.0058,-0.008,-0.0961,33.2946
16:48:29:918,0.0334,0.3392,11.1558,40.3528,0.219,0.1589,-0.0086,33.2946
16:48:29:939,0.1424,0.3243,10.7345,40.6341,0.485,0.4879,0.2089,33.2946
16:48:29:959,-0.1669,1.0409,10.1604,40.6491,0.4728,0.4732,0.2717,33.2946
16:48:29:979,-0.3611,1.2229,10.5049,40.7121,0.3723,0.0678,0.2239,33.2946
16:48:29:998,-0.591,0.912,11.5469,40.2621,0.4097,-0.3814,0.1949,33.2946
16:48:30:018,-0.9682,1.0046,12.4064,40.0852,0.6455,-0.4312,0.2723,33.2946
16:48:30:042,-1.2781,1.1206,11.8365,39.9645,0.8273,-0.0674,0.4339,33.2946
16:48:30:058,-1.3498,1.1241,10.7601,40.0887,0.528,0.3416,0.571,33.2946
16:48:30:078,-0.6995,0.6884,11.0107,40.0227,0.0713,0.5139,0.5901,33.2946
16:48:30:098,-0.181,0.0091,11.8483,40.1381,-0.051,0.3369,0.5009,33.2946
16:48:30:118,-0.2412,-0.2441,12.654,40.083,0.0761,-0.2902,0.3706,33.2946
16:48:30:141,-0.1314,-0.611,13.1178,39.7705,0.3765,-1.0033,0.1943,33.2946
16:48:30:158,0.1338,-0.7548,12.5793,39.5445,0.5019,-1.1078,0.053,33.2946
16:48:30:178,0.3672,-0.7078,11.0592,39.8127,0.3109,-0.6121,-0.0834,33.2946
16:48:30:198,0.1912,-0.3433,9.3351,39.9005,-0.1295,0.1355,-0.1881,33.2946
16:48:30:217,-0.2054,0.1555,8.1323,40.2413,-0.4645,0.7261,-0.234,33.2946
16:48:30:238,-0.6102,0.399,7.1441,40.3616,-0.6259,0.8963,-0.2541,33.2946
16:48:30:258,-1.0733,0.5265,7.7805,40.4397,-0.5849,0.3974,-0.2901,33.2946
16:48:30:278,-0.7877,0.1738,8.8864,40.0118,-0.0585,-0.2028,-0.2057,33.2946
16:48:30:298,-0.5209,0.3697,8.5683,40.0188,0.6433,-0.4045,0.0099,33.2946
16:48:30:317,-0.1103,0.7608,7.0242,39.8776,0.9027,-0.2622,0.1299,33.2946
16:48:30:339,0.3592,1.0458,5.802,39.8998,0.5686,0.0815,0.0631,33.2946
16:48:30:358,-0.0604,1.4006,5.6895,40.0241,0.0298,0.3816,-0.1032,33.2946
16:48:30:378,-1.2745,1.4876,6.9781,40.2804,-0.2391,0.2369,-0.183,33.2946
16:48:30:398,-1.9114,1.2818,8.7042,39.6856,0.0133,-0.1247,-0.1183,33.2946
16:48:30:420,-0.9226,0.8529,9.1953,39.916,0.5284,-0.3194,-0.0306,33.2946
16:48:30:438,-0.4318,0.9249,8.7218,40.0313,0.6099,-0.3157,-0.1342,33.2946
16:48:30:458,-0.8738,0.882,9.0413,40.3125,0.2567,-0.2581,-0.3429,33.2946
16:48:30:478,-1.3744,-0.1,9.5786,40.7172,-0.0553,-0.1013,-0.3999,33.2946
16:48:30:498,-1.4317,-0.6329,9.805,40.9201,-0.3139,0.057,-0.1658,33.2946
16:48:30:520,-0.4918,-0.1667,10.7533,41.2694,-0.4937,0.12,0.1769,33.2946
16:48:30:538,1.7241,0.2138,11.7666,41.3728,-0.4685,0.1337,0.2274,33.2946
16:48:30:558,2.6739,0.2313,11.6917,41.5766,-0.5426,0.1862,-0.1313,33.2946
16:48:30:578,2.0828,-0.4826,12.1994,41.5604,-0.8864,0.0609,-0.6326,33.2946
16:48:30:598,1.0807,-1.4397,13.8497,41.5189,-1.0866,0.1375,-0.7747,33.2946
16:48:30:619,0.365,-1.7396,15.0207,41.6529,-0.7913,0.3604,-0.5065,33.2946
16:48:30:639,0.2179,-1.4286,13.9005,41.8816,-0.1392,0.521,-0.0687,33.2946
16:48:30:658,0.5501,-0.6522,11.4512,41.9937,0.3056,0.3068,0.1691,33.2946
16:48:30:678,1.2775,-0.1505,9.4566,42.4176,0.3736,-0.0276,0.1222,33.2946
16:48:30:702,1.3881,0.1317,8.3641,42.7475,0.2579,-0.1322,-0.0063,33.2946
16:48:30:720,0.8045,0.1891,7.6595,43.1701,0.0814,-0.0518,-0.1194,33.2946
16:48:30:738,0.0498,0.1054,7.1453,43.5561,-0.1651,0.1418,-0.1756,33.2946
16:48:30:760,-0.575,0.1683,7.3797,43.7094,-0.4078,0.3731,-0.1584,33.2946
16:48:30:779,-0.8031,0.205,7.8597,43.9108,-0.3672,0.5274,-0.0735,33.2946
16:48:30:799,-0.6036,0.532,8.1639,43.9759,-0.1016,0.4384,0.057,33.2946
16:48:30:818,-0.3051,0.8836,8.0256,44.0925,0.2838,0.1778,0.1797,33.2946
16:48:30:838,0.1058,0.994,7.3199,44.4892,0.6168,-0.1541,0.2305,33.2946
16:48:30:858,0.5605,1.0413,6.6921,45.1582,0.6511,-0.4192,0.2046,33.2946
16:48:30:877,1.1327,1.1285,6.9148,45.4425,0.404,-0.541,0.1303,33.2946
16:48:30:899,1.7648,1.3436,8.2867,46.0625,0.0985,-0.5802,0.0534,33.2946
16:48:30:918,2.0328,1.9754,10.0855,46.1111,0.1132,-0.366,0.0021,33.2946
16:48:30:938,1.8015,2.1924,9.7871,46.1617,0.3779,0.095,-0.1498,33.2946
16:48:30:958,0.4853,2.3631,8.6882,46.6887,0.1741,0.062,-0.3503,33.2946
16:48:30:977,-0.1883,2.1311,10.0281,46.8779,-0.1526,-0.117,-0.3825,33.2946
16:48:31:000,-0.5644,1.8305,11.6342,47.3195,-0.0786,-0.122,-0.2938,33.2946
16:48:31:018,-0.7333,1.3086,12.1294,47.9069,0.1909,-0.1528,-0.1718,33.2946
16:48:31:038,-0.8438,1.0375,11.5703,48.3875,0.3933,-0.1298,-0.0617,33.2946
16:48:31:058,-0.8728,0.651,10.825,48.5406,0.2322,-0.2007,-0.0729,33.2946
16:48:31:078,-1.1201,0.0385,11.9137,48.9528,-0.2518,-0.3604,-0.1221,33.3848
16:48:31:099,-1.7257,-0.4137,14.3353,49.6704,-0.3454,-0.1941,0.0077,33.4763
16:48:31:118,-2.293,-0.7518,14.6377,50.3162,0.1617,0.0905,0.2145,33.4763
16:48:31:138,-2.4291,-0.7953,12.4255,51.0938,0.6033,0.1417,0.4171,33.4763
16:48:31:158,-1.7826,-0.3791,10.2179,51.7071,0.617,-0.0611,0.5218,33.4763
16:48:31:178,-0.8728,0.2526,9.2002,52.0609,0.4036,-0.3957,0.4598,33.4763
16:48:31:199,0.1257,0.6657,9.1634,52.3342,0.2111,-0.6655,0.3232,33.4763
16:48:31:218,0.738,0.9883,9.4061,52.5144,0.0931,-0.7016,0.1307,33.4763
16:48:31:238,0.5506,0.9593,9.1379,53.1465,0.0109,-0.3878,-0.0794,33.4763
16:48:31:258,-0.0251,0.7822,8.4562,53.4914,-0.1179,0.0971,-0.148,33.4763
16:48:31:279,-0.2836,0.6679,7.7778,54.0761,-0.1725,0.5236,-0.0808,33.4763
16:48:31:298,-0.2627,0.5736,6.8565,54.423,-0.1546,0.7018,-0.0032,33.4763
16:48:31:318,-0.084,0.5146,6.4085,54.6889,-0.1696,0.6038,0.0369,33.4763
16:48:31:337,-0.2942,0.6575,6.8268,54.7821,-0.1069,0.3444,0.0343,33.4763
16:48:31:358,-0.7024,0.7346,7.3264,54.8402,0.1449,0.0628,0.0156,33.4763
16:48:31:380,-0.9559,0.6944,7.0763,54.8446,0.398,-0.0253,-0.0043,33.4763
16:48:31:398,-0.9718,0.6895,6.3169,54.8812,0.3925,0.1195,-0.0176,33.4763
16:48:31:418,-0.9152,0.8193,5.8088,55.2012,-0.041,0.4919,-0.1213,33.4763
16:48:31:438,-1.1593,1.3644,6.9269,55.5808,-0.6351,0.7483,-0.1872,33.4763
16:48:31:458,-1.5709,1.4694,9.1636,55.9035,-0.8482,0.7299,-0.2102,33.4763
16:48:31:479,-2.1535,1.2554,10.9534,56.1348,-0.5661,0.2777,-0.1733,33.4763
16:48:31:539,-2.1437,0.2749,11.8004,56.4528,-0.0803,-0.3479,-0.0296,33.4763
16:48:31:542,-1.7776,0.0711,11.4183,56.6392,0.2076,-0.7816,0.2076,33.4763
16:48:31:544,-1.0411,0.1449,11.4876,56.9505,0.0014,-0.9783,0.2095,33.4763
16:48:31:559,-0.1984,0.0952,12.9134,57.0769,-0.3039,-0.6724,0.0791,33.4763
16:48:31:578,0.4668,-0.4559,13.6615,57.3929,-0.3593,-0.0981,-0.0322,33.4763
16:48:31:598,0.6165,-0.7714,12.8767,57.3558,-0.2876,0.0111,-0.1401,33.4763
16:48:31:618,0.7817,-0.7315,12.1291,57.4524,-0.2025,-0.5621,-0.3432,33.4763
16:48:31:638,0.5689,-0.8616,12.1284,57.4993,-0.0875,-1.063,-0.5245,33.4763
16:48:31:658,0.5382,-1.1569,12.0133,57.6097,-0.0874,-0.8323,-0.5319,33.4763
16:48:31:678,0.3927,-1.2323,11.2898,57.9541,-0.233,-0.0924,-0.3547,33.4763
16:48:31:698,0.4636,-0.9058,10.1426,57.8389,-0.3311,0.4617,-0.1362,33.5775
16:48:31:718,0.6296,-0.3781,8.7392,58.0027,-0.4466,0.5213,-0.0741,33.6805
16:48:31:738,0.5236,-0.0765,8.1727,58.017,-0.6189,0.1032,-0.1587,33.7845
16:48:31:759,0.1657,0.2219,8.8283,58.1044,-0.7343,-0.3343,-0.1835,33.8925
16:48:31:778,-0.289,0.2928,9.9083,58.2369,-0.5814,-0.5523,-0.1873,34.0049
16:48:31:799,-0.3469,0.4333,9.7551,58.1878,-0.1294,-0.5783,-0.1582,34.1205
16:48:31:818,-0.122,0.1862,8.1578,58.2963,0.1201,-0.3039,-0.1053,34.2375
16:48:31:838,0.1704,0.2347,6.4141,58.1059,0.0523,0.0702,-0.0089,34.3536
16:48:31:859,-0.0645,0.4352,5.8207,58.2969,-0.2494,0.216,0.0529,34.4665
16:48:31:878,0.0618,0.623,6.4134,58.3298,-0.467,0.1125,0.1034,34.5753
16:48:31:898,0.9245,0.388,7.4097,58.1396,-0.4358,0.1411,0.0248,34.6784
16:48:31:918,1.2004,0.9086,8.3192,58.2068,-0.3618,0.0061,-0.0438,34.7794
16:48:31:939,1.6584,0.5605,9.5928,58.4654,-0.2139,-0.0096,-0.3582,34.882
16:48:31:958,0.6883,1.3198,10.3453,58.2335,0.0795,0.1943,-0.3016,34.9945
16:48:31:978,0.2934,1.0656,10.1193,58.4636,0.2312,0.4293,0.0284,35.1105
16:48:31:998,0.5635,0.91,9.637,58.3474,0.091,0.6376,0.1237,35.2201
16:48:32:018,0.6076,1.0572,9.7329,58.6223,-0.1541,0.676,0.0408,35.323
16:48:32:041,0.4561,0.9515,10.3092,58.4521,-0.3334,0.5325,-0.078,35.4232
16:48:32:058,0.1244,0.3022,11.4689,58.7145,-0.3937,0.4183,-0.0794,35.5241
16:48:32:078,-0.7481,-0.331,12.6853,58.5391,-0.2926,0.5092,0.2145,35.6228
16:48:32:098,-0.5217,-0.8288,13.7386,58.8647,-0.0251,0.1727,0.4885,35.6228
16:48:32:118,-0.7999,0.155,14.1508,58.9378,0.4192,-0.4374,0.5115,35.6228
16:48:32:140,0.3052,-0.3772,14.3315,59.0212,0.5587,-0.7427,0.3763,35.6228
16:48:32:158,0.5237,-0.9498,13.1537,59.1178,0.7189,-0.3638,0.1303,35.6228
16:48:32:178,-0.6533,-1.7519,10.6963,59.2263,0.3968,0.3644,-0.0034,35.6228
16:48:32:198,-1.6764,-1.828,9.021,59.0374,0.0488,0.4969,0.0926,35.6228
16:48:32:218,-1.5348,-1.7873,8.6881,58.9506,-0.342,0.3157,0.1948,35.6228
16:48:32:239,-0.9846,-1.3357,9.4579,59.0004,-0.42,-0.1322,0.17,35.6228
16:48:32:258,-0.3842,-1.0656,10.1699,58.6339,-0.3104,-0.3875,0.1072,35.6228
16:48:32:278,-0.5085,-0.6073,10.2027,58.295,-0.0778,-0.4029,0.0967,35.6228
16:48:32:298,-0.5896,-0.6553,9.8147,58.4491,0.2033,-0.3057,0.1262,35.6228
16:48:32:319,-0.8703,-0.029,8.8002,58.4696,0.5684,-0.261,0.3659,35.6228
16:48:32:338,-0.2266,0.1371,7.5663,58.1897,0.8298,-0.4014,0.5461,35.6228
16:48:32:358,0.364,0.3075,7.0059,58.1967,0.8167,-0.5707,0.4881,35.6228
16:48:32:377,0.2548,1.4889,6.6094,57.9227,0.6696,-0.4351,0.4109,35.6228
16:48:32:398,0.528,1.1947,6.2238,57.7642,0.3784,-0.1407,0.267,35.6228
16:48:32:420,0.1427,1.0553,6.176,57.7157,0.1635,0.0877,0.0598,35.6228
16:48:32:439,-0.3494,0.8744,6.6203,57.6903,0.0428,0.0873,0.0168,35.6228
16:48:32:459,-0.4536,0.7337,7.7793,57.4197,0.0188,-0.0532,0.0078,35.6228
16:48:32:477,-0.4915,0.7364,8.8494,57.254,0.0493,-0.0937,-0.003,35.6228
16:48:32:498,0.0725,0.0122,9.3294,57.2621,0.1143,-0.1265,-0.0403,35.6228
16:48:32:520,0.8081,-0.6302,9.1188,57.1941,0.0464,0.0455,-0.0888,35.6228
16:48:32:538,1.0444,-0.3786,9.5074,57.1206,-0.21,0.3833,-0.1387,35.6228
16:48:32:558,0.3579,-0.4756,10.8285,57.2039,-0.3378,0.5059,-0.3461,35.6228
16:48:32:578,-0.595,-1.2243,11.9488,57.1106,-0.1766,0.596,-0.5008,35.6228
16:48:32:598,-1.2005,-2.0414,11.8167,56.8263,-0.0756,0.7894,-0.4272,35.6228
16:48:32:618,-1.0329,-2.0355,11.5737,56.7673,-0.2636,0.8616,-0.1952,35.6228
16:48:32:638,0.0905,-1.1474,12.7059,56.6934,-0.2688,0.6894,0.0059,35.6228
16:48:32:658,0.8884,-0.3117,13.5326,56.3606,0.1511,0.2299,0.0058,35.6228
16:48:32:678,0.9819,0.3183,12.7765,56.2668,0.429,-0.2755,-0.3067,35.6228
16:48:32:699,0.7599,0.5119,12.1757,56.3802,0.1684,-0.4411,-0.7125,35.6228
16:48:32:719,0.8456,-0.1539,12.639,56.1021,-0.3704,0.0109,-0.9739,35.6228
16:48:32:740,0.1399,-0.398,13.4596,56.13,-0.4122,0.5576,-1.0059,35.6228
16:48:32:758,-0.2609,-0.5849,12.3998,55.7531,-0.0681,0.6598,-0.827,35.7199
16:48:32:778,-0.2377,-0.7189,10.4103,55.5071,0.144,0.4111,-0.6458,35.8404
16:48:32:803,-0.4071,-0.7383,8.9335,55.3938,0.0254,0.0137,-0.5452,35.9786
16:48:32:818,-0.8293,-0.7591,8.6939,55.316,-0.1641,-0.0471,-0.4873,36.1313
16:48:32:838,-1.2356,-0.5589,7.9976,55.3713,-0.1538,0.131,-0.3461,36.2954
16:48:32:857,-0.8394,0.106,7.2204,55.3687,-0.0892,0.3322,-0.0262,36.4637
16:48:32:877,0.0387,0.8303,6.5632,55.3549,0.1484,0.3009,0.1639,36.625
16:48:32:899,0.5422,1.3346,5.5746,55.2695,0.2816,0.1166,0.1448,36.7755
16:48:32:918,0.4247,1.5949,5.2248,55.2858,0.2042,-0.0607,-0.0289,36.9182
16:48:32:938,0.0468,1.5612,5.8228,55.072,0.0807,-0.1827,-0.2032,37.0595
16:48:32:957,-0.483,1.3052,6.9747,54.9009,0.0908,-0.2727,-0.2808,37.2047
16:48:32:977,-0.6151,0.9422,7.9143,54.9577,0.2256,-0.4616,-0.1776,37.3543
16:48:33:000,-0.0021,1.0118,8.6902,54.9395,0.285,-0.5508,-0.0149,37.5039
16:48:33:018,0.5556,1.4635,9.2094,54.9955,0.2129,-0.5862,-0.0331,37.6493
16:48:33:038,0.4202,1.8923,9.7984,54.8244,-0.0048,-0.5091,-0.2276,37.7934
16:48:33:058,-0.26,2.1388,10.8282,54.8655,-0.1881,-0.2536,-0.3633,37.9433
16:48:33:078,0.1109,0.8384,11.7654,54.9551,-0.1878,0.1243,-0.3264,38.1012
16:48:33:098,0.1046,0.5694,12.1032,55.0753,0.0161,0.4202,-0.224,38.2649
16:48:33:119,0.0032,0.5102,11.77,55.2223,0.1249,0.4342,-0.1625,38.4303
16:48:33:138,-0.3342,0.354,11.5434,55.3264,-0.0046,0.2589,-0.2183,38.5969
16:48:33:157,-0.7616,-0.0688,12.1877,55.4235,-0.3253,0.0113,-0.2569,38.7676
16:48:33:180,-1.4253,-0.868,14.2545,55.3636,-0.5375,-0.2807,-0.2448,38.9417
16:48:33:200,-1.6868,-1.3464,15.7254,55.1435,-0.3185,-0.3623,-0.0119,39.1171
16:48:33:218,-1.2311,-1.9109,15.88,55.1807,0.2069,-0.0345,0.2448,39.2843
16:48:33:238,-1.1057,-1.3228,13.1334,55.1438,0.7738,0.0967,0.4525,39.4351
16:48:33:257,-0.2924,-0.6268,10.4626,55.0417,0.6755,0.0011,0.4821,39.5631
16:48:33:279,0.1513,-0.1509,9.0948,55.0311,0.3618,-0.0625,0.2538,39.674
16:48:33:298,-0.2884,0.0221,8.6583,55.1465,0.0293,0.0091,0.0262,39.7756
16:48:33:318,-0.9271,0.0559,8.6294,55.2454,-0.0941,0.0797,-0.066,39.8746
16:48:33:338,-1.1142,0.0847,8.4117,55.3852,-0.0464,0.1244,-0.029,39.9728
16:48:33:357,-0.9886,0.1721,7.9302,55.6094,0.1084,0.0785,0.0288,40.0681
16:48:33:379,-0.8324,0.1871,7.4363,55.4024,0.2504,-0.035,0.0603,40.1589
16:48:33:398,-0.6343,0.1326,7.0413,55.1735,0.4048,-0.1106,0.0899,40.1589
16:48:33:418,-0.5865,0.2008,6.2763,55.1348,0.5323,-0.1007,0.149,40.1589
16:48:33:437,-0.3991,0.3535,5.4402,54.8353,0.4893,0.0081,0.2055,40.1589
16:48:33:458,-0.2042,0.5817,5.1012,54.4088,0.3527,0.1262,0.1956,40.1589
16:48:33:478,-0.2711,0.8609,5.4159,54.3941,0.196,0.0465,0.1289,40.1589
16:48:33:524,-0.338,0.9425,6.4958,54.4184,0.1196,-0.2926,0.0387,40.1589
16:48:33:526,-0.3765,0.7062,7.7901,54.3124,0.0628,-0.6942,-0.0349,40.1589
16:48:33:538,-0.5525,0.3412,9.3246,54.6973,0.0224,-0.7423,0.0306,40.1589
16:48:33:560,-0.7359,0.6293,10.3797,54.9453,0.0388,-0.3037,0.2884,40.1589
16:48:33:578,0.1713,0.5442,10.9407,55.0351,0.0761,-0.006,0.2991,40.1589
16:48:33:598,0.7922,0.9654,10.6271,54.9473,0.0962,0.1431,0.1128,40.1589
16:48:33:618,1.5434,0.7857,10.2581,55.0159,-0.1185,0.0779,-0.2606,40.1589
16:48:33:637,1.4079,0.1257,10.8945,54.7829,-0.4954,0.0062,-0.6723,40.1589
16:48:33:659,1.3963,-0.8134,12.3373,54.723,-0.7524,0.1647,-0.8762,40.1589
16:48:33:678,1.7792,-1.2258,12.9529,54.7655,-0.7429,0.3705,-1.0253,40.2683
16:48:33:698,1.6274,-1.2078,12.7687,54.823,-0.8738,0.301,-1.3322,40.4129
16:48:33:718,0.7334,-1.2775,13.7318,55.0087,-1.2819,0.3068,-1.6334,40.6038
16:48:33:737,-0.1335,-1.9809,15.7673,54.9739,-1.1453,0.3917,-1.6191,40.8468
16:48:33:760,-0.1286,-2.7547,15.2499,54.7545,-0.3465,0.5813,-1.2188,41.1346
16:48:33:778,-0.0539,-1.8972,12.4165,54.5546,0.3461,0.5788,-0.666,41.4496
16:48:33:798,0.9888,-0.9053,9.7251,54.3647,0.4985,0.1539,-0.4551,41.7751
16:48:33:818,2.0552,-0.4557,8.1956,54.0949,0.2353,-0.1914,-0.641,42.1083
16:48:33:837,2.167,-0.8061,7.8531,54.0542,-0.2575,-0.1257,-0.9446,42.4572
16:48:33:858,1.1593,-0.5682,8.1374,53.9223,-0.5704,0.2007,-1.1025,42.8309
16:48:33:878,0.4294,-0.6081,8.3244,53.7976,-0.6301,0.5272,-1.1326,43.2321
16:48:33:898,0.0282,-0.8148,8.2647,53.4755,-0.3953,0.6571,-1.0537,43.6592
16:48:33:918,-0.0887,-0.9052,7.6764,53.3219,-0.047,0.7013,-0.9243,44.1079
16:48:33:937,-0.4042,-0.455,6.6825,53.0856,0.2166,0.6334,-0.8443,44.5736
16:48:33:958,-0.7124,-0.0218,5.6702,53.0157,0.3002,0.4146,-0.7959,45.0545
16:48:33:978,-0.5528,0.4268,5.3613,52.6991,0.2227,0.2011,-0.6989,45.5485
16:48:33:998,0.0117,0.7092,6.0435,52.5134,0.1081,-0.0455,-0.675,46.052
16:48:34:018,-0.0668,0.8996,7.3506,52.2569,-0.0003,-0.329,-0.7808,46.5652
16:48:34:040,-0.9121,0.928,9.3115,52.4022,-0.0288,-0.5519,-0.7904,47.0908
16:48:34:058,-1.3156,0.6718,11.1543,52.3203,0.1974,-0.4486,-0.5399,47.6256
16:48:34:078,-1.1287,0.7073,11.5876,52.1853,0.4713,-0.1413,-0.1583,48.1589
16:48:34:098,-0.3986,1.0965,11.2696,51.9588,0.5314,0.1665,0.1153,48.6787
16:48:34:118,0.2714,1.4252,11.1541,51.8452,0.4399,0.3251,0.1372,49.1784
16:48:34:139,0.783,1.2668,11.1585,51.495,0.3393,0.3241,-0.0619,49.6604
16:48:34:158,0.6832,0.7434,11.1671,51.2973,0.168,0.286,-0.3224,50.133
16:48:34:178,-0.3651,0.2555,11.7631,51.279,-0.0244,0.3274,-0.4052,50.6046
16:48:34:198,-1.0086,0.1582,12.4969,51.1265,-0.0452,0.4396,-0.1542,51.0742
16:48:34:218,-0.3824,0.2076,12.4066,50.7587,-0.1312,0.157,-0.0344,51.5333
16:48:34:238,0.0333,-0.2674,13.5584,50.4057,-0.2869,-0.3804,-0.2822,51.9817
16:48:34:258,-1.3587,-1.201,15.4377,50.0136,0.0824,-0.4016,-0.4214,52.4272
16:48:34:278,-1.8058,-2.1675,13.9939,49.8036,0.9473,-0.1564,-0.1713,52.8704
16:48:34:298,-0.735,-2.2456,10.727,49.6215,1.2496,0.1629,0.1888,53.3029
16:48:34:318,0.7581,-1.4611,8.4519,49.207,0.906,-0,0.1182,53.7175
16:48:34:338,1.7126,-0.8821,8.606,48.9753,0.3306,-0.3113,-0.3237,54.1207
16:48:34:358,1.3564,-1.0991,9.5174,48.5368,0.0703,-0.3923,-0.8373,54.5285
16:48:34:378,0.1686,-1.2612,9.8096,48.1585,0.0882,-0.1929,-1.0416,54.9556
16:48:34:399,-0.5859,-1.3521,9.0368,47.9352,0.2586,0.1828,-0.929,55.405
16:48:34:420,-0.8635,-0.9108,7.5624,47.6728,0.4134,0.397,-0.6994,55.871
16:48:34:438,-0.6274,-0.3265,6.2254,47.5113,0.4392,0.2753,-0.5464,56.3456
16:48:34:458,-0.3849,0.141,5.7181,47.3155,0.3397,-0.1228,-0.5037,56.8244
16:48:34:478,-0.383,0.5611,6.2831,47.261,0.2675,-0.6206,-0.5135,57.306
16:48:34:498,-0.2818,0.6397,7.1177,46.5155,0.303,-0.8942,-0.5186,57.7907
16:48:34:520,-0.0312,0.7558,7.3622,46.0057,0.3276,-0.767,-0.5282,58.2786
16:48:34:539,0.2323,0.8686,7.0347,45.4215,0.1667,-0.3632,-0.6448,58.7715
16:48:34:558,-0.0139,1.0419,6.9772,44.9044,-0.1491,0.0568,-0.7958,59.2758
16:48:34:578,-0.6164,1.1724,7.816,44.6719,-0.3161,0.2381,-0.8296,59.7925
16:48:34:599,-0.9239,1.1612,8.4766,44.6924,-0.2267,0.1828,-0.7315,60.3213
16:48:34:619,-0.86,1.0771,8.5723,44.7321,-0.1291,-0.1401,-0.6382,60.8581
16:48:34:637,-0.7074,0.7874,8.8533,44.79,-0.2005,-0.4741,-0.5798,61.4001
16:48:34:658,-0.8068,0.6628,9.5886,44.5885,-0.3152,-0.6161,-0.4784,61.9464
16:48:34:678,-0.7129,0.594,11.2026,44.5296,-0.3487,-0.6955,-0.3592,62.4913
16:48:34:699,-0.0161,0.3557,12.1582,44.354,-0.2263,-0.5845,-0.248,63.0316
16:48:34:718,1.5435,-0.0885,12.2798,44.0737,-0.1682,-0.3883,-0.2464,63.564
16:48:34:738,2.4644,0.2464,11.9382,43.6573,-0.2226,-0.1177,-0.4873,64.0913
16:48:34:758,2.7804,0.3829,11.591,43.5456,-0.3797,0.211,-0.9069,64.6258
16:48:34:778,1.724,0.216,11.4511,43.1315,-0.6533,0.3602,-1.4611,65.1789
16:48:34:800,0.7418,-0.3239,12.1881,42.7396,-0.9655,0.3348,-1.7772,65.7711
16:48:34:818,-0.3263,-0.8662,14.2898,42.4946,-0.9231,0.1765,-1.8303,66.4096
16:48:34:838,-0.8524,-1.3861,15.2507,42.1099,-0.197,-0.3089,-1.565,67.09
16:48:34:857,-0.3502,-1.8565,14.3944,41.7167,0.429,-0.4509,-1.1553,67.8035
16:48:34:878,0.8191,-1.7141,12.0752,41.1884,0.7792,-0.4757,-0.9221,68.5262
16:48:34:899,1.5589,-1.2322,10.1599,40.8788,0.5413,-0.2298,-0.9423,69.2567
16:48:34:918,1.2343,-0.7879,9.122,40.511,0.2079,0.134,-1.1455,69.9987
16:48:34:938,0.5384,-0.6776,8.239,40.2885,0.0115,0.5224,-1.2014,70.7584
16:48:34:958,-0.0547,-0.586,7.3057,40.0678,0.0352,0.6639,-1.1207,71.54
16:48:34:977,-0.4313,-0.3039,6.1534,39.8951,0.0715,0.5588,-0.9774,72.3314
16:48:35:000,-0.3372,0.0804,5.6481,39.518,0.0428,0.3684,-0.8342,73.1313
16:48:35:018,-0.3586,0.5607,5.7806,39.0861,0.0294,0.0894,-0.7557,73.9351
16:48:35:038,-0.3706,0.9177,6.3341,38.638,0.0711,-0.2191,-0.7596,74.7407
16:48:35:058,-0.2532,0.6071,6.8747,38.2572,0.1522,-0.5006,-0.7602,75.5481
16:48:35:078,-0.5784,0.2842,7.4313,37.8555,0.1741,-0.5196,-0.5865,76.3561
16:48:35:099,-0.2763,0.3914,7.8886,37.7705,0.0025,-0.3123,-0.2855,77.1574
16:48:35:118,0.7714,1.0461,9.041,37.5195,-0.2086,-0.0806,-0.1777,77.9435
16:48:35:138,0.8728,1.4751,10.0994,37.5021,-0.2052,-0.0108,-0.3012,78.7134
16:48:35:158,0.34,1.3793,10.7731,37.4125,-0.0114,-0.0318,-0.3705,79.4714
16:48:35:180,-0.3008,1.273,10.3921,37.1293,0.2318,0.0767,-0.2426,80.2178
16:48:35:199,-0.297,1.4293,9.6022,37.0165,0.2797,0.1591,-0.1077,80.9479
16:48:35:218,-0.0343,1.6264,9.4387,36.8246,0.0883,0.1243,-0.0902,81.6593
16:48:35:238,0.4706,1.5402,10.7011,36.6156,-0.1336,-0.0575,-0.2126,82.3538
16:48:35:258,0.6503,0.885,12.4305,36.0578,-0.1777,-0.0619,-0.3634,83.0366
16:48:35:279,0.8576,0.7766,13.3224,35.6369,-0.1725,0.286,-0.5147,83.7128
16:48:35:298,0.6312,0.3609,13.0905,35.3281,-0.1236,0.6502,-0.7055,84.388
16:48:35:318,0.2842,-0.3258,12.2099,35.0329,-0.2426,0.6682,-0.7681,85.0687
16:48:35:338,0.401,-0.6722,12.6741,34.9216,-0.2345,0.2808,-0.5641,85.7545
16:48:35:358,0.8459,-0.9954,12.9208,34.7749,0.1562,-0.0448,-0.4682,86.4371
16:48:35:379,0.4671,-1.3919,11.5613,34.9171,0.5922,-0.3004,-0.4984,87.1146
16:48:35:398,0.254,-1.6692,9.6774,34.7382,0.5945,-0.134,-0.4262,87.7875
16:48:35:418,0.1722,-1.2137,8.4161,34.6434,0.2761,0.0027,-0.3837,88.4544
16:48:35:438,0.3547,-0.6445,8.1624,34.5856,-0.1988,-0.0893,-0.4674,89.1157
16:48:35:457,-0.1774,-0.1827,9.1011,34.4636,-0.5252,-0.3325,-0.7271,89.7768
16:48:35:477,-1.2021,-0.2167,9.8981,34.4195,-0.6387,-0.3249,-0.9097,90.4461
16:48:35:498,-2.2966,-0.3596,10.4841,34.6102,-0.5835,-0.1269,-0.8858,91.1276
16:48:35:539,-2.6574,-0.3833,10.2641,34.582,-0.3628,0.1579,-0.6546,91.8176
16:48:35:542,-2.1972,-0.1263,9.5248,34.6763,-0.0552,0.3077,-0.3625,92.5063
16:48:35:561,-1.3376,0.374,8.3314,34.433,0.2772,0.2494,-0.1998,93.1843
16:48:35:578,-1.1426,0.8665,7.0731,34.6662,0.4206,0.027,-0.1585,93.8477
16:48:35:598,-0.9851,0.9964,6.617,34.708,0.3333,-0.1999,-0.1732,94.4967
16:48:35:618,-0.699,0.9579,7.32,35.0402,0.1703,-0.2216,-0.1667,95.132
16:48:35:638,-0.348,1.2213,8.2137,35.3943,0.1088,-0.0794,-0.1939,95.7539
16:48:35:659,-0.2183,1.4283,8.7442,35.4637,0.1752,0.0172,-0.2697,96.3639
16:48:35:678,-0.3341,1.4176,8.9213,35.4644,0.3093,-0.0032,-0.3344,96.9648
16:48:35:699,-0.1562,1.2617,8.8564,35.595,0.4485,-0.1139,-0.3486,97.5586
16:48:35:718,-0.0905,1.229,8.5157,35.8035,0.3959,-0.289,-0.3559,98.1459
16:48:35:738,0.1295,1.2084,9.0558,35.7979,0.0348,-0.5265,-0.4503,98.7287
16:48:35:760,0.1707,0.8236,10.7106,36.4131,-0.3758,-0.511,-0.5814,99.3118
16:48:35:778,-0.0216,0.2285,13.1387,36.7245,-0.5729,-0.2484,-0.6037,99.8993
16:48:35:798,0.0631,-0.1891,14.6779,37.0275,-0.4248,0.0066,-0.5415,100.4904
16:48:35:818,0.9626,-1.0108,14.5205,37.3996,-0.1906,0.1016,-0.5097,101.0822
16:48:35:838,1.2314,-1.4253,13.7058,37.9874,-0.197,0.2535,-0.6157,101.6745
16:48:35:859,0.4826,-1.8431,13.575,38.5384,-0.2963,0.3744,-0.8255,102.2726
16:48:35:878,-0.6717,-2.3774,13.6006,38.9518,0.0128,0.1796,-0.774,102.8816
16:48:35:898,-0.2527,-2.8554,12.6671,39.2477,0.461,-0.1256,-0.4368,103.4954
16:48:35:918,1.2218,-2.7828,11.0059,39.8375,0.8379,-0.463,-0.0613,104.1007
16:48:35:941,2.1185,-1.4695,8.9653,39.9693,0.9528,-0.6162,0.0567,104.6856
16:48:35:958,1.5599,-0.183,7.334,40.3222,0.5146,-0.4807,-0.2004,105.251
16:48:35:978,0.2772,0.2914,7.3892,40.6176,-0.0378,-0.1273,-0.4132,105.8079
16:48:35:998,0.7368,0.0938,7.7833,40.7357,-0.1712,0.147,-0.4394,106.3631
16:48:36:018,0.293,0.3052,7.2256,41.0565,0.0701,0.1499,-0.4728,106.9168
16:48:36:040,-0.4677,0.4227,6.1611,41.3668,0.3138,-0.055,-0.4711,107.4694
16:48:36:058,-0.263,-0.0603,4.907,42.0798,0.2683,-0.1008,-0.4508,108.0211
16:48:36:078,-0.6098,-0.1016,4.6144,42.242,-0.248,-0.0582,-0.4699,108.5718
16:48:36:098,-0.8074,0.1535,6.1455,42.7645,-0.7041,-0.0934,-0.3639,109.1237
16:48:36:118,-0.5889,0.761,7.7691,42.859,-0.7307,-0.1293,-0.0558,109.6722
16:48:36:138,0.5667,0.5392,9.0803,42.8672,-0.3584,-0.2668,0.0567,110.2061
16:48:36:158,1.0876,0.93,8.9347,42.9961,0.1086,-0.3541,0.0347,110.7219
16:48:36:178,1.0036,1.0889,8.2187,43.3983,0.1041,-0.4564,-0.0988,111.2215
16:48:36:198,0.5268,1.0192,8.5695,43.8881,-0.2259,-0.3796,-0.1706,111.711
16:48:36:218,0.1594,0.6423,9.7193,44.4442,-0.4172,-0.0783,-0.0751,112.1927
16:48:36:239,-0.0581,0.606,10.6406,44.9385,-0.3173,0.2636,0.145,112.6618
16:48:36:258,-0.2099,1.1747,10.9121,45.4206,-0.0441,0.3227,0.343,113.11
16:48:36:277,0.4166,1.2159,10.3566,45.7837,0.1465,0.0741,0.3915,113.5329
16:48:36:298,0.9179,0.9403,10.231,46.1498,0.0692,-0.3301,0.2312,113.9308
16:48:36:320,0.7022,0.2372,11.4514,46.2465,-0.2736,-0.5417,0.0403,114.3117
16:48:36:338,0.0214,0.0094,13.5618,46.7011,-0.5275,-0.1217,0.0342,114.682
16:48:36:358,-0.7876,0.3452,14.679,47.0181,-0.314,0.8342,0.2995,115.0384
16:48:36:378,-0.4982,0.3541,13.2285,47.6376,0.0101,1.182,0.5031,115.3719
16:48:36:398,-0.1164,0.493,11.8389,47.8427,0.1886,0.6415,0.5123,115.6783
16:48:36:421,-0.2193,-0.413,11.548,48.3645,0.1711,0.1416,0.3769,115.959
16:48:36:438,-0.9161,-0.7769,11.4201,49.0065,0.3603,-0.3879,0.3534,116.219
16:48:36:458,-0.5832,-0.906,11.1024,49.1839,0.4332,-0.7081,0.4883,116.457
16:48:36:478,0.4958,-0.7403,11.0541,49.5414,0.408,-0.7586,0.4521,116.6695
16:48:36:498,1.499,-0.5694,10.3467,49.8389,0.4178,-0.5471,0.1776,116.8601
16:48:36:519,1.3449,-0.5545,8.9636,49.7573,0.2708,-0.1866,-0.1999,117.0404
16:48:36:538,0.4533,-0.7033,7.8625,50.0525,-0.027,0.132,-0.4365,117.2241
16:48:36:558,-0.6664,-0.7842,7.4772,50.3358,-0.327,0.2398,-0.3971,117.4185
16:48:36:578,-1.3157,-0.3582,8.1492,50.5684,-0.3159,0.0914,-0.1391,117.6203
16:48:36:598,-1.0144,0.0233,8.3829,50.951,0.1033,-0.0878,0.1156,117.8187
16:48:36:618,-0.5476,0.3897,7.2998,51.0792,0.4913,-0.1642,0.2635,118.004
16:48:36:637,-0.0487,0.6139,6.0478,51.0581,0.5499,-0.1367,0.2488,118.172
16:48:36:658,0.2034,0.7252,5.4191,51.1087,0.2642,-0.0083,0.1003,118.3259
16:48:36:677,-0.187,0.8557,6.1714,51.351,-0.1637,0.0136,-0.099,118.4737
16:48:36:700,-0.9129,0.6837,8.0341,51.613,-0.4413,-0.0719,-0.1819,118.6232
16:48:36:718,-1.5025,0.8388,10.279,52.1884,-0.3207,-0.1551,-0.0019,118.7751
16:48:36:738,-1.0593,0.7162,11.4485,52.3022,0.2005,-0.1575,0.2751,118.92
16:48:36:758,-0.421,1.0403,10.5923,52.4384,0.6527,-0.0916,0.4291,119.0467
16:48:36:778,0.1036,1.2064,9.0013,52.7203,0.574,-0.0704,0.3579,119.1521
16:48:36:800,0.7385,0.9428,8.7401,52.8318,0.0996,-0.1836,0.1043,119.2429
16:48:36:818,0.8824,0.502,10.0861,52.9484,-0.3807,-0.3216,-0.1327,119.2429
16:48:36:838,0.3699,0.3675,12.0732,53.0337,-0.5737,-0.3153,-0.1965,119.339
16:48:36:857,0.0631,0.0118,13.5757,53.2909,-0.427,-0.129,-0.1398,119.4411
16:48:36:878,0.8238,-0.6635,13.7721,53.39,-0.0849,0.0918,-0.0112,119.5448
16:48:36:900,2.0867,-1.1771,12.518,53.3947,0.1106,0.2116,-0.0128,119.6448
16:48:36:918,2.0745,-1.0747,11.5084,53.483,0.003,0.0226,-0.2581,119.7437
16:48:36:938,2.0434,-1.296,12.0778,53.4746,-0.2068,-0.1083,-0.5474,119.8519
16:48:36:958,1.9625,-1.8556,12.3955,53.4808,-0.1231,0.1934,-0.6665,119.9773
16:48:36:978,1.5935,-1.9989,11.679,53.3141,0.0889,0.2493,-0.6072,120.1215
16:48:37:000,1.8931,-1.9765,10.583,53.4137,0.2445,-0.0343,-0.4929,120.2801
16:48:37:018,1.7262,-1.3272,9.6307,53.2572,0.1489,-0.4363,-0.55,120.4501
16:48:37:039,0.9152,-0.7401,9.3462,52.9567,-0.0993,-0.5326,-0.6661,120.6349
16:48:37:058,-0.3101,-0.4043,9.0857,53.0028,-0.2664,-0.2088,-0.6567,120.8381
16:48:37:079,-1.0309,-0.132,8.4773,52.7905,-0.2884,0.1431,-0.4987,121.0577
16:48:37:099,-1.108,0.0184,7.6162,52.4762,-0.1835,0.2164,-0.2038,121.2868
16:48:37:118,-0.6145,0.6066,6.9786,52.2297,-0.0357,0.043,0.1029,121.5137
16:48:37:138,-0.0096,1.2131,6.3003,51.8458,-0.0017,-0.0423,0.1631,121.7293
16:48:37:157,-0.1009,1.5793,6.1528,51.5904,-0.1958,0.0007,0.0362,121.934
16:48:37:180,-0.4302,1.3853,6.727,51.5923,-0.3044,0.0776,-0.0461,122.1337
16:48:37:198,-0.8908,0.9793,7.5811,51.5136,-0.2725,0.0835,0.0412,122.3302
16:48:37:218,-0.6655,0.6611,8.2395,51.451,-0.1238,-0.0309,0.2393,122.5188
16:48:37:238,0.09,0.8164,8.772,51.3384,0.0168,-0.2464,0.3908,122.6926
16:48:37:258,0.5883,1.1946,9.3182,51.2191,0.1088,-0.387,0.4227,122.8463
16:48:37:280,0.6321,1.4766,9.8669,51.0489,0.1549,-0.3326,0.343,122.9815
16:48:37:298,0.8901,1.3485,10.2041,50.905,0.1867,-0.0373,0.2655,123.1004
16:48:37:319,1.1881,1.1817,10.2863,50.7658,0.1561,0.3527,0.1743,123.206
16:48:37:338,0.9252,0.9889,10.7247,50.7934,0.0736,0.6417,0.1566,123.302
16:48:37:358,0.7319,0.8717,11.2667,50.9987,0.0478,0.6193,0.1696,123.302
16:48:37:380,0.5702,0.7902,11.7071,51.0241,0.0561,0.2836,0.105,123.302
16:48:37:399,0.2305,0.3909,12.6432,50.9738,0.1086,0.0526,0.0672,123.302
16:48:37:418,-0.0593,0.0654,12.5525,50.7746,0.1755,0.3008,0.1446,123.302
16:48:37:437,-0.4504,-0.2852,11.9289,50.7718,0.0029,0.4761,0.1365,123.302
16:48:37:457,-0.4794,-0.6129,12.4146,50.1989,-0.2848,0.3426,0.1566,123.302
16:48:37:478,-1.3602,-1.1252,14.3825,50.1238,-0.1655,-0.0169,0.1884,123.302
16:48:37:498,-1.2934,-1.5899,14.4946,50.0469,0.3423,-0.5238,0.4109,123.302
16:48:37:518,-0.009,-1.739,12.8389,49.7348,0.603,-0.7595,0.5573,123.302
16:48:37:562,1.5947,-1.121,11.0546,49.6462,0.3823,-0.641,0.4135,123.302
16:48:37:564,2.0988,-0.897,10.0109,49.4465,0.0317,-0.3044,-0.0287,123.302
16:48:37:579,1.1224,-1.174,9.2489,49.3452,-0.1369,0.0655,-0.3303,123.302
16:48:37:598,-0.1193,-1.1818,8.345,49.0811,-0.0148,0.2695,-0.1902,123.302
16:48:37:618,-0.3516,-0.7087,7.0535,48.7011,0.2647,0.2392,0.0821,123.302
16:48:37:637,0.1965,-0.3483,5.2041,48.3513,0.4524,0.1576,0.2522,123.302
16:48:37:659,0.5986,-0.0751,3.7482,48.2604,0.157,0.0622,0.1924,123.302
16:48:37:678,0.4364,0.2106,4.8393,48.3455,-0.3981,-0.107,-0.0574,123.302
16:48:37:698,-0.3701,-0.1457,7.2126,48.171,-0.5876,-0.0661,-0.1961,123.302
16:48:37:718,-1.1129,-0.1716,8.6644,48.2002,-0.313,0.189,-0.0145,123.302
16:48:37:738,-0.8907,0.1825,8.2539,48.002,0.0905,0.4266,0.2953,123.302
16:48:37:759,-0.1244,0.8726,6.9357,47.8596,0.2281,0.4783,0.3913,123.302
16:48:37:778,0.2864,1.3909,6.2652,47.5556,0.0196,0.3871,0.143,123.302
16:48:37:798,-0.2124,1.4945,6.8936,47.4986,-0.3418,0.2409,-0.1817,123.302
16:48:37:818,-0.7869,0.8543,8.7209,47.2848,-0.4954,0.1264,-0.3009,123.302
16:48:37:837,-1.2133,0.2191,10.1329,47.3888,-0.3488,0.0152,-0.2034,123.302
16:48:37:858,-1.3553,-0.2053,10.2912,47.1935,-0.1966,-0.2401,0.0694,123.302
16:48:37:878,-0.7925,-0.129,10.5998,47.0366,-0.3041,-0.6037,0.2281,123.302
16:48:37:898,0.2753,-0.0401,12.3265,46.9086,-0.5627,-0.6655,0.0393,123.302
16:48:37:917,0.7376,-0.8875,14.274,46.9452,-0.6435,-0.2603,-0.1889,123.302
16:48:37:938,1.0915,-1.7461,14.377,46.6164,-0.4963,0.2367,-0.1568,123.302
16:48:37:958,1.3977,-2.0485,13.7409,46.184,-0.3201,0.375,-0.1622,123.302
16:48:37:979,0.8567,-2.2278,13.9497,46.1769,-0.2406,0.3638,-0.3492,123.302
16:48:37:998,0.1922,-2.4865,14.2125,45.7965,0.0187,0.3597,-0.3531,123.302
16:48:38:018,0.1844,-2.8153,13.8017,45.6908,0.2407,0.604,-0.2095,123.302
16:48:38:040,0.913,-2.8469,12.4169,45.4636,0.4416,0.4555,-0.0857,123.302
16:48:38:058,0.6543,-2.4155,10.6831,45.1848,0.3693,0.1291,-0.0072,123.302
16:48:38:078,-0.0478,-1.4146,10.187,44.8916,0.247,-0.4069,0.0841,123.302
16:48:38:099,-0.243,-0.6709,10.2497,44.7132,0.3051,-0.5464,0.1404,123.302
16:48:38:117,-0.1562,-0.3184,9.2993,44.5753,0.4079,-0.3153,0.1671,123.302
16:48:38:138,0.1457,-0.229,7.417,44.4173,0.3619,-0.0871,0.1779,123.302
16:48:38:158,0.8637,0.1409,6.4475,44.4595,0.1039,0.1392,0.1371,123.302
16:48:38:178,0.7661,0.5865,5.9953,44.355,0.0826,0.0323,-0.0134,123.302
16:48:38:198,0.6949,0.5738,6.0106,43.8383,0.0494,-0.0138,-0.0526,123.302
16:48:38:218,0.4701,0.5621,6.4127,43.6525,0.0974,-0.0188,-0.0865,123.302
16:48:38:238,0.4845,0.3402,6.8618,43.4857,0.1429,-0.0199,-0.0633,123.302
16:48:38:258,0.3361,0.3148,7.4744,43.013,0.1269,-0.0224,-0.0745,123.302
16:48:38:278,0.3026,0.2176,8.0544,42.8447,0.0612,-0.0408,-0.0685,123.302
16:48:38:298,0.3197,0.445,8.9224,42.7243,-0.0072,-0.0456,0.0017,123.302
16:48:38:318,0.6319,0.7831,9.9157,42.4405,0.0142,-0.0691,0.0186,123.302
16:48:38:338,0.9258,1.1059,10.7463,42.1398,0.1297,-0.0759,-0.0959,123.302
16:48:38:359,0.6939,1.2265,11.1225,41.9423,0.2508,-0.0963,-0.2362,123.302
16:48:38:378,0.4526,1.3824,11.4497,41.8655,0.3251,-0.0739,-0.3117,123.302
16:48:38:398,-0.0851,1.4591,11.3074,41.5639,0.2708,-0.0317,-0.3183,123.302
16:48:38:419,-0.2759,1.5719,11.9763,41.4219,0.0575,-0.1131,-0.2872,123.302
16:48:38:438,0.1285,1.4499,13.6706,41.2481,-0.0097,-0.2481,-0.2997,123.302
16:48:38:458,0.0815,1.2312,14.4398,40.8467,0.2933,-0.2278,-0.264,123.3937
16:48:38:478,-0.0338,0.8181,12.8055,40.6314,0.6611,-0.2827,-0.0596,123.4875
16:48:38:498,-0.2498,0.7948,11.0086,40.8075,0.5372,-0.4593,0.2223,123.4875
16:48:38:519,0.441,1.2872,11.48,40.5964,0.3558,-0.3694,0.2232,123.4875
16:48:38:538,0.3639,0.7922,11.4894,40.4548,0.4106,-0.0154,0.0101,123.4875
16:48:38:559,-0.0222,0.1206,10.6801,40.4058,0.3665,0.2503,-0.005,123.4875
16:48:38:578,-0.2591,-0.2791,10.0797,40.2369,0.3516,0.1727,0.0863,123.4875
16:48:38:598,-0.1732,-0.362,9.6474,40.1675,0.3906,-0.1315,0.1654,123.4875
16:48:38:618,-0.1665,-0.2252,9.4611,40.2781,0.3826,-0.3565,0.13,123.4875
16:48:38:638,0.0727,-0.5086,9.1389,40.3756,0.3304,-0.2244,0.0887,123.4875
16:48:38:658,0.0862,-0.6505,8.2097,40.4994,0.1731,-0.0134,0.055,123.4875
16:48:38:678,0.0324,-0.4146,7.7811,40.7562,-0.046,0.0282,0.0809,123.4875
16:48:38:698,0.0148,0.0242,8.2739,41.0925,-0.0904,-0.0216,0.1529,123.4875
16:48:38:718,0.2246,0.2216,8.4707,41.1602,0.1392,-0.0064,0.2079,123.4875
16:48:38:738,0.3922,0.4613,7.3201,41.2542,0.2959,0.0486,0.1791,123.4875
16:48:38:758,0.5588,0.5937,6.5772,41.1121,0.1184,0.1665,0.0338,123.4875
16:48:38:778,0.2428,0.7582,6.7401,41.089,-0.0567,0.3167,-0.0859,123.4875
16:48:38:801,-0.5029,1.1163,7.0653,40.9653,-0.0225,0.336,-0.0923,123.4875
16:48:38:818,-0.6405,1.2375,7.2875,40.9377,0.1271,0.2655,-0.0269,123.4875
16:48:38:838,-0.3211,1.3741,7.2791,40.989,0.1991,0.1369,0.0192,123.4875
16:48:38:857,-0.1565,1.6704,7.7862,41.4043,0.1745,0.0103,0.0153,123.4875
16:48:38:878,-0.1592,1.8141,8.3243,41.6714,0.242,-0.0658,-0.0267,123.4875
16:48:38:899,-0.2485,1.7678,8.3869,41.9834,0.2734,-0.1659,-0.0975,123.4875
16:48:38:918,-0.2424,1.7509,8.7559,42.008,0.104,-0.1589,-0.1693,123.4875
16:48:38:939,0.0539,1.4997,9.5871,42.1061,-0.1764,0.0183,-0.2519,123.4875
16:48:38:958,0.3217,1.0458,10.86,42.2976,-0.3584,0.1202,-0.3286,123.4875
16:48:38:978,0.2498,0.773,11.9123,42.0729,-0.1586,-0.0282,-0.2844,123.4875
16:48:38:999,0.2908,1.2103,11.8916,42.2727,0.0934,-0.186,-0.1621,123.4875
16:48:39:019,1.7372,0.686,11.0354,42.2808,0.0121,-0.0615,-0.2085,123.4875
16:48:39:038,2.1971,0.2459,10.8384,42.1289,-0.5422,0.1575,-0.4462,123.4875
16:48:39:058,1.484,-0.4954,13.033,42.262,-1.0202,0.2205,-0.6869,123.5894
16:48:39:078,0.0729,-0.83,15.4604,42.5586,-0.7108,0.356,-0.5461,123.7132
16:48:39:099,-0.2468,-1.1623,14.8649,42.5618,0.1994,0.3091,-0.1134,123.8491
16:48:39:118,0.4384,-0.7827,11.6053,42.7629,0.8551,0.0055,0.289,123.9778
16:48:39:138,1.2805,-0.0694,8.757,43.0005,0.7544,-0.2687,0.3921,124.0875
16:48:39:158,1.7239,0.6085,7.8712,43.2486,0.1622,-0.2291,0.1873,124.1802
16:48:39:180,1.3151,0.7646,8.6013,43.4832,-0.3437,0.0593,-0.0814,124.1802
16:48:39:198,0.3297,0.6703,9.3438,43.8302,-0.4171,0.2636,-0.1481,124.2734
16:48:39:218,-0.1823,0.6639,9.3071,43.9702,-0.169,0.1825,-0.0796,124.3694
16:48:39:238,-0.2246,0.7668,8.6298,43.9062,0.0738,0.0103,-0.0013,124.4644
16:48:39:258,0.044,0.9539,7.8283,43.864,0.1395,-0.0336,0.0415,124.5555
16:48:39:280,0.3331,1.1631,7.434,43.9796,0.1006,-0.0055,0.0289,124.5555
16:48:39:298,0.2977,1.3632,7.2981,44.4025,0.0455,0.0807,-0.0291,124.5555
16:48:39:318,0.0781,1.482,7.2072,44.5078,0.0255,0.179,-0.0421,124.5555
16:48:39:338,-0.0362,1.5334,7.174,44.6915,0.0388,0.1946,0.0009,124.5555
16:48:39:358,0.165,1.5941,7.208,44.5517,0.066,0.1164,0.0517,124.5555
16:48:39:378,0.516,1.7018,7.4664,44.6984,0.0594,0.0347,0.0695,124.5555
16:48:39:398,0.6882,1.8689,7.9254,45.2323,0.0526,0.0013,0.0412,124.5555
16:48:39:418,0.5581,1.9026,8.3706,45.5738,0.0674,-0.0186,0.03,124.5555
16:48:39:437,0.4015,1.9835,8.5165,45.9839,0.0324,-0.0179,0.0835,124.5555
16:48:39:459,0.7203,2.2408,9.0662,46.079,-0.1356,-0.0193,0.1187,124.5555
16:48:39:478,0.8649,2.4857,10.2216,46.2414,-0.267,0.0109,0.0867,124.5555
16:48:39:499,0.7629,2.36,11.5518,46.3777,-0.1918,0.0095,0.0845,124.5555
16:48:39:518,0.8193,1.9017,12.0378,46.3053,0.0052,-0.0011,0.1249,124.5555
16:48:39:538,0.7721,1.5277,12.028,46.6124,0.0336,0.1538,0.1373,124.5555
16:48:39:574,-0.0549,1.4088,11.6982,47.0125,-0.0768,0.5922,0.1277,124.5555
16:48:39:581,-0.9363,0.7463,11.1708,47.2476,-0.2013,0.7303,0.1555,124.5555
16:48:39:598,-1.6685,0.6071,11.3681,47.4814,-0.258,0.3493,0.3107,124.5555
16:48:39:618,-0.9259,0.6168,11.8982,47.737,-0.0309,-0.0759,0.5786,124.5555
16:48:39:638,0.2324,0.7484,11.1266,47.95,0.2708,-0.3643,0.663,124.5555
16:48:39:659,0.8062,0.7538,10.0096,47.785,0.1212,-0.5297,0.4574,124.5555
16:48:39:678,0.6661,0.4445,10.5235,48.3111,-0.27,-0.7362,0.1469,124.5555
16:48:39:698,0.3336,0.1448,11.9466,48.5079,-0.3786,-0.6324,0.0394,124.5555
16:48:39:718,0.0412,-0.0757,12.082,48.6047,-0.196,-0.212,0.0363,124.5555
16:48:39:738,-0.0819,-0.0199,10.1316,49.0187,0.0292,0.0379,0.0888,124.5555
16:48:39:759,0.3198,0.0005,8.4813,49.2273,-0.0188,0.0832,0.051,124.5555
16:48:39:778,0.174,0.2251,7.9461,49.3166,-0.1887,0.0536,-0.0408,124.5555
16:48:39:799,-0.2436,0.4014,8.1179,49.3339,-0.2191,0.0472,-0.0508,124.5555
16:48:39:818,-0.3539,0.5811,8.1271,49.3816,-0.0467,0.009,0.0342,124.5555
16:48:39:838,0.0021,0.8261,7.521,49.3898,0.1503,0.0135,0.1269,124.5555
16:48:39:858,0.332,1.1865,6.7052,49.4705,0.1807,0.0742,0.1032,124.5555
16:48:39:878,0.4341,1.2699,6.1567,49.6056,-0.0145,0.171,-0.0285,124.5555
16:48:39:898,-0.0754,1.3999,6.7309,49.7476,-0.2637,0.1813,-0.1543,124.5555
16:48:39:918,-0.7677,1.3349,8.0399,49.9429,-0.2741,0.1081,-0.1488,124.5555
16:48:39:941,-0.966,1.2225,9.0075,50.0942,-0.0335,-0.0012,0.0073,124.5555
16:48:39:959,-0.6174,1.4979,8.8902,50.6241,0.2267,-0.0915,0.1426,124.5555
16:48:39:978,-0.1778,1.8177,8.2873,50.6065,0.2148,-0.1903,0.1018,124.5555
16:48:39:998,-0.006,1.9,8.341,50.9925,-0.047,-0.2537,-0.0509,124.5555
16:48:40:018,0.0658,1.4422,9.7158,51.3467,-0.3302,-0.4297,-0.2196,124.5555
16:48:40:040,0.3562,0.2954,11.7484,51.369,-0.3895,-0.4775,-0.2801,124.5555
16:48:40:058,0.1967,-0.2365,13.2051,51.49,-0.3291,-0.276,-0.1844,124.5555
16:48:40:078,0.1562,-0.0997,13.7111,51.7723,-0.1402,0.1035,0.046,124.5555
16:48:40:098,0.8324,0.1611,12.702,51.9027,0.1461,0.4449,0.1779,124.5555
16:48:40:118,1.3318,-0.1019,10.658,52.0081,0.2008,0.4035,0.0295,124.5555
16:48:40:140,0.6911,-0.2374,9.9911,52.1806,-0.1312,0.0116,-0.2496,124.5555
16:48:40:158,0.4711,-0.7785,11.4127,52.2074,-0.4278,-0.2738,-0.3484,124.5555
16:48:40:178,1.044,-1.1649,13.0736,52.5116,-0.4501,-0.2623,-0.3222,124.5555
16:48:40:199,1.5427,-1.2042,13.584,52.8271,-0.2891,0.0055,-0.3402,124.5555
16:48:40:218,1.6076,-1.2199,12.1568,52.8172,-0.0682,0.4444,-0.3173,124.5555
16:48:40:238,1.5598,-0.7805,9.9725,52.9815,0.0316,0.5809,-0.27,124.5555
16:48:40:259,1.5802,-0.7591,8.2589,53.0289,-0.0508,0.1349,-0.3325,124.5555
16:48:40:278,0.4437,-0.35,8.4089,52.7206,-0.3658,-0.3545,-0.3601,124.5555
16:48:40:298,-0.369,0.0796,9.6161,52.8262,-0.3354,-0.3704,-0.2032,124.5555
16:48:40:320,-0.7178,0.5317,9.2226,52.6899,0.0244,-0.0335,0,124.6502
16:48:40:338,-0.5649,0.8499,7.2013,52.3997,0.279,0.1971,0.1552,124.6502
16:48:40:358,-0.0992,1.2406,5.4643,52.6143,0.2279,0.2635,0.2286,124.6502
16:48:40:378,0.5053,1.382,4.6937,52.5038,0.0326,0.2282,0.1566,124.6502
16:48:40:398,0.7183,1.3922,4.9528,52.933,-0.2135,0.071,-0.0013,124.6502
16:48:40:419,0.5045,1.1984,6.5016,53.1484,-0.3735,-0.1873,-0.1465,124.6502
16:48:40:438,0.3437,1.0373,8.5103,53.2839,-0.3109,-0.3803,-0.1178,124.6502
16:48:40:458,0.3066,1.1657,10.0216,53.1899,-0.0852,-0.3928,-0.0093,124.6502
16:48:40:478,0.5935,1.3589,10.2561,53.299,0.1731,-0.0997,0.0874,124.6502
16:48:40:498,0.8217,1.7131,9.6077,53.3069,0.216,0.1315,0.0589,124.6502
16:48:40:519,0.6956,1.8319,9.52,53.6143,0.0657,0.1236,-0.0236,124.6502
16:48:40:538,0.4148,1.7913,10.35,53.7028,-0.0336,-0.0092,-0.035,124.6502
16:48:40:558,0.296,1.5623,11.6438,53.652,0.0282,-0.1761,0.0405,124.6502
16:48:40:577,0.0842,1.186,12.8336,53.7691,0.271,-0.2857,0.1747,124.6502
16:48:40:598,-0.0881,0.8287,12.8883,53.6256,0.6102,-0.1995,0.3168,124.6502
16:48:40:619,-0.2112,0.729,11.3418,53.0836,0.5271,0.2139,0.3928,124.6502
16:48:40:638,-0.5326,0.5559,10.339,53.196,-0.1421,0.631,0.3739,124.6502
16:48:40:658,-1.2292,0.2805,11.5478,52.9012,-0.7915,0.621,0.379,124.6502
16:48:40:678,-1.662,-0.6441,13.5012,52.8614,-0.7895,0.2605,0.4936,124.6502
16:48:40:700,-2.233,-1.1383,14.2732,52.9514,-0.175,-0.3354,0.7266,124.6502
16:48:40:718,-1.7739,-1.1736,12.8091,53.0289,0.5438,-0.959,1.0211,124.6502
16:48:40:738,-0.1732,-0.7566,11.1556,52.8078,0.6234,-1.078,1.0624,124.6502
16:48:40:758,1.0139,-0.7672,10.0927,52.543,0.2962,-0.942,0.7535,124.5466
16:48:40:778,0.9342,-0.6561,10.2754,52.2248,-0.3072,-0.5973,0.4898,124.4235
16:48:40:801,0.845,-0.5194,11.0907,52.0065,-0.5531,-0.0952,0.404,124.2912
16:48:40:818,0.7274,-0.1086,10.8257,51.6688,-0.4491,0.404,0.4205,124.152
16:48:40:838,0.8215,0.1948,9.7724,51.5123,-0.1458,0.6919,0.4433,124.0041
16:48:40:858,0.8609,0.4079,8.1338,51.172,0.19,0.7844,0.4627,123.845
16:48:40:877,0.9159,0.5779,7.0176,50.7523,0.5003,0.5489,0.4054,123.6734
16:48:40:899,1.4683,0.3621,6.2062,50.6574,0.6958,0.2655,0.2367,123.4916
16:48:40:918,1.2407,0.3893,5.5236,50.3721,0.6142,0.159,0.0586,123.3058
16:48:40:938,0.7008,0.4772,5.3393,50.112,0.3402,0.1299,-0.1067,123.1232
16:48:40:958,-0.0705,0.396,6.5544,49.766,0.0325,0.0842,-0.1969,122.9502
16:48:40:977,-0.6662,0.5015,8.263,49.5644,0.0448,0.0829,-0.161,122.7891
16:48:40:999,-0.5574,0.5914,8.874,49.3119,0.2808,0.1533,-0.0303,122.6366
16:48:41:018,0.1651,0.8554,8.4964,48.792,0.3723,0.1816,0.0201,122.4873
16:48:41:038,0.7121,1.0927,8.3433,48.8125,0.1679,0.2835,-0.1196,122.342
16:48:41:057,0.4482,1.1028,8.9397,48.6637,-0.0588,0.4183,-0.2753,122.2067
16:48:41:080,0.0121,0.9834,9.3651,48.3357,-0.1362,0.4612,-0.3148,122.0858
16:48:41:098,-0.05,0.6358,9.1923,47.8014,-0.3076,0.3362,-0.409,121.9807
16:48:41:118,-0.1058,0.2629,10.1213,47.506,-0.6522,0.1638,-0.5187,121.9807
16:48:41:138,0.4938,-0.9271,12.1188,46.906,-0.766,0.1287,-0.5655,121.9807
16:48:41:158,0.4255,-1.42,13.86,46.6872,-0.7776,0.123,-0.6743,121.9807
16:48:41:181,-0.4699,-1.9657,16.0537,46.5489,-0.6228,0.0102,-0.7632,121.9807
16:48:41:198,-1.1701,-2.5668,16.7898,46.2538,-0.0015,0.1499,-0.5606,121.9807
16:48:41:218,-0.884,-2.7495,14.9312,46.1875,0.5974,0.3821,-0.1979,121.9807
16:48:41:238,0.1703,-2.3494,12.0916,45.9723,0.7645,0.5224,0.0326,121.9807
16:48:41:258,0.667,-1.6019,9.8796,45.8093,0.5081,0.462,0.0012,121.9807
16:48:41:280,0.2248,-0.7474,8.753,45.4703,0.1523,0.0401,-0.1259,121.9807
16:48:41:298,-0.5159,-0.1964,9.0806,45.2744,-0.1617,-0.1494,-0.177,121.9807
16:48:41:318,-0.9318,0.2854,9.055,45.3265,-0.1642,-0.2012,-0.1235,121.9807
16:48:41:338,-0.7349,0.3911,8.3958,45.0892,-0.1255,-0.1151,-0.0299,121.9807
16:48:41:358,-0.1059,0.7697,7.4243,45.0478,-0.0136,-0.0239,0.0465,121.9807
16:48:41:378,0.5977,1.1047,6.2835,45.007,0.0807,0.0338,0.0116,121.9807
16:48:41:398,0.7157,1.3954,5.4109,44.7994,0.0696,-0.1102,-0.2021,121.9807
16:48:41:418,0.4426,1.2658,5.4408,44.7422,-0.073,-0.2042,-0.4045,121.9807
16:48:41:438,-0.3438,1.1294,6.7542,44.7262,-0.1614,-0.2534,-0.4302,121.9807
16:48:41:457,-0.3929,0.9704,8.4113,44.7358,-0.0457,-0.328,-0.2798,121.9807
16:48:41:478,0.002,1.1348,9.3738,44.8938,0.2087,-0.2885,-0.1107,121.9807
16:48:41:498,0.0498,1.5351,9.3603,44.8968,0.4072,-0.1687,-0.0432,121.9807
16:48:41:518,0.0025,1.7821,8.8331,44.7511,0.4681,-0.0079,-0.0691,121.9807
16:48:41:538,0.0149,1.821,8.2272,44.5292,0.3574,0.1256,-0.0891,121.9807
16:48:41:558,-0.267,2.102,8.5172,44.3453,0.1303,0.1105,-0.1038,122.0729
16:48:41:597,-0.7171,2.2332,9.519,44.1842,0.0662,0.0131,-0.074,122.1656
16:48:41:599,-1.1358,2.2301,10.2525,43.9682,0.1187,-0.1159,0.048,122.2568
16:48:41:618,-0.8201,2.0844,10.8601,44.0849,0.1294,-0.2754,0.1408,122.2568
16:48:41:638,0.0091,1.6513,11.5104,44.0239,-0.0277,-0.3722,0.0638,122.2568
16:48:41:659,-0.1771,1.5867,12.3591,43.8658,-0.406,-0.0698,-0.0073,122.2568
16:48:41:678,-0.8524,1.3355,13.4202,44.173,-0.7024,0.3656,0.0413,122.2568
16:48:41:699,-1.0893,0.4874,14.6823,44.2678,-0.7309,0.4929,0.2321,122.2568
16:48:41:718,-1.3698,-0.7698,15.18,44.087,-0.1488,0.2475,0.4253,122.2568
16:48:41:737,-2.0544,-1.3941,13.1209,44.1858,0.597,-0.1083,0.6777,122.2568
16:48:41:760,-1.9323,-1.1647,10.0999,44.5587,0.7905,-0.3253,0.9401,122.2568
16:48:41:778,-0.9334,-0.706,8.4784,44.3239,0.3138,-0.5979,0.9535,122.2568
16:48:41:798,-0.1025,-0.377,9.3796,44.4595,-0.2422,-0.6867,0.8014,122.2568
16:48:41:818,0.1499,-0.1723,10.3714,44.6385,-0.3151,-0.6561,0.6191,122.2568
16:48:41:837,0.2871,0.0317,9.8357,44.8505,-0.2157,-0.5077,0.4595,122.2568
16:48:41:858,0.2317,0.317,8.719,44.9751,-0.1808,-0.2563,0.2867,122.1622
16:48:41:878,0.011,0.4125,7.8919,45.2038,-0.1779,0.0553,0.1841,122.0624
16:48:41:898,-0.0233,0.3299,7.0203,45.201,-0.1066,0.2007,0.1579,121.9603
16:48:41:918,0.2291,0.2514,6.4585,45.5593,-0.0972,0.064,0.1186,121.8564
16:48:41:940,-0.0421,0.3298,7.2598,45.345,-0.0765,-0.2581,0.0522,121.7528
16:48:41:960,-0.2938,0.3311,8.4457,45.6541,0.2113,-0.358,0.0876,121.6498
16:48:41:978,-0.1689,0.4806,8.2495,45.4392,0.5107,-0.1341,0.1389,121.5446
16:48:41:998,0.0508,0.7717,7.3313,45.3377,0.5407,0.2034,0.1539,121.4349
16:48:42:018,0.3473,1.0278,6.5717,45.1739,0.2764,0.4123,0.0481,121.3223
16:48:42:040,0.3304,1.1391,7.1392,45.1217,-0.0829,0.3467,-0.1033,121.2125
16:48:42:058,-0.1688,1.0205,8.7944,45.2652,-0.2686,0.0685,-0.2158,121.1116
16:48:42:079,-0.8173,1.0252,10.5877,45.4798,-0.1541,-0.1729,-0.1887,121.1116
16:48:42:098,-0.9425,0.9129,11.504,45.3813,0.1944,-0.1883,-0.087,121.1116
16:48:42:118,-0.4562,0.731,10.752,45.6895,0.3493,-0.0881,-0.0381,121.1116
16:48:42:140,0.2493,0.4338,10.2898,45.663,0.1739,-0.0731,-0.1249,121.1116
16:48:42:158,0.6145,-0.2675,10.674,45.4246,-0.2173,-0.0711,-0.2704,121.1116
16:48:42:178,1.1729,-1.0498,12.0994,45.4586,-0.477,0.0112,-0.2488,121.1116
16:48:42:198,1.7978,-1.4608,12.8785,45.541,-0.5995,-0.0048,-0.353,121.1116
16:48:42:218,1.8717,-1.6593,13.9268,45.476,-0.7385,-0.0708,-0.6042,121.1116
16:48:42:238,1.3854,-1.9665,14.8908,45.2785,-0.7728,0.2697,-0.7503,121.1116
16:48:42:258,0.453,-1.9218,14.9982,45.1164,-0.4998,0.6124,-0.6609,121.1116
16:48:42:278,0.3792,-1.7987,13.45,45.1286,0.018,0.44,-0.3688,121.1116
16:48:42:298,0.8163,-1.0358,11.6968,45.1787,0.1693,0.2489,-0.1819,121.1116
16:48:42:318,0.6655,-0.2222,10.2629,45.347,0.2415,-0.0935,-0.1684,121.1116
16:48:42:338,0.2667,0.3759,9.4238,45.386,0.1654,-0.0983,-0.1464,121.1116
16:48:42:358,0.2502,0.4213,8.5768,45.5138,0.1754,0.0399,-0.1683,121.1116
16:48:42:378,0.241,0.5,7.5322,45.3304,0.1306,0.3247,-0.132,121.1116
16:48:42:399,0.3448,0.7235,6.6112,45.3995,0.1096,0.3648,-0.1829,121.1116
16:48:42:420,0.3315,0.8986,6.1746,45.4593,0.0994,0.1949,-0.3147,121.1116
16:48:42:438,-0.1569,0.8145,5.9536,45.5792,0.0736,-0.0235,-0.4712,121.2018
16:48:42:458,-0.5428,0.5785,6.375,45.4889,-0.0178,-0.1634,-0.4817,121.3061
16:48:42:478,-0.7161,0.7026,7.3515,45.4437,-0.0361,-0.1362,-0.3942,121.4232
16:48:42:498,-0.7246,0.7822,7.9394,45.2879,0.0642,-0.005,-0.3144,121.5494
16:48:42:519,-0.8385,0.9394,7.9289,44.9476,0.1512,0.0488,-0.2006,121.6813
16:48:42:538,-0.4675,1.2254,8.0773,44.9882,0.1305,-0.0093,-0.1171,121.8149
16:48:42:558,-0.3153,1.538,8.9795,44.9738,0.0654,-0.087,-0.0915,121.9485
16:48:42:578,-0.3613,1.5069,10.2143,44.9695,0.153,-0.0241,-0.0601,122.0802
16:48:42:598,-0.5418,1.3627,10.7328,45.0414,0.3315,0.119,0.0408,122.2087
16:48:42:619,-0.3999,1.1735,10.5101,45.1842,0.4447,0.2527,0.1997,122.3293
16:48:42:638,0.1972,1.2779,10.21,45.223,0.3713,0.2209,0.2594,122.4376
16:48:42:658,0.6769,1.238,10.1196,45.2476,0.1229,0.1479,0.1501,122.5331
16:48:42:678,0.3031,0.8801,10.7278,45.225,-0.1681,0.0984,-0.0068,122.5331
16:48:42:700,-1.1073,0.4701,11.8212,45.1968,-0.2635,0.142,0.0343,122.6241
16:48:42:718,-1.9404,0.2293,12.4105,45.416,-0.0123,0.2521,0.3229,122.6241
16:48:42:738,-1.649,0.1678,11.1307,45.3555,0.0554,0.4434,0.5938,122.6241
16:48:42:758,-1.3437,0.335,10.9573,45.2329,-0.1428,0.4451,0.661,122.6241
16:48:42:778,-1.5144,0.009,11.0517,45.3912,-0.0271,0.1393,0.6526,122.6241
16:48:42:800,-1.5728,-0.2061,10.6451,44.9508,0.0843,-0.1632,0.7415,122.6241
16:48:42:818,-1.2059,-0.1305,10.3633,44.8517,0.2029,-0.5158,0.7747,122.6241
16:48:42:838,-0.2434,-0.1596,9.9052,44.8472,0.0666,-0.8828,0.6956,122.6241
16:48:42:858,0.1931,0.2112,11.0149,44.7551,-0.2688,-0.9447,0.4595,122.6241
16:48:42:878,0.1896,0.2626,11.7174,45.0126,-0.322,-0.5345,0.2204,122.6241
16:48:42:900,-0.416,0.3524,10.9304,45.2003,-0.3265,0.2124,0.0978,122.6241
16:48:42:918,-0.7819,0.3097,9.5237,45.2763,-0.226,0.6738,0.1147,122.5336
16:48:42:938,-0.8522,0.2571,7.9802,45.1093,-0.0676,0.7993,0.2399,122.4411
16:48:42:958,-0.6353,0.258,6.7742,45.1685,0.0077,0.5012,0.347,122.3418
16:48:42:978,-0.2685,0.4819,6.6534,44.9381,0.062,0.0792,0.4316,122.2331
16:48:43:000,-0.17,0.7937,7.037,44.6,0.2052,-0.263,0.4107,122.1124
16:48:43:019,-0.1565,0.9331,7.7153,44.4234,0.4398,-0.3446,0.3643,121.9806
16:48:43:038,-0.2104,1.0374,7.4073,44.5023,0.6525,-0.1973,0.3219,121.8391
16:48:43:058,-0.0733,1.1386,6.5535,44.8183,0.5553,-0.0458,0.2677,121.6892
16:48:43:078,-0.0995,1.3235,6.7846,44.7815,0.2788,-0.0625,0.1587,121.535
16:48:43:098,-0.3607,1.3777,7.924,45.0002,0.1337,-0.2063,0.0748,121.3804
16:48:43:118,-0.5494,1.2223,8.9368,44.8331,0.1794,-0.4549,0.0271,121.2279
16:48:43:138,-0.1532,0.7077,9.5229,44.7521,0.2294,-0.5478,0.0345,121.0782
16:48:43:158,0.1641,0.3507,9.8763,44.449,0.1413,-0.3504,0.0801,120.9312
16:48:43:180,0.2676,0.3922,10.3268,44.1535,-0.1325,-0.054,0.0957,120.7858
16:48:43:198,0.2433,0.2549,11.2274,43.9719,-0.3913,0.0908,0.0369,120.6434
16:48:43:219,0.9818,-0.2405,12.0812,43.9718,-0.493,0.0645,-0.0584,120.5064
16:48:43:238,2.0574,-0.7945,12.3321,43.8472,-0.5788,0.0019,-0.2181,120.3786
16:48:43:258,1.9397,-1.1962,12.7468,43.7249,-0.8959,-0.1443,-0.5541,120.2672
16:48:43:280,0.7645,-1.582,14.603,43.7669,-1.1422,-0.2047,-0.9177,120.2672
16:48:43:299,-0.3777,-2.2851,16.3875,43.7998,-0.8214,0.0588,-0.8092,120.2672
16:48:43:318,-0.0163,-2.8479,15.3416,43.665,-0.0771,0.3163,-0.4647,120.2672
16:48:43:338,0.8072,-2.6436,12.2158,43.632,0.212,0.3291,-0.1408,120.2672
16:48:43:358,1.4222,-1.6993,10.3071,43.3109,-0.0333,0.119,-0.1089,120.2672
16:48:43:380,1.1615,-0.8752,9.6861,42.97,-0.2325,0.0763,-0.2145,120.2672
16:48:43:398,0.4176,-0.2739,8.6017,42.6537,-0.2674,0.2332,-0.2723,120.2672
16:48:43:418,-0.1663,0.0441,7.7423,42.468,-0.2387,0.3514,-0.2601,120.2672
16:48:43:438,-0.2668,0.1197,7.0944,42.3893,-0.0948,0.3385,-0.194,120.2672
16:48:43:459,-0.1477,0.3387,6.309,42.3855,0.049,0.2196,-0.0906,120.2672
16:48:43:478,-0.1264,0.751,5.7061,42.2264,0.0601,0.041,-0.0734,120.2672
16:48:43:498,-0.0135,1.0696,5.7557,42.1132,0.0078,-0.0411,-0.1326,120.2672
16:48:43:518,-0.0858,1.0554,6.1966,41.7124,-0.0781,-0.0861,-0.2434,120.2672
16:48:43:538,-0.7027,1.0448,7.3221,41.3932,-0.1248,-0.2157,-0.2782,120.2672
16:48:43:560,-0.5354,0.7024,8.8702,41.2904,-0.0028,-0.3453,-0.1909,120.2672
16:48:43:606,0.0291,0.6158,9.6962,40.9454,0.1671,-0.3452,-0.0715,120.2672
16:48:43:609,0.3314,0.8855,9.9133,40.8571,0.228,-0.1079,-0.0494,120.2672
16:48:43:618,0.3321,0.9981,9.8502,40.4827,0.1521,0.2643,-0.0822,120.2672
16:48:43:638,0.179,0.9891,9.8708,40.1383,-0.0017,0.4698,-0.1136,120.2672
16:48:43:659,0.0086,1.0266,10.3837,40.1215,-0.0752,0.406,-0.0904,120.2672
16:48:43:678,-0.2493,1.1354,10.7533,39.5855,-0.029,0.3027,-0.0254,120.2672
16:48:43:698,-0.4292,1.4687,11.1196,39.5868,0.0489,0.2182,0.0517,120.2672
16:48:43:718,-0.4178,1.5195,11.3628,39.558,0.1152,0.1083,0.0793,120.2672
16:48:43:738,-0.5567,1.4862,11.7352,39.1521,0.0611,0.0994,0.1246,120.2672
16:48:43:758,-0.5333,1.4407,12.0076,38.7178,0.0119,0.3002,0.2503,120.2672
16:48:43:778,-0.4361,1.2278,11.8316,38.5037,-0.1322,0.3568,0.3251,120.2672
16:48:43:798,0.1157,0.348,12.6852,38.1434,-0.4273,0.2462,0.3087,120.2672
16:48:43:818,-1.0572,-0.5907,14.2165,38.0631,-0.0761,-0.2591,0.3374,120.2672
16:48:43:839,-2.182,-1.7021,13.6723,37.707,0.5805,-0.6356,0.6064,120.2672
16:48:43:859,-2.1548,-1.5397,11.6459,37.4611,0.9791,-0.9265,1.0338,120.2672
16:48:43:878,-0.5199,-0.839,10.3747,37.3194,0.8005,-0.8799,1.1947,120.2672
16:48:43:898,0.5833,-0.2596,9.5021,36.7533,0.5114,-0.704,0.9403,120.2672
16:48:43:918,0.8168,-0.1121,8.8951,36.4796,0.0483,-0.2998,0.6264,120.1559
16:48:43:941,0.567,0.1488,8.5987,36.5339,-0.2003,0.1108,0.3278,120.0299
16:48:43:958,0.0865,0.2065,7.9572,36.3865,-0.2254,0.4437,0.1527,119.8982
16:48:43:978,-0.1564,0.1062,7.0903,36.5371,-0.0698,0.502,0.0871,119.7669
16:48:43:998,-0.3077,0.0415,6.4032,36.7378,0.0295,0.3067,0.0679,119.6367
16:48:44:018,-0.3223,0.1542,6.6207,36.6791,0.1518,-0.0622,0.0538,119.5078
16:48:44:040,-0.4344,0.3553,6.806,36.5519,0.2908,-0.2137,0.0494,119.3803
16:48:44:058,-0.4494,0.6123,6.8936,36.6692,0.374,-0.0627,0.062,119.2534
16:48:44:078,-0.3154,0.7579,6.4753,36.2644,0.3641,0.2295,0.0073,119.1277
16:48:44:098,-0.3476,0.7958,6.2457,36.1704,0.185,0.4224,-0.0611,119.0056
16:48:44:119,-0.3166,0.9604,6.7714,36.2592,0.0035,0.4027,-0.1679,118.8901
16:48:44:140,-0.585,1.07,7.8198,36.1465,-0.085,0.2248,-0.2779,118.7851
16:48:44:158,-1.0976,1.1629,9.0102,35.9997,0.0488,-0.0476,-0.2435,118.6936
16:48:44:178,-1.051,1.22,9.2303,36.1582,0.291,-0.1201,-0.1253,118.6936
16:48:44:198,-0.5587,1.3086,8.5606,36.1599,0.2524,-0.1022,-0.0921,118.6936
16:48:44:218,0.179,1.1871,8.4756,36.1634,-0.0901,-0.0715,-0.2559,118.6936
16:48:44:238,0.2311,0.5562,9.801,36.5216,-0.5759,-0.1909,-0.5544,118.6936
16:48:44:258,-0.3172,-0.5362,12.3145,36.3582,-0.9006,-0.258,-0.6238,118.6936
16:48:44:278,-0.5366,-1.1121,14.6836,36.0522,-0.7632,-0.1669,-0.3158,118.6936
16:48:44:298,0.8234,-1.4304,14.7902,35.9491,-0.2853,-0.0802,-0.0178,118.6936
16:48:44:320,1.6699,-1.0987,13.5625,36.1425,-0.2381,-0.1647,-0.1272,118.6936
16:48:44:338,1.6062,-1.2246,13.9611,35.7232,-0.5208,-0.0339,-0.4169,118.6936
16:48:44:358,1.0383,-1.603,14.3539,35.8774,-0.5792,0.3068,-0.5363,118.6936
16:48:44:377,0.3632,-2.017,14.5401,35.9011,-0.4036,0.4069,-0.4618,118.6936
16:48:44:398,0.4354,-2.1503,13.648,35.7967,-0.0272,0.1942,-0.2312,118.6936
16:48:44:418,0.8477,-1.5725,12.0578,35.7851,0.2008,0.0255,-0.0546,118.6936
16:48:44:438,0.8559,-0.6334,10.3432,36.0692,0.2434,-0.0219,-0.0875,118.6936
16:48:44:458,0.3364,-0.1899,8.8606,36.0995,0.2085,0.06,-0.1937,118.6936
16:48:44:477,-0.1139,0.0675,7.5487,36.4474,0.1453,0.1953,-0.1963,118.6936
16:48:44:498,-0.3994,0.3572,6.3782,36.6555,0.0723,0.3236,-0.1567,118.6936
16:48:44:519,-0.4768,0.5966,5.5864,36.9354,0.0041,0.3439,-0.1388,118.6936
16:48:44:538,-0.5627,0.7771,5.4833,36.9231,-0.0068,0.2002,-0.1273,118.6936
16:48:44:558,-0.562,0.8611,5.869,37.064,0.0695,-0.0048,-0.0751,118.6936
16:48:44:578,-0.2379,0.9953,6.2281,37.2805,0.2206,-0.2209,0.0296,118.6936
16:48:44:599,0.1529,1.2811,6.5319,36.9669,0.2876,-0.4037,0.0038,118.6936
16:48:44:618,0.6143,1.1122,7.0347,36.9697,0.2438,-0.4802,-0.1294,118.6936
16:48:44:639,0.4497,0.8378,7.9837,37.1462,0.0869,-0.5479,-0.2591,118.7866
16:48:44:658,0.0352,0.6285,9.7491,36.9004,-0.0091,-0.5124,-0.2464,118.8861
16:48:44:678,0.0134,0.5703,11.1342,37.0452,0.1259,-0.2075,-0.0459,118.9894
16:48:44:700,0.3835,0.8664,11.063,37.0501,0.3301,0.1889,0.1248,119.0885
16:48:44:718,0.7369,1.3989,10.0636,37.0503,0.339,0.4448,0.1169,119.1789
16:48:44:738,0.9274,1.7061,9.4874,37.2031,0.1354,0.5144,-0.0207,119.1789
16:48:44:758,0.4034,1.6728,10.1674,37.0607,-0.0948,0.3752,-0.1844,119.1789
16:48:44:777,-0.3096,1.0565,11.5629,37.263,-0.1315,0.2171,-0.2179,119.273
16:48:44:800,-0.7336,0.5424,12.2113,37.3821,-0.0718,0.316,-0.0816,119.3708
16:48:44:818,-0.8901,0.5726,11.788,37.2962,-0.1416,0.5198,0.0808,119.4673
16:48:44:838,-0.8793,1.049,11.5571,37.5363,-0.5929,0.5352,0.2186,119.5581
16:48:44:858,-0.3156,0.8783,13.2518,37.8212,-0.7705,0.1506,0.2384,119.5581
16:48:44:878,-0.732,0.0212,14.5005,37.8791,-0.2204,-0.1944,0.0637,119.5581
16:48:44:900,-2.0383,-1.4979,12.7675,38.0445,0.5197,-0.53,0.1454,119.5581
16:48:44:919,-1.8547,-1.7903,10.4794,38.4364,0.5929,-0.6389,0.4845,119.5581
16:48:44:938,-0.7687,-1.1073,9.3918,38.4433,0.1895,-0.5334,0.5567,119.5581
16:48:44:958,0.4517,-0.5916,9.3705,38.4311,-0.2588,-0.414,0.2944,119.5581
16:48:44:977,0.3618,-0.4791,9.5314,38.7246,-0.5444,-0.0269,-0.0516,119.5581
16:48:44:998,-0.6188,-0.4911,9.2,38.7694,-0.5196,0.2926,-0.2244,119.5581
16:48:45:018,-1.2372,-0.6138,8.3134,38.9043,-0.34,0.4795,-0.1301,119.5581
16:48:45:038,-1.2309,-0.5506,7.4827,39.2072,-0.1656,0.3661,0.0236,119.5581
16:48:45:057,-1.0413,-0.2299,7.3129,39.3265,-0.0175,0.0338,0.1546,119.5581
16:48:45:079,-0.9978,0.0967,7.4547,39.5356,0.2255,-0.2996,0.2408,119.5581
16:48:45:098,-0.8142,0.2105,7.1963,39.5522,0.4563,-0.3764,0.3462,119.5581
16:48:45:118,-0.4515,0.402,6.563,39.7234,0.5259,-0.296,0.3842,119.5581
16:48:45:138,0.0886,0.6834,6.043,39.7837,0.3542,-0.1247,0.2953,119.5581
16:48:45:158,0.287,0.8519,6.1977,40.067,-0.0147,0.0364,0.0776,119.5581
16:48:45:181,-0.304,0.992,7.5878,40.2287,-0.3267,0.0868,-0.1272,119.5581
16:48:45:198,-1.1445,0.8701,9.4471,40.4528,-0.2744,0.0774,-0.1249,119.5581
16:48:45:218,-1.2059,0.6758,10.3883,40.82,0.1024,-0.0176,0.027,119.5581
16:48:45:238,-1.0411,0.6534,10.1939,40.9484,0.3717,-0.1899,0.1829,119.5581
16:48:45:258,-0.5535,0.7817,10.0088,40.994,0.342,-0.3216,0.2094,119.5581
16:48:45:280,-0.0524,0.7101,10.2556,41.4017,0.1267,-0.3319,0.1329,119.5581
16:48:45:298,0.3766,0.3049,10.9654,41.8655,-0.181,-0.3637,-0.0527,119.5581
16:48:45:318,0.4149,-0.2512,12.4901,42.3455,-0.45,-0.2748,-0.1495,119.5581
16:48:45:338,1.1661,-0.7824,13.9737,42.7245,-0.4403,-0.0181,-0.1079,119.5581
16:48:45:358,1.9339,-1.0195,13.9181,42.7468,-0.3892,0.1686,-0.2741,119.5581
16:48:45:378,1.3279,-1.3866,14.0743,42.9424,-0.4593,0.1245,-0.5789,119.5581
16:48:45:398,0.4758,-1.7603,14.5985,43.1102,-0.3637,0.2697,-0.685,119.5581
16:48:45:418,-0.2318,-2.0527,14.361,43.5352,-0.0184,0.4859,-0.5397,119.5581
16:48:45:438,0.1909,-2.3334,12.9608,43.7938,0.3486,0.4733,-0.2727,119.5581
16:48:45:458,0.6841,-2.012,11.3028,44.1563,0.4484,0.289,-0.113,119.5581
16:48:45:478,1.1161,-1.4409,9.9942,43.9773,0.3007,0.0731,-0.0961,119.5581
16:48:45:498,1.0607,-0.7015,9.3304,43.9242,0.1223,-0.0124,-0.1926,119.5581
16:48:45:518,0.6094,-0.2924,8.521,43.6261,0.0116,0.0954,-0.295,119.5581
16:48:45:538,0.2054,-0.111,7.6606,43.8179,0.0271,0.3124,-0.3237,119.651
16:48:45:560,-0.248,0.1669,6.4281,43.9615,0.0694,0.4487,-0.3024,119.7524
16:48:45:578,-0.6069,0.3313,5.551,44.0019,0.1171,0.4029,-0.2582,119.8603
16:48:45:613,-0.6824,0.3885,5.0887,44.377,0.1785,0.2119,-0.1719,119.973
16:48:45:618,-0.5164,0.59,5.0152,44.4604,0.2165,-0.0447,-0.0884,120.0872
16:48:45:638,-0.3073,0.9525,5.5325,44.5795,0.2066,-0.3202,-0.0588,120.2007
16:48:45:659,-0.0405,1.107,6.3962,44.5482,0.181,-0.569,-0.1091,120.3132
16:48:45:678,0.0447,1.0133,7.2925,44.9479,0.1014,-0.691,-0.1579,120.4262
16:48:45:698,0.0133,1.0525,8.2811,45.1859,0.0249,-0.6199,-0.1493,120.5414
16:48:45:718,0.1749,0.9815,8.9532,45.0804,-0.0699,-0.3731,-0.1212,120.658
16:48:45:737,0.3866,1.1613,9.6299,45.4782,-0.2033,-0.0821,-0.1412,120.7758
16:48:45:758,0.3816,1.281,10.2778,45.6449,-0.2586,0.1448,-0.1718,120.8963
16:48:45:778,-0.0301,1.4186,10.8831,45.8565,-0.1953,0.2404,-0.1811,121.0191
16:48:45:798,-0.4426,1.4144,11.3016,46.2727,-0.0474,0.2193,-0.1191,121.1443
16:48:45:818,-0.3173,1.3335,11.2912,46.5461,0.0154,0.1684,-0.0433,121.2689
16:48:45:838,0.058,1.1227,11.7165,46.7412,-0.0679,0.0848,-0.0892,121.3916
16:48:45:859,-0.3466,1.0411,12.4446,47.1663,-0.2149,0.162,-0.1693,121.5149
16:48:45:878,-1.1594,1.0651,13.0061,47.4551,-0.2912,0.5441,-0.1027,121.6403
16:48:45:898,-2.0653,1.4485,12.8266,47.4673,-0.2911,0.7194,0.1721,121.7641
16:48:45:918,-0.8241,1.4503,13.0434,47.7556,-0.2249,0.4233,0.4555,121.8752
16:48:45:940,-0.5377,0.0606,13.8842,47.9344,0.1996,-0.1246,0.3523,121.9674
16:48:45:958,-1.4885,-1.2351,12.4064,47.9315,0.7561,-0.7723,0.4008,121.9674
16:48:45:978,-1.233,-1.479,11.2714,48.0763,0.7176,-0.9652,0.6092,121.9674
16:48:45:998,-0.1935,-1.1668,11.26,48.2407,0.3825,-0.9114,0.5433,121.9674
16:48:46:018,0.4363,-0.963,11.4884,48.4295,0.0557,-0.3817,0.349,121.9674
16:48:46:039,0.3406,-0.7321,10.7315,48.6157,-0.1064,0.1888,0.1042,121.9674
16:48:46:058,-0.2038,-0.5808,9.5501,49.1498,-0.2115,0.5426,-0.0548,121.9674
16:48:46:079,-0.7637,-0.3691,8.3225,49.394,-0.1794,0.6785,-0.0767,121.9674
16:48:46:098,-1.0386,-0.1675,7.0868,49.3419,-0.0592,0.5709,-0.0064,121.9674
16:48:46:118,-0.9154,-0.0914,6.1363,49.663,0.0906,0.2631,0.0828,121.9674
16:48:46:140,-0.7738,0.0593,5.9634,49.777,0.1741,-0.1037,0.156,121.9674
16:48:46:158,-0.7443,0.273,6.6458,49.9128,0.3178,-0.3414,0.1943,121.9674
16:48:46:178,-0.727,0.4448,6.961,50.0549,0.5377,-0.3925,0.2544,121.9674
16:48:46:198,-0.4189,0.5296,6.3289,50.3856,0.6495,-0.1934,0.28,121.9674
16:48:46:218,-0.2856,0.7945,5.8668,50.1931,0.4381,0.0439,0.2997,121.9674
16:48:46:238,-0.269,1.2057,6.2173,50.5246,0.1421,0.1378,0.1947,121.9674
16:48:46:258,-0.5884,1.3578,7.4054,50.6098,0.0335,0.028,0.1031,121.9674
16:48:46:278,-0.8411,1.1207,8.476,50.9325,0.1877,-0.168,0.1287,121.9674
16:48:46:298,-0.7579,1.1357,8.7703,51.4574,0.3926,-0.2918,0.1714,121.9674
16:48:46:321,-0.377,1.178,8.5934,51.76,0.3372,-0.4359,0.1214,121.9674
16:48:46:338,0.1186,0.7099,8.7713,52.214,-0.0064,-0.4686,-0.0132,121.9674
16:48:46:358,0.3192,0.2604,9.6296,52.535,-0.6126,-0.3936,-0.182,121.9674
16:48:46:378,0.2651,-0.2485,12.192,52.6935,-1.098,-0.2591,-0.3098,121.9674
16:48:46:398,0.6802,-0.7237,14.6218,53.1333,-0.9561,0.0562,-0.2151,121.9674
16:48:46:420,1.3514,-1.0222,14.3904,53.2391,-0.4978,0.0695,-0.219,121.9674
16:48:46:438,1.2596,-1.1808,13.8038,53.4301,-0.521,-0.2777,-0.4035,121.9674
16:48:46:459,1.0077,-1.3812,15.3779,53.7995,-0.6085,-0.23,-0.4915,121.9674
16:48:46:478,0.7736,-1.3948,15.6595,53.7983,-0.3514,0.2091,-0.4152,121.9674
16:48:46:498,0.7623,-1.6043,14.5616,54.1026,-0.0239,0.6025,-0.3046,121.9674
16:48:46:519,1.2165,-1.4074,12.2526,54.1306,0.2052,0.5988,-0.1541,121.9674
16:48:46:538,1.6499,-0.8781,10.3025,54.1832,0.2004,0.4374,-0.1518,121.9674
16:48:46:558,1.4134,-0.3117,8.7652,54.0166,0.1436,0.2722,-0.2426,121.9674
16:48:46:578,1.0515,0.0065,7.4453,53.9217,0.053,0.2363,-0.3248,121.9674
16:48:46:599,0.4817,0.1404,6.3469,53.8466,-0.1118,0.1889,-0.369,121.9674
16:48:46:619,-0.1194,0.3839,6.0513,53.7562,-0.3216,0.2089,-0.3432,121.9674
16:48:46:638,-1.0116,0.6487,6.5685,54.1706,-0.2308,0.1266,-0.2073,122.0665
16:48:46:658,-1.0894,0.6689,6.6289,54.1282,0.1388,-0.026,0.0621,122.1677
16:48:46:678,-0.1868,0.8525,5.8911,54.1263,0.4168,-0.2096,0.2644,122.2612
16:48:46:701,0.8338,1.1989,5.5599,54.2408,0.3275,-0.4928,0.1816,122.2612
16:48:46:718,0.6368,1.4704,6.8172,53.9188,0.0778,-0.7364,-0.0497,122.2612
16:48:46:738,0.1223,1.1514,8.743,53.8753,0.0612,-0.6567,-0.1371,122.2612
16:48:46:758,-0.0362,1.0115,9.7333,53.9766,0.2565,-0.3603,-0.0647,122.2612
16:48:46:778,0.3655,0.9199,9.6081,54.1987,0.363,0.0126,0.0391,122.2612
16:48:46:800,0.7986,1.2732,9.1769,54.4801,0.2578,0.2033,0.0015,122.2612
16:48:46:818,0.8669,1.7074,9.2584,54.2207,0.0925,0.2381,-0.1612,122.2612
16:48:46:838,0.5837,1.7545,9.6891,54.415,-0.0113,0.1851,-0.3069,122.2612
16:48:46:858,0.2349,1.5802,10.2803,54.4829,-0.0467,0.128,-0.357,122.3627
16:48:46:878,0.1695,1.0753,10.6861,54.4467,-0.0489,0.0293,-0.3496,122.4722
16:48:46:900,0.2456,0.6907,11.0585,54.4023,-0.1935,-0.0898,-0.3522,122.5909
16:48:46:918,0.1967,0.7874,11.7448,54.3592,-0.5194,0.1344,-0.3769,122.7192
16:48:46:938,-0.6466,1.0776,12.387,54.2327,-0.9195,0.6448,-0.334,122.8585
16:48:46:958,-1.0483,0.6051,13.9978,54.1417,-1.0583,0.681,-0.0948,123.0058
16:48:46:977,-0.3617,0.1509,15.4965,53.824,-0.4237,0.4107,0.1558,123.1497
16:48:46:998,-0.8327,-0.7709,14.3978,53.7771,0.4488,-0.0277,0.1474,123.2834
16:48:47:018,-1.546,-1.4747,11.9429,53.7509,0.961,-0.5937,0.256,123.4067
16:48:47:037,-1.6269,-1.6905,10.4007,53.4346,0.7092,-0.5911,0.5003,123.514
16:48:47:058,-0.5399,-1.4992,10.2668,53.3512,0.2933,-0.597,0.6039,123.514
16:48:47:078,0.7542,-0.9008,10.8749,53.2946,-0.0346,-0.3317,0.5282,123.514
16:48:47:098,0.9941,-0.5486,10.4596,53.1426,-0.05,-0.1181,0.1712,123.514
16:48:47:118,0.2018,-0.4516,9.2017,52.7603,-0.0861,0.228,-0.0279,123.514
16:48:47:138,-0.6209,-0.3366,7.8892,52.6946,-0.0694,0.532,-0.0344,123.514
16:48:47:158,-0.8533,-0.2861,6.4958,52.2597,-0.0747,0.685,0.0753,123.514
16:48:47:179,-0.7358,-0.0387,5.5876,52.1498,-0.1354,0.5774,0.1991,123.514
16:48:47:198,-0.685,0.3582,5.8871,52.0827,-0.1525,0.1926,0.2502,123.514
16:48:47:219,-0.9044,0.4593,7.005,51.729,0.1227,-0.1981,0.2924,123.514
16:48:47:238,-1.398,0.2787,6.9808,51.6423,0.5079,-0.3363,0.3194,123.514
16:48:47:258,-1.7174,0.1703,6.1625,51.6592,0.578,-0.2327,0.3436,123.514
16:48:47:278,-1.5451,0.2805,5.5512,51.3999,0.2604,0.0341,0.3633,123.514
16:48:47:298,-0.9961,0.7185,5.9442,51.2112,-0.3312,0.3265,0.4059,123.514
16:48:47:318,-0.5963,1.4283,7.8899,50.8544,-0.6642,0.3899,0.3353,123.514
16:48:47:338,-0.6165,1.3875,9.6068,50.5929,-0.5616,0.1798,0.2092,123.514
16:48:47:358,-1.0735,1.0866,10.8429,50.4195,-0.3244,-0.1105,0.1515,123.514
16:48:47:378,-0.9867,0.4179,11.4557,50.0166,-0.0962,-0.231,0.2127,123.514
16:48:47:398,-0.6259,-0.0167,11.256,49.8898,-0.1571,-0.2227,0.2675,123.514
16:48:47:418,-0.0241,-0.1214,12.0359,49.6819,-0.5278,-0.1646,0.1932,123.514
16:48:47:438,0.6194,-0.3127,14.0441,49.1586,-0.8113,-0.0353,0.0636,123.514
16:48:47:459,1.8516,-0.972,15.7377,49.0014,-0.6277,0.1985,-0.0386,123.514
16:48:47:479,2.2002,-1.3043,15.5684,48.7145,-0.3331,0.2858,-0.3077,123.514
16:48:47:499,1.3559,-1.7987,15.2631,48.4424,-0.0903,0.2393,-0.5483,123.514
16:48:47:518,0.6461,-2.0896,14.5581,48.3237,0.1639,0.4833,-0.493,123.514
16:48:47:538,0.6433,-2.4504,13.3919,48.0571,0.461,0.5028,-0.3406,123.514
16:48:47:561,0.7418,-2.5333,11.334,47.9369,0.6064,0.3704,-0.1583,123.514
16:48:47:578,0.7295,-2.2221,9.8051,47.8479,0.4225,0.1617,0.0092,123.514
16:48:47:632,0.5712,-1.2705,9.4342,47.5318,0.2058,-0.1048,-0.0113,123.514
16:48:47:635,0.3341,-0.9299,9.4268,47.3258,0.226,-0.3565,-0.1313,123.514
16:48:47:638,-0.0749,-0.7198,8.7421,46.9149,0.4267,-0.386,-0.192,123.514
16:48:47:660,-0.6015,-0.5176,7.2041,46.79,0.5725,-0.2257,-0.1077,123.514
16:48:47:678,-0.6756,-0.2392,5.6687,46.6614,0.5312,0.0025,-0.0053,123.514
16:48:47:698,-0.3857,0.0661,4.6029,46.8095,0.3555,0.1945,0.0369,123.514
16:48:47:718,-0.1432,0.5084,4.3011,46.8656,0.1318,0.1467,-0.0288,123.514
16:48:47:738,0.1105,0.809,4.9709,46.5943,-0.0741,-0.1218,-0.1161,123.514
16:48:47:759,-0.0753,1.2104,6.7505,46.4048,-0.0934,-0.5328,-0.1834,123.514
16:48:47:778,-0.3856,1.1183,8.5152,46.043,0.1292,-0.9485,-0.174,123.514
16:48:47:798,-0.4563,1.1028,9.349,45.707,0.4416,-1.0669,-0.0727,123.514
16:48:47:818,0.0862,0.9804,9.2528,45.2133,0.5817,-0.8207,0.0423,123.514
16:48:47:839,0.6583,1.2266,8.7169,45.0694,0.4075,-0.2599,0.0761,123.514
16:48:47:858,0.8495,1.7868,8.471,45.0195,0.0062,0.3004,-0.0149,123.514
16:48:47:878,0.487,2.1058,9.054,44.949,-0.3241,0.5744,-0.1799,123.514
16:48:47:898,-0.2404,2.2266,10.3621,44.918,-0.339,0.4436,-0.225,123.514
16:48:47:919,-0.4297,1.8274,11.5851,44.8794,-0.0499,0.0976,-0.1458,123.514
16:48:47:941,-0.193,1.2949,12.012,44.6007,0.2347,-0.0594,0.0013,123.514
16:48:47:959,0.1288,1.3646,11.665,44.2423,0.2686,0.0692,0.0927,123.514
16:48:47:979,0.4433,1.2265,11.2563,43.9664,-0.1477,0.4477,-0.0438,123.514
16:48:47:998,-0.6977,0.833,11.8484,43.8567,-0.7716,0.5059,-0.242,123.514
16:48:48:018,-1.2666,-0.1018,13.8681,43.9711,-1.0795,0.4187,-0.237,123.514
16:48:48:039,-1.5193,-1.2094,15.3959,43.7473,-0.5297,0.2409,0.0036,123.514
16:48:48:058,-1.352,-1.5883,12.92,43.7524,0.1923,-0.1782,0.1731,123.514
16:48:48:078,-1.1255,-1.5346,10.6208,43.6073,0.0493,-0.5239,0.2184,123.514
16:48:48:098,-0.7181,-1.5276,10.0087,43.4554,-0.3819,-0.3707,0.1697,123.514
16:48:48:118,-0.5327,-1.4153,9.4798,43.572,-0.7953,0.0898,0.0839,123.514
16:48:48:139,-0.6681,-1.4764,9.0498,43.7408,-1.0837,0.4075,-0.0249,123.514
16:48:48:158,-1.199,-1.2536,8.9755,43.6057,-1.1606,0.5483,-0.0338,123.514
16:48:48:178,-2.0105,-0.7767,10.0435,43.2709,-0.8323,0.3272,0.1187,123.514
16:48:48:198,-1.7612,-0.7193,10.3365,43.1687,0.0524,0.1152,0.4076,123.514
16:48:48:219,-0.7819,-0.4567,8.2599,42.9073,0.8721,-0.0709,0.6631,123.514
16:48:48:238,0.0999,-0.1067,5.9014,42.9551,1.0761,-0.2582,0.6435,123.514
16:48:48:258,0.4571,0.2893,4.794,43.1284,0.786,-0.3996,0.4464,123.514
16:48:48:278,0.2149,0.6196,5.1312,42.9758,0.3612,-0.349,0.2005,123.514
16:48:48:298,-0.2121,0.7039,6.5842,42.7777,0.1765,-0.1306,0.0609,123.514
16:48:48:320,-0.5365,0.682,7.3215,42.4542,0.2425,0.0799,0.045,123.514
16:48:48:338,-0.5493,0.6577,7.6157,42.4471,0.2708,0.0445,0.0835,123.514
16:48:48:358,-0.3117,0.9102,8.1941,42.1712,0.2029,-0.0947,0.0594,123.514
16:48:48:377,-0.4705,1.0047,9.513,42.1509,0.1362,-0.231,-0.0257,123.514
16:48:48:398,-0.9082,0.8706,10.8962,42.1814,0.2211,-0.2159,-0.0582,123.514
16:48:48:419,-1.1072,0.5405,11.0998,42.4312,0.3622,-0.0421,0.0457,123.514
16:48:48:438,-0.7621,0.3147,10.5265,42.2382,0.3205,0.1499,0.1963,123.514
16:48:48:458,-0.175,0.375,9.9863,42.3023,-0.0016,0.2238,0.1354,123.514
16:48:48:477,-0.0715,0.2429,10.7717,42.074,-0.4265,0.1323,-0.0829,123.514
16:48:48:498,0.1576,-0.5173,12.4885,41.6556,-0.4839,0.0219,-0.1906,123.514
16:48:48:519,0.9247,-1.2198,12.8615,41.3609,-0.2941,0.0103,-0.151,123.514
16:48:48:538,1.2276,-1.3123,12.4058,41.28,-0.1855,-0.3097,-0.2982,123.514
16:48:48:558,1.4192,-1.6814,12.7997,41.5101,-0.2579,-0.5299,-0.5259,123.514
16:48:48:578,0.9155,-1.9191,12.9163,41.5039,-0.2227,-0.3396,-0.7021,123.514
16:48:48:601,0.4432,-2.2977,12.6991,41.5946,-0.299,0.0346,-0.7274,123.514
16:48:48:617,0.2407,-2.4072,12.5112,41.4405,-0.2239,0.2602,-0.5599,123.514
16:48:48:637,0.3692,-2.1185,11.5204,41.2171,-0.0361,0.2558,-0.3169,123.514
16:48:48:658,0.4465,-1.3755,10.0736,41.3259,0.0111,0.0546,-0.1961,123.514
16:48:48:677,0.601,-0.8933,9.2393,41.167,-0.096,-0.0743,-0.2585,123.514
16:48:48:700,0.0967,-0.5277,8.6718,41.0115,-0.1646,0.0627,-0.3189,123.514
16:48:48:718,-0.277,-0.204,7.7609,40.8963,-0.1449,0.2923,-0.2743,123.514
16:48:48:738,-0.6708,0.003,6.7247,40.7706,0.0143,0.4103,-0.1654,123.606
16:48:48:758,-0.5945,0.2422,5.6239,40.7997,0.0933,0.4105,0.022,123.699
16:48:48:778,-0.1922,0.6882,5.1784,40.7854,0.0986,0.2367,0.078,123.699
16:48:48:799,0.1881,1.0256,5.3763,40.7125,0.0666,-0.0294,-0.0002,123.699
16:48:48:818,-0.0445,1.0968,6.2302,40.4847,0.0235,-0.3852,-0.118,123.699
16:48:48:838,-0.3084,0.8056,7.9481,40.412,0.0365,-0.7283,-0.1189,123.7919
16:48:48:857,-0.4071,0.6569,9.7548,40.2749,0.1737,-0.8411,-0.0204,123.8852
16:48:48:878,-0.095,0.7596,10.6706,39.8423,0.3385,-0.6644,0.104,123.8852
16:48:48:898,0.326,0.9952,10.759,39.778,0.3672,-0.2211,0.1745,123.8852
16:48:48:919,0.6046,1.3226,10.4174,39.5503,0.2965,0.2373,0.1104,123.8852
16:48:48:938,0.5825,1.4199,9.8771,39.5523,0.1546,0.5574,0.0427,123.8852
16:48:48:958,-0.0672,1.3444,9.6917,39.2135,-0.0824,0.5935,0.0321,123.8852
16:48:48:977,-0.7389,1.0059,10.8319,39.198,-0.2007,0.4096,0.1676,123.8852
16:48:48:998,-0.3087,0.807,12.2765,38.8849,0.0161,0.1052,0.3659,123.8852
16:48:49:018,0.4331,0.7242,12.7754,38.6541,0.3541,0.0091,0.4309,123.8852
16:48:49:038,-0.0422,1.3525,12.0694,38.6932,0.4694,0.1566,0.3425,123.8852
16:48:49:057,-0.6603,1.291,11.3529,38.4976,0.2706,0.5016,0.3561,123.8852
16:48:49:080,-0.0947,1.4392,11.8063,38.4508,-0.1319,0.7715,0.5742,123.8852
16:48:49:098,-0.1936,0.5114,12.3679,38.228,0.0661,0.4483,0.4348,123.8852
16:48:49:118,-1.4053,-0.9502,11.5484,37.9052,0.3399,-0.0876,0.358,123.8852
16:48:49:138,-2.0868,-1.4881,10.5826,37.6373,0.4674,-0.5454,0.6266,123.8852
16:48:49:158,-1.1822,-1.381,10.2962,37.4141,0.3361,-0.863,0.8453,123.8852
16:48:49:180,0.5072,-1.0251,10.7405,37.5111,0.1847,-0.8444,0.7973,123.7921
16:48:49:199,1.3926,-0.3835,10.6656,37.2026,0.1067,-0.579,0.4379,123.6769
16:48:49:218,0.9905,-0.3707,9.6514,37.0102,0.0287,-0.1259,0.0135,123.5539
16:48:49:238,0.2193,-0.5252,8.2283,36.8246,-0.1348,0.4129,-0.1742,123.4367
16:48:49:258,-0.4373,-0.4617,6.9256,36.7735,-0.3453,0.7583,-0.2137,123.3303
16:48:49:278,-0.8332,-0.1654,6.2113,36.1879,-0.5185,0.7658,-0.1593,123.2349
16:48:49:298,-1.1157,0.1348,6.7336,36.1338,-0.4652,0.3629,-0.0589,123.2349
16:48:49:318,-1.0712,0.2509,7.589,35.8638,-0.0781,-0.1909,0.1005,123.2349
16:48:49:338,-0.5792,0.5347,7.7385,35.8033,0.3642,-0.5608,0.2458,123.1428
16:48:49:357,-0.1552,0.8085,7.1189,36.0499,0.4684,-0.5968,0.1854,123.0436
16:48:49:378,-0.2936,0.9505,7.1046,35.9505,0.2539,-0.3571,0.0476,122.9423
16:48:49:398,-0.5641,0.8746,7.5552,35.5893,0.0321,-0.0265,-0.0075,122.8431
16:48:49:418,-0.7116,0.8593,8.0723,35.3394,-0.0611,0.1624,0.0238,122.7471
16:48:49:438,-0.6709,1.0849,8.6208,35.225,-0.0954,0.138,0.034,122.6531
16:48:49:458,-0.7537,1.3349,9.0381,34.9974,-0.0281,-0.0103,-0.0005,122.561
16:48:49:479,-0.7989,1.4354,8.9155,34.6639,0.0074,-0.2177,-0.0555,122.561
16:48:49:499,-0.3546,0.8988,8.9546,34.4521,-0.145,-0.4626,-0.1641,122.561
16:48:49:518,0.1437,-0.2079,10.1753,33.8431,-0.4827,-0.7147,-0.2635,122.561
16:48:49:538,0.2228,-1.0018,12.6705,33.4541,-0.7838,-0.756,-0.2763,122.561
16:48:49:560,0.4808,-1.5858,15.4941,33.0147,-0.6531,-0.2946,-0.0091,122.561
16:48:49:578,1.7649,-1.6849,15.5,33.1565,-0.1594,0.3863,0.168,122.561
16:48:49:598,2.1187,-1.8443,13.7696,33.1442,-0.0959,0.7437,-0.0687,122.561
16:48:49:638,1.2397,-1.3997,13.1261,32.98,-0.2399,0.6307,-0.3687,122.561
16:48:49:640,0.8185,-1.774,13.5384,32.9218,-0.2429,0.5604,-0.4481,122.561
16:48:49:659,0.6284,-2.2259,13.3672,32.9517,0.0196,0.2458,-0.3454,122.561
16:48:49:678,1.0682,-2.1336,12.8213,32.7703,0.1995,-0.0763,-0.1641,122.561
16:48:49:698,1.8932,-1.3826,12.18,32.6004,0.3016,-0.3588,-0.2099,122.561
16:48:49:718,1.6654,-0.8172,11.2498,32.6541,0.316,-0.4835,-0.4631,122.561
16:48:49:738,0.6617,-0.4935,10.0089,32.7945,0.3171,-0.3056,-0.5661,122.561
16:48:49:759,0.0049,-0.1732,8.4662,32.6704,0.3764,0.1197,-0.4638,122.561
16:48:49:778,-0.088,0.1734,6.6085,32.8383,0.4644,0.516,-0.3117,122.561
16:48:49:798,0.0672,0.5569,4.8402,32.8675,0.4373,0.7404,-0.2091,122.561
16:48:49:818,0.1303,1.0115,3.7292,33.0191,0.292,0.6314,-0.1869,122.561
16:48:49:839,-0.0139,1.3113,3.8999,33.2536,0.14,0.1698,-0.2376,122.561
16:48:49:858,-0.1065,1.4175,4.9565,33.1545,0.0848,-0.4689,-0.3118,122.561
16:48:49:878,-0.4614,1.6538,6.6527,33.138,0.089,-1.0639,-0.3345,122.561
16:48:49:898,-0.4121,1.4412,8.7577,33.1866,0.1864,-1.3635,-0.2947,122.6581
16:48:49:918,-0.1667,1.1879,10.3772,33.1359,0.3931,-1.1574,-0.1486,122.7605
16:48:49:940,0.2978,1.0695,10.8954,33.0354,0.5504,-0.5831,0.0562,122.8613
16:48:49:958,0.5679,1.7917,10.2811,33.1541,0.5486,0.0515,0.1204,122.9541
16:48:49:979,0.8792,2.3076,9.4127,33.3097,0.3745,0.5486,-0.0126,122.9541
16:48:49:999,0.582,2.717,9.1638,33.3318,0.1293,0.6842,-0.193,122.9541
16:48:50:018,0.1619,2.6961,9.6386,33.5873,0.0369,0.4811,-0.2848,123.0481
16:48:50:039,-0.0502,2.506,10.0844,33.6448,0.0573,0.1313,-0.2923,123.1487
16:48:50:058,-0.0612,2.3852,10.5701,33.7974,0.0134,-0.0364,-0.3034,123.2561
16:48:50:078,-0.14,2.4426,10.7378,33.8544,0.0411,0.1073,-0.3347,123.3713
16:48:50:098,-0.165,2.2655,9.7693,33.9971,-0.1357,0.4067,-0.3485,123.495
16:48:50:117,-0.7879,1.7223,10.0183,34.2667,-0.6871,0.0769,-0.3679,123.628
16:48:50:139,-0.6078,0.3387,12.6041,34.3444,-0.9629,-0.8103,-0.3785,123.7717
16:48:50:158,0.7964,-1.561,14.8707,34.4493,-0.3537,-1.4069,-0.1956,123.925
16:48:50:178,1.4524,-2.0862,14.3364,34.2889,0.4479,-0.6457,0.2473,124.0764
16:48:50:198,1.1867,-1.7182,11.0704,34.3412,0.3964,0.2115,0.3475,124.2111
16:48:50:218,0.7917,-1.2302,8.8647,34.3886,-0.807,0.7062,0.0679,124.3328
16:48:50:238,-0.3382,-1.0917,10.3791,34.3381,-1.842,0.9436,-0.2685,124.4565
16:48:50:258,-1.6462,-1.2584,12.6495,34.3284,-1.7045,0.9169,-0.275,124.592
16:48:50:278,-2.4653,-1.1477,12.4246,34.4264,-0.6696,0.6956,0.1267,124.7328
16:48:50:298,-2.3759,-0.7728,10.0252,34.5711,0.4085,0.2503,0.6901,124.8602
16:48:50:321,-1.3194,-0.2552,7.3233,34.5355,1.0503,-0.1672,1.0686,124.9549
16:48:50:338,-0.1948,0.2824,5.2676,35.0376,1.0348,-0.3451,1.1023,124.9549
16:48:50:358,0.1991,0.8553,4.6936,35.1986,0.6088,-0.3628,0.9066,124.9549
16:48:50:378,0.0246,1.2956,5.6772,35.3187,0.28,-0.2372,0.6317,124.9549
16:48:50:398,-0.3677,1.4347,6.8979,35.3326,0.2683,-0.0748,0.4176,124.9549
16:48:50:419,-0.4997,1.4089,7.4315,35.4591,0.3536,0.1887,0.2902,124.9549
16:48:50:438,-0.4231,1.4581,7.4363,35.3134,0.3454,0.4135,0.2107,124.9549
16:48:50:458,-0.2963,1.3632,7.442,35.3996,0.2456,0.4226,0.1194,124.9549
16:48:50:478,-0.4602,1.5281,7.7621,35.4379,0.0926,0.1543,-0.0415,124.9549
16:48:50:498,-0.7232,1.4079,8.8923,35.4505,-0.007,-0.0999,-0.1862,124.9549
16:48:50:520,-0.9481,1.0857,9.7312,35.546,0.0265,-0.0402,-0.2192,124.9549
16:48:50:538,-0.7897,0.5236,9.8023,35.7142,-0.0421,0.071,-0.2573,124.9549
16:48:50:558,-0.6129,0.2298,9.9986,35.8428,-0.3752,0.1548,-0.3539,124.9549
16:48:50:578,-0.422,-0.4775,11.2643,36.0456,-0.8173,0.1348,-0.51,124.9549
16:48:50:599,-0.1523,-1.1502,13.3562,35.7155,-0.9071,0.2037,-0.4289,124.9549
16:48:50:618,0.5302,-1.553,14.0295,35.5173,-0.5331,0.3757,-0.2217,124.9549
16:48:50:639,1.1057,-1.6898,13.4701,35.2718,-0.1715,0.1803,-0.1897,124.9549
16:48:50:658,1.161,-1.6357,12.672,35.0225,-0.0649,-0.1843,-0.3697,124.9549
16:48:50:679,0.9853,-1.9922,13.1606,35.0627,-0.4347,-0.1156,-0.4831,124.9549
16:48:50:701,0.7332,-2.4814,14.2098,35.3114,-0.3413,0.0248,-0.3577,124.9549
16:48:50:718,1.1262,-2.4661,13.55,35.2496,0.0142,0.1253,-0.0544,124.9549
16:48:50:738,1.8996,-1.6861,11.3542,35.394,0.3415,-0.0635,0.1314,124.9549
16:48:50:758,2.4832,-0.5733,9.5384,35.3079,0.2607,-0.1732,-0.0234,124.9549
16:48:50:778,1.7889,0.1527,8.1916,35.2005,0.0814,-0.1926,-0.3937,124.9549
16:48:50:799,0.6052,0.3643,7.2476,34.8291,-0.1162,0.0005,-0.5748,124.9549
16:48:50:818,-0.2575,0.5215,6.3951,34.8679,-0.1791,0.2354,-0.5627,125.0495
16:48:50:838,-0.606,0.7635,5.5331,35.0583,-0.2183,0.3828,-0.4641,125.1599
16:48:50:858,-0.9055,0.9475,5.4051,34.9984,-0.2816,0.2187,-0.3656,125.2838
16:48:50:878,-0.7773,1.0018,6.0013,34.8096,-0.2,-0.1167,-0.2575,125.4149
16:48:50:898,-0.5314,1.0394,6.8666,34.4541,-0.0595,-0.4244,-0.1684,125.5503
16:48:50:918,-0.4373,1.072,7.9457,34.4243,0.0592,-0.5865,-0.0856,125.6868
16:48:50:938,-0.2555,0.9826,8.9851,34.4981,0.1449,-0.6466,-0.0174,125.8214
16:48:50:958,0.2163,0.8643,10.1776,34.4332,0.2475,-0.6786,0.042,125.9514
16:48:50:978,0.6642,0.9118,11.1037,34.8493,0.4242,-0.5554,0.0768,126.0749
16:48:50:998,1.088,1.0842,11.0171,34.8803,0.5785,-0.2957,0.0246,126.1905
16:48:51:018,1.2562,1.3329,10.2159,34.6596,0.5285,0.0014,-0.1584,126.3012
16:48:51:037,0.8814,1.6151,9.8574,34.4586,0.2521,0.2609,-0.3816,126.4149
16:48:51:058,0.2715,1.6225,10.3401,34.3567,0.0095,0.4646,-0.5053,126.5408
16:48:51:077,-0.3785,1.4035,10.9144,34.379,-0.0323,0.534,-0.486,126.6788
16:48:51:098,-0.8434,1.1191,11.157,34.0724,0.0166,0.4945,-0.3564,126.8284
16:48:51:118,-1.4008,1.2526,11.1441,34.1213,0.0917,0.6234,-0.1344,126.984
16:48:51:137,-1.7466,1.3183,10.3147,34.058,0.1931,0.795,0.1422,127.1368
16:48:51:158,-1.4259,0.9597,9.3133,33.94,0.0188,0.6592,0.2492,127.2787
16:48:51:180,-1.1713,-0.2578,9.864,34.1645,-0.5415,0.2189,0.2052,127.4088
16:48:51:198,-1.6189,-1.0857,12.6521,34.2895,-0.7254,-0.5678,0.3143,127.5281
16:48:51:218,-1.3825,-1.7936,14.6904,34.3025,-0.2343,-1.1892,0.5871,127.6311
16:48:51:238,-0.5289,-1.8154,14.017,34.199,0.4238,-1.3443,0.8223,127.6311
16:48:51:258,0.2725,-1.2553,11.808,34.3103,0.536,-1.1194,0.8157,127.6311
16:48:51:279,0.7719,-0.8455,9.909,34.1117,0.2712,-0.611,0.5596,127.6311
16:48:51:298,0.4462,-0.5131,8.7875,34.0562,-0.0905,-0.0719,0.3218,127.6311
16:48:51:318,-0.6123,-0.2048,8.7899,34.0425,-0.1743,0.1925,0.29,127.6311
16:48:51:338,-1.1156,-0.0588,8.4564,34.0458,0.2006,0.3393,0.5486,127.6311
16:48:51:359,-0.6253,0.2548,6.7579,33.9506,0.6183,0.4509,0.9058,127.6311
16:48:51:379,0.7836,0.6886,5.0604,34.0444,0.8498,0.4383,1.0482,127.6311
16:48:51:399,2.3902,1.1517,3.7244,33.8324,0.7134,0.2654,0.7348,127.5166
16:48:51:418,1.7949,1.664,3.9595,33.8209,0.0067,-0.2459,0.1147,127.3843
16:48:51:438,-0.3374,1.4153,7.4027,33.5999,-0.4954,-1.0974,-0.3461,127.2579
16:48:51:458,-1.9077,0.5414,11.3252,33.3465,-0.0789,-1.3893,-0.1605,127.1477
16:48:51:478,-1.7874,0.0922,12.4234,33.2506,0.8412,-0.9395,0.4728,127.04
16:48:51:498,-0.0925,0.2012,10.3745,33.1952,1.3875,0.0392,0.9495,126.9088
16:48:51:518,1.1459,1.0635,7.9341,33.2874,0.8046,0.7667,0.85,126.7437
16:48:51:538,1.3653,2.0202,8.1344,33.2597,-0.1312,0.918,0.2774,126.5575
16:48:51:560,0.3504,1.6945,9.8992,33.0607,-0.5855,0.756,-0.3189,126.3743
16:48:51:578,-0.6109,0.3746,11.2718,32.8534,-0.5628,0.4859,-0.5278,126.2122
16:48:51:598,-1.3586,-0.5748,11.211,32.6876,-0.4875,0.3821,-0.3007,126.0733
16:48:51:618,-0.8872,-0.7826,11.193,32.6012,-0.5043,0.1418,-0.0158,125.9474
16:48:51:662,0.1513,-0.6502,11.6643,32.5306,-0.5177,-0.0607,0.0823,125.8258
16:48:51:664,1.2453,-1.048,11.9512,32.3321,-0.3888,-0.2042,0.0241,125.7067
16:48:51:678,2.4561,-1.4298,11.1962,32.3877,-0.2819,-0.1348,-0.1723,125.592
16:48:51:698,2.3134,-1.4637,10.4301,32.0323,-0.9172,0.1054,-0.6868,125.4926
16:48:51:718,0.8596,-1.7043,12.7222,32.1176,-1.7245,0.3952,-1.2579,125.4926
16:48:51:738,-1.1765,-2.9491,16.0867,32.1225,-1.5568,0.5209,-1.2107,125.4926
16:48:51:757,-1.5269,-3.4273,15.8477,31.7995,-0.6461,0.6495,-0.5598,125.4926
16:48:51:778,-0.7932,-2.4471,12.8845,31.8645,0.1155,0.5882,0.1519,125.4926
16:48:51:798,0.8221,-1.2597,10.0075,31.9585,0.32,0.027,0.3637,125.4926
16:48:51:818,1.8307,-0.8511,8.924,31.9106,0.032,-0.3831,0.1741,125.4926
16:48:51:840,1.4733,-0.3965,9.1157,31.83,-0.2802,-0.2422,0.007,125.4926
16:48:51:858,0.9237,-0.0461,8.9415,31.935,-0.291,0.2609,-0.0697,125.4926
16:48:51:878,0.4197,0.2015,7.8357,31.8547,-0.0518,0.6561,-0.0513,125.4926
16:48:51:898,0.2854,0.2675,6.1243,31.7075,0.1836,0.7918,0.0306,125.4926
16:48:51:918,0.422,0.5191,4.8351,31.5595,0.2552,0.5253,0.0431,125.4926
16:48:51:940,0.4955,0.5515,4.6601,31.4294,0.0965,-0.0536,-0.0559,125.4926
16:48:51:958,-0.0276,0.6994,6.105,31.3594,-0.0717,-0.694,-0.2117,125.4926
16:48:51:978,-0.4328,0.3282,8.4247,31.176,-0.0332,-1.0839,-0.2453,125.4926
16:48:51:998,-0.4739,-0.0281,10.1313,31.3465,0.1659,-1.0146,-0.1291,125.4926
16:48:52:018,-0.062,-0.0779,10.6905,31.0309,0.3725,-0.5072,0.0426,125.4926
16:48:52:040,0.3495,0.575,10.1392,31.05,0.3836,0.07,0.0977,125.4926
16:48:52:058,0.4693,1.0521,9.592,31.1923,0.2235,0.5427,-0.0182,125.4926
16:48:52:078,0.1205,1.5403,9.1871,31.5419,0.1433,0.82,-0.0974,125.4926
16:48:52:098,-0.2501,1.9379,8.6891,31.7203,0.2249,0.9165,-0.0637,125.4926
16:48:52:118,-0.5341,2.3553,8.0502,31.8697,0.3473,0.5717,-0.0033,125.4926
16:48:52:139,-0.5477,2.2499,8.0856,31.7589,0.4451,0.1225,0.1061,125.4926
16:48:52:158,0.1094,2.0084,8.215,31.7217,0.5611,-0.1431,0.2242,125.4926
16:48:52:178,0.5773,2.0593,8.3313,32.047,0.3688,0.0073,0.1175,125.4926
16:48:52:198,0.3404,1.8607,8.5543,32.212,-0.1355,0.267,-0.1067,125.4926
16:48:52:220,-0.6529,0.7968,10.2859,32.4208,-1.1669,0.4691,-0.4138,125.4926
16:48:52:238,-2.8105,-0.886,14.7571,32.7987,-1.7481,0.0664,-0.5249,125.4926
16:48:52:258,-4.6633,-2.7466,19.0741,32.9617,-1.1075,-0.4618,0.0672,125.4926
16:48:52:278,-4.2976,-3.2751,18.6817,33.3765,0.422,-0.8431,1.0486,125.4926
16:48:52:298,-2.4159,-2.4077,14.048,33.6775,1.1835,-0.7863,1.649,125.4926
16:48:52:320,-0.1746,-1.2445,10.9413,33.9753,0.917,-0.4249,1.5675,125.4926
16:48:52:338,0.0977,-0.3712,9.7374,34.2182,0.4133,-0.0367,1.1842,125.3853
16:48:52:358,-0.6045,-0.1207,9.6816,34.2995,0.1921,0.0887,0.8977,125.2396
16:48:52:377,-1.0966,-0.2141,9.3117,34.2056,0.3097,0.075,0.8708,125.0709
16:48:52:398,-1.0407,-0.1274,8.1558,34.1656,0.4905,0.0229,0.9746,124.8758
16:48:52:419,-0.6507,0.1139,7.1037,34.0834,0.4623,-0.1743,1.011,124.6517
16:48:52:439,-0.4721,0.6087,7.4378,34.4437,0.4333,-0.4298,0.995,124.3991
16:48:52:459,-0.0268,0.7472,7.7295,34.4535,0.6019,-0.5029,0.9344,124.1191
16:48:52:478,0.1849,1.0281,7.4718,34.4267,0.7682,-0.4148,0.8234,123.8145
16:48:52:498,0.5368,1.12,6.7865,34.5555,0.7367,-0.1007,0.6232,123.4905
16:48:52:518,0.5168,0.9663,6.4611,34.4738,0.4823,0.1459,0.4003,123.1554
16:48:52:538,0.1654,0.901,6.8845,34.6147,0.2254,0.1497,0.2339,122.8173
16:48:52:558,-0.3152,0.6478,7.5861,34.6874,0.0413,-0.1067,0.1434,122.482
16:48:52:577,-0.7602,0.5015,8.7439,34.726,0.0508,-0.407,0.191,122.1512
16:48:52:600,-0.7526,0.3725,9.4946,34.8094,0.2879,-0.4231,0.2854,121.8223
16:48:52:618,-0.21,0.442,9.0632,34.6535,0.4996,-0.1389,0.338,121.4917
16:48:52:638,0.7752,0.4314,7.6963,34.5053,0.3342,0.2046,0.173,121.1592
16:48:52:658,1.3152,0.0858,7.1076,34.462,-0.2257,0.3329,-0.1336,120.8336
16:48:52:678,0.9273,-0.422,8.7283,34.1224,-0.8079,0.1492,-0.3928,120.5264
16:48:52:701,0.6495,-1.342,12.2967,34.1525,-0.9572,-0.075,-0.4259,120.2454
16:48:52:718,1.2901,-1.8961,14.6567,34.1157,-0.6116,0.0015,-0.3285,119.9884
16:48:52:738,1.7531,-1.8926,14.7533,34.4281,-0.3715,0.1131,-0.5034,119.7525
16:48:52:758,1.4233,-1.9234,14.7085,34.4416,-0.4587,0.4178,-0.8144,119.545
16:48:52:778,1.0192,-2.625,14.5021,34.3503,-0.4163,0.7629,-0.9629,119.3747
16:48:52:800,0.5342,-2.925,13.385,34.0887,-0.3047,0.9156,-0.8201,119.2424
16:48:52:818,0.1769,-2.3071,12.0129,33.7787,-0.2076,0.7005,-0.5403,119.1401
16:48:52:838,-0.0066,-1.38,10.4991,33.4805,-0.0021,0.2678,-0.305,119.1401
16:48:52:858,-0.1213,-0.6374,8.7781,33.144,0.1111,-0.1679,-0.1565,119.1401
16:48:52:878,0.0762,0.3144,7.5439,33.0989,0.0343,-0.4121,-0.1369,119.1401
16:48:52:898,0.196,0.783,7.1956,32.7186,-0.2246,-0.138,-0.2753,119.1401
16:48:52:918,-0.2218,1.098,6.9733,32.6465,-0.3367,0.3014,-0.4085,119.1401
16:48:52:938,-0.6038,1.2366,6.765,32.7005,-0.2389,0.4222,-0.4344,119.1401
16:48:52:958,-0.8382,1.0259,6.5041,32.7908,-0.1349,0.2661,-0.3453,119.1401
16:48:52:979,-0.7107,0.9915,6.7856,32.7153,-0.1057,0.0417,-0.1734,119.1401
16:48:52:998,-0.4626,1.3131,7.3885,32.9934,-0.0907,-0.173,-0.1107,119.1401
16:48:53:018,-0.5205,1.4214,8.244,32.9021,-0.1306,-0.2158,-0.0989,119.1401
16:48:53:038,-0.4483,1.2917,9.255,32.7476,0.0271,-0.1685,-0.0605,119.1401
16:48:53:058,-0.1848,1.2046,9.5102,32.3787,0.277,-0.0885,0.0118,119.1401
16:48:53:081,0.2794,1.4277,9.2673,32.3289,0.3768,-0.0993,0.0407,119.1401
16:48:53:098,0.5795,1.592,9.5034,32.0323,0.2854,-0.1401,0.0164,119.1401
16:48:53:118,0.515,1.6986,10.0907,32.0012,0.2183,-0.1261,-0.0023,119.1401
16:48:53:138,0.2628,1.9,10.5621,32.1186,0.1641,-0.0055,0.0078,119.1401
16:48:53:157,0.3378,1.888,10.8854,32.2147,0.0794,0.1402,-0.0139,119.1401
16:48:53:179,0.2748,1.6615,11.5061,31.8928,-0.0667,0.2116,-0.0963,119.1401
16:48:53:198,-0.4148,1.5999,12.0893,31.8913,-0.115,0.3761,-0.112,119.1401
16:48:53:218,-0.7837,1.813,12.0616,31.7552,-0.1567,0.6224,0.0995,119.1401
16:48:53:238,-0.3891,2.1046,11.8936,31.544,-0.2723,0.6333,0.3775,119.1401
16:48:53:258,-0.173,0.9987,12.6349,31.6589,-0.0346,0.1608,0.3811,119.1401
16:48:53:279,-1.0216,-0.5888,12.2826,31.5934,0.3217,-0.3873,0.0675,119.1401
16:48:53:298,-2.8096,-2.2058,11.5693,31.5214,0.474,-0.8781,-0.1473,119.1401
16:48:53:318,-3.4308,-3.1171,11.1981,31.5908,0.3064,-0.9031,0.0499,119.1401
16:48:53:338,-2.3033,-3.3131,11.1302,31.7272,0.0558,-0.5572,0.3576,119.1401
16:48:53:358,-0.5141,-2.6456,10.7882,31.6582,-0.1121,-0.194,0.4875,119.1401
16:48:53:378,0.186,-1.4343,10.1277,31.8072,-0.2475,-0.0295,0.2903,119.1401
16:48:53:398,0.1201,-0.9901,9.5591,31.6987,-0.3053,0.0186,0.1728,119.1401
16:48:53:418,0.0102,-0.1972,8.7736,31.8778,-0.1846,0.0552,0.2727,119.1401
16:48:53:437,0.4799,0.4131,7.6834,31.8822,0.0198,0.0009,0.4088,119.1401
16:48:53:460,0.9692,0.8819,6.7198,31.5164,0.1479,-0.1289,0.4264,119.0436
16:48:53:478,0.9043,1.2327,6.1289,31.4703,0.1269,-0.2434,0.2958,118.9375
16:48:53:499,0.2039,1.2644,6.6772,31.2028,0.0915,-0.3144,0.1647,118.8256
16:48:53:518,-0.0827,1.0734,7.46,31.1775,0.2045,-0.31,0.1069,118.7115
16:48:53:538,-0.5643,1.2132,7.7935,30.9528,0.2899,-0.2841,0.0579,118.5971
16:48:53:560,-0.7033,1.2583,7.7883,30.8242,0.2952,-0.1302,0.0146,118.4837
16:48:53:578,-0.7733,1.2008,7.6609,30.7051,0.201,0.0647,-0.0106,118.3729
16:48:53:598,-0.6904,0.9873,7.6759,30.771,0.0342,0.204,-0.034,118.266
16:48:53:618,-0.5589,0.8742,8.1559,30.7546,-0.1435,0.2113,-0.0553,118.1638
16:48:53:638,-0.7173,0.9252,9.0987,30.8728,-0.2196,0.0725,-0.0673,118.0671
16:48:53:677,-0.7589,0.9283,9.9947,31.0258,-0.1396,-0.2358,-0.1132,117.9764
16:48:53:679,-0.5304,0.3057,10.4516,31.4274,-0.1496,-0.4929,-0.1618,117.9764
16:48:53:700,-0.4889,-0.5143,11.535,31.3833,-0.3279,-0.568,-0.1726,117.9764
16:48:53:718,0.1134,-1.2675,13.1845,31.2718,-0.4382,-0.36,-0.0432,117.9764
16:48:53:738,1.6278,-1.7989,13.7472,31.0281,-0.4167,0.0548,-0.019,117.9764
16:48:53:758,2.3977,-1.629,13.5585,30.6018,-0.5636,0.4165,-0.3352,117.9764
16:48:53:778,1.4202,-2.0138,14.2645,30.2304,-0.6249,0.6046,-0.7554,117.9764
16:48:53:798,0.6256,-2.5436,13.9687,30.0445,-0.2712,0.6094,-0.7899,117.9764
16:48:53:818,0.5607,-2.7396,13.0229,29.6897,0.0209,0.6988,-0.601,117.9764
16:48:53:841,0.9906,-2.601,11.403,29.6309,0.1696,0.4761,-0.4383,117.9764
16:48:53:858,1.1502,-1.9816,10.4492,29.5464,0.0481,0.2397,-0.3863,117.9764
16:48:53:878,0.7683,-1.135,10.0645,29.1078,-0.0218,-0.0756,-0.4428,117.9764
16:48:53:899,0.1005,-0.5629,9.698,28.8584,0.0225,-0.2098,-0.4362,117.9764
16:48:53:918,-0.0336,-0.2903,8.6653,28.7949,0.1152,-0.2515,-0.4022,117.9764
16:48:53:940,0.0589,-0.0261,7.5108,28.771,0.128,-0.0285,-0.2716,118.072
16:48:53:959,0.3908,0.4461,6.376,28.9446,0.1182,0.2005,-0.1403,118.1723
16:48:53:979,0.5433,0.8954,5.4242,29.0298,0.1192,0.3038,-0.1093,118.2739
16:48:53:998,0.6253,1.0429,4.768,29.1128,0.0722,0.1857,-0.1574,118.3764
16:48:54:018,0.3567,1.0863,5.2274,28.7738,-0.01,-0.154,-0.231,118.4822
16:48:54:040,-0.0287,1.0442,6.6011,28.9421,0.0221,-0.548,-0.2331,118.5931
16:48:54:058,-0.2739,1.0072,8.0162,28.5431,0.1609,-0.8466,-0.1386,118.7081
16:48:54:078,-0.1744,0.9464,8.8763,28.3517,0.3033,-0.8619,0.0432,118.8223
16:48:54:098,0.3628,0.9955,9.1454,28.1137,0.3642,-0.7271,0.1571,118.9294
16:48:54:117,0.8274,0.9937,9.2798,27.7957,0.1887,-0.4605,0.1854,119.0266
16:48:54:138,0.951,1.003,9.7886,27.4746,-0.0722,-0.194,0.1441,119.0266
16:48:54:158,0.6739,0.9715,10.7881,27.2174,-0.1884,-0.0454,0.1621,119.0266
16:48:54:178,0.5455,0.9792,11.5907,26.9208,-0.0841,-0.0267,0.2493,119.0266
16:48:54:198,0.3047,1.1431,11.7624,26.6697,0.0758,-0.0802,0.3412,119.0266
16:48:54:220,0.3902,1.0638,11.6481,26.3819,0.0915,-0.108,0.3931,119.0266
16:48:54:238,0.3552,1.2687,11.9013,25.8862,-0.0587,0.0849,0.385,119.0266
16:48:54:258,0.2771,1.4429,12.0632,25.9272,-0.1352,0.4259,0.3523,119.0266
16:48:54:278,0.0384,1.1146,11.8274,25.7865,-0.1874,0.5648,0.3092,119.0266
16:48:54:298,-0.2078,0.6396,11.728,25.5529,-0.3335,0.4362,0.2574,119.0266
16:48:54:319,-0.4681,-0.2297,13.1152,25.5653,-0.2063,0.077,0.3325,119.0266
16:48:54:338,-0.9623,-0.6762,13.1696,25.4983,0.2216,-0.0603,0.4923,119.0266
16:48:54:358,-0.9864,-0.8368,11.8018,25.1245,0.6255,-0.2331,0.637,119.0266
16:48:54:378,-0.3804,-1.0319,10.0264,24.9737,0.6476,-0.5474,0.7863,119.0266
16:48:54:399,0.4877,-0.8474,9.3472,24.9251,0.4183,-0.7731,0.752,119.0266
16:48:54:418,1.1105,-0.836,8.8826,24.7717,0.0833,-0.7199,0.5231,118.9164
16:48:54:438,1.0301,-0.7077,8.7259,24.6082,-0.278,-0.415,0.2334,118.7948
16:48:54:457,0.0483,-0.7272,8.9991,24.8409,-0.512,0.0905,0.102,118.6722
16:48:54:478,-0.6055,-0.5003,9.453,24.5956,-0.3098,0.4625,0.1793,118.5515
16:48:54:498,-0.2285,0.2839,8.8178,24.3392,0.2181,0.5571,0.2711,118.4273
16:48:54:518,0.2557,0.5581,7.4401,24.5124,0.6452,0.3036,0.155,118.2965
16:48:54:538,-0.4485,0.5734,5.4228,24.539,0.6221,-0.1581,-0.0008,118.1636
16:48:54:558,-0.9028,0.5594,5.4549,24.7265,0.2258,-0.3904,0.0231,118.0333
16:48:54:578,-0.5645,0.7158,6.575,24.8512,0.0438,-0.1622,0.1221,117.9049
16:48:54:601,-0.3478,1.1611,6.9504,24.8543,0.0235,0.1112,0.1322,117.7759
16:48:54:618,-0.1638,1.1621,7.3342,25.0073,-0.0416,0.1187,0.1173,117.6462
16:48:54:638,-0.2465,1.1712,7.9656,24.7056,-0.1371,-0.1271,0.0853,117.5171
16:48:54:658,-0.2456,0.9023,9.349,24.6732,-0.1648,-0.3979,0.0776,117.3894
16:48:54:678,-0.359,0.7501,10.7368,24.6783,-0.0265,-0.3952,0.1569,117.263
16:48:54:700,-0.0022,0.5112,11.3523,24.5009,0.198,-0.175,0.2498,117.1339
16:48:54:718,0.6632,0.3075,10.6441,24.5905,0.2303,0.0623,0.2414,116.9988
16:48:54:738,0.9429,0.1466,9.8877,24.6656,-0.0905,0.2206,0.0659,116.8602
16:48:54:758,0.497,-0.4147,10.5579,24.5113,-0.5955,0.1724,-0.1818,116.7272
16:48:54:778,0.575,-1.5239,13.01,24.5941,-0.7246,-0.0551,-0.1474,116.6077
16:48:54:798,1.1658,-1.7317,14.3885,24.5758,-0.3071,-0.4289,0.059,116.4972
16:48:54:818,1.0596,-1.4553,14.3992,24.3764,0.3404,-1.1055,0.0875,116.3876
16:48:54:838,1.1424,-1.4738,12.958,24.3462,0.5545,-1.0621,0.0318,116.2759
16:48:54:858,1.488,-1.2392,12.3163,24.3421,0.0744,-0.1365,-0.0951,116.1648
16:48:54:878,1.6081,-1.1512,12.5389,24.2726,-0.2635,0.6687,-0.227,116.0621
16:48:54:898,1.4899,-0.9721,12.5158,24.4608,-0.2479,1.0062,-0.2182,115.9718
16:48:54:918,1.2116,-0.6838,11.6214,24.7318,0.0425,0.7439,-0.1525,115.9718
16:48:54:937,0.9936,-0.5504,10.1819,25.0247,0.2792,0.3249,-0.0513,115.9718
16:48:54:958,0.2728,-0.3879,8.382,25.3561,0.3589,-0.2265,0.0937,115.9718
16:48:54:980,0.3048,0.1172,8.3125,25.5014,0.3718,-0.7995,0.2609,115.9718
16:48:54:998,1.0432,0.6843,8.3755,25.674,0.3918,-0.5961,0.2261,115.8777
16:48:55:018,1.3942,0.7318,7.5312,25.7846,0.2363,0.1749,0.0261,115.7787
16:48:55:038,0.853,0.7175,6.6369,25.8784,0.0274,0.7416,-0.0403,115.6825
16:48:55:058,0.6858,0.7808,6.3909,25.9408,-0.0398,0.8843,0.0901,115.5898
16:48:55:080,0.8623,1.0625,6.5347,26.0298,0.1008,0.6926,0.1896,115.4954
16:48:55:099,1.0149,1.1745,6.8044,26.3199,0.2543,0.2532,0.1633,115.3966
16:48:55:118,0.8549,1.1057,7.4633,26.6498,0.3569,-0.1266,0.1304,115.2943
16:48:55:137,0.7503,1.0727,8.4809,26.4508,0.4257,-0.2801,0.1968,115.1887
16:48:55:158,1.3366,1.2252,9.2831,26.6056,0.4727,-0.2281,0.298,115.0768
16:48:55:178,2.13,1.7846,9.7447,26.7828,0.4576,-0.0827,0.3173,114.9558
16:48:55:198,2.7533,2.2158,9.745,26.903,0.4216,0.0858,0.1258,114.8272
16:48:55:218,2.6806,2.4841,9.6365,27.0414,0.3027,0.2387,-0.1679,114.6995
16:48:55:238,2.1381,2.3872,9.6512,27.1215,0.1333,0.3913,-0.4221,114.5832
16:48:55:259,1.3898,2.2544,9.6708,27.2496,-0.0172,0.4971,-0.5104,114.486
16:48:55:279,0.5462,2.1403,9.9524,27.1531,-0.0904,0.3725,-0.4875,114.486
16:48:55:298,-0.1374,1.8799,10.3158,27.2864,-0.1337,0.2492,-0.3368,114.486
16:48:55:318,-1.0492,1.9349,10.327,27.3786,-0.1118,0.1016,-0.0297,114.486
16:48:55:338,-0.7824,2.0189,10.9485,27.5751,-0.138,-0.0521,0.2056,114.486
16:48:55:361,-0.3843,1.3665,11.7151,27.5236,-0.2159,-0.1815,0.2098,114.486
16:48:55:378,-0.9446,0.4358,12.6632,27.4733,-0.2053,-0.393,0.207,114.486
16:48:55:399,-1.6081,-0.5522,13.3614,27.7223,-0.0682,-0.4036,0.3895,114.486
16:48:55:418,-1.7479,-1.0948,12.5065,27.6396,0.3512,-0.4198,0.8172,114.3944
16:48:55:438,-0.4932,-0.6392,11.1817,27.802,0.3827,-0.4574,1.0508,114.273
16:48:55:460,0.9199,-0.1926,10.6923,27.9887,0.2273,-0.6063,0.8524,114.1189
16:48:55:479,1.3012,-0.0524,10.6382,28.2065,-0.0512,-0.4951,0.5129,113.9428
16:48:55:499,0.6562,-0.1021,10.566,28.366,-0.1783,-0.2321,0.2527,113.7581
16:48:55:518,0.0115,-0.1604,9.6375,28.4071,-0.1843,0.1799,0.2326,113.5723
16:48:55:538,-0.3525,0.0569,8.4231,28.3921,-0.0939,0.3972,0.3173,113.3847
16:48:55:559,-0.1217,0.2069,7.1208,28.5514,0.0715,0.3253,0.4228,113.1908
16:48:55:578,0.2141,0.6017,6.8094,28.6249,0.1817,-0.0377,0.4446,112.9869
16:48:55:599,0.7099,0.7215,7.2805,28.8483,0.4543,-0.3884,0.4197,112.7723
16:48:55:618,0.9136,0.843,6.5729,28.9958,0.6464,-0.4101,0.365,112.5473
16:48:55:639,1.1629,1.156,5.6189,29.0362,0.471,-0.169,0.2244,112.3149
16:48:55:659,1.2407,1.6147,5.6393,28.9513,0.0332,0.1905,0.0096,112.0827
16:48:55:696,0.911,1.7828,6.7402,29.1394,-0.333,0.4504,-0.1925,111.8603
16:48:55:698,0.0699,1.6384,8.2099,29.4566,-0.3651,0.4456,-0.211,111.6538
16:48:55:718,-0.5395,1.3279,9.2497,29.4245,-0.0911,0.2039,0.0194,111.4598
16:48:55:740,-0.33,1.4131,9.6341,29.3068,0.2051,-0.1341,0.2753,111.2678
16:48:55:758,0.0421,1.6245,9.4497,29.2568,0.2516,-0.2484,0.3815,111.0695
16:48:55:778,0.5014,1.7885,9.2898,29.1042,-0.0396,-0.0458,0.3193,110.864
16:48:55:798,0.7759,1.4544,9.7799,28.9642,-0.4509,0.1262,0.0825,110.6569
16:48:55:818,0.5888,0.7526,11.1165,29.3312,-0.7193,0.0482,-0.104,110.4579
16:48:55:839,0.3836,0.0817,12.5993,29.4567,-0.7201,0.0659,-0.0296,110.2718
16:48:55:858,1.2625,-0.3763,13.2962,29.6362,-0.569,0.1795,0.1079,110.0937
16:48:55:878,2.2135,-0.5813,12.9832,29.5341,-0.5063,0.214,-0.0301,109.9205
16:48:55:898,1.6321,-0.6661,13.2023,29.5026,-0.5684,0.0515,-0.3789,109.7583
16:48:55:918,0.7905,-0.7306,13.4163,29.4444,-0.552,0.1184,-0.6109,109.6189
16:48:55:939,-0.055,-1.2089,13.3651,29.6104,-0.4099,0.4691,-0.6162,109.5072
16:48:55:958,-0.3063,-1.5286,12.0725,29.4636,-0.154,0.4462,-0.3352,109.5072
16:48:55:978,0.3807,-1.0469,11.0287,29.5345,-0.0074,0.1397,-0.064,109.5072
16:48:55:998,1.5815,-0.6921,10.242,29.6923,0.0398,-0.1649,-0.0278,109.5072
16:48:56:018,2.0338,-0.2179,9.2976,30.1587,-0.0267,-0.1755,-0.2047,109.5072
16:48:56:039,1.7613,0.0913,7.9934,29.9419,-0.2572,0.0998,-0.4378,109.5072
16:48:56:058,0.7671,0.292,7.5516,30.2521,-0.5517,0.4401,-0.5585,109.5072
16:48:56:078,-0.2295,0.1353,8.113,30.5248,-0.3855,0.4532,-0.4493,109.5072
16:48:56:098,-0.6284,0.0617,7.682,30.4368,-0.0324,0.3684,-0.1485,109.5072
16:48:56:121,-0.4525,0.3241,6.9529,30.4626,0.2111,0.2747,0.1205,109.5072
16:48:56:138,0.0504,0.5849,6.363,30.5232,0.2278,0.1367,0.2103,109.5072
16:48:56:158,0.5231,0.8412,6.2797,30.4067,0.0859,0.0475,0.2003,109.5072
16:48:56:178,0.9391,0.9448,6.96,30.3551,-0.0212,-0.1046,0.1633,109.5072
16:48:56:198,1.3192,0.9584,8.0803,30.3626,0.011,-0.3343,0.1053,109.5072
16:48:56:220,1.2289,0.9885,8.9149,30.3846,0.1178,-0.4106,0.0566,109.5072
16:48:56:238,1.334,0.9636,9.4161,30.6753,0.1639,-0.2885,0.038,109.5072
16:48:56:258,1.6423,1.1425,9.6939,30.8038,0.0749,-0.1473,-0.0246,109.5072
16:48:56:278,1.5712,1.3062,10.0244,30.7381,-0.0881,-0.0529,-0.1103,109.5072
16:48:56:298,1.4291,1.3417,9.9916,30.5518,-0.226,0.0141,-0.1165,109.5072
16:48:56:319,1.3964,1.6836,11.0843,30.3004,-0.246,-0.065,-0.1795,109.5072
16:48:56:338,1.5731,1.5844,11.9906,29.9275,-0.0664,-0.1155,-0.3031,109.5072
16:48:56:358,1.4456,1.4412,12.3622,29.4921,0.0058,0.0628,-0.4351,109.5072
16:48:56:378,1.6133,1.1404,12.5026,29.3554,-0.0165,0.554,-0.5743,109.5072
16:48:56:398,1.4191,1.0283,11.7521,29.2684,-0.1502,1.2327,-0.7123,109.5072
16:48:56:418,1.3144,1.7276,11.3923,29.149,-0.4677,1.2483,-0.7133,109.5072
16:48:56:439,0.3242,1.2016,13.1347,29.5122,-0.4116,0.7446,-0.8872,109.5072
16:48:56:458,-1.7767,-0.6954,13.5443,29.4954,0.2774,-0.0028,-0.8444,109.6134
16:48:56:478,-2.802,-2.175,12.454,29.8135,0.9164,-0.4579,-0.4654,109.742
16:48:56:500,-2.4482,-2.743,10.2903,29.7116,1.0109,-0.3495,-0.007,109.8776
16:48:56:518,-1.4353,-2.3932,8.6867,29.5887,0.4015,0.0519,0.3367,110.0055
16:48:56:538,-0.454,-1.6212,8.7666,29.3783,-0.195,0.2202,0.3552,110.1175
16:48:56:558,-0.3249,-1.0581,9.3389,29.2242,-0.4565,0.0131,0.1564,110.216
16:48:56:578,-0.9801,-0.7845,10.0457,28.8733,-0.3789,-0.3118,0.0884,110.3077
16:48:56:601,-1.4791,-0.5607,9.8299,28.9782,-0.0792,-0.4052,0.2619,110.3077
16:48:56:618,-1.2956,-0.2446,8.7898,29.0003,0.1883,-0.3026,0.5237,110.3077
16:48:56:638,-0.5839,0.2676,7.4502,28.9831,0.3828,-0.2038,0.7105,110.3077
16:48:56:658,0.4523,0.6907,6.227,29.1241,0.355,-0.237,0.6538,110.3077
16:48:56:678,0.9853,0.7949,5.5853,29.1564,0.1695,-0.2081,0.4088,110.3077
16:48:56:699,0.5353,0.6303,5.5372,29.3059,-0.0648,-0.1473,0.1508,110.3077
16:48:56:718,-0.2668,0.5445,6.2253,29.24,-0.1815,-0.1311,0.0228,110.3077
16:48:56:738,-0.5522,0.6229,7.1581,29.1557,-0.0956,-0.0671,0.0144,110.3077
16:48:56:757,-0.3343,0.8276,7.1587,29.146,-0.0208,0.0545,-0.0195,110.3077
16:48:56:777,-0.2492,1.1337,7.4899,28.7574,-0.2043,0.0442,-0.202,110.3077
16:48:56:799,-0.7011,0.866,9.162,28.9856,-0.3641,-0.0085,-0.3697,110.3077
16:48:56:818,-1.4371,0.2954,11.2649,29.0868,-0.2212,0.0243,-0.2952,110.3077
16:48:56:838,-1.4417,-0.1754,11.7568,28.978,0.1263,0.2003,0.0396,110.3077
16:48:56:858,-0.491,-0.2455,10.7821,29.0676,0.0889,0.3332,0.2813,110.3077
16:48:56:878,0.7048,-0.0964,10.8576,28.9577,-0.3112,0.2396,0.1393,110.3077
16:48:56:899,0.7856,-0.0895,12.3464,28.9722,-0.6153,0.1261,-0.1774,110.3077
16:48:56:918,0.6005,-0.8792,13.6466,29.1983,-0.5908,0.1937,-0.3062,110.3077
16:48:56:938,0.2185,-1.3526,13.6625,29.1033,-0.4452,0.3733,-0.2811,110.3077
16:48:56:958,0.3322,-1.4677,13.4398,29.0889,-0.288,0.2697,-0.2732,110.3077
16:48:56:981,0.5406,-1.4518,13.2691,29.0606,-0.16,0.2187,-0.329,110.3077
16:48:56:999,0.2395,-1.5095,12.6628,28.9572,0.1265,0.0519,-0.3836,110.3077
16:48:57:019,0.6298,-1.9222,11.66,29.1796,0.0961,0.144,-0.3766,110.3077
16:48:57:038,0.724,-1.6986,11.2423,29.4281,-0.0209,0.1595,-0.4728,110.3077
16:48:57:058,0.8245,-1.6924,11.1561,29.8639,-0.1686,0.0878,-0.4852,110.412
16:48:57:079,0.6274,-1.2761,11.1902,30.2716,-0.1885,0.1616,-0.5499,110.5304
16:48:57:098,0.3052,-0.9394,10.1087,30.5138,-0.1562,0.306,-0.564,110.6645
16:48:57:119,0.0268,-0.4327,9.0427,30.7202,-0.1119,0.6705,-0.4987,110.8131
16:48:57:138,-0.3294,-0.1,7.2836,30.8288,0.1241,0.6713,-0.3086,110.973
16:48:57:158,-0.1786,0.2503,5.8878,30.9961,0.2831,0.5736,-0.1218,111.1377
16:48:57:178,0.0475,0.5938,4.966,31.3649,0.3598,0.2507,-0.0655,111.3011
16:48:57:198,0.2848,0.5832,4.9205,31.4261,0.3193,-0.0818,-0.0415,111.4621
16:48:57:218,0.4143,0.7867,5.7237,31.6543,0.2018,-0.4086,-0.1179,111.6207
16:48:57:238,0.0552,0.8731,7.3143,31.3811,0.1206,-0.6879,-0.1996,111.7799
16:48:57:257,-0.3494,0.7773,9.0509,31.2846,0.1665,-0.8166,-0.1679,111.9418
16:48:57:278,-0.2968,0.841,10.1619,31.2492,0.3158,-0.6615,-0.0715,112.103
16:48:57:299,-0.0152,0.9916,10.359,31.3592,0.4389,-0.3406,0.0293,112.2602
16:48:57:318,0.3241,1.2348,10.1051,31.3923,0.4108,-0.0679,0.0444,112.4109
16:48:57:337,0.5706,1.3899,9.952,31.6224,0.2931,0.1416,0.0264,112.5554
16:48:57:361,0.4994,1.5488,10.1586,31.8743,0.1899,0.2289,-0.0017,112.6949
16:48:57:378,0.2925,1.5341,10.44,32.0492,0.2088,0.2039,0.0103,112.83
16:48:57:398,0.3443,1.1499,10.6495,31.8962,0.2502,0.103,0.0345,112.9603
16:48:57:418,0.5877,0.7405,10.8397,32.2605,0.1361,0.0529,-0.0198,113.0856
16:48:57:438,0.224,0.8235,11.5002,32.29,-0.1052,0.254,-0.0734,113.2084
16:48:57:460,-0.7193,1.7496,11.8581,32.3961,-0.2372,0.7199,0.0887,113.3296
16:48:57:478,-0.5898,2.312,11.4934,32.6747,-0.3514,0.8733,0.344,113.442
16:48:57:499,0.1393,1.4004,12.1353,32.9798,-0.466,0.7384,0.2976,113.5386
16:48:57:518,-0.5693,-0.1854,12.6618,32.9217,0.0007,0.1149,0.1462,113.5386
16:48:57:538,-1.4245,-1.3166,11.7516,33.1645,0.4711,-0.5232,-0.0666,113.5386
16:48:57:558,-2.1462,-1.9647,10.5761,33.2059,0.5354,-0.6174,-0.0664,113.5386
16:48:57:578,-2.0059,-2.0399,9.7791,33.1959,0.2546,-0.4121,0.0767,113.5386
16:48:57:598,-1.07,-1.6538,10.0675,33.4068,-0.1267,-0.2561,0.1982,113.5386
16:48:57:618,0.0869,-0.83,10.734,33.342,-0.1489,-0.1633,0.0948,113.5386
16:48:57:638,0.3147,-0.4628,9.8612,33.8293,-0.0525,-0.1836,-0.2113,113.5386
16:48:57:658,-0.1326,-0.4793,8.9439,33.7599,-0.0538,-0.0299,-0.4138,113.5386
16:48:57:705,-0.6165,-0.6559,8.1661,33.8372,-0.0257,0.1077,-0.4459,113.6373
16:48:57:708,-0.8776,-0.6782,7.2911,33.6887,-0.0483,0.1256,-0.3259,113.7477
16:48:57:718,-0.9104,-0.3932,7.0225,33.697,-0.078,0.0347,-0.1379,113.8645
16:48:57:740,-0.7155,0.132,7.2968,33.6,0.034,-0.0693,0.0046,113.9809
16:48:57:758,-0.5186,0.5772,7.1953,33.6713,0.2444,-0.1232,0.0456,114.093
16:48:57:778,-0.3811,0.6458,6.5148,34.1991,0.2857,-0.0347,0.0043,114.2002
16:48:57:798,-0.3881,0.9478,6.1934,34.4819,0.0856,0.0637,-0.0918,114.305
16:48:57:818,-0.7192,1.1783,6.7332,34.6798,-0.2351,0.1404,-0.2304,114.4113
16:48:57:839,-1.2767,1.2096,8.0632,34.7894,-0.3666,0.1792,-0.2838,114.5232
16:48:57:858,-2.0204,1.0703,9.3927,34.9617,-0.2051,0.0449,-0.2074,114.641
16:48:57:878,-2.1108,0.7328,9.9949,35.048,0.1016,-0.2211,-0.0011,114.7603
16:48:57:898,-1.6141,0.6345,9.8604,35.4382,0.2861,-0.3959,0.2297,114.8738
16:48:57:917,-0.7846,0.7231,9.5849,35.398,0.1486,-0.4598,0.261,114.9753
16:48:57:938,-0.3617,0.5068,9.8958,35.3952,-0.1371,-0.3663,0.1888,115.0656
16:48:57:958,-0.2483,-0.0791,10.8508,36.0415,-0.4554,-0.197,0.0972,115.0656
16:48:57:978,-0.2135,-0.7917,12.4987,36.2977,-0.5501,-0.0721,0.095,115.0656
16:48:57:998,0.7451,-1.5951,13.4942,36.7182,-0.4043,0.0331,0.1807,115.0656
16:48:58:018,1.546,-1.6142,13.3404,37.0967,-0.3628,0.1292,0.0851,115.0656
