Time,Acc_X,Acc_Y,Acc_Z,Meg,Gyr_X,Gyr_Y,Gyr_Z,Ore
17:10:54:419,-0.4877,3.8705,8.1772,59.1998,-0.3978,-0.104,0.0583,80.6371
17:10:54:437,-0.5686,3.8611,8.5398,59.2888,-0.5003,-0.0894,0.0892,80.6371
17:10:54:458,-0.8005,3.8875,9.1685,59.3153,-0.5261,-0.2043,0.1524,80.6371
17:10:54:478,-0.5871,3.6649,9.5354,59.5719,-0.5249,-0.3283,0.1998,80.6371
17:10:54:498,-0.2179,3.3248,9.6977,59.8421,-0.4835,-0.4216,0.1965,80.6371
17:10:54:518,0.1247,3.1766,9.5552,60.0539,-0.4141,-0.4953,0.1783,80.6371
17:10:54:537,0.3692,3.2393,9.309,59.9451,-0.3293,-0.407,0.1509,80.6371
17:10:54:558,0.3215,3.3779,9.1437,60.009,-0.2247,-0.1647,0.1429,80.6371
17:10:54:577,-0.055,3.5969,8.9802,59.6562,-0.0824,0.0643,0.1936,80.6371
17:10:54:598,-0.4467,3.7364,8.4355,59.2514,0.0218,0.2218,0.2993,80.6371
17:10:54:618,-0.6209,3.8189,8.0842,59.3332,0.0022,0.3935,0.3995,80.6371
17:10:54:637,-0.9041,3.9138,8.2592,59.3967,-0.0989,0.479,0.4387,80.6371
17:10:54:658,-1.1511,4.1035,8.5783,59.542,-0.1704,0.3973,0.4319,80.6371
17:10:54:677,-1.0372,4.1752,8.463,59.8899,-0.2176,0.1855,0.3787,80.5314
17:10:54:698,-0.5652,4.3325,8.1549,59.7013,-0.3305,-0.0613,0.28,80.4152
17:10:54:718,-0.098,4.1595,8.2708,59.714,-0.4908,-0.1785,0.1914,80.293
17:10:54:738,0.2185,3.8765,8.5509,59.6792,-0.561,-0.1911,0.1359,80.1688
17:10:54:758,0.2921,3.6975,8.8766,59.6277,-0.5188,-0.1315,0.1357,80.0443
17:10:54:777,0.3949,3.5852,8.9198,59.7055,-0.3962,-0.0546,0.1468,79.9196
17:10:54:799,0.2297,3.7786,8.9633,59.4248,-0.1865,0.0764,0.1114,79.7949
17:10:54:817,-0.1428,3.9947,8.7763,59.5516,0.066,0.1645,0.0875,79.6711
17:10:54:838,-0.3197,4.1441,8.1676,59.4018,0.2403,0.1416,0.0932,79.5479
17:10:54:857,-0.3554,4.4051,7.4489,59.6109,0.2206,0.0674,0.1348,79.4243
17:10:54:877,-0.3546,4.7404,7.4394,59.9456,0.0221,0.125,0.2079,79.2989
17:10:54:899,-0.4656,4.6239,7.9854,60.0003,-0.139,0.359,0.2501,79.1701
17:10:54:917,-0.9493,4.2032,7.3715,59.871,-0.3429,0.4365,0.2916,79.0358
17:10:54:938,-0.0162,4.7026,8.5726,59.9212,-0.6358,0.4254,0.2656,78.8953
17:10:54:957,-0.0665,4.5063,10.0112,59.7354,-0.7021,0.2083,0.3162,78.7483
17:10:54:977,-0.0801,4.0754,10.9769,59.3472,-0.5357,-0.0327,0.274,78.5943
17:10:54:998,0.1705,3.7075,11.7243,59.3234,-0.281,-0.1522,0.1289,78.4365
17:10:55:018,0.0896,3.6527,11.9407,59.5869,0.0041,-0.1236,-0.0935,78.2813
17:10:55:038,-0.2899,3.8816,11.6438,59.7885,0.2831,-0.3584,-0.3194,78.1358
17:10:55:057,-0.4378,4.1989,10.5856,60.1011,0.4919,-0.5614,-0.4355,78.0066
17:10:55:077,-0.2857,4.4792,9.2041,60.3875,0.4595,-0.6311,-0.4348,77.8963
17:10:55:098,-0.2778,4.6454,8.4825,60.7289,0.0685,-0.3254,-0.2329,77.8031
17:10:55:117,-0.7463,4.1037,8.7382,60.6416,-0.3787,0.2429,-0.0194,77.8031
17:10:55:138,-0.4149,3.1497,10.6595,60.4719,-0.4293,-0.0636,0.1607,77.8031
17:10:55:158,0.2253,2.3555,11.1149,59.9113,-0.5056,0.2211,0.2135,77.8031
17:10:55:181,0.0364,1.6121,11.6452,59.7741,-0.4383,0.2628,0.1362,77.7074
17:10:55:198,-0.0108,1.2831,11.3076,59.5625,-0.216,0.0909,0.0131,77.6109
17:10:55:218,-0.0464,1.4151,10.4307,59.5729,0.0033,-0.0147,-0.1261,77.5184
17:10:55:238,-0.1461,1.7547,10.0299,59.7423,0.1583,0.0613,-0.1285,77.5184
17:10:55:258,-0.0411,1.7895,9.6673,59.7397,0.3545,0.132,0.0061,77.5184
17:10:55:279,0.4119,1.8545,9.0489,59.5523,0.5603,0.2452,0.1088,77.5184
17:10:55:298,0.576,2.0264,8.5886,59.3809,0.6069,0.4116,0.1472,77.5184
17:10:55:318,0.4043,2.2298,8.6797,59.3156,0.4741,0.5067,0.1594,77.4275
17:10:55:338,-0.0008,2.3811,8.9627,59.3761,0.2668,0.5197,0.2085,77.3332
17:10:55:358,-0.2753,2.3866,9.2813,59.2777,0.0127,0.4842,0.3089,77.2319
17:10:55:378,-0.4121,2.0424,9.6987,59.2813,-0.1758,0.2118,0.3551,77.1224
17:10:55:398,-0.0745,1.8144,9.4613,59.2399,-0.2011,-0.1781,0.3368,77.0021
17:10:55:418,0.2762,1.6915,8.6552,58.8205,-0.155,-0.3974,0.2751,76.8735
17:10:55:437,0.548,1.8685,7.9691,58.5723,-0.153,-0.369,0.1921,76.7398
17:10:55:458,0.439,2.1624,7.901,58.0763,-0.1727,-0.1147,0.1278,76.6046
17:10:55:479,0.2206,2.4094,8.193,58.2051,-0.1373,0.1056,0.1141,76.4703
17:10:55:498,0.2064,2.4684,8.3045,58.0386,-0.0084,0.077,0.13,76.3359
17:10:55:518,0.2704,2.6389,7.9278,58.1521,0.0949,0.0305,0.1334,76.2008
17:10:55:538,0.3275,2.8993,7.925,58.2581,0.0724,0.1171,0.1216,76.0655
17:10:55:558,0.4655,3.0087,8.5921,58.2739,0.0579,0.1485,0.0885,75.9298
17:10:55:578,0.6471,3.091,9.2565,57.8711,0.148,-0.0341,0.0051,75.7957
17:10:55:598,0.7943,3.3131,9.4154,57.6872,0.2442,-0.2916,-0.1286,75.6659
17:10:55:618,1.045,3.9206,9.1623,57.4427,0.1941,-0.2397,-0.2113,75.5457
17:10:55:638,1.9717,4.0328,9.3571,57.2508,-0.0448,0.4523,-0.3185,75.4392
17:10:55:661,0.9188,3.8623,10.6194,57.2888,-0.1942,0.7511,-0.2874,75.3488
17:10:55:678,-0.0686,3.6532,11.7681,57.192,-0.1936,0.5945,-0.0705,75.3488
17:10:55:698,-1.0561,2.9626,12.0768,56.7399,-0.1475,0.4132,0.118,75.3488
17:10:55:718,-0.9002,2.4151,11.8627,56.527,-0.0443,0.0105,0.1362,75.3488
17:10:55:738,-0.2282,1.5851,11.6787,56.2124,0.0819,-0.596,-0.0727,75.2568
17:10:55:761,0.1389,1.7418,10.7267,55.9428,0.2093,-0.6604,-0.3099,75.2568
17:10:55:778,-0.0322,2.0992,9.6912,55.8114,0.1809,-0.3639,-0.2953,75.2568
17:10:55:798,-1.1372,2.3255,10.107,55.6707,0.0228,0.1994,-0.0773,75.2568
17:10:55:818,-2.0282,2.1884,10.9766,55.639,0.0133,0.2504,0.2589,75.2568
17:10:55:838,-2.0026,2.0059,10.6901,55.6901,0.1522,0.1722,0.5104,75.2568
17:10:55:859,-1.5152,1.8438,9.6793,55.5665,0.2185,0.1248,0.6254,75.1635
17:10:55:878,-0.9883,1.9809,8.724,55.2376,0.0481,0.103,0.5977,75.0508
17:10:55:898,-0.9236,2.2451,8.347,54.837,-0.308,0.0208,0.5258,74.9203
17:10:55:918,-0.6849,2.383,8.3665,54.6058,-0.5621,-0.1613,0.47,74.7747
17:10:55:938,-0.2963,2.3578,8.2649,54.5181,-0.5855,-0.2158,0.3966,74.6172
17:10:55:958,0.0079,2.3586,8.1789,54.4843,-0.4214,-0.1133,0.3404,74.4515
17:10:55:978,0.2817,2.3382,7.9825,54.3693,-0.1675,0.0133,0.2911,74.2799
17:10:55:998,0.3772,2.4079,7.5195,54.3325,0.0399,0.149,0.2451,74.1043
17:10:56:018,0.2748,2.6583,7.4212,54.1519,0.0656,0.3219,0.1949,73.9263
17:10:56:041,-0.2609,2.7752,7.8619,53.6812,0.0565,0.3317,0.1659,73.7474
17:10:56:058,-0.5992,2.867,8.1982,53.4641,0.1092,0.1123,0.195,73.5673
17:10:56:078,-0.4694,3.009,7.818,53.161,0.1432,-0.1745,0.2604,73.3846
17:10:56:098,0.0072,3.154,7.662,53.1702,0.0837,-0.1454,0.2823,73.198
17:10:56:118,0.0668,3.239,8.5117,52.988,0.0623,0.0682,0.2731,73.0077
17:10:56:139,0.033,3.3084,9.2998,52.8538,0.197,0.1466,0.245,72.8142
17:10:56:158,-0.0693,3.3863,9.6528,52.8001,0.388,0.1718,0.1835,72.6187
17:10:56:178,-0.1358,3.2835,10.1395,52.5888,0.5213,-0.0159,0.0768,72.4234
17:10:56:198,-0.311,3.4086,10.5005,52.5658,0.5674,-0.2589,-0.0794,72.2322
17:10:56:218,-0.4282,3.6155,10.4355,52.3263,0.5509,-0.4525,-0.0725,72.0495
17:10:56:239,0.1661,3.112,9.7823,51.909,0.4372,-0.4204,-0.0302,71.874
17:10:56:258,0.8973,2.7792,9.5546,51.8129,0.2111,-0.2595,-0.1564,71.706
17:10:56:278,1.5858,3.1605,9.7188,51.4571,-0.0109,-0.1394,-0.4066,71.5512
17:10:56:298,1.4184,2.9007,10.5106,51.3607,-0.1569,-0.1685,-0.6578,71.4178
17:10:56:318,0.7333,2.5002,12.0381,51.4438,-0.2557,-0.0771,-0.8848,71.3143
17:10:56:338,0.3496,1.9259,12.6111,51.4792,-0.2402,0.0434,-1.0127,71.3143
17:10:56:358,1.0981,1.3115,11.8713,51.5823,-0.0926,0.2164,-1.1272,71.3143
17:10:56:378,1.2814,1.5297,10.6373,51.3986,0.1496,0.2617,-1.1913,71.3143
17:10:56:398,1.0008,1.7681,9.436,51.4253,0.0578,0.6313,-1.1394,71.3143
17:10:56:434,0.3194,1.7821,9.0852,51.3837,-0.2513,0.9366,-0.9936,71.4098
17:10:56:440,-0.7108,1.431,9.0391,51.3083,-0.5148,0.9091,-0.8635,71.535
17:10:56:458,-1.1809,1.1562,8.872,51.2228,-0.5764,0.7646,-0.6943,71.6829
17:10:56:479,-1.2449,1.2597,8.2687,51.064,-0.472,0.2825,-0.6093,71.8462
17:10:56:498,-1.3948,1.5224,6.8495,51.0101,-0.4754,-0.1064,-0.5526,72.0225
17:10:56:519,-1.3209,1.9317,6.3771,50.8676,-0.6718,-0.2958,-0.4289,72.2092
17:10:56:538,-1.0474,1.8765,7.5296,50.7143,-0.7067,-0.0135,-0.0997,72.4008
17:10:56:558,-0.8975,1.5521,8.7336,50.7582,-0.3555,0.3712,0.1565,72.5864
17:10:56:578,-1.6794,1.1852,9.9188,50.6688,0.1002,0.0546,0.1811,72.7591
17:10:56:598,-2.1241,2.6897,8.802,50.6398,0.2207,-0.3693,-0.0001,72.922
17:10:56:619,-1.7712,2.6016,7.9469,50.8017,0.1197,-0.561,0.0937,73.0793
17:10:56:638,-1.0919,2.639,7.8183,50.8437,-0.0653,-0.3847,0.1741,73.2283
17:10:56:658,-1.0019,2.4913,8.4531,50.9806,-0.0889,-0.1415,0.2495,73.3661
17:10:56:678,-0.7804,2.0023,9.7885,50.915,-0.0069,-0.1364,0.2312,73.4911
17:10:56:699,-0.2612,1.6321,10.4878,51.3091,0.1068,-0.2882,-0.0162,73.606
17:10:56:719,-0.2504,1.7049,10.404,51.3074,0.2222,-0.2941,-0.2083,73.7208
17:10:56:738,-0.776,1.9647,10.1985,51.2165,0.2767,-0.153,-0.1584,73.8404
17:10:56:758,-1.3599,2.0841,9.7367,51.0751,0.1949,0.0155,-0.0487,73.962
17:10:56:778,-1.8938,2.2205,10.092,51.0409,-0.0842,0.107,-0.0013,74.0813
17:10:56:802,-2.1583,2.5596,11.0961,51.1161,-0.3648,-0.0526,0.0859,74.1953
17:10:56:818,-2.002,2.1823,12.0528,51.375,-0.4587,-0.0606,0.2481,74.3002
17:10:56:838,-2.0415,1.6542,12.4773,51.6231,-0.3231,-0.009,0.3543,74.3918
17:10:56:858,-1.9307,1.4459,12.6473,51.7818,-0.1192,0.0712,0.4969,74.3918
17:10:56:878,-1.5754,1.339,12.2704,51.7759,0.0985,0.1161,0.6068,74.3918
17:10:56:900,-1.5828,1.3037,11.6757,51.5405,0.2345,0.1126,0.6102,74.3918
17:10:56:918,-1.3481,1.1884,10.7793,51.5648,0.2425,0.0933,0.585,74.3918
17:10:56:938,-1.2823,0.8618,9.8861,51.8599,0.1402,0.0661,0.5302,74.3918
17:10:56:958,-1.0526,1.3332,8.9866,51.8904,-0.0071,0.0007,0.4003,74.3918
17:10:56:978,-1.6561,1.8698,8.3898,51.9917,-0.1066,-0.0515,0.3929,74.3918
17:10:57:000,-1.4543,2.132,8.073,52.2001,-0.1632,0.0186,0.57,74.3918
17:10:57:018,-0.0083,1.4639,7.8865,52.4436,-0.1578,-0.0317,0.5945,74.3918
17:10:57:038,0.4175,1.2246,6.8884,52.4864,-0.2035,0.0603,0.4098,74.3008
17:10:57:058,0.2216,1.2794,5.5308,52.4234,-0.3379,0.1879,0.238,74.1992
17:10:57:077,0.4453,1.2874,5.2157,52.5551,-0.5894,0.3167,0.0988,74.0928
17:10:57:098,0.1414,1.2127,7.09,52.6058,-0.7179,0.269,-0.1801,73.987
17:10:57:118,-0.9365,1.7563,9.3768,52.7316,-0.4941,-0.1361,-0.2984,73.8904
17:10:57:138,-1.5051,2.4384,10.1748,53.0194,-0.0982,-0.7089,-0.1081,73.8904
17:10:57:158,-0.6006,2.6984,9.4711,53.2763,0.1801,-0.7502,0.1042,73.8904
17:10:57:178,-0.0273,2.2164,8.7317,53.4425,0.3097,-0.2625,0.1462,73.8904
17:10:57:198,0.1056,1.8471,9.1087,53.63,0.3687,0.4058,0.1688,73.7999
17:10:57:218,-0.3836,2.1991,10.6886,53.8403,0.4811,0.7168,0.1285,73.7077
17:10:57:238,-1.1192,2.7211,11.4986,53.7657,0.495,0.3778,0.0166,73.6147
17:10:57:258,-1.6588,2.2367,10.6127,53.735,0.2687,-0.3809,0.1039,73.523
17:10:57:279,-0.9466,1.2941,9.7904,54.0431,-0.0404,-0.7003,0.4654,73.4263
17:10:57:298,0.5334,0.7536,9.7085,53.9675,-0.3411,-0.5154,0.6164,73.314
17:10:57:318,1.6442,1.4511,9.8559,53.9205,-0.6152,-0.4237,0.4325,73.1848
17:10:57:338,2.0176,1.0753,10.8223,54.2266,-0.8415,-0.3232,0.2005,73.0459
17:10:57:358,1.2728,0.0174,12.6803,54.5809,-0.958,-0.0764,-0.1679,72.907
17:10:57:379,0.308,0.317,13.8295,54.9025,-0.7757,0.0479,-0.6395,72.7829
17:10:57:398,-0.3911,0.6135,12.7517,54.8092,-0.3279,-0.0043,-0.5616,72.6856
17:10:57:418,0.2111,0.3259,10.9025,55.0698,0.034,0.0068,-0.2965,72.6856
17:10:57:437,0.5408,0.3482,9.4626,54.7212,-0.0128,-0.0171,-0.3057,72.6856
17:10:57:458,0.254,0.4595,9.0792,54.4456,-0.2924,0.2562,-0.4447,72.6856
17:10:57:479,-0.2756,0.4284,9.3209,54.4231,-0.2962,0.6224,-0.4899,72.6856
17:10:57:500,-0.619,0.7419,9.0233,54.4724,-0.0397,0.4945,-0.4567,72.6856
17:10:57:518,-1.1677,0.6683,8.2879,54.4543,0.0112,-0.0419,-0.4452,72.6856
17:10:57:537,-1.7346,1.2117,7.7559,54.3708,-0.2477,-0.5237,-0.4515,72.6856
17:10:57:558,-1.6631,1.2472,8.2141,54.5923,-0.1944,-0.6453,-0.3661,72.6856
17:10:57:578,-0.6375,1.2018,8.3308,54.2864,0.1105,-0.6984,-0.3197,72.6856
17:10:57:598,-0.2682,1.7487,7.464,54.4464,0.3712,-0.525,-0.3176,72.6856
17:10:57:618,-0.6136,1.4226,7.1884,54.5082,0.3819,-0.1693,-0.2245,72.6856
17:10:57:638,-0.7301,1.4873,7.4449,54.6089,0.1918,-0.1281,-0.0989,72.6856
17:10:57:658,-0.3664,2.0996,7.9399,54.7392,-0.0546,-0.3133,0.1309,72.6856
17:10:57:678,0.1911,2.2962,8.6269,54.7794,-0.2224,-0.425,0.3021,72.6856
17:10:57:698,0.394,2.3542,9.6198,54.8816,-0.2845,-0.4908,0.4969,72.6856
17:10:57:718,0.6689,1.9408,10.4432,54.6854,-0.1403,-0.3323,0.5499,72.6856
17:10:57:738,0.6101,1.999,11.4045,54.5305,0.0831,-0.3678,0.4462,72.6856
17:10:57:760,0.8628,2.0341,11.7578,54.6555,0.2278,-0.737,0.1715,72.6856
17:10:57:778,0.8854,1.2309,12.2684,54.6503,0.2098,-0.2452,0.1062,72.6856
17:10:57:798,1.6343,1.3022,12.0171,54.5757,0.4153,0.1668,0.0667,72.6856
17:10:57:818,0.8813,0.6673,10.8302,54.1291,0.4428,0.4788,0.0876,72.6856
17:10:57:838,-0.1672,1.3978,9.9373,53.9375,0.2564,0.7088,0.2468,72.6856
17:10:57:859,-0.1984,1.899,9.6722,53.2649,-0.1333,1.0595,0.2715,72.6856
17:10:57:878,-0.3511,0.7648,11.4217,53.0031,-0.6665,1.1481,0.1262,72.6856
17:10:57:898,-1.1913,-0.5912,13.4482,52.7481,-0.9122,0.9401,0.2012,72.6856
17:10:57:918,-1.9813,-0.9011,14.1335,52.556,-0.4982,0.242,0.3327,72.6856
17:10:57:940,-2.5555,-0.8026,12.867,52.5582,0.1096,-0.2387,0.5916,72.6856
17:10:57:957,-1.9452,-0.3915,10.8998,52.4585,0.2907,-0.1645,0.8118,72.6856
17:10:57:978,-0.6138,-0.1533,9.8606,52.0157,0.1332,0.1297,0.7288,72.5707
17:10:57:998,0.7245,0.2982,9.7373,51.8736,-0.0171,0.2386,0.4179,72.4366
17:10:58:018,0.911,0.1602,9.0712,51.3406,-0.0437,0.3223,0.1482,72.2947
17:10:58:039,0.4009,0.1863,8.0353,51.1688,0.1252,0.0507,0.059,72.1527
17:10:58:057,0.3505,0.5368,7.1723,50.9223,0.2813,-0.1576,0.0329,72.0138
17:10:58:078,-0.505,0.2263,6.4566,50.6406,0.2579,-0.0737,0.0179,71.8782
17:10:58:098,-0.0507,0.8606,6.2631,50.5137,-0.0315,0.1847,0.0056,71.7462
17:10:58:118,-0.0833,0.783,6.6615,50.216,-0.3916,0.276,0.0698,71.6172
17:10:58:139,-0.5971,0.9807,7.6444,50.0669,-0.5615,0.0628,0.1928,71.4878
17:10:58:158,-0.9615,1.1092,8.5484,49.9932,-0.3458,-0.2838,0.3519,71.3532
17:10:58:178,-0.5782,0.8724,8.606,49.8751,0.1278,-0.3599,0.4914,71.2106
17:10:58:198,0.0156,0.6268,8.238,49.4578,0.4323,0.0185,0.5845,71.055
17:10:58:218,-0.0973,0.9309,8.0347,49.2745,0.3834,0.5012,0.5864,70.8843
17:10:58:239,-0.2331,1.2075,8.3992,49.0125,0.2452,0.6109,0.5041,70.699
17:10:58:259,0.0606,1.7098,8.852,48.6611,0.1154,0.4442,0.2763,70.5021
17:10:58:278,-0.3573,2.1951,8.8625,48.6281,-0.083,0.2531,0.0272,70.3046
17:10:58:298,-0.3604,1.2197,9.6634,48.5762,-0.5599,0.201,-0.1117,70.1127
17:10:58:319,-0.4447,0.3668,12.4921,48.524,-1.0189,0.1592,-0.1768,69.9293
17:10:58:339,-0.954,0.5895,15.7136,48.265,-0.6486,0.0133,-0.0644,69.7556
17:10:58:358,-0.5142,0.4435,16.0486,48.1835,0.5351,-0.259,0.1521,69.5877
17:10:58:378,0.3684,0.3858,13.3427,47.8186,1.2831,-0.3558,0.1414,69.4216
17:10:58:398,0.8116,0.7923,10.6689,47.6734,1.1076,-0.2219,0.0126,69.2584
17:10:58:420,1.2942,0.8513,9.6635,47.5458,0.5842,-0.0378,-0.2103,69.1022
17:10:58:451,1.0929,0.3845,10.016,47.5054,0.0018,0.0123,-0.471,68.9604
17:10:58:458,0.6133,0.2112,10.658,47.6831,-0.4261,0.2308,-0.6074,68.8408
17:10:58:477,0.0538,-0.071,10.8457,47.7228,-0.5216,0.4642,-0.7534,68.7456
17:10:58:498,0.2745,-0.1224,10.1773,47.5811,-0.3223,0.2495,-0.7288,68.7456
17:10:58:518,-0.5335,0.5432,8.8439,47.1673,-0.0925,-0.0634,-0.7645,68.7456
17:10:58:537,-0.4392,0.2068,7.467,46.9989,0.0268,-0.1426,-0.777,68.7456
17:10:58:558,-0.7309,0.6567,6.6663,47.1193,-0.155,-0.3978,-0.7421,68.7456
17:10:58:578,-1.4739,0.8598,6.5106,47.4255,-0.3866,-0.5969,-0.5582,68.7456
17:10:58:598,-1.4015,0.7853,6.9294,47.7422,-0.4076,-0.6377,-0.3607,68.7456
17:10:58:618,-1.2673,0.6053,7.0879,47.4102,-0.2329,-0.6114,-0.222,68.7456
17:10:58:638,-0.6158,0.4334,7.4009,47.4577,-0.0966,-0.6657,-0.1222,68.7456
17:10:58:658,-0.4578,0.3314,8.1136,47.2614,-0.042,-0.9463,0.0439,68.7456
17:10:58:678,-0.3527,0.5053,9.4771,47.1751,-0.0732,-0.9852,0.1574,68.7456
17:10:58:700,-0.4042,1.2764,9.7594,47.066,0.1659,-0.6989,0.3252,68.7456
17:10:58:718,-0.622,0.9948,9.9122,47.0119,0.2827,-0.1049,0.4437,68.7456
17:10:58:738,0.6711,0.4584,8.5228,47.034,0.353,0.462,0.4225,68.7456
17:10:58:758,0.4405,1.5269,8.2504,47.2704,-0.0075,0.9064,0.2677,68.7456
17:10:58:777,0.041,2.4884,8.9204,47.4459,-0.429,0.87,0.1465,68.7456
17:10:58:800,0.0279,2.017,11.2642,47.7056,-0.4965,0.4442,-0.0911,68.7456
17:10:58:818,-1.1771,0.763,13.9246,47.3144,0.0703,0.1556,-0.1018,68.7456
17:10:58:838,-1.45,0.2877,14.0965,47.2353,0.7389,0.0897,0.2422,68.7456
17:10:58:858,-0.8166,0.6721,12.8033,47.378,0.9153,0.2121,0.5779,68.7456
17:10:58:878,-1.3523,1.2399,11.2467,47.3319,0.4661,0.5509,0.736,68.7456
17:10:58:900,-2.0569,1.6676,10.8881,47.6508,-0.1612,0.7028,0.7853,68.7456
17:10:58:918,-2.0586,1.0665,11.0841,47.877,-0.3438,0.4294,0.7558,68.7456
17:10:58:938,-1.9688,0.2417,10.4801,47.7943,-0.2049,-0.1114,0.6108,68.6486
17:10:58:958,-2.1634,0.2421,10.2618,47.5459,-0.2754,-0.5389,0.6773,68.5326
17:10:58:977,-1.4497,-0.1988,10.7054,47.1699,-0.4249,-0.2834,0.7639,68.3957
17:10:58:999,-0.0344,0.2756,10.0253,47.0735,-0.5439,0.3394,0.7307,68.2362
17:10:59:018,-0.2096,0.4091,9.153,46.962,-0.5859,0.7398,0.5181,68.0577
17:10:59:038,-0.8613,0.1675,8.9394,46.8823,-0.5838,0.6885,0.4109,67.8672
17:10:59:057,-0.9363,-0.2388,9.1919,46.5266,-0.5047,0.3698,0.477,67.6672
17:10:59:077,-1.1835,0.183,8.9923,46.5358,-0.3073,-0.089,0.5829,67.4551
17:10:59:098,-1.14,0.0362,8.2907,46.2979,0.008,-0.4065,0.6802,67.2288
17:10:59:118,-0.7343,-0.115,7.5161,46.0578,0.3616,-0.3736,0.8259,66.9852
17:10:59:138,0.0552,0.3735,6.8173,46.295,0.5069,-0.0731,0.8667,66.7203
17:10:59:157,0.2765,1.006,6.656,46.0959,0.2785,0.2185,0.6424,66.4355
17:10:59:178,-0.0074,1.0162,7.2967,45.6839,0.0116,0.2912,0.3546,66.1397
17:10:59:199,-0.5518,0.8291,8.1936,45.4103,-0.0494,0.3123,0.2111,65.8423
17:10:59:218,-0.715,0.5605,9.2845,44.8893,-0.0573,0.559,0.333,65.5453
17:10:59:238,-0.2671,0.9559,11.1043,44.6414,0.0908,0.3422,0.3214,65.2456
17:10:59:259,0.0314,1.1698,12.8066,44.6175,0.4178,-0.3718,0.1352,64.9458
17:10:59:279,-0.1046,0.8013,12.9509,44.6933,0.7172,-0.7245,-0.0009,64.6531
17:10:59:298,0.2379,0.3654,12.2684,44.3846,0.7753,-0.4897,-0.0759,64.3713
17:10:59:318,0.4775,0.35,11.1075,43.9859,0.5626,0.0724,-0.1793,64.1026
17:10:59:338,-0.3451,0.2764,10.0887,43.5351,0.0929,0.5184,-0.3844,63.85
17:10:59:358,-0.2389,-0.2872,9.5117,43.0349,-0.564,0.6202,-0.5142,63.6199
17:10:59:379,-0.8648,0.0063,11.4613,42.7857,-1.1819,0.3033,-0.903,63.4134
17:10:59:398,-1.1276,-1.6372,14.5875,42.4666,-1.269,0.3038,-0.9013,63.2418
17:10:59:418,-0.2668,-2.4829,16.2264,42.3656,-0.5641,0.6357,-0.4669,63.1002
17:10:59:438,0.1198,-1.2846,13.7196,42.0229,0.377,0.3103,-0.2409,62.9763
17:10:59:457,0.6857,-0.1899,10.6555,41.6781,0.7078,-0.1144,-0.2127,62.8668
17:10:59:479,0.7719,0.634,8.5368,41.7243,0.6305,-0.3516,-0.332,62.7701
17:10:59:498,0.187,0.7933,7.0631,41.6624,0.3649,-0.3211,-0.5096,62.7701
17:10:59:518,-0.509,0.7755,6.1313,41.2302,0.0674,-0.2681,-0.5987,62.7701
17:10:59:537,-0.8637,0.5582,5.7755,41.0081,-0.1638,-0.2507,-0.5946,62.7701
17:10:59:558,-1.331,0.5037,6.1885,40.5989,-0.3008,-0.0851,-0.5464,62.7701
17:10:59:578,-1.3072,0.3788,6.8644,39.9917,-0.1857,-0.0516,-0.4091,62.7701
17:10:59:598,-1.0895,0.4911,6.8333,39.8596,0.0587,-0.0401,-0.3432,62.7701
17:10:59:618,-0.5296,0.8344,6.5597,39.322,0.1577,-0.1906,-0.2429,62.7701
17:10:59:638,0.1841,1.2364,7.0285,39.2127,0.095,-0.2714,-0.2044,62.7701
17:10:59:660,0.4321,1.6242,8.0336,38.9933,-0.0499,-0.1755,-0.2681,62.7701
17:10:59:678,-0.0625,1.3921,9.0535,38.9989,-0.0297,-0.1043,-0.3404,62.7701
17:10:59:698,-0.6752,0.5268,9.529,38.8528,0.1462,-0.0615,-0.3087,62.7701
17:10:59:718,-1.4118,0.369,9.3738,38.9774,0.2572,-0.127,-0.1497,62.7701
17:10:59:738,-1.2442,0.7447,9.6773,38.98,0.1921,-0.2121,0.0197,62.7701
17:10:59:759,-0.801,0.9663,10.8455,38.6997,0.0929,-0.3125,0.0567,62.7701
17:10:59:778,-0.669,1.3031,12.3645,38.6962,0.1982,-0.3929,0.0896,62.7701
17:10:59:798,-0.5653,1.5488,12.9718,38.404,0.485,-0.7026,0.03,62.7701
17:10:59:818,-0.5844,1.6444,12.4843,38.3383,0.7697,-0.9603,-0.0942,62.7701
17:10:59:837,-0.2795,1.1134,11.8675,38.1503,0.89,-0.6554,-0.0447,62.7701
17:10:59:858,0.4406,1.3089,10.5288,38.1978,0.7515,-0.3811,0.2107,62.7701
17:10:59:878,0.4826,1.8121,9.6647,38.5679,0.2201,-0.1941,0.2525,62.7701
17:10:59:898,0.7538,2.1975,10.0453,38.3799,-0.2581,-0.0692,0.1383,62.7701
17:10:59:918,0.3317,1.8434,10.3954,38.6006,-0.5695,-0.058,-0.3504,62.7701
17:10:59:939,-0.5233,1.0943,10.6125,38.6431,-0.6594,-0.3611,-0.5114,62.7701
17:10:59:958,-0.9942,-0.15,10.495,38.9676,-0.1702,-1.0576,-0.3175,62.7701
17:10:59:978,-1.1097,0.0785,10.061,39.1887,0.0296,-1.1563,0.0721,62.8615
17:10:59:998,-0.2331,-0.1911,9.1112,39.229,0.0399,-0.9253,0.3415,62.8615
17:11:00:018,1.1703,0.3421,8.6558,39.4266,-0.2264,-0.6663,0.2878,62.8615
17:11:00:041,1.8023,0.3674,8.4309,39.453,-0.4368,-0.2546,0.0588,62.8615
17:11:00:058,1.0436,0.8173,8.1624,39.4866,-0.5493,0.0056,-0.1214,62.8615
17:11:00:078,-0.0299,0.8959,8.6064,39.8634,-0.4728,0.0792,-0.1144,62.8615
17:11:00:098,-0.4043,0.427,8.5721,39.9068,-0.164,0.0635,0.0299,62.8615
17:11:00:118,0.086,0.2721,8.0476,40.0721,0.2279,-0.012,0.2493,62.8615
17:11:00:139,0.802,0.4818,7.6253,40.2842,0.2955,0.0883,0.3294,62.8615
17:11:00:158,0.8091,1.4095,7.744,40.6951,0.0295,0.1326,0.2587,62.8615
17:11:00:178,0.7507,1.223,9.1187,41.2943,-0.2012,0.1916,0.1558,62.8615
17:11:00:198,0.7166,0.6558,10.0405,41.6197,-0.0756,0.3155,0.1332,62.8615
17:11:00:218,0.5973,0.8492,10.0224,42.2545,0.2358,0.4104,0.143,62.8615
17:11:00:239,0.4856,1.2104,9.8836,42.7415,0.4127,0.1829,0.0675,62.8615
17:11:00:258,0.3893,1.5216,10.4048,43.0853,0.3607,-0.2527,-0.1081,62.8615
17:11:00:278,0.6573,0.8156,10.8717,43.6552,0.2168,-0.4119,-0.2434,62.8615
17:11:00:298,0.8904,-0.178,11.0412,44.15,-0.0114,-0.1691,-0.2579,62.8615
17:11:00:319,0.8457,-0.381,11.3395,44.5661,-0.3152,0.1768,-0.1863,62.8615
17:11:00:339,1.4124,-0.2393,11.6896,44.7651,-0.4428,0.5314,-0.1032,62.8615
17:11:00:358,1.5571,-0.5146,11.8374,45.0108,-0.2861,0.6474,-0.163,62.8615
17:11:00:378,1.511,-0.4497,11.7105,45.2247,-0.0825,0.4639,-0.3991,62.8615
17:11:00:398,0.7504,-0.4942,11.4949,45.7394,-0.0606,0.0142,-0.5751,62.8615
17:11:00:419,0.8695,-1.406,11.4527,46.1158,-0.0251,-0.1672,-0.5151,62.966
17:11:00:463,0.906,-1.552,11.3409,46.5136,-0.1236,-0.2762,-0.3486,63.0838
17:11:00:465,1.1528,-0.8841,11.3818,46.9251,-0.1577,-0.3801,-0.0934,63.208
17:11:00:477,1.7079,-0.3118,10.9066,46.9383,-0.1049,-0.006,0.0638,63.3306
17:11:00:498,1.5561,0.2708,9.4293,46.9907,0.0803,0.3956,0.0469,63.4478
17:11:00:519,1.1306,0.7529,7.5926,47.1214,0.1079,0.6109,0.0254,63.5601
17:11:00:538,1.1326,0.7292,6.5375,47.352,0.0006,0.4521,0.0035,63.6679
17:11:00:558,0.915,1.1079,6.6449,47.6081,-0.2045,0.2488,-0.0331,63.7724
17:11:00:578,0.6952,1.3517,7.4474,48.2644,-0.2807,0.1714,-0.0663,63.8752
17:11:00:598,0.4239,1.2675,8.1015,48.6635,-0.1004,0.2419,-0.1314,63.9785
17:11:00:618,0.2213,0.8634,7.7926,49.0528,0.1888,0.2961,-0.1229,64.0836
17:11:00:638,0.2121,0.9474,7.2621,49.3873,0.278,0.2427,-0.0517,64.1892
17:11:00:658,0.5152,1.2258,7.2592,49.5778,0.1454,0.0436,-0.0175,64.2925
17:11:00:678,0.4292,1.3652,7.9574,49.9282,-0.1184,-0.1476,-0.0616,64.3932
17:11:00:701,-0.0397,1.4012,9.5365,49.9212,-0.3088,-0.1077,0.0173,64.4925
17:11:00:718,0.0085,1.2263,11.1416,50.621,-0.1666,0.006,0.1039,64.5878
17:11:00:738,0.6232,1.1858,11.2371,51.0938,0.2229,0.0177,0.1306,64.5878
17:11:00:757,0.5534,1.6307,10.6562,51.4139,0.4188,-0.0882,0.1055,64.5878
17:11:00:778,0.2196,2.0029,10.4138,51.6465,0.358,-0.2596,0.1348,64.5878
17:11:00:800,0.5415,2.1077,10.613,51.7248,0.1666,-0.3178,0.1743,64.5878
17:11:00:818,0.8726,1.8511,11.5299,51.777,0.0044,-0.2483,0.1057,64.5878
17:11:00:838,0.9281,1.5471,12.1547,51.6657,0.0743,0.0135,0.0128,64.5878
17:11:00:858,0.6766,1.1785,11.4925,52.2138,0.1529,0.1906,-0.091,64.5878
17:11:00:878,0.0488,1.0077,10.978,52.4842,-0.1515,0.0232,-0.236,64.5878
17:11:00:900,-0.5024,0.5804,12.0316,52.6086,-0.7311,0.0918,-0.2712,64.5878
17:11:00:918,-1.2236,-0.353,13.9041,52.688,-0.6001,-0.0686,-0.1649,64.5878
17:11:00:938,-1.0672,-0.7944,13.3637,53.1015,-0.0512,-0.151,0.0751,64.6811
17:11:00:958,-1.0347,-0.2928,11.5584,53.2325,0.3873,-0.2605,0.3814,64.6811
17:11:00:978,-0.1273,0.2774,9.2911,53.4035,0.4637,-0.2334,0.5499,64.6811
17:11:00:999,0.5581,0.3921,7.6799,53.6045,0.2754,-0.1075,0.4749,64.6811
17:11:01:019,0.8028,0.7832,7.0026,53.4968,-0.1191,0.0507,0.3275,64.6811
17:11:01:038,0.2582,0.904,7.5495,53.643,-0.3353,-0.0364,0.1203,64.6811
17:11:01:058,-0.5258,0.8157,8.4426,53.8536,-0.194,-0.2535,0.0668,64.6811
17:11:01:079,-0.6583,0.476,8.7078,53.9335,0.2392,-0.3248,0.246,64.6811
17:11:01:098,-0.1681,0.3276,7.6205,53.9287,0.6409,-0.2984,0.4826,64.6811
17:11:01:118,0.4315,0.7942,6.4534,54.0677,0.6477,-0.2403,0.5794,64.6811
17:11:01:137,0.8684,1.247,6.2221,54.0034,0.4457,-0.1573,0.4738,64.6811
17:11:01:158,0.8792,1.5477,6.5752,54.0418,0.254,0.0343,0.2967,64.6811
17:11:01:178,0.6968,1.6224,6.9449,54.2081,0.1812,0.1349,0.1335,64.6811
17:11:01:198,0.5312,1.5254,7.314,54.3418,0.0938,0.0433,0.0181,64.6811
17:11:01:218,0.2459,1.5415,8.2262,54.5572,-0.0008,-0.1398,-0.0596,64.6811
17:11:01:238,0.1399,1.3702,9.4622,54.6889,-0.0611,-0.3467,-0.0923,64.6811
17:11:01:258,0.057,1.3962,11.0267,54.7354,-0.0427,-0.4557,-0.0911,64.6811
17:11:01:279,0.3279,1.1942,11.9384,54.6603,0.0946,-0.3081,-0.107,64.6811
17:11:01:298,0.8228,0.5113,11.3194,54.58,0.0682,-0.0307,-0.1568,64.6811
17:11:01:318,1.2296,0.0356,11.0356,54.5435,-0.2348,0.1526,-0.2129,64.6811
17:11:01:338,1.1882,-0.0331,12.1696,54.2855,-0.482,0.1973,-0.2296,64.6811
17:11:01:358,1.5917,-0.1625,13.474,54.3282,-0.1489,0.1657,-0.1274,64.6811
17:11:01:379,2.1611,-0.5591,12.2968,54.4727,0.4894,0.0966,-0.1045,64.6811
17:11:01:399,1.9634,0.0281,9.9899,54.6042,0.6368,-0.0307,-0.2212,64.6811
17:11:01:418,2.299,0.1166,8.6299,54.5977,-0.0401,-0.0754,-0.471,64.6811
17:11:01:438,2.6785,-0.3059,10.0257,54.5497,-0.9666,0.0239,-0.8536,64.6811
17:11:01:458,1.5097,-0.5607,12.5709,54.3298,-1.2078,0.139,-0.9863,64.6811
17:11:01:479,0.6138,-0.5954,13.3539,54.4982,-0.7412,0.2734,-0.7321,64.6811
17:11:01:498,0.6845,-0.4259,11.2696,54.4335,-0.1131,0.4536,-0.3131,64.7843
17:11:01:518,1.4929,0.0935,8.5251,54.4828,0.1363,0.4042,-0.0537,64.8926
17:11:01:538,2.2502,0.5185,6.7347,54.2925,0.0162,0.2166,-0.0787,64.9987
17:11:01:559,2.2152,1.0067,6.2473,54.3809,-0.245,-0.0015,-0.2995,65.1057
17:11:01:579,1.3594,1.2109,7.0414,54.7419,-0.4359,-0.0915,-0.4811,65.2218
17:11:01:598,0.2577,1.1929,7.9578,54.7037,-0.2345,-0.0227,-0.5128,65.3529
17:11:01:618,-0.2012,0.9063,7.6436,54.8318,0.0737,0.1151,-0.3196,65.4969
17:11:01:638,0.0027,0.902,6.8381,54.9618,0.1579,0.0946,-0.1316,65.6456
17:11:01:660,0.455,1.2048,6.969,54.8954,-0.0548,-0.0901,-0.0744,65.7931
17:11:01:678,0.4599,1.5252,8.4435,54.7649,-0.2151,-0.44,-0.1276,65.9389
17:11:01:699,0.2987,1.4804,10.1652,54.6507,-0.0987,-0.6691,-0.1403,66.0856
17:11:01:718,0.3265,1.4028,11.323,54.413,0.2645,-0.6047,-0.0315,66.2325
17:11:01:738,0.7691,1.3603,10.9647,54.4001,0.6391,-0.2811,0.1015,66.3743
17:11:01:759,1.1643,1.8282,9.8229,54.42,0.6859,0.0182,0.1363,66.5056
17:11:01:778,1.3865,2.1707,9.4094,54.224,0.4426,0.1806,0.0192,66.627
17:11:01:798,1.0826,2.1348,9.9841,54.2883,0.1713,0.2898,-0.1163,66.7439
17:11:01:818,0.4708,1.5613,11.0407,54.3833,-0.0103,0.2811,-0.2006,66.8617
17:11:01:838,0.2602,0.6804,12.0057,54.5433,-0.0748,0.2476,-0.0923,66.9822
17:11:01:858,0.4743,0.1806,12.6579,54.7573,-0.1461,0.0926,0.0066,67.1011
17:11:01:878,0.5596,-0.0517,13.5102,54.9668,-0.3575,-0.1276,-0.0174,67.2163
17:11:01:899,0.5258,-0.5637,14.9753,54.8518,-0.383,-0.2209,0.0175,67.3296
17:11:01:917,0.5051,-0.7677,15.3981,54.8252,0.0002,-0.3063,0.1896,67.4388
17:11:01:938,0.7232,-0.7433,13.5591,54.8765,0.3618,-0.3511,0.3422,67.5368
17:11:01:958,0.9494,-0.1853,11.2493,54.8421,0.3743,-0.1444,0.3764,67.5368
17:11:01:978,0.7175,0.2878,9.2521,54.8645,0.2719,0.1016,0.2903,67.5368
17:11:01:998,0.448,0.4454,7.6918,54.9076,0.0197,0.2995,0.2295,67.5368
17:11:02:018,0.0817,0.763,7.2485,55.0563,-0.1564,0.3597,0.2187,67.5368
17:11:02:040,0.0632,0.8479,7.0058,54.9461,-0.1128,0.2739,0.2504,67.5368
17:11:02:058,0.1,0.9353,6.589,55.1301,0.0453,0.0464,0.2892,67.5368
17:11:02:078,0.332,0.9899,6.3692,55.3097,0.1673,-0.2115,0.3134,67.5368
17:11:02:098,0.4359,1.1061,6.3357,55.138,0.3049,-0.3729,0.3062,67.5368
17:11:02:117,0.6028,1.2138,6.1696,55.3032,0.4121,-0.3777,0.2915,67.5368
17:11:02:138,0.9636,1.3382,5.9299,55.23,0.4214,-0.208,0.2412,67.5368
17:11:02:157,1.2263,1.5245,5.6416,55.087,0.3164,0.0556,0.1222,67.5368
17:11:02:178,1.2114,1.5466,5.8877,55.2184,0.1051,0.0714,-0.054,67.5368
17:11:02:198,0.9,1.3787,7.2052,55.2256,-0.174,-0.1894,-0.2174,67.5368
17:11:02:217,0.2709,1.3703,10.2275,55.2801,-0.2263,-0.5282,-0.2294,67.5368
17:11:02:239,0.7592,1.0672,12.4464,55.3138,0.2173,-0.4247,-0.1567,67.5368
17:11:02:258,1.5364,0.5019,12.2021,55.3018,0.6124,0.0875,-0.1181,67.5368
17:11:02:278,2.1551,0.2437,10.4544,55.5136,0.424,0.6824,-0.1964,67.5368
17:11:02:298,2.2651,0.6882,9.9977,55.8779,-0.2597,0.9899,-0.4032,67.5368
17:11:02:318,2.555,0.5143,11.6517,55.8367,-0.722,0.9049,-0.746,67.5368
17:11:02:338,2.6492,-0.3105,12.6301,56.064,-0.7694,0.5224,-1.1184,67.5368
17:11:02:358,1.9292,-0.8236,13.5223,56.1811,-1.05,-0.0521,-1.5255,67.643
17:11:02:378,0.4925,-1.6132,16.4306,55.9919,-1.1627,-0.2751,-1.6276,67.7966
17:11:02:398,-0.1793,-2.3452,17.8052,55.5883,-0.4706,-0.0395,-1.1639,68.0015
17:11:02:421,0.8128,-2.5887,14.9443,55.1948,0.5496,0.308,-0.4681,68.2362
17:11:02:438,2.2144,-1.6887,10.1996,54.9574,0.7829,0.4799,0.0458,68.4739
17:11:02:480,2.7275,-0.2279,7.6354,55.2365,0.1412,0.2379,0.085,68.6992
17:11:02:483,2.5455,0.8056,8.4472,54.9615,-0.5489,-0.2214,-0.132,68.9156
17:11:02:498,2.1055,0.7388,10.3708,55.1219,-0.6077,-0.5871,-0.3699,69.1328
17:11:02:519,1.551,0.4636,9.9927,55.2154,-0.15,-0.5524,-0.3561,69.3582
17:11:02:538,1.5433,0.5649,8.2821,54.9734,0.3323,-0.1776,-0.1381,69.5882
17:11:02:558,1.6687,0.9819,6.1413,54.8373,0.5906,0.2873,-0.0395,69.8144
17:11:02:577,1.8559,1.1365,4.3051,54.6847,0.507,0.5823,-0.1616,70.0349
17:11:02:598,1.6505,1.4671,3.3716,54.5428,0.1505,0.7125,-0.3792,70.2555
17:11:02:618,1.4219,1.4432,4.0398,54.1601,-0.2912,0.4933,-0.5626,70.4832
17:11:02:638,1.0973,1.4411,6.2383,53.9895,-0.444,-0.0542,-0.6954,70.7243
17:11:02:658,0.7571,1.3768,8.5631,54.0986,-0.1473,-0.561,-0.661,70.9849
17:11:02:677,0.989,0.9412,9.7674,53.8074,0.399,-0.8523,-0.5479,71.2575
17:11:02:698,1.0558,0.5939,9.4057,53.8902,0.6773,-0.5641,-0.3705,71.5393
17:11:02:718,1.1225,0.921,8.7605,53.8111,0.4398,-0.0307,-0.1728,71.8226
17:11:02:738,1.4845,1.3157,9.088,53.7356,0.0705,0.3973,-0.1423,72.1022
17:11:02:758,1.2839,1.6429,10.1745,53.7475,-0.0583,0.4939,-0.1878,72.3786
17:11:02:778,1.5681,1.4693,11.0148,53.6453,0.1781,0.3991,-0.1779,72.6535
17:11:02:798,1.8836,1.405,10.6044,53.629,0.3917,0.3592,-0.1656,72.9262
17:11:02:818,2.499,1.4288,9.5882,53.5653,0.2228,0.2255,-0.2605,73.1961
17:11:02:839,3.3125,0.469,10.2372,53.4269,-0.7023,-0.4073,-0.7288,73.468
17:11:02:858,2.4622,-0.4905,15.0044,53.2719,-1.4361,-0.7458,-1.1413,73.7607
17:11:02:877,0.7998,-1.2914,19.6279,53.1326,-0.902,-0.3587,-1.1041,74.0875
17:11:02:899,0.0662,-2.1418,18.1518,53.0207,0.5788,0.0843,-0.6355,74.4422
17:11:02:918,0.6655,-1.3091,12.4988,52.7951,1.125,0.5856,-0.1425,74.8032
17:11:02:938,1.8129,-0.5683,8.5539,52.372,0.8507,0.5151,-0.2446,75.1564
17:11:02:958,1.3562,0.4758,6.8986,52.1775,0.0189,0.3525,-0.6084,75.5091
17:11:02:978,0.6738,0.4014,8.3436,51.838,-0.5457,-0.0199,-0.8777,75.8733
17:11:02:999,-0.4148,0.36,10.0647,51.3594,-0.4454,-0.2227,-0.9033,76.2578
17:11:03:018,-0.7708,0.3835,9.9879,50.9527,0.0262,-0.3384,-0.7449,76.6612
17:11:03:038,-0.2033,0.2302,8.5087,50.3616,0.2423,-0.2251,-0.584,77.077
17:11:03:058,0.4403,0.6029,7.4102,49.9418,0.0851,-0.0863,-0.5727,77.4998
17:11:03:078,0.6264,1.1706,7.1648,49.5161,-0.1847,0.0387,-0.6854,77.9305
17:11:03:100,0.3793,1.5658,7.3318,49.317,-0.2195,0.0911,-0.8221,78.3733
17:11:03:118,-0.0631,1.5572,7.7947,49.1037,0.0135,-0.0199,-0.8479,78.8319
17:11:03:138,-0.3034,1.362,7.9505,48.8977,0.4284,-0.1486,-0.7477,79.3057
17:11:03:157,-0.115,1.0847,6.9742,48.6231,0.6931,-0.1182,-0.5832,79.7898
17:11:03:178,0.2617,1.3304,5.9874,48.3791,0.5084,0.0616,-0.4865,80.2781
17:11:03:199,0.4074,1.7962,6.263,48.2987,0.1163,0.168,-0.5602,80.7685
17:11:03:218,0.1258,1.9238,7.253,47.9523,-0.1478,0.1362,-0.6898,81.2643
17:11:03:238,-0.0857,1.5804,8.9325,47.92,-0.1991,-0.0805,-0.7497,81.7693
17:11:03:258,-0.1171,0.993,10.4317,47.4696,0.0131,-0.3038,-0.703,82.2848
17:11:03:280,0.2528,0.335,10.6396,47.3666,0.259,-0.3572,-0.6074,82.8084
17:11:03:298,0.5516,0.1059,9.8723,47.0674,0.1465,-0.265,-0.5083,83.3363
17:11:03:318,1.0753,0.0772,10.1052,46.8996,-0.2592,-0.1129,-0.5214,83.8656
17:11:03:338,1.8456,-0.1111,11.4617,46.7136,-0.5176,0.1111,-0.5891,84.398
17:11:03:358,2.5566,-0.4598,11.9625,46.5222,-0.5607,0.2538,-0.7674,84.9365
17:11:03:380,2.9559,-0.6294,12.2648,46.3211,-0.7967,0.1847,-1.09,85.4876
17:11:03:398,2.7309,-0.9116,13.834,45.8722,-1.0216,0.0947,-1.4301,86.0628
17:11:03:418,2.4126,-1.4662,15.5114,45.3122,-0.8427,-0.0731,-1.5134,86.6711
17:11:03:438,2.7526,-2.0914,15.5918,45.1263,-0.454,-0.3586,-1.465,87.3133
17:11:03:458,2.8439,-1.8,14.4778,44.8081,-0.235,-0.503,-1.3921,87.9861
17:11:03:478,2.4698,-0.7438,12.5866,44.7316,-0.1696,-0.3192,-1.3454,88.6865
17:11:03:499,1.756,0.2689,10.7267,44.66,-0.1629,0.1887,-1.3305,89.4126
17:11:03:518,1.2115,0.7816,8.5922,44.186,0.0053,0.6377,-1.2961,90.1633
17:11:03:538,0.7981,0.7988,6.6358,43.7651,0.2053,0.834,-1.2025,90.9358
17:11:03:558,0.5806,0.7522,4.9152,43.4939,0.4466,0.7037,-1.0925,91.7277
17:11:03:578,0.3633,0.8492,3.5224,43.023,0.4786,0.3356,-0.9967,92.5309
17:11:03:598,0.3491,1.036,3.2143,42.8025,0.2744,-0.1866,-0.9558,93.3432
17:11:03:618,0.5397,1.1971,4.3601,42.6324,0.0226,-0.6794,-0.9597,94.1633
17:11:03:638,0.7165,1.1572,6.2627,42.4176,-0.1205,-1.0613,-1.0128,94.9914
17:11:03:660,0.5547,1.2577,8.4484,41.7482,-0.1308,-1.1011,-1.0368,95.8337
17:11:03:678,0.7264,1.2914,10.5014,41.1532,0.1117,-0.6824,-0.9697,96.6831
17:11:03:699,0.591,1.0911,10.6049,40.9272,0.4576,-0.0231,-0.9456,97.5413
17:11:03:718,0.1169,1.4532,9.2925,40.5386,0.4412,0.5881,-0.8168,98.4059
17:11:03:738,0.0741,1.6437,8.5064,40.5781,0.1332,0.9353,-0.7109,99.2719
17:11:03:760,-0.4167,1.9746,8.7985,40.7085,-0.1987,0.975,-0.6218,100.1365
17:11:03:778,-0.8052,2.039,10.0532,40.5962,-0.3082,0.7249,-0.4643,100.9935
17:11:03:798,-0.5637,1.76,11.0095,40.1988,-0.2136,0.3732,-0.3282,101.8385
17:11:03:818,-0.0215,1.1517,11.6418,39.8343,-0.2139,0.0722,-0.1904,102.6674
17:11:03:838,0.1918,1.2455,12.5631,39.5797,-0.2372,0.0692,-0.0017,103.4762
17:11:03:859,0.2005,1.5631,12.6307,39.1402,-0.0264,0.3108,0.1579,104.259
17:11:03:878,0.2839,1.6798,11.0473,38.924,-0.0145,0.5152,0.1692,105.0134
17:11:03:898,-0.1347,1.1427,10.4702,38.6521,-0.1362,0.0801,0.0128,105.7396
17:11:03:918,-0.4269,0.1922,11.0914,38.3322,-0.379,-0.3531,-0.0933,106.4435
17:11:03:938,-0.8472,-0.4647,12.3469,38.0388,-0.2251,-0.8435,-0.0316,107.128
17:11:03:958,-0.3258,-0.5663,12.2022,38.0775,-0.0194,-1.0402,0.0727,107.7919
17:11:03:978,0.6077,-0.3996,10.8558,37.992,0.138,-0.9036,0.0086,108.4336
17:11:03:998,1.2069,-0.2302,9.1742,37.7862,-0.1232,-0.6035,-0.241,109.0579
17:11:04:018,1.344,-0.34,8.4796,37.7104,-0.553,-0.3609,-0.5882,109.6746
17:11:04:039,0.578,-0.1498,9.165,37.4123,-0.9254,-0.0553,-0.7787,110.2955
17:11:04:058,-0.5524,0.1044,10.3247,37.0233,-0.659,0.102,-0.7657,110.9275
17:11:04:078,-0.9365,-0.1927,9.7464,36.4296,0.0216,0.1539,-0.4772,111.5643
17:11:04:098,-0.1413,-0.5681,7.9449,36.5317,0.5065,0.049,-0.1886,112.1959
17:11:04:118,0.7431,-0.1947,6.5524,36.2382,0.4746,-0.0949,-0.104,112.8134
17:11:04:138,0.8837,0.5355,6.9174,36.2041,0.2032,-0.3518,-0.2439,113.416
17:11:04:158,0.7081,0.6175,8.2484,36.3536,0.1698,-0.5447,-0.4018,114.0103
17:11:04:177,0.4603,0.4347,9.0534,36.4088,0.3507,-0.4811,-0.3802,114.6005
17:11:04:198,0.4742,0.332,9.05,36.268,0.5121,-0.333,-0.2818,115.1852
17:11:04:217,0.858,0.4224,8.5518,36.3,0.513,-0.1547,-0.2067,115.7603
17:11:04:238,1.3553,0.4027,8.3695,36.3324,0.2642,-0.1058,-0.3303,116.325
17:11:04:258,1.0466,0.2856,9.2607,36.2355,-0.0572,-0.0914,-0.5355,116.8854
17:11:04:278,0.0866,-0.1308,10.7144,36.3131,-0.164,0.0064,-0.5951,117.4487
17:11:04:298,-0.8148,-0.6397,11.7748,36.2554,-0.015,0.1835,-0.3298,118.0145
17:11:04:318,-0.2813,-0.8245,11.6366,36.2666,0.0912,0.27,0.0577,118.5714
17:11:04:338,1.7759,-0.7062,11.027,36.3229,-0.0776,0.3055,0.1338,119.1077
17:11:04:358,3.0293,-0.378,10.5472,36.4414,-0.5245,0.3032,-0.3225,119.6258
17:11:04:378,2.3636,-0.6019,12.6222,36.8707,-1.132,-0.0803,-1.1338,120.1459
17:11:04:398,0.2565,-1.6366,16.9029,37.3249,-1.0479,-0.3235,-1.4936,120.6954
17:11:04:418,-0.1128,-3.0024,18.2602,37.3498,-0.023,-0.2589,-1.0874,121.2796
17:11:04:438,1.263,-3.3493,14.4741,37.4961,1.0654,0.0821,-0.5361,121.8794
17:11:04:482,2.5811,-2.1667,9.1145,37.6486,0.8286,0.3713,-0.3698,122.4754
17:11:04:484,2.7372,-0.5229,6.9344,37.809,-0.1619,0.5306,-0.716,123.0673
17:11:04:498,1.2916,0.6805,8.0191,38.2909,-0.8416,0.6917,-1.1275,123.67
17:11:04:519,-0.4216,0.5477,8.7418,38.3905,-0.6831,0.7603,-1.1889,124.2953
17:11:04:538,-1.4954,0.2597,7.5071,38.5038,-0.2103,0.5602,-0.7795,124.9401
17:11:04:558,-0.6466,0.7287,6.1986,38.9135,0.0418,0.1524,-0.3014,125.587
17:11:04:577,0.1477,1.5404,6.0469,39.0428,0.2667,-0.2203,-0.2127,126.2234
17:11:04:598,0.4182,1.6568,5.6395,39.2748,0.3261,-0.4036,-0.3578,126.8489
17:11:04:618,0.0859,1.3313,5.7409,39.7974,0.245,-0.4042,-0.4805,127.4693
17:11:04:638,-0.3737,0.9468,6.3349,40.1246,0.1179,-0.1854,-0.4101,128.0876
17:11:04:658,-0.0791,0.8576,7.2266,40.4105,0.023,-0.0473,-0.2728,128.7002
17:11:04:678,0.4921,0.9529,8.3928,40.8146,0.0303,-0.0618,-0.2196,129.3031
17:11:04:699,0.8062,0.9661,9.5014,41.2221,0.1541,-0.1734,-0.1985,129.8953
17:11:04:718,1.0185,1.0694,10.2164,41.5007,0.3023,-0.2344,-0.1593,130.4762
17:11:04:738,1.0273,1.3116,10.6217,41.9312,0.3786,-0.152,-0.1493,131.0449
17:11:04:758,0.8656,1.445,10.5094,42.2197,0.3872,0.0251,-0.1687,131.6019
17:11:04:778,0.4834,1.6364,10.317,42.6054,0.2595,0.1447,-0.1878,132.1481
17:11:04:801,0.1752,1.8364,10.6988,43.0972,0.0961,0.1748,-0.1937,132.6843
17:11:04:818,0.1941,1.5683,11.2628,43.3845,-0.0481,0.1224,-0.2598,133.2113
17:11:04:838,-0.0237,1.1055,12.1185,43.6812,-0.2445,0.1176,-0.3267,133.732
17:11:04:858,-0.7431,0.693,12.9831,44.1623,-0.3525,0.2571,-0.2597,134.2489
17:11:04:878,-1.4437,0.4671,13.3037,44.7647,-0.3074,0.2423,-0.0877,134.7574
17:11:04:900,-1.6349,-0.0551,13.1301,45.1265,-0.2841,0.2616,0.1352,135.2518
17:11:04:918,-2.3479,-0.7648,12.241,45.9357,-0.0231,-0.1464,0.4849,135.7236
17:11:04:938,-1.5835,-0.6192,11.1947,46.3539,0.1974,-0.9081,0.8784,136.1596
17:11:04:958,-0.054,-0.1321,11.2462,46.986,0.3936,-1.5373,0.8654,136.5491
17:11:04:978,1.3601,0.0307,10.5264,47.8408,0.2544,-1.4157,0.5836,136.9
17:11:04:999,1.4686,0.1504,9.8335,48.2508,-0.1735,-0.5574,0.2015,137.2245
17:11:05:018,0.7104,0.0863,9.5387,48.8474,-0.6073,0.2699,-0.0305,137.5369
17:11:05:038,-0.1724,0.1868,9.6195,49.0332,-0.576,0.6066,-0.0305,137.8437
17:11:05:058,-0.3802,0.3696,9.0369,49.061,-0.246,0.534,0.1193,138.1422
17:11:05:078,-0.0704,0.5318,7.9987,49.3302,0.1484,0.2317,0.2144,138.427
17:11:05:099,0.3465,0.5365,7.2701,49.6624,0.356,-0.0627,0.173,138.6955
17:11:05:118,0.3715,0.4888,6.897,49.7863,0.3921,-0.12,0.0893,138.9499
17:11:05:137,0.0386,0.6314,6.8312,50.1322,0.3776,-0.0279,0.0478,139.1935
17:11:05:157,-0.1244,0.6889,6.6478,50.366,0.4261,0.1195,0.0719,139.4273
17:11:05:180,0.202,0.6553,6.343,50.8415,0.4535,0.1145,0.0973,139.651
17:11:05:198,0.8239,0.6617,6.4262,51.2495,0.3948,-0.096,0.0509,139.8635
17:11:05:218,0.7762,0.8219,7.344,51.7043,0.2516,-0.4682,-0.1154,140.0675
17:11:05:238,-0.2517,1.0209,9.4568,52.2003,0.1617,-0.7845,-0.214,140.2695
17:11:05:258,-0.8162,0.4997,11.268,52.5362,0.4021,-0.6744,-0.0871,140.4727
17:11:05:280,-0.5358,-0.102,10.9665,52.6442,0.5754,-0.1845,0.1823,140.6697
17:11:05:298,0.7033,-0.3004,9.8538,52.9629,0.3139,0.3359,0.2933,140.8525
17:11:05:318,1.5339,0.1504,9.3722,53.284,-0.1824,0.6295,0.1015,141.0207
17:11:05:338,1.3439,0.1287,10.3074,53.6654,-0.6562,0.5095,-0.2541,141.1835
17:11:05:358,0.8261,-0.5483,12.5845,54.1614,-0.6947,0.229,-0.4082,141.3541
17:11:05:378,1.1429,-1.3366,13.3808,54.4602,-0.3229,0.1312,-0.2772,141.5329
17:11:05:398,1.4794,-1.4722,12.7909,54.8934,-0.1717,-0.1866,-0.3544,141.7159
17:11:05:418,1.7284,-1.8327,13.2584,55.1259,-0.2944,-0.3467,-0.521,141.9073
17:11:05:437,1.6908,-2.1385,13.877,55.2685,-0.3073,-0.2393,-0.6289,142.1127
17:11:05:458,1.5301,-2.5753,13.4374,55.5001,-0.1822,-0.0375,-0.6333,142.3351
17:11:05:478,1.3861,-2.1335,11.8881,55.2812,-0.0784,0.2917,-0.4623,142.5723
17:11:05:498,1.3233,-1.1815,9.8258,55.5809,-0.109,0.5663,-0.3729,142.8176
17:11:05:518,0.8462,-0.2131,7.9954,55.4911,-0.2301,0.5711,-0.4515,143.0691
17:11:05:538,0.4927,0.1641,6.8444,55.0637,-0.3351,0.4161,-0.4939,143.3292
17:11:05:560,0.2628,0.4497,6.2372,54.9206,-0.4329,0.2276,-0.4366,143.5982
17:11:05:578,0.3879,0.9538,6.119,54.9171,-0.4645,0.1234,-0.3491,143.8735
17:11:05:599,0.3694,1.4124,6.3709,54.8152,-0.3284,0.0159,-0.3333,144.1526
17:11:05:618,0.5676,1.6023,6.642,54.7842,-0.0872,-0.035,-0.4076,144.4355
17:11:05:637,0.3729,1.5065,6.4791,54.6632,0.0895,-0.0013,-0.5245,144.7251
17:11:05:659,-0.05,1.5465,6.7258,54.5505,0.0556,-0.0645,-0.5634,145.0245
17:11:05:678,-0.0869,1.3015,7.8957,54.5144,-0.0486,-0.2572,-0.5184,145.3336
17:11:05:698,-0.0017,0.9898,9.9083,54.4075,-0.0075,-0.3791,-0.4142,145.6505
17:11:05:718,-0.0509,1.1526,11.3892,54.7852,0.2431,-0.3158,-0.2247,145.9707
17:11:05:738,-0.0599,1.5911,11.6765,54.947,0.4199,-0.1933,-0.1281,146.2877
17:11:05:759,0.3713,1.6185,11.5657,55.0902,0.4784,0.0677,-0.0942,146.5988
17:11:05:778,0.3023,1.9038,11.0861,55.1185,0.4795,0.405,-0.0342,146.9032
17:11:05:799,0.044,2.1767,10.473,55.1413,0.4347,0.5004,0.0101,147.1986
17:11:05:818,-0.277,2.2397,10.4871,55.138,0.3341,0.2487,0.0285,147.4837
17:11:05:838,-0.3282,1.7404,11.3464,55.2563,0.1856,-0.0814,0.0644,147.7579
17:11:05:858,-0.4227,1.2815,12.74,55.2259,0.1216,-0.1432,0.1638,148.0207
17:11:05:878,-0.3054,1.1694,13.1829,55.0749,0.2105,0.111,0.3205,148.269
17:11:05:898,-0.2594,1.3259,12.5116,54.9992,0.1189,0.5735,0.3882,148.4988
17:11:05:917,-0.6279,1.2718,12.0611,54.8225,0.145,0.7446,0.3523,148.7089
17:11:05:939,-1.3028,0.5665,11.2234,54.371,0.3426,0.6093,0.3538,148.9001
17:11:05:958,-2.0514,0.1626,9.5422,54.2874,0.5385,0.1183,0.5234,149.0714
17:11:05:978,-1.6691,-0.0356,8.5628,53.9781,0.315,-0.3988,0.7202,149.216
17:11:05:998,-0.5946,0.099,9.0489,53.6654,-0.0308,-0.9075,0.7575,149.3292
17:11:06:018,0.6119,0.2414,10.0938,53.7726,-0.1788,-1.0858,0.5869,149.3292
17:11:06:040,1.3361,0.3311,9.8625,53.7163,-0.2415,-0.78,0.2251,149.3292
17:11:06:058,1.3198,0.3386,8.7289,53.5555,-0.4961,-0.0566,-0.1494,149.3292
17:11:06:078,0.9298,0.4012,8.0095,53.0849,-0.7029,0.4873,-0.4349,149.3292
17:11:06:098,0.0777,0.6232,7.8615,52.8836,-0.6773,0.5364,-0.5544,149.423
17:11:06:118,-0.7217,0.7039,8.649,52.5555,-0.2481,-0.0209,-0.5013,149.5328
17:11:06:140,-0.876,0.3097,8.7091,52.341,0.4362,-0.6159,-0.2893,149.6544
17:11:06:158,-0.6377,0.426,7.5605,52.1987,0.845,-0.828,-0.0546,149.7788
17:11:06:178,-0.0309,0.7889,6.5833,52.1025,0.7439,-0.6293,0.0446,149.8984
17:11:06:198,0.4181,1.1847,6.5325,51.9811,0.4044,-0.1469,-0.0355,150.0124
17:11:06:218,0.282,1.3427,7.0057,51.7515,0.1034,0.1942,-0.2074,150.1257
17:11:06:238,-0.6684,1.1992,8.3857,51.4695,-0.0299,0.1068,-0.2547,150.243
17:11:06:258,-1.3217,0.8879,10.3021,51.4833,0.1124,-0.3245,-0.097,150.3637
17:11:06:278,-0.6941,0.2551,11.455,50.9596,0.4408,-0.7341,0.1375,150.4801
17:11:06:298,0.4717,-0.2083,11.1359,50.8842,0.5454,-0.701,0.2754,150.5853
17:11:06:319,1.5602,-0.1375,10.5054,50.8001,0.1653,-0.2101,0.2425,150.677
17:11:06:339,1.4729,0.1586,10.8357,50.5733,-0.3764,0.2849,-0.0479,150.677
17:11:06:358,0.9214,-0.0971,12.0019,50.6091,-0.6257,0.5251,-0.2447,150.7676
17:11:06:378,0.7283,-0.6316,12.3614,50.2855,-0.5557,0.6685,-0.255,150.8663
17:11:06:398,0.7785,-0.9213,12.0602,50.0426,-0.5772,0.511,-0.3063,150.9721
17:11:06:420,1.0525,-1.3095,13.0079,49.6558,-0.635,0.0897,-0.4006,151.0867
17:11:06:438,1.8121,-1.3878,14.3685,49.5414,-0.3012,-0.3964,-0.4778,151.2127
17:11:06:458,1.9535,-1.4318,14.145,49.1754,0.2754,-0.7909,-0.5735,151.3544
17:11:06:491,2.0779,-1.2698,12.137,49.1432,0.5812,-0.6925,-0.5316,151.5081
17:11:06:498,2.3883,-0.6283,9.6313,48.7854,0.3409,-0.0935,-0.5368,151.6745
17:11:06:518,2.0238,0.1245,7.8737,48.4999,-0.2497,0.6148,-0.6648,151.8563
17:11:06:538,1.1044,0.5996,7.262,48.3214,-0.7183,1.0402,-0.7395,152.0584
17:11:06:558,0.2888,0.784,6.7536,48.1643,-0.7977,1.0695,-0.6689,152.2836
17:11:06:578,-0.4584,1.0225,6.5759,47.7989,-0.6384,0.6089,-0.4703,152.5218
17:11:06:598,-0.6504,1.1043,7.0136,47.6494,-0.2355,-0.0096,-0.1666,152.7663
17:11:06:618,-0.0893,1.0983,6.7821,47.1552,0.2408,-0.4048,0.0853,153.0062
17:11:06:638,0.483,1.1859,6.038,47.1168,0.412,-0.486,0.1263,153.2347
17:11:06:658,0.5829,1.1608,5.9253,46.878,0.2045,-0.3451,0.0456,153.4518
17:11:06:677,0.2725,1.1042,7.2032,46.8429,-0.0918,-0.1761,0.0202,153.6613
17:11:06:699,0.2535,0.9796,9.1005,46.9002,-0.1112,-0.1627,0.1142,153.8635
17:11:06:719,0.598,1.0766,10.3964,46.6873,0.0718,-0.2544,0.2669,154.0545
17:11:06:738,1.0842,1.3858,10.7552,46.4037,0.3644,-0.2668,0.333,154.2293
17:11:06:758,1.3016,1.709,10.1459,46.1809,0.4831,-0.2061,0.2687,154.3864
17:11:06:778,1.2137,1.8577,9.51,45.9213,0.3241,-0.0767,0.176,154.5296
17:11:06:801,0.8425,1.8279,9.5826,45.8225,0.016,0.0164,0.114,154.6625
17:11:06:818,0.1912,1.9219,10.7036,45.3591,-0.2343,-0.0301,0.1784,154.7872
17:11:06:839,0.3253,1.6301,12.3852,45.2604,-0.2321,-0.1829,0.3119,154.9014
17:11:06:858,0.5888,1.6361,13.5439,45.1695,-0.038,-0.2181,0.4731,155.0006
17:11:06:879,0.8912,1.9231,13.598,44.6978,0.2683,0.0001,0.5402,155.0006
17:11:06:900,0.7724,1.9892,12.2176,44.2545,0.445,0.3687,0.4279,155.0006
17:11:06:918,0.2056,1.4166,10.4577,44.043,0.0987,0.7543,0.2417,155.0006
17:11:06:938,-1.0071,0.4075,10.8749,43.6449,-0.3056,0.8127,0.1546,155.0006
17:11:06:958,-1.4869,-0.1987,11.4064,43.5191,-0.2399,0.3168,0.3981,155.0006
17:11:06:978,-0.7217,-0.2591,11.7991,43.2102,-0.0101,-0.2311,0.6322,155.0006
17:11:06:999,0.7174,0.1866,11.2445,43.1224,0.186,-0.6059,0.5105,155.0006
17:11:07:018,1.1177,0.4418,10.505,42.9027,0.2202,-0.3873,0.142,155.0006
17:11:07:038,0.4308,0.1981,9.0042,42.9981,0.0581,0.1296,-0.1937,155.0006
17:11:07:058,-0.275,0.0285,7.8812,42.9993,-0.3073,0.6859,-0.2934,155.0006
17:11:07:078,-0.9113,0.2524,7.6014,43.0071,-0.5775,0.9808,-0.1773,155.0006
17:11:07:099,-1.3291,0.5449,7.9739,42.6472,-0.4024,0.7419,0.0417,155.0006
17:11:07:118,-1.4224,0.6965,7.9068,42.6631,0.1404,0.0734,0.3264,155.0006
17:11:07:138,-0.9874,0.548,6.9508,42.4331,0.6375,-0.5249,0.5692,155.0006
17:11:07:158,-0.4702,0.4602,5.7219,42.4123,0.7156,-0.6953,0.6798,155.0006
17:11:07:179,-0.2061,0.3837,5.3158,42.0997,0.4442,-0.5071,0.6796,155.0006
17:11:07:198,-0.181,0.1732,5.5929,42.0488,0.1006,-0.3424,0.6259,155.0006
17:11:07:218,0.0168,0.1366,6.6616,41.8678,-0.1493,-0.4373,0.619,154.8924
17:11:07:238,0.2384,0.5538,8.2524,41.6922,-0.16,-0.6208,0.5364,154.7666
17:11:07:257,-0.0389,0.9072,9.8823,41.8542,0.0322,-0.7848,0.4023,154.6276
17:11:07:279,-0.353,0.8995,10.7959,41.9002,0.2721,-0.6607,0.3492,154.4798
17:11:07:298,0.3146,0.6101,10.8519,42.0953,0.3276,-0.3896,0.3475,154.3236
17:11:07:318,1.5697,0.2293,10.3646,42.2689,-0.0319,-0.128,0.1633,154.1605
17:11:07:338,2.0541,0.1522,10.8183,42.0895,-0.7799,0.0625,-0.2355,154.0009
17:11:07:358,1.0884,-0.0719,13.4353,41.8183,-1.2616,0.2881,-0.604,153.8626
17:11:07:379,0.1791,-0.8945,15.6322,41.6361,-1.0647,0.5786,-0.581,153.7559
17:11:07:398,0.3724,-1.4002,14.9874,41.3757,-0.4602,0.9196,-0.3292,153.7559
17:11:07:418,0.2717,-0.8164,13.0262,41.1359,-0.0503,0.8127,-0.185,153.7559
17:11:07:438,0.5922,-0.7967,11.7942,41.0378,0.2839,0.4507,-0.1087,153.7559
17:11:07:457,1.0319,-0.7502,10.3061,41.1092,0.525,0.1619,-0.022,153.7559
17:11:07:478,1.715,-1.0196,8.7388,41.0492,0.4113,-0.1251,-0.0808,153.7559
17:11:07:499,2.0343,-0.9601,8.1692,41.2888,-0.2091,-0.3856,-0.2097,153.7559
17:11:07:518,2.6804,-0.8692,9.2193,41.3749,-0.9893,-0.2715,-0.3439,153.7559
17:11:07:538,2.2067,-0.5797,11.1217,41.6104,-1.2882,0.0968,-0.5677,153.7559
17:11:07:559,1.2478,-0.3289,11.0544,41.7867,-1.016,0.5599,-0.7008,153.7559
17:11:07:578,0.2569,0.0939,9.0962,42.1535,-0.7175,0.8861,-0.6875,153.7559
17:11:07:598,-0.2892,0.3325,7.3871,42.2452,-0.5767,0.9636,-0.5333,153.7559
17:11:07:618,-0.6158,0.6327,6.5422,41.9584,-0.3244,0.7727,-0.3514,153.7559
17:11:07:638,-0.5781,0.5359,5.9774,42.0324,0.0392,0.3075,-0.1031,153.7559
17:11:07:660,0.0476,0.6154,5.7017,42.3529,0.3561,-0.1563,0.0992,153.7559
17:11:07:678,0.7994,0.8833,5.5862,42.3445,0.4832,-0.49,0.1655,153.7559
17:11:07:698,1.547,0.8885,6.2259,42.4817,0.3878,-0.839,0.0194,153.7559
17:11:07:718,1.1563,0.8427,8.6379,42.7932,0.1904,-1.1659,-0.1666,153.7559
17:11:07:738,0.3316,0.4406,11.5452,42.7713,0.3533,-1.0533,-0.0626,153.7559
17:11:07:760,0.3546,0.3491,12.3937,42.6398,0.7542,-0.5495,0.2391,153.7559
17:11:07:778,1.3303,0.7117,11.22,42.8284,0.8593,-0.0339,0.3783,153.7559
17:11:07:798,2.1194,1.3227,10.4238,43.0157,0.6289,0.2773,0.2406,153.7559
17:11:07:818,2.0685,1.7522,10.4014,43.1667,0.3489,0.3782,-0.0526,153.7559
17:11:07:838,1.1868,1.8395,11.149,43.4458,0.2575,0.2186,-0.3083,153.7559
17:11:07:858,0.4682,1.3337,11.7874,44.0146,0.3544,0.0059,-0.3328,153.7559
17:11:07:878,0.1633,1.0716,11.768,44.1028,0.422,-0.0614,-0.2235,153.7559
17:11:07:898,0.2971,1.0991,11.2599,44.0808,0.2845,0.1649,-0.1131,153.7559
17:11:07:918,0.2567,1.2056,10.8864,44.2135,-0.2089,0.5741,-0.1665,153.7559
17:11:07:938,-0.6217,0.7967,11.7365,44.4483,-0.6437,0.7282,-0.258,153.7559
17:11:07:958,-1.7835,0.0518,12.887,44.6806,-0.4872,0.3985,-0.081,153.7559
17:11:07:978,-2.0126,-0.6915,12.6178,44.9949,-0.0266,-0.052,0.2826,153.7559
17:11:07:998,-1.7663,-0.4488,10.9448,45.1695,0.3436,-0.5693,0.6113,153.7559
17:11:08:018,-0.6767,-0.1549,9.4734,45.7908,0.2321,-0.8007,0.7409,153.7559
17:11:08:040,0.2661,-0.0377,8.5157,46.0269,-0.0953,-0.562,0.6655,153.7559
17:11:08:058,0.6724,0.1748,7.981,46.3462,-0.5203,-0.1131,0.4991,153.7559
17:11:08:078,0.3882,0.5436,8.636,46.5195,-0.7423,0.2068,0.3398,153.7559
17:11:08:098,-0.3051,0.6018,9.5992,46.5613,-0.4131,0.119,0.3114,153.7559
17:11:08:118,-0.3819,0.333,9.6011,46.8596,0.278,-0.1963,0.4995,153.7559
17:11:08:138,-0.2844,0.3655,8.3264,47.027,0.8127,-0.6231,0.6709,153.7559
17:11:08:158,-0.4491,0.6896,7.8732,47.569,0.9863,-0.9291,0.779,153.7559
17:11:08:177,0.0606,0.6496,7.8905,47.7716,1.1564,-0.9752,0.8185,153.6387
17:11:08:198,0.6191,0.6331,7.1046,48.2903,1.1762,-0.6882,0.7746,153.4921
17:11:08:218,1.2691,0.9083,6.4623,48.482,0.8214,-0.2885,0.662,153.3192
17:11:08:239,1.2049,1.3053,7.0095,48.6782,0.3668,-0.0282,0.5035,153.1267
17:11:08:258,0.8363,1.2745,8.3061,48.8429,0.148,-0.0826,0.344,152.9224
17:11:08:278,0.5415,1.0203,9.5883,48.8937,0.1474,-0.3365,0.3013,152.7117
17:11:08:298,0.676,0.7103,10.6784,48.8968,0.2317,-0.5153,0.3467,152.4953
17:11:08:318,1.4781,0.3558,11.3082,48.9593,0.3458,-0.4542,0.3518,152.2718
17:11:08:338,2.2027,0.2386,11.0226,49.1165,0.3626,-0.1057,0.24,152.0424
17:11:08:358,2.0838,0.2236,10.1541,49.2486,0.0591,0.2609,0.0071,151.8125
17:11:08:378,1.5777,-0.1102,10.4774,49.492,-0.3506,0.4547,-0.1407,151.5917
17:11:08:399,1.8844,-0.6831,11.5112,49.5073,-0.4683,0.5597,-0.0918,151.385
17:11:08:421,2.4007,-0.9522,11.4632,49.4858,-0.2921,0.6035,-0.0789,151.1897
17:11:08:439,2.2631,-0.802,11.1777,49.6491,-0.2892,0.3357,-0.2403,151.0051
17:11:08:459,2.3727,-0.985,11.5202,49.9732,-0.2888,0.1762,-0.3728,150.8366
17:11:08:487,2.7575,-1.3913,11.3532,50.2514,-0.2593,0.0735,-0.4972,150.6882
17:11:08:498,2.6604,-1.6318,11.151,50.5169,-0.3818,-0.0103,-0.6095,150.5634
17:11:08:518,2.5432,-1.5463,10.5393,50.5032,-0.4506,0.1362,-0.6248,150.4658
17:11:08:538,2.7305,-1.4351,9.2701,50.5387,-0.5974,0.4387,-0.6676,150.4658
17:11:08:558,2.5823,-1.0143,7.8617,50.5203,-0.8536,0.6676,-0.7038,150.4658
17:11:08:577,1.77,-0.2194,7.5638,50.6307,-0.9385,0.634,-0.7743,150.4658
17:11:08:598,0.6291,0.1371,7.427,50.6789,-0.6316,0.3,-0.774,150.4658
17:11:08:617,0.2702,0.262,6.6904,50.9127,-0.2809,0.0772,-0.6383,150.4658
17:11:08:640,-0.1859,0.8853,6.2421,51.053,-0.3005,0.002,-0.5245,150.4658
17:11:08:658,-0.4289,1.193,7.0782,51.2836,-0.3387,-0.1048,-0.3856,150.4658
17:11:08:678,0.0928,1.3643,7.9523,51.2139,-0.1195,-0.1699,-0.1758,150.5583
17:11:08:699,0.9269,1.8184,7.7932,51.218,0.1106,-0.3425,-0.1263,150.6531
17:11:08:718,0.9622,2.197,8.0605,51.1559,-0.0009,-0.5574,-0.2328,150.7495
17:11:08:738,0.5845,2.2127,9.4885,51.4799,-0.147,-0.6812,-0.3098,150.8519
17:11:08:758,0.5243,2.1549,11.1562,51.4687,-0.0239,-0.6191,-0.2196,150.9619
17:11:08:778,1.061,2.0943,11.9208,51.5572,0.311,-0.3208,-0.0949,151.0753
17:11:08:800,1.4855,2.5099,11.6609,51.524,0.5319,0.17,-0.0688,151.1868
17:11:08:819,1.5541,2.9066,10.9553,51.9151,0.469,0.6475,-0.2055,151.2961
17:11:08:839,1.0314,3.1481,10.8319,51.7652,0.2262,0.8445,-0.4671,151.4098
17:11:08:858,0.3831,2.7616,11.5549,51.8412,0.0397,0.7128,-0.6648,151.5371
17:11:08:878,-0.2609,1.9734,12.5083,51.7448,0.0465,0.5438,-0.6534,151.6833
17:11:08:900,-1.0608,1.9104,12.6759,51.4622,0.201,0.6783,-0.4193,151.846
17:11:08:918,-1.4185,2.1977,12.0326,51.6909,0.1963,1.2255,-0.1081,152.0159
17:11:08:938,-1.8359,1.9964,11.3224,51.7713,0.2973,1.2869,0.132,152.1822
17:11:08:958,-2.0756,0.8047,10.479,52.0403,0.3526,0.9203,0.365,152.3353
17:11:08:978,-2.6354,-0.063,9.5442,52.0534,0.3117,0.4255,0.6905,152.4684
17:11:08:999,-2.5108,-0.5573,9.0802,52.1071,0.1122,-0.119,1.1025,152.5685
17:11:09:018,-1.4587,-0.5124,9.5783,52.0892,-0.1292,-0.728,1.414,152.5685
17:11:09:038,-0.0042,-0.2105,10.62,51.8484,-0.2127,-1.154,1.5013,152.5685
17:11:09:058,0.8983,0.226,11.407,51.8653,-0.1262,-1.3224,1.3661,152.5685
17:11:09:078,1.3851,0.4399,11.6089,51.9454,0.1015,-1.1137,1.1488,152.4767
17:11:09:099,1.3457,0.5087,10.5678,51.9392,0.3776,-0.6786,0.956,152.3506
17:11:09:118,1.2024,0.5078,9.1428,51.8798,0.5352,-0.2461,0.8013,152.1963
17:11:09:138,1.0322,0.4378,7.8768,51.9731,0.5985,-0.0673,0.6898,152.0185
17:11:09:157,0.8464,0.4116,7.5354,51.8353,0.6022,-0.2372,0.648,151.82
17:11:09:180,1.064,0.4464,7.9643,51.5495,0.6802,-0.5392,0.6448,151.6018
17:11:09:198,1.4276,0.6592,8.3314,51.4065,0.9167,-0.6708,0.5812,151.3647
17:11:09:218,1.5429,0.9281,7.9073,51.5529,1.0562,-0.4412,0.4518,151.1114
17:11:09:238,1.3722,1.0859,7.5141,51.3409,0.8462,0.0229,0.2585,150.8477
17:11:09:257,1.0724,1.0706,7.7282,51.5308,0.5461,0.5023,0.1122,150.5811
17:11:09:280,0.4922,1.1756,8.3594,51.3285,0.2604,0.5816,0.0434,150.3178
17:11:09:298,0.0122,1.3225,9.5031,51.2483,0.1792,0.2185,0.0996,150.0579
17:11:09:318,0.1833,1.4093,10.4265,50.9323,0.3875,-0.2927,0.1826,149.7986
17:11:09:338,0.754,1.4209,9.8424,51.024,0.5421,-0.4305,0.1803,149.5377
17:11:09:358,1.4801,1.3495,8.7659,50.8247,0.2309,-0.2182,0.0332,149.2773
17:11:09:378,1.5286,1.0083,8.6238,50.6822,-0.3043,0.0261,-0.1544,149.0258
17:11:09:398,1.4456,0.4039,9.7583,50.7858,-0.5676,0.0485,-0.1365,148.7898
17:11:09:418,2.4179,-0.5119,10.5952,50.9498,-0.3966,0.0474,0.0393,148.567
17:11:09:437,3.0865,-0.6944,10.1776,50.7602,-0.3294,0.0896,-0.0305,148.3514
17:11:09:458,3.1456,-0.7389,11.4305,50.7191,-0.6654,-0.1333,-0.301,148.148
17:11:09:478,3.2488,-1.4934,13.1388,50.5836,-0.6616,-0.1308,-0.5065,147.9655
17:11:09:498,3.547,-2.3467,13.4418,50.4776,-0.6444,-0.3337,-0.6724,147.8102
17:11:09:518,2.8706,-2.2855,13.6889,50.2846,-0.7264,-0.3256,-0.7748,147.6875
17:11:09:537,1.9954,-1.9634,12.9767,50.1802,-0.6191,0.0702,-0.6857,147.6875
17:11:09:561,1.3421,-0.9411,10.9553,49.9198,-0.4212,0.4679,-0.4528,147.6875
17:11:09:578,1.2665,0.0412,8.5341,49.9586,-0.1731,0.5556,-0.2468,147.6875
17:11:09:599,2.0058,0.7814,6.0469,50.0002,-0.1296,0.4521,-0.1674,147.6875
17:11:09:618,2.3529,1.4154,4.5833,50.1888,-0.248,0.2723,-0.2198,147.6875
17:11:09:638,2.6188,1.9792,4.3507,49.887,-0.7108,0.1078,-0.4166,147.6875
17:11:09:660,1.8326,2.5333,6.3655,49.7215,-0.9179,-0.0976,-0.6248,147.6875
17:11:09:678,0.9246,2.4036,8.1458,49.589,-0.5639,-0.3319,-0.6961,147.6875
17:11:09:698,0.6746,2.3134,8.2088,49.3926,-0.057,-0.4139,-0.6157,147.6875
17:11:09:718,0.752,2.1374,7.1181,49.3914,0.0214,-0.2191,-0.5671,147.6875
17:11:09:737,0.617,2.2371,7.1018,49.1337,-0.3822,-0.2,-0.5458,147.6875
17:11:09:758,0.4452,1.9751,8.7237,49.2803,-0.7499,-0.4574,-0.4603,147.7948
17:11:09:778,0.166,1.9462,11.4642,49.2598,-0.5847,-0.8897,-0.2275,147.916
17:11:09:799,0.771,1.6484,12.7764,49.0825,0.1786,-1.0364,0.0536,148.0415
17:11:09:818,1.6944,2.1239,11.6539,48.9776,0.8332,-0.6297,0.2163,148.158
17:11:09:838,2.1484,2.8129,9.4306,49.3021,0.7086,0.0142,0.0886,148.2596
17:11:09:858,1.9326,3.0419,9.3984,49.0671,0.0627,0.4596,-0.2276,148.3546
17:11:09:878,1.3076,2.3136,11.2005,48.9232,-0.2888,0.4839,-0.4932,148.4571
17:11:09:898,0.1049,1.5652,12.8977,48.8138,-0.1495,0.3578,-0.4458,148.5755
17:11:09:918,-0.3301,1.2428,13.5058,48.8712,0.0739,0.7169,-0.1336,148.7041
17:11:09:938,-0.4146,1.151,12.3664,49.0276,0.2361,1.056,0.0143,148.832
17:11:09:958,-0.5515,0.9962,11.5293,49.4081,0.0914,1.0172,0.0667,148.9538
17:11:09:978,-0.4478,0.1936,11.4024,49.6175,-0.0271,0.6087,0.1148,149.0682
17:11:09:998,-0.7735,-0.4556,11.9337,49.7844,-0.132,0.1413,0.245,149.1732
17:11:10:018,-0.5565,-0.9748,12.1374,49.5445,-0.0391,-0.4233,0.3876,149.2646
17:11:10:040,0.2589,-1.2357,11.4229,49.4989,0.034,-0.4012,0.5082,149.2646
17:11:10:058,0.8468,-0.5912,9.5543,49.2758,-0.0525,-0.1085,0.4282,149.2646
17:11:10:078,1.246,-0.1541,8.3378,49.3674,-0.4268,0.3326,0.2285,149.2646
17:11:10:098,0.8177,0.2422,8.1835,49.5674,-0.7401,0.5174,-0.0039,149.2646
17:11:10:118,0.1291,0.2442,9.1537,49.7824,-0.666,0.2804,-0.0866,149.2646
17:11:10:140,0.054,-0.0599,9.2669,49.5791,-0.196,0.0464,0.0207,149.2646
17:11:10:158,0.2716,-0.0533,8.3993,49.9355,0.2392,-0.1974,0.1982,149.2646
17:11:10:178,0.6337,0.2347,7.4507,49.8709,0.3854,-0.248,0.3045,149.2646
17:11:10:198,0.7984,0.708,7.2871,49.8323,0.3057,-0.1026,0.3509,149.2646
17:11:10:218,0.957,0.8232,8.0974,50.0765,0.3287,0.0519,0.3492,149.2646
17:11:10:238,0.7436,0.776,8.652,50.1325,0.5433,0.0915,0.3582,149.2646
17:11:10:258,0.4963,0.7094,8.5701,50.2999,0.7202,-0.0482,0.4303,149.2646
17:11:10:278,0.2173,0.8301,8.6976,50.4433,0.7978,-0.2784,0.5212,149.2646
17:11:10:298,0.4078,0.7574,8.7651,50.8955,0.8643,-0.4324,0.5982,149.2646
17:11:10:318,1.0272,0.7084,8.6339,51.0908,0.7856,-0.4675,0.5921,149.2646
17:11:10:338,1.6179,0.7699,8.7954,51.1544,0.5879,-0.3746,0.4393,149.1623
17:11:10:358,1.6017,0.5436,8.9162,51.1321,0.3087,-0.1128,0.2183,149.0466
17:11:10:378,0.9794,0.4048,9.7785,51.2405,0.0848,0.0619,0.0889,148.9285
17:11:10:398,0.9847,-0.0096,10.8374,51.2474,0.096,0.0056,0.1291,148.8104
17:11:10:421,2.6934,-0.7742,10.4608,51.5852,0.0908,0.0959,0.1371,148.6904
17:11:10:438,3.6634,-0.8352,9.9355,51.9488,-0.6591,0.2802,-0.2683,148.5723
17:11:10:458,2.8754,-1.0205,12.6148,52.067,-1.4364,0.2861,-0.9375,148.478
17:11:10:478,0.9099,-2.1957,16.5966,52.075,-1.1891,0.2194,-1.1423,148.478
17:11:10:520,0.6059,-3.231,16.577,51.6857,-0.0531,0.2455,-0.8146,148.478
17:11:10:522,1.4487,-3.0343,12.721,51.4926,0.6186,0.4885,-0.3765,148.478
17:11:10:539,2.5938,-1.8137,8.9048,51.2357,0.4674,0.6573,-0.3378,148.478
17:11:10:558,2.5916,-0.5395,7.0749,51.1792,-0.2764,0.9586,-0.5451,148.478
17:11:10:578,1.4562,0.3919,7.0675,51.1531,-0.7535,0.9772,-0.7846,148.478
17:11:10:598,0.2404,0.6458,7.5921,51.3037,-0.7973,0.7367,-0.8143,148.478
17:11:10:618,-0.3782,0.6743,7.4167,51.2479,-0.512,0.3133,-0.6258,148.5912
17:11:10:638,-0.3425,0.8344,6.9804,51.1311,-0.2777,-0.0215,-0.3488,148.72
17:11:10:658,-0.1389,1.256,6.8275,51.0312,-0.1099,-0.205,-0.1912,148.8557
17:11:10:678,0.1081,1.6593,6.8428,50.6645,0.0069,-0.194,-0.1132,148.993
17:11:10:701,0.5219,1.9658,6.7904,50.5469,0.0548,-0.0621,-0.1067,149.13
17:11:10:718,0.8012,2.2026,6.9761,50.3752,-0.0044,0.0164,-0.1783,149.2672
17:11:10:738,0.5964,2.1434,7.8578,50.2199,-0.0603,-0.0995,-0.2416,149.4069
17:11:10:758,0.0017,1.9231,9.5384,49.9965,0.0378,-0.3981,-0.1575,149.5508
17:11:10:778,-0.0947,1.7476,10.7122,50.1652,0.3609,-0.5967,0.0675,149.6929
17:11:10:800,0.3186,1.8676,10.7667,50.1553,0.6109,-0.5436,0.2712,149.8256
17:11:10:818,1.0054,2.148,10.2557,50.5146,0.5331,-0.2661,0.2726,149.9436
17:11:10:839,1.3388,2.2528,10.2811,50.8397,0.203,0.1443,0.1511,150.0493
17:11:10:858,1.211,2.1833,10.9129,50.8889,-0.054,0.3914,-0.0174,150.1478
17:11:10:878,0.7607,1.6863,11.7016,50.7435,-0.1194,0.403,-0.1108,150.2454
17:11:10:900,0.1298,1.1422,12.061,50.5289,-0.0772,0.3444,-0.0941,150.3441
17:11:10:918,-0.397,0.9547,12.1878,50.2241,-0.0925,0.3403,0.0302,150.4422
17:11:10:938,-0.5855,0.9041,12.1389,50.0093,-0.2053,0.3476,0.1681,150.535
17:11:10:958,-1.0189,0.849,12.8677,49.9167,-0.3519,0.1465,0.2744,150.535
17:11:10:978,-1.4592,0.5527,14.1148,50.123,-0.2113,-0.0558,0.5037,150.535
17:11:10:999,-1.5616,0.1232,13.8941,49.9939,0.4472,-0.3072,0.8216,150.535
17:11:11:018,-0.631,0.3699,10.7364,49.616,0.9214,-0.6135,1.0867,150.535
17:11:11:038,0.2822,0.9251,9.0648,49.437,0.6246,-0.648,1.0582,150.535
17:11:11:058,1.2457,0.9996,8.23,49.6063,0.3089,-0.6872,0.8182,150.535
17:11:11:079,1.6253,1.0746,8.2127,49.5642,-0.1461,-0.349,0.4684,150.535
17:11:11:098,1.3322,0.9552,8.3593,49.6712,-0.3965,-0.2084,0.0455,150.4416
17:11:11:118,0.1399,0.4615,9.2979,49.7533,-0.5042,-0.0058,-0.0912,150.4416
17:11:11:138,-0.6712,0.16,9.9299,49.2548,-0.1023,0.0817,0.0655,150.4416
17:11:11:158,-0.6406,0.2134,8.7219,48.9841,0.4327,0.158,0.36,150.4416
17:11:11:181,0.0871,0.469,6.8695,48.4313,0.6802,0.2402,0.4704,150.3379
17:11:11:198,0.5331,0.4025,5.4592,48.2309,0.4965,0.3001,0.3372,150.2199
17:11:11:218,-0.0214,0.6691,5.93,48.104,0.1523,0.3977,0.224,150.0941
17:11:11:237,-0.8094,1.1154,7.0474,48.0077,0.1492,0.3189,0.2692,149.9636
17:11:11:258,-0.7489,1.3902,7.42,48.0344,0.3472,0.1347,0.3901,149.8259
17:11:11:280,-0.0697,1.6666,7.3834,48.2301,0.4361,-0.1355,0.4567,149.6761
17:11:11:298,0.4175,1.7219,7.7807,48.206,0.3489,-0.59,0.3448,149.5132
17:11:11:318,0.1099,1.7104,9.1919,47.9676,0.1741,-0.9012,0.2428,149.3422
17:11:11:338,-0.1883,1.6381,10.7118,48.0382,0.1472,-0.7431,0.2403,149.1682
17:11:11:357,0.0752,1.5776,11.1491,47.8419,0.1508,-0.1537,0.2167,148.9923
17:11:11:380,0.3195,1.5182,10.3522,47.6074,-0.1499,0.5179,0.0683,148.8172
17:11:11:398,0.0543,1.2844,10.6737,47.7432,-0.6285,0.793,-0.1289,148.6484
17:11:11:418,-0.3256,0.536,11.94,47.3308,-0.7332,0.5305,-0.1724,148.4914
17:11:11:438,0.2422,-0.4602,12.6067,46.9998,-0.485,0.0985,-0.0501,148.345
17:11:11:459,0.8374,-1.0274,12.2601,46.952,-0.3475,-0.1501,-0.092,148.2053
17:11:11:478,0.6255,-1.5685,12.6474,46.6813,-0.5387,-0.1114,-0.2746,148.0757
17:11:11:499,0.3266,-2.1371,13.8667,46.6149,-0.4917,0.2535,-0.2684,147.9626
17:11:11:518,0.634,-2.5818,13.274,46.3892,-0.031,0.482,-0.1167,147.863
17:11:11:538,1.1246,-2.1357,10.3891,46.1339,0.1676,0.4853,-0.0111,147.7691
17:11:11:560,1.3799,-1.374,8.6243,45.7175,-0.2099,0.3078,-0.0967,147.6779
17:11:11:578,1.6034,-0.9752,8.8257,45.2879,-0.6213,0.0401,-0.3387,147.6779
17:11:11:599,0.8272,-0.773,9.4372,44.8793,-0.7413,-0.1342,-0.4566,147.6779
17:11:11:618,0.1514,-0.5071,9.3068,44.6459,-0.5693,-0.212,-0.288,147.6779
17:11:11:638,0.605,0.1496,8.1816,44.0464,-0.2472,-0.1756,-0.0213,147.6779
17:11:11:660,1.488,0.8745,6.6409,43.7536,-0.0632,0.0311,0.0122,147.6779
17:11:11:678,1.8356,1.4755,5.3586,43.5329,-0.1786,0.3618,-0.1848,147.6779
17:11:11:698,1.3319,1.6324,5.2931,43.3044,-0.2914,0.5069,-0.3639,147.6779
17:11:11:718,0.6813,1.8273,5.3913,43.2713,-0.2008,0.4096,-0.3632,147.6779
17:11:11:738,0.186,2.2882,5.7252,43.0502,-0.0466,0.0539,-0.2911,147.6779
17:11:11:759,-0.0064,2.6419,6.5107,42.8645,-0.0139,-0.342,-0.2124,147.6779
17:11:11:778,0.0237,2.9227,8.4298,42.4828,-0.2743,-0.373,-0.2308,147.6779
17:11:11:798,0.2523,2.459,11.0454,42.0801,-0.4854,-0.0066,-0.2463,147.6779
17:11:11:818,0.1977,2.0729,13.0096,41.7802,-0.416,0.3522,-0.2094,147.6779
17:11:11:839,-0.0005,1.8985,14.1038,41.4468,-0.1341,0.3586,-0.1421,147.6779
17:11:11:858,0.0754,1.6631,14.2895,41.4187,0.3019,0.144,-0.0348,147.6779
17:11:11:878,0.4979,1.467,13.1929,40.9587,0.6351,-0.0628,0.0553,147.6779
17:11:11:899,1.0605,1.1661,12.0393,40.6146,0.6689,-0.3379,0.043,147.6779
17:11:11:918,1.1315,0.7191,11.8454,40.1745,0.4788,-0.6137,-0.0647,147.6779
17:11:11:941,0.3988,0.3919,12.434,39.8025,0.2815,-0.6485,-0.0776,147.6779
17:11:11:958,-0.2697,0.0222,13.1506,39.458,0.2795,-0.4183,-0.0037,147.6779
17:11:11:979,-1.1417,-0.164,13.036,39.2536,0.386,-0.222,0.1138,147.6779
17:11:11:998,-0.9874,-0.2155,12.269,38.9938,0.5019,-0.0109,0.2374,147.6779
17:11:12:018,-1.0454,-0.2718,10.8503,38.4686,0.6324,0.0636,0.1245,147.6779
17:11:12:040,-1.1454,-0.5086,9.0843,38.2395,0.3118,0.3321,0.0021,147.6779
17:11:12:058,-1.1307,-0.7246,8.7235,37.7977,-0.1942,0.4698,-0.065,147.6779
17:11:12:078,-0.7635,-0.7607,9.5803,37.51,-0.5334,0.4591,0.0453,147.6779
17:11:12:098,-0.4437,-0.2343,9.8775,37.4905,-0.3965,0.2439,0.1697,147.6779
17:11:12:118,-0.1997,0.1183,9.1287,37.5513,-0.1083,0.0767,0.2839,147.6779
17:11:12:139,0.1321,0.2694,7.9121,37.9854,0.1404,0.0398,0.3954,147.6779
17:11:12:158,0.4949,0.299,6.3154,37.7021,0.1888,-0.0063,0.4447,147.6779
17:11:12:178,0.7175,0.1496,5.4458,37.5781,-0.0932,-0.1771,0.4298,147.6779
17:11:12:198,0.1219,0.162,6.3439,37.2742,-0.2837,-0.591,0.4473,147.6779
17:11:12:219,-1.0061,0.2707,8.0802,36.9737,-0.0263,-1.3306,0.7478,147.6779
17:11:12:238,-0.7072,0.5538,9.3665,36.8524,0.7358,-1.9355,1.0124,147.5836
17:11:12:258,0.5248,0.779,8.0337,37.079,1.3564,-1.5953,1.0334,147.4495
17:11:12:278,1.8095,1.3926,5.2467,37.3018,0.9852,-0.4902,0.716,147.2846
17:11:12:298,2.2977,1.7222,4.8183,37.5107,-0.1419,0.6165,0.1347,147.1032
17:11:12:320,1.3632,1.784,7.2205,37.4698,-0.8548,1.0755,-0.2693,146.9296
17:11:12:338,-0.5215,1.9139,10.3815,37.3872,-0.7782,0.4573,-0.3049,146.7745
17:11:12:358,-0.9932,1.0657,12.7278,37.2929,0.0247,-0.3765,0.0034,146.6339
17:11:12:378,-0.5027,0.8156,11.9769,37.3186,0.7579,-0.6224,0.3963,146.4926
17:11:12:398,1.0335,0.7541,10.3201,37.0739,0.6406,-0.456,0.512,146.3361
17:11:12:419,2.3185,0.6524,9.7426,37.2834,-0.058,-0.1306,0.2431,146.1662
17:11:12:438,2.6325,0.4099,11.449,37.1978,-0.7016,0.1976,-0.0777,145.998
17:11:12:458,2.4718,-0.0308,13.0391,37.0813,-0.6922,0.4002,-0.2785,145.8441
17:11:12:478,2.1337,-0.3674,13.0707,37.2895,-0.5367,0.2582,-0.4387,145.709
17:11:12:498,1.9982,-0.8815,13.8322,37.3225,-0.5746,0.2265,-0.5518,145.5968
17:11:12:537,2.0304,-1.0479,14.3363,37.0989,-0.4033,0.2133,-0.5844,145.5968
17:11:12:539,1.9707,-1.7805,14.5564,37.0836,-0.1742,0.2333,-0.608,145.5968
17:11:12:558,2.4544,-1.8625,12.7035,37.1299,-0.0452,0.3042,-0.5262,145.5968
17:11:12:578,2.4778,-1.0825,11.4717,37.2858,-0.1242,0.6204,-0.5246,145.5968
17:11:12:599,1.8544,-0.148,9.3388,37.5934,-0.3449,0.9907,-0.639,145.5968
17:11:12:618,0.852,0.3919,8.1707,37.8722,-0.4393,1.1163,-0.8308,145.5968
17:11:12:638,-0.0095,0.2263,6.6022,37.996,-0.4248,1.0734,-0.8141,145.5968
17:11:12:658,-0.6654,0.2451,5.5781,38.056,-0.3849,0.903,-0.6359,145.5968
17:11:12:678,-1.0893,0.4133,5.3121,38.0921,-0.2986,0.4811,-0.3817,145.6929
17:11:12:701,-0.8932,0.6996,6.1996,37.9913,-0.0574,0.1113,-0.0993,145.7967
17:11:12:718,-0.5533,0.8838,6.4052,37.8729,0.3068,-0.0892,0.1028,145.8988
17:11:12:739,-0.2672,1.0019,6.1096,37.7597,0.4358,-0.104,0.2302,145.9929
17:11:12:758,-0.1554,0.978,6.6831,37.7797,0.3281,0.0142,0.2632,145.9929
17:11:12:778,-0.3307,1.0735,8.1842,37.8311,0.2529,0.0228,0.2093,145.9929
17:11:12:801,-0.387,0.871,9.6114,38.0017,0.3039,-0.0125,0.2098,145.9929
17:11:12:818,0.069,0.8673,10.6814,38.1106,0.3833,-0.0372,0.2914,145.9929
17:11:12:839,0.9872,1.2064,11.0275,38.0814,0.4009,0.034,0.2349,145.9929
17:11:12:858,1.4293,1.6038,11.2139,38.246,0.3165,0.2143,-0.0097,145.9929
17:11:12:878,1.2008,1.589,11.1714,38.4302,0.2056,0.3566,-0.278,145.9929
17:11:12:899,0.3107,1.3176,11.3783,38.4098,0.0874,0.3301,-0.4125,145.9929
17:11:12:918,-0.4073,1.148,12.1257,38.4582,0.029,0.0507,-0.3921,145.9929
17:11:12:938,-1.0726,1.2371,13.0793,38.4989,0.0801,-0.2284,-0.2445,145.9929
17:11:12:958,-1.4452,1.5568,13.1138,38.5341,0.2677,-0.191,0.0309,145.9929
17:11:12:978,-1.1619,2.0429,11.9387,38.6229,0.343,0.1205,0.2796,145.9929
17:11:12:998,-0.9325,2.0158,10.8917,38.7676,0.3081,0.2003,0.3563,145.9929
17:11:13:019,-0.4458,1.1425,10.2633,39.1122,0.2233,0.1596,0.4007,145.9929
17:11:13:038,-1.0703,0.889,9.2472,39.3282,0.1989,-0.2391,0.3247,145.9929
17:11:13:058,-1.0258,0.1059,9.1709,39.2841,-0.1975,-0.5069,0.3711,145.9929
17:11:13:079,-0.837,-0.1136,10.2224,39.3447,-0.3812,-0.8559,0.4341,145.9929
17:11:13:098,-0.0222,-0.2357,10.5401,39.5458,-0.3799,-0.8059,0.4282,145.9929
17:11:13:118,0.9484,-0.0726,9.2933,39.681,-0.4342,-0.571,0.2392,145.9929
17:11:13:138,0.9053,0.1625,8.5042,39.8229,-0.7897,-0.2033,-0.072,145.9929
17:11:13:158,-0.0841,0.2785,8.8824,40.1684,-0.8767,-0.1284,-0.193,145.9929
17:11:13:180,-1.1412,0.2176,10.2213,40.4473,-0.3719,-0.3629,0.0304,145.9929
17:11:13:198,-0.9116,-0.0582,9.5826,40.5764,0.4888,-0.586,0.3966,145.9929
17:11:13:218,-0.154,0.0059,7.5104,40.7823,0.8663,-0.4002,0.7199,145.9929
17:11:13:238,0.6878,0.7684,5.8138,40.878,0.6284,0.0077,0.7232,145.9929
17:11:13:258,0.8808,1.4136,5.7074,41.3486,0.1753,0.3372,0.4093,145.9929
17:11:13:280,0.2888,1.363,6.314,41.7794,-0.0968,0.5194,0.1265,145.9929
17:11:13:299,-0.7602,1.0631,7.5969,42.251,-0.098,0.2432,0.0561,145.9929
17:11:13:318,-1.3227,0.7029,8.8954,42.6685,0.2684,-0.398,0.2285,145.9929
17:11:13:337,-0.9674,0.437,9.4111,43.0103,0.6807,-1.0122,0.3986,145.8923
17:11:13:357,-0.379,0.4485,9.4345,43.1398,0.7403,-1.1072,0.4593,145.7766
17:11:13:378,0.5315,0.4278,9.7421,43.4142,0.4314,-0.7154,0.3439,145.6474
17:11:13:398,1.2151,0.1221,10.0832,43.4492,-0.022,-0.0172,0.058,145.5127
17:11:13:418,0.7899,-0.2827,10.802,43.7238,-0.4526,0.4743,-0.2085,145.3843
17:11:13:438,0.0872,-0.8448,12.4156,44.0508,-0.5217,0.5088,-0.2578,145.2703
17:11:13:460,0.5842,-1.4287,13.0987,44.2688,-0.2,0.5201,-0.0536,145.1695
17:11:13:479,1.6405,-1.3742,11.7127,44.7781,0.0114,0.5547,-0.0035,145.0732
17:11:13:499,2.232,-1.2278,10.6535,45.1545,-0.2498,0.3689,-0.2553,144.9809
17:11:13:518,2.2567,-1.1959,11.5738,45.2659,-0.7077,0.2268,-0.5775,144.9809
17:11:13:537,2.3251,-1.9168,13.3,45.6383,-0.8677,0.1306,-0.7944,144.9809
17:11:13:559,1.6699,-2.5086,14.2147,45.7449,-0.6637,0.0251,-0.805,144.9809
17:11:13:577,1.4159,-2.4085,13.0918,45.6872,-0.3769,0.1243,-0.5822,144.9809
17:11:13:598,1.5679,-1.4327,10.7,46.037,-0.3246,0.4515,-0.3602,144.9809
17:11:13:618,1.3597,-0.3483,8.501,46.2341,-0.3875,0.5924,-0.3913,144.9809
17:11:13:638,0.9976,-0.0639,6.7502,46.3904,-0.4591,0.4747,-0.4829,144.9809
17:11:13:658,0.835,0.3086,6.4166,46.5627,-0.6566,0.192,-0.5036,144.9809
17:11:13:678,0.2452,0.6848,7.9671,46.6556,-0.5571,-0.0393,-0.5877,144.9809
17:11:13:698,-0.2029,0.5896,8.4457,46.6934,-0.205,-0.0421,-0.513,145.0913
17:11:13:718,-0.413,0.7177,7.86,46.7634,0.1439,0.2732,-0.2973,145.2151
17:11:13:737,-0.1972,0.9977,6.6022,46.9369,0.265,0.4436,-0.1281,145.3434
17:11:13:758,0.415,1.2809,6.07,47.0542,0.175,0.4275,-0.1524,145.4718
17:11:13:778,0.5813,1.1156,6.6543,47.0542,0.0339,0.1698,-0.3011,145.6022
17:11:13:798,0.1241,0.7504,8.4869,47.1662,-0.055,-0.2542,-0.3786,145.7397
17:11:13:818,-0.614,0.7531,10.7043,47.2991,0.0573,-0.452,-0.1999,145.885
17:11:13:838,-0.122,0.9651,11.6377,47.3115,0.3788,-0.2408,0.0804,146.0305
17:11:13:859,0.9599,1.4739,10.7296,47.6883,0.558,0.0842,0.161,146.1672
17:11:13:878,1.7149,1.8866,9.6578,47.9395,0.3548,0.2503,-0.0237,146.2947
17:11:13:898,1.3636,1.9609,10.0045,48.0451,0.0035,0.2317,-0.2963,146.4211
17:11:13:918,0.3224,1.567,11.3401,48.6056,-0.1556,0.1303,-0.3752,146.555
17:11:13:940,-0.5648,1.0922,12.3952,48.9719,-0.1231,0.0083,-0.2413,146.6969
17:11:13:958,-0.9,0.7023,13.0854,49.3071,0.0008,0.0313,0.0859,146.8406
17:11:13:978,-0.4194,0.7762,12.7748,49.4827,0.1125,0.2135,0.4231,146.9742
17:11:13:998,0.4782,0.9702,12.2787,49.768,-0.0253,0.4448,0.4574,147.0882
17:11:14:018,0.1288,0.6242,12.3779,50.0402,-0.0443,0.3295,0.2971,147.1843
17:11:14:039,-0.8857,0.0396,12.1812,50.0911,0.1028,0.0991,0.3095,147.1843
17:11:14:058,-1.3768,-0.5813,11.3297,50.4147,0.4662,-0.3683,0.4607,147.1843
17:11:14:078,-0.7207,-0.8321,9.8129,50.6946,0.4625,-0.5031,0.6463,147.1843
17:11:14:098,0.0251,-0.3967,9.1083,50.6123,0.2669,-0.6265,0.5505,147.1843
17:11:14:118,0.6026,-0.4106,8.5664,50.784,-0.0466,-0.4739,0.351,147.1843
17:11:14:139,0.4495,-0.3124,8.3423,51.1629,-0.2858,-0.2505,0.0835,147.1843
17:11:14:158,-0.2951,-0.3599,8.2726,51.2889,-0.4306,-0.0199,-0.0293,147.1843
17:11:14:178,-0.9935,-0.391,8.5434,51.7631,-0.2617,0.0558,0.0392,147.1843
17:11:14:198,-1.2336,-0.3455,7.8747,52.1319,-0.0068,-0.0785,0.2609,147.1843
17:11:14:219,-0.6476,0.0334,7.6714,52.0098,0.152,-0.229,0.4815,147.1843
17:11:14:239,0.3629,0.53,7.5073,52.1357,0.3251,-0.3537,0.502,147.1843
17:11:14:258,0.875,0.9559,7.3036,52.33,0.3564,-0.3393,0.315,147.1843
17:11:14:278,0.6579,1.0631,7.5515,52.3691,0.3132,-0.1946,0.0813,147.1843
17:11:14:298,0.0535,0.8689,7.9799,52.7171,0.2971,-0.0372,-0.0094,147.1843
17:11:14:321,-0.2369,0.7481,8.3966,53.1953,0.3218,0.0269,0.0438,147.1843
17:11:14:338,-0.2433,0.7453,8.639,53.2853,0.3537,0.0477,0.1293,147.1843
17:11:14:358,0.0905,0.7028,8.8477,53.4101,0.2817,-0.1162,0.1114,147.1843
17:11:14:378,0.1917,0.374,9.5886,53.7909,0.1257,-0.289,0.0532,147.1843
17:11:14:398,0.1137,0.0761,10.5102,54.0011,0.0009,-0.2005,0.064,147.1843
17:11:14:419,0.2739,0.031,11.0524,54.5927,-0.0002,0.0588,0.0819,147.1843
17:11:14:438,0.4267,-0.0903,10.9191,54.9457,0.015,0.191,0.0245,147.1843
17:11:14:458,0.6769,-0.8104,10.8396,55.0574,-0.0714,0.0703,-0.0297,147.1843
17:11:14:478,1.4322,-1.4854,11.4844,55.0094,-0.2265,-0.0337,0.042,147.1843
17:11:14:498,2.3934,-1.3496,11.4971,55.2792,-0.3039,0.0312,-0.0639,147.1843
17:11:14:519,2.3548,-1.2538,11.394,55.0669,-0.6225,0.073,-0.4853,147.1843
17:11:14:550,1.5965,-1.6788,12.4821,55.1962,-0.9103,0.3159,-0.8263,147.1843
17:11:14:558,0.8264,-2.2489,13.2131,55.2775,-0.896,0.5956,-0.8651,147.1843
17:11:14:579,-0.0099,-2.4981,12.8975,55.1392,-0.5894,0.3938,-0.72,147.1843
17:11:14:598,-0.1173,-2.2459,11.7408,55.192,-0.3603,0.2506,-0.3788,147.1843
17:11:14:618,0.2465,-1.3214,10.1635,55.4417,-0.1416,0.1346,-0.117,147.1843
17:11:14:639,0.707,-0.423,8.4281,55.4006,-0.1082,0.031,-0.0622,147.1843
17:11:14:657,1.2059,0.3186,7.4611,55.059,-0.2683,0.0739,-0.1931,147.1843
17:11:14:678,0.6884,0.818,7.435,55.3385,-0.3952,0.2187,-0.3536,147.1843
17:11:14:700,0.1039,0.9634,7.5412,55.1307,-0.3705,0.3956,-0.4008,147.1843
17:11:14:718,-0.488,0.9989,7.4837,55.0353,-0.2195,0.5471,-0.331,147.276
17:11:14:738,-0.6535,0.9748,7.1244,55.1228,0.0483,0.3806,-0.1667,147.3753
17:11:14:757,-0.1771,1.0693,6.8036,55.0014,0.2033,0.0691,-0.01,147.476
17:11:14:778,0.4178,1.1542,7.0004,54.5314,0.2271,-0.2628,-0.0091,147.5732
17:11:14:800,0.5033,1.2029,7.9236,54.7174,0.1478,-0.4591,-0.0893,147.6684
17:11:14:818,0.3678,0.7583,9.1885,54.5327,0.1596,-0.4713,-0.0814,147.7639
17:11:14:838,0.5539,0.4143,10.4286,54.893,0.2662,-0.3897,0.0327,147.8583
17:11:14:858,1.048,0.5259,10.9848,54.7,0.3616,-0.215,0.1485,147.8583
17:11:14:878,1.3676,1.0432,11.1506,54.692,0.391,-0.003,0.1293,147.8583
17:11:14:899,1.2868,1.4132,11.0615,54.5049,0.4393,0.1774,0.0127,147.8583
17:11:14:918,0.8655,1.4945,10.6748,54.2827,0.4521,0.1847,-0.0779,147.8583
17:11:14:939,0.5297,1.3342,10.8446,54.303,0.3646,0.0451,-0.0643,147.8583
17:11:14:958,0.8078,0.8686,11.6191,54.1148,0.2288,-0.0264,0,147.8583
17:11:14:978,0.5293,1.007,12.6175,54.126,0.0443,0.0749,0.0716,147.8583
17:11:14:998,-0.3424,1.2581,13.5522,53.8427,0.1122,0.2793,0.1017,147.8583
17:11:15:019,-1.4321,1.0255,13.4649,53.3129,0.2625,0.4922,0.0668,147.8583
17:11:15:038,-2.2834,0.0145,13.0332,52.9661,0.4918,0.4205,0.1473,147.8583
17:11:15:058,-2.6449,-0.9165,11.674,52.6256,0.7214,0.1558,0.4163,147.8583
17:11:15:078,-2.4884,-1.0486,10.184,52.2614,0.6355,-0.1274,0.7218,147.8583
17:11:15:098,-1.6411,-0.9475,9.6837,52.2916,0.3162,-0.3415,0.9343,147.8583
17:11:15:118,0.1056,-0.4583,10.0996,52.1652,0.1023,-0.3495,0.9059,147.8583
17:11:15:138,0.6658,0.2635,9.7757,52.0754,0.0838,-0.2924,0.5849,147.8583
17:11:15:158,0.1592,0.1806,9.1508,51.8937,0.0949,-0.1329,0.3562,147.8583
17:11:15:179,-0.2945,0.1125,8.2014,51.7964,0.1968,0.165,0.4353,147.8583
17:11:15:198,-0.0681,0.385,6.8261,51.2656,0.3059,0.3074,0.6077,147.8583
17:11:15:218,0.6902,0.7287,5.3428,51.447,0.2801,0.1575,0.6834,147.7482
17:11:15:238,1.1065,1.1109,4.9223,50.9371,0.0782,-0.2318,0.5667,147.6171
17:11:15:258,0.9757,1.2713,5.8925,50.7183,-0.1162,-0.5796,0.3586,147.4711
17:11:15:279,0.1428,1.3432,7.6914,50.447,-0.0963,-0.5555,0.2506,147.3189
17:11:15:298,-0.0356,0.9593,8.6567,50.0683,0.1211,-0.1759,0.2553,147.1638
17:11:15:318,0.1307,0.9074,7.9764,50.094,0.2256,0.4811,0.2647,147.006
17:11:15:337,0.1127,1.2908,7.0111,50.1726,0.0094,0.873,0.1293,146.845
17:11:15:358,-0.2205,1.0574,7.0479,49.6474,-0.3275,0.7895,-0.0735,146.6858
17:11:15:378,-0.8907,0.5712,8.3224,49.3626,-0.5197,0.3282,-0.1857,146.5343
17:11:15:399,-1.3103,-0.1626,10.2579,49.0436,-0.431,-0.2062,-0.046,146.392
17:11:15:418,-1.1556,-0.3054,11.425,48.5069,-0.1619,-0.5548,0.2035,146.2531
17:11:15:438,-0.3448,-0.1692,11.4651,48.1918,-0.0644,-0.6621,0.2992,146.1099
17:11:15:458,0.7817,-0.3914,11.9732,48.192,-0.2425,-0.6206,0.1811,145.9616
17:11:15:478,1.8749,-0.7125,12.5956,48.2434,-0.4182,-0.2804,-0.0125,145.8143
17:11:15:499,2.1553,-0.7023,12.7658,48.1802,-0.5846,0.0496,-0.3624,145.6759
17:11:15:518,1.7065,-1.2003,13.6144,47.8202,-0.6746,0.1253,-0.724,145.559
17:11:15:538,1.2104,-1.7653,14.2124,47.6803,-0.4227,0.2312,-0.8084,145.559
17:11:15:560,1.2572,-2.1664,13.4298,47.3503,-0.0274,0.3152,-0.7113,145.559
17:11:15:578,2.0187,-1.8482,11.0649,46.651,0.1589,0.2333,-0.623,145.559
17:11:15:599,2.1033,-1.2253,9.7174,46.4168,-0.2167,0.2261,-0.7777,145.559
17:11:15:618,0.9806,-0.6107,9.1425,46.0025,-0.4906,0.1087,-0.9542,145.559
17:11:15:638,-0.1478,-0.1864,9.0639,46.0267,-0.7373,0.4063,-0.9268,145.559
17:11:15:660,-0.9006,-0.0508,8.8293,45.9125,-0.7318,0.5054,-0.7205,145.559
17:11:15:678,-0.801,0.1645,8.8195,45.7362,-0.5617,0.5311,-0.4424,145.663
17:11:15:699,-0.5765,0.5953,8.3183,45.5726,-0.2235,0.3937,-0.238,145.7774
17:11:15:718,-0.9041,0.8539,7.3713,45.3235,0.0432,0.2833,-0.0535,145.8951
17:11:15:738,-0.7418,0.8771,6.7668,44.9989,0.1548,0.1707,0.1429,146.0096
17:11:15:759,-0.0798,1.0366,6.4918,44.9283,0.2186,0.1275,0.2401,146.1145
17:11:15:778,0.2231,1.2484,6.4171,44.7308,0.2064,-0.0909,0.1183,146.2086
17:11:15:799,0.0039,0.8452,6.9996,44.5887,0.0897,-0.4152,-0.0381,146.2086
17:11:15:818,-0.2051,0.3249,8.1398,44.5715,-0.0057,-0.5925,0.0162,146.2086
17:11:15:838,0.1239,0.3927,9.6318,44.2707,-0.0569,-0.7343,0.1622,146.2086
17:11:15:857,0.9091,0.6859,10.8968,44.222,0.0379,-0.7267,0.2287,146.2086
17:11:15:878,1.2855,1.1566,11.5629,44.0097,0.2041,-0.4837,0.1655,146.2086
17:11:15:898,1.4293,1.2913,11.4874,44.1055,0.3493,-0.0425,0.0624,146.2086
17:11:15:918,1.2406,1.3503,10.9455,44.0115,0.3343,0.3832,-0.0169,146.2086
17:11:15:940,0.8532,1.1425,10.6979,44.3606,0.1337,0.5699,-0.0833,146.2086
17:11:15:958,0.2787,0.6055,11.6565,43.95,-0.045,0.447,-0.1446,146.2086
17:11:15:979,-0.44,-0.0434,12.9515,43.7412,0.0518,0.2205,-0.0811,146.2086
17:11:15:998,-0.9765,-0.4266,12.8862,43.3977,0.2069,-0.0274,0.0107,146.2086
17:11:16:018,-1.4869,-0.5629,12.8603,43.258,0.007,-0.1856,0.0527,146.2086
17:11:16:040,-1.6281,-1.0534,13.6224,43.0908,-0.0767,-0.1456,0.1394,146.2086
17:11:16:058,-2.0187,-1.1818,13.2769,43.1461,0.2191,-0.3016,0.3297,146.2086
17:11:16:078,-1.5093,-1.1625,12.1329,43.4516,0.3344,-0.2054,0.571,146.2086
17:11:16:099,-0.5933,-0.5634,10.3429,43.4776,0.5145,-0.2975,0.6529,146.2086
17:11:16:118,0.3431,-0.109,8.6766,43.6167,0.3914,-0.2607,0.6156,146.2086
17:11:16:140,0.6578,0.5322,7.9715,43.6351,0.2776,-0.3655,0.4355,146.2086
17:11:16:158,0.7814,0.6077,7.4953,43.6798,0.1707,-0.4109,0.2821,146.2086
17:11:16:178,0.5295,0.5836,7.648,43.6333,0.1125,-0.4444,0.153,146.2086
17:11:16:198,0.2443,0.3975,7.806,43.6378,0.1638,-0.3471,0.1368,146.2086
17:11:16:219,0.2188,0.3319,7.5615,43.6575,0.2583,-0.1318,0.1659,146.2086
17:11:16:239,0.3411,0.4136,7.0071,43.4424,0.3463,-0.0157,0.1823,146.2086
17:11:16:258,0.7437,0.7061,6.5932,43.2776,0.3303,0.048,0.1568,146.2086
17:11:16:278,0.9224,1.0735,6.5552,43.0912,0.232,0.0522,0.0055,146.2086
17:11:16:298,0.5369,1.0741,7.4595,42.7822,0.1612,-0.0602,-0.1282,146.2086
17:11:16:321,0.2937,0.9385,8.4637,42.926,0.2124,-0.1172,-0.1392,146.2086
17:11:16:337,0.0356,1.059,9.415,42.9467,0.2928,-0.1876,-0.099,146.2086
17:11:16:358,-0.0453,1.1574,9.9901,43.2845,0.4322,-0.1174,-0.0227,146.2086
17:11:16:377,0.0242,1.313,9.8531,43.2249,0.4502,0.0391,0.0176,146.2086
17:11:16:398,0.3083,1.2641,9.838,43.1662,0.2596,0.1017,-0.0393,146.2086
17:11:16:420,0.7016,0.4878,10.431,43.0397,0.0248,0.0346,-0.1925,146.2086
17:11:16:438,0.4176,-0.1916,11.2669,42.6784,-0.1207,0.0055,-0.2177,146.2086
17:11:16:458,0.3486,-0.2377,12.106,42.7758,-0.143,0.0554,-0.0648,146.2086
17:11:16:478,1.3262,-0.0437,11.8363,42.7029,-0.0524,0.1328,0.037,146.2086
17:11:16:498,2.4718,0.3141,10.3107,42.5991,-0.1197,-0.0656,-0.2395,146.2086
17:11:16:519,2.3751,0.1049,10.2339,42.505,-0.5216,-0.6135,-0.7933,146.2086
17:11:16:563,0.9783,-0.855,12.4127,42.7795,-0.734,-0.7422,-1.0473,146.2086
17:11:16:567,-0.2481,-1.9431,14.6828,42.5397,-0.4854,-0.3444,-0.8042,146.2086
17:11:16:578,0.1386,-2.2322,13.5014,42.3976,0.0322,0.2544,-0.3352,146.2086
17:11:16:599,0.8073,-1.4486,10.6875,42.2438,0.144,0.592,-0.0943,146.2086
17:11:16:619,1.4872,-0.8285,8.1144,42.0039,-0.1264,0.547,-0.2211,146.2086
17:11:16:639,1.1553,-0.5631,7.7472,41.8307,-0.5816,0.3948,-0.4203,146.3039
17:11:16:658,0.4763,-0.3677,8.1873,41.5292,-0.6638,0.283,-0.4206,146.4126
17:11:16:678,0.2792,-0.1721,8.1901,41.3762,-0.4601,0.1692,-0.3256,146.5329
17:11:16:701,0.3113,0.1552,8.2202,41.2245,-0.118,-0.0143,-0.2345,146.6606
17:11:16:718,0.4282,0.5026,7.1831,40.9803,0.1906,-0.0025,-0.1902,146.7923
17:11:16:738,0.4508,0.7088,5.9514,40.8674,0.2098,0.1202,-0.1793,146.9265
17:11:16:758,0.2782,1.0637,5.488,40.7319,0.0071,0.2487,-0.1718,147.0624
17:11:16:777,0.19,1.2079,6.031,40.3788,-0.1435,0.1539,-0.1631,147.1999
17:11:16:798,-0.1158,1.2507,7.372,40.1603,-0.204,-0.1506,-0.1354,147.3384
17:11:16:818,-0.3489,1.1779,9.2769,40.0791,-0.0799,-0.4484,-0.022,147.4765
17:11:16:838,0.3693,1.0809,10.1864,39.8363,0.2271,-0.4269,0.1241,147.6103
17:11:16:858,1.2394,1.7062,9.6046,39.8327,0.325,-0.1647,0.1976,147.7346
17:11:16:878,1.9264,2.354,9.079,39.6948,0.1361,0.1159,0.0257,147.8492
17:11:16:900,1.7151,2.682,9.2526,39.6162,-0.1529,0.2614,-0.2308,147.9616
17:11:16:918,0.8264,2.7375,10.556,39.2528,-0.3338,0.0717,-0.3758,148.0802
17:11:16:938,0.3288,2.242,12.1355,38.8414,-0.2996,-0.2372,-0.3521,148.2084
17:11:16:958,0.2553,1.8147,13.2275,38.5427,-0.1816,-0.3082,-0.2367,148.3445
17:11:16:978,0.6005,1.5508,13.3687,38.0884,-0.145,0.1389,-0.0483,148.4843
17:11:16:999,0.2429,1.9723,12.763,37.7023,-0.239,0.5407,-0.1566,148.6237
17:11:17:018,-0.2064,1.3352,13.0873,37.0227,-0.3994,0.7631,-0.182,148.7655
17:11:17:038,-1.4367,0.3064,13.2586,36.8306,-0.0581,0.4975,-0.075,148.909
17:11:17:058,-2.3041,-0.4693,11.6296,36.7371,0.4803,-0.1792,0.2328,149.0479
17:11:17:080,-1.6761,-0.8536,9.973,36.7688,0.5145,-0.762,0.5658,149.1695
17:11:17:098,-0.1559,-0.4144,9.7534,36.6453,0.2683,-1.1824,0.6256,149.265
17:11:17:118,1.1817,-0.2203,10.1381,36.3942,-0.0527,-0.9764,0.3834,149.265
17:11:17:138,0.9449,-0.049,10.3413,35.8855,-0.2883,-0.5182,-0.0025,149.265
17:11:17:158,-0.3195,-0.1473,10.9063,35.811,-0.3017,-0.0232,-0.1448,149.265
17:11:17:180,-1.2511,-0.3538,10.3969,35.5575,0.0849,0.4085,0.0687,149.265
17:11:17:198,-1.1998,-0.045,8.559,35.281,0.5408,0.524,0.435,149.265
17:11:17:218,-0.1966,0.3069,6.6504,35.289,0.7722,0.2589,0.6326,149.265
17:11:17:238,0.5548,0.8669,5.6058,35.0539,0.6466,-0.1501,0.5996,149.265
17:11:17:258,0.8798,1.1755,6.3759,35.0937,0.4461,-0.4418,0.4062,149.265
17:11:17:279,0.4489,1.1667,7.448,34.7939,0.45,-0.434,0.2297,149.265
17:11:17:298,0.2624,0.8964,8.117,34.6886,0.5819,-0.1588,0.1861,149.265
17:11:17:318,0.2785,0.7367,7.564,34.7274,0.6268,0.2423,0.1762,149.265
17:11:17:338,0.3007,0.974,7.154,34.5519,0.4021,0.2521,0.1004,149.265
17:11:17:358,0.1053,0.8713,8.2493,34.2109,0.0403,-0.106,-0.0594,149.265
17:11:17:378,-0.2304,0.3473,10.491,34.2508,-0.062,-0.3806,-0.0473,149.265
17:11:17:398,0.0966,-0.243,11.6073,34.366,0.1548,-0.2469,0.0841,149.265
17:11:17:418,0.3667,-0.3662,10.8705,34.293,0.2771,0.1467,0.2388,149.265
17:11:17:437,0.9572,-0.2775,10.145,34.3826,0.1317,0.4202,0.2392,149.265
17:11:17:458,1.4843,-0.5065,10.1619,34.5264,-0.0561,0.4101,0.1365,149.265
17:11:17:478,2.3148,-0.9854,10.4675,34.6038,-0.0098,0.262,0.0216,149.265
17:11:17:498,2.5514,-0.9425,10.21,34.6236,-0.1257,-0.069,-0.2844,149.265
17:11:17:518,2.6204,-1.1898,11.116,34.4196,-0.5327,-0.2498,-0.6135,149.265
17:11:17:538,2.5938,-1.6861,12.3007,34.4988,-0.7626,-0.0798,-0.8278,149.265
17:11:17:560,2.093,-2.0385,12.4426,34.4879,-0.7678,0.0878,-0.9021,149.265
17:11:17:578,1.8177,-1.9426,11.5576,34.328,-0.6188,0.1385,-0.7709,149.265
17:11:17:599,1.9532,-1.4584,9.3329,34.525,-0.3981,0.0581,-0.5475,149.265
17:11:17:618,1.7499,-0.4762,7.7255,34.6321,-0.5604,-0.3334,-0.45,149.265
17:11:17:638,1.4282,0.458,8.6767,34.3985,-0.9235,-0.5423,-0.5078,149.3674
17:11:17:659,0.7201,1.0987,9.9318,34.3406,-0.7897,-0.3312,-0.5654,149.4914
17:11:17:678,0.3994,0.9569,9.188,34.4132,-0.4071,0.1765,-0.4621,149.6316
17:11:17:698,0.0998,1.2453,7.3452,34.4245,0.0088,0.5238,-0.2667,149.7838
17:11:17:718,0.0658,1.2109,5.3482,34.4298,0.1735,0.4891,-0.0589,149.9386
17:11:17:737,0.2979,1.5644,4.7538,34.598,-0.0713,0.0849,0.042,150.0881
17:11:17:758,0.2917,1.8425,6.2845,34.7939,-0.509,-0.5459,-0.1265,150.2318
17:11:17:778,-0.1476,1.6111,9.1777,34.9729,-0.7302,-0.9721,-0.3066,150.3793
17:11:17:798,0.0237,1.2733,11.5031,35.1302,-0.5202,-1.0113,-0.2103,150.5352
17:11:17:818,1.4852,0.6228,12.6958,35.3831,-0.0578,-0.717,-0.1323,150.6952
17:11:17:838,2.5825,0.7488,12.0588,34.9838,0.4276,0.2389,-0.2315,150.8558
17:11:17:858,2.5436,1.493,11.3765,35.1631,0.5575,0.9039,-0.5018,151.0202
17:11:17:878,1.6972,1.9448,9.9026,34.8625,0.0911,1.097,-0.6267,151.1957
17:11:17:898,0.706,1.7159,10.3238,34.9883,-0.4958,1.1187,-0.7969,151.3889
17:11:17:918,0.0142,0.2273,11.504,35.005,-0.7433,0.94,-0.8497,151.6058
17:11:17:940,-0.8653,-0.0217,12.7208,35.1371,-0.7162,0.4616,-0.6934,151.8458
17:11:17:958,-0.8152,-0.2714,13.5582,35.1051,-0.4636,0.3616,-0.2729,152.1005
17:11:17:978,-0.0318,0.1179,13.8,35.4007,-0.2578,0.8384,0.0589,152.3544
17:11:17:998,-0.8182,-0.7059,13.2757,35.7002,0.1505,0.8814,0.1859,152.5974
17:11:18:018,-1.9501,-1.466,11.6805,35.4666,0.3072,0.7075,0.5,152.825
17:11:18:040,-2.3281,-1.6049,10.6799,35.1137,0.4631,0.268,1.0809,153.0233
17:11:18:058,-1.344,-1.5424,9.8341,35.0618,0.6055,-0.4834,1.3932,153.1744
17:11:18:078,-0.7762,-0.4752,9.7011,34.9648,0.5464,-1.4638,1.3506,153.2715
17:11:18:098,0.0972,-0.0576,9.8217,35.1982,0.4186,-2.0486,1.0169,153.2715
17:11:18:118,0.532,-0.065,10.2226,35.452,0.1417,-1.763,0.6961,153.2715
17:11:18:138,0.3553,-0.2934,9.9256,35.8087,0.0301,-0.9119,0.485,153.2715
17:11:18:158,-0.0646,-0.2549,8.8423,35.5886,-0.0012,0.1853,0.5044,153.2715
17:11:18:178,-0.0266,-0.0511,7.6432,35.7985,0.0579,0.6811,0.6178,153.2715
17:11:18:198,0.2901,0.264,6.9143,35.4483,0.1992,0.5035,0.6324,153.2715
17:11:18:217,0.7368,0.5372,6.6428,35.4546,0.3923,0.0402,0.5814,153.2715
17:11:18:239,0.9362,0.6623,6.7903,35.2849,0.5962,-0.3852,0.4131,153.1692
17:11:18:258,1.0124,0.3735,7.0749,35.3457,0.6646,-0.4465,0.2301,153.0552
17:11:18:277,0.9918,0.1319,7.2435,35.0935,0.5112,-0.0596,0.1165,152.9359
17:11:18:298,0.708,0.0219,7.6734,35.1562,0.1949,0.4995,0.0455,152.8161
17:11:18:318,0.3366,0.233,8.4358,35.0351,0.0173,0.7522,-0.0473,152.699
17:11:18:338,-0.0723,0.1134,9.2587,35.1371,0.0542,0.5509,-0.1906,152.5878
17:11:18:358,-0.0756,-0.4733,9.5459,35.0525,0.2088,0.1872,-0.2077,152.4861
17:11:18:378,0.3511,-1.0817,9.364,35.2099,0.2592,0.0035,-0.1895,152.3934
17:11:18:398,0.6855,-1.1491,9.0574,35.0665,0.0331,-0.0173,-0.1549,152.3934
17:11:18:419,0.7286,-1.2051,10.3138,34.9663,-0.3174,0.152,-0.176,152.3934
17:11:18:438,1.3153,-1.3995,11.7295,35.1578,-0.303,0.3672,-0.2179,152.3934
17:11:18:457,1.9385,-1.806,11.2719,35.0485,-0.157,0.4252,-0.3891,152.3934
17:11:18:478,1.5322,-1.6055,11.1481,34.7905,-0.5025,0.1463,-0.703,152.3934
17:11:18:498,0.7874,-1.5382,12.8794,34.7285,-0.971,-0.0899,-1.0568,152.3934
17:11:18:520,0.2616,-2.2151,14.9279,34.6855,-1.035,-0.0817,-1.1382,152.3934
17:11:18:560,0.322,-2.5131,14.9627,34.4635,-0.6693,0.2464,-0.7929,152.3934
17:11:18:562,0.5162,-1.8762,12.6264,34.1709,-0.2843,0.634,-0.3374,152.3934
17:11:18:578,0.9649,-0.6589,9.7698,34.204,-0.1387,0.6782,-0.1363,152.4892
17:11:18:598,1.1497,-0.3404,7.9934,34.1085,-0.0973,0.4964,-0.2623,152.5876
17:11:18:618,0.9401,0.1821,6.9168,34.0932,-0.4063,0.1634,-0.2502,152.6917
17:11:18:638,0.4819,0.4365,8.1292,34.2473,-0.4945,-0.1533,-0.2979,152.8014
17:11:18:658,-0.3315,0.7531,8.9938,34.0933,-0.1248,-0.2534,-0.2074,152.9187
17:11:18:678,-0.2448,0.578,8.6312,34.287,0.3017,0.1449,-0.0321,153.0383
17:11:18:700,0.2872,0.2619,6.8717,34.3456,0.6427,0.3597,0.0909,153.1538
17:11:18:718,0.272,0.8206,5.7609,34.654,0.542,0.1864,0.123,153.2619
17:11:18:738,0.097,1.2677,6.5192,34.7282,0.1655,-0.3393,0.0195,153.3622
17:11:18:758,0.0299,1.1974,8.6277,35.0158,0.0098,-0.7819,-0.0789,153.4595
17:11:18:778,0.5139,0.9862,9.9836,34.6538,0.1886,-0.7559,-0.1025,153.5567
17:11:18:800,1.1767,0.7625,10.0961,34.3025,0.3562,-0.4587,-0.0174,153.6538
17:11:18:818,2.129,0.6553,9.7091,34.0976,0.4413,-0.0531,-0.0102,153.7483
17:11:18:838,2.1543,1.2673,9.1831,33.9422,0.3178,0.2491,-0.1126,153.8404
17:11:18:858,1.4489,1.5389,9.4279,34.3756,0.0017,0.1186,-0.2386,153.9347
17:11:18:878,0.8315,2.031,10.7572,34.3881,-0.1766,-0.0799,-0.4067,154.0348
17:11:18:899,0.2164,1.605,12.1513,34.6677,-0.1408,-0.3298,-0.4785,154.1466
17:11:18:918,0.3706,0.9825,12.8008,34.6165,0.0512,-0.3379,-0.3884,154.2714
17:11:18:938,0.7607,0.9299,12.415,34.7335,0.1018,0.0005,-0.2243,154.4046
17:11:18:958,0.9686,0.9993,11.8305,34.6005,-0.1658,0.5649,-0.1846,154.542
17:11:18:977,0.5279,1.0416,11.9569,34.5644,-0.4641,0.7452,-0.2323,154.6818
17:11:18:998,-0.2597,0.3291,12.1833,34.6481,-0.1227,0.2684,-0.233,154.8258
17:11:19:018,-1.605,-0.8328,11.8882,34.6625,0.2213,-0.0079,-0.1283,154.9729
17:11:19:038,-2.2454,-0.9936,10.7551,34.7856,0.7803,-0.5432,0.1673,155.1167
17:11:19:058,-1.8694,-1.1882,9.7525,34.7181,0.6238,-0.5656,0.5268,155.2454
17:11:19:078,-1.3437,-0.7885,9.5616,34.762,0.2905,-0.6441,0.7508,155.3492
17:11:19:098,-0.4451,-0.6864,9.6223,34.5207,-0.0943,-0.3225,0.8178,155.3492
17:11:19:118,-0.0655,-0.3424,9.3657,34.2884,-0.1726,-0.0321,0.6972,155.3492
17:11:19:138,-0.0658,-0.0866,8.5345,34.2321,-0.1217,0.1865,0.5562,155.3492
17:11:19:158,-0.1564,0.1814,7.5952,34.0431,-0.0803,0.1761,0.4654,155.3492
17:11:19:179,-0.3084,0.432,7.0355,34.0519,-0.1181,-0.0406,0.3981,155.3492
17:11:19:198,-0.7898,0.7728,7.3947,34.001,-0.1654,-0.3209,0.361,155.3492
17:11:19:218,-0.7415,0.4886,8.264,33.9521,-0.0188,-0.5678,0.3435,155.3492
17:11:19:238,-0.0911,0.0083,8.5041,33.8889,0.3177,-0.5556,0.3275,155.3492
17:11:19:258,0.3513,-0.3815,8.0732,33.7663,0.6061,-0.1403,0.3589,155.3492
17:11:19:278,0.2245,-0.0698,7.3248,33.5029,0.6683,0.3554,0.4558,155.3492
17:11:19:298,0.4697,0.3229,6.9671,33.3833,0.4758,0.6561,0.4759,155.3492
17:11:19:318,0.3079,0.9132,7.3998,33.2182,0.1744,0.7116,0.3233,155.2443
17:11:19:337,0.4733,1.0293,8.6103,33.5036,-0.0289,0.2558,0.0897,155.1318
17:11:19:358,0.4425,0.7526,9.877,33.5348,-0.0282,-0.2772,-0.1497,155.0208
17:11:19:378,0.5054,0.2939,10.5693,33.7538,-0.0042,-0.454,-0.2686,154.9192
17:11:19:398,1.2055,-0.4784,11.005,34.0983,-0.1906,-0.2575,-0.3574,154.9192
17:11:19:418,1.6558,-0.9976,11.5399,33.7858,-0.5725,0.1588,-0.5038,154.9192
17:11:19:438,0.9776,-0.4177,12.5375,33.8865,-0.8349,0.5932,-0.5598,154.9192
17:11:19:461,0.7187,-0.291,13.0135,33.9541,-0.7837,0.78,-0.5927,154.9192
17:11:19:478,1.4045,-0.7772,12.0625,33.9313,-0.4982,0.9622,-0.6348,154.9192
17:11:19:498,0.8196,-0.6537,10.6408,33.8351,-0.4426,1.0394,-0.7743,154.9192
17:11:19:518,-0.4363,-0.1822,10.3598,34.0225,-0.8067,0.8724,-0.8967,154.9192
17:11:19:538,-0.94,-0.6931,11.8467,33.714,-0.9264,0.4118,-0.881,154.9192
17:11:19:560,-0.3245,-1.7983,13.4824,33.6306,-0.7421,0.2373,-0.6688,155.0199
17:11:19:578,0.329,-2.1365,13.0786,33.8086,-0.1293,0.1057,-0.3991,155.1382
17:11:19:599,0.9126,-1.6879,11.4976,33.6334,0.324,0.2583,-0.2012,155.2649
17:11:19:618,1.3928,-1.24,9.5342,33.4814,0.5971,0.2005,-0.301,155.3953
17:11:19:638,1.1786,-0.5179,7.5362,33.8851,0.3453,0.2298,-0.5504,155.5348
17:11:19:659,0.3099,0.0733,6.9847,33.7141,-0.262,0.3109,-0.8078,155.6912
17:11:19:678,-0.8871,0.1774,8.0003,33.8952,-0.5636,0.3087,-0.9369,155.8717
17:11:19:699,-1.6183,0.0168,8.4481,34.1181,-0.3058,0.2134,-0.708,156.077
17:11:19:718,-1.5833,-0.1496,7.851,34.1526,0.2119,0.1616,-0.32,156.2973
17:11:19:738,-1.4631,0.1817,6.6278,34.1433,0.5897,0.1007,0.0816,156.5191
17:11:19:758,-1.1333,0.5049,5.8802,34.1978,0.6526,-0.1766,0.3138,156.7298
17:11:19:778,-0.6554,1.0718,5.9578,34.3897,0.3113,-0.6486,0.2789,156.9237
17:11:19:798,-0.8423,1.787,7.6043,34.1689,-0.1966,-1.1315,0.154,157.1028
17:11:19:818,-0.5739,1.6273,10.5037,34.3887,-0.3471,-1.4167,0.0372,157.2719
17:11:19:839,0.1814,0.7545,12.2185,34.7066,0.0502,-1.2378,-0.005,157.4357
17:11:19:858,0.6867,0.2827,11.7162,34.7012,0.5528,-0.6436,0.0623,157.595
17:11:19:878,0.6422,0.7188,10.0926,34.9634,0.6983,0.0847,0.2535,157.7455
17:11:19:898,0.5749,1.4085,8.7767,35.2161,0.4499,0.4562,0.3832,157.8806
17:11:19:918,-0.0291,1.849,8.7567,35.3038,0.0515,0.4895,0.3039,157.998
17:11:19:940,-0.4647,1.6501,9.7169,35.588,-0.1482,0.0843,0.1811,158.1021
17:11:19:957,-0.2669,0.7387,10.7431,35.6209,-0.1884,-0.2395,0.1079,158.1968
17:11:19:978,-0.2572,0.3422,11.9625,35.7462,-0.2006,-0.2416,0.1124,158.1968
17:11:19:998,-0.3718,-0.066,12.8798,35.7195,0.0294,0.0657,0.1912,158.1968
17:11:20:018,-1.1592,-0.0945,12.3018,35.3275,0.2234,0.5819,0.3815,158.1968
17:11:20:040,-1.5578,-0.251,11.4335,35.322,0.2518,0.4533,0.4664,158.1968
17:11:20:059,-1.5088,-0.3692,11.273,35.237,-0.0999,-0.1355,0.522,158.1968
17:11:20:078,-1.1168,-0.5532,12.5459,35.0458,-0.2846,-0.7998,0.5446,158.1968
17:11:20:098,-0.2487,-0.961,13.0018,35.3625,-0.0433,-0.943,0.5384,158.1968
17:11:20:118,0.2571,-1.1054,11.6575,35.5339,0.2721,-0.503,0.5078,158.1968
17:11:20:139,0.3105,-0.8997,9.4074,35.3944,0.2249,0.0207,0.5104,158.1968
17:11:20:158,0.2279,-0.3881,7.9305,35.4325,-0.155,0.2963,0.4485,158.1968
17:11:20:178,-0.4476,0.2804,7.9987,35.0737,-0.5005,0.3827,0.3384,158.1968
17:11:20:198,-0.926,0.29,8.9768,34.721,-0.354,0.0759,0.3214,158.1968
17:11:20:219,-0.3361,-0.5449,8.9964,34.9228,0.2468,-0.1996,0.4254,158.1968
17:11:20:238,0.0517,-0.9455,8.1411,34.8311,0.8395,-0.3027,0.6074,158.1001
17:11:20:258,0.139,-0.4759,7.1357,34.9636,1.0868,-0.2683,0.8397,157.9789
17:11:20:278,0.5591,-0.004,6.6673,34.616,0.9935,-0.1853,0.8844,157.8324
17:11:20:300,0.7364,0.5724,6.6435,34.5183,0.7471,0.0044,0.7111,157.6591
17:11:20:321,0.7521,0.7157,6.8342,34.2485,0.4622,0.1274,0.414,157.4676
17:11:20:338,0.4833,0.6963,7.1958,34.0969,0.1876,0.0668,0.1446,157.269
17:11:20:358,0.1814,0.5704,7.8608,34.1226,-0.0579,-0.0568,-0.0013,157.0721
17:11:20:378,-0.0009,0.3859,8.8415,33.899,-0.2211,-0.1111,-0.0763,156.882
17:11:20:398,0.2128,-0.2538,9.7009,33.8933,-0.2727,-0.1145,-0.1301,156.7012
17:11:20:419,0.4413,-0.9271,10.235,33.5483,-0.3176,0.0059,-0.1342,156.5314
17:11:20:438,0.2391,-0.8561,10.4764,33.2098,-0.4503,0.2329,-0.0967,156.3721
17:11:20:458,0.371,-0.7465,10.8562,33.1753,-0.585,0.2447,-0.1184,156.2224
17:11:20:477,1.4515,-1.4583,11.3185,33.0522,-0.5554,0.0123,-0.2619,156.0824
17:11:20:498,1.8373,-1.6683,11.5138,33.1579,-0.6739,-0.3253,-0.5474,155.9583
17:11:20:518,1.5761,-1.6358,12.7925,33.1362,-1.1079,-0.3965,-0.8743,155.861
17:11:20:538,1.3365,-2.3181,14.6838,33.1135,-1.1855,-0.3201,-1.1348,155.861
17:11:20:572,1.1431,-3.2765,15.2078,32.8458,-0.8792,0.0248,-1.1359,155.861
17:11:20:578,0.8581,-3.2414,13.498,32.5079,-0.2121,0.3293,-0.7543,155.861
17:11:20:598,0.9292,-2.1184,10.7951,32.3228,0.0821,0.7618,-0.1143,155.861
17:11:20:618,0.9125,-1.4431,8.9708,32.2336,0.1989,0.6386,0.1863,155.861
17:11:20:638,0.4709,0.128,7.9471,32.2821,0.144,0.1324,-0.0071,155.861
17:11:20:658,0.6733,0.9958,7.7151,32.3428,0.0059,-0.2568,-0.1277,155.861
17:11:20:678,0.7959,0.7816,7.9975,32.4312,0.0197,-0.1933,-0.2482,155.861
17:11:20:701,0.3499,0.8732,7.8875,32.3239,0.2055,0.0209,-0.3123,155.861
17:11:20:718,-0.1417,0.83,6.9,32.1222,0.4233,0.2297,-0.2602,155.861
17:11:20:738,-0.2755,0.6612,5.9854,32.2953,0.3855,0.3502,-0.08,155.861
17:11:20:758,-0.1814,0.781,6.0723,32.1078,0.1369,0.2598,0.1248,155.861
17:11:20:777,-0.0086,1.1154,7.3075,32.1369,-0.0917,-0.0607,0.1984,155.861
17:11:20:799,0.1109,1.113,9.115,32.2269,-0.0768,-0.4278,0.2046,155.861
17:11:20:818,0.4141,0.9984,10.1511,32.1656,0.1352,-0.6621,0.2094,155.861
17:11:20:838,0.6954,1.057,10.6207,32.2045,0.2928,-0.5441,0.2366,155.861
17:11:20:858,1.0273,1.1692,10.7412,32.3254,0.3774,-0.2189,0.1913,155.861
17:11:20:877,0.9449,1.226,10.6921,32.2718,0.3396,0.1242,0.0887,155.861
17:11:20:898,0.5501,1.2028,10.9187,31.8822,0.2794,0.2617,0.0073,155.861
17:11:20:918,0.2777,0.9192,11.2231,32.0142,0.3144,0.228,-0.0203,155.861
17:11:20:938,0.1037,0.7853,11.1232,32.1139,0.4169,0.2524,-0.002,155.861
17:11:20:958,-0.1556,0.664,10.3406,32.1329,0.3032,0.4834,0.0201,155.861
17:11:20:977,-0.6879,0.6941,9.9479,32.2193,-0.0317,0.4494,-0.002,155.861
17:11:20:999,-1.1476,0.1659,10.9785,32.3655,-0.7215,0.4048,-0.1038,155.861
17:11:21:019,-2.4172,-0.5953,13.6505,31.82,-0.8273,-0.1935,-0.0838,155.861
17:11:21:038,-2.2899,-1.787,14.3374,31.4376,-0.2755,-0.6511,0.2306,155.861
17:11:21:057,-1.6903,-2.6526,13.8952,31.0269,0.2283,-0.6469,0.6514,155.861
17:11:21:078,-1.1571,-2.1022,12.13,30.9796,0.6226,-0.4826,1.0493,155.861
17:11:21:098,-0.6786,-1.2602,10.4823,31.1391,0.5933,-0.2508,1.2115,155.861
17:11:21:118,-0.2837,-0.525,9.0142,31.3265,0.5056,-0.1399,1.133,155.861
17:11:21:138,-0.2026,-0.031,8.2117,31.2293,0.3377,-0.099,1.023,155.7334
17:11:21:158,-0.087,0.1904,7.838,31.1429,0.2997,-0.2766,0.9421,155.5742
17:11:21:180,0.116,0.2775,7.8279,31.1342,0.2805,-0.371,0.8778,155.3869
17:11:21:198,0.021,0.4664,7.8638,30.8644,0.3853,-0.3912,0.8125,155.1749
17:11:21:218,0.2669,0.3418,7.8409,30.4159,0.5237,-0.2952,0.7539,154.9408
17:11:21:238,0.5578,0.3544,7.6789,30.5253,0.6566,-0.1576,0.6908,154.6867
17:11:21:257,0.9532,0.4657,7.3471,30.2879,0.6481,-0.0147,0.5856,154.4125
17:11:21:279,1.1544,0.7075,7.3765,30.3755,0.4511,0.1579,0.3706,154.1283
17:11:21:298,0.928,0.8504,7.6575,30.2336,0.172,0.3405,0.0772,153.8413
17:11:21:318,0.35,0.8673,8.3713,29.9809,-0.0748,0.4318,-0.1625,153.5624
17:11:21:338,-0.2171,0.5806,9.3115,29.781,-0.0782,0.3656,-0.2341,153.2985
17:11:21:357,-0.3862,0.2043,9.7725,29.3969,0.0621,0.3314,-0.1997,153.0511
17:11:21:379,0.015,0.0423,9.7247,29.0994,0.11,0.2304,-0.1833,152.8168
17:11:21:398,0.4526,-0.082,9.6054,29.0072,-0.0628,0.1564,-0.296,152.596
17:11:21:418,0.5297,-0.0694,9.8533,28.6414,-0.3882,0.1477,-0.4652,152.3935
17:11:21:437,0.6894,-0.4662,10.7513,28.3773,-0.6205,0.2386,-0.5702,152.2153
17:11:21:459,1.0166,-1.0068,11.1054,28.3497,-0.6049,0.4902,-0.6203,152.0664
17:11:21:478,0.8161,-1.1169,10.6612,28.013,-0.5999,0.5017,-0.745,151.9432
17:11:21:498,0.3868,-1.1846,10.7323,27.8157,-0.7321,0.2544,-0.8357,151.8505
17:11:21:518,0.4665,-1.8694,11.7044,27.7023,-0.8499,-0.0787,-0.8798,151.8505
17:11:21:538,0.347,-2.4172,12.5502,27.4544,-0.8468,-0.2152,-0.8752,151.8505
17:11:21:559,-0.0661,-2.3923,12.5426,27.3691,-0.7605,-0.0598,-0.7014,151.8505
17:11:21:578,-0.2907,-1.9993,11.517,27.2062,-0.5715,0.1918,-0.3767,151.8505
17:11:21:598,-0.3901,-1.2882,9.9058,27.0922,-0.3152,0.3078,-0.045,151.8505
17:11:21:618,0.1441,-0.1784,8.1953,26.7404,-0.201,0.2824,0.2174,151.8505
17:11:21:638,0.7366,0.1677,7.5845,26.6559,-0.1155,0.0591,0.2807,151.8505
17:11:21:660,0.9073,0.6787,7.571,26.3161,-0.1218,-0.2118,0.1867,151.8505
17:11:21:678,0.565,1.0659,8.0807,26.009,-0.0708,-0.2731,0.0325,151.8505
17:11:21:699,0.0833,1.0263,8.3988,26.1726,0.1882,-0.22,-0.0636,151.8505
17:11:21:718,-0.1779,0.5668,7.7878,25.9333,0.4533,-0.0704,-0.0278,151.8505
17:11:21:738,-0.2238,0.4096,7.0958,25.798,0.384,0.1502,0.1072,151.8505
17:11:21:759,0.1341,0.6746,7.4059,25.7594,0.0533,0.2062,0.2431,151.8505
17:11:21:778,0.2371,1.0416,8.7133,25.6504,-0.2059,0.1048,0.2345,151.8505
17:11:21:798,0.2901,1.2426,10.2195,25.4375,-0.1329,-0.099,0.1759,151.8505
17:11:21:818,0.475,0.9204,11.228,25.1833,0.1758,-0.2314,0.1299,151.8505
17:11:21:838,0.5093,0.803,11.3543,25.3453,0.4598,-0.2142,0.1532,151.8505
17:11:21:858,0.2965,1.0064,10.9798,25.1851,0.5463,-0.081,0.2325,151.8505
17:11:21:878,0.243,1.2528,10.6809,24.8017,0.4599,0.0634,0.2848,151.8505
17:11:21:898,0.52,1.1115,10.7976,24.8532,0.2965,0.0684,0.26,151.8505
17:11:21:918,0.7053,0.8647,11.4259,24.7113,0.1088,-0.0027,0.177,151.8505
17:11:21:940,0.5588,0.9079,12.1407,24.6964,0.0053,0.0838,0.1319,151.8505
17:11:21:958,0.2645,0.9017,12.2363,24.6029,-0.0282,0.2975,0.1425,151.8505
17:11:21:978,0.237,0.672,12.1091,24.6298,-0.242,0.4532,0.1426,151.8505
17:11:21:998,-0.1915,-0.3935,12.6146,24.4695,-0.2356,0.2417,0.0035,151.8505
17:11:22:018,-1.2535,-1.2564,12.3303,24.5991,-0.0421,-0.1022,-0.1135,151.8505
17:11:22:039,-2.0254,-1.4605,11.8343,24.6489,0.2616,-0.5303,0.1313,151.8505
17:11:22:058,-1.6426,-1.7949,11.1457,24.7178,0.3787,-0.6742,0.4323,151.8505
17:11:22:078,-1.0466,-1.4033,10.2762,24.9495,0.3631,-0.4494,0.659,151.7572
17:11:22:098,-0.6257,-0.838,9.1399,25.212,0.2977,-0.136,0.7744,151.6425
17:11:22:118,-0.2384,-0.3523,8.0272,25.2896,0.2478,-0.0079,0.7393,151.5044
17:11:22:139,0.2847,-0.1888,7.246,25.6078,0.1566,-0.0112,0.6669,151.345
17:11:22:158,0.665,-0.0405,7.0012,25.5662,0.0147,-0.0855,0.5354,151.1681
17:11:22:178,0.3092,0.2754,7.3131,25.7228,-0.1036,-0.0895,0.3686,150.9795
17:11:22:198,-0.2766,0.2837,8.047,25.6147,0.0069,-0.1188,0.2904,150.7851
17:11:22:218,-0.0602,-0.2075,7.9094,26.0208,0.3168,-0.0678,0.3261,150.5866
17:11:22:238,-0.0407,-0.1214,7.3422,26.0299,0.5352,0.0603,0.3828,150.382
17:11:22:258,0.0895,0.4107,6.7275,26.4234,0.563,0.1958,0.4635,150.1686
17:11:22:278,0.5026,0.525,6.5447,26.8423,0.3644,0.1983,0.369,149.9448
17:11:22:298,0.2173,0.8756,7.2035,27.0769,-0.0401,0.1522,0.1789,149.7159
17:11:22:319,-0.4149,1.2201,8.8466,27.1214,-0.3109,0.1004,0.0457,149.4887
17:11:22:338,-0.7678,0.9224,10.3475,27.3891,-0.2229,0.0758,-0.0168,149.2682
17:11:22:357,-0.653,0.3743,10.6222,27.3843,0.0619,0.1299,0.0383,149.0553
17:11:22:377,-0.2093,0.0396,10.0168,27.2904,0.1408,0.13,0.1109,148.8466
17:11:22:398,0.3894,-0.278,9.8201,27.6096,-0.1006,0.0276,0.1095,148.6395
17:11:22:419,0.5996,-0.3575,10.5454,27.5985,-0.5159,0.0002,0.0333,148.4353
17:11:22:438,0.8434,-0.3786,11.9726,27.722,-0.7802,0.0053,-0.0822,148.2377
17:11:22:458,1.553,-0.9959,12.9433,27.9616,-0.7172,0.0375,-0.2547,148.0514
17:11:22:478,1.8145,-1.4209,13.1407,28.1396,-0.5772,0.1713,-0.5065,147.8828
17:11:22:498,1.3248,-1.5925,12.8605,27.9857,-0.5309,0.366,-0.6961,147.7397
17:11:22:519,0.7449,-2.0456,12.5524,27.7552,-0.4622,0.3806,-0.75,147.6261
17:11:22:538,0.514,-2.4344,11.9491,27.6826,-0.4464,0.3433,-0.6497,147.6261
17:11:22:583,0.3115,-2.3931,11.4199,27.3797,-0.252,0.1433,-0.3973,147.6261
17:11:22:585,0.3048,-1.9933,10.2139,27.2506,0.0293,-0.045,-0.1305,147.6261
17:11:22:599,0.0992,-0.9873,8.9857,27.3848,0.1923,-0.2368,0.0469,147.6261
17:11:22:618,0.1166,-0.4762,8.0373,27.5423,0.2085,-0.3025,0.072,147.6261
17:11:22:638,-0.0516,0.2457,7.4608,27.9655,0.077,-0.1782,0.0236,147.6261
17:11:22:657,-0.0709,0.4974,6.9688,28.1786,-0.0511,0.0415,-0.0373,147.6261
17:11:22:678,-0.2659,0.6828,6.8907,28.2057,-0.1516,0.2438,-0.0578,147.6261
17:11:22:700,-0.2462,0.6996,6.9691,28.334,-0.0349,0.2854,0.0156,147.6261
17:11:22:718,0.081,0.6756,7.0678,28.5987,0.1278,0.1901,0.0823,147.6261
17:11:22:738,0.4494,0.7841,7.3042,28.3925,0.2337,-0.0216,0.0372,147.6261
17:11:22:758,0.5155,0.8909,7.7491,28.3652,0.205,-0.2487,-0.1034,147.6261
17:11:22:778,0.24,0.8265,8.7196,28.7147,0.0804,-0.295,-0.2204,147.6261
17:11:22:800,-0.0264,0.6,10.0865,28.8605,0.0321,-0.1344,-0.164,147.6261
17:11:22:818,-0.0744,0.6153,11.1773,28.9737,0.176,0.1015,-0.0026,147.6261
17:11:22:838,0.0007,0.9023,11.3811,28.8456,0.4628,0.3045,0.1219,147.6261
17:11:22:858,0.1215,1.2316,10.6725,29.1489,0.671,0.4013,0.1357,147.6261
17:11:22:878,0.1685,1.4234,9.7869,29.0168,0.652,0.3124,0.0841,147.6261
17:11:22:899,0.2932,1.4118,9.7475,29.2134,0.3973,0.0858,-0.0079,147.6261
17:11:22:918,0.4161,1.1169,10.5217,29.1696,0.0728,-0.0749,-0.1383,147.6261
17:11:22:938,0.0489,1.0725,11.647,29.4058,-0.1339,0.0431,-0.1707,147.6261
17:11:22:958,-0.3959,1.2594,12.1532,29.5834,-0.172,0.238,-0.0186,147.6261
17:11:22:978,0.0833,1.3909,12.2245,29.7082,-0.4869,0.4317,0.1896,147.6261
17:11:22:998,0.3217,0.2821,13.4043,29.6772,-0.5516,0.3892,-0.0137,147.6261
17:11:23:018,-1.0477,-1.287,13.3148,30.0288,-0.2321,-0.0903,-0.3036,147.6261
17:11:23:038,-2.2641,-2.4262,12.9198,30.0274,0.1045,-0.8961,-0.1031,147.6261
17:11:23:058,-2.2882,-2.5697,12.7282,29.9591,0.3647,-1.3129,0.425,147.6261
17:11:23:078,-0.8542,-2.1857,12.0889,30.335,0.5167,-1.1784,0.8617,147.6261
17:11:23:099,0.3505,-1.3293,10.9762,30.4126,0.5709,-0.8075,0.9875,147.6261
17:11:23:118,1.0311,-0.4094,9.4968,30.4017,0.5067,-0.4146,0.8135,147.5053
17:11:23:137,1.0684,0.0626,8.0906,30.5776,0.4615,-0.0701,0.5363,147.3618
17:11:23:158,1.0955,-0.1034,6.7512,30.9287,0.4051,0.1005,0.3013,147.2038
17:11:23:180,0.7431,0.0335,6.0299,31.048,0.1199,0.157,0.0801,147.0424
17:11:23:198,-0.1037,0.7738,6.5239,30.8996,-0.3274,0.3672,-0.0579,146.8845
17:11:23:218,-0.5095,0.9308,7.5633,31.0368,-0.4184,0.5906,-0.0702,146.7348
17:11:23:238,-0.453,0.4283,7.6068,31.0296,-0.0474,0.6935,-0.0237,146.593
17:11:23:258,-0.3629,0.0841,6.7004,31.1033,0.4278,0.5763,0.101,146.4556
17:11:23:279,-0.1719,0.284,5.8595,31.015,0.6673,0.0782,0.2391,146.3162
17:11:23:298,-0.1226,0.9213,5.9589,31.4559,0.5609,-0.5664,0.214,146.1703
17:11:23:318,-0.1758,1.541,6.8741,31.5719,0.2772,-0.883,0.0804,146.0207
17:11:23:337,-0.1934,1.3962,8.4604,31.7065,0.0871,-0.8149,-0.0929,145.8739
17:11:23:358,-0.081,0.453,9.5736,31.7323,0.0844,-0.3706,-0.1729,145.7366
17:11:23:380,0.1799,-0.1178,9.6066,31.9234,-0.047,0.295,-0.1033,145.6105
17:11:23:398,0.6156,-0.1477,9.4702,31.6998,-0.4337,0.8145,-0.0656,145.4922
17:11:23:418,0.5864,0.1329,10.036,31.6947,-0.9597,0.9837,-0.247,145.3818
17:11:23:437,0.5104,0.0947,11.577,31.6176,-1.2122,0.7592,-0.5112,145.2862
17:11:23:458,1.2061,-1.0662,12.7727,31.4953,-1.0178,0.3368,-0.7315,145.2862
17:11:23:478,0.8682,-1.3796,13.0309,31.4049,-0.7763,-0.0769,-0.95,145.2862
17:11:23:498,0.2684,-1.3086,13.5705,31.3096,-0.7483,-0.2052,-1.0421,145.2862
17:11:23:518,-0.1111,-1.9826,14.2345,31.2683,-0.5641,-0.0875,-0.9778,145.2862
17:11:23:537,0.4769,-2.8499,13.7319,30.9136,-0.1966,-0.0106,-0.7837,145.2862
17:11:23:560,0.7102,-2.8661,12.8747,30.6707,-0.1418,0.0305,-0.5126,145.2862
17:11:23:578,1.083,-1.8899,11.9906,30.6432,-0.2715,0.166,-0.2471,145.3845
17:11:23:598,0.9739,-0.7657,11.5716,30.4876,-0.3006,0.3927,-0.1713,145.4875
17:11:23:618,0.4824,-0.2155,10.339,30.3182,-0.0593,0.6108,-0.1808,145.5939
17:11:23:638,0.0584,0.0318,8.7304,30.0464,0.3055,0.6294,-0.1577,145.7035
17:11:23:659,-0.0566,0.0125,6.8182,29.8639,0.626,0.4806,-0.1033,145.8153
17:11:23:678,-0.1161,0.1994,5.5463,29.562,0.6949,0.1783,-0.0418,145.9269
17:11:23:698,-0.2639,0.6285,5.0575,29.4791,0.5658,-0.164,-0.0359,146.0366
17:11:23:718,-0.3596,1.0563,5.5887,29.7617,0.3112,-0.496,-0.0408,146.1439
17:11:23:738,0.2306,0.9806,6.9458,29.767,0.1264,-0.7302,-0.0896,146.2493
17:11:23:760,0.434,0.9008,8.241,29.6915,0.0538,-0.7669,-0.1943,146.3555
17:11:23:778,0.3874,0.8243,9.3319,29.8798,0.0908,-0.664,-0.1983,146.4655
17:11:23:799,0.4991,0.7986,9.9019,29.6351,0.2283,-0.4137,-0.1019,146.5787
17:11:23:818,0.7321,1.0416,9.8573,29.5218,0.3734,-0.0826,-0.0025,146.6912
17:11:23:842,0.7818,1.4332,9.3669,29.3437,0.3678,0.1394,-0.0191,146.8
17:11:23:858,0.4449,1.9616,9.1272,29.4323,0.2065,0.1544,-0.1044,146.9064
17:11:23:878,0.1183,2.0447,9.4911,29.279,0.059,-0.0337,-0.1943,147.0133
17:11:23:898,-0.0378,1.7478,10.207,29.2832,0.019,-0.2638,-0.2216,147.1237
17:11:23:918,0.2719,1.2165,10.8963,29.2854,0.0239,-0.3818,-0.1831,147.2377
17:11:23:939,0.4978,0.9874,11.4554,28.9575,0.0068,-0.2465,-0.1783,147.3548
17:11:23:957,0.3102,1.2567,11.5976,28.9426,-0.0255,0.2255,-0.17,147.4753
17:11:23:978,-0.077,1.3053,11.0068,28.5205,-0.2036,0.6657,-0.2729,147.5992
17:11:23:998,-1.1278,0.4598,11.0156,28.4338,-0.3202,0.4518,-0.3237,147.7296
17:11:24:018,-1.3973,-0.5424,11.3198,28.5849,-0.3627,0.0793,-0.1356,147.8657
17:11:24:040,-1.5774,-1.4414,11.7,28.6191,-0.1523,-0.4165,0.1302,147.9997
17:11:24:058,-0.8771,-2.0437,11.5583,28.8678,0.0149,-0.8625,0.3652,148.1223
17:11:24:078,0.1983,-1.8636,11.7125,29.3947,-0.0372,-1.0042,0.474,148.2277
17:11:24:098,0.8556,-1.5929,11.5741,29.3998,-0.1517,-0.6968,0.3825,148.2277
17:11:24:118,0.6805,-1.3205,10.9541,29.5933,-0.2048,-0.2238,0.1719,148.2277
17:11:24:139,-0.0256,-1.1021,9.8769,29.7449,-0.1559,0.238,0.1219,148.2277
17:11:24:158,-0.55,-0.9974,8.6574,29.6803,-0.0024,0.4368,0.2354,148.2277
17:11:24:178,-0.9613,-0.6399,7.6163,29.6975,0.1643,0.3616,0.421,148.2277
17:11:24:198,-1.0464,-0.289,6.9908,30.0609,0.3084,0.0947,0.6256,148.2277
17:11:24:219,-0.4654,-0.0287,6.7163,30.143,0.4292,-0.1427,0.7709,148.2277
17:11:24:238,0.343,0.3031,6.539,30.2124,0.4906,-0.2264,0.7935,148.2277
17:11:24:259,0.761,0.769,6.4876,30.7202,0.403,-0.2512,0.6452,148.2277
17:11:24:278,0.5756,1.1987,6.8361,30.6861,0.1725,-0.2021,0.4152,148.2277
17:11:24:298,0.2869,1.1301,7.7561,30.8802,-0.0117,-0.0877,0.222,148.2277
17:11:24:320,-0.2358,0.9155,8.8701,31.185,0.0134,0.0367,0.1429,148.2277
17:11:24:338,-0.281,0.4471,9.3892,31.2883,0.1666,0.0307,0.1682,148.2277
17:11:24:358,-0.1888,0.3711,9.4882,31.7392,0.209,-0.0549,0.1464,148.2277
17:11:24:378,-0.1233,0.4684,9.7452,32.0722,0.0671,-0.0843,0.1509,148.1328
17:11:24:398,0.3261,0.2038,10.1538,32.2953,-0.151,0.0208,0.075,148.036
17:11:24:419,0.6203,-0.1821,10.6783,32.366,-0.3849,0.0949,-0.0666,147.9413
17:11:24:438,0.8779,-0.6243,11.5047,32.5223,-0.5752,0.1333,-0.1433,147.9413
17:11:24:458,1.6646,-1.2165,12.0807,32.7667,-0.5779,0.2798,-0.1806,147.9413
17:11:24:478,1.9607,-1.5018,11.963,32.9918,-0.584,0.3192,-0.4235,147.9413
17:11:24:499,1.296,-1.3374,12.1069,33.0305,-0.9533,0.3156,-0.7931,147.9413
17:11:24:518,-0.008,-1.8076,14.1024,32.9901,-1.2021,0.2311,-1.0024,147.9413
17:11:24:538,-0.1512,-3.045,15.3271,33.1515,-0.802,0.1834,-0.8365,147.9413
17:11:24:558,0.252,-3.5996,14.6693,33.2136,-0.0228,0.1992,-0.405,147.9413
17:11:24:592,1.1357,-2.8735,12.2095,33.2865,0.6292,0.2695,0.0709,147.9413
17:11:24:604,2.2146,-1.4663,9.4552,33.5229,0.7816,0.3363,0.0937,147.9413
17:11:24:618,2.2262,-0.6858,7.4444,33.6876,0.3868,0.5156,-0.2741,147.9413
17:11:24:638,1.2699,-0.066,6.5682,33.7784,-0.2297,0.7138,-0.6241,147.9413
17:11:24:658,-0.0128,0.1901,7.0595,33.8602,-0.621,0.7734,-0.7855,147.9413
17:11:24:677,-0.9593,0.2336,7.4853,33.748,-0.4876,0.6239,-0.7067,148.0507
17:11:24:701,-0.8944,0.0283,7.2738,33.7219,-0.0472,0.3837,-0.4521,148.1793
17:11:24:718,-0.4942,0.0774,6.4947,33.6062,0.3079,0.1536,-0.2213,148.3176
17:11:24:738,-0.3406,0.5452,6.1402,33.3979,0.3446,-0.0812,-0.0961,148.4581
17:11:24:758,-0.5666,0.8832,6.4586,33.4034,0.1582,-0.3083,-0.1041,148.5974
17:11:24:778,-0.8094,0.8939,7.5414,33.3744,-0.0583,-0.5001,-0.1631,148.7364
17:11:24:800,-0.8224,0.6977,8.8263,33.7239,-0.144,-0.483,-0.1052,148.8767
17:11:24:819,-0.191,0.5772,9.8166,33.9706,-0.0418,-0.3191,0.0036,149.0155
17:11:24:838,0.1549,0.8208,10.1415,34.0851,0.0746,-0.1374,0.0442,149.1498
17:11:24:858,0.4253,1.0803,10.3211,34.0926,0.1516,-0.0168,0.0165,149.2786
17:11:24:878,0.3892,1.3329,10.3883,34.0753,0.1691,0.076,-0.0644,149.4037
17:11:24:898,0.0676,1.5835,10.3485,34.1978,0.1735,0.1417,-0.1386,149.5279
17:11:24:918,0.0472,1.4114,10.0769,34.6849,0.0754,0.1734,-0.175,149.6533
17:11:24:938,0.2967,0.9124,10.2172,35.0051,-0.1682,0.2797,-0.2249,149.7813
17:11:24:957,-0.118,1.2351,10.6194,35.5363,-0.4322,0.5949,-0.2085,149.9134
17:11:24:977,-0.7696,1.5336,11.1965,35.8221,-0.6378,0.6773,-0.0956,150.0477
17:11:24:998,-1.1879,0.9011,12.2082,36.2264,-0.8655,0.2343,0.0115,150.1794
17:11:25:019,-1.8206,-1.1687,14.3545,36.9464,-0.6235,-0.5825,0.2024,150.3049
17:11:25:038,-1.7618,-2.4927,15.2536,37.2589,0.19,-1.2612,0.6918,150.4164
17:11:25:058,-0.2909,-3.128,14.3867,37.298,0.9808,-1.4152,1.1502,150.4164
17:11:25:078,1.3633,-2.438,12.6013,37.79,1.2287,-1.1517,1.1844,150.4164
17:11:25:098,2.2684,-1.5705,10.7737,37.7878,0.8999,-0.6419,0.7868,150.4164
17:11:25:118,1.8652,-1.1969,9.5528,37.8871,0.3844,-0.1673,0.19,150.4164
17:11:25:138,0.5277,-1.2338,9.0643,38.2562,-0.0595,0.2171,-0.1796,150.4164
17:11:25:158,-0.6035,-1.3016,8.8589,38.5228,-0.0903,0.3624,-0.2129,150.4164
17:11:25:180,-1.0759,-1.2973,8.1419,38.5947,0.1407,0.4221,0.0238,150.4164
17:11:25:200,-0.9769,-1.0425,7.3061,38.8598,0.4331,0.2235,0.3069,150.4164
17:11:25:219,-0.5642,-0.3175,6.5313,39.0117,0.6079,-0.1206,0.5181,150.4164
17:11:25:238,0.1373,0.352,6.3284,39.3832,0.5572,-0.4436,0.5443,150.4164
17:11:25:258,0.7282,0.7174,6.6481,39.5078,0.418,-0.6121,0.3639,150.4164
17:11:25:280,1.0295,0.8855,7.3902,39.3837,0.295,-0.4827,0.0962,150.4164
17:11:25:298,0.6435,0.624,8.2146,39.404,0.3367,-0.1069,-0.1451,150.4164
17:11:25:318,-0.4057,0.4053,7.9352,39.6671,0.4587,0.2393,-0.1645,150.4164
17:11:25:338,-0.9547,0.5079,7.1964,39.9477,0.3673,0.4441,0.0382,150.4164
17:11:25:358,-0.8753,1.142,7.2721,40.1059,0.1065,0.4272,0.1884,150.4164
17:11:25:379,-0.388,1.4337,8.312,40.3868,-0.1044,0.2566,0.0733,150.4164
17:11:25:398,-0.1626,1.4747,9.1459,40.6491,-0.1373,0.1149,-0.2204,150.4164
17:11:25:418,-0.3657,0.8829,9.3106,40.6597,-0.228,0.0634,-0.4949,150.4164
17:11:25:438,-0.9918,-0.2814,10.0793,40.8207,-0.4545,0.0684,-0.6106,150.4164
17:11:25:458,-0.657,-1.5744,11.5207,41.0102,-0.7049,0.2248,-0.4066,150.4164
17:11:25:478,0.4891,-1.7477,12.4383,41.2164,-0.8031,0.5191,-0.2219,150.4164
17:11:25:499,1.0645,-1.6706,13.1909,41.3715,-0.9918,0.5303,-0.5266,150.4164
17:11:25:518,0.2638,-2.1528,14.7791,41.4048,-1.0546,0.5156,-0.8976,150.4164
17:11:25:537,-0.602,-3.432,15.2418,41.3371,-0.6641,0.5936,-0.7351,150.4164
17:11:25:560,-0.2937,-4.2677,14.0742,41.1209,-0.1131,0.4072,-0.2267,150.4164
17:11:25:578,1.1725,-4.1118,12.0015,41.3089,0.183,0.1721,0.302,150.4164
17:11:25:598,2.0501,-2.8813,10.435,41.5768,0.1719,-0.0907,0.5001,150.4164
17:11:25:618,2.223,-1.4036,9.1658,41.446,0.027,-0.332,0.391,150.4164
17:11:25:638,2.2912,-0.5542,8.8294,41.737,-0.2867,-0.1053,0.1741,150.4164
17:11:25:659,1.6821,0.1166,8.0305,41.9578,-0.4788,0.0462,-0.0217,150.4164
17:11:25:681,1.3296,0.4832,8.2945,41.8061,-0.5433,0.1426,-0.1193,150.4164
17:11:25:698,0.741,1.0042,8.1892,42.2066,-0.1424,-0.0651,-0.0923,150.4164
17:11:25:718,0.9423,1.0332,7.4352,42.4751,0.3435,-0.3101,-0.0408,150.4164
17:11:25:738,1.1556,0.7882,6.0581,42.7369,0.5109,-0.4045,-0.0559,150.4164
17:11:25:758,1.1007,0.8599,5.6643,42.8546,0.249,-0.2754,-0.1719,150.4164
17:11:25:778,0.911,0.7994,6.2804,42.8882,-0.1241,-0.1609,-0.4236,150.4164
17:11:25:798,0.1399,0.5547,7.7027,43.3189,-0.3568,-0.0353,-0.5234,150.4164
17:11:25:818,-0.4048,0.621,9.5056,43.5209,-0.1783,0.0907,-0.3475,150.4164
17:11:25:839,-0.2874,0.8317,9.9664,43.6702,0.2309,0.12,-0.1591,150.4164
17:11:25:858,0.0351,1.0684,9.2773,43.7412,0.4142,0.0105,-0.1146,150.4164
17:11:25:879,-0.0212,1.4096,9.1028,44.0178,0.3107,-0.0942,-0.1502,150.5094
17:11:25:898,-0.2128,1.5286,9.5942,43.9991,0.0986,-0.188,-0.2595,150.605
17:11:25:918,-0.5415,1.2494,10.878,44.3539,-0.1474,-0.1465,-0.3512,150.7076
17:11:25:940,-0.6515,0.4736,12.5356,44.7586,-0.251,-0.0086,-0.2533,150.819
17:11:25:959,-0.4256,0.3837,13.6779,45.0545,-0.2502,0.2047,0.0127,150.9341
17:11:25:978,0.1535,0.6485,14.2408,45.569,-0.2478,0.5245,0.2306,151.0434
17:11:25:998,0.2466,0.9774,14.2094,45.8931,-0.2534,0.5682,0.3189,151.1407
17:11:26:018,0.6682,-0.3985,15.0299,46.0878,-0.145,0.3992,0.1958,151.1407
17:11:26:040,-0.8486,-2.219,14.6944,46.5687,0.4671,-0.1223,0.0834,151.1407
17:11:26:058,-1.6758,-3.1143,12.4748,46.9321,1.0239,-0.617,0.382,151.1407
17:11:26:078,-0.963,-3.0421,10.3585,47.4192,1.0285,-0.7406,0.7797,151.1407
17:11:26:098,0.2741,-2.2167,9.0336,47.7246,0.6589,-0.6681,0.7723,151.1407
17:11:26:118,0.6488,-1.3465,8.5657,48.2136,0.2158,-0.3427,0.445,151.1407
17:11:26:139,0.0639,-0.9311,7.988,48.3424,-0.086,0.0062,0.1862,151.1407
17:11:26:158,-0.4686,-0.5856,7.5882,48.4648,-0.2232,0.1987,0.1188,151.1407
17:11:26:178,-0.4891,-0.4636,7.1283,48.9648,-0.2318,0.1431,0.1458,151.1407
17:11:26:199,-0.529,-0.2816,7.174,49.3303,-0.1838,-0.0637,0.2211,151.1407
17:11:26:218,-0.6336,-0.108,7.5224,49.6542,0.0503,-0.2786,0.3663,151.1407
17:11:26:238,-0.4269,0.0149,7.2465,49.7489,0.3776,-0.2831,0.5345,151.1407
17:11:26:258,0.1318,0.2393,6.2501,50.0137,0.5159,-0.109,0.621,151.1407
17:11:26:277,0.7213,0.6063,5.4975,50.3214,0.4131,0.0689,0.5068,151.1407
17:11:26:298,0.8423,0.8376,5.3507,51.0779,0.1418,0.1438,0.2596,151.0367
17:11:26:320,0.334,0.857,6.1988,51.4178,-0.1069,0.0758,0.0095,150.9289
17:11:26:338,-0.5382,0.5609,7.6153,51.5161,-0.2365,-0.1633,-0.1083,150.8251
17:11:26:359,-0.9314,0.2256,9.1004,51.6197,-0.1609,-0.4581,-0.057,150.728
17:11:26:377,-0.7012,-0.1499,10.0934,51.8083,-0.0079,-0.5819,0.1236,150.6347
17:11:26:398,0.1056,-0.2873,10.4215,52.0614,0.1021,-0.3834,0.2299,150.5389
17:11:26:419,0.813,-0.175,10.2691,52.477,-0.0097,-0.1284,0.1444,150.4384
17:11:26:438,1.5026,-0.7731,10.2693,53.3058,-0.3663,0.0793,-0.2473,150.339
17:11:26:458,0.9434,-1.5874,11.4719,53.9152,-0.8624,0.2806,-0.6613,150.339
17:11:26:477,0.7851,-2.4344,13.0242,54.4072,-1.0323,0.6339,-0.7576,150.339
17:11:26:498,1.1972,-2.9221,13.0521,54.6971,-0.8803,0.8996,-0.7511,150.339
17:11:26:518,0.8079,-2.7527,12.4618,55.15,-0.8691,0.6641,-0.9183,150.339
17:11:26:538,0.1198,-2.4216,13.522,55.3839,-0.9802,0.2442,-0.9632,150.339
17:11:26:558,-0.1178,-2.6205,14.9618,55.4581,-0.7521,0.0303,-0.761,150.339
17:11:26:601,0.6658,-2.6025,15.0276,56.0239,-0.2634,-0.0929,-0.3999,150.4301
17:11:26:603,1.58,-1.9897,13.3798,56.2081,0.281,-0.14,-0.0256,150.5301
17:11:26:619,2.3035,-1.0946,10.7539,55.8888,0.3398,0.0345,0.1852,150.6252
17:11:26:638,2.2173,-0.2371,9.0084,55.9166,0.3163,0.1548,0.0551,150.6252
17:11:26:658,1.5492,-0.0261,7.3857,55.7033,0.0318,0.216,-0.2135,150.6252
17:11:26:678,0.7801,-0.1541,6.9738,55.1337,-0.1485,0.1251,-0.4323,150.7202
17:11:26:700,-0.1369,-0.3457,6.8799,55.2411,-0.2395,-0.0186,-0.4512,150.8281
17:11:26:718,-0.9627,-0.3463,7.4287,55.2407,-0.1305,-0.1321,-0.2996,150.9476
17:11:26:738,-0.7902,-0.5594,7.4758,55.0937,0.2207,-0.1295,-0.031,151.0718
17:11:26:758,0.4527,-0.8446,6.6411,54.7221,0.3988,-0.053,0.1585,151.1911
17:11:26:778,1.6629,-0.3238,6.0695,54.6809,0.2518,0.0295,0.1958,151.3004
17:11:26:801,2.2458,0.3973,6.7266,54.4048,0.0159,0.0698,0.0244,151.4003
17:11:26:818,2.1728,0.529,7.638,54.0634,-0.0678,-0.0764,-0.2069,151.4979
17:11:26:838,1.642,0.0776,8.4357,54.1288,-0.0462,-0.2094,-0.4135,151.6023
17:11:26:858,1.3371,-0.4431,9.2619,54.1996,-0.0001,-0.3684,-0.3234,151.7189
17:11:26:878,1.3524,-0.0736,10.3116,54.2302,-0.0042,-0.4329,-0.1315,151.8404
17:11:26:899,1.4547,0.7268,11.3342,54.2146,0.1055,-0.3543,-0.073,151.9618
17:11:26:918,1.1679,1.2553,11.6738,54.1249,0.3258,-0.2695,-0.2257,152.0828
17:11:26:938,0.6612,1.1456,11.2602,53.9947,0.456,-0.183,-0.4071,152.209
17:11:26:958,0.5734,0.4063,11.0117,54.1344,0.3714,-0.0931,-0.5032,152.3466
17:11:26:978,0.1211,-0.1518,11.1476,53.6784,0.0625,0.0502,-0.5865,152.4957
17:11:26:999,-0.8739,-0.1418,12.1649,53.6508,-0.1807,0.3521,-0.5772,152.6606
17:11:27:018,-2.2355,-0.2205,12.3553,53.242,-0.1433,0.8528,-0.4025,152.8401
17:11:27:038,-3.1787,-0.3324,11.4518,53.0997,0.0014,1.0135,-0.1143,153.0257
17:11:27:058,-3.476,-0.7376,10.935,52.7658,0.0592,0.7134,0.1919,153.207
