Time,Acc_X,Acc_Y,Acc_Z,Meg,Gyr_X,Gyr_Y,Gyr_Z,Ore
17:03:53:160,0.5829,3.4242,9.0918,60.4923,-0.031,0.2124,-0.0178,174.699
17:03:53:178,0.3351,3.6442,9.1208,60.6016,-0.0885,0.0749,-0.0195,174.699
17:03:53:198,0.3748,3.4638,8.921,60.1728,-0.1517,0.0136,0.0009,174.699
17:03:53:218,0.4739,3.3819,8.9392,60.0181,-0.1812,-0.0087,0.0284,174.699
17:03:53:238,0.5726,3.3622,8.9964,59.7218,-0.186,0.0138,0.0417,174.699
17:03:53:257,0.5438,3.3579,9.0387,59.8843,-0.1739,0.0452,0.0505,174.699
17:03:53:279,0.5614,3.2797,9.0979,59.9778,-0.1626,0.0646,0.0491,174.699
17:03:53:298,0.463,3.2315,9.1796,60.0661,-0.1406,0.0584,0.0352,174.699
17:03:53:318,0.4066,3.2305,9.1422,60.3475,-0.0983,0.0308,0.0242,174.699
17:03:53:338,0.3568,3.3709,8.9932,60.3343,-0.0954,0.0214,0.039,174.699
17:03:53:358,0.4156,3.3694,8.9635,60.4273,-0.1304,0.036,0.0579,174.699
17:03:53:379,0.459,3.2874,9.0852,60.5174,-0.1552,0.0498,0.0685,174.699
17:03:53:401,0.4649,3.1656,9.1885,60.5791,-0.1505,0.0435,0.0601,174.699
17:03:53:418,0.4075,3.1691,9.1986,60.29,-0.1355,0.0421,0.0487,174.699
17:03:53:438,0.3674,3.1896,9.0698,59.9675,-0.1285,0.0562,0.0395,174.699
17:03:53:458,0.3653,3.1862,9.0527,60.0111,-0.1364,0.0727,0.0296,174.699
17:03:53:478,0.3279,3.1685,9.0535,60.1923,-0.1592,0.0602,0.0282,174.699
17:03:53:498,0.4512,3.1918,9.0657,60.3511,-0.1796,0.0349,0.0398,174.699
17:03:53:518,0.3309,2.9364,9.26,60.5524,-0.1948,0.0318,0.0217,174.699
17:03:53:538,0.2936,3.0964,9.2855,60.474,-0.1704,0.0218,0.021,174.699
17:03:53:560,0.3254,3.0108,9.2701,60.5982,-0.1347,0.0356,0.0299,174.699
17:03:53:580,0.323,2.9856,9.2219,60.3093,-0.1139,0.0167,0.0274,174.699
17:03:53:598,0.3213,3.0136,9.0523,60.0289,-0.13,0.0005,0.0221,174.699
17:03:53:618,0.354,2.9837,8.9997,60.3027,-0.1602,0.0226,0.0277,174.699
17:03:53:638,0.3788,2.9293,9.0538,60.1864,-0.1926,0.0442,0.0239,174.699
17:03:53:662,0.3555,2.844,9.2991,60.1893,-0.2176,0.0358,0.0143,174.699
17:03:53:678,0.2076,2.7965,9.4827,60.2008,-0.2059,-0.0228,0.0029,174.699
17:03:53:699,0.2009,2.8663,9.4651,60.413,-0.1832,-0.0625,0.0141,174.699
17:03:53:718,0.082,2.864,9.3103,60.4162,-0.1382,0.0032,0.0486,174.699
17:03:53:738,0.0939,2.9144,9.1759,60.3301,-0.126,0.0764,0.0745,174.699
17:03:53:759,0.0495,2.9023,9.2698,60.2988,-0.1477,0.0995,0.068,174.699
17:03:53:778,0.0505,2.8941,9.3298,60.2351,-0.169,0.0259,0.0507,174.699
17:03:53:798,0.1222,2.8031,9.3082,60.1728,-0.1704,-0.0296,0.0137,174.699
17:03:53:818,0.1756,2.7954,9.2979,60.0409,-0.1557,0.0018,-0.0148,174.699
17:03:53:837,0.1586,2.8206,9.3946,60.0272,-0.1385,0.0249,-0.0137,174.699
17:03:53:858,0.2227,2.7519,9.4607,60.0284,-0.1286,-0.0014,0.0103,174.699
17:03:53:878,0.3539,2.5922,9.4153,60.1109,-0.1227,-0.0376,0.0194,174.699
17:03:53:898,0.5229,2.4581,9.2625,60.2574,-0.1224,-0.0319,0.0042,174.699
17:03:53:918,0.5905,2.3487,9.252,60.4718,-0.1228,0.0236,-0.0257,174.699
17:03:53:942,0.6081,2.2717,9.2564,60.489,-0.1045,0.0979,-0.0617,174.699
17:03:53:958,0.4333,2.3834,9.2091,60.5919,-0.0723,0.1934,-0.0955,174.699
17:03:53:978,-0.1692,2.924,9.2119,60.6432,-0.0314,0.2588,-0.0347,174.699
17:03:53:998,-0.2216,2.8684,9.3789,60.5476,-0.0351,0.3236,0.052,174.699
17:03:54:018,0.0944,2.5325,10.2097,60.4644,-0.0114,0.1355,0.0489,174.699
17:03:54:039,0.7745,2.3884,9.9326,60.4837,0.0469,-0.2241,0.0265,174.699
17:03:54:058,1.4714,2.8785,9.0343,60.559,0.0265,0.0746,-0.1539,174.699
17:03:54:078,0.5309,3.174,8.2794,60.6946,0.05,0.5106,-0.138,174.699
17:03:54:098,0.1734,3.3273,7.8893,60.693,0.0673,0.8677,0.0598,174.699
17:03:54:118,0.5369,2.9469,8.0922,60.7393,-0.0619,0.8921,0.1942,174.699
17:03:54:138,1.044,2.2559,8.3651,60.5509,-0.2589,0.8639,0.1501,174.699
17:03:54:158,0.861,2.3633,8.8549,60.4071,-0.455,0.7723,-0.0516,174.699
17:03:54:177,0.1642,2.4546,9.4501,60.5632,-0.5675,0.4998,-0.1343,174.699
17:03:54:198,0.057,2.9522,9.4488,60.4446,-0.6962,0.4039,-0.0714,174.699
17:03:54:218,0.7162,3.6652,9.5927,60.3934,-0.7907,0.5034,-0.0601,174.699
17:03:54:237,0.9304,2.9655,9.6564,60.4777,-0.7478,0.5275,-0.1557,174.699
17:03:54:258,0.0959,2.6596,9.7188,60.6619,-0.3269,0.6836,-0.1596,174.699
17:03:54:277,-0.6287,1.917,9.3548,60.7584,0.0683,0.6946,-0.1845,174.699
17:03:54:298,-1.6725,3.1231,7.5681,60.8439,-0.3705,0.2498,-0.555,174.699
17:03:54:321,-1.9092,2.9622,8.0302,60.782,-0.6365,0.0537,-0.4019,174.699
17:03:54:338,-1.8343,1.9229,8.0987,60.9205,-0.8549,-0.168,-0.4384,174.699
17:03:54:358,-1.9387,1.3591,9.1819,60.8313,-1.0133,-0.1132,-0.3419,174.699
17:03:54:378,-0.7905,1.9605,10.2239,60.9146,-0.9891,0.0072,-0.2349,174.699
17:03:54:399,-0.3696,2.038,10.6507,60.8106,-0.8721,0.0536,-0.3129,174.699
17:03:54:421,-0.7752,2.0666,10.6218,60.457,-0.5893,-0.0051,-0.2949,174.699
17:03:54:438,-1.149,2.0655,10.3542,60.2283,-0.2885,0.0742,-0.1858,174.699
17:03:54:458,-1.2833,2.2944,9.7173,60.4257,-0.1283,0.0929,-0.0542,174.699
17:03:54:478,-1.0653,2.3022,9.1098,60.3368,-0.0511,0.1238,-0.0081,174.699
17:03:54:498,-0.7957,2.5975,8.6311,60.3421,-0.1155,0.0467,-0.0875,174.699
17:03:54:518,-1.2215,2.3495,8.6221,60.5833,-0.1571,-0.1997,-0.1264,174.699
17:03:54:538,-1.609,2.1045,9.1208,60.7209,-0.1788,-0.3241,-0.0482,174.699
17:03:54:558,-1.3363,2.2916,9.7948,60.4237,-0.2377,-0.5307,0.0274,174.699
17:03:54:578,-0.9616,2.5109,11.1154,60.4355,-0.273,-0.7618,0.0065,174.699
17:03:54:598,-1.0092,2.2165,12.1018,60.2274,-0.1473,-0.7628,-0.0169,174.699
17:03:54:618,-0.4906,2.1017,12.4392,60.2135,0.2284,-0.8168,0.0815,174.699
17:03:54:638,0.3654,2.5114,12.102,60.1762,0.825,-0.9274,0.1255,174.699
17:03:54:658,0.3374,2.1156,10.6324,59.9356,1.1578,-1.1965,0.161,174.699
17:03:54:677,-0.2381,2.3335,9.4171,59.8812,0.9988,-1.731,0.0855,174.699
17:03:54:701,-0.1826,2.0561,9.4799,59.7511,0.4998,-2.0984,0.1603,174.699
17:03:54:718,0.309,2.0775,11.0123,59.5912,0.0834,-1.8117,0.2432,174.699
17:03:54:738,2.002,1.8714,11.4578,59.3412,-0.1091,-0.6132,0.3749,174.699
17:03:54:758,1.9073,1.8406,11.2288,59.2102,-0.3523,0.4125,0.37,174.699
17:03:54:778,1.1279,1.3575,10.8712,58.9078,-0.4964,1.069,0.3699,174.699
17:03:54:800,0.3228,0.7602,10.865,58.754,-0.5667,1.3526,0.4282,174.699
17:03:54:818,-0.3308,0.4721,10.9383,58.4724,-0.4805,1.48,0.4929,174.699
17:03:54:838,-0.9611,0.4627,10.4965,58.7609,-0.3009,1.3522,0.537,174.699
17:03:54:857,-1.2141,0.3016,9.9155,58.9223,-0.1174,0.9164,0.5489,174.699
17:03:54:878,-1.2202,0.2867,9.596,58.9194,0.0717,0.2681,0.559,174.699
17:03:54:899,-0.9733,0.229,9.5606,58.6795,0.2757,-0.2634,0.5741,174.699
17:03:54:918,-0.7994,0.2921,9.523,58.5524,0.4379,-0.5861,0.5746,174.6069
17:03:54:939,-0.6544,0.3721,9.1608,58.4153,0.4792,-0.6266,0.5684,174.4974
17:03:54:958,-0.6508,0.5326,8.6676,58.1785,0.4015,-0.3801,0.5778,174.3717
17:03:54:978,-0.6694,0.3967,8.3415,58.1176,0.216,-0.0079,0.607,174.23
17:03:54:998,-0.4201,0.5458,8.3005,57.8599,-0.0394,0.4486,0.6279,174.0723
17:03:55:018,-0.0971,0.7359,8.3004,57.6667,-0.2479,0.8079,0.577,173.8988
17:03:55:038,-0.2723,0.9937,8.0541,57.6221,-0.3442,0.9154,0.5109,173.7117
17:03:55:058,-0.6888,0.8941,7.8045,57.5442,-0.3291,0.6622,0.5171,173.5119
17:03:55:082,-0.7891,0.9701,7.7201,57.5132,-0.2161,0.1823,0.5174,173.2991
17:03:55:099,-0.779,1.0837,7.7841,57.447,-0.0051,-0.1841,0.4995,173.0741
17:03:55:118,-0.7768,1.1372,7.6393,57.3922,0.1934,-0.3377,0.4515,172.8389
17:03:55:138,-0.9292,1.0248,7.4015,57.3595,0.2557,-0.3175,0.4337,172.5955
17:03:55:183,-0.6427,1.6035,7.3053,57.1314,0.067,-0.2847,0.4066,172.343
17:03:55:185,-0.2394,1.8677,7.9745,56.7649,-0.0636,-0.3289,0.35,172.0856
17:03:55:199,0.1076,1.8933,8.8968,56.3125,-0.1582,-0.4047,0.1784,171.825
17:03:55:217,0.315,2.0011,9.7436,56.3985,-0.2039,-0.2335,0.0584,171.568
17:03:55:238,0.4026,1.9613,10.6839,56.0226,-0.2625,-0.1331,0.0321,171.3175
17:03:55:258,1.0537,1.8605,11.6088,56.0688,-0.2352,-0.2403,-0.0196,171.0737
17:03:55:279,1.9963,1.4336,12.5252,55.8402,-0.194,-0.583,-0.2531,170.8389
17:03:55:298,2.2561,0.8212,13.3135,55.2555,-0.2097,-0.7575,-0.5662,170.6227
17:03:55:318,2.2158,0.1843,13.4788,55.1293,-0.0181,-0.5814,-0.7503,170.4352
17:03:55:338,1.8456,-0.0696,12.2627,54.9164,0.1718,-0.2636,-0.7209,170.2798
17:03:55:357,1.7918,0.3493,11.3065,54.8594,-0.1327,0.0513,-0.5969,170.1549
17:03:55:382,1.4475,0.6108,12.0806,54.8727,-0.645,0.587,-0.6111,170.0536
17:03:55:398,0.6173,-0.0129,13.2628,54.7896,-0.7905,1.1146,-0.7088,170.0536
17:03:55:418,-0.0709,-0.1121,13.5026,54.8451,-0.5461,1.3155,-0.7117,170.0536
17:03:55:438,0.272,-0.4772,11.9773,54.2716,-0.2382,0.9096,-0.599,170.0536
17:03:55:457,1.1489,-0.4656,10.7682,53.9037,0.0631,0.3902,-0.4218,170.0536
17:03:55:480,1.2507,-0.0836,9.7686,53.63,0.3528,0.0995,-0.276,170.0536
17:03:55:498,0.6472,0.1365,9.2548,53.0448,0.5002,0.1767,-0.2051,170.0536
17:03:55:518,0.0689,-0.1375,9.0104,52.9164,0.4205,0.3876,-0.1498,170.0536
17:03:55:538,-0.2284,-0.0253,8.6496,53.4074,0.1623,0.7145,-0.2966,170.0536
17:03:55:559,-1.0001,0.251,8.7017,53.0046,-0.0187,0.8196,-0.4371,170.0536
17:03:55:578,-1.2772,0.1983,8.7139,52.9425,0.1419,0.5703,-0.462,170.0536
17:03:55:598,-1.4299,0.0766,7.7441,52.9949,0.5601,0.0682,-0.3825,170.0536
17:03:55:618,-1.4122,0.4495,6.5522,52.4656,0.9285,-0.4854,-0.1414,170.0536
17:03:55:637,-1.0463,0.6461,5.7326,52.1529,0.9884,-0.926,0.0622,170.0536
17:03:55:660,-0.3592,1.0468,5.4426,51.9139,0.7496,-1.1152,0.1776,170.0536
17:03:55:678,-0.1525,1.1,5.6825,51.8713,0.2682,-0.3693,0.1914,170.0536
17:03:55:698,0.0181,1.0383,6.2602,51.749,-0.1441,0.2665,0.1869,170.0536
17:03:55:718,-0.27,1.2188,7.0736,51.7242,-0.3872,0.5428,0.1918,170.0536
17:03:55:737,-0.268,1.281,8.251,51.6071,-0.3964,0.5021,0.2933,170.0536
17:03:55:759,-0.2057,1.3954,9.4704,51.5279,-0.1743,0.2816,0.364,170.0536
17:03:55:778,-0.2329,1.6309,10.107,51.4569,0.1506,0.0293,0.4338,170.0536
17:03:55:799,-0.2523,1.9474,10.199,51.3387,0.3654,-0.0781,0.4876,170.0536
17:03:55:818,0.0419,2.2484,9.9905,51.0033,0.3242,-0.1049,0.4605,170.0536
17:03:55:837,0.4291,2.3039,10.0304,50.8908,0.0255,-0.1494,0.3237,170.0536
17:03:55:858,0.5362,2.0288,11.0459,50.5704,-0.4303,-0.1855,0.093,170.0536
17:03:55:877,-0.3661,1.6811,12.7541,50.2578,-0.6819,-0.0687,-0.0178,170.0536
17:03:55:898,-1.288,1.1515,14.0218,50.2577,-0.5224,-0.102,0.0717,170.0536
17:03:55:918,-1.5312,0.6858,14.2507,50.0564,-0.2844,-0.2808,0.1957,170.0536
17:03:55:940,-1.296,0.1957,14.3668,50.003,-0.1431,-0.3073,0.3306,170.0536
17:03:55:958,-1.0736,-0.3271,13.6631,49.9407,0.1544,-0.1442,0.4442,170.0536
17:03:55:977,-1.361,-0.1074,11.8416,49.9939,0.367,0.0256,0.5587,170.0536
17:03:55:998,-1.3042,0.1793,10.3079,49.9486,0.2998,-0.1928,0.5926,170.0536
17:03:56:018,-0.6157,0.3045,9.6252,50.2633,0.0831,-0.459,0.5239,169.9509
17:03:56:039,-0.0055,0.1177,9.7342,50.2064,-0.091,-0.523,0.378,169.8342
17:03:56:058,0.2342,0.0005,9.6309,50.2722,-0.0784,-0.3463,0.2454,169.7097
17:03:56:078,0.0884,0.1066,8.7657,50.0189,-0.0012,-0.0268,0.1628,169.582
17:03:56:099,-0.1823,0.2283,7.3889,49.737,0.0593,0.1342,0.0957,169.4536
17:03:56:118,-0.3883,0.1631,6.3496,49.4988,-0.0972,0.0481,0.035,169.3261
17:03:56:140,-0.5294,0.1597,6.6879,49.574,-0.3331,-0.1208,0.0329,169.201
17:03:56:158,-0.6795,0.2208,7.786,49.7342,-0.2985,-0.3231,0.1048,169.0777
17:03:56:178,-0.4217,-0.0202,7.8278,49.8879,-0.0084,-0.3589,0.1601,168.9543
17:03:56:198,-0.1967,0.1771,7.2038,49.7206,0.2848,-0.0742,0.2382,168.829
17:03:56:218,-0.718,1.0629,6.3341,49.8802,0.3265,0.0782,0.3218,168.6985
17:03:56:238,-0.601,1.334,6.1109,49.87,0.0762,-0.2381,0.3427,168.5591
17:03:56:258,0.0452,0.9495,6.2959,49.9767,-0.2535,-0.3864,0.1561,168.4129
17:03:56:277,0.1712,0.9364,7.6454,50.1417,-0.5984,-0.2046,-0.0735,168.2689
17:03:56:298,0.1203,0.7699,9.1636,50.0833,-0.6469,0.1597,-0.2067,168.1349
17:03:56:318,-0.4458,0.9194,10.4339,50.2204,-0.506,0.2408,-0.3034,168.0143
17:03:56:339,-0.9432,0.5369,11.2777,50.3912,-0.3573,-0.2372,-0.3088,167.9079
17:03:56:358,-0.9487,-0.1184,11.9213,50.3522,-0.151,-0.5973,-0.234,167.8148
17:03:56:378,-0.6761,-0.1944,11.801,50.3341,-0.0037,-0.5309,-0.1297,167.8148
17:03:56:398,-0.466,0.056,11.3802,50.3637,-0.1485,-0.2272,-0.036,167.8148
17:03:56:418,0.0186,-0.1158,11.1154,50.4397,-0.5193,0.1874,0.0607,167.8148
17:03:56:438,1.1191,-0.4586,11.3141,50.6135,-0.8577,0.483,0.0767,167.8148
17:03:56:458,1.7341,-0.941,12.0297,50.952,-1.0668,0.2799,-0.1622,167.8148
17:03:56:478,1.478,-1.5206,12.9925,51.0044,-1.2011,0.1558,-0.5062,167.8148
17:03:56:498,0.8143,-2.2087,13.5229,51.1365,-1.053,0.1295,-0.6177,167.8148
17:03:56:519,0.7761,-2.369,12.5586,51.1081,-0.6028,0.0949,-0.4674,167.8148
17:03:56:538,0.7405,-2.1487,12.0042,50.8969,-0.3903,0.3264,-0.2057,167.8148
17:03:56:558,0.7589,-1.7046,10.9558,50.9767,-0.0565,0.1827,-0.0236,167.8148
17:03:56:578,1.1509,-0.9768,9.4123,50.9762,0.0552,0.2985,0.0929,167.8148
17:03:56:598,1.2713,-0.3284,8.7281,51.0155,-0.0759,0.1621,0.0087,167.8148
17:03:56:618,1.0613,-0.2829,8.8606,51.3223,-0.3348,-0.0201,-0.2377,167.8148
17:03:56:638,0.5413,-0.6381,10.1077,51.2545,-0.3905,-0.1676,-0.3362,167.8148
17:03:56:658,-0.0823,-0.6765,10.3911,51.7561,-0.1101,0.1106,-0.2257,167.8148
17:03:56:678,-0.4866,-0.3339,9.6554,51.8499,0.2798,0.3667,-0.0479,167.8148
17:03:56:700,-0.45,-0.0903,8.0959,51.7552,0.6432,0.3548,0.1004,167.8148
17:03:56:718,-0.3274,-0.0915,6.6117,51.7465,0.7364,0.1643,0.2263,167.8148
17:03:56:738,0.2446,0.4379,6.1342,51.6031,0.5795,-0.1175,0.29,167.8148
17:03:56:757,0.891,0.5553,6.6776,51.5563,0.4192,-0.3482,0.2342,167.8148
17:03:56:778,1.4013,0.856,8.3744,51.8203,0.2516,-0.6987,0.0479,167.8148
17:03:56:799,1.7868,1.0606,10.461,51.829,0.2652,-0.755,-0.1555,167.8148
17:03:56:818,1.8112,1.2672,11.712,51.667,0.5174,-0.4648,-0.2505,167.8148
17:03:56:838,1.4982,1.2486,12.1512,51.8524,0.8727,-0.0639,-0.219,167.8148
17:03:56:857,1.0435,1.2242,11.3275,51.9763,1.0404,0.3735,-0.1159,167.8148
17:03:56:878,0.8529,1.5562,10.5666,51.9482,0.8401,0.5923,-0.0353,167.8148
17:03:56:899,0.6897,1.6401,10.54,52.0115,0.535,0.6052,-0.0876,167.8148
17:03:56:918,0.2173,1.2546,11.2161,51.9311,0.2807,0.3305,-0.2197,167.8148
17:03:56:938,-0.4307,0.3668,12.8182,52.118,0.1586,-0.1924,-0.2893,167.8148
17:03:56:957,-1.1102,0.1631,13.4617,52.1123,0.4043,-0.2334,-0.1016,167.8148
17:03:56:978,-1.2222,0.4368,12.6447,52.0325,0.7953,0.11,0.2716,167.8148
17:03:56:998,-0.711,0.6705,11.3826,52.2426,0.7842,0.2394,0.4622,167.8148
17:03:57:018,-0.094,0.4089,10.5442,52.2794,0.5372,0.182,0.4126,167.8148
17:03:57:038,-0.2872,0.0476,10.1785,52.0823,0.2982,0.2329,0.2837,167.8148
17:03:57:058,-0.9611,-0.2854,10.0205,51.9736,0.2078,0.1169,0.2627,167.8148
17:03:57:078,-1.1969,-0.435,9.6999,51.7595,0.1815,-0.0129,0.3522,167.8148
17:03:57:098,-0.8424,-0.307,9.2743,51.6123,0.1214,-0.1756,0.4346,167.8148
17:03:57:118,0.0956,-0.3286,8.7244,51.4993,-0.012,-0.1738,0.3986,167.8148
17:03:57:138,0.5602,-0.1085,8.3302,51.3575,-0.1977,-0.0004,0.2654,167.8148
17:03:57:158,0.6373,0.0265,8.0098,51.2542,-0.2856,0.2262,0.1074,167.8148
17:03:57:185,0.425,0.0073,7.5496,51.19,-0.2456,0.3216,-0.0247,167.8148
17:03:57:198,0.1791,-0.0471,7.1754,51.1085,-0.2,0.2275,-0.1499,167.8148
17:03:57:218,-0.3626,0.397,7.0396,51.0426,-0.0987,-0.0482,-0.1332,167.8148
17:03:57:238,-0.1803,0.2773,7.3671,51.1481,-0.0088,-0.3473,-0.0931,167.8148
17:03:57:258,0.1018,0.3382,7.5179,51.0812,0.1508,-0.3407,-0.0909,167.8148
17:03:57:279,0.2307,0.4462,7.1171,50.9612,0.275,-0.0392,-0.0823,167.8148
17:03:57:298,-0.0125,0.7394,6.5586,50.8772,0.2598,0.2266,-0.0618,167.8148
17:03:57:318,-0.469,1.1555,6.5193,50.6159,0.087,0.1869,-0.0506,167.8148
17:03:57:337,-0.6143,1.5556,7.2857,50.4161,-0.0593,-0.0023,0.0206,167.8148
17:03:57:358,-0.2876,1.6448,8.2827,50.2691,0.0143,-0.1671,0.0872,167.8148
17:03:57:378,-0.3025,1.8675,8.8483,50.431,0.2347,-0.2937,0.0877,167.8148
17:03:57:399,-0.3548,2.1234,9.127,50.1823,0.3344,-0.3691,0.0768,167.8148
17:03:57:418,-0.3091,2.3702,9.2391,50.1814,0.183,-0.3829,0.0131,167.8148
17:03:57:438,-0.5624,2.8334,9.6735,50.1263,-0.2254,-0.2778,-0.0929,167.8148
17:03:57:460,-0.5325,2.5459,10.7627,49.9551,-0.6148,-0.191,-0.2253,167.8148
17:03:57:478,-0.2212,1.1791,11.9532,49.8421,-0.7119,-0.2438,-0.2843,167.8148
17:03:57:498,0.0549,0.245,12.4595,49.7306,-0.5088,-0.2455,-0.1315,167.8148
17:03:57:518,1.358,-0.5253,11.8684,49.422,-0.1436,-0.3262,0.1951,167.8148
17:03:57:537,2.2367,-0.94,11.0214,49.3901,-0.0869,-0.5022,0.1967,167.8148
17:03:57:560,2.0776,-0.9685,11.2163,49.2497,-0.5163,-0.6162,-0.0233,167.8148
17:03:57:578,1.7338,-1.2896,12.3777,48.8061,-0.9242,-0.1707,-0.3295,167.8148
17:03:57:598,1.2722,-1.595,13.2473,48.8414,-0.8103,-0.1702,-0.5367,167.8148
17:03:57:618,1.7657,-2.1086,12.96,48.7844,-0.4506,-0.1308,-0.3551,167.8148
17:03:57:638,2.3808,-2.3976,12.2225,48.5397,0.1263,-0.0839,-0.2157,167.8148
17:03:57:659,1.8018,-0.9453,11.1691,48.4053,0.5855,-0.091,-0.0766,167.8148
17:03:57:678,1.5812,0.0424,9.4981,48.2381,0.6622,-0.292,0.1229,167.8148
17:03:57:698,1.6714,0.4754,7.9435,48.002,0.333,-0.371,0.0555,167.8148
17:03:57:718,1.4756,0.7058,7.4146,47.5519,-0.1759,-0.4224,-0.1394,167.8148
17:03:57:738,1.262,0.6998,7.8174,47.2279,-0.5532,-0.1453,-0.2555,167.8148
17:03:57:758,0.8438,0.6387,8.1481,46.8523,-0.5644,0.2672,-0.3072,167.8148
17:03:57:778,0.2503,0.7042,7.7375,46.6173,-0.3513,0.6047,-0.2028,167.8148
17:03:57:799,-0.0574,0.729,7.2106,46.2435,-0.1482,0.6352,0.0187,167.8148
17:03:57:818,0.0601,0.8422,7.0469,46.1017,-0.0367,0.3907,0.187,167.8148
17:03:57:839,0.3763,1.0346,7.2776,46.0988,-0.0019,0.1171,0.2178,167.8148
17:03:57:858,0.8001,1.0591,7.9601,45.8197,0.0392,-0.0913,0.1393,167.8148
17:03:57:879,1.1892,1.0053,8.6593,45.9243,0.1296,-0.134,0.0258,167.8148
17:03:57:898,1.1323,0.9483,8.6083,45.5235,0.1618,0.0712,-0.0235,167.8148
17:03:57:918,0.9441,1.1722,8.2838,45.1833,0.0035,0.3272,0.0801,167.8148
17:03:57:940,0.9698,1.2584,8.5266,44.9918,-0.2713,0.4459,0.1696,167.8148
17:03:57:958,0.8697,1.5358,9.6452,44.7885,-0.4787,0.332,0.1913,167.8148
17:03:57:978,0.7301,1.82,11.1334,44.717,-0.4178,0.149,0.2305,167.8148
17:03:57:998,0.8833,1.7841,12.3029,44.4233,-0.1133,0.0076,0.2803,167.8148
17:03:58:018,1.1554,1.4782,12.3733,44.3254,0.2059,-0.0358,0.3164,167.8148
17:03:58:040,1.2138,0.9529,12.0385,43.871,0.269,-0.057,0.2672,167.8148
17:03:58:058,0.6316,0.7794,11.9232,43.4505,0.0912,0.0764,0.2118,167.8148
17:03:58:078,0.2858,0.2506,12.0902,43.0967,-0.279,0.2403,0.1689,167.8148
17:03:58:098,-0.3591,0.3133,13.3593,43.0183,-0.5335,0.1581,0.2267,167.8148
17:03:58:118,0.2883,0.1435,14.262,42.7057,-0.3499,0.2531,0.3781,167.8148
17:03:58:140,-0.2981,-0.4185,13.8061,42.6522,0.2042,0.1822,0.2466,167.8148
17:03:58:158,-1.3835,-1.0439,11.6755,42.3435,0.7025,-0.1887,0.2039,167.8148
17:03:58:178,-1.8188,-1.1095,9.7819,42.1354,0.7176,-0.5305,0.4329,167.8148
17:03:58:198,-1.1575,-0.6344,9.1758,42.0548,0.3737,-0.7013,0.6681,167.7078
17:03:58:217,0.1776,-0.2428,9.6407,42.1154,0.0534,-0.5173,0.677,167.5798
17:03:58:238,0.8151,-0.1784,9.7935,42.2129,-0.039,-0.1175,0.449,167.4345
17:03:58:258,0.1522,0.2007,8.9428,42.2291,0.0001,0.2393,0.2847,167.2797
17:03:58:278,-0.0269,-0.1791,7.8425,42.0289,0.0889,0.3567,0.2405,167.1214
17:03:58:298,-0.3753,-0.1644,6.9338,41.9931,0.156,0.2432,0.2835,166.959
17:03:58:321,-0.4964,-0.0718,6.6497,41.805,0.1407,-0.0681,0.3693,166.79
17:03:58:338,-0.5781,0.2148,7.2203,41.8617,0.2211,-0.2994,0.4192,166.6123
17:03:58:359,-0.6208,0.3637,7.8404,41.8924,0.5006,-0.3315,0.49,166.4227
17:03:58:378,-0.0086,0.2042,7.7155,42.0522,0.831,-0.2401,0.4977,166.2217
17:03:58:398,0.3987,0.1734,6.5008,41.9316,0.8713,-0.0625,0.4777,166.0072
17:03:58:419,0.2311,0.3925,5.7486,42.0147,0.4787,0.077,0.4033,165.7809
17:03:58:438,-0.0089,0.5884,6.2766,41.7868,-0.0439,0.1562,0.3974,165.5465
17:03:58:458,0.1203,0.579,7.958,41.7538,-0.3366,0.0708,0.3501,165.3048
17:03:58:478,0.2054,0.5686,10.1614,41.0891,-0.3017,-0.2093,0.3041,165.0604
17:03:58:498,0.187,0.5992,11.6677,41.2503,-0.032,-0.3979,0.2668,164.8138
17:03:58:519,0.2611,0.5068,11.6143,41.2577,0.2302,-0.3776,0.2005,164.5656
17:03:58:538,-0.0388,0.9079,10.5512,41.0428,0.1493,-0.1965,0.1724,164.3178
17:03:58:558,0.0345,0.7144,10.2269,41.1868,-0.2431,-0.031,0.0814,164.0717
17:03:58:578,0.1627,0.5562,10.9058,41.2912,-0.5591,0.0934,0.033,163.8325
17:03:58:599,1.3016,-0.0873,11.9157,41.2296,-0.6014,0.0911,-0.0041,163.6019
17:03:58:618,2.023,-0.3459,12.7724,41.0177,-0.5435,-0.1552,-0.1507,163.3813
17:03:58:638,2.3541,-0.3684,13.8728,41.08,-0.5485,-0.2405,-0.3883,163.1764
17:03:58:658,2.2118,-0.4119,14.3329,40.9071,-0.3937,0.0535,-0.6074,162.9977
17:03:58:679,2.1126,-1.0429,13.8003,40.8354,-0.2424,0.5231,-0.6245,162.8456
17:03:58:700,2.4419,-1.5432,12.1824,40.9675,-0.1309,0.8875,-0.5231,162.72
17:03:58:718,2.3411,-1.3907,10.3744,40.936,-0.1428,0.9438,-0.397,162.6154
17:03:58:739,1.8169,-0.7466,9.1893,40.9543,-0.1966,0.6658,-0.3516,162.6154
17:03:58:758,1.2152,-0.2091,8.4712,41.1359,-0.268,0.1109,-0.3812,162.6154
17:03:58:777,0.6613,0.2329,8.2949,40.8633,-0.3247,-0.2063,-0.3899,162.6154
17:03:58:799,0.153,0.344,8.1246,40.7706,-0.2508,-0.138,-0.3504,162.6154
17:03:58:818,-0.3762,0.522,7.4871,40.5701,-0.0644,0.1152,-0.245,162.6154
17:03:58:839,-0.4555,0.489,6.5447,40.3869,0.0872,0.2964,-0.1154,162.6154
17:03:58:858,-0.278,0.3475,6.047,40.1352,0.103,0.2303,0.0097,162.6154
17:03:58:878,0.3574,0.3419,6.4285,39.9995,0.0753,-0.1309,0.0815,162.6154
17:03:58:899,0.6522,0.5531,7.4423,39.9553,0.0935,-0.595,0.0483,162.6154
17:03:58:918,0.5183,0.684,8.6783,39.777,0.1942,-0.8783,0.0016,162.6154
17:03:58:938,0.5354,0.4643,9.4633,39.5191,0.3469,-0.8422,0.0343,162.6154
17:03:58:958,0.6289,0.3391,9.6764,39.1899,0.3642,-0.4985,0.1721,162.6154
17:03:58:978,0.973,0.3653,10.0572,39.0753,0.2437,0.1358,0.379,162.6154
17:03:58:998,1.2563,0.832,10.0937,38.5808,0.1227,0.8047,0.5321,162.6154
17:03:59:018,1.2486,1.4151,9.6123,38.589,-0.076,1.0502,0.4232,162.6154
17:03:59:038,0.8254,1.7353,9.9019,38.5911,-0.2349,0.7145,0.218,162.5248
17:03:59:058,0.6056,1.4955,10.7911,38.3333,-0.1804,0.1203,0.0914,162.4304
17:03:59:080,0.4992,1.2344,11.2516,38.3625,-0.0451,-0.2049,0.0623,162.336
17:03:59:098,0.2547,0.9551,11.2843,38.438,0.0243,-0.1536,0.0666,162.2424
17:03:59:118,0.2478,0.2417,10.8364,38.0773,-0.1613,-0.0213,-0.0054,162.1497
17:03:59:137,-0.1037,-0.6541,11.6601,37.9766,-0.7114,0.0996,-0.137,162.1497
17:03:59:158,-0.9421,-1.3603,13.8958,37.8378,-0.8148,0.0417,-0.1111,162.1497
17:03:59:180,-1.4614,-1.914,14.7803,37.773,-0.3529,-0.1157,0.059,162.1497
17:03:59:214,-1.5731,-2.0934,13.7306,37.9321,0.2096,-0.3268,0.3151,162.1497
17:03:59:224,-1.1583,-1.6336,11.7042,37.8532,0.424,-0.338,0.5518,162.0554
17:03:59:238,-0.2508,-1.0309,10.1153,38.2762,0.3638,-0.1903,0.6295,161.9427
17:03:59:257,0.511,-0.7045,8.8636,38.4383,0.1545,-0.1152,0.5361,161.8115
17:03:59:278,0.7415,-0.436,8.6847,38.7644,-0.1024,-0.181,0.3579,161.6669
17:03:59:298,0.3095,-0.1632,9.1279,38.9235,-0.1831,-0.1642,0.2623,161.516
17:03:59:318,-0.0732,0.0424,9.2409,39.2615,0.0271,-0.0705,0.2841,161.3613
17:03:59:338,-0.1696,0.2072,8.8422,39.3857,0.4067,0.0497,0.3897,161.2005
17:03:59:358,0.1722,0.2641,7.6248,39.9125,0.7613,0.1969,0.4943,161.0289
17:03:59:377,0.5338,0.3551,6.0644,40.4129,0.827,0.22,0.466,160.8433
17:03:59:398,0.6166,0.4957,5.2567,40.7878,0.5931,0.242,0.3616,160.6459
17:03:59:418,0.4243,0.6253,5.529,41.1587,0.2807,0.2103,0.2428,160.4415
17:03:59:438,0.135,0.6657,6.5789,41.6763,0.0627,-0.0024,0.1281,160.235
17:03:59:459,-0.2651,0.7263,8.1644,42.0453,0.0235,-0.2805,0.0579,160.0305
17:03:59:479,-0.2718,0.5443,9.7344,42.3618,0.2527,-0.4693,0.0776,159.8297
17:03:59:499,0.2007,0.1919,9.9307,42.8445,0.4636,-0.3944,0.104,159.6311
17:03:59:518,0.8116,-0.035,9.3795,43.1948,0.3383,-0.1718,0.0583,159.4341
17:03:59:538,1.3592,-0.2246,9.1395,43.4211,-0.0249,0.1397,-0.0656,159.2415
17:03:59:559,1.559,-0.4436,9.4899,43.9206,-0.4299,0.3966,-0.2353,159.059
17:03:59:578,1.1414,-0.4694,10.449,44.4802,-0.6931,0.5211,-0.4223,158.8936
17:03:59:598,1.4861,-1.1629,11.6618,45.021,-0.734,0.4773,-0.524,158.7502
17:03:59:618,2.0896,-1.7981,11.736,45.6897,-0.6931,0.3037,-0.6732,158.6315
17:03:59:638,2.217,-2.136,11.9496,46.4222,-1.0494,0.0227,-0.9924,158.6315
17:03:59:660,1.0861,-2.2991,14.2853,46.7491,-1.5213,-0.0018,-1.3408,158.6315
17:03:59:678,-0.007,-3.0675,16.9595,47.3526,-1.1284,0.1149,-1.2224,158.6315
17:03:59:698,-0.1562,-3.2545,15.853,47.6908,-0.2882,0.4529,-0.6892,158.6315
17:03:59:718,0.5287,-2.7016,12.4851,48.1609,0.2864,0.4895,-0.1819,158.6315
17:03:59:738,1.3771,-1.5889,9.3864,48.6271,0.364,0.3272,0.0358,158.6315
17:03:59:759,1.9851,-0.8189,7.6673,49.041,0.1145,0.1624,-0.0828,158.6315
17:03:59:778,1.8434,-0.5029,6.9677,49.546,-0.1892,0.0156,-0.288,158.6315
17:03:59:798,1.299,-0.1414,7.2187,50.0663,-0.4242,0.022,-0.4106,158.6315
17:03:59:818,0.5827,0.1226,7.5921,50.5613,-0.365,0.1205,-0.3885,158.723
17:03:59:838,0.0327,0.3588,7.8084,50.99,-0.0146,0.1729,-0.2206,158.8244
17:03:59:858,0.0613,0.2076,6.9157,51.3266,0.3716,0.1071,-0.0273,158.929
17:03:59:879,0.5132,0.3595,5.8419,51.974,0.4208,-0.1334,0.0326,159.0302
17:03:59:898,0.9576,0.4935,5.8685,52.5038,0.1901,-0.3711,-0.0717,159.1273
17:03:59:918,0.7405,0.7222,7.213,52.9218,-0.0501,-0.5591,-0.24,159.2253
17:03:59:939,0.2771,0.4863,9.2276,53.7069,-0.0079,-0.6182,-0.283,159.3295
17:03:59:958,0.1293,0.3167,10.6912,54.2728,0.3062,-0.4695,-0.1421,159.44
17:03:59:978,0.4906,0.3358,10.3418,54.4538,0.5663,-0.1406,0.0152,159.5495
17:03:59:998,1.002,0.6182,9.5056,54.9163,0.462,0.1642,0.0332,159.6533
17:04:00:018,1.2236,0.9373,9.4057,55.2788,0.1886,0.3398,-0.0656,159.7529
17:04:00:039,1.1026,1.0883,9.7711,55.5435,-0.0145,0.3639,-0.1752,159.8523
17:04:00:058,0.8661,1.0735,10.2926,56.1753,-0.1093,0.2427,-0.2248,159.9562
17:04:00:078,1.022,0.7789,11.1264,56.7051,-0.1327,0.07,-0.2085,160.0638
17:04:00:098,1.5565,0.5388,11.8234,57.2252,-0.2042,-0.0118,-0.2506,160.1755
17:04:00:118,1.1606,0.6633,12.883,57.808,-0.3875,0.1629,-0.3473,160.2939
17:04:00:138,0.5426,0.6744,13.6023,58.1797,-0.375,0.2419,-0.3381,160.4215
17:04:00:158,0.1974,0.0707,14.2294,58.4398,-0.3158,0.3153,-0.2733,160.5581
17:04:00:178,-0.4366,-0.8904,14.5072,58.6074,0.231,0.1564,-0.1117,160.698
17:04:00:198,-1.4384,-1.5736,13.0407,59.0457,0.8395,0.1319,0.1328,160.8355
17:04:00:220,-1.8404,-2.0955,10.0664,59.0853,1.1831,-0.063,0.4299,160.9611
17:04:00:238,-1.4043,-2.0974,7.8731,59.341,0.8041,-0.1178,0.78,161.0637
17:04:00:259,-0.3572,-1.6689,7.8549,59.794,0.2358,-0.4676,0.8978,161.0637
17:04:00:278,0.7303,-1.2139,9.197,59.7164,-0.1115,-0.7579,0.7965,161.0637
17:04:00:298,0.8208,-0.6829,10.0294,59.5754,-0.123,-0.8288,0.5512,161.0637
17:04:00:319,0.3277,-0.3774,10.033,59.4113,-0.0206,-0.5204,0.37,161.0637
17:04:00:338,-0.1999,-0.246,9.0938,59.5004,0.1158,-0.0687,0.3207,161.0637
17:04:00:358,-0.3243,-0.1197,7.7157,59.3139,0.1799,0.237,0.3657,161.0637
17:04:00:378,0.0389,0.0374,6.7153,59.3801,0.2306,0.1432,0.3795,161.0637
17:04:00:398,0.5925,0.3302,6.1447,59.4716,0.2954,-0.283,0.2915,161.0637
17:04:00:418,0.428,0.6075,6.031,59.8133,0.3416,-0.7091,0.1359,161.0637
17:04:00:438,0.0709,0.5562,6.7051,60.1029,0.4135,-0.8853,0.0659,161.0637
17:04:00:459,0.3378,0.353,6.9348,60.3382,0.472,-0.5861,0.0887,161.0637
17:04:00:478,0.8109,0.4476,6.6569,60.3881,0.2088,-0.0082,0.0646,161.0637
17:04:00:498,0.8331,0.7975,7.5275,60.3829,-0.1942,0.4361,-0.0535,161.0637
17:04:00:518,0.1478,0.7308,9.8868,60.5926,-0.2395,0.3892,-0.1343,161.0637
17:04:00:538,-0.3866,0.3152,11.446,60.6966,0.1188,0.0512,-0.0121,161.0637
17:04:00:558,-0.3872,0.1654,11.4338,60.84,0.5244,-0.0997,0.2706,161.0637
17:04:00:578,0.2669,0.3409,10.2799,60.9132,0.5569,0.0986,0.4697,161.0637
17:04:00:598,0.9089,0.4041,9.4774,60.7645,0.1249,0.3209,0.3869,160.9615
17:04:00:618,0.8411,-0.0237,10.1807,60.4729,-0.4157,0.3394,0.1598,160.8509
17:04:00:637,0.8659,-0.9238,11.6295,60.3924,-0.781,0.2723,0.0544,160.7409
17:04:00:658,1.4626,-1.5533,12.7375,60.5278,-0.9711,0.2461,0.0657,160.6347
17:04:00:678,1.9274,-1.6717,13.419,60.4632,-1.1237,0.2072,-0.0149,160.5326
17:04:00:698,1.4195,-1.365,14.2965,60.6415,-1.075,0.0516,-0.1811,160.4387
17:04:00:718,0.7964,-1.2723,15.0258,60.7128,-0.7136,0.1579,-0.1495,160.4387
17:04:00:738,0.9808,-1.5828,14.3019,60.7329,-0.0338,0.2677,0.0401,160.4387
17:04:00:757,1.8983,-1.4459,11.5678,60.8615,0.5109,0.1191,0.2447,160.4387
17:04:00:778,2.5561,-1.0353,9.365,60.953,0.4544,-0.0263,0.2788,160.3484
17:04:00:802,2.6459,-0.2266,8.5245,60.9312,0.2067,-0.1903,0.0753,160.2515
17:04:00:818,2.5115,0.0087,8.2449,60.8766,-0.0748,-0.1223,-0.1954,160.1568
17:04:00:838,2.1367,0.05,8.1548,60.7288,-0.3088,0.0565,-0.4692,160.1568
17:04:00:857,1.3158,-0.1109,8.4079,60.7103,-0.4156,0.2542,-0.6277,160.1568
17:04:00:877,0.4794,-0.1522,8.543,60.5749,-0.2612,0.4466,-0.5805,160.1568
17:04:00:898,-0.0089,-0.0588,7.9344,60.5284,0.031,0.551,-0.4044,160.1568
17:04:00:918,-0.0745,0.181,6.604,60.8345,0.2618,0.5329,-0.2351,160.1568
17:04:00:938,0.195,0.3584,5.4447,60.7211,0.2607,0.4412,-0.1544,160.1568
17:04:00:958,0.2747,0.6083,5.1292,60.8315,0.1203,0.2179,-0.1592,160.1568
17:04:00:979,0.2387,0.7079,5.6362,60.9606,-0.0018,-0.1264,-0.1828,160.1568
17:04:00:999,0.3627,0.6888,6.6381,60.7031,-0.0053,-0.4054,-0.1234,160.1568
17:04:01:018,0.7227,0.8401,7.2727,60.417,-0.0034,-0.5253,-0.0088,160.1568
17:04:01:038,1.684,0.943,7.9794,60.3177,-0.0942,-0.6025,0.0711,160.1568
17:04:01:058,2.4424,1.2802,9.085,60.4342,-0.2809,-0.6382,0.0163,160.1568
17:04:01:080,2.4347,1.5221,10.9753,60.4892,-0.3765,-0.6314,-0.1574,160.1568
17:04:01:099,1.9128,1.4594,13.5532,60.1745,-0.122,-0.5763,-0.2586,160.1568
17:04:01:118,1.9153,0.9317,14.444,60.2312,0.3697,-0.316,-0.2439,160.1568
17:04:01:138,1.8769,0.6491,13.3582,59.9762,0.5304,0.1415,-0.2623,160.1568
17:04:01:157,1.7562,0.055,12.6161,60.1836,0.2747,0.4649,-0.4149,160.1568
17:04:01:179,0.6227,-0.2946,13.1737,60.2423,-0.0276,0.6373,-0.4517,160.1568
17:04:01:228,-0.4472,-0.0107,14.1381,60.4189,0.1806,0.9058,-0.1294,160.1568
17:04:01:230,-0.5699,0.4493,12.6847,60.3471,0.8115,1.2013,0.3392,160.1568
17:04:01:238,0.0504,0.5744,9.2062,60.35,1.2004,1.27,0.7102,160.1568
17:04:01:258,0.8372,1.0895,6.2357,60.0643,0.9993,0.9658,0.6913,160.1568
17:04:01:278,0.9525,0.765,5.0872,59.8869,0.3313,0.5801,0.2435,160.1568
17:04:01:298,-0.3386,0.2186,6.0928,59.8229,-0.3117,-0.1195,-0.3306,160.1568
17:04:01:318,-1.3997,-0.7003,8.3612,59.8134,-0.7329,-0.8037,-0.519,160.1568
17:04:01:338,-1.3485,-1.6391,11.2881,59.9605,-0.8834,-1.2109,-0.3526,160.1568
17:04:01:357,-0.9761,-1.3619,14.073,60.0358,-0.7369,-1.367,-0.0566,160.1568
17:04:01:378,-0.1519,-0.7924,15.1052,59.8667,-0.2589,-0.9195,0.1792,160.1568
17:04:01:398,0.2217,-0.1347,13.3996,59.7689,0.1696,-0.2042,0.2251,160.1568
17:04:01:418,0.3001,0.0719,10.7222,59.5097,0.3125,0.4446,0.222,160.1568
17:04:01:438,0.2119,0.224,8.3793,59.2342,0.3627,0.7562,0.2796,160.1568
17:04:01:458,0.2565,0.2321,6.5491,59.2127,0.4042,0.6071,0.3569,160.1568
17:04:01:478,0.3672,0.4081,5.4574,59.204,0.3061,0.1392,0.3823,160.1568
17:04:01:498,0.5458,0.6096,5.6297,59.1857,0.1547,-0.327,0.3096,160.1568
17:04:01:518,0.1404,0.9642,6.7886,59.0585,0.0822,-0.6345,0.1752,160.1568
17:04:01:538,0.0589,0.6997,7.9795,58.883,0.236,-0.6944,0.0762,160.1568
17:04:01:559,-0.1583,0.2973,8.0561,58.8633,0.416,-0.3298,0.0772,160.1568
17:04:01:578,-0.3832,0.288,7.1934,58.6937,0.3217,0.2203,0.1652,160.1568
17:04:01:598,-0.2971,0.3866,6.7126,58.3401,-0.0335,0.473,0.1697,160.1568
17:04:01:618,-0.0053,0.301,7.7424,58.3232,-0.4249,0.3331,0.103,160.1568
17:04:01:638,0.1168,-0.0763,9.6273,58.2147,-0.5008,-0.0581,0.0312,160.1568
17:04:01:660,0.1128,-0.657,10.6834,58.0223,-0.333,-0.3641,0.0651,160.1568
17:04:01:678,0.3059,-0.9527,10.9738,58.1382,-0.2465,-0.4462,0.1618,160.1568
17:04:01:698,1.2225,-1.1577,11.1467,58.1326,-0.434,-0.2691,0.1065,160.1568
17:04:01:721,2.1651,-1.6485,11.6525,57.926,-0.9295,-0.0206,-0.217,160.1568
17:04:01:737,1.9194,-2.0864,13.8574,57.7317,-1.5948,0.1324,-0.723,160.1568
17:04:01:758,0.2866,-2.6852,18.1992,57.3596,-1.5285,0.2345,-0.9511,160.1568
17:04:01:778,-0.3939,-3.7608,19.4977,57.5243,-0.3553,0.2313,-0.6274,160.1568
17:04:01:798,0.4867,-4.2729,16.0241,57.3985,0.878,0.2864,-0.0006,160.1568
17:04:01:818,2.0235,-3.6654,10.8606,57.3436,1.1542,0.4293,0.4269,160.1568
17:04:01:838,2.3331,-2.1761,7.486,57.4453,0.5363,0.3829,0.3475,160.1568
17:04:01:858,1.4697,-0.6631,7.456,57.3759,-0.2772,0.4338,0.1809,160.1568
17:04:01:879,0.6768,-0.1292,8.6181,57.2317,-0.3037,0.3138,0.0676,160.1568
17:04:01:898,0.4132,0.171,8.1573,57.2995,0.0199,0.2185,0.1428,160.1568
17:04:01:918,0.6085,0.3042,6.6707,57.6491,0.1942,0.0811,0.1944,160.1568
17:04:01:940,0.9178,0.724,5.7419,57.6862,0.1555,-0.0977,0.1701,160.1568
17:04:01:958,1.3979,0.913,5.4048,57.804,0.0977,-0.2894,-0.0909,160.1568
17:04:01:978,1.1744,0.7317,5.1626,57.5236,-0.1078,-0.4191,-0.4481,160.1568
17:04:01:998,0.8012,0.5661,5.9685,57.3388,-0.3888,-0.3402,-0.6044,160.1568
17:04:02:018,0.5147,0.6123,7.3572,57.3076,-0.4471,-0.1111,-0.5619,160.1568
17:04:02:039,0.6084,0.7203,8.186,57.0228,-0.2684,0.0363,-0.4484,160.1568
17:04:02:058,0.9594,0.8465,8.7547,57.0081,-0.1242,0.0141,-0.3754,160.1568
17:04:02:078,1.0166,1.0043,9.6831,56.9995,-0.013,-0.0886,-0.3142,160.1568
17:04:02:098,0.7615,1.222,11.0312,57.396,0.2032,-0.1961,-0.165,160.1568
17:04:02:117,0.6774,1.5041,11.65,57.1819,0.5299,-0.2095,0.0272,160.1568
17:04:02:138,0.8382,1.7042,11.3901,57.4524,0.7465,-0.1387,0.1853,160.1568
17:04:02:158,1.165,1.5351,11.222,57.556,0.7451,-0.148,0.2133,160.1568
17:04:02:178,1.4492,0.8605,11.9966,57.0565,0.6545,-0.3517,0.1487,160.1568
17:04:02:198,1.0462,0.5405,13.0311,56.793,0.639,-0.4757,0.1553,160.1568
17:04:02:218,0.7103,0.331,13.3546,56.4084,0.6328,-0.186,0.2512,160.1568
17:04:02:238,0.7832,0.1341,12.8168,56.3461,0.5324,0.2103,0.3763,160.1568
17:04:02:258,0.6269,-0.0521,12.2626,56.418,0.4572,0.4224,0.3614,160.1568
17:04:02:277,-0.1502,-0.5154,11.1351,56.5092,0.4442,0.3761,0.3259,160.1568
17:04:02:298,-0.8081,-0.7689,10.1535,56.3064,0.3632,0.1755,0.3423,160.1568
17:04:02:319,-1.0281,-1.1372,9.1898,56.7179,0.0941,-0.0056,0.5203,160.1568
17:04:02:338,-0.3982,-0.7777,9.3138,56.4381,-0.2074,-0.4779,0.6343,160.1568
17:04:02:358,0.7823,-0.1882,10.598,56.4303,-0.3461,-0.8356,0.5626,160.1568
17:04:02:378,1.448,0.0569,11.126,56.3036,-0.1969,-0.9151,0.2801,160.1568
17:04:02:398,1.6955,-0.0849,9.8603,55.8757,-0.1496,-0.5521,-0.0188,160.1568
17:04:02:418,1.2819,-0.3954,8.3,55.6063,-0.3291,0.0726,-0.2414,160.1568
17:04:02:438,0.5887,-0.4614,7.2321,55.4289,-0.494,0.564,-0.2927,160.1568
17:04:02:458,0.1141,-0.4169,6.8386,55.2512,-0.487,0.6535,-0.2286,160.1568
17:04:02:478,-0.0974,-0.2665,7.3742,55.1568,-0.2563,0.274,-0.0913,160.1568
17:04:02:498,0.3915,-0.1512,7.9127,54.8869,0.2342,-0.2286,0.0476,160.1568
17:04:02:518,1.0372,0.1265,7.4586,54.8061,0.6524,-0.5636,0.0528,160.1568
17:04:02:538,1.4103,0.481,6.5712,54.3864,0.7157,-0.5766,-0.1178,160.1568
17:04:02:558,1.6397,0.4136,5.9467,54.5072,0.4713,-0.319,-0.3987,160.1568
17:04:02:578,1.5183,0.177,5.9812,54.3813,-0.0042,0.0414,-0.6896,160.1568
17:04:02:598,0.9215,-0.0309,6.8579,54.0851,-0.551,0.4981,-0.8264,160.1568
17:04:02:618,0.3091,-0.1501,8.6501,54.0284,-0.8566,0.953,-0.6769,160.1568
17:04:02:638,-0.0008,0.1514,10.1219,53.8744,-0.7191,1.0586,-0.4305,160.1568
17:04:02:657,0.2247,0.2922,10.6051,53.6859,-0.4417,0.6529,-0.3484,160.1568
17:04:02:678,0.7744,-0.1031,10.8802,53.6792,-0.3271,0.0288,-0.4263,160.1568
17:04:02:700,1.3572,-1.0246,11.7786,53.7357,-0.382,-0.3272,-0.5104,160.2561
17:04:02:718,1.7706,-1.3792,13.0611,53.7693,-0.4636,-0.2024,-0.4247,160.3705
17:04:02:738,3.5648,-1.6936,13.6408,53.6666,-0.4447,0.1298,-0.4395,160.4967
17:04:02:758,5.1924,-1.5722,13.7938,53.4815,-0.7087,0.262,-0.9085,160.6405
17:04:02:778,5.5997,-1.5555,15.5526,53.1643,-0.9443,0.172,-1.74,160.8162
17:04:02:800,3.4688,-2.1014,17.4224,52.8205,-0.5622,-0.1142,-2.2904,161.0542
17:04:02:818,2.2558,-3.4818,17.1538,52.7674,0.2178,-0.0382,-2.0674,161.3643
17:04:02:838,2.611,-3.2209,14.1901,52.2243,0.8878,0.1337,-1.4313,161.7301
17:04:02:858,3.5983,-2.0224,10.8875,51.9861,1.0195,0.245,-1.0232,162.1309
17:04:02:878,3.6358,-1.145,8.2433,51.8293,0.7597,-0.0016,-1.1444,162.5498
17:04:02:898,3.0823,-0.9684,7.6403,51.5545,0.3232,-0.365,-1.3433,162.9955
17:04:02:918,2.2227,-0.7748,7.9528,50.9775,0.1736,-0.5938,-1.4323,163.4742
17:04:02:938,1.9163,-0.5661,7.5867,50.5719,0.2507,-0.4579,-1.4068,163.987
17:04:02:958,1.6383,-0.5456,6.2541,50.1976,0.2968,-0.0849,-1.3709,164.5372
17:04:02:978,1.621,-0.2869,5.0835,49.5286,0.1946,0.3687,-1.3413,165.1132
17:04:02:998,1.7668,-0.4937,4.3025,49.3297,-0.0006,0.5894,-1.3586,165.7178
17:04:03:018,1.8297,-0.2529,4.4029,49.1907,-0.2893,0.5774,-1.495,166.3522
17:04:03:038,1.5913,-0.2895,5.3681,48.9436,-0.4843,0.2932,-1.6529,167.0204
17:04:03:058,1.0213,-0.2274,6.7359,48.7615,-0.4681,-0.0571,-1.7024,167.732
17:04:03:080,0.3647,-0.0963,7.7473,48.5052,-0.2834,-0.2458,-1.5903,168.4746
17:04:03:098,1.0282,-0.1438,8.4061,48.0155,-0.0881,-0.19,-1.3536,169.2477
17:04:03:118,1.9436,0.2903,8.5586,47.8736,0.1247,0.1007,-1.3435,170.0442
17:04:03:138,1.2132,0.9175,8.2494,47.3815,-0.003,0.2656,-1.4342,170.8637
17:04:03:158,-0.0805,1.3827,9.4269,46.9489,-0.2007,0.1361,-1.5428,171.7141
17:04:03:179,-0.2897,0.9537,10.7176,46.5098,-0.0855,0.0312,-1.4572,172.5867
17:04:03:198,-0.0146,0.6129,10.7012,46.2394,0.1059,0.1399,-1.1625,173.4808
17:04:03:231,0.3761,0.7724,10.219,45.8668,0.0346,0.2961,-0.9564,174.386
17:04:03:238,0.4291,1.0207,10.1226,45.7819,-0.299,0.4205,-0.9684,175.2971
17:04:03:258,0.4019,0.6547,10.8175,45.7328,-0.6344,0.6768,-0.9694,176.215
17:04:03:278,-0.1958,-0.0424,11.5658,45.5376,-0.8858,0.7492,-0.9388,177.1387
17:04:03:298,-0.8452,-0.5092,13.0572,45.2621,-0.9735,0.4892,-0.7072,178.0647
17:04:03:318,-0.2063,-1.2566,14.7025,44.9498,-0.4877,0.0801,-0.4615,178.9835
17:04:03:338,0.0456,-1.8587,14.8032,44.4521,0.3271,-0.3004,-0.3158,179.8882
17:04:03:359,0.5659,-2.0044,12.3539,44.1617,0.8766,-0.5484,-0.1563,-179.2247
17:04:03:379,1.181,-1.7416,10.5855,43.787,0.6834,-0.4464,-0.1931,-178.3589
17:04:03:399,1.3067,-1.3889,9.4909,43.6807,0.1826,-0.1534,-0.3523,-177.5105
17:04:03:418,0.8419,-1.1404,9.4278,43.7533,-0.2878,0.2995,-0.4604,-176.6735
17:04:03:438,0.1232,-0.9042,9.0668,43.4584,-0.3585,0.5556,-0.4345,-175.8454
17:04:03:459,0.1026,-0.4125,8.6335,43.0898,-0.1659,0.5877,-0.2712,-175.0288
17:04:03:478,0.6102,0.1504,7.8335,42.6645,0.1944,0.4241,-0.205,-174.2287
17:04:03:498,0.9208,0.5027,6.769,42.2676,0.4162,0.0599,-0.2868,-173.4452
17:04:03:518,0.9671,0.5416,6.2061,42.1022,0.3895,-0.379,-0.4329,-172.674
17:04:03:538,0.7822,0.5674,6.6028,41.9833,0.1844,-0.6258,-0.5135,-171.9102
17:04:03:560,0.6223,0.7409,7.4836,41.5867,0.0516,-0.6266,-0.5304,-171.1512
17:04:03:578,0.7736,0.8691,8.1057,41.6382,0.0137,-0.4589,-0.5343,-170.3964
17:04:03:598,1.0705,0.789,8.5538,41.471,-0.0077,-0.1763,-0.5174,-169.6456
17:04:03:618,1.0976,0.8801,8.7803,41.2169,0.0176,0.0893,-0.4576,-168.8996
17:04:03:638,1.2025,1.0764,8.6818,40.6837,0.0608,0.1138,-0.4432,-168.1608
17:04:03:659,1.3373,1.1069,8.5733,40.266,0.0617,-0.1662,-0.5624,-167.4284
17:04:03:678,1.3706,0.8182,8.7388,39.5864,-0.0343,-0.3954,-0.6882,-166.6977
17:04:03:698,1.413,0.2245,9.3115,39.2374,-0.1654,-0.4882,-0.8063,-165.9643
17:04:03:717,1.1931,-0.5395,10.167,38.9146,-0.3132,-0.4052,-0.8705,-165.224
17:04:03:738,1.1193,-1.3023,11.4868,38.5441,-0.47,-0.2505,-0.7742,-164.4758
17:04:03:758,1.3554,-1.2046,13.2104,38.4822,-0.3346,-0.1171,-0.5114,-163.7247
17:04:03:778,2.9815,-1.4635,13.4118,38.2908,0.1987,-0.1253,-0.4008,-162.9805
17:04:03:798,3.8165,-2.0192,11.4829,38.0132,0.3916,-0.3306,-0.6856,-162.244
17:04:03:818,3.6287,-2.4067,10.5555,37.8778,-0.3642,-0.463,-1.1059,-161.5024
17:04:03:840,2.9842,-3.2363,12.7513,37.9167,-1.2383,-0.3025,-1.3682,-160.7401
17:04:03:858,2.1175,-3.619,14.6618,37.4505,-1.2391,-0.19,-1.2939,-159.9504
17:04:03:878,2.31,-3.517,15.0604,37.4196,-0.7036,0.1556,-0.9562,-159.1406
17:04:03:898,3.2347,-3.1845,12.7848,37.0932,-0.1778,0.1877,-0.8699,-158.323
17:04:03:918,1.8479,-1.4266,11.3495,36.6556,-0.2099,0.0903,-0.9376,-157.4989
17:04:03:940,0.8444,-0.6334,10.6371,36.3646,0.0447,-0.0413,-0.999,-156.6664
17:04:03:959,0.3024,-0.1366,9.0532,36.1541,0.4717,-0.0115,-0.9606,-155.8256
17:04:03:979,0.006,0.2604,6.6403,36.0019,0.6931,0.1512,-0.8634,-154.9791
17:04:03:998,0.3677,0.3843,4.5086,35.9121,0.6081,0.4306,-0.8196,-154.1305
17:04:04:018,0.5857,0.638,3.2123,35.6785,0.1956,0.5797,-0.9102,-153.2793
17:04:04:039,0.7756,0.7695,3.6003,35.8175,-0.273,0.4482,-1.0553,-152.4209
17:04:04:058,1.0376,0.592,5.1971,35.8417,-0.4851,0.0648,-1.231,-151.5461
17:04:04:078,0.4277,0.4154,7.5181,35.6543,-0.3675,-0.4498,-1.3365,-150.6578
17:04:04:098,0.2943,-0.4005,9.5134,35.8822,0.0681,-0.7178,-1.218,-149.7506
17:04:04:118,0.2957,-0.7179,9.5448,35.7533,0.4669,-0.4519,-0.8811,-148.8323
17:04:04:138,0.5936,-0.6445,8.6507,35.986,0.3332,-0.0024,-0.4718,-147.9157
17:04:04:158,1.0084,-0.199,8.7857,35.9432,-0.1158,0.502,-0.1277,-147.0126
17:04:04:178,1.3358,0.5804,9.6466,35.7046,-0.3932,0.7432,0.0826,-146.1341
17:04:04:198,1.2988,1.3325,10.513,35.7042,-0.4443,0.4595,0.0839,-145.2845
17:04:04:219,1.0637,1.714,11.9241,35.5001,-0.2453,-0.0997,0.0797,-144.4625
17:04:04:237,1.2396,1.6823,12.6462,35.4755,0.1421,-0.4492,0.1147,-143.6685
17:04:04:258,1.562,1.9505,11.9915,35.737,0.1681,-0.2639,0.0489,-142.903
17:04:04:278,1.6434,1.9958,11.6614,35.8868,-0.1302,0.2085,-0.2374,-142.1599
17:04:04:298,1.147,1.0522,11.7204,36.3339,-0.5582,0.17,-0.6712,-141.4265
17:04:04:319,-0.2927,-0.4158,13.6915,36.6888,-0.9164,-0.0359,-0.9193,-140.6874
17:04:04:338,-2.1255,-1.6501,16.0295,36.7269,-0.4968,-0.1897,-0.7176,-139.9385
17:04:04:358,-2.6221,-2.3754,15.2966,37.3004,0.4344,-0.2807,-0.2227,-139.1899
17:04:04:378,-1.6268,-2.2105,12.2538,37.6302,0.8914,-0.1097,0.2299,-138.4631
17:04:04:398,-0.3578,-1.3231,9.6284,37.8334,0.7754,0.144,0.2338,-137.769
17:04:04:418,0.3661,-0.9712,8.1909,38.3105,0.3448,0.3164,-0.0282,-137.1027
17:04:04:439,0.041,-0.8881,8.1862,38.6364,-0.0928,0.2914,-0.2089,-136.4534
17:04:04:458,-0.6317,-0.7037,8.9963,39.1931,-0.2141,0.0836,-0.1479,-135.8154
17:04:04:478,-0.7955,-0.397,9.3851,39.4642,0.0649,-0.1415,0.0767,-135.1938
17:04:04:498,-0.3779,-0.1349,8.6,40.0514,0.5163,-0.3111,0.3226,-134.5965
17:04:04:518,0.408,0.0472,7.0508,40.358,0.841,-0.4391,0.4089,-134.031
17:04:04:538,0.9966,0.1831,5.6652,40.7959,0.8664,-0.5199,0.2988,-133.4979
17:04:04:558,1.1314,0.2665,4.9031,41.1222,0.5357,-0.4677,0.1396,-132.992
17:04:04:578,0.9188,0.4819,5.532,41.4534,0.1762,-0.2574,0.1143,-132.5059
17:04:04:600,0.8392,0.6116,6.3391,41.7573,0.0937,-0.0353,0.1552,-132.0387
17:04:04:618,0.8373,0.7825,6.8531,42.4813,0.1667,-0.0326,0.2098,-131.5917
17:04:04:637,1.1374,0.7733,7.302,42.8242,0.2398,-0.3151,0.2321,-131.1666
17:04:04:658,1.6528,0.5892,8.0295,43.3992,0.2124,-0.7096,0.1942,-130.7633
17:04:04:677,1.6652,0.5844,8.9225,43.8377,0.0502,-0.9087,0.121,-130.379
17:04:04:699,1.5621,0.743,10.0583,44.1168,-0.1468,-0.6399,0.0413,-130.0091
17:04:04:718,1.6045,0.7868,11.0964,44.4038,-0.2474,-0.095,-0.0924,-129.649
17:04:04:738,1.993,0.5608,11.1731,44.9665,-0.3239,0.3033,-0.3169,-129.2932
17:04:04:758,2.0061,0.1333,11.1184,45.3835,-0.5275,0.3815,-0.6152,-128.9328
17:04:04:777,2.1241,-0.7475,11.8065,45.672,-0.7738,0.3158,-0.81,-128.5574
17:04:04:800,2.5696,-1.5434,12.4247,46.2607,-1.0322,0.353,-0.9145,-128.161
17:04:04:818,2.509,-1.9362,13.4983,46.4214,-1.3018,0.3299,-1.0839,-127.7393
17:04:04:838,1.5116,-2.313,15.4487,46.5385,-1.2037,0.2616,-1.191,-127.2869
17:04:04:858,1.111,-2.8528,16.6143,46.9109,-0.5121,0.2452,-0.989,-126.8052
17:04:04:877,2.0033,-3.3213,14.8752,47.1918,0.2082,0.3075,-0.6383,-126.3065
17:04:04:898,3.3188,-2.9313,12.8419,47.4451,0.3607,0.3476,-0.3161,-125.8052
17:04:04:919,3.7818,-1.7878,11.6378,47.4813,0.3737,0.1671,-0.3271,-125.31
17:04:04:938,3.193,-1.284,10.5296,47.7603,0.3449,-0.0879,-0.595,-124.8173
17:04:04:958,1.7757,-1.1061,9.6262,47.8236,0.2525,0.0221,-0.7502,-124.3181
17:04:04:978,0.8033,-0.9836,8.4837,48.0752,0.2084,0.3557,-0.6793,-123.8093
17:04:04:999,-0.0913,-0.3971,7.1456,48.4894,0.2887,0.5445,-0.4947,-123.2944
17:04:05:018,-0.163,-0.0249,5.636,49.0346,0.407,0.5235,-0.2578,-122.7808
17:04:05:039,0.0825,0.4431,4.3598,49.1365,0.433,0.3922,-0.059,-122.2767
17:04:05:058,0.5582,0.755,3.5567,49.4966,0.3653,0.1384,0.0193,-121.7875
17:04:05:078,1.0505,1.0678,3.5456,49.5184,0.1699,-0.1724,-0.033,-121.314
17:04:05:098,0.7583,1.3861,4.8319,49.7655,0.0354,-0.5381,-0.1539,-120.8528
17:04:05:118,0.5448,1.1447,6.4749,49.7794,0.1125,-0.8162,-0.1551,-120.4001
17:04:05:138,0.9125,0.7147,7.7745,49.9084,0.2603,-0.8441,-0.0315,-119.9573
17:04:05:157,1.5438,0.4656,8.3037,50.0351,0.2048,-0.5393,0.1177,-119.5286
17:04:05:178,2.0512,0.6709,8.8189,50.3664,-0.1543,0.0041,0.1954,-119.1175
17:04:05:198,2.193,1.0614,9.6898,50.5742,-0.5821,0.5437,0.1736,-118.7234
17:04:05:218,2.6903,1.7758,10.9621,51.0491,-0.9077,0.7956,0.2033,-118.3446
17:04:05:251,3.8122,2.3837,13.0369,51.4436,-0.7771,0.6372,0.1057,-117.9814
17:04:05:258,4.0086,2.483,14.3696,51.7292,-0.1207,0.1553,-0.3231,-117.629
17:04:05:277,2.7128,1.5222,13.7823,51.984,0.4892,-0.3072,-0.8347,-117.272
17:04:05:298,0.8826,-0.0336,12.4787,52.1708,0.5452,-0.1687,-0.9927,-116.8962
17:04:05:318,-0.7909,-0.449,11.6206,52.6482,0.1808,0.6115,-0.661,-116.5001
17:04:05:338,-1.3934,0.0483,11.3299,52.922,-0.028,1.4526,-0.0484,-116.0981
17:04:05:360,-0.9888,0.719,10.8599,53.4222,0.1208,1.4103,0.2944,-115.7105
17:04:05:378,-0.8704,0.4659,9.9145,53.5748,0.3798,0.7238,0.3332,-115.3461
17:04:05:398,-1.3387,-0.4667,8.9204,53.601,0.3933,-0.1232,0.2728,-115.0038
17:04:05:418,-1.5963,-1.1757,8.595,53.5748,0.0993,-0.7393,0.2307,-114.6808
17:04:05:438,-1.6143,-1.5849,9.2105,53.2373,-0.3462,-1.0301,0.2216,-114.375
17:04:05:459,-1.6033,-1.6294,10.7246,53.0211,-0.6413,-0.9714,0.2424,-114.085
17:04:05:478,-1.2117,-1.4021,11.136,52.908,-0.5736,-0.4987,0.3072,-113.8113
17:04:05:498,-1.0149,-0.6852,9.5605,53.244,-0.4551,0.1196,0.3211,-113.5555
17:04:05:518,-0.9688,-0.2743,7.8087,53.2773,-0.3761,0.4994,0.3548,-113.3177
17:04:05:538,-0.856,-0.0889,6.685,53.4445,-0.1628,0.5027,0.4767,-113.0998
17:04:05:559,-0.2628,-0.0965,5.4615,53.591,-0.0158,0.3507,0.5471,-112.9077
17:04:05:578,0.6684,-0.3676,4.8281,53.4293,-0.3893,0.0162,0.3718,-112.7367
17:04:05:599,0.1091,-0.3905,7.3641,53.2421,-0.9081,-0.5716,0.1649,-112.5801
17:04:05:618,-1.1926,-0.3498,11.3183,53.3934,-0.6283,-1.0547,0.2843,-112.4324
17:04:05:638,-1.2199,-0.3416,12.7122,53.1279,0.3333,-0.939,0.6728,-112.3026
17:04:05:658,-0.3209,-0.0759,10.3453,53.4238,1.0908,-0.4211,0.9276,-112.2083
17:04:05:678,0.9079,0.1689,6.9796,53.5497,0.9854,0.2156,0.8293,-112.2083
17:04:05:698,1.644,0.0204,5.5328,53.3989,0.3026,0.5705,0.5285,-112.2083
17:04:05:718,1.2463,0.1967,6.6941,53.336,-0.2874,0.1618,0.2615,-112.2083
17:04:05:738,0.5087,-0.1325,9.1941,53.2563,-0.4019,-0.7018,0.1655,-112.2083
17:04:05:758,0.4134,-0.2777,11.7518,52.9607,-0.1455,-1.2992,0.2556,-112.2083
17:04:05:779,1.5286,-0.8495,12.9052,53.1162,0.1966,-1.2276,0.2791,-112.2083
17:04:05:798,2.1148,-0.9818,12.3457,52.8801,0.1252,-0.5813,0.1387,-112.2083
17:04:05:818,2.1998,-1.4391,12.5446,53.046,-0.3682,0.0893,-0.1065,-112.2083
17:04:05:839,2.3607,-2.1428,13.7115,52.9954,-0.6917,0.6373,-0.289,-112.2083
17:04:05:858,2.112,-2.3903,14.3032,52.6382,-0.8426,0.9512,-0.4603,-112.2083
17:04:05:878,1.0113,-2.2842,15.2808,52.9484,-0.7983,1.0175,-0.5711,-112.2083
17:04:05:898,0.3461,-2.478,15.454,52.8529,-0.1677,0.6333,-0.43,-112.2083
17:04:05:918,1.0273,-3.0006,13.4621,52.4153,0.5508,0.0909,-0.1558,-112.2083
17:04:05:939,1.8458,-2.9106,11.5602,51.9959,0.5856,0.1593,0.0439,-112.2083
17:04:05:958,2.2768,-1.9013,9.8626,51.8852,0.3925,0.0005,0.0649,-112.2083
17:04:05:978,2.7771,-1.4971,9.6505,51.6953,0.0229,0.199,-0.1382,-112.2083
17:04:05:998,1.9857,-1.0635,9.0282,51.524,-0.0668,0.3762,-0.3558,-112.2083
17:04:06:020,0.9298,-0.587,7.9869,51.3194,-0.0614,0.5884,-0.4098,-112.2083
17:04:06:039,0.0799,-0.3115,6.5303,50.9643,0.0597,0.6249,-0.3899,-112.2083
17:04:06:058,-0.2876,-0.0996,5.2215,50.6122,0.1606,0.4806,-0.2579,-112.106
17:04:06:078,-0.4613,-0.0724,4.1745,50.4547,0.2027,0.2508,-0.0521,-112.0005
17:04:06:098,-0.24,-0.0129,4.2526,50.6113,0.133,-0.0214,0.2103,-111.8987
17:04:06:119,0.3507,0.3683,5.4721,50.5254,0.1584,-0.4389,0.3371,-111.8086
17:04:06:138,0.6846,0.6349,7.1705,50.626,0.292,-0.9486,0.2943,-111.8086
17:04:06:158,0.5837,0.4058,9.2531,50.429,0.4777,-1.1599,0.2839,-111.8086
17:04:06:177,0.4113,0.1511,10.6453,50.1838,0.7329,-0.8088,0.4793,-111.8086
17:04:06:199,1.0017,0.6133,10.9699,49.6966,0.7449,-0.1924,0.6521,-111.8086
17:04:06:220,1.8282,1.689,11.2577,49.4272,0.5663,0.356,0.4581,-111.8086
17:04:06:238,2.2795,1.8635,11.2487,49.1561,0.5931,0.5836,0.1622,-111.8086
17:04:06:258,2.2934,1.7444,10.1959,49.173,0.6602,0.7089,-0.0509,-111.8086
17:04:06:278,1.8822,1.8943,8.985,49.0468,0.5839,0.6332,-0.2036,-111.8086
17:04:06:298,1.71,1.8068,8.116,49.1604,0.3135,0.2667,-0.3524,-111.8086
17:04:06:319,1.0148,1.8486,8.9853,49.0736,-0.1498,-0.0523,-0.5226,-111.8086
17:04:06:338,-0.06,1.5257,10.7726,49.0194,-0.3587,-0.0307,-0.5721,-111.8086
17:04:06:358,-1.1754,0.6017,11.3172,48.8188,-0.312,0.1006,-0.4289,-111.8086
17:04:06:378,-1.7257,-0.4666,11.2674,48.664,-0.4782,0.0749,-0.1361,-111.8086
17:04:06:398,-1.8084,-1.0727,12.6056,48.4538,-0.5628,-0.1557,0.2806,-111.8086
17:04:06:418,-0.3838,-1.2886,13.4661,48.355,-0.2398,-0.4961,0.6081,-111.8086
17:04:06:438,0.6591,-0.8555,12.5432,48.0928,0.2044,-0.7619,0.5529,-111.8086
17:04:06:458,1.265,-0.8716,10.4843,47.821,0.2529,-0.7873,0.2427,-111.8086
17:04:06:477,1.2849,-1.2614,8.8326,47.6228,-0.1245,-0.474,-0.1181,-111.8086
17:04:06:498,0.6601,-1.3776,8.0591,46.8967,-0.8212,-0.1512,-0.3919,-111.8086
17:04:06:518,0.0452,-1.1059,8.502,46.8167,-1.3519,0.1236,-0.4976,-111.8086
17:04:06:538,-0.7679,-0.6793,9.3115,46.7832,-1.3783,0.1634,-0.4604,-111.8086
17:04:06:558,-1.3079,-0.4,9.9709,46.7268,-0.855,-0.0078,-0.2305,-111.8086
17:04:06:578,-1.2469,-0.2243,9.5489,46.4629,-0.0315,-0.1867,0.1029,-111.8086
17:04:06:601,-0.3961,-0.3856,7.5242,46.3764,0.5524,-0.2908,0.3135,-111.8086
17:04:06:618,0.1148,-0.414,5.8489,46.1531,0.4674,-0.2876,0.3383,-111.8086
17:04:06:638,0.0894,-0.1748,6.1004,45.7547,0.1026,-0.1792,0.2934,-111.8086
17:04:06:658,-0.0764,-0.0035,7.0924,45.4867,-0.0031,-0.0501,0.2904,-111.8086
17:04:06:678,0.1071,0.0569,7.783,44.9386,0.0839,0.0666,0.3172,-111.8086
17:04:06:699,0.4429,0.0406,7.9594,44.7988,0.2408,0.2136,0.3403,-111.8086
17:04:06:718,0.1515,-0.0086,7.8036,44.2585,0.1588,0.0933,0.2764,-111.8086
17:04:06:738,-0.2621,-0.2131,9.0528,44.1047,-0.0631,-0.3134,0.2007,-111.8086
17:04:06:757,0.1541,-0.7134,10.5751,43.9436,-0.1471,-0.5775,0.242,-111.8086
17:04:06:778,1.4246,-1.0843,11.85,43.4969,-0.1268,-0.5463,0.2271,-111.8086
17:04:06:799,2.5339,-1.3261,12.6466,43.1207,-0.111,-0.1896,0.0457,-111.8086
17:04:06:818,2.3077,-1.2221,12.9879,42.776,-0.2004,0.2154,-0.2169,-111.8086
17:04:06:838,2.0514,-1.6516,13.124,42.5075,-0.2683,0.4383,-0.4159,-111.8086
17:04:06:858,2.2555,-2.3395,12.5962,42.1368,-0.2879,0.5116,-0.4855,-111.8086
17:04:06:878,1.8609,-2.4723,12.1198,41.8244,-0.456,0.3214,-0.5549,-111.8086
17:04:06:898,1.2509,-2.5595,12.9777,41.7696,-0.5515,0.125,-0.5781,-111.8086
17:04:06:918,1.0482,-2.7997,13.4468,41.45,-0.2783,0.0162,-0.453,-111.8086
17:04:06:938,1.6539,-3.0636,12.8327,41.1957,0.0813,0.0524,-0.2749,-111.8086
17:04:06:957,2.4283,-2.718,10.9753,41.0424,0.3413,0.029,-0.1575,-111.8086
17:04:06:980,2.7705,-2.0188,9.2431,41.1862,0.2433,0.0739,-0.1936,-111.8086
17:04:06:998,2.3774,-1.2792,8.2311,40.823,0.0035,0.0106,-0.3865,-111.7111
17:04:07:018,1.7337,-1.0715,8.2581,40.8215,-0.2093,0.0208,-0.5892,-111.6009
17:04:07:038,1.1458,-0.9459,8.3397,40.6535,-0.2384,0.2361,-0.5203,-111.4728
17:04:07:057,0.8765,-0.3715,8.0925,40.501,0.0615,0.5583,-0.2483,-111.3315
17:04:07:079,0.8901,0.2694,6.3807,40.4832,0.4249,0.6263,-0.0947,-111.1896
17:04:07:098,1.0379,0.5347,4.5012,40.7443,0.4641,0.4939,-0.1263,-111.05
17:04:07:118,0.6561,0.6355,3.5571,40.5325,0.0671,0.1369,-0.2606,-110.9092
17:04:07:138,-0.1519,0.3566,5.3774,40.4171,-0.4048,-0.295,-0.2837,-110.7623
17:04:07:158,-1.0687,0.0586,8.797,40.3818,-0.4696,-0.6679,-0.0683,-110.6088
17:04:07:179,-0.5196,-0.0293,11.8556,40.2934,0.0599,-0.6353,0.346,-110.4608
17:04:07:198,0.7304,0.4669,11.6691,40.1046,0.6679,-0.3098,0.5171,-110.3333
17:04:07:218,1.9547,0.693,9.8033,40.2146,0.6901,0.0999,0.3368,-110.2292
17:04:07:238,2.0525,0.8679,9.0092,40.1026,0.2426,0.3933,0.0423,-110.139
17:04:07:282,1.3096,1.1558,10.2524,39.9802,-0.0465,0.4458,-0.1004,-110.139
17:04:07:285,0.7474,1.117,11.4939,40.0583,0.1203,0.249,-0.0482,-110.0482
17:04:07:298,1.0594,1.0408,11.6769,40.3394,0.4477,0.0146,0.0996,-110.0482
17:04:07:318,1.6925,1.1751,11.1465,40.4053,0.5879,-0.1326,0.1358,-110.0482
17:04:07:338,2.1892,1.156,10.7777,40.8196,0.483,-0.1618,-0.0265,-110.0482
17:04:07:360,1.903,0.9393,11.0183,40.748,0.2552,0.0749,-0.2778,-110.0482
17:04:07:378,0.9324,0.4011,11.1714,40.7784,0.1128,0.6429,-0.4177,-110.0482
17:04:07:399,-0.7561,-0.6695,11.0256,40.9392,0.1092,0.8413,-0.2834,-109.9451
17:04:07:418,-1.4202,-1.4208,10.522,41.3402,0.077,0.6905,0.1471,-109.8393
17:04:07:437,-1.3498,-1.5376,10.2842,41.8966,0.0971,0.1288,0.4498,-109.7449
17:04:07:458,-0.2198,-1.7966,10.4036,41.9489,-0.0305,-0.627,0.5418,-109.7449
17:04:07:478,0.4555,-1.7128,11.3947,42.1825,-0.2448,-1.1888,0.4091,-109.7449
17:04:07:498,0.6851,-1.7052,12.4074,42.3481,-0.355,-1.0621,0.2264,-109.7449
17:04:07:518,0.6355,-1.5463,11.546,41.9879,-0.4076,-0.3574,0.0811,-109.7449
17:04:07:538,0.2862,-1.122,10.0411,42.1582,-0.5745,0.4367,-0.0204,-109.7449
17:04:07:559,-0.412,-0.5305,9.183,42.3152,-0.5209,0.7674,-0.043,-109.7449
17:04:07:578,-0.7176,-0.3132,8.504,42.6077,-0.0902,0.5559,0.1036,-109.7449
17:04:07:598,-0.0649,-0.3386,7.0426,42.6924,0.3965,0.092,0.2924,-109.7449
17:04:07:618,0.6634,-0.0976,5.7482,42.9179,0.4466,-0.3753,0.2701,-109.7449
17:04:07:638,0.4612,0.1812,6.2564,43.1182,0.1818,-0.5247,0.1192,-109.7449
17:04:07:658,-0.1056,0.2651,7.6771,43.3571,0.11,-0.2602,0.0807,-109.7449
17:04:07:678,-0.1742,0.0787,7.8681,44.0244,0.2946,0.1706,0.1625,-109.7449
17:04:07:699,0.2214,0.1395,7.0358,44.5052,0.3166,0.4238,0.2515,-109.7449
17:04:07:718,0.7829,0.4792,6.9866,44.7085,0.1175,0.3722,0.1772,-109.7449
17:04:07:740,0.56,0.7287,8.2196,45.372,-0.0605,0.1365,0,-109.7449
17:04:07:758,-0.3157,0.6412,10.1497,45.1773,-0.0165,-0.0942,-0.0543,-109.7449
17:04:07:778,-0.7016,0.1486,11.4928,45.5616,0.2181,-0.1628,0.0898,-109.7449
17:04:07:798,-0.0117,-0.3407,11.386,45.6712,0.3422,0.0183,0.2879,-109.7449
17:04:07:818,1.1542,-0.6161,11.0139,45.4717,0.1573,0.1706,0.2889,-109.7449
17:04:07:840,1.6458,-0.5944,11.4014,45.6379,-0.179,0.2891,0.0909,-109.7449
17:04:07:859,1.4913,-0.6578,12.5297,45.7943,-0.3173,0.3953,-0.1158,-109.7449
17:04:07:878,1.5887,-1.15,12.6299,46.1068,-0.1737,0.484,-0.2239,-109.7449
17:04:07:898,1.3953,-1.5209,11.9253,46.4209,-0.1538,0.3938,-0.3432,-109.7449
17:04:07:917,0.7515,-1.8465,12.2329,46.5009,-0.1848,-0.0089,-0.4227,-109.7449
17:04:07:939,0.7903,-2.077,12.5063,46.8039,-0.0765,-0.0489,-0.3339,-109.7449
17:04:07:958,0.8772,-2.1508,11.9853,46.9246,0.0642,-0.0024,-0.249,-109.7449
17:04:07:978,1.7007,-2.2122,11.0828,47.218,0.0511,-0.0412,-0.1672,-109.7449
17:04:07:998,2.3976,-1.7416,10.3137,47.4373,-0.1154,0.0128,-0.2333,-109.7449
17:04:08:018,2.4665,-0.9307,9.7538,47.9569,-0.3353,0.1441,-0.4924,-109.7449
17:04:08:038,1.6861,-0.5018,9.1484,48.0075,-0.4923,0.3567,-0.8323,-109.7449
17:04:08:058,0.5257,-0.2961,8.3292,47.8799,-0.5031,0.5585,-0.966,-109.6509
17:04:08:077,-0.4781,-0.1686,7.5708,47.734,-0.3353,0.6479,-0.8217,-109.5271
17:04:08:098,-0.7013,0.0051,6.5918,47.6473,-0.0716,0.6288,-0.5319,-109.3814
17:04:08:120,-0.4854,0.2324,5.274,48.0646,0.0814,0.462,-0.3017,-109.2241
17:04:08:138,-0.2473,0.3173,4.6856,48.254,-0.017,0.1305,-0.2131,-109.0618
17:04:08:158,-0.209,0.4672,5.8826,48.5542,-0.1451,-0.2705,-0.1857,-108.8969
17:04:08:178,-0.1469,0.3149,7.6552,48.8162,-0.1218,-0.6345,-0.1651,-108.7306
17:04:08:198,-0.5205,0.4648,10.1625,49.2452,0.0553,-0.8149,-0.0426,-108.5644
17:04:08:220,-0.2619,0.5562,11.5229,49.6018,0.4937,-0.6338,0.1756,-108.4044
17:04:08:239,0.4067,0.7135,10.7218,49.9837,0.7969,-0.2408,0.3372,-108.2581
17:04:08:258,1.0998,1.0045,9.51,50.0407,0.6676,0.1337,0.3352,-108.1289
17:04:08:278,1.4214,1.4081,9.3534,50.1876,0.3128,0.3756,0.2066,-108.0146
17:04:08:298,1.116,1.6714,10.3103,50.5264,0.1127,0.3392,0.0347,-107.9093
17:04:08:320,0.8924,1.3005,11.3188,50.4564,0.1999,0.1745,-0.0278,-107.8078
17:04:08:338,0.5773,0.7141,11.4278,50.7109,0.2401,0.1257,-0.1044,-107.7081
17:04:08:358,-0.101,0.413,11.6683,50.8818,-0.021,0.4033,-0.1759,-107.6066
17:04:08:378,-0.7243,0.4658,12.0365,51.256,-0.282,1.0157,-0.1046,-107.502
17:04:08:398,-0.8282,0.71,11.6137,51.3782,-0.5239,1.5147,0.0257,-107.3981
17:04:08:419,-0.6438,0.5498,11.8797,51.6677,-0.6295,1.2921,0.049,-107.2995
17:04:08:438,-1.6979,-0.4525,12.6942,51.8754,-0.143,0.3097,-0.0136,-107.2066
17:04:08:458,-2.7932,-1.6164,11.7878,52.0872,0.373,-0.6129,0.2205,-107.2066
17:04:08:478,-2.6016,-1.8976,10.5039,52.3196,0.5812,-1.0722,0.6169,-107.2066
17:04:08:501,-1.0546,-1.7035,9.454,52.5708,0.3932,-1.0896,0.8562,-107.2066
17:04:08:519,0.8112,-1.2293,8.8768,52.7083,0.0728,-0.8396,0.6713,-107.2066
17:04:08:539,1.1802,-1.0138,8.4941,52.7487,-0.372,-0.6188,0.16,-107.2066
17:04:08:558,0.2076,-1.0831,8.7391,52.6161,-0.6645,-0.3582,-0.2197,-107.2066
17:04:08:578,-1.0501,-1.0456,8.9326,52.7445,-0.624,-0.1515,-0.211,-107.2066
17:04:08:600,-1.1483,-0.8128,8.3963,53.0747,-0.3332,0.0833,0.0706,-107.2066
17:04:08:618,-0.4587,-0.2416,6.9922,53.446,-0.0865,0.3813,0.3005,-107.2066
17:04:08:638,-0.0705,0.3277,5.9811,53.7196,0.0013,0.5709,0.3554,-107.2066
17:04:08:658,0.2856,0.2828,5.6442,53.8417,0.0656,0.416,0.3199,-107.2066
17:04:08:678,0.1659,0.239,6.0455,53.6735,0.0679,-0.1319,0.2504,-107.2066
17:04:08:699,-0.5381,0.201,7.2294,53.6314,-0.0311,-0.8354,0.1548,-107.2066
17:04:08:718,-1.3811,0.2455,9.3373,53.763,-0.051,-1.1129,0.2206,-107.2066
17:04:08:738,-1.3266,0.2736,10.7629,53.5373,0.1766,-0.7336,0.4468,-107.2066
17:04:08:757,-0.7989,0.5006,10.8013,53.5458,0.4787,-0.0794,0.6192,-107.2066
17:04:08:779,-0.2321,0.7583,9.5644,53.8188,0.4916,0.3531,0.5633,-107.2066
17:04:08:798,0.1012,0.7665,9.1758,53.682,0.2176,0.3849,0.3852,-107.304
17:04:08:818,0.0991,0.6098,9.7653,53.6237,-0.0648,0.0551,0.1598,-107.4097
17:04:08:838,0.1082,-0.1697,11.3192,53.7524,-0.2083,-0.4702,-0.0308,-107.5157
17:04:08:858,0.0279,-1.378,13.4209,53.7192,-0.1586,-0.7781,-0.0582,-107.6162
17:04:08:878,0.4156,-1.8442,14.7413,53.6263,0.1814,-0.6254,0.2129,-107.7139
17:04:08:898,2.0906,-1.9949,13.878,53.8019,0.5875,-0.2188,0.3697,-107.8194
17:04:08:918,3.377,-1.7945,11.6475,53.8533,0.4571,0.194,0.0593,-107.9337
17:04:08:937,3.4386,-1.9875,11.175,53.812,0.0267,0.3922,-0.4557,-108.0426
17:04:08:958,2.8693,-2.6787,11.5086,53.7567,-0.3182,0.241,-0.8172,-108.0426
17:04:08:980,1.9737,-3.1068,12.3544,53.6042,-0.4729,-0.0668,-0.956,-108.0426
17:04:08:999,1.0544,-3.1412,12.6792,53.4276,-0.3805,-0.2387,-0.8702,-108.0426
17:04:09:018,0.5309,-2.6703,11.7586,53.5004,-0.193,-0.1878,-0.633,-108.0426
17:04:09:037,0.7374,-1.3777,9.4991,53.3357,-0.1692,0.0539,-0.4541,-108.0426
17:04:09:058,1.2612,-0.193,7.6656,53.1345,-0.4244,0.6958,-0.4944,-108.0426
17:04:09:078,1.0405,0.9407,6.0175,53.0747,-0.4914,1.1588,-0.6801,-108.0426
17:04:09:098,0.5875,1.1222,4.3105,52.8575,-0.5775,1.5285,-0.9359,-108.0426
17:04:09:118,-0.739,1.1616,3.6349,52.6431,-0.7373,1.4797,-1.1005,-107.9217
17:04:09:137,-2.0555,0.6448,4.7285,52.3498,-0.6605,0.6943,-1.0226,-107.7668
17:04:09:158,-2.9078,-0.2294,6.7284,52.249,-0.2835,-0.5536,-0.6501,-107.5838
17:04:09:178,-3.1334,-0.8036,8.4984,51.7876,0.1878,-1.4699,-0.0833,-107.3881
17:04:09:199,-2.3225,-0.7804,9.2988,51.2023,0.4914,-1.4208,0.486,-107.2014
17:04:09:218,-0.6905,-0.1715,9.1266,50.9303,0.4447,-0.7457,0.678,-107.0407
17:04:09:238,0.5926,0.22,8.9843,50.5943,0.1411,0.0892,0.4868,-106.9081
17:04:09:258,0.5593,0.7174,9.5495,50.269,-0.0912,0.5466,0.2169,-106.7939
17:04:09:291,-0.0932,0.7735,10.3354,50.1922,-0.0578,0.481,0.0994,-106.689
17:04:09:299,-0.4547,0.6902,10.676,50.0561,0.1308,0.1728,0.1404,-106.5907
17:04:09:317,-0.4626,0.7277,10.6414,49.5553,0.2598,-0.1719,0.2378,-106.5907
17:04:09:337,-0.1099,0.6388,10.8963,48.9968,0.2011,-0.4095,0.2723,-106.5907
17:04:09:359,0.2017,0.6196,11.8061,48.4709,0.0617,-0.4871,0.2085,-106.5907
17:04:09:378,0.1968,0.4194,12.6368,48.0531,-0.037,-0.2856,0.1186,-106.5907
17:04:09:398,-0.0206,-0.3206,13.0124,47.3845,-0.2705,0.0352,-0.0177,-106.5907
17:04:09:417,-0.7203,-1.4235,14.5385,47.061,-0.5689,0.2693,-0.1127,-106.5907
17:04:09:438,-1.9011,-2.1488,15.7943,46.6902,-0.09,-0.1622,0.1136,-106.5907
17:04:09:459,-1.4672,-2.7958,14.8899,46.2369,0.4066,-0.3251,0.5172,-106.5907
17:04:09:478,-0.79,-2.506,12.5358,46.0412,0.6903,-0.3515,0.7282,-106.5907
17:04:09:498,-0.0061,-2.3465,10.1655,45.7644,0.4538,0.0368,0.7304,-106.5907
17:04:09:518,-0.1494,-1.7953,8.6862,45.4608,0.0782,0.252,0.5979,-106.5907
17:04:09:538,-0.7362,-1.2552,8.6342,45.2947,-0.2483,0.1358,0.5524,-106.5907
17:04:09:559,-1.3075,-0.8065,9.1805,45.1764,-0.1092,-0.2254,0.6692,-106.5907
17:04:09:578,-1.0765,-0.5934,8.7892,44.9179,0.28,-0.4808,0.8831,-106.5907
17:04:09:598,-0.2503,-0.2036,7.6192,44.6532,0.5811,-0.4787,1.0389,-106.699
17:04:09:618,0.6794,0.0819,6.1336,44.6629,0.5234,-0.3101,0.9956,-106.841
17:04:09:639,1.027,0.4576,5.7662,44.6642,0.1333,-0.1608,0.7812,-107.0118
17:04:09:658,0.7364,0.8074,7.0333,44.8197,-0.068,-0.178,0.6046,-107.2025
17:04:09:678,0.4183,0.8853,8.3151,44.9441,0.1557,-0.2922,0.5645,-107.4077
17:04:09:698,0.4609,0.7221,8.7025,44.9013,0.627,-0.4351,0.5545,-107.6273
17:04:09:718,0.7475,0.3666,7.7992,44.9441,0.9027,-0.355,0.5109,-107.8614
17:04:09:740,0.8743,0.383,6.9126,44.9634,0.7124,-0.137,0.4528,-108.1081
17:04:09:759,0.8947,0.4766,7.2601,44.8208,0.2955,-0.0283,0.3006,-108.3632
17:04:09:778,0.6683,0.4292,8.1429,44.8422,0.0314,0.0576,0.1537,-108.6198
17:04:09:800,0.5054,0.0957,9.2343,44.8691,-0.0246,0.0808,0.1078,-108.8733
17:04:09:818,1.1548,-0.72,9.94,44.8821,0.0679,0.0042,0.0794,-109.1229
17:04:09:838,1.7496,-1.1821,9.935,44.9045,-0.0214,-0.0729,-0.0176,-109.3673
17:04:09:858,1.5966,-1.1237,10.7248,44.7342,-0.3214,-0.0613,-0.1836,-109.6016
17:04:09:878,1.7788,-1.4786,11.8884,44.7745,-0.3978,0.0052,-0.3421,-109.8204
17:04:09:898,1.9236,-2.0529,12.1531,44.8701,-0.482,0.3829,-0.5114,-110.0181
17:04:09:917,1.4696,-2.4198,12.431,44.8354,-0.6487,0.3232,-0.7489,-110.1887
17:04:09:939,1.0074,-2.9372,14.2801,45.0744,-0.8192,0.2294,-0.9049,-110.3247
17:04:09:958,0.4353,-3.7092,15.7795,45.0727,-0.5666,0.1868,-0.8586,-110.4204
17:04:09:978,0.1729,-4.0923,15.3288,45.3915,-0.0101,0.2582,-0.5283,-110.4204
17:04:09:998,0.824,-3.5937,12.4243,45.383,0.2874,0.506,-0.1111,-110.4204
17:04:10:019,1.1322,-2.1317,9.8064,45.3195,0.2093,0.6347,0.0608,-110.4204
17:04:10:038,1.0711,-0.7844,7.858,45.6107,0.0304,0.5289,0.0491,-110.4204
17:04:10:058,1.2211,0.0768,6.8434,45.3468,-0.113,0.2779,-0.0036,-110.4204
17:04:10:078,1.0677,0.2417,6.3897,45.3094,-0.3034,-0.0609,-0.161,-110.4204
17:04:10:098,0.8288,0.6297,6.6517,45.4284,-0.4322,-0.2794,-0.1525,-110.4204
17:04:10:119,0.6624,0.9273,7.2837,45.4786,-0.4179,-0.3518,-0.1194,-110.4204
17:04:10:137,0.6007,1.1606,8.1224,45.6028,-0.0796,-0.4198,-0.06,-110.4204
17:04:10:158,0.8896,1.0149,7.7265,45.8193,0.3231,-0.3758,0.0373,-110.4204
17:04:10:178,1.0475,1.0867,6.9512,45.8954,0.3855,-0.2613,0.0675,-110.4204
17:04:10:198,1.1266,1.1041,6.9847,46.0269,0.1426,-0.2151,-0.0394,-110.4204
17:04:10:219,0.8973,1.0218,7.9938,46.0303,-0.1086,-0.168,-0.1326,-110.4204
17:04:10:238,0.4237,1.0968,9.3939,46.0394,-0.1656,-0.1273,-0.1401,-110.4204
17:04:10:258,0.4693,0.9321,10.29,45.9727,0.0052,-0.111,-0.0705,-110.4204
17:04:10:277,0.8296,0.9632,10.4859,45.9464,0.183,-0.0926,-0.017,-110.4204
17:04:10:298,1.1931,0.9727,10.3458,45.9117,0.214,-0.0201,-0.067,-110.4204
17:04:10:320,1.2781,0.8702,10.441,45.9583,0.1029,0.0955,-0.162,-110.4204
17:04:10:338,1.0099,0.5497,11.1863,45.8965,-0.0363,0.2133,-0.2306,-110.4204
17:04:10:358,0.5935,0.1876,12.5576,46.186,-0.0088,0.2588,-0.2506,-110.4204
17:04:10:378,0.168,0.0165,12.9492,46.1554,0.1931,0.4433,-0.189,-110.4204
17:04:10:398,-0.2275,0.0974,11.8191,45.9423,0.2597,0.7634,-0.1267,-110.4204
17:04:10:418,-0.9884,-0.1886,11.1477,46.0161,0.0637,0.7932,-0.1392,-110.4204
17:04:10:438,-1.18,-0.845,11.4407,46.0132,-0.1703,0.41,-0.0741,-110.4204
17:04:10:458,-1.7094,-1.6229,12.4145,46.2817,0.0025,-0.2942,0.1201,-110.4204
17:04:10:477,-1.0458,-1.8772,12.3671,46.2251,0.2401,-0.7179,0.4405,-110.4204
17:04:10:499,-0.1103,-1.4771,11.5975,46.52,0.4286,-0.7804,0.512,-110.4204
17:04:10:518,0.7858,-1.2136,10.1128,46.8914,0.2973,-0.3935,0.3695,-110.4204
17:04:10:538,0.6171,-0.9329,8.8504,46.5922,-0.0225,-0.0055,0.1308,-110.4204
17:04:10:558,0.0594,-0.7451,8.4441,46.4059,-0.3596,0.1616,0.0067,-110.4204
17:04:10:578,-0.344,-0.5668,8.253,46.6678,-0.4166,0.1347,0.0291,-110.4204
17:04:10:600,-0.5783,-0.3758,7.7478,46.579,-0.2684,-0.0199,0.1596,-110.4204
17:04:10:618,-0.3944,-0.2894,7.4265,46.7379,-0.0679,-0.2531,0.3237,-110.4204
17:04:10:638,0.1894,-0.0877,7.3189,46.8749,0.1335,-0.4524,0.4268,-110.4204
17:04:10:658,0.6425,0.2025,7.1923,47.0405,0.2251,-0.5356,0.3857,-110.4204
17:04:10:678,0.5657,0.4259,7.4158,46.8562,0.2523,-0.4207,0.2691,-110.5111
17:04:10:699,0.3474,0.3984,7.6316,46.9277,0.3365,-0.1616,0.1985,-110.6083
17:04:10:718,0.4053,0.2225,7.4932,46.7648,0.4316,0.0971,0.1865,-110.7105
17:04:10:737,0.5798,0.2556,7.2175,46.9877,0.4002,0.1673,0.1424,-110.8171
17:04:10:758,0.84,0.2857,7.5357,47.1063,0.2267,0.0586,0.0044,-110.9254
17:04:10:777,0.4606,0.245,8.5917,47.0882,0.0158,-0.1191,-0.1756,-111.0293
17:04:10:798,-0.0952,-0.0974,10.2242,47.2001,-0.037,-0.177,-0.1899,-111.1236
17:04:10:818,-0.4599,-0.4226,11.298,47.3536,0.1032,-0.0536,-0.0568,-111.1236
17:04:10:838,0.055,-0.7848,11.3255,47.3769,0.1674,0.0895,0.0803,-111.1236
17:04:10:858,0.8479,-1.0508,11.2871,47.6864,-0.0112,0.095,0.0474,-111.1236
17:04:10:880,1.4635,-1.3409,11.8532,47.8262,-0.2694,0.0405,-0.0923,-111.1236
17:04:10:898,2.1514,-1.6374,12.3789,47.7099,-0.4485,0.0773,-0.2479,-111.1236
17:04:10:918,2.6,-1.7133,12.7676,47.7783,-0.6909,0.1472,-0.4963,-111.1236
17:04:10:938,2.1284,-1.968,13.8879,47.5323,-0.8289,0.1957,-0.8241,-111.1236
17:04:10:958,1.4158,-2.4634,14.5266,47.2481,-0.568,0.2673,-0.8628,-111.1236
17:04:10:978,1.0851,-2.8622,13.5531,47.0601,-0.077,0.3582,-0.6368,-111.1236
17:04:10:998,1.4061,-2.6655,10.9651,47.0464,0.2098,0.3572,-0.3408,-111.1236
17:04:11:018,1.3392,-1.6166,8.5942,47.3066,0.0283,0.2671,-0.251,-111.1236
17:04:11:039,0.3782,-0.112,7.9442,47.3066,-0.4658,0.035,-0.3596,-111.1236
17:04:11:057,-0.1263,0.5024,8.9925,47.2712,-0.6334,-0.1788,-0.3866,-111.1236
17:04:11:079,-0.2322,0.7919,9.2624,46.9992,-0.4335,-0.142,-0.3172,-111.1236
17:04:11:098,-0.3665,1.0781,8.8054,46.6654,-0.0691,0.1168,-0.2064,-111.1236
17:04:11:118,-0.4462,1.0691,7.2994,46.2232,0.3142,0.3273,-0.1156,-111.0296
17:04:11:138,-0.2858,0.895,5.4594,46.1368,0.4111,0.4475,-0.0681,-110.9359
17:04:11:158,-0.0728,0.7444,4.6044,46.2931,0.238,0.3547,-0.0966,-110.8429
17:04:11:178,0.1474,0.5168,5.3951,46.3002,-0.0001,0.0112,-0.15,-110.7487
17:04:11:199,0.5634,0.2029,7.433,46.4483,-0.0177,-0.4003,-0.1478,-110.6518
17:04:11:218,0.8982,-0.01,9.4666,46.4942,0.1493,-0.7006,-0.0966,-110.5533
17:04:11:238,1.0824,-0.2463,10.9275,46.2959,0.4587,-0.5422,0.0394,-110.4562
17:04:11:260,1.0418,-0.1728,10.7128,46.2451,0.6479,-0.0244,0.2691,-110.4562
17:04:11:306,1.0735,0.3015,9.6902,46.104,0.4865,0.4753,0.4145,-110.4562
17:04:11:308,1.1846,0.9829,9.1885,45.806,0.1595,0.7341,0.4738,-110.4562
17:04:11:318,0.9329,1.8049,9.7421,45.8554,-0.0508,0.5765,0.4483,-110.4562
17:04:11:338,0.4531,2.2488,10.646,45.7931,0.0197,0.0561,0.3858,-110.4562
17:04:11:358,0.1503,2.1037,11.5817,46.0063,0.1658,-0.47,0.3785,-110.4562
17:04:11:378,0.2226,1.6889,12.2629,45.9995,0.248,-0.5973,0.3857,-110.4562
17:04:11:398,0.3478,1.1438,12.5679,46.0033,0.1701,-0.2115,0.334,-110.4562
17:04:11:418,0.1747,0.0213,12.4157,46.0515,0.0296,0.3421,0.2462,-110.4562
17:04:11:437,-0.5185,-0.9687,12.4556,45.7332,-0.0773,0.3492,0.301,-110.4562
17:04:11:458,-0.5943,-1.6469,13.208,45.8096,0.0047,-0.0735,0.4931,-110.4562
17:04:11:478,0.0557,-1.957,13.4369,45.585,0.2881,-0.5393,0.6557,-110.4562
17:04:11:498,0.7639,-1.9649,12.6106,45.1593,0.4339,-0.7785,0.6504,-110.4562
17:04:11:518,1.256,-1.7613,11.3514,44.7933,0.2354,-0.6047,0.4987,-110.5606
17:04:11:538,1.1494,-1.4592,10.0996,44.2536,-0.1184,-0.1595,0.2419,-110.6766
17:04:11:558,0.4143,-1.1739,9.1279,43.8768,-0.4582,0.2952,0.0671,-110.7948
17:04:11:578,-0.4368,-0.8647,8.3645,43.5577,-0.581,0.5554,0.0948,-110.9095
17:04:11:598,-1.0105,-0.4256,7.7118,43.2711,-0.3955,0.4969,0.308,-111.0244
17:04:11:618,-0.9253,0.0306,6.9396,42.918,-0.0033,0.1657,0.5701,-111.1486
17:04:11:641,-0.5034,0.4021,5.8299,42.9171,0.2913,-0.2355,0.7044,-111.2907
17:04:11:659,-0.4014,0.7149,5.2616,42.6502,0.2694,-0.528,0.7105,-111.4561
17:04:11:678,-0.5412,0.8584,5.7057,42.5181,0.1449,-0.5922,0.7117,-111.6389
17:04:11:698,-1.1731,0.8552,7.1897,42.3635,0.1716,-0.5283,0.8463,-111.8416
17:04:11:718,-0.7974,0.9298,8.6426,42.022,0.5702,-0.3684,1.1816,-112.071
17:04:11:739,1.2929,1.177,8.0783,41.5443,0.9892,0.0814,1.3325,-112.3387
17:04:11:758,3.0158,1.4513,6.3055,41.218,0.7676,0.5283,0.9066,-112.6489
17:04:11:778,3.4937,0.6848,6.0002,41.1159,-0.0394,0.3954,0.0349,-112.9716
17:04:11:798,1.4885,-0.0496,8.7631,41.1921,-0.729,-0.268,-0.673,-113.278
17:04:11:818,-0.4869,-0.9453,12.6058,40.8542,-0.5535,-0.7711,-0.8231,-113.5481
17:04:11:838,-0.947,-1.6839,14.0461,40.5446,0.2227,-0.5655,-0.5581,-113.7829
17:04:11:858,-0.4119,-1.913,11.8324,40.2351,0.6171,0.2625,-0.2475,-113.9956
17:04:11:878,0.1794,-1.6375,9.9243,39.8308,0.1399,0.7715,-0.2439,-114.1952
17:04:11:899,0.8595,-1.4191,9.9904,39.6459,-0.418,0.8508,-0.4065,-114.3785
17:04:11:918,1.5411,-1.3937,10.9765,39.4339,-0.6647,0.5272,-0.6226,-114.5396
17:04:11:938,1.6146,-1.2986,12.7454,39.2411,-0.6945,-0.0258,-0.9297,-114.6707
17:04:11:958,1.3442,-1.5234,14.2448,39.0197,-0.6926,-0.2338,-1.1102,-114.7624
17:04:11:977,1.1466,-2.0136,15.372,38.7631,-0.4639,-0.0079,-1.0119,-114.7624
17:04:11:998,1.665,-1.9554,14.255,38.405,0.0212,0.4728,-0.7538,-114.7624
17:04:12:021,2.0505,-1.2973,11.1542,37.9295,0.337,0.8403,-0.5322,-114.7624
17:04:12:038,2.3052,-0.7576,8.3025,37.5593,0.2656,0.6502,-0.5866,-114.7624
17:04:12:059,1.8117,-1.3655,6.9293,37.6772,-0.1841,-0.0494,-0.8825,-114.7624
17:04:12:078,0.5982,-1.3629,7.6543,37.5048,-0.648,-0.3459,-0.8945,-114.7624
17:04:12:098,-0.1689,-1.3702,8.4592,37.2661,-0.6902,-0.0988,-0.6224,-114.6535
17:04:12:119,0.0249,-0.9627,8.0928,37.1266,-0.4153,0.523,-0.1878,-114.53
17:04:12:138,0.5165,-0.2126,6.1329,37.0338,-0.0557,0.9132,0.1447,-114.4069
17:04:12:158,1.2738,0.456,4.6845,36.9972,-0.0184,0.7156,0.1875,-114.2936
17:04:12:177,0.9602,0.95,4.8673,36.7449,-0.1634,0.0668,-0.0178,-114.1885
17:04:12:198,-0.1301,1.1665,6.4646,36.8268,-0.2771,-0.7631,-0.3053,-114.0828
17:04:12:218,-0.9468,0.8778,8.837,36.8929,-0.1987,-1.2535,-0.3281,-113.9685
17:04:12:238,-0.4342,0.3842,10.4777,36.7587,0.1017,-1.0831,-0.0898,-113.8483
17:04:12:258,0.926,0.4409,10.5452,36.5792,0.3573,-0.4089,0.1935,-113.7323
17:04:12:278,1.5847,1.1955,9.8336,36.2958,0.2836,0.1606,0.21,-113.6283
17:04:12:298,1.4394,1.7661,9.9956,36.3661,-0.0073,0.3511,-0.0364,-113.533
17:04:12:318,0.9427,1.7893,11.0135,36.2191,-0.1257,0.2067,-0.3003,-113.4367
17:04:12:338,0.494,1.1429,12.2291,36.3028,-0.0223,0.0186,-0.343,-113.3317
17:04:12:358,0.0975,0.6556,13.1124,36.2834,0.1976,-0.0868,-0.131,-113.2198
17:04:12:378,0.0717,0.5275,13.6502,36.1353,0.4061,-0.1289,0.1222,-113.1099
17:04:12:401,0.5441,1.0905,13.4284,36.1037,0.5393,0.1337,0.2736,-113.0098
17:04:12:418,0.9126,0.9678,12.506,35.9969,0.5365,0.5882,0.1079,-113.0098
17:04:12:438,0.4927,0.438,11.4241,35.9085,0.3536,0.7693,0.022,-113.0098
17:04:12:458,-0.0403,-0.3235,11.4997,35.84,0.1668,0.3278,0.0214,-113.0098
17:04:12:478,-0.3536,-1.2051,12.3492,36.1795,0.2329,-0.1265,0.1606,-113.0098
17:04:12:500,-0.4243,-1.2201,12.0535,36.3643,0.4497,-0.5752,0.357,-113.0098
17:04:12:518,0.084,-1.0356,11.6736,36.7374,0.5007,-0.7488,0.4554,-113.0098
17:04:12:538,0.5837,-0.4837,10.7106,36.8813,0.5236,-0.6975,0.4394,-113.0098
17:04:12:558,1.0766,-0.1515,9.4876,37.0005,0.3601,-0.4144,0.3148,-113.0098
17:04:12:578,0.9401,0.1572,8.6079,36.7607,0.0423,-0.1615,0.0998,-113.0098
17:04:12:599,0.5056,0.2155,8.2961,36.8899,-0.1162,0.1326,-0.0334,-113.0098
17:04:12:618,-0.0071,0.1554,7.4414,37.1291,-0.0803,0.3004,-0.0504,-113.0098
17:04:12:638,-0.1479,-0.2249,6.2166,37.2862,-0.0034,0.2194,0.0402,-113.0098
17:04:12:658,0.0879,-0.3974,5.1915,37.5305,-0.0604,-0.186,0.1949,-113.0098
17:04:12:678,0.5167,0.1923,5.7836,37.4189,-0.234,-0.6272,0.2151,-113.0098
17:04:12:699,0.4801,0.8304,7.8946,37.7265,-0.1097,-0.6923,-0.0173,-113.0098
17:04:12:718,0.2499,0.6833,8.7012,37.5842,0.2907,-0.1191,-0.1948,-113.0098
17:04:12:738,0.0824,0.2597,7.4496,37.493,0.5293,0.7677,-0.1438,-113.0098
17:04:12:757,0.3281,-0.0004,5.8547,37.911,0.2463,1.2849,-0.1005,-113.0098
17:04:12:780,0.3356,0.0149,5.9232,38.0274,-0.334,1.1365,-0.1662,-113.0098
17:04:12:798,-0.112,-0.0342,8.047,37.9394,-0.6818,0.4915,-0.259,-113.0098
17:04:12:818,-0.8622,-0.1972,11.2194,38.1691,-0.4928,-0.1664,-0.2276,-113.0098
17:04:12:837,-0.7312,-0.859,12.7486,38.0475,0.1497,-0.4025,-0.0242,-113.0098
17:04:12:857,-0.0053,-1.089,11.2563,37.8585,0.386,-0.2661,0.1253,-113.0098
17:04:12:879,1.0052,-1.0425,10.1045,37.9959,-0.0679,-0.0952,-0.0046,-113.0098
17:04:12:898,1.3415,-0.9561,11.1412,38.1468,-0.668,0.0866,-0.2479,-113.0098
17:04:12:918,1.3164,-1.3523,12.9459,38.2866,-0.8253,0.1996,-0.5276,-113.0098
17:04:12:938,0.6086,-1.8946,13.7439,38.7059,-0.7823,0.1436,-0.756,-113.0098
17:04:12:958,-0.1744,-2.297,14.5275,38.7167,-0.6449,0.1609,-0.7286,-112.9058
17:04:12:979,-0.1698,-2.5253,14.6108,38.6487,-0.326,0.2505,-0.5008,-112.7838
17:04:12:998,0.5892,-2.6645,13.6675,38.6309,-0.0126,0.2282,-0.276,-112.6504
17:04:13:018,1.1326,-2.3601,11.8901,38.6289,0.0732,0.2125,-0.1264,-112.5131
17:04:13:038,0.7897,-1.5708,10.3881,38.7749,-0.0404,0.2777,-0.0829,-112.3759
17:04:13:057,-0.0072,-0.8495,9.1078,39.0177,-0.1094,0.3226,-0.0364,-112.24
17:04:13:079,-0.0722,-0.3536,7.8877,39.1085,-0.1342,0.2253,0.027,-112.1075
17:04:13:098,0.1322,-0.2471,6.841,39.0525,-0.1772,0.0367,0.0363,-111.9801
17:04:13:118,0.33,0.1547,6.541,39.1081,-0.2727,-0.1434,0.015,-111.8574
17:04:13:138,0.3083,0.4114,7.0862,39.1047,-0.28,-0.165,-0.0913,-111.7381
17:04:13:161,-0.2197,0.7685,7.7148,39.2383,-0.0022,-0.1453,-0.0587,-111.6189
17:04:13:178,-0.1096,0.5041,7.1681,39.6219,0.3708,-0.0694,0.08,-111.5031
17:04:13:199,0.4246,0.4291,6.0259,39.848,0.4181,0.0355,0.2208,-111.3953
17:04:13:218,1.1216,0.6833,5.768,40.1701,0.2119,0.0284,0.1224,-111.2979
17:04:13:238,1.1941,0.6205,6.6658,40.2326,-0.0813,-0.1706,-0.1051,-111.2054
17:04:13:260,0.4655,0.4647,8.7462,40.0034,-0.2432,-0.3763,-0.2015,-111.1098
17:04:13:278,-0.2427,0.4194,11.5495,40.4515,-0.0614,-0.3332,-0.0112,-111.0119
17:04:13:318,-0.0493,0.6579,12.5993,40.8445,0.5123,-0.0924,0.3006,-110.9201
17:04:13:320,0.9651,0.9616,10.7775,41.2206,0.9007,-0.0064,0.4527,-110.9201
17:04:13:337,1.7013,1.5881,9.1128,41.7158,0.6819,-0.0734,0.2611,-110.9201
17:04:13:358,1.4293,1.9981,9.4274,42.011,0.2045,-0.2609,-0.1106,-110.9201
17:04:13:378,0.4656,1.6732,11.1983,42.2823,-0.0423,-0.4757,-0.3377,-110.9201
17:04:13:398,-0.2,0.8761,12.9603,42.4324,-0.0006,-0.4445,-0.3359,-110.9201
17:04:13:418,-0.5921,0.778,13.2845,42.5968,0.177,0.1115,-0.0952,-110.9201
17:04:13:438,0.015,0.7096,11.8297,42.6636,-0.0208,0.7393,0.1621,-110.9201
17:04:13:459,0.656,0.2277,12.2522,43.1279,-0.5293,0.964,0.1293,-110.9201
17:04:13:478,-0.6549,-0.4945,13.1167,43.202,-0.2237,0.196,-0.1337,-110.9201
17:04:13:498,-2.1384,-2.0913,12.7194,43.3165,0.1486,-0.541,-0.0873,-110.9201
17:04:13:518,-2.9708,-2.6328,11.2156,43.4841,0.3987,-0.9503,0.4293,-110.9201
17:04:13:538,-1.4165,-1.9435,10.4677,43.8137,0.1785,-0.693,0.9786,-110.9201
17:04:13:558,0.1908,-0.8049,9.3275,44.1792,0.0023,-0.2604,1.0311,-110.9201
17:04:13:577,1.0765,-0.2818,7.9681,44.3117,-0.3412,0.2309,0.8022,-110.9201
17:04:13:598,0.9565,0.1868,6.7758,44.6378,-0.5975,0.4075,0.4591,-110.9201
17:04:13:618,0.2309,0.3712,6.5945,44.8156,-0.6757,0.3513,0.2436,-110.9201
17:04:13:641,-0.5324,0.2731,6.7992,44.9172,-0.3226,-0.0384,0.2659,-110.9201
17:04:13:659,-0.6995,0.0732,6.2618,45.0167,0.1977,-0.4468,0.5175,-110.9201
17:04:13:678,0.1714,-0.2243,5.2446,44.9855,0.4404,-0.7159,0.6816,-110.9201
17:04:13:698,1.3195,-0.0237,5.4544,45.2692,0.2017,-0.8463,0.5155,-111.0274
17:04:13:718,1.4031,0.1875,7.5764,45.5297,-0.1223,-0.7539,0.1114,-111.1458
17:04:13:740,0.1593,0.2791,9.8507,45.8177,-0.1382,-0.3278,-0.146,-111.261
17:04:13:758,-0.7405,-0.0912,10.3515,46.506,0.2253,0.2517,-0.0825,-111.3679
17:04:13:777,-0.6037,-0.3415,8.8659,47.0491,0.4744,0.6859,0.1193,-111.4716
17:04:13:798,0.2126,-0.2931,7.4657,47.0873,0.3641,0.6349,0.1747,-111.5786
17:04:13:818,0.6586,-0.121,7.5425,47.4826,-0.0429,0.3286,-0.012,-111.6876
17:04:13:838,0.2655,-0.1337,9.5628,47.4316,-0.363,-0.1775,-0.2934,-111.79
17:04:13:858,-0.222,-0.6382,12.0386,47.4663,-0.3513,-0.468,-0.4847,-111.79
17:04:13:878,-0.9136,-1.2429,12.9905,47.6165,-0.2719,-0.2945,-0.4992,-111.79
17:04:13:898,-1.7364,-1.3418,13.2832,47.6867,-0.3261,0.1297,-0.3538,-111.79
17:04:13:919,-0.8378,-1.8296,13.7614,48.0395,-0.3694,0.3534,-0.1509,-111.79
17:04:13:938,1.1015,-2.2705,13.7295,48.6142,-0.3429,0.3175,-0.143,-111.79
17:04:13:958,1.7396,-1.978,14.1252,49.0418,-0.472,0.0455,-0.3526,-111.79
17:04:13:978,1.6936,-2.0871,15.5285,49.1272,-0.5258,0.1419,-0.6061,-111.79
17:04:13:998,1.2359,-2.6204,15.7345,49.1676,-0.2191,0.3347,-0.6239,-111.79
17:04:14:020,1.675,-3.1579,14.4627,49.2292,0.0565,0.7111,-0.3666,-111.79
17:04:14:038,2.3564,-2.7968,12.0092,49.1937,0.2796,0.7754,-0.0728,-111.79
17:04:14:058,2.7677,-1.5542,9.2694,49.4062,0.1715,0.6324,0.1399,-111.79
17:04:14:078,2.2402,-0.1348,7.862,49.6611,-0.0438,0.3386,0.1168,-111.79
17:04:14:098,1.1664,0.615,7.3393,49.7449,-0.0163,-0.0933,-0.038,-111.79
17:04:14:119,0.4273,0.4938,6.7958,50.2115,0.1162,-0.274,-0.1149,-111.79
17:04:14:138,-0.1807,0.5429,6.4243,50.2101,0.2452,-0.406,-0.0316,-111.79
17:04:14:157,-0.1421,0.3153,6.2208,50.4782,0.33,-0.4845,0.114,-111.79
17:04:14:178,0.4224,0.8618,6.6062,50.8578,0.3361,-0.4781,0.1737,-111.79
17:04:14:198,0.4375,0.9759,7.2574,51.1801,0.2926,-0.3066,0.0565,-111.79
17:04:14:218,0.1212,1.049,8.0286,51.2868,0.2388,0.0544,-0.0439,-111.79
17:04:14:238,0.1571,0.673,8.191,51.3588,0.2891,0.234,-0.0664,-111.79
17:04:14:257,0.1376,0.6745,8.2648,51.6589,0.2398,0.2199,0.0229,-111.79
17:04:14:278,0.6679,0.8322,8.8763,51.8586,0.1142,0.1347,0.0688,-111.79
17:04:14:298,0.8889,1.0989,10.0495,51.9362,-0.0661,0.0414,0.003,-111.79
17:04:14:318,0.7054,0.9429,11.9083,52.4971,0.0345,-0.1641,-0.0305,-111.79
17:04:14:338,0.5692,0.4173,13.3402,52.7474,0.4591,-0.3409,0.0585,-111.79
17:04:14:358,0.6455,0.2595,13.1821,52.8925,1.0142,-0.2254,0.0968,-111.79
17:04:14:378,0.5559,0.4092,11.3626,53.1474,1.0774,0.0157,0.1213,-111.79
17:04:14:401,0.4352,0.5926,10.6706,53.5121,0.5554,0.4057,-0.0474,-111.79
17:04:14:418,-0.4223,0.8697,11.1442,53.8297,0.1084,0.9812,-0.1381,-111.79
17:04:14:438,-1.0663,0.49,11.4551,54.0374,0.0606,0.9339,-0.1064,-111.79
17:04:14:458,-1.444,0.2024,11.4797,54.6216,0.1711,0.2081,0.0484,-111.79
17:04:14:478,-1.2009,0.0765,11.9919,54.6475,0.2118,-0.1238,0.1692,-111.79
17:04:14:499,-0.8835,-0.0621,11.8865,54.577,0.4082,-0.1394,0.2154,-111.79
17:04:14:518,-1.1539,-0.0397,10.5455,54.7068,0.4932,-0.1692,0.2334,-111.79
17:04:14:538,-0.798,-0.0899,9.6049,54.6196,0.3444,-0.4224,0.2619,-111.79
17:04:14:558,-0.3432,-0.0996,9.6209,54.5409,0.2282,-0.5831,0.2962,-111.79
17:04:14:577,0.5046,-0.2222,9.2548,54.3683,0.2025,-0.4296,0.3473,-111.79
17:04:14:598,1.1774,-0.2053,8.3757,54.2599,0.1751,-0.0531,0.3837,-111.79
17:04:14:618,1.4247,-0.2989,7.1184,54.2136,0.0668,0.1974,0.3836,-111.79
17:04:14:638,1.4184,-0.2691,6.4694,54.3665,-0.0643,0.1266,0.2175,-111.79
17:04:14:658,0.5737,-0.065,6.5715,54.2008,-0.2022,-0.0683,0.0723,-111.79
17:04:14:678,-0.131,0.3385,7.2548,54.4188,-0.0801,-0.1166,0.0241,-111.79
17:04:14:699,0.4343,0.4616,6.5845,54.3841,0.2252,0.1307,0.0966,-111.79
17:04:14:718,1.0625,0.6355,5.0663,54.3338,0.2807,0.1988,0.0888,-111.79
17:04:14:738,0.6584,1.2949,4.9271,54.4945,0.0437,-0.1156,0.0021,-111.79
17:04:14:758,-0.1878,2.0001,6.6547,54.4475,-0.1868,-0.7613,-0.1329,-111.79
17:04:14:779,-0.4428,2.0361,9.2976,54.3992,-0.0914,-1.3399,-0.3645,-111.79
17:04:14:798,-0.1511,1.4814,11.1716,54.4483,0.1185,-0.7318,-0.3847,-111.79
17:04:14:818,0.2482,0.6733,10.7997,54.4658,0.4329,0.1937,-0.2114,-111.79
17:04:14:838,0.3875,0.8883,9.3755,54.419,0.3449,0.6226,-0.0043,-111.79
17:04:14:858,0.939,1.5227,9.2452,54.4398,0.0041,0.5698,-0.0077,-111.79
17:04:14:879,1.2617,1.6925,10.3154,54.3326,-0.29,0.2051,-0.3082,-111.79
17:04:14:898,0.8753,0.9063,12.3768,54.3074,-0.3719,-0.3196,-0.6866,-111.79
17:04:14:918,0.2478,0.1361,14.161,54.3031,-0.1221,-0.548,-0.6111,-111.79
17:04:14:937,1.477,-0.6003,14.1367,53.9566,0.309,-0.3504,-0.2682,-111.79
17:04:14:958,2.9479,-0.4594,11.9992,53.7118,0.3718,0.107,-0.0718,-111.79
17:04:14:978,3.598,-0.4856,10.8321,53.6607,-0.1578,0.257,-0.453,-111.79
17:04:14:998,2.4678,-0.7706,11.7904,53.3751,-0.6141,0.4194,-0.8671,-111.79
17:04:15:018,1.1343,-1.3548,12.3012,53.0243,-0.4993,0.6201,-0.8902,-111.79
17:04:15:038,0.3669,-1.6331,11.3717,52.7871,-0.0912,0.5504,-0.594,-111.6793
17:04:15:058,0.6429,-1.3188,9.383,52.8214,0.2109,0.3123,-0.2145,-111.5555
17:04:15:078,1.0441,-0.4345,7.7547,52.2638,0.1175,0.0324,-0.0007,-111.4312
17:04:15:098,1.2405,0.583,7.2868,52.2612,-0.2088,-0.1019,-0.0864,-111.3105
17:04:15:118,0.8027,1.0719,7.4766,52.0098,-0.5187,-0.0021,-0.3567,-111.1872
17:04:15:138,-0.0274,1.0094,7.8523,51.7916,-0.6494,0.1538,-0.5351,-111.0524
17:04:15:159,-0.7213,0.679,7.9788,52.0279,-0.5551,0.2406,-0.5035,-110.9025
17:04:15:178,-1.1245,0.668,7.6065,52.3184,-0.346,0.1972,-0.3123,-110.7411
17:04:15:198,-0.8357,0.8823,7.3526,52.1171,-0.1754,0.0246,-0.1166,-110.5759
17:04:15:218,-0.2568,1.2045,7.5678,51.9598,-0.0487,-0.1542,-0.0218,-110.4129
17:04:15:238,0.2301,1.612,8.1125,51.746,0.0933,-0.173,-0.0335,-110.2543
17:04:15:259,0.1301,1.7641,8.4108,51.2269,0.2474,-0.0787,-0.0867,-110.099
17:04:15:278,0.0667,1.4448,8.2722,50.9314,0.3517,-0.06,-0.0484,-109.9457
17:04:15:323,0.1435,1.1658,8.2491,50.7891,0.267,-0.1391,0.0794,-109.7966
17:04:15:325,0.3274,1.3924,9.0465,50.5053,0.078,-0.0861,0.2619,-109.6562
17:04:15:338,0.6475,1.806,10.1479,50.3219,0.0521,0.0797,0.381,-109.5301
17:04:15:358,0.9847,1.8886,10.5856,50.2141,0.1722,0.1542,0.3921,-109.4212
17:04:15:378,1.3743,1.761,10.6795,50.0439,0.2361,0.1034,0.362,-109.3292
17:04:15:398,1.6789,1.4601,11.0516,49.9618,0.2344,0.0564,0.2629,-109.3292
17:04:15:418,1.1456,1.1116,11.4196,49.7374,0.2535,0.1437,0.1454,-109.3292
17:04:15:438,-0.101,1.119,11.3178,49.3026,0.2615,0.3226,0.1647,-109.3292
17:04:15:458,-0.7105,0.6885,10.9288,49.1897,0.1292,0.2429,0.2432,-109.3292
17:04:15:478,-0.7526,0.2782,11.4706,48.8336,-0.27,-0.0831,0.2789,-109.3292
17:04:15:498,-0.3815,0.1021,13.4395,48.598,-0.4532,-0.1977,0.324,-109.3292
17:04:15:518,-0.5798,-0.0445,14.098,48.2464,-0.1595,-0.1465,0.3381,-109.3292
17:04:15:540,-0.8379,-0.1468,13.11,48.1311,0.2097,-0.2045,0.3711,-109.3292
17:04:15:559,-0.6364,-0.0184,11.494,48.3914,0.505,-0.235,0.4779,-109.3292
17:04:15:578,-0.0334,-0.0248,9.3294,48.3311,0.655,-0.2011,0.5075,-109.3292
17:04:15:598,0.4708,-0.2497,7.5882,48.3064,0.3899,-0.2216,0.4168,-109.3292
17:04:15:618,0.1204,0.3927,7.1684,48.0919,-0.1455,-0.1449,0.3361,-109.3292
17:04:15:641,0.1289,0.8044,8.1823,47.6249,-0.5633,0.0072,0.3349,-109.3292
17:04:15:658,0.1078,1.1346,8.8231,47.3578,-0.4456,0.3193,0.3064,-109.3292
17:04:15:678,0.0294,1.1458,7.9196,47.176,-0.1035,0.4865,0.363,-109.3292
17:04:15:698,0.2248,1.0068,6.5145,46.6501,0.1038,0.417,0.4322,-109.4202
17:04:15:718,0.6365,1.0674,5.8862,46.2889,0.1016,0.085,0.3501,-109.5236
17:04:15:739,0.4712,1.701,6.2909,46.426,-0.0775,-0.3008,0.3061,-109.6363
17:04:15:758,0.3534,1.5954,7.602,46.3887,-0.0911,-0.6441,0.0705,-109.7554
17:04:15:778,-0.0115,1.3894,8.1998,46.6681,0.0258,-0.8055,-0.0747,-109.8721
17:04:15:798,-0.0554,0.9179,8.4314,46.6158,0.0009,-0.6901,-0.0773,-109.9822
17:04:15:818,-0.2103,0.6207,8.9874,46.3179,-0.1321,-0.2432,0.0447,-110.0861
17:04:15:839,-0.4461,0.6342,9.7197,45.6161,-0.2439,0.088,0.2198,-110.1889
17:04:15:858,-0.4856,0.6543,10.3069,45.3091,-0.2883,0.0727,0.2987,-110.2973
17:04:15:878,-0.0577,0.5788,11.0239,44.9248,-0.2509,-0.2448,0.2991,-110.4117
17:04:15:898,0.8748,0.1343,11.3673,44.8321,-0.2004,-0.5208,0.2317,-110.5324
17:04:15:921,1.4148,-0.1689,11.6365,44.6214,-0.2241,-0.5254,0.1969,-110.6562
17:04:15:938,2.142,-0.5073,11.6154,44.4288,-0.2832,-0.4586,0.1309,-110.7818
17:04:15:959,2.7628,-0.9486,11.5403,44.2912,-0.5551,-0.5411,-0.1165,-110.9049
17:04:15:977,2.4272,-1.1007,12.9805,44.4785,-1.0466,-0.4189,-0.4907,-111.0142
17:04:15:998,1.4183,-1.2278,15.0171,44.2756,-1.1363,0.1596,-0.7386,-111.0142
17:04:16:020,0.7194,-1.9144,15.4064,43.9827,-0.633,0.6438,-0.6427,-111.0142
17:04:16:038,1.3937,-2.6256,13.1509,44.0121,0.0138,0.7184,-0.2682,-111.0142
17:04:16:059,2.2444,-2.414,10.3741,43.797,0.2464,0.4147,0.0036,-111.0142
17:04:16:078,1.979,-1.2778,8.969,43.7063,0.1055,-0.0225,-0.0029,-111.0142
17:04:16:098,1.2984,-0.3147,8.8005,43.8084,0.0053,-0.2763,-0.128,-111.0142
17:04:16:119,0.699,0.0041,8.2677,43.7908,0.0628,-0.1782,-0.2061,-111.0142
17:04:16:138,0.5198,0.0646,7.1302,43.7447,0.0787,0.1328,-0.1703,-111.0142
17:04:16:158,0.8763,0.261,5.9395,43.7869,-0.0319,0.3815,-0.1073,-111.0142
17:04:16:178,1.2332,0.6806,5.4102,43.7693,-0.2556,0.3536,-0.1528,-111.0142
17:04:16:199,0.7204,0.9944,6.0298,43.3263,-0.318,-0.0327,-0.2841,-111.0142
17:04:16:218,0.1868,0.8707,7.3381,43.0513,-0.2521,-0.4924,-0.3301,-111.0142
17:04:16:238,-0.2317,0.6168,8.7713,43.0572,-0.0066,-0.6473,-0.2038,-111.0142
17:04:16:258,0.2198,0.1868,9.2452,42.9585,0.2299,-0.3415,0.0317,-111.0142
17:04:16:278,0.8447,0.078,8.9229,42.9375,0.2539,0.1778,0.3195,-111.0142
17:04:16:301,1.5721,0.6693,8.9385,43.2157,0.1212,0.5075,0.4751,-111.0142
17:04:16:318,2.0965,1.4068,9.0455,43.2452,-0.0197,0.5025,0.3148,-111.0142
17:04:16:338,1.8248,1.835,9.3438,43.1581,-0.1909,0.3026,-0.0035,-111.0142
17:04:16:358,1.1692,1.6888,10.4848,43.0834,-0.2485,0.1247,-0.2449,-111.0142
17:04:16:378,0.418,1.3689,11.4513,43.065,-0.1375,-0.0139,-0.2654,-111.0142
17:04:16:400,0.3454,0.8312,11.9746,42.9673,0.0549,-0.0002,-0.1309,-111.0142
17:04:16:418,0.6731,0.6266,11.7559,42.9061,0.1296,0.2317,-0.0183,-111.0142
17:04:16:438,0.8187,0.93,10.9499,42.566,0.0373,0.4519,-0.0585,-111.0142
17:04:16:458,0.4365,0.8264,10.873,42.5142,-0.339,0.7367,-0.2306,-111.0142
17:04:16:478,-0.669,0.4775,11.5004,42.0474,-0.515,0.5697,-0.1736,-111.0142
17:04:16:499,-0.5692,-0.5985,12.7561,41.9214,-0.4445,0.2464,0.0216,-111.0142
17:04:16:518,-0.9202,-1.3698,13.1791,41.7624,0.113,-0.3345,0.1295,-111.0142
17:04:16:538,-0.4287,-1.5098,12.1061,41.7837,0.6641,-0.7662,0.3371,-111.0142
17:04:16:558,0.2563,-1.305,10.5142,41.6184,0.7499,-0.8166,0.3641,-111.0142
17:04:16:578,0.9318,-1.2237,9.2694,41.8548,0.3397,-0.5796,0.1311,-111.0142
17:04:16:598,0.6669,-1.1274,8.8914,41.7216,-0.2841,-0.211,-0.083,-111.0142
17:04:16:619,-0.2584,-0.8809,9.7899,41.8553,-0.6385,0.0542,-0.1427,-111.0142
17:04:16:638,-0.9465,-0.6429,10.601,41.7104,-0.367,0.0666,0.0038,-111.0142
17:04:16:657,-0.9987,-0.499,9.7317,41.6226,0.2463,-0.0123,0.33,-111.0142
17:04:16:680,-0.18,-0.3345,7.8795,41.429,0.7108,-0.1362,0.6084,-111.0142
17:04:16:698,0.6658,-0.1432,6.369,41.2457,0.7165,-0.3706,0.6522,-111.0142
17:04:16:719,0.7159,0.1747,6.6448,41.2345,0.414,-0.5845,0.5388,-111.0142
17:04:16:738,0.5539,0.0279,7.7496,41.1025,0.2395,-0.4746,0.4349,-111.0142
17:04:16:758,0.3208,0.041,8.5914,40.8875,0.215,-0.0899,0.4884,-111.1102
17:04:16:781,0.6825,0.191,8.6376,40.8793,0.345,0.3554,0.5035,-111.221
17:04:16:798,1.0995,0.2827,7.7601,40.7027,0.3997,0.4575,0.4162,-111.3467
17:04:16:818,1.0214,0.2587,7.5108,40.8345,0.2394,0.2797,0.2349,-111.4826
17:04:16:838,0.4571,0.2835,8.3919,40.4125,0.0267,0.0514,0.099,-111.6218
17:04:16:858,-0.0114,0.2882,9.5321,40.3726,-0.1156,-0.0028,0.0145,-111.759
17:04:16:881,0.1813,-0.0533,10.4448,40.1666,-0.0753,0.0101,0.0184,-111.8924
17:04:16:898,0.8267,-0.4343,10.3845,39.8796,-0.0677,0.0004,-0.0117,-112.0219
17:04:16:918,1.2985,-0.7732,10.6445,39.8782,-0.2116,0.008,-0.102,-112.1461
17:04:16:938,1.4521,-0.9855,11.568,39.5425,-0.3438,0.1594,-0.1495,-112.2613
17:04:16:957,2.0306,-1.2725,12.3171,39.1768,-0.2442,0.4364,-0.1523,-112.3663
17:04:16:979,2.4558,-1.5072,12.0405,38.9012,-0.2502,0.5701,-0.2891,-112.4621
17:04:16:998,2.2769,-1.5069,12.5683,38.7583,-0.5371,0.4898,-0.596,-112.4621
17:04:17:018,1.8253,-1.7984,13.7535,38.8117,-0.5708,0.3675,-0.8741,-112.4621
17:04:17:038,1.2492,-2.39,13.9843,38.7381,-0.2608,0.2321,-0.8976,-112.4621
17:04:17:059,1.0841,-2.3384,12.5886,38.7384,0.0533,0.3601,-0.6612,-112.4621
17:04:17:078,0.8389,-1.7206,10.45,38.3649,0.1381,0.4683,-0.4659,-112.4621
17:04:17:098,0.3455,-0.9974,8.5559,38.2112,-0.0156,0.298,-0.4012,-112.4621
17:04:17:118,-0.1217,-0.2672,7.8541,37.8105,-0.2957,0.0811,-0.3046,-112.4621
17:04:17:138,-0.1156,0.1748,7.7908,37.6401,-0.3301,0.0315,-0.2096,-112.4621
17:04:17:160,-0.1159,0.5432,6.9143,37.4479,-0.2418,0.0564,-0.1293,-112.4621
17:04:17:178,-0.0655,0.7167,6.3719,37.3729,-0.1073,-0.0763,-0.0945,-112.4621
17:04:17:198,0.0954,0.5799,5.9809,36.827,-0.0012,-0.2989,-0.0912,-112.4621
17:04:17:218,0.352,0.3915,6.0637,36.4504,-0.0574,-0.5862,-0.0966,-112.4621
17:04:17:238,0.2467,0.3439,7.129,36.2606,-0.2407,-0.7286,-0.0629,-112.4621
17:04:17:259,0.0055,0.4932,8.8785,36.0207,-0.275,-0.6881,0.0275,-112.4621
17:04:17:279,0.1759,0.6531,10.6513,35.7939,0.0503,-0.4506,0.151,-112.4621
17:04:17:298,0.8714,0.5549,10.8856,35.9142,0.5049,-0.0919,0.245,-112.4621
17:04:17:336,1.3695,0.8636,9.8075,35.7173,0.6466,0.1912,0.2101,-112.4621
17:04:17:338,1.4846,1.3626,9.0821,35.4097,0.449,0.3262,0.0549,-112.4621
17:04:17:359,1.3169,1.7841,9.0777,35.2667,0.1875,0.3604,-0.1729,-112.4621
17:04:17:378,0.7359,1.8821,9.839,34.7834,-0.0181,0.2685,-0.4063,-112.4621
17:04:17:398,0.1767,1.5554,11.0218,34.5835,-0.0626,0.1323,-0.507,-112.4621
17:04:17:418,-0.3205,1.24,12.09,34.6724,0.0063,0.1068,-0.4112,-112.3615
17:04:17:438,-0.6228,1.3908,12.3614,34.845,0.0856,0.4089,-0.1974,-112.2516
17:04:17:458,-0.8877,1.5242,11.9909,34.671,0.0127,0.8531,-0.0272,-112.1393
17:04:17:478,-1.5817,1.2526,12.1314,34.4683,-0.0534,0.8881,0.2429,-112.0315
17:04:17:498,-2.2203,0.3303,12.4125,34.4305,0.2382,0.3932,0.5067,-111.9379
17:04:17:518,-2.3327,-0.647,12.0938,34.3059,0.7273,-0.3628,0.9063,-111.9379
17:04:17:540,-0.6872,-1.4443,10.981,34.3233,0.8831,-1.0088,1.1992,-111.9379
17:04:17:558,1.0603,-0.9758,11.0449,34.4318,0.5068,-1.1219,1.136,-111.9379
17:04:17:578,2.0881,-0.8241,11.137,34.2601,0.1871,-0.6043,0.6344,-111.9379
17:04:17:598,1.2705,-0.9204,10.1408,33.9925,-0.1374,0.1293,0.0483,-111.9379
17:04:17:618,-0.0037,-1.3392,8.8017,34.0607,-0.4986,0.7343,-0.2218,-111.9379
17:04:17:640,-1.2088,-1.2874,7.9973,33.6234,-0.6853,0.8939,-0.086,-111.9379
17:04:17:658,-1.5952,-0.9554,7.8126,33.8434,-0.5134,0.5381,0.3073,-111.9379
17:04:17:678,-1.0825,-0.4427,7.7889,33.9576,-0.0289,-0.1358,0.7186,-111.9379
17:04:17:698,0.0143,0.1921,7.6726,34.1654,0.5149,-0.7225,0.9387,-112.0286
17:04:17:718,1.0505,0.7468,6.9382,34.3404,0.8391,-0.9043,0.8749,-112.1504
17:04:17:739,1.3953,1.0254,6.0665,34.3872,0.7739,-0.7122,0.6099,-112.2982
17:04:17:758,1.3445,1.0676,5.8731,34.4594,0.4387,-0.3681,0.2988,-112.4607
17:04:17:778,0.9779,0.8436,6.3324,34.465,0.1063,-0.117,0.051,-112.6267
17:04:17:798,0.382,0.7034,7.7245,34.4117,-0.128,-0.1442,-0.0666,-112.788
17:04:17:819,-0.0358,0.5259,9.6558,34.5842,-0.0333,-0.2629,-0.0513,-112.9419
17:04:17:838,0.003,0.3027,10.6311,34.8683,0.2546,-0.1968,0.056,-113.0906
17:04:17:858,0.623,0.1635,10.157,34.8008,0.3366,0.0881,0.0871,-113.238
17:04:17:878,1.318,-0.0249,9.7066,34.91,0.1525,0.3374,-0.0783,-113.3834
17:04:17:899,1.6339,-0.3089,9.6353,35.0121,-0.132,0.4689,-0.32,-113.5194
17:04:17:920,1.2942,-0.6143,10.1868,34.9832,-0.4814,0.4197,-0.4743,-113.6379
17:04:17:938,1.3811,-1.0736,11.6495,35.1539,-0.6036,0.2536,-0.476,-113.7351
17:04:17:959,2.7764,-1.8914,12.1928,35.2625,-0.5574,0.0787,-0.5152,-113.7351
17:04:17:978,3.0278,-2.053,12.8102,35.3214,-0.8911,-0.2233,-0.8579,-113.7351
17:04:17:998,2.0156,-2.3395,14.925,35.0509,-1.1329,-0.1321,-1.2052,-113.7351
17:04:18:019,0.9663,-3.107,15.9218,35.1726,-0.7899,0.3131,-1.1223,-113.7351
17:04:18:039,1.3291,-3.5855,14.2517,35.1072,-0.2364,0.7617,-0.6444,-113.7351
17:04:18:059,1.6395,-3.1202,11.007,34.7923,0.0699,0.7279,-0.2566,-113.7351
17:04:18:078,1.3164,-2.1394,8.8298,34.8377,-0.0983,0.2306,-0.1377,-113.7351
17:04:18:098,0.6449,-0.977,8.5238,34.804,-0.3162,-0.1537,-0.1358,-113.6451
17:04:18:118,-0.0225,-0.3457,8.2016,34.9028,-0.2904,-0.1575,-0.125,-113.5527
17:04:18:138,0.1044,0.0111,7.3572,35.0079,-0.2338,0.078,-0.1,-113.459
17:04:18:158,0.5224,0.5355,6.1224,35.0608,-0.1674,0.2285,-0.0897,-113.3646
17:04:18:178,0.9945,1.0402,5.2865,35.1093,-0.3476,0.2301,-0.0933,-113.2694
17:04:18:199,1.066,1.3994,5.6923,35.2478,-0.4437,0.0723,-0.1795,-113.1729
17:04:18:219,0.3543,1.6177,6.7785,35.4455,-0.3655,-0.3356,-0.3355,-113.0711
17:04:18:238,-0.1925,1.2937,8.2709,35.1044,-0.0971,-0.648,-0.3578,-112.96
17:04:18:258,0.2002,0.8616,9.0158,35.2992,0.2128,-0.5486,-0.2496,-112.8411
17:04:18:278,0.6634,0.7389,8.8189,35.0791,0.2936,-0.168,-0.0648,-112.7195
17:04:18:302,0.9579,1.0973,9.078,34.912,0.0831,0.0989,0.04,-112.601
17:04:18:318,1.0819,1.5686,10.0462,35.0322,-0.0456,0.1552,-0.0042,-112.4874
17:04:18:338,1.0555,1.5041,11.0512,35.2222,0.0315,0.068,-0.1779,-112.3757
17:04:18:358,0.7528,0.7718,11.1865,35.1984,0.1717,0.0168,-0.3755,-112.2588
17:04:18:378,0.6868,-0.4191,11.345,35.1717,0.1063,0.0275,-0.5144,-112.1326
17:04:18:399,0.5325,-1.1681,11.461,34.843,-0.1551,0.1648,-0.5204,-111.992
17:04:18:418,0.0323,-1.0536,12.2372,34.7847,-0.5367,0.4862,-0.3851,-111.8384
17:04:18:438,-0.8718,0.133,12.835,34.6429,-0.5326,0.9026,-0.123,-111.6775
17:04:18:457,-0.5737,1.2455,12.0133,34.8724,-0.1768,1.2843,0.2067,-111.5203
17:04:18:478,0.4376,2.6858,10.1172,34.7061,-0.1256,0.9596,0.1932,-111.3744
17:04:18:499,0.0548,0.2012,10.7019,34.896,-0.2362,0.5279,0.2471,-111.2393
17:04:18:518,-1.8477,-1.5058,11.7884,34.6347,0.1265,-0.2324,0.3466,-111.1176
17:04:18:538,-2.683,-2.2612,11.939,34.6024,0.5923,-1.1578,0.4924,-111.0117
17:04:18:558,-1.9699,-2.419,11.7054,34.5207,0.7327,-1.4983,0.8138,-111.0117
17:04:18:578,-0.1577,-2.0113,11.5295,34.6648,0.6292,-1.0274,1.0134,-111.0117
17:04:18:598,0.6076,-1.3268,10.3101,34.4806,0.558,-0.4282,0.8908,-111.0117
17:04:18:618,0.9287,-0.9858,8.6453,34.4317,0.2793,-0.0553,0.6884,-111.0117
17:04:18:638,0.853,-0.5738,7.9651,34.3978,-0.0525,0.1098,0.4827,-111.0117
17:04:18:658,0.2541,-0.2387,8.0345,34.6244,-0.149,0.1282,0.3364,-111.0117
17:04:18:681,-0.4292,0.005,8.0769,34.5364,0.0432,-0.0017,0.3118,-111.0117
17:04:18:698,-0.1657,-0.0119,7.9559,34.6958,0.4358,-0.2002,0.3648,-111.0117
17:04:18:718,0.2264,0.0597,7.2775,34.7918,0.752,-0.4272,0.3442,-111.0117
17:04:18:738,0.6954,0.0829,6.6019,34.6165,0.7515,-0.5707,0.2325,-111.1102
17:04:18:758,0.5867,0.2743,6.644,34.822,0.4482,-0.539,0.0713,-111.2141
17:04:18:780,0.2203,0.339,7.496,34.5429,0.1982,-0.3221,-0.0352,-111.3166
17:04:18:798,-0.1696,0.4364,8.4314,34.4032,0.1665,-0.0684,-0.0554,-111.4147
17:04:18:818,-0.0757,0.3094,8.873,34.1889,0.3023,0.0818,-0.0147,-111.509
17:04:18:837,0.3268,0.2118,8.6068,34.0042,0.3741,0.0624,-0.0056,-111.6011
17:04:18:858,0.7377,0.1393,8.2159,34.1186,0.1869,-0.0694,-0.0849,-111.6011
17:04:18:879,1.0926,-0.0252,8.6514,34.2097,-0.1882,-0.1855,-0.2663,-111.6011
17:04:18:899,0.9588,-0.5647,9.8971,34.4505,-0.5065,-0.2733,-0.4602,-111.6011
17:04:18:918,0.4623,-1.2921,11.7926,33.9997,-0.6894,-0.3253,-0.5262,-111.6011
17:04:18:937,0.9045,-1.9626,13.4519,33.9058,-0.6125,-0.0814,-0.3677,-111.6011
17:04:18:958,1.9547,-2.2345,13.3956,33.8197,-0.4118,0.2968,-0.2348,-111.6011
17:04:18:977,1.7537,-1.9297,12.7803,33.6109,-0.4503,0.4024,-0.3994,-111.6011
17:04:18:998,0.9929,-1.9516,13.2185,33.8733,-0.5501,0.4209,-0.5876,-111.6011
17:04:19:018,1.0541,-2.4932,13.3052,33.9471,-0.3761,0.3343,-0.5224,-111.6011
17:04:19:038,1.72,-2.799,12.954,33.8238,-0.2115,0.218,-0.3447,-111.6011
17:04:19:060,2.2344,-2.5232,11.9144,34.0299,-0.1699,-0.0233,-0.2981,-111.6011
17:04:19:078,1.9982,-1.9519,11.2202,34.1447,-0.4432,-0.0191,-0.3928,-111.6011
17:04:19:098,0.9621,-1.099,10.8044,34.0306,-0.5818,0.2688,-0.4567,-111.6011
17:04:19:118,0.0151,-0.4703,9.579,34.043,-0.4957,0.5882,-0.4365,-111.5023
17:04:19:138,-0.3521,0.0061,7.8891,34.0735,-0.3379,0.7526,-0.332,-111.3917
17:04:19:160,-0.4853,0.5459,6.2226,34.058,-0.2211,0.7047,-0.2211,-111.2737
17:04:19:179,-0.5521,0.7516,5.1511,34.0296,-0.2043,0.4721,-0.0748,-111.1522
17:04:19:199,-0.7857,0.999,4.952,33.9876,-0.2783,0.0424,0.151,-111.0329
17:04:19:218,-0.3047,1.3631,6.2284,34.3878,-0.2311,-0.4157,0.391,-110.9242
17:04:19:238,0.3702,1.6566,7.8925,34.2192,0.2208,-0.7357,0.4065,-110.8328
17:04:19:260,0.8202,1.4576,8.3899,34.0992,0.8285,-0.8188,0.2529,-110.8328
17:04:19:278,0.5835,0.9747,7.2253,34.1864,1.0399,-0.5317,0.0561,-110.8328
17:04:19:298,-0.1516,0.6776,6.3937,34.0834,0.6829,-0.0988,0.0213,-110.8328
17:04:19:318,-0.5013,0.3649,6.9732,33.9872,0.1048,0.1767,0.1681,-110.8328
17:04:19:355,0.1177,0.2985,9.1634,34.1455,-0.3381,0.0712,0.4151,-110.8328
17:04:19:361,1.3327,0.5104,11.8285,34.0869,-0.3805,-0.2303,0.4983,-110.8328
17:04:19:378,2.0897,0.7277,13.7541,34.2495,-0.012,-0.4598,0.3608,-110.8328
17:04:19:398,2.0496,0.7663,13.6734,34.4579,0.3956,-0.4354,0.1417,-110.8328
17:04:19:417,1.7246,0.5755,12.5789,34.5284,0.3442,-0.1348,-0.0286,-110.8328
17:04:19:440,0.9338,0.583,12.175,34.7515,-0.0508,0.5166,-0.1862,-110.8328
17:04:19:458,0.0305,0.6947,12.1614,34.7168,-0.3473,1.2481,-0.2145,-110.8328
17:04:19:478,-0.4433,-0.1541,11.9672,34.6497,-0.4372,1.2387,-0.2155,-110.8328
17:04:19:498,-1.008,-1.8738,12.3092,34.7285,-0.5086,0.3109,-0.1753,-110.8328
17:04:19:518,-1.6734,-2.6328,13.3377,34.822,-0.107,-0.9058,0.1276,-110.8328
17:04:19:539,-0.7182,-2.8077,13.4896,34.671,0.3412,-1.1619,0.4752,-110.8328
17:04:19:558,0.4374,-2.2007,11.6785,34.5458,0.5308,-1.0182,0.4832,-110.8328
17:04:19:578,1.0098,-1.7596,10.9393,34.5207,0.1639,-0.4109,0.2625,-110.8328
17:04:19:599,0.7859,-1.5518,10.1001,34.2756,-0.1081,0.1264,0.015,-110.8328
17:04:19:618,0.1181,-1.4504,9.7856,34.1951,-0.2306,0.4551,-0.0119,-110.8328
17:04:19:639,-0.3617,-1.0993,9.0875,34.3894,-0.0601,0.5007,0.1248,-110.8328
17:04:19:657,-0.4491,-0.8054,8.2432,34.4243,0.2125,0.3176,0.277,-110.8328
17:04:19:678,-0.3449,-0.6509,7.3555,34.4598,0.4697,-0.0663,0.3851,-110.8328
17:04:19:698,0.0613,-0.5821,6.7478,34.4947,0.5884,-0.3223,0.4577,-110.8328
17:04:19:718,0.362,-0.3768,6.4433,34.2485,0.6019,-0.3425,0.4597,-110.8328
17:04:19:738,0.6999,-0.129,6.3651,34.0698,0.5599,-0.2346,0.3565,-110.8328
17:04:19:758,0.8289,0.0788,6.3292,34.3077,0.4661,-0.0379,0.1824,-110.9244
17:04:19:780,0.4946,0.2102,6.4802,34.4322,0.3883,0.1306,0.0397,-111.0184
17:04:19:798,0.1838,0.2364,6.5608,34.8935,0.2463,0.1425,-0.0187,-111.111
17:04:19:818,0.1101,0.3338,7.07,34.8935,0.0989,0.0485,-0.0382,-111.111
17:04:19:838,0.0171,0.4389,7.8351,35.1784,0.0035,-0.1124,-0.076,-111.111
17:04:19:857,-0.1462,0.6186,8.803,35.0369,0.061,-0.2523,-0.0948,-111.111
17:04:19:878,0.0944,0.4657,9.0144,35.1624,0.2356,-0.2637,-0.1005,-111.111
17:04:19:898,0.9624,-0.201,8.2649,34.9729,0.1895,-0.2043,-0.1458,-111.111
17:04:19:918,2.1151,-0.8558,7.9229,35.1597,-0.1957,-0.1377,-0.2763,-111.111
17:04:19:937,2.1228,-0.967,9.1425,35.2585,-0.8559,0.0732,-0.4851,-111.111
17:04:19:957,1.1953,-0.568,12.6906,35.378,-1.1774,0.4383,-0.6058,-111.111
17:04:19:978,1.2593,-0.8254,14.6853,35.6159,-0.7104,0.8455,-0.5156,-111.111
17:04:19:999,1.8631,-1.4632,13.5348,35.7925,-0.4382,0.753,-0.4708,-111.111
17:04:20:019,1.9298,-1.7304,13.7153,35.8719,-0.6354,-0.0134,-0.5625,-111.111
17:04:20:037,1.4017,-1.2786,15.2479,35.7339,-0.5505,-0.655,-0.5932,-111.111
17:04:20:057,1.2285,-1.1759,15.6643,35.6042,-0.1952,-0.5962,-0.5012,-111.111
17:04:20:078,1.5197,-1.0071,13.9171,35.3729,0.1576,-0.2159,-0.4093,-111.111
17:04:20:098,1.7486,-0.9731,11.4104,35.5726,0.0597,0.2765,-0.4736,-111.0202
17:04:20:118,1.0056,-0.846,9.5566,35.6831,-0.2357,0.5649,-0.6007,-110.9143
17:04:20:137,-0.1226,-0.783,8.8844,35.7537,-0.3604,0.6937,-0.541,-110.7904
17:04:20:158,-1.0295,-0.4629,7.8173,35.7424,-0.1496,0.5607,-0.3385,-110.6507
17:04:20:178,-1.0509,-0.2948,6.6166,35.4495,0.1225,0.3208,-0.0409,-110.5075
17:04:20:198,-0.5884,-0.1193,5.7024,35.2018,0.3266,0.061,0.1784,-110.3695
17:04:20:218,-0.3893,0.0375,5.241,35.3008,0.3359,-0.2186,0.2582,-110.243
17:04:20:237,-0.3689,0.1376,5.6149,35.2015,0.2212,-0.4776,0.2873,-110.1295
17:04:20:258,-0.5077,0.2461,6.8905,35.0866,0.1464,-0.6725,0.3569,-110.0311
17:04:20:277,-0.3665,0.5355,8.6458,35.1498,0.2302,-0.7706,0.4553,-110.0311
17:04:20:298,0.5162,0.728,9.5471,35.1611,0.4986,-0.5751,0.5659,-110.0311
17:04:20:318,1.54,0.783,9.092,34.7807,0.6853,-0.2236,0.5742,-110.0311
17:04:20:337,2.121,0.9526,8.1755,34.944,0.5419,0.192,0.4814,-110.0311
17:04:20:358,2.2584,1.0945,7.8934,34.8411,0.1496,0.525,0.2959,-110.0311
17:04:20:377,1.5634,1.2446,8.8547,34.886,-0.1826,0.6751,0.1393,-110.0311
17:04:20:398,0.5532,1.165,10.6608,34.654,-0.1185,0.5084,0.1196,-110.0311
17:04:20:417,0.1909,0.6084,11.6501,34.5263,0.2852,0.1989,0.2423,-110.0311
17:04:20:437,0.4667,0.0463,11.3917,34.2651,0.5094,-0.0724,0.363,-110.0311
17:04:20:458,0.9339,-0.2553,11.2249,34.115,0.1917,-0.0651,0.382,-110.0311
17:04:20:477,0.9882,-0.4677,12.4562,33.7693,-0.5142,0.1194,0.2102,-110.0311
17:04:20:498,0.1129,-1.0312,14.778,33.8294,-0.8955,0.1141,0.1018,-110.0311
17:04:20:517,-0.6899,-1.714,17.0828,33.6373,-0.516,-0.1363,0.2952,-110.0311
17:04:20:537,-0.1952,-2.0799,16.2017,33.7506,0.3963,-0.4892,0.6655,-110.0311
17:04:20:558,1.3008,-1.6678,13.0267,33.3503,0.8422,-0.5105,0.8251,-110.125
17:04:20:578,2.1672,-0.9618,10.241,32.9787,0.7252,-0.2214,0.6152,-110.2451
17:04:20:598,2.4078,-0.2919,8.4677,32.5488,0.3315,0.0864,0.1602,-110.3801
17:04:20:617,1.3014,-0.0743,7.955,32.252,-0.1683,0.1954,-0.2878,-110.5122
17:04:20:637,-0.0745,-0.1523,8.4299,32.1788,-0.3494,0.0864,-0.4525,-110.6277
17:04:20:658,-0.6933,-0.3302,8.1273,32.1024,-0.2335,0.116,-0.3246,-110.7242
17:04:20:679,-0.9304,-0.0639,7.2452,32.1182,-0.0423,0.1408,-0.083,-110.7242
17:04:20:698,-0.634,0.0874,6.7488,32.3017,0.1657,0.0197,0.1106,-110.7242
17:04:20:718,0.1121,0.1595,6.8322,32.3217,0.4349,-0.2398,0.2214,-110.7242
17:04:20:738,0.7129,0.2295,6.6145,32.1069,0.6379,-0.4683,0.2229,-110.8229
17:04:20:757,0.8908,0.2866,6.2659,32.0935,0.5096,-0.5253,0.1151,-110.9271
17:04:20:779,0.3846,0.5734,6.61,32.054,0.1718,-0.3388,-0.0163,-111.0315
17:04:20:798,-0.3334,0.6923,7.6638,31.7023,-0.0382,0.076,-0.0462,-111.1313
17:04:20:818,-0.7318,0.7176,8.3894,31.7923,0.1009,0.4642,0.058,-111.227
17:04:20:838,-0.2562,0.5006,7.74,31.8052,0.2663,0.579,0.1692,-111.3234
17:04:20:857,0.2682,0.651,7.3368,31.3863,0.0655,0.392,0.1085,-111.4232
17:04:20:879,0.2919,0.4561,8.1356,31.5334,-0.2209,-0.0041,-0.1323,-111.522
17:04:20:899,-0.0539,-0.207,9.4973,31.5995,-0.4249,-0.3289,-0.3374,-111.522
17:04:20:918,-0.4078,-1.1667,11.2141,31.3146,-0.5481,-0.4773,-0.3218,-111.522
17:04:20:938,0.3563,-1.7949,13.2385,31.3805,-0.5235,-0.4053,-0.1421,-111.522
17:04:20:958,2.1491,-2.1298,13.7974,31.5011,-0.3549,-0.048,-0.0996,-111.522
17:04:20:978,2.6212,-2.1806,13.2442,31.0373,-0.443,0.1731,-0.392,-111.522
17:04:20:998,1.8674,-2.309,13.7422,31.2815,-0.6345,0.1792,-0.7926,-111.522
17:04:21:018,1.2234,-2.787,14.3993,31.2154,-0.6106,0.3496,-0.9294,-111.522
17:04:21:038,0.6968,-3.3162,14.2783,31.3407,-0.2703,0.5071,-0.7905,-111.522
17:04:21:062,0.9464,-3.2991,11.9116,31.4239,0.082,0.4084,-0.4179,-111.522
17:04:21:078,0.9878,-2.6245,9.9779,31.524,-0.048,0.564,-0.1296,-111.522
17:04:21:098,0.382,-1.4268,8.1907,31.5718,-0.1813,0.2971,-0.0099,-111.522
17:04:21:118,0.4231,-0.5095,7.6163,31.5799,-0.3564,0.2122,0.0969,-111.522
17:04:21:138,0.26,0.0511,6.9333,31.6325,-0.3062,0.1619,0.1759,-111.522
17:04:21:158,0.9385,0.4026,6.2891,31.4834,-0.2601,0.1675,0.2624,-111.522
17:04:21:178,1.4953,0.7428,6.4421,31.4059,-0.1442,0.0067,0.117,-111.522
17:04:21:198,1.2026,1.0647,6.5132,31.6697,0.0086,-0.2575,-0.0979,-111.522
17:04:21:218,0.4596,0.9168,7.0473,31.5499,0.0474,-0.4323,-0.2449,-111.522
17:04:21:238,-0.1153,0.5284,7.6044,31.668,0.1759,-0.5363,-0.1386,-111.522
17:04:21:259,0.1129,0.3899,8.069,31.8298,0.2027,-0.4626,0.0861,-111.522
17:04:21:278,0.8399,0.4706,8.6971,31.6465,0.2208,-0.2358,0.2424,-111.522
17:04:21:298,1.1471,0.7096,9.1556,31.4998,0.175,-0.0488,0.2275,-111.522
17:04:21:318,1.2004,1.0123,9.8523,31.4887,0.1573,0.0155,0.1741,-111.522
17:04:21:338,1.4451,1.2758,10.3055,31.1906,0.2077,0.0095,0.1413,-111.522
17:04:21:382,1.612,1.5872,10.4965,31.2863,0.2838,0.0085,0.0626,-111.522
17:04:21:384,1.5346,1.7423,10.4741,31.6041,0.3524,0.0448,-0.0633,-111.522
17:04:21:398,1.4835,1.5557,10.1644,31.3656,0.309,0.144,-0.2027,-111.522
17:04:21:418,1.4239,1.0937,10.1328,31.3605,0.0698,0.2817,-0.3612,-111.522
17:04:21:438,0.6446,0.4772,11.0342,31.0543,-0.2374,0.233,-0.4751,-111.522
17:04:21:460,-0.3844,-0.2674,12.4726,30.8483,-0.4318,0.1423,-0.4273,-111.522
17:04:21:478,-1.63,-1.1039,14.0219,30.9024,-0.5237,-0.0042,-0.1912,-111.522
17:04:21:498,-1.7715,-1.8764,15.8875,30.792,-0.3517,-0.156,0.2206,-111.522
17:04:21:518,-1.1538,-2.2707,15.8414,30.6536,0.4897,-0.5007,0.5779,-111.522
17:04:21:539,-0.2853,-2.396,13.9128,30.5088,0.921,-0.3636,0.8696,-111.522
17:04:21:558,0.2983,-1.7705,11.0038,30.2832,1.0748,-0.5873,0.908,-111.522
17:04:21:579,0.9135,-1.1269,9.5968,30.1962,0.8135,-0.5651,0.7745,-111.522
17:04:21:598,1.0568,-0.658,8.3821,30.0084,0.5023,-0.4219,0.5422,-111.522
17:04:21:618,0.8398,-0.2956,8.1291,29.8369,0.226,-0.1341,0.4149,-111.522
17:04:21:638,0.5353,0.0002,7.7081,29.9032,0.226,-0.0216,0.3492,-111.522
17:04:21:658,0.4064,0.1609,6.9281,29.6764,0.3068,0.0218,0.3438,-111.522
17:04:21:678,0.1646,0.2271,6.1312,29.6263,0.4093,0.0502,0.3521,-111.6205
17:04:21:698,0.0876,0.2381,5.3055,29.3115,0.4681,0.024,0.4,-111.7302
17:04:21:718,0.3709,0.2247,4.5931,29.0993,0.4328,-0.0866,0.4113,-111.8522
17:04:21:738,0.7511,0.3155,4.6672,29.0035,0.1761,-0.2908,0.308,-111.9856
17:04:21:758,1.0457,0.5664,6.4128,29.0035,-0.0917,-0.4908,0.1098,-112.1242
17:04:21:778,0.6142,0.9366,8.5963,28.9437,-0.2584,-0.3509,-0.0314,-112.2599
17:04:21:798,0.571,1.0581,10.6417,28.5592,-0.0445,0.1935,-0.0411,-112.3887
17:04:21:820,0.7771,1.0226,9.8947,28.6551,0.2702,0.8738,-0.0398,-112.5118
17:04:21:838,1.0087,0.8995,8.3935,28.2423,0.1028,0.9809,-0.1569,-112.6298
17:04:21:858,0.7487,0.8182,8.6216,28.1562,-0.2693,0.5797,-0.3286,-112.7376
17:04:21:877,0.3022,0.4551,9.7642,28.0047,-0.5003,0.0309,-0.4431,-112.8295
17:04:21:898,-0.076,-0.0547,11.324,27.7039,-0.6483,-0.3007,-0.4494,-112.8295
17:04:21:920,0.2875,-0.4766,13.146,27.2783,-0.6206,-0.1697,-0.3843,-112.8295
17:04:21:940,0.5002,-0.6677,13.9184,27.1128,-0.4891,0.1199,-0.3474,-112.8295
17:04:21:958,1.7773,-1.1948,13.5921,26.6773,-0.3048,0.388,-0.288,-112.8295
17:04:21:977,2.6147,-1.2947,11.9506,26.6335,-0.3035,0.5049,-0.4364,-112.8295
17:04:21:998,2.3318,-1.4714,11.5582,26.3433,-0.725,0.479,-0.8776,-112.8295
17:04:22:018,0.7259,-2.05,12.9438,26.5013,-0.8071,0.4174,-1.1099,-112.8295
17:04:22:038,-0.0988,-2.5906,13.5091,26.3729,-0.497,0.4318,-0.8956,-112.8295
17:04:22:058,-0.0292,-2.7336,12.2761,26.0503,-0.0147,0.1906,-0.5245,-112.7247
17:04:22:078,0.615,-2.1017,10.0834,25.8111,0.1093,-0.0783,-0.2175,-112.61
17:04:22:098,0.7406,-1.1539,8.7517,25.6035,-0.0411,-0.2239,-0.1811,-112.4921
17:04:22:118,0.9524,-0.8224,7.8301,25.1077,-0.3281,-0.1504,-0.2718,-112.3704
17:04:22:139,0.6148,-0.7901,7.292,25.2276,-0.5903,0.1324,-0.3529,-112.2412
17:04:22:158,-0.0721,-0.5675,6.8619,25.1285,-0.7185,0.3832,-0.2769,-112.1033
17:04:22:178,-0.6269,-0.1748,6.5742,25.2628,-0.5472,0.3754,-0.1166,-111.9608
17:04:22:201,-0.8089,0.1659,6.023,25.0058,-0.1967,0.0985,0.1064,-111.82
17:04:22:218,-0.1269,0.4156,5.8316,24.9984,0.197,-0.3269,0.34,-111.6892
17:04:22:239,0.8733,0.2949,5.3953,24.9426,0.356,-0.7521,0.383,-111.575
17:04:22:258,1.5702,0.029,6.2775,24.9863,0.0511,-1.1229,0.1936,-111.4761
17:04:22:278,0.8084,-0.0362,9.2008,24.8913,-0.3401,-1.1725,-0.0142,-111.3838
17:04:22:300,-0.0766,0.0494,12.657,24.9264,-0.1098,-0.7055,0.0425,-111.2933
17:04:22:318,0.6301,-0.2023,13.1353,25.141,0.4724,-0.0748,0.2447,-111.2933
17:04:22:338,2.0133,-0.0308,11.5851,25.0385,0.5987,0.213,0.2591,-111.2933
17:04:22:358,2.7336,0.6219,11.4038,24.8817,0.2264,0.2182,0.0029,-111.2933
17:04:22:378,2.0866,1.3432,12.3772,24.6953,-0.0475,0.2945,-0.3379,-111.2933
17:04:22:399,1.1137,1.4901,12.8736,24.5135,0.0394,0.4709,-0.557,-111.2933
17:04:22:418,0.4873,1.2509,12.6299,24.0458,0.2868,0.6824,-0.5794,-111.1946
17:04:22:438,0.2524,1.1276,11.385,24.016,0.4702,0.8248,-0.4749,-111.0807
17:04:22:457,-0.1151,1.2104,10.1937,24.0419,0.5143,0.7314,-0.3745,-110.9555
17:04:22:478,-0.0699,1.2476,9.3885,24.1972,0.3084,0.8674,-0.2946,-110.8224
17:04:22:498,-0.8734,0.9437,9.2314,24.676,0.1947,0.7046,-0.3147,-110.6832
17:04:22:518,-1.8354,-0.0824,9.5258,24.9526,0.1273,0.3871,-0.1383,-110.538
17:04:22:538,-1.7133,-1.3076,9.6335,25.0591,0.2535,-0.096,0.2815,-110.3959
17:04:22:558,0.2901,-1.5046,9.7503,25.1275,0.1279,-0.5753,0.7429,-110.2738
17:04:22:580,2.6844,-1.0657,10.988,25.3187,-0.1858,-0.8784,0.7176,-110.1793
17:04:22:598,2.8876,-0.5193,13.1929,25.3785,-0.3325,-0.9881,0.1506,-110.1793
17:04:22:617,1.5826,-0.9169,14.0253,25.4848,-0.1285,-0.7359,-0.3796,-110.1793
17:04:22:638,0.1185,-1.3787,12.8617,25.7075,0.0965,-0.072,-0.4683,-110.1793
17:04:22:657,-0.9145,-1.0958,10.6612,25.9535,0.3256,0.4563,-0.2233,-110.0774
17:04:22:679,-1.0031,-0.6645,8.3476,26.1459,0.5368,0.6083,0.0803,-109.9752
17:04:22:698,-0.4819,-0.4518,6.4338,26.1878,0.6049,0.2071,0.2455,-109.8816
17:04:22:718,-0.3468,-0.238,6.2042,26.2519,0.5053,-0.31,0.2932,-109.8816
17:04:22:738,-0.3642,0.1461,6.8125,26.3233,0.5611,-0.5936,0.2989,-109.8816
17:04:22:757,-0.4343,0.3011,7.1868,26.2778,0.6663,-0.6462,0.2414,-109.8816
17:04:22:778,-0.5023,0.318,7.5035,26.3769,0.7796,-0.483,0.1821,-109.8816
17:04:22:798,-0.3707,0.3451,6.972,26.7974,0.8317,-0.0887,0.2153,-109.8816
17:04:22:818,-0.3616,0.7671,6.2579,27.2016,0.6847,0.282,0.2656,-109.8816
17:04:22:838,-0.1882,1.0378,6.1238,27.4092,0.4603,0.3738,0.2464,-109.8816
17:04:22:859,-0.3272,1.4818,7.1728,27.6067,0.3275,0.0674,0.2611,-109.8816
17:04:22:878,-0.0803,1.7399,8.9466,27.8448,0.4461,-0.2842,0.0447,-109.8816
17:04:22:898,-0.1147,1.7181,9.5709,27.9716,0.7289,-0.7488,-0.1123,-109.8816
17:04:22:918,0.4652,0.8031,8.9335,28.0809,0.7174,-0.8265,-0.3154,-109.8816
17:04:22:938,0.6735,-0.0136,8.0386,28.2723,0.1571,-0.5502,-0.4618,-109.8816
17:04:22:958,0.5602,-0.4403,8.7783,28.3352,-0.7485,-0.0434,-0.5557,-109.8816
17:04:22:978,0.7382,-0.7017,11.2254,28.429,-1.2397,0.4714,-0.4824,-109.8816
17:04:22:998,1.8729,-0.8992,12.5493,28.3097,-1.0315,0.7124,-0.3323,-109.8816
17:04:23:018,2.8424,-1.2686,12.3658,28.1704,-0.7174,0.3499,-0.433,-109.8816
17:04:23:037,2.857,-1.5961,12.4859,28.2377,-0.7606,-0.3627,-0.669,-109.774
17:04:23:058,2.5744,-2.2233,14.0322,28.1501,-0.9896,-0.861,-0.8218,-109.6399
17:04:23:078,1.7654,-2.5359,16.3124,28.1716,-1.0657,-0.6687,-0.7574,-109.4807
17:04:23:098,1.5766,-2.1458,16.3382,27.8432,-0.6705,-0.0334,-0.3718,-109.2997
17:04:23:118,1.3739,-1.2555,13.4349,27.6099,-0.4372,0.6978,-0.0956,-109.1115
17:04:23:138,1.1574,-0.4912,10.7985,27.7101,-0.5028,1.0793,0.0106,-108.9255
17:04:23:158,0.6375,0.252,8.9322,27.9834,-0.5008,1.1265,0.0283,-108.7441
17:04:23:178,0.2538,0.6767,7.4885,28.0662,-0.3249,0.9282,0.1282,-108.569
17:04:23:198,0.3976,0.8824,6.3073,28.4903,-0.0805,0.5812,0.2669,-108.4047
17:04:23:218,0.6847,1.0947,5.5371,28.4438,0.0385,0.1091,0.3811,-108.2556
17:04:23:238,0.5445,1.5556,5.7293,28.3388,0.0495,-0.2391,0.4038,-108.1245
17:04:23:258,0.396,1.8368,6.774,28.6486,0.1777,-0.4855,0.3446,-108.0111
17:04:23:278,0.3429,1.6469,7.5845,28.641,0.4674,-0.5759,0.2539,-107.9128
17:04:23:298,0.6063,1.1028,7.5134,28.5866,0.6989,-0.4851,0.2246,-107.9128
17:04:23:318,1.1079,0.7042,7.1922,28.9984,0.6763,-0.1819,0.2515,-107.9128
17:04:23:338,0.9015,1.0249,7.2384,29.271,0.3948,0.0953,0.2913,-107.9128
17:04:23:382,0.5406,1.3327,8.8915,29.515,0.2439,-0.0074,0.3141,-107.9128
17:04:23:384,0.7007,1.4687,10.1579,29.6564,0.4524,-0.2957,0.395,-107.9128
17:04:23:398,1.5212,1.3494,10.052,29.7902,0.6166,-0.4225,0.4693,-107.9128
17:04:23:418,2.2052,1.5058,9.5366,29.8537,0.4852,-0.2789,0.4348,-107.9128
17:04:23:438,2.5896,1.7713,9.6713,30.0519,0.1527,0.0448,0.3117,-107.9128
17:04:23:458,2.1844,1.9524,10.1171,30.1893,-0.192,0.3631,0.0707,-107.9128
17:04:23:478,1.1438,1.8828,11.0849,30.3105,-0.4944,0.4102,-0.2141,-107.9128
17:04:23:498,0.1115,1.3027,12.3073,30.3582,-0.5266,0.3857,-0.3455,-107.9128
17:04:23:518,-0.7325,0.5044,12.6716,30.3811,-0.3919,0.5495,-0.215,-107.9128
17:04:23:538,-1.8925,-0.1432,12.6812,30.6593,-0.2097,0.537,0.0933,-107.9128
17:04:23:558,-2.1401,-0.312,12.1021,30.5791,0.0133,0.2116,0.5386,-107.9128
17:04:23:578,-1.5798,-0.4345,11.9765,30.8603,0.0613,0.006,0.8322,-107.9128
17:04:23:598,-0.9775,-0.4433,11.1614,31.0499,0.278,-0.4097,0.9334,-107.9128
17:04:23:617,-0.1183,-0.3554,10.7248,30.9631,0.0984,-0.544,0.9431,-107.9128
17:04:23:638,0.4286,-0.1129,10.3471,31.2119,0.0713,-0.4902,0.7413,-108.02
17:04:23:658,0.9014,-0.0815,9.2744,31.2611,0.001,-0.1496,0.5127,-108.1471
17:04:23:677,0.6448,-0.1645,8.0835,31.364,-0.1381,0.21,0.2742,-108.2854
17:04:23:699,0.0925,-0.1955,7.3056,31.6249,-0.4216,0.3359,0.1208,-108.4265
17:04:23:720,-0.5405,-0.1471,7.6729,31.4335,-0.5872,0.3316,0.1327,-108.566
17:04:23:738,-0.8505,0.017,8.4163,31.3206,-0.3259,0.1825,0.3454,-108.7068
17:04:23:759,-0.0292,0.0079,8.2198,31.5724,0.2181,0.0368,0.5659,-108.8577
17:04:23:778,0.7897,0.2457,7.068,31.4269,0.5966,-0.0246,0.6435,-109.0255
17:04:23:798,1.0773,0.4855,6.118,31.2617,0.5731,-0.1004,0.5047,-109.2107
17:04:23:820,0.6208,0.7688,6.1249,31.4341,0.2721,-0.1585,0.2991,-109.4065
17:04:23:838,-0.0364,0.837,7.2885,31.5143,0.0049,-0.1275,0.1625,-109.6054
17:04:23:858,-0.2365,0.6004,8.531,31.4509,-0.0725,-0.039,0.1783,-109.8035
17:04:23:878,-0.1605,0.4583,9.6776,31.4645,-0.0157,-0.0319,0.2839,-110.0025
17:04:23:898,0.2493,0.5275,10.506,31.3364,0.1454,-0.1184,0.3596,-110.2065
17:04:23:919,0.3406,0.6978,10.6515,31.4289,0.2622,-0.1055,0.3176,-110.4171
17:04:23:938,0.5795,0.4869,10.2054,31.3162,0.1691,0.0089,0.1641,-110.6315
17:04:23:958,0.9103,0.0536,9.8109,31.3691,-0.1252,0.1493,-0.0694,-110.843
17:04:23:978,0.7983,-0.4753,10.3838,31.3442,-0.4931,0.135,-0.2783,-111.043
17:04:23:998,0.8916,-0.7965,11.9833,31.3482,-0.6184,0.0676,-0.3258,-111.2255
17:04:24:018,1.8764,-1.2623,13.1514,31.1602,-0.4291,0.0822,-0.3206,-111.3907
17:04:24:039,2.3993,-1.7384,13.255,30.8804,-0.3471,0.0176,-0.5757,-111.5378
17:04:24:058,1.8711,-2.0979,13.9335,30.5707,-0.6136,-0.0037,-0.98,-111.6536
17:04:24:078,1.0728,-2.4416,15.1587,30.436,-0.6794,0.4279,-1.1539,-111.6536
17:04:24:101,0.4527,-2.9521,14.5773,30.4601,-0.3232,0.9015,-1.0589,-111.6536
17:04:24:119,-0.1322,-2.9413,12.1915,30.3678,0.0363,1.1033,-0.707,-111.6536
17:04:24:138,-0.318,-2.1704,9.4739,30.2059,0.1055,1.1081,-0.289,-111.6536
17:04:24:158,-0.3678,-1.1378,7.6185,30.1438,0.0317,0.5923,-0.0395,-111.6536
17:04:24:178,-0.3138,-0.4942,7.1849,29.9844,-0.2338,-0.1218,0.0121,-111.6536
17:04:24:199,-0.6281,0.1273,8.285,29.8002,-0.3229,-0.6309,0.0055,-111.6536
17:04:24:218,-0.9174,0.4957,9.005,29.7595,-0.1517,-0.553,0.1235,-111.6536
17:04:24:238,-0.6168,0.8867,8.3919,29.8054,0.1719,-0.137,0.2184,-111.6536
17:04:24:258,-0.5543,0.929,6.6055,29.938,0.336,0.25,0.25,-111.6536
17:04:24:278,-0.2292,0.8017,5.2607,30.0332,0.2012,0.3642,0.2676,-111.6536
17:04:24:299,0.2528,0.8778,5.299,30.0659,-0.0132,0.1951,0.2178,-111.6536
17:04:24:318,0.3374,0.9532,6.5467,29.8439,-0.1519,-0.2635,0.0504,-111.6536
17:04:24:338,-0.0757,0.8047,8.5105,29.8908,-0.1289,-0.772,-0.0951,-111.6536
17:04:24:358,-0.617,0.7017,10.8697,29.8363,0.1957,-1.0106,-0.0439,-111.6536
17:04:24:378,0.072,0.132,11.551,29.8748,0.7412,-0.7031,0.153,-111.6536
17:04:24:398,0.9284,0.1897,10.1492,29.9361,0.9099,-0.0183,0.4263,-111.6536
17:04:24:418,1.6391,0.9272,8.9756,30.1234,0.5218,0.5227,0.4429,-111.6536
17:04:24:438,1.7435,1.7427,9.061,30.0695,0.0374,0.7618,0.117,-111.6536
17:04:24:458,1.0039,2.0896,10.095,30.2149,-0.1909,0.628,-0.2699,-111.6536
17:04:24:478,0.2206,1.5069,11.0064,30.2759,-0.1154,0.3511,-0.4331,-111.6536
17:04:24:498,-0.4283,1.2116,11.6803,30.4642,-0.0125,0.1461,-0.336,-111.6536
17:04:24:518,-0.5812,1.3753,12.0592,30.8176,0.1514,0.2099,-0.0863,-111.6536
17:04:24:538,-0.6358,1.0691,12.0629,30.7227,0.2856,0.158,-0.0672,-111.6536
17:04:24:558,-1.1303,-0.653,12.5161,30.8854,0.2084,-0.1052,-0.4881,-111.6536
17:04:24:579,-3.2526,-2.0689,13.3461,30.9432,0.1603,-0.3415,-0.7489,-111.6536
17:04:24:598,-4.3083,-3.2097,13.6314,31.1874,0.4325,-0.4105,-0.2923,-111.6536
17:04:24:618,-2.5908,-2.7917,11.7879,31.5551,0.748,-0.0853,0.6521,-111.6536
17:04:24:638,-0.2746,-1.6052,9.418,31.9018,0.6548,0.2192,1.3517,-111.6536
17:04:24:658,1.8236,-0.0419,7.7296,32.2541,0.0347,0.1483,1.341,-111.6536
17:04:24:678,1.7117,1.5371,8.6435,32.2627,-0.7517,-0.2853,0.7363,-111.6536
17:04:24:698,0.6463,1.6695,10.6536,32.6618,-1.0182,-0.7274,0.173,-111.756
17:04:24:718,-0.3181,0.7481,11.6673,32.6134,-0.7165,-0.7334,0.0336,-111.8589
17:04:24:738,-0.6588,0.1684,10.5658,32.5489,-0.1468,-0.4603,0.2604,-111.9608
17:04:24:758,-0.6223,-0.0751,8.627,32.971,0.3134,-0.0859,0.6932,-112.0722
17:04:24:778,0.3408,0.1007,6.7725,32.9811,0.5672,0.2434,1.032,-112.2082
17:04:24:798,2.0193,0.5549,5.5179,33.1192,0.4696,0.447,0.9038,-112.3761
17:04:24:818,1.6446,1.4339,4.9781,33.3375,0.0969,0.5041,0.3727,-112.5659
17:04:24:837,0.3913,1.5533,5.4423,33.3627,-0.1959,0.3245,-0.1833,-112.7575
17:04:24:859,-0.8522,1.0013,6.7177,33.4016,-0.2099,-0.0009,-0.3858,-112.9346
17:04:24:879,-1.1746,0.2643,7.6824,33.4785,0.0149,-0.2,-0.1791,-113.0945
17:04:24:899,-0.617,0.2184,8.0387,33.7343,0.2297,-0.3,0.1774,-113.2471
17:04:24:918,-0.1392,0.5409,7.7702,33.6357,0.1824,-0.3619,0.2532,-113.4029
17:04:24:938,-0.1423,0.9442,8.0094,33.893,-0.1705,-0.4356,0.0288,-113.5612
17:04:24:958,-0.1184,0.6074,9.3618,33.9876,-0.4516,-0.4862,-0.358,-113.7119
17:04:24:978,-0.0623,-0.8354,10.3157,34.0513,-0.627,-0.3882,-0.642,-113.8416
17:04:24:998,-0.4688,-1.9652,11.4901,34.1272,-0.8784,-0.2003,-0.5858,-113.9433
17:04:25:018,-0.4278,-2.2186,13.3017,34.3841,-0.8995,-0.0066,-0.2652,-113.9433
17:04:25:038,0.9471,-2.1652,14.1994,34.5815,-0.5279,0.0709,0.0091,-113.9433
17:04:25:060,2.5381,-1.9788,13.7436,34.5865,-0.2889,0.0282,-0.1372,-113.9433
17:04:25:078,2.4888,-1.9275,13.5553,35.1276,-0.3965,-0.0058,-0.5809,-113.9433
17:04:25:099,1.7867,-2.2505,13.8169,35.2924,-0.4056,-0.0344,-0.8393,-113.9433
17:04:25:118,1.4918,-2.837,13.9665,35.1331,-0.3676,0.3093,-0.8145,-113.9433
17:04:25:138,1.2678,-2.7771,12.7602,35.4419,-0.0344,0.4361,-0.5808,-113.9433
17:04:25:159,1.1878,-2.2946,10.6935,35.5943,0.1678,0.5311,-0.2817,-113.9433
17:04:25:178,0.961,-1.4562,8.4593,35.765,0.3046,0.4179,-0.095,-113.9433
17:04:25:198,1.5359,-0.7927,6.7264,36.1545,0.0628,0.2859,-0.084,-113.9433
17:04:25:218,1.177,-0.1091,6.5275,36.2281,-0.2596,0.135,-0.2764,-113.9433
17:04:25:238,0.327,0.3693,6.8816,36.0519,-0.266,0.046,-0.3325,-113.9433
17:04:25:258,-0.1517,0.4504,6.7392,36.1901,-0.0096,-0.0031,-0.2847,-113.9433
17:04:25:278,-0.3633,0.4157,6.0535,36.2783,0.1859,-0.0752,-0.1867,-113.9433
17:04:25:298,0.0488,0.3476,5.8298,36.5463,0.1763,-0.173,-0.1354,-113.9433
17:04:25:318,0.6224,0.2212,6.5564,36.6335,-0.0053,-0.3949,-0.1705,-113.8516
17:04:25:341,0.686,0.3187,8.2055,36.7494,-0.1772,-0.5889,-0.1818,-113.7562
17:04:25:358,0.1637,0.583,10.5866,36.8592,-0.0912,-0.7365,-0.1016,-113.6575
17:04:25:400,0.3677,0.5909,12.375,37.0425,0.4802,-0.6323,0.0991,-113.5605
