Time,Acc_X,Acc_Y,Acc_Z,Meg,Gyr_X,Gyr_Y,Gyr_Z,Ore
17:31:28:753,0.516,3.2741,9.1271,47.5851,-0.1617,0.0236,-0.5621,0.0888
17:31:28:754,0.665,3.3701,9.089,47.5851,-0.1654,-0.0301,-0.6526,0.117
17:31:28:754,0.7601,3.377,9.044,27.5672,-0.1739,-0.1364,-0.7589,0.1229
17:31:28:755,0.818,3.143,8.9741,27.5956,-0.1862,-0.25,-0.8676,0.134
17:31:28:760,0.945,2.951,9.034,27.3286,-0.1997,-0.3074,-0.9665,0.1321
17:31:28:767,0.9161,2.8001,9.144,27.2264,-0.2094,-0.3282,-1.0288,0.1296
17:31:28:777,0.8081,2.726,9.285,27.1779,-0.2118,-0.3185,-1.0655,0.1216
17:31:28:787,0.633,2.736,9.4271,27.3987,-0.1997,-0.2892,-1.0728,0.1132
17:31:28:797,0.4061,2.7641,9.467,27.4593,-0.1752,-0.2647,-1.0472,0.1067
17:31:28:807,0.1901,2.772,9.434,27.5633,-0.1495,-0.2672,-0.9983,0.0997
17:31:28:818,0.071,2.7521,9.36,27.5652,-0.1264,-0.2879,-0.9384,0.0992
17:31:28:828,0.068,2.666,9.281,27.5913,-0.1079,-0.3037,-0.8712,0.0996
17:31:28:837,0.09,2.604,9.2231,27.8683,-0.0945,-0.3124,-0.8114,0.1002
17:31:28:847,0.102,2.561,9.1751,27.9921,-0.0909,-0.3307,-0.7661,0.1008
17:31:28:857,0.131,2.5181,9.149,28.174,-0.0982,-0.3539,-0.7307,0.1015
17:31:28:867,0.159,2.513,9.2231,28.0896,-0.1129,-0.3442,-0.7063,0.1022
17:31:28:877,0.147,2.489,9.3791,27.9757,-0.1239,-0.2782,-0.6879,0.1026
17:31:28:887,0.114,2.451,9.4721,27.9072,-0.1226,-0.2109,-0.6721,0.1028
17:31:28:897,0.111,2.396,9.5081,28.0035,-0.1104,-0.1584,-0.6684,0.1027
17:31:28:906,0.183,2.379,9.5081,27.9484,-0.0909,-0.0974,-0.6758,0.1025
17:31:28:917,0.3221,2.324,9.4361,27.9621,-0.0689,-0.0399,-0.7002,0.1022
17:31:28:928,0.5711,2.2541,9.185,27.9796,-0.0737,-0.0203,-0.7624,0.1017
17:31:28:936,0.6761,2.3171,9.087,27.947,-0.1092,-0.0619,-0.8517,0.1018
17:31:28:947,0.684,2.357,9.017,28.2725,-0.1482,-0.1339,-0.9335,0.1015
17:31:28:960,0.614,2.429,8.9861,28.2588,-0.1984,-0.2109,-1.0117,0.1021
17:31:28:966,0.564,2.403,8.945,28.2728,-0.2595,-0.2855,-1.0825,0.102
17:31:28:977,0.554,2.262,8.9381,28.1304,-0.329,-0.3477,-1.1413,0.1019
17:31:28:987,0.614,2.0291,9.027,28.2628,-0.4,-0.3978,-1.1791,0.1016
17:31:28:996,0.566,1.8281,9.458,28.2113,-0.4683,-0.4394,-1.1828,0.1013
17:31:29:007,0.5261,2.072,9.956,28.1455,-0.4745,-0.459,-1.1558,0.101
17:31:29:017,0.437,2.348,10.3511,28.1969,-0.4378,-0.4833,-1.1265,0.101
17:31:29:027,0.435,2.331,10.497,27.9334,-0.3682,-0.5127,-1.0825,0.1012
17:31:29:036,0.533,2.058,10.4321,28.0857,-0.257,-0.47,-1.035,0.1017
17:31:29:046,0.7841,1.661,10.269,28.217,-0.1177,-0.3685,-1.0044,0.1023
17:31:29:056,1.005,1.337,10.1741,28.243,0.0191,-0.2977,-1.0032,0.1031
17:31:29:066,1.1,1.091,10.214,28.1827,0.129,-0.3332,-1.0398,0.1043
17:31:29:079,0.9281,0.9731,10.3241,28.208,0.2439,-0.5921,-1.096,0.1067
17:31:29:086,0.497,0.981,10.3961,28.2969,0.366,-0.8316,-1.1461,0.1103
17:31:29:097,0.032,1.0001,10.676,28.5108,0.4883,-0.9379,-1.1473,0.1148
17:31:29:107,-0.4961,0.9611,10.9091,28.5392,0.6006,-0.9489,-1.0912,0.1197
17:31:29:116,-0.9791,0.899,10.9541,28.4531,0.6971,-0.8341,-0.991,0.1246
17:31:29:127,-1.4801,1.024,10.88,28.2646,0.7864,-0.6153,-0.8602,0.1292
17:31:29:137,-1.896,1.196,10.653,27.9597,0.8742,-0.3257,-0.7221,0.1331
17:31:29:148,-2.0141,1.323,10.38,27.8702,0.9574,-0.0216,-0.6171,0.1363
17:31:29:157,-1.034,1.713,9.735,27.9221,1.027,0.1299,-0.6134,0.1392
17:31:29:167,-0.773,1.965,9.3401,27.6108,1.077,0.0664,-0.7747,0.1423
17:31:29:177,-0.587,2.034,8.919,27.3424,1.11,-0.0351,-1.019,0.1458
17:31:29:187,-0.587,2.022,8.5121,27.3284,1.1137,-0.2036,-1.2621,0.1497
17:31:29:197,-0.86,2.113,8.3471,27.1461,1.0747,-0.4308,-1.4552,0.1542
17:31:29:206,-1.329,2.276,8.483,27.1079,1.0002,-0.6801,-1.5822,0.1592
17:31:29:217,-1.6331,2.448,8.493,27.3119,0.9072,-0.9012,-1.6457,0.1645
17:31:29:228,-1.779,2.36,8.696,27.1426,0.7692,-1.1089,-1.6787,0.17
17:31:29:236,-2.241,2.3381,9.249,26.861,0.6714,-0.8987,-1.5639,0.1751
17:31:29:248,-2.4641,2.64,9.288,26.9099,0.6751,-0.6531,-1.4039,0.1836
17:31:29:257,-2.423,2.829,9.0101,26.9064,0.6751,-0.3527,-1.2292,0.1869
17:31:29:268,-1.758,2.6471,8.6771,26.6041,0.6153,0.0029,-1.1155,0.1885
17:31:29:279,-1.853,3.26,8.402,26.611,0.4675,0.323,-1.112,0.1888
17:31:29:288,-2.2819,3.93,8.474,26.2737,0.2988,0.5576,-1.129,0.1878
17:31:29:297,-2.5241,4.34,8.8691,26.1483,0.1596,0.6601,-1.123,0.1858
17:31:29:311,-2.619,4.574,9.446,26.0777,0.0606,0.6784,-1.1217,0.1832
17:31:29:318,-2.979,4.955,10.1111,26.2062,0.0214,0.6773,-1.129,0.1809
17:31:29:327,-3.338,5.187,10.559,26.3361,0.0679,0.6846,-1.1168,0.1784
17:31:29:336,-3.678,5.2811,10.7531,26.4714,0.1717,0.6956,-1.09,0.1763
17:31:29:347,-3.845,5.175,10.643,26.7352,0.283,0.7176,-1.0497,0.1746
17:31:29:357,-3.929,4.9691,10.449,26.8651,0.3563,0.7189,-0.9995,0.1732
17:31:29:368,-3.924,4.5821,10.332,27.0318,0.3953,0.7359,-0.9457,0.1719
17:31:29:377,-3.881,4.131,10.241,27.4153,0.4405,0.8189,-0.892,0.1706
17:31:29:386,-3.728,3.758,10.0421,27.7556,0.5103,0.9362,-0.8579,0.1693
17:31:29:404,-3.4721,3.528,9.623,27.7671,0.5884,1.0658,-0.8737,0.1678
17:31:29:406,-3.8981,3.914,9.513,27.8872,0.6691,1.2148,-0.9519,0.1662
17:31:29:417,-4.386,4.452,9.786,28.0042,0.7594,1.2771,-1.0472,0.1647
17:31:29:427,-4.88,4.7951,10.274,28.1038,0.9036,1.2038,-1.1107,0.1637
17:31:29:436,-4.899,4.73,10.4201,28.1238,1.1296,0.9729,-1.1242,0.1642
17:31:29:447,-4.602,3.7631,9.575,28.3733,1.3606,0.5648,-1.096,0.1666
17:31:29:456,-4.7651,2.403,8.79,28.4642,1.512,0.0359,-0.9434,0.1712
17:31:29:467,-3.972,2.7761,7.502,28.5487,1.4802,-0.5028,-0.6684,0.1774
17:31:29:478,-3.072,2.549,7.5971,28.8009,1.1846,-0.6055,-0.5573,0.1831
17:31:29:489,-3.053,2.8391,5.9411,29.0428,1.1003,-0.217,-0.6256,0.1875
17:31:29:497,-5.435,4.1051,3.63,29.1296,0.8987,0.3877,-0.8114,0.1893
17:31:29:510,-10.434,6.555,2.603,29.4326,0.4173,0.8715,-0.8346,0.1881
17:31:29:516,-9.422,5.942,2.8211,29.9444,-0.1275,1.2209,-0.4535,0.1842
17:31:29:527,-5.6081,3.758,3.594,30.2043,-0.6908,0.9362,-0.0294,0.1791
17:31:29:536,-4.5491,3.602,4.4321,30.4276,-1.1379,0.2252,0.2295,0.1744
17:31:29:548,-4.5521,4.0331,4.976,30.6069,-1.4189,-0.5103,0.4518,0.1706
17:31:29:557,-4.712,4.239,5.2871,30.7687,-1.6437,-1.247,0.6656,0.1681
17:31:29:567,-3.735,4.0571,5.577,31.0127,-1.827,-1.925,0.8917,0.1669
17:31:29:577,-2.691,3.77,6.075,31.3047,-1.9271,-2.3526,0.9772,0.1665
17:31:29:586,-3.309,4.428,6.989,31.7359,-1.9161,-2.6311,0.9687,0.1669
17:31:29:597,-3.2351,4.838,8.148,32.146,-1.7805,-2.779,0.9552,0.1682
17:31:29:607,-2.411,4.335,8.9,32.5309,-1.5044,-2.7948,0.91,0.1705
17:31:29:617,-1.86,3.8711,10.092,32.7547,-1.2528,-1.732,0.7671,0.171
17:31:29:628,-0.8291,3.5111,10.238,33.3384,-1.0475,-0.0496,0.5215,0.1677
17:31:29:636,-1.394,2.9801,10.104,33.9948,-0.7323,0.7481,0.4653,0.1632
17:31:29:648,-3.309,3.372,9.714,34.2157,-0.2619,1.541,0.9369,0.1537
17:31:29:657,-3.077,2.891,9.491,34.6207,-0.2362,1.6424,1.1923,0.1484
17:31:29:668,-2.3081,2.673,9.393,34.7604,-0.2912,1.3504,1.3571,0.1446
17:31:29:677,-1.7651,3.1331,9.362,34.873,-0.3585,0.6443,1.4354,0.1419
17:31:29:688,-2.579,3.801,9.362,35.0772,-0.4085,-0.3172,1.4536,0.1422
17:31:29:697,-2.928,4.0811,9.498,35.5057,-0.4158,-1.2787,1.5709,0.145
17:31:29:707,-2.567,3.71,9.369,35.6804,-0.3792,-1.9933,1.7982,0.1503
17:31:29:717,-2.0381,3.179,9.522,35.8582,-0.3303,-2.3099,2.0791,0.157
17:31:29:728,-1.353,2.673,9.9131,36.0059,-0.2644,-2.2792,2.3345,0.164
17:31:29:737,-0.7661,2.276,10.224,36.4356,-0.1434,-2.0239,2.4335,0.1707
17:31:29:746,0.212,2.453,10.473,36.5227,-0.0322,-1.6647,2.3101,0.1767
17:31:29:759,1.584,2.927,10.755,36.6053,0.0386,-1.2396,1.9326,0.1815
17:31:29:766,2.391,3.4301,10.605,36.8885,0.0887,-0.8889,1.3827,0.1851
17:31:29:777,2.5271,3.705,10.4351,37.1012,0.0984,-0.5786,0.8587,0.1877
17:31:29:786,2.034,3.8231,9.8171,37.0625,0.0972,-0.2647,0.4616,0.1891
17:31:29:797,0.791,3.7241,9.762,36.9735,-0.0139,0.3487,0.3125,0.1883
17:31:29:810,-0.498,3.705,9.381,37.1251,-0.1116,0.6688,0.4238,0.186
17:31:29:816,-0.7811,3.519,8.8811,37.1106,-0.2217,0.9265,0.6901,0.1826
17:31:29:827,-0.594,3.368,8.778,37.2608,-0.3732,1.2968,0.9197,0.1775
17:31:29:837,0.224,3.15,9.005,37.3127,-0.549,1.6937,1.0053,0.1706
17:31:29:846,0.8201,2.9441,9.4241,37.1534,-0.7323,1.9027,0.9405,0.1623
17:31:29:856,1.0549,2.669,9.908,37.3312,-0.9167,1.8172,0.7865,0.1534
17:31:29:867,0.954,2.3291,10.509,37.5912,-1.0744,1.5654,0.5899,0.1446
17:31:29:877,0.7871,1.91,11.201,37.7945,-1.1635,1.2735,0.3883,0.1364
17:31:29:886,0.4661,1.541,11.778,38.1253,-1.1745,0.9767,0.2197,0.1291
17:31:29:896,0.138,1.244,12.1031,38.2109,-1.1245,0.7139,0.1037,0.1227
17:31:29:908,-0.089,0.83,12.1421,38.4449,-1.0365,0.5735,0.0437,0.1172
17:31:29:916,-0.098,0.2891,12.17,38.8748,-0.9399,0.5661,0.0291,0.112
17:31:29:927,-0.1151,-0.093,12.278,39.2901,-0.8374,0.6676,0.0535,0.1068
17:31:29:937,-0.182,-0.342,12.297,39.3981,-0.714,0.8178,0.1097,0.1016
17:31:29:947,-0.0551,-0.431,12.3071,39.5506,-0.5588,0.9399,0.1805,0.0966
17:31:29:959,0.231,-0.45,12.204,39.8016,-0.3622,0.99,0.2405,0.092
17:31:29:967,0.609,-0.2831,11.7731,39.9559,-0.1312,0.9937,0.2563,0.0882
17:31:29:977,0.8321,-0.165,10.971,40.142,0.063,1.0365,0.2123,0.0849
17:31:29:987,0.8921,-0.117,10.08,40.3806,0.184,1.0732,0.1513,0.0819
17:31:29:997,0.8441,0.1931,9.4121,40.1937,0.2194,1.067,0.1134,0.0791
17:31:30:009,0.7721,0.351,8.859,40.1383,0.2035,1.0022,0.1147,0.0764
17:31:30:029,0.782,0.2861,8.361,40.4399,0.1559,0.9119,0.1268,0.0739
17:31:30:031,0.825,0.38,7.947,40.5387,0.074,0.8386,0.1427,0.0713
17:31:30:038,0.918,0.4181,7.731,40.6776,-0.0323,0.8239,0.183,0.0685
17:31:30:048,1.076,0.399,7.6931,40.7655,-0.1409,0.8459,0.2343,0.0653
17:31:30:061,1.0481,0.428,7.827,40.7632,-0.2265,0.8752,0.2833,0.0617
17:31:30:068,0.8681,0.641,8.04,40.8256,-0.2669,0.8862,0.3468,0.058
17:31:30:078,0.983,0.794,8.3111,41.1511,-0.2595,0.8141,0.4323,0.0545
17:31:30:092,1.538,1.23,8.6051,41.4009,-0.0676,0.4672,0.5336,0.0501
17:31:30:098,1.658,1.397,8.615,41.1784,0.0814,0.2509,0.5116,0.0496
17:31:30:111,1.8521,1.601,8.7229,41.2973,0.2402,-0.0093,0.4555,0.0506
17:31:30:118,2.1611,1.809,8.7851,41.3715,0.3868,-0.289,0.3858,0.0532
17:31:30:128,2.42,2.0651,8.6081,41.4336,0.5114,-0.4918,0.304,0.0565
17:31:30:137,2.637,2.264,8.21,41.6367,0.5846,-0.5738,0.2013,0.0609
17:31:30:148,2.726,2.367,7.791,41.7661,0.5774,-0.5651,0.0732,0.0644
17:31:30:157,2.487,2.573,7.6241,41.526,0.498,-0.5151,-0.0759,0.0679
17:31:30:167,2.0891,2.7,7.478,41.7211,0.3855,-0.4833,-0.2139,0.0708
17:31:30:179,1.706,2.664,7.356,41.8504,0.25,-0.4466,-0.3239,0.0731
17:31:30:186,1.172,2.568,7.688,42.0463,0.0997,-0.3905,-0.4082,0.0746
17:31:30:197,0.6191,2.4911,8.2391,42.0143,-0.0126,-0.3623,-0.462,0.0756
17:31:30:209,0.389,2.2691,8.6891,42.0247,-0.0689,-0.3905,-0.4718,0.0765
17:31:30:216,0.111,2.223,9.029,42.0326,-0.0738,-0.4235,-0.4718,0.0775
17:31:30:227,-0.1271,2.204,9.053,42.0192,-0.0531,-0.4613,-0.4535,0.0786
17:31:30:236,-0.165,2.214,9.005,42.2486,-0.0311,-0.4528,-0.4229,0.0798
17:31:30:248,-0.386,2.333,8.847,42.1559,-0.0225,-0.3893,-0.4047,0.0809
17:31:30:256,-0.702,2.436,8.627,42.215,-0.0444,-0.3513,-0.3839,0.0818
17:31:30:270,-1.089,2.5151,8.5691,41.9904,-0.0983,-0.3648,-0.3607,0.0825
17:31:30:279,-1.5371,2.666,8.6771,42.0729,-0.1691,-0.4234,-0.3337,0.0832
17:31:30:286,-1.863,2.657,8.9501,42.2228,-0.2497,-0.4979,-0.2922,0.0839
17:31:30:297,-2.066,2.661,9.7091,42.2761,-0.3194,-0.5786,-0.2409,0.0846
17:31:30:308,-2.471,2.7641,10.6001,42.342,-0.3377,-0.6226,-0.1811,0.0855
17:31:30:316,-3.189,3.083,11.352,42.4962,-0.3022,-0.5444,-0.087,0.0863
17:31:30:327,-3.855,3.459,11.682,42.5264,-0.2449,-0.3171,0.0755,0.0866
17:31:30:336,-3.831,3.588,11.414,42.5001,-0.2277,-0.0044,0.2943,0.086
17:31:30:347,-2.955,3.389,11.2421,42.8175,-0.3634,0.1826,0.4652,0.0844
17:31:30:357,-1.5971,2.8721,11.9261,43.0167,-0.6871,0.1104,0.4531,0.082
17:31:30:366,-0.747,2.2301,13.734,42.878,-1.0512,-0.0935,0.2258,0.0789
17:31:30:376,-0.893,1.3061,15.209,43.0707,-1.2283,-0.228,-0.0638,0.0754
17:31:30:386,-1.334,0.272,15.783,42.9734,-1.1404,-0.2023,-0.2263,0.0721
17:31:30:397,-2.033,0.1451,15.8741,42.9049,-0.8569,-0.0825,-0.2458,0.0693
17:31:30:409,-2.2841,-0.2321,15.0701,42.9159,-0.5088,0.0786,-0.1981,0.0671
17:31:30:416,-2.67,-0.17,13.985,43.1808,-0.2131,0.2167,-0.1298,0.0656
17:31:30:427,-2.9621,0.159,12.908,43.2085,0.0324,0.3426,-0.0198,0.0645
17:31:30:436,-3.053,0.7121,11.9651,43.2829,0.2732,0.5027,0.1268,0.0637
17:31:30:446,-2.792,1.1651,11.055,43.2534,0.5186,0.6663,0.2698,0.0633
17:31:30:457,-2.54,1.646,10.056,43.0047,0.7642,0.7714,0.3651,0.0633
17:31:30:467,-2.327,2.046,8.7971,43.0763,0.9818,0.7714,0.4114,0.0641
17:31:30:477,-2.157,2.5151,7.47,43.2507,1.1198,0.6748,0.4151,0.0658
17:31:30:488,-1.961,2.889,6.297,43.4938,1.1406,0.5027,0.3699,0.068
17:31:30:497,-1.959,2.942,5.273,43.5119,1.0428,0.2864,0.2673,0.0707
17:31:30:508,-2.0089,2.889,4.779,43.5843,0.5811,-0.173,0.018,0.0734
17:31:30:517,-1.884,2.633,5.229,43.568,0.3123,-0.344,-0.065,0.0759
17:31:30:528,-1.5761,2.3651,6.048,43.9763,0.0715,-0.4063,-0.1151,0.0799
17:31:30:538,-1.259,2.072,6.8861,44.2925,-0.1044,-0.366,-0.1493,0.0808
17:31:30:548,-1.1471,1.7201,7.559,44.5572,-0.2156,-0.2646,-0.1798,0.0809
17:31:30:558,-1.104,1.464,8.091,44.6257,-0.2791,-0.1693,-0.1957,0.0805
17:31:30:568,-0.9341,1.251,8.562,44.4611,-0.3047,-0.0924,-0.1957,0.0797
17:31:30:577,-0.8021,1.005,8.96,44.4664,-0.3109,-0.0397,-0.2079,0.0786
17:31:30:588,-0.869,0.933,9.3521,44.4726,-0.2999,-0.0007,-0.2421,0.0776
17:31:30:597,-1.0391,0.801,9.582,44.7976,-0.2619,0.0653,-0.2751,0.0764
17:31:30:608,-1.2911,0.7841,9.812,44.6986,-0.1924,0.1594,-0.2849,0.075
17:31:30:617,-1.614,1.043,9.812,44.7612,-0.0751,0.2644,-0.2666,0.0737
17:31:30:626,-1.841,1.268,9.4151,44.6254,0.0679,0.3499,-0.2274,0.0726
17:31:30:636,-2.1881,1.572,8.7371,44.7021,0.1778,0.378,-0.1969,0.0718
17:31:30:648,-2.289,1.6751,8.1821,44.8922,0.2108,0.3829,-0.1726,0.0712
17:31:30:657,-1.896,1.5191,7.866,44.8276,0.1987,0.3645,-0.1554,0.0705
17:31:30:667,-1.968,1.742,7.9061,44.9923,0.1877,0.2999,-0.1994,0.07
17:31:30:677,-2.303,1.9241,8.0381,44.8598,0.1595,0.1666,-0.2446,0.0699
17:31:30:687,-2.469,1.8281,8.141,44.8967,0.129,0.0128,-0.2617,0.0701
17:31:30:698,-2.615,1.8311,8.225,44.6899,0.1265,-0.0947,-0.2458,0.0707
17:31:30:708,-2.631,1.934,8.234,44.9055,0.1327,-0.1852,-0.2031,0.0716
17:31:30:716,-2.5241,2.003,8.301,45.0749,0.1375,-0.2853,-0.1529,0.0729
17:31:30:757,-2.177,2.118,8.3951,45.1725,0.1485,-0.3818,-0.1028,0.0747
17:31:30:758,-1.686,2.3171,8.627,45.4871,0.1595,-0.4381,-0.0723,0.0766
17:31:30:758,-1.394,2.417,8.732,45.2931,0.168,-0.4478,-0.0943,0.0787
17:31:30:759,-1.734,2.4941,8.6771,45.3748,0.157,-0.4148,-0.1554,0.0805
17:31:30:767,-2.378,2.441,8.5361,45.2791,0.1167,-0.3501,-0.1909,0.0821
17:31:30:777,-2.564,2.4911,8.778,45.4371,0.0544,-0.3208,-0.1738,0.0833
17:31:30:787,-1.779,3.588,10.025,45.2457,0.03,-0.3378,-0.1518,0.0844
17:31:30:797,-0.323,4.536,11.162,44.9864,0.1082,-0.4111,-0.1884,0.086
17:31:30:808,-0.5321,4.0091,10.4711,45.1209,0.2157,-0.5321,-0.3362,0.0883
17:31:30:817,-1.5011,3.4901,9.6371,45.0702,0.1595,-0.6372,-0.4682,0.0908
17:31:30:828,-1.271,3.26,10.2341,45.1766,-0.0018,-0.5431,-0.4352,0.0925
17:31:30:839,-1.212,2.855,10.985,45.2979,-0.0336,-0.4478,-0.3667,0.0937
17:31:30:847,-1.4081,2.422,10.9451,45.4776,0.0362,-0.4881,-0.3081,0.0953
17:31:30:857,-1.52,2.1611,10.949,45.7167,0.0813,-0.5919,-0.2129,0.0973
17:31:30:867,-1.3241,2.151,11.186,45.9213,0.1217,-0.6861,-0.109,0.0999
17:31:30:876,-1.1831,2.142,11.558,46.0788,0.179,-0.7092,-0.0271,0.1029
17:31:30:887,-0.8141,2.2811,11.7611,46.2161,0.2683,-0.7472,0.0462,0.1062
17:31:30:897,-0.5,2.0321,11.5721,46.0538,0.3611,-0.7752,0.067,0.1101
17:31:30:907,-0.4331,1.989,11.127,46.1604,0.3636,-0.901,0.051,0.1143
17:31:30:917,0.2651,1.5671,10.9661,46.2266,0.2523,-1.1015,0.062,0.1188
17:31:30:928,0.894,1.3541,11.534,46.1285,0.1217,-1.1833,0.0168,0.1231
17:31:30:937,2.2931,0.53,12.273,45.8593,0.107,-1.3984,-0.2018,0.1275
17:31:30:948,2.532,0.291,12.3911,45.7932,0.1974,-1.5009,-0.2776,0.1378
17:31:30:958,2.7791,0.0251,12.261,45.8188,0.333,-1.5584,-0.3228,0.1444
17:31:30:968,2.7191,-0.084,11.9891,45.7556,0.4943,-1.584,-0.3509,0.1506
17:31:30:977,2.609,0.387,11.562,45.8996,0.6592,-1.5938,-0.3167,0.1586
17:31:30:991,3.5261,0.339,10.782,45.73,0.8167,-1.5144,-0.1591,0.1657
17:31:30:997,4.668,0.7631,9.968,45.4843,0.8975,-1.2616,-0.0698,0.173
17:31:31:010,5.511,0.902,9.293,45.3252,0.8877,-0.9573,-0.098,0.1793
17:31:31:016,5.8151,1.2221,8.637,45.2851,0.8485,-0.6629,-0.153,0.1845
17:31:31:027,6.0731,1.5071,7.988,45.5447,0.7985,-0.4003,-0.2104,0.1887
17:31:31:039,6.372,1.7801,7.0991,45.4541,0.7129,-0.1986,-0.3167,0.1919
17:31:31:047,6.384,2.084,6.431,45.1322,0.5554,-0.0507,-0.5012,0.194
17:31:31:058,6.2051,2.2451,5.9981,45.1442,0.3586,0.0653,-0.71,0.195
17:31:31:067,5.7281,2.2691,5.8931,45.2161,0.1558,0.1471,-0.9301,0.195
17:31:31:077,5.175,2.226,6.0551,45.4749,-0.0396,0.1631,-1.1389,0.1941
17:31:31:092,4.5551,1.9841,6.41,45.5895,-0.1997,0.1374,-1.3197,0.1925
17:31:31:099,3.93,1.811,7.1951,45.9776,-0.2912,0.0641,-1.4761,0.1909
17:31:31:107,3.2891,1.5581,7.3511,45.7774,-0.2742,-0.1229,-1.6141,0.1898
17:31:31:118,2.721,1.428,7.119,45.7969,-0.2424,-0.2915,-1.7143,0.1892
17:31:31:127,2.2691,1.4141,6.7211,46.2867,-0.2522,-0.322,-1.7816,0.1887
17:31:31:136,2.07,1.548,6.4001,46.2288,-0.323,-0.2085,-1.8121,0.1877
17:31:31:150,2.3621,1.962,6.2111,46.1453,-0.466,0.0543,-1.8182,0.1853
17:31:31:160,3.4901,2.546,5.6441,46.2055,-0.6846,0.4025,-1.8329,0.1812
17:31:31:166,3.416,2.6351,4.899,46.1601,-0.9852,0.8447,-1.9587,0.1747
17:31:31:177,1.548,2.228,5.318,46.323,-1.397,1.3823,-2.2091,0.165
17:31:31:187,-0.687,1.835,6.324,46.1123,-1.8209,1.932,-2.3178,0.152
17:31:31:197,-1.734,1.677,8.66,46.4306,-2.0115,2.3046,-2.214,0.1371
17:31:31:208,-1.626,1.4741,10.538,46.2692,-1.86,2.2594,-2.0808,0.1227
17:31:31:217,-1.0661,1.4951,11.6171,46.3893,-1.4691,1.8367,-2.0027,0.1108
17:31:31:227,-0.809,1.4711,11.9291,46.6284,-0.9779,1.2528,-1.9697,0.1023
17:31:31:239,-1.068,1.491,11.7371,46.754,-0.4965,0.7543,-1.9684,0.0971
17:31:31:247,-1.485,1.6061,11.112,54.2962,-0.1264,0.433,-1.9562,0.0944
17:31:31:257,-1.662,1.7081,10.619,54.1855,0.0802,0.2168,-1.8902,0.0931
17:31:31:266,-1.5491,1.8881,10.4711,54.4965,0.1778,0.0128,-1.7914,0.0929
17:31:31:276,-1.403,2.01,10.712,54.4592,0.2353,-0.173,-1.7094,0.0934
17:31:31:287,-1.236,2.1011,11.1941,54.6664,0.2975,-0.3733,-1.6423,0.0947
17:31:31:297,-1.1111,2.2931,11.6441,54.919,0.3916,-0.6029,-1.5811,0.097
17:31:31:307,-1.0631,2.367,12.017,55.0249,0.5114,-0.8277,-1.5213,0.1003
17:31:31:317,-1.006,2.427,12.506,55.0536,0.6482,-1.0258,-1.4761,0.1046
17:31:31:327,-1.089,2.391,12.867,55.2201,0.8302,-1.1931,-1.4455,0.1101
17:31:31:337,-1.274,2.417,12.803,55.2426,1.038,-1.3006,-1.4003,0.1168
17:31:31:347,-1.559,2.465,12.254,55.3647,1.2224,-1.2749,-1.3392,0.1242
17:31:31:357,-2.2241,2.561,11.481,55.2894,1.3361,-1.1051,-1.2697,0.1318
17:31:31:368,-3.177,2.757,10.6001,55.2291,1.3579,-0.8462,-1.167,0.1391
17:31:31:377,-4.4681,3.147,8.799,55.1944,1.1443,-0.2145,-0.8774,0.1505
17:31:31:387,-5.2151,3.092,8.0831,55.2302,0.8755,-0.041,-0.7798,0.1542
17:31:31:398,-6.0941,2.831,8.024,55.1297,0.5236,0.0348,-0.7113,0.1564
17:31:31:408,-7.1231,2.4821,8.258,55.3014,0.1986,0.0738,-0.6258,0.1568
17:31:31:417,-7.7171,1.821,8.411,55.6282,-0.0628,0.0776,-0.4792,0.1563
17:31:31:429,-7.779,1.103,8.5481,55.5149,-0.2986,0.0225,-0.2813,0.1549
17:31:31:437,-7.3361,0.557,8.924,53.4898,-0.516,-0.0374,-0.0503,0.1528
17:31:31:448,-6.572,0.1451,9.453,53.4319,-0.6846,-0.0594,0.172,0.1501
17:31:31:457,-5.7251,-0.158,10.037,53.3121,-0.8031,-0.0227,0.3601,0.1469
17:31:31:466,-4.7771,-0.326,10.7201,53.3723,-0.8581,0.0041,0.5177,0.1434
17:31:31:476,-4.2671,-0.491,11.2871,53.4928,-0.8423,0.0556,0.6424,0.1399
17:31:31:486,-4.109,-0.524,11.7401,53.191,-0.7666,0.1313,0.7645,0.1366
17:31:31:496,-3.9461,-0.405,11.9621,53.0481,-0.626,0.1569,0.8977,0.1339
17:31:31:506,-3.575,-0.359,11.9501,52.9969,-0.4392,0.1434,1.026,0.132
17:31:31:516,-3.254,-0.117,11.8091,53.0094,-0.2364,0.1006,1.1359,0.1311
17:31:31:526,-2.943,0.167,11.361,53.1682,-0.0286,0.0384,1.2361,0.1313
17:31:31:538,-3.125,0.6791,10.521,53.123,0.1583,0.025,1.3217,0.1323
17:31:31:546,-3.441,1.2701,9.0821,53.2979,0.2853,0.1081,1.4242,0.1338
17:31:31:557,-2.9591,1.3661,7.7651,53.0434,0.2841,0.1801,1.528,0.1352
17:31:31:566,-1.1111,1.388,7.3241,53.3506,0.1497,0.1056,1.5245,0.1362
17:31:31:576,1.361,0.8111,7.391,53.423,-0.0298,-0.1547,1.3547,0.137
17:31:31:585,0.887,0.547,7.6811,53.8058,-0.1178,-0.4576,1.1311,0.138
17:31:31:596,-0.975,1.124,7.995,54.2779,-0.0396,-0.1693,1.0443,0.1386
17:31:31:607,-2.43,1.3541,7.3241,54.4176,0.1485,0.4977,1.1836,0.1386
17:31:31:616,-3.1991,1.809,6.522,54.7454,0.2975,0.9889,1.511,0.138
17:31:31:626,-2.6861,2.046,6.017,54.5499,0.3513,1.0867,1.8677,0.1375
17:31:31:636,-1.343,2.3051,6.036,54.8364,0.3135,0.9034,2.0584,0.1373
17:31:31:647,0.2861,2.532,6.6011,54.7547,0.2182,0.5258,2.0204,0.1376
17:31:31:656,1.5341,2.7791,7.542,49.2871,0.1339,0.0604,1.7798,0.1387
17:31:31:667,1.941,2.657,8.3561,49.2812,0.1217,-0.3037,1.4657,0.1405
17:31:31:677,1.929,2.642,8.807,48.9518,0.173,-0.4038,1.1861,0.1428
17:31:31:687,1.103,2.532,8.7041,48.9758,0.2182,-0.3318,0.9503,0.1449
17:31:31:697,0.107,2.489,8.718,49.153,0.2023,-0.1937,0.8158,0.1466
17:31:31:708,-0.699,2.561,8.912,49.5516,0.1607,-0.0177,0.767,0.1477
17:31:31:717,-1.1831,2.661,8.981,49.8523,0.1302,0.1899,0.767,0.148
17:31:31:728,-1.125,2.7,8.912,50.1685,0.0887,0.356,0.773,0.1478
17:31:31:738,-0.819,2.7,8.972,50.1557,0.0067,0.4012,0.7437,0.1471
17:31:31:749,-0.5201,2.6951,9.24,50.2977,-0.0996,0.3767,0.6864,0.1459
17:31:31:760,-0.3191,2.532,9.5441,50.5818,-0.1899,0.3255,0.6167,0.1446
17:31:31:767,-0.2471,2.274,9.795,50.6324,-0.2534,0.2241,0.5373,0.1432
17:31:31:780,-0.735,1.586,10.755,50.5075,-0.3242,-0.173,0.4078,0.142
17:31:31:791,-0.41,1.371,11.249,50.4962,-0.2802,-0.2853,0.478,0.1412
17:31:31:799,0.432,1.2491,11.694,50.195,-0.1885,-0.2218,0.6209,0.1413
17:31:31:809,0.935,1.2221,11.799,50.1928,-0.0554,-0.0153,0.7395,0.1414
17:31:31:817,1.091,1.397,11.67,50.3159,0.1071,0.2914,0.7908,0.1413
17:31:31:828,0.662,1.412,11.0021,50.0194,0.2696,0.521,0.7626,0.1411
17:31:31:843,-0.891,1.2851,9.702,49.9732,0.415,0.6273,0.6795,0.1412
17:31:31:848,-1.956,2.202,8.471,49.9904,0.481,0.5332,0.6453,0.1417
17:31:31:858,-1.971,2.432,7.626,50.2782,0.443,0.1986,0.7443,0.1432
17:31:31:867,-1.3031,2.879,7.281,50.1865,0.3662,-0.1668,0.831,0.1452
17:31:31:877,-0.129,3.044,7.1981,50.49,0.2342,-0.4771,0.8445,0.1478
17:31:31:887,1.098,3.365,7.7,50.2949,0.0399,-0.7105,0.7858,0.1504
17:31:31:896,1.869,3.545,8.3321,50.2387,-0.1495,-0.7728,0.6893,0.1524
17:31:31:908,2.2181,3.413,8.8661,50.5911,-0.3278,-0.6507,0.572,0.1535
17:31:31:916,2.001,2.8721,9.453,50.7238,-0.4951,-0.4172,0.4377,0.1531
17:31:31:926,0.617,2.072,10.0421,50.8425,-0.5868,-0.1448,0.2508,0.1516
17:31:31:939,-0.297,2.9891,10.811,50.7333,-0.5624,-0.1435,0.1689,0.15
17:31:31:948,0.483,2.8241,10.844,50.9714,-0.4683,-0.3415,0.3374,0.1492
17:31:31:957,1.725,2.52,11.019,50.9504,-0.4439,-0.2865,0.4022,0.1486
17:31:31:968,4.74,3.006,12.506,51.3374,-0.5111,0.0128,0.3766,0.1468
17:31:31:977,6.1931,2.913,12.941,51.4394,-0.6039,0.6823,0.2569,0.1428
17:31:31:987,7.335,2.934,13.676,51.703,-0.7774,1.3432,0.0773,0.1361
17:31:31:997,6.8441,2.673,14.261,51.703,-0.8972,1.6536,-0.194,0.1278
17:31:32:007,5.594,1.8401,14.5601,51.8583,-0.8397,1.5203,-0.5642,0.1198
17:31:32:018,3.983,0.9401,14.6651,52.1458,-0.6174,1.0671,-0.9013,0.1138
17:31:32:027,2.582,0.2411,14.4161,52.4178,-0.257,0.5077,-1.1249,0.1106
17:31:32:037,1.373,-0.453,13.626,52.5691,0.1559,0.0568,-1.2079,0.1102
17:31:32:047,0.195,-0.9671,12.477,52.614,0.5188,-0.1643,-1.1628,0.1121
17:31:32:057,-0.29,-1.14,11.139,52.762,0.7778,-0.2376,-1.0223,0.1152
17:31:32:067,-0.8741,-1.166,9.728,52.4837,0.9294,-0.2133,-0.8671,0.119
17:31:32:078,-0.884,-1.1111,8.6081,52.7794,0.9855,-0.19,-0.7193,0.123
17:31:32:091,-0.654,-0.9461,7.818,52.9131,0.9721,-0.1838,-0.5984,0.1271
17:31:32:097,-0.0431,-0.773,7.3601,53.0552,0.9171,-0.2145,-0.4982,0.131
17:31:32:108,0.758,-0.374,7.1831,53.1073,0.8584,-0.2804,-0.4444,0.135
17:31:32:117,1.974,0.1691,7.085,53.2692,0.8267,-0.4014,-0.4199,0.1391
17:31:32:128,3.183,0.89,6.6401,53.3346,0.8364,-0.5345,-0.4346,0.1436
17:31:32:137,4.397,2.015,6.0221,53.4597,0.8034,-0.5199,-0.5507,0.148
17:31:32:148,4.527,2.4551,5.237,53.7517,0.6813,-0.4111,-0.8036,0.1515
17:31:32:158,3.272,2.36,4.617,53.7368,0.4724,-0.2706,-1.0858,0.1537
17:31:32:167,1.6391,2.08,4.3001,53.944,0.2219,-0.0837,-1.2349,0.1544
17:31:32:178,0.377,2.022,4.281,54.0965,-0.0602,0.1875,-1.2544,0.1533
17:31:32:190,0.119,2.096,4.6091,54.1424,-0.3523,0.5357,-1.1994,0.1501
17:31:32:197,0.672,2.357,5.189,54.4249,-0.6222,0.9559,-1.1518,0.1447
17:31:32:209,0.597,2.3839,5.66,54.7054,-0.8397,1.3702,-1.1714,0.1372
17:31:32:217,-0.869,2.1109,6.5681,54.8887,-1.1085,1.6926,-1.2422,0.119
17:31:32:228,-1.9751,1.91,7.236,54.9754,-1.1586,1.6902,-1.2117,0.1091
17:31:32:242,-2.414,2.1011,7.935,55.3347,-1.1671,1.7281,-1.1346,0.0992
17:31:32:247,-2.5001,2.0681,8.8661,55.4494,-1.1561,1.7354,-1.0443,0.0893
17:31:32:257,-2.342,2.0891,9.882,55.6815,-1.0926,1.6951,-1.0028,0.0798
17:31:32:267,-2.4641,2.25,10.8581,55.9933,-0.9815,1.6255,-1.0161,0.0709
17:31:32:278,-2.7131,2.1971,11.486,56.3512,-0.8422,1.4935,-1.0443,0.0628
17:31:32:286,-3.0191,2.214,11.972,56.5607,-0.6724,1.3274,-1.0467,0.0558
17:31:32:296,-3.0671,2.2661,12.2831,56.7945,-0.4916,1.1197,-1.0088,0.0501
17:31:32:307,-2.856,2.3651,12.333,57.0488,-0.34,0.9316,-0.9613,0.0455
17:31:32:316,-2.5331,2.3621,12.7241,57.182,-0.2289,0.8143,-0.9245,0.0418
17:31:32:327,-1.971,2.3501,13.152,57.1322,-0.0884,0.6799,-0.9295,0.0389
17:31:32:337,-2.141,2.3261,13.3271,57.1918,0.0961,0.4782,-0.9978,0.0372
17:31:32:346,-3.012,2.3411,13.3391,51.74,0.3087,0.2986,-1.0566,0.0368
17:31:32:357,-3.678,2.379,13.119,51.6565,0.5677,0.0923,-1.0321,0.0379
17:31:32:366,-4.022,2.451,12.489,51.8063,0.8291,-0.1741,-0.9538,0.0409
17:31:32:377,-4.181,2.436,11.72,51.9852,1.0234,-0.4306,-0.855,0.0453
17:31:32:386,-4.3481,2.625,10.875,52.1057,1.1248,-0.6152,-0.7767,0.0507
17:31:32:397,-4.128,2.7071,10.217,52.3997,1.1272,-0.6787,-0.6949,0.0565
17:31:32:409,-4.116,2.523,9.63,52.5462,1.0759,-0.6384,-0.6644,0.0619
17:31:32:416,-4.4441,2.424,9.417,52.5114,0.9782,-0.5737,-0.6594,0.0669
17:31:32:428,-5.126,2.2691,9.374,52.8056,0.8597,-0.5004,-0.6325,0.0712
17:31:32:437,-5.945,2.216,9.4121,53.0817,0.7497,-0.4074,-0.5556,0.0749
17:31:32:447,-6.4241,2.0651,9.278,53.3766,0.6446,-0.3048,-0.4273,0.078
17:31:32:456,-6.513,1.6991,9.132,53.7144,0.5163,-0.1924,-0.2783,0.0805
17:31:32:467,-6.077,1.349,9.269,53.8976,0.3649,-0.1081,-0.1537,0.0822
17:31:32:477,-5.7131,0.933,9.671,53.8423,0.2317,-0.0605,-0.0828,0.0833
17:31:32:486,-5.8451,0.5111,10.04,54.2251,0.1596,-0.0312,-0.0437,0.0841
17:31:32:497,-6.122,0.26,10.3631,54.5919,0.1609,-0.0458,0.0113,0.0849
17:31:32:507,-6.2321,0.162,10.3361,54.6605,0.2244,-0.0886,0.0993,0.086
17:31:32:517,-6.0911,0.174,10.035,54.85,0.2964,-0.091,0.2018,0.0876
17:31:32:528,-5.811,0.327,9.7211,54.7325,0.327,-0.0348,0.2996,0.0893
17:31:32:537,-5.433,0.564,9.566,54.6777,0.3147,0.052,0.39,0.0909
17:31:32:547,-5.03,0.791,9.4361,54.8622,0.2879,0.1253,0.4547,0.0922
17:31:32:557,-4.779,0.89,9.144,55.0509,0.2684,0.1508,0.4889,0.0934
17:31:32:567,-4.643,0.899,8.775,55.1859,0.2476,0.1276,0.5147,0.0946
17:31:32:577,-4.5731,0.815,8.4431,55.4289,0.2146,0.0641,0.5378,0.0958
17:31:32:591,-4.413,0.7031,8.27,55.5377,0.1719,-0.0128,0.5782,0.0971
17:31:32:598,-4.013,0.4661,8.213,55.7149,0.1389,-0.0666,0.6332,0.0983
17:31:32:608,-3.651,0.207,8.15,55.6457,0.1181,-0.0923,0.6868,0.0996
17:31:32:617,-3.477,0.006,7.9781,55.8684,0.1059,-0.091,0.7541,0.1009
17:31:32:628,-2.933,-0.266,7.6091,56.1951,0.0778,0.102,0.9618,0.1021
17:31:32:639,-2.6771,-0.2441,7.49,56.3691,0.0778,0.2449,1.0522,0.1031
17:31:32:650,-2.339,0.059,7.466,56.4716,0.1254,0.3708,1.1352,0.1037
17:31:32:657,-2.028,0.36,7.308,56.4767,0.2122,0.4502,1.2037,0.1043
17:31:32:670,-1.5731,0.858,7.269,56.4926,0.3112,0.4734,1.2525,0.1062
17:31:32:677,-0.843,1.067,6.917,56.5376,0.4015,0.4649,1.277,0.1079
17:31:32:690,-0.441,1.637,6.3431,56.9064,0.4492,0.51,1.2684,0.1094
17:31:32:697,-0.216,2.412,5.672,56.8374,0.4223,0.7067,1.2317,0.1105
17:31:32:708,-0.2441,2.894,4.956,56.5011,0.3037,1.0219,1.1524,0.1103
17:31:32:717,-0.491,2.9921,4.391,56.4771,0.0644,1.342,1.0253,0.1083
17:31:32:726,-0.996,2.918,4.121,56.6421,-0.2618,1.5961,0.9056,0.1042
17:31:32:738,-1.731,3.2531,4.5371,56.5874,-0.6076,1.7733,0.8433,0.0982
17:31:32:746,-2.174,3.495,5.268,56.7035,-0.8849,1.8967,0.8249,0.0907
17:31:32:786,-2.244,3.384,5.993,56.5973,-1.056,1.9517,0.8066,0.0822
17:31:32:787,-2.064,3.246,6.771,56.4413,-1.1538,1.8821,0.7541,0.0735
17:31:32:787,-1.913,3.195,7.449,56.672,-1.1868,1.7086,0.665,0.0649
17:31:32:788,-2.064,3.174,7.854,57.0598,-1.1733,1.4678,0.5477,0.0569
17:31:32:797,-2.27,3.131,8.0711,57.1215,-1.144,1.2004,0.4327,0.0496
17:31:32:807,-2.5691,3.033,8.253,57.0813,-1.1415,0.9658,0.3289,0.0428
17:31:32:819,-2.837,3.0281,8.8781,57.314,-1.1623,0.763,0.2606,0.0365
17:31:32:827,-2.684,3.162,9.9701,57.3304,-1.1561,0.5565,0.2288,0.0307
17:31:32:839,-2.3351,3.176,10.9331,57.4016,-1.0865,0.3354,0.175,0.0257
17:31:32:847,-2.196,3.186,11.502,57.8508,-0.929,0.1435,0.0773,0.0217
17:31:32:859,-2.4041,3.083,11.4761,58.0198,-0.7176,0.0067,-0.0437,0.0188
17:31:32:866,-3.0551,2.9891,10.9331,58.1978,-0.5171,-0.063,-0.1463,0.0167
17:31:32:877,-3.893,3.0251,10.016,58.4263,-0.3755,-0.0898,-0.1988,0.0153
17:31:32:888,-4.559,3.1931,8.984,58.5198,-0.3108,-0.1411,-0.227,0.0142
17:31:32:897,-4.5521,3.219,8.241,58.5039,-0.3376,-0.2988,-0.2685,0.0134
17:31:32:908,-3.9791,3.126,8.258,58.6611,-0.428,-0.5577,-0.3651,0.0129
17:31:32:917,-3.429,2.846,8.766,58.8094,-0.5209,-0.8497,-0.5239,0.0128
17:31:32:927,-3.237,2.412,9.4391,58.696,-0.6149,-1.0549,-0.6852,0.0126
17:31:32:939,-3.249,2.118,10.181,58.6717,-0.7212,-1.0856,-0.7706,0.0122
17:31:32:947,-3.1151,1.838,10.973,58.5463,-0.8055,-0.9475,-0.7706,0.011
17:31:32:958,-2.955,1.421,11.814,58.6272,-0.8667,-0.7153,-0.7365,0.009
17:31:32:967,-2.991,0.9611,12.645,58.9019,-0.896,-0.4894,-0.7217,0.0063
17:31:32:978,-3.1511,0.581,13.3841,59.0948,-0.874,-0.3611,-0.7254,0.0032
17:31:32:989,-2.9741,0.195,14.052,59.1817,-0.8055,-0.3281,-0.7254,0.0003
17:31:32:997,-2.514,-0.237,14.6771,59.3831,-0.6956,-0.3146,-0.7523,-0.0022
17:31:33:007,-2.1191,-0.84,15.005,59.7586,-0.5441,-0.3134,-0.8232,-0.0043
17:31:33:017,-2.2391,-1.4561,15.027,60.0671,-0.3633,-0.3158,-0.9221,-0.0057
17:31:33:027,-2.744,-2.09,14.744,60.2753,-0.1739,-0.3158,-1.0003,-0.0064
17:31:33:039,-3.35,-2.6771,14.3561,60.2865,0.0191,-0.2901,-1.0161,-0.0064
17:31:33:047,-3.8411,-3.113,14.04,60.5544,0.2317,-0.2144,-0.9526,-0.0057
17:31:33:059,-4.281,-3.3041,13.607,60.8367,0.4785,-0.0653,-0.822,-0.0043
17:31:33:070,-3.987,-2.5091,12.068,60.8967,1.0197,0.3024,-0.3796,0.0008
17:31:33:080,-3.285,-1.9151,11.136,61.0288,1.2592,0.3879,-0.1658,0.005
17:31:33:092,-2.6411,-1.326,10.035,60.7811,1.4669,0.4172,-0.0327,0.0094
17:31:33:099,-2.0951,-0.8051,8.9501,60.5965,1.6134,0.3756,0.0358,0.0155
17:31:33:108,-1.901,-0.381,7.842,60.5143,1.6917,0.2559,0.0528,0.0211
17:31:33:117,-1.353,0.095,7.023,60.8107,1.7124,0.1583,0.0468,0.0277
17:31:33:127,-0.747,0.554,6.321,60.5016,1.6624,0.1655,0.0063,0.034
17:31:33:137,-0.2951,0.921,5.838,60.2929,1.5597,0.1814,-0.0815,0.0398
17:31:33:149,0.1901,1.34,5.61,60.2103,1.4058,0.2046,-0.2135,0.0449
17:31:33:158,0.48,1.692,5.538,59.8991,1.2237,0.2596,-0.3821,0.0489
17:31:33:167,0.483,1.917,5.529,60.0358,1.0369,0.3378,-0.58,0.0518
17:31:33:176,-0.0791,2.001,5.615,60.1302,0.8401,0.4087,-0.789,0.0535
17:31:33:189,-0.9221,1.814,5.943,60.2116,0.6556,0.4269,-0.9673,0.0541
17:31:33:197,-1.358,1.515,6.4001,59.9556,0.5298,0.3806,-1.0834,0.0542
17:31:33:208,-1.863,1.488,6.9371,60.0271,0.4748,0.2791,-1.1494,0.0542
17:31:33:216,-2.3081,1.361,7.3511,59.8849,0.4748,0.1618,-1.1896,0.0544
17:31:33:227,-2.648,1.266,7.686,60.1771,0.5042,0.069,-1.2019,0.055
17:31:33:239,-2.94,1.3091,7.992,60.1529,0.5628,-0.0043,-1.1934,0.0559
17:31:33:247,-3.311,1.5581,7.935,60.1,0.6398,-0.0763,-1.1787,0.0573
17:31:33:257,-3.5651,1.95,7.6481,60.0133,0.6923,-0.1546,-1.1444,0.0592
17:31:33:267,-3.419,2.271,7.368,59.8977,0.6971,-0.2083,-1.0968,0.0613
17:31:33:277,-3.486,2.652,7.2671,60.0963,0.6581,-0.2071,-1.0687,0.0632
17:31:33:289,-3.762,3.078,7.233,60.0521,0.5677,-0.096,-1.0455,0.0647
17:31:33:297,-4.001,3.492,7.365,60.1499,0.4198,0.1313,-1.0003,0.0651
17:31:33:308,-4.0849,3.9161,7.901,60.0642,0.2562,0.3829,-0.9343,0.0643
17:31:33:317,-4.164,4.187,8.7131,60.2681,0.1303,0.5345,-0.8793,0.0628
17:31:33:328,-4.097,4.175,9.623,60.4235,0.0729,0.5307,-0.8488,0.061
17:31:33:339,-4.0661,4.167,10.679,60.4451,0.0961,0.4331,-0.839,0.0594
17:31:33:346,-4.2191,4.041,11.546,60.4704,0.2049,0.2706,-0.8293,0.0586
17:31:33:357,-4.5161,3.677,11.9981,60.3078,0.3795,0.1081,-0.811,0.0589
17:31:33:369,-5.057,3.351,12.003,60.2537,0.6105,-0.041,-0.7645,0.0605
17:31:33:378,-5.8541,3.0761,11.433,67.4317,0.8658,-0.1753,-0.6753,0.0635
17:31:33:388,-6.728,2.999,10.406,67.2984,1.0845,-0.2633,-0.5422,0.0678
17:31:33:397,-7.106,3.03,9.419,67.3104,1.22,-0.3611,-0.3552,0.0732
17:31:33:409,-7.133,3.282,8.7161,67.2416,1.2873,-0.4734,-0.1854,0.0793
17:31:33:417,-7.0631,3.42,7.832,67.1218,1.3043,-0.5565,-0.073,0.0858
17:31:33:427,-7.023,3.5261,7.013,67.2556,1.242,-0.5822,-0.0144,0.0922
17:31:33:439,-7.106,3.6911,6.494,67.2814,1.0942,-0.5639,0.0173,0.0981
17:31:33:447,-7.19,3.794,6.1631,67.0168,0.9097,-0.4844,0.0578,0.1031
17:31:33:457,-7.1231,3.8711,5.9501,67.0184,0.6996,-0.3831,0.0968,0.107
17:31:33:469,-6.963,3.911,5.9021,67.1355,0.4517,-0.3219,0.1236,0.1098
17:31:33:478,-6.8051,3.794,6.053,67.0951,0.1816,-0.2999,0.1213,0.1114
17:31:33:489,-6.338,3.021,6.843,67.0486,-0.3596,-0.2463,0.0833,0.1119
17:31:33:497,-6.3401,2.408,7.425,67.1753,-0.5979,-0.1668,0.054,0.1111
17:31:33:509,-6.728,1.713,8.048,67.1214,-0.7762,-0.1093,0.0455,0.1061
17:31:33:519,-7.25,1.103,8.61,67.0709,-0.8812,-0.0776,0.098,0.1023
17:31:33:529,-7.5521,0.554,9.027,67.2936,-0.9105,-0.0238,0.2263,0.0991
17:31:33:539,-7.571,0.212,9.1871,67.0986,-0.8715,0.0605,0.4132,0.0954
17:31:33:547,-7.2311,0.2381,9.0101,66.9027,-0.7884,0.179,0.6307,0.0927
17:31:33:557,-6.534,0.408,8.543,66.8655,-0.7041,0.3072,0.847,0.09
17:31:33:568,-5.658,0.6911,8.033,67.2233,-0.6467,0.4245,1.0131,0.0876
17:31:33:577,-4.98,0.906,7.394,67.013,-0.6309,0.5479,1.0924,0.0851
17:31:33:587,-4.547,0.894,6.9821,66.6498,-0.6674,0.6005,1.1181,0.0824
17:31:33:596,-4.5281,0.849,6.558,66.2772,-0.7395,0.5614,1.1414,0.0795
17:31:33:607,-4.6001,0.8561,6.0941,66.4185,-0.8568,0.5125,1.211,0.0763
17:31:33:616,-4.758,1.1891,6.477,66.1569,-1.0193,0.5614,1.288,0.0724
17:31:33:627,-4.868,1.541,7.4201,66.1072,-1.133,0.5565,1.3149,0.0681
17:31:33:638,-4.659,1.313,8.129,65.8876,-1.1549,0.4502,1.338,0.0638
17:31:33:646,-3.996,0.983,8.574,65.3531,-1.0865,0.3097,1.3674,0.0602
17:31:33:657,-3.443,0.8561,8.4401,65.261,-0.9399,0.1496,1.3467,0.0574
17:31:33:666,-2.991,0.894,8.067,65.2706,-0.8117,0.0128,1.266,0.0555
17:31:33:678,-2.658,0.9731,7.928,65.2661,-0.7384,-0.14,1.1487,0.054
17:31:33:688,-2.397,0.981,8.0381,64.813,-0.7029,-0.3561,1.0204,0.0531
17:31:33:697,-2.327,0.93,8.1821,64.7663,-0.6601,-0.5565,0.8971,0.0527
17:31:33:708,-2.378,0.887,8.277,64.7299,-0.5966,-0.6396,0.8078,0.0527
17:31:33:717,-2.4281,0.923,8.2151,64.5658,-0.5368,-0.6102,0.7675,0.0528
17:31:33:727,-2.3801,1.079,8.1821,64.516,-0.4756,-0.5614,0.7638,0.0531
17:31:33:737,-2.16,1.404,8.385,64.564,-0.4085,-0.5419,0.7725,0.0536
17:31:33:747,-1.6571,1.718,8.799,64.4632,-0.318,-0.587,0.7468,0.0545
17:31:33:757,-1.362,1.7711,8.85,64.5129,-0.1752,-0.7165,0.6735,0.0561
17:31:33:767,-1.5251,1.8521,8.574,64.8366,-0.0236,-0.8436,0.5807,0.0587
17:31:33:779,-1.8461,2.154,8.462,64.9675,0.0681,-0.9401,0.4902,0.0618
17:31:33:789,-1.925,2.2541,8.529,65.8352,0.1144,-1.0024,0.4194,0.0651
17:31:33:797,-1.791,2.226,8.637,65.8915,0.1462,-0.989,0.3559,0.0686
17:31:33:807,-1.5161,2.147,8.7229,65.9154,0.1682,-0.9646,0.2947,0.072
17:31:33:819,-1.283,2.115,8.792,65.9891,0.1609,-0.9646,0.2129,0.0753
17:31:33:827,-1.166,2.0749,8.8931,65.9984,0.1352,-0.9683,0.1163,0.0785
17:31:33:837,-1.116,2.118,8.9861,66.0053,0.1034,-0.9658,0.015,0.0814
17:31:33:847,-0.963,2.163,9.0941,65.7635,0.0766,-0.9646,-0.0865,0.0841
17:31:33:857,-0.7331,2.08,9.2951,65.5024,0.0509,-1.0013,-0.2025,0.0867
17:31:33:867,-0.821,1.893,9.1751,65.4492,0.0314,-1.0611,-0.3381,0.0893
17:31:33:876,-1.154,1.7111,8.8301,65.5261,0.0069,-1.0586,-0.4579,0.0917
17:31:33:888,-1.5371,1.436,8.534,65.4696,-0.0529,-1.044,-0.5262,0.0937
17:31:33:897,-1.8011,1.2371,8.6411,65.5319,-0.1445,-1.0428,-0.536,0.0954
17:31:33:908,-1.683,0.947,9.338,65.572,-0.2203,-0.9951,-0.5079,0.0966
17:31:33:918,-1.401,0.8081,9.836,65.7413,-0.2203,-1.0488,-0.4994,0.098
17:31:33:930,-1.295,0.504,10.0901,65.6133,-0.2069,-1.1637,-0.6155,0.0995
17:31:33:939,-1.221,0.4661,10.061,65.6892,-0.1922,-1.2664,-0.6924,0.1029
17:31:33:947,-1.2911,0.71,10.092,65.8498,-0.1862,-1.3995,-0.7755,0.105
17:31:33:958,-1.0421,0.746,9.965,66.0206,-0.169,-1.529,-0.8463,0.1075
17:31:33:969,-0.776,0.858,9.7091,66.004,-0.1507,-1.6365,-0.9136,0.1102
17:31:33:977,-0.558,1.028,9.422,65.9465,-0.1678,-1.6841,-0.9771,0.113
17:31:33:988,0.066,1.419,9.486,66.1674,-0.2167,-1.5705,-0.9966,0.1153
17:31:33:996,0.674,1.538,8.579,66.1573,-0.2595,-1.4105,-1.0541,0.1171
17:31:34:007,1.299,1.802,7.298,66.0962,-0.4573,-1.1832,-1.1811,0.1175
17:31:34:018,1.646,1.6991,6.417,66.1992,-0.8715,-0.8876,-1.3985,0.1155
17:31:34:027,1.268,1.301,6.5531,66.1183,-1.4286,-0.5662,-1.6771,0.1103
17:31:34:038,0.339,0.708,7.748,66.0281,-1.9686,-0.2608,-1.9276,0.1013
17:31:34:046,-0.728,0.0161,9.254,66.0575,-2.3522,-0.0067,-2.0937,0.0914
17:31:34:057,-1.877,-0.486,10.839,66.066,-2.522,0.1741,-2.1512,0.0795
17:31:34:067,-3.062,-0.795,12.029,66.1397,-2.4633,0.3219,-2.1035,0.0674
17:31:34:077,-4.044,-0.7931,12.666,65.9036,-2.2202,0.4245,-1.9496,0.0561
17:31:34:087,-4.473,-0.797,12.726,66.1906,-1.8965,0.4234,-1.7296,0.0463
17:31:34:097,-4.7741,-0.845,12.654,66.1584,-1.5617,0.3171,-1.4902,0.0381
17:31:34:107,-4.724,-0.764,12.594,66.265,-1.2319,0.1326,-1.2495,0.0319
17:31:34:117,-4.3601,-0.6971,12.582,66.2463,-0.9167,-0.0752,-1.0236,0.0275
17:31:34:127,-3.738,-0.6971,12.2591,66.4785,-0.6089,-0.2596,-0.8243,0.0249
17:31:34:138,-3.053,-0.7061,11.7011,66.6042,-0.3461,-0.4014,-0.6765,0.0237
17:31:34:147,-2.478,-0.8021,11.052,66.4125,-0.1702,-0.5369,-0.5922,0.0237
17:31:34:157,-2.1881,-0.872,10.545,66.4251,-0.0884,-0.6555,-0.5446,0.0244
17:31:34:170,-1.9781,-1.013,10.229,66.4805,-0.0749,-0.7287,-0.5067,0.0253
17:31:34:178,-1.8341,-1.1921,10.092,66.185,-0.0982,-0.7202,-0.4554,0.0261
17:31:34:187,-1.8221,-1.334,10.035,65.9221,-0.1372,-0.6054,-0.3748,0.0265
17:31:34:197,-1.803,-1.4441,10.047,65.9587,-0.1653,-0.3891,-0.2563,0.0265
17:31:34:209,-1.769,-1.53,10.0781,65.8377,-0.1617,-0.1253,-0.1048,0.026
17:31:34:221,-1.485,-1.532,10.097,65.9059,-0.114,0.1191,0.065,0.0253
17:31:34:228,-1.13,-1.398,9.956,65.9653,-0.0334,0.3024,0.2141,0.0247
17:31:34:238,-0.7091,-1.1951,9.6611,65.9993,0.0681,0.4257,0.3241,0.0242
17:31:34:248,-0.321,-0.936,9.237,65.932,0.1682,0.4869,0.3889,0.0241
17:31:34:258,-0.1871,-0.663,8.8181,66.0938,0.2476,0.4746,0.4108,0.0244
17:31:34:272,-0.18,-0.318,8.4431,65.9884,0.3074,0.4135,0.4229,0.0251
17:31:34:277,-0.084,0.0011,8.117,65.8186,0.3477,0.3281,0.4327,0.0261
17:31:34:291,0.042,0.3341,7.937,65.6824,0.3612,0.2254,0.4364,0.0273
17:31:34:297,0.2981,0.674,7.832,65.1618,0.349,0.1398,0.4279,0.0287
17:31:34:307,0.624,0.935,7.794,65.0541,0.3087,0.0763,0.3889,0.0301
17:31:34:318,0.8111,1.175,7.94,64.9479,0.2366,0.0238,0.3179,0.0312
17:31:34:329,0.765,1.311,8.136,64.6825,0.1523,-0.0055,0.2288,0.0319
17:31:34:338,0.4061,1.404,9.036,64.6755,-0.0162,-0.0495,0.0688,0.0323
17:31:34:348,0.291,1.3541,9.47,64.6197,-0.0847,-0.0776,0.01,0.0322
17:31:34:358,0.303,1.22,9.8741,64.7146,-0.1422,-0.0935,-0.0302,0.0317
17:31:34:371,0.341,1.122,10.6211,64.4773,-0.1995,-0.1265,-0.073,0.0311
17:31:34:378,0.162,0.9491,11.328,64.6678,-0.2178,-0.1326,-0.1121,0.0303
17:31:34:389,-0.29,0.9161,12.1031,64.5311,-0.1885,-0.1253,-0.1158,0.0297
17:31:34:397,-0.558,0.885,12.635,64.6677,-0.0994,-0.069,-0.0718,0.0294
17:31:34:411,-0.8291,0.945,12.858,64.4809,0.0276,0.0263,-0.0033,0.0294
17:31:34:424,-0.9221,1.062,12.654,64.5793,0.1523,0.1313,0.0798,0.0299
17:31:34:427,-0.8621,1.191,12.261,64.5248,0.2414,0.2278,0.153,0.0305
17:31:34:438,-0.857,1.3301,11.852,64.4801,0.2709,0.2951,0.1921,0.0312
17:31:34:446,-0.9101,1.524,11.699,64.5923,0.2476,0.3134,0.2018,0.0317
17:31:34:457,-0.936,1.668,11.792,64.507,0.2074,0.2864,0.1958,0.0322
17:31:34:466,-0.888,1.6751,11.8691,64.306,0.1779,0.2326,0.1786,0.0326
17:31:34:477,-0.764,1.608,11.838,63.9295,0.1536,0.1606,0.1433,0.033
17:31:34:487,-0.647,1.277,11.6921,63.8696,0.1132,0.102,0.0821,0.0333
17:31:34:497,-0.635,0.7961,11.543,63.4599,0.0534,0.0641,0.0076,0.0335
17:31:34:507,-0.692,0.1811,11.5361,63.3006,-0.0236,0.0421,-0.062,0.0333
17:31:34:521,-0.984,-0.4481,11.7491,62.9611,-0.0896,0.0336,-0.1145,0.0328
17:31:34:526,-1.434,-0.903,12.1781,62.5891,-0.1055,0.0287,-0.1231,0.0323
17:31:34:537,-1.7531,-1.3031,12.573,62.445,-0.037,0.0177,-0.0742,0.032
17:31:34:547,-1.983,-1.485,12.8171,62.4298,0.1218,0.0103,0.0162,0.0325
17:31:34:557,-1.889,-1.4921,12.903,62.4987,0.3612,0.0103,0.1261,0.034
17:31:34:569,-1.6211,-1.413,12.477,62.4078,0.6508,-0.0227,0.2201,0.0369
17:31:34:577,-1.334,-1.2041,11.663,62.468,0.9244,-0.1045,0.2691,0.0411
17:31:34:586,-1.142,-0.989,10.679,62.4185,1.1235,-0.2573,0.2679,0.0466
17:31:34:598,-0.9821,-0.8021,9.8741,62.3928,1.2287,-0.4429,0.2398,0.0529
17:31:34:606,-0.9221,-0.6821,9.338,62.3666,1.2605,-0.5969,0.2018,0.0597
17:31:34:617,-0.936,-0.5411,8.9771,62.2484,1.253,-0.6835,0.1689,0.0667
17:31:34:626,-0.893,-0.4241,8.6681,62.3322,1.214,-0.7178,0.1543,0.0735
17:31:34:637,-0.8,-0.357,8.423,62.3509,1.1542,-0.7007,0.1518,0.0801
17:31:34:647,-0.723,-0.354,8.1911,62.3493,1.082,-0.6432,0.1628,0.0862
17:31:34:657,-0.6731,-0.237,8.076,62.2675,1.0027,-0.5565,0.1811,0.0918
17:31:34:671,-0.546,-0.242,7.863,62.1564,0.9306,-0.4441,0.208,0.0969
17:31:34:677,-0.539,-0.1631,7.6841,62.1562,0.8524,-0.3403,0.2336,0.1015
17:31:34:687,-0.575,-0.1031,7.3991,62.0102,0.7717,-0.2535,0.2606,0.1055
17:31:34:697,-0.563,-0.081,7.1951,61.8529,0.6826,-0.1863,0.2959,0.109
17:31:34:707,-0.45,-0.069,7.121,61.5393,0.5848,-0.1693,0.3241,0.1121
17:31:34:720,-0.369,-0.1031,7.0871,61.2542,0.4956,-0.1937,0.3461,0.1148
17:31:34:727,-0.108,-0.1631,7.221,61.0439,0.4113,-0.2511,0.3607,0.1172
17:31:34:737,0.078,-0.1991,7.545,60.95,0.349,-0.3134,0.3668,0.1195
17:31:34:747,0.071,-0.1631,8.0981,60.8867,0.3332,-0.3415,0.3729,0.1217
17:31:34:757,-0.2591,0.167,8.754,60.9443,0.393,-0.3341,0.3999,0.1242
17:31:34:768,-0.939,1.3781,8.811,60.8517,0.553,-0.2756,0.4914,0.1272
17:31:34:781,1.785,0.957,5.474,60.7473,0.6288,-0.2584,0.6442,0.1307
17:31:34:788,3.533,0.5951,5.5601,60.6636,0.2501,-0.7483,0.4865,0.1345
17:31:34:797,2.396,1.0451,7.3631,60.7774,-0.0676,-0.7435,0.2654,0.1384
17:31:34:807,-0.194,2.003,7.9781,61.031,-0.0126,0.0018,0.1873,0.1385
17:31:34:817,-1.377,2.08,6.4031,60.9917,0.1902,0.8118,0.3827,0.1378
17:31:34:827,-1.461,2.451,5.021,60.8856,0.1669,1.1392,0.6258,0.1364
17:31:34:837,-1.386,3.1811,5.124,60.7446,-0.0639,0.9621,0.7321,0.1344
17:31:34:846,-0.7331,3.365,6.0791,60.585,-0.3193,0.4539,0.7272,0.1323
17:31:34:857,0.0641,3.327,7.55,60.4562,-0.4951,-0.2035,0.6295,0.1307
17:31:34:870,0.8111,3.2981,8.876,60.3639,-0.5318,-0.7935,0.4792,0.13
17:31:34:876,1.574,3.15,9.515,60.0837,-0.4378,-1.1991,0.2911,0.1306
17:31:34:888,1.6871,3.056,9.542,59.8304,-0.3168,-1.4337,0.0968,0.1322
17:31:34:896,1.526,2.9891,9.3161,59.4428,-0.2533,-1.4838,-0.0327,0.1342
17:31:34:906,1.457,2.9531,9.204,59.4865,-0.2595,-1.3519,-0.0877,0.136
17:31:34:916,1.4621,2.901,9.24,59.4771,-0.3143,-1.0696,-0.095,0.1369
17:31:34:927,1.754,2.793,9.3071,59.4395,-0.3975,-0.7275,-0.0913,0.1368
17:31:34:937,2.1439,2.606,9.5081,59.5058,-0.5221,-0.4381,-0.1316,0.1356
17:31:34:947,2.36,2.388,9.968,59.5422,-0.6772,-0.2706,-0.2368,0.1333
17:31:34:957,2.4821,2.183,10.676,59.5068,-0.8067,-0.19,-0.3736,0.1302
17:31:34:967,2.5181,1.9931,11.318,59.4857,-0.8654,-0.1375,-0.5262,0.1268
17:31:34:977,2.1971,1.764,11.795,59.485,-0.8605,-0.0813,-0.6765,0.1232
17:31:34:987,1.658,1.601,12.221,59.3185,-0.8007,-0.0177,-0.7938,0.1197
17:31:34:997,1.005,1.5191,12.2021,59.3632,-0.7102,0.0165,-0.8635,0.1165
17:31:35:009,0.626,1.412,12.1061,59.4824,-0.6479,0.0153,-0.8805,0.1136
17:31:35:019,0.456,1.1981,12.1301,59.4798,-0.6186,-0.0104,-0.872,0.1109
17:31:35:027,0.624,0.9521,12.111,59.3229,-0.5868,-0.03,-0.85,0.1084
17:31:35:038,1.091,0.657,11.979,59.1058,-0.5783,-0.052,-0.8353,0.1059
17:31:35:047,1.62,0.2051,11.778,59.3942,-0.6186,-0.0715,-0.8561,0.1034
17:31:35:056,2.0171,-0.402,11.756,59.4898,-0.7102,-0.0886,-0.9123,0.1004
17:31:35:071,2.063,-1.0541,11.9651,59.3662,-0.8152,-0.0788,-0.9868,0.097
17:31:35:077,1.7441,-1.6691,12.357,59.1369,-0.8764,0.0043,-1.0381,0.0932
17:31:35:088,1.136,-2.196,12.51,59.0749,-0.858,0.1655,-1.0248,0.0891
17:31:35:096,0.538,-2.636,12.357,59.2532,-0.7774,0.3854,-0.9196,0.085
17:31:35:107,0.0281,-2.876,12.051,59.4315,-0.6601,0.6273,-0.7365,0.0809
17:31:35:121,-0.0791,-3.0701,11.6921,59.3616,-0.5281,0.7947,-0.5042,0.0771
17:31:35:127,0.155,-3.0551,11.4521,59.2127,-0.3877,0.835,-0.2771,0.0738
17:31:35:137,0.698,-2.988,11.39,59.2423,-0.2252,0.7653,-0.0998,0.0713
17:31:35:148,1.3331,-2.864,11.366,59.3924,-0.0162,0.6115,0.0076,0.07
17:31:35:157,1.778,-2.526,11.105,59.5076,0.2414,0.3977,0.0528,0.0702
17:31:35:168,1.943,-2.0381,10.466,59.5121,0.5175,0.1668,0.054,0.0721
17:31:35:178,1.878,-1.518,9.453,59.2376,0.7571,-0.0422,0.0345,0.0754
17:31:35:191,1.625,-0.9821,8.3951,59.0923,0.9232,-0.2083,0.0175,0.0799
17:31:35:196,1.404,0.1091,6.5801,59.1529,1.0282,-0.3916,0.0333,0.085
17:31:35:208,1.5221,0.542,5.835,59.0433,0.9855,-0.3964,0.0382,0.0955
17:31:35:216,1.632,0.938,5.237,58.7814,0.8816,-0.3574,0.0247,0.1006
17:31:35:228,1.706,1.182,4.8611,58.6841,0.7241,-0.2963,-0.0242,0.104
17:31:35:239,1.5101,1.3211,4.784,58.6272,0.5408,-0.2426,-0.1035,0.1072
17:31:35:248,0.995,1.4141,5.009,58.4775,0.36,-0.2315,-0.1743,0.1091
17:31:35:257,0.4901,1.589,5.349,58.5294,0.1999,-0.2401,-0.205,0.1105
17:31:35:267,0.348,1.646,5.651,58.4411,0.0741,-0.2206,-0.2025,0.1113
17:31:35:276,0.296,1.677,5.979,58.3679,-0.0322,-0.1827,-0.194,0.1115
17:31:35:287,0.2621,1.668,6.422,58.2394,-0.1287,-0.1473,-0.1842,0.1112
17:31:35:296,0.284,1.692,6.8981,58.1718,-0.2118,-0.118,-0.1708,0.1105
17:31:35:307,0.401,1.749,7.3271,58.0272,-0.268,-0.0715,-0.1671,0.1093
17:31:35:316,0.471,1.859,7.643,58.1427,-0.3156,-0.0337,-0.1842,0.1081
17:31:35:327,0.468,1.9481,7.904,58.0436,-0.3718,-0.0263,-0.2183,0.1065
17:31:35:339,0.308,2.06,8.1701,57.9798,-0.4414,-0.0458,-0.2623,0.1046
17:31:35:347,0.1571,2.183,8.495,57.9846,-0.521,-0.0764,-0.2971,0.1024
17:31:35:357,0.092,2.1971,8.9981,58.1095,-0.6028,-0.1254,-0.3227,0.0999
17:31:35:370,0.114,2.154,9.75,58.0436,-0.6688,-0.1925,-0.3374,0.0972
17:31:35:377,0.116,2.0561,10.566,58.1072,-0.6981,-0.2743,-0.335,0.0945
17:31:35:387,0.2,1.881,11.3801,58.1132,-0.6859,-0.3477,-0.302,0.092
17:31:35:403,0.435,1.7321,12.278,57.712,-0.626,-0.3905,-0.2361,0.0898
17:31:35:410,0.741,1.634,13.032,57.4336,-0.5063,-0.3708,-0.1529,0.0881
17:31:35:421,1.038,1.677,13.617,57.2846,-0.3304,-0.2865,-0.0638,0.087
17:31:35:427,1.175,1.9601,13.914,57.1531,-0.1178,-0.1827,0.029,0.0867
17:31:35:437,1.316,2.195,13.6961,56.8784,0.1143,-0.0826,0.1353,0.0873
17:31:35:447,1.673,2.649,13.313,56.7772,0.333,-0.0069,0.2135,0.0887
17:31:35:457,1.905,3.0251,12.4391,56.79,0.5053,0.0298,0.2453,0.0908
17:31:35:466,2.2211,3.092,11.5241,56.7143,0.5481,-0.0264,0.2307,0.0933
17:31:35:477,2.276,3.054,10.952,56.7564,0.4845,-0.0802,0.1585,0.0957
17:31:35:487,2.044,2.9651,10.799,56.8476,0.3696,-0.085,0.0584,0.0975
17:31:35:499,1.625,2.724,10.784,56.8046,0.2548,-0.0496,-0.0258,0.0988
17:31:35:507,1.172,2.408,10.7201,56.7062,0.1595,0.0005,-0.0723,0.0996
17:31:35:520,0.71,2.044,10.578,56.7436,0.0789,0.0359,-0.0821,0.1
17:31:35:527,0.375,1.4471,10.368,56.6614,-0.0115,0.0336,-0.0576,0.0999
17:31:35:538,0.32,0.768,10.43,56.4749,-0.1361,-0.0569,-0.0113,0.0994
17:31:35:547,0.53,0.1451,10.992,56.2457,-0.2657,-0.234,0.0302,0.0986
17:31:35:557,0.885,-0.5081,11.9501,56.063,-0.3438,-0.4491,0.045,0.0979
17:31:35:567,1.196,-1.118,13.1501,56.1972,-0.3182,-0.6531,0.0389,0.0975
17:31:35:577,1.2251,-1.4651,14.256,56.182,-0.1508,-0.7679,0.0315,0.098
17:31:35:587,0.449,-1.118,14.828,56.2931,0.1425,-0.7252,0.0499,0.0997
17:31:35:598,-0.2561,-0.8741,14.486,56.2775,0.5004,-0.5383,0.0938,0.1028
17:31:35:608,-0.876,-0.809,12.534,56.3467,0.8144,-0.3123,0.1365,0.1069
17:31:35:620,1.4471,-1.58,10.902,56.4278,0.6164,-0.9757,0.2135,0.1114
17:31:35:627,1.2611,-0.987,11.481,56.5204,0.5639,-0.7606,0.2465,0.1198
17:31:35:638,0.7961,-0.8741,10.6721,56.6893,0.774,0.1874,0.3431,0.1232
17:31:35:647,0.107,-0.656,8.78,56.4517,0.9207,0.9192,0.4628,0.1255
17:31:35:657,-0.374,-0.3641,7.5401,56.3751,0.8034,1.1404,0.5239,0.1271
17:31:35:671,-0.5411,-0.225,7.6001,56.4127,0.5285,0.9497,0.5068,0.1279
17:31:35:676,-0.714,-0.144,8.462,56.57,0.2865,0.5405,0.4408,0.1282
17:31:35:688,-0.63,-0.278,9.558,56.3713,0.1742,0.0664,0.3883,0.1288
17:31:35:697,-0.335,-0.4481,10.3271,56.4619,0.2072,-0.3501,0.3699,0.1303
17:31:35:707,0.195,-0.7181,10.808,56.668,0.3501,-0.6299,0.3736,0.1328
17:31:35:720,0.471,-0.8141,11.057,56.5298,0.5737,-0.7532,0.3688,0.1366
17:31:35:727,0.305,-0.7331,10.887,56.6916,0.8462,-0.7631,0.3736,0.1416
17:31:35:737,-0.036,-0.498,10.14,56.7226,1.1161,-0.6787,0.4408,0.1477
17:31:35:747,-0.1841,-0.206,8.945,56.5485,1.3189,-0.4956,0.5813,0.1543
17:31:35:757,-0.077,0.102,7.7411,56.4713,1.4069,-0.234,0.7622,0.161
17:31:35:770,0.131,0.444,6.81,56.7174,1.3861,0.0616,0.9405,0.1669
17:31:35:776,0.506,0.744,6.123,56.5554,1.2859,0.3145,1.0908,0.172
17:31:35:789,0.9881,0.971,5.838,56.4657,1.1258,0.4635,1.1811,0.1761
17:31:35:796,1.409,1.227,5.948,56.5327,0.939,0.499,1.1873,0.1793
17:31:35:809,1.658,1.4471,6.2831,56.5576,0.774,0.4537,1.1226,0.1818
17:31:35:817,1.7831,1.617,6.6521,56.6635,0.6617,0.3877,1.0285,0.1839
17:31:35:827,1.749,1.7561,6.8501,56.8748,0.6141,0.3402,0.9258,0.1858
17:31:35:838,1.61,1.8551,6.846,56.9503,0.6018,0.2986,0.828,0.1878
17:31:35:847,1.3781,1.934,6.6491,57.0299,0.5846,0.2534,0.7523,0.1898
17:31:35:858,1.2011,2.036,6.5201,57.3448,0.5396,0.2119,0.7011,0.1917
17:31:35:868,1.122,2.06,6.4391,57.4675,0.4613,0.1666,0.6644,0.1934
17:31:35:877,1.194,2.013,6.5801,57.4749,0.366,0.1189,0.6314,0.1947
17:31:35:889,1.1861,1.9841,6.9491,57.6223,0.2745,0.0664,0.5899,0.1949
17:31:35:897,1.208,1.955,7.308,57.6875,0.217,0.0078,0.5544,0.1967
17:31:35:907,1.304,1.953,7.6361,57.7248,0.2035,-0.0447,0.5276,0.1977
17:31:35:917,1.464,1.955,7.827,57.6915,0.228,-0.0997,0.4971,0.1989
17:31:35:927,1.6511,2.01,7.983,57.8805,0.278,-0.1754,0.4543,0.2004
17:31:35:937,1.7231,2.115,7.985,57.8936,0.3355,-0.2647,0.3968,0.2024
17:31:35:947,1.658,2.24,8.0141,57.7532,0.3818,-0.3453,0.3358,0.2047
17:31:35:958,1.514,2.448,8.103,57.9277,0.41,-0.4148,0.2857,0.2073
17:31:35:969,1.572,2.6351,8.2819,57.8872,0.4185,-0.4478,0.2503,0.21
17:31:35:977,1.577,2.748,8.486,57.9699,0.4038,-0.4491,0.2148,0.2127
17:31:35:987,1.661,2.882,8.601,58.0281,0.3636,-0.4283,0.1818,0.2152
17:31:35:997,1.766,3.018,8.5691,58.2922,0.2855,-0.3893,0.1402,0.2173
17:31:36:008,1.9601,2.973,8.483,58.18,0.151,-0.3673,0.0767,0.2188
17:31:36:020,1.9481,3.102,8.61,58.2056,-0.0494,-0.3636,-0.0026,0.2195
17:31:36:029,1.823,3.119,8.85,58.5374,-0.2839,-0.3025,-0.0638,0.2191
17:31:36:037,1.577,3.0161,9.668,58.6595,-0.7408,0.0286,-0.1176,0.2174
17:31:36:047,1.433,2.918,10.226,58.7017,-0.9314,0.1972,-0.1321,0.2101
17:31:36:057,1.251,2.9081,10.9091,58.6017,-1.078,0.2827,-0.1419,0.2045
17:31:36:070,1.2941,2.937,11.637,58.5782,-1.1452,0.3059,-0.1334,0.1995
17:31:36:077,1.7351,2.688,12.1271,58.5021,-1.1245,0.2497,-0.1199,0.1936
17:31:36:089,2.417,2.5871,12.539,58.5221,-1.0487,0.0652,-0.1297,0.1895
17:31:36:097,3.365,2.379,12.786,58.6453,-0.9327,-0.2182,-0.1761,0.1855
17:31:36:107,4.182,2.307,12.8381,58.791,-0.7934,-0.5053,-0.258,0.1834
17:31:36:117,5.283,1.797,12.707,58.7104,-0.6639,-0.7228,-0.3679,0.1821
17:31:36:128,5.834,1.613,12.7331,58.8167,-0.532,-0.7717,-0.539,0.1815
17:31:36:138,5.757,1.452,12.738,59.0046,-0.3877,-0.7264,-0.7113,0.1814
17:31:36:147,5.3051,1.3331,12.5321,59.1498,-0.2155,-0.6263,-0.8114,0.1819
17:31:36:157,4.8311,1.3061,12.036,59.4011,-0.0066,-0.4906,-0.8273,0.183
17:31:36:168,4.62,1.244,11.3711,59.4321,0.2157,-0.3502,-0.7956,0.1848
17:31:36:177,4.668,1.1651,10.664,59.5961,0.4295,-0.2524,-0.7333,0.1872
17:31:36:187,4.943,1.103,9.975,59.7032,0.6214,-0.1657,-0.6795,0.1903
17:31:36:197,5.163,1.0691,9.1781,60.033,0.7814,-0.0399,-0.6856,0.1939
17:31:36:211,4.857,1.151,8.1911,60.107,0.8975,0.1251,-0.7381,0.1977
17:31:36:216,4.2821,1.206,7.14,60.2552,0.9377,0.2644,-0.8016,0.2014
17:31:36:227,3.447,1.316,6.17,60.2211,0.8889,0.3315,-0.8579,0.2017
17:31:36:237,2.621,1.4621,5.625,60.2428,0.7619,0.3132,-0.8847,0.2076
17:31:36:247,1.8881,1.503,5.4041,60.3983,0.5908,0.2302,-0.8921,0.2099
17:31:36:258,1.194,1.5821,5.495,60.4519,0.4223,0.1446,-0.8786,0.2116
17:31:36:267,0.641,1.586,5.6441,60.4053,0.2817,0.0579,-0.8396,0.2129
17:31:36:277,0.2981,1.574,5.814,60.3578,0.1607,-0.0411,-0.7846,0.2137
17:31:36:288,0.066,1.5671,6.063,60.5157,0.0544,-0.1156,-0.7223,0.2143
17:31:36:296,-0.072,1.6151,6.2831,60.3629,-0.0444,-0.1425,-0.6538,0.2145
17:31:36:308,-0.12,1.5821,6.506,60.4988,-0.1386,-0.1314,-0.5818,0.2142
17:31:36:318,-0.251,1.629,6.843,60.5507,-0.2326,-0.0984,-0.5109,0.2134
17:31:36:326,-0.357,1.646,7.073,60.4382,-0.3108,-0.0447,-0.4302,0.2122
17:31:36:338,-0.4451,1.67,7.3031,60.4381,-0.3755,0.0371,-0.3374,0.2106
17:31:36:347,-0.558,1.787,7.595,60.5779,-0.4293,0.1166,-0.2324,0.2085
17:31:36:358,-0.5531,1.91,7.949,60.5868,-0.4623,0.1739,-0.1187,0.2062
17:31:36:367,-0.2711,2.0531,8.3441,60.7264,-0.4708,0.202,-0.0088,0.2038
17:31:36:378,0.174,2.175,8.67,60.7908,-0.4525,0.2118,0.0756,0.2014
17:31:36:388,0.5951,2.3411,8.991,60.8702,-0.4135,0.1984,0.1159,0.1992
17:31:36:397,0.863,2.5661,9.1871,60.8833,-0.3572,0.1702,0.1207,0.1972
17:31:36:408,1.062,2.7311,9.357,61.0943,-0.2974,0.1312,0.1062,0.1956
17:31:36:421,1.11,2.879,9.494,61.2402,-0.246,0.0811,0.0804,0.1944
17:31:36:427,1.124,3.0401,9.7241,61.2956,-0.2032,0.0139,0.0524,0.1934
17:31:36:439,1.107,3.15,9.939,61.3383,-0.1569,-0.0654,0.034,0.1928
17:31:36:449,1.2341,3.219,10.1141,61.3193,-0.1056,-0.1352,0.0316,0.1925
17:31:36:457,1.464,3.315,10.404,61.4901,-0.0554,-0.195,0.0352,0.1926
17:31:36:469,2.0681,3.593,11.072,61.4901,0.1144,-0.2036,0.0634,0.1938
17:31:36:478,2.393,3.902,11.246,61.581,0.239,-0.1389,0.0792,0.1952
17:31:36:488,2.6111,4.2371,11.2271,61.6519,0.3575,-0.0704,0.0817,0.1968
17:31:36:499,2.652,4.6061,11.007,61.8523,0.4528,0.0151,0.0707,0.1987
17:31:36:508,2.534,5.027,10.7081,61.7376,0.5004,0.1189,0.0584,0.2007
17:31:36:519,2.661,5.226,10.3721,61.7196,0.4845,0.2082,0.0499,0.2026
17:31:36:527,2.903,5.171,10.145,61.735,0.3978,0.2472,0.0206,0.2038
17:31:36:537,3.006,5.0081,10.358,62.0174,0.2597,0.2497,-0.0271,0.2046
17:31:36:547,2.8841,4.91,11.124,62.3142,0.1314,0.2545,-0.0734,0.2048
17:31:36:558,2.649,4.871,12.017,62.6607,0.0912,0.3059,-0.0918,0.2046
17:31:36:569,2.388,4.89,12.5081,62.5464,0.1657,0.4097,-0.0771,0.2046
17:31:36:576,2.3501,4.766,12.4031,62.5258,0.2952,0.505,-0.0539,0.205
17:31:36:587,2.1611,4.586,11.984,62.8489,0.3953,0.5246,-0.0626,0.2057
17:31:36:596,1.902,4.086,11.3801,63.1033,0.432,0.4806,-0.0844,0.2067
17:31:36:608,1.661,3.387,11.2061,63.4709,0.4113,0.4586,-0.1077,0.2077
17:31:36:619,1.277,2.685,11.1911,63.2279,0.3941,0.4488,-0.1321,0.2086
17:31:36:627,0.7961,2.1011,11.189,63.2278,0.4148,0.4537,-0.1456,0.2096
17:31:36:638,0.1811,1.701,11.0981,63.1543,0.4784,0.4476,-0.1419,0.2109
17:31:36:647,-0.419,1.4,10.844,63.2165,0.5725,0.3988,-0.1101,0.2126
17:31:36:658,-0.975,1.352,10.401,63.2625,0.6702,0.307,-0.0539,0.2149
17:31:36:670,-1.31,1.428,9.74,63.1914,0.7472,0.1972,0.0267,0.2178
17:31:36:678,-1.382,1.452,8.933,63.1273,0.7619,0.0969,0.1182,0.221
17:31:36:687,-1.377,1.493,8.34,62.8111,0.6898,0.0309,0.2014,0.224
17:31:36:696,-1.305,1.55,8.127,63.0537,0.5554,-0.0142,0.2845,0.2265
17:31:36:708,-1.2071,1.5431,8.1551,63.1512,0.4137,-0.0166,0.3773,0.2284
17:31:36:717,-0.9671,1.5431,8.28,62.7775,0.294,0.0224,0.4823,0.2298
17:31:36:729,-0.57,1.572,8.397,62.9236,0.1987,0.0664,0.5741,0.2306
17:31:36:738,-0.144,1.5701,8.411,62.8697,0.1217,0.1044,0.6314,0.2311
17:31:36:750,0.2861,1.491,8.3801,62.9169,0.0532,0.1262,0.6546,0.2312
17:31:36:757,0.521,1.4861,8.3591,62.7452,-0.0103,0.1372,0.6461,0.231
17:31:36:768,0.7271,1.4261,8.361,62.6892,-0.0689,0.1104,0.6229,0.2306
17:31:36:777,0.957,1.3331,8.4191,62.3448,-0.1214,0.0774,0.5911,0.23
17:31:36:811,1.11,1.2491,8.498,62.2557,-0.1557,0.0737,0.5556,0.2292
17:31:36:811,1.251,1.119,8.658,62.5476,-0.1666,0.0982,0.5239,0.2284
17:31:36:812,1.392,1.017,8.936,62.509,-0.1446,0.1459,0.4983,0.2275
17:31:36:819,1.4741,0.9971,9.144,62.539,-0.0799,0.2227,0.4751,0.2268
17:31:36:827,1.4351,1.107,9.2231,62.4883,0.0422,0.3267,0.4568,0.2263
17:31:36:837,1.409,1.3661,9.036,62.6026,0.2072,0.4463,0.447,0.2263
17:31:36:848,1.3181,1.7081,8.498,62.8656,0.388,0.5783,0.4348,0.2268
17:31:36:858,1.163,2.0921,7.784,63.1577,0.5408,0.6931,0.4078,0.2277
17:31:36:869,0.899,2.4341,7.032,63.0417,0.6373,0.7579,0.3688,0.229
17:31:36:878,0.7031,2.762,6.4601,63.0581,0.6739,0.7701,0.3322,0.2303
17:31:36:889,0.521,3.171,5.9021,62.954,0.6079,0.6309,0.2417,0.2317
17:31:36:899,0.4901,3.351,5.8781,63.0656,0.5323,0.5123,0.1965,0.233
17:31:36:909,0.483,3.4901,6.008,63.3315,0.4381,0.4,0.1464,0.2344
17:31:36:920,0.396,3.624,6.3071,63.541,0.3404,0.3095,0.0976,0.2354
17:31:36:930,0.416,3.6671,6.611,63.4686,0.2524,0.2387,0.0646,0.2363
17:31:36:938,0.528,3.7241,6.939,63.4537,0.184,0.2105,0.0414,0.2372
17:31:36:947,0.638,3.837,7.193,63.6199,0.1412,0.2192,0.0219,0.2374
17:31:36:957,0.851,3.8321,7.3271,63.6609,0.1144,0.241,0.0036,0.2374
17:31:36:970,0.875,3.9641,7.494,63.6016,0.0851,0.2277,-0.0319,0.2373
17:31:36:976,0.8351,4.091,7.583,63.8438,0.0631,0.1885,-0.071,0.2372
17:31:36:988,0.732,4.2559,7.605,63.7088,0.0544,0.1482,-0.104,0.237
17:31:36:997,0.4991,4.56,7.4921,63.6562,0.0399,0.0957,-0.1259,0.237
17:31:37:007,0.315,4.931,7.353,63.7587,-0.0041,0.0261,-0.1297,0.2369
17:31:37:017,0.188,5.321,7.334,63.926,-0.0921,-0.0399,-0.1211,0.2365
17:31:37:027,0.119,5.597,7.571,63.8743,-0.2204,-0.0974,-0.115,0.2358
17:31:37:037,0.138,5.717,8.009,63.9454,-0.3645,-0.1754,-0.1162,0.2346
17:31:37:048,0.2171,5.726,8.67,64.2205,-0.5013,-0.2817,-0.1236,0.2331
17:31:37:058,0.42,5.628,9.381,64.1303,-0.6064,-0.399,-0.1236,0.2313
17:31:37:067,0.8321,5.451,10.0871,64.1536,-0.6786,-0.52,-0.1162,0.2295
17:31:37:077,1.3091,5.2931,10.842,64.0396,-0.7139,-0.6336,-0.1211,0.2277
17:31:37:087,1.668,5.12,11.325,64.0997,-0.7041,-0.6874,-0.1554,0.2261
17:31:37:098,1.7321,4.9069,11.498,64.1325,-0.6663,-0.6849,-0.209,0.2245
17:31:37:107,1.5821,4.74,11.505,64.3151,-0.6309,-0.6935,-0.2567,0.2232
17:31:37:120,1.4021,4.5191,11.4911,64.4183,-0.6089,-0.7448,-0.2885,0.222
17:31:37:127,1.2941,4.184,11.6081,64.3209,-0.6053,-0.8071,-0.3105,0.221
17:31:37:137,1.244,3.8111,11.9861,64.598,-0.5979,-0.8536,-0.3239,0.2201
17:31:37:147,1.335,3.384,12.273,64.72,-0.5648,-0.8511,-0.3178,0.2193
17:31:37:158,1.5581,2.9201,12.357,64.9626,-0.5197,-0.7876,-0.3044,0.2186
17:31:37:168,1.9241,2.4821,12.405,65.0495,-0.4903,-0.6911,-0.2885,0.2178
17:31:37:177,2.25,2.0201,12.5891,65.0879,-0.4708,-0.5567,-0.2799,0.2169
17:31:37:187,2.408,1.4951,12.831,65.2002,-0.4245,-0.3783,-0.2775,0.2158
17:31:37:197,2.379,1.143,13.064,65.0053,-0.323,-0.1816,-0.264,0.2148
17:31:37:207,2.441,0.8231,13.133,65.0717,-0.1715,-0.0154,-0.2359,0.214
17:31:37:217,2.396,0.617,13.052,64.8679,0.0216,0.1104,-0.1992,0.2138
17:31:37:228,2.309,0.581,12.659,64.9023,0.2365,0.1715,-0.1565,0.2144
17:31:37:236,2.309,0.624,11.96,64.9418,0.4345,0.1654,-0.1064,0.2159
17:31:37:247,2.429,0.6431,11.136,64.9817,0.5811,0.1226,-0.0588,0.2181
17:31:37:258,2.558,0.722,10.485,64.9959,0.6726,0.0847,-0.0307,0.2208
17:31:37:269,2.621,0.837,9.8381,65.0399,0.7362,0.0505,-0.0161,0.2239
17:31:37:278,2.7071,0.909,9.233,65.3576,0.7789,0.0102,-0.0136,0.2272
17:31:37:287,2.858,0.9881,8.637,65.531,0.7986,-0.0472,-0.0282,0.2307
17:31:37:297,2.985,1.0481,8.067,65.7496,0.7924,-0.1181,-0.0686,0.2344
17:31:37:307,2.9441,1.143,7.545,65.725,0.7692,-0.1829,-0.1297,0.2381
17:31:37:317,2.829,1.2011,7.013,65.7929,0.7448,-0.2219,-0.1944,0.2417
17:31:37:328,2.489,1.3091,6.005,65.8972,0.6837,-0.2439,-0.3142,0.2486
17:31:37:337,2.3,1.38,5.526,66.1975,0.6483,-0.2269,-0.3655,0.2521
17:31:37:351,2.0531,1.503,5.081,66.2383,0.6068,-0.1865,-0.4082,0.2548
17:31:37:357,1.7711,1.682,4.652,66.2743,0.5444,-0.1425,-0.4448,0.2574
17:31:37:368,1.44,1.943,4.341,66.3121,0.4588,-0.0949,-0.4718,0.2596
17:31:37:377,1.299,2.163,4.0631,66.3481,0.3685,-0.0338,-0.4815,0.2612
17:31:37:387,1.263,2.4,3.8141,66.4817,0.2573,0.0249,-0.49,0.2623
17:31:37:397,1.2011,2.714,3.635,66.6098,0.1192,0.0896,-0.5145,0.2627
17:31:37:407,1.1411,3.08,3.398,66.5821,-0.0384,0.1727,-0.5475,0.2622
17:31:37:419,1.0001,3.3941,3.2831,66.2419,-0.235,0.2472,-0.5926,0.2606
17:31:37:427,0.612,3.765,3.3311,66.1524,-0.4696,0.2887,-0.6403,0.2582
17:31:37:436,0.1091,4.086,3.5561,66.0508,-0.7201,0.3327,-0.6586,0.2545
17:31:37:447,-0.2201,4.3061,3.965,66.2605,-0.9692,0.356,-0.6379,0.2496
17:31:37:464,-0.3311,4.467,4.5851,66.3091,-1.199,0.3388,-0.589,0.2438
17:31:37:466,-0.144,4.431,5.364,66.2285,-1.3969,0.2692,-0.5303,0.2366
17:31:37:482,0.269,4.337,6.3551,66.0165,-1.5484,0.1617,-0.4815,0.2294
17:31:37:486,0.6191,4.301,7.358,65.8517,-1.6364,0.0419,-0.446,0.2227
17:31:37:498,1.0121,4.316,8.438,66.0992,-1.6572,-0.0668,-0.413,0.2155
17:31:37:506,1.23,4.3781,9.5441,66.1281,-1.607,-0.1414,-0.3838,0.2085
17:31:37:523,1.299,4.572,10.557,66.5409,-1.4873,-0.1914,-0.3435,0.2021
17:31:37:526,1.22,4.938,11.4521,66.267,-1.3089,-0.2244,-0.2775,0.1966
17:31:37:539,1.3181,5.207,12.039,66.5725,-1.084,-0.2219,-0.1944,0.192
17:31:37:553,1.56,5.439,12.273,66.6112,-0.8532,-0.228,-0.1235,0.1884
17:31:37:556,1.9811,5.319,12.192,66.7485,-0.6797,-0.3099,-0.0979,0.1858
17:31:37:566,2.166,5.07,12.3071,67.0062,-0.6223,-0.4443,-0.1394,0.1837
17:31:37:576,1.914,4.8521,12.7931,66.8916,-0.6431,-0.531,-0.2164,0.1817
17:31:37:588,1.562,4.572,13.535,67.128,-0.6809,-0.5628,-0.264,0.1797
17:31:37:602,1.3901,4.062,14.421,66.9604,-0.6981,-0.5763,-0.264,0.1775
17:31:37:607,1.383,3.444,15.434,67.2672,-0.6761,-0.5908,-0.2372,0.1754
17:31:37:619,1.215,2.999,16.4591,66.9817,-0.5991,-0.5701,-0.2042,0.1737
17:31:37:629,0.564,2.6711,17.61,67.2077,-0.4403,-0.4516,-0.1455,0.1724
17:31:37:638,-0.912,3.2171,18.491,67.3518,-0.1226,-0.1657,-0.0294,0.172
17:31:37:646,-1.226,3.0011,17.373,67.4431,0.3465,0.1532,0.1282,0.1732
17:31:37:657,-0.345,1.821,14.969,67.7152,0.6801,0.0139,0.1757,0.176
17:31:37:666,2.91,-0.522,13.3151,67.706,0.6703,-0.8572,0.0744,0.1803
17:31:37:676,3.2,-0.788,13.6931,67.88,0.575,-1.418,-0.1174,0.1852
17:31:37:688,1.067,-0.704,12.338,68.017,0.8169,-0.5701,-0.2262,0.1899
17:31:37:702,-1.6331,-0.6611,9.314,68.0324,1.0722,0.5966,-0.1321,0.1938
17:31:37:708,-3.8051,-0.0791,7.3271,68.2085,0.9782,1.1573,0.1404,0.1964
17:31:37:719,-5.093,0.2861,6.582,68.3987,0.7216,1.3333,0.4678,0.1975
17:31:37:727,-5.433,1.1981,6.776,68.6451,0.509,1.3064,0.8099,0.1977
17:31:37:737,-3.252,1.922,7.506,68.8754,0.3123,0.4854,1.3131,0.1977
17:31:37:750,-1.7,2.171,7.6571,69.3068,0.2915,-0.0912,1.4121,0.1983
17:31:37:758,-0.204,2.436,7.818,69.4887,0.2769,-0.5713,1.4231,0.1996
17:31:37:775,1.052,2.594,8.0711,69.6092,0.2452,-0.9269,1.3694,0.202
17:31:37:777,2.2061,2.673,8.411,69.7951,0.2072,-1.1565,1.2875,0.2045
17:31:37:788,3.339,2.568,8.6291,69.9376,0.1657,-1.214,1.1935,0.2078
17:31:37:797,4.2491,2.3981,8.8811,70.295,0.1132,-1.1003,1.075,0.213
17:31:37:807,4.778,2.192,9.2951,70.1915,0.0459,-0.8877,0.9234,0.2148
17:31:37:818,4.7681,1.941,9.8171,70.1476,-0.0016,-0.6251,0.7512,0.2161
17:31:37:827,4.2941,1.6511,10.2791,70.0195,-0.0004,-0.3453,0.5948,0.2166
17:31:37:836,3.5261,1.397,10.547,70.1135,0.0606,-0.0826,0.4825,0.217
17:31:37:848,2.69,1.179,10.502,70.0927,0.1754,0.1409,0.4201,0.2174
17:31:37:857,1.967,0.9641,10.269,70.271,0.3208,0.3156,0.3993,0.2181
17:31:37:867,1.2971,0.9401,9.956,70.5359,0.487,0.4378,0.4067,0.2192
17:31:37:883,0.849,1.038,9.486,70.5102,0.6666,0.5086,0.4421,0.221
17:31:37:889,0.6671,1.1891,8.924,70.7633,0.8449,0.5416,0.491,0.2234
17:31:37:896,0.6431,1.407,8.3231,70.774,0.9965,0.5331,0.524,0.2265
17:31:37:906,0.72,1.6391,7.6481,70.9841,1.1113,0.4988,0.5325,0.2302
17:31:37:919,0.839,1.871,7.001,71.2659,1.1748,0.4316,0.513,0.2343
17:31:37:926,0.9611,2.07,6.587,71.3739,1.176,0.2887,0.4555,0.2387
17:31:37:936,1.0601,2.288,6.4391,71.5577,1.1297,0.0749,0.3615,0.2433
17:31:37:951,1.124,2.422,6.381,71.592,1.06,-0.1682,0.2442,0.2481
17:31:37:956,1.098,2.525,6.383,71.6764,0.9807,-0.393,0.1159,0.2531
17:31:37:968,1.0001,2.556,6.422,71.9025,0.8914,-0.564,0.0011,0.258
17:31:37:976,0.906,2.523,6.429,72.4191,0.7888,-0.6605,-0.0857,0.2627
17:31:37:986,0.815,2.4671,6.501,72.6349,0.6654,-0.6948,-0.137,0.267
17:31:37:996,0.696,2.4551,6.635,72.8752,0.5225,-0.6605,-0.1529,0.2707
17:31:38:006,0.7031,2.4701,6.786,73.0375,0.3735,-0.558,-0.1332,0.2735
17:31:38:016,0.894,2.4911,6.9101,73.1139,0.217,-0.421,-0.0954,0.2753
17:31:38:026,1.028,2.573,7.164,73.3296,0.0472,-0.2855,-0.0637,0.2762
17:31:38:037,1.158,2.6111,7.614,73.4835,-0.1299,-0.1719,-0.0477,0.2761
17:31:38:046,1.1981,2.7161,8.225,73.6655,-0.2912,-0.0716,-0.0429,0.2751
17:31:38:056,1.218,2.685,8.9261,73.6811,-0.4133,0.0102,-0.0502,0.2734
17:31:38:066,1.088,2.697,9.7241,73.8602,-0.4903,0.0297,-0.06,0.2713
17:31:38:076,0.947,2.7521,10.497,73.9876,-0.5063,-0.0033,-0.06,0.2692
17:31:38:086,0.875,2.831,11.1791,74.1647,-0.4647,-0.0766,-0.0539,0.2674
17:31:38:099,0.806,3.083,11.6171,74.4918,-0.3645,-0.1621,-0.0429,0.2661
17:31:38:106,0.351,3.794,11.555,74.5091,-0.2192,-0.1926,-0.0159,0.2655
17:31:38:117,-0.5681,4.9361,11.0021,74.6419,-0.0749,-0.1034,0.0719,0.2653
17:31:38:126,-0.74,5.693,9.944,74.8922,0.0191,0.0627,0.2344,0.2652
17:31:38:137,0.483,6.08,8.859,74.9444,-0.0078,0.0566,0.375,0.2651
17:31:38:147,4.926,4.0121,7.028,74.9133,-0.2387,-0.4945,0.414,0.265
17:31:38:157,8.238,3.186,7.758,74.9293,-0.7334,-1.3215,0.2772,0.2646
17:31:38:171,7.4381,4.2221,10.056,75.3759,-1.045,-0.3136,-0.1235,0.2627
17:31:38:176,7.325,3.516,9.419,75.5308,-0.9729,0.6332,-0.0905,0.2538
17:31:38:187,7.017,3.758,9.9611,75.9693,-1.0658,1.0035,-0.0917,0.2474
17:31:38:197,6.5831,3.72,11.213,76.2431,-1.1573,0.9228,-0.159,0.2406
17:31:38:207,6.48,3.2891,12.374,76.49,-1.0902,0.7164,-0.2285,0.2345
17:31:38:217,6.368,2.7,13.121,76.8084,-0.8667,0.4964,-0.3275,0.2297
17:31:38:227,5.8241,2.331,13.4441,77.1742,-0.5393,0.2533,-0.4803,0.2267
17:31:38:236,4.8641,2.156,13.382,77.4793,-0.1532,-0.0326,-0.6281,0.226
17:31:38:246,4.0961,2.0051,12.855,77.8353,0.2402,-0.3649,-0.7014,0.2277
17:31:38:257,3.813,1.8071,11.8931,77.9213,0.5774,-0.6753,-0.7014,0.2314
17:31:38:267,3.851,1.749,10.6811,77.8498,0.8169,-0.8194,-0.6733,0.2365
17:31:38:276,3.9881,1.79,9.336,77.971,0.9452,-0.7558,-0.6464,0.2421
17:31:38:287,3.978,1.8431,8.055,77.8667,0.9574,-0.547,-0.6379,0.2475
17:31:38:296,3.705,1.895,6.989,78,0.8634,-0.2879,-0.6476,0.2519
17:31:38:306,3.3011,1.941,6.3311,78.1443,0.6923,-0.0839,-0.6744,0.2553
17:31:38:316,2.7881,1.922,6.029,78.104,0.487,0.0224,-0.7149,0.2576
17:31:38:327,2.3411,1.7591,5.933,78.2072,0.2927,0.0615,-0.7576,0.259
17:31:38:337,1.895,1.5431,6.06,78.2666,0.1302,0.0602,-0.7917,0.2596
17:31:38:347,1.4261,1.383,6.3191,78.3902,0.0228,0.0419,-0.8064,0.2598
17:31:38:358,1.043,1.313,6.518,78.2482,-0.0176,0.0285,-0.7882,0.2598
17:31:38:367,0.8351,1.2941,6.551,78.2852,-0.0004,0.0236,-0.7344,0.2598
17:31:38:377,0.882,1.323,6.4271,78.2209,0.0496,0.0175,-0.6611,0.2601
17:31:38:387,0.995,1.469,6.194,78.4896,0.1071,-0.0045,-0.6011,0.2606
17:31:38:397,1.103,1.6961,5.888,78.5381,0.1462,-0.0388,-0.5609,0.2613
17:31:38:407,1.184,1.9001,5.6411,78.476,0.1596,-0.0741,-0.5413,0.2622
17:31:38:417,1.22,2.226,5.474,78.7422,0.1499,-0.1194,-0.5351,0.2631
17:31:38:428,1.2101,2.58,5.313,78.8879,0.1303,-0.1426,-0.5303,0.264
17:31:38:438,1.2251,2.973,5.208,78.9489,0.0949,-0.1451,-0.5231,0.2647
17:31:38:447,1.086,3.384,5.064,79.1102,0.0399,-0.1231,-0.5144,0.2652
17:31:38:456,0.978,3.732,4.98,79.1462,-0.0395,-0.0876,-0.4949,0.2652
17:31:38:466,0.873,4.11,4.988,78.9608,-0.1409,-0.0424,-0.4681,0.2648
17:31:38:477,0.765,4.515,5.045,78.9986,-0.2607,0.0065,-0.4351,0.2638
17:31:38:487,0.8441,4.8041,5.292,78.9679,-0.3963,0.0407,-0.3971,0.262
17:31:38:496,0.993,4.926,5.675,78.7777,-0.5416,0.0554,-0.3763,0.2597
17:31:38:507,1.074,4.998,6.1991,78.9733,-0.6736,0.0615,-0.374,0.2567
17:31:38:517,1.136,4.946,6.726,79.2033,-0.7836,0.0382,-0.3801,0.2533
17:31:38:527,1.1051,4.8551,7.265,79.5392,-0.8764,0.0029,-0.3861,0.2494
17:31:38:537,1.0001,4.7111,7.818,79.7178,-0.9545,-0.0168,-0.3813,0.2453
17:31:38:546,0.875,4.596,8.505,79.7431,-1.0157,-0.0081,-0.3495,0.2409
17:31:38:557,0.7991,4.436,9.348,79.9253,-1.045,0.0407,-0.3006,0.2362
17:31:38:567,0.72,4.242,10.056,80.1192,-1.0328,0.1275,-0.2383,0.2314
17:31:38:577,0.593,4.0841,10.755,80.1774,-0.9827,0.235,-0.1662,0.2267
17:31:38:589,0.564,3.8471,12.036,80.4941,-0.7909,0.3425,-0.0001,0.2221
17:31:38:600,0.803,3.6911,12.534,80.6578,-0.6541,0.3205,0.0744,0.2181
17:31:38:608,1.151,3.564,13.04,80.7086,-0.4976,0.257,0.1257,0.2118
17:31:38:617,1.412,3.5231,13.4561,80.8418,-0.3145,0.1958,0.1477,0.2098
17:31:38:627,1.433,3.641,13.586,81.0695,-0.1067,0.1775,0.1539,0.209
17:31:38:637,1.4351,3.72,13.1501,81.4275,0.0936,0.213,0.1649,0.209
17:31:38:650,1.151,4.0519,12.4991,81.6788,0.2244,0.2703,0.1831,0.2095
17:31:38:658,0.885,4.2461,11.783,82.1787,0.2487,0.3241,0.2076,0.2101
17:31:38:668,0.849,4.131,11.153,82.0377,0.1742,0.3449,0.243,0.2103
17:31:38:676,1.0931,3.969,11.019,82.1454,0.0154,0.3168,0.287,0.2099
17:31:38:687,1.206,3.8081,11.39,82.3742,-0.1715,0.3033,0.3114,0.2087
17:31:38:699,1.421,3.224,11.711,82.8221,-0.3205,0.3083,0.3273,0.2068
17:31:38:708,1.625,2.712,12.228,83.163,-0.4366,0.2582,0.3407,0.2044
17:31:38:717,1.74,2.235,12.767,83.1438,-0.5075,0.153,0.3383,0.2019
17:31:38:727,1.7441,1.6991,13.2671,83.1805,-0.505,0.0664,0.3395,0.1995
17:31:38:737,1.7081,1.28,13.6721,83.2537,-0.4158,0.0322,0.3567,0.1975
17:31:38:747,1.5341,0.978,13.911,83.6057,-0.2362,0.0688,0.3909,0.1962
17:31:38:756,0.935,1.067,13.985,83.7546,0.0216,0.1922,0.4445,0.1958
17:31:38:768,-0.3191,1.886,13.5161,84.0732,0.3539,0.3828,0.5313,0.1966
17:31:38:777,-0.773,2.132,11.787,84.049,0.6715,0.4916,0.6718,0.1986
17:31:38:787,0.624,1.538,9.7931,84.3014,0.7729,0.1873,0.7721,0.2015
17:31:38:798,3.5951,0.375,9.1061,84.6273,0.5873,-0.5738,0.7195,0.205
17:31:38:826,3.653,0.923,10.667,84.8199,0.3868,-0.9989,0.5277,0.2085
17:31:38:827,2.154,1.194,10.8461,84.7515,0.5921,-0.3784,0.4227,0.2118
17:31:38:828,0.53,1.2971,8.694,84.8503,1.0612,0.7077,0.5338,0.2151
17:31:38:837,-0.6611,1.6031,6.1901,84.8608,1.3325,1.4505,0.7463,0.2183
17:31:38:848,-1.1111,1.9571,4.7411,84.6253,1.258,1.547,0.9137,0.2186
17:31:38:857,-1.0151,2.0651,4.308,84.5521,1.0136,1.161,0.9882,0.2234
17:31:38:866,-0.4211,2.087,4.652,84.3841,0.7509,0.5721,0.9919,0.2256
17:31:38:877,0.504,2.214,5.402,84.3426,0.542,-0.0326,0.9296,0.2281
17:31:38:887,1.287,2.297,6.3,84.3542,0.4113,-0.5482,0.7989,0.2309
17:31:38:897,1.656,2.3381,7.025,84.5576,0.3648,-0.9074,0.6388,0.2342
17:31:38:907,1.677,2.3741,7.4921,84.6154,0.3857,-1.0784,0.5033,0.2379
17:31:38:919,1.536,2.417,7.94,84.685,0.4308,-1.115,0.419,0.2419
17:31:38:927,1.395,2.4671,8.2151,84.6182,0.487,-1.0504,0.3957,0.246
17:31:38:938,1.301,2.501,8.289,84.6277,0.5396,-0.8854,0.419,0.25
17:31:38:946,1.313,2.546,8.318,84.7956,0.5628,-0.6898,0.4507,0.2538
17:31:38:957,1.4261,2.5061,8.522,84.709,0.5555,-0.5482,0.463,0.2572
17:31:38:967,1.4501,2.484,8.8451,84.8231,0.5505,-0.487,0.447,0.2605
17:31:38:977,1.5581,2.4941,9.1541,84.7524,0.5725,-0.503,0.4117,0.2639
17:31:38:988,1.838,2.484,9.333,84.9347,0.6165,-0.5665,0.3567,0.2675
17:31:38:997,1.979,2.4791,9.393,84.8822,0.663,-0.6325,0.2772,0.2715
17:31:39:008,2.063,2.523,9.3641,85.1127,0.7021,-0.6887,0.1904,0.2758
17:31:39:018,2.0651,2.523,8.988,84.9525,0.7276,-0.6703,0.0549,0.2803
17:31:39:028,2.099,2.582,8.751,85.1683,0.6935,-0.6055,0.0133,0.2851
17:31:39:039,2.154,2.625,8.5121,85.39,0.6263,-0.4993,-0.0135,0.2888
17:31:39:051,2.388,2.661,8.3801,85.4607,0.5298,-0.3796,-0.0331,0.2956
17:31:39:058,2.57,2.702,8.352,85.4371,0.415,-0.2586,-0.066,0.2979
17:31:39:068,2.6831,2.7521,8.411,85.1484,0.3014,-0.1523,-0.1077,0.2997
17:31:39:077,2.819,2.781,8.51,85.2458,0.206,-0.0729,-0.1467,0.3007
17:31:39:088,3.011,2.834,8.586,85.1766,0.1364,-0.0093,-0.1833,0.3013
17:31:39:101,3.339,2.874,8.6051,85.681,0.0826,0.026,-0.2225,0.3017
17:31:39:107,3.485,2.676,8.565,85.7001,0.0131,0.0505,-0.2775,0.3017
17:31:39:117,3.7721,2.733,8.8691,85.68,-0.1006,0.1946,-0.3202,0.301
17:31:39:127,4.7831,2.757,9.324,85.7031,-0.1617,0.175,-0.3618,0.3001
17:31:39:137,5.0921,2.4101,9.3641,85.955,-0.136,-0.0424,-0.4729,0.2996
17:31:39:147,4.6631,2.432,9.266,86.0202,-0.1372,-0.0901,-0.5951,0.2993
17:31:39:157,4.5071,2.546,9.4391,85.9927,-0.1458,0.0297,-0.6561,0.2987
17:31:39:167,4.0811,2.7041,9.132,86.3135,-0.0982,0.0859,-0.6916,0.2982
17:31:39:177,3.4781,3.011,8.531,86.3112,-0.0725,0.1189,-0.6952,0.2978
17:31:39:187,3.0521,3.344,7.901,86.2973,-0.1226,0.1385,-0.683,0.2971
17:31:39:199,2.783,3.629,7.262,86.4112,-0.2387,0.1005,-0.6634,0.296
17:31:39:207,2.642,3.813,6.611,86.4578,-0.4293,0.0027,-0.6414,0.2943
17:31:39:217,2.858,3.7481,6.398,86.3247,-0.7224,-0.1133,-0.6134,0.2916
17:31:39:227,3.21,3.4541,6.6161,86.7769,-1.084,-0.2526,-0.5914,0.2876
17:31:39:238,3.449,3.116,7.3031,87.0556,-1.4409,-0.2844,-0.5548,0.2821
17:31:39:249,3.605,2.693,8.399,86.9383,-1.7292,-0.1279,-0.4911,0.2751
17:31:39:257,3.665,2.1971,9.6731,86.7131,-1.9063,0.1567,-0.4143,0.2667
17:31:39:267,3.528,1.7711,10.77,86.6128,-1.9441,0.5001,-0.3202,0.2575
17:31:39:276,3.183,1.4861,11.4761,86.5043,-1.8465,0.8335,-0.2127,0.248
17:31:39:287,2.81,1.268,11.67,86.6058,-1.657,1.0669,-0.0967,0.2388
17:31:39:301,2.556,1.163,11.502,86.6603,-1.4299,1.161,0.0133,0.2304
17:31:39:307,2.5151,1.0691,11.27,86.119,-1.1978,1.1011,0.0952,0.2231
17:31:39:318,2.534,1.1411,11.0981,86.1689,-0.9717,0.8947,0.1306,0.2171
17:31:39:327,2.604,1.3061,10.9571,86.3978,-0.7371,0.5879,0.1343,0.2126
17:31:39:336,2.901,1.512,10.7651,86.9521,-0.4916,0.2423,0.1209,0.2098
17:31:39:347,3.432,1.622,10.341,87.2849,-0.2472,-0.0864,0.0939,0.2087
17:31:39:357,3.923,1.7111,9.735,87.5061,-0.0384,-0.3295,0.0329,0.2089
17:31:39:367,4.1651,1.802,9.168,87.6717,0.1034,-0.4675,-0.0637,0.2102
17:31:39:377,4.1051,1.878,8.7131,87.4863,0.1902,-0.5164,-0.1712,0.2119
17:31:39:388,3.7151,2.08,8.261,87.9559,0.25,-0.4834,-0.2555,0.2139
17:31:39:397,3.332,2.3051,7.8611,87.8343,0.2904,-0.393,-0.2921,0.2159
17:31:39:407,3.0521,2.5781,7.569,87.5751,0.3245,-0.2684,-0.2958,0.2178
17:31:39:418,2.841,2.889,7.284,87.2111,0.3625,-0.1499,-0.2786,0.2198
17:31:39:429,2.7191,3.167,6.9251,86.964,0.3979,-0.0681,-0.2566,0.2217
17:31:39:437,2.7311,3.4991,6.728,86.906,0.4077,-0.0351,-0.237,0.2236
17:31:39:450,3.4061,4.017,7.023,86.7171,0.4052,-0.1829,-0.22,0.2255
17:31:39:457,4.0601,4.124,7.2431,86.8692,0.448,-0.2892,-0.2518,0.2276
17:31:39:468,4.452,4.208,7.332,86.6031,0.5285,-0.3502,-0.3311,0.233
17:31:39:478,4.658,4.22,7.011,86.4729,0.6263,-0.3612,-0.446,0.2368
17:31:39:489,4.424,4.266,6.369,86.5753,0.6948,-0.3552,-0.5864,0.2402
17:31:39:498,3.875,4.29,5.634,86.3605,0.6801,-0.3735,-0.7282,0.2439
17:31:39:509,3.1451,4.3211,5.129,86.3328,0.5591,-0.437,-0.837,0.2473
17:31:39:521,2.3839,4.29,4.9301,86.15,0.3552,-0.525,-0.8882,0.2501
17:31:39:526,1.862,4.2221,5.172,86.3208,0.1096,-0.5873,-0.8724,0.2516
17:31:39:537,1.763,4.0481,5.756,86.3,-0.1312,-0.5983,-0.799,0.2522
17:31:39:550,1.9601,3.8201,6.534,86.3883,-0.3266,-0.5519,-0.7062,0.2518
17:31:39:557,2.3021,3.533,7.3721,86.1509,-0.4658,-0.4529,-0.6231,0.2506
17:31:39:567,2.5541,3.2891,8.148,85.8857,-0.5466,-0.3454,-0.5621,0.2489
17:31:39:577,2.661,3.044,8.838,85.9306,-0.5686,-0.2366,-0.5169,0.2469
17:31:39:587,2.613,2.898,9.419,85.8917,-0.5368,-0.1414,-0.4753,0.2448
17:31:39:599,2.3411,2.937,9.843,85.7215,-0.461,-0.0595,-0.4301,0.2429
17:31:39:607,2.039,3.0401,10.1261,85.4704,-0.3572,0.0077,-0.3763,0.2413
17:31:39:617,1.895,3.183,10.188,85.4081,-0.246,0.0382,-0.314,0.2401
17:31:39:627,1.914,3.282,10.0901,85.2257,-0.1532,0.0333,-0.2591,0.2394
17:31:39:637,1.9121,3.4421,10.1351,85.3964,-0.0957,-0.0095,-0.2322,0.239
17:31:39:649,1.835,3.59,10.1951,85.2257,-0.0579,-0.073,-0.2237,0.2389
17:31:39:656,1.7321,3.765,10.298,84.9652,-0.0322,-0.1218,-0.2163,0.2389
17:31:39:666,1.62,3.9521,10.4921,84.9516,-0.0175,-0.1414,-0.2028,0.2391
17:31:39:676,1.665,4.1651,10.605,85.1512,-0.0065,-0.1376,-0.187,0.2393
17:31:39:686,1.689,4.412,10.5521,85.2302,-0.0297,-0.1561,-0.1613,0.2394
17:31:39:696,1.646,4.685,10.5401,85.4177,-0.1226,-0.1866,-0.1295,0.2392
17:31:39:706,1.457,5.0531,10.734,85.0212,-0.2692,-0.1671,-0.0978,0.2383
17:31:39:717,1.488,5.118,11.1,85.1618,-0.4329,-0.0754,-0.066,0.2366
17:31:39:726,1.847,4.661,11.5961,85.4187,-0.5734,0.0114,-0.06,0.2341
17:31:39:736,1.91,4.436,12.192,85.4804,-0.6247,0.0345,-0.0722,0.2313
17:31:39:747,2.159,4.34,12.4031,85.2688,-0.5514,0.0089,-0.0672,0.2287
17:31:39:757,2.865,3.863,12.08,84.927,-0.439,-0.0828,-0.0722,0.2268
17:31:39:766,3.425,3.4901,11.57,84.7411,-0.351,-0.2122,-0.132,0.2255
17:31:39:776,3.741,3.128,10.7,84.4478,-0.279,-0.2721,-0.2248,0.2247
17:31:39:787,3.887,2.6831,9.9821,84.579,-0.2595,-0.1939,-0.33,0.2238
17:31:39:797,3.8081,2.226,9.941,84.2117,-0.2985,-0.0131,-0.4496,0.2227
17:31:39:807,3.126,1.847,10.1621,83.9231,-0.3108,0.2813,-0.5572,0.221
17:31:39:816,1.991,1.56,10.0991,83.7497,-0.2447,0.6502,-0.5951,0.2192
17:31:39:826,0.7511,1.421,9.683,83.5998,-0.1337,0.979,-0.5511,0.2174
17:31:39:836,-0.201,1.364,9.123,83.6183,-0.0309,1.1463,-0.4363,0.2157
17:31:39:849,-0.8,1.409,8.639,83.1209,0.0351,1.1439,-0.2823,0.2144
17:31:39:857,-0.987,1.383,8.342,83.0947,0.0668,0.9985,-0.11,0.2133
17:31:39:868,-0.7541,1.4141,8.325,82.9738,0.0826,0.7492,0.0623,0.2126
17:31:39:879,0.4181,1.4591,8.553,82.7773,0.1266,0.1958,0.2736,0.2123
17:31:39:888,1.095,1.464,8.5361,82.5482,0.1449,-0.0412,0.298,0.2126
17:31:39:900,1.572,1.421,8.4431,82.4953,0.1401,-0.2354,0.2761,0.2132
17:31:39:907,1.8041,1.376,8.471,82.4194,0.0949,-0.4394,0.2247,0.2151
17:31:39:918,2.0561,1.2821,8.7131,82.2678,0.0203,-0.6545,0.1759,0.2161
17:31:39:929,2.355,1.184,8.907,82.4002,-0.0395,-0.8378,0.1282,0.2171
17:31:39:940,2.654,1.119,9.194,82.1573,-0.0701,-0.9416,0.072,0.2181
17:31:39:949,2.8151,1.122,9.398,82.1063,-0.0566,-0.9709,0.0329,0.2192
17:31:39:956,2.91,1.191,9.281,81.9975,0.0154,-0.9049,0.0098,0.2205
17:31:39:967,2.841,1.2701,8.783,81.979,0.1132,-0.7668,-0.0257,0.222
17:31:39:977,2.645,1.565,8.206,81.8117,0.1902,-0.6263,-0.0807,0.2237
17:31:39:987,2.532,1.7471,7.722,81.5929,0.228,-0.5323,-0.1577,0.2255
17:31:39:997,2.3261,1.7351,7.332,81.3451,0.2122,-0.4847,-0.2493,0.2272
17:31:40:007,2.309,2.113,7.49,81.0734,0.1414,-0.3307,-0.3348,0.2285
17:31:40:018,2.321,2.2421,7.8221,80.8416,0.1291,-0.1486,-0.4289,0.2294
17:31:40:026,2.051,2.367,7.8131,80.8924,0.1939,-0.0876,-0.5131,0.2305
17:31:40:037,1.605,2.5151,7.478,80.6935,0.2684,-0.2428,-0.5218,0.2321
17:31:40:049,1.139,2.702,7.1621,80.4256,0.2782,-0.4199,-0.4411,0.2341
17:31:40:057,0.8681,2.877,7.109,80.2997,0.2329,-0.4895,-0.3103,0.2359
17:31:40:068,0.8321,3.047,7.1741,80.1427,0.1779,-0.415,-0.1675,0.2373
17:31:40:079,0.89,3.186,7.217,79.9758,0.1206,-0.2611,-0.0307,0.2382
17:31:40:088,0.9371,3.351,7.341,79.9422,0.0484,-0.0791,0.0903,0.2386
17:31:40:099,1.076,3.452,7.53,79.8415,-0.0199,0.0895,0.1771,0.2384
17:31:40:106,1.088,3.6,7.746,79.4631,-0.0676,0.2105,0.2247,0.2378
17:31:40:121,1.088,3.7991,7.9181,79.4973,-0.0799,0.3021,0.2321,0.237
17:31:40:129,0.978,3.9971,8.064,79.5308,-0.0712,0.3974,0.2186,0.2361
17:31:40:138,0.789,4.337,8.309,79.2734,-0.0591,0.4609,0.2124,0.2351
17:31:40:147,0.722,4.637,8.5459,79.2647,-0.0492,0.5049,0.2259,0.2342
17:31:40:157,0.657,4.7801,8.735,79.2256,-0.0419,0.5624,0.2529,0.2332
17:31:40:168,0.432,4.926,8.7491,79.2108,-0.0065,0.5954,0.2809,0.2323
17:31:40:177,0.222,5.075,8.6561,79.1728,0.0301,0.6185,0.3249,0.2315
17:31:40:187,0.3101,5.082,8.6771,79.1894,0.0484,0.6076,0.3847,0.2308
17:31:40:199,0.669,4.9811,8.874,78.9959,0.0436,0.5391,0.4214,0.2301
17:31:40:207,1.1291,4.958,9.18,78.8339,0.0203,0.4487,0.408,0.2295
17:31:40:217,1.232,4.979,9.453,78.9662,0.0044,0.3938,0.3542,0.2289
17:31:40:229,0.873,4.938,9.513,78.7713,0.0228,0.4377,0.2894,0.2284
17:31:40:237,0.392,4.8551,9.465,78.6936,0.0534,0.5074,0.2589,0.2278
17:31:40:247,0.092,4.8311,9.434,78.4488,0.0679,0.5134,0.2797,0.2274
17:31:40:257,0.0401,4.74,9.362,78.4155,0.0631,0.4548,0.3286,0.2269
17:31:40:267,0.231,4.646,9.4069,78.09,0.0264,0.3974,0.3823,0.2264
17:31:40:278,0.564,4.4981,9.549,77.9101,-0.0261,0.3314,0.4312,0.2258
17:31:40:289,1.0001,4.215,9.86,77.7148,-0.0909,0.2361,0.4678,0.225
17:31:40:300,2.087,3.5381,10.605,77.4903,-0.191,-0.0228,0.5057,0.2241
17:31:40:308,2.7401,3.131,10.784,77.3132,-0.2007,-0.0741,0.551,0.2223
17:31:40:318,3.339,2.774,10.9061,77.0686,-0.1862,-0.0278,0.5998,0.2213
17:31:40:329,3.789,2.5661,11.033,76.7568,-0.169,0.0712,0.6242,0.2204
17:31:40:337,3.789,2.508,11.1431,76.3164,-0.1507,0.1738,0.6205,0.2193
17:31:40:349,3.53,2.427,11.0831,76.3915,-0.1226,0.2581,0.6242,0.2184
17:31:40:357,3.353,2.36,10.9421,76.2682,-0.0969,0.2973,0.6511,0.2173
17:31:40:368,3.435,2.2691,10.767,76.2477,-0.0982,0.241,0.6913,0.2164
17:31:40:376,4.0241,2.034,10.5971,76.048,-0.1397,0.0725,0.7013,0.2155
17:31:40:386,4.9931,1.6151,10.638,76.0778,-0.2399,-0.2244,0.6328,0.2147
17:31:40:399,5.865,1.187,11.0021,75.8774,-0.3865,-0.5922,0.4642,0.2139
17:31:40:407,6.248,0.753,11.316,75.9223,-0.516,-0.8511,0.2247,0.2129
17:31:40:417,6.0761,0.253,11.744,76.0606,-0.6186,-0.9257,0.006,0.2117
17:31:40:429,5.558,-0.017,12.4481,75.8975,-0.66,-0.8121,-0.1309,0.2101
17:31:40:438,4.728,-0.218,12.81,75.6313,-0.6025,-0.5935,-0.1664,0.2084
17:31:40:451,3.966,-0.405,12.7931,75.4469,-0.4792,-0.3259,-0.1053,0.2068
17:31:40:457,3.396,-0.345,12.479,75.3033,-0.2971,-0.0155,0.0047,0.2055
17:31:40:468,3.1331,-0.2111,11.7251,74.8697,-0.098,0.2373,0.1452,0.2046
17:31:40:477,3.14,0.073,10.8731,74.8098,0.078,0.4059,0.271,0.2042
17:31:40:487,3.4061,0.3941,10.0541,74.5387,0.2111,0.4817,0.3284,0.2042
17:31:40:497,3.7121,0.698,9.3521,73.9916,0.2918,0.4671,0.282,0.2046
17:31:40:506,3.837,1.04,8.79,73.7445,0.3248,0.3803,0.1305,0.2054
17:31:40:516,3.677,1.2701,8.316,73.5675,0.3186,0.2691,-0.0638,0.2064
17:31:40:526,3.303,1.38,7.808,73.3096,0.2844,0.1995,-0.2324,0.2074
17:31:40:539,2.726,1.412,7.413,73.1877,0.2245,0.2178,-0.3582,0.2081
17:31:40:548,2.003,1.4,7.116,73.3214,0.1475,0.3193,-0.44,0.2084
17:31:40:556,1.23,1.368,6.953,72.9745,0.0682,0.4487,-0.4755,0.2081
17:31:40:567,0.729,1.2821,6.762,72.9218,-0.0063,0.5624,-0.4595,0.2073
17:31:40:577,0.416,1.325,6.68,72.9942,-0.0808,0.6357,-0.4058,0.2061
17:31:40:588,0.236,1.337,6.6251,72.7611,-0.1493,0.7139,-0.335,0.2044
17:31:40:597,0.1211,1.373,6.551,72.5905,-0.2129,0.8092,-0.2556,0.2022
17:31:40:607,0.071,1.421,6.503,72.4432,-0.2849,0.9045,-0.1737,0.1995
17:31:40:617,0.236,1.38,6.656,71.9696,-0.3729,0.9765,-0.0918,0.1964
17:31:40:627,0.581,1.3661,7.1711,71.507,-0.4559,0.9973,-0.0441,0.1928
17:31:40:637,0.9851,1.371,7.83,71.4565,-0.4927,0.9923,-0.0528,0.189
17:31:40:648,1.0721,1.421,8.265,71.2379,-0.4449,1.0363,-0.1004,0.1853
17:31:40:657,0.971,1.431,8.435,71.0933,-0.3399,1.1096,-0.1591,0.1819
17:31:40:668,0.5741,1.682,8.4431,71.1911,-0.2153,1.1634,-0.2262,0.179
17:31:40:678,-0.096,1.979,8.234,70.9797,-0.1078,1.1708,-0.2446,0.1766
17:31:40:688,-0.0461,1.946,7.997,70.6981,-0.0748,1.0853,-0.2031,0.1745
17:31:40:699,0.155,2.0531,8.045,70.8102,-0.0956,0.9936,-0.1554,0.1725
17:31:40:708,0.3371,2.171,8.3351,70.601,-0.1396,0.9045,-0.1163,0.1704
17:31:40:718,0.614,2.0531,8.711,70.5067,-0.1896,0.8067,-0.0698,0.1682
17:31:40:731,0.914,1.929,9.6401,70.476,-0.1774,0.7285,-0.0136,0.166
17:31:40:739,0.909,1.859,10.049,70.408,-0.1236,0.6955,0.0217,0.1639
17:31:40:749,0.858,1.8041,10.425,70.0929,-0.0368,0.6699,0.0742,0.1623
17:31:40:760,0.7361,1.764,10.581,70.1798,0.1012,0.7029,0.133,0.1609
17:31:40:769,0.3821,1.926,10.502,70.2604,0.2795,0.7982,0.188,0.1603
17:31:40:778,0.119,2.1611,10.181,70.0056,0.4542,0.8922,0.2612,0.1603
17:31:40:787,0.0131,2.5271,9.9221,70.0676,0.5899,0.9301,0.3468,0.162
17:31:40:799,0.087,2.8961,9.7571,69.7974,0.6949,0.8935,0.4176,0.1639
17:31:40:808,0.174,3.236,9.585,69.5844,0.7915,0.8189,0.4493,0.166
17:31:40:836,0.255,3.5231,9.3311,69.368,0.8683,0.7089,0.4493,0.1688
17:31:40:837,0.3461,3.789,8.9381,69.2651,0.91,0.5867,0.4176,0.1719
17:31:40:837,0.6431,3.959,8.538,69.0386,0.899,0.4903,0.3761,0.1752
17:31:40:846,0.83,4.1201,8.364,68.7832,0.8293,0.4439,0.3125,0.1783
17:31:40:857,0.791,4.203,8.3561,68.5995,0.7267,0.4341,0.2405,0.181
17:31:40:870,0.732,4.196,8.474,68.3938,0.6155,0.4683,0.1805,0.183
17:31:40:876,0.6671,4.187,8.558,68.0877,0.5129,0.5074,0.133,0.1845
17:31:40:888,0.684,4.103,8.517,67.9318,0.4151,0.5281,0.095,0.1856
17:31:40:897,0.782,3.971,8.514,67.5231,0.3088,0.5171,0.0535,0.1861
17:31:40:907,0.794,3.803,8.7731,67.273,0.2086,0.4793,0.0034,0.1862
17:31:40:917,0.7511,3.645,9.084,67.0337,0.1451,0.3986,-0.0356,0.1862
17:31:40:927,0.6761,3.5861,9.261,66.8496,0.1232,0.3046,-0.065,0.1862
17:31:40:937,0.7481,3.372,9.321,66.4518,0.1243,0.2031,-0.0869,0.1863
17:31:40:947,0.4901,3.327,9.297,66.151,0.1622,0.1702,-0.1199,0.1867
17:31:40:957,0.0041,3.1931,8.9771,66.0454,0.1915,0.125,-0.1321,0.1872
17:31:40:967,-0.536,3.2531,8.84,65.7178,0.1842,0.076,-0.1176,0.1878
17:31:40:977,-1.02,3.341,8.739,65.7787,0.1745,0.026,-0.0736,0.1885
17:31:40:988,-1.449,3.5111,8.7371,65.6421,0.1768,-0.0363,0.0034,0.1893
17:31:40:997,-1.676,3.705,8.8331,65.7078,0.1977,-0.0864,0.1085,0.1904
17:31:41:007,-0.18,3.995,10.404,65.5356,0.2393,-0.062,0.2343,0.1917
17:31:41:017,1.871,4.5,12.293,65.4956,0.3773,0.2276,0.2612,0.1931
17:31:41:030,0.5141,5.123,11.27,65.37,0.4749,0.3864,0.254,0.1946
17:31:41:037,0.8561,5.5061,12.269,65.1818,0.5397,0.5966,0.293,0.1961
17:31:41:048,0.3251,6.107,11.7161,65.0064,0.745,0.6502,0.2771,0.1983
17:31:41:057,-0.2801,6.495,10.265,64.7034,0.9466,0.4439,0.1903,0.2017
17:31:41:068,-1.9871,6.186,8.933,64.3888,0.9758,0.1286,0.0742,0.2057
17:31:41:081,-2.957,5.4581,7.71,63.9566,0.8073,-0.0644,0.0437,0.2095
17:31:41:087,-2.8181,4.653,7.214,63.6938,0.4726,-0.1011,0.0512,0.2119
17:31:41:098,-2.648,3.753,7.712,63.7598,0.0828,-0.0326,0.0315,0.2125
17:31:41:108,-2.646,2.9681,8.7731,63.533,-0.2274,0.0578,0.0132,0.2116
17:31:41:118,-2.67,2.19,10.064,63.3634,-0.3875,0.114,0.0157,0.2098
17:31:41:130,-2.861,1.694,11.019,63.1425,-0.3777,0.1616,0.056,0.2078
17:31:41:138,-2.7731,1.4861,11.366,63.1045,-0.2311,0.191,0.1317,0.2065
17:31:41:148,-1.949,1.974,10.368,63.0269,0.1891,0.092,0.26,0.2061
17:31:41:157,-1.839,2.264,9.357,62.538,0.3393,-0.0363,0.2771,0.2069
17:31:41:168,-1.904,2.396,8.292,62.1661,0.4053,-0.1829,0.2905,0.2086
17:31:41:180,-2.0741,2.432,7.425,61.697,0.3761,-0.2856,0.326,0.2107
17:31:41:189,-2.1791,2.3381,6.824,61.6166,0.2734,-0.2977,0.3821,0.215
17:31:41:197,-2.088,2.24,6.611,61.2524,0.1268,-0.2403,0.4518,0.2163
17:31:41:207,-1.916,2.1611,6.6731,61.145,-0.0125,-0.1573,0.5141,0.2169
17:31:41:217,-1.686,2.082,6.716,60.9955,-0.1211,-0.0974,0.5629,0.217
17:31:41:227,-1.4681,2.044,6.647,60.7646,-0.2091,-0.0815,0.5924,0.2166
17:31:41:238,-1.1801,2.0051,6.654,60.8919,-0.2934,-0.0998,0.6046,0.2158
17:31:41:247,-0.936,2.0171,6.759,60.8366,-0.3765,-0.1328,0.6033,0.2148
17:31:41:257,-0.6821,1.943,6.891,60.9624,-0.4535,-0.1596,0.5972,0.2135
17:31:41:267,-0.4721,1.8641,7.131,60.884,-0.5305,-0.1646,0.5874,0.2118
17:31:41:279,-0.2711,1.761,7.545,60.8319,-0.6013,-0.1523,0.5679,0.2098
17:31:41:288,-0.144,1.644,8.103,60.5866,-0.6355,-0.1048,0.5386,0.2076
17:31:41:298,-0.204,1.5701,8.562,60.3457,-0.6172,-0.051,0.5202,0.2053
17:31:41:307,-0.2711,1.649,8.85,60.376,-0.544,0.0089,0.5361,0.2031
17:31:41:317,-0.273,1.953,8.8211,60.2996,-0.4291,0.0627,0.5642,0.2014
17:31:41:331,-0.204,2.2181,8.495,60.2962,-0.3216,0.0835,0.5764,0.2
17:31:41:337,-0.177,2.5061,8.225,60.1212,-0.2519,0.0712,0.5776,0.199
17:31:41:348,-0.137,2.762,8.0861,60.0438,-0.2104,0.0615,0.5776,0.1983
17:31:41:357,-0.125,2.987,8.033,60.2479,-0.1896,0.0615,0.5654,0.1976
17:31:41:369,-0.122,3.1931,8.045,60.4539,-0.1836,0.0578,0.5434,0.1969
17:31:41:379,-0.093,3.435,8.064,60.5656,-0.1848,0.048,0.5093,0.1962
17:31:41:388,0.0011,3.617,8.069,60.4602,-0.1981,0.0309,0.4518,0.1955
17:31:41:399,0.0971,3.753,8.1431,60.3146,-0.2251,-0.0203,0.3736,0.1948
17:31:41:407,0.1931,3.863,8.3321,60.128,-0.2654,-0.1059,0.2868,0.194
17:31:41:419,0.315,3.89,8.613,60.2864,-0.3044,-0.2061,0.2087,0.1932
17:31:41:431,0.4541,3.894,8.8781,60.2449,-0.3337,-0.2806,0.144,0.1924
17:31:41:436,0.609,3.8471,9.1661,60.0624,-0.3557,-0.3161,0.0902,0.1916
17:31:41:447,0.818,3.746,9.558,59.8992,-0.3754,-0.3234,0.0425,0.1906
17:31:41:457,0.93,3.7121,10.0661,59.7363,-0.3717,-0.2904,-0.0113,0.1896
17:31:41:468,0.858,3.72,10.535,59.7637,-0.3314,-0.2439,-0.0626,0.1887
17:31:41:477,0.758,3.8081,10.887,59.6604,-0.2507,-0.1926,-0.1066,0.1879
17:31:41:488,0.753,3.89,11.1071,59.6808,-0.1481,-0.1561,-0.1407,0.1875
17:31:41:498,0.782,4.0091,11.22,59.3741,-0.0393,-0.1548,-0.1811,0.1876
17:31:41:507,0.791,4.136,11.1551,59.2409,0.0597,-0.1891,-0.2262,0.1881
17:31:41:517,0.777,4.266,10.88,59.0544,0.133,-0.2391,-0.2727,0.189
17:31:41:527,0.803,4.304,10.533,58.8172,0.1671,-0.2806,-0.3167,0.1902
17:31:41:538,0.6881,4.328,10.538,58.6847,0.1671,-0.3161,-0.3497,0.1914
17:31:41:549,0.6881,4.34,10.394,58.6674,0.2013,-0.4346,-0.3655,0.193
17:31:41:557,0.609,4.2011,10.238,58.5376,0.1903,-0.5042,-0.3937,0.1947
17:31:41:569,0.231,4.3061,10.5851,58.5129,0.089,-0.382,-0.3509,0.1962
17:31:41:578,0.15,4.352,10.7051,58.2897,0.0498,-0.2501,-0.3204,0.1973
17:31:41:588,0.068,4.227,10.722,58.2639,0.0242,-0.1475,-0.3044,0.1982
17:31:41:598,0,3.933,10.688,58.2697,0.007,-0.1206,-0.3069,0.1984
17:31:41:608,-0.0431,3.7151,10.8701,58.4544,-0.0051,-0.1499,-0.3179,0.1986
17:31:41:618,0.0971,3.806,11.2181,58.3851,0.0059,-0.1731,-0.3301,0.1988
17:31:41:627,0.2381,3.729,11.364,58.335,0.067,-0.2294,-0.3729,0.1994
17:31:41:637,0.3821,3.6671,11.031,58.3403,0.166,-0.3442,-0.4034,0.2006
17:31:41:652,0.7601,3.5111,10.358,58.1841,0.2416,-0.4737,-0.4254,0.2024
17:31:41:662,0.863,3.516,9.8381,58.3019,0.2575,-0.5837,-0.4559,0.2044
17:31:41:674,0.995,3.456,9.609,58.3839,0.2368,-0.5885,-0.4632,0.2065
17:31:41:677,1.251,3.2621,9.477,58.1607,0.2013,-0.5067,-0.4559,0.2082
17:31:41:686,1.608,3.083,9.398,58.1535,0.1427,-0.4102,-0.4485,0.2095
17:31:41:697,2.0321,2.819,9.3881,58.0439,0.0804,-0.3271,-0.4645,0.2104
17:31:41:706,2.132,2.5511,9.479,57.8359,0.0254,-0.2586,-0.517,0.2109
17:31:41:715,1.914,2.223,9.561,57.5875,-0.0063,-0.2049,-0.5818,0.2111
17:31:41:726,1.653,1.907,9.6041,57.6442,-0.0173,-0.1573,-0.6331,0.2111
17:31:41:737,1.5581,1.5341,9.6401,57.7424,0.0022,-0.0828,-0.6673,0.2111
17:31:41:746,1.493,1.131,9.611,57.5203,0.034,-0.0155,-0.6966,0.2111
17:31:41:757,1.38,0.8441,9.7241,57.4623,0.0718,0.0247,-0.7296,0.2112
17:31:41:767,1.349,0.756,9.86,57.2689,0.144,0.0468,-0.7576,0.2115
17:31:41:779,1.431,0.914,9.752,57.3677,0.2758,0.059,-0.7821,0.2123
17:31:41:787,1.577,1.151,9.261,57.4583,0.4273,0.0212,-0.8004,0.2139
17:31:41:798,1.6511,1.4471,8.562,57.5258,0.5494,-0.0668,-0.8346,0.2161
17:31:41:807,1.4861,1.7351,7.791,57.4564,0.624,-0.1793,-0.8762,0.2188
17:31:41:817,1.311,2.015,6.9941,57.1806,0.6362,-0.2844,-0.8957,0.2218
17:31:41:826,1.356,2.2571,6.407,57.1368,0.5801,-0.3711,-0.8871,0.2248
17:31:41:837,1.505,2.412,6.075,57.1317,0.4701,-0.4247,-0.8762,0.2273
17:31:41:846,1.526,2.487,5.907,56.9291,0.3296,-0.415,-0.8701,0.2292
17:31:41:856,1.412,2.477,6,56.8891,0.1733,-0.3539,-0.8664,0.2304
17:31:41:866,1.151,2.465,6.245,56.8262,0.0254,-0.2636,-0.8579,0.2307
17:31:41:876,0.918,2.417,6.53,56.5881,-0.0993,-0.1854,-0.8419,0.2303
17:31:41:887,0.626,2.4101,6.8021,56.3351,-0.2031,-0.1414,-0.8298,0.2294
17:31:41:896,0.3341,2.376,7.1141,56.3506,-0.2861,-0.1303,-0.8224,0.2281
17:31:41:906,-0.048,2.463,7.478,56.0664,-0.3472,-0.1328,-0.8151,0.2265
17:31:41:916,-0.3521,2.5301,7.854,55.981,-0.3692,-0.1279,-0.7919,0.2248
17:31:41:926,-0.623,2.642,8.153,55.9592,-0.3582,-0.1231,-0.7528,0.2232
17:31:41:937,-0.771,2.8361,8.502,55.7406,-0.3228,-0.1206,-0.6966,0.2216
17:31:41:946,-0.7541,3.035,8.742,55.535,-0.2581,-0.1316,-0.6355,0.2204
17:31:41:957,-0.752,3.351,8.871,55.7942,-0.1786,-0.1463,-0.5805,0.2196
17:31:41:969,-0.6851,3.648,8.972,55.9214,-0.0968,-0.1499,-0.5292,0.2192
17:31:41:976,-0.575,3.861,9,55.7123,-0.0173,-0.1805,-0.4889,0.2192
17:31:41:986,-0.558,4.1171,9.063,55.9397,0.0487,-0.2366,-0.462,0.2195
17:31:41:996,-0.503,4.2731,9.17,55.9805,0.1085,-0.2806,-0.4437,0.2202
17:31:42:007,-0.7781,4.534,9.4391,55.9458,0.2282,-0.3174,-0.4205,0.2225
17:31:42:017,-0.876,4.67,9.506,56.0194,0.2943,-0.2879,-0.3875,0.2243
17:31:42:028,-1.116,4.977,9.546,56.0542,0.3578,-0.2489,-0.346,0.226
17:31:42:037,-1.0541,4.998,9.491,55.8205,0.4053,-0.2318,-0.2872,0.228
17:31:42:047,-0.738,5.094,9.4511,55.8487,0.4311,-0.2146,-0.2397,0.2302
17:31:42:056,-0.558,5.051,9.498,56.0185,0.4383,-0.1854,-0.2116,0.2325
17:31:42:067,-0.534,4.95,9.786,55.8584,0.4286,-0.1499,-0.1822,0.2344
17:31:42:078,-0.6491,4.91,10.2311,55.644,0.4298,-0.1121,-0.1284,0.2365
17:31:42:087,-0.819,4.9691,10.6691,55.7346,0.4641,-0.0522,-0.0478,0.2387
17:31:42:096,-0.963,5.075,10.9331,55.726,0.5336,0.0358,0.0512,0.241
17:31:42:106,-0.977,5.175,10.8941,55.6158,0.6229,0.1275,0.1635,0.2437
17:31:42:116,-0.879,5.3411,10.767,55.7299,0.6974,0.197,0.2661,0.247
17:31:42:126,-0.716,5.4791,10.614,55.4851,0.7437,0.2263,0.3395,0.2499
17:31:42:136,-0.527,5.5391,10.473,55.441,0.7657,0.2141,0.3724,0.2531
17:31:42:146,-0.4841,5.6111,10.404,55.4605,0.767,0.1701,0.3688,0.2565
17:31:42:156,-0.5291,5.5031,10.293,55.4653,0.7622,0.1176,0.3468,0.2599
17:31:42:167,-0.8861,5.654,10.262,55.2563,0.7437,0.0675,0.3248,0.2633
17:31:42:176,-1.0421,5.544,10.0781,55.1497,0.7157,0.0297,0.3285,0.2666
17:31:42:187,-1.109,5.453,9.8771,54.9812,0.6559,-0.0033,0.3443,0.2697
17:31:42:196,-1.169,5.3171,9.656,54.6805,0.5594,-0.0228,0.3798,0.2724
17:31:42:206,-0.987,4.991,9.4961,54.4555,0.4273,-0.0388,0.4335,0.2745
17:31:42:216,-0.7571,4.62,9.4751,54.2537,0.2722,-0.0583,0.4896,0.2761
17:31:42:229,-0.5081,4.2851,9.798,54.0413,0.1232,-0.0693,0.5459,0.277
17:31:42:236,-0.335,3.89,10.176,53.8794,0.0279,-0.0278,0.6009,0.2774
17:31:42:247,-0.242,3.593,10.401,53.8373,0.018,0.0968,0.6509,0.2775
17:31:42:256,-0.357,3.471,10.248,53.5187,0.0877,0.2556,0.6901,0.2778
17:31:42:267,-0.606,3.428,9.726,53.5417,0.1977,0.3913,0.7157,0.2783
17:31:42:277,-0.977,3.3821,8.9531,53.6565,0.2978,0.4597,0.7267,0.2792
17:31:42:287,-1.4081,3.377,8.141,53.4636,0.3651,0.4694,0.7292,0.2803
17:31:42:296,-1.832,3.372,7.415,53.166,0.3931,0.4487,0.7304,0.2817
17:31:42:307,-2.112,3.327,6.824,53.0398,0.3809,0.4146,0.7377,0.283
17:31:42:317,-2.361,3.471,6.498,53.0405,0.3393,0.3828,0.7487,0.2842
17:31:42:328,-2.471,3.605,6.29,52.8231,0.2795,0.3376,0.7744,0.2852
17:31:42:337,-2.402,3.681,6.123,52.798,0.2038,0.2643,0.8062,0.2853
17:31:42:348,-2.129,3.65,5.96,52.5694,0.1182,0.1713,0.8354,0.2866
17:31:42:356,-1.899,3.581,5.783,52.2788,0.0144,0.087,0.8452,0.2869
17:31:42:367,-1.686,3.428,5.78,52.4017,-0.1211,0.0187,0.8477,0.2867
17:31:42:378,-1.425,3.2291,6.051,52.4747,-0.2702,-0.0326,0.8537,0.2859
17:31:42:390,-1.2521,3.006,6.443,52.5774,-0.4009,-0.0632,0.8647,0.2846
17:31:42:397,-1.097,2.889,6.903,52.611,-0.4975,-0.0852,0.8953,0.2829
17:31:42:407,-1.01,2.793,7.133,52.7165,-0.5475,-0.0693,0.9515,0.281
17:31:42:417,-0.1871,3.531,7.485,52.6917,-0.5035,-0.0925,1.2374,0.2791
17:31:42:430,0.7481,3.212,7.145,52.6024,-0.478,-0.0045,1.2569,0.2772
17:31:42:437,1.167,3.2891,7.229,52.4804,-0.4975,0.136,1.1483,0.2736
17:31:42:450,1.031,3.4781,7.47,52.3664,-0.5145,0.2446,1.0236,0.2713
17:31:42:458,0.851,3.473,7.722,52.1669,-0.5035,0.3143,0.9295,0.2688
17:31:42:469,0.629,3.5231,7.971,52.0753,-0.4645,0.3216,0.8575,0.2664
17:31:42:480,0.5111,3.564,8.1551,51.9246,-0.4132,0.2569,0.8,0.2643
17:31:42:487,0.468,3.758,8.4521,51.6738,-0.3546,0.1616,0.756,0.2626
17:31:42:497,0.6431,3.7031,8.742,51.6291,-0.2739,0.0615,0.7231,0.2615
17:31:42:507,0.966,3.645,8.993,51.4347,-0.1749,-0.04,0.6876,0.2609
17:31:42:517,1.2131,3.657,9.1751,51.5735,-0.0626,-0.1303,0.6474,0.261
17:31:42:529,1.512,3.677,9.1061,51.6995,0.0522,-0.1914,0.5948,0.2616
17:31:42:537,1.625,3.7601,8.852,51.7569,0.1463,-0.2111,0.5324,0.2627
17:31:42:548,1.548,3.875,8.577,51.6355,0.1953,-0.2171,0.4726,0.2641
17:31:42:560,1.419,3.9611,8.318,51.6517,0.2038,-0.2636,0.4261,0.2655
17:31:42:567,1.589,3.926,7.988,51.5498,0.1805,-0.3454,0.4041,0.2671
17:31:42:577,2.123,3.7841,7.743,51.3837,0.1182,-0.4334,0.3993,0.2685
17:31:42:588,2.994,3.5111,7.71,51.3837,0.0205,-0.5543,0.3651,0.2698
17:31:42:598,3.461,3.8321,8.165,51.0843,-0.0991,-0.7217,0.2673,0.2709
17:31:42:607,3.684,3.957,8.742,50.8399,-0.1933,-0.8805,0.1354,0.2718
17:31:42:618,3.684,3.863,9.017,50.5307,-0.2226,-0.9501,-0.0111,0.2728
17:31:42:629,3.329,3.873,9.041,50.4736,-0.1871,-0.8916,-0.1383,0.2737
17:31:42:636,2.901,3.861,8.871,50.2281,-0.1273,-0.7888,-0.2226,0.2747
17:31:42:648,2.5871,3.849,8.6411,50.4234,-0.0918,-0.7571,-0.2787,0.2758
17:31:42:656,2.522,3.789,8.457,50.1923,-0.1053,-0.8658,-0.3264,0.277
17:31:42:667,2.666,3.789,8.4881,50.0401,-0.1628,-1.0809,-0.3728,0.2784
17:31:42:677,2.8961,3.753,8.6651,50.1663,-0.2287,-1.3215,-0.4254,0.2799
17:31:42:687,3.0641,3.791,8.9531,50.0524,-0.2886,-1.5293,-0.4852,0.2816
17:31:42:697,3.1571,3.827,9.297,50.1484,-0.346,-1.6831,-0.5488,0.2833
17:31:42:707,3.305,3.677,9.5321,50.0555,-0.4022,-1.7821,-0.6086,0.2849
17:31:42:717,3.296,3.6911,9.858,50.0065,-0.4767,-1.8554,-0.6513,0.2864
17:31:42:728,3.272,3.698,10.272,50.0213,-0.5695,-1.9055,-0.6698,0.2875
17:31:42:739,3.545,3.435,10.727,49.9836,-0.6685,-1.9349,-0.6685,0.2882
17:31:42:750,3.753,3.119,11.5121,50.2365,-0.7675,-1.9239,-0.6575,0.2885
17:31:42:756,3.705,3.1091,12.657,50.1274,-0.8323,-1.831,-0.6501,0.2882
17:31:42:767,3.7871,3.092,13.698,50.4281,-0.798,-1.6013,-0.6355,0.2877
17:31:42:777,3.425,3.317,14.0501,50.5592,-0.6368,-1.1945,-0.5952,0.2872
17:31:42:788,3.08,3.447,13.5401,50.859,-0.3937,-0.6973,-0.5085,0.2868
17:31:42:797,2.633,4.163,12.4001,50.8934,-0.1469,-0.2782,-0.4229,0.2867
17:31:42:807,2.963,4.622,10.787,50.8793,0.0107,-0.0315,-0.3814,0.2869
17:31:42:817,4.359,4.268,9.398,51.0379,0.0047,-0.0436,-0.4155,0.2872
17:31:42:830,5.264,3.8711,9.036,51.1283,-0.109,-0.1854,-0.5866,0.2873
17:31:42:852,4.4261,4.0811,9.194,51.1197,-0.1591,-0.2416,-0.8236,0.2873
17:31:42:852,1.5701,4.34,8.376,50.8864,0.1268,0.164,-0.9434,0.2881
17:31:42:856,0.423,4.586,7.6121,50.8317,0.304,0.3766,-0.8321,0.2893
17:31:42:868,-0.084,4.737,6.999,50.896,0.4176,0.4439,-0.6733,0.2905
17:31:42:880,-0.189,5.027,6.6161,50.7655,0.4713,0.3534,-0.5218,0.2924
17:31:42:887,0.1211,5.0291,6.312,50.5133,0.4848,0.142,-0.4082,0.2942
17:31:42:896,0.633,5.001,6.0551,50.5882,0.4652,-0.1341,-0.3545,0.2968
17:31:42:910,1.122,4.9069,5.9261,50.2991,0.4151,-0.4432,-0.3569,0.2994
17:31:42:917,1.481,4.709,5.847,50.145,0.3235,-0.7706,-0.4095,0.3018
17:31:42:927,1.74,4.4141,5.835,50.0991,0.1855,-1.0919,-0.4925,0.3044
17:31:42:938,1.9571,4.007,6.1751,49.9217,0.0082,-1.3399,-0.5781,0.3066
17:31:42:947,1.943,3.5951,6.8741,49.6441,-0.1676,-1.4803,-0.6501,0.3083
17:31:42:956,1.857,3.071,7.7,49.8997,-0.2947,-1.4803,-0.6831,0.3094
17:31:42:966,1.538,2.733,8.457,50.048,-0.3521,-1.3533,-0.6501,0.31
17:31:42:978,1.175,2.4701,8.9171,50.1553,-0.3374,-1.1054,-0.5633,0.3103
17:31:42:986,0.6791,2.288,9.041,50.1815,-0.2679,-0.7925,-0.4278,0.3104
17:31:42:996,0.2261,2.297,8.919,50.5197,-0.1713,-0.492,-0.2336,0.3104
17:31:43:007,0.03,2.4461,8.67,50.3358,-0.0686,-0.2123,-0.0063,0.3104
17:31:43:017,-0.0101,2.6141,8.277,50.5235,0.0205,-0.0033,0.2135,0.3103
17:31:43:027,0.2771,2.637,8.031,50.595,0.0608,0.07,0.3981,0.3103
17:31:43:037,0.947,2.592,8.141,50.6548,0.0437,-0.0315,0.5141,0.3103
17:31:43:047,1.689,2.64,8.6681,50.5476,0.0082,-0.2379,0.5434,0.3103
17:31:43:057,2.151,2.7911,9.3641,50.517,0.0059,-0.4456,0.5153,0.3107
17:31:43:066,2.549,2.8961,9.941,50.6643,0.0707,-0.5677,0.4775,0.3114
17:31:43:077,2.843,2.939,10.178,50.6799,0.188,-0.6007,0.4408,0.3128
17:31:43:090,3.183,2.946,10.145,50.6942,0.3052,-0.5605,0.4103,0.3146
17:31:43:096,3.344,3.095,9.9491,50.5183,0.3785,-0.4884,0.3663,0.3167
17:31:43:106,3.152,3.203,9.443,50.4977,0.3993,-0.3601,0.3211,0.3187
17:31:43:117,2.855,3.3371,9.003,50.4274,0.3638,-0.1951,0.3285,0.3204
17:31:43:126,2.951,3.3941,9.044,50.5213,0.2893,-0.0326,0.3846,0.3216
17:31:43:137,2.6231,3.935,9.4961,50.2995,0.2343,0.1836,0.4604,0.3221
17:31:43:147,1.883,4.9481,9.764,50.2411,0.2515,0.5061,0.5703,0.3222
17:31:43:157,2.0651,5.4821,9.4841,49.8812,0.304,0.8225,0.7389,0.3219
17:31:43:167,4.512,4.965,8.742,49.9616,0.3113,0.9263,0.8819,0.3215
17:31:43:178,8.0531,3.878,8.3591,49.9011,0.2295,0.7138,0.8379,0.3209
17:31:43:187,6.7841,5.456,8.711,49.7982,0.2148,0.847,0.6266,0.3203
17:31:43:197,6.0161,6.035,6.896,49.777,0.4261,1.6338,0.5984,0.3193
17:31:43:207,6.332,5.4461,4.418,49.6555,0.5813,2.5561,0.6717,0.3177
17:31:43:220,5.262,5.793,3.362,49.6391,0.3663,2.8665,0.5851,0.3146
17:31:43:227,3.36,6.215,3.786,49.789,-0.109,2.3961,0.3713,0.3102
17:31:43:237,1.8641,6.2051,5.282,49.9605,-0.572,1.5445,0.221,0.3052
17:31:43:248,1.677,5.738,7.439,50.1681,-0.8334,0.7125,0.2173,0.3003
17:31:43:257,2.355,5.226,9.6851,50.2782,-0.8751,0.0077,0.2637,0.2963
17:31:43:268,4.218,4.4831,12.6521,50.3329,-0.4877,-1.0161,0.276,0.2931
17:31:43:280,4.74,4.184,13.056,50.2862,-0.1689,-1.2544,0.2355,0.2943
17:31:43:288,4.826,3.902,13.047,50.3369,0.139,-1.2995,0.1842,0.2967
17:31:43:298,4.479,3.576,12.642,50.4891,0.4126,-1.1799,0.1354,0.3003
17:31:43:311,3.6671,3.437,11.984,50.5149,0.6314,-0.9685,0.1232,0.3045
17:31:43:317,2.8361,3.2741,11.198,50.6172,0.7804,-0.734,0.188,0.3089
17:31:43:329,2.2331,3.2261,10.4231,50.6296,0.8635,-0.5152,0.3407,0.3137
17:31:43:337,1.967,3.2141,9.635,50.5419,0.9136,-0.2538,0.5556,0.3174
17:31:43:347,2.115,3.2771,8.9741,50.6605,0.9453,0.0297,0.7792,0.3211
17:31:43:356,2.5781,3.356,8.411,50.6351,0.9478,0.2446,0.9564,0.3243
17:31:43:367,3.164,3.389,7.988,50.7941,0.9233,0.3596,1.0663,0.3272
17:31:43:378,3.6431,3.372,7.7771,50.8489,0.8916,0.3876,1.0847,0.3298
17:31:43:387,3.914,3.356,7.772,50.8961,0.8623,0.2874,1.0175,0.3324
17:31:43:397,3.803,3.3341,7.748,50.8201,0.8477,0.0945,0.9002,0.3354
17:31:43:407,3.48,3.284,7.5281,50.9192,0.8415,-0.1206,0.778,0.3387
17:31:43:417,3.195,3.114,7.269,51.1806,0.8097,-0.3356,0.6901,0.3424
17:31:43:427,3.066,2.958,7.0991,51.1218,0.7389,-0.5092,0.6363,0.3461
17:31:43:436,3.0761,2.709,7.061,51.3444,0.6387,-0.5995,0.6058,0.3496
17:31:43:447,3.1451,2.513,7.202,51.2953,0.5239,-0.63,0.5984,0.3527
17:31:43:459,3.284,2.376,7.487,51.4264,0.4139,-0.613,0.6058,0.3553
17:31:43:467,3.588,2.132,7.8341,51.4633,0.3235,-0.5824,0.6192,0.3574
17:31:43:479,3.765,2.013,8.222,51.426,0.2673,-0.5237,0.6266,0.3592
17:31:43:487,3.863,1.905,8.5459,51.5013,0.26,-0.4249,0.6376,0.3607
17:31:43:498,3.9761,1.8401,8.708,51.3036,0.2905,-0.3112,0.6498,0.3622
17:31:43:510,4.112,1.7441,8.706,51.3798,0.3443,-0.1891,0.6608,0.3636
17:31:43:517,4.258,1.7201,8.5841,51.3274,0.3931,-0.0718,0.6669,0.3649
17:31:43:527,4.1171,1.7801,8.3201,51.3036,0.4298,0.0908,0.6693,0.3661
17:31:43:537,3.861,1.7471,8.0261,51.3128,0.4493,0.3131,0.6754,0.367
17:31:43:546,3.576,1.716,8.074,51.2995,0.4433,0.5171,0.6889,0.3674
17:31:43:557,2.987,1.919,8.416,51.5687,0.4286,0.6539,0.7096,0.3675
17:31:43:567,1.661,2.6111,8.759,51.6274,0.4836,0.798,0.7756,0.3674
17:31:43:577,0.6761,3.222,8.522,51.6384,0.6436,0.9716,0.9503,0.3675
17:31:43:587,1.7351,2.8961,7.557,51.7115,0.828,1.0962,1.1836,0.3679
17:31:43:597,4.433,1.9811,6.0551,51.647,0.9332,1.1194,1.3205,0.3686
17:31:43:607,4.491,3.32,5.636,51.7072,0.9588,1.2697,1.3303,0.3691
17:31:43:618,4.373,4.6061,4.923,51.8824,1.0236,1.7828,1.3828,0.3687
17:31:43:629,4.895,4.697,3.5651,51.7516,1.0993,2.5403,1.4671,0.3669
17:31:43:637,4.7831,5.063,2.634,51.4801,0.9978,3.0608,1.4817,0.3635
17:31:43:648,4.4471,5.7911,2.4641,51.4734,0.6864,3.0302,1.3901,0.3587
17:31:43:656,4.517,6.21,2.826,51.5369,0.2722,2.4523,1.1726,0.3537
17:31:43:667,4.878,6.3461,3.908,51.3068,-0.1566,1.4615,0.8489,0.3493
17:31:43:678,5.1131,6.2411,5.648,51.4386,-0.522,0.2654,0.48,0.3463
17:31:43:687,5.391,5.6471,7.26,51.2873,-0.7528,-0.8598,0.1317,0.3453
17:31:43:698,5.889,4.278,9.422,51.1725,-0.8078,-2.1059,-0.44,0.346
17:31:43:708,5.963,3.7961,9.9371,51.3326,-0.7418,-2.3418,-0.6293,0.3508
17:31:43:719,5.9651,3.32,10.1381,51.4721,-0.6733,-2.3528,-0.7369,0.3543
17:31:43:729,5.786,2.999,10.257,51.3126,-0.6282,-2.1841,-0.7589,0.357
17:31:43:737,5.5871,2.8391,10.473,51.4887,-0.5988,-1.8921,-0.6953,0.3596
17:31:43:748,5.616,2.654,10.581,51.8675,-0.5488,-1.5133,-0.561,0.361
17:31:43:757,5.8151,2.604,10.602,52.1473,-0.4828,-1.1004,-0.396,0.3618
17:31:43:767,6.164,2.724,10.466,52.5081,-0.4169,-0.7242,-0.2482,0.362
17:31:43:778,6.519,2.934,10.119,52.623,-0.3679,-0.4309,-0.1492,0.3617
17:31:43:788,6.8231,3.1451,9.635,52.9678,-0.3752,-0.2563,-0.1041,0.3609
17:31:43:797,6.8921,3.365,9.18,53.2075,-0.4412,-0.1536,-0.1089,0.3596
17:31:43:809,6.9611,3.4661,8.7281,53.5744,-0.5525,-0.0828,-0.1394,0.3577
17:31:43:817,7.1411,3.5021,8.522,53.7568,-0.7003,-0.0082,-0.1847,0.3552
17:31:43:828,7.199,3.444,8.675,53.7466,-0.8432,0.1176,-0.2482,0.3518
17:31:43:836,6.9761,3.3101,8.909,53.9258,-0.9349,0.2861,-0.3092,0.3477
17:31:43:847,6.6221,3.126,9.044,53.9976,-0.9642,0.4451,-0.3398,0.3432
17:31:43:856,6.368,2.939,9.149,54.1073,-0.9336,0.6039,-0.3362,0.3384
17:31:43:868,6.0761,2.7641,9.264,54.1442,-0.853,0.77,-0.3215,0.3335
17:31:43:877,5.7311,2.633,9.1901,54.2755,-0.715,0.9448,-0.302,0.3287
17:31:43:887,5.3411,2.439,8.862,54.227,-0.5342,1.0926,-0.2727,0.3243
17:31:43:897,4.938,2.369,8.49,54.409,-0.3607,1.1549,-0.2335,0.3204
17:31:43:908,4.661,2.25,8.1701,54.4201,-0.2116,1.1219,-0.1919,0.3172
17:31:43:917,4.4981,2.123,7.928,54.3394,-0.0613,1.0193,-0.1566,0.3147
17:31:43:929,4.2889,2.1439,7.7171,54.4718,0.1012,0.8788,-0.1151,0.3132
17:31:43:936,4.22,2.183,7.344,54.6595,0.2881,0.7553,-0.0601,0.3126
17:31:43:947,4.301,2.24,6.764,54.6345,0.4786,0.6588,-0.0051,0.313
17:31:43:958,4.4471,2.3621,6.216,54.6692,0.6351,0.5599,0.0267,0.3143
17:31:43:968,4.55,2.561,5.553,54.8521,0.7352,0.4352,0.0144,0.3162
17:31:43:978,4.4741,2.7041,4.851,54.7002,0.7743,0.3143,-0.0406,0.3186
17:31:43:988,4.11,2.877,4.1711,54.6346,0.7389,0.175,-0.115,0.3212
17:31:43:997,3.708,3.0521,3.683,54.7978,0.6204,-0.0107,-0.1859,0.3238
17:31:44:006,3.315,3.174,3.518,54.9031,0.4408,-0.2343,-0.247,0.3262
17:31:44:017,2.889,3.305,3.503,54.6765,0.2405,-0.4273,-0.2897,0.3283
17:31:44:028,2.661,3.3821,3.656,54.6016,0.0364,-0.5714,-0.2837,0.3298
17:31:44:036,2.781,3.432,4.011,54.7813,-0.1469,-0.6594,-0.2445,0.3308
17:31:44:047,3.0881,3.413,4.5041,54.7358,-0.302,-0.7083,-0.2115,0.3313
17:31:44:056,3.293,3.423,5.0021,54.9561,-0.4242,-0.7376,-0.1957,0.3313
17:31:44:067,3.468,3.495,5.517,55.1761,-0.5109,-0.7633,-0.1847,0.331
17:31:44:077,3.65,3.54,5.885,55.0926,-0.5647,-0.7803,-0.1712,0.3305
17:31:44:086,3.7721,3.722,6.237,55.0019,-0.594,-0.7693,-0.159,0.3298
17:31:44:096,3.957,3.837,6.446,55.0836,-0.6013,-0.745,-0.1529,0.329
17:31:44:113,4.0721,3.9641,6.723,55.4163,-0.6111,-0.7462,-0.1577,0.3282
17:31:44:117,4.206,4.0811,7.044,55.3825,-0.6282,-0.784,-0.1737,0.3273
17:31:44:128,4.2889,4.1531,7.277,55.4906,-0.6343,-0.8243,-0.1969,0.3266
17:31:44:138,4.4261,4.112,7.6571,55.5917,-0.6502,-0.8866,-0.2164,0.3252
17:31:44:148,4.476,4.122,8.019,55.711,-0.6733,-0.9404,-0.2139,0.3244
17:31:44:159,4.538,4.1081,8.4071,55.8864,-0.6795,-0.9831,-0.2054,0.3238
17:31:44:168,4.79,4.0841,8.852,56.0481,-0.6623,-0.9966,-0.1895,0.3232
17:31:44:178,5.336,4.067,9.336,56.4425,-0.6135,-0.9538,-0.1761,0.3227
17:31:44:186,6.011,4.182,9.7931,56.5861,-0.5292,-0.8133,-0.1847,0.3223
17:31:44:196,6.6101,4.299,10.116,56.5785,-0.4119,-0.5555,-0.2409,0.3219
17:31:44:207,6.8321,4.3421,10.145,56.7843,-0.2849,-0.2416,-0.3472,0.3214
17:31:44:217,6.6101,4.412,9.882,56.99,-0.1786,0.0443,-0.4693,0.321
17:31:44:228,6.095,4.4501,9.393,57.0098,-0.1151,0.2948,-0.5633,0.3203
17:31:44:236,5.4821,4.548,8.9501,57.2506,-0.1078,0.4939,-0.622,0.3194
17:31:44:247,4.809,4.689,8.66,57.5021,-0.1517,0.6357,-0.655,0.3181
17:31:44:256,4.254,4.847,8.658,57.5863,-0.2262,0.7358,-0.6648,0.3162
17:31:44:267,3.758,5.0411,8.84,57.4387,-0.3117,0.7968,-0.6574,0.3139
17:31:44:281,3.332,5.2301,9.125,57.7222,-0.3765,0.8286,-0.6453,0.3112
17:31:44:286,2.997,5.324,9.309,57.8464,-0.4192,0.8188,-0.6293,0.3084
17:31:44:298,2.894,5.2091,9.35,57.9106,-0.4657,0.7321,-0.6073,0.3054
17:31:44:306,2.961,4.9601,9.3431,58.1216,-0.5353,0.5672,-0.5866,0.3025
17:31:44:318,3.059,4.562,9.374,58.2138,-0.6295,0.3656,-0.5743,0.2992
17:31:44:329,3.212,4.0331,9.4961,58.173,-0.743,0.1726,-0.5683,0.2964
17:31:44:344,3.083,3.521,9.8501,58.0908,-0.8566,0.032,-0.5621,0.293
17:31:44:347,2.637,3.167,10.3751,58.4861,-0.9421,-0.0375,-0.5243,0.2894
17:31:44:362,2.106,2.721,10.8461,58.5066,-0.9691,-0.0155,-0.4327,0.2853
17:31:44:370,1.44,2.4461,11.328,58.7005,-0.9239,0.12,-0.2872,0.2817
17:31:44:379,0.882,2.2571,11.591,58.858,-0.8091,0.2984,-0.0931,0.2777
17:31:44:389,0.662,2.1109,11.6321,58.9305,-0.6588,0.4536,0.1305,0.274
17:31:44:397,0.669,1.998,11.6321,59.036,-0.506,0.5452,0.3517,0.2706
17:31:44:407,0.9521,1.895,11.6441,59.2105,-0.3594,0.5672,0.5435,0.2676
17:31:44:417,1.433,1.737,11.675,59.1996,-0.2129,0.5404,0.6974,0.2652
17:31:44:429,1.845,1.5701,11.7611,59.2381,-0.0613,0.4927,0.8025,0.2635
17:31:44:436,2.135,1.368,11.778,59.3169,0.1037,0.4364,0.8672,0.2626
17:31:44:447,2.202,1.1891,11.73,59.3985,0.2856,0.3876,0.9222,0.2624
17:31:44:457,2.182,1.0121,11.546,59.3744,0.4811,0.3473,0.9894,0.2631
17:31:44:466,2.204,0.878,11.2391,59.4629,0.6766,0.3081,1.0663,0.2647
17:31:44:477,2.24,0.803,10.799,59.6921,0.8708,0.2691,1.1433,0.2671
17:31:44:486,2.307,0.7241,10.2431,59.6661,1.0553,0.2373,1.2166,0.2703
17:31:44:501,2.448,0.662,9.645,59.9588,1.2214,0.2251,1.2801,0.2742
17:31:44:508,2.5901,0.708,9.0911,59.766,1.3607,0.2214,1.3229,0.2786
17:31:44:517,2.676,0.7961,8.565,59.6184,1.4792,0.241,1.3449,0.2835
17:31:44:528,2.6831,0.9761,8.019,59.7261,1.5892,0.2923,1.3584,0.2887
17:31:44:537,2.738,1.1891,7.442,59.6844,1.6796,0.3461,1.3766,0.2941
17:31:44:549,2.949,1.701,6.245,59.7103,1.7517,0.4767,1.3889,0.2996
17:31:44:557,3.09,1.9721,5.778,59.5536,1.72,0.5294,1.3804,0.3049
17:31:44:568,3.246,2.271,5.4641,59.5791,1.6442,0.5404,1.3511,0.3148
17:31:44:580,3.437,2.556,5.3591,59.4828,1.5342,0.5037,1.2998,0.3196
17:31:44:588,3.696,2.805,5.4521,59.6695,1.4109,0.4291,1.2215,0.3233
17:31:44:598,3.885,3.0641,5.603,59.7453,1.2972,0.3607,1.1263,0.3275
17:31:44:607,4.179,3.293,5.802,59.7279,1.1921,0.3033,1.0248,0.3307
17:31:44:617,4.445,3.497,6.0101,59.702,1.0933,0.2508,0.9039,0.334
17:31:44:627,4.637,3.5951,6.161,59.6437,0.9967,0.2018,0.7682,0.3371
17:31:44:636,4.7111,3.7151,6.312,59.4482,0.8905,0.1567,0.6326,0.34
17:31:44:646,4.826,3.7481,6.515,59.5499,0.7792,0.1286,0.5068,0.3425
17:31:44:656,4.9931,3.744,6.659,59.5383,0.6669,0.109,0.392,0.3447
17:31:44:666,5.1731,3.681,6.788,59.4471,0.5544,0.1041,0.2882,0.3465
17:31:44:678,5.345,3.6,7.004,59.5067,0.4371,0.1005,0.1904,0.3479
17:31:44:686,5.444,3.6,7.202,59.5835,0.3308,0.1005,0.0976,0.3489
17:31:44:697,5.6231,3.4871,7.281,59.377,0.2368,0.1018,0.0144,0.3495
17:31:44:711,5.903,3.341,7.3031,59.2125,0.1427,0.0968,-0.0734,0.3499
17:31:44:717,6.056,3.1931,7.2791,59.0984,0.0352,0.076,-0.1664,0.3499
17:31:44:726,6.26,3.0041,7.31,59.0835,-0.0931,0.0308,-0.247,0.3496
17:31:44:737,6.701,2.6951,7.47,59.2116,-0.2238,-0.0205,-0.3154,0.3489
17:31:44:748,7.074,2.324,7.686,59.0438,-0.3411,-0.04,-0.3838,0.3479
17:31:44:757,7.146,2.0651,7.8461,59.0234,-0.429,0.0027,-0.4473,0.3464
17:31:44:768,6.729,2.195,7.8491,58.9377,-0.4718,0.1261,-0.4803,0.3445
17:31:44:780,6.3581,2.3839,7.64,59.043,-0.473,0.3033,-0.446,0.3421
17:31:44:787,6.143,2.5631,7.3031,59.1285,-0.4657,0.4707,-0.3752,0.3393
17:31:44:797,5.997,2.798,6.7931,59.363,-0.4865,0.5427,-0.3142,0.3362
17:31:44:807,6.159,2.925,6.237,59.5292,-0.5781,0.4597,-0.2799,0.3329
17:31:44:817,6.509,3.0131,5.897,59.4143,-0.7576,0.2166,-0.3032,0.3295
17:31:44:828,6.894,2.8271,5.85,59.4957,-1.0081,-0.1206,-0.3923,0.3261
17:31:44:837,6.9971,2.5181,6.273,59.4657,-1.2915,-0.4359,-0.5316,0.3223
17:31:44:865,6.791,2.036,6.999,59.4823,-1.5359,-0.6093,-0.6696,0.318
17:31:44:866,6.08,1.6751,7.6601,59.6802,-1.6801,-0.6044,-0.7613,0.3132
17:31:44:867,5.144,1.323,8.1049,59.9125,-1.7179,-0.4762,-0.7674,0.3078
17:31:44:877,4.313,0.993,8.4881,59.8381,-1.6606,-0.2806,-0.6966,0.3022
17:31:44:887,3.7001,0.866,8.783,59.7825,-1.5139,-0.0986,-0.5818,0.2966
17:31:44:897,3.344,0.839,8.735,59.9951,-1.3001,-0.007,-0.4473,0.2916
17:31:44:907,3.3371,1.043,8.4881,59.889,-1.079,-0.0253,-0.3227,0.2873
17:31:44:917,3.617,1.316,8.136,60.1216,-0.9006,-0.1511,-0.2347,0.2841
17:31:44:928,3.9041,1.3571,7.722,60.2225,-0.7736,-0.3174,-0.2005,0.2817
17:31:44:937,4.067,1.764,7.59,60.2477,-0.6831,-0.503,-0.1859,0.2801
17:31:44:948,4.7561,2.175,7.2791,60.2374,-0.6123,-0.6973,-0.2054,0.2792
17:31:44:957,4.934,2.192,6.879,60.6799,-0.5965,-0.7523,-0.308,0.2786
17:31:44:968,4.9931,2.4791,6.642,60.6617,-0.6941,-0.8365,-0.4755,0.2774
17:31:44:979,5.063,2.5301,6.597,60.5828,-0.7663,-0.8256,-0.5303,0.2764
17:31:44:988,5.0531,2.558,6.6401,61.0331,-0.8456,-0.7547,-0.5866,0.2751
17:31:44:998,4.946,2.5631,6.755,61.0208,-0.9287,-0.6643,-0.6403,0.2731
17:31:45:011,4.656,2.6021,6.953,60.9857,-0.9922,-0.5544,-0.6806,0.2708
17:31:45:017,4.2889,2.69,7.1261,61.009,-1.0252,-0.4394,-0.6966,0.2677
17:31:45:028,3.9881,2.76,7.2431,61.0897,-1.0289,-0.3259,-0.6831,0.2649
17:31:45:037,3.839,2.867,7.257,60.7472,-1.013,-0.2245,-0.6648,0.2616
17:31:45:047,3.878,2.975,7.3511,61.0286,-1.002,-0.183,-0.655,0.2583
17:31:45:057,3.8681,3.095,7.5281,61.0807,-0.9959,-0.1891,-0.6648,0.255
17:31:45:066,3.8471,3.15,7.755,61.0618,-0.9849,-0.2221,-0.6868,0.2518
17:31:45:079,3.681,3.171,7.9901,61.1297,-0.9617,-0.2513,-0.7026,0.2488
17:31:45:087,3.468,3.2051,8.177,61.4662,-0.9153,-0.2575,-0.7111,0.246
17:31:45:097,3.2291,3.2861,8.229,61.5512,-0.8639,-0.2428,-0.7014,0.2433
17:31:45:107,3.0881,3.332,8.4551,61.6549,-0.8249,-0.1854,-0.6501,0.2407
17:31:45:117,2.862,3.3701,8.55,61.7476,-0.7736,-0.1218,-0.6025,0.2381
17:31:45:129,2.673,3.375,8.579,61.3251,-0.7321,-0.0962,-0.5511,0.2356
17:31:45:136,2.556,3.4181,8.7131,61.3961,-0.7051,-0.1023,-0.4913,0.2331
17:31:45:147,2.63,3.425,8.8811,61.4104,-0.677,-0.1072,-0.4315,0.2308
17:31:45:157,2.8271,3.3131,9.218,61.4104,-0.649,-0.1206,-0.3777,0.2285
17:31:45:168,3.119,3.188,9.755,61.0125,-0.6135,-0.1353,-0.3422,0.2264
17:31:45:179,3.4391,3.0371,10.32,61.0712,-0.5525,-0.1096,-0.3275,0.2245
17:31:45:187,3.542,3.0041,10.7201,61.0087,-0.478,-0.0425,-0.3154,0.2227
17:31:45:197,3.578,2.958,11.0501,60.8865,-0.3997,0.0528,-0.2762,0.2211
17:31:45:210,3.614,2.927,11.2631,61.2055,-0.3227,0.1909,-0.2079,0.2196
17:31:45:217,3.653,2.819,11.438,61.0642,-0.2629,0.3253,-0.1321,0.2179
17:31:45:227,3.756,2.76,11.634,60.9917,-0.2311,0.4169,-0.0588,0.2162
17:31:45:237,3.818,2.709,11.931,60.9457,-0.2054,0.4767,0.0047,0.2144
17:31:45:249,3.911,2.556,12.281,61.2077,-0.1627,0.5159,0.0584,0.2127
17:31:45:260,4.0001,2.5781,12.6281,61.145,-0.0833,0.5647,0.0902,0.2112
17:31:45:267,3.854,2.669,12.7811,61.1052,0.034,0.6552,0.1086,0.21
17:31:45:278,3.507,2.7881,12.68,61.5821,0.166,0.7785,0.1342,0.2091
17:31:45:287,3.155,2.865,12.398,61.9234,0.2808,0.858,0.177,0.2086
17:31:45:297,2.913,2.97,12.048,61.9246,0.3443,0.8543,0.2173,0.2085
17:31:45:311,3.1091,2.769,11.7251,62.1199,0.3393,0.7627,0.2454,0.2081
17:31:45:317,3.66,2.288,11.6321,62.1204,0.2747,0.6075,0.2454,0.2079
17:31:45:328,4.136,1.764,11.85,61.8129,0.1842,0.4426,0.2087,0.2077
17:31:45:337,4.373,1.289,12.2381,61.6618,0.1097,0.3143,0.1489,0.2075
17:31:45:348,4.383,0.87,12.728,61.4574,0.0865,0.2531,0.0964,0.2073
17:31:45:357,4.2011,0.521,13.176,61.0255,0.128,0.2496,0.0646,0.2073
17:31:45:367,3.803,0.3341,13.425,60.8768,0.243,0.3009,0.0694,0.2077
17:31:45:380,3.444,0.195,13.289,60.9061,0.4286,0.4169,0.1159,0.2086
17:31:45:388,3.126,0.171,12.8741,60.7005,0.6449,0.5452,0.1842,0.2102
17:31:45:398,2.819,0.279,11.225,60.7337,1.0383,0.6747,0.3235,0.2124
17:31:45:413,2.7281,0.401,10.293,61.0593,1.1666,0.6845,0.375,0.2187
17:31:45:417,2.709,0.471,9.357,60.9402,1.2349,0.6575,0.4078,0.2227
17:31:45:429,2.6921,0.609,8.586,61.1251,1.2459,0.6148,0.4188,0.2262
17:31:45:437,2.4911,0.7151,7.887,61.2741,1.2154,0.5917,0.4201,0.2304
17:31:45:450,2.336,0.729,7.236,61.0671,1.1433,0.5697,0.4286,0.2336
17:31:45:462,2.214,0.758,6.6971,61.1311,1.0285,0.5367,0.4433,0.2367
17:31:45:467,2.202,0.6551,6.252,61.1239,0.883,0.4939,0.469,0.2393
17:31:45:480,2.2571,0.626,5.8931,61.0784,0.7145,0.4511,0.4971,0.2412
17:31:45:486,2.424,0.5501,5.675,60.8752,0.5264,0.4181,0.5301,0.2424
17:31:45:497,2.652,0.492,5.67,61.136,0.3198,0.4254,0.5558,0.2427
17:31:45:508,2.664,0.3581,6.02,61.401,0.1085,0.4865,0.5668,0.2421
17:31:45:517,2.3291,0.0161,6.314,61.2004,-0.0796,0.6222,0.5961,0.2403
17:31:45:528,1.7201,-0.137,6.609,61.1726,-0.2116,0.8273,0.6828,0.2375
17:31:45:536,1.1291,-0.077,6.872,60.8337,-0.2739,1.0729,0.8354,0.2338
17:31:45:547,0.8081,-0.038,6.9371,60.6021,-0.2861,1.2844,1.0445,0.2295
17:31:45:558,0.873,-0.036,6.8531,60.5664,-0.2776,1.4322,1.257,0.2248
17:31:45:566,1.175,0.0011,6.731,60.594,-0.2764,1.503,1.4231,0.2198
17:31:45:579,1.5941,0.198,6.968,60.3539,-0.2886,1.4981,1.5147,0.2143
17:31:45:587,1.986,0.3821,7.334,59.9185,-0.2971,1.426,1.5379,0.2098
17:31:45:598,2.3171,0.609,7.758,59.8749,-0.2861,1.3027,1.5196,0.2051
17:31:45:607,2.673,0.897,8.1941,59.9148,-0.2349,1.1267,1.4756,0.2011
17:31:45:617,3.0881,1.0931,8.421,59.8861,-0.1431,0.9251,1.4048,0.1978
17:31:45:629,3.593,1.242,8.438,59.9942,-0.0381,0.7175,1.3119,0.1955
17:31:45:637,4.031,1.373,8.529,59.7972,0.0499,0.5182,1.1935,0.1941
17:31:45:649,4.038,1.787,8.9651,59.7534,0.1244,0.3326,1.0383,0.1935
17:31:45:659,3.179,2.7761,9.587,59.7058,0.2245,0.175,0.866,0.1937
17:31:45:668,2.501,3.3371,9.3881,59.6429,0.3675,0.0578,0.7194,0.1949
17:31:45:678,4.251,2.2421,8.21,59.5512,0.4543,-0.1536,0.5899,0.1969
17:31:45:687,7.4741,0.384,7.3151,59.3568,0.3125,-0.701,0.3223,0.1998
17:31:45:697,6.095,1.9811,8.3471,59.7044,-0.0124,-1.0968,-0.0711,0.2027
17:31:45:707,3.72,2.805,8.6441,59.5627,-0.1676,-0.6545,-0.2947,0.2039
17:31:45:716,2.0749,3.296,8.416,59.3374,-0.0626,0.3179,-0.1932,0.2031
17:31:45:729,0.744,3.4061,8.107,59.2514,0.122,1.1939,0.1367,0.2006
17:31:45:737,1.0841,3.26,8.052,59.1718,0.1867,1.4224,0.4873,0.1976
17:31:45:749,2.084,3.566,8.73,59.1181,0.1122,1.0363,0.6095,0.1952
17:31:45:757,3.468,3.686,9.575,59.0944,-0.0186,0.3449,0.4823,0.194
17:31:45:768,4.5311,3.602,10.4471,59.142,-0.1224,-0.3491,0.1953,0.1943
17:31:45:777,4.7441,3.471,11.048,58.8475,-0.1639,-0.8365,-0.1541,0.1957
17:31:45:788,4.388,3.0851,11.4521,58.8844,-0.1591,-1.0479,-0.457,0.1979
17:31:45:797,3.8201,2.8721,11.9051,59.0739,-0.1101,-1.0626,-0.6599,0.2003
17:31:45:809,3.497,2.618,12.2141,58.9519,-0.0186,-1.0015,-0.7576,0.203
17:31:45:818,3.2531,2.453,11.747,58.7712,0.2075,-0.8036,-0.7734,0.2059
17:31:45:828,3.2531,2.3741,10.679,58.988,0.2868,-0.6179,-0.7296,0.2118
17:31:45:838,3.258,2.149,9.269,59.1246,0.249,-0.3796,-0.6781,0.214
17:31:45:849,3.212,1.862,8.124,59.2396,0.0412,-0.1598,-0.6366,0.2149
17:31:45:860,3.293,1.424,7.751,59.3292,-0.3215,-0.0632,-0.6025,0.214
17:31:45:868,3.449,0.8681,8.423,59.5395,-0.7443,-0.1195,-0.5976,0.2117
17:31:45:877,3.2981,0.519,9.6281,59.667,-1.0717,-0.1878,-0.6256,0.208
17:31:45:888,3.0761,0.3011,10.7531,59.9059,-1.2024,-0.1158,-0.6428,0.2037
17:31:45:897,2.997,0.131,11.373,59.9511,-1.1352,0.092,-0.6073,0.199
17:31:45:906,2.973,0.339,11.483,59.8377,-0.8994,0.4022,-0.5133,0.1945
17:31:45:916,3.131,0.552,10.89,59.832,-0.5378,0.7932,-0.39,0.1904
17:31:45:928,3.246,0.7481,9.8621,59.7714,-0.1236,1.1902,-0.2714,0.187
17:31:45:937,3.042,1.275,8.8181,59.8234,0.2527,1.431,-0.1651,0.1845
