Time,Acc_X,Acc_Y,Acc_Z,Meg,Gyr_X,Gyr_Y,Gyr_Z,Ore
17:53:43:196,-2.6851,2.7995,11.253,54.1284,0.1879,-1.0071,-0.8477,0.0298
17:53:43:196,-3.2456,2.7444,11.5021,54.3375,0.2987,-0.7712,-0.657,0.0298
17:53:43:216,-3.1282,2.9839,11.1357,56.4549,0.3823,-0.41,-0.3721,0.0298
17:53:43:237,-2.3953,3.0294,10.319,56.1649,0.3844,-0.2305,-0.1638,0.0298
17:53:43:256,-2.0768,3.439,10.3357,53.9343,0.2598,-0.3615,-0.0802,0.0298
17:53:43:276,-2.3043,3.6042,11.162,54.7176,0.0771,-0.5421,-0.0509,0.0298
17:53:43:298,-2.2756,3.2354,11.6051,53.189,-0.0002,-0.5948,0.02,0.0298
17:53:43:318,-1.6145,2.5169,11.1309,55.6362,-0.0071,-0.5789,0.0962,0.0298
17:53:43:338,-1.2002,1.9876,11.0782,53.1481,-0.1088,-0.6295,0.0818,0.0298
17:53:43:356,-1.593,1.6618,11.8686,54.1252,-0.2266,-0.6055,0.0349,0.0298
17:53:43:375,-2.3019,1.2762,11.6075,52.5972,-0.0955,-0.3701,0.0711,0.0298
17:53:43:398,-2.6779,1.0104,10.0627,53.6392,0.1836,-0.1623,0.2719,-0.0674
17:53:43:416,-1.9882,1.19,8.2688,51.987,0.312,-0.1048,0.567,-0.0674
17:53:43:438,-0.9271,1.396,7.488,52.9274,0.1431,-0.1842,0.7444,-0.06
17:53:43:456,-0.1751,1.4582,8.0508,52.1663,-0.1653,-0.2555,0.7876,-0.06
17:53:43:476,0.3255,1.5636,9.4088,53.6879,-0.3954,-0.3147,0.7641,-0.0274
17:53:43:500,0.5746,1.6499,9.9621,52.4995,-0.3629,-0.181,0.6981,-0.0249
17:53:43:516,0.3087,1.9636,9.0783,52.1167,-0.1317,0.0859,0.6352,-0.0281
17:53:43:537,0.0453,2.3612,7.5862,53.2241,0.0717,0.3277,0.6091,-0.0281
17:53:43:557,-0.4721,2.6151,6.7455,52.6416,0.0978,0.3293,0.5553,-0.0256
17:53:43:576,-0.7954,2.5839,7.0114,51.7525,0.0297,0.1104,0.4871,-0.0249
17:53:43:597,-1.114,2.3684,7.6221,52.1533,0.0115,-0.0915,0.4467,-0.0879
17:53:43:617,-1.0589,2.2965,7.5215,52.7248,0.0126,-0.1069,0.5159,-0.0879
17:53:43:637,-0.2206,2.6462,7.785,51.2225,-0.0859,0.0923,0.6501,-0.0556
17:53:43:656,0.0309,2.8282,8.5059,52.6195,-0.2116,0.1711,0.6038,-0.0556
17:53:43:676,0.2033,2.8833,8.8172,50.9874,-0.2463,0.0689,0.5095,-0.0512
17:53:43:697,0.6297,3.015,8.822,50.8722,-0.2591,-0.0909,0.4163,-0.0507
17:53:43:717,0.8572,3.5204,9.8016,49.7732,-0.3081,-0.2886,0.3273,-0.0501
17:53:43:737,1.0033,3.2881,10.1034,50.5154,-0.2441,-0.5379,0.2091,-0.0501
17:53:43:756,1.1566,3.0701,9.6603,51.0366,-0.185,-0.4185,0.1308,-0.0542
17:53:43:777,1.0081,3.1468,10.0771,50.7472,-0.2548,0.0374,0.0935,-0.0546
17:53:43:797,1.3027,2.8953,11.1716,48.9854,-0.3901,0.2713,0.0812,-0.0537
17:53:43:818,1.9062,2.6773,11.5428,49.114,-0.5297,0.0822,0.0493,-0.0537
17:53:43:837,2.8188,2.5767,11.8135,47.8869,-0.625,-0.117,0.0013,-0.0526
17:53:43:855,3.5924,2.7827,12.2207,49.3414,-0.5813,-0.3109,-0.1361,-0.0526
17:53:43:876,2.7062,1.9852,11.9692,48.2423,-0.4258,-0.3083,-0.3811,-0.0185
17:53:43:898,1.6907,1.1732,11.7991,48.2703,-0.3299,0.12,-0.5468,0.0625
17:53:43:918,0.7255,0.5457,11.2674,47.6944,-0.3853,0.3277,-0.5489,0.0658
17:53:43:937,-0.1439,0.1266,11.1453,49.0457,-0.4961,0.226,-0.4046,0.0658
17:53:43:956,0.0932,0.1433,11.0758,46.5625,-0.3326,0.0774,-0.1057,0.0728
17:53:43:976,0.9051,0.2559,10.5896,46.0154,0.0083,-0.2704,0.0882,0.0736
17:53:43:997,1.7242,0.9146,10.0699,45.1113,0.0914,-0.9134,-0.0642,0.0687
17:53:44:018,2.5314,0.7996,9.9741,43.9925,0.0057,-1.25,-0.2048,0.0687
17:53:44:038,3.0367,0.9146,9.2915,44.1779,0.0574,-0.7264,-0.298,0.0651
17:53:44:056,2.026,1.3169,8.4268,45.1407,0.1841,-0.0883,-0.575,0.0651
17:53:44:076,0.6392,1.4247,7.5694,44.2973,0.2704,0.0992,-0.7668,0.0665
17:53:44:098,-0.0936,1.7504,6.791,44.9499,0.3897,0.0779,-0.7732,0.0667
17:53:44:122,-0.3906,1.9301,6.4437,43.1788,0.4835,-0.0893,-0.7242,0.0589
17:53:44:139,-0.5319,2.0858,5.8162,43.1788,0.5272,-0.2396,-0.6762,0.0589
17:53:44:156,-0.4266,2.2271,6.1659,43.3039,0.4276,-0.2747,-0.608,0.0531
17:53:44:176,-0.3308,2.7516,6.2497,44.7064,0.3445,-0.4548,-0.5026,0.0525
17:53:44:196,-0.2733,3.0989,6.9084,44.7064,0.2097,-0.5746,-0.4323,0.0657
17:53:44:217,-0.0026,3.1803,7.7538,42.5192,0.1154,-0.5703,-0.3731,0.0657
17:53:44:236,0.1267,3.2474,8.4388,41.6435,-0.0114,-0.6502,-0.3486,0.1078
17:53:44:257,0.0405,3.2474,9.8112,41.5221,-0.2218,-0.5171,-0.2852,0.1078
17:53:44:276,-0.5296,3.3072,11.265,41.2555,-0.3784,-0.1804,-0.1846,0.109
17:53:44:298,-1.2912,3.3384,12.2686,41.0895,-0.4423,0.1136,-0.0306,0.1091
17:53:44:319,-1.6049,3.0773,13.1619,40.6076,-0.4471,0.1861,0.1888,0.1121
17:53:44:340,-1.0924,2.8522,13.8062,40.337,-0.373,0.0715,0.4467,0.1121
17:53:44:356,-0.2757,2.7516,14.29,41.3789,-0.2399,-0.0819,0.6406,0.1192
17:53:44:375,0.177,2.4163,13.526,40.699,-0.0364,0.0012,0.7135,0.12
17:53:44:397,-0.5463,1.9301,12.441,41.9121,0.0579,0.2303,0.6981,0.1311
17:53:44:417,-1.4684,1.2714,11.6458,42.2471,0.0605,0.4567,0.7508,0.1311
17:53:44:437,-1.2241,0.7062,11.4566,40.1598,0.052,0.3586,0.9223,0.1421
17:53:44:456,-0.4074,0.2655,11.6147,41.616,0.1,-0.0313,1.0619,0.1421
17:53:44:477,-0.0146,-0.065,11.9069,41.6948,0.2161,-0.3786,1.145,0.1452
17:53:44:498,0.862,-0.0602,11.1429,42.1644,0.4302,-0.3674,1.2819,0.1456
17:53:44:517,1.4895,0.038,8.8939,42.3183,0.6145,-0.0473,1.3485,0.1391
17:53:44:536,1.262,0.4475,7.4113,42.5937,0.5384,0.2553,1.3218,0.1391
17:53:44:556,0.8428,0.8691,7.5359,42.3085,0.3146,0.4412,1.3011,0.1372
17:53:44:576,0.474,1.0678,7.9215,43.3438,0.271,0.5296,1.3075,0.137
17:53:44:597,0.1195,1.2547,6.9778,42.893,0.4755,0.6548,1.3272,0.1353
17:53:44:617,-0.2709,1.3816,5.5863,43.5387,0.6433,0.7081,1.3447,0.1353
17:53:44:637,-0.1823,1.6139,5.0234,43.7892,0.582,0.5275,1.3762,0.1288
17:53:44:657,0.5506,1.9157,6.0797,43.27,0.3434,0.2478,1.3693,0.1288
17:53:44:676,0.9338,1.8223,8.1658,44.7716,0.1484,-0.01,1.2718,0.1338
17:53:44:699,1.1207,1.6738,9.4064,44.8027,0.182,-0.0078,1.2169,0.1344
17:53:44:716,1.329,1.7888,10.2519,44.5085,0.3189,0.1631,1.2574,0.1426
17:53:44:736,2.6799,1.8175,10.7453,45.3912,0.4361,0.4039,1.3437,0.1426
17:53:44:756,4.8761,1.8702,11.071,45.957,0.4494,0.4545,1.2766,0.1402
17:53:44:776,6.603,2.1025,10.8076,45.8634,0.3759,0.2585,0.8781,0.1399
17:53:44:797,6.7994,1.8534,10.8052,49.4181,0.1261,0.03,0.3151,0.1321
17:53:44:817,5.3504,1.9277,11.9213,44.9555,-0.1887,0.0651,-0.1425,0.1321
17:53:44:836,4.5121,1.693,11.7464,46.0058,-0.2852,0.3933,-0.3614,0.1251
17:53:44:861,3.9876,2.2726,10.9273,46.3903,-0.3219,0.6335,-0.4972,0.1251
17:53:44:874,4.4402,2.2582,11.3225,46.4226,-0.5078,0.4002,-0.575,0.1255
17:53:44:898,4.2055,1.5253,12.2111,45.3551,-0.7033,0.0049,-0.7258,0.1256
17:53:44:917,3.7624,0.4355,13.2338,46.3079,-0.8423,-0.3083,-0.8371,0.1267
17:53:44:938,3.6044,0.196,13.914,46.4592,-0.9004,-0.5624,-0.8243,0.1267
17:53:44:957,4.2199,0.1984,12.8314,45.0015,-0.8482,-0.5853,-0.705,0.1223
17:53:44:977,5.0007,0.5601,11.3153,45.1358,-0.6159,-0.1991,-0.7194,0.1218
17:53:44:999,3.6738,0.9696,9.2388,44.984,-0.046,0.4252,-1.0123,0.1207
17:53:45:018,2.6032,1.1613,7.5335,44.7234,0.4308,0.7592,-1.2899,0.1207
17:53:45:039,0.8452,0.9457,6.6257,45.0777,0.3924,0.3027,-1.5844,0.115
17:53:45:058,-0.599,1.0128,6.3264,46.3949,0.247,0.161,-1.6446,0.115
17:53:45:076,-0.805,1.4367,5.5983,45.5067,0.3141,0.5632,-1.4555,0.104
17:53:45:098,-0.599,1.966,5.4569,46.2664,0.3833,0.7065,-1.2877,0.1028
17:53:45:118,-0.8026,2.1792,5.5264,46.413,0.4467,0.5706,-1.2121,0.1018
17:53:45:140,-1.4349,2.045,5.4066,46.4161,0.4744,0.2553,-1.1114,0.1018
17:53:45:158,-0.9463,2.4354,5.5791,46.1549,0.3786,-0.1815,-1.0049,0.1078
17:53:45:178,-1.8756,3.0342,8.6137,45.0605,0.0558,-0.6673,-0.9287,0.1085
17:53:45:214,-0.8433,3.2258,10.7788,47.4522,0.0046,-0.5315,-0.689,0.1043
17:53:45:219,-0.326,3.542,11.3225,46.135,0.3967,-0.2055,-0.5015,0.1043
17:53:45:238,-0.5176,3.5635,11.1189,46.2111,0.6726,-0.3908,-0.4882,0.0952
17:53:45:256,-0.9846,3.6306,10.9489,47.6657,0.6848,-0.6204,-0.4663,0.0952
17:53:45:276,-1.2193,3.6162,11.2363,47.4344,0.4308,-0.6732,-0.3939,0.0892
17:53:45:298,-1.6385,3.3839,12.0075,47.6116,0.0302,-0.4851,-0.2714,0.0885
17:53:45:317,-1.5403,3.5731,13.6218,47.5144,-0.3155,-0.1501,0.0093,0.0776
17:53:45:338,-0.9439,3.8797,14.8457,47.0101,-0.3272,0.2878,0.354,0.0776
17:53:45:356,-0.4673,4.2533,14.7762,46.8659,0.051,0.7304,0.5724,0.0782
17:53:45:376,-0.6014,3.9707,13.011,48.1638,0.5954,1.0202,0.582,0.0782
17:53:45:397,-1.1834,2.9983,11.1596,48.3943,0.9469,0.7619,0.412,0.0884
17:53:45:417,-1.8253,2.3277,10.6734,48.9556,1.0082,0.0284,0.2592,0.0884
17:53:45:437,-1.3511,1.7888,10.3597,49.2195,0.9432,-0.4883,0.3103,0.097
17:53:45:456,-0.8864,1.4247,9.44,49.8335,0.7541,-0.4127,0.3774,0.097
17:53:45:476,-1.1163,1.36,8.6879,49.2525,0.3642,-0.1085,0.4179,0.1108
17:53:45:498,-1.1379,1.2259,9.1933,49.0891,-0.1626,-0.0206,0.5159,0.1123
17:53:45:517,-0.8816,0.8451,9.3633,49.8113,-0.4902,0.0827,0.6496,0.1168
17:53:45:537,-0.9463,0.8714,8.925,49.4265,-0.551,0.3576,0.7743,0.1168
17:53:45:556,-0.7331,0.7493,8.2328,47.6423,-0.4428,0.7294,0.9128,0.1082
17:53:45:576,-0.6828,1.1541,7.2437,49.3662,-0.1642,0.9467,1.0305,0.1072
17:53:45:597,-0.5176,1.5469,6.8197,49.9877,0.1442,0.6319,1.0715,0.0972
17:53:45:618,0.2249,1.5588,7.2485,48.9647,0.4105,0.1541,1.047,0.0972
17:53:45:637,0.7877,1.8055,7.4904,48.8805,0.7951,0.1861,0.9756,0.1089
17:53:45:656,0.4428,2.1241,6.3647,48.5606,1.2681,0.4769,0.8819,0.1089
17:53:45:676,0.3878,2.5264,4.8199,50.5974,1.5435,0.5014,0.843,0.1175
17:53:45:698,0.7782,3.2857,4.5348,51.4435,1.4391,0.136,0.7876,0.1185
17:53:45:717,1.5302,4.0569,5.1815,50.7399,1.1291,-0.1735,0.6997,0.1172
17:53:45:737,2.0284,4.6653,5.8569,51.3284,0.7578,-0.1639,0.5521,0.1172
17:53:45:757,2.6535,5.1203,6.9946,51.4091,0.3237,0.0087,0.3588,0.1069
17:53:45:776,3.1613,5.1275,9.1142,50.9662,-0.1621,0.0587,0.094,0.1058
17:53:45:798,3.1924,4.7036,11.0614,50.1487,-0.4854,0.0641,-0.1782,0.0932
17:53:45:818,3.0559,4.2725,12.0434,50.6161,-0.5552,0.1189,-0.3374,0.0932
17:53:45:837,2.5481,4.5048,12.7571,50.127,-0.4636,0.2233,-0.403,0.0958
17:53:45:857,1.8991,4.6341,12.2853,50.6033,-0.2372,0.3922,-0.395,0.0958
17:53:45:875,1.9829,4.8473,11.4279,49.4878,-0.0609,0.2979,-0.3374,0.0961
17:53:45:898,2.414,4.9718,10.9345,49.2074,-0.0859,-0.0078,-0.3332,0.0961
17:53:45:917,2.9337,4.0928,10.4435,49.0055,-0.2612,-0.2811,-0.4312,0.1051
17:53:45:936,3.4726,3.3767,11.0375,47.6005,-0.5946,-0.7104,-0.5516,0.1051
17:53:45:958,3.8702,2.7923,12.1823,46.9318,-0.9909,-0.9656,-0.6693,0.1101
17:53:45:976,3.0271,2.069,12.0434,47.5588,-1.1912,-0.7696,-0.8334,0.1106
17:53:45:999,1.559,1.59,10.1729,47.225,-1.1124,-0.3184,-0.8999,0.1079
17:53:46:017,0.644,1.3265,7.9311,44.8427,-0.9814,-0.0371,-0.8445,0.1079
17:53:46:037,0.0357,1.4726,6.7407,46.147,-0.992,-0.0462,-0.7822,0.101
17:53:46:058,-0.4745,1.7768,6.5515,44.4675,-1.041,-0.1804,-0.7332,0.101
17:53:46:078,-0.9367,1.8965,6.3527,43.3838,-1.0213,-0.2704,-0.6783,0.0934
17:53:46:098,-0.3691,2.3684,6.209,42.8289,-0.9409,-0.2625,-0.5734,0.0925
17:53:46:116,-0.6948,2.3564,6.427,43.7152,-0.6985,-0.0478,-0.575,0.0931
17:53:46:137,-0.8577,2.6797,6.7647,43.7952,-0.364,0.1035,-0.6251,0.0931
17:53:46:158,-0.5319,3.4294,7.1191,42.9889,-0.0795,-0.206,-0.6187,0.1021
17:53:46:178,-0.0936,3.5875,7.5502,41.8722,0.1186,-0.5826,-0.6054,0.1046
17:53:46:197,0.0501,3.6426,8.1682,42.307,0.2438,-0.5948,-0.6384,0.1048
17:53:46:217,-0.5152,3.9084,8.9298,43.4518,0.3557,-0.2625,-0.656,0.1048
17:53:46:237,-0.5272,3.8773,9.3394,44.0598,0.4382,-0.133,-0.6086,0.098
17:53:46:259,-0.6493,3.7288,9.4519,42.1013,0.3311,-0.263,-0.5889,0.098
17:53:46:276,-0.7044,3.2785,10.7094,41.6944,0.0083,-0.4532,-0.5537,0.0949
17:53:46:298,-0.987,2.6869,12.2853,41.8033,-0.3166,-0.5192,-0.4631,0.0945
17:53:46:318,-1.6481,2.4259,13.4781,41.0801,-0.4609,-0.3274,-0.2693,0.0913
17:53:46:337,-1.4325,1.99,13.6098,38.8453,-0.487,-0.0558,0.0141,0.0913
17:53:46:356,-0.587,1.681,13.5954,39.6053,-0.5355,0.0598,0.2602,0.09
17:53:46:376,-0.7451,1.0152,13.6242,39.9603,-0.5371,0.0151,0.3263,0.0899
17:53:46:399,-0.3882,0.7589,12.8769,40.3722,-0.3272,-0.0467,0.2895,0.1012
17:53:46:419,-0.7978,0.1577,11.1956,39.3267,-0.0774,-0.2481,0.0962,0.1012
17:53:46:437,-1.4972,-0.2039,10.1944,39.8531,-0.0795,-0.6593,0.0205,0.1068
17:53:46:456,-1.114,-0.5201,9.8711,39.5823,-0.2468,-0.9571,0.2959,0.1068
17:53:46:476,-0.1272,-0.6901,9.4471,38.1772,-0.3416,-0.7621,0.7002,0.113
17:53:46:498,0.8835,-0.4961,9.0544,38.8262,-0.3416,-0.4601,1.0028,0.1137
17:53:46:516,1.2811,-0.2806,8.4532,39.8142,-0.2377,-0.353,1.1061,0.118
17:53:46:537,1.0464,0.0787,7.8999,38.6059,-0.0753,-0.2625,1.0694,0.118
17:53:46:556,0.5003,0.4427,7.282,39.222,0.1074,-0.0819,1.0465,0.1142
17:53:46:576,0.4405,0.9241,6.7048,39.767,0.2667,0.1621,1.1162,0.1142
17:53:46:598,0.6536,1.0439,6.197,39.1856,0.4238,0.2771,1.1189,0.1116
17:53:46:619,0.3279,1.0175,5.9671,39.3821,0.5447,0.1536,1.1077,0.1116
17:53:46:637,0.7925,1.3313,6.427,39.752,0.5682,0.0566,1.113,0.1194
17:53:46:656,1.3697,1.6187,7.0377,39.07,0.5581,-0.0856,1.0859,0.1194
17:53:46:677,2.4092,1.6738,7.7682,39.0398,0.5293,-0.337,1.0528,0.132
17:53:46:698,3.9373,1.681,9.0017,39.9906,0.3567,-0.5293,0.974,0.1334
17:53:46:717,5.2186,1.8343,10.1944,38.8201,0.0515,-0.3317,0.844,0.1393
17:53:46:737,5.9108,1.5038,10.8986,38.0782,-0.1738,-0.0275,0.6075,0.1393
17:53:46:756,6.4497,1.4774,11.4758,40.8303,-0.3885,0.1461,0.3236,0.1431
17:53:46:777,6.0593,1.4558,12.0003,39.2732,-0.5984,0.2441,-0.0413,0.1431
17:53:46:797,4.378,1.4103,12.235,38.6899,-0.6831,0.4556,-0.3769,0.1416
17:53:46:817,3.2786,1.8486,12.2135,38.5004,-0.5968,0.6537,-0.4402,0.1416
17:53:46:837,3.5684,2.2917,11.8638,38.58,-0.4588,0.6532,-0.3545,0.1435
17:53:46:856,4.5145,1.863,11.3345,40.2751,-0.4599,0.3741,-0.3667,0.1435
17:53:46:881,5.8893,0.402,11.4039,37.3779,-0.7188,-0.3077,-0.5201,0.1504
17:53:46:898,6.4329,-0.6854,13.9212,37.3028,-1.269,-1.3752,-0.8174,0.1512
17:53:46:916,5.4629,-1.4973,14.8912,35.549,-1.5796,-1.7428,-0.9527,0.161
17:53:46:937,4.3396,-1.811,13.2194,35.5391,-1.4767,-1.0476,-0.673,0.161
17:53:46:956,4.4091,-1.6506,11.7392,35.1658,-1.2349,-0.2081,-0.3188,0.1589
17:53:46:979,3.9852,-0.9464,10.5465,33.7912,-0.9254,0.1552,-0.257,0.1589
17:53:46:998,3.2978,-0.4746,9.9765,33.3032,-0.4902,0.1988,-0.428,0.149
17:53:47:018,2.5649,-0.1752,9.234,35.0502,0.0595,-0.0499,-0.6714,0.149
17:53:47:038,1.8751,0.1314,7.4928,34.714,0.7264,-0.3818,-0.877,0.1338
17:53:47:057,1.4344,0.4763,5.6078,33.6548,1.3842,-0.4798,-1.0635,0.1338
17:53:47:080,0.8021,0.7924,4.1756,32.7711,1.7763,-0.5139,-1.2446,0.1304
17:53:47:100,0.3015,1.0655,3.8858,34.793,1.7624,-0.7488,-1.3538,0.13
17:53:47:116,0.0333,1.5445,4.1181,34.3498,1.5307,-1.0146,-1.3564,0.1521
17:53:47:137,0.0716,2.1121,4.6139,35.1011,1.3075,-0.98,-1.284,0.1521
17:53:47:155,0.292,2.4738,5.4426,34.9441,1.1142,-0.7232,-1.2243,0.1566
17:53:47:177,0.2129,3.0246,6.2928,34.0967,0.8676,-0.5054,-1.1828,0.1566
17:53:47:222,0.0046,3.415,7.4137,34.5465,0.5437,-0.4015,-1.0826,0.1494
17:53:47:222,-0.4218,3.6162,8.4724,35.1388,0.1932,-0.3008,-0.9101,0.1494
17:53:47:237,-0.6254,3.5923,9.3681,34.5049,-0.1142,0.0401,-0.6373,0.1569
17:53:47:256,-0.029,3.5923,10.0603,35.4045,-0.4359,0.5376,-0.2938,0.1569
17:53:47:277,0.7087,3.324,11.4925,35.3579,-0.9451,0.715,0.0242,0.1775
17:53:47:298,1.2308,3.1851,14.3523,32.6391,-1.4837,0.4135,0.3028,0.1775
17:53:47:317,2.9194,2.6175,16.7138,33.4656,-1.5881,0.1999,0.6006,0.2054
17:53:47:337,4.0666,1.8678,17.5018,32.2524,-1.2749,0.1179,0.6762,0.2054
17:53:47:356,2.608,1.0846,16.5102,31.7188,-0.7491,0.2244,0.4733,0.2293
17:53:47:376,0.7566,0.3134,14.7594,32.5263,-0.2852,0.3059,0.387,0.2293
17:53:47:397,0.3447,-0.3836,13.3032,31.7188,-0.0614,0.0625,0.5777,0.2421
17:53:47:418,0.9841,-0.7476,12.2542,32.2737,-0.0444,-0.3189,0.8787,0.2421
17:53:47:436,1.9038,-0.8937,10.3788,32.2737,-0.136,-0.5277,1.1759,0.2442
17:53:47:457,3.4343,-0.7572,9.5238,32.6451,-0.4018,-0.4595,1.4289,0.2442
17:53:47:477,4.8426,-1.2266,9.5573,31.2958,-0.6415,0.0396,1.4939,0.2292
17:53:47:498,3.7002,-0.8291,10.1896,32.2844,-0.5291,0.8359,1.275,0.2275
17:53:47:515,1.8847,-0.7117,9.4328,32.2844,0.0685,1.2621,1.08,0.2098
17:53:47:537,1.0368,-0.5009,8.046,34.2716,0.8185,1.0469,1.0539,0.2098
17:53:47:555,0.953,-0.2279,6.2665,34.2716,1.4855,0.7235,1.0891,0.1986
17:53:47:576,0.9746,0.2032,4.6091,33.5091,1.8834,0.4902,1.1317,0.1986
17:53:47:598,1.4081,0.7661,3.9528,35.6696,1.9483,0.3272,1.1674,0.1938
17:53:47:617,1.8703,1.3433,3.9217,35.4688,1.7513,0.2031,1.1423,0.1938
17:53:47:638,2.2008,1.6475,4.5277,37.293,1.4386,0.1807,1.0662,0.2002
17:53:47:657,2.711,1.5948,5.2126,37.1767,1.1254,0.12,0.9799,0.2002
17:53:47:676,4.0235,1.5588,6.2473,36.8381,0.8031,-0.084,0.8808,0.1994
17:53:47:698,5.3312,1.5996,7.579,37.5427,0.4068,-0.4116,0.6118,0.1993
17:53:47:718,5.4198,1.3313,8.8292,37.2546,0.0073,-0.4366,0.2213,0.1774
17:53:47:738,4.5935,1.0607,9.543,37.3551,-0.2362,-0.0595,-0.0418,0.1774
17:53:47:757,4.3564,1.0726,9.7058,37.0027,-0.3757,0.2931,-0.1132,0.1674
17:53:47:776,4.4546,1.2714,9.986,37.98,-0.5781,0.4247,-0.176,0.1674
17:53:47:797,4.1025,1.4535,10.2112,36.6063,-0.8295,0.5073,-0.2858,0.1707
17:53:47:817,3.8391,1.4271,10.374,37.2861,-1.0836,0.5786,-0.3721,0.1707
17:53:47:837,4.0091,1.1828,11.4518,36.4529,-1.4091,0.3965,-0.4509,0.176
17:53:47:856,4.4953,0.3062,13.1643,35.9662,-1.6802,0.137,-0.4802,0.176
17:53:47:885,4.4307,-0.8051,15.5929,34.9546,-1.7548,-0.0563,-0.4679,0.1806
17:53:47:897,3.602,-1.2626,17.691,33.5073,-1.4725,-0.1762,-0.3513,0.1811
17:53:47:916,3.8103,-1.0207,17.5952,35.7781,-0.6788,-0.0307,-0.0296,0.1906
17:53:47:937,4.2702,-0.101,14.5439,37.1422,0.4116,0.1578,0.2235,0.1906
17:53:47:956,4.6271,0.7541,10.3812,36.1992,1.233,-0.0046,0.2458,0.1869
17:53:47:976,3.9971,1.5133,7.4185,38.7546,1.4402,-0.4164,0.0003,0.1869
17:53:47:997,2.7589,1.8319,5.7467,38.9392,1.2559,-0.6209,-0.2858,0.1747
17:53:48:017,2.0955,1.8774,5.1959,38.7791,1.0007,-0.5304,-0.4253,0.1747
17:53:48:036,1.9709,1.9061,5.2965,39.8254,0.8367,-0.3967,-0.5132,0.1593
17:53:48:055,1.8895,1.9373,5.2174,39.9086,0.8313,-0.3551,-0.6203,0.1593
17:53:48:077,1.7649,2.1145,4.578,40.5306,0.9075,-0.3599,-0.7321,0.1509
17:53:48:102,1.8368,2.354,4.4606,40.2899,0.8729,-0.45,-0.8674,0.15
17:53:48:118,1.6739,2.5648,5.2677,41.108,0.7381,-0.5805,-1.0571,0.1465
17:53:48:139,1.068,2.7995,5.8928,41.5824,0.6508,-0.5783,-1.2004,0.1465
17:53:48:155,0.553,3.142,6.0821,41.9556,0.5559,-0.4484,-1.211,0.1491
17:53:48:176,0.4285,3.542,6.5587,42.1056,0.2981,-0.4057,-1.1311,0.1491
17:53:48:196,0.7374,3.8437,8.3167,42.0822,-0.1126,-0.4707,-1.0395,0.1658
17:53:48:218,0.6033,3.8797,10.5537,41.9116,-0.4615,-0.4292,-0.9857,0.1658
17:53:48:237,-0.2757,3.7192,11.859,43.5578,-0.5669,-0.0883,-0.8211,0.1792
17:53:48:255,-0.8194,3.6833,12.0578,42.4299,-0.5462,0.2606,-0.4424,0.1792
17:53:48:275,-0.8026,3.8773,12.8817,45.3528,-0.6447,0.2537,-0.0114,0.189
17:53:48:299,0.0644,4.2437,15.2624,41.1217,-0.7832,0.0023,0.4285,0.1901
17:53:48:317,2.0499,4.2892,17.1473,42.3226,-0.5781,-0.0707,0.8009,0.2033
17:53:48:337,2.8475,3.894,16.2516,42.5874,0.0025,0.2116,0.8627,0.2033
17:53:48:356,1.3721,3.1611,13.8086,44.0067,0.5256,0.5488,0.681,0.2149
17:53:48:376,-0.4936,2.6246,11.6818,44.7712,0.7253,0.6442,0.615,0.2149
17:53:48:397,-0.7762,2.0858,10.4363,44.7165,0.6555,0.6149,0.762,0.222
17:53:48:417,-0.0218,1.6187,10.889,45.0305,0.3706,0.397,0.9463,0.222
17:53:48:438,1.2093,0.984,12.0841,45.5275,0.1554,0.0779,1.0795,0.222
17:53:48:457,2.3469,0.3637,12.5416,47.1999,0.2417,-0.0925,1.1397,0.222
17:53:48:477,2.5433,-0.0075,11.2602,47.4476,0.574,0.0396,1.1322,0.2138
17:53:48:498,2.014,-0.0842,9.0735,48.4192,0.8958,0.3874,1.1466,0.2129
17:53:48:517,1.42,0.0212,7.1311,49.3921,1.062,0.7347,1.2281,0.2094
17:53:48:537,1.238,0.208,5.7587,49.5739,1.127,0.9883,1.3458,0.2094
17:53:48:556,1.2404,0.4619,4.8127,49.2418,1.1589,1.122,1.4326,0.2049
17:53:48:576,1.2308,0.7948,4.0726,50.0457,1.1834,1.106,1.4779,0.2049
17:53:48:597,1.5398,1.2211,3.8546,51.5794,1.169,0.9025,1.4662,0.1984
17:53:48:616,1.7889,1.7049,4.1971,53.3225,1.1057,0.5254,1.3511,0.1984
17:53:48:640,1.911,2.1576,4.53,52.9898,1.0455,0.104,1.1855,0.1969
17:53:48:656,2.7541,2.8019,4.4869,54.0064,0.956,-0.2305,1.0704,0.1969
17:53:48:677,4.16,3.4126,4.8222,55.0114,0.6273,-0.5245,0.8733,0.2007
17:53:48:700,5.4126,3.5539,6.2138,54.4147,0.06,-0.6668,0.5484,0.2011
17:53:48:717,5.7839,3.0773,8.1059,53.5385,-0.4998,-0.4782,0.1915,0.1973
17:53:48:739,5.6641,3.015,9.8711,55.4762,-0.8631,0.0241,-0.0168,0.1973
17:53:48:756,5.6066,3.0965,10.4818,53.6751,-1.0165,0.6239,-0.0983,0.1849
17:53:48:776,5.5372,3.2689,10.3094,54.9283,-1.1257,1.0192,-0.2123,0.1849
17:53:48:797,5.118,3.6617,10.3381,54.145,-1.3122,1.1342,-0.38,0.1736
17:53:48:817,4.7061,4.0713,10.9537,53.0798,-1.4879,1.0799,-0.5521,0.1736
17:53:48:837,4.2486,4.2844,12.0051,51.6199,-1.5742,0.8402,-0.6917,0.1743
17:53:48:856,4.1145,3.6521,12.9511,52.7794,-1.5806,0.4955,-0.7748,0.1743
17:53:48:876,4.0666,2.2678,13.6457,51.7893,-1.571,0.2169,-0.835,0.1853
17:53:48:898,4.4067,0.6343,15.6887,55.599,-1.6696,-0.1208,-0.8893,0.1865
17:53:48:916,3.7912,-0.5776,18.3784,52.1654,-1.6046,-0.3248,-0.9431,0.1981
17:53:48:937,3.0391,-0.5872,17.9233,50.9871,-0.8897,0.0955,-0.7705,0.1981
17:53:48:956,3.1014,0.1912,14.0098,52.0483,0.166,0.528,-0.5404,0.1895
17:53:48:976,3.0032,0.9074,9.4232,52.3809,0.9176,0.4162,-0.5606,0.1895
17:53:48:997,2.5385,1.4223,5.6198,52.4575,1.1717,0.0364,-0.7742,0.1649
17:53:49:017,1.8631,1.693,3.4475,51.4673,0.9416,-0.2907,-1.0304,0.1649
17:53:49:039,1.3961,1.5061,3.366,52.7885,0.4095,-0.4521,-1.2664,0.1408
17:53:49:057,0.783,1.0583,4.6738,53.1086,-0.0625,-0.4297,-1.4438,0.1408
17:53:49:077,0.359,0.7661,5.7396,52.6499,-0.1973,-0.2555,-1.4901,0.1291
17:53:49:099,0.0812,0.802,6.1683,52.7561,-0.0673,-0.1511,-1.4497,0.1278
17:53:49:119,0.0165,1.0175,6.3,52.6391,0.1389,-0.2625,-1.3921,0.1257
17:53:49:138,0.1339,1.269,6.288,52.3296,0.2949,-0.5304,-1.3474,0.1257
17:53:49:157,0.4452,1.6283,6.1683,54.0574,0.3487,-0.6913,-1.3319,0.1179
17:53:49:176,0.256,1.9468,6.3264,53.0334,0.2267,-0.6609,-1.3799,0.1179
17:53:49:197,-0.5104,2.1576,6.9179,52.189,-0.0252,-0.5123,-1.4102,0.1173
17:53:49:242,-1.5067,2.469,8.4173,53.068,-0.3427,-0.4494,-1.3309,0.1173
17:53:49:243,-2.3426,2.8522,9.5813,53.4062,-0.5307,-0.3264,-1.0896,0.1263
17:53:49:256,-2.4193,3.2282,9.7202,52.3169,-0.5904,-0.0973,-0.713,0.1263
17:53:49:277,-1.878,3.3935,10.1537,54.402,-0.7736,-0.0936,-0.3614,0.1301
17:53:49:298,-1.2241,3.2043,11.7776,54.0084,-1.0629,-0.3472,-0.1302,0.1305
17:53:49:318,-0.7092,2.9288,14.1894,53.1612,-1.2472,-0.5592,0.0594,0.1329
17:53:49:336,-0.2493,2.7372,16.3378,52.0245,-1.1017,-0.3796,0.3556,0.1329
17:53:49:356,-0.2613,2.9097,16.6827,50.1763,-0.5115,0.2074,0.7066,0.1445
17:53:49:377,-0.3379,3.0773,14.278,52.203,0.2752,0.7411,0.9586,0.1445
17:53:49:397,-0.714,2.8953,11.2315,52.0523,0.7211,0.7699,0.9985,0.1542
17:53:49:418,-0.5607,2.3851,9.5477,52.9081,0.6108,0.2074,0.9436,0.1542
17:53:49:437,0.9219,1.6379,11.0734,50.5975,0.0898,-0.6881,0.8653,0.1567
17:53:49:458,2.1889,0.7158,13.3248,51.5519,-0.2452,-1.0961,0.7364,0.1567
17:53:49:477,2.2823,0.1457,12.5464,52.8857,-0.0444,-0.6657,0.6533,0.1531
17:53:49:498,1.9829,-0.1536,9.3202,52.0439,0.1964,-0.0723,0.6448,0.1528
17:53:49:519,2.0356,-0.1297,6.8389,51.2013,-0.0167,0.2494,0.664,0.1523
17:53:49:537,1.7386,-0.3069,7.9981,50.369,-0.601,0.3911,0.5623,0.1523
17:53:49:556,0.2441,-0.6662,10.1824,50.5659,-0.8301,0.6367,0.4914,0.148
17:53:49:578,-0.5176,-0.7788,9.8519,49.5739,-0.3528,1.0996,0.7657,0.148
17:53:49:597,0.1938,-0.5632,7.6556,49.994,0.2789,1.2402,1.1764,0.138
17:53:49:617,1.5901,-0.0004,5.548,51.1079,0.5943,0.9281,1.4135,0.138
17:53:49:636,3.1756,0.7948,5.2462,49.3768,0.5479,0.3858,1.3724,0.1453
17:53:49:661,4.1313,0.8547,6.6736,49.5127,0.3471,-0.1447,1.0582,0.1595
17:53:49:677,4.2079,0.5218,7.4353,50.5232,0.3418,-0.2108,0.7513,0.161
17:53:49:698,4.354,0.2296,7.4233,51.0204,0.3855,-0.0494,0.5953,0.161
17:53:49:720,4.9073,-0.0291,7.6173,49.9282,0.2555,-0.0323,0.4674,0.1601
17:53:49:737,5.6354,-0.1512,8.2209,50.3532,0.0057,-0.1085,0.281,0.1601
17:53:49:756,5.6521,-0.1584,9.507,50.1885,-0.2873,-0.1682,-0.0375,0.1462
17:53:49:777,4.4977,-0.4458,10.3261,48.6729,-0.4402,-0.0473,-0.3609,0.1462
17:53:49:797,2.4284,-0.6806,9.6914,48.6832,-0.4119,0.3453,-0.4642,0.124
17:53:49:816,2.2272,0.2679,9.0496,48.8643,-0.4471,0.389,-0.2714,0.124
17:53:49:837,2.7852,0.8044,9.2531,48.5884,-0.7411,0.1972,-0.2559,0.1148
17:53:49:859,3.3409,1.0583,10.8291,48.0503,-1.2051,0.2159,-0.4115,0.1148
17:53:49:876,3.4223,0.4332,11.8782,46.3808,-1.5231,0.5621,-0.6501,0.1197
17:53:49:898,3.8199,-1.0901,12.8985,45.8597,-1.725,0.691,-0.8477,0.1202
17:53:49:917,3.3648,-1.9763,16.1725,45.9259,-1.8512,0.4375,-0.9585,0.1228
17:53:49:937,2.6799,-2.52,18.2275,45.3522,-1.4187,0.4657,-0.9527,0.1228
17:53:49:959,2.8403,-1.9236,16.0791,44.0634,-0.2852,0.5227,-0.7449,0.1249
17:53:49:976,2.8547,-1.071,12.738,45.8117,0.6987,0.0742,-0.771,0.1249
17:53:49:998,1.9086,-0.4961,10.0818,45.0699,1.1893,-0.3967,-0.9841,0.1199
17:53:50:017,0.6177,-0.0818,8.47,46.9662,1.299,-0.4057,-1.0912,0.1199
17:53:50:037,-0.4314,0.2439,8.1873,45.5175,1.2298,-0.2497,-0.9916,0.121
17:53:50:060,-0.0649,0.5313,7.6293,45.9747,1.307,-0.4809,-0.7588,0.121
17:53:50:077,0.9123,0.9026,6.6401,47.7996,1.5036,-1.1723,-0.714,0.1084
17:53:50:099,3.7049,2.7779,7.2389,47.4081,1.5957,-1.617,-0.8834,0.107
17:53:50:117,4.5121,0.9146,6.0533,48.4524,1.5494,-0.9581,-1.3825,0.0874
17:53:50:137,-0.1966,2.2319,3.9313,47.9622,1.7161,-0.9645,-2.0036,0.0874
17:53:50:159,-1.8684,2.1504,1.9553,48.0845,1.4056,-0.8244,-1.8172,0.0741
17:53:50:176,-1.3894,3.2354,3.3349,48.3838,0.5421,-0.6588,-1.3586,0.0741
17:53:50:197,-0.3667,3.3168,5.7563,46.8114,-0.2069,-0.4782,-1.097,0.0838
17:53:50:217,0.1554,3.3168,8.2376,46.4571,-0.6074,-0.239,-0.9138,0.0838
17:53:50:239,0.1602,3.4965,9.5453,49.6741,-0.657,0.0156,-0.7039,0.0986
17:53:50:261,0.1291,3.4198,10.3812,46.9755,-0.6447,0.136,-0.4935,0.0986
17:53:50:276,0.2704,3.3695,11.2842,48.0405,-0.6772,0.2372,-0.314,0.121
17:53:50:298,0.2872,3.118,12.8146,46.9575,-0.7465,0.1759,-0.2059,0.1235
17:53:50:317,0.4812,2.9336,15.0588,47.3385,-0.7608,-0.0419,-0.0679,0.1578
17:53:50:339,1.4081,2.6558,16.2396,47.6977,-0.5605,-0.0414,0.1595,0.1578
17:53:50:358,1.7817,2.4738,15.8827,44.4911,-0.2468,0.1978,0.2309,0.1841
17:53:50:376,0.7997,2.2558,15.1642,47.0182,0.0036,0.3027,0.0844,0.1841
17:53:50:396,-0.5008,1.8798,14.5127,46.3917,0.2166,0.152,-0.0407,0.1943
17:53:50:417,-0.884,1.3385,13.6409,44.4272,0.4126,-0.125,0.0509,0.1943
17:53:50:439,-0.3451,0.9505,12.7907,45.3153,0.5234,-0.3573,0.2794,0.1902
17:53:50:459,0.3614,0.6439,11.3896,44.1655,0.5432,-0.2369,0.5159,0.1902
17:53:50:476,1.1949,0.62,10.307,45.955,0.4579,0.1072,0.7103,0.1819
17:53:50:498,1.9853,0.4619,10.3453,45.5038,0.3482,0.2138,0.745,0.181
17:53:50:518,1.8679,0.1841,10.2998,46.2633,0.3865,0.3709,0.6842,0.1732
17:53:50:539,1.4153,0.1889,8.8843,46.0515,0.6561,0.7486,0.7023,0.1732
17:53:50:558,1.2668,0.5194,6.8078,44.6594,0.9267,1.0852,0.77,0.1684
17:53:50:576,1.056,1.0535,5.3803,46.5495,1.0268,1.2157,0.7817,0.1684
17:53:50:597,1.0512,1.19,4.8606,44.8785,0.9725,1.1161,0.7577,0.1653
17:53:50:617,1.3218,1.3433,5.2653,46.3976,0.875,0.8812,0.745,0.1653
17:53:50:637,1.6955,1.4127,5.7587,46.8444,0.843,0.6175,0.7183,0.1737
17:53:50:656,1.9829,1.5708,5.7563,46.7375,0.8846,0.4433,0.6677,0.1737
17:53:50:677,2.3781,1.8534,5.6198,46.5017,0.8723,0.3102,0.5836,0.1789
17:53:50:698,2.6751,2.1983,5.6054,47.9011,0.7253,0.2212,0.4467,0.1794
17:53:50:717,3.2283,2.6199,5.5001,47.6203,0.4435,0.2244,0.3114,0.1778
17:53:50:742,4.0738,2.845,6.118,46.1063,-0.0375,0.1701,0.1281,0.1778
17:53:50:763,5.1923,2.3396,9.4591,46.5454,-1.0336,0.2383,-0.5265,0.1682
17:53:50:782,3.4726,2.3133,10.0794,47.6773,-1.2275,0.5445,-0.868,0.1682
17:53:50:801,1.6308,2.5624,9.6244,45.3071,-1.2935,0.7251,-0.9798,0.1556
17:53:50:820,1.0512,2.8689,9.5238,45.3071,-1.4517,0.5722,-0.8845,0.1556
17:53:50:838,2.2368,3.0246,10.568,41.3715,-1.7037,0.2974,-0.7385,0.1494
17:53:50:859,3.305,2.3229,12.6374,41.3715,-1.9354,0.0822,-0.7817,0.1498
17:53:50:881,3.3241,0.9984,15.1834,40.9682,-2.0068,-0.1943,-0.9601,0.1498
17:53:50:910,2.7397,-0.2542,18.2203,40.9682,-1.8384,-0.6114,-1.0928,0.1498
17:53:50:919,2.3781,-0.7644,19.3149,39.4105,-1.195,-0.7941,-0.9729,0.1505
17:53:50:946,3.7026,-0.6039,16.527,41.3792,-0.1957,-0.6886,-0.664,0.1459
17:53:50:960,4.5911,-0.3668,13.1404,37.171,0.4318,-0.8495,-0.7151,0.1459
17:53:50:981,3.9205,-0.2614,11.2315,38.1645,0.5607,-1.0993,-1.0837,0.1459
17:53:51:000,2.6942,-0.2471,9.8136,35.1628,0.5352,-0.9304,-1.3538,0.1295
17:53:51:019,1.5158,-0.1081,8.5418,36.1955,0.5469,-0.4564,-1.4236,0.1295
17:53:51:038,0.7758,0.1362,7.0377,35.6627,0.6481,0.0033,-1.3692,0.1061
17:53:51:059,0.4141,0.4619,5.5695,36.5938,0.7727,0.226,-1.2584,0.0899
17:53:51:081,0.3902,0.8619,4.4821,36.3438,0.8537,0.1504,-1.1503,0.0881
17:53:51:100,0.4836,1.2163,3.79,36.0472,0.8718,-0.0702,-1.1002,0.0881
17:53:51:120,0.6584,1.5277,3.4235,34.3936,0.8244,-0.287,-1.1167,0.0797
17:53:51:139,0.4476,1.7552,3.3445,37.9602,0.7008,-0.378,-1.2105,0.0797
17:53:51:159,-0.096,1.8941,3.7708,35.265,0.4894,-0.3706,-1.3176,0.0873
17:53:51:182,-1.0972,2.0402,4.7001,34.0064,0.2188,-0.361,-1.3564,0.0873
17:53:51:201,-1.7726,2.3157,5.5216,35.6632,-0.0407,-0.3338,-1.2211,0.1088
17:53:51:219,-1.5666,2.7013,7.0952,33.5246,-0.373,-0.3972,-0.9687,0.1088
17:53:51:254,-0.7667,3.0055,9.4088,33.4005,-0.6761,-0.5059,-0.7364,0.1256
17:53:51:259,0.0189,3.0079,11.1524,32.8656,-0.8402,-0.4707,-0.5628,0.1291
17:53:51:281,0.5171,3.118,12.7763,31.1017,-0.9617,-0.3408,-0.437,0.1295
17:53:51:299,0.5674,3.3312,14.6301,31.8334,-1.0458,-0.2113,-0.346,0.1295
17:53:51:320,0.7135,3.518,16.7282,30.9805,-1.0016,-0.0766,-0.1723,0.1362
17:53:51:338,1.3362,3.7575,17.873,28.6168,-0.6937,0.2249,0.1068,0.1362
17:53:51:362,1.5087,3.8677,16.8743,30.9226,-0.1531,0.6335,0.249,0.1481
17:53:51:381,0.4476,3.5468,14.2421,30.3538,0.3327,0.8716,0.1462,0.1481
17:53:51:401,-0.8816,2.8594,11.9835,31.0662,0.443,0.7038,0.0029,0.1561
17:53:51:424,-0.5152,2.1121,12.2949,30.4232,0.1612,0.1291,-0.028,0.1561
17:53:51:438,0.3494,1.1253,14.4098,29.3445,-0.12,-0.3445,-0.0999,0.1584
17:53:51:460,0.8524,0.3757,14.9534,28.5565,-0.0146,-0.2657,-0.127,0.1584
17:53:51:481,1.1853,0.2391,12.9056,30.716,0.3184,0.1088,-0.0727,0.1571
17:53:51:499,1.3386,0.3014,10.2255,30.2827,0.4611,0.4146,-0.069,0.1571
17:53:51:520,1.0512,0.3709,9.0879,31.1374,0.3349,0.658,-0.1345,0.1498
17:53:51:541,0.3638,0.1769,8.9777,30.9043,0.2859,0.9121,-0.1638,0.1498
17:53:51:560,-0.3691,0.1122,8.0125,31.8216,0.5384,1.1667,-0.028,0.1389
17:53:51:581,-0.3379,0.2966,6.1827,34.1185,0.9123,1.2764,0.2719,0.1389
17:53:51:601,0.177,0.7685,4.5085,30.9515,1.1488,1.13,0.5377,0.1279
17:53:51:619,0.8811,1.3648,3.9337,31.3785,1.1712,0.7342,0.6406,0.1279
17:53:51:638,1.6164,1.772,4.3313,32.4331,1.0758,0.2393,0.6001,0.1246
17:53:51:659,2.3445,2.1792,4.9324,32.5376,0.9975,-0.0638,0.5042,0.1246
17:53:51:681,2.9505,2.4785,5.4258,31.7229,0.9208,-0.1522,0.355,0.1287
17:53:51:700,3.3313,2.6893,5.8497,33.0986,0.7818,-0.1154,0.1489,0.1287
17:53:51:719,3.5612,2.9025,6.5036,33.0373,0.5389,-0.1357,-0.0754,0.1289
17:53:51:742,3.6499,2.9216,7.5694,33.3457,0.2262,-0.2699,-0.3193,0.1289
17:53:51:759,4.0235,2.7205,9.028,30.611,-0.0838,-0.4308,-0.5478,0.1196
17:53:51:782,4.184,2.5264,10.1058,32.3977,-0.2638,-0.5086,-0.7604,0.1196
17:53:51:800,3.9229,2.378,10.0363,31.1343,-0.3027,-0.4851,-0.9431,0.1084
17:53:51:819,3.5205,2.3851,9.1118,31.2266,-0.332,-0.4095,-1.0874,0.1084
17:53:51:838,2.9385,2.5001,8.719,29.6871,-0.4982,-0.4473,-1.2648,0.1074
17:53:51:859,2.1745,2.4857,8.9729,30.9766,-0.7837,-0.5719,-1.4651,0.1074
17:53:51:881,2.0356,1.7768,9.3945,29.5043,-1.1619,-0.6428,-1.5951,0.1187
17:53:51:901,2.8451,0.3493,10.58,28.1692,-1.6445,-0.6769,-1.6883,0.1187
17:53:51:920,3.7984,-1.2434,14.4145,27.7142,-2.2118,-0.9858,-1.8699,0.1308
17:53:51:938,3.1397,-2.2829,19.1089,25.5974,-2.3391,-1.2261,-2.0745,0.1308
17:53:51:962,1.3242,-2.0338,18.7832,24.7987,-1.5274,-0.7088,-1.9307,0.1376
17:53:51:981,0.8356,-0.9895,14.278,24.3309,-0.4364,-0.0755,-1.4891,0.1376
17:53:51:999,0.9362,0.1002,9.8375,24.7149,0.1383,-0.1005,-1.2765,0.1415
17:53:52:018,0.6392,0.7253,7.1646,22.6997,0.1586,-0.5102,-1.3271,0.1415
17:53:52:037,0.2369,0.7565,6.7096,25.622,-0.1301,-0.9086,-1.4545,0.1424
17:53:52:060,-0.029,0.62,7.1263,24.8342,-0.3368,-0.9219,-1.4939,0.1395
17:53:52:081,-0.0194,0.6918,7.0233,23.551,-0.3059,-0.6321,-1.4385,0.1395
17:53:52:099,-0.0913,0.996,6.5683,22.192,-0.1674,-0.4004,-1.4033,0.1395
17:53:52:118,-0.2996,1.4415,6.3527,20.2934,-0.0385,-0.4084,-1.4113,0.129
17:53:52:138,-0.199,1.6546,6.6976,22.3445,0.0494,-0.6135,-1.431,0.129
17:53:52:159,0.2177,1.875,7.6892,22.4767,0.1298,-0.8942,-1.463,0.1133
17:53:52:180,0.6033,1.7888,8.664,22.2018,0.2475,-1.1281,-1.5631,0.1133
17:53:52:198,-0.0697,1.6115,9.4807,20.2441,0.313,-1.1653,-1.7559,0.1042
17:53:52:219,-1.2122,1.657,10.2088,22.9728,0.2784,-0.9576,-1.7916,0.1042
17:53:52:238,-1.7439,1.9397,11.4782,21.5923,0.1761,-0.6827,-1.61,0.1097
17:53:52:258,-2.0816,2.2726,13.2769,19.3277,0.1058,-0.451,-1.3314,0.1097
17:53:52:281,-2.333,2.536,13.6769,21.39,0.2417,-0.0909,-0.9271,0.1179
17:53:52:300,-2.0648,2.9576,12.5823,22.6419,0.4031,0.3245,-0.4562,0.1179
17:53:52:318,-1.8516,3.803,12.0913,22.5754,0.2859,0.5637,-0.0908,0.1207
17:53:52:337,-0.6278,4.1743,12.8362,21.6927,-0.0316,0.5563,0.2299,0.1207
17:53:52:357,1.0847,3.724,13.526,22.6891,-0.2862,0.4076,0.3481,0.1269
17:53:52:381,1.0368,2.4833,14.0361,21.9199,-0.4652,0.258,0.1361,0.1269
17:53:52:400,-0.5655,1.269,14.6205,22.9676,-0.5344,0.2814,-0.0674,0.1421
17:53:52:420,-1.9906,0.1601,14.8313,23.8333,-0.4141,0.4007,-0.004,0.1421
17:53:52:437,-2.1175,-0.5512,14.69,24.4987,-0.1499,0.2974,0.3257,0.1592
17:53:52:459,-1.1762,-0.7596,13.6793,24.5374,0.2315,0.0124,0.7716,0.1681
17:53:52:480,0.5482,-0.489,11.4949,27.2548,0.6001,-0.2486,1.1588,0.1681
17:53:52:500,1.6907,0.0164,8.652,25.9316,0.7786,-0.2673,1.3192,0.1681
17:53:52:518,1.9997,0.4116,6.8413,25.8191,0.6497,-0.0813,1.2537,0.1722
17:53:52:538,1.7386,0.4499,6.5443,24.4523,0.3716,0.2095,1.0896,0.1722
17:53:52:557,0.9434,0.2631,6.5539,25.8492,0.2193,0.5834,0.9681,0.1683
17:53:52:579,0.2632,0.1936,6.1707,25.5539,0.256,0.9046,0.9836,0.1683
17:53:52:599,0.0093,0.2703,5.5935,27.3942,0.3786,1.0058,1.0912,0.1586
17:53:52:619,0.3758,0.4475,5.215,28.6357,0.5186,0.9046,1.2217,0.1586
17:53:52:637,1.0943,0.7397,5.2318,27.466,0.6247,0.6644,1.2712,0.1471
17:53:52:658,1.8128,1.1038,5.8042,29.3223,0.7014,0.3837,1.1818,0.1471
17:53:52:680,2.0428,1.3553,6.2521,27.7542,0.7807,0.2063,0.9937,0.1462
17:53:52:701,2.3948,1.657,6.6281,28.5071,0.8153,0.0694,0.8195,0.1462
17:53:52:718,3.2379,1.6403,7.2077,28.8047,0.7061,-0.1634,0.6187,0.1606
17:53:52:738,4.3852,1.3984,8.2448,30.1849,0.4281,-0.3706,0.3455,0.1606
17:53:52:757,5.0414,1.1253,9.9262,30.4169,0.002,-0.4878,-0.0061,0.1683
17:53:52:778,5.0558,0.6463,11.0998,28.6558,-0.356,-0.2981,-0.3049,0.1683
17:53:52:799,4.9504,0.6128,11.3848,30.6199,-0.576,0.1584,-0.4243,0.1635
17:53:52:819,4.5336,0.9529,11.392,30.142,-0.7369,0.5488,-0.4578,0.1635
17:53:52:838,4.2175,1.6091,11.0087,30.8731,-0.8162,0.8269,-0.4498,0.1594
17:53:52:857,3.8079,2.3444,10.7309,30.735,-0.927,0.8322,-0.5265,0.1594
17:53:52:878,3.0822,2.4019,11.3728,31.5293,-1.1428,0.4987,-0.7487,0.1639
17:53:52:900,1.8655,1.6642,12.7021,32.7622,-1.3532,0.2462,-0.9239,0.1639
17:53:52:920,0.6297,0.9002,14.496,32.3761,-1.3574,0.2638,-0.835,0.1749
17:53:52:944,0.6249,0.9265,15.8013,33.2371,-0.9515,0.1046,-0.4701,0.1873
17:53:52:957,2.7613,1.4822,14.5056,32.7211,-0.1994,-0.3397,-0.0599,0.1873
17:53:52:979,4.5839,2.1193,11.7057,33.612,0.3759,-0.8356,-0.0754,0.1873
17:53:52:997,4.4929,2.3468,9.1909,34.1103,0.4899,-1.0039,-0.5441,0.1897
17:53:53:016,3.5229,1.8151,8.5131,33.236,0.2326,-0.9086,-1.1418,0.1897
17:53:53:036,1.9374,1.1349,8.6113,33.038,0.0142,-0.4894,-1.5929,0.175
17:53:53:056,0.3135,0.6152,8.434,33.2426,0.0371,0.0135,-1.8039,0.175
17:53:53:077,-0.9535,0.402,7.4664,31.3701,0.2496,0.324,-1.7986,0.1508
17:53:53:096,-1.4684,0.4763,6.1467,32.1155,0.4904,0.3565,-1.651,0.1508
17:53:53:116,-1.5858,0.7445,5.1408,33.4372,0.614,0.145,-1.4917,0.1265
17:53:53:137,-1.5475,0.9289,4.7696,32.8995,0.6177,-0.1336,-1.3879,0.1265
17:53:53:157,-1.751,0.9936,5.2366,33.5665,0.5325,-0.3376,-1.3495,0.106
17:53:53:177,-2.3977,1.2379,5.936,33.7737,0.4686,-0.3802,-1.2632,0.1139
17:53:53:197,-2.5917,1.6211,6.5132,34.5925,0.4537,-0.4521,-1.023,0.1147
17:53:53:218,-1.5762,2.0738,6.9132,32.8437,0.435,-0.7925,-0.6709,0.1147
17:53:53:237,-1.1547,2.4306,7.6005,32.7589,0.296,-1.2314,-0.5335,0.1317
17:53:53:266,-1.0397,2.6725,10.0699,33.8138,-0.0401,-1.6107,-0.5111,0.1317
17:53:53:279,-0.6373,2.9647,12.5584,31.1046,-0.2202,-1.5355,-0.3284,0.1342
17:53:53:298,-0.3715,3.3551,13.6433,34.4816,-0.1626,-0.9043,-0.0205,0.1342
17:53:53:318,-0.0865,3.7647,14.017,33.9826,-0.1616,-0.206,0.3018,0.1351
17:53:53:338,0.7901,4.088,14.6541,33.7334,-0.2862,0.2505,0.6001,0.1351
17:53:53:357,1.9853,4.2341,16.0049,36.0273,-0.4151,0.3933,0.7625,0.1438
17:53:53:377,2.3038,3.7887,16.4408,35.0327,-0.2884,0.5339,0.7162,0.1535
17:53:53:399,1.1422,3.1444,15.4995,35.3439,0.0866,0.7193,0.591,0.1546
17:53:53:418,-0.4314,2.445,13.4733,35.1697,0.5421,0.8412,0.566,0.1546
17:53:53:437,-1.7007,2.0307,10.9896,35.6756,0.916,0.8226,0.7045,0.1675
17:53:53:457,-1.8109,1.7504,8.9035,33.78,1.0678,0.5291,0.9751,0.1675
17:53:53:477,-0.2182,1.5876,7.7682,36.5139,0.965,-0.0441,1.2403,0.1832
17:53:53:498,1.8775,1.3864,8.1179,36.0212,0.6278,-0.6316,1.2846,0.1832
17:53:53:518,3.1852,1.1229,8.7454,35.0106,0.3258,-0.7126,1.1413,0.1916
17:53:53:539,3.2331,0.8738,8.4364,34.692,0.182,-0.2784,0.9287,0.1916
17:53:53:557,2.3469,0.8379,8.0748,36.0315,0.0376,0.2473,0.7423,0.1876
17:53:53:579,1.0775,0.7828,8.2376,34.6863,-0.0652,0.6756,0.6422,0.1876
17:53:53:599,0.1315,0.7733,8.1849,35.5309,0.0398,0.9462,0.6986,0.1771
17:53:53:619,0.2584,1.0559,7.3155,36.7113,0.3365,1.0389,0.9016,0.1771
17:53:53:638,1.0919,1.5205,6.1156,36.0582,0.6012,0.8849,1.0651,0.1747
17:53:53:659,2.0499,2.057,5.3252,34.9869,0.688,0.6356,1.0544,0.1747
17:53:53:679,2.5841,2.3109,5.603,35.4931,0.5863,0.3938,0.8467,0.1847
17:53:53:700,2.4308,2.4378,6.2952,36.004,0.451,0.2686,0.5921,0.1847
17:53:53:722,2.3877,2.5432,6.7,38.0959,0.3791,0.2809,0.4499,0.2023
17:53:53:739,2.8858,2.6797,7.064,36.7659,0.2587,0.1759,0.3726,0.2023
17:53:53:758,4.1648,2.7276,7.6101,36.6065,0.0526,-0.0105,0.2714,0.2126
17:53:53:779,5.2378,2.7276,9.0544,37.1231,-0.2575,-0.2417,0.0349,0.2126
17:53:53:798,5.3288,2.6462,10.3525,37.1192,-0.4876,-0.3242,-0.2794,0.2076
17:53:53:821,4.5672,2.5815,10.386,38.5327,-0.6037,-0.165,-0.5111,0.2076
17:53:53:837,3.7145,2.8019,10.2758,36.1865,-0.7805,0.0508,-0.607,0.1996
17:53:53:858,3.3337,2.948,10.8195,37.5097,-1.0341,0.1104,-0.6528,0.1996
17:53:53:878,3.3457,2.8953,11.4758,38.9949,-1.2461,-0.0062,-0.7055,0.2016
17:53:53:899,3.2116,2.3109,12.0506,37.5847,-1.4437,-0.1517,-0.8206,0.2016
17:53:53:921,2.3948,1.1157,13.2649,36.7932,-1.676,-0.0813,-0.9388,0.2063
17:53:53:938,1.4153,-0.1249,15.0325,36.7932,-1.7788,0.1413,-0.8792,0.2063
17:53:53:958,1.3865,-0.544,15.9713,37.1756,-1.5359,0.2191,-0.5526,0.2089
17:53:53:979,2.7469,-0.2423,15.0924,37.1171,-0.9792,0.1173,-0.1606,0.2089
17:53:53:999,4.3133,0.2224,13.8373,38.2147,-0.4226,-0.1053,-0.0647,0.2091
17:53:54:022,3.8726,0.2463,12.4506,37.2345,0.0009,-0.2731,-0.347,0.2091
17:53:54:037,2.3374,0.2535,10.8674,37.2345,0.3375,-0.2768,-0.6219,0.2035
17:53:54:059,1.1733,0.414,9.2963,35.0544,0.6092,-0.1415,-0.7098,0.2035
17:53:54:079,0.4141,0.5864,7.6197,37.4255,0.8553,0.0816,-0.6911,0.188
17:53:54:099,-0.029,0.8164,5.9288,34.2231,1.0572,0.2835,-0.6229,0.188
17:53:54:119,-0.0242,1.0607,4.736,35.4384,1.1456,0.3203,-0.5564,0.1675
17:53:54:138,0.4405,1.3481,4.3456,35.7113,1.1078,0.1855,-0.5526,0.1675
17:53:54:156,0.7614,1.6594,4.4199,35.7113,1.0103,0.0049,-0.6512,0.1395
17:53:54:178,0.9003,1.9109,4.8294,35.4727,0.9155,-0.1298,-0.7945,0.1395
17:53:54:199,1.0129,2.2414,5.512,34.7897,0.8303,-0.2848,-0.9282,0.1173
17:53:54:223,1.0608,2.4642,5.4881,34.2298,0.7786,-0.4015,-1.0347,0.1173
17:53:54:237,1.7985,2.821,5.4857,34.2298,0.5751,-0.5442,-1.0874,0.1161
17:53:54:259,2.6056,3.3887,6.4653,35.0727,0.1373,-0.5421,-1.1961,0.1161
17:53:54:277,1.9086,3.8318,7.761,35.0727,-0.3102,-0.0925,-1.3884,0.126
17:53:54:301,0.1099,4.203,8.8795,33.7282,-0.6143,0.5648,-1.4656,0.126
17:53:54:321,-1.6624,4.6317,10.1154,35.6266,-0.7869,0.8551,-1.2883,0.1392
17:53:54:339,-2.1606,5.0652,11.7704,35.0449,-0.8205,0.5243,-0.8957,0.1392
17:53:54:358,-0.7643,5.3407,13.3104,35.5413,-0.6996,-0.1426,-0.4589,0.1544
17:53:54:379,0.6129,5.4317,14.0936,35.9375,-0.5004,-0.6034,-0.2559,0.1544
17:53:54:400,0.3303,4.9575,13.8086,35.0384,-0.3326,-0.5682,-0.3241,0.1702
17:53:54:421,-0.8768,3.839,13.3727,33.2847,-0.3272,-0.3658,-0.4658,0.1702
17:53:54:440,-2.0959,2.3157,14.1774,34.3014,-0.4364,-0.2987,-0.5191,0.1859
17:53:54:459,-3.1953,1.0846,14.9918,33.8583,-0.3214,-0.2838,-0.3508,0.1859
17:53:54:479,-3.2599,0.5337,14.0098,34.4261,0.0973,-0.255,0.0812,0.196
17:53:54:500,-1.8181,0.4643,12.156,35.1173,0.4664,-0.3392,0.5473,0.196
17:53:54:520,0.2824,0.6918,10.9081,34.9555,0.6135,-0.467,0.7897,0.1841
17:53:54:538,1.5087,0.6631,9.6914,33.07,0.6502,-0.3898,0.7284,0.1841
17:53:54:558,1.2524,0.4906,8.4604,32.6868,0.5549,-0.1788,0.51,0.1622
17:53:54:579,0.1986,0.4044,7.5981,31.8587,0.3541,0.1669,0.371,0.1622
17:53:54:601,-0.7259,0.402,7.1,32.7917,0.2033,0.6282,0.4184,0.1546
17:53:54:619,-0.872,0.4954,6.4174,39.5605,0.2118,1.0133,0.5905,0.1546
17:53:54:639,-0.805,0.6894,5.7228,33.7631,0.2832,1.1097,0.7503,0.1526
17:53:54:659,-0.5894,0.8307,5.0043,32.8478,0.3546,0.9249,0.8856,0.1526
17:53:54:679,-0.0457,1.1397,4.6211,32.9128,0.3562,0.5744,1.0129,0.148
17:53:54:700,0.7877,1.4582,5.0043,33.6523,0.2694,0.2308,1.063,0.148
17:53:54:721,1.7913,1.7936,5.9503,32.626,0.1527,0.0097,1.0241,0.1559
17:53:54:738,2.8044,1.9756,7.0545,32.3418,0.0488,-0.1186,0.9159,0.1559
17:53:54:758,3.7193,2.3684,7.7275,33.6083,-0.046,-0.1682,0.7641,0.1714
17:53:54:779,4.5528,2.7444,8.5107,34.0351,-0.2298,-0.2166,0.5271,0.1714
17:53:54:798,4.6965,2.7755,9.9932,33.3507,-0.5376,-0.2587,0.1595,0.1797
17:53:54:818,3.7744,2.4067,11.4902,33.2366,-0.7976,-0.1101,-0.1984,0.1797
17:53:54:843,2.6607,2.3971,12.2733,33.519,-0.8828,0.1759,-0.3635,0.1775
17:53:54:860,1.6236,2.7061,12.7907,30.948,-0.8583,0.3411,-0.4157,0.177
17:53:54:878,1.2213,2.845,13.3104,35.8284,-0.7486,0.2122,-0.3966,0.177
17:53:54:900,1.9254,3.0222,14.1774,34.1424,-0.5669,-0.2262,-0.322,0.177
17:53:54:918,2.7709,2.9815,14.0577,33.1344,-0.3091,-0.5112,-0.2799,0.1816
17:53:54:939,3.6139,2.6079,12.9488,32.4171,-0.1573,-0.4963,-0.2868,0.1816
17:53:54:959,4.3875,1.7049,13.1308,32.7424,-0.3145,-0.5437,-0.4046,0.1861
17:53:54:979,4.96,0.893,13.3415,31.5846,-0.4125,-0.442,-0.5335,0.1861
17:53:54:999,4.9791,0.778,11.6219,31.9074,-0.2095,-0.0574,-0.6144,0.1867
17:53:55:020,4.3061,0.893,9.3394,30.9149,-0.0178,0.1344,-0.8078,0.1867
17:53:55:038,3.2666,0.584,8.5226,33.3554,-0.0923,-0.0664,-1.1215,0.1765
17:53:55:058,1.8799,0.2799,8.6568,31.6138,-0.2074,-0.1927,-1.3431,0.1765
17:53:55:080,0.9458,0.1889,7.9215,30.4296,-0.0961,-0.0265,-1.316,0.1586
17:53:55:103,0.4572,0.414,7.3682,31.4345,0.043,0.0529,-1.1812,0.1586
17:53:55:119,-0.2254,0.699,7.1359,29.4979,0.1873,0.0103,-1.0661,0.1468
17:53:55:139,-0.8433,1.1325,6.13,29.9391,0.4627,-0.019,-0.9021,0.1468
17:53:55:159,-1.1714,1.7696,5.0426,30.5716,0.6822,-0.2305,-0.7321,0.1467
17:53:55:180,-1.4157,2.2343,4.7504,29.0283,0.7014,-0.6007,-0.6373,0.1467
17:53:55:198,-0.7691,2.6199,5.524,28.7924,0.5975,-0.8718,-0.5436,0.1442
17:53:55:220,0.2225,3.0414,6.7718,28.8897,0.484,-0.9262,-0.5106,0.1442
17:53:55:241,0.3087,3.4318,7.6125,28.5733,0.4153,-0.7541,-0.5889,0.1416
17:53:55:259,-0.302,3.7743,8.7119,28.0056,0.2481,-0.6241,-0.6799,0.1416
17:53:55:282,-1.0062,3.894,10.4555,28.744,0.0323,-0.5208,-0.6672,0.1395
17:53:55:298,-1.5594,3.8533,11.6075,27.8479,-0.0598,-0.2689,-0.469,0.1395
17:53:55:320,-1.7654,4.0593,12.3859,26.35,-0.0939,0.0012,-0.0977,0.1385
17:53:55:339,-1.3127,4.3276,13.4302,25.6193,-0.1541,0.1408,0.3146,0.1385
17:53:55:359,-0.4769,4.4234,14.7307,28.5095,-0.1797,0.1786,0.6485,0.1442
17:53:55:380,0.838,3.506,15.2696,25.367,-0.1211,0.0827,0.8062,0.1442
17:53:55:398,0.862,2.1935,15.8636,26.3285,-0.0481,-0.1256,0.7114,0.1595
17:53:55:423,-0.417,1.1301,16.1414,28.5525,0.1554,-0.1474,0.6256,0.1595
17:53:55:440,-1.7774,0.5745,14.7331,25.0267,0.5623,0.0369,0.7737,0.175
17:53:55:458,-1.9307,0.3972,12.3021,25.2325,0.8974,0.0545,1.1146,0.175
17:53:55:479,-0.8241,0.5649,10.2495,23.949,0.9421,-0.1458,1.446,0.1853
17:53:55:501,0.8452,0.6583,8.5346,25.1319,0.7509,-0.2752,1.6191,0.1853
17:53:55:521,2.2823,0.814,7.2964,25.8212,0.3897,-0.2119,1.594,0.1874
17:53:55:544,2.8475,0.9912,7.4329,24.8328,-0.0518,0.1088,1.3804,0.1846
17:53:55:559,1.9182,0.7804,8.0652,24.4454,-0.3251,0.6271,1.0944,0.1846
17:53:55:579,0.8596,0.7852,7.8233,24.7912,-0.2271,1.1028,1.0108,0.1846
17:53:55:599,0.3854,1.0199,6.2928,26.4439,0.0744,1.2924,1.0773,0.181
17:53:55:621,0.5794,1.4678,4.9612,24.9024,0.2576,1.0959,1.1546,0.181
17:53:55:638,1.0871,1.7816,4.7169,24.7652,0.2369,0.7251,1.1242,0.1827
17:53:55:659,1.2404,1.8702,5.5096,25.8567,0.1202,0.4684,1.0044,0.1827
17:53:55:677,1.5494,1.9061,7.4952,24.8975,0.0728,0.2558,0.8984,0.1958
17:53:55:698,2.2056,1.8774,9.3274,26.6888,0.2981,-0.0169,0.8099,0.1958
17:53:55:722,2.9768,1.8271,9.7274,24.8931,0.7275,-0.2561,0.6938,0.2125
17:53:55:739,3.8079,1.9971,9.1526,24.8639,1.0353,-0.4606,0.5351,0.2125
17:53:55:759,4.5408,2.172,8.822,24.5228,1.0082,-0.6071,0.2799,0.2155
17:53:55:780,4.742,2.3348,8.8508,24.1286,0.6785,-0.5735,-0.0429,0.2155
17:53:55:800,4.8163,2.3229,9.3202,26.4212,0.1921,-0.2864,-0.3278,0.2035
17:53:55:817,4.1624,2.3732,9.816,24.9384,-0.2585,0.1482,-0.5697,0.2035
17:53:55:837,3.0104,2.6414,9.9908,24.0655,-0.559,0.4993,-0.7183,0.1965
17:53:55:859,2.4356,2.9073,10.1513,24.1086,-0.7635,0.6111,-0.7348,0.1965
17:53:55:878,2.7445,3.1707,10.6399,24.7269,-0.91,0.4865,-0.6853,0.1946
17:53:55:900,2.9433,3.0893,11.0638,23.6518,-0.992,0.2372,-0.7092,0.1946
17:53:55:917,2.6607,2.3301,11.1333,24.8641,-1.0698,0.0422,-0.8105,0.197
17:53:55:941,2.5745,1.2475,12.3691,23.5007,-1.2876,-0.2752,-0.8472,0.197
17:53:55:959,3.3648,0.5673,15.6169,24.6199,-1.481,-0.6865,-0.7588,0.2157
17:53:55:980,4.6941,0.3876,17.2168,25.1467,-1.1001,-0.6481,-0.6107,0.2157
17:53:55:998,4.7324,0.7253,14.7762,25.66,-0.218,-0.2055,-0.6224,0.2357
17:53:56:018,3.4798,1.1086,10.8411,24.2396,0.5,-0.0425,-0.8179,0.2357
17:53:56:038,2.1601,1.4367,7.9215,24.0287,0.7722,-0.0941,-1.0011,0.2356
17:53:56:065,1.0752,1.6858,6.1635,22.0662,0.7866,-0.0062,-1.0944,0.2189
17:53:56:079,0.28,1.8199,4.954,25.0603,0.761,0.2148,-1.1194,0.2189
17:53:56:099,-0.4002,1.8654,4.0846,24.7343,0.7338,0.3475,-1.105,0.2189
17:53:56:118,-0.9415,2.0786,3.7301,24.4876,0.6635,0.2644,-1.064,0.1989
17:53:56:138,-1.0421,2.4187,4.0175,25.838,0.5314,-0.0302,-1.0246,0.1989
17:53:56:159,-1.0181,2.5241,5.3085,24.2624,0.3578,-0.3594,-1.0512,0.1789
17:53:56:178,-1.0804,2.3229,7.0185,23.4812,0.2603,-0.4825,-1.0832,0.1789
17:53:56:197,-1.3319,2.366,7.9287,23.8077,0.3301,-0.3051,-1.0246,0.1616
17:53:56:218,-1.6624,2.8761,7.5766,24.6651,0.4435,0.0225,-0.8525,0.1616
17:53:56:241,-1.7678,3.6138,7.5766,23.9423,0.3567,0.1813,-0.6815,0.1652
17:53:56:258,-2.1654,4.0665,8.4747,24.8359,0.1,0.1797,-0.5937,0.1797
17:53:56:278,-2.2396,4.3012,9.6364,24.768,-0.1323,0.16,-0.4264,0.1797
17:53:56:299,-1.5115,4.2653,11.2914,23.3042,-0.3507,0.0113,-0.1899,0.1797
17:53:56:319,-0.9271,4.2605,13.0996,24.4823,-0.5052,-0.1389,0.0242,0.1909
17:53:56:341,-0.2924,4.6341,15.0924,23.6862,-0.5563,-0.166,0.2682,0.1909
17:53:56:360,0.6129,4.8257,15.9354,25.5087,-0.3853,-0.0105,0.5085,0.2005
17:53:56:378,1.0536,4.5072,14.6684,24.2337,-0.0284,0.1546,0.5708,0.2005
17:53:56:396,0.1411,3.6857,12.7643,25.4652,0.2496,0.0944,0.4515,0.2084
17:53:56:419,-1.0301,3.1252,11.0662,25.3194,0.4212,0.0502,0.4355,0.2084
17:53:56:440,-1.6912,2.8929,8.9011,25.7542,0.5186,0.0806,0.5649,0.2159
17:53:56:459,-1.5427,2.7707,7.3754,24.6516,0.3849,0.0076,0.6975,0.2159
17:53:56:479,-0.8337,2.2678,7.6437,24.5541,-0.0183,-0.2822,0.7561,0.2186
17:53:56:500,0.6967,1.6522,9.2316,24.824,-0.4551,-0.5469,0.7982,0.2186
17:53:56:519,2.4906,0.9146,10.8962,25.1037,-0.7214,-0.6486,0.7684,0.2134
17:53:56:541,3.3577,0.3709,11.4423,26.1736,-0.7044,-0.5522,0.6475,0.2134
17:53:56:560,2.9098,0.0667,10.8962,25.8952,-0.5547,-0.3141,0.5266,0.2045
17:53:56:579,2.4164,-0.0051,10.7381,28.6465,-0.4077,0.0092,0.5303,0.2045
17:53:56:597,1.9589,0.0835,10.7477,26.4405,-0.1392,0.3437,0.6081,0.2005
17:53:56:618,1.7697,0.4355,9.107,26.1807,0.3897,0.6782,0.7711,0.2005
17:53:56:637,1.9877,1.087,6.6665,26.8618,0.9086,0.7672,0.9362,0.2066
17:53:56:659,2.1697,1.863,4.6211,27.8343,1.1957,0.569,0.9767,0.2066
17:53:56:677,2.4212,2.7037,3.4115,27.545,1.2426,0.2697,0.8946,0.2151
17:53:56:698,2.3733,3.3504,3.1505,26.2007,1.0934,-0.018,0.6853,0.2151
17:53:56:717,1.9685,3.7743,3.2918,26.2477,0.8404,-0.1831,0.4317,0.2139
17:53:56:742,1.6093,4.1503,4.2211,26.2453,0.4888,-0.2566,0.208,0.2139
17:53:56:762,1.2715,4.1479,5.9863,27.7207,0.0696,-0.3013,-0.029,0.2051
17:53:56:779,1.25,3.7863,8.0891,26.7037,-0.283,-0.2726,-0.2128,0.2051
17:53:56:798,1.729,3.415,9.4998,27.7615,-0.4929,-0.2369,-0.3001,0.1974
17:53:56:818,2.6846,3.2929,10.2782,25.3133,-0.699,-0.2646,-0.355,0.1974
17:53:56:837,3.6379,3.1324,12.2518,25.713,-1.049,-0.3402,-0.5026,0.1959
17:53:56:858,3.4127,2.8378,14.678,27.698,-1.3228,-0.1154,-0.7098,0.1959
17:53:56:879,3.0152,2.9983,15.9115,27.4493,-1.2871,0.4582,-0.746,0.21
17:53:56:899,3.1828,3.2354,15.569,28.2273,-1.0501,1.0277,-0.6725,0.21
17:53:56:918,2.0811,3.1564,14.3499,27.3368,-0.8248,1.4352,-0.7364,0.2301
17:53:56:937,0.5961,2.4354,13.4757,28.972,-0.6985,1.4719,-0.7753,0.2301
17:53:56:959,0.2081,1.6522,13.7679,28.0744,-0.6143,0.9472,-0.6363,0.2438
17:53:56:978,0.9841,1.305,14.4648,29.8036,-0.3816,0.1685,-0.3662,0.2438
17:53:56:997,2.5577,1.4702,13.4541,28.1922,0.101,-0.3125,-0.0679,0.2442
17:53:57:017,4.1456,2.0235,10.295,30.5043,0.6055,-0.5006,0.0344,0.2442
17:53:57:038,3.8846,2.251,6.815,30.2817,0.745,-0.6577,-0.2511,0.2356
17:53:57:059,2.2631,1.8271,5.2246,30.9576,0.3567,-0.7227,-0.6384,0.2356
17:53:57:079,0.4955,1.0894,6.2042,30.0456,-0.242,-0.5453,-0.8275,0.2162
17:53:57:099,-0.6685,0.6942,7.5502,31.6216,-0.4455,-0.1879,-0.7412,0.2162
17:53:57:117,-0.7331,0.8379,7.7778,30.243,-0.0865,0.0827,-0.4562,0.1894
17:53:57:137,0.2608,1.305,6.8653,32.3016,0.5123,-0.0291,-0.1798,0.1894
17:53:57:159,0.9817,1.8894,5.2103,31.1215,1.0108,-0.3727,-0.1435,0.1644
17:53:57:179,0.5602,2.2822,4.063,31.0652,1.1717,-0.7333,-0.3454,0.1644
17:53:57:197,0.1363,2.5576,4.0367,31.2983,1.0226,-0.9523,-0.4834,0.1508
17:53:57:217,0.2177,2.9791,4.7145,29.7603,0.769,-0.8942,-0.4866,0.1508
17:53:57:238,0.6416,3.0749,5.4737,29.7603,0.4984,-0.72,-0.4871,0.1602
17:53:57:259,1.0368,3.1803,6.7455,31.1558,0.2076,-0.6593,-0.5351,0.1749
17:53:57:287,0.8069,3.233,8.7095,31.0886,-0.0726,-0.7637,-0.6411,0.1749
17:53:57:297,0.4357,3.0677,10.3118,30.5503,-0.2207,-0.7008,-0.6528,0.1749
17:53:57:315,0.1483,3.154,11.0566,30.3578,-0.2452,-0.3168,-0.4605,0.1706
17:53:57:337,0.8117,3.3767,11.9093,30.972,-0.3246,-0.018,-0.1403,0.1706
17:53:57:359,1.9422,3.9395,13.4158,33.3481,-0.4039,0.046,0.1196,0.1743
17:53:57:378,2.517,4.5168,13.9188,32.5273,-0.2644,0.1589,0.2586,0.1743
17:53:57:396,2.2727,5.1012,12.7356,33.8822,0.0137,0.4939,0.3305,0.1979
17:53:57:420,1.5015,5.3838,10.9944,33.6881,0.1484,0.7869,0.3162,0.1979
17:53:57:436,0.6081,5.2592,9.9884,33.1748,0.0435,0.7736,0.2123,0.2201
17:53:57:458,-0.0481,4.591,10.0172,33.8776,-0.2468,0.3496,0.1031,0.2201
17:53:57:478,0.4931,3.7384,11.3201,33.0052,-0.6362,-0.3083,0.0882,0.2307
17:53:57:500,1.753,2.6342,14.108,33.6879,-1.0069,-0.7941,0.0642,0.2307
17:53:57:517,1.8727,1.4678,15.9546,34.952,-1.0325,-0.752,0.0008,0.2322
17:53:57:537,1.0943,0.9864,14.6349,35.252,-0.6325,-0.2641,0.0834,0.2322
17:53:57:560,0.6177,1.0391,12.1201,34.5848,-0.2575,0.063,0.2634,0.2278
17:53:57:579,-0.0577,1.1924,10.2663,36.7172,-0.0566,0.2361,0.379,0.2278
17:53:57:597,-0.8337,1.1876,8.6065,34.952,0.1543,0.471,0.5063,0.221
17:53:57:618,-1.181,1.2235,6.8916,36.9797,0.4222,0.6644,0.7135,0.221
17:53:57:636,-0.9487,1.3169,5.4833,36.9797,0.6561,0.6117,0.925,0.2189
17:53:57:661,-0.587,1.5157,4.7672,37.7248,0.8058,0.3011,1.0576,0.2189
17:53:57:677,-0.2541,1.5014,5.1312,35.6518,0.8937,-0.1698,1.0896,0.2138
17:53:57:699,-0.1655,1.2834,6.1491,36.3036,1.0231,-0.6407,1.0912,0.2138
17:53:57:717,0.359,1.3696,7.1575,35.4467,1.3038,-1.0109,1.1594,0.2016
17:53:57:738,1.2668,1.8103,7.4257,36.0954,1.6916,-1.4141,1.2212,0.2016
17:53:57:760,3.1876,2.4426,7.2365,36.4454,1.9968,-1.7875,1.1738,0.189
17:53:57:779,5.6617,2.9887,7.2173,35.9043,2.0117,-2.0272,0.9037,0.189
17:53:57:797,7.1299,3.2929,7.1311,35.2327,1.6852,-1.9058,0.4296,0.185
17:53:57:816,7.197,3.3959,6.6617,36.2924,0.9938,-1.2681,-0.0061,0.185
17:53:57:837,6.603,3.4102,6.8868,36.9719,-0.0151,-0.1826,-0.2373,0.1868
17:53:57:857,5.5731,3.1683,8.3718,37.0676,-1.0804,1.2061,-0.3513,0.1868
17:53:57:877,4.3229,2.8809,10.6231,37.1604,-1.7782,2.3876,-0.4237,0.1974
17:53:57:897,3.4678,3.1396,12.4889,38.0553,-1.8475,2.7035,-0.3875,0.1974
17:53:57:915,3.6091,3.7312,12.3715,39.4658,-1.3484,2.2198,-0.2432,0.2176
17:53:57:936,4.2103,4.0138,10.2711,40.1936,-0.8136,1.3297,-0.1686,0.2176
17:53:57:956,4.9552,3.1779,8.9059,39.181,-0.7965,0.3736,-0.2511,0.253
17:53:57:978,6.2294,2.0929,11.253,41.1148,-1.3223,-0.6609,-0.2916,0.253
17:53:57:996,7.9826,1.5325,14.2014,41.5484,-1.6712,-1.1078,-0.1782,0.3018
17:53:58:017,8.3921,1.6594,13.8828,39.7583,-1.4443,-0.4196,-0.1196,0.3018
17:53:58:036,6.706,1.7936,11.8063,41.5925,-1.0677,0.4417,-0.339,0.3366
17:53:58:057,4.2367,1.7433,9.7825,41.7869,-0.7923,0.6234,-0.6757,0.3366
17:53:58:077,2.5314,1.6259,8.47,41.1788,-0.5824,0.3496,-0.8552,0.3238
17:53:58:101,1.7434,1.5564,7.852,41.4307,-0.3667,0.0673,-0.8845,0.3238
17:53:58:116,1.3171,1.4894,7.6724,42.141,-0.0284,-0.0915,-0.8813,0.2736
17:53:58:138,0.7374,1.4247,7.0976,42.3876,0.4563,-0.3445,-0.9074,0.2736
17:53:58:156,0.8045,1.4056,5.8713,40.4625,0.9528,-0.7307,-0.8786,0.2411
17:53:58:177,1.238,1.5684,4.6546,40.1503,1.2298,-1.1307,-0.8898,0.2411
17:53:58:198,1.3937,1.8223,4.1804,40.9417,1.2292,-1.3363,-1.0091,0.2233
17:53:58:216,0.9267,2.0714,3.9193,41.9773,1.0609,-1.3118,-1.1514,0.2232
17:53:58:238,0.3039,2.5384,3.7109,40.6747,0.7797,-1.1888,-1.1998,0.2009
17:53:58:262,0.8907,2.9312,4.5923,42.2829,0.2976,-1.2538,-1.1679,0.2007
17:53:58:289,2.3877,2.8354,6.6473,40.5118,-0.2985,-1.3832,-1.1828,0.1804
17:53:58:297,2.6799,2.5456,8.7119,42.2238,-0.788,-1.119,-1.3176,0.1802
17:53:58:316,1.1781,2.2462,10.374,42.7027,-1.1316,-0.442,-1.4038,0.1706
17:53:58:338,-0.9966,2.2175,12.0578,43.591,-1.3303,0.364,-1.2078,0.1705
17:53:58:355,-1.5906,2.627,14.0409,43.5048,-1.301,0.8157,-0.6448,0.1763
17:53:58:375,0.0381,3.506,15.1738,43.5771,-0.9643,0.7736,0.012,0.1764
17:53:58:396,2.517,4.1838,14.9079,43.6339,-0.5323,0.5595,0.4147,0.2027
17:53:58:417,4.1361,4.5958,14.7043,44.197,-0.3038,0.4034,0.4605,0.203
17:53:58:436,3.2906,4.5024,14.2637,44.0241,-0.2095,0.5105,0.2096,0.2326
17:53:58:456,1.3314,3.9515,13.4541,43.3767,-0.152,0.7496,0.0227,0.2328
17:53:58:476,0.3878,3.1779,12.8218,43.6304,-0.1003,0.7006,0.0722,0.2505
17:53:58:497,0.7662,2.5791,12.6374,43.9525,-0.0247,0.3475,0.2123,0.2506
17:53:58:517,1.1446,2.1408,12.8242,42.4083,0.0962,-0.011,0.2565,0.2482
17:53:58:535,0.4836,1.8654,11.9476,41.9099,0.2987,-0.1048,0.2597,0.2481
17:53:58:555,-0.0601,1.6834,10.2543,42.9917,0.427,-0.0718,0.3721,0.2273
17:53:58:576,-0.2948,1.4558,9.0017,42.2508,0.3562,-0.0126,0.5377,0.2271
17:53:58:595,-0.2134,1.2092,8.3263,42.7426,0.223,0.0838,0.721,0.2032
17:53:58:616,0.1243,1.0655,8.2041,41.9286,0.1756,0.1307,0.8574,0.2029
17:53:58:638,0.1698,0.9673,7.5814,41.8697,0.2976,0.2074,0.9373,0.1926
17:53:58:657,-0.1056,0.9385,6.4222,42.0763,0.4691,0.3496,1.0209,0.1925
17:53:58:679,-0.132,1.0415,5.742,42.4283,0.5501,0.421,1.1205,0.1864
17:53:58:698,0.2081,1.0056,5.6342,42.2841,0.5767,0.3464,1.2009,0.1863
17:53:58:717,0.7734,1.0008,5.4881,41.0947,0.6257,0.2468,1.2766,0.1828
17:53:58:736,1.9733,1.3768,5.7132,41.062,0.6364,0.1141,1.332,0.1828
17:53:58:756,3.5014,1.499,6.2545,41.9787,0.5778,-0.0307,1.2526,0.1866
17:53:58:779,4.6199,1.5253,6.9874,40.4785,0.4462,-0.0712,1.023,0.1866
17:53:58:798,5.609,1.3289,8.3574,40.8846,0.2379,-0.059,0.7439,0.1938
17:53:58:819,6.3204,1.1134,9.4759,42.9207,0.0755,0.0326,0.4589,0.1939
17:53:58:836,6.3803,1.0463,9.7992,41.0141,-0.0364,0.226,0.1761,0.1965
17:53:58:857,5.8557,1.178,9.9381,40.0986,-0.1728,0.4614,-0.0695,0.1965
17:53:58:879,4.8785,1.6187,9.0136,41.6949,-0.2537,0.7587,-0.2458,0.2015
17:53:58:898,4.1025,2.1768,7.7466,40.5943,-0.4205,0.8791,-0.3848,0.2016
17:53:58:918,3.8175,2.5959,8.0532,41.9088,-0.8423,0.7038,-0.5638,0.2091
17:53:58:938,2.9577,2.5672,9.4328,39.5502,-1.3191,0.5445,-0.7833,0.2092
17:53:58:956,2.0667,1.9852,11.1309,40.6339,-1.6754,0.5227,-0.9063,0.2189
17:53:58:978,1.7362,1.0152,13.0733,42.0845,-1.897,0.5296,-0.8435,0.219
17:53:58:997,2.6894,-0.0363,15.8684,40.8237,-1.9695,0.3522,-0.6171,0.2279
17:53:59:018,4.069,-0.6183,19.7125,40.0718,-1.7271,-0.0568,-0.3827,0.228
17:53:59:038,5.5899,-0.3524,20.2921,40.9041,-0.7662,-0.2619,-0.1526,0.2304
17:53:59:057,5.8485,0.4451,15.5163,42.4071,0.532,-0.166,-0.1244,0.2305
17:53:59:080,4.2127,1.2379,10.3405,39.4693,1.2228,-0.2039,-0.4035,0.2262
17:53:59:098,2.5026,1.6738,7.0688,38.9772,1.2074,-0.2305,-0.6597,0.2262
17:53:59:118,1.4105,1.8846,5.742,40.6498,0.8734,-0.059,-0.7535,0.2147
17:53:59:138,0.7183,1.875,5.6869,38.9301,0.5836,0.145,-0.7657,0.2146
17:53:59:156,0.3566,1.7504,5.7348,38.7244,0.5272,0.194,-0.738,0.191
17:53:59:177,0.2512,1.8391,5.1815,37.1448,0.6667,0.0353,-0.6762,0.1908
17:53:59:198,0.2632,2.057,4.1013,36.976,0.8116,-0.2944,-0.6464,0.1547
17:53:59:216,-0.0266,2.3492,2.8727,36.1693,0.7818,-0.5453,-0.6965,0.1544
17:53:59:237,-0.4745,2.4833,2.4056,36.4535,0.4712,-0.5336,-0.7859,0.1192
17:53:59:258,-0.6948,2.5049,3.6079,38.536,-0.0524,-0.3956,-0.8371,0.1189
17:53:59:280,-1.0158,2.5504,5.5384,36.7502,-0.4482,-0.1362,-0.8499,0.118
17:53:59:308,-1.6265,2.663,7.3538,36.8544,-0.5909,0.1615,-0.8158,0.118
17:53:59:316,-2.0385,2.9839,8.9586,39.6477,-0.5616,0.3395,-0.6799,0.1422
17:53:59:335,-1.9522,3.0701,10.4052,37.8144,-0.4748,0.2665,-0.5249,0.1424
17:53:59:356,-1.6097,2.6965,11.2626,38.6751,-0.4167,-0.0686,-0.4046,0.156
17:53:59:376,-0.7834,2.2199,13.205,37.0416,-0.5515,-0.6012,-0.2996,0.1561
17:53:59:398,-0.2541,1.8295,16.6587,36.2243,-0.7518,-0.9629,-0.2085,0.1668
17:53:59:418,-0.2709,1.851,18.7209,37.5512,-0.5648,-0.6188,0.061,0.1669
17:53:59:437,0.0477,2.1792,17.8251,36.9176,-0.0231,0.2596,0.533,0.1841
17:53:59:455,0.1483,2.4953,15.8827,34.9137,0.4638,0.8993,0.8313,0.1842
17:53:59:476,-0.3427,2.2822,13.8397,37.0589,0.8383,0.9531,0.8866,0.1905
17:53:59:498,-0.7954,2.0666,11.8782,36.3897,1.1403,0.5888,0.908,0.1906
17:53:59:518,-0.6493,1.9804,10.0555,36.6685,1.2873,0.0811,0.9697,0.1809
17:53:59:538,0.2297,1.8558,8.8077,34.8521,1.1509,-0.238,1.015,0.1808
17:53:59:556,0.9267,1.7049,8.0772,32.861,0.7264,-0.2673,0.9729,0.1697
17:53:59:576,1.353,1.3289,8.1754,34.0689,0.1154,-0.108,0.8611,0.1696
17:53:59:598,0.9961,0.6583,9.119,35.5904,-0.4785,0.177,0.7061,0.1617
17:53:59:617,0.1195,0.1577,9.7489,34.3183,-0.7821,0.5589,0.6565,0.1617
17:53:59:637,-0.3212,-0.077,10.1274,33.7587,-0.7821,0.829,0.7636,0.1522
17:53:59:657,-0.6876,-0.089,9.5573,32.5825,-0.4972,0.9691,0.9261,0.1521
17:53:59:677,-0.987,0.0164,8.137,34.0378,-0.0806,1.016,1.1226,0.1537
17:53:59:698,-1.1283,0.2056,6.6042,34.1682,0.28,0.9323,1.3485,0.1537
17:53:59:717,-1.0948,0.5625,5.2917,32.6321,0.5096,0.7763,1.5839,0.169
17:53:59:736,-0.805,0.9696,4.4965,33.7101,0.581,0.6282,1.8087,0.1691
17:53:59:756,-0.1104,1.3457,4.4702,32.3035,0.5218,0.5584,2.0101,0.1925
17:53:59:777,1.0943,1.566,5.1863,34.1502,0.4153,0.5861,2.1278,0.2015
17:53:59:798,2.1194,1.6546,5.6845,33.9723,0.3546,0.6692,2.0878,0.2015
17:53:59:818,2.8523,1.7528,5.9551,34.5903,0.2417,0.5382,1.8875,0.2016
17:53:59:840,3.7624,1.6594,7.7682,34.4345,-0.0811,-0.0249,1.5237,0.1878
17:53:59:856,4.9432,1.1493,10.7213,33.8337,-0.4061,-0.6257,1.0624,0.1877
17:53:59:876,5.8797,0.6008,13.1691,32.7608,-0.5153,-0.7744,0.6384,0.1706
17:53:59:898,5.7527,0.6391,14.1631,33.8662,-0.43,-0.4377,0.2666,0.1705
17:53:59:920,4.8019,1.2259,13.4637,34.0584,-0.2862,0.1312,-0.0248,0.1666
17:53:59:936,4.6654,1.851,12.8098,33.9478,-0.2654,0.5243,-0.2272,0.1666
17:53:59:955,4.8258,2.1887,13.2194,32.2597,-0.3944,0.4987,-0.5319,0.1727
17:53:59:977,4.7851,2.1744,13.8637,33.2291,-0.4801,0.4215,-0.917,0.1727
17:53:59:999,3.669,1.7936,13.5787,34.3473,-0.462,0.6495,-1.284,0.1783
17:54:00:017,1.7434,1.3624,13.1332,32.2401,-0.4599,0.9749,-1.4997,0.1783
17:54:00:036,-0.1176,0.9002,12.7284,31.9532,-0.4434,1.0628,-1.4774,0.1803
17:54:00:056,-1.1092,0.7349,12.1105,33.9735,-0.3624,0.7374,-1.2382,0.1803
17:54:00:076,-0.496,0.7349,11.7009,33.0982,-0.3017,0.0854,-0.8957,0.1799
17:54:00:097,0.6632,0.9936,10.9297,32.837,-0.2388,-0.4153,-0.6469,0.1799
17:54:00:117,1.1781,1.1708,9.9525,32.7186,-0.1802,-0.491,-0.583,0.1775
17:54:00:136,0.6752,1.2355,8.9346,33.0527,-0.079,-0.2795,-0.6315,0.1775
17:54:00:155,-0.1439,1.3529,7.7035,31.1644,0.1266,-0.0568,-0.6618,0.1697
17:54:00:177,-0.6948,1.5277,6.4677,31.1757,0.3759,-0.0355,-0.6325,0.1576
17:54:00:199,-0.6972,1.6738,5.7012,30.6939,0.5842,-0.3248,-0.5862,0.1576
17:54:00:217,-0.4026,1.8295,5.4066,30.8509,0.736,-0.7429,-0.6038,0.1575
17:54:00:238,-0.0529,1.9612,5.3779,31.0575,0.8137,-0.988,-0.6949,0.1414
17:54:00:256,0.1363,2.0163,5.6893,31.0604,0.7855,-0.9848,-0.8355,0.1413
17:54:00:277,-0.3044,2.1001,6.4796,27.8083,0.6715,-0.81,-0.9846,0.1254
17:54:00:298,-0.9702,2.1552,7.3922,28.5752,0.5714,-0.5703,-1.0443,0.1252
17:54:00:317,-1.6433,2.5193,8.3382,27.4123,0.5389,-0.3418,-0.9511,0.1208
17:54:00:338,-1.5523,2.9815,9.0687,27.4123,0.5666,-0.2214,-0.7652,0.1208
17:54:00:357,-1.3678,3.2474,9.337,26.9593,0.5495,-0.238,-0.6597,0.1208
17:54:00:376,-1.7702,3.1396,9.7417,27.4068,0.3541,-0.2827,-0.656,0.1208
17:54:00:397,-2.6396,2.7684,10.8028,28.2141,0.0089,-0.2268,-0.5974,0.1251
17:54:00:417,-3.3797,2.3708,11.9189,27.5487,-0.2894,-0.0014,-0.3353,0.1251
17:54:00:437,-3.3342,2.3947,12.8937,25.9153,-0.4684,0.1845,0.1356,0.1404
17:54:00:456,-1.763,2.845,13.6505,26.9697,-0.5387,0.2228,0.6677,0.1406
17:54:00:477,0.0764,3.0677,14.096,26.72,-0.5174,0.2292,0.9378,0.1614
17:54:00:499,0.3279,2.7995,14.3595,25.8456,-0.3848,0.2372,0.836,0.1616
17:54:00:517,-1.4038,2.4498,13.6864,26.9647,-0.0779,0.3949,0.6507,0.1768
17:54:00:540,-3.1043,2.2366,11.7967,25.4196,0.296,0.5456,0.7279,0.177
17:54:00:556,-3.1474,2.1384,10.0339,26.4522,0.4526,0.3086,1.0097,0.1884
17:54:00:576,-1.2816,2.0163,9.4304,26.0504,0.2768,-0.2459,1.2915,0.198
17:54:00:597,1.0823,1.9229,10.4076,23.9268,-0.0993,-0.6391,1.3501,0.198
17:54:00:617,2.0212,1.5109,11.0686,24.7367,-0.3581,-0.4681,1.1535,0.198
17:54:00:638,1.3051,1.0678,10.4459,25.3192,-0.4103,0.0811,0.9159,0.1958
17:54:00:657,0.4045,0.7469,9.7585,25.6686,-0.3965,0.4327,0.8392,0.1958
17:54:00:677,-0.1008,0.5984,9.4328,25.976,-0.2915,0.5493,0.8872,0.1855
17:54:00:696,-0.4218,0.5816,8.2975,25.4766,0.0286,0.6697,1.0214,0.1854
17:54:00:722,-0.235,0.7086,6.7742,25.7639,0.4121,0.7358,1.202,0.1762
17:54:00:737,0.177,0.9313,5.615,24.8541,0.6918,0.6362,1.3139,0.1761
17:54:00:756,0.371,1.1756,4.9564,24.598,0.8441,0.4076,1.3213,0.1757
17:54:00:776,0.5219,1.4151,4.7887,25.9774,0.9096,0.1099,1.3021,0.1757
17:54:00:796,1.3434,1.8415,5.0737,23.8665,0.9336,-0.1399,1.3112,0.1829
17:54:00:816,2.5194,2.2869,5.4737,25.4012,0.9166,-0.2918,1.2201,0.183
17:54:00:836,3.1014,2.7252,5.7947,24.2187,0.8191,-0.4095,0.9357,0.1833
17:54:00:854,3.293,2.8043,6.5539,24.2187,0.5719,-0.6268,0.5399,0.1834
17:54:00:876,3.7313,2.5001,7.8281,24.5403,0.1911,-0.8276,0.1441,0.1745
17:54:00:897,4.4115,1.9588,9.4352,23.2931,-0.2473,-0.8441,-0.2224,0.1744
17:54:00:918,4.148,1.4103,10.6183,22.9489,-0.6218,-0.5522,-0.6027,0.1678
17:54:00:937,3.1277,1.1157,10.7788,22.9489,-0.8839,0.0545,-0.8733,0.1677
17:54:00:956,1.9374,1.0702,10.3669,23.1175,-1.1252,0.609,-1.0081,0.1727
17:54:00:977,1.444,1.1421,10.6974,23.1175,-1.4304,0.7752,-1.0507,0.1727
17:54:00:997,1.3769,1.1996,12.7428,24.0633,-1.7553,0.6713,-1.0592,0.1868
17:54:01:018,1.2835,1.0199,14.9199,23.2893,-1.8256,0.6969,-1.0097,0.187
17:54:01:038,0.7159,1.0894,16.1462,22.7771,-1.5236,0.8306,-0.8536,0.2059
17:54:01:057,0.5315,1.2618,16.1725,24.5782,-0.9707,0.6202,-0.5905,0.2061
17:54:01:077,1.4608,1.6259,15.0397,24.1896,-0.3832,-0.0691,-0.2842,0.2232
17:54:01:098,3.5421,2.3229,13.6553,23.093,-0.0364,-0.7285,-0.0588,0.2234
17:54:01:119,5.6426,2.7947,13.4062,24.5376,0.0376,-0.8223,-0.1659,0.2307
17:54:01:137,5.0534,2.3324,13.1954,22.9192,0.0909,-0.4574,-0.7124,0.2308
17:54:01:156,3.2571,1.9037,12.1871,23.1655,0.3237,-0.0201,-1.1988,0.2201
17:54:01:176,2.0595,1.566,11.0495,22.1434,0.6438,0.1637,-1.4608,0.22
17:54:01:197,0.7949,1.0367,10.0531,23.9061,1.0124,0.2042,-1.6542,0.1915
17:54:01:218,-0.4912,0.7325,8.537,21.7174,1.4652,0.2425,-1.7128,0.1912
17:54:01:237,-1.3008,0.7804,6.5826,23.5852,1.8764,0.2212,-1.6073,0.1536
17:54:01:258,-1.6193,1.0559,4.669,21.2905,2.1097,0.1328,-1.4342,0.1532
17:54:01:277,-1.6672,1.5014,3.2535,22.3105,2.0996,0.0129,-1.2861,0.1247
17:54:01:324,-1.5523,2.0666,2.7098,20.5954,1.8764,-0.1288,-1.2004,0.1245
17:54:01:325,-1.9858,2.3396,3.1361,20.5346,1.543,-0.3061,-1.2227,0.1239
17:54:01:335,-2.8025,2.663,3.5768,21.453,1.2788,-0.4361,-1.1924,0.1239
17:54:01:355,-3.0252,3.2665,3.5888,21.1775,1.087,-0.4798,-1.0272,0.1301
17:54:01:375,-2.9606,3.8485,3.8427,21.4958,0.8036,-0.5309,-0.8765,0.1302
17:54:01:396,-2.266,4.1719,4.53,20.0154,0.4121,-0.5315,-0.779,0.1381
17:54:01:417,-2.1846,4.3898,5.2725,19.8526,-0.0961,-0.4825,-0.7572,0.1381
17:54:01:436,-2.6181,4.1503,6.5443,18.8084,-0.7864,-0.3898,-0.7231,0.1583
17:54:01:455,-2.9893,3.5923,9.7753,20.08,-1.6318,-0.2768,-0.5739,0.1584
17:54:01:475,-3.5905,3.2857,13.3415,19.572,-2.1458,0.0753,-0.2581,0.1924
17:54:01:500,-2.963,3.0701,15.2576,22.0669,-2.1298,0.3725,0.2038,0.1927
17:54:01:520,-1.4062,2.6031,15.8708,22.8538,-1.8592,0.0971,0.501,0.228
17:54:01:539,-1.2433,1.76,16.3019,22.9334,-1.5561,-0.4707,0.4754,0.2283
17:54:01:556,-2.2732,0.8379,16.5917,22.5075,-1.2141,-0.63,0.4573,0.2544
17:54:01:578,-3.3845,0.2583,15.8995,21.7796,-0.764,-0.3567,0.6677,0.2547
17:54:01:598,-3.3078,0.0547,14.7235,22.3984,-0.3123,-0.2864,1.0528,0.2731
17:54:01:620,-2.3115,0.117,13.1859,21.5129,0.0265,-0.4798,1.4177,0.2733
17:54:01:640,-0.8529,0.3158,11.1524,21.8747,0.2465,-0.5453,1.708,0.2774
17:54:01:656,0.3303,0.6679,9.4376,22.5335,0.296,-0.4137,1.83,0.2774
17:54:01:676,0.7255,0.802,9.0568,21.037,0.1932,-0.1996,1.7597,0.2556
17:54:01:698,0.347,0.7876,8.7622,21.3437,0.1863,0.1493,1.6729,0.2554
17:54:01:720,0.0596,0.9744,7.3658,22.2011,0.3951,0.5547,1.715,0.2145
17:54:01:737,0.0117,1.2906,6.094,23.2226,0.5724,0.6255,1.7704,0.2141
17:54:01:758,0.3327,1.5229,5.7587,22.9267,0.6204,0.4007,1.7528,0.1832
17:54:01:777,0.4884,1.6019,6.3671,22.3623,0.6039,0.1775,1.6532,0.183
17:54:01:798,0.1962,1.6283,7.4808,21.859,0.5996,0.1317,1.5445,0.167
17:54:01:821,-0.3451,1.6978,7.9861,22.1291,0.6683,0.201,1.5456,0.1668
17:54:01:837,-0.1296,1.7001,8.5035,23.3091,0.6497,0.0971,1.6691,0.1667
17:54:01:856,1.0249,1.6499,10.283,22.5006,0.4606,-0.1442,1.7554,0.1667
17:54:01:878,2.8212,1.9468,11.641,22.7188,0.4079,-0.0366,1.7107,0.1748
17:54:01:899,4.1217,2.2845,11.5596,22.9527,0.5075,0.3538,1.4492,0.1749
17:54:01:926,4.172,2.3492,11.2027,23.4807,0.4989,0.4753,0.9895,0.1787
17:54:01:937,4.3181,2.2127,10.865,23.8561,0.3929,0.2953,0.5953,0.1787
17:54:01:957,4.4331,2.5432,10.3932,22.9385,0.2731,0.2084,0.3247,0.1837
17:54:01:977,4.0786,3.2043,9.9956,23.6554,0.101,0.4417,0.1089,0.193
17:54:01:998,3.5588,3.7767,9.44,23.8325,-0.0811,0.7592,-0.0652,0.193
17:54:02:017,4.0498,4.191,9.1981,25.2345,-0.3043,0.6857,-0.2149,0.193
17:54:02:037,5.0462,3.8509,10.01,23.9539,-0.6234,0.2612,-0.4669,0.2033
17:54:02:059,4.3588,2.5935,11.3441,26.0702,-0.9036,0.1152,-0.8499,0.2034
17:54:02:077,1.7793,1.0918,12.9152,24.8308,-0.9638,0.2745,-1.097,0.2137
17:54:02:098,-0.0625,0.3565,13.7679,25.7058,-0.6703,0.1754,-0.8717,0.2205
17:54:02:117,0.9674,0.8355,12.8434,26.4283,-0.1136,-0.2731,-0.3033,0.2205
17:54:02:137,2.7948,1.7241,10.0842,25.0517,0.3557,-0.6364,0.0317,0.2205
17:54:02:158,3.6259,2.3588,7.8592,25.5896,0.4435,-0.7877,-0.0706,0.2245
17:54:02:177,2.8906,2.3636,7.191,26.08,0.2315,-0.7131,-0.4077,0.2246
17:54:02:197,1.4224,2.1025,6.9922,23.8387,0.1128,-0.3482,-0.6437,0.2246
17:54:02:218,0.0525,1.8941,6.7694,25.6815,0.1836,-0.0952,-0.7226,0.2246
17:54:02:236,-0.6349,1.9253,5.9503,24.3599,0.3892,-0.116,-0.6778,0.2142
17:54:02:256,-0.5511,2.1983,5.4138,25.4101,0.5538,-0.4223,-0.5889,0.2141
17:54:02:276,-0.4026,2.3348,5.1288,25.0179,0.6113,-0.6918,-0.5729,0.1991
17:54:02:302,-0.1439,2.5097,4.9133,24.932,0.5538,-0.6993,-0.559,0.1989
17:54:02:317,0.1794,2.6199,5.2701,25.5626,0.3599,-0.5554,-0.5244,0.1823
17:54:02:337,0.4309,2.8378,6.4126,25.7982,0.1191,-0.3812,-0.4765,0.1821
17:54:02:357,0.3614,3.142,7.5239,26.4671,-0.0178,-0.173,-0.3987,0.1883
17:54:02:378,0.3399,3.4989,8.5825,26.9192,-0.0566,0.0236,-0.2623,0.1884
17:54:02:399,0.5554,4.1072,9.9166,26.2013,-0.055,0.1413,-0.0972,0.2009
17:54:02:417,1.2045,4.7706,10.7668,26.7787,0.0648,0.315,0.061,0.2011
17:54:02:437,1.159,5.2449,10.9489,28.5256,0.1927,0.4321,0.1207,0.2053
17:54:02:458,0.8883,5.5179,11.4399,26.1499,0.1905,0.3416,0.1729,0.2054
17:54:02:477,0.874,5.9083,12.8051,27.1901,0.0845,0.1786,0.2629,0.2156
17:54:02:498,1.1039,6.2604,14.1032,27.4295,0.0536,0.0662,0.3897,0.2315
17:54:02:518,2.4236,6.1478,14.0768,26.1136,0.1644,0.0348,0.4829,0.2315
17:54:02:539,2.7996,5.1778,13.3823,28.6677,0.2161,0.0619,0.2597,0.2316
17:54:02:559,0.8332,3.8533,13.2889,26.9665,0.1799,0.1323,-0.1601,0.2395
17:54:02:577,-1.6792,3.0031,12.5152,27.9233,0.3322,0.251,-0.2847,0.2396
17:54:02:598,-2.9366,2.7228,10.0794,28.761,0.631,0.2564,-0.045,0.2395
17:54:02:618,-2.5893,2.6414,7.2365,28.3975,0.7008,-0.0078,0.3204,0.2395
17:54:02:639,-0.999,2.5696,5.7372,27.7614,0.362,-0.4244,0.6043,0.2377
17:54:02:659,0.6057,2.1648,6.1228,28.1974,-0.1935,-0.7504,0.6667,0.2377
17:54:02:678,1.5182,1.5373,7.361,27.458,-0.6074,-0.8559,0.5713,0.238
17:54:02:700,1.7482,1.1828,8.0939,29.2581,-0.6783,-0.6801,0.4882,0.2383
17:54:02:717,1.5518,1.0918,8.4819,28.6488,-0.5142,-0.3381,0.4552,0.2383
17:54:02:737,0.9674,1.3121,7.8209,29.4204,-0.1871,0.1141,0.4919,0.2383
17:54:02:757,0.6464,1.6906,6.3455,28.2867,0.1442,0.4316,0.6054,0.2414
17:54:02:783,1.1853,2.2845,5.4857,27.8093,0.2784,0.3885,0.7034,0.2415
17:54:02:797,1.8536,2.6462,5.9024,29.3132,0.2198,0.1813,0.6432,0.2441
17:54:02:817,1.6715,2.766,7.0114,30.8062,0.1442,0.1093,0.4738,0.2442
17:54:02:836,1.1925,2.8809,8.2233,29.9196,0.1484,0.1152,0.3694,0.2547
17:54:02:857,1.1015,2.8067,8.7406,30.5662,0.2353,0.1077,0.3886,0.2548
17:54:02:877,1.8775,2.8929,8.8556,29.9181,0.2816,0.0539,0.4823,0.2616
17:54:02:897,2.8978,3.3025,9.107,30.0781,0.2076,0.0145,0.5111,0.2575
17:54:02:917,3.4367,3.6042,9.7034,29.5017,0.0249,0.1109,0.4115,0.2575
17:54:02:937,3.1852,3.8318,10.8028,30.0799,-0.1701,0.2968,0.2544,0.2575
17:54:02:957,3.0942,4.009,11.2027,30.0644,-0.2441,0.4279,0.1814,0.2525
17:54:02:976,3.7002,4.3563,11.0471,30.878,-0.2756,0.4279,0.1782,0.2524
17:54:02:999,4.6582,4.3252,10.7046,31.5872,-0.3858,0.299,0.0706,0.2524
17:54:03:017,5.2498,3.6114,10.4651,31.4777,-0.6474,0.0577,-0.1989,0.2524
17:54:03:036,5.312,2.1432,11.0375,31.5468,-1.0927,-0.1325,-0.5122,0.2542
17:54:03:056,4.5792,0.2463,13.4038,32.0669,-1.5913,-0.0201,-0.7305,0.2542
17:54:03:076,3.0487,-1.1165,16.5581,30.8079,-1.709,0.3096,-0.7465,0.2564
17:54:03:099,2.1625,-1.0135,17.0946,30.9364,-1.0746,0.4519,-0.4434,0.2602
17:54:03:119,3.6115,0.1721,13.7607,31.8887,-0.0284,0.1605,-0.0003,0.2602
17:54:03:136,5.4486,1.5564,9.1861,31.7804,0.7243,-0.3301,0.118,0.2603
17:54:03:157,5.7384,2.5863,5.7467,31.5598,0.8761,-0.7088,-0.216,0.2572
17:54:03:176,4.6774,2.7564,4.5372,32.0617,0.5229,-0.8425,-0.7385,0.2571
17:54:03:197,3.02,2.3947,4.6498,30.5618,0.0808,-0.5964,-1.1375,0.2487
17:54:03:217,1.5518,2.0953,4.6714,31.2503,-0.1483,-0.198,-1.2968,0.2487
17:54:03:237,0.8069,1.9732,4.53,31.873,-0.2074,-0.0622,-1.3053,0.2384
17:54:03:258,0.5961,2.0379,4.8678,31.2291,-0.2026,-0.2166,-1.2877,0.2383
17:54:03:277,0.7518,2.0834,5.4833,32.9736,-0.1525,-0.4217,-1.2968,0.2166
17:54:03:297,0.9434,2.2199,5.4953,30.7492,-0.0476,-0.4239,-1.3133,0.1893
17:54:03:329,0.9985,2.4163,5.5743,31.2577,-0.0423,-0.3344,-1.3474,0.1893
17:54:03:335,0.6752,2.6175,6.1779,31.0049,-0.1658,-0.2502,-1.3985,0.1891
17:54:03:355,0.3902,2.9408,7.3443,29.1774,-0.3113,-0.1613,-1.3831,0.1957
17:54:03:375,0.2105,3.1061,8.9059,30.2693,-0.4199,-0.1554,-1.3176,0.2149
17:54:03:397,0.0788,3.336,10.0268,31.6819,-0.437,-0.1431,-1.1924,0.2149
17:54:03:419,-0.0386,3.7168,10.9441,31.9331,-0.4572,-0.0664,-1.0097,0.2151
17:54:03:436,-0.2876,3.8797,12.0458,31.182,-0.5217,0.0449,-0.8355,0.2183
17:54:03:457,-0.6876,3.7695,13.126,32.6341,-0.5723,0.0859,-0.6661,0.2184
17:54:03:476,-0.7403,3.7479,14.5798,31.7437,-0.5941,-0.0707,-0.4424,0.2163
17:54:03:496,-0.0194,3.7934,15.8755,33.0696,-0.5089,-0.222,-0.1451,0.2182
17:54:03:518,0.9386,3.9707,15.9905,30.961,-0.2287,-0.1181,0.1084,0.2182
17:54:03:537,1.1422,3.8557,14.3259,32.4324,0.1404,0.1663,0.1489,0.2182
17:54:03:558,-0.1248,3.403,12.6422,33.2687,0.3274,0.307,-0.012,0.2188
17:54:03:576,-1.9235,2.7181,11.4997,33.3657,0.3652,0.2718,-0.0935,0.2137
17:54:03:597,-2.733,2.0283,10.4052,32.8806,0.3434,0.079,0.0887,0.2137
17:54:03:617,-1.9235,1.4008,10.1776,32.8147,0.1751,-0.2609,0.4024,0.2137
17:54:03:637,-0.1942,0.8906,11.1836,33.9244,-0.0668,-0.5533,0.6539,0.2065
17:54:03:660,1.3075,0.5745,11.7201,32.1841,-0.0913,-0.5235,0.7695,0.2064
17:54:03:676,2.0188,0.2535,10.592,33.403,0.1016,-0.2326,0.7668,0.1961
17:54:03:698,1.7242,0.1218,9.2939,34.5945,0.2129,0.0646,0.6965,0.1868
17:54:03:717,0.8045,0.3709,8.4891,32.6433,0.2299,0.3981,0.6949,0.1868
17:54:03:735,0.2225,0.8068,7.1407,32.5967,0.3812,0.8359,0.827,0.1867
17:54:03:756,-0.1871,1.1301,5.1935,32.6025,0.6071,1.1092,0.9708,0.1857
17:54:03:777,-0.3715,1.5756,3.7253,32.3174,0.7248,1.0149,1.0859,0.1904
17:54:03:798,-0.2565,2.0546,3.4355,32.6566,0.6747,0.5978,1.1178,0.1904
17:54:03:817,-0.2948,2.342,3.7469,31.7499,0.5575,0.1802,1.0837,0.1904
17:54:03:837,-0.0841,2.5121,4.4438,32.0989,0.4222,-0.0441,1.0853,0.1957
17:54:03:856,0.759,2.6294,5.6965,32.6944,0.2422,-0.2694,1.104,0.1957
17:54:03:877,2.4811,2.56,7.2652,32.3315,0.0611,-0.4968,1.0944,0.1974
17:54:03:897,4.3923,2.2606,9.1142,33.5509,-0.1525,-0.6993,0.9697,0.2005
17:54:03:918,5.8126,1.9588,11.1764,32.7919,-0.3624,-0.6753,0.6938,0.2005
17:54:03:937,5.9779,1.5349,12.5655,32.8417,-0.4577,-0.2902,0.3199,0.2005
17:54:03:956,5.0127,1.499,12.5009,32.2299,-0.4066,0.3006,0.0306,0.2016
17:54:03:977,4.3301,1.9421,11.2746,33.0953,-0.3102,0.7177,-0.102,0.2059
17:54:03:997,3.8031,2.4809,10.4962,32.7818,-0.3533,0.7747,-0.2463,0.2059
17:54:04:018,3.6666,2.7827,10.4315,32.3139,-0.5249,0.6031,-0.4067,0.2059
17:54:04:037,4.0259,2.8043,11.0423,32.2809,-0.7949,0.405,-0.5228,0.2141
17:54:04:056,3.9445,2.4091,12.0554,32.3118,-1.1044,0.4929,-0.6411,0.2142
17:54:04:077,3.6451,1.2235,13.2649,32.8138,-1.3478,0.6319,-0.73,0.2215
17:54:04:097,3.6235,-0.0674,16.0839,32.6011,-1.5028,0.3208,-0.7567,0.2257
17:54:04:118,3.4343,-0.5488,18.6946,33.1145,-1.2008,-0.1575,-0.6906,0.2257
17:54:04:137,3.9924,0.1266,16.8743,31.5572,-0.2218,-0.3914,-0.4418,0.2257
17:54:04:157,4.5001,1.0726,11.7345,31.818,0.7493,-0.5602,-0.3406,0.2226
17:54:04:178,3.9492,1.7313,7.5071,30.4787,1.0998,-0.8947,-0.5691,0.212
17:54:04:197,3.2547,1.9277,5.4114,30.9643,0.9304,-1.2634,-0.8893,0.212
17:54:04:216,2.687,1.7744,4.7743,30.9643,0.6177,-1.4375,-1.1604,0.2119
17:54:04:237,1.8775,1.5732,4.7169,30.3155,0.4281,-1.3283,-1.3522,0.1984
17:54:04:256,1.0296,1.4894,4.4821,30.3155,0.3807,-1.1115,-1.4502,0.1983
17:54:04:278,0.6416,1.4511,3.7277,31.4907,0.3716,-0.8798,-1.4342,0.178
17:54:04:298,0.4692,1.5972,3.378,30.1933,0.255,-0.6449,-1.3767,0.1487
17:54:04:318,0.2896,1.7193,4.2426,30.3043,0.0004,-0.4915,-1.3666,0.1487
17:54:04:337,-0.0673,1.6331,5.6078,30.3017,-0.2063,-0.3376,-1.3639,0.1485
17:54:04:357,-0.6541,1.6475,7.0305,29.5236,-0.2708,-0.0728,-1.2877,0.1381
17:54:04:384,-1.0852,1.7672,8.2041,30.0762,-0.2484,0.1216,-1.1407,0.1604
17:54:04:398,-1.2098,2.0905,8.9969,30.2656,-0.2085,0.1765,-0.9308,0.1604
17:54:04:419,-1.2577,2.5767,9.9286,28.0315,-0.2623,0.1562,-0.7215,0.1606
17:54:04:436,-1.5403,2.8546,10.7165,30.9425,-0.3991,0.2628,-0.5233,0.1853
17:54:04:456,-1.5403,2.8594,11.6674,28.8338,-0.6117,0.356,-0.2224,0.1855
17:54:04:479,-0.302,2.9432,13.7511,29.8497,-0.8674,0.2015,0.2016,0.2025
17:54:04:499,1.0967,3.6138,16.2803,29.1016,-0.9419,0.0348,0.5756,0.2148
17:54:04:517,2.5793,4.1168,16.7066,28.5117,-0.6436,0.0902,0.7849,0.2148
17:54:04:538,2.9577,3.633,15.0301,29.3604,-0.2596,0.0753,0.6736,0.2149
17:54:04:555,1.7314,2.5552,14.5606,29.169,-0.161,-0.1128,0.3897,0.217
17:54:04:575,0.5937,1.4175,15.5043,28.0414,-0.1136,-0.19,0.3066,0.2134
17:54:04:597,-0.1463,0.7637,15.3822,30.6701,0.1943,-0.2049,0.4328,0.2134
17:54:04:618,0.3327,0.5337,14.1942,29.1241,0.5709,-0.3488,0.6784,0.2134
17:54:04:638,1.6332,0.6703,12.1009,28.3143,0.8303,-0.3754,0.9026,0.209
17:54:04:657,2.8403,0.8092,9.6292,27.4215,0.8835,-0.1953,0.9895,0.2089
17:54:04:683,2.8092,0.8307,7.979,27.8891,0.6902,0.1056,0.8946,0.1983
17:54:04:698,1.6931,0.7733,7.7347,29.6195,0.4084,0.5435,0.7711,0.1803
17:54:04:717,0.6297,0.5936,7.852,28.8803,0.3636,0.9456,0.7668,0.1803
17:54:04:738,-0.1895,0.4451,6.7575,28.4579,0.6651,1.0964,0.8664,0.1801
17:54:04:757,-0.3499,0.5529,5.0737,27.7246,1.0375,0.8556,1.0337,0.1705
17:54:04:780,-0.0026,0.8499,3.7516,27.8062,1.2415,0.3746,1.1722,0.1682
17:54:04:797,0.2369,1.1828,2.9924,27.1378,1.2282,0.0438,1.2052,0.1682
17:54:04:817,0.3926,1.4151,2.8894,28.691,1.0311,-0.0238,1.2052,0.1682
17:54:04:838,0.9817,1.4798,3.493,27.7243,0.7679,-0.0467,1.2153,0.1762
17:54:04:858,2.0835,1.4654,4.3432,30.1191,0.5522,-0.1336,1.1876,0.1763
17:54:04:884,3.0559,1.3648,5.045,28.8625,0.3343,-0.2278,1.0571,0.1926
17:54:04:897,3.5852,1.293,7.452,28.5546,-0.0582,-0.3637,0.8717,0.2
17:54:04:917,4.1672,1.1062,9.9286,29.7382,-0.3667,-0.3061,0.7567,0.2
17:54:04:938,5.0175,1.396,11.2459,27.7995,-0.4252,-0.0755,0.73,0.2
17:54:04:957,5.8725,2.0379,11.0255,29.8185,-0.3693,0.0635,0.6523,0.2022
17:54:04:977,6.3132,2.7516,10.2687,30.2504,-0.4423,0.0928,0.3993,0.218
17:54:04:997,5.9899,3.0246,10.1753,28.5628,-0.771,0.1339,0.0386,0.218
17:54:05:018,5.9515,3.1013,11.3584,28.7064,-1.2504,0.2953,-0.2298,0.2182
17:54:05:038,6.3611,2.8594,13.0589,27.8173,-1.6493,0.6548,-0.444,0.2377
17:54:05:056,5.7935,2.2798,13.8972,29.6092,-1.7964,1.1262,-0.7242,0.2379
17:54:05:076,4.7324,1.2427,14.2948,28.1135,-1.775,1.2839,-0.9766,0.2497
17:54:05:098,4.5959,-0.0626,15.6552,26.8133,-1.7346,0.9504,-1.0741,0.254
17:54:05:118,4.3037,-0.6566,16.836,27.0979,-1.5252,0.6484,-1.0416,0.254
17:54:05:138,4.3756,-0.3548,16.06,27.2963,-0.9324,0.585,-0.8941,0.254
17:54:05:156,4.4115,0.1769,13.0973,27.5465,-0.161,0.3975,-0.8637,0.2482
17:54:05:176,3.5062,0.6439,9.5334,27.8962,0.4238,0.0694,-1.0113,0.24
17:54:05:197,2.0691,0.9313,7.0377,26.9681,0.6294,-0.1676,-1.1689,0.24
17:54:05:218,0.9913,0.9888,6.0461,26.9844,0.6076,-0.1884,-1.2046,0.24
17:54:05:237,0.2153,0.9194,5.4977,27.2879,0.6188,-0.1197,-1.1551,0.2208
17:54:05:257,-0.0338,1.0128,4.7624,26.58,0.7418,-0.1293,-1.0464,0.2206
17:54:05:276,0.3542,1.2163,3.8522,26.5301,0.8617,-0.2811,-0.9537,0.1837
17:54:05:299,0.7303,1.3361,3.6343,24.9363,0.834,-0.4595,-0.9974,0.1441
17:54:05:318,0.1243,1.3145,4.3648,26.1874,0.6747,-0.4782,-1.1594,0.1441
17:54:05:357,-0.8697,1.3145,5.4474,27.0718,0.5479,-0.2918,-1.2105,0.1437
17:54:05:358,-1.8229,1.5588,6.518,26.5693,0.4702,-0.1399,-1.1024,0.1175
17:54:05:375,-1.5451,2.1313,6.6641,25.8533,0.4254,-0.1597,-0.8312,0.1185
17:54:05:397,-0.0026,2.7707,7.1934,24.9968,0.1889,-0.4052,-0.6038,0.1185
17:54:05:419,0.8213,2.7181,9.5118,25.6243,-0.2766,-0.5895,-0.6698,0.1185
17:54:05:437,-0.508,2.1337,11.6937,26.8303,-0.6319,-0.1554,-0.8259,0.1317
17:54:05:458,-2.9534,1.7289,12.6254,25.7286,-0.7795,0.5951,-0.6895,0.1318
17:54:05:475,-3.2384,1.9564,13.6002,26.1818,-0.8088,0.8077,-0.1473,0.1457
17:54:05:498,-1.1499,2.7492,14.4457,26.5908,-0.7092,0.4092,0.4483,0.1642
17:54:05:517,1.5614,3.3288,14.5151,26.2614,-0.5696,-0.0414,0.7513,0.1642
17:54:05:539,3.4199,2.8833,14.896,26.741,-0.5696,-0.2875,0.6315,0.1644
17:54:05:557,2.5314,1.76,16.4815,25.7973,-0.6506,-0.3237,0.2208,0.1784
17:54:05:577,0.3518,0.7733,17.3054,27.142,-0.4583,-0.0249,0.0184,0.1881
17:54:05:598,-0.7307,0.1601,16.0887,25.7704,0.0515,0.2132,0.1734,0.1881
17:54:05:618,-0.7523,0.1002,13.9643,26.0418,0.5474,0.006,0.4328,0.1882
17:54:05:637,0.1794,0.2894,11.7345,27.1793,0.8223,-0.3823,0.6491,0.1902
17:54:05:656,1.2404,0.5505,9.6388,24.0328,0.826,-0.442,0.7561,0.1902
17:54:05:676,1.2093,0.7062,8.4867,25.2447,0.6076,-0.1245,0.729,0.1761
17:54:05:699,0.5387,0.7421,8.0221,26.2035,0.419,0.2628,0.6901,0.1587
17:54:05:718,-0.0865,0.7756,7.0257,25.7468,0.4489,0.5824,0.7231,0.1587
17:54:05:738,-0.4577,0.814,5.6941,28.7622,0.5724,0.6958,0.8067,0.1585
17:54:05:757,-0.3811,0.8164,4.9085,24.262,0.6545,0.5653,0.9101,0.1483
17:54:05:777,-0.2254,0.7709,4.7384,26.0685,0.7003,0.357,0.9729,0.1386
17:54:05:800,-0.2541,0.7373,4.6953,26.7083,0.7466,0.2292,1.0092,0.1386
17:54:05:817,-0.2445,0.8523,4.8654,26.1632,0.7733,0.1626,1.0736,0.1385
17:54:05:837,0.2105,1.0439,5.4593,24.1902,0.7653,0.0603,1.1397,0.1435
17:54:05:858,0.9075,1.3241,5.912,25.5949,0.7573,-0.0212,1.1743,0.1435
17:54:05:877,2.1745,1.7217,6.0964,24.7538,0.7232,-0.1197,1.1418,0.1608
17:54:05:899,3.7792,1.7624,6.3958,25.5639,0.5586,-0.3067,0.9287,0.1698
17:54:05:917,4.7803,1.7313,7.4497,27.013,0.2182,-0.507,0.4941,0.1698
17:54:05:937,4.6678,1.2211,9.246,26.7265,-0.2021,-0.5821,-0.0418,0.1699
17:54:05:957,3.7552,0.9888,10.8531,26.7803,-0.4998,-0.4883,-0.4088,0.1753
17:54:05:977,3.4583,1.19,11.1045,25.5233,-0.592,-0.2166,-0.4727,0.1847
17:54:06:000,4.0498,1.7121,10.7213,25.4835,-0.6943,0.0151,-0.4434,0.1847
17:54:06:017,4.2774,2.3468,10.4627,26.363,-0.8919,0.1956,-0.493,0.1848
17:54:06:036,4.4259,2.9863,10.8195,25.1105,-1.1593,0.4513,-0.5564,0.1973
17:54:06:056,4.0019,2.9671,12.1081,24.5533,-1.4336,0.7518,-0.6464,0.1974
17:54:06:075,2.9313,2.5193,13.49,24.3846,-1.5194,0.8956,-0.6517,0.211
17:54:06:098,3.0271,2.0091,14.2756,25.0292,-1.3995,0.6351,-0.4759,0.2241
17:54:06:117,4.0139,1.4008,15.5977,25.7025,-1.2584,0.063,-0.306,0.2241
17:54:06:137,4.6271,1.1253,16.2252,24.7363,-0.9531,-0.2156,-0.2538,0.2242
17:54:06:157,4.1361,1.075,13.9858,23.8659,-0.3933,-0.0798,-0.3369,0.2285
17:54:06:177,2.9912,1.0175,11.3776,25.7704,-0.0066,-0.1676,-0.5313,0.2286
17:54:06:200,1.7314,0.9481,9.7465,23.38,0.1479,-0.3791,-0.7098,0.2218
17:54:06:219,0.6991,0.7972,8.8101,24.4903,0.2433,-0.4617,-0.7753,0.2217
17:54:06:237,0.2752,0.596,8.1011,23.2663,0.3993,-0.3791,-0.7321,0.207
17:54:06:257,0.644,0.62,7.258,24.4877,0.63,-0.2859,-0.6496,0.2068
17:54:06:277,1.0177,0.8858,6.1827,23.312,0.8585,-0.2678,-0.648,0.1794
17:54:06:300,0.6608,1.0487,5.2701,22.5674,0.9656,-0.3115,-0.7796,0.1473
17:54:06:317,0.2249,1.0942,4.8606,24.4157,0.9011,-0.3237,-0.9074,0.1473
17:54:06:339,0.0572,1.2738,5.6222,21.0799,0.704,-0.2763,-0.9697,0.1471
17:54:06:357,0.086,1.4391,7.3467,22.6814,0.5799,-0.2417,-1.031,0.1274
17:54:06:377,-0.0936,1.5996,8.1754,20.9939,0.7061,-0.2332,-1.0736,0.1246
17:54:06:401,-0.2589,2.1432,7.4976,21.4338,0.9293,-0.1937,-1.0257,0.1246
17:54:06:419,-0.3643,2.7037,6.9203,22.841,0.9203,-0.2284,-0.999,0.1245
17:54:06:436,-0.52,3.1707,6.7168,22.2677,0.6523,-0.2587,-0.9969,0.1313
17:54:06:456,-0.3044,3.4557,7.5718,20.6034,0.1905,-0.2348,-0.9489,0.1314
17:54:06:475,-0.2469,3.3719,9.3609,21.8833,-0.315,-0.1032,-0.9106,0.1434
17:54:06:497,-0.5559,3.4581,11.1285,20.3921,-0.6602,0.1221,-0.7577,0.1627
17:54:06:517,-0.5296,4.0521,12.8865,18.9813,-0.8349,0.1972,-0.4099,0.1627
17:54:06:537,0.5626,4.4641,14.6972,22.2526,-0.9036,0.0737,-0.0434,0.1629
17:54:06:558,2.0955,4.0234,16.1222,20.3991,-0.8343,-0.1075,0.1057,0.18
17:54:06:577,1.741,3.1899,16.4935,20.5782,-0.568,-0.108,-0.0466,0.1802
17:54:06:598,-0.5415,2.3708,15.6552,20.69,-0.1488,0.1631,-0.2069,0.194
17:54:06:618,-2.6252,1.7744,13.8445,20.0333,0.2949,0.3608,-0.0903,0.1941
17:54:06:637,-3.5066,1.5253,11.9332,19.25,0.5634,0.259,0.2432,0.2129
17:54:06:656,-2.9366,1.4391,10.6854,20.373,0.5607,-0.0014,0.6693,0.2131
17:54:06:677,-1.1379,1.396,10.2711,19.8771,0.3839,-0.1394,1.0257,0.2225
17:54:06:700,0.4189,1.202,10.125,18.9308,0.2193,-0.0132,1.1509,0.2136
17:54:06:718,0.5674,0.8571,9.6627,19.522,0.1799,0.2217,1.0864,0.2136
17:54:06:737,-0.1703,0.5601,8.7813,18.3294,0.2512,0.4385,1.0443,0.2135
17:54:06:757,-0.872,0.4858,7.5886,19.6663,0.3764,0.7033,1.1445,0.1966
17:54:06:777,-0.9726,0.4571,6.3359,19.1098,0.5064,0.9355,1.3394,0.1835
17:54:06:798,-0.805,0.5385,5.318,18.6454,0.598,1.0282,1.5083,0.1835
17:54:06:819,-0.611,0.6319,4.6881,20.3342,0.6486,0.9813,1.618,0.1834
17:54:06:838,-0.3858,0.8858,4.5612,20.5897,0.6785,0.8327,1.6841,0.1838
17:54:06:857,-0.1559,1.281,4.9276,18.7145,0.7067,0.5467,1.6942,0.1838
17:54:06:878,0.2872,1.8103,5.0594,20.2019,0.7738,0.1908,1.6889,0.1938
17:54:06:898,1.1781,2.572,4.9252,20.4536,0.7797,-0.1224,1.6675,0.1997
17:54:06:919,2.1889,3.3695,4.772,21.0283,0.6215,-0.3376,1.5338,0.1997
17:54:06:938,3.5924,3.9372,4.8845,20.8885,0.2401,-0.5959,1.2904,0.1997
17:54:06:957,5.427,4.4042,6.6545,21.0573,-0.4268,-0.9464,0.8957,0.2019
17:54:06:977,6.7922,4.124,10.1034,20.498,-1.146,-1.1286,0.2751,0.2058
17:54:06:998,7.2281,3.2617,13.2505,18.4915,-1.5742,-0.8399,-0.3971,0.2058
17:54:07:022,6.1455,2.0834,14.6445,19.7841,-1.6323,-0.1389,-0.9255,0.2058
17:54:07:037,4.2702,1.3816,15.1067,17.9432,-1.4805,0.4561,-1.2052,0.2117
17:54:07:057,3.087,1.1373,15.4923,17.3133,-1.212,0.6644,-1.1844,0.2118
17:54:07:077,3.3026,1.3505,14.599,17.2026,-0.7587,0.7725,-0.9426,0.2206
17:54:07:097,4.0906,1.4223,13.3847,17.5784,-0.3832,0.7848,-0.7609,0.2352
17:54:07:119,3.3337,1.1636,13.0038,17.1,-0.177,0.7406,-0.7556,0.2352
17:54:07:138,2.4763,0.8235,12.7859,18.6868,0.068,0.4907,-0.6427,0.2353
17:54:07:157,2.3924,0.972,11.6913,17.5285,0.3796,-0.0712,-0.3662,0.247
17:54:07:177,3.954,1.4822,10.5297,17.4856,0.4872,-0.7083,-0.0818,0.2415
17:54:07:197,4.639,1.8702,9.4208,17.3869,0.3269,-0.8021,-0.1148,0.2415
17:54:07:220,3.9133,2.0355,8.7238,17.1494,0.0131,-0.5496,-0.3492,0.2415
17:54:07:240,2.3757,1.8726,8.0676,16.437,-0.2409,-0.2534,-0.5809,0.2174
17:54:07:258,1.1231,1.7457,7.6317,17.1446,-0.3459,-0.0457,-0.6693,0.2172
17:54:07:277,0.2704,1.5421,7.294,16.9407,-0.2857,0.0113,-0.6837,0.1896
17:54:07:297,-0.1727,1.5061,6.7958,17.0897,-0.0774,-0.043,-0.6309,0.1739
17:54:07:318,0.0093,1.6307,5.9695,16.3379,0.174,-0.2209,-0.5335,0.1739
17:54:07:336,0.541,1.8558,5.2797,17.535,0.328,-0.4324,-0.5058,0.1737
17:54:07:382,0.6392,2.0594,4.9444,14.927,0.3418,-0.5171,-0.5894,0.1686
17:54:07:383,0.0692,2.2295,4.8893,16.1777,0.2587,-0.4334,-0.6794,0.1791
17:54:07:397,-0.1607,2.3612,5.5695,15.668,0.1128,-0.3679,-0.6384,0.1791
17:54:07:419,-0.0338,2.6294,7.4089,15.668,-0.0455,-0.4441,-0.5628,0.1792
17:54:07:436,0.4955,3.0055,10.1992,13.881,-0.0178,-0.5203,-0.5473,0.1868
17:54:07:456,0.7207,3.3791,11.9261,13.881,0.3242,-0.5096,-0.6123,0.1869
17:54:07:477,0.7135,3.9491,11.2554,15.3501,0.7903,-0.4345,-0.664,0.1827
17:54:07:497,1.0296,4.6054,9.9381,15.3501,0.9341,-0.5421,-0.6906,0.1796
17:54:07:518,1.3218,4.694,9.7729,13.0997,0.6284,-0.6758,-0.8051,0.1796
17:54:07:537,1.1829,3.9539,11.0399,14.2998,0.0866,-0.6439,-0.9484,0.1796
17:54:07:556,0.8117,3.506,13.514,14.311,-0.3805,-0.4271,-0.8983,0.1864
17:54:07:576,0.0525,3.5036,15.5738,12.746,-0.454,0.1227,-0.6198,0.195
17:54:07:598,-0.4793,3.6402,15.3367,13.8526,-0.0593,0.8753,-0.1606,0.195
17:54:07:621,-0.5248,4.0401,13.1619,13.2833,0.4728,1.2216,0.2448,0.1983
17:54:07:637,-0.4721,4.2509,10.9177,13.5091,0.7573,1.0511,0.387,0.1983
17:54:07:657,-0.9966,4.1192,9.5932,14.877,0.7338,0.682,0.338,0.1983
17:54:07:676,-1.3295,3.5444,8.4795,14.4566,0.549,0.3,0.3151,0.2042
17:54:07:699,-0.9487,2.7181,8.1346,12.9419,0.1383,-0.1676,0.3678,0.2233
17:54:07:717,-0.2733,1.7624,10.192,13.2131,-0.4876,-0.5964,0.387,0.2233
17:54:07:737,-0.0625,0.6367,12.0817,14.4712,-0.8141,-0.5102,0.4243,0.2235
17:54:07:757,-0.2948,0.0523,11.8183,13.5129,-0.682,-0.0808,0.6155,0.2339
17:54:07:777,-0.5343,0.0212,10.0603,14.4293,-0.4274,0.2921,0.8744,0.2275
17:54:07:798,-0.3643,0.2032,8.8268,14.4822,-0.2995,0.5499,1.1184,0.2275
17:54:07:818,-0.3188,0.2823,8.5945,13.1406,-0.1925,0.7789,1.2648,0.2275
17:54:07:837,-0.5343,0.3062,7.5981,15.8905,0.1106,1.0373,1.3991,0.227
17:54:07:856,-0.7739,0.4906,5.991,15.0763,0.4494,1.1246,1.5781,0.227
17:54:07:877,-0.6134,0.9409,5.2629,15.4424,0.6151,0.8945,1.7586,0.2371
17:54:07:898,-0.4242,1.3672,6.2928,15.774,0.6406,0.4817,1.8519,0.2432
17:54:07:917,-0.3691,1.5636,7.1838,17.6583,0.7488,0.3789,1.9371,0.2432
17:54:07:939,1.2236,2.0355,7.1646,15.6475,0.8825,0.7773,2.1757,0.2433
17:54:07:956,3.19,3.142,8.4292,17.2438,0.785,0.9968,2.2482,0.2336
17:54:07:977,4.1624,3.5228,10.2064,16.7282,0.6582,0.6798,1.8923,0.2223
17:54:07:998,4.1169,3.5707,11.4207,17.2881,0.6918,0.0886,1.3799,0.2223
17:54:08:017,4.2031,3.3671,11.471,16.1857,0.7647,-0.3152,0.9884,0.2222
17:54:08:039,5.0797,3.3743,11.0279,16.4817,0.6896,-0.3013,0.7689,0.2136
17:54:08:058,5.9731,3.324,10.1657,17.4127,0.4766,0.047,0.5457,0.2135
17:54:08:077,5.633,3.5923,9.8519,18.5909,0.1713,0.3022,0.207,0.2121
17:54:08:098,5.2713,3.5036,9.828,18.9881,-0.1083,0.3773,-0.1324,0.2191
17:54:08:116,5.1683,3.4126,10.0196,17.2561,-0.3651,0.43,-0.444,0.2191
17:54:08:139,4.7324,3.0893,10.3285,17.9786,-0.6133,0.5563,-0.7614,0.2191
17:54:08:156,3.6379,2.4642,10.4483,18.7035,-0.8157,0.7683,-1.0565,0.2299
17:54:08:177,2.323,1.7552,10.992,19.0791,-0.9686,0.8972,-1.2158,0.2366
17:54:08:198,1.2356,1.1014,11.7392,17.9185,-0.9473,0.715,-1.2052,0.2366
17:54:08:218,0.9099,0.8523,12.1057,18.1864,-0.7459,0.0103,-1.0576,0.2506
17:54:08:239,1.7027,1.0655,12.2278,17.7565,-0.5616,-0.8074,-0.8589,0.2506
17:54:08:257,2.4308,1.4439,11.4063,17.1758,-0.4498,-0.9358,-0.7476,0.2508
17:54:08:275,2.0164,1.6522,10.0771,18.3234,-0.4018,-0.459,-0.7753,0.2621
17:54:08:298,0.5602,1.7169,8.6113,19.1016,-0.3347,0.0316,-0.8376,0.2597
17:54:08:317,-0.326,1.8175,6.8724,17.9904,-0.1754,0.266,-0.7748,0.2597
17:54:08:340,-0.611,2.0594,5.9599,18.1413,-0.046,0.1781,-0.6789,0.2596
17:54:08:359,-0.7762,2.069,6.3791,16.7437,0.0616,-0.1762,-0.632,0.2466
17:54:08:375,-0.7427,2.1576,6.2473,18.8422,0.3301,-0.4207,-0.5478,0.2231
17:54:08:396,-0.3308,2.5264,5.1073,18.294,0.6396,-0.4196,-0.412,0.2231
17:54:08:418,-0.0146,3.0629,4.7217,16.9176,0.7307,-0.3669,-0.3918,0.204
17:54:08:439,-0.2517,3.3096,5.4043,15.846,0.6289,-0.3631,-0.5095,0.204
17:54:08:458,-0.4577,3.5779,6.6042,18.1104,0.5176,-0.3258,-0.5841,0.2038
17:54:08:476,-0.6469,3.8988,8.343,17.2101,0.4329,-0.3306,-0.6166,0.2013
17:54:08:498,-0.6397,4.124,9.4304,16.6681,0.4324,-0.2987,-0.5713,0.1959
17:54:08:518,0.0141,4.5239,9.8998,18.0058,0.41,-0.1634,-0.4573,0.1959
17:54:08:540,0.6033,4.9862,10.0747,17.3434,0.2454,0.0651,-0.444,0.1958
17:54:08:557,0.1123,5.1467,10.0148,19.4411,-0.0646,0.4007,-0.5729,0.1917
17:54:08:577,-1.2193,4.4808,10.2806,18.8529,-0.4876,0.6015,-0.6869,0.1917
17:54:08:599,-2.1031,3.6737,12.417,17.8426,-0.9126,0.3437,-0.5516,0.1969
17:54:08:617,-1.6385,3.5204,15.6528,17.6971,-1.0341,-0.1128,-0.1281,0.2118
17:54:08:640,-0.5056,4.1383,17.3078,17.7243,-0.5685,-0.1522,0.4099,0.2118
17:54:08:658,0.874,4.8952,14.9989,18.1871,0.272,0.1775,0.7769,0.212
17:54:08:677,1.0129,5.2616,11.2962,17.9825,0.7988,0.2436,0.6991,0.2243
17:54:08:697,0.6919,4.5695,9.7753,18.2757,0.6481,-0.4137,0.3257,0.234
17:54:08:719,0.4931,3.0055,10.6088,18.9112,0.1522,-1.1648,0.0008,0.234
17:54:08:741,0.474,1.8319,12.0769,17.4382,-0.2335,-1.3113,-0.0812,0.234
17:54:08:758,0.1435,1.2451,11.5692,19.2961,-0.3113,-0.7685,-0.0322,0.24
17:54:08:776,-0.6637,1.0678,8.949,17.8002,-0.3203,0.0012,0.0573,0.24
17:54:08:797,-0.9607,0.9768,7.0784,17.7431,-0.5744,0.4204,0.1617,0.2314
17:54:08:817,-1.0756,0.7469,7.9143,17.148,-1.0075,0.4114,0.1782,0.2125
17:54:08:837,-1.7463,0.4164,9.4735,18.607,-1.1177,0.3656,0.1926,0.2125
17:54:08:858,-2.1247,0.2655,9.4328,19.1448,-0.7225,0.4428,0.3897,0.2124
17:54:08:876,-1.8947,0.4284,7.7993,18.6866,-0.1488,0.4662,0.7098,0.21
17:54:08:897,-1.1499,0.7709,5.8737,18.6651,0.2688,0.3624,0.9905,0.2242
17:54:08:917,-0.4457,1.0439,4.7624,19.7668,0.3983,0.1749,1.1237,0.2242
17:54:08:937,0.1219,1.2475,4.6235,19.2469,0.3668,0.1051,1.1509,0.2243
17:54:08:958,0.2776,1.5301,5.1528,19.9385,0.3269,0.1408,1.1194,0.2314
17:54:08:976,0.5506,1.8822,5.5527,19.7253,0.3738,0.1706,1.0907,0.2281
17:54:08:998,1.1542,2.433,5.8905,19.5472,0.4281,0.0193,1.0422,0.2281
17:54:09:017,2.0571,2.9624,6.1994,18.8924,0.3706,-0.2609,0.9101,0.211
17:54:09:036,3.408,3.0079,6.8748,20.3028,0.1245,-0.5219,0.6693,0.211
17:54:09:058,4.6151,2.663,8.8939,20.1939,-0.3368,-0.7158,0.2906,0.2109
17:54:09:076,5.2019,1.9732,11.3009,19.8972,-0.7694,-0.5187,-0.1398,0.1915
17:54:09:101,4.6869,1.2523,13.32,18.3566,-0.9909,0.1168,-0.5079,0.1899
17:54:09:117,3.6523,0.9361,14.0218,20.1922,-0.9057,0.8652,-0.6927,0.1899
17:54:09:136,2.9864,1.2211,12.92,20.598,-0.5877,1.3068,-0.7401,0.1899
17:54:09:158,1.9637,1.8702,12.5631,20.1485,-0.3981,1.2743,-0.8621,0.1962
17:54:09:177,0.953,2.4163,12.7907,20.7003,-0.2601,1.1497,-0.9415,0.2018
17:54:09:199,0.7231,3.1707,13.89,20.3728,-0.095,0.7688,-0.8664,0.2018
17:54:09:217,1.3865,3.9108,14.2086,21.3655,0.231,0.242,-0.7076,0.2102
17:54:09:237,3.4391,4.1192,11.665,19.674,0.6081,-0.2092,-0.5921,0.2102
17:54:09:258,5.4462,3.2833,9.9813,18.3096,0.3306,-0.9235,-0.8387,0.2103
17:54:09:280,4.5384,1.4295,12.5799,19.0993,-0.5776,-1.3465,-1.4672,0.2135
17:54:09:299,0.7997,-0.0794,14.896,19.6176,-1.0021,-0.5581,-1.8188,0.1997
17:54:09:316,-1.9379,-0.4339,14.0218,19.0298,-0.6048,0.4263,-1.5099,0.1997
17:54:09:337,-2.5414,-0.0195,11.3584,18.3697,0.0744,0.4588,-0.9777,0.1995
17:54:09:359,-1.945,0.5864,8.7382,18.3104,0.6294,-0.223,-0.566,0.1777
17:54:09:401,-1.0205,1.1373,7.0521,19.7822,0.9496,-0.9816,-0.3598,0.1619
17:54:09:402,-0.6182,1.4774,5.6318,17.4872,1.1264,-1.3566,-0.3092,0.1619
17:54:09:418,-0.4888,1.7696,4.166,17.5399,1.1712,-1.315,-0.282,0.1587
17:54:09:436,-0.2805,1.9588,3.4235,16.345,1.0076,-1.1147,-0.2751,0.1587
17:54:09:456,-0.0936,2.0331,3.5193,17.24,0.6987,-0.8495,-0.3177,0.1587
17:54:09:476,-0.12,2.0642,4.1612,17.515,0.3935,-0.4835,-0.3944,0.1706
17:54:09:500,-0.678,2.1265,5.1264,16.7916,0.2022,-0.1378,-0.4834,0.1616
17:54:09:517,-1.2337,2.1576,6.0102,16.4092,0.1522,-0.0212,-0.5399,0.1616
17:54:09:537,-1.6385,2.469,7.3467,15.8174,0.1729,-0.125,-0.5633,0.1615
17:54:09:560,-2.1127,2.6702,8.4819,15.8389,0.2209,-0.2449,-0.5676,0.1532
17:54:09:579,-2.4432,3.2593,9.4424,16.2773,0.215,-0.2273,-0.4839,0.1532
17:54:09:598,-1.9786,3.8629,9.8447,15.5468,0.1431,-0.043,-0.3348,0.1711
17:54:09:619,-1.3654,4.1527,9.9908,16.4133,-0.0417,0.2383,-0.2602,0.2
17:54:09:637,-1.6313,3.8078,10.2878,17.449,-0.4178,0.5136,-0.2639,0.2
17:54:09:660,-2.357,3.4653,12.2853,17.3608,-0.9446,0.6404,-0.0961,0.2002
17:54:09:678,-1.866,3.6042,15.933,16.582,-1.2631,0.6292,0.3598,0.2214
17:54:09:698,-0.587,4.2198,17.7389,16.2436,-0.9212,0.7011,0.8765,0.2288
17:54:09:720,0.0716,4.4186,15.4013,17.6958,-0.1456,0.7155,1.128,0.2288
17:54:09:737,-0.5152,4.1288,12.1105,16.5368,0.3019,0.4124,1.0944,0.2288
17:54:09:758,-0.6517,3.2402,11.0111,17.255,0.2033,-0.0963,1.0576,0.2323
17:54:09:777,-0.1871,2.4163,12.1823,16.3093,-0.0854,-0.5506,1.0646,0.2375
17:54:09:798,0.2129,1.7361,12.7619,16.8141,-0.1621,-0.5714,1.1104,0.2375
17:54:09:821,0.7087,1.3529,11.483,15.2982,-0.0689,-0.2939,1.2137,0.2381
17:54:09:837,1.6667,1.166,9.3058,16.9347,-0.0433,-0.0307,1.2622,0.2381
17:54:09:858,1.947,0.8427,8.7406,15.5848,-0.258,-0.0409,1.1008,0.2381
17:54:09:877,1.0752,0.4571,9.2531,16.5615,-0.4423,-0.0148,0.9096,0.2227
17:54:09:898,0.2752,0.2775,9.4208,18.3568,-0.3171,0.2478,0.9154,0.1991
17:54:09:919,0.2297,0.22,8.4364,17.377,0.0771,0.5291,1.055,0.1991
17:54:09:938,0.5985,0.505,6.8653,15.6547,0.5117,0.6271,1.1924,0.1989
17:54:09:956,0.9434,0.9217,5.2845,16.185,0.8303,0.4913,1.2361,0.1978
17:54:09:976,1.2739,1.4271,4.2091,16.1896,0.9554,0.2702,1.1807,0.201
17:54:09:998,1.523,1.8846,4.0582,16.2726,0.8761,0.136,1.0411,0.201
17:54:10:018,1.5614,2.1025,4.4558,16.8265,0.7083,0.1727,0.8574,0.2014
17:54:10:037,1.8559,2.2678,5.4665,17.4325,0.4995,0.1733,0.6853,0.2014
17:54:10:056,2.3469,2.2199,6.676,17.3151,0.2598,0.0172,0.4818,0.2015
17:54:10:078,3.2092,1.9852,8.24,15.5277,-0.0391,-0.1676,0.2469,0.1987
17:54:10:098,3.4798,1.6978,10.3285,18.2832,-0.3906,-0.2294,-0.0615,0.1908
17:54:10:123,3.0104,1.3936,11.5213,16.0948,-0.6042,0.0678,-0.3081,0.1908
17:54:10:137,2.711,1.6834,11.5117,16.8265,-0.6841,0.4907,-0.3753,0.1907
17:54:10:156,2.6439,2.2055,11.4566,17.4478,-0.7981,0.5978,-0.4317,0.1917
17:54:10:178,2.2463,2.5025,11.5237,17.5942,-0.9451,0.5866,-0.5617,0.2048
17:54:10:198,2.0236,2.6199,12.1009,18.2691,-1.1278,0.4987,-0.673,0.2048
17:54:10:221,1.6691,2.1169,13.0206,18.5852,-1.3239,0.3746,-0.7854,0.2178
17:54:10:238,0.8428,1.0343,14.6277,16.4724,-1.489,0.3512,-0.8334,0.2178
17:54:10:257,-0.1487,-0.0387,16.6228,18.3177,-1.456,0.4258,-0.6799,0.2179
17:54:10:279,-0.0218,-0.295,17.6695,19.5427,-1.0304,0.2132,-0.2581,0.2239
17:54:10:299,3.1685,0.2008,16.7018,19.7812,-0.3342,-0.3775,0.2437,0.2219
17:54:10:322,5.803,1.0175,14.8816,18.8864,0.312,-0.7477,0.2416,0.2219
17:54:10:338,4.6462,1.1397,12.5176,17.7331,0.8526,-0.7461,-0.2948,0.2219
17:54:10:357,2.0236,1.0511,9.0232,17.4507,1.3283,-0.5911,-0.7172,0.2083
17:54:10:379,0.553,1.1205,5.5743,16.5653,1.5606,-0.4883,-0.8014,0.1879
17:54:10:397,0.6488,1.2978,3.9504,17.0661,1.3976,-0.5608,-0.7641,0.1879
17:54:10:422,1.2213,1.4151,4.1923,16.3561,1.038,-0.5272,-0.8073,0.1623
17:54:10:439,1.1973,1.4175,4.6187,16.5704,0.8249,-0.271,-0.9495,0.1623
17:54:10:458,0.3902,1.3074,4.4941,17.275,0.7882,-0.1517,-1.1221,0.162
17:54:10:479,-0.4409,1.3529,4.3001,19.125,0.7584,-0.2896,-1.2004,0.1324
17:54:10:498,-0.5846,1.6283,4.5061,17.0529,0.6625,-0.4569,-1.1578,0.1204
17:54:10:519,-0.599,1.9756,5.2917,17.0389,0.5149,-0.5629,-1.1093,0.1204
17:54:10:537,-0.7547,2.548,6.1755,17.2313,0.4324,-0.5405,-1.0667,0.1203
17:54:10:557,-0.896,3.0941,6.7215,15.4913,0.3993,-0.5118,-1.0134,0.1365
17:54:10:580,-0.7259,3.6282,7.0569,16.5037,0.272,-0.4936,-0.941,0.1366
17:54:10:600,-0.7667,3.9755,8.3047,15.9759,-0.0556,-0.4377,-0.9303,0.1668
17:54:10:621,-1.8325,3.8557,10.3142,16.914,-0.4631,-0.2758,-0.9591,0.1931
17:54:10:638,-3.0204,3.6378,12.1225,16.914,-0.7321,0.1195,-0.7556,0.1931
17:54:10:657,-3.0923,3.7336,13.7008,17.8675,-0.8109,0.4428,-0.2954,0.1933
17:54:10:680,-2.1127,4.2964,14.6373,17.5327,-0.6879,0.5046,0.2016,0.2094
17:54:10:698,-0.714,4.7084,14.7618,17.7483,-0.4641,0.34,0.5276,0.2248
17:54:10:717,0.3423,4.4904,14.302,18.0543,-0.2915,0.1701,0.6065,0.2248
17:54:10:737,-0.2565,3.7432,13.9212,18.0543,-0.2383,0.1711,0.51,0.2249
17:54:10:758,-1.6169,3.0917,13.7942,18.3078,-0.1589,0.2846,0.5159,0.2367
17:54:10:781,-1.9953,2.7157,12.6134,17.5853,0.092,0.2691,0.7295,0.2368
17:54:10:797,-0.9511,2.457,10.6734,17.5853,0.2805,-0.0084,0.9708,0.2457
17:54:10:818,0.3734,2.2438,9.713,17.8047,0.1399,-0.296,1.0449,0.2428
17:54:10:836,1.5087,1.7265,10.4675,18.5187,-0.1701,-0.3232,0.9783,0.2428
17:54:10:856,1.3194,1.0367,10.9058,17.3848,-0.3091,-0.0643,0.843,0.2428
17:54:10:875,0.3327,0.7325,10.2687,18.6691,-0.2074,0.307,0.7982,0.2271
17:54:10:898,-0.4912,0.6679,9.1166,18.6309,0.0078,0.5792,0.893,0.2141
17:54:10:919,-0.6134,0.8451,7.4808,18.8394,0.2997,0.7715,1.0795,0.2141
17:54:10:938,-0.3739,1.0678,5.9192,18.761,0.5559,0.8002,1.2228,0.214
17:54:10:956,-0.2565,1.2355,4.7887,18.2546,0.7019,0.6665,1.2467,0.2083
17:54:10:977,-0.2853,1.4606,4.3504,17.774,0.7216,0.4353,1.2132,0.2062
17:54:10:996,-0.1679,1.6834,4.9707,18.52,0.6358,0.2106,1.17,0.2062
17:54:11:019,0.0429,1.7816,6.3311,19.4694,0.5549,0.0843,1.1359,0.2111
17:54:11:037,0.7997,1.9947,7.7442,17.5104,0.5906,0.0065,1.1397,0.2111
17:54:11:056,1.7817,2.3516,8.1394,17.7191,0.7386,-0.149,1.0837,0.2111
17:54:11:076,2.5409,2.7085,7.8065,18.0444,0.7722,-0.3413,0.8893,0.2078
17:54:11:097,3.372,2.7947,7.9382,19.2692,0.4973,-0.4494,0.6507,0.2031
17:54:11:120,4.3492,2.766,9.2484,18.0187,-0.0012,-0.3807,0.3859,0.2031
17:54:11:137,4.5648,2.4809,10.889,19.3813,-0.478,-0.0584,0.0727,0.203
17:54:11:156,4.2367,2.4809,11.7991,19.426,-0.7411,0.3837,-0.1654,0.2057
17:54:11:176,3.6379,2.6582,11.768,20.6346,-0.8248,0.6308,-0.339,0.2151
17:54:11:197,3.4559,2.9456,11.5836,20.5208,-0.8722,0.6495,-0.4552,0.2151
17:54:11:217,3.6547,3.1899,11.1596,20.4561,-0.9345,0.6436,-0.5713,0.2251
17:54:11:237,3.4678,2.8594,10.5561,19.8525,-1.0788,0.675,-0.762,0.2251
17:54:11:256,2.6607,1.8462,10.9058,18.6353,-1.351,0.7571,-0.9607,0.2367
17:54:11:276,1.3602,0.6152,12.8506,21.3871,-1.5806,0.7571,-1.039,0.2379
17:54:11:297,0.8883,-0.0171,14.5559,21.3372,-1.4395,0.4684,-0.8387,0.2526
17:54:11:319,2.9194,0.4643,15.8612,20.803,-0.9798,-0.19,-0.4631,0.2526
17:54:11:336,5.3432,1.1948,15.5905,18.9654,-0.331,-0.6209,-0.3689,0.2506
17:54:11:357,4.4402,1.4726,12.3907,18.4954,0.3093,-0.4595,-0.7167,0.2504
17:54:11:378,1.8152,1.3409,9.2172,20.0272,0.5586,-0.3083,-1.1066,0.2324
17:54:11:411,-0.132,1.2259,8.0029,19.5687,0.4531,-0.3333,-1.2446,0.2324
17:54:11:416,-1.2385,1.1014,7.8616,20.238,0.3647,-0.2646,-1.1625,0.2109
17:54:11:436,-1.5451,1.2211,7.3395,17.777,0.5288,-0.1362,-0.9505,0.2109
17:54:11:455,-1.49,1.4582,6.2425,17.0653,0.8324,-0.166,-0.7353,0.1859
17:54:11:475,-1.0661,1.7457,5.1073,18.7683,1.0806,-0.3823,-0.5723,0.1831
17:54:11:497,-0.4002,2.0858,4.2858,20.3444,1.1595,-0.589,-0.5217,0.1506
17:54:11:519,0.3015,2.3564,4.3073,18.8152,1.038,-0.6625,-0.6171,0.1506
17:54:11:536,0.0381,2.5576,4.8773,18.2001,0.8228,-0.5549,-0.8392,0.1425
17:54:11:556,-1.1762,2.6366,5.5671,19.2731,0.6252,-0.3551,-1.0336,0.1416
17:54:11:576,-2.4624,2.9432,6.3383,17.4274,0.4483,-0.2523,-1.0544,0.1521
17:54:11:598,-2.3354,3.3144,6.882,18.7061,0.2896,-0.28,-0.8552,0.1521
17:54:11:617,-1.1762,3.7671,8.0915,18.2073,0.0494,-0.426,-0.6821,0.1614
17:54:11:637,-0.9247,3.8413,9.1861,18.4985,-0.2037,-0.3908,-0.6938,0.1614
17:54:11:656,-1.9235,3.4677,9.725,19.2333,-0.4482,-0.067,-0.7162,0.1734
17:54:11:676,-2.8025,3.1683,10.9177,18.7906,-0.7789,0.1498,-0.5351,0.1747
17:54:11:699,-2.4887,3.1875,13.2745,20.3611,-1.0826,0.1743,-0.1574,0.1984
17:54:11:718,-1.4493,3.3671,15.6025,18.8826,-1.1262,0.2937,0.2448,0.1984
17:54:11:737,-0.4385,3.4725,16.2683,19.0875,-0.8423,0.4801,0.5388,0.217
17:54:11:756,0.1842,3.4126,15.672,18.6283,-0.4322,0.4087,0.6384,0.2191
17:54:11:777,-0.2062,3.0558,14.6636,19.8205,-0.0545,0.2031,0.5718,0.2304
17:54:11:799,-1.3103,2.7085,12.9464,18.0881,0.2795,0.1818,0.5617,0.2304
17:54:11:818,-1.6528,2.4474,10.9537,19.0177,0.434,0.1823,0.6975,0.2352
17:54:11:837,-0.8984,2.2798,9.998,19.9219,0.2992,0.0859,0.8536,0.2352
17:54:11:856,0.0956,2.0666,9.7609,17.7641,0.0142,0.0987,0.9239,0.2306
17:54:11:876,1.0847,1.6642,9.9693,20.1418,-0.258,0.2185,0.8813,0.23
17:54:11:899,1.0847,1.1349,10.1585,20.6986,-0.3976,0.3597,0.7178,0.2116
17:54:11:919,0.256,0.6631,10.0699,19.1267,-0.3587,0.4705,0.5985,0.2116
17:54:11:937,-0.5248,0.5625,9.7705,18.4951,-0.1515,0.5664,0.6411,0.1932
17:54:11:956,-0.7954,0.6415,8.4149,20.3767,0.2278,0.7209,0.8131,0.1912
17:54:11:975,-0.7164,0.8283,6.4437,19.1356,0.6065,0.8322,1.0129,0.1852
17:54:11:996,-0.508,1.099,4.9588,19.802,0.8164,0.7331,1.1386,0.1852
17:54:12:016,-0.2302,1.3648,4.5444,19.522,0.843,0.446,1.1562,0.1912
17:54:12:036,-0.2469,1.5181,5.0378,20.7962,0.7797,0.136,1.1104,0.1912
17:54:12:056,-0.1535,1.7025,5.9503,20.5745,0.7493,-0.0654,1.1045,0.1937
17:54:12:076,0.577,2.057,6.5731,21.6623,0.7908,-0.2209,1.1333,0.194
17:54:12:097,1.4655,2.4762,6.5443,20.8766,0.8159,-0.3791,1.0731,0.1865
17:54:12:117,2.0284,2.8043,6.4293,21.9658,0.6348,-0.5373,0.8728,0.1865
17:54:12:136,2.7302,2.8163,7.5407,23.299,0.1442,-0.6705,0.6161,0.1795
17:54:12:156,3.3289,2.5336,9.7346,21.8402,-0.4535,-0.6428,0.3556,0.1788
17:54:12:176,3.5804,2.3468,11.5069,20.5436,-0.8477,-0.2816,0.1617,0.182
17:54:12:196,3.5445,2.6989,11.8877,20.6896,-0.9654,0.2196,0.0338,0.182
17:54:12:218,3.5086,3.1588,11.3896,20.6452,-0.9803,0.3869,-0.1324,0.1941
17:54:12:236,3.5014,3.3216,10.7644,20.2824,-1.0874,0.3544,-0.3614,0.1941
17:54:12:256,3.7505,3.1971,10.9297,21.1008,-1.3702,0.4231,-0.6054,0.2073
17:54:12:276,3.2643,2.4881,12.4961,20.8173,-1.7244,0.6228,-0.9074,0.2088
17:54:12:298,1.4847,1.3744,14.4744,21.7175,-1.848,0.9068,-1.1423,0.2266
17:54:12:318,-0.2038,0.6655,16.23,22.2187,-1.5428,0.9744,-1.0928,0.2266
17:54:12:337,-0.2086,0.232,16.4312,22.7289,-0.8391,0.4833,-0.795,0.239
17:54:12:356,1.9278,0.5481,15.1355,22.1063,-0.1227,-0.3882,-0.4488,0.239
17:54:12:376,4.2247,1.19,13.6409,20.9074,0.2678,-0.9086,-0.3966,0.2315
17:54:12:397,3.9397,1.2642,11.5716,20.9406,0.3897,-0.711,-0.7204,0.2315
17:54:12:417,1.5111,0.972,9.816,19.1264,0.3248,-0.2587,-1.081,0.2119
17:54:12:438,-0.4314,0.723,9.0951,20.4381,0.2502,0.0374,-1.1578,0.2119
17:54:12:456,-1.387,0.6894,8.4173,20.7785,0.4201,0.1978,-1.0059,0.1891
17:54:12:476,-1.5978,0.8619,7.1503,19.5471,0.8228,0.194,-0.7577,0.1866
17:54:12:498,-1.3511,1.1325,5.5671,21.7864,1.258,-0.0254,-0.5292,0.1479
17:54:12:516,-0.8505,1.499,4.0678,19.5879,1.552,-0.3562,-0.3971,0.1479
17:54:12:537,-0.2062,1.9085,3.0762,19.9936,1.5989,-0.6039,-0.3955,0.1201
17:54:12:556,0.0141,2.3756,2.8798,18.7588,1.4045,-0.5943,-0.5217,0.1201
17:54:12:576,-0.4793,2.7707,3.2247,21.829,1.0822,-0.4026,-0.6991,0.126
17:54:12:597,-0.8888,3.1108,4.1181,18.2216,0.7104,-0.2529,-0.8211,0.126
17:54:12:617,-0.4601,3.2114,6.2737,19.1469,0.2891,-0.4042,-0.8813,0.1357
17:54:12:641,-0.1032,3.0941,8.7358,19.8579,-0.0204,-0.6311,-0.982,0.1357
17:54:12:656,-0.8146,2.9719,9.6723,19.7354,-0.1451,-0.5267,-1.0619,0.1402
17:54:12:676,-2.5654,2.9719,9.3489,19.2253,-0.2846,-0.0084,-0.9974,0.1407
17:54:12:698,-3.9282,3.1276,9.7441,18.45,-0.5941,0.4646,-0.6911,0.1592
17:54:12:720,-3.8635,3.5491,11.7009,19.0619,-0.8881,0.3789,-0.2064,0.1592
17:54:12:736,-2.1271,4.0306,14.1176,19.759,-0.9249,-0.1868,0.2661,0.1881
17:54:12:757,0.1818,4.4689,15.751,19.3139,-0.6825,-0.6444,0.5702,0.1913
17:54:12:776,0.9027,4.8593,15.3319,19.2178,-0.2287,-0.6444,0.615,0.217
17:54:12:797,0.0405,4.7754,12.8051,16.8656,0.1681,-0.3844,0.525,0.217
17:54:12:817,-0.9128,4.2749,11.0758,16.6395,0.199,-0.2491,0.4738,0.2275
17:54:12:837,-1.1211,3.7312,11.0686,19.6932,0.0227,-0.2923,0.5159,0.2275
17:54:12:856,-0.5798,3.1085,11.9668,20.5392,-0.1168,-0.4761,0.5729,0.2283
17:54:12:876,-0.0697,2.4977,12.6374,17.9531,-0.128,-0.6071,0.5947,0.2284
17:54:12:897,0.6105,2.0091,12.5296,18.1538,-0.0103,-0.6508,0.6336,0.2184
17:54:12:919,1.8128,1.7337,11.1668,19.7131,0.1511,-0.6518,0.6358,0.2184
17:54:12:936,2.0356,1.4056,10.0579,17.5783,0.1,-0.5991,0.4605,0.2026
17:54:12:957,0.8644,0.9409,9.3825,18.8372,-0.0678,-0.1634,0.2853,0.2008
17:54:12:976,-0.872,0.6846,8.9059,17.9681,-0.1174,0.527,0.3151,0.1956
17:54:12:997,-1.8133,0.5984,7.6365,19.6554,0.1,1.0527,0.5575,0.1956
17:54:13:018,-1.6385,0.7852,5.9527,18.1854,0.4382,1.1656,0.8691,0.2008
17:54:13:036,-0.9583,1.0415,4.5085,18.3971,0.7024,0.8929,1.0901,0.2008
17:54:13:056,-0.4649,1.2786,3.7995,19.4809,0.7919,0.47,1.1434,0.2019
17:54:13:076,-0.3116,1.4056,4.2738,17.5841,0.7024,0.1658,1.0853,0.202
17:54:13:097,-0.1056,1.4511,5.5623,18.9143,0.5677,0.0918,1.0683,0.204
17:54:13:118,0.8907,1.5205,6.9203,18.5945,0.4867,0.0662,1.1248,0.204
17:54:13:136,2.4906,1.554,7.6053,20.5496,0.3972,-0.0169,1.1354,0.209
17:54:13:157,4.4115,1.6019,8.7143,18.8214,0.0946,-0.1852,0.9932,0.2096
17:54:13:175,5.4438,1.3265,11.1524,17.9421,-0.3864,-0.3061,0.623,0.2066
17:54:13:197,5.518,1.1086,13.2481,18.1248,-0.6367,-0.0403,0.2794,0.2066
17:54:13:216,4.8666,1.6379,12.4051,18.5178,-0.5041,0.5163,0.1052,0.2048
17:54:13:236,4.4187,2.4833,10.5369,18.7755,-0.3986,0.6942,-0.0418,0.2048
17:54:13:257,4.5983,2.9552,9.9166,17.7628,-0.5872,0.4646,-0.2581,0.2134
17:54:13:276,4.5744,3.1013,10.4459,17.9108,-0.9249,0.3496,-0.5558,0.2143
17:54:13:297,3.5996,2.4857,11.5596,18.6539,-1.2573,0.5259,-0.893,0.2252
17:54:13:318,1.7482,1.6307,13.2577,18.8897,-1.432,0.854,-1.0944,0.2252
17:54:13:336,0.3327,0.972,14.6541,20.6506,-1.2754,0.9036,-1.0171,0.2323
17:54:13:356,0.8332,0.5505,14.8624,18.62,-0.8088,0.3373,-0.7183,0.2331
17:54:13:379,2.8212,0.6918,14.7211,18.4692,-0.3805,-0.5405,-0.4349,0.2325
17:54:13:396,4.5217,1.2307,13.7367,17.6907,-0.0854,-0.8271,-0.3619,0.2324
17:54:13:418,4.1624,1.578,11.2267,16.4632,0.1357,-0.3333,-0.5356,0.2204
17:54:13:436,2.1817,1.4894,8.9514,16.6746,0.1948,0.0454,-0.8126,0.2204
17:54:13:456,0.7183,1.3624,7.7826,18.2716,0.1799,0.0518,-0.9346,0.2084
17:54:13:476,-0.2278,1.2451,7.3395,19.4432,0.2172,-0.0718,-0.925,0.2071
17:54:13:498,-0.7619,1.3074,6.7694,17.966,0.419,-0.1868,-0.8131,0.184
17:54:13:517,-0.5224,1.4487,6.0366,17.4611,0.7131,-0.3919,-0.6448,0.184
17:54:13:536,0.1794,1.693,5.3228,15.9795,0.9725,-0.6391,-0.5505,0.1557
17:54:13:556,0.6704,2.0139,4.4103,16.9483,1.1323,-0.752,-0.5915,0.1526
17:54:13:576,0.3518,2.3253,3.7564,16.3435,1.1057,-0.7035,-0.7353,0.1422
17:54:13:597,-0.4769,2.6318,3.5529,14.4465,0.9134,-0.4915,-0.8557,0.1422
17:54:13:617,-1.2265,2.924,3.948,16.018,0.5831,-0.1868,-0.8728,0.1465
17:54:13:637,-1.8109,3.2067,5.8497,15.4693,0.1468,0.0087,-0.8744,0.1465
17:54:13:656,-2.1223,3.0917,9.1334,15.4243,-0.2271,-0.141,-0.8717,0.1493
17:54:13:677,-1.4109,3.3168,11.1548,14.7361,-0.2623,-0.3472,-0.7226,0.1496
17:54:13:697,-1.5187,3.3096,11.1213,15.5703,-0.201,-0.3306,-0.6624,0.1563
17:54:13:717,-2.7163,2.7492,11.0854,15.2078,-0.4418,-0.1213,-0.6277,0.1563
17:54:13:737,-3.5737,2.3923,12.8051,17.9164,-0.9063,0.039,-0.3465,0.1751
17:54:13:756,-2.9606,2.457,15.8588,16.7689,-1.2157,0.0465,0.1851,0.1751
17:54:13:779,-1.0517,2.6031,17.8251,16.0847,-1.065,0.1157,0.7343,0.1977
17:54:13:797,0.9841,2.7588,17.8563,14.7378,-0.5542,0.1855,1.0081,0.2002
17:54:13:817,1.068,2.6151,16.2588,16.8606,0.0563,0.1189,0.9223,0.2161
17:54:13:837,-0.4457,2.3947,13.7248,14.5655,0.5783,0.0779,0.787,0.2161
17:54:13:856,-1.0708,2.2822,11.2602,15.0473,0.8612,-0.0515,0.868,0.2157
17:54:13:876,-0.5176,2.2319,9.2579,13.7957,0.8596,-0.2854,1.0156,0.2156
17:54:13:897,1.0081,2.0762,8.846,13.901,0.5357,-0.5176,1.0821,0.2128
17:54:13:916,2.1338,1.6738,9.44,14.3104,0.125,-0.565,0.974,0.2128
17:54:13:938,2.1673,1.1373,9.737,16.8447,-0.1152,-0.2944,0.7593,0.2003
17:54:13:956,1.2763,0.7134,9.5477,13.3677,-0.1557,0.1115,0.5846,0.2002
17:54:13:979,0.1411,0.5673,9.0663,15.1957,-0.0194,0.4167,0.5644,0.178
17:54:13:995,-0.4266,0.5313,7.955,15.1957,0.2688,0.6532,0.7135,0.178
17:54:14:016,-0.1607,0.7014,6.7239,15.3859,0.5799,0.7896,0.9548,0.1724
17:54:14:035,0.2824,0.9553,5.5408,15.3859,0.8516,0.7688,1.1226,0.1724
17:54:14:056,0.5363,1.2211,4.5995,15.6704,1.0311,0.6282,1.1647,0.1845
17:54:14:076,0.6177,1.5157,4.5612,15.6704,1.0428,0.381,1.1258,0.1858
17:54:14:098,0.7662,1.7313,4.9875,15.2049,0.9757,0.1754,1.0736,0.2009
17:54:14:117,1.2668,2.081,5.548,17.2998,0.8979,0.0332,1.0443,0.2009
17:54:14:139,2.2583,2.4378,5.9384,15.5738,0.8042,-0.0963,0.9708,0.2031
17:54:14:156,3.487,2.6318,6.0845,15.8241,0.6252,-0.2427,0.7705,0.2031
17:54:14:177,4.6127,2.5456,6.7455,18.2502,0.207,-0.4686,0.4163,0.1996
17:54:14:197,4.9169,2.2414,8.3526,14.6849,-0.4093,-0.5592,-0.012,0.1996
17:54:14:217,4.7205,2.0474,9.9357,16.5248,-0.9553,-0.1756,-0.3183,0.2025
17:54:14:236,4.4354,2.1121,11.0758,16.9835,-1.302,0.4194,-0.5004,0.2025
17:54:14:256,4.0953,2.5001,11.7632,16.9501,-1.448,0.7219,-0.6656,0.2137
17:54:14:280,3.4343,2.9097,12.5871,17.3421,-1.4986,0.6708,-0.8701,0.2149
17:54:14:297,2.814,3.0558,13.5787,16.7093,-1.4842,0.5025,-1.039,0.2313
17:54:14:317,2.4595,2.6941,14.6277,17.3533,-1.4048,0.3778,-1.1492,0.2313
17:54:14:337,1.5566,1.8726,15.4947,17.5438,-1.2307,0.3315,-1.2195,0.2469
17:54:14:356,0.7638,1.0655,16.048,17.1226,-0.935,0.1818,-1.1364,0.2469
17:54:14:379,0.8356,0.7876,16.7976,18.08,-0.5771,-0.255,-0.9063,0.2561
17:54:14:398,1.9853,0.9481,15.8947,18.0089,-0.0545,-0.6044,-0.6182,0.2572
17:54:14:417,3.1565,1.3553,12.3069,18.3521,0.5059,-0.5885,-0.4903,0.2481
17:54:14:442,2.8164,1.5373,9.0759,18.183,0.6662,-0.5624,-0.6847,0.2481
17:54:14:457,1.5135,1.4008,7.5934,17.0384,0.4787,-0.483,-0.9532,0.2221
17:54:14:477,0.2896,1.1134,7.2844,17.3758,0.2997,-0.2236,-1.0763,0.2192
17:54:14:496,-0.5822,0.8427,7.1024,17.7476,0.3455,0.0188,-1.0736,0.1879
17:54:14:516,-1.1642,0.7565,6.4437,18.5314,0.5746,0.0177,-0.9916,0.1879
17:54:14:536,-1.3295,0.8595,5.6462,18.2695,0.8143,-0.2113,-0.8611,0.1613
17:54:14:556,-1.1954,0.9792,5.1671,18.5628,0.9293,-0.4755,-0.7604,0.1613
17:54:14:577,-1.0181,1.1565,5.1719,15.8664,0.9166,-0.5656,-0.6975,0.1475
17:54:14:597,-0.6804,1.475,5.2414,17.9312,0.8521,-0.4595,-0.6368,0.1475
17:54:14:617,-0.6661,1.9109,5.8737,17.81,0.7413,-0.3264,-0.6432,0.1557
17:54:14:636,-1.0181,2.3947,6.3311,18.506,0.6769,-0.2555,-0.6491,0.1557
17:54:14:656,-1.2648,2.9911,6.1563,17.1439,0.6087,-0.2172,-0.5905,0.1684
17:54:14:677,-1.2457,3.3791,6.3767,18.2759,0.337,-0.2747,-0.5265,0.1698
17:54:14:697,-1.2241,3.6426,7.6987,17.5853,-0.1248,-0.2763,-0.4509,0.1767
17:54:14:716,-1.7223,3.5228,9.4663,19.1671,-0.5797,-0.0574,-0.339,0.1767
17:54:14:735,-2.1606,3.4222,11.0279,19.8713,-0.8849,0.2185,-0.077,0.1905
17:54:14:757,-1.6265,3.5827,12.817,19.8992,-1.0325,0.2004,0.3263,0.1905
17:54:14:777,-0.3691,3.8725,14.4505,21.5242,-1.0011,-0.0291,0.6949,0.2107
17:54:14:797,0.7279,4.0593,15.1498,24.9977,-0.7614,-0.0861,0.9037,0.2107
17:54:14:817,0.9434,3.7791,14.678,20.8031,-0.4487,-0.0217,0.9149,0.2277
17:54:14:836,0.4596,3.2354,13.9691,20.7814,-0.2069,0.0204,0.8467,0.2277
17:54:14:857,-0.3547,2.7061,13.6146,22.1736,-0.0279,-0.0052,0.8121,0.2397
17:54:14:877,-0.7499,2.1696,12.9943,20.5531,0.1761,-0.116,0.8616,0.241
17:54:14:897,-0.4936,1.5852,12.0458,21.6637,0.3109,-0.2875,0.9543,0.2443
17:54:14:917,0.7303,1.1828,11.9811,21.521,0.2539,-0.4159,1.0486,0.2443
17:54:14:936,1.8967,0.881,12.247,21.4518,0.158,-0.3322,1.055,0.2302
17:54:14:957,2.0236,0.5697,11.7608,22.2558,0.1591,0.0007,0.957,0.2302
17:54:14:977,1.6093,0.3876,10.7022,22.8443,0.2214,0.4551,0.9117,0.2103
17:54:14:997,1.1422,0.5266,9.5286,21.5012,0.3509,0.8572,0.9687,0.2103
17:54:15:017,1.056,0.7828,7.749,22.4616,0.6039,1.1268,1.0731,0.1987
17:54:15:036,0.9698,1.0702,5.9575,20.8872,0.866,1.2226,1.129,0.1987
17:54:15:059,0.8045,1.2762,4.4319,21.7802,1.0423,1.1161,1.1237,0.1963
17:54:15:078,0.7135,1.5756,3.5864,22.9384,1.0732,0.8205,1.1024,0.1961
17:54:15:096,0.8069,1.8941,3.7157,21.4234,0.9736,0.4199,1.0608,0.2012
17:54:15:116,1.1973,2.1169,4.748,21.4549,0.8383,0.0827,0.9964,0.2012
17:54:15:135,1.8655,2.5025,5.6318,22.781,0.7861,-0.0856,0.9389,0.2063
17:54:15:156,2.6559,2.9049,5.9431,23.1733,0.744,-0.2689,0.8339,0.2063
17:54:15:176,3.6355,3.245,6.403,22.6886,0.5133,-0.5794,0.6427,0.2078
17:54:15:198,4.675,3.3025,8.2736,23.465,0.0323,-0.7626,0.3785,0.2078
17:54:15:218,4.7588,3.0653,10.7716,23.0689,-0.4322,-0.5229,0.0615,0.2097
17:54:15:236,4.2726,2.96,11.3488,22.8741,-0.5792,0.0801,-0.102,0.2097
17:54:15:258,4.754,3.3096,11.1261,23.1184,-0.6117,0.315,-0.1409,0.218
17:54:15:277,5.0342,3.4078,11.3081,22.4623,-0.707,0.1594,-0.3215,0.2189
17:54:15:299,5.0845,3.3312,11.5644,24.8303,-0.8226,0.1136,-0.518,0.233
17:54:15:317,5.3719,3.118,11.9476,25.7984,-0.9526,0.1956,-0.6704,0.233
17:54:15:337,4.6702,2.5624,12.4985,25.3428,-1.0602,0.3624,-0.8909,0.2478
17:54:15:360,2.8403,1.9085,13.5164,25.7334,-1.0559,0.4934,-1.0757,0.2478
17:54:15:377,1.3793,1.4894,14.108,25.5987,-0.7832,0.3341,-1.032,0.2624
17:54:15:398,1.2069,1.5061,13.2936,27.7124,-0.2995,-0.1756,-0.7998,0.2624
17:54:15:429,2.5673,1.8247,11.6291,25.5693,0.0446,-0.761,-0.5846,0.2641
17:54:15:434,3.6714,2.0546,10.6327,25.3443,0.0808,-0.996,-0.6464,0.2641
17:54:15:459,2.9122,1.7001,10.3046,25.2884,-0.0119,-0.8761,-0.9532,0.2533
17:54:15:476,1.3386,1.3145,9.3945,26.2757,0.0073,-0.5032,-1.1519,0.2521
17:54:15:498,0.2608,1.1445,8.0915,27.9903,0.0898,-0.1879,-1.1535,0.2375
17:54:15:518,-0.3691,1.2044,7.1575,25.7476,0.15,-0.0041,-1.0736,0.2375
17:54:15:537,-0.508,1.2882,6.4772,26.5505,0.2406,0.1046,-0.9703,0.2175
17:54:15:556,-0.1679,1.4415,6.0509,25.8689,0.3775,0.0902,-0.8989,0.2175
17:54:15:577,-0.0457,1.7744,5.3252,24.7087,0.5511,0.0449,-0.9042,0.1979
17:54:15:596,-0.4793,2.069,4.7528,26.6248,0.6289,-0.0244,-0.9713,0.1979
17:54:15:617,-0.9726,2.5264,4.8893,27.5095,0.5735,-0.0915,-0.9937,0.199
17:54:15:636,-1.2193,3.1324,5.2294,26.9116,0.4979,-0.0457,-0.9362,0.199
17:54:15:657,-1.4229,3.8222,6.233,26.1352,0.4041,-0.0611,-0.8643,0.2056
17:54:15:677,-1.0972,4.4353,6.8605,26.9731,0.3349,-0.2305,-0.7396,0.2063
17:54:15:699,-0.6086,4.8545,7.088,28.2462,0.1697,-0.4164,-0.6517,0.2099
17:54:15:718,-0.805,4.6245,8.1059,28.5277,-0.2612,-0.435,-0.6613,0.2099
17:54:15:737,-1.8277,3.9611,10.3405,30.0475,-0.7763,-0.1415,-0.6357,0.2137
17:54:15:756,-2.2708,3.4462,12.8482,28.3143,-1.0357,0.1376,-0.3524,0.2137
17:54:15:778,-1.1666,3.5779,14.8385,30.2565,-0.9446,0.0534,0.1063,0.2222
17:54:15:797,0.6752,4.2126,15.5905,28.5315,-0.608,-0.0877,0.4504,0.2222
17:54:15:818,1.5733,4.4928,14.8768,30.2671,-0.2484,0.0774,0.5276,0.2339
17:54:15:836,0.7853,4.3108,13.8086,32.0225,-0.0545,0.3086,0.3726,0.2339
17:54:15:857,-0.6134,3.6138,13.8469,30.916,-0.0215,0.2798,0.2112,0.2417
17:54:15:878,-1.5858,3.0103,13.8924,31.1611,0.1229,0.1275,0.249,0.2426
17:54:15:898,-1.5834,2.5815,12.7835,31.6123,0.3684,-0.0973,0.4296,0.2488
17:54:15:917,-0.7164,2.4091,11.7416,32.2157,0.4451,-0.3317,0.5947,0.2488
17:54:15:936,0.1051,2.0642,11.3417,30.0957,0.3226,-0.4148,0.6342,0.2403
17:54:15:956,0.1243,1.5229,10.6351,31.3378,0.1804,-0.1932,0.6017,0.2403
17:54:15:975,-0.2924,1.0894,9.7322,29.7218,0.0669,0.1637,0.6299,0.2211
17:54:15:997,-0.8026,0.9026,9.0831,30.1398,0.0174,0.4806,0.745,0.2211
17:54:16:017,-0.8553,0.7828,8.1538,31.4916,0.108,0.7123,0.9362,0.2129
17:54:16:036,-0.5535,0.8044,7.0449,31.5638,0.2917,0.8769,1.1184,0.2129
17:54:16:056,-0.4577,0.7325,6.1371,31.4095,0.4622,0.9201,1.1951,0.211
17:54:16:076,-0.7499,0.6703,5.4114,31.8581,0.6087,0.8588,1.2308,0.2108
17:54:16:097,-0.8888,0.8379,4.9636,34.081,0.712,0.7001,1.3266,0.2154
17:54:16:117,-0.4002,1.1349,5.1168,34.0028,0.745,0.4732,1.4555,0.2154
17:54:16:136,0.7446,1.6642,5.6677,33.5158,0.7552,0.2569,1.5392,0.2243
17:54:16:157,1.9326,2.2989,6.027,34.6277,0.7765,0.169,1.487,0.2243
17:54:16:178,2.7086,2.754,6.0246,32.8328,0.7104,0.1424,1.2558,0.2265
17:54:16:197,3.4439,3.0821,6.2449,33.2625,0.4521,0.063,0.9314,0.2265
17:54:16:218,3.7385,3.2138,7.3515,34.3997,0.0179,-0.1479,0.5393,0.2244
17:54:16:236,3.9397,2.8522,9.3298,35.8584,-0.4753,-0.3328,0.167,0.2244
17:54:16:257,4.0546,2.6989,10.6734,36.5158,-0.8098,-0.1623,-0.0578,0.2261
17:54:16:280,3.4032,2.8905,10.7381,37.7807,-0.9542,0.243,-0.2208,0.2263
17:54:16:299,2.711,3.0629,10.4627,37.0221,-1.0836,0.4172,-0.3667,0.234
17:54:16:318,2.8379,3.2162,10.992,38.3609,-1.2882,0.364,-0.4482,0.234
17:54:16:337,3.1924,3.1156,12.1344,37.0156,-1.5162,0.3309,-0.5622,0.2458
17:54:16:358,2.4619,2.2127,13.8182,40.2781,-1.6967,0.4188,-0.7545,0.2458
17:54:16:379,1.1278,0.9649,16.5629,40.0027,-1.7303,0.3997,-0.8397,0.2586
17:54:16:397,0.9027,0.0116,19.2119,38.9665,-1.3718,0.0571,-0.6405,0.2586
17:54:16:418,2.3302,0.0428,20.4166,40.4956,-0.5946,-0.5086,-0.2453,0.2634
17:54:16:436,4.7348,0.7613,18.1964,39.9217,0.4627,-0.728,0.0951,0.2634
17:54:16:459,5.1875,1.8367,12.9655,38.9645,1.3816,-0.4404,0.0733,0.255
17:54:16:479,4.1504,2.6007,7.6916,37.513,1.7033,-0.2726,-0.2453,0.254
17:54:16:499,2.9768,2.8234,4.5085,38.467,1.3938,-0.3493,-0.6416,0.2333
17:54:16:518,1.7649,2.4666,3.7684,38.0273,0.7876,-0.3488,-0.9671,0.2333
17:54:16:536,0.6848,2.0307,4.2211,37.6652,0.3551,-0.1842,-1.1418,0.2054
17:54:16:557,-0.1368,1.7433,4.6211,37.3451,0.2656,-0.1565,-1.2041,0.2054
17:54:16:577,-0.8289,1.6235,4.5133,38.4233,0.3887,-0.3184,-1.1982,0.1711
17:54:16:598,-1.3151,1.6978,4.0055,37.402,0.5384,-0.5075,-1.1151,0.1711
17:54:16:618,-1.5187,1.954,3.5529,37.2894,0.5756,-0.6433,-0.983,0.1547
17:54:16:636,-1.0038,2.3492,4.051,36.1689,0.4489,-0.785,-0.8701,0.1547
17:54:16:657,-0.6517,2.8642,5.1863,37.3074,0.288,-0.7562,-0.8632,0.1737
17:54:16:680,-1.5618,3.1851,5.8066,38.1861,0.1873,-0.4217,-0.9212,0.1758
17:54:16:700,-2.1774,3.6114,6.7551,38.6945,0.0376,-0.2316,-0.8371,0.2063
