Time,Acc_X,Acc_Y,Acc_Z,Meg,Gyr_X,Gyr_Y,Gyr_Z,Ore
16:54:37:044,-2.7761,3.021,9.8351,61.3914,0.4463,-0.1869,0.3524,69.817
16:54:37:052,-2.118,3.335,9.155,61.2077,0.6145,-0.3018,0.3823,69.817
16:54:37:074,-1.658,3.416,8.9921,61.0311,0.6304,-0.3667,0.329,69.817
16:54:37:095,-1.265,3.3851,8.7671,60.8447,0.6113,-0.2677,0.2482,69.9103
16:54:37:112,-0.8651,3.323,8.535,60.6335,0.4975,-0.2305,0.1418,70.1407
16:54:37:131,-0.669,3.323,8.5211,60.6099,0.2804,-0.2751,0.0034,70.5072
16:54:37:152,-0.755,3.273,8.758,60.5984,0.0664,-0.2475,-0.12,71.0103
16:54:37:173,-0.954,3.254,8.9111,60.6051,-0.0496,-0.0539,-0.1616,71.6525
16:54:37:193,-1.1141,3.321,8.925,60.7235,-0.0901,0.1825,-0.1733,72.4355
16:54:37:213,-1.292,3.4241,8.916,60.7175,-0.0869,0.2197,-0.1849,73.3593
16:54:37:233,-1.397,3.536,8.834,60.4473,-0.0624,0.1122,-0.2062,74.423
16:54:37:252,-1.656,3.665,8.873,60.1774,-0.0454,-0.0474,-0.1903,75.624
16:54:37:272,-1.682,3.756,9.09,60.1738,-0.0283,-0.1848,-0.1084,76.9581
16:54:37:292,-1.289,3.74,9.1361,60.1905,0.0175,-0.1687,0.0034,78.4158
16:54:37:311,-0.9641,3.792,9.093,60.3026,0.0525,-0.1709,0.0513,79.9817
16:54:37:332,-0.762,3.8981,9.062,60.502,0.0749,-0.2454,0.0481,81.6422
16:54:37:352,-0.597,3.924,8.961,60.337,0.1293,-0.2742,0.0279,83.3885
16:54:37:371,-0.449,4.053,8.8271,60.1451,0.2069,-0.2816,-0.0147,85.2126
16:54:37:392,-0.305,4.056,8.6141,60.1578,0.2644,-0.2944,-0.0935,87.1077
16:54:37:410,-0.279,4.08,8.442,60.1705,0.2442,-0.3157,-0.169,89.0678
16:54:37:432,-0.1541,4.001,8.2211,60.2434,0.1537,-0.2816,-0.2148,91.0872
16:54:37:452,-0.159,3.9431,8.085,60.4076,0.026,-0.1848,-0.2424,93.1578
16:54:37:472,-0.255,3.929,8.097,60.4818,-0.1188,-0.089,-0.2498,95.2717
16:54:37:490,-0.348,3.8711,8.37,60.5003,-0.2454,-0.0719,-0.2478,97.4211
16:54:37:514,-0.408,3.8021,8.693,60.5809,-0.2805,-0.1134,-0.2574,99.5975
16:54:37:531,-0.4391,3.7901,8.9681,60.5378,-0.2199,-0.139,-0.2424,101.7931
16:54:37:560,-0.434,3.8831,8.873,60.5126,-0.1071,-0.1624,-0.2244,104.0015
16:54:37:572,-0.597,4.166,8.475,60.4093,-0.007,-0.1635,-0.2212,106.2166
16:54:37:592,-0.7481,4.463,8.0201,60.4002,0.0175,-0.2028,-0.2127,108.436
16:54:37:610,-0.81,4.752,7.745,60.4667,-0.0624,-0.2816,-0.2074,110.6576
16:54:37:634,-0.875,4.958,7.805,60.5882,-0.2167,-0.3295,-0.2085,112.8773
16:54:37:651,-0.9251,4.994,8.2481,60.7051,-0.3858,-0.3571,-0.2085,115.0899
16:54:37:676,-0.9401,4.91,8.772,60.7977,-0.4615,-0.2816,-0.1743,117.29
16:54:37:694,-0.9011,4.908,9.2921,60.7124,-0.4082,-0.1772,-0.118,119.4721
16:54:37:713,-0.66,4.8941,9.512,60.6428,-0.2432,-0.1496,-0.0935,121.6293
16:54:37:733,-0.312,4.8341,9.323,60.4948,-0.0368,-0.157,-0.1328,123.7556
16:54:37:750,-0.073,4.695,8.774,60.2124,0.109,-0.1561,-0.2276,125.8467
16:54:37:773,-0.2171,4.6061,8.2091,60.1762,0.1239,-0.122,-0.3255,127.9027
16:54:37:794,-0.6761,4.5611,7.9511,60.2886,0.0334,-0.0751,-0.3553,129.9283
16:54:37:811,-1.04,4.5371,7.941,60.491,-0.0582,-0.0027,-0.2967,131.9306
16:54:37:831,-1.272,4.6181,8.154,60.7441,-0.124,0.0399,-0.2009,133.9121
16:54:37:853,-1.301,4.7261,8.478,60.8845,-0.1422,-0.0038,-0.087,135.8696
16:54:37:870,-1.232,4.944,8.76,60.8128,-0.0858,-0.0315,0.014,137.7965
16:54:37:892,-1.2491,5.265,8.9231,60.5849,0.0058,-0.0591,0.1045,139.6859
16:54:37:911,-1.107,5.492,8.954,60.5006,0.0675,-0.1049,0.1842,141.5332
16:54:37:934,-0.8411,5.5661,9.275,60.4831,0.0792,-0.1433,0.2332,143.3353
16:54:37:951,-0.6641,5.5661,9.95,60.5126,0.0846,-0.1687,0.2375,145.0887
16:54:37:972,-0.506,5.294,10.443,60.5914,0.1717,-0.0613,0.2417,146.7923
16:54:37:991,-0.609,5.1671,10.604,60.543,0.3134,0.1919,0.2397,148.4477
16:54:38:013,-0.9371,5.219,10.5461,60.3723,0.3877,0.4038,0.2503,150.0573
16:54:38:032,-0.8801,4.8221,10.395,60.2623,0.3473,0.4495,0.2194,151.6257
16:54:38:052,-0.669,4.041,10.304,60.338,0.1537,0.2804,0.0938,153.154
16:54:38:074,-1.035,3.402,10.364,60.3996,-0.1123,0.1984,-0.0498,154.6423
16:54:38:092,-2.0051,3.0191,10.505,60.547,-0.2326,0.4102,-0.0093,156.0971
16:54:38:113,-2.75,3.275,10.4891,60.547,-0.0582,0.6848,0.3492,157.5249
16:54:38:133,-2.0291,3.426,9.591,60.3684,0.3431,0.8134,0.7249,158.9185
16:54:38:154,-1.071,3.515,8.2931,60.3408,0.6645,0.6549,0.7334,160.2583
16:54:38:171,-0.6521,3.7421,7.235,60.3895,0.6347,0.1484,0.4568,161.5342
16:54:38:193,-0.825,3.744,6.7301,60.513,0.2771,-0.2986,0.0864,162.7521
16:54:38:222,-1.3901,3.29,7.0031,60.5249,-0.2007,-0.3231,-0.1211,163.9297
16:54:38:231,-1.9361,2.921,7.9631,60.6269,-0.5935,-0.0847,-0.0913,165.0859
16:54:38:254,-2.189,2.6411,8.916,60.7017,-0.7605,0.2324,0.1002,166.2231
16:54:38:271,-2.0891,2.514,9.339,60.7086,-0.6307,0.5889,0.3376,167.3298
16:54:38:291,-2.015,2.918,9.1361,60.7782,-0.3103,0.7699,0.4855,168.391
16:54:38:312,-1.94,3.3611,8.4461,60.7268,-0.0155,0.6751,0.5376,169.3998
16:54:38:333,-1.8401,3.711,7.745,60.6302,0.1441,0.4782,0.5334,170.3572
16:54:38:352,-1.742,3.9341,7.422,60.7189,0.2218,0.3378,0.5152,171.2673
16:54:38:373,-1.476,3.9671,7.448,60.6895,0.2654,0.2346,0.4855,172.134
16:54:38:392,-1.229,4.0151,7.6991,60.7707,0.2889,0.1601,0.4323,172.9592
16:54:38:411,-1.22,4.087,7.9151,60.7375,0.3069,0.1569,0.3812,173.7432
16:54:38:432,-1.143,4.0511,8.054,60.5941,0.3165,0.1462,0.3535,174.4897
16:54:38:451,-1.107,4.1179,8.219,60.4799,0.2856,0.0866,0.3131,175.2019
16:54:38:471,-1.1891,4.31,8.367,60.4498,0.2164,0.076,0.2769,175.8821
16:54:38:491,-1.2251,4.4201,8.777,60.4498,0.1111,0.0972,0.2289,176.5345
16:54:38:512,-1.2491,4.4321,9.26,60.4735,0.0451,0.109,0.2013,177.1609
16:54:38:536,-1.122,4.448,9.804,60.5089,0.0164,0.1068,0.1865,177.7625
16:54:38:551,-1.0211,4.575,10.295,60.7146,-0.0591,-0.023,0.1119,178.3379
16:54:38:573,-1.0039,4.592,10.541,60.7361,-0.1678,-0.091,-0.0062,178.8873
16:54:38:591,-0.8921,4.3811,10.7261,60.7644,-0.3092,-0.0901,-0.1456,179.4156
16:54:38:613,-0.9641,4.13,11.3,60.7452,-0.5349,-0.2219,-0.2819,179.9272
16:54:38:633,-0.818,3.68,11.832,60.7005,-0.7084,-0.2475,-0.2797,-179.5731
16:54:38:653,-0.6041,3.23,12.215,60.7854,-0.6871,-0.0539,-0.1647,-179.0851
16:54:38:672,-0.47,3.093,12.11,60.8102,-0.3977,0.2357,-0.0062,-178.6141
16:54:38:691,-0.26,3.074,11.363,60.7825,0.0931,0.3675,0.08,-178.1644
16:54:38:712,0.2711,2.801,10.23,60.8519,0.5144,0.0525,-0.0041,-177.7374
16:54:38:733,0.5561,2.531,9.0401,60.9578,0.6538,-0.4956,-0.2116,-177.3312
16:54:38:752,0.549,2.27,7.7471,61.098,0.5186,-0.7232,-0.3563,-176.9391
16:54:38:771,0.249,2.148,6.5981,61.0276,0.1867,-0.5742,-0.433,-176.5536
16:54:38:794,-0.341,2.351,5.9471,60.7636,-0.2646,-0.3146,-0.4436,-176.1676
16:54:38:812,-0.956,2.66,5.966,60.6484,-0.6743,-0.0793,-0.3766,-175.7732
16:54:38:832,-1.4981,3.029,6.306,60.6377,-0.8871,0.0866,-0.2722,-175.367
16:54:38:855,-1.814,3.4331,6.711,60.8501,-0.886,0.1228,-0.168,-174.9519
16:54:38:881,-1.656,3.6581,7.13,61.0907,-0.7583,0.0388,-0.1339,-174.1233
16:54:38:899,-1.2221,3.8141,7.8911,61.1806,-0.3667,-0.0869,-0.2956,-173.7199
16:54:38:923,-1.1051,3.843,8.334,61.098,-0.155,-0.1442,-0.418,-173.3232
16:54:38:939,-1.1741,3.809,8.621,60.9257,0.0388,-0.2135,-0.5574,-172.9297
16:54:38:958,-1.277,3.6611,8.784,60.9095,0.1378,-0.3827,-0.6522,-172.533
16:54:38:978,-1.3661,3.57,8.837,60.834,0.1345,-0.4913,-0.6618,-172.1276
16:54:38:999,-1.658,3.828,9.057,60.8901,0.1185,-0.3954,-0.5713,-171.7123
16:54:39:021,-1.986,4.242,9.296,61.001,0.109,-0.1869,-0.4128,-171.2884
16:54:39:042,-2.268,4.74,9.7751,61.0055,0.0217,-0.0241,-0.2424,-170.8598
16:54:39:059,-2.414,5.09,10.541,61.0182,-0.1485,-0.0528,-0.0776,-170.4327
16:54:39:077,-2.357,5.253,11.298,61.1328,-0.2859,-0.0624,0.0769,-170.0141
16:54:39:099,-1.964,5.073,11.717,61.0338,-0.3369,0.0983,0.1833,-169.611
16:54:39:120,-1.337,4.254,12.023,61.0411,-0.3806,0.1856,0.1386,-169.2301
16:54:39:137,-1.289,3.2231,12.371,61.0607,-0.4561,0.0813,-0.0296,-168.8742
16:54:39:156,-1.895,2.588,12.4091,60.8673,-0.322,0.1345,0.0109,-168.5367
16:54:39:178,-2.1581,2.174,11.75,60.768,0.1378,0.4304,0.2727,-168.2105
16:54:39:197,-2.1371,2.4041,10.5371,60.5803,0.7061,0.7135,0.4727,-167.8986
16:54:39:219,-1.79,2.586,9.186,60.5605,1.0487,0.6134,0.4631,-167.6054
16:54:39:237,-1.442,2.586,7.8341,60.683,0.9827,0.1537,0.2588,-167.3306
16:54:39:257,-1.713,2.6771,6.845,60.8355,0.6176,-0.1379,0.0087,-167.0688
16:54:39:276,-2.3591,2.6021,6.603,60.9766,0.1686,-0.0688,-0.0477,-166.8088
16:54:39:296,-2.8691,2.447,6.996,60.8383,-0.2093,0.1335,0.0789,-166.5421
16:54:39:319,-3.092,2.294,7.721,60.625,-0.4359,0.2229,0.2599,-166.2737
16:54:39:335,-2.798,2.047,8.3479,60.4619,-0.4763,0.1495,0.4705,-166.0167
16:54:39:355,-2.163,1.889,8.676,60.1995,-0.3678,0.0058,0.6537,-165.7854
16:54:39:375,-1.3541,1.887,8.703,60.0976,-0.1741,-0.0847,0.7824,-165.5907
16:54:39:396,-0.6401,2.054,8.4731,60.1531,0.0408,-0.0602,0.8207,-165.4375
16:54:39:416,-0.353,2.349,8.162,60.3451,0.2346,0.0356,0.7931,-165.3262
16:54:39:439,-0.4031,2.6741,7.953,60.4485,0.3675,0.044,0.7408,-165.3262
16:54:39:456,-0.399,2.988,7.62,60.4605,0.4559,-0.0358,0.7111,-165.3262
16:54:39:475,-0.221,3.323,7.1921,60.4931,0.4995,-0.0283,0.6739,-165.3262
16:54:39:495,-0.1301,3.761,7.154,60.3357,0.4421,0.0314,0.577,-165.3262
16:54:39:516,-0.15,4.175,7.664,60.2035,0.2654,0.0111,0.3886,-165.3262
16:54:39:550,-0.135,4.2641,8.729,60.3452,0.0516,-0.0975,0.1555,-165.3262
16:54:39:555,-0.095,3.9551,9.962,60.2201,-0.1453,-0.2369,-0.0626,-165.3262
16:54:39:574,-0.2741,3.6701,11.1161,60.1921,-0.3528,-0.3784,-0.2105,-165.3262
16:54:39:594,-0.494,3.282,11.7821,60.4308,-0.5243,-0.1986,-0.1999,-165.3262
16:54:39:613,-0.777,2.9951,12.2891,60.428,-0.6051,0.2409,-0.0924,-165.3262
16:54:39:634,-1.019,2.93,12.9401,60.348,-0.5679,0.3399,0.0566,-165.3262
16:54:39:654,-0.7961,3.086,13.2731,60.422,-0.3891,0.2005,0.2109,-165.3262
16:54:39:673,-0.03,3.012,12.881,60.2219,-0.0602,0.2611,0.362,-165.3262
16:54:39:696,0.4721,2.8781,11.8751,60.03,0.3484,0.5879,0.3971,-165.3262
16:54:39:713,0.5441,2.957,10.7741,60.0706,0.6731,0.7167,0.3162,-165.3262
16:54:39:733,0.764,2.823,9.4541,59.9545,0.821,0.4751,0.1918,-165.3262
16:54:39:756,1.049,2.6771,8.1281,59.8244,0.8082,0.2144,0.0459,-165.3262
16:54:39:774,1.1831,2.679,7.0271,59.8219,0.6571,0.0525,-0.1137,-165.3262
16:54:39:793,1.1711,2.7101,6.083,59.8493,0.3761,-0.0315,-0.3158,-165.3262
16:54:39:812,0.771,2.705,5.451,59.864,0.0505,0.0675,-0.5532,-165.3262
16:54:39:832,-0.011,2.447,5.049,59.7442,-0.1837,0.3367,-0.781,-165.3262
16:54:39:855,-1.232,2.37,4.848,59.7623,-0.3305,0.5581,-0.9268,-165.3262
16:54:39:872,-2.4581,2.619,4.8551,59.6518,-0.4466,0.4463,-0.9162,-165.3262
16:54:39:895,-3.0821,2.8541,4.898,59.5326,-0.5488,0.0877,-0.7734,-165.3262
16:54:39:913,-3.351,3.2921,5.633,59.527,-0.6669,-0.3689,-0.6086,-165.1959
16:54:39:932,-3.384,3.6101,6.962,59.5494,-0.6498,-0.6146,-0.4425,-165.0355
16:54:39:952,-3.4391,3.9431,8.36,59.5094,-0.5221,-0.5913,-0.2808,-164.8644
16:54:39:973,-3.5231,4.362,9.881,59.5329,-0.3934,-0.554,-0.1797,-164.6948
16:54:39:995,-3.77,4.721,11.2601,59.7288,-0.2677,-0.4902,-0.168,-164.5332
16:54:40:014,-4.275,5.1521,12.605,59.9038,-0.1997,-0.454,-0.184,-164.3791
16:54:40:031,-4.593,5.291,13.683,60.0157,-0.1198,-0.2315,-0.0828,-164.2281
16:54:40:054,-4.454,5.306,14.3981,59.9513,-0.0337,0.0111,0.1216,-164.0801
16:54:40:071,-4.0189,5.241,14.604,59.7515,0.0707,0.275,0.3003,-163.9416
16:54:40:090,-3.6401,4.9301,14.444,59.5427,0.1611,0.4038,0.3376,-163.8203
16:54:40:112,-3.329,4.082,14.43,59.4837,0.1825,0.2357,0.3194,-163.7191
16:54:40:132,-2.934,2.945,14.499,59.5802,0.3473,0.0781,0.378,-163.7191
16:54:40:151,-2.6561,2.069,13.716,59.6362,0.8082,0.1133,0.5163,-163.7191
16:54:40:172,-2.496,1.985,11.93,59.5057,1.3307,0.1378,0.7249,-163.7191
16:54:40:203,-1.9331,2.1401,9.701,59.2131,1.5169,-0.1198,0.8271,-163.7191
16:54:40:212,-1.3541,2.325,7.668,58.7949,1.2701,-0.3636,0.7399,-163.7191
16:54:40:233,-0.9641,2.435,6.593,58.6095,0.7923,-0.3103,0.5834,-163.7191
16:54:40:251,-0.81,2.435,6.4331,58.4879,0.291,-0.1965,0.461,-163.7191
16:54:40:270,-0.717,2.514,6.653,58.469,-0.0751,-0.0506,0.4588,-163.7191
16:54:40:291,-0.4901,2.66,6.8261,58.6546,-0.2315,0.2005,0.5408,-163.7191
16:54:40:311,-0.437,2.825,6.9911,58.7196,-0.2039,0.4612,0.6164,-163.7191
16:54:40:330,-0.662,3.129,7.245,58.6836,-0.0092,0.5676,0.7069,-163.7191
16:54:40:351,-0.504,3.297,7.209,58.5392,0.2761,0.4335,0.826,-163.7191
16:54:40:374,-0.147,3.7211,7.031,58.3537,0.5422,0.1782,0.8792,-163.8349
16:54:40:391,0.2591,4.0961,7.0391,58.0819,0.7135,-0.0443,0.777,-163.9788
16:54:40:411,0.6251,4.1561,7.223,57.8145,0.8007,-0.1763,0.5365,-164.1508
16:54:40:433,0.702,4.1471,7.4981,57.7441,0.855,-0.1815,0.2652,-164.3454
16:54:40:453,0.5771,4.053,7.7981,57.6389,0.9125,-0.0826,0.0236,-164.5507
16:54:40:474,-0.032,4.1201,7.886,57.5152,0.9657,0.0249,-0.1754,-164.7532
16:54:40:492,-0.813,4.4681,7.8461,57.4524,0.9657,0.0451,-0.2617,-164.9359
16:54:40:513,-1.529,4.997,7.929,57.2237,0.8092,-0.2028,-0.2276,-165.0833
16:54:40:531,-1.536,5.507,8.693,56.8248,0.4378,-0.7179,-0.0764,-165.1898
16:54:40:560,-0.482,5.519,9.7301,56.7006,0.0622,-1.0297,0.0672,-165.1898
16:54:40:576,0.7541,5.313,10.587,56.5748,-0.0463,-0.7743,0.0938,-165.1898
16:54:40:593,1.178,5.193,10.3331,56.5928,0.0898,-0.2145,-0.0093,-165.2828
16:54:40:614,0.62,5.2241,9.308,56.7097,0.242,0.2036,-0.1807,-165.3951
16:54:40:630,-0.207,5.126,8.159,56.7265,0.0994,0.0846,-0.3904,-165.5127
16:54:40:655,-1.038,4.9511,8.0681,56.7298,-0.1655,-0.2603,-0.4703,-165.6159
16:54:40:673,-1.146,4.1899,8.861,56.6329,-0.3348,-0.7371,-0.3744,-165.6159
16:54:40:693,-0.849,3.929,9.699,56.3993,-0.3444,-1.0531,-0.1414,-165.6159
16:54:40:714,0.173,3.749,9.857,56.2305,-0.2305,-1.0042,0.1173,-165.6159
16:54:40:731,1.2191,3.8501,9.62,56.0963,-0.0932,-0.7329,0.23,-165.6159
16:54:40:753,1.655,4.173,8.94,55.8928,-0.0081,-0.5093,0.1598,-165.6159
16:54:40:771,1.473,4.3721,7.8071,55.7625,0.1111,-0.1986,-0.0051,-165.7118
16:54:40:794,0.881,4.535,6.383,55.5959,0.2346,0.1462,-0.1743,-165.823
16:54:40:814,0.048,4.9631,5.0681,55.5744,0.2867,0.3675,-0.3031,-165.9345
16:54:40:833,-0.707,5.442,4.266,55.6929,0.1771,0.2846,-0.4298,-166.0286
16:54:40:859,-1.4021,5.7821,4.182,55.7772,-0.04,0.0143,-0.5309,-166.0286
16:54:40:872,-1.679,5.645,4.7,55.8431,-0.2262,-0.205,-0.5181,-166.0286
16:54:40:893,-1.368,5.456,5.813,55.8952,-0.3252,-0.3369,-0.4095,-166.0286
16:54:40:912,-0.6911,5.4041,6.912,55.9185,-0.2742,-0.3561,-0.3457,-166.0286
16:54:40:934,-0.336,5.555,7.7021,55.7827,-0.1763,-0.2933,-0.4095,-166.0286
16:54:40:952,-0.5351,5.703,8.423,55.6703,-0.1646,-0.2315,-0.4979,-166.0286
16:54:40:972,-0.8411,5.756,9.1601,55.4046,-0.2571,-0.1422,-0.4703,-166.0286
16:54:40:991,-1.1741,6.122,10.2131,55.3523,-0.3465,0.1217,-0.2828,-165.9304
16:54:41:010,-0.992,6.177,11.054,55.3738,-0.271,0.4773,-0.0381,-165.8281
16:54:41:031,-0.9611,6.354,11.0351,55.3679,-0.0591,0.8294,0.1204,-165.7307
16:54:41:055,-1.1141,6.656,10.266,55.4758,0.0505,0.9199,0.1438,-165.7307
16:54:41:073,-1.3421,6.6221,9.7631,55.4344,-0.1453,0.573,-0.036,-165.7307
16:54:41:092,-1.584,5.373,10.053,55.4226,-0.3699,0.3911,-0.2031,-165.7307
16:54:41:114,-2.139,4.046,10.256,55.393,-0.2486,0.672,-0.1638,-165.7307
16:54:41:131,-3.003,3.84,9.342,55.3004,0.1345,0.9848,0.047,-165.6321
16:54:41:153,-3.48,4.4201,7.632,55.22,0.3612,0.8603,0.2641,-165.5206
16:54:41:173,-3.5591,5.013,6.17,55.0418,0.1345,0.2526,0.345,-165.3964
16:54:41:191,-3.176,4.9991,5.966,54.6953,-0.4423,-0.3402,0.3535,-165.2621
16:54:41:213,-2.477,4.4321,6.993,54.6203,-1.051,-0.4689,0.3641,-165.1282
16:54:41:234,-1.761,3.941,8.7101,54.5275,-1.4321,-0.2188,0.4036,-165.0154
16:54:41:251,-1.088,3.39,10.491,54.5845,-1.3905,0.1643,0.4663,-165.0154
16:54:41:274,-0.633,3.093,11.15,54.8167,-0.902,0.4654,0.5451,-165.0154
16:54:41:293,-0.602,3.476,10.434,54.8251,-0.2614,0.5752,0.6259,-165.0154
16:54:41:311,-0.497,3.776,9.498,54.7695,0.209,0.3314,0.7217,-165.0154
16:54:41:335,0.101,3.7301,8.7941,54.6676,0.4942,-0.0751,0.7653,-165.0154
16:54:41:354,0.8621,3.608,8.303,54.4444,0.6634,-0.3454,0.7271,-165.1353
16:54:41:373,1.418,3.618,8.0111,54.3228,0.7061,-0.4433,0.5897,-165.2883
16:54:41:390,1.674,3.7091,7.9871,54.1728,0.6751,-0.4348,0.3843,-165.4721
16:54:41:414,1.523,3.891,8.126,54.1346,0.6165,-0.4466,0.1396,-165.6772
16:54:41:434,1.013,4.1231,8.363,54.096,0.4815,-0.5764,-0.0807,-165.8882
16:54:41:453,0.489,4.2191,8.612,54.0908,0.2569,-0.6956,-0.2009,-166.0858
16:54:41:473,0.47,4.166,8.925,54.0951,-0.0198,-0.6913,-0.2393,-166.2545
16:54:41:493,0.821,4.137,9.3281,53.9781,-0.2657,-0.5699,-0.2691,-166.3922
16:54:41:522,1.0541,4.245,9.155,53.9367,-0.388,-0.2338,-0.3436,-166.5055
16:54:41:532,0.977,4.58,8.411,53.8856,-0.5605,-0.0539,-0.5468,-166.5997
16:54:41:553,0.623,4.788,7.98,53.853,-1.0192,-0.2241,-0.8427,-166.5997
16:54:41:574,-0.08,4.35,8.856,53.9574,-1.6097,-0.2401,-1.0172,-166.5997
16:54:41:590,-1.181,3.5981,11.118,54.0836,-1.7747,0.1345,-0.8799,-166.5997
16:54:41:611,-2.0531,3.11,13.022,54.2028,-1.2819,0.3219,-0.4712,-166.5997
16:54:41:633,-1.701,2.9471,13.1561,54.2284,-0.4221,0.0877,0.0459,-166.5997
16:54:41:653,-0.128,2.969,11.822,54.0002,0.3239,-0.1581,0.3876,-166.504
16:54:41:672,1.3481,3.134,10.3121,53.9811,0.7411,-0.3305,0.3641,-166.504
16:54:41:693,2.141,3.129,8.5661,53.9508,0.8251,-0.371,0.0448,-166.504
16:54:41:713,1.9061,2.93,7.079,53.9178,0.6996,-0.1411,-0.3605,-166.504
16:54:41:732,0.915,2.717,5.789,54.081,0.4932,0.2739,-0.649,-166.504
16:54:41:751,-0.4391,2.8781,4.922,54.0718,0.2889,0.6336,-0.782,-166.504
16:54:41:773,-1.689,3.366,4.611,54.0015,0.1228,0.7103,-0.7447,-166.504
16:54:41:793,-2.28,3.689,4.563,54.0821,0.0004,0.5197,-0.6064,-166.376
16:54:41:814,-2.414,4.037,4.652,54.1154,-0.1433,0.2027,-0.4553,-166.1937
16:54:41:832,-2.5271,4.539,5.2601,54.096,-0.3656,-0.1305,-0.3095,-165.9737
16:54:41:852,-2.285,4.575,6.447,54.0424,-0.5955,-0.3326,-0.1477,-165.7324
16:54:41:872,-1.943,4.35,7.9721,53.928,-0.7286,-0.2646,0.012,-165.4879
16:54:41:894,-1.761,4.175,9.462,53.6109,-0.6913,0.0004,0.1598,-165.2568
16:54:41:913,-2.177,4.556,10.584,53.5984,-0.5295,0.3176,0.3268,-165.0493
16:54:41:944,-2.5151,5.03,11.2091,53.5119,-0.3678,0.4995,0.5356,-164.8656
16:54:41:952,-2.4551,5.291,11.834,53.5439,-0.2996,0.4537,0.7206,-164.7072
16:54:41:973,-1.775,4.877,12.251,53.6196,-0.2571,0.4165,0.8185,-164.5785
16:54:41:991,-1.143,4.482,12.4061,53.577,-0.2326,0.4559,0.759,-164.4852
16:54:42:017,-0.6641,3.972,12.56,53.5519,-0.3806,0.2813,0.5664,-164.4852
16:54:42:032,-0.348,2.78,13.326,53.3866,-0.5775,0.1324,0.3567,-164.4852
16:54:42:052,-0.672,1.748,14.1851,53.2182,-0.4179,0.3506,0.3046,-164.4852
16:54:42:079,-1.28,2.1191,11.226,52.9938,0.8795,0.7837,0.6867,-164.4852
16:54:42:097,-0.894,2.88,8.454,52.6731,1.0189,0.3527,0.6589,-164.4852
16:54:42:116,-0.602,3.455,6.572,52.6037,0.6284,-0.0443,0.4482,-164.4852
16:54:42:135,-0.513,3.426,6.213,52.3551,0.0132,-0.089,0.2078,-164.4852
16:54:42:155,-0.839,3.194,7.154,52.1811,-0.4657,0.1495,0.096,-164.4852
16:54:42:182,-1.251,3.203,8.523,52.0409,-0.5849,0.4005,0.1651,-164.4852
16:54:42:194,-1.196,3.2441,9.5741,51.973,-0.3167,0.3666,0.3205,-164.4852
16:54:42:215,-0.612,3.179,9.452,52.0197,0.1335,0.1632,0.4333,-164.4852
16:54:42:234,-0.032,3.158,8.762,52.1181,0.4719,-0.1666,0.4557,-164.4852
16:54:42:254,0.29,3.084,8.054,52.3583,0.6538,-0.4509,0.4206,-164.4852
16:54:42:275,0.41,2.952,7.532,52.3102,0.7411,-0.5614,0.3695,-164.4852
16:54:42:293,0.35,2.9711,6.996,52.118,0.7667,-0.5082,0.3216,-164.4852
16:54:42:319,0.2111,3.194,6.423,51.9502,0.7018,-0.3348,0.2769,-164.4852
16:54:42:333,0.024,3.4691,6.138,51.7001,0.5485,-0.1709,0.2045,-164.4852
16:54:42:353,-0.456,4.0391,6.201,51.6136,0.3623,-0.1316,0.0906,-164.4852
16:54:42:374,-0.9881,4.671,6.567,51.5257,0.1079,-0.2848,-0.0477,-164.4852
16:54:42:396,-1.361,4.812,7.245,51.4473,-0.2816,-0.554,-0.169,-164.4852
16:54:42:412,-1.416,4.5821,8.4461,51.3897,-0.7605,-0.7371,-0.1786,-164.4852
16:54:42:432,-0.983,4.343,10.4171,51.463,-1.1543,-0.6626,-0.0434,-164.4852
16:54:42:454,0.2801,3.914,12.366,51.5543,-1.2139,-0.3519,0.0672,-164.4852
16:54:42:475,1.2791,3.905,13.13,51.4044,-1.018,-0.0496,-0.1616,-164.4852
16:54:42:495,1.176,3.9,13.101,51.4538,-0.8232,0.0622,-0.6436,-164.4852
16:54:42:513,-0.032,3.309,12.7661,51.4184,-0.6806,0.0866,-1.0502,-164.4852
16:54:42:533,-1.61,2.6261,12.636,51.3979,-0.5221,0.1302,-1.1012,-164.4852
16:54:42:553,-2.474,2.0351,12.5981,51.7107,-0.305,0.0696,-0.8118,-164.3937
16:54:42:588,-2.422,1.724,12.1961,51.8334,-0.0421,-0.0474,-0.3275,-164.2741
16:54:42:593,-1.26,1.65,11.573,51.8184,0.1888,-0.1049,0.1481,-164.1458
16:54:42:612,0.101,1.772,10.661,51.7982,0.4272,-0.0549,0.3876,-164.0309
16:54:42:631,0.905,2.0419,9.158,51.7228,0.6698,0.1154,0.3993,-164.0309
16:54:42:657,0.96,2.442,7.35,51.5155,0.8646,0.2771,0.2482,-164.0309
16:54:42:677,0.41,2.9381,5.4581,51.6226,0.9497,0.3303,0.0236,-164.0309
16:54:42:692,-0.387,3.4451,3.8861,51.6099,0.822,0.2611,-0.1775,-164.0309
16:54:42:712,-1.155,3.8831,3.045,51.7267,0.4921,0.1282,-0.3073,-164.0309
16:54:42:734,-1.797,4.2161,3.119,51.9403,0.0685,-0.0155,-0.3436,-164.0309
16:54:42:753,-1.9691,4.3451,4.0151,51.9148,-0.3689,-0.172,-0.3063,-163.8982
16:54:42:773,-1.847,4.302,5.478,52.1376,-0.7466,-0.2273,-0.2574,-163.7235
16:54:42:792,-1.526,4.058,7.6991,52.231,-0.9393,-0.1709,-0.1966,-163.5259
16:54:42:812,-1.148,3.675,9.651,52.3368,-0.7871,-0.0007,-0.1722,-163.3267
16:54:42:843,-1.1981,3.654,10.4261,52.5202,-0.4711,0.2357,-0.1519,-163.1396
16:54:42:853,-1.9691,4.192,10.3811,52.6169,-0.2784,0.4261,-0.0573,-162.965
16:54:42:871,-2.709,4.487,10.4291,52.779,-0.3454,0.4899,0.1662,-162.7968
16:54:42:893,-3.047,4.671,11.171,53.0965,-0.5605,0.4719,0.4173,-162.6355
16:54:42:911,-2.987,4.779,12.521,53.3573,-0.6999,0.5559,0.6845,-162.4908
16:54:42:930,-2.1461,4.1681,13.805,53.6225,-0.6519,0.4879,0.8515,-162.3751
16:54:42:954,-0.935,2.8991,14.4461,53.7738,-0.5008,0.143,0.7855,-162.3751
16:54:42:978,-0.4541,1.6661,14.339,53.8292,-0.188,0.0388,0.61,-162.3751
16:54:42:992,-1.2701,1.4921,13.11,53.8628,0.3675,0.3271,0.5291,-162.3751
16:54:43:014,-2.0861,1.805,10.446,53.9358,0.8188,0.5305,0.6047,-162.3751
16:54:43:033,-2.235,2.15,7.841,53.9278,0.8294,0.4687,0.6984,-162.3751
16:54:43:073,-2.043,2.655,6.536,53.8972,0.5027,0.2718,0.7206,-162.3751
16:54:43:075,-1.629,2.969,6.383,53.8306,0.0653,0.0846,0.6429,-162.3751
16:54:43:092,-1.184,2.871,7.115,53.8863,-0.3561,-0.0698,0.495,-162.3751
16:54:43:111,-0.954,2.741,8.3441,53.99,-0.6307,-0.0964,0.3982,-162.3751
16:54:43:132,-0.593,2.519,9.749,54.1283,-0.653,-0.0656,0.3791,-162.3751
16:54:43:154,-0.039,2.258,10.601,54.259,-0.406,-0.0209,0.3801,-162.3751
16:54:43:173,0.474,2.1401,10.673,54.1699,-0.0166,0.0217,0.3535,-162.3751
16:54:43:191,0.5921,2.231,10.139,54.1342,0.3857,0.0132,0.294,-162.4835
16:54:43:214,0.503,2.363,9.1481,54.0666,0.705,-0.0571,0.263,-162.6039
16:54:43:232,0.309,2.6651,8.135,54.1703,0.905,-0.0975,0.2491,-162.7315
16:54:43:253,0.323,2.928,7.259,54.275,0.9923,-0.1316,0.228,-162.8625
16:54:43:272,0.5681,3.191,6.531,54.239,0.938,-0.2252,0.1236,-162.995
16:54:43:290,0.477,3.5981,6.21,54.3354,0.7528,-0.2933,-0.0881,-163.1298
16:54:43:311,0.003,3.9311,6.4571,54.3131,0.4879,-0.3752,-0.3329,-163.2605
16:54:43:334,-0.7841,4.1201,7.154,54.4554,0.1569,-0.5253,-0.5021,-163.3708
16:54:43:351,-1.476,4.058,8.588,54.6864,-0.2199,-0.7446,-0.5042,-163.3708
16:54:43:370,-1.577,3.773,10.412,54.7725,-0.4498,-0.8052,-0.3531,-163.3708
16:54:43:393,-1.1411,3.608,12.069,54.868,-0.4253,-0.5892,-0.169,-163.3708
16:54:43:411,-0.722,3.498,12.7151,54.883,-0.1294,-0.2347,-0.0839,-163.3708
16:54:43:434,-0.683,3.591,11.669,54.7165,0.0419,-0.0219,-0.135,-163.3708
16:54:43:455,-0.806,3.551,10.6631,54.6512,-0.19,-0.0315,-0.2925,-163.3708
16:54:43:474,-1.383,3.108,10.848,54.586,-0.47,0.0644,-0.3978,-163.3708
16:54:43:501,-2.247,2.7341,11.7821,54.5286,-0.4593,0.0579,-0.2999,-163.3708
16:54:43:512,-2.321,2.423,12.081,54.6387,-0.2145,-0.1891,-0.0307,-163.3708
16:54:43:533,-1.1501,2.133,11.621,54.6955,0.0302,-0.4273,0.2588,-163.3708
16:54:43:552,0.503,2.1311,10.989,54.7346,0.1994,-0.5488,0.3812,-163.3708
16:54:43:573,1.659,2.279,10.077,54.802,0.3239,-0.4498,0.2641,-163.3708
16:54:43:596,1.7771,2.4281,8.985,54.7725,0.4207,-0.1305,0.0428,-163.3708
16:54:43:612,1.2281,2.583,7.8191,54.7109,0.5496,0.2058,-0.1477,-163.3708
16:54:43:633,0.5411,2.792,6.476,54.83,0.7283,0.4548,-0.2691,-163.3708
16:54:43:651,-0.075,3.1511,5.111,54.8539,0.8624,0.507,-0.3585,-163.3708
16:54:43:673,-0.5089,3.603,3.89,54.8521,0.8529,0.3623,-0.4606,-163.3708
16:54:43:692,-0.8681,4.0721,3.036,54.8961,0.6208,0.1228,-0.5819,-163.3708
16:54:43:713,-1.014,4.31,2.772,54.8827,0.1387,-0.1177,-0.6831,-163.3708
16:54:43:732,-1.3511,4.362,3.531,54.8357,-0.4987,-0.1965,-0.7523,-163.3708
16:54:43:751,-1.787,4.061,5.238,54.7985,-1.0192,0.0366,-0.7235,-163.3708
16:54:43:773,-2.352,3.9,7.376,54.8862,-1.2437,0.3506,-0.5852,-163.2486
16:54:43:791,-2.9441,3.998,9.62,54.8217,-1.1543,0.4485,-0.367,-163.0985
16:54:43:813,-3.317,4.2311,11.178,54.8357,-0.886,0.3442,-0.0434,-162.9396
16:54:43:832,-2.678,4.283,12.576,54.8498,-0.6871,-0.0411,0.3003,-162.7879
16:54:43:852,-1.646,4.199,13.733,54.6552,-0.5838,-0.3773,0.4696,-162.6617
16:54:43:871,-0.7511,3.929,14.3411,54.5547,-0.4806,-0.2252,0.5046,-162.6617
16:54:43:894,-0.317,3.5411,14.403,54.4211,-0.3721,0.1675,0.4429,-162.6617
16:54:43:912,-0.564,3.0791,14.1161,54.2971,-0.2326,0.425,0.3791,-162.6617
16:54:43:931,-0.87,2.6771,13.484,54.3661,0.1217,0.5262,0.4238,-162.6617
16:54:43:951,-1.2221,2.8061,11.873,54.5637,0.6006,0.3633,0.5004,-162.6617
16:54:43:973,-1.1381,3.132,9.579,54.5034,0.8433,0.0622,0.5461,-162.6617
16:54:43:992,-0.851,3.414,7.611,54.4476,0.7178,-0.0975,0.4844,-162.6617
16:54:44:012,-0.717,3.761,6.6941,54.3122,0.3378,-0.0698,0.3503,-162.6617
16:54:44:033,-0.525,3.8381,6.893,54.1178,-0.106,-0.0602,0.1609,-162.6617
16:54:44:050,-0.4751,3.503,7.826,54.1168,-0.455,-0.1114,-0.036,-162.6617
16:54:44:071,-0.545,3.0311,9.0401,54.2039,-0.5721,-0.1262,-0.1371,-162.6617
16:54:44:104,-0.621,2.4881,10.113,54.2435,-0.007,0.0356,-0.052,-162.6617
16:54:44:120,-0.693,2.6171,9.4901,54.2125,0.3963,0.0366,0.0641,-162.6617
16:54:44:141,-0.4871,2.6411,8.652,54.1298,0.6805,-0.0784,0.162,-162.6617
16:54:44:161,-0.4031,2.8751,7.872,53.9038,0.8412,-0.2188,0.195,-162.6617
16:54:44:181,-0.446,3.122,7.233,53.7194,0.8518,-0.3305,0.1939,-162.6617
16:54:44:203,-0.47,3.23,6.881,53.5847,0.7433,-0.388,0.1822,-162.6617
16:54:44:220,-0.554,3.474,6.833,53.6061,0.557,-0.3934,0.1566,-162.6617
16:54:44:239,-0.6431,3.869,7.2281,53.5996,0.3271,-0.4136,0.0949,-162.6617
16:54:44:258,-0.7511,3.9581,8.109,53.5593,0.0653,-0.5594,0.0077,-162.6617
16:54:44:280,-0.4751,3.4811,9.56,53.3635,-0.2039,-0.752,-0.0573,-162.6617
16:54:44:300,-0.1301,2.942,11.049,53.2145,-0.3604,-0.6945,-0.1211,-162.6617
16:54:44:319,-0.0851,2.7701,12.05,53.2177,-0.305,-0.3295,-0.1371,-162.6617
16:54:44:339,0.0071,3.021,11.817,53.2633,-0.0901,-0.0081,-0.1243,-162.6617
16:54:44:358,0.2351,3.474,10.496,53.2935,-0.0166,0.043,-0.2179,-162.6617
16:54:44:379,0.5201,3.4691,9.512,53.2667,-0.2464,-0.0389,-0.4649,-162.6617
16:54:44:400,0.065,2.9501,9.5981,53.1362,-0.5243,0.1282,-0.7278,-162.6617
16:54:44:419,-1.0549,2.526,10.2131,53.1456,-0.6115,0.3219,-0.7862,-162.6617
16:54:44:438,-1.821,2.2271,10.64,53.2165,-0.5732,0.2218,-0.5713,-162.6617
16:54:44:456,-1.6151,1.9061,10.991,53.1408,-0.4987,-0.0007,-0.1797,-162.6617
16:54:44:479,-1.22,1.851,11.7701,52.9717,-0.2944,-0.1741,0.2067,-162.6617
16:54:44:498,-0.6761,1.724,12.057,52.8059,0.1834,-0.2582,0.577,-162.6617
16:54:44:517,0.113,1.8701,10.9361,52.7721,0.8231,-0.254,0.8484,-162.6617
16:54:44:536,0.728,2.454,8.561,52.8098,1.3276,-0.1028,0.9197,-162.6617
16:54:44:558,1.1141,3.1961,5.9801,52.9052,1.5159,0.1387,0.7813,-162.6617
16:54:44:577,1.061,4.116,3.8711,53.0085,1.3882,0.3675,0.4801,-162.7637
16:54:44:606,0.6011,5.018,2.6,52.8262,0.989,0.4645,0.1301,-162.8932
16:54:44:620,-0.0011,5.6051,2.3321,52.7014,0.4261,0.4005,-0.169,-163.0352
16:54:44:636,-0.557,5.837,2.949,52.6773,-0.1922,0.2271,-0.3638,-163.1626
16:54:44:657,-0.99,5.7341,4.4651,52.564,-0.7179,0.0846,-0.4447,-163.1626
16:54:44:675,-1.2341,5.3561,6.543,52.5998,-1.0234,0.0186,-0.4085,-163.1626
16:54:44:696,-1.181,5.0231,8.5931,52.5665,-1.0192,0.028,-0.2659,-163.1626
16:54:44:717,-1.038,5.138,10.139,52.3455,-0.7541,0.1654,-0.1072,-163.1626
16:54:44:735,-0.669,5.37,11.3171,52.1942,-0.4327,0.2846,0.0161,-163.1626
16:54:44:755,-0.159,5.4251,12.002,52.1183,-0.256,0.1228,0.0098,-163.1626
16:54:44:775,0.0461,5.3531,12.734,52.0201,-0.3656,-0.1826,-0.0785,-163.1626
16:54:44:798,0.0791,4.8791,13.6061,52.115,-0.4965,-0.0847,-0.1308,-163.1626
16:54:44:821,0.024,4.142,14.195,52.117,-0.5306,0.2144,-0.0892,-163.1626
16:54:44:834,0.383,3.098,14.492,51.9852,-0.4423,0.341,-0.0104,-163.1626
16:54:44:855,0.582,2.4281,14.3861,51.8113,-0.0411,0.3569,0.0246,-163.1626
16:54:44:874,0.18,2.4761,12.785,51.6484,0.6773,0.4241,0.0417,-163.1626
16:54:44:894,-0.2861,2.7371,9.687,51.6646,1.1807,0.3464,0.0098,-163.1626
16:54:44:919,-0.734,3.062,6.8471,51.7176,1.1381,0.1409,-0.07,-163.1626
16:54:44:933,-1.052,3.311,5.3891,51.8724,0.6592,-0.0528,-0.1925,-163.1626
16:54:44:953,-1.383,3.3281,5.427,51.9164,0.044,-0.1209,-0.3073,-163.1626
16:54:44:973,-1.6601,3.012,6.519,51.8346,-0.4348,-0.0421,-0.3574,-163.1626
16:54:44:995,-1.9241,2.775,7.9391,51.7023,-0.5924,0.1122,-0.3095,-163.1626
16:54:45:014,-2.072,2.7581,9.0161,51.3947,-0.4146,0.1611,-0.151,-163.1626
16:54:45:033,-1.8761,2.811,9.306,51.0261,-0.0613,0.1143,0.0428,-163.1626
16:54:45:054,-1.409,2.945,8.928,50.7028,0.2867,0.0153,0.1939,-163.1626
16:54:45:086,-0.956,3.024,8.243,50.3157,0.4804,-0.1114,0.2588,-163.1626
16:54:45:097,-0.6551,3.074,7.788,50.0242,0.5197,-0.1678,0.2779,-163.1626
16:54:45:115,-0.4301,3.1511,7.649,49.89,0.4751,-0.1485,0.2727,-163.1626
16:54:45:133,-0.4631,3.3491,7.8911,49.7536,0.407,-0.1655,0.2545,-163.1626
16:54:45:153,-0.581,3.498,8.346,49.5635,0.3761,-0.2816,0.2599,-163.1626
16:54:45:173,-0.4181,3.6611,8.748,49.4744,0.3931,-0.4221,0.2758,-163.1626
16:54:45:193,-0.174,4.0631,8.916,49.4493,0.3794,-0.5402,0.2311,-163.1626
16:54:45:214,0.2231,4.178,8.9441,49.223,0.2335,-0.5901,0.0874,-163.1626
16:54:45:233,0.503,3.989,9.356,49.0778,-0.0283,-0.5285,-0.102,-163.1626
16:54:45:253,0.513,3.9701,9.945,48.8982,-0.2124,-0.2657,-0.2403,-163.1626
16:54:45:273,0.347,4.113,10.067,48.5561,-0.2252,0.0813,-0.3585,-163.1626
16:54:45:292,0.2801,4.247,9.474,48.3518,-0.2784,0.143,-0.5329,-163.1626
16:54:45:312,0.177,4.0631,8.882,48.2145,-0.5966,0.0195,-0.8192,-163.1626
16:54:45:331,-0.662,3.254,9.335,48.0081,-0.9776,0.225,-1.0172,-163.1626
16:54:45:353,-2.027,2.5931,10.661,47.8452,-1.1137,0.4697,-0.9225,-163.1626
16:54:45:372,-2.972,2.069,11.789,47.7838,-0.9415,0.4198,-0.5244,-163.0726
16:54:45:392,-2.75,1.9751,12.162,47.879,-0.5497,0.2261,0.1077,-162.9595
16:54:45:414,-1.1291,2.138,11.873,48.0576,-0.1188,-0.0676,0.6142,-162.8486
16:54:45:432,0.783,2.258,11.018,48.0748,0.2324,-0.3721,0.7568,-162.8486
16:54:45:453,2.126,2.363,9.524,47.9951,0.4836,-0.3593,0.5558,-162.8486
16:54:45:481,2.031,2.708,7.695,47.7745,0.6432,0.0568,0.1875,-162.8486
16:54:45:494,0.977,3.1361,5.8061,47.5385,0.7124,0.4879,-0.1499,-162.8486
16:54:45:512,-0.408,3.869,4.355,47.5161,0.6176,0.6091,-0.3787,-162.8486
16:54:45:531,-1.49,4.47,3.6251,47.4921,0.3388,0.3718,-0.499,-162.8486
16:54:45:551,-2.252,4.958,3.72,47.5469,-0.0708,0.0026,-0.5277,-162.8486
16:54:45:570,-2.573,5.052,4.719,47.4961,-0.4902,-0.1943,-0.4669,-162.7369
16:54:45:590,-2.441,4.755,6.3251,47.2333,-0.7946,-0.1709,-0.367,-162.5803
16:54:45:622,-2.3501,4.3811,8.2811,47.0112,-0.884,-0.0719,-0.2403,-162.396
16:54:45:638,-2.1439,4.0961,10.053,46.7927,-0.6754,0.0824,-0.0573,-162.2019
16:54:45:652,-2.024,4.295,11.0591,46.5699,-0.2614,0.2898,0.1396,-162.0115
16:54:45:671,-1.979,4.8311,11.087,46.3944,0.0813,0.3783,0.3151,-161.8332
16:54:45:691,-1.751,5.2031,10.74,46.1752,0.1026,0.2207,0.4004,-161.6701
16:54:45:714,-1.56,5.4281,10.991,46.1137,-0.1347,0.1547,0.4323,-161.5249
16:54:45:731,-1.251,5.294,12.038,45.9819,-0.3784,0.3058,0.4557,-161.4001
16:54:45:755,-0.803,4.602,13.161,46.1239,-0.4806,0.3655,0.4216,-161.2979
16:54:45:770,-0.305,3.299,13.8191,46.1476,-0.4711,0.2494,0.3259,-161.2979
16:54:45:792,-0.219,2.011,14.111,45.9328,-0.2241,0.2782,0.2237,-161.2979
16:54:45:812,-1.052,1.628,13.235,45.755,0.3453,0.4932,0.2375,-161.2979
16:54:45:833,-1.8761,1.884,10.881,45.4122,0.9156,0.5943,0.3833,-161.2979
16:54:45:850,-2.118,2.358,8.2481,45.0664,1.0977,0.4133,0.5217,-161.2979
16:54:45:871,-1.943,2.8421,6.4931,44.9197,0.8997,0.1185,0.5621,-161.2979
16:54:45:892,-1.617,3.3281,5.7191,45.0099,0.474,-0.0943,0.4993,-161.2979
16:54:45:912,-1.134,3.438,5.8871,45.0615,-0.0496,-0.2113,0.3578,-161.2979
16:54:45:930,-0.774,3.206,6.998,45.1274,-0.5125,-0.2305,0.2141,-161.2979
16:54:45:953,-0.566,2.832,8.511,45.0996,-0.7232,-0.1613,0.1438,-161.2979
16:54:45:970,-0.351,2.5451,9.83,44.9484,-0.5944,-0.0708,0.1364,-161.2979
16:54:45:994,-0.195,2.4761,10.4381,44.6707,-0.1655,0.0143,0.1598,-161.2979
16:54:46:013,-0.071,2.5331,10.0151,44.3723,0.3794,-0.0209,0.1885,-161.2979
16:54:46:031,-0.054,2.748,8.724,44.0387,0.8071,-0.1613,0.2078,-161.2979
16:54:46:053,-0.083,3.132,7.3331,43.7528,1.0359,-0.2668,0.212,-161.2979
16:54:46:074,-0.039,3.498,6.201,43.7058,1.0498,-0.3465,0.179,-161.2979
16:54:46:091,0.132,3.8021,5.408,43.685,0.8614,-0.3763,0.0811,-161.2979
16:54:46:113,0.1031,4.1231,5.166,43.6416,0.5389,-0.355,-0.1115,-161.2979
16:54:46:141,-0.432,4.5491,5.552,43.5069,0.1196,-0.4253,-0.3605,-161.2979
16:54:46:151,-1.131,4.685,6.6821,43.3515,-0.3519,-0.5977,-0.5372,-161.2979
16:54:46:173,-1.28,4.209,8.3149,43.1253,-0.8009,-0.7424,-0.6021,-161.2979
16:54:46:193,-1.126,3.867,10.6181,43.0415,-1.1521,-0.7414,-0.5936,-161.2979
16:54:46:213,-0.585,3.584,12.78,43.0194,-1.1521,-0.4785,-0.6181,-161.2012
16:54:46:230,-0.365,3.4121,13.4501,42.9737,-0.902,-0.1752,-0.7384,-161.089
16:54:46:253,-0.588,3.266,12.773,43.0336,-0.7743,-0.0688,-0.8704,-160.9625
16:54:46:275,-1.131,2.753,12.236,43.118,-0.8328,-0.0176,-0.9459,-160.8171
16:54:46:294,-1.9721,2.1641,12.363,43.0633,-0.7659,0.1749,-0.8394,-160.6485
16:54:46:311,-2.5751,1.6661,12.402,42.9583,-0.4593,0.2079,-0.484,-160.4572
16:54:46:333,-2.324,1.269,11.882,42.864,-0.0176,-0.0517,0.0311,-160.2531
16:54:46:353,-1.1381,1.271,10.692,42.7418,0.3803,-0.3359,0.5217,-160.0524
16:54:46:373,0.663,1.4081,9.1841,42.5804,0.59,-0.4625,0.7058,-159.8717
16:54:46:394,1.784,1.812,7.5971,42.4305,0.6028,-0.3986,0.5365,-159.7237
16:54:46:414,1.76,2.411,6.158,42.4063,0.4719,-0.139,0.1598,-159.6111
16:54:46:434,0.857,2.8991,5.126,42.452,0.2591,0.1345,-0.2244,-159.6111
16:54:46:452,-0.516,3.464,4.649,42.7193,0.028,0.2898,-0.4797,-159.6111
16:54:46:471,-1.811,3.953,4.695,42.7655,-0.1772,0.2793,-0.5659,-159.5031
16:54:46:493,-2.465,4.199,5.109,42.6648,-0.3571,0.0846,-0.5361,-159.356
16:54:46:511,-2.675,4.4441,5.885,42.6971,-0.538,-0.1763,-0.4872,-159.1684
16:54:46:532,-2.673,4.4171,7.218,42.397,-0.6999,-0.305,-0.417,-158.9486
16:54:46:551,-2.5031,4.1321,8.882,42.4417,-0.7477,-0.3103,-0.2871,-158.708
16:54:46:573,-2.012,3.737,10.637,42.5497,-0.6381,-0.1965,-0.1265,-158.4585
16:54:46:594,-1.4861,3.7091,12.033,42.5146,-0.3274,0.0952,-0.0062,-158.2129
16:54:46:613,-1.28,4.0991,12.4451,42.6273,0.043,0.3697,0.0448,-157.9806
16:54:46:638,-1.289,4.616,12.122,42.5585,0.209,0.4133,0.0938,-157.7632
16:54:46:654,-1.253,5.073,12.3371,42.4135,0.1324,0.2005,0.1662,-157.5606
16:54:46:671,-1.074,5.234,13.046,42.1712,-0.0007,0.0494,0.2662,-157.3752
16:54:46:693,-0.662,4.8701,13.7381,41.8237,-0.0708,0.1005,0.3481,-157.2105
16:54:46:713,-0.1691,3.986,14.169,41.7735,-0.0432,0.2047,0.3598,-157.0696
16:54:46:732,0.039,2.885,14.408,41.7352,0.1665,0.2644,0.294,-156.9525
16:54:46:754,-0.839,2.543,13.596,41.5988,0.6975,0.3336,0.2289,-156.8548
16:54:46:773,-2.0531,2.765,11.0231,41.6146,1.2158,0.3378,0.2769,-156.8548
16:54:46:790,-2.601,3.093,8.159,41.5111,1.2892,0.2207,0.3769,-156.7582
16:54:46:810,-2.721,3.3371,6.4661,41.5197,0.9593,0.0622,0.4206,-156.6518
16:54:46:832,-2.616,3.3161,6.069,41.6328,0.506,-0.0027,0.4088,-156.5339
16:54:46:850,-2.429,3.105,6.605,41.6726,0.1324,0.0228,0.3641,-156.4071
16:54:46:873,-2.1581,2.78,7.4891,41.5452,-0.0741,0.0547,0.3396,-156.2779
16:54:46:891,-1.682,2.435,8.363,41.3923,-0.0858,0.0632,0.3589,-156.1555
16:54:46:912,-1.263,2.279,8.8271,41.3906,0.1228,0.1611,0.4121,-156.0505
16:54:46:934,-0.849,2.157,8.633,41.3592,0.4634,0.2739,0.4663,-156.0505
16:54:46:952,-0.4661,2.171,7.826,41.3371,0.74,0.2644,0.5152,-156.0505
16:54:46:973,-0.042,2.301,6.981,41.1534,0.8678,0.2101,0.4748,-156.0505
16:54:46:993,-0.0131,2.588,6.3131,40.9431,0.8902,0.1068,0.3886,-156.0505
16:54:47:014,0.153,2.708,5.837,40.9358,0.7678,-0.0847,0.3003,-156.0505
16:54:47:035,0.419,2.837,5.6621,40.9472,0.54,-0.1442,0.1896,-156.0505
16:54:47:053,0.426,2.9591,5.837,41.0837,0.291,0.0078,0.0524,-156.0505
16:54:47:099,-0.0011,3.366,6.1481,41.1221,0.0972,0.1452,-0.07,-156.0505
16:54:47:101,-0.669,3.9461,6.5771,40.9744,-0.1006,0.0323,-0.1595,-156.0505
16:54:47:113,-1.0331,4.1179,7.2251,40.8689,-0.3741,-0.3454,-0.2051,-156.0505
16:54:47:140,-0.6641,3.752,10.1081,40.7376,-1.0926,-0.8191,-0.1232,-156.0505
16:54:47:158,0.036,3.4571,11.9561,40.6472,-1.1575,-0.5072,-0.0881,-156.0505
16:54:47:177,0.4961,3.56,12.912,40.6179,-0.9754,-0.2093,-0.1647,-156.0505
16:54:47:196,0.6011,3.651,12.7391,40.5647,-0.8968,-0.1772,-0.4011,-156.0505
16:54:47:217,0.084,3.156,12.806,40.5332,-1.0372,-0.1453,-0.6501,-156.0505
16:54:47:240,-0.81,2.444,13.613,40.4662,-1.0223,0.0727,-0.6777,-156.0505
16:54:47:259,-1.536,2.0351,13.793,40.5232,-0.6658,0.3026,-0.4872,-156.0505
16:54:47:276,-1.751,1.997,13.0841,40.471,-0.1911,0.3123,-0.1456,-156.0505
16:54:47:300,-0.944,2.193,12.1121,40.5005,0.1782,0.0302,0.1928,-156.0505
16:54:47:317,0.501,2.289,11.1611,40.5188,0.4304,-0.271,0.3077,-156.0505
16:54:47:335,1.2431,2.478,9.9281,40.5272,0.6773,-0.205,0.1833,-156.0505
16:54:47:358,0.951,2.7101,8.2211,40.4179,0.9178,0.1057,-0.0084,-156.0505
16:54:47:374,0.276,3.0071,6.431,40.1379,1.0838,0.3857,-0.1434,-156.0505
16:54:47:395,-0.236,3.393,4.977,40.116,1.1338,0.4485,-0.2531,-156.0505
16:54:47:415,-0.614,3.804,3.897,40.1888,1.0583,0.3325,-0.384,-156.0505
16:54:47:436,-0.983,4.211,3.141,40.2753,0.8316,0.1643,-0.5287,-156.0505
16:54:47:455,-1.5671,4.638,2.8661,40.6029,0.4241,0.0356,-0.6384,-156.0505
16:54:47:474,-2.1011,4.865,3.368,40.7655,-0.0921,-0.0166,-0.6341,-156.0505
16:54:47:493,-2.513,4.875,4.656,40.7141,-0.5807,-0.0582,-0.5159,-156.0505
16:54:47:514,-2.6081,4.626,6.488,40.7485,-0.9212,-0.1006,-0.2989,-155.9257
16:54:47:535,-2.5751,4.4651,8.681,40.6189,-0.9702,-0.0762,-0.0115,-155.7771
16:54:47:554,-2.379,4.685,10.589,40.4275,-0.6817,0.0366,0.2982,-155.6308
16:54:47:575,-1.799,5.1911,11.5211,40.2898,-0.2742,0.043,0.5408,-155.5058
16:54:47:594,-1.112,5.7011,11.291,40.1519,-0.0209,-0.0368,0.6122,-155.4151
16:54:47:613,-0.528,6.2201,10.613,40.0112,-0.124,-0.0591,0.5152,-155.4151
16:54:47:647,0.0701,5.9501,10.7591,39.9058,-0.5488,-0.1368,0.2408,-155.4151
16:54:47:655,0.3161,4.628,11.9801,39.8346,-1.0053,-0.2625,-0.0733,-155.4151
16:54:47:673,0.2351,3.077,13.56,39.7582,-1.1501,-0.1592,-0.2871,-155.4151
16:54:47:693,-0.312,1.8431,14.432,39.8452,-0.8286,0.1259,-0.3638,-155.4151
16:54:47:713,-1.359,1.46,13.6901,39.8677,-0.172,0.4122,-0.2648,-155.4151
16:54:47:737,-2.127,1.604,11.597,39.8848,0.3729,0.4091,-0.0371,-155.4151
16:54:47:753,-2.1611,1.982,9.3161,39.9473,0.5635,0.2069,0.1768,-155.4151
16:54:47:774,-1.9091,2.447,7.673,39.7924,0.4005,-0.0252,0.2556,-155.4151
16:54:47:792,-1.569,2.552,7.125,39.9329,0.0153,-0.1401,0.2471,-155.4151
16:54:47:813,-1.2341,2.4041,7.769,40.1472,-0.3209,-0.0389,0.2397,-155.4151
16:54:47:832,-1.1741,2.3801,8.762,40.4219,-0.3732,0.1441,0.2716,-155.4151
16:54:47:852,-1.158,2.4611,9.26,40.5432,-0.1655,0.1962,0.3695,-155.4151
16:54:47:872,-0.83,2.612,9.11,40.6264,0.159,0.1133,0.4961,-155.4151
16:54:47:894,-0.257,2.772,8.559,40.3943,0.4389,-0.0454,0.5558,-155.5176
16:54:47:912,0.278,2.9621,7.874,40.2732,0.5761,-0.2093,0.5089,-155.6394
16:54:47:932,0.611,3.024,7.47,40.4493,0.5613,-0.3146,0.3759,-155.7808
16:54:47:952,0.6611,3.062,7.388,40.5672,0.4975,-0.2805,0.2087,-155.9396
16:54:47:972,0.443,3.158,7.364,40.7079,0.4016,-0.1997,0.0385,-156.1092
16:54:47:993,0.048,3.251,7.4981,40.8195,0.2824,-0.1177,-0.1052,-156.2789
16:54:48:011,-0.456,3.4571,7.7831,40.8323,0.1834,-0.0815,-0.2042,-156.4375
16:54:48:032,-0.923,3.642,8.1971,40.813,0.0334,-0.2199,-0.2531,-156.5762
16:54:48:055,-0.9881,3.5291,9.117,40.865,-0.2071,-0.3997,-0.2457,-156.6905
16:54:48:072,-0.624,3.3371,10.41,40.9689,-0.4157,-0.4711,-0.2361,-156.7839
16:54:48:092,-0.219,3.084,11.7461,41.0276,-0.5189,-0.3849,-0.2808,-156.7839
16:54:48:113,-0.0371,2.9231,12.483,41.0699,-0.4284,-0.1305,-0.3563,-156.7839
16:54:48:134,-0.104,3.045,12.189,41.23,-0.2859,0.0323,-0.4575,-156.7839
16:54:48:152,-0.3791,2.9861,11.535,41.1292,-0.287,0.0175,-0.5979,-156.7839
16:54:48:171,-0.921,2.466,11.3771,41.0721,-0.3487,0.0622,-0.6639,-156.7839
16:54:48:191,-1.598,2.0351,11.5781,41.0969,-0.3178,0.1228,-0.5787,-156.7839
16:54:48:211,-1.9001,1.65,11.648,40.9724,-0.2039,0.0792,-0.3393,-156.7839
16:54:48:233,-1.6031,1.472,11.4101,40.9677,-0.0421,0.0111,-0.0051,-156.7839
16:54:48:251,-0.779,1.6421,10.865,41.1144,0.143,-0.0443,0.2738,-156.7839
16:54:48:270,0.113,1.9661,9.9641,41.2777,0.3378,-0.0943,0.3843,-156.7839
16:54:48:291,0.47,2.444,8.7,41.4305,0.5368,-0.0485,0.3481,-156.7839
16:54:48:313,0.3431,2.88,7.2371,41.7543,0.6985,0.0888,0.2534,-156.7839
16:54:48:331,-0.03,3.3251,5.775,42.1545,0.7826,0.2186,0.131,-156.7839
16:54:48:353,-0.525,3.8021,4.5221,42.556,0.722,0.2366,-0.0179,-156.8777
16:54:48:374,-0.9491,4.2041,3.8351,42.6864,0.5006,0.11,-0.168,-156.8777
16:54:48:391,-1.253,4.511,3.842,42.6412,0.1378,-0.1273,-0.3031,-156.8777
16:54:48:413,-1.131,4.506,4.7981,42.4725,-0.305,-0.3146,-0.3978,-156.8777
16:54:48:434,-1.014,4.3361,6.4451,42.3894,-0.6615,-0.2773,-0.4894,-156.8777
16:54:48:454,-1.205,4.041,8.487,42.5333,-0.7946,-0.0815,-0.5213,-156.8777
16:54:48:473,-1.469,3.8021,10.278,42.8872,-0.6179,0.1739,-0.4543,-156.8777
16:54:48:494,-1.6721,3.737,11.193,43.0204,-0.2241,0.4038,-0.2882,-156.8777
16:54:48:514,-1.9361,4.3241,11.183,43.1531,0.1367,0.4537,-0.0861,-156.8777
16:54:48:534,-1.782,4.709,10.79,43.4161,0.242,0.2357,0.096,-156.8777
16:54:48:552,-1.488,5.052,10.752,43.6302,0.1122,0.1207,0.2247,-156.8777
16:54:48:573,-0.918,5.064,11.343,43.8763,-0.1145,0.1632,0.3014,-156.8777
16:54:48:593,0.0071,4.1899,12.21,44.061,-0.3402,0.0994,0.2013,-156.8777
16:54:48:612,0.134,3.024,12.885,44.3267,-0.406,0.142,-0.0115,-156.8777
16:54:48:631,-0.801,2.234,13.01,44.5194,-0.122,0.4261,-0.1275,-156.8777
16:54:48:659,-2.096,2.1191,11.7101,44.6856,0.3569,0.5081,-0.0626,-156.8777
16:54:48:672,-2.762,2.387,9.419,44.8123,0.5826,0.2591,0.1023,-156.8777
16:54:48:691,-2.7401,2.6,7.5611,44.9032,0.407,-0.0368,0.2471,-156.8777
16:54:48:713,-2.3711,2.7821,6.8231,44.9926,-0.0219,-0.1687,0.312,-156.8777
16:54:48:731,-1.8851,2.7341,7.3361,45.0884,-0.4635,-0.1166,0.2812,-156.8777
16:54:48:753,-1.842,2.5931,8.511,45.302,-0.686,0.0195,0.2482,-156.8777
16:54:48:781,-1.991,2.574,9.531,45.5675,-0.6137,0.142,0.3151,-156.8777
16:54:48:791,-2.034,2.667,10.0481,45.6879,-0.2859,0.176,0.4738,-156.8777
16:54:48:812,-1.706,2.799,9.8021,45.9662,0.159,0.0749,0.6537,-156.8777
16:54:48:831,-1.016,2.904,8.877,46.2318,0.5314,-0.0698,0.7718,-156.8777
16:54:48:851,-0.2501,3.012,7.8911,46.4294,0.7283,-0.1869,0.7644,-156.8777
16:54:48:872,0.276,3.141,7.1081,46.5976,0.7422,-0.2668,0.6313,-156.9931
16:54:48:893,0.561,3.165,6.8141,46.8633,0.6039,-0.3252,0.4312,-157.1328
16:54:48:913,0.498,3.06,6.876,47.0913,0.4102,-0.2912,0.2215,-157.291
16:54:48:933,0.113,3.053,7.2161,47.2674,0.2569,-0.1103,0.0704,-157.4561
16:54:48:951,-0.4991,3.395,7.6301,47.3418,0.191,0.0473,-0.0201,-157.6133
16:54:48:975,-1.047,3.783,8.0321,47.317,0.0835,-0.0762,-0.0648,-157.7511
16:54:48:993,-1.143,3.812,8.612,47.4357,-0.1114,-0.3124,-0.0987,-157.8637
16:54:49:011,-0.8681,3.725,9.4901,47.6261,-0.3678,-0.4466,-0.1328,-157.8637
16:54:49:033,-0.516,3.644,10.6301,48.1295,-0.5838,-0.3465,-0.1903,-157.8637
16:54:49:054,-0.051,3.318,11.952,48.6576,-0.6265,-0.1475,-0.2467,-157.8637
16:54:49:073,0.261,3.266,12.5981,48.8736,-0.3901,0.1143,-0.3329,-157.8637
16:54:49:118,0.161,3.402,11.868,48.8074,-0.0421,0.308,-0.501,-157.8637
16:54:49:119,-0.4151,3.4211,10.3211,48.7988,0.076,0.2559,-0.7278,-157.8637
16:54:49:133,-1.131,3.0311,9.39,48.9969,-0.1752,0.0898,-0.896,-157.8637
16:54:49:154,-1.809,2.1791,10.082,49.4666,-0.6678,-0.1145,-0.8789,-157.8637
16:54:49:173,-2.007,1.092,12.1691,49.8835,-0.9989,-0.1134,-0.6468,-157.8637
16:54:49:194,-1.8371,0.33,14.0351,50.1054,-0.7446,0.159,-0.2489,-157.8637
16:54:49:212,-1.7321,0.5291,14.1281,50.1953,-0.0463,0.3314,0.1981,-157.8637
16:54:49:232,-1.335,1.061,12.533,50.3785,0.6517,0.1547,0.577,-157.8637
16:54:49:253,-0.6641,1.53,10.01,50.6736,1.0997,0.028,0.7792,-157.8637
16:54:49:273,-0.111,2.112,7.422,51.1204,1.253,0.3017,0.7994,-157.8637
16:54:49:295,-0.0161,2.8061,5.315,51.3174,1.1083,0.8049,0.6377,-157.8637
16:54:49:311,-0.468,3.4931,4.316,51.578,0.7624,1.136,0.3684,-157.9678
16:54:49:333,-1.2701,4.274,4.266,51.8107,0.4815,1.0817,0.0736,-158.077
16:54:49:352,-2.063,4.743,4.3361,52.0932,0.3017,0.7326,-0.1807,-158.1704
16:54:49:371,-2.534,4.8101,4.632,52.6487,0.1005,0.2665,-0.3073,-158.1704
16:54:49:391,-2.513,4.671,5.312,52.8588,-0.1049,-0.0166,-0.3041,-158.1704
16:54:49:414,-2.2781,4.568,6.459,53.0659,-0.2167,0.0334,-0.2339,-158.1704
16:54:49:431,-2.1701,4.7381,7.635,53.1535,-0.1592,0.2824,-0.1414,-158.1704
16:54:49:452,-2.606,5.4971,8.14,53.3567,-0.0326,0.5581,-0.0264,-158.1704
16:54:49:472,-3.128,6.39,8.2571,53.6721,-0.0698,0.5496,0.1875,-158.1704
16:54:49:492,-2.733,6.7421,8.9711,54.0831,-0.3741,0.1313,0.3876,-158.1704
16:54:49:511,-1.7081,6.804,10.872,54.3291,-0.8158,-0.4774,0.4014,-158.1704
16:54:49:531,-0.669,5.744,13.407,54.3283,-1.0702,-0.8638,0.1343,-158.1704
16:54:49:553,-0.353,3.5981,15.057,54.3673,-0.9265,-0.7264,-0.1658,-158.1704
16:54:49:573,-0.954,2.028,15.1121,54.6311,-0.3827,-0.1581,-0.3063,-158.2677
16:54:49:594,-2.6591,1.949,13.4771,54.8785,0.3548,0.4133,-0.186,-158.3612
16:54:49:613,-3.743,2.327,10.745,55.161,0.8592,0.5283,0.1162,-158.3612
16:54:49:633,-3.839,2.7101,8.456,55.343,0.9104,0.1749,0.4141,-158.3612
16:54:49:651,-3.1541,3.029,7.2641,55.2239,0.6614,-0.2646,0.5749,-158.3612
16:54:49:671,-2.1439,3.1271,6.861,55.1541,0.3282,-0.4179,0.544,-158.3612
16:54:49:693,-1.373,3.0311,7.058,55.2237,0.0164,-0.2742,0.3865,-158.3612
16:54:49:713,-1.095,2.825,7.592,55.3112,-0.1316,0.0228,0.2078,-158.3612
16:54:49:732,-1.1981,2.796,7.814,55.5749,-0.0901,0.2485,0.0938,-158.3612
16:54:49:754,-1.284,2.895,7.5851,55.7658,0.026,0.2921,0.0641,-158.3612
16:54:49:771,-1.332,2.9621,7.472,55.9793,0.1217,0.1378,0.0715,-158.4562
16:54:49:792,-1.383,2.835,7.587,56.3162,0.209,-0.1231,0.1194,-158.5548
16:54:49:809,-1.397,2.784,7.743,56.4179,0.2932,-0.3146,0.228,-158.6575
16:54:49:831,-1.071,2.6981,7.86,56.6287,0.3506,-0.4029,0.3481,-158.7658
16:54:49:853,-0.549,2.8181,8.016,56.699,0.358,-0.3986,0.3961,-158.8846
16:54:49:872,-0.195,3.057,8.2721,56.6793,0.3559,-0.3178,0.329,-159.0199
16:54:49:892,-0.245,3.507,8.418,56.9797,0.4027,-0.271,0.1961,-159.1716
16:54:49:911,-0.485,4.087,8.3291,57.1815,0.3708,-0.371,0.0524,-159.3316
16:54:49:931,-0.399,4.3841,8.5661,57.3698,0.1643,-0.5136,-0.1243,-159.4884
16:54:49:950,-0.449,4.578,9.347,57.6168,-0.173,-0.5913,-0.3063,-159.6367
16:54:49:970,-0.2621,4.2521,10.6061,57.8451,-0.4742,-0.5349,-0.4137,-159.7709
16:54:49:992,-0.011,4.068,11.621,58.0542,-0.5275,-0.2167,-0.5021,-159.8903
16:54:50:013,-0.114,4.1231,11.5571,58.2777,-0.3849,0.0601,-0.6755,-159.9971
16:54:50:032,-0.545,3.9341,10.5941,58.3559,-0.3667,-0.0027,-0.8991,-160.0886
16:54:50:051,-1.1861,3.0551,10.161,58.3559,-0.5987,-0.172,-1.0556,-160.0886
16:54:50:070,-2.379,2.37,11.0471,58.4375,-0.7073,-0.0549,-0.9512,-160.0886
16:54:50:093,-3.353,1.9631,11.9921,58.4491,-0.3912,0.1569,-0.5224,-160.0886
16:54:50:111,-3.269,1.8,11.643,58.3532,0.2058,0.1015,0.1013,-160.0886
16:54:50:132,-1.926,2.246,10.2041,58.25,0.6496,-0.2167,0.5897,-160.0886
16:54:50:154,-0.1301,2.655,8.66,58.0974,0.7858,-0.503,0.6781,-160.0886
16:54:50:176,1.058,3.416,5.76,57.92,0.458,-0.0358,0.0194,-160.0886
16:54:50:195,0.273,3.591,4.7021,57.8774,0.0962,0.5314,-0.3585,-160.1808
16:54:50:214,-0.911,3.7061,4.259,57.9122,-0.2922,1.0977,-0.6086,-160.2938
16:54:50:235,-2.113,3.764,4.6181,58.0035,-0.5807,1.4052,-0.7096,-160.4021
16:54:50:255,-3.03,3.948,5.322,58.2676,-0.6966,1.2977,-0.6937,-160.4021
16:54:50:274,-3.566,4.159,6.153,58.4945,-0.719,0.8114,-0.5989,-160.4021
16:54:50:296,-3.516,4.044,7.278,58.5023,-0.736,0.1888,-0.466,-160.4021
16:54:50:313,-3.288,3.831,8.535,58.6333,-0.7062,-0.1028,-0.3244,-160.4021
16:54:50:334,-3.1571,3.551,9.7751,58.4856,-0.5935,0.028,-0.1189,-160.4021
16:54:50:354,-3.152,3.618,10.7021,58.4152,-0.3189,0.3803,0.1534,-160.4021
16:54:50:374,-3.207,4.274,10.7501,58.4076,0.0111,0.5389,0.4696,-160.4021
16:54:50:393,-2.817,5.033,10.17,58.3992,0.1867,0.4645,0.7132,-160.4021
16:54:50:413,-2.1461,5.4971,9.72,58.6607,0.143,0.2932,0.7898,-160.4021
16:54:50:434,-1.718,5.8541,9.737,58.7991,-0.0506,0.2101,0.6781,-160.4021
16:54:50:453,-1.272,5.636,10.206,58.8639,-0.3081,0.1462,0.4238,-160.4021
16:54:50:471,-1.023,4.551,10.889,58.7445,-0.6594,-0.0016,0.0183,-160.4021
16:54:50:493,-1.6871,3.1151,12.107,58.562,-0.8882,0.0813,-0.3084,-160.4021
16:54:50:515,-3.128,2.049,13.34,58.4526,-0.6583,0.425,-0.3488,-160.4921
16:54:50:531,-4.347,1.6211,13.079,58.3071,-0.0166,0.6507,-0.0424,-160.4921
16:54:50:553,-4.442,1.829,10.9721,58.1509,0.54,0.5911,0.3674,-160.4921
16:54:50:575,-3.705,2.274,8.8219,57.9413,0.6453,0.3006,0.5951,-160.4921
16:54:50:592,-2.8721,2.576,7.518,57.8776,0.3911,0.0399,0.5642,-160.4921
16:54:50:613,-2.343,2.564,7.295,57.829,0.0132,0.0334,0.4047,-160.4921
16:54:50:632,-2.304,2.313,8.0111,57.7961,-0.2827,0.1313,0.2769,-160.4921
16:54:50:654,-2.331,2.1191,8.837,57.6981,-0.3422,0.1953,0.2779,-160.4921
16:54:50:685,-2.175,2.0951,9.282,57.4436,-0.1666,0.1749,0.3684,-160.4921
16:54:50:695,-1.902,2.2361,8.988,57.246,0.1387,0.0718,0.4961,-160.4921
16:54:50:712,-1.481,2.49,8.154,57.2079,0.4113,-0.0996,0.6036,-160.4921
16:54:50:731,-1.014,2.763,7.221,57.2084,0.5442,-0.2688,0.6483,-160.5896
16:54:50:751,-0.547,3.002,6.644,56.9969,0.5229,-0.3838,0.6164,-160.7008
16:54:50:773,-0.1811,3.156,6.44,56.6979,0.4059,-0.4284,0.5057,-160.9664
16:54:50:792,0.0581,3.23,6.6341,56.3547,0.2793,-0.3923,0.3514,-161.121
16:54:50:811,0.051,3.4481,6.8831,55.9205,0.2058,-0.3465,0.1258,-161.2863
16:54:50:830,-0.521,3.8231,7.0871,55.9482,0.1207,-0.4051,-0.1402,-161.4539
16:54:50:856,-1.251,3.9821,7.458,55.9568,-0.1114,-0.6146,-0.3659,-161.6064
16:54:50:876,-1.763,3.74,8.487,55.8497,-0.5041,-0.8063,-0.5351,-161.7263
16:54:50:895,-1.988,3.321,10.335,55.8476,-0.8797,-0.8095,-0.6245,-161.7263
16:54:50:911,-2.249,2.9261,12.488,55.637,-0.9956,-0.6424,-0.6766,-161.7263
16:54:50:931,-2.4341,2.579,13.7831,55.5104,-0.7477,-0.3827,-0.6223,-161.7263
16:54:50:951,-2.292,2.5451,13.52,55.4694,-0.3604,-0.3295,-0.5926,-161.7263
16:54:50:977,-2.211,2.382,12.3731,55.3735,-0.2507,-0.554,-0.6766,-161.7263
16:54:50:992,-2.4191,1.8791,12.083,55.2443,-0.3625,-0.6498,-0.7321,-161.7263
16:54:51:013,-2.862,1.487,12.39,55.1348,-0.3178,-0.4817,-0.6341,-161.7263
16:54:51:035,-3.128,1.329,12.174,55.0798,-0.089,-0.3081,-0.3403,-161.7263
16:54:51:050,-2.649,1.298,11.4971,55.058,0.2101,-0.2454,0.063,-161.7263
16:54:51:073,-1.6121,1.487,10.568,54.9842,0.4687,-0.2614,0.3812,-161.7263
16:54:51:094,-0.3671,1.628,9.581,54.9651,0.6475,-0.3092,0.51,-161.7263
16:54:51:133,0.47,1.899,8.391,54.8967,0.773,-0.2922,0.4301,-161.7263
16:54:51:134,0.486,2.279,7.005,54.88,0.8731,-0.1155,0.2428,-161.7263
16:54:51:151,-0.0161,2.7221,5.559,54.6432,0.9199,0.1048,0.0726,-161.7263
16:54:51:172,-0.59,3.237,4.2371,54.6348,0.8486,0.2144,-0.0679,-161.7263
16:54:51:192,-1.016,3.701,3.366,54.6702,0.5879,0.1484,-0.1871,-161.7263
16:54:51:213,-1.2491,4.061,3.189,54.7349,0.1398,-0.0591,-0.2914,-161.7263
16:54:51:233,-1.335,4.175,3.974,54.6625,-0.4051,-0.2688,-0.369,-161.7263
16:54:51:251,-1.4981,4.106,5.6501,54.407,-0.8723,-0.3157,-0.384,-161.6354
16:54:51:271,-1.6031,3.756,7.9601,54.121,-1.0946,-0.1539,-0.3106,-161.5258
16:54:51:292,-1.725,3.6731,10.2881,53.876,-0.886,0.094,-0.1733,-161.4081
16:54:51:314,-1.842,3.9101,11.37,53.8284,-0.4221,0.2314,-0.0179,-161.2927
16:54:51:331,-1.7921,4.3691,11.363,53.8743,-0.0804,0.1834,0.1162,-161.1847
16:54:51:354,-1.6361,4.8551,11.3,53.8892,0.0089,-0.0113,0.1662,-161.0874
16:54:51:372,-1.6601,5.1311,11.5211,54.0819,-0.056,-0.0986,0.1811,-161.0874
16:54:51:392,-1.421,5.0801,11.906,54.1645,-0.1624,0.0888,0.2247,-161.0874
16:54:51:421,-0.746,4.566,12.612,54.0168,-0.3178,0.1398,0.1438,-161.0874
16:54:51:432,-0.434,3.318,13.4141,53.8527,-0.4763,-0.0283,-0.0711,-161.0874
16:54:51:454,-0.758,2.0089,14.193,53.5801,-0.3741,0.059,-0.1966,-161.0874
16:54:51:473,-1.622,1.3451,13.8311,53.4625,0.1601,0.4229,-0.1169,-161.0874
16:54:51:492,-2.3501,1.403,11.748,53.4126,0.8007,0.6794,0.162,-161.0874
16:54:51:511,-2.187,1.829,9,53.3117,1.1125,0.5305,0.4121,-161.0874
16:54:51:530,-1.6481,2.442,6.7781,52.9782,0.9976,0.1217,0.4429,-161.0874
16:54:51:554,-1.059,2.811,5.327,52.7296,0.5112,-0.1763,0.2588,-161.0874
16:54:51:571,-0.992,2.856,5.123,52.5441,-0.1858,-0.1442,-0.0084,-161.0874
16:54:51:594,-1.4741,2.4731,6.4691,52.4184,-0.7626,0.1473,-0.1425,-161.0874
16:54:51:613,-2.113,2.361,8.351,52.3329,-0.9127,0.3527,-0.0657,-161.0874
16:54:51:631,-2.304,2.411,9.711,52.241,-0.604,0.3282,0.1705,-161.0874
16:54:51:652,-1.878,2.523,9.9401,51.9962,-0.0539,0.1313,0.4557,-161.0874
16:54:51:673,-0.909,2.708,9.1241,51.635,0.4452,-0.1273,0.6302,-161.0874
16:54:51:695,-0.011,2.8751,7.9751,51.5075,0.6868,-0.3561,0.61,-161.0874
16:54:51:712,0.6281,2.964,7.139,51.3239,0.6549,-0.4913,0.4418,-161.0874
16:54:51:732,0.9221,2.88,6.866,51.072,0.4421,-0.4933,0.2045,-161.0874
16:54:51:753,0.69,2.909,7.122,51.1352,0.2388,-0.3508,-0.0179,-161.0874
16:54:51:771,-0.0041,3.213,7.611,51.142,0.1387,-0.2614,-0.1764,-161.0874
16:54:51:792,-0.6881,3.579,8.027,51.1372,0.0536,-0.3752,-0.2595,-161.0874
16:54:51:813,-0.885,3.651,8.535,51.2042,-0.1231,-0.5243,-0.2947,-161.0874
16:54:51:833,-0.6521,3.606,9.588,50.9769,-0.3625,-0.5807,-0.3585,-161.0874
16:54:51:852,-0.315,3.3881,10.872,50.6536,-0.5497,-0.5082,-0.4712,-161.0874
16:54:51:871,-0.039,3.23,11.772,50.5888,-0.5859,-0.2549,-0.6256,-161.0874
16:54:51:893,-0.224,3.299,11.93,50.6528,-0.5295,-0.0996,-0.8416,-161.0874
16:54:51:914,-0.636,3.074,11.633,50.7131,-0.6179,-0.2028,-1.0853,-160.984
16:54:51:932,-1.32,2.471,12.2201,50.6521,-0.7893,-0.1837,-1.2056,-160.8536
16:54:51:953,-2.2781,2.037,13.4381,50.6165,-0.6689,0.0026,-1.0842,-160.6902
16:54:51:970,-2.34,1.278,14.0561,50.3573,-0.2901,-0.1049,-0.7554,-160.4967
16:54:51:993,-1.5791,0.843,13.601,50.2874,0.1387,-0.3891,-0.3275,-160.2865
16:54:52:013,-0.2291,0.948,12.632,50.3756,0.458,-0.5104,0.0311,-160.076
16:54:52:033,1.233,0.962,11.5061,50.1438,0.6964,-0.4817,0.1588,-159.8793
16:54:52:052,1.841,1.19,9.962,49.9558,0.9369,-0.2486,0.0811,-159.703
16:54:52:072,1.3871,1.6421,7.929,49.6678,1.1498,0.0271,-0.0616,-159.5445
16:54:52:093,0.51,2.1,5.844,49.463,1.2605,0.1834,-0.1892,-159.3954
16:54:52:114,-0.42,2.519,4.077,49.4054,1.2009,0.1825,-0.2617,-159.2466
16:54:52:131,-1.143,2.945,2.918,49.4569,0.971,0.0781,-0.2754,-159.0869
16:54:52:152,-1.701,3.5291,2.456,49.3501,0.6006,-0.1134,-0.2574,-158.9054
16:54:52:171,-2.0749,4.061,2.772,49.2921,0.1484,-0.3072,-0.2116,-158.6955
16:54:52:202,-1.536,4.329,5.5811,49.2428,-0.6083,-0.4678,-0.1488,-158.4545
16:54:52:222,-1.208,4.14,7.4,49.0897,-0.7296,-0.3007,-0.1807,-158.1913
16:54:52:238,-1.275,4.295,9.014,49.0091,-0.6265,0.0323,-0.2254,-157.9222
16:54:52:258,-1.629,4.671,10.089,48.6934,-0.4242,0.1984,-0.2776,-157.6584
16:54:52:279,-2.084,4.994,11.018,48.6068,-0.2986,-0.1283,-0.2882,-157.4014
16:54:52:300,-2.1851,5.253,11.8391,48.6198,-0.2315,-0.6786,-0.2372,-157.1477
16:54:52:321,-1.979,5.4851,12.153,48.6448,-0.2295,-0.7477,-0.1425,-156.893
16:54:52:345,-1.28,5.207,12.332,48.7723,-0.4051,-0.4051,-0.0412,-156.6385
16:54:52:359,-0.5021,4.257,13.0841,48.6053,-0.6094,-0.04,0.0161,-156.3892
16:54:52:377,-0.1451,3.0311,13.793,48.2944,-0.5807,0.2366,0.0534,-156.1535
16:54:52:400,-0.717,2.519,13.838,48.1591,-0.1603,0.4378,0.1375,-155.9396
16:54:52:420,-1.548,2.567,12.344,48.0479,0.425,0.3803,0.3162,-155.7495
16:54:52:438,-1.682,2.579,9.794,48.0282,0.6953,0.1111,0.5152,-155.578
16:54:52:458,-1.304,2.792,7.7981,47.9495,0.4857,-0.0688,0.6292,-155.4189
16:54:52:477,-0.6641,2.732,7.0841,47.8617,-0.0432,0.0069,0.5962,-155.2723
16:54:52:497,-0.15,2.4041,7.8071,47.5483,-0.5859,0.2846,0.4748,-155.1422
16:54:52:519,-0.032,2.1881,9.1,47.2416,-0.8616,0.5879,0.3503,-155.0341
16:54:52:536,-0.1421,1.913,10.07,47.0201,-0.8584,0.7146,0.2844,-155.0341
16:54:52:557,-0.296,1.7051,10.905,46.7939,-0.6328,0.6156,0.3248,-155.0341
16:54:52:577,-0.128,1.413,11.375,46.5182,-0.206,0.39,0.4642,-155.0341
16:54:52:596,0.3641,1.257,11.243,46.3155,0.3623,0.2016,0.6377,-155.0341
16:54:52:616,0.9821,1.362,10.149,46.1401,0.9391,0.0972,0.7547,-155.0341
16:54:52:641,1.509,1.6211,8.571,45.8012,1.3265,0.0217,0.7314,-155.0341
16:54:52:655,1.736,1.994,7.0031,45.4708,1.4915,-0.0209,0.5877,-155.0341
16:54:52:675,1.578,2.447,5.561,45.1344,1.4403,-0.0283,0.3812,-155.0341
16:54:52:707,1.188,3.033,4.463,44.8995,1.1924,-0.0719,0.1481,-155.0341
16:54:52:716,0.75,3.768,3.921,44.5555,0.7411,-0.2497,-0.1317,-155.1425
16:54:52:738,0.1631,4.2761,4.01,44.3382,0.0749,-0.5221,-0.4404,-155.2623
16:54:52:755,-0.4871,4.211,5.123,44.045,-0.6721,-0.6977,-0.6245,-155.3789
16:54:52:775,-0.6791,3.852,6.854,43.6864,-1.3277,-0.7446,-0.6405,-155.4702
16:54:52:794,-0.056,3.3491,9.093,43.7235,-1.8652,-0.6572,-0.6149,-155.4702
16:54:52:816,1.032,3.108,11.885,43.6423,-2.1259,-0.3827,-0.7575,-155.4702
16:54:52:834,1.209,3.0431,14.202,43.6371,-2.028,-0.0773,-1.1661,-155.4702
16:54:52:854,-0.1571,2.5451,15.189,43.6177,-1.7673,0.0792,-1.5195,-155.4702
16:54:52:876,-2.0749,2.097,15.8681,43.4915,-1.4523,0.1154,-1.4802,-155.4702
16:54:52:894,-3.2621,1.623,16.316,43.5705,-0.9265,0.143,-1.0981,-155.3531
16:54:52:914,-3.5111,1.31,16.1291,43.5062,-0.1837,0.1143,-0.4947,-155.204
16:54:52:934,-2.6231,1.199,14.7701,43.3447,0.5846,-0.023,0.1236,-155.0388
16:54:52:953,-0.968,1.257,12.849,43.2591,1.1413,-0.1442,0.5291,-154.8799
16:54:52:976,0.6251,1.266,10.817,42.9223,1.4648,-0.2668,0.6133,-154.7469
16:54:52:993,1.4771,1.353,8.7431,42.6795,1.5946,-0.2751,0.4397,-154.6503
16:54:53:014,1.475,1.515,6.747,42.5073,1.5851,-0.091,0.1546,-154.6503
16:54:53:033,0.8021,1.731,5.0711,42.3403,1.4957,0.209,-0.1158,-154.6503
16:54:53:054,-0.209,2.078,3.735,42.1379,1.3179,0.3846,-0.2936,-154.6503
16:54:53:073,-1.158,2.435,2.844,41.9982,0.989,0.3271,-0.3724,-154.6503
16:54:53:093,-1.785,2.646,2.5781,41.905,0.5123,0.1111,-0.352,-154.6503
16:54:53:115,-1.928,2.8661,3.009,41.8866,-0.0241,-0.1103,-0.2861,-154.6503
16:54:53:152,-1.845,3.009,4.0031,41.8608,-0.505,-0.1954,-0.2617,-154.517
16:54:53:154,-1.8281,2.954,5.3081,41.9062,-0.8999,-0.1294,-0.2637,-154.3415
16:54:53:173,-1.77,2.772,7.134,41.8546,-1.1788,0.01,-0.2361,-154.1429
16:54:53:194,-1.694,2.784,9.071,41.5315,-1.2298,0.2526,-0.2148,-153.9387
16:54:53:218,-2.027,3.0671,10.647,41.3556,-1.051,0.5719,-0.1712,-153.5729
16:54:53:236,-2.381,3.4721,11.6711,41.2326,-0.8041,0.7571,-0.0125,-153.4231
16:54:53:254,-2.2451,3.9071,12.1961,40.958,-0.7253,0.6187,0.1588,-153.296
16:54:53:270,-1.658,3.965,12.701,40.7054,-0.8265,0.6039,0.228,-153.1962
16:54:53:291,-1.1141,3.534,13.982,40.5433,-0.9201,0.5687,0.2141,-153.1962
16:54:53:311,-0.6761,2.684,15.2441,40.4272,-0.8052,0.3835,0.1683,-153.1962
16:54:53:332,-0.6791,2.037,15.89,40.5246,-0.3912,0.3729,0.1981,-153.1962
16:54:53:354,-1.1501,1.824,15.258,40.5956,0.3293,0.5038,0.3418,-153.1962
16:54:53:371,-1.526,2.016,12.7181,40.5499,1.0348,0.407,0.5248,-153.1962
16:54:53:392,-1.4351,2.274,9.605,40.3598,1.2935,0.1473,0.6025,-153.1962
16:54:53:412,-1.311,2.691,7.4171,40.2754,1.0519,-0.0879,0.5387,-153.1962
16:54:53:431,-1.1411,2.835,6.5891,40.2504,0.5229,-0.1655,0.3833,-153.1962
16:54:53:452,-1.031,2.5931,7.2611,40.08,-0.0092,-0.1347,0.228,-153.1962
16:54:53:471,-1.1,2.346,8.681,39.9789,-0.2582,-0.0454,0.1301,-153.1962
16:54:53:490,-1.148,2.069,9.72,39.9588,-0.2039,-0.0133,0.113,-153.1962
16:54:53:511,-0.98,1.812,10.029,39.881,0.0323,-0.0337,0.1503,-153.1962
16:54:53:533,-0.686,1.635,9.751,39.9626,0.3123,-0.0337,0.2002,-153.1962
16:54:53:551,-0.554,1.635,8.9921,39.9923,0.557,-0.0602,0.2237,-153.1962
16:54:53:573,-0.54,1.721,8.0441,39.9186,0.7411,-0.0975,0.2471,-153.1962
16:54:53:592,-0.6161,1.899,7.0511,39.7695,0.8401,-0.1401,0.2695,-153.1962
16:54:53:613,-0.669,2.2151,6.138,39.7273,0.8114,-0.1848,0.2897,-153.1962
16:54:53:631,-0.645,2.679,5.516,39.71,0.6453,-0.1922,0.2907,-153.1962
16:54:53:653,-0.485,3.189,5.375,39.6103,0.3666,-0.1635,0.2045,-153.1962
16:54:53:671,-0.6,3.6971,5.925,39.659,0.0483,-0.1613,0.0109,-153.2957
16:54:53:693,-0.6161,3.9701,7.7231,39.5341,-0.254,-0.3806,-0.2276,-153.3972
16:54:53:722,-0.573,4.137,9.9281,39.5841,-0.4625,-0.6797,-0.5085,-153.4922
16:54:53:731,-0.873,4.01,11.87,39.6099,-0.6839,-0.7785,-0.7777,-153.4922
16:54:53:753,-1.773,3.74,13.709,39.6754,-0.8137,-0.4125,-0.7873,-153.4922
16:54:53:773,-2.031,3.311,15.167,39.7486,-0.5125,0.1239,-0.5149,-153.4922
16:54:53:793,-1.509,3.39,14.805,39.6075,0.1282,0.3026,-0.3244,-153.4922
16:54:53:813,-0.935,3.4481,12.6941,39.6029,0.5379,0.159,-0.4584,-153.4922
16:54:53:831,-1.361,3.3401,10.6751,39.4915,0.4804,0.0718,-0.6905,-153.4922
16:54:53:854,-2.12,2.907,10.211,39.5216,0.1335,0.1484,-0.7714,-153.4922
16:54:53:873,-2.4821,2.219,10.934,39.4367,-0.0943,0.2569,-0.6425,-153.4922
16:54:53:893,-2.357,1.808,11.499,39.509,-0.0688,0.2526,-0.3563,-153.4922
16:54:53:911,-1.56,1.427,11.846,39.5924,0.1495,0.0972,-0.036,-153.4922
16:54:53:933,-0.497,1.31,11.499,39.6245,0.5305,0.0026,0.2098,-153.4922
16:54:53:952,0.192,1.496,10.1081,39.725,0.9455,0.0516,0.3259,-153.4922
16:54:53:973,0.29,1.839,8.193,39.7971,1.3201,0.2027,0.3344,-153.4922
16:54:53:993,-0.027,2.2721,6.134,39.7713,1.5925,0.291,0.279,-153.4922
16:54:54:012,-0.54,2.909,4.29,39.8236,1.6329,0.1834,0.18,-153.4922
16:54:54:034,-0.992,3.7091,2.925,40.0416,1.4042,-0.0283,0.0491,-153.4922
16:54:54:052,-1.134,4.398,2.262,40.1734,0.9699,-0.2338,-0.1009,-153.4922
16:54:54:072,-1.04,4.779,2.396,40.33,0.3697,-0.4071,-0.3052,-153.4922
16:54:54:094,-0.9251,4.6901,3.498,40.4084,-0.256,-0.4359,-0.5192,-153.4922
16:54:54:112,-1.301,4.614,5.0711,40.3932,-0.7329,-0.206,-0.6809,-153.4922
16:54:54:134,-1.893,4.415,7.0151,40.3865,-0.9201,0.1654,-0.7213,-153.4922
16:54:54:152,-2.556,4.5701,8.573,40.4337,-0.7264,0.4537,-0.6362,-153.4922
16:54:54:173,-3.3821,5.325,8.9711,40.5452,-0.3965,0.4452,-0.4957,-153.3843
16:54:54:191,-3.777,5.7101,8.791,40.4726,-0.2901,0.1335,-0.3063,-153.2568
16:54:54:211,-3.396,5.981,9.033,40.5397,-0.4572,-0.1603,-0.1148,-153.1168
16:54:54:232,-2.477,6,10.0361,40.6234,-0.9031,-0.3721,-0.0455,-152.9796
16:54:54:251,-1.4141,4.8581,12.1931,40.6674,-1.3852,-0.3519,-0.0892,-152.8634
16:54:54:274,-0.983,3.342,14.616,40.5338,-1.3331,0.1111,-0.0987,-152.8634
16:54:54:295,-1.347,2.552,15.7271,40.4068,-0.4731,0.5783,-0.0093,-152.8634
16:54:54:313,-2.127,2.78,13.563,40.1653,0.623,0.4421,0.1216,-152.8634
16:54:54:331,-2.5031,3.227,9.8141,40.0571,1.0849,-0.1655,0.1865,-152.8634
16:54:54:352,-2.4431,3.452,7.0721,40.0527,0.7593,-0.5913,0.195,-152.8634
16:54:54:372,-2.067,3.254,6.203,39.9968,0.0781,-0.3901,0.1896,-152.8634
16:54:54:392,-2.01,3.041,7.173,39.9626,-0.4922,0.0824,0.1631,-152.8634
16:54:54:412,-2.292,2.942,8.468,40.0217,-0.67,0.3473,0.1651,-152.8634
16:54:54:433,-2.501,2.928,9.222,40.0685,-0.4998,0.3473,0.2365,-152.8634
16:54:54:453,-2.369,3.038,9.2801,40.1807,-0.1528,0.1133,0.3524,-152.8634
16:54:54:473,-1.742,2.9711,8.595,40.1819,0.143,-0.1433,0.411,-152.8634
16:54:54:492,-1.3511,2.978,8.408,40.2027,0.2761,-0.2986,0.3897,-152.8634
16:54:54:512,-1.1141,2.763,8.796,40.2356,0.4187,-0.3582,0.3737,-152.8634
16:54:54:531,-0.942,2.66,8.801,40.2851,0.6006,-0.3422,0.3919,-152.8634
16:54:54:551,-0.8321,2.816,8.346,40.3674,0.7241,-0.2347,0.4312,-152.8634
16:54:54:572,-0.624,3.1001,7.697,40.3831,0.7474,-0.1635,0.446,-152.9536
16:54:54:593,-0.4781,3.603,7.01,40.4032,0.6623,-0.1709,0.3759,-153.0614
16:54:54:615,-0.525,4.151,6.6461,40.5029,0.4485,-0.2358,0.2311,-153.1854
16:54:54:633,-0.581,4.448,6.881,40.4479,0.0909,-0.3391,0.0448,-153.3195
16:54:54:654,-0.765,4.238,7.563,40.3763,-0.2912,-0.2742,-0.1052,-153.4566
16:54:54:673,-1.062,4.2281,8.504,40.3688,-0.5818,-0.0124,-0.1541,-153.5888
16:54:54:693,-1.5,4.396,9.593,40.2391,-0.6711,0.2164,-0.1595,-153.712
16:54:54:713,-1.679,4.7861,10.11,40.1837,-0.6168,0.1462,-0.1966,-153.825
16:54:54:732,-1.146,4.808,10.098,40.4132,-0.7296,-0.2986,-0.4319,-153.9284
16:54:54:753,-0.9011,3.914,10.5131,40.4581,-1.1968,-0.6146,-0.7543,-154.022
16:54:54:774,-1.5,2.6651,12.5381,40.6599,-1.5331,-0.2443,-0.8544,-154.022
16:54:54:794,-2.747,1.6931,14.9081,40.7207,-1.2787,0.2878,-0.6075,-154.022
16:54:54:814,-3.3791,1.058,15.7751,40.6171,-0.4774,0.4293,0.0448,-154.022
16:54:54:832,-2.199,0.804,14.961,40.7541,0.4676,0.0813,0.8495,-154.022
16:54:54:853,0.089,1.13,13.185,40.8502,1.2009,-0.3391,1.3369,-154.022
16:54:54:876,2.3201,1.3931,11.319,40.9336,1.617,-0.6253,1.3124,-154.145
16:54:54:894,3.5921,1.5041,9.162,41.09,1.8352,-0.5253,0.9281,-154.3173
16:54:54:913,3.446,1.7501,6.873,41.0735,1.9309,-0.1134,0.446,-154.5359
16:54:54:930,2.469,2.21,4.5821,40.9979,1.8766,0.2813,0.0129,-154.7913
16:54:54:953,1.334,2.8391,2.66,40.8959,1.5595,0.4634,-0.3169,-155.071
16:54:54:971,0.261,3.486,1.7381,40.8829,1.0125,0.3996,-0.5426,-155.3606
16:54:54:994,-0.6671,4.022,1.8431,40.9594,0.3686,0.159,-0.6309,-155.632
16:54:55:011,-1.112,4.341,2.585,41.1623,-0.2358,-0.0337,-0.5873,-155.848
16:54:55:031,-1.1981,4.74,3.8381,41.3369,-0.6817,-0.1049,-0.5224,-155.9913
16:54:55:053,-1.289,5.162,5.286,41.6538,-0.9233,-0.1018,-0.4851,-155.9913
16:54:55:074,-1.694,5.6531,6.929,42.0859,-0.9786,-0.1772,-0.4245,-155.9913
16:54:55:093,-2.24,6.194,8.808,42.1577,-0.7924,-0.5508,-0.2925,-155.9913
16:54:55:113,-2.534,6.716,9.993,42.2539,-0.454,-1.1,-0.0881,-155.9913
16:54:55:166,-2.182,7.053,10.3001,42.3625,-0.3039,-1.4853,0.113,-155.9913
16:54:55:167,-1.454,7.4321,10.845,42.4493,-0.538,-1.4629,0.212,-155.9913
16:54:55:176,-0.593,6.807,12.617,42.6876,-0.9265,-1.05,0.1896,-155.9913
16:54:55:193,-0.104,5.3291,14.793,42.8907,-1.0255,-0.4051,0.1216,-155.9913
16:54:55:213,-0.4391,4.092,15.938,42.984,-0.6189,0.3495,0.0661,-155.9913
16:54:55:244,-3.08,3.9431,13.0721,42.7607,0.6837,0.407,0.2386,-155.9913
16:54:55:259,-3.152,3.78,10.623,42.5172,0.7135,-0.0708,0.4833,-155.9913
16:54:55:281,-2.429,3.431,9.284,42.4071,0.4241,0.0036,0.6876,-155.9913
16:54:55:296,-1.6991,3.072,8.942,42.3591,0.1888,0.5379,0.776,-155.9913
16:54:55:315,-1.4261,2.9351,8.6951,42.5187,0.1122,0.9551,0.7877,-155.9913
16:54:55:335,-1.3901,2.969,8.2331,42.6398,0.0888,1.0828,0.8069,-155.9913
16:54:55:355,-1.349,2.9741,8.166,42.9402,0.0388,0.9306,0.8856,-155.9913
16:54:55:378,-0.875,2.6531,8.406,43.1183,0.0291,0.6731,1.0336,-156.0841
16:54:55:396,0.084,2.2721,8.693,43.2831,0.1079,0.5155,1.1762,-156.2063
16:54:55:417,0.9941,2.121,8.8031,43.35,0.2952,0.5112,1.239,-156.5725
16:54:55:439,1.935,2.066,8.648,43.2624,0.5453,0.5027,1.2038,-156.8349
16:54:55:455,2.5691,2.349,8.111,43.2367,0.7539,0.3367,1.0453,-157.1545
16:54:55:474,2.835,2.732,7.3691,43.198,0.821,0.0738,0.808,-157.526
16:54:55:494,2.8301,3.021,6.644,43.369,0.771,-0.0741,0.5908,-157.9396
16:54:55:514,2.744,3.266,5.952,43.3697,0.6656,-0.0517,0.4184,-158.3839
16:54:55:535,2.6651,3.6611,5.327,43.2425,0.5017,-0.0304,0.2491,-158.85
16:54:55:555,2.4161,4.1801,5.087,43.3547,0.2431,-0.1869,0.0385,-159.3297
16:54:55:574,1.925,4.587,5.348,43.3623,-0.0932,-0.505,-0.1647,-159.8099
16:54:55:595,1.5611,4.6541,6.15,43.471,-0.4689,-0.8499,-0.2691,-160.2696
16:54:55:614,1.5881,4.683,7.412,43.49,-0.8148,-1.1171,-0.2734,-160.69
16:54:55:633,2.5691,4.58,9.4451,43.3814,-1.0883,-1.4161,-0.2914,-161.0655
16:54:55:654,4.0511,3.948,11.193,43.4602,-1.2639,-1.6917,-0.5565,-161.405
16:54:55:675,4.482,3.306,11.987,43.6082,-1.3681,-1.4756,-1.0471,-161.7152
16:54:55:693,3.5201,2.519,12.426,43.9727,-1.4043,-0.8095,-1.526,-161.9838
16:54:55:713,1.59,2.136,12.945,44.2746,-1.266,-0.2326,-1.7494,-162.1902
16:54:55:745,0.1511,1.8671,13.2281,44.4189,-0.9201,-0.1038,-1.6664,-162.3201
16:54:55:755,-0.3101,1.5731,12.998,44.5544,-0.4305,-0.3752,-1.3673,-162.3201
16:54:55:773,0.2321,1.7411,12.002,44.6242,0.0749,-0.7147,-1.0311,-162.3201
16:54:55:793,1.3151,2.076,10.3691,44.6819,0.4144,-0.8999,-0.9002,-162.3201
16:54:55:814,1.94,2.334,8.3531,44.77,0.4804,-0.8436,-1.0044,-162.3201
16:54:55:833,1.604,2.6261,6.543,44.7451,0.3559,-0.5338,-1.2077,-162.3201
16:54:55:852,0.537,2.99,5.198,44.5872,0.1675,-0.1741,-1.3758,-162.3201
16:54:55:875,-0.516,3.2201,4.3931,44.6173,-0.0315,0.0186,-1.4429,-162.3201
16:54:55:893,-1.392,3.539,4.0481,44.8371,-0.2625,-0.1006,-1.4398,-162.2213
16:54:55:915,-2.2091,3.972,4.3241,45.1031,-0.553,-0.4051,-1.3769,-162.0682
16:54:55:932,-2.6921,4.1471,5.265,45.4064,-0.8562,-0.6806,-1.2151,-161.8563
16:54:55:955,-2.81,4.31,6.687,45.7278,-1.1202,-0.8115,-0.9916,-161.592
16:54:55:974,-2.6351,4.386,8.475,45.6662,-1.2671,-0.7509,-0.7532,-161.2943
16:54:55:993,-2.4,4.4891,10.4771,45.5939,-1.1755,-0.62,-0.5383,-160.9842
16:54:56:012,-2.199,4.6571,12.1361,45.6313,-0.8488,-0.5497,-0.3681,-160.6781
16:54:56:032,-2.204,4.9181,13.206,45.3654,-0.4359,-0.5594,-0.1966,-160.384
16:54:56:051,-2.237,5.217,13.841,45.2372,-0.0283,-0.5519,0.0194,-160.1036
16:54:56:072,-1.83,5.315,14.1611,45.271,0.2984,-0.5508,0.2408,-159.8381
16:54:56:092,-1.052,5.337,14.2481,45.3296,0.4751,-0.5562,0.3663,-159.5912
16:54:56:114,-0.296,5.052,14.2121,45.3714,0.4921,-0.4509,0.3706,-159.3667
16:54:56:135,0.2351,4.046,14.013,45.3548,0.4091,-0.1155,0.3151,-159.1644
16:54:56:152,-0.071,3.12,13.833,45.2647,0.4027,0.5314,0.3014,-158.9825
16:54:56:171,-1.215,2.763,13.745,45.0573,0.6538,1.0743,0.3982,-158.8159
16:54:56:191,-2.199,2.562,13.244,44.7754,1.0912,0.9933,0.6324,-158.6591
16:54:56:214,-2.2211,2.267,11.949,44.5634,1.3914,0.4326,0.925,-158.5121
16:54:56:230,-1.253,1.896,10.596,44.2916,1.3637,0.1749,1.1272,-158.3816
16:54:56:258,-0.3941,1.764,9.869,44.2169,1.154,0.5613,1.1815,-158.2791
16:54:56:271,-0.257,1.7741,9.4451,44.3188,0.9391,1.0753,1.1528,-158.2791
16:54:56:293,-0.389,1.709,8.9351,44.4013,0.7741,1.3254,1.1528,-158.2791
16:54:56:310,-0.401,1.559,8.37,44.5445,0.705,1.5159,1.1996,-158.2791
16:54:56:333,-0.449,1.551,7.719,44.1909,0.756,1.6787,1.2826,-158.2791
16:54:56:351,-0.413,1.6781,6.854,43.8576,0.8518,1.7,1.3794,-158.2791
16:54:56:373,-0.2741,1.9421,5.952,43.6731,0.8742,1.5638,1.4645,-158.3876
16:54:56:391,0.165,2.2271,5.43,43.4441,0.756,1.3296,1.5008,-158.5344
16:54:56:414,0.7901,2.471,5.435,43.5022,0.5144,1.1157,1.4422,-158.726
16:54:56:432,1.4441,2.6141,6.05,43.4994,0.2739,1.0029,1.3082,-158.9715
16:54:56:452,2.153,2.523,6.816,43.2845,0.1133,0.8826,1.107,-159.2733
16:54:56:475,2.79,2.423,7.245,43.2474,-0.0485,0.7762,0.8378,-159.6284
16:54:56:493,2.912,2.454,7.541,42.9063,-0.2167,0.8805,0.512,-160.0285
16:54:56:513,2.426,2.705,7.98,42.5346,-0.3508,0.9646,0.2619,-160.4572
16:54:56:533,2.0261,3.014,8.724,42.4499,-0.5147,0.6783,0.1301,-160.892
16:54:56:552,2.471,2.892,9.8591,42.3273,-0.6615,0.2516,0.0736,-161.318
16:54:56:571,3.24,2.6411,10.9271,42.2971,-0.637,0.0132,-0.0434,-161.7324
16:54:56:593,3.4841,2.784,11.31,42.2874,-0.4295,-0.0528,-0.2137,-162.1356
16:54:56:613,3.35,3.302,10.608,42.1989,-0.1943,-0.139,-0.3787,-162.5241
16:54:56:633,3.278,3.405,9.2321,42.3472,-0.1018,-0.3178,-0.6097,-162.8946
16:54:56:651,2.4041,3.773,7.889,42.4423,-0.2518,-0.4976,-0.8724,-163.2447
16:54:56:673,1.6451,3.701,7.295,42.4911,-0.6285,-0.569,-1.0183,-163.5643
16:54:56:692,1.128,3.177,7.8911,42.5579,-1.0978,-0.587,-1.0523,-163.841
16:54:56:712,0.572,2.741,9.521,42.5038,-1.4406,-0.5998,-0.9597,-164.0665
16:54:56:733,0.513,2.516,11.612,42.465,-1.466,-0.6157,-0.7512,-164.2388
16:54:56:759,1.008,2.499,13.335,42.5501,-1.0394,-0.7329,-0.5893,-164.3687
16:54:56:771,1.691,2.672,13.359,42.6596,-0.3721,-0.9925,-0.5958,-164.4721
16:54:56:794,1.7291,3.096,11.5661,42.7289,0.1611,-1.0724,-0.7523,-164.4721
16:54:56:813,1.08,3.4451,9.356,42.8502,0.4038,-0.9648,-0.9279,-164.4721
16:54:56:833,0.0671,3.953,7.419,42.7208,0.4443,-0.7605,-1.0608,-164.4721
16:54:56:852,-0.9491,4.508,6.1121,42.6242,0.3367,-0.5551,-1.1385,-164.4721
16:54:56:871,-1.811,4.8791,5.633,42.4938,0.1675,-0.404,-1.178,-164.4721
16:54:56:892,-2.81,5.303,6.035,42.4974,0.0547,-0.3997,-1.147,-164.4721
16:54:56:915,-3.59,5.691,6.804,42.7252,0.0536,-0.5583,-1.0044,-164.3425
16:54:56:932,-3.851,5.847,7.4381,42.6461,0.1217,-0.6689,-0.8299,-164.158
16:54:56:954,-3.99,5.844,8.0351,42.6676,0.1356,-0.5827,-0.7437,-163.9275
16:54:56:971,-4.56,5.607,9.0071,42.6145,0.0675,-0.3167,-0.7437,-163.6592
16:54:56:994,-5.8691,5.43,10.3211,42.555,-0.0432,0.0078,-0.6586,-163.3562
16:54:57:013,-7.232,5.1641,12.045,42.766,-0.1006,0.2707,-0.3542,-163.0214
16:54:57:031,-7.71,4.6181,13.407,42.7927,0.028,0.4793,0.1225,-162.669
16:54:57:053,-7.641,4.329,13.6511,42.8088,0.258,0.6816,0.6005,-162.3223
16:54:57:073,-7.148,3.938,13.043,42.8352,0.3356,0.8029,0.9707,-162.0007
16:54:57:097,-6.6791,3.2111,12.734,42.6038,0.2271,0.9082,1.2305,-161.7154
16:54:57:113,-6.5441,2.3201,12.876,42.5308,0.1515,1.0966,1.5071,-161.4739
16:54:57:131,-6.224,1.034,12.857,42.4339,0.1675,1.1796,1.852,-161.2825
16:54:57:165,-5.912,-0.059,12.6101,42.3345,0.2963,1.2636,2.2851,-161.1499
16:54:57:171,-5.493,-0.696,12.0431,42.0909,0.5666,1.353,2.8258,-161.1499
16:54:57:193,-4.3661,-1.014,10.898,42.0229,0.8103,1.1892,3.3642,-161.1499
16:54:57:212,-2.606,-1.0721,9.5,41.7126,0.8539,1.0157,3.6974,-161.1499
16:54:57:231,-0.9041,-0.909,8.3051,41.3218,0.7294,1.1657,3.7825,-161.1499
16:54:57:265,0.2801,-0.552,7.4771,41.194,0.4942,1.4392,3.6271,-161.1499
16:54:57:271,0.927,-0.047,6.957,41.0517,0.176,1.6329,3.3216,-161.1499
16:54:57:294,1.154,0.2681,6.816,40.7895,-0.1858,1.6776,2.9129,-161.1499
16:54:57:313,0.654,0.323,7.3571,40.5015,-0.5104,1.5744,2.5256,-161.1499
16:54:57:332,0.086,0.266,8.229,40.1853,-0.6743,1.3999,2.3468,-161.8277
16:54:57:352,0.1181,0.3611,9.0071,39.8079,-0.6626,1.2477,2.2946,-162.5467
16:54:57:373,0.8741,0.3971,9.4301,39.5473,-0.5944,1.1157,2.2191,-163.304
16:54:57:392,1.9541,0.464,9.62,39.2795,-0.587,1.0391,1.9924,-164.0988
16:54:57:412,2.4971,0.654,9.876,39.0678,-0.5955,1.0869,1.6104,-164.926
16:54:57:431,2.313,0.8021,9.933,39.0215,-0.5275,1.2275,1.2272,-165.7744
16:54:57:453,1.703,0.972,9.5771,38.794,-0.4051,1.3062,0.9963,-166.631
16:54:57:471,1.47,1.379,9.275,38.5442,-0.3018,1.0997,0.8962,-167.4883
16:54:57:493,1.971,1.6931,9.447,38.2406,-0.2742,0.5464,0.776,-168.3458
16:54:57:512,2.873,1.772,9.8951,37.944,-0.3072,-0.0719,0.5248,-169.2036
16:54:57:534,3.012,2.018,10.316,37.7971,-0.3326,-0.3977,0.1918,-170.0579
16:54:57:551,3.053,2.124,10.2881,37.8066,-0.3444,-0.4284,-0.0978,-170.9001
16:54:57:572,2.672,2.6381,9.806,37.8655,-0.4487,-0.2592,-0.4223,-171.7217
16:54:57:593,2.268,3.065,9.416,37.8456,-0.7201,-0.1794,-0.7267,-172.5134
16:54:57:613,2.033,2.492,9.395,37.8245,-1.167,-0.1848,-1.1034,-173.2654
16:54:57:633,0.5801,1.913,10.592,37.8784,-1.4842,0.0505,-1.3769,-173.968
16:54:57:653,-1.289,1.556,11.93,37.8922,-1.3032,0.3165,-1.346,-174.6109
16:54:57:673,-3.054,2.054,12.603,37.9807,-0.7179,0.1919,-0.9694,-175.1956
16:54:57:692,-3.305,2.459,12.1451,38.0399,-0.0133,-0.4114,-0.4202,-175.7385
16:54:57:713,-2.417,2.636,10.7381,38.1585,0.5006,-0.9851,-0.0286,-176.2608
16:54:57:733,-1.143,2.844,9.375,38.1643,0.6538,-1.3043,0.1088,-176.7761
16:54:57:757,-0.2261,3.1361,8.219,38.1026,0.458,-1.2127,-0.0221,-177.2895
16:54:57:770,-0.1541,3.275,7.668,38.142,0.0792,-0.7094,-0.3201,-177.7982
16:54:57:793,-1.079,3.1601,7.752,38.0757,-0.2412,-0.1326,-0.5862,-178.2914
16:54:57:814,-2.424,3.158,8.054,37.9978,-0.3411,0.2377,-0.6883,-178.7522
16:54:57:831,-3.636,3.321,8.025,37.9545,-0.2699,0.2771,-0.6011,-179.1697
16:54:57:853,-4.4141,3.476,7.769,38.057,-0.2028,0.0866,-0.3872,-179.5437
16:54:57:873,-4.8401,3.5171,7.85,38.0557,-0.221,-0.1592,-0.0903,-179.8823
16:54:57:892,-4.7921,3.464,8.3479,38.0522,-0.2518,-0.2699,0.2482,179.8012
16:54:57:913,-4.49,3.393,8.9921,38.1336,-0.2305,-0.2347,0.5461,179.49
16:54:57:934,-4.143,3.1841,9.713,37.9551,-0.1655,-0.1655,0.7877,179.1693
16:54:57:952,-4.0931,3.086,10.347,37.7954,-0.0092,-0.0741,1.0293,178.8291
16:54:57:973,-4.004,3.177,10.551,37.5883,0.2271,0.0675,1.3039,178.4633
16:54:57:994,-3.659,3.3971,10.376,37.3077,0.4207,0.1792,1.5487,178.0679
16:54:58:013,-3.027,3.582,10.185,37.0637,0.474,0.1877,1.6753,177.6387
16:54:58:033,-2.261,3.4721,10.338,36.8673,0.3345,0.1259,1.6412,177.1718
16:54:58:052,-1.907,3.17,11.0681,36.6221,0.0525,0.2112,1.4667,176.6644
16:54:58:073,-2.3141,2.499,12.078,36.3652,-0.1273,0.6187,1.3486,176.119
16:54:58:093,-3.2141,1.6541,12.782,36.2385,-0.0624,1.1529,1.4189,175.5437
16:54:58:112,-4.1141,1.049,12.576,35.9905,0.2388,1.451,1.6827,174.9448
16:54:58:133,-4.445,0.7421,11.5541,35.9185,0.5613,1.3658,2.0435,174.3241
16:54:58:155,-4.181,0.833,10.328,35.9622,0.6901,0.9721,2.3383,173.6793
16:54:58:174,-3.4181,0.864,9.536,36.056,0.5826,0.5592,2.4618,173.0052
16:54:58:193,-2.546,0.843,9.342,36.2662,0.3271,0.4091,2.4223,172.2961
16:54:58:211,-1.9721,0.929,9.555,36.4742,0.0451,0.6304,2.2797,171.5465
16:54:58:232,-1.536,0.8621,10.022,36.5381,-0.2188,0.8954,2.0903,170.7553
16:54:58:253,-1.193,0.5531,10.5461,36.3659,-0.3827,1.0817,1.9147,169.9254
16:54:58:278,-1.2701,0.567,10.757,36.1967,-0.073,1.319,1.8828,169.0611
16:54:58:299,-0.815,0.759,10.151,36.084,0.2261,1.1934,1.9935,168.1679
16:54:58:318,0.063,1.02,9.426,36.069,0.3963,0.9486,1.9786,167.2493
16:54:58:334,0.972,1.073,8.9831,36.1756,0.4102,0.7582,1.804,166.3038
16:54:58:353,1.635,0.888,8.9681,36.201,0.3356,0.6698,1.5465,165.3292
16:54:58:373,2.04,0.656,9.213,36.0493,0.275,0.6922,1.2826,164.3262
16:54:58:397,2.165,0.575,9.3281,36.0601,0.3048,0.804,1.0644,163.2997
16:54:58:416,2.088,0.689,8.985,36.1174,0.4506,0.8731,0.891,162.2564
16:54:58:433,1.865,1.1801,8.147,36.2864,0.6028,0.7167,0.7473,161.2044
16:54:58:453,1.772,1.8431,7.187,36.4945,0.5921,0.3644,0.561,160.1507
16:54:58:474,1.638,2.3561,6.7301,36.6117,0.3048,-0.056,0.3185,159.0994
16:54:58:493,1.3241,2.54,7.3931,36.8012,-0.1273,-0.3849,0.0991,158.0547
16:54:58:514,0.999,2.672,8.655,37.0449,-0.4157,-0.4859,-0.0041,157.0222
16:54:58:531,0.843,3.146,9.7301,37.4165,-0.4753,-0.4913,-0.0488,156.007
16:54:58:552,0.972,3.539,9.7901,37.9754,-0.4742,-0.5221,-0.1807,155.0128
16:54:58:572,1.0871,3.7061,9.3251,38.3463,-0.6754,-0.5061,-0.4681,154.0416
16:54:58:594,0.486,3.44,9.4901,38.6451,-1.0553,-0.3072,-0.8012,153.0954
16:54:58:612,-0.9611,3.014,10.826,38.9699,-1.2033,0.044,-0.9427,152.1802
16:54:58:631,-2.474,2.832,12.081,39.2528,-0.8605,0.2399,-0.8299,151.3062
16:54:58:653,-3.375,2.88,12.318,39.6621,-0.2347,-0.04,-0.5202,150.4805
16:54:58:672,-3.0851,2.828,11.1971,40.2537,0.2782,-0.5082,-0.1733,149.6991
16:54:58:693,-1.883,2.823,10.058,40.6228,0.4304,-0.7307,-0.0073,148.9485
16:54:58:712,-0.755,2.7341,9.627,41.0278,0.3017,-0.6956,-0.1063,148.213
16:54:58:733,-0.5179,2.559,9.512,41.418,0.143,-0.3092,-0.3255,147.4787
16:54:58:754,-1.1891,2.535,9.074,41.773,0.1749,0.2824,-0.4575,146.7399
16:54:58:785,-2.082,2.828,7.908,42.2815,0.3399,0.6942,-0.4404,146.0028
16:54:58:791,-2.6321,3.302,6.596,42.7658,0.4687,0.7517,-0.3425,144.5719
16:54:58:813,-2.934,3.639,5.5541,43.4196,0.4762,0.5602,-0.2414,143.8956
16:54:58:832,-3.2291,3.9701,5.0681,44.0864,0.3219,0.2696,-0.1562,143.2553
16:54:58:851,-3.456,4.2161,5.3051,44.6929,0.0707,0.0334,-0.0253,142.6558
16:54:58:871,-3.3701,4.355,6.39,45.5894,-0.1561,-0.0953,0.1429,142.0907
16:54:58:893,-3.2741,4.539,7.716,46.277,-0.2731,-0.073,0.3194,141.537
16:54:58:913,-3.224,4.788,9.335,46.8539,-0.254,0.0909,0.5313,140.9717
16:54:58:931,-2.781,4.8821,10.845,47.5406,-0.0517,0.2729,0.726,140.3799
16:54:58:951,-2.1701,4.977,11.7551,47.9081,0.1856,0.3197,0.8005,139.7509
16:54:58:971,-2.0861,5.229,12.3251,47.764,0.2633,0.1356,0.7525,139.0808
16:54:58:992,-2.2211,5.487,12.543,47.6102,0.2357,0.1717,0.7195,138.3748
16:54:59:010,-2.228,5.645,12.2801,47.1264,0.1207,0.6464,0.6834,137.6393
16:54:59:031,-2,5.2031,12.1571,46.7743,-0.1103,1.1689,0.5397,136.8784
16:54:59:051,-2.4551,4.494,12.464,46.7516,-0.2922,1.4062,0.3174,136.0926
16:54:59:078,-3.377,3.6821,12.797,46.9127,-0.2549,1.3658,0.1918,135.2868
16:54:59:091,-4.3181,3.132,12.605,47.1313,0.0186,1.1892,0.2141,134.4686
16:54:59:113,-4.8521,2.748,11.645,47.173,0.374,1.0009,0.3939,133.6435
16:54:59:133,-4.806,2.669,10.3571,47.2657,0.606,0.8092,0.6153,132.8141
16:54:59:179,-4.086,2.5451,9.347,47.1277,0.6421,0.6751,0.7739,131.9941
16:54:59:181,-3.185,2.373,8.9681,46.9376,0.6187,0.6826,0.8495,131.173
16:54:59:192,-2.3741,2.126,8.758,46.8874,0.6996,0.7762,0.8973,130.3384
16:54:59:212,-1.6631,1.8,8.1709,46.7373,0.8795,0.8294,0.925,129.4816
16:54:59:231,-1.1051,1.4321,7.1441,46.5971,1.0402,0.7804,0.9122,128.5991
16:54:59:253,-0.894,1.3001,6.0281,46.3832,1.0732,0.6464,0.8792,127.6921
16:54:59:273,-0.7391,1.329,5.265,45.9992,0.9401,0.5144,0.8612,126.7657
16:54:59:293,-0.638,1.772,5.049,45.4226,0.7241,0.4198,0.8675,125.824
16:54:59:311,-0.075,2.076,5.3171,44.9237,0.4953,0.2804,0.8302,124.8698
16:54:59:333,0.776,2.047,5.633,44.4611,0.2366,0.0632,0.66,123.8996
16:54:59:356,1.31,1.9751,6.059,43.9564,-0.0836,-0.0901,0.3684,122.9092
16:54:59:373,1.092,1.944,6.699,43.7865,-0.3284,-0.0124,0.0811,121.9043
16:54:59:391,0.0671,2.444,7.1561,43.78,-0.406,0.2144,-0.0583,120.9002
16:54:59:413,-0.6881,2.9591,7.2731,43.4978,-0.4273,0.2474,-0.0648,119.9158
16:54:59:431,-0.887,3.3281,7.616,43.4326,-0.5402,-0.0719,-0.0733,118.9631
16:54:59:453,-0.935,3.419,8.585,43.4179,-0.7349,-0.6189,-0.1009,118.0446
16:54:59:473,-0.566,2.945,9.596,43.1234,-0.9159,-1.0053,-0.1402,117.1595
16:54:59:493,-0.731,2.435,10.34,43.0294,-1.0638,-1.018,-0.2179,116.3042
16:54:59:512,-1.4591,2.121,10.7471,42.8663,-1.1063,-0.8553,-0.2179,115.4827
16:54:59:533,-2.0771,1.8101,10.4051,42.3523,-1.1213,-0.8436,-0.1456,114.7027
16:54:59:552,-2.618,1.695,10.2041,41.984,-1.1862,-0.9042,-0.0051,113.9674
16:54:59:571,-2.582,1.791,10.479,41.4891,-1.1788,-0.9339,0.1779,113.2755
16:54:59:591,-1.871,1.9631,10.484,40.968,-1.2022,-1.0138,0.2652,112.6198
16:54:59:611,-0.8561,2.018,10.709,40.5245,-1.4076,-1.0277,0.2226,111.993
16:54:59:631,0.321,2.0021,11.846,39.9076,-1.6768,-0.9201,0.0949,111.3925
16:54:59:649,1.451,1.9181,13.6631,39.3154,-1.7523,-0.7286,-0.1712,110.8206
16:54:59:671,1.875,1.9751,15.11,34.4196,-1.4267,-0.4965,-0.4797,110.2849
16:54:59:690,1.805,1.872,15.0041,34.5188,-0.6775,-0.2028,-0.6874,109.7958
16:54:59:716,1.353,2.198,12.9311,34.505,0.2229,-0.0454,-0.7703,109.3567
16:54:59:740,1.26,2.519,9.708,34.4105,0.8965,-0.1155,-0.815,108.9618
16:54:59:752,1.272,2.751,6.5861,34.3366,1.1722,-0.1783,-0.9501,108.6015
16:54:59:771,0.683,3.29,4.4741,33.9725,1.088,-0.1198,-1.1524,108.2248
16:54:59:795,-0.353,3.876,3.431,33.2847,0.8092,0.0121,-1.3046,107.8009
16:54:59:817,-1.323,4.4171,3.155,32.5356,0.4804,0.1632,-1.4046,107.3608
16:54:59:831,-2.295,5.018,3.3491,31.6377,0.092,0.1845,-1.4961,106.9385
16:54:59:853,-2.958,4.9991,4.233,30.8276,-0.4327,0.0164,-1.577,106.5627
16:54:59:872,-3.4181,4.379,6.342,30.3661,-0.9776,-0.2295,-1.6334,106.2439
16:54:59:890,-3.978,3.405,9.3611,30.106,-1.2947,-0.371,-1.612,105.9649
16:54:59:911,-4.809,2.8061,12.1601,30.5469,-1.1925,-0.2529,-1.4153,105.7007
16:54:59:932,-5.826,2.691,14.037,30.1823,-0.7967,0.1686,-1.0002,105.4386
16:54:59:953,-5.867,2.598,14.7671,29.6605,-0.3943,0.522,-0.4606,105.1727
16:54:59:974,-5.127,2.691,14.849,29.2451,-0.1422,0.6102,-0.0668,104.8919
16:54:59:992,-4.3061,2.775,14.729,28.7667,-0.0198,0.5209,0.1279,104.5858
16:55:00:012,-3.422,2.27,14.561,28.5373,0.0462,0.374,0.18,104.2572
16:55:00:036,-3.008,1.587,14.487,28.3935,0.1484,0.2921,0.1768,103.9127
16:55:00:051,-3.039,0.998,14.102,28.0119,0.4421,0.2761,0.2812,103.5571
16:55:00:073,-3.092,0.821,12.4781,27.7242,0.8805,0.3282,0.5248,103.1974
16:55:00:092,-2.838,1.125,9.9521,27.4745,1.2104,0.408,0.8388,102.8383
16:55:00:113,-2.235,1.6901,7.506,27.3011,1.2796,0.4229,1.0017,102.4792
16:55:00:134,-1.799,2.2841,5.6861,27.0482,1.0465,0.2932,0.9399,102.1189
16:55:00:154,-1.6481,2.6171,4.8071,26.8813,0.5719,0.0547,0.7121,101.7637
16:55:00:173,-1.847,2.543,5.097,26.7221,0.0015,-0.1624,0.4738,101.4256
16:55:00:191,-2.118,2.241,6.395,26.6486,-0.4529,-0.2614,0.3706,101.108
16:55:00:211,-2.189,1.887,7.9511,26.7674,-0.6519,-0.272,0.4014,100.802
16:55:00:233,-1.83,1.446,9.371,27.1318,-0.5625,-0.2262,0.51,100.4967
16:55:00:253,-1.215,1.116,10.233,27.5235,-0.2145,-0.206,0.5886,100.1834
16:55:00:274,-0.695,1.116,10.1771,27.6104,0.2485,-0.155,0.5877,99.8589
16:55:00:305,-0.686,1.4651,7.8431,27.594,0.8316,-0.1687,0.4812,99.1897
16:55:00:321,-0.53,1.817,6.651,27.3552,0.8539,-0.1772,0.4121,98.8556
16:55:00:342,-0.449,2.2481,5.703,27.2092,0.7156,-0.1294,0.2769,98.5242
16:55:00:363,-0.5231,2.6501,5.1881,27.2376,0.4293,-0.0613,0.0928,98.1992
16:55:00:378,-0.7121,3,5.2961,27.3994,0.0366,0.0078,-0.1402,97.8874
16:55:00:397,-1.584,3.27,6.2411,27.4939,-0.3539,0.0249,-0.3627,97.5969
16:55:00:418,-2.5391,3.1991,7.692,27.6715,-0.6561,-0.1592,-0.4213,97.3374
16:55:00:439,-2.3981,2.693,9.428,27.5593,-1.085,-0.7679,-0.402,97.1118
16:55:00:460,-1.328,1.755,12.134,27.4284,-1.6077,-1.233,-0.4606,96.9069
16:55:00:478,-0.789,0.843,14.76,27.423,-1.6811,-0.7785,-0.5745,96.7066
16:55:00:497,-1.509,0.7061,15.701,27.4743,-1.3214,0.0206,-0.6288,96.5111
16:55:00:516,-2.613,0.962,14.904,27.7766,-1.0106,0.2952,-0.5554,96.3268
16:55:00:539,-3.4031,1.298,14.475,28.1578,-0.8212,0.1792,-0.3169,96.1538
16:55:00:560,-3.683,1.295,14.58,28.341,-0.4029,0.0792,0.0502,95.9859
16:55:00:576,-3.209,1.317,13.9241,28.2992,0.2463,-0.0656,0.5142,95.8119
16:55:00:599,-1.967,1.5851,12.4691,28.0641,0.7837,-0.2879,0.9027,95.62
16:55:00:617,-0.0491,1.743,11.19,27.7356,1.0795,-0.4742,1.0974,95.4012
16:55:00:636,1.944,1.808,10.0031,27.5212,1.2424,-0.4796,0.958,95.1502
16:55:00:659,2.864,1.937,8.442,27.6216,1.3211,-0.2912,0.494,94.8688
16:55:00:675,2.3921,2.09,6.557,27.9728,1.2838,0.028,-0.0318,94.5694
16:55:00:695,1.2071,2.174,4.841,28.27,1.1338,0.4261,-0.4202,94.2652
16:55:00:714,-0.027,2.2601,3.716,28.4849,0.9423,0.7635,-0.6309,93.9673
16:55:00:734,-1.0451,2.478,3,28.4454,0.7326,0.8507,-0.7171,93.6926
16:55:00:759,-1.955,2.82,2.7461,28.109,0.4452,0.6794,-0.7565,93.4704
16:55:00:774,-2.6081,3.057,2.913,27.8628,0.0516,0.3516,-0.7256,93.3318
16:55:00:805,-2.972,3.179,3.711,27.6536,-0.4529,-0.0368,-0.6436,93.3318
16:55:00:814,-3.056,2.9381,5.468,27.3297,-0.9871,-0.3092,-0.4872,93.3318
16:55:00:834,-2.8961,2.406,8.1281,27.1985,-1.3511,-0.3189,-0.2403,93.3318
16:55:00:854,-2.6831,2.2961,11.135,27.2,-1.3277,-0.1528,0.0481,93.3318
16:55:00:873,-2.4,2.715,13.304,27.368,-0.9031,0.193,0.312,93.3318
16:55:00:893,-1.821,3.179,13.9961,27.7499,-0.4284,0.3271,0.4716,93.3318
16:55:00:913,-1.3391,3.627,13.9151,28.0096,-0.205,0.1217,0.462,93.3318
16:55:00:935,-1.167,3.9071,13.707,28.145,-0.188,-0.0113,0.3748,93.2222
16:55:00:953,-1.076,3.7541,13.7861,28.146,-0.2784,0.1068,0.2641,93.0835
16:55:00:973,-1.32,3.062,14.2091,27.8696,-0.289,0.2835,0.1854,92.9198
16:55:00:992,-1.794,2.255,14.25,27.8675,0.0121,0.4315,0.2141,92.7342
16:55:01:013,-2.319,1.853,12.878,27.8125,0.6198,0.4847,0.3609,92.53
16:55:01:034,-2.711,2.306,9.998,27.8553,1.1615,0.4122,0.5419,92.3085
16:55:01:059,-2.537,2.895,7.115,27.8829,1.2477,0.1526,0.6005,92.0714
16:55:01:073,-2.1731,3.191,5.334,27.6847,0.822,-0.2614,0.4375,91.825
16:55:01:092,-2.168,3.2231,5.0561,27.4253,0.1313,-0.455,0.1768,91.5801
16:55:01:112,-2.438,2.7371,6.158,27.3505,-0.4998,-0.3422,-0.0531,91.3438
16:55:01:134,-3.023,2.0951,7.884,27.4306,-0.8957,-0.2017,-0.1658,91.1099
16:55:01:153,-3.573,1.439,9.7871,27.5295,-0.9435,-0.0571,-0.0477,90.8721
16:55:01:193,-3.669,1.1081,11.0561,27.6361,-0.5253,0.1228,0.2705,90.6249
16:55:01:195,-3.3431,1.307,10.764,27.6565,0.1771,0.2164,0.6409,90.3609
16:55:01:211,-2.7311,1.662,9.081,27.6703,0.7678,0.1409,0.9005,90.0761
16:55:01:231,-1.979,2.004,7.316,27.625,1.0328,-0.0528,1.0017,89.7687
16:55:01:255,-1.1741,2.339,6.189,27.5315,0.9679,-0.2614,0.9431,89.4383
16:55:01:273,-0.6641,2.681,5.846,27.6026,0.6677,-0.3784,0.7408,89.087
16:55:01:292,-0.375,2.55,6.306,27.7046,0.2739,-0.3689,0.5163,88.7188
16:55:01:316,-0.2411,2.2721,7.419,28.0029,-0.091,-0.3114,0.3365,88.3359
16:55:01:331,-0.2171,2.181,8.8511,28.2537,-0.2922,-0.1869,0.1822,87.9391
16:55:01:353,-0.353,2.262,10.283,28.3467,-0.3359,-0.1687,0.047,87.5327
16:55:01:370,-0.152,2.351,11.2691,28.4129,-0.355,-0.2742,-0.0818,87.1234
16:55:01:390,0.23,2.33,12.191,28.4428,-0.4051,-0.3114,-0.2382,86.7158
16:55:01:411,0.45,2.2241,12.89,28.6485,-0.3613,-0.1347,-0.4063,86.3143
16:55:01:431,0.242,2.346,12.711,28.8063,-0.1592,0.1686,-0.5287,85.9243
16:55:01:451,-0.176,2.6981,11.355,28.8214,0.0314,0.3345,-0.6458,85.5523
16:55:01:471,-0.53,2.765,9.902,28.9256,-0.0549,0.2314,-0.8022,85.2035
16:55:01:491,-1.064,2.37,9.701,28.9908,-0.3613,0.1398,-0.9364,84.8823
16:55:01:511,-1.7801,1.587,10.86,28.9679,-0.5061,0.1558,-0.9279,84.592
16:55:01:531,-2.379,1.001,11.916,28.9186,-0.3997,0.0377,-0.7267,84.3305
16:55:01:552,-2.223,0.587,12.4691,28.5509,-0.1848,-0.1763,-0.367,84.0909
16:55:01:571,-1.158,0.4691,12.696,28.2368,0.1068,-0.2634,0.0055,83.8626
16:55:01:591,0.1301,0.666,12.0431,28.0537,0.507,-0.1763,0.1896,83.6339
16:55:01:610,0.6851,1.1561,10.256,27.9522,0.9369,-0.0261,0.1588,83.4006
16:55:01:631,0.515,1.7531,7.862,28.1422,1.2508,0.0877,0.0587,83.167
16:55:01:653,0.182,2.337,5.5301,28.2482,1.3828,0.1378,-0.069,82.9374
16:55:01:676,-0.171,2.952,3.6341,28.2092,1.2551,0.1282,-0.2435,82.7172
16:55:01:694,-0.662,3.558,2.442,28.0615,0.8603,0.0824,-0.4638,82.5214
16:55:01:717,-1.251,4.1081,2.262,27.9078,0.2687,0.0186,-0.6755,82.3805
16:55:01:733,-1.974,4.3241,3.249,27.6652,-0.3636,-0.0485,-0.8277,82.3805
16:55:01:752,-2.474,4.128,4.9031,27.6621,-0.869,-0.0432,-0.8672,82.3805
16:55:01:772,-2.877,3.852,7.115,27.6435,-1.1649,-0.0176,-0.8086,82.3805
16:55:01:794,-3.329,3.572,9.395,27.5241,-1.1553,0.028,-0.649,82.4951
16:55:01:819,-3.777,3.654,11.0711,27.6005,-0.8701,0.0962,-0.3744,82.6188
16:55:01:833,-3.8321,3.941,12.122,27.5799,-0.4859,0.0505,-0.0583,82.7427
16:55:01:850,-3.245,4.02,12.4691,27.5311,-0.2432,-0.1635,0.1449,82.8592
16:55:01:871,-2.661,4.187,12.6821,27.5919,-0.2603,-0.205,0.2152,82.9604
16:55:01:893,-2.412,4.245,13.5491,27.6029,-0.3656,-0.0155,0.2343,82.9604
16:55:01:914,-1.955,3.563,14.4611,27.4417,-0.3593,0.1026,0.2258,82.9604
16:55:01:933,-1.7231,2.511,14.5331,27.4397,-0.1358,0.2611,0.1822,82.9604
16:55:01:953,-2.201,1.8581,13.671,27.4378,0.3356,0.4932,0.2067,82.9604
16:55:01:973,-2.877,1.7291,11.525,27.5452,0.888,0.5676,0.3205,82.9604
16:55:01:992,-3.2141,1.97,8.841,27.4603,1.17,0.4495,0.4748,82.9604
16:55:02:013,-3.066,2.15,6.713,27.4861,1.0849,0.2995,0.5578,82.9604
16:55:02:033,-2.853,2.471,5.561,27.3267,0.7018,0.1217,0.5163,82.9604
16:55:02:051,-2.8571,2.562,5.4491,27.2518,0.1803,-0.0102,0.3833,82.9604
16:55:02:072,-3.035,2.03,6.311,27.3523,-0.3359,-0.0986,0.2769,82.9604
16:55:02:094,-3.1931,1.511,7.599,27.4769,-0.6732,-0.0485,0.2833,82.9604
16:55:02:113,-3.252,1.125,8.997,27.7361,-0.7616,0.0473,0.4184,82.9604
16:55:02:131,-2.934,0.9101,10.019,27.6668,-0.5434,0.1367,0.6292,82.9604
16:55:02:150,-2.324,0.9221,10.0841,27.6532,-0.1613,0.1654,0.8367,82.9604
16:55:02:172,-1.5431,1.118,9.392,27.6941,0.1825,0.1504,0.9494,82.9604
16:55:02:190,-0.9251,1.3931,8.499,27.6516,0.4038,0.0707,0.9602,82.9604
16:55:02:213,-0.516,1.7621,7.62,27.7614,0.506,0.0069,0.9133,82.9604
16:55:02:233,-0.114,2.0951,6.9071,27.951,0.4825,-0.0144,0.8495,82.9604
16:55:02:252,0.197,2.495,6.4931,27.8133,0.3495,-0.0133,0.7441,82.9604
16:55:02:272,0.422,2.8871,6.371,27.9313,0.1547,0.0195,0.6142,82.9604
16:55:02:290,0.4811,3.366,6.7271,28.1054,-0.0421,0.0399,0.4301,82.8701
16:55:02:313,0.161,3.764,7.4741,28.1272,-0.2401,-0.1145,0.2141,82.756
16:55:02:333,-0.039,3.5741,8.8181,28.2631,-0.4922,-0.487,0.0406,82.6247
16:55:02:352,0.41,3.012,10.611,28.2537,-0.7871,-0.8775,-0.0924,82.4804
16:55:02:380,0.996,2.6021,12.545,28.6699,-0.9393,-0.7935,-0.2765,82.3236
16:55:02:393,1.1111,2.514,13.4171,28.9813,-0.7987,-0.2188,-0.5554,82.1595
16:55:02:414,0.359,2.531,12.5,29.2708,-0.7776,0.0803,-0.9321,82.0006
16:55:02:432,-0.9851,1.9301,12.09,29.66,-1.1234,0.0846,-1.2119,81.8635
16:55:02:453,-2.831,1.676,13.5341,29.7064,-1.2149,0.2941,-1.145,81.7615
16:55:02:473,-3.827,1.362,15.021,29.6519,-0.7563,0.2952,-0.7532,81.7615
16:55:02:495,-3.5591,0.888,14.825,29.6451,-0.0539,-0.0741,-0.235,81.7615
16:55:02:513,-2.163,0.869,13.656,29.5925,0.5092,-0.3209,0.2513,81.7615
16:55:02:533,-0.3791,1.1921,12.416,29.5309,0.9178,-0.388,0.4918,81.7615
16:55:02:552,1.379,1.197,10.616,29.3917,1.187,-0.4157,0.3897,81.7615
16:55:02:573,2.0089,1.436,8.499,29.3585,1.2275,-0.3124,0.0172,81.6624
16:55:02:594,1.418,1.683,6.6011,29.4849,1.137,-0.0219,-0.3829,81.5539
16:55:02:612,0.228,1.9661,5.016,29.7752,1.0508,0.3655,-0.6394,81.4483
16:55:02:630,-0.923,2.2271,3.828,30.1038,0.9338,0.5879,-0.7298,81.4483
16:55:02:653,-1.7681,2.624,3.17,30.0886,0.7326,0.5186,-0.7096,81.4483
16:55:02:675,-2.525,3.2801,2.978,29.8877,0.4762,0.2505,-0.632,81.4483
16:55:02:694,-2.798,3.639,3.1481,29.5937,0.1867,-0.0337,-0.5361,81.543
16:55:02:713,-2.886,3.797,3.756,29.3434,-0.1783,-0.2486,-0.4745,81.7232
16:55:02:731,-2.948,3.771,5.0111,29.3718,-0.5849,-0.2699,-0.4287,81.9684
16:55:02:753,-3.224,3.5531,7.113,29.2816,-0.8733,-0.0591,-0.3883,82.2475
16:55:02:773,-3.8801,3.5771,9.167,29.3482,-0.8968,0.2505,-0.2659,82.5198
16:55:02:793,-4.208,3.8021,10.673,29.5618,-0.8562,0.3761,-0.0338,82.7753
16:55:02:813,-3.786,3.953,11.9801,29.6817,-0.886,0.2505,0.1088,83.012
16:55:02:836,-3.786,4.053,13.1531,29.9874,-0.9296,0.2186,0.1566,83.2238
16:55:02:850,-3.885,3.965,14.363,30.0871,-0.9489,0.2505,0.2929,83.4113
16:55:02:871,-3.485,3.146,15.4181,29.9804,-0.8829,0.2346,0.4577,83.5755
16:55:02:893,-3.195,2.15,15.813,30.0326,-0.6009,0.4304,0.6387,83.7115
16:55:02:912,-3.252,1.518,15.332,29.9911,0.0143,0.7326,0.8899,83.817
16:55:02:933,-3.542,1.721,13.3931,29.8989,0.8284,0.6933,1.1697,83.817
16:55:02:952,-3.3101,2.241,10.347,29.9579,1.3541,0.2399,1.3859,83.817
16:55:02:972,-2.441,2.634,7.6901,30.077,1.2849,-0.287,1.3762,83.817
16:55:02:991,-1.454,2.777,6.395,30.2014,0.6985,-0.5614,1.1432,83.817
16:55:03:012,-0.7961,2.4491,6.909,30.5588,0.0399,-0.2933,0.8271,83.817
16:55:03:039,-1.0331,2.133,8.3479,30.9946,-0.2549,0.1345,0.543,83.817
16:55:03:053,-1.677,1.997,9.1241,31.3424,-0.2135,0.2846,0.3928,83.817
16:55:03:073,-2.051,1.7741,9.363,31.7904,-0.0539,0.1133,0.4004,83.7099
16:55:03:094,-1.8611,1.566,9.2681,32.1883,0.109,-0.1401,0.4898,83.5913
16:55:03:112,-1.256,1.427,9.023,32.3891,0.2016,-0.1613,0.5684,83.4632
16:55:03:132,-0.6881,1.403,9.174,32.5551,0.2846,0.0047,0.609,83.3238
16:55:03:154,-0.3341,1.484,9.294,32.5993,0.4879,0.1345,0.6324,83.1714
16:55:03:172,-0.044,1.709,8.7431,32.7078,0.7635,0.1345,0.6441,83.0064
16:55:03:202,0.2321,2.121,7.805,32.6799,0.9679,0.0408,0.6259,82.8285
16:55:03:211,0.666,2.523,6.723,32.8487,1.0391,-0.0463,0.5451,82.6391
16:55:03:232,0.9941,2.892,5.777,33.018,0.9519,-0.1188,0.3589,82.4398
16:55:03:252,1.056,3.3731,5.054,33.1531,0.7263,-0.1687,0.0874,82.2339
16:55:03:273,0.558,4.061,4.8071,33.358,0.3336,-0.287,-0.2254,82.0281
16:55:03:291,-0.183,4.4681,5.624,33.5743,-0.2603,-0.5402,-0.4712,81.8348
16:55:03:313,-0.4901,4.1471,7.587,33.8333,-0.8212,-0.7232,-0.5989,81.6674
16:55:03:339,-0.059,3.2321,12.098,34.0066,-1.1797,-0.5508,-0.7341,81.4092
16:55:03:356,-0.059,2.94,12.675,34.1565,-1.0042,-0.2688,-0.9991,81.3169
16:55:03:377,-0.9881,2.3321,12.126,34.3437,-1.0223,-0.1251,-1.2748,81.3169
16:55:03:398,-2.3711,1.544,12.306,34.3811,-1.1447,0.0069,-1.3291,81.3169
16:55:03:415,-3.987,1.326,13.209,34.2241,-0.9063,0.2898,-1.0417,81.3169
16:55:03:435,-4.8401,1.362,13.6631,33.8918,-0.2879,0.1973,-0.5033,81.3169
16:55:03:454,-4.292,1.3601,12.842,33.4559,0.2889,-0.371,0.0789,81.4249
16:55:03:475,-2.4701,1.35,11.8391,33.2709,0.5549,-0.7232,0.4993,81.5386
16:55:03:494,-0.4391,1.4051,11.348,33.3375,0.6773,-0.6871,0.6441,81.6398
16:55:03:516,1.0511,1.566,10.5941,33.6296,0.8029,-0.4806,0.512,81.6398
16:55:03:534,1.5281,1.7621,9.15,34.0638,0.9582,-0.1837,0.228,81.6398
16:55:03:553,0.9701,2.157,7.082,34.4589,1.0945,0.1143,-0.0392,81.6398
16:55:03:574,0.036,2.696,4.877,34.6615,1.1349,0.3123,-0.2222,81.6398
16:55:03:594,-0.7721,3.2561,3.0161,34.6772,0.9773,0.3388,-0.3553,81.6398
16:55:03:614,-1.5191,3.864,1.8221,34.6634,0.6241,0.1771,-0.4692,81.7331
16:55:03:633,-2.2451,4.5821,1.4051,34.6468,0.1176,-0.1411,-0.5554,81.9042
16:55:03:654,-2.903,5.0711,1.85,34.5688,-0.4987,-0.5253,-0.5691,82.1812
16:55:03:674,-3.068,4.887,3.498,34.526,-1.1373,-0.8191,-0.4777,82.5593
16:55:03:697,-2.9561,4.386,6.392,34.4389,-1.6373,-0.9265,-0.3563,82.9885
16:55:03:713,-2.759,3.78,10.424,34.4046,-1.8396,-0.9307,-0.2276,83.398
16:55:03:734,-2.829,3.3971,14.37,34.5545,-1.5022,-0.6456,-0.1072,83.7491
16:55:03:752,-3.291,3.05,16.4021,34.8084,-0.7776,-0.1922,0.0896,84.0447
16:55:03:773,-3.669,3.065,16.364,35.0749,-0.091,0.1495,0.4088,84.303
16:55:03:793,-3.293,3.39,15.165,35.316,0.3367,0.341,0.7026,84.5344
16:55:03:814,-2.58,3.63,13.572,35.5012,0.4474,0.5262,0.8091,84.7421
16:55:03:845,-2.015,3.282,12.383,35.5485,0.3058,0.7315,0.7483,84.9241
16:55:03:853,-2.307,2.763,11.8871,35.4253,0.2133,0.9519,0.6706,85.0793
16:55:03:872,-3.042,2.1521,11.1611,35.2513,0.4059,1.0977,0.7154,85.2106
16:55:03:892,-3.8201,1.9631,9.442,35.2428,0.656,1.0625,0.9005,85.3246
16:55:03:913,-4.088,1.934,7.4861,34.9691,0.6773,0.9147,1.1474,85.4278
16:55:03:932,-3.9011,1.82,6.0641,34.9884,0.3675,0.6134,1.2889,85.524
16:55:03:953,-3.9521,1.757,5.5931,34.9183,-0.2219,0.2654,1.323,85.524
16:55:03:975,-4.22,1.35,6.399,34.8183,-0.8467,0.1675,1.3922,85.524
16:55:03:992,-4.225,0.642,8.238,34.9706,-1.2596,0.1994,1.5412,85.524
16:55:04:015,-4.107,0.026,10.304,35.0596,-1.299,0.2058,1.7636,85.524
16:55:04:032,-3.81,-0.2621,11.873,35.2039,-0.9361,0.158,2.0786,85.524
16:55:04:052,-2.9771,-0.2771,12.2651,35.5788,-0.2996,0.0835,2.4288,85.4223
16:55:04:071,-1.617,-0.023,11.31,35.1806,0.3271,0.0781,2.6841,85.2639
16:55:04:092,-0.1301,0.39,9.9641,35.736,0.738,0.0718,2.7299,85.0507
16:55:04:111,1.13,0.9071,8.751,36.3667,0.9252,0.0164,2.5607,84.7849
16:55:04:130,2.0741,1.425,7.848,36.8061,0.9147,-0.0474,2.2351,84.4777
16:55:04:150,2.7371,1.8101,7.458,37.4365,0.7656,-0.1028,1.8158,84.1405
16:55:04:174,3.098,2.033,7.364,37.7638,0.5602,-0.1006,1.372,83.7755
16:55:04:195,3.156,2.2031,7.3811,37.9201,0.3803,0.0738,0.9505,83.3852
16:55:04:211,2.7581,2.586,7.187,38.3099,0.2526,0.3612,0.5897,82.9751
16:55:04:231,2.064,3.036,6.941,38.5622,0.0175,0.473,0.2864,82.5527
16:55:04:250,1.446,3.179,7.6061,38.997,-0.3732,0.2824,0.0396,82.1261
16:55:04:271,1.1591,3.021,9.117,39.2477,-0.7232,0.0377,-0.151,81.7054
16:55:04:290,1.0031,2.72,10.817,39.3656,-0.886,-0.0666,-0.2947,81.3003
16:55:04:311,0.575,2.459,11.727,39.3659,-0.8371,0.0356,-0.3818,80.9171
16:55:04:331,-0.0371,2.382,11.81,39.463,-0.7573,0.2058,-0.402,80.5594
16:55:04:362,-0.525,2.315,11.415,39.8703,-0.7648,0.3293,-0.4213,80.2289
16:55:04:372,-1.241,2.234,11.4221,40.3462,-0.8126,0.4773,-0.4245,79.9258
16:55:04:392,-1.9721,2.148,12.0041,40.817,-0.7211,0.441,-0.3436,79.6503
16:55:04:411,-2.319,1.992,12.545,41.1678,-0.4933,0.0866,-0.1999,79.3999
16:55:04:433,-2.039,1.707,12.684,41.4577,-0.238,-0.3061,-0.0168,79.1682
16:55:04:453,-1.0691,1.4891,12.608,41.6596,-0.0272,-0.4295,0.1555,78.9466
16:55:04:471,0.173,1.487,12.44,41.9473,0.1686,-0.3487,0.2183,78.7264
16:55:04:492,1.1951,1.4651,11.8151,42.3293,0.4537,-0.122,0.1194,78.5026
16:55:04:512,1.329,1.6211,10.2011,42.8253,0.8125,0.1973,-0.0594,78.2774
16:55:04:531,0.912,1.9661,7.925,43.3315,1.0902,0.407,-0.2137,78.0561
16:55:04:553,0.515,2.339,5.691,43.797,1.1859,0.4921,-0.3553,77.8437
16:55:04:573,0.1871,2.715,3.984,44.0317,1.0541,0.4506,-0.5244,77.6452
16:55:04:593,-0.123,3.1121,3.026,44.0016,0.7028,0.2633,-0.7043,77.4709
16:55:04:611,-0.4781,3.4211,2.8181,44.0554,0.1834,0.0377,-0.8841,77.3363
16:55:04:633,-0.992,3.333,3.5531,44.2452,-0.3923,-0.0804,-0.9991,77.3363
16:55:04:653,-1.62,3.093,5.061,44.6309,-0.8733,-0.089,-0.9651,77.3363
16:55:04:672,-1.859,2.622,7.218,44.9622,-1.1819,-0.1028,-0.7831,77.3363
16:55:04:693,-1.964,2.411,9.751,45.1865,-1.1351,-0.0634,-0.5404,77.3363
16:55:04:711,-2.108,2.5451,11.8061,45.4653,-0.7349,-0.0539,-0.2702,77.3363
16:55:04:731,-1.749,2.909,12.6581,45.7871,-0.2241,-0.0932,-0.0381,77.3363
16:55:04:752,-1.263,3.3761,12.464,46.2471,0.0473,-0.1603,0.0598,77.3363
16:55:04:771,-0.839,3.785,12.428,46.7067,-0.0294,-0.2017,0.0481,77.3363
16:55:04:792,-0.755,4.331,13.254,47.2539,-0.2071,-0.0506,0.0246,77.3363
16:55:04:813,-0.6,4.705,14.4221,47.6937,-0.2188,0.076,0.0311,77.3363
16:55:04:831,0.113,4.101,14.844,48.055,-0.0624,-0.0463,-0.0424,77.3363
16:55:04:859,0.915,2.94,14.4701,48.4736,0.2813,0.01,-0.235,77.3363
16:55:04:877,0.618,2.157,13.106,48.7405,0.8902,0.2898,-0.4703,77.3363
16:55:04:893,-0.638,2.183,10.206,48.8396,1.4796,0.5431,-0.6234,77.3363
16:55:04:912,-1.8371,2.339,6.972,48.9236,1.6298,0.5879,-0.649,77.3363
16:55:04:933,-2.723,2.495,4.757,48.7902,1.2744,0.4452,-0.6299,77.4292
16:55:04:951,-3.47,2.5931,3.8501,48.5472,0.557,0.1717,-0.6064,77.5632
16:55:04:971,-3.954,2.267,4.319,48.3624,-0.2347,-0.0634,-0.5904,77.7577
16:55:04:993,-4.713,1.7021,5.8181,48.2745,-0.868,-0.1772,-0.5415,78.0035
16:55:05:018,-5.754,1.2071,7.8221,48.2225,-1.2607,-0.205,-0.3223,78.2738
16:55:05:032,-6.573,0.761,9.948,46.7333,-1.3128,-0.1539,0.1748,78.5453
16:55:05:053,-6.2381,0.4931,11.585,46.7558,-0.9829,-0.0741,0.8697,78.797
16:55:05:073,-4.799,0.57,12.2561,46.7584,-0.3582,-0.056,1.4975,79.0096
16:55:05:093,-2.841,0.78,11.547,46.7087,0.3262,-0.1518,1.8466,79.1666
16:55:05:112,-1.1741,1.2041,9.9401,46.6859,0.8327,-0.2188,1.8956,79.2626
16:55:05:132,0.015,1.745,8.1881,46.8355,1.0423,-0.1858,1.7445,79.2626
16:55:05:153,0.843,2.138,6.84,46.9698,0.9785,-0.0804,1.4773,79.2626
16:55:05:173,1.272,2.547,6.021,47.0604,0.7593,0.0781,1.1538,79.2626
16:55:05:214,1.31,3.108,5.691,46.9545,0.473,0.1877,0.7983,79.2626
16:55:05:215,1.094,3.675,5.7791,46.7611,0.0909,0.0781,0.4355,79.1384
16:55:05:230,0.905,3.903,6.711,46.5476,-0.4518,-0.2071,0.1023,78.9866
16:55:05:252,1.094,3.1361,8.7791,46.4898,-1.0488,-0.4668,-0.1807,78.815
16:55:05:272,0.831,2.607,11.8871,46.5428,-1.3724,-0.3827,-0.3818,78.6266
16:55:05:292,0.237,2.499,14.3891,46.4199,-1.1085,0.044,-0.4106,78.4321
16:55:05:313,0.017,2.478,14.274,46.2621,-0.5072,0.4102,-0.3468,78.2384
16:55:05:333,-0.1211,2.823,12.0041,46.1739,-0.2219,0.4165,-0.3829,78.0441
16:55:05:363,-1.502,2.136,10.379,46.1046,-0.6817,0.2963,-0.5532,77.8498
16:55:05:380,-2.513,1.7261,11.348,46.0566,-0.5275,0.225,-0.3372,77.6599
16:55:05:403,-2.8481,1.4771,11.547,46.0571,-0.1379,-0.0826,0.0502,77.4788
16:55:05:421,-2.0861,1.334,11.121,45.7677,0.176,-0.338,0.4503,77.304
16:55:05:443,-0.6071,1.3571,11.037,45.5522,0.3293,-0.4604,0.6909,77.1261
16:55:05:459,1.2281,1.305,11.217,45.3804,0.4315,-0.536,0.6674,76.9322
16:55:05:481,2.6531,1.199,10.814,45.2888,0.5442,-0.3943,0.3227,76.7111
16:55:05:498,2.5121,1.233,9.6341,45.2364,0.6688,0.1122,-0.1552,76.4596
16:55:05:522,1.2,1.434,7.884,45.1836,0.788,0.6358,-0.4862,76.1864
16:55:05:538,0.041,1.8,5.9681,45.1048,0.8412,0.9125,-0.6522,75.9063
16:55:05:559,-0.822,2.262,4.403,44.7684,0.723,0.8944,-0.7671,75.631
16:55:05:579,-1.766,2.825,3.5291,44.2875,0.4272,0.6507,-0.8682,75.3692
16:55:05:599,-2.9651,3.519,3.495,43.7003,0.0388,0.3048,-0.8619,75.1338
16:55:05:622,-4.062,3.962,4.3331,43.0969,-0.3402,0.0291,-0.6596,74.9483
16:55:05:644,-4.383,3.984,5.921,42.4808,-0.604,-0.1305,-0.3073,74.834
16:55:05:659,-4.217,3.869,7.908,41.9557,-0.6711,-0.2497,0.0481,74.834
16:55:05:680,-3.767,3.735,9.708,41.7785,-0.5402,-0.3231,0.3301,74.834
16:55:05:701,-3.3191,3.8261,11.073,41.7611,-0.3029,-0.2219,0.5078,74.834
16:55:05:720,-3.171,4.077,11.856,42.0053,-0.0676,-0.0389,0.5983,74.834
16:55:05:741,-3.2,4.199,12.114,42.1342,0.0164,0.1515,0.5972,74.834
16:55:05:759,-3.561,4.247,12.5261,42.0821,-0.0378,0.3262,0.5781,74.73
16:55:05:777,-3.564,3.656,13.019,42.031,-0.2093,0.3154,0.5675,74.5993
16:55:05:798,-3.533,2.6891,13.7141,41.9099,-0.3348,0.3846,0.5962,74.4466
16:55:05:818,-3.6761,1.812,14.09,41.8299,-0.1891,0.6219,0.7121,74.2715
16:55:05:838,-3.894,1.2551,13.407,41.7223,0.2005,0.7474,0.8931,74.0719
16:55:05:869,-4.155,1.3121,11.609,41.6939,0.5963,0.6826,1.0985,73.8481
16:55:05:878,-4.2011,1.5941,9.5141,42.7707,0.7571,0.4623,1.2837,73.6014
16:55:05:897,-3.705,1.6421,7.941,42.787,0.6082,0.1473,1.3879,73.3343
16:55:05:917,-3.171,1.635,7.154,42.8163,0.2335,-0.0346,1.3762,73.0485
16:55:05:940,-2.685,1.259,7.467,42.6425,-0.139,0.1143,1.3273,72.7421
16:55:05:955,-2.6471,0.972,8.178,42.5151,-0.2837,0.4144,1.3017,72.4069
16:55:05:977,-2.79,0.95,8.399,42.4789,-0.1965,0.6039,1.3731,72.0367
16:55:05:996,-2.52,0.989,8.1161,42.354,-0.0144,0.5538,1.4912,71.6292
16:55:06:016,-2.07,1.1801,7.544,42.0859,0.1378,0.3271,1.5944,71.1876
16:55:06:039,-1.421,1.427,6.945,41.9146,0.1962,0.1143,1.6358,70.714
16:55:06:061,-0.786,1.7021,6.615,41.7707,0.1441,0.0153,1.5774,70.2097
16:55:06:075,-0.339,1.8791,6.7151,41.7428,0.0153,-0.0539,1.4411,69.6744
16:55:06:094,0.024,1.98,7.149,41.8666,-0.1283,-0.1347,1.2507,69.1061
16:55:06:114,0.266,2.133,7.565,41.9104,-0.2582,-0.1518,1.024,68.5031
16:55:06:135,0.24,2.3651,8.0201,42.0273,-0.3858,-0.0517,0.8015,67.8645
16:55:06:154,0.144,2.636,8.511,42.1935,-0.4625,0.1398,0.6014,67.1929
16:55:06:175,-0.329,2.9831,8.978,42.471,-0.4509,0.2601,0.4004,66.4952
16:55:06:194,-1.007,3.3161,9.351,42.7057,-0.4305,0.0781,0.2747,65.7784
16:55:06:214,-1.193,3.318,9.873,42.9886,-0.4817,-0.2167,0.228,65.0511
16:55:06:235,-1.26,3.29,10.532,43.3676,-0.5562,-0.2986,0.23,64.321
16:55:06:254,-1.361,3.479,11.286,43.6974,-0.5913,-0.2241,0.2864,63.5906
16:55:06:273,-1.0691,3.603,11.655,44.0429,-0.602,-0.2135,0.3088,62.8592
16:55:06:294,-0.6431,3.342,11.868,44.3004,-0.7275,-0.3582,0.213,62.1249
16:55:06:313,-0.59,2.559,12.734,44.4751,-0.9094,-0.4242,0.0364,61.3864
16:55:06:339,-1.395,2.0351,13.9001,44.8049,-0.7913,-0.1965,-0.0125,59.9025
16:55:06:354,-2.168,1.6901,14.1491,45.1154,-0.3114,0.028,0.1503,59.1668
16:55:06:378,-2.405,1.6451,13.062,45.2959,0.258,0.0462,0.4386,58.437
16:55:06:394,-1.9211,1.925,11.358,45.3283,0.6358,-0.0719,0.7069,57.7081
16:55:06:415,-0.8801,2.2001,9.945,45.3327,0.7539,-0.2432,0.8091,56.975
16:55:06:434,0.29,2.253,8.8631,45.2571,0.705,-0.2646,0.6909,56.2335
16:55:06:452,0.747,2.2721,8.075,45.2416,0.6475,-0.0016,0.4121,55.4838
16:55:06:471,0.137,2.5091,7.283,45.2945,0.6901,0.3473,0.1279,54.7317
16:55:06:494,-0.87,2.832,6.287,45.1829,0.7826,0.5144,-0.0424,53.9875
16:55:06:514,-1.509,3.086,5.289,44.9136,0.7923,0.4443,-0.1169,53.2636
16:55:06:534,-1.988,3.27,4.709,44.6487,0.6315,0.1601,-0.1434,52.5718
16:55:06:552,-2.1731,3.4601,4.712,44.2345,0.2984,-0.0613,-0.1094,51.9219
16:55:06:575,-2.201,3.524,5.499,43.8146,-0.0773,-0.056,-0.0329,51.3158
16:55:06:591,-2.113,3.6101,6.78,43.411,-0.3943,0.0749,0.0598,50.7437
16:55:06:611,-1.974,3.515,8.525,43.2046,-0.6317,0.1877,0.1321,50.192
16:55:06:632,-2.2421,3.395,10.4381,43.1961,-0.6572,0.3794,0.2375,49.6483
16:55:06:653,-3.0611,3.632,11.813,43.2791,-0.4327,0.6134,0.477,49.107
16:55:06:672,-3.777,4.2071,12.32,43.495,-0.0591,0.7943,0.8888,48.5664
16:55:06:691,-3.468,4.853,11.789,43.3414,0.2452,0.7113,1.3017,48.0224
16:55:06:710,-2.3831,5.279,11.03,43.3541,0.2474,0.4537,1.4625,47.4667
16:55:06:732,-0.815,4.8821,11.1851,43.4131,-0.0943,0.1569,1.2741,46.8918
16:55:06:752,-0.1301,3.63,12.354,43.4749,-0.4604,0.1057,0.859,46.2907
16:55:06:771,-0.762,2.382,13.1681,43.7797,-0.4455,0.5389,0.5706,45.6639
16:55:06:791,-2.1011,1.673,12.627,44.204,-0.0209,0.9933,0.544,45.0212
16:55:06:811,-3.26,1.5851,10.74,44.2644,0.5549,1.1242,0.7739,44.373
16:55:06:832,-3.6041,2.066,8.394,44.1863,0.9764,0.9167,1.0996,43.7237
16:55:06:852,-3.09,2.6621,6.476,43.882,1.1115,0.4687,1.2559,43.0748
16:55:06:882,-2.048,3.029,5.051,43.3638,0.8242,-0.0953,1.1293,42.429
16:55:06:891,-1.184,2.9831,4.659,42.9889,0.1495,-0.3209,0.8015,41.7887
16:55:06:914,-0.822,2.406,6.026,42.6297,-0.6072,-0.1114,0.5109,41.148
16:55:06:932,-0.846,1.877,8.43,42.252,-0.9893,0.2813,0.3481,40.4916
16:55:06:951,-1.107,1.6301,10.46,42.3739,-0.7818,0.5954,0.3259,39.8131
16:55:06:970,-1.244,1.614,10.977,42.2852,-0.1646,0.6412,0.4238,39.1181
16:55:07:002,-1.086,1.872,9.8951,42.3629,0.4389,0.4304,0.5387,38.4133
16:55:07:011,-0.6521,2.2361,8.2811,42.6264,0.7582,0.1717,0.5653,37.7007
16:55:07:032,-0.327,2.753,6.893,42.7078,0.7815,0.0516,0.4674,36.9818
16:55:07:054,-0.233,3.1721,6.117,42.6203,0.5516,0.0388,0.2822,36.2566
16:55:07:074,-0.4031,3.419,6.012,42.231,0.2016,0.1122,0.0821,35.5261
16:55:07:093,-1.035,3.579,6.785,41.7995,-0.1038,0.2058,-0.0573,34.7933
16:55:07:114,-1.847,3.759,7.9391,41.5017,-0.1655,0.2261,-0.0754,34.0726
16:55:07:130,-2.3501,3.9911,8.633,41.4422,-0.0656,0.0824,-0.0062,33.3649
16:55:07:153,-2.5961,4.3601,9.011,41.6762,-0.0261,-0.1794,0.0502,32.6696
16:55:07:171,-2.735,4.547,9.4691,41.8144,-0.1166,-0.3604,0.0928,31.9853
16:55:07:194,-2.616,4.4411,10.211,41.8225,-0.3072,-0.472,0.1523,31.3107
16:55:07:237,-1.9811,4.307,11.202,41.6696,-0.5562,-0.5072,0.195,30.6416
16:55:07:238,-0.858,3.6731,12.2651,41.3718,-0.8243,-0.4922,0.1481,29.9694
16:55:07:252,-0.159,2.9261,13.611,41.3287,-0.9967,-0.3943,-0.0403,29.2873
16:55:07:273,-0.6431,2.195,14.573,41.4719,-0.8254,-0.0261,-0.1584,28.5975
16:55:07:292,-1.797,2.1191,14.655,41.6425,-0.2178,0.3442,-0.019,27.9083
16:55:07:313,-2.187,2.3081,13.173,41.9654,0.507,0.2346,0.2864,27.2255
16:55:07:333,-1.4621,2.409,10.829,42.1111,0.9519,-0.155,0.5185,26.5486
16:55:07:352,-0.293,2.504,8.7311,42.0109,1.0593,-0.2933,0.5727,25.8736
16:55:07:372,0.5201,2.82,7.278,41.69,0.9412,-0.1974,0.4397,25.1973
16:55:07:392,0.9701,3.0551,6.251,41.0523,0.6773,-0.0901,0.1651,24.5197
16:55:07:413,0.7331,3.3731,5.6861,40.5306,0.3686,0.0632,-0.1733,23.8438
16:55:07:431,-0.281,3.677,5.7,40.1562,0.1622,0.2357,-0.4458,23.1781
16:55:07:453,-1.521,3.8951,5.964,39.8787,0.11,0.275,-0.5202,22.538
16:55:07:474,-2.283,4.166,6.057,39.626,0.1133,0.1484,-0.433,21.9391
16:55:07:494,-2.496,4.412,6.177,39.4263,0.0653,-0.0304,-0.2765,21.3871
16:55:07:516,-2.0891,4.5821,6.723,39.2081,-0.0571,-0.1528,-0.1519,20.8805
16:55:07:533,-1.536,4.511,7.649,39.2183,-0.173,-0.1826,-0.0945,20.4094
16:55:07:553,-1.0091,4.245,8.6861,39.2174,-0.2178,-0.0826,-0.0807,19.9614
16:55:07:572,-0.9401,4.2041,9.66,39.0894,-0.106,0.125,-0.0648,19.5261
16:55:07:592,-1.134,4.439,10.137,39.1202,0.1462,0.2611,-0.0115,19.1006
16:55:07:611,-1.545,4.9391,9.749,38.9546,0.4016,0.275,0.0683,18.6864
16:55:07:632,-1.7681,5.3171,9.1361,38.7121,0.4421,0.1196,0.1822,18.2872
16:55:07:659,-1.3991,5.523,8.997,38.4519,0.3069,0.0249,0.2705,17.9054
16:55:07:671,-1.074,5.7131,9.251,38.1085,0.1005,0.0952,0.2652,17.5359
16:55:07:691,-0.53,5.267,9.854,37.8229,-0.1687,0.0888,0.1407,17.173
16:55:07:714,-0.36,4.235,10.7591,37.6299,-0.4583,0.0047,-0.0657,16.8118
16:55:07:731,-1.0001,3.263,11.597,37.6347,-0.4922,0.2399,-0.2105,16.4512
16:55:07:752,-2.367,2.739,11.616,37.5986,-0.1401,0.606,-0.1786,16.0965
16:55:07:772,-3.6161,2.9501,10.398,37.4812,0.3026,0.5229,0.0151,15.7557
16:55:07:793,-3.837,3.225,8.442,37.2557,0.3985,0.0111,0.2365,15.4354
16:55:07:814,-3.365,3.218,7.3241,37.1253,0.0419,-0.4348,0.3524,15.1382
16:55:07:832,-2.561,3.0071,7.671,37.0013,-0.4029,-0.2944,0.3919,14.8609
16:55:07:850,-2.0981,2.8781,8.667,36.8047,-0.6137,0.0644,0.3365,14.592
16:55:07:874,-2.024,2.772,9.153,36.6178,-0.5732,0.2559,0.2855,14.3222
16:55:07:894,-2.271,2.9711,9.162,36.2306,-0.338,0.3345,0.3109,14.0516
16:55:07:913,-2.5631,3.2561,8.628,36.0112,0.0069,0.3048,0.444,13.7817
16:55:07:936,-2.4071,3.438,7.7231,36.1119,0.2921,0.1867,0.6441,13.5154
16:55:07:956,-1.835,3.6461,6.941,36.1691,0.44,0.0727,0.7963,13.2531
16:55:07:973,-1.052,3.852,6.5021,36.268,0.4528,-0.0219,0.8133,12.9913
16:55:07:993,-0.36,3.9,6.378,36.0398,0.3228,-0.1698,0.6781,12.7254
16:55:08:014,0.161,3.711,6.809,35.7323,0.0505,-0.4114,0.4514,12.4498
16:55:08:031,0.584,3.254,7.922,35.5572,-0.2614,-0.5285,0.2067,12.1584
16:55:08:054,0.57,2.8871,9.354,35.5094,-0.3773,-0.3189,-0.0158,11.8474
16:55:08:074,-0.257,3.026,10.307,35.5955,-0.1347,0.1037,-0.135,11.52
16:55:08:091,-1.196,3.63,9.873,35.5897,0.2346,0.1919,-0.1275,11.1861
16:55:08:111,-1.368,4.087,8.834,35.6382,0.2804,-0.1974,-0.1339,10.8542
16:55:08:131,-1.2131,4.262,8.384,35.5449,0.01,-0.4657,-0.1722,10.5289
16:55:08:151,-1.026,4.2191,8.8511,35.7534,-0.3838,-0.3806,-0.2233,10.2129
16:55:08:171,-1.076,4.278,9.9911,35.9052,-0.6647,-0.1422,-0.2457,9.9065
16:55:08:189,-0.8321,3.948,10.965,35.968,-0.7828,-0.1092,-0.252,9.6099
16:55:08:209,-0.372,3.407,11.537,35.9057,-0.8106,-0.1922,-0.2947,9.3221
16:55:08:231,-0.336,2.775,12.0161,35.7094,-0.7455,-0.2028,-0.3169,9.0406
16:55:08:252,-0.7601,2.655,12.416,35.6067,-0.4125,-0.0049,-0.2276,8.7651
16:55:08:271,-1.0811,2.6501,12.074,35.6845,0.0622,-0.073,-0.0776,8.4977
16:55:08:289,-0.545,2.291,10.8191,35.8117,0.3453,-0.3721,0.0693,8.2392
16:55:08:317,0.41,2.169,9.926,35.8162,0.3527,-0.388,0.1141,7.9864
16:55:08:329,1.082,2.251,9.651,35.6876,0.2505,-0.221,0.0246,7.7346
16:55:08:351,1.494,2.16,9.33,35.2819,0.1697,-0.0645,-0.1647,7.4809
16:55:08:370,1.2191,2.267,8.712,34.8375,0.1973,0.1526,-0.3829,7.2276
16:55:08:400,-0.626,2.88,6.284,34.5695,0.5527,0.5262,-0.6106,6.7533
16:55:08:418,-1.2461,3.285,4.7981,34.1934,0.6464,0.4889,-0.6362,6.5513
16:55:08:436,-1.749,3.711,3.603,33.7843,0.5027,0.3186,-0.6713,6.3873
16:55:08:457,-2.24,4.2229,3.273,33.3981,0.1143,0.1207,-0.6777,6.2767
16:55:08:477,-2.472,4.4171,4.053,32.8604,-0.3763,-0.0337,-0.6181,6.2767
16:55:08:496,-2.501,4.281,5.463,32.6214,-0.7882,-0.0741,-0.5021,6.2767
16:55:08:516,-2.4341,4.034,7.3361,32.8939,-1.0542,-0.0081,-0.3318,6.2767
16:55:08:537,-2.28,3.8711,9.581,32.92,-1.0255,0.1259,-0.1106,6.2767
16:55:08:556,-2.132,4.137,11.5451,32.8503,-0.6966,0.2303,0.1332,6.37
16:55:08:578,-1.713,4.602,12.368,32.8925,-0.2784,0.2047,0.3344,6.37
16:55:08:596,-0.7961,4.932,12.45,32.6492,-0.1347,0.0015,0.3886,6.37
16:55:08:616,0.039,4.946,12.8951,32.6133,-0.2412,-0.0688,0.2215,6.37
16:55:08:636,-0.056,4.776,13.668,32.6337,-0.3295,0.1122,-0.0551,6.37
16:55:08:656,-0.8921,3.78,14.145,32.1595,-0.3007,0.2633,-0.2137,6.37
16:55:08:678,-1.8491,2.849,13.845,31.5493,-0.056,0.474,-0.1402,6.37
16:55:08:696,-2.58,2.274,12.591,31.135,0.4346,0.7189,0.0874,6.37
16:55:08:716,-3.011,2.2841,10.295,30.8102,0.9338,0.7272,0.3088,6.37
16:55:08:735,-3.2981,2.6861,7.68,30.7472,1.086,0.4975,0.4471,6.37
16:55:08:759,-3.212,2.8991,5.763,30.7179,0.7804,0.1611,0.4907,6.37
16:55:08:775,-2.8691,2.7251,5.1521,30.2295,0.1782,0.0696,0.4844,6.37
16:55:08:798,-2.64,2.5211,5.6861,29.4956,-0.3943,0.3825,0.4546,6.37
16:55:08:814,-2.5151,2.1161,7.1201,28.8013,-0.7743,0.6868,0.3982,6.37
16:55:08:833,-2.264,1.769,8.537,28.3147,-0.8723,0.6901,0.3151,6.37
16:55:08:857,-2.4,1.4441,8.978,28.2439,-0.7648,0.6082,0.2588,6.37
16:55:08:874,-2.324,1.6781,8.889,28.285,-0.5807,0.7411,0.2311,6.37
16:55:08:907,-2.4191,1.3961,8.276,28.3341,-0.4125,1.1423,0.2013,6.37
16:55:08:915,-2.496,1.6301,7.479,28.4367,-0.2668,1.4765,0.3248,6.37
16:55:08:934,-2.1101,1.647,6.612,28.3705,-0.1891,1.6383,0.3598,6.37
16:55:08:953,-2.522,2.016,7.154,28.5427,-0.1891,1.2573,0.246,6.2697
16:55:08:979,-3.219,2.1881,8.2601,28.9501,-0.0591,0.6187,0.1885,6.1596
16:55:08:993,-3.6071,2.301,9.249,29.3789,0.1845,0.1814,0.1225,6.0204
16:55:09:012,-3.932,2.033,9.912,29.5438,0.4548,-0.0656,0.1162,5.8518
16:55:09:033,-2.757,2.229,10.1681,29.6218,0.6039,-0.3209,0.0971,5.6528
16:55:09:053,-2.6951,3.141,10.295,29.4355,0.6698,-0.8797,0.0183,5.42
16:55:09:078,-3.02,4.2191,10.637,29.0844,0.5538,-1.7428,-0.1999,5.1548
16:55:09:093,-3.408,4.638,11.382,28.4551,0.4548,-2.3547,-0.2563,4.8657
16:55:09:113,-3.731,4.556,11.573,27.6637,0.458,-2.5026,-0.0084,4.5562
16:55:09:131,-3.1661,4.649,9.974,26.7521,0.5379,-2.2015,0.4898,4.2228
16:55:09:154,-2.012,5.109,8.0921,25.8511,0.1953,-0.3582,0.8814,3.8596
16:55:09:174,-0.861,5.897,8.791,25.1576,-0.1347,0.8539,1.0953,3.4637
16:55:09:192,-0.195,4.925,10.0031,24.833,-0.5849,1.0189,0.909,3.034
16:55:09:210,-0.327,3.278,11.142,24.5862,-0.736,1.0285,0.6014,2.5792
16:55:09:251,-1.0811,2.315,11.7431,24.5983,-0.5881,1.0339,0.3365,2.1151
16:55:09:252,-1.998,2.16,11.279,24.8608,-0.3061,0.8114,0.294,1.657
16:55:09:272,-2.328,2.255,10.058,24.9889,-0.1337,0.5336,0.4557,1.2119
16:55:09:291,-1.907,2.097,8.885,25.2389,-0.139,0.4261,0.6845,0.7758
16:55:09:312,-1.244,1.97,8.099,25.5842,-0.19,0.5837,0.8271,0.338
16:55:09:331,-0.4421,1.9541,7.6781,25.8386,-0.1783,0.7113,0.8399,-0.1128
16:55:09:351,-0.008,1.956,7.0271,26.2173,-0.0358,0.6698,0.6759,-0.5818
16:55:09:373,0.1301,2.2151,6.536,26.3177,0.1665,0.5932,0.4269,-1.0665
16:55:09:392,0.156,2.459,6.002,26.2175,0.3857,0.4591,0.1077,-1.56
16:55:09:416,0.261,2.6891,5.1761,26.1663,0.4921,0.2526,-0.3488,-2.0479
16:55:09:432,-0.9371,3.041,4.4291,25.883,0.4207,0.059,-0.7947,-2.517
16:55:09:454,-2.2091,3.311,4.0361,25.6611,0.1547,0.0132,-0.9842,-2.9475
16:55:09:471,-3.365,3.663,4.295,25.4564,-0.2188,0.1387,-0.9555,-3.3222
16:55:09:490,-4.2131,3.771,5.3561,25.2084,-0.5987,0.3143,-0.7639,-3.6362
16:55:09:510,-4.986,3.761,7.2161,25.1434,-0.8903,0.358,-0.466,-3.9006
16:55:09:531,-5.352,4.041,9.4901,25.0916,-1.0266,0.094,-0.0881,-4.1403
16:55:09:551,-4.79,4.4291,11.7,24.9654,-1.0064,-0.4146,0.2365,-4.3804
16:55:09:571,-3.92,4.398,13.632,24.9998,-0.8807,-0.9446,0.378,-4.6383
16:55:09:594,-3.1781,4.104,15.201,24.9794,-0.6445,-1.2915,0.4238,-4.9214
16:55:09:610,-2.642,4.101,16.22,24.9552,-0.2837,-1.4842,0.4355,-5.2297
16:55:09:638,-2.036,3.929,16.2041,25.1588,0.1111,-1.5991,0.477,-5.5588
16:55:09:652,-1.05,3.335,14.798,25.1478,0.506,-1.3522,0.5365,-5.9051
16:55:09:672,-0.492,2.586,12.6791,24.9442,0.7305,-0.7839,0.5664,-6.268
16:55:09:690,-0.609,1.65,11.066,24.794,0.8944,-0.0953,0.5536,-6.6445
16:55:09:710,-1.1981,1.731,9.4691,24.4605,1.0775,0.2813,0.5482,-7.0274
16:55:09:729,-1.359,1.9301,7.8311,23.9153,1.1125,0.1697,0.4887,-7.4057
16:55:09:750,-1.715,2.31,6.3731,23.5731,0.9901,-0.1635,0.3663,-7.7673
16:55:09:773,-2.0651,2.325,5.2691,23.247,0.7337,-0.3369,0.2844,-8.0977
16:55:09:797,-2.12,2.375,4.7981,22.2808,0.3825,-0.3231,0.2599,-8.384
16:55:09:814,-1.821,2.72,4.7501,22.2508,-0.0358,-0.3092,0.2035,-8.6208
16:55:09:832,-1.8281,2.933,4.913,22.0379,-0.5136,-0.1794,0.0821,-8.8124
16:55:09:852,-2.1101,2.8781,5.427,21.7804,-1.0425,0.11,0.0077,-8.9644
16:55:09:873,-2.249,2.6051,6.38,21.5386,-1.4981,0.5772,0.0502,-9.0756
16:55:09:892,-2.1341,2.207,7.5221,21.4352,-1.779,1.1785,0.1705,-9.0756
16:55:09:920,-1.979,1.712,8.597,21.5842,-1.8737,1.6851,0.2949,-9.0756
16:55:09:933,-1.62,1.527,9.9311,21.9489,-1.7556,1.8224,0.3982,-9.0756
16:55:09:952,-1.32,1.9751,11.568,22.4161,-1.4278,1.3743,0.5109,-9.0756
16:55:09:971,-1.562,2.471,12.9281,23.5608,-0.7956,0.5006,0.5195,-9.0756
16:55:09:991,-1.1651,2.523,12.404,24.1076,0.0866,0.0132,0.4536,-9.0756
16:55:10:013,-0.822,3.0671,11.451,24.5903,0.7571,-0.4401,0.3057,-9.0756
16:55:10:031,-0.8321,3.9221,10.209,24.9894,0.8891,-0.8456,0.1918,-9.0756
16:55:10:053,-0.609,4.683,10.2641,24.9552,0.6826,-0.7659,0.1609,-9.0756
16:55:10:070,0.3401,5.052,11.3531,24.7496,0.3761,-0.4444,0.0587,-9.0756
16:55:10:090,1.578,4.59,12.545,24.5519,0.2133,-0.2454,-0.2722,-9.0756
16:55:10:112,2.011,3.491,13.599,24.2519,0.2771,-0.4381,-0.8309,-9.0756
16:55:10:133,1.5281,2.267,13.4141,24.0478,0.4665,-1.166,-1.4407,-9.0756
16:55:10:155,0.5171,1.245,12.066,23.9797,0.5954,-1.6236,-1.8866,-9.0756
16:55:10:170,-0.6881,0.546,10.9601,24.0109,0.5772,-1.6034,-1.9973,-8.9706
16:55:10:192,-1.421,0.266,10.79,23.8182,0.5889,-1.365,-1.7793,-8.8218
16:55:10:212,-1.529,0.0191,10.134,23.6086,0.6623,-1.3288,-1.4035,-8.6369
16:55:10:234,-1.275,-0.114,8.8219,22.7186,0.6773,-1.7193,-1.0044,-8.4321
16:55:10:253,-0.6911,0.122,7.541,22.4581,0.6401,-2.6176,-0.6607,-8.2225
16:55:10:271,0.173,0.2081,6.68,22.4752,0.6496,-3.9181,-0.5096,-8.2225
16:55:10:298,0.848,0.287,5.004,22.8981,0.5954,-5.0652,-0.466,-8.2225
