Time,Acc_X,Acc_Y,Acc_Z,Meg,Gyr_X,Gyr_Y,Gyr_Z,Ore
16:57:08:544,-1.533,4.4171,7.826,57.9363,0.3516,-0.3539,0.2258,85.4582
16:57:08:544,-1.509,4.566,7.659,57.8617,0.2292,-0.3124,0.0854,85.4582
16:57:08:545,-1.814,4.671,8.147,57.6893,-0.0656,-0.4529,-0.0531,85.4582
16:57:08:548,-2.048,4.508,9.452,57.6499,-0.3252,-0.5519,-0.103,85.6548
16:57:08:585,-2.019,4.3331,10.932,57.7103,-0.3571,-0.587,-0.0275,86.0164
16:57:08:586,-1.4741,4.245,11.592,57.6284,-0.1134,-0.3625,0.0991,86.5249
16:57:08:606,-0.6791,4.094,11.2931,57.8186,0.2303,-0.0602,0.1598,87.1648
16:57:08:626,-0.399,4.2311,10.175,57.8013,0.407,-0.1496,0.0406,87.9263
16:57:08:647,-0.506,4.087,9.093,57.8149,0.3538,-0.3689,-0.1137,88.807
16:57:08:667,-0.4781,3.6941,8.4461,58.0385,0.159,-0.5019,-0.1712,89.8018
16:57:08:688,-0.2621,3.431,8.482,58.1128,-0.1134,-0.3827,-0.1584,90.8979
16:57:08:705,-0.413,3.254,8.858,58.3008,-0.1805,0.1484,-0.0711,92.0808
16:57:08:728,-0.734,3.395,9.1601,58.493,0.0473,0.4335,0.0077,93.3409
16:57:08:748,-0.461,3.3851,8.487,58.5715,0.3538,0.1622,-0.0201,94.6724
16:57:08:765,0.0071,3.3971,7.292,58.658,0.3963,-0.2996,-0.184,96.0685
16:57:08:787,0.3161,3.3251,6.8501,58.6354,-0.0368,-0.6743,-0.4202,97.524
16:57:08:805,0.149,3.0671,7.8791,58.5696,-0.6445,-0.6242,-0.6203,99.0339
16:57:08:824,-0.612,2.804,9.531,58.4747,-0.9861,-0.1273,-0.6479,100.5973
16:57:08:860,-1.5311,2.883,10.781,58.4801,-0.8935,0.408,-0.4957,102.2123
16:57:08:865,-2.019,3.302,10.62,58.542,-0.4114,0.7146,-0.2382,103.8705
16:57:08:888,-1.775,3.828,9.536,58.34,0.1771,0.5932,-0.1094,105.5595
16:57:08:904,-1.373,4.298,7.982,58.5467,0.5209,0.1165,-0.1775,107.2711
16:57:08:923,-1.172,4.491,6.7151,58.6515,0.4591,-0.2614,-0.3361,109.0032
16:57:08:945,-1.299,4.3691,6.51,58.7028,0.1111,-0.3146,-0.4372,110.754
16:57:08:963,-1.691,4.137,7.371,58.9308,-0.2699,-0.1326,-0.4074,112.5185
16:57:08:987,-1.998,3.8351,8.681,58.9332,-0.455,0.1079,-0.2478,114.2863
16:57:09:003,-2.1101,3.6821,10.005,58.9494,-0.388,0.2005,-0.0637,116.0433
16:57:09:024,-2.139,3.7061,10.766,58.9233,-0.0943,0.158,0.1056,117.7797
16:57:09:043,-1.976,3.881,10.6301,58.884,0.2952,0.1207,0.2258,119.4899
16:57:09:063,-1.859,4.116,9.962,59.0658,0.524,0.0143,0.2311,121.1729
16:57:09:083,-1.773,4.2401,9.284,59.1687,0.4793,-0.1198,0.1375,122.8311
16:57:09:103,-1.392,3.5771,9.1361,59.2747,0.1526,-0.3732,-0.0253,124.4656
16:57:09:122,-1.17,2.588,10.278,59.3241,-0.4136,-0.6913,-0.184,126.0738
16:57:09:143,-1.799,1.9421,12.134,59.1366,-0.6786,-0.421,-0.186,127.6554
16:57:09:162,-2.7071,1.6421,13.0361,59.0055,-0.3508,0.1558,0.0971,129.2127
16:57:09:183,-2.5841,1.776,12.4091,59.0747,0.3048,0.441,0.413,130.7397
16:57:09:202,-1.979,2.028,10.5491,59.0442,0.7943,0.3091,0.461,132.2293
16:57:09:222,-1.538,2.2841,8.5541,59.0609,0.8082,-0.0421,0.3151,133.6829
16:57:09:242,-1.4021,2.394,7.395,58.9276,0.458,-0.2295,0.1418,135.1055
16:57:09:262,-1.32,2.27,7.5971,58.7523,0.0419,-0.1794,0.0609,136.4994
16:57:09:282,-1.167,2.076,8.456,58.6522,-0.2188,-0.091,0.0406,137.8608
16:57:09:309,-0.956,1.961,9.275,58.7375,-0.2762,-0.0326,0.0406,139.1858
16:57:09:321,-0.791,1.97,9.675,58.9783,-0.1603,-0.0049,0.0055,140.4729
16:57:09:340,-0.846,2.064,9.423,59.3013,0.0419,0.043,-0.0722,141.7261
16:57:09:360,-1.074,2.1761,8.858,59.459,0.1601,-0.0081,-0.1647,142.9519
16:57:09:381,-1.4741,2.255,8.4971,59.6289,0.143,-0.1358,-0.2201,144.1559
16:57:09:408,-1.8401,2.409,8.6741,59.7186,0.0898,-0.1581,-0.1754,145.3417
16:57:09:422,-1.835,2.567,8.8871,59.6876,0.1037,-0.0337,-0.0776,146.5068
16:57:09:441,-1.6961,2.7221,8.954,59.6927,0.1345,0.0143,-0.0179,147.6461
16:57:09:473,-1.454,2.8751,8.913,59.5309,0.1345,-0.0624,-0.0371,148.7572
16:57:09:481,-1.263,2.9471,8.9351,59.4912,0.1196,-0.2145,-0.1211,149.8398
16:57:09:502,-1.347,3.014,8.9231,59.4491,0.0738,-0.3348,-0.2074,150.8964
16:57:09:520,-1.761,3.057,8.9321,59.2997,-0.0166,-0.2837,-0.1903,151.9313
16:57:09:542,-2.149,3.057,9.009,59.1495,-0.122,-0.1155,-0.052,152.9453
16:57:09:561,-2.139,3.156,9.2441,58.9452,-0.2454,0.0164,0.1034,153.934
16:57:09:579,-2.055,3.1841,9.4301,58.8227,-0.3528,0.0164,0.1056,154.8904
16:57:09:603,-1.883,3.1481,9.818,58.8418,-0.3838,0.0186,0.1705,155.8138
16:57:09:619,-1.541,3.0881,9.861,58.918,-0.2338,0.0356,0.3376,156.6991
16:57:09:640,-1.79,2.9471,9.584,59.1545,-0.0421,0.11,0.5046,157.5436
16:57:09:661,-1.919,2.8901,9.392,59.3011,-0.0027,0.1504,0.7441,158.3484
16:57:09:682,-1.4951,2.978,9.095,59.4023,-0.0793,0.225,0.8834,159.1095
16:57:09:699,-1.0039,3.1031,8.631,59.59,-0.1763,0.3644,0.826,159.8231
16:57:09:721,-0.825,3.11,7.956,59.6377,-0.2848,0.522,0.6962,160.4918
16:57:09:740,-0.818,2.9621,7.731,59.822,-0.4913,0.6496,0.677,161.1211
16:57:09:759,-0.7511,3.179,8.5061,60.0679,-0.6615,0.5794,0.6441,161.7108
16:57:09:779,-0.5179,3.383,9.363,60.3678,-0.62,0.3718,0.4716,162.2618
16:57:09:798,-0.233,3.3371,9.339,60.4474,-0.4572,0.1196,0.2855,162.7798
16:57:09:821,-0.138,3.3971,8.942,60.4514,-0.338,-0.1646,0.1438,163.2722
16:57:09:862,-0.1181,3.488,8.841,60.405,-0.3124,-0.4242,0.0257,163.7465
16:57:09:863,-0.2,3.572,9.1481,60.405,-0.3806,-0.3189,-0.0616,164.2098
16:57:09:879,-0.3101,3.033,8.7341,60.3392,-0.5679,0.1739,-0.0828,164.6659
16:57:09:903,-0.176,2.669,8.9111,60.2018,-0.8009,0.3219,-0.1106,165.1149
16:57:09:918,0.005,2.552,9.711,60.0423,-0.8627,-0.4987,-0.2307,165.5541
16:57:09:940,-0.1931,2.715,10.362,59.5522,-0.6307,-1.7193,-0.3499,165.9895
16:57:09:957,0.204,2.7461,10.52,59.1744,-0.2827,-2.4909,-0.3446,166.4299
16:57:09:981,3.6491,3.225,13.4651,58.7936,0.2346,-1.0893,-0.4968,166.8696
16:57:10:000,1.346,2.997,11.073,58.2877,0.5411,0.1228,-0.6362,167.3095
16:57:10:019,-1.5791,2.334,8.394,57.9475,0.5209,-0.4561,-0.2776,167.7657
16:57:10:040,-2.5751,2.643,8.918,57.7304,0.4975,-1.0605,0.1386,168.2419
16:57:10:068,1.334,2.4401,6.711,57.6796,0.4293,2.0405,-0.2457,168.726
16:57:10:088,-0.377,4.7501,10.709,57.7592,-0.2082,2.2236,0.0109,169.1934
16:57:10:109,-0.0251,3.845,10.6301,57.7603,-0.2922,0.4953,0.2098,169.6395
16:57:10:125,-1.2461,3.687,9.4069,57.6053,-0.2646,-0.5838,-0.0967,170.0616
16:57:10:144,-0.7391,2.4251,11.183,57.5344,-0.4711,-1.349,-0.1254,170.463
16:57:10:165,-0.9761,2.82,10.841,57.5178,-0.4273,-2.0758,-0.2201,170.8601
16:57:10:186,-0.051,2.883,9.002,57.6192,-0.3784,-1.5799,-0.1797,171.2521
16:57:10:209,1.281,2.586,8.739,57.7435,-0.1974,-0.7722,-0.2127,171.6463
16:57:10:225,0.467,2.978,5.262,57.9602,0.0323,1.2636,-0.12,172.032
16:57:10:244,-0.006,3.287,7.5971,58.2773,0.3516,2.8099,0.0715,172.4068
16:57:10:265,-0.48,2.322,11.025,58.461,0.4357,2.5578,0.1216,172.7665
16:57:10:286,-1.584,1.6571,12.296,58.3827,0.4995,1.0083,-0.1807,173.1079
16:57:10:306,-1.677,3.002,9.969,58.121,0.3484,-0.587,-0.2509,173.4317
16:57:10:324,-1.0039,3.4571,8.183,57.7545,-0.1305,-0.8073,-0.2574,173.7543
16:57:10:343,-1.083,3.318,9.272,57.6159,-0.2071,-0.4828,-0.1647,174.0755
16:57:10:364,-0.813,3.206,10.022,57.5613,0.1739,0.0622,-0.0412,174.3932
16:57:10:383,-0.786,3.2801,10.046,57.5161,0.6421,0.5602,0.0439,174.706
16:57:10:407,-0.837,3.3611,9.5411,57.6794,0.8646,0.8007,0.0811,175.0101
16:57:10:423,-1.181,3.6341,8.813,57.6206,0.7528,0.7997,0.0864,175.2997
16:57:10:443,-1.4471,3.7211,8.619,57.4522,0.4187,0.5496,0.0906,175.5786
16:57:10:463,-1.6721,3.539,8.904,57.3548,0.127,0.1313,0.0715,175.8509
16:57:10:500,-1.739,3.503,8.978,57.1761,0.0004,-0.2039,0.0609,176.1182
16:57:10:503,-1.4711,3.524,8.791,57.0598,0.0015,-0.2347,0.0758,176.3812
16:57:10:526,-1.323,3.4481,8.715,57.1287,0.0675,-0.0858,0.0874,176.6388
16:57:10:542,-1.428,3.4811,8.729,57.276,0.11,0.0483,0.1108,176.8879
16:57:10:562,-1.292,3.4121,8.777,57.2919,0.1068,0.1015,0.1225,177.1286
16:57:10:582,-1.146,3.455,8.9321,57.2214,0.0622,0.0877,0.08,177.3617
16:57:10:605,-1.1621,3.543,9.294,57.2833,0.028,0.0175,0.0322,177.5858
16:57:10:622,-1.347,3.6251,9.411,57.3977,0.0568,-0.0326,0.0225,177.8016
16:57:10:642,-1.577,3.6821,8.5421,57.4266,0.0855,-0.1018,0.047,178.011
16:57:10:666,-1.0331,3.989,6.881,57.4266,-0.206,-0.0506,0.0832,178.2156
16:57:10:682,-1.1,3.414,8.7101,57.4031,-0.271,0.1282,0.0672,178.4195
16:57:10:705,-1.019,3.33,9.198,57.3934,-0.1891,0.1378,0.0556,178.6096
16:57:10:730,-1.124,3.345,9.6341,57.5609,-0.0847,0.2112,0.0459,178.9579
16:57:10:754,-1.265,3.3611,9.629,57.8107,0.0132,0.1515,0.0353,179.1199
16:57:10:769,-1.296,3.5861,8.774,57.9063,-0.0133,0.0866,0.0289,179.2775
16:57:10:789,-1.2941,3.6371,8.772,57.829,-0.1262,0.0855,0.0353,179.4318
16:57:10:809,-1.359,3.6011,9.419,57.6779,-0.1422,0.0622,0.0439,179.5813
16:57:10:829,-1.445,3.572,9.945,57.6926,-0.0645,0.0334,0.0672,179.7248
16:57:10:849,-1.517,3.5051,10.0121,57.6002,-0.0027,-0.0294,0.0789,179.8615
16:57:10:869,-1.541,3.4481,9.89,57.6388,-0.0016,-0.1687,0.0769,179.9911
16:57:10:889,-1.38,3.491,9.5141,57.6406,0.0291,-0.2295,0.0778,-179.8855
16:57:10:910,-1.263,3.503,9.067,57.5623,0.0803,-0.1442,0.0928,-179.7687
16:57:10:927,-1.1381,3.462,8.736,57.5701,0.0866,-0.0368,0.1088,-179.6584
16:57:10:948,-1.002,3.383,8.798,57.5212,0.0291,0.0015,0.1182,-179.5551
16:57:10:968,-0.786,3.2201,9.21,57.6346,-0.0049,-0.056,0.0832,-179.4607
16:57:10:988,-0.7391,3.227,9.1361,57.8934,0.0121,-0.0921,0.0214,-179.4607
16:57:11:011,-0.911,3.4601,8.9951,58.1087,0.0015,-0.091,-0.0115,-179.4607
16:57:11:027,-1.1291,3.632,9.0041,58.1406,-0.0092,-0.1155,0.0109,-179.4607
16:57:11:047,-1.098,3.656,9.002,57.8996,0.0078,-0.0793,0.0534,-179.4607
16:57:11:067,-1.035,3.56,9.126,57.7766,0.044,0.0143,0.0736,-179.4607
16:57:11:087,-1.0091,3.512,9.239,57.6775,0.0792,0.0568,0.0587,-179.4607
16:57:11:110,-1.124,3.57,9.138,57.6244,0.0846,0.043,0.0459,-179.4607
16:57:11:127,-1.136,3.6101,9.095,57.6002,0.0408,-0.0007,0.047,-179.4607
16:57:11:147,-1.079,3.539,9.201,57.3737,-0.0092,-0.0624,0.0428,-179.4607
16:57:11:167,-0.9521,3.474,9.275,57.1859,-0.0176,-0.0986,0.0289,-179.4607
16:57:11:186,-0.966,3.512,9.189,57.1666,0.0153,-0.1006,0.0183,-179.4607
16:57:11:205,-1.052,3.6221,8.9591,57.1392,0.0345,-0.0858,0.0374,-179.4607
16:57:11:226,-1.031,3.591,8.916,57.3023,0.0334,-0.0666,0.0693,-179.4607
16:57:11:245,-0.9521,3.5171,8.88,57.364,0.0516,-0.0411,0.0769,-179.4607
16:57:11:265,-0.93,3.5291,8.6951,57.5038,0.0579,-0.0102,0.0747,-179.4607
16:57:11:285,-0.9041,3.5411,8.5129,57.497,-0.0102,-0.0081,0.0672,-179.4607
16:57:11:305,-0.935,3.5,8.669,57.5586,-0.1123,-0.0358,0.0619,-179.4607
16:57:11:326,-0.918,3.488,9.093,57.7583,-0.1624,-0.0613,0.063,-179.4607
16:57:11:345,-0.849,3.378,9.392,57.9881,-0.139,-0.0602,0.0587,-179.4607
16:57:11:365,-0.8561,3.3611,9.442,58.2079,-0.0847,-0.0582,0.0385,-179.4607
16:57:11:385,-0.921,3.431,9.3251,58.2173,-0.0474,-0.0485,0.0353,-179.4607
16:57:11:405,-0.8411,3.4091,9.33,57.9475,-0.0283,-0.0463,0.0417,-179.4607
16:57:11:425,-0.7001,3.395,9.2441,57.6754,-0.0241,-0.0613,0.0279,-179.4607
16:57:11:444,-0.722,3.45,9.021,57.4688,-0.04,-0.0858,0.0023,-179.4607
16:57:11:464,-0.8681,3.534,8.853,57.5247,-0.0741,-0.0869,-0.0041,-179.4607
16:57:11:486,-0.983,3.56,9.021,57.6484,-0.1006,-0.0645,0.0289,-179.4607
16:57:11:504,-0.863,3.383,9.371,57.6932,-0.0688,-0.0378,0.0598,-179.4607
16:57:11:525,-0.662,3.2561,9.531,57.9078,0.0153,-0.0241,0.0459,-179.4607
16:57:11:544,-0.588,3.266,9.356,57.8852,0.0664,0.0004,0.0023,-179.4607
16:57:11:564,-0.6911,3.359,9.093,57.8237,0.0473,-0.0358,-0.0318,-179.4607
16:57:11:584,-0.7241,3.431,8.894,57.7006,-0.0346,-0.0869,-0.0509,-179.4607
16:57:11:603,-0.779,3.4811,9.069,57.6167,-0.0901,-0.0975,-0.0551,-179.4607
16:57:11:623,-0.81,3.495,9.2411,57.5918,-0.0506,-0.0411,-0.0403,-179.4607
16:57:11:643,-0.806,3.4811,9.198,57.6459,0.0026,0.0121,-0.0243,-179.4607
16:57:11:663,-0.7721,3.4361,9.177,57.6516,0.0058,0.0078,-0.0243,-179.4607
16:57:11:682,-0.767,3.39,9.27,57.6,-0.007,-0.0219,-0.036,-179.4607
16:57:11:702,-0.813,3.342,9.335,57.6594,0.0058,-0.0389,-0.054,-179.4607
16:57:11:722,-0.873,3.4241,9.191,57.7183,0.0153,-0.0549,-0.0594,-179.4607
16:57:11:743,-0.87,3.452,9.1241,57.813,-0.0133,-0.0773,-0.0573,-179.4607
16:57:11:763,-0.899,3.44,9.102,57.8776,-0.0294,-0.0932,-0.0477,-179.4607
16:57:11:782,-0.846,3.416,9.107,57.7249,-0.0219,-0.0517,-0.0318,-179.4607
16:57:11:802,-0.894,3.4001,9.2651,57.5915,0.0026,-0.0133,-0.0296,-179.4607
16:57:11:830,-0.9011,3.3851,9.1481,57.4811,0.0132,-0.04,-0.0329,-179.4607
16:57:11:842,-0.885,3.3251,9.057,57.381,-0.0124,-0.0602,-0.0531,-179.4607
16:57:11:863,-0.9611,3.4091,9.0979,57.3971,-0.0176,-0.0698,-0.0722,-179.4607
16:57:11:881,-1.088,3.551,9.1361,57.484,-0.0113,-0.0517,-0.0562,-179.4607
16:57:11:901,-1.143,3.536,9.213,57.5789,-0.0007,-0.0517,-0.0147,-179.4607
16:57:11:923,-1.0039,3.4451,9.179,57.6014,0.0026,-0.0645,0.0066,-179.4607
16:57:11:942,-0.885,3.395,9.203,57.7615,0.0078,-0.0688,0.0034,-179.4607
16:57:11:967,-0.825,3.4001,9.105,57.7675,0.0217,-0.0528,-0.0093,-179.4607
16:57:11:982,-0.858,3.4361,9.071,57.6235,0.01,-0.0315,-0.0136,-179.4607
16:57:12:001,-0.8801,3.428,9.138,57.6121,-0.023,-0.0432,-0.0093,-179.4607
16:57:12:021,-0.9131,3.416,9.215,57.6036,-0.0389,-0.0582,-0.0093,-179.4607
16:57:12:042,-0.932,3.4331,9.32,57.6765,-0.0326,-0.0571,-0.003,-179.4607
16:57:12:064,-0.8921,3.443,9.378,57.9516,-0.0016,-0.0688,0.0044,-179.4607
16:57:12:082,-0.815,3.4481,9.189,58.072,0.028,-0.0741,0.0087,-179.4607
16:57:12:100,-0.765,3.462,8.954,57.871,0.028,-0.0549,0.0098,-179.4607
16:57:12:120,-0.765,3.4601,8.88,57.7167,-0.0007,-0.0124,0.0161,-179.4607
16:57:12:140,-0.729,3.383,9.047,57.607,-0.0346,-0.0102,0.0225,-179.4607
16:57:12:160,-0.657,3.2561,9.3131,57.4188,-0.0506,-0.0304,0.0151,-179.4607
16:57:12:189,-0.6161,3.203,9.521,57.5173,-0.0261,-0.0645,-0.0008,-179.4607
16:57:12:200,-0.7361,3.342,9.1841,57.6754,0.0707,0.0366,0.0194,-179.4607
16:57:12:218,-0.612,3.318,9.009,57.7043,0.1015,0.127,0.0481,-179.4607
16:57:12:240,-0.528,3.2681,8.865,57.6826,0.0366,0.109,0.0448,-179.4607
16:57:12:258,-0.504,3.215,9.047,57.7083,-0.0719,0.0451,0.0279,-179.4607
16:57:12:280,-0.497,3.132,9.375,57.5657,-0.1464,-0.0166,0.0129,-179.4607
16:57:12:298,-0.497,2.9711,9.6941,57.523,-0.1698,-0.0454,0.0087,-179.4607
16:57:12:317,-0.461,2.775,10.0361,57.6019,-0.1379,-0.0591,0.0044,-179.4607
16:57:12:338,-0.4631,2.705,10.127,57.6906,-0.0463,-0.0943,-0.021,-179.4607
16:57:12:358,-0.525,2.789,9.708,57.7564,0.0494,-0.1018,-0.0349,-179.4607
16:57:12:377,-0.5111,2.844,9.093,57.856,0.0824,-0.0676,-0.0264,-179.4607
16:57:12:399,-0.423,2.837,8.765,57.8826,0.0366,-0.0389,-0.0179,-179.4607
16:57:12:416,-0.269,2.772,8.9591,57.9758,-0.0209,-0.0698,-0.0329,-179.4607
16:57:12:436,-0.123,2.703,9.045,58.1334,-0.0368,-0.1209,-0.0776,-179.4607
16:57:12:457,-0.1901,2.7371,8.9351,58.1768,-0.0591,-0.1592,-0.1328,-179.4607
16:57:12:478,-0.351,2.847,8.837,58.1008,-0.1123,-0.2082,-0.1541,-179.4607
16:57:12:502,-0.341,2.837,8.9921,57.886,-0.1943,-0.2475,-0.153,-179.4607
16:57:12:518,-0.248,2.7371,9.507,57.7602,-0.2178,-0.3061,-0.1616,-179.4607
16:57:12:538,-0.171,2.799,9.4901,57.6248,-0.1763,-0.3007,-0.1733,-179.4607
16:57:12:559,-0.1781,2.789,9.399,57.5329,-0.1294,-0.2295,-0.1775,-179.4607
16:57:12:577,-0.2381,2.816,9.383,57.5153,-0.1028,-0.2135,-0.169,-179.4607
16:57:12:597,-0.2021,2.78,9.251,57.5573,-0.0869,-0.2113,-0.1519,-179.3677
16:57:12:617,-0.087,2.7371,9.1481,57.6528,-0.1166,-0.223,-0.135,-179.2708
16:57:12:637,0.063,2.6291,9.249,57.8821,-0.1869,-0.2922,-0.1308,-179.1725
16:57:12:657,0.23,2.4371,9.474,57.7973,-0.2401,-0.3444,-0.1308,-179.0745
16:57:12:677,0.312,2.246,9.845,57.7799,-0.2188,-0.3369,-0.1297,-178.9776
16:57:12:695,0.3311,2.157,10.11,57.8439,-0.122,-0.2657,-0.1158,-178.8817
16:57:12:716,0.228,2.088,10.34,58.0134,-0.0133,-0.1932,-0.0839,-178.7866
16:57:12:736,0.156,2.085,10.3211,58.3721,0.0781,-0.173,-0.0296,-178.6922
16:57:12:756,0.192,2.0711,10.0841,58.4231,0.1057,-0.1294,0.0448,-178.5994
16:57:12:776,0.261,2.0711,9.972,58.1844,0.0813,-0.0698,0.1099,-178.5994
16:57:12:796,0.2801,2.0951,10.0241,57.8629,0.0462,-0.0261,0.1577,-178.5994
16:57:12:817,0.314,2.1401,10.2131,57.5423,0.0408,-0.0176,0.1865,-178.5994
16:57:12:837,0.4121,2.243,10.1651,57.545,0.0909,-0.0007,0.2067,-178.5994
16:57:12:856,0.479,2.3441,9.972,57.7616,0.1654,0.0749,0.2247,-178.5994
16:57:12:876,0.561,2.387,9.756,57.7654,0.2324,0.1569,0.2428,-178.5994
16:57:12:896,0.63,2.358,9.409,57.7563,0.2644,0.2303,0.2491,-178.5994
16:57:12:917,0.6731,2.349,9.306,57.5588,0.2548,0.2835,0.2397,-178.5994
16:57:12:937,0.6251,2.349,9.2771,57.3514,0.2526,0.291,0.2332,-178.5994
16:57:12:957,0.549,2.306,9.191,57.2281,0.2707,0.3017,0.2471,-178.5994
16:57:12:977,0.434,2.2391,8.9561,57.2403,0.2644,0.3303,0.2822,-178.5994
16:57:12:996,0.357,2.126,9.086,57.2994,0.2314,0.3442,0.3248,-178.5994
16:57:13:017,0.35,2.028,9.2171,57.4095,0.2144,0.2771,0.3598,-178.5994
16:57:13:037,0.3521,1.9901,9.0281,57.6531,0.1856,0.1867,0.3833,-178.5994
16:57:13:057,0.335,2.03,8.813,57.9658,0.1345,0.1111,0.3993,-178.5994
16:57:13:077,0.326,2.1281,8.633,58.0335,0.0835,0.061,0.4206,-178.5994
16:57:13:097,0.393,2.253,8.4581,58.1321,0.0388,0.0388,0.4301,-178.5994
16:57:13:117,0.312,2.4731,8.286,57.9288,0.0069,0.0377,0.4249,-178.5994
16:57:13:137,0.125,2.7251,7.982,57.762,-0.0751,0.028,0.4451,-178.5994
16:57:13:157,-0.09,2.741,7.6061,57.8051,-0.2549,0.0356,0.4865,-178.5994
16:57:13:177,-0.138,2.5571,7.623,57.8193,-0.5115,0.0696,0.5163,-178.5994
16:57:13:197,0.089,2.516,8.279,57.8603,-0.7296,0.1057,0.4791,-178.5994
16:57:13:219,0.4601,2.763,9.095,57.967,-0.8009,0.1143,0.3461,-178.5994
16:57:13:237,0.479,3.218,9.3251,58.0331,-0.785,0.158,0.1811,-178.6932
16:57:13:258,0.237,3.7061,9.5141,57.9443,-0.8158,0.2474,0.0587,-178.7873
16:57:13:277,0.0461,3.989,10.1771,58.0614,-0.8744,0.3186,-0.0073,-178.8773
16:57:13:297,-0.095,4.087,11.013,58.0382,-0.8212,0.3772,-0.0424,-178.8773
16:57:13:317,-0.095,4.0631,11.588,57.8171,-0.6764,0.408,-0.0498,-178.8773
16:57:13:337,-0.1061,3.9221,11.8031,57.8736,-0.5243,0.3942,-0.0679,-178.8773
16:57:13:357,-0.1181,3.462,11.6861,57.8756,-0.4316,0.3421,-0.0754,-178.8773
16:57:13:377,-0.185,2.72,11.4491,57.8533,-0.3954,0.3101,-0.118,-178.8773
16:57:13:396,-0.339,1.973,11.4971,58.0319,-0.3326,0.3633,-0.2042,-178.8773
16:57:13:417,-0.6071,1.532,11.8271,58.039,-0.1635,0.4176,-0.3574,-178.8773
16:57:13:437,-1.076,1.614,11.93,57.8811,0.1111,0.3559,-0.517,-178.8773
16:57:13:457,-1.6361,2.0351,11.205,57.6852,0.4207,0.2218,-0.5989,-178.8773
16:57:13:478,-2.1221,2.507,9.8591,57.484,0.623,0.1293,-0.5522,-178.8773
16:57:13:497,-2.223,2.705,8.6569,57.2914,0.6284,0.0685,-0.4042,-178.8773
16:57:13:519,-1.6271,2.145,8.0951,57.1911,0.4346,-0.0038,-0.1434,-178.8773
16:57:13:539,-1.244,1.695,8.14,57.2302,0.3325,-0.0337,-0.102,-178.8773
16:57:13:561,-0.755,1.209,8.4851,57.0513,0.2303,-0.0571,-0.1616,-178.8773
16:57:13:579,-0.528,1.0031,8.978,56.9613,0.2036,-0.0741,-0.3116,-178.8773
16:57:13:599,-0.765,1.185,9.203,56.9566,0.2611,-0.0241,-0.4595,-178.8773
16:57:13:619,-1.2131,1.5131,9.3731,56.8034,0.341,0.0601,-0.5351,-178.8773
16:57:13:640,-1.632,1.877,9.5981,56.929,0.4102,0.0909,-0.5426,-178.8773
16:57:13:660,-1.907,2.124,9.557,56.9151,0.4315,0.0377,-0.4905,-178.8773
16:57:13:679,-1.914,2.109,9.462,56.8522,0.3825,-0.0528,-0.4223,-178.8773
16:57:13:702,-1.847,1.9511,9.5291,56.7423,0.3228,-0.1507,-0.3829,-178.78
16:57:13:719,-1.83,1.851,9.5381,56.6882,0.3091,-0.2262,-0.384,-178.6728
16:57:13:740,-1.919,1.97,9.33,56.6125,0.3431,-0.2582,-0.3935,-178.5577
16:57:13:761,-2.0531,2.205,8.913,56.5306,0.3825,-0.2773,-0.369,-178.4348
16:57:13:779,-2.0981,2.339,8.351,56.5337,0.3783,-0.2634,-0.3084,-178.3027
16:57:13:799,-1.9331,2.325,8.004,56.2763,0.3058,-0.256,-0.2457,-178.1613
16:57:13:818,-1.7321,2.301,8.001,56.154,0.225,-0.2901,-0.217,-178.0123
16:57:13:840,-1.553,2.411,8.066,56.1775,0.193,-0.3497,-0.202,-177.8594
16:57:13:859,-1.4111,2.739,7.7471,56.1618,0.1792,-0.454,-0.186,-177.7054
16:57:13:879,-1.368,3.0791,6.9521,56.3263,0.0408,-0.4381,-0.1243,-177.5518
16:57:13:899,-1.397,3.3281,6.869,56.3591,-0.2625,-0.2677,-0.0136,-177.3994
16:57:13:918,-1.385,3.2351,8.004,56.0066,-0.5178,-0.1038,0.1108,-177.2502
16:57:13:939,-1.038,3.342,9.648,55.9823,-0.5477,-0.0964,0.1854,-177.1095
16:57:13:960,-0.758,3.704,10.505,55.96,-0.3699,-0.221,0.1992,-176.9844
16:57:13:977,-0.6311,4.1201,9.921,55.7271,-0.1954,-0.2614,0.2375,-176.879
16:57:13:999,-0.554,4.4171,9.057,55.8488,-0.206,-0.0645,0.294,-176.879
16:57:14:027,-0.576,4.494,9.38,55.9206,-0.3528,0.1378,0.3706,-176.879
16:57:14:038,-0.456,4.439,10.146,56.0247,-0.4625,0.1484,0.4249,-176.879
16:57:14:059,0.098,4.008,10.1921,56.1634,-0.4859,0.0685,0.3919,-176.879
16:57:14:078,0.086,3.8621,9.8261,56.3211,-0.538,0.1378,0.3099,-176.879
16:57:14:098,-0.308,4.0751,10.146,56.3835,-0.6029,0.3228,0.2801,-176.879
16:57:14:118,-0.53,4.046,11.1041,56.4055,-0.5423,0.4378,0.3194,-176.879
16:57:14:138,-0.1811,3.704,11.631,56.4966,-0.3391,0.4432,0.3333,-176.879
16:57:14:158,0.012,3.246,11.4221,56.3822,-0.0826,0.407,0.2269,-176.879
16:57:14:177,-0.6641,3.416,10.92,56.2965,0.1526,0.2718,0.1077,-176.879
16:57:14:199,-1.325,3.876,9.857,56.1648,0.3176,0.1697,0.0991,-176.879
16:57:14:221,-1.5,4.01,8.909,56.1335,0.3877,0.1409,0.1503,-176.879
16:57:14:239,-1.419,4.029,8.2001,56.2878,0.3356,0.1654,0.1961,-176.879
16:57:14:260,-1.49,4.175,8.1761,56.2685,0.1834,0.2175,0.2237,-176.879
16:57:14:277,-1.6991,4.149,8.516,56.2006,0.0377,0.1665,0.2769,-176.879
16:57:14:297,-1.1981,3.78,9.1241,56.1456,-0.0485,0.0036,0.3024,-176.879
16:57:14:319,-0.6,3.567,9.404,55.9945,-0.0751,-0.1848,0.2332,-176.879
16:57:14:340,-0.1211,3.534,9.588,55.8819,-0.0869,-0.2933,0.1737,-176.879
16:57:14:357,0.326,3.381,9.758,55.8459,-0.0879,-0.3582,0.1343,-176.879
16:57:14:377,0.707,3.357,9.8591,55.8438,-0.0528,-0.3858,0.1056,-176.879
16:57:14:398,0.924,3.3041,9.7781,55.853,0.0462,-0.3411,0.0789,-176.879
16:57:14:417,0.893,3.378,9.533,55.9456,0.1899,-0.1911,0.0704,-176.879
16:57:14:441,0.719,3.378,9.15,56.081,0.3112,-0.0337,0.0747,-176.879
16:57:14:457,0.546,3.242,8.791,56.1783,0.3197,0.0451,0.0566,-176.879
16:57:14:477,0.4931,3.0911,8.7221,56.0913,0.2197,0.01,0.0066,-176.879
16:57:14:504,0.522,2.9381,8.8181,56.0634,0.1356,-0.0698,-0.0637,-176.879
16:57:14:517,0.446,2.8181,8.664,56.0204,0.1165,-0.1103,-0.1467,-176.879
16:57:14:541,0.3071,2.873,8.478,55.96,0.1122,-0.0847,-0.1946,-176.879
16:57:14:557,0.1991,3.002,8.267,56.0249,0.0835,-0.0358,-0.2159,-176.879
16:57:14:577,-0.03,2.861,8.0351,56.0737,-0.0411,0.0228,-0.2148,-176.879
16:57:14:597,0.017,2.538,8.715,55.9811,-0.2657,0.0473,-0.2222,-176.879
16:57:14:618,0.242,2.2031,10.0361,55.9556,-0.3827,-0.0656,-0.2882,-176.879
16:57:14:636,0.453,2.205,10.5131,55.9359,-0.2432,-0.1997,-0.4137,-176.879
16:57:14:657,0.132,2.727,9.701,55.9238,0.0334,-0.139,-0.5149,-176.879
16:57:14:676,-0.513,3.206,8.5661,56.0834,0.2281,0.0835,-0.4979,-176.879
16:57:14:696,-0.858,3.428,7.944,56.1619,0.2591,0.3154,-0.4095,-176.879
16:57:14:716,-1.007,3.44,7.889,56.3253,0.1313,0.4005,-0.3149,-176.7792
16:57:14:736,-1.088,3.3761,8.382,56.3437,-0.0847,0.2941,-0.2584,-176.6651
16:57:14:757,-1.1861,3.1121,9.057,56.1306,-0.2848,0.0653,-0.2201,-176.5425
16:57:14:776,-1.0451,2.828,9.816,55.9514,-0.3806,-0.1442,-0.1999,-176.4161
16:57:14:796,-0.861,2.622,10.3811,55.6725,-0.3422,-0.2284,-0.186,-176.2905
16:57:14:816,-0.918,2.595,10.5131,55.4903,-0.1932,-0.1911,-0.1701,-176.1689
16:57:14:837,-1.098,2.808,10.1201,55.5777,-0.0007,-0.0432,-0.1317,-176.0522
16:57:14:856,-1.299,3.036,9.507,55.7667,0.1558,0.1367,-0.087,-175.9374
16:57:14:876,-1.4981,3.191,8.9951,55.8699,0.1867,0.2474,-0.052,-175.8219
16:57:14:897,-1.658,3.2321,8.94,55.9677,0.092,0.2485,-0.019,-175.7039
16:57:14:917,-1.6991,3.12,9.2321,55.8228,-0.0337,0.1547,0.0203,-175.583
16:57:14:936,-1.5551,2.9471,9.5291,55.6306,-0.1081,0.0451,0.0652,-175.4615
16:57:14:957,-1.4261,2.756,9.644,55.723,-0.1018,0.0153,0.1045,-175.344
16:57:14:976,-1.4381,2.6861,9.6341,55.7976,0.0036,0.0707,0.1513,-175.2358
16:57:14:996,-1.5,2.631,9.4451,55.9131,0.1558,0.1899,0.213,-175.1396
16:57:15:016,-1.557,2.516,9.237,56.1618,0.2633,0.3006,0.2833,-175.1396
16:57:15:036,-1.572,2.5211,9.138,56.2023,0.3123,0.3718,0.3365,-175.1396
16:57:15:057,-1.6391,2.567,9.17,56.1345,0.3442,0.3803,0.378,-175.1396
16:57:15:077,-1.9451,2.502,8.954,56.1001,0.3219,0.2197,0.3205,-175.1396
16:57:15:096,-2.472,3.0311,8.466,56.0039,0.2271,0.0855,0.2599,-175.1396
16:57:15:117,-2.295,3.246,8.291,55.8087,0.1504,0.1814,0.3609,-175.1396
16:57:15:137,-2.034,3.0311,8.2121,55.8745,0.0399,0.2729,0.4685,-175.1396
16:57:15:156,-1.811,2.8391,8.264,55.8397,-0.1433,0.3431,0.5185,-175.1396
16:57:15:178,-1.7441,2.835,8.4941,55.9222,-0.3274,0.3697,0.5206,-175.1396
16:57:15:199,-1.6841,2.942,8.772,56.0744,-0.4412,0.3857,0.4674,-175.1396
16:57:15:219,-1.5431,3.081,9.067,56.0827,-0.4433,0.4443,0.4004,-175.1396
16:57:15:238,-1.56,3.249,9.2531,56.2029,-0.3838,0.4879,0.3301,-175.1396
16:57:15:259,-1.739,3.39,9.177,56.2787,-0.3465,0.5112,0.2375,-175.1396
16:57:15:278,-1.95,3.402,9.215,56.2061,-0.371,0.5624,0.1757,-175.2377
16:57:15:298,-2.345,3.536,9.498,56.2098,-0.3667,0.5804,0.1546,-175.3407
16:57:15:318,-2.549,3.524,9.711,56.1817,-0.2859,0.5644,0.2024,-175.4459
16:57:15:337,-2.814,3.524,9.6461,56.1057,-0.19,0.5516,0.279,-175.5536
16:57:15:357,-3.02,3.5531,9.509,56.0817,-0.1018,0.5474,0.3535,-175.6636
16:57:15:376,-2.826,3.4811,9.263,56.0988,0.0206,0.4964,0.4153,-175.7784
16:57:15:396,-2.843,3.4571,8.988,56.0853,0.1335,0.4847,0.428,-175.8998
16:57:15:418,-2.687,3.431,8.825,56.2447,0.2027,0.3963,0.4227,-176.0275
16:57:15:437,-2.4671,3.476,8.6951,56.3785,0.2079,0.2718,0.395,-176.1628
16:57:15:457,-2.493,3.6131,8.619,56.4097,0.2164,0.1356,0.3492,-176.3054
16:57:15:477,-2.2129,3.699,8.64,56.4486,0.242,0.0366,0.3162,-176.452
16:57:15:497,-2.022,3.768,8.655,56.4749,0.2175,-0.0879,0.263,-176.6035
16:57:15:517,-2.2541,3.749,8.525,56.2625,0.1526,-0.1943,0.2428,-176.7558
16:57:15:542,-2.0861,3.96,8.427,56.2336,0.0707,-0.1539,0.2343,-176.904
16:57:15:557,-1.569,4.0391,8.8031,56.365,0.0419,-0.056,0.213,-177.0518
16:57:15:578,-1.512,4.082,9.067,56.3951,0.0036,-0.0943,0.1726,-177.204
16:57:15:597,-1.835,4.0511,9.27,56.5966,-0.0443,-0.0624,0.1523,-177.3576
16:57:15:616,-1.32,4.2761,9.9161,56.7971,-0.04,-0.221,0.129,-177.5109
16:57:15:638,-0.978,4.3361,10.4981,56.7184,0.0644,-0.3965,-0.0008,-177.6677
16:57:15:658,-0.765,4.4269,10.74,56.7847,0.2314,-0.6115,-0.1393,-177.8227
16:57:15:678,-0.9401,4.4891,10.812,56.8492,0.3835,-0.7998,-0.2637,-177.9672
16:57:15:699,-1.011,4.326,10.644,56.9582,0.4676,-1.0596,-0.352,-178.0919
16:57:15:720,-1.095,3.893,9.9761,57.1572,0.4016,-1.3596,-0.5287,-178.1907
16:57:15:742,-1.7681,3.3521,9.828,57.3725,0.1515,-1.2341,-0.6171,-178.1907
16:57:15:759,-1.8281,2.993,10.395,57.4324,-0.0986,-1.0073,-0.4276,-178.1907
16:57:15:778,-0.7961,2.7821,11.1851,57.4946,-0.1401,-0.7733,-0.3031,-178.1907
16:57:15:800,0.2441,2.672,11.466,57.6524,0.0399,-0.6519,-0.3158,-178.1907
16:57:15:818,0.692,2.346,11.339,57.8537,0.291,-0.604,-0.3574,-178.1907
16:57:15:838,1.0369,2.2001,10.733,58.0503,0.4676,-0.7765,-0.4627,-178.1907
16:57:15:859,1.3871,1.946,9.588,58.0367,0.5635,-1.0192,-0.6086,-178.1907
16:57:15:877,1.281,1.7291,8.4371,58.0892,0.506,-0.8957,-0.7597,-178.1907
16:57:15:898,1.298,2.291,7.7231,57.9283,0.7113,-0.4731,-0.8299,-178.1907
16:57:15:918,0.326,2.3801,7.604,57.7789,0.7135,-0.0708,-0.6564,-178.1907
16:57:15:937,-0.612,2.574,7.041,57.8172,0.4241,0.1708,-0.5361,-178.1907
16:57:15:959,-1.193,2.904,7.419,57.8004,0.2292,0.3431,-0.2797,-178.0736
16:57:15:978,-1.019,3.488,7.64,57.8306,0.0186,0.4953,-0.1605,-177.9403
16:57:15:998,-1.196,3.792,7.865,57.9986,-0.1188,0.5453,-0.1328,-177.8014
16:57:16:017,-1.308,3.8831,8.025,58.0525,-0.1337,0.2335,-0.0754,-177.6602
16:57:16:037,-1.1411,4.175,8.025,58.2667,-0.0613,-0.2497,-0.0201,-177.5206
16:57:16:057,-0.8321,4.142,7.125,58.1579,-0.1123,-0.0698,-0.0754,-177.3872
16:57:16:078,-0.095,3.929,8.162,58.0289,-0.256,0.2846,-0.1393,-177.2618
16:57:16:097,-0.0011,3.974,7.9271,57.9324,-0.1783,0.4868,-0.1595,-177.1514
16:57:16:118,-0.351,4.278,8.5901,57.6138,-0.0751,0.6933,-0.202,-177.0505
16:57:16:138,-0.633,4.41,8.906,57.825,0.026,0.5592,-0.2478,-176.9523
16:57:16:158,-0.932,4.53,9.0161,58.1648,0.1133,0.3633,-0.2509,-176.8519
16:57:16:178,-1.179,4.64,9.122,58.6846,0.176,0.2005,-0.1903,-176.7475
16:57:16:198,-1.3751,4.808,9.146,59.2086,0.2505,0.1398,-0.0913,-176.6406
16:57:16:218,-1.4711,4.9661,9.069,59.7386,0.3123,0.1537,0.0055,-176.533
16:57:16:237,-1.3061,4.97,9.021,60.211,0.325,0.1462,0.0459,-176.4279
16:57:16:258,-1.17,4.9271,9.0401,60.5388,0.2537,0.0855,0.0129,-176.3281
16:57:16:277,-1.268,4.8431,9.2321,61.0935,0.1048,0.0644,-0.0446,-176.2334
16:57:16:296,-1.847,4.875,9.6911,61.3379,-0.0007,0.2175,-0.0381,-176.1392
16:57:16:318,-2.6201,5.018,10.098,61.4403,0.0451,0.4879,0.0832,-176.0406
16:57:16:336,-2.826,4.9031,9.9671,61.6023,0.159,0.5294,0.2258,-175.9393
16:57:16:359,-2.5841,4.604,9.605,61.2803,0.1495,0.3378,0.2588,-175.8424
16:57:16:377,-2.438,4.3361,9.629,60.9295,0.0781,0.2207,0.2662,-175.8424
16:57:16:396,-2.295,3.986,9.6911,60.6862,0.1185,0.308,0.3216,-175.8424
16:57:16:416,-2.0171,3.6851,9.2411,60.2887,0.2474,0.4474,0.3631,-175.8424
16:57:16:437,-1.895,3.57,8.4131,60.0715,0.2889,0.4495,0.2929,-175.8424
16:57:16:457,-1.905,3.512,7.884,59.9811,0.1324,0.2357,0.1268,-175.8424
16:57:16:477,-2.084,3.194,8.03,59.8948,-0.1273,-0.0485,-0.0381,-175.8424
16:57:16:498,-2.2129,2.66,8.652,59.9205,-0.3561,-0.2582,-0.0807,-175.8424
16:57:16:519,-1.572,2.1,9.902,60.0663,-0.4029,-0.1273,0.1534,-175.8424
16:57:16:537,-1.292,2.267,9.8231,60.1045,-0.1188,0.209,0.2875,-175.8424
16:57:16:557,-1.4111,2.801,8.897,60.1823,0.2186,0.4335,0.3684,-175.8424
16:57:16:577,-1.6391,3.4211,7.632,60.4078,0.4059,0.3846,0.3865,-175.8424
16:57:16:596,-1.916,4.01,6.7271,60.6714,0.4326,0.2058,0.3759,-175.8424
16:57:16:617,-1.94,4.41,6.371,60.7478,0.3889,0.0121,0.3663,-175.8424
16:57:16:636,-1.821,4.626,6.3131,60.6899,0.3228,-0.1273,0.3461,-175.8424
16:57:16:657,-1.596,4.7861,6.548,60.7385,0.2474,-0.1986,0.2897,-175.8424
16:57:16:677,-1.4141,4.8191,6.9671,60.6403,0.1782,-0.221,0.1885,-175.8424
16:57:16:696,-1.4141,4.841,7.5461,60.7735,0.11,-0.221,0.0811,-175.9331
16:57:16:715,-1.397,4.805,8.126,60.9057,0.0505,-0.2199,-0.0125,-176.0305
16:57:16:736,-1.349,4.697,8.7701,60.814,-0.0198,-0.254,-0.0956,-176.1312
16:57:16:756,-1.311,4.604,9.498,60.6351,-0.073,-0.3007,-0.1669,-176.2327
16:57:16:776,-1.3061,4.506,10.086,60.6911,-0.0996,-0.2944,-0.2244,-176.3333
16:57:16:798,-1.409,4.305,10.58,60.912,-0.1379,-0.2859,-0.2457,-176.4318
16:57:16:817,-1.634,4.295,11.003,61.0353,-0.2082,-0.272,-0.1977,-176.5266
16:57:16:837,-1.787,4.412,11.489,61.1681,-0.2241,-0.2113,-0.0764,-176.5266
16:57:16:857,-1.581,4.5611,11.463,61.1659,-0.1188,-0.1123,0.0874,-176.5266
16:57:16:876,-0.959,4.685,10.733,61.0692,-0.0358,-0.1155,0.1715,-176.5266
16:57:16:898,-0.111,4.491,10.0601,60.9023,-0.0326,-0.2241,0.0864,-176.6247
16:57:16:917,0.3881,3.9191,9.531,60.89,-0.1188,-0.3763,-0.1286,-176.7361
16:57:16:937,0.048,3.539,9.5381,60.8633,-0.106,-0.2996,-0.2595,-176.8619
16:57:16:959,-0.54,3.39,9.615,60.9025,0.0983,-0.1485,-0.2318,-176.9935
16:57:16:979,-0.4781,3.144,9.227,61.1116,0.3262,-0.2529,-0.1552,-177.1178
16:57:16:996,0.216,2.72,8.7191,61.1452,0.3686,-0.5466,-0.1552,-177.2296
16:57:17:018,0.915,2.4281,8.597,61.1716,0.275,-0.6637,-0.2382,-177.3342
16:57:17:037,1.2911,2.31,8.511,61.1134,0.1495,-0.5519,-0.3893,-177.4391
16:57:17:064,1.075,2.394,8.1161,61.0942,0.0058,-0.2975,-0.5639,-177.5448
16:57:17:078,0.194,2.6981,7.64,61.0943,-0.1485,-0.0549,-0.6894,-177.6442
16:57:17:097,-0.956,3.17,7.2281,61.0817,-0.1997,0.1632,-0.6915,-177.6442
16:57:17:117,-1.9691,3.8261,6.794,60.9677,-0.1326,0.2867,-0.5873,-177.6442
16:57:17:140,-2.465,4.415,6.356,60.8318,-0.073,0.1845,-0.4543,-177.6442
16:57:17:158,-2.601,4.877,6.2921,60.7453,-0.0804,-0.0719,-0.3403,-177.6442
16:57:17:180,-2.288,4.982,6.644,60.6755,-0.1006,-0.3189,-0.2148,-177.6442
16:57:17:199,-1.598,4.944,7.079,60.7693,-0.1092,-0.4295,-0.1211,-177.5538
16:57:17:220,-1.023,4.977,7.58,60.8386,-0.1251,-0.3508,-0.1072,-177.4555
16:57:17:243,-0.609,4.889,8.358,60.7424,-0.1262,-0.1485,-0.1393,-177.3634
16:57:17:260,-0.528,4.733,9.153,60.6086,-0.0304,0.0888,-0.1712,-177.3634
16:57:17:278,-0.8321,4.808,9.584,60.4043,0.1185,0.2346,-0.1797,-177.3634
16:57:17:300,-1.28,5.001,9.629,60.3955,0.2175,0.2644,-0.1584,-177.3634
16:57:17:319,-1.505,5.088,9.629,60.4725,0.1622,0.1622,-0.1222,-177.3634
16:57:17:342,-1.452,5.049,9.914,60.449,-0.0358,0.1165,-0.0903,-177.3634
16:57:17:358,-1.524,5.045,10.347,60.4435,-0.2731,0.275,-0.0722,-177.3634
16:57:17:378,-1.83,4.829,10.719,60.4226,-0.5158,0.5049,-0.0776,-177.3634
16:57:17:401,-2.4581,4.175,11.085,60.391,-0.7349,0.6656,-0.0998,-177.3634
16:57:17:419,-3.293,3.4721,11.703,60.5255,-0.7616,0.7337,0.0214,-177.3634
16:57:17:441,-3.5681,2.6861,11.789,60.6087,-0.4785,0.7124,0.3333,-177.3634
16:57:17:461,-3.408,2.5571,10.728,60.4408,-0.1114,0.5911,0.7121,-177.3634
16:57:17:478,-2.642,2.763,9.665,60.5795,0.2921,0.573,0.9941,-177.3634
16:57:17:503,-1.761,2.93,8.549,60.8428,0.5123,0.2676,0.9366,-177.3634
16:57:17:524,-1.2491,3.045,7.3931,61.0881,0.3729,-0.1603,0.6654,-177.3634
16:57:17:540,-1.1771,3.036,7.118,61.5911,0.0536,-0.2922,0.395,-177.3634
16:57:17:561,-1.562,3.057,7.458,61.7439,-0.2338,-0.1401,0.2332,-177.3634
16:57:17:580,-1.979,3.153,8.142,61.705,-0.3869,0.092,0.2322,-177.3634
16:57:17:599,-2.067,3.189,8.7791,61.6894,-0.3613,0.2186,0.3268,-177.3634
16:57:17:620,-1.77,3.1121,9.153,61.5242,-0.221,0.0972,0.4121,-177.3634
16:57:17:640,-1.256,3.06,9.21,61.409,-0.0571,-0.1337,0.4514,-177.3634
16:57:17:657,-0.921,3.098,9.0431,61.3285,0.1005,-0.2347,0.4674,-177.4674
16:57:17:679,-0.863,3.282,8.652,61.3025,0.2516,-0.1581,0.4983,-177.5914
16:57:17:698,-0.897,3.6341,8.2211,61.3298,0.3697,-0.0326,0.5356,-177.7337
16:57:17:721,-0.9611,3.989,7.838,61.5234,0.4272,0.0111,0.5387,-177.8907
16:57:17:741,-1.0331,4.326,7.647,61.6481,0.4283,-0.0358,0.5185,-178.0589
16:57:17:760,-0.9521,4.53,7.613,61.8136,0.4133,-0.0879,0.4791,-178.2343
16:57:17:780,-0.909,4.7,7.58,61.8841,0.4005,-0.0815,0.4014,-178.4142
16:57:17:800,-1.0039,4.913,7.7111,61.8642,0.3538,-0.1071,0.2982,-178.5985
16:57:17:820,-1.05,5.006,7.9841,61.9686,0.2548,-0.238,0.1715,-178.7847
16:57:17:841,-1.134,4.9661,8.363,61.9987,0.044,-0.4583,0.0406,-178.9697
16:57:17:859,-1.0001,4.7141,9.2891,62.0496,-0.2859,-0.6413,-0.0286,-179.1499
16:57:17:878,-0.717,4.4201,10.766,62.1837,-0.536,-0.472,-0.0329,-179.3229
16:57:17:899,-0.576,4.226,11.9321,62.4037,-0.5391,-0.0549,-0.0168,-179.4936
16:57:17:920,-0.272,3.852,12.107,62.433,-0.4509,0.0898,-0.0668,-179.6663
16:57:17:939,-0.023,3.4211,11.9951,62.6051,-0.4114,0.044,-0.1595,179.979
16:57:17:959,-0.023,2.8751,11.849,62.7961,-0.2944,0.1165,-0.2051,179.801
16:57:17:981,-0.384,2.667,11.418,62.8078,-0.0389,0.2739,-0.1425,179.6273
16:57:17:998,-0.533,2.729,10.563,62.9073,0.275,0.3303,0.0203,179.4583
16:57:18:017,0.146,2.5901,9.4811,62.8374,0.4942,0.0898,0.1247,179.2879
16:57:18:040,1.116,2.454,8.142,62.7145,0.4335,-0.2252,0.0672,179.108
16:57:18:060,1.7051,2.5211,7.3481,62.4788,0.1919,-0.2848,-0.1169,178.9145
16:57:18:077,1.5281,2.816,7.022,62.2553,-0.0613,-0.1698,-0.3479,178.7155
16:57:18:101,0.716,3.0791,6.9791,62.1711,-0.2017,0.0206,-0.5235,178.5281
16:57:18:119,-0.528,3.536,6.972,61.981,-0.1294,0.2101,-0.5457,178.3718
16:57:18:139,-1.404,4.101,6.627,61.8482,0.0983,0.2654,-0.4361,178.2589
16:57:18:158,-1.6721,4.626,6.057,61.9284,0.2952,0.1068,-0.3393,178.2589
16:57:18:179,-1.505,4.8551,5.6381,61.7888,0.3538,-0.1974,-0.369,178.2589
16:57:18:200,-1.3541,4.9301,5.499,61.7586,0.2409,-0.4253,-0.4979,178.2589
16:57:18:218,-1.4951,4.922,5.9831,61.8299,0.0089,-0.4168,-0.6203,178.2589
16:57:18:237,-1.727,4.781,7.0361,61.8663,-0.1858,-0.2252,-0.6468,178.2589
16:57:18:259,-1.9721,4.712,8.219,61.8633,-0.2646,-0.0016,-0.5873,178.3525
16:57:18:279,-2.271,4.685,9.416,61.8625,-0.2412,0.1026,-0.466,178.4657
16:57:18:299,-2.316,4.6181,10.3451,61.7523,-0.1687,0.076,-0.3106,178.5884
16:57:18:319,-2.2421,4.8,11.042,61.5734,-0.1453,-0.0337,-0.1818,178.7092
16:57:18:338,-2.024,4.97,11.657,61.61,-0.2338,-0.1581,-0.0818,178.8194
16:57:18:357,-1.7441,5.064,12.246,61.7073,-0.3699,-0.1518,0.014,178.9131
16:57:18:378,-1.4021,4.7621,12.593,61.629,-0.4837,-0.0092,0.0758,178.9131
16:57:18:399,-1.239,3.972,12.689,61.7317,-0.5328,0.142,0.0331,178.9131
16:57:18:419,-1.9451,3.285,12.4541,61.8537,-0.3561,0.3431,-0.0243,178.9131
16:57:18:440,-3.039,2.82,11.456,61.6336,0.0707,0.4506,0.0342,178.9131
16:57:18:460,-3.908,2.8181,9.6581,61.5397,0.5123,0.3293,0.2067,178.9131
16:57:18:478,-3.911,2.981,7.568,61.3795,0.6208,-0.0155,0.4206,178.9131
16:57:18:499,-3.059,2.8901,6.263,61.3108,0.2782,-0.3954,0.544,178.9131
16:57:18:529,-2.048,2.823,6.507,61.4791,-0.2529,-0.4273,0.5706,178.9131
16:57:18:538,-1.3391,2.6861,7.8911,61.6827,-0.5657,-0.122,0.5376,178.9131
16:57:18:558,-1.0901,2.622,9.067,61.659,-0.5243,0.1803,0.5026,178.9131
16:57:18:585,-0.9851,3.021,8.861,61.5935,0.1856,0.3282,0.527,178.9131
16:57:18:602,-1.0811,3.3371,7.8791,61.815,0.4122,0.1877,0.5152,178.9131
16:57:18:622,-1.158,3.603,7.17,62.0519,0.4591,-0.0198,0.5206,178.8212
16:57:18:642,-0.9371,3.74,6.7781,62.3202,0.3666,-0.1794,0.5259,178.715
16:57:18:662,-0.621,3.8621,6.852,62.3768,0.1749,-0.2262,0.4844,178.5979
16:57:18:684,-0.384,3.867,7.664,62.1865,-0.0283,-0.2816,0.3971,178.467
16:57:18:701,-0.099,3.675,8.877,61.9259,-0.1018,-0.3252,0.2929,178.3201
16:57:18:721,-0.068,3.675,9.756,61.6864,0.0015,-0.2178,0.195,178.1577
16:57:18:740,-0.363,3.8711,10.065,61.6415,0.1994,-0.0666,0.1204,177.9828
16:57:18:761,-0.47,4.068,10.007,61.5285,0.3239,-0.155,0.0566,177.8029
16:57:18:782,-0.2261,4.161,10.067,61.539,0.2526,-0.4114,-0.0253,177.6253
16:57:18:801,0.1061,3.989,10.5251,61.6247,0.0846,-0.52,-0.0903,177.4524
16:57:18:820,0.386,3.9671,11.075,61.5638,0.0036,-0.3497,-0.0828,177.2838
16:57:18:839,0.663,4.087,11.142,61.4799,0.0824,-0.0219,-0.0807,177.1192
16:57:18:859,0.905,3.891,10.4741,61.5217,0.1569,0.0302,-0.202,176.9574
16:57:18:881,0.936,3.419,9.5381,61.5588,0.0632,-0.1528,-0.4245,176.7984
16:57:18:899,0.467,2.9501,9.189,61.5992,-0.1655,-0.223,-0.6,176.646
16:57:18:920,-0.305,2.684,9.603,61.5438,-0.3124,-0.0879,-0.6043,176.5095
16:57:18:940,-0.6161,2.3891,10.137,61.2399,-0.3284,-0.0836,-0.4245,176.4004
16:57:18:959,0.024,1.865,10.4741,60.9137,-0.289,-0.3231,-0.1925,176.4004
16:57:18:979,1.073,1.695,10.544,60.6841,-0.2135,-0.437,-0.0403,176.4004
16:57:18:999,1.703,2.025,10.1801,60.6517,-0.0826,-0.3061,-0.0349,176.4004
16:57:19:018,1.547,2.717,9.2051,60.611,0.0696,-0.0879,-0.1434,176.4004
16:57:19:038,0.618,3.4571,7.9271,60.7613,0.2463,0.1387,-0.2435,176.4004
16:57:19:058,-0.365,4.056,6.7031,60.8076,0.4315,0.2442,-0.2648,176.4004
16:57:19:086,-0.9521,4.6091,5.597,60.7877,0.5314,0.1452,-0.2659,176.4004
16:57:19:098,-1.17,5.073,4.824,60.8839,0.4687,-0.0762,-0.3158,176.4004
16:57:19:116,-0.944,5.2841,4.728,60.8044,0.2388,-0.3103,-0.4319,176.4004
16:57:19:137,-0.504,5.3321,5.549,60.7364,-0.0602,-0.3732,-0.632,176.4004
16:57:19:160,-0.2621,5.2601,7.194,60.7767,-0.223,-0.0762,-0.896,176.4004
16:57:19:178,-0.399,4.92,8.774,60.717,-0.1475,0.3857,-1.1535,176.4928
16:57:19:198,-1.268,4.896,9.392,60.5479,0.0399,0.7986,-1.3078,176.6073
16:57:19:217,-2.541,5.222,9.684,60.2748,0.225,1.0018,-1.2844,176.7523
16:57:19:236,-3.5231,5.207,9.7391,60.0532,0.2878,0.8422,-1.1417,176.9406
16:57:19:256,-4.0691,5.174,9.842,59.9648,0.1994,0.5889,-0.865,177.1765
16:57:19:275,-4.385,5.124,10.091,59.5563,-0.0187,0.3644,-0.5127,177.4538
16:57:19:298,-4.296,4.982,10.5821,59.2657,-0.2816,0.275,-0.135,177.7567
16:57:19:316,-3.7121,4.451,11.154,58.881,-0.4498,0.2771,0.1662,178.0657
16:57:19:338,-3.2291,3.912,11.846,58.5752,-0.4625,0.2335,0.3748,178.3576
16:57:19:356,-2.714,3.381,12.311,58.6709,-0.1741,0.2494,0.6344,178.6148
16:57:19:377,-2.132,3.057,11.774,58.6668,0.4144,0.2835,0.8421,178.8296
16:57:19:398,-1.8851,3.3491,9.902,58.5804,0.9657,0.1324,0.876,178.9982
16:57:19:416,-1.694,3.582,7.391,58.5257,1.0561,-0.221,0.7281,179.125
16:57:19:437,-1.538,3.6581,5.636,58.3194,0.6241,-0.4305,0.495,179.2228
16:57:19:456,-1.584,3.6251,5.3531,58.3362,-0.0133,-0.2401,0.2907,179.2228
16:57:19:476,-1.9241,3.596,6.411,58.4302,-0.505,0.1259,0.1694,179.2228
16:57:19:497,-2.297,3.596,7.812,58.299,-0.6413,0.3314,0.1588,179.2228
16:57:19:517,-2.4911,3.687,8.688,58.236,-0.455,0.3037,0.2258,179.2228
16:57:19:538,-2.3501,3.723,8.693,58.0816,-0.172,0.1057,0.3109,179.2228
16:57:19:557,-1.943,3.677,8.274,57.9297,-0.0272,-0.1231,0.4067,179.2228
16:57:19:578,-1.134,3.4361,8.291,57.9712,-0.04,-0.2549,0.4801,179.2228
16:57:19:598,-0.375,3.2351,8.801,57.9488,-0.0517,-0.2315,0.4696,179.2228
16:57:19:618,-0.114,3.165,9.311,57.9716,0.044,-0.1188,0.4078,179.2228
16:57:19:639,-0.36,3.2201,9.371,58.117,0.2314,-0.056,0.3865,179.2228
16:57:19:656,-0.662,3.44,8.913,58.2232,0.4113,-0.1123,0.4451,179.2228
16:57:19:681,-0.497,3.7301,8.229,58.3716,0.4879,-0.2145,0.5163,179.1291
16:57:19:699,-0.063,4.192,7.7501,58.4482,0.4517,-0.2879,0.4727,179.0257
16:57:19:719,0.221,4.638,7.644,58.4193,0.2696,-0.472,0.2673,178.9101
16:57:19:737,0.189,4.757,8.3081,58.3624,-0.0421,-0.7201,0.0214,178.7816
16:57:19:758,0.063,4.628,9.474,58.2619,-0.3072,-0.7552,-0.1126,178.649
16:57:19:778,0.053,4.635,10.4501,58.125,-0.3943,-0.505,-0.1434,178.5242
16:57:19:801,0.5081,4.439,10.604,58.0809,-0.3816,-0.3422,-0.2179,178.4141
16:57:19:819,0.833,4.1179,10.271,58.0191,-0.4913,-0.3678,-0.4298,178.3179
16:57:19:843,0.515,3.551,10.4651,57.8219,-0.6105,-0.2358,-0.6277,178.3179
16:57:19:859,-0.408,3.29,10.848,57.6385,-0.487,0.0718,-0.6746,178.3179
16:57:19:879,-1.296,3.1751,10.6991,57.231,-0.1943,0.1984,-0.5841,178.3179
16:57:19:898,-1.545,2.9351,10.1681,57.0153,0.0078,-0.0634,-0.4074,178.3179
16:57:19:919,-0.782,2.5691,9.747,56.8611,0.0047,-0.3741,-0.2074,178.3179
16:57:19:941,0.393,2.3891,9.7391,56.8649,-0.0793,-0.3528,-0.1094,178.3179
16:57:19:959,1.07,2.358,9.675,56.8646,-0.1071,-0.1177,-0.1382,178.3179
16:57:19:979,0.8261,2.681,9.246,56.7881,-0.0016,0.1814,-0.1807,178.3179
16:57:20:000,0.153,3.225,8.399,56.9134,0.2516,0.3559,-0.1754,178.3179
16:57:20:019,-0.456,3.776,7.0841,57.0295,0.5538,0.3686,-0.1541,178.3179
16:57:20:040,-0.87,4.254,5.49,57.381,0.7241,0.2324,-0.1722,178.3179
16:57:20:060,-1.131,4.743,4.142,57.4785,0.6049,-0.0304,-0.2584,178.3179
16:57:20:081,-1.22,5.0831,3.629,57.1603,0.1845,-0.3061,-0.4,178.3179
16:57:20:104,-1.1981,5.102,4.47,56.8412,-0.3689,-0.47,-0.5394,178.4214
16:57:20:118,-1.2131,4.788,6.318,56.2218,-0.7659,-0.4231,-0.6149,178.5569
16:57:20:138,-1.3391,4.458,8.382,55.7909,-0.853,-0.271,-0.5947,178.7194
16:57:20:158,-1.521,4.3691,10.101,55.8293,-0.6222,-0.0964,-0.4883,178.9013
16:57:20:183,-1.715,4.539,10.893,56.0289,-0.2017,0.0366,-0.334,179.0948
16:57:20:202,-1.646,4.8581,10.7621,56.2085,0.0846,-0.0443,-0.1999,179.2934
16:57:20:218,-1.2011,5.0711,10.587,56.3621,0.0217,-0.2816,-0.1467,179.4921
16:57:20:237,-0.791,5.195,10.98,56.2419,-0.2295,-0.2486,-0.153,179.685
16:57:20:257,-0.6791,5.04,11.573,56.044,-0.4295,0.0653,-0.2105,179.8656
16:57:20:277,-1.05,4.3811,11.964,55.8886,-0.553,0.2197,-0.3063,-179.9682
16:57:20:297,-1.761,3.735,12.263,55.842,-0.4817,0.2399,-0.2584,-179.8118
16:57:20:316,-2.151,3.2231,11.954,55.7763,-0.0793,0.3219,-0.0232,-179.657
16:57:20:339,-2.177,3.237,10.4651,55.6724,0.4463,0.3421,0.2194,-179.5014
16:57:20:358,-1.833,3.486,8.324,55.5937,0.6124,0.0026,0.2365,-179.35
16:57:20:379,-1.6361,3.563,6.756,55.3869,0.2442,-0.4412,0.0672,-179.2053
16:57:20:398,-1.6961,3.275,6.924,55.2402,-0.338,-0.4444,-0.0412,-179.0644
16:57:20:417,-1.893,2.976,8.274,55.0913,-0.719,-0.124,-0.0307,-178.9219
16:57:20:438,-2.165,2.8871,9.708,55.0311,-0.7318,0.1176,0.0811,-178.7795
16:57:20:457,-2.115,2.8511,10.388,55.0383,-0.3912,0.2229,0.2844,-178.6436
16:57:20:488,-1.799,3.0191,10.11,55.1138,0.1111,0.2229,0.4791,-178.5213
16:57:20:505,-1.3421,3.275,9.1309,55.1091,0.4964,0.0738,0.577,-178.42
16:57:20:559,-0.806,3.371,8.075,55.1247,0.6464,-0.0836,0.5738,-178.42
16:57:20:560,-0.581,3.5,7.5731,55.1758,0.6091,-0.1539,0.5195,-178.42
16:57:20:561,-0.413,3.546,7.685,55.2175,0.524,-0.1485,0.4738,-178.42
16:57:20:578,-0.281,3.5771,8.066,55.1654,0.4708,-0.1347,0.4121,-178.42
16:57:20:608,-0.188,3.488,8.597,55.1446,0.4708,-0.122,0.2365,-178.42
16:57:20:627,-0.269,3.689,8.624,55.2346,0.4378,-0.073,0.129,-178.42
16:57:20:647,-0.506,3.912,9.0041,55.3411,0.2941,-0.1932,0.0087,-178.42
16:57:20:667,-0.6911,3.9791,9.8591,55.3746,0.1154,-0.3039,-0.036,-178.42
16:57:20:689,-0.6,4.008,10.886,55.3479,0.0473,-0.223,0.0576,-178.42
16:57:20:710,-0.152,4.245,11.372,55.2044,0.1953,0.026,0.2024,-178.42
16:57:20:725,0.3311,4.4201,10.6661,54.9915,0.3974,0.1239,0.1768,-178.42
16:57:20:745,0.62,4.1951,9.356,54.8511,0.2548,-0.2071,-0.0711,-178.42
16:57:20:766,0.438,3.551,8.858,54.5948,-0.172,-0.3411,-0.3308,-178.42
16:57:20:785,-0.4541,3.0791,9.675,54.3489,-0.4742,-0.056,-0.3861,-178.42
16:57:20:805,-1.17,2.772,10.728,54.4105,-0.5008,0.0749,-0.1519,-178.42
16:57:20:825,-0.513,2.195,11.303,54.5289,-0.3359,-0.1379,0.2258,-178.42
16:57:20:845,0.968,1.64,10.908,54.6494,-0.0953,-0.2178,0.5163,-178.42
16:57:20:865,1.808,2.028,9.711,54.8295,0.0622,-0.0315,0.6366,-178.42
16:57:20:885,1.9301,2.88,8.6501,54.6998,0.2207,0.3303,0.6429,-178.42
16:57:20:909,1.695,3.6011,7.508,54.3933,0.291,0.4463,0.4696,-178.42
16:57:20:925,0.956,4.254,6.342,54.1492,0.2644,0.457,0.2332,-178.42
16:57:20:944,0.278,4.5251,5.6261,53.945,0.2207,0.4495,0.0587,-178.42
16:57:20:964,-0.353,4.908,5.111,53.8132,0.1665,0.3974,-0.12,-178.42
16:57:20:984,-1.0039,5.3411,4.838,53.7853,0.0419,0.2932,-0.3116,-178.42
16:57:21:009,-1.4711,5.349,5.214,53.8925,-0.1635,0.0888,-0.4745,-178.42
16:57:21:024,-1.529,4.898,6.227,54.0034,-0.3444,-0.1316,-0.5404,-178.42
16:57:21:043,-1.3991,4.539,7.568,54.0614,-0.4136,-0.2443,-0.5116,-178.42
16:57:21:062,-1.1171,4.238,8.8271,54.0984,-0.3454,-0.1943,-0.4095,-178.3162
16:57:21:086,-1.1051,4.1441,9.687,54.0103,-0.1464,0.0249,-0.2424,-178.1933
16:57:21:113,-1.3541,4.592,9.8951,53.8602,0.1133,0.3282,0.0225,-178.0671
16:57:21:125,-1.2491,5.2241,9.6821,53.7955,0.2474,0.3794,0.2556,-177.9449
16:57:21:143,-0.681,5.588,9.4811,53.6332,0.1749,0.1845,0.3429,-177.8344
16:57:21:161,-0.1331,5.859,9.579,53.5541,-0.0591,0.0547,0.2588,-177.7442
16:57:21:182,0.165,5.7131,10.2251,53.3675,-0.406,-0.0219,0.047,-177.7442
16:57:21:202,0.2441,4.499,11.288,53.1518,-0.7329,-0.0613,-0.1849,-177.7442
16:57:21:221,-0.4631,3.323,12.459,53.0441,-0.7807,0.125,-0.2754,-177.7442
16:57:21:241,-1.5881,2.816,13.0601,53.0932,-0.3604,0.3623,-0.0616,-177.7442
16:57:21:261,-2.204,3.0791,12.0521,53.2747,0.3666,0.4463,0.362,-177.7442
16:57:21:281,-1.5311,3.4931,9.9161,53.143,0.7007,0.0111,0.5323,-177.7442
16:57:21:301,-0.683,3.677,7.8,52.9932,0.3271,-0.536,0.2738,-177.7442
16:57:21:322,-0.3911,3.1151,7.47,52.9085,-0.2668,-0.3007,-0.0158,-177.7442
16:57:21:340,-1.301,2.976,8.454,52.6769,-0.6137,0.2175,-0.1743,-177.7442
16:57:21:361,-2.295,3.06,9.165,52.4521,-0.604,0.5081,-0.102,-177.7442
16:57:21:380,-2.6831,3.1751,9.2921,52.4082,-0.3274,0.5932,0.1279,-177.7442
16:57:21:400,-2.4671,3.4331,8.889,52.237,0.0388,0.4623,0.378,-177.7442
16:57:21:420,-1.7471,3.6851,8.276,52.1671,0.3048,0.1313,0.5248,-177.7442
16:57:21:439,-0.8441,3.737,7.647,52.2286,0.4155,-0.1678,0.5291,-177.7442
16:57:21:460,-0.054,3.488,7.247,52.2065,0.3644,-0.3039,0.4408,-177.7442
16:57:21:480,0.312,3.246,7.436,52.1302,0.2452,-0.2784,0.3301,-177.7442
16:57:21:500,0.2321,3.141,8.073,52.2186,0.1942,-0.2454,0.2397,-177.7442
16:57:21:520,-0.044,3.086,8.504,52.3147,0.2452,-0.2582,0.1981,-177.7442
16:57:21:541,-0.207,3.096,8.427,52.4801,0.3421,-0.2432,0.2194,-177.7442
16:57:21:560,-0.219,3.4451,7.767,52.5708,0.3911,-0.1561,0.2237,-177.7442
16:57:21:579,-0.2501,3.998,7.149,52.604,0.2804,-0.1422,0.1353,-177.7442
16:57:21:600,-0.497,4.4321,7.046,52.4458,0.0132,-0.2412,-0.0232,-177.7442
16:57:21:622,-0.9281,4.53,7.8551,52.304,-0.3135,-0.4221,-0.1317,-177.7442
16:57:21:639,-0.9641,4.374,9.1,52.1952,-0.5455,-0.503,-0.0935,-177.7442
16:57:21:658,-0.3,4.262,10.1201,52.1015,-0.6626,-0.406,-0.0412,-177.7442
16:57:21:681,0.6011,3.965,10.826,52.2463,-0.785,-0.32,-0.1477,-177.7442
16:57:21:698,0.972,3.5651,11.5901,52.3635,-0.8988,-0.2219,-0.3713,-177.7442
16:57:21:721,0.683,2.9591,12.354,52.4027,-0.9085,-0.1231,-0.5585,-177.7442
16:57:21:739,-0.1091,2.574,12.945,52.5475,-0.7275,-0.0261,-0.5617,-177.7442
16:57:21:757,-0.264,2.198,13.1771,52.6686,-0.3678,-0.0337,-0.3713,-177.7442
16:57:21:776,0.374,1.8221,12.6101,52.7982,0.0408,-0.0869,-0.184,-177.7442
16:57:21:799,1.0901,1.673,11.489,52.9269,0.3367,-0.007,-0.0861,-177.7442
16:57:21:817,1.319,1.887,10.271,52.8772,0.4602,0.0962,-0.0892,-177.7442
16:57:21:839,1.2521,2.1881,9.134,52.7403,0.4346,0.1228,-0.1382,-177.7442
16:57:21:858,0.8891,2.559,8.2721,52.4232,0.4016,0.2186,-0.1882,-177.7442
16:57:21:877,0.12,3.093,7.544,52.2371,0.5038,0.4432,-0.202,-177.7442
16:57:21:898,-0.5711,3.644,6.7421,52.2523,0.7263,0.5804,-0.1892,-177.7442
16:57:21:919,-1.038,4.116,5.703,52.3363,0.8902,0.4485,-0.2085,-177.7442
16:57:21:939,-1.275,4.523,4.7351,52.4052,0.8422,0.1675,-0.2734,-177.6519
16:57:21:958,-1.311,4.7021,4.245,52.4779,0.5389,-0.1337,-0.3638,-177.5347
16:57:21:979,-1.536,4.812,4.7231,52.4349,0.076,-0.3029,-0.4213,-177.3888
16:57:21:999,-1.785,4.647,6.177,52.3049,-0.2964,-0.2507,-0.3616,-177.2123
16:57:22:018,-1.715,4.235,8.0471,52.4343,-0.4242,-0.1613,-0.2085,-177.0043
16:57:22:039,-1.308,4.053,9.531,52.4189,-0.2827,-0.1358,-0.003,-176.776
16:57:22:060,-0.813,4.475,10.271,52.3977,0.028,-0.0591,0.1631,-176.5464
16:57:22:077,-0.554,5.229,10.07,52.413,0.2261,0.0195,0.2311,-176.3336
16:57:22:098,-0.257,5.531,10.094,52.449,0.0505,-0.1453,0.2258,-176.1457
16:57:22:128,-0.138,5.753,10.958,52.7108,-0.2358,-0.2219,0.246,-175.8452
16:57:22:146,0.005,5.8301,12.0641,53.0071,-0.3795,-0.1337,0.2705,-175.7283
16:57:22:165,0.446,5.1671,12.687,53.4503,-0.4231,-0.0975,0.2013,-175.6291
16:57:22:186,0.675,4.0721,12.8831,53.651,-0.3305,0.0483,0.0289,-175.6291
16:57:22:206,-0.1421,3.3521,12.5861,53.6914,0.0238,0.3506,-0.12,-175.6291
16:57:22:227,-1.428,3.153,11.102,53.768,0.5613,0.5347,-0.1106,-175.5334
16:57:22:244,-2.0291,3.1391,8.681,53.72,0.8795,0.3794,-0.0371,-175.4195
16:57:22:263,-2.055,3.1391,6.507,53.7415,0.7241,0.0473,-0.0412,-175.2839
16:57:22:283,-1.955,3.206,5.583,53.5879,0.2718,-0.0953,-0.0861,-175.1258
16:57:22:303,-1.916,3.242,5.94,53.2411,-0.1858,-0.0027,-0.1425,-174.9504
16:57:22:324,-1.916,3.1871,6.854,52.8476,-0.4891,0.1143,-0.1584,-174.7659
16:57:22:343,-1.79,3.2081,7.8071,52.9147,-0.637,0.1282,-0.0967,-174.5824
16:57:22:363,-1.275,3.1031,8.753,53.3462,-0.6711,0.0026,0.0194,-174.4117
16:57:22:384,-0.7001,2.978,9.873,53.65,-0.571,-0.1539,0.1396,-174.2642
16:57:22:405,-0.102,2.813,10.635,53.99,-0.2518,-0.1624,0.2491,-174.1453
16:57:22:423,0.1631,2.8541,10.544,54.0857,0.2271,0.0186,0.3418,-174.0549
16:57:22:442,0.0671,3.213,9.579,54.095,0.6517,0.1335,0.4195,-174.0549
16:57:22:462,0.036,3.677,8.444,54.2656,0.8752,0.0323,0.4759,-174.0549
16:57:22:482,0.252,4.0841,7.5581,54.289,0.9369,-0.1114,0.4663,-174.0549
16:57:22:502,0.5771,4.3451,6.854,54.2949,0.8742,-0.1805,0.3578,-174.0549
16:57:22:521,0.654,4.748,6.392,54.2894,0.6826,-0.2295,0.1449,-174.0549
16:57:22:544,0.35,5.1521,6.3401,54.2085,0.3069,-0.4179,-0.1189,-174.0549
16:57:22:561,-0.1181,5.3321,7.307,54.2141,-0.206,-0.6476,-0.285,-174.0549
16:57:22:581,-0.4301,5.322,9.284,54.4357,-0.5785,-0.6222,-0.2828,-174.0549
16:57:22:601,-0.411,5.04,11.576,54.5027,-0.571,-0.3689,-0.1595,-174.0549
16:57:22:632,0.063,4.7291,12.3731,54.5833,-0.1326,0.0058,-0.0881,-174.0549
16:57:22:641,0.132,4.6211,10.865,54.6897,0.2559,0.1708,-0.235,-174.0549
16:57:22:661,-0.3101,4.338,8.9111,54.7192,0.1282,0.0399,-0.5159,-174.0549
16:57:22:681,-1.0901,3.6461,8.5541,54.764,-0.3497,-0.0996,-0.7395,-173.9399
16:57:22:700,-1.847,2.796,9.948,54.6991,-0.7861,-0.2017,-0.7501,-173.7879
16:57:22:722,-1.646,1.7621,11.9471,54.5459,-0.9989,-0.4221,-0.5351,-173.6071
16:57:22:742,-0.413,0.7421,13.307,54.3541,-0.9042,-0.4806,-0.1988,-173.4223
16:57:22:761,0.7901,0.558,13.764,54.1196,-0.4668,-0.0986,0.1396,-173.2565
16:57:22:779,1.238,1.166,12.9881,53.9601,0.1686,0.374,0.3854,-173.1206
16:57:22:802,1.4921,2.2391,11.616,53.9176,0.7762,0.5846,0.5057,-173.0165
16:57:22:819,1.758,3.3611,9.821,53.8047,1.2775,0.6187,0.3418,-173.0165
16:57:22:841,1.269,4.2401,7.422,53.6495,1.4818,0.6794,-0.0158,-173.0165
16:57:22:859,0.405,4.379,5.514,53.6329,1.4787,0.8911,-0.3596,-173.0165
16:57:22:879,-0.494,4.377,4.218,53.3899,1.3222,0.8997,-0.7,-173.0165
16:57:22:898,-1.4831,4.6091,3.344,53.0406,1.0413,0.7039,-1.03,-172.8871
16:57:22:918,-2.951,5.3081,3.1031,52.7271,0.6187,0.4804,-1.1641,-172.6766
16:57:22:939,-4.0519,5.519,3.866,52.3827,0.1462,0.2474,-1.0172,-172.3672
16:57:22:958,-4.1569,5.064,5.178,52.1062,-0.1592,0.1068,-0.6798,-171.9767
16:57:22:978,-3.9161,4.7741,6.5171,51.8119,-0.2507,0.0195,-0.3052,-171.5469
16:57:22:998,-3.396,4.755,7.4171,51.5349,-0.1581,0.0792,0.063,-171.1183
16:57:23:018,-2.8451,5.195,7.917,51.1381,-0.0155,0.0877,0.2971,-170.7185
16:57:23:038,-2.388,5.736,7.932,50.9614,-0.0113,-0.0463,0.4056,-170.3602
16:57:23:058,-1.826,5.993,8.379,51.1205,-0.1911,-0.2592,0.4599,-170.0486
16:57:23:078,-1.1861,5.981,9.1241,51.416,-0.3997,-0.3923,0.4216,-169.7898
16:57:23:100,-0.873,6.002,9.3971,51.747,-0.5699,-0.2252,0.2769,-169.583
16:57:23:119,-1.052,5.5811,9.849,51.9867,-0.7711,-0.0166,0.1375,-169.4157
16:57:23:140,-1.3991,4.7381,10.6751,51.9483,-0.7648,0.1079,0.131,-169.2737
16:57:23:157,-1.665,4.396,10.9841,51.8328,-0.4179,0.1962,0.2545,-169.1487
16:57:23:178,-1.605,4.3841,10.199,51.7644,0.0153,0.143,0.3077,-169.0381
16:57:23:197,-1.593,4.3811,8.648,51.7142,0.1994,0.0015,0.1918,-168.9374
16:57:23:218,-1.826,4.214,7.269,51.7705,0.0186,-0.1028,-0.0221,-168.8361
16:57:23:239,-2.4461,4.0511,6.945,51.9608,-0.4168,-0.0517,-0.1999,-168.7204
16:57:23:259,-2.9201,3.656,7.86,51.9531,-0.7711,0.0994,-0.2584,-168.5841
16:57:23:277,-3.2501,3.357,8.985,51.9012,-0.9094,0.1005,-0.2318,-168.4344
16:57:23:300,-3.032,2.8631,9.986,51.7662,-0.9074,-0.0964,-0.0978,-168.2833
16:57:23:318,-2.285,2.363,10.599,51.6883,-0.7839,-0.272,0.1268,-168.1466
16:57:23:337,-1.524,2.322,10.824,51.5887,-0.5412,-0.2273,0.395,-168.0382
16:57:23:357,-0.9161,2.667,10.6541,51.6266,-0.1646,0.0153,0.6441,-168.0382
16:57:23:377,-0.245,3.225,9.828,51.5957,0.2729,0.158,0.7835,-168.0382
16:57:23:396,0.414,3.735,8.502,51.5364,0.5676,0.0004,0.7633,-168.0382
16:57:23:416,0.6971,4.1711,7.395,51.5553,0.6347,-0.3284,0.6387,-168.0382
16:57:23:438,0.845,4.4681,6.665,51.6384,0.5474,-0.4806,0.5015,-168.0382
16:57:23:460,0.8381,4.559,6.4691,51.7731,0.3985,-0.3528,0.3077,-168.0382
16:57:23:478,0.309,4.5371,6.8021,51.9113,0.2548,-0.2093,0.0652,-168.1333
16:57:23:499,-0.648,4.3211,7.719,52.0652,0.109,-0.3454,-0.1445,-168.1333
16:57:23:518,-1.332,4.0031,8.801,51.9991,-0.0252,-0.6222,-0.1988,-168.1333
16:57:23:537,-1.4471,3.8741,10.0121,51.7551,-0.1794,-0.8041,-0.1232,-168.1333
16:57:23:558,-0.966,3.857,11.255,51.5415,-0.32,-0.6849,-0.019,-168.1333
16:57:23:578,-0.3461,3.9431,12.074,51.4619,-0.3146,-0.205,-0.0104,-168.1333
16:57:23:597,-0.327,3.984,11.738,51.331,-0.1943,0.1708,-0.1669,-168.1333
16:57:23:618,-1.083,3.857,10.458,51.1104,-0.2124,0.143,-0.3499,-168.1333
16:57:23:646,-2.4821,3.3851,10.668,51.1398,-0.5338,0.0323,-0.0498,-168.1333
16:57:23:666,-2.139,3.323,11.6741,51.1513,-0.2454,0.1111,0.3248,-168.1333
16:57:23:685,-0.729,3.009,11.564,51.3062,0.1771,-0.1198,0.5749,-168.1333
16:57:23:704,1.2551,2.619,10.853,51.6611,0.4241,-0.3593,0.576,-168.1333
16:57:23:724,2.682,2.552,10.146,51.7525,0.5123,-0.3539,0.312,-168.1333
16:57:23:745,2.811,2.634,9.306,51.6914,0.5134,-0.1794,-0.0371,-168.1333
16:57:23:763,2.126,2.784,8.183,51.7109,0.4782,0.077,-0.2743,-168.1333
16:57:23:783,1.173,3.077,6.972,51.5824,0.4432,0.3963,-0.3574,-168.2253
16:57:23:802,0.345,3.51,5.885,51.2459,0.4326,0.6432,-0.3915,-168.2253
16:57:23:825,-0.506,3.974,4.937,51.0328,0.4261,0.6964,-0.4617,-168.2253
16:57:23:847,-1.313,4.31,4.139,50.8117,0.3303,0.5209,-0.5149,-168.2253
16:57:23:862,-1.976,4.6661,3.9881,50.5568,0.0727,0.1792,-0.4925,-168.2253
16:57:23:882,-2.4551,5.078,4.982,50.411,-0.2518,-0.2082,-0.3638,-168.2253
16:57:23:901,-2.259,5.114,6.7661,50.0951,-0.4498,-0.4859,-0.168,-168.2253
16:57:23:922,-1.5071,4.841,8.626,49.8632,-0.4273,-0.5093,0.0109,-168.1145
16:57:23:943,-0.423,4.5941,9.974,49.8748,-0.1997,-0.2986,0.1258,-167.9927
16:57:23:962,0.165,4.788,10.3331,49.9532,0.0846,0.0356,0.0928,-167.8845
16:57:23:981,-0.3581,5.466,10.022,50.054,0.2175,0.2611,0.0044,-167.8845
16:57:24:001,-0.8891,5.7341,9.9551,50.2494,0.143,0.2005,0.0151,-167.8845
16:57:24:020,-0.9011,5.6861,10.3091,50.2589,0.0058,0.1356,0.1013,-167.8845
16:57:24:040,-0.8081,5.7101,10.616,50.0674,-0.0602,0.2813,0.179,-167.8845
16:57:24:062,-0.332,5.226,10.532,50.0143,-0.1561,0.3336,0.1503,-167.8845
16:57:24:080,-0.126,4.314,10.5581,49.8079,-0.3124,0.3017,-0.0296,-167.8845
16:57:24:100,-0.944,3.543,10.845,49.5981,-0.2805,0.4804,-0.1754,-167.8845
16:57:24:120,-2.331,3.261,10.5731,49.5932,-0.0059,0.6336,-0.1243,-167.8845
16:57:24:153,-2.951,3.371,9.3041,49.5932,0.2941,0.5283,0.1216,-167.8845
16:57:24:161,-2.391,3.44,7.6061,49.6047,0.2696,0.1601,0.2705,-167.8845
16:57:24:180,-1.694,3.44,6.7271,49.6087,-0.0996,-0.1262,0.2152,-167.8845
16:57:24:199,-1.5071,3.4361,7.254,49.5106,-0.4689,-0.0081,0.0811,-167.8845
16:57:24:219,-1.842,3.3371,8.2571,49.3504,-0.6647,0.1196,-0.0136,-167.8845
16:57:24:241,-2.043,3.134,9.1841,49.085,-0.7051,0.1122,0.0268,-167.8845
16:57:24:261,-1.725,2.801,10.0961,49.0562,-0.6157,-0.0027,0.1715,-167.8845
16:57:24:281,-1.0091,2.5901,10.587,49.1095,-0.3934,-0.0879,0.3301,-167.8845
16:57:24:300,-0.494,2.619,10.565,49.1875,-0.0645,-0.0219,0.4546,-167.8845
16:57:24:322,-0.2741,2.873,9.993,49.084,0.3239,0.0238,0.5886,-167.8845
16:57:24:339,-0.044,3.3761,8.901,48.7649,0.6538,-0.0613,0.7143,-167.8845
16:57:24:359,0.405,3.9461,7.731,48.4397,0.8251,-0.2071,0.7505,-167.8845
16:57:24:379,0.915,4.338,6.794,48.2255,0.8029,-0.3433,0.6344,-167.8845
16:57:24:398,1.1021,4.5701,6.239,48.3626,0.6432,-0.3923,0.3769,-167.9857
16:57:24:422,0.8021,4.673,6.129,48.358,0.4133,-0.3795,0.0556,-168.1151
16:57:24:441,-0.044,4.707,6.524,48.2668,0.1207,-0.4221,-0.2467,-168.2615
16:57:24:460,-1.071,4.611,7.5941,48.1459,-0.2017,-0.554,-0.4063,-168.4037
16:57:24:478,-1.4621,4.31,9.0041,47.8501,-0.4902,-0.6317,-0.3744,-168.5143
16:57:24:498,-1.3631,4.166,10.565,47.6409,-0.6476,-0.536,-0.2403,-168.5143
16:57:24:521,-0.935,4.3121,11.5331,47.4659,-0.5753,-0.2113,-0.1308,-168.5143
16:57:24:567,-0.494,4.271,11.193,47.3892,-0.4902,-0.0613,-0.1892,-168.5143
16:57:24:568,-0.54,3.986,10.544,47.2505,-0.6583,-0.1815,-0.3488,-168.5143
16:57:24:579,-0.7511,3.2561,11.2331,46.9335,-0.9287,-0.2731,-0.3776,-168.5143
16:57:24:599,-0.9731,2.8901,12.761,46.7841,-0.869,-0.1283,-0.186,-168.5143
16:57:24:618,-0.71,2.8061,13.7831,46.707,-0.3061,0.0451,0.1353,-168.5143
16:57:24:638,0.3791,2.658,12.897,46.6845,0.4495,-0.0943,0.3631,-168.5143
16:57:24:660,1.7291,2.562,10.577,46.6894,0.8507,-0.3209,0.3769,-168.5143
16:57:24:679,2.4611,2.777,8.616,46.5609,0.8242,-0.3348,0.179,-168.5143
16:57:24:699,2.378,2.916,7.4411,46.2607,0.5422,-0.2219,-0.102,-168.5143
16:57:24:718,1.671,2.921,6.957,45.9842,0.2314,0.0058,-0.3266,-168.5143
16:57:24:737,0.407,3.2201,6.9191,46.0014,0.1335,0.308,-0.4223,-168.6125
16:57:24:758,-0.7361,3.687,6.612,45.9369,0.275,0.4038,-0.3776,-168.6125
16:57:24:778,-1.256,4.161,5.736,45.8861,0.3996,0.1867,-0.2914,-168.6125
16:57:24:801,-1.253,4.554,4.932,45.7128,0.3069,-0.1411,-0.2552,-168.6125
16:57:24:820,-1.052,4.793,4.793,45.454,0.01,-0.3604,-0.2765,-168.6125
16:57:24:839,-0.918,4.925,5.8271,45.1954,-0.338,-0.3773,-0.3191,-168.6125
16:57:24:859,-0.9041,4.851,7.508,45.1437,-0.4817,-0.239,-0.3329,-168.6125
16:57:24:880,-0.9131,4.685,8.93,45.0732,-0.3997,-0.1038,-0.2914,-168.6125
16:57:24:902,-0.873,4.535,9.857,44.9336,-0.1678,0.0047,-0.202,-168.6125
16:57:24:919,-0.846,4.5731,10.034,44.9181,0.1207,0.1345,-0.0945,-168.5156
16:57:24:939,-1.038,4.997,9.4781,44.7272,0.3303,0.3165,-0.0136,-168.4187
16:57:24:958,-1.335,5.387,8.942,44.6189,0.3644,0.3612,0.0641,-168.3253
16:57:24:980,-1.2821,5.475,8.585,44.5666,0.2601,0.2932,0.1407,-168.2344
16:57:24:998,-1.0549,5.514,8.4011,44.4488,0.043,0.2952,0.1833,-168.2344
16:57:25:018,-0.5179,5.241,8.583,44.3832,-0.2975,0.2357,0.1481,-168.2344
16:57:25:039,0.386,4.0511,9.732,44.24,-0.7668,-0.0304,-0.0318,-168.2344
16:57:25:059,0.1031,2.844,11.607,44.0053,-0.9765,0.0153,-0.2296,-168.2344
16:57:25:078,-1.301,2.3681,13.278,43.8445,-0.6211,0.2878,-0.1882,-168.2344
16:57:25:101,-2.429,2.4521,12.797,43.6415,0.1398,0.4528,0.1737,-168.2344
16:57:25:118,-2.1251,2.777,10.355,43.512,0.6187,0.2984,0.5365,-168.2344
16:57:25:141,-1.2221,3.1511,7.7831,43.3035,0.3931,-0.0315,0.5642,-168.2344
16:57:25:165,-0.846,3.45,6.72,42.9519,-0.1997,0.0153,0.4121,-168.2344
16:57:25:182,-1.229,3.632,7.338,42.6534,-0.6839,0.2941,0.2386,-168.2344
16:57:25:202,-2.096,3.6941,8.559,42.4724,-0.8946,0.3293,0.1918,-168.2344
16:57:25:222,-2.6321,3.531,9.711,42.3171,-0.818,0.1814,0.3791,-168.2344
16:57:25:243,-2.52,3.512,10.611,42.401,-0.4817,0.0069,0.7366,-168.2344
16:57:25:262,-1.4351,3.495,10.764,42.4108,0.0314,-0.0996,1.0868,-168.2344
16:57:25:281,0.194,3.452,10.0721,42.348,0.5103,-0.1655,1.2336,-168.2344
16:57:25:301,1.6571,3.416,9.09,42.4812,0.8251,-0.2219,1.1048,-168.2344
16:57:25:323,2.433,3.318,8.207,42.4301,0.9466,-0.3007,0.7813,-168.3498
16:57:25:341,2.55,3.1001,7.541,42.3839,0.8826,-0.4019,0.4121,-168.5041
16:57:25:362,2.205,2.808,7.2881,42.5279,0.6922,-0.4327,0.1013,-168.681
16:57:25:386,1.5611,2.681,7.503,42.5053,0.4932,-0.371,-0.0998,-168.8604
16:57:25:402,0.951,2.669,7.872,42.4776,0.3219,-0.3209,-0.1977,-169.0247
16:57:25:420,0.723,2.715,8.0951,42.395,0.109,-0.3571,-0.2446,-169.1652
16:57:25:440,0.6011,2.9951,8.3651,42.2283,-0.1826,-0.3444,-0.2989,-169.282
16:57:25:460,0.386,3.4691,8.94,42.0917,-0.4242,-0.2071,-0.3063,-169.3756
16:57:25:483,0.35,3.7901,9.114,41.8962,-0.5562,-0.0943,-0.3041,-169.3756
16:57:25:500,0.534,3.8381,8.765,41.6606,-0.7541,-0.1464,-0.3638,-169.3756
16:57:25:519,0.474,3.785,8.765,41.4491,-1.0724,-0.1698,-0.4905,-169.3756
16:57:25:541,-0.1421,3.6821,9.881,41.178,-1.3223,-0.0517,-0.5522,-169.3756
16:57:25:560,-0.846,3.543,11.643,41.1568,-1.2192,0.1005,-0.451,-169.3756
16:57:25:581,-1.131,3.395,13.137,41.2528,-0.7318,-0.0751,-0.2489,-169.3756
16:57:25:600,-0.494,3.048,13.458,41.3133,-0.1134,-0.5167,-0.0275,-169.3756
16:57:25:620,1.188,2.423,12.792,41.354,0.2718,-0.7626,0.0661,-169.3756
16:57:25:639,2.39,2.1791,12.2651,41.141,0.408,-0.6274,-0.0573,-169.3756
16:57:25:674,2.529,2.1311,11.348,40.9071,0.5507,-0.1858,-0.2393,-169.3756
16:57:25:682,1.9061,2.2241,9.4399,40.779,0.6942,0.2729,-0.352,-169.3756
16:57:25:699,1.128,2.4851,7.3121,40.67,0.7539,0.6039,-0.4063,-169.3756
16:57:25:719,0.2321,2.885,5.648,40.6044,0.7422,0.7252,-0.4606,-169.3756
16:57:25:745,-0.5179,3.1481,4.403,40.638,0.6262,0.6091,-0.5042,-169.3756
16:57:25:759,-1.323,3.479,3.8591,40.5837,0.3761,0.3686,-0.5213,-169.3756
16:57:25:782,-1.943,3.7661,4.0481,40.4667,0.0516,0.0994,-0.4372,-169.2681
16:57:25:799,-2.149,4.1561,5.0921,40.4939,-0.254,-0.1539,-0.2754,-169.1205
16:57:25:819,-1.94,4.386,6.555,40.3187,-0.4188,-0.271,-0.0987,-168.9508
16:57:25:838,-1.536,4.52,7.977,40.2421,-0.4348,-0.2848,0.0566,-168.7809
16:57:25:860,-0.906,4.5131,9.3161,40.3196,-0.3231,-0.2338,0.1768,-168.6268
16:57:25:880,-0.351,4.688,10.1441,40.2005,-0.1145,-0.089,0.2078,-168.4991
16:57:25:899,-0.375,5.2481,10.448,40.192,0.0707,0.0792,0.1833,-168.3963
16:57:25:919,-0.255,5.6021,10.3331,40.109,0.0909,0.1387,0.1407,-168.3963
16:57:25:937,0.144,5.5811,10.4261,40.116,-0.1326,0.1526,0.047,-168.3963
16:57:25:959,0.209,5.31,11.183,39.9898,-0.4806,0.3006,-0.1041,-168.3963
16:57:25:979,-0.375,4.628,12.2891,39.9401,-0.7392,0.5325,-0.2159,-168.3963
16:57:25:999,-1.136,3.393,13.362,39.8525,-0.7509,0.7113,-0.1988,-168.3963
16:57:26:019,-1.9961,2.37,13.692,39.6822,-0.3858,0.7943,0.0001,-168.3963
16:57:26:041,-2.582,2.121,12.818,39.7734,0.2963,0.7263,0.4429,-168.3963
16:57:26:059,-2.079,2.4881,10.661,39.8459,0.8869,0.4964,0.8569,-168.3963
16:57:26:080,-1.0331,3.017,8.085,39.7525,0.9423,0.159,0.9058,-168.3963
16:57:26:099,-0.348,3.503,6.435,39.707,0.4857,-0.0113,0.7015,-168.3963
16:57:26:119,-0.1451,3.639,6.519,39.6397,-0.1305,0.092,0.4386,-168.3963
16:57:26:138,-0.389,3.531,7.977,39.5272,-0.554,0.2155,0.2354,-168.3963
16:57:26:157,-0.588,3.237,9.399,39.4935,-0.6168,0.2761,0.162,-168.3963
16:57:26:180,-0.6791,2.976,10.173,39.492,-0.4188,0.2729,0.18,-168.3963
16:57:26:198,-0.624,2.8901,10.2851,39.4182,-0.0793,0.2793,0.2844,-168.3963
16:57:26:221,-0.233,2.835,9.837,39.3968,0.2813,0.2761,0.3843,-168.3963
16:57:26:239,0.1511,2.7821,9.0161,39.363,0.5698,0.2357,0.4429,-168.3963
16:57:26:258,0.4001,2.847,8.183,39.3374,0.7752,0.2144,0.4568,-168.3963
16:57:26:279,0.539,2.99,7.47,39.3684,0.8774,0.1356,0.4099,-168.4958
16:57:26:300,0.584,3.132,6.924,39.404,0.855,-0.0358,0.3162,-168.6099
16:57:26:318,0.561,3.278,6.804,39.3901,0.7315,-0.2529,0.197,-168.7344
16:57:26:338,0.647,3.357,6.95,39.2175,0.5624,-0.4327,0.0609,-168.8632
16:57:26:357,0.654,3.5861,7.266,39.0751,0.3336,-0.5264,-0.0987,-168.9905
16:57:26:378,0.47,3.8141,7.91,38.8553,-0.0007,-0.5391,-0.2563,-169.1083
16:57:26:397,0.489,3.716,9.2081,38.7003,-0.3497,-0.4891,-0.3755,-169.2078
16:57:26:419,0.393,3.479,10.848,38.5681,-0.5189,-0.3816,-0.4894,-169.2078
16:57:26:437,-0.2021,3.555,11.679,38.3733,-0.3752,-0.1018,-0.5266,-169.2078
16:57:26:458,-0.504,3.675,10.656,38.359,-0.1858,0.0271,-0.534,-169.2078
16:57:26:477,-0.449,3.5891,9.162,38.4336,-0.3943,-0.0964,-0.6043,-169.2078
16:57:26:498,-0.674,3.4601,9.2171,38.5527,-0.7552,0.0206,-0.6394,-169.2078
16:57:26:517,-1.2581,3.51,10.539,38.6718,-0.8137,0.2494,-0.5606,-169.2078
16:57:26:537,-1.679,3.45,11.372,38.6871,-0.5275,0.2346,-0.384,-169.2078
16:57:26:567,-1.538,3.321,11.478,38.7053,-0.1848,-0.1858,-0.1616,-169.2078
16:57:26:578,-0.413,3.081,11.382,38.8575,-0.0113,-0.6721,0.0396,-169.2078
16:57:26:597,1.1711,2.93,11.3771,39.0119,0.0388,-0.7541,0.0672,-169.2078
16:57:26:618,1.784,2.9831,11.051,39.0214,0.1378,-0.3476,-0.0935,-169.2078
16:57:26:637,1.109,3.081,10.0841,38.8554,0.3484,0.1717,-0.252,-169.2078
16:57:26:658,-0.0491,3.2321,8.466,38.6677,0.5868,0.3931,-0.2999,-169.2078
16:57:26:684,-1.158,3.536,5.087,38.4988,0.7391,0.2676,-0.2669,-169.2078
16:57:26:703,-1.395,3.8381,4.2161,38.6494,0.5752,0.1537,-0.2531,-169.2078
16:57:26:720,-1.4471,4.1561,4.185,38.7702,0.3399,0.0727,-0.2435,-169.2078
16:57:26:740,-1.478,4.5131,4.707,38.783,0.127,-0.0059,-0.2498,-169.2078
16:57:26:760,-1.562,4.755,5.468,38.6491,-0.0741,-0.1379,-0.2509,-169.1087
16:57:26:780,-1.6631,4.8431,6.519,38.3647,-0.256,-0.2252,-0.217,-168.9963
16:57:26:801,-1.785,4.7621,7.68,38.3819,-0.3528,-0.1581,-0.1308,-168.874
16:57:26:820,-1.9571,4.9511,8.6861,38.5767,-0.3348,0.0377,-0.0019,-168.7466
16:57:26:839,-2.118,5.4491,9.2081,38.8306,-0.2688,0.2058,0.1173,-168.6199
16:57:26:859,-1.773,5.6,9.572,38.9641,-0.3103,0.1473,0.1673,-168.4993
16:57:26:879,-0.959,5.351,10.47,38.9999,-0.5605,-0.1433,0.113,-168.3915
16:57:26:900,-0.219,4.796,12.2681,39.1044,-0.9296,-0.4657,-0.0179,-168.3915
16:57:26:919,0.0791,3.6131,14.3171,39.2497,-1.0926,-0.3784,-0.1393,-168.3915
16:57:26:938,-0.3341,2.267,15.476,39.4741,-0.8436,0.1185,-0.12,-168.3915
16:57:26:958,-1.3511,1.647,15.095,39.5345,-0.2093,0.6942,0.1375,-168.3915
16:57:26:978,-2.108,1.736,13.2491,39.3748,0.5602,0.8933,0.5738,-168.3915
16:57:26:999,-1.857,2.2001,10.2131,39.2253,1.0263,0.6805,0.8845,-168.3915
16:57:27:018,-1.289,2.811,7.259,39.0954,0.9263,0.3239,0.9292,-168.3915
16:57:27:040,-0.885,3.3731,5.624,39.1277,0.4432,0.2409,0.8026,-168.3915
16:57:27:058,-0.818,3.6941,5.7671,39.287,-0.139,0.2537,0.5929,-168.4895
16:57:27:080,-0.942,3.728,7.206,39.5462,-0.536,0.1484,0.428,-168.6121
16:57:27:098,-0.9251,3.579,8.751,39.7598,-0.604,0.0271,0.362,-168.7533
16:57:27:119,-0.731,3.4721,9.8231,39.9688,-0.3923,0.0132,0.3641,-168.9091
16:57:27:138,-0.513,3.405,10.1201,40.1229,-0.0209,0.0685,0.4088,-169.0802
16:57:27:157,-0.078,3.428,9.5771,40.1858,0.3399,0.0846,0.4588,-169.267
16:57:27:186,0.503,3.4691,8.6981,40.2128,0.5453,-0.0038,0.4386,-169.4718
16:57:27:202,0.975,3.4601,7.982,40.1652,0.6113,-0.122,0.3333,-169.6973
16:57:27:218,1.109,3.378,7.58,40.179,0.5666,-0.2167,0.1768,-169.9452
16:57:27:238,0.8021,3.203,7.587,40.2614,0.473,-0.2518,0.0598,-170.2115
16:57:27:257,0.45,3.1601,7.74,40.3881,0.4122,-0.2219,0.0225,-170.4856
16:57:27:277,0.216,3.381,7.7261,40.7008,0.3548,-0.1986,0.0098,-170.7549
16:57:27:297,-0.0851,3.852,7.812,40.9237,0.2036,-0.2996,-0.0179,-171.0116
16:57:27:317,-0.185,4.1201,8.676,41.137,-0.0198,-0.4348,-0.0616,-171.2499
16:57:27:338,-0.296,4.116,9.9311,41.1015,-0.1368,-0.4487,-0.1243,-171.4658
16:57:27:358,-0.36,4.029,10.889,40.9236,-0.1496,-0.3647,-0.1616,-171.66
16:57:27:377,-0.3101,3.926,11.226,40.9359,-0.0741,-0.1475,-0.1988,-171.8328
16:57:27:396,-0.2981,3.812,10.802,40.9699,0.0153,0.0291,-0.2637,-171.9871
16:57:27:417,-0.485,3.785,10.1321,41.1513,0.0314,0.1111,-0.3553,-172.1251
16:57:27:437,-0.7151,3.725,9.72,41.3928,-0.0081,0.1526,-0.4202,-172.2469
16:57:27:462,-0.846,3.5411,9.4781,41.3327,-0.0815,0.158,-0.4755,-172.3501
16:57:27:477,-0.9161,3.167,9.627,41.3386,-0.2219,0.0675,-0.5127,-172.3501
16:57:27:497,-0.911,2.648,10.3121,41.3816,-0.3625,-0.0506,-0.4584,-172.3501
16:57:27:517,-0.351,2.076,10.958,41.3908,-0.3359,0.0271,-0.318,-172.3501
16:57:27:537,0.0671,1.949,10.944,41.4189,-0.1368,0.2676,-0.1807,-172.3501
16:57:27:557,-0.099,2.1401,10.412,41.5272,0.1356,0.3814,-0.0275,-172.3501
16:57:27:577,-0.035,2.327,9.1361,41.753,0.407,0.3623,0.164,-172.3501
16:57:27:596,0.003,2.8421,7.587,41.9575,0.6208,0.4005,0.2918,-172.3501
16:57:27:618,-0.2141,3.632,6.009,42.2216,0.7901,0.5559,0.3376,-172.444
16:57:27:637,-0.5689,4.446,4.4,42.4204,0.8337,0.7167,0.2971,-172.5528
16:57:27:657,-1.023,5.358,3.2681,42.2796,0.6412,0.7741,0.197,-172.6701
16:57:27:677,-1.184,6.0431,3.177,42.0263,0.2526,0.6187,0.0641,-172.7831
16:57:27:697,-0.935,6.215,4.34,41.9751,-0.205,0.1601,-0.1393,-172.8777
16:57:27:717,-0.846,5.9711,6.251,42.015,-0.4956,-0.2975,-0.3744,-172.8777
16:57:27:739,-0.9971,5.495,8.1521,42.1203,-0.5104,-0.4922,-0.5565,-172.8777
16:57:27:756,-1.5671,5.2361,9.222,42.487,-0.3295,-0.3849,-0.6054,-172.8777
16:57:27:777,-2.142,5.2841,9.545,42.4747,-0.2007,-0.0241,-0.4851,-172.8777
16:57:27:798,-2.4551,5.475,9.974,42.354,-0.2454,0.2941,-0.3095,-172.8777
16:57:27:817,-2.4551,5.4641,11.145,42.3037,-0.4103,0.1899,-0.168,-172.8777
16:57:27:837,-2.027,5.3321,12.4571,42.4918,-0.553,-0.1837,-0.0967,-172.8777
16:57:27:857,-1.6121,4.688,13.364,42.9116,-0.6445,-0.5317,-0.0881,-172.8777
16:57:27:876,-1.253,3.438,13.7351,43.4586,-0.6072,-0.5892,-0.052,-172.8777
16:57:27:896,-1.323,2.274,13.1801,43.9093,-0.3029,-0.1635,0.0491,-172.8777
16:57:27:916,-2.414,2.1191,11.1761,44.0795,0.2271,0.5602,0.2738,-172.8777
16:57:27:936,-3.327,2.7341,8.403,44.2047,0.5538,0.8997,0.5727,-172.8777
16:57:27:959,-3.305,3.285,6.407,44.3549,0.3794,0.4995,0.7739,-172.8777
16:57:27:977,-2.4791,3.443,6.0551,44.4296,-0.0582,-0.1635,0.8271,-172.8777
16:57:27:999,-1.397,3.4091,7.058,44.5268,-0.4455,-0.6009,0.6993,-172.8777
16:57:28:018,-0.731,3.146,8.394,44.6649,-0.6604,-0.6519,0.4653,-172.8777
16:57:28:039,-0.437,2.768,9.521,44.7784,-0.6891,-0.3965,0.2397,-172.9757
16:57:28:058,-0.521,2.574,10.106,45.1125,-0.5369,-0.0411,0.1034,-173.1053
16:57:28:080,-0.547,2.4971,9.888,45.482,-0.3146,0.1228,0.0587,-173.2538
16:57:28:099,-0.729,2.459,9.545,45.715,-0.1326,0.1196,0.0693,-173.4105
16:57:28:120,-0.803,2.294,9.414,46.0605,0.0962,0.0664,0.1811,-173.5705
16:57:28:139,-0.516,2.418,8.837,46.276,0.3911,0.0302,0.3088,-173.7319
16:57:28:159,-0.207,2.76,7.8311,46.4069,0.5911,-0.0272,0.3472,-173.8986
16:57:28:179,0,3.1391,6.8591,46.5744,0.6102,-0.073,0.3227,-174.0751
16:57:28:204,-0.0491,3.498,6.3131,46.8968,0.4984,-0.0474,0.2695,-174.2618
16:57:28:218,-0.2051,3.8,6.2441,47.1536,0.3772,-0.0187,0.2194,-174.4561
16:57:28:238,-0.339,4.1951,6.399,47.4322,0.2516,-0.1262,0.1279,-174.6515
16:57:28:259,-0.581,4.6061,6.732,47.6022,0.0058,-0.4615,-0.019,-174.8417
16:57:28:278,-0.581,4.5701,7.853,47.5533,-0.4029,-0.8445,-0.168,-175.0195
16:57:28:299,-0.243,4.0961,9.644,47.6788,-0.869,-1.1436,-0.3212,-175.1773
16:57:28:318,0.1391,3.8141,12.1451,47.9823,-1.2936,-1.2341,-0.4458,-175.3147
16:57:28:339,0.3071,3.3851,14.5061,48.4217,-1.3458,-0.8275,-0.5532,-175.4321
16:57:28:358,-0.221,2.7461,15.174,48.9853,-1.0329,-0.1453,-0.5969,-175.5275
16:57:28:380,-1.457,2.5691,14.451,49.3355,-0.6541,0.3325,-0.4669,-175.5275
16:57:28:401,-2.225,2.471,13.505,49.4879,-0.289,0.474,-0.1434,-175.5275
16:57:28:419,-2.0411,2.574,12.842,49.3985,0.1686,0.3282,0.2163,-175.5275
16:57:28:439,-0.9131,2.385,11.772,49.2832,0.6475,-0.0411,0.4301,-175.5275
16:57:28:458,0.513,2.0951,10.161,49.3923,0.9263,-0.3656,0.4705,-175.5275
16:57:28:479,1.578,2.114,8.717,49.7828,0.9295,-0.3849,0.3514,-175.5275
16:57:28:498,2.069,2.2819,7.58,50.2518,0.7454,-0.1974,0.1119,-175.5275
16:57:28:518,1.935,2.294,6.7181,50.8285,0.4315,0.0377,-0.1733,-175.6396
16:57:28:537,1.173,2.262,6.438,51.2301,0.1622,0.3325,-0.3701,-175.767
16:57:28:558,0.1061,2.492,6.4091,51.4871,0.1504,0.623,-0.4298,-175.8934
16:57:28:578,-0.722,2.832,5.789,51.5669,0.3495,0.7667,-0.4,-176.001
16:57:28:598,-1.193,3.2321,4.68,51.7795,0.4782,0.7124,-0.3818,-176.001
16:57:28:618,-1.421,3.642,3.8831,52.0642,0.3868,0.4984,-0.4137,-176.001
16:57:28:638,-1.512,3.876,3.689,52.2349,0.0653,0.1526,-0.484,-176.001
16:57:28:660,-1.6511,3.9071,4.6061,52.3717,-0.4125,-0.2219,-0.5192,-176.001
16:57:28:677,-1.6121,3.6581,6.689,52.4486,-0.7946,-0.4466,-0.466,-176.001
16:57:28:710,-1.617,3.795,10.74,52.4094,-0.7253,-0.1347,-0.153,-176.001
16:57:28:740,-1.6361,4.4651,11.42,52.4058,-0.4848,0.0175,0.0747,-176.001
16:57:28:757,-1.0571,4.989,11.657,52.6323,-0.4359,-0.0932,0.2332,-176.001
16:57:28:776,-0.2411,5.267,12.315,52.878,-0.602,-0.3178,0.2397,-176.001
16:57:28:796,-0.116,5.5091,13.436,53.1705,-0.7158,-0.2859,0.1045,-176.001
16:57:28:816,-0.528,5.025,14.396,53.6366,-0.6445,-0.1177,-0.0115,-176.001
16:57:28:836,-0.959,3.795,14.6951,54.112,-0.4071,0.0419,-0.0062,-176.001
16:57:28:856,-1.3751,2.7371,14.384,54.3477,0.0536,0.2537,0.131,-176.001
16:57:28:875,-1.938,2.361,12.821,54.5001,0.6549,0.4113,0.3301,-176.001
16:57:28:898,-2.295,2.658,10.307,54.7757,1.0051,0.3506,0.5078,-176.001
16:57:28:917,-2.0771,2.8421,8.018,54.8853,0.9156,0.1473,0.5525,-176.001
16:57:28:934,-1.802,2.868,6.785,55.0381,0.5347,0.0206,0.4748,-176.001
16:57:28:954,-1.629,2.784,6.723,55.4446,0.0898,0.0217,0.3461,-176.001
16:57:28:975,-1.476,2.394,7.3571,55.7299,-0.2571,0.0685,0.2141,-176.001
16:57:28:994,-1.509,2.0951,8.0389,56.0644,-0.4188,0.2036,0.1523,-176.001
16:57:29:013,-1.737,2.085,8.715,56.5091,-0.3571,0.3527,0.213,-176.001
16:57:29:033,-1.557,1.9781,8.913,56.6439,-0.1028,0.3495,0.3801,-176.001
16:57:29:052,-0.9641,1.899,8.3771,56.826,0.1739,0.2984,0.5387,-176.0914
16:57:29:073,-0.2141,1.899,7.7861,56.9412,0.3186,0.1665,0.6216,-176.2079
16:57:29:093,0.47,1.863,7.352,57.0174,0.3314,0.0334,0.5919,-176.3562
16:57:29:113,0.7451,1.937,7.302,57.3487,0.2835,-0.0613,0.4855,-176.5358
16:57:29:133,0.491,1.913,7.484,57.5798,0.2452,-0.1188,0.4206,-176.7359
16:57:29:153,0.189,2.057,7.611,57.688,0.2505,-0.1518,0.4716,-176.9444
16:57:29:173,0.213,2.6021,7.395,57.828,0.2771,-0.1401,0.5323,-177.1555
16:57:29:192,0.438,3.215,7.0751,57.8231,0.1899,-0.1815,0.4801,-177.3686
16:57:29:214,0.587,3.677,7.137,57.9198,-0.0858,-0.3784,0.294,-177.5797
16:57:29:232,0.458,3.773,8.0921,58.2432,-0.5402,-0.7051,0.0854,-177.7796
16:57:29:252,0.2111,3.582,9.9281,58.661,-0.9574,-0.8775,-0.0168,-177.9573
16:57:29:271,0.264,3.476,12.1451,59.157,-1.1649,-0.7967,0.03,-178.109
16:57:29:291,1.1021,3.2081,13.704,59.5447,-1.1745,-0.6189,0.0524,-178.2404
16:57:29:311,1.928,2.756,14.3981,59.646,-1.0904,-0.4785,-0.1743,-178.3575
16:57:29:333,1.5971,2.078,14.4461,59.9379,-0.9307,-0.2401,-0.5159,-178.4549
16:57:29:351,0.182,1.6691,14.1971,60.2428,-0.6359,0.0644,-0.6766,-178.4549
16:57:29:370,-1.0901,1.3841,13.572,60.6683,-0.19,0.2005,-0.5468,-178.4549
16:57:29:391,-1.2941,1.1681,12.4181,60.9997,0.2569,0.1547,-0.2074,-178.4549
16:57:29:411,-0.315,1.2641,11.181,60.9438,0.6219,0.1441,0.1268,-178.4549
16:57:29:433,1.0301,1.532,9.926,60.9343,0.9019,0.1526,0.2386,-178.4549
16:57:29:450,2.0021,1.7621,8.367,60.9798,1.0189,0.0685,0.0938,-178.4549
16:57:29:470,2.2481,1.8941,6.663,61.0895,0.8954,0.0026,-0.202,-178.4549
16:57:29:491,1.5731,2.033,5.3531,61.1865,0.6262,0.1686,-0.4883,-178.4549
16:57:29:510,0.2921,2.2391,4.5971,61.1915,0.3868,0.5049,-0.6436,-178.4549
16:57:29:531,-0.918,2.466,4.0601,61.0694,0.2122,0.7178,-0.6553,-178.4549
16:57:29:550,-1.737,2.792,3.72,60.8168,0.0217,0.6848,-0.5681,-178.4549
16:57:29:569,-2.1251,3.2231,3.95,60.6359,-0.2295,0.3623,-0.4532,-178.4549
16:57:29:589,-2.1799,3.5171,4.7501,60.3873,-0.5295,-0.1592,-0.3158,-178.3515
16:57:29:611,-1.5911,3.4841,6.27,60.2625,-0.8232,-0.6168,-0.1786,-178.2389
16:57:29:631,-0.851,3.402,8.3531,60.3265,-0.9808,-0.7466,-0.0903,-178.1442
16:57:29:648,-0.3221,3.294,10.4771,60.5722,-0.9287,-0.5455,-0.0084,-178.1442
16:57:29:668,0.0701,3.378,12.2291,60.7102,-0.6839,-0.2188,0.0906,-178.1442
16:57:29:689,0.2321,3.812,13.211,60.8192,-0.3604,0.0058,0.1907,-178.1442
16:57:29:720,0.5771,4.197,13.161,60.9385,-0.1603,0.0877,0.2322,-178.1442
16:57:29:734,0.74,4.604,12.8021,61.0302,-0.1453,0.1962,0.1343,-178.1442
16:57:29:748,0.812,4.4681,12.8351,61.087,-0.2784,0.2292,-0.0551,-178.1442
16:57:29:768,0.63,3.438,13.467,61.2072,-0.4168,0.1111,-0.2828,-178.1442
16:57:29:788,-0.1181,2.385,14.058,61.1648,-0.3263,0.1856,-0.3957,-178.1442
16:57:29:810,-1.296,1.767,14.114,61.0079,0.0653,0.3464,-0.3266,-178.1442
16:57:29:831,-2.1971,1.5011,12.9671,60.8299,0.5985,0.3197,-0.102,-178.1442
16:57:29:849,-2.369,1.578,10.68,60.5881,0.888,0.0952,0.1555,-178.1442
16:57:29:867,-1.964,1.7,8.801,60.2536,0.7837,-0.0975,0.3066,-178.1442
16:57:29:887,-1.512,1.851,7.977,59.9291,0.5134,-0.0815,0.3333,-178.1442
16:57:29:906,-1.208,1.827,8.0059,59.5618,0.2537,-0.0219,0.2822,-178.1442
16:57:29:927,-1.136,1.7381,8.4011,59.1947,0.1048,0.0186,0.2269,-178.1442
16:57:29:948,-1.0331,1.628,8.724,58.9043,0.109,0.0622,0.2343,-178.1442
16:57:29:966,-0.794,1.602,8.8511,58.7038,0.2005,0.044,0.2929,-178.1442
16:57:29:986,-0.2021,1.3931,8.8061,58.4136,0.325,0.0078,0.3556,-178.1442
16:57:30:006,0.3761,1.262,8.612,58.2402,0.4612,0.0399,0.3663,-178.1442
16:57:30:026,0.5891,1.2551,8.284,58.226,0.6176,0.1409,0.3418,-178.1442
16:57:30:048,0.537,1.425,7.709,58.0846,0.7901,0.2027,0.3311,-178.1442
16:57:30:065,0.455,1.805,6.917,58.0713,0.8837,0.1068,0.3131,-178.1442
16:57:30:085,0.5681,2.217,6.0911,57.9395,0.806,-0.0741,0.261,-178.1442
16:57:30:105,0.702,2.7251,5.5451,57.8317,0.5283,-0.2252,0.147,-178.1442
16:57:30:125,0.7451,3.3281,5.679,57.7498,0.1015,-0.3029,-0.0253,-178.1442
16:57:30:148,0.783,3.3881,6.672,57.7374,-0.4008,-0.3752,-0.2563,-178.1442
16:57:30:165,0.491,3.1961,8.449,57.8841,-0.8169,-0.4093,-0.4553,-178.1442
16:57:30:185,-0.0851,2.988,10.4771,57.8484,-1.0286,-0.3604,-0.5266,-178.1442
16:57:30:204,-0.4271,3.158,11.904,57.8863,-0.9393,-0.1624,-0.418,-178.1442
16:57:30:226,-0.078,3.498,11.9471,57.828,-0.7392,-0.0804,-0.384,-178.1442
16:57:30:246,0.3,3.773,11.456,57.6451,-0.8403,-0.3444,-0.5181,-178.1442
16:57:30:264,0.704,2.969,12.117,57.5302,-1.1521,-0.4817,-0.7501,-178.1442
16:57:30:285,-0.068,2.27,13.6751,57.2295,-1.1734,-0.1422,-0.8533,-178.0494
16:57:30:304,-1.253,1.8341,15.066,57.0094,-0.7403,0.209,-0.6937,-177.9272
16:57:30:324,-1.749,1.448,14.961,56.7857,-0.0166,0.2377,-0.2947,-177.7868
16:57:30:346,-1.086,1.47,13.661,56.5347,0.6496,0.1398,0.1748,-177.6455
16:57:30:363,0.584,1.554,12.2651,56.3144,1.0828,-0.0038,0.4312,-177.5204
16:57:30:383,2.076,1.575,10.7261,56.0487,1.3743,-0.0624,0.3769,-177.4201
16:57:30:403,2.579,1.614,8.758,55.9063,1.5361,0.0249,0.1332,-177.4201
16:57:30:426,2.1221,1.683,6.462,55.8493,1.5777,0.2409,-0.1414,-177.4201
16:57:30:443,1.152,1.851,4.235,55.6484,1.4637,0.4899,-0.3596,-177.4201
16:57:30:462,0.0701,2.102,2.313,55.4341,1.1689,0.6677,-0.4979,-177.4201
16:57:30:482,-0.8321,2.397,1.151,55.1601,0.656,0.7209,-0.5734,-177.3091
16:57:30:503,-1.6361,2.612,1.2521,54.933,-0.0358,0.5624,-0.5958,-177.1274
16:57:30:523,-2.228,2.681,2.796,54.8155,-0.7264,0.2292,-0.5042,-176.8593
16:57:30:543,-2.237,2.717,5.202,54.6177,-1.1905,-0.1155,-0.3106,-176.5364
16:57:30:562,-1.8971,2.904,7.676,54.4514,-1.3075,-0.2859,-0.1137,-176.2117
16:57:30:586,-1.665,3.258,9.2291,54.3581,-1.1308,-0.1358,0.0619,-175.9144
16:57:30:601,-1.4381,3.8471,9.993,54.2588,-0.9435,0.061,0.2024,-175.6525
16:57:30:621,-1.181,4.6301,10.7381,54.2636,-0.917,0.1026,0.2727,-175.4281
16:57:30:642,-0.806,5.0351,11.9591,54.2125,-1.0192,0.0291,0.2556,-175.2398
16:57:30:663,-0.7241,4.932,13.4531,54.413,-1.067,0.0909,0.1513,-175.0834
16:57:30:681,-0.9971,4.3331,15.114,54.5809,-0.9669,0.1335,0.1056,-174.9495
16:57:30:701,-0.683,3.0071,16.434,54.5878,-0.637,0.0111,0.1353,-174.8322
16:57:30:733,-0.296,1.875,16.829,54.512,-0.1337,-0.1678,0.18,-174.7309
16:57:30:747,-0.399,1.566,16.003,54.1414,0.5294,-0.0975,0.2215,-174.7309
16:57:30:762,-0.9881,1.899,13.589,53.7726,1.136,0.0186,0.2747,-174.7309
16:57:30:781,-1.038,2.102,10.4741,53.6841,1.3276,-0.0337,0.3268,-174.7309
16:57:30:800,-0.746,2.423,8.0441,53.4555,1.0561,-0.157,0.2769,-174.7309
16:57:30:819,-0.4031,2.483,6.7631,53.2716,0.573,-0.1092,0.1108,-174.7309
16:57:30:840,-0.344,2.186,6.5381,53.0052,0.1057,0.0781,-0.118,-174.6402
16:57:30:861,-0.9971,1.913,6.984,52.8672,-0.1763,0.2771,-0.2702,-174.5404
16:57:30:879,-1.751,1.724,7.3211,52.5883,-0.2273,0.3729,-0.2563,-174.423
16:57:30:899,-2.1941,1.5011,7.4651,52.2086,-0.1613,0.3208,-0.0956,-174.2889
16:57:30:919,-2.1251,1.3361,7.592,51.9163,-0.0378,0.1771,0.1588,-174.1485
16:57:30:941,-1.6001,1.1921,7.5731,51.7914,0.1228,0.0004,0.3982,-174.0164
16:57:30:960,-0.9281,1.259,7.4,51.7242,0.2324,-0.1687,0.5664,-173.9042
16:57:30:979,-0.245,1.389,7.374,51.7764,0.2633,-0.2848,0.6355,-173.9042
16:57:30:999,0.221,1.6571,7.482,51.9341,0.2622,-0.3114,0.6196,-173.9042
16:57:31:018,0.3161,2.1311,7.604,51.6824,0.2537,-0.3007,0.5749,-173.9042
16:57:31:039,0.426,2.586,7.685,51.4506,0.2058,-0.3369,0.5237,-173.9042
16:57:31:058,0.7421,3.065,7.788,51.3292,0.0866,-0.3741,0.395,-173.9042
16:57:31:084,0.8891,3.6341,8.159,51.2525,-0.1071,-0.4125,0.1631,-173.9042
16:57:31:098,0.932,4.013,8.93,51.3493,-0.388,-0.4796,-0.1265,-173.9042
16:57:31:118,0.96,4.008,10.268,51.521,-0.7296,-0.4753,-0.3968,-173.9042
16:57:31:138,1.013,3.723,11.9081,51.6009,-0.9851,-0.3593,-0.6277,-173.9042
16:57:31:159,0.7811,3.165,13.1441,51.4254,-1.0893,-0.188,-0.8352,-173.9042
16:57:31:178,0.096,2.619,14.183,51.2348,-1.0681,-0.056,-0.9853,-173.9042
16:57:31:198,-0.731,1.956,14.961,51.0613,-0.8519,0.0749,-1.0161,-173.7801
16:57:31:218,-1.694,1.3481,15.023,50.9806,-0.3795,0.2271,-0.8906,-173.6252
16:57:31:239,-2.4,0.9701,14.2571,50.8348,0.1515,0.1398,-0.5852,-173.4484
16:57:31:257,-2.2181,0.824,13.113,50.5807,0.4921,-0.1145,-0.1499,-173.2648
16:57:31:278,-0.9281,0.824,12.5021,50.2513,0.705,-0.1635,0.2365,-173.093
16:57:31:299,0.5771,0.876,11.9801,49.9101,0.9434,-0.1028,0.4269,-172.9462
16:57:31:317,1.695,1.029,10.944,49.8722,1.2009,-0.0741,0.4503,-172.8284
16:57:31:340,2.222,1.2071,9.1601,49.7716,1.4552,0.0323,0.3461,-172.7375
16:57:31:360,2.04,1.463,6.818,49.6427,1.6138,0.2366,0.1662,-172.7375
16:57:31:378,1.377,1.815,4.3811,49.6877,1.5989,0.4697,-0.0232,-172.7375
16:57:31:399,0.6491,2.2151,2.277,49.5012,1.3669,0.6538,-0.1977,-172.7375
16:57:31:417,-0.128,2.6501,0.591,49.3924,0.8816,0.7528,-0.3681,-172.7375
16:57:31:440,-0.7121,2.93,-0.294,49.1596,0.1825,0.8954,-0.5266,-172.6414
16:57:31:459,-1.878,3.273,-0.093,48.8312,-0.604,1.0285,-0.6586,-172.4824
16:57:31:478,-3.008,3.2681,1.2161,48.4829,-1.4033,0.9731,-0.5787,-172.2085
16:57:31:498,-2.994,2.775,4.166,48.1776,-2.0684,0.5103,-0.3807,-171.837
16:57:31:518,-2.3261,2.325,8.528,48.054,-2.2664,-0.3316,-0.2382,-171.46
16:57:31:538,-1.679,2.3201,11.7221,48.061,-1.8684,-0.9956,-0.1871,-171.1342
16:57:31:558,-1.823,2.7461,13.098,48.2136,-1.3021,-0.9509,-0.0998,-170.8578
16:57:31:578,-1.952,3.086,13.371,48.4656,-1.0968,-0.4922,0.1002,-170.6193
16:57:31:600,-1.866,3.246,14.1161,48.6248,-1.2979,-0.0209,0.3109,-170.4173
16:57:31:618,-1.17,2.655,15.998,48.6937,-1.4948,0.1632,0.462,-170.2552
16:57:31:637,-0.308,1.587,17.9111,48.6379,-1.2936,0.0898,0.4471,-170.1332
16:57:31:657,-0.183,0.74,18.131,48.426,-0.5785,0.1037,0.3652,-170.0417
16:57:31:678,-0.885,0.4841,16.029,48.3368,0.4272,0.3772,0.4195,-170.0417
16:57:31:699,-1.6241,0.903,12.236,48.3957,1.2647,0.5921,0.6164,-170.0417
16:57:31:718,-1.77,1.626,8.5451,48.4076,1.4915,0.4102,0.6951,-170.0417
16:57:31:760,-1.0451,2.339,5.475,48.291,0.2665,-0.2933,0.3684,-170.0417
16:57:31:776,-0.722,1.863,6.756,48.1961,-0.4348,-0.271,0.0693,-170.0417
16:57:31:793,-1.287,1.319,8.693,47.8346,-0.802,-0.0964,-0.1647,-170.0417
16:57:31:813,-2.034,0.711,10.431,47.4344,-0.7924,0.0345,-0.1712,-170.0417
16:57:31:832,-2.34,0.1751,11.324,47.0759,-0.503,0.109,0.0044,-170.0417
16:57:31:852,-2.235,-0.1691,11.499,46.963,-0.0804,0.0846,0.3174,-170.0417
16:57:31:872,-1.608,-0.1361,10.7831,46.8221,0.392,0.1324,0.6951,-170.0417
16:57:31:892,-0.633,0.1481,9.677,46.7465,0.7986,0.2335,0.9357,-170.0417
16:57:31:912,0.096,0.675,8.351,46.7423,1.0636,0.2452,0.9867,-170.0417
16:57:31:932,0.632,1.2881,7.094,46.5403,1.1487,0.1526,0.9036,-170.0417
16:57:31:952,0.929,1.9061,5.99,46.3839,1.0263,0.0069,0.7206,-170.1544
16:57:31:972,0.891,2.55,5.4821,46.4632,0.7241,-0.1401,0.4833,-170.2879
16:57:31:991,0.714,2.9741,5.724,46.1656,0.3197,-0.2625,0.2365,-170.4317
16:57:32:012,0.362,3.2081,6.476,46.0321,-0.1326,-0.3411,0.014,-170.5729
16:57:32:031,-0.056,3.275,7.757,45.8019,-0.5636,-0.3402,-0.1456,-170.6996
16:57:32:054,-0.312,3.144,9.4069,45.4104,-0.9404,-0.3369,-0.2424,-170.8063
16:57:32:075,0.048,2.684,11.513,45.2544,-1.2404,-0.3901,-0.3457,-170.8063
16:57:32:092,0.347,2.109,13.137,45.0248,-1.3735,-0.3348,-0.5457,-170.8063
16:57:32:111,-0.1931,1.343,14.2091,44.8725,-1.4096,-0.1783,-0.7927,-170.8063
16:57:32:131,-1.2821,0.5,14.973,44.8264,-1.232,0.0653,-0.865,-170.8063
16:57:32:151,-2.5271,0.2539,15.105,44.7651,-0.6572,0.4421,-0.6713,-170.8063
16:57:32:171,-3.1571,0.2351,14.2211,44.686,0.1441,0.5954,-0.2765,-170.8063
16:57:32:190,-2.685,0.306,12.5021,44.3906,0.7391,0.2644,0.0556,-170.8063
16:57:32:211,-1.5551,0.443,11.03,44.1458,0.8837,-0.2007,0.1992,-170.8063
16:57:32:232,-0.1931,0.479,10.733,43.8912,0.8134,-0.4295,0.1896,-170.8063
16:57:32:251,0.8891,0.35,10.7381,43.6664,0.7773,-0.4231,0.0385,-170.8063
16:57:32:273,1.1231,0.203,10.2491,43.5059,0.8486,-0.1592,-0.1232,-170.8063
16:57:32:292,0.606,0.354,8.913,43.271,1.0423,0.3037,-0.1595,-170.8063
16:57:32:308,-0.02,0.711,7.043,43.1398,1.2636,0.7007,-0.0828,-170.8063
16:57:32:329,-0.3941,1.31,4.9961,42.8689,1.3914,0.8795,0.0034,-170.8063
16:57:32:349,-0.648,2.0951,3.1481,42.759,1.2647,0.7932,-0.0008,-170.8063
16:57:32:372,-1.059,2.94,1.7831,42.637,0.8422,0.5687,-0.085,-170.8063
16:57:32:391,-1.656,3.651,1.079,42.2027,0.1686,0.3165,-0.151,-170.8063
16:57:32:408,-2.1701,3.9101,1.52,41.8035,-0.6732,0.1228,-0.0978,-170.8063
16:57:32:432,-1.845,3.476,3.708,41.3927,-1.4,-0.0102,0.0491,-170.8063
16:57:32:447,-1.3781,3.225,6.759,41.0893,-1.715,-0.0698,0.1013,-170.8063
16:57:32:470,-1.598,3.519,9.8261,41.2227,-1.6449,-0.139,0.1013,-170.8063
16:57:32:492,-1.773,3.306,12.236,41.4334,-1.3788,-0.2145,0.1077,-170.8063
16:57:32:509,-2.115,2.808,14.463,41.5786,-1.2372,-0.4615,0.1854,-170.9158
16:57:32:528,-1.943,1.958,17.169,41.8723,-1.1692,-0.803,0.3684,-171.0442
16:57:32:547,-0.705,0.7541,19.103,41.9595,-0.7871,-0.8328,0.5248,-171.195
16:57:32:568,0.285,-0.0851,18.909,42.027,-0.1114,-0.4199,0.5408,-171.3679
16:57:32:601,0.12,-0.1361,17.097,42.0304,0.6102,0.209,0.5217,-171.5561
16:57:32:607,-0.7121,0.333,14.0921,41.7477,1.2573,0.6773,0.5408,-171.7532
16:57:32:626,-1.2101,0.8261,10.833,41.6153,1.6096,0.7039,0.5387,-171.954
16:57:32:647,-1.433,1.4801,7.896,41.5919,1.4744,0.2963,0.4386,-172.1542
16:57:32:666,-1.287,1.961,6.222,41.5128,0.9785,-0.1103,0.2822,-172.3499
16:57:32:688,-0.8651,1.911,6.002,41.63,0.3868,-0.2751,0.0428,-172.5392
16:57:32:706,-0.818,1.542,6.735,41.5363,-0.0432,-0.1368,-0.2254,-172.722
16:57:32:726,-1.3991,1.401,7.4741,41.169,-0.1752,0.1708,-0.3776,-172.8932
16:57:32:759,-1.991,1.266,7.7621,40.8684,-0.106,0.3974,-0.3829,-173.0474
16:57:32:772,-2.28,1.0031,7.623,40.5242,0.0334,0.4432,-0.2637,-173.1869
16:57:32:791,-2.2781,0.84,7.2971,40.45,0.1015,0.3048,-0.0711,-173.3207
16:57:32:807,-2.127,0.7901,7.2371,40.3844,0.0824,0.1398,0.131,-173.4585
16:57:32:826,-1.833,0.759,7.508,40.5626,0.0962,0.0004,0.3237,-173.6099
16:57:32:845,-1.385,0.9311,7.68,40.6868,0.1484,-0.0943,0.4791,-173.7816
16:57:32:867,-0.8561,1.343,7.6301,40.7934,0.1708,-0.1071,0.5345,-173.9762
16:57:32:886,-0.662,1.9391,7.532,40.6871,0.0877,-0.1198,0.5089,-174.1921
16:57:32:906,-0.4991,2.313,7.575,40.6466,-0.0901,-0.0698,0.4344,-174.4245
16:57:32:924,-0.609,2.6771,8.051,40.7065,-0.2762,-0.0092,0.3279,-174.668
16:57:32:944,-0.813,3.024,8.9471,40.7413,-0.437,-0.1092,0.2087,-174.9164
16:57:32:965,-1.0091,3.153,10.1681,40.8243,-0.5849,-0.2859,0.1066,-175.1638
16:57:32:985,-0.897,3.024,11.4971,40.802,-0.7008,-0.3721,0.0534,-175.4118
16:57:33:005,-0.351,2.9111,12.95,40.6468,-0.7648,-0.3816,-0.0084,-175.6646
16:57:33:024,0.443,2.636,14.0681,40.6544,-0.6923,-0.3018,-0.1871,-175.9201
16:57:33:044,0.5681,2.169,14.288,40.7773,-0.5796,-0.1655,-0.5244,-176.169
16:57:33:065,-0.5111,1.4651,14.1611,40.782,-0.4583,0.0727,-0.7682,-176.397
16:57:33:086,-1.9601,0.996,13.9391,40.7657,-0.1613,0.3708,-0.7107,-176.5949
16:57:33:103,-2.5991,0.4841,13.343,40.7171,0.2644,0.3814,-0.4415,-176.7663
16:57:33:125,-2.573,0.3281,12.335,40.7287,0.6198,0.0962,-0.0945,-176.9225
16:57:33:143,-1.596,0.414,11.4251,40.7188,0.8657,-0.1603,0.2215,-177.0759
16:57:33:163,-0.233,0.6011,10.5011,40.6213,1.0625,-0.2912,0.3439,-177.2359
16:57:33:185,0.953,0.7781,9.299,40.481,1.1242,-0.3508,0.2812,-177.4062
16:57:33:202,1.65,0.927,8.0201,40.2068,1.0869,-0.1794,0.0778,-177.5861
16:57:33:222,1.334,1.202,6.68,40.0141,1.0743,0.2335,-0.1829,-177.7696
16:57:33:242,0.4001,1.599,5.219,39.9036,1.104,0.6293,-0.3787,-177.9465
16:57:33:265,-0.456,1.997,3.756,40.0704,1.0402,0.7454,-0.5107,-178.1038
16:57:33:283,-1.0571,2.4371,2.6411,40.3968,0.7773,0.6145,-0.6256,-178.225
16:57:33:307,-1.4471,2.8871,2.183,40.543,0.3262,0.308,-0.7512,-178.225
16:57:33:321,-1.737,3.158,2.528,40.538,-0.2625,-0.0879,-0.8874,-178.225
16:57:33:344,-1.859,2.811,3.6701,40.3601,-0.8712,-0.32,-0.9757,-178.225
16:57:33:361,-2.1221,2.2721,5.825,40.2713,-1.2915,-0.2219,-0.9629,-178.225
16:57:33:381,-2.9531,2.1911,8.1881,40.4645,-1.3394,0.0653,-0.7895,-178.225
16:57:33:402,-3.834,2.748,9.7871,40.648,-1.1595,0.2984,-0.4777,-178.225
16:57:33:422,-4.0901,3.1601,10.599,40.7291,-1.0488,0.2718,-0.1552,-178.225
16:57:33:442,-3.377,3.156,12.129,40.7021,-1.2617,-0.2284,0.0854,-178.225
16:57:33:460,-2.343,3.036,14.966,40.4696,-1.5225,-0.7414,0.2226,-178.225
16:57:33:481,-1.43,2.2819,17.7791,40.3154,-1.3766,-0.7094,0.2833,-178.225
16:57:33:501,-1.344,1.389,18.624,40.2266,-0.8009,-0.2262,0.362,-178.225
16:57:33:520,-1.7111,0.879,17.406,40.2718,0.0388,0.4187,0.5504,-178.225
16:57:33:540,-2.204,1.1321,14.4731,40.3733,0.9125,0.7517,0.7292,-178.3254
16:57:33:560,-2.477,1.6691,11.054,40.6044,1.4042,0.4421,0.7271,-178.4419
16:57:33:582,-2.6201,2.21,8.0059,40.7368,1.304,-0.2295,0.6227,-178.5663
16:57:33:600,-2.165,2.351,6.579,40.6709,0.7645,-0.6913,0.4983,-178.6906
16:57:33:621,-1.3871,2.064,6.9671,40.7181,0.1867,-0.6445,0.296,-178.8163
16:57:33:640,-1.076,1.463,8.0921,40.7553,-0.1337,-0.238,0.0406,-178.9483
16:57:33:659,-1.584,1.041,8.813,40.7784,-0.1635,0.176,-0.1254,-179.0828
16:57:33:679,-2.1461,0.8831,8.94,41.0281,0.0153,0.3868,-0.1115,-179.2139
16:57:33:698,-2.4311,0.7541,8.355,41.282,0.2388,0.4102,-0.0158,-179.3416
16:57:33:718,-2.46,0.788,7.647,41.4784,0.3378,0.275,0.162,-179.4681
16:57:33:739,-2.031,0.7901,7.199,41.5071,0.3037,0.0898,0.3535,-179.5993
16:57:33:769,-1.337,0.7541,7.077,41.6643,0.225,-0.0261,0.4631,-179.7439
16:57:33:783,-0.9011,0.8831,7.1561,41.3783,0.1526,-0.0528,0.495,-179.9079
16:57:33:798,-0.633,1.085,7.407,41.2847,0.1185,-0.0964,0.4801,179.9092
16:57:33:818,-0.602,1.5971,7.4,41.364,0.1048,-0.1603,0.4366,179.711
16:57:33:839,-0.557,2.157,7.149,41.3601,0.0069,-0.1932,0.3928,179.5028
16:57:33:858,-0.4391,2.583,7.271,41.5613,-0.1997,-0.2326,0.279,179.2885
16:57:33:881,-0.633,2.9471,8.2001,41.6917,-0.4444,-0.4188,0.1194,179.0733
16:57:33:900,-1.0091,2.895,10.125,41.8542,-0.637,-0.7807,0.0172,178.8649
16:57:33:919,-0.456,2.186,12.7271,41.8528,-0.7296,-1.2266,0.0034,178.6655
16:57:33:941,0.561,1.719,14.7071,41.8584,-0.6519,-1.3117,-0.0594,178.4723
16:57:33:959,1.126,1.487,15.15,41.7697,-0.439,-0.8436,-0.2233,178.2874
16:57:33:981,0.6851,1.532,14.058,41.5841,-0.322,-0.3178,-0.4575,178.1176
16:57:33:999,-0.36,1.2071,12.926,41.574,-0.3721,0.1048,-0.6097,177.9707
16:57:34:021,-1.6361,1.073,12.696,41.7022,-0.2369,0.3974,-0.5394,177.8492
16:57:34:039,-2.2091,1.07,12.287,41.9777,0.1378,0.2782,-0.3308,177.7462
16:57:34:059,-2.022,0.9431,11.202,42.0962,0.4315,-0.1687,-0.1211,177.6516
16:57:34:077,-1.2101,0.747,10.422,42.1089,0.5027,-0.4359,0.0843,177.5563
16:57:34:098,0,0.809,10.355,41.9805,0.5357,-0.4498,0.2206,177.4513
16:57:34:122,1.145,0.9,9.924,41.8718,0.6507,-0.3189,0.2056,177.3317
16:57:34:139,1.616,1.082,8.688,42.045,0.821,-0.0133,0.0619,177.1995
16:57:34:158,1.126,1.398,7.041,42.0962,0.989,0.3186,-0.1243,177.0618
16:57:34:179,0.182,1.86,5.327,42.251,1.0763,0.4665,-0.2659,176.9285
16:57:34:198,-0.425,2.2819,3.684,42.4198,0.9657,0.4315,-0.3574,176.8112
16:57:34:218,-0.6191,2.66,2.765,42.32,0.5889,0.2963,-0.4894,176.7208
16:57:34:241,-0.9281,2.909,2.99,42.3722,0.0622,0.0931,-0.6724,176.7208
16:57:34:258,-1.572,3.1151,4.158,42.5425,-0.4327,-0.1081,-0.814,176.7208
16:57:34:279,-2.1799,2.928,5.897,42.697,-0.7956,-0.2135,-0.8427,176.7208
16:57:34:298,-2.6321,2.495,7.829,43.0388,-0.9871,-0.1496,-0.7193,176.7208
16:57:34:319,-3.1451,2.4641,9.4541,43.203,-0.9989,0.0579,-0.4543,176.7208
16:57:34:339,-3.693,2.868,10.68,43.2968,-0.935,0.2431,-0.0733,176.7208
16:57:34:361,-3.41,2.99,11.9441,43.4832,-0.9595,0.0962,0.3333,176.7208
16:57:34:381,-2.319,2.6891,13.9511,43.5178,-1.0468,-0.2305,0.6366,176.7208
16:57:34:398,-1.059,2.543,16.194,43.7849,-0.9287,-0.2762,0.7941,176.7208
16:57:34:419,-0.212,2.1911,17.339,44.0633,-0.5881,-0.1188,0.8271,176.625
16:57:34:440,0.2681,1.4081,17.0111,44.1241,-0.1592,0.1143,0.7877,176.4913
16:57:34:459,0.003,0.888,15.708,44.051,0.359,0.3996,0.7846,176.3309
16:57:34:477,-0.458,0.8711,13.563,43.875,0.9497,0.4548,0.8484,176.1517
16:57:34:497,-0.66,1.178,10.5371,43.6686,1.3691,0.2687,0.9079,175.9566
16:57:34:519,-0.533,1.5491,7.544,43.6594,1.3882,0.0835,0.9058,175.7472
16:57:34:539,-0.209,1.992,5.54,43.8435,1.0317,0.0334,0.7931,175.5277
16:57:34:561,-0.099,2.349,4.85,43.9829,0.4847,0.0727,0.5493,175.3031
16:57:34:578,-0.2,2.148,5.442,44.1141,-0.073,0.0334,0.261,175.0791
16:57:34:626,-0.638,1.707,6.677,44.3538,-0.439,0.0186,0.0353,174.8637
16:57:34:627,-1.419,1.451,7.836,44.4357,-0.5295,0.1484,-0.0158,174.6662
16:57:34:639,-1.9481,1.274,8.5811,44.4571,-0.3528,0.3208,0.1151,174.488
16:57:34:660,-2.0891,1.341,8.748,44.598,-0.0155,0.3772,0.3322,174.3207
16:57:34:679,-1.617,1.571,8.178,44.6585,0.2804,0.275,0.5004,174.1524
16:57:34:698,-0.956,1.7741,7.6301,44.6155,0.3453,0.0143,0.5131,173.9692
16:57:34:720,-0.4631,1.899,7.697,44.5736,0.242,-0.2443,0.4164,173.7688
16:57:34:737,-0.068,1.616,8.2571,44.6042,0.0707,-0.338,0.2949,173.5533
16:57:34:758,0.242,1.343,9.1841,44.6881,-0.0688,-0.2102,0.2013,173.3269
16:57:34:798,0.656,1.4891,11.154,44.956,-0.0474,-0.0549,0.0661,172.863
16:57:34:815,1.2761,1.776,11.37,45.3806,-0.0485,-0.1123,-0.0551,172.6333
16:57:34:832,1.614,2.052,11.454,45.4881,-0.1198,0.0228,-0.2947,172.41
16:57:34:851,1.25,2.253,11.58,45.4143,-0.2093,0.1675,-0.5574,172.2013
16:57:34:870,0.8021,2.174,11.6621,45.2476,-0.2964,0.159,-0.7256,172.0155
16:57:34:891,0.41,1.932,11.64,45.2095,-0.3295,0.1547,-0.832,171.8562
16:57:34:912,-0.284,1.659,11.5211,45.2109,-0.2454,0.2207,-0.881,171.7256
16:57:34:937,-1.131,1.3571,10.9871,45.3129,-0.0751,0.2229,-0.8587,171.6239
16:57:34:951,-1.715,0.9791,10.4171,45.3428,-0.0038,0.0525,-0.7437,171.6239
16:57:34:970,-1.919,0.7451,10.6061,45.4075,-0.056,-0.239,-0.5361,171.6239
16:57:34:992,-1.368,0.522,11.288,45.6662,-0.0549,-0.3135,-0.2648,171.6239
16:57:35:010,-0.291,0.3521,11.801,45.8911,0.1282,-0.1231,-0.0455,171.6239
16:57:35:030,0.735,0.57,11.4101,46.0335,0.4528,0.092,0.0364,171.6239
16:57:35:049,1.116,1.065,9.957,46.0521,0.7454,0.2207,-0.0381,171.6239
16:57:35:069,0.939,1.482,8.004,45.9612,0.9593,0.3527,-0.1669,171.6239
16:57:35:089,0.3191,2.047,5.964,45.8742,1.0667,0.4304,-0.318,171.6239
16:57:35:111,-0.4301,2.516,4.185,45.7665,0.9721,0.3877,-0.4862,171.6239
16:57:35:129,-1.22,2.9591,3.009,45.8192,0.6262,0.2388,-0.6447,171.6239
16:57:35:149,-1.9721,3.3971,2.789,45.9712,0.0855,0.0813,-0.7842,171.6239
16:57:35:167,-2.711,3.558,3.9551,46.05,-0.4933,-0.0901,-0.8597,171.7203
16:57:35:189,-3.035,3.218,6.249,46.2633,-0.9094,-0.254,-0.8331,171.8627
16:57:35:212,-2.9531,2.648,8.736,46.3027,-1.0403,-0.3189,-0.715,172.0227
16:57:35:229,-2.759,2.375,10.865,46.1663,-0.9137,-0.2028,-0.5745,172.1784
16:57:35:247,-3.1301,2.679,12.5501,46.101,-0.6476,-0.0485,-0.4361,172.3209
16:57:35:272,-3.849,3.1391,13.163,46.2349,-0.322,0.1143,-0.1935,172.4513
16:57:35:289,-4.145,3.431,13.07,46.3441,-0.1316,0.2112,0.1534,172.5688
16:57:35:310,-3.59,3.4331,13.043,46.5322,-0.0964,0.2494,0.5185,172.6652
16:57:35:331,-2.292,3.0551,13.235,46.513,-0.1666,0.1484,0.7408,172.6652
16:57:35:350,-1.028,2.085,13.788,46.3487,-0.1986,0.0206,0.7633,172.6652
16:57:35:367,-0.695,1.322,13.838,46.1294,0.1441,0.2548,0.7249,172.6652
16:57:35:387,-1.517,1.523,12.284,46.081,0.7741,0.4773,0.7089,172.6652
16:57:35:410,-2.1731,2.006,9.5651,46.2168,1.1147,0.2101,0.7217,172.6652
16:57:35:431,-2.067,2.1791,7.436,46.1339,0.9136,-0.3072,0.7058,172.6652
16:57:35:447,-1.38,2.195,6.8951,46.0318,0.3783,-0.5796,0.6377,172.6652
16:57:35:467,-0.545,1.865,7.6781,45.7567,-0.0943,-0.3476,0.4696,172.6652
16:57:35:485,-0.4061,1.587,8.573,45.3559,-0.289,0.1048,0.2503,172.5642
16:57:35:509,-0.8891,1.602,8.988,45.2364,-0.2423,0.3655,0.0789,172.4574
16:57:35:530,-1.287,1.578,8.791,45.2424,-0.1049,0.3208,0.0098,172.3551
16:57:35:546,-1.421,1.47,8.36,45.3087,-0.0209,0.1293,-0.0008,172.2609
16:57:35:566,-1.3901,1.298,8.1379,45.554,-0.0187,0.0047,0.0672,172.2609
16:57:35:584,-1.079,1.113,8.279,45.773,-0.0358,0.0334,0.1875,172.2609
16:57:35:605,-0.7511,1.058,8.564,45.9067,0.0345,0.1441,0.3046,172.1608
16:57:35:627,-0.516,1.221,8.667,45.8632,0.2005,0.1165,0.3919,172.0488
16:57:35:646,-0.1781,1.568,8.322,45.7108,0.3473,-0.0869,0.444,171.9235
16:57:35:665,0.0911,2.126,7.7831,45.4389,0.3803,-0.2731,0.444,171.7861
16:57:35:684,0.443,2.6051,7.3691,45.1588,0.2974,-0.3114,0.3759,171.639
16:57:35:704,0.4481,3.1481,7.3121,45.1247,0.1259,-0.3402,0.2067,171.4851
16:57:35:727,0.18,3.395,8.0801,44.9939,-0.1337,-0.5573,0.014,171.3338
16:57:35:745,0.278,3.1151,9.378,44.9078,-0.3752,-0.8414,-0.1467,171.1926
16:57:35:763,0.314,3.0431,10.74,44.8967,-0.5497,-0.9127,-0.3158,171.0652
16:57:35:794,0.453,3.014,11.645,44.6517,-0.6561,-0.7498,-0.4968,170.957
16:57:35:809,0.6011,2.681,11.937,44.5412,-0.8701,-0.6658,-0.7512,170.957
16:57:35:828,0.47,1.767,12.483,44.3561,-1.1925,-0.4976,-0.9991,170.957
16:57:35:845,-0.645,1.008,13.5341,44.3995,-1.1734,0.0675,-1.1066,170.957
16:57:35:863,-2.573,1.068,13.836,44.4449,-0.6105,0.5485,-0.9288,170.957
16:57:35:885,-3.408,1.082,12.914,44.5286,0.0579,0.3058,-0.5776,170.957
16:57:35:903,-3.138,0.974,11.4101,44.7726,0.3953,-0.2688,-0.2127,170.957
16:57:35:924,-2.051,0.948,10.9031,44.693,0.4548,-0.4199,0.1151,170.957
16:57:35:943,-0.506,0.965,11.126,44.5449,0.5186,-0.2252,0.3066,170.957
16:57:35:964,1.035,0.96,10.994,44.3591,0.6783,-0.0219,0.2907,170.957
16:57:35:982,1.7651,1.14,9.921,44.1858,0.9477,0.2442,0.0886,170.957
16:57:36:002,1.377,1.4531,7.9511,44.1979,1.1976,0.4634,-0.1595,170.957
16:57:36:027,0.479,1.9781,5.684,44.201,1.2892,0.5422,-0.3553,170.957
16:57:36:041,-0.3821,2.562,3.723,44.0908,1.119,0.4357,-0.5075,170.957
16:57:36:061,-1.215,3.1481,2.418,44.0099,0.6251,0.2005,-0.6288,170.957
16:57:36:081,-2.082,3.651,2.5091,43.912,-0.0719,0.0015,-0.6586,170.957
16:57:36:101,-2.541,3.663,4.2041,43.8955,-0.6658,-0.0517,-0.5554,171.1039
16:57:36:121,-2.774,3.495,6.3041,43.9465,-0.9584,-0.0666,-0.3861,171.2771
16:57:36:147,-2.697,3.266,8.5301,43.9841,-0.9648,-0.1071,-0.184,171.4474
16:57:36:160,-2.403,3.1271,10.424,44.1017,-0.7062,-0.0793,-0.0136,171.5931
16:57:36:179,-2.228,3.366,11.363,44.3316,-0.3667,-0.0038,0.1225,171.7067
16:57:36:200,-1.785,3.342,11.8871,44.4908,-0.272,-0.0688,0.2087,171.7067
16:57:36:222,-1.2101,3.105,12.773,44.5251,-0.3997,-0.1294,0.2534,171.7067
16:57:36:241,-0.722,3.009,13.862,44.4307,-0.4998,0.0132,0.2673,171.7067
16:57:36:265,-0.245,2.31,14.5211,44.3834,-0.4933,0.2016,0.2087,171.7067
16:57:36:280,-0.197,1.451,14.688,44.4649,-0.3326,0.3548,0.1683,171.7067
16:57:36:304,-0.6521,1.259,14.181,44.5658,0.109,0.507,0.2269,171.7067
16:57:36:325,-1.155,1.59,12.2171,44.6046,0.6369,0.3974,0.2949,171.7067
16:57:36:341,-1.155,1.7861,9.557,44.4959,0.8188,0.0238,0.296,171.7067
16:57:36:361,-0.983,1.961,7.5941,44.2334,0.5709,-0.2762,0.2141,171.7067
16:57:36:380,-0.947,2.2001,6.9671,44.0802,0.1282,-0.2549,0.0832,171.7067
16:57:36:400,-1.17,2.061,7.551,43.9406,-0.2347,-0.0708,-0.0573,171.7067
16:57:36:419,-1.577,1.707,8.528,43.6471,-0.3699,-0.0272,-0.1169,171.7067
16:57:36:439,-1.9241,1.5491,9.284,43.6155,-0.2784,-0.0634,-0.052,171.7067
16:57:36:461,-2.036,1.4561,9.629,43.4656,-0.0252,-0.0869,0.1194,171.7067
16:57:36:481,-1.835,1.506,9.5501,43.379,0.2898,-0.1485,0.3609,171.7067
16:57:36:499,-0.9491,1.583,9.062,43.419,0.5527,-0.2529,0.5684,171.7067
16:57:36:519,0.2831,1.628,8.5061,43.4478,0.6911,-0.3582,0.5908,171.7067
16:57:36:539,1.262,1.65,8.061,43.5499,0.6879,-0.4168,0.3993,171.7067
16:57:36:559,1.3601,1.913,7.908,43.5348,0.5794,-0.4518,0.0917,171.7067
16:57:36:582,0.975,1.796,8.219,43.403,0.4133,-0.4933,-0.1605,171.7067
16:57:36:598,0.4241,1.719,8.6501,43.1009,0.3271,-0.3806,-0.2626,171.7067
16:57:36:621,-0.059,2.114,8.736,42.905,0.3421,-0.2188,-0.2839,171.7067
16:57:36:639,-0.317,2.4971,8.6381,42.8389,0.3058,-0.2657,-0.3308,171.7067
16:57:36:658,-0.288,2.607,9.011,42.8732,0.1048,-0.5167,-0.4202,171.7067
16:57:36:679,-0.296,2.547,10.067,42.9196,-0.1401,-0.6519,-0.5116,171.7067
16:57:36:699,-0.4661,2.531,11.018,43.0406,-0.2401,-0.4668,-0.5437,171.7067
16:57:36:720,-0.4661,2.492,11.0201,42.9189,-0.287,-0.2529,-0.5596,171.7067
16:57:36:740,-0.14,2.0419,10.656,42.7337,-0.5497,-0.3146,-0.6405,171.7067
16:57:36:760,-0.2261,1.556,11.463,42.5097,-0.8914,-0.2326,-0.6926,171.7067
16:57:36:782,-0.995,1.422,12.612,42.2584,-0.7754,0.2889,-0.6203,171.7067
16:57:36:818,-2.165,1.302,11.937,42.2292,0.1367,0.1217,-0.1126,171.9008
16:57:36:836,-1.2101,1.262,10.956,42.2013,0.3303,-0.3167,0.1907,171.9008
16:57:36:857,0.2351,1.448,10.419,42.146,0.3751,-0.3391,0.3333,171.9008
16:57:36:876,1.3151,1.5971,9.809,41.7833,0.3666,-0.172,0.2822,171.9008
16:57:36:895,1.5041,1.865,8.9441,41.4831,0.4091,0.1504,0.1279,171.9008
16:57:36:915,0.8771,2.3681,7.857,41.2611,0.573,0.4591,-0.0221,171.9008
16:57:36:938,-0.018,2.9381,6.371,41.0581,0.7667,0.4804,-0.1414,171.9008
16:57:36:955,-0.6911,3.378,4.7861,40.9529,0.7667,0.2324,-0.235,171.9008
16:57:36:974,-1.155,3.792,3.8471,40.7677,0.4793,-0.0804,-0.3191,171.9008
16:57:36:994,-1.397,3.998,4.0271,40.5858,0.0026,-0.287,-0.3596,171.9987
16:57:37:015,-1.5,3.8711,5.595,40.4309,-0.4678,-0.3891,-0.3361,172.1247
16:57:37:034,-1.289,3.56,7.7111,40.5102,-0.7051,-0.2751,-0.2414,172.2627
16:57:37:055,-1.179,3.4331,9.758,40.5805,-0.6115,-0.0038,-0.1275,172.3938
16:57:37:074,-1.4981,3.584,11.0441,40.61,-0.2347,0.2133,0.0161,172.511
16:57:37:094,-1.895,3.8951,11.001,40.5628,0.1708,0.2676,0.2098,172.6138
16:57:37:115,-1.878,4.281,10.529,40.1941,0.3367,0.1697,0.4088,172.6138
16:57:37:137,-1.196,4.286,10.5941,39.8929,0.3143,0.0685,0.5185,172.6138
16:57:37:154,-0.59,4.331,10.874,39.696,0.2377,0.1068,0.4898,172.6138
16:57:37:173,-0.023,4.1899,11.2571,39.4954,0.0653,0.1675,0.3311,172.6138
16:57:37:194,0.347,3.146,12.179,39.5721,-0.205,0.0824,0.1056,172.6138
16:57:37:213,0.027,1.985,13.2041,39.6171,-0.2529,0.2601,-0.0125,172.6138
16:57:37:234,-1.241,1.499,13.2281,39.4275,0.1473,0.7007,0.0661,172.6138
16:57:37:255,-2.4431,1.8671,11.418,39.2327,0.705,0.7837,0.3131,172.6138
16:57:37:273,-2.438,2.1161,8.7701,38.9141,0.8018,0.2846,0.5035,172.6138
16:57:37:293,-1.9361,2.262,7.1801,38.6857,0.4207,-0.2262,0.5558,172.6138
16:57:37:313,-1.416,2.411,7.257,38.6391,-0.04,-0.2178,0.5195,172.6138
16:57:37:333,-1.1981,2.3651,8.2091,38.4696,-0.3316,-0.0081,0.4397,172.6138
16:57:37:355,-1.217,2.3081,9.0791,38.2263,-0.4114,0.094,0.4036,172.6138
16:57:37:372,-1.3061,2.571,9.612,37.9476,-0.2922,0.1196,0.4429,172.6138
16:57:37:391,-1.155,2.7131,9.7181,37.6403,-0.0996,0.0195,0.5174,172.6138
16:57:37:411,-0.545,2.55,9.615,37.5067,0.0835,-0.1081,0.5781,172.5125
16:57:37:432,0.0821,2.4971,9.2771,37.5289,0.2377,-0.1464,0.5695,172.3915
16:57:37:451,0.477,2.5091,8.921,37.7387,0.3623,-0.0996,0.4993,172.2494
16:57:37:472,0.606,2.562,8.559,37.9924,0.4782,-0.0964,0.3961,172.0896
16:57:37:491,0.563,2.634,8.262,38.0077,0.5294,-0.2497,0.2949,171.9178
16:57:37:511,0.587,2.658,8.1641,37.8591,0.5474,-0.3858,0.2024,171.7391
16:57:37:531,0.4121,2.873,7.965,37.7204,0.5932,-0.32,0.1225,171.5575
16:57:37:554,0.125,3.273,7.632,37.6357,0.5846,-0.2625,0.047,171.379
16:57:37:574,-0.073,3.63,7.8191,37.6466,0.3963,-0.4348,-0.054,171.2093
16:57:37:590,-0.039,3.6131,8.7821,37.6583,0.0792,-0.7392,-0.184,171.0537
16:57:37:609,-0.032,3.462,10.3121,37.5898,-0.1741,-0.785,-0.268,170.9151
16:57:37:631,0.0581,3.522,11.4731,37.4541,-0.1997,-0.5349,-0.2871,170.794
16:57:37:654,0.165,3.723,11.138,37.387,-0.1231,-0.2443,-0.3733,170.6885
16:57:37:671,0.0461,3.618,9.9761,37.3214,-0.3231,-0.1932,-0.5372,170.6885
16:57:37:689,-0.353,3.0881,10.046,37.313,-0.7094,-0.1209,-0.6341,170.6885
16:57:37:709,-1.229,2.828,11.243,37.2725,-0.7243,0.2707,-0.5298,170.6885
16:57:37:732,-2.142,2.796,11.7221,37.2878,-0.3103,0.4697,-0.2637,170.6885
16:57:37:749,-2.163,2.6291,11.178,37.4462,0.1643,0.094,0.1013,170.6885
16:57:37:771,-1.2371,2.5091,9.945,37.4522,0.4133,-0.3391,0.4333,170.6885
16:57:37:788,0.2351,2.531,9.3011,37.4367,0.408,-0.4785,0.5897,170.6885
16:57:37:817,1.5401,2.5331,9.081,37.4135,0.2921,-0.4316,0.5174,170.6885
16:57:37:833,1.923,2.669,8.6981,37.4656,0.1984,-0.1475,0.2929,170.5695
16:57:37:851,1.0541,2.916,8.066,37.5808,0.2069,0.2005,0.0949,170.4354
16:57:37:872,-0.104,3.2081,7.235,37.7138,0.2974,0.3006,0.0576,170.3032
16:57:37:889,-0.5831,3.416,6.201,37.8163,0.3761,0.209,0.0949,170.1818
16:57:37:906,-0.707,3.6851,5.231,37.801,0.3176,0.043,0.1002,170.0732
16:57:37:927,-0.602,3.924,4.7861,37.7703,0.0685,-0.1678,0.0481,169.9767
16:57:37:950,-0.456,4.0151,5.334,37.6938,-0.3135,-0.3613,-0.0349,169.9767
16:57:37:970,-0.351,3.9461,6.7421,37.7315,-0.62,-0.3741,-0.0861,169.9767
16:57:37:986,-0.288,3.771,8.439,37.7812,-0.7211,-0.2199,-0.0892,169.9767
16:57:38:005,-0.3581,3.642,9.7061,37.9761,-0.5647,0.0186,-0.0562,169.8799
16:57:38:026,-0.731,3.723,10.067,38.2742,-0.2369,0.2696,0.0012,169.7788
16:57:38:047,-1.481,4.089,9.543,38.4157,0.0792,0.3601,0.1034,169.6766
16:57:38:067,-2.079,4.6691,8.705,38.4381,0.2005,0.2898,0.2513,169.5783
16:57:38:086,-2.082,5.066,8.2721,38.4324,0.0707,0.2047,0.3737,169.4839
16:57:38:106,-1.577,4.958,8.688,38.2195,-0.2964,0.1345,0.4206,169.3844
16:57:38:126,-0.621,4.3121,10.4771,38.1265,-0.8573,-0.0698,0.3546,169.2643
16:57:38:147,-0.1181,3.065,13.278,38.2444,-1.3032,-0.1358,0.2439,169.1133
16:57:38:167,-0.71,1.662,15.7751,38.3784,-1.1586,0.3325,0.2375,168.939
16:57:38:186,-2.12,0.63,15.7301,38.6486,-0.4157,0.8529,0.4781,168.7522
16:57:38:205,-3.185,0.5051,12.921,38.9261,0.4005,0.921,0.9452,168.5546
16:57:38:225,-3.209,0.927,9.119,39.1916,0.738,0.6848,1.3783,168.3396
16:57:38:248,-2.81,1.523,6.2651,39.4166,0.5676,0.4697,1.6147,168.1019
16:57:38:267,-2.424,2.033,4.934,39.5193,0.0601,0.3325,1.6731,167.8411
16:57:38:285,-2.216,2.0591,5.334,39.7154,-0.5657,0.1771,1.6061,167.5544
16:57:38:304,-2.235,1.5251,7.1441,39.7814,-1.0638,-0.0176,1.5379,167.2326
16:57:38:327,-2.3,0.8951,9.644,39.83,-1.3128,-0.2071,1.6072,166.8684
16:57:38:347,-1.605,0.0071,12.294,39.9882,-1.2574,-0.3912,1.7977,166.4572
16:57:38:364,-0.573,-0.389,14.255,40.0767,-0.8148,-0.2794,1.9871,165.9971
16:57:38:384,0.3551,-0.32,14.5301,40.148,-0.0421,0.1834,2.1307,165.4932
16:57:38:406,0.927,0.1511,12.888,40.2754,0.7135,0.5314,2.1563,164.9527
16:57:38:424,1.13,0.7901,10.352,40.3188,1.1637,0.5368,2.0723,164.3815
16:57:38:448,1.37,1.3691,8.0681,40.3825,1.2914,0.4346,1.9084,163.7847
16:57:38:466,1.5401,1.8461,6.3641,40.3626,1.1583,0.359,1.6668,163.1662
16:57:38:483,1.5611,2.274,5.351,40.593,0.8294,0.3484,1.3953,162.53
16:57:38:504,1.47,2.6,5.25,40.7932,0.3708,0.3143,1.0911,161.8829
16:57:38:523,1.319,2.732,6.174,40.9695,-0.124,0.2442,0.7792,161.2337
16:57:38:542,1.049,2.583,8.0111,41.1788,-0.4956,0.1697,0.5004,160.5929
16:57:38:563,0.7421,2.207,10.053,41.324,-0.6498,0.1293,0.3024,159.9713
16:57:38:585,0.228,1.932,11.499,41.272,-0.5849,0.1877,0.2226,159.3749
16:57:38:603,-0.3461,2.126,12.186,41.051,-0.4019,0.3399,0.296,158.8046
16:57:38:639,-0.291,2.406,11.904,41.0664,-0.2518,0.3336,0.3759,158.2543
16:57:38:643,0.261,2.3321,11.3651,41.0372,-0.3965,0.0931,0.2875,157.7172
16:57:38:661,0.2231,1.8341,11.549,41.1986,-0.6359,0.1942,0.0843,157.1934
16:57:38:687,-1.088,1.326,11.9201,41.5071,-0.6552,0.6006,-0.0041,156.6903
16:57:38:701,-2.6561,0.905,12.122,41.6512,-0.5232,0.707,0.18,156.212
16:57:38:722,-3.425,0.35,12.258,41.8519,-0.3316,0.3953,0.5855,155.7504
16:57:38:742,-3.315,0.045,12.213,41.955,-0.1177,0.0345,1.1208,155.2878
16:57:38:761,-2.058,-0.023,12.0071,41.9829,0.1259,-0.1453,1.6391,154.8036
16:57:38:786,-0.3461,0.1961,11.181,41.9932,0.4102,-0.0421,1.9467,154.2813
16:57:38:801,0.651,0.7901,9.629,41.9711,0.7156,0.2409,1.9753,153.7165
16:57:38:832,0.642,1.6211,7.6301,42.0986,0.9519,0.4793,1.8594,153.1158
16:57:38:846,0.192,2.306,5.763,42.4808,0.9753,0.4804,1.6859,152.4893
16:57:38:866,-0.2,2.7821,4.5851,42.703,0.7485,0.2696,1.4955,151.8491
16:57:38:881,-0.339,3.053,4.455,42.817,0.2995,-0.1071,1.2676,151.2061
16:57:38:902,-0.056,3.038,5.526,42.7045,-0.2199,-0.4412,1.0101,150.5619
16:57:38:921,0.285,2.7251,7.3451,42.5312,-0.6072,-0.4933,0.7164,149.9092
16:57:38:939,0.3671,2.2271,9.744,42.369,-0.7776,-0.3103,0.4663,149.2511
16:57:38:961,0.077,1.913,11.8511,42.197,-0.6051,0.0644,0.3268,148.5977
16:57:38:982,-0.65,1.887,12.8351,42.3059,-0.2039,0.5006,0.3396,147.9573
16:57:38:999,-1.428,2.15,12.713,42.4295,0.193,0.7762,0.494,147.3319
16:57:39:020,-1.679,2.691,11.6981,42.5153,0.4113,0.9306,0.7238,146.7169
16:57:39:039,-1.227,3.132,10.6781,42.7034,0.3655,1.0817,0.8675,146.1024
16:57:39:061,-1.16,3.56,10.137,42.7996,0.1143,1.1679,0.8751,145.4807
16:57:39:079,-0.81,3.23,10.778,43.0109,-0.2742,1.0115,0.8601,144.849
16:57:39:101,-0.516,1.9271,12.0881,43.2834,-0.4731,0.822,0.7388,144.2019
16:57:39:119,-1.239,0.989,13.118,43.4704,-0.3295,0.7624,0.7441,143.543
16:57:39:139,-2.276,0.491,13.022,43.3921,0.1452,0.8018,0.9813,142.8782
16:57:39:158,-2.778,0.5651,11.444,43.4509,0.7272,0.7943,1.3816,142.2072
16:57:39:184,-2.3261,1.094,9.105,43.448,1.0339,0.5752,1.7104,141.5249
16:57:39:200,-1.4741,1.86,7.091,43.4314,0.954,0.291,1.755,140.8262
16:57:39:220,-0.758,2.504,5.906,43.4206,0.5719,0.1345,1.5337,140.1129
16:57:39:242,-0.3791,2.531,5.87,43.3415,0.0036,0.0824,1.1676,139.3909
16:57:39:260,-0.549,2.057,7.187,43.1483,-0.4806,0.1697,0.8441,138.6639
16:57:39:281,-1.136,1.6571,8.88,43.0588,-0.6062,0.3825,0.726,137.9378
16:57:39:302,-1.6031,1.386,9.945,43.1307,-0.3274,0.5516,0.8441,137.2173
16:57:39:319,-1.407,1.494,9.6821,43.2253,0.1771,0.5815,1.0761,136.4996
16:57:39:344,-0.5591,1.9391,8.3201,43.5619,0.5283,0.4218,1.1517,135.7776
16:57:39:360,0.041,2.483,7.02,43.7204,0.5431,0.158,0.9932,135.0498
16:57:39:379,0.345,2.6531,6.356,43.8224,0.2474,-0.106,0.7195,134.3212
16:57:39:398,0.4241,2.444,6.756,43.8298,-0.2518,-0.2071,0.4493,133.5972
16:57:39:419,0.12,2.15,8.394,43.5138,-0.6456,-0.0304,0.2716,132.8819
16:57:39:439,-0.449,2.047,10.302,43.2451,-0.6732,0.2485,0.2354,132.181
16:57:39:457,-0.897,2.193,11.535,43.1096,-0.3497,0.2687,0.2801,131.4984
16:57:39:479,-0.921,2.3801,11.592,43.0383,-0.0049,-0.0443,0.3418,130.8322
16:57:39:498,-0.2501,2.435,11.394,43.1647,0.1452,-0.4029,0.3524,130.1782
16:57:39:518,0.5291,2.466,11.274,43.274,0.1313,-0.5605,0.261,129.5333
16:57:39:538,1.116,2.5091,11.214,43.1448,0.0388,-0.4316,0.0917,128.8987
16:57:39:559,1.2191,2.411,10.8071,43.0506,-0.0474,-0.0921,-0.1402,128.28
16:57:39:579,0.551,2.301,10.335,42.9934,-0.1358,0.1515,-0.369,127.6865
16:57:39:598,-0.432,2.126,10.043,43.2625,-0.1932,0.1782,-0.5075,127.1281
16:57:39:620,-1.1141,1.8461,9.969,43.5862,-0.2369,0.0483,-0.5107,126.6111
16:57:39:640,-1.193,1.35,10.2971,43.793,-0.3274,-0.1635,-0.4393,126.133
16:57:39:658,-1.026,1.01,11.19,43.8079,-0.388,-0.254,-0.3052,125.687
16:57:39:677,-0.42,0.491,12.2201,43.863,-0.3081,-0.2262,-0.1552,125.265
16:57:39:697,0.168,0.218,12.675,43.9412,-0.0283,-0.0921,-0.0179,124.8606
16:57:39:719,0.446,0.56,11.762,44.2235,0.4187,0.1611,0.0747,124.4698
16:57:39:742,0.3521,1.1471,9.617,44.4395,0.7975,0.3623,0.1088,124.0905
16:57:39:758,0.165,1.808,7.077,44.4755,0.9796,0.4687,0.0821,123.7219
16:57:39:779,-0.0041,2.466,4.9961,44.5345,0.9125,0.4804,-0.0509,123.3669
16:57:39:798,-0.434,3.05,3.6101,44.5755,0.6369,0.4133,-0.2808,123.0371
16:57:39:820,-0.932,3.371,2.973,44.7095,0.2175,0.308,-0.517,122.7534
16:57:39:857,-2.187,3.081,4.719,44.9268,-0.7583,-0.023,-0.8107,122.5308
16:57:39:863,-2.723,2.6771,6.5411,45.1247,-0.9893,-0.0016,-0.7384,122.3653
16:57:39:887,-3.063,2.349,8.274,45.3724,-1.0106,0.0451,-0.517,122.2366
16:57:39:907,-3.171,2.4251,9.852,45.6418,-0.8775,0.0047,-0.1966,122.1225
16:57:39:922,-2.7761,2.892,11.087,45.8456,-0.6615,-0.0315,0.1279,122.0054
16:57:39:943,-2.201,3.548,11.693,46.0212,-0.487,0.0047,0.3387,121.8711
16:57:39:964,-1.806,4.1081,11.8871,46.0925,-0.5147,0.0388,0.4121,121.7097
16:57:39:982,-1.452,4.254,12.564,46.0315,-0.7371,0.0249,0.3876,121.5183
16:57:40:007,-1.0039,3.33,13.85,45.8982,-0.9669,-0.0092,0.2801,121.298
16:57:40:022,-1.203,2.183,15.2561,45.7256,-0.9489,0.1122,0.1811,121.0497
16:57:40:041,-1.9811,1.0631,16.0961,45.5784,-0.5136,0.341,0.2247,120.7774
16:57:40:062,-3.092,0.7421,15.335,45.6301,0.2739,0.3868,0.4397,120.4903
16:57:40:084,-3.564,1.1059,12.948,45.6752,0.9338,0.0419,0.7271,120.1955
16:57:40:101,-3.023,1.4411,10.319,45.8491,1.0891,-0.3561,0.9016,119.8949
16:57:40:122,-2.0981,1.6451,8.8151,46.0046,0.8497,-0.4796,0.9069,119.586
16:57:40:141,-1.2701,1.626,8.504,46.0064,0.5027,-0.2964,0.7611,119.2653
16:57:40:161,-1.119,1.391,8.7,46.005,0.2782,0.0323,0.5525,118.9296
16:57:40:181,-1.586,1.1681,8.751,45.8759,0.2516,0.3293,0.4451,118.5807
16:57:40:201,-2.103,1.13,8.37,45.7065,0.3963,0.4953,0.4791,118.2268
16:57:40:222,-2.34,1.154,7.484,45.6088,0.5815,0.4984,0.5972,117.8753
16:57:40:240,-2.259,1.262,6.603,45.5903,0.672,0.3675,0.7217,117.5292
16:57:40:260,-2.051,1.4171,6,45.7752,0.6284,0.1547,0.808,117.188
16:57:40:281,-1.8521,1.626,5.901,45.9423,0.4634,-0.0591,0.8612,116.8489
16:57:40:299,-1.586,1.7021,6.3401,45.8836,0.2485,-0.2423,0.892,116.5088
16:57:40:321,-1.086,1.592,7.3121,45.9251,0.0036,-0.4817,0.8942,116.1633
16:57:40:350,-0.2171,1.4321,8.729,45.8406,-0.2219,-0.6754,0.8388,115.8067
16:57:40:361,0.599,1.3001,10.319,45.8859,-0.3114,-0.5944,0.7026,115.4342
16:57:40:380,0.675,1.683,11.5421,46.115,-0.1666,-0.2688,0.5451,115.0471
16:57:40:400,0.5921,2.0831,11.849,46.0361,0.0558,-0.0815,0.4184,114.6554
16:57:40:421,0.819,2.251,11.762,45.9263,0.1176,-0.206,0.2727,114.2698
16:57:40:440,1.166,2.274,11.873,45.9294,0.094,-0.2933,0.1066,113.8964
16:57:40:458,1.2281,2.411,11.5451,45.9164,0.1473,-0.0762,-0.0648,113.5388
16:57:40:479,0.965,2.6501,10.436,46.0453,0.2005,0.1867,-0.2244,113.2001
16:57:40:499,0.74,2.825,9.153,46.011,0.0664,0.1782,-0.4351,112.8837
16:57:40:523,0.515,2.4131,8.655,45.7701,-0.3029,0.0164,-0.7235,112.5932
16:57:40:538,-0.434,1.76,9.483,45.5647,-0.6615,0.0377,-0.9023,112.3337
16:57:40:557,-1.3991,0.879,10.994,45.4258,-0.7679,0.1398,-0.8086,112.1127
16:57:40:579,-1.9721,0.225,12.2201,45.3094,-0.5849,0.1217,-0.4734,111.9374
16:57:40:601,-1.9331,0.12,12.588,45.2127,-0.2135,0.0547,0.0034,111.8038
16:57:40:618,-1.148,0.503,12.335,45.0022,0.2122,-0.0198,0.4653,111.6981
16:57:40:665,0.125,0.9551,11.238,44.8572,0.6336,-0.0582,0.7356,111.6022
16:57:40:666,1.082,1.515,9.3851,44.9045,0.9955,0.0473,0.7622,111.5002
16:57:40:677,1.3121,2.2121,7.0721,44.8784,1.2178,0.2261,0.6079,111.3848
16:57:40:698,0.936,2.8871,4.7951,44.9068,1.2019,0.3548,0.3524,111.2566
16:57:40:719,0.261,3.4451,3.1391,44.8785,0.9104,0.359,0.0661,111.1207
16:57:40:738,-0.3581,3.9431,2.2811,44.9815,0.3623,0.2399,-0.1957,110.99
16:57:40:759,-0.875,4.178,2.564,45.0255,-0.3081,0.0568,-0.434,110.8899
16:57:40:778,-1.2701,3.893,4.087,45.1311,-0.9201,-0.1411,-0.5926,110.8899
16:57:40:798,-1.62,3.512,6.246,45.0889,-1.2958,-0.1986,-0.6586,110.8899
16:57:40:817,-2.2211,3.146,8.6141,44.8962,-1.3427,-0.1518,-0.5852,110.8899
16:57:40:838,-2.783,3.012,10.422,44.8852,-1.0904,-0.0804,-0.3255,110.8899
16:57:40:866,-2.79,3.048,11.7221,44.7622,-0.7477,-0.0549,0.0322,110.8899
16:57:40:878,-2.084,3.1271,12.6221,44.6611,-0.4572,-0.0656,0.3301,110.8899
16:57:40:899,-1.344,3.3851,13.331,44.7334,-0.3465,-0.0688,0.4865,110.8899
16:57:40:918,-0.6191,3.419,14.1761,44.836,-0.322,0.1057,0.5365,110.8899
16:57:40:939,-0.253,3.251,14.861,44.9539,-0.254,0.3282,0.5142,110.7931
16:57:40:959,0.086,2.42,15.1601,44.7276,-0.1858,0.2856,0.4876,110.6628
16:57:40:979,0.419,1.415,15.153,44.2118,0.0217,0.3026,0.4983,110.5028
16:57:41:000,0.2321,0.9191,14.2931,43.6322,0.5559,0.5592,0.5302,110.3178
16:57:41:018,-0.633,1.247,11.765,43.117,1.1807,0.6475,0.5951,110.1121
16:57:41:038,-0.9041,1.6181,8.597,42.8208,1.4382,0.4463,0.6643,109.8916
16:57:41:058,-0.8891,2.0591,6.071,42.7655,1.2306,0.2122,0.6324,109.6596
16:57:41:078,-0.8921,2.535,4.745,42.7108,0.6837,0.0972,0.5109,109.417
16:57:41:098,-0.8441,2.6771,5.001,42.8606,-0.0038,0.0377,0.3259,109.169
16:57:41:119,-0.8561,2.3321,6.7781,43.0483,-0.5562,-0.0528,0.1279,108.9213
16:57:41:138,-1.1651,1.958,9.023,43.2782,-0.8115,-0.1114,0.0194,108.6686
16:57:41:158,-1.445,1.401,11.037,43.2,-0.7477,-0.1155,0.0661,108.4083
16:57:41:189,-1.368,1.02,12.344,43.0905,-0.4242,-0.023,0.2662,107.8829
16:57:41:205,-0.8921,0.938,12.6701,43.0386,0.0898,0.1973,0.5185,107.62
16:57:41:226,-0.336,1.233,11.6621,43.0222,0.656,0.4165,0.7058,107.3521
16:57:41:242,0.2111,1.515,9.768,43.0398,1.0519,0.4346,0.7803,107.076
16:57:41:262,0.738,1.9061,7.874,43.0864,1.2158,0.3506,0.7441,106.7885
16:57:41:282,1.118,2.277,6.44,43.0746,1.1711,0.2409,0.5962,106.4871
16:57:41:307,1.331,2.631,5.492,42.9796,0.989,0.11,0.3726,106.1723
16:57:41:325,1.3481,3.002,4.905,42.9658,0.6942,-0.0016,0.0971,105.8472
16:57:41:341,1.0781,3.3611,4.7381,42.8085,0.2974,-0.124,-0.1882,105.5186
16:57:41:365,0.5531,3.7091,5.2121,42.8934,-0.2305,-0.3018,-0.4298,105.1972
16:57:41:385,0.12,3.5861,6.747,43.0487,-0.7743,-0.4561,-0.583,104.8943
16:57:41:401,-0.2021,3.201,9.0761,43.1767,-1.1202,-0.5497,-0.6553,104.6154
16:57:41:423,-0.291,2.784,11.2211,43.2141,-1.1851,-0.6231,-0.6746,104.3643
16:57:41:441,-0.1691,2.3771,12.2561,43.2241,-1.0659,-0.5041,-0.6724,104.1423
16:57:41:461,-0.284,2.162,12.4211,43.1097,-0.9489,-0.2315,-0.7054,103.9503
16:57:41:483,-0.83,2.021,12.375,43.1937,-0.9009,-0.0176,-0.7415,103.7923
16:57:41:500,-1.4021,1.6691,12.7391,43.4873,-0.7998,0.0664,-0.7043,103.6721
16:57:41:523,-1.8731,1.3571,13.1801,43.668,-0.5158,0.0547,-0.5724,103.6721
16:57:41:541,-2.012,1.125,13.379,43.8581,-0.1507,-0.1763,-0.369,103.6721
16:57:41:561,-1.4381,0.9671,13.163,43.9821,0.1814,-0.3284,-0.1063,103.6721
16:57:41:579,-0.336,1.061,12.689,43.8921,0.458,-0.2592,0.0971,103.6721
16:57:41:601,0.924,1.278,11.817,43.9518,0.6868,-0.139,0.1555,103.6721
