Time,Acc_X,Acc_Y,Acc_Z,Meg,Gyr_X,Gyr_Y,Gyr_Z,Ore
17:12:27:861,-0.279,2.969,9.725,53.7013,-0.0252,-0.1986,-0.0253,43.479
17:12:27:864,-0.253,3.045,9.639,53.632,-0.1231,-0.1507,-0.0051,43.479
17:12:27:865,-0.308,3.05,9.7391,53.5401,-0.2039,-0.0804,0.0109,43.479
17:12:27:868,-0.4511,3.1121,9.7781,53.3463,-0.2124,-0.0751,0.0448,43.479
17:12:27:886,-0.446,3.249,9.596,53.1745,-0.1337,-0.0901,0.0811,43.6026
17:12:27:906,-0.4541,3.369,9.2891,53.2641,-0.007,-0.0517,0.0874,43.7829
17:12:27:931,-0.588,3.4721,9.038,53.4036,0.1026,-0.0038,0.0544,44.0236
17:12:27:945,-0.846,3.479,8.8511,53.6326,0.1515,-0.0358,0.0023,44.3303
17:12:27:967,-0.923,3.3761,8.739,53.8655,0.1282,-0.1379,-0.0115,44.711
17:12:27:987,-0.765,3.261,8.916,53.9092,0.0388,-0.1986,0.0077,45.1714
17:12:28:006,-0.722,3.117,9.165,53.9305,-0.0358,-0.1453,0.0459,45.7118
17:12:28:025,-0.7271,3.1031,9.2201,54.0216,-0.0666,0.0302,0.0874,46.3317
17:12:28:046,-0.774,3.2351,9.162,54.0901,-0.0879,0.1409,0.1301,47.0321
17:12:28:066,-0.8201,3.4121,9.213,53.9664,-0.1305,0.0855,0.1683,47.815
17:12:28:085,-0.765,3.488,9.237,53.6596,-0.1646,-0.0613,0.1918,48.6831
17:12:28:105,-0.525,3.503,9.311,53.4375,-0.1687,-0.1453,0.2183,49.6392
17:12:28:126,-0.2861,3.522,9.411,53.2199,-0.1485,-0.1698,0.23,50.6842
17:12:28:147,-0.1301,3.618,9.306,53.2072,-0.1188,-0.0932,0.2397,51.8183
17:12:28:165,-0.02,3.7091,9.2771,53.3291,-0.089,-0.0155,0.2577,53.0433
17:12:28:185,0.1511,3.761,9.251,53.2566,-0.0496,-0.0326,0.2439,54.3602
17:12:28:206,0.3041,3.752,9.222,53.2519,0.0111,-0.0996,0.1822,55.7688
17:12:28:224,0.4481,3.7181,8.988,53.2407,0.076,-0.1401,0.1045,57.2699
17:12:28:247,0.5171,3.74,8.7071,53.3072,0.1154,-0.0645,0.0322,58.8651
17:12:28:268,0.486,3.761,8.552,53.3213,0.109,0.026,-0.0381,60.5549
17:12:28:292,0.297,3.8621,8.324,53.4252,0.0675,0.1259,-0.0881,62.3386
17:12:28:306,0.0911,3.989,8.262,53.3678,0.0111,0.1622,-0.1158,64.2161
17:12:28:325,-0.1061,4.065,8.303,53.3343,-0.0613,0.1122,-0.153,66.1854
17:12:28:344,-0.303,4.2311,8.37,53.3892,-0.1401,0.0675,-0.1627,68.2431
17:12:28:364,-0.4901,4.412,8.525,53.4406,-0.2113,0.0738,-0.1402,70.3839
17:12:28:385,-0.597,4.58,8.7821,53.664,-0.2592,0.0962,-0.12,72.6003
17:12:28:405,-0.633,4.752,9.107,53.5168,-0.2592,0.142,-0.1041,74.8834
17:12:28:424,-0.626,4.8101,9.4069,53.4178,-0.1986,0.2164,-0.0967,77.2233
17:12:28:445,-0.71,4.9031,9.629,53.2361,-0.1028,0.2346,-0.1041,79.6104
17:12:28:465,-0.806,4.8911,9.7819,53.06,0.0026,0.2186,-0.1169,82.0373
17:12:28:485,-0.918,4.793,9.806,53.2842,0.1005,0.2346,-0.1317,84.4968
17:12:28:505,-1.17,4.74,9.677,53.3026,0.1771,0.2963,-0.1317,86.9822
17:12:28:524,-1.524,4.671,9.45,53.3303,0.2218,0.3729,-0.1148,89.4881
17:12:28:543,-1.931,4.709,9.311,53.4115,0.2271,0.408,-0.052,92.0095
17:12:28:564,-2.108,4.688,9.366,53.3754,0.225,0.4165,0.0374,94.541
17:12:28:594,-2.156,4.64,9.531,53.3088,0.2261,0.4187,0.1182,97.0735
17:12:28:603,-2.1101,4.547,9.6821,53.5068,0.2197,0.408,0.195,99.5968
17:12:28:624,-1.758,4.2281,9.8261,53.6064,0.1962,0.3538,0.2471,102.1016
17:12:28:642,-1.395,3.953,9.8711,53.6495,0.1473,0.3314,0.2513,104.5783
17:12:28:662,-1.4501,3.8741,9.7751,53.6617,0.1026,0.4187,0.2524,107.0189
17:12:28:681,-1.7441,3.809,9.533,53.4994,0.109,0.5635,0.294,109.4223
17:12:28:702,-1.8731,3.467,9.1721,53.2876,0.1611,0.5719,0.3322,111.7898
17:12:28:722,-1.758,2.957,8.8219,53.2363,0.1825,0.3985,0.294,114.1209
17:12:28:742,-1.919,2.6621,8.576,53.3614,0.1398,0.1632,0.2206,116.4133
17:12:28:762,-2.1461,2.526,8.2571,53.2925,0.0781,0.0983,0.2311,118.6684
17:12:28:782,-2.115,2.318,8.0561,53.3611,0.0132,0.1473,0.296,120.8871
17:12:28:803,-1.866,2.1551,8.0801,53.2747,-0.0815,0.094,0.3237,123.0644
17:12:28:824,-1.584,2.018,8.195,53.2592,-0.1932,-0.0155,0.2886,125.193
17:12:28:843,-1.478,1.922,8.303,53.3136,-0.2837,-0.0645,0.2408,127.2679
17:12:28:863,-1.442,1.9031,8.444,53.6055,-0.3656,-0.0666,0.2141,129.2886
17:12:28:884,-1.356,1.9391,8.537,53.9067,-0.4423,-0.0209,0.2109,131.2559
17:12:28:904,-1.3751,2.054,8.549,54.0808,-0.4965,0.0718,0.2226,133.1704
17:12:28:923,-1.541,2.322,8.4371,54.1597,-0.4828,0.1792,0.2705,135.0319
17:12:28:944,-1.6721,2.6501,8.15,53.9899,-0.3891,0.2687,0.3472,136.841
17:12:28:962,-1.778,3.1271,7.8221,53.7654,-0.2646,0.2782,0.4227,138.5975
17:12:28:983,-1.7441,3.6221,7.565,53.5565,-0.1646,0.2281,0.4577,140.3014
17:12:29:003,-1.62,3.938,7.496,53.4884,-0.1262,0.1398,0.4173,141.9529
17:12:29:025,-1.541,4.1471,7.8,53.4454,-0.1528,-0.0016,0.2855,143.5535
17:12:29:043,-1.5,4.142,8.217,53.4267,-0.2093,-0.1368,0.1141,145.1073
17:12:29:064,-1.679,3.986,8.7671,53.3225,-0.2603,-0.1646,-0.0136,146.619
17:12:29:086,-1.9961,3.8501,9.402,53.1261,-0.289,-0.1209,-0.0136,148.0944
17:12:29:103,-2.1439,3.699,9.9431,53.0162,-0.2975,-0.0133,0.0832,149.5358
17:12:29:125,-2.1941,3.5771,10.5341,53.0595,-0.2922,0.0238,0.164,150.9395
17:12:29:144,-2.2181,3.548,10.929,53.2553,-0.2284,0.0271,0.2024,152.3016
17:12:29:168,-2.0861,3.455,10.865,53.2836,-0.0613,0.1068,0.2738,153.6208
17:12:29:185,-1.782,3.3851,10.685,53.2998,0.127,0.0696,0.3396,154.8971
17:12:29:203,-1.3511,3.4091,10.5341,53.355,0.1537,-0.2432,0.2534,156.1293
17:12:29:222,-0.9641,3.543,10.745,53.4142,-0.0252,-0.5859,0.0672,157.3187
17:12:29:249,-0.6071,3.534,11.2121,53.7031,-0.2529,-0.7329,-0.1275,158.4695
17:12:29:263,-0.327,3.2111,11.916,53.7466,-0.4444,-0.7583,-0.3201,159.5864
17:12:29:283,-0.4661,2.832,12.459,53.7098,-0.5285,-0.6307,-0.402,160.6749
17:12:29:307,-0.779,2.4251,12.387,53.5637,-0.3806,-0.1932,-0.2861,161.7408
17:12:29:323,-1.2491,2.2241,11.681,53.3981,-0.0081,0.2526,-0.0573,162.7847
17:12:29:342,-1.191,2.0951,10.5251,53.4381,0.4367,0.4293,0.1449,163.8024
17:12:29:364,-0.669,1.8461,9.5981,53.6587,0.7932,0.2463,0.1321,164.7888
17:12:29:382,-0.195,1.6541,8.841,53.7487,0.9189,-0.2507,-0.0764,165.7427
17:12:29:402,0.144,1.367,8.406,53.5913,0.7965,-0.5614,-0.3574,166.6686
17:12:29:423,0.213,1.2191,8.3201,53.4792,0.5251,-0.5455,-0.5734,167.574
17:12:29:444,-0.164,1.286,8.154,53.3875,0.2324,-0.2592,-0.6575,168.4661
17:12:29:465,-0.794,1.542,7.7741,53.5109,0.0419,0.0898,-0.5809,169.3504
17:12:29:484,-1.134,1.98,7.3211,53.431,-0.0124,0.3176,-0.4265,170.2284
17:12:29:504,-1.1981,2.4521,6.78,53.4802,0.0111,0.3314,-0.3116,171.0961
17:12:29:525,-1.17,2.904,6.411,53.4645,0.0366,0.1825,-0.2435,171.9482
17:12:29:545,-1.04,3.282,6.201,53.4505,0.0675,0.0271,-0.2244,172.7814
17:12:29:565,-0.9521,3.668,6.1031,53.6123,0.0738,-0.0582,-0.2222,173.5947
17:12:29:582,-0.906,3.986,6.246,53.6022,0.0143,-0.1337,-0.2361,174.3891
17:12:29:602,-0.894,4.235,6.663,53.6712,-0.1231,-0.2529,-0.2648,175.1671
17:12:29:624,-0.755,4.161,7.386,53.8059,-0.287,-0.2571,-0.2659,175.9309
17:12:29:646,-1.047,3.965,8.403,53.9104,-0.439,-0.0666,-0.1595,176.6799
17:12:29:664,-1.517,3.9791,9.641,54.1995,-0.5253,0.2005,0.0448,177.4136
17:12:29:685,-1.857,4.178,10.661,54.4394,-0.4774,0.4421,0.246,178.1285
17:12:29:702,-1.7081,4.286,11.5061,54.5447,-0.3189,0.44,0.2844,178.8184
17:12:29:724,-1.2581,4.271,12.272,54.6074,-0.1368,0.1825,0.1301,179.4787
17:12:29:742,-1.179,4.235,12.689,54.3587,0.0291,-0.0634,-0.0828,-179.8882
17:12:29:762,-1.763,4.283,12.308,54.0264,0.1259,0.0078,-0.1733,-179.2743
17:12:29:783,-2.391,4.1711,11.691,53.9901,0.0962,0.2548,-0.1148,-178.6699
17:12:29:810,-2.477,3.615,11.454,54.0459,-0.0879,0.2878,-0.0861,-178.0711
17:12:29:827,-2.697,2.976,11.7911,54.2091,-0.1954,0.2601,-0.0818,-177.4813
17:12:29:843,-2.903,2.492,11.865,54.4482,0.0345,0.2718,0.0874,-176.903
17:12:29:862,-2.7401,2.3681,10.769,54.4544,0.5166,0.3644,0.3801,-176.3389
17:12:29:886,-2.225,2.504,9.009,54.3547,0.9039,0.3835,0.5408,-175.7943
17:12:29:911,-1.5431,2.588,7.374,54.2392,0.8784,0.0323,0.4184,-175.2724
17:12:29:923,-1.2821,2.576,6.392,54.1197,0.4612,-0.3305,0.1216,-174.7725
17:12:29:944,-1.617,2.353,6.605,53.9286,-0.089,-0.3891,-0.0978,-174.2894
17:12:29:963,-1.9451,1.98,7.683,53.9339,-0.4529,-0.256,-0.1009,-173.8153
17:12:29:984,-2.031,1.788,8.784,54.0197,-0.5104,-0.1123,0.0364,-173.3514
17:12:30:003,-1.826,1.899,9.371,54.0046,-0.3305,-0.0591,0.2194,-172.9061
17:12:30:025,-1.172,2.047,9.318,53.9308,-0.0645,-0.0762,0.3311,-172.4878
17:12:30:046,-0.626,2.286,8.853,53.7972,0.1313,-0.1166,0.3227,-172.1019
17:12:30:067,-0.3221,2.4641,8.384,53.5255,0.2218,-0.1411,0.2556,-171.7482
17:12:30:086,-0.332,2.5931,8.14,53.62,0.2889,-0.1528,0.2056,-171.4224
17:12:30:104,-0.5351,2.8181,7.92,53.6928,0.4038,-0.1411,0.2215,-171.1178
17:12:30:126,-0.6401,3.017,7.5101,53.5984,0.5262,-0.1561,0.2641,-170.8282
17:12:30:146,-0.6161,3.249,6.9521,53.817,0.5507,-0.1891,0.2855,-170.5505
17:12:30:164,-0.66,3.4931,6.5411,53.7178,0.4432,-0.2156,0.2513,-170.2841
17:12:30:186,-0.935,3.768,6.644,53.7442,0.2485,-0.2252,0.179,-170.0278
17:12:30:204,-1.316,3.8831,7.3811,53.833,0.0323,-0.3359,0.0896,-169.778
17:12:30:223,-1.313,3.644,8.439,53.7956,-0.1848,-0.4891,0.0257,-169.5289
17:12:30:242,-0.849,3.1391,10.254,53.6453,-0.4625,-0.6381,-0.0062,-169.2809
17:12:30:263,-0.336,2.559,12.315,53.4935,-0.6402,-0.5369,0.0214,-169.0409
17:12:30:283,-0.245,2.423,13.584,53.268,-0.5349,-0.1177,0.0896,-168.8155
17:12:30:304,-0.2981,2.607,13.2491,53.0843,-0.2955,0.1973,0.1162,-168.6057
17:12:30:325,0.0911,2.66,12.131,53.0376,-0.2634,0.0952,0.0448,-168.4098
17:12:30:348,0.63,2.5211,11.6021,52.7863,-0.3891,-0.0847,-0.1425,-168.2274
17:12:30:363,0.549,2.205,11.492,52.6693,-0.3433,-0.0198,-0.3073,-168.0557
17:12:30:385,-0.006,2.126,10.826,52.7269,-0.0613,0.159,-0.3201,-167.8881
17:12:30:409,-0.066,2.114,9.864,52.6788,0.1919,0.0525,-0.2595,-167.7193
17:12:30:428,0.599,2.013,9.2171,52.7859,0.1888,-0.3954,-0.2882,-167.5499
17:12:30:446,1.176,1.9421,9.17,52.7499,0.0015,-0.6786,-0.4095,-167.3832
17:12:30:467,1.2911,1.8671,9.3131,52.5037,-0.1624,-0.5892,-0.5096,-167.2182
17:12:30:486,0.9581,1.922,9.0401,52.4377,-0.2401,-0.2529,-0.534,-167.0499
17:12:30:505,0.2351,2.274,8.595,52.4637,-0.2262,0.1185,-0.4564,-166.8732
17:12:30:524,-0.372,2.7221,8.13,52.4687,-0.073,0.2665,-0.352,-166.6853
17:12:30:546,-0.6641,3.036,7.386,52.6365,0.2197,0.193,-0.2819,-166.4875
17:12:30:569,-0.791,3.608,5.588,52.5682,0.6113,-0.2497,-0.3095,-166.0685
17:12:30:588,-0.81,3.8831,5.2001,52.5901,0.4687,-0.4678,-0.4137,-165.8465
17:12:30:607,-0.81,4.125,5.846,52.6402,0.1387,-0.5944,-0.5329,-165.6123
17:12:30:626,-0.686,4.307,7.563,52.7548,-0.1561,-0.47,-0.6086,-165.3619
17:12:30:646,-1.011,4.709,9.6791,52.904,-0.223,-0.1134,-0.6117,-165.0947
17:12:30:668,-1.5,5.147,11.2001,53.0037,-0.0708,0.176,-0.5415,-164.8104
17:12:30:686,-1.586,5.279,12.2321,53.055,0.1792,0.1686,-0.4777,-164.5101
17:12:30:705,-1.44,5.1401,12.995,53.0004,0.3697,-0.188,-0.4894,-164.1993
17:12:30:725,-1.2251,4.901,13.139,52.9187,0.4984,-0.3721,-0.499,-163.8812
17:12:30:745,-1.5071,4.7741,12.38,52.8057,0.6156,-0.0645,-0.4447,-163.557
17:12:30:766,-1.991,4.9511,10.929,52.5218,0.5559,0.3697,-0.334,-163.226
17:12:30:787,-2.175,4.5491,9.936,52.4844,0.2112,0.4995,-0.3266,-162.887
17:12:30:805,-2.441,3.522,10.331,52.6179,-0.206,0.3154,-0.3724,-162.5408
17:12:30:826,-3.2051,2.547,11.082,52.4649,-0.272,0.2644,-0.2776,-162.1873
17:12:30:846,-3.8771,2.097,11.1881,52.4187,0.026,0.2654,0.0459,-161.8289
17:12:30:865,-3.621,1.908,10.4141,52.0915,0.3559,0.125,0.4088,-161.4733
17:12:30:885,-2.6921,1.9631,9.483,51.8648,0.3846,-0.1965,0.6111,-161.134
17:12:30:904,-1.56,1.961,8.882,51.8235,0.1942,-0.2668,0.66,-160.8225
17:12:30:924,-0.9041,2.045,8.64,51.8571,0.0015,-0.0528,0.6227,-160.5482
17:12:30:944,-0.801,2.1521,8.3201,51.9798,-0.1018,0.193,0.5727,-160.3154
17:12:30:963,-1.126,2.3201,8.027,52.0233,-0.0869,0.3464,0.5877,-160.1211
17:12:30:985,-1.3631,2.6021,7.91,52.0167,0.0568,0.2813,0.7015,-159.9596
17:12:31:005,-0.992,2.856,7.5731,51.6597,0.2793,0.0622,0.8367,-159.8284
17:12:31:024,-0.344,3.0791,7.11,51.2741,0.4506,-0.1294,0.8803,-159.7304
17:12:31:044,0.158,3.266,6.624,50.8247,0.5049,-0.1507,0.826,-159.7304
17:12:31:065,0.2111,3.402,6.33,50.5324,0.4059,0.0026,0.6984,-159.7304
17:12:31:084,-0.123,3.4601,6.696,50.4429,0.2366,0.1387,0.6196,-159.7304
17:12:31:107,-0.327,3.455,7.355,50.4094,0.2112,0.1526,0.6005,-159.7304
17:12:31:124,-0.243,3.615,7.692,50.4115,0.2889,0.0536,0.5749,-159.7304
17:12:31:142,-0.1901,3.785,7.716,50.3556,0.3197,-0.0124,0.4855,-159.7304
17:12:31:164,-0.2291,3.9551,7.836,50.1962,0.2835,-0.0358,0.3833,-159.7304
17:12:31:183,0.072,3.903,8.243,49.9961,0.1845,-0.1646,0.245,-159.8257
17:12:31:207,0.5051,3.491,9.27,49.7541,-0.0368,-0.4381,0.0353,-159.9272
17:12:31:231,0.371,3.1151,11.0561,49.4408,-0.3647,-0.7414,-0.136,-160.0333
17:12:31:245,0.479,2.691,12.7541,49.2575,-0.4753,-0.7403,-0.0243,-160.1348
17:12:31:263,1.406,2.4161,13.223,49.1023,-0.2124,-0.4668,0.2428,-160.2306
17:12:31:285,2.3111,2.883,12.1931,49.1729,0.0846,-0.2912,0.3311,-160.332
17:12:31:306,2.957,3.2201,10.328,48.9338,0.0164,-0.2273,0.0609,-160.4509
17:12:31:335,2.576,3.1001,9.375,48.8351,-0.4221,-0.1837,-0.417,-160.5864
17:12:31:344,1.4321,2.648,10.0841,48.5973,-0.8712,-0.1401,-0.6852,-160.7197
17:12:31:364,0.7451,2.0351,11.217,48.3516,-0.8999,0.0153,-0.6245,-160.8249
17:12:31:383,0.345,1.9031,11.5451,48.3347,-0.538,0.0601,-0.3883,-160.8249
17:12:31:402,0.41,2.181,10.659,48.2383,-0.1305,0.0089,-0.1519,-160.8249
17:12:31:423,0.903,2.571,9.356,48.0783,0.028,-0.1028,-0.0329,-160.8249
17:12:31:442,1.197,2.8421,8.219,48.1101,0.0419,-0.0804,-0.0434,-160.8249
17:12:31:463,0.948,3.098,7.2971,48.0517,0.0399,0.1176,-0.1115,-160.8249
17:12:31:486,0.422,3.431,6.5291,47.9363,0.0399,0.3123,-0.1605,-160.8249
17:12:31:503,-0.152,3.783,6.1121,47.9073,0.0558,0.3421,-0.1786,-160.8249
17:12:31:525,-0.669,4.2071,5.933,47.7557,0.1143,0.1942,-0.1957,-160.8249
17:12:31:543,-1.088,4.6811,5.885,47.7167,0.1484,-0.0666,-0.235,-160.8249
17:12:31:565,-1.179,4.944,6.182,47.608,0.043,-0.3391,-0.2797,-160.8249
17:12:31:582,-0.947,4.884,6.9641,47.6532,-0.1805,-0.4051,-0.3021,-160.8249
17:12:31:605,-0.767,4.793,8.504,47.7577,-0.3231,-0.2028,-0.2691,-160.8249
17:12:31:625,-0.597,4.712,10.082,47.8358,-0.1581,0.0505,-0.1669,-160.8249
17:12:31:645,-0.839,5.159,10.7021,47.8856,0.2133,0.1048,-0.0828,-160.8249
17:12:31:663,-0.9641,5.696,10.4,47.8352,0.4378,-0.0496,-0.0381,-160.8249
17:12:31:683,-0.602,5.832,10.139,47.7218,0.3473,-0.1858,-0.0562,-160.8249
17:12:31:703,-0.552,5.72,10.62,47.7557,0.1037,-0.091,-0.0754,-160.8249
17:12:31:723,-0.954,5.4971,11.4731,47.797,0.0334,0.2835,0.03,-160.8249
17:12:31:745,-1.148,5.394,11.729,47.8538,0.2175,0.524,0.2247,-160.8249
17:12:31:762,-0.6161,4.977,11.2841,47.8218,0.3516,0.2898,0.2695,-160.8249
17:12:31:783,-0.1061,4.159,10.932,47.8493,0.1984,-0.1592,0.0789,-160.8249
17:12:31:821,-0.482,3.0071,11.126,47.8644,-0.0124,-0.2199,-0.1072,-160.8249
17:12:31:822,-1.368,2.052,11.415,47.9216,-0.0485,-0.0113,-0.0776,-160.8249
17:12:31:842,-1.8371,1.523,11.262,48.0914,0.0707,0.1048,0.1896,-160.8249
17:12:31:862,-1.2251,1.29,10.335,48.0384,0.2281,0.1005,0.5206,-160.8249
17:12:31:894,-0.3221,1.6691,9.146,47.8194,0.2569,0.0547,0.6622,-160.8249
17:12:31:904,0.3071,2.109,8.0561,47.4833,0.1176,0.0707,0.5983,-160.8249
17:12:31:924,0.458,2.444,7.494,47.2357,-0.1081,0.2112,0.4716,-160.8249
17:12:31:944,0.3071,2.643,7.5491,47.0114,-0.2273,0.3911,0.4141,-160.8249
17:12:31:963,0.3311,2.756,7.877,46.9575,-0.1464,0.3708,0.4249,-160.8249
17:12:31:982,0.666,2.8991,8.078,47.0297,0.0483,0.1015,0.3919,-160.8249
17:12:32:003,0.75,3.098,8.109,46.86,0.2601,-0.1943,0.2982,-160.8249
17:12:32:023,0.8291,3.014,7.9031,46.6079,0.4612,-0.3465,0.2311,-160.8249
17:12:32:042,0.8501,3.062,7.3361,46.4334,0.5804,-0.3561,0.2067,-160.8249
17:12:32:062,0.69,3.4481,6.821,46.1931,0.5038,-0.2582,0.1854,-160.9196
17:12:32:083,0.491,3.759,6.78,46.1942,0.3271,-0.0688,0.1598,-161.0157
17:12:32:103,0.2111,3.9341,7.211,46.4072,0.209,0.0547,0.1418,-161.1082
17:12:32:122,0.072,4.1681,7.635,46.5495,0.1537,-0.007,0.1108,-161.1082
17:12:32:144,0.206,4.271,7.9511,46.6538,0.1154,-0.1485,0.0459,-161.1082
17:12:32:166,0.443,4.056,8.449,46.8244,0.0195,-0.3444,-0.0881,-161.1082
17:12:32:183,0.486,3.7181,9.5531,46.8638,-0.1986,-0.5679,-0.2414,-161.1082
17:12:32:204,0.29,3.2081,10.596,46.96,-0.4625,-0.4965,-0.2424,-161.1082
17:12:32:223,-0.138,2.9951,11.648,46.8085,-0.6328,-0.1794,0.0098,-161.1082
17:12:32:244,0.3791,3.1871,12.462,46.492,-0.538,-0.0241,0.4823,-161.1082
17:12:32:265,2.363,3.3371,12.447,46.0241,-0.2742,-0.2135,0.7238,-161.1082
17:12:32:283,3.783,3.44,11.58,45.6408,-0.0847,-0.4019,0.4631,-161.1082
17:12:32:303,3.5921,3.261,10.391,45.5273,-0.1123,-0.3519,-0.0551,-161.1082
17:12:32:326,2.057,2.928,9.486,45.5727,-0.3539,-0.0582,-0.3787,-161.2143
17:12:32:346,0.924,2.514,9.464,45.5085,-0.5488,0.3953,-0.3403,-161.3058
17:12:32:364,0.5051,2.375,9.7031,45.411,-0.4956,0.5783,-0.1786,-161.3058
17:12:32:384,0.5291,2.5571,9.287,45.2911,-0.3039,0.3761,-0.0839,-161.3058
17:12:32:404,1.133,2.595,8.4011,45.2235,-0.221,-0.0144,-0.1072,-161.3058
17:12:32:424,1.3751,2.432,7.889,45.2356,-0.3124,-0.19,-0.2606,-161.3058
17:12:32:445,0.443,2.3441,7.9391,45.1975,-0.3816,-0.0219,-0.3234,-161.3058
17:12:32:463,-0.5711,2.6171,8.142,45.1919,-0.2167,0.3091,-0.1647,-161.3058
17:12:32:485,-0.779,3.1751,7.953,45.0775,0.1207,0.3783,0.0385,-161.3058
17:12:32:504,-0.128,3.797,7.424,44.9791,0.3356,-0.0166,0.0448,-161.3058
17:12:32:524,0.786,4.2191,7.182,44.8178,0.2164,-0.5775,-0.2637,-161.3058
17:12:32:552,1.032,4.211,7.668,44.6957,-0.2145,-0.8084,-0.667,-161.3058
17:12:32:562,0.453,4.001,8.889,44.6284,-0.6509,-0.3732,-0.8385,-161.3058
17:12:32:583,-0.758,4.0271,10.367,44.6163,-0.703,0.4793,-0.6234,-161.3058
17:12:32:602,-1.3781,4.707,11.399,44.6511,-0.2625,0.9199,-0.0935,-161.2063
17:12:32:624,-0.573,5.459,11.2451,44.7463,0.4218,0.7847,0.3077,-161.0884
17:12:32:643,0.4481,6.249,10.359,44.7088,0.9773,0.4315,0.3185,-160.9795
17:12:32:663,0.8381,6.591,9.459,44.5186,1.038,-0.1368,-0.1445,-160.9795
17:12:32:682,0.3911,5.993,9.1,44.3839,0.623,-0.2837,-0.6097,-160.9795
17:12:32:702,-0.6041,5.0231,9.735,44.3799,0.2144,0.3037,-0.7693,-160.9795
17:12:32:722,-2.1251,4.412,10.422,44.5689,0.0473,1.0955,-0.5574,-160.851
17:12:32:742,-3.164,4.4269,10.7501,44.8061,0.1398,1.4574,-0.0403,-160.6757
17:12:32:763,-2.5991,4.542,10.628,45.0125,0.3421,1.1466,0.4514,-160.4698
17:12:32:784,-0.7241,4.0391,9.9401,45.114,0.4815,0.5963,0.6622,-160.2647
17:12:32:805,0.7901,3.1241,8.597,45.0896,0.4645,0.308,0.4907,-160.0902
17:12:32:823,0.7811,2.5691,7.367,45.0626,0.176,0.1611,0.1023,-159.9603
17:12:32:854,-1.1981,1.2521,8.0389,45.0819,-0.9626,-0.1262,-0.3021,-159.8595
17:12:32:869,-1.701,0.867,9.6,45.0856,-1.1925,-0.0209,-0.0881,-159.7533
17:12:32:890,-1.38,0.9,10.6991,45.1953,-1.0403,0.0302,0.228,-159.6209
17:12:32:910,-0.449,1.178,10.92,45.5083,-0.7232,0.0164,0.4333,-159.47
17:12:32:931,0.1991,1.523,10.62,45.6329,-0.4071,0.0047,0.4801,-159.321
17:12:32:949,0.441,1.8461,9.8951,45.614,-0.0698,0.0419,0.5089,-159.1893
17:12:32:968,0.438,2.361,8.7671,45.554,0.2984,0.0909,0.5983,-159.0782
17:12:32:989,0.7091,2.8421,7.4381,45.466,0.5921,0.0143,0.66,-158.986
17:12:33:009,1.1231,3.311,6.392,45.4959,0.6816,-0.1997,0.5675,-158.986
17:12:33:030,1.5131,3.704,6.1361,45.4671,0.6017,-0.4615,0.3109,-158.986
17:12:33:048,1.5851,3.986,6.4541,45.4106,0.4506,-0.6051,-0.0446,-158.986
17:12:33:068,0.9911,4.2641,6.969,45.5512,0.2846,-0.5625,-0.4,-158.986
17:12:33:087,-0.0131,4.1801,7.568,45.5376,0.1643,-0.3732,-0.6629,-158.986
17:12:33:108,-1.071,3.9431,8.001,45.6295,0.1185,-0.124,-0.7235,-158.986
17:12:33:128,-1.818,3.891,8.633,45.8197,0.0707,-0.106,-0.6288,-158.8902
17:12:33:147,-1.6031,3.546,9.579,45.857,-0.0315,-0.4029,-0.534,-158.7397
17:12:33:166,-0.813,2.885,10.5611,46.0927,-0.2082,-0.6647,-0.4968,-158.5382
17:12:33:187,-0.432,2.447,11.64,46.4917,-0.3326,-0.5668,-0.3883,-158.302
17:12:33:208,-0.15,2.3561,12.1841,46.6949,-0.2827,-0.1613,-0.1775,-157.7895
17:12:33:228,0.374,2.658,11.8631,46.6688,-0.2295,0.0494,-0.0616,-157.5361
17:12:33:247,1.47,2.444,10.968,46.7655,-0.388,-0.0645,-0.2094,-157.2971
17:12:33:266,1.7651,2.1521,10.898,47.1034,-0.7871,-0.2423,-0.6192,-157.0758
17:12:33:286,0.7661,1.934,11.8871,47.591,-0.9626,0.0291,-0.8533,-156.8598
17:12:33:306,-0.5351,1.7171,12.342,48.0046,-0.6966,0.3751,-0.7767,-156.6289
17:12:33:326,-1.1,1.7141,11.753,48.407,-0.3369,0.2526,-0.4914,-156.3845
17:12:33:357,-0.547,1.8821,10.697,48.5047,-0.2432,-0.0975,-0.1328,-156.1339
17:12:33:366,0.558,2.262,10.149,48.526,-0.256,-0.1709,0.1204,-155.8916
17:12:33:385,1.2641,2.636,9.866,48.5965,-0.1603,-0.0155,0.1258,-155.6706
17:12:33:415,0.951,2.94,9.067,48.6977,0.0377,0.2112,-0.0307,-155.4743
17:12:33:425,-0.0371,3.1031,7.9961,48.7722,0.2729,0.3548,-0.1371,-155.2944
17:12:33:447,-0.729,3.273,6.7871,48.8922,0.4857,0.3803,-0.1552,-155.1174
17:12:33:465,-1.205,3.515,5.724,48.968,0.5635,0.275,-0.184,-154.9337
17:12:33:485,-1.658,3.78,5.1881,48.9528,0.425,0.0111,-0.2882,-154.7364
17:12:33:505,-2.0531,3.8591,5.5781,48.9749,0.125,-0.2837,-0.3926,-154.5171
17:12:33:525,-1.967,3.596,6.6101,48.9043,-0.1507,-0.4019,-0.4128,-154.2678
17:12:33:547,-1.718,3.474,7.956,49.0957,-0.3039,-0.3359,-0.3638,-153.9903
17:12:33:564,-1.289,3.3971,9.414,49.2366,-0.2975,-0.1581,-0.2287,-153.6946
17:12:33:584,-0.9041,3.5411,10.3691,49.426,-0.0964,0.1803,-0.0903,-153.3948
17:12:33:604,-0.753,3.936,10.589,49.5252,0.224,0.5038,0.0194,-153.1023
17:12:33:624,-0.5689,4.3811,10.067,49.3891,0.4261,0.4815,0.0151,-152.823
17:12:33:644,-0.818,5.033,9.318,49.3479,0.3484,0.3112,-0.1286,-152.5586
17:12:33:664,-1.323,5.147,9.198,49.4401,0.1122,0.275,-0.2478,-152.3031
17:12:33:683,-2.2181,5.162,9.653,49.7356,-0.0858,0.3378,-0.2222,-152.0465
17:12:33:704,-2.826,5.0471,10.515,49.9253,-0.1954,0.358,-0.0296,-151.7808
17:12:33:723,-2.4341,4.1711,11.664,50.1815,-0.2252,0.2036,0.1513,-151.5082
17:12:33:744,-2.0411,3.266,12.5171,50.2306,-0.1752,0.0707,0.2087,-151.2402
17:12:33:763,-2.082,2.466,12.8471,50.1163,0.0132,0.0855,0.2417,-150.9844
17:12:33:784,-2.3381,1.899,12.426,50.2389,0.2611,0.0249,0.3387,-150.741
17:12:33:803,-2.024,1.487,11.5331,50.3605,0.3516,-0.157,0.461,-150.5087
17:12:33:829,-1.3391,1.269,10.7831,50.2253,0.2409,-0.2295,0.5206,-150.2908
17:12:33:843,-0.765,1.1921,10.134,50.0942,0.0898,-0.0996,0.4918,-150.0927
17:12:33:874,-0.5689,1.326,9.306,49.8449,-0.0624,0.1335,0.4141,-149.9157
17:12:33:883,-0.9041,1.731,8.499,49.6211,-0.1475,0.425,0.4088,-149.7573
17:12:33:903,-1.256,2.2391,7.9151,49.7548,-0.0964,0.5687,0.5163,-149.6129
17:12:33:924,-1.1171,2.6531,7.4981,49.992,0.0356,0.4133,0.6643,-149.4821
17:12:33:943,-0.513,2.993,7.328,50.2181,0.1845,0.0579,0.7558,-149.37
17:12:33:964,0.3401,3.141,7.187,50.3419,0.3303,-0.2432,0.726,-149.37
17:12:33:983,0.807,3.278,7.161,50.248,0.4485,-0.3986,0.5823,-149.37
17:12:34:002,0.932,3.203,7.34,50.0665,0.5613,-0.4476,0.3737,-149.37
17:12:34:023,0.582,3.1601,7.2851,49.6961,0.6251,-0.371,0.1757,-149.37
17:12:34:043,-0.03,3.122,7.458,49.4812,0.5592,-0.3337,0.0587,-149.37
17:12:34:062,-0.212,2.835,7.841,49.2896,0.4218,-0.3519,-0.003,-149.37
17:12:34:082,-0.36,2.7821,8.205,49.1318,0.341,-0.1986,-0.021,-149.37
17:12:34:101,-0.341,3.009,8.727,49.2877,0.3464,-0.0474,-0.0446,-149.37
17:12:34:122,-0.147,2.966,8.9561,49.3898,0.3048,-0.1337,-0.1541,-149.37
17:12:34:142,-0.0131,2.696,9.021,49.3878,0.0579,-0.3519,-0.3169,-149.37
17:12:34:161,-0.276,2.6981,9.3161,49.4933,-0.2859,-0.3508,-0.3158,-149.37
17:12:34:182,-0.15,3.0671,9.957,49.3355,-0.4753,-0.1368,-0.087,-149.37
17:12:34:202,0.704,3.5741,10.5731,49.2082,-0.5147,-0.1273,0.0715,-149.37
17:12:34:222,1.796,3.687,10.889,49.1405,-0.5434,-0.2507,-0.0657,-149.37
17:12:34:243,2.327,3.3611,10.8431,49.0969,-0.635,-0.1837,-0.4553,-149.37
17:12:34:262,1.355,2.7461,11.03,49.0506,-0.7158,0.077,-0.8778,-149.37
17:12:34:282,-0.497,2.2961,11.499,48.9863,-0.7201,0.1675,-0.9406,-149.37
17:12:34:304,-1.55,2.085,11.964,48.926,-0.5764,0.1643,-0.6214,-149.37
17:12:34:321,-1.359,2.102,11.901,48.9863,-0.2677,0.0707,-0.1605,-149.2661
17:12:34:342,-0.176,2.3321,10.7951,48.935,-0.0326,-0.0921,0.0715,-149.1556
17:12:34:368,0.5681,2.6021,9.306,48.9038,-0.0975,-0.157,-0.0201,-149.0534
17:12:34:382,0.288,2.7581,8.892,48.8889,-0.4008,-0.1848,-0.2711,-148.9613
17:12:34:402,-0.741,2.519,9.603,48.836,-0.5859,-0.1655,-0.3946,-148.8687
17:12:34:422,-1.493,2.423,10.0001,48.7608,-0.3391,-0.0049,-0.2435,-148.7623
17:12:34:443,-1.617,2.598,9.1811,48.6024,0.2761,0.1888,0.0843,-148.6415
17:12:34:462,-1.088,3,7.448,48.3781,0.888,0.1845,0.3088,-148.5166
17:12:34:482,-0.456,3.639,5.801,48.1281,1.0636,-0.1965,0.2078,-148.398
17:12:34:502,-0.147,3.998,4.9511,48.1124,0.7667,-0.587,-0.1106,-148.2899
17:12:34:529,-0.267,3.7781,5.5811,48.1609,0.3228,-0.6339,-0.3861,-148.1887
17:12:34:543,-0.5089,3.4931,6.78,48.3393,0.0345,-0.4381,-0.4788,-148.0786
17:12:34:562,-0.7121,3.491,7.788,48.6386,-0.0793,-0.1687,-0.4223,-147.9476
17:12:34:584,-0.7241,3.603,8.451,48.8409,-0.0964,0.0153,-0.3531,-147.7963
17:12:34:602,-1.179,4.077,8.76,48.9128,-0.0474,0.1632,-0.2925,-147.6318
17:12:34:623,-1.8401,4.6571,8.715,48.8431,0.028,0.2197,-0.1818,-147.4578
17:12:34:645,-2.0531,4.9871,8.7671,48.5535,-0.0315,0.0846,-0.0796,-147.2746
17:12:34:662,-2.031,5.004,9.632,48.3658,-0.205,-0.1123,0.012,-147.0853
17:12:34:684,-1.7681,4.7359,10.934,48.1628,-0.2657,-0.1368,0.1779,-146.8941
17:12:34:703,-1.083,4.5821,12.119,48.1843,-0.1763,0.026,0.3631,-146.7088
17:12:34:723,-0.3701,4.3451,12.359,48.152,-0.0656,0.3186,0.3578,-146.5398
17:12:34:743,-0.7031,3.8621,12.284,48.0567,-0.1422,0.3421,0.2641,-146.3926
17:12:34:763,-1.2461,3.024,12.263,48.0654,-0.1869,0.4016,0.362,-146.26
17:12:34:782,-1.6241,2.576,12.165,48.0679,0.0069,0.4847,0.5461,-146.1373
17:12:34:802,-1.428,2.444,11.94,48.1511,0.0931,0.0132,0.5929,-146.0269
17:12:34:824,-0.482,1.877,12.186,48.3301,-0.0539,-0.4922,0.5334,-145.9315
17:12:34:842,0.3311,1.343,12.213,48.459,-0.1358,-0.3411,0.4781,-145.9315
17:12:34:864,0.4841,1.118,11.145,48.3752,-0.1123,0.2463,0.4833,-145.9315
17:12:34:883,0.051,1.539,9.375,48.2081,-0.172,0.7369,0.5259,-145.9315
17:12:34:903,0.024,1.884,8.195,48.1189,-0.3784,0.8455,0.5259,-145.9315
17:12:34:922,-0.253,2.222,8.123,47.7816,-0.4103,0.7667,0.5345,-145.9315
17:12:34:943,-0.626,2.619,8.013,47.4534,-0.0751,0.5538,0.6494,-145.9315
17:12:34:963,-0.413,2.9141,7.182,47.3667,0.3666,0.291,0.7781,-145.9315
17:12:34:983,0.213,3.1991,6.3851,47.1641,0.5635,-0.0474,0.7644,-145.9315
17:12:35:004,0.69,3.357,6.191,47.3035,0.5112,-0.3241,0.5642,-145.9315
17:12:35:023,0.5531,3.1361,6.909,47.5099,0.4102,-0.404,0.294,-146.035
17:12:35:043,-0.1541,2.8181,7.757,47.2999,0.4485,-0.2912,0.1588,-146.1496
17:12:35:063,-0.885,2.7251,8.202,47.0608,0.5889,-0.1283,0.2002,-146.2578
17:12:35:082,-1.086,2.787,8.406,46.8602,0.6731,-0.0986,0.3194,-146.3524
17:12:35:103,-0.849,2.928,8.511,46.6286,0.6933,-0.1081,0.3769,-146.3524
17:12:35:124,-0.578,3.117,8.394,46.5662,0.6634,-0.0741,0.3598,-146.3524
17:12:35:143,-0.2171,3.3161,8.3891,46.4819,0.5177,-0.1166,0.2801,-146.4452
17:12:35:162,0.264,3.201,8.6381,46.3181,0.2101,-0.2816,0.1173,-146.5444
17:12:35:189,0.695,2.811,9.3131,46.1119,-0.1858,-0.3263,0.0066,-146.6504
17:12:35:205,0.956,2.897,10.17,45.8452,-0.4487,-0.073,0.0566,-146.7626
17:12:35:223,1.26,3.098,10.584,45.6743,-0.4615,0.2463,0.098,-146.8825
17:12:35:243,1.343,3.407,10.343,45.5426,-0.4071,0.1803,0.0385,-147.0135
17:12:35:264,1.76,3.366,9.974,45.4445,-0.5232,-0.1337,-0.1764,-147.1539
17:12:35:284,1.628,2.655,10.3121,45.3809,-0.8137,-0.2443,-0.5033,-147.2985
17:12:35:314,0.7781,1.7261,11.31,45.3484,-1.017,0.0206,-0.6011,-147.4332
17:12:35:325,-0.3821,1.322,12.675,45.4368,-0.9307,0.258,-0.3479,-147.5439
17:12:35:345,-0.662,1.374,13.268,45.3302,-0.5807,0.1697,0.0991,-147.5439
17:12:35:363,0.374,1.616,12.371,45.0992,-0.1815,0.0302,0.4801,-147.5439
17:12:35:385,1.305,2.016,10.4531,44.8567,0.0632,0.1133,0.6238,-147.6408
17:12:35:404,1.499,2.6141,8.4341,44.3481,0.0153,0.2207,0.5291,-147.7565
17:12:35:422,1.023,3.017,7.637,43.9253,-0.2486,0.2164,0.261,-147.8895
17:12:35:442,-0.116,3.038,8.157,43.7687,-0.3539,0.0835,0.096,-148.0292
17:12:35:462,-0.861,3.0911,8.4731,43.78,-0.0879,-0.0368,0.2311,-148.1599
17:12:35:483,-0.6071,3.551,7.886,43.6282,0.3303,-0.1155,0.4696,-148.2797
17:12:35:502,0.2951,3.96,6.7661,43.3977,0.5485,-0.1805,0.495,-148.4008
17:12:35:521,0.953,4.2761,6.0761,42.9471,0.4474,-0.2071,0.2971,-148.536
17:12:35:542,1.0391,4.448,6.44,42.5563,0.1749,-0.157,-0.019,-148.6897
17:12:35:561,0.3551,4.187,7.407,42.3978,-0.0676,-0.0645,-0.2457,-148.8522
17:12:35:582,-0.2861,3.948,8.624,42.3503,-0.1581,0.0568,-0.2094,-149.0006
17:12:35:601,-0.42,3.914,9.519,42.334,0.0153,0.2633,0.0001,-149.1234
17:12:35:622,-0.2741,4.2161,9.2921,42.1575,0.3548,0.4953,0.1811,-149.2273
17:12:35:642,-0.332,4.767,8.4941,41.9065,0.5144,0.4517,0.2206,-149.3247
17:12:35:662,-0.3,5.004,8.1761,41.5663,0.3421,0.2122,0.1449,-149.4219
17:12:35:681,-0.253,4.676,9.146,41.3628,-0.0049,0.028,0.0672,-149.5185
17:12:35:702,-0.267,4.142,10.9631,41.2524,-0.1646,0.0314,0.147,-149.6114
17:12:35:721,0.2231,4.149,12.0881,41.3521,-0.0219,0.2654,0.3227,-149.6114
17:12:35:742,1.001,4.01,11.7461,41.542,0.109,0.4782,0.2503,-149.71
17:12:35:762,0.347,3.476,11.387,41.4751,-0.1337,0.2366,-0.0711,-149.8218
17:12:35:783,-1.019,2.5331,11.7191,41.4866,-0.2912,0.2292,-0.1456,-149.9315
17:12:35:803,-1.9961,1.956,11.748,41.3139,-0.0304,0.3931,0.1534,-149.9315
17:12:35:831,-1.9361,2.0021,10.896,41.0683,0.3271,0.2303,0.5653,-149.9315
17:12:35:850,0.726,2.3771,8.681,41.1455,0.1398,-0.3604,0.527,-150.0232
17:12:35:867,1.185,2.277,8.3441,40.9756,-0.1932,-0.1709,0.2524,-150.1367
17:12:35:890,0.917,2.1071,8.355,40.8703,-0.4593,0.0898,0.0087,-150.266
17:12:35:907,0.314,2.037,8.399,40.9774,-0.5158,0.3293,-0.0839,-150.3962
17:12:35:927,-0.288,2.267,8.238,40.7934,-0.3189,0.4283,-0.0371,-150.5146
17:12:35:946,-0.564,2.703,7.7111,40.5749,0.0078,0.2622,0.0641,-150.6179
17:12:35:966,-0.3551,3.065,6.938,40.4377,0.2155,-0.0921,0.0843,-150.7096
17:12:35:987,0.027,3.258,6.6461,40.1169,0.1739,-0.437,-0.021,-150.7096
17:12:36:006,0.1181,3.1151,7.173,39.8524,0.0408,-0.5264,-0.1818,-150.7096
17:12:36:026,-0.188,2.828,8.2091,39.6176,0.0047,-0.3827,-0.2606,-150.7096
17:12:36:046,-0.564,2.753,9.119,39.5563,0.1293,-0.2443,-0.2339,-150.7096
17:12:36:066,-0.758,2.918,9.3131,39.5429,0.3123,-0.2369,-0.1818,-150.7096
17:12:36:088,-0.6311,3.0311,9.17,39.3437,0.3718,-0.338,-0.1712,-150.7096
17:12:36:106,-0.564,3.1871,9.059,39.3599,0.325,-0.2859,-0.2116,-150.7096
17:12:36:126,-0.693,3.278,9.0881,39.4381,0.1877,-0.1783,-0.2702,-150.7096
17:12:36:145,-0.767,3.153,9.486,39.3774,-0.0964,-0.2135,-0.2956,-150.7096
17:12:36:165,-0.588,2.907,10.6631,39.4576,-0.4199,-0.272,-0.217,-150.7096
17:12:36:186,-0.116,2.918,12.1481,39.4027,-0.503,-0.1316,-0.0403,-150.7096
17:12:36:206,0.702,3.0191,12.66,39.1654,-0.2944,0.0525,0.0769,-150.7096
17:12:36:225,1.554,3.285,12.023,39.0518,-0.1071,0.0004,-0.019,-150.7096
17:12:36:244,1.932,3.213,11.085,39.0282,-0.2167,-0.2252,-0.367,-150.7096
17:12:36:264,1.415,2.361,10.9031,38.9638,-0.5497,-0.2922,-0.7426,-150.7096
17:12:36:284,0.149,1.568,11.466,38.7807,-0.7073,-0.0858,-0.7543,-150.7096
17:12:36:304,-0.839,1.482,11.8391,38.5508,-0.487,0.1185,-0.4425,-150.7096
17:12:36:323,-0.837,1.776,11.202,38.0919,-0.1081,0.0727,-0.0648,-150.7096
17:12:36:343,0.1391,2.0089,10.034,37.7534,0.0877,-0.1006,0.1854,-150.7096
17:12:36:363,1.085,2.114,9.378,37.7234,0.0727,-0.155,0.2343,-150.7096
17:12:36:392,1.365,2.301,9.0791,37.9172,0.0516,-0.0751,0.1279,-150.7096
17:12:36:403,0.8621,2.5931,8.4731,38.1968,0.0803,0.0749,-0.0318,-150.7096
17:12:36:423,-0.032,2.918,7.8311,38.367,0.0972,0.1675,-0.1072,-150.7096
17:12:36:442,-0.71,3.117,7.376,38.0991,0.142,0.2218,-0.0861,-150.7096
17:12:36:463,-1.007,3.354,7.0151,37.6779,0.2346,0.2261,-0.0253,-150.7096
17:12:36:482,-0.767,3.462,6.732,37.2943,0.2835,0.0983,-0.0136,-150.7096
17:12:36:507,-0.4151,3.488,6.818,37.0405,0.2485,-0.0826,-0.0828,-150.6146
17:12:36:521,-0.236,3.462,7.206,36.9211,0.191,-0.1262,-0.1658,-150.5146
17:12:36:543,-0.26,3.558,7.802,36.7821,0.1409,-0.0528,-0.1914,-150.4095
17:12:36:562,-0.188,3.6131,8.4701,36.6797,0.1708,0.0909,-0.1402,-150.2971
17:12:36:581,-0.188,3.9,8.9831,36.6755,0.2984,0.2133,-0.0742,-150.1794
17:12:36:602,-0.3461,4.2641,8.9231,36.7135,0.4793,0.3336,-0.0168,-150.0598
17:12:36:621,-0.528,4.6211,8.607,36.7727,0.5464,0.2932,0.0203,-149.9406
17:12:36:642,-0.6401,4.824,8.648,36.795,0.3857,0.143,0.0172,-149.8229
17:12:36:661,-0.593,4.4291,9.3851,36.6661,0.1154,0.1665,0.0268,-149.706
17:12:36:682,-0.81,4.202,10.74,36.4405,-0.0326,0.3601,0.1194,-149.5898
17:12:36:702,-0.9971,4.326,11.6861,36.4484,0.0494,0.506,0.2779,-149.475
17:12:36:721,-0.5689,4.209,11.7071,36.525,0.1697,0.3814,0.3717,-149.3665
17:12:36:742,0.3641,3.3281,11.478,36.6474,0.0579,-0.0528,0.2716,-149.2709
17:12:36:761,0.1871,2.409,11.252,36.8435,-0.0869,0.026,0.1429,-149.2709
17:12:36:782,-1.107,2.195,10.8311,36.9236,0.077,0.4654,0.2215,-149.2709
17:12:36:801,-1.598,2.507,9.9791,36.8461,0.2633,0.325,0.3908,-149.2709
17:12:36:822,-0.846,2.571,8.9801,36.8883,0.1122,-0.3274,0.4099,-149.2709
17:12:36:842,0.338,2.306,9.15,37.0047,-0.3209,-0.7477,0.279,-149.2709
17:12:36:861,0.951,1.908,9.9551,36.9136,-0.6786,-0.6583,0.1034,-149.2709
17:12:36:881,0.788,1.496,10.292,36.6567,-0.769,-0.1507,-0.0253,-149.2709
17:12:36:901,-0.3101,1.7531,9.974,36.272,-0.5614,0.4048,0.0385,-149.2709
17:12:36:922,-0.9281,2.251,8.949,35.8641,-0.1368,0.6198,0.2386,-149.2709
17:12:36:941,-0.9611,2.811,7.496,35.6113,0.2388,0.4421,0.3609,-149.2709
17:12:36:972,-0.806,3.381,6.2531,35.7473,0.4122,0.0494,0.3939,-149.2709
17:12:36:982,-0.2501,3.663,5.621,35.7598,0.3772,-0.3561,0.3439,-149.2709
17:12:37:001,0.288,3.7421,5.765,35.7738,0.1953,-0.6189,0.2332,-149.2709
17:12:37:021,0.4241,3.926,6.7751,35.8148,0.0206,-0.6754,0.1407,-149.2709
17:12:37:043,0.458,3.998,8.1761,35.7406,0.0271,-0.587,0.0459,-149.2709
17:12:37:063,0.369,3.8831,9.1721,35.9047,0.2186,-0.4231,-0.0796,-149.2709
17:12:37:082,0.173,3.6251,9.2321,35.994,0.4623,-0.2955,-0.2393,-149.2709
17:12:37:102,-0.264,3.5411,8.8631,36.0388,0.4964,-0.2859,-0.4011,-149.2709
17:12:37:123,-0.695,3.515,9.0881,35.9546,0.2804,-0.3977,-0.5213,-149.2709
17:12:37:143,-0.674,3.1151,10.022,35.9417,-0.0337,-0.439,-0.6032,-149.2709
17:12:37:170,-0.7241,2.519,11.336,35.6974,-0.3252,-0.2986,-0.5745,-149.2709
17:12:37:183,-0.8321,2.234,12.804,35.3829,-0.4381,-0.0283,-0.4011,-149.2709
17:12:37:202,-0.564,2.4611,13.5371,35.1678,-0.2432,0.209,-0.169,-149.2709
17:12:37:223,0.23,2.775,13.151,35.0216,-0.0144,0.2856,-0.0637,-149.2709
17:12:37:243,1.094,2.679,11.9441,35.0171,0.0399,0.3708,-0.1425,-149.2709
17:12:37:262,1.097,2.4731,10.9991,35.1651,-0.0443,0.4645,-0.3563,-149.2709
17:12:37:284,0.302,2.298,10.2611,35.3481,-0.1134,0.5761,-0.5426,-149.2709
17:12:37:304,-0.717,2.102,9.3731,35.4012,-0.0751,0.7571,-0.5457,-149.2709
17:12:37:323,-1.4621,2.052,8.492,35.3948,-0.0613,0.7539,-0.3383,-149.2709
17:12:37:345,-1.596,2.411,8.1281,35.511,-0.1624,0.4335,-0.0434,-149.2709
17:12:37:363,-0.7391,2.48,8.475,35.4317,-0.2955,-0.0676,0.1513,-149.2709
17:12:37:385,0.302,2.466,9.126,35.3412,-0.322,-0.4295,0.1833,-149.2709
17:12:37:408,0.867,2.571,9.296,35.2451,-0.1815,-0.4242,0.1002,-149.2709
17:12:37:423,0.7691,2.861,8.492,35.0561,0.0175,-0.1081,-0.0626,-149.2709
17:12:37:443,-0.114,3.2681,7.494,34.8939,0.0813,0.125,-0.2201,-149.2709
17:12:37:463,-1.04,3.467,6.8261,34.8485,0.0366,0.1324,-0.2839,-149.2709
17:12:37:485,-1.512,3.563,6.617,34.8561,-0.0241,0.0536,-0.2403,-149.2709
17:12:37:502,-1.514,3.579,6.68,34.7925,-0.106,-0.091,-0.1797,-149.2709
17:12:37:522,-1.2131,3.6341,7.1441,34.9177,-0.205,-0.1805,-0.136,-149.2709
17:12:37:543,-0.9011,3.759,7.9751,34.7929,-0.2454,-0.2039,-0.1222,-149.2709
17:12:37:564,-0.6,3.8021,8.841,34.719,-0.1954,-0.1974,-0.1052,-149.2709
17:12:37:584,-0.3101,3.879,9.11,34.7176,-0.023,-0.0049,-0.0637,-149.2709
17:12:37:602,-0.5351,4.262,8.648,34.4937,0.1697,0.2633,-0.0253,-149.2709
17:12:37:622,-1.095,4.578,8.0201,34.3838,0.193,0.2952,0.0161,-149.2709
17:12:37:643,-1.536,4.5941,7.922,34.2911,0.0803,0.2687,0.063,-149.2709
17:12:37:663,-2.259,4.58,8.4971,34.3702,-0.04,0.3006,0.1438,-149.2709
17:12:37:684,-2.714,4.3361,9.758,34.5983,-0.0656,0.2164,0.3429,-149.2709
17:12:37:703,-1.773,3.6581,10.901,34.7304,0.0111,0.0727,0.5642,-149.2709
17:12:37:724,-0.4181,3.464,11.738,34.7481,-0.0198,-0.0463,0.5706,-149.2709
17:12:37:743,0.572,3.285,12.5861,34.6212,-0.2731,-0.0602,0.2971,-149.2709
17:12:37:764,0.3641,2.48,13.7711,34.4073,-0.5082,0.1739,-0.0722,-149.2709
17:12:37:782,-0.717,1.695,14.4971,34.2093,-0.404,0.5485,-0.12,-149.2709
17:12:37:802,-1.3901,1.4171,13.661,34.2172,0.0835,0.8592,0.212,-149.2709
17:12:37:842,-1.028,1.671,11.42,34.1519,0.5921,0.8689,0.5675,-149.2709
17:12:37:844,-0.4391,2.162,8.676,34.2003,0.738,0.5963,0.5929,-149.2709
17:12:37:862,-0.185,2.5571,6.5261,34.1471,0.4602,0.3186,0.3503,-149.3782
17:12:37:882,-0.6521,2.681,5.928,34.1559,-0.0582,0.1302,0.063,-149.4991
17:12:37:912,-1.287,2.411,6.9,34.4202,-0.5232,-0.0102,-0.0307,-149.6183
17:12:37:923,-1.359,2.1041,8.262,34.6442,-0.7116,-0.0708,0.0481,-149.7239
17:12:37:943,-1.1,1.997,9.438,34.6742,-0.6328,-0.1145,0.1885,-149.8206
17:12:37:970,-0.693,2.0021,10.07,34.427,-0.3508,-0.1114,0.3248,-149.9183
17:12:37:985,-0.516,2.1791,9.9551,34.1278,0.0314,-0.0454,0.4312,-150.0238
17:12:38:004,-0.3821,2.351,9.213,33.9382,0.3612,-0.0517,0.5387,-150.1396
17:12:38:023,-0.1571,2.705,8.418,33.919,0.5613,-0.1561,0.6302,-150.2666
17:12:38:042,0.149,3.0791,7.7831,33.919,0.6964,-0.205,0.6557,-150.4079
17:12:38:062,0.407,3.3521,7.2851,34.111,0.7474,-0.239,0.56,-150.5627
17:12:38:083,0.651,3.395,7.0631,34.2726,0.6421,-0.3678,0.3407,-150.7296
17:12:38:102,0.2539,3.474,7.257,34.5543,0.441,-0.4305,0.0289,-150.9048
17:12:38:123,-0.585,3.359,8.066,34.7806,0.2399,-0.4455,-0.2179,-151.0747
17:12:38:142,-1.136,3.158,9.033,34.6723,0.0994,-0.5275,-0.3212,-151.2193
17:12:38:162,-1.0001,2.954,9.78,34.5245,-0.0582,-0.7051,-0.3297,-151.3296
17:12:38:182,-0.2171,2.916,10.563,34.4318,-0.3241,-0.8456,-0.3169,-151.3296
17:12:38:203,0.7211,2.9591,11.3051,34.2881,-0.5158,-0.6083,-0.3266,-151.3296
17:12:38:226,1.164,2.918,11.466,34.4371,-0.5317,-0.1528,-0.4543,-151.3296
17:12:38:243,0.7451,3.045,10.896,34.5566,-0.5679,-0.0049,-0.6299,-151.3296
17:12:38:262,0.357,2.646,10.719,34.7492,-0.7414,-0.2529,-0.8033,-151.3296
17:12:38:283,0.005,2.057,11.444,34.9189,-0.8519,-0.3858,-0.8682,-151.3296
17:12:38:303,-0.3551,1.506,12.234,34.8238,-0.6594,-0.124,-0.7341,-151.3296
17:12:38:323,-0.7841,1.137,11.87,34.8834,-0.256,0.1962,-0.4095,-151.3296
17:12:38:342,-0.6161,1.1711,10.5101,34.982,0.0846,0.3644,0.0396,-151.3296
17:12:38:363,0.0701,1.733,9.0979,35.1263,0.1739,0.291,0.3268,-151.3296
17:12:38:383,0.8051,2.207,8.403,35.3178,0.0121,0.0525,0.3259,-151.3296
17:12:38:403,0.8741,2.643,9.069,35.4319,-0.2113,-0.2039,0.1588,-151.3296
17:12:38:422,0.4931,2.7941,9.95,35.5247,-0.124,-0.1783,0.0928,-151.4301
17:12:38:444,0.2951,3.11,9.7271,35.6092,0.2644,0.0249,0.1429,-151.5309
17:12:38:464,0.3311,3.455,8.181,35.7489,0.5687,0.1239,0.1438,-151.6284
17:12:38:487,0.438,3.704,6.665,36.0021,0.5294,0.0738,0.0353,-151.7234
17:12:38:503,0.2591,3.7781,5.976,36.0744,0.3037,0.0931,-0.1456,-151.8158
17:12:38:523,-0.468,3.711,6.215,36.1151,0.0962,0.0888,-0.2637,-151.8158
17:12:38:544,-0.8921,3.582,6.83,36.1808,-0.0059,0.0345,-0.1988,-151.8158
17:12:38:563,-0.648,3.555,7.8191,36.3201,-0.0059,-0.0528,-0.0338,-151.8158
17:12:38:584,-0.023,3.567,8.861,36.519,0.1398,-0.1485,0.0874,-151.8158
17:12:38:605,0.4931,3.7211,9.215,36.9146,0.3729,-0.1411,0.1225,-151.8158
17:12:38:626,0.6611,4.0631,8.856,37.4916,0.4847,-0.0027,0.0513,-151.8158
17:12:38:645,0.3191,4.41,8.717,37.7126,0.3399,0.0803,-0.054,-151.8158
17:12:38:664,0.06,4.3601,9.378,37.886,0.0291,0.0824,-0.1072,-151.8158
17:12:38:685,-0.159,4.178,10.6871,38.0173,-0.19,0.1708,-0.0861,-151.8158
17:12:38:704,-0.4031,4.185,11.691,38.0922,-0.1507,0.4218,0.0129,-151.8158
17:12:38:724,-0.547,4.3721,11.535,38.3759,0.0238,0.6645,0.0704,-151.8158
17:12:38:744,-0.554,4.025,10.752,38.7253,-0.0389,0.5411,-0.0179,-151.8158
17:12:38:764,-0.9401,3.203,10.802,38.851,-0.2879,0.3974,-0.1393,-151.8158
17:12:38:783,-1.751,2.5571,11.363,38.9847,-0.2805,0.5826,-0.0605,-151.8158
17:12:38:804,-2.211,2.325,11.2121,39.0056,0.0089,0.5996,0.1715,-151.8158
17:12:38:823,-1.988,2.351,10.161,39.0001,0.2324,0.2346,0.3631,-151.8158
17:12:38:845,-1.1861,2.2841,9.0791,39.096,0.1973,-0.0858,0.4067,-151.8158
17:12:38:871,-0.6191,2.3771,8.705,39.3086,0.0536,-0.0751,0.3609,-151.8158
17:12:38:884,-0.2501,2.382,8.679,39.6259,-0.0804,-0.0539,0.246,-151.8158
17:12:38:903,-0.011,2.195,8.681,40.0717,-0.2017,-0.0869,0.1108,-151.8158
17:12:38:926,-0.092,2.102,8.8391,40.4377,-0.2986,-0.0496,0.0257,-151.8158
17:12:38:942,-0.327,1.9301,9.162,40.7026,-0.3039,0.0419,0.0001,-151.8158
17:12:38:964,-0.7271,1.8941,9.234,41.0043,-0.1379,0.1356,0.0854,-151.8158
17:12:38:984,-0.87,2.124,8.715,41.1945,0.1504,0.1111,0.246,-151.8158
17:12:39:005,-0.8771,2.55,7.728,41.5166,0.3963,-0.0059,0.3524,-151.8158
17:12:39:025,-0.758,3.0311,6.854,41.9244,0.4528,-0.1922,0.3865,-151.9084
17:12:39:043,-0.3911,3.369,6.548,42.1069,0.3464,-0.3337,0.3151,-152.0098
17:12:39:063,-0.1421,3.5051,7.067,42.2074,0.1611,-0.4242,0.1662,-152.1194
17:12:39:083,-0.0161,3.342,8.087,42.1761,0.0388,-0.4284,0.0109,-152.2323
17:12:39:105,-0.353,3.381,8.9591,42.1316,0.0718,-0.2625,-0.1169,-152.3402
17:12:39:123,-0.806,3.519,9.371,42.3501,0.159,-0.1997,-0.1988,-152.4345
17:12:39:148,-0.8081,3.2351,10.5731,42.6768,-0.1038,-0.5519,-0.3318,-152.4345
17:12:39:166,-0.353,3.012,11.4461,43.0757,-0.2996,-0.3741,-0.3191,-152.4345
17:12:39:183,-0.0851,3.086,12.014,43.3701,-0.3528,0.077,-0.2222,-152.4345
17:12:39:205,0.165,3.318,11.9111,43.3232,-0.2912,0.359,-0.1434,-152.4345
17:12:39:225,0.539,3.4841,11.231,43.4022,-0.2634,0.3495,-0.1605,-152.4345
17:12:39:247,0.8,3.1271,10.517,43.4123,-0.3114,0.2974,-0.3286,-152.4345
17:12:39:265,0.0341,2.727,10.2851,43.529,-0.3487,0.2122,-0.4851,-152.4345
17:12:39:284,-0.722,2.2361,10.319,43.7818,-0.2432,0.1302,-0.4425,-152.4345
17:12:39:303,-1.304,1.908,10.304,44.0676,-0.0124,-0.0358,-0.2936,-152.4345
17:12:39:324,-1.4021,1.4651,9.615,44.352,0.1643,-0.3316,-0.0488,-152.4345
17:12:39:345,-0.542,1.1201,9.0521,44.5667,0.0547,-0.7105,0.2002,-152.4345
17:12:39:365,0.68,1.094,9.5771,44.877,-0.2486,-0.9063,0.2397,-152.4345
17:12:39:386,1.073,1.025,10.0121,45.035,-0.3795,-0.5764,0.1407,-152.4345
17:12:39:403,0.06,1.4681,9.8591,45.1864,-0.205,0.0377,0.1364,-152.4345
17:12:39:433,-1.026,2.306,8.7821,45.5014,0.193,0.3538,0.3461,-152.4345
17:12:39:444,-1.0091,3.282,7.647,45.7647,0.5027,0.1387,0.543,-152.4345
17:12:39:464,-0.188,3.989,7.082,46.1009,0.6284,-0.3954,0.4696,-152.5358
17:12:39:486,0.774,4.245,6.711,46.5706,0.3783,-0.9584,0.0534,-152.6513
17:12:39:503,1.178,3.962,7.2281,46.7742,-0.1337,-0.9318,-0.4159,-152.7767
17:12:39:523,0.857,3.414,8.423,47.018,-0.602,-0.3391,-0.7065,-152.8967
17:12:39:543,-0.2741,3.081,9.9,47.1644,-0.7307,0.4708,-0.7202,-152.9911
17:12:39:565,-1.6511,3.11,10.517,47.2105,-0.4295,0.8539,-0.367,-152.9911
17:12:39:583,-2.094,3.9,9.945,47.3819,0.0738,0.722,0.197,-152.9911
17:12:39:604,-1.1981,4.475,9.486,47.5198,0.606,0.4122,0.5792,-152.9911
17:12:39:626,-0.245,5.042,8.846,47.6868,0.9252,0.0345,0.6196,-152.9911
17:12:39:645,0.5531,5.2001,8.0389,47.8707,0.8816,-0.19,0.4451,-152.9911
17:12:39:665,0.8621,4.977,7.872,48.0078,0.557,-0.1433,0.1523,-153.1122
17:12:39:685,0.168,4.6571,8.2571,48.1999,0.1387,0.1601,-0.1254,-153.2518
17:12:39:702,-1.332,4.458,9.038,48.5299,-0.2156,0.5889,-0.2307,-153.3845
17:12:39:723,-2.252,3.809,10.118,48.851,-0.4188,0.6284,-0.0892,-153.4859
17:12:39:742,-1.7801,2.787,11.489,49.1843,-0.5573,0.1643,0.1077,-153.4859
17:12:39:765,-0.918,1.968,12.483,49.5968,-0.4114,0.0036,0.2992,-153.4859
17:12:39:782,-0.506,1.6691,12.0761,49.8547,0.0898,0.3538,0.4961,-153.4859
17:12:39:809,-0.552,1.9391,10.386,49.9513,0.5186,0.5453,0.5675,-153.5918
17:12:39:822,-0.185,1.956,8.454,50.0403,0.4612,0.2633,0.4312,-153.7212
17:12:39:858,-0.255,2.013,7.271,50.0307,0.11,0.1867,0.2237,-153.8696
17:12:39:865,-0.638,2.1071,7.2851,50.2351,-0.2762,0.2739,0.0736,-154.0288
17:12:39:885,-0.774,1.968,7.946,50.2705,-0.5892,0.2005,-0.0349,-154.1887
17:12:39:904,-0.53,1.571,8.8301,50.3098,-0.7882,0.1196,-0.1148,-154.3462
17:12:39:924,-0.547,1.4771,9.869,50.2212,-0.7924,0.1697,-0.1084,-154.5032
17:12:39:958,-0.6761,1.599,10.565,50.1173,-0.5136,0.2696,-0.0062,-154.6594
17:12:39:963,-0.6671,1.8671,10.2131,50.2358,-0.0337,0.3378,0.162,-154.8178
17:12:39:985,-0.341,2.136,9.1309,50.3983,0.3666,0.2665,0.279,-154.9828
17:12:40:008,-0.0491,2.499,7.929,50.4033,0.5592,0.1367,0.3109,-155.1576
17:12:40:022,0.063,2.871,7.043,50.4198,0.6113,0.0356,0.2738,-155.3434
17:12:40:043,0.204,3.077,6.612,50.4296,0.5357,-0.1251,0.1523,-155.5375
17:12:40:062,0.309,3.105,6.5261,50.2277,0.3772,-0.2464,-0.0307,-155.7341
17:12:40:084,-0.1181,3.1961,6.917,50.328,0.209,-0.2805,-0.2105,-155.9255
17:12:40:104,-0.6641,3.2231,7.6661,50.5746,0.0877,-0.3241,-0.3436,-156.0989
17:12:40:125,-1.1531,3.144,8.298,50.579,-0.0346,-0.4264,-0.4287,-156.2419
17:12:40:146,-1.2251,2.942,9.296,50.8082,-0.271,-0.6999,-0.4883,-156.3494
17:12:40:165,-1.047,2.631,10.788,50.8722,-0.5477,-1.0542,-0.5329,-156.3494
17:12:40:183,-0.6911,2.523,12.095,50.7383,-0.7168,-1.0479,-0.4979,-156.3494
17:12:40:205,-0.384,2.705,12.9791,50.9655,-0.7179,-0.5445,-0.3755,-156.3494
17:12:40:223,0.12,2.6981,13.304,50.9853,-0.6317,-0.106,-0.2212,-156.3494
17:12:40:244,0.663,2.658,12.902,50.9619,-0.5019,0.125,-0.1882,-156.3494
17:12:40:263,0.4961,2.538,12.15,51.033,-0.3348,0.2197,-0.2776,-156.3494
17:12:40:284,-0.255,2.507,11.327,51.0907,-0.1145,0.2559,-0.3095,-156.3494
17:12:40:305,-0.801,2.4851,10.58,51.0956,0.11,0.1792,-0.2776,-156.3494
17:12:40:324,-0.626,2.1761,9.9911,51.1325,0.1611,-0.1006,-0.2435,-156.3494
17:12:40:344,0.206,1.3691,9.9521,51.2282,-0.0294,-0.3284,-0.2372,-156.3494
17:12:40:366,0.647,1.19,10.589,51.2903,-0.2347,-0.1997,-0.2393,-156.3494
17:12:40:384,0.402,1.2161,10.7381,51.3574,-0.2093,0.2133,-0.2201,-156.3494
17:12:40:404,-0.545,1.748,9.9281,51.2634,-0.0326,0.4517,-0.1275,-156.3494
17:12:40:423,-0.923,2.258,8.906,51.0864,0.094,0.308,-0.0104,-156.3494
17:12:40:446,-0.944,2.708,8.1881,51.055,0.2112,0.1057,0.0886,-156.3494
17:12:40:468,-0.885,3.074,7.307,51.2133,0.39,0.1228,0.1429,-156.3494
17:12:40:483,-0.8561,3.507,6.2771,51.2892,0.4857,0.1845,0.1481,-156.3494
17:12:40:503,-0.66,3.8021,5.7101,51.3664,0.3996,0.0813,0.0736,-156.3494
17:12:40:522,-0.434,3.84,6.026,51.1873,0.2324,-0.124,-0.0913,-156.3494
17:12:40:543,-0.408,3.639,7.077,50.903,0.094,-0.2827,-0.2637,-156.3494
17:12:40:566,-0.662,3.567,8.2211,50.8821,0.0644,-0.2955,-0.3244,-156.3494
17:12:40:584,-0.813,3.6371,9.225,50.73,0.1441,-0.188,-0.2446,-156.3494
17:12:40:604,-0.533,3.857,10.017,50.665,0.2878,-0.0539,-0.1137,-156.3494
17:12:40:623,-0.008,4.161,10.367,50.6024,0.3686,0.0494,-0.0573,-156.3494
17:12:40:643,0.3431,4.4051,10.544,50.5162,0.2761,0.1133,-0.0945,-156.3494
17:12:40:664,0.362,4.599,10.8431,50.6145,0.142,0.3814,-0.1807,-156.3494
17:12:40:687,-0.174,4.688,11.078,50.6172,0.059,0.6762,-0.301,-156.3494
17:12:40:706,-1.035,4.6571,11.178,50.541,-0.0368,0.7497,-0.4011,-156.3494
17:12:40:723,-1.521,3.8471,11.516,50.588,-0.1678,0.6187,-0.4543,-156.3494
17:12:40:743,-1.77,2.658,12.354,50.4585,-0.3178,0.3123,-0.4925,-156.3494
17:12:40:763,-2.259,1.7621,12.861,50.3724,-0.2007,0.3464,-0.318,-156.2549
17:12:40:784,-2.6351,1.209,11.868,50.1763,0.3228,0.606,0.1492,-156.1471
17:12:40:802,-2.4911,1.523,9.435,49.9808,0.8933,0.7198,0.6537,-156.0378
17:12:40:823,-1.725,2.081,6.8381,49.7522,0.9508,0.3101,0.7813,-155.9377
17:12:40:841,-1.031,2.375,5.114,49.5135,0.44,-0.2975,0.5727,-155.9377
17:12:40:865,-0.971,2.33,5.2331,49.4639,-0.223,-0.472,0.3396,-155.9377
17:12:40:881,-1.3181,2.1911,6.5771,49.5195,-0.6849,-0.3348,0.2194,-155.9377
17:12:40:902,-1.737,2.09,8.284,49.4183,-0.8786,-0.2794,0.2035,-155.9377
17:12:40:924,-1.572,1.8431,10.022,49.4272,-0.7711,-0.3838,0.2929,-155.9377
17:12:40:953,-0.8651,1.865,10.23,49.1948,-0.0176,-0.3316,0.4653,-155.9377
17:12:40:971,-0.978,2.27,8.9591,48.8666,0.2494,-0.0283,0.5387,-155.9377
17:12:40:990,-1.122,2.6741,7.7231,48.6737,0.3538,0.1484,0.6014,-155.9377
17:12:41:010,-1.071,3.05,7.02,48.5237,0.3783,0.1728,0.6259,-155.9377
17:12:41:030,-0.9761,3.4601,6.771,48.4002,0.3633,0.0601,0.5621,-155.9377
17:12:41:050,-0.8921,3.6221,7.166,48.3399,0.2921,-0.1943,0.4047,-155.9377
17:12:41:071,-0.729,3.3611,8.0231,48.2789,0.2101,-0.4476,0.2269,-155.9377
17:12:41:095,-0.4661,3.1631,9.026,48.2901,0.1717,-0.4945,0.1034,-155.9377
17:12:41:110,-0.2981,3.086,9.842,48.3603,0.1228,-0.4071,-0.0084,-155.9377
17:12:41:131,-0.1571,2.892,10.5701,48.2587,-0.0411,-0.3997,-0.1072,-155.9377
17:12:41:149,0.2321,2.612,11.64,48.4244,-0.3124,-0.4604,-0.1935,-155.9377
17:12:41:170,0.321,2.528,12.981,48.3635,-0.4711,-0.2986,-0.2509,-155.9377
17:12:41:193,0.1271,2.8181,13.532,48.0894,-0.322,0.061,-0.1402,-155.9377
17:12:41:208,0.434,3.254,12.356,47.7783,-0.0252,0.3495,0.0172,-155.9377
17:12:41:227,0.891,3.464,10.551,47.3031,0.0143,0.3336,-0.0371,-155.9377
17:12:41:247,0.759,3.582,9.663,47.0901,-0.1592,0.2729,-0.2212,-155.9377
17:12:41:268,0.0341,3.3401,9.665,47.0929,-0.1666,0.3143,-0.3457,-155.9377
17:12:41:290,-0.7481,3.0311,9.533,47.3708,-0.0496,0.143,-0.3286,-155.9377
17:12:41:308,-0.782,2.4761,9.447,47.5346,-0.0751,-0.32,-0.2179,-155.9377
17:12:41:328,0.06,1.9031,10.139,47.5346,-0.1997,-0.6956,-0.0913,-155.9377
17:12:41:348,0.9821,1.511,10.8101,47.544,-0.223,-0.7062,-0.0147,-155.9377
17:12:41:367,1.578,1.283,10.754,47.4537,-0.122,-0.3465,0.0087,-155.9377
17:12:41:389,1.389,1.554,9.861,47.2496,0.0972,0.242,0.0214,-155.9377
17:12:41:406,0.6731,2.0951,8.267,47.2236,0.3548,0.6656,0.03,-155.9377
17:12:41:426,-0.006,2.4761,6.416,47.0409,0.5538,0.7986,0.0172,-155.9377
17:12:41:456,-0.5831,2.94,4.805,46.8038,0.6273,0.705,-0.0179,-155.9377
17:12:41:469,-0.923,3.299,3.596,46.7493,0.5655,0.4612,-0.085,-155.9377
17:12:41:486,-1.289,3.6611,2.8781,46.7457,0.3538,0.0983,-0.1456,-155.9377
17:12:41:506,-1.373,3.9701,3.0401,46.7421,-0.0517,-0.3849,-0.1456,-155.9377
17:12:41:526,-0.719,3.9101,4.8911,46.8238,-0.5455,-0.7818,-0.153,-155.8321
17:12:41:547,-0.0011,3.522,7.4171,46.8556,-0.8425,-0.8232,-0.2159,-155.7175
17:12:41:566,0.359,3.167,9.849,46.6779,-0.8638,-0.4444,-0.2967,-155.6049
17:12:41:587,-0.344,3.371,11.231,46.5125,-0.6328,0.2155,-0.2936,-155.4936
17:12:41:605,-1.442,3.716,11.537,46.3572,-0.4711,0.5422,-0.153,-155.3747
17:12:41:627,-1.893,3.869,12.1721,46.2989,-0.5317,0.4165,0.0481,-155.244
17:12:41:645,-1.505,3.9581,13.5131,46.5281,-0.5998,0.2164,0.261,-155.1089
17:12:41:666,-0.4271,3.8,14.523,46.7541,-0.5497,0.209,0.378,-154.983
17:12:41:685,0.5801,3.2681,15.05,46.7621,-0.4625,0.2548,0.3035,-154.8777
17:12:41:706,0.453,2.351,14.942,46.5614,-0.2699,0.4218,0.1013,-154.8777
17:12:41:725,-1.0571,1.779,13.805,46.1981,0.125,0.7135,0.0896,-154.8777
17:12:41:747,-2.096,1.599,11.849,45.9379,0.5996,0.7539,0.3174,-154.8777
17:12:41:764,-2.288,1.8941,9.409,45.855,0.8412,0.4207,0.5345,-154.8777
17:12:41:784,-1.854,2.061,7.3931,45.9561,0.6421,-0.1337,0.5589,-154.8777
17:12:41:811,-1.239,2.0591,6.744,46.0216,0.1228,-0.488,0.4685,-154.8777
17:12:41:824,-0.513,1.6421,7.74,45.9203,-0.3954,-0.4466,0.296,-154.8777
17:12:41:861,-0.4631,1.245,9.134,45.7637,-0.6561,-0.2188,0.1204,-154.8777
17:12:41:863,-0.7031,0.9671,10.383,45.6116,-0.6296,-0.0613,0.0864,-154.8777
17:12:41:884,-0.794,0.998,10.91,45.5209,-0.3305,-0.0027,0.2194,-154.8777
17:12:41:905,-0.4181,1.199,10.35,45.4153,0.0664,0.0664,0.4025,-154.8777
17:12:41:936,0.122,1.4441,9.2321,45.2604,0.3453,0.1185,0.5004,-154.8777
17:12:41:944,0.501,1.784,8.243,45.2355,0.4942,0.0877,0.5291,-154.8777
17:12:41:965,0.618,2.1791,7.424,45.263,0.5943,0.0026,0.4759,-154.8777
17:12:41:986,0.525,2.576,6.5891,45.0445,0.6336,-0.0804,0.3717,-154.8777
17:12:42:008,0.335,2.825,5.892,45.1072,0.5559,-0.1528,0.245,-154.8777
17:12:42:024,0.177,2.988,5.8271,45.0763,0.341,-0.3252,0.1108,-154.8777
17:12:42:045,0.125,2.844,6.4931,44.9145,0.0727,-0.4998,-0.0637,-154.8777
17:12:42:065,-0.492,2.8061,7.5341,44.7237,-0.1198,-0.4615,-0.2159,-154.8777
17:12:42:086,-1.1891,2.744,8.762,44.5047,-0.1858,-0.4359,-0.252,-154.8777
17:12:42:105,-1.1021,2.4971,9.6101,44.5157,-0.1496,-0.5508,-0.2287,-154.8777
17:12:42:123,-0.7241,2.42,9.936,44.6029,-0.2199,-0.686,-0.2861,-154.8777
17:12:42:146,-0.4781,2.234,10.4621,44.7995,-0.5104,-0.7094,-0.4074,-154.8777
17:12:42:164,-0.4541,2.037,11.4221,44.7491,-0.8232,-0.4433,-0.4703,-154.8777
17:12:42:183,-0.588,2.0021,12.737,44.5939,-0.9541,-0.1666,-0.3926,-154.7851
17:12:42:204,-0.485,2.169,13.781,44.3551,-0.8393,-0.0804,-0.2179,-154.69
17:12:42:223,0.0101,2.21,13.79,44.1908,-0.4678,0.0419,-0.0913,-154.5992
17:12:42:242,-0.102,2.385,12.921,44.0687,0.01,0.1504,-0.052,-154.5992
17:12:42:262,-0.224,2.318,11.7101,43.9127,0.2824,-0.0869,-0.0764,-154.5992
17:12:42:285,0.017,1.614,10.877,43.8791,0.2388,-0.5008,-0.1627,-154.5992
17:12:42:303,0.1391,1.1059,11.181,43.6892,0.0366,-0.7179,-0.1871,-154.5992
17:12:42:323,0.314,0.7451,11.861,43.4635,-0.0081,-0.5775,-0.0796,-154.5992
17:12:42:344,0.5921,0.4481,11.391,43.4354,0.2452,-0.1954,0.1748,-154.5992
17:12:42:362,0.678,1.029,9.608,43.2795,0.5868,0.2409,0.4503,-154.5992
17:12:42:384,0.987,1.743,7.565,43.2754,0.707,0.3794,0.5163,-154.5992
17:12:42:403,0.972,2.447,5.7,43.0575,0.522,0.2771,0.3311,-154.5992
17:12:42:423,0.491,2.904,4.7981,42.7754,0.2346,0.2303,0.0289,-154.5992
17:12:42:445,-0.245,2.976,4.688,42.6365,0.0175,0.1984,-0.2042,-154.5992
17:12:42:485,-1.62,3.2561,5.624,42.4316,-0.256,-0.1123,-0.3095,-154.5992
17:12:42:499,-1.407,3.203,6.782,42.386,-0.3795,-0.2901,-0.2265,-154.5992
17:12:42:521,-0.614,3.0311,8.523,42.2064,-0.4359,-0.4327,-0.1605,-154.5007
17:12:42:541,0.2951,2.804,10.0601,42.3154,-0.2879,-0.3081,-0.1339,-154.4019
17:12:42:560,0.771,2.7371,10.649,42.3458,0.0696,0.1217,-0.1573,-154.4019
17:12:42:581,0.335,3.1481,10.0001,42.3515,0.4016,0.5103,-0.1712,-154.4019
17:12:42:600,0.1511,3.3971,9.3041,42.3628,0.3058,0.4165,-0.1669,-154.4019
17:12:42:620,0.7691,3.201,9.83,42.0891,-0.1613,0.2036,-0.2062,-154.4019
17:12:42:638,1.056,2.8991,11.7551,41.9754,-0.5785,0.2186,-0.2148,-154.4019
17:12:42:658,0.788,2.93,13.395,41.9179,-0.6317,0.5624,-0.1094,-154.4019
17:12:42:680,0.134,3.261,13.7741,41.8261,-0.3838,0.956,0.0704,-154.4019
17:12:42:699,-0.413,3.1961,12.792,41.6359,-0.2188,0.9753,0.1822,-154.4019
17:12:42:717,-0.717,2.658,12.165,41.3642,-0.2922,0.6634,0.2173,-154.4019
17:12:42:739,-1.064,1.877,12.0041,41.0407,-0.1741,0.4868,0.2864,-154.4019
17:12:42:757,-1.667,1.623,10.874,40.5844,0.2474,0.4623,0.4546,-154.4019
17:12:42:776,-1.869,1.7411,8.892,40.2396,0.6304,0.3473,0.7356,-154.4019
17:12:42:797,-1.287,2.1,6.969,39.8157,0.6698,0.1293,0.9016,-154.4019
17:12:42:817,-0.6791,2.4611,6.024,39.6638,0.3729,-0.106,0.8122,-154.4019
17:12:42:836,-0.327,2.612,6.162,39.5618,-0.0582,-0.2975,0.5547,-154.4019
17:12:42:857,-0.303,2.3681,7.448,39.2452,-0.4742,-0.488,0.2491,-154.4019
17:12:42:877,-0.4541,1.803,9.395,38.9485,-0.7147,-0.6222,0.0428,-154.4019
17:12:42:896,-0.468,1.314,11.5301,38.5853,-0.6839,-0.6743,0.0151,-154.4019
17:12:42:930,-0.288,1.137,12.596,38.1068,-0.3295,-0.488,0.1588,-154.4019
17:12:42:936,0.209,1.2551,12.1121,37.9078,0.2442,0.0186,0.4047,-154.4019
17:12:42:955,0.5201,1.764,10.479,37.6436,0.7837,0.4932,0.5675,-154.4019
17:12:42:976,0.807,2.315,8.456,37.3836,1.0317,0.5932,0.5908,-154.4019
17:12:42:996,1.116,2.777,6.725,36.9368,1.0029,0.5209,0.4557,-154.5037
17:12:43:020,1.205,3.105,5.8511,36.6284,0.8231,0.3751,0.1705,-154.6274
17:12:43:035,1.075,3.084,5.789,36.4933,0.5954,0.1037,-0.1733,-154.7669
17:12:43:055,0.716,2.705,6.165,36.5156,0.3644,-0.1624,-0.484,-154.9092
17:12:43:075,-0.245,2.42,7.11,36.4913,0.1495,-0.2879,-0.665,-155.0365
17:12:43:096,-1.043,2.217,8.303,36.3423,-0.0133,-0.3977,-0.6458,-155.1285
17:12:43:117,-1.014,1.911,9.402,36.1457,-0.172,-0.5434,-0.534,-155.1285
17:12:43:134,-0.4871,1.757,10.647,35.9575,-0.4444,-0.6487,-0.466,-155.1285
17:12:43:154,-0.08,1.688,12.239,36.0073,-0.7168,-0.5955,-0.4128,-155.1285
17:12:43:174,0.225,1.5611,13.211,35.9427,-0.6988,-0.287,-0.2914,-155.1285
17:12:43:195,0.206,1.853,12.902,35.8862,-0.4689,0.1302,-0.184,-155.1285
17:12:43:213,-0.152,2.171,12.186,35.6678,-0.3901,0.1845,-0.2051,-155.1285
17:12:43:236,-0.365,2.021,12.227,35.4262,-0.5349,-0.1262,-0.2989,-155.1285
17:12:43:255,-0.681,1.5371,13.2761,35.2334,-0.4987,-0.3081,-0.2989,-155.1285
17:12:43:273,-0.8531,1.116,13.532,34.9709,-0.1103,-0.3656,-0.1063,-155.1285
17:12:43:293,-0.336,0.776,12.263,34.8358,0.3697,-0.2859,0.2258,-155.1285
17:12:43:314,0.6041,1.006,10.599,34.8757,0.6656,-0.0688,0.477,-155.1285
17:12:43:333,1.2911,1.568,8.988,34.9958,0.6859,0.0749,0.4631,-155.1285
17:12:43:354,1.439,1.9991,7.5611,34.894,0.5006,0.176,0.2354,-155.1285
17:12:43:373,0.857,2.2841,6.651,34.5986,0.2452,0.3017,-0.0711,-155.2215
17:12:43:393,-0.164,2.387,6.158,34.2271,0.0696,0.4293,-0.2691,-155.3155
17:12:43:413,-1.007,2.528,5.808,34.0024,0.0015,0.4964,-0.301,-155.3155
17:12:43:433,-1.4381,2.777,5.597,34.0944,-0.0252,0.4315,-0.2743,-155.3155
17:12:43:452,-1.505,3.069,5.645,34.2709,-0.0474,0.2271,-0.2839,-155.3155
17:12:43:482,-1.32,3.2321,5.868,34.3794,-0.1231,-0.0378,-0.3266,-155.3155
17:12:43:496,-0.956,3.1601,6.5531,34.3327,-0.2901,-0.2219,-0.3616,-155.3155
17:12:43:515,-0.5231,3.117,7.733,34.1028,-0.4146,-0.2677,-0.3776,-155.3155
17:12:43:534,-0.2,2.942,8.849,34.1752,-0.3806,-0.0634,-0.3755,-155.3155
17:12:43:552,-0.296,3.098,9.596,33.9854,-0.1453,0.3101,-0.3021,-155.3155
17:12:43:574,-0.5951,3.4811,9.5291,33.8298,0.1452,0.5783,-0.2062,-155.3155
17:12:43:592,-0.9731,3.9791,9.069,33.7533,0.1877,0.5325,-0.1115,-155.3155
17:12:43:611,-0.722,4.314,9.569,33.6918,-0.0624,0.3697,-0.0008,-155.3155
17:12:43:636,0.051,4.1351,11.8391,33.6922,-0.3454,0.0675,0.0066,-155.3155
17:12:43:651,0.479,3.8381,14.6231,33.7777,-0.3454,-0.2742,-0.0286,-155.3155
17:12:43:670,0.5441,3.378,15.512,33.5761,0.0026,-0.1698,-0.0466,-155.3155
17:12:43:690,-0.0251,3.029,14.4251,33.3555,0.2824,0.1771,-0.0084,-155.3155
17:12:43:712,-0.458,2.5091,13.2731,33.3285,0.2324,0.2813,0.0502,-155.3155
17:12:43:731,-0.9971,1.913,12.998,33.4868,0.2079,0.2559,0.1099,-155.3155
17:12:43:750,-1.622,1.571,12.485,33.828,0.5709,0.2281,0.2918,-155.3155
17:12:43:769,-1.7201,1.602,10.613,33.9965,1.0115,0.094,0.5015,-155.4075
17:12:43:791,-1.368,1.884,8.288,34.0907,1.055,-0.157,0.5695,-155.5012
17:12:43:809,-0.8921,2.298,6.897,33.9904,0.6859,-0.3433,0.4738,-155.5966
17:12:43:831,-0.554,2.358,6.629,33.6172,0.1877,-0.3348,0.2588,-155.6925
17:12:43:849,-0.593,2.121,7.151,33.4543,-0.238,-0.1741,0.0556,-155.7865
17:12:43:875,-0.81,1.884,8.073,33.4299,-0.4753,-0.0049,-0.0243,-155.7865
17:12:43:888,-0.9491,1.793,9.117,33.5241,-0.4625,0.028,0.0129,-155.7865
17:12:43:921,-0.8531,1.676,9.5051,33.665,-0.1932,0.0069,0.1204,-155.7865
17:12:43:934,-0.59,1.748,9.069,33.626,0.158,-0.0144,0.2503,-155.7865
17:12:43:948,-0.197,1.956,8.181,33.44,0.4176,-0.0326,0.3259,-155.7865
17:12:43:969,0.125,2.207,7.3001,33.3671,0.5379,-0.0421,0.2897,-155.8886
17:12:43:992,0.1631,2.511,6.6341,33.3427,0.5538,0.0058,0.1757,-156.0013
17:12:44:011,-0.044,2.7461,6.1721,33.4376,0.4847,0.0334,0.0172,-156.1208
17:12:44:028,-0.401,2.99,6.069,33.3698,0.3176,-0.0133,-0.1402,-156.2413
17:12:44:047,-0.8411,3.225,6.474,33.3168,0.1143,-0.0582,-0.2617,-156.3542
17:12:44:069,-1.181,3.249,7.2641,33.2722,-0.0304,-0.0176,-0.3318,-156.4529
17:12:44:087,-1.581,3.369,8.2211,33.2882,-0.1049,0.0271,-0.3638,-156.4529
17:12:44:110,-1.859,3.543,9.179,33.3903,-0.1496,-0.0443,-0.334,-156.4529
17:12:44:127,-1.272,3.419,9.95,33.4087,-0.2145,-0.3029,-0.2967,-156.4529
17:12:44:146,-0.248,3.3491,10.8311,33.3645,-0.4199,-0.5796,-0.3244,-156.4529
17:12:44:166,0.5681,3.33,12.363,33.2877,-0.6265,-0.5605,-0.3968,-156.4529
17:12:44:186,0.944,3.117,13.824,33.3092,-0.5562,-0.2135,-0.5202,-156.4529
17:12:44:206,0.6371,2.892,13.742,33.4612,-0.3528,0.1387,-0.6831,-156.4529
17:12:44:226,-0.525,2.828,13.314,33.4988,-0.3295,0.1569,-0.8055,-156.4529
17:12:44:245,-1.56,2.162,13.467,33.3913,-0.2731,0.0803,-0.6841,-156.4529
17:12:44:266,-2.0981,1.4681,13.46,33.2544,0.0835,0.0792,-0.2947,-156.4529
17:12:44:285,-2.063,1.233,12.339,33.1251,0.5676,-0.0368,0.23,-156.4529
17:12:44:306,-0.942,1.614,10.757,33.0782,0.8455,-0.2668,0.7271,-156.4529
17:12:44:325,0.7451,2.025,9.512,33.27,0.8624,-0.3986,0.8834,-156.4529
17:12:44:350,1.928,2.37,8.612,33.3664,0.7422,-0.3816,0.7334,-156.4529
17:12:44:367,2.244,2.646,7.7231,33.4691,0.5911,-0.2113,0.4366,-156.4529
17:12:44:387,1.8251,2.832,6.7541,33.4185,0.4389,0.0302,0.1364,-156.5755
17:12:44:405,1.1351,2.907,5.9681,33.3804,0.3367,0.2889,-0.0881,-156.7162
17:12:44:425,0.362,2.9351,5.645,33.192,0.3473,0.3889,-0.2563,-156.8617
17:12:44:445,-0.3221,2.88,4.872,32.9473,0.4293,0.2846,-0.4137,-156.9977
17:12:44:464,-1.217,2.976,4.0511,32.9046,0.3718,0.1015,-0.5235,-157.1107
17:12:44:493,-1.7081,2.981,3.938,32.9856,0.1504,-0.1166,-0.5064,-157.1107
17:12:44:505,-1.646,3.419,4.7471,33.2457,-0.1049,-0.2805,-0.4137,-157.1107
17:12:44:527,-1.292,3.936,5.813,33.5263,-0.2922,-0.2454,-0.2978,-157.1107
17:12:44:547,-0.5831,3.8021,6.6941,33.6568,-0.4221,-0.0124,-0.2637,-157.1107
17:12:44:563,-0.4301,3.917,7.388,33.7342,-0.4837,0.4261,-0.2999,-157.1107
17:12:44:583,-1.2221,4.547,8.0351,33.971,-0.5892,0.8092,-0.2989,-157.1107
17:12:44:603,-1.974,5.193,8.889,34.2461,-0.8744,0.905,-0.2042,-157.1107
17:12:44:623,-2.276,5.466,11.0351,34.6658,-1.2415,0.7804,-0.054,-157.1107
17:12:44:643,-1.658,5.1071,14.319,35.0239,-1.3544,0.4378,0.1088,-157.1107
17:12:44:663,-1.035,4.767,16.752,35.1883,-1.0266,0.0738,0.1013,-157.1107
17:12:44:682,-0.8411,3.993,16.9361,35.1307,-0.5913,-0.0975,-0.0286,-157.1107
17:12:44:702,-1.04,2.7581,15.782,35.0307,-0.3689,-0.0124,-0.12,-157.1107
17:12:44:723,-1.79,1.824,14.6261,34.7509,-0.1603,0.3228,-0.0286,-157.1107
17:12:44:745,-2.52,1.3691,12.924,34.6093,0.2474,0.6273,0.2524,-157.1107
17:12:44:762,-2.735,1.544,10.628,34.7307,0.623,0.6336,0.5525,-157.1107
17:12:44:785,-2.4071,1.968,8.312,34.7033,0.6901,0.2995,0.7143,-157.1107
17:12:44:803,-1.701,2.1521,6.852,34.6434,0.4432,-0.073,0.7078,-157.1107
17:12:44:824,-0.98,2.078,6.548,34.5374,0.094,-0.2315,0.576,-157.2094
17:12:44:848,-0.7001,1.937,7.1201,34.4,-0.1678,-0.2401,0.411,-157.3185
17:12:44:864,-0.695,1.769,7.719,34.4587,-0.2668,-0.2082,0.3162,-157.4371
17:12:44:883,-0.648,1.745,8.2091,34.4271,-0.2432,-0.2347,0.3035,-157.561
17:12:44:903,-0.513,1.8461,8.4701,34.1321,-0.1379,-0.2646,0.3429,-157.6883
17:12:44:923,-0.399,1.994,8.475,33.9768,0.0143,-0.2315,0.3897,-157.8198
17:12:44:943,-0.293,2.1041,8.372,33.8388,0.1782,-0.1837,0.4301,-157.9576
17:12:44:966,-0.1061,2.2121,8.0201,33.9276,0.3367,-0.1646,0.4451,-158.1045
17:12:44:985,0.074,2.5901,7.6781,34.1727,0.4261,-0.2102,0.3897,-158.2625
17:12:45:008,0.1151,3.072,7.613,34.3398,0.4144,-0.2848,0.2503,-158.4314
17:12:45:023,0.0821,3.3041,8.073,34.3544,0.3495,-0.421,0.0502,-158.6061
17:12:45:045,-0.0161,3.275,8.564,34.2,0.2921,-0.4509,-0.1701,-158.7783
17:12:45:065,-0.456,3.381,9.215,34.3249,0.2281,-0.371,-0.3776,-158.9398
17:12:45:086,-1.1891,3.5531,10.0961,34.4337,0.176,-0.3189,-0.5116,-159.0837
17:12:45:105,-1.452,3.3971,10.781,34.6971,0.0983,-0.3838,-0.5596,-159.2049
17:12:45:125,-0.932,3.0791,11.7341,34.827,-0.1528,-0.5901,-0.6011,-159.305
17:12:45:143,-0.444,2.832,13.103,34.9136,-0.3561,-0.4976,-0.6288,-159.305
17:12:45:162,-0.372,2.636,13.9031,34.8956,-0.2113,0.0291,-0.5862,-159.305
17:12:45:185,-0.9401,2.7701,13.0241,35.0351,0.1495,0.5038,-0.4575,-159.305
17:12:45:203,-1.4381,2.9141,11.391,35.2577,0.3314,0.4654,-0.3468,-159.305
17:12:45:224,-1.6961,2.804,10.4771,35.5429,0.2878,0.1005,-0.2861,-159.305
17:12:45:243,-1.689,2.2001,10.268,35.6999,0.2867,-0.0879,-0.1616,-159.305
17:12:45:264,-1.517,1.709,9.8951,35.6822,0.4241,-0.0793,0.0524,-159.305
17:12:45:284,-1.1291,1.614,9.011,35.6853,0.4793,-0.1698,0.2705,-159.305
17:12:45:303,-0.1811,1.664,8.411,35.6075,0.3134,-0.3348,0.3684,-159.305
17:12:45:323,0.738,1.6211,8.456,35.5437,0.0558,-0.4529,0.2929,-159.4129
17:12:45:343,1.236,1.7291,9.062,35.695,-0.1188,-0.5041,0.162,-159.5441
17:12:45:364,1.3841,1.827,9.476,35.6954,-0.0613,-0.1954,0.0534,-159.6885
17:12:45:384,1.092,1.913,8.8151,35.7786,0.2324,0.4038,0.0289,-159.8389
17:12:45:402,0.537,2.423,7.496,36.0396,0.5644,0.804,0.0672,-159.9906
17:12:45:423,0.23,3.134,6.069,36.1384,0.7135,0.789,0.0183,-160.1417
17:12:45:445,0.0341,3.84,4.929,36.3304,0.6262,0.4889,-0.1764,-160.2917
17:12:45:462,-0.336,4.305,4.2851,36.453,0.3953,0.2133,-0.4213,-160.4382
17:12:45:483,-0.7961,4.374,4.283,36.5165,0.0696,0.0803,-0.5809,-160.5717
17:12:45:515,-1.071,4.2191,5.145,36.5547,-0.2241,0.1398,-0.616,-160.6783
17:12:45:525,-1.457,4.298,6.4211,36.7581,-0.3508,0.2591,-0.5734,-160.6783
17:12:45:543,-1.826,4.5701,7.812,37.0977,-0.2848,0.2696,-0.4308,-160.6783
17:12:45:563,-1.749,4.9421,8.784,37.3756,-0.0858,0.2005,-0.2617,-160.6783
17:12:45:585,-1.634,5.262,9.1601,37.6769,0.0366,0.1026,-0.1701,-160.6783
17:12:45:603,-1.3901,5.15,9.747,37.9229,-0.0921,-0.0549,-0.1573,-160.6783
17:12:45:623,-1.0451,4.764,10.9871,38.1934,-0.3359,-0.1518,-0.151,-160.6783
17:12:45:645,-0.921,4.6061,12.311,38.2779,-0.4561,0.1367,-0.1297,-160.6783
17:12:45:667,-1.356,4.745,12.723,38.2102,-0.3402,0.6507,-0.1094,-160.6783
17:12:45:683,-1.725,4.077,11.937,38.1899,-0.2827,0.6475,-0.1317,-160.6783
17:12:45:703,-1.8281,2.784,11.597,38.0088,-0.3912,0.2548,-0.1743,-160.6783
17:12:45:723,-2.379,1.848,11.829,37.7717,-0.2262,0.1207,-0.0998,-160.6783
17:12:45:745,-3.312,1.688,11.0711,37.743,0.2782,0.0931,0.1407,-160.6783
17:12:45:762,-3.564,1.949,9.1121,37.7074,0.6379,-0.1103,0.446,-160.6783
17:12:45:782,-2.8811,2.267,7.3931,37.6882,0.4537,-0.5402,0.6014,-160.6783
17:12:45:803,-1.608,2.3891,7.142,37.7703,-0.0016,-0.6509,0.6398,-160.6783
17:12:45:825,-0.621,2.61,7.934,37.6817,-0.3604,-0.4305,0.5482,-160.6783
17:12:45:843,-0.059,2.72,8.8181,37.7179,-0.5668,-0.272,0.3578,-160.6783
17:12:45:890,0.393,2.595,9.591,37.6225,-0.6157,-0.2273,0.1523,-160.6783
17:12:45:892,0.347,2.4641,9.842,37.6323,-0.5158,-0.1507,-0.0318,-160.6783
17:12:45:915,-0.305,2.4401,9.672,37.7046,-0.3348,-0.0443,-0.0987,-160.7775
17:12:45:923,-0.798,2.3921,9.074,37.8854,-0.1114,0.026,0.0023,-160.8754
17:12:45:943,-0.956,2.528,8.286,37.9994,0.1324,-0.0016,0.1907,-160.9704
17:12:45:965,-0.858,2.871,7.427,38.166,0.341,-0.0773,0.3589,-161.0667
17:12:45:983,-0.561,3.2111,6.5981,38.1329,0.4452,-0.1326,0.4227,-161.1703
17:12:46:013,-0.32,3.5171,6.222,37.8876,0.4005,-0.1986,0.362,-161.2854
17:12:46:022,-0.312,3.7091,6.3251,37.6801,0.2431,-0.3284,0.1907,-161.4121
17:12:46:048,-0.81,3.816,7.2611,37.6115,0.0536,-0.5104,-0.0349,-161.5445
17:12:46:063,-1.4111,3.615,8.49,37.7365,-0.0964,-0.6615,-0.1966,-161.6688
17:12:46:085,-1.644,3.318,9.675,37.8471,-0.3209,-0.7754,-0.2754,-161.7728
17:12:46:103,-1.5911,2.933,11.102,37.9289,-0.6242,-0.7084,-0.2808,-161.7728
17:12:46:124,-1.392,2.658,12.758,37.8851,-0.8106,-0.388,-0.1786,-161.7728
17:12:46:146,-1.119,2.93,13.9721,37.8851,-0.6552,0.1207,0.0481,-161.7728
17:12:46:165,-0.458,3.225,13.766,37.8363,-0.2571,0.3675,0.2311,-161.7728
17:12:46:185,0.194,3.627,12.4571,37.8121,0.0462,0.3123,0.2206,-161.8697
17:12:46:204,0.6041,3.7331,11.094,37.7598,0.0846,0.143,0.0098,-161.9828
17:12:46:223,0.714,3.3641,10.5491,37.4906,-0.0953,0.01,-0.2659,-162.1066
17:12:46:242,0.491,2.394,11.097,37.2161,-0.2219,0.028,-0.4256,-162.2323
17:12:46:263,0.278,1.599,11.774,36.7969,-0.1911,-0.0539,-0.4372,-162.3522
17:12:46:281,0.347,1.065,11.9831,36.5055,-0.0804,-0.1401,-0.2947,-162.4624
17:12:46:302,0.647,0.845,11.75,36.5723,0.1632,-0.0219,-0.0264,-162.5667
17:12:46:321,1.233,0.927,10.841,36.5173,0.5006,0.1441,0.2152,-162.673
17:12:46:342,1.583,1.374,9.3491,36.556,0.7815,0.1834,0.279,-162.7913
17:12:46:362,1.506,1.9061,7.472,36.556,0.938,0.2399,0.2109,-162.9255
17:12:46:382,1.209,2.3681,5.5781,36.4517,0.956,0.3931,0.0821,-163.0731
17:12:46:403,0.7931,2.897,4.0481,36.4091,0.8029,0.474,-0.1232,-163.2285
17:12:46:422,0.11,3.527,3.1271,36.589,0.4879,0.4241,-0.4095,-163.3833
17:12:46:443,-0.777,3.804,2.964,36.8565,0.0792,0.2676,-0.6724,-163.5206
17:12:46:462,-1.548,3.7181,3.455,36.7237,-0.3295,0.1057,-0.8012,-163.6132
17:12:46:483,-2.0171,3.692,4.4981,36.6734,-0.6732,-0.0016,-0.8064,-163.6132
17:12:46:501,-2.139,3.527,5.925,36.5935,-0.9074,-0.0751,-0.7469,-163.6132
17:12:46:524,-2.142,3.347,7.553,36.4351,-0.9745,-0.0539,-0.6553,-163.6132
17:12:46:543,-2.331,3.302,9.102,36.4464,-0.8286,0.0846,-0.4862,-163.5049
17:12:46:561,-2.4701,3.555,10.1561,36.5706,-0.5699,0.2889,-0.2467,-163.3878
17:12:46:581,-2.441,3.996,11.1041,36.5876,-0.4466,0.2687,-0.0722,-163.272
17:12:46:603,-2.118,4.159,12.411,36.6659,-0.5434,0.0302,-0.0392,-163.1656
17:12:46:623,-1.881,4.094,13.85,36.8609,-0.6157,0.092,-0.0434,-163.0735
17:12:46:643,-2.0771,3.96,14.8391,37.0672,-0.5488,0.4697,-0.0275,-163.0735
17:12:46:662,-2.268,3.627,15.026,37.1076,-0.4646,0.7283,0.0439,-163.0735
17:12:46:682,-2.309,2.82,14.726,36.8019,-0.406,0.7411,0.1002,-163.0735
17:12:46:706,-2.774,2.052,14.085,36.4849,-0.1475,0.7954,0.2343,-163.0735
17:12:46:723,-3.384,1.6091,12.507,36.2789,0.3772,0.8475,0.4972,-163.0735
17:12:46:743,-3.6881,1.7741,10.2881,36.2452,0.8359,0.6156,0.777,-163.0735
17:12:46:762,-3.4511,2.1161,8.255,36.2303,0.8859,0.0314,0.9463,-163.0735
17:12:46:783,-2.5031,2.04,7.28,36.2971,0.5081,-0.5647,0.9622,-163.0735
17:12:46:803,-1.38,1.7261,7.992,36.2125,0.044,-0.6381,0.8803,-163.0735
17:12:46:824,-0.8651,1.343,9.2081,36.0388,-0.1974,-0.3647,0.7601,-163.0735
17:12:46:844,-0.624,1.085,10.106,35.9707,-0.1932,-0.0762,0.7036,-163.0735
17:12:46:864,-0.42,1.137,10.343,35.769,0.0069,0.1217,0.6898,-163.0735
17:12:46:883,-0.365,1.482,9.9311,35.5836,0.242,0.1324,0.6366,-163.1759
17:12:46:906,-0.1571,1.551,9.1361,35.4859,0.4133,0.0707,0.5951,-163.2917
17:12:46:923,-0.032,1.568,8.2721,35.42,0.5761,0.1196,0.6047,-163.4195
17:12:46:943,-0.063,1.8341,7.2281,35.3159,0.738,0.2155,0.6418,-163.5614
17:12:46:962,-0.111,2.234,6.038,35.2237,0.8125,0.2485,0.6452,-163.7195
17:12:46:982,-0.231,2.76,5.078,35.306,0.738,0.1825,0.5866,-163.8931
17:12:47:003,-0.363,3.1871,4.534,35.2859,0.5549,0.0516,0.4674,-164.0779
17:12:47:028,-0.899,3.711,4.853,35.387,-0.0198,-0.3593,0.1534,-164.2677
17:12:47:045,-1.17,3.651,5.7341,35.3802,-0.3647,-0.47,0.0342,-164.4552
17:12:47:065,-1.373,3.62,7.161,35.3226,-0.6966,-0.5338,-0.0455,-164.6309
17:12:47:085,-1.301,3.488,9.126,35.273,-0.9659,-0.5998,-0.1148,-164.7909
17:12:47:105,-1.074,2.9621,11.264,35.1043,-1.1745,-0.6786,-0.1999,-164.9374
17:12:47:124,-1.1501,2.4731,13.3091,35.0103,-1.2053,-0.5369,-0.2201,-165.076
17:12:47:144,-1.3511,2.31,14.5781,34.8922,-0.9808,-0.2167,-0.118,-165.213
17:12:47:164,-1.296,2.562,14.358,34.8969,-0.6658,-0.023,0.0257,-165.3485
17:12:47:184,-0.473,2.655,13.496,35.0198,-0.5455,-0.0378,0.0652,-165.4836
17:12:47:204,0.4361,2.133,13.163,35.1755,-0.6339,-0.1965,-0.1658,-165.6221
17:12:47:225,0.0791,1.559,13.4411,35.2665,-0.6094,-0.173,-0.4159,-165.7673
17:12:47:243,-0.825,1.269,13.584,35.1912,-0.3326,-0.0389,-0.3744,-165.9156
17:12:47:267,-0.9731,0.912,13.17,35.0835,0.0931,0.0291,-0.0626,-166.0554
17:12:47:283,-0.1901,0.7901,12.129,34.8574,0.557,0.0558,0.3185,-166.1815
17:12:47:303,0.965,1.118,10.671,34.7111,0.9327,0.0707,0.5302,-166.3017
17:12:47:324,1.952,1.506,9.038,34.6932,1.1147,0.0175,0.4833,-166.4304
17:12:47:343,2.418,1.836,7.355,34.6211,1.071,-0.0389,0.2163,-166.5782
17:12:47:364,2.201,2.126,5.7581,34.5562,0.8177,-0.0007,-0.1925,-166.7479
17:12:47:383,1.2281,2.33,4.7,34.4235,0.4964,0.2155,-0.5745,-166.9357
17:12:47:403,0.216,2.552,4.34,34.3309,0.2292,0.3953,-0.832,-167.1316
17:12:47:423,-0.5711,2.8301,4.374,34.2931,0.0388,0.408,-1.0352,-167.3162
17:12:47:442,-1.457,3.0311,4.553,34.3489,-0.1358,0.2644,-1.1854,-167.4674
17:12:47:462,-2.4101,3.0911,4.901,34.3778,-0.3806,0.0824,-1.1609,-167.568
17:12:47:487,-3.0731,3.1361,5.964,34.4823,-0.6391,-0.0932,-0.9331,-167.568
17:12:47:502,-3.03,3.122,7.556,34.6206,-0.7668,-0.2219,-0.6149,-167.568
17:12:47:534,-2.108,2.772,9.086,34.5768,-0.7147,-0.2007,-0.3638,-167.4583
17:12:47:542,-1.289,2.576,10.3091,34.6205,-0.5104,-0.0517,-0.2797,-167.3503
17:12:47:564,-1.196,2.8511,11.018,34.4907,-0.2657,0.1293,-0.3223,-167.2558
17:12:47:583,-1.914,3.266,11.5091,34.3369,-0.1155,0.209,-0.3499,-167.2558
17:12:47:602,-2.5031,3.378,11.906,34.2942,-0.0869,0.1953,-0.2361,-167.2558
17:12:47:622,-2.606,3.522,12.0881,34.3289,-0.0986,0.3197,-0.0424,-167.1586
17:12:47:643,-2.34,3.759,12.2051,34.2568,-0.1251,0.4773,0.0789,-167.0612
17:12:47:661,-1.823,3.5051,12.282,34.0786,-0.2475,0.4005,0.0001,-166.97
17:12:47:682,-1.869,2.729,12.605,33.8319,-0.4455,0.2835,-0.184,-166.97
17:12:47:702,-2.64,1.805,12.9551,33.6446,-0.4529,0.3666,-0.2233,-166.97
17:12:47:722,-3.693,1.2431,12.591,33.5263,-0.1464,0.4921,-0.0253,-166.97
17:12:47:742,-4.5,1.3571,11.1971,33.4097,0.3314,0.4868,0.3609,-166.8788
17:12:47:762,-4.2821,1.6811,9.335,33.3335,0.5857,0.1526,0.6632,-166.8788
17:12:47:781,-3.48,1.688,7.989,33.1442,0.425,-0.3806,0.7132,-166.8788
17:12:47:802,-2.819,1.482,7.5611,32.7413,0.0749,-0.5178,0.6133,-166.8788
17:12:47:822,-2.822,1.235,7.9721,32.292,-0.2412,-0.2668,0.5089,-166.8788
17:12:47:842,-2.934,0.9341,8.7071,31.9117,-0.4284,-0.1624,0.5015,-166.8788
17:12:47:862,-2.826,0.776,9.387,31.5986,-0.4295,-0.2188,0.5994,-166.8788
17:12:47:896,-2.4341,0.828,9.624,31.4769,-0.256,-0.2124,0.7664,-166.8788
17:12:47:903,-1.9451,0.9,9.296,31.3939,0.0195,-0.0901,0.9377,-166.8788
17:12:47:922,-1.593,1.2281,8.633,31.2858,0.3006,0.0249,1.0846,-166.8788
17:12:47:942,-1.2701,1.635,7.901,31.0407,0.5283,0.0078,1.1697,-166.8788
17:12:47:962,-0.83,1.97,7.223,30.8455,0.6677,-0.0879,1.1773,-166.8788
17:12:47:983,-0.408,2.394,6.651,30.6995,0.6859,-0.1687,1.0836,-166.8788
17:12:48:002,-0.0131,2.715,6.435,30.3359,0.5837,-0.2124,0.892,-166.9847
17:12:48:023,0.1871,2.832,6.584,30.1613,0.4059,-0.2549,0.6185,-167.1115
17:12:48:043,0.0221,2.8661,6.974,29.9683,0.1994,-0.2347,0.3365,-167.2544
17:12:48:063,-0.449,2.8631,7.52,29.6146,0.0153,-0.1453,0.0991,-167.4019
17:12:48:083,-1.074,2.9111,8.226,29.4773,-0.1858,-0.1507,-0.0754,-167.5415
17:12:48:103,-1.229,2.691,9.363,29.2383,-0.4583,-0.3209,-0.1914,-167.6636
17:12:48:123,-1.203,2.4041,11.0231,29.1481,-0.7552,-0.4625,-0.2648,-167.7685
17:12:48:145,-1.131,2.258,12.782,29.0145,-0.8807,-0.3114,-0.2201,-167.8617
17:12:48:163,-0.9041,2.325,13.833,28.9128,-0.7179,0.061,-0.12,-167.8617
17:12:48:182,-0.813,2.454,13.2971,28.6183,-0.4933,0.3134,-0.1328,-167.9569
17:12:48:203,-0.918,2.2271,12.198,28.3547,-0.4998,0.2474,-0.2669,-168.0575
17:12:48:223,-1.524,1.604,11.9591,28.1901,-0.6211,0.0579,-0.3616,-168.1591
17:12:48:243,-2.2661,1.2431,12.5291,28.2485,-0.4976,-0.0102,-0.1935,-168.256
17:12:48:264,-2.592,1.02,12.7901,28.4347,-0.0474,-0.0698,0.1364,-168.3493
17:12:48:283,-2.156,0.888,12.1691,28.5925,0.4506,-0.2912,0.5228,-168.4475
17:12:48:302,-0.7271,0.941,11.171,28.5072,0.771,-0.3997,0.8207,-168.5601
17:12:48:322,0.831,1.185,10.302,28.3465,0.8954,-0.4103,0.8643,-168.6973
17:12:48:343,2.081,1.3451,9.3041,28.0852,0.8592,-0.404,0.6185,-168.8638
17:12:48:362,2.232,1.511,8.0921,27.8283,0.6848,-0.2443,0.1981,-169.055
17:12:48:383,1.221,1.614,6.8381,27.7744,0.4932,0.1176,-0.1434,-169.2572
17:12:48:403,0.005,1.8341,5.676,27.6675,0.3729,0.4836,-0.2989,-169.451
17:12:48:423,-0.911,2.1281,4.7471,27.6451,0.2357,0.5932,-0.3574,-169.62
17:12:48:442,-1.476,2.291,4.2281,27.6699,0.0399,0.4463,-0.3733,-169.7544
17:12:48:463,-1.8371,2.595,4.3001,27.6998,-0.2135,0.142,-0.351,-169.8504
17:12:48:483,-1.763,2.775,5.0111,27.8307,-0.4753,-0.0773,-0.3266,-169.8504
17:12:48:503,-1.677,2.775,6.014,27.9489,-0.6754,-0.0252,-0.3212,-169.8504
17:12:48:523,-1.826,2.847,7.23,28.0222,-0.7583,0.1856,-0.2584,-169.8504
17:12:48:546,-2.211,3.072,8.408,28.092,-0.6882,0.3814,-0.1488,-169.8504
17:12:48:562,-2.613,3.314,9.4069,28.1597,-0.5019,0.4326,0.012,-169.8504
17:12:48:583,-2.8481,3.488,10.1771,28.2262,-0.3135,0.3262,0.2206,-169.8504
17:12:48:603,-2.45,3.62,11.0231,28.3359,-0.2082,0.1537,0.4036,-169.8504
17:12:48:623,-1.541,3.4841,12.0311,28.4377,-0.2124,0.0334,0.4355,-169.9435
17:12:48:643,-1.038,3.156,13.17,28.5154,-0.3305,0.0505,0.3151,-170.0575
17:12:48:662,-1.371,2.8181,14.0231,28.4993,-0.4051,0.3666,0.2183,-170.1893
17:12:48:683,-2.2661,2.648,14.114,28.1967,-0.3571,0.8262,0.2619,-170.3302
17:12:48:703,-3.2261,2.6141,13.2971,27.7263,-0.2219,1.0263,0.4078,-170.4736
17:12:48:723,-3.887,2.454,11.7581,27.275,-0.073,0.956,0.5334,-170.6193
17:12:48:742,-4.476,2.1311,10.154,26.87,-0.0102,0.6666,0.609,-170.7691
17:12:48:764,-5.165,1.937,9.05,26.7347,0.0015,0.3262,0.7026,-170.9222
17:12:48:782,-5.6471,1.709,8.468,26.7222,-0.0155,-0.0741,0.825,-171.0784
17:12:48:803,-5.6441,1.31,8.2481,26.5855,-0.1603,-0.4922,0.9707,-171.239
17:12:48:822,-5.247,0.689,8.7791,26.6161,-0.3741,-0.6647,1.1326,-171.4075
17:12:48:842,-4.847,-0.054,9.665,26.6923,-0.4423,-0.5775,1.3241,-171.5945
17:12:48:864,-4.5791,-0.59,10.106,26.7487,-0.3114,-0.4199,1.5752,-171.8101
17:12:48:890,-4.332,-0.887,9.7781,26.7474,-0.0645,-0.2582,1.8817,-172.0602
17:12:48:902,-4.1569,-0.701,9.069,26.5658,0.1825,-0.1752,2.1924,-172.3526
17:12:48:922,-3.6521,-0.5021,8.276,26.3977,0.3835,-0.2273,2.4448,-172.6963
17:12:48:942,-2.762,-0.2771,7.427,26.2135,0.4815,-0.2879,2.5948,-173.0954
17:12:48:962,-1.806,0.096,6.936,26.1046,0.441,-0.3124,2.6075,-173.5537
17:12:48:982,-0.9761,0.519,7.0481,25.9921,0.3314,-0.3773,2.4564,-174.0742
17:12:49:003,-0.425,0.78,7.518,25.8127,0.2665,-0.4635,2.1616,-174.6545
17:12:49:023,-0.135,0.828,7.956,25.7173,0.2591,-0.437,1.8147,-175.2873
17:12:49:053,-0.384,0.7181,8.741,25.6069,0.1888,-0.1018,1.1921,-176.6659
17:12:49:070,-0.633,0.56,9.122,25.4968,0.1654,0.044,1.0059,-177.3918
17:12:49:090,-0.77,0.546,9.411,25.4829,0.11,0.1856,0.8717,-178.132
17:12:49:110,-0.753,0.651,9.818,25.3364,0.0078,0.2813,0.7686,-178.882
17:12:49:129,-0.348,0.773,10.259,25.1925,-0.1603,0.2856,0.6504,-179.6398
17:12:49:149,0.182,0.965,10.7741,25.0555,-0.4423,0.3091,0.4812,179.5947
17:12:49:169,0.776,1.2281,11.43,24.8203,-0.7776,0.4304,0.2545,178.8238
17:12:49:189,1.3001,1.295,11.897,24.8282,-1.1362,0.6517,-0.0551,178.0538
17:12:49:209,1.367,0.9461,12.438,24.9121,-1.5554,0.9497,-0.434,177.2926
17:12:49:231,0.663,0.405,13.496,24.8989,-1.814,1.3467,-0.6256,176.5509
17:12:49:248,-0.789,-0.38,13.9871,24.9788,-1.5725,1.866,-0.6341,175.8349
17:12:49:269,-2.8601,-0.018,13.692,24.8926,-0.9148,1.9001,-0.2382,175.1424
17:12:49:288,-3.935,0.141,12.2651,24.6067,-0.1592,1.2903,0.4653,174.4613
17:12:49:308,-4.1741,0.8471,10.319,24.5088,0.474,0.473,1.3592,173.7717
17:12:49:329,-2.3951,1.401,8.7071,24.5241,0.7752,-0.3337,2.1627,173.055
17:12:49:348,0.1751,1.851,7.515,24.7292,0.8007,-0.7722,2.3521,172.2928
17:12:49:368,1.5731,2.4041,6.5171,24.9265,0.6293,-0.7785,1.9104,171.4799
17:12:49:387,1.214,2.772,5.8541,24.8499,0.3228,-0.5508,1.2348,170.6301
17:12:49:407,-0.348,2.622,6.158,24.8141,0.0015,-0.4433,0.7579,169.7689
17:12:49:430,-1.809,2.411,7.043,24.7456,-0.1783,-0.5178,0.5451,168.9199
17:12:49:447,-2.58,2.0921,7.92,24.9161,-0.2497,-0.6391,0.5365,168.0962
17:12:49:467,-2.4791,1.6781,9.167,25.1695,-0.2497,-0.7967,0.6387,167.2967
17:12:49:487,-1.739,1.436,10.4291,25.3453,-0.1038,-0.7477,0.7579,166.5064
17:12:49:507,-0.7481,1.3001,11.0801,25.3765,0.1504,-0.4273,0.7835,165.7084
17:12:49:528,-0.2861,1.5131,11.145,25.2792,0.4016,-0.0007,0.6568,164.8939
17:12:49:557,-0.545,1.815,10.623,25.2251,0.6124,0.3686,0.51,164.0636
17:12:49:566,-1.04,2.174,9.852,25.167,0.773,0.6134,0.4674,163.2254
17:12:49:586,-1.2821,2.636,9.15,25.3259,0.8167,0.6783,0.4855,162.3856
17:12:49:606,-1.146,3.12,8.712,25.5389,0.7124,0.6549,0.4918,161.547
17:12:49:627,-0.806,3.507,8.6861,25.5285,0.4367,0.6848,0.4536,160.7089
17:12:49:646,-0.4031,3.555,9.287,25.8101,0.0781,0.8262,0.3301,159.8685
17:12:49:666,-0.485,3.3971,10.218,25.9826,-0.2549,0.9338,0.1162,159.0229
17:12:49:686,-1.2011,2.7341,11.054,26.1257,-0.5753,0.9327,-0.069,158.1765
17:12:49:705,-2.256,1.8701,12.0641,26.272,-0.7573,0.8614,-0.0722,157.3394
17:12:49:725,-3.329,1.154,12.533,26.2875,-0.6296,0.7795,0.1407,156.5185
17:12:49:745,-4.284,1.034,11.985,26.0712,-0.2827,0.6751,0.5525,155.714
17:12:49:765,-4.5071,1.235,10.601,25.8095,-0.0038,0.3953,1.0165,154.9217
17:12:49:787,-3.873,1.446,9.213,25.8995,0.0366,0.0291,1.3017,154.1326
17:12:49:805,-3.128,1.484,8.267,25.8271,-0.0602,-0.1283,1.3762,153.3372
17:12:49:827,-2.7641,1.496,7.9631,25.8694,-0.1815,-0.0847,1.3358,152.5293
17:12:49:844,-2.678,1.403,8.066,26.1031,-0.2443,-0.0836,1.2453,151.7066
17:12:49:870,-2.616,1.077,8.3081,26.0693,-0.2529,-0.2284,1.1634,150.8704
17:12:49:892,-2.63,0.716,8.528,25.9624,-0.2178,-0.404,1.1315,150.0235
17:12:49:905,-2.747,0.3971,8.691,25.9245,-0.1198,-0.4157,1.2081,149.1677
17:12:49:924,-2.766,0.2441,8.626,25.9463,0.026,-0.3039,1.4007,148.303
17:12:49:943,-2.46,0.4451,8.284,25.8817,0.1782,-0.1687,1.6199,147.4245
17:12:49:964,-1.7351,0.747,7.743,25.9894,0.242,-0.1166,1.6859,146.525
17:12:49:983,-1.1051,1.104,7.568,25.8592,0.1814,-0.1826,1.5635,145.5994
17:12:50:004,-0.786,1.47,7.776,25.6462,0.0653,-0.2219,1.3284,144.649
17:12:50:023,-0.7271,1.559,8.253,25.3891,-0.0326,-0.1752,1.0825,143.682
17:12:50:043,-0.624,1.5011,8.774,25.0905,-0.0666,-0.0144,0.9186,142.706
17:12:50:066,-0.303,1.4411,9.11,24.9906,-0.0591,0.176,0.7739,141.7258
17:12:50:083,-0.116,1.511,9.366,25.0508,-0.0836,0.2601,0.5653,140.7434
17:12:50:103,-0.054,1.58,9.866,25.1893,-0.1709,0.2079,0.3151,139.7635
17:12:50:124,0.3,1.29,10.553,25.5048,-0.3061,0.1387,0.0789,138.7927
17:12:50:144,0.702,0.8861,11.2841,25.6969,-0.4902,0.159,-0.1849,137.8356
17:12:50:163,0.5921,0.656,11.99,25.7694,-0.6786,0.3388,-0.4298,136.8999
17:12:50:183,-0.054,0.924,12.785,25.7007,-0.8115,0.5442,-0.5468,135.9955
17:12:50:203,-0.171,0.594,13.2161,25.582,-0.8393,0.6731,-0.6032,135.1286
17:12:50:222,-1.026,0.44,13.5251,25.3661,-0.7435,0.7061,-0.6266,134.3002
17:12:50:242,-1.9571,0.2111,13.754,25.3423,-0.4646,0.6251,-0.3989,133.5109
17:12:50:263,-2.472,0.1841,13.311,25.2362,0.0653,0.4995,0.0481,132.754
17:12:50:282,-2.012,0.491,12.1721,25.046,0.6039,0.1504,0.561,132.0183
17:12:50:302,-0.5351,0.737,10.908,25.1157,0.87,-0.2986,0.8378,131.2907
17:12:50:322,0.75,1.075,9.9521,25.0699,0.9349,-0.4956,0.8504,130.5612
17:12:50:342,1.616,1.4081,9.0311,25.1028,0.9274,-0.4412,0.6973,129.8277
17:12:50:363,1.8131,1.6691,7.7981,25.2257,0.87,-0.2252,0.4099,129.0945
17:12:50:382,1.2641,1.925,6.3521,25.1476,0.7422,0.0601,0.1216,128.367
17:12:50:404,0.491,2.1161,5.1641,25.1756,0.5794,0.2676,-0.087,127.6525
17:12:50:422,-0.162,2.346,4.3931,25.3594,0.4016,0.2707,-0.2552,126.9594
17:12:50:442,-0.77,2.559,4.0841,25.3767,0.1834,0.0653,-0.4137,126.2969
17:12:50:464,-1.0931,2.579,4.259,25.4828,-0.089,-0.2369,-0.5457,125.6788
17:12:50:482,-1.074,2.562,5.135,25.4416,-0.3943,-0.3849,-0.6746,125.1116
17:12:50:502,-1.1741,2.471,6.603,25.4729,-0.6424,-0.2944,-0.8075,124.5899
17:12:50:522,-1.337,2.2001,8.391,25.6777,-0.7403,-0.122,-0.8502,124.1075
17:12:50:542,-1.593,2.033,9.9161,26.1696,-0.5966,0.1547,-0.782,123.661
17:12:50:572,-2.149,2.3681,10.661,26.8002,-0.3135,0.4559,-0.6341,123.246
17:12:50:585,-2.333,2.856,10.7591,27.142,-0.1442,0.4932,-0.4777,122.8583
17:12:50:604,-2.2301,3.1001,11.049,27.3806,-0.2102,0.3942,-0.3883,122.4928
17:12:50:622,-2.316,3.2561,12.0401,27.4561,-0.3741,0.358,-0.3041,122.1428
17:12:50:642,-2.4911,3.3251,13.082,27.4865,-0.4381,0.557,-0.1669,121.8044
17:12:50:663,-2.637,3.419,13.7591,27.3989,-0.3858,0.7315,-0.0371,121.474
17:12:50:683,-2.513,3.1241,14.295,27.1176,-0.338,0.5123,0.0439,121.1486
17:12:50:703,-2.297,2.124,14.628,26.7435,-0.2241,0.2346,0.0715,120.8239
17:12:50:723,-2.517,1.1801,14.31,26.682,0.1622,0.2813,0.1822,120.4975
17:12:50:742,-3.351,0.996,12.653,26.9374,0.756,0.3803,0.4153,120.1693
17:12:50:762,-3.7151,1.4291,10.271,27.2047,1.1648,0.1515,0.6622,119.8396
17:12:50:786,-3.248,1.808,8.193,27.4436,1.0775,-0.3838,0.743,119.508
17:12:50:803,-2.264,1.6211,7.362,27.4309,0.6176,-0.7019,0.6472,119.174
17:12:50:823,-1.584,1.3241,7.941,27.3098,0.1834,-0.4604,0.461,118.8326
17:12:50:843,-1.794,0.974,8.597,27.2978,-0.007,-0.0996,0.2599,118.4803
17:12:50:874,-2.436,0.7181,8.834,27.4962,-0.0176,-0.0198,0.2078,118.1254
17:12:50:885,-2.5151,0.4691,8.801,27.6553,0.0749,-0.1134,0.3099,117.7789
17:12:50:903,-2.228,0.35,8.2811,27.8184,0.193,-0.1018,0.4748,117.443
17:12:50:923,-1.758,0.405,7.733,27.8795,0.2452,-0.0315,0.6057,117.1144
17:12:50:943,-1.433,0.5531,7.2971,27.9238,0.2867,0.0579,0.6876,116.7895
17:12:50:963,-1.26,0.7451,6.8231,27.9797,0.3772,0.1185,0.7451,116.467
17:12:50:983,-1.122,1.049,6.198,27.9893,0.473,0.1504,0.7813,116.1475
17:12:51:003,-1.026,1.4561,5.4611,28.0463,0.4708,0.1196,0.7536,115.8312
17:12:51:023,-0.8561,1.848,4.922,27.9937,0.2878,0.0089,0.6494,115.5191
17:12:51:043,-0.686,2.1641,5.0591,27.9077,-0.0241,-0.1368,0.462,115.2133
17:12:51:063,-0.7601,2.353,5.8511,27.8583,-0.3528,-0.2338,0.213,114.9133
17:12:51:083,-1.308,2.4161,7.139,27.7292,-0.6115,-0.2241,-0.0201,114.6197
17:12:51:102,-1.9931,2.313,8.549,27.8134,-0.7967,-0.188,-0.1265,114.3379
17:12:51:123,-1.9091,2.0231,9.84,27.5646,-0.9563,-0.2315,-0.118,114.0711
17:12:51:144,-1.4471,1.836,10.893,27.3532,-1.1223,-0.1794,-0.1658,113.8149
17:12:51:163,-1.6841,1.8701,11.724,27.1509,-1.2372,0.1185,-0.2617,113.565
17:12:51:185,-2.12,1.8911,12.1601,26.8776,-1.3054,0.308,-0.3403,113.3253
17:12:51:204,-2.108,1.64,12.378,27.0145,-1.5001,0.2186,-0.4128,113.1006
17:12:51:224,-2.149,0.84,13.7951,27.148,-1.8237,0.0972,-0.5628,112.8924
17:12:51:244,-2.6681,-0.138,16.568,27.2091,-1.8822,0.0249,-0.5532,112.7029
17:12:51:262,-3.329,-0.9731,18.509,27.1843,-1.3214,0.1409,-0.2691,112.5323
17:12:51:284,-3.3911,-1.572,18.308,27.2333,-0.3157,0.2357,0.312,112.3754
17:12:51:305,-2.312,-1.709,16.335,27.0259,0.7433,0.2207,0.9431,112.2184
17:12:51:326,-0.542,-0.978,14.015,26.8629,1.4637,0.0217,1.3454,112.0437
17:12:51:345,1.5731,-0.363,11.664,26.7521,1.7755,-0.1464,1.3592,111.8385
17:12:51:366,2.8211,0.321,9.213,26.435,1.8319,-0.1038,0.9835,111.6002
17:12:51:385,2.6531,1.049,6.624,26.3317,1.7223,0.1845,0.4983,111.3388
17:12:51:403,1.8341,1.518,4.4531,26.4715,1.4169,0.4964,0.0896,111.0669
17:12:51:425,0.7541,1.889,3.2651,26.5755,0.9796,0.5857,-0.2669,110.7938
17:12:51:446,-0.3701,2.0089,3.0281,26.6628,0.5527,0.4474,-0.5138,110.5304
17:12:51:467,-1.289,1.817,3.32,26.6639,0.1686,0.2101,-0.6351,110.2962
17:12:51:485,-2.094,1.8461,3.8351,26.5747,-0.157,0.1313,-0.6245,110.1088
17:12:51:504,-2.541,1.8821,4.9721,26.5504,-0.404,0.076,-0.5085,109.9787
17:12:51:524,-2.6321,1.836,6.605,26.625,-0.4646,-0.0219,-0.3297,109.9787
17:12:51:543,-2.252,1.796,8.066,26.8823,-0.3018,-0.0666,-0.1232,109.9787
17:12:51:564,-1.823,1.937,8.672,27.3543,-0.0485,0.0291,0.0448,109.9787
17:12:51:588,-1.754,2.543,8.741,27.7214,0.1068,0.1378,0.1546,109.9787
17:12:51:604,-1.83,3.249,8.729,28.1612,0.0525,0.1899,0.2141,109.9787
17:12:51:622,-1.766,3.7541,9.366,28.4246,-0.1986,0.2442,0.2408,109.8817
17:12:51:646,-1.478,3.984,11.123,28.514,-0.5551,0.1622,0.1748,109.7743
17:12:51:664,-1.2491,3.788,13.577,28.6266,-0.7882,0.0408,0.047,109.6499
17:12:51:686,-1.38,3.311,15.71,28.4342,-0.6934,0.077,-0.0477,109.5079
17:12:51:705,-1.7111,2.6891,16.56,28.0361,-0.3763,0.1378,-0.0509,109.3556
17:12:51:726,-1.694,1.695,16.23,27.4746,-0.0027,0.1919,-0.0168,109.2013
17:12:51:746,-2.1221,0.984,15.0641,26.7771,0.4847,0.3058,0.0342,109.0487
17:12:51:763,-2.826,1.089,12.818,26.3598,1.0413,0.3197,0.1577,108.9004
17:12:51:783,-2.996,1.587,9.7631,25.9584,1.2605,-0.0421,0.2408,108.7577
17:12:51:804,-2.4071,1.829,7.403,25.7206,0.9796,-0.4316,0.2109,108.6213
17:12:51:826,-1.6511,1.7981,6.419,25.711,0.4548,-0.4689,0.0353,108.491
17:12:51:844,-1.442,1.4081,6.483,25.5438,0.0228,-0.1698,-0.235,108.3625
17:12:51:871,-1.979,1.032,6.771,25.6338,-0.2082,0.0855,-0.4703,108.2332
17:12:51:884,-2.69,0.6371,6.876,25.6994,-0.3274,0.1005,-0.5904,108.1113
17:12:51:909,-3.384,0.218,7.2161,25.848,-0.4295,-0.1145,-0.5543,108.0066
17:12:51:924,-3.9251,-0.1451,7.826,26.1051,-0.4487,-0.3901,-0.3127,108.0066
17:12:51:944,-4.16,-0.243,8.159,26.1775,-0.3114,-0.4785,0.162,108.0066
17:12:51:966,-3.473,-0.092,8.1881,26.1063,-0.0539,-0.3647,0.792,108.0066
17:12:51:983,-1.9961,0.39,7.8431,25.8418,0.2601,-0.1783,1.2283,108.0066
17:12:52:004,-0.861,1.125,7.163,25.5174,0.4665,-0.1401,1.257,107.9029
17:12:52:023,-0.341,1.899,6.318,25.5374,0.4665,-0.2145,1.0165,107.7661
17:12:52:044,-0.3551,2.495,5.849,25.4921,0.2729,-0.272,0.6557,107.6015
17:12:52:066,-0.693,2.705,6.0281,25.5149,-0.0209,-0.2634,0.3099,107.4193
17:12:52:092,-2.034,3.0311,8.1161,25.5891,-0.5115,-0.1837,-0.0679,107.0328
17:12:52:110,-1.9601,2.7701,9.464,25.5616,-0.7051,-0.2996,-0.1573,106.8357
17:12:52:127,-1.2821,2.2601,11.5781,25.538,-1.0192,-0.5275,-0.2882,106.6313
17:12:52:147,-0.923,2.006,14.0681,25.3761,-1.2224,-0.4231,-0.4425,106.4143
17:12:52:167,-0.9011,1.7,15.8471,25.2198,-1.0766,0.061,-0.5192,106.1892
17:12:52:187,-1.131,1.6781,16.1081,24.964,-0.7179,0.4293,-0.4669,105.9646
17:12:52:207,-0.992,1.9271,15.588,24.8189,-0.4199,0.325,-0.3755,105.7455
17:12:52:226,-0.3221,1.353,15.378,24.7383,-0.2338,0.0653,-0.4148,105.53
17:12:52:246,-0.53,0.347,15.126,24.6732,0.1708,0.0738,-0.3904,105.316
17:12:52:267,-0.9611,-0.179,13.517,24.7996,0.7656,0.1133,-0.1339,105.1024
17:12:52:288,-0.6641,-0.2171,11.066,25.0656,1.1487,0.0186,0.1546,104.8934
17:12:52:306,0.101,0.0671,9.162,25.351,1.1648,-0.0964,0.2864,104.6768
17:12:52:326,1.118,0.2801,8.499,25.8654,1.0391,-0.2007,0.23,104.4416
17:12:52:345,1.7621,0.4361,8.1881,26.2752,0.9477,-0.2837,-0.0158,104.1832
17:12:52:366,1.676,0.531,7.52,26.8744,0.8657,-0.2178,-0.3318,103.9044
17:12:52:387,0.948,0.7061,6.6341,27.3912,0.7508,0.0271,-0.5565,103.6122
17:12:52:405,0.161,0.9221,5.8271,27.5887,0.6412,0.3154,-0.6639,103.3125
17:12:52:425,-0.36,1.1801,5.133,27.8952,0.5516,0.4868,-0.7245,103.0112
17:12:52:445,-0.657,1.365,4.676,28.0525,0.4357,0.4091,-0.799,102.7145
17:12:52:465,-0.935,1.7141,4.436,28.3469,0.2687,0.1899,-0.9129,102.4307
17:12:52:486,-1.466,2.09,4.5649,29.0111,0.0494,0.0653,-1.0119,102.1687
17:12:52:505,-1.847,2.334,5.3531,29.6083,-0.2113,0.01,-1.0406,101.94
17:12:52:525,-2.034,2.543,6.821,30.1187,-0.3678,0.0846,-1.0311,101.7468
17:12:52:544,-2.422,2.873,8.174,30.4313,-0.2677,0.3367,-0.9694,101.581
17:12:52:564,-3.1541,3.342,8.7,30.4279,-0.0454,0.4176,-0.8756,101.4449
17:12:52:597,-3.849,3.68,8.937,30.5848,0.0547,0.2155,-0.715,101.3377
17:12:52:604,-4.265,4.034,9.311,30.8345,0.0058,0.0323,-0.4905,101.3377
17:12:52:623,-4.6121,4.515,9.7181,31.1563,-0.2102,0.1154,-0.2828,101.3377
17:12:52:643,-4.667,4.767,10.608,31.6864,-0.5775,0.4059,-0.1584,101.3377
17:12:52:664,-4.4831,4.4291,12.564,32.1041,-0.9851,0.4559,-0.1616,101.3377
17:12:52:683,-4.758,3.462,15.141,32.2284,-1.1905,0.2005,-0.2116,101.3377
17:12:52:703,-5.0891,1.791,16.9121,32.4127,-0.9265,0.1654,-0.0881,101.2234
17:12:52:723,-5.6081,0.596,16.905,32.672,-0.1922,0.3761,0.2408,101.0804
17:12:52:743,-6.116,0.479,15.143,32.8583,0.6933,0.4443,0.7601,100.9118
17:12:52:766,-5.537,0.9821,12.4421,33.4859,1.2519,0.0738,1.207,100.718
17:12:52:783,-3.533,1.1831,10.0121,34.0721,1.2264,-0.3689,1.306,100.4944
17:12:52:803,-1.6481,0.9221,8.8301,34.437,0.8316,-0.3231,1.0697,100.2321
17:12:52:823,-0.9011,0.6131,8.928,34.9595,0.44,0.0718,0.7888,99.9233
17:12:52:843,-1.0691,0.5891,8.916,35.1489,0.3399,0.4868,0.6504,99.5703
17:12:52:865,-1.263,0.857,8.322,35.4242,0.4113,0.6304,0.6973,99.183
17:12:52:884,-0.719,0.96,7.448,35.8125,0.473,0.4868,0.7601,98.7713
17:12:52:903,-0.305,1.262,6.711,36.1673,0.4241,0.2101,0.6759,98.3383
17:12:52:922,-0.5231,1.389,6.3851,36.4941,0.2771,0.0451,0.5376,97.8892
17:12:52:941,-1.2341,1.415,6.608,36.7744,0.1942,0.0803,0.561,97.4317
17:12:52:963,-1.6241,1.829,6.912,37.0303,0.1962,0.0835,0.7195,96.9716
17:12:52:982,-1.253,2.21,7.197,37.6522,0.2164,-0.1453,0.7568,96.5114
17:12:53:003,-0.798,2.37,7.532,38.2764,0.2101,-0.4338,0.6196,96.0486
17:12:53:022,-0.9611,2.552,7.7741,38.693,0.2559,-0.4646,0.4386,95.5829
17:12:53:042,-1.344,2.684,7.4771,38.9144,0.3208,-0.3124,0.3472,95.1206
17:12:53:064,-1.548,2.8901,6.9911,38.754,0.3101,-0.2423,0.329,94.6689
17:12:53:082,-1.349,3.2351,6.8591,38.8436,0.1973,-0.3582,0.2673,94.2314
17:12:53:107,-1.0931,3.503,7.1201,39.3886,-0.023,-0.5583,0.0906,93.8082
17:12:53:122,-1.256,3.7541,7.8461,39.9401,-0.3209,-0.5913,-0.1232,93.3976
17:12:53:142,-1.56,3.7331,8.8181,40.4785,-0.5285,-0.388,-0.2339,93.0018
17:12:53:163,-1.521,3.7301,9.6581,40.8262,-0.6146,-0.3189,-0.2541,92.6238
17:12:53:182,-1.043,3.735,10.3331,40.9675,-0.6637,-0.5115,-0.3255,92.2632
17:12:53:202,-0.446,3.369,11.054,41.0619,-0.7179,-0.7232,-0.4808,91.92
17:12:53:223,0.185,2.61,11.789,41.2883,-0.8063,-0.7711,-0.7321,91.5981
17:12:53:242,0.1271,1.887,12.258,41.5566,-0.8882,-0.5264,-1.0108,91.3055
17:12:53:264,-0.729,1.298,12.5021,41.8896,-0.8946,-0.1123,-1.1885,91.0548
17:12:53:284,-1.866,0.9341,12.632,42.1872,-0.7978,0.159,-1.1396,90.8578
17:12:53:303,-1.955,0.239,12.782,42.3951,-0.6402,0.142,-0.9672,90.7191
17:12:53:327,-1.799,-0.183,12.806,42.3601,-0.3454,0.0525,-0.7682,90.7191
17:12:53:344,-1.883,0.134,11.808,42.4355,0.1293,0.176,-0.4649,90.7191
17:12:53:364,-1.557,0.78,9.845,42.7183,0.5687,0.3655,-0.168,90.7191
17:12:53:385,-1.0571,1.434,7.659,43.1371,0.7422,0.4005,-0.0626,90.7191
17:12:53:404,-0.7241,2.04,5.949,43.6594,0.6688,0.3655,-0.1712,90.7191
17:12:53:426,-0.786,2.4041,4.905,43.8446,0.4889,0.3484,-0.4191,90.7191
17:12:53:444,-1.2221,2.4761,4.3091,43.9565,0.2591,0.3101,-0.7065,90.8268
17:12:53:463,-2.2451,2.6051,4.283,44.0512,-0.0539,0.2633,-0.9703,90.9755
17:12:53:484,-3.437,2.619,5.0681,44.3467,-0.3667,0.2505,-1.0725,91.1811
17:12:53:505,-4.193,2.519,6.2681,44.6775,-0.6231,0.1867,-1.0204,91.4491
17:12:53:523,-4.5791,2.5211,7.731,45.1226,-0.7861,0.1398,-0.8491,91.7655
17:12:53:545,-4.766,2.5331,9.4399,45.5538,-0.7563,0.1953,-0.6054,92.1093
17:12:53:564,-4.8491,2.547,10.934,45.8781,-0.4956,0.1899,-0.3084,92.463
17:12:53:583,-4.497,2.564,11.616,45.9638,-0.1166,0.076,-0.0062,92.8158
17:12:53:610,-4.1291,2.952,11.384,46.131,0.1953,0.1015,0.2311,93.1604
17:12:53:623,-3.944,3.536,10.8191,46.2157,0.2644,0.2409,0.3387,93.4937
17:12:53:644,-3.794,3.795,10.8221,46.3488,0.0972,0.3112,0.3162,93.8148
17:12:53:663,-3.9731,3.608,11.832,46.4694,-0.1411,0.2569,0.228,94.1207
17:12:53:684,-4.478,3.086,13.1921,46.531,-0.2412,0.176,0.2386,94.4071
17:12:53:704,-4.823,2.418,13.9121,46.5695,-0.1103,0.2229,0.4153,94.6701
17:12:53:723,-4.823,1.733,13.122,46.5537,0.2399,0.5985,0.6984,94.9077
17:12:53:743,-4.821,1.4171,11.1731,46.6984,0.6113,0.9773,1.0049,95.1193
17:12:53:764,-4.955,1.515,9.191,46.7807,0.8422,0.888,1.1825,95.3061
17:12:53:783,-5.187,1.851,7.577,46.5486,0.9114,0.4474,1.2581,95.4733
17:12:53:806,-5.055,1.808,6.3041,46.6584,0.7283,-0.1198,1.2922,95.6301
17:12:53:823,-4.4021,1.611,5.9711,46.8384,0.2665,-0.4401,1.2996,95.7821
17:12:53:847,-3.5831,1.334,6.782,46.8082,-0.2102,-0.206,1.2474,95.9206
17:12:53:862,-3.219,1.053,7.989,46.8027,-0.4945,0.1803,1.1634,96.0255
17:12:53:884,-2.991,0.984,8.7889,46.5801,-0.5818,0.3675,1.0942,96.0255
17:12:53:920,-2.7401,0.9341,9.0401,46.2103,-0.5614,0.3516,1.0197,96.0255
17:12:53:923,-2.333,0.8141,9.1309,45.84,-0.5232,0.2229,0.9527,96.0255
17:12:53:944,-2.103,0.8741,9.294,45.4891,-0.4412,0.1675,0.9324,96.0255
17:12:53:962,-1.857,0.912,9.2651,45.1698,-0.2603,0.2729,1.0123,96.0255
17:12:53:983,-1.6961,1.0871,8.8991,45.0118,-0.0144,0.4155,1.1389,96.0255
17:12:54:004,-1.2131,1.319,8.226,44.9427,0.1867,0.4474,1.2348,96.0255
17:12:54:026,-0.468,1.638,7.685,44.766,0.2452,0.3091,1.1538,96.0255
17:12:54:043,-0.104,1.982,7.529,44.4494,0.1771,0.0664,0.8803,96.0255
17:12:54:063,-0.353,2.037,7.5101,44.1133,0.094,0.0175,0.6036,96.0255
17:12:54:085,-0.815,2.126,7.719,43.9731,0.028,0.0813,0.4696,96.0255
17:12:54:103,-1.1171,2.3891,8.408,43.9892,0.0004,-0.0858,0.3769,96.0255
17:12:54:126,-0.885,2.42,9.1931,44.1037,-0.0474,-0.5285,0.2662,96.0255
17:12:54:144,-0.494,2.5691,9.897,44.1723,-0.1613,-0.884,0.1162,96.0255
17:12:54:163,-0.0851,2.5451,10.268,44.0066,-0.3337,-0.8733,-0.087,96.0255
17:12:54:184,-0.056,2.76,10.6301,43.7989,-0.5338,-0.5594,-0.2956,96.0255
17:12:54:203,-0.095,2.7341,11.001,43.5199,-0.7563,-0.3508,-0.534,96.0255
17:12:54:225,-0.1811,2.289,11.5061,43.1676,-0.919,-0.3667,-0.7884,96.0255
17:12:54:244,-0.456,1.508,12.081,43.0774,-0.984,-0.4913,-0.9885,96.0255
17:12:54:265,-1.126,1.041,12.3611,42.8519,-0.8584,-0.3965,-1.0141,96.0255
17:12:54:285,-1.826,0.812,12.129,42.7574,-0.5369,-0.1496,-0.8277,96.1676
17:12:54:305,-1.7561,0.656,11.535,42.7643,-0.1347,-0.0804,-0.5244,96.3605
17:12:54:323,-1.007,1.013,10.508,42.5737,0.2388,-0.1965,-0.3158,96.5923
17:12:54:343,-0.011,1.3841,9.2561,42.3981,0.4315,-0.3348,-0.3297,96.85
17:12:54:364,1.011,1.4321,8.1851,42.2189,0.3729,-0.4242,-0.5702,97.1255
17:12:54:383,1.4321,1.3811,7.4291,42.1504,0.127,-0.3476,-1.015,97.4175
17:12:54:402,0.527,1.2521,7.01,42.1177,-0.1134,-0.0049,-1.46,97.7344
17:12:54:425,-1.11,1.1951,6.6701,42.4567,-0.1986,0.3464,-1.6823,98.0899
17:12:54:443,-2.4791,1.343,6.275,42.5383,-0.172,0.4782,-1.7142,98.4992
17:12:54:463,-3.516,1.652,5.952,42.6795,-0.1539,0.3026,-1.6441,98.9729
17:12:54:483,-4.244,1.958,5.8871,42.8496,-0.2338,-0.0389,-1.4961,99.5141
17:12:54:504,-4.466,2.205,6.426,42.9447,-0.4348,-0.2751,-1.2449,100.1176
17:12:54:523,-4.083,2.3321,7.8221,43.0617,-0.6274,-0.2837,-0.9863,100.7652
17:12:54:544,-3.863,2.531,9.689,43.2118,-0.6402,-0.1496,-0.7916,101.428
17:12:54:564,-3.7841,2.559,11.399,43.2126,-0.437,-0.056,-0.6351,102.0853
17:12:54:587,-3.8651,2.499,12.383,43.036,-0.0986,0.0047,-0.4669,102.7287
17:12:54:603,-4.691,2.828,12.5141,42.9044,0.2569,0.0835,-0.2276,103.3544
17:12:54:623,-5.0891,3.3371,12.002,42.7258,0.4463,0.1324,0.1119,103.9614
17:12:54:643,-4.667,3.663,11.7911,42.4785,0.4113,0.1154,0.378,104.5441
17:12:54:663,-3.873,3.6131,12.2561,42.4258,0.2537,0.044,0.4557,105.0907
17:12:54:684,-3.008,3.048,13.314,42.5025,0.0579,-0.1422,0.3216,105.5904
17:12:54:703,-2.786,2.064,14.576,42.3506,-0.1018,-0.221,0.0864,106.0393
17:12:54:726,-3.372,0.9821,15.303,42.339,-0.0326,0.028,-0.0232,106.4451
17:12:54:746,-4.485,0.3731,14.853,42.2701,0.3708,0.4144,0.1928,106.8206
17:12:54:764,-4.857,0.17,13.0241,42.2467,0.9486,0.5453,0.6504,107.1741
17:12:54:784,-4.397,0.467,10.4261,42.3761,1.403,0.4474,1.0271,107.5036
17:12:54:804,-3.509,0.809,7.728,42.457,1.5371,0.2963,1.1688,107.8034
17:12:54:823,-2.6831,1.221,5.8301,42.5419,1.2871,0.1378,1.0666,108.0712
17:12:54:843,-2.28,1.556,5.3561,42.6497,0.7721,-0.0656,0.8293,108.3088
17:12:54:863,-2.051,1.259,6.462,42.5838,0.2654,-0.2688,0.5983,108.5192
17:12:54:886,-1.541,0.654,8.174,42.2902,-0.0294,-0.3997,0.4685,108.6987
17:12:54:904,-1.0001,0.122,9.335,42.1312,-0.0634,-0.2688,0.3886,108.8445
17:12:54:923,-1.076,-0.14,9.347,42.0254,0.1356,0.1282,0.3865,108.9651
17:12:54:945,-1.5071,0.201,8.322,41.8003,0.3911,0.4059,0.5152,109.0737
17:12:54:964,-1.6151,0.7901,6.9,41.8731,0.5251,0.4176,0.6366,109.1788
17:12:54:983,-1.632,1.3361,5.777,41.9272,0.5474,0.3112,0.7078,109.2828
17:12:55:004,-1.49,1.8551,5.0441,41.912,0.4463,0.1048,0.7186,109.3865
17:12:55:026,-1.119,2.169,4.862,41.9726,0.2218,-0.0986,0.6706,109.4906
17:12:55:043,-0.822,2.37,5.4851,42.1733,-0.0698,-0.2518,0.5675,109.5911
17:12:55:066,-0.5951,2.502,6.8141,42.2027,-0.2859,-0.3263,0.4482,109.5911
17:12:55:083,-0.492,2.693,8.162,42.1659,-0.3476,-0.3146,0.3131,109.5911
17:12:55:103,-0.672,2.952,9.452,41.8823,-0.32,-0.3954,0.1811,109.5911
17:12:55:128,0.75,2.744,11.456,41.6431,-0.272,-0.952,-0.1211,109.5911
17:12:55:146,1.6091,2.325,12.3011,41.687,-0.4093,-0.9904,-0.517,109.5911
17:12:55:165,1.556,1.8221,12.938,41.6698,-0.5764,-0.7243,-0.9597,109.5911
17:12:55:186,0.0911,1.719,13.079,41.7319,-0.6307,-0.3773,-1.1875,109.5911
17:12:55:207,-1.193,2.057,12.543,41.8137,-0.5167,-0.1965,-1.1311,109.5911
17:12:55:225,-1.43,2.16,11.717,41.7443,-0.4561,-0.3636,-1.0534,109.7224
17:12:55:245,-1.2941,1.82,11.264,41.6731,-0.5072,-0.5125,-1.0556,109.8996
17:12:55:266,-1.7081,1.53,11.252,41.7002,-0.4572,-0.3241,-0.9896,110.1178
17:12:55:284,-2.0291,1.365,11.19,41.7203,-0.2837,-0.2273,-0.7734,110.3713
17:12:55:304,-1.5791,1.302,10.814,41.8482,0.0015,-0.2145,-0.466,110.6565
17:12:55:326,-0.755,1.5731,9.833,42.1228,0.3431,-0.1922,-0.2819,110.9652
17:12:55:345,-0.0041,1.769,8.427,42.5174,0.5538,-0.2518,-0.3169,111.2838
17:12:55:365,0.309,1.887,6.914,42.6819,0.5507,-0.3274,-0.5298,111.6016
17:12:55:385,0.051,1.949,5.765,42.8632,0.3814,-0.2879,-0.7905,111.9152
17:12:55:405,-0.6041,2.0591,5.09,42.9977,0.1717,-0.1251,-1.0024,112.2286
17:12:55:424,-1.5071,2.1791,4.814,42.9792,-0.0133,0.028,-1.1248,112.5508
17:12:55:444,-2.177,2.1671,4.733,43.287,-0.1837,0.0813,-1.1598,112.8935
17:12:55:464,-2.759,2.246,5.04,43.6697,-0.3943,-0.0582,-1.1513,113.2704
17:12:55:485,-3.267,2.373,6.083,43.9007,-0.6413,-0.3263,-1.0801,113.6884
17:12:55:506,-3.068,2.097,7.656,44.1924,-0.8647,-0.5008,-0.9523,114.1454
17:12:55:526,-2.8121,1.934,9.318,44.2217,-0.9648,-0.3018,-0.8075,114.6298
17:12:55:545,-3.1571,2.0951,10.829,44.2321,-0.8106,0.1632,-0.6256,115.1178
17:12:55:566,-3.803,2.5571,11.372,44.1033,-0.4348,0.3963,-0.3776,115.5906
17:12:55:586,-4.126,3.0191,11.063,44.0956,-0.1123,0.2324,-0.1094,116.0425
17:12:55:605,-4.217,3.62,10.697,44.1348,0.0089,0.0898,0.147,116.4725
17:12:55:634,-3.798,4.017,10.776,44.2749,-0.0932,0.0238,0.3259,116.8787
17:12:55:647,-2.853,3.845,11.573,44.4904,-0.3072,0.0685,0.3354,117.6006
17:12:55:665,-2.4821,3.3521,12.9311,44.6847,-0.5041,0.1302,0.1726,117.9005
17:12:55:683,-2.972,2.502,14.4251,44.7779,-0.604,0.2218,0.0609,118.1563
17:12:55:702,-3.942,1.4531,15.416,44.6043,-0.4264,0.4975,0.1683,118.3758
17:12:55:728,-4.8641,0.62,14.681,44.5353,0.125,0.9848,0.5419,118.5652
17:12:55:743,-5.1581,0.366,12.143,44.7133,0.7613,1.2605,1.0208,118.7245
17:12:55:765,-5.0981,1.001,9.486,44.8315,0.9998,0.8774,1.2752,118.8493
17:12:55:786,-4.746,1.2161,7.886,45.1205,0.7348,-0.0038,1.2741,118.9401
17:12:55:801,-4.191,0.8261,8.14,45.1674,0.0952,-0.6999,1.2431,118.9401
17:12:55:832,-3.123,0.081,9.7661,44.9478,-0.4668,-0.5583,1.2357,118.9401
17:12:55:842,-2.573,-0.504,11.4821,44.8927,-0.6891,0.043,1.2294,118.9401
17:12:55:862,-2.625,-0.588,12.2651,44.7836,-0.5338,0.5857,1.3251,118.9401
17:12:55:883,-2.742,-0.3611,11.894,44.908,-0.124,0.7135,1.5263,118.809
17:12:55:904,-2.228,-0.215,10.752,45.1,0.3623,0.4932,1.7806,118.6424
17:12:55:928,-1.191,-0.1241,9.311,44.9698,0.7422,0.2537,1.9679,118.4441
17:12:55:942,-0.195,0.05,7.872,44.5957,0.9199,0.3017,2.002,118.2141
17:12:55:963,0.5201,0.275,6.969,44.3628,0.9156,0.5411,1.9275,117.9527
17:12:55:984,1.116,0.548,6.522,44.3029,0.8401,0.6645,1.7423,117.6607
17:12:56:003,1.31,1.008,6.191,44.4249,0.7688,0.6293,1.4358,117.3412
17:12:56:024,1.0661,1.2641,5.825,44.6778,0.6571,0.5112,1.0868,117.0011
17:12:56:042,0.611,1.379,5.7461,44.7046,0.4697,0.3026,0.7781,116.6486
17:12:56:067,0.24,1.472,5.9921,44.3501,0.1888,0.076,0.5026,116.2905
17:12:56:084,-0.291,1.652,6.981,44.4035,-0.1442,-0.0549,0.2886,115.9337
17:12:56:106,-0.3461,1.568,8.552,44.7404,-0.4433,-0.1528,0.1546,115.5858
17:12:56:122,0.137,1.508,10.1921,44.9678,-0.6541,-0.2529,0.0364,115.2505
17:12:56:143,0.728,1.391,11.703,45.1599,-0.7158,-0.2944,-0.0945,114.9305
17:12:56:166,1.2791,1.58,12.105,45.0464,-0.5924,-0.1752,-0.2212,114.6307
17:12:56:183,1.5011,2.136,11.439,44.8644,-0.4604,-0.0166,-0.4128,114.3571
17:12:56:206,1.394,2.5901,10.6421,44.7794,-0.5412,-0.1858,-0.7639,114.1161
17:12:56:223,1.1591,1.911,10.541,44.7727,-0.9212,-0.5093,-1.2386,113.9174
17:12:56:244,0.177,0.6131,11.9351,44.822,-1.3501,-0.4848,-1.4993,113.7718
17:12:56:263,-1.32,-0.071,13.9151,44.8042,-1.3448,-0.172,-1.3237,113.7718
17:12:56:283,-2.357,-0.071,14.5661,45.0078,-0.7541,-0.0198,-0.7565,113.7718
17:12:56:309,-1.775,0.2561,12.849,45.2142,0.1143,-0.0634,-0.1009,113.7718
17:12:56:324,-0.765,0.9941,10.259,45.1527,0.8348,-0.1433,0.3088,113.7718
17:12:56:347,0.2801,1.623,7.6181,45.1773,1.1796,-0.4242,0.2482,113.7718
17:12:56:363,0.7211,2.2001,5.159,45.2078,1.086,-0.7531,-0.1541,113.7718
17:12:56:383,0.6041,2.21,3.771,45.1147,0.7443,-0.7488,-0.5659,113.7718
17:12:56:406,0.029,2.229,3.605,45.0621,0.3091,-0.5913,-0.9629,113.7718
17:12:56:426,-0.93,2.27,4.101,45.0962,-0.0762,-0.3295,-1.3098,113.7718
17:12:56:445,-1.952,2.148,4.8671,45.0827,-0.4008,-0.0432,-1.5462,113.7718
17:12:56:464,-2.757,2.1311,5.6171,45.2005,-0.7264,0.2261,-1.693,113.8882
17:12:56:485,-3.6,2.025,7.3211,45.3266,-1.0522,0.2644,-1.7802,114.0615
17:12:56:504,-4.418,1.776,10.055,45.4887,-1.1553,0.0206,-1.7898,114.282
17:12:56:526,-5.5511,1.592,12.4211,45.6127,-0.8807,-0.1752,-1.6398,114.533
17:12:56:545,-6.6401,1.647,13.017,45.7295,-0.3146,0.0516,-1.2013,114.8048
17:12:56:564,-7.124,2.085,12.057,45.8472,0.1942,0.5251,-0.5565,115.0899
17:12:56:585,-6.9041,2.8541,10.884,45.9265,0.341,0.6933,-0.036,115.3765
17:12:56:603,-6.5921,3.4451,10.379,45.827,0.2271,0.6273,0.2907,115.6524
17:12:56:623,-6.444,3.618,10.563,45.7638,0.0536,0.6017,0.4887,115.9074
17:12:56:649,-6.36,3.5,11.1731,45.6739,-0.0996,0.6251,0.6153,116.1332
17:12:56:663,-6.216,2.909,12.1001,45.5812,-0.2475,0.4389,0.6461,116.3228
17:12:56:683,-6.188,1.707,13.1561,45.6492,-0.3977,0.2366,0.6791,116.4719
17:12:56:703,-6.5681,0.716,13.754,45.6732,-0.3689,0.4229,0.8356,116.5782
17:12:56:726,-7.112,-0.0641,13.4891,45.6536,-0.1209,0.7391,1.1773,116.5782
17:12:56:744,-7.172,-0.504,12.1361,45.4814,0.2027,0.8539,1.6295,116.5782
17:12:56:765,-6.738,-0.516,10.4531,45.0513,0.4122,0.8103,2.0658,116.5782
17:12:56:784,-5.807,-0.5591,9.1811,44.709,0.4773,0.6581,2.3489,116.5782
17:12:56:805,-4.9691,-0.495,8.375,44.4729,0.392,0.4537,2.4362,116.4836
17:12:56:826,-4.311,-0.468,8.3411,44.441,0.1782,0.2442,2.399,116.3426
17:12:56:843,-3.612,-0.8231,9.011,44.3624,-0.0144,0.1495,2.3053,116.154
17:12:56:862,-2.766,-1.1771,9.852,44.0532,-0.1006,0.1367,2.1978,115.9169
17:12:56:883,-1.94,-1.316,10.482,43.6682,-0.04,0.1825,2.068,115.6342
17:12:56:902,-1.545,-1.2731,10.805,43.1672,0.1792,0.2197,1.9658,115.3145
17:12:56:925,-1.1771,-1.301,10.359,42.7678,0.4953,0.2474,1.9264,114.9681
17:12:56:943,-0.846,-1.167,9.174,42.5339,0.8167,0.4133,1.9722,114.6016
17:12:56:964,-0.545,-0.657,7.661,42.3917,1.0753,0.6315,2.0606,114.2176
17:12:56:984,-0.0491,-0.011,6.3011,42.3922,1.1657,0.7454,2.0116,113.8139
17:12:57:004,0.3431,0.546,5.298,42.4725,0.9976,0.6304,1.7263,113.3875
17:12:57:025,0.441,1.149,4.812,42.552,0.5453,0.4623,1.2485,112.9398
17:12:57:043,0.096,1.578,5.073,42.3795,-0.188,0.5283,0.6748,112.4772
17:12:57:065,-0.731,1.571,6.941,42.1034,-0.8605,0.7613,0.162,112.0085
17:12:57:084,-2.0981,1.86,9.4399,41.9347,-1.0372,0.971,-0.1584,111.5424
17:12:57:104,-2.946,2.243,10.6901,41.9084,-0.6487,1.0604,-0.1722,111.0897
17:12:57:124,-2.8451,2.756,10.7741,42.0212,-0.1049,0.7943,-0.054,110.6548
17:12:57:157,-1.146,4.02,9.023,42.1155,0.1675,0.0366,-0.2403,109.8283
17:12:57:173,-0.995,4.731,8.276,42.0591,-0.0219,0.1942,-0.5116,109.4337
17:12:57:192,-0.578,4.688,7.743,41.9066,-0.3732,0.1877,-0.8746,109.0556
17:12:57:210,-0.597,4.154,8.0471,42.0034,-0.9094,-0.0358,-1.4524,108.6953
17:12:57:230,-1.6031,2.94,9.344,41.9928,-1.3086,-0.0102,-1.8217,108.3548
17:12:57:250,-3.506,2.1281,10.8311,41.9152,-1.2596,-0.0337,-1.7984,108.04
17:12:57:271,-4.926,1.817,11.4941,41.6527,-0.7946,-0.4051,-1.3855,107.7565
17:12:57:290,-5.244,1.8,10.328,41.5015,-0.1145,-0.6797,-0.7554,107.5018
17:12:57:310,-5.0291,2.2481,8.5301,41.2028,0.3559,-0.7477,-0.2318,107.2652
17:12:57:330,-4.4021,2.6261,6.747,41.0498,0.3889,-0.8541,0.0704,107.0384
17:12:57:350,-3.5921,2.8301,5.7341,41.0936,0.1282,-0.8988,0.0715,106.8175
17:12:57:373,-3.3791,3.026,5.7341,40.8896,-0.1922,-0.7967,-0.1797,106.5998
17:12:57:389,-3.932,2.7941,6.225,40.6349,-0.3997,-0.6476,-0.5064,106.3856
17:12:57:408,-4.881,2.291,6.624,40.479,-0.5221,-0.472,-0.7182,106.1808
17:12:57:428,-6.03,2.054,7.058,40.1706,-0.6115,-0.3369,-0.765,105.9923
17:12:57:448,-6.861,1.614,7.778,39.9701,-0.6806,-0.3039,-0.6564,105.8234
17:12:57:470,-7.236,1.149,8.7431,39.9377,-0.6806,-0.3359,-0.4213,105.6679
17:12:57:488,-7.548,0.855,9.519,39.8727,-0.5775,-0.2199,-0.1106,105.5113
17:12:57:508,-7.995,0.6581,9.972,39.8348,-0.371,0.0952,0.3151,105.3418
17:12:57:528,-8.319,0.692,9.792,39.6814,-0.1145,0.3985,0.8335,105.1514
17:12:57:549,-8.319,0.9341,9.2321,39.5745,0.0089,0.4953,1.3145,104.9339
17:12:57:570,-7.955,1.211,9.0551,39.5442,-0.0517,0.4591,1.7306,104.6837
17:12:57:589,-7.37,1.214,9.39,39.4904,-0.1997,0.4293,2.0371,104.3925
17:12:57:606,-6.9281,1.238,9.9,39.3866,-0.3784,0.457,2.2245,104.0485
17:12:57:626,-6.303,1.056,10.728,39.0156,-0.5881,0.4782,2.3042,103.6421
17:12:57:659,-5.6801,0.347,11.8271,38.4656,-0.769,0.3761,2.249,103.1657
17:12:57:666,-5.625,-0.576,12.62,37.9201,-0.7776,0.3996,2.2478,102.6149
17:12:57:686,-5.984,-1.263,12.744,37.4794,-0.5508,0.5857,2.4522,101.9909
17:12:57:705,-6.341,-1.512,12.117,37.2164,-0.1433,0.5996,2.8566,101.2973
17:12:57:726,-5.9051,-1.203,10.889,37.2463,0.2197,0.2687,3.2759,101.2973
17:12:57:746,-4.529,-0.801,9.471,36.9389,0.3484,-0.2017,3.4387,101.2973
17:12:57:765,-3.1781,-0.114,8.288,43.669,0.1953,-0.4498,3.2854,101.2973
17:12:57:785,-1.9961,0.278,7.659,43.1502,-0.1071,-0.2827,2.9332,100.241
17:12:57:811,-1.272,0.266,7.3121,42.413,-0.4146,0.1165,2.4681,99.1139
17:12:57:826,-1.4261,0.3611,7.2641,41.8674,-0.6476,0.4432,2.0009,97.9264
17:12:57:845,-2.1221,0.2231,7.565,41.6885,-0.7275,0.4773,1.6477,96.6937
17:12:57:865,-2.996,-0.023,7.925,41.4829,-0.6231,0.2941,1.5422,95.4307
17:12:57:886,-3.3311,-0.054,8.097,40.7374,-0.4157,0.0644,1.704,94.1477
17:12:57:906,-2.771,-0.054,8.1709,40.6924,-0.1858,-0.0389,1.9317,92.8452
17:12:57:936,-1.881,0.2351,8.3479,40.3313,0.0026,-0.0283,2.0489,91.5185
17:12:57:945,-0.83,0.486,8.5091,39.8719,0.1005,-0.0358,1.9434,90.1656
17:12:57:964,0.017,0.713,8.7551,39.3099,0.1143,-0.0176,1.6338,88.7886
17:12:57:984,0.414,0.965,8.997,38.8417,0.0707,0.0962,1.2038,87.3936
17:12:58:004,0.453,0.938,9.093,38.3585,-0.0016,0.3165,0.7664,85.989
17:12:58:024,0.177,1.046,9.0979,38.0908,-0.0528,0.5815,0.461,84.5845
17:12:58:044,-0.073,1.2641,8.892,38.0172,-0.0719,0.6848,0.2524,83.1898
17:12:58:065,-0.1901,1.6091,8.762,37.6511,-0.1273,0.5741,0.0396,81.812
17:12:58:084,-0.267,1.808,9.129,37.1747,-0.2571,0.3165,-0.2276,80.4568
17:12:58:103,-0.281,1.805,9.945,36.6518,-0.4125,0.028,-0.4649,79.1294
17:12:58:123,0.0191,1.314,10.3001,36.1487,-0.602,-0.0858,-0.765,77.8308
17:12:58:144,-0.3671,1.3451,10.4,36.0406,-0.9116,0.1005,-1.0801,76.5613
17:12:58:167,-1.61,1.511,10.7981,35.9951,-1.2341,0.3569,-1.2811,75.3265
17:12:58:185,-2.565,1.472,11.633,35.6338,-1.449,0.2591,-1.2811,74.1325
17:12:58:203,-3.284,1.0631,12.804,35.2594,-1.4395,0.01,-1.1694,72.98
17:12:58:222,-4.248,0.9701,13.74,35.0563,-1.1117,-0.1294,-0.8086,71.8654
17:12:58:242,-4.746,1.07,13.967,35.1164,-0.4891,-0.2859,-0.2382,70.78
17:12:58:264,-4.208,1.161,12.8231,35.3044,0.2963,-0.3934,0.3365,69.7086
17:12:58:284,-3.1571,1.527,10.731,35.4817,0.8837,-0.5466,0.6867,68.6359
17:12:58:305,-1.694,1.7621,8.655,35.3217,1.0721,-0.7041,0.7525,67.5538
17:12:58:324,-0.7511,2.033,7.103,34.9326,0.9551,-0.6743,0.5387,66.4602
17:12:58:342,-0.573,2.1401,6.141,34.7999,0.7272,-0.4604,0.1992,65.3612
17:12:58:363,-1.04,2.081,5.4851,34.7573,0.5166,-0.221,-0.1371,64.2662
17:12:58:382,-1.8041,2.045,4.953,34.814,0.3356,-0.0613,-0.3861,63.1852
17:12:58:402,-2.5031,2.018,4.5251,35.0045,0.1324,-0.0219,-0.5648,62.133
17:12:58:425,-3.14,1.913,4.482,35.149,-0.1507,-0.0656,-0.698,61.1227
17:12:58:442,-3.6791,1.604,5.0441,35.14,-0.5136,-0.1316,-0.781,60.1622
17:12:58:466,-4.172,1.223,6.404,35.193,-0.8286,-0.1316,-0.7767,59.2484
17:12:58:486,-4.5979,0.764,8.183,35.2443,-0.9754,-0.0463,-0.6544,58.3689
17:12:58:504,-5.1101,0.467,9.9281,35.1174,-0.8871,0.127,-0.3563,57.5106
17:12:58:522,-5.307,0.63,10.9361,35.1497,-0.6146,0.3666,0.1002,56.6653
17:12:58:542,-4.83,1.0511,11.319,35.202,-0.3539,0.5314,0.5131,55.8274
17:12:58:562,-4.1171,1.58,11.442,35.2154,-0.2657,0.5197,0.7089,54.9922
17:12:58:583,-3.554,2.0419,11.705,35.4094,-0.322,0.5389,0.7408,54.1575
17:12:58:603,-3.276,2.262,12.2531,35.4385,-0.472,0.5549,0.6824,53.3228
17:12:58:624,-3.257,2.253,13.1321,35.5282,-0.6711,0.5411,0.6227,52.487
17:12:58:642,-3.518,1.8941,14.537,35.6157,-0.8265,0.3877,0.6216,51.6478
17:12:58:673,-3.4151,0.9461,15.84,38.45,-0.7168,0.3037,0.7143,50.8018
17:12:58:682,-3.123,-0.2891,15.9431,38.7593,-0.239,0.3963,0.858,49.9448
17:12:58:704,-3.552,-0.617,14.274,39.0038,0.5006,0.5325,1.1187,49.0758
17:12:58:722,-3.734,-0.188,11.478,39.2676,1.1881,0.4432,1.4528,48.1968
17:12:58:742,-3.2621,0.57,8.4611,39.6179,1.4307,0.0622,1.6264,47.308
17:12:58:763,-2.4581,1.101,6.311,39.7726,1.1828,-0.3402,1.5752,46.4094
17:12:58:783,-1.6721,1.343,5.528,39.905,0.7209,-0.4466,1.3475,45.5022
17:12:58:816,-1.239,1.3841,5.8391,40.2333,0.2761,-0.371,1.008,44.5862
17:12:58:822,-1.4711,1.137,6.512,40.4023,-0.0474,-0.2518,0.6335,43.6608
17:12:58:843,-1.9721,0.6941,7.395,40.5765,-0.2529,-0.19,0.3684,42.7311
17:12:58:862,-2.6471,0.4091,8.219,40.9131,-0.3072,-0.205,0.2482,41.8029
17:12:58:883,-2.999,0.048,8.717,41.1076,-0.2102,-0.2358,0.2886,40.881
17:12:58:903,-2.879,-0.155,8.7791,41.2509,-0.0241,-0.2028,0.4599,39.9667
17:12:58:923,-2.4191,-0.0611,8.4251,41.6968,0.1643,-0.0602,0.6813,39.0572
17:12:58:943,-1.79,0.2921,7.898,42.0798,0.2941,0.0813,0.7994,38.1477
17:12:58:964,-1.265,0.6611,7.2851,41.4112,0.3633,0.1441,0.7601,37.2362
17:12:58:982,-1.0901,1.058,6.771,41.9087,0.3336,0.0813,0.6429,36.326
17:12:59:004,-1.047,1.494,6.419,42.3138,0.1739,-0.0113,0.4791,35.4222
17:12:59:024,-0.9251,1.712,6.6101,42.7614,-0.0901,-0.0539,0.2971,34.532
17:12:59:043,-0.992,1.7411,7.3451,43.1831,-0.3433,-0.0016,0.1013,33.6627
17:12:59:065,-1.5431,1.877,8.6381,43.3611,-0.5369,0.0058,-0.0776,32.819
17:12:59:083,-2.043,1.683,10.503,43.5238,-0.6891,-0.172,-0.2085,32.003
17:12:59:103,-2.1799,1.3571,12.5,43.6687,-0.752,-0.3954,-0.2307,31.2145
17:12:59:122,-1.9121,1.293,14.0111,43.9914,-0.6732,-0.3487,-0.1946,30.4489
17:12:59:142,-1.658,1.5941,14.504,44.449,-0.4828,-0.007,-0.1499,29.7027
17:12:59:162,-1.572,2.021,14.006,44.8809,-0.2816,0.2485,-0.1701,28.9748
17:12:59:182,-1.641,2.267,13.259,45.433,-0.1741,0.1143,-0.3127,28.2672
17:12:59:202,-1.8731,1.788,13.0241,45.9117,-0.1326,-0.1251,-0.4905,27.5853
17:12:59:223,-2.549,1.017,13.209,46.3028,0.0931,-0.1188,-0.4819,26.9344
17:12:59:243,-3.063,0.5,12.639,46.5812,0.4762,-0.1155,-0.2734,26.3151
17:12:59:262,-2.8331,0.321,11.4131,46.7248,0.7965,-0.1507,0.0672,25.7233
17:12:59:282,-1.8041,0.759,10.247,46.8254,0.9955,-0.1954,0.3854,25.1507
17:12:59:303,-0.2981,1.2281,8.99,47.02,1.0817,-0.2762,0.3843,24.5885
17:12:59:322,0.668,1.4681,7.443,47.4705,0.9838,-0.2986,0.0661,24.034
17:12:59:343,0.752,1.518,6.0761,47.7775,0.7135,-0.1155,-0.3563,23.4937
17:12:59:367,-0.126,1.482,5.13,48.2005,0.4495,0.2601,-0.7202,22.9768
17:12:59:383,-1.404,1.511,4.589,48.8159,0.3048,0.5602,-0.9129,22.4939
17:12:59:402,-2.472,1.6661,4.106,49.2359,0.225,0.5761,-0.9373,22.0578
17:12:59:422,-3.123,1.949,3.804,49.3169,0.0685,0.3037,-0.8778,21.6791
17:12:59:442,-3.4541,2.1641,4.0511,49.3959,-0.2262,-0.0741,-0.7873,21.3638
17:12:59:463,-3.233,2.1,5.157,49.3698,-0.5838,-0.2284,-0.698,21.1102
17:12:59:483,-3.075,1.911,7.022,49.3155,-0.8317,-0.106,-0.6171,20.9024
17:12:59:502,-3.14,1.662,9.15,49.5913,-0.7924,0.1345,-0.5085,20.7197
17:12:59:522,-3.353,1.628,10.242,50.0399,-0.503,0.3783,-0.369,20.5503
17:12:59:544,-3.932,2.1041,10.527,50.3377,-0.2454,0.4241,-0.1722,20.3928
17:12:59:563,-4.1621,2.588,10.745,50.8274,-0.2007,0.1611,0.0322,20.2497
17:12:59:585,-3.9611,3.069,11.451,51.395,-0.3476,-0.0784,0.2343,20.1205
17:12:59:603,-3.4631,3.311,12.675,51.7485,-0.5434,-0.0953,0.4004,19.9987
17:12:59:622,-3.0851,3.512,14.169,51.9312,-0.5732,0.0931,0.5642,19.8749
17:12:59:641,-2.6471,3.6221,15.119,52.1918,-0.4264,0.1143,0.6461,19.7413
17:12:59:661,-1.931,2.832,15.4211,52.4279,-0.2167,-0.0793,0.5365,19.5946
17:12:59:685,-1.907,1.673,15.081,52.7272,0.0909,-0.0708,0.3546,19.4361
17:12:59:703,-2.747,0.9431,13.685,53.3883,0.6082,0.2164,0.3737,19.2706
17:12:59:723,-3.4781,0.795,10.989,53.8186,1.1637,0.3633,0.576,19.1026
17:12:59:743,-3.602,1.31,8.106,54.1379,1.3828,0.2175,0.7931,18.9341
17:12:59:762,-3.159,1.7381,6.0431,54.4153,1.2254,-0.0879,0.8686,18.7665
17:12:59:786,-2.546,2.1,5.142,54.3612,0.8475,-0.3519,0.7675,18.6022
17:12:59:802,-1.974,2.15,5.274,54.2572,0.3963,-0.5338,0.494,18.4441
17:12:59:823,-1.799,1.688,6.162,54.2396,-0.0485,-0.6157,0.129,18.2907
17:12:59:842,-1.905,0.903,7.5101,54.194,-0.4412,-0.5785,-0.1658,18.1382
17:12:59:862,-2.307,0.1481,9.186,54.3008,-0.6817,-0.3795,-0.3041,17.9837
17:12:59:883,-2.9051,-0.3701,10.5581,54.3044,-0.6009,-0.0591,-0.2116,17.827
17:12:59:905,-3.267,-0.341,10.704,54.3091,-0.2262,0.209,0.1353,17.6679
17:12:59:925,-2.8841,-0.102,9.672,54.4294,0.2622,0.3996,0.5855,17.5039
17:12:59:966,-2.1011,0.4001,8.1041,54.2782,0.6432,0.392,0.8547,17.33
17:12:59:967,-1.3301,1.08,6.38,54.2882,0.7752,0.2409,0.9197,17.1452
17:12:59:982,-0.624,1.7411,4.9991,54.4384,0.6432,0.1015,0.8026,16.9529
17:13:00:003,-0.1811,2.294,4.362,54.5266,0.3091,-0.0389,0.5419,16.7579
17:13:00:025,-0.075,2.61,4.5491,54.9645,-0.1411,-0.1911,0.1992,16.564
17:13:00:044,-0.602,2.61,5.636,55.332,-0.5987,-0.2571,-0.1232,16.3719
17:13:00:065,-1.478,2.4611,7.5941,55.6199,-0.9489,-0.3018,-0.3383,16.183
17:13:00:083,-2.261,2.21,10.089,56.1292,-1.1479,-0.4763,-0.4095,16.0003
17:13:00:103,-2.0861,1.578,12.4451,56.4015,-1.2042,-0.6882,-0.3755,15.8234
17:13:00:125,-1.701,1.365,14.243,56.7027,-1.1831,-0.67,-0.3499,15.6468
17:13:00:143,-1.533,1.731,15.354,56.96,-1.0192,-0.287,-0.3361,15.4673
17:13:00:164,-1.143,1.7291,15.44,57.0455,-0.8414,-0.0144,-0.4298,15.2864
17:13:00:192,-1.6031,0.383,15.8591,57.2039,-0.6115,0.0206,-0.7512,14.9393
17:13:00:208,-2.57,0.218,15.342,57.3164,-0.1049,0.2813,-0.5437,14.7837
17:13:00:228,-2.498,0.093,13.515,57.5239,0.5772,0.3911,-0.0892,14.6399
17:13:00:247,-1.3991,0.23,11.087,57.7506,1.0721,0.2494,0.2727,14.4999
17:13:00:268,-0.162,0.836,9.15,57.9362,1.2095,-0.023,0.3695,14.3552
17:13:00:287,0.915,1.401,7.793,58.0874,1.1435,-0.1997,0.2013,14.2025
17:13:00:307,1.446,1.65,6.572,58.0329,0.9827,-0.1231,-0.1584,14.0441
17:13:00:330,1.0271,1.6211,5.5091,57.6381,0.7624,0.1293,-0.5617,13.8849
17:13:00:347,-0.066,1.616,4.776,57.2323,0.5602,0.392,-0.8405,13.7326
17:13:00:368,-1.2341,1.7261,4.2521,56.9339,0.407,0.5112,-0.9863,13.5978
17:13:00:388,-2.113,1.889,3.948,56.8432,0.2516,0.4218,-1.0204,13.4943
17:13:00:406,-2.709,1.944,3.917,56.8967,0.0558,0.1697,-0.98,13.4943
17:13:00:426,-3.08,2.033,4.338,56.8634,-0.2241,-0.1347,-0.9193,13.4943
17:13:00:446,-3.324,1.9661,5.48,56.8836,-0.5519,-0.3497,-0.8437,13.4943
17:13:00:466,-3.4301,1.559,7.257,56.8249,-0.8063,-0.2827,-0.6894,13.4943
17:13:00:486,-3.758,1.487,9.356,56.7116,-0.8223,0.0579,-0.4382,13.5951
17:13:00:505,-4.064,1.6301,10.836,56.7816,-0.5721,0.3633,-0.103,13.7032
17:13:00:526,-3.9371,2.09,11.181,56.8109,-0.2464,0.3985,0.212,13.8121
17:13:00:545,-3.612,2.756,11.111,56.8208,-0.1251,0.224,0.3993,13.9188
17:13:00:565,-3.164,3.285,11.3051,56.849,-0.2401,0.0835,0.4397,14.0223
17:13:00:587,-2.841,3.3611,12.107,56.8892,-0.4487,0.1888,0.3854,14.1216
17:13:00:605,-2.642,3.1601,13.278,56.8892,-0.5838,0.407,0.2855,14.2151
17:13:00:629,-2.666,2.4401,14.358,57.0475,-0.5924,0.4463,0.1407,14.2151
17:13:00:645,-3.245,1.3691,15.0281,57.2866,-0.4593,0.359,0.0576,14.2151
17:13:00:667,-3.954,0.44,15.143,57.366,-0.0463,0.2687,0.1737,14.2151
17:13:00:695,-4.445,0.045,14.037,57.3183,0.5815,0.1026,0.4546,14.2151
17:13:00:711,-4.4951,0.318,11.736,57.0901,1.0455,-0.1848,0.7399,14.2151
17:13:00:727,-3.722,0.567,9.459,56.8671,1.0572,-0.3923,0.9346,14.2151
17:13:00:745,-2.663,0.7781,8.1709,56.7074,0.8114,-0.3263,0.9463,14.2151
17:13:00:763,-1.991,0.9941,7.805,56.4512,0.5294,-0.1687,0.7898,14.2151
17:13:00:790,-1.7081,0.836,7.7111,56.3235,0.3154,-0.0624,0.5515,14.2151
17:13:00:803,-1.881,0.519,7.8221,56.0901,0.1697,-0.0517,0.3461,14.2151
17:13:00:823,-2.127,0.158,7.874,55.8587,0.1026,-0.0751,0.261,14.2151
17:13:00:843,-2.1941,-0.068,7.692,55.7318,0.0972,-0.0719,0.3354,14.2151
17:13:00:863,-1.94,-0.1091,7.271,55.5238,0.125,0.0058,0.4918,14.2151
17:13:00:885,-1.667,0.0911,6.785,55.1649,0.159,0.0952,0.6568,14.2151
17:13:00:903,-1.304,0.44,6.3161,54.8215,0.1942,0.1324,0.81,14.2151
17:13:00:923,-0.782,0.84,5.796,54.53,0.209,0.0462,0.8547,14.2151
17:13:00:943,-0.315,1.326,5.154,54.379,0.1654,-0.0368,0.7781,14.2151
