Time,Acc_X,Acc_Y,Acc_Z,Meg,Gyr_X,Gyr_Y,Gyr_Z,Ore
16:51:29:161,0.7112,2.0285,9.4261,37.6229,-0.2779,0.1606,-0.0671,357.8281
16:51:29:214,0.6214,2.0261,9.5183,39.9658,-0.0459,0.0914,0.0571,357.7969
16:51:29:228,0.6657,2.0429,9.5626,36.6521,-0.06,0.0716,0.0499,357.7969
16:51:29:248,0.5987,1.9722,9.6799,39.8912,-0.0693,0.1286,0.0405,6.3906
16:51:29:267,0.5891,1.9028,9.8523,37.3996,-0.0512,0.1909,0.0275,6.3281
16:51:29:287,0.6382,1.9471,9.9277,39.4362,-0.0068,0.1483,-0.0114,6.2656
16:51:29:317,0.7028,2.068,9.9229,37.091,0.0633,0.0298,-0.0607,6.2188
16:51:29:326,0.6657,2.1937,9.7744,38.6529,0.1235,-0.0855,-0.0982,6.2188
16:51:29:351,0.5663,2.2069,9.5889,37.2265,0.1376,-0.1246,-0.0836,6.2812
16:51:29:369,0.5125,2.1075,9.462,38.6711,0.1296,-0.1087,-0.0242,6.4062
16:51:29:386,0.5927,2.0034,9.4034,39.2653,0.1371,-0.093,0.0453,6.5
16:51:29:414,0.9458,2.0165,9.365,39.3159,0.1922,-0.1127,0.0493,6.5312
16:51:29:425,1.2236,2.147,9.2429,39.3159,0.2572,-0.1249,-0.0149,6.5
16:51:29:451,1.2224,2.3302,9.0526,37.6694,0.2793,-0.086,-0.0796,6.4375
16:51:29:468,0.9075,2.4104,8.8982,36.8772,0.2348,-0.0232,-0.0695,6.4688
16:51:29:485,0.5939,2.4295,8.7641,38.992,0.1232,0.0514,0.019,6.5625
16:51:29:515,0.5376,2.3924,8.8144,39.5919,-0.0169,0.1806,0.1178,6.625
16:51:29:524,0.783,2.4954,8.9832,37.8228,-0.1388,0.2232,0.1292,6.5938
16:51:29:554,0.9362,2.6797,9.2453,38.0817,-0.1961,0.1033,0.0408,6.4375
16:51:29:568,0.7567,2.7276,9.3662,37.7023,-0.1937,-0.1569,-0.0311,6.2656
16:51:29:583,0.5556,2.6534,9.3315,38.1558,-0.1652,-0.3779,-0.0508,6.2188
16:51:29:602,0.6298,2.6306,9.2537,37.3842,-0.1253,-0.4525,-0.0657,6.2812
16:51:29:622,0.8979,2.7695,9.2094,38.1728,-0.0624,-0.4069,-0.1038,6.3906
16:51:29:649,0.8321,2.8653,9.0586,38.4359,-0.0078,-0.3467,-0.1091,6.5156
16:51:29:667,0.607,2.9826,8.7366,37.928,-0.0036,-0.3422,-0.049,6.6875
16:51:29:687,0.2467,3.0592,8.2876,37.6562,-0.0973,-0.3065,0.1119,6.8594
16:51:29:701,0.3545,3.1526,8.2553,37.928,-0.2339,-0.1854,0.2965,6.9219
16:51:29:723,0.8513,3.1238,8.7018,38.1688,-0.2888,-0.0136,0.3961,6.9531
16:51:29:752,1.378,2.9993,9.1532,37.4416,-0.2294,0.1289,0.371,6.9531
16:51:29:773,1.6689,3.1107,9.4309,38.1728,-0.1258,0.2461,0.2637,6.5781
16:51:29:781,1.615,3.1669,9.5314,38.6442,-0.0387,0.3049,0.1721,6.1406
16:51:29:802,1.3588,3.2064,9.5183,38.8871,0.0004,0.3031,0.1292,5.7344
16:51:29:822,0.9937,3.143,9.4345,37.2669,-0.031,0.2589,0.146,5.4219
16:51:29:853,0.8357,3.1203,9.6535,37.6226,-0.1037,0.2431,0.2238,5.1875
16:51:29:864,0.9518,3.0784,10.0893,40.4421,-0.1186,0.1957,0.2746,5.0156
16:51:29:880,1.2032,2.979,10.4053,37.6408,-0.0614,0.0852,0.248,4.8281
16:51:29:903,1.1194,2.9155,10.5502,37.8889,-0.0076,0.0179,0.2038,4.5469
16:51:29:923,0.8129,2.7719,10.6172,38.2173,0.0156,0.0056,0.2144,4.2188
16:51:29:943,0.3353,2.4283,10.6196,36.8875,-0.0073,0.0269,0.3106,3.9375
16:51:29:967,0.2659,2.3553,10.871,38.4436,-0.0022,0.012,0.4219,3.7031
16:51:29:985,0.7303,2.572,11.211,37.9287,0.1203,-0.1595,0.427,3.4531
16:51:30:000,1.5707,3.1777,10.9321,38.6499,0.3248,-0.5257,0.2866,3.125
16:51:30:020,1.6928,3.471,10.1288,39.9944,0.369,-0.689,0.1295,2.6406
16:51:30:042,0.7028,3.1298,9.4357,38.7172,0.1227,-0.3995,0.2326,2.1562
16:51:30:061,0.5448,2.8844,9.3662,38.7489,-0.1673,-0.2088,0.4579,1.875
16:51:30:085,0.953,2.1398,9.8822,38.7969,-0.2688,-0.1899,0.546,1.7812
16:51:30:102,1.6569,1.8645,10.3359,38.5022,-0.1519,-0.2104,0.4216,1.5625
16:51:30:120,1.7551,1.7412,10.4508,39.0344,0.0545,-0.1105,0.2634,1.0625
16:51:30:147,1.3205,1.5892,9.9672,38.3345,0.2196,0.0354,0.1796,0.5156
16:51:30:165,0.5807,1.3007,9.0981,37.8651,0.2018,0.1731,0.2192,0.0625
16:51:30:185,-0.1555,0.9595,8.8395,38.0588,0.038,0.4218,0.3939,359.7812
16:51:30:200,-0.4273,0.7895,9.1867,38.4264,-0.0896,0.5404,0.6224,359.2656
16:51:30:220,0.1545,1.0541,9.7792,38.5266,-0.0582,0.3119,0.7037,358.7656
16:51:30:243,0.7315,1.1833,9.9827,38.4144,0.148,-0.0144,0.6616,358.4062
16:51:30:261,1.2547,1.2432,9.2202,37.9127,0.3541,-0.1702,0.5708,357.625
16:51:30:281,1.6581,1.5724,8.2757,38.5392,0.3943,0.0133,0.4669,356.8125
16:51:30:302,1.9215,2.1662,7.7621,38.6277,0.3104,0.3587,0.3684,356.0938
16:51:30:320,1.6054,2.3577,7.4162,39.4355,0.1626,0.5326,0.3114,355.5156
16:51:30:340,1.2176,2.5492,7.4185,38.7089,-0.0323,0.5132,0.3255,355
16:51:30:360,1.0069,2.4547,7.5873,36.8489,-0.2499,0.1265,0.3345,354.5469
16:51:30:380,1.1661,2.0776,7.7849,39.487,-0.4763,-0.4426,0.3425,354.1094
16:51:30:401,0.807,1.7615,9.3567,38.7126,-0.4755,-0.628,0.3484,353.7188
16:51:30:421,1.1074,1.412,10.136,38.2905,-0.2952,-0.5569,0.3569,353.375
16:51:30:444,1.7706,1.2659,10.361,40.6304,-0.1745,-0.2091,0.2531,353.0781
16:51:30:463,1.9346,1.8609,10.6136,36.1673,-0.0281,-0.0258,0.0693,352.7812
16:51:30:481,2.1525,2.487,10.3096,38.7005,0.1922,0.0437,-0.0713,352.4688
16:51:30:501,2.344,2.9515,9.9624,38.8225,0.4271,0.1289,-0.2053,352.3125
16:51:30:528,2.0268,2.8988,9.2202,39.0201,0.5951,0.2112,-0.3741,352.2969
16:51:30:548,1.6222,2.8737,8.5642,38.2359,0.6308,0.212,-0.5171,352.4219
16:51:30:569,1.4893,2.8545,8.4744,39.1425,0.4561,0.2328,-0.5968,352.6875
16:51:30:581,1.3588,2.9598,9.2573,39.594,0.1717,0.1545,-0.6452,353.125
16:51:30:600,1.2655,2.8509,10.3874,38.5771,-0.044,0.0402,-0.6625,353.6719
16:51:30:620,1.6749,3.3609,11.2493,38.6545,-0.0478,-0.1233,-0.6631,354.3438
16:51:30:645,2.0938,4.3437,11.0697,38.1821,0.1336,-0.2756,-0.6788,355.0781
16:51:30:664,1.2822,3.8301,9.9265,36.206,0.2484,-0.1025,-0.6676,355.8125
16:51:30:681,-0.1304,2.1039,9.7481,38.1443,0.0699,0.2437,-0.5811,357
16:51:30:701,0.0384,1.6646,10.7609,37.0567,-0.1735,0.2815,-0.3446,357.7656
16:51:30:721,1.3145,1.8154,11.5869,37.5679,-0.1916,-0.0072,-0.1251,358.3594
16:51:30:746,1.6437,2.086,10.7417,37.3918,0.066,-0.2112,-0.1142,358.7344
16:51:30:764,1.4594,2.2787,9.1017,37.8549,0.3182,-0.0724,-0.1877,358.8906
16:51:30:783,0.8105,2.1039,8.0195,37.4933,0.2907,0.1531,-0.1914,359.0469
16:51:30:801,0.6382,1.8082,7.9489,37.7363,0.0745,0.1534,-0.0689,359.2344
16:51:30:824,0.953,1.5353,8.7054,37.4339,-0.1607,0.0732,0.093,359.4219
16:51:30:847,1.4115,1.2935,9.134,38.7022,-0.2012,0.0322,0.1817,359.4688
16:51:30:864,1.7275,1.3509,8.873,38.0036,-0.0574,0.0839,0.1476,359.3594
16:51:30:881,1.6413,1.5533,8.1093,39.6246,0.1054,0.1933,0.0179,359.1719
16:51:30:901,1.2547,1.6514,7.652,37.6057,0.1307,0.3044,-0.1163,358.9844
16:51:30:921,0.9614,1.8561,7.8675,38.4003,0.0332,0.3268,-0.2008,358.9375
16:51:30:943,0.8237,2.1075,8.1524,37.9135,-0.0446,0.2115,-0.221,359.0156
16:51:30:964,0.874,2.4068,8.1919,38.1026,-0.0603,0.0245,-0.2013,359.1094
16:51:30:981,0.7579,2.4762,7.883,38.0317,-0.0632,-0.0594,-0.1733,359.3125
16:51:31:001,0.4957,2.2081,7.8363,38.578,-0.1559,0.0056,-0.1166,359.5312
16:51:31:021,0.443,2.0213,8.4385,38.0927,-0.3016,0.0498,-0.0231,359.75
16:51:31:046,0.7076,1.9531,9.0694,38.078,-0.3538,0.0799,0.0754,359.9375
16:51:31:062,0.9458,2.2679,9.2908,37.2294,-0.2755,0.1646,0.114,0.0156
16:51:31:081,0.9698,2.5121,9.3794,37.3128,-0.1791,0.3436,0.1191,0
16:51:31:101,0.7579,2.5552,9.8187,39.1058,-0.1239,0.4618,0.1271,359.7969
16:51:31:196,0.5711,2.2847,10.1264,38.107,-0.0547,0.3334,0.158,359.625
16:51:31:196,0.8405,2.4547,10.3036,37.1369,0.0465,0.0887,0.2022,359.4375
16:51:31:197,0.8848,2.6534,10.0474,38.469,0.1823,0.1659,0.2254,359.2188
16:51:31:205,0.5328,2.6642,9.7409,38.0843,0.0801,0.322,0.2879,358.9688
16:51:31:205,0.5161,2.7934,10.1551,38.0164,-0.0241,0.3579,0.3748,358.7344
16:51:31:219,0.6454,2.6606,10.7692,38.7906,-0.0414,0.2551,0.4102,358.4531
16:51:31:240,0.9506,2.5768,11.3199,37.6287,0.0079,0.1728,0.3258,358.0781
16:51:31:260,1.0488,2.8509,11.794,36.7009,0.0516,0.1909,0.1716,357.625
16:51:31:281,0.3257,2.8748,11.436,38.7978,-0.0752,0.1478,0.1383,357.125
16:51:31:301,-0.8343,1.6634,11.0338,37.9522,-0.3021,-0.2112,0.2882,356.7344
16:51:31:321,-0.8642,0.6315,11.7401,37.9967,-0.2864,-0.6847,0.4408,356.5156
16:51:31:347,0.2814,0.4818,12.3303,39.7313,0.0609,-0.8629,0.3806,356.3438
16:51:31:365,1.1086,1.1474,11.4348,37.952,0.4156,-0.5414,0.1891,356.0469
16:51:31:379,0.6537,1.6538,9.6667,37.952,0.4713,0.0788,0.0895,355.6406
16:51:31:400,-0.4919,1.5508,8.2386,38.2428,0.2409,0.4953,0.1947,355.3125
16:51:31:420,-1.0294,1.1391,7.9908,37.3262,-0.0456,0.5257,0.3777,355.1406
16:51:31:439,-0.6511,0.7069,8.9317,38.1773,-0.1154,0.4096,0.4531,355.0156
16:51:31:459,0.3628,0.6602,10.3862,36.6071,0.1898,0.4194,0.3151,354.7344
16:51:31:480,0.9099,1.2623,10.7477,36.4578,0.6841,0.5824,0.0991,354.2344
16:51:31:500,0.8201,2.0417,9.2968,38.2208,0.9826,0.7673,-0.0239,353.6562
16:51:31:520,0.4897,2.6318,7.233,38.4618,0.9544,0.7103,-0.0447,353.125
16:51:31:540,0.1426,2.9359,5.6409,37.2067,0.6212,0.531,0.0216,352.9844
16:51:31:560,-0.0825,3.143,5.0674,37.2938,0.1717,0.2186,0.1364,352.9219
16:51:31:580,0.194,3.4064,5.6744,37.1726,-0.2046,-0.0799,0.2112,352.8438
16:51:31:600,0.6274,3.4267,6.808,37.6226,-0.3839,-0.2354,0.1995,352.6875
16:51:31:620,0.8704,3.2711,7.5838,36.9691,-0.4408,-0.3281,0.1108,352.4688
16:51:31:640,0.5616,2.967,7.743,37.4927,-0.5186,-0.3974,0.0384,352.25
16:51:31:660,0.1102,2.8222,7.9752,37.4485,-0.6358,-0.5108,0.0445,352.125
16:51:31:681,0.3521,2.8653,8.5941,38.1297,-0.7194,-0.58,0.0333,352.1094
16:51:31:700,0.9279,2.9299,9.7373,36.901,-0.6747,-0.5609,-0.0546,352.1406
16:51:31:720,1.633,3.3645,10.5969,36.6931,-0.5394,-0.5356,-0.2418,352.1719
16:51:31:743,1.6461,3.5524,10.774,38.1834,-0.4592,-0.5057,-0.4021,352.2656
16:51:31:761,1.1709,3.2448,10.8506,36.5354,-0.4646,-0.4163,-0.4607,352.5156
16:51:31:780,0.8608,2.8198,11.9209,36.5196,-0.3673,-0.2746,-0.4639,352.9844
16:51:31:800,0.6645,2.2607,12.5218,37.227,-0.145,-0.2,-0.4428,353.5312
16:51:31:820,0.7639,2.3409,13.4148,35.9647,0.2524,-0.0469,-0.3872,354.1094
16:51:31:840,0.9075,2.7144,12.3925,37.9591,0.4601,0.2237,-0.2809,354.6719
16:51:31:862,-0.0035,0.185,10.9033,36.7597,0.3357,0.4639,-0.1858,355.1562
16:51:31:881,0.8728,0.8446,11.7688,38.3147,0.2327,0.3052,-0.1499,355.5
16:51:31:908,1.1601,1.6837,10.7321,36.2278,0.4473,-0.0107,-0.286,355.7188
16:51:31:919,0.455,1.7292,8.4672,36.0085,0.6377,-0.0186,-0.4378,355.8125
16:51:31:943,-0.2333,1.7005,7.2498,36.823,0.4681,0.2096,-0.4508,356.0312
16:51:31:959,-0.1806,1.7675,7.8651,37.3793,0.0287,0.3894,-0.2897,356.6875
16:51:31:979,0.3269,1.588,9.474,36.3279,-0.3002,0.3025,-0.0849,357.1406
16:51:31:999,0.862,1.3928,10.1084,35.9812,-0.289,0.2173,0.0307,357.4219
16:51:32:019,1.0344,1.315,9.6643,35.3803,-0.0512,0.2091,0.0062,357.4844
16:51:32:039,0.7627,1.2731,8.7988,37.4338,0.1602,0.2133,-0.0889,357.4219
16:51:32:062,0.4562,1.3438,8.2481,36.2821,0.2447,0.143,-0.1882,357.3906
16:51:32:079,0.455,1.7687,8.0518,36.5214,0.2468,-0.0093,-0.2367,357.4062
16:51:32:101,0.5783,2.1937,7.834,36.7178,0.2292,-0.0658,-0.2572,357.5469
16:51:32:119,0.2731,2.1937,7.968,35.9222,0.1621,0.0437,-0.2796,357.7812
16:51:32:140,-0.1435,2.1075,8.4038,36.5336,0.0995,0.1947,-0.2623,358.0469
16:51:32:160,-0.2561,2.1745,8.8036,36.049,0.0958,0.3169,-0.1784,358.3594
16:51:32:186,-0.1519,2.2404,9.225,35.1852,0.1126,0.4155,-0.075,358.6719
16:51:32:199,0.0133,2.4858,9.5674,34.7103,0.1728,0.4391,0.0065,358.875
16:51:32:220,0.2264,2.8306,9.4069,35.6678,0.2875,0.368,0.0541,358.9531
16:51:32:240,0.4754,3.2579,9.1472,37.0554,0.3584,0.2341,0.0786,358.9219
16:51:32:260,0.2898,3.3166,8.9401,35.5672,0.3328,0.1531,0.0733,358.8281
16:51:32:280,-0.104,3.149,8.9987,36.6515,0.2377,0.0618,0.0874,358.7188
16:51:32:299,-0.2824,2.9718,9.4273,35.7865,0.1261,-0.0248,0.1556,358.5938
16:51:32:320,-0.1256,2.9958,10.2868,34.9912,0.0495,-0.0242,0.2307,358.5
16:51:32:339,-0.0585,3.0353,10.6459,34.7491,0.1051,-0.0232,0.2616,358.375
16:51:32:363,-0.0574,2.9084,10.2844,36.0879,0.2447,-0.1025,0.2616,358.1562
16:51:32:380,0.1091,3.052,10.106,36.3049,0.3349,-0.1534,0.2203,357.875
16:51:32:399,0.5412,3.9139,10.1731,36.1133,0.3746,-0.1422,0.1276,357.6094
16:51:32:420,0.6478,4.7567,9.3172,37.2794,0.4218,-0.1129,0.0115,357.3438
16:51:32:440,-0.4057,3.7811,8.6683,36.5485,0.2649,0.0128,-0.0737,357.125
16:51:32:460,-1.173,2.4966,9.395,35.2262,-0.0957,0.0943,-0.038,357.1406
16:51:32:481,-0.8798,1.995,11.017,36.6069,-0.3474,-0.0352,0.0709,357.2344
16:51:32:500,-0.626,1.8681,11.7233,35.8543,-0.301,-0.274,0.0983,357.25
16:51:32:523,-0.6882,1.6418,11.2241,38.5538,-0.0643,-0.3713,0.0885,357.1719
16:51:32:547,-0.7445,1.4,10.2605,36.6069,0.1461,-0.2461,0.0919,357.1094
16:51:32:563,-0.5482,1.4347,9.7266,35.6709,0.2324,0.0858,0.0818,357.0781
16:51:32:585,-0.2225,1.8178,9.5207,36.5537,0.2803,0.0362,0.0155,357.0156
16:51:32:611,-0.2225,2.226,9.0897,35.8557,0.3637,-0.0924,-0.0295,356.9219
16:51:32:620,-0.2345,2.627,8.3331,37.6033,0.3909,-0.2155,-0.0077,356.7969
16:51:32:643,-0.2345,2.9263,7.816,35.9038,0.3898,-0.2903,0.081,356.7812
16:51:32:668,0.1031,3.2531,7.3587,36.0071,0.3411,-0.2498,0.1843,356.8281
16:51:32:680,0.631,3.5105,7.227,35.606,0.2548,-0.1028,0.2152,356.875
16:51:32:700,0.953,3.5871,7.567,37.3915,0.209,0.0437,0.15,356.8438
16:51:32:719,0.8884,3.7032,7.7885,35.5732,0.1877,0.0778,0.0096,356.6875
16:51:32:741,0.3185,3.8577,7.7825,35.4992,0.1328,-0.0378,-0.1041,356.4688
16:51:32:764,-0.298,3.8936,7.7274,35.2817,0.0441,-0.2674,-0.1254,356.2812
16:51:32:781,-0.4057,3.9941,8.2757,35.5732,0.0263,-0.4666,-0.0977,356.25
16:51:32:800,-0.2441,3.9127,8.9808,33.8877,0.1395,-0.4149,-0.0569,356.375
16:51:32:825,0.1988,3.9355,9.0011,35.9295,0.2585,-0.1638,-0.0655,356.5781
16:51:32:845,0.4801,4.0121,8.8347,36.4192,0.3142,0.1137,-0.1091,356.7812
16:51:32:863,0.6238,4.224,8.7964,36.1368,0.3227,0.2546,-0.1603,356.9219
16:51:32:881,0.6669,4.5041,8.7892,36.201,0.2838,0.2703,-0.2039,357.0781
16:51:32:900,0.5699,4.6478,9.0023,36.3401,0.2279,0.1254,-0.2109,357.1875
16:51:32:919,0.4634,4.6346,9.3447,36.5613,0.2002,-0.1521,-0.1829,357.3125
16:51:32:943,0.5687,4.4694,9.6799,35.7243,0.2002,-0.3918,-0.1677,357.5
16:51:32:961,0.8189,4.1905,10.0605,35.9302,0.2833,-0.5095,-0.1933,357.7188
16:51:32:979,1.4067,4.7136,10.452,35.3888,0.475,-0.5321,-0.2412,357.9688
16:51:32:999,2.2004,6.2794,9.6332,36.5827,0.4939,-0.2629,-0.295,358.2812
16:51:33:021,1.1541,5.2056,8.1236,34.7877,0.1629,0.1427,-0.3155,358.6562
16:51:33:041,-0.3554,3.4435,8.6396,37.6347,-0.1599,0.2384,-0.2242,359.0625
16:51:33:067,-0.2956,3.4495,10.5957,36.7075,-0.0941,-0.1071,-0.1251,359.4062
16:51:33:080,0.5316,4.0229,10.9751,36.0786,0.2116,-0.449,-0.0897,359.6562
16:51:33:100,0.8991,4.3066,9.1555,35.5484,0.2183,-0.2314,-0.0756,359.8281
16:51:33:120,0.6154,4.1258,7.9369,37.1833,-0.0249,0.139,0.0062,0.0156
16:51:33:140,0.4754,3.6637,7.8411,37.1152,-0.3072,0.3446,0.1191,0.2031
16:51:33:164,0.6944,3.125,8.7677,35.8673,-0.4118,0.2948,0.1508,0.2656
16:51:33:185,1.0859,2.6833,9.28,36.5305,-0.3205,0.1358,0.0544,0.125
16:51:33:270,1.4211,2.5552,9.1699,35.3019,-0.1351,-0.0194,-0.1528,359.875
16:51:33:270,1.378,2.7623,8.4564,36.5613,0.0167,-0.1462,-0.3629,359.7031
16:51:33:271,0.9339,3.1071,7.5012,36.7178,0.0593,-0.1915,-0.4647,359.7344
16:51:33:271,0.285,3.9989,7.081,35.1026,-0.0001,-0.0599,-0.4231,0.0469
16:51:33:279,0.3066,4.0432,7.8016,35.7935,-0.0736,0.1547,-0.3035,0.5938
16:51:33:299,0.2407,3.8134,8.3475,35.9716,-0.0851,0.3566,-0.1816,1.1562
16:51:33:318,0.2635,3.6913,8.4193,35.9716,-0.0358,0.4088,-0.0708,1.375
16:51:33:340,0.5783,3.8265,8.4145,35.8715,0.0026,0.2988,0.0309,1.75
16:51:33:362,0.8501,3.9534,8.6887,36.936,0.0012,0.16,0.0893,1.7812
16:51:33:383,0.9805,4.0324,9.2286,35.8715,0.0082,0.0397,0.1074,1.6719
16:51:33:399,0.8752,4.036,9.3112,37.9668,0.075,-0.0591,0.0893,1.5312
16:51:33:419,0.6178,4.1402,9.4261,36.6204,0.1171,-0.1244,0.0706,1.4688
16:51:33:438,0.4035,4.2168,9.6428,38.1823,0.1192,-0.1832,0.0951,1.3438
16:51:33:460,0.2371,4.1366,9.6871,36.2394,0.1344,-0.2053,0.1689,1.2812
16:51:33:479,0.151,3.9391,9.6763,36.7708,0.1445,-0.1281,0.2544,1.2344
16:51:33:499,0.3461,3.981,9.9935,35.9538,0.1339,-0.0448,0.3167,1.1406
16:51:33:518,0.6573,4.1282,10.1096,37.3125,0.1693,-0.0719,0.3207,0.9375
16:51:33:539,1.3876,5.0655,9.5482,36.7178,0.2854,-0.1646,0.2592,0.6406
16:51:33:562,1.603,5.7215,8.2278,37.7071,0.32,-0.1494,0.1215,0.2812
16:51:33:582,0.9171,5.0548,7.8914,37.5114,0.0646,0.0069,-0.0356,359.9688
16:51:33:599,0.1845,4.2012,9.2381,36.9701,-0.3338,0.0447,-0.152,359.7812
16:51:33:619,-0.2944,3.5704,10.7321,37.9447,-0.521,-0.1854,-0.2074,359.75
16:51:33:639,-0.5302,3.3992,10.9237,36.6686,-0.3852,-0.4874,-0.2013,359.8594
16:51:33:663,-0.7373,3.1059,10.0342,35.624,-0.145,-0.5236,-0.115,0.0781
16:51:33:679,-0.8786,2.5073,9.5374,35.347,-0.0741,-0.1766,0.0182,0.4219
16:51:33:699,-0.5996,2.2392,10.1443,36.3657,-0.1346,0.1878,0.1428,0.7656
16:51:33:719,-0.1423,2.2954,10.0953,37.2495,-0.0653,0.2905,0.1737,0.9219
16:51:33:740,0.0875,2.7539,9.1615,37.8875,0.1528,0.1451,0.0954,0.8125
16:51:33:760,-0.189,2.9539,7.7394,37.7706,0.3064,0.0373,-0.021,0.5469
16:51:33:779,-0.2561,3.3956,6.9337,37.3209,0.2761,0.0059,-0.0604,0.2812
16:51:33:799,0.0193,3.8529,7.2366,36.7117,0.0979,0.0447,-0.0095,0.2812
16:51:33:820,0.3772,4.0588,7.8459,35.8012,-0.0155,0.1076,0.0549,0.3438
16:51:33:839,0.5915,4.2096,7.8495,36.46,0.0164,0.1893,0.0754,0.3438
16:51:33:862,0.4957,4.2563,7.573,37.6606,0.0684,0.2368,0.0624,0.2656
16:51:33:879,0.3042,4.3353,7.6029,37.0025,0.0332,0.1973,0.0315,0.125
16:51:33:899,0.0264,4.285,7.7729,37.9708,-0.0398,0.1015,0.0049,359.9844
16:51:33:918,-0.043,4.3162,8.1165,36.3144,-0.0874,-0.0149,0.0022,359.9062
16:51:33:941,0.1964,4.4526,8.5738,37.0767,-0.0781,-0.0493,0.0166,359.8906
16:51:33:962,0.3592,4.5807,8.6971,38.2769,0.1797,0.0695,-0.0577,359.8906
16:51:33:979,0.3808,4.7938,8.3643,38.0387,0.2614,0.1449,-0.1155,359.875
16:51:33:998,0.1689,4.9243,7.9872,37.2216,0.2212,0.2061,-0.1462,359.875
16:51:34:019,0.1797,5.2212,8.0219,37.8683,0.1216,0.237,-0.1589,359.9219
16:51:34:038,0.1462,5.4043,8.4002,36.1233,0.0172,0.2152,-0.1632,0.0156
16:51:34:064,0.066,5.202,9.2381,38.052,-0.0145,0.1931,-0.1728,0.125
16:51:34:078,-0.0933,4.8369,10.0222,37.6866,0.0636,0.2415,-0.1824,0.2344
16:51:34:098,0.0624,4.7339,10.3874,39.717,0.1786,0.2565,-0.2178,0.375
16:51:34:118,0.6861,5.4642,10.5645,38.8225,0.3014,0.1643,-0.323,0.5
16:51:34:140,0.7711,6.2662,10.0019,39.4303,0.2769,0.1734,-0.4237,0.6562
16:51:34:165,-0.7433,4.9853,9.0706,38.371,0.0649,0.1087,-0.3872,0.8438
16:51:34:180,-1.5789,4.0169,9.3195,38.4483,-0.0803,-0.1507,-0.2314,1.1562
16:51:34:198,-0.875,4.0672,10.1372,39.6076,0.046,-0.4727,-0.1193,1.5781
16:51:34:218,0.066,4.2551,9.5518,38.5159,0.2521,-0.6043,-0.1147,2
16:51:34:238,0.3748,4.3868,8.1033,38.6497,0.2385,-0.4101,-0.1078,2.4375
16:51:34:260,0.3473,4.449,7.0786,37.6446,0.0462,-0.1792,-0.0332,2.7031
16:51:34:281,0.3006,4.3784,6.826,38.5293,-0.2323,-0.0216,0.0906,2.9844
16:51:34:301,0.5113,4.0061,7.4928,38.7337,-0.4246,0.0317,0.1646,3.1562
16:51:34:319,0.7675,3.5045,8.1608,37.9557,-0.48,-0.0075,0.1505,3.1406
16:51:34:339,0.9267,3.0676,8.5211,38.7678,-0.4619,-0.0637,0.0658,2.9844
16:51:34:361,1.0272,2.7743,8.7437,38.1625,-0.3964,-0.1238,-0.0721,2.7812
16:51:34:380,0.9734,2.7719,9.0275,39.0758,-0.227,-0.2149,-0.2151,2.6719
16:51:34:398,0.8908,3.0819,8.9197,37.9238,-0.0222,-0.248,-0.3174,2.7031
16:51:34:419,0.7974,3.4758,8.2793,39.168,0.0883,-0.1675,-0.3733,2.9062
16:51:34:441,0.4801,3.6697,7.6556,39.6991,0.0508,-0.0035,-0.3696,3.2812
16:51:34:461,0.115,3.8325,7.7106,38.8603,-0.019,0.1209,-0.2825,3.7188
16:51:34:478,-0.0119,3.9798,8.1476,39.2062,-0.0099,0.1473,-0.1291,4.1719
16:51:34:498,0.394,4.1222,8.2541,39.31,0.0351,0.1411,-0.0431,4.5469
16:51:34:519,0.5903,4.2946,8.1644,40.3019,0.0732,0.077,-0.0434,4.7344
16:51:34:540,0.455,4.5436,7.998,38.6139,0.0553,-0.0586,-0.0007,4.7812
16:51:34:561,0.3389,4.5927,8.0734,39.1589,-0.0054,-0.0706,0.106,4.7969
16:51:34:579,0.4011,4.5005,8.0482,38.5517,-0.0869,-0.1595,0.1977,4.8438
16:51:34:598,0.7507,4.5268,8.3164,39.2691,-0.1767,-0.2141,0.2187,4.7969
16:51:34:619,0.9889,4.54,8.8551,38.061,-0.2195,-0.1161,0.1622,4.6406
16:51:34:638,0.5687,4.2359,9.4249,38.0841,-0.2281,0.0264,0.1164,4.4375
16:51:34:661,-0.0286,4.2228,10.033,39.4967,-0.1932,0.0309,0.1668,4.2812
16:51:34:686,-0.0179,4.0636,10.7118,38.1277,-0.1362,-0.065,0.2341,4.2031
16:51:34:698,0.4538,4.7016,11.0146,39.3686,-0.0249,-0.1196,0.2211,3.9844
16:51:34:717,0.3796,5.5312,10.0977,38.655,0.1458,-0.0479,0.1364,3.7656
16:51:34:739,-0.5901,4.3569,9.1807,37.1331,0.0665,0.164,0.1074,3.5156
16:51:34:762,-0.8953,3.0999,9.9145,38.4017,-0.2611,0.1734,0.1971,3.3281
16:51:34:779,-0.292,2.7061,10.8722,39.1777,-0.4012,-0.1348,0.2842,3.1875
16:51:34:798,0.2467,2.8138,10.7405,39.6306,-0.2454,-0.3771,0.2541,2.9844
16:51:34:818,-0.0993,2.7647,9.6344,37.4602,-0.0283,-0.3041,0.1257,2.7031
16:51:34:838,-0.4273,2.7779,8.7605,38.3045,0.0023,-0.0277,0.0568,2.4375
16:51:34:859,-0.4692,2.7946,8.6073,40.3421,-0.1391,0.0882,0.073,2.3125
16:51:34:881,-0.2932,2.7551,8.8096,40.9094,-0.2773,0.0266,0.113,2.2656
16:51:34:899,-0.1064,2.8413,8.9197,39.5044,-0.2957,-0.0208,0.1093,2.1875
16:51:34:919,0.0241,3.2124,8.7976,40.6805,-0.2139,0.0578,0.0858,2.0781
16:51:34:938,0.0755,3.6182,8.2697,39.709,-0.0645,0.1233,0.0736,1.9531
16:51:34:959,0.2383,3.9834,7.8244,39.8232,0.0577,0.1164,0.1124,1.8438
16:51:34:984,0.1917,3.8481,7.4736,39.8397,0.1227,0.1832,0.1931,1.7344
16:51:35:001,0.1378,3.6566,7.6831,40.1037,0.1062,0.3382,0.2661,1.625
16:51:35:024,0.2551,3.5919,8.2541,38.9024,0.0505,0.4693,0.3135,1.0938
16:51:35:044,0.3138,3.5069,8.4277,40.3167,0.0585,0.2381,0.2216,0.6719
16:51:35:062,0.2982,3.5704,8.4038,39.8093,0.0742,-0.0506,0.1471,0.2188
16:51:35:082,0.3557,3.7164,8.2457,39.032,0.0979,-0.2517,0.0877,359.7031
16:51:35:102,0.6023,4.0432,8.2122,41.0209,0.128,-0.2464,0.0067,359.5469
16:51:35:121,0.722,4.2407,8.2458,40.4986,0.1419,-0.0908,-0.0985,359.5156
16:51:35:141,0.5927,4.3569,8.4828,39.7068,0.1128,0.0645,-0.1965,359.5469
16:51:35:163,0.2922,4.5663,8.8718,42.4779,0.0468,0.139,-0.2514,359.6719
16:51:35:183,-0.0957,4.8154,9.4309,39.3852,-0.0153,0.082,-0.237,359.8906
16:51:35:200,-0.3027,5.0799,10.0067,40.3057,-0.0342,-0.045,-0.1808,0.1406
16:51:35:220,-0.0418,5.3433,10.4795,40.2004,-0.0028,-0.1667,-0.1549,0.3906
16:51:35:240,0.2611,5.3983,10.7609,41.0373,0.099,-0.3313,-0.1565,0.5938
16:51:35:264,0.7495,5.7958,10.6304,40.0856,0.198,-0.4447,-0.1451,0.8125
16:51:35:281,0.5161,5.5971,9.4548,40.0856,0.0303,-0.2464,-0.0788,1.0625
16:51:35:372,-0.438,3.3022,9.0406,38.2227,-0.3138,-0.0959,0.0299,1.3281
16:51:35:373,0.1605,3.0855,11.2122,39.7979,-0.2523,-0.1643,0.024,1.4688
16:51:35:373,0.8237,3.5249,12.5278,39.999,0.3136,-0.4298,-0.0439,1.4688
16:51:35:373,1.0548,3.975,10.8423,40.5967,0.8045,-0.4376,-0.0641,1.4844
16:51:35:386,0.7639,4.2922,7.9584,39.5937,0.7403,-0.0306,0.036,1.6094
16:51:35:398,0.2467,4.0767,6.1269,39.2495,0.2684,0.3063,0.2504,1.6094
16:51:35:417,0.3066,3.653,6.0239,41.5132,-0.2837,0.3369,0.4544,1.7656
16:51:35:437,1.0344,3.3381,7.5251,39.6869,-0.594,0.1459,0.5053,1.7031
16:51:35:458,1.8568,3.052,8.7629,40.7511,-0.6196,-0.0868,0.3862,1.3594
16:51:35:477,2.4015,2.8725,9.1962,40.2269,-0.5271,-0.2605,0.1383,0.75
16:51:35:498,2.3775,2.7647,9.3698,40.4187,-0.3463,-0.3966,-0.1147,0.1562
16:51:35:517,2.0831,2.9455,9.231,39.6668,-0.108,-0.3872,-0.2812,359.7031
16:51:35:539,1.8113,3.2483,8.8503,41.6207,0.1086,-0.1739,-0.3536,359.9375
16:51:35:561,1.4175,3.2567,8.4684,41.2829,0.2859,0.0983,-0.3648,0.125
16:51:35:581,0.8824,3.2639,7.9956,39.9054,0.3882,0.2354,-0.2934,0.5469
16:51:35:597,0.5927,3.5057,7.5862,38.2279,0.3925,0.229,-0.1563,0.9688
16:51:35:617,0.4981,3.4913,7.3216,39.8612,0.3176,0.1947,-0.0071,1.2969
16:51:35:638,0.5209,3.4135,7.4425,40.2059,0.221,0.1771,0.1143,1.4844
16:51:35:659,0.6633,3.4267,7.8232,39.93,0.1794,0.0487,0.2025,1.5156
16:51:35:681,1.3289,3.9187,8.2194,41.0846,0.1999,-0.0104,0.2078,1.3906
16:51:35:697,1.7718,4.4993,8.3403,41.182,0.2175,0.0407,0.1321,1.1719
16:51:35:717,1.6401,4.7735,8.1811,38.7292,0.1807,0.0615,0.0642,0.9219
16:51:35:737,1.2535,4.9638,8.0434,40.0326,0.0638,0.0823,0.0754,0.7031
16:51:35:757,0.9123,4.8716,8.1644,41.0977,-0.1271,0.1158,0.1409,0.5938
16:51:35:779,0.6837,4.4442,8.8551,39.8658,-0.3072,0.1502,0.2115,0.5
16:51:35:797,0.4538,4.0312,9.978,39.559,-0.3916,0.1036,0.2608,0.3594
16:51:35:819,-0.0214,3.9965,11.4001,41.2213,-0.2725,-0.2381,0.3279,0.25
16:51:35:838,0.0157,4.479,11.9628,40.9387,0.0375,-0.7526,0.4304,359.9844
16:51:35:858,0.0133,4.7136,10.5382,38.1773,0.201,-0.8203,0.6427,359.6875
16:51:35:880,0.522,3.981,8.6755,39.6297,0.0084,-0.3878,0.7961,359.375
16:51:35:899,2.0065,3.6458,9.1699,40.8618,-0.2068,0.0858,0.6283,359.0625
16:51:35:918,2.2698,3.4626,10.9763,39.0701,-0.1106,0.3388,0.28,358.5156
16:51:35:937,1.3349,3.307,10.9979,40.6081,0.0758,0.2977,0.0397,357.75
16:51:35:958,0.1929,2.8808,9.2657,39.7074,-0.0893,0.2253,0.0009,357.0156
16:51:35:981,-0.2393,2.4211,8.472,41.5976,-0.4555,-0.036,0.0632,356.625
16:51:35:997,0.1354,2.4152,9.219,39.9128,-0.6158,-0.3579,0.0855,356.5156
16:51:36:018,0.7938,2.6414,9.9444,40.5381,-0.4856,-0.3649,-0.0023,356.4375
16:51:36:038,0.9506,2.9371,9.8989,39.7231,-0.2278,-0.1207,-0.1283,356.4375
16:51:36:059,0.6406,3.4004,9.4021,41.5693,0.047,0.1169,-0.1507,356.5
16:51:36:078,0.0265,3.6434,7.4317,39.6117,0.2215,0.1957,-0.0308,356.6562
16:51:36:097,0.3724,3.6494,7.0522,40.7487,0.2247,0.2024,0.1276,356.8438
16:51:36:119,0.552,3.7428,7.2737,42.2228,0.1344,0.1662,0.1849,356.9062
16:51:36:136,0.2036,3.9151,7.385,39.4801,0.0697,0.0583,0.1633,356.7812
16:51:36:157,-0.0861,3.9391,7.2785,41.3048,0.0231,-0.024,0.1817,356.5312
16:51:36:178,-0.0322,3.8541,7.5957,39.2975,-0.0603,-0.0338,0.2648,356.3125
16:51:36:197,0.5065,3.9175,8.2829,40.1138,-0.1085,0.0051,0.3569,356.125
16:51:36:217,1.0548,3.9822,8.7198,39.518,-0.0331,0.0538,0.3644,355.8906
16:51:36:238,1.1924,4.139,8.5139,39.7727,0.1288,0.1049,0.2749,355.5312
16:51:36:258,0.9793,4.3281,8.1631,40.3366,0.2084,0.1651,0.17,355.125
16:51:36:280,0.874,4.4706,8.4672,37.9213,0.1299,0.1942,0.1183,354.7344
16:51:36:299,1.2008,4.5699,9.231,40.6887,-0.0166,0.1888,0.1178,354.4375
16:51:36:318,1.6844,4.552,10.0582,40.0742,-0.1071,0.1936,0.101,354.2344
16:51:36:337,2.2207,4.7232,10.8686,40.2053,-0.1135,0.1555,0.0104,354.0625
16:51:36:357,2.3608,5.1445,11.2433,38.9144,-0.0078,0.0128,-0.1632,353.8906
16:51:36:380,2.0807,5.8915,10.4233,38.8152,0.1895,-0.2285,-0.3214,353.7656
16:51:36:397,0.5699,4.5424,8.2841,40.9931,0.308,-0.248,-0.3086,353.8281
16:51:36:420,-0.2776,2.7623,8.1117,41.3086,-0.0137,0.1427,-0.1443,354.1562
16:51:36:437,1.1469,3.046,10.9033,40.126,-0.5405,0.3089,0.0698,354.5781
16:51:36:459,2.2638,3.7224,12.8211,41.1553,-0.5908,0.0325,0.0331,354.875
16:51:36:481,1.7934,3.8948,10.8447,39.8823,-0.0411,-0.38,-0.1715,354.7656
16:51:36:497,0.7316,3.7116,8.2398,40.2714,0.3086,-0.2282,-0.2532,354.75
16:51:36:518,0.2647,3.3549,7.5562,39.7895,0.0774,0.3358,-0.0785,355.0156
16:51:36:538,1.0751,2.9455,8.4109,40.5815,-0.3096,0.4985,0.223,355.3281
16:51:36:557,2.1621,2.3302,9.1962,41.0367,-0.5604,0.306,0.395,355.3438
16:51:36:578,2.8708,1.8645,9.4129,40.3433,-0.5823,-0.032,0.305,355.0156
16:51:36:597,2.9725,1.9375,9.0179,39.1386,-0.4315,-0.3332,0.0075,354.5312
16:51:36:617,2.5547,2.3362,8.1751,41.1403,-0.1916,-0.5524,-0.3097,354.2188
16:51:36:637,1.937,2.5456,7.3898,40.2638,-0.0211,-0.4959,-0.4953,354.2969
16:51:36:658,1.5839,2.6223,7.0834,40.749,0.0516,-0.2559,-0.5289,354.75
16:51:36:680,1.4342,2.7719,7.0451,39.5305,0.0609,0.0471,-0.4892,355.4219
16:51:36:699,1.5073,3.046,7.3324,40.5366,0.0191,0.2996,-0.4127,356.0625
16:51:36:718,1.4905,3.3764,7.7765,41.3561,-0.0408,0.3814,-0.3528,356.5938
16:51:36:738,1.0093,3.3692,8.2817,41.1441,-0.1157,0.2964,-0.3211,357
16:51:36:757,0.5508,3.2675,8.6348,43.0028,-0.1522,0.0402,-0.2503,357.3281
16:51:36:783,0.4514,3.1083,8.8347,41.2522,-0.1695,-0.2208,-0.1286,357.6406
16:51:36:797,0.522,3.1885,9.4393,40.9993,-0.1538,-0.2639,0.0515,357.9062
16:51:36:821,0.704,3.4291,10.0594,41.0956,-0.0073,-0.1105,0.122,358.1094
16:51:36:836,0.8046,3.6039,10.0725,40.8853,0.1283,0.0128,0.1646,358.2344
16:51:36:857,0.4634,3.5069,9.6188,39.9968,0.1344,0.0615,0.22,358.2344
16:51:36:879,0.1629,3.5009,9.2788,41.3092,0.0303,0.0479,0.329,357.9219
16:51:36:899,0.1785,3.4147,9.3974,41.0208,-0.1136,0.0432,0.4368,357.7812
16:51:36:917,0.7196,3.3058,10.3131,41.574,-0.1388,0.0786,0.4366,357.4844
16:51:36:940,1.8544,4.3018,11.5569,42.6096,0.0468,0.0786,0.2784,356.5
16:51:36:966,1.8867,5.281,11.4145,41.2097,0.2066,0.2613,0.1489,356.5
16:51:36:982,0.7172,3.7595,10.7453,42.227,0.1712,0.5177,0.1636,356.0938
16:51:37:000,0.0708,2.5265,11.2289,42.3503,0.2164,0.6472,0.2784,355.8281
16:51:37:017,0.6585,2.3972,11.7449,40.6487,0.3512,0.7795,0.2512,355.5781
16:51:37:038,0.6729,2.25,11.2852,42.6192,0.4148,0.8874,0.1002,355.2031
16:51:37:058,0.0899,1.9746,10.1384,42.3521,0.1999,0.8956,-0.0276,354.9844
16:51:37:081,-0.3494,2.086,9.5482,42.5586,-0.1261,0.5167,-0.1078,354.5312
16:51:37:098,-0.4177,2.2811,9.5422,42.1326,-0.317,-0.1609,-0.1432,354.2188
16:51:37:118,0.1043,2.5025,9.4656,41.7328,-0.2922,-0.7646,-0.2005,354.0625
16:51:37:137,0.5005,2.7767,8.9401,42.5542,-0.1367,-1.0014,-0.2607,354.0781
16:51:37:158,0.6202,2.9802,7.9201,43.346,0.0047,-0.8655,-0.2644,354.2812
16:51:37:181,0.6513,3.0963,6.8858,42.0275,0.0518,-0.4978,-0.2053,354.6719
16:51:37:200,0.9554,3.2831,6.4465,41.8225,0.0385,-0.0695,-0.18,355.1562
16:51:37:217,1.4319,3.3812,6.4274,41.8225,0.0186,0.1646,-0.3001,355.625
16:51:37:238,1.5192,3.3884,6.1017,42.3972,-0.0432,-0.0448,-0.5241,355.9531
16:51:37:258,1.2379,3.3908,5.5247,42.6815,-0.2462,-0.4274,-0.6886,356.1562
16:51:37:283,0.0444,2.9946,5.5571,41.946,-0.5836,-0.6373,-0.6207,356.4688
16:51:37:301,-0.8666,3.1083,6.7853,42.0501,-0.819,-0.6871,-0.2426,357.0781
16:51:37:318,-0.45,3.386,8.6791,42.8329,-0.769,-0.5396,0.1372,357.9688
16:51:37:339,0.5771,3.3178,10.0019,40.9283,-0.4662,-0.1755,0.3314,359.0625
16:51:37:358,1.5767,3.1238,10.1779,42.0447,-0.1231,0.249,0.3164,359.2656
16:51:37:381,2.3117,3.1837,9.8606,40.2365,0.0843,0.5934,0.1481,359.0781
16:51:37:459,2.6098,3.5608,9.3842,42.8375,0.0793,0.7412,-0.1019,358.7031
16:51:37:460,1.8712,3.5907,9.2633,42.9183,-0.0861,0.6248,-0.2791,358.3438
16:51:37:460,0.8118,3.3417,9.626,43.3257,-0.2834,0.2621,-0.2934,358.2031
16:51:37:460,0.4586,3.2687,10.7872,42.055,-0.3511,-0.0836,-0.2189,358.3125
16:51:37:481,2.0364,4.3569,12.6044,42.8371,-0.1687,-0.2698,-0.2383,358.5938
16:51:37:497,1.1218,4.2036,11.017,42.4739,0.1198,-0.297,-0.3715,358.8906
16:51:37:517,-0.8762,2.0872,9.6272,41.0118,0.0473,-0.1411,-0.3874,359.1562
16:51:37:536,-0.2154,1.6945,11.612,43.2073,-0.4939,-0.0804,-0.0809,359.5469
16:51:37:556,1.384,1.9854,14.0158,42.0124,-0.7559,-0.1854,0.1705,0.0469
16:51:37:581,1.7132,1.5437,13.6746,42.1193,-0.353,-0.2866,0.1084,0.375
16:51:37:599,1.2104,1.4204,11.5019,42.4238,0.2678,-0.3089,-0.1185,0.3281
16:51:37:617,0.6489,1.8202,9.5087,42.7109,0.5674,-0.2248,-0.245,0.1875
16:51:37:637,0.3449,2.0836,8.1811,42.5992,0.491,-0.1201,-0.1723,0.2344
16:51:37:657,0.4215,1.801,7.5634,43.2272,0.2284,-0.1736,0.0256,0.4688
16:51:37:680,0.9147,1.3701,7.8232,43.1833,-0.076,-0.2487,0.2243,0.7344
16:51:37:700,1.4689,0.9475,8.3858,42.3518,-0.2795,-0.2141,0.3116,0.8281
16:51:37:717,2.101,0.9116,8.6001,42.6934,-0.2933,-0.1984,0.2552,0.7188
16:51:37:737,2.5679,1.3988,8.2529,41.0935,-0.1388,-0.2967,0.0451,0.4375
16:51:37:759,2.1657,1.8178,7.3192,42.2621,0.0537,-0.3694,-0.2631,0.0469
16:51:37:781,1.3026,2.1721,6.7063,43.1204,0.0838,-0.2887,-0.5009,0.0469
16:51:37:798,0.6262,2.4283,6.8188,41.9148,-0.0539,-0.1529,-0.5448,0.3906
16:51:37:817,0.2802,2.4918,7.6771,42.2241,-0.2326,-0.0692,-0.4386,1
16:51:37:837,0.3102,2.4989,8.5534,42.341,-0.2994,-0.0237,-0.2463,1.6562
16:51:37:858,0.4897,2.5349,8.9532,42.5658,-0.2294,0.0623,-0.05,2.1562
16:51:37:882,0.6825,2.5648,9.0873,42.95,-0.1242,0.1747,0.106,2.4688
16:51:37:900,0.54,2.3385,9.401,43.1302,-0.0568,0.2469,0.178,2.5312
16:51:37:917,0.7591,2.5145,10.1276,43.7926,0.021,0.1856,0.224,2.3906
16:51:37:938,1.0907,3.0221,10.5442,42.9182,0.1975,0.1044,0.2536,2.1562
16:51:37:958,1.3588,3.3501,9.8594,43.167,0.4513,0.2562,0.2784,1.875
16:51:37:982,1.4486,3.799,9.0765,43.354,0.5765,0.469,0.265,1.5781
16:51:37:999,1.2607,4.048,8.7761,42.7311,0.4977,0.5438,0.2043,1.1875
16:51:38:017,1.0201,4.2024,9.1783,42.8926,0.295,0.4876,0.163,0.7812
16:51:38:037,0.892,4.2096,10.1467,42.9342,0.0841,0.3707,0.1692,0.4375
16:51:38:058,0.6777,4.0181,11.2708,43.8258,-0.0254,0.2993,0.1934,0.1562
16:51:38:083,0.8357,4.4383,11.9388,42.7527,0.0111,0.3001,0.2453,359.9062
16:51:38:101,0.2958,3.9858,11.0518,42.2185,0.1648,0.2985,0.3226,359.6406
16:51:38:118,-0.0693,2.6773,10.1659,43.3853,0.1499,0.2943,0.4672,359.3281
16:51:38:137,0.4502,2.1961,10.944,41.2473,-0.0906,0.1968,0.6318,359.125
16:51:38:159,0.9961,1.8705,11.8191,43.6157,-0.2201,0.0434,0.6714,358.625
16:51:38:184,1.3971,1.9028,11.5378,42.6182,-0.0763,-0.1342,0.6057,357.9375
16:51:38:199,0.886,1.6897,10.5478,44.9938,0.0604,-0.0506,0.3119,356.8281
16:51:38:219,0.5161,1.7795,10.3048,42.5901,-0.0171,-0.1207,0.2882,356.1562
16:51:38:237,0.7016,2.3038,10.5945,43.2714,0.091,-0.2978,0.2818,355.6719
16:51:38:257,0.8106,2.5361,10.0534,42.554,0.3187,-0.3334,0.2781,355.3438
16:51:38:282,0.6418,2.4128,8.7497,43.7566,0.4444,-0.1838,0.3175,355.0312
16:51:38:299,0.643,2.4223,7.652,43.8211,0.3983,0.0256,0.4203,354.7656
16:51:38:316,0.959,2.7635,7.3024,43.0747,0.3248,0.077,0.5167,354.4844
16:51:38:336,1.4163,2.9227,7.3168,43.286,0.3222,-0.0205,0.5535,354.125
16:51:38:357,1.9167,3.1262,7.0163,43.8255,0.3283,-0.1968,0.497,353.625
16:51:38:382,2.1585,3.1394,6.237,44.3371,0.1799,-0.42,0.3756,353
16:51:38:400,2.0268,3.1059,5.8372,41.5326,-0.1458,-0.6123,0.2232,352.3906
16:51:38:417,1.8808,3.1538,6.316,44.1568,-0.463,-0.7364,0.101,351.8281
16:51:38:437,2.0519,3.4638,7.2402,42.6643,-0.6161,-0.8493,-0.0063,351.4688
16:51:38:457,2.1525,3.6613,8.2027,44.1456,-0.6185,-0.8472,-0.0862,351.3438
16:51:38:482,2.0388,3.4028,8.9209,42.5931,-0.492,-0.7257,-0.1115,351.3906
16:51:38:501,1.9849,3.1035,9.3483,43.2473,-0.309,-0.4389,-0.0828,351.6094
16:51:38:517,2.1226,2.8772,9.7757,43.5304,-0.1364,-0.0144,-0.0473,351.9062
16:51:38:537,2.4518,2.8545,10.1898,43.1863,0.0489,0.3116,-0.0631,352.2031
16:51:38:558,2.6337,2.8066,10.2701,43.5637,0.21,0.4147,-0.1387,352.4062
16:51:38:582,2.7415,2.8796,10.1791,43.0289,0.3323,0.33,-0.2495,352.4844
16:51:38:599,2.7259,2.8186,9.6452,42.6934,0.3546,0.1643,-0.3869,352.5
16:51:38:617,2.7989,2.7456,9.4393,41.0456,0.2937,-0.0003,-0.547,352.5625
16:51:38:638,3.0635,3.4842,9.6236,42.7398,0.25,-0.1662,-0.6913,352.75
16:51:38:657,2.2435,3.4543,8.7701,43.8076,-0.0052,-0.1321,-0.7052,353.1094
16:51:38:681,0.4071,1.995,8.0686,42.7947,-0.5157,-0.1017,-0.4748,353.7188
16:51:38:701,-0.1723,1.0277,9.1448,42.9352,-0.9141,-0.2999,-0.1438,354.5
16:51:38:717,0.6454,0.9523,11.011,43.3273,-0.8302,-0.6405,0.0837,355.6406
16:51:38:737,1.7383,1.3138,11.4169,42.5481,-0.4155,-0.776,0.1356,356.1094
16:51:38:758,2.2327,1.6311,9.79,41.0363,-0.2203,-0.4924,0.1236,356.2812
16:51:38:783,1.9909,1.7448,8.0219,41.8896,-0.4206,-0.0882,0.1809,356.3281
16:51:38:799,1.7467,1.6634,7.4545,42.9238,-0.7655,0.1017,0.2906,356.3125
16:51:38:817,1.6306,1.3653,8.1979,42.7723,-0.9807,0.0685,0.3867,356.2344
16:51:38:838,1.9622,1.0852,9.2585,42.9991,-0.9261,-0.0645,0.3772,356.0312
16:51:38:858,2.3788,0.7823,9.7158,42.8453,-0.6845,-0.1515,0.227,355.75
16:51:38:882,2.6433,0.647,9.2908,41.2414,-0.4571,-0.1252,-0.026,355.4219
16:51:38:902,2.1788,1.3653,8.2852,41.1274,-0.366,-0.0139,-0.2929,355.1719
16:51:38:917,1.5252,1.558,8.2661,42.7176,-0.4014,0.0975,-0.4285,355.125
16:51:38:936,1.202,1.7137,8.6779,42.5063,-0.4731,0.0748,-0.3835,355.375
16:51:38:957,1.2583,1.9016,9.1496,41.7151,-0.4965,0.0059,-0.2181,355.8594
16:51:38:983,1.7431,2.08,9.6344,40.495,-0.4371,0.0141,0.0014,356.3906
16:51:38:999,2.3273,2.0764,9.9289,41.214,-0.3186,0.1723,0.1926,356.7969
16:51:39:016,2.7295,1.8034,9.9935,40.4855,-0.1532,0.4466,0.3007,356.9688
16:51:39:039,3.3831,1.9806,10.0893,43.0453,0.0215,0.677,0.3196,356.9062
16:51:39:055,3.862,2.5133,10.136,42.432,0.202,0.7955,0.2062,356.625
16:51:39:076,3.8991,2.9874,10.47,40.7247,0.3696,0.8256,0.0033,356.2188
16:51:39:100,3.1808,2.815,10.8997,40.7254,0.4894,0.8597,-0.1781,355.8438
16:51:39:117,2.2962,2.4164,11.0242,41.8347,0.5842,0.9441,-0.2455,355.6406
16:51:39:138,1.6785,2.0536,10.8542,41.9593,0.569,0.9963,-0.1826,355.6406
16:51:39:157,1.2906,1.5197,11.1798,41.9593,0.3475,0.898,-0.0775,355.7969
16:51:39:185,1.5599,1.3246,12.4117,41.0325,0.0276,0.5952,0.0072,355.9219
16:51:39:199,1.8532,1.321,13.2999,43.0308,-0.0299,0.1028,-0.0809,355.9375
16:51:39:216,1.9502,1.7232,12.3147,42.6103,0.3147,-0.4669,-0.3129,355.8594
16:51:39:235,0.6238,1.2037,9.5171,39.4462,0.6891,-0.8647,-0.5973,355.9531
16:51:39:256,-0.2896,1.1223,8.2194,42.0004,0.491,-0.8312,-0.637,356.3281
16:51:39:276,-0.5278,0.7751,9.2705,42.0148,-0.158,-0.5939,-0.4048,357.0625
16:51:39:301,-0.4404,0.2364,11.2984,42.299,-0.6568,-0.5033,-0.1355,357.8594
16:51:39:316,0.3054,0.1778,12.013,40.3305,-0.5658,-0.5497,0.0978,358.3594
16:51:39:336,0.8345,0.3597,10.5143,39.7802,-0.0747,-0.5436,0.183,358.625
16:51:39:357,0.9267,0.4938,8.4433,40.7629,0.2969,-0.416,0.1993,358.6094
16:51:39:381,1.1649,0.6818,7.3348,41.7369,0.255,-0.1145,0.2563,358.4688
16:51:39:399,1.6222,1.1522,7.6364,41.8661,-0.0201,0.1803,0.3255,358.2656
16:51:39:418,1.8903,1.5197,8.5953,40.4207,-0.2432,0.3324,0.3132,357.9531
16:51:39:437,1.7503,1.6921,9.0682,40.9175,-0.2488,0.2698,0.2171,357.5625
16:51:39:457,1.4714,1.9148,8.8599,41.4228,-0.0696,-0.0325,0.1356,357.2188
16:51:39:483,1.5647,2.1051,8.0315,41.4091,0.1648,-0.3875,0.1468,356.9531
16:51:39:556,1.9801,2.3374,7.3036,41.5822,0.2859,-0.4789,0.1947,356.8125
16:51:39:557,2.3021,2.5863,7.2785,40.6832,0.2399,-0.2693,0.1777,356.6875
16:51:39:557,2.2315,2.6151,7.6412,41.6874,0.1437,0.0053,0.0834,356.4844
16:51:39:558,2.0412,2.3924,7.7873,42.1627,0.1062,0.1593,-0.0234,356.2812
16:51:39:577,2.1429,2.2751,7.8016,41.6874,0.1024,0.2037,-0.1275,356.1719
16:51:39:598,2.2255,2.1446,8.326,40.0257,0.0723,0.4559,-0.4511,356.1719
16:51:39:615,1.9622,1.7723,9.3626,40.7644,0.2396,0.7835,-0.5595,356.2812
16:51:39:637,1.4606,1.4048,9.6021,42.6819,0.4463,1.0679,-0.5733,357
16:51:39:657,1.6916,1.983,8.9808,40.2193,0.4529,1.0525,-0.6087,357.5312
16:51:39:683,1.7766,2.4978,8.4469,41.3751,0.2313,0.7494,-0.7286,357.5312
16:51:39:699,1.2942,2.493,8.5438,42.4051,-0.0454,0.3374,-0.8159,358.5469
16:51:39:715,0.5257,2.4295,9.2657,41.1277,-0.2419,-0.065,-0.7712,359.2812
16:51:39:735,0.5173,2.7025,10.5202,40.7673,-0.2472,-0.4658,-0.654,359.7031
16:51:39:756,1.4725,2.9922,11.3678,41.953,-0.0677,-0.7984,-0.6471,0.625
16:51:39:776,2.0615,3.732,11.1236,41.0753,0.0044,-0.8946,-0.6663,1.4375
16:51:39:797,0.5161,2.6055,9.5434,40.784,-0.3958,-0.644,-0.4764,2.25
16:51:39:817,-1.264,0.6782,9.5027,38.8424,-0.9935,-0.445,-0.0237,3.125
16:51:39:836,-0.4608,0.2065,12.3327,40.9558,-0.9911,-0.4453,0.3055,3.8906
16:51:39:857,1.4737,0.8697,14.5054,41.9537,-0.2291,-0.3854,0.2355,4.2969
16:51:39:880,2.0256,1.3713,13.2269,41.8703,0.5333,-0.0378,0.0565,4.2188
16:51:39:899,1.4378,1.6095,10.4305,40.3848,0.7128,0.5212,0.1313,4.0781
16:51:39:916,1.4306,2.1662,8.733,41.9881,0.4487,0.8525,0.3143,3.8125
16:51:39:936,1.767,2.0764,8.1524,40.8403,0.0814,0.6879,0.3977,3.7656
16:51:39:956,2.3105,1.5676,8.1189,41.3574,-0.2451,0.4264,0.3085,3.5156
16:51:39:976,2.872,1.4443,8.7773,40.5348,-0.3764,0.2927,0.0584,3.0156
16:51:40:000,2.945,1.3988,9.3698,41.2184,-0.2973,0.1843,-0.2242,2.5156
16:51:40:023,2.5799,1.2683,9.4405,41.8111,-0.1391,-0.016,-0.4322,2.125
16:51:40:044,2.3129,1.4575,9.292,40.8746,0.0343,-0.1955,-0.5512,2.0469
16:51:40:058,2.2866,1.7436,8.9209,40.2879,0.1672,-0.2115,-0.6319,2.2812
16:51:40:093,2.0316,1.7448,8.4756,42.0895,0.2353,-0.1638,-0.6812,2.7812
16:51:40:095,1.6318,1.6658,8.0482,40.0591,0.2298,-0.1942,-0.6609,3.4375
16:51:40:119,1.2475,1.7807,7.8555,41.4307,0.1765,-0.2812,-0.5627,4.1719
16:51:40:136,1.3648,2.159,7.9764,40.93,0.123,-0.3332,-0.4612,4.9219
16:51:40:157,1.4857,2.1231,8.1883,39.961,0.1155,-0.3103,-0.409,5.6875
16:51:40:176,0.6262,1.5688,8.6923,42.1686,0.1544,-0.0687,-0.2551,6.3438
16:51:40:199,-0.28,1.4431,9.9265,40.5482,0.3797,0.1121,0.1271,6.875
16:51:40:217,1.6198,2.5301,9.1376,38.9559,0.4572,-0.1087,0.2278,7.375
16:51:40:237,1.2487,2.1758,8.5103,39.8569,0.1789,-0.261,0.2688,7.6094
16:51:40:257,0.9051,1.8394,9.6164,39.1119,-0.0217,-0.3374,0.3039,7.3594
16:51:40:282,1.4678,1.7556,11.1739,40.6207,0.0713,-0.3947,0.2507,7.0938
16:51:40:300,0.9099,2.5516,11.1056,40.0862,0.2678,-0.4866,0.1433,6.7969
16:51:40:316,0.7734,3.8672,10.355,39.0447,0.3246,-0.5625,0.1553,6.5312
16:51:40:336,0.7675,4.2503,9.6942,40.777,0.0987,-0.6959,0.3457,6.3438
16:51:40:355,1.0392,2.7994,10.6376,40.8406,-0.4422,-0.7803,0.6246,6.25
16:51:40:376,1.8616,1.3162,12.7768,39.6894,-0.9777,-0.7523,0.8475,6.0469
16:51:40:399,2.5847,0.7763,14.7759,39.9957,-1.1434,-0.6109,0.8118,5.6406
16:51:40:417,2.3764,0.1347,14.7508,38.6157,-0.8406,-0.4306,0.5694,4.9375
16:51:40:435,2.2028,-0.0676,12.9887,40.006,-0.338,-0.2187,0.3354,4.1562
16:51:40:455,2.1214,0.1083,10.8363,39.5431,0.0295,0.0844,0.162,3.5625
16:51:40:475,1.2726,0.1574,8.7449,39.4714,0.1845,0.5547,-0.0191,3.1719
16:51:40:500,0.4538,0.4136,8.1955,40.6562,0.0961,1.0243,-0.1068,2.9062
16:51:40:515,0.1797,0.5932,8.8898,39.864,-0.0997,1.2557,-0.0181,2.7812
16:51:40:536,0.5161,0.5668,8.8778,40.9657,0.0236,0.8269,0.1039,2.7812
16:51:40:555,1.22,0.7703,7.4066,40.4727,0.4396,0.0786,0.1569,2.7656
16:51:40:576,1.937,1.1941,5.678,41.2519,0.7227,-0.4011,0.122,2.625
16:51:40:600,2.1717,1.6287,4.7382,38.5308,0.674,-0.5151,-0.0058,2.4219
16:51:40:616,2.0831,2.0129,4.9214,38.538,0.34,-0.3318,-0.139,2.2031
16:51:40:636,1.6282,2.2595,5.6373,40.3848,-0.0395,-0.1071,-0.2636,2.125
16:51:40:656,1.1134,2.3469,6.7518,39.6453,-0.3104,-0.0163,-0.3137,2.2031
16:51:40:676,0.7639,2.3625,7.7406,39.7979,-0.451,0.094,-0.2604,2.4375
16:51:40:699,0.7615,2.3685,8.484,41.174,-0.4321,0.1124,-0.147,2.8125
16:51:40:717,1.0212,2.1733,8.7725,40.1776,-0.3141,0.0197,-0.0324,3.1875
16:51:40:736,1.3876,2.0393,8.478,39.5005,-0.1689,-0.1507,0.0302,3.4375
16:51:40:758,2.0172,2.2416,8.4756,40.5167,-0.1396,-0.2996,0.036,3.5625
16:51:40:774,2.2219,2.4367,9.2166,38.237,-0.2741,-0.3388,-0.0649,3.5781
16:51:40:796,1.4546,2.1566,10.8902,40.3301,-0.4757,-0.2557,-0.2578,3.5781
16:51:40:819,0.868,1.9447,11.6982,38.4343,-0.5194,-0.2948,-0.3286,3.7188
16:51:40:837,1.0428,1.7879,11.533,40.0394,-0.3961,-0.706,-0.2508,4.0938
16:51:40:856,1.9334,2.171,11.1655,38.373,-0.3002,-1.0304,-0.1185,4.5156
16:51:40:879,1.9669,2.3697,10.5238,38.4398,-0.2928,-0.9438,0.0315,4.9062
16:51:40:902,1.5264,0.7751,11.3019,39.9824,-0.5785,-0.1766,0.3114,5.1719
16:51:40:919,2.2554,-0.5896,13.489,38.0962,-0.8355,0.5931,0.6584,5.2344
16:51:40:936,3.5447,-0.8601,14.4623,38.6886,-0.578,0.9414,0.7481,4.9688
16:51:40:958,3.8512,-0.2807,12.4548,40.4821,0.164,0.9041,0.4355,4.3125
16:51:40:974,2.5942,0.7703,9.207,40.3672,0.7999,0.6013,-0.0367,3.5156
16:51:40:997,1.6342,1.4252,7.4389,39.0056,-0.0827,0.8823,0.0547,2.9531
16:51:41:016,0.9758,0.9882,8.1775,39.1397,-0.5745,0.4274,0.3806,2.9531
16:51:41:040,1.5492,0.3418,9.3986,39.4236,-0.7847,0.1433,0.5822,2.875
16:51:41:055,2.526,-0.1191,10.1659,39.4552,-0.7072,-0.0487,0.4858,2.8281
16:51:41:075,3.0096,-0.4771,10.1922,39.612,-0.4611,-0.241,0.2097,2.4219
16:51:41:101,3.1162,-0.4339,9.5661,39.612,-0.2273,-0.4631,-0.1177,1.3438
16:51:41:117,2.8432,-0.0377,8.7916,40.0037,-0.0997,-0.5931,-0.3539,1.3438
16:51:41:135,2.4626,0.3047,8.3619,40.2157,-0.0395,-0.5619,-0.4519,1.1406
16:51:41:155,2.1597,0.5429,8.5534,39.2182,0.1032,-0.396,-0.4402,1.3125
16:51:41:175,1.8389,0.7919,8.5654,39.4092,0.3208,-0.1159,-0.2841,1.75
16:51:41:199,1.8293,1.3378,8.2446,39.4067,0.471,0.3771,-0.0178,2.25
16:51:41:216,1.7874,1.497,7.8196,40.2068,0.4694,1.0453,0.3015,2.75
16:51:41:235,1.8233,1.3342,8.3978,39.3111,0.459,1.6778,0.6017,3.0781
16:51:41:255,2.0424,1.1666,9.4045,40.3761,0.5621,1.9819,0.7681,2.8438
16:51:41:275,2.2914,0.981,10.3622,41.1911,0.7187,1.8458,0.7497,2.2031
16:51:41:303,2.186,0.7356,10.5202,39.384,0.8633,1.236,0.6105,1.2656
16:51:41:320,1.8808,0.902,9.7266,38.7897,0.7741,0.5308,0.4424,0.2812
16:51:41:341,1.4749,1.2827,8.8694,40.0651,0.4026,0.032,0.3194,359.3594
16:51:41:354,1.208,1.3653,8.9018,40.4644,-0.023,-0.3518,0.2166,358.6719
16:51:41:375,0.8489,1.0948,9.705,39.3684,-0.264,-0.6682,0.1236,358.2344
16:51:41:399,0.716,0.9607,10.4855,41.5012,-0.3223,-0.8022,0.0219,357.9375
16:51:41:416,0.4682,0.9427,11.1044,39.8427,-0.2582,-0.7385,-0.0724,357.7969
16:51:41:441,0.3964,1.4551,11.6132,40.3037,-0.0885,-0.6658,-0.0801,357.7812
16:51:41:454,0.6884,2.408,10.7932,39.3842,-0.0669,-0.5816,0.0096,357.8906
16:51:41:476,0.479,2.1338,9.0203,38.7954,-0.5333,-0.3899,0.1814,358.0469
16:51:41:502,-0.031,0.2209,9.3052,40.2189,-1.1224,-0.3899,0.3902,358.1406
16:51:41:521,0.7878,-1.1139,11.7916,39.7412,-1.2534,-0.4764,0.3905,358.1094
16:51:41:536,1.9921,-1.2061,13.7213,40.4416,-0.7881,-0.5385,0.0855,357.8594
16:51:41:556,1.8915,-1.327,13.5741,39.7997,-0.0946,-0.4725,-0.2671,357.4688
16:51:41:629,0.8932,-1.4694,11.8813,40.3344,0.3102,-0.1119,-0.3824,357.2812
16:51:41:630,0.2575,-1.0876,10.3203,39.3013,0.3925,0.3233,-0.2817,357.4531
16:51:41:630,0.0612,-0.6363,9.3974,40.5338,0.3754,0.5513,-0.1219,357.8594
16:51:41:642,0.1964,-0.2089,8.7126,39.956,0.3837,0.4938,0.0067,358.2188
16:51:41:654,0.5963,0.4375,7.8758,39.8782,0.3858,0.2991,0.0789,358.375
16:51:41:676,0.9841,1.2899,6.8116,40.9027,0.2785,0.0578,0.126,358.3906
16:51:41:701,0.8465,1.9962,5.4194,41.2257,-0.0049,-0.1199,0.2507,358.2812
16:51:41:717,1.3157,1.9232,6.6153,40.0703,-0.4006,-0.1984,0.4794,358.1406
16:51:41:736,2.0148,1.5927,8.3667,40.0662,-0.6544,-0.2325,0.673,357.9375
16:51:41:755,2.623,1.2767,9.2741,40.4969,-0.6193,-0.2408,0.7058,357.5625
16:51:41:775,2.8169,0.9355,9.3207,41.0517,-0.4433,-0.2876,0.5785,356.9219
16:51:41:799,2.4757,0.5836,9.0454,41.752,-0.3072,-0.379,0.346,356.2188
16:51:41:816,1.9047,0.3645,9.1412,41.1524,-0.3064,-0.457,0.1332,355.5
16:51:41:835,1.5564,0.3059,9.9349,40.5239,-0.3868,-0.4693,0.0195,355.0156
16:51:41:861,1.5061,0.3298,10.7154,41.854,-0.3588,-0.4533,-0.0058,354.7969
16:51:41:874,1.7934,0.5249,10.4245,39.7313,-0.1301,-0.3912,0.0091,354.7656
16:51:41:895,2.0986,0.9751,9.2836,40.5579,0.1275,-0.3377,-0.005,354.8125
16:51:41:920,2.1812,1.3892,8.217,40.3069,0.1554,-0.2309,-0.0593,354.8438
16:51:41:938,2.1465,1.3976,8.3295,39.818,-0.1098,-0.085,-0.091,354.8438
16:51:41:956,2.204,0.7727,9.9325,40.8916,-0.4797,0.0019,-0.0974,354.8594
16:51:41:975,2.7259,0.1287,12.2345,40.2851,-0.6752,0.0032,-0.136,354.9375
16:51:42:000,2.9665,0.0042,13.7237,41.1667,-0.5274,-0.1422,-0.3113,355.0781
16:51:42:018,2.781,0.6806,13.0964,38.5427,-0.0768,-0.4546,-0.5286,355.2812
16:51:42:035,1.7575,0.264,11.0721,41.3288,0.2529,-0.5654,-0.5446,355.5781
16:51:42:056,0.9243,-1.4611,11.3857,40.1903,0.0468,-0.1164,-0.3198,356.0938
16:51:42:075,2.0603,-1.7292,13.7357,39.9554,-0.1886,0.1888,0.016,356.7188
16:51:42:100,3.3855,-1.1714,14.0505,40.5993,0.1778,0.2495,0.1148,357.2031
16:51:42:117,3.0455,-0.3729,11.4133,40.0837,0.9821,0.2125,-0.14,357.3906
16:51:42:135,1.8353,0.434,7.822,40.5006,1.4915,0.3558,-0.3587,357.2656
16:51:42:155,1.0751,0.9212,6.3064,41.2345,1.1848,0.922,-0.2442,357.1875
16:51:42:175,0.7268,0.7632,6.8763,40.9093,0.5104,1.0983,0.0443,357.3438
16:51:42:201,1.3253,0.2783,8.1715,39.4076,-0.0765,0.8653,0.3884,357.5312
16:51:42:218,2.0675,-0.4387,9.3471,41.4814,-0.4366,0.5404,0.5585,357.4062
16:51:42:235,2.866,-0.8266,9.7302,40.9769,-0.5058,0.1617,0.4863,356.9219
16:51:42:255,3.2407,-0.7057,9.4081,41.077,-0.3383,-0.2266,0.1995,356.3281
16:51:42:275,2.921,-0.1622,8.5977,40.228,-0.0693,-0.3915,-0.1818,355.8125
16:51:42:299,2.1561,0.2544,7.719,41.6741,0.1336,-0.2314,-0.4719,355.625
16:51:42:319,1.0631,0.2831,7.4449,41.8231,0.1949,0.0607,-0.6066,355.8281
16:51:42:335,0.7184,0.5309,7.7849,41.816,0.189,0.3071,-0.5179,356.3594
16:51:42:355,1.0631,0.513,8.2769,39.9891,0.2287,0.4567,-0.3312,357.0312
16:51:42:376,1.4702,0.8182,8.4301,41.5032,0.3456,0.5505,-0.1989,357.6094
16:51:42:400,1.5001,1.1259,8.0853,39.7899,0.4654,0.6099,-0.1443,357.9219
16:51:42:420,1.299,1.1989,7.7346,39.8616,0.246,0.4919,-0.0229,358.0938
16:51:42:436,1.0536,1.3078,7.962,41.3884,-0.0113,0.1702,0.1071,358.2031
16:51:42:454,1.2822,1.558,8.6971,41.1059,-0.2033,-0.188,0.2278,358.2656
16:51:42:479,1.5887,1.5509,9.4608,41.0947,-0.2941,-0.4783,0.2906,358.1094
16:51:42:502,1.7814,1.394,9.7733,41.2257,-0.3732,-0.6791,0.3154,358.1094
16:51:42:517,1.8772,1.1905,9.8223,41.4359,-0.4853,-0.9148,0.3274,357.8906
16:51:42:538,2.0148,0.993,9.9815,40.6002,-0.5937,-1.1657,0.3338,357.5938
16:51:42:559,2.1752,0.8302,10.4903,41.5277,-0.6462,-1.1984,0.346,357.2969
16:51:42:573,2.6014,0.6925,11.2816,40.9623,-0.5825,-1.0256,0.2922,356.9844
16:51:42:596,3.0288,0.829,12.2824,41.2319,-0.353,-0.7769,0.1574,356.7188
16:51:42:619,2.9606,1.4024,12.414,41.3406,-0.1554,-0.4413,0.0877,356.4219
16:51:42:639,2.1765,0.9571,11.6922,41.2411,-0.2044,-0.1739,0.1758,356.1719
16:51:42:654,1.627,-0.2879,11.8023,41.2978,-0.3285,-0.2354,0.3284,356.0625
16:51:42:675,1.9538,-1.1139,13.106,39.4183,-0.2211,-0.4338,0.3617,355.9844
16:51:42:699,2.6158,-1.2576,14.017,42.7635,0.1754,-0.481,0.2365,355.8125
16:51:42:719,2.5631,-1.3354,13.2005,41.3402,0.5682,-0.2527,0.1106,355.5
16:51:42:735,2.0711,-1.4994,11.3941,40.9467,0.6806,0.1313,0.0813,355.1094
16:51:42:755,1.7156,-1.5377,10.2629,41.9247,0.5943,0.3513,0.0938,354.8281
16:51:42:776,1.5264,-1.3186,9.8331,43.3706,0.4985,0.3358,0.0903,354.4219
16:51:42:802,1.2774,-1.1019,9.4225,42.7134,0.4561,0.1976,0.0821,354.3281
16:51:42:818,1.2212,-0.7907,8.8371,40.3332,0.4796,-0.0027,0.0648,354.1406
16:51:42:836,1.4486,-0.1131,8.0482,41.7257,0.5475,-0.1984,0.0291,353.9688
16:51:42:855,1.6665,0.6434,6.923,40.6954,0.5581,-0.2711,0.0011,353.8125
16:51:42:876,1.6749,1.1331,5.7618,40.5338,0.401,-0.143,0.0214,353.7031
16:51:42:899,1.682,1.3869,5.3955,42.4515,0.1573,0.0706,0.0784,353.625
16:51:42:917,1.6545,1.5245,6.0431,40.9112,-0.0126,0.285,0.1479,353.5625
16:51:42:934,1.7539,1.6239,6.8296,43.0782,-0.0829,0.4232,0.1923,353.4688
16:51:42:956,1.8472,1.5533,7.482,42.1587,-0.1274,0.489,0.2107,353.3125
16:51:42:976,1.7874,1.4742,8.3619,43.0422,-0.1266,0.4466,0.2366,353.1094
16:51:43:000,1.8472,1.4072,9.0801,41.5807,-0.0792,0.2847,0.2794,352.875
16:51:43:017,2.1597,1.2061,9.5745,41.5807,-0.0251,0.1121,0.2762,352.6094
16:51:43:035,2.5452,1.0612,10.0091,40.0731,0.046,-0.0533,0.2121,352.3125
16:51:43:055,3.1198,1.4611,10.1408,40.8923,0.075,-0.1361,0.085,352
16:51:43:075,3.4633,1.8382,10.1994,40.9673,0.0476,-0.1798,-0.1081,351.7031
16:51:43:100,3.3185,2.0105,10.4089,41.0633,0.0098,-0.1894,-0.2833,351.5312
16:51:43:117,2.3213,2.305,11.2912,40.2342,-0.0145,-0.1417,-0.3853,351.5312
16:51:43:136,2.1585,2.3062,11.6695,41.3329,0.0172,-0.098,-0.3701,351.7656
16:51:43:154,2.6481,2.742,11.5198,41.0148,0.1198,-0.1675,-0.2742,352.1719
16:51:43:177,2.6876,2.5337,10.6902,42.4551,0.1965,-0.1792,-0.1677,352.625
16:51:43:203,1.949,0.6004,10.1671,40.7779,0.0404,0.1968,-0.0511,352.9844
16:51:43:219,2.1681,-0.8733,11.9663,41.703,-0.3564,0.6647,0.1356,353.2188
16:51:43:237,3.0419,-1.0624,13.8829,41.1943,-0.4507,0.727,0.2097,353.3281
16:51:43:253,3.7937,-0.5668,13.6997,40.5152,0.0391,0.5153,0.0517,353.1875
16:51:43:274,3.4777,-0.1,11.2026,41.291,0.7714,0.2495,-0.348,352.9688
16:51:43:294,2.1513,0.2999,8.5175,41.6404,1.1339,0.1603,-0.7462,352.875
16:51:43:319,1.0607,0.6482,7.057,40.0815,0.8862,0.3396,-0.8375,353.1719
16:51:43:335,0.5113,0.6195,7.1408,40.1618,0.3674,0.4181,-0.6652,353.8906
16:51:43:355,0.5233,0.3717,7.7597,41.314,-0.0329,0.1909,-0.421,354.7344
16:51:43:378,1.1254,0.2316,8.1153,41.0082,-0.2534,0.0083,-0.2111,355.1094
16:51:43:402,1.3552,0.167,8.1093,41.1783,-0.2869,-0.2109,-0.1491,355.6562
16:51:43:417,1.2918,0.2041,7.8028,39.9816,-0.2217,-0.3851,-0.2032,356.0156
16:51:43:437,1.2643,0.3358,7.4377,41.1421,-0.1402,-0.5105,-0.2532,356.2344
16:51:43:455,1.4115,0.7057,7.2761,41.3002,-0.0941,-0.5113,-0.25,356.4531
16:51:43:475,1.4007,1.1881,7.1229,40.6102,-0.0494,-0.3864,-0.2247,356.7812
16:51:43:500,1.1565,1.4814,6.9074,40.7785,-0.0414,-0.138,-0.164,357.1406
16:51:43:521,1.0344,1.5533,7.1277,39.9997,-0.134,0.1284,-0.017,357.4375
16:51:43:538,1.3049,1.576,7.7968,39.7525,-0.2363,0.3356,0.1859,357.6875
16:51:43:554,1.9669,1.7208,8.2302,41.2277,-0.2598,0.4733,0.3638,357.8125
16:51:43:575,2.4506,1.9243,8.5486,39.9701,-0.2544,0.5297,0.4395,357.7188
16:51:43:600,2.8073,2.1267,8.8934,39.769,-0.2752,0.5324,0.4243,357.4062
16:51:43:619,3.0551,2.3792,9.3962,41.2504,-0.3165,0.4919,0.3575,356.9219
16:51:43:635,3.0108,2.3469,9.9049,41.4357,-0.3426,0.3854,0.256,356.4062
16:51:43:721,2.8947,2.1949,10.3586,39.7197,-0.3612,0.2471,0.1665,355.7812
16:51:43:721,2.9222,2.1518,10.8051,41.4045,-0.3695,0.0916,0.1132,355.5
16:51:43:722,2.848,1.8944,11.0793,39.801,-0.3572,-0.0341,0.0712,355.3125
16:51:43:722,2.6493,1.5125,11.5222,39.5019,-0.3631,-0.0983,0.0371,355.2188
16:51:43:735,2.5655,1.1079,12.3039,43.3744,-0.3628,-0.1377,0.023,355.1719
16:51:43:755,2.6278,0.6722,13.0246,40.5736,-0.2755,-0.1795,0.0049,355.1562
16:51:43:775,2.8612,0.6817,13.3669,41.4045,-0.0728,-0.1707,-0.0759,355.1875
16:51:43:801,2.5715,1.005,12.7397,40.9516,0.3632,-0.1427,-0.4141,355.2812
16:51:43:817,1.3792,0.3825,11.3498,39.5933,0.2612,-0.2623,-0.4178,355.2812
16:51:43:834,0.5855,-0.4723,10.6866,41.4021,0.0609,-0.441,-0.3158,355.5469
16:51:43:859,0.6166,-1.0708,11.2206,40.552,0.0684,-0.4711,-0.2559,355.9844
16:51:43:873,1.0224,-1.0445,11.4588,40.9901,0.3243,-0.3329,-0.282,356.4531
16:51:43:893,0.9698,-0.8218,10.5573,41.1675,0.5213,-0.0453,-0.2817,356.8125
16:51:43:916,0.6549,-0.738,9.0394,41.0287,0.4218,0.2461,-0.196,357.1094
16:51:43:935,0.5616,-0.6147,8.0925,41.9439,0.1371,0.3206,-0.0945,357.4219
16:51:43:954,0.7076,-0.4172,7.968,41.7048,-0.1037,0.1707,-0.0546,357.6875
16:51:43:974,1.1026,-0.0054,8.1105,42.4581,-0.1884,-0.0487,-0.0764,357.8594
16:51:43:994,1.5492,0.5225,7.9764,42.2811,-0.1671,-0.273,-0.1648,357.9219
16:51:44:019,1.7108,1.0229,7.3503,40.0669,-0.1463,-0.485,-0.2356,357.9844
16:51:44:036,1.6904,1.4347,6.6428,40.5609,-0.2321,-0.5247,-0.2197,358.0938
16:51:44:054,1.9035,1.7723,6.3304,41.8743,-0.4195,-0.4253,-0.1763,358.2969
16:51:44:073,2.0891,1.813,6.9134,40.7838,-0.561,-0.2541,-0.1643,358.9219
16:51:44:093,2.1333,1.7173,8.3882,41.2558,-0.5008,-0.033,-0.1837,359.0625
16:51:44:119,2.2387,1.8549,9.5626,41.6253,-0.2464,0.1534,-0.2647,359.3125
16:51:44:136,1.6593,1.7077,9.7373,42.9303,-0.0139,0.2871,-0.2948,359.7031
16:51:44:154,0.8345,1.4467,9.2944,40.5052,0.0226,0.3121,-0.192,359.8594
16:51:44:176,0.6873,1.2552,9.4225,41.4675,-0.0339,0.1891,-0.0732,0.1875
16:51:44:201,1.2331,1.0732,10.2976,40.2091,0.0484,0.0495,-0.0727,0.4688
16:51:44:219,1.8448,1.0373,10.9811,41.3185,0.3022,0.0562,-0.1994,0.5938
16:51:44:235,2.3225,1.3761,10.7285,40.2091,0.5014,0.1784,-0.3968,0.6562
16:51:44:253,2.3584,1.8382,9.9085,38.7902,0.4633,0.2961,-0.5712,0.7812
16:51:44:274,1.9191,2.0824,9.3997,39.8544,0.2242,0.338,-0.6359,1.0625
16:51:44:294,1.6461,2.3098,9.7481,40.1673,-0.0419,0.2844,-0.6175,1.5625
16:51:44:319,1.7455,2.3852,10.701,40.3715,-0.1708,0.2064,-0.6077,2.1875
16:51:44:335,1.8448,2.4583,11.2924,40.4083,-0.2025,0.2069,-0.6077,2.8906
16:51:44:354,0.8357,1.5903,11.0601,39.8515,-0.3868,0.4365,-0.462,3.5781
16:51:44:377,0.2958,0.4818,11.9125,41.4612,-0.4638,0.5297,-0.2101,4.25
16:51:44:402,0.9458,0.0138,12.942,40.6832,-0.1562,0.3678,-0.0884,4.9062
16:51:44:418,1.8161,-0.0102,12.4883,38.5841,0.2369,0.2397,-0.0892,5.2812
16:51:44:436,2.2064,-0.1059,10.6615,39.1336,0.2859,0.3934,-0.1427,5.4375
16:51:44:454,2.1357,-0.1323,9.5973,39.9077,0.0377,0.6296,-0.1504,5.5
16:51:44:476,1.8185,-0.0401,9.8247,40.1751,-0.1306,0.6043,-0.1179,5.6094
16:51:44:502,1.3409,-0.1646,10.3682,41.6815,-0.1013,0.4008,-0.0106,5.7344
16:51:44:519,1.4366,-0.4016,9.2884,40.4435,0.0356,0.1047,0.06,5.875
16:51:44:536,1.7192,-0.2628,8.4445,40.6823,0.1011,-0.1001,0.0562,5.9062
16:51:44:554,1.8628,0.0928,8.5187,39.6728,0.0063,-0.1281,0.0083,5.875
16:51:44:572,1.6904,0.3992,8.8419,40.5908,-0.0241,-0.1063,-0.0785,5.7969
16:51:44:592,1.5863,0.7356,8.7557,40.4393,0.1493,-0.0788,-0.1264,5.7656
16:51:44:618,1.6006,1.1343,7.9896,40.4727,0.4159,0.1233,-0.1243,5.8125
16:51:44:636,1.5396,1.4659,6.9409,38.0673,0.5821,0.4117,-0.1486,5.9375
16:51:44:652,1.3062,1.6382,6.492,39.5502,0.5187,0.5531,-0.2069,6.0625
16:51:44:673,1.0404,1.6562,6.7003,38.7506,0.2883,0.5047,-0.2532,6.1719
16:51:44:694,0.6968,1.6418,7.6053,40.5326,0.0148,0.3257,-0.2684,6.3281
16:51:44:718,0.3365,1.6167,8.8024,41.0459,-0.2065,0.1992,-0.2194,6.5156
16:51:44:736,0.4742,1.4623,9.9013,39.0394,-0.293,0.0991,-0.1051,6.7969
16:51:44:753,1.1649,0.999,11.1571,40.4347,-0.2259,-0.0879,0.0035,7.0625
16:51:44:774,1.4247,0.7236,12.2584,40.9705,0.0383,-0.3156,-0.0231,7.25
16:51:44:794,1.1218,1.0181,12.1315,39.2455,0.4375,-0.3246,-0.0881,7.2969
16:51:44:820,0.692,1.1498,11.0553,40.7548,0.7009,-0.0274,-0.0548,7.2969
16:51:44:837,0.3808,1.3354,10.4628,41.0343,0.6955,0.0914,0.0296,7.3906
16:51:44:855,0.443,1.5832,10.2329,38.6663,0.5491,-0.1103,0.167,7.4844
16:51:44:873,0.698,1.6634,10.0462,40.1233,0.3765,-0.3795,0.2738,7.4844
16:51:44:894,0.8118,1.5437,10.6639,39.1316,0.1677,-0.4152,0.2557,7.3594
16:51:44:917,0.5352,1.9794,11.26,40.108,0.0327,-0.3475,0.1212,7.1094
16:51:44:935,0.1174,1.8298,10.3886,39.4055,0.0329,-0.3553,0.072,6.8125
16:51:44:953,0.0013,1.084,9.3219,39.4055,-0.0651,-0.5513,0.1239,6.5938
16:51:44:973,0.692,0.7799,9.5901,42.5249,-0.3399,-0.8637,0.2086,6.5625
16:51:44:995,1.2247,0.9715,10.5645,38.7547,-0.5426,-1.1124,0.1822,6.4688
16:51:45:019,1.1793,1.0936,10.7645,41.4482,-0.4832,-1.0674,0.118,6.3438
16:51:45:033,0.9722,0.7644,9.9049,39.9181,-0.3125,-0.7484,0.166,6.2656
16:51:45:055,1.226,0.2149,9.4728,40.0587,-0.2858,-0.4613,0.3452,6.2656
16:51:45:072,1.87,-0.2412,9.8786,39.3592,-0.3743,-0.3499,0.5268,6.1562
16:51:45:093,2.538,-0.3573,10.4305,41.1229,-0.3639,-0.2876,0.5721,5.8281
16:51:45:114,3.0419,0.0892,10.5059,38.3589,-0.1479,-0.1678,0.4523,5.3281
16:51:45:132,2.8755,0.7428,9.8176,39.1038,0.2183,-0.0682,0.2083,4.7344
16:51:45:154,2.1932,1.3031,8.5259,39.338,0.5783,-0.0967,-0.0095,4.2344
16:51:45:173,1.2978,1.6406,7.2737,39.8618,0.7797,-0.2642,0.0203,3.9375
16:51:45:195,1.1745,2.2248,6.5267,38.8296,0.6684,-0.3164,0.2009,3.9688
16:51:45:216,1.1829,2.4068,6.1628,40.4556,0.4971,-0.2338,0.3593,3.875
16:51:45:235,1.0464,2.3733,6.17,39.0111,0.2787,-0.0179,0.5132,3.875
16:51:45:257,1.305,2.4666,6.8392,39.1908,0.1299,0.1886,0.6115,3.1562
16:51:45:273,1.4235,2.3086,7.9848,36.9213,0.1155,0.4021,0.6443,3.1562
16:51:45:294,1.6593,2.1602,8.9652,40.8614,0.2473,0.5579,0.6094,2.5312
16:51:45:317,1.9717,2.2141,9.5207,37.9024,0.45,0.6551,0.4946,1.8438
16:51:45:337,2.113,2.4882,9.3435,39.0069,0.5642,0.6735,0.3652,1.0469
16:51:45:353,2.2626,2.8365,8.6899,39.8348,0.451,0.5369,0.2352,0.25
16:51:45:378,2.2997,3.1382,8.4971,38.5008,0.1983,0.2719,0.1124,359.0469
16:51:45:392,2.3369,3.3154,8.9257,40.4426,-0.0355,-0.0125,0.0011,358.6719
16:51:45:413,2.5703,3.4554,9.6128,38.6041,-0.1215,-0.2314,-0.1331,358.5625
16:51:45:444,2.7307,3.5201,10.0007,37.0242,-0.0672,-0.3087,-0.2777,358.5781
16:51:45:452,2.9953,3.7715,9.8702,39.6386,0.0388,-0.3004,-0.4143,358.5781
16:51:45:473,2.9222,4.5065,9.6966,39.3032,0.1227,-0.1601,-0.4298,358.8438
16:51:45:493,1.0392,3.7966,8.5941,38.5706,-0.2025,0.4836,-0.1073,359.2969
16:51:45:521,0.2383,1.6765,8.3858,38.6378,-0.9769,0.942,0.4126,359.7969
16:51:45:536,0.9745,0.1706,12.9312,39.3032,-1.1905,1.0583,0.6738,0.1562
16:51:45:552,2.0687,-0.1095,17.0851,37.6737,-0.5101,1.0029,0.6784,359.9219
16:51:45:573,2.4266,-0.1562,15.7923,38.9656,0.3781,0.2256,0.4533,359.2969
16:51:45:593,2.3189,0.0042,12.8881,39.074,0.6958,-0.138,0.2483,358.4688
16:51:45:620,2.0843,0.6243,10.1216,38.2668,0.4428,-0.1015,0.1806,358.0625
16:51:45:636,1.7024,0.6937,9.0849,37.5959,0.0601,-0.2661,0.1702,357.5
16:51:45:653,1.4091,0.7009,9.4979,38.9654,-0.105,-0.5159,0.2301,357.2031
16:51:45:672,1.6449,0.9164,9.9624,39.3131,0.0196,-0.7223,0.2424,356.9688
16:51:45:693,1.8305,0.9248,9.6284,38.6358,0.2961,-0.8362,0.1926,356.7969
16:51:45:718,2.1034,1.0181,8.4241,39.6477,0.4899,-0.8826,0.0981,356.5938
16:51:45:737,1.9741,1.0708,7.2629,39.1111,0.4921,-0.7428,0.0416,356.3906
16:51:45:813,1.7838,1.2336,6.6464,38.271,0.3909,-0.4786,0.0725,356.2344
16:51:45:814,2.0292,1.6239,6.6033,38.0802,0.304,-0.2229,0.1066,356.1562
16:51:45:814,2.3009,2.0704,6.6237,39.7529,0.234,-0.0032,0.1148,356.1406
16:51:45:815,2.3213,2.3098,6.4477,37.9588,0.0929,0.1521,0.13,356.0625
16:51:45:833,2.1549,2.402,6.5363,38.8371,-0.1325,0.187,0.1867,355.8438
16:51:45:853,1.7814,2.2835,6.9182,38.1443,-0.3548,0.033,0.3191,355.7031
16:51:45:873,1.8221,2.2236,7.8746,37.4198,-0.4653,-0.1912,0.4906,355.5
16:51:45:895,2.3081,2.2488,8.97,38.3511,-0.3737,-0.3867,0.6001,355.2344
16:51:45:918,2.8815,2.3062,9.5195,39.2525,-0.186,-0.5108,0.6174,354.8594
16:51:45:936,3.4394,2.4319,9.3567,39.1409,-0.0406,-0.5252,0.6051,354.3125
16:51:45:957,3.6369,2.2871,9.4249,37.8913,-0.0078,-0.4269,0.6059,353.6875
16:51:45:972,3.747,1.746,10.1527,37.7456,-0.104,-0.2027,0.6001,353.0938
16:51:45:993,4.1648,1.5508,10.9955,38.875,-0.1799,0.0218,0.5548,352.4531
16:51:46:018,4.7801,1.7723,11.8179,38.6901,-0.1807,0.1582,0.4198,351.7969
16:51:46:036,5.0555,1.8681,12.0645,38.6888,-0.1101,0.2759,0.1548,351.1562
16:51:46:053,4.8113,2.1267,11.849,39.4279,-0.08,0.326,-0.2253,350.625
16:51:46:072,3.7279,1.7364,11.0458,40.1387,-0.1703,0.2072,-0.5523,350.2969
16:51:46:092,2.7092,0.398,10.6519,38.2599,-0.4398,-0.0591,-0.6652,350.3125
16:51:46:118,2.7522,-0.6183,11.4899,36.3338,-0.7468,-0.387,-0.6175,350.7344
16:51:46:136,3.261,-0.6339,12.1088,37.725,-0.7351,-0.5436,-0.6127,351.5
16:51:46:152,2.6828,-0.1263,11.4504,37.6565,-0.3269,-0.3382,-0.7728,352.3594
16:51:46:172,0.9925,0.4627,9.4847,37.7155,0.1472,0.1198,-0.9201,353.2031
16:51:46:193,0.3221,1.2205,7.5538,36.8243,0.2878,0.4778,-0.7041,354.0469
16:51:46:221,-0.104,0.8829,6.9876,37.4967,0.0249,0.5452,-0.2905,355.0625
16:51:46:237,-0.2369,-0.1682,7.3958,40.0076,-0.3141,0.2804,0.1295,355.9844
16:51:46:253,1.1912,0.0317,8.132,39.6116,-0.5546,0.1633,0.5119,356.5625
16:51:46:273,2.4075,0.738,8.6983,39.431,-0.5993,0.1028,0.5955,356.4375
16:51:46:292,2.945,1.4934,8.63,39.8301,-0.4917,0.0415,0.4041,355.9062
16:51:46:313,3.0635,2.0548,8.7952,38.7245,-0.3953,-0.1265,0.1337,355.3281
16:51:46:333,2.1082,2.068,9.377,39.5575,-0.2717,-0.4464,-0.1411,354.9375
16:51:46:352,1.9334,2.3266,9.3902,39.7472,-0.0957,-0.5031,-0.1856,354.8438
16:51:46:373,1.7958,2.0273,9.8247,37.3689,0.0726,-0.5697,-0.0719,355.0469
16:51:46:392,2.2159,1.801,10.4987,39.0492,0.2545,-0.6458,0.0621,355.2969
16:51:46:412,2.2016,1.4874,9.8439,38.9441,0.5618,-0.7167,0.1385,355.4062
16:51:46:435,1.9753,1.5078,8.399,38.0652,0.7957,-0.633,0.1785,355.3281
16:51:46:461,2.0974,1.8669,7.7154,37.4995,0.7669,-0.4682,0.2475,355.1094
16:51:46:471,2.0807,2.0584,8.4433,38.4225,0.6215,-0.5436,0.3425,354.8125
16:51:46:493,2.6313,2.3912,9.4105,38.4513,0.5805,-0.5606,0.4909,354.4219
16:51:46:519,2.7223,1.9124,7.8938,37.3337,0.6732,-0.3372,0.6477,353.9688
16:51:46:542,4.2929,2.2452,6.6141,38.32,0.4833,-0.416,0.8208,353.3438
16:51:46:560,5.5594,2.1542,7.2569,38.3085,-0.1231,-0.943,0.7854,352.5
16:51:46:572,6.5842,1.9842,9.9839,38.4408,-0.7756,-1.1553,0.5076,351.5469
16:51:46:594,6.9828,1.637,12.0106,39.1561,-0.9516,-0.9422,0.0762,350.75
16:51:46:618,5.6205,1.904,12.1531,37.0341,-0.6251,-0.6852,-0.3744,350.4375
16:51:46:638,4.0355,0.659,10.6615,39.1315,-0.2076,1.2637,-0.1978,350.6562
16:51:46:654,3.8955,-1.248,11.5809,38.9518,-0.0776,2.1665,0.0011,351.25
16:51:46:673,4.7825,-1.1355,14.503,38.9814,0.7334,2.5582,-0.0279,351.25
16:51:46:692,5.3607,-0.0796,13.8051,37.9127,1.7384,2.3135,-0.2636,351.8281
16:51:46:712,4.6221,0.2544,10.1156,39.05,1.8165,2.4605,-0.5193,352.0312
16:51:46:736,3.5411,0.6722,7.2198,39.238,1.1837,2.7955,-0.6442,351.6719
16:51:46:753,3.3137,1.2348,5.569,39.6137,0.2979,2.4741,-0.6615,351.5
16:51:46:772,2.7199,1.3773,5.9485,40.2116,-0.6092,1.7177,-0.7808,351.5938
16:51:46:791,2.7068,0.4447,6.0084,39.3607,-1.3722,-1.0538,-0.8343,351.875
16:51:46:812,3.6776,-0.3513,8.8383,37.3779,-1.4853,-4.0648,-0.9275,352.625
16:51:46:836,4.0224,1.236,12.6942,39.6803,-1.01,-4.0115,-1.2847,353.4844
16:51:46:851,4.9178,1.0995,10.962,39.4271,-0.2257,-3.7902,-1.5963,354.8438
16:51:46:872,2.5284,0.7201,8.8072,38.2387,0.2108,-2.8102,-1.494,356.5781
16:51:46:892,0.5496,1.2408,7.0163,38.2387,0.3522,-1.3316,-0.8993,358.6719
16:51:46:912,0.8249,2.2954,7.1767,38.1743,0.5115,0.0115,-0.1579,0.6875
16:51:46:934,2.2231,2.2643,7.4712,37.141,0.7262,0.8306,0.3111,2.2344
16:51:46:953,3.7662,1.9291,7.0427,37.3097,0.7738,1.1294,0.3513,2.7969
16:51:46:972,3.8189,1.9136,6.0072,36.9637,0.52,0.9145,0.2443,2.4844
16:51:46:993,2.6577,2.3002,5.6792,38.1811,0.0801,0.4709,0.3263,2.125
16:51:47:018,2.1166,2.0788,7.1923,37.1117,-0.1511,0.3665,0.5782,1.4219
16:51:47:036,2.8708,1.5724,9.0418,37.456,-0.0259,0.5965,0.7812,0.9219
16:51:47:051,4.8328,0.9176,7.8794,38.3796,-0.1162,0.3933,0.6041,0.5
16:51:47:076,5.5571,1.9471,7.5538,37.8928,-0.4853,0.2722,0.2304,359.8281
16:51:47:095,4.6125,2.0536,7.9477,37.8692,-1.1269,0.6061,-0.0039,358.875
16:51:47:117,2.7367,1.1606,8.3702,39.2214,-1.8387,1.0357,-0.0106,358.1562
16:51:47:134,2.0783,0.2233,9.4692,37.4093,-2.3149,1.2951,0.0991,357.9688
16:51:47:152,2.3093,0.2819,12.3111,38.4938,-2.2254,1.5002,0.0911,358.1094
16:51:47:172,1.6378,0.8326,15.086,37.734,-1.4385,1.6517,0.0523,358.3438
16:51:47:192,0.4083,-0.3849,15.2823,37.3157,-0.395,1.7297,0.2717,358.5
16:51:47:213,0.6956,0.082,13.3538,40.6563,0.2766,1.7217,0.5985,358.6406
16:51:47:233,0.6573,-0.1035,9.4919,40.3326,0.1056,1.1848,0.8845,358.75
16:51:47:252,2.1082,0.1754,8.6755,38.2058,-0.4576,0.4791,0.718,358.4844
16:51:47:272,3.0479,-0.076,10.1384,40.4421,-0.7628,-0.188,0.1742,357.2812
16:51:47:292,2.8013,-1.0074,11.2924,37.0892,-0.6981,-1.0352,-0.3781,356.2812
16:51:47:312,1.6569,-1.5616,11.5438,37.5169,-0.496,-1.7851,-0.6881,355.8125
16:51:47:335,1.1589,-2.1458,11.0087,39.9649,-0.3607,-2.305,-0.7472,355.9688
16:51:47:353,1.451,-2.129,10.9955,38.7019,-0.293,-2.3769,-0.6391,356.6406
16:51:47:372,1.0081,-1.9207,10.8937,37.4928,-0.2009,-1.8165,-0.4386,357.4375
16:51:47:392,0.4825,-2.1266,9.8499,37.5558,-0.0627,-0.8133,-0.0993,358.2188
16:51:47:414,0.7507,-1.3701,9.2501,37.7635,0.0545,-0.0514,0.3692,358.8281
16:51:47:435,2.0424,-1.2564,8.2218,37.7697,0.1254,0.3316,0.8006,359.1406
16:51:47:453,2.0759,-1.3761,6.5267,39.0887,0.0819,0.5694,0.9676,358.9844
16:51:47:471,1.7742,-0.5536,6.0084,38.5648,-0.1871,0.9731,0.9569,358.2812
16:51:47:491,2.8899,0.4507,7.549,39.3727,-0.6033,1.2978,0.962,357.2188
16:51:47:511,3.6405,1.7173,9.0406,37.885,-0.761,1.1633,0.729,356.1875
16:51:47:534,4.4976,1.8202,10.4041,38.3661,-0.5133,0.5151,0.3444,355.1875
16:51:47:553,4.0559,0.4794,9.693,37.2392,-0.0132,-0.0919,-0.1944,354.3281
16:51:47:572,2.9115,-0.2256,8.624,39.0215,0.3568,-0.5529,-0.7398,353.8438
16:51:47:594,2.3369,0.0269,8.4624,38.8876,0.4585,-0.6453,-1.0644,353.7812
16:51:47:619,1.8377,0.3502,8.7174,35.7692,0.4529,-0.6493,-1.1624,354.2969
16:51:47:638,1.4486,0.5537,9.128,35.9981,0.364,-0.5768,-1.0498,355.2812
16:51:47:652,1.7599,1.0433,9.8546,37.76,0.259,-0.4666,-0.7699,356.4219
16:51:47:672,2.2902,1.2085,10.3706,37.5989,0.1991,-0.3204,-0.4367,357.6406
16:51:47:692,2.5104,0.5237,10.4376,39.522,0.0987,-0.0786,-0.1978,358.6406
16:51:47:712,3.0946,0.1083,11.0817,38.1,-0.0707,0.1145,-0.131,359.25
16:51:47:737,4.075,0.3573,11.4217,37.7847,-0.121,-0.0477,-0.2862,359.5625
16:51:47:754,4.1696,0.1024,10.6783,36.9365,-0.0914,-0.4586,-0.5725,359.7188
16:51:47:772,3.6345,-1.2899,9.7972,37.4396,-0.3066,-0.6661,-0.7574,359.9375
16:51:47:792,3.0551,-2.5013,10.5406,39.6249,-0.7666,-0.4352,-0.8207,0.4219
16:51:47:812,2.7846,-2.3421,12.28,36.822,-0.8454,-0.2024,-0.8173,1.6875
16:51:47:838,1.9753,-2.0333,11.8586,36.4559,-0.2512,-0.3249,-0.7246,2.75
16:51:47:930,1.7108,-1.8382,10.2246,36.9402,0.3933,-0.5435,-0.3773,3.7656
16:51:47:931,2.0603,-1.7256,9.0191,38.6032,0.5927,-0.5294,0.162,4.625
16:51:47:931,3.0084,-1.9974,8.7222,36.3527,0.4212,-0.2807,0.721,4.9688
16:51:47:931,3.9194,-2.1195,9.0083,37.7635,0.1597,0.1603,1.1189,4.6719
16:51:47:945,3.8703,-2.0931,8.9066,38.6132,0.0819,0.5222,1.2089,3.7656
16:51:47:951,3.4286,-1.8633,8.3128,38.5463,0.2436,0.5867,1.0659,3.7656
16:51:47:972,3.3951,-1.0002,7.8962,37.5774,0.4875,0.4381,0.8427,1.1406
16:51:47:992,3.3915,-0.4112,7.1121,37.9243,0.8114,0.0858,0.6123,359.8906
16:51:48:021,3.6956,0.0688,6.3675,38.305,0.9951,-0.1926,0.4392,358.8594
16:51:48:039,4.2845,0.6375,6.2909,39.4686,0.6622,-0.183,0.1758,358.0156
16:51:48:056,4.828,1.1666,6.6213,36.6621,0.3799,-0.081,0.0198,357.375
16:51:48:073,4.8089,1.2911,6.8882,37.7971,0.0811,0.0216,-0.1033,356.8594
16:51:48:094,4.3216,1.0636,7.3647,38.7794,-0.1386,0.0426,-0.177,356.5312
16:51:48:110,3.7889,0.5273,7.7585,36.619,-0.2539,-0.0352,-0.1954,356.4531
16:51:48:131,3.5196,0.2819,8.3595,38.5836,-0.2318,-0.1135,-0.1539,356.5469
16:51:48:154,3.6381,0.1993,9.0418,39.9318,-0.0851,-0.1771,-0.0687,356.7812
16:51:48:171,3.9518,0.1742,9.6344,37.1328,0.0734,-0.1942,0.0307,357.0469
16:51:48:194,4.2857,0.3813,9.9085,38.4007,0.1728,-0.1537,0.1308,357.25
16:51:48:219,4.4258,0.3873,9.9863,37.9784,0.144,-0.0631,0.2174,357.3438
16:51:48:236,4.7143,0.343,10.2497,38.8296,0.0649,0.0179,0.235,357.2969
16:51:48:252,4.925,0.4495,10.4317,37.2478,-0.0305,0.167,0.2001,357.125
16:51:48:270,4.8256,0.3526,10.877,38.944,-0.1029,0.3622,0.1412,356.8594
16:51:48:291,4.4258,0.1933,11.5857,38.0034,-0.0387,0.5113,0.0587,356.5781
16:51:48:311,3.9518,0.2831,12.2201,38.9847,0.1909,0.4703,-0.0047,356.2812
16:51:48:339,3.2933,0.7165,11.9628,38.1026,0.3421,0.2277,0.065,356.1719
16:51:48:357,2.5871,0.5118,10.5609,38.4298,0.0281,0.1017,0.2536,356.1406
16:51:48:372,2.8696,-0.258,9.9528,38.7007,-0.4795,0.1702,0.2845,356.0938
16:51:48:392,3.4382,-0.9176,10.7501,38.7007,-0.6166,0.1228,0.0419,355.8594
16:51:48:411,3.194,-1.5628,11.211,38.4783,-0.4499,-0.0415,-0.2814,355.5469
16:51:48:434,2.1956,-1.9303,10.7944,39.3437,-0.2744,-0.1878,-0.4308,355.4375
16:51:48:452,1.5587,-2.0057,10.1647,38.393,-0.2041,-0.2418,-0.3909,355.6719
16:51:48:471,1.3983,-1.8489,9.4883,39.3353,-0.2134,-0.1752,-0.2591,356.1719
16:51:48:491,1.123,-1.9447,8.7521,37.0067,-0.2206,-0.012,-0.0828,356.6875
16:51:48:512,0.5197,-2.2116,8.6061,39.602,-0.1082,0.0935,0.1479,357.0781
16:51:48:533,0.5891,-2.0979,8.6468,39.8565,0.1831,0.0447,0.3303,357.3281
16:51:48:551,1.1326,-1.5532,8.3367,38.73,0.5203,-0.0818,0.4131,357.3125
16:51:48:575,1.7646,-0.8649,7.713,38.7458,0.7112,-0.1779,0.4155,357.0469
16:51:48:591,2.2399,-0.0772,7.2545,38.5707,0.7363,-0.2069,0.3793,356.5469
16:51:48:612,2.4434,0.5405,7.1301,38.32,0.6444,-0.184,0.3495,355.9531
16:51:48:634,2.5236,1.0864,7.4916,38.0779,0.4961,-0.127,0.3433,355.3594
16:51:48:652,2.5511,1.5054,7.7442,37.7001,0.3152,-0.0762,0.3511,354.8594
16:51:48:672,2.4194,1.6789,7.907,39.8587,0.1032,-0.0549,0.3897,354.3594
16:51:48:691,2.4949,1.6478,8.1596,38.813,-0.1037,-0.0581,0.4097,353.8906
16:51:48:712,2.8097,1.497,8.7342,39.5168,-0.2006,-0.0967,0.3447,353.6562
16:51:48:733,3.4597,1.345,9.5925,40.6083,-0.1447,-0.2176,0.191,353.2188
16:51:48:754,3.783,1.4443,9.8702,39.3056,-0.019,-0.3723,0.0067,352.5781
16:51:48:771,4.0343,1.7639,10.1803,39.0048,0.0758,-0.465,-0.1701,352.2969
16:51:48:791,3.9936,2.0237,10.4089,39.0675,0.1333,-0.5031,-0.287,352.2031
16:51:48:812,4.0044,2.0417,10.5418,39.0675,0.0692,-0.4069,-0.2727,352.2969
16:51:48:836,4.2678,1.6358,10.9608,40.0806,-0.1207,-0.1808,-0.1725,352.5625
16:51:48:853,4.5671,1.2133,11.4815,39.0311,-0.2483,0.0123,-0.1395,352.8594
16:51:48:871,4.7825,1.0433,11.9185,39.6262,-0.1618,0.0021,-0.2623,353.125
16:51:48:891,5.2195,1.2444,11.5557,39.8432,0.0612,-0.2178,-0.4418,353.3125
16:51:48:911,4.9106,0.6494,10.2401,38.8587,0.1168,-0.3204,-0.5613,353.5625
16:51:48:938,4.4833,-0.7404,10.3598,38.9264,-0.2989,0.0407,-0.5589,353.9844
16:51:48:951,4.0619,-1.5975,11.2349,39.8568,-0.5612,0.4391,-0.5781,354.5469
16:51:48:975,3.4825,-1.8477,11.3774,40.6781,-0.2206,0.5076,-0.6524,355.2031
16:51:48:991,3.0013,-1.5185,10.4412,40.1827,0.421,0.3782,-0.613,355.9062
16:51:49:011,2.9845,-0.9451,9.1831,40.2701,0.8497,0.3747,-0.3619,356.7188
16:51:49:035,3.3616,-0.4926,8.1919,39.1583,0.8798,0.5273,0.0166,357.4375
16:51:49:052,3.8847,-0.4052,7.707,38.7334,0.6151,0.7089,0.354,357.875
16:51:49:070,4.1732,-0.5608,7.415,40.5207,0.2556,0.8203,0.4911,357.8906
16:51:49:091,3.9733,-0.6865,7.3228,41.8493,-0.0153,0.7835,0.3873,357.5
16:51:49:111,3.5711,-0.6542,7.2605,41.3343,-0.1087,0.5901,0.1377,356.9062
16:51:49:135,2.9917,-0.4687,7.1229,39.2559,-0.0299,0.3257,-0.1459,356.3125
16:51:49:153,2.5116,-0.1335,7.0977,39.5874,0.1176,0.0458,-0.3422,356
16:51:49:172,2.3692,0.1586,7.2043,40.1585,0.2524,-0.2083,-0.3936,356.0938
16:51:49:191,2.441,0.3705,7.6221,40.2323,0.3347,-0.4296,-0.3496,356.4688
16:51:49:212,3.0958,0.9332,7.968,40.4311,0.4212,-0.6621,-0.2884,356.8906
16:51:49:236,3.6142,1.4491,7.6999,39.683,0.5288,-0.9255,-0.3086,357.2656
16:51:49:253,4.0212,1.8705,7.5981,39.0998,0.4873,-1.0693,-0.376,357.5469
16:51:49:278,4.2199,2.0919,7.9944,39.6985,0.267,-1.0637,-0.4383,358.2656
16:51:49:293,4.1732,2.1686,8.4876,40.4579,0.0114,-0.9825,-0.4615,358.7656
16:51:49:315,4.0547,2.0429,8.9712,40.6806,-0.1593,-0.8844,-0.4063,359.3594
16:51:49:338,4.0822,1.9435,9.3519,39.8326,-0.1295,-0.5782,-0.1273,359.9375
16:51:49:353,4.172,2.0512,9.5661,40.1287,0.0175,-0.3425,0.0384,359.9375
16:51:49:371,4.099,2.0165,9.6128,40.63,0.1272,-0.0639,0.24,0.5469
16:51:49:390,4.1995,2.1314,9.7098,40.4371,0.1853,0.2024,0.4576,0.5312
16:51:49:411,4.2905,2.1183,9.6942,39.3006,0.1749,0.416,0.6443,0.2344
16:51:49:436,4.512,2.0273,9.7768,40.3249,0.1224,0.5459,0.762,359.6719
16:51:49:452,4.6676,1.9327,10.2126,40.244,0.1078,0.591,0.8091,359.6719
16:51:49:470,4.9046,2.2392,10.9356,37.3347,0.1557,0.4831,0.8331,358.8594
16:51:49:490,4.7598,2.6498,10.8243,41.2411,0.0026,0.3065,0.9367,357.9219
16:51:49:510,4.3827,2.1291,9.8714,39.5293,-0.5205,0.2069,1.0848,356.9844
16:51:49:534,4.9573,1.169,9.8367,41.0575,-1.0001,0.1308,1.0158,355.9688
16:51:49:553,5.8073,0.2688,10.6974,41.8152,-1.0632,-0.0024,0.6243,354.875
16:51:49:570,6,-0.2664,11.3367,39.3567,-0.8203,-0.1883,0.0994,353.7344
16:51:49:589,5.0483,-0.7632,11.0961,41.3266,-0.5815,-0.2559,-0.2415,352.8281
16:51:49:610,3.8823,-0.908,10.7525,41.5408,-0.4717,-0.1968,-0.2841,352.3125
16:51:49:636,3.4897,-1.0217,10.1013,40.3824,-0.4731,0.0394,-0.1779,352.5781
16:51:49:653,3.0898,-1.4551,9.5961,42.565,-0.5056,0.4637,-0.037,353.0156
16:51:49:671,2.8349,-1.8393,9.365,39.6119,-0.3998,0.8831,0.0491,353.3906
16:51:49:696,2.4398,-2.0488,9.298,39.5023,-0.0664,1.1587,0.0725,353.6094
16:51:49:720,1.9669,-1.8741,8.8287,41.6281,0.389,1.2493,0.0749,353.7031
16:51:49:736,1.6342,-1.2516,8.1105,43.085,0.7847,1.2567,0.1079,353.6875
16:51:49:755,1.0907,-0.7548,7.2534,41.5189,0.9746,1.3049,0.2091,353.5938
16:51:49:771,0.4825,-0.4315,6.9852,42.6784,0.9528,1.3111,0.3899,353.4062
16:51:49:791,0.5376,0.1395,7.2761,42.4392,0.8612,1.1558,0.4901,353.2656
16:51:49:812,0.892,0.5609,7.4976,42.802,0.768,0.886,0.4272,352.875
16:51:49:837,1.2631,0.9691,7.4198,41.0999,0.6492,0.5721,0.2275,352.2656
16:51:49:854,1.36,1.3988,7.3563,41.3779,0.4766,0.2695,-0.0085,351.6094
16:51:49:871,1.3097,1.8118,7.3659,43.4177,0.2636,-0.0085,-0.2093,351
16:51:49:890,1.2343,2.0692,7.7406,42.1022,0.0481,-0.24,-0.3435,350.6562
16:51:49:910,1.4893,2.4283,8.4492,40.8047,-0.0957,-0.448,-0.4479,350.5938
16:51:49:936,1.779,2.9287,9.2346,42.396,-0.1484,-0.5686,-0.5153,350.8125
16:51:49:999,1.7706,3.24,9.8451,43.0416,-0.206,-0.6147,-0.483,351.2188
16:51:50:000,1.9035,3.5416,10.1539,43.1783,-0.3594,-0.5971,-0.3589,351.7656
16:51:50:000,2.2531,3.556,10.531,41.5702,-0.5855,-0.5111,-0.2165,352.375
16:51:50:012,2.9151,3.3046,11.1763,40.5666,-0.761,-0.4623,-0.1592,352.9688
16:51:50:037,3.7171,3.2388,12.268,42.0443,-0.8592,-0.4402,-0.164,353.6562
16:51:50:052,3.8751,2.7132,12.2022,42.4862,-1.1876,-0.0961,-0.1249,353.9375
16:51:50:070,3.17,0.8817,11.7377,43.9467,-1.5759,0.3918,-0.0849,354.25
16:51:50:091,2.2866,-1.0373,12.1651,43.0241,-1.4781,0.583,-0.103,354.5625
16:51:50:113,1.7479,-2.0524,12.8199,41.1758,-0.7639,0.2937,-0.14,354.8594
16:51:50:137,1.6234,-2.1338,12.6894,42.377,0.1408,-0.2077,-0.0766,355.1875
16:51:50:156,2.9055,-1.1917,9.5578,41.6569,0.5874,-0.4237,0.1138,355.5
16:51:50:178,3.9841,-1.2169,8.7904,42.5304,0.4428,-0.3486,0.3109,355.6875
16:51:50:190,4.658,-1.3689,8.8491,44.091,0.0502,-0.1084,0.3615,355.6094
16:51:50:211,4.4821,-1.7627,8.9556,42.3877,-0.2166,0.0426,0.232,355.2656
16:51:50:240,4.0116,-2.1254,8.812,43.8933,-0.2462,0.0804,0.0251,354.8125
16:51:50:256,3.528,-2.0776,8.5498,42.8667,-0.0842,0.0498,-0.1824,354.5
16:51:50:273,3.0467,-1.8142,8.0494,43.0327,0.1914,-0.004,-0.3238,354.375
16:51:50:290,2.8768,-1.3988,7.5981,41.7702,0.4724,-0.0381,-0.36,354.5
16:51:50:312,2.9773,-0.92,7.2043,43.6973,0.6998,-0.0439,-0.3265,354.7812
16:51:50:337,3.0731,-0.4639,6.9672,42.3587,0.8441,-0.0429,-0.283,355.1406
16:51:50:355,3.273,0.0198,6.905,43.0837,0.8838,-0.0186,-0.2434,355.4531
16:51:50:371,3.4346,0.4567,6.9768,41.1191,0.8183,0.0325,-0.2253,355.6875
16:51:50:390,3.3197,0.823,7.2821,43.0255,0.662,0.1057,-0.2165,355.8594
16:51:50:410,3.0348,1.0433,8.0327,42.8192,0.4295,0.2149,-0.1861,356
16:51:50:436,2.6888,1.1929,8.8251,43.442,0.2228,0.3382,-0.1177,356.1406
16:51:50:456,2.6601,1.4012,9.3662,44.457,0.119,0.3702,-0.0189,356.2969
16:51:50:470,2.9031,1.582,9.8187,43.3216,0.0803,0.3369,0.0578,356.4531
16:51:50:490,2.9151,1.7412,10.3682,42.7787,0.046,0.2927,0.068,356.4531
16:51:50:510,2.7343,1.7807,10.7094,43.0645,0.0268,0.2551,0.0483,356.3594
16:51:50:538,2.3728,1.6993,10.9668,45.5713,0.0436,0.1806,0.0459,356.2656
16:51:50:554,2.2423,1.5712,11.1954,41.7037,0.058,0.0668,0.113,356.2031
16:51:50:571,2.1896,1.3557,11.272,44.871,0.0694,-0.0463,0.2195,356.125
16:51:50:590,2.1585,0.8625,11.3008,42.9717,0.0867,-0.1153,0.3348,356
16:51:50:611,2.2997,0.6375,11.9855,44.6839,0.1714,-0.1651,0.4155,355.7344
16:51:50:637,2.295,1.0828,11.9627,43.583,0.4463,-0.3199,0.4421,355.3594
16:51:50:654,1.9274,1.1726,10.1791,43.8034,0.748,-0.6083,0.5074,354.8906
16:51:50:671,2.6613,0.9583,9.3435,43.2814,0.5456,-0.7758,0.7114,354.3438
16:51:50:690,3.8141,0.4088,9.7349,41.783,0.01,-0.7699,0.8344,353.6875
16:51:50:710,4.3145,-0.2556,10.3347,43.3362,-0.4086,-0.7161,0.6874,352.9062
16:51:50:730,3.8643,-0.8733,10.4448,43.2838,-0.5492,-0.6884,0.3362,351.9844
16:51:50:753,2.9426,-1.2552,10.3934,43.2838,-0.5295,-0.6709,-0.0029,351.3125
16:51:50:772,2.289,-1.4515,10.1276,43.8452,-0.4454,-0.624,-0.1643,351.0469
16:51:50:791,2.1046,-1.3617,9.7098,44.8182,-0.3253,-0.5103,-0.1619,351.1719
16:51:50:812,2.0831,-1.145,9.2118,41.8176,-0.166,-0.2999,-0.0937,351.4688
16:51:50:836,1.9825,-0.8469,8.9125,42.2965,0.3794,0.2176,0.003,351.8594
16:51:50:854,1.937,-0.41,8.5175,43.1232,0.7741,0.2943,0.0243,351.8594
16:51:50:870,1.9095,0.1562,7.8615,44.325,1.0835,0.2751,0.0461,351.8906
16:51:50:895,2.2195,0.8446,7.2258,44.9048,1.2255,0.2426,0.0528,351.6406
16:51:50:910,2.617,1.5676,6.8224,42.507,1.177,0.2477,0.0174,351.6406
16:51:50:932,2.9474,2.1219,6.6069,43.2746,0.9642,0.3031,-0.0588,351.375
16:51:50:957,3.1222,2.5337,6.6919,43.4053,0.6654,0.3473,-0.1832,351.0781
16:51:50:975,3.121,2.8126,6.8942,43.1088,0.3613,0.3065,-0.3336,350.8281
16:51:50:990,2.5847,2.9299,7.1169,43.0035,0.0931,0.1515,-0.4253,350.7031
16:51:51:009,1.7575,2.9982,7.2641,41.8638,-0.1636,-0.0546,-0.384,350.7656
16:51:51:030,1.6916,3.319,7.5766,42.3198,-0.4448,-0.1566,-0.2966,351.0469
16:51:51:053,2.7139,3.4794,8.0686,42.5486,-0.6899,-0.0418,-0.3693,351.4844
16:51:51:071,3.1138,3.4052,8.8706,44.8407,-0.8172,0.0093,-0.5579,351.9531
16:51:51:090,2.2471,3.2364,9.6428,42.8336,-0.8457,-0.1143,-0.5813,352.3906
16:51:51:109,1.4702,2.8557,9.8918,43.5331,-0.929,-0.2288,-0.376,352.8906
16:51:51:129,1.4785,2.3338,9.9169,43.5499,-1.0457,-0.2615,-0.1113,353.6719
16:51:51:154,1.8604,1.7484,10.2281,44.3275,-1.0132,-0.3848,0.077,354.4844
16:51:51:170,2.4733,1.4886,10.9751,44.1749,-0.7498,-0.7249,0.1617,355.0781
16:51:51:189,3.9649,2.062,11.2517,43.7309,-0.4962,-1.1092,0.1758,355.375
16:51:51:210,5.2877,2.5265,10.4556,45.5963,-0.6707,-1.1438,0.187,355.4844
16:51:51:230,6.0323,1.9459,10.0199,43.8125,-1.2233,-0.7452,0.175,355.4688
16:51:51:252,5.7366,-0.1,10.1922,44.7729,-1.5237,-0.2474,0.1151,355.4062
16:51:51:269,5.5954,-1.7807,12.1734,44.423,-1.1389,-0.1111,-0.0796,355.3594
16:51:51:289,5.1728,-2.3601,12.9779,42.1615,-0.3732,-0.2687,-0.1837,355.4219
16:51:51:309,4.5419,-2.1626,12.6176,44.2624,0.2337,-0.3172,-0.0519,355.7812
16:51:51:330,4.3636,-1.8944,11.2936,43.7285,0.4308,-0.1377,0.2381,356.125
16:51:51:357,4.822,-1.5197,10.1551,42.8921,0.3725,0.1167,0.4672,356.2969
16:51:51:373,5.3715,-1.2623,9.3758,42.5743,0.271,0.3284,0.4925,356.125
16:51:51:389,5.5295,-1.2288,8.8096,42.8154,0.2436,0.4431,0.3039,355.5938
16:51:51:410,5.0351,-1.1917,8.2003,43.8917,0.2987,0.4799,0.0294,354.9531
16:51:51:431,4.1983,-1.0564,7.5933,43.4802,0.4241,0.4272,-0.2042,354.4219
16:51:51:453,3.6381,-0.6865,7.0618,42.5534,0.5669,0.33,-0.3731,354.1875
16:51:51:469,3.3005,-0.1526,6.5698,44.2797,0.6652,0.2493,-0.4785,354.2188
16:51:51:490,3.2347,0.4076,6.1748,42.8511,0.6902,0.1843,-0.5494,354.4688
16:51:51:509,3.2071,0.8936,5.8587,42.4808,0.6154,0.1113,-0.5893,354.8125
16:51:51:529,3.1712,1.3138,5.6085,44.0078,0.3997,0.0589,-0.5949,355.25
16:51:51:554,3.279,1.6789,5.6756,43.4129,0.0886,0.081,-0.5616,355.7812
16:51:51:571,3.607,1.8848,6.0168,43.2973,-0.2771,0.147,-0.5113,356.3594
16:51:51:590,3.759,1.7496,6.8595,43.3986,-0.6446,0.2533,-0.4695,356.9375
16:51:51:610,3.5447,1.2731,8.1979,43.9471,-0.8989,0.2844,-0.4522,357.5781
16:51:51:629,3.1868,0.8517,9.1723,44.0045,-0.9274,0.1771,-0.413,358.2031
16:51:51:653,2.8588,0.7249,9.954,43.1201,-0.8422,0.0216,-0.2958,358.8438
16:51:51:671,2.9965,0.2364,11.029,43.1565,-0.803,-0.0868,-0.0591,359.5
16:51:51:689,3.3688,-0.6267,12.5314,44.535,-0.7527,-0.2677,0.1939,0.0938
16:51:51:709,4.0691,-1.6071,13.5309,42.3884,-0.5567,-0.6227,0.3527,0.4375
16:51:51:731,4.8819,-1.4,14.5832,44.3875,-0.2747,-0.8815,0.3404,0.5
16:51:51:752,4.8244,-0.6973,14.4719,43.9123,0.0958,-1.0272,0.2405,0.125
16:51:51:769,4.4952,-0.4483,12.8618,43.3765,0.45,-1.2882,0.2664,359.7812
16:51:51:790,5.2303,-0.4974,12.1806,41.2948,0.3986,-1.2986,0.4864,359.4688
16:51:51:809,6.1915,-0.738,11.8263,41.5243,0.3224,-1.0804,0.6176,359.0625
16:51:51:832,6.3831,-0.8984,11.4348,44.6358,0.5014,-0.8043,0.5151,358.3906
16:51:51:854,6.1293,-0.6458,10.3898,43.8395,0.781,-0.6373,0.2704,357.625
16:51:51:871,5.8911,-0.4064,9.4752,44.2116,0.8676,-0.4666,0.0834,356.9062
16:51:51:889,5.3619,-0.5285,9.0682,43.6494,0.6865,-0.1771,-0.0237,356.375
16:51:51:909,4.5228,-0.8122,8.7509,44.4366,0.4385,0.2445,-0.0876,356.0625
16:51:51:930,3.3843,-1.1582,8.1871,43.4081,0.324,0.6512,-0.098,355.8906
16:51:51:954,2.5811,-1.23,7.5059,44.3214,0.3733,0.9774,-0.0362,355.8594
16:51:51:971,2.5619,-0.6674,6.6787,42.6266,0.5565,1.0983,0.0488,355.875
16:51:51:989,3.085,0.2292,5.6792,43.6222,0.7626,1.0101,0.0565,355.7812
16:51:52:080,3.3688,1.0792,5.1058,45.538,0.7975,0.9404,-0.0487,355.6875
16:51:52:080,3.1964,1.5975,5.0663,44.1502,0.6582,0.9156,-0.2085,355.4062
16:51:52:081,3.0635,1.8956,5.824,43.0562,0.4369,0.8219,-0.3198,355.1719
16:51:52:081,2.4254,2.4726,6.3627,43.2167,0.2377,0.5808,-0.4048,355.1094
16:51:52:089,1.8939,2.5792,6.3244,43.9982,0.0441,0.3598,-0.392,355.25
16:51:52:114,1.9071,2.1267,6.9804,42.9729,-0.2507,0.2882,-0.2375,355.5469
16:51:52:134,1.7431,1.8286,7.9704,43.8713,-0.5327,0.2858,-0.1416,355.9531
16:51:52:151,1.4953,1.3665,8.8323,43.5565,-0.6425,0.2469,-0.1185,356.3125
16:51:52:172,1.3229,1.2049,10.0474,43.0388,-0.5817,0.1601,-0.1403,356.6719
16:51:52:190,1.7287,1.7173,10.7621,43.4338,-0.0065,-0.1734,-0.2221,357.1719
16:51:52:210,1.9921,2.4619,10.5825,44.7244,0.1578,-0.3137,-0.1965,357.4375
16:51:52:231,1.9897,2.6486,10.3107,42.4204,0.0851,-0.3606,-0.0753,357.6875
16:51:52:252,2.1513,2.3948,10.5298,43.5462,-0.088,-0.3377,0.0453,357.6875
16:51:52:279,2.8792,2.0321,10.9883,43.2274,-0.2115,-0.2187,0.0355,357.8906
16:51:52:289,4.7179,2.08,11.9304,44.583,-0.1719,-0.2394,-0.2226,357.9844
16:51:52:315,6.5686,2.7013,12.7181,42.9839,-0.0936,-0.212,-0.6034,357.9688
16:51:52:340,6.1017,1.8405,11.5545,44.3214,-0.2912,0.3158,-0.7861,357.9844
16:51:52:357,4.099,-0.1478,10.525,43.1518,-0.5849,1.1159,-0.6753,358.2812
16:51:52:377,1.5611,-1.6861,10.6555,41.9748,-0.5383,1.4032,-0.3163,359
16:51:52:391,1.7838,-1.0074,12.0154,43.7132,0.0601,0.816,0.0033,359.8906
16:51:52:408,3.7111,0.2376,11.6084,41.0887,0.6646,0.0716,0.0911,0.7188
16:51:52:429,4.846,1.0397,10.027,43.0153,0.6367,0.028,0.032,1.125
16:51:52:454,4.6389,1.2839,8.3152,43.8656,0.0369,0.5675,0.0187,1.0781
16:51:52:471,3.419,0.829,8.0566,42.2826,-0.5934,0.9278,0.1218,0.8594
16:51:52:488,2.2184,0.0305,8.6767,42.9574,-0.8512,0.8349,0.265,0.7344
16:51:52:510,1.4821,-0.5608,8.6935,42.7386,-0.7737,0.4567,0.3713,0.6719
16:51:52:530,1.6006,-0.7284,8.077,42.8847,-0.5687,0.1811,0.3633,0.5781
16:51:52:552,1.8891,-0.3633,7.4257,43.5332,-0.3503,0.0336,0.2211,0.3438
16:51:52:570,1.8544,0.0006,7.2234,43.6814,-0.1117,0.0154,0.0392,0
16:51:52:589,1.3145,0.2963,7.1229,44.2218,0.1291,-0.0943,-0.0668,359.5312
16:51:52:610,0.8034,0.3693,7.1073,43.4933,0.2881,-0.2927,-0.0519,359.4219
16:51:52:629,0.7555,0.6195,7.2534,42.5638,0.3355,-0.596,0.0203,359.4531
16:51:52:652,1.4833,0.9535,7.3838,42.8165,0.2931,-0.9401,0.0347,359.5
16:51:52:670,2.4721,0.9116,8.1416,42.8847,0.2396,-1.4056,-0.1297,359.5
16:51:52:689,3.1018,1.0313,7.6412,42.8847,-0.0033,-1.3976,-0.291,359.4219
16:51:52:710,3.3448,0.7799,8.6767,40.9173,-0.1817,-1.2879,-0.3805,359.4531
16:51:52:729,3.4394,0.7668,9.4369,43.412,-0.2289,-1.135,-0.3528,359.7344
16:51:52:752,3.4885,0.8458,9.8822,42.2032,-0.2382,-0.9691,-0.1661,0.1719
16:51:52:771,3.8308,0.7512,9.8559,41.5659,-0.3303,-0.6469,0.084,0.6719
16:51:52:789,4.5276,0.5932,9.5997,41.8487,-0.5298,-0.2048,0.2765,1.0625
16:51:52:810,5.0196,0.3454,9.8331,42.9231,-0.75,0.2642,0.3907,1.1875
16:51:52:830,5.1201,0.2747,10.9321,42.344,-0.8363,0.6219,0.4544,1.0781
16:51:52:857,4.9058,-0.167,11.6527,41.9995,-0.7322,0.8381,0.4584,0.8438
16:51:52:873,4.3815,-0.2723,13.3191,40.7399,-0.28,0.8493,0.4222,0.5312
16:51:52:889,3.6225,0.3837,13.6291,42.532,0.2811,0.384,0.554,0.1719
16:51:52:910,3.0551,0.6183,12.3757,42.1523,0.3592,-0.1808,0.8525,359.8281
16:51:52:930,3.6261,0.0712,11.6623,41.5308,0.1086,-0.4599,0.9862,359.2969
16:51:52:957,5.7761,-1.3438,11.8227,40.5416,-0.0073,-0.5649,0.697,358.4375
16:51:52:973,4.9429,-1.6957,10.9799,40.4391,0.1586,-0.7609,0.1697,357.3438
16:51:52:992,3.856,-2.1398,10.5645,42.1678,0.3903,-1.1193,-0.1898,356.2969
16:51:53:008,3.6513,-2.0931,10.1276,41.0114,0.511,-1.1438,-0.2447,355.7188
16:51:53:030,3.5914,-1.9603,9.2178,40.5696,0.5038,-0.5627,-0.1576,355.75
16:51:53:053,3.1952,-1.6909,8.3559,42.5749,0.4638,0.1995,-0.0295,355.9062
16:51:53:070,2.617,-1.3461,7.3527,42.2737,0.5352,0.7409,0.084,356.0156
16:51:53:088,2.1501,-1.2444,6.2394,40.0862,0.6827,0.9782,0.1881,356
16:51:53:110,2.3895,-0.6997,6.0479,40.9393,0.7789,1.0546,0.2744,355.8594
16:51:53:128,2.7702,0.1478,5.7151,40.9285,0.8788,1.0019,0.26,355.5625
16:51:53:153,3.1772,0.9164,5.3943,41.0152,0.9363,0.8275,0.1638,355.1094
16:51:53:171,3.9134,1.2923,5.2099,40.0701,0.8439,0.5459,-0.0213,354.5938
16:51:53:189,4.4306,1.2839,4.8424,40.4794,0.5672,0.3318,-0.3813,354.1562
16:51:53:208,4.6748,1.8621,5.4038,39.6143,0.1075,-0.0256,-0.9353,353.8594
16:51:53:230,5.4673,2.6019,8.903,40.6291,-0.4164,-0.3239,-1.5832,353.9062
16:51:53:255,2.8947,0.659,7.7394,39.2559,-0.631,-0.4376,-2.3134,354.5156
16:51:53:272,0.7722,0.829,8.4337,40.7932,-0.8853,-0.5191,-2.7017,356
16:51:53:288,0.382,0.7356,8.2912,39.3784,-0.9418,-0.493,-2.4874,358.3438
16:51:53:309,0.5173,1.673,9.9971,40.4547,-0.9405,-0.437,-2.0032,1.3281
16:51:53:329,0.1162,2.6785,12.0166,41.0903,-0.9543,0.0064,-1.4636,4.5625
16:51:53:355,-0.0406,2.2655,12.1986,41.3997,-0.6584,0.376,-0.8309,7.3594
16:51:53:371,0.0839,1.8525,11.4707,38.6419,-0.2867,0.335,-0.1408,9.5469
16:51:53:392,1.0572,1.7077,10.9261,39.8303,-0.1577,0.2471,0.481,10.9375
16:51:53:409,2.5739,1.9591,11.6276,38.9056,-0.292,0.2551,0.8738,11.5469
16:51:53:429,4.2319,2.7001,12.5589,39.3735,-0.3474,0.1193,0.9415,11.0156
16:51:53:452,5.1919,2.3697,11.4636,39.2025,-0.1793,-0.244,0.7234,10.0938
16:51:53:471,4.6066,0.4651,10.0462,39.2904,-0.3788,-0.6599,0.407,9.0781
16:51:53:489,3.8177,-1.6167,11.1032,39.6794,-1.0515,-0.5321,0.248,8.2812
16:51:53:509,4.1421,-1.6287,13.7381,39.8733,-1.276,-0.1886,0.269,7.9219
16:51:53:531,5.4673,-1.139,13.9392,38.2716,-0.5602,0.0751,0.3537,7.8438
16:51:53:555,5.6839,-1.0325,12.6571,37.3788,0.4745,0.5438,0.4264,7.7812
16:51:53:571,4.6724,-1.1678,10.5801,38.881,1.1387,1.3113,0.5849,7.5
16:51:53:589,3.9649,-1.0972,9.3028,38.0402,1.1848,1.8315,0.9404,6.9375
16:51:53:608,3.9051,-0.8481,9.1759,40.3777,0.9046,1.9204,1.3141,6.0781
16:51:53:629,3.8009,-0.5824,8.5031,39.1918,0.7126,1.8389,1.4589,4.7969
16:51:53:653,3.4729,-0.1993,7.8447,41.214,0.6748,1.7918,1.3945,3.2344
16:51:53:671,3.1305,0.0353,6.7997,39.3353,0.8718,1.5816,0.8224,1.4375
16:51:53:689,2.9821,0.3478,6.0395,39.5425,0.8907,1.4006,0.4397,359.7344
16:51:53:709,2.3919,0.7524,5.9102,40.7987,0.8713,1.2317,0.073,357.3281
16:51:53:729,1.5312,1.1654,5.9461,39.8783,0.776,1.0022,-0.1534,357.3281
16:51:53:758,0.7327,1.661,6.1855,39.6417,0.6148,0.71,-0.25,356.7344
16:51:53:775,0.2838,2.0441,6.2945,39.9738,0.364,0.4155,-0.2886,356.5469
16:51:53:792,0.1246,2.3721,6.8583,40.5775,0.0577,0.2618,-0.3105,356.6562
16:51:53:810,-0.3123,2.6055,8.1991,39.4268,-0.141,0.2868,-0.3041,356.875
16:51:53:828,-1.2341,2.584,9.7098,40.0641,-0.1223,0.4277,-0.1624,357.1875
16:51:53:854,-2.3714,2.3481,10.7142,39.2785,0.0489,0.3204,0.1846,357.6719
16:51:53:872,-2.9352,2.2452,10.8674,39.7172,0.1722,-0.1699,0.7202,357.9375
16:51:53:888,-2.1619,2.3182,10.5322,40.7567,0.103,-0.7782,1.2014,357.9219
16:51:53:909,-0.4656,2.4164,10.1815,39.7119,-0.1359,-1.2317,1.4065,357.4219
16:51:53:930,1.3947,2.4223,10.0414,40.6333,-0.4403,-1.5047,1.2805,354.875
16:51:53:953,2.6661,2.3409,10.4999,39.6251,-0.6843,-1.5412,0.913,354.875
16:51:53:971,2.9043,2.244,11.7999,39.4397,-0.7306,-1.4506,0.5167,353.4844
16:51:53:989,2.1429,2.1446,12.1064,39.1243,-0.6827,-1.5146,0.3226,352.3438
16:51:54:012,1.8532,1.6682,11.0589,39.3666,-0.8749,-1.6432,0.3186,351.6719
16:51:54:028,2.4721,0.562,9.9732,38.9339,-1.3208,-1.5718,0.2989,351.3594
16:51:54:049,2.9785,-0.7021,10.2581,38.175,-1.6193,-1.2357,0.1399,351.1562
16:51:54:069,3.1042,-1.4898,11.2732,39.2212,-1.4997,-0.8978,-0.1078,350.9531
16:51:54:158,2.6685,-1.9207,11.3223,37.2905,-1.2443,-0.661,-0.2836,350.8906
16:51:54:159,1.9334,-2.3397,9.8487,39.0184,-1.2523,-0.4456,-0.2881,350.9531
16:51:54:159,0.7435,-3.2615,8.5965,38.8345,-1.4374,-0.3065,-0.0849,351.2812
16:51:54:159,0.6346,-4.0253,8.8694,37.4628,-1.3208,-0.2724,0.1449,351.7812
16:51:54:178,1.4845,-3.9331,9.7685,37.6039,-0.7287,-0.2338,0.1998,352.2812
16:51:54:188,2.4159,-3.1873,10.282,38.73,0.1557,-0.1135,0.0741,352.5781
16:51:54:208,3.17,-2.5025,9.9803,38.4911,1.0367,0.1212,-0.1661,352.6094
16:51:54:229,3.4525,-1.8836,8.9832,38.0304,1.6681,0.2618,-0.3994,352.4844
16:51:54:254,3.0587,-1.3198,7.7226,38.8479,1.9075,0.1955,-0.5051,352.375
16:51:54:273,2.8013,-0.41,6.893,38.9596,1.7552,0.0647,-0.4713,352.4844
16:51:54:290,2.793,0.5896,6.3519,38.5853,1.2886,0.0021,-0.3459,352.7344
16:51:54:309,2.7534,1.2204,6.7362,38.3753,0.805,0.0304,-0.2127,352.9844
16:51:54:329,2.7343,1.6885,7.7478,39.1434,0.6021,0.0804,-0.1432,353.2188
16:51:54:353,2.4661,1.8394,8.1751,37.6476,0.5768,0.049,-0.0676,353.375
16:51:54:372,2.7594,2.2284,8.6839,38.5853,0.5629,-0.0197,0.0086,353.4531
16:51:54:388,3.2874,2.6031,9.2142,38.849,0.5285,-0.1076,0.027,353.4844
16:51:54:410,3.6429,2.9155,9.608,39.4377,0.4569,-0.1726,-0.0167,353.4219
16:51:54:428,3.5376,2.9682,10.0773,38.1592,0.2881,-0.1153,-0.0884,353.3125
16:51:54:454,2.854,2.5923,10.5418,38.6777,0.0729,0.1161,-0.1475,353.2344
16:51:54:473,2.0807,2.159,11.4097,39.4001,-0.0336,0.3731,-0.1179,353.2344
16:51:54:488,1.9071,2.4104,12.5038,39.2048,0.1043,0.5433,0.0296,353.3438
16:51:54:509,1.6258,2.1494,10.531,39.1071,0.5546,0.5055,0.2701,353.4844
16:51:54:530,1.6198,0.914,8.1416,40.1532,0.572,0.5686,0.6307,353.5312
16:51:54:553,1.469,-0.6662,8.5127,38.0652,-0.2494,0.8109,1.0544,353.2969
16:51:54:572,2.095,-0.7847,10.9273,38.6485,-0.8683,0.9342,1.2901,352.6562
16:51:54:588,3.2694,-0.3885,11.5067,39.0944,-0.5889,0.7111,1.2398,351.6562
16:51:54:608,3.9122,-0.0401,9.7864,37.9613,0.0609,0.3103,0.9332,350.3125
16:51:54:628,4.1457,0.3047,7.9381,37.9613,0.2694,0.02,0.5521,348.2656
16:51:54:648,4.0762,0.4447,7.2342,38.2103,-0.157,-0.0882,0.2182,347.1719
16:51:54:670,3.522,-0.3059,6.9852,37.7085,-0.7932,-0.1806,-0.0649,346.5156
16:51:54:688,3.1246,-0.6686,8.0123,38.1701,-1.3879,-0.2815,-0.2697,346.2812
16:51:54:707,2.7187,-0.6482,9.122,38.6082,-1.582,-0.3041,-0.4471,346.4531
16:51:54:727,2.2507,-0.4962,9.5195,38.4267,-1.3122,-0.2932,-0.604,346.9375
16:51:54:748,1.8425,-0.258,9.225,38.0935,-0.8113,-0.2786,-0.6769,347.6406
16:51:54:771,1.8113,0.0293,8.6324,38.857,-0.3519,-0.2517,-0.6349,348.4531
16:51:54:788,2.0795,0.2233,8.0722,37.1206,-0.0805,-0.2059,-0.5161,349.3281
16:51:54:808,2.3249,0.3657,8.0662,37.1637,-0.0054,-0.1492,-0.3896,350.0938
16:51:54:830,2.6014,0.4555,8.6791,37.0378,-0.007,-0.0716,-0.2841,350.6875
16:51:54:852,2.6421,0.5166,9.5458,39.0696,0.1096,0.114,-0.2482,351.1094
16:51:54:871,1.9729,0.4998,9.8451,38.7259,0.455,0.4847,-0.3113,351.4375
16:51:54:887,1.3983,0.4747,9.5326,38.0166,0.9493,0.7052,-0.3089,351.7031
16:51:54:908,1.6162,0.5333,9.2645,37.7162,1.2662,0.6647,-0.1414,351.9844
16:51:54:929,2.3811,0.75,9.304,37.5162,1.1539,0.5169,0.1282,352.2344
16:51:54:953,3.261,1.0146,9.9899,36.5863,0.7605,0.2786,0.3612,352.2344
16:51:54:971,3.8201,1.1965,10.5717,38.4836,0.4196,0.0482,0.42,351.9688
16:51:54:989,4.0439,1.1367,10.7417,39.0827,0.1869,-0.1276,0.3425,351.4688
16:51:55:008,4.2235,1.151,11.2469,39.6492,-0.0187,-0.2687,0.22,350.9375
16:51:55:028,4.0942,1.0576,12.031,37.9383,-0.1183,-0.3571,0.069,350.7031
16:51:55:049,4.1098,1.3689,12.9144,39.2075,-0.0544,-0.3726,-0.0476,350.3906
16:51:55:072,3.8715,1.5233,12.3374,39.279,0.2255,-0.3199,-0.091,350.25
16:51:55:089,3.4262,1.339,11.3977,37.0958,-0.1127,-0.1159,0.0578,350.3281
16:51:55:107,2.6433,0.4962,11.0338,38.6174,-0.5298,0.1499,0.2794,350.4531
16:51:55:131,1.9155,-0.4507,11.5665,37.8429,-0.644,0.3294,0.485,350.5312
16:51:55:147,1.2535,-1.0528,11.8933,39.3284,-0.4861,0.3835,0.6848,350.4844
16:51:55:168,0.771,-1.2336,11.515,37.0292,-0.2771,0.4144,0.8717,350.25
16:51:55:187,0.4981,-1.382,10.2736,37.2043,-0.1982,0.5199,1.0155,349.7656
16:51:55:208,0.315,-1.5042,8.7066,37.8518,-0.2571,0.6234,1.1066,349.0312
16:51:55:228,0.0995,-1.8429,7.5838,39.0286,-0.3756,0.624,1.1282,348.0625
16:51:55:247,0.7531,-1.5784,7.5778,40.2965,-0.2614,0.5145,0.934,346.9688
16:51:55:275,1.706,-0.9367,8.0207,38.0617,0.1866,0.1926,0.5015,345.7188
16:51:55:290,2.3596,-0.3609,7.6867,39.0556,0.7248,-0.2368,-0.0631,344.4688
16:51:55:309,2.6768,0.0401,6.7254,37.3277,0.9973,-0.6064,-0.5877,343.4688
16:51:55:329,2.7965,0.4184,6.1891,39.4899,0.9437,-0.7848,-1.009,342.875
16:51:55:359,2.8229,0.841,6.2382,39.2596,0.6929,-0.8046,-1.3164,342.8906
16:51:55:372,2.5679,1.0529,6.6931,40.1293,0.3501,-0.7018,-1.4572,343.4688
16:51:55:393,1.9586,1.2229,7.4198,35.6964,0.0737,-0.5915,-1.396,344.5
16:51:55:409,1.4366,1.3306,8.1895,38.9347,-0.0856,-0.4277,-1.1784,345.9688
16:51:55:430,0.971,1.3821,8.9042,35.2504,-0.1325,-0.167,-0.8551,347.625
16:51:55:455,0.6932,1.5221,9.6775,38.8995,-0.0456,0.1891,-0.487,349.1562
16:51:55:472,0.6717,1.8741,10.6352,37.6267,0.2106,0.5236,-0.1461,351.5469
16:51:55:489,0.795,2.2296,11.1439,37.983,0.5315,0.5353,0.1705,351.875
16:51:55:508,1.8413,2.6737,10.3347,36.1159,0.6327,0.0027,0.4163,352.1875
16:51:55:528,3.9398,2.9874,8.6204,36.8194,0.2106,-0.7153,0.4288,352.0938
16:51:55:547,6.2669,2.888,7.0235,38.0677,-0.6614,-1.2115,0.0765,351.6406
16:51:55:571,7.4724,2.4619,6.8116,38.5297,-1.5181,-1.4759,-0.5507,351.1094
16:51:55:588,9.4357,3.0951,9.2597,37.5248,-1.9495,-1.2448,-1.4439,350.8594
16:51:55:607,8.6755,3.5811,12.5984,37.1089,-1.8425,-0.3542,-2.2623,351.3281
16:51:55:627,4.2798,1.1558,11.7832,36.426,-1.7402,0.285,-2.3382,352.7969
16:51:55:648,-0.2513,-1.2983,11.0661,38.2467,-1.777,0.5055,-1.5627,355.2188
16:51:55:672,-1.7932,-2.1841,12.3087,37.222,-1.476,0.2003,-0.4037,358.2812
16:51:55:687,-0.013,-1.4898,13.7967,37.4217,-0.7503,-0.2605,0.4776,0.9219
16:51:55:707,2.0531,-1.3677,12.7612,37.3759,-0.2472,-0.3941,0.9079,2.2656
16:51:55:728,3.3376,-1.3533,10.865,36.7934,-0.2302,-0.196,0.9953,2.3438
16:51:55:748,3.6417,-0.9499,9.5135,37.3586,-0.4105,-0.0037,0.9207,1.5469
16:51:55:771,2.8875,-1.6813,7.6616,36.5456,-0.6414,0.0972,0.7932,0.4844
16:51:55:787,2.6744,-2.493,8.1919,36.3793,-0.9381,0.2706,0.6427,359.4375
16:51:55:807,2.5523,-2.3888,9.5494,37.0118,-1.0318,0.3976,0.4059,358.5469
16:51:55:827,2.0412,-2.5025,9.5566,36.0141,-0.6614,0.3622,0.0863,357.8594
16:51:55:847,1.6126,-2.5001,9.1639,37.9611,-0.1282,0.1348,-0.1869,357.4531
16:51:55:872,1.9526,-2.1374,8.8946,36.1625,0.2998,-0.1095,-0.3315,357.3438
16:51:55:890,2.4913,-1.6023,8.642,37.6123,0.6609,-0.2687,-0.4428,357.5
16:51:55:908,2.8336,-1.1271,8.138,38.1349,0.9408,-0.3108,-0.5656,357.7812
16:51:55:927,2.854,-0.7632,7.7178,36.5197,1.0441,-0.2669,-0.6556,358.125
16:51:55:947,2.6601,-0.6494,7.4401,38.1965,0.9315,-0.1609,-0.662,358.8125
16:51:55:971,2.5272,-0.5321,7.6616,35.7292,0.6955,-0.0671,-0.5733,359.3438
16:51:55:989,2.7427,-0.2089,8.2266,36.946,0.5091,-0.081,-0.4119,359.9375
16:51:56:006,3.1042,0.1861,8.6492,36.8787,0.4763,-0.1499,-0.2508,0.4688
16:51:56:027,3.4873,0.3992,8.4888,36.9171,0.4891,-0.2112,-0.1294,0.8438
16:51:56:048,3.7183,0.3849,8.1931,35.7594,0.3371,-0.1944,-0.0434,1.0312
16:51:56:072,3.607,-0.0162,8.3236,37.0371,-0.0214,-0.1342,0.0309,1.0938
16:51:56:090,3.2658,-0.5596,9.4452,37.0284,-0.4693,-0.1132,0.1356,1.0781
16:51:56:108,3.0827,-0.5536,11.3367,35.3389,-0.7274,-0.1257,0.2666,1.0469
16:51:56:127,2.8839,0.0078,12.3171,36.4343,-0.5495,-0.1372,0.3497,0.9844
16:51:56:147,2.3716,0.4783,10.8075,35.6457,-0.0765,-0.3017,0.4384,0.7969
16:51:56:172,1.4259,0.0329,8.3631,36.7492,0.0739,-0.4546,0.7114,0.6719
16:51:56:238,1.9945,-0.9487,7.731,37.4545,-0.4286,-0.3547,1.2376,0.2969
16:51:56:239,2.8624,-2.0249,8.8108,35.656,-1.0853,-0.0685,1.6259,359.6562
16:51:56:239,3.5663,-2.5995,10.2353,36.4017,-1.4228,0.0517,1.6328,358.5625
16:51:56:253,3.7255,-3.2088,10.2234,38.4541,-1.3671,-0.0708,1.3197,357.0938
16:51:56:273,3.6381,-3.9055,9.6655,38.0916,-1.2638,-0.3286,0.8571,355.4219
16:51:56:290,3.5747,-5.0703,9.9133,37.9022,-1.4014,-0.5832,0.4528,353.9688
16:51:56:306,3.4023,-5.6497,11.2373,37.5895,-1.4989,-0.7012,0.1135,352.9844
16:51:56:327,3.1593,-5.4642,12.8797,38.2924,-1.1908,-0.596,-0.1603,352.4375
16:51:56:348,2.6062,-5.038,13.0258,38.2902,-0.3253,-0.3736,-0.332,352.3125
16:51:56:372,2.3955,-4.2647,11.8574,38.0682,0.7983,-0.122,-0.3291,352.7031
16:51:56:387,2.7343,-3.2304,10.0773,36.1212,1.7813,0.1577,-0.1933,353.0781
16:51:56:407,3.1868,-2.2332,8.2865,36.7479,2.4087,0.4067,-0.0524,353.2656
16:51:56:427,3.7734,-1.2264,6.9672,37.7351,2.6404,0.5001,0.0264,353.125
16:51:56:447,4.4833,-0.1694,6.3304,36.9676,2.5446,0.4397,-0.0143,352.7344
16:51:56:472,4.8843,0.6949,5.9725,37.3432,2.2234,0.3348,-0.2053,352.2031
16:51:56:488,4.9346,1.0936,6.0167,36.6484,1.1768,0.2202,-0.7637,351.5469
16:51:56:507,4.4318,1.0588,6.5722,36.2169,0.7653,0.1635,-1.0024,351.5469
16:51:56:528,3.601,0.7775,7.5263,36.389,0.5989,0.0317,-1.1044,351.7656
16:51:56:548,3.2826,0.8984,8.7342,35.7777,0.6971,-0.0932,-1.1262,352.4062
16:51:56:574,3.7183,1.5939,9.9432,35.7777,1.0183,-0.1678,-1.1842,353.3594
16:51:56:590,4.0128,2.4331,10.1252,36.5693,1.274,-0.1673,-1.2516,354.5156
16:51:56:606,3.5076,2.7072,9.3567,36.3259,1.1019,-0.0179,-1.168,355.6719
16:51:56:626,3.2431,2.8737,9.0298,36.6412,0.6628,0.1537,-0.96,356.8438
16:51:56:647,3.1964,2.9335,9.7421,36.9927,0.361,0.2956,-0.7717,357.9844
16:51:56:671,3.5064,3.1466,10.9356,36.383,0.4593,0.3254,-0.7147,359.125
16:51:56:689,4.2103,4.0049,11.9592,37.9921,0.8324,0.1694,-0.7659,0.0781
16:51:56:707,4.2941,4.6059,11.5258,36.0312,0.7091,0.2016,-0.7169,0.8281
16:51:56:726,3.5028,2.912,8.6611,35.4515,-0.243,0.3031,-0.409,1.5312
16:51:56:747,2.6182,0.8434,7.8627,37.3798,-1.0201,0.347,-0.0777,2.25
16:51:56:770,2.6361,0.3585,10.361,35.8124,-0.8896,0.4607,0.0658,2.9219
16:51:56:789,2.9414,0.6662,11.6946,35.6428,-0.0251,0.3507,0.0797,3.5625
16:51:56:807,3.0096,0.9188,10.9344,35.4577,0.7672,0.2421,0.0736,3.5938
16:51:56:828,3.1078,1.3342,9.2357,35.594,0.8923,0.3206,0.1479,3.5312
16:51:56:846,2.7427,1.5856,7.6927,35.8206,0.4345,0.4192,0.3596,3.3594
16:51:56:875,2.5727,1.6107,7.2833,36.9035,-0.2126,0.4746,0.5961,3.0938
16:51:56:894,2.5823,1.2791,7.7178,36.0212,-0.656,0.4639,0.718,2.6562
16:51:56:912,2.9462,1.151,8.1895,36.2044,-0.7,0.4738,0.6294,2.0625
16:51:56:928,3.018,0.9786,7.895,37.6293,-0.5058,0.5718,0.3929,1.2969
16:51:56:949,2.5452,0.9044,8.1093,36.9766,-0.1894,0.71,0.1822,0.5312
16:51:56:972,2.113,1.3785,8.3547,36.0536,0.2108,0.7816,0.0416,359.9844
16:51:56:988,1.6366,1.673,8.0925,36.3652,0.4713,0.8043,0.0278,359.6562
16:51:57:007,0.9626,1.7783,7.7118,36.7699,0.4814,0.7515,0.1838,359.4688
16:51:57:028,1.0967,2.0991,7.7226,35.7574,0.3853,0.6325,0.3463,359.3281
16:51:57:047,1.4989,2.6833,8.1476,36.1396,0.2993,0.53,0.3958,359.1094
16:51:57:072,1.2535,3.2854,8.8036,37.3751,0.1658,0.5947,0.4493,358.6719
16:51:57:088,0.3006,3.3166,9.2609,37.3419,-0.0451,0.6991,0.6701,358.1406
16:51:57:107,-0.3638,2.803,9.6895,37.1251,-0.207,0.5092,1.0339,357.6094
16:51:57:127,-0.0202,2.7683,10.4616,37.23,-0.1559,0.0242,1.3306,356.9219
16:51:57:150,0.8237,2.6833,10.5083,38.1494,-0.0432,-0.5193,1.4459,355.875
16:51:57:172,2.1022,2.6665,9.8965,37.0042,-0.0845,-0.9785,1.3468,354.5625
16:51:57:188,3.9853,2.6283,9.2513,38.0204,-0.2659,-1.2655,1.052,352.9844
16:51:57:207,3.832,2.2547,9.6452,37.3746,-0.5109,-1.3305,0.6738,351.4375
16:51:57:227,3.3113,1.9579,10.5238,35.8447,-0.6752,-1.2621,0.3646,350.1719
16:51:57:249,3.0324,1.9507,10.7752,37.6349,-0.627,-1.2642,0.228,349.3906
16:51:57:271,2.9857,1.5137,9.5889,37.2142,-0.4709,-1.4695,0.2517,349.0156
16:51:57:290,3.4202,0.6626,8.9353,36.311,-0.6752,-1.5345,0.3963,348.8594
16:51:57:306,3.3448,-0.4339,9.7517,37.3672,-1.194,-1.1018,0.4842,348.7656
16:51:57:326,2.9486,-1.3437,11.0099,36.7325,-1.5216,-0.5249,0.4704,348.6719
16:51:57:346,2.5751,-1.9387,11.7377,36.1562,-1.4209,-0.1302,0.4187,348.3906
16:51:57:371,2.5284,-2.1937,11.4133,36.2673,-0.9817,0.0107,0.3729,348.1562
16:51:57:390,2.8755,-2.0045,10.13,34.147,-0.4741,0.1127,0.322,347.9688
16:51:57:406,2.5631,-2.1769,9.152,36.2377,-0.2046,0.3467,0.2477,347.7812
16:51:57:428,2.5607,-2.0488,9.45,35.8572,-0.1583,0.6503,0.2246,347.5312
16:51:57:448,3.036,-1.4682,9.717,36.6972,0.0644,0.7803,0.2086,347.2812
16:51:57:472,3.2275,-0.8936,9.0682,38.2816,0.5712,0.812,0.0784,347.0625
16:51:57:491,3.1736,-0.1215,8.1967,35.5022,1.0796,0.8381,-0.0705,346.8281
16:51:57:507,3.0659,0.6075,7.3156,36.7959,1.3957,0.8695,-0.148,346.625
16:51:57:527,3.1365,1.5114,6.7745,37.0005,1.4362,0.8298,-0.1339,346.4688
16:51:57:547,3.3676,2.3828,6.3615,38.764,1.2159,0.5915,-0.0652,346.3906
16:51:57:572,3.8177,2.6642,6.1389,38.2469,0.732,0.2631,-0.0015,346.3281
16:51:57:589,4.2211,2.402,6.5518,36.5551,0.0452,0.0775,0.0155,346.2188
16:51:57:609,4.4988,2.3649,8.5175,36.7782,-0.5783,0.0567,-0.0689,346.0938
16:51:57:627,4.196,2.0728,9.8618,36.7572,-0.7905,0.0887,-0.274,346.0156
16:51:57:647,3.4262,1.7532,10.6914,37.0569,-0.5969,0.0852,-0.4953,346.0625
16:51:57:674,2.6301,1.5999,10.9237,37.5525,-0.2094,0.0495,-0.5952,346.3438
16:51:57:688,2.4099,1.7113,11.0458,38.0194,0.2175,-0.0242,-0.5174,346.8906
16:51:57:707,2.9366,2.1039,10.8818,37.0023,0.5653,-0.0788,-0.3358,347.5469
16:51:57:732,3.455,2.493,10.7621,37.6382,0.7365,-0.0551,-0.1906,348.7812
16:51:57:758,3.5459,2.6558,10.6244,36.9831,0.6564,0.2466,-0.1877,348.8906
16:51:57:768,3.1437,2.6246,10.9033,35.9389,0.6588,0.2352,-0.2234,348.9688
16:51:57:790,3.2,3.1358,12.0154,38.1227,0.9291,-0.1398,-0.2631,349.0781
16:51:57:808,3.1569,3.568,11.4863,35.9972,1.0316,-0.3859,-0.2519,349.2344
16:51:57:827,2.2483,2.6582,9.6811,36.5831,0.3179,0.1076,-0.0625,349.4219
16:51:57:848,1.7443,0.9978,8.7749,36.8526,-0.4686,0.4956,0.1098,349.625
16:51:57:874,2.028,0.4615,10.6519,38.41,-0.4409,0.3678,0.024,349.6406
16:51:57:890,2.1944,0.3142,11.2864,39.2574,0.1176,-0.119,-0.1757,349.5156
16:51:57:908,2.5811,0.5896,10.221,37.0362,0.4894,-0.5475,-0.3446,349.5156
16:51:57:925,2.9306,1.3737,8.8706,36.478,0.3541,-0.6858,-0.4165,349.5156
16:51:57:947,2.9761,1.716,7.415,37.9446,-0.2203,-0.624,-0.3749,349.7031
16:51:57:976,2.7977,1.254,6.4453,36.5024,-0.9698,-0.5151,-0.2567,350.5938
16:51:57:993,2.8432,0.4591,6.9637,37.4942,-1.3687,-0.4527,-0.2538,350.5938
16:51:58:008,3.1557,0.2436,7.9561,34.9496,-1.1943,-0.4874,-0.4338,351.1094
16:51:58:027,3.3281,0.4687,8.4361,36.6348,-0.631,-0.6032,-0.6761,351.5938
16:51:58:047,3.1485,0.8039,7.9692,37.1943,-0.0608,-0.6432,-0.8354,352.8281
16:51:58:071,2.9881,1.1786,7.415,37.2774,0.2862,-0.497,-0.8484,352.8281
16:51:58:090,2.7762,1.5413,6.8272,36.5707,0.4143,-0.3007,-0.7235,353.75
16:51:58:106,2.7331,1.8166,6.5423,35.3115,0.3637,-0.1321,-0.4902,354.7031
16:51:58:126,2.866,1.8872,6.4286,37.5058,0.1381,-0.0357,-0.1906,355.6719
16:51:58:147,3.3293,1.6873,6.5279,36.7034,-0.1998,-0.0282,0.0781,356.4375
16:51:58:171,3.9458,1.5676,7.3683,35.8434,-0.4795,-0.1198,0.2416,356.9375
16:51:58:189,4.6197,1.3928,8.0997,37.2993,-0.7197,-0.1369,0.2672,357.125
16:51:58:207,5.2662,1.2899,8.9915,35.8347,-0.8235,-0.2048,0.1591,357.0781
16:51:58:227,6.0335,1.406,10.5226,35.9145,-0.6931,-0.2128,-0.0673,356.8125
16:51:58:305,6.261,1.4539,11.8287,36.421,-0.4243,-0.0977,-0.2841,356.7031
16:51:58:306,5.5367,1.2504,12.2285,34.6149,-0.2148,0.1281,-0.3001,356.7969
16:51:58:306,4.3396,0.7871,12.019,35.1127,-0.133,0.3918,-0.0588,357.125
16:51:58:306,3.3101,0.185,12.4033,36.0545,0.01,0.6123,0.31,357.5312
16:51:58:326,3.2072,0.3142,13.6255,37.5439,0.4998,0.6567,0.5817,357.7812
16:51:58:347,3.352,0.8697,13.3921,38.0497,1.0513,0.4218,0.7242,357.625
16:51:58:369,3.3987,1.1343,11.4408,36.4159,1.0942,0.1888,0.7955,357.0625
16:51:58:386,3.8356,1.2157,9.9013,37.2812,0.7437,-0.0232,0.7063,356.1406
16:51:58:406,4.1696,1.1247,9.5123,35.0659,0.3277,-0.1963,0.428,355.0469
16:51:58:426,4.014,0.9583,9.8163,36.421,0.0502,-0.3678,0.0605,354.0156
16:51:58:447,3.2885,0.9032,9.9887,35.7011,-0.1724,-0.4357,-0.2087,353.2969
16:51:58:472,2.1441,0.5573,9.7757,37.095,-0.4486,-0.3393,-0.2548,353.0156
16:51:58:488,1.2415,0.1538,9.9839,37.095,-0.5721,-0.2085,-0.1288,353.1719
16:51:58:507,0.449,-0.3849,10.2581,35.2562,-0.4014,-0.0698,0.0682,353.5469
16:51:58:526,0.2168,-0.5309,10.1539,36.5891,0.0409,0.0083,0.2592,353.8906
16:51:58:547,0.7423,-0.2448,9.5027,36.1502,0.6114,0,0.35,354.0312
16:51:58:571,1.6557,0.4651,8.569,36.7797,1.1376,-0.008,0.3114,353.8906
16:51:58:589,2.6038,1.9878,6.1568,36.5704,1.4226,0.0186,0.2539,353.7031
16:51:58:607,2.9498,2.5756,5.5032,35.4746,1.364,0.0879,0.24,352.9219
16:51:58:630,3.4202,3.1131,5.5499,37.5693,1.0385,0.1555,0.2328,352.3594
16:51:58:644,3.5818,3.4926,5.8515,37.688,0.6316,0.1768,0.1676,351.8438
16:51:58:665,3.419,3.3645,5.8504,36.7288,0.2231,0.1694,0.0581,351.3438
16:51:58:688,3.5962,2.9586,5.9904,36.8741,-0.2427,0.1814,-0.0372,350.9375
16:51:58:717,3.8105,2.7168,6.553,37.1238,-0.704,0.2168,-0.2101,350.6719
16:51:58:742,3.4957,2.311,7.1983,37.7214,-1.4339,0.2186,-0.7771,350.8594
16:51:58:755,2.8851,1.8777,8.5821,37.0631,-1.6457,0.1579,-0.951,351.3438
16:51:58:773,2.0543,1.2145,9.5434,39.1533,-1.6686,0.0008,-0.9771,352.2812
16:51:58:795,1.3385,0.9942,10.3586,36.2144,-1.5916,-0.1649,-0.8223,353.5156
16:51:58:811,1.5851,1.6011,12.3769,35.6153,-1.2467,-0.2575,-0.6314,354.9062
16:51:58:835,2.2195,2.056,13.4831,38.2043,-0.6017,-0.3452,-0.5217,356.1562
16:51:58:853,2.2746,2.086,13.2748,35.4114,-0.0068,-0.4227,-0.3824,357.2188
16:51:58:871,2.8779,2.6917,12.5625,34.8269,0.2678,-0.6519,-0.1531,358.0312
16:51:58:891,3.7686,3.4435,11.4013,37.673,0.0023,-0.7217,0.1191,358.5938
16:51:58:910,4.2379,2.3266,10.3239,37.2098,-0.7703,-0.4661,0.3431,358.9062
16:51:58:930,3.7207,-0.8027,10.4939,36.3693,-1.1748,-0.2349,0.3569,358.9219
16:51:58:954,4.178,-1.4563,13.173,37.4748,-0.5783,-0.5473,0.1516,358.7188
16:51:58:969,4.9872,-1.3425,12.6894,35.261,0.2268,-1.0717,-0.1217,358.5
16:51:58:990,5.2314,-1.0337,10.5286,37.4493,0.336,-0.9955,-0.2886,358.3906
16:51:59:009,5.1919,-0.6602,9.0035,35.9476,0.0063,-0.6757,-0.3137,358.4062
16:51:59:029,4.5706,-0.7524,8.6827,36.4926,-0.2784,-0.3366,-0.2396,358.75
16:51:59:055,3.9829,-1.0552,8.7054,35.4877,-0.2949,-0.0972,-0.1776,359.125
16:51:59:068,3.5076,-1.1797,8.3894,36.6575,-0.1365,0.0519,-0.1754,359.4531
16:51:59:091,3.3209,-0.8876,7.6867,36.2983,0.0226,0.2466,-0.2335,359.7188
16:51:59:109,3.2467,-0.2364,6.9816,35.2224,0.0857,0.5089,-0.3275,359.9531
16:51:59:127,2.5715,0.1897,6.401,34.804,0.0806,0.6812,-0.3664,0.2031
16:51:59:154,1.5384,0.2209,6.4046,35.9829,0.0942,0.6535,-0.2791,0.5312
16:51:59:166,1.22,0.2939,6.6871,36.0771,0.1507,0.4722,-0.1291,0.9219
16:51:59:188,1.7886,0.5573,6.8846,34.6754,0.1842,0.2951,-0.0396,1.2188
16:51:59:206,1.9286,0.5249,6.4262,35.7394,0.0156,0.3169,0.0472,1.3281
16:51:59:227,3.1365,1.1797,7.2043,36.2557,-0.1785,0.4128,0.0445,1.3281
16:51:59:248,3.6261,1.3402,7.9441,36.6474,-0.1817,0.4517,-0.0644,1.25
16:51:59:271,3.3484,0.9559,7.8926,37.4113,-0.2403,0.4522,-0.1107,1.2344
16:51:59:288,2.8947,0.8984,8.4445,35.0519,-0.2867,0.3848,-0.0258,1.2344
16:51:59:306,2.7918,0.7153,9.0203,35.4731,-0.337,0.2575,0.1401,1.3125
16:51:59:325,3.121,0.5896,9.6104,35.7185,-0.4041,0.1015,0.2957,1.4844
16:51:59:346,3.3783,0.3705,10.1647,36.1652,-0.496,-0.0213,0.4341,1.5469
16:51:59:365,3.3699,0.0485,10.604,35.8774,-0.6142,-0.0498,0.5913,1.4531
16:51:59:391,3.2933,-0.4064,11.3522,37.2456,-0.6193,0.013,0.7332,1.1875
16:51:59:408,2.866,-0.8062,12.2776,34.7058,-0.3892,0.1007,0.8651,0.7812
16:51:59:425,2.6086,-1.0409,12.5577,37.0473,0.058,0.0426,0.9737,0.2031
16:51:59:445,3.2167,-0.5632,12.262,35.0602,0.4588,-0.2586,1.035,359.5156
16:51:59:466,3.9649,-0.0197,10.604,37.4578,0.3469,-0.4378,1.0224,358.5938
16:51:59:488,4.5838,-0.0461,9.7301,37.9606,-0.1002,-0.335,0.8563,356.8438
16:51:59:505,4.591,-0.3873,10.1934,36.3769,-0.2954,-0.3183,0.5617,355.625
16:51:59:525,3.8189,-0.9595,10.5035,36.4143,-0.2203,-0.4147,0.3308,354.4844
16:51:59:545,3.2646,-1.2001,10.2234,37.0838,-0.1226,-0.5294,0.2536,353.7031
16:51:59:565,3.5399,-1.1929,9.729,36.7637,-0.2108,-0.5353,0.2363,353.2656
16:51:59:589,4.1864,-1.1175,9.5853,36.5951,-0.4355,-0.3758,0.1817,352.9688
16:51:59:606,4.3743,-1.5149,9.4979,35.3638,-0.659,-0.0711,0.0919,352.6875
16:51:59:626,4.1158,-1.9459,9.802,37.4367,-0.6683,0.3249,-0.0314,352.5
16:51:59:652,3.4262,-1.9315,10.0773,35.6653,-0.3692,0.6288,-0.1296,352.4375
16:51:59:674,2.4494,-1.5065,9.6571,36.8399,0.0241,0.833,-0.0974,352.5469
16:51:59:692,1.7036,-0.9367,8.8311,36.908,0.3211,1.0064,0.0611,352.7969
16:51:59:709,1.5156,-0.5094,8.1344,37.9283,0.5024,1.1571,0.2285,352.9219
16:51:59:725,1.5336,-0.2759,7.8196,36.5811,0.6375,1.1452,0.3412,353.0781
16:51:59:745,1.8544,0.0521,8.0566,35.6775,0.8151,0.9481,0.3676,353.0156
16:51:59:768,2.3871,0.5656,8.0063,38.1074,0.9176,0.718,0.3029,352.75
16:51:59:789,2.6062,0.9212,7.6065,36.615,0.825,0.5848,0.1918,352.3438
16:51:59:808,2.4661,0.9906,7.1839,37.4172,0.5597,0.5017,0.0858,351.8594
16:51:59:825,2.4039,0.8661,7.3766,37.5125,0.2803,0.4186,-0.0375,351.4062
16:51:59:845,2.6134,0.9978,8.0985,37.3176,0.1464,0.2578,-0.2229,351.125
16:51:59:865,2.7451,1.157,8.7461,36.3186,0.123,0.0471,-0.4396,350.9688
16:51:59:888,2.7894,1.1606,9.0837,36.7391,0.0777,-0.1707,-0.6186,350.9844
16:51:59:906,2.787,1.1618,9.3914,35.9596,-0.0459,-0.4032,-0.703,351.4375
16:51:59:925,2.9809,1.0229,9.8846,37.1882,-0.256,-0.5292,-0.7187,352.0312
16:51:59:946,3.2802,0.6494,10.5047,37.322,-0.4899,-0.4626,-0.7313,352.7969
16:51:59:965,3.3209,-0.1071,11.1774,35.56,-0.5655,-0.5294,-0.7619,353.5938
16:51:59:991,4.366,0.0257,12.3398,35.8114,-0.4784,-0.8011,-0.8399,354.4531
16:52:00:010,3.4538,-1.7124,11.2062,35.9247,-0.7277,-0.4786,-0.9262,355.375
16:52:00:025,0.4095,-2.8198,13.179,35.853,-1.1796,0.5707,-0.8609,356.3438
16:52:00:044,-2.0445,-2.9395,15.4415,36.514,-0.8848,1.2594,-0.5105,357.3594
16:52:00:065,-1.5621,-2.8461,13.9811,36.0041,0.2958,1.0575,0.2078,358.5625
16:52:00:088,0.4885,-1.7903,11.9448,36.3635,1.4346,0.4999,0.9324,359.6094
16:52:00:105,2.3333,-0.993,9.4357,35.8034,1.821,0.4613,1.3527,359.9062
16:52:00:125,3.3747,-0.3753,8.0099,36.9063,1.5408,0.6061,1.3889,359.1562
16:52:00:145,3.4789,-0.0724,7.5155,37.028,0.9975,0.6013,1.0999,357.625
16:52:00:164,2.7666,-0.1574,7.3324,36.3819,0.459,0.4189,0.6291,355.9219
16:52:00:191,1.9969,-0.2053,7.4832,36.5531,0.0036,0.2277,0.1593,354.3281
16:52:00:208,1.5468,-0.0221,7.9142,36.9691,-0.2765,0.1305,-0.2183,353.2656
16:52:00:225,0.9925,0.2125,8.0925,37.8815,-0.2938,0.1712,-0.5001,352.7969
16:52:00:245,0.1091,0.3274,7.8926,37.0336,-0.096,0.3007,-0.6436,352.8594
16:52:00:267,-1.112,0.2113,7.4844,36.4053,0.1925,0.3918,-0.5653,353.2969
16:52:00:290,-1.6076,0.1359,7.6532,37.7614,0.4479,0.3326,-0.2309,354
16:52:00:307,-0.4727,0.4866,7.2929,37.5661,0.6907,0.077,0.2626,354.6875
16:52:00:379,1.1182,0.8829,6.9924,36.6693,0.7869,-0.1476,0.6251,355.1562
16:52:00:380,1.9933,1.1486,6.9613,37.4063,0.6766,-0.175,0.7234,354.8438
16:52:00:380,2.2148,1.2348,7.4916,39.5627,0.4676,-0.1872,0.6672,354.125
16:52:00:392,2.2626,1.1833,8.308,38.9848,0.2899,-0.2181,0.599,353.25
16:52:00:409,2.7379,1.2073,8.7856,38.1794,0.2303,-0.2762,0.5985,352.4688
16:52:00:425,3.7387,1.5975,9.2501,38.1794,0.209,-0.3662,0.6182,351.7969
16:52:00:446,4.336,2.0596,9.8331,38.2263,0.1344,-0.3609,0.5583,351.1094
16:52:00:466,4.5431,2.1338,10.3814,38.9269,-0.0352,-0.2469,0.4818,350.4062
16:52:00:489,4.105,1.7328,10.956,38.6415,-0.3301,-0.0685,0.4563,349.7656
16:52:00:506,3.7973,0.9116,11.6204,38.4745,-0.6898,0.1342,0.5258,349.2656
16:52:00:525,3.9182,0.2233,12.5912,37.0614,-0.9362,0.2748,0.5726,348.7812
16:52:00:546,4.3169,0.1909,13.3634,38.0278,-0.8374,0.2091,0.4549,348.2344
16:52:00:566,4.5551,0.6458,13.3622,39.3816,-0.4329,-0.0285,0.1953,347.6875
16:52:00:587,3.8452,0.3717,11.6,38.6534,-0.097,-0.2434,-0.0202,347.2344
16:52:00:605,3.6249,-0.3968,10.8255,36.6932,-0.2936,-0.2903,-0.0157,347.0469
16:52:00:624,3.862,-1.1941,11.1487,38.7451,-0.6435,-0.2879,-0.0165,347.0781
16:52:00:645,3.6178,-1.3569,11.5605,36.9498,-0.6528,-0.3089,-0.2455,347.125
16:52:00:667,2.4602,-1.3761,11.0661,37.3572,-0.3343,-0.3161,-0.5909,347.2031
16:52:00:691,1.5899,-1.1726,10.2557,38.7135,-0.0043,-0.3223,-0.7872,347.5469
16:52:00:710,1.3971,-1.0552,9.6787,37.2009,0.0657,-0.1238,-0.7419,348.2188
16:52:00:727,1.123,-1.0588,9.3818,38.1378,0.0076,0.082,-0.7038,348.2188
16:52:00:744,0.7555,-1.1402,9.1915,37.7463,0.0399,0.2485,-0.6636,349.125
16:52:00:766,0.3126,-1.0457,8.9113,40.3875,0.1863,0.2786,-0.6058,350
16:52:00:790,-0.1723,-0.7727,8.4995,38.4069,0.3839,0.1933,-0.4924,351.6094
16:52:00:809,-0.2657,-0.3226,8.0698,37.5201,0.5845,0.0618,-0.3539,352.3594
16:52:00:825,0.206,0.258,7.7202,38.4759,0.7432,-0.0487,-0.2705,353.0469
16:52:00:843,0.7794,0.8182,7.1851,37.4431,0.7749,-0.1369,-0.2561,353.5312
16:52:00:865,1.1745,1.2659,6.8906,38.4125,0.6524,-0.1957,-0.2583,353.875
16:52:00:888,1.2631,1.424,7.0726,37.5155,0.4561,-0.1856,-0.2458,354.1094
16:52:00:907,0.9362,1.1115,7.9441,38.1764,0.3722,-0.1619,-0.1725,354.3281
16:52:00:926,0.7339,0.7679,8.958,38.5504,0.5003,-0.1819,-0.0418,354.5625
16:52:00:944,1.2786,0.9607,9.3626,36.8121,0.7091,-0.1891,0.0187,354.7969
16:52:00:965,1.8652,1.4443,9.213,38.4925,0.8058,-0.0884,-0.0348,354.9531
16:52:00:989,2.3105,2.1482,8.9532,38.631,0.7999,-0.0535,-0.1587,354.9531
16:52:01:007,2.5212,2.9598,9.2968,40.1106,0.7914,-0.1079,-0.2902,354.8594
16:52:01:025,2.5284,3.6673,9.5458,37.9858,0.7256,-0.1223,-0.3659,354.8125
16:52:01:045,2.1094,4.2683,9.6835,38.7234,0.548,-0.0282,-0.2921,354.9062
16:52:01:065,1.4067,4.3952,9.6954,38.4832,0.2582,0.1435,-0.0255,355.1562
16:52:01:090,1.372,4.1785,10.0007,39.2941,0.0449,0.2732,0.2131,355.5
16:52:01:106,1.9011,3.732,10.4963,37.1762,0.0841,0.164,0.2371,355.7656
16:52:01:125,3.5076,4.2084,11.3403,39.0875,0.3871,-0.2882,0.0264,355.75
16:52:01:146,4.6006,5.2559,10.5358,36.5469,0.3988,-0.6677,-0.1898,355.4688
16:52:01:166,3.9458,4.5197,8.6887,38.6154,-0.5213,-0.3545,-0.0716,355.1719
16:52:01:190,2.4961,1.4072,8.7701,38.2354,-1.5988,0.4216,0.174,355.25
16:52:01:206,2.3428,-0.2903,11.6802,39.8168,-1.6084,0.5521,0.2219,355.5
16:52:01:224,2.8767,-0.993,12.8271,38.8914,-0.8134,0.028,0.0768,355.5781
16:52:01:247,3.3017,-0.987,12.1663,38.2061,-0.1263,-0.461,-0.038,355.4688
16:52:01:264,3.4418,-0.6626,10.8123,37.9525,0.0548,-0.4429,-0.0889,355.4062
16:52:01:283,2.8109,-0.726,9.7529,38.7423,-0.1077,-0.2405,0.0198,355.4531
16:52:01:309,2.5272,-0.9798,9.4919,37.6522,-0.1793,-0.2218,0.1143,355.5781
16:52:01:327,2.7702,-1.1043,9.1771,39.2788,-0.0446,-0.3824,0.0155,355.6562
16:52:01:345,3.0312,-0.9978,8.6767,39.6405,0.1989,-0.5278,-0.2657,355.5938
16:52:01:365,2.866,-0.6626,8.1847,39.4791,0.5128,-0.6741,-0.5765,355.5312
16:52:01:390,2.4135,-0.0581,7.737,38.4385,0.8143,-0.8141,-0.7795,355.6719
16:52:01:408,1.8796,1.9591,6.6201,38.938,0.9693,-0.8626,-0.808,356.1562
16:52:01:425,1.8987,2.7719,6.486,39.1429,0.9182,-0.7494,-0.6692,356.9062
16:52:01:444,2.0495,3.41,6.6548,39.7846,0.7416,-0.4381,-0.434,357.7344
16:52:01:465,2.1812,3.8672,7.0558,38.4808,0.5576,-0.0423,-0.1483,358.5312
16:52:01:492,2.2112,4.0695,7.5514,39.9075,0.3789,0.4959,0.1529,359.0781
16:52:01:508,2.1274,4.0719,8.0554,38.6194,0.303,1.0008,0.4081,359.3438
16:52:01:525,2.0136,3.9846,8.4277,39.6166,0.3967,1.2818,0.6272,359.2188
16:52:01:543,2.4494,4.1294,8.6994,40.3225,0.5712,1.2829,0.8472,358.7344
16:52:01:566,3.3221,4.4083,8.7569,39.4692,0.6551,1.0898,1.0251,357.9688
16:52:01:591,3.8883,4.6106,8.7007,40.9322,0.4809,0.8898,1.0741,356.875
16:52:01:609,4.0044,4.1617,9.0622,41.0245,0.0098,0.6993,1.0134,354.8125
16:52:01:626,3.2359,2.955,10.1001,41.2097,-0.5692,0.5116,0.8453,353.4688
16:52:01:645,2.5918,1.7711,11.5988,40.4689,-0.9311,0.2597,0.6597,352.2031
16:52:01:665,2.605,1.4659,13.161,41.1089,-0.8334,-0.0703,0.4746,351.2188
16:52:01:691,2.8097,2.2428,13.1479,40.64,-0.2632,-0.5052,0.3029,350.5312
16:52:01:707,2.465,2.2284,11.6407,40.313,0.323,-0.9947,0.293,350.125
16:52:01:729,2.9402,1.4898,11.0805,39.642,0.1512,-0.7755,0.5172,349.8594
16:52:01:744,3.2491,0.513,11.709,39.0445,-0.3274,-0.2248,0.6459,349.5938
16:52:01:764,2.8744,-0.2364,11.9771,41.2865,-0.4174,-0.0101,0.5026,349.0938
16:52:01:790,2.5475,-0.4208,11.5761,39.685,-0.2004,0.0176,0.2645,348.4219
16:52:01:807,2.5021,-0.1095,10.5358,39.6189,0.0803,-0.0509,0.0693,347.9062
16:52:01:823,2.3357,0.2592,9.2765,39.487,0.2239,-0.0741,-0.083,347.6562
16:52:01:848,2.1082,0.434,8.539,40.2293,0.1514,0.0573,-0.1765,347.5625
16:52:01:863,1.7263,0.5285,8.2158,40.5422,0.0127,0.2674,-0.2199,347.5781
16:52:01:885,1.4941,0.683,8.0051,40.0735,-0.0081,0.4064,-0.2231,347.7188
16:52:01:905,1.5611,1.1055,7.5227,40.4308,0.132,0.4469,-0.2008,347.9062
16:52:01:926,1.8736,1.6849,6.9565,41.4405,0.3493,0.3808,-0.1845,348.125
16:52:01:944,2.1465,2.3302,6.3735,39.9904,0.5182,0.3196,-0.2047,348.3281
16:52:01:964,2.4362,2.9491,6.0982,41.467,0.5704,0.2919,-0.2295,348.4531
16:52:01:991,2.7642,3.4961,6.0694,39.8314,0.4969,0.2684,-0.2482,348.5781
16:52:02:007,2.8732,3.9068,6.1736,39.2959,0.304,0.2871,-0.2724,348.7188
16:52:02:026,2.5416,3.7499,6.565,39.6225,-0.023,0.3973,-0.2801,349
16:52:02:047,2.2064,3.1849,7.4449,42.5232,-0.4222,0.5646,-0.2372,349.2188
16:52:02:063,2.0867,2.7348,8.5546,42.7339,-0.6725,0.6637,-0.2242,349.4844
16:52:02:084,2.1453,2.7204,9.4177,40.5373,-0.6353,0.62,-0.2993,349.7344
16:52:02:106,2.1166,2.979,9.7948,42.4319,0.0178,0.3441,-0.6034,349.9531
16:52:02:125,2.0196,3.4614,9.796,40.1072,0.2958,0.2621,-0.6687,350.2656
16:52:02:144,2.1286,4.1103,9.4201,41.6273,0.2646,0.3625,-0.6508,350.7656
16:52:02:167,1.955,4.2563,9.3315,41.0051,-0.0944,0.628,-0.5787,351.3906
16:52:02:189,1.4235,3.8373,10.2018,42.0117,-0.4582,0.8384,-0.5099,352.0938
16:52:02:208,0.6861,2.9898,11.8047,42.1599,-0.508,0.7744,-0.4902,353.375
