Time,Acc_X,Acc_Y,Acc_Z,Meg,Gyr_X,Gyr_Y,Gyr_Z,Ore
16:33:38:684,-0.0204,1.7026,9.9764,55.1887,0.5387,-0.2811,0.7495,258.89
16:33:38:701,0.2928,2.424,9.7362,55.1994,0.5632,-0.3865,0.7836,258.19
16:33:38:721,1.141,1.7686,9.3943,55.1473,0.3588,-0.5472,0.6878,257.44
16:33:38:742,1.2279,0.8876,9.5003,55.1368,-0.0586,-0.5408,0.6345,256.82
16:33:38:762,1.0259,0.992,10.3256,55.3472,-0.4046,-0.3354,0.7846,256.19
16:33:38:782,1.5081,0.7104,11.1128,55.5721,-0.527,0.165,0.8826,255.32
16:33:38:801,2.3192,-0.2901,11.4658,55.8521,-0.5643,0.6462,0.7538,254.3
16:33:38:822,2.3567,-0.9147,11.4697,55.9967,-0.4227,0.692,0.379,253.45
16:33:38:842,1.794,-1.1338,10.9633,56.048,-0.1459,0.4716,0.1054,253.02
16:33:38:862,1.2697,-0.4368,10.3273,56.1118,0.1171,0.2268,0.0117,252.87
16:33:38:883,1.1305,0.4126,9.3789,55.8977,0.2917,0.099,0.0149,252.82
16:33:38:902,0.9338,0.7835,8.4997,55.9931,0.2811,0.2246,0.0522,252.76
16:33:38:922,0.8113,1.1224,8.0841,56.2033,0.1192,0.2736,0.0713,252.66
16:33:38:942,0.7624,1.2116,8.2939,56.0995,-0.1895,0.0809,0.0149,252.57
16:33:38:962,0.7689,0.7364,8.8669,56.3435,-0.3151,0.1192,-0.0373,252.57
16:33:38:984,0.9233,0.6798,9.0632,56.5222,-0.1384,0.3801,-0.0362,252.6
16:33:39:002,1.0094,0.6324,8.6027,56.594,-0.0192,0.4376,-0.0756,252.61
16:33:39:022,0.5337,0.7814,8.1199,56.4729,-0.0937,0.411,-0.1725,252.68
16:33:39:042,0.3429,0.6766,7.892,56.5698,-0.329,0.5408,-0.131,252.86
16:33:39:065,0.1943,0.4035,8.9271,56.6561,-0.4983,0.379,-0.0511,252.93
16:33:39:083,-0.1691,0.4296,9.43,56.5672,-0.4216,0.5685,0.0713,252.95
16:33:39:102,-0.1341,0.6379,9.7094,56.4709,-0.2683,0.5142,0.2853,252.76
16:33:39:122,0.0866,0.9766,9.544,56.6027,-0.0788,0.2576,0.3364,252.4
16:33:39:142,0.1118,1.2126,9.4511,56.5184,0.0554,0.0202,0.329,252.02
16:33:39:162,0.0957,1.2344,9.3535,56.6038,0.1331,-0.0841,0.3418,251.66
16:33:39:182,0.1581,1.3717,9.3236,56.5532,0.1224,-0.1011,0.379,251.29
16:33:39:202,0.2733,1.5418,9.2867,56.5558,0.066,0.0224,0.4472,250.87
16:33:39:222,0.339,1.6487,9.3369,56.712,0.0511,0.1767,0.4748,250.37
16:33:39:242,0.281,1.5211,9.2251,56.8888,0.0937,0.2747,0.477,249.84
16:33:39:262,0.1554,1.3638,9.1444,56.5241,0.0586,0.2726,0.4621,249.31
16:33:39:282,0.1313,1.1493,9.841,56.5942,-0.0202,0.1395,0.412,248.82
16:33:39:302,0.4662,1.4825,10.5285,56.6612,0.148,-0.1033,0.5568,248.35
16:33:39:322,1.7222,1.8724,10.4554,56.8054,0.2779,-0.1214,0.7016,247.72
16:33:39:342,1.407,1.815,10.562,57.1218,0.1746,0.0426,0.6196,246.99
16:33:39:362,0.4864,2.4051,11.1089,57.1711,0.1129,0.0277,0.6324,246.34
16:33:39:383,0.6413,3.2723,11.1526,57.094,0.1895,-0.0735,0.5664,245.67
16:33:39:402,0.2664,3.9068,10.6626,57.2836,0.1075,-0.3428,0.2406,245.19
16:33:39:429,0.2227,2.1724,10.4202,57.1045,-0.2076,-0.4344,-0.1395,245.13
16:33:39:445,-0.0485,0.4704,10.7483,57.3926,-0.6154,-0.3215,-0.4642,245.5
16:33:39:462,-1.6646,0.6484,12.0688,57.3629,-0.9646,-0.1522,-0.0607,246.05
16:33:39:483,-2.0245,-1.3125,12.6483,57.062,-0.8975,-0.2065,0.4557,246
16:33:39:509,-1.2741,-1.7435,12.6699,57.3752,-0.3865,-0.51,0.7591,245.42
16:33:39:525,-0.4979,-1.6636,12.004,57.3972,0.2587,-0.1831,0.7996,244.55
16:33:39:542,-1.0963,-1.0324,11.2558,57.3634,0.9028,-0.2513,0.8187,243.65
16:33:39:562,-0.8291,-0.7928,9.4889,57.6615,1.4107,-0.1682,0.9486,242.69
16:33:39:585,0.629,-0.794,7.8859,57.698,1.5736,0.3982,0.8624,241.49
16:33:39:604,1.9663,-0.5977,7.183,57.771,1.4107,0.7389,0.4748,240.63
16:33:39:622,2.5438,-0.3139,6.6397,57.7222,0.9816,0.7602,-0.0607,240.11
16:33:39:642,1.8177,0.5155,6.2671,57.6978,0.3311,0.7197,-0.4003,240.16
16:33:39:669,0.4735,1.169,6.5045,57.4635,-0.2864,0.5068,-0.445,240.49
16:33:39:684,-0.2063,1.5284,6.9101,57.4786,-0.7815,0.3268,-0.3439,240.92
16:33:39:702,-0.3996,1.9973,7.8685,57.7124,-1.0572,0.1405,-0.2694,241.22
16:33:39:722,0.0168,1.8791,8.2711,57.42,-1.0881,-0.1565,-0.1565,241.49
16:33:39:742,0.2066,1.7207,8.4842,57.3485,-1.021,-0.3205,-0.066,241.69
16:33:39:764,0.1158,1.3293,8.7824,57.3861,-0.8549,-0.2236,-0.0341,241.79
16:33:39:783,-0.0672,1.1665,9.2228,57.3339,-0.6047,-0.0373,-0.0745,241.87
16:33:39:802,-0.1163,1.1032,9.3563,57.4449,-0.3268,0.1618,-0.1661,242
16:33:39:822,-0.1163,1.0269,9.4247,57.736,-0.1107,0.3087,-0.2949,242.23
16:33:39:845,-0.0851,1.488,9.9419,57.7574,-0.0884,0.1427,-0.444,242.62
16:33:39:862,-0.2937,1.2285,9.7202,57.8966,-0.1522,-0.0777,-0.5738,243.19
16:33:39:883,-0.155,1.6044,9.771,58.176,-0.1373,-0.1852,-0.6037,243.89
16:33:39:902,-0.1936,1.6085,9.9234,58.2586,-0.1608,-0.3694,-0.5834,244.62
16:33:39:927,-0.0984,1.5809,10.1837,58.306,-0.3024,-0.5494,-0.5376,245.33
16:33:39:943,-0.2174,1.7206,10.4597,58.1728,-0.3875,-0.3492,-0.4472,245.97
16:33:39:962,-0.4515,1.7119,10.7875,58.3575,-0.3758,0.0106,-0.3673,246.5
16:33:39:983,-0.6102,1.5434,11.2219,58.105,-0.4482,0.2119,-0.3662,246.95
16:33:40:008,-0.3967,1.3342,11.9935,58.3078,-0.5951,0.0713,-0.4376,247.42
16:33:40:024,-0.2723,1.2482,12.9929,58.3101,-0.5888,-0.3875,-0.4738,247.98
16:33:40:042,0.0751,1.2111,13.3468,58.5416,-0.3268,-0.8624,-0.3205,248.53
16:33:40:062,0.7642,0.1687,12.9093,58.5501,0.0937,-0.9678,-0.0596,248.84
16:33:40:088,1.0374,-0.9804,12.3046,58.7537,0.3748,-0.757,0.0639,248.88
16:33:40:104,0.8363,-1.9052,11.7402,58.8639,0.4472,-0.4131,0.049,248.83
16:33:40:122,0.4764,-2.2082,11.3888,58.9021,0.5313,0.1235,0.0181,248.81
16:33:40:142,0.9028,-2.0284,11.0181,59.0601,0.7825,0.477,-0.0617,248.81
16:33:40:169,1.4622,-1.6849,10.161,58.8502,0.9923,0.5121,-0.2406,248.91
16:33:40:185,1.3704,-1.4704,9.0939,59.0488,0.9039,0.3609,-0.4695,249.23
16:33:40:202,0.4624,-1.0635,8.4492,59.0668,0.6313,0.3013,-0.6271,249.8
16:33:40:222,-0.3861,-0.5481,8.3726,58.8106,0.395,0.2119,-0.5919,250.49
16:33:40:242,-0.849,0.0127,8.3433,58.714,0.3843,0.214,-0.3748,251.09
16:33:40:265,-0.7628,0.3851,7.9123,58.9143,0.4855,0.2129,-0.1491,251.42
16:33:40:283,-0.5809,0.5956,7.5765,58.8622,0.4929,0.1022,-0.0735,251.53
16:33:40:302,-0.7264,1.0213,7.4063,59.0255,0.4951,-0.0245,-0.0021,251.59
16:33:40:322,-0.5505,1.2871,7.3366,59.1012,0.5132,-0.1075,0.1427,251.56
16:33:40:345,0.029,1.3747,7.1695,59.0349,0.5046,-0.1235,0.2576,251.38
16:33:40:362,0.7936,1.5075,7.0189,58.8867,0.379,-0.0468,0.2853,251.09
16:33:40:384,1.2349,1.6548,7.0376,58.9157,0.1416,0.1086,0.2065,250.76
16:33:40:402,1.2351,1.6709,7.4666,58.9002,-0.1778,0.2385,0.115,250.57
16:33:40:426,0.9158,1.7261,8.2706,59.069,-0.4227,0.3396,0.1129,250.41
16:33:40:444,0.7859,1.9186,9.0581,59.1206,-0.5036,0.4024,0.2289,250.21
16:33:40:463,1.0172,1.907,9.6648,58.9506,-0.4887,0.3311,0.3215,249.87
16:33:40:484,1.105,1.8451,10.2602,59.3057,-0.4088,0.1703,0.3268,249.43
16:33:40:506,1.0123,2.0858,10.8053,59.4385,-0.2044,-0.0021,0.3258,249.1
16:33:40:524,0.6644,2.3707,10.7182,59.536,0.1129,0.0767,0.3418,248.74
16:33:40:542,0.6034,2.6391,10.3244,59.695,0.2832,0.2268,0.3407,248.36
16:33:40:562,0.6251,2.7529,9.9778,59.6181,0.2364,0.2843,0.2811,247.98
16:33:40:588,0.5481,2.6472,10.0119,59.6984,0.0458,0.3173,0.2151,247.67
16:33:40:605,0.2368,2.4798,10.4387,59.6815,-0.1757,0.297,0.1863,247.43
16:33:40:622,-0.0835,2.6288,11.1251,59.5833,-0.3237,0.3119,0.1916,247.21
16:33:40:643,-0.1237,1.982,11.2678,59.6245,-0.428,0.4003,0.1224,246.98
16:33:40:668,-0.873,0.5659,11.4597,59.5917,-0.7325,0.2981,-0.0937,246.86
16:33:40:738,-1.8975,-0.7926,12.4932,59.6383,-0.9624,0.1437,-0.231,247.01
16:33:40:741,-2.2783,-1.4092,13.4769,59.8411,-0.6718,0.0447,-0.1299,247.26
16:33:40:744,-2.0887,-1.6222,13.0379,60.1508,-0.0458,0.0575,0.0075,247.36
16:33:40:746,-1.9521,-1.6845,11.4659,60.6585,0.3992,0.1001,0.017,247.33
16:33:40:765,-2.0274,-1.6405,10.0247,60.7542,0.4557,0.0948,-0.0926,247.33
16:33:40:783,-2.1115,-1.4916,9.0721,60.5213,0.3439,0.0692,-0.1203,247.43
16:33:40:802,-1.6889,-1.2373,8.5463,60.5768,0.3268,0.0192,-0.0309,247.53
16:33:40:822,-0.8148,-0.8251,7.9863,60.2491,0.4503,-0.0756,0.066,247.51
16:33:40:844,-0.1056,-0.427,7.242,60.3433,0.5717,-0.2332,0.1075,247.41
16:33:40:862,0.1233,-0.0226,6.4688,60.32,0.5547,-0.4291,0.1054,247.3
16:33:40:883,0.0607,0.5375,6.0917,60.5113,0.378,-0.4748,0.1033,247.23
16:33:40:902,0.1055,1.1123,6.0352,60.5022,0.131,-0.4024,0.1065,247.16
16:33:40:926,0.267,1.387,6.3094,60.6592,-0.2193,-0.3077,0.0745,247.08
16:33:40:942,0.3283,1.4274,7.3277,60.7736,-0.6548,-0.3343,-0.0383,247.06
16:33:40:962,0.0988,1.4454,8.7815,60.6426,-0.9284,-0.3577,-0.1129,247.17
16:33:40:983,-0.0472,1.1697,9.9484,60.8991,-0.905,-0.3215,-0.131,247.34
16:33:41:007,-0.02,0.9488,10.4343,60.8629,-0.7112,-0.2172,-0.1714,247.53
16:33:41:022,-0.0012,0.9404,10.684,60.9685,-0.4855,-0.1533,-0.2704,247.76
16:33:41:042,-0.1608,1.1073,10.7107,61.2025,-0.2789,-0.2449,-0.3939,248.12
16:33:41:062,-0.4964,1.2559,10.4601,61.3643,-0.0969,-0.6132,-0.4131,248.6
16:33:41:087,-0.2471,1.883,10.8668,61.3314,0.0405,-0.3769,-0.3535,249.14
16:33:41:103,0.3984,2.018,10.9369,61.0938,0.2938,-0.5227,-0.1725,249.47
16:33:41:122,0.8774,2.2317,10.4179,61.0982,0.4333,-0.5398,-0.066,249.66
16:33:41:142,0.6659,2.3119,10.0963,60.8835,0.346,-0.4046,0.0437,249.75
16:33:41:168,0.6674,2.2659,10.2747,60.6538,0.1373,-0.2055,0.1139,249.69
16:33:41:183,0.6974,2.2455,10.9014,60.7132,-0.0351,-0.1129,0.0277,249.58
16:33:41:202,0.7164,2.5359,11.8288,60.7207,-0.0564,-0.1895,-0.0745,249.6
16:33:41:223,1.3146,2.2979,12.1218,60.7914,0.0043,-0.3822,-0.1118,249.71
16:33:41:249,1.6857,0.8873,11.8742,60.9761,-0.1448,-0.4812,-0.1235,249.88
16:33:41:264,1.4905,-0.6131,12.2252,61.3437,-0.2981,-0.33,-0.0756,250.04
16:33:41:283,1.5324,-1.4022,12.7705,61.1879,-0.1022,-0.0926,-0.0756,250.13
16:33:41:303,1.8438,-1.5443,12.3849,61.2283,0.4078,0.1192,-0.164,250.24
16:33:41:322,2.4037,-1.5611,10.9143,61.0599,0.8294,0.1246,-0.3992,250.47
16:33:41:345,2.2014,-1.3818,9.3112,61.2838,0.8262,0.083,-0.6803,251.01
16:33:41:362,1.1888,-1.2583,8.2871,61.0881,0.5472,0.1884,-0.7868,251.82
16:33:41:383,0.1746,-0.9943,7.95,61.3498,0.2885,0.3599,-0.692,252.67
16:33:41:402,-0.4115,-0.5082,7.7224,61.2068,0.1927,0.4312,-0.5004,253.36
16:33:41:425,-0.5364,-0.0213,7.3398,61.078,0.2151,0.3971,-0.3449,253.82
16:33:41:442,-0.5561,0.4017,6.7865,60.8734,0.2065,0.2481,-0.2704,254.13
16:33:41:462,-0.7137,0.8258,6.3691,60.7914,0.1001,0.0958,-0.2151,254.39
16:33:41:483,-0.7299,1.1532,6.1167,60.7118,-0.0713,0.0224,-0.1129,254.59
16:33:41:507,-0.4822,1.304,6.269,60.9151,-0.2981,0.0617,0.0277,254.68
16:33:41:523,-0.0281,1.226,6.7893,60.863,-0.5345,0.1224,0.1437,254.59
16:33:41:542,0.4322,1.0689,7.4681,61.022,-0.7825,0.148,0.2119,254.39
16:33:41:562,0.5786,1.0051,8.407,61.2595,-0.9507,0.2119,0.2715,254.11
16:33:41:587,0.8046,1.0495,9.4392,61.5805,-0.9262,0.2513,0.2704,253.76
16:33:41:603,0.788,1.165,10.2329,61.4986,-0.6995,0.3066,0.2246,253.44
16:33:41:622,0.749,1.1751,10.5032,61.5563,-0.428,0.3258,0.1352,253.19
16:33:41:644,0.4921,1.3059,10.6584,61.5671,-0.1948,0.3194,0.0224,253.04
16:33:41:667,0.2666,1.6029,10.6401,61.4681,-0.0117,0.2491,-0.017,253.01
16:33:41:683,0.0356,1.9365,10.4929,61.6207,0.0958,0.1757,-0.0213,253.02
16:33:41:702,0.022,2.1653,10.4151,61.7271,0.1246,0.0341,-0.0543,253.04
16:33:41:723,-0.1131,2.2255,10.3534,61.5286,0.0202,-0.1735,-0.1001,253.12
16:33:41:748,-0.3012,2.1444,10.4562,61.3875,-0.1778,-0.2406,-0.05,253.23
16:33:41:763,-0.1211,1.8536,10.8166,61.3753,-0.3162,-0.131,-0.0021,253.27
16:33:41:783,-0.0622,1.7659,11.3963,61.2572,-0.3524,-0.0085,0.0192,253.26
16:33:41:803,0.0928,1.8201,12.0379,61.3597,-0.2033,0.0319,0.0767,253.22
16:33:41:823,0.217,2.2073,12.3221,61.4065,-0.0085,0.0841,0.0937,253.12
16:33:41:845,0.2434,1.7969,12.1474,61.4579,0.1011,0.2374,0.0415,253.01
16:33:41:862,-0.4098,0.3144,11.9168,61.2563,-0.1703,0.3002,-0.1107,253
16:33:41:888,-0.9575,-1.4981,12.7083,61.2667,-0.5355,0.033,-0.2108,253.17
16:33:41:902,-0.7811,-2.4979,13.6972,61.355,-0.3652,-0.3002,-0.2427,253.39
16:33:41:926,-0.2972,-2.6366,13.3508,61.3125,0.3354,-0.346,-0.263,253.67
16:33:41:942,-0.1034,-2.4373,11.3792,61.4544,0.9273,-0.214,-0.2736,253.97
16:33:41:963,-0.3147,-1.9505,9.2987,61.4993,1.0497,0.0043,-0.2885,254.28
16:33:41:985,-0.5288,-1.5352,7.9435,61.5904,0.8645,0.2002,-0.263,254.63
16:33:42:003,-0.7229,-1.0569,7.1081,61.36,0.609,0.2672,-0.2183,254.87
16:33:42:023,-0.8845,-0.5683,6.5876,61.4333,0.4205,0.3013,-0.1341,255.06
16:33:42:042,-0.9593,-0.1077,6.5362,61.3251,0.2843,0.1693,0.0096,255.15
16:33:42:062,-0.9096,0.2571,6.5437,61.2216,0.1874,-0.0671,0.1597,255.08
16:33:42:083,-0.8233,0.5634,6.4998,60.8772,0.0852,-0.2183,0.2864,254.86
16:33:42:102,-0.5605,0.8782,6.4292,60.6832,-0.0745,-0.2459,0.3758,254.52
16:33:42:122,-0.2884,1.0282,6.5208,60.5357,-0.3045,-0.1565,0.3843,254.1
16:33:42:142,-0.2528,1.0907,7.1462,60.6491,-0.5579,-0.0575,0.3471,253.68
16:33:42:167,-0.2848,1.0101,8.0067,60.9108,-0.7783,0.0043,0.3471,253.27
16:33:42:183,0.0439,0.8674,8.955,61.144,-0.8645,-0.0479,0.2843,252.88
16:33:42:202,0.3297,0.9784,9.8185,61.3235,-0.7878,-0.1565,0.1341,252.59
16:33:42:222,0.371,1.0285,10.3818,61.4949,-0.6111,-0.1863,-0.0628,252.49
16:33:42:248,0.2705,1.0112,10.8988,61.4582,-0.3875,-0.1171,-0.2587,252.61
16:33:42:263,0.0597,0.844,11.4508,61.4605,-0.1831,0.016,-0.3343,252.93
16:33:42:283,-0.0775,0.9733,12.3403,61.4318,0.1267,0.2289,-0.2757,253.3
16:33:42:308,0.3577,1.3891,12.7775,61.4569,0.5142,0.1757,-0.2129,253.58
16:33:42:323,0.5348,1.543,12.4432,61.5665,0.7836,0.0287,-0.2289,253.81
16:33:42:345,0.5754,1.6771,12.0583,61.622,0.9326,0.2523,-0.3024,254.08
16:33:42:362,0.5684,1.8498,12.1679,61.434,0.84,0.2757,-0.4141,254.44
16:33:42:383,0.4967,2.2498,12.2144,61.136,0.8485,0.3364,-0.5249,254.91
16:33:42:403,0.7952,2.5595,12.3264,60.9011,0.8613,0.363,-0.6377,255.49
16:33:42:425,1.1979,1.5635,11.8955,60.5844,0.972,0.5153,-0.7484,256.18
16:33:42:442,0.3644,0.4314,11.7815,60.6266,0.9944,0.2694,-1.0167,257.04
16:33:42:463,-1.0355,0.2099,11.5835,60.6876,0.8719,0.0841,-0.938,258.17
16:33:42:483,-1.2564,0.1255,11.0553,60.452,0.9433,0.0639,-0.6899,259.13
16:33:42:506,-0.4203,0.0938,10.0202,60.3355,1.1913,0.0117,-0.6271,259.85
16:33:42:522,0.1236,0.3926,8.5484,60.1478,1.1243,-0.0266,-0.7399,260.57
16:33:42:542,0.4983,0.7107,8.5037,60.0431,0.6207,-0.1065,-0.8869,261.43
16:33:42:562,-1.7883,0.7145,7.0767,60.0777,0.131,0.2906,-0.9018,262.45
16:33:42:586,-1.3174,0.4071,7.7187,60.2399,-0.2225,0.3811,-0.8517,263.39
16:33:42:602,-2.4678,0.7057,8.12,60.233,-0.1554,0.444,-0.6856,264.13
16:33:42:622,-2.5126,0.9422,7.8718,59.8296,0.1927,0.2151,-0.4418,264.71
16:33:42:642,-2.2636,1.168,7.0582,59.9074,0.4535,-0.0351,-0.2576,265.1
16:33:42:667,-2.2293,1.4244,6.2251,59.5148,0.5206,-0.1597,-0.1522,265.37
16:33:42:684,-2.1894,2.0132,5.8256,58.9982,0.4525,-0.1086,-0.0468,265.55
16:33:42:702,-1.7413,2.5723,5.8828,59.1009,0.2704,-0.0149,0.066,265.58
16:33:42:722,-1.1412,2.9895,6.2221,58.927,-0.0181,0.0362,0.1746,265.46
16:33:42:747,-0.7716,3.038,6.8281,58.9092,-0.3375,0.0756,0.2566,265.21
16:33:42:806,-0.512,2.8808,7.5982,58.9704,-0.6441,0.1597,0.2938,264.86
16:33:42:808,-0.7989,2.7699,8.3465,59.1418,-0.8645,0.4056,0.3109,264.46
16:33:42:809,-1.1764,2.8152,9.1318,58.9248,-0.9348,0.5419,0.3449,263.96
16:33:42:822,-1.4089,2.8909,10.1112,58.887,-0.774,0.4195,0.4014,263.42
16:33:42:842,-1.6164,2.6924,10.154,58.6926,-0.395,0.346,0.4482,262.85
16:33:42:862,-1.6325,3.1023,9.9326,58.4432,-0.1395,0.1884,0.4493,262.27
16:33:42:888,-1.9778,3.3546,9.7457,58.4263,-0.0862,0.0724,0.5313,261.68
16:33:42:903,-1.7818,3.2177,9.6737,58.0157,-0.1948,-0.0181,0.5653,261.03
16:33:42:923,-1.824,2.9614,9.8984,58.0423,-0.362,-0.0373,0.5419,260.38
16:33:42:942,-2.0014,2.6606,10.35,57.9684,-0.5185,-0.0277,0.5728,259.75
16:33:42:968,-1.9301,2.6472,10.7865,58.0206,-0.5717,-0.0586,0.6803,259.06
16:33:42:983,-1.8929,2.9983,10.9947,57.8865,-0.4621,-0.0532,0.7996,258.25
16:33:43:005,-1.8692,3.3832,11.1102,57.4376,-0.2864,0.0117,0.8528,257.29
16:33:43:022,-1.9329,2.5885,10.9492,57.2483,-0.3173,-0.0224,0.6569,256.34
16:33:43:043,-2.4122,0.8829,11.093,56.7594,-0.7091,-0.1278,0.3279,255.67
16:33:43:063,-2.8105,-0.6772,11.9414,56.2686,-0.9443,-0.2364,0.1448,255.36
16:33:43:086,-2.2553,-1.4933,12.3477,56.2334,-0.6516,-0.3205,0.0798,255.24
16:33:43:102,-1.7253,-1.6453,11.7662,55.8651,0.0128,-0.1895,0.0788,255.17
16:33:43:122,-1.1808,-1.777,10.142,55.5296,0.3843,-0.082,0.0649,255.07
16:33:43:142,-0.8804,-1.8021,8.7699,55.3766,0.3481,-0.0937,-0.0298,255
16:33:43:168,-0.8308,-1.1301,8.2723,55.2667,0.2342,-0.1267,-0.0926,255.05
16:33:43:183,-0.8928,-0.4802,7.917,54.8845,0.2108,-0.0873,-0.0426,255.14
16:33:43:202,-1.0834,0.1066,7.2975,54.8662,0.1959,-0.0798,0.0862,255.14
16:33:43:223,-1.3326,0.6235,6.7306,54.7379,0.0905,-0.0937,0.28,254.98
16:33:43:247,-1.2721,1.0344,6.5548,54.5876,-0.1341,-0.2502,0.4653,254.6
16:33:43:262,-1.1782,1.1301,6.7051,54.317,-0.362,-0.4365,0.5536,254.06
16:33:43:284,-1.1134,1.3901,6.9826,54.1373,-0.4844,-0.5046,0.6345,253.38
16:33:43:303,-0.903,1.5883,7.277,53.9427,-0.5653,-0.5174,0.724,252.74
16:33:43:328,-0.7348,1.584,7.79,53.7398,-0.6388,-0.4599,0.7463,251.93
16:33:43:344,-0.5028,1.5138,8.3628,53.7249,-0.6952,-0.4227,0.708,251.11
16:33:43:362,-0.0954,1.3972,9.0171,53.5643,-0.7027,-0.3737,0.5696,250.34
16:33:43:384,0.1132,1.4452,9.7521,53.4282,-0.6494,-0.3801,0.3545,249.7
16:33:43:408,0.1893,1.5191,10.3873,53.0899,-0.5568,-0.4014,0.1427,249.39
16:33:43:424,0.0908,1.4076,10.8221,52.5852,-0.4716,-0.4376,-0.0234,249.27
16:33:43:442,0.121,1.3658,11.3566,52.272,-0.3524,-0.4269,-0.1437,249.32
16:33:43:462,0.1525,1.7354,11.7745,51.7977,-0.1182,-0.2853,-0.2332,249.5
16:33:43:483,0.2734,1.8874,11.7497,51.6186,0.0894,-0.1661,-0.2917,249.79
16:33:43:505,0.2243,1.733,11.7032,51.5568,0.0756,-0.0234,-0.3194,250.08
16:33:43:522,0.2815,1.4305,12.1005,51.4033,-0.0192,0.1842,-0.2875,250.42
16:33:43:542,0.3697,1.7687,12.5039,51.5346,0.0341,0.4599,-0.2332,250.71
16:33:43:562,0.3907,2.6227,12.6809,51.5638,0.2683,0.576,-0.1703,250.93
16:33:43:585,0.8799,2.4829,12.3496,51.7024,0.4621,0.3833,-0.1693,251.08
16:33:43:602,1.0422,0.8017,11.8452,51.5359,0.3599,0.3716,-0.2726,251.27
16:33:43:622,0.8552,-0.3901,12.3943,50.885,0.1363,0.3396,-0.3258,251.56
16:33:43:642,0.554,-1.1996,12.7036,50.726,0.329,0.478,-0.2992,251.89
16:33:43:666,0.7449,-1.5202,11.8979,50.0423,0.7655,0.9699,-0.4078,252.19
16:33:43:683,0.6752,-1.4358,10.6285,49.7298,1.087,0.8485,-0.6622,252.64
16:33:43:703,0.459,-1.2296,9.7078,49.4481,1.219,0.0149,-1.0104,253.41
16:33:43:722,-0.2172,-0.6874,8.861,49.3602,1.2435,-0.6792,-1.1956,254.64
16:33:43:742,-0.4605,-0.3424,8.1558,49.3531,1.1211,-1.0263,-1.103,256.07
16:33:43:762,-0.779,-0.0999,7.6114,49.1755,0.8283,-0.8219,-0.9241,257.42
16:33:43:783,-0.9266,0.0313,7.1936,48.9489,0.4621,-0.4301,-0.8155,258.53
16:33:43:803,-1.3545,0.1739,7.1278,48.8255,0.1821,-0.132,-0.8336,259.5
16:33:43:828,-1.9903,0.8199,7.0808,48.4577,0.0884,-0.0341,-0.7602,260.43
16:33:43:842,-2.3191,1.7241,7.0238,48.2165,0.1373,-0.1746,-0.5345,261.22
16:33:43:862,-2.0023,2.2259,6.9638,48.3146,0.2236,-0.4376,-0.2619,261.77
16:33:43:883,-1.1814,2.3733,6.8677,48.3782,0.197,-0.511,-0.099,262.08
16:33:43:910,-0.2699,2.7106,6.9285,48.1424,0.0181,-0.3843,-0.033,262.26
16:33:43:922,0.1609,2.5633,7.0894,48.3031,-0.296,-0.2587,-0.0149,262.34
16:33:43:942,0.0217,2.1989,7.6701,48.0113,-0.6665,-0.0522,-0.0032,262.38
16:33:43:962,-0.1017,2.1695,8.6243,47.8631,-0.8443,0.2928,-0.0117,262.35
16:33:43:983,-0.3128,2.3074,9.6342,47.6608,-0.8049,0.5227,-0.0628,262.29
16:33:44:002,-0.7058,2.3782,10.3619,47.3904,-0.6441,0.5451,-0.0798,262.26
16:33:44:022,-1.0145,2.416,10.7413,47.4298,-0.4003,0.395,-0.0341,262.25
16:33:44:042,-1.3241,2.4972,10.7964,47.3277,-0.0979,0.2193,0.0341,262.2
16:33:44:063,-1.4961,2.4271,10.3645,47.1584,0.1278,0.1054,0.1299,262.09
16:33:44:085,-1.3462,2.1625,9.8402,47.015,0.1118,-0.0745,0.1948,261.87
16:33:44:102,-1.3818,2.0018,9.8521,46.8485,-0.1033,-0.2012,0.2651,261.67
16:33:44:122,-1.5435,2.1869,10.3871,46.7027,-0.2651,-0.2523,0.4237,261.33
16:33:44:142,-1.6332,2.4586,10.8567,46.6083,-0.2097,-0.1991,0.6132,260.81
16:33:44:166,-1.385,3.0678,10.8957,46.5632,-0.0564,-0.0926,0.7335,260.07
16:33:44:184,-1.1605,2.1152,10.4451,46.7183,-0.0617,-0.148,0.7069,259.14
16:33:44:202,-1.0776,0.2515,10.3303,46.3417,-0.5174,-0.3907,0.5824,258.45
16:33:44:222,-1.454,-1.0552,11.2796,46.4801,-1.0391,-0.4887,0.4535,257.86
16:33:44:246,-1.6412,-1.5624,12.4776,46.2877,-1.0338,-0.3758,0.4546,257.37
16:33:44:262,-1.5506,-1.9773,12.7957,46.0246,-0.56,-0.1011,0.4642,256.85
16:33:44:282,-1.7521,-2.3795,12.1799,45.6597,-0.0426,0.132,0.4503,256.3
16:33:44:303,-2.0686,-2.3347,11.1975,45.6264,0.2513,0.2236,0.4972,255.75
16:33:44:327,-2.0196,-2.1022,10.2515,45.977,0.3503,0.1916,0.5994,255.12
16:33:44:342,-1.5141,-1.5046,9.347,45.6984,0.4099,0.1118,0.6888,254.38
16:33:44:362,-0.9629,-0.5964,8.5168,45.7642,0.5132,0.0788,0.7612,253.55
16:33:44:384,0.1187,0.6621,7.7535,45.939,0.5653,0.1501,0.791,252.63
16:33:44:408,0.878,1.5513,7.2835,45.6366,0.4482,0.2598,0.7282,251.71
16:33:44:422,0.4073,1.9393,6.9827,45.6499,0.264,0.4791,0.6686,250.85
16:33:44:442,0.2293,2.1198,7.2992,45.7894,0.0362,0.6303,0.6505,250.01
16:33:44:464,0.1726,1.9899,8.5205,45.7673,-0.099,0.3833,0.5696,249.2
16:33:44:489,-0.2254,1.7062,9.3915,45.7381,0.0266,-0.0958,0.4802,248.52
16:33:44:502,-0.7451,1.4115,9.9975,45.771,0.3332,-0.3577,0.3737,248
16:33:44:522,-0.7518,0.9107,9.8972,45.6909,0.6803,-0.4738,0.3662,247.61
16:33:44:542,-0.9376,0.8303,9.3543,45.5768,0.7123,-0.4802,0.3396,247.25
16:33:44:562,-0.6404,0.9437,9.2534,45.5582,0.6792,-0.3194,0.3226,246.91
16:33:44:585,-0.0289,1.2914,9.1018,45.6922,0.6069,-0.6835,0.2246,246.61
16:33:44:602,-1.1351,1.3096,9.4543,45.6939,0.8177,-1.2925,0.2523,246.49
16:33:44:622,-0.423,2.1697,8.9885,45.6949,1.0295,-1.2957,0.2864,246.44
16:33:44:642,-0.1852,2.472,8.4124,45.7137,0.955,-0.8964,0.4173,246.35
16:33:44:665,-0.2497,2.8538,7.5042,45.7456,0.6931,-0.6878,0.6569,246.02
16:33:44:683,1.049,2.8612,8.7444,45.7752,0.2119,0.3705,0.8027,245.34
16:33:44:702,1.5634,2.7152,9.6921,45.9502,-0.3599,0.3407,0.8262,244.3
16:33:44:722,1.0218,2.9776,11.3478,46.1437,-0.4834,0.7889,0.7144,243.29
16:33:44:746,-0.0072,3.3506,11.9713,45.9746,-0.2566,0.6005,0.8475,242.25
16:33:44:762,1.0804,2.9894,11.807,45.8037,-0.017,-0.066,0.8592,241.14
16:33:44:784,2.2722,2.3025,11.8841,45.8441,0.2449,-0.7985,0.4908,240.23
16:33:44:803,2.6479,2.0587,12.1377,45.8568,0.5206,-0.7985,0.1703,239.97
16:33:44:827,2.765,1.8744,11.6172,46.0558,0.8294,-0.3833,-0.0681,240.01
16:33:44:885,2.2474,1.6228,10.3388,46.328,0.9358,-0.0106,-0.1991,240.18
16:33:44:887,1.6201,1.4453,9.0259,46.352,0.7538,0.2246,-0.1831,240.38
16:33:44:888,1.3004,1.6258,8.3714,46.1988,0.3694,0.2214,-0.0735,240.47
16:33:44:906,1.7296,1.8309,8.3655,46.2383,0.033,0.2257,-0.0064,240.44
16:33:44:922,2.1606,2.2382,8.4753,46.0403,-0.0841,0.3769,-0.0841,240.37
16:33:44:942,1.5406,2.3838,7.6688,46.0248,-0.1022,0.4227,-0.1852,240.36
16:33:44:963,0.4703,2.4352,6.6346,45.9115,-0.1884,0.4312,-0.1672,240.43
16:33:44:990,-0.2327,2.2836,6.2119,45.923,-0.3087,0.5845,-0.0596,240.43
16:33:45:002,-0.599,2.0565,6.5157,46.2143,-0.3599,0.8219,0.0511,240.27
16:33:45:023,-0.6191,2.1808,7.3202,46.2071,-0.3215,0.9337,0.1182,239.92
16:33:45:042,-0.1396,2.4167,7.6061,46.6192,-0.3024,0.5898,0.0735,239.54
16:33:45:062,0.1888,2.6049,7.6083,46.7413,-0.2364,0.297,-0.0788,239.35
16:33:45:084,0.3019,2.7254,7.9669,46.8727,-0.1554,0.1182,-0.2385,239.39
16:33:45:102,1.076,2.477,9.004,46.7295,-0.0309,-0.2065,-0.2747,239.67
16:33:45:123,0.4891,3.0085,8.5751,46.8824,-0.1086,-0.1299,-0.0192,239.97
16:33:45:149,0.2601,3.1743,7.8506,46.6446,-0.6303,0.2906,0.3694,239.86
16:33:45:162,0.1551,3.1027,9.0769,47.0786,-0.7804,0.2183,0.5547,239.31
16:33:45:183,0.8066,3.776,10.2901,47.0044,-0.4599,-0.0117,0.6069,238.61
16:33:45:202,0.2152,1.7904,9.4607,47.0465,-0.1214,-0.3215,0.296,237.98
16:33:45:222,-1.1751,2.6259,8.7598,46.9982,-0.1586,-0.0011,0.296,237.72
16:33:45:246,-0.3854,3.7451,8.5818,47.0057,-0.3609,0.5376,0.4557,237.28
16:33:45:262,0.4261,3.6284,9.7049,46.7661,-0.4067,0.7644,0.4269,236.62
16:33:45:282,0.0828,3.0157,10.6056,46.8731,-0.2491,0.6931,0.33,236.01
16:33:45:302,-0.2268,2.8467,10.7508,46.8363,-0.0458,0.6643,0.3545,235.5
16:33:45:326,0.1961,2.8718,11.6769,46.9994,0.131,0.4099,0.4919,234.93
16:33:45:342,-0.1511,2.8577,12.4187,46.934,0.5121,0.0426,0.5419,234.28
16:33:45:362,-0.8066,3.5806,11.6726,47.1035,0.9699,-0.0479,0.6665,233.62
16:33:45:383,-1.0423,4.4024,10.1165,46.857,1.1339,0.2193,0.9028,232.79
16:33:45:407,-1.0044,4.3919,9.2336,46.9899,0.8294,0.6516,1.0647,231.62
16:33:45:423,-1.0038,2.7315,9.7659,47.0714,0.2938,0.9965,0.9688,230.97
16:33:45:442,-0.9636,0.7369,11.7542,47.0625,-0.2332,0.6462,0.7101,229.35
16:33:45:462,-0.5818,0.2055,12.822,47.1275,-0.3843,-0.1086,0.5707,228.33
16:33:45:488,-0.7016,-0.1024,11.8616,47.0701,-0.2151,-0.5494,0.5259,227.87
16:33:45:503,-0.9256,-0.2943,10.4008,47.0469,-0.1522,-0.2161,0.6079,227.47
16:33:45:522,-0.6053,-0.006,9.4359,46.9272,-0.1746,0.4078,0.6942,226.72
16:33:45:542,0.1321,0.3524,8.6566,47.0399,-0.1235,0.6537,0.6015,225.73
16:33:45:568,0.705,0.644,8.006,47.3496,-0.0628,0.4908,0.3726,224.88
16:33:45:584,0.8544,1.2348,7.711,47.5068,-0.082,0.1778,0.2044,224.32
16:33:45:602,0.5677,1.8379,7.6048,47.3661,-0.1139,-0.1182,0.2236,224.1
16:33:45:623,0.3937,2.1342,7.4314,47.5721,-0.1214,-0.3056,0.3577,223.96
16:33:45:648,0.2562,2.1898,7.6704,47.4466,-0.0681,-0.3822,0.3992,223.72
16:33:45:665,-0.0665,2.1888,7.9224,47.1067,0.0319,-0.4248,0.4035,223.27
16:33:45:683,-0.1046,2.3339,8.3022,47.2886,0.0841,-0.5962,0.4014,223.16
16:33:45:703,0.0479,2.1018,8.4508,47.5499,0.0011,-0.8996,0.3737,222.87
16:33:45:723,0.4877,2.0221,8.5742,47.3127,-0.1491,-1.1232,0.3428,222.69
16:33:45:742,0.7826,2.1215,8.8754,47.4222,-0.2481,-1.1445,0.3024,222.54
16:33:45:762,0.7116,2.1264,9.0476,47.3859,-0.2566,-0.9103,0.28,222.4
16:33:45:783,0.6535,2.4818,9.223,47.2486,-0.1895,-0.5813,0.2672,222.19
16:33:45:803,0.9607,2.8476,9.2158,47.3216,-0.0809,-0.3332,0.231,221.95
16:33:45:826,1.1923,3.0787,9.2093,47.1343,0.0213,-0.2108,0.1416,221.73
16:33:45:842,0.9991,3.1633,9.3437,46.8814,0.1384,-0.1352,0.083,221.6
16:33:45:862,0.952,3.3897,9.4207,46.9335,0.2374,-0.1065,0.1256,221.55
16:33:45:883,1.17,3.7043,9.4064,47.0502,0.2896,-0.1597,0.1757,221.49
16:33:45:908,1.4851,3.929,9.4525,46.877,0.3183,-0.2555,0.1427,221.37
16:33:45:922,1.6474,3.7569,9.8124,46.9022,0.3407,-0.3183,0.05,221.3
16:33:45:942,1.603,3.2088,10.4136,46.8751,0.411,-0.296,-0.0628,221.3
16:33:45:963,1.5643,2.9851,10.6872,46.7315,0.5313,-0.3641,-0.1139,221.47
16:33:45:988,1.7095,3.4007,9.6247,46.243,0.4993,-0.527,-0.165,221.77
16:33:46:003,1.762,4.1947,9.4046,46.3093,0.5057,-0.4429,-0.1267,222.06
16:33:46:022,2.1347,4.1206,8.9484,46.1457,0.4482,-0.2864,-0.214,222.28
16:33:46:044,2.2998,4.1562,9.0064,46.08,0.297,0.0043,-0.3513,222.46
16:33:46:068,2.1225,3.2259,9.1385,46.4624,0.0671,0.5089,-0.379,222.61
16:33:46:083,1.3542,2.0913,10.2694,46.6336,-0.1852,0.9965,-0.3354,222.59
16:33:46:102,0.4927,1.206,11.3717,46.5079,-0.1895,0.9507,-0.1714,222.54
16:33:46:131,0.6813,0.9801,11.6262,46.1132,0.05,0.4695,-0.0383,222.65
16:33:46:142,1.4014,1.1428,10.2906,45.757,0.198,0.0373,-0.0426,222.84
16:33:46:162,1.5462,1.5419,8.9278,45.647,0.0798,0.0096,-0.0756,222.93
16:33:46:186,1.4915,1.784,8.4368,45.7359,-0.1714,0.263,-0.0373,222.87
16:33:46:206,1.2148,2.1036,8.4623,45.3115,-0.247,0.3503,-0.0032,222.72
16:33:46:222,0.7305,2.1424,7.9236,44.9171,-0.1991,0.2491,0.0681,222.64
16:33:46:242,0.5723,2.3069,7.406,44.7592,-0.1459,0.197,0.1459,222.57
16:33:46:262,0.7306,2.6335,7.1739,44.659,-0.1363,0.297,0.1586,222.37
16:33:46:286,0.6421,2.8131,7.1647,44.669,-0.1789,0.3843,0.1171,222.04
16:33:46:302,0.5639,2.728,7.4184,45.071,-0.2566,0.3833,0.0873,221.78
16:33:46:322,0.4935,2.9179,8.0976,45.294,-0.3407,0.2917,0.0788,221.55
16:33:46:342,0.5821,2.9693,8.6592,45.3174,-0.3737,0.2119,0.0905,221.38
16:33:46:362,0.5212,2.8425,9.1256,45.0629,-0.3609,0.1331,0.1107,221.25
16:33:46:383,0.3843,2.6442,9.3371,44.69,-0.3056,0.0692,0.181,221.11
16:33:46:402,0.7359,2.6504,9.3265,44.3541,-0.2172,0.0245,0.264,221
16:33:46:422,1.0181,2.9066,9.0632,44.1488,-0.0979,0.0405,0.3119,220.76
16:33:46:442,1.2108,3.2961,8.7502,43.9554,0.0053,0.1107,0.3599,220.45
16:33:46:463,1.2706,3.5395,8.505,43.9969,0.0671,0.2214,0.3961,220.03
16:33:46:482,1.3474,3.6172,8.4957,44.3381,0.0926,0.2108,0.3992,219.53
16:33:46:502,1.4737,3.6446,8.5114,44.3587,0.082,0.115,0.3662,219.06
16:33:46:522,1.5704,3.8906,8.6853,44.0094,0.0479,0.0586,0.2928,218.63
16:33:46:543,1.4332,4.1239,8.9916,43.9764,0.0064,0.0948,0.2364,218.24
16:33:46:563,1.42,3.8838,9.4208,43.8988,-0.0234,0.0671,0.1948,217.93
16:33:46:582,1.2928,3.2086,9.87,43.5577,-0.0692,-0.0149,0.1448,217.69
16:33:46:602,0.8641,2.9479,10.3244,43.4015,-0.0532,0.0468,0.1735,217.51
16:33:46:622,0.6178,3.0964,10.684,43.5045,0.0745,0.2023,0.3034,217.31
16:33:46:643,0.6669,3.4836,10.4619,43.3627,0.2374,0.3194,0.4248,216.97
16:33:46:662,0.9614,4.1941,9.8306,43.0796,0.2289,0.4291,0.4163,216.36
16:33:46:683,1.0591,3.8128,9.5244,43.0557,-0.115,0.6228,0.2406,215.76
16:33:46:702,0.5237,2.2371,10.7636,43.1917,-0.5707,0.4354,0.0032,215.1
16:33:46:722,-0.5279,0.9507,11.698,42.8444,-0.7101,-0.0745,-0.0586,214.96
16:33:46:742,-0.9962,0.7042,11.4273,42.6161,-0.511,-0.3854,0.0511,215.22
16:33:46:762,-0.6695,1.1151,10.7244,42.3474,-0.165,-0.3939,0.1533,215.42
16:33:46:788,-0.172,1.2356,10.0107,42.2303,0.0852,-0.2864,0.1693,215.44
16:33:46:802,0.4969,1.6544,9.3871,42.3426,0.0979,-0.0596,0.0841,215.29
16:33:46:822,0.7646,1.393,9.0353,42.2704,-0.0415,0.3843,-0.164,215
16:33:46:842,-0.5212,0.7519,8.4702,42.1654,-0.2513,0.6569,-0.1224,214.87
16:33:46:862,-1.27,0.478,7.7131,42.0467,-0.4663,0.6835,0.1522,214.8
16:33:46:882,-1.3808,0.6629,7.6873,41.5855,-0.6058,0.5621,0.4738,214.58
16:33:46:933,-0.3582,0.9385,8.1459,41.3677,-0.5494,0.4365,0.6356,214.08
16:33:46:934,0.4408,1.5754,8.608,41.4423,-0.3109,0.2715,0.5249,213.41
16:33:46:942,0.2611,2.0437,8.2558,41.3959,-0.0724,0.0511,0.3322,212.86
16:33:46:962,-0.2356,2.2592,7.8943,41.2974,-0.0053,-0.1672,0.2523,212.55
16:33:46:982,-0.213,2.3374,8.1098,41.2757,-0.0607,-0.2459,0.2278,212.33
16:33:47:002,-0.099,2.25,8.497,41.1648,-0.1672,-0.3077,0.1799,212.09
16:33:47:022,-0.1254,2.0777,8.8896,40.849,-0.2651,-0.461,0.1341,211.93
16:33:47:042,-0.1911,1.7988,9.3586,40.8306,-0.3375,-0.5302,0.1256,211.87
16:33:47:062,-0.1377,1.8223,9.8701,40.9316,-0.296,-0.33,0.1501,211.76
16:33:47:083,0.3132,1.9851,9.9364,40.7961,-0.1171,-0.378,0.1767,211.58
16:33:47:104,0.2498,2.0927,9.8872,40.8224,0.1735,-0.5792,0.0649,211.67
16:33:47:124,0.4129,2.2414,10.2471,40.8661,0.33,-0.1352,0.017,211.6
16:33:47:147,0.7631,2.4534,10.5328,40.7505,0.3833,0.2395,0.0351,211.44
16:33:47:162,0.6769,2.7564,10.3295,40.5843,0.4173,0.28,0.0351,211.3
16:33:47:183,0.6129,2.9214,10.076,40.7027,0.4131,0.1544,0.0373,211.27
16:33:47:206,0.66,2.9143,10.1422,40.8173,0.3982,0.0937,-0.0298,211.22
16:33:47:223,0.6487,2.7912,10.321,40.8666,0.4131,-0.0905,-0.1341,211.25
16:33:47:242,0.5719,3.1279,10.0597,40.9535,0.378,-0.3013,-0.231,211.48
16:33:47:262,0.7158,3.4125,9.3979,41.3259,0.1459,-0.2608,-0.2821,211.78
16:33:47:287,1.045,2.5996,9.114,41.2425,-0.3045,0.0554,-0.3418,211.95
16:33:47:302,0.7953,1.3596,10.0956,41.0474,-0.6846,0.6303,-0.4152,212
16:33:47:322,0.3381,0.5624,11.2482,41.2335,-0.7112,1.0955,-0.4322,212.04
16:33:47:342,-0.0561,0.0741,11.3341,41.2254,-0.428,1.1402,-0.3865,212.31
16:33:47:362,-0.2254,-0.1119,10.642,41.0771,-0.1097,0.8656,-0.3535,212.74
16:33:47:383,-0.1901,-0.0418,9.7703,40.865,0.0745,0.4887,-0.3694,213.22
16:33:47:402,-0.1253,0.0796,9.106,40.8245,0.0745,0.082,-0.3865,213.75
16:33:47:422,-0.1864,0.3761,8.8559,40.625,-0.0841,-0.1544,-0.3535,214.27
16:33:47:442,-0.2537,0.6699,8.6859,40.6873,-0.3364,-0.115,-0.2502,214.7
16:33:47:462,-0.3274,0.91,8.5588,40.5953,-0.5845,0.0681,-0.1001,214.92
16:33:47:483,-0.408,1.1752,8.5075,40.7359,-0.7154,0.2055,0.0511,214.96
16:33:47:502,-0.4812,1.4008,8.2353,41.0782,-0.7197,0.2832,0.1789,214.88
16:33:47:522,-0.4895,1.6564,7.8638,41.0613,-0.6675,0.3205,0.264,214.67
16:33:47:542,-0.3714,1.813,7.7052,40.9016,-0.5941,0.2789,0.2875,214.38
16:33:47:569,-0.1598,1.9009,8.0461,40.5444,-0.4897,0.0745,0.2449,214.11
16:33:47:582,-0.0716,1.7188,8.3561,40.4036,-0.4078,-0.1065,0.1512,213.92
16:33:47:602,-0.0351,1.3825,8.5646,40.2266,-0.4322,-0.099,0.0628,213.76
16:33:47:624,-0.2577,1.1181,9.0916,39.9551,-0.5153,0.0564,0.0256,213.61
16:33:47:642,-0.4141,0.8228,9.9101,39.9261,-0.5387,0.1735,0.0554,213.49
16:33:47:662,-0.5214,1.0056,10.4136,39.6315,-0.4386,0.2214,0.1331,213.49
16:33:47:682,-0.4127,1.4107,10.4215,40.2225,-0.2289,0.2278,0.2065,213.32
16:33:47:704,-0.4329,1.9367,10.45,40.2262,-0.0234,-0.0309,0.2491,213.2
16:33:47:722,-0.1889,1.9394,10.3312,40.4744,0.0798,-0.2843,0.3354,213.11
16:33:47:742,0.1926,1.7681,9.8488,40.9185,0.1895,-0.0543,0.4014,212.78
16:33:47:762,0.2582,1.721,9.2271,40.9047,0.2832,0.3066,0.362,212.21
16:33:47:786,0.1676,1.3894,9.0674,40.6307,0.2576,0.2949,0.2087,211.67
16:33:47:802,0.1556,1.1772,9.517,40.9469,0.2012,0.1075,0.0724,211.42
16:33:47:822,0.1945,1.4849,10.2717,40.8625,0.2108,-0.0256,0.0181,211.36
16:33:47:842,0.2523,1.8176,10.9286,40.7129,0.2928,-0.2214,0.082,211.39
16:33:47:862,0.3799,2.2173,11.0144,40.9272,0.4173,-0.3897,0.2012,211.47
16:33:47:883,0.4133,2.6218,10.6715,40.9493,0.4354,-0.3652,0.3119,211.41
16:33:47:904,0.1452,3.1322,10.6219,41.0985,0.3226,-0.1363,0.3801,210.99
16:33:47:922,-0.3435,3.1961,10.7612,41.0245,0.1129,0.1246,0.4014,210.42
16:33:47:942,-0.6154,2.5604,11.0588,40.852,-0.1373,0.297,0.3364,209.82
16:33:47:962,-0.9037,1.2432,11.2106,41.2666,-0.3449,0.2949,0.1906,209.29
16:33:47:986,-1.2183,-0.2255,11.614,41.4356,-0.4056,0.1789,0.1033,209.02
16:33:48:002,-1.4411,-0.985,11.8642,41.4618,-0.1767,0.116,0.0979,208.92
16:33:48:022,-1.5842,-1.1051,11.233,42.0127,0.2065,-0.0149,0.1554,208.92
16:33:48:042,-1.6072,-0.935,10.1152,41.717,0.5004,-0.0809,0.264,208.88
16:33:48:068,-1.0439,-0.5142,9.3521,41.4893,0.5185,-0.1725,0.4163,208.68
16:33:48:083,-0.729,-0.4405,8.634,41.2443,0.2608,-0.3183,0.5217,208.31
16:33:48:102,-0.5666,-0.541,7.9821,41.1209,-0.0724,-0.3215,0.5238,207.74
16:33:48:122,-0.5013,-0.613,7.7077,41.3653,-0.2726,-0.1735,0.4322,207.06
16:33:48:146,-0.424,-0.7057,7.7135,41.586,-0.2694,-0.0894,0.2875,206.46
16:33:48:163,-0.0468,-0.0832,7.7537,41.3186,-0.1948,-0.1022,0.1075,206.05
16:33:48:183,1.3107,0.8805,7.9228,41.5147,-0.1522,-0.2225,-0.131,205.95
16:33:48:202,1.2182,1.3811,7.7957,41.7347,-0.2427,-0.1767,-0.3843,206.04
16:33:48:229,0.3214,1.7324,7.6982,41.5652,-0.4365,-0.1267,-0.4684,206.37
16:33:48:244,-0.2389,1.9741,7.9438,41.2917,-0.6462,0.0447,-0.4078,206.81
16:33:48:262,-0.5276,1.7163,8.7471,42.1079,-0.758,0.1267,-0.2917,207.2
16:33:48:282,-0.9333,1.5366,9.4159,41.8428,-0.7304,0.0586,-0.164,207.56
16:33:48:308,-1.3174,1.2014,9.6169,41.8966,-0.6324,-0.0309,-0.0287,207.85
16:33:48:322,-1.203,1.0578,9.7761,42.0733,-0.4876,-0.0979,0.0767,207.98
16:33:48:342,-0.8613,1.2565,9.7741,41.7845,-0.2726,-0.1129,0.1129,207.98
16:33:48:362,-0.6577,1.4279,9.6288,41.6827,-0.0639,-0.0617,0.0564,207.89
16:33:48:389,-0.5807,1.5453,9.4999,41.6392,0.0894,-0.0319,-0.0064,207.81
16:33:48:405,-0.1681,1.5187,9.5543,41.2178,0.1629,-0.0319,-0.0777,207.82
16:33:48:422,0.134,1.9596,10.1031,41.2661,0.2193,-0.0639,-0.164,207.91
16:33:48:442,0.2027,1.4576,9.8196,41.2985,0.1416,0.0043,-0.23,208.1
16:33:48:462,-0.1555,1.5383,10.4193,41.2014,-0.0319,0.1405,-0.264,208.25
16:33:48:486,-0.4455,1.4197,11.0977,41.3648,-0.1341,0.2204,-0.2427,208.46
16:33:48:502,-0.1481,1.1064,11.7118,41.2869,-0.1256,0.1427,-0.2523,208.74
16:33:48:522,0.2637,1.1717,12.1609,41.2616,-0.0319,-0.1778,-0.3609,209.12
16:33:48:542,0.3844,1.6205,11.7629,41.4062,0.0043,-0.5227,-0.5164,209.7
16:33:48:566,0.3317,1.4699,11.2627,41.4181,-0.1757,-0.6686,-0.511,210.33
16:33:48:584,0.2369,0.2804,11.2878,41.255,-0.4408,-0.4461,-0.329,210.87
16:33:48:603,0.1787,-1.0395,12.2173,41.4377,-0.4163,-0.0916,-0.0948,211.07
16:33:48:622,0.3081,-1.5389,12.5733,41.2854,0.0468,0.1512,-0.0021,211.16
16:33:48:647,0.6321,-1.6962,11.4164,41.3583,0.5941,0.28,-0.1565,211.26
16:33:48:664,1.1737,-1.8431,10.2194,41.2618,0.7602,0.2545,-0.4472,211.48
16:33:48:683,1.4243,-1.8069,9.5077,41.4226,0.5046,0.3801,-0.774,211.89
16:33:48:702,1.0557,-1.1287,9.3948,41.4564,-0.165,1.021,-0.7815,212.28
16:33:48:728,0.4193,-0.2501,9.3573,41.3666,-0.5579,1.3319,-0.7144,212.93
16:33:48:744,-0.4568,-0.0883,9.107,40.9591,-0.5664,1.4905,-0.6739,213.61
16:33:48:762,-1.6423,0.0504,8.2237,41.0166,-0.2843,1.0785,-0.625,214.56
16:33:48:782,-3.4692,0.2416,7.1523,41.2312,0.0213,0.4546,-0.4035,215.68
16:33:48:808,-4.2646,0.4963,6.6259,41.175,0.165,0.0287,0.1256,216.55
16:33:48:825,-0.5099,1.0128,6.9961,41.6144,0.3205,-0.346,-0.0788,216.76
16:33:48:842,-0.5242,1.1674,7.358,41.758,0.3907,-0.5302,-0.3609,216.89
16:33:48:863,-0.5916,0.9974,7.6522,41.6631,0.3758,-0.4216,-0.5366,217.23
16:33:48:888,-0.6037,0.6338,7.6059,41.6534,0.2246,-0.2747,-0.5738,217.71
16:33:48:905,-0.5293,0.1477,7.6253,41.5012,-0.0735,-0.2481,-0.5462,218.26
16:33:48:922,-0.7849,-0.0481,7.9649,41.4145,-0.3897,-0.2172,-0.477,218.81
16:33:48:991,-1.2785,0.1988,8.542,41.3186,-0.6441,-0.1341,-0.2651,219.27
16:33:48:992,-1.6221,0.497,9.1146,41.383,-0.8006,0,0.0117,219.55
16:33:48:993,-1.6173,0.6342,9.7377,41.3365,-0.84,0.0021,0.2694,219.5
16:33:49:003,-1.3931,0.7749,10.2451,41.4056,-0.7357,-0.0256,0.4322,219.35
16:33:49:022,-1.2899,1.1361,10.6686,41.5157,-0.4812,-0.0735,0.4919,218.95
16:33:49:042,-1.1066,1.5093,11.0735,41.0903,-0.1852,-0.3173,0.4248,218.52
16:33:49:065,-0.9143,1.2751,11.3754,41.2192,0.017,-0.6005,0.3024,218.18
16:33:49:083,-0.8522,1.1432,11.5343,41.1076,0.2012,-0.3258,0.2811,217.81
16:33:49:102,-0.8893,1.4604,11.4791,40.9831,0.4844,0.0032,0.3332,217.32
16:33:49:122,-0.4702,1.285,10.7378,41.3137,0.5004,0.0649,0.3343,216.96
16:33:49:146,-0.3865,1.0693,10.5725,41.5032,0.2747,-0.0192,0.2523,216.53
16:33:49:163,-0.7811,1.0558,10.9986,41.6479,0.0351,-0.1852,0.296,216.18
16:33:49:183,-1.1788,1.0971,11.7349,41.6702,-0.0809,-0.1821,0.5195,215.89
16:33:49:202,-0.857,0.5596,12.1513,41.7434,-0.0415,-0.1703,0.6835,215.33
16:33:49:226,-0.0219,-0.7094,12.1127,41.7173,0.0064,-0.4259,0.5536,214.62
16:33:49:244,0.5059,-1.9788,12.1607,41.4926,0.0511,-0.7889,0.1959,214.07
16:33:49:262,0.2772,-2.6167,12.1475,41.565,0.1725,-0.5526,0.0234,213.76
16:33:49:284,-0.2446,-2.4422,11.9133,41.6244,0.5142,-0.0596,0.0287,213.55
16:33:49:308,-0.5038,-2.0081,11.0142,41.8295,0.8837,-0.0277,0.0192,213.46
16:33:49:324,-0.3607,-1.6813,9.831,42.2782,1.0753,-0.3322,-0.0724,213.59
16:33:49:342,-0.3015,-1.2614,8.9217,42.5076,0.9412,-0.5004,-0.2065,213.77
16:33:49:362,-0.3054,-1.0519,8.365,42.8957,0.577,-0.4312,-0.2065,213.92
16:33:49:388,-0.3336,-0.9053,8.2097,43.2414,0.1459,-0.1384,-0.0756,214.02
16:33:49:405,-0.4832,-0.5771,8.273,43.4096,-0.1267,0.1182,0.1373,213.88
16:33:49:422,-0.5333,-0.2394,8.3328,43.3635,-0.1618,0.1725,0.378,213.68
16:33:49:442,-0.4417,0.1729,8.1256,43.5258,-0.0373,0.1363,0.5696,213.32
16:33:49:462,-0.3591,0.7465,7.7861,43.6293,0.1278,0.1522,0.6771,212.79
16:33:49:487,-0.2754,1.2412,7.3643,43.7717,0.2576,0.1469,0.6814,212.07
16:33:49:502,-0.264,1.6188,7.022,43.9696,0.2949,0.0021,0.5643,211.34
16:33:49:522,-0.3762,1.8296,6.8228,44.1726,0.2023,-0.1427,0.3982,210.71
16:33:49:542,-0.6547,2.0397,6.9406,44.1932,0.0351,-0.2523,0.2811,210.23
16:33:49:565,-0.9905,2.2228,7.3347,44.2421,-0.1682,-0.2683,0.2928,209.87
16:33:49:583,-0.9615,2.12,7.8115,44.1661,-0.3737,-0.2683,0.3769,209.51
16:33:49:602,-0.8137,1.9776,8.5005,44.1772,-0.5462,-0.1033,0.4429,209.03
16:33:49:623,-0.5844,1.7923,9.409,43.9638,-0.577,0.1703,0.4876,208.41
16:33:49:642,-0.3288,1.6385,10.3189,44.3067,-0.428,0.2353,0.4738,207.79
16:33:49:662,-0.0851,1.3863,10.9785,44.2814,-0.1725,0.1703,0.3694,207.26
16:33:49:683,-0.2541,1.4576,11.3459,44.5099,0.1235,0.0745,0.2566,206.96
16:33:49:703,-0.5152,1.6535,11.4334,44.847,0.3811,0.0564,0.2268,206.72
16:33:49:727,-0.578,2.0104,11.2795,44.9132,0.4876,0.0181,0.2246,206.52
16:33:49:742,-0.377,2.1593,11.1252,44.917,0.3662,-0.2065,0.1948,206.32
16:33:49:763,-0.1308,1.9501,11.1254,45.2913,0.0117,-0.2821,0.1363,206.12
16:33:49:782,-0.1801,1.7442,11.5583,46.1145,-0.3918,-0.0798,0.1672,205.83
16:33:49:803,-0.286,1.6145,12.4083,46.4802,-0.5792,0.3141,0.3098,205.44
16:33:49:822,0.268,0.8867,12.6865,47.1756,-0.5206,0.5792,0.4099,204.95
16:33:49:842,0.8703,-0.0246,12.6437,47.0585,-0.3822,0.527,0.3002,204.48
16:33:49:862,0.8443,-0.6784,12.7081,47.2859,-0.1352,0.3343,0.1373,204.22
16:33:49:889,0.6764,-1.316,12.5383,47.2667,0.2385,0.2417,0.0979,204.17
16:33:49:902,0.7322,-1.8161,11.8233,47.2977,0.593,0.1554,0.1405,204.18
16:33:49:922,0.8647,-1.8613,10.851,47.5379,0.7804,0.0905,0.1852,204.13
16:33:49:942,1.0492,-1.5456,9.8036,47.6765,0.7729,0.1192,0.1735,203.96
16:33:49:962,1.1375,-1.0121,8.7728,47.6018,0.6143,0.198,0.0692,203.71
16:33:49:984,1.0401,-0.4492,7.9747,48.0109,0.4078,0.3183,-0.1097,203.49
16:33:50:003,0.7704,0.1295,7.3114,48.1061,0.181,0.3886,-0.3141,203.45
16:33:50:022,0.3618,0.5364,7.0307,48.4267,-0.0383,0.4078,-0.4961,203.67
16:33:50:042,-0.1899,0.8488,7.152,48.7473,-0.1203,0.3567,-0.6122,204.14
16:33:50:066,-0.6276,1.1302,7.2559,48.8224,-0.083,0.2364,-0.6175,204.83
16:33:50:083,-0.9294,1.4891,7.3472,48.9523,-0.0064,0.0639,-0.5376,205.61
16:33:50:102,-0.8692,1.7126,7.5253,49.38,0.049,-0.1703,-0.4131,206.37
16:33:50:122,-0.4121,1.7532,7.7185,49.2171,0.0383,-0.3056,-0.3056,207.02
16:33:50:142,0.0128,1.6868,7.8773,49.1833,-0.0128,-0.1927,-0.247,207.39
16:33:50:162,0.3681,1.3002,7.91,49.4492,-0.1235,-0.0309,-0.2459,207.64
16:33:50:182,0.3125,1.1328,8.0948,49.3941,-0.263,0.0256,-0.2747,207.82
16:33:50:202,-0.0735,1.0384,8.4978,49.6272,-0.3396,0.0394,-0.2598,208.09
16:33:50:226,-0.5365,1.2625,8.9422,49.7876,-0.3332,0.0735,-0.1576,208.4
16:33:50:242,-0.9119,1.771,9.3285,49.5389,-0.3034,0.1341,-0.0298,208.58
16:33:50:262,-1.0802,2.1492,9.8145,49.6774,-0.2811,0.016,0.0649,208.67
16:33:50:283,-0.9998,2.205,10.2944,50.0271,-0.2268,-0.0373,0.1884,208.69
16:33:50:303,-0.7459,2.2009,10.674,50.2182,-0.0692,0.0287,0.2896,208.52
16:33:50:323,-0.5799,2.3928,11.0797,50.5973,0.1501,-0.0075,0.3354,208.24
16:33:50:342,-0.2157,2.3807,11.3704,51.0063,0.3226,-0.1938,0.3045,207.96
16:33:50:362,0.0487,2.1717,11.5491,51.2336,0.3513,-0.3705,0.247,207.72
16:33:50:384,0.0134,2.1978,11.9093,51.5982,0.3513,-0.2906,0.2726,207.46
16:33:50:402,-0.0468,2.1643,12.1152,51.4025,0.4546,-0.0713,0.3843,207.1
16:33:50:422,-0.1936,2.2537,11.991,51.527,0.6026,0.1118,0.477,206.64
16:33:50:442,-0.4473,2.5485,11.5821,51.5781,0.7591,0.1693,0.4695,206.08
16:33:50:469,-0.5662,2.4195,10.9278,51.2902,0.8123,0.017,0.3545,205.57
16:33:50:483,-0.3427,1.612,10.3074,51.2825,0.659,-0.214,0.198,205.21
16:33:50:502,-0.2334,0.7284,10.0551,51.5201,0.3992,-0.2513,0.0798,204.98
16:33:50:523,-0.4354,0.0294,10.2297,51.5819,0.2183,-0.0788,0.0586,204.8
16:33:50:549,-0.6962,-0.2521,10.2472,51.8189,0.2129,0.131,0.0862,204.63
16:33:50:565,-0.688,-0.3078,9.8021,51.8445,0.3226,0.1054,0.0479,204.49
16:33:50:583,-0.6393,-0.2433,8.9838,52.0949,0.3375,-0.0916,-0.066,204.48
16:33:50:602,-0.6753,-0.2447,8.1159,52.2903,0.1629,-0.1682,-0.1565,204.58
16:33:50:622,-1.0393,-0.2731,7.582,52.3004,-0.1139,-0.0245,-0.1022,204.7
16:33:50:642,-1.4175,-0.052,7.35,52.5722,-0.3652,0.2268,0.1182,204.72
16:33:50:662,-1.6567,0.2188,7.3753,52.8588,-0.5004,0.3343,0.3865,204.57
16:33:50:683,-1.7077,0.6203,7.3587,52.9019,-0.5025,0.2992,0.6015,204.14
16:33:50:702,-1.6728,1.1449,7.4647,52.7835,-0.3886,0.2087,0.7623,203.53
16:33:50:726,-1.4588,1.4963,7.3618,52.6079,-0.296,0.2023,0.823,202.73
16:33:50:742,-1.4354,1.8432,7.2801,52.3228,-0.3226,0.1448,0.7697,201.8
16:33:50:762,-1.6478,2.0342,7.3966,52.4273,-0.4951,0.0586,0.7165,200.89
16:33:50:785,-1.5345,1.8372,7.9155,52.7575,-0.7293,0.0075,0.7719,200.06
16:33:50:807,-1.1603,1.5018,8.5871,53.178,-0.9007,-0.0798,0.8507,199.21
16:33:50:822,-0.646,1.155,9.3164,53.3192,-0.9731,-0.1405,0.9018,198.3
16:33:50:842,-0.1099,1.0626,10.0653,53.8741,-0.8964,0.0383,0.8911,197.25
16:33:50:862,0.2039,1.1392,10.4977,53.8,-0.6718,0.2726,0.7719,196.12
16:33:50:888,0.295,1.2356,10.4782,54.2536,-0.3961,0.2566,0.5483,195.12
16:33:50:903,0.1611,1.4005,10.3473,54.3656,-0.1693,0.1459,0.3524,194.52
16:33:50:923,-0.06,1.751,10.1355,54.3646,-0.0245,0.1171,0.2545,194.13
16:33:50:942,-0.3061,2.2982,10.0475,54.5677,-0.0479,-0.0021,0.2374,193.85
16:33:50:968,-0.1256,2.7035,10.2829,54.6188,-0.2566,-0.2459,0.2853,193.67
16:33:50:983,0.5566,2.569,10.8928,54.4213,-0.543,-0.4578,0.3694,193.46
16:33:51:056,1.563,1.9754,12.0826,54.6611,-0.7367,-0.5962,0.444,193.11
16:33:51:057,2.5898,1.7904,13.6274,54.8089,-0.6037,-0.5973,0.4397,192.64
16:33:51:058,3.157,2.2695,14.6153,54.8225,-0.0777,-0.5089,0.2417,192.08
16:33:51:062,3.519,2.3996,14.2145,54.7853,0.4621,-0.5472,-0.1821,191.74
16:33:51:082,3.8914,1.232,12.8613,54.9954,0.6888,-0.478,-0.807,191.85
16:33:51:102,3.2028,0.0952,11.5813,55.0473,0.6622,-0.1459,-1.433,192.48
16:33:51:123,1.775,-0.6661,10.6999,54.8611,0.6271,0.3109,-1.7716,193.74
16:33:51:145,0.541,-1.1886,9.6223,54.9935,0.6143,0.6473,-1.8195,195.49
16:33:51:162,-0.3189,-1.5282,8.6549,54.8302,0.56,0.8006,-1.7418,197.71
16:33:51:188,-0.9686,-1.6563,7.8769,54.6145,0.4493,0.7037,-1.6577,199.44
16:33:51:203,-1.4809,-1.6877,7.4367,54.6872,0.2342,0.4312,-1.5342,201.43
16:33:51:222,-1.7699,-1.7966,7.2193,54.5262,-0.0873,0.1842,-1.3404,203.31
16:33:51:246,-1.9344,-1.8874,7.2223,54.7698,-0.4844,0.2736,-1.0774,204.91
16:33:51:262,-1.92,-1.667,7.7781,54.868,-0.774,0.4865,-0.84,206.03
16:33:51:283,-1.9647,-2.0156,8.145,54.5649,-0.873,0.7069,-0.7889,206.96
16:33:51:307,-2.5379,-1.8063,8.7574,54.7109,-0.6675,0.5345,-0.7665,207.88
16:33:51:322,-3.3956,-1.3847,8.924,54.6209,-0.3077,0.3449,-0.5973,208.95
16:33:51:342,-4.0358,-0.3372,8.9112,54.3953,0.0064,0.1491,-0.1831,209.87
16:33:51:362,-3.8023,0.6058,8.6551,54.3569,0.1565,0.0287,0.2608,210.36
16:33:51:383,-2.972,1.3629,8.4115,54.2805,0.0649,0.0192,0.5483,210.21
16:33:51:403,-2.186,1.6772,8.4927,54.5109,-0.1448,0.0234,0.708,209.61
16:33:51:422,-1.4698,1.7216,8.8436,54.562,-0.3364,-0.0256,0.8613,208.81
16:33:51:443,-0.7583,1.4773,9.1647,54.4286,-0.4259,-0.016,1.0295,207.85
16:33:51:463,-0.0477,1.2569,9.5183,54.4853,-0.3992,0.0756,1.1253,206.67
16:33:51:483,0.551,1.2686,9.541,54.5765,-0.2917,-0.033,1.0998,205.4
16:33:51:502,0.9287,1.2991,9.608,54.2438,-0.1842,-0.2768,0.9614,204.23
16:33:51:523,1.0724,1.4648,9.7292,54.3786,-0.2044,-0.4067,0.8027,203.21
16:33:51:548,1.2612,1.1512,10.2169,54.4919,-0.2289,-0.0075,0.7197,202.13
16:33:51:562,1.0656,1.2565,10.9273,54.6127,0.0032,0.33,0.6654,201.06
16:33:51:584,0.8869,1.9636,11.4181,54.3901,0.4312,-0.0245,0.5653,200.3
16:33:51:608,1.3432,2.2266,11.4384,54.4735,0.6367,-0.8517,0.4141,200.04
16:33:51:623,2.0173,2.2363,11.7123,54.3757,0.5536,-1.1498,0.4078,199.81
16:33:51:645,2.6523,2.2399,12.294,54.3763,0.4567,-0.7942,0.5579,199.26
16:33:51:662,2.9438,2.4184,12.8598,54.261,0.626,-0.3801,0.6005,198.15
16:33:51:687,2.8824,2.6399,12.9335,54.2512,1.1349,-0.2651,0.428,197.63
16:33:51:702,2.4695,2.7545,12.0672,54.2185,1.7599,-0.4205,0.0437,197.18
16:33:51:725,1.6523,2.7577,10.6803,54.2695,2.173,-0.4919,-0.4184,197.17
16:33:51:742,0.7003,2.6464,9.126,54.3138,2.1751,-0.2438,-0.8794,197.53
16:33:51:762,-0.3313,2.1773,7.926,54.2133,1.745,0.0319,-1.2797,198.23
16:33:51:783,-1.0392,1.4216,7.321,54.3583,1.0785,0.0607,-1.4575,199.38
16:33:51:806,-1.2334,0.6795,7.3033,54.3966,0.346,-0.1331,-1.4479,200.91
16:33:51:822,-0.9637,-0.1252,7.9671,54.1549,-0.2747,-0.379,-1.399,202.57
16:33:51:842,-0.7281,-0.8862,8.7749,54.0406,-0.6792,-0.5174,-1.3734,204.22
16:33:51:863,-0.868,-1.1296,9.5131,53.8867,-0.9092,-0.6303,-1.2872,205.88
16:33:51:884,-1.3006,-0.9445,10.1097,54.0196,-1.0018,-0.494,-1.0423,207.47
16:33:51:902,-1.7708,-0.4562,10.4526,53.7546,-1.0093,-0.0958,-0.6771,208.71
16:33:51:922,-2.2574,-0.0038,10.5253,53.9862,-0.8677,0.2214,-0.3599,209.47
16:33:51:942,-2.4346,0.2003,10.4179,53.9256,-0.5824,0.1842,-0.1554,209.95
16:33:51:968,-2.6231,0.4947,10.1353,53.8845,-0.1554,0.05,-0.0224,210.31
16:33:51:982,-2.672,0.7588,9.5321,53.7765,0.3311,-0.1203,0.1363,210.56
16:33:52:002,-2.4404,1.0214,8.6894,53.6614,0.692,-0.3215,0.3098,210.66
16:33:52:023,-1.8797,1.3786,7.8728,53.3392,0.8177,-0.445,0.4237,210.54
16:33:52:048,-1.4299,1.7473,7.2022,53.4249,0.6643,-0.4684,0.4493,210.17
16:33:52:062,-0.9752,2.105,7.0083,53.2273,0.3375,-0.4642,0.4684,209.67
16:33:52:083,-0.3234,2.2246,7.1257,53.1577,-0.0426,-0.4695,0.4578,209.13
16:33:52:107,0.3971,2.1741,7.6279,53.2451,-0.428,-0.3311,0.3684,208.56
16:33:52:122,0.8525,1.8936,8.4034,53.3081,-0.6675,-0.0554,0.165,207.96
16:33:52:142,0.6846,1.8417,9.1996,53.3348,-0.7112,0.1427,-0.0671,207.57
16:33:52:162,0.4003,1.8376,9.78,53.2934,-0.5909,0.1075,-0.1948,207.59
16:33:52:183,0.267,1.785,10.0827,53.4649,-0.4131,-0.0021,-0.2119,207.8
16:33:52:202,0.2863,1.8028,10.2528,53.3559,-0.2779,-0.0681,-0.1757,208.13
16:33:52:222,0.171,1.9231,10.4974,53.1634,-0.1714,-0.0277,-0.1341,208.38
16:33:52:242,0.0424,2.0585,10.6866,53.1652,0.0117,0.0351,-0.049,208.57
16:33:52:262,0.0291,2.339,10.6536,52.8606,0.2385,0.0405,0.0075,208.7
16:33:52:284,-0.1025,2.8228,10.4862,52.6111,0.4344,-0.0426,-0.0128,208.79
16:33:52:302,-0.1661,3.3161,10.1815,52.8614,0.5025,-0.1022,-0.0905,208.86
16:33:52:322,0.2065,3.2375,9.6423,52.6312,0.2715,-0.2012,-0.231,208.97
16:33:52:342,0.363,2.7704,9.7752,52.9062,-0.3418,-0.1767,-0.4802,209.1
16:33:52:363,0.1721,1.871,10.7482,52.9734,-0.9071,0.0607,-0.5675,209.36
16:33:52:386,0.4612,0.2802,11.6344,52.9588,-1.1945,0.4131,-0.4993,209.67
16:33:52:402,0.6178,-0.8829,12.5376,52.9552,-1.0764,0.6335,-0.4418,210.16
16:33:52:422,0.6564,-1.432,12.8103,52.7858,-0.5707,0.5919,-0.3822,210.71
16:33:52:442,0.9592,-1.7121,12.0322,52.4255,0.0532,0.3929,-0.3758,211.37
16:33:52:467,1.0065,-1.2805,10.6772,52.1685,0.5632,0.2395,-0.411,212.04
16:33:52:483,0.7992,-0.441,9.2246,51.8341,0.8911,0.2023,-0.4067,212.65
16:33:52:503,0.679,0.519,7.8558,51.7196,1.0146,0.2097,-0.3662,213.17
16:33:52:522,0.5581,1.3317,6.5984,52.0053,0.8943,0.181,-0.3886,213.6
16:33:52:547,0.3035,1.8779,5.819,51.9119,0.5696,0.2545,-0.4461,213.94
16:33:52:564,-0.0338,2.3767,5.5796,52.0376,0.1597,0.3662,-0.4887,214.25
16:33:52:583,-0.4428,2.654,5.7857,52.07,-0.2576,0.2917,-0.5313,214.62
16:33:52:603,-0.7046,2.5893,6.4175,52.1853,-0.6569,0.1437,-0.5579,215.12
16:33:52:623,-0.8976,2.4576,7.2503,52.3917,-0.9742,0.0724,-0.5547,215.69
16:33:52:642,-0.7432,2.1269,8.2088,52.31,-1.1562,0.0426,-0.5472,216.26
16:33:52:662,-0.497,1.6393,9.0878,52.308,-1.1935,-0.1246,-0.5951,217.16
16:33:52:684,-0.4353,1.2773,10.0175,52.0832,-1.0923,-0.2747,-0.6154,217.65
16:33:52:704,-0.3482,1.2143,10.9497,51.8626,-0.8464,-0.3407,-0.544,218.44
16:33:52:722,0.0961,1.1988,11.3508,51.8778,-0.5504,-0.3577,-0.4514,219.21
16:33:52:742,0.5424,1.1838,11.4677,51.4826,-0.2545,-0.2342,-0.4546,219.79
16:33:52:763,0.5937,1.3989,11.3018,51.6944,0.0713,-0.1373,-0.543,220.34
16:33:52:783,0.5128,1.6773,10.837,51.9463,0.3716,-0.2321,-0.6973,221.03
16:33:52:806,0.2887,1.7213,10.4051,51.9595,0.5792,-0.445,-0.8815,221.92
16:33:52:822,-0.1525,1.9707,9.9594,52.1679,0.6899,-0.5643,-0.9603,223.01
16:33:52:842,-0.2443,2.0799,9.4265,52.2134,0.6473,-0.444,-0.9188,224.12
16:33:52:862,-0.2032,1.8753,9.2325,52.0623,0.4312,-0.3407,-0.9177,225.08
16:33:52:887,-0.5381,1.7741,9.676,52.1797,0.1448,-0.3556,-0.9433,226.03
16:33:52:904,-0.7835,1.4272,10.4986,52.1098,-0.0884,-0.1916,-0.8624,227
16:33:52:923,-1.001,1.0094,11.4489,52.0452,-0.2417,0.083,-0.7697,227.85
16:33:52:943,-1.2824,0.7375,12.3492,52.0304,-0.2608,0.1224,-0.7154,228.66
16:33:52:966,-0.9391,-0.2865,12.8095,52.1501,-0.2576,-0.198,-0.724,229.55
16:33:52:984,-0.6757,-1.1414,13.3426,52.1851,-0.1852,-0.4269,-0.7335,230.5
16:33:53:002,-0.6244,-1.5252,13.6894,52.111,0.131,-0.2374,-0.6239,231.43
16:33:53:024,-0.5485,-1.5256,13.1623,52.1779,0.658,0.0075,-0.5259,232.28
16:33:53:043,-0.4761,-1.467,11.7169,52.0518,1.1072,0.0735,-0.5515,233.09
16:33:53:112,-0.7805,-0.9857,9.984,51.9451,1.3489,0.1043,-0.6441,233.85
16:33:53:113,-1.3255,-0.4632,8.3599,51.6802,1.3202,0.0437,-0.7516,234.72
16:33:53:114,-1.9597,-0.2238,7.2061,51.7666,1.0167,-0.0777,-0.7612,235.38
16:33:53:126,-2.5783,-0.1048,6.7175,51.5578,0.6143,-0.0043,-0.5696,236.1
16:33:53:142,-2.9523,0.0564,6.6561,51.5087,0.2555,0.1586,-0.2576,236.61
16:33:53:162,-2.9741,0.2658,6.7113,51.6397,-0.0437,0.1757,0.0628,236.84
16:33:53:183,-2.6394,0.4086,7.0261,51.5684,-0.2672,0.0564,0.2917,236.73
16:33:53:203,-2.2479,0.5007,7.5768,51.6101,-0.3929,-0.0053,0.445,236.4
16:33:53:222,-2.0193,0.7178,8.124,51.5877,-0.3843,-0.0617,0.5717,235.93
16:33:53:242,-1.736,0.8881,8.4602,51.4131,-0.2875,-0.0916,0.7027,235.36
16:33:53:262,-1.3502,1.0729,8.7634,51.2973,-0.1672,-0.0841,0.7772,234.66
16:33:53:284,-0.8345,1.4192,8.8235,51.2633,-0.0713,-0.1895,0.7932,233.87
16:33:53:303,-0.264,1.7696,8.9214,51.2729,-0.0617,-0.2853,0.7463,233.04
16:33:53:322,0.3756,1.9588,9.0868,51.3549,-0.1246,-0.2875,0.6367,232.21
16:33:53:342,0.7526,2.1088,9.3296,51.4529,-0.1938,-0.132,0.4802,231.43
16:33:53:362,0.8295,2.3306,9.6196,51.6473,-0.2044,0.0373,0.3098,230.77
16:33:53:384,0.7001,2.5754,9.8226,51.694,-0.1725,0.0958,0.1512,230.34
16:33:53:402,0.4424,2.9546,10.0163,51.386,-0.1129,0.1512,0.0458,230.12
16:33:53:422,0.5101,3.0108,10.1301,51.2496,-0.0437,0.1437,-0.0745,230.04
16:33:53:442,0.4785,2.9928,10.2253,51.2017,0.033,0.1065,-0.2608,230.11
16:33:53:466,0.2124,2.8334,10.2447,51.22,0.0916,0.017,-0.4493,230.41
16:33:53:483,-0.0388,2.5637,10.294,51.3778,0.0756,-0.0383,-0.5664,230.9
16:33:53:502,-0.1823,2.0533,10.4419,51.2635,0.0021,-0.0383,-0.658,231.51
16:33:53:522,-0.6955,1.9292,10.7213,50.9561,-0.0277,0.0511,-0.6675,232.2
16:33:53:547,-1.1356,2.0365,10.848,50.944,0.0277,0.2044,-0.5983,232.94
16:33:53:562,-1.3237,1.8931,10.5456,50.5912,0.0745,0.3077,-0.5366,233.62
16:33:53:583,-1.279,1.5456,10.0888,50.6729,0.0075,0.2704,-0.4631,234.21
16:33:53:602,-1.374,1.3666,10.1673,50.7342,-0.1544,0.2193,-0.4024,234.69
16:33:53:622,-0.8503,0.5458,10.1988,50.5267,-0.3332,0.198,-0.2523,235.09
16:33:53:642,0.0247,-0.5463,10.3049,50.2393,-0.5089,0.2449,-0.1416,235.32
16:33:53:662,0.5141,-1.1747,10.6082,49.8713,-0.5046,0.2662,-0.0979,235.59
16:33:53:683,0.9557,-1.4787,10.6292,49.6908,-0.2981,0.1618,-0.1011,235.55
16:33:53:707,1.3885,-1.3091,10.0635,49.4868,-0.049,0.0287,-0.164,235.85
16:33:53:722,1.6084,-0.6895,9.0887,49.4529,0.0319,0.0075,-0.2811,236.13
16:33:53:742,1.1942,0.3344,8.4573,49.462,-0.0767,0.1618,-0.4333,236.37
16:33:53:763,0.4699,1.2761,8.1797,49.3651,-0.1725,0.2321,-0.5792,236.73
16:33:53:789,-0.1755,1.7294,8.0258,49.1423,-0.2097,0.1214,-0.7304,237.28
16:33:53:802,-0.8758,1.8441,7.9751,49.133,-0.2236,-0.066,-0.8187,238.13
16:33:53:822,-1.4343,1.7171,8.1557,48.7525,-0.2853,-0.2204,-0.7793,239.08
16:33:53:843,-1.7688,1.4832,8.6624,48.5118,-0.3503,-0.2608,-0.5941,240.01
16:33:53:870,-1.6095,1.1003,9.04,48.7478,-0.3183,-0.2374,-0.3971,240.75
16:33:53:883,-1.1895,0.6634,9.1907,48.7831,-0.2193,-0.231,-0.3173,241.3
16:33:53:902,-0.9143,0.4075,9.2163,48.692,-0.1672,-0.2417,-0.3396,241.72
16:33:53:922,-0.9262,0.3116,9.3074,48.8202,-0.1863,-0.3056,-0.3545,242.13
16:33:53:943,-1.0309,0.332,9.5296,48.5159,-0.2481,-0.2417,-0.2917,242.52
16:33:53:962,-1.1565,0.3673,9.7828,48.1721,-0.2523,-0.1011,-0.1746,242.84
16:33:53:983,-1.2883,0.6903,9.9394,47.909,-0.1725,-0.0043,-0.0639,243.06
16:33:54:002,-1.3992,1.1829,9.8656,47.716,-0.0649,0.0011,-0.0106,243.2
16:33:54:022,-1.4084,1.5213,9.7069,47.6492,-0.0085,0.0096,0.0266,243.27
16:33:54:046,-1.348,1.5984,9.6188,47.6693,0.0096,0.0894,0.0628,243.26
16:33:54:062,-1.4321,1.584,9.6405,47.7932,0.0532,0.1448,0.0979,243.2
16:33:54:083,-1.4921,1.621,9.6392,47.8057,0.1182,0.181,0.1554,243.11
16:33:54:102,-1.2559,1.4307,9.4676,47.6033,0.1363,0.1448,0.198,242.98
16:33:54:127,-1.1198,1.2537,9.4482,47.4797,0.0788,0.2023,0.2214,242.75
16:33:54:142,-1.295,1.358,9.6953,47.2426,0.017,0.264,0.263,242.46
16:33:54:162,-1.4134,1.5296,10.0288,46.9857,0.0011,0.2651,0.3332,242.13
16:33:54:183,-1.4378,1.7536,10.2259,46.8898,0.0128,0.2278,0.3886,241.8
16:33:54:204,-1.3604,1.8677,10.4317,46.9651,0.0213,0.1682,0.4152,241.39
16:33:54:222,-1.3616,1.9749,10.6761,46.9049,0.0298,0.1086,0.3886,240.94
16:33:54:242,-1.2565,1.9275,10.8329,46.8986,0.0192,0.0926,0.2885,240.49
16:33:54:262,-0.8586,0.987,10.7253,46.8208,-0.0554,-0.0756,0.0969,240.13
16:33:54:284,-0.4516,-0.2453,10.7049,46.4197,-0.3215,-0.2736,-0.0362,239.95
16:33:54:302,-0.4692,-1.0097,11.2522,45.9105,-0.5813,-0.1597,-0.0096,239.84
16:33:54:322,-0.5008,-1.1056,11.8634,45.6256,-0.5238,-0.0053,0.0724,239.77
16:33:54:343,-0.0312,-0.9988,11.6999,45.486,-0.1554,-0.0202,0.0415,239.8
16:33:54:368,0.5511,-0.997,10.9571,45.3973,0.2906,-0.2119,-0.1938,239.95
16:33:54:382,0.8617,-0.9034,9.8965,44.9903,0.5227,-0.3769,-0.4493,240.34
16:33:54:402,0.8568,-0.8648,9.0637,44.8057,0.477,-0.2449,-0.6441,240.81
16:33:54:423,0.3639,-0.473,8.5863,44.495,0.2672,-0.0916,-0.7229,241.4
16:33:54:443,-0.2162,0.1158,8.6125,44.2271,0.0586,-0.0852,-0.7176,242.07
16:33:54:465,-0.557,0.5803,8.8798,44.0206,-0.0043,-0.2459,-0.6601,242.86
16:33:54:484,-0.6646,0.8854,9.1063,44.2125,0.0351,-0.4259,-0.6015,243.7
16:33:54:503,-0.4621,1.0479,9.1958,44.0648,0.0979,-0.4929,-0.6005,244.46
16:33:54:522,-0.3447,1.1748,9.35,43.7917,0.1363,-0.445,-0.6643,245.18
16:33:54:543,-0.2293,1.1188,9.4755,43.653,0.1757,-0.3119,-0.7516,245.94
16:33:54:562,-0.1008,0.7804,9.5312,43.3321,0.2044,-0.1214,-0.8815,246.76
16:33:54:584,-0.4024,0.4832,9.5471,43.0404,0.2587,-0.0564,-1.0178,247.77
16:33:54:602,-0.8533,0.4113,9.4845,42.7044,0.378,-0.0628,-1.104,248.91
16:33:54:625,-1.3536,0.4454,9.2321,42.3966,0.5142,-0.1405,-1.1094,250.24
16:33:54:642,-1.6294,0.6302,8.7932,42.3037,0.5547,-0.313,-1.0444,251.6
16:33:54:662,-1.6638,0.8629,8.5241,42.1228,0.4684,-0.4322,-0.9497,252.95
16:33:54:682,-1.7119,1.0803,8.505,41.839,0.2992,-0.3173,-0.8272,253.94
16:33:54:703,-1.7264,1.1949,8.6791,41.5953,0.1373,-0.0543,-0.6569,254.83
16:33:54:722,-1.6165,1.2764,8.8634,41.2461,0.0351,0.0447,-0.5334,255.54
16:33:54:742,-1.4512,1.4852,9.1028,41.1456,-0.0085,-0.0149,-0.5068,256.14
16:33:54:762,-1.1649,1.6143,9.5643,40.6623,0,-0.1054,-0.5643,256.72
16:33:54:783,-0.9542,1.3578,9.8283,40.4893,0.033,-0.2225,-0.6824,257.39
16:33:54:802,-0.7183,1.1544,9.8847,40.5155,-0.0415,-0.1565,-0.7378,258.16
16:33:54:822,-0.5574,0.9929,10.071,40.3984,-0.2747,0.0266,-0.7772,258.91
16:33:54:846,-0.8132,1.0663,11.199,40.1578,-0.4993,0.1491,-0.8166,259.62
16:33:54:862,-1.2703,1.2004,11.9391,40.208,-0.3215,0.0362,-0.9241,260.54
16:33:54:883,-1.5555,1.4253,12.2655,40.0462,0.0085,-0.0522,-0.9486,261.71
16:33:54:902,-1.6598,1.4976,11.8329,39.6551,0.2268,0.0128,-0.8389,262.99
16:33:54:922,-1.0562,0.5073,11.2765,39.3586,0.2449,0.2246,-0.6761,264.01
16:33:54:943,-0.5654,0.2068,10.9959,38.8983,0.3556,0.1139,-0.6015,264.84
16:33:54:962,-0.1571,-0.1637,10.47,38.821,0.5355,0.1288,-0.5813,265.61
16:33:54:983,0.2231,-0.3576,9.577,38.6768,0.6761,0.0128,-0.6505,266.37
16:33:55:002,0.4397,-0.5116,8.8201,38.6882,0.6441,-0.1405,-0.7389,267.12
16:33:55:022,0.4779,-0.4258,8.28,38.637,0.4972,-0.2949,-0.8059,267.9
16:33:55:048,0.2391,-0.0999,8.0359,38.4289,0.3396,-0.3279,-0.8198,268.75
16:33:55:062,-0.1556,0.3219,7.9122,38.1451,0.165,-0.3801,-0.8006,269.65
16:33:55:083,-0.5815,0.8632,8.041,37.9306,-0.0394,-0.5302,-0.7346,270.52
16:33:55:103,-0.8246,1.4252,8.3714,37.7784,-0.23,-0.6675,-0.6516,271.34
16:33:55:128,-0.7984,1.7289,8.8386,37.5337,-0.3428,-0.8145,-0.5696,272.12
16:33:55:209,-0.5999,1.8192,9.1557,37.5677,-0.3673,-0.8145,-0.5142,272.88
16:33:55:210,0.3574,1.5036,9.3594,37.1272,-0.2906,-0.7431,-0.5281,273.73
16:33:55:211,0.3679,1.0783,9.9028,37.1436,-0.1395,-0.3247,-0.6888,274.39
16:33:55:212,0.153,0.9233,9.8327,37.1428,0.0937,-0.1948,-0.7538,275.38
16:33:55:226,-0.2766,1.0801,9.3632,37.1652,0.3268,-0.3705,-0.7846,276.41
16:33:55:242,-0.4489,1.2692,8.6649,37.0582,0.3992,-0.5749,-0.757,277.44
16:33:55:262,-0.5872,1.557,8.2581,37.1322,0.2853,-0.56,-0.6814,278.39
16:33:55:284,-0.452,1.7793,8.1479,37.031,0.0937,-0.5089,-0.5707,279.22
16:33:55:302,-0.3049,1.9399,8.2518,36.8895,-0.1608,-0.4482,-0.4429,279.84
16:33:55:322,-0.299,2.0964,8.8906,36.8198,-0.3961,-0.297,-0.2779,280.31
16:33:55:342,-0.0975,2.0954,9.5625,36.4786,-0.4706,-0.1501,-0.1799,280.63
16:33:55:364,0.0276,1.9509,10.1886,36.0772,-0.3833,-0.0032,-0.1565,280.91
16:33:55:382,0.0755,1.9633,10.7054,36.153,-0.1427,0.05,-0.2172,281.22
16:33:55:403,-0.0469,2.1714,10.9115,36.0714,0.1586,0.0213,-0.2736,281.63
16:33:55:422,0.097,2.1392,10.459,36.1474,0.3428,-0.0138,-0.264,282.09
16:33:55:445,0.1639,1.7514,10.0527,36.0978,0.2811,0.017,-0.3024,282.43
16:33:55:462,-0.0767,1.8437,10.0404,35.5919,0.264,0.1214,-0.2406,282.74
16:33:55:482,0.1523,1.6902,10.2098,35.4698,0.2598,0.1682,-0.1501,283.03
16:33:55:502,0.3402,1.7384,10.7844,35.2217,0.2672,0.2161,-0.1065,283.18
16:33:55:524,0.1563,1.9097,11.3246,35.1845,0.4376,0.3354,-0.1544,283.32
16:33:55:545,0.1177,1.9895,10.8422,35.0795,0.6601,0.3268,-0.2108,283.58
16:33:55:562,0.2163,2.109,10.1332,34.9762,0.6601,0.3162,-0.3002,283.8
16:33:55:596,0.3714,1.9068,9.6991,34.9062,0.4972,0.2395,-0.3524,283.99
16:33:55:603,0.5785,1.3415,9.4395,34.6081,0.2151,0.1043,-0.3492,284.16
16:33:55:621,0.6999,0.7724,9.6094,34.4435,-0.0415,0.0692,-0.3013,284.34
16:33:55:642,0.7308,0.554,10.0215,34.4602,-0.1246,0.0202,-0.231,284.56
16:33:55:662,0.6576,0.6711,10.115,34.1651,0.0106,-0.1789,-0.2555,284.89
16:33:55:683,0.9502,0.7456,9.6921,34.0717,0.0884,-0.4716,-0.3449,285.18
16:33:55:702,1.0597,0.7521,9.1995,34.2147,-0.0075,-0.5217,-0.4333,285.62
16:33:55:722,0.913,0.7217,9.0698,33.8799,-0.1714,-0.3439,-0.4184,286.16
16:33:55:742,0.4329,1.0635,9.1296,33.9794,-0.2193,-0.1171,-0.3599,286.69
16:33:55:762,0.1802,1.3526,9.0171,34.0313,-0.0905,-0.0862,-0.3162,287.2
16:33:55:782,0.3075,1.6166,8.7617,33.5761,0.0969,-0.2076,-0.3673,287.67
16:33:55:802,0.5178,1.6773,8.243,33.5452,0.2002,-0.3119,-0.5068,288.2
16:33:55:822,0.3554,1.5768,7.9045,33.3866,0.115,-0.2545,-0.6494,288.82
16:33:55:842,-0.0802,1.5762,7.9359,33.0176,-0.0586,-0.2076,-0.691,289.53
16:33:55:863,-0.34,1.6126,8.2654,32.7138,-0.23,-0.1171,-0.6409,290.26
16:33:55:883,-0.3976,1.618,8.6288,32.5035,-0.3141,-0.0053,-0.5824,290.95
16:33:55:902,-0.3947,1.621,8.9352,32.4763,-0.2587,0.033,-0.5834,291.65
16:33:55:925,-0.4294,1.6343,9.0538,32.2385,-0.1214,-0.0415,-0.6441,292.35
16:33:55:942,-0.53,1.6758,8.8976,32.3172,-0.0351,-0.1501,-0.6867,293.13
16:33:55:962,-0.7804,2.0057,8.9939,32.2346,-0.0756,-0.1405,-0.6622,293.93
16:33:55:983,-0.902,2.1186,9.1285,32.1826,-0.1682,-0.0894,-0.5824,294.68
16:33:56:005,-0.8327,2.0126,9.3583,32.0769,-0.2353,-0.0511,-0.5121,295.35
16:33:56:022,-0.7947,1.8959,9.6703,32.0098,-0.2289,-0.0735,-0.4738,295.93
16:33:56:042,-0.7924,1.8487,9.9797,31.7705,-0.1618,-0.1618,-0.4354,296.49
16:33:56:062,-0.672,2.0561,10.2084,31.3192,-0.1022,-0.1735,-0.4099,297.05
16:33:56:086,-0.4599,2.1063,10.2433,31.2422,-0.0639,-0.1171,-0.4312,297.6
16:33:56:102,-0.2097,1.9599,10.2334,31.0809,-0.1065,-0.0948,-0.4823,298.12
16:33:56:122,-0.295,2.0016,10.4802,31.1522,-0.1693,0.0373,-0.5046,298.66
16:33:56:142,-0.6012,2.2039,10.9803,31.3195,-0.1246,0.1725,-0.4887,299.26
16:33:56:162,-0.8124,2.4568,11.2111,31.1451,0.0511,0.1831,-0.4834,299.89
16:33:56:182,-0.6183,2.3876,11.0632,30.9532,0.2598,0.1054,-0.527,300.47
16:33:56:202,-0.2256,1.6988,10.3825,30.5043,0.3492,-0.0468,-0.5494,301.07
16:33:56:222,-0.0665,1.2813,9.7553,30.1501,0.2193,-0.0926,-0.4663,301.65
16:33:56:242,0.2018,0.9946,9.4659,30.0438,-0.0064,-0.0287,-0.3386,302.11
16:33:56:262,0.7874,0.391,9.4551,30.1896,-0.1437,0.0234,-0.3513,302.44
16:33:56:282,1.3148,-0.3474,9.1735,30.328,-0.1874,-0.1129,-0.4951,302.78
16:33:56:302,1.449,-0.8326,8.8285,30.3084,-0.3279,-0.2832,-0.6207,303.23
16:33:56:322,0.9017,-0.5522,8.9155,30.2981,-0.6015,-0.2694,-0.5781,303.83
16:33:56:342,0.3227,0.0901,9.4275,30.381,-0.8315,-0.1469,-0.3556,304.45
16:33:56:368,0.0112,0.8526,10.0925,30.261,-0.8581,-0.1129,-0.1469,304.88
16:33:56:385,0.0607,1.4501,10.35,30.18,-0.6303,-0.0671,-0.0905,305.17
16:33:56:402,0.2465,1.5475,10.1103,30.0725,-0.2779,-0.0852,-0.231,305.46
16:33:56:422,0.0323,1.3439,9.4579,30.0115,0.0064,-0.1075,-0.4376,305.86
16:33:56:449,-0.535,1.3347,8.9064,30.0066,0.1448,-0.0447,-0.5153,306.46
16:33:56:465,-0.7895,1.2633,8.5147,29.915,0.1927,0.0447,-0.4791,307.12
16:33:56:483,-0.6554,0.9603,8.0923,30.0306,0.165,0.0043,-0.4269,307.69
16:33:56:503,-0.4534,0.808,7.7584,30.3205,0.05,-0.0926,-0.3897,308.11
16:33:56:525,-0.3216,0.6881,7.6859,30.3898,-0.1065,-0.1352,-0.3673,308.48
16:33:56:544,-0.6356,0.5814,7.9922,30.5801,-0.3183,-0.1757,-0.3087,308.82
16:33:56:562,-1.2721,0.8864,8.7212,30.7867,-0.477,-0.1267,-0.1267,309.11
16:33:56:591,-1.534,1.2468,9.3331,30.645,-0.5217,-0.1341,0.1437,309.28
16:33:56:602,-1.1118,1.2862,9.7328,30.872,-0.5185,-0.1608,0.3705,309.17
16:33:56:625,-0.4056,1.2595,10.1667,31.1632,-0.4897,-0.1065,0.4834,308.82
16:33:56:642,0.2243,1.1782,10.5785,31.169,-0.3918,0.082,0.4493,308.37
16:33:56:662,0.3139,1.0927,11.0268,31.5806,-0.2151,0.1757,0.3087,307.93
16:33:56:684,0.0008,1.2071,11.3154,31.7796,0.0468,0.116,0.1618,307.66
16:33:56:705,-0.2836,1.1832,11.2065,31.5996,0.2438,0,0.1235,307.52
16:33:56:722,-0.3921,1.0797,10.9205,31.7708,0.2949,-0.1107,0.1821,307.39
16:33:56:743,-0.5507,1.0027,10.9268,32.0604,0.2044,-0.0394,0.3577,307.18
16:33:56:762,-0.8028,0.9974,11.42,32.4572,0.1746,0.2087,0.5515,306.83
16:33:56:786,-0.606,0.9554,11.6066,32.8185,0.3098,0.28,0.5813,306.34
16:33:56:803,0.0013,-0.0691,11.0912,33.2187,0.412,-0.0958,0.3599,305.63
16:33:56:822,0.308,-0.9782,10.627,33.3835,0.2502,-0.4173,0.1682,305.03
16:33:56:842,-0.2137,-0.9237,10.9347,33.4453,-0.0415,-0.2587,0.1874,304.69
16:33:56:867,-0.3685,-0.5606,11.5482,33.7197,-0.1192,-0.0117,0.3769,304.5
16:33:56:884,0.1931,-0.5531,11.4739,33.706,0.0309,0.0703,0.3833,304.2
16:33:56:902,0.5426,-0.7293,10.8999,33.9898,0.2236,-0.0607,0.1544,303.84
16:33:56:922,0.2364,-0.7739,10.1699,34.2646,0.3173,-0.1948,-0.0703,303.65
16:33:56:947,-0.3111,-0.8822,9.4523,34.7642,0.2715,-0.131,-0.1011,303.73
16:33:56:964,-0.886,-0.7327,9.1155,35.2924,0.1874,-0.0564,0.0767,303.85
16:33:56:983,-0.8905,-0.6026,8.8494,35.6578,0.1437,-0.0341,0.3354,303.78
16:33:57:002,-0.5475,-0.2981,8.5818,36.0367,0.1491,0.0096,0.5227,303.45
16:33:57:029,-0.3152,0.0453,8.3045,36.3886,0.2193,-0.0106,0.5781,302.9
16:33:57:045,-0.2935,0.5264,7.9785,36.7454,0.2726,-0.0745,0.5238,302.28
16:33:57:062,-0.2407,0.6834,7.6146,37.0053,0.2044,-0.0213,0.4546,301.67
16:33:57:083,-0.349,0.7121,7.3971,36.9855,0.0415,0.1331,0.3865,301.11
16:33:57:109,-0.7442,0.9534,7.6684,37.2252,-0.1373,0.2214,0.3854,300.57
16:33:57:125,-0.8678,1.3598,8.1219,37.1455,-0.2204,0.2598,0.4227,300.03
16:33:57:142,-0.5391,1.4899,8.4683,37.3429,-0.2076,0.214,0.3929,299.5
16:33:57:162,-0.0057,1.1076,8.6166,37.672,-0.2332,0.0085,0.2427,298.94
16:33:57:184,0.1615,0.8246,8.9646,38.0584,-0.3109,-0.0681,0.0309,298.56
16:33:57:205,-0.1657,0.8523,9.4863,38.5803,-0.3503,-0.0149,-0.0639,298.46
16:33:57:222,-0.4728,0.8324,9.9441,39.0194,-0.3673,0.0373,-0.0149,298.53
16:33:57:280,-0.749,1.1472,10.6035,39.1932,-0.3141,0.0319,0.066,298.57
16:33:57:281,-0.7098,1.3824,11.0871,39.8535,-0.1672,-0.0468,0.1203,298.55
16:33:57:291,-0.5129,1.256,11.3909,40.1134,0.0202,-0.1459,0.1139,298.5
16:33:57:302,-0.2093,1.2049,11.3842,40.4801,0.1267,-0.3247,0.0756,298.45
16:33:57:322,0.0734,1.1453,11.4003,41.0124,0.0884,-0.3396,0.0224,298.37
16:33:57:343,-0.0782,1.5751,11.7365,41.3243,0.0106,-0.0916,-0.0341,298.37
16:33:57:363,-0.3645,1.6114,11.8167,41.3239,-0.0511,-0.0394,-0.0735,298.44
16:33:57:384,-0.0581,0.5388,11.4586,41.4889,-0.1874,-0.1725,-0.0075,298.44
16:33:57:402,0.2309,-0.2704,11.6436,41.86,-0.2257,-0.2694,0.1288,298.38
16:33:57:422,0.9959,-0.8,11.525,42.3315,0.0064,-0.2811,0.2555,298.34
16:33:57:448,1.8957,-1.4752,10.8582,42.5224,0.2821,-0.099,0.2065,298.3
16:33:57:464,2.1586,-1.6217,9.9909,42.9999,0.3652,0.0607,0.0149,298.22
16:33:57:484,1.6196,-1.3906,9.2929,43.1084,0.2523,0.0958,-0.1235,298.23
16:33:57:504,1.1342,-1.4297,8.8505,43.2885,0.0617,0.1352,-0.1107,298.19
16:33:57:528,0.8165,-1.251,8.7193,43.3551,-0.0713,0.1597,-0.0607,298.21
16:33:57:542,0.499,-0.426,8.8712,43.7954,-0.0777,0.197,0.0149,298.23
16:33:57:582,0.4633,0.1377,8.9635,44.1798,0.0522,0.1065,0.0798,298.23
16:33:57:583,0.4904,0.4669,8.6377,44.4857,0.1991,0,0.0692,298.18
16:33:57:602,0.3067,0.7465,8.3639,44.5711,0.3066,-0.0096,0.0362,298.16
16:33:57:622,0.0782,1.0461,8.0908,45.0084,0.3684,0.0617,0.0479,298.17
16:33:57:642,0.0192,1.4543,7.8098,45.1069,0.3183,0.0426,0.0841,298.13
16:33:57:662,0.2152,1.5612,7.6503,45.3195,0.148,-0.033,0.0926,297.87
16:33:57:682,0.3729,1.4449,7.718,45.7586,-0.0511,0.0639,0.0948,297.73
16:33:57:704,0.3103,1.4669,8.0996,45.7155,-0.214,0.1938,0.1086,297.54
16:33:57:723,0.2331,1.7065,8.5335,46.1549,-0.3364,0.1799,0.1352,297.32
16:33:57:742,0.1893,1.8816,9.0783,46.4548,-0.3588,0.0862,0.1746,297.07
16:33:57:762,0.2584,2.2015,9.596,46.6057,-0.2715,-0.0394,0.2438,296.85
16:33:57:782,0.5025,2.2706,9.9987,46.6512,-0.0958,-0.0554,0.2768,296.64
16:33:57:802,0.7435,2.2325,10.2873,46.7505,0.0841,-0.0777,0.2683,296.45
16:33:57:822,1.0074,2.1774,10.4987,46.8541,0.2672,-0.0266,0.2076,296.25
16:33:57:842,1.02,2.2248,10.623,47.0516,0.4386,0.1544,0.0979,296.14
16:33:57:866,0.6896,2.3124,10.5772,47.506,0.5579,0.2268,-0.0075,296.12
16:33:57:883,0.3858,2.1911,10.3871,47.799,0.5089,0.0543,-0.0617,296.09
16:33:57:902,0.2043,1.7753,10.3153,48.0945,0.3226,0.0138,-0.0447,296.02
16:33:57:923,-0.0505,1.5153,10.4744,47.919,0.0937,0.1033,0.0777,295.95
16:33:57:942,-0.4734,1.7289,11.1164,48.2664,-0.0043,0.2875,0.2704,295.79
16:33:57:962,-0.8825,2.3354,11.7006,48.4618,0.1043,0.3982,0.461,295.52
16:33:57:983,-0.6356,2.4963,11.6543,49.0491,0.2715,0.2406,0.5089,295.05
16:33:58:002,0.1296,1.6769,11.1071,49.273,0.3162,-0.1107,0.2651,294.43
16:33:58:028,0.3721,0.4869,10.6001,49.7416,0.2161,-0.2736,-0.1001,294.01
16:33:58:042,0.0294,-0.5884,10.5051,49.8065,0.049,-0.1214,-0.2523,294.01
16:33:58:062,-0.3866,-1.3487,10.5349,49.8658,0.0245,0.1959,-0.1821,294.31
16:33:58:083,-0.5303,-1.2985,10.2195,49.5342,0.1139,0.2332,-0.0639,294.59
16:33:58:108,-0.3809,-0.8385,9.5412,49.8264,0.1608,0.0096,-0.0586,294.64
16:33:58:122,-0.3353,-0.4086,8.7768,49.8613,0.116,-0.0639,-0.1278,294.65
16:33:58:142,-0.7257,-0.1489,8.284,49.8305,0.0266,-0.0341,-0.1384,294.75
16:33:58:168,-1.0696,0.1028,7.9349,49.9144,-0.1267,0.0106,-0.0298,294.87
16:33:58:184,-1.0522,0.3017,7.8406,49.9366,-0.3375,0.0383,0.1852,294.78
16:33:58:202,-0.6948,0.3954,7.9107,50.3538,-0.4972,0,0.3077,294.52
16:33:58:222,-0.4724,0.8612,8.1963,50.3946,-0.5185,-0.1192,0.3449,294.11
16:33:58:242,-0.3174,1.2232,8.4118,50.2308,-0.378,-0.2012,0.3237,293.76
16:33:58:262,-0.1883,1.4433,8.4739,50.2043,-0.1938,-0.3109,0.2545,293.5
16:33:58:285,-0.059,1.5342,8.3409,50.0158,-0.0724,-0.3237,0.1618,293.29
16:33:58:302,-0.0274,1.5119,8.2554,49.8799,-0.0713,-0.198,0.0713,293.22
16:33:58:323,0.0089,1.5789,8.3924,50.0925,-0.1043,-0.1437,0.0234,293.17
16:33:58:342,0.1198,1.5758,8.7095,50.4079,-0.1533,-0.1916,-0.0011,293.13
16:33:58:362,0.1418,1.7638,9.2177,50.5581,-0.1363,-0.2172,-0.0117,293.13
16:33:58:383,0.3285,1.8988,9.4576,50.6272,-0.0511,-0.1852,-0.0053,293.22
16:33:58:402,0.6985,1.7182,9.6651,50.7062,0.016,-0.264,-0.0468,293.3
16:33:58:423,0.7988,1.7962,9.9564,50.6971,0.082,-0.3662,-0.1416,293.4
16:33:58:442,0.639,2.0534,10.4298,50.7693,0.1757,-0.4024,-0.2065,293.63
16:33:58:462,0.4699,2.5823,10.8981,51.0994,0.4003,-0.1395,-0.2427,294.05
16:33:58:483,0.4714,2.742,10.6175,51.2892,0.5068,-0.2108,-0.3119,294.53
16:33:58:502,0.6174,2.5133,10.4103,51.2174,0.2694,-0.7889,-0.4397,294.8
16:33:58:523,0.4955,2.2238,10.9771,51.3369,-0.1874,-1.0018,-0.4184,295.03
16:33:58:543,0.3391,2.1285,12.0474,51.039,-0.3503,-0.2736,-0.2012,295.56
16:33:58:562,0.2538,2.4249,12.6772,50.9312,-0.1544,0.3375,-0.0128,296.13
16:33:58:583,0.6215,2.173,12.1701,51.0562,0.1565,0.3119,0.0554,296.36
16:33:58:604,1.4191,1.1086,11.0957,50.815,0.3386,-0.083,-0.0681,296.37
16:33:58:625,1.7556,-0.156,10.0146,50.9133,0.2417,-0.3886,-0.3045,296.35
16:33:58:642,1.4361,-0.978,9.5114,50.9634,-0.0287,-0.0458,-0.4674,296.62
16:33:58:662,0.5941,-1.2983,9.5783,50.8889,-0.247,0.3918,-0.5121,297.21
16:33:58:688,-0.1537,-1.5548,9.3871,50.7559,-0.4227,0.6697,-0.3886,297.61
16:33:58:702,0.1198,-1.4564,9.7306,50.5998,-0.8358,0.988,-0.0724,297.9
16:33:58:722,0.9208,-1.2487,9.9063,50.685,-1.0636,0.8198,0.0064,297.58
16:33:58:742,0.6095,-1.3663,10.0734,50.4617,-0.8634,0.3247,-0.1799,297.33
16:33:58:762,0.661,-0.2653,10.362,50.3755,-0.3769,-0.0649,-0.2757,297.53
16:33:58:785,0.7723,-0.185,9.6361,50.3639,0.1597,-0.1107,-0.3354,298.11
16:33:58:802,0.3775,-0.54,8.5143,50.1545,0.5536,-0.2193,-0.4503,298.77
16:33:58:822,-0.2703,-0.3198,7.8155,50.1604,0.7996,-0.378,-0.5025,299.42
16:33:58:842,-0.8312,0.2391,7.2076,50.1244,0.9337,-0.4823,-0.4088,300.13
16:33:58:867,-1.0378,0.6828,6.5659,49.7573,0.8475,-0.5504,-0.2321,300.7
16:33:58:884,-1.0953,1.178,6.2217,49.6894,0.5057,-0.4472,-0.0479,301.01
16:33:58:903,-1.0326,1.5096,6.2678,49.5482,0.0245,-0.2406,0.1554,300.95
16:33:58:923,-0.8549,1.4784,6.7048,49.297,-0.4929,-0.1001,0.3322,300.6
16:33:58:942,-0.5354,1.323,7.7785,49.501,-0.9635,0.115,0.5313,299.99
16:33:58:962,-0.0914,1.357,9.3183,49.5024,-1.1977,0.3258,0.7123,299.23
16:33:58:987,0.2607,1.2223,10.3721,49.4487,-1.1051,0.3396,0.724,298.22
16:33:59:002,0.707,1.0942,11.4314,49.6004,-0.7974,0.1501,0.6473,297.6
16:33:59:022,1.7294,2.1505,12.8552,49.4359,-0.3002,0.0213,0.6281,297.01
16:33:59:042,2.8832,2.9605,13.6117,49.327,0.2949,0.2193,0.6111,296.57
16:33:59:062,2.9824,1.981,12.8496,49.1057,0.8581,0.247,0.1884,296.33
16:33:59:083,1.6484,1.4915,11.4273,48.4725,1.2094,0.1192,-0.4291,296.28
16:33:59:102,0.1128,1.5537,10.485,48.489,1.2584,-0.0181,-0.7037,296.73
16:33:59:122,-1.0622,1.7042,9.9869,48.3103,1.0391,0.1661,-0.5419,297.45
16:33:59:142,-1.6843,2.2896,9.9314,48.165,0.7431,0.527,-0.0586,297.98
16:33:59:162,-1.7456,2.5233,9.9458,48.2449,0.4621,0.6303,0.4259,297.83
16:33:59:188,-1.2677,2.4809,9.9532,48.008,0.2427,0.3449,0.5962,297.24
16:33:59:202,-0.3305,1.8112,10.3966,47.6654,0.1022,-0.3215,0.4365,296.27
16:33:59:222,0.7655,1.0282,10.8584,47.4597,-0.0373,-0.8762,0.2449,295.52
16:33:59:242,1.6695,0.0044,11.1728,47.4147,-0.1256,-0.8368,0.0894,295.25
16:33:59:268,1.7019,-0.9051,11.2504,47.2165,-0.0362,-0.2268,-0.1395,295.41
16:33:59:360,0.8186,-0.8088,10.8283,47.1544,0.2364,-0.0958,-0.4195,295.85
16:33:59:361,-0.107,-0.7906,9.9032,47.3585,0.3992,-0.2587,-0.6665,296.44
16:33:59:361,-0.605,-0.4699,9.4291,47.5678,0.1693,0.1661,-0.6335,297.22
16:33:59:362,-1.027,-0.469,9.0393,47.5383,-0.1735,0.5536,-0.461,297.88
16:33:59:363,-1.3655,-0.4265,8.7383,47.3548,-0.3322,0.4961,-0.2747,298.15
16:33:59:383,-1.0773,-0.2842,8.931,47.3475,-0.3396,0.4003,-0.0351,298.3
16:33:59:402,-0.6123,-0.1611,9.5046,46.8544,-0.1767,0.2481,0.1831,298.28
16:33:59:422,-0.1345,0.5623,9.9775,46.5045,0.1693,0.2023,0.3694,298.15
16:33:59:442,0.7845,1.0994,9.6326,46.0881,0.5334,0.1554,0.3843,297.94
16:33:59:462,1.3773,1.3969,8.9201,46.2776,0.7793,0.0256,0.1107,297.65
16:33:59:483,1.0018,1.9431,8.3621,46.0525,0.9007,-0.1459,-0.2545,297.52
16:33:59:503,0.0631,2.462,7.8132,46.0874,0.9859,-0.2385,-0.4567,297.81
16:33:59:522,-0.7619,2.6887,7.042,46.1115,0.9454,-0.2981,-0.4802,298.37
16:33:59:542,-1.3923,2.8074,6.2684,45.856,0.6697,-0.4078,-0.3971,298.88
16:33:59:562,-1.7907,2.7306,5.9542,45.7328,0.1831,-0.3737,-0.2406,299.21
16:33:59:584,-1.8569,2.5485,6.4524,45.5201,-0.3684,-0.2012,-0.0085,299.32
16:33:59:608,-1.3611,2.4307,7.3753,45.4459,-0.7453,-0.1054,0.1757,299.23
16:33:59:623,-0.6826,2.3874,8.5808,45.3141,-0.8911,0.033,0.2789,298.96
16:33:59:642,-0.2816,2.5858,9.6986,45.4699,-0.8123,0.2257,0.2864,298.68
16:33:59:662,0.1759,2.9821,10.936,45.5671,-0.5089,0.2704,0.1863,298.54
16:33:59:683,0.8126,2.9471,12.0597,45.7594,-0.1363,0.1416,-0.0809,298.36
16:33:59:702,0.4994,2.594,12.4146,45.8568,0.0298,0.0245,-0.4163,298.5
16:33:59:722,-0.9931,2.522,12.4034,45.8014,0.0767,0.1735,-0.5078,298.96
16:33:59:743,-2.1847,2.4419,12.2293,45.4898,0.2002,0.2044,-0.2726,299.58
16:33:59:768,-2.5429,3.1651,11.4707,45.0879,0.5749,0.1778,-0.0522,300.03
16:33:59:784,-2.1816,4.047,11.052,44.7847,0.8805,-0.1682,0.1554,300.29
16:33:59:802,-1.2597,4.5383,10.5535,44.3795,1.0199,-0.9646,0.3748,300.07
16:33:59:823,0.5117,3.656,9.8767,44.1755,0.7431,-1.3915,0.6494,299.7
16:33:59:848,2.6291,2.6249,9.059,44.0543,0.2789,-1.2478,0.6675,299.17
16:33:59:866,3.545,0.9407,8.3894,44.0469,-0.3513,-0.346,0.3141,298.71
16:33:59:883,3.0343,-0.4156,8.4193,44.1112,-0.9209,0.5749,-0.1384,298.35
16:33:59:902,1.4952,-0.8407,8.8656,44.0018,-1.1115,0.7772,-0.3939,298.26
16:33:59:923,0.4277,-0.8551,9.124,44.1063,-1.1019,0.7697,-0.3428,298.44
16:33:59:944,-0.0082,-0.6553,8.7461,43.8771,-1.0678,0.6569,-0.1533,298.62
16:33:59:962,0.0914,-0.5265,8.6213,43.5179,-1.0572,0.4503,-0.0341,298.61
16:33:59:982,0.1335,-0.0099,8.8211,43.3781,-0.9795,0.378,-0.017,298.53
16:34:00:002,0.2471,0.4771,8.8935,43.2635,-0.8538,0.4322,-0.0394,298.54
16:34:00:023,0.253,0.6139,8.6738,43.0306,-0.7016,0.3865,-0.1235,298.6
16:34:00:046,-0.1864,0.9545,8.5538,42.9721,-0.5227,0.2576,-0.1842,298.73
16:34:00:062,-0.5865,1.3373,8.4097,42.9011,-0.3503,0.0128,-0.1139,298.94
16:34:00:083,-0.5263,1.5162,8.0716,42.6381,-0.2757,-0.1491,0.0202,299.09
16:34:00:106,-0.2693,1.2779,7.8365,42.4349,-0.3758,-0.0767,0.1331,299.1
16:34:00:122,0.0506,0.8363,8.1661,42.4063,-0.6388,0.0671,0.2076,298.9
16:34:00:142,0.0818,0.6027,8.7813,42.414,-0.823,0.0554,0.2097,298.53
16:34:00:162,-0.162,0.4625,9.5404,42.1576,-0.8624,0.1725,0.2374,298.31
16:34:00:188,-0.4452,0.4952,10.1828,42.373,-0.7697,0.3237,0.3428,298.01
16:34:00:202,-0.519,0.6154,10.7738,42.2261,-0.6079,0.428,0.4408,297.75
16:34:00:222,-0.5736,0.6306,11.2469,41.9367,-0.3811,0.4291,0.4951,297.36
16:34:00:242,-0.4796,0.6139,11.4327,42.1808,-0.0373,0.4046,0.5174,296.95
16:34:00:268,-0.1634,0.5616,11.3634,42.1953,0.3641,0.4141,0.5515,296.58
16:34:00:283,0.0882,0.9978,11.0771,42.2534,0.642,0.3034,0.5728,296.14
16:34:00:302,0.1476,1.677,10.7244,42.0882,0.7985,0.0894,0.576,295.56
16:34:00:322,0.222,1.9606,10.3676,41.9713,0.84,0.0043,0.5472,294.91
16:34:00:349,0.047,1.6636,10.0991,41.6204,0.7154,0.082,0.5227,294.25
16:34:00:362,-0.711,1.6203,10.0538,41.5201,0.4812,0.1491,0.5675,293.56
16:34:00:384,-1.8378,1.6886,10.2197,41.2718,0.247,0.0138,0.7091,292.79
16:34:00:402,-2.41,1.9601,10.5571,41.0536,0.0138,-0.0405,0.9869,291.82
16:34:00:431,-1.4644,2.0912,11.1073,40.542,-0.23,-0.1991,1.2424,290.61
16:34:00:443,0.2755,1.0141,11.4205,40.2021,-0.5717,-0.2044,1.0923,289.05
16:34:00:462,0.7509,-0.4905,11.51,40.0871,-0.84,-0.0511,0.6207,287.57
16:34:00:487,0.1048,-1.7201,11.7303,39.7831,-0.7005,0.1821,0.1256,286.62
16:34:00:502,-0.784,-1.9907,11.721,39.7539,-0.0948,0.2342,-0.1757,286.73
16:34:00:522,-1.2114,-1.7004,10.7787,39.6394,0.576,0.1299,-0.28,287.3
16:34:00:542,-1.0905,-1.6565,9.2797,39.3717,0.8507,0.1405,-0.3641,287.9
16:34:00:562,-1.2329,-1.6559,7.9243,39.1165,0.6707,0.3109,-0.3833,288.32
16:34:00:583,-1.5395,-1.5105,7.034,39.3582,0.2129,0.7176,-0.2449,288.57
16:34:00:607,-1.804,-1.0475,6.8598,39.2385,-0.2023,1.0636,-0.0437,288.63
16:34:00:622,-1.9958,-0.2944,6.9802,39.1636,-0.5408,1.1339,0.2193,288.45
16:34:00:642,-1.9097,0.4926,7.2002,39.2876,-0.7921,1.0497,0.4812,288
16:34:00:662,-1.5353,1.067,7.5678,39.252,-0.9848,0.6697,0.6005,287.29
16:34:00:683,-0.8179,1.1908,8.4437,39.1101,-1.0466,0.2928,0.511,286.42
16:34:00:702,-0.4201,1.0349,9.2409,39.2753,-0.8954,0.1331,0.2406,285.76
16:34:00:722,-0.5544,0.7089,9.5037,38.9632,-0.6005,0.0767,-0.0756,285.52
16:34:00:742,-0.9866,0.569,9.2733,38.8471,-0.3471,0.0138,-0.3588,285.68
16:34:00:768,-1.4302,0.4231,8.8273,38.8227,-0.2385,0.0724,-0.5132,286.12
16:34:00:783,-2.1009,0.33,8.8043,38.457,-0.2779,0.0979,-0.5068,286.7
16:34:00:802,-2.5531,0.6141,8.8327,38.5321,-0.3396,0.0958,-0.4195,287.26
16:34:00:822,-2.6796,0.5447,8.7035,38.7254,-0.4791,0.1735,-0.3162,287.73
16:34:00:848,-2.6136,0.2383,8.9241,38.6445,-0.5685,0.181,-0.2864,288.08
16:34:00:862,-2.5184,-0.0913,9.7235,38.6895,-0.4972,-0.0532,-0.3087,288.38
16:34:00:883,-2.36,-0.0226,10.3527,38.675,-0.2747,-0.247,-0.3002,288.77
16:34:00:903,-2.0848,0.1838,10.4229,38.4397,-0.0532,-0.3162,-0.3141,289.2
16:34:00:925,-1.8641,0.4662,10.4211,38.1614,0.0479,-0.3716,-0.3609,289.62
16:34:00:945,-1.595,0.2873,10.4759,37.8722,-0.0415,-0.5345,-0.4514,289.98
16:34:00:962,-1.5477,-0.1175,10.987,37.8279,-0.2545,-0.5888,-0.5345,290.29
16:34:00:988,-1.8192,-0.5133,11.7133,37.8561,-0.4269,-0.5195,-0.5015,290.72
16:34:01:003,-2.1191,-0.2837,12.6588,37.6786,-0.3599,-0.4216,-0.3492,291.24
16:34:01:022,-2.0317,0.4082,13.2666,37.7295,-0.0021,-0.5526,-0.1522,291.77
16:34:01:042,-0.9731,0.4851,13.1442,37.5056,0.3119,-0.8389,0.0032,292.12
16:34:01:062,0.6187,-0.3206,12.8843,37.4468,0.4056,-0.889,-0.0628,292.14
16:34:01:084,1.366,-1.3535,12.4763,37.2834,0.5664,-0.5483,-0.4291,292.17
16:34:01:107,0.6864,-2.5185,11.7236,37.4891,0.8453,-0.1086,-0.8528,292.69
16:34:01:122,-0.8665,-2.993,10.5751,37.7016,1.1136,0.1916,-1.0923,293.82
16:34:01:142,-1.8488,-2.9493,9.0639,37.9301,1.219,0.0724,-1.0412,295.15
16:34:01:162,-1.9043,-2.5159,7.7722,37.9657,1.0274,-0.1491,-0.8528,296.31
16:34:01:187,-1.4716,-2.3775,6.9565,38.1521,0.5313,-0.3833,-0.6313,297.2
16:34:01:203,-1.0551,-2.4707,6.6416,38.2909,-0.2779,-0.05,-0.3652,297.52
16:34:01:223,-0.7621,-2.6415,7.1366,38.0132,-1.2052,1.0657,-0.017,297.69
16:34:01:242,-0.8015,-2.5487,7.8015,37.7654,-1.8685,2.2368,0.2545,297.66
16:34:01:267,-1.013,-2.4036,8.9381,37.86,-2.0133,2.5743,0.3151,297.5
16:34:01:282,-1.3661,-1.8782,10.1982,38.1192,-1.4756,1.7758,0.1384,297.36
16:34:01:303,-1.8607,-1.0815,10.8225,38.2485,-0.4727,0.6015,-0.0298,297.48
16:34:01:323,-1.9074,-0.3771,10.0407,38.7007,0.4983,-0.3588,-0.1086,297.81
16:34:01:348,-1.6039,-0.0622,8.6713,39.1754,0.8932,-0.8038,-0.181,298.05
16:34:01:432,-1.4835,0.3814,7.7994,39.1938,0.7325,-0.7548,-0.1884,298.15
16:34:01:433,-1.4655,0.6136,7.5344,39.2604,0.2832,-0.363,-0.1288,298.2
16:34:01:434,-1.652,0.712,7.8931,39.3183,-0.1512,0.1224,-0.0319,298.23
16:34:01:435,-1.8794,0.549,8.4414,39.4186,-0.3673,0.3801,0.0351,298.23
16:34:01:445,-2.0291,0.52,9.0016,39.3296,-0.3354,0.3322,0.0405,298.23
16:34:01:462,-2.0792,0.3828,9.4813,39.2775,-0.2225,0.1608,0.0192,298.22
16:34:01:488,-2.2003,0.2786,9.8619,39.2473,-0.1299,0.0128,-0.0053,298.21
16:34:01:502,-2.2678,0.0769,10.2769,39.1574,-0.017,0.0426,0.0224,298.26
16:34:01:522,-2.3053,-0.2686,10.5799,39.311,0.1565,0.0671,0.0447,298.33
16:34:01:542,-2.5569,-0.418,10.7636,39.4841,0.379,-0.0021,0.0862,298.4
16:34:01:562,-2.8283,-0.3074,10.7717,39.554,0.5408,-0.1501,0.2023,298.4
16:34:01:582,-2.5139,-0.3935,10.6023,39.729,0.5068,-0.346,0.3258,298.2
16:34:01:602,-1.9616,-0.7826,10.7602,40.2342,0.2981,-0.4514,0.3939,297.73
16:34:01:622,-1.861,-1.0191,11.3808,40.1686,0.1065,-0.3268,0.4961,297.15
16:34:01:642,-2.0797,-0.5792,12.1124,40.2116,0.1565,-0.0362,0.6707,296.62
16:34:01:663,-1.8742,-0.1687,11.9858,40.3968,0.3865,-0.0256,0.7655,295.83
16:34:01:683,-1.0202,0.1363,11.407,40.2908,0.4344,-0.2726,0.658,295.26
16:34:01:702,0.1728,0.1267,11.047,40.5313,0.2555,-0.0745,0.3439,294.38
16:34:01:722,0.852,-0.609,11.1204,40.5597,-0.0319,0.5387,-0.1246,293.85
16:34:01:742,0.5299,-1.595,11.5003,40.7501,0.0181,0.8102,-0.6292,293.89
16:34:01:762,-0.4234,-2.0391,11.265,40.7522,0.5206,0.6228,-0.9646,294.65
16:34:01:783,-1.2423,-2.0991,9.9974,40.8334,1.0625,0.2033,-1.1243,295.91
16:34:01:802,-1.8237,-1.8569,8.3117,41.072,1.1786,-0.1278,-1.2041,297.23
16:34:01:823,-2.4162,-1.6353,6.9551,41.026,0.7676,-0.1224,-1.1743,298.47
16:34:01:847,-3.0563,-1.5157,6.6134,41.5049,0.1586,0.1043,-1.0125,299.71
16:34:01:862,-3.6399,-1.3702,7.0785,41.4889,-0.2843,0.2513,-0.7655,300.65
16:34:01:884,-3.7664,-1.2366,7.9518,41.9666,-0.3992,0.1288,-0.511,301.44
16:34:01:903,-3.5458,-1.1756,8.5142,42.2844,-0.2395,-0.0894,-0.3567,302.1
16:34:01:928,-3.3593,-1.0597,8.5938,42.5335,-0.0075,-0.231,-0.2757,302.58
16:34:01:942,-3.1988,-0.9148,8.4722,42.7718,0.1757,-0.2268,-0.2065,303.01
16:34:01:963,-3.1884,-0.6809,8.3057,43.1926,0.2747,-0.1512,-0.1405,303.37
16:34:01:984,-3.2843,-0.3492,8.13,43.2877,0.3141,-0.1405,-0.0809,303.62
16:34:02:009,-3.3408,0.1059,7.9931,43.2016,0.3258,-0.1565,-0.0053,303.74
16:34:02:022,-3.1942,0.3523,7.7986,43.5432,0.2864,-0.2928,0.0522,303.75
16:34:02:042,-2.8436,0.4229,7.8575,43.2292,0.1831,-0.4088,0.0798,303.63
16:34:02:062,-2.5017,0.4664,8.0469,43.2428,0.0373,-0.379,0.1022,303.49
16:34:02:083,-2.1188,0.5129,8.3527,43.2616,-0.131,-0.2704,0.1033,303.36
16:34:02:103,-1.1339,0.5783,9.0309,43.2428,-0.2513,-0.329,0.0362,303.2
16:34:02:122,0.1747,0.5379,9.9133,43.4548,-0.1597,-0.2491,-0.3151,303.11
16:34:02:142,0.0937,0.4198,10.3562,43.3367,0.1533,-0.0575,-0.8698,303.54
16:34:02:164,-1.3246,0.5256,10.2904,43.6465,0.4408,-0.0639,-1.185,304.66
16:34:02:184,-2.9587,0.7782,10.1005,43.8661,0.5632,-0.231,-1.1051,305.93
16:34:02:202,-3.8505,1.2628,10.1101,43.9564,0.4418,-0.4269,-0.6942,307.19
16:34:02:222,-3.5488,1.4876,10.3011,44.1239,0.1065,-0.5419,-0.197,307.96
16:34:02:242,-2.8277,1.6328,11.0297,44.2961,-0.1693,-0.4663,0.1373,308.19
16:34:02:266,-2.1419,2.2043,12.0821,44.4658,-0.1107,-0.4791,0.2012,308.12
16:34:02:283,-1.3851,2.0109,12.5078,44.3578,0.1395,-0.7985,-0.0309,307.95
16:34:02:302,-1.2084,1.4272,12.596,44.4402,0.3364,-1.1956,-0.2608,307.94
16:34:02:322,-1.0979,0.6163,12.5619,44.6482,0.5015,-1.4192,-0.2992,308.25
16:34:02:347,-0.2359,-0.688,12.1877,44.6299,0.7272,-1.4532,-0.2672,308.77
16:34:02:362,0.5684,-1.4846,11.5595,44.813,1.0327,-1.2605,-0.3929,309.41
16:34:02:383,0.7158,-1.7301,10.3683,44.7846,1.2765,-1.0551,-0.5983,310.25
16:34:02:403,0.3468,-1.6306,9.0753,44.8356,1.2818,-0.9805,-0.7016,311.21
16:34:02:423,-0.1139,-1.2061,7.9579,44.593,1.0093,-0.7197,-0.5813,312.18
16:34:02:444,-0.1065,-0.7927,7.1355,44.6494,0.5685,-0.4408,-0.3524,312.96
16:34:02:462,0.1745,-0.4302,6.7298,44.6105,0.0245,-0.198,-0.1629,313.33
16:34:02:482,0.423,-0.0438,6.9189,44.5731,-0.4291,-0.082,-0.0852,313.39
16:34:02:502,0.2882,0.3489,7.4487,44.4639,-0.6537,-0.0437,-0.0394,313.35
16:34:02:522,-0.0046,0.7428,7.9491,44.6915,-0.7197,0.0639,0.0703,313.36
16:34:02:542,-0.2077,1.2857,8.3745,44.7652,-0.658,0.1459,0.2332,313.33
16:34:02:563,-0.0377,1.5526,8.6225,44.9414,-0.5302,0.1246,0.3056,313.14
16:34:02:588,0.297,1.7374,8.7753,45.1123,-0.411,-0.0703,0.2587,312.75
16:34:02:602,0.4989,1.8768,8.8402,45.5354,-0.3439,-0.165,0.1459,312.48
16:34:02:623,0.4654,1.8628,9.1744,45.6624,-0.2459,-0.2076,0.0287,312.35
16:34:02:642,0.4233,1.5404,9.5733,45.6771,-0.0106,-0.609,-0.1214,312.33
16:34:02:663,0.1826,1.5025,9.8797,45.9681,0.3332,-1.0998,-0.247,312.64
16:34:02:683,-0.0867,1.7618,9.5997,45.9396,0.5909,-1.3127,-0.197,312.9
16:34:02:702,0.0839,2.0537,9.1045,45.993,0.6005,-1.1892,0.0128,313.48
16:34:02:722,0.711,2.1539,8.8488,46.3085,0.3854,-0.8049,0.2108,313.72
16:34:02:743,1.2629,2.1139,9.2673,46.3387,0.1852,-0.1714,0.2917,313.77
16:34:02:766,1.3253,2.0615,9.9757,46.4631,0.1948,-0.0543,0.231,313.61
16:34:02:782,1.3251,1.9733,10.557,46.2906,0.3247,-0.1735,0.1852,313.36
16:34:02:802,1.3326,2.1462,11.1579,46.1319,0.4791,-0.0011,0.2364,313.26
16:34:02:822,1.3768,2.4422,11.4903,46.1794,0.643,0.2651,0.3332,313.2
16:34:02:847,1.4697,2.5787,11.4138,45.9933,0.7474,0.511,0.412,312.95
16:34:02:865,1.4708,2.4354,10.9381,46.2159,0.7144,0.6505,0.4557,312.47
16:34:02:883,1.0217,2.3174,10.5656,46.2992,0.5142,0.9199,0.5707,311.77
16:34:02:902,0.6552,1.7861,10.6338,46.4646,0.3513,1.1871,0.6718,310.88
16:34:02:923,0.0042,1.2393,10.7418,46.4603,0.3652,1.2212,0.5728,309.84
16:34:02:943,-1.1029,1.5787,10.825,46.4328,0.4887,1.005,0.5621,308.86
16:34:02:962,-1.5868,2.3165,10.7114,46.7074,0.5291,0.7548,0.7037,307.9
16:34:02:983,-0.7144,1.9863,10.2778,46.7621,0.2672,0.5089,0.8954,306.75
16:34:03:003,1.0539,0.7292,10.4154,46.6227,-0.1469,0.4322,0.988,305.3
16:34:03:024,2.1597,0.0204,10.9983,46.7666,-0.2395,0.5398,0.8549,303.9
16:34:03:042,2.1543,0.3354,11.2801,46.7423,0.099,0.4461,0.6324,302.9
16:34:03:062,1.9489,1.154,10.3769,47.0793,0.5366,0.1661,0.4599,302.24
16:34:03:084,1.9429,1.3275,8.5858,47.1947,0.6611,0.0777,0.2395,301.79
16:34:03:102,1.2334,1.3393,6.985,47.5517,0.3407,0.0671,-0.0011,301.4
16:34:03:122,-0.1345,1.622,6.3687,47.617,-0.23,0.2757,-0.0298,301.08
16:34:03:142,-1.2312,1.7193,6.5984,47.6792,-0.6899,0.4195,0.1629,300.76
16:34:03:169,-1.8233,1.9457,7.1382,47.7448,-0.8656,0.4397,0.4056,300.37
16:34:03:183,-1.6539,1.8986,7.6171,47.6765,-0.8219,0.2917,0.5792,299.74
16:34:03:202,-1.0827,1.6268,7.9231,47.5395,-0.6846,0.0724,0.5898,299.04
16:34:03:222,-0.7676,1.5683,8.2425,47.6584,-0.5366,-0.016,0.478,298.38
16:34:03:243,-0.8623,1.8056,8.3793,47.4562,-0.4046,0.1437,0.363,297.93
16:34:03:269,-0.9616,1.9977,8.4466,47.6616,-0.346,0.2885,0.2502,297.61
16:34:03:292,-1.041,1.8032,8.7637,47.8125,-0.3024,0.0735,0.1256,297.24
16:34:03:302,-1.106,1.7347,9.0691,47.9201,-0.2342,0.0458,0.1001,297.07
16:34:03:322,-1.0552,1.6434,9.1343,48.132,-0.164,0.1054,0.1267,297.02
16:34:03:349,-0.7508,1.1494,8.8425,48.0281,-0.3449,0.3513,0.198,296.89
16:34:03:362,-0.6015,0.3669,8.8487,47.9451,-0.8656,0.7101,0.3194,296.49
16:34:03:384,-1.1196,0.1027,10.1986,47.7501,-1.1839,1.2999,0.4408,295.8
16:34:03:404,-1.4214,0.7316,11.5111,47.8024,-0.4951,0.3854,0.5249,295.34
16:34:03:423,-0.8663,0.7774,10.9075,47.6239,0.3407,-0.2076,0.5983,295.02
16:34:03:512,0.0537,1.0694,10.2032,48.2158,0.7399,-0.5462,0.5675,294.66
16:34:03:513,0.5801,1.8933,9.6368,48.6864,0.6856,-0.4408,0.477,294.12
16:34:03:513,0.3752,2.87,9.767,48.6927,0.3662,-0.0873,0.3439,293.6
16:34:03:514,-0.4151,3.8083,10.4662,48.5961,0.1618,0.0181,0.3226,293.04
16:34:03:527,-1.0051,4.3816,11.2263,48.4561,0.1405,-0.1011,0.4599,292.59
16:34:03:542,-0.7237,4.5731,11.7153,48.3796,0.2481,-0.4312,0.6675,292.09
16:34:03:562,1.7101,2.9996,11.2429,48.2653,0.2129,-0.823,0.757,291.38
16:34:03:584,4.2509,0.6433,10.5982,48.0027,-0.0617,-0.807,0.4514,290.44
16:34:03:602,4.9361,-1.2083,10.224,48.165,-0.3013,-0.1416,-0.3258,289.9
16:34:03:623,3.2314,-1.9059,10.5279,48.0565,-0.3066,0.2906,-1.0359,290.23
16:34:03:642,0.9068,-1.9071,10.4354,48.0396,-0.1991,0.3343,-1.2712,291.4
16:34:03:664,-0.6771,-1.1769,9.8895,48.1134,-0.3056,0.1107,-1.0104,293.04
16:34:03:683,-1.0779,-0.114,9.5081,48.0107,-0.7037,0.0234,-0.5142,293.76
16:34:03:702,-0.5005,0.401,9.7202,47.8368,-1.1285,0.1874,-0.099,294.16
16:34:03:722,0.3203,0.4212,10.282,47.6624,-1.251,0.3311,0.0053,294.18
16:34:03:743,0.8406,0.1925,10.6696,47.7484,-0.9518,0.3513,-0.2385,294.25
16:34:03:762,0.4783,-0.139,10.4714,47.5306,-0.3918,0.3641,-0.6303,294.76
16:34:03:782,-0.6055,-0.5546,9.5891,47.7032,0.1714,0.4046,-0.905,295.78
16:34:03:802,-1.7513,-0.3868,8.5895,47.8132,0.6058,0.313,-0.8805,297.09
16:34:03:822,-2.452,0.1868,7.6108,48.036,0.8411,0.214,-0.6175,298.28
16:34:03:842,-2.5412,0.4444,6.5498,47.8823,0.8123,0.1789,-0.2896,299.1
16:34:03:862,-2.2959,0.3735,5.7829,47.9784,0.4642,0.0767,-0.0117,299.35
16:34:03:883,-2.3135,0.5044,5.7991,47.8938,-0.0362,-0.1171,0.2576,299.1
16:34:03:903,-2.2053,0.819,6.4951,47.9344,-0.593,-0.3758,0.6771,298.47
16:34:03:923,-1.4624,0.6791,7.2722,47.5676,-1.0455,-0.5068,1.0636,297.46
16:34:03:942,-0.2951,0.3803,8.626,47.7334,-1.3148,-0.4088,1.2829,296.11
16:34:03:962,0.5511,0.3921,10.1969,47.398,-1.2872,-0.2928,1.3415,294.64
16:34:03:983,0.9919,0.5077,11.5942,47.3963,-0.9401,-0.2193,1.2456,293.26
16:34:04:002,1.0622,0.9236,12.5425,47.56,-0.3343,-0.2353,1.0316,292.13
16:34:04:022,0.8758,1.6879,12.7758,48.0452,0.4141,-0.2885,0.8677,291.33
16:34:04:042,1.2643,1.9169,12.1232,47.9157,0.9177,-0.3843,0.7836,290.73
16:34:04:063,1.6761,1.9379,11.123,47.9399,1.0987,-0.3119,0.5845,290.02
16:34:04:084,1.5842,1.9713,10.4424,47.6159,1.0253,-0.2204,0.3758,289.51
16:34:04:102,1.1748,2.2276,10.3435,47.3861,0.807,-0.181,0.3684,288.8
16:34:04:122,0.8555,2.6078,10.9296,47.1535,0.5845,-0.0596,0.625,288.23
16:34:04:142,1.164,2.8855,11.4864,47.1827,0.5792,0.0809,0.8155,287.51
16:34:04:168,1.8113,2.7976,11.2126,47.224,0.642,-0.2161,0.5068,286.56
16:34:04:184,1.7143,2.4652,10.8632,47.0515,0.3599,-0.412,0.0756,285.92
16:34:04:202,1.6724,1.4615,11.1647,47.0657,-0.1927,-0.3471,-0.1171,285.4
16:34:04:222,2.229,-0.5221,12.1153,46.9204,-0.5611,-0.016,-0.2097,285.2
16:34:04:249,2.2426,-1.7733,12.9458,46.97,-0.3002,0.1831,-0.4312,285.44
16:34:04:262,1.6195,-1.8948,12.7723,46.72,0.4642,-0.05,-0.7495,286.3
16:34:04:284,0.867,-1.4139,11.0589,46.6126,1.0625,-0.2566,-0.9433,287.61
16:34:04:302,0.373,-1.0302,8.8034,46.2556,0.9731,-0.1767,-0.9539,288.88
16:34:04:322,-0.3348,-1.0009,7.3359,45.9056,0.3418,0.181,-0.8177,289.78
16:34:04:342,-1.1378,-1.1888,7.4761,45.9307,-0.296,0.3769,-0.5653,290.3
16:34:04:362,-1.8519,-0.8687,8.2948,46.067,-0.4578,0.3428,-0.2662,290.66
16:34:04:388,-2.1983,-0.251,8.6643,46.0578,-0.1874,0.0692,0.0937,290.98
16:34:04:402,-1.5302,0.4127,8.1784,45.9458,0.1618,-0.1895,0.5057,291.1
16:34:04:425,-0.1622,0.7575,7.3075,45.8212,0.3237,-0.1533,0.7101,290.77
16:34:04:442,0.7066,1.3477,6.6987,45.8929,0.33,-0.1299,0.5919,290.07
16:34:04:462,0.8646,2.2331,6.313,45.5941,0.2108,-0.2246,0.2832,289.35
16:34:04:483,0.6107,2.8431,6.061,45.7158,-0.0905,-0.3694,0.0192,288.84
16:34:04:506,0.4258,3.0509,6.1207,45.7236,-0.642,-0.346,-0.0692,288.52
16:34:04:522,0.3846,2.8049,7.0516,46.1287,-1.2637,-0.0532,-0.1341,288.24
16:34:04:543,0.3954,1.954,8.529,45.979,-1.6268,-0.0319,-0.2278,288.06
16:34:04:562,0.1975,1.3718,10.3229,45.6401,-1.5523,0.0202,-0.2353,288.19
16:34:04:587,0.2379,1.1492,11.8838,45.7842,-1.0242,0.0468,-0.1214,288.72
16:34:04:604,0.7057,1.1894,12.4671,45.8473,-0.2555,-0.0777,-0.0671,289.36
16:34:04:622,1.3447,1.3565,12.0065,45.4583,0.3907,-0.1959,-0.1821,289.95
16:34:04:642,1.477,1.5786,11.311,45.3351,0.6792,-0.1884,-0.4141,290.47
16:34:04:667,1.0852,1.8556,10.8551,45.5397,0.7208,-0.1522,-0.5834,290.92
16:34:04:682,0.3928,2.0711,10.7357,45.3842,0.5877,-0.1469,-0.6015,291.65
16:34:04:702,-0.0229,2.5511,11.1239,45.3003,0.3939,-0.1554,-0.3577,292.23
16:34:04:722,0.3749,2.9468,11.6974,45.4959,0.2662,-0.2012,-0.0245,292.58
16:34:04:747,1.0337,3.4248,12.3277,45.4795,0.2875,-0.1799,0.1448,292.62
16:34:04:762,1.8393,3.602,12.4925,45.5317,0.4599,-0.0798,0.0447,292.6
16:34:04:784,2.9699,2.1202,11.6928,45.6902,0.5227,-0.0862,-0.3183,292.76
16:34:04:808,3.3208,0.4842,10.9152,45.5976,0.4216,-0.1661,-0.8283,292.94
16:34:04:823,2.7787,-0.7844,10.5627,45.2593,0.412,-0.082,-1.1945,293.81
16:34:04:846,1.8734,-1.7213,10.111,45.1378,0.51,0.0458,-1.3266,295.24
16:34:04:862,0.9776,-2.2204,9.1812,45.0109,0.5898,0.197,-1.3287,296.89
16:34:04:887,0.2814,-1.9951,8.2181,44.7061,0.4642,0.1107,-1.1882,298.53
16:34:04:902,-0.1523,-1.2427,7.254,44.695,0.0298,0.0948,-0.905,299.55
16:34:04:922,-0.2653,-0.2591,7.1887,44.6826,-0.5366,0.1416,-0.609,300.26
16:34:04:942,-0.1025,0.3582,7.6693,44.9099,-0.9348,0.2662,-0.4099,300.65
16:34:04:962,-0.0034,0.8259,8.2109,44.6424,-1.0135,0.3364,-0.3599,300.99
16:34:04:983,-0.0686,1.115,8.4527,44.9785,-0.7974,0.2736,-0.4599,301.43
16:34:05:002,-0.2818,1.213,8.2853,44.8024,-0.5132,0.1235,-0.5973,302.05
16:34:05:022,-0.6975,1.0718,7.7743,44.6075,-0.3684,0.1022,-0.6761,302.81
16:34:05:042,-1.2934,1.0892,7.6209,44.7188,-0.3609,0.115,-0.6218,303.62
16:34:05:062,-1.6938,1.1287,7.6408,44.8045,-0.4557,0.1363,-0.3854,304.3
16:34:05:082,-1.5589,1.0347,7.8852,44.5898,-0.5345,0.1065,-0.1097,304.73
16:34:05:102,-0.9179,0.587,8.0119,44.625,-0.5643,-0.0628,0.0777,304.83
16:34:05:123,-0.3816,0.4111,8.0723,44.614,-0.6739,-0.1948,0.2108,304.67
16:34:05:142,-0.0464,0.3978,8.6461,44.7873,-0.8208,-0.2236,0.363,304.35
16:34:05:162,-0.0258,0.5082,9.5598,44.9578,-0.8847,-0.1299,0.461,304
16:34:05:183,-0.1911,0.9824,10.5567,45.1824,-0.7282,-0.0383,0.5856,303.47
16:34:05:202,-0.0341,1.526,11.2735,45.3419,-0.3982,-0.0554,0.6824,303
16:34:05:223,0.5545,1.872,11.5255,45.5083,-0.0681,-0.1906,0.675,302.42
16:34:05:248,1.0525,1.8251,11.5678,45.5189,0.1299,-0.0639,0.5153,301.81
16:34:05:263,1.0749,1.5403,11.6716,45.668,0.2151,0.033,0.3215,301.32
16:34:05:283,0.6889,1.6968,11.7926,46.0405,0.2278,0.116,0.3535,300.97
16:34:05:303,0.8672,1.5012,12.0472,45.9069,0.1831,-0.0788,0.5536,300.56
16:34:05:328,0.938,1.1355,12.4003,46.0048,0.0916,-0.0798,0.7548,299.86
16:34:05:346,0.177,0.7427,12.9523,46.1728,0.1224,0.2012,0.9177,299.04
16:34:05:362,-0.6223,0.6476,13.0971,45.7088,0.379,0.2555,1.0253,298.18
16:34:05:383,-0.3466,0.4922,12.6682,45.768,0.6952,-0.0745,0.972,297.2
16:34:05:409,0.9704,-0.2653,11.7422,45.5824,0.7357,-0.2864,0.7506,296.1
16:34:05:424,1.8654,-1.4393,11.1971,45.3481,0.444,-0.1459,0.3237,295.09
16:34:05:444,1.4379,-2.0288,11.3756,45.7593,0.2108,0.2757,-0.1086,294.51
16:34:05:462,0.1806,-1.8164,11.4627,45.8518,0.346,0.6281,-0.4046,294.64
16:34:05:483,-0.899,-1.4971,10.4931,45.8964,0.6111,0.643,-0.5089,295.26
16:34:05:502,-1.4217,-1.4699,8.828,46.0635,0.6569,0.5845,-0.5164,295.9
16:34:05:581,-1.888,-1.3249,7.6728,45.877,0.4706,0.5813,-0.4397,296.39
16:34:05:582,-2.526,-0.4549,7.2428,45.7559,0.2736,0.3098,-0.165,296.7
16:34:05:584,-2.4358,0.6365,6.9045,45.7936,-0.0298,0.0628,0.4312,296.66
16:34:05:585,-1.0706,0.5844,6.6688,45.6552,-0.445,0.2598,0.9113,296.02
16:34:05:608,0.2547,0.2592,6.948,45.8014,-0.6718,0.4897,0.9284,294.95
16:34:05:622,0.4964,0.5301,7.6274,45.7897,-0.4386,0.3503,0.5536,293.85
16:34:05:643,-0.1119,1.4026,8.0003,45.6037,0.0692,-0.0245,0.1182,293.3
16:34:05:663,-0.6282,1.8931,7.5907,45.783,0.428,-0.2736,-0.1533,293.2
16:34:05:685,-0.6724,1.7244,6.7221,45.6035,0.4322,-0.3545,-0.2662,293.52
16:34:05:702,-0.5771,1.3507,6.04,45.5671,0.0884,-0.3843,-0.3268,293.66
16:34:05:722,-0.8526,0.9404,6.2315,45.77,-0.478,-0.3918,-0.346,293.74
16:34:05:742,-1.3466,0.7129,7.3264,45.8274,-0.9326,-0.4301,-0.2704,293.8
16:34:05:762,-1.6565,0.5828,8.6077,45.7726,-1.152,-0.4291,-0.1097,293.91
16:34:05:783,-1.7461,0.5944,10.1823,45.8914,-1.0966,-0.445,0.0692,294.06
16:34:05:803,-2.035,1.5138,11.9165,45.8988,-0.7634,-0.6952,0.3822,294.1
16:34:05:828,-1.2125,2.1785,12.9491,45.7632,-0.4099,-0.7378,0.8368,293.94
16:34:05:843,0.2731,1.8642,13.3831,46.2273,-0.2225,-0.1884,0.9773,293.29
16:34:05:862,0.8178,1.9062,13.8951,45.9802,0.1118,0.1895,0.7091,292.48
16:34:05:883,0.7935,2.0314,13.8071,46.1814,0.6047,-0.1533,0.3237,291.91
16:34:05:908,0.7539,1.9851,13,46.4906,0.9199,-0.4631,0.0458,291.66
16:34:05:925,0.4958,1.9593,12.4342,46.4652,0.9667,-0.4408,-0.0234,291.65
16:34:05:944,0.7664,1.8198,11.6519,46.5595,0.8751,-0.2779,0.1086,291.69
16:34:05:962,1.7334,1.1066,10.6398,46.3186,0.527,-0.1139,0.1576,291.5
16:34:05:983,2.2228,0.2918,10.2999,45.9624,0.0617,0.0447,-0.0703,291.06
16:34:06:002,1.5904,-0.1597,10.8235,46.1721,-0.2076,0.2576,-0.3119,290.86
16:34:06:022,0.6117,-0.5521,11.4369,46.1141,-0.1288,0.4397,-0.3811,291.16
16:34:06:042,0.3406,-1.2847,11.315,46.1913,0.2002,0.379,-0.329,291.77
16:34:06:062,0.7993,-1.7904,10.3915,46.2319,0.5089,0.1011,-0.3471,292.34
16:34:06:086,1.3142,-1.979,9.266,46.1449,0.5632,-0.0479,-0.4589,292.82
16:34:06:102,1.333,-1.8962,8.4249,45.8598,0.329,0.1129,-0.6313,293.26
16:34:06:122,0.6851,-1.4801,8.1441,45.9392,0.0681,0.4695,-0.7282,293.84
16:34:06:142,-0.2368,-1.0007,8.0072,45.8164,-0.017,0.7719,-0.6803,294.61
16:34:06:166,-0.8568,-0.4627,7.6755,45.9945,-0.0021,0.8049,-0.5419,295.4
16:34:06:183,-1.1804,0.1057,7.4486,46.1171,0.0447,0.5419,-0.3992,295.96
16:34:06:202,-1.3675,0.5612,7.2546,46.0223,0.0809,0.313,-0.2491,296.34
16:34:06:222,-1.1748,0.8608,7.0446,45.7819,0.0681,0.3077,-0.132,296.6
16:34:06:247,-0.6736,0.7058,6.8657,45.9658,0.0202,0.1906,-0.2236,296.71
16:34:06:262,-0.7181,0.3688,6.824,45.7559,-0.0405,-0.0894,-0.5813,296.84
16:34:06:284,-1.6686,0.4568,7.6985,45.7225,-0.2374,-0.7708,-0.6643,297.17
16:34:06:302,-2.3341,0.8664,8.7227,45.5561,-0.4088,-1.104,-0.247,297.69
16:34:06:327,-1.8783,0.8449,9.3753,45.6634,-0.5313,-0.6611,0.444,298.13
16:34:06:342,-0.7151,0.7432,9.9108,45.5879,-0.5728,-0.0607,0.9742,297.93
16:34:06:362,0.3964,1.0545,10.315,45.6985,-0.4503,0.1778,1.1871,297.09
16:34:06:384,1.2573,1.5023,10.319,45.7118,-0.2332,0.1906,1.0945,295.83
16:34:06:408,1.5971,1.7674,10.0914,45.898,-0.0202,0.2726,0.7974,294.76
16:34:06:423,1.2477,1.8713,9.7382,45.7365,0.083,0.3939,0.4525,293.91
16:34:06:444,0.1495,2.1151,9.8664,45.7744,0.1916,0.3418,0.2076,293.39
16:34:06:463,-0.9432,2.5362,10.1471,45.8635,0.3641,0.0447,0.2214,293.15
16:34:06:489,-1.3139,2.9358,10.0652,45.878,0.4695,-0.2853,0.4376,292.93
16:34:06:502,-0.9639,2.9393,9.9282,45.7292,0.3449,-0.3109,0.6899,292.44
16:34:06:523,-0.6109,3.0615,10.198,45.8399,0.1267,-0.2246,0.9135,291.61
16:34:06:542,-0.0684,3.2903,10.8495,45.5737,-0.0586,-0.3439,1.0359,290.48
16:34:06:563,0.9226,3.1489,11.4269,45.532,-0.197,-0.6611,0.8677,289.18
16:34:06:585,2.1865,1.79,11.7458,45.4912,-0.3609,-0.9859,0.3992,288.01
16:34:06:602,2.514,-0.054,12.2171,45.5768,-0.5121,-0.9688,-0.1267,287.34
16:34:06:622,1.857,-1.4575,12.7106,45.4893,-0.5057,-0.3311,-0.4141,287.43
16:34:06:642,0.6636,-1.6619,12.6361,45.4949,-0.049,0.412,-0.5089,288.23
16:34:06:662,-0.301,-1.4768,11.253,45.588,0.593,0.4546,-0.5983,289.3
16:34:06:683,-0.9209,-1.1138,9.0839,45.8055,0.89,0.28,-0.6803,290.36
16:34:06:702,-1.4518,-0.6656,7.2341,45.5625,0.5526,0.3173,-0.6867,291.09
16:34:06:722,-1.9674,-0.5587,6.4963,45.5244,-0.0852,0.4642,-0.6186,291.51
16:34:06:742,-2.355,-0.7847,6.6643,45.2256,-0.5717,0.3386,-0.4503,291.79
16:34:06:762,-2.4872,-0.9643,6.9629,44.9188,-0.8198,0.0319,-0.1725,292.01
16:34:06:783,-2.3871,-1.0674,7.3255,44.9184,-0.9667,-0.2087,0.2353,292.06
16:34:06:802,-1.924,-0.7883,7.821,44.8378,-1.0061,-0.3577,0.6771,291.77
16:34:06:827,-1.1913,-0.1153,8.4218,45.3781,-0.9816,-0.363,1.0316,291.04
16:34:06:843,-0.1916,0.5856,9.0679,45.7479,-0.8688,-0.2757,1.1381,289.98
16:34:06:862,0.9252,0.7286,9.5115,45.5444,-0.7644,-0.2885,0.9688,288.75
16:34:06:883,1.6899,0.4805,9.8668,45.7764,-0.6856,-0.264,0.6239,287.64
16:34:06:907,1.6296,0.3301,10.2367,45.8137,-0.5749,-0.1491,0.2576,286.91
16:34:06:923,1.0824,0.2583,10.6495,45.5219,-0.4014,-0.0096,0.0543,286.66
16:34:06:944,0.5711,0.3652,10.7898,45.9447,-0.1182,0.1097,-0.0202,286.76
16:34:06:962,0.1505,0.3403,10.608,45.879,0.1927,0.1043,-0.0522,287.03
16:34:06:988,-0.1434,0.5009,10.4476,45.6708,0.4834,0.1171,-0.0586,287.32
16:34:07:002,-0.3694,0.7957,10.3036,45.6173,0.757,0.0096,-0.0309,287.61
16:34:07:023,-0.3101,1.2906,10.0427,45.5671,0.8847,-0.115,0.0437,287.78
16:34:07:042,0.0962,1.5051,9.8436,45.2979,0.8389,-0.2161,0.0948,287.77
16:34:07:063,0.7449,1.5714,9.7774,45.3735,0.6281,-0.3897,0.0926,287.55
16:34:07:086,1.3188,1.5678,10.2534,45.4018,0.3311,-0.6111,0.0117,287.23
16:34:07:102,1.3531,2.0366,11.2133,45.5644,0.082,-0.6814,-0.0298,286.91
16:34:07:123,1.2277,2.8626,12.521,45.5638,-0.0713,-0.5738,0.0628,286.79
16:34:07:142,1.2715,3.6957,14.2129,45.6339,-0.0011,-0.363,0.1235,286.71
16:34:07:163,1.8152,3.7927,15.1361,45.3597,0.4727,-0.2491,-0.0064,286.78
16:34:07:183,3.1077,2.105,14.2538,45.3784,0.9624,-0.3002,-0.4546,287.27
16:34:07:202,3.3579,-0.0509,12.736,45.5361,1.2669,-0.1789,-1.0817,288
16:34:07:222,2.3596,-1.695,11.1963,45.9373,1.4288,0.0735,-1.5533,289.41
16:34:07:246,0.8041,-2.649,9.6575,46.2947,1.4554,0.3449,-1.6566,291.32
16:34:07:262,-0.7,-2.4689,8.2993,47.0903,1.3095,0.5281,-1.4117,293.24
16:34:07:283,-1.3256,-1.6263,7.0283,47.5796,0.9273,0.5355,-0.9465,294.66
16:34:07:302,-1.2565,-1.0023,6.075,47.2988,0.3141,0.5195,-0.478,295.34
16:34:07:326,-1.0607,-0.2634,5.8947,47.4402,-0.3247,0.4205,-0.1129,295.36
16:34:07:343,-1.1306,0.5264,6.3625,47.0876,-0.7719,0.2981,0.1405,295.01
16:34:07:363,-1.003,0.7668,6.8738,46.9136,-1.0082,0.2523,0.2853,294.59
16:34:07:383,-0.8531,0.714,7.3164,46.8706,-1.1647,0.2161,0.3726,294.1
16:34:07:407,-1.1316,0.7094,8.1423,46.9753,-1.1945,0.3503,0.4014,293.58
16:34:07:422,-1.5251,0.8767,9.0491,47.0728,-0.9273,0.3194,0.428,293.21
16:34:07:442,-1.603,0.9312,9.4001,47.1245,-0.4919,0.1884,0.5004,292.93
16:34:07:463,-1.3375,1.027,9.162,47.2667,-0.1065,0.0937,0.6047,292.64
16:34:07:488,-0.9125,1.0494,8.7434,47.2773,0.0628,0.0681,0.7591,292.15
16:34:07:504,-0.2599,1.1422,8.4121,46.9232,-0.0053,0.0713,0.9177,291.34
16:34:07:522,0.3637,1.1754,8.2798,46.3537,-0.2119,-0.0245,1.0338,290.18
16:34:07:542,1.0216,1.0887,8.4839,46.4313,-0.4716,-0.1182,1.0881,288.82
16:34:07:568,1.2191,1.1115,9.2243,46.6603,-0.6792,-0.1916,1.104,287.37
16:34:07:584,1.3313,1.1666,10.3702,46.728,-0.6548,-0.0713,1.2062,286.01
16:34:07:647,1.7358,1.7745,11.3466,46.8762,-0.2353,0.082,1.2861,284.85
16:34:07:649,2.325,2.2922,11.6621,46.8607,0.3332,-0.1789,1.0466,283.77
16:34:07:650,2.5396,2.7567,11.3246,46.8439,0.7676,-0.3918,0.6814,282.86
16:34:07:663,2.513,3.2258,10.7436,46.904,0.9284,-0.3151,0.4802,281.84
16:34:07:682,2.581,3.3367,10.2901,46.8377,0.8219,-0.2332,0.4461,281.64
16:34:07:702,2.9135,2.8532,9.92,46.5833,0.5557,-0.1459,0.4397,280.99
16:34:07:722,3.048,2.4807,10.2964,46.3766,0.379,0.0628,0.3567,280.32
16:34:07:742,2.6739,2.4466,10.9388,45.954,0.4301,0.1906,0.197,279.87
16:34:07:762,1.9889,2.5009,11.0941,45.6869,0.6281,0.0511,-0.0703,279.74
16:34:07:788,1.2755,2.4241,10.6795,45.7367,0.6622,-0.1224,-0.4386,279.98
16:34:07:802,0.6585,1.6384,10.7681,45.7098,0.4919,-0.5398,-0.8187,280.22
16:34:07:826,0.125,0.2746,11.5063,45.603,0.2949,-1.1583,-1.0487,280.94
16:34:07:843,0.076,-1.2056,11.8862,45.3234,0.1959,-1.1743,-0.9475,282.09
16:34:07:863,0.3307,-2.2386,11.7163,44.9149,0.2289,-0.6622,-0.7527,283.4
16:34:07:883,-0.0288,-1.7223,11.4499,44.8314,0.4259,-0.2449,-0.6654,284.65
16:34:07:907,-0.3897,-1.1026,10.2427,44.4821,0.5696,-0.2885,-0.5856,285.64
16:34:07:922,-0.1451,-0.5749,8.5831,44.3728,0.346,-0.2246,-0.3673,286.35
16:34:07:942,0.3118,0.0923,7.4305,44.6161,-0.1501,0.1395,-0.0256,286.59
16:34:07:963,0.7636,0.7162,7.1689,44.2806,-0.5973,0.2406,0.2513,286.29
16:34:07:988,0.9869,1.313,7.2498,44.2153,-0.7889,0.4173,0.3748,285.77
16:34:08:002,1.287,1.6454,7.4924,44.1062,-0.7623,0.5142,0.3684,285.27
16:34:08:022,1.7387,2.3049,7.7973,43.7655,-0.5515,0.5664,0.2225,284.9
16:34:08:043,1.8573,2.5751,7.7029,43.5015,-0.3237,0.5675,-0.0798,284.76
16:34:08:068,1.3764,2.8873,7.5367,43.5272,-0.1927,0.4887,-0.412,284.92
16:34:08:084,0.6757,2.6002,7.3856,43.2359,-0.2672,0.1767,-0.6824,285.3
16:34:08:102,-0.2764,2.138,7.602,43.0473,-0.5281,0.0596,-0.7761,285.85
16:34:08:122,-1.0137,1.8221,8.1803,42.9441,-0.8017,0.05,-0.6484,286.51
16:34:08:148,-1.3345,1.3975,8.8068,42.7446,-0.8837,0.0617,-0.4301,287.14
16:34:08:162,-1.3193,1.1227,9.3767,42.7585,-0.7431,0.0138,-0.1938,287.87
16:34:08:183,-1.2217,1.08,9.6965,42.4342,-0.4951,-0.0628,0.0043,288.13
16:34:08:202,-0.865,1.1893,9.9436,42.3509,-0.2853,-0.1352,0.2097,288.33
16:34:08:222,-0.5889,1.2935,10.2372,42.46,-0.1565,0.0532,0.3428,288.28
16:34:08:245,-0.6187,1.4846,10.7831,42.2944,-0.0458,0.1522,0.478,288
16:34:08:262,-0.38,2.2501,11.3858,42.2171,0.2566,-0.049,0.5536,287.63
16:34:08:284,0.1861,2.6555,11.2309,42.1147,0.5675,-0.2129,0.4951,287.24
16:34:08:302,0.559,2.6712,10.7737,41.7304,0.5291,-0.2832,0.3939,286.75
16:34:08:326,0.6359,2.8413,11.0912,41.2202,0.2598,-0.1011,0.4567,286.18
16:34:08:342,1.2981,3.2181,11.689,40.9564,0.0085,0.181,0.6335,285.52
16:34:08:362,2.6848,3.7382,12.6744,40.8499,-0.116,0.56,0.6633,284.71
16:34:08:383,3.8239,2.8562,13.0399,40.9789,0.0362,0.4578,0.3577,283.99
16:34:08:406,4.0216,1.5448,12.4144,40.829,0.1203,0.445,-0.2012,283.61
16:34:08:422,3.9433,-0.2407,12.1622,40.8363,0.1129,0.6122,-0.8613,283.75
16:34:08:442,2.3902,-1.1333,11.9905,40.5996,0.3481,0.938,-1.3297,284.75
16:34:08:462,0.6765,-1.6301,11.2505,40.3445,0.8262,0.7367,-1.5544,286.46
16:34:08:487,-0.5594,-1.7465,9.8979,40.0477,1.1669,0.2896,-1.5608,288.62
16:34:08:502,-1.4801,-1.352,8.5785,40.068,1.0263,0.1001,-1.3787,290.2
16:34:08:522,-1.938,-0.6904,7.7878,40.1801,0.5845,0.0809,-1.0476,291.58
16:34:08:542,-1.6671,-0.3188,7.4085,39.9291,0.0256,0.0862,-0.6803,292.48
16:34:08:568,-0.9615,0.0558,7.49,39.7825,-0.4056,0.1597,-0.4035,292.97
16:34:08:584,-0.4986,0.5276,7.5849,39.7443,-0.6462,0.2161,-0.3066,293.22
16:34:08:602,-0.3561,0.8224,7.6835,39.484,-0.757,0.2023,-0.2864,293.5
16:34:08:623,-0.387,1.5012,8.1183,39.3353,-0.6697,0.1533,-0.2236,293.81
16:34:08:648,0.0433,1.7361,8.4045,39.2306,-0.4482,0.1129,-0.2097,294.16
16:34:08:665,0.3503,1.5685,8.6215,39.1433,-0.0884,0.1246,-0.3609,294.7
16:34:08:683,0.1911,1.3477,8.3726,39.1055,0.2395,0.0277,-0.6015,295.22
16:34:08:702,-0.3469,1.4017,7.9459,38.9712,0.3577,-0.1341,-0.7314,295.92
16:34:08:723,-0.7524,1.5812,7.6584,39.0274,0.2651,-0.0798,-0.6281,296.73
16:34:08:742,-0.7606,1.6265,7.5169,38.7825,0.0522,0.0117,-0.4376,297.43
16:34:08:762,-0.5824,1.6103,7.8034,39.0878,-0.1576,0.0511,-0.3396,297.84
16:34:08:783,-0.7427,1.8856,8.381,39.0965,-0.2236,0.0554,-0.3226,298.17
16:34:08:802,-0.9921,2.2904,9.0832,38.9245,-0.1448,-0.2033,-0.2779,298.5
16:34:08:825,-1.1196,2.7252,9.5549,38.6877,-0.0479,-0.4035,-0.1554,298.83
16:34:08:842,-0.943,3.0112,9.9689,38.4646,-0.0224,-0.1043,0.0437,299.13
16:34:08:863,-0.6603,3.1668,10.2779,38.2951,-0.0053,0.3268,0.1459,299.32
16:34:08:883,-0.551,3.1911,10.6301,38.3287,-0.0075,0.3087,0.0596,299.22
16:34:08:906,0.2054,2.1492,12.0301,38.2376,0.0841,-0.0394,-0.1331,298.98
16:34:08:922,-0.7887,2.4857,12.8507,38.4356,0.395,0.4557,-0.3024,299.34
16:34:08:942,-1.3958,2.0434,12.8161,38.1474,0.7964,0.4259,-0.1597,299.95
16:34:08:962,-1.7614,2.0341,12.3646,38.1037,1.0987,0.3535,-0.0085,300.33
16:34:08:986,-2.1113,2.0268,11.2574,37.7989,1.2062,0.4312,-0.0884,300.48
16:34:09:003,-2.7501,1.4531,9.9813,38.1352,1.004,0.2576,-0.3087,300.47
16:34:09:022,-3.5832,1.0969,9.4715,37.8649,0.4727,-0.0948,-0.2502,300.37
16:34:09:042,-3.3637,0.2634,9.6329,37.8601,-0.0447,0.0213,0.1533,300.27
16:34:09:068,-2.1993,-0.8696,10.0965,37.7269,-0.1959,0.1373,0.3641,300.07
16:34:09:084,-1.8286,-0.3353,10.4581,37.9741,0.1022,-0.1022,0.198,299.73
16:34:09:102,-1.9603,0.5233,9.5542,37.9913,0.3886,-0.3929,-0.0298,299.59
16:34:09:122,-2.1798,0.8568,8.3644,38.0873,0.1916,-0.5015,-0.0703,299.61
16:34:09:148,-2.3733,0.7697,7.7078,38.0502,-0.313,-0.4088,0.1703,299.57
16:34:09:162,-2.0994,0.501,7.6371,38.2518,-0.8166,-0.1427,0.5738,299.35
16:34:09:183,-1.3627,0.4848,7.9977,38.3575,-1.0444,0.0426,0.89,298.61
16:34:09:202,-0.7269,0.6177,8.4196,38.2996,-0.8986,0.0511,0.9316,297.67
16:34:09:228,-0.4859,0.7782,8.8053,38.3161,-0.5078,-0.1544,0.7985,296.78
16:34:09:244,-0.5323,1.028,8.6624,38.1052,-0.0586,-0.1735,0.6505,296.11
16:34:09:264,-0.7526,1.4786,8.1049,38.2731,0.23,-0.0256,0.544,295.64
16:34:09:289,-0.9519,1.8232,7.5142,37.9459,0.2864,0.1129,0.4802,295.22
16:34:09:302,-0.964,2.1664,7.3339,38.249,0.1533,0.1373,0.4152,294.61
16:34:09:322,-1.11,2.6568,7.4532,38.2311,-0.0586,0.0415,0.3343,293.97
16:34:09:342,-1.1736,2.7649,7.7511,38.396,-0.33,-0.0021,0.3322,293.39
16:34:09:363,-0.9727,2.4783,8.1902,38.7101,-0.61,0.0373,0.3737,292.84
16:34:09:384,-0.7555,2.223,8.9964,38.5504,-0.741,0.132,0.4248,292.19
16:34:09:406,-0.5747,2.1826,9.729,38.2861,-0.5781,0.2694,0.4301,291.86
16:34:09:422,-0.638,2.4053,10.2926,38.2668,-0.2204,0.1522,0.3247,291.56
16:34:09:442,-1.0467,3.0058,10.6017,38.2695,0.1629,-0.2811,0.2332,291.34
16:34:09:462,-1.2555,3.5271,10.4988,38.1489,0.3982,-0.5206,0.264,291.21
16:34:09:486,-0.9709,3.3451,10.2987,38.3849,0.3364,-0.5696,0.3322,291.01
16:34:09:503,-0.6824,3.0337,10.5931,38.4432,0.0745,-0.5249,0.3684,290.58
16:34:09:522,-0.738,2.7909,11.4778,38.3628,-0.0873,-0.4503,0.4557,290.09
16:34:09:542,-1.0311,3.0572,12.5927,38.3982,0.033,-0.5195,0.6292,289.63
16:34:09:567,-0.603,3.3842,13.3365,38.2896,0.3471,-0.8656,0.8155,289.14
16:34:09:583,1.4042,2.3283,13.0623,38.4231,0.5802,-1.0817,0.7101,288.47
16:34:09:603,3.0595,0.7641,12.0782,38.4586,0.6015,-0.6973,0.1906,287.88
16:34:09:623,3.0931,-0.5755,11.226,38.5257,0.5579,-0.0745,-0.5259,287.77
16:34:09:648,1.6199,-1.0653,10.6277,38.42,0.6792,0.4503,-1.1488,288.45
16:34:09:718,-0.4138,-1.1483,9.9252,38.455,0.8975,0.5696,-1.3734,289.74
16:34:09:725,-1.9948,-0.2543,9.0246,38.8359,0.9497,0.2523,-1.1211,291.35
16:34:09:726,-2.3047,0.901,8.0983,38.5941,0.577,0.0809,-0.5515,292.42
16:34:09:726,-1.5491,1.7006,7.4402,38.6392,-0.1437,0.2268,-0.0096,292.71
16:34:09:742,-0.3881,2.0321,7.8368,38.6059,-0.7399,0.3322,0.2236,292.3
16:34:09:762,0.4069,2.3012,8.3933,38.3692,-0.8155,0.3226,0.1554,291.77
16:34:09:783,0.9474,2.2114,8.3598,38.3881,-0.5291,0.3024,-0.0809,291.64
16:34:09:806,0.9553,2.2125,7.9663,38.4761,-0.2214,0.2023,-0.379,291.84
16:34:09:823,0.5813,1.7413,7.5746,38.788,-0.083,0.1544,-0.6005,292.36
16:34:09:844,-0.0986,1.8273,7.653,38.7541,-0.1278,0.2364,-0.6867,292.98
16:34:09:863,-0.4553,2.0288,7.5753,39.0618,-0.1203,0.3471,-0.6505,293.73
16:34:09:883,-0.4985,1.7611,7.2546,39.1083,-0.1576,0.3034,-0.659,294.45
16:34:09:905,-0.7968,1.6134,7.1581,39.3479,-0.2853,0.1118,-0.659,295.04
16:34:09:922,-1.2623,1.4803,7.2809,39.4559,-0.477,0.0287,-0.5462,295.61
16:34:09:942,-1.6877,1.5537,7.7018,39.6157,-0.6963,0.0724,-0.2672,296.12
16:34:09:962,-1.8039,1.6938,8.4266,39.6222,-0.807,0.1874,0.0106,296.4
16:34:09:986,-1.6743,1.7474,9.1275,39.6598,-0.7591,0.1576,0.1884,296.33
16:34:10:002,-1.508,2.0151,9.8595,39.8361,-0.5547,0.1427,0.2757,296.31
16:34:10:023,-1.2546,2.0622,10.2646,40.0046,-0.3194,0.0522,0.3492,296.16
16:34:10:042,-0.9862,2.2002,10.5674,40.0166,-0.1054,-0.0713,0.445,295.89
16:34:10:067,-0.7436,2.7637,10.9803,39.7328,0.1214,-0.1246,0.5504,295.54
16:34:10:084,-0.1925,3.1616,11.2074,39.686,0.3492,-0.2406,0.5802,295.11
16:34:10:102,0.2015,3.5627,11.1809,39.7664,0.5291,-0.2864,0.4546,294.55
16:34:10:122,0.1266,4.0253,10.9665,40.0116,0.6633,-0.3098,0.3077,294.15
16:34:10:147,-0.5554,4.3748,10.7788,40.4062,0.6814,-0.3801,0.3609,293.86
16:34:10:163,-0.6541,4.6194,10.5598,40.3701,0.5802,-0.4152,0.5898,293.38
16:34:10:184,0.2601,4.3271,10.3322,40.2669,0.4557,-0.4812,0.5323,292.88
16:34:10:202,0.782,3.9284,10.2513,40.0138,0.1821,-0.5515,0.1778,292.13
16:34:10:228,0.5774,2.9151,10.624,39.8955,-0.2289,-0.2864,-0.2055,291.73
16:34:10:242,0.5064,1.4018,11.3628,40.0071,-0.4695,-0.2183,-0.444,291.74
16:34:10:262,0.4589,-0.2656,11.9547,40.335,-0.3758,-0.0075,-0.593,292.22
16:34:10:283,0.0796,-1.3189,12.0615,40.958,0.1576,0.1086,-0.824,293.2
16:34:10:308,-0.6544,-1.4657,10.914,41.0855,0.7889,-0.033,-1.0487,294.53
16:34:10:324,-1.623,-0.8241,9.0378,41.1503,1.0561,0.0862,-1.1147,296.02
16:34:10:342,-2.2765,-0.1778,7.3907,41.4417,0.7208,0.264,-0.9507,297.33
16:34:10:362,-2.4136,0.5276,6.9289,41.407,0.0979,0.297,-0.6739,298.07
16:34:10:383,-2.2368,0.6222,7.1774,41.2921,-0.3599,0.1757,-0.3449,298.42
16:34:10:404,-1.7122,0.187,7.5369,41.3656,-0.5579,-0.0437,-0.0319,298.56
16:34:10:422,-1.074,0.0659,7.8542,41.4914,-0.5877,-0.3418,0.2065,298.51
16:34:10:443,-0.5657,0.4427,8.3164,41.7059,-0.51,-0.4748,0.3481,298.31
16:34:10:463,-0.257,1.2526,8.4662,41.803,-0.2885,-0.5036,0.4514,298.09
16:34:10:486,0.0617,1.5691,8.3261,42.0306,-0.1129,-0.3929,0.3758,297.88
16:34:10:502,-0.0615,1.7627,8.0756,42.3256,-0.0181,-0.4248,0.1661,297.6
16:34:10:522,-0.7387,1.9564,7.7955,42.3924,-0.0575,-0.3247,0.0234,297.47
16:34:10:542,-1.3583,2.1516,7.7202,42.6503,-0.2033,-0.164,0.0607,297.47
16:34:10:562,-1.6471,2.3811,7.978,42.7469,-0.3652,-0.1043,0.1693,297.37
16:34:10:583,-1.67,2.61,8.4759,42.6542,-0.4727,-0.1352,0.2864,297.12
16:34:10:603,-1.5723,2.9516,9.0841,42.7932,-0.4557,-0.1906,0.3556,296.78
16:34:10:622,-1.5022,3.2567,9.6046,42.9792,-0.3577,-0.2683,0.3641,296.45
16:34:10:646,-1.0395,3.2062,9.9266,43.0413,-0.3056,-0.3215,0.3694,296.1
16:34:10:662,-0.272,2.7744,10.2872,43.4272,-0.3194,-0.2065,0.3662,295.8
16:34:10:683,0.1257,2.6094,10.8839,43.8458,-0.2896,0.0213,0.2811,295.41
16:34:10:702,0.0837,2.9085,11.3974,44.0331,-0.0788,0.1597,0.1746,295.24
16:34:10:727,0.1557,3.1347,11.7148,44.3242,0.2481,-0.0905,0.0426,295.2
16:34:10:742,0.1817,2.9858,11.4865,44.2616,0.3918,-0.3279,0.0053,295.25
16:34:10:763,0.1137,3.5364,11.9821,44.3466,0.4503,-0.6069,0.1959,295.25
16:34:10:784,0.4503,4.148,12.4351,44.2359,0.5621,-0.5164,0.494,295.17
16:34:10:804,1.3748,4.0126,11.9986,44.4669,0.6611,-0.3599,0.511,294.86
16:34:10:822,2.6041,2.5761,11.2588,44.6845,0.5089,-0.3748,0.1118,294.35
16:34:10:842,2.7232,0.8028,11.1416,44.7834,0.2896,-0.1363,-0.4365,294.08
16:34:10:866,1.6794,-0.619,11.3629,44.9497,0.3577,0.2087,-0.758,294.58
16:34:10:884,0.2658,-0.8768,11.1146,45.0171,0.692,0.3588,-0.7804,295.79
16:34:10:902,-0.3378,-0.8233,9.8428,45.5737,0.9156,0.1863,-0.6356,296.76
16:34:10:922,-0.5441,-0.4558,8.2862,45.7665,0.6228,0.0596,-0.4195,297.4
16:34:10:942,-0.4976,-0.0143,7.5445,45.8226,-0.0852,0.1139,-0.116,297.49
16:34:10:962,0.0036,0.265,7.8375,45.7558,-0.7623,0.2683,0.2076,297.14
16:34:10:985,0.9995,0.6224,8.3835,45.9624,-1.0806,0.4046,0.3992,296.57
16:34:11:002,1.7967,1.0487,8.9293,45.7697,-1.0253,0.4716,0.3162,296.03
16:34:11:023,1.8693,1.458,9.0445,45.9635,-0.6782,0.4546,0.0202,295.75
16:34:11:043,1.0561,1.7606,8.6101,46.2187,-0.3428,0.4897,-0.264,295.91
16:34:11:066,-0.1875,2.1563,8.1902,46.3743,-0.0543,0.4919,-0.3929,296.36
16:34:11:082,-0.9247,1.9923,7.8933,46.7072,0.0617,0.0437,-0.3886,296.89
16:34:11:103,-1.3452,1.8816,7.808,46.8207,0.132,0.0756,-0.2843,297.19
16:34:11:122,-1.3402,1.3208,7.2155,46.7588,0.2651,0.1991,-0.1001,297.7
16:34:11:146,-1.3251,1.4984,6.7434,47.101,0.2885,-0.0075,0.0383,297.89
16:34:11:162,-1.5622,1.8355,6.3924,47.1291,0.0479,-0.164,0.2044,297.7
16:34:11:183,-1.5975,1.8157,6.5025,46.9705,-0.3492,-0.2576,0.4919,297.27
16:34:11:202,-1.3442,1.7684,7.1013,46.9754,-0.7399,-0.2768,0.8283,296.49
16:34:11:227,-1.0249,2.1208,8.0364,47.1592,-0.9965,-0.3854,1.0806,295.4
16:34:11:243,-0.1621,1.7893,8.9786,47.1143,-1.1573,-0.4301,1.2137,294.04
16:34:11:262,0.7971,1.238,10.0956,47.2867,-1.1008,-0.0554,1.1828,292.69
16:34:11:283,1.1624,1.6166,11.4814,47.5855,-0.7091,0.1001,1.0146,291.59
16:34:11:307,1.377,2.2569,12.107,47.9143,-0.1192,-0.362,0.8187,290.74
16:34:11:323,2.0631,2.5367,12.0223,48.0343,0.3087,-0.5313,0.6867,290.06
16:34:11:342,2.6735,3.0081,11.76,48.5999,0.5089,-0.5781,0.5557,289.49
16:34:11:362,3.192,3.5289,11.6582,48.7697,0.5206,-0.7197,0.444,288.9
16:34:11:388,3.4808,3.7601,11.5936,48.8803,0.4578,-0.7378,0.329,288.34
16:34:11:404,3.167,4.2477,11.6003,48.8049,0.412,-0.4578,0.2779,287.95
16:34:11:422,3.0036,4.2857,11.6521,48.9084,0.428,0.017,0.0532,287.76
16:34:11:443,2.454,3.4095,11.5393,48.8538,0.3428,0.0043,-0.4972,287.73
16:34:11:469,1.3629,2.4309,11.6365,49.1754,0.1831,-0.2129,-0.9177,288.13
16:34:11:484,0.7601,0.6177,11.5453,49.1955,-0.0894,-0.2534,-0.9475,289
16:34:11:502,0.5807,-1.0097,11.8919,49.2052,-0.2353,0.1842,-0.7687,289.93
16:34:11:522,0.4873,-1.5259,11.9973,49.2282,0.0075,0.4993,-0.6686,291.01
16:34:11:542,0.392,-1.0819,11.9525,49.399,0.33,0.7314,-0.659,292.11
16:34:11:562,0.2858,-1.0063,10.2428,49.285,0.5813,0.4397,-0.7676,293.06
16:34:11:584,-0.4006,-1.2179,8.9603,49.5504,0.4493,0.3268,-0.8198,293.99
16:34:11:603,-1.2742,-0.8775,8.3827,49.7328,0.1991,0.3982,-0.5973,294.61
16:34:11:623,-1.5576,-0.6349,7.8498,49.7841,0.0149,0.3705,-0.2715,295.13
16:34:11:646,-1.4838,-0.2855,7.4067,49.8487,-0.0564,0.2332,0.0287,295.33
16:34:11:662,-1.0457,0.0922,7.0236,50.1249,-0.0532,0.0522,0.2502,295.24
16:34:11:683,-0.7744,0.5602,6.6497,50.0485,0.033,-0.017,0.3194,295.01
16:34:11:702,-0.6957,1.0248,6.3094,50.0856,0.1097,-0.0916,0.3237,294.71
16:34:11:727,-0.742,1.5833,6.0632,50.2147,0.0979,-0.1554,0.3119,294.37
16:34:11:781,-0.6689,2.0462,6.0596,50.104,-0.0948,-0.1725,0.3481,293.95
16:34:11:784,-0.5395,2.5209,6.4126,50.0056,-0.3716,-0.1916,0.378,293.39
16:34:11:785,-0.3482,2.6498,6.9842,50.3007,-0.5845,-0.2502,0.4141,292.78
16:34:11:802,-0.0962,2.5639,7.7273,50.5817,-0.6995,-0.2257,0.412,292.21
16:34:11:822,0.0352,2.3559,8.4354,50.7131,-0.7133,-0.1437,0.3386,291.72
16:34:11:842,-0.0896,2.1463,9.0995,51.048,-0.642,0.0106,0.2662,291.39
16:34:11:862,-0.3148,2.1564,9.7665,51.3192,-0.5015,0.2151,0.2353,291.22
16:34:11:883,-0.4072,2.1695,10.2754,51.4184,-0.3737,0.1256,0.2555,291.09
16:34:11:902,-0.215,2.2467,10.9885,51.4576,-0.33,-0.0639,0.3226,290.81
16:34:11:923,0.1199,2.5319,11.9484,51.6909,-0.3002,-0.0703,0.4418,290.44
16:34:11:943,0.8105,2.954,12.7319,51.5609,-0.2183,-0.1682,0.5334,290
16:34:11:968,1.6034,3.121,13.2845,51.6786,-0.1405,-0.2757,0.4887,289.44
16:34:11:984,1.9723,3.3323,14.0708,51.8295,0.0149,-0.3449,0.3662,288.92
16:34:12:002,2.0293,3.7638,14.5708,52.1956,0.3961,-0.4642,0.2459,288.68
16:34:12:028,2.7637,3.3906,13.9268,52.2943,0.8272,-0.5419,0.0532,288.71
16:34:12:043,4.1886,1.7361,12.2516,52.4081,0.9167,-0.4365,-0.4333,288.9
16:34:12:064,4.3473,0.0613,11.04,52.5112,0.7208,-0.3162,-1.0689,289.34
