Time,Acc_X,Acc_Y,Acc_Z,Meg,Gyr_X,Gyr_Y,Gyr_Z,Ore
17:03:26:901,-1.9919,3.2448,5.8144,68.4213,-0.9538,-0.9963,-0.0447,0.2211
17:03:26:921,-2.5018,3.1981,7.3479,70.8001,-0.9583,-1.3561,-0.041,0.1572
17:03:26:941,-3.5098,2.8808,9.9839,71.0286,-0.9679,-1.4573,0.1471,0.2211
17:03:26:963,-2.0493,3.1502,9.626,68.4261,-1.1098,-0.7763,0.4589,0.2211
17:03:26:981,-0.875,4.1917,8.0602,72.1357,-1.1351,-1.1007,0.5132,0.236
17:03:27:000,0.3844,4.8704,7.6903,70.7071,-1.2885,-1.5028,0.2459,0.2247
17:03:27:021,0.9351,4.3545,8.5761,69.9652,-1.5876,-1.4754,-0.1392,0.2133
17:03:27:041,0.8884,3.0867,10.1946,70.4747,-1.9019,-1.1944,-0.458,0.2017
17:03:27:063,-0.2106,2.4798,13.1838,70.9366,-2.0553,-0.6778,-0.5611,0.1874
17:03:27:082,-0.1699,1.6765,16.2268,70.1692,-1.6584,-0.0197,-0.5257,0.1699
17:03:27:101,0.127,1.3222,15.5636,71.4907,-0.871,-0.0826,-0.4191,0.1505
17:03:27:121,1.0332,0.9547,14.4192,69.5849,-0.2241,-0.5928,-0.2921,0.1293
17:03:27:141,0.4825,1.5437,12.7756,70.743,0.2486,-0.1071,-0.082,0.1129
17:03:27:163,-0.7098,1.5353,10.6244,70.5662,0.3416,0.7587,0.2491,0.1044
17:03:27:181,-1.0569,1.1055,10.3957,68.907,0.275,0.8786,0.5718,0.1013
17:03:27:201,0.2719,0.3849,9.6727,69.3495,0.2058,0.6623,0.7346,0.1035
17:03:27:222,0.6226,0.0401,8.1871,68.4432,0.0654,0.3366,0.533,0.1081
17:03:27:242,-0.3973,1.1522,8.709,69.913,-0.2957,-0.0413,0.1327,0.1139
17:03:27:263,-1.0581,0.5321,10.5825,69.3002,-0.7575,-0.2349,-0.151,0.1165
17:03:27:283,0.315,-0.6458,12.0358,69.011,-0.8944,-0.7143,-0.2319,0.1159
17:03:27:302,0.8788,-0.6746,12.9432,69.8236,-0.4978,-0.8096,-0.188,0.1107
17:03:27:321,1.4127,-0.7524,13.2712,70.1244,0.1589,-0.5579,-0.0633,0.1011
17:03:27:342,1.7539,-0.0928,12.2261,67.9241,0.8031,0.0053,-0.2543,0.0925
17:03:27:362,1.3014,0.2364,10.0498,67.1386,1.2638,-0.1121,-0.6431,0.0899
17:03:27:381,0.8201,0.7225,7.0211,67.5352,1.4372,-0.0498,-0.7193,0.0944
17:03:27:401,1.2906,1.5604,5.0674,67.8748,1.0708,0.2575,-0.6178,0.1046
17:03:27:421,0.522,2.5121,6.7087,67.5609,0.4577,1.0455,-0.5427,0.1175
17:03:27:442,-1.7896,1.8034,9.049,66.0271,0.1064,2.0131,-0.5339,0.1303
17:03:27:462,-2.7341,1.6574,9.6619,66.1314,0.2124,2.3896,-0.5366,0.1386
17:03:27:486,-2.6754,1.9315,8.4373,67.9298,0.5784,1.8506,-0.6056,0.1431
17:03:27:502,-2.3654,2.1231,7.6412,66.9881,0.8417,0.9622,-0.6151,0.1479
17:03:27:522,-2.4144,2.4846,6.577,67.3637,0.8164,0.6618,-0.2292,0.1552
17:03:27:542,-1.9308,2.6725,5.2662,65.8721,0.3792,1.0807,0.5034,0.1642
17:03:27:562,-1.4304,2.9215,6.1065,66.102,-0.0744,1.7018,0.9284,0.173
17:03:27:582,0.2814,4.0887,7.2091,65.4961,-0.3053,2.0927,0.9676,0.1807
17:03:27:602,-0.9324,2.4666,6.5507,65.4836,-0.3674,1.8149,0.546,0.1854
17:03:27:634,-5.3066,0.3166,6.2238,64.0088,-0.7066,2.1654,0.2381,0.1887
17:03:27:650,-7.3238,-0.5992,8.2422,63.8028,-1.0025,2.8384,0.215,0.1873
17:03:27:670,-6.9323,-0.8565,7.2139,65.5861,-0.618,2.804,0.0562,0.1826
17:03:27:695,-7.5763,-1.0636,5.6744,63.9909,-0.4582,3.3423,-0.1131,0.1766
17:03:27:713,-8.3042,-1.218,5.7259,63.9076,-0.7,3.9223,-0.2053,0.1716
17:03:27:730,-8.4778,-1.7304,5.8109,63.3855,-0.8675,3.8885,-0.1904,0.1707
17:03:27:751,-7.4854,-2.3864,5.6217,63.3664,-0.851,3.6946,-0.2058,0.1677
17:03:27:768,-8.3437,-2.9634,4.8987,62.912,-0.5897,3.5111,-0.1534,0.1628
17:03:27:788,-8.7639,-3.2471,3.5543,64.5521,-0.3117,3.3857,0.1178,0.1576
17:03:27:808,-6.9167,-4.2228,1.6892,61.5481,-0.2744,3.1526,0.3082,0.1548
17:03:27:830,-4.9212,-5.0105,0.1354,63.8154,-0.5428,3.2206,0.0555,0.1552
17:03:27:851,-4.9403,-5.1409,-1.2066,64.6115,-1.0568,3.6323,-0.6524,0.1564
17:03:27:870,-7.7176,-5.7718,-2.284,61.1998,-1.917,3.6267,-1.4817,0.1559
17:03:27:887,-11.8021,-6.3895,-1.926,62.1408,-2.9922,3.1918,-2.0421,0.1501
17:03:27:907,-16.1835,-7.6285,1.3301,62.5136,-4.0952,2.8333,-2.0687,0.1341
17:03:27:926,-15.8148,-7.0982,5.4948,61.2919,-4.5597,1.9073,-1.5827,0.1057
17:03:27:946,-14.1688,-6.4853,8.9903,62.4308,-4.2915,0.6485,-1.082,0.0676
17:03:27:966,-12.7071,-4.9698,10.689,62.6168,-3.5687,-0.0123,-0.7565,0.0223
17:03:27:987,-13.7462,-4.2156,9.7086,61.8134,-2.8585,-0.1699,-0.5661,-0.0203
17:03:28:006,-13.1034,-3.3633,9.6332,61.6379,-2.4867,-0.3492,-0.0876,-0.0541
17:03:28:024,-10.4075,-2.475,10.9967,63.829,-2.051,-0.686,0.2531,-0.0825
17:03:28:046,-9.3816,-0.8146,10.6268,62.6629,-1.2712,-1.0378,0.2115,-0.1046
17:03:28:065,-9.9382,0.8721,8.5343,61.6525,-0.57,-1.1851,0.1849,-0.1201
17:03:28:084,-11.3089,1.9495,8.1057,60.8902,-0.2811,-0.6064,0.3164,-0.1335
17:03:28:104,-12.8987,3.1681,9.8499,61.0371,-0.0326,0.297,0.5686,-0.1357
17:03:28:124,-14.3412,3.459,10.8327,62.7042,0.4303,0.898,0.9857,-0.1354
17:03:28:144,-13.7127,3.3262,10.4245,60.3171,0.9088,0.8708,1.4198,-0.1324
17:03:28:166,-13.1117,2.7899,9.3375,61.1304,1.2085,0.3489,1.6826,-0.1239
17:03:28:184,-12.1768,2.4235,8.3475,60.7678,1.2934,-0.3217,1.9143,-0.1097
17:03:28:204,-11.3364,0.3801,8.4624,59.8814,1.2577,-0.7074,2.0027,-0.0901
17:03:28:222,-10.0819,-1.4599,9.717,60.601,1.3232,-0.804,1.9663,-0.0677
17:03:28:243,-8.8908,-2.8102,11.1128,57.926,1.6191,-0.7547,1.7197,-0.0446
17:03:28:263,-10.3716,-3.8361,12.9312,59.5713,1.9896,-0.432,1.3378,-0.0221
17:03:28:284,-12.4402,-4.7339,13.9619,57.0524,2.4655,-0.5009,0.9556,-0.0221
17:03:28:303,-13.7175,-5.6413,13.361,57.692,3.1094,-1.2317,0.8211,0.0021
17:03:28:323,-13.065,-5.5336,11.8095,56.5492,3.6471,-1.53,0.9223,0.0263
17:03:28:342,-13.654,-5.5108,10.8243,54.5498,3.8532,-1.208,0.9583,0.0505
17:03:28:363,-13.9413,-5.6282,9.1855,55.8169,3.9965,-1.4919,1.2629,0.0808
17:03:28:384,-11.996,-4.9686,8.4744,55.8149,4.0255,-2.1012,1.4206,0.1161
17:03:28:403,-10.0891,-4.7974,6.7661,54.996,4.2016,-2.5646,1.3918,0.1905
17:03:28:423,-8.3018,-4.6202,4.5946,55.2427,4.2993,-2.6432,1.3982,0.1905
17:03:28:442,-7.076,-3.8241,2.289,52.7875,4.1672,-2.627,1.2744,0.2311
17:03:28:461,-7.3549,-3.2771,1.4869,53.1768,3.5819,-2.8696,0.9604,0.2726
17:03:28:483,-8.3748,-2.7048,1.56,53.5949,2.8737,-4.0153,0.5886,0.3121
17:03:28:503,-8.1234,-3.0233,1.767,53.3123,2.2487,-5.6456,0.4251,0.3832
17:03:28:523,-6.2188,-2.4678,2.9785,53.8803,1.8407,-6.112,0.4357,0.3959
17:03:28:544,-4.1335,-1.2815,2.9366,54.2979,1.7206,-5.9572,0.0946,0.4139
17:03:28:561,-3.918,-0.4411,2.7666,53.2035,1.5914,-5.9026,-0.5616,0.426
17:03:28:582,-6.815,0.7787,2.8708,53.1709,1.6071,-5.8907,-1.1406,0.4342
17:03:28:605,-10.3488,2.4595,2.8372,53.2544,1.8266,-5.7373,-1.3193,0.4379
17:03:28:622,-13.8336,3.0341,1.1242,51.775,2.005,-4.7021,-0.9147,0.4379
17:03:28:642,-14.5147,2.2009,-0.3027,53.644,1.735,-2.5913,0.2318,0.4363
17:03:28:663,-9.7599,1.7316,-1.4364,52.9738,0.9352,-0.951,1.2682,0.4366
17:03:28:688,-5.2276,2.0824,-0.4811,52.1311,-0.3143,-1.1484,1.1961,0.4414
17:03:28:702,-4.1467,1.6251,2.4578,54.0667,-1.5256,-2.1276,0.4885,0.4491
17:03:28:722,-2.8717,1.6442,5.6732,52.6215,-2.2044,-2.7822,0.0089,0.4504
17:03:28:742,-1.3562,2.2476,6.6644,52.6302,-2.4284,-2.7481,-0.298,0.4379
17:03:28:762,-1.0677,2.9108,7.5778,51.9511,-2.5242,-2.1364,-0.4761,0.4138
17:03:28:784,0.3401,3.2412,7.9561,52.4753,-2.6129,-0.8437,-0.5595,0.3848
17:03:28:803,0.1067,1.8322,7.98,51.5998,-2.6774,-0.0402,-0.6596,0.3564
17:03:28:821,-1.3861,1.1582,9.4369,51.3302,-2.8867,0.7246,-0.7347,0.3289
17:03:28:841,-2.8478,0.9595,9.9504,50.6572,-2.8806,0.6565,-0.695,0.3162
17:03:28:861,-2.8227,0.9858,10.0354,50.7987,-2.6633,-0.6021,-0.217,0.2923
17:03:28:882,-1.094,0.8386,8.9113,49.3863,-2.4414,-1.6698,0.7226,0.2701
17:03:28:915,-1.282,0.1826,11.697,49.6101,-2.0648,-1.359,1.4414,0.2463
17:03:28:922,-3.7217,0.592,17.4155,46.6739,-0.6741,0.2716,1.8747,0.22
17:03:28:942,-6.0058,0.5261,14.7125,48.5976,0.883,1.6163,2.0635,0.1808
17:03:28:962,2.0639,1.983,10.2222,48.5258,0.9515,-0.2176,1.3284,0.1651
17:03:28:983,4.8987,2.5827,7.5359,47.8602,0.2729,1.6448,0.7292,0.1725
17:03:29:001,4.3181,2.6211,7.731,48.3248,-0.337,2.1881,0.5284,0.184
17:03:29:022,2.4542,1.8992,5.314,48.2089,-0.8773,2.1534,-0.2884,0.1925
17:03:29:041,0.1749,0.9846,6.2454,46.979,-1.5485,1.7228,-0.9491,0.1978
17:03:29:063,-1.5585,1.8022,9.6356,47.939,-1.5216,0.6453,-1.0138,0.199
17:03:29:086,-0.3698,3.3094,11.4971,48.3267,-0.5218,-0.6381,-0.7094,0.1915
17:03:29:103,0.9698,2.6067,9.6428,48.5353,0.6255,-2.2576,-0.67,0.1784
17:03:29:123,-1.1874,1.6287,9.6871,45.7998,0.0327,-1.75,-0.8852,0.1673
17:03:29:142,-1.9284,3.1657,10.033,46.2958,-0.7487,-0.1891,-0.54,0.1637
17:03:29:162,0.3952,4.1354,11.3283,47.2118,-1.2153,0.1651,-0.1217,0.1605
17:03:29:187,1.1254,3.6925,11.7413,46.518,-1.3298,-0.0013,0.061,0.1536
17:03:29:202,2.6074,3.9367,13.1874,47.9835,-1.2555,-0.3172,0.1236,0.1443
17:03:29:222,4.5706,3.2687,17.5329,47.4108,-1.0632,-0.163,-0.3936,0.1326
17:03:29:247,2.4051,2.7515,18.0428,47.6467,-0.8566,-0.6312,-1.1638,0.1198
17:03:29:261,1.7012,-1.0971,15.8868,46.2261,-0.2379,-0.1289,-1.6495,0.1085
17:03:29:283,1.4115,-0.7356,15.311,45.9056,0.3083,-0.1324,-2.0748,0.0968
17:03:29:303,2.9498,-0.9691,15.5062,47.3802,0.9821,-1.1369,-2.5976,0.0893
17:03:29:323,5.1824,-2.6163,16.4483,48.2454,1.5081,-1.7494,-3.2503,0.0873
17:03:29:341,4.4881,-4.0073,14.6909,48.4789,1.7635,-1.4203,-3.7449,0.089
17:03:29:361,3.4226,-4.0839,12.6583,48.273,1.515,-0.9811,-3.775,0.0942
17:03:29:382,3.9829,-3.4375,9.9756,48.9916,1.1507,-0.7579,-3.7718,0.101
17:03:29:406,3.0743,-3.6805,8.3092,48.9916,0.687,-0.9148,-4.0517,0.1078
17:03:29:422,-3.2057,-5.4869,9.3734,49.4771,0.1576,-0.9292,-4.1657,0.1106
17:03:29:442,-7.0317,-6.4973,11.2864,50.3346,-0.4917,0.0549,-3.2501,0.1118
17:03:29:462,-3.8414,-4.3509,11.3067,50.8434,-0.5056,0.9593,-2.0985,0.1066
17:03:29:483,-1.4185,-2.6282,9.3052,50.2548,-0.1114,1.0717,-1.6314,0.1021
17:03:29:501,-2.4791,-3.3513,9.3172,50.9804,0.4247,0.7915,-1.6003,0.1033
17:03:29:522,-4.6949,-3.3226,9.1053,51.2421,1.3722,0.3358,-1.1595,0.1082
17:03:29:542,-4.75,-1.8741,8.0758,50.7636,2.1656,-0.4663,-0.7598,0.1155
17:03:29:562,-3.0944,-0.7727,8.6061,51.1258,2.2873,-0.4112,-0.2402,0.1272
17:03:29:583,1.2666,1.4395,6.7422,52.6635,2.107,0.3004,0.0243,0.139
17:03:29:603,4.1014,2.633,5.66,51.9438,1.9821,0.396,-0.3414,0.1529
17:03:29:621,0.7507,1.734,7.9046,51.4347,1.8356,-0.5569,-1.5837,0.1863
17:03:29:643,-2.3223,0.7943,8.9137,51.3715,2.2194,-0.9247,-1.9441,0.1979
17:03:29:663,-2.576,1.1869,6.5662,52.417,2.7139,-1.5316,-1.9598,0.1979
17:03:29:684,-3.0633,1.1618,4.0164,53.6415,2.528,-1.8506,-2.0453,0.2072
17:03:29:702,-5.6646,1.5401,3.0025,52.9897,1.614,-1.444,-1.7267,0.2243
17:03:29:722,-6.5002,2.7396,4.8831,54.179,0.5387,-1.2767,-0.8996,0.2243
17:03:29:742,-3.6558,2.9778,7.7813,53.3196,-0.0941,-1.2807,-0.1166,0.2288
17:03:29:761,-3.3111,2.6378,9.3507,54.7515,-0.5817,-0.8445,0.2318,0.2198
17:03:29:783,-1.4065,2.2607,12.3171,55.5745,-0.9176,-0.6221,0.603,0.2147
17:03:29:803,2.1465,1.989,15.0848,53.3357,-0.6771,-0.7731,0.6704,0.2096
17:03:29:821,4.6772,1.5125,16.3298,54.4174,0.1261,-1.216,0.3862,0.1989
17:03:29:842,3.1186,0.568,14.4156,54.1758,0.8694,-1.2392,0.0648,0.1885
17:03:29:863,0.9267,-0.2508,12.4751,55.9615,1.1078,-0.9774,0.1609,0.1743
17:03:29:888,-0.6463,-0.3286,10.8866,54.2931,1.1829,-0.5753,0.5407,0.1743
17:03:29:902,-0.4775,0.1862,9.1951,55.5279,1.2697,-0.4344,1.0739,0.1702
17:03:29:921,0.3928,1.2228,8.217,54.8955,1.3182,-0.3593,1.5226,0.1694
17:03:29:941,2.5272,2.8593,7.4341,55.8608,1.5086,-0.3204,1.8808,0.1714
17:03:29:962,4.8137,4.4478,6.1424,54.1257,1.8884,-0.4437,1.8789,0.1741
17:03:29:981,5.0495,5.536,3.5795,55.3045,2.1763,-0.633,1.6739,0.1765
17:03:30:002,4.9896,6.1154,0.364,56.3108,1.9688,-0.771,1.5583,0.1798
17:03:30:021,4.7921,6.7295,-1.3885,54.8559,1.1392,-0.6165,1.427,0.1845
17:03:30:041,4.0667,5.9227,-0.8702,55.6064,-0.0211,-0.2546,1.4129,0.1898
17:03:30:061,4.1241,4.3724,3.2359,53.8832,-0.8073,-0.1896,1.3149,0.1932
17:03:30:084,2.623,2.7659,7.4341,54.3586,-0.5202,-0.6381,1.0592,0.1925
17:03:30:101,2.6852,2.1506,8.49,56.3284,0.5515,-1.1657,0.9071,0.1764
17:03:30:122,1.9382,2.062,5.3667,54.8531,1.4926,-1.3265,0.7756,0.1707
17:03:30:141,0.8285,1.7496,1.7096,55.892,1.6814,-1.4051,0.966,0.1616
17:03:30:161,-0.1483,2.1147,1.0236,56.2736,1.4804,-1.811,1.4094,0.1583
17:03:30:185,3.2371,2.5145,0.8824,56.7469,1.3147,-2.0858,2.2081,0.1587
17:03:30:203,10.2677,3.8313,0.7316,55.7044,1.0417,-2.0741,2.5538,0.1556
17:03:30:220,13.179,4.3796,3.1186,55.0581,0.7978,-2.2831,2.2105,0.1464
17:03:30:240,12.2117,6.2291,7.1863,56.9307,1.1533,-2.6698,1.811,0.1329
17:03:30:261,11.6024,6.878,8.9365,56.7444,2.1057,-2.8933,1.7692,0.1166
17:03:30:284,13.0401,5.3816,6.9373,56.2596,3.3139,-3.183,1.7452,0.0999
17:03:30:299,10.9775,4.5783,3.3125,58.882,4.22,-3.8994,1.6488,0.0879
17:03:30:320,11.0613,4.2036,0.8201,57.6384,4.3997,-3.8416,1.8784,0.082
17:03:30:342,13.4172,3.5261,-1.1323,58.3609,4.1536,-2.7646,2.0526,0.0812
17:03:30:362,15.3541,1.9004,-1.5741,59.315,4.2671,-2.522,1.8978,0.0809
17:03:30:390,17.2575,2.1829,-2.4432,57.329,5.0602,-3.558,1.5151,0.0812
17:03:30:402,18.1147,1.5616,-5.0792,58.0085,5.6389,-3.7836,1.032,0.084
17:03:30:422,18.5827,1.9016,-8.5831,57.7627,5.5462,-3.313,0.4137,0.0895
17:03:30:440,16.331,3.5249,-10.5871,58.3523,4.9039,-3.0243,-0.5488,0.0993
17:03:30:461,13.853,3.2831,-6.3673,60.4637,4.449,-3.4983,-1.5635,0.1154
17:03:30:480,9.972,2.7144,3.9326,60.3228,5.5089,-5.7428,-2.5864,0.1365
17:03:30:501,2.8001,0.5249,3.2215,59.1037,7.2876,-6.704,-3.1483,0.1606
17:03:30:521,-5.5461,-2.5396,-9.8389,59.6319,7.1247,-4.5138,-2.9832,0.1925
17:03:30:542,-10.5332,-3.7691,-12.9908,59.4549,5.6325,-3.42,-1.7883,0.2344
17:03:30:562,-8.6226,-3.8445,-11.6321,59.7363,4.7268,-3.0152,-0.433,0.2783
17:03:30:584,-7.0831,-3.641,-20.857,60.1872,3.7353,-1.8299,0.7915,0.3148
17:03:30:603,-2.9005,-2.6618,-27.1202,61.2687,0.9283,0.4,1.8217,0.3339
17:03:30:622,1.3493,-1.1271,-20.3171,61.1258,-2.377,2.0006,2.2507,0.3395
17:03:30:641,4.7346,-1.0864,-11.9302,62.9513,-4.5773,3.306,2.0555,0.3208
17:03:30:665,3.7722,-2.5109,-8.461,61.8717,-5.9544,4.7213,1.5386,0.2955
17:03:30:680,3.2658,-2.4259,-6.3086,62.7409,-6.5275,4.9679,1.1279,0.2689
17:03:30:700,3.3723,-2.0824,-6.7934,64.4514,-6.621,4.8603,0.9322,0.2418
17:03:30:720,1.0248,-3.4901,-7.7822,62.2665,-6.8551,5.0211,1.2464,0.2157
17:03:30:741,3.2466,-3.1693,-4.9726,64.7549,-7.2748,5.455,2.1378,0.1895
17:03:30:761,9.0634,-1.5592,-0.7421,63.1443,-7.319,5.4403,2.3325,0.16
17:03:30:786,10.2701,-0.1921,3.8991,63.0867,-6.6916,4.9316,2.0328,0.119
17:03:30:801,10.6376,0.4423,4.2343,65.0419,-5.622,4.3287,1.8826,0.075
17:03:30:821,8.3439,0.6817,0.6885,64.5486,-5.413,5.1178,2.2608,0.0368
17:03:30:841,8.4445,0.1574,0.0732,64.1524,-6.0375,6.0925,2.6629,0.0022
17:03:30:862,7.5299,-0.8194,1.621,66.5967,-7.0298,6.8675,2.7567,-0.0313
17:03:30:884,6.5112,-2.9538,9.3842,66.1066,-7.4391,6.4978,2.7492,-0.0662
17:03:30:902,8.4911,-4.3987,14.4216,67.4728,-6.3427,4.5431,2.5636,-0.1072
17:03:30:940,10.8016,-6.1453,14.1798,66.7224,-5.1022,3.4866,2.076,-0.1515
17:03:30:941,10.4975,-6.933,16.4639,66.1075,-4.1418,2.9811,1.4933,-0.1932
17:03:30:960,9.5769,-4.8429,17.9794,65.4632,-2.6976,2.7511,1.2797,-0.2248
17:03:30:980,12.5122,-2.7025,14.5198,66.7495,-1.2334,2.8017,1.0842,-0.25
17:03:31:002,11.8646,-2.1398,10.6376,66.6522,-0.5346,3.2949,0.4842,-0.2632
17:03:31:021,5.2698,-3.313,5.9605,66.8009,-0.3988,4.2552,0.0379,-0.2632
17:03:31:042,5.0902,-2.5804,6.2657,65.8824,-0.5631,4.5404,0.2352,-0.2538
17:03:31:062,5.733,-3.4818,9.6835,67.0462,-1.6907,5.0597,0.6781,-0.2379
17:03:31:092,4.7083,-4.2455,15.0429,67.2492,-1.1096,4.7836,0.4792,-0.2225
17:03:31:101,2.775,-4.3389,16.9954,66.7335,0.7749,3.7276,0.2605,-0.2103
17:03:31:122,0.7842,-4.1677,14.9926,67.088,3.0306,2.1846,-0.0466,-0.2006
17:03:31:140,-1.7225,-4.2443,11.436,66.8204,4.8256,0.9587,-0.1286,-0.1868
17:03:31:161,1.3385,-4.036,7.9812,66.4418,6.1065,-0.2288,-0.0556,-0.163
17:03:31:186,7.6101,-3.8936,7.6604,67.7715,7.241,-2.1372,-0.7366,-0.1264
17:03:31:201,13.3083,-6.8672,11.606,67.6511,8.9686,-5.1231,-2.5521,-0.0804
17:03:31:219,9.8798,-12.2074,17.1546,72.7951,11.6427,-9.2146,-5.0552,-0.0316
17:03:31:240,5.5439,-16.0082,15.5732,72.6059,13.778,-11.4537,-6.8786,0.0198
17:03:31:260,3.3089,-16.5134,7.3563,70.2515,13.5714,-9.8777,-7.7284,0.0708
17:03:31:280,-2.0266,-15.2505,-0.4273,68.5296,11.55,-6.57,-7.3956,0.121
17:03:31:301,-7.9881,-10.6237,-6.7587,69.9359,9.0611,-3.7242,-5.7425,0.1786
17:03:31:321,-10.6481,-6.2088,-11.249,71.9712,6.5862,-1.9449,-3.3771,0.2411
17:03:31:341,-9.1553,-2.6438,-12.907,72.2985,4.401,-0.7998,-1.0266,0.303
17:03:31:360,-4.2903,-1.0517,-13.4505,71.3286,2.6572,-0.0053,0.7926,0.3522
17:03:31:383,1.4067,-0.4651,-12.4916,72.3965,1.2796,0.4799,1.778,0.3867
17:03:31:403,4.3576,0.4483,-8.9817,72.9815,0.4918,0.6072,1.9215,0.403
17:03:31:421,2.8097,1.4551,-5.6514,74.2659,0.483,0.6863,1.8741,0.4048
17:03:31:439,1.1469,1.4671,-6.8485,74.7836,0.8894,0.6868,2.247,0.3981
17:03:31:459,2.216,1.1187,-9.8401,75.4654,0.8255,0.7425,3.0963,0.3885
17:03:31:480,5.3404,1.7388,-12.1732,76.4506,0.116,1.2179,4.1386,0.3799
17:03:31:501,8.6947,1.7544,-13.8946,77.2417,-1.2385,1.7947,5.1277,0.3693
17:03:31:520,12.8414,1.2504,-13.6157,77.439,-2.9788,2.1548,5.7578,0.3401
17:03:31:541,16.6901,0.4759,-10.2136,78.0271,-4.6297,2.1039,5.8742,0.3102
17:03:31:561,19.1813,0.0676,-5.922,80.0367,-5.7682,1.8003,5.5517,0.267
17:03:31:588,20.449,-0.1909,-1.7237,79.8527,-6.4543,1.6128,4.8782,0.2126
17:03:31:603,19.3153,0.2855,3.2072,79.0176,-6.6737,1.7729,3.8521,0.1535
17:03:31:625,15.8138,0.5609,5.3775,80.0982,-6.2769,1.6349,2.7631,0.0882
17:03:31:641,12.681,0.513,6.2071,80.3481,-5.5302,0.7822,1.9412,0.0256
17:03:31:661,10.3503,0.5309,6.6548,79.4967,-4.6636,-0.3071,1.452,-0.0284
17:03:31:681,10.3335,1.0217,6.7877,81.2135,-3.8952,-1.1681,1.2371,-0.072
17:03:31:703,10.6172,1.412,6.6177,78.433,-3.3075,-1.713,0.9931,-0.1134
17:03:31:722,11.0206,1.5975,6.5123,80.6419,-2.9203,-2.0331,0.807,-0.1522
17:03:31:741,12.0082,2.3433,6.5459,79.6088,-2.7985,-2.0192,0.5969,-0.1868
17:03:31:761,11.0925,2.1326,6.8104,80.8447,-2.879,-1.6647,0.314,-0.2208
17:03:31:781,10.7106,2.2093,7.3826,80.8024,-2.9402,-1.4126,0.2821,-0.2529
17:03:31:801,11.7305,2.5277,8.0722,79.6359,-2.9024,-1.2621,0.3244,-0.2805
17:03:31:823,12.426,2.4571,8.3499,79.2837,-2.8164,-1.0583,0.2602,-0.3071
17:03:31:841,13.6076,2.8006,8.8204,80.1066,-2.7029,-0.8472,0.1452,-0.3327
17:03:31:861,14.0325,2.9982,9.4201,79.5565,-2.5719,-0.5236,-0.1544,-0.3565
17:03:31:887,12.2213,2.0872,9.5997,79.6825,-2.4238,-0.1433,-0.4247,-0.3768
17:03:31:906,10.8602,1.4695,10.0067,79.6385,-2.2044,0.0607,-0.376,-0.3948
17:03:31:920,10.4472,1.1498,10.4999,81.0519,-1.8752,0.1843,-0.2021,-0.408
17:03:31:941,10.1994,0.8972,11.029,79.28,-1.472,0.4285,-0.0298,-0.4214
17:03:31:960,9.8379,0.5704,11.5773,79.2839,-0.9684,0.7835,0.0858,-0.4284
17:03:31:980,9.4824,0.179,11.8598,79.8438,-0.2997,0.9678,0.2067,-0.4326
17:03:32:002,10.0929,-0.5201,11.7952,79.7531,0.5318,0.8906,0.3678,-0.4326
17:03:32:020,11.023,-1.2157,11.1188,78.5393,1.4279,0.7984,0.5409,-0.4287
17:03:32:040,12.6906,-2.0644,9.4021,77.6474,2.2601,0.9025,0.6813,-0.422
17:03:32:061,14.0002,-2.8437,7.2246,79.1992,2.8729,1.0709,0.6568,-0.4126
17:03:32:085,13.6985,-2.9922,5.5954,76.4486,3.2713,1.1481,0.4395,-0.3983
17:03:32:101,12.857,-2.3038,4.6054,77.6028,3.5717,1.0642,0.2307,-0.3793
17:03:32:123,12.2058,-1.965,3.4286,76.5847,3.8192,0.9233,0.0768,-0.3564
17:03:32:141,12.0633,-1.7065,2.2136,76.404,3.943,0.829,-0.0117,-0.3322
17:03:32:160,11.3678,-0.8841,0.7902,75.0194,3.8138,1.0488,-0.0953,-0.3049
17:03:32:180,10.7944,-0.5477,-0.4045,75.2265,3.4575,1.33,-0.1355,-0.2766
17:03:32:202,10.0522,-0.1682,-1.0366,74.8143,2.9352,1.3896,-0.2234,-0.2484
17:03:32:222,8.9496,0.5297,-0.0741,73.6838,2.4178,1.4493,-0.3012,-0.2189
17:03:32:241,8.8431,0.6028,1.2403,75.4452,2.2404,1.6038,-0.2508,-0.1916
17:03:32:260,9.1843,0.6243,0.9111,74.6909,2.3603,1.6996,-0.2822,-0.168
17:03:32:281,9.2788,0.8721,-0.3758,74.8339,2.4415,1.538,-0.4436,-0.1438
17:03:32:300,8.6564,0.732,-1.4196,74.8339,2.3864,1.1705,-0.6687,-0.118
17:03:32:321,7.7621,0.3669,-1.707,74.0246,2.1989,0.8448,-0.7398,-0.0928
17:03:32:341,7.7645,0.434,-1.5657,74.0552,1.9776,0.6945,-0.6319,-0.0671
17:03:32:361,8.3798,0.3238,-1.7393,73.5965,1.776,0.5571,-0.5731,-0.0439
17:03:32:381,9.0478,-0.4986,-2.0625,73.5316,1.5698,0.3952,-0.4918,-0.0234
17:03:32:402,9.4919,-0.9667,-2.6874,71.5201,1.3267,0.2157,-0.4133,-0.0063
17:03:32:420,9.298,-0.7236,-3.0896,73.1298,0.9773,-0.0346,-0.2657,0.0092
17:03:32:441,9.3794,-0.7883,-2.9579,73.3396,0.0657,-0.1936,0.1854,0.0217
17:03:32:462,9.7062,-0.5608,-2.2073,72.5166,-0.3793,-0.2272,0.4251,0.0326
17:03:32:489,10.3622,-0.1048,-1.4101,72.3037,-0.6824,-0.3254,0.6725,0.0325
17:03:32:502,11.2325,0.7524,-0.8091,71.3104,-0.937,-0.4325,0.8882,0.0311
17:03:32:521,12.0441,1.5185,0.3197,71.4221,-1.1706,-0.4229,0.9924,0.0255
17:03:32:540,12.5852,2.0812,1.7694,71.943,-1.2696,-0.179,0.9801,0.0154
17:03:32:562,12.6283,2.4283,2.9019,68.1286,-1.1261,0.0756,0.8629,0.002
17:03:32:589,12.6355,2.3745,3.0838,70.02,-0.7207,0.1196,0.7316,-0.0136
17:03:32:602,12.6571,2.5768,2.2207,70.4885,-0.2073,-0.1654,0.5916,-0.028
17:03:32:620,12.4931,2.9227,0.6298,68.8508,0.1309,-0.5564,0.3726,-0.0404
17:03:32:640,10.8973,3.0867,-0.7732,65.9574,0.1288,-0.6575,0.0999,-0.049
17:03:32:661,8.952,3.2735,-1.8757,68.3803,-0.1852,-0.4722,-0.0484,-0.0542
17:03:32:679,7.3324,3.2603,-2.005,69.0002,-0.668,-0.252,-0.0822,-0.0577
17:03:32:700,6.3651,3.1203,-1.2963,67.9809,-1.1272,-0.131,-0.0503,-0.0602
17:03:32:720,5.9856,2.8521,-0.0071,65.7039,-1.4259,-0.134,-0.0237,-0.0631
17:03:32:742,5.7199,2.7013,1.4007,70.1538,-1.5138,-0.2245,-0.0308,-0.0684
17:03:32:759,5.7582,2.4355,2.7487,65.8274,-1.3953,-0.4224,0.0216,-0.0765
17:03:32:780,6.3639,2.5277,3.5172,66.0632,-1.1301,-0.6535,0.1433,-0.087
17:03:32:800,7.2713,2.8389,3.7494,66.7051,-0.8582,-0.8237,0.2658,-0.0977
17:03:32:821,8.6863,3.0831,3.7961,67.1436,-0.6883,-0.8533,0.3697,-0.1094
17:03:32:841,10.3036,3.2711,3.8883,64.7745,-0.6411,-0.6711,0.4195,-0.121
17:03:32:860,11.4659,3.1286,4.0631,64.2026,-0.6771,-0.3079,0.3351,-0.1317
17:03:32:881,11.3666,2.5133,4.3636,64.2465,-0.6718,0.0748,0.1721,-0.1423
17:03:32:901,10.3945,2.1877,4.3432,63.5791,-0.5082,0.147,0.0714,-0.1522
17:03:32:920,9.7888,2.0453,4.4031,63.5664,-0.3127,-0.1233,0.1425,-0.1596
17:03:32:958,10.0653,2.0034,4.761,62.4953,-0.1391,-0.3422,0.3388,-0.1647
17:03:32:959,11.205,1.9243,5.1476,63.3413,-0.0166,-0.3268,0.5543,-0.1694
17:03:32:979,12.2836,1.8058,5.15,60.8534,0.0721,-0.0954,0.6962,-0.1732
17:03:33:001,12.5816,2.153,4.7107,59.6363,0.0966,0.2466,0.6816,-0.1778
17:03:33:019,11.7281,2.5947,4.8963,59.0825,0.1275,0.4993,0.5591,-0.1821
17:03:33:039,11.2014,2.4307,5.0411,60.2446,0.3032,0.5385,0.4845,-0.1849
17:03:33:060,11.1044,2.1482,4.7466,61.0998,0.5597,0.4056,0.4227,-0.1857
17:03:33:079,11.1715,1.6921,4.0415,58.8154,0.7784,0.2645,0.3436,-0.1846
17:03:33:099,10.6986,1.1654,3.3484,59.0254,0.8652,0.2708,0.207,-0.1819
17:03:33:119,9.067,0.8493,2.8792,57.6652,0.805,0.3651,0.0997,-0.1779
17:03:33:140,7.3168,0.7428,3.4514,56.4692,0.6846,0.3848,0.1636,-0.1724
17:03:33:160,6.4441,0.7596,4.4294,57.1006,0.67,0.289,0.4488,-0.1658
17:03:33:180,8.3918,1.3186,5.4373,56.4256,0.7374,0.0506,0.8291,-0.1597
17:03:33:200,10.9177,1.7268,6.6572,54.2511,0.8079,0.0812,0.877,-0.155
17:03:33:220,11.5629,1.8848,7.5466,55.8907,0.9618,0.5166,0.632,-0.1527
17:03:33:241,10.6854,1.5233,7.5179,55.2907,1.278,0.9276,0.3481,-0.152
17:03:33:261,9.3602,1.163,6.5135,54.0514,1.7549,0.9494,0.159,-0.1487
17:03:33:281,8.5199,0.993,4.9166,56.1577,2.1728,0.7207,0.0879,-0.1403
17:03:33:303,8.1799,1.0301,3.2491,56.7919,2.389,0.5555,0.0845,-0.1266
17:03:33:322,8.7521,1.1378,1.7204,55.7541,2.3648,0.5004,0.1223,-0.11
17:03:33:340,9.6906,1.5066,0.5424,54.8499,2.1182,0.5595,0.0829,-0.0906
17:03:33:361,10.1994,1.7579,-0.2752,54.7146,1.6631,0.7465,-0.0487,-0.0711
17:03:33:381,10.4496,1.7424,-0.3722,53.2111,1.1155,1.0362,-0.2189,-0.0536
17:03:33:406,10.5789,1.4264,0.4718,52.7941,0.6593,1.3409,-0.3443,-0.0369
17:03:33:419,11.1511,1.1917,1.1709,52.7149,0.4678,1.4797,-0.4,-0.0226
17:03:33:441,11.9699,0.8553,0.7519,53.3816,0.4487,1.302,-0.4538,-0.0111
17:03:33:460,12.5553,0.732,0.2886,52.8827,0.3837,0.9457,-0.519,-0.0004
17:03:33:481,12.7504,0.5525,-0.4775,53.6488,0.2268,0.7113,-0.6223,0.0099
17:03:33:501,12.371,0.2209,-0.7134,52.7583,-0.0656,0.6141,-0.74,0.0231
17:03:33:520,11.6395,0.7835,-0.1794,52.7583,-0.3886,0.7278,-0.7275,0.0303
17:03:33:539,12.3027,1.309,0.455,51.9344,-0.6281,0.7774,-0.6317,0.0355
17:03:33:561,13.4879,1.4108,0.4203,49.9414,-0.8302,0.6938,-0.6522,0.0383
17:03:33:579,13.8673,1.2169,0.2216,51.2385,-1.1772,0.6589,-0.8548,0.0389
17:03:33:603,13.0868,0.9751,1.4414,51.9323,-1.7043,0.7752,-1.1102,0.0377
17:03:33:622,11.357,0.8841,4.1804,49.4641,-2.1799,1.1047,-1.1387,0.0345
17:03:33:640,11.4731,0.6949,6.6811,50.285,-2.3615,1.3777,-0.9417,0.029
17:03:33:659,12.1782,0.762,7.5287,49.8223,-2.215,1.4647,-0.895,0.0207
17:03:33:680,11.3019,1.4587,7.4221,48.1568,-1.9003,1.3044,-1.0948,0.0112
17:03:33:700,9.7062,1.6993,6.3723,48.4688,-1.5434,1.0687,-1.2311,0.0034
17:03:33:720,9.1065,1.418,4.9597,45.8661,-1.341,0.9462,-1.3544,-0.0022
17:03:33:741,7.7346,1.2193,3.6441,47.7411,-1.3461,0.9803,-1.5765,-0.0054
17:03:33:760,6.2406,1.7065,2.6732,47.3262,-1.5011,1.0562,-1.7254,-0.007
17:03:33:781,5.2171,1.503,2.4829,47.9735,-1.696,0.9494,-1.8442,-0.0078
17:03:33:802,3.3855,0.647,3.4933,46.0554,-1.8473,0.8988,-1.9419,-0.009
17:03:33:819,2.9905,0.2496,3.3496,45.1623,-1.8281,0.9438,-1.8897,-0.0119
17:03:33:841,2.3488,0.2089,4.0894,46.6603,-1.8422,0.6027,-1.8319,-0.0119
17:03:33:862,2.2339,0.4052,5.3212,45.5994,-1.8742,0.5417,-1.6429,-0.0192
17:03:33:880,3.0443,0.2065,6.3855,46.2882,-1.9477,0.722,-1.4325,-0.023
17:03:33:900,3.8213,-0.4387,8.1452,45.7481,-2.0539,0.7198,-1.3486,-0.0287
17:03:33:920,3.9877,-1.0564,10.3299,46.3284,-1.9375,0.5523,-1.3158,-0.0358
17:03:33:938,3.2239,-0.908,12.0525,45.3524,-1.5011,0.3702,-1.2711,-0.0428
17:03:33:961,1.3145,-0.2041,12.8211,46.2098,-0.8787,0.4053,-0.9944,-0.0544
17:03:33:977,1.6413,-0.8457,12.0825,43.9546,-0.3346,0.5593,-0.6154,-0.0618
17:03:34:002,1.8712,-1.0553,11.2421,43.7938,-0.0275,0.4266,-0.3549,-0.0663
17:03:34:019,1.7587,-0.7344,11.4444,44.0527,0.0798,0.0956,-0.1776,-0.0659
17:03:34:038,1.3983,-0.1514,12.8378,43.9894,0.1805,-0.0711,0.0938,-0.0626
17:03:34:057,1.6066,-0.2915,14.0349,44.4844,0.3464,0.0074,0.4421,-0.0601
17:03:34:079,1.2714,-0.2927,14.7699,44.27,0.5435,0.3587,0.7705,-0.0594
17:03:34:098,1.0871,-0.4352,14.3139,44.4955,0.8055,0.6024,1.154,-0.0583
17:03:34:119,2.3764,-0.7416,13.1575,44.1285,1.066,0.3281,1.5298,-0.055
17:03:34:138,4.494,-0.4543,12.8199,43.0787,1.2061,-0.294,1.6464,-0.048
17:03:34:159,5.5104,-0.5788,12.784,44.8558,1.2375,-0.4559,1.4451,-0.0399
17:03:34:178,4.8161,-0.6518,11.8287,42.7537,1.1837,-0.0892,1.2565,-0.0338
17:03:34:201,3.5268,0.0221,10.3383,43.5419,1.0327,0.3025,1.2563,-0.0302
17:03:34:219,3.3089,1.0612,9.4776,42.8943,0.809,0.4346,1.4009,-0.0254
17:03:34:240,4.2522,1.7855,9.1986,42.7384,0.6084,0.4072,1.4808,-0.0182
17:03:34:259,5.0591,2.0536,9.3423,41.7739,0.5118,0.4298,1.3884,-0.011
17:03:34:280,5.8611,1.995,8.8228,40.159,0.5046,0.5393,1.1777,-0.0059
17:03:34:302,5.5439,1.7962,7.9656,40.4834,0.3943,0.596,0.8541,-0.0018
17:03:34:320,4.1181,1.6227,8.1225,39.7671,0.2447,0.8357,0.6824,0.0026
17:03:34:340,3.4154,0.7799,8.4133,38.6482,0.1507,1.1558,0.8339,0.0079
17:03:34:361,3.7051,0.9355,8.8371,38.2507,0.2753,1.3028,1.0712,0.0127
17:03:34:380,4.9477,1.2456,7.6304,36.9036,0.5565,1.2432,1.1109,0.0186
17:03:34:410,5.2506,1.1007,6.0814,37.5457,0.6617,0.9292,0.9061,0.0253
17:03:34:422,5.1776,1.0696,6.0024,35.6837,0.5685,0.5872,0.6539,0.0295
17:03:34:443,5.077,1.0684,7.64,34.7458,0.4503,0.6104,0.4171,0.0386
17:03:34:459,4.6856,1.1666,8.308,35.1543,0.4585,1.2187,0.2025,0.0478
17:03:34:481,3.4358,-0.9427,6.4142,34.693,0.5091,1.3302,0.1953,0.0547
17:03:34:506,2.4913,-2.3804,3.6812,32.5716,0.1775,0.7784,0.4954,0.0651
17:03:34:521,1.2044,-2.2835,4.688,32.2093,-0.7466,0.2211,0.8965,0.0764
17:03:34:539,2.7882,-0.6566,9.6895,31.7398,-1.4246,0.6709,1.4214,0.0849
17:03:34:561,6.9218,-1.3785,11.6874,30.6859,-1.4558,1.4104,1.5881,0.0842
17:03:34:581,7.7083,-0.7093,11.9807,31.6939,-1.0102,1.3015,1.5037,0.0743
17:03:34:600,8.8694,0.2197,11.3223,28.9871,-0.415,0.5619,1.2813,0.0651
17:03:34:619,9.6918,-0.1921,11.8287,29.5337,-0.1378,0.2378,0.6515,0.0596
17:03:34:639,7.1301,-1.0469,11.9352,27.9014,-0.0334,0.6762,0.0222,0.0571
17:03:34:659,4.4318,0.1826,10.6699,29.6534,-0.0323,1.3369,-0.0623,0.0555
17:03:34:680,5.0567,0.246,9.0478,27.685,-0.1364,1.2778,-0.1028,0.0563
17:03:34:706,5.4625,0.4555,10.3981,28.7383,0.181,0.2056,-0.2753,0.0608
17:03:34:721,5.3811,0.2328,10.1408,26.2972,0.7746,-0.7918,-0.5206,0.0663
17:03:34:740,5.4254,0.7991,8.3834,27.3223,0.9823,-1.0645,-0.588,0.0694
17:03:34:761,4.8651,1.3761,6.6716,26.652,0.719,-0.7803,-0.5472,0.0722
17:03:34:780,4.1732,1.8908,5.9174,26.2663,0.2918,-0.4962,-0.4402,0.0764
17:03:34:806,3.6932,2.1865,5.9401,23.943,-0.064,-0.5438,-0.3802,0.0802
17:03:34:821,3.0384,1.7041,6.7793,25.4224,-0.3194,-0.6256,-0.1976,0.0821
17:03:34:840,2.9653,1.0852,7.476,25.9873,-0.3599,-0.3121,0.0781,0.0811
17:03:34:860,5.15,1.1618,7.7897,24.2197,-0.2456,0.1992,0.0296,0.0765
17:03:34:881,5.5487,3.0963,7.0427,22.9817,0.2175,0.3561,-0.7534,0.0713
17:03:34:901,3.2359,2.8066,5.1034,22.1538,0.544,-0.6634,-1.3558,0.0679
17:03:34:922,0.8656,2.1901,4.2881,21.1339,0.389,-1.1113,-1.4463,0.072
17:03:34:939,-0.0442,1.5437,4.9789,20.6852,-0.1737,-0.7793,-1.2106,0.0745
17:03:34:987,0.3161,1.5101,7.6268,18.8583,-0.7133,-0.18,-0.9177,0.0736
17:03:34:988,0.4801,2.3445,11.3474,20.5992,-0.6976,0.0879,-0.8087,0.0693
17:03:35:001,1.5527,2.8401,11.8873,19.2516,-0.1759,-0.3015,-0.772,0.0635
17:03:35:020,1.9933,2.8174,11.187,17.462,0.213,-0.7582,-0.9872,0.0587
17:03:35:040,1.4055,2.4331,11.2217,17.1163,0.1978,-0.8179,-1.1347,0.0563
17:03:35:058,1.1122,1.8633,13.2652,15.9797,0.1211,-0.6517,-1.1124,0.0549
17:03:35:079,-0.207,1.0876,14.0325,16.7653,0.136,-0.4141,-0.9161,0.0533
17:03:35:100,-1.349,0.1838,14.5257,15.6559,0.1059,-0.1441,-0.4242,0.0518
17:03:35:120,-1.2161,0.1287,15.5624,12.9902,0.1448,0.0823,0.2485,0.0516
17:03:35:140,-0.0131,0.6243,15.9503,15.1487,0.3696,0.4077,0.7828,0.0521
17:03:35:161,0.3533,0.8649,14.9112,14.2984,0.6287,0.5904,1.0573,0.0579
17:03:35:181,-0.9013,-0.4998,16.8661,14.1347,1.1885,0.4394,1.4246,0.0579
17:03:35:203,-0.8833,-1.1654,17.3294,12.1931,1.7565,0.8445,1.7394,0.0648
17:03:35:220,-0.2333,-1.218,14.9196,12.1931,2.1725,1.1081,2.1104,0.0733
17:03:35:241,0.9183,-0.72,12.189,13.5541,2.1707,1.2304,2.3764,0.084
17:03:35:259,1.7096,-0.0616,10.64,13.3511,1.8268,1.3436,2.4669,0.1011
17:03:35:279,1.8029,0.3118,9.6918,13.6817,1.4236,1.5271,2.4845,0.1216
17:03:35:302,1.5408,0.9056,9.3818,14.1912,1.1158,1.588,2.4936,0.1432
17:03:35:322,1.6832,1.3354,8.6755,13.7328,0.9696,1.783,2.5205,0.1697
17:03:35:339,1.937,1.473,7.5562,13.4616,0.8298,1.9883,2.5293,0.1841
17:03:35:358,2.3117,0.8565,6.7374,13.7173,0.6383,2.1713,2.5349,0.197
17:03:35:378,1.8772,0.3813,7.6077,13.5633,0.3309,2.7495,2.6251,0.2091
17:03:35:400,2.0783,0.3334,7.804,14.6176,0.0465,3.3598,2.7157,0.2197
17:03:35:419,2.2351,0.2807,8.0614,14.5383,-0.0552,3.0917,2.5658,0.2292
17:03:35:439,1.8808,0.3849,8.7306,13.9942,0.0939,2.3436,2.3695,0.2336
17:03:35:459,2.2435,1.1259,8.8012,13.7512,0.3871,1.9651,2.407,0.241
17:03:35:480,3.443,2.329,7.3982,14.3832,0.4625,2.1867,2.406,0.2463
17:03:35:503,3.9003,3.1562,9.4524,14.7185,0.2889,3.0269,2.1479,0.2514
17:03:35:521,6.4764,3.3896,15.2189,14.3405,0.614,3.7436,1.8832,0.2584
17:03:35:544,8.405,4.5616,17.1091,15.1066,1.6646,3.5798,1.411,0.2657
17:03:35:564,9.2681,5.5719,11.7365,15.9843,2.4841,2.1164,0.8483,0.2724
17:03:35:577,5.4876,4.7112,5.8216,16.1272,2.2388,0.2591,0.0395,0.2824
17:03:35:598,1.4342,5.6533,4.1421,17.8194,0.969,-0.3886,-0.4308,0.3004
17:03:35:626,-0.3638,5.767,7.9716,17.4371,-0.3098,-0.0509,-0.6157,0.3255
17:03:35:638,-2.6479,4.1988,12.8043,16.8187,-0.8353,0.375,-0.5427,0.3466
17:03:35:659,-4.9008,2.3553,15.1327,18.0372,-0.5985,0.5111,-0.1792,0.3549
17:03:35:678,-2.5222,2.6761,14.6502,20.5773,-0.1199,-0.1369,0.207,0.3513
17:03:35:698,-0.6415,3.125,12.7265,19.8825,0.4095,-0.8826,0.0419,0.3431
17:03:35:719,0.8596,3.0305,10.6028,20.2258,0.6031,-0.7595,-0.3097,0.3367
17:03:35:739,2.6349,3.2555,8.9676,20.794,0.3973,-0.2288,-0.7813,0.3381
17:03:35:759,2.1202,3.9044,8.4852,21.2808,0.091,-0.2043,-1.2144,0.3427
17:03:35:778,2.1501,2.3745,9.1172,23.77,-0.0464,-0.6962,-1.8346,0.3468
17:03:35:797,-1.3777,0.653,10.7621,23.6601,-0.0278,-1.199,-2.1997,0.3476
17:03:35:819,-2.7448,1.1079,10.8638,25.0936,0.2686,-1.4922,-2.0575,0.3456
17:03:35:840,-1.2712,2.0644,7.9489,27.1406,0.4345,-1.2581,-1.841,0.3417
17:03:35:859,0.7603,2.2715,5.6732,27.159,0.3871,-1.163,-1.8287,0.3385
17:03:35:879,0.5843,2.244,4.7035,26.3048,0.3248,-0.649,-1.972,0.3381
17:03:35:899,-0.9935,3.9786,4.5,27.604,0.1759,0.6072,-1.735,0.3383
17:03:35:917,-1.7932,4.8716,4.9813,28.2047,0.1714,-0.0541,-1.6988,0.3378
17:03:35:938,-4.9798,3.4339,5.423,28.5989,-0.0121,-0.6519,-1.49,0.3386
17:03:35:957,-4.5668,3.1633,7.6999,29.7168,-0.0592,-0.1518,-0.9073,0.3392
17:03:35:977,-3.4859,3.2843,7.8244,30.0884,0.1181,0.1486,-0.6511,0.337
17:03:35:999,-3.9144,3.6757,5.7342,31.0422,0.1086,0.6895,-0.4993,0.3342
17:03:36:019,-3.5218,4.789,5.0938,31.1327,-0.0723,0.7888,-0.3837,0.3336
17:03:36:050,-4.4711,4.0779,6.1077,30.9426,-0.1572,0.4882,-0.4173,0.3354
17:03:36:059,-4.3549,3.7751,8.8275,32.2749,0.2079,-0.641,-0.1981,0.337
17:03:36:077,-1.792,4.0444,8.0817,32.6122,0.4939,-0.6623,-0.196,0.3373
17:03:36:101,-2.5437,5.542,5.356,32.5612,0.063,-0.1933,-0.437,0.3362
17:03:36:119,-4.2532,5.7227,6.7015,33.3347,-0.3807,-0.0732,-0.5677,0.3375
17:03:36:138,-5.971,5.609,7.1133,33.5229,-0.6201,0.0746,-0.5118,0.3383
17:03:36:157,-7.6733,6.5033,9.0622,34.7211,-0.7969,0.1635,-0.4045,0.334
17:03:36:177,-10.2686,5.3864,10.7872,34.3632,-0.7671,0.3537,-0.0276,0.3283
17:03:36:198,-11.2754,4.4383,11.5617,35.4251,-0.5479,0.7316,0.59,0.3212
17:03:36:218,-10.5583,4.9794,10.5454,35.2018,-0.4174,0.9188,1.2813,0.3154
17:03:36:239,-7.9247,4.6035,8.8335,34.5907,-0.3316,1.1105,1.5071,0.3134
17:03:36:259,-6.6606,2.7001,6.5231,37.7624,-0.6257,1.1348,1.3066,0.3141
17:03:36:278,-6.5636,0.3753,7.069,34.7586,-1.3,0.5728,0.9327,0.3164
17:03:36:298,-5.9088,-0.896,8.3882,37.3864,-1.679,0.2538,0.7098,0.3156
17:03:36:321,-8.2802,0.3226,8.9305,38.5934,-1.4856,0.4021,0.697,0.3071
17:03:36:342,-10.9115,0.0102,8.7952,36.4709,-1.2962,0.9305,1.3854,0.2935
17:03:36:358,-8.2623,-1.0229,9.4309,37.4074,-1.1149,1.1393,2.3719,0.2819
17:03:36:377,-5.248,-1.2085,9.8032,37.9549,-0.8363,1.4301,2.7221,0.2747
17:03:36:398,-3.3063,-0.4663,9.7062,38.2756,-0.5042,1.5822,2.7205,0.2708
17:03:36:418,-0.8498,0.8134,9.377,38.3506,-0.21,1.3223,2.5993,0.2703
17:03:36:441,1.5097,1.4072,9.9708,36.9539,0.1781,0.7665,2.0086,0.2728
17:03:36:458,-0.2357,2.1051,9.0682,38.229,0.6034,0.5632,1.1665,0.2774
17:03:36:480,-2.9819,1.6071,8.1452,38.2165,0.8076,0.4799,0.9127,0.2838
17:03:36:497,-2.8765,1.9291,7.5598,37.6779,0.8295,0.3776,1.1878,0.2922
17:03:36:518,-1.3993,2.4666,7.1073,39.1382,0.7722,0.236,1.3788,0.2964
17:03:36:540,-0.8355,3.0676,6.8763,38.1794,0.7003,0.1513,1.3292,0.3013
17:03:36:559,0.4969,4.4969,6.7673,39.2006,0.4929,-0.1017,0.9396,0.3168
17:03:36:580,0.698,5.1517,6.717,38.9779,0.2998,-0.4224,0.7252,0.3168
17:03:36:606,0.6238,5.354,7.3587,38.7499,0.0404,-0.6807,0.4302,0.3387
17:03:36:619,0.1031,5.7551,8.472,40.4954,-0.1191,-0.7622,0.1865,0.3452
17:03:36:636,-0.4105,5.9143,9.7038,37.9125,-0.1229,-0.8735,0.1015,0.3493
17:03:36:657,-0.5542,5.9251,10.798,39.5646,0.0295,-0.6876,0.1311,0.3506
17:03:36:676,-0.7469,5.7778,11.4073,39.9632,0.2968,-0.2634,0.2821,0.3502
17:03:36:697,-0.4392,6.0723,11.1415,41.7629,0.606,0.082,0.4568,0.3494
17:03:36:720,0.212,6.2938,10.5837,42.1447,0.7906,0.1308,0.5031,0.35
17:03:36:738,0.7914,6.2148,10.4077,42.5456,0.7807,-0.0245,0.2762,0.3533
17:03:36:757,0.8692,6.0041,10.6028,40.8938,0.6641,-0.3465,-0.1062,0.3596
17:03:36:778,0.1102,5.5073,11.2397,42.6134,0.5477,-0.6072,-0.3858,0.3672
17:03:36:797,-0.9971,4.2767,11.8969,44.2067,0.4444,-0.5332,-0.437,0.3748
17:03:36:820,-1.2904,3.8864,12.1423,42.7758,0.43,-0.3883,-0.3427,0.3808
17:03:36:841,-0.8379,3.9103,11.5713,42.9899,0.5219,-0.3305,-0.2724,0.3851
17:03:36:859,-0.6128,4.2659,10.0091,45.2539,0.6252,-0.3678,-0.3137,0.3885
17:03:36:879,-0.2537,4.4119,8.4947,44.9352,0.6385,-0.5462,-0.4218,0.392
17:03:36:899,-0.3925,4.0731,7.664,45.8981,0.5999,-0.6152,-0.5925,0.3963
17:03:36:921,-0.5781,4.1737,6.8535,46.7278,0.5634,-0.5361,-0.7262,0.4012
17:03:36:940,-1.0258,4.4694,5.9401,46.4561,0.5688,-0.5057,-0.8069,0.4064
17:03:36:959,-1.6052,4.4383,5.5164,47.6868,0.5818,-0.4629,-0.8178,0.4109
17:03:37:005,-1.9823,4.2144,5.3823,46.1345,0.5661,-0.3244,-0.7515,0.4146
17:03:37:006,-1.8267,4.2455,5.1141,49.1347,0.5064,-0.3212,-0.6506,0.4185
17:03:37:018,-1.8099,4.5783,5.241,48.438,0.4061,-0.3542,-0.5981,0.4224
17:03:37:039,-2.2373,4.9722,5.3775,48.0711,0.3211,-0.2674,-0.5414,0.426
17:03:37:057,-3.0046,5.2834,5.587,49.4073,0.2409,-0.1473,-0.4428,0.4294
17:03:37:077,-3.6941,5.4283,6.1819,47.9992,0.0977,0.0501,-0.2708,0.4321
17:03:37:097,-4.0246,5.6186,6.9265,50.3644,0.0111,0.29,-0.0969,0.4347
17:03:37:117,-3.8019,5.5707,7.1157,48.298,0.0492,0.4511,0.0267,0.4357
17:03:37:138,-3.4775,5.0979,6.3867,50.0173,0.067,0.6075,0.0547,0.4359
17:03:37:158,-2.7843,4.5221,5.593,49.8555,-0.0669,0.7806,-0.0021,0.4363
17:03:37:179,-2.248,4.0408,5.2338,50.798,-0.304,1.0069,-0.1821,0.4374
17:03:37:198,-2.2457,4.1557,4.8484,51.3706,-0.4949,1.2136,-0.4641,0.4382
17:03:37:220,-3.1758,4.2587,4.4246,51.195,-0.6137,1.2911,-0.6609,0.4371
17:03:37:241,-3.8546,4.1701,3.9338,52.3651,-0.8054,1.3875,-0.755,0.4339
17:03:37:264,-4.9906,3.7403,4.5264,53.722,-1.2188,1.477,-0.8223,0.4288
17:03:37:277,-6.5121,3.0724,6.5327,53.3109,-1.5871,1.3191,-0.8767,0.4222
17:03:37:297,-8.2623,3.0963,8.46,52.1032,-1.6379,1.0093,-0.8684,0.4133
17:03:37:321,-10.1441,3.2771,9.3351,52.9828,-1.4813,0.7017,-0.7267,0.3996
17:03:37:340,-10.0927,3.1274,9.2956,52.4245,-1.2808,0.5073,-0.4207,0.3835
17:03:37:358,-8.3545,3.289,8.065,53.2834,-1.048,0.3443,-0.2551,0.3688
17:03:37:377,-8.1306,3.4111,6.5219,52.6086,-0.9524,0.2799,-0.2687,0.3553
17:03:37:396,-8.8943,3.0341,6.4645,54.7541,-1.3186,0.5215,-0.0889,0.3444
17:03:37:416,-8.2635,2.1051,8.7581,53.9952,-1.8134,0.6147,0.2136,0.3352
17:03:37:440,-6.6737,2.1075,10.7884,53.905,-1.7272,0.2218,0.2941,0.3256
17:03:37:456,-4.9008,2.3721,10.5837,55.9375,-1.2912,-0.2775,0.1966,0.3117
17:03:37:479,-4.0892,2.6725,9.7697,54.96,-0.9237,-0.3745,0.0821,0.2959
17:03:37:497,-3.5409,2.9826,8.7581,55.6131,-0.6044,-0.2248,0.1018,0.2836
17:03:37:518,-3.7085,3.5033,7.9728,54.1507,-0.3202,0.1127,0.1737,0.2738
17:03:37:536,-4.3202,3.9139,7.4509,54.7401,-0.1319,0.5934,0.3455,0.267
17:03:37:556,-4.9679,4.1055,7.2749,55.474,-0.059,1.1497,0.6304,0.2633
17:03:37:576,-4.5728,4.1545,7.1408,57.3377,-0.0824,1.5769,0.9974,0.2623
17:03:37:596,-2.9747,4.4311,6.7793,56.2571,-0.068,1.6344,1.1857,0.2638
17:03:37:617,-1.4532,4.874,6.1975,55.8702,-0.0166,1.3161,1.0493,0.2661
17:03:37:637,-1.3598,4.8537,5.9868,56.3296,-0.0081,0.8834,0.705,0.269
17:03:37:658,-1.9643,4.8118,6.2945,55.4801,-0.0968,0.5723,0.2882,0.272
17:03:37:677,-3.3697,4.807,6.9852,55.9618,-0.2627,0.3574,-0.0242,0.2739
17:03:37:698,-4.8374,4.5604,7.8315,57.9685,-0.4616,0.1257,-0.1147,0.2737
17:03:37:721,-5.4072,4.3904,8.654,56.6384,-0.66,-0.0898,-0.0367,0.2712
17:03:37:740,-5.3665,4.3952,9.4225,58.1975,-0.8582,-0.1803,0.0323,0.2666
17:03:37:758,-4.9631,4.2982,10.64,57.6322,-1.0009,-0.2482,0.065,0.2609
17:03:37:777,-4.0042,3.9391,11.8909,57.5799,-0.9847,-0.4842,0.0648,0.2533
17:03:37:800,-2.4731,3.6506,12.4955,59.2175,-0.8134,-0.6549,-0.0974,0.2446
17:03:37:818,-1.9416,3.3585,12.7133,57.9299,-0.5644,-0.6791,-0.4034,0.2366
17:03:37:839,-2.0098,2.6761,12.7121,58.3697,-0.3157,-0.5678,-0.7001,0.2292
17:03:37:856,-3.2225,1.9256,12.7085,57.9902,-0.0835,-0.351,-0.9305,0.2231
17:03:37:877,-4.58,1.6035,12.7876,60.5164,0.0891,-0.0732,-1.0077,0.2184
17:03:37:898,-6.1973,1.7137,12.5721,58.2161,0.213,0.0634,-0.9616,0.2149
17:03:37:920,-6.8988,1.3653,11.7676,56.6166,0.2436,-0.0099,-0.7952,0.2125
17:03:37:938,-5.9746,1.8549,9.31,57.8324,0.2172,-0.2226,-0.6926,0.2114
17:03:37:957,-5.8872,1.8848,8.9293,59.053,0.1973,-0.4751,-0.7068,0.2114
17:03:37:976,-5.0983,1.4371,9.1903,58.1309,0.2356,-1.2112,-0.6261,0.2109
17:03:37:997,-4.4735,1.3845,9.1017,58.4196,0.4582,-1.2019,-0.642,0.2104
17:03:38:019,-4.6375,1.5233,8.1201,57.7417,0.8396,-1.0205,-0.6772,0.2098
17:03:38:044,-4.9044,1.509,6.6632,57.8622,1.1922,-0.7782,-0.621,0.2098
17:03:38:056,-4.6291,1.4599,5.2063,57.8622,1.3808,-0.5209,-0.5012,0.2119
17:03:38:079,-4.1742,1.2851,3.9218,58.0769,1.3776,-0.4171,-0.4101,0.217
17:03:38:097,-4.2197,1.3438,3.2048,56.9812,1.1946,-0.3329,-0.3853,0.226
17:03:38:118,-4.4974,1.4108,3.2131,58.0693,0.8931,-0.1268,-0.3619,0.2372
17:03:38:136,-4.7512,1.1845,3.4705,58.1375,0.6162,0.0847,-0.3451,0.2485
17:03:38:157,-5.1714,1.0002,3.7399,58.2976,0.3733,0.289,-0.3728,0.2578
17:03:38:176,-5.807,0.6123,4.0403,58.7603,0.1293,0.4466,-0.3549,0.265
17:03:38:195,-5.837,0.3142,4.5551,57.305,-0.141,0.5646,-0.3435,0.2698
17:03:38:216,-6.2093,0.1095,5.071,57.5075,-0.3799,0.8232,-0.4279,0.2723
17:03:38:236,-6.9419,0.264,5.1177,59.5855,-0.5005,1.0589,-0.56,0.2729
17:03:38:260,-7.4207,0.5369,5.0579,57.8624,-0.5849,1.0227,-0.6929,0.2712
17:03:38:277,-7.8708,0.3561,5.3404,58.863,-0.724,0.9715,-0.764,0.2676
17:03:38:297,-8.6956,-0.1778,5.3835,58.6007,-0.9021,1.04,-0.7542,0.2624
17:03:38:321,-9.6808,-0.7213,5.4074,57.2713,-1.096,1.1502,-0.6122,0.2559
17:03:38:338,-10.2159,-1.0205,4.9597,59.5509,-1.3724,1.1537,-0.4388,0.2483
17:03:38:356,-10.599,-2.1961,5.1764,58.0991,-1.8145,0.8756,-0.372,0.2387
17:03:38:377,-11.1629,-3.4243,6.8643,58.725,-2.2156,0.5161,-0.4231,0.2279
17:03:38:398,-11.1964,-3.8613,9.0717,57.6728,-2.1839,0.229,-0.4668,0.2081
17:03:38:420,-10.9797,-3.1286,9.7924,59.6972,-1.6198,0.2935,-0.4034,0.1888
17:03:38:437,-11.1952,-1.2576,7.7454,60.271,-0.8795,0.6932,-0.1949,0.1669
17:03:38:457,-10.6397,-0.3597,4.7849,58.3847,-0.5969,0.7811,0.1319,0.1476
17:03:38:478,-8.9985,-0.0221,3.7315,59.6712,-0.9037,0.5172,0.4174,0.1364
17:03:38:497,-7.0652,-0.1933,4.5575,59.081,-1.3357,0.2085,0.4698,0.1309
17:03:38:520,-6.7072,0.1862,6.2657,58.5537,-1.5194,0.1518,0.3918,0.1263
17:03:38:536,-7.6242,0.4663,7.0475,58.2228,-1.3527,0.3465,0.4443,0.1186
17:03:38:559,-7.7858,0.4651,6.8835,60.0002,-1.0869,0.4589,0.7162,0.1071
17:03:38:576,-6.305,0.0557,6.8475,60.2976,-0.9447,0.4314,1.0145,0.0956
17:03:38:596,-4.6411,0.1646,6.8966,61.1204,-0.7788,0.4487,1.1005,0.0875
17:03:38:618,-4.0988,0.7033,5.9653,59.1577,-0.5266,0.5875,0.9785,0.0822
17:03:38:640,-4.7404,1.1031,5.083,59.802,-0.4648,0.7364,0.8587,0.079
17:03:38:657,-5.5903,1.0864,5.6349,60.7287,-0.6502,0.7561,0.8864,0.0776
17:03:38:677,-5.728,0.9212,7.1289,58.3058,-0.8587,0.5625,0.9548,0.0773
17:03:38:696,-5.4108,1.1582,8.6994,60.636,-0.9165,0.3356,0.8848,0.076
17:03:38:718,-5.0397,1.6466,9.9792,60.8602,-0.8291,0.1505,0.726,0.0731
17:03:38:736,-5.1402,1.7975,10.9117,60.654,-0.6843,0.0296,0.5646,0.0692
17:03:38:756,-5.6718,1.2671,11.7772,59.7374,-0.5884,-0.0277,0.4182,0.0648
17:03:38:776,-6.8712,0.3633,13.3083,60.9315,-0.582,-0.0192,0.2677,0.0609
17:03:38:796,-8.0803,-0.9116,14.8334,60.2517,-0.5508,0.0663,0.162,0.0577
17:03:38:816,-8.625,-1.977,16.0197,60.9826,-0.3279,0.0559,0.0608,0.052
17:03:38:838,-8.2575,-2.153,16.5297,58.6802,0.2295,-0.0663,-0.0849,0.0477
17:03:38:856,-6.7671,-1.7124,15.1889,60.1732,1.0164,-0.2202,-0.2516,0.0452
17:03:38:876,-5.4012,-1.1043,12.5326,57.2671,1.634,-0.1824,-0.4346,0.0469
17:03:38:898,-5.3378,-0.914,10.4065,57.1287,1.8559,0.0314,-0.6143,0.055
17:03:38:922,-6.0189,-0.9104,9.0741,56.7042,1.8133,0.2876,-0.6934,0.0671
17:03:38:938,-7.137,-0.6387,8.3667,56.1318,1.6806,0.3521,-0.7203,0.0809
17:03:38:956,-8.1067,-0.6458,8.3092,57.4879,1.5278,0.0607,-0.6924,0.0937
17:03:38:976,-8.1857,-1.1546,8.4301,55.7425,1.4095,-0.4021,-0.6759,0.1052
17:03:39:015,-8.2407,-1.2456,8.6588,55.5897,1.413,-0.5966,-0.7243,0.1149
17:03:39:017,-8.5508,-0.9463,8.399,54.5078,1.6005,-0.5681,-0.6862,0.1198
17:03:39:036,-7.9127,-0.8972,7.2246,52.4129,1.8678,-0.58,-0.5121,0.1288
17:03:39:057,-6.5983,-0.7272,5.8827,53.4498,2.0588,-0.6442,-0.3459,0.1382
17:03:39:079,-5.7867,-0.5836,4.4007,52.1998,2.181,-0.6368,-0.258,0.1507
17:03:39:095,-5.3665,-0.3944,3.2048,52.0005,2.2194,-0.5545,-0.2266,0.1661
17:03:39:116,-5.673,-0.3238,2.2878,51.0788,2.1123,-0.4133,-0.2165,0.1832
17:03:39:138,-6.0704,-0.5788,2.0388,50.9992,1.8513,-0.3001,-0.1177,0.2005
17:03:39:160,-5.9076,-0.8613,2.362,49.9842,1.5427,-0.1883,0.0144,0.2184
17:03:39:176,-5.7831,-0.6375,2.9414,49.4021,1.3616,0.0133,0.044,0.2349
17:03:39:196,-6.6438,-0.428,2.9929,49.1201,1.3275,0.3204,0.0011,0.2485
17:03:39:217,-8.0743,-0.8051,2.7762,47.6266,1.262,0.5172,0.0184,0.2669
17:03:39:236,-8.9877,-1.0038,2.5739,48.1845,1.1025,0.6482,0.1692,0.2787
17:03:39:257,-8.382,-0.7057,1.9957,47.1181,0.9086,0.6898,0.3282,0.2896
17:03:39:278,-7.2854,-0.2532,1.3361,48.9676,0.6242,0.5302,0.3047,0.3004
17:03:39:297,-6.8102,-0.1478,1.1745,46.7992,0.1437,0.2921,0.1745,0.3103
17:03:39:320,-7.8481,0.0928,3.109,46.4008,-0.9474,0.1835,-0.193,0.3171
17:03:39:338,-9.6389,0.1993,4.2007,46.0466,-1.2749,0.2932,-0.2724,0.3193
17:03:39:358,-10.3668,-0.513,4.9034,44.82,-1.4243,0.3143,-0.16,0.3159
17:03:39:376,-9.7838,-0.7129,5.3308,44.1267,-1.4531,0.2772,-0.0151,0.3073
17:03:39:396,-8.4323,-0.6961,4.8639,44.8222,-1.4595,0.2032,0.0528,0.2961
17:03:39:417,-7.6266,-0.6925,4.7071,43.9179,-1.5301,0.1878,-0.0711,0.2716
17:03:39:443,-8.5532,-0.3047,4.9825,43.5074,-1.492,0.4125,-0.2628,0.2716
17:03:39:456,-10.265,0.2209,4.4318,42.4366,-1.3431,0.7622,-0.2301,0.2602
17:03:39:476,-10.9187,0.5465,3.4717,43.689,-1.358,0.9633,0.0198,0.2469
17:03:39:496,-10.277,0.8721,2.9222,41.4186,-1.6281,0.8796,0.2203,0.2333
17:03:39:515,-9.5504,0.847,3.9027,42.8609,-1.9517,0.4956,0.2419,0.2217
17:03:39:536,-9.0943,0.9607,5.1034,41.2605,-2.1208,0.2626,0.2384,0.2108
17:03:39:556,-8.5807,1.1319,6.0826,41.8466,-2.0638,0.1316,0.3199,0.1983
17:03:39:577,-8.0312,0.9655,6.4956,41.2955,-1.8547,0.2171,0.4653,0.1838
17:03:39:595,-7.3764,1.2252,6.401,41.458,-1.5615,0.4362,0.6166,0.1668
17:03:39:615,-6.2954,1.7915,6.2885,40.6767,-1.2736,0.6503,0.7633,0.1507
17:03:39:642,-5.5544,2.1099,6.1592,41.2017,-1.0185,0.8874,0.799,0.137
17:03:39:655,-5.5449,2.7779,6.2705,40.4644,-0.7969,1.1191,0.7473,0.1229
17:03:39:675,-5.7891,3.5632,6.6309,38.1312,-0.5655,1.3039,0.6927,0.1168
17:03:39:695,-6.1554,3.8038,7.1205,38.7397,-0.2632,1.4139,0.6688,0.1124
17:03:39:716,-6.5121,3.8158,7.2845,39.5222,0.1339,1.5678,0.6696,0.1096
17:03:39:736,-6.3745,4.2024,6.5423,36.7327,0.5136,1.7707,0.6997,0.1086
17:03:39:757,-5.9279,4.5376,5.5379,36.6558,0.6439,1.7785,0.6499,0.1104
17:03:39:776,-6.323,4.4119,5.2255,37.3197,0.425,1.616,0.4648,0.1152
17:03:39:796,-7.5955,3.7056,5.563,37.4369,0.0614,1.3864,0.2275,0.1225
17:03:39:816,-9.0236,2.8892,6.1329,34.8573,-0.2896,1.0378,0.0858,0.1287
17:03:39:838,-9.6904,2.3804,7.3431,36.3575,-0.5761,0.7992,0.011,0.1312
17:03:39:860,-9.9741,1.8046,8.4505,33.5848,-0.6733,0.6732,-0.0836,0.1298
17:03:39:876,-9.87,1.0385,8.8407,33.7566,-0.6664,0.4493,-0.2194,0.1257
17:03:39:897,-10.0938,-0.0605,9.48,32.0732,-0.6342,0.2144,-0.4476,0.1196
17:03:39:917,-11.1257,-1.1953,10.3083,32.1997,-0.3884,0.1625,-0.6309,0.1132
17:03:39:937,-12.9094,-1.9866,10.118,31.0621,0.202,0.2908,-0.617,0.1057
17:03:39:960,-14.6177,-2.159,8.6109,29.114,0.9427,0.5555,-0.3025,0.0978
17:03:39:976,-15.3132,-1.1953,5.3057,28.9257,1.5363,0.963,0.1556,0.0929
17:03:39:996,-14.2837,-0.3585,0.479,29.0256,1.511,0.7582,0.4616,0.0938
17:03:40:017,-12.1373,-0.2089,-1.7333,28.4887,0.8718,-0.0562,0.3332,0.1024
17:03:40:036,-10.69,-0.7967,-1.4316,27.0609,0.2146,-0.9127,-0.1619,0.1154
17:03:40:057,-10.4278,-0.671,0.9482,27.7074,-0.0848,-1.652,-0.5225,0.1272
17:03:40:077,-9.6928,-0.6829,2.5212,27.2207,0.1269,-2.0869,-0.5448,0.132
17:03:40:095,-8.4227,-0.8481,2.6074,26.4836,0.6252,-2.2064,-0.4324,0.1296
17:03:40:116,-7.2627,-0.7955,1.5743,26.7608,1.1174,-2.0554,-0.2878,0.1287
17:03:40:136,-6.1997,-0.5872,0.2348,25.8858,1.3901,-1.7859,-0.1653,0.1299
17:03:40:156,-5.1845,-0.0006,-0.5577,27.1331,1.409,-1.5545,-0.1001,0.1362
17:03:40:176,-4.6566,0.2688,-0.5937,24.8761,1.2878,-1.2898,-0.1201,0.1457
17:03:40:196,-5.2803,0.2364,-0.304,25.9566,1.1661,-0.8837,-0.1965,0.1572
17:03:40:217,-6.6067,-0.1155,-0.274,26.8477,1.0742,-0.3958,-0.2428,0.1682
17:03:40:240,-8.1055,-0.5273,-0.4332,25.1099,0.9437,0.0341,-0.1829,0.1771
17:03:40:257,-8.9937,-0.6063,-0.6068,25.447,0.7472,0.3089,-0.0577,0.1852
17:03:40:275,-9.1015,-0.5357,-0.8008,25.1141,0.4838,0.4376,0.0746,0.1924
17:03:40:295,-8.4454,-0.2735,-0.7984,24.3087,0.1211,0.477,0.0869,0.1984
17:03:40:316,-8.0468,-0.1945,-0.1962,25.3025,-0.2912,0.5156,-0.0516,0.2037
17:03:40:340,-8.139,-0.3214,0.2407,24.4822,-0.6598,0.5441,-0.2439,0.2069
17:03:40:357,-7.8337,-0.5429,0.4766,23.6538,-1.0515,0.4762,-0.482,0.2064
17:03:40:376,-8.0001,-0.7835,1.2116,24.0717,-1.5082,0.3169,-0.7795,0.202
17:03:40:401,-9.032,-1.5197,2.3237,24.5059,-1.9359,0.1933,-0.9984,0.1932
17:03:40:415,-10.7511,-2.5528,3.285,24.0104,-2.1684,0.1577,-1.0737,0.1794
17:03:40:437,-12.1325,-3.2292,3.8632,22.1906,-2.1924,0.2493,-0.9744,0.1613
17:03:40:460,-12.1948,-4.2479,4.4306,22.9731,-2.173,0.1561,-0.7499,0.1384
17:03:40:476,-11.4095,-6.0986,4.8915,22.5454,-2.2443,-0.131,-0.6303,0.1146
17:03:40:498,-10.921,-7.1198,5.8096,21.992,-2.3634,-0.4919,-0.6876,0.0821
17:03:40:517,-11.9338,-6.2195,7.1624,22.0023,-2.2236,-0.5191,-0.6655,0.0601
17:03:40:536,-11.8069,-3.8684,7.0307,21.8653,-1.6824,-0.2501,-0.3842,0.0369
17:03:40:557,-9.6282,-2.1554,5.818,23.5407,-1.1655,-0.0064,-0.062,0.0161
17:03:40:575,-7.2902,-1.1115,5.0327,22.0373,-0.9884,0.0008,0.0895,0
17:03:40:595,-6.2104,-0.3107,5.253,21.2743,-0.9833,0.008,0.0227,-0.01
17:03:40:615,-6.4906,0.9451,5.5942,21.7533,-0.8731,0.0943,-0.1012,-0.0177
17:03:40:636,-6.8401,1.7603,5.3093,22.1992,-0.6917,0.0216,-0.2087,-0.0253
17:03:40:661,-7.24,1.3258,5.417,22.5906,-0.6398,-0.1683,-0.2998,-0.0332
17:03:40:676,-7.8206,1.0002,6.5614,20.2852,-0.6454,-0.3659,-0.3589,-0.0401
17:03:40:699,-9.8437,1.5533,9.4453,22.5906,-0.0416,-0.1356,-0.3307,-0.0466
17:03:40:717,-10.9522,0.9343,9.5434,22.0384,0.5413,0.1643,-0.1235,-0.0537
17:03:40:738,-10.6146,0.6434,9.1065,20.4283,1.1035,0.4509,0.1521,-0.0593
17:03:40:757,-10.034,0.6243,8.3774,22.391,1.5323,0.7859,0.3457,-0.0613
17:03:40:775,-9.8844,0.5297,7.7166,22.881,1.7896,1.0269,0.5628,-0.0576
17:03:40:795,-9.026,0.1191,7.0307,23.6485,1.9267,0.9638,0.8674,-0.0479
17:03:40:815,-7.5584,-0.2388,6.5674,23.4072,1.9299,0.7619,1.0214,-0.0336
17:03:40:839,-6.1937,-0.1012,6.5171,23.528,1.8055,0.4895,0.9314,-0.017
17:03:40:860,-5.7759,-0.0736,6.8882,22.4127,1.5762,0.1912,0.6826,0.0034
17:03:40:875,-6.4175,-0.6542,8.0015,24.8967,1.368,-0.0242,0.4427,0.0247
17:03:40:894,-7.0352,-0.7799,9.5578,25.0266,1.4013,-0.0562,0.252,0.0435
17:03:40:914,-7.6889,-0.6913,10.2988,23.4343,1.6508,0.0519,0.1026,0.0673
17:03:40:935,-8.0588,-0.981,10.1204,23.4343,1.8809,0.0037,0.0323,0.0801
17:03:40:956,-8.4945,-1.8932,9.4105,23.3835,1.9443,-0.0482,-0.1227,0.0927
17:03:40:977,-10.1525,-3.0927,9.4728,24.554,1.7749,-0.0146,-0.3353,0.1074
17:03:40:995,-11.7506,-3.9714,10.2066,23.41,1.5842,-0.1545,-0.4543,0.1227
17:03:41:039,-12.5766,-4.7854,10.3934,24.1763,1.6263,-0.4685,-0.5648,0.1357
17:03:41:040,-12.8053,-4.8177,9.6416,24.7131,1.9038,-0.7209,-0.6663,0.1465
17:03:41:055,-12.269,-4.3521,8.4612,24.6548,2.2721,-0.9963,-0.6354,0.1559
17:03:41:075,-10.6421,-3.9546,6.832,24.7026,2.621,-1.2472,-0.511,0.1653
17:03:41:096,-8.8381,-3.5799,5.2446,23.8055,2.8996,-1.3398,-0.3944,0.1775
17:03:41:116,-7.2052,-3.2747,3.51,23.0098,3.0918,-1.3065,-0.315,0.1927
17:03:41:138,-5.8836,-2.9108,2.0615,24.1757,3.1531,-1.2346,-0.2857,0.2109
17:03:41:157,-5.5173,-2.6785,0.7196,24.1922,3.053,-1.0658,-0.3044,0.2303
17:03:41:176,-6.2607,-2.5109,-0.1052,24.3641,2.7709,-0.8022,-0.2982,0.252
17:03:41:194,-7.392,-2.1159,-0.019,25.3181,2.3821,-0.5129,-0.1677,0.2733
17:03:41:214,-8.2862,-1.5903,0.5304,23.8601,2.0314,-0.3318,0.065,0.2825
17:03:41:238,-9.1182,-1.6322,0.8297,23.5069,1.765,-0.3273,0.2658,0.3013
17:03:41:256,-9.524,-1.7795,1.1458,25.6699,1.4692,-0.5033,0.4661,0.3181
17:03:41:275,-9.3229,-1.9016,1.5228,23.9448,1.1669,-0.8128,0.6366,0.3335
17:03:41:295,-8.8943,-2.0476,1.7587,25.3483,0.9072,-0.9385,0.6539,0.347
17:03:41:315,-8.1869,-1.9722,1.6378,23.3077,0.6681,-0.8746,0.5452,0.3593
17:03:41:337,-7.6134,-1.831,1.3169,24.5844,0.3935,-0.6693,0.3111,0.3732
17:03:41:356,-7.6374,-1.7723,0.8548,24.7506,0.0817,-0.4716,0.0211,0.3793
17:03:41:376,-7.9295,-1.4263,0.6968,23.2166,-0.1934,-0.6338,-0.1358,0.3833
17:03:41:395,-5.7986,-0.2664,0.9063,23.1523,-0.4696,-1.0325,-0.0798,0.3845
17:03:41:415,-3.2261,0.3513,1.6246,24.4581,-0.7178,-1.1414,-0.1645,0.3824
17:03:41:437,-3.7432,0.8781,2.2938,24.0229,-0.8504,-0.4139,-0.5733,0.3771
17:03:41:456,-7.0736,1.3246,2.611,22.9227,-0.9823,0.7271,-0.8676,0.3689
17:03:41:476,-10.0125,0.9176,2.7989,23.2192,-1.158,1.274,-0.7528,0.3593
17:03:41:496,-10.8097,0.3956,3.2287,23.3586,-1.3482,0.9523,-0.4996,0.3495
17:03:41:517,-10.192,0.4986,3.9206,22.8904,-1.5727,0.3185,-0.2974,0.3405
17:03:41:539,-8.8118,0.4184,4.8508,21.3903,-1.826,-0.1073,-0.1028,0.3315
17:03:41:555,-7.5189,0.3107,5.9952,21.637,-1.9626,0.0072,-0.0601,0.3199
17:03:41:574,-8.303,0.2041,6.1712,21.8045,-1.8699,0.5356,-0.2367,0.3056
17:03:41:594,-12.1181,0.167,5.5714,21.7045,-1.6923,0.9193,-0.2394,0.2897
17:03:41:615,-14.4345,0.2137,4.6892,21.1858,-1.7117,0.7476,0.1154,0.2747
17:03:41:636,-14.0239,-0.4663,5.2985,20.084,-2.1391,0.1923,0.4839,0.2608
17:03:41:655,-11.1629,-1.3294,7.8387,21.7533,-2.3922,-0.6687,0.6762,0.2491
17:03:41:680,-7.6075,-1.224,9.8116,20.9081,-2.0113,-1.216,0.4757,0.2369
17:03:41:695,-5.6071,0.1933,9.5087,20.4999,-1.1189,-1.2363,0.187,0.2205
17:03:41:715,-4.8146,1.2659,7.336,20.8966,-0.3421,-0.6882,0.064,0.2028
17:03:41:740,-5.8202,1.1797,5.6325,22.2638,-0.0227,0.3531,0.0528,0.1893
17:03:41:755,-7.3309,0.9332,4.9609,20.4433,0.0279,1.2573,0.1812,0.1812
17:03:41:775,-8.1091,1.2516,4.6485,20.8519,0.0039,1.5942,0.3985,0.1818
17:03:41:794,-7.8565,1.1726,3.9948,20.9019,-0.1114,1.3571,0.5596,0.1848
17:03:41:814,-7.3106,1.1175,3.8464,20.5963,-0.3753,0.685,0.6512,0.1893
17:03:41:834,-6.5768,1.3438,4.4043,21.4768,-0.7093,0.082,0.6888,0.1932
17:03:41:857,-7.0173,1.1127,6.0778,22.1707,-1.0092,-0.2333,0.6757,0.1944
17:03:41:874,-7.0664,1.1235,8.2254,22.554,-1.0172,-0.3446,0.7258,0.1922
17:03:41:894,-6.7204,1.3869,9.2729,22.6817,-0.7258,-0.2005,0.6672,0.187
17:03:41:916,-6.3278,1.8082,9.1603,21.5704,-0.3753,-0.0671,0.6262,0.1817
17:03:41:939,-5.2767,2.1255,8.6743,22.8027,-0.1695,0.0405,0.5636,0.179
17:03:41:955,-5.1845,2.1219,8.3008,22.9085,-0.1492,0.122,0.3167,0.1788
17:03:41:974,-6.0488,1.7041,8.5199,25.1149,-0.2946,0.1257,0.0325,0.1802
17:03:41:997,-7.6745,1.1989,10.0725,23.6871,-0.5146,-0.0503,-0.1981,0.1807
17:03:42:015,-8.8764,0.6099,12.9097,25.4289,-0.4733,-0.4112,-0.2577,0.1785
17:03:42:037,-8.8572,0.2747,14.6119,26.5889,0.0143,-0.6772,-0.2729,0.1731
17:03:42:056,-9.2631,0.246,14.5652,26.5622,0.6899,-0.5886,-0.2745,0.1677
17:03:42:077,-10.4386,-0.2999,10.3898,28.5868,1.5832,0.2296,-0.1653,0.1699
17:03:42:093,-10.7678,-0.1814,9.1005,28.6111,1.5762,0.1965,-0.0591,0.1797
17:03:42:114,-9.9717,-0.2304,8.8156,27.5059,1.5605,-0.2959,0.0624,0.1797
17:03:42:137,-8.643,-0.2125,8.3176,29.9149,1.7379,-0.7444,0.0967,0.1919
17:03:42:154,-7.4722,-0.0832,7.0307,30.7035,2.0037,-0.8717,0.088,0.2181
17:03:42:174,-7.0245,0.0629,5.3129,31.2504,2.1664,-0.7406,0.0451,0.225
17:03:42:194,-7.1226,0.2556,3.7614,30.0619,2.2335,-0.6834,0.1122,0.2393
17:03:42:214,-6.7719,0.2412,2.86,32.4502,2.1946,-0.767,0.3399,0.256
17:03:42:234,-5.6945,0.0832,2.447,33.24,2.0452,-0.7856,0.5817,0.2736
17:03:42:255,-5.2145,-0.2005,2.5547,33.7498,1.7986,-0.6354,0.6121,0.291
17:03:42:275,-6.1698,0.0521,3.4334,34.3368,1.6535,-0.5491,0.5543,0.3002
17:03:42:294,-7.4507,0.082,3.3017,34.4963,1.7019,-0.5675,0.55,0.3183
17:03:42:315,-7.7152,-0.1215,2.1621,35.1463,1.7046,-0.531,0.7191,0.3345
17:03:42:336,-6.7096,0.2759,0.9123,36.0985,1.4386,-0.3188,0.8906,0.3486
17:03:42:360,-5.9459,0.5441,0.6035,36.1778,0.8985,-0.2309,0.8941,0.3638
17:03:42:374,-5.4659,0.4076,1.5599,36.7343,0.2915,-0.4464,0.7806,0.3795
17:03:42:394,-5.0624,0.4543,2.6709,37.9477,-0.0901,-0.6876,0.5415,0.3932
17:03:42:413,-4.5321,1.1199,3.2969,38.3229,-0.2646,-0.7297,0.2081,0.4034
17:03:42:434,-4.6686,1.5006,3.1186,38.0638,-0.3961,-0.5334,-0.1563,0.4078
17:03:42:454,-4.7979,1.819,3.3556,39.518,-0.6432,-0.2629,-0.4173,0.4077
17:03:42:475,-5.0217,2.0141,4.3588,38.8491,-0.9032,0.0511,-0.678,0.4048
17:03:42:495,-6.9993,1.066,5.162,38.8694,-1.0488,0.3204,-1.0138,0.4
17:03:42:514,-9.8508,0.343,5.8252,39.3241,-1.071,0.469,-1.1611,0.3928
17:03:42:536,-11.6692,-0.0533,6.164,39.6002,-1.0995,0.482,-1.1009,0.3835
17:03:42:560,-13.2542,-0.4854,6.395,40.741,-1.259,0.47,-0.9478,0.3718
17:03:42:576,-13.4529,-0.8876,6.7961,41.6671,-1.4374,0.3033,-0.6319,0.3597
17:03:42:594,-10.8492,-0.8529,6.3783,41.5148,-1.5626,0.0061,-0.3376,0.3416
17:03:42:613,-8.5328,-0.2616,5.7761,41.954,-1.708,-0.0637,-0.3456,0.3281
17:03:42:635,-9.5204,0.3454,5.6469,41.3963,-1.8297,0.1241,-0.4625,0.314
17:03:42:657,-10.9414,0.6794,5.6492,42.2283,-1.8345,0.2676,-0.3014,0.2997
17:03:42:674,-11.1054,1.066,6.1628,41.837,-1.7572,0.2786,0.1353,0.283
17:03:42:694,-8.8872,1.4431,5.7187,42.8054,-1.6089,0.0788,0.5346,0.2661
17:03:42:716,-7.2843,1.576,5.1488,41.9884,-1.525,-0.3249,0.6562,0.2515
17:03:42:735,-6.317,1.4395,4.9334,41.9642,-1.5098,-0.5846,0.7133,0.239
17:03:42:758,-5.0768,1.6813,5.0567,41.6509,-1.5354,-0.6674,0.7939,0.228
17:03:42:775,-4.6075,1.9124,6,43.6905,-1.5607,-0.4655,0.8467,0.217
17:03:42:795,-4.9487,1.8011,7.3934,44.144,-1.4329,-0.0405,0.9098,0.2065
17:03:42:813,-4.7548,1.558,7.7573,43.2593,-1.1199,0.2759,0.9615,0.1954
17:03:42:834,-4.738,1.3366,7.6185,43.845,-0.8598,0.388,0.9415,0.1851
17:03:42:855,-4.3466,1.582,7.6843,42.8265,-0.6978,0.3832,0.8605,0.1781
17:03:42:874,-4.6973,1.9052,7.8806,45.2413,-0.5785,0.4075,0.6778,0.1736
17:03:42:894,-5.7999,2.0464,8.6169,45.1377,-0.4824,0.5113,0.5724,0.1708
17:03:42:914,-6.1183,2.2368,9.4285,45.1107,-0.3237,0.6059,0.5915,0.1688
17:03:42:945,-5.9267,2.3481,9.7266,46.7141,-0.1538,0.6831,0.5849,0.1669
17:03:42:957,-5.4766,2.6462,9.7505,45.6518,-0.0313,0.6698,0.493,0.1659
17:03:42:974,-5.8597,2.6091,9.5219,47.7872,-0.0099,0.5366,0.2597,0.1666
17:03:42:995,-7.0185,2.0453,9.3638,48.5182,-0.1689,0.3244,0.0435,0.1686
17:03:43:014,-7.3453,1.4371,9.9744,48.8479,-0.39,-0.0756,-0.074,0.1705
17:03:43:037,-6.3637,0.8254,11.1092,48.5741,-0.4723,-0.6911,-0.2053,0.1697
17:03:43:079,-5.4754,0.8841,11.7533,49.8742,-0.3357,-1.1782,-0.3957,0.166
17:03:43:080,-5.2456,1.0696,12.0561,49.7782,-0.158,-1.2125,-0.5398,0.1607
17:03:43:093,-5.3976,0.7141,12.6128,50.1262,-0.0249,-0.7478,-0.5869,0.1556
17:03:43:113,-6.4379,0.592,13.5465,51.1422,0.2058,-0.1726,-0.6306,0.1517
17:03:43:138,-9.1864,-0.5728,14.3713,51.2561,0.4899,0.1832,-0.6599,0.1487
17:03:43:154,-10.6828,-1.649,14.8633,51.2015,0.9336,0.1553,-0.4735,0.1479
17:03:43:173,-10.0029,-1.4898,14.0517,53.328,1.6202,-0.0245,-0.2583,0.1497
17:03:43:193,-8.1833,-1.1067,11.2876,53.5645,2.3203,-0.1065,-0.1557,0.1561
17:03:43:214,-6.9131,-0.756,8.0051,54.4126,2.7038,0.0152,-0.0894,0.1696
17:03:43:233,-6.2535,-0.3106,5.5714,56.3008,2.8183,0.0932,-0.0287,0.1884
17:03:43:253,-5.4695,-0.0138,3.9338,55.485,2.7712,-0.0954,-0.0125,0.212
17:03:43:274,-5.084,0.0832,3.03,54.6529,2.6471,-0.445,-0.1137,0.2368
17:03:43:295,-5.5927,0.1802,2.5619,57.0019,2.5169,-0.755,-0.2471,0.2607
17:03:43:317,-6.7982,0.0233,2.3848,57.1663,2.356,-0.8514,-0.1986,0.2816
17:03:43:337,-6.6941,0.1443,2.4925,56.9288,2.1741,-0.7513,0.0581,0.3012
17:03:43:358,-6.068,0.313,2.5499,58.5774,2.0308,-0.6871,0.3007,0.3193
17:03:43:376,-5.6059,0.5405,2.3991,57.685,1.8489,-0.7832,0.457,0.3359
17:03:43:397,-5.3042,0.8996,2.2219,60.4206,1.5182,-0.8828,0.5164,0.353
17:03:43:417,-5.4718,1.1917,2.5978,58.4239,1.0652,-0.7004,0.5114,0.3688
17:03:43:435,-5.7532,1.485,2.866,60.297,0.6138,-0.4344,0.46,0.3757
17:03:43:457,-6.2919,1.5042,3.8703,60.297,-0.3732,-0.6104,0.3681,0.3961
17:03:43:475,-5.6299,1.7256,4.7718,60.8533,-0.819,-0.6836,0.3114,0.3976
17:03:43:495,-4.3358,1.7592,5.7546,62.4086,-1.1703,-0.6711,0.1297,0.3976
17:03:43:513,-3.8809,1.8286,7.0618,62.8637,-1.3913,-0.5614,-0.2261,0.3944
17:03:43:534,-6.0081,1.6251,8.6037,63.0869,-1.4318,-0.1878,-0.5856,0.3871
17:03:43:556,-8.5819,1.1893,9.0765,62.5583,-1.1945,0.3268,-0.6367,0.3763
17:03:43:575,-9.1206,0.6782,7.9082,62.6939,-0.8701,0.8016,-0.438,0.3632
17:03:43:593,-8.8154,0.2664,6.2825,63.825,-0.713,1.1673,-0.2908,0.3488
17:03:43:614,-8.6549,-0.2005,4.8292,63.9297,-0.7586,1.3161,-0.2617,0.337
17:03:43:639,-8.5939,-0.3657,4.427,64.3011,-0.9849,1.2743,-0.2825,0.33
17:03:43:655,-9.5121,-0.2759,4.9669,66.5554,-1.2299,1.2733,-0.3608,0.325
17:03:43:674,-10.9605,0.3645,5.2243,64.3324,-1.2995,1.3406,-0.3097,0.3199
17:03:43:693,-10.3967,0.908,3.9649,64.8151,-1.3162,1.2999,-0.0407,0.313
17:03:43:713,-8.2731,0.8266,3.0192,66.1149,-1.5618,1.065,0.2054,0.3032
17:03:43:733,-6.5325,0.8685,3.9972,66.3594,-1.8923,0.8192,0.28,0.2931
17:03:43:754,-6.8234,1.3078,5.8863,67.0386,-1.9106,0.8706,0.3063,0.2836
17:03:43:774,-6.8042,1.1151,6.1436,65.0594,-1.5184,1.0858,0.513,0.2731
17:03:43:794,-6.7563,2.2332,4.3049,66.7575,-1.0827,1.1888,0.66,0.259
17:03:43:815,-8.0013,2.9275,3.0623,66.7576,-1.0915,1.3124,0.6658,0.2448
17:03:43:834,-8.5161,1.3928,3.0084,66.2104,-1.61,1.036,0.9101,0.2355
17:03:43:854,-5.5844,1.5473,6.0287,67.7015,-2.0063,0.4272,1.1335,0.2302
17:03:43:874,-3.8498,1.7783,7.5502,66.8291,-1.8087,-0.0621,0.8656,0.2209
17:03:43:894,-5.0505,1.9004,7.7358,67.8774,-1.4851,-0.0695,0.5207,0.2106
17:03:43:917,-5.6765,2.0871,8.0351,66.76,-1.2664,0.0969,0.5481,0.1987
17:03:43:933,-4.6901,2.0381,8.9245,66.7855,-1.0081,0.2541,0.6243,0.1874
17:03:43:954,-4.7835,2.2045,9.8092,67.6544,-0.6212,0.4415,0.4933,0.1783
17:03:43:974,-5.7352,2.7647,10.1013,67.7957,-0.2632,0.7737,0.3282,0.171
17:03:43:995,-6.2906,3.21,10.4017,66.7676,0.01,0.9598,0.2712,0.1666
17:03:44:014,-7.5428,3.0388,11.0649,67.8262,0.1642,0.9907,0.1298,0.1645
17:03:44:034,-10.0412,2.6187,12.1423,67.3499,0.3107,0.7587,0.0049,0.1647
17:03:44:054,-11.115,2.4654,13.1299,69.3987,0.5861,0.3878,0.0946,0.1664
17:03:44:074,-10.6026,3.2041,13.0078,69.7671,1.0354,0.0551,0.2618,0.1683
17:03:44:094,-9.3014,3.8277,11.6419,69.3311,1.4332,-0.1952,0.2999,0.1718
17:03:44:114,-8.3808,4.2348,10.2964,68.9964,1.5983,-0.4677,0.183,0.1794
17:03:44:133,-8.6633,3.9678,9.5805,70.946,1.5813,-0.8559,0.076,0.1916
17:03:44:153,-8.4754,3.4255,9.2142,70.208,1.4948,-1.159,0.0323,0.2053
17:03:44:180,-8.1761,2.7719,8.9616,70.9757,1.4239,-1.077,0.008,0.2195
17:03:44:199,-9.451,3.3417,9.3662,69.5348,1.4055,-0.706,-0.0351,0.2328
17:03:44:213,-12.4916,3.4495,9.6392,69.9062,1.3967,0.0357,0.118,0.2451
17:03:44:232,-13.1656,3.1921,9.2429,69.7789,1.3914,0.3499,0.6858,0.2621
17:03:44:254,-11.7099,3.1609,8.1177,70.9305,1.3475,-0.0413,1.0746,0.2745
17:03:44:274,-9.6282,3.2759,6.5566,71.0498,1.2247,-0.792,1.0075,0.2886
17:03:44:293,-8.9446,3.1586,5.3308,71.5171,1.0449,-1.4597,0.7423,0.3048
17:03:44:314,-9.0643,2.7755,4.7873,70.1576,0.9203,-1.8642,0.6744,0.3193
17:03:44:333,-8.7303,2.5169,4.4629,70.1489,0.9184,-2.0786,0.8035,0.3309
17:03:44:354,-8.1821,2.6294,3.9781,67.8995,0.9802,-2.2371,0.9284,0.3404
17:03:44:373,-6.979,2.584,3.4466,69.8298,0.9823,-2.4578,0.9665,0.3506
17:03:44:393,-5.7651,2.0105,3.1712,69.5081,0.8841,-2.861,0.8573,0.3616
17:03:44:413,-4.3968,2.244,3.4107,69.5446,0.7602,-3.2866,0.6477,0.3718
17:03:44:434,-3.9934,2.1063,3.9386,70.282,0.7387,-3.6576,0.3955,0.3766
17:03:44:455,-4.2747,1.8573,4.5264,69.3048,0.7909,-3.8805,0.2911,0.3844
17:03:44:472,-5.6598,1.0325,4.6975,69.1011,0.7821,-3.7202,0.2989,0.3901
17:03:44:493,-8.0169,0.4088,4.2379,69.1185,0.1589,-2.3945,0.7007,0.3945
17:03:44:513,-6.1841,1.8202,6.3507,69.548,-0.2792,-1.4099,1.2155,0.3989
17:03:44:532,-4.3286,2.3781,6.5363,68.5718,0.0079,-1.3824,1.2448,0.4014
17:03:44:551,-3.3075,2.8138,5.3428,68.4924,0.0846,-1.1832,1.1228,0.3995
17:03:44:571,-2.43,3.7104,5.1812,69.3706,-0.1633,-0.9398,1.0126,0.3985
17:03:44:592,-2.1247,4.303,6.5854,69.1552,-0.3924,-0.775,0.8706,0.3996
17:03:44:612,-2.0038,4.9075,8.1428,68.0873,-0.4715,-0.4567,0.7559,0.3997
17:03:44:632,-1.7884,5.4845,9.3974,68.9499,-0.3966,-0.0322,0.7383,0.3971
17:03:44:653,-2.4647,5.2068,10.021,69.774,-0.1436,0.2064,0.7069,0.3932
17:03:44:672,-2.7413,4.9255,9.3543,67.2629,0.046,0.3465,0.7266,0.3894
17:03:44:692,-2.3654,4.6585,9.0502,69.3979,0.0023,0.5353,0.7817,0.3875
17:03:44:712,-2.0326,3.9474,9.5961,68.7892,-0.1391,0.7622,0.6999,0.3887
17:03:44:733,-2.5796,3.2843,10.0689,68.3817,-0.2004,1.0461,0.4722,0.3895
17:03:44:753,-3.6343,3.2148,9.6751,67.2521,-0.084,1.2458,0.2954,0.3891
17:03:44:772,-4.4579,3.5009,8.4756,66.6677,0.0596,1.248,0.2541,0.3879
17:03:44:792,-4.2077,3.5153,7.251,65.67,0.0305,1.1036,0.3412,0.3878
17:03:44:812,-3.4942,3.6985,6.8655,66.6825,-0.1048,0.9294,0.4792,0.3887
17:03:44:832,-0.0406,3.9199,5.7223,66.8949,-0.1836,0.4786,0.586,0.3894
17:03:44:853,0.9219,3.8349,5.0519,67.4008,-0.2526,0.2666,0.4384,0.3894
17:03:44:873,0.3221,3.5033,5.3093,66.3743,-0.3588,0.3627,0.2549,0.3882
17:03:44:892,-0.5697,4.0265,5.8228,65.5331,-0.4022,0.6575,0.1606,0.3873
17:03:44:912,-1.4747,4.4754,6.5974,65.7025,-0.3578,0.6131,0.2741,0.3855
17:03:44:931,-1.4209,4.3916,7.0893,66.6287,-0.2446,0.4642,0.4866,0.3826
17:03:44:952,-0.5398,4.23,6.8068,66.2695,-0.1596,0.1252,0.5575,0.3789
17:03:44:973,-0.3542,4.886,5.8324,66.96,-0.1913,-0.2711,0.4714,0.3758
17:03:44:993,-0.2142,5.4043,5.6899,66.6897,-0.4717,-0.5558,0.4102,0.3741
17:03:45:012,-0.0202,5.5755,7.3551,67.4113,-0.8065,-0.6163,0.366,0.3734
17:03:45:032,0.0157,6.0017,9.2585,66.6183,-0.8315,-0.4514,0.3686,0.3725
17:03:45:054,-0.1627,6.2854,10.4089,65.4977,-0.569,-0.2067,0.4552,0.369
17:03:45:079,-0.3327,6.2626,11.1715,67.0538,-0.2171,0.1933,0.6073,0.3627
17:03:45:093,0.5711,6.1633,11.2373,66.8539,0.1411,0.4618,0.6792,0.3558
17:03:45:112,1.5145,6.7295,10.3215,65.7808,0.4463,0.5587,0.5263,0.3512
17:03:45:132,1.0943,7.103,8.8658,66.1815,0.5658,0.6362,0.2594,0.3503
17:03:45:154,-0.5685,7.2239,8.3044,65.1247,0.4319,0.6514,0.1098,0.3534
17:03:45:174,-1.537,7.5603,9.6236,64.9303,0.2396,0.4408,0.1846,0.3583
17:03:45:196,-0.7337,7.5328,10.8243,65.76,0.2939,0.0309,0.31,0.3625
17:03:45:212,1.1122,7.4262,10.9225,64.6311,0.4218,-0.2999,0.3484,0.3651
17:03:45:232,2.8768,6.9306,10.7896,64.7892,0.4441,-0.4072,0.2714,0.3674
17:03:45:254,2.3285,6.4087,10.1755,64.6234,0.3656,-0.2836,0.0807,0.3711
17:03:45:275,0.6621,5.0667,11.3594,64.4214,0.075,0.0141,0.0472,0.376
17:03:45:293,0.3449,4.1964,13.1359,62.4836,-0.0765,-0.021,-0.0101,0.3805
17:03:45:313,0.8656,3.3561,13.8661,65.0897,-0.002,-0.4842,-0.2956,0.3828
17:03:45:332,1.4366,3.2926,12.8881,64.9926,0.3102,-0.9798,-0.768,0.3824
17:03:45:353,0.7303,3.2651,10.5945,63.18,0.6726,-1.1987,-1.2274,0.3819
17:03:45:375,-0.7158,3.2878,8.1991,62.9823,0.7858,-1.2064,-1.4184,0.3832
17:03:45:394,-1.5346,3.3214,7.3826,64.1048,0.7054,-1.1574,-1.3355,0.3873
17:03:45:413,-1.4747,3.1741,7.2653,63.3946,0.7725,-1.1595,-1.2634,0.3937
17:03:45:433,-1.4125,3.2651,6.589,61.1134,0.9765,-1.2088,-1.2279,0.3996
17:03:45:454,-1.3658,3.4435,5.5032,62.906,1.1296,-1.1859,-1.1984,0.4048
17:03:45:473,-1.4903,3.6434,4.7335,63.9549,1.1528,-1.077,-1.1126,0.4117
17:03:45:493,-1.5956,3.7954,4.075,62.2238,1.082,-0.9803,-0.9856,0.4203
17:03:45:514,-1.7333,4.1641,4.0715,62.7259,0.895,-0.8834,-0.8628,0.4296
17:03:45:534,-2.1523,4.6142,4.4462,61.7767,0.6779,-0.865,-0.7451,0.4381
17:03:45:556,-2.442,5.135,4.9513,61.0006,0.4758,-0.8333,-0.6095,0.4491
17:03:45:574,-2.4683,5.6018,5.2853,62.2367,0.2678,-0.7052,-0.4292,0.4518
17:03:45:592,-1.6483,6.1669,6.0742,63.361,0.0164,-0.4983,-0.2809,0.4557
17:03:45:612,-1.5765,6.6912,6.8655,62.6383,-0.1929,-0.2309,-0.2918,0.4581
17:03:45:632,-2.8454,6.9653,7.306,61.066,-0.3695,-0.0834,-0.3227,0.4587
17:03:45:655,-3.5122,7.3053,7.9668,61.4552,-0.5572,-0.1558,-0.2175,0.4575
17:03:45:671,-2.8993,7.273,8.897,61.4553,-0.6827,-0.2088,-0.1155,0.4547
17:03:45:692,-3.3961,7.2838,10.2437,61.3886,-0.716,0.0612,-0.1555,0.4503
17:03:45:712,-5.485,7.0695,11.7473,61.7839,-0.5873,0.3611,-0.1757,0.4445
17:03:45:732,-7.4219,6.866,11.9831,61.9107,-0.2544,0.428,-0.0157,0.4383
17:03:45:754,-6.9323,7.1784,9.7194,61.4174,0.0505,0.2392,0.3308,0.4323
17:03:45:773,-4.7189,7.0132,5.9593,59.2323,-0.112,-0.0445,0.6033,0.4288
17:03:45:792,-3.7755,5.9179,4.8508,60.2292,-0.9394,0.0314,0.6871,0.4285
17:03:45:813,-3.08,3.9714,8.1093,60.1711,-1.8292,0.2362,0.6669,0.4294
17:03:45:833,-2.1032,2.7539,12.0394,60.2632,-1.9274,0.2013,0.4251,0.4256
17:03:45:854,-2.4767,2.6761,12.9899,59.5854,-1.2249,0.1768,0.1034,0.4139
17:03:45:874,-3.2201,3.04,10.6244,59.9127,-0.3439,0.4088,0.0637,0.3962
17:03:45:893,-3.189,3.4183,7.0079,59.865,0.0417,0.9883,0.2352,0.3814
17:03:45:912,-2.3965,3.6087,5.2434,60.26,-0.1143,1.3952,0.4459,0.3746
17:03:45:932,-1.4185,3.4937,5.0519,60.6594,-0.345,1.2338,0.4893,0.3746
17:03:45:958,-1.4747,3.2938,5.0267,57.762,-0.5053,0.8253,0.4065,0.3757
17:03:45:974,-1.7872,3.2699,5.7677,59.1182,-0.6116,0.473,0.423,0.3734
17:03:45:993,-1.2664,3.3094,5.9832,58.189,-0.5783,0.3238,0.5167,0.3694
17:03:46:013,-0.6739,3.4135,5.7283,58.6531,-0.558,0.4144,0.5782,0.3643
17:03:46:032,-0.2812,3.6685,5.7318,57.8159,-0.5809,0.5571,0.5724,0.3596
17:03:46:061,-0.4297,3.8744,5.4876,58.1279,-0.5852,0.5148,0.5428,0.3553
17:03:46:074,0.036,4.0061,5.5355,58.0743,-0.6265,0.384,0.5705,0.3506
17:03:46:093,0.631,4.4119,5.7905,57.6872,-0.6789,0.3459,0.4832,0.3458
17:03:46:112,0.2455,4.9662,6.5267,56.5718,-0.7631,0.4669,0.2951,0.3409
17:03:46:132,-0.851,5.0703,9.1053,56.759,-0.8006,0.5598,0.2184,0.335
17:03:46:158,-0.9671,4.376,11.1212,56.6918,-0.6078,0.5952,0.2038,0.3282
17:03:46:176,0.6861,5.8341,10.0414,56.0522,-0.1753,0.3246,0.0051,0.3156
17:03:46:196,0.4395,5.8951,9.893,55.7294,-0.5666,0.4253,-0.2143,0.3156
17:03:46:212,-0.6092,5.2666,11.0254,55.9254,-1.0209,0.4245,-0.385,0.3132
17:03:46:231,-2.6084,4.3844,11.4348,56.0145,-1.3029,0.2373,-0.4231,0.3115
17:03:46:251,-2.0194,6.7259,15.2799,54.2742,-1.4326,0.1124,-0.3821,0.2957
17:03:46:271,-3.3841,4.3437,15.0166,55.7565,-1.0387,0.1324,-0.4652,0.2957
17:03:46:291,-3.0381,3.5033,14.3701,56.2219,-0.7567,-0.2991,-0.3547,0.2827
17:03:46:311,-1.0402,2.882,14.4635,54.6651,-0.5394,-0.6751,-0.2764,0.2692
17:03:46:331,-0.2728,2.3242,13.8171,54.6233,-0.3636,-0.71,-0.4841,0.2585
17:03:46:352,-0.8893,1.8489,12.9061,52.9987,-0.3335,-0.5862,-0.7041,0.2509
17:03:46:376,-1.2808,1.4946,12.4308,53.5598,-0.4334,-0.5529,-0.8029,0.2457
17:03:46:391,-1.0677,1.3964,12.2728,54.6921,-0.4622,-0.6139,-0.915,0.2416
17:03:46:412,-1.1635,1.2707,11.6036,53.0749,-0.3002,-0.7603,-1.0721,0.2376
17:03:46:431,-1.1252,1.1558,11.0398,52.6337,0.0047,-0.8834,-1.1163,0.2324
17:03:46:454,-0.6882,1.0493,10.3048,53.2973,0.393,-0.8144,-1.0719,0.227
17:03:46:471,-0.2561,0.9236,9.3028,52.7841,0.7403,-0.5803,-1.0618,0.2227
17:03:46:491,-0.5913,0.9344,8.4002,52.3231,0.9855,-0.3199,-1.1574,0.2211
17:03:46:511,-1.6471,1.1103,7.7968,51.6024,1.1541,-0.0871,-1.2319,0.2257
17:03:46:531,-2.2756,1.005,7.3503,52.4826,1.2593,-0.0498,-1.1725,0.2327
17:03:46:550,-1.9057,1.248,6.9253,51.9084,1.3757,-0.2674,-1.0745,0.2417
17:03:46:571,-1.4783,1.4922,6.2957,50.4249,1.4836,-0.4986,-1.017,0.2515
17:03:46:591,-1.4508,1.7005,5.8839,51.6947,1.4079,-0.4256,-0.9278,0.2627
17:03:46:611,-1.4735,2.1446,6.0886,51.453,1.2101,-0.0408,-0.8226,0.2748
17:03:46:631,-2.2468,2.6498,6.0766,51.1503,1.0907,0.2847,-0.7976,0.2865
17:03:46:653,-3.5254,3.1873,5.5391,51.9013,0.9698,0.3092,-0.686,0.2977
17:03:46:672,-3.9527,3.5608,5.0902,50.6899,0.6329,0.1846,-0.4641,0.3077
17:03:46:692,-3.7372,3.951,5.6696,50.6899,0.172,0.1633,-0.2295,0.3167
17:03:46:711,-3.3003,3.9594,6.0958,51.3017,-0.2243,0.3025,-0.0796,0.3242
17:03:46:731,-3.1255,3.483,6.0694,51.6542,-0.607,0.4051,-0.0452,0.3277
17:03:46:751,-3.0561,3.0233,6.559,49.8292,-0.9628,0.4147,-0.1033,0.3276
17:03:46:771,-3.0214,2.3062,6.8104,49.0473,-1.1974,0.4794,-0.2141,0.3245
17:03:46:791,-3.5888,1.6275,7.3156,48.7005,-1.3357,0.7428,-0.3203,0.3176
17:03:46:811,-4.3657,1.0744,7.2282,48.6204,-1.3216,1.1119,-0.3422,0.308
17:03:46:832,-5.0648,0.1622,6.8799,48.2282,-1.3266,1.3441,-0.291,0.2972
17:03:46:851,-4.8924,-0.2041,6.917,48.7174,-1.3799,1.4565,-0.2551,0.2856
17:03:46:871,-5.6059,-0.9451,6.328,46.0499,-1.5192,1.3185,-0.3414,0.2748
17:03:46:892,-6.3757,-1.9567,7.0678,48.9643,-1.8121,1.1761,-0.4037,0.2643
17:03:46:911,-7.647,-2.7779,8.4983,47.3739,-1.9892,1.3265,-0.4426,0.2526
17:03:46:932,-9.0081,-2.5492,9.3531,46.1725,-1.8883,1.5441,-0.3185,0.238
17:03:46:951,-9.3911,-2.542,9.7625,45.9449,-1.7003,1.4283,-0.0146,0.2206
17:03:46:975,-8.3257,-2.6773,11.43,45.1341,-1.5019,0.9883,0.3444,0.1962
17:03:46:991,-7.1286,-1.8441,12.2453,45.6689,-1.1298,0.9079,0.5199,0.1821
17:03:47:012,-7.5572,-0.1071,11.0937,44.1779,-0.6691,1.2964,0.6824,0.1701
17:03:47:032,-7.8984,1.0708,9.1879,45.8166,-0.4025,1.5617,1.0754,0.1624
17:03:47:050,-7.5632,1.7496,7.9728,45.7885,-0.452,1.42,1.5383,0.1595
17:03:47:084,-6.5265,2.2476,7.5574,45.5921,-0.676,1.0442,1.819,0.1604
17:03:47:093,-5.0217,2.8725,7.3575,44.5148,-0.8811,0.5212,1.8102,0.162
17:03:47:110,-3.7863,2.8497,7.3024,44.5729,-1.0856,0.0378,1.5149,0.1622
17:03:47:130,-3.4823,2.5947,7.8746,43.4886,-1.2569,-0.3483,1.13,0.1615
17:03:47:153,-3.8342,2.3649,9.2046,44.7382,-1.2489,-0.5465,0.8528,0.158
17:03:47:171,-4.1957,2.0261,10.695,44.0402,-0.9367,-0.4176,0.7609,0.1516
17:03:47:192,-4.3478,2.05,11.2624,43.3319,-0.3407,-0.094,0.7388,0.1428
17:03:47:211,-5.0205,2.3002,10.7477,42.9321,0.2729,0.3907,0.75,0.1346
17:03:47:231,-5.1031,2.3601,10.0761,44.326,0.6833,0.8381,0.8563,0.131
17:03:47:251,-4.2735,3.058,9.0155,42.0525,0.944,1.1473,0.8816,0.1331
17:03:47:275,-3.8067,3.4734,7.8471,42.8203,0.8487,1.2802,0.7963,0.14
17:03:47:290,-4.5692,2.9946,7.1001,40.9843,0.3395,1.3936,0.6432,0.1497
17:03:47:311,-4.8398,3.3441,7.6987,41.3793,-0.4451,1.2671,0.4853,0.1606
17:03:47:332,-4.6315,2.8389,9.6571,39.451,-1.1335,0.538,0.1324,0.1682
17:03:47:351,-5.5353,2.5325,12.4607,39.353,-1.366,-0.0173,-0.3448,0.1688
17:03:47:374,-6.5576,1.831,14.7783,38.8578,-1.0251,-0.5257,-0.5254,0.1621
17:03:47:391,-5.6155,0.7428,14.983,39.6183,-0.4406,-0.7654,-0.4317,0.1494
17:03:47:411,-4.6051,-0.1239,14.5976,37.6402,0.0313,-0.6727,-0.3579,0.1363
17:03:47:432,-4.1335,-0.3418,14.1139,38.9408,0.4897,-0.4453,-0.3661,0.1289
17:03:47:451,-4.7536,0.2029,12.7361,34.7405,0.8652,-0.1095,-0.4388,0.1263
17:03:47:472,-6.4774,0.3585,11.2924,35.7751,0.957,0.0927,-0.446,0.1279
17:03:47:491,-6.6246,0.2388,10.61,35.3253,0.8172,-0.1529,-0.3768,0.133
17:03:47:512,-5.8489,0.009,10.5119,34.4872,0.6529,-0.75,-0.4881,0.1438
17:03:47:532,-5.1175,-0.7991,10.1886,33.9277,0.5211,-1.2458,-0.7715,0.1501
17:03:47:552,-4.7763,-1.2791,9.5554,32.8394,0.4708,-1.5923,-1.0527,0.1546
17:03:47:571,-5.0289,-1.145,8.8168,33.5007,0.5416,-1.6557,-1.2189,0.1573
17:03:47:593,-3.9288,-0.1742,6.8188,31.6334,1.213,-1.5012,-1.2442,0.1586
17:03:47:623,-3.2165,0.1921,5.2171,33.2383,1.5669,-1.4251,-1.3142,0.1638
17:03:47:633,-2.6886,0.0257,3.947,32.1443,1.6617,-1.3358,-1.4173,0.1638
17:03:47:652,-3.2512,-0.3118,3.6261,30.6654,1.5581,-1.1734,-1.4671,0.1819
17:03:47:671,-4.1035,-0.2963,3.6752,29.9743,1.3922,-0.9904,-1.36,0.1819
17:03:47:690,-4.5573,0.1383,4.5802,31.3844,1.2665,-0.7952,-1.2048,0.1926
17:03:47:711,-4.8254,0.228,5.9976,32.0346,1.2742,-0.5372,-1.1345,0.2026
17:03:47:730,-5.0648,0.0856,5.8695,30.286,1.3365,-0.1752,-1.136,0.2114
17:03:47:750,-4.5213,-0.0533,4.743,30.3065,1.144,-0.0892,-1.1848,0.2192
17:03:47:772,-3.7301,-0.0832,5.0495,29.7831,0.7198,-0.3097,-1.3837,0.2278
17:03:47:793,-4.0222,0.3597,6.3208,29.2285,0.3325,-0.6844,-1.5683,0.2374
17:03:47:812,-5.2133,0.4555,6.9924,29.7738,-0.0113,-1.0347,-1.555,0.2449
17:03:47:830,-6.4116,-0.258,7.1648,28.9713,-0.4259,-1.0671,-1.3233,0.2478
17:03:47:851,-6.1877,-0.4208,7.476,29.9075,-0.7692,-0.9904,-0.8325,0.246
17:03:47:872,-4.6686,0.2364,8.7509,28.4188,-1.0033,-0.6714,-0.4503,0.2404
17:03:47:893,-4.8924,-0.9272,10.4496,26.7745,-1.1239,-0.0274,-0.2876,0.2316
17:03:47:912,-7.8984,-3.2579,11.8897,27.1512,-1.0041,0.6469,0.0589,0.2205
17:03:47:934,-10.2064,-3.3477,13.5118,27.626,-0.5405,1.1148,0.7399,0.2087
17:03:47:951,-8.5268,-2.6258,12.3446,27.8918,-0.0345,1.1353,1.2488,0.1982
17:03:47:971,-7.3058,-2.5133,10.5035,29.3533,0.1661,1.0626,1.3055,0.1906
17:03:47:992,-6.8317,-2.1266,9.3914,27.2106,0.0324,0.9199,1.0893,0.1918
17:03:48:011,-7.6805,-1.8872,8.5977,29.6003,-0.3554,0.5659,0.7796,0.198
17:03:48:031,-8.5867,-1.2025,8.7689,27.5341,-0.6848,0.1167,0.636,0.2042
17:03:48:051,-7.5416,-0.0293,8.4756,28.0236,-0.7181,-0.2746,0.6815,0.2067
17:03:48:072,-5.6502,0.7668,7.1085,28.2645,-0.7,-0.498,0.8112,0.204
17:03:48:093,-4.6578,1.1738,6.8308,29.7364,-0.7663,-0.4464,1.015,0.1987
17:03:48:112,-4.762,1.7005,7.4616,29.4952,-0.6526,-0.2067,1.2765,0.1934
17:03:48:131,-4.4088,2.1195,6.8822,29.8624,-0.3556,0.0242,1.6147,0.1882
17:03:48:150,-3.0824,2.1674,5.6528,28.9236,-0.2161,0.1907,1.9495,0.1834
17:03:48:171,-1.5633,2.2763,4.9729,28.3151,-0.296,0.3204,2.1106,0.1819
17:03:48:195,-0.7349,2.2045,5.2027,29.3737,-0.5037,0.47,2.0526,0.1838
17:03:48:213,-0.292,1.8657,6.1724,32.2955,-0.6046,0.3886,1.8523,0.1865
17:03:48:232,0.3317,1.4838,7.1576,30.0701,-0.5548,0.2181,1.545,0.1879
17:03:48:252,0.4311,1.5101,7.9896,31.3534,-0.3468,0.1449,1.2083,0.1873
17:03:48:278,0.1474,2.0381,7.901,31.4801,-0.0547,0.2173,0.9561,0.1858
17:03:48:293,-1.3347,2.2847,8.1476,31.3544,0.063,0.5715,0.8581,0.1845
17:03:48:311,-2.369,2.5421,8.8623,31.8592,0.046,0.9273,0.9207,0.1852
17:03:48:333,-2.3989,2.8222,9.9768,32.4581,-0.0241,1.033,0.9782,0.1874
17:03:48:352,-1.9775,3.2471,11.1715,33.1172,-0.2076,1.1348,0.7758,0.1899
17:03:48:377,-3.5421,2.9551,12.8642,32.2022,-0.5061,1.1856,0.3593,0.1922
17:03:48:392,-5.8477,1.8932,15.1243,34.5978,-0.6249,0.849,0.0168,0.1933
17:03:48:411,-6.7827,1.0253,16.3705,35.1156,-0.3796,0.3835,-0.238,0.191
17:03:48:432,-5.9854,0.8482,15.9659,34.1925,0.054,-0.1161,-0.4319,0.1852
17:03:48:452,-4.398,1.57,14.4288,36.328,0.5086,-0.4666,-0.5954,0.1794
17:03:48:477,-2.1152,2.6821,12.0382,36.6665,0.8399,-0.5137,-0.7448,0.1769
17:03:48:493,-0.1998,3.3297,10.1839,37.266,0.8596,-0.2834,-0.9046,0.1783
17:03:48:512,0.2192,3.4363,9.9636,38.6975,0.6279,0.1052,-1.1369,0.1865
17:03:48:531,-1.7225,3.2316,10.7441,40.5122,0.3749,0.4637,-1.2602,0.1919
17:03:48:551,-4.4519,2.791,12.1375,40.1392,0.1855,0.7723,-1.2021,0.1946
17:03:48:575,-6.8425,0.8541,13.1718,41.6185,0.0231,0.8266,-1.0199,0.1946
17:03:48:592,-7.5033,-0.9236,13.4053,41.5402,0.0015,0.379,-0.8889,0.1931
17:03:48:612,-6.7707,-1.0205,12.2979,42.4294,0.2311,-0.1926,-0.9302,0.1904
17:03:48:631,-5.5018,-0.5441,9.7864,43.3515,0.5919,-0.857,-1.0367,0.1878
17:03:48:651,-4.0521,-0.2843,7.2282,42.2446,0.8146,-1.2267,-1.1819,0.187
17:03:48:675,-2.9172,-0.0868,5.7845,43.7678,0.9443,-1.3886,-1.3057,0.189
17:03:48:690,-2.6575,-0.398,5.2757,45.3309,1.0796,-1.3247,-1.4216,0.1923
17:03:48:711,-3.1578,-0.8134,4.6544,46.4341,1.2063,-1.1907,-1.5608,0.1964
17:03:48:731,-4.161,-1.0301,4.3671,46.9868,1.1704,-1.1755,-1.6333,0.201
17:03:48:752,-4.398,-1.4036,4.9633,46.8429,1.0007,-1.2669,-1.6279,0.2068
17:03:48:771,-4.3023,-1.3988,6.0443,45.1776,0.9533,-1.1897,-1.5707,0.2119
17:03:48:792,-4.094,-1.7017,6.3926,48.8906,1.0564,-1.0054,-1.458,0.2151
17:03:48:812,-4.5764,-1.9842,6.5698,48.9869,1.1768,-0.959,-1.2809,0.2182
17:03:48:833,-5.2588,-1.7436,6.1089,49.558,1.1568,-0.9542,-1.021,0.2227
17:03:48:853,-5.2264,-0.9307,5.5487,49.3515,0.928,-1.0115,-0.7555,0.2284
17:03:48:872,-4.5489,-0.1454,5.6624,49.2252,0.5211,-1.0983,-0.6695,0.2347
17:03:48:891,-4.4771,-0.094,6.2274,50.5213,0.0577,-1.0935,-0.6969,0.2394
17:03:48:911,-4.2879,-0.3214,6.7877,50.5092,-0.4648,-1.2251,-0.6631,0.2401
17:03:48:932,-3.28,-0.1873,9.0227,51.9524,-1.0129,-1.2586,-0.5312,0.2367
17:03:48:951,-4.1478,-0.6015,10.9632,53.2577,-1.4523,-0.734,-0.3582,0.2367
17:03:48:978,-5.4156,-1.0936,11.5486,52.1888,-1.1927,0.6016,-0.3022,0.2144
17:03:48:993,-5.576,-1.7196,11.4001,51.8273,-0.8741,0.7257,-0.2229,0.1916
17:03:49:011,-5.8082,-2.0417,10.1946,53.2159,-0.6305,0.8013,-0.1928,0.1916
17:03:49:031,-6.9562,-2.147,8.0243,52.4207,-0.7844,0.7659,-0.1363,0.1689
17:03:49:052,-6.9658,-3.0652,8.8431,52.2447,-1.5136,0.3984,0.0517,0.1689
17:03:49:077,-6.7563,-4.0983,12.0585,52.4869,-1.9567,-0.1356,0.1332,0.1629
17:03:49:109,-6.2907,-4.4454,13.9823,54.1549,-1.6933,-0.5518,0.0837,0.1595
17:03:49:110,-5.5389,-3.6458,13.4064,55.755,-1.0166,-0.6519,-0.0146,0.1467
17:03:49:129,-4.416,-2.1446,10.9368,54.255,-0.2973,-0.4892,0.0661,0.1294
17:03:49:150,-3.4607,-0.7488,8.2769,52.7603,0.0939,-0.0732,0.2461,0.1123
17:03:49:174,-3.5685,0.167,6.7841,53.8605,0.1735,0.1904,0.4251,0.1011
17:03:49:191,-3.523,0.6458,6.1855,52.1927,0.1309,0.0929,0.6485,0.0973
17:03:49:210,-3.6008,0.8015,5.6289,52.4756,0.0668,-0.0386,0.8219,0.0985
17:03:49:230,-3.7504,1.0074,5.1357,53.1325,-0.0715,-0.0687,1.0595,0.1015
17:03:49:250,-3.517,1.0205,5.0279,54.1142,-0.3338,0.0522,1.3596,0.1041
17:03:49:270,-2.9041,0.9595,5.5654,54.5228,-0.6137,0.1728,1.6075,0.1064
17:03:49:292,-2.2504,0.5106,6.747,52.2207,-0.8052,0.0373,1.6922,0.1077
17:03:49:311,-1.537,-0.0054,7.6711,54.1183,-0.7998,-0.1127,1.6581,0.1075
17:03:49:331,-0.7397,-0.3286,8.0075,55.6556,-0.7064,-0.0269,1.4829,0.1054
17:03:49:350,-0.7217,0.0808,8.7162,54.9709,-0.6539,0.2764,1.2853,0.1013
17:03:49:374,-2.2888,0.2305,10.0354,54.6976,-0.557,0.8027,1.1463,0.0969
17:03:49:391,-4.5764,0.0748,11.0027,55.9718,-0.2893,1.2978,1.2267,0.0933
17:03:49:412,-5.6957,0.3693,10.6292,55.6966,-0.0291,1.6136,1.4648,0.09
17:03:49:430,-5.8178,0.5728,9.4189,56.313,-0.1367,1.5241,1.7109,0.0881
17:03:49:450,-4.3513,0.2759,9.2968,57.4882,-0.6997,0.7614,1.8081,0.0894
17:03:49:471,-2.1954,-0.5441,11.436,57.8128,-1.3088,-0.2211,1.6134,0.0942
17:03:49:490,-1.0114,-1.1594,15.1063,57.0014,-1.5325,-0.7276,1.1484,0.0986
17:03:49:511,-1.5202,-1.5101,18.6629,57.7838,-1.1258,-0.6727,0.6709,0.0938
17:03:49:531,-2.2337,-1.4994,19.7774,57.2072,-0.1404,-0.1792,0.3798,0.0829
17:03:49:551,-2.333,-1.2312,17.4491,57.1634,0.9054,0.4274,0.2379,0.0712
17:03:49:572,-1.6974,-0.8864,14.3689,57.1634,1.4878,0.6969,0.1726,0.0659
17:03:49:592,-0.5206,-0.1454,12.0813,56.5085,1.6604,0.6533,0.036,0.0707
17:03:49:610,0.1665,-0.2185,10.5669,55.1802,1.4457,0.4535,-0.2631,0.0834
17:03:49:630,-0.2692,-0.8398,10.8614,53.9834,0.9152,0.0778,-0.6479,0.0995
17:03:49:650,-1.5585,-1.576,13.1982,52.2747,0.4513,-0.3792,-0.956,0.1139
17:03:49:673,-1.9943,-2.6462,14.8909,52.7169,0.3584,-0.8546,-1.1502,0.1243
17:03:49:690,-1.379,-3.2375,15.3493,52.9307,0.5973,-1.1915,-1.4423,0.1282
17:03:49:711,-1.8315,-3.1226,14.315,50.7964,1.0833,-0.9774,-1.7763,0.1287
17:03:49:730,-3.1698,-2.6606,11.9376,49.172,1.633,-0.5518,-1.9297,0.1291
17:03:49:750,-4.2316,-2.232,9.128,50.0536,2.0705,-0.2368,-1.8847,0.1321
17:03:49:772,-4.5573,-1.6047,6.5806,46.3476,2.2918,-0.1502,-1.7555,0.1396
17:03:49:794,-4.7189,-0.7931,4.7694,44.4474,2.3179,-0.2253,-1.5781,0.1526
17:03:49:811,-4.8434,-0.2161,3.8021,45.9247,2.1786,-0.2386,-1.3598,0.1693
17:03:49:831,-5.2564,0.1227,3.6022,43.6295,1.9981,-0.1904,-1.1113,0.1871
17:03:49:851,-5.8932,0.4459,3.5292,42.9267,1.875,-0.0389,-0.8607,0.2037
17:03:49:878,-6.4331,0.7943,3.036,42.3671,1.8181,0.0551,-0.6085,0.22
17:03:49:891,-6.6629,1.3725,2.4195,40.743,1.7009,0.1854,-0.3294,0.2354
17:03:49:912,-7.4219,1.8429,2.0053,40.5215,1.384,0.4786,0.0296,0.25
17:03:49:931,-8.0384,1.8597,2.3835,40.3693,0.8481,0.7292,0.5519,0.2655
17:03:49:954,-7.325,1.242,3.3556,40.2576,0.165,0.8354,1.0917,0.2802
17:03:49:972,-6.165,0.2664,5.3488,38.7344,-0.4861,0.7792,1.3719,0.2919
17:03:49:990,-5.0971,-0.9415,8.0626,39.6242,-0.8392,0.5127,1.375,0.3025
17:03:50:009,-3.2201,-1.4682,9.2621,37.3165,-0.7205,0.1968,1.1303,0.3028
17:03:50:029,-0.784,-0.5812,7.9979,37.5987,-0.4201,0.1326,0.5713,0.2995
17:03:50:049,-0.3973,0.3549,5.6109,36.5347,-0.5458,0.1286,-0.1454,0.2959
17:03:50:070,-1.6758,0.3992,4.8436,37.0975,-1.1319,0.0471,-0.5917,0.2936
17:03:50:093,-3.8617,-1.1797,6.7266,35.6338,-1.8409,0.0421,-0.7214,0.2888
17:03:50:112,-5.4108,-2.3182,9.4069,36.6011,-2.1421,0.2168,-0.7467,0.2772
17:03:50:130,-6.9862,-3.0724,10.9117,36.3379,-2.0158,0.3241,-0.8109,0.2587
17:03:50:151,-8.0516,-3.5021,11.612,36.4455,-1.7069,0.2091,-0.7925,0.2375
17:03:50:174,-8.2144,-3.7116,10.9093,35.9206,-1.3772,0.1683,-0.7736,0.2185
17:03:50:191,-7.7882,-2.9287,9.4453,35.143,-1.1756,0.1422,-0.698,0.201
17:03:50:210,-7.6398,-2.542,9.2585,34.8689,-1.223,0.0924,-0.6117,0.1866
17:03:50:231,-8.0276,-2.3409,9.9528,34.5207,-1.1833,-0.0756,-0.5558,0.1747
17:03:50:252,-8.2036,-2.0381,9.6452,34.7336,-0.941,-0.3223,-0.4663,0.1619
17:03:50:274,-6.7228,-1.0289,8.5223,34.5856,-0.7005,-0.5209,-0.2996,0.1492
17:03:50:292,-4.8709,-0.0808,7.1576,34.1359,-0.5548,-0.551,-0.1824,0.1307
17:03:50:312,-4.0676,0.817,6.1772,34.1458,-0.5522,-0.0921,-0.1592,0.1239
17:03:50:331,-5.1594,0.4328,5.684,36.6315,-0.5402,0.2032,-0.066,0.1178
17:03:50:352,-5.9962,0.3921,5.3595,33.6043,-0.5676,0.4365,0.1852,0.1178
17:03:50:373,-5.2564,0.7476,5.1788,36.0278,-0.6443,0.5438,0.5085,0.1123
17:03:50:397,-3.5134,0.6734,5.089,34.9517,-0.7668,0.4908,0.664,0.1075
17:03:50:413,-2.6168,0.489,5.5044,34.134,-0.9048,0.4392,0.5042,0.1035
17:03:50:430,-3.9551,0.076,6.1616,34.7535,-1.0305,0.4607,0.269,0.1001
17:03:50:450,-5.801,-0.574,7.2833,36.1077,-1.1799,0.535,0.3002,0.0957
17:03:50:480,-6.0069,-0.6327,8.8228,35.4864,-1.235,0.5795,0.5327,0.0895
17:03:50:491,-5.1762,-0.5932,10.1336,35.8959,-1.1375,0.5891,0.697,0.0818
17:03:50:510,-4.3178,-0.5058,10.8016,36.098,-0.9841,0.5164,0.6392,0.0725
17:03:50:530,-4.9427,-0.7404,11.4145,35.7628,-0.9833,0.3715,0.473,0.0635
17:03:50:550,-6.9131,-1.424,12.602,36.3173,-1.1807,0.2216,0.4419,0.0558
17:03:50:570,-7.9415,-2.3637,14.7963,36.053,-1.3602,-0.0469,0.6358,0.0497
17:03:50:598,-6.9131,-3.0017,16.8649,38.2836,-1.1748,-0.4954,0.8179,0.0425
17:03:50:611,-5.0289,-2.8617,17.6143,36.9247,-0.5948,-0.7393,0.7338,0.0331
17:03:50:630,-4.2819,-2.1506,16.8745,36.0765,0.0953,-0.5744,0.461,0.023
17:03:50:649,-4.2819,-1.3976,16.1071,37.067,0.6359,-0.3718,0.3487,0.0142
17:03:50:672,-3.7097,-1.1594,15.675,37.9979,1.099,-0.2213,0.3476,0.0103
17:03:50:691,-3.2333,-1.2444,14.8178,37.0756,1.4559,0.0533,0.2941,0.0121
17:03:50:709,-3.5026,-1.6478,13.6135,36.4115,1.5882,0.3167,0.1985,0.0189
17:03:50:729,-4.3968,-2.0393,13.1479,36.7316,1.5605,0.335,0.0845,0.0302
17:03:50:750,-5.0098,-2.3697,13.173,35.8421,1.577,0.0136,-0.0253,0.0449
17:03:50:771,-4.6339,-2.3481,12.7277,37.2943,1.7371,-0.4818,-0.1318,0.06
17:03:50:791,-3.766,-2.0428,11.4791,36.1193,1.9856,-0.8525,-0.2679,0.0753
17:03:50:810,-3.5732,-1.831,9.7026,37.7742,2.1722,-0.9489,-0.4303,0.0969
17:03:50:830,-3.8617,-1.5712,8.2733,39.0155,2.2551,-0.8725,-0.4823,0.1132
17:03:50:850,-3.8941,-1.2911,6.9744,38.3138,2.2918,-0.7784,-0.4324,0.1308
17:03:50:869,-3.6032,-1.0804,5.7558,39.4629,2.2782,-0.7545,-0.3526,0.1493
17:03:50:890,-3.2656,-1.0756,4.8065,37.691,2.1848,-0.8259,-0.3009,0.1674
17:03:50:910,-2.7161,-1.0552,4.3815,37.4771,2.042,-0.91,-0.2684,0.1868
17:03:50:930,-2.1618,-0.8529,4.014,38.8164,1.8947,-0.8767,-0.3073,0.2057
17:03:50:950,-2.4839,-0.8625,3.5376,38.981,1.716,-0.7457,-0.3869,0.2224
17:03:50:971,-2.9938,-0.6985,3.3293,40.2931,1.4471,-0.6437,-0.3731,0.2385
17:03:50:990,-2.9723,-0.4663,3.2826,39.1555,1.1464,-0.595,-0.2953,0.2531
17:03:51:011,-3.2249,-0.4459,3.3807,40.0815,0.7978,-0.387,-0.2487,0.265
17:03:51:030,-4.4998,-0.6901,3.3819,41.2337,0.4287,-0.1017,-0.18,0.275
17:03:51:050,-5.9962,-0.7165,3.0264,40.689,-0.0092,0.1174,0.0581,0.2824
17:03:51:069,-5.9267,0.2508,3.0659,41.906,-0.5301,0.3041,0.416,0.287
17:03:51:090,-4.416,0.8434,4.0667,41.3872,-0.9881,0.4549,0.6366,0.2889
17:03:51:143,-2.9424,0.5908,4.2558,42.7989,-1.3559,0.368,0.5186,0.2874
17:03:51:144,-3.2237,0.1754,5.7534,42.1956,-1.7455,0.1936,0.2043,0.2821
17:03:51:149,-3.9755,-0.5249,8.0566,43.5324,-1.9288,0.1997,-0.0761,0.2739
17:03:51:174,-5.3904,-0.7799,10.2892,43.1348,-1.8292,0.5268,-0.2713,0.2608
17:03:51:192,-7.6673,-0.9511,12.2788,42.9037,-1.5013,1.0645,-0.3121,0.2438
17:03:51:210,-8.7076,-1.4886,13.2257,42.6602,-1.0571,1.1984,-0.1158,0.2271
17:03:51:231,-6.6402,-1.5688,12.6571,42.4611,-0.5908,0.9531,-0.0447,0.212
17:03:51:250,-4.9056,-2.0009,11.1643,42.8228,-0.3162,0.6181,-0.4032,0.1981
17:03:51:271,-6.5911,-3.0951,10.2497,42.5434,-0.4318,0.3497,-0.8998,0.1943
17:03:51:292,-9.4199,-3.532,11.8634,42.8535,-0.7335,0.1254,-0.9526,0.1913
17:03:51:311,-9.2128,-2.487,13.1072,41.8755,-0.5303,-0.0493,-0.657,0.1855
17:03:51:330,-7.4722,-1.2504,11.2481,44.4871,0.0377,-0.1095,-0.4916,0.1768
17:03:51:351,-5.8106,-0.1431,8.3248,44.7967,0.3275,-0.0826,-0.4471,0.17
17:03:51:369,-5.2695,0.8434,6.6883,44.9938,0.2668,-0.0812,-0.4109,0.1688
17:03:51:393,-5.7352,1.4335,5.8025,43.7484,0.1339,-0.0224,-0.299,0.1704
17:03:51:411,-5.6754,1.8801,4.9418,45.6925,0.0492,0.0924,-0.0681,0.1715
17:03:51:430,-5.0349,2.5169,3.9565,45.4548,-0.0422,0.1872,0.1196,0.1719
17:03:51:452,-4.0784,3.2986,2.9127,45.037,-0.215,0.0977,0.3079,0.1723
17:03:51:481,-3.4583,3.404,2.3728,44.512,-0.5961,-0.0453,0.4933,0.1726
17:03:51:494,-3.5685,2.7851,3.1126,45.4354,-1.113,-0.135,0.7263,0.1717
17:03:51:512,-2.685,1.9435,5.4014,45.5204,-1.4963,-0.0716,0.9537,0.1675
17:03:51:532,-2.3019,1.005,7.4545,46.7727,-1.5775,0.0783,0.9204,0.1637
17:03:51:550,-2.8059,0.5489,9.547,45.0438,-1.4297,0.3412,0.7591,0.1539
17:03:51:570,-3.742,0.4076,11.3031,44.979,-1.0994,0.5723,0.6632,0.142
17:03:51:601,-4.4735,0.4962,12.213,46.5195,-0.6326,0.7718,0.6597,0.1304
17:03:51:610,-4.5872,0.9906,11.776,46.668,-0.2188,0.9135,0.6206,0.1214
17:03:51:630,-4.9726,1.3761,11.2469,45.9854,-0.1415,0.8575,0.5274,0.116
17:03:51:650,-5.8154,0.9738,11.8478,46.9113,-0.382,0.5941,0.4648,0.1153
17:03:51:671,-7.0029,-0.0281,13.5214,46.8132,-0.6419,0.2429,0.4421,0.1173
17:03:51:693,-7.5596,-1.1019,15.4918,46.7959,-0.6334,-0.1462,0.4722,0.1159
17:03:51:711,-6.0381,-1.5329,16.1143,48.7493,0.3288,-0.6149,0.2328,0.1159
17:03:51:732,-4.5596,-0.7177,13.993,48.6593,0.8939,-0.5643,0.1093,0.1055
17:03:51:750,-3.1686,-0.015,12.0489,48.8856,1.1757,-0.3026,0.0355,0.1055
17:03:51:770,-2.1954,0.2532,10.7549,48.4382,1.2876,0.004,-0.0628,0.1088
17:03:51:790,-2.0014,0.1694,9.4632,48.8161,1.2609,0.3907,-0.2263,0.1273
17:03:51:812,-2.7293,0.0042,8.8647,47.8068,1.022,0.6796,-0.405,0.1273
17:03:51:831,-4.0641,-0.5632,9.1639,48.6511,0.6734,0.6069,-0.5582,0.1392
17:03:51:849,-5.2815,-1.5963,10.4376,48.3749,0.3943,0.2011,-0.6186,0.1508
17:03:51:869,-5.6514,-2.2559,12.1411,50.0367,0.4452,-0.1824,-0.6061,0.1593
17:03:51:890,-6.0536,-2.4235,12.1471,47.4449,0.9136,-0.0951,-0.5989,0.1646
17:03:51:910,-6.5756,-2.4319,10.0665,49.8974,1.433,0.1417,-0.4889,0.1665
17:03:51:929,-6.2224,-1.9004,7.6675,48.4418,1.7193,0.1883,-0.278,0.1683
17:03:51:950,-5.3797,-1.2611,5.593,49.5031,1.8351,0.0578,-0.132,0.1747
17:03:51:969,-4.6255,-0.7404,3.9637,48.804,1.7959,-0.1934,-0.1025,0.1866
17:03:51:990,-4.5668,-0.2759,3.4131,50.3003,1.6402,-0.4301,-0.1326,0.201
17:03:52:010,-4.7225,0.0736,3.0264,48.8363,1.5123,-0.5966,-0.1541,0.2174
17:03:52:030,-5.1606,0.3717,2.5428,49.0097,1.3453,-0.4914,-0.1315,0.2331
17:03:52:049,-5.9279,0.7177,2.6278,49.3922,1.0806,-0.1931,-0.0271,0.2468
17:03:52:070,-6.7695,0.9535,3.0204,50.2803,0.813,0.0405,0.0807,0.2583
17:03:52:092,-7.896,1.1079,3.5567,48.8594,0.5573,0.1499,0.1793,0.2739
17:03:52:110,-8.4933,0.9511,4.2163,50.2383,0.3648,-0.0253,0.3705,0.2823
17:03:52:130,-7.5763,0.7296,4.3636,48.6879,0.2239,-0.1614,0.5633,0.2887
17:03:52:149,-6.3757,0.8206,4.7418,49.2166,-0.0113,0.045,0.6544,0.2936
17:03:52:168,-5.5018,1.3976,5.417,50.0687,-0.2645,0.5566,0.619,0.2974
17:03:52:189,-5.5975,1.5688,5.6097,49.9984,-0.4092,0.8541,0.4621,0.2998
17:03:52:209,-5.412,1.181,5.077,50.2099,-0.6169,0.7862,0.2965,0.3008
17:03:52:229,-5.1391,1.3665,5.2985,51.1561,-0.9804,0.7393,0.1146,0.3005
17:03:52:251,-6.1494,1.2612,6.1065,49.6014,-1.3666,0.833,-0.0202,0.2988
17:03:52:268,-7.0831,0.6099,6.8978,49.6508,-1.6819,0.8405,-0.0082,0.2936
17:03:52:289,-7.7655,-0.228,7.7885,49.482,-1.9413,0.7089,0.0307,0.2843
17:03:52:311,-8.9003,-1.1821,8.7473,49.8291,-2.1256,0.4317,0.1029,0.2717
17:03:52:330,-8.8908,-1.9052,10.0941,50.0699,-2.2095,0.016,0.272,0.2573
17:03:52:350,-7.5165,-2.2392,11.4169,49.3582,-2.1549,-0.3478,0.3769,0.2398
17:03:52:370,-6.8222,-2.2392,12.3578,48.601,-1.9258,-0.437,0.3061,0.2209
17:03:52:391,-7.7236,-1.9279,12.0801,48.0364,-1.4776,-0.1238,0.2517,0.2028
17:03:52:410,-8.1689,-1.1821,9.9444,48.379,-0.9924,0.1806,0.412,0.1846
17:03:52:431,-7.5165,0.088,7.5562,49.9648,-0.754,0.31,0.6557,0.1693
17:03:52:450,-6.2847,1.2468,5.5954,48.2487,-0.8038,0.1893,0.8163,0.1595
17:03:52:468,-5.8513,1.3605,4.9812,48.2487,-1.1114,-0.0951,0.8994,0.1537
17:03:52:489,-5.3401,0.6806,6.0299,46.8589,-1.4217,-0.4456,1.0142,0.1497
17:03:52:510,-4.1586,0.2843,8.0279,48.9917,-1.4156,-0.6655,1.0395,0.1402
17:03:52:530,-3.7755,0.0341,9.2286,47.4132,-1.1069,-0.6597,0.8906,0.1301
17:03:52:550,-4.3633,-0.3118,9.7074,48.2363,-0.7168,-0.6922,0.7817,0.1201
17:03:52:570,-4.5273,-0.5094,9.6607,47.2219,-0.3671,-0.6693,0.8027,0.1127
17:03:52:593,-3.9096,-0.0269,9.3986,47.9324,-0.0568,-0.6751,0.8062,0.1102
17:03:52:611,-2.9483,0.835,9.559,47.9984,0.1533,-0.8738,0.697,0.1074
17:03:52:630,-2.588,1.819,10.3371,48.5605,0.323,-1.1279,0.4634,0.108
17:03:52:648,-2.9268,2.6582,11.1918,48.1585,0.4732,-1.2999,0.2075,0.1108
17:03:52:668,-4.5405,2.906,13.1455,48.6608,0.52,-1.2887,0.1116,0.1148
17:03:52:688,-5.7639,2.3385,14.9866,46.9978,0.6998,-1.2552,0.2629,0.1199
17:03:52:709,-5.9591,1.4778,15.6642,48.7308,1.0947,-1.1654,0.5279,0.1249
17:03:52:729,-5.2169,0.9595,14.7915,48.1987,1.5573,-1.0365,0.7817,0.1311
17:03:52:749,-3.4092,1.2085,13.1431,47.9661,1.8806,-1.0163,0.9505,0.1406
17:03:52:770,-1.8303,1.7232,11.1966,47.7019,1.9906,-0.9939,0.9236,0.1551
17:03:52:789,-1.0869,2.1207,9.9624,45.9572,1.854,-0.9207,0.8315,0.173
17:03:52:811,-0.4979,2.1793,9.3698,47.5463,1.6955,-0.991,0.7287,0.1942
17:03:52:831,0.5903,2.5181,8.7904,44.5576,1.6018,-1.0645,0.5596,0.2147
17:03:52:848,1.36,2.9479,8.5031,46.241,1.4364,-0.9963,0.3497,0.2323
17:03:52:869,1.7946,3.2795,8.5977,47.2334,1.2239,-0.8818,0.122,0.2495
17:03:52:889,1.858,3.2711,8.7222,46.1974,1.0066,-0.8102,-0.1472,0.2651
17:03:52:910,1.2331,3.1011,8.8718,45.3273,0.8114,-0.6847,-0.4434,0.2777
17:03:52:929,-0.2309,2.7587,8.7856,44.6203,0.6212,-0.4634,-0.687,0.2928
17:03:52:948,-2.3666,2.2835,8.6109,44.6093,0.3336,-0.3265,-0.7819,0.3
17:03:52:970,-3.8857,1.3318,9.3124,43.4128,-0.0174,-0.4344,-0.6788,0.3048
17:03:52:990,-3.3302,0.6039,10.4341,42.9183,-0.0901,-0.759,-0.5254,0.3069
17:03:53:012,-1.8446,0.5273,10.5765,43.233,0.2231,-0.8338,-0.6122,0.3058
17:03:53:033,-1.61,1.0253,9.4488,43.2218,0.6894,-0.5832,-0.8628,0.3041
17:03:53:052,-2.1618,1.5317,7.7789,43.2073,1.0788,-0.2583,-0.9893,0.3041
17:03:53:069,-2.3175,2.0896,6.0981,43.5706,1.2867,0.0621,-0.9161,0.3106
17:03:53:090,-2.1607,2.6294,4.8568,42.6883,1.3062,0.4352,-0.7467,0.3195
17:03:53:111,-2.5246,2.9323,5.247,42.027,1.2031,0.7228,-0.5704,0.33
17:03:53:153,-2.6527,3.3465,5.9521,41.8439,1.0021,0.592,-0.4538,0.3416
17:03:53:153,-2.9807,3.4076,5.9713,41.051,0.9445,0.2983,-0.5054,0.3525
17:03:53:167,-4.1347,3.4973,6.2717,42.2959,0.7951,0.0788,-0.5219,0.3619
17:03:53:189,-4.5489,4.0803,7.3395,40.4177,0.642,-0.0794,-0.3904,0.379
17:03:53:208,-4.1347,4.4347,8.2398,40.6657,0.6234,-0.1382,-0.2782,0.379
17:03:53:228,-4.4352,4.7136,8.3499,39.9422,0.6476,-0.0091,-0.2516,0.3852
17:03:53:251,-5.4563,4.9039,7.9848,39.5597,0.5882,0.0959,-0.1786,0.3903
17:03:53:268,-5.2707,5.2044,7.8998,40.7756,0.4439,0.062,-0.0133,0.3954
17:03:53:288,-3.9767,5.9215,7.9632,39.6039,0.3578,0.0072,0.0472,0.4033
17:03:53:308,-3.9527,6.2387,7.9908,38.5724,0.2148,0.0847,-0.0202,0.4078
17:03:53:329,-5.3318,5.8867,8.7174,39.5986,0.0143,0.1539,0.0003,0.4114
17:03:53:348,-6.2835,5.1721,9.6895,38.5613,-0.0805,0.221,0.1441,0.4142
17:03:53:370,-6.8102,4.6178,10.1659,38.4866,0.0345,0.1696,0.3026,0.4152
17:03:53:393,-6.1937,4.6825,9.5434,38.1442,0.263,-0.0224,0.4611,0.415
17:03:53:410,-4.6782,5.1146,8.5438,37.4743,0.3118,-0.0008,0.4057,0.4151
17:03:53:429,-4.7727,4.862,8.1225,36.7656,0.2119,0.0346,0.1899,0.417
17:03:53:449,-5.8872,4.6597,8.4277,38.1412,0.1477,0.1915,0.1282,0.4205
17:03:53:470,-7.2747,4.3748,8.3068,36.5763,0.2502,0.4133,0.3258,0.4234
17:03:53:495,-6.8138,4.4562,6.9732,38.1725,0.3685,0.5217,0.6523,0.425
17:03:53:509,-4.7213,4.5089,5.4673,37.4464,0.3102,0.3928,0.8152,0.4259
17:03:53:530,-2.2085,4.4514,4.111,36.1616,0.1014,0.1571,0.7322,0.429
17:03:53:548,-0.3782,4.4742,3.0611,36.0844,-0.2829,0.2503,0.4581,0.4337
17:03:53:568,-0.1819,4.6717,3.4119,36.2371,-0.7279,0.4695,0.2155,0.4377
17:03:53:589,-2.0146,4.3365,5.5343,35.3585,-0.9346,0.51,0.1255,0.4398
17:03:53:609,-3.4894,3.9271,6.5938,35.4273,-0.6571,0.2946,0.2603,0.4382
17:03:53:629,-2.8897,4.0695,5.8934,35.483,-0.2552,0.3787,0.3785,0.4326
17:03:53:649,-2.2265,4.6466,4.6317,35.3444,-0.0379,0.6064,0.346,0.4247
17:03:53:669,-2.4013,5.5216,3.9278,35.3369,-0.0289,0.5963,0.3721,0.4194
17:03:53:689,-2.5856,5.8101,3.8153,34.7792,-0.1652,0.3377,0.4709,0.418
17:03:53:708,-2.0421,6.0795,4.2355,34.2619,-0.3229,-0.1204,0.5489,0.4188
17:03:53:730,-1.2233,6.5188,5.265,35.7823,-0.4845,-0.3894,0.5053,0.4188
17:03:53:752,-1.7333,6.6469,6.5602,33.869,-0.5796,-0.3758,0.3921,0.4175
17:03:53:769,-2.6515,6.7319,7.6664,31.7447,-0.5714,-0.2874,0.3468,0.4149
17:03:53:790,-2.6994,6.9498,8.6348,33.323,-0.5064,-0.2943,0.378,0.4107
17:03:53:815,-2.169,7.0348,9.6069,32.7633,-0.4142,-0.3217,0.3681,0.4059
17:03:53:829,-1.786,7.0144,10.379,33.7535,-0.2944,-0.2738,0.2584,0.4019
17:03:53:850,-1.8147,7.2802,10.5741,32.0523,-0.1447,-0.0618,0.0946,0.3983
17:03:53:869,-2.7664,7.2167,10.3526,32.5227,-0.0701,0.1044,-0.0282,0.3954
17:03:53:890,-3.1315,6.866,10.5633,32.295,-0.0845,-0.0365,0.0304,0.3938
17:03:53:910,-1.6064,6.8971,10.7776,32.7174,-0.0723,-0.2192,0.1266,0.393
17:03:53:929,-1.1503,6.9905,11.4516,32.771,-0.0352,-0.208,0.0549,0.3923
17:03:53:952,-1.4532,6.8289,11.8466,30.3083,0.0739,-0.1814,0.0272,0.3917
17:03:53:970,-1.3383,6.623,11.2541,31.1369,0.1634,-0.0866,0.0296,0.3914
17:03:53:991,-1.5705,6.0232,10.1886,31.555,0.0574,-0.1787,-0.0476,0.3915
17:03:54:010,-1.3059,4.8752,10.0007,31.3928,-0.2523,-0.6567,-0.1134,0.3928
17:03:54:029,-0.4931,3.9451,10.6148,31.4823,-0.501,-1.1193,-0.2628,0.394
17:03:54:050,-0.5518,3.5225,10.6519,32.5071,-0.4182,-1.142,-0.5028,0.3931
17:03:54:069,-0.7541,3.6661,9.225,32.5172,-0.1359,-0.7556,-0.6412,0.3892
17:03:54:091,-0.9217,4.0492,7.8184,32.2183,0.0984,-0.3872,-0.6559,0.3843
17:03:54:111,-1.0486,3.8481,7.2139,32.7733,0.2532,-0.3316,-0.5925,0.3802
17:03:54:129,-0.7325,3.1442,6.5602,32.0211,0.3972,-0.3875,-0.5763,0.3802
17:03:54:148,-0.7505,3.2352,6.1999,32.2019,0.5222,-0.3763,-0.6556,0.3818
17:03:54:168,-0.7517,3.2435,6,33.8061,0.5941,-0.3132,-0.657,0.3847
17:03:54:188,-0.4464,3.3525,5.7905,32.9893,0.6508,-0.1127,-0.6157,0.3886
17:03:54:210,-0.7804,3.562,5.7522,33.0693,0.7176,0.3129,-0.5515,0.3929
17:03:54:229,-1.3825,3.9091,5.3548,32.6919,0.7938,0.808,-0.4418,0.3982
17:03:54:249,-1.9572,4.2958,4.9489,32.71,0.7698,1.1007,-0.3259,0.4043
17:03:54:269,-2.4216,4.6286,4.8101,32.7614,0.6074,1.1148,-0.2226,0.4116
17:03:54:289,-3.013,5.0117,4.9513,32.5021,0.3632,0.8868,-0.1677,0.4185
17:03:54:310,-3.1004,5.1445,4.8699,32.9316,0.0409,0.3467,-0.1552,0.4245
17:03:54:329,-2.6419,5.4426,5.156,32.5682,-0.4395,-0.3862,-0.2348,0.4281
17:03:54:349,-3.4236,5.5168,6.6967,33.4438,-0.9306,-0.9441,-0.385,0.4284
17:03:54:368,-3.8246,5.2271,8.575,33.0671,-1.2134,-1.3047,-0.4242,0.4239
17:03:54:389,-3.602,5.1912,10.3455,32.885,-1.2718,-1.3068,-0.4178,0.4143
17:03:54:409,-4.3789,5.2092,11.4995,34.1443,-1.1077,-0.7822,-0.4045,0.4024
17:03:54:430,-5.752,5.0332,11.9927,33.301,-0.8286,-0.0605,-0.2705,0.3892
17:03:54:449,-6.3062,4.9327,11.6419,34.4138,-0.5719,0.4653,-0.0524,0.3779
17:03:54:469,-5.5341,4.1605,9.4117,33.8278,-0.4323,0.6165,0.0789,0.3703
17:03:54:495,-5.388,3.058,9.9193,33.277,-0.8488,0.3505,0.0264,0.3655
17:03:54:511,-5.4694,1.7627,11.2193,33.2374,-0.9679,0.13,-0.0561,0.3655
17:03:54:532,-6.2715,1.1343,12.0789,33.9123,-0.7277,0.1318,-0.1422,0.3622
17:03:54:549,-6.9431,1.4611,11.2864,34.4516,-0.1937,0.4575,-0.0759,0.3505
17:03:54:567,-6.4008,2.3589,8.7198,34.5646,0.2801,0.8562,0.1561,0.3377
17:03:54:588,-4.7428,3.3297,6.0503,34.0566,0.3983,1.053,0.3556,0.3333
17:03:54:609,-3.2967,3.8577,4.5802,36.6054,0.1885,0.8961,0.4312,0.3395
17:03:54:629,-2.2217,4.0887,4.3683,34.409,-0.0848,0.5132,0.4081,0.3395
17:03:54:648,-2.0721,4.0396,4.5766,36.2909,-0.3021,0.2176,0.3391,0.3438
17:03:54:667,-2.7281,3.9115,5.2231,35.335,-0.4534,0.1451,0.3708,0.3449
17:03:54:688,-2.9017,3.7978,5.6325,33.6875,-0.5042,0.0911,0.4776,0.3452
17:03:54:708,-2.6946,3.7128,6.0562,36.5816,-0.5314,-0.1364,0.57,0.3431
17:03:54:728,-2.3845,3.7116,6.7206,36.0758,-0.5444,-0.4216,0.624,0.3397
17:03:54:749,-2.2014,3.5321,7.3192,36.2637,-0.5183,-0.5164,0.6714,0.3361
17:03:54:770,-1.7237,3.4722,7.8411,35.6312,-0.4446,-0.4107,0.7207,0.332
17:03:54:792,-1.1743,3.568,8.5211,34.8723,-0.3237,-0.2218,0.7306,0.3279
17:03:54:809,-0.9911,3.7894,8.9544,35.2908,-0.1511,-0.0221,0.6528,0.3242
17:03:54:827,-1.0378,4.1845,9.1771,36.7716,0.0417,0.0828,0.5638,0.321
17:03:54:848,-0.7217,4.5352,9.0969,35.7398,0.1898,0.1177,0.4893,0.319
17:03:54:869,-0.0585,5.275,8.8491,36.4115,0.2495,0.1332,0.3772,0.3185
17:03:54:887,0.2467,5.6497,8.7617,37.58,0.1448,0.0855,0.2086,0.3198
17:03:54:909,0.2755,5.7958,9.286,36.3438,-0.0563,-0.0197,0.0019,0.3223
17:03:54:932,-0.5793,5.542,10.1216,37.6121,-0.2659,-0.123,-0.2604,0.3251
17:03:54:950,-2.2672,4.6059,11.2469,37.3015,-0.4158,-0.2735,-0.4178,0.3267
17:03:54:970,-2.7437,3.8433,12.7169,38.1684,-0.39,-0.5675,-0.3954,0.3261
17:03:54:987,-0.7301,4.1079,13.6171,38.8217,-0.0914,-0.8197,-0.3749,0.3212
17:03:55:008,0.8812,4.7962,13.5142,39.0512,0.3099,-0.7593,-0.5837,0.3167
17:03:55:029,0.8022,5.6318,13.1132,38.9188,0.6431,-0.5204,-0.8618,0.3136
17:03:55:048,-0.5278,6.6924,11.9316,38.8793,0.7895,-0.1763,-1.0093,0.3139
17:03:55:069,-2.205,6.3213,10.8183,39.3618,0.4724,0.1049,-0.9076,0.3173
17:03:55:088,-2.6012,4.3964,11.5438,38.8093,-0.0717,-0.1723,-0.7973,0.3231
17:03:55:113,-2.6946,3.119,13.1874,41.2539,-0.293,-0.7843,-0.8495,0.3283
17:03:55:128,-2.1762,2.3505,13.3107,40.8455,-0.1082,-1.1454,-0.9086,0.329
17:03:55:171,-1.5992,2.1075,11.7341,41.6183,0.2558,-1.0256,-0.9893,0.3254
17:03:55:172,-1.4831,1.9399,9.3543,41.3997,0.5562,-0.6283,-1.0239,0.3214
17:03:55:187,-1.1539,1.8884,7.4593,41.7086,0.7355,-0.3156,-1.0279,0.3199
17:03:55:207,-0.9911,1.813,5.7234,42.9967,0.9081,-0.2109,-1.0687,0.322
17:03:55:227,-0.5781,1.9351,3.8907,40.5884,0.9858,-0.3031,-1.1243,0.3265
17:03:55:247,-0.3961,2.0848,3.2383,42.8467,0.8726,-0.3747,-1.188,0.3327
17:03:55:267,-0.6415,1.9004,3.5316,42.7828,0.6841,-0.3635,-1.2391,0.3398
17:03:55:289,-1.3634,1.7879,4.603,44.0459,0.5986,-0.3635,-1.2897,0.3468
17:03:55:309,-2.1918,2.2332,5.6169,44.8941,0.6505,-0.2951,-1.2548,0.3521
17:03:55:328,-2.9866,2.6725,5.8934,44.072,0.7216,-0.0887,-1.078,0.3555
17:03:55:347,-3.4009,3.319,5.6109,44.072,0.6891,0.2471,-0.8002,0.3591
17:03:55:367,-3.5852,3.8098,5.2614,43.6144,0.4313,0.5001,-0.5555,0.3636
17:03:55:388,-4.3645,3.9451,5.8456,43.7348,-0.0081,0.5177,-0.3408,0.3719
17:03:55:409,-4.2041,3.89,6.2322,43.1527,-0.4563,0.1475,-0.1645,0.3762
17:03:55:428,-3.8653,3.7224,7.0894,44.6047,-0.9556,-0.392,-0.1123,0.3768
17:03:55:447,-3.7025,3.3525,8.7856,45.7366,-1.328,-0.7542,-0.1123,0.3732
17:03:55:467,-3.8019,3.1921,9.7469,44.3001,-1.4361,-0.6756,-0.1717,0.3636
17:03:55:487,-4.0186,3.1993,9.6847,42.9709,-1.4286,-0.2378,-0.2279,0.3499
17:03:55:510,-4.4375,2.9754,9.6547,44.4887,-1.4891,0.1449,-0.287,0.3351
17:03:55:529,-4.9008,2.2655,10.379,44.1422,-1.529,0.2075,-0.352,0.3221
17:03:55:547,-5.0457,1.6047,11.4372,43.546,-1.4427,0.1939,-0.4079,0.3084
17:03:55:566,-6.0931,1.3342,11.8981,45.209,-1.2504,0.375,-0.4514,0.2944
17:03:55:588,-7.0317,0.7895,11.6563,45.4965,-1.1141,0.5997,-0.3571,0.2817
17:03:55:610,-7.8002,-0.0401,11.2193,45.0438,-1.0957,0.6847,-0.2215,0.2704
17:03:55:629,-8.8381,-0.5608,11.4085,46.1578,-1.1852,0.6855,-0.0452,0.2609
17:03:55:648,-9.0021,-1.1271,12.3087,45.2166,-1.2177,0.3854,0.1812,0.2524
17:03:55:669,-7.7463,-1.09,12.6655,46.299,-1.0188,-0.2096,0.354,0.2478
17:03:55:687,-6.2392,0.0772,12.4619,46.391,-0.6576,-0.5103,0.4011,0.2379
17:03:55:708,-5.8022,1.0636,11.5701,46.4512,-0.2768,-0.4155,0.4882,0.2279
17:03:55:729,-5.2576,1.3246,10.7728,47.2712,0.0494,-0.1412,0.6866,0.2202
17:03:55:746,-4.076,1.3857,9.7709,46.934,0.3746,0.0876,0.8523,0.2156
17:03:55:767,-2.758,1.6741,8.5606,46.7884,0.6351,0.168,0.9029,0.215
17:03:55:788,-1.9045,1.8477,7.3587,45.5664,0.761,0.1625,0.8595,0.2181
17:03:55:808,-2.1571,2.1302,6.589,46.1577,0.7429,0.1244,0.7529,0.2289
17:03:55:829,-2.6515,2.42,6.5471,48.1438,0.6939,-0.0245,0.8374,0.2377
17:03:55:849,-1.2281,2.1853,6.2203,48.6694,0.6971,0.065,1.0515,0.2458
17:03:55:868,-0.9648,2.5253,5.9509,48.0315,0.6465,0.163,0.9484,0.2458
17:03:55:889,-0.8187,3.0795,6.1377,48.4842,0.5493,0.2914,0.8142,0.2617
17:03:55:912,-1.3742,3.1825,6.753,48.6175,0.4508,0.4714,0.6576,0.2695
17:03:55:927,-2.0421,3.246,7.4114,48.0111,0.3988,0.5848,0.5636,0.2772
17:03:55:947,-2.3282,3.738,7.8902,50.417,0.3693,0.5401,0.5154,0.284
17:03:55:966,-1.6758,4.4802,7.8543,51.6672,0.2961,0.3918,0.4704,0.2898
17:03:55:986,-1.5956,4.9159,8.2661,51.2669,0.0971,0.24,0.3854,0.2948
17:03:56:009,-1.5298,5.0344,9.535,52.5542,-0.0917,0.1039,0.3212,0.2997
17:03:56:028,-1.4388,4.8034,10.4125,53.1401,-0.1564,-0.0719,0.2248,0.3036
17:03:56:047,-1.2377,4.552,11.0996,52.139,-0.21,-0.2586,0.1268,0.3054
17:03:56:067,-0.9552,4.6358,11.9687,51.3262,-0.2054,-0.3981,0.0318,0.3051
17:03:56:086,-0.3219,4.8393,12.1543,52.5392,-0.1452,-0.5089,-0.0117,0.304
17:03:56:108,0.5592,4.6238,12.6523,54.1087,-0.1317,-0.4639,-0.1043,0.3021
17:03:56:128,0.2802,4.3569,13.598,54.4857,-0.0368,-0.387,-0.3387,0.2998
17:03:56:146,-1.1635,4.2982,13.5573,54.8407,0.1277,-0.3326,-0.491,0.2979
17:03:56:166,-1.4137,3.951,12.4224,55.8487,0.1408,-0.2216,-0.4367,0.2961
17:03:56:186,-0.8618,3.2256,11.6156,56.7904,-0.0872,-0.2293,-0.4676,0.2949
17:03:56:207,-1.4927,1.9974,12.1076,56.1294,-0.39,-0.3798,-0.6593,0.2955
17:03:56:226,-1.9105,0.6626,12.5625,56.8852,-0.5253,-0.5974,-0.8644,0.2951
17:03:56:247,-2.5078,0.0593,12.6008,56.4915,-0.4198,-0.6394,-1.1353,0.2888
17:03:56:271,-4.1514,0.155,12.3075,57.3247,-0.0291,-0.4916,-1.3265,0.2819
17:03:56:286,-5.3234,0.5082,11.2481,57.2016,0.5531,-0.3302,-1.2617,0.2784
17:03:56:309,-5.4072,0.8601,9.4285,55.9167,1.1065,-0.1545,-1.0527,0.2737
17:03:56:327,-4.6901,1.4252,7.4305,58.6477,1.446,-0.0578,-0.8258,0.2737
17:03:56:348,-3.9647,1.8214,6.2873,57.3021,1.5643,-0.0602,-0.6194,0.2797
17:03:56:367,-3.1698,2.1243,5.5978,58.249,1.6021,-0.1119,-0.4482,0.2899
17:03:56:387,-2.6287,2.481,4.8855,59.1208,1.5778,-0.1297,-0.3408,0.3029
17:03:56:411,-2.6012,2.6773,4.5132,58.874,1.4428,-0.1505,-0.2332,0.3167
17:03:56:427,-2.5473,2.7264,4.5443,60.1938,1.2585,-0.2067,-0.0921,0.3299
17:03:56:447,-2.5389,2.8784,4.7346,60.6068,1.0963,-0.2357,0.0288,0.343
17:03:56:466,-2.2145,3.2639,4.7346,59.5885,0.9443,-0.2264,0.1417,0.3547
17:03:56:487,-2.0074,3.6577,4.7777,60.7819,0.7472,-0.1982,0.2397,0.3646
17:03:56:518,-1.5154,4.1246,4.5958,61.5376,0.5078,-0.1137,0.2989,0.3729
17:03:56:530,-0.8391,4.3413,4.4857,62.9818,0.1344,-0.032,0.2472,0.3802
17:03:56:549,-1.294,4.1917,5.0746,63.6743,-0.3159,0.0658,0.0006,0.3858
17:03:56:567,-2.7832,3.8409,6.2454,61.9068,-0.7088,0.1691,-0.2697,0.3888
17:03:56:589,-4.6099,3.5907,7.8232,63.9667,-0.9445,0.3316,-0.3885,0.3882
17:03:56:616,-5.5066,3.7763,8.4924,65.6518,-1.0185,0.5553,-0.3499,0.3836
17:03:56:628,-5.485,4.1162,8.6731,64.9352,-1.1359,0.7574,-0.2783,0.3766
17:03:56:652,-5.6682,3.6111,9.978,64.7775,-1.2813,0.595,-0.2205,0.3683
17:03:56:667,-5.6095,2.6654,12.286,65.3012,-1.222,0.2205,-0.196,0.3553
17:03:56:688,-6.6821,2.3026,13.4472,65.8461,-0.876,0.2698,-0.1957,0.3454
17:03:56:707,-9.0847,2.3122,12.4811,66.5081,-0.5927,0.7835,0.0664,0.3346
17:03:56:730,-9.3241,2.0488,10.9273,67.6576,-0.6685,1.0038,0.5788,0.327
17:03:56:747,-7.6973,1.0134,10.5933,65.9698,-0.9029,0.555,0.9226,0.3235
17:03:56:767,-6.1195,0.1514,10.3239,67.0019,-0.9461,-0.025,0.9671,0.3205
17:03:56:789,-4.7428,0.3035,9.2944,67.0204,-0.8555,-0.2011,0.9085,0.3149
17:03:56:819,-3.7983,0.9248,8.0003,69.1962,-0.8102,-0.0077,0.8991,0.3113
17:03:56:827,-2.5078,1.4419,6.9601,67.4884,-0.8422,0.1835,0.9314,0.3046
17:03:56:851,-1.0689,1.5832,6.5411,68.5852,-0.8872,0.212,0.8685,0.2983
17:03:56:867,-0.4069,1.8753,6.6476,70.4929,-0.867,0.2261,0.6669,0.2923
17:03:56:886,-0.9767,2.0548,6.8583,70.2253,-0.7908,0.3593,0.4842,0.2861
17:03:56:911,-1.1347,2.3242,6.7554,67.0469,-0.6723,0.5691,0.4128,0.2797
17:03:56:928,-1.4484,2.5564,6.261,70.323,-0.5934,0.869,0.3452,0.2731
17:03:56:946,-3.0166,2.554,6.2298,69.1982,-0.5908,1.0719,0.3566,0.2676
17:03:56:966,-4.653,2.5193,6.899,70.5398,-0.5969,0.9601,0.5524,0.2635
17:03:56:986,-4.4399,2.8736,7.7693,71.2282,-0.5447,0.6602,0.8121,0.2598
17:03:57:009,-3.6654,3.3812,8.1129,71.705,-0.4611,0.5364,0.9042,0.2561
17:03:57:029,-3.6439,3.7188,8.5857,72.3072,-0.4526,0.5265,0.8765,0.253
17:03:57:047,-4.6075,3.5548,10.0725,71.6213,-0.4805,0.6216,0.8469,0.2506
17:03:57:067,-6.0405,3.0616,11.6347,72.2775,-0.2973,0.7795,0.9258,0.2487
17:03:57:087,-5.5113,3.4147,12.2896,72.5649,0.1064,0.8464,1.1026,0.2453
17:03:57:110,-4.2269,4.0265,11.3427,73.7501,0.4412,0.833,1.0448,0.2449
17:03:57:131,-4.5082,4.218,10.8123,75.7094,0.4417,0.6722,0.8083,0.2551
17:03:57:148,-5.3485,4.0887,12.0238,74.9251,0.1696,0.0921,0.5146,0.2612
17:03:57:186,-5.3545,3.8062,12.9025,74.3038,0.2529,-0.0738,0.5292,0.2653
17:03:57:187,-3.7013,3.9439,12.8282,74.7629,0.5826,-0.2773,0.5862,0.2681
17:03:57:207,-1.8674,4.4897,11.0685,74.4069,0.9147,-0.3177,0.5409,0.2715
17:03:57:226,-0.3267,4.9015,9.3531,73.4871,0.9144,-0.3529,0.4797,0.2783
17:03:57:250,1.0619,4.7351,8.9879,75.3489,0.6859,-0.5563,0.3638,0.2783
17:03:57:265,1.9167,4.6681,9.0143,73.9132,0.4649,-0.7175,0.1252,0.2971
17:03:57:286,1.7036,4.8201,8.4959,74.3648,0.1451,-0.7316,-0.184,0.2971
17:03:57:309,0.4227,3.5213,9.1711,74.4297,-0.451,-0.9025,-0.3765,0.3043
17:03:57:329,-0.0753,1.4263,11.6192,72.8048,-0.9066,-1.3633,-0.4045,0.3088
17:03:57:345,0.5735,0.1826,13.0808,74.0015,-0.7719,-1.6498,-0.5036,0.3098
17:03:57:365,0.9255,-0.0054,12.0908,74.2563,-0.2398,-1.3992,-0.7558,0.3049
17:03:57:385,-0.3207,0.562,9.4764,74.3701,0.258,-0.7241,-0.9358,0.2955
17:03:57:405,-1.9679,1.558,6.9373,75.1907,0.4817,0.0027,-0.9142,0.287
17:03:57:427,-3.5625,2.1542,5.2027,73.4079,0.4891,0.4141,-0.7693,0.2834
17:03:57:446,-3.8977,1.8597,5.0351,72.8205,0.3877,0.0911,-0.5765,0.2842
17:03:57:466,-2.3893,1.3773,6.067,73.4016,0.3509,-0.7769,-0.6322,0.2874
17:03:57:486,-2.0601,1.5413,7.2091,73.9749,0.483,-1.3963,-1.0162,0.2936
17:03:57:507,-3.1842,1.7831,7.8052,73.5887,0.5997,-1.551,-1.2412,0.2954
17:03:57:532,-4.6698,1.9818,8.4205,73.7994,0.5973,-1.2381,-1.1515,0.2963
17:03:57:545,-5.3988,1.9243,9.2417,73.2662,0.5837,-0.8075,-0.8077,0.2983
17:03:57:566,-4.7272,1.9351,10.0246,74.5887,0.6588,-0.5643,-0.4559,0.3009
17:03:57:585,-4.343,2.135,10.2533,72.275,0.8164,-0.478,-0.2841,0.3039
17:03:57:606,-4.3789,2.3385,9.8391,73.6021,0.9155,-0.3923,-0.1645,0.3077
17:03:57:630,-4.2077,3.064,9.5685,72.9247,0.875,-0.2791,-0.0253,0.3135
17:03:57:651,-3.4332,4.3018,9.7828,72.1544,0.7656,-0.1111,0.0712,0.3209
17:03:57:666,-4.2592,5.0165,10.3012,73.3691,0.6705,0.2549,0.0344,0.3283
17:03:57:686,-6.7444,5.135,10.7453,72.2222,0.6873,0.6525,0.1372,0.3356
17:03:57:707,-7.0209,5.7527,10.1072,71.7513,0.8401,0.9017,0.5191,0.3423
17:03:57:734,-4.8757,6.7427,8.7689,72.5965,0.8809,1.0309,0.7966,0.3491
17:03:57:746,-3.7468,6.9773,7.9393,72.2151,0.6364,0.8791,0.7247,0.3572
17:03:57:765,-5.1606,6.2638,8.5079,70.8909,0.3642,0.5827,0.5396,0.3674
17:03:57:787,-7.3417,4.7028,8.9353,71.2152,0.275,0.3742,0.5947,0.3768
17:03:57:808,-7.4123,3.3106,8.4959,70.5099,0.2337,0.2911,0.8603,0.3824
17:03:57:828,-5.8022,2.7336,7.7813,70.2852,0.0803,0.2855,1.015,0.3864
17:03:57:845,-4.2664,2.548,7.9932,70.8133,-0.2459,0.2634,0.9276,0.39
17:03:57:866,-3.979,2.0069,8.7521,70.3471,-0.4363,0.1995,0.6635,0.3929
17:03:57:887,-4.2137,1.8405,8.7844,68.756,-0.3652,0.2368,0.3833,0.3937
17:03:57:908,-4.167,2.4176,8.0782,70.0228,-0.1687,0.3329,0.2429,0.3914
17:03:57:928,-3.7935,2.8892,6.8882,70.112,-0.0123,0.3649,0.2352,0.3898
17:03:57:947,-3.1363,3.2687,6.1293,70.3998,-0.0004,0.4306,0.277,0.3862
17:03:57:966,-2.5102,3.4626,5.8695,69.8403,-0.0358,0.4511,0.2903,0.3862
17:03:57:986,-2.284,3.3357,5.7606,68.7723,-0.0539,0.3859,0.2871,0.3869
17:03:58:006,-1.9847,3.4483,5.7043,68.6868,-0.0496,0.3268,0.3109,0.3873
17:03:58:029,-1.6112,3.6075,5.7067,70.1832,-0.0467,0.3553,0.3572,0.3875
17:03:58:046,-1.1311,3.9032,5.6995,69.6428,-0.0611,0.3846,0.3934,0.3875
17:03:58:067,-0.845,4.2707,6.1987,67.4604,-0.0677,0.4136,0.4065,0.3877
17:03:58:086,-0.8546,4.5676,6.4022,69.2449,0.0122,0.4354,0.3825,0.3879
17:03:58:106,-1.3071,5.032,6.3843,69.6579,0.1296,0.4671,0.3638,0.3879
17:03:58:129,-1.1922,5.5671,5.8947,68.6415,0.2031,0.4099,0.431,0.3882
17:03:58:146,-0.1376,6.3022,5.4972,68.663,0.1453,0.2842,0.4648,0.3895
17:03:58:167,0.4406,6.9426,6.1125,68.1277,-0.0195,0.1776,0.3753,0.3917
17:03:58:187,-0.1232,7.0659,7.5383,68.6745,-0.1135,0.098,0.2323,0.3942
17:03:58:207,-1.5849,6.9246,8.1225,69.5654,-0.0526,0.0756,0.114,0.3954
17:03:58:225,-3.1351,6.8432,8.2386,69.2922,-0.0683,0.0892,0.1857,0.395
17:03:58:247,-2.9208,7.0719,8.4768,69.2923,-0.2353,0.0378,0.3862,0.3945
17:03:58:266,-2.3498,7.1042,8.6444,67.8984,-0.5128,-0.069,0.4147,0.3943
17:03:58:287,-2.4839,6.5428,9.8235,67.1663,-0.859,-0.2735,0.3183,0.3935
17:03:58:309,-2.4958,5.7575,12.1268,67.7601,-0.9636,-0.6754,0.1998,0.3909
17:03:58:326,-2.0469,5.4809,13.5417,67.7851,-0.627,-1.0408,0.0461,0.3851
17:03:58:346,-1.3323,5.5444,13.0641,68.5852,-0.1087,-0.9574,-0.0929,0.3772
17:03:58:367,-0.5182,5.6162,11.7772,67.2844,0.23,-0.5984,-0.0974,0.3698
17:03:58:386,0.5316,5.8784,11.0853,67.149,0.3632,-0.1915,-0.1142,0.3665
17:03:58:405,0.8644,5.8401,9.8918,66.8713,0.4108,0.122,-0.278,0.3672
17:03:58:433,0.461,5.384,8.4026,67.3787,0.2244,0.1827,-0.4948,0.3701
17:03:58:446,-0.6056,4.4909,8.4505,66.8895,-0.207,0.0037,-0.6788,0.3735
17:03:58:467,-1.6758,3.2184,10.1156,66.3668,-0.554,-0.3273,-0.7874,0.3763
17:03:58:487,-2.1762,2.4068,11.8837,66.0013,-0.4747,-0.6072,-0.858,0.3739
17:03:58:508,-2.2756,2.2464,11.6288,65.4057,0.0532,-0.5651,-0.9044,0.3679
17:03:58:528,-1.8183,3.0029,8.982,65.7168,0.6369,-0.3161,-0.8996,0.3626
17:03:58:546,-1.1527,3.6769,5.751,66.0591,0.8748,-0.069,-0.8895,0.3619
17:03:58:566,-0.6966,4.1055,3.6429,66.0475,0.6828,-0.0802,-0.8849,0.3666
17:03:58:586,-1.0881,4.0432,3.9194,65.0986,0.3195,-0.3209,-0.9121,0.3733
17:03:58:609,-2.7077,3.5392,5.8073,66.509,0.1296,-0.6519,-0.8649,0.3785
17:03:58:631,-2.9843,3.5967,6.4238,65.6647,0.168,-0.5707,-0.6876,0.3798
17:03:58:648,-2.618,3.8744,6.4884,65.3041,0.1986,-0.4535,-0.5291,0.3798
17:03:58:666,-2.503,4.1138,6.3531,66.4189,0.1392,-0.4629,-0.454,0.3794
17:03:58:685,-2.8143,4.1007,6.893,65.3186,-0.0238,-0.5388,-0.3683,0.3796
17:03:58:708,-2.9328,3.9044,8.1009,66.3728,-0.1495,-0.53,-0.2519,0.3803
17:03:58:732,-2.6634,4.0911,8.7377,65.7917,-0.104,-0.4368,-0.176,0.3806
17:03:58:748,-2.3187,4.3221,8.6204,65.4426,-0.0419,-0.2847,-0.1579,0.3793
17:03:58:765,-2.4288,4.3892,8.1332,65.8892,-0.0938,0.0359,-0.2032,0.377
17:03:58:786,-2.4037,4.3832,8.0135,66.3993,-0.2675,0.367,-0.2937,0.3754
17:03:58:807,-2.8526,4.3269,8.326,66.3598,-0.3942,0.535,-0.4894,0.3745
17:03:58:826,-3.6439,4.1857,8.3834,66.6881,-0.4334,0.7188,-0.6892,0.3735
17:03:58:847,-5.4539,3.7858,8.2422,66.6323,-0.4704,1.0544,-0.7709,0.3713
17:03:58:866,-6.7958,3.1789,7.998,66.6346,-0.5562,1.297,-0.6452,0.3681
17:03:58:886,-6.8425,2.402,8.4445,67.8256,-0.6632,1.3018,-0.5004,0.3644
17:03:58:905,-6.4032,1.5281,8.5833,65.9897,-0.6259,1.1281,-0.4745,0.3606
17:03:58:928,-5.6478,1.1019,7.5502,66.9023,-0.5745,0.9579,-0.5502,0.3543
17:03:58:947,-5.5413,0.7584,6.5363,66.3657,-0.758,0.7942,-0.6223,0.3493
17:03:58:966,-5.5233,0.3106,7.2593,64.6143,-1.0712,0.6354,-0.6641,0.3446
17:03:58:984,-6.3385,-0.0772,7.9644,66.7427,-1.169,0.6005,-0.7395,0.3393
17:03:59:006,-7.0855,-0.0724,7.8531,66.1627,-1.1724,0.7068,-0.6996,0.3306
17:03:59:025,-6.3888,0.2795,7.1336,66.6388,-1.1836,0.5926,-0.5986,0.3196
17:03:59:046,-6.6474,0.7356,6.3208,65.4912,-1.3221,0.3329,-0.5984,0.3089
17:03:59:066,-7.3956,1.0768,7.0163,66.0666,-1.5892,-0.0258,-0.4442,0.2978
17:03:59:086,-7.5261,1.1809,8.2098,63.4649,-1.6875,-0.3324,-0.1584,0.2859
17:03:59:106,-6.3002,1.5209,9.2717,66.9982,-1.6004,-0.5017,0.1857,0.2722
17:03:59:125,-5.1103,2.1291,10.0294,66.1001,-1.2981,-0.4876,0.4011,0.2558
17:03:59:146,-4.7835,2.5935,9.8247,65.1959,-0.9096,-0.3132,0.5636,0.2397
17:03:59:165,-4.6841,3.0125,8.9951,65.5756,-0.6262,-0.0474,0.7564,0.226
17:03:59:199,-4.7165,3.3561,8.4145,66.0187,-0.5317,0.1555,0.9591,0.2168
17:03:59:204,-4.404,3.1873,8.3379,66.193,-0.5319,0.1068,1.1167,0.2111
17:03:59:225,-4.1383,3.0987,8.7761,65.0999,-0.5034,-0.0645,1.1766,0.2093
17:03:59:250,-3.3925,3.04,9.1819,64.7537,-0.4262,-0.2341,1.1764,0.2068
17:03:59:267,-2.9483,2.9646,9.8882,64.0652,-0.3367,-0.3175,1.0701,0.2045
17:03:59:287,-2.9148,2.9048,10.7656,64.5303,-0.1769,-0.2847,0.9426,0.2014
17:03:59:306,-2.8526,2.9969,11.1595,63.7821,0.0558,-0.1302,0.8251,0.2001
17:03:59:326,-2.4384,3.2651,11.4217,64.4482,0.2915,0.0163,0.721,0.1995
17:03:59:347,-1.8099,3.3812,11.363,64.5873,0.4966,0.0961,0.5409,0.2007
17:03:59:366,-2.1403,3.2759,11.2804,65.3552,0.6124,0.1134,0.2954,0.204
17:03:59:385,-3.4631,3.0401,11.1308,64.4505,0.6244,0.172,0.1239,0.2089
17:03:59:405,-4.5992,2.9706,11.1607,63.8446,0.5006,0.2184,0.1204,0.2153
17:03:59:432,-3.9922,2.7108,11.9699,65.5299,0.3941,-0.1105,0.2142,0.2217
17:03:59:448,-2.0086,2.8258,12.3338,65.9897,0.483,-0.6562,0.1553,0.2272
17:03:59:466,-0.3291,3.3645,12.2105,64.8602,0.6154,-0.8562,-0.0346,0.2317
17:03:59:486,0.1869,3.805,12.1411,64.2796,0.6894,-0.734,-0.2756,0.2359
17:03:59:506,-0.5817,4.0348,11.6048,64.8557,0.6625,-0.42,-0.4918,0.2407
17:03:59:531,-2.6251,3.4878,11.8047,64.9424,0.3853,-0.1079,-0.551,0.2463
17:03:59:546,-3.3458,2.1733,13.4077,64.2415,0.1181,-0.1417,-0.4372,0.2519
17:03:59:566,-2.5222,1.0337,14.3629,64.5887,0.1536,-0.4093,-0.4367,0.256
17:03:59:586,-1.7213,0.4842,14.1415,65.2307,0.4218,-0.6256,-0.6348,0.257
17:03:59:610,-2.0601,0.41,12.7911,65.6108,0.8188,-0.5262,-0.8663,0.257
17:03:59:631,-2.9088,0.4483,10.0869,64.0446,1.1965,-0.2815,-0.931,0.2581
17:03:59:646,-3.2129,0.7428,7.5706,65.2307,1.3648,-0.1481,-0.8578,0.2619
17:03:59:665,-2.8717,0.9056,6.1688,64.1475,1.3957,-0.2075,-0.7848,0.2696
17:03:59:684,-2.8203,0.7763,5.6289,64.6773,1.3882,-0.396,-0.8048,0.2801
17:03:59:705,-3.274,0.7093,5.4433,65.6658,1.4271,-0.5484,-0.8293,0.2966
17:03:59:728,-3.2991,0.9571,5.1668,65.1583,1.5155,-0.4852,-0.7704,0.3076
17:03:59:747,-2.9232,1.4419,4.5826,65.0213,1.585,-0.2783,-0.6945,0.3187
17:03:59:766,-3.0214,1.8106,3.9637,65.5739,1.543,-0.0405,-0.6508,0.33
17:03:59:784,-3.6223,2.3816,3.7219,67.3274,1.3645,0.1318,-0.5728,0.3429
17:03:59:805,-4.3107,2.9742,3.7806,68.6121,1.0705,0.1364,-0.4719,0.3558
17:03:59:831,-5.1426,3.4495,4.4138,65.9139,0.6649,-0.0439,-0.3667,0.3669
17:03:59:848,-5.8537,3.5261,5.9006,66.0939,0.2465,-0.2964,-0.1949,0.376
17:03:59:868,-5.2204,3.6901,8.205,66.0258,-0.1687,-0.432,0.2384,0.3825
17:03:59:885,-4.6015,4.0241,8.5378,68.4338,-0.3146,-0.4115,0.3076,0.3815
17:03:59:905,-4.5213,3.7439,9.1412,68.7034,-0.5029,-0.4362,0.3074,0.3796
17:03:59:927,-4.2723,3.6829,9.5278,68.1551,-0.6126,-0.3715,0.2959,0.3764
17:03:59:947,-4.2664,3.6482,9.6128,68.1047,-0.7066,-0.1968,0.2618,0.3717
17:03:59:968,-4.4639,3.1921,10.2497,68.2545,-0.8214,-0.1337,0.2379,0.3659
17:03:59:987,-4.8781,2.9574,11.2505,70.6163,-0.7809,-0.0993,0.1867,0.3595
17:04:00:006,-5.7077,3.1119,11.6204,69.5469,-0.566,0.0655,0.1801,0.3525
17:04:00:036,-6.3338,2.9491,10.8746,69.3505,-0.3253,0.2706,0.2906,0.3525
17:04:00:050,-6.1338,3.0269,9.2477,70.0717,-0.2203,0.4397,0.4403,0.3455
17:04:00:063,-6.0536,2.9096,7.8387,68.6601,-0.395,0.5444,0.5359,0.3407
17:04:00:083,-6.1207,2.1733,7.6592,69.6472,-0.7748,0.4892,0.5937,0.3386
