Time,Acc_X,Acc_Y,Acc_Z,Meg,Gyr_X,Gyr_Y,Gyr_Z,Ore
16:46:12:613,-1.215,6.3835,7.9644,75.0348,-0.1535,0.1409,0.4195,-0.2864
16:46:12:633,-0.3303,5.1026,7.1396,75.6158,-0.1594,0.3918,0.4326,0.2903
16:46:12:653,0.5771,7.2155,7.3623,74.3342,-0.2837,0.5089,0.2978,0.2903
16:46:12:672,-0.4308,5.9358,7.6005,75.9726,-0.3183,0.3209,0.0981,0.3325
16:46:12:697,-1.3957,5.8891,8.4481,73.9441,-0.3604,0.4168,0.0637,0.3305
16:46:12:719,-1.5142,6.1992,8.5331,74.1891,-0.2038,0.3321,0.1844,0.3278
16:46:12:732,-0.9899,5.7994,7.7023,74.8046,-0.1,0.2626,0.3447,0.3247
16:46:12:752,-0.2752,5.9191,6.7793,75.8874,-0.1721,0.4234,0.3673,0.3231
16:46:12:773,0.0899,6.1884,6.5219,74.9249,-0.3511,0.3507,0.2432,0.3231
16:46:12:792,-0.0107,6.2076,7.3647,75.5161,-0.4739,0.1553,0.0954,0.3226
16:46:12:812,-0.4883,5.5755,8.3535,76.2428,-0.4219,0.0303,-0.0098,0.3184
16:46:12:831,-0.9097,5.6174,8.7593,75.0166,-0.2235,0.0048,-0.0101,0.3143
16:46:12:851,-1.1671,5.8042,7.9333,74.8991,-0.0677,0.0735,0.0658,0.3143
16:46:12:872,-0.9528,5.8616,7.2857,74.4492,-0.125,0.0929,0.1287,0.3103
16:46:12:895,-0.7014,5.858,7.5873,74.9668,-0.2829,-0.0807,0.0909,0.3082
16:46:12:914,-0.9576,5.9502,8.2278,74.3297,-0.3402,-0.2919,0.0115,0.3066
16:46:12:931,-1.8255,6.1872,8.2158,74.6729,-0.3194,-0.3009,0.0448,0.3022
16:46:12:950,-2.2995,6.4003,7.9261,75.3082,-0.3372,-0.139,0.2179,0.3022
16:46:12:971,-2.2157,6.4566,8.5151,75.6051,-0.4502,0.1481,0.3638,0.2975
16:46:12:991,-1.768,5.7599,9.1364,75.1478,-0.4092,0.4032,0.4195,0.296
16:46:13:014,-1.5298,5.0153,9.5075,76.0348,-0.2627,0.9151,0.4919,0.2902
16:46:13:033,-0.0897,5.3876,8.9532,74.9336,0.0641,0.9633,0.6557,0.2885
16:46:13:051,0.3317,5.2523,7.962,74.6503,0.1488,0.9185,0.5135,0.2856
16:46:13:071,-0.4452,5.4977,7.9453,73.5043,0.0835,1.0711,0.2664,0.285
16:46:13:090,-1.3993,5.5025,8.2027,75.6622,0.099,0.8187,0.2067,0.2863
16:46:13:111,-0.7493,5.0919,8.7282,74.776,0.0958,0.8474,0.2054,0.2881
16:46:13:133,-0.3614,5.062,9.365,76.2624,0.172,1.2924,0.0171,0.2894
16:46:13:152,-0.8893,5.2631,9.4105,74.878,0.381,1.6157,-0.0095,0.2906
16:46:13:172,-1.7788,5.3085,8.7988,75.2552,0.5751,1.1169,0.089,0.2917
16:46:13:191,-1.8494,5.9454,9.3686,74.3022,0.6838,0.4165,0.1425,0.2935
16:46:13:211,-2.5258,6.0675,7.2917,75.8249,0.9821,1.0346,0.383,0.2971
16:46:13:233,-1.8865,6.3476,6.0383,73.5183,0.8132,1.657,0.5676,0.3026
16:46:13:251,-1.8422,6.3836,5.2422,74.4973,0.3749,1.3763,0.6038,0.3089
16:46:13:270,-1.0593,6.623,4.7239,73.5656,-0.0685,0.8831,0.505,0.3185
16:46:13:290,-1.4699,6.3189,4.8855,74.1515,-0.4552,0.3545,0.265,0.3268
16:46:13:312,-2.2097,6.4973,5.4828,75.2455,-0.8156,0.1598,0.2448,0.3307
16:46:13:332,-2.0757,5.8365,7.4209,74.2606,-1.0347,0.7308,0.2421,0.3306
16:46:13:353,-1.2233,5.1661,7.9477,74.8521,-0.9626,1.2312,0.207,0.3267
16:46:13:373,0.7794,4.3628,8.126,73.6876,-0.7298,1.0621,-0.1547,0.3199
16:46:13:391,-1.5717,5.694,6.8846,74.4277,-0.4962,0.7276,-0.8191,0.3056
16:46:13:411,-3.3709,5.6294,7.1971,72.8188,-0.4856,0.1515,-0.9661,0.2971
16:46:13:431,-4.7512,5.0643,7.8196,74.7519,-0.5375,0.2935,-0.7251,0.2902
16:46:13:451,-3.772,4.868,7.8675,74.3882,-0.5426,0.4434,-0.3041,0.2837
16:46:13:472,-1.9033,4.6956,9.7565,74.4466,-0.4246,-0.0258,-0.3371,0.2769
16:46:13:500,-2.7628,4.637,10.3862,72.2513,0.054,-0.5033,-0.7147,0.2709
16:46:13:513,-4.9284,4.6597,9.6703,74.816,0.4636,-0.4655,-0.7504,0.2653
16:46:13:532,-5.4922,4.8034,8.8072,74.1365,0.6894,0.2474,-0.3914,0.2623
16:46:13:552,-4.4196,4.8213,7.3563,74.6062,0.923,1.0003,0.0504,0.2635
16:46:13:571,-3.1243,4.8537,4.6832,73.2559,1.0529,1.6847,0.3263,0.2675
16:46:13:591,-1.1802,5.9729,1.7994,73.6924,0.9533,2.3353,0.5521,0.2746
16:46:13:612,0.7363,6.6038,0.4383,74.6932,0.7027,3.101,0.6714,0.2842
16:46:13:631,1.8042,6.5559,-0.28,75.5321,0.4487,4.2949,0.5897,0.2938
16:46:13:652,1.9167,5.9622,-0.9205,75.4371,0.2372,5.3125,0.452,0.3021
16:46:13:672,0.9829,3.8361,-1.6998,76.2498,0.0071,5.9972,0.281,0.3073
16:46:13:692,-0.462,1.9818,-1.5322,77.6376,-0.145,6.6041,0.1108,0.3087
16:46:13:712,-1.1144,2.1027,-0.7816,76.8723,0.0162,7.3602,0.2858,0.3064
16:46:13:732,0.23,1.825,-0.7146,77.6727,0.4745,7.8891,0.4603,0.2996
16:46:13:752,1.3768,0.4483,-1.9248,78.0026,1.0604,8.5687,0.22,0.2905
16:46:13:772,-0.2465,-0.1837,-3.3697,78.6952,1.6481,8.8041,-0.3033,0.2833
16:46:13:792,-4.8086,-0.7787,-3.7205,78.5555,2.495,8.316,-0.7502,0.277
16:46:13:814,-7.4291,-2.736,-5.2001,80.5099,3.4937,7.6137,-0.3752,0.265
16:46:13:831,-5.0337,-4.7088,-8.1318,79.459,4.082,7.2379,0.1931,0.2572
16:46:13:850,-0.9432,-4.9937,-10.8001,81.6301,4.4527,6.6614,0.1577,0.2574
16:46:13:870,2.21,-4.3245,-13.5666,81.8045,4.7675,5.835,-0.5787,0.2641
16:46:13:891,2.1489,-5.026,-15.6448,82.3107,4.9936,4.8914,-1.7137,0.2709
16:46:13:911,-0.8714,-8.3863,-17.5087,82.8937,5.2288,4.652,-2.4642,0.2723
16:46:13:931,-7.5081,-12.2398,-19.5126,83.2389,5.1574,4.4395,-2.8538,0.2637
16:46:13:950,-10.508,-9.7929,-19.029,83.8984,4.8322,2.9769,-3.1795,0.2485
16:46:13:969,-9.0356,-7.7279,-18.3191,83.5206,4.559,1.9026,-3.1566,0.2273
16:46:13:990,-6.9922,-7.2383,-18.5262,84.905,4.4019,2.7135,-2.6455,0.2015
16:46:14:013,-5.4635,-5.0823,-19.6946,84.8411,4.2671,3.9204,-1.7771,0.1761
16:46:14:029,-5.0995,-1.9794,-22.3809,84.9881,3.7816,3.8842,-1.1102,0.1544
16:46:14:050,-4.4651,-0.4854,-23.3051,86.9028,2.5864,2.8642,-0.7797,-0.1419
16:46:14:070,-3.0585,-0.5465,-19.9196,86.2617,1.4173,2.1231,-0.4737,-0.1356
16:46:14:091,-2.7437,-0.0353,-16.9951,86.6958,0.7429,1.841,-0.1235,-0.1315
16:46:14:111,-1.1587,0.9846,-16.5893,86.2905,0.3509,1.1212,0.0914,-0.1296
16:46:14:131,0.9937,1.8932,-16.3583,86.0138,0.0436,0.4605,-0.0106,-0.1314
16:46:14:151,-0.2848,3.6314,-18.446,85.7341,-0.6382,-1.4168,-0.519,-0.1349
16:46:14:169,1.0655,3.3381,-19.7126,86.4058,-1.0608,-2.3945,-0.6471,-0.1323
16:46:14:192,1.6294,3.2328,-21.7297,86.3284,-1.7943,-2.7247,-0.8045,-0.1258
16:46:14:210,0.6118,2.1159,-21.2065,86.4203,-2.8188,-3.4155,-1.1693,-0.1211
16:46:14:232,-1.5849,0.4974,-18.1336,86.4201,-3.5831,-5.1066,-1.7584,-0.1211
16:46:14:251,-4.0246,-0.5979,-15.2258,85.0041,-3.8191,-6.9983,-2.1153,-0.105
16:46:14:270,-5.412,-1.6394,-14.5375,85.4951,-3.7791,-8.1762,-1.9467,-0.09
16:46:14:295,-8.2551,-2.3876,-13.3883,84.7597,-3.6159,-8.6577,-1.4096,-0.0677
16:46:14:314,-10.4314,-2.7946,-10.9282,82.3108,-3.2484,-9.2622,-0.6218,0.0381
16:46:14:330,-11.2562,-4.3437,-9.6449,84.3501,-2.6417,-9.9706,-0.2034,0.0088
16:46:14:349,-11.3388,-3.5919,-7.3932,83.3336,-2.0529,-10.3882,0.0411,-0.0141
16:46:14:368,-10.6577,-2.6462,-6.7839,81.0595,-1.4616,-10.479,0.2709,-0.0299
16:46:14:389,-12.0116,-3.4064,-5.7986,81.1644,-1.0704,-10.6167,0.4333,-0.0396
16:46:14:409,-11.8416,-4.0085,-3.5146,81.7636,-0.9961,-10.5272,0.8611,-0.044
16:46:14:429,-9.7826,-3.9055,-0.2309,81.049,-1.0467,-9.5871,1.399,-0.0432
16:46:14:450,-7.6781,-2.1853,3.1042,78.3875,-0.6355,-8.2769,1.5806,-0.0384
16:46:14:468,-7.38,-1.631,4.0858,78.9504,0.0889,-7.337,1.5047,-0.0295
16:46:14:488,-6.8617,-1.5939,4.166,78.7899,0.7331,-6.7546,1.423,-0.0186
16:46:14:509,-5.5018,-1.0253,4.4019,77.7296,1.3136,-6.4206,1.2515,-0.0041
16:46:14:531,-4.2472,-0.9212,5.0411,77.1141,1.8556,-5.9916,0.8946,0.0148
16:46:14:548,-3.5672,-0.8374,4.1541,77.1071,2.2732,-5.2419,0.4166,0.0368
16:46:14:569,-2.685,0.1814,2.6433,77.7912,2.2695,-4.5407,0.1004,0.0637
16:46:14:599,-2.2959,1.3857,2.6493,77.3351,2.0852,-3.8182,-0.1283,0.0933
16:46:14:614,-3.104,1.4036,2.9067,76.8659,1.9925,-3.1652,-0.2444,0.1222
16:46:14:629,-2.9675,1.7819,3.4202,75.5623,1.9424,-2.5092,-0.0458,0.1503
16:46:14:651,-1.2078,2.4044,4.6664,76.6214,2.0625,-2.1249,0.1905,0.1749
16:46:14:669,-1.0342,3.386,4.8077,76.7151,2.294,-1.8259,0.1615,0.1973
16:46:14:690,-1.3873,4.5795,3.8608,77.3297,2.3696,-1.812,-0.0442,0.2174
16:46:14:711,-1.3107,5.4474,4.6317,77.2724,2.2828,-1.9303,-0.2599,0.2513
16:46:14:730,-1.6004,5.7359,4.6125,77.4185,1.9984,-1.547,-0.4689,0.2743
16:46:14:750,-2.5916,6.3488,4.5084,77.0745,1.6156,-0.7436,-0.4412,0.298
16:46:14:770,-3.1375,7.121,3.9541,76.2832,0.923,0.4772,-0.2503,0.3194
16:46:14:790,-2.5629,7.1796,5.1812,76.5674,0.4196,0.6298,0.0038,0.337
16:46:14:812,-1.8434,7.0587,5.6397,76.5325,0.108,-0.236,0.0469,0.3482
16:46:14:829,-1.3622,6.8923,7.2665,77.231,-0.1817,-0.8637,0.0203,0.3535
16:46:14:849,-0.9576,7.2012,7.5036,76.6669,-0.0677,-1.0828,-0.0362,0.3559
16:46:14:870,-0.8941,7.5411,6.1221,76.9297,-0.0012,-0.5337,-0.0101,0.3555
16:46:14:891,-0.5254,7.5962,5.8001,78.6246,-0.1724,0.0714,0.0816,0.3546
16:46:14:912,-0.2896,7.4873,6.2382,78.3199,-0.3471,0.2269,0.0818,0.355
16:46:14:930,-0.2704,7.3712,6.7015,76.6042,-0.4542,0.1513,0.0397,0.3546
16:46:14:949,-0.5817,7.3376,6.7685,76.8292,-0.5056,0.0914,0.0235,0.352
16:46:14:970,-0.7984,7.1329,6.7853,75.5138,-0.5527,0.0863,0.0605,0.3481
16:46:14:990,-0.9636,6.7762,7.8531,76.6066,-0.598,0.2485,0.1356,0.3436
16:46:15:012,-0.7182,6.4314,8.6264,76.513,-0.496,0.4679,0.1875,0.3389
16:46:15:031,-0.1543,6.787,8.0901,76.1581,-0.2877,0.4213,0.1457,0.3334
16:46:15:050,0.643,7.1006,6.9696,75.2143,-0.2581,0.4099,0.0123,0.3279
16:46:15:070,0.5041,6.7511,7.2809,76.4244,-0.4385,0.5537,-0.1898,0.3243
16:46:15:090,-0.5829,5.6605,7.6819,76.2285,-0.5484,0.6423,-0.2892,0.322
16:46:15:112,-0.851,5.4187,7.8507,74.9933,-0.5929,0.6461,-0.1912,0.3184
16:46:15:132,-0.3818,5.0811,9.5925,76.5919,-0.6933,0.5409,-0.1038,0.3103
16:46:15:150,0.6813,4.71,11.4588,76.5919,-0.4731,0.2178,-0.1012,0.3041
16:46:15:171,1.2918,5.1362,10.5933,75.5987,0.119,-0.077,-0.2652,0.2971
16:46:15:191,0.9937,5.4857,7.9872,75.2069,0.5267,-0.2115,-0.3584,0.2926
16:46:15:216,-0.2321,4.8477,6.4477,75.5198,0.5546,-0.0727,-0.2612,0.2935
16:46:15:230,0.6394,5.9622,7.166,74.5565,0.5147,-0.0322,0.0485,0.2983
16:46:15:250,1.4319,6.2579,7.0558,76.7026,0.5352,-0.0852,0.085,0.303
16:46:15:271,1.3265,6.2004,6.8571,74.7921,0.4926,-0.2139,0.0541,0.308
16:46:15:291,1.2702,6.1896,6.6596,75.0547,0.4361,-0.3747,0.0102,0.3132
16:46:15:313,1.2176,6.1058,7.2569,75.5688,0.3405,-0.3944,-0.0383,0.3179
16:46:15:332,1.0583,6.1585,7.7657,74.7796,0.3067,-0.1334,-0.1006,0.322
16:46:15:350,0.4323,6.2483,7.9716,74.1846,0.3552,0.1912,-0.1363,0.3254
16:46:15:371,-0.45,6.4171,7.5718,74.8546,0.3352,0.6772,-0.083,0.3282
16:46:15:392,-0.371,6.362,7.2773,75.1446,0.2724,0.9121,-0.0087,0.3312
16:46:15:411,0.2,6.6709,7.4233,74.8275,0.3472,0.8461,-0.0367,0.3339
16:46:15:430,-0.1531,6.5284,6.9397,74.8356,0.4958,0.7715,-0.1054,0.335
16:46:15:451,-0.3686,6.9761,6.0395,74.9504,0.5533,0.7705,-0.1073,0.3372
16:46:15:471,0.0336,7.2897,5.52,73.4307,0.5775,0.6874,-0.1616,0.3405
16:46:15:491,-0.3111,7.419,5.0327,74.1441,0.5989,0.4416,-0.3169,0.345
16:46:15:514,-0.4656,7.3029,4.7562,74.2394,0.5853,0.1984,-0.4492,0.3496
16:46:15:534,-0.4823,7.5459,4.3312,74.4008,0.5658,0.0208,-0.515,0.3542
16:46:15:550,-0.6212,7.6058,3.7255,74.9937,0.43,0.0181,-0.5526,0.3612
16:46:15:571,-0.8977,7.103,3.3005,73.6933,0.0484,0.1369,-0.5946,0.3657
16:46:15:591,-1.112,7.1916,4.3468,74.6052,-0.447,0.1017,-0.6626,0.3686
16:46:15:618,-1.8997,7.3783,5.3667,72.76,-0.8486,-0.4594,-0.8298,0.3681
16:46:15:633,-2.4587,7.0611,6.0826,73.7161,-0.8305,-0.6344,-0.8263,0.3629
16:46:15:651,-2.6263,6.6074,6.4345,72.7009,-0.7769,-0.6631,-0.6117,0.355
16:46:15:670,-2.2193,6.8109,6.8308,72.4001,-0.6672,-0.5159,-0.3443,0.3459
16:46:15:690,-1.5681,6.9139,6.9493,74.1707,-0.5279,-0.2541,-0.1576,0.337
16:46:15:709,-0.9899,7.0312,6.8116,71.1336,-0.4084,-0.0155,-0.1435,0.3289
16:46:15:730,-1.1228,7.267,6.2454,72.6018,-0.2661,-0.0677,-0.2583,0.3225
16:46:15:751,-2.2385,7.0982,5.5511,71.0453,-0.2531,-0.2192,-0.3406,0.3173
16:46:15:770,-3.6415,6.289,5.1967,74.2653,-0.607,0.0445,-0.1661,0.3133
16:46:15:791,-3.5732,6.0268,6.6704,70.1595,-1.2062,0.5505,0.1796,0.3106
16:46:15:812,-2.7592,6.2662,8.9293,73.093,-1.2081,0.5798,0.3103,0.3077
16:46:15:831,-2.4264,5.5181,8.2326,71.9023,-0.9458,0.5356,0.1931,0.3018
16:46:15:851,-3.3829,4.7794,7.9896,72.6537,-0.9644,0.5422,-0.0109,0.2913
16:46:15:870,-4.9331,3.8577,8.4948,72.5359,-1.0291,0.4884,-0.1195,0.2803
16:46:15:889,-5.8896,3.3094,8.9042,71.9686,-1.0302,0.339,-0.0796,0.2717
16:46:15:910,-5.2444,3.07,9.2465,69.9672,-1.0222,0.0304,0.0222,0.2625
16:46:15:931,-4.0832,3.0317,9.9001,71.6759,-0.9615,-0.2237,-0.0122,0.2529
16:46:15:950,-4.4663,3.0341,9.7062,70.494,-0.7855,-0.2256,-0.1193,0.243
16:46:15:971,-5.315,3.1921,8.6611,70.9069,-0.6342,-0.0306,-0.0785,0.2332
16:46:15:989,-5.1833,3.2567,7.9836,72.1955,-0.6401,0.1848,0.1077,0.2245
16:46:16:010,-4.4519,3.4004,8.0135,69.625,-0.6938,0.175,0.1734,0.2168
16:46:16:030,-4.1598,3.5536,7.9824,69.5927,-0.7026,-0.0011,0.0903,0.2106
16:46:16:051,-4.6542,3.5596,8.0147,71.7443,-0.6877,-0.0732,0.0491,0.2049
16:46:16:071,-4.9643,3.6326,8.0578,70.4061,-0.5977,0.0157,0.1817,0.1951
16:46:16:090,-4.5513,3.6003,7.4257,69.2638,-0.4512,0.1209,0.4142,0.1885
16:46:16:110,-3.2656,3.5153,6.7613,69.7623,-0.3996,0.1462,0.5958,0.1827
16:46:16:130,-1.8961,3.6075,6.5722,69.6088,-0.4084,0.2248,0.6467,0.178
16:46:16:150,-0.9312,3.7415,6.2203,68.9662,-0.4307,0.3382,0.5527,0.1749
16:46:16:171,-1.0294,3.9139,6.0515,69.5321,-0.5269,0.3694,0.3615,0.1722
16:46:16:191,-1.7465,3.8481,6.3795,69.183,-0.6624,0.3302,0.2088,0.1691
16:46:16:219,-2.582,3.7739,7.3802,69.9097,-0.7527,0.2392,0.1553,0.1652
16:46:16:232,-2.8586,3.8182,8.3415,69.4624,-0.7197,0.1518,0.1721,0.1597
16:46:16:253,-2.9591,3.878,8.9149,67.6927,-0.6001,0.3004,0.2009,0.1531
16:46:16:271,-3.1375,3.8888,9.1496,68.0155,-0.4819,0.5044,0.2288,0.1461
16:46:16:291,-3.5134,3.8409,8.9149,67.5941,-0.4179,0.5121,0.244,0.1398
16:46:16:319,-3.7408,3.6673,8.9377,68.3044,-0.5082,0.269,0.2848,0.1349
16:46:16:331,-3.4068,3.6326,10.0438,67.3559,-0.6832,-0.0716,0.3974,0.1307
16:46:16:351,-2.4659,3.319,11.4205,69.0521,-0.7767,-0.3995,0.5196,0.1266
16:46:16:369,-1.0019,3.3393,12.76,67.3024,-0.7841,-0.5633,0.5114,0.1217
16:46:16:389,0.1234,3.6482,13.987,67.7585,-0.6755,-0.5127,0.3127,0.1156
16:46:16:411,-0.0023,4.2443,14.4803,67.2816,-0.4238,-0.2964,-0.0122,0.1093
16:46:16:431,-1.6411,4.1462,14.4108,66.9947,-0.1024,-0.3073,-0.2463,0.1034
16:46:16:450,-2.4192,4.0408,13.8829,66.2741,0.165,-0.6149,-0.2335,0.0988
16:46:16:471,-2.418,3.5392,13.1539,64.716,0.2553,-0.6911,-0.0306,0.0963
16:46:16:490,-1.3646,2.7132,13.2257,65.7088,0.2183,-0.4487,0.2816,0.0967
16:46:16:509,0.2204,2.1685,13.1539,65.8818,0.2822,-0.3361,0.4501,0.1009
16:46:16:531,0.5771,1.7256,12.3422,66.1457,0.4489,-0.3774,0.362,0.1038
16:46:16:550,-0.1196,1.4395,11.2624,65.9071,0.5757,-0.4575,0.2405,0.1076
16:46:16:570,-0.4392,1.0385,9.4955,63.5442,0.564,-0.4061,0.2312,0.1126
16:46:16:590,-0.4021,0.7751,8.624,63.3946,0.2457,-0.4125,0.2248,0.1191
16:46:16:626,-0.1412,1.0529,8.7545,62.3489,-0.0638,-0.4796,0.1875,0.1253
16:46:16:639,0.3425,1.2528,9.0191,62.3886,-0.1921,-0.8067,0.0751,0.1283
16:46:16:649,-0.4512,2.0524,9.8176,62.5542,-0.1127,-0.9659,-0.1174,0.1284
16:46:16:669,-0.5302,1.916,9.4871,61.6674,0.2143,-0.5614,-0.1139,0.128
16:46:16:690,0.4754,1.4359,7.6664,61.3749,0.5445,-0.4557,-0.0929,0.1272
16:46:16:711,1.4247,1.4826,6.6141,61.4751,0.6556,-0.3579,-0.2878,0.1281
16:46:16:733,1.9993,1.6634,5.9114,62.4313,0.6154,-0.4157,-0.6673,0.1324
16:46:16:750,1.694,1.4874,5.7713,61.6677,0.3464,-0.6421,-1.0828,0.1388
16:46:16:770,-0.1256,2.001,6.5518,61.0825,0.0372,-0.7414,-1.4594,0.1448
16:46:16:790,-2.187,2.9838,7.8531,59.1543,0.01,-1.2536,-1.7363,0.1494
16:46:16:818,-4.1263,3.1406,7.9644,60.0975,0.022,-1.6418,-1.6652,0.1504
16:46:16:831,-4.908,3.4064,8.6324,60.9693,-0.1639,-1.5106,-1.0791,0.1495
16:46:16:850,-3.8258,3.7679,9.6595,59.0142,-0.1484,-0.8773,-0.3536,0.1489
16:46:16:870,-2.1978,4.3269,9.9839,59.6978,-0.0664,-0.1246,0.0429,0.147
16:46:16:891,-1.9811,3.7332,11.0266,59.4533,-0.0502,0.3417,0.1825,0.1455
16:46:16:910,-1.1443,3.6553,11.6443,58.694,0.1043,0.3931,0.1774,0.1448
16:46:16:931,-1.4747,3.1897,10.64,56.9584,0.2526,0.4123,0.0179,0.1444
16:46:16:952,-1.379,3.0819,10.0151,58.103,0.2902,0.3515,0.0688,0.1478
16:46:16:973,-0.9037,3.7655,10.9775,57.6388,0.2801,0.7995,0.3596,0.1507
16:46:16:990,-1.282,3.817,10.9823,56.5312,0.3014,1.2112,0.4866,0.1507
16:46:17:011,-1.7117,3.2986,10.7381,57.1353,0.1925,1.3777,0.5492,0.1534
16:46:17:033,-2.1726,2.7539,10.3503,57.8669,0.0409,1.2104,0.5234,0.1561
16:46:17:050,-3.6463,2.3421,10.446,55.1478,0.0335,0.8328,0.4451,0.1592
16:46:17:070,-5.7962,2.1339,10.8375,56.1663,0.2138,0.1443,0.448,0.1611
16:46:17:088,-5.9543,2.2045,11.3403,56.4214,0.5075,-0.6152,0.5806,0.1615
16:46:17:107,-5.0181,2.2763,10.7728,56.6964,0.7512,-0.8291,0.6419,0.1619
16:46:17:132,-4.3849,2.7491,8.9353,55.5381,0.557,-0.228,0.6168,0.1644
16:46:17:148,-3.772,3.4231,9.0107,54.3555,0.1834,0.3007,0.5945,0.1703
16:46:17:169,-3.2081,3.1203,9.1568,55.3546,0.0974,0.5196,0.4752,0.1784
16:46:17:189,-3.3135,3.1322,8.3894,54.8287,0.1634,0.6762,0.2698,0.1845
16:46:17:209,-3.4631,3.0305,6.9768,54.4663,0.1941,0.7033,0.2184,0.1866
16:46:17:230,-2.94,2.8545,6.2167,53.8346,0.0415,0.6205,0.3066,0.1876
16:46:17:250,-1.7058,2.7037,6.322,54.0494,-0.1026,0.5566,0.3854,0.189
16:46:17:269,-1.0569,2.6689,6.3759,53.074,-0.1503,0.5691,0.358,0.1905
16:46:17:289,-0.8295,2.8976,5.9509,52.8336,-0.1682,0.5755,0.3428,0.1907
16:46:17:309,-0.5553,2.9958,5.563,53.2422,-0.2283,0.5491,0.3484,0.189
16:46:17:331,-0.1435,3.1382,5.3919,53.2337,-0.3234,0.5505,0.2973,0.1881
16:46:17:349,-0.3722,3.2029,4.992,53.458,-0.4491,0.539,0.1777,0.1854
16:46:17:369,-0.9157,3.4794,5.2099,52.508,-0.6595,0.3377,0.1164,0.1826
16:46:17:388,-1.009,3.702,6.9684,52.0522,-0.8166,0.0629,0.211,0.1787
16:46:17:408,-0.6331,4.0001,8.4911,51.6715,-0.6816,-0.0432,0.3524,0.1734
16:46:17:430,-0.2992,4.2671,8.5714,50.9185,-0.4835,0.0911,0.4408,0.166
16:46:17:454,-0.0179,4.5855,8.6599,51.9142,-0.4464,0.2133,0.4632,0.1589
16:46:17:470,0.2204,4.8537,9.7481,51.2298,-0.4518,0.1909,0.4288,0.1541
16:46:17:490,-0.2908,5.1877,10.306,51.4501,-0.3785,0.2117,0.3431,0.1503
16:46:17:513,-0.8295,5.2044,10.0701,50.3862,-0.4337,0.1718,0.2927,0.1462
16:46:17:531,-1.4939,4.5891,10.0857,50.758,-0.6733,-0.0506,0.2267,0.1424
16:46:17:550,-1.9978,4.1234,11.3462,50.6809,-0.9636,-0.4325,0.1937,0.139
16:46:17:569,-1.1431,3.5979,13.5022,49.8268,-1.0989,-0.7105,0.1953,0.1342
16:46:17:590,-0.4715,3.1406,15.7157,48.3759,-0.9359,-0.5747,0.1031,0.1268
16:46:17:613,-0.6439,3.0544,17.1857,51.1254,-0.4512,-0.3183,0.0163,0.1181
16:46:17:631,-1.1515,2.7312,16.6865,48.2911,0.2332,-0.0661,0.073,0.1091
16:46:17:651,-1.4017,2.0704,14.2312,48.8061,0.6977,0.1603,0.2653,0.1027
16:46:17:672,-1.1228,1.8872,12.8474,49.0307,0.8095,0.1894,0.4499,0.1019
16:46:17:690,-0.1017,1.6921,11.3618,48.2336,0.7906,0.0658,0.5276,0.107
16:46:17:711,1.0703,1.3318,9.9732,49.6027,0.5653,-0.1169,0.4113,0.1147
16:46:17:731,1.6617,1.0122,9.8319,47.2257,0.2196,-0.3718,0.1156,0.123
16:46:17:751,1.5707,0.9607,10.476,47.0314,0.0034,-0.5143,-0.238,0.1301
16:46:17:770,0.7675,1.1079,10.9907,46.1623,0.0417,-0.4765,-0.5747,0.1346
16:46:17:789,-0.2872,1.1091,10.549,48.7058,0.2958,-0.4109,-0.7624,0.1362
16:46:17:810,-0.705,1.2779,9.1938,47.5096,0.6119,-0.3598,-0.8122,0.1368
16:46:17:830,-0.5146,1.5233,7.3012,47.4745,0.8156,-0.3241,-0.8053,0.1395
16:46:17:850,-0.1795,1.6801,5.8109,47.5809,0.7922,-0.3329,-0.8327,0.1451
16:46:17:868,-0.1387,1.7867,5.3332,46.6483,0.6393,-0.4282,-0.89,0.1523
16:46:17:888,-0.2034,2.0105,5.6744,46.4334,0.5152,-0.4719,-0.9368,0.1595
16:46:17:908,-0.2465,2.0644,5.4302,46.1197,0.4593,-0.3625,-0.94,0.1654
16:46:17:929,-0.4512,1.886,5.0531,46.2324,0.3227,-0.2842,-0.9227,0.1697
16:46:17:950,-0.6044,2.1051,5.5523,46.8488,0.1477,-0.2621,-0.8735,0.1736
16:46:17:969,-1.0078,2.6139,6.6668,45.8938,0.091,-0.2336,-0.8194,0.1761
16:46:17:990,-1.4496,3.1981,7.2366,46.8342,0.1855,-0.1007,-0.6761,0.1767
16:46:18:009,-1.3466,3.7475,7.0331,46.8826,0.2423,-0.02,-0.5052,0.177
16:46:18:030,-1.1072,4.0672,6.656,46.1122,0.1254,-0.085,-0.446,0.1776
16:46:18:049,-1.2173,4.2791,7.0666,46.1122,-0.1016,-0.1736,-0.4745,0.1794
16:46:18:069,-1.7405,4.3305,7.543,45.2172,-0.346,-0.1409,-0.5107,0.1808
16:46:18:088,-2.2516,4.2024,8.1835,44.4283,-0.6478,-0.0099,-0.5382,0.1807
16:46:18:108,-2.5401,4.1785,9.7888,45.3016,-0.942,0.0384,-0.5731,0.1781
16:46:18:130,-2.7305,4.2659,12.1603,43.9386,-1.0177,-0.036,-0.6649,0.1729
16:46:18:151,-3.2093,4.2012,13.6423,45.2594,-0.7745,0.0578,-0.7576,0.1648
16:46:18:170,-4.3346,3.3477,14.485,43.5751,-0.3812,0.2232,-0.8109,0.1542
16:46:18:190,-6.3888,2.1542,14.7089,44.1175,0.0455,0.2847,-0.707,0.1443
16:46:18:209,-6.8521,1.558,14.2708,43.8466,0.4425,0.1617,-0.3792,0.1381
16:46:18:231,-5.6753,1.6586,12.705,43.6028,0.7192,0.09,-0.0641,0.136
16:46:18:250,-4.7883,2.0692,10.8135,43.8219,0.7528,0.0754,0.0746,0.14
16:46:18:271,-4.6937,1.8992,9.3722,44.619,0.5544,0.0738,0.0794,0.1467
16:46:18:290,-5.066,1.4647,9.0107,43.9923,0.3123,0.0338,0.0232,0.1541
16:46:18:308,-5.6263,1.2133,8.4265,44.1971,0.1709,0.0146,-0.0593,0.1597
16:46:18:331,-5.9531,1.5796,8.3703,45.0529,0.0825,0.1329,-0.0511,0.1626
16:46:18:351,-4.2891,2.487,6.8607,44.0453,0.1831,0.4131,0.1527,0.1642
16:46:18:370,-3.2153,2.4654,5.5762,44.2621,0.0859,0.4464,0.179,0.1649
16:46:18:389,-2.7987,2.487,5.745,44.6165,-0.1093,0.5369,0.1662,0.1681
16:46:18:410,-2.6084,2.5708,6.3448,42.7434,-0.202,0.5931,0.2147,0.1681
16:46:18:430,-2.1918,2.5528,6.0574,43.6214,-0.2049,0.4919,0.2973,0.1691
16:46:18:453,-1.683,2.718,5.7785,43.6775,-0.2251,0.4256,0.3521,0.1682
16:46:18:469,-1.2892,2.8545,5.5295,42.778,-0.2938,0.4716,0.4144,0.1666
16:46:18:488,-0.7337,3.0293,5.4888,43.6385,-0.4403,0.5294,0.4382,0.1649
16:46:18:508,-0.7792,3.0939,6.0167,42.2072,-0.618,0.4668,0.3801,0.1631
16:46:18:531,-1.3119,3.1143,7.1289,43.9629,-0.705,0.4309,0.3713,0.1609
16:46:18:550,-1.4364,2.7671,8.0865,43.8962,-0.651,0.4461,0.4368,0.157
16:46:18:568,-1.1898,3.0089,9.0885,42.7683,-0.5138,0.6338,0.4248,0.1515
16:46:18:588,-1.7548,3.7451,9.3363,41.4985,-0.2904,0.9638,0.3503,0.1453
16:46:18:609,-2.3534,4.5999,9.1017,44.3956,-0.1873,0.8607,0.3194,0.1395
16:46:18:664,-2.3594,4.6298,9.8116,44.1752,-0.2763,0.4157,0.3252,0.1332
16:46:18:665,-2.4803,4.3485,11.3055,43.2698,-0.3359,0.176,0.3553,0.1313
16:46:18:668,-2.1044,3.9127,13.0066,42.7134,-0.252,0.1023,0.4097,0.1266
16:46:18:690,-0.9612,4.1677,13.9619,42.8827,0.0012,0.3049,0.3519,0.1266
16:46:18:708,-0.4739,4.5376,13.7823,42.7382,0.32,0.5747,0.1593,0.1243
16:46:18:729,-0.7577,4.4454,12.4212,43.769,0.5565,0.6069,-0.0601,0.1235
16:46:18:750,-0.8798,4.4179,12.1363,43.1389,0.5717,0.4069,-0.2378,0.1252
16:46:18:773,-0.8582,4.7339,12.8318,42.9684,0.6519,0.1124,-0.4442,0.1293
16:46:18:789,-0.8079,5.1457,12.6199,42.0315,0.8148,-0.3358,-0.6761,0.134
16:46:18:808,-0.8846,5.0153,11.6335,43.9686,0.8255,-0.8802,-0.9347,0.1387
16:46:18:830,-1.8051,4.3437,10.8111,43.5032,0.5722,-1.1867,-1.1131,0.1448
16:46:18:850,-2.6419,3.3669,10.1922,43.1191,0.1128,-1.3465,-1.1446,0.1514
16:46:18:868,-2.94,2.627,11.0398,42.7852,-0.3274,-1.6168,-1.0277,0.1569
16:46:18:887,-2.8658,1.9782,12.2596,44.6483,-0.3812,-1.6451,-0.8596,0.1587
16:46:18:907,-2.7125,1.7999,11.5629,43.385,-0.0217,-1.3971,-0.7246,0.156
16:46:18:928,-3.086,1.6873,8.7785,43.2747,0.3243,-0.9976,-0.6612,0.1506
16:46:18:955,-3.5541,1.4276,6.2909,43.5319,0.2947,-0.7252,-0.5614,0.1472
16:46:18:969,-2.8155,1.4431,5.5834,43.3005,0.0545,-0.6634,-0.4554,0.1479
16:46:18:989,-1.2317,1.7101,5.4781,43.2868,-0.0763,-0.7902,-0.5318,0.1504
16:46:19:007,-0.3542,1.892,5.7414,44.5698,-0.0888,-0.8272,-0.7709,0.1514
16:46:19:030,-0.2477,1.8274,6.0574,44.3725,-0.0488,-0.8296,-0.9888,0.151
16:46:19:051,-0.7146,1.5736,6.1736,45.8434,-0.0068,-0.7481,-1.1574,0.1494
16:46:19:070,-1.6088,1.3749,6.3376,44.896,0.0034,-0.6821,-1.2077,0.1465
16:46:19:089,-2.181,1.3749,6.4836,45.8215,-0.0611,-0.71,-1.1494,0.1448
16:46:19:109,-2.6395,1.558,7.2964,43.6403,-0.1583,-0.6922,-1.0013,0.1434
16:46:19:130,-2.9855,1.6634,8.4157,45.7237,-0.1724,-0.5665,-0.7667,0.1417
16:46:19:150,-3.2596,1.9351,8.9125,45.1554,-0.0816,-0.3217,-0.4721,0.1391
16:46:19:168,-3.5325,2.2104,8.4828,45.864,-0.0286,-0.053,-0.1869,0.136
16:46:19:190,-3.6091,2.6486,8.1057,46.1063,-0.1572,0.0359,0.0738,0.1339
16:46:19:208,-3.2189,3.0197,8.6216,45.6934,-0.4571,-0.0139,0.2986,0.1331
16:46:19:229,-2.3378,3.3776,10.4233,47.34,-0.7394,-0.0115,0.4097,0.1324
16:46:19:249,-1.9943,3.5345,11.7173,44.9721,-0.8273,0.1614,0.3857,0.1298
16:46:19:270,-2.4563,3.052,12.2189,45.8403,-0.8765,0.4522,0.3327,0.124
16:46:19:289,-4.2364,1.1271,12.5206,47.1694,-1.0065,0.608,0.3092,0.1165
16:46:19:308,-5.9674,-0.6195,13.859,45.6059,-1.0654,0.7023,0.3905,0.1091
16:46:19:329,-6.9838,-1.4754,15.1566,45.7421,-0.7615,0.6253,0.5207,0.1006
16:46:19:350,-5.8788,-1.1785,14.7628,46.0529,-0.2012,0.3656,0.6118,0.091
16:46:19:371,-4.0162,-0.7129,12.4045,47.1833,0.1632,0.1441,0.4586,0.0825
16:46:19:388,-3.4392,-1.1989,10.3658,46.1291,0.1062,-0.1159,0.2038,0.0789
16:46:19:410,-3.2632,-1.649,9.8738,46.3252,-0.1482,-0.3641,0.044,0.08
16:46:19:430,-3.2572,-1.1965,10.4185,48.9766,-0.2302,-0.2807,-0.0372,0.0821
16:46:19:449,-2.9723,-0.015,9.9516,46.8124,-0.035,-0.0189,-0.0205,0.0818
16:46:19:472,-2.576,1.0169,8.3236,46.3176,0.1805,0.1933,0.0741,0.0782
16:46:19:488,-2.0553,1.5844,6.6009,46.5131,0.1917,0.3707,0.1907,0.0778
16:46:19:509,-1.5346,1.825,5.7725,47.4623,0.0231,0.4746,0.3079,0.0797
16:46:19:529,-0.9971,1.9124,6.079,47.8045,-0.1639,0.4748,0.4211,0.082
16:46:19:549,-0.3602,1.7759,6.5914,48.6698,-0.2371,0.5233,0.4805,0.0828
16:46:19:569,0.0396,1.7579,6.7625,48.9162,-0.1935,0.6037,0.4283,0.082
16:46:19:589,-0.4273,1.7197,6.5339,47.0456,-0.1348,0.6,0.3172,0.0805
16:46:19:612,-1.5777,1.7687,6.3172,48.5573,-0.1551,0.6916,0.3202,0.0799
16:46:19:636,-2.0781,1.9854,6.8918,47.9516,-0.2179,0.8469,0.5194,0.0787
16:46:19:649,-1.3526,2.2332,7.6963,49.832,-0.1934,0.9049,0.6879,0.0779
16:46:19:669,-1.2748,2.5456,8.1679,49.3732,-0.084,1.0501,0.6318,0.0768
16:46:19:690,-2.3678,2.4774,8.903,49.7747,-0.0536,0.8876,0.5255,0.0762
16:46:19:708,-2.8346,2.6905,10.3335,49.3422,0.0292,0.449,0.4949,0.0765
16:46:19:731,-0.2561,4.2563,10.5502,49.2648,0.2694,-0.0075,0.0621,0.077
16:46:19:749,-0.7158,4.4562,10.3898,49.4665,-0.0049,0.0194,-0.2729,0.0781
16:46:19:771,-1.7919,4.2647,12.0693,50.0015,-0.4094,-0.1816,-0.3579,0.0808
16:46:19:789,-2.618,4.0253,13.677,50.578,-0.5647,-0.469,-0.2577,0.0836
16:46:19:808,-2.9675,2.6773,14.3127,51.8191,-0.4901,-0.3934,-0.0242,0.083
16:46:19:827,-2.0876,1.7352,15.1027,51.2281,-0.2571,-0.1153,0.1572,0.0787
16:46:19:850,-0.9085,1.8334,15.5397,51.9721,0.1954,0.2911,0.0459,0.0677
16:46:19:867,0.0025,1.716,15.2153,50.7619,0.8242,0.486,-0.3837,0.0654
16:46:19:889,-0.2417,1.6646,13.8733,53.2832,1.2399,0.3204,-0.8599,0.0706
16:46:19:906,-1.3694,1.0409,11.4288,51.7539,1.0678,0.11,-1.1092,0.0706
16:46:19:928,-1.7453,0.3011,11.0649,53.0367,0.4481,-0.2208,-0.984,0.0858
16:46:19:947,-1.4807,0.1658,12.3398,52.5522,0.2202,-0.3558,-0.8234,0.0903
16:46:19:971,-1.1264,0.5321,11.4276,53.8645,0.4164,-0.1782,-0.7731,0.0958
16:46:19:986,-1.1742,0.726,8.654,53.4027,0.5682,-0.0237,-0.8175,0.0967
16:46:20:007,-1.616,0.4064,6.1005,54.6082,0.3762,-0.0384,-0.9323,0.0981
16:46:20:027,-2.5354,0.1323,5.9294,54.856,0.018,-0.3108,-1.0034,0.1017
16:46:20:050,-3.0154,0.2173,7.409,54.8745,-0.0944,-0.5643,-0.9688,0.1053
16:46:20:069,-3.3015,0.2041,8.4756,54.5445,0.1951,-0.5561,-0.8689,0.1054
16:46:20:088,-2.9866,0.1454,7.6209,55.6016,0.6207,-0.3502,-0.747,0.1027
16:46:20:108,-3.2129,0.1814,6.3483,54.1164,0.8761,-0.0434,-0.674,0.1006
16:46:20:130,-3.3829,0.3562,5.6935,54.9009,0.8303,0.2,-0.5645,0.1029
16:46:20:147,-3.7612,0.7943,5.976,55.6339,0.6191,0.1358,-0.4391,0.1057
16:46:20:170,-4.3621,0.8721,7.0307,56.1511,0.4146,-0.0429,-0.2671,0.1128
16:46:20:187,-4.677,0.8098,8.3224,57.0231,0.3443,-0.2583,-0.054,0.1202
16:46:20:208,-4.258,1.0948,9.1639,57.1788,0.4713,-0.4956,0.1068,0.1258
16:46:20:232,-3.3997,1.5114,8.5642,58.407,0.6756,-0.6868,0.0997,0.1292
16:46:20:248,-2.9005,2.0393,7.5335,59.0699,0.6705,-0.7832,-0.0375,0.132
16:46:20:273,-3.4033,2.4906,6.5147,58.324,0.3757,-0.7095,-0.1573,0.136
16:46:20:287,-4.4232,2.5169,6.4824,57.5169,-0.1599,-0.6615,-0.0857,0.1417
16:46:20:307,-4.4316,2.402,8.0901,57.8227,-0.6981,-0.7231,0.1937,0.1467
16:46:20:330,-3.4883,2.2799,10.3251,60.1138,-0.9503,-0.7177,0.4219,0.1485
16:46:20:349,-2.9412,1.6287,10.9512,57.6151,-0.8923,-0.4048,0.4405,0.1435
16:46:20:369,-3.4248,0.4866,11.1547,59.3159,-0.8587,-0.0661,0.3849,0.1342
16:46:20:388,-3.827,-0.1143,12.4416,59.1002,-0.7434,-0.02,0.3495,0.1246
16:46:20:408,-4.325,-0.1035,12.8115,59.3063,-0.3351,0.0866,0.2967,0.1163
16:46:20:430,-4.3202,0.6638,11.2577,59.7338,0.1198,0.1848,0.3202,0.1089
16:46:20:447,-3.6726,0.8877,7.7825,59.6146,0.1608,0.2629,0.4006,0.1037
16:46:20:469,-3.1243,-0.422,5.5822,59.359,-0.4978,0.212,0.509,0.1033
16:46:20:486,-1.6711,-1.5125,7.2246,59.7831,-1.3825,-0.0597,0.5748,0.106
16:46:20:507,-1.3706,-1.8238,10.6423,61.203,-1.7098,0.0826,0.3766,0.1059
16:46:20:526,-3.0573,-1.2145,12.3877,59.3,-1.3434,0.8056,0.1436,0.0971
16:46:20:548,-4.5537,-0.4423,11.5402,59.5047,-0.72,1.3782,0.1231,0.0822
16:46:20:569,-5.0636,0.1,9.3686,59.6144,-0.2741,1.4554,0.1875,0.0673
16:46:20:587,-4.9786,0.5058,7.8387,59.5819,-0.1402,1.0655,0.264,0.0583
16:46:20:607,-4.3705,0.9607,7.1684,60.4735,-0.154,0.5931,0.3204,0.0555
16:46:20:628,-4.0138,1.175,6.9673,60.0479,-0.182,0.2607,0.3804,0.0554
16:46:20:648,-3.4428,1.4395,7.0103,60.3032,-0.2076,0.0445,0.5031,0.0553
16:46:20:683,-2.9843,1.5341,7.087,59.4538,-0.2523,-0.0344,0.6174,0.0546
16:46:20:688,-2.9292,1.4994,7.3144,62.921,-0.2893,-0.0927,0.7212,0.0535
16:46:20:706,-2.5665,1.5245,7.6029,60.4987,-0.2973,-0.2565,0.8403,0.0522
16:46:20:728,-1.7644,1.661,7.7513,62.0893,-0.293,-0.3811,0.9117,0.0497
16:46:20:749,-1.4077,1.655,8.0063,61.7643,-0.3199,-0.3553,0.8866,0.0481
16:46:20:769,-1.3047,1.6933,8.8635,62.5155,-0.3655,-0.3129,0.8714,0.0465
16:46:20:787,-1.1324,1.5592,9.5674,61.5123,-0.3421,-0.2288,0.8387,0.0446
16:46:20:806,-0.8343,1.8944,10.0797,62.9042,-0.2957,-0.0884,0.7564,0.0423
16:46:20:826,-0.8019,2.2033,10.4424,60.8629,-0.3197,-0.0219,0.6192,0.0401
16:46:20:849,-1.0892,2.0477,10.5621,63.565,-0.4909,-0.0772,0.4557,0.0383
16:46:20:868,-1.4879,1.3952,11.1367,61.5713,-0.7998,-0.2471,0.334,0.0362
16:46:20:888,-1.9883,0.3657,12.6834,62.3902,-1.0939,-0.4338,0.2461,0.032
16:46:20:907,-2.3761,-0.4734,14.7113,61.4809,-1.1104,-0.506,0.1785,0.0245
16:46:20:926,-2.2612,-0.6865,16.337,62.4553,-0.7391,-0.5923,0.106,0.0141
16:46:20:947,-1.1443,-0.0317,16.7811,61.8479,-0.0518,-0.5918,-0.0023,0.004
16:46:20:970,0.2946,0.9415,15.7408,61.8479,0.7112,-0.3723,-0.1376,-0.0032
16:46:20:987,0.6298,1.6011,14.0936,61.3866,1.1901,-0.1249,-0.2069,-0.0037
16:46:21:006,0.6382,2.1434,12.4057,60.8436,1.3142,0.16,-0.2029,0.0029
16:46:21:027,0.2575,1.2995,10.0199,62.3056,1.0092,0.3438,-0.1805,0.0144
16:46:21:048,-0.0143,-0.0772,9.401,61.6554,0.3416,0.0743,-0.1193,0.0272
16:46:21:070,0.3114,-0.7835,10.9907,61.0817,-0.1439,-0.2818,-0.1709,0.0366
16:46:21:087,0.1545,-0.9164,12.2261,59.7229,-0.1295,-0.3689,-0.4157,0.0399
16:46:21:107,-2.8155,-0.2508,9.1938,61.3502,0.5195,0.0626,-0.6514,0.0382
16:46:21:127,-3.444,0.264,6.7422,58.9706,0.5384,0.2892,-0.5888,0.0364
16:46:21:149,-3.6439,0.5309,5.575,59.8177,0.2889,0.1132,-0.5022,0.0366
16:46:21:168,-3.4092,0.1945,6.1939,59.5022,0.0071,-0.3723,-0.4154,0.0469
16:46:21:190,-2.3809,-0.2221,7.5957,58.5174,-0.1016,-0.9374,-0.4079,0.0469
16:46:21:206,-1.3071,-0.2903,8.5043,59.4751,0.0479,-1.2397,-0.56,0.049
16:46:21:225,-1.0545,-0.2987,8.5737,59.0484,0.2673,-1.2416,-0.7134,0.0485
16:46:21:247,-1.3885,-0.2556,8.4325,58.5059,0.3714,-1.0008,-0.7211,0.0466
16:46:21:268,-1.7501,-0.0293,9.5135,57.5066,0.3634,-0.8155,-0.5768,0.046
16:46:21:286,-2.0469,-0.2436,11.278,58.51,0.5195,-0.6637,-0.3613,0.0474
16:46:21:306,-1.4496,-0.6973,11.0925,56.8854,0.8673,-0.47,-0.2607,0.0499
16:46:21:327,-1.2509,-0.8793,9.8714,58.2085,1.0196,-0.3329,-0.3118,0.0526
16:46:21:348,-1.6878,-0.4675,9.6739,56.5852,0.8029,-0.3073,-0.2905,0.0568
16:46:21:367,-2.0254,0.2436,10.3862,58.0235,0.532,-0.2903,-0.1286,0.0649
16:46:21:387,-1.7932,1.0349,11.0781,56.828,0.4545,-0.1151,0.0621,0.0746
16:46:21:406,-0.7864,1.8992,10.6938,56.4727,0.442,0.1158,0.1053,0.0817
16:46:21:427,-0.2118,2.4559,10.0821,57.1455,0.3158,0.2056,-0.0058,0.0867
16:46:21:449,-0.5589,2.2104,10.7692,55.7181,0.0212,0.1436,-0.1344,0.0911
16:46:21:467,-1.2305,1.6239,11.879,56.6413,-0.1226,0.2072,-0.2127,0.0955
16:46:21:487,-2.4659,1.2456,12.0908,55.2967,0.0119,0.4506,-0.2468,0.0988
16:46:21:505,-3.3745,1.0876,11.2062,55.4567,0.217,0.6165,-0.2082,0.099
16:46:21:526,-3.2309,1.4287,9.8475,54.9263,0.3259,0.6469,-0.1667,0.0979
16:46:21:546,-3.3614,1.3569,8.4696,53.3184,0.2577,0.5907,-0.1422,0.0983
16:46:21:568,-3.8306,0.7787,7.1396,54.5392,0.0303,0.4309,-0.1688,0.1027
16:46:21:588,-4.3837,0.4878,7.2019,52.0567,-0.2635,0.1798,-0.1826,0.1061
16:46:21:607,-3.8055,0.677,7.7956,52.6207,-0.382,0.012,-0.1115,0.1081
16:46:21:626,-2.6814,0.756,7.4892,53.1962,-0.3998,-0.0147,-0.0692,0.107
16:46:21:650,-2.0445,0.8865,7.3671,52.6442,-0.476,0.1585,-0.0529,0.1035
16:46:21:666,-2.1583,1.0098,7.5299,51.4664,-0.5045,0.4418,-0.0569,0.0998
16:46:21:688,-2.5365,1.0553,7.1468,51.1638,-0.4092,0.6253,-0.0508,0.0955
16:46:21:707,-2.7664,1.1235,6.4776,50.247,-0.2648,0.5446,-0.0114,0.0908
16:46:21:727,-2.7724,1.1343,5.8707,52.4739,-0.1958,0.3393,0.0573,0.0869
16:46:21:748,-2.2265,1.3785,5.8851,51.2584,-0.2377,0.176,0.1428,0.0842
16:46:21:767,-1.9117,1.6658,6.2657,49.312,-0.3205,0.0961,0.2182,0.0825
16:46:21:788,-2.011,1.74,6.7123,48.6623,-0.3607,0.0618,0.2821,0.0809
16:46:21:807,-2.3235,1.7568,7.2462,49.0938,-0.3857,0.0716,0.3806,0.0784
16:46:21:827,-2.3965,2.0069,8.2697,48.6147,-0.4326,0.0463,0.5306,0.0753
16:46:21:848,-2.4408,2.0512,9.1364,48.5216,-0.4488,0.118,0.6853,0.0721
16:46:21:866,-2.0314,1.9914,9.8894,47.442,-0.44,0.2258,0.8456,0.0687
16:46:21:886,-1.0282,2.311,10.7477,49.1977,-0.4195,0.3883,0.9524,0.065
16:46:21:906,-0.4895,2.8186,11.4947,49.0792,-0.4121,0.6567,0.8986,0.0615
16:46:21:926,-0.778,3.3645,12.602,48.4714,-0.3799,0.7734,0.7503,0.0572
16:46:21:948,-0.8175,3.1203,12.948,47.4243,-0.3415,0.6029,0.6033,0.0545
16:46:21:966,-1.0043,2.1315,13.0749,47.5785,-0.3985,0.2634,0.4227,0.0519
16:46:21:986,-1.1718,0.7979,13.4208,46.222,-0.4747,-0.082,0.257,0.0496
16:46:22:005,-1.1874,-0.0114,14.9088,46.0613,-0.3878,-0.3356,0.1207,0.0463
16:46:22:026,-0.7469,0.5728,16.4028,45.5797,0.0492,-0.2139,-0.0074,0.0419
16:46:22:047,-1.0845,0.5202,15.8605,46.0363,0.6721,0.3822,-0.0735,0.0385
16:46:22:067,-2.248,0.6375,14.2289,44.9251,1.0569,0.5731,-0.0588,0.0389
16:46:22:087,-2.8981,2.305,12.8055,45.4592,1.3517,0.8139,0.1492,0.0455
16:46:22:107,-1.2233,3.2807,10.3155,46.1293,1.368,0.5875,0.2869,0.0554
16:46:22:127,-0.1639,2.6223,8.0841,44.3166,0.9344,0.0549,0.0895,0.0692
16:46:22:149,0.0695,1.5269,7.6687,44.7392,0.2265,-0.5366,-0.1597,0.0832
16:46:22:168,0.9087,0.9727,9.1448,44.2823,-0.3532,-1.2264,-0.5006,0.0925
16:46:22:186,-0.3183,0.7967,10.1192,43.0509,-0.4518,-1.2796,-0.8335,0.0942
16:46:22:205,-1.8901,0.586,9.6823,43.7961,-0.2763,-0.9494,-0.9004,0.0925
16:46:22:226,-2.4276,0.1873,8.5031,41.4648,-0.1271,-0.6554,-0.7949,0.0867
16:46:22:248,-2.3342,-0.0173,7.5885,42.8399,-0.0741,-0.6152,-0.6831,0.0814
16:46:22:268,-1.9919,-0.0449,7.4916,42.5928,-0.0336,-0.7079,-0.6255,0.0784
16:46:22:286,-1.6555,0.1814,7.6867,40.586,0.0971,-0.6445,-0.6093,0.0764
16:46:22:306,-1.4256,0.349,7.5933,41.654,0.315,-0.5752,-0.6218,0.0747
16:46:22:327,-1.1371,0.4399,7.3623,41.1177,0.5152,-0.5574,-0.6458,0.0739
16:46:22:347,-1.3622,0.3286,6.9553,39.0093,0.6023,-0.5441,-0.6719,0.0749
16:46:22:370,-1.7728,0.1179,6.9493,39.6877,0.5685,-0.7057,-0.6002,0.0781
16:46:22:386,-1.2952,0.1826,7.5586,39.8848,0.4905,-0.7697,-0.4532,0.085
16:46:22:408,-0.5972,0.4651,8.1715,39.0351,0.5158,-0.4959,-0.3808,0.0895
16:46:22:426,-0.4919,0.9786,8.4074,39.0303,0.597,-0.081,-0.4138,0.0933
16:46:22:449,-1.1048,1.3545,8.5474,38.2298,0.6346,0.1545,-0.3944,0.0974
16:46:22:466,-1.6543,1.7316,8.2852,40.3622,0.5395,0.2935,-0.2639,0.103
16:46:22:487,-1.6974,2.6127,8.7174,39.3548,0.3107,0.4133,-0.127,0.1092
16:46:22:506,-1.179,3.0999,9.2681,38.4063,-0.2297,0.4136,-0.0825,0.1144
16:46:22:527,-1.1647,3.0257,9.3399,35.9629,-0.4528,0.5148,-0.3177,0.1179
16:46:22:548,-3.0477,1.5353,9.3016,37.085,-0.7764,0.167,-0.6101,0.1185
16:46:22:567,-4.9164,-0.4208,10.8207,37.6488,-1.1351,-0.494,-0.679,0.1168
16:46:22:585,-5.7065,-1.1893,13.2149,38.2671,-1.1841,-0.7358,-0.5235,0.1129
16:46:22:606,-5.5173,-0.6698,14.7257,37.6457,-0.8193,-0.3928,-0.2498,0.105
16:46:22:624,-4.7907,-0.1227,13.6052,36.1821,-0.3548,0.175,-0.0194,0.0927
16:46:22:644,-4.4675,-0.7213,11.0266,36.354,-0.2635,0.4029,0.1015,0.0803
16:46:22:665,-4.0233,-1.7388,9.5638,35.3261,-0.5916,0.1502,0.134,0.0715
16:46:22:698,-4.0485,-2.0644,10.2593,35.8462,-0.9511,-0.008,0.069,0.0682
16:46:22:705,-5.0181,-1.1462,11.6407,34.3736,-0.9325,0.1531,0.0302,0.0664
16:46:22:725,-5.4323,-0.3537,11.2804,34.5921,-0.574,0.2916,0.1559,0.0609
16:46:22:746,-4.5704,0.3418,9.6895,34.3255,-0.1801,0.3363,0.3793,0.0516
16:46:22:769,-2.7712,0.6518,7.8782,34.638,0.0284,0.3049,0.5455,0.0427
16:46:22:786,-1.95,0.8793,6.6524,34.5697,0.0191,0.4378,0.6035,0.0378
16:46:22:805,-2.2648,0.8374,6.2119,32.1107,-0.1234,0.5907,0.733,0.0369
16:46:22:825,-2.1655,0.9762,6.3651,32.0214,-0.2456,0.7446,0.9782,0.038
16:46:22:845,-1.5884,1.1989,6.6273,31.4644,-0.2704,0.7976,1.1897,0.0392
16:46:22:867,-0.8798,1.2504,6.577,31.8948,-0.264,0.6655,1.2243,0.0394
16:46:22:886,-0.1388,1.242,6.6776,32.6916,-0.2672,0.3952,1.0874,0.0385
16:46:22:906,0.133,1.2133,7.1743,30.2843,-0.2997,0.1614,0.8592,0.038
16:46:22:925,-0.1388,1.2552,7.968,32.1133,-0.345,0.0362,0.6467,0.0372
16:46:22:946,-0.8558,1.145,9.0311,30.2956,-0.3751,0.0312,0.5228,0.0359
16:46:22:965,-1.7477,0.823,10.2042,29.3774,-0.3468,0.053,0.5077,0.0338
16:46:22:986,-2.017,0.7512,11.4061,32.2807,-0.2097,0.1108,0.566,0.0309
16:46:23:007,-1.2401,1.3354,12.3027,30.0764,-0.0262,0.1715,0.5907,0.0279
16:46:23:031,-0.2752,1.9399,12.6654,29.6073,0.1056,0.1156,0.4589,0.0258
16:46:23:048,-0.0466,2.22,13.161,29.3127,0.1176,0.0061,0.2232,0.0255
16:46:23:065,-0.3147,2.0608,13.695,30.4369,0.0604,-0.1569,0.0049,0.0267
16:46:23:086,-0.5194,1.2492,14.3198,29.3871,0.0287,-0.2898,-0.1555,0.0284
16:46:23:105,-0.0993,0.8493,15.0788,27.702,0.1261,-0.3414,-0.2993,0.0294
16:46:23:126,0.9901,1.236,14.9818,27.602,0.3589,-0.3345,-0.4958,0.0296
16:46:23:148,1.7168,1.2205,14.1893,27.8087,0.5112,-0.3755,-0.695,0.0297
16:46:23:167,3.0192,0.9092,14.2863,25.7836,0.4713,-0.5033,-0.7976,0.0314
16:46:23:185,4.5922,0.8972,14.418,26.6508,0.516,-0.4967,-1.0048,0.0352
16:46:23:206,5.3452,0.2915,13.6147,24.9207,0.662,-0.3515,-1.4908,0.0391
16:46:23:226,5.0698,-0.7775,12.0741,23.8982,0.7195,-0.187,-2.0817,0.0424
16:46:23:245,2.5308,-2.2164,10.4149,23.5573,0.4985,-0.0503,-2.4972,0.0466
16:46:23:264,-0.6583,-2.8329,10.021,22.8254,0.1754,0.1518,-2.4985,0.0516
16:46:23:286,-2.8705,-2.5133,9.7218,22.1896,0.1198,0.53,-2.1699,0.0554
16:46:23:304,-3.1794,-1.8082,8.8958,23.4419,0.3424,0.7614,-1.7459,0.0555
16:46:23:324,-1.7656,-1.558,7.4509,21.5609,0.662,0.6855,-1.5105,0.0551
16:46:23:348,0.0552,-2.0213,6.3495,22.8276,0.8977,0.4021,-1.5955,0.0576
16:46:23:370,1.0093,-2.3912,5.8934,20.1172,1.0029,0.2365,-1.9025,0.0635
16:46:23:384,0.4622,-2.4654,5.7163,20.157,1.0423,0.3704,-2.2346,0.071
16:46:23:405,-1.6387,-2.3182,5.575,20.3683,1.0077,0.5193,-2.4184,0.0787
16:46:23:425,-3.9551,-1.825,5.7366,18.914,0.9547,0.4535,-2.3521,0.0863
16:46:23:449,-5.1702,-1.0086,6.0036,19.0515,0.9592,0.2525,-2.0602,0.0941
16:46:23:468,-5.752,-0.3202,6.1772,17.9466,0.928,-0.028,-1.7305,0.1011
16:46:23:486,-5.7747,0.0066,6.4429,17.4522,0.7842,-0.33,-1.4623,0.1076
16:46:23:504,-6.4906,0.3825,7.0522,16.8547,0.6292,-0.4181,-1.2199,0.1136
16:46:23:524,-7.4327,0.9631,7.5897,17.8385,0.5123,-0.3436,-0.906,0.1177
16:46:23:545,-7.8098,1.5473,7.7861,15.361,0.3555,-0.2133,-0.4942,0.1191
16:46:23:565,-7.3453,1.7592,7.5742,16.3949,0.0803,-0.1992,-0.1486,0.1213
16:46:23:585,-6.651,1.3306,7.9118,16.0459,-0.3239,-0.3289,0.0315,0.1234
16:46:23:604,-5.8405,1.4371,9.2609,14.2564,-0.6739,-0.3382,0.0954,0.1245
16:46:23:624,-5.8202,1.0337,10.5107,14.7472,-0.8334,-0.0692,0.093,0.1226
16:46:23:646,-6.5899,-0.1431,11.4875,12.2054,-0.9192,0.31,0.174,0.1166
16:46:23:667,-7.0604,-1.1774,12.274,11.5595,-0.974,0.5798,0.3564,0.1088
16:46:23:685,-7.119,-1.9722,12.8103,10.9881,-0.8923,0.5262,0.4983,0.1088
16:46:23:705,-6.6318,-2.3876,13.2413,10.4057,-0.6648,0.3116,0.538,0.0952
16:46:23:725,-6.086,-2.6175,12.9108,10.599,-0.3921,0.2439,0.5545,0.0892
16:46:23:745,-5.649,-3.1202,12.0406,12.3486,-0.2843,0.3033,0.6485,0.0842
16:46:23:764,-5.5113,-3.9606,11.1882,10.8795,-0.3937,0.4189,0.7716,0.0814
16:46:23:787,-5.6718,-4.0971,10.9548,10.4246,-0.4965,0.4139,0.9058,0.0804
16:46:23:803,-4.762,-2.8748,10.7704,11.7153,-0.346,0.4575,1.0272,0.0792
16:46:23:824,-3.1136,-1.5137,9.553,11.2962,-0.0401,0.5728,1.0254,0.0776
16:46:23:845,-2.4707,-0.3573,8.0446,12.4763,0.2023,0.9545,0.8949,0.0776
16:46:23:865,-3.2608,1.0193,4.8328,12.2246,0.1954,1.5276,0.8182,0.0776
16:46:23:884,-3.5912,1.0062,3.783,12.2246,-0.0169,1.432,0.8464,0.0869
16:46:23:904,-4.1526,1.1355,3.3269,12.2926,-0.2334,1.118,0.8792,0.0951
16:46:23:923,-4.015,1.4754,3.5148,13.9271,-0.4813,0.5814,0.9391,0.103
16:46:23:945,-3.4619,1.6119,4.2678,13.9672,-0.7237,-0.0232,0.9402,0.1083
16:46:23:966,-2.7592,1.7987,5.174,14.6337,-0.9,-0.3736,0.884,0.1111
16:46:23:985,-2.8262,1.8501,6.0239,15.5972,-1.019,-0.4152,0.8062,0.1104
16:46:24:004,-4.0138,1.7065,6.9888,15.158,-1.096,-0.3095,0.8161,0.106
16:46:24:024,-4.5609,1.564,8.0865,18.5329,-1.0845,-0.2413,0.9599,0.0987
16:46:24:044,-4.2424,1.5987,8.9808,19.617,-1.01,-0.2541,1.0898,0.09
16:46:24:068,-3.5062,1.8992,9.7577,19.4304,-0.9373,-0.3289,1.0981,0.0809
16:46:24:084,-3.4906,1.418,10.6148,20.5721,-0.9109,-0.5406,0.9748,0.0728
16:46:24:103,-3.8019,0.3322,11.94,22.4289,-0.933,-0.759,0.8712,0.0651
16:46:24:123,-3.9827,-0.2532,13.7787,23.9415,-0.9066,-0.7177,0.9244,0.058
16:46:24:145,-3.9431,-0.4411,14.9771,26.2165,-0.6827,-0.318,1.085,0.0509
16:46:24:164,-3.7073,-0.3777,14.849,26.8374,-0.3207,0.2628,1.223,0.0426
16:46:24:186,-3.3434,-0.1598,13.8925,26.2695,0.0076,0.7678,1.2216,0.0347
16:46:24:206,-2.9627,0.8721,12.505,28.1678,0.2034,0.9526,1.077,0.0301
16:46:24:223,-2.8789,1.1283,11.3498,27.3634,0.2188,0.9268,0.9101,0.0298
16:46:24:244,-2.3642,0.6889,11.3391,27.5962,0.1094,0.5715,0.8304,0.0334
16:46:24:268,-0.3291,0.6662,11.9017,28.0417,0.0612,0.013,0.6523,0.0388
16:46:24:284,1.3445,0.2053,11.673,27.4089,0.0897,-0.1832,0.2786,0.0436
16:46:24:303,1.6138,-1.2719,11.4252,23.9156,-0.084,-0.4053,-0.2316,0.0482
16:46:24:323,0.9722,-2.8712,12.6391,22.7969,-0.2326,-0.5683,-0.7297,0.0501
16:46:24:346,0.0468,-3.0712,13.8278,22.3155,0.0076,-0.5555,-1.1938,0.0502
16:46:24:364,-1.531,-2.8198,13.3298,19.7336,0.5837,-0.2733,-1.4719,0.0468
16:46:24:384,-2.3773,-3.0017,11.2337,18.5046,1.1139,0.0208,-1.5358,0.0425
16:46:24:406,-3.0908,-2.9227,9.3866,16.9971,1.4202,0.0352,-1.5275,0.0418
16:46:24:424,-2.6946,-2.3924,8.0219,18.5983,1.5858,0.0003,-1.5241,0.0469
16:46:24:444,-2.746,-1.6873,6.9553,17.3731,1.6841,0.0043,-1.6485,0.056
16:46:24:468,-3.5708,-1.0457,5.9713,19.3268,1.7446,-0.098,-1.7691,0.0667
16:46:24:484,-4.738,-0.6147,4.9825,18.8851,1.7496,-0.2373,-1.788,0.0791
16:46:24:507,-5.327,0.0102,4.1864,20.4324,1.6862,-0.4464,-1.6911,0.0917
16:46:24:524,-5.2312,0.6901,3.8344,21.5629,1.5222,-0.6179,-1.5347,0.1037
16:46:24:546,-5.0888,1.1426,3.8859,22.4639,1.2497,-0.6922,-1.3401,0.1156
16:46:24:565,-5.2288,1.5772,4.2007,22.7078,0.969,-0.5792,-1.1267,0.1263
16:46:24:585,-5.321,1.9243,4.7131,23.3918,0.7352,-0.5633,-0.9012,0.1347
16:46:24:604,-5.3114,2.1757,5.1704,25.1275,0.5179,-0.6229,-0.674,0.1406
16:46:24:630,-5.0469,2.3816,5.7103,25.1899,0.2676,-0.5172,-0.5006,0.145
16:46:24:644,-5.4276,2.2583,6.0299,25.6812,-0.0283,-0.3452,-0.4026,0.1476
16:46:24:665,-5.9974,1.8489,6.4884,25.5694,-0.4171,-0.3127,-0.2769,0.1485
16:46:24:700,-6.1003,1.3461,7.3814,25.4272,-0.8454,-0.3015,-0.1616,0.1476
16:46:24:703,-5.8585,1.23,8.7258,25.4577,-1.1671,-0.2874,-0.1392,0.1441
16:46:24:723,-6.3397,1.0397,9.784,26.6897,-1.3277,-0.1393,-0.1797,0.1374
16:46:24:746,-7.4866,-0.0078,10.5645,27.1321,-1.3498,0.0602,-0.1579,0.1205
16:46:24:765,-8.9482,-1.3461,11.3798,26.3967,-1.2976,0.1316,-0.0101,0.1074
16:46:24:786,-9.0919,-1.9674,12.7612,26.6146,-1.1199,0.0836,0.2413,0.0955
16:46:24:804,-8.4131,-2.0273,13.2676,26.0137,-0.7706,0.1268,0.4166,0.0839
16:46:24:825,-8.4191,-2.2667,12.3386,27.9661,-0.443,0.1742,0.4879,0.0742
16:46:24:846,-8.2276,-3.0795,10.5873,28.1326,-0.406,0.0394,0.6211,0.0681
16:46:24:866,-8.9171,-3.9881,9.4716,29.2879,-0.6867,0.0293,0.8147,0.0656
16:46:24:885,-9.3983,-4.3832,9.6152,28.4612,-0.9346,-0.0141,1.1447,0.063
16:46:24:905,-7.7403,-3.4674,10.2952,30.0307,-0.8632,-0.1398,1.4302,0.0582
16:46:24:925,-5.8525,-2.0931,9.644,29.878,-0.5263,0.024,1.5511,0.0519
16:46:24:945,-4.9978,-1.2013,8.1296,29.1231,-0.2683,0.1992,1.6014,0.0461
16:46:24:967,-4.6051,-1.0301,6.7266,31.964,-0.2283,0.2139,1.696,0.0441
16:46:24:986,-4.2029,-0.896,5.8312,31.1281,-0.3082,0.1782,1.8603,0.0444
16:46:25:010,-3.3937,-0.5608,5.4206,30.3523,-0.4403,0.1848,2.0235,0.0472
16:46:25:027,-1.8015,-0.3082,6.0515,33.0867,-0.6086,0.2029,1.9833,0.0478
16:46:25:049,-1.8422,-0.349,6.3675,33.8694,-0.5735,-0.0679,1.8493,0.0472
16:46:25:078,-1.1132,-0.4136,6.8487,33.8452,-0.517,-0.3111,1.7119,0.0459
16:46:25:085,-1.4196,-0.3166,7.2905,34.592,-0.4041,-0.269,1.5633,0.0441
16:46:25:105,-1.7776,-0.1933,7.7753,34.7023,-0.301,-0.1774,1.5585,0.0421
16:46:25:125,-1.5358,0.4148,8.2039,35.9054,-0.1812,0.1039,1.6099,0.0405
16:46:25:146,-1.6926,1.005,8.4421,37.4794,-0.0803,0.3862,1.6118,0.04
16:46:25:166,-1.75,1.3174,8.7545,37.3461,-0.0568,0.4818,1.5295,0.0413
16:46:25:187,-1.9404,1.7101,9.213,38.0475,-0.1242,0.4794,1.374,0.0438
16:46:25:209,-1.9751,2.0165,9.8989,38.0761,-0.2954,0.3475,1.1769,0.0464
16:46:25:224,-1.8422,1.7759,11.2768,38.6493,-0.5135,0.1254,0.9106,0.048
16:46:25:244,-2.0853,1.8908,13.1395,40.0187,-0.6483,-0.0719,0.6136,0.0475
16:46:25:265,-2.6814,1.9471,14.2731,42.3454,-0.5551,-0.118,0.3433,0.0475
16:46:25:284,-3.6427,1.345,14.266,41.7816,-0.2944,-0.0767,0.1564,0.0443
16:46:25:304,-3.6606,0.8422,13.8649,41.5804,-0.0462,-0.2037,0.0994,0.0393
16:46:25:324,-2.6994,1.0026,13.6902,41.7031,0.1754,-0.2951,0.1162,0.0349
16:46:25:344,-1.179,1.0445,13.3729,42.3492,0.4103,-0.2109,0.1154,0.0323
16:46:25:365,0.4837,1.0576,13.197,42.4701,0.6745,-0.1076,-0.0332,0.0321
16:46:25:384,1.5336,1.9208,12.7121,44.0639,0.9174,-0.0437,-0.3635,0.034
16:46:25:403,1.1828,1.8705,11.4791,42.6139,0.9078,-0.1689,-0.788,0.0383
16:46:25:424,0.6861,0.3992,10.3143,44.0682,0.5187,-0.6392,-1.1371,0.0449
16:46:25:444,0.5663,-1.5832,10.1503,43.0198,-0.0922,-1.3132,-1.4418,0.0527
16:46:25:467,-0.2154,-2.7336,11.3403,44.9145,-0.4622,-1.6171,-1.6991,0.0601
16:46:25:484,-1.9955,-2.4092,12.0932,45.8722,-0.2723,-1.232,-1.7459,0.063
16:46:25:504,-3.25,-1.7567,10.9967,44.91,0.2774,-0.4794,-1.5193,0.0594
16:46:25:523,-3.3434,-1.1714,8.7461,46.3808,0.8361,0.2141,-1.2189,0.0521
16:46:25:543,-2.9483,-1.084,6.3962,45.5577,1.1403,0.5659,-1.057,0.0461
16:46:25:566,-3.0238,-0.9966,5.2027,45.9734,1.1611,0.5579,-1.0293,0.0464
16:46:25:586,-3.4882,-0.4747,5.0315,46.6944,1.0905,0.3497,-1.0823,0.0574
16:46:25:604,-4.2173,0.4938,5.1022,45.1387,1.0812,0.0413,-1.1347,0.0679
16:46:25:624,-4.9511,1.3988,5.0016,45.1591,1.075,-0.1539,-1.0823,0.0776
16:46:25:644,-5.2204,2.2404,4.8819,45.9992,0.976,-0.229,-0.8857,0.0861
16:46:25:666,-4.9762,3.0065,5.1967,46.3975,0.7262,-0.3135,-0.6439,0.0947
16:46:25:684,-4.9379,3.3333,5.9461,46.3052,0.3653,-0.4261,-0.4511,0.103
16:46:25:704,-5.0576,3.2878,6.8272,48.0881,0.0055,-0.5105,-0.3331,0.1096
16:46:25:724,-5.2983,2.7096,7.7849,47.352,-0.3426,-0.7257,-0.2575,0.1135
16:46:25:744,-5.1678,1.9016,9.1292,47.1966,-0.6363,-1.0546,-0.1914,0.114
16:46:25:766,-4.513,1.5341,10.6052,48.1796,-0.7841,-1.2139,-0.2489,0.1109
16:46:25:784,-4.5932,1.2959,11.7521,49.8186,-0.7788,-1.2496,-0.3797,0.1046
16:46:25:803,-4.8733,1.06,12.6116,49.1174,-0.6909,-1.1982,-0.3957,0.0953
16:46:25:824,-4.5441,1.2779,13.0437,48.7816,-0.5588,-0.9625,-0.2748,0.085
16:46:25:844,-4.4567,0.9954,12.9001,48.3602,-0.4632,-0.5755,-0.1131,0.0757
16:46:25:869,-5.0469,-0.4256,12.693,51.5302,-0.476,-0.3177,0.0765,0.0673
16:46:25:885,-5.8022,-1.983,13.27,48.8973,-0.4555,-0.3252,0.2986,0.0609
16:46:25:904,-5.9016,-2.5612,14.0996,48.8377,-0.1908,-0.3494,0.533,0.0558
16:46:25:925,-5.6035,-2.1769,13.9583,49.0128,0.3477,-0.1393,0.7559,0.0507
16:46:25:944,-5.0876,-1.8453,11.8323,49.6141,0.8575,0.2977,1.031,0.0469
16:46:25:967,-4.598,-2.1662,9.0789,50.2236,0.8793,0.759,1.2813,0.0474
16:46:25:985,-4.4687,-3.0293,7.002,49.2991,0.4289,0.792,1.4022,0.0544
16:46:26:005,-3.6211,-3.0724,6.8404,49.1783,-0.1314,0.4826,1.3327,0.0706
16:46:26:023,-2.5641,-1.7292,8.065,50.0266,-0.3998,0.1912,1.1306,0.0769
16:46:26:044,-2.6036,-0.1,8.7928,49.8727,-0.3311,0.4088,0.9631,0.0775
16:46:26:066,-2.8777,1.0756,8.4038,48.9978,-0.0555,0.8586,0.9774,0.0762
16:46:26:086,-3.11,1.1259,6.674,50.0953,0.1541,1.3151,1.1306,0.0735
16:46:26:104,-2.9639,1.2648,5.1285,50.0432,0.0564,1.4762,1.2579,0.0731
16:46:26:124,-2.752,1.1833,4.7454,49.5687,-0.2246,1.1555,1.2717,0.0759
16:46:26:145,-2.6203,1.2049,5.356,50.9971,-0.5388,0.681,1.179,0.0798
16:46:26:165,-2.4875,1.0134,6.4214,51.7499,-0.754,0.2115,1.0856,0.0815
16:46:26:184,-2.2852,0.6375,7.3527,51.4244,-0.8281,-0.1097,1.028,0.0798
16:46:26:204,-1.6651,0.4148,7.8794,51.6835,-0.7586,-0.3236,0.9852,0.0751
16:46:26:223,-1.0797,0.4136,8.405,51.6761,-0.606,-0.3902,0.9543,0.0687
16:46:26:243,-0.5637,0.9176,8.9496,51.8511,-0.4209,-0.2171,0.9561,0.0626
16:46:26:265,-0.4488,1.4036,9.3124,51.194,-0.2792,0.1667,0.9934,0.0572
16:46:26:284,-0.2214,1.7113,9.4967,51.5615,-0.2134,0.5606,1.039,0.0535
16:46:26:304,0.1222,2.0441,9.7912,52.1443,-0.1697,0.8264,0.9865,0.0516
16:46:26:324,0.0767,2.4906,10.4017,52.0946,-0.1314,0.8887,0.8499,0.0505
16:46:26:344,0.0648,3.0843,11.1128,52.0977,-0.1066,0.8509,0.6938,0.0498
16:46:26:364,0.0444,3.5931,11.6228,53.7039,-0.1125,0.8504,0.5308,0.0493
16:46:26:385,-0.5829,3.4662,11.9975,51.5404,-0.1559,0.7611,0.395,0.0489
16:46:26:404,-0.4692,2.9048,12.1136,52.9012,-0.2052,0.4293,0.236,0.0483
16:46:26:423,-0.3183,1.9579,12.5984,52.7802,-0.2528,0.1103,-0.0295,0.0472
16:46:26:444,-0.4201,1.5987,13.9499,52.8124,-0.2097,-0.0762,-0.3017,0.0446
16:46:26:465,-0.954,1.552,15.0393,53.1169,0.0596,-0.1057,-0.5395,0.0419
16:46:26:485,-1.4651,1.4108,14.9567,53.5086,0.5056,-0.0392,-0.6626,0.0395
16:46:26:504,-1.0617,1.7388,14.0409,51.9897,0.8673,-0.012,-0.7406,0.0392
16:46:26:524,-0.6511,1.8621,12.3913,52.8487,0.8702,-0.1167,-0.8937,0.0429
16:46:26:543,-0.7971,0.4663,11.3594,52.7465,0.4774,-0.588,-1.0953,0.05
16:46:26:570,-0.438,-0.8757,11.9292,51.7488,0.0281,-1.2621,-1.2956,0.0566
16:46:26:586,-0.0454,-1.2563,12.8223,52.5258,-0.0062,-1.539,-1.5499,0.0595
16:46:26:603,-1.1443,-0.902,9.7816,52.8721,0.8718,-0.967,-1.9086,0.0579
16:46:26:624,-2.685,-1.4587,7.6568,52.9352,1.0282,-0.6671,-1.8793,0.0557
16:46:26:643,-3.7073,-1.5233,6.5123,52.2288,0.9605,-0.5116,-1.6674,0.0571
16:46:26:667,-3.9671,-1.0756,6.0227,49.8228,0.8894,-0.4733,-1.3768,0.0629
16:46:26:685,-3.2201,-0.1706,5.6181,51.8057,0.9184,-0.4506,-1.1321,0.0699
16:46:26:728,-2.1499,0.6482,5.0459,52.1869,0.9302,-0.3276,-1.0442,0.077
16:46:26:729,-2.0433,0.8625,4.7287,50.2204,0.7544,-0.1734,-1.0972,0.0837
16:46:26:743,-2.5737,0.7201,5.0878,51.7407,0.4558,-0.2482,-1.1717,0.0909
16:46:26:764,-3.4787,0.9415,6.1951,50.5607,0.2436,-0.3792,-1.1851,0.0982
16:46:26:783,-4.2185,1.3773,7.2917,50.5607,0.2114,-0.3689,-1.0881,0.1042
16:46:26:803,-4.8697,1.8932,7.7513,51.5025,0.2281,-0.2341,-0.8636,0.107
16:46:26:823,-4.9547,2.0464,7.6185,52.0246,0.1413,-0.2506,-0.5278,0.1075
16:46:26:843,-4.2831,1.9004,7.7118,51.0378,-0.1066,-0.3619,-0.1976,0.1079
16:46:26:871,-3.9539,1.6574,8.4469,51.095,-0.4395,-0.3694,0.0195,0.1089
16:46:26:883,-3.5996,1.6921,9.6595,52.4835,-0.7072,-0.3494,0.1654,0.1093
16:46:26:903,-3.0609,2.0058,10.8231,52.4355,-0.8212,-0.2429,0.1806,0.1074
16:46:26:922,-2.5737,2.5253,11.6479,50.7499,-0.7921,-0.1033,0.073,0.0952
16:46:26:943,-2.8023,2.5277,11.5605,52.3213,-0.7391,0.1459,-0.0846,0.0915
16:46:26:969,-4.2364,1.0181,10.8506,52.4711,-0.8614,0.2668,-0.1568,0.0833
16:46:26:984,-5.7795,-0.7967,10.9476,52.5881,-1.1559,0.0828,-0.0407,0.0759
16:46:27:003,-6.5408,-2.4271,11.9328,50.856,-1.3407,-0.2431,0.2373,0.069
16:46:27:023,-5.8154,-3.5273,12.936,50.2641,-1.2422,-0.4064,0.5164,0.0594
16:46:27:042,-4.6614,-3.9139,13.6423,51.2432,-0.884,-0.196,0.6485,0.0469
16:46:27:063,-4.1419,-3.8277,13.5238,51.2229,-0.4062,0.1957,0.6477,0.0337
16:46:27:089,-4.8278,-3.896,12.1986,52.075,0.03,0.5659,0.6182,0.0236
16:46:27:104,-5.9423,-3.5823,10.5502,50.6253,0.3365,0.7923,0.6576,0.0179
16:46:27:123,-5.7962,-2.803,9.1472,50.4744,0.4609,0.7489,0.8083,0.0173
16:46:27:144,-4.6398,-1.5065,8.0638,50.3429,0.421,0.6751,0.9058,0.0208
16:46:27:170,-3.608,-0.3944,7.3982,52.5453,0.2779,0.6139,0.9074,0.0269
16:46:27:185,-3.3458,0.2652,6.9984,49.8048,0.0968,0.5449,0.8989,0.0333
16:46:27:205,-3.3099,0.5848,6.7769,50.1256,-0.056,0.4543,0.9199,0.0384
16:46:27:223,-3.2273,0.914,6.6931,51.0681,-0.1322,0.4048,0.9583,0.0421
16:46:27:244,-3.5146,1.0576,6.4489,49.3616,-0.1868,0.3864,1.0158,0.0439
16:46:27:265,-3.736,1.0253,6.3938,50.1286,-0.2888,0.2506,1.1106,0.0446
16:46:27:284,-3.7325,0.7332,6.6919,49.3454,-0.4209,0.0242,1.2286,0.0447
16:46:27:303,-3.6259,0.3322,7.4964,51.0647,-0.4765,-0.1633,1.3548,0.0443
16:46:27:323,-3.3087,0.1395,8.1212,50.1888,-0.3942,-0.2365,1.4944,0.0425
16:46:27:343,-2.6287,0.1179,8.6695,50.6449,-0.2664,-0.1982,1.6432,0.04
16:46:27:365,-1.9871,0.0976,9.304,49.9069,-0.1642,-0.033,1.7516,0.0375
16:46:27:385,-1.5813,0.0341,10.0079,51.2664,-0.0552,0.0426,1.77,0.0365
16:46:27:404,-1.0294,0.2747,10.8494,50.8025,0.1512,-0.0333,1.7215,0.0374
16:46:27:423,-0.1208,1.0397,11.3295,49.6212,0.4681,0.0027,1.587,0.0392
16:46:27:444,0.7303,2.2284,10.9548,50.3618,0.7499,0.2346,1.3889,0.0409
16:46:27:468,1.5851,3.2507,10.1348,50.0132,0.7584,0.4141,1.1487,0.0462
16:46:27:484,2.119,3.7403,9.8116,51.29,0.4359,0.2754,0.8256,0.054
16:46:27:505,1.797,3.5871,10.0965,49.0492,-0.0371,0.033,0.3966,0.0634
16:46:27:523,0.3628,2.6115,11.0398,48.9273,-0.4384,-0.1758,-0.0194,0.0707
16:46:27:543,-1.0629,1.5149,12.7169,50.5167,-0.6057,-0.5305,-0.2,0.0732
16:46:27:565,-0.5099,1.4814,14.6071,50.1385,-0.4686,-0.8749,-0.1672,0.071
16:46:27:586,1.2367,1.983,15.724,48.9636,-0.097,-0.6562,-0.1944,0.0657
16:46:27:606,1.8161,2.4583,15.7983,49.6057,0.3424,-0.1883,-0.376,0.0607
16:46:27:622,1.3516,2.3206,14.248,49.0624,0.6479,0.1438,-0.5283,0.0584
16:46:27:642,1.3217,1.3018,12.1124,48.4023,0.6295,0.1028,-0.6207,0.0597
16:46:27:663,1.8879,0.3047,10.9991,47.4665,0.3046,-0.2605,-0.8255,0.064
16:46:27:684,2.265,-0.149,11.5881,46.9348,-0.0454,-0.5939,-1.1502,0.0699
16:46:27:703,1.6389,-0.3717,12.6044,45.773,-0.0488,-0.493,-1.5555,0.0739
16:46:27:723,-0.3818,-1.0002,12.268,46.7359,0.2926,-0.2575,-1.8687,0.074
16:46:27:743,-2.2493,-1.5628,11.1763,45.2716,0.7823,-0.1241,-1.9313,0.0719
16:46:27:763,-2.9866,-1.6658,9.8439,44.6178,1.2732,-0.0045,-1.7771,0.0709
16:46:27:784,-2.7293,-1.1103,8.3367,43.821,1.6548,0.286,-1.5867,0.074
16:46:27:805,-2.6407,-0.5501,6.905,45.4202,1.894,0.5028,-1.4527,0.0874
16:46:27:822,-2.5701,0.1311,5.6971,42.9699,1.9994,0.5643,-1.3715,0.1019
16:46:27:842,-2.4324,1.072,4.7083,44.0003,1.9944,0.465,-1.3438,0.119
16:46:27:863,-2.3666,2.153,4.0236,43.457,1.8378,0.3111,-1.3797,0.1362
16:46:27:883,-2.9232,2.7599,3.6118,42.3619,1.4881,0.0589,-1.4151,0.1542
16:46:27:902,-4.0126,2.7444,3.7099,43.1248,0.948,-0.2583,-1.3462,0.1704
16:46:27:922,-4.6806,2.5792,4.6676,43.0776,0.3395,-0.5577,-1.1089,0.1823
16:46:27:944,-4.7512,2.3876,6.2861,42.2235,-0.145,-0.7785,-0.8287,0.1892
16:46:27:965,-4.7284,2.1302,7.8926,42.192,-0.3681,-0.9753,-0.6479,0.1902
16:46:27:984,-4.4244,2.4092,9.4967,41.4154,-0.3767,-0.992,-0.409,0.1866
16:46:28:003,-4.5752,2.2284,9.5506,39.154,-0.4515,-0.8788,-0.2812,0.1866
16:46:28:022,-4.8769,1.9746,9.9504,39.7058,-0.5668,-0.7673,-0.1315,0.175
16:46:28:042,-5.2671,2.0177,10.5322,39.4977,-0.6467,-0.5728,0.0994,0.1694
16:46:28:062,-5.2719,1.3629,10.7262,38.9697,-0.7184,-0.31,0.4128,0.1636
16:46:28:084,-5.072,0.7249,11.2265,39.8347,-0.7975,-0.1233,0.652,0.1567
16:46:28:105,-5.0457,0.2316,12.1579,39.5888,-0.758,-0.0916,0.7247,0.1496
16:46:28:123,-5.2073,0.167,12.9132,39.5443,-0.5237,-0.11,0.7018,0.1428
16:46:28:143,-5.1893,0.3549,12.8223,38.2821,-0.1775,-0.1145,0.6677,0.1354
16:46:28:163,-4.8422,0.2532,11.4863,38.1305,0.0116,-0.0453,0.6957,0.1285
16:46:28:184,-4.1059,-0.6722,10.0725,36.9607,-0.166,-0.139,0.709,0.1241
16:46:28:202,-3.4212,-1.588,10.2174,38.3892,-0.5279,-0.391,0.6501,0.1227
16:46:28:221,-3.0082,-1.4455,12.0705,36.6803,-0.6294,-0.4677,0.5772,0.1222
16:46:28:242,-2.9962,-0.2472,12.9516,37.7535,-0.1687,0.0021,0.5351,0.1202
16:46:28:263,-2.8753,0.8314,11.296,36.7242,0.5184,0.6075,0.6089,0.1139
16:46:28:285,-2.1343,1.2683,8.3655,36.6276,0.9198,0.9803,0.7745,0.1094
16:46:28:304,-1.1946,1.6885,6.061,37.6896,0.8742,1.1116,0.888,0.1119
16:46:28:321,-0.6188,2.1698,4.8747,35.7139,0.5807,0.9835,0.9042,0.1205
16:46:28:342,-0.1926,2.56,4.4521,35.885,0.266,0.7454,0.8571,0.1315
16:46:28:362,0.1545,2.7863,4.5683,35.4229,0.017,0.4935,0.7756,0.1405
16:46:28:382,0.1103,2.8892,5.0459,36.0393,-0.1362,0.31,0.685,0.1458
16:46:28:403,-0.1783,3.0233,5.4816,36.1403,-0.1948,0.1609,0.6421,0.1484
16:46:28:421,0.3844,3.4542,5.7211,35.4606,-0.2185,0.0743,0.6336,0.1487
16:46:28:441,0.8345,3.6506,5.7199,35.8832,-0.2848,0.0828,0.5532,0.1479
16:46:28:462,0.9829,3.7128,6.0455,35.104,-0.4379,0.0165,0.4174,0.1466
16:46:28:482,1.2128,3.8768,6.8236,34.7141,-0.619,-0.0615,0.2291,0.145
16:46:28:504,0.8297,3.6494,7.8914,34.7016,-0.7602,-0.0847,-0.0282,0.1421
16:46:28:525,-0.1088,3.4483,9.3124,33.9477,-0.8108,-0.1068,-0.2767,0.1375
16:46:28:543,-1.5801,3.5464,10.8315,33.1065,-0.7314,0.0099,-0.4442,0.1307
16:46:28:563,-3.3985,3.6422,11.8742,32.6565,-0.562,0.0948,-0.4516,0.1268
16:46:28:583,-4.5932,3.5069,12.3985,33.1666,-0.4076,0.0341,-0.2929,0.1188
16:46:28:606,-4.4459,2.961,12.5194,31.3368,-0.3839,-0.1001,-0.0825,0.1111
16:46:28:622,-3.663,2.3134,13.0797,31.1596,-0.4558,-0.2458,0.0272,0.1051
16:46:28:646,-2.7341,2.0728,13.9511,30.6582,-0.3583,-0.3989,0.0171,0.1008
16:46:28:666,-1.4568,2.2931,14.3905,31.1224,-0.0092,-0.5042,-0.0849,0.0948
16:46:28:683,-0.5984,2.8329,14.4743,31.0501,0.4572,-0.33,-0.2687,0.0904
16:46:28:702,-0.9995,3.4111,13.7799,30.2801,0.8806,0.0842,-0.3989,0.0882
16:46:28:737,-1.5693,3.5739,12.2991,31.0583,1.0894,0.3159,-0.3656,0.09
16:46:28:742,-1.5693,3.9953,10.8399,31.4425,0.9895,0.1433,-0.2996,0.0964
16:46:28:762,-1.4041,3.0903,9.3974,30.1171,0.4716,-0.3185,-0.2303,0.1061
16:46:28:783,-0.1974,1.248,9.5434,29.3497,-0.3189,-1.1915,-0.1526,0.1161
16:46:28:803,1.7407,0.1191,11.4624,30.7076,-0.8054,-1.7188,-0.2505,0.1235
16:46:28:822,2.2423,0.27,13.2424,29.3014,-0.6563,-1.4549,-0.5605,0.1237
16:46:28:842,0.9614,0.3777,12.9659,29.0871,-0.0629,-0.7566,-0.8732,0.1169
16:46:28:863,-0.5625,-0.1754,10.3048,29.7985,0.4926,-0.2876,-1.0042,0.1077
16:46:28:883,-1.0952,-0.6662,7.7274,29.7996,0.6226,-0.2711,-0.9898,0.1027
16:46:28:903,-0.8067,-0.8601,6.3878,28.0354,0.3943,-0.4253,-0.9475,0.1043
16:46:28:922,-0.4404,-0.6255,6.7195,28.1066,0.1016,-0.4607,-0.9147,0.1094
16:46:28:942,-0.5362,0.1885,7.9991,28.8173,0.0601,-0.2101,-0.9249,0.1139
16:46:28:963,-1.1443,0.8625,8.4038,28.5039,0.3466,0.1526,-0.9709,0.1152
16:46:28:984,-2.0362,1.3222,7.8375,29.2826,0.7059,0.4173,-1.004,0.1148
16:46:29:002,-3.0345,1.5317,7.0091,28.7552,0.8447,0.4831,-0.9574,0.1161
16:46:29:024,-4.0377,1.3701,6.6249,29.3095,0.6606,0.3084,-0.7872,0.1213
16:46:29:042,-4.501,1.0636,7.2545,26.369,0.3158,-0.0775,-0.543,0.129
16:46:29:062,-3.997,0.9571,8.8874,28.2882,0.123,-0.473,-0.3249,0.137
16:46:29:084,-2.9316,1.5485,10.446,28.6606,0.2375,-0.5894,-0.2029,0.1415
16:46:29:102,-2.3941,2.5337,10.7513,27.6365,0.5531,-0.3563,-0.1448,0.1426
16:46:29:122,-2.2708,3.0377,9.7218,29.1198,0.7531,-0.139,-0.0705,0.1429
16:46:29:142,-2.2492,3.0436,8.8311,28.4829,0.5845,-0.0871,0.0302,0.1457
16:46:29:163,-2.1535,2.9574,8.8694,27.6507,0.21,-0.2197,0.0706,0.152
16:46:29:183,-2.1846,3.386,9.9169,27.8696,-0.0848,-0.3728,0.0325,0.1607
16:46:29:202,-2.4863,3.7631,10.5765,26.5176,-0.2313,-0.2863,-0.03,0.1624
16:46:29:222,-3.3063,2.955,10.5969,25.7387,-0.3791,-0.2506,-0.0375,0.1609
16:46:29:243,-3.9288,1.7208,11.2158,27.4243,-0.5812,-0.3257,0.0206,0.1583
16:46:29:264,-4.7153,1.2923,12.5912,27.3103,-0.5847,-0.4072,0.1646,0.1542
16:46:29:285,-4.8673,1.2444,13.1646,26.2787,-0.3213,-0.2855,0.4097,0.148
16:46:29:304,-4.1778,0.9511,12.0382,27.7503,-0.0382,-0.0189,0.7636,0.142
16:46:29:322,-2.5749,0.4136,10.1575,25.8611,0.0098,0.1393,1.0246,0.142
16:46:29:342,-1.1659,0.1682,9.5614,25.8318,-0.1918,0.1664,1.0339,0.1382
16:46:29:364,-2.3905,-0.1454,10.8411,27.5616,-0.2795,0.4376,0.5889,0.1387
16:46:29:385,-3.5912,0.2017,10.2509,25.9545,0.0116,0.6123,0.5942,0.1387
16:46:29:404,-2.928,0.9391,8.7856,27.54,0.2202,0.722,0.8054,0.132
16:46:29:422,-1.701,1.6933,7.2294,29.264,0.206,0.8344,0.9945,0.132
16:46:29:442,-0.6236,2.1267,6.1484,26.6174,0.0002,0.8591,1.1053,0.133
16:46:29:462,0.2443,2.2368,5.6983,27.3026,-0.2773,0.7838,1.105,0.1363
16:46:29:485,0.8118,2.2775,5.7737,28.0269,-0.5058,0.6983,0.9814,0.1396
16:46:29:502,0.9506,2.3445,6.1664,27.9488,-0.6467,0.6003,0.7892,0.1408
16:46:29:521,0.7232,2.2224,6.571,27.1054,-0.7072,0.4189,0.5833,0.1393
16:46:29:541,0.3209,2.1709,7.0917,27.2254,-0.6898,0.2639,0.4179,0.1354
16:46:29:562,-0.365,2.2607,7.5586,26.6191,-0.6129,0.2141,0.3226,0.1302
16:46:29:583,-1.0067,2.3373,7.8866,26.5516,-0.5159,0.1995,0.3516,0.1238
16:46:29:604,-1.0881,2.5624,8.0554,28.6617,-0.4315,0.208,0.4275,0.1175
16:46:29:621,-1.0126,2.6845,8.32,26.7858,-0.4012,0.1779,0.4967,0.112
16:46:29:641,-0.8498,2.8246,8.8455,25.5558,-0.3988,0.119,0.5178,0.1052
16:46:29:662,-1.045,2.9622,9.5398,25.489,-0.35,0.0831,0.468,0.1016
16:46:29:686,-1.3706,3.1334,10.118,26.1168,-0.2523,0.0405,0.4254,0.0983
16:46:29:701,-1.4975,3.0975,10.4041,26.1168,-0.1716,-0.0365,0.4001,0.0949
16:46:29:721,-1.2353,3.2196,10.5418,23.9367,-0.1732,-0.1481,0.3455,0.0922
16:46:29:741,-1.1228,3.1753,10.792,25.8794,-0.2928,-0.3103,0.2424,0.0906
16:46:29:762,-1.1228,2.7994,11.2984,25.0168,-0.4922,-0.4903,0.1369,0.0894
16:46:29:787,-1.0677,2.2895,12.2824,24.0397,-0.6662,-0.6397,0.0437,0.0874
16:46:29:802,-1.2592,1.9028,13.428,24.4878,-0.6875,-0.6192,-0.005,0.0837
16:46:29:823,-1.373,1.8094,14.5461,23.906,-0.4915,-0.4812,0.0107,0.0781
16:46:29:842,-1.1347,2.5373,14.9938,24.4966,-0.0797,-0.2413,0.0648,0.0711
16:46:29:861,-1.1611,2.5492,13.9667,25.7217,0.368,0.0514,0.1817,0.0649
16:46:29:884,-0.9109,2.5061,12.7277,24.5974,0.6015,0.073,0.3644,0.062
16:46:29:903,0.528,3.149,11.6216,25.0622,0.5824,-0.0272,0.4832,0.0636
16:46:29:923,1.864,2.5875,10.3107,24.6976,0.202,-0.1835,0.4421,0.0689
16:46:29:942,2.8684,0.8482,9.9277,24.9529,-0.4619,-0.698,0.231,0.075
16:46:29:963,3.5088,-0.7404,11.4887,26.0079,-0.9652,-1.2645,-0.0902,0.0797
16:46:29:984,3.5782,-1.2827,13.6866,23.7272,-0.9117,-1.2583,-0.4175,0.0787
16:46:30:002,3.0898,-0.5728,14.6263,24.4404,-0.2195,-0.5659,-0.6823,0.0713
16:46:30:022,2.6589,0.6255,12.7768,23.6255,0.8148,0.2836,-0.9115,0.0667
16:46:30:042,2.7355,1.3055,9.3387,24.52,1.6953,0.7342,-1.2058,0.0576
16:46:30:062,2.5547,1.6813,5.9725,23.0553,2.0995,0.7076,-1.6048,0.058
16:46:30:085,0.9434,1.2779,3.0144,25.1854,1.8774,0.489,-2.0136,0.0702
16:46:30:102,-1.2173,-0.3765,1.5564,25.0778,0.9456,-0.1364,-2.1382,0.0897
16:46:30:122,-2.2516,-2.0345,3.607,24.495,-0.4057,-1.0208,-1.8024,0.1099
16:46:30:142,-1.2808,-2.2691,8.2469,23.021,-1.3114,-1.5814,-1.4215,0.1235
16:46:30:163,-0.8726,-1.3773,12.6547,24.8022,-1.239,-1.29,-1.1925,0.1251
16:46:30:184,-1.1335,-0.1838,14.5652,22.8375,-0.3993,-0.5526,-1.0253,0.1137
16:46:30:204,-1.1671,0.1371,13.5752,23.1881,0.7056,0.1134,-0.9004,0.098
16:46:30:223,-1.4412,-0.0557,10.6986,23.3587,1.4622,0.493,-0.8532,0.0886
16:46:30:242,-2.2313,0.5297,8.5786,23.4301,1.5943,0.5547,-0.7744,0.0899
16:46:30:262,-2.9591,1.5556,7.9094,24.1334,1.3259,0.4322,-0.5896,0.1017
16:46:30:285,-3.2608,2.4463,8.0722,23.6177,0.9248,0.2815,-0.3629,0.1174
16:46:30:303,-3.3147,2.9072,8.8323,22.5167,0.5459,0.0905,-0.1866,0.1328
16:46:30:323,-3.1195,3.1598,10.0127,24.3774,0.3078,-0.102,-0.0849,0.1443
16:46:30:341,-2.843,3.5536,10.7441,23.5797,0.2686,-0.11,-0.0828,0.1513
16:46:30:362,-2.5378,4.1905,10.8279,24.2859,0.3072,0.024,-0.1009,0.1552
16:46:30:384,-2.6814,4.0229,10.2545,24.5816,0.2284,0.1907,-0.0689,0.1575
16:46:30:402,-3.08,3.2076,10.2677,25.6884,-0.0131,0.2375,0.0051,0.1603
16:46:30:422,-3.6247,2.8246,11.2696,23.4074,-0.1935,0.2887,0.0882,0.1631
16:46:30:442,-4.4974,2.7132,11.7521,23.1772,-0.1173,0.5912,0.2453,0.1647
16:46:30:462,-5.066,2.3062,10.9871,24.4975,0.0774,0.8959,0.5087,0.1638
16:46:30:486,-4.7069,1.752,9.8546,22.3005,0.2582,0.9771,0.7753,0.1631
16:46:30:504,-3.6331,1.4228,8.7162,24.013,0.3134,1.0637,0.8983,0.1655
16:46:30:523,-3.8366,0.8386,7.8782,25.6904,0.1304,1.2269,0.8323,0.1698
16:46:30:542,-4.8182,-0.3358,7.798,25.8411,-0.2334,1.0892,0.7564,0.1746
16:46:30:563,-5.2264,-1.0636,8.7294,25.486,-0.497,0.7361,0.7356,0.1779
16:46:30:585,-4.6183,-0.3573,9.6152,25.0707,-0.4262,0.4953,0.7242,0.1743
16:46:30:603,-2.9699,1.5473,7.9417,25.82,-0.1391,0.5153,0.7628,0.1712
16:46:30:623,-2.0745,2.0524,6.6464,25.8604,0.0889,0.8469,1.0315,0.171
16:46:30:643,-1.4029,2.475,5.6445,25.2223,-0.0078,0.8687,1.0938,0.1729
16:46:30:662,-0.7313,2.7934,5.1177,24.9811,-0.1844,0.7089,1.0683,0.1754
16:46:30:685,-0.189,2.9814,5.0854,27.1578,-0.4014,0.4442,0.9649,0.1754
16:46:30:704,0.042,3.1083,5.4816,24.8135,-0.5836,0.2359,0.8176,0.1768
16:46:30:722,-0.2884,3.1705,6.0646,26.1498,-0.7037,0.1249,0.6962,0.1741
16:46:30:769,-0.6954,3.0831,6.6117,26.0363,-0.7737,0.029,0.6424,0.1694
16:46:30:770,-0.875,3.2029,7.3383,27.5559,-0.8206,-0.0623,0.6339,0.1694
16:46:30:786,-0.7182,3.4519,8.1021,28.0013,-0.8164,-0.0916,0.632,0.1633
16:46:30:803,-0.474,3.6817,8.7821,27.1624,-0.753,-0.0565,0.5971,0.1569
16:46:30:822,-0.5111,3.7068,9.5446,27.7741,-0.6595,-0.0264,0.5063,0.1495
16:46:30:841,-0.9252,3.9355,10.3646,26.7885,-0.4925,-0.0005,0.3836,0.1421
16:46:30:863,-1.5753,4.5711,10.6723,27.7835,-0.2944,0.1129,0.2805,0.1357
16:46:30:884,-2.3127,4.856,10.2988,26.5983,-0.2566,0.0759,0.2275,0.1297
16:46:30:904,-2.4396,4.4706,10.3742,26.0512,-0.4829,-0.2304,0.2376,0.1237
16:46:30:922,-2.0122,3.8864,11.4827,27.498,-0.7772,-0.6115,0.219,0.1217
16:46:30:942,-1.7596,3.2591,13.021,27.6305,-0.9029,-0.8908,0.1582,0.1185
16:46:30:961,-1.1431,2.5181,14.5425,24.9765,-0.8073,-0.9755,0.1188,0.1125
16:46:30:985,-0.468,2.657,15.9108,27.3306,-0.4579,-0.7809,0.0688,0.1047
16:46:31:002,-0.0909,3.3142,15.9802,27.6335,0.1187,-0.3838,0.0416,0.0964
16:46:31:030,0.534,2.815,14.1523,27.7746,0.6111,0.0325,0.0562,0.09
16:46:31:041,0.971,2.2488,12.6487,29.3673,0.7131,0.0871,-0.0069,0.0884
16:46:31:061,1.3768,2.2667,12.1244,29.1848,0.6058,-0.0341,-0.1185,0.0923
16:46:31:083,1.5384,1.7149,11.6264,29.4344,0.4436,-0.1553,-0.262,0.0957
16:46:31:102,1.9167,1.2037,11.3642,30.9114,0.2902,-0.3388,-0.4253,0.1028
16:46:31:121,2.0232,0.9224,11.1296,29.765,0.2329,-0.3979,-0.6351,0.1087
16:46:31:141,1.4881,0.5884,10.4771,31.4172,0.2375,-0.2858,-0.8519,0.1127
16:46:31:161,0.4801,0.0365,9.5422,30.5648,0.2151,-0.2365,-1.0295,0.1174
16:46:31:185,-0.4261,-0.4411,8.7785,30.5576,0.1594,-0.3143,-1.114,0.1174
16:46:31:209,-0.9217,-0.5309,8.4073,32.1718,0.1525,-0.3529,-1.1454,0.1191
16:46:31:220,-1.2652,-0.3861,8.3535,31.4581,0.254,-0.2935,-1.1568,0.1207
16:46:31:241,-1.5621,0.0473,8.0231,32.4968,0.4686,-0.1824,-1.1715,0.1215
16:46:31:262,-2.0709,0.5908,7.3599,33.3829,0.6835,-0.0234,-1.1547,0.1223
16:46:31:285,-2.3055,1.4084,6.5973,31.7663,0.7994,0.0623,-1.0532,0.1241
16:46:31:302,-2.1259,2.0536,5.9222,31.8994,0.7565,0.0498,-0.9137,0.1281
16:46:31:321,-1.6208,2.4439,5.5738,33.1306,0.5512,-0.0543,-0.7848,0.1375
16:46:31:341,-1.2461,2.5265,6.0431,31.7956,0.2154,-0.1904,-0.7488,0.1448
16:46:31:361,-1.6423,2.5145,7.5335,32.4107,-0.0478,-0.3236,-0.7803,0.1511
16:46:31:380,-2.3175,2.8641,8.903,33.8552,-0.0627,-0.3175,-0.7688,0.1542
16:46:31:401,-2.9831,3.1598,9.6739,36.0365,0.0292,-0.2653,-0.6439,0.1541
16:46:31:422,-3.1997,3.155,9.8702,34.5429,0.1,-0.175,-0.4114,0.1525
16:46:31:441,-2.831,2.8808,9.9337,34.6508,0.083,-0.1515,-0.1877,0.1516
16:46:31:462,-2.3965,2.7803,10.6531,33.5335,0.0273,-0.2005,-0.0937,0.1518
16:46:31:484,-2.7832,2.5756,11.4815,34.657,0.0401,-0.2493,-0.0964,0.1525
16:46:31:504,-3.2069,2.463,11.8191,35.9424,0.1411,-0.2408,-0.0759,0.1527
16:46:31:522,-3.0669,2.8449,11.3043,37.4889,0.2628,-0.1326,-0.0109,0.1526
16:46:31:541,-2.9711,3.2974,10.1934,36.6858,0.2319,0.1103,0.0587,0.153
16:46:31:562,-3.3913,2.8473,9.3603,37.4273,-0.0683,0.2099,0.1407,0.1547
16:46:31:584,-3.3985,2.4463,10.2569,38.5505,-0.4289,-0.0181,0.1742,0.1573
16:46:31:604,-3.7923,2.0512,11.6707,38.5102,-0.5306,-0.179,0.1843,0.1587
16:46:31:621,-4.2149,1.9746,12.1639,38.9804,-0.3934,-0.0551,0.2975,0.1563
16:46:31:641,-3.9192,1.4252,11.2182,37.7526,-0.2025,0.0647,0.4941,0.1511
16:46:31:661,-2.9244,0.9176,10.1779,39.0626,-0.1753,0.0991,0.6408,0.1466
16:46:31:680,-2.448,0.8685,10.2928,37.7526,-0.2683,0.2152,0.6813,0.1439
16:46:31:701,-3.2955,0.4375,10.3586,39.5228,-0.304,0.4384,0.6602,0.1426
16:46:31:721,-4.3502,-0.4782,9.9564,39.7508,-0.3136,0.4282,0.6589,0.141
16:46:31:741,-4.4471,-0.8649,10.0402,40.3825,-0.2848,0.188,0.7359,0.1387
16:46:31:762,-3.5888,0.1287,10.294,38.4339,-0.1074,0.1555,0.8515,0.1353
16:46:31:784,-2.8215,1.017,9.4979,40.5192,0.1765,0.3997,1.0161,0.1331
16:46:31:805,-2.2756,1.3725,7.9393,40.4994,0.3536,0.6623,1.2043,0.1326
16:46:31:822,-1.6184,1.6131,6.571,39.9167,0.3112,0.7409,1.3519,0.1351
16:46:31:841,-0.8319,1.8034,5.994,39.9893,0.124,0.5734,1.4169,0.1395
16:46:31:861,-0.1579,1.8022,6.1137,40.6115,-0.0763,0.2605,1.3812,0.1437
16:46:31:884,0.625,2.1374,6.7578,41.1009,-0.1676,-0.0152,1.2813,0.146
16:46:31:903,1.3624,2.4762,7.1408,41.1723,-0.1413,-0.0394,1.1814,0.1462
16:46:31:922,2.0065,2.7899,6.9589,41.5026,-0.072,0.1752,1.0837,0.1454
16:46:31:940,2.3835,3.0628,6.2406,41.1987,-0.0331,0.3987,0.9479,0.1447
16:46:31:960,3.1413,3.6302,5.6468,41.9521,-0.1165,0.473,0.7359,0.1447
16:46:31:982,3.8536,4.0624,5.7175,42.1445,-0.3671,0.5326,0.3769,0.1448
16:46:32:001,3.0013,3.9917,6.6763,42.6709,-0.6635,0.5923,-0.0974,0.144
16:46:32:022,0.9626,3.5356,7.9165,42.3715,-0.8177,0.6674,-0.4399,0.1404
16:46:32:041,-1.2485,3.1526,8.8239,43.6037,-0.8073,0.7004,-0.5454,0.1339
16:46:32:060,-2.9064,3.1789,9.6895,44.7674,-0.72,0.5907,-0.4476,0.1251
16:46:32:083,-3.7923,3.5105,10.6687,45.9207,-0.6387,0.4578,-0.2263,0.1165
16:46:32:102,-3.6894,3.7451,11.7652,45.707,-0.6001,0.335,0.0459,0.1024
16:46:32:121,-2.9496,2.7611,14.2229,46.7678,-0.4707,-0.0136,0.1819,0.1024
16:46:32:142,-2.3833,1.904,15.5157,45.6319,-0.2297,-0.2554,0.1159,0.091
16:46:32:162,-1.6016,2.0596,16.4914,46.8321,0.2124,-0.2237,-0.0274,0.091
16:46:32:182,-1.1599,3.3609,16.5022,45.805,0.7959,0.0543,-0.201,0.0853
16:46:32:202,-1.1276,3.8816,14.916,47.1279,1.3211,0.2477,-0.2921,0.0848
16:46:32:222,-0.5793,3.635,12.8079,46.0856,1.5083,0.2051,-0.2639,0.0869
16:46:32:242,0.4083,4.1282,11.3941,47.3924,1.3563,0.0458,-0.2825,0.0942
16:46:32:260,0.9135,4.151,10.2078,48.1067,0.9925,-0.2256,-0.3872,0.1069
16:46:32:282,1.4151,3.07,9.5973,47.901,0.4705,-0.7233,-0.5126,0.1215
16:46:32:301,1.846,2.0321,9.8152,48.5562,0.009,-1.1883,-0.7219,0.1339
16:46:32:320,1.4259,1.491,10.3107,48.9253,-0.1463,-1.2637,-0.9789,0.1433
16:46:32:340,0.4778,1.3569,10.0534,48.6697,-0.0092,-1.0858,-1.1105,0.1475
16:46:32:360,-0.0107,1.3138,8.8658,50.6955,0.2569,-0.7372,-1.118,0.147
16:46:32:380,-0.6152,0.9846,6.972,49.3473,0.4092,-0.4075,-1.1257,0.1448
16:46:32:400,-1.349,0.2963,5.5547,50.9281,0.2825,-0.404,-1.1251,0.1437
16:46:32:423,-1.5202,-0.07,5.5367,49.947,-0.0326,-0.7337,-1.066,0.1453
16:46:32:441,-1.4221,0.1514,6.498,50.5368,-0.2496,-0.9561,-1.0314,0.1483
16:46:32:461,-1.3921,0.5836,7.1396,52.2403,-0.2129,-0.7982,-1.0199,0.1501
16:46:32:482,-1.3167,1.0241,7.1528,50.9008,-0.0539,-0.5974,-1.0641,0.1488
16:46:32:504,-1.3215,1.2947,6.9134,52.6564,0.0119,-0.6096,-1.0996,0.1453
16:46:32:520,-1.2712,1.0792,6.8787,53.4441,-0.1186,-0.7018,-1.0543,0.1421
16:46:32:540,-1.7608,0.7189,7.6436,53.3872,-0.346,-0.6693,-0.9808,0.1406
16:46:32:560,-2.284,0.9236,9.2932,55.6935,-0.4299,-0.5891,-0.8434,0.1396
16:46:32:580,-2.199,1.5916,10.4496,55.0321,-0.2715,-0.3494,-0.6671,0.1329
16:46:32:602,-2.193,2.2033,10.5047,55.4336,-0.0046,-0.0463,-0.5451,0.1277
16:46:32:620,-2.6539,2.4535,9.8199,55.1753,0.1285,0.0879,-0.4135,0.1259
16:46:32:641,-2.8011,2.3206,9.5326,55.1753,0.0066,0.0144,-0.2372,0.1242
16:46:32:660,-2.8203,2.153,10.2724,56.9224,-0.2701,-0.1302,-0.1025,0.1251
16:46:32:680,-3.4128,1.8597,11.4743,57.5899,-0.459,-0.2312,-0.0031,0.1261
16:46:32:705,-3.6774,1.9974,12.6547,58.2831,-0.4587,-0.2123,0.1473,0.1248
16:46:32:723,-3.4392,2.6115,12.9288,56.5128,-0.293,0.0005,0.3271,0.1207
16:46:32:741,-3.2345,2.2823,11.8694,57.9789,-0.1314,0.2136,0.4914,0.1156
16:46:32:790,-2.8514,1.6586,10.95,58.7835,-0.2222,0.1696,0.6006,0.1118
16:46:32:792,-2.6347,1.5329,11.5426,59.3085,-0.4169,0.0687,0.6376,0.1102
16:46:32:803,-2.8921,1.2983,12.1495,58.6512,-0.4494,0.1364,0.6499,0.1092
16:46:32:822,-2.9029,0.088,11.5605,59.2792,-0.3799,0.1188,0.6592,0.1064
16:46:32:840,-2.4013,-0.7236,11.2732,59.4582,-0.3543,-0.009,0.6182,0.1022
16:46:32:859,-2.2038,-0.8541,11.7748,59.3592,-0.3114,-0.0083,0.5718,0.0984
16:46:32:880,-2.8047,-1.2372,11.8658,59.2031,-0.1626,0.1784,0.5689,0.0951
16:46:32:900,-3.3949,-1.3593,11.2325,59.159,0.0846,0.3885,0.6198,0.0919
16:46:32:920,-3.5361,-0.7177,10.0402,60.4169,0.3427,0.5531,0.7114,0.0897
16:46:32:940,-2.9855,0.2628,8.5414,60.4648,0.4561,0.6045,0.8302,0.0896
16:46:32:960,-2.4587,0.8817,7.3934,59.9965,0.3666,0.5579,0.9138,0.0923
16:46:32:980,-2.0625,1.2121,6.8128,60.4307,0.1743,0.4381,0.9923,0.0974
16:46:33:002,-1.6088,1.3485,6.5566,60.5684,-0.0254,0.3254,1.0539,0.1025
16:46:33:020,-1.5466,1.2647,6.6716,59.9723,-0.2052,0.2197,1.0746,0.1058
16:46:33:039,-1.3466,1.3545,7.1121,60.8019,-0.3109,0.0991,1.1029,0.1072
16:46:33:059,-0.9863,1.4754,7.3934,61.4604,-0.3186,0.0415,1.0981,0.1057
16:46:33:080,-0.7397,1.333,7.2258,59.2008,-0.3074,-0.0107,1.0746,0.1033
16:46:33:100,-0.1675,1.157,7.1863,60.9179,-0.3761,-0.11,1.0611,0.1006
16:46:33:120,0.7543,1.096,7.8651,60.3282,-0.4662,-0.2208,1.0251,0.098
16:46:33:140,1.7682,1.4383,8.8814,61.7367,-0.452,-0.159,0.9393,0.0949
16:46:33:159,2.5392,2.0668,9.7206,60.589,-0.293,0.1893,0.7902,0.0907
16:46:33:179,2.7403,2.402,9.869,60.2695,-0.0611,0.5899,0.5817,0.0866
16:46:33:201,1.8568,2.2978,9.547,62.9362,0.1602,0.8778,0.329,0.0839
16:46:33:221,0.6465,2.4367,9.3543,60.2663,0.349,0.8924,0.154,0.0834
16:46:33:241,-0.2836,2.9586,9.0646,62.7831,0.4614,0.7241,0.0531,0.0849
16:46:33:260,-0.9887,3.5476,8.8072,62.4125,0.4114,0.4783,0.0126,0.0881
16:46:33:280,-1.2784,4.0504,9.0071,63.97,0.1674,0.155,0.0504,0.0922
16:46:33:300,-0.8917,4.2156,9.8523,61.7216,-0.149,-0.2216,0.0791,0.0961
16:46:33:320,-0.359,3.7547,11.0601,63.3483,-0.3849,-0.5105,0.0155,0.0978
16:46:33:341,-0.4213,2.979,12.1615,62.3368,-0.4488,-0.6397,-0.099,0.0966
16:46:33:363,-0.5146,2.8725,13.5381,62.6319,-0.3191,-0.6983,-0.1712,0.0887
16:46:33:380,-0.0753,3.884,14.4874,63.0193,0.026,-0.5936,-0.1837,0.0869
16:46:33:400,1.0715,5.0344,12.3446,63.0125,0.5943,-0.1883,-0.2444,0.0854
16:46:33:421,1.3852,3.7906,10.3299,63.3036,0.3549,-0.5007,-0.4205,0.0878
16:46:33:440,1.8987,1.5449,10.1156,62.8062,-0.3018,-1.0778,-0.523,0.0932
16:46:33:460,3.2826,-0.1885,12.1028,61.8391,-0.897,-1.5542,-0.5898,0.0994
16:46:33:486,3.9661,-0.9667,14.5317,62.1084,-0.9415,-1.3809,-0.7153,0.0964
16:46:33:502,3.2107,-0.9032,15.0668,62.1281,-0.4185,-0.4815,-0.8599,0.0964
16:46:33:521,1.4989,-1.2695,12.6319,63.4124,0.2135,0.3678,-0.9291,0.0876
16:46:33:540,0.3616,-1.7328,9.717,64.9972,0.4476,0.4538,-0.9166,0.0787
16:46:33:561,0.4179,-1.3557,8.5019,64.2966,0.3855,0.2149,-0.9502,0.0745
16:46:33:580,-0.2609,-0.6853,8.8371,62.1343,0.3624,0.2112,-1.0032,0.0767
16:46:33:601,-1.1347,0.1861,8.9413,63.2969,0.5656,0.4772,-0.9475,0.0812
16:46:33:620,-1.6674,1.0505,7.9177,62.73,0.9389,0.7366,-0.8514,0.0849
16:46:33:639,-1.6016,1.5939,6.1999,63.8869,1.1773,0.8626,-0.8285,0.0884
16:46:33:659,-1.3251,1.8034,5.0555,63.7707,1.0814,0.6051,-0.9179,0.0942
16:46:33:681,-1.0928,1.8585,5.0579,63.368,0.6686,-0.0195,-1.0871,0.1033
16:46:33:701,-1.5813,1.3605,6.5088,63.4052,0.1757,-0.5918,-1.2056,0.1153
16:46:33:722,-2.4228,0.7332,8.5773,63.4546,-0.1471,-0.9012,-1.1251,0.1261
16:46:33:740,-2.5545,0.7021,10.5083,63.553,-0.1615,-0.8496,-0.8871,0.132
16:46:33:759,-2.1631,1.3904,11.4851,63.9382,0.1195,-0.4384,-0.6564,0.1328
16:46:33:779,-1.9607,1.8418,11.2612,62.3584,0.4857,0.0261,-0.4737,0.13
16:46:33:803,-1.8698,2.0357,10.0665,62.3611,0.6697,0.2932,-0.3392,0.1272
16:46:33:820,-2.0014,2.2404,9.0586,62.8357,0.565,0.2434,-0.2958,0.1277
16:46:33:840,-2.2612,2.5421,8.9592,61.6284,0.319,-0.0221,-0.2793,0.1324
16:46:33:860,-1.9631,3.2675,9.3148,62.2125,0.1448,-0.1129,-0.2394,0.1393
16:46:33:880,-2.0206,3.8912,9.2286,61.5151,0.0494,0.131,-0.1675,0.1479
16:46:33:904,-2.9053,3.374,8.7533,62.304,-0.1799,0.3854,0.0006,0.1486
16:46:33:921,-3.5469,2.1195,9.1543,62.0539,-0.5703,0.3047,0.2054,0.1495
16:46:33:949,-4.5716,1.4228,10.6902,63.2062,-0.7934,0.1936,0.3463,0.1495
16:46:33:960,-5.4335,0.8625,11.3618,61.767,-0.6909,0.2586,0.5167,0.1464
16:46:33:979,-5.0708,0.2532,10.6866,62.2428,-0.4821,0.2101,0.7258,0.1398
16:46:34:000,-3.7193,-0.0521,9.7948,61.1551,-0.4086,0.0794,0.8371,0.133
16:46:34:023,-3.0417,-0.0521,9.8882,61.7712,-0.4701,0.0511,0.86,0.1278
16:46:34:043,-3.2704,-0.1251,10.142,61.8616,-0.5082,0.2112,0.8858,0.1241
16:46:34:060,-4.0365,-0.5441,9.8487,62.4015,-0.484,0.3859,0.9655,0.1205
16:46:34:080,-4.5501,-1.0684,9.7349,62.504,-0.4339,0.4314,1.1721,0.116
16:46:34:102,-4.2568,-0.8541,10.057,62.4465,-0.312,0.5412,1.5229,0.1117
16:46:34:122,-2.4863,0.3693,10.051,61.7252,-0.0824,0.8714,1.8313,0.1079
16:46:34:141,-0.8115,1.2923,8.903,60.5323,0.1701,1.1974,1.8659,0.1052
16:46:34:160,0.2611,1.6502,7.0774,60.7593,0.2196,1.1523,1.5759,0.1044
16:46:34:180,0.886,1.6287,5.8875,62.3812,-0.0177,0.5385,1.0704,0.1064
16:46:34:201,0.8776,1.5281,6.1808,61.0825,-0.3903,-0.2674,0.5692,0.11
16:46:34:220,0.4059,1.6358,7.5574,61.8511,-0.6832,-0.595,0.2768,0.1123
16:46:34:239,-0.5099,1.8489,8.8862,60.3502,-0.7,-0.4402,0.2408,0.111
16:46:34:259,-1.3466,2.0333,9.5769,60.644,-0.484,0.0932,0.4256,0.106
16:46:34:280,-1.4651,2.1566,9.1352,60.2067,-0.1831,0.5779,0.6533,0.0991
16:46:34:301,-1.2209,2.5313,8.077,59.9015,-0.0193,0.767,0.7503,0.0932
16:46:34:319,-0.93,2.7683,7.4473,60.0456,-0.0845,0.6213,0.7282,0.0902
16:46:34:340,-0.9384,2.7923,7.7154,60.1893,-0.2933,0.3651,0.6496,0.09
16:46:34:361,-1.2413,2.6833,9.0155,59.6492,-0.4254,0.1939,0.5902,0.0895
16:46:34:382,-1.349,2.8868,10.1467,60.7555,-0.3183,0.1196,0.5399,0.0871
16:46:34:402,-1.1611,3.2316,10.3131,61.8943,-0.1085,0.0546,0.4872,0.0833
16:46:34:422,-1.0019,3.0891,10.1001,60.4495,-0.0472,-0.0714,0.4595,0.0805
16:46:34:442,-0.4249,3.0233,10.3431,63.0028,-0.1514,-0.2565,0.4499,0.0798
16:46:34:460,0.3425,2.9742,11.0146,60.7663,-0.321,-0.4072,0.403,0.0798
16:46:34:480,0.5975,2.6187,11.7401,60.5033,-0.4587,-0.3963,0.28,0.0789
16:46:34:499,-0.0981,1.6358,12.8498,59.9738,-0.5322,-0.343,0.1572,0.0778
16:46:34:519,-0.5853,1.4383,14.7029,59.7025,-0.4283,-0.3396,0.1207,0.0747
16:46:34:539,-0.3255,2.3553,15.9838,59.299,-0.0014,-0.1305,0.1519,0.0701
16:46:34:560,0.4562,2.9203,15.2272,60.8977,0.532,0.1707,0.1753,0.0654
16:46:34:580,1.3983,2.9311,13.5166,60.3322,0.7959,0.1649,0.0877,0.0632
16:46:34:608,2.0148,2.9359,12.11,59.5595,0.6966,-0.0115,-0.0942,0.0729
16:46:34:623,2.611,0.7572,11.2756,58.7571,-0.1349,-0.6767,-0.5539,0.0807
16:46:34:642,2.69,-0.3896,12.4679,59.9026,-0.4227,-0.9342,-0.8375,0.0858
16:46:34:661,1.7934,-0.8314,13.4519,58.0202,-0.3173,-0.6791,-1.1078,0.0867
16:46:34:682,-0.547,-0.7799,12.7133,58.7293,0.1507,-0.2184,-1.2564,0.0839
16:46:34:704,-2.6167,-0.477,10.4448,57.0743,0.666,0.1553,-1.1933,0.0799
16:46:34:722,-3.3051,-0.094,7.7513,57.5485,0.8822,0.2442,-1.0218,0.0785
16:46:34:742,-3.0513,0.1443,6.0108,57.2866,0.6926,0.0645,-0.9036,0.0856
16:46:34:760,-2.7305,0.4483,6.0263,57.2518,0.3331,-0.2714,-0.8665,0.0934
16:46:34:803,-2.5557,0.981,7.233,56.9738,0.153,-0.5124,-0.8745,0.0999
16:46:34:803,-2.2828,1.4635,8.0219,56.1762,0.2883,-0.5675,-0.8703,0.1027
16:46:34:820,-1.4592,1.8944,7.5347,56.4834,0.511,-0.4967,-0.8372,0.1038
16:46:34:841,-0.4356,2.2416,6.4681,56.5653,0.4798,-0.5481,-0.8221,0.1061
16:46:34:859,0.461,2.305,6.5614,55.2871,0.1142,-0.6285,-0.7925,0.1107
16:46:34:879,0.3796,1.7639,8.0315,56.7019,-0.3175,-0.6605,-0.7235,0.1151
16:46:34:901,-0.3147,1.0086,10.5789,55.594,-0.4715,-0.7287,-0.5472,0.1151
16:46:34:924,-0.1471,1.1678,12.5002,56.1164,-0.0869,-0.5758,-0.3794,0.112
16:46:34:940,0.0276,1.2887,12.1483,54.8832,0.6167,-0.0437,-0.3118,0.112
16:46:34:961,-0.3662,1.3509,10.0486,55.8596,1.1523,0.4943,-0.2948,0.1056
16:46:34:979,-0.8702,1.722,8.1572,55.997,1.1981,0.5675,-0.2809,0.1116
16:46:35:001,-1.3478,2.0955,7.3288,56.6289,0.9171,0.3603,-0.2996,0.1116
16:46:35:020,-1.8853,2.4666,7.2246,55.1479,0.5344,0.1361,-0.3211,0.1233
16:46:35:039,-2.2864,3.07,7.6604,55.6246,0.1656,-0.0099,-0.3376,0.1349
16:46:35:059,-3.2285,3.2735,8.2769,56.3466,-0.141,-0.04,-0.2878,0.1441
16:46:35:080,-4.0569,3.0209,8.7761,54.8134,-0.3841,-0.004,-0.1177,0.1494
16:46:35:101,-4.7667,2.5444,9.5661,55.8391,-0.5849,0.0032,0.1058,0.1509
16:46:35:120,-5.1977,2.2452,10.4113,54.3228,-0.6603,-0.0189,0.3431,0.1495
16:46:35:139,-5.3102,1.6969,10.3227,54.1954,-0.6542,0.017,0.5497,0.1457
16:46:35:159,-4.7991,0.9798,9.4261,54.8094,-0.7706,-0.0756,0.7154,0.14
16:46:35:177,-3.9372,0.0293,9.3267,55.3177,-1.0891,-0.3028,0.7966,0.1339
16:46:35:200,-3.1076,-0.7835,10.7788,54.2518,-1.4252,-0.4863,0.7899,0.1241
16:46:35:218,-2.8681,-1.491,12.9803,55.6292,-1.4534,-0.5007,0.7298,0.1152
16:46:35:240,-2.8226,-1.7184,14.3163,55.1812,-1.0121,-0.221,0.6778,0.103
16:46:35:260,-2.9687,-1.1714,13.8003,53.0235,-0.2339,0.31,0.7007,0.0881
16:46:35:281,-2.4827,-0.6841,11.2241,54.1157,0.3957,0.7995,0.877,0.0752
16:46:35:306,-1.4735,-0.1443,8.7258,53.1411,0.5776,1.0029,1.0595,0.0691
16:46:35:323,-0.4704,0.4459,7.5083,54.0221,0.4524,0.9766,1.1295,0.0707
16:46:35:338,-0.0873,0.9738,7.3886,53.1618,0.2604,0.8748,1.0917,0.0764
16:46:35:359,-0.2094,1.4383,7.8184,53.6592,0.2138,0.7694,1.0251,0.0821
16:46:35:380,-0.0645,1.9351,7.6137,52.9567,0.2995,0.7617,0.9657,0.0858
16:46:35:400,0.0276,2.3481,6.8607,53.612,0.3317,0.7049,0.8922,0.0882
16:46:35:418,-0.1711,2.6989,6.3304,53.0396,0.2159,0.591,0.824,0.091
16:46:35:439,-0.5374,3.1466,6.3878,52.7248,0.0199,0.4823,0.8296,0.0944
16:46:35:459,-1.215,3.3657,6.5267,52.7088,-0.1633,0.4306,0.9119,0.0975
16:46:35:481,-1.4951,3.4578,6.8164,52.2807,-0.3266,0.2884,1.0342,0.0989
16:46:35:502,-0.3387,3.702,7.318,53.6377,-0.4699,-0.0059,1.0371,0.0986
16:46:35:523,0.7603,3.7308,8.1979,52.8898,-0.5924,-0.3739,0.8049,0.0966
16:46:35:539,0.8405,3.4016,9.4524,52.8447,-0.6411,-0.5878,0.5052,0.0934
16:46:35:561,0.5963,3.1981,10.6723,51.6031,-0.5604,-0.5936,0.3202,0.0892
16:46:35:580,0.4682,2.9323,11.2696,51.0994,-0.3647,-0.4772,0.1838,0.084
16:46:35:601,0.1593,2.6378,11.4959,51.0994,-0.1886,-0.4075,0.0901,0.0788
16:46:35:622,0.0863,2.4008,11.6048,51.2121,-0.1037,-0.3475,0.0515,0.0738
16:46:35:640,-0.0813,2.2117,11.9292,52.9962,-0.1,-0.314,0.0443,0.0724
16:46:35:661,-0.0873,2.1901,12.4476,52.371,-0.1066,-0.3268,0.0573,0.0721
16:46:35:679,0.2731,2.5624,13.0605,51.4606,-0.0619,-0.3004,0.0323,0.0715
16:46:35:701,0.625,3.0664,13.2329,51.1064,0.013,-0.2642,-0.026,0.0709
16:46:35:720,0.8333,3.0831,12.5386,50.3098,-0.0619,-0.1907,-0.0964,0.0704
16:46:35:739,0.6382,1.4024,11.4169,50.5558,-0.4523,-0.3502,-0.1611,0.0705
16:46:35:760,1.0775,-0.7751,12.353,50.3686,-0.9548,-0.7838,-0.2423,0.0708
16:46:35:779,1.7934,-1.4263,14.9399,49.3733,-1.0073,-1.0583,-0.4322,0.0689
16:46:35:800,1.6796,-0.9535,16.1825,49.578,-0.4408,-0.5878,-0.6237,0.0623
16:46:35:819,0.9039,-0.7392,14.2061,49.0057,0.271,0.0783,-0.6913,0.0527
16:46:35:839,0.4682,-1.4395,11.1894,50.0265,0.5211,0.2722,-0.6879,0.0463
16:46:35:859,0.1162,-1.5161,10.0115,48.9446,0.405,0.1113,-0.7619,0.0459
16:46:35:880,-0.4261,-1.0349,10.3143,48.7155,0.3629,-0.0788,-0.8261,0.0503
16:46:35:900,-0.353,-0.343,10.3371,49.545,0.6055,-0.0535,-0.8064,0.0546
16:46:35:920,-0.1124,0.0844,9.2573,47.8501,0.9632,0.2258,-0.764,0.058
16:46:35:940,0.0348,0.5656,7.8926,48.2203,1.2005,0.4706,-0.7297,0.0626
16:46:35:960,0.2826,1.0325,6.8056,48.0221,1.2481,0.6045,-0.7616,0.0698
16:46:35:979,0.1414,1.2133,6.2167,48.0139,1.1453,0.5995,-0.8913,0.0806
16:46:35:999,-0.6918,1.151,6.2478,47.6996,0.973,0.437,-1.0359,0.0926
16:46:36:018,-1.7082,1.1091,6.6165,48.4756,0.8452,0.1555,-1.0948,0.1041
16:46:36:039,-2.3115,1.406,7.0965,47.0389,0.797,-0.0546,-1.0484,0.1136
16:46:36:060,-2.6946,2.0728,7.2665,47.2768,0.7584,-0.0274,-0.891,0.1221
16:46:36:080,-2.9699,2.7096,7.2857,47.9157,0.6575,0.0618,-0.6221,0.1297
16:46:36:101,-2.8681,3.1418,7.3599,46.1046,0.4734,0.0762,-0.306,0.1401
16:46:36:120,-2.4312,3.4459,7.5466,45.6169,0.258,-0.0559,-0.0878,0.1464
16:46:36:140,-2.1427,3.5704,7.8423,46.8605,0.0359,-0.3199,0.0102,0.1509
16:46:36:160,-1.7285,3.5692,8.2074,46.1279,-0.1929,-0.584,0.0432,0.1533
16:46:36:179,-1.5801,3.3405,8.8874,45.6251,-0.431,-0.7505,0.0195,0.1536
16:46:36:201,-1.671,3.046,10.1192,45.3755,-0.599,-0.8413,0.0405,0.1516
16:46:36:221,-1.294,3.3477,11.4384,45.0362,-0.5977,-0.7073,0.1242,0.1474
16:46:36:241,-1.215,3.574,11.9843,46.6657,-0.4369,-0.298,0.2645,0.1413
16:46:36:260,-0.4751,1.4635,10.7501,44.9663,-0.4313,0.0402,0.4802,0.1353
16:46:36:279,-0.5386,1.3055,12.0226,45.2443,-0.5125,-0.037,0.379,0.1278
16:46:36:299,-1.258,1.3809,12.6128,44.6962,-0.3924,0.0503,0.272,0.1278
16:46:36:320,-2.333,0.3238,11.2996,44.7909,-0.2651,0.0948,0.2147,0.1186
16:46:36:342,-2.5557,-0.6806,10.5071,43.7871,-0.3596,-0.1241,0.236,0.1186
16:46:36:360,-2.0314,-0.4543,11.5617,43.032,-0.4334,-0.212,0.2363,0.1149
16:46:36:382,-2.6814,-0.0497,12.4691,42.9814,-0.2313,0.1214,0.1886,0.1123
16:46:36:398,-4.1395,-0.3825,11.9292,42.649,0.0875,0.5459,0.2222,0.1088
16:46:36:420,-5.2875,-0.6554,10.8674,42.1742,0.3222,0.7633,0.3279,0.1047
16:46:36:442,-5.7543,-0.3537,10.1767,42.9088,0.4561,0.7811,0.4621,0.1024
16:46:36:459,-5.7125,0.4998,9.6691,42.8802,0.5704,0.8722,0.6552,0.1033
16:46:36:479,-5.0074,1.2049,8.7246,42.5224,0.6977,0.9374,0.9196,0.1063
16:46:36:498,-3.9264,1.7556,7.4162,41.3701,0.7749,0.8911,1.1636,0.1108
16:46:36:520,-2.3725,2.4882,5.9497,43.5095,0.736,0.7704,1.3436,0.1165
16:46:36:541,-0.7852,3.0305,4.7478,42.4535,0.5086,0.6008,1.4099,0.1235
16:46:36:560,0.3485,3.228,4.2594,42.882,0.1086,0.4069,1.3956,0.131
16:46:36:580,1.2487,3.155,4.658,40.95,-0.325,0.1433,1.3109,0.1386
16:46:36:597,1.9059,2.9179,5.678,41.1675,-0.6475,-0.0969,1.1492,0.1441
16:46:36:618,2.3069,2.8533,6.7554,41.8654,-0.7937,-0.1486,0.9433,0.1449
16:46:36:641,2.3524,2.9347,7.6783,41.2189,-0.8243,-0.0586,0.7463,0.1407
16:46:36:659,2.1681,3.0341,8.3535,41.6344,-0.8041,0.0093,0.5769,0.1342
16:46:36:679,1.7958,2.9036,8.9903,41.1047,-0.769,0.0466,0.4232,0.1272
16:46:36:698,1.2355,2.5516,9.7349,39.3725,-0.6856,0.053,0.2885,0.1195
16:46:36:718,0.5604,2.6654,10.7872,40.4146,-0.476,0.0754,0.1417,0.112
16:46:36:738,-0.5853,3.052,11.2816,40.7305,-0.113,0.2381,0.0459,0.1052
16:46:36:760,-1.6734,3.3561,10.6687,38.5739,0.2175,0.3803,0.0879,0.0993
16:46:36:778,-1.8865,3.5979,9.5123,41.2702,0.2969,0.3342,0.2126,0.0961
16:46:36:817,-1.44,3.7918,9.0382,40.2952,0.0827,0.0844,0.3023,0.0964
16:46:36:819,-0.6846,3.5452,9.4752,38.5372,-0.2733,-0.2685,0.31,0.0988
16:46:36:839,0.0719,3.076,10.6447,39.5067,-0.5676,-0.5808,0.2262,0.1008
16:46:36:861,0.54,2.9898,12.3075,38.0713,-0.659,-0.6706,0.0933,0.1002
16:46:36:879,0.6406,3.5536,13.6519,38.0662,-0.5466,-0.4716,-0.026,0.0969
16:46:36:899,0.4371,4.1079,13.8721,37.6826,-0.3375,-0.187,-0.099,0.0917
16:46:36:919,0.467,3.1657,12.5218,38.2312,-0.2763,-0.098,-0.1158,0.0865
16:46:36:940,1.797,1.8082,11.6132,36.1348,-0.5538,-0.2386,-0.1563,0.0828
16:46:36:961,3.6465,0.5848,12.6595,35.7053,-0.8845,-0.3406,-0.2777,0.0803
16:46:36:979,4.6089,-0.3717,14.5162,36.1094,-0.9112,0.0621,-0.4239,0.0767
16:46:36:998,3.8105,-1.3761,15.426,34.0538,-0.5327,0.5915,-0.7086,0.0703
16:46:37:019,2.5428,-1.491,15.0956,33.7181,0.1272,0.6738,-1.1259,0.0612
16:46:37:040,1.1733,-1.8298,13.258,33.6706,0.7312,0.4378,-1.5241,0.0504
16:46:37:058,0.4526,-1.9579,11.3211,33.9523,1.0242,0.1398,-1.7363,0.0502
16:46:37:081,0.2862,-1.3904,9.978,32.676,1.0907,0.0671,-1.8074,0.0563
16:46:37:098,-0.0514,-0.7308,9.3435,32.477,1.0761,0.2285,-1.8381,0.0607
16:46:37:121,-0.942,-0.2903,8.7557,31.5742,1.1373,0.4565,-1.8668,0.0704
16:46:37:142,-2.2732,-0.0437,8.1021,32.5743,1.2849,0.6479,-1.8309,0.0797
16:46:37:159,-3.1555,0.4088,7.1887,32.5743,1.4298,0.6107,-1.7164,0.0893
16:46:37:180,-3.3015,1.2025,6.0551,31.7298,1.4806,0.3507,-1.5986,0.0999
16:46:37:200,-2.6634,2.2332,5.1273,31.2719,1.364,0.0016,-1.4953,0.1113
16:46:37:222,-1.7237,2.9131,4.4689,31.7578,1.0274,-0.2828,-1.4189,0.1246
16:46:37:240,-1.1683,3.0017,4.5479,31.4706,0.5011,-0.3997,-1.4096,0.1376
16:46:37:259,-1.2796,2.8641,5.4385,30.8396,-0.0044,-0.3273,-1.4527,0.1484
16:46:37:279,-1.3742,3.0173,6.644,30.9233,-0.2747,-0.2147,-1.5299,0.1543
16:46:37:299,-1.1886,3.3561,7.1265,30.1274,-0.3833,-0.2011,-1.7214,0.1552
16:46:37:319,-2.1702,2.3266,7.4569,30.282,-0.5527,-0.2711,-1.9957,0.1521
16:46:37:339,-4.8003,0.7033,9.1077,29.2886,-0.7657,-0.7057,-2.0016,0.1475
16:46:37:359,-5.9806,0.0485,11.454,29.4083,-0.7697,-1.0016,-1.666,0.1414
16:46:37:378,-6.6139,0.1431,13.1958,27.9918,-0.4297,-0.7646,-1.1235,0.1326
16:46:37:401,-6.6737,0.6183,13.604,27.3153,0.1264,-0.1225,-0.4514,0.1224
16:46:37:423,-5.9339,0.5992,12.213,28.0682,0.5869,0.4703,0.2206,0.1136
16:46:37:440,-4.4483,1.1965,10.7285,27.5016,0.7299,0.6967,0.6693,0.1119
16:46:37:459,-3.4152,2.2751,9.8139,28.4905,0.6713,0.6535,0.7849,0.1183
16:46:37:477,-3.244,2.827,8.9305,28.1945,0.4825,0.4756,0.7298,0.127
16:46:37:498,-3.5026,2.6151,8.5462,28.7097,0.1336,0.2344,0.6712,0.1353
16:46:37:520,-3.821,1.971,8.8407,27.2664,-0.2717,-0.0341,0.6174,0.141
16:46:37:539,-4.2783,1.4204,9.7673,29.2891,-0.5365,-0.2285,0.5905,0.1432
16:46:37:561,-4.653,0.5489,10.1491,29.5559,-0.631,-0.3145,0.6392,0.141
16:46:37:579,-4.3801,-0.5477,10.1491,27.2444,-0.6747,-0.4368,0.754,0.136
16:46:37:600,-3.5026,-0.7871,10.9057,28.3608,-0.6731,-0.5057,0.8163,0.1302
16:46:37:619,-2.9017,-0.5979,11.6982,29.3359,-0.5154,-0.3779,0.7793,0.1236
16:46:37:638,-3.2716,-1.139,10.5454,28.8096,-0.0395,0.081,0.6531,0.1122
16:46:37:658,-3.28,-0.9715,9.8032,27.6794,0.0942,0.1409,0.6717,0.1122
16:46:37:677,-2.8454,0.0341,9.377,28.9312,0.274,0.1768,0.7407,0.1101
16:46:37:698,-2.0158,1.0014,8.2434,29.6527,0.4628,0.273,0.8147,0.1102
16:46:37:721,-1.2078,1.661,6.8392,28.5691,0.487,0.3571,0.8176,0.1149
16:46:37:739,-1.1156,1.9854,5.9377,30.4193,0.3088,0.3443,0.7918,0.1149
16:46:37:757,-0.869,2.3026,5.7055,30.6606,0.0518,0.2309,0.7774,0.1202
16:46:37:776,-0.7313,2.6294,5.8468,29.8353,-0.1719,0.1326,0.7218,0.1257
16:46:37:796,-1.106,2.6785,6.0862,29.0213,-0.3383,0.0586,0.6765,0.1293
16:46:37:818,-1.1335,2.7491,6.2705,30.1595,-0.4715,-0.0139,0.6898,0.1304
16:46:37:839,-1.0174,2.6701,6.4046,29.5555,-0.6038,-0.0413,0.7045,0.1293
16:46:37:857,-0.6415,2.7671,6.9541,29.9685,-0.7298,-0.1276,0.7151,0.1266
16:46:37:877,-0.3889,2.7348,7.5957,28.4484,-0.7823,-0.1896,0.6584,0.1224
16:46:37:898,0.0037,2.9874,8.2661,30.6695,-0.7855,-0.2392,0.5804,0.1169
16:46:37:921,-0.104,2.7204,8.6396,31.0659,-0.7905,-0.1806,0.4717,0.1105
16:46:37:939,-0.3902,2.1721,9.3459,28.5527,-0.8241,-0.1776,0.3982,0.0995
16:46:37:959,-0.6284,1.6945,10.4939,30.7942,-0.7972,-0.1915,0.3247,0.092
16:46:37:977,-1.1168,1.6215,11.7425,30.8561,-0.6212,-0.1598,0.2637,0.0847
16:46:37:997,-1.4149,1.7173,12.4404,29.9524,-0.3356,-0.1361,0.2384,0.0767
16:46:38:019,-1.2952,1.9327,12.4991,31.3299,-0.0744,-0.1555,0.2347,0.0696
16:46:38:040,-0.8714,1.9004,12.2393,30.9315,0.0345,-0.2144,0.2328,0.0652
16:46:38:057,-0.2932,1.6957,12.3722,31.7443,-0.0376,-0.2996,0.216,0.0634
16:46:38:080,0.2252,1.3294,12.9587,32.1106,-0.1455,-0.3649,0.1628,0.0637
16:46:38:098,0.5675,1.2755,13.9356,33.0397,-0.1279,-0.3286,0.0555,0.064
16:46:38:121,0.3317,1.8465,15.019,33.1562,0.111,-0.0157,-0.0561,0.0632
16:46:38:139,-0.1244,2.7839,14.9064,34.1754,0.5413,0.4495,-0.0806,0.0618
16:46:38:159,-0.3866,3.0879,13.0449,32.0485,0.8963,0.7388,-0.0412,0.0615
16:46:38:178,-0.3171,2.7444,10.962,33.0389,0.8729,0.6075,-0.0149,0.0643
16:46:38:199,0.3245,1.9615,9.7278,34.7151,0.5155,0.1483,-0.066,0.0715
16:46:38:220,1.3361,1.2097,9.9839,34.1759,0.0825,-0.42,-0.2351,0.0806
16:46:38:240,2.0508,0.9774,11.3594,33.9538,-0.1335,-0.6637,-0.4711,0.0873
16:46:38:257,2.1765,0.6866,11.8885,35.2277,-0.0715,-0.5798,-0.7097,0.0902
16:46:38:278,1.7682,-0.1945,11.1188,36.8845,0.058,-0.4461,-0.9038,0.0895
16:46:38:299,1.1661,-0.6925,10.4652,35.4627,0.1283,-0.3598,-1.0205,0.0881
16:46:38:319,0.6059,-0.58,9.9708,36.7674,0.2721,-0.2173,-1.0705,0.0879
16:46:38:339,0.2491,-0.2675,8.9652,36.6812,0.4934,-0.0213,-1.1038,0.0884
16:46:38:358,-0.1016,0.1167,7.8088,37.1403,0.6572,0.1558,-1.1451,0.0898
16:46:38:378,-0.7002,0.3932,6.7793,38.1268,0.7011,0.2844,-1.1741,0.0931
16:46:38:402,-1.1527,0.8003,6.1161,38.9729,0.6098,0.3616,-1.168,0.1018
16:46:38:419,-1.5358,1.248,5.9988,37.8902,0.4268,0.3433,-1.1462,0.1084
16:46:38:438,-2.1092,1.643,6.2897,37.6071,0.2223,0.2431,-1.1235,0.1138
16:46:38:458,-2.6311,1.7962,6.6883,37.3935,0.0252,0.0498,-1.0455,0.116
16:46:38:477,-2.7891,1.5449,7.172,38.8478,-0.1972,-0.1593,-0.9009,0.1189
16:46:38:498,-2.7089,1.0433,8.1572,38.8478,-0.4092,-0.3103,-0.7422,0.1196
16:46:38:523,-2.6694,0.9439,9.6212,40.1214,-0.4462,-0.3356,-0.6042,0.1182
16:46:38:539,-2.6814,1.2911,10.6986,40.8084,-0.2361,-0.192,-0.4716,0.1144
16:46:38:558,-2.6108,1.6287,10.8303,39.6467,0.075,0.013,-0.3102,0.1092
16:46:38:583,-2.3905,1.74,10.1611,39.2305,0.2633,0.1878,-0.1454,0.1052
16:46:38:597,-2.1559,1.6538,9.6715,41.1948,0.2484,0.2045,-0.0242,0.1041
16:46:38:619,-2.1355,1.7041,10.0414,41.6215,0.1363,0.1156,0.0224,0.1061
16:46:38:637,-2.3043,1.5616,10.8135,42.7338,0.0668,0.0165,0.0429,0.1089
16:46:38:657,-2.6407,1.4264,11.3654,42.5227,0.0875,-0.012,0.0645,0.111
16:46:38:678,-2.7927,1.8657,11.4241,42.709,0.1773,0.0359,0.1271,0.112
16:46:38:697,-2.7616,1.9651,10.4029,41.5523,0.2146,0.1534,0.2264,0.1127
16:46:38:718,-2.576,1.6909,9.5901,42.8331,0.0191,0.1819,0.3138,0.1139
16:46:38:743,-2.5318,1.7747,10.3096,41.8642,-0.2712,0.0418,0.3085,0.1162
16:46:38:757,-3.025,1.6322,11.1679,44.5183,-0.3945,-0.0312,0.2672,0.118
16:46:38:776,-3.5469,0.8673,10.9967,42.8018,-0.423,-0.0812,0.2784,0.1171
16:46:38:796,-3.438,-0.3047,10.3562,42.9982,-0.5237,-0.2618,0.3188,0.1118
16:46:38:831,-2.9232,-0.8805,10.8949,44.1314,-0.6664,-0.485,0.3239,0.1077
16:46:38:837,-2.5186,-1.0696,12.0489,45.4039,-0.6592,-0.4719,0.3186,0.1027
16:46:38:857,-2.8993,-1.4096,12.5852,43.2562,-0.452,-0.1561,0.3282,0.0958
16:46:38:876,-3.572,-1.7699,12.2405,44.9149,-0.1042,0.2077,0.3612,0.0889
16:46:38:897,-4.1155,-1.6179,11.108,43.9612,0.2649,0.5028,0.4347,0.0847
16:46:38:917,-3.5685,-0.6003,9.7768,44.1439,0.5432,0.6229,0.5761,0.084
16:46:38:938,-2.1822,0.586,8.3403,45.6276,0.7227,0.6224,0.6565,0.0873
16:46:38:957,-1.2341,1.4898,7.0486,44.4852,0.7456,0.6868,0.6184,0.0932
16:46:38:977,-1.4256,1.9854,6.316,45.7766,0.5967,0.7353,0.5633,0.1012
16:46:38:998,-2.011,2.0524,6.0108,44.7091,0.3496,0.698,0.5519,0.1094
16:46:39:020,-3.6786,1.971,6.905,46.5075,-0.1143,0.1811,0.6917,0.1162
16:46:39:039,-3.4823,2.1985,7.4916,44.4901,-0.1777,-0.0202,0.8504,0.1202
16:46:39:056,-3.0238,2.5516,7.6616,46.436,-0.1668,-0.0437,0.9676,0.1218
16:46:39:078,-2.7843,2.7791,7.379,44.8996,-0.1681,-0.0021,1.0669,0.1204
16:46:39:100,-2.0888,2.9838,6.9098,44.6786,-0.2949,-0.049,1.1535,0.1204
16:46:39:120,-1.2892,2.8689,6.7171,45.2795,-0.5495,-0.1843,1.1564,0.1195
16:46:39:138,-0.6044,2.317,7.1528,44.3936,-0.8358,-0.3321,1.0917,0.1187
16:46:39:156,-0.1878,1.8082,8.4205,46.7378,-1.0116,-0.4618,1.0059,0.1168
16:46:39:175,0.2982,1.8824,10.0294,45.7663,-0.9429,-0.4626,0.8832,0.1048
16:46:39:196,0.534,2.4271,11.2349,45.548,-0.5849,-0.2245,0.7276,0.1003
16:46:39:216,0.4239,2.7946,11.193,46.0846,-0.0733,0.1617,0.5838,0.0914
16:46:39:238,-0.0478,2.6019,9.8774,48.6891,0.2777,0.4874,0.5263,0.0842
16:46:39:257,-0.2214,2.7132,8.9437,48.0488,0.2697,0.5382,0.5106,0.0812
16:46:39:277,-0.3303,3.1753,8.9855,47.4533,0.0162,0.3281,0.4547,0.0826
16:46:39:297,-0.3123,3.0999,9.6715,46.8595,-0.3295,-0.0325,0.3798,0.0858
16:46:39:316,-0.0945,2.7659,10.8662,46.751,-0.6201,-0.3734,0.2863,0.0875
16:46:39:337,-0.1878,2.4642,12.426,46.7103,-0.7154,-0.482,0.2057,0.0861
16:46:39:358,-0.1603,2.6246,13.7273,47.5467,-0.5602,-0.4301,0.1622,0.0818
16:46:39:389,-0.0657,3.1945,14.3797,46.737,-0.2321,-0.2991,0.1343,0.0754
16:46:39:396,0.3497,3.3429,13.7416,46.9386,0.0721,-0.2083,0.0986,0.0692
16:46:39:416,0.8584,2.6546,12.3805,47.6067,0.0928,-0.2964,0.0544,0.0657
16:46:39:437,1.5623,1.2528,11.6826,47.2556,-0.2241,-0.6125,-0.0205,0.0654
16:46:39:456,2.7127,-0.2041,12.7911,47.8572,-0.5716,-0.9659,-0.1432,0.0669
16:46:39:476,3.6034,-0.8469,14.4874,46.6808,-0.5687,-0.8794,-0.3869,0.067
16:46:39:497,3.4238,-0.8841,15.3158,46.7262,-0.1556,-0.3465,-0.6982,0.0656
16:46:39:519,2.0914,-1.2599,14.1499,45.8066,0.4167,0.172,-0.9789,0.0606
16:46:39:542,0.7974,-1.5437,12.1339,45.5279,0.834,0.3393,-1.1552,0.0541
16:46:39:557,-0.1519,-1.1977,10.5562,44.1907,1.0875,0.331,-1.2484,0.0541
16:46:39:577,-0.7158,-0.6051,9.11,44.9675,1.2657,0.3497,-1.2466,0.0579
16:46:39:598,-0.7732,-0.0198,7.6496,45.2846,1.327,0.42,-1.1864,0.0658
16:46:39:615,-0.7122,0.4998,6.5112,42.496,1.2758,0.4397,-1.1398,0.0756
16:46:39:636,-0.6978,0.9008,5.593,43.8772,1.1581,0.4136,-1.1606,0.0941
16:46:39:657,-0.9073,1.1977,5.0028,41.1541,0.9709,0.3095,-1.2199,0.1067
16:46:39:677,-1.3957,1.0804,4.6999,41.6434,0.6987,0.1092,-1.2791,0.1178
16:46:39:697,-1.8231,0.7763,4.9286,42.4696,0.3648,-0.1353,-1.3078,0.1279
16:46:39:717,-2.3342,0.6051,5.8528,41.8068,0.0628,-0.2549,-1.27,0.1356
16:46:39:737,-3.0022,0.7584,7.0726,39.9477,-0.0773,-0.1598,-1.1608,0.1401
16:46:39:757,-3.8342,1.1295,7.9967,40.7023,-0.0401,0.0402,-0.9906,0.1412
16:46:39:779,-4.1873,1.8418,8.4696,39.6839,0.12,0.1635,-0.7547,0.14
16:46:39:797,-3.754,2.7408,8.3188,39.6119,0.2686,0.257,-0.5227,0.1386
16:46:39:817,-3.3805,3.204,7.8914,37.8258,0.2098,0.2479,-0.3454,0.1385
16:46:39:837,-3.493,2.9778,8.1308,38.918,-0.0808,0.0245,-0.1949,0.1404
16:46:39:859,-3.4691,2.6175,9.4034,39.0211,-0.3831,-0.2349,-0.0681,0.1431
16:46:39:877,-3.7157,2.4511,10.9476,39.5083,-0.5026,-0.3502,0.0371,0.1439
16:46:39:896,-3.815,2.2464,11.7138,38.0543,-0.4518,-0.3606,0.1745,0.1412
16:46:39:916,-3.3063,2.2787,12.0525,36.8347,-0.3695,-0.3324,0.3247,0.1363
16:46:39:937,-2.8179,2.4271,11.9101,37.5492,-0.3269,-0.2048,0.4294,0.1314
16:46:39:958,-2.7185,1.7771,11.4348,37.1784,-0.3508,-0.1055,0.5039,0.1272
16:46:39:976,-2.5832,0.8841,11.5928,36.3282,-0.4486,-0.147,0.5495,0.1238
16:46:39:996,-2.6527,0.6399,12.7085,36.0382,-0.4132,-0.1555,0.5561,0.1191
16:46:40:017,-3.0812,0.8254,12.7708,35.9239,-0.1447,0.0929,0.5559,0.1148
16:46:40:042,-3.596,0.4818,11.0805,35.6803,0.0931,0.1923,0.5987,0.1109
16:46:40:059,-2.849,-0.0245,9.5769,34.1794,0.0295,-0.0288,0.6499,0.1099
16:46:40:076,-1.7728,0.1646,9.9097,35.3695,-0.1671,-0.2125,0.5745,0.1111
16:46:40:097,-1.8973,0.3897,10.9416,34.8721,-0.2014,-0.0293,0.4224,0.1117
16:46:40:117,-3.1962,-0.0569,11.1332,34.7168,-0.0315,0.3832,0.354,0.1102
16:46:40:137,-4.3849,-0.2879,10.5466,34.3714,0.2212,0.7657,0.4515,0.1085
16:46:40:156,-4.3585,0.5405,9.4309,34.4807,0.4593,0.9361,0.6443,0.1085
16:46:40:176,-3.2273,1.6981,8.1248,34.2327,0.6084,0.9627,0.7987,0.1113
16:46:40:196,-2.1906,2.3302,6.5064,33.9805,0.5735,0.8155,0.8254,0.1163
16:46:40:217,-1.4867,2.4116,5.4565,32.6156,0.3216,0.5108,0.7673,0.1232
16:46:40:238,-1.1192,2.2631,5.3248,33.3728,-0.0419,0.1875,0.6789,0.1297
16:46:40:256,-1.1192,2.3338,6.1819,34.1476,-0.3239,-0.0133,0.6099,0.1334
16:46:40:276,-1.3407,2.4786,7.0032,33.1473,-0.4001,-0.0586,0.5716,0.1335
16:46:40:296,-1.4975,2.4247,7.0499,32.0747,-0.3697,-0.086,0.5734,0.1309
16:46:40:320,-1.203,2.4379,7.002,33.2686,-0.3948,-0.1611,0.6105,0.1274
16:46:40:337,-0.7241,2.8222,7.3144,32.7667,-0.4323,-0.1414,0.6344,0.1244
16:46:40:358,-0.3494,3.2184,7.4509,31.6617,-0.439,-0.0277,0.5977,0.1173
16:46:40:378,-0.3794,3.0628,7.9704,32.996,-0.5705,-0.0834,0.4094,0.1154
16:46:40:399,-0.8738,2.8413,8.7437,31.9637,-0.6156,-0.1121,0.2778,0.1091
16:46:40:417,-1.5178,2.6127,9.6212,32.8151,-0.5937,-0.1494,0.2134,0.1038
16:46:40:438,-1.9536,2.3362,10.5538,31.4182,-0.4872,-0.1827,0.2208,0.1038
16:46:40:457,-2.2361,2.4008,11.3151,32.3768,-0.309,-0.1337,0.2717,0.0983
16:46:40:477,-2.2301,2.5947,11.5557,31.7706,-0.1199,-0.1364,0.3439,0.0926
16:46:40:496,-1.8327,2.9479,11.4109,32.2002,-0.0054,-0.1792,0.3766,0.088
16:46:40:518,-1.5118,2.736,10.9584,32.6719,-0.0427,-0.3092,0.3662,0.0852
16:46:40:538,-1.0737,1.886,11.0793,31.7624,-0.2672,-0.5542,0.3529,0.0844
16:46:40:555,-0.2489,1.6789,12.6212,31.7645,-0.4667,-0.686,0.3143,0.0847
16:46:40:575,-0.1711,2.4223,14.3893,31.605,-0.402,-0.5595,0.2086,0.0847
16:46:40:598,-0.6236,2.9299,14.8286,32.2776,-0.1048,-0.3116,0.17,0.0827
16:46:40:616,-0.541,1.989,13.2939,31.5493,0.0947,-0.2229,0.1875,0.0787
16:46:40:636,-0.0885,0.7189,12.1878,31.9196,-0.0464,-0.3438,0.1891,0.0752
16:46:40:657,0.728,0.0868,13.0018,32.2739,-0.2558,-0.6003,0.1599,0.0744
16:46:40:675,1.7922,0.1311,13.9942,31.4994,-0.1413,-0.5779,0.0642,0.0756
16:46:40:695,2.3871,0.3837,13.4627,31.1275,0.2122,-0.1878,-0.1283,0.0754
16:46:40:715,2.0208,0.1131,11.7401,33.1903,0.4241,0.0865,-0.3483,0.0734
16:46:40:736,1.2343,-0.3083,10.4329,31.9521,0.413,0.0591,-0.5368,0.0725
16:46:40:757,0.6059,-0.2544,10.1791,31.2109,0.4162,-0.0578,-0.6886,0.0748
16:46:40:775,0.2455,0.41,9.9768,30.1259,0.6068,0.0218,-0.7843,0.0789
16:46:40:796,-0.2656,0.762,8.8275,30.8639,0.8654,0.2621,-0.8255,0.0826
16:46:40:815,-0.8283,0.7225,7.2282,30.5145,0.9674,0.3305,-0.8218,0.0867
16:46:40:837,-0.8187,1.0361,6.2753,30.8235,0.8497,0.2341,-0.7827,0.0964
16:46:40:864,-0.5158,1.6023,6.1664,31.2672,0.6487,0.1933,-0.7574,0.105
16:46:40:877,-0.6272,2.068,6.4094,30.9633,0.4705,0.1683,-0.7787,0.1139
16:46:40:895,-0.9983,2.0045,6.838,30.9439,0.3088,0.0128,-0.7928,0.121
16:46:40:915,-1.5262,1.7101,7.5347,32.0626,0.1866,-0.2043,-0.788,0.126
16:46:40:937,-2.12,1.5844,8.3044,30.4114,0.1448,-0.2748,-0.7036,0.1295
16:46:40:955,-2.5425,1.6347,8.8215,30.3946,0.1786,-0.1806,-0.5281,0.1315
16:46:40:977,-2.6144,1.9256,9.0394,30.7745,0.2399,-0.0863,-0.3145,0.1328
16:46:40:995,-2.1966,2.2739,8.9365,30.543,0.2657,-0.0815,-0.1461,0.134
16:46:41:015,-1.7908,2.4882,9.0287,29.3844,0.2196,-0.1313,-0.0319,0.1359
16:46:41:036,-1.4951,2.6402,9.2753,31.8966,0.1677,-0.1752,0.0565,0.1384
16:46:41:057,-1.1,2.7815,9.4608,31.8051,0.1472,-0.2282,0.1015,0.1407
16:46:41:077,-0.8151,2.9742,9.6547,31.2401,0.1107,-0.2842,0.0959,0.1425
16:46:41:097,-0.9492,2.7336,9.9025,30.3252,0.0202,-0.3276,0.0794,0.144
16:46:41:116,-1.0761,2.5983,10.4628,30.7113,-0.0459,-0.375,0.0946,0.1453
16:46:41:136,-0.9935,3.0041,10.8051,30.7943,-0.0068,-0.302,0.1327,0.1459
16:46:41:156,-0.8929,3.2639,10.4616,31.7234,0.0518,-0.0866,0.2158,0.1456
16:46:41:176,-0.5709,3.1382,10.0905,32.0251,-0.0446,0.0954,0.3151,0.1453
16:46:41:195,-0.4787,3.0664,10.6759,32.8623,-0.2073,0.1688,0.3023,0.1456
16:46:41:216,-1.1324,3.204,11.2636,33.2284,-0.2307,0.2993,0.2051,0.1459
16:46:41:238,-2.096,2.8138,10.4771,32.1557,-0.2084,0.3918,0.1337,0.1446
16:46:41:256,-2.8382,1.4216,9.1077,31.225,-0.3572,0.1822,0.1401,0.1414
16:46:41:276,-2.1092,0.6482,9.4776,30.8375,-0.6326,-0.2131,0.1489,0.1393
16:46:41:295,-1.7489,0.7356,11.2648,32.7653,-0.7245,-0.3228,0.0493,0.1359
16:46:41:315,-2.6982,0.6087,12.3159,34.2593,-0.4928,-0.0844,-0.0002,0.1299
16:46:41:337,-3.9096,0.0904,11.6934,33.0193,-0.1159,0.221,0.0451,0.1227
16:46:41:355,-4.7344,-0.2316,10.2581,32.9796,0.156,0.3148,0.1617,0.1179
16:46:41:378,-4.3585,0.319,9.2154,34.5082,0.2489,0.2221,0.3575,0.1168
16:46:41:397,-3.1327,1.2516,8.6575,31.9079,0.25,0.1853,0.5633,0.1184
16:46:41:417,-2.0146,1.9603,8.1655,34.1086,0.2468,0.2485,0.7018,0.121
16:46:41:440,-1.2988,2.3433,7.4389,34.1086,0.2353,0.3278,0.7513,0.1234
16:46:41:457,-0.7768,2.4918,6.8451,34.6999,0.1517,0.2937,0.7351,0.1247
16:46:41:477,-0.5661,2.6031,6.5818,33.4823,0.0249,0.2224,0.6568,0.1273
16:46:41:496,-0.7217,2.5564,6.6333,33.8606,-0.0986,0.0863,0.5841,0.1295
16:46:41:516,-0.5961,2.5061,6.9996,34.415,-0.2118,-0.0338,0.5548,0.1304
16:46:41:538,-0.3902,2.6486,7.5897,34.9425,-0.2675,-0.0559,0.5348,0.1302
16:46:41:556,-0.1926,2.8342,7.8986,33.094,-0.2555,0.0184,0.5242,0.1288
16:46:41:576,0.0264,3.1238,7.9321,34.8295,-0.2331,0.0967,0.5034,0.1266
16:46:41:595,0.1414,3.4064,7.8411,35.0246,-0.2608,0.1305,0.4461,0.1242
16:46:41:619,-0.0657,3.1825,7.8423,35.1441,-0.3708,0.0631,0.3761,0.1219
16:46:41:641,-0.1567,2.6258,8.4062,36.107,-0.5138,-0.0975,0.3188,0.1196
16:46:41:657,-0.0119,2.3374,9.4752,35.5034,-0.5524,-0.2349,0.227,0.1168
16:46:41:676,-0.0107,2.4726,10.5681,36.6959,-0.4289,-0.2093,0.1266,0.1099
16:46:41:695,-0.3758,2.639,11.0254,37.3934,-0.202,-0.0389,0.0581,0.105
16:46:41:716,-1.033,2.7264,10.8411,36.6688,-0.0094,0.0535,0.0355,0.1009
16:46:41:737,-1.5274,2.7372,10.6028,37.0534,0.0479,-0.0682,0.0973,0.0989
16:46:41:760,-0.219,3.1238,11.0697,35.9912,-0.0627,-0.3481,0.2565,0.0988
16:46:41:779,0.3006,3.0664,11.5833,38.1218,-0.1178,-0.3952,0.2155,0.0994
16:46:41:797,0.7016,3.3142,12.3494,37.1304,-0.0978,-0.3686,0.1404,0.0994
16:46:41:815,0.6561,3.7188,12.766,37.1049,0.0007,-0.1971,0.0738,0.0994
16:46:41:837,0.4933,3.8601,12.3686,37.3561,0.104,-0.0333,0.0698,0.0986
16:46:41:854,0.7974,3.3094,11.1607,39.5476,0.0391,-0.0589,0.0666,0.098
16:46:41:874,1.4127,1.819,10.4544,39.405,-0.2864,-0.3206,0.0072,0.0982
16:46:41:895,2.2794,0.6746,11.6754,37.9883,-0.6214,-0.616,-0.0822,0.0992
16:46:41:917,3.1198,0.2915,13.2197,37.6238,-0.5756,-0.5622,-0.2133,0.0997
16:46:41:943,3.2478,0.4675,13.3897,39.9719,-0.186,-0.0322,-0.368,0.0971
16:46:41:956,2.5104,0.3801,11.685,38.0823,0.1895,0.5108,-0.4969,0.0915
16:46:41:974,1.269,-0.2328,9.5386,39.012,0.2713,0.6493,-0.5906,0.0866
16:46:41:995,0.8489,-0.5201,8.5139,39.2885,0.1405,0.4322,-0.6639,0.0848
16:46:42:015,1.0344,-0.5034,8.0734,40.6785,0.0217,0.1244,-0.8306,0.0864
16:46:42:037,1.0691,-0.6722,7.9967,40.4237,-0.088,-0.1491,-1.0535,0.0895
16:46:42:056,0.698,-0.6925,8.6205,40.7359,-0.1641,-0.1982,-1.1728,0.0896
16:46:42:075,0.1701,-0.2017,9.377,41.007,-0.0438,0.0146,-1.1736,0.0892
16:46:42:094,-0.0969,0.5429,9.1891,40.7177,0.2777,0.3308,-1.135,0.088
16:46:42:114,-0.3447,1.084,8.1775,39.0012,0.5379,0.5262,-1.1531,0.0865
16:46:42:135,-0.9217,1.2216,7.2366,41.4657,0.512,0.4091,-1.1981,0.0874
16:46:42:160,-1.5932,0.9918,7.1181,40.3828,0.2047,0.0812,-1.1901,0.0913
16:46:42:176,-2.272,0.762,8.3319,41.1215,-0.1146,-0.2067,-1.1038,0.0967
16:46:42:196,-2.7197,0.9978,9.7625,40.0552,-0.1719,-0.2804,-0.9353,0.1002
16:46:42:215,-2.752,1.1941,10.3443,40.7341,0.0108,-0.1001,-0.7235,0.1002
16:46:42:238,-2.6084,1.4216,10.1084,41.2353,0.2098,0.0732,-0.532,0.098
16:46:42:255,-2.4731,1.6023,9.9361,41.5141,0.2926,0.0506,-0.385,0.0967
16:46:42:274,-2.1511,1.9675,10.0115,42.3016,0.3389,0.0208,-0.2735,0.0978
16:46:42:295,-1.8997,2.1961,10.1432,43.287,0.4164,0.013,-0.2053,0.1002
16:46:42:314,-1.9021,2.4535,10.057,42.0307,0.4897,0.0381,-0.1478,0.1033
16:46:42:335,-2.0601,2.475,9.6667,42.4543,0.4833,0.0631,-0.0537,0.1069
16:46:42:356,-1.9751,2.22,9.4261,43.4526,0.3626,0.0237,0.069,0.1112
16:46:42:377,-1.5214,2.4559,9.7768,41.6881,0.2199,-0.0125,0.1582,0.1162
16:46:42:395,-1.0629,2.7061,9.8199,42.1405,0.1419,0.028,0.1915,0.1205
16:46:42:415,-0.9276,2.402,9.383,41.4002,0.0012,0.1369,0.1894,0.1232
16:46:42:442,-1.1048,2.1159,9.7122,43.0588,-0.2667,0.1177,0.1191,0.125
16:46:42:456,-2.0434,2.1602,10.968,43.4563,-0.4496,0.0985,0.0142,0.126
16:46:42:475,-3.5158,1.898,11.612,41.7758,-0.4323,0.1515,0.0166,0.1249
16:46:42:495,-4.325,1.3677,10.8997,42.5081,-0.3578,0.1595,0.1686,0.119
16:46:42:514,-3.839,0.2795,9.6607,42.9705,-0.447,0.0194,0.3742,0.1149
16:46:42:538,-2.363,-0.1311,10.1467,42.9794,-0.6688,-0.277,0.4493,0.1131
16:46:42:555,-1.5741,-0.076,11.7353,43.3368,-0.676,-0.3425,0.3508,0.1073
16:46:42:575,-1.9727,-0.3789,12.4464,42.274,-0.3775,-0.0623,0.2387,0.1007
16:46:42:595,-3.0262,-0.8278,11.4492,45.1178,0.0231,0.2724,0.2352,0.0971
16:46:42:618,-3.4188,-0.8398,9.8116,43.7339,0.283,0.4959,0.3497,0.0918
16:46:42:639,-3.0537,-0.0712,8.6779,42.6793,0.3379,0.5694,0.5098,0.0902
16:46:42:657,-2.2038,0.9391,8.1141,43.9924,0.2918,0.5947,0.648,0.0922
16:46:42:677,-1.458,1.7663,7.7202,42.3802,0.242,0.6469,0.6861,0.0958
16:46:42:695,-1.3394,2.2033,7.3587,44.4306,0.1855,0.6709,0.6302,0.0992
16:46:42:717,-1.5322,2.4666,6.9529,44.9723,0.1104,0.5976,0.5505,0.1022
16:46:42:738,-1.5908,2.4331,6.4716,43.467,-0.0065,0.3747,0.46,0.1048
16:46:42:755,-1.7237,2.2164,6.4956,42.6877,-0.2041,0.0863,0.4091,0.1065
16:46:42:781,-1.683,2.1841,7.1552,44.2996,-0.3857,-0.1033,0.4336,0.1074
16:46:42:795,-1.4484,2.2416,7.8675,44.2356,-0.4307,-0.1348,0.4879,0.1068
16:46:42:814,-1.2257,2.3816,8.1464,44.4669,-0.3727,-0.0642,0.5338,0.1041
16:46:42:837,-1.0342,2.6055,8.0518,45.3408,-0.321,0.0466,0.5556,0.1002
16:46:42:881,-0.8582,2.7671,7.913,43.5964,-0.3301,0.0882,0.5287,0.0964
16:46:42:883,-0.8115,2.7539,8.0063,43.2021,-0.398,0.0586,0.4693,0.0935
16:46:42:897,-1.0426,2.3912,8.4145,45.6809,-0.476,-0.0056,0.4091,0.0907
16:46:42:915,-1.033,2.2847,9.0993,43.8113,-0.5024,-0.0879,0.3588,0.0874
16:46:42:937,-1.0186,2.5923,9.784,43.914,-0.4294,-0.086,0.3215,0.0833
16:46:42:955,-0.954,2.7348,9.7373,44.3316,-0.333,0.0136,0.3076,0.0764
16:46:42:976,-0.8714,2.6749,9.4955,45.4882,-0.3836,-0.0261,0.2738,0.0724
16:46:42:995,-0.8391,2.4343,9.7912,45.0973,-0.6084,-0.2413,0.1963,0.0692
16:46:43:016,-0.8774,1.6909,10.8111,45.3592,-0.8656,-0.5713,0.0954,0.0657
16:46:43:038,-0.8678,0.8673,12.4691,45.9263,-0.9887,-0.8168,-0.0087,0.0599
16:46:43:056,-1.027,0.7021,14.3019,46.1744,-0.8448,-0.7902,-0.0729,0.0517
16:46:43:076,-1.2724,1.5568,15.6893,45.5045,-0.4235,-0.4687,-0.0159,0.0428
16:46:43:095,-1.1551,2.384,15.0956,45.6482,0.1134,-0.0211,0.1367,0.0349
16:46:43:114,-0.7098,1.8717,12.7612,45.2289,0.3451,0.1763,0.2698,0.0309
16:46:43:136,0.5663,-0.0988,12.3829,45.1057,-0.2696,-0.5097,0.1995,0.032
16:46:43:155,1.1721,-0.7763,13.7261,46.1449,-0.3548,-0.6754,0.0778,0.0353
16:46:43:175,1.6054,-1.0948,14.1283,46.3637,-0.1082,-0.5262,-0.066,0.0364
16:46:43:194,1.5168,-1.2348,13.3777,45.758,0.2425,-0.253,-0.205,0.0342
16:46:43:214,1.0129,-1.4407,11.9723,44.3821,0.4487,-0.0519,-0.2902,0.0312
16:46:43:233,0.4502,-1.3964,11.0458,44.6486,0.5405,0.0141,-0.347,0.0305
16:46:43:257,0.1725,-1.1055,10.1803,43.9397,0.6582,0.0136,-0.4064,0.0331
16:46:43:273,0.1019,-0.6279,9.2477,44.8914,0.7634,-0.0226,-0.4652,0.0374
16:46:43:293,0.1761,-0.1311,8.3499,44.0678,0.8242,-0.0469,-0.4908,0.0427
16:46:43:314,0.388,0.3083,7.634,45.296,0.8324,0.0141,-0.5206,0.0493
16:46:43:333,0.4059,0.5956,7.0726,43.1584,0.7933,0.0945,-0.5731,0.0565
16:46:43:355,0.3999,0.9631,6.8547,43.2831,0.7408,0.1305,-0.6298,0.0646
16:46:43:373,0.3509,1.3928,6.7697,44.4778,0.7048,0.1233,-0.6849,0.0769
16:46:43:393,0.3365,1.7101,6.6009,44.2245,0.6199,0.1289,-0.7115,0.084
16:46:43:417,-0.043,1.6765,6.6021,41.9734,0.4364,0.114,-0.6926,0.0911
16:46:43:433,-0.3494,1.5437,7.1037,44.4478,0.2204,0.0418,-0.6524,0.0977
16:46:43:453,-0.5769,1.5616,8.0267,43.1617,0.0787,-0.025,-0.6205,0.1027
16:46:43:476,-0.6846,1.5509,8.9856,42.1666,0.03,-0.139,-0.572,0.1058
16:46:43:493,-0.7122,1.637,9.9169,44.3006,0.0708,-0.1505,-0.5182,0.1071
16:46:43:514,-0.8822,1.7208,10.4161,40.894,0.2124,-0.0527,-0.4548,0.1074
16:46:43:534,-0.9971,1.8717,10.3862,42.8132,0.3637,0.0527,-0.3816,0.1076
16:46:43:553,-1.2413,1.9028,10.0941,43.0095,0.4319,0.0831,-0.3134,0.1088
16:46:43:573,-1.4699,2.0453,10.0235,41.7509,0.4071,0.0557,-0.2452,0.1116
16:46:43:594,-1.756,2.0273,10.185,41.6012,0.3275,0.0392,-0.1856,0.1155
16:46:43:613,-1.9224,2.153,10.5992,41.1538,0.2423,0.0163,-0.1462,0.1197
16:46:43:632,-2.3187,2.56,10.8027,42.0164,0.2178,0.0376,-0.1193,0.1234
16:46:43:655,-2.837,2.5612,10.385,40.6899,0.1725,0.0972,-0.0354,0.126
16:46:43:675,-3.3398,2.3924,10.44,41.4637,-0.0028,0.0197,0.0696,0.1282
16:46:43:693,-4.0293,2.2883,11.2074,39.7391,-0.1836,-0.1491,0.1761,0.1302
16:46:43:714,-4.6315,2.0967,11.539,38.7179,-0.2544,-0.1891,0.3569,0.1312
16:46:43:735,-4.3334,1.3833,10.9572,41.2344,-0.2685,-0.2567,0.5681,0.1302
16:46:43:753,-2.9053,0.9008,10.5071,41.8678,-0.3157,-0.4309,0.6616,0.1292
16:46:43:774,-1.6639,1.1115,11.1499,41.6532,-0.3354,-0.6011,0.5428,0.1266
16:46:43:794,-1.8075,0.9092,11.8622,40.0605,-0.1809,-0.6064,0.3662,0.1241
16:46:43:814,-2.1966,0.4232,11.3965,40.1413,0.1328,-0.4693,0.2664,0.121
16:46:43:834,-2.5186,0.1215,9.9217,40.0479,0.3789,-0.2181,0.2597,0.1164
16:46:43:858,-2.3881,0.1203,8.5738,40.4142,0.4028,-0.0836,0.3926,0.116
16:46:43:873,-1.2832,0.5537,7.98,38.9912,0.2889,-0.0623,0.5907,0.1187
16:46:43:893,0.0743,1.424,8.126,39.406,0.1967,0.1486,0.7183,0.1228
16:46:43:914,0.807,2.1578,7.9956,38.9703,0.1837,0.502,0.7109,0.1262
16:46:43:934,0.4335,2.3218,7.3288,38.7834,0.1895,0.7657,0.6022,0.1283
16:46:43:958,-0.1471,2.4499,6.6871,38.6834,0.1504,0.788,0.5119,0.13
16:46:43:974,-0.6092,2.4786,6.3292,37.9829,0.0558,0.6258,0.4592,0.1317
16:46:43:993,-0.7636,2.5875,6.2621,38.4396,-0.0781,0.3728,0.4323,0.1332
16:46:44:013,-0.6451,2.827,6.6201,38.6725,-0.214,0.1952,0.4384,0.134
16:46:44:034,-0.4632,3.0317,7.0774,36.8766,-0.3141,0.1715,0.4776,0.1338
16:46:44:053,-0.28,3.1119,7.4928,39.0401,-0.3817,0.2035,0.5188,0.1324
16:46:44:074,-0.1986,3.2519,8.0506,37.5741,-0.419,0.2195,0.5383,0.1297
16:46:44:093,-0.2609,3.1633,8.5031,36.395,-0.4054,0.2157,0.5404,0.1262
16:46:44:112,-0.213,2.9167,8.7593,37.1488,-0.3751,0.176,0.5082,0.1224
16:46:44:132,-0.2082,2.8102,9.1256,37.4149,-0.3423,0.1097,0.4381,0.1182
16:46:44:153,-0.2465,2.9299,9.5697,37.1832,-0.2725,0.0668,0.3931,0.1143
16:46:44:173,-0.0059,3.1586,9.8391,35.9022,-0.1908,0.0738,0.3846,0.1108
16:46:44:193,-0.0166,3.1358,9.8511,34.7833,-0.1777,0.0703,0.3902,0.1078
16:46:44:213,0.4143,3.2328,9.948,34.9277,-0.2456,-0.0882,0.3721,0.1056
16:46:44:233,0.704,3.2029,10.3048,34.2695,-0.3538,-0.2935,0.2789,0.1039
16:46:44:256,0.9758,2.7683,10.859,33.9653,-0.4776,-0.4993,0.1543,0.1021
16:46:44:275,0.8489,2.1709,11.7389,33.7536,-0.606,-0.5404,0.0421,0.0977
16:46:44:293,0.443,2.3194,13.1826,32.2996,-0.6241,-0.4048,0.0102,0.0934
16:46:44:313,0.1402,2.9227,13.8829,32.4102,-0.4433,-0.078,0.097,0.0883
16:46:44:333,0.522,2.9335,13.0126,32.4102,-0.2582,0.2165,0.2232,0.0825
16:46:44:353,1.2044,2.0345,11.7054,34.7282,-0.3389,0.2021,0.1923,0.0781
16:46:44:374,1.3804,0.7751,12.0058,31.4048,-0.6052,-0.2053,0.0128,0.0755
16:46:44:393,1.9861,-0.2436,13.5597,32.8974,-0.7428,-0.5947,-0.1456,0.0719
16:46:44:413,2.5499,-0.4794,14.6143,33.8994,-0.5338,-0.4525,-0.2929,0.0662
16:46:44:434,2.6301,-0.6434,14.1415,32.6893,-0.1338,-0.1073,-0.438,0.0594
16:46:44:456,2.3512,-1.2695,12.6319,33.0048,0.1256,0.0455,-0.5904,0.0548
16:46:44:475,1.7323,-1.5856,11.946,32.661,0.2151,0.0192,-0.7536,0.0536
16:46:44:493,0.9159,-1.1271,11.7569,32.0185,0.4156,0.0711,-0.8732,0.0549
16:46:44:519,0.4203,0.0078,9.2453,32.3037,1.0103,0.3851,-0.8511,0.057
16:46:44:536,0.4502,0.4878,7.8268,30.9619,1.1014,0.5236,-0.8093,0.0612
16:46:44:554,0.4945,0.9751,6.8116,32.7485,1.0524,0.4666,-0.8372,0.0685
16:46:44:574,0.315,1.2564,6.2873,30.1259,0.9227,0.3497,-0.914,0.0779
16:46:44:592,-0.0023,1.5209,6.2203,29.8247,0.7744,0.2064,-0.9752,0.0886
16:46:44:613,-0.201,1.7496,6.3675,30.1568,0.6383,0.0527,-1.0085,0.0988
16:46:44:635,-0.3447,1.8621,6.5734,30.4894,0.4899,-0.1009,-0.9837,0.1073
16:46:44:653,-0.0346,1.8645,7.0283,30.6576,0.2982,-0.2421,-0.9025,0.1208
16:46:44:675,0.0851,1.6095,7.9345,29.7639,0.0974,-0.2764,-0.8298,0.1208
16:46:44:694,-0.2968,1.4455,9.1376,29.8898,0.0223,-0.2176,-0.7853,0.1255
16:46:44:714,-0.8247,1.4886,10.0881,28.9801,0.1323,-0.1499,-0.7496,0.1287
16:46:44:732,-1.2317,1.6957,10.3191,29.7841,0.3333,-0.123,-0.686,0.1289
16:46:44:753,-1.2066,1.8896,9.9756,29.7092,0.4668,-0.1321,-0.605,0.1293
16:46:44:774,-1.1659,2.3374,9.8475,29.2071,0.467,-0.1039,-0.5286,0.1313
16:46:44:793,-1.3155,2.791,9.9732,28.7654,0.4026,-0.04,-0.4604,0.1353
16:46:44:814,-1.7153,2.7336,9.9756,28.3452,0.3,-0.0216,-0.3922,0.1399
16:46:44:835,-1.8351,2.9574,10.1396,28.3287,0.1789,-0.0525,-0.323,0.1439
16:46:44:855,-2.0781,2.9359,10.057,27.954,0.0457,0.041,-0.2564,0.1473
16:46:44:917,-2.5138,2.5612,10.4161,28.41,-0.1255,0.1007,-0.1976,0.1496
16:46:44:919,-3.2476,2.663,11.466,27.6724,-0.2243,0.0911,-0.1725,0.1507
16:46:44:920,-4.4004,2.7659,11.7664,27.6308,-0.1852,0.1198,-0.0854,0.1503
16:46:44:940,-5.4563,2.0895,10.7106,27.6186,-0.1769,0.0948,0.0935,0.1495
16:46:44:957,-5.1774,0.9056,9.7002,27.6831,-0.3463,-0.2442,0.3058,0.1473
16:46:44:973,-3.1806,0.2256,10.3658,27.2063,-0.6148,-0.5966,0.3894,0.1456
16:46:44:993,-1.9129,0.1718,12.1746,29.1465,-0.6643,-0.5995,0.3069,0.144
16:46:45:012,-2.0757,-0.1562,13.0545,27.4687,-0.3618,-0.2637,0.1804,0.1405
16:46:45:033,-3.165,-0.325,12.2908,29.8038,0.1208,0.237,0.1535,0.1345
16:46:45:057,-3.6798,0.0808,10.1851,27.5368,0.4873,0.6032,0.2752,0.1276
16:46:45:084,-3.76,0.5429,8.1464,28.1072,0.5451,0.6248,0.5013,0.1238
16:46:45:098,-2.4911,1.2671,6.9792,30.2497,0.3714,0.489,0.7101,0.1251
16:46:45:113,-1.2078,2.0225,6.7266,29.5224,0.1331,0.4035,0.7748,0.1331
16:46:45:133,-0.5865,2.6821,6.996,29.4099,-0.0294,0.4131,0.7252,0.1382
16:46:45:153,-0.6284,2.9275,6.9481,29.4676,-0.0544,0.448,0.6224,0.141
16:46:45:176,-0.7385,2.9491,6.4417,27.9156,-0.0462,0.4008,0.5316,0.1415
16:46:45:194,-0.6834,2.9419,5.8779,29.5607,-0.1298,0.3414,0.48,0.1413
16:46:45:214,-0.5745,2.6115,5.6097,30.0527,-0.3362,0.2522,0.4754,0.1411
16:46:45:234,-0.371,2.1937,6.1209,28.9341,-0.5695,0.1028,0.4712,0.1406
16:46:45:254,-0.104,2.1422,7.1336,28.4157,-0.6773,-0.0144,0.4352,0.1386
16:46:45:274,-0.0538,2.1805,8.0027,27.5462,-0.6193,-0.0035,0.382,0.1343
16:46:45:294,-0.274,2.0848,8.4612,30.1996,-0.4693,0.069,0.3444,0.1284
16:46:45:314,-0.3961,2.2583,8.6516,28.9371,-0.3237,0.1342,0.3319,0.1219
16:46:45:333,-0.5841,2.663,8.8778,28.3448,-0.2401,0.2216,0.3127,0.1166
16:46:45:357,-0.7924,3.0616,9.286,29.879,-0.2009,0.2131,0.2877,0.113
16:46:45:374,-0.8666,3.5201,9.8343,27.392,-0.1801,0.1025,0.2584,0.1104
16:46:45:393,-0.8678,3.7715,10.0318,29.4777,-0.21,0.0165,0.2259,0.1083
16:46:45:413,-1.0785,3.3597,10.2473,30.5155,-0.3833,-0.1009,0.2371,0.1064
16:46:45:433,-1.446,2.5014,11.2134,29.1418,-0.6374,-0.2008,0.3194,0.1048
16:46:45:453,-1.4711,2.0393,13.0126,30.5066,-0.7511,-0.1955,0.4515,0.1022
16:46:45:474,-1.1012,2.3326,14.7101,28.0435,-0.5887,-0.0682,0.5401,0.0972
16:46:45:499,-0.6355,3.0341,15.2404,29.9801,-0.2044,0.0831,0.5183,0.0906
16:46:45:514,-0.219,3.0029,13.7249,31.4863,0.1485,0.1475,0.4299,0.0839
16:46:45:534,0.4933,2.2069,11.8514,30.3562,0.1613,-0.0599,0.2816,0.0799
16:46:45:558,1.2164,1.5245,11.6252,29.3021,-0.0685,-0.469,0.0714,0.081
16:46:45:573,1.8437,1.1786,12.5996,30.0134,-0.2446,-0.6945,-0.095,0.0827
16:46:45:593,2.3081,0.6913,13.1156,30.4603,-0.1804,-0.6328,-0.2447,0.0823
16:46:45:613,2.6385,0.167,12.5876,30.528,-0.0203,-0.4663,-0.4468,0.0804
16:46:45:634,2.4949,-0.4914,11.6695,32.1097,0.0281,-0.3702,-0.6801,0.0789
16:46:45:654,1.5635,-0.914,11.4145,31.1813,-0.0004,-0.3619,-0.8543,0.0789
16:46:45:673,0.5029,-0.726,11.5031,29.2408,0.1677,-0.22,-0.9281,0.0793
16:46:45:696,-0.0059,-0.3896,10.3586,31.554,0.4542,-0.029,-0.9177,0.0793
16:46:45:714,-0.0358,0.0317,9.0909,32.2399,0.6037,0.0679,-0.8841,0.081
16:46:45:733,-0.1507,0.319,8.2781,31.6256,0.6306,0.1103,-0.8895,0.0855
16:46:45:754,-0.9205,0.5644,7.9728,31.557,0.663,0.1648,-0.8916,0.0911
16:46:45:776,-2.1702,0.7835,7.8351,33.6272,0.7765,0.2815,-0.7669,0.0974
16:46:45:795,-2.8646,1.2516,7.324,33.2389,0.9214,0.4021,-0.5187,0.1039
16:46:45:813,-2.2696,1.9938,6.6919,32.6047,0.9469,0.4879,-0.286,0.1111
16:46:45:834,-1.373,2.2715,6.176,33.7986,0.7461,0.3262,-0.2223,0.1202
16:46:45:860,-0.7876,2.2476,6.4226,35.2119,0.4314,-0.0218,-0.3518,0.1297
