Time,Acc_X,Acc_Y,Acc_Z,Meg,Gyr_X,Gyr_Y,Gyr_Z,Ore
17:08:46:159,1.1972,7.6944,9.395,77.797,-0.4313,-0.1119,-0.4386,0.2288
17:08:46:176,2.04,6.9426,10.5981,78.3691,-0.2755,0.147,-0.4961,-0.3967
17:08:46:200,2.6732,6.2124,11.5665,78.8051,0.0281,0.1995,-0.6362,0.3225
17:08:46:219,2.5679,5.6605,10.9955,78.6129,0.2463,0.0261,-0.7912,0.3187
17:08:46:236,2.1106,5.4342,9.9552,78.9542,0.2332,-0.2288,-0.8844,0.3161
17:08:46:258,1.6198,5.3277,9.3363,79.9432,0.0782,-0.2469,-0.9108,0.316
17:08:46:275,0.8213,5.0428,9.1017,79.8718,-0.1596,-0.2575,-0.8791,0.3175
17:08:46:295,0.291,4.5448,10.0737,79.489,-0.2643,-0.4266,-0.853,0.3187
17:08:46:319,0.1234,4.2491,10.4616,79.7204,-0.1759,-0.6714,-0.9278,0.3181
17:08:46:334,-0.3243,4.1342,10.1168,78.4976,0.0979,-0.8639,-0.9177,0.3162
17:08:46:353,-0.1926,4.2898,8.6049,78.9763,0.2857,-0.8069,-0.9177,0.315
17:08:46:374,-0.1663,4.4945,7.2318,78.8481,0.3416,-0.693,-0.911,0.3165
17:08:46:395,-0.3638,4.5867,6.5471,78.5325,0.3264,-0.6333,-0.9371,0.3204
17:08:46:414,-1.276,4.6226,6.5985,79.1212,0.3309,-0.6954,-0.8327,0.3245
17:08:46:434,-1.446,4.6286,7.0103,79.1987,0.4188,-0.7649,-0.6937,0.3286
17:08:46:453,-1.0557,4.6849,7.5167,79.7602,0.6167,-0.633,-0.6274,0.3325
17:08:46:472,-1.0079,4.2288,6.085,79.0163,0.6068,-0.4567,-0.5938,0.3372
17:08:46:493,-0.5553,5.1338,5.0387,79.1664,0.3421,-0.4834,-0.6415,0.343
17:08:46:512,-0.6655,5.6198,5.6672,80.3957,0.0945,-0.6253,-0.7166,0.3497
17:08:46:535,-1.7034,5.6066,6.5447,79.9377,-0.0635,-0.7489,-0.6306,0.3546
17:08:46:552,-1.8734,6.1405,7.6029,81.6386,-0.0773,-0.8341,-0.4868,0.3572
17:08:46:571,-1.7405,6.1848,7.9596,81.5666,-0.0307,-0.8155,-0.3166,0.3588
17:08:46:591,-0.8642,6.4051,7.9991,80.3299,-0.0041,-0.6426,-0.2548,0.36
17:08:46:611,-0.3004,6.6948,8.0111,80.4937,-0.0406,-0.4506,-0.3206,0.3615
17:08:46:631,-0.9624,6.7642,7.9872,81.3207,-0.1815,-0.3497,-0.3571,0.363
17:08:46:651,-1.8446,6.7199,8.6109,81.0645,-0.3309,-0.2053,-0.2996,0.3635
17:08:46:672,-2.0194,6.8241,9.7601,81.954,-0.3618,-0.0602,-0.234,0.3625
17:08:46:692,-1.9991,7.0108,10.78,79.9874,-0.2299,-0.0748,-0.238,0.3599
17:08:46:710,-2.2876,7.1557,11.0817,82.2602,-0.0009,-0.0804,-0.2359,0.3566
17:08:46:728,-2.8215,7.1665,10.6866,82.191,0.2066,-0.0565,-0.1829,0.3546
17:08:46:751,-3.8833,6.9402,9.6978,82.4597,0.2556,-0.0847,-0.0279,0.3546
17:08:46:768,-4.5393,6.4709,9.0203,81.023,0.1043,-0.1353,0.2451,0.3564
17:08:46:787,-3.7301,5.9203,8.9772,80.7325,-0.1205,-0.2021,0.4557,0.3589
17:08:46:808,-2.5066,5.4833,9.4177,81.6851,-0.2763,-0.2131,0.4794,0.3603
17:08:46:829,-1.6495,4.9027,10.215,81.5468,-0.243,-0.0993,0.322,0.3601
17:08:46:847,-1.5346,4.3305,10.3945,79.739,-0.0411,-0.0874,0.1002,0.3585
17:08:46:870,-1.7501,4.2814,9.8139,79.939,0.1703,0.0224,-0.0726,0.3569
17:08:46:888,-1.9859,4.5616,8.715,81.8407,0.2849,0.2559,-0.1443,0.3568
17:08:46:910,-1.768,4.7735,7.2079,79.7816,0.2905,0.5305,-0.1842,0.3568
17:08:46:928,-2.0218,4.9219,5.757,82.0336,0.2116,0.5609,-0.1504,0.3582
17:08:46:948,-2.5042,5.2619,4.9741,81.1493,0.0452,0.4527,0.0152,0.3599
17:08:46:971,-2.4133,5.3588,4.9705,81.8389,-0.2179,0.5353,0.2405,0.361
17:08:46:990,-1.4388,5.0775,5.2015,81.0378,-0.4278,0.7207,0.2789,0.3614
17:08:47:007,-0.7888,5.1601,5.5032,81.2092,-0.595,0.9675,0.211,0.3607
17:08:47:030,-1.288,4.8381,5.6516,81.2092,-0.6385,0.9401,0.2528,0.3577
17:08:47:046,-1.4173,4.9434,5.6445,80.2197,-0.5943,0.4133,0.3692,0.3522
17:08:47:066,-0.7612,5.4378,5.8851,80.6222,-0.509,-0.1627,0.3228,0.3445
17:08:47:089,-0.517,5.5587,5.6277,81.0682,-0.5189,-0.371,0.2283,0.3369
17:08:47:109,-0.6894,5.4055,5.7737,80.8165,-0.6222,-0.2735,0.2304,0.3256
17:08:47:128,-0.5326,5.3169,6.8044,80.6774,-0.6435,0.1707,0.2121,0.3256
17:08:47:148,-0.11,5.2343,7.1109,81.4068,-0.648,0.5681,0.0946,0.3219
17:08:47:175,-0.2178,5.4235,7.5383,79.8771,-0.5674,0.522,0.0387,0.3166
17:08:47:189,-0.863,5.5037,8.3703,79.9319,-0.4108,0.0383,0.0555,0.3098
17:08:47:209,-1.0725,5.6413,9.6212,81.6571,-0.1743,-0.2698,0.0248,0.3027
17:08:47:228,-1.5489,5.791,9.8056,81.7793,0.0257,-0.396,0.0115,0.2974
17:08:47:248,-1.6567,5.7994,9.9792,81.2878,0.153,-0.3001,0.0736,0.2952
17:08:47:271,-1.0641,5.8915,10.3323,80.7918,0.2846,-0.1926,0.0653,0.2957
17:08:47:288,-0.7768,6.0831,10.4975,80.5392,0.4524,-0.2661,-0.0394,0.2977
17:08:47:308,-0.353,6.6876,10.537,83.5483,0.6873,-0.3649,-0.168,0.3004
17:08:47:326,0.054,7.5232,9.2429,81.6549,0.8053,-0.3345,-0.2487,0.3043
17:08:47:346,-0.3459,7.4394,7.4808,82.2063,0.4806,-0.0988,-0.1997,0.3066
17:08:47:367,-0.857,6.4805,8.5031,81.8531,-0.0467,0.1031,-0.1494,0.3137
17:08:47:387,-0.6056,5.3026,11.4109,80.243,-0.0725,-0.2964,-0.2476,0.3217
17:08:47:407,0.9674,5.0751,12.499,81.7476,0.4292,-0.6322,-0.5672,0.3261
17:08:47:427,0.4849,5.305,10.543,79.6891,0.7104,-0.3577,-0.5835,0.3253
17:08:47:446,0.3772,5.6581,7.7382,80.9772,0.3317,0.1555,-0.3329,0.3253
17:08:47:467,1.1685,5.463,7.464,80.3943,-0.2041,0.2165,-0.3746,0.3304
17:08:47:487,0.5005,4.7292,9.0837,80.4608,-0.5197,-0.1217,-0.5925,0.3369
17:08:47:509,-0.7062,4.1402,10.683,80.8296,-0.5082,-0.3968,-0.7661,0.3382
17:08:47:528,-1.2748,3.8134,10.9596,78.6766,-0.2345,-0.4269,-0.8242,0.334
17:08:47:548,-1.7213,3.9929,9.2106,80.6567,0.0279,-0.3481,-0.6932,0.3293
17:08:47:568,-1.6507,4.1953,6.9457,80.7038,0.0082,-0.2157,-0.5281,0.3262
17:08:47:588,-1.2389,4.2443,6.2586,79.8256,-0.1277,-0.119,-0.5155,0.3257
17:08:47:608,-2.5246,3.7763,8.1859,79.0159,-0.199,-0.2498,-0.5528,0.3263
17:08:47:630,-3.1997,3.7128,8.2829,78.6096,-0.1253,-0.4117,-0.5813,0.3256
17:08:47:648,-2.7556,3.5739,8.0865,77.9153,0.0372,-0.6418,-0.4748,0.3239
17:08:47:671,-2.0505,3.6506,7.8447,78.8022,0.1682,-0.625,-0.3339,0.3225
17:08:47:689,-1.5657,3.9846,7.4712,77.2965,0.2417,-0.3958,-0.2117,0.3228
17:08:47:709,-1.094,4.1988,7.2893,78.347,0.2675,-0.2549,-0.1238,0.3248
17:08:47:730,-0.7505,4.2144,7.5514,77.8348,0.2247,-0.2091,-0.1099,0.3276
17:08:47:747,-0.7421,4.4239,8.041,78.5501,0.148,-0.1798,-0.2002,0.3303
17:08:47:767,-1.185,4.7651,8.4636,77.4343,0.1328,-0.1763,-0.2926,0.3331
17:08:47:792,-1.8985,5.111,8.4098,77.4702,0.1813,-0.0711,-0.3259,0.335
17:08:47:807,-2.0984,5.7814,8.4959,77.3137,0.2098,0.0884,-0.2641,0.3362
17:08:47:827,-1.8063,6.447,8.4876,77.1532,0.2811,0.1041,-0.1765,0.3377
17:08:47:846,-1.3299,7.0803,8.0758,77.9902,0.4002,0.0887,-0.1051,0.3393
17:08:47:867,-0.6739,7.6968,7.3982,78.7147,0.4742,0.1182,-0.041,0.341
17:08:47:886,-0.8726,7.7518,6.8727,78.2079,0.4436,0.1814,-0.0335,0.3439
17:08:47:907,-1.9524,7.0575,7.2833,76.2578,0.222,0.2807,-0.03,0.3477
17:08:47:928,-2.6694,6.0089,8.9868,75.7638,-0.1064,0.2117,0.015,0.3518
17:08:47:947,-3.183,5.05,11.0805,75.9255,-0.2976,-0.1167,0.0238,0.3549
17:08:47:966,-3.4631,4.6573,11.867,75.5973,-0.1868,-0.4482,-0.0026,0.3535
17:08:47:987,-3.2536,4.8764,11.0709,74.6796,0.1038,-0.4536,0.0307,0.351
17:08:48:009,-2.8215,5.1445,9.3411,76.7279,0.3775,-0.1635,0.1074,0.3502
17:08:48:027,-2.6802,5.2188,7.4485,73.354,0.455,0.1443,0.146,0.352
17:08:48:047,-2.7688,4.8716,6.7661,75.0756,0.2383,0.1992,0.1098,0.3558
17:08:48:068,-2.5665,4.5987,7.974,73.6583,-0.1247,-0.0269,0.0269,0.3596
17:08:48:089,-2.7843,4.5029,9.061,75.7576,-0.2582,-0.2575,-0.1025,0.3615
17:08:48:109,-2.8861,4.7914,8.7665,73.9444,-0.1064,-0.1838,-0.1555,0.3604
17:08:48:158,-2.9112,5.0991,7.2881,74.0824,0.1504,0.0967,-0.1062,0.3585
17:08:48:162,-2.9472,5.1853,5.8911,72.5413,0.2907,0.4258,-0.0146,0.3589
17:08:48:172,-3.0178,4.9949,4.8939,73.3708,0.0838,0.4834,0.1018,0.3607
17:08:48:189,-3.1387,4.9434,4.7993,72.6148,-0.0214,0.2567,0.2147,0.3622
17:08:48:208,-2.8406,4.7567,4.9118,74.4447,-0.0946,0.1625,0.3532,0.3621
17:08:48:227,-2.0002,4.7256,5.0028,72.8027,-0.1439,0.2104,0.4259,0.3617
17:08:48:247,-1.1515,4.8752,4.749,71.9719,-0.1988,0.31,0.4179,0.3609
17:08:48:267,-0.6427,5.1158,4.439,73.7216,-0.312,0.3273,0.3681,0.3596
17:08:48:289,-0.7708,5.1625,4.737,72.4549,-0.4427,0.2192,0.3037,0.3596
17:08:48:309,-0.9827,5.0021,5.6037,72.8481,-0.5231,0.0277,0.224,0.3575
17:08:48:326,-1.1743,4.9362,6.656,71.6823,-0.4933,-0.1353,0.129,0.3546
17:08:48:346,-1.4999,5.0979,7.6711,74.2769,-0.3354,-0.1308,0.0842,0.3504
17:08:48:366,-1.7465,5.4426,8.3056,71.752,-0.0981,-0.0533,0.0794,0.3419
17:08:48:388,-1.786,6.0412,7.98,72.2997,0.0609,0.0565,0.1108,0.3403
17:08:48:407,-1.6782,6.6589,7.3611,70.7638,0.0175,0.22,0.1596,0.3385
17:08:48:425,-1.5693,7.1509,7.3156,71.3342,-0.1506,0.188,0.1774,0.3387
17:08:48:445,-1.3873,7.4274,7.8411,71.2334,-0.3612,-0.0051,0.1468,0.339
17:08:48:464,-1.1623,7.5854,8.5809,69.6286,-0.5612,-0.1979,0.0688,0.3388
17:08:48:486,-1.2126,7.5842,9.7577,71.2769,-0.6859,-0.2935,-0.021,0.3372
17:08:48:505,-1.7082,7.6549,11.4671,70.2902,-0.5966,-0.2479,-0.0689,0.334
17:08:48:525,-2.1199,7.7004,12.3015,70.3233,-0.345,-0.1872,-0.0202,0.3297
17:08:48:545,-1.6986,7.698,11.6156,70.0938,-0.1626,-0.1497,0.081,0.324
17:08:48:567,-0.8989,7.1473,10.6423,68.4411,-0.1753,-0.1976,0.1673,0.319
17:08:48:592,0.5663,6.119,10.8554,68.756,-0.2044,-0.3585,0.1007,0.3163
17:08:48:605,1.9442,5.3672,12.4559,67.4172,0.0697,-0.3806,-0.2141,0.3152
17:08:48:626,1.0572,5.0201,12.3745,67.3809,0.5184,-0.1041,-0.4311,0.3141
17:08:48:645,-0.5781,4.9446,10.0282,68.7342,0.663,0.2615,-0.2953,0.3132
17:08:48:665,-0.7684,5.0236,7.9153,68.8032,0.4337,0.3609,-0.0836,0.3145
17:08:48:685,0.1617,4.6394,7.166,68.6404,0.006,0.1206,-0.1028,0.3192
17:08:48:706,0.534,3.7978,8.1464,69.2527,-0.337,-0.3164,-0.3424,0.3246
17:08:48:724,-0.3207,2.7623,9.9684,67.3585,-0.35,-0.5665,-0.5275,0.3275
17:08:48:745,-1.3586,2.7899,11.0518,66.5318,0.0388,-0.3273,-0.4881,0.3273
17:08:48:766,-1.7321,3.1921,10.2317,66.3634,0.5421,0.1092,-0.3107,0.3246
17:08:48:785,-0.9193,3.4566,8.3463,66.4703,0.9288,0.3412,-0.2016,0.3222
17:08:48:805,0.3425,3.568,6.2621,68.067,1.0223,0.3332,-0.299,0.3246
17:08:48:827,0.8237,3.7009,5.1931,65.5329,0.9789,0.3047,-0.5006,0.3311
17:08:48:846,-0.0933,4.2467,4.761,66.1052,0.9214,0.1917,-0.5986,0.3391
17:08:48:867,-1.3622,4.9698,4.2953,64.251,0.8069,0.077,-0.5443,0.3474
17:08:48:886,-2.3486,5.5372,3.5603,65.1242,0.4787,0.0346,-0.3816,0.3551
17:08:48:907,-1.9931,5.6282,3.6776,64.6488,0.0486,-0.1947,-0.2886,0.3621
17:08:48:925,-1.6363,5.7311,4.8448,64.5539,-0.2478,-0.599,-0.3115,0.3676
17:08:48:946,-1.6363,6.3656,6.3436,63.709,-0.3618,-0.7803,-0.2665,0.3697
17:08:48:968,-1.4196,6.9366,7.5574,64.2567,-0.3455,-0.6285,-0.177,0.369
17:08:48:987,-1.8494,6.8899,8.5594,63.1102,-0.2579,-0.4256,-0.1358,0.367
17:08:49:007,-2.1283,6.7104,8.7162,64.3677,-0.149,-0.3819,-0.0972,0.3646
17:08:49:025,-1.7393,6.963,8.624,64.173,-0.0741,-0.5199,-0.1009,0.3624
17:08:49:045,-1.2832,7.4142,8.1296,63.6157,-0.0286,-0.6599,-0.1302,0.3611
17:08:49:065,-0.869,7.5519,7.6807,62.2194,-0.0896,-0.4975,-0.1363,0.3607
17:08:49:090,-0.4859,7.7099,8.1787,64.059,-0.3103,-0.074,-0.0953,0.3611
17:08:49:105,-1.7501,7.0767,9.638,61.922,-0.591,0.2612,-0.1853,0.3615
17:08:49:124,-3.754,5.6797,11.4815,61.2166,-0.7799,0.2173,-0.3339,0.3602
17:08:49:144,-5.5389,4.455,12.7121,62.1379,-0.7335,-0.1204,-0.4151,0.3557
17:08:49:166,-6.7348,4.0767,12.5529,63.3448,-0.4203,-0.1742,-0.3595,0.3486
17:08:49:185,-6.1925,3.9534,10.8243,61.5765,0.0044,0.0498,-0.0314,0.3414
17:08:49:205,-4.1275,3.6063,8.952,62.5043,0.2588,0.3326,0.3785,0.3358
17:08:49:225,-2.3965,2.955,8.6192,59.3972,0.2297,0.551,0.5335,0.3338
17:08:49:244,-2.1846,1.8334,9.1555,58.7137,0.1182,0.7025,0.3484,0.3351
17:08:49:264,-2.582,1.3809,9.6619,58.7043,0.0795,0.8682,0.0999,0.3374
17:08:49:284,-3.0537,1.5892,8.9257,58.7805,0.1887,1.0352,-0.0434,0.3384
17:08:49:305,-2.515,1.9615,7.2545,60.4492,0.3672,1.0938,-0.0463,0.338
17:08:49:325,-1.4843,2.8677,5.3476,59.7085,0.4737,1.1878,-0.0117,0.3382
17:08:49:345,-0.9444,3.6338,3.7016,57.3102,0.4542,1.2157,-0.0964,0.3399
17:08:49:365,-1.3526,3.9187,2.927,58.5355,0.2638,1.0346,-0.2564,0.3423
17:08:49:389,-1.9811,4.4969,3.2838,58.3561,-0.0688,0.898,-0.3571,0.3444
17:08:49:405,-2.5641,4.813,3.8967,58.2702,-0.3106,0.8067,-0.368,0.3449
17:08:49:425,-3.11,4.7244,3.7686,58.6557,-0.4121,0.4557,-0.3326,0.3425
17:08:49:445,-3.0573,4.8956,4.6185,58.0387,-0.6683,0.2751,-0.2426,0.3378
17:08:49:465,-2.4731,5.0356,5.6624,57.411,-0.8859,0.1188,-0.1358,0.3328
17:08:49:488,-2.6431,4.8991,6.1113,56.7229,-0.9562,-0.0642,-0.1744,0.3259
17:08:49:506,-2.5569,4.9949,6.8643,56.698,-1.0582,-0.2282,-0.1882,0.3177
17:08:49:524,-2.6682,5.0787,8.0351,56.7901,-1.1162,-0.3566,-0.177,0.3088
17:08:49:545,-3.2117,5.3325,9.3483,56.6126,-1.0427,-0.2956,-0.1837,0.299
17:08:49:565,-3.8043,5.7096,10.0163,54.9409,-0.8057,-0.1412,-0.1286,0.2894
17:08:49:586,-4.0341,6.1058,9.8439,56.6003,-0.4904,0.0261,0.0102,0.2799
17:08:49:605,-3.6343,6.538,9.225,55.829,-0.2736,0.1899,0.1913,0.2724
17:08:49:625,-3.0345,6.8959,8.9305,55.6001,-0.2816,0.2706,0.325,0.2679
17:08:49:646,-2.843,6.9115,9.6308,54.1772,-0.5088,0.2168,0.3585,0.2654
17:08:49:666,-3.1806,6.3943,11.0733,55.3094,-0.986,-0.1505,0.2373,0.2628
17:08:49:687,-3.3817,5.39,12.9312,53.7599,-0.9578,-0.3997,0.2259,0.2628
17:08:49:706,-2.7652,4.8537,14.515,53.5549,-0.6126,-0.6698,0.2259,0.2514
17:08:49:725,-1.4256,4.7363,14.5844,53.7271,-0.142,-0.7366,0.1915,0.2472
17:08:49:744,0.1988,5.0524,13.9535,53.22,0.2441,-0.5393,0.0744,0.2347
17:08:49:763,1.2032,5.536,13.3274,52.7255,0.5751,-0.2455,-0.1121,0.2305
17:08:49:786,1.1733,5.8341,11.685,52.4882,0.6348,0.1877,-0.2668,0.2308
17:08:49:805,0.2371,5.536,10.1037,52.6151,0.1991,0.5539,-0.3187,0.2341
17:08:49:824,-1.3969,4.4359,10.8159,52.6315,-0.3311,0.3936,-0.303,0.2396
17:08:49:852,-2.6886,3.0005,12.7433,52.6542,-0.5016,-0.2157,-0.2889,0.2449
17:08:49:864,-3.0082,1.7017,13.6411,51.5153,-0.288,-0.7332,-0.3451,0.2455
17:08:49:885,-2.412,1.4252,12.8785,51.5153,0.1411,-0.9484,-0.4466,0.2413
17:08:49:906,-1.6435,1.5748,10.6304,50.5027,0.495,-0.8259,-0.5464,0.2368
17:08:49:924,-1.7908,1.6203,8.5163,52.2982,0.7256,-0.6013,-0.5512,0.2348
17:08:49:944,-2.5868,1.649,7.3958,51.5443,0.9057,-0.4253,-0.3864,0.2372
17:08:49:964,-2.6658,1.6562,6.8308,52.881,1.0955,-0.3811,-0.1797,0.2423
17:08:49:985,-2.0338,1.5903,5.9437,51.6914,1.2101,-0.4208,-0.0639,0.2495
17:08:50:005,-0.8343,1.7412,4.7813,50.591,1.1941,-0.5462,-0.0924,0.2583
17:08:50:026,0.2419,2.0189,3.9889,52.284,0.985,-0.6301,-0.2117,0.2684
17:08:50:046,0.8644,2.153,3.935,51.6608,0.6878,-0.6602,-0.4356,0.2804
17:08:50:067,0.704,2.3864,4.6748,50.87,0.4923,-0.645,-0.7033,0.2923
17:08:50:088,-0.2297,2.6294,5.0938,50.0921,0.3669,-0.6341,-0.8697,0.3021
17:08:50:108,-0.9624,2.9072,4.6532,49.9246,0.1174,-0.6655,-0.9368,0.3086
17:08:50:127,-1.4053,3.0484,3.7854,50.8497,-0.3428,-0.8618,-0.9427,0.3134
17:08:50:179,-1.0486,2.8796,4.1624,50.4227,-0.8198,-1.0115,-1.0074,0.3175
17:08:50:181,0.5077,3.3166,5.2746,51.0687,-1.2156,-0.9761,-1.2828,0.3165
17:08:50:193,0.388,4.4215,7.6783,51.5144,-1.4502,-0.8253,-1.4924,0.311
17:08:50:205,-1.7991,3.8852,10.2258,50.6238,-1.3825,-0.4426,-1.4149,0.3011
17:08:50:226,-3.4068,3.5787,11.8191,51.666,-1.1034,0.1017,-1.1997,0.2883
17:08:50:247,-4.5632,3.2448,11.7126,51.1163,-0.9703,0.6218,-0.9864,0.2737
17:08:50:266,-5.5556,2.8712,11.7006,51.6626,-0.9977,0.6786,-0.8082,0.2611
17:08:50:290,-5.8418,2.2571,11.9101,48.8628,-1.0502,0.3763,-0.7459,0.2513
17:08:50:305,-6.3517,1.5676,12.0813,49.4967,-1.0776,0.1076,-0.7629,0.2413
17:08:50:326,-7.5728,0.8218,12.2548,49.3227,-1.068,0.0224,-0.6093,0.2308
17:08:50:346,-8.5987,-0.9068,13.4938,48.8206,-0.9218,0.269,-0.3044,0.2205
17:08:50:366,-8.4215,-1.3617,13.0557,48.7365,-0.6283,0.7475,-0.0098,0.2094
17:08:50:392,-7.9175,-1.2216,11.4073,49.4877,-0.2387,1.0727,0.1697,0.1991
17:08:50:408,-7.0113,-0.5824,9.1065,50.1911,0.0548,0.9942,0.2776,0.1913
17:08:50:425,-5.0253,0.1514,7.1672,47.972,0.1355,0.5366,0.3694,0.1876
17:08:50:444,-2.8023,0.7189,6.0251,50.0907,-0.0086,0.0322,0.3945,0.1874
17:08:50:464,-2.0697,1.3749,5.8911,49.9772,-0.2368,-0.269,0.2544,0.1891
17:08:50:484,-2.94,1.5102,6.4896,49.8753,-0.452,-0.1763,0.0941,0.1904
17:08:50:505,-3.7971,1.667,7.239,50.2128,-0.4688,-0.0019,0.1455,0.1896
17:08:50:526,-3.4894,1.7113,6.4764,48.2779,-0.2595,0.3198,0.3598,0.1863
17:08:50:545,-2.7161,1.722,5.3536,50.2711,-0.0848,0.4184,0.55,0.1818
17:08:50:566,-2.0266,1.7376,5.016,50.125,-0.1215,0.3649,0.6174,0.1784
17:08:50:589,-1.8327,1.8501,5.5307,48.5111,-0.2459,0.221,0.5585,0.1774
17:08:50:607,-2.5162,1.8082,6.1161,50.1389,-0.3309,0.1774,0.4746,0.177
17:08:50:624,-3.2859,1.6382,6.0431,47.7579,-0.3607,0.3068,0.5319,0.1752
17:08:50:644,-2.6898,1.9734,5.9581,47.4869,-0.431,0.494,0.7532,0.1725
17:08:50:664,-2.0302,2.0201,6.8092,48.3371,-0.591,0.6296,0.8504,0.1696
17:08:50:686,-2.4587,2.0177,8.0207,47.7103,-0.7335,0.6916,0.7234,0.1663
17:08:50:708,-4.252,2.0477,9.2693,46.8911,-0.803,0.5617,0.4858,0.1614
17:08:50:725,-5.2444,1.9998,11.9256,48.9643,-0.9077,0.2181,0.4368,0.1548
17:08:50:746,-4.6937,2.1231,14.5928,48.6981,-0.8784,-0.0309,0.5915,0.1476
17:08:50:767,-3.7396,2.4295,16.0413,49.2022,-0.6004,-0.0948,0.6797,0.1393
17:08:50:787,-3.6223,2.141,16.0078,48.4487,-0.235,0.0565,0.6211,0.1315
17:08:50:806,-3.1949,2.0165,15.8833,47.5505,-0.0126,0.212,0.5481,0.1269
17:08:50:826,-1.6998,2.6689,16.319,49.7769,0.1368,-0.0053,0.4672,0.1254
17:08:50:844,-0.7421,2.9646,15.6762,49.2028,0.4628,-0.3848,0.179,0.1259
17:08:50:864,-0.5218,3.8301,14.4228,47.4073,0.9064,-0.6107,-0.1826,0.1277
17:08:50:884,-0.6559,4.3533,13.1802,48.6901,1.3246,-0.6621,-0.209,0.1329
17:08:50:905,-1.1024,4.145,12.7899,47.4386,1.4798,-0.2637,-0.192,0.1421
17:08:50:925,-0.7648,4.7196,12.3279,48.4791,1.5872,0.1092,-0.1131,0.1554
17:08:50:946,-0.6643,4.813,10.8399,47.9081,1.719,0.3183,-0.0977,0.1618
17:08:50:965,-2.3678,3.9486,10.0689,49.0275,1.5435,0.3728,-0.2295,0.1765
17:08:50:985,-3.4356,2.8186,11.7221,49.7795,0.952,0.1308,-0.2804,0.1924
17:08:51:006,-2.9831,1.9698,12.9432,51.3629,0.5885,-0.3862,-0.2071,0.2074
17:08:51:025,-2.4288,1.1714,11.849,50.3197,0.8021,-0.7739,-0.2292,0.2227
17:08:51:044,-2.1547,0.5632,9.2322,50.5855,1.4473,-0.5332,-0.3709,0.2283
17:08:51:064,-1.9847,0.6997,6.2789,51.7921,1.4196,-0.376,-0.4053,0.2283
17:08:51:085,-2.3642,0.7213,3.9398,50.8741,1.1366,-0.474,-0.3579,0.2358
17:08:51:104,-2.1762,0.6554,3.3089,49.8943,0.7855,-0.7571,-0.2415,0.2612
17:08:51:124,-1.1778,0.6015,3.996,51.0383,0.642,-0.9518,-0.2985,0.2744
17:08:51:144,-0.8822,0.7416,4.6497,51.4598,0.7424,-0.8397,-0.4444,0.2845
17:08:51:163,-1.4209,0.7572,5.0279,51.1663,0.9126,-0.4951,-0.5419,0.292
17:08:51:184,-2.2876,1.4,5.2147,52.8638,1.079,-0.0844,-0.5728,0.2981
17:08:51:205,-3.2416,2.3445,4.8149,53.064,1.1688,0.1624,-0.4711,0.3046
17:08:51:224,-4.2209,2.9969,3.7542,52.1073,0.9906,0.2519,-0.2631,0.3128
17:08:51:244,-4.6518,3.4818,2.9546,53.2254,0.5246,0.2205,-0.0045,0.3224
17:08:51:263,-3.7528,4.0935,2.8564,53.1619,-0.0603,0.012,0.1066,0.3324
17:08:51:283,-2.5126,4.3401,3.3795,53.6011,-0.6835,-0.2101,-0.0087,0.3414
17:08:51:305,-2.011,4.4012,4.6305,54.0813,-1.259,-0.3095,-0.2753,0.3463
17:08:51:326,-2.8262,4.2024,7.1731,53.4006,-1.5751,-0.2075,-0.4905,0.3458
17:08:51:346,-3.5912,3.963,9.8128,54.4984,-1.5141,0.1707,-0.6892,0.3397
17:08:51:365,-4.7404,3.647,11.3067,53.7711,-1.2169,0.6445,-0.8436,0.3276
17:08:51:384,-6.9443,3.5129,12.2369,54.2917,-0.8542,0.8852,-0.7864,0.3123
17:08:51:406,-8.7591,3.1574,12.353,53.2577,-0.5226,0.869,-0.6101,0.2981
17:08:51:424,-9.6521,2.827,11.3905,55.0809,-0.419,0.7643,-0.3869,0.2856
17:08:51:444,-10.0615,2.3876,10.2401,54.6158,-0.7005,0.5382,-0.0886,0.2767
17:08:51:464,-9.7192,1.1355,10.6112,54.6288,-1.0478,0.1606,0.1726,0.2692
17:08:51:485,-9.2008,0.1443,12.6259,54.6122,-1.0241,0.0165,0.3148,0.264
17:08:51:505,-9.214,0.0664,13.7177,55.3678,-0.6821,0.1526,0.4776,0.2556
17:08:51:524,-8.8225,0.2652,12.5625,55.3058,-0.3394,0.2921,0.7141,0.246
17:08:51:546,-7.5775,0.5525,10.2138,55.5822,-0.1921,0.3017,0.8954,0.2382
17:08:51:564,-6.0297,0.9044,8.2182,53.8151,-0.202,0.1981,0.9945,0.2344
17:08:51:585,-4.7404,1.2516,6.9589,54.3675,-0.2661,0.0826,1.0424,0.2333
17:08:51:605,-3.7061,1.3342,6.2502,55.3995,-0.3069,0.028,1.0848,0.2329
17:08:51:625,-2.6922,1.3821,5.8348,54.9434,-0.284,0.1233,1.1037,0.2322
17:08:51:645,-1.8722,1.5688,5.4278,56.2752,-0.2211,0.3627,1.0959,0.2309
17:08:51:664,-1.1647,1.5712,4.7957,54.906,-0.2741,0.7534,0.9644,0.2296
17:08:51:685,-1.2569,1.6311,4.5503,54.469,-0.313,0.833,0.8874,0.2287
17:08:51:706,-1.1359,2.1159,4.8484,55.7309,-0.292,0.7428,0.8384,0.2277
17:08:51:725,-0.9061,2.5361,5.2327,55.9243,-0.2696,0.714,0.7577,0.2255
17:08:51:744,-1.0725,2.8138,5.3583,56.2195,-0.2827,0.5976,0.664,0.2232
17:08:51:764,-1.3646,3.4507,5.6947,55.7364,-0.35,0.4937,0.525,0.2211
17:08:51:785,-2.4216,4.4658,6.2921,57.4575,-0.4976,0.5904,0.3798,0.219
17:08:51:805,-2.855,4.6645,6.8799,57.1836,-0.7189,0.6506,0.367,0.2165
17:08:51:825,-2.8346,4.4203,7.8363,57.2475,-0.9935,0.4653,0.424,0.2126
17:08:51:844,-3.5325,4.2527,9.6248,57.1514,-1.288,0.1529,0.3029,0.2067
17:08:51:863,-3.7552,4.4514,11.7868,57.1601,-1.4571,-0.3505,0.1785,0.1989
17:08:51:883,-3.3589,4.4682,13.4208,59.5035,-1.4044,-0.7702,0.1742,0.182
17:08:51:903,-3.1088,4.2719,14.4886,58.0963,-1.2363,-0.7641,0.1761,0.1689
17:08:51:924,-3.1028,3.7248,15.2392,59.0218,-1.075,-0.3981,0.1452,0.1575
17:08:51:943,-2.8203,2.9658,15.7348,59.198,-0.8835,-0.02,0.0941,0.1471
17:08:51:963,-2.8645,2.5421,15.7779,58.5541,-0.5128,0.0746,0.0051,0.1376
17:08:51:985,-2.3821,2.5289,15.1195,59.3004,-0.0185,0.0668,-0.0447,0.1297
17:08:52:005,-1.5382,2.572,14.2396,60.1948,0.4196,-0.0021,-0.0604,0.1246
17:08:52:025,-0.5853,2.8425,13.2197,59.7216,0.7155,-0.0701,-0.1187,0.1243
17:08:52:043,-0.7098,3.2052,12.5374,60.9463,0.8175,0.0093,-0.3004,0.128
17:08:52:063,-2.6718,2.8808,12.9372,60.8731,0.7057,0.1348,-0.539,0.1312
17:08:52:084,-4.4184,2.256,13.6243,61.6399,0.5317,0.0511,-0.6575,0.1387
17:08:52:105,-5.0529,1.6275,13.908,61.629,0.4167,-0.3167,-0.6367,0.1454
17:08:52:124,-4.823,1.3055,13.2831,60.9018,0.4026,-0.7622,-0.5968,0.1499
17:08:52:143,-4.841,1.1199,12.3722,60.5489,0.4875,-0.9625,-0.6008,0.1535
17:08:52:183,-4.9727,0.7895,11.2744,61.8632,0.6819,-0.8687,-0.5664,0.1571
17:08:52:185,-4.8481,0.5202,9.9265,62.6603,1.0082,-0.6621,-0.4301,0.1613
17:08:52:204,-4.2113,0.3849,8.0949,62.8407,1.4236,-0.4621,-0.2122,0.1671
17:08:52:224,-3.0585,0.6231,5.6864,64.388,1.8034,-0.248,0.0104,0.1753
17:08:52:244,-2.4575,0.7213,3.6441,63.8868,1.989,-0.0514,0.1375,0.1865
17:08:52:264,-2.029,0.8302,2.6685,63.9869,1.9166,-0.016,0.2131,0.2025
17:08:52:284,-1.6902,1.0229,2.5021,65.1161,1.6918,-0.1326,0.228,0.2214
17:08:52:306,-1.8865,1.2923,2.8384,63.6732,1.4114,-0.3215,0.1258,0.2488
17:08:52:327,-2.9077,1.6131,3.2263,64.3526,1.1086,-0.4743,-0.0274,0.2653
17:08:52:343,-3.9647,2.0872,4.2606,65.8185,0.7893,-0.5361,-0.0596,0.2792
17:08:52:363,-4.1203,2.718,5.4912,64.7069,0.4977,-0.49,0.0887,0.2901
17:08:52:385,-3.6487,3.3537,6.5028,63.5847,0.3062,-0.5116,0.2328,0.2975
17:08:52:406,-2.91,4.1019,7.1839,64.603,0.1834,-0.5577,0.2978,0.3027
17:08:52:426,-2.6251,4.7244,7.6628,65.7275,-0.1231,-0.2908,0.175,0.3063
17:08:52:446,-3.3135,4.8381,8.2565,64.9456,-0.3301,-0.2754,0.0797,0.3087
17:08:52:465,-3.4212,5.2702,9.1136,66.3359,-0.4755,-0.4876,0.0328,0.31
17:08:52:484,-3.0369,5.366,10.1599,66.2756,-0.5421,-0.6216,-0.0079,0.3093
17:08:52:507,-3.0262,4.9183,11.6383,67.969,-0.4883,-0.4264,-0.0663,0.3066
17:08:52:525,-4.1802,4.3066,13.4747,66.6932,-0.1711,-0.078,-0.0474,0.3026
17:08:52:543,-5.8992,3.5488,14.2899,65.655,0.4063,0.1422,0.1199,0.298
17:08:52:562,-6.1829,3.3393,12.4129,67.1006,0.866,0.2642,0.3734,0.2938
17:08:52:584,-5.0959,3.7164,8.5558,65.8363,0.7014,0.4621,0.5806,0.2923
17:08:52:605,-4.325,3.7475,5.8132,67.1384,-0.1314,0.6293,0.6011,0.2961
17:08:52:624,-4.3885,2.5624,6.4381,65.5339,-0.9841,0.2061,0.4989,0.3044
17:08:52:643,-4.2975,1.3737,9.8391,66.2719,-1.1117,-0.4197,0.2989,0.3106
17:08:52:663,-4.0688,1.4407,12.1088,66.3376,-0.5418,-0.6187,0.1258,0.3093
17:08:52:683,-3.997,2.3649,11.448,66.5838,0.1546,-0.2216,0.1966,0.3002
17:08:52:704,-3.5254,3.2244,8.7222,65.9665,0.524,0.4152,0.4469,0.2909
17:08:52:724,-2.7293,3.7056,6.1688,65.9665,0.4681,0.7915,0.6794,0.2866
17:08:52:744,-1.9224,3.884,5.0327,64.002,0.2127,0.677,0.7766,0.2885
17:08:52:764,-1.343,3.9319,5.1536,67.104,0.0265,0.2064,0.7199,0.2953
17:08:52:783,-1.1707,3.8146,5.8168,66.0627,-0.0422,-0.2296,0.6621,0.2981
17:08:52:804,-0.8044,3.6853,6.4046,66.0185,-0.0076,-0.3643,0.6272,0.2991
17:08:52:825,-0.468,3.7667,6.6321,65.7332,0.0715,-0.187,0.5873,0.2995
17:08:52:844,-0.3135,3.9451,6.4681,65.2174,0.1341,0.0597,0.5361,0.3002
17:08:52:863,-0.2728,4.1414,6.3304,65.9562,0.1666,0.175,0.4411,0.3015
17:08:52:884,-0.5529,4.2719,6.2993,66.6862,0.1794,0.1574,0.3204,0.303
17:08:52:904,-1.0785,4.3868,6.4932,64.5326,0.1783,0.1103,0.2304,0.3044
17:08:52:925,-1.6399,4.7028,6.8607,67.5634,0.185,0.0586,0.1971,0.306
17:08:52:944,-1.9823,5.1685,7.3946,66.0428,0.2082,0.033,0.2397,0.3077
17:08:52:963,-1.6806,5.8149,7.8316,65.6913,0.2066,0.0061,0.2797,0.3093
17:08:52:983,-1.4927,6.119,8.2769,66.8652,0.1616,0.0525,0.276,0.3112
17:08:53:005,-1.9811,6.2495,8.7856,65.797,0.087,0.1768,0.3132,0.3134
17:08:53:024,-2.4276,6.0759,9.3207,67.0916,-0.0142,0.2738,0.3822,0.3151
17:08:53:047,-2.3486,6.1585,9.9516,65.9683,-0.0882,0.2266,0.3662,0.3163
17:08:53:064,-2.1199,6.3297,10.6651,66.5051,-0.0821,-0.0482,0.2576,0.3165
17:08:53:084,-1.8171,6.6278,10.9919,66.0519,0.0348,-0.5047,0.2275,0.3157
17:08:53:105,1.5097,6.8552,10.4927,65.8586,0.0979,-0.7132,0.2381,0.3149
17:08:53:126,1.8496,6.8863,11.1272,65.8446,0.0628,-0.4613,0.0965,0.3153
17:08:53:145,1.0991,6.1705,10.7285,64.395,0.1288,-0.1529,-0.0934,0.3176
17:08:53:163,-0.1711,5.1673,9.808,64.0257,0.1448,0.1257,-0.1957,0.3195
17:08:53:184,-0.6164,4.3784,9.6188,64.8836,-0.076,0.2727,-0.192,0.3217
17:08:53:205,-0.3878,3.4459,10.2305,64.2777,-0.4078,0.1111,-0.1869,0.3226
17:08:53:224,0.036,2.8581,11.533,64.8475,-0.6555,-0.2788,-0.2884,0.3223
17:08:53:243,-0.1112,2.7755,11.7904,63.2598,-0.5769,-0.5726,-0.5009,0.3196
17:08:53:264,-0.286,3.0233,10.1982,62.3162,-0.1894,-0.5606,-0.6868,0.3144
17:08:53:284,-0.2585,3.4267,7.8818,62.6916,0.2119,-0.2788,-0.7347,0.3088
17:08:53:304,-0.1316,3.8529,5.8384,62.6822,0.4263,0.073,-0.7206,0.306
17:08:53:324,-0.0562,4.2359,4.5455,61.6828,0.4644,0.2847,-0.723,0.3067
17:08:53:343,-0.6415,4.3102,4.4821,62.6291,0.3469,0.3254,-0.7624,0.3096
17:08:53:362,-1.264,4.2156,4.9094,60.813,0.1989,0.1412,-0.7725,0.3131
17:08:53:383,-1.6148,3.9331,5.6887,61.6543,0.0971,-0.1249,-0.7267,0.316
17:08:53:404,-1.689,3.8194,6.9325,61.1251,0.0028,-0.2642,-0.6239,0.3176
17:08:53:423,-1.9248,3.8517,7.6544,60.7307,0.0154,-0.2328,-0.5539,0.3184
17:08:53:443,-2.4827,4.0839,8.2003,58.962,0.0729,-0.1846,-0.4918,0.3186
17:08:53:463,-2.4647,4.3688,8.8647,60.2043,0.1176,-0.2005,-0.3619,0.3185
17:08:53:484,-1.5741,4.6944,9.0598,60.1783,0.206,-0.298,-0.1861,0.3188
17:08:53:505,-1.2018,5.0751,9.3136,58.4296,0.2809,-0.2599,-0.1107,0.3195
17:08:53:525,-1.2329,5.5887,9.3914,61.6383,0.3286,-0.0772,-0.1142,0.321
17:08:53:544,-2.1834,5.5157,9.2058,58.5517,0.3208,0.1507,-0.1691,0.3237
17:08:53:562,-3.0118,5.2906,9.3926,59.3555,0.2132,0.3108,-0.1925,0.3265
17:08:53:583,-2.7628,5.6856,9.7361,57.988,0.0883,0.2168,-0.2,0.3295
17:08:53:606,-2.3797,6.3907,9.7421,59.0014,0.046,-0.0501,-0.2854,0.3317
17:08:53:623,-3.2009,6.5368,10.458,58.1488,-0.0134,-0.0455,-0.4149,0.3325
17:08:53:643,-4.4268,6.2926,10.634,58.8938,0.0079,0.2352,-0.437,0.3328
17:08:53:663,-5.8274,5.5635,9.5338,57.3346,0.1339,0.5758,-0.3464,0.3329
17:08:53:683,-6.6318,4.7004,8.891,57.0155,0.1059,0.7156,-0.1624,0.3322
17:08:53:706,-6.0405,3.8062,9.2166,57.3342,-0.1074,0.4759,0.0709,0.3322
17:08:53:724,-5.5604,3.2148,10.1707,57.2007,-0.3064,0.0629,0.1606,0.3327
17:08:53:744,-5.5221,2.4966,11.1415,57.3536,-0.3881,-0.1806,0.1947,0.3314
17:08:53:763,-5.0816,1.7376,11.0087,56.873,-0.2637,-0.1577,0.2813,0.3287
17:08:53:785,-3.845,1.807,9.4273,56.8148,0.0239,0.0426,0.3931,0.3254
17:08:53:806,-2.6323,2.42,7.0953,57.6853,0.3754,0.5071,0.4307,0.3234
17:08:53:824,-1.8566,3.0388,4.7646,56.6641,0.2066,0.6131,0.3838,0.3239
17:08:53:843,-1.5537,3.2926,3.1557,56.9326,-0.1852,0.5438,0.334,0.3267
17:08:53:863,-1.4999,3.3034,3.0276,57.1504,-0.6044,0.3212,0.284,0.3301
17:08:53:883,-1.5453,3.4913,4.2235,56.448,-0.7855,0.0919,0.1846,0.3315
17:08:53:904,-2.3941,3.5716,5.2374,56.3656,-0.7564,-0.0527,0.17,0.3295
17:08:53:925,-2.8837,3.7619,5.5774,55.9064,-0.6741,-0.0301,0.3013,0.3238
17:08:53:943,-2.4492,4.1342,5.569,55.4507,-0.6449,0.1084,0.4142,0.3169
17:08:53:962,-2.0314,4.3485,5.6935,54.757,-0.6877,0.1316,0.4485,0.3101
17:08:53:982,-1.9224,4.2898,6.1688,54.6697,-0.7402,-0.0067,0.4254,0.3041
17:08:54:006,-1.8961,4.1366,7.0211,56.2122,-0.7255,-0.151,0.3923,0.2984
17:08:54:025,-1.8686,4.2276,7.8124,56.1861,-0.6592,-0.1675,0.3721,0.2925
17:08:54:047,-1.5118,4.2934,8.4948,55.5543,-0.5676,-0.0216,0.3601,0.2859
17:08:54:062,-0.7002,4.394,9.1795,55.2474,-0.414,0.2911,0.2594,0.2798
17:08:54:083,-0.7852,4.5783,9.5985,55.1523,-0.2238,0.4953,0.1383,0.2744
17:08:54:102,-1.5142,4.7974,9.6835,54.1157,-0.0874,0.3925,0.1156,0.2695
17:08:54:123,-1.7453,5.1721,9.371,55.2415,-0.0874,0.2061,0.1346,0.2653
17:08:54:143,-1.9248,5.633,9.1304,53.8116,-0.2488,0.0482,0.1724,0.2626
17:08:54:162,-2.3031,5.6737,9.869,53.4431,-0.4185,-0.1534,0.1857,0.2612
17:08:54:191,-2.6203,5.5216,11.1763,54.3688,-0.4488,-0.3726,0.1346,0.2592
17:08:54:204,-3.1854,5.5468,11.8538,54.2635,-0.3732,-0.5468,0.1321,0.2564
17:08:54:223,-3.6786,5.2858,12.0753,52.9454,-0.3026,-0.5886,0.2786,0.2527
17:08:54:243,-2.7963,5.293,12.4416,53.9604,-0.146,-0.6259,0.4333,0.2498
17:08:54:263,-0.9684,5.1661,11.9496,52.4929,-0.0347,-0.5704,0.4619,0.2479
17:08:54:283,0.801,4.8213,11.9268,51.2332,0.0329,-0.4381,0.3095,0.247
17:08:54:305,1.5156,4.6657,12.3063,52.1126,0.1549,-0.2743,0.0853,0.2477
17:08:54:326,1.3828,3.8684,11.5629,49.6595,0.128,0.0173,-0.1206,0.2489
17:08:54:342,0.7926,3.0329,10.7489,51.9183,-0.1644,0.2519,-0.3382,0.2505
17:08:54:364,-0.6715,2.1721,11.6347,50.6977,-0.3716,0.1172,-0.4934,0.2524
17:08:54:386,-1.5633,1.4024,13.0282,49.6689,-0.2078,-0.183,-0.6303,0.252
17:08:54:403,-2.0002,1.2971,12.8965,48.842,0.1818,-0.2623,-0.7118,0.2486
17:08:54:425,-1.9655,2.0213,11.1092,49.861,0.5174,-0.082,-0.6543,0.2451
17:08:54:453,-1.3957,2.815,8.6851,49.5725,0.6702,0.1497,-0.5763,0.2449
17:08:54:462,-1.0486,3.2064,6.4944,49.1936,0.597,0.2953,-0.5526,0.2481
17:08:54:484,-1.3107,3.1418,6.3172,47.9423,0.4415,0.188,-0.5443,0.2536
17:08:54:503,-1.1276,3.1382,6.6835,47.797,0.4297,-0.0914,-0.5882,0.2591
17:08:54:526,-1.4388,3.3992,6.3053,48.475,0.5357,-0.2722,-0.6721,0.2632
17:08:54:545,-2.2241,3.568,6.4585,46.8771,0.5421,-0.2218,-0.6796,0.2664
17:08:54:562,-2.5773,3.6566,6.7745,46.1126,0.5134,-0.1004,-0.564,0.2708
17:08:54:582,-2.5365,3.6553,7.215,44.4092,0.4969,-0.1055,-0.4061,0.2759
17:08:54:604,-2.4001,3.8792,7.8064,46.0337,0.4782,-0.1798,-0.2876,0.2825
17:08:54:622,-2.6,4.1234,8.46,45.3961,0.5147,-0.2258,-0.2263,0.287
17:08:54:642,-2.9448,4.455,8.8251,45.7682,0.5911,-0.1731,-0.1568,0.2915
17:08:54:663,-2.7245,4.8465,8.0339,46.5238,0.7349,-0.082,-0.0458,0.2962
17:08:54:683,-2.3881,5.3241,7.3168,44.7924,0.7331,0.0069,0.0536,0.3019
17:08:54:708,-2.3247,5.6186,7.646,45.3426,0.5152,0.1257,0.1132,0.3088
17:08:54:724,-3.1614,5.5061,8.5438,45.8471,0.2396,0.1699,0.0749,0.3121
17:08:54:742,-4.1814,5.5707,9.4141,44.3823,0.0585,0.126,-0.0095,0.3182
17:08:54:762,-4.7284,5.6737,10.1037,43.8956,0.002,0.0759,-0.005,0.3215
17:08:54:782,-4.7488,5.4857,10.8123,44.9967,-0.0169,0.1377,0.0895,0.3226
17:08:54:803,-5.0888,5.105,11.4827,43.2498,0.0348,0.2019,0.1516,0.3227
17:08:54:823,-5.7759,4.6525,11.4432,43.3279,0.2015,0.2559,0.1881,0.3226
17:08:54:842,-6.6606,4.1557,10.3167,44.2295,0.4098,0.3529,0.2451,0.3224
17:08:54:862,-6.2428,4.0408,8.7677,42.3878,0.4987,0.3555,0.4041,0.3232
17:08:54:882,-4.9248,4.0839,7.7585,44.181,0.3429,0.2937,0.5668,0.326
17:08:54:902,-4.4866,3.4913,8.1464,43.3132,-0.0147,0.2527,0.5575,0.3303
17:08:54:923,-4.2676,2.8306,9.377,42.0712,-0.3223,0.0932,0.4544,0.3344
17:08:54:943,-3.8294,2.8365,9.9097,41.9651,-0.329,-0.1017,0.3327,0.3363
17:08:54:963,-3.2177,3.398,9.3567,41.5865,-0.1191,-0.0136,0.2621,0.3347
17:08:54:983,-3.3973,3.8349,8.0458,41.4048,0.1533,0.3297,0.2163,0.3317
17:08:55:002,-3.5385,4.1797,6.6404,41.3652,0.3224,0.6967,0.2381,0.33
17:08:55:022,-3.6929,4.2731,5.7211,41.3004,0.3514,0.8682,0.3223,0.331
17:08:55:044,-3.6499,4.2743,5.1764,40.3788,0.3083,0.7755,0.452,0.3332
17:08:55:064,-3.0561,4.224,4.8113,38.8595,0.2737,0.5044,0.6246,0.3354
17:08:55:082,-1.8518,4.376,4.7766,41.3656,0.2321,0.2924,0.8022,0.3375
17:08:55:105,-0.6846,4.6813,4.749,40.4138,0.2034,0.2762,0.9055,0.3399
17:08:55:124,-0.3255,4.8716,4.3875,41.8384,0.1922,0.4005,0.8722,0.3423
17:08:55:142,-0.4285,4.9434,4.3061,39.4925,0.1187,0.4727,0.7732,0.3448
17:08:55:162,-0.6894,5.1721,4.5647,39.615,-0.0036,0.4519,0.66,0.3448
17:08:55:182,-1.2664,5.4606,5.2961,39.6946,-0.1828,0.2477,0.4637,0.3477
17:08:55:203,-1.9667,5.7766,6.2215,38.7818,-0.2076,0.2975,0.4421,0.3466
17:08:55:222,-2.7101,5.9598,7.0103,38.4512,-0.2153,0.3689,0.5053,0.3449
17:08:55:244,-2.9747,6.18,8.2517,38.7752,-0.116,0.322,0.5545,0.3449
17:08:55:261,-3.3877,6.5009,9.1208,39.2219,0.0952,0.2349,0.6139,0.343
17:08:55:281,-3.1387,7.1736,8.6456,38.1994,0.1592,0.2567,0.7047,0.3409
17:08:55:301,-2.5186,7.583,7.9956,37.9662,-0.0331,0.327,0.742,0.3398
17:08:55:322,-2.2109,7.4298,8.3331,37.5653,-0.3072,0.2133,0.6866,0.3408
17:08:55:343,-1.7596,7.0216,9.7433,37.7147,-0.3972,-0.1388,0.5279,0.3425
17:08:55:362,-0.9839,7.1257,11.296,37.3271,-0.2139,-0.3944,0.2858,0.3423
17:08:55:381,-0.9588,7.6369,12.5146,36.6181,0.2249,-0.3452,0.1431,0.34
17:08:55:401,-1.1551,8.0966,12.1866,35.9605,0.7264,0.0213,0.195,0.3375
17:08:55:422,-0.9695,7.9972,9.8726,35.3989,0.9081,0.3971,0.3436,0.3369
17:08:55:443,-0.1687,7.6692,8.2134,35.6909,0.7413,0.343,0.4312,0.34
17:08:55:461,0.8776,6.8313,8.1512,35.5595,0.4604,0.0061,0.3937,0.3464
17:08:55:481,1.5564,5.4881,9.3734,36.2217,0.2202,-0.1326,0.2962,0.3538
17:08:55:502,2.2938,4.5161,11.1379,36.0415,0.1914,-0.0253,0.109,0.3641
17:08:55:523,2.7475,4.0576,11.6479,34.8006,0.3368,0.0224,-0.2018,0.3668
17:08:55:547,2.1501,3.8553,10.8925,33.5546,0.519,-0.0626,-0.5435,0.3677
17:08:55:562,0.7184,3.9546,9.5123,33.6307,0.7216,-0.2208,-0.7819,0.3698
17:08:55:582,-0.1352,4.3521,7.4664,33.6308,0.8582,-0.4274,-0.903,0.373
17:08:55:601,-0.1723,4.8453,4.9992,31.6088,0.8271,-0.6703,-1.0335,0.3779
17:08:55:623,-0.0897,5.3014,2.7104,32.0443,0.5666,-0.8661,-1.2048,0.3848
17:08:55:643,-0.3662,5.6461,1.5623,32.4299,0.1765,-0.9105,-1.3233,0.3922
17:08:55:666,-1.009,5.5659,1.9298,31.019,-0.0965,-0.8043,-1.3912,0.3989
17:08:55:681,-2.0793,4.9339,2.9139,30.0556,-0.1783,-0.6474,-1.3813,0.4026
17:08:55:702,-2.9675,4.5244,3.9362,30.1845,-0.1127,-0.5052,-1.3139,0.403
17:08:55:723,-3.3326,4.7567,4.1804,29.883,-0.0829,-0.3214,-1.2386,0.4012
17:08:55:744,-3.8809,5.4522,4.0894,29.3562,-0.248,-0.1065,-1.1912,0.3993
17:08:55:768,-5.8681,6.3572,4.8879,27.9768,-0.5498,-0.0125,-0.963,0.3977
17:08:55:782,-7.538,6.3632,6.6285,28.334,-0.6725,-0.1824,-0.5233,0.3954
17:08:55:803,-7.4159,6.0915,8.0458,27.1373,-0.5522,-0.5039,-0.1208,0.3904
17:08:55:824,-6.0608,6.4745,8.557,26.3499,-0.3551,-0.7081,0.1034,0.3837
17:08:55:844,-4.9691,6.9725,8.3295,25.7125,-0.2768,-0.6104,0.2512,0.3783
17:08:55:862,-3.7827,6.8109,7.9836,26.9171,-0.3186,-0.3441,0.4001,0.3751
17:08:55:883,-2.8813,6.6948,8.2254,24.7151,-0.4384,-0.1153,0.4834,0.3735
17:08:55:902,-1.7106,7.1102,8.4397,24.2666,-0.5194,-0.1345,0.4573,0.372
17:08:55:923,-1.9512,7.0623,9.0418,25.697,-0.602,-0.1238,0.2784,0.3694
17:08:55:942,-4.0748,5.9023,10.4664,22.8591,-0.7399,0.1497,0.0837,0.3656
17:08:55:961,-6.475,4.5161,11.8382,24.0099,-0.7522,0.498,0.0544,0.3611
17:08:55:981,-7.1514,3.4471,11.7832,23.4192,-0.4962,0.5188,0.2216,0.3555
17:08:56:002,-6.056,3.2328,10.4652,22.6448,-0.1572,0.3289,0.4299,0.3442
17:08:56:022,-4.9403,3.7248,9.3303,21.1601,-0.0123,0.2836,0.5218,0.3393
17:08:56:042,-4.6506,3.6386,9.1879,21.5617,-0.0659,0.375,0.5306,0.3378
17:08:56:063,-4.89,3.3645,9.6703,21.8131,-0.1604,0.5377,0.4965,0.3377
17:08:56:081,-5.4515,3.2831,9.6559,21.2628,-0.1229,0.7334,0.4629,0.337
17:08:56:101,-5.752,3.6542,8.6516,20.4189,0.0468,0.8091,0.461,0.3353
17:08:56:124,-5.3701,4.2156,7.0965,20.1104,0.2162,0.6653,0.5183,0.3333
17:08:56:143,-4.5094,4.6071,6.0419,18.3793,0.2516,0.5209,0.6507,0.3328
17:08:56:161,-3.2357,4.7603,5.5906,20.332,0.1855,0.4391,0.839,0.334
17:08:56:181,-1.8937,4.5652,5.0351,20.0705,0.1267,0.4005,0.9998,0.3361
17:08:56:214,-0.7612,4.2383,4.4964,19.3302,0.0628,0.3521,1.0651,0.337
17:08:56:223,-0.268,3.9893,4.6149,20.1561,-0.0648,0.3318,1.027,0.3387
17:08:56:241,-0.547,3.9307,4.9501,17.5331,-0.166,0.3007,0.9212,0.3401
17:08:56:261,-1.1743,3.9726,4.9812,17.3173,-0.1836,0.2919,0.8227,0.3407
17:08:56:282,-1.2377,4.3341,4.5347,19.0421,-0.1695,0.3459,0.8091,0.3401
17:08:56:302,-1.3323,4.5676,4.1277,18.9372,-0.1921,0.3635,0.7948,0.3389
17:08:56:323,-0.9719,4.8405,4.3863,17.2422,-0.3096,0.2818,0.7806,0.3375
17:08:56:342,-0.3195,5.2966,5.2338,19.059,-0.4643,0.1968,0.7599,0.3361
17:08:56:362,-0.7792,5.7838,6.6464,16.6825,-0.5562,0.2125,0.6283,0.3341
17:08:56:381,-1.7501,6.1393,7.9237,16.351,-0.566,0.3425,0.5178,0.331
17:08:56:401,-2.1642,6.7499,8.8323,17.5038,-0.5032,0.4557,0.4997,0.3267
17:08:56:422,-2.4719,7.1018,9.1771,16.5857,-0.3958,0.4155,0.542,0.3215
17:08:56:443,-2.102,7.4873,9.4093,16.551,-0.3218,0.3308,0.6576,0.3138
17:08:56:462,-0.7876,7.8225,9.4309,14.5772,-0.3447,0.2586,0.8227,0.3096
17:08:56:482,0.7555,7.8751,10.2712,15.8741,-0.5106,0.1811,0.9029,0.3065
17:08:56:502,1.7515,7.6381,12.7313,14.3012,-0.7554,0.0525,0.8376,0.3038
17:08:56:523,2.0663,7.4023,15.0979,15.3619,-0.72,-0.2392,0.6334,0.2998
17:08:56:542,1.8006,7.0467,15.8438,16.039,-0.3029,-0.3862,0.4262,0.2939
17:08:56:562,0.6346,6.2986,15.5983,14.3953,0.6324,0.176,0.2405,0.2895
17:08:56:582,0.0157,5.5587,14.1702,14.5598,0.9272,0.245,0.2618,0.2887
17:08:56:606,0.5292,5.0655,11.7365,15.7847,0.9033,0.0437,0.1337,0.296
17:08:56:623,1.2008,4.8872,9.8618,15.3732,0.6122,-0.3459,-0.1568,0.296
17:08:56:641,1.615,4.8824,9.073,16.895,0.3075,-0.804,-0.5123,0.3034
17:08:56:660,1.7036,4.6178,8.8156,15.6081,0.1168,-1.045,-0.8777,0.3113
17:08:56:681,0.9506,4.0564,8.4636,16.2029,0.0335,-0.9516,-1.1395,0.3177
17:08:56:701,-0.2908,3.6266,7.9333,18.3068,0.0441,-0.7092,-1.2375,0.3224
17:08:56:722,-0.96,3.6015,7.1396,17.9067,0.1235,-0.5606,-1.2354,0.3262
17:08:56:743,-1.3478,3.6649,6.3208,18.6835,0.2351,-0.5233,-1.1896,0.3286
17:08:56:761,-1.6363,3.5536,5.7725,17.6799,0.3562,-0.5092,-1.1012,0.33
17:08:56:781,-1.707,3.4471,5.229,19.8938,0.4311,-0.4988,-0.9981,0.3317
17:08:56:801,-1.4903,3.6242,4.6796,19.5058,0.405,-0.5433,-0.919,0.3342
17:08:56:821,-1.3502,3.9235,4.4186,20.3419,0.262,-0.6117,-0.8596,0.3376
17:08:56:842,-1.677,4.0085,4.8256,22.1728,0.0857,-0.6259,-0.7496,0.346
17:08:56:861,-1.847,4.1521,5.7091,19.327,-0.0307,-0.6035,-0.6231,0.3478
17:08:56:881,-1.8051,4.2623,6.6153,23.381,-0.0648,-0.5297,-0.5246,0.35
17:08:56:901,-1.841,4.5855,7.5849,22.8631,-0.0172,-0.4583,-0.4737,0.3511
17:08:56:922,-2.3438,4.6884,8.7952,20.3133,0.1429,-0.3609,-0.4042,0.3514
17:08:56:942,-2.5916,5.0727,9.3279,21.3832,0.3783,-0.1177,-0.3326,0.3516
17:08:56:962,-2.6036,5.6821,8.8898,23.3144,0.511,0.1691,-0.2354,0.3526
17:08:56:981,-2.0769,6.4267,8.0698,23.0989,0.5054,0.3899,-0.2274,0.3553
17:08:57:001,-2.084,6.8851,7.5957,23.7266,0.3994,0.3627,-0.2758,0.3591
17:08:57:023,-1.695,7.7506,7.4916,24.7614,0.2961,0.1968,-0.3576,0.3629
17:08:57:042,-1.4041,8.4569,6.9289,26.095,0.0721,0.1273,-0.4135,0.3658
17:08:57:061,-1.6375,8.3851,7.2988,27.7904,-0.2201,0.2184,-0.4561,0.368
17:08:57:082,-2.9891,7.753,8.9125,26.3192,-0.293,0.2959,-0.4551,0.3692
17:08:57:104,-4.3944,6.945,9.2334,26.7679,-0.2771,0.3175,-0.3704,0.3676
17:08:57:123,-5.424,6.04,8.466,28.045,-0.4773,0.1547,-0.1864,0.364
17:08:57:141,-5.0481,5.2571,8.7533,27.8809,-0.7458,-0.2093,-0.0972,0.3606
17:08:57:163,-4.9188,4.3413,10.0294,28.4989,-0.852,-0.5505,-0.0761,0.3566
17:08:57:182,-4.9631,3.1286,10.9141,28.7472,-0.7101,-0.6586,-0.0117,0.3508
17:08:57:201,-4.4663,2.5816,10.6232,29.7533,-0.3578,-0.5167,0.1074,0.344
17:08:57:226,-3.5074,2.7025,9.0777,29.588,-0.0334,-0.142,0.2158,0.3381
17:08:57:246,-1.1635,4.224,5.5343,31.2756,0.0439,0.2783,0.2174,0.3344
17:08:57:261,-1.0162,4.643,5.9808,30.1506,-0.2062,0.4192,0.0842,0.3336
17:08:57:282,-1.2904,4.8393,7.5443,31.108,-0.4896,0.122,-0.1211,0.334
17:08:57:302,-1.701,4.8573,9.0789,31.8966,-0.5727,-0.282,-0.3166,0.3329
17:08:57:324,-2.3175,4.8297,9.8822,32.4074,-0.4323,-0.4237,-0.4117,0.3289
17:08:57:342,-2.8358,4.7663,9.4872,32.9456,-0.1141,-0.2408,-0.3741,0.324
17:08:57:361,-3.1746,4.631,8.2912,34.1612,0.2146,0.085,-0.2479,0.3196
17:08:57:381,-2.8969,4.5053,7.2402,33.5956,0.409,0.2024,-0.1033,0.3173
17:08:57:400,-2.3235,4.7004,6.4549,35.6505,0.491,0.0724,-0.0271,0.3177
17:08:57:423,-2.2433,4.9638,5.6552,34.8082,0.5054,-0.0764,-0.0354,0.3201
17:08:57:443,-2.4528,4.965,5.4613,36.1682,0.3877,-0.0442,-0.0399,0.324
17:08:57:461,-2.916,4.7256,6.3615,34.9483,0.1882,0.0772,-0.0247,0.3287
17:08:57:481,-3.7863,4.5137,7.6987,36.2817,0.1211,0.1537,-0.0399,0.3329
17:08:57:501,-4.5824,4.8309,8.3667,35.6357,0.3131,0.1909,-0.0282,0.3354
17:08:57:522,-5.1115,5.6569,7.4868,37.5571,0.7131,0.285,0.0696,0.3364
17:08:57:543,-5.5413,6.5404,5.6013,37.766,1.0676,0.4485,0.2696,0.3376
17:08:57:562,-4.5824,7.3197,4.1744,38.6205,1.0553,0.5137,0.6336,0.3417
17:08:57:581,-2.697,7.7399,3.7782,38.8258,0.6614,0.347,0.9662,0.3496
17:08:57:601,-1.2497,8.0116,4.8173,39.1214,0.0439,-0.028,1.0067,0.3588
17:08:57:621,-1.1611,7.7698,7.0067,39.2463,-0.5634,-0.4898,0.7838,0.367
17:08:57:641,-1.4149,7.4681,9.8714,39.9648,-0.9469,-0.7923,0.5226,0.3711
17:08:57:662,-1.094,7.5771,11.5809,40.4438,-0.9231,-0.8975,0.3921,0.3702
17:08:57:682,-0.2501,7.0671,11.0721,41.72,-0.5556,-0.8131,0.3947,0.3654
17:08:57:701,0.5197,6.119,10.4077,42.2049,-0.3037,-0.5278,0.4405,0.3588
17:08:57:724,1.6054,5.688,10.6747,41.6065,-0.2763,-0.1792,0.4717,0.3532
17:08:57:744,2.38,5.3014,10.6555,42.7432,-0.243,0.0908,0.428,0.352
17:08:57:762,1.4546,4.3928,9.8834,40.4212,-0.2273,0.4216,0.1835,0.3502
17:08:57:781,-0.4296,3.3681,9.893,44.5938,-0.4052,0.6005,-0.0961,0.348
17:08:57:803,-1.5645,2.7994,10.7309,43.9194,-0.6147,0.4964,-0.2338,0.3452
17:08:57:823,-1.7369,3.1693,11.193,42.3781,-0.5868,0.3646,-0.2732,0.3401
17:08:57:843,-1.1479,3.8325,9.9205,44.9699,-0.2688,0.3412,-0.2905,0.3331
17:08:57:862,-0.3435,4.5113,7.9142,45.1256,0.0854,0.3947,-0.3036,0.327
17:08:57:881,-0.1256,4.8285,6.2454,45.2981,0.2705,0.4682,-0.3701,0.3235
17:08:57:902,-0.5518,4.892,5.2267,44.7796,0.3312,0.4988,-0.4554,0.3235
17:08:57:923,-0.7241,4.7878,4.5802,44.7138,0.3011,0.4495,-0.486,0.3242
17:08:57:942,-0.6631,4.9578,4.2415,46.694,0.0582,0.3039,-0.4378,0.3256
17:08:57:961,-0.7277,5.1493,4.7694,46.2854,-0.1391,0.1515,-0.3832,0.3256
17:08:57:980,-0.7397,5.0919,5.6768,45.8074,-0.2728,-0.1188,-0.3693,0.3269
17:08:58:002,-1.3323,4.6705,6.9158,47.4613,-0.3948,-0.3832,-0.2961,0.327
17:08:58:023,-1.4651,4.6489,9.0131,48.8094,-0.3234,-0.5587,-0.2119,0.325
17:08:58:044,-1.3023,4.6095,10.2425,46.3538,-0.0954,-0.596,-0.156,0.3223
17:08:58:061,-1.203,4.6633,10.5729,49.4098,0.1565,-0.4511,-0.1281,0.3193
17:08:58:080,-1.616,4.8309,10.6783,48.1822,0.3829,-0.2306,-0.0612,0.3173
17:08:58:101,-1.7896,5.3301,10.3083,49.9394,0.5941,-0.082,0.0009,0.3176
17:08:58:124,-1.8027,6.0041,8.8922,49.8008,0.5799,-0.1049,0.0339,0.3235
17:08:58:142,-1.4639,6.5655,8.2242,50.8585,0.4039,-0.249,-0.0005,0.3291
17:08:58:160,-1.0809,6.8839,8.2469,51.6987,0.238,-0.4831,-0.1113,0.332
17:08:58:180,-0.3483,7.1617,8.1572,50.6523,0.0372,-0.5995,-0.3105,0.3367
17:08:58:200,-0.4476,7.012,8.8371,50.9644,-0.1463,-0.2903,-0.5523,0.3403
17:08:58:222,-2.1116,6.4913,10.5394,52.5865,-0.0909,0.1427,-0.6772,0.3426
17:08:58:240,-4.1407,5.694,11.4815,53.718,0.2087,0.4274,-0.7132,0.3425
17:08:58:261,-6.7156,4.7579,11.2086,52.6792,0.606,0.4706,-0.5579,0.3408
17:08:58:282,-8.4442,4.388,9.2657,53.1527,0.8199,0.5425,-0.1965,0.3399
17:08:58:300,-8.2503,4.2288,6.3076,53.2024,0.5379,0.6645,0.1487,0.3422
17:08:58:321,-7.4111,3.5871,4.84,53.3647,-0.0193,0.5803,0.2871,0.3477
17:08:58:342,-6.7623,2.8808,6.0407,52.2043,-0.3136,0.204,0.2621,0.3534
17:08:58:361,-5.8944,2.8557,7.2988,53.4261,-0.2326,-0.0397,0.1819,0.3549
17:08:58:380,-4.981,3.3932,7.306,52.916,-0.097,0.1609,0.1276,0.3527
17:08:58:400,-4.9056,4.1929,6.8116,52.916,-0.093,0.6344,0.1548,0.3501
17:08:58:423,-5.5664,4.5269,6.3184,53.2197,-0.2179,0.9039,0.2871,0.3489
17:08:58:442,-5.8741,4.3616,6.1951,54.0123,-0.3399,0.8077,0.4824,0.3477
17:08:58:462,-5.1893,4.2659,6.2143,54.7756,-0.3937,0.4895,0.6366,0.3452
17:08:58:481,-3.9515,4.0229,6.3675,56.0385,-0.386,0.2224,0.722,0.3413
17:08:58:501,-3.3542,3.9367,6.4884,54.3843,-0.2938,0.2589,0.787,0.3373
17:08:58:523,-3.6894,4.2144,6.1053,56.2828,-0.1937,0.5169,0.9948,0.3342
17:08:58:542,-4.0353,4.4885,5.3667,53.9814,-0.1756,0.9017,1.3303,0.3316
17:08:58:562,-3.2333,4.7794,4.4976,55.1191,-0.239,1.2083,1.5713,0.3298
17:08:58:580,-1.7405,4.9003,3.3161,56.0373,-0.444,1.2719,1.5575,0.3282
17:08:58:602,-1.1455,4.9087,2.9905,56.776,-0.7793,1.1526,1.3721,0.3258
17:08:58:624,-1.513,4.5352,6.1245,55.5492,-1.0595,0.9265,1.1572,0.3218
17:08:58:642,-1.1467,4.619,7.579,57.4298,-1.0504,0.6663,0.9585,0.3188
17:08:58:661,-0.9336,5.0919,8.3894,55.8983,-0.8134,0.5523,0.8025,0.3058
17:08:58:680,-0.9157,5.8927,8.4073,56.8403,-0.5247,0.804,0.6776,0.2952
17:08:58:701,-1.2856,6.3129,8.2242,58.9145,-0.403,1.1968,0.591,0.2863
17:08:58:721,-1.7692,6.4362,8.5402,57.1346,-0.4899,1.2983,0.5252,0.2798
17:08:58:741,-2.3809,6.3405,9.0059,58.2241,-0.6773,1.0211,0.4664,0.2734
17:08:58:761,-2.0397,5.8664,10.0785,57.6968,-0.9301,0.4637,0.4749,0.266
17:08:58:780,-0.5123,5.5504,11.776,57.6194,-1.1703,-0.1856,0.4943,0.2579
17:08:58:800,0.5987,5.5252,13.6926,59.3362,-1.243,-0.6775,0.3463,0.2488
17:08:58:819,1.6437,5.6617,14.5545,58.1102,-1.0278,-1.0323,0.1311,0.2399
17:08:58:842,3.1653,5.8053,14.7197,59.0952,-0.6843,-1.1888,-0.0013,0.232
17:08:58:860,3.5711,5.5635,14.8765,59.8884,-0.3809,-1.0884,-0.2319,0.2255
17:08:58:880,2.3632,5.0057,14.3809,59.9817,-0.0784,-0.8919,-0.5142,0.2225
17:08:58:900,0.54,4.03,13.8685,60.7291,0.0811,-0.4895,-0.6956,0.2222
17:08:58:920,0.0659,2.967,14.0828,58.7426,0.0268,-0.2264,-0.7161,0.2234
17:08:58:941,0.1126,2.1877,13.9679,61.0868,0.0436,-0.4972,-0.8218,0.2258
17:08:58:960,-0.3985,1.898,12.7457,59.9625,0.2111,-0.8706,-1.1137,0.2266
17:08:58:980,-1.4855,1.8777,10.7202,58.8281,0.4005,-0.9806,-1.3968,0.2271
17:08:59:000,-2.3402,1.7376,8.4983,58.3443,0.5184,-0.8272,-1.5166,0.2295
17:08:59:020,-1.8985,1.9423,6.9852,60.8655,0.5451,-0.6623,-1.4729,0.2343
17:08:59:040,-1.2054,2.2811,6.814,59.408,0.5368,-0.6187,-1.4341,0.2398
17:08:59:060,-1.4424,2.1231,6.8942,61.1819,0.6236,-0.6914,-1.5009,0.2455
17:08:59:080,-2.4348,2.2009,6.4956,58.8193,0.8545,-0.6924,-1.608,0.251
17:08:59:100,-3.2249,2.8497,5.3979,58.8767,1.1307,-0.5979,-1.592,0.2565
17:08:59:125,-3.4763,3.7236,4.5072,59.9257,1.2537,-0.4525,-1.4383,0.2676
17:08:59:141,-3.5589,4.5795,4.1337,58.2609,1.184,-0.3497,-1.2338,0.278
17:08:59:160,-3.5218,5.4055,4.0356,59.0512,0.9941,-0.3579,-1.0463,0.2886
17:08:59:181,-4.3454,6.0783,4.3851,59.7525,0.7331,-0.4477,-0.8996,0.2991
17:08:59:200,-6.1793,6.0496,5.1692,58.8967,0.43,-0.3646,-0.698,0.3079
17:08:59:219,-6.955,5.761,6.2298,58.3279,0.1813,-0.2019,-0.2434,0.3146
17:08:59:241,-5.5628,5.4414,7.087,59.3999,-0.0113,-0.1057,0.3393,0.3182
17:08:59:261,-3.4068,4.9279,7.7346,59.1127,-0.1639,-0.244,0.7002,0.32
17:08:59:280,-1.8602,4.4897,8.4732,60.1757,-0.3514,-0.5108,0.6832,0.3204
17:08:59:303,-0.7744,4.206,8.8922,59.3193,-0.505,-0.726,0.3833,0.3201
17:08:59:320,0.3676,4.7603,9.4943,59.2066,-0.6089,-0.5135,-0.3267,0.3184
17:08:59:341,0.0695,4.8704,9.7481,59.7588,-0.6334,0.1241,-0.5989,0.3184
17:08:59:361,-2.1798,4.7447,10.8051,61.0392,-0.6163,0.8157,-0.7502,0.3154
17:08:59:382,-6.0716,4.1079,12.4069,59.1894,-0.3609,1.1007,-0.6394,0.3065
17:08:59:400,-9.3804,3.1346,12.851,58.3422,0.0644,0.926,-0.2993,0.2999
17:08:59:421,-9.9155,2.6953,11.3857,60.037,0.3698,0.5478,0.1044,0.2922
17:08:59:440,-8.0516,2.9311,9.0143,61.1835,0.3293,0.3289,0.3535,0.2868
17:08:59:461,-6.3553,3.1418,7.1504,59.3209,-0.0534,0.294,0.4565,0.2856
17:08:59:480,-5.5101,2.9215,6.8104,59.1821,-0.4922,0.2746,0.4552,0.2882
17:08:59:499,-5.3581,2.2583,7.7597,59.1821,-0.6861,0.1989,0.3814,0.291
17:08:59:520,-5.2025,1.9698,8.5319,58.7121,-0.6156,0.139,0.2967,0.2905
17:08:59:540,-4.8649,2.0058,8.4205,58.752,-0.4435,0.135,0.2981,0.2827
17:08:59:560,-4.0198,2.4128,7.7406,59.1628,-0.255,0.2626,0.3631,0.2768
17:08:59:580,-2.8598,2.7743,6.6692,57.15,-0.1309,0.4341,0.3974,0.2719
17:08:59:600,-2.1128,3.0712,5.5714,60.1401,-0.1626,0.6181,0.3955,0.2686
17:08:59:625,-1.9895,3.2388,5.1979,58.8978,-0.2853,0.7393,0.3955,0.2668
17:08:59:642,-2.102,3.1861,5.1417,58.662,-0.4227,0.7254,0.4134,0.265
17:08:59:666,-2.2516,3.3118,5.3943,57.9989,-0.5444,0.6115,0.4408,0.2619
17:08:59:680,-2.351,3.5069,5.9653,58.1783,-0.5873,0.4796,0.4895,0.2577
17:08:59:700,-2.2947,3.4351,6.2849,59.3538,-0.5969,0.4085,0.5431,0.2522
17:08:59:720,-2.1762,3.5823,6.6177,60.8829,-0.6033,0.3662,0.6038,0.2462
17:08:59:742,-1.5633,3.8361,6.832,58.9426,-0.6182,0.2937,0.6083,0.2403
17:08:59:760,-0.7876,4.1019,7.4341,58.6124,-0.6246,0.2181,0.5151,0.2348
17:08:59:780,-0.6966,4.224,8.4888,59.6424,-0.5735,0.2381,0.3388,0.2291
17:08:59:801,-1.6256,4.303,9.5302,58.1183,-0.4313,0.3369,0.2107,0.2263
17:08:59:821,-3.0956,4.4191,10.0306,59.2121,-0.2595,0.3609,0.2565,0.2206
17:08:59:843,-3.6606,4.7088,10.1743,58.1183,-0.1418,0.2977,0.371,0.2153
17:08:59:861,-3.5601,5.0787,9.8738,59.4433,-0.1647,0.1888,0.4403,0.2108
17:08:59:880,-3.3051,5.3923,9.6499,58.8649,-0.3599,0.0415,0.4581,0.2077
17:08:59:900,-3.0932,5.3433,9.7505,60.076,-0.6715,-0.1784,0.4176,0.2062
17:08:59:920,-2.8334,4.8106,10.7896,59.4405,-0.9141,-0.4322,0.3404,0.2047
17:08:59:945,-2.3139,4.3724,12.8522,60.3344,-0.8393,-0.6243,0.2256,0.1996
17:08:59:962,-1.5992,4.4059,14.2971,59.8686,-0.4403,-0.6384,0.129,0.1937
17:08:59:979,-0.8067,4.6238,14.1187,58.3147,-0.0645,-0.342,0.0933,0.187
17:09:00:000,0.5676,4.3233,13.3502,57.251,0.1733,-0.0527,0.0488,0.183
17:09:00:020,1.117,4.2587,12.2081,58.3312,0.3696,-0.0075,-0.0788,0.1826
17:09:00:042,0.8943,3.4662,11.4276,57.8781,0.3312,-0.0221,-0.2758,0.1837
17:09:00:061,0.6274,2.2224,12.7804,57.6605,-0.0629,-0.1832,-0.4729,0.1863
17:09:00:079,0.3185,1.1007,14.9902,57.3726,-0.3631,-0.5012,-0.6831,0.1897
17:09:00:099,-0.7636,0.2688,15.6402,56.9054,-0.1924,-0.6317,-0.9646,0.191
17:09:00:119,-1.9931,0.0952,14.084,55.3279,0.3578,-0.4533,-1.1664,0.189
17:09:00:140,-2.3283,0.3861,11.2481,55.1374,0.9749,-0.1409,-1.1717,0.1867
17:09:00:159,-1.9799,0.6566,8.539,54.7009,1.4159,0.0778,-1.062,0.1877
17:09:00:184,-1.683,1.1259,6.2657,55.3494,1.666,0.1193,-1.0064,0.1937
17:09:00:199,-1.8518,1.4754,4.2917,55.1627,1.7643,-0.0392,-1.037,0.2042
17:09:00:241,-2.3929,1.7579,2.7618,55.1417,1.703,-0.2783,-1.0636,0.2169
17:09:00:242,-2.5485,2.3601,1.9203,55.1447,1.4481,-0.3302,-0.9781,0.2319
17:09:00:262,-2.5066,3.2974,2.0663,53.7135,1.0708,-0.2679,-0.8695,0.2475
17:09:00:281,-3.1147,3.9738,3.1605,53.8563,0.6505,-0.2661,-0.8138,0.2612
17:09:00:300,-3.5648,4.1557,4.5706,53.6431,0.2534,-0.3361,-0.7238,0.2725
17:09:00:319,-4.3011,3.8696,6.176,51.7667,-0.0419,-0.5095,-0.6253,0.28
17:09:00:346,-5.072,3.3956,7.9956,51.0654,-0.26,-0.7079,-0.5163,0.2837
17:09:00:361,-5.825,3.1143,9.7517,51.7374,-0.3652,-0.7683,-0.396,0.2843
17:09:00:380,-5.8729,2.9383,11.047,51.9782,-0.3173,-0.7406,-0.2151,0.2831
17:09:00:401,-5.5341,3.1921,11.3103,51.5871,-0.1037,-0.6613,-0.037,0.2792
17:09:00:420,-5.0612,3.5668,10.446,51.1862,0.1754,-0.4482,0.1111,0.2771
17:09:00:447,-3.8342,4.1019,9.1651,50.6413,0.3373,-0.1968,0.2576,0.277
17:09:00:460,-2.6024,4.8249,7.664,50.3424,0.3592,-0.0762,0.2898,0.2794
17:09:00:483,-2.199,4.8668,6.6452,51.8055,0.1871,0.008,0.2067,0.2829
17:09:00:499,-2.5713,4.3796,7.2115,49.2609,-0.2145,0.1859,0.1082,0.2866
17:09:00:521,-4.1179,3.8002,8.5438,49.2632,-0.5895,0.3161,-0.049,0.2886
17:09:00:542,-5.6634,3.1262,9.3698,49.137,-0.7277,0.2937,-0.1264,0.2866
17:09:00:562,-6.5839,2.9108,9.4632,49.4073,-0.6702,0.2195,-0.0601,0.2805
17:09:00:580,-6.5588,2.8234,9.3926,48.9356,-0.5714,0.2208,0.1151,0.2731
17:09:00:599,-5.3737,2.8246,9.0622,48.7962,-0.4986,0.2085,0.342,0.2667
17:09:00:620,-4.5441,2.7515,8.1129,46.5037,-0.4885,0.2037,0.44,0.261
17:09:00:641,-4.4435,1.8621,8.1644,47.9096,-0.6872,0.1963,0.4264,0.2563
17:09:00:660,-4.4771,0.981,9.3698,47.5074,-0.9841,0.0642,0.3593,0.2518
17:09:00:681,-4.1275,0.8122,10.2054,46.7731,-1.0696,-0.146,0.2802,0.2457
17:09:00:700,-3.5122,0.9966,9.9935,46.8164,-0.6347,0.0107,0.3148,0.2366
17:09:00:720,-2.7077,1.4623,9.2417,45.8855,-0.3777,0.3047,0.382,0.2269
17:09:00:741,-2.1631,1.9555,8.0446,45.5336,-0.2004,0.5744,0.3918,0.2134
17:09:00:761,-2.0086,2.5804,6.8679,44.9924,-0.1378,0.6208,0.3551,0.2134
17:09:00:780,-2.2923,2.9072,6.0036,44.7977,-0.1519,0.4434,0.3284,0.2096
17:09:00:800,-2.4132,3.1227,5.338,44.8501,-0.2321,0.1563,0.2951,0.2071
17:09:00:820,-2.3151,3.2938,5.0136,43.6709,-0.3708,-0.1976,0.2874,0.204
17:09:00:843,-1.7967,3.5859,5.3176,43.6472,-0.4864,-0.5148,0.3066,0.2019
17:09:00:865,-1.8063,3.404,5.9174,43.2462,-0.5729,-0.5265,0.387,0.1995
17:09:00:881,-1.8446,3.1717,7.0726,42.903,-0.5618,-0.306,0.5103,0.1964
17:09:00:900,-1.7094,3.0712,8.1428,42.8913,-0.4262,0.009,0.5718,0.1928
17:09:00:919,-1.8398,3.0377,8.8263,44.0267,-0.28,0.3433,0.5827,0.1885
17:09:00:940,-2.2157,3.3788,9.6883,42.4932,-0.1293,0.4969,0.5713,0.1846
17:09:00:959,-2.5701,3.6865,10.3275,42.7671,0.0111,0.4053,0.5447,0.1829
17:09:00:979,-3.3147,3.8421,10.8339,42.4634,0.0814,0.1939,0.6094,0.1799
17:09:00:999,-4.0066,3.9534,11.5761,41.3562,0.1088,-0.1372,0.7441,0.1781
17:09:01:019,-3.9252,4.2719,12.5242,41.6752,0.1051,-0.5862,0.8419,0.1777
17:09:01:044,-2.5545,4.4275,13.0988,41.6405,-0.0001,-1.0296,0.7894,0.1786
17:09:01:060,-1.4101,4.2264,14.4982,42.2732,0.0516,-1.3335,0.6147,0.1805
17:09:01:081,-0.9815,3.9319,15.9515,41.4569,0.4766,-1.3273,0.48,0.1835
17:09:01:099,0.1007,4.2491,15.4308,40.4746,1.0465,-1.0213,0.4195,0.1868
17:09:01:120,1.609,4.4837,12.6104,41.4751,1.2881,-0.6272,0.3891,0.1911
17:09:01:140,3.0815,4.6358,10.1839,39.3085,1.1006,-0.4725,0.2896,0.199
17:09:01:159,4.3384,4.5628,9.7014,40.367,0.8433,-0.5409,0.0083,0.2117
17:09:01:180,4.9334,4.467,9.0574,37.6814,0.4915,-0.4855,-0.3352,0.2256
17:09:01:199,4.336,4.2767,8.4624,39.1535,-0.1266,-0.2828,-0.5683,0.2366
17:09:01:219,3.3376,2.9958,10.124,37.8414,-0.599,-0.2389,-0.7483,0.246
17:09:01:241,1.9215,1.5413,12.8989,37.7099,-0.5191,-0.4498,-0.9307,0.2523
17:09:01:259,0.953,0.7859,13.7333,37.7099,-0.0941,-0.759,-1.1142,0.2491
17:09:01:281,0.6561,0.8051,12.3721,37.9684,0.2335,-1.1207,-1.2652,0.2438
17:09:01:300,0.522,0.8338,11.2804,38.3928,0.442,-1.3835,-1.3787,0.2421
17:09:01:320,-0.1016,0.5704,11.2624,36.7168,0.7634,-1.4099,-1.4351,0.2449
17:09:01:348,-0.5889,0.7045,10.9907,35.5168,1.2415,-1.2197,-1.421,0.2507
17:09:01:360,-0.2597,1.2408,9.3806,37.4461,1.6729,-0.9159,-1.4242,0.2591
17:09:01:380,-0.1471,2.5014,4.8723,35.368,1.886,-0.7385,-1.4972,0.2711
17:09:01:400,-0.286,3.2639,3.6285,35.7096,1.8279,-0.7667,-1.571,0.2863
17:09:01:420,-0.6607,3.6123,3.3053,35.9517,1.5592,-0.8264,-1.5819,0.3049
17:09:01:440,-1.5441,3.6613,3.9218,36.5048,1.23,-0.8067,-1.5052,0.3239
17:09:01:459,-1.5657,4.2395,4.6712,35.9316,0.9712,-0.6615,-1.3158,0.3403
17:09:01:480,-1.853,4.6082,4.7789,36.4737,0.8324,-0.4376,-1.1515,0.3545
17:09:01:498,-2.6024,4.9063,4.9681,35.2227,0.6761,-0.2104,-1.0303,0.3655
17:09:01:519,-3.0226,5.1781,5.3607,35.318,0.4396,-0.0242,-0.8418,0.374
17:09:01:538,-3.0202,5.5647,5.4685,34.7944,0.1743,0.1534,-0.6181,0.3814
17:09:01:560,-2.952,5.7563,5.7247,34.0242,-0.1463,0.3177,-0.4468,0.3868
17:09:01:580,-2.7293,5.7946,6.7374,34.2897,-0.5527,0.3814,-0.3454,0.3898
17:09:01:599,-2.5222,5.712,7.5059,33.4147,-0.8459,0.3044,-0.3547,0.39
17:09:01:620,-2.9136,5.8472,8.0183,32.8085,-1.0052,0.2823,-0.4303,0.3867
17:09:01:643,-3.9479,5.5719,9.2214,32.4353,-1.1777,0.4312,-0.4524,0.3799
17:09:01:659,-5.4299,4.7758,10.1994,32.1951,-1.3088,0.6072,-0.364,0.3716
17:09:01:681,-6.3828,3.5931,10.8483,33.144,-1.4276,0.7241,-0.1525,0.3557
17:09:01:700,-6.6414,2.1051,11.9544,31.1572,-1.639,0.6586,0.1204,0.3432
17:09:01:719,-6.4355,0.9882,12.8079,31.4547,-1.7847,0.3577,0.3159,0.3302
17:09:01:741,-6.6175,0.8721,11.9292,31.1154,-1.6939,-0.0639,0.3582,0.3146
17:09:01:761,-7.3166,1.2169,11.2541,30.9952,-1.5826,-0.2442,0.3923,0.2976
17:09:01:780,-7.4099,0.5824,12.4595,30.9334,-1.5303,-0.3332,0.6411,0.2823
17:09:01:799,-5.6813,0.252,12.426,29.5615,-1.2912,-0.518,1.0078,0.2673
17:09:01:818,-3.7253,0.8517,10.6208,30.857,-0.827,-0.5364,1.1681,0.2529
17:09:01:840,-1.6279,1.3821,9.0263,31.1282,-0.5397,-0.3787,1.2864,0.2413
17:09:01:861,-0.4344,1.418,9.0167,29.3684,-0.484,-0.0722,1.2997,0.2338
17:09:01:880,0.0193,1.4742,9.2082,29.7326,-0.3793,0.2852,1.2302,0.2288
17:09:01:900,0.2766,1.5892,8.3547,31.3278,-0.0952,0.6067,1.1354,0.2241
17:09:01:920,0.5376,1.9543,7.0929,31.2843,0.1546,0.8168,1.0557,0.2203
17:09:01:941,0.1869,2.2811,6.2394,30.7031,0.2556,0.9212,0.9308,0.2186
17:09:01:960,-0.1064,2.499,6.474,30.6655,0.1933,0.9017,0.8563,0.2192
17:09:01:983,-0.3842,2.6546,7.0642,30.5177,0.1605,0.8056,0.8166,0.2204
17:09:02:001,-0.711,2.9718,6.9385,30.4624,0.2436,0.8461,0.7982,0.2211
17:09:02:020,-0.8307,3.2699,6.6321,30.6839,0.3051,1.0807,0.8448,0.2216
17:09:02:041,-0.8929,3.6422,6.5231,30.515,0.23,1.3345,0.9311,0.2228
17:09:02:061,-1.537,3.6039,7.1372,28.7512,0.0119,1.3939,0.9484,0.2241
17:09:02:081,-1.9141,3.5321,8.071,29.0777,-0.3961,0.7212,0.9828,0.2244
17:09:02:101,-1.3335,3.8062,9.0107,29.3809,-0.4981,0.3728,0.9636,0.2223
17:09:02:119,-1.1994,4.1414,9.863,28.6919,-0.5753,0.1931,0.9356,0.2139
17:09:02:142,-1.422,4.2922,10.7345,29.3334,-0.659,0.1236,0.9846,0.2139
17:09:02:163,-1.3371,4.5711,11.6144,29.3767,-0.7226,0.0735,1.0384,0.2041
17:09:02:179,-1.0079,4.3365,11.9675,29.2839,-0.8864,-0.0482,1.0608,0.2041
17:09:02:198,-0.2417,3.4818,13.2113,28.8305,-1.0014,-0.3787,0.9881,0.1983
17:09:02:218,1.1757,2.8701,15.3865,28.6564,-0.7484,-0.7737,0.7641,0.192
17:09:02:274,2.7942,2.7791,16.4591,27.9542,-0.2398,-0.9092,0.4091,0.1848
17:09:02:274,4.1026,2.9012,15.6462,28.2103,0.2031,-0.8783,-0.0194,0.1724
17:09:02:278,4.5479,3.1873,13.3442,29.1558,0.2146,-0.6474,-0.4285,0.1724
17:09:02:297,3.516,2.9407,11.697,27.2082,-0.3114,-0.4432,-0.6282,0.1729
17:09:02:318,2.9522,1.5664,13.5118,27.3473,-0.6773,-0.5739,-0.7952,0.1771
17:09:02:338,2.2914,0.337,16.7954,28.7403,-0.2771,-0.6472,-1.0724,0.1809
17:09:02:358,1.4474,-0.4076,17.0504,26.9414,0.5285,-0.4264,-1.2985,0.1791
17:09:02:377,0.771,-0.1742,14.9184,29.0532,1.267,0.0072,-1.3795,0.1744
17:09:02:398,0.6801,0.2699,11.6371,29.5609,1.7347,0.322,-1.4354,0.1733
17:09:02:418,0.2647,0.7572,8.3307,29.6482,1.866,0.433,-1.5145,0.1794
17:09:02:440,-0.6104,1.072,5.9353,28.6563,1.7179,0.3127,-1.5206,0.1907
17:09:02:458,-1.1802,1.4024,4.5228,29.443,1.454,-0.0027,-1.4942,0.2063
17:09:02:479,-1.5202,1.6933,4.0379,29.4261,1.1773,-0.3705,-1.441,0.238
17:09:02:498,-1.8434,1.8286,4.348,27.8306,0.9773,-0.563,-1.3656,0.2442
17:09:02:519,-2.3546,1.9232,5.0746,28.7527,0.9081,-0.5502,-1.2548,0.2563
17:09:02:541,-2.9352,2.056,5.5439,28.4127,0.8854,-0.4269,-1.0839,0.2665
17:09:02:561,-3.6139,2.4786,6.067,27.9992,0.8638,-0.3651,-0.817,0.2751
17:09:02:579,-3.6139,2.9826,6.571,29.4632,0.8218,-0.4085,-0.5576,0.2838
17:09:02:599,-3.262,3.6063,6.9493,28.8077,0.7443,-0.4141,-0.389,0.292
17:09:02:619,-3.6523,4.1402,7.0582,29.1553,0.5794,-0.3388,-0.2226,0.3001
17:09:02:641,-4.2496,4.2671,6.9816,28.1547,0.2854,-0.2887,0.0397,0.3074
17:09:02:660,-3.8234,4.285,7.1408,29.3198,-0.0528,-0.3127,0.2214,0.314
17:09:02:680,-3.1088,3.9079,7.658,29.0472,-0.3578,-0.359,0.2552,0.3185
17:09:02:698,-2.2469,3.5512,8.739,28.7038,-0.4646,-0.4304,0.1689,0.3199
17:09:02:717,-1.0629,3.8253,9.1759,27.4425,-0.4265,-0.2645,-0.0434,0.3182
17:09:02:737,-0.6655,4.2264,8.9389,27.7638,-0.4816,0.2258,-0.3233,0.3145
17:09:02:760,-5.2647,3.7152,10.871,26.6913,-0.5018,0.7222,-0.5062,0.3109
17:09:02:777,-7.9941,3.2519,10.7992,27.2161,-0.3436,0.9864,-0.4671,0.3067
17:09:02:798,-8.9063,2.8162,9.4129,26.7253,-0.1929,0.853,-0.2002,0.3013
17:09:02:817,-7.7535,2.3816,9.3231,27.471,-0.4038,0.4242,0.187,0.2961
17:09:02:837,-6.1805,1.649,10.8698,27.1512,-0.856,0.025,0.4802,0.293
17:09:02:857,-5.2133,0.4974,12.5314,26.8235,-1.1469,-0.2027,0.5769,0.29
17:09:02:877,-3.9827,-0.3633,13.3071,26.7997,-1.1112,-0.244,0.6118,0.2841
17:09:02:898,-2.7377,-0.0545,12.7205,25.917,-0.7716,-0.0916,0.5596,0.2751
17:09:02:918,-1.5968,0.8541,10.6914,27.576,-0.2835,0.1915,0.4432,0.2645
17:09:02:938,-0.6403,1.5664,8.3188,26.161,0.0947,0.5041,0.3204,0.2557
17:09:02:959,-0.1184,2.323,6.8356,26.9249,0.2319,0.7683,0.171,0.2501
17:09:02:977,-1.3215,2.8126,6.425,25.3087,0.2436,0.9891,-0.0516,0.2505
17:09:02:999,-3.3338,3.3094,6.3232,27.9642,0.2617,1.1806,-0.184,0.2518
17:09:03:017,-4.5082,3.7044,5.5726,26.4826,0.3648,1.1374,-0.0684,0.2529
17:09:03:038,-3.942,3.9235,4.5719,25.9776,0.393,0.8717,0.2805,0.2537
17:09:03:058,-2.7233,3.6422,3.6405,27.1799,0.263,0.698,0.611,0.2557
17:09:03:078,-1.8734,4.1677,4.1062,26.043,-0.0744,0.689,0.7436,0.2584
17:09:03:097,-1.4053,4.0995,5.3212,26.9839,-0.3945,0.5148,0.7686,0.2605
17:09:03:116,-1.452,4.6095,6.5854,27.5395,-0.5255,0.3236,0.6555,0.2595
17:09:03:136,-1.3071,4.5855,7.2917,27.3975,-0.456,0.1475,0.6384,0.2558
17:09:03:156,-0.936,4.5089,8.2434,26.5204,-0.3985,0.2208,0.6198,0.2513
17:09:03:177,-1.0749,4.7639,9.4369,26.6097,-0.2941,0.3633,0.4943,0.2474
17:09:03:199,-1.774,5.0248,10.1048,25.4342,-0.0568,0.4453,0.3274,0.2439
17:09:03:218,-2.6766,5.5647,9.8463,28.5273,0.2108,0.5553,0.2318,0.2411
17:09:03:237,-3.4715,5.9921,9.4871,26.3232,0.2652,0.7563,0.2334,0.2401
17:09:03:259,-3.7432,6.0771,9.893,27.2221,0.0002,0.8482,0.3242,0.2405
17:09:03:277,-4.0952,5.2128,11.4252,28.0427,-0.4472,0.6639,0.3439,0.2421
17:09:03:299,-4.5142,4.2168,14.1104,28.0309,-0.8134,0.1646,0.2938,0.2423
17:09:03:317,-3.8234,4.309,16.1502,26.5233,-0.7663,-0.4709,0.2736,0.2391
17:09:03:337,-2.2325,5.056,15.5433,28.0395,-0.2092,-0.8719,0.2917,0.2324
17:09:03:357,-0.8606,5.19,13.7273,29.1016,0.3975,-0.6991,0.3242,0.2254
17:09:03:377,0.0695,5.0344,12.5876,27.8827,0.724,-0.3156,0.3287,0.2223
17:09:03:398,0.7291,5.3181,11.0374,30.6287,0.9685,-0.1859,0.2339,0.2256
17:09:03:419,1.5791,5.6653,9.1041,30.5119,1.0455,-0.1726,0.0935,0.2461
17:09:03:441,1.4318,5.2679,8.5654,32.0888,0.6891,-0.1412,-0.1281,0.2563
17:09:03:459,0.2204,3.8469,10.1874,31.7656,-0.3146,-0.7167,-0.6562,0.2627
17:09:03:478,-0.4117,2.627,11.2995,32.5168,-0.2874,-0.9832,-0.8554,0.2627
17:09:03:498,-0.5182,2.068,10.5083,30.4298,-0.1157,-0.9835,-1.0327,0.2615
17:09:03:517,-0.4895,1.5975,8.8407,32.9337,-0.0539,-0.7896,-1.1885,0.2615
17:09:03:537,-1.2832,1.0744,8.0374,32.8034,-0.0259,-0.5212,-1.2388,0.2599
17:09:03:558,-2.3091,0.9595,8.1225,31.8507,0.1557,-0.2967,-1.1576,0.2598
17:09:03:577,-2.6299,1.0433,8.0458,33.5649,0.4281,-0.1939,-1.0623,0.2596
17:09:03:598,-3.1471,0.9164,7.7717,33.0495,0.6907,-0.1976,-0.9645,0.2592
17:09:03:617,-3.5254,1.0588,7.6149,32.953,0.9784,-0.2908,-0.845,0.2601
17:09:03:637,-3.0525,1.6083,6.808,33.2827,1.1698,-0.379,-0.7747,0.2635
17:09:03:658,-2.7867,2.2966,5.9928,33.737,1.1768,-0.3974,-0.7305,0.2696
17:09:03:677,-2.9472,3.1203,5.6804,35.7967,1.1033,-0.432,-0.6519,0.278
17:09:03:697,-3.2368,3.9917,5.7223,35.3538,0.9917,-0.4818,-0.5605,0.2888
17:09:03:717,-3.6917,4.716,5.9246,35.0627,0.8274,-0.4706,-0.4625,0.2997
17:09:03:737,-4.7955,4.9554,6.2358,36.7835,0.6202,-0.3904,-0.2777,0.31
17:09:03:758,-5.5281,4.9315,6.7997,36.6096,0.4444,-0.3188,-0.0253,0.3188
17:09:03:779,-5.4575,4.8022,6.9074,36.4423,0.2444,-0.3244,0.1828,0.3265
17:09:03:800,-4.1909,4.8716,7.0259,35.8033,0.0202,-0.3571,0.2325,0.3324
17:09:03:818,-2.8107,4.7962,7.166,37.7822,-0.195,-0.2421,0.1186,0.3365
17:09:03:841,-1.8793,5.0153,7.4473,36.0444,-0.3767,0.0378,-0.0732,0.3392
17:09:03:859,-1.7824,4.941,7.3982,38.8839,-0.603,0.4464,-0.2828,0.3392
17:09:03:880,-2.8861,4.3365,7.7202,37.3241,-0.8483,0.8914,-0.4415,0.3367
17:09:03:900,-5.06,3.3465,8.5893,38.5224,-0.9745,1.1792,-0.4261,0.332
17:09:03:918,-6.8593,2.3757,9.3782,39.9474,-0.9114,1.1542,-0.2607,0.3243
17:09:03:939,-7.2435,1.8837,9.2549,38.3841,-0.8433,0.9356,-0.1153,0.315
17:09:03:962,-7.1777,1.667,8.4373,41.0998,-0.9743,0.7388,-0.026,0.3048
17:09:03:979,-7.1837,1.5305,8.0566,39.1723,-1.3178,0.6599,0.0357,0.2957
17:09:04:000,-7.6613,0.8482,8.8671,42.1602,-1.565,0.4922,0.0927,0.2872
17:09:04:021,-7.9355,0.1957,10.1839,41.0632,-1.4694,0.2511,0.1465,0.276
17:09:04:042,-7.7727,0.2891,11.1715,41.5102,-1.0414,0.1297,0.2365,0.2615
17:09:04:064,-7.568,0.8829,11.0134,41.2453,-0.4704,0.2621,0.4355,0.2465
17:09:04:080,-6.7336,1.6622,9.3591,40.8989,-0.0044,0.5811,0.7005,0.2349
17:09:04:098,-5.5149,2.469,7.1384,40.8989,0.1821,0.9603,0.8922,0.2278
17:09:04:117,-4.8098,2.9395,5.0603,41.8431,0.0486,1.1329,1.0145,0.2261
17:09:04:137,-4.076,3.0628,3.9482,41.0905,-0.2456,0.9697,1.1053,0.2275
17:09:04:159,-3.942,2.9371,5.0531,41.0905,-0.5777,0.6163,1.138,0.2291
17:09:04:179,-3.815,2.8329,6.5028,42.3237,-0.7943,0.2439,1.1508,0.2284
17:09:04:200,-3.3973,2.7228,7.7406,42.6376,-0.8235,-0.012,1.2011,0.2253
17:09:04:218,-2.4946,2.9491,8.6288,42.8865,-0.7002,-0.0914,1.2728,0.2197
17:09:04:237,-1.5872,3.1238,9.1986,42.3254,-0.5048,-0.0637,1.3069,0.2134
17:09:04:258,-0.9791,3.3669,9.5721,42.9724,-0.3093,0.0202,1.2286,0.2061
17:09:04:301,-1.2437,3.7224,9.7505,43.4916,-0.0997,0.1268,1.0595,0.2034
17:09:04:301,-2.0469,3.9367,9.9349,44.235,0.0819,0.1928,0.8842,0.2021
17:09:04:316,-2.0996,4.3006,9.7577,43.9022,0.2335,0.1329,0.8091,0.2023
17:09:04:336,-2.2253,4.8584,9.7816,43.4532,0.3056,0.0431,0.7639,0.2038
17:09:04:356,-2.3151,5.2834,10.4197,46.1463,0.2702,0.0139,0.7468,0.2068
17:09:04:377,-2.4049,5.4055,11.3929,45.6624,0.2239,-0.0053,0.7457,0.2106
17:09:04:396,-2.8322,5.4283,11.7293,47.2237,0.2508,-0.0261,0.7034,0.2122
17:09:04:417,-3.1255,5.1565,11.4145,47.4589,0.2833,-0.0503,0.6714,0.2155
17:09:04:438,-2.8358,4.9027,11.3582,46.9942,0.2071,-0.1465,0.6778,0.2186
17:09:04:458,-1.3371,4.8549,11.527,47.4666,0.1304,-0.4155,0.693,0.2222
17:09:04:477,0.5005,4.8991,11.3869,49.9644,0.148,-0.6805,0.6555,0.2255
17:09:04:497,2.1441,4.5663,11.4085,47.7146,0.1621,-0.7047,0.5393,0.2286
17:09:04:518,3.4406,4.0444,11.6168,51.3587,0.1842,-0.6381,0.309,0.2322
17:09:04:537,4.1648,3.8792,11.1356,48.8037,0.3011,-0.5143,-0.049,0.2363
17:09:04:559,3.668,3.5105,10.1288,49.3156,0.4005,-0.1659,-0.4833,0.2402
17:09:04:579,1.9071,2.8736,9.4608,49.1171,0.3163,0.2101,-0.8716,0.2442
17:09:04:596,-0.5374,2.5253,8.9293,49.7312,0.1472,0.5249,-1.1776,0.2482
17:09:04:616,-2.2169,2.2631,8.6803,51.811,-0.0784,0.7031,-1.2681,0.2509
17:09:04:635,-3.736,1.722,8.9077,51.6076,-0.2688,0.5348,-1.2823,0.2509
17:09:04:659,-4.817,1.564,9.9516,52.1336,-0.3599,0.0274,-1.2945,0.2481
17:09:04:677,-5.8992,1.8022,10.4807,53.6165,-0.1807,-0.5396,-1.3076,0.2434
17:09:04:696,-6.0369,2.4391,9.9085,52.9456,0.2566,-0.9284,-1.1946,0.2378
17:09:04:716,-4.9966,3.3776,8.3248,53.6783,0.7381,-1.044,-0.9321,0.2333
17:09:04:736,-4.325,4.0636,6.6811,54.4183,1.0449,-0.9753,-0.7134,0.2361
17:09:04:757,-4.2029,4.3533,6.389,53.1788,1.0564,-0.8546,-0.54,0.2441
17:09:04:777,-4.1562,4.127,6.9325,55.4618,0.9586,-0.8195,-0.3595,0.2549
17:09:04:797,-4.0317,4.06,7.2366,55.4463,0.9435,-0.8687,-0.2346,0.2653
17:09:04:817,-4.0904,4.0695,7.2126,55.1809,0.9661,-0.8434,-0.1371,0.2753
17:09:04:839,-4.4208,3.7068,7.0451,55.785,0.802,-0.4943,0.1694,0.2854
17:09:04:859,-4.4926,3.2627,6.9948,56.2053,0.6433,-0.3936,0.3604,0.2952
17:09:04:876,-3.6918,3.1705,7.233,56.1761,0.5853,-0.4203,0.4541,0.3134
17:09:04:896,-2.6898,3.2663,7.1396,58.2684,0.5677,-0.3782,0.4419,0.3199
17:09:04:917,-2.0469,3.4638,6.6416,59.2939,0.4747,-0.1007,0.3809,0.3199
17:09:04:937,-1.5908,3.957,6.0563,58.9896,0.2806,0.1947,0.2523,0.3264
17:09:04:957,-1.1814,4.4418,5.8276,59.6589,0.0542,0.3499,0.0517,0.3326
17:09:04:976,-0.9803,4.9961,5.8671,58.6865,-0.1626,0.4804,-0.2101,0.3375
17:09:04:996,-1.622,5.2379,6.0132,60.4518,-0.4443,0.7931,-0.479,0.3397
17:09:05:016,-3.9001,5.0428,7.1576,61.3901,-0.6696,1.2043,-0.6056,0.3397
17:09:05:036,-6.9515,4.5639,8.3571,61.033,-0.7687,1.4557,-0.4953,0.3372
17:09:05:057,-9.5156,4.0277,8.5498,61.3778,-0.8869,1.2362,-0.1696,0.3315
17:09:05:079,-9.9143,3.4219,8.1835,61.6755,-1.1636,0.6,0.1828,0.3228
17:09:05:096,-8.4107,2.8952,9.2357,61.6222,-1.4212,0.0008,0.3572,0.3127
17:09:05:116,-7.1681,2.3374,11.448,62.4522,-1.3551,-0.1683,0.3889,0.3027
17:09:05:136,-7.1573,1.8681,13.1682,62.5701,-0.9003,0.0682,0.472,0.291
17:09:05:157,-7.4578,1.7184,12.8534,62.9613,-0.2654,0.4511,0.7106,0.272
17:09:05:177,-6.6043,2.074,10.1372,62.9087,0.0939,0.6751,0.9849,0.2621
17:09:05:197,-4.7679,2.4846,7.3934,62.7082,0.1184,0.6394,1.1066,0.2568
17:09:05:216,-3.0872,2.8282,5.5188,62.5984,-0.0608,0.4786,1.0754,0.2563
17:09:05:237,-1.9691,2.9347,4.5335,62.8033,-0.321,0.3084,1.0083,0.2574
17:09:05:257,-0.8642,2.9395,4.4342,62.1357,-0.5144,0.2296,0.9023,0.258
17:09:05:277,0.0384,2.9096,4.6927,62.8974,-0.599,0.2506,0.733,0.2567
17:09:05:296,0.4035,2.9993,4.9166,62.8063,-0.6275,0.3278,0.5529,0.2532
17:09:05:316,0.5017,3.1705,5.0255,63.723,-0.6611,0.3989,0.3689,0.2487
17:09:05:336,-0.1902,3.3465,5.3081,62.7794,-0.7162,0.4804,0.2251,0.243
17:09:05:359,-1.7728,3.2938,5.7247,64.6697,-0.839,0.5891,0.2413,0.2367
17:09:05:376,-2.6443,3.3058,6.8487,64.9306,-0.9333,0.5875,0.3577,0.2299
17:09:05:397,-2.3282,3.477,8.4421,64.5585,-0.8321,0.4155,0.3324,0.2216
17:09:05:417,-2.1571,3.8936,9.705,64.7251,-0.6044,0.3577,0.1961,0.2119
17:09:05:437,-3.1483,4.1007,10.294,64.905,-0.3895,0.5148,0.1428,0.2029
17:09:05:458,-4.6171,4.1845,10.7321,66.146,-0.2235,0.6727,0.2978,0.1955
17:09:05:477,-4.8446,4.2084,11.1763,65.7658,-0.0187,0.6221,0.4863,0.1926
17:09:05:497,-4.0533,4.5735,10.8973,65.3982,0.1339,0.4189,0.5527,0.1876
17:09:05:518,-2.6838,5.4833,10.2988,66.1322,0.1163,0.1766,0.546,0.1841
17:09:05:538,-2.1535,5.6234,10.531,66.743,-0.0336,-0.037,0.4808,0.1829
17:09:05:558,-2.005,5.4223,11.1032,65.9312,-0.2171,-0.1875,0.3516,0.1841
17:09:05:578,-1.9248,5.3421,12.3087,65.2165,-0.3538,-0.2754,0.2301,0.1851
17:09:05:596,-2.0649,5.3349,13.3813,65.6875,-0.2747,-0.3598,0.1167,0.1851
17:09:05:616,-1.5525,5.7658,13.033,66.8352,0.0572,-0.3941,0.0669,0.1835
17:09:05:637,-0.693,5.8616,11.8646,65.3503,0.3983,-0.3281,0.0698,0.1816
17:09:05:659,-0.2632,5.615,11.4695,66.1983,0.4918,-0.2645,0.007,0.1818
17:09:05:677,-0.28,5.3804,10.8698,66.7056,0.4974,-0.3214,-0.1334,0.1854
17:09:05:699,-0.9001,4.7351,10.6962,67.3263,0.3107,-0.3814,-0.3203,0.1907
17:09:05:717,-1.4448,3.8349,10.9021,65.924,-0.0906,-0.5486,-0.4852,0.1959
17:09:05:737,-1.8865,3.2196,9.9397,67.329,-0.3953,-0.783,-0.6695,0.2008
17:09:05:759,-2.1547,2.5756,8.6659,66.8215,-0.6163,-0.8988,-0.7736,0.2028
17:09:05:776,-2.7065,1.7436,8.2039,66.0409,-0.8422,-0.8253,-0.7664,0.2018
17:09:05:796,-2.782,0.9786,8.8527,66.0232,-0.961,-0.6954,-0.6194,0.1989
17:09:05:815,-2.0625,0.0772,10.3826,65.6989,-0.8201,-0.6906,-0.4303,0.194
17:09:05:836,-0.8259,-0.2316,11.0745,67.5495,-0.3372,-0.7494,-0.3627,0.1872
17:09:05:858,-0.0861,-0.0293,9.7936,67.963,0.3988,-0.7116,-0.4977,0.18
17:09:05:880,-0.4404,0.4471,7.136,67.7069,1.0417,-0.5569,-0.7478,0.1758
17:09:05:897,-0.8319,0.7691,5.6253,65.7873,1.2034,-0.3678,-0.8519,0.1776
17:09:05:917,-0.8666,1.0912,5.5666,67.7571,1.0138,-0.2527,-0.8274,0.1861
17:09:05:937,-1.1575,1.4276,6.5267,67.0513,0.7597,-0.2959,-0.8327,0.1979
17:09:05:959,-1.3921,1.7149,7.6771,68.4212,0.6178,-0.5292,-0.8783,0.2126
17:09:05:976,-1.9907,2.3888,8.2601,67.1142,0.6319,-0.7169,-0.9486,0.2199
17:09:05:997,-3.2009,3.0748,8.1153,68.3114,0.715,-0.6173,-0.9795,0.2263
17:09:06:016,-4.9559,3.4111,7.5071,67.9615,0.7139,-0.2464,-0.8538,0.2332
17:09:06:038,-5.1474,3.8241,7.136,66.0282,0.5507,0.1345,-0.5345,0.2402
17:09:06:062,-4.2616,3.9678,6.9948,67.7267,0.3051,0.2437,-0.1909,0.2468
17:09:06:078,-3.7313,3.9247,6.8236,67.465,0.054,0.0775,-0.0732,0.2514
17:09:06:098,-3.5661,3.9642,7.1708,66.7761,-0.2329,-0.1185,-0.1259,0.2535
17:09:06:115,-3.6678,4.1689,8.1476,67.4162,-0.5135,-0.1734,-0.2205,0.2538
17:09:06:135,-4.1431,4.1605,8.8671,68.1672,-0.655,0.0258,-0.2902,0.2518
17:09:06:159,-5.3186,3.9881,9.2597,67.7637,-0.7106,0.4953,-0.3342,0.2473
17:09:06:176,-7.1083,3.1813,9.8989,68.3206,-0.7684,0.8746,-0.3163,0.2408
17:09:06:197,-8.5041,2.1662,10.2198,67.8735,-0.7676,0.8416,-0.2149,0.2408
17:09:06:217,-8.5639,1.3438,9.8906,66.9565,-0.8329,0.29,0.3218,0.2238
17:09:06:236,-7.4123,0.5932,9.2214,65.7544,-1.0662,0.3356,0.6019,0.2152
17:09:06:257,-5.4551,-0.0293,9.0394,66.9936,-1.3676,0.5782,0.6539,0.207
17:09:06:276,-3.4332,-0.2376,9.6859,66.8155,-1.5431,0.7001,0.3343,0.1989
17:09:06:320,-5.2815,-0.5513,12.013,65.6284,-1.4116,0.3984,0.1055,0.1891
17:09:06:321,-8.3042,-0.9343,14.8909,65.0761,-0.7777,-0.2091,0.3018,0.1755
17:09:06:335,-7.8936,-0.2616,15.3278,65.9831,0.0236,-0.4418,0.6493,0.1595
17:09:06:354,-5.728,1.096,13.7392,66.5394,0.5602,-0.2719,0.8936,0.1459
17:09:06:375,-3.8665,2.0201,12.1698,64.7697,0.8644,-0.1172,1.0224,0.1393
17:09:06:398,-2.8203,2.6151,11.1176,66.5401,1.0492,-0.1361,1.0475,0.144
17:09:06:415,-2.5665,2.7563,10.616,65.3694,1.205,-0.2977,1.0789,0.1519
17:09:06:436,-2.1535,2.809,10.1839,65.0457,1.3749,-0.4072,1.0997,0.1623
17:09:06:458,-1.9883,2.7994,9.3615,64.4873,1.5006,-0.3409,1.1428,0.1744
17:09:06:476,-1.9931,2.7887,8.4696,64.7782,1.5565,-0.1662,1.2531,0.1878
17:09:06:495,-1.3813,2.8054,7.3814,64.2953,1.5517,-0.0847,1.3316,0.2034
17:09:06:515,-0.3135,2.9455,6.2059,64.602,1.4745,-0.139,1.2834,0.2195
17:09:06:535,0.4191,3.216,5.0734,65.7159,1.2977,-0.1926,1.1418,0.2354
17:09:06:555,0.5652,3.6841,4.7837,64.4222,1.1081,-0.0405,1.0145,0.25
17:09:06:575,0.7076,4.3233,4.7909,64.5383,0.9765,0.3031,0.8901,0.2574
17:09:06:595,0.4718,4.643,4.7634,64.5115,0.895,0.5939,0.7492,0.2708
17:09:06:616,-0.8427,4.8943,4.6736,65.0931,0.8441,0.5089,0.7143,0.2817
17:09:06:635,-1.3203,5.4953,4.7718,62.7085,0.7365,0.0083,0.7804,0.2899
17:09:06:655,0.0863,6.1322,4.9573,63.5699,0.5264,-0.4152,0.6911,0.2966
17:09:06:676,1.0967,7.115,5.5559,63.8049,0.2303,-0.4575,0.4749,0.303
17:09:06:695,0.4694,7.0886,6.4274,63.0596,-0.153,-0.2458,0.3244,0.3099
17:09:06:717,-0.3662,6.7044,7.9501,64.163,-0.4608,-0.1848,0.2459,0.3166
17:09:06:735,-1.0605,6.4314,10.191,63.5861,-0.4768,-0.4306,0.1985,0.3207
17:09:06:758,-1.0617,6.265,12.2369,65.375,-0.1657,-0.7369,0.1857,0.3206
17:09:06:775,-0.1531,6.4374,13.0808,63.2814,0.3672,-0.7582,0.1526,0.3174
17:09:06:796,0.5699,6.6278,12.019,61.7601,0.7624,-0.4743,0.1732,0.3149
17:09:06:816,1.2978,6.6445,9.978,62.3736,0.8087,-0.1832,0.2115,0.3187
17:09:06:837,1.9909,6.8241,8.4828,62.553,0.5842,0.0338,0.1862,0.3263
17:09:06:858,2.2195,6.793,7.1648,62.4974,0.0795,0.1396,0.0746,0.3348
17:09:06:877,1.7395,6.0412,6.838,62.3711,-0.6337,-0.0954,-0.1051,0.3411
17:09:06:896,0.1138,3.0927,11.8957,62.0586,-1.1168,-0.686,-0.2828,0.3441
17:09:06:915,0.291,2.6677,13.5717,62.1102,-1.0313,-1.1516,-0.4524,0.3414
17:09:06:934,0.528,2.9886,12.6702,61.9231,-0.4257,-1.1263,-0.6064,0.3345
17:09:06:955,0.9578,3.4327,9.9061,61.314,0.3461,-0.6213,-0.6852,0.3281
17:09:06:979,1.1781,3.5835,6.8691,61.314,0.9174,-0.0213,-0.7653,0.3252
17:09:06:995,0.7818,3.4985,4.9992,61.8912,1.1488,0.2948,-0.8902,0.3278
17:09:07:015,0.0049,3.647,4.2726,61.3223,1.1507,0.2658,-1.0442,0.3342
17:09:07:035,-1.2796,4.1557,3.9637,62.7668,1.0788,0.0573,-1.1842,0.3428
17:09:07:055,-2.3606,4.5963,3.5364,61.0529,0.9954,-0.1808,-1.1699,0.3517
17:09:07:076,-2.7832,5.2559,3.5352,61.1028,0.8039,-0.2618,-0.9688,0.3599
17:09:07:096,-2.4803,5.6258,3.8632,61.4211,0.5557,-0.2719,-0.682,0.3685
17:09:07:115,-2.3127,5.8628,4.6113,60.9349,0.2841,-0.2613,-0.4711,0.3765
17:09:07:136,-2.4156,6.0436,5.4685,59.8291,0.0737,-0.2266,-0.3424,0.3827
17:09:07:155,-2.6036,6.0699,6.0144,61.4806,-0.0435,-0.2149,-0.2269,0.3865
17:09:07:175,-2.6072,6.2435,6.3771,61.1356,-0.1034,-0.2035,-0.094,0.3883
17:09:07:195,-2.175,6.6864,6.5495,59.8003,-0.1519,-0.1603,0.0597,0.3887
17:09:07:217,-1.8219,7.0419,6.6404,60.7901,-0.2435,-0.0631,0.1692,0.3884
17:09:07:235,-1.434,7.1425,7.1145,59.9366,-0.4291,0.0298,0.2174,0.3873
17:09:07:256,-1.2413,7.4921,7.9201,58.7538,-0.6337,0.0639,0.174,0.3854
17:09:07:275,-1.5741,7.3963,8.9892,60.9552,-0.7924,0.0828,0.0847,0.3818
17:09:07:297,-2.7149,6.702,10.7824,58.8576,-0.9255,0.1475,-0.0332,0.3762
17:09:07:315,-4.3897,5.8628,13.2257,59.141,-0.9314,0.2037,-0.1288,0.369
17:09:07:335,-5.6239,5.0859,14.1678,59.2798,-0.5807,0.1997,-0.1185,0.3608
17:09:07:355,-5.5664,5.2643,12.1255,58.4175,0.0518,0.2732,-0.0066,0.3518
17:09:07:377,-4.1826,5.876,8.9066,57.1977,0.4337,0.4298,0.2014,0.346
17:09:07:397,-3.2524,5.2798,7.81,58.8424,0.1855,0.5009,0.314,0.3457
17:09:07:415,-3.8354,4.5484,9.4453,58.3756,-0.301,0.3483,0.1553,0.3486
17:09:07:435,-5.1618,4.1246,10.7489,57.5653,-0.4321,0.0892,-0.086,0.3491
17:09:07:455,-5.9363,4.3628,9.9528,56.6122,-0.1175,0.0141,-0.1829,0.3456
17:09:07:475,-5.2635,5.032,7.8112,55.8293,0.2471,0.2554,-0.0279,0.3417
17:09:07:495,-4.2747,5.463,5.5571,56.5807,0.3709,0.5768,0.1859,0.3405
17:09:07:518,-3.7049,5.6557,4.2869,55.2599,0.1696,0.7172,0.3428,0.3419
17:09:07:535,-3.0585,5.4534,4.0679,55.2846,-0.1815,0.6567,0.4784,0.3437
17:09:07:554,-2.0829,4.8896,4.6437,55.3692,-0.4946,0.4599,0.6192,0.3435
17:09:07:575,-1.4891,4.3497,5.6229,54.2636,-0.6393,0.2474,0.6957,0.3405
17:09:07:595,-0.9312,3.9798,6.1999,54.3398,-0.4129,0.1555,0.7623,0.3356
17:09:07:615,-0.3411,3.7966,6.1568,55.3823,-0.2568,0.3188,0.7537,0.3248
17:09:07:635,0.0935,3.878,5.9485,53.5731,-0.1801,0.4567,0.6941,0.3248
17:09:07:660,0.279,4.0324,6.1125,55.8157,-0.1178,0.436,0.5942,0.3175
17:09:07:684,0.2731,4.4107,6.8942,54.6067,-0.006,0.339,0.477,0.3175
17:09:07:695,0.151,4.6358,7.9201,53.9705,0.181,0.2735,0.3801,0.3152
17:09:07:722,0.2168,4.9327,8.0183,55.3038,0.3847,0.3531,0.2608,0.3138
17:09:07:734,0.1749,5.6066,7.2845,54.7206,0.4412,0.47,0.1827,0.3135
17:09:07:756,0.1342,6.4338,7.0882,53.7291,0.3943,0.4767,0.1268,0.3145
17:09:07:776,-0.1172,6.8337,7.1552,53.2641,0.3014,0.4024,0.0469,0.3169
17:09:07:794,-0.845,7.188,7.1983,53.7972,0.1118,0.2975,-0.0034,0.3192
17:09:07:814,-1.6543,7.2802,7.4557,54.3598,-0.1375,0.106,-0.005,0.321
17:09:07:834,-2.3941,7.3544,8.2338,52.1548,-0.3333,-0.1316,0.0166,0.3223
17:09:07:855,-2.8059,7.6453,9.0897,51.5631,-0.415,-0.3175,0.08,0.3221
17:09:07:877,-2.776,8.1481,9.0969,53.4977,-0.5548,-0.33,0.2251,0.3206
17:09:07:897,-2.0613,8.2139,8.7533,51.7313,-0.9469,-0.2946,0.3138,0.3182
17:09:07:917,-1.5274,7.4729,9.717,52.3738,-1.3903,-0.4695,0.3183,0.3159
17:09:07:935,-1.0845,5.9251,12.2764,51.7566,-1.5205,-0.7249,0.2363,0.3126
17:09:07:955,-0.5769,4.5388,14.4647,49.1928,-1.2635,-0.8778,0.1034,0.3057
17:09:07:976,0.3604,3.7966,15.0249,50.0949,-0.7903,-0.7569,-0.1035,0.2955
17:09:07:995,0.9315,3.4674,14.1091,51.5291,-0.3255,-0.4019,-0.3262,0.2855
17:09:08:016,1.1338,3.4447,12.0956,48.6871,0.0252,-0.0123,-0.5099,0.2776
17:09:08:035,0.8153,3.4339,9.3052,49.0334,0.1687,0.2543,-0.6125,0.2733
17:09:08:056,0.7842,3.4746,6.3735,49.4277,0.0199,0.2874,-0.646,0.2717
17:09:08:075,1.263,3.1885,4.6808,48.8099,-0.3636,-0.0077,-0.6862,0.2718
17:09:08:095,2.0448,2.5109,5.5882,48.531,-0.5972,-0.4021,-0.8905,0.2709
17:09:08:114,2.0412,2.1817,7.5155,47.8913,-0.4307,-0.5947,-1.1632,0.2695
17:09:08:134,1.1948,1.9986,8.4588,47.2836,-0.0456,-0.4916,-1.3084,0.2651
17:09:08:155,-0.0406,2.0955,8.1428,48.8064,0.3182,-0.1449,-1.2282,0.2614
17:09:08:175,-0.6008,2.566,6.7913,46.3483,0.4508,0.1143,-1.0508,0.2603
17:09:08:197,-0.6308,3.2531,5.9186,46.6587,0.3264,0.0943,-0.9227,0.2621
17:09:08:216,-0.6739,3.8493,6.2059,45.6422,0.1088,-0.1542,-0.891,0.2653
17:09:08:236,-1.5717,3.9714,7.4664,45.3673,-0.0361,-0.3529,-0.8732,0.2682
17:09:08:257,-3.0704,4.1103,9.1831,46.5438,-0.0342,-0.4101,-0.7353,0.2696
17:09:08:281,-4.5046,4.5927,11.023,45.4322,0.1421,-0.3907,-0.502,0.27
17:09:08:297,-4.2185,4.9063,10.3084,45.1361,0.3951,-0.3553,-0.2423,0.27
17:09:08:346,-3.5553,5.457,9.2812,45.3416,0.5347,-0.3246,-0.0497,0.2709
17:09:08:347,-2.7424,5.9598,8.3487,43.9033,0.4835,-0.2953,0.0611,0.2742
17:09:08:355,-2.1595,6.3345,8.0686,44.5348,0.2715,-0.2424,0.064,0.2794
17:09:08:374,-1.8734,6.5966,8.4541,43.6827,-0.0265,-0.1614,-0.0037,0.2851
17:09:08:393,-2.1547,6.1549,9.4237,42.7912,-0.3077,-0.0304,-0.0958,0.2892
17:09:08:414,-3.8761,5.2738,11.1571,43.5657,-0.5415,0.221,-0.2295,0.2908
17:09:08:434,-6.2583,4.0767,12.4512,42.033,-0.5492,0.3958,-0.31,0.2879
17:09:08:454,-8.1438,3.1645,12.1818,42.055,-0.2893,0.4224,-0.2114,0.2823
17:09:08:474,-8.1342,2.7216,10.3072,40.5823,0.0399,0.3872,0.105,0.2761
17:09:08:494,-6.5277,2.6522,8.7976,41.1812,0.1261,0.3302,0.5276,0.2723
17:09:08:514,-5.1115,2.6115,8.5079,41.2409,-0.0494,0.2541,0.7732,0.2719
17:09:08:534,-4.8781,2.086,8.1739,40.8783,-0.2446,0.1976,0.7804,0.2725
17:09:08:553,-5.4371,1.7879,7.8651,40.1105,-0.4366,0.2764,0.6983,0.2719
17:09:08:574,-5.3497,2.0225,7.5107,41.4994,-0.606,0.3885,0.6858,0.2698
17:09:08:594,-4.337,2.4547,7.0582,39.6454,-0.7021,0.3941,0.7543,0.2654
17:09:08:614,-3.1339,2.8401,6.9828,40.3909,-0.7516,0.3308,0.7937,0.2592
17:09:08:639,-2.3067,2.6414,6.8775,38.4637,-0.7346,0.2743,0.7971,0.2524
17:09:08:654,-1.4005,2.5241,6.6644,39.4415,-0.6965,0.2679,0.7708,0.245
17:09:08:674,-0.8403,2.4834,6.656,40.011,-0.6707,0.3342,0.7183,0.2379
17:09:08:701,-0.347,2.4391,6.7925,36.8025,-0.6416,0.408,0.6762,0.2311
17:09:08:717,-0.2238,2.2847,7.136,37.359,-0.5964,0.4559,0.608,0.228
17:09:08:735,-0.4392,2.3972,7.6412,38.3607,-0.5173,0.4756,0.5428,0.2212
17:09:08:754,-1.0031,2.5133,7.8627,37.8353,-0.3586,0.5268,0.501,0.2144
17:09:08:774,-1.0031,2.8617,7.5897,35.5017,-0.1799,0.5784,0.5316,0.2083
17:09:08:794,-0.7433,3.2124,7.1073,36.0683,-0.0661,0.5752,0.5726,0.2029
17:09:08:814,-0.5745,3.6577,7.0834,35.2918,-0.0653,0.5188,0.571,0.1989
17:09:08:834,-0.6607,3.8194,7.7298,34.3296,-0.1703,0.4447,0.5417,0.1962
17:09:08:854,-1.1048,3.7978,8.8658,33.9945,-0.2906,0.3899,0.4786,0.1942
17:09:08:876,-1.4065,3.7152,10.2186,34.3224,-0.3191,0.2863,0.4406,0.1919
17:09:08:898,-0.7565,3.878,10.8626,35.7411,-0.1644,0.1827,0.469,0.1832
17:09:08:914,0.1988,4.3557,10.3395,33.6705,0.2191,0.2826,0.3875,0.1815
17:09:08:935,0.8453,5.0464,9.2968,33.5135,0.0449,0.3704,0.2403,0.1815
17:09:08:957,0.9351,5.4486,9.1771,31.4252,-0.3602,0.3241,0.0419,0.1819
17:09:08:975,0.3904,4.8441,10.537,32.8184,-0.733,0.0578,-0.2125,0.183
17:09:08:995,-0.8103,3.7272,13.0066,32.0021,-0.7857,-0.326,-0.4138,0.1777
17:09:09:014,-1.6651,3.3692,15.2644,30.7392,-0.3887,-0.5934,-0.466,0.1777
17:09:09:033,-1.0916,3.6961,15.0058,31.0658,0.0242,-0.6083,-0.3997,0.171
17:09:09:053,0.5951,3.7679,13.683,30.1571,0.1365,-0.5095,-0.4103,0.1649
17:09:09:073,2.4123,4.2802,13.4687,29.0925,0.1794,-0.3635,-0.7129,0.1633
17:09:09:094,1.7766,4.1043,12.9216,29.1854,0.0423,-0.1265,-1.0572,0.1656
17:09:09:114,-1.0641,2.8006,13.1203,29.1165,-0.2342,-0.0389,-1.1187,0.1683
17:09:09:133,-2.8358,1.6622,14.8585,27.9749,-0.2062,-0.3233,-1.0434,0.1709
17:09:09:153,-2.8897,0.9631,15.6199,29.0203,0.168,-0.685,-1.0386,0.1711
17:09:09:176,-2.5653,0.9367,14.3019,27.0872,0.6242,-0.7318,-1.0871,0.1685
17:09:09:194,-2.5928,1.339,11.7964,28.3711,0.9578,-0.5654,-1.0135,0.1671
17:09:09:214,-1.9368,1.57,9.1651,26.4189,1.131,-0.4064,-0.9451,0.1703
17:09:09:233,-0.8917,1.7268,6.899,27.0211,1.1672,-0.3779,-1.0109,0.1774
17:09:09:253,-0.3758,1.7819,5.1908,27.5469,1.0814,-0.4368,-1.1432,0.1876
17:09:09:274,-0.2082,1.8597,4.4545,26.6503,0.9395,-0.494,-1.2514,0.1988
17:09:09:294,-0.7373,1.7208,4.7047,27.9604,0.8835,-0.4978,-1.2937,0.2097
17:09:09:314,-1.4113,1.7879,5.1596,27.434,0.9155,-0.4272,-1.2341,0.2203
17:09:09:334,-1.7991,1.9256,5.241,26.7574,0.8833,-0.3428,-1.0729,0.2385
17:09:09:353,-1.7153,2.1949,5.757,26.7305,0.7794,-0.2229,-0.9464,0.2425
17:09:09:374,-2.029,2.5732,6.8427,27.5063,0.7123,-0.1348,-0.8495,0.2513
17:09:09:394,-2.6503,2.8712,8.1332,25.2778,0.7403,-0.1132,-0.7414,0.2592
17:09:09:414,-3.3602,3.2471,8.8132,27.4151,0.8023,-0.097,-0.6074,0.2658
17:09:09:433,-4.1443,3.6159,9.1651,25.9811,0.8431,-0.0035,-0.3893,0.2719
17:09:09:453,-4.5716,4.1462,8.9963,28.5591,0.8029,0.1622,-0.1526,0.2789
17:09:09:474,-4.4292,4.5867,8.205,26.6925,0.5672,0.2429,0.0107,0.2864
17:09:09:498,-3.997,4.7902,7.9165,26.7346,0.242,0.1302,0.0461,0.2936
17:09:09:514,-3.4056,5.2738,8.5714,27.2102,0.0859,-0.0589,-0.0362,0.2998
17:09:09:534,-3.3326,6.0807,8.5271,27.2576,-0.0147,-0.0842,-0.0695,0.3032
17:09:09:553,-3.2045,6.5547,8.2865,28.8536,-0.2707,0.1979,-0.0828,0.3043
17:09:09:574,-4.4507,6.5763,9.5793,26.7038,-0.4115,0.4996,-0.0641,0.3049
17:09:09:593,-6.9515,5.4869,10.8518,28.7729,-0.3186,0.4919,0.0946,0.3036
17:09:09:615,-8.6657,4.37,10.9249,28.4391,-0.2214,0.1044,0.3889,0.2994
17:09:09:633,-8.3461,3.1514,10.6423,28.9404,-0.2227,-0.2911,0.6581,0.295
17:09:09:653,-5.5353,1.8441,10.9715,29.0453,-0.1679,-0.2796,0.8073,0.2922
17:09:09:675,-4.7823,1.3761,10.063,30.0309,0.0087,0.0937,0.8611,0.291
17:09:09:693,-3.9072,1.2216,8.6001,29.0503,0.1967,0.527,0.8677,0.2903
17:09:09:713,-2.8143,1.248,7.0917,31.0806,0.2558,0.8149,0.8469,0.2903
17:09:09:733,-2.278,1.3665,6.5758,31.0804,0.1267,0.951,0.7407,0.2914
17:09:09:754,-3.0549,1.4228,6.6524,31.346,-0.0451,1.0996,0.6323,0.2928
17:09:09:776,-3.3518,1.3749,7.1372,32.0509,-0.1285,1.546,0.7497,0.2929
17:09:09:794,-1.9272,1.3007,7.3012,32.7788,-0.0787,2.2823,1.1069,0.2904
17:09:09:814,-0.5877,2.0345,6.8978,31.748,0.1112,3.048,1.3439,0.2864
17:09:09:833,-0.4955,3.4842,4.202,31.748,0.3626,3.4941,1.2946,0.2809
17:09:09:853,-0.863,3.7415,0.9147,31.9224,0.3168,2.938,0.9553,0.2751
17:09:09:875,-0.9983,3.7751,0.9913,32.1273,-0.3037,1.4786,0.4951,0.2701
17:09:09:894,-1.3538,3.7368,3.2862,32.4651,-1.0313,0.2764,0.0624,0.2653
17:09:09:913,-1.8746,4.1474,5.8994,34.1555,-1.4212,-0.1846,-0.1371,0.2624
17:09:09:933,-2.108,4.8381,6.7027,33.5598,-1.3373,-0.0778,-0.1435,0.2542
17:09:09:954,-1.9164,4.7375,6.492,33.9077,-1.0723,0.0437,-0.1286,0.2435
17:09:09:974,-1.5058,5.1254,7.2414,34.1813,-0.9594,0.065,-0.1494,0.2311
17:09:09:994,-2.6132,5.5839,7.9776,32.8558,-0.8768,0.1041,-0.3563,0.2202
17:09:10:016,-5.066,5.7108,7.9465,33.7897,-0.7833,-0.0546,-0.548,0.2114
17:09:10:033,-6.5241,5.5336,9.4237,34.6378,-0.946,-0.3555,-0.4221,0.2023
17:09:10:053,-5.7089,5.5348,12.1255,35.5527,-1.1825,-0.702,-0.0247,0.1938
17:09:10:075,-3.6738,5.3912,14.011,35.6095,-1.1983,-1.0221,0.2344,0.186
17:09:10:093,-2.1307,5.1829,15.0357,35.7347,-1.0353,-1.2829,0.1678,0.178
17:09:10:115,-1.8506,4.5544,15.7719,37.7536,-0.7695,-1.4802,-0.1163,0.1702
17:09:10:134,-2.8155,3.9391,16.3394,39.5267,-0.3945,-1.3819,-0.3965,0.1642
17:09:10:153,-2.2828,3.8277,15.7875,39.8635,0.1544,-1.1774,-0.4127,0.1609
17:09:10:173,-0.1759,3.8194,14.3306,40.2835,0.813,-1.0999,-0.3089,0.1601
17:09:10:194,2.0089,4.127,12.8905,39.991,1.3477,-1.114,-0.3707,0.1625
17:09:10:214,3.0216,4.722,10.5597,40.8998,1.7549,-1.2781,-0.6873,0.176
17:09:10:233,1.9502,5.7311,7.5419,42.2325,1.8372,-1.2307,-1.1227,0.1916
17:09:10:253,-0.4991,5.4247,6.0012,44.3268,1.1738,-0.6868,-1.3741,0.2111
17:09:10:274,-1.6974,3.4926,9.4955,41.6579,-0.1463,-0.2493,-1.2317,0.2298
17:09:10:295,-2.3223,0.9523,14.3605,44.0443,-1.0659,-0.3284,-1.0567,0.2414
17:09:10:315,-3.1638,-0.4172,16.1622,45.846,-0.9266,-0.5854,-1.1467,0.2296
17:09:10:348,-4.0114,-0.0509,14.3007,44.7439,0.7722,-0.2575,-1.1608,0.2218
17:09:10:353,-3.651,0.4842,10.95,45.789,1.3507,0.2245,-0.903,0.2218
17:09:10:373,-2.5701,0.8853,8.1596,46.1929,1.6884,0.604,-0.7368,0.2211
17:09:10:392,-1.6279,1.4527,6.2825,48.193,1.8404,0.6557,-0.6844,0.228
17:09:10:413,-1.2401,1.7208,5.2841,47.6038,1.8484,0.5017,-0.7518,0.239
17:09:10:433,-1.6866,1.8334,4.8125,48.0456,1.7877,0.2202,-0.8335,0.2529
17:09:10:453,-2.606,2.1314,4.5527,48.5748,1.6615,-0.0088,-0.7997,0.2681
17:09:10:474,-3.0728,2.6713,4.4677,47.9186,1.4766,-0.1957,-0.6894,0.2828
17:09:10:494,-2.6706,3.3094,4.5647,50.0556,1.2588,-0.4341,-0.6484,0.2979
17:09:10:515,-2.5174,4.0863,4.8927,49.9974,1.0407,-0.648,-0.6724,0.3123
17:09:10:533,-2.8418,4.6142,5.3224,49.9629,0.8151,-0.6626,-0.6639,0.3253
17:09:10:553,-3.6044,5.038,6.0886,51.1289,0.65,-0.3939,-0.5558,0.3361
17:09:10:573,-4.4926,5.4402,6.407,51.8814,0.5293,-0.0474,-0.3438,0.3456
17:09:10:593,-4.7524,5.7168,6.3436,52.3061,0.3522,0.2338,-0.1059,0.3531
17:09:10:614,-4.5094,5.8927,6.073,54.3732,0.0782,0.3992,-0.0362,0.3585
17:09:10:634,-4.5549,5.9251,5.7929,51.9099,-0.2752,0.3281,-0.1094,0.3658
17:09:10:652,-4.9415,5.7802,5.9904,52.8733,-0.6262,0.024,-0.1802,0.366
17:09:10:672,-5.0325,5.3038,6.9002,54.1113,-0.9245,-0.1715,-0.2601,0.3648
17:09:10:693,-5.5473,4.9243,8.8024,54.592,-0.986,-0.1111,-0.3227,0.3603
17:09:10:713,-7.2196,4.1857,10.5621,54.9523,-0.7479,0.123,-0.2221,0.3528
17:09:10:732,-8.7782,3.4207,11.0769,54.5005,-0.3404,0.3758,0.0416,0.344
17:09:10:752,-9.3085,3.0532,9.5554,54.7077,-0.1367,0.5169,0.3804,0.3353
17:09:10:772,-8.4897,3.0736,7.2845,55.2802,-0.4318,0.535,0.6091,0.3297
17:09:10:792,-7.4578,2.4211,6.7338,55.168,-0.962,0.2935,0.627,0.3278
17:09:10:814,-6.3421,1.4395,8.2015,55.648,-1.1463,-0.0453,0.4182,0.3259
17:09:10:833,-5.7962,1.3641,9.6404,56.3267,-0.8763,-0.0474,0.129,0.3196
17:09:10:853,-6.2679,2.0943,9.5123,54.5643,-0.4044,0.2128,0.0911,0.31
17:09:10:874,-5.9136,2.7444,7.7286,55.0387,-0.0891,0.5555,0.2416,0.3012
17:09:10:894,-4.7655,3.3058,5.5391,55.2716,-0.0355,0.7699,0.3298,0.2952
17:09:10:915,-3.5086,3.8708,3.7195,55.3133,-0.2464,0.7334,0.3058,0.2929
17:09:10:933,-3.2285,3.7547,3.024,54.4046,-0.6398,0.5233,0.2954,0.2921
17:09:10:953,-2.952,3.4949,4.1002,54.1035,-0.8534,0.3174,0.3029,0.2903
17:09:10:975,-2.9316,3.2639,5.3488,56.4469,-0.8225,0.2645,0.3569,0.2856
17:09:10:994,-2.7018,3.137,5.7067,56.3959,-0.7503,0.3246,0.4549,0.2785
17:09:11:013,-2.2816,3.1693,5.7917,55.3366,-0.7442,0.3981,0.5226,0.2706
17:09:11:034,-2.1726,3.41,7.1241,56.7546,-0.7503,0.4671,0.5098,0.2634
17:09:11:053,-2.2217,3.647,7.8363,57.4601,-0.6558,0.4277,0.4994,0.2567
17:09:11:074,-2.2385,4.1414,7.8974,56.161,-0.4856,0.416,0.4903,0.2501
17:09:11:093,-2.5413,4.6681,7.9333,56.8966,-0.3852,0.523,0.4653,0.2432
17:09:11:113,-3.2596,4.8129,8.6971,56.8826,-0.4078,0.6192,0.4219,0.236
17:09:11:132,-4.264,4.7232,9.6512,55.9669,-0.4267,0.5334,0.3713,0.2321
17:09:11:153,-4.7296,4.9698,10.4891,58.85,-0.3918,0.3052,0.367,0.2276
17:09:11:173,-4.6279,5.1936,11.0075,59.9079,-0.3226,0.0668,0.4137,0.2231
17:09:11:199,-4.0748,5.3624,11.4049,58.1827,-0.3034,-0.1116,0.4363,0.2213
17:09:11:217,-3.584,5.4019,11.7748,59.3342,-0.3141,-0.2575,0.3884,0.2183
17:09:11:235,-3.5409,5.2104,12.2919,58.2513,-0.3322,-0.3803,0.2658,0.2162
17:09:11:252,-3.4188,5.0823,12.9767,58.7178,-0.2992,-0.5159,0.138,0.2147
17:09:11:273,-2.7963,5.1841,13.4064,57.7852,-0.1362,-0.6727,0.0475,0.2131
17:09:11:293,-1.8997,5.3469,13.0748,57.6156,0.1432,-0.7398,-0.0047,0.2115
17:09:11:314,-1.3562,5.2224,12.4224,59.1005,0.3906,-0.5851,-0.0639,0.211
17:09:11:333,-1.1551,5.1003,11.5533,58.0253,0.5328,-0.322,-0.1523,0.2128
17:09:11:354,-1.938,4.4131,10.6639,57.5649,0.5283,-0.0722,-0.2822,0.217
17:09:11:374,-3.0872,3.5273,10.7106,56.6342,0.2447,0.0682,-0.445,0.2224
17:09:11:394,-4.1562,2.8389,10.4807,56.0023,-0.0478,-0.0682,-0.6127,0.2275
17:09:11:414,-4.847,2.5672,9.1053,54.7591,-0.153,-0.2999,-0.7422,0.2308
17:09:11:433,-4.7536,2.4846,7.8028,55.5006,-0.2377,-0.4802,-0.7363,0.2307
17:09:11:452,-4.4938,2.4678,7.3216,54.8196,-0.3639,-0.567,-0.6761,0.2291
17:09:11:473,-4.4292,2.0584,7.8818,55.2384,-0.4166,-0.6823,-0.5936,0.2271
17:09:11:493,-4.4579,1.3366,8.9628,53.5561,-0.3045,-0.9353,-0.5251,0.2244
17:09:11:515,-4.1048,1.2815,9.2585,52.7983,0.03,-1.1185,-0.4442,0.221
17:09:11:532,-3.3901,1.6346,8.5965,51.6316,0.4817,-1.0711,-0.3462,0.2184
17:09:11:552,-2.436,1.8477,7.3814,52.2237,0.8628,-0.9004,-0.205,0.2183
17:09:11:574,-1.7908,2.0931,6.8631,51.029,1.0545,-0.7049,-0.0892,0.2256
17:09:11:593,-1.592,2.244,6.7446,50.7037,1.1227,-0.5265,-0.0567,0.2353
17:09:11:612,-1.5932,2.4008,6.6943,52.7386,1.1581,-0.448,-0.0628,0.2465
17:09:11:633,-1.8207,2.6785,6.8835,50.6831,1.1571,-0.4216,-0.0833,0.2579
17:09:11:652,-2.3773,2.9838,6.9289,49.5946,1.1533,-0.3505,-0.0785,0.269
17:09:11:672,-2.8334,3.3417,6.6488,48.9464,1.1126,-0.183,-0.0077,0.2806
17:09:11:692,-2.9507,3.6254,6.4417,49.319,0.9746,-0.0256,0.1055,0.2919
17:09:11:721,-2.2552,3.9594,6.3459,47.9388,0.4955,-0.0916,0.1913,0.3113
17:09:11:734,-1.7189,4.3389,6.5961,49.5302,0.2409,-0.0818,0.0765,0.3113
17:09:11:754,-1.7225,4.704,6.9134,48.5276,0.0084,-0.0485,-0.0719,0.3186
17:09:11:773,-1.7189,5.1733,7.166,47.9723,-0.2379,-0.086,-0.2037,0.3233
17:09:11:796,-1.7046,5.2726,7.9309,47.8552,-0.4749,-0.0762,-0.4146,0.3257
17:09:11:815,-2.837,4.9602,9.535,47.4847,-0.5772,0.0642,-0.6064,0.3236
17:09:11:834,-5.315,4.2443,11.0877,48.1434,-0.4502,0.2815,-0.5861,0.3236
17:09:11:854,-7.2759,3.8457,11.2086,45.6615,-0.2062,0.4655,-0.3424,0.3192
17:09:11:873,-8.1893,3.5524,9.5255,46.6905,-0.2491,0.5691,0.0206,0.3131
17:09:11:894,-7.0724,3.0365,7.7908,44.2336,-0.6552,0.3537,0.2512,0.308
17:09:11:917,-5.5712,2.2559,7.5634,44.2076,-1.1556,0.0913,0.2155,0.3052
17:09:11:933,-5.09,1.5233,8.6156,44.7612,-1.4007,0.2037,0.0831,0.302
17:09:11:954,-5.6071,1.5377,9.8175,44.6615,-1.2153,0.5494,-0.022,0.2956
17:09:11:974,-7.3537,1.6179,9.711,44.4843,-0.8145,0.8437,0.1047,0.2855
17:09:12:000,-8.127,2.2224,8.5582,44.1882,-0.4584,0.8898,0.3953,0.272
17:09:12:016,-7.0724,2.7312,6.6644,43.7113,-0.4102,0.644,0.6227,0.2596
17:09:12:034,-5.4335,3.0017,5.8731,44.0515,-0.5476,0.3537,0.6512,0.2479
17:09:12:053,-5.0217,3.0293,6.7099,42.6523,-0.5681,0.0724,0.6874,0.2435
17:09:12:075,-4.7584,2.7491,7.488,43.6972,-0.4241,-0.0969,0.7939,0.2388
17:09:12:099,-3.912,2.6462,7.5622,44.3883,-0.2883,-0.1278,0.9196,0.2337
17:09:12:116,-2.837,2.6031,7.8304,44.0688,-0.1364,-0.0887,0.9785,0.2302
17:09:12:133,-1.9308,2.6917,7.6771,44.4325,0.0127,0.016,0.9404,0.2281
17:09:12:153,-1.5034,2.9778,7.3048,45.3174,0.0833,0.135,0.8869,0.2274
17:09:12:172,-1.2173,3.2388,6.9349,44.5835,0.0513,0.2543,0.8131,0.228
17:09:12:193,-1.2497,3.5775,7.0582,45.6044,-0.0382,0.3443,0.7375,0.2294
17:09:12:213,-1.8183,3.7415,7.6161,42.9288,-0.1871,0.4205,0.6744,0.2306
17:09:12:234,-2.6682,3.8589,9.3231,45.3758,-0.2637,0.4045,0.6821,0.2308
17:09:12:253,-2.4935,4.1546,11.7748,44.3338,-0.039,0.3614,0.6046,0.2296
17:09:12:273,-2.7029,4.4275,13.4208,46.2332,0.4854,0.4061,0.5103,0.2269
17:09:12:294,-2.7628,4.8968,13.0713,44.1149,1.0375,0.6567,0.5002,0.2249
17:09:12:314,-2.6982,5.3457,11.011,45.003,1.2961,0.9678,0.5676,0.2264
17:09:12:337,-2.1559,6.3273,8.8539,45.6301,1.2071,1.1209,0.5785,0.2328
17:09:12:369,-2.1044,6.787,7.2402,45.5111,0.8881,0.9803,0.5154,0.2422
17:09:12:373,-2.6347,6.7307,6.5099,46.6627,0.4859,0.6429,0.4352,0.2512
17:09:12:393,-3.0525,6.5535,6.6728,45.1276,0.1482,0.2759,0.4043,0.2585
17:09:12:418,-2.8885,6.3788,8.0231,45.4267,0.0391,-0.0557,0.4328,0.2629
17:09:12:434,-1.5609,6.2842,8.2541,45.8204,0.0154,-0.2615,0.5468,0.2648
17:09:12:453,-0.4763,6.2567,8.7102,44.7122,-0.0321,-0.3191,0.5846,0.2657
17:09:12:473,0.3425,6.2112,9.1603,44.9189,-0.1325,-0.4245,0.5332,0.2665
17:09:12:493,0.6573,5.8712,8.9137,44.914,-0.3143,-0.4831,0.4192,0.2692
17:09:12:521,0.473,4.3102,9.8391,46.697,-0.7775,-0.5191,0.2765,0.271
17:09:12:532,0.7615,2.0189,12.9336,44.8237,-1.3815,-0.7654,0.1633,0.2711
17:09:12:553,1.0548,0.0856,15.6869,44.8652,-1.6582,-1.1593,-0.0719,0.2687
17:09:12:574,1.4259,-0.9128,16.4866,45.7374,-1.4174,-1.403,-0.4106,0.2616
17:09:12:599,1.6557,-0.8649,15.6809,43.5575,-0.8028,-1.3611,-0.788,0.2507
17:09:12:614,2.4207,0.313,13.8925,45.6884,-0.011,-1.0773,-1.0945,0.2404
17:09:12:633,1.5456,0.8601,10.9488,45.8091,0.8471,-0.6333,-1.4855,0.2343
17:09:12:652,0.3078,1.2049,7.5239,43.1888,1.5512,-0.2786,-1.817,0.2336
17:09:12:672,0.054,1.5281,4.4833,46.6425,1.8966,-0.2333,-1.9816,0.2391
17:09:12:694,0.3042,1.8405,2.3333,45.5073,1.8505,-0.538,-2.0849,0.2498
17:09:12:723,0.3461,1.9794,1.7862,45.5073,1.5035,-1.0983,-2.224,0.2653
17:09:12:732,-0.3351,2.2188,2.8827,46.0347,1.0375,-1.6229,-2.3587,0.282
17:09:12:756,-2.3271,2.4235,4.8125,45.3148,0.695,-1.6869,-2.4615,0.2975
17:09:12:773,-4.1359,2.8569,6.0682,45.5239,0.6463,-1.2485,-2.3358,0.3093
17:09:12:795,-5.1474,3.7667,5.7522,47.6885,0.8335,-0.6205,-1.9694,0.3179
17:09:12:820,-5.3102,4.6609,5.0363,46.5129,0.8441,0.0293,-1.4868,0.324
17:09:12:832,-5.8561,4.8908,5.5547,46.3452,0.4292,0.3473,-1.09,0.33
17:09:12:853,-6.8808,4.643,7.9405,46.4076,-0.21,0.1843,-0.8703,0.3372
17:09:12:873,-7.8313,4.0612,10.4257,47.0872,-0.6475,-0.2986,-0.7379,0.3422
17:09:12:894,-7.9929,4.2539,11.351,46.847,-0.6566,-0.6527,-0.6175,0.34
17:09:12:917,-7.4806,5.0153,9.9684,46.1993,-0.3815,-0.5593,-0.4466,0.3335
17:09:12:934,-6.6857,5.3493,8.2972,47.5669,-0.2728,-0.1009,-0.2202,0.3271
17:09:12:953,-6.8198,4.9997,7.9285,45.9921,-0.4664,0.2724,-0.0993,0.3236
17:09:12:975,-7.2507,4.1079,9.0107,46.6424,-0.7506,0.2373,-0.1014,0.3209
17:09:12:995,-7.7188,3.6554,10.3706,47.0731,-0.8707,0.0394,-0.1166,0.3163
17:09:13:014,-9.1685,2.7899,10.3766,47.3829,-0.7642,0.1044,-0.1382,0.309
17:09:13:034,-10.107,1.7376,9.535,47.8662,-0.6318,0.3398,0.0126,0.301
17:09:13:054,-10.1118,1.0888,8.8778,47.2042,-0.6672,0.6003,0.3063,0.2936
17:09:13:077,-9.8365,0.5202,7.883,48.2859,-0.741,0.7247,0.5409,0.2875
17:09:13:103,-8.7004,0.507,7.1528,47.2336,-0.8696,0.2969,0.9415,0.2814
17:09:13:115,-6.6761,0.677,6.3579,49.2966,-0.8731,0.0748,1.0709,0.2745
17:09:13:133,-4.4411,0.8577,5.508,48.8666,-0.8989,0.0312,1.1082,0.2745
17:09:13:153,-2.7915,1.2312,4.7837,49.2706,-1.0156,0.1401,1.0201,0.2599
17:09:13:172,-2.4037,0.9571,4.1852,49.4413,-1.2675,0.1739,0.9388,0.2526
17:09:13:192,-2.7018,0.7177,4.6688,49.383,-1.5431,0.1598,0.9442,0.2452
17:09:13:214,-2.6239,0.4986,6.1161,48.1437,-1.6441,0.1127,0.9532,0.2368
17:09:13:232,-2.8011,0.4519,7.7956,48.525,-1.5338,0.021,0.9109,0.2253
17:09:13:253,-3.4703,0.2029,9.3866,50.2374,-1.2347,-0.1015,0.946,0.2112
17:09:13:272,-3.7456,0.2759,10.7225,50.6888,-0.7697,-0.0629,1.0781,0.1962
17:09:13:291,-3.6295,0.5453,10.798,49.7961,-0.3636,0.3047,1.2419,0.1829
17:09:13:312,-3.2392,1.1522,10.3778,50.2503,-0.088,0.6405,1.407,0.1682
17:09:13:332,-2.1427,1.8465,9.8463,50.0396,0.0835,0.7926,1.3987,0.1637
17:09:13:353,-1.8841,2.3314,9.4393,50.3313,0.1632,0.8101,1.2536,0.1619
17:09:13:373,-2.2828,2.8413,9.219,51.4871,0.1871,0.7159,1.1236,0.1617
17:09:13:393,-2.5545,3.2424,9.1795,49.7815,0.1751,0.6053,1.0395,0.1623
17:09:13:413,-2.5629,3.793,9.1532,52.0365,0.1419,0.4842,0.9916,0.1633
17:09:13:432,-2.3618,4.3066,9.3578,51.9415,0.0345,0.3633,0.95,0.1646
17:09:13:452,-2.4911,4.3736,10.0546,53.505,-0.1327,0.2828,0.9178,0.1658
17:09:13:473,-2.4683,4.4263,11.1104,52.4223,-0.2755,0.1808,0.8552,0.1666
17:09:13:491,-2.4527,4.4035,12.0633,52.8098,-0.3458,-0.0421,0.7615,0.1663
17:09:13:512,-2.2576,4.5173,12.4559,52.7517,-0.4187,-0.2762,0.6911,0.1647
17:09:13:533,-1.6196,4.6669,13.2796,51.3799,-0.4254,-0.482,0.6395,0.1635
17:09:13:553,-0.5506,4.9243,14.9328,51.7029,-0.1511,-0.5508,0.558,0.1614
17:09:13:572,0.1258,5.1086,15.6235,53.6297,0.2676,-0.4503,0.4549,0.1591
17:09:13:594,0.4706,4.9458,15.918,53.4772,0.6947,-0.3702,0.3689,0.1572
17:09:13:614,0.862,4.8034,15.1518,54.135,0.9642,-0.236,0.2017,0.158
17:09:13:633,0.3844,4.3485,13.489,53.6976,0.6801,-0.1731,0.0307,0.1624
17:09:13:652,-0.687,2.8976,14.5868,53.9413,0.4098,-0.4898,-0.1097,0.1703
17:09:13:672,-1.5382,1.6047,16.3525,54.4956,0.6902,-0.7904,-0.2585,0.1801
17:09:13:693,-2.0098,1.0026,15.2177,53.9587,1.1653,-0.8554,-0.3536,0.1866
17:09:13:714,-2.351,1.0876,12.0573,54.4487,1.4295,-0.7747,-0.2993,0.1956
17:09:13:733,-1.9452,1.2372,8.9999,53.6633,1.4337,-0.689,-0.2007,0.2061
17:09:13:752,-1.203,1.3461,7.3084,53.2809,1.3656,-0.7441,-0.1992,0.2207
17:09:13:773,-0.6786,1.2468,7.0343,52.5952,1.4564,-0.9779,-0.3089,0.2361
17:09:13:796,-0.5984,0.8254,6.2179,52.9835,1.6913,-1.1161,-0.4713,0.2509
17:09:13:813,-0.1555,1.5556,4.846,55.4956,1.9722,-1.0133,-0.5757,0.2652
17:09:13:832,0.0336,2.3254,3.5818,54.5856,2.1118,-0.7795,-0.6314,0.2823
17:09:13:852,-0.7589,3.058,2.5739,52.1171,2.0572,-0.497,-0.666,0.3018
17:09:13:872,-1.6806,3.7356,2.1585,54.1159,1.8055,-0.1353,-0.5773,0.3216
17:09:13:891,-2.1044,4.2731,2.5859,52.5465,1.3935,0.2019,-0.3566,0.342
17:09:13:912,-2.2828,4.5987,3.6908,52.7641,0.9232,0.3529,-0.1408,0.3599
17:09:13:932,-2.363,4.8932,5.0459,53.0063,0.5184,0.2061,-0.0647,0.3733
17:09:13:951,-3.1698,5.2595,6.4214,52.6061,0.2617,-0.1412,-0.1499,0.3826
17:09:13:972,-4.4124,5.8628,7.2522,52.2826,0.164,-0.4147,-0.262,0.3881
17:09:13:992,-4.9104,6.2291,7.0247,52.5518,0.164,-0.477,-0.2079,0.3912
17:09:14:012,-3.7791,6.714,6.9026,51.2946,0.0785,-0.3872,0.0035,0.3933
17:09:14:032,-2.0421,7.5747,7.051,52.8633,-0.0467,-0.3582,0.1252,0.3956
17:09:14:051,-1.5597,8.7263,7.6628,54.0887,-0.1479,-0.3188,-0.0082,0.3978
17:09:14:072,-3.0645,8.9046,9.1795,51.7894,-0.2994,-0.1369,-0.2034,0.3987
17:09:14:091,-5.406,7.8775,10.0821,52.8488,-0.3442,0.1473,-0.266,0.3987
17:09:14:112,-6.8856,6.7355,9.559,51.5347,-0.2547,0.3931,-0.1019,0.3973
17:09:14:134,-5.9722,5.9933,9.0717,51.7815,-0.288,0.376,0.2312,0.3942
17:09:14:152,-4.5393,5.3816,9.7158,51.9044,-0.4829,0.0658,0.4491,0.3892
17:09:14:173,-4.094,4.3269,11.0853,51.5753,-0.6528,-0.2415,0.423,0.386
17:09:14:197,-4.4591,3.3369,12.0956,51.3581,-0.627,-0.2674,0.3039,0.3821
17:09:14:214,-4.9308,2.7491,11.8885,51.3632,-0.3375,-0.097,0.2088,0.3771
17:09:14:232,-4.6602,3.2376,10.2641,51.1636,0.1459,0.0977,0.1907,0.3724
17:09:14:253,-3.8833,3.8984,7.725,50.5102,0.6103,0.3089,0.2219,0.3698
17:09:14:272,-3.3302,4.5927,5.4278,50.1857,0.8529,0.5468,0.2523,0.371
17:09:14:292,-3.1279,5.1733,3.674,50.0411,0.8598,0.7156,0.2797,0.3758
17:09:14:314,-3.0393,5.4079,2.4769,48.4418,0.674,0.7806,0.3465,0.3822
17:09:14:333,-2.8598,5.3002,2.368,49.2621,0.3323,0.7289,0.456,0.3879
17:09:14:352,-2.6227,5.0787,3.0228,48.8963,-0.0283,0.6179,0.5423,0.3921
17:09:14:397,-2.6299,4.7363,3.8691,48.3821,-0.2749,0.5065,0.5987,0.3934
17:09:14:398,-2.855,4.479,4.7658,49.3007,-0.3924,0.4421,0.6547,0.3922
17:09:14:413,-2.4037,4.5053,4.9238,48.9216,-0.3727,0.4338,0.7663,0.3889
17:09:14:432,-1.8219,4.8177,4.4916,48.1714,-0.3165,0.5444,0.8693,0.3848
17:09:14:455,-1.3825,5.0476,4.3887,48.5748,-0.3719,0.6876,0.9098,0.3848
17:09:14:472,-0.9755,5.2272,4.937,47.3027,-0.6022,0.6613,0.783,0.3777
17:09:14:493,-0.7337,5.214,5.8073,47.8656,-0.6001,0.7044,0.6613,0.3756
17:09:14:512,-0.7433,5.1924,6.6668,47.0956,-0.4861,0.7625,0.5836,0.3611
17:09:14:534,-0.3327,5.1613,7.5407,47.3172,-0.2661,0.7923,0.538,0.3541
17:09:14:552,0.4957,5.2942,8.3116,47.657,-0.011,0.8136,0.4536,0.3541
17:09:14:571,1.5647,5.4151,9.1962,46.9013,0.2441,0.747,0.2869,0.3478
17:09:14:593,2.854,5.6808,9.6212,46.6514,0.5115,0.7156,-0.0948,0.3435
17:09:14:613,3.0036,6.4111,9.1328,47.0898,0.6276,0.7047,-0.5273,0.3409
17:09:14:632,2.4745,7.1605,7.9154,46.0676,0.4708,0.4985,-0.8162,0.3406
17:09:14:651,2.2447,7.9374,7.5299,46.5273,0.1304,0.2131,-1.057,0.342
17:09:14:671,1.7587,8.5683,8.3355,45.9908,-0.1407,-0.0232,-1.274,0.3441
17:09:14:691,0.4191,9.1058,9.7936,45.53,-0.2534,-0.0317,-1.368,0.3451
17:09:14:713,-1.4077,9.6373,10.8483,43.4377,-0.3002,0.1308,-1.298,0.3439
17:09:14:739,-3.0178,10.3124,10.9189,43.8886,-0.4323,0.3284,-1.1243,0.3409
17:09:14:759,-4.8158,9.8312,10.0893,42.3119,-0.7769,0.2812,-0.8532,0.3367
17:09:14:771,-6.6235,8.1577,9.9444,40.9609,-1.1197,-0.0514,-0.5771,0.3316
17:09:14:791,-7.3968,6.538,9.5075,41.0324,-1.2912,-0.6512,-0.347,0.3253
17:09:14:812,-7.453,5.3912,8.7413,41.4316,-1.3618,-1.3337,-0.0652,0.3162
17:09:14:832,-6.2799,4.4167,8.4457,41.3603,-1.2808,-1.8128,0.1556,0.3055
17:09:14:852,-4.8673,3.8445,7.877,39.4706,-1.1279,-1.9265,0.269,0.2959
17:09:14:871,-3.5134,3.5081,7.3982,39.7896,-0.9634,-1.7921,0.3132,0.2877
17:09:14:891,-2.2959,3.3465,7.227,40.474,-0.7215,-1.5468,0.2693,0.2778
17:09:14:912,-1.4951,3.076,6.9864,39.4568,-0.4494,-1.2781,0.2094,0.2762
17:09:14:933,-0.5805,3.0053,6.5315,38.8471,-0.2171,-1.0029,0.0911,0.2738
17:09:14:954,-0.2214,3.3872,5.8264,37.2276,-0.1175,-0.6781,-0.0436,0.2728
17:09:14:971,-0.5218,3.5811,5.2279,38.3958,-0.2022,-0.3574,-0.0841,0.2733
17:09:14:991,-1.0881,3.6865,5.3176,37.4657,-0.3913,-0.1718,-0.0428,0.2745
17:09:15:012,-1.0952,3.544,6.3172,36.1362,-0.5631,-0.1406,-0.0149,0.2747
17:09:15:033,-0.9671,3.2364,8.1596,36.1062,-0.5141,-0.265,-0.0841,0.2727
17:09:15:052,-1.7141,2.9275,9.7337,35.5193,-0.2843,-0.3633,-0.1219,0.2687
17:09:15:073,-2.5126,2.7372,10.7405,33.4048,0.0255,-0.2525,-0.0418,0.2641
17:09:15:092,-3.0393,2.7779,10.713,35.5142,0.3174,0.0389,0.1077,0.2612
17:09:15:113,-3.0286,3.1238,9.4369,33.7714,0.3757,0.3268,0.2357,0.2609
17:09:15:132,-2.576,3.6087,8.2673,32.6604,0.2098,0.4727,0.1902,0.2629
17:09:15:152,-2.6946,4.0732,7.7071,32.2015,-0.0544,0.3808,-0.0042,0.2659
17:09:15:170,-4.0676,5.2212,9.8211,32.4591,-0.272,0.1926,-0.1917,0.2676
17:09:15:191,-6.0776,5.1996,10.452,30.3428,-0.2749,0.3489,-0.3121,0.267
17:09:15:213,-8.473,4.7782,10.2305,30.6883,-0.2153,0.8362,-0.2561,0.2645
17:09:15:231,-9.3768,3.8217,10.4807,31.1341,-0.2861,1.0964,0.0874,0.2611
17:09:15:259,-9.3073,3.0089,10.5358,30.1405,-0.3828,0.9569,0.4757,0.2573
17:09:15:271,-8.4933,2.5277,10.2198,30.8757,-0.4824,0.6533,0.7921,0.2521
17:09:15:291,-7.4375,1.7639,11.1331,31.4542,-0.7444,0.4442,1.0613,0.246
17:09:15:313,-6.6187,0.5884,12.9851,29.5229,-0.9695,0.3558,1.1857,0.2404
17:09:15:334,-5.7651,-0.1215,14.3869,29.2046,-0.8773,0.3651,1.1801,0.2297
17:09:15:352,-4.8027,0.2711,13.7105,31.7321,-0.3676,0.5614,1.0805,0.2204
17:09:15:371,-4.1119,1.1833,11.2193,29.9135,0.2921,1.0365,0.999,0.2123
17:09:15:391,-3.9216,1.892,8.1691,30.6323,0.7722,1.5233,0.9332,0.2076
17:09:15:412,-3.6606,2.414,5.9593,30.804,0.8865,1.6967,0.8885,0.207
17:09:15:433,-3.1914,2.7132,4.6413,31.5955,0.7507,1.4533,0.8461,0.2089
17:09:15:451,-2.8454,2.8533,4.2438,31.1896,0.5051,1.0882,0.8075,0.2111
17:09:15:472,-2.7401,2.9455,4.3803,31.4602,0.2486,0.9132,0.8166,0.213
17:09:15:492,-2.8442,2.9096,4.3983,31.6241,0.0436,0.9819,0.8864,0.2139
17:09:15:519,-2.5006,2.9766,4.5886,29.7585,-0.1327,1.0996,1.0182,0.2123
17:09:15:536,-1.7728,3.216,4.3588,31.7248,-0.2568,1.1377,1.154,0.2087
17:09:15:554,-1.1228,3.4423,4.0978,30.9651,-0.3873,1.0903,1.2139,0.2039
17:09:15:578,-0.7253,3.6123,4.5,30.9651,-0.8552,0.7579,1.1591,0.1979
17:09:15:596,-0.1316,3.969,5.3212,30.719,-1.0534,0.6059,1.0576,0.1908
17:09:15:618,0.0312,4.3114,6.3112,30.7403,-1.1945,0.4738,0.9133,0.1824
17:09:15:636,-1.1024,4.3652,7.8579,31.7015,-1.2377,0.2381,0.8837,0.1732
17:09:15:652,-1.8997,4.5041,9.4967,30.24,-1.1402,-0.1009,0.9998,0.1625
17:09:15:672,-1.7776,4.807,10.6387,30.6757,-0.9825,-0.4232,1.1287,0.1517
17:09:15:697,-1.1204,5.5791,11.4779,30.2332,-0.8451,-0.6469,1.2296,0.1431
17:09:15:715,0.2036,6.3548,12.3817,29.6011,-0.7306,-0.7446,1.2139,0.1371
17:09:15:734,1.4163,6.5499,13.0701,29.8859,-0.6145,-0.6512,1.0099,0.1334
17:09:15:753,1.9143,6.7918,13.7835,30.3689,-0.4374,-0.4173,0.7266,0.1328
17:09:15:771,1.5611,6.8768,14.2109,30.8218,-0.2038,-0.1633,0.4709,0.1324
17:09:15:791,0.8165,6.6397,14.7209,31.5708,0.1669,-0.168,0.3074,0.1319
17:09:15:814,0.5616,6.3405,14.0804,30.6082,0.5688,-0.355,0.2749,0.1316
17:09:15:833,1.5911,6.3213,12.3566,31.8701,0.7339,-0.5984,0.2664,0.1342
17:09:15:852,3.2993,6.2243,10.695,31.4204,0.5807,-0.8456,0.1071,0.1342
17:09:15:872,4.3312,5.6425,9.7086,32.4003,0.0977,-0.9446,-0.1957,0.141
17:09:15:891,4.2977,4.5604,10.7154,34.1525,-0.472,-0.9116,-0.5598,0.15
17:09:15:912,2.8887,2.8808,14.2851,32.7805,-0.554,-0.8362,-0.8934,0.1596
17:09:15:932,0.795,1.2228,16.9618,35.0588,-0.0073,-0.58,-1.1134,0.1656
17:09:15:952,-0.4536,0.7739,16.3968,35.6476,0.7738,-0.168,-1.2514,0.1667
17:09:15:972,-1.3777,1.1845,12.8151,35.5124,1.2303,0.179,-1.2716,0.1665
17:09:15:991,-1.8997,1.3904,8.8204,37.7736,1.1608,0.1936,-1.2168,0.1691
17:09:16:017,-1.6351,1.339,6.5447,36.1896,0.9033,-0.2506,-1.2154,0.1757
17:09:16:032,-0.2908,1.3857,5.8372,37.5995,0.7171,-0.7952,-1.4141,0.1914
17:09:16:050,0.3521,1.2432,6.4525,37.6152,0.7712,-1.0879,-1.7797,0.1914
17:09:16:071,-0.9791,1.1498,7.0187,39.5683,1.0505,-1.0993,-1.9765,0.1993
17:09:16:090,-2.6048,1.643,6.6716,39.7797,1.3464,-0.8482,-1.9606,0.2076
17:09:16:117,-4.1467,2.7288,5.8312,40.928,1.4905,-0.5289,-1.7243,0.218
17:09:16:133,-4.9152,3.398,4.6748,41.3483,1.3917,-0.3747,-1.3209,0.2443
17:09:16:152,-4.7871,3.7643,4.1912,42.2126,1.1517,-0.4181,-0.9672,0.2505
17:09:16:171,-4.6925,4.0193,4.4713,42.3669,0.8979,-0.5209,-0.7222,0.2637
17:09:16:191,-4.726,4.1773,5.3344,43.3231,0.7531,-0.5721,-0.5147,0.2753
17:09:16:216,-4.7488,4.1557,5.903,44.325,0.7238,-0.5308,-0.311,0.2848
17:09:16:233,-4.3107,4.2814,5.6708,44.773,0.6801,-0.396,-0.1355,0.2933
17:09:16:252,-3.7995,4.7208,4.8328,44.7331,0.4718,-0.2642,-0.0047,0.3015
17:09:16:271,-3.1423,5.1194,4.1241,46.8413,0.0721,-0.1729,0.0381,0.3091
17:09:16:292,-2.6144,5.5575,4.4557,46.007,-0.3735,-0.2264,-0.0609,0.3152
17:09:16:315,-2.4922,5.7575,6.0036,47.4954,-0.7146,-0.2935,-0.2007,0.3185
17:09:16:332,-2.6742,5.6557,8.4145,48.1783,-0.806,-0.0626,-0.3978,0.3179
17:09:16:354,-4.3286,5.53,10.5849,49.4735,-0.6603,0.3944,-0.5014,0.3141
17:09:16:372,-6.6019,5.1553,11.6994,48.3733,-0.3937,0.7579,-0.3459,0.3077
17:09:16:409,-8.3545,4.8776,11.2445,50.7766,-0.2025,0.8887,0.0256,0.3001
17:09:16:411,-8.224,4.8141,9.6487,50.2482,-0.2885,0.7028,0.4547,0.2932
17:09:16:431,-6.8306,4.5723,8.1823,50.7766,-0.6622,0.3047,0.7593,0.2875
17:09:16:451,-5.394,4.0097,8.0925,51.2484,-1.1186,-0.0663,0.8994,0.283
17:09:16:472,-4.5692,2.9167,9.4464,52.7876,-1.3847,-0.3097,0.93,0.2778
17:09:16:491,-3.6223,2.1195,11.0817,54.1755,-1.3117,-0.3981,0.8887,0.2707
17:09:16:514,-2.2899,2.0201,11.527,53.4022,-1.0142,-0.2802,0.7567,0.261
17:09:16:532,-1.4077,2.5241,10.6735,53.381,-0.7346,0.0565,0.5894,0.2559
17:09:16:553,-1.3622,3.2771,8.4744,55.1062,-0.5674,0.4613,0.4949,0.2467
17:09:16:571,-1.3323,3.4494,7.6963,57.2673,-0.4675,0.7353,0.4435,0.2367
17:09:16:591,-1.2437,3.6099,7.0654,55.9591,-0.3951,0.7435,0.3939,0.2303
17:09:16:619,-0.8786,3.702,7.2366,56.6633,-0.3868,0.5617,0.3527,0.2238
17:09:16:633,-0.5386,4.218,7.5047,57.7843,-0.3548,0.4136,0.317,0.217
17:09:16:653,-1.027,4.7327,7.4257,55.9817,-0.2576,0.4786,0.285,0.2111
17:09:16:670,-1.2209,5.4438,7.4772,57.6143,-0.2108,0.661,0.3697,0.206
17:09:16:691,-0.8654,6.0663,7.8088,58.4054,-0.2012,0.7337,0.5343,0.2019
17:09:16:714,-0.0585,6.3273,8.6288,58.3133,-0.2099,0.6077,0.6653,0.1976
17:09:16:733,-0.1387,6.3141,9.7445,59.3406,-0.2052,0.3284,0.6366,0.193
17:09:16:750,-1.0665,5.9789,11.4612,58.943,-0.1578,0.0815,0.5409,0.1888
17:09:16:771,-1.343,5.5228,12.9132,61.011,0.0572,-0.0631,0.5612,0.1854
17:09:16:791,-0.6978,5.4151,12.5517,61.9427,0.5158,-0.1835,0.6272,0.1833
17:09:16:812,0.4059,5.7251,10.6567,63.7642,0.9925,-0.2847,0.6336,0.1831
17:09:16:832,0.5173,6.0663,9.1891,63.4523,1.168,-0.2972,0.5375,0.1865
17:09:16:851,0.6585,5.9933,9.0741,64.4695,1.0255,-0.2274,0.4557,0.1948
17:09:16:870,0.4993,5.5779,9.8522,65.3198,0.8018,-0.233,0.3582,0.2063
17:09:16:890,-0.1364,4.9398,11.0829,64.9793,0.6622,-0.3377,0.1937,0.2169
17:09:16:910,-0.1507,4.6525,11.6395,65.7649,0.7283,-0.5348,0.0411,0.226
17:09:16:932,0.4023,4.8501,11.2241,69.6797,0.9805,-0.7236,-0.1187,0.2335
17:09:16:952,1.208,5.5192,9.304,69.9781,1.3091,-0.7928,-0.2846,0.2408
17:09:16:970,1.548,6.0125,7.7873,69.0985,1.4085,-0.645,-0.4226,0.257
17:09:16:990,2.2052,6.2555,7.1947,69.4831,1.2061,-0.4892,-0.5043,0.2715
17:09:17:013,1.9059,6.2962,6.328,70.7397,0.8681,-0.282,-0.6311,0.2851
17:09:17:032,0.3856,5.5073,6.8727,71.5806,0.2681,-0.0605,-0.8149,0.2969
17:09:17:052,-0.8917,4.2144,9.7685,72.6256,-0.4845,-0.2083,-0.9315,0.3047
17:09:17:071,-1.5274,2.9718,12.7947,73.5307,-0.8712,-0.6765,-1.0093,0.3065
17:09:17:092,-1.3921,2.6654,13.8901,74.7105,-0.6938,-1.0418,-1.0602,0.3024
17:09:17:118,-0.96,2.888,12.4284,72.3448,-0.1239,-1.0107,-1.086,0.2971
17:09:17:132,-0.6451,3.0963,9.5147,73.7915,0.5,-0.6634,-1.1041,0.2948
17:09:17:151,-0.717,3.3238,7.002,74.934,0.8993,-0.3073,-1.1449,0.2971
17:09:17:171,-1.27,3.3788,5.0842,74.1426,1.067,-0.1353,-1.2008,0.3032
17:09:17:191,-1.6148,3.5967,3.862,74.656,1.0465,-0.1689,-1.2056,0.3112
17:09:17:210,-1.6411,3.9463,3.5232,73.5411,0.891,-0.327,-1.1414,0.3195
17:09:17:231,-1.4891,4.449,3.8284,76.1221,0.4803,-0.4772,-0.9113,0.328
17:09:17:250,-1.5346,4.7004,4.1098,76.9553,0.2473,-0.4394,-0.7864,0.3358
17:09:17:271,-1.8183,4.6932,5.1189,77.35,0.0548,-0.3867,-0.642,0.3358
17:09:17:290,-2.108,4.6166,6.7254,78.0502,0.063,-0.3521,-0.5052,0.3467
17:09:17:309,-2.1391,4.8429,7.6161,76.8989,0.189,-0.3292,-0.396,0.3505
17:09:17:332,-2.3019,5.0236,7.9812,77.9403,0.2905,-0.3209,-0.2918,0.3505
17:09:17:350,-2.2085,5.4115,8.5558,77.7406,0.3978,-0.2338,-0.2191,0.3517
17:09:17:370,-2.0757,6.1118,8.32,79.2476,0.4119,-0.0072,-0.1962,0.3572
17:09:17:391,-2.5473,6.4662,7.3192,79.7596,0.1328,0.1909,-0.1712,0.3589
17:09:17:410,-3.3338,6.4997,7.5694,79.7381,-0.223,0.0706,-0.1155,0.3644
17:09:17:429,-3.4451,6.6182,8.8383,80.5843,-0.3889,-0.2977,-0.1067,0.3651
17:09:17:458,-3.1962,6.9965,10.0342,79.523,-0.3969,-0.4735,-0.0934,0.3639
17:09:17:470,-2.9136,7.3089,10.804,80.9704,-0.3231,-0.335,-0.0822,0.3613
17:09:17:490,-3.3434,6.9139,11.0948,79.6096,-0.2249,-0.0048,-0.0508,0.3589
17:09:17:511,-4.319,6.1214,10.8267,80.3313,-0.1468,0.2128,0.0547,0.3569
17:09:17:530,-5.1031,5.3959,10.282,79.5267,-0.1301,0.0248,0.2355,0.355
17:09:17:550,-4.0952,5.0476,9.6224,80.8022,-0.206,-0.3028,0.2991,0.353
17:09:17:571,-2.7065,5.05,9.2429,81.3376,-0.4049,-0.4551,0.1668,0.3516
17:09:17:589,-2.2516,4.4251,9.8056,81.7789,-0.5658,-0.5103,-0.0431,0.351
17:09:17:610,-2.3067,3.6853,11.3067,81.0631,-0.3876,-0.4669,-0.2593,0.3497
17:09:17:631,-2.8262,3.2855,11.9161,79.7678,0.1549,-0.289,-0.3797,0.3467
17:09:17:651,-3.2141,3.5309,10.3862,80.8764,0.7054,0.0061,-0.2958,0.3436
17:09:17:672,-2.6658,4.0157,7.33,80.509,0.9147,0.2232,-0.1227,0.3428
17:09:17:690,-1.5836,4.6322,4.7011,80.8304,0.7592,0.2312,-0.0085,0.3448
17:09:17:713,-0.5134,5.1206,3.3077,81.3304,0.3999,0.0445,-0.0263,0.3508
17:09:17:729,-0.4476,5.111,3.2371,81.8219,0.0284,-0.2,-0.0727,0.3578
17:09:17:752,-0.9456,4.8477,4.1864,80.2946,-0.1745,-0.3585,-0.0492,0.3639
17:09:17:770,-1.3538,4.5975,4.858,81.7029,-0.2483,-0.3992,0.0238,0.3672
17:09:17:789,-1.4699,4.6621,5.2698,80.2402,-0.2518,-0.3686,0.1191,0.368
17:09:17:809,-1.3203,4.7256,5.5271,81.5573,-0.2025,-0.3337,0.1862,0.3675
17:09:17:830,-0.9265,4.8788,5.4302,80.7859,-0.1905,-0.298,0.203,0.3665
17:09:17:850,-0.5589,5.2152,5.4086,81.5529,-0.2355,-0.2362,0.1529,0.365
17:09:17:870,-0.6655,5.4857,5.7869,80.3914,-0.2917,-0.1918,0.0994,0.3643
17:09:17:891,-0.5542,5.7108,6.6069,81.3079,-0.3,-0.1912,-0.0021,0.3633
17:09:17:916,-0.7804,6.0053,7.7753,81.3079,-0.182,-0.2085,-0.1257,0.3617
17:09:17:930,-2.8071,6.2483,9.0095,81.5699,0.1046,-0.1417,-0.1222,0.3596
17:09:17:951,-2.7233,6.6661,7.8316,82.5739,0.3584,0.0469,0.0413,0.3578
17:09:17:970,-1.9895,6.866,7.573,81.0988,0.2953,0.1963,0.2594,0.3578
17:09:17:991,-1.2341,6.8612,9.201,81.9582,0.013,0.0698,0.3455,0.3601
17:09:18:011,-0.6715,7.3783,11.6491,81.4148,-0.1434,-0.2599,0.269,0.363
17:09:18:031,-0.7601,7.8452,12.6475,82.6031,0.0721,-0.4906,0.0983,0.3642
17:09:18:052,-0.62,7.9063,12.3351,81.2213,0.499,-0.5012,0.0232,0.3637
17:09:18:071,0.3628,7.4023,10.5322,82.9594,0.9251,-0.3521,0.0845,0.3643
17:09:18:091,0.947,7.267,8.472,82.6223,1.108,-0.074,0.1372,0.3682
17:09:18:110,1.6641,7.012,6.5914,82.068,0.903,0.1321,0.1724,0.3759
17:09:18:130,1.9706,6.2076,6.3699,82.2929,0.283,0.1614,0.0991,0.3854
17:09:18:150,1.609,5.0093,9.0789,82.3252,-0.5615,-0.1952,-0.1256,0.3946
17:09:18:170,0.8776,4.0911,11.7545,80.1898,-1.0089,-0.7143,-0.4026,0.3998
17:09:18:189,-0.1531,3.7727,13.0856,80.7931,-0.9357,-0.8517,-0.6423,0.3985
17:09:18:213,-0.5123,4.0863,12.6236,80.5427,-0.529,-0.6043,-0.7073,0.3923
17:09:18:231,-0.1028,4.3042,10.1743,79.6051,0.042,-0.2783,-0.6823,0.3854
17:09:18:249,-0.0921,4.4897,7.9644,80.3035,0.4484,-0.0759,-0.7169,0.3807
17:09:18:270,-0.6296,4.5508,6.3029,78.5813,0.6668,-0.0021,-0.7992,0.3795
17:09:18:289,-1.1264,4.5999,4.8999,78.6581,0.7941,-0.0008,-0.8394,0.3844
17:09:18:311,-1.2437,4.7627,3.8883,79.8337,0.8005,-0.041,-0.7946,0.3897
17:09:18:330,-1.4041,4.8273,3.2299,77.7256,0.6966,-0.098,-0.7121,0.3964
17:09:18:349,-1.8626,4.7567,3.0527,79.5034,0.4902,-0.1558,-0.6159,0.4033
17:09:18:371,-1.8446,4.7339,3.7171,77.9762,0.2066,-0.2085,-0.4514,0.409
17:09:18:390,-1.5214,4.8094,4.8328,77.4014,-0.0456,-0.2184,-0.2969,0.4134
17:09:18:434,-1.1216,5.3062,5.6995,78.7635,-0.1692,-0.1958,-0.2178,0.4153
17:09:18:435,-1.112,5.8915,6.6488,78.7635,-0.1697,-0.0674,-0.1693,0.4141
17:09:18:451,-1.4915,6.465,8.0327,78.4833,-0.0195,0.1185,-0.1406,0.4125
17:09:18:471,-2.1583,7.006,8.6456,79.1072,0.1658,0.3987,-0.087,0.4111
17:09:18:489,-3.0764,7.5495,8.3679,78.7108,0.1733,0.6019,0.0275,0.4106
17:09:18:510,-3.7313,7.5364,8.5235,78.5283,0.0175,0.579,0.1708,0.4113
17:09:18:537,-3.4499,7.4574,9.4991,77.6191,-0.0145,0.2557,0.2118,0.4116
17:09:18:553,-2.6299,8.1205,9.8834,77.154,0.0798,-0.02,0.1865,0.4107
17:09:18:571,-1.9009,8.755,9.2489,77.8802,0.0244,0.0471,0.1974,0.4102
17:09:18:591,-1.4771,8.6437,9.5997,76.816,-0.0211,0.236,0.1569,0.4102
17:09:18:612,-2.1104,7.6321,9.5506,76.2853,-0.0201,0.4083,0.1087,0.4113
17:09:18:632,-3.0154,6.6002,8.8671,76.9519,-0.1532,0.4131,0.1031,0.4113
17:09:18:651,-3.8402,5.6413,8.8599,77.3517,-0.3258,0.1787,0.0986,0.4098
17:09:18:670,-4.1957,4.7579,9.4656,75.9782,-0.4089,-0.1438,0.0792,0.4077
17:09:18:690,-4.416,3.8732,9.699,75.8335,-0.4262,-0.2597,0.0637,0.4077
17:09:18:713,-4.1239,3.3238,9.2789,75.2494,-0.4486,-0.1686,0.0472,0.403
17:09:18:730,-3.8043,3.1059,8.9808,75.8711,-0.3833,-0.0059,-0.0103,0.4014
17:09:18:751,-4.0114,3.2424,8.4505,73.3025,-0.1788,0.0921,0.0062,0.3948
17:09:18:770,-3.4152,3.8864,7.2103,74.7381,0.0031,0.1824,0.0536,0.393
17:09:18:789,-2.6048,4.8429,5.988,73.5337,0.0761,0.3289,0.0547,0.3914
17:09:18:809,-2.3701,5.7359,5.004,73.4556,0.0588,0.4037,0.0613,0.3896
17:09:18:832,-2.4049,5.9646,4.1577,73.6038,-0.088,0.3398,0.1154,0.3893
17:09:18:850,-2.3881,5.7874,3.9338,72.2823,-0.2883,0.1507,0.2102,0.3893
17:09:18:870,-2.1116,5.4115,4.6868,73.4176,-0.394,-0.0397,0.3207,0.3889
17:09:18:889,-1.4795,5.0488,5.3954,72.334,-0.3804,-0.1174,0.3878,0.3875
17:09:18:911,-0.8091,4.7878,5.6133,71.6317,-0.345,-0.1273,0.4041,0.3848
17:09:18:930,-0.4979,4.6956,5.8264,70.8121,-0.2938,-0.0956,0.3798,0.3817
17:09:18:951,-0.195,4.7699,5.9425,70.6808,-0.2366,-0.0661,0.3457,0.3788
17:09:18:971,0.042,4.9901,5.8408,69.5255,-0.2177,-0.0045,0.2605,0.3764
17:09:18:990,-0.2429,5.2535,5.9545,70.8101,-0.2432,0.0495,0.1854,0.3743
17:09:19:010,-0.4608,5.4402,6.3819,71.1136,-0.2494,0.0767,0.1098,0.3726
17:09:19:041,-0.5254,5.6892,7.0905,70.0734,-0.1815,0.0951,-0.0069,0.3707
17:09:19:049,-1.0366,5.7994,7.4772,70.7357,-0.072,0.1398,-0.1025,0.3687
17:09:19:071,-1.7201,5.7898,6.9002,69.6983,-0.0968,0.2125,-0.1446,0.3663
17:09:19:089,-2.3546,5.712,6.2298,71.8116,-0.374,0.2088,-0.1022,0.3644
17:09:19:109,-2.4228,5.3576,7.0355,69.1449,-0.7008,0.0868,-0.082,0.3635
17:09:19:129,-2.5461,5.2666,8.8934,68.3239,-0.8694,-0.0756,-0.1419,0.3604
17:09:19:150,-3.7767,5.9789,11.6742,68.079,-0.6723,-0.1798,-0.1257,0.355
17:09:19:170,-5.3701,6.113,13.4088,68.0901,-0.1815,-0.0895,0.1657,0.348
17:09:19:188,-4.8697,6.6014,13.0282,68.3801,0.352,0.057,0.5215,0.3409
17:09:19:209,-2.8586,7.1748,10.4424,69.0963,0.4534,0.0991,0.7042,0.3372
17:09:19:230,-0.8738,7.7626,8.9736,66.756,0.1664,-0.0011,0.6648,0.3383
17:09:19:252,0.4311,7.7734,9.0634,66.8004,-0.1514,-0.1103,0.5489,0.3427
17:09:19:269,1.8377,7.4945,9.1519,65.2968,-0.4683,-0.0301,0.3159,0.3459
17:09:19:289,2.769,6.8468,8.9616,65.0633,-0.908,0.1867,-0.0556,0.3464
17:09:19:310,0.5687,3.7894,11.8993,65.5124,-1.3186,0.29,-0.4769,0.3442
17:09:19:330,-0.9073,2.8653,13.2604,65.4373,-1.3863,0.3321,-0.7699,0.338
17:09:19:352,-1.3179,2.906,11.8502,64.0167,-0.9708,0.3518,-0.8822,0.327
17:09:19:370,-1.5166,2.6929,9.8894,62.1752,-0.4893,0.3497,-0.8807,0.3137
17:09:19:389,-1.4843,2.5732,8.326,61.6363,-0.1255,0.2466,-0.8151,0.3012
17:09:19:410,-0.1914,2.7156,6.5507,61.2016,0.1815,0.0043,-0.6727,0.2933
17:09:19:433,1.3085,2.882,5.5319,60.1415,0.3059,-0.2394,-0.5928,0.2896
17:09:19:449,1.9442,3.0676,5.9138,60.9435,0.2729,-0.4016,-0.6711,0.2891
17:09:19:471,0.953,3.1562,6.7578,60.1665,0.3064,-0.3699,-0.8751,0.2916
17:09:19:488,-0.3159,3.5572,6.4537,61.0954,0.5262,-0.1694,-0.992,0.2946
