Time,Acc_X,Acc_Y,Acc_Z,Meg,Gyr_X,Gyr_Y,Gyr_Z,Ore
20:39:03:423,-2.5392,1.5379,9.0789,57.6407,-0.13,-0.0825,-0.2482,189.7475
20:39:03:444,-3.3824,1.5283,9.0693,55.1765,-0.2206,0.0698,0.1448,189.1939
20:39:03:464,-3.186,1.6577,9.3424,56.1937,-0.1247,0.0379,0.3132,188.1416
20:39:03:485,-2.8842,1.7104,9.4813,55.153,0.0266,-0.0761,0.3888,186.9353
20:39:03:511,-2.6829,1.605,9.2945,56.0448,0.1161,-0.1496,0.4112,185.8788
20:39:03:529,-2.659,1.4756,9.0837,56.7543,0.066,-0.1155,0.4431,185.0642
20:39:03:545,-2.5488,1.3223,9.3519,55.5367,-0.0725,-0.0282,0.5166,184.3837
20:39:03:566,-2.2517,1.2121,9.9029,55.982,-0.1417,0.0773,0.5923,183.696
20:39:03:585,-1.9835,1.1163,10.3676,56.9997,-0.0799,0.1156,0.6381,182.9838
20:39:03:616,-1.7679,1.0348,10.6934,56.4698,0.0958,0.0709,0.669,182.3555
20:39:03:628,-1.5523,0.9869,10.5162,57.1993,0.3078,0.0219,0.6839,181.8362
20:39:03:645,-1.3031,1.0301,9.946,56.8103,0.3856,-0.0239,0.669,181.3932
20:39:03:668,-0.9534,1.1402,9.6634,55.983,0.2982,-0.0143,0.6242,180.9671
20:39:03:698,-0.7139,1.1977,9.6442,56.2134,0.1587,0.0687,0.5528,180.552
20:39:03:707,-0.7091,1.2121,9.4909,57.3933,0.0447,0.1881,0.4772,180.2166
20:39:03:729,-0.848,1.26,9.2418,56.7493,-0.0384,0.2722,0.4314,179.9786
20:39:03:747,-0.939,1.3127,9.1028,57.5089,-0.0618,0.2584,0.4112,179.7782
20:39:03:768,-1.0013,1.3463,8.9447,55.482,-0.0309,0.1817,0.392,179.5618
20:39:03:793,-0.9534,1.4325,8.9064,57.3542,0.0031,0.0975,0.3771,179.2853
20:39:03:809,-0.872,1.5619,8.8585,54.5148,0.0202,0.0773,0.3494,179.0128
20:39:03:829,-0.8432,1.6529,8.777,57.1343,0.0042,0.0528,0.2972,178.7729
20:39:03:848,-0.7713,1.7056,8.9783,57.5199,-0.0267,0.0016,0.2343,178.5284
20:39:03:868,-0.7186,1.72,9.2418,55.2679,-0.0363,-0.0058,0.1534,178.3425
20:39:03:893,-0.7761,1.72,9.4621,56.3335,-0.0192,0.0251,0.0724,178.2751
20:39:03:909,-0.8911,1.7008,9.4286,56.4038,0.0244,0.0794,0.0085,178.3159
20:39:03:930,-0.9917,1.7152,9.3328,56.2117,0.0585,0.0741,-0.0405,178.4138
20:39:03:948,-1.054,1.7583,9.2418,58.5221,0.0873,0.057,-0.0853,178.5684
20:39:03:968,-1.0636,1.787,9.1459,57.0124,0.1097,0.0006,-0.1375,178.738
20:39:03:992,-0.9965,1.8158,8.9878,56.7341,0.0852,-0.0303,-0.2046,178.9495
20:39:04:010,-0.9534,1.8062,9.0262,57.7704,-0.0011,-0.0293,-0.2845,179.231
20:39:04:029,-0.963,1.6912,9.2465,55.6373,-0.0949,0.0251,-0.3644,179.6064
20:39:04:054,-1.169,1.4756,9.4094,56.8295,-0.1449,0.0794,-0.4166,180.0601
20:39:04:074,-1.4469,1.3463,9.6586,55.7117,-0.13,0.089,-0.4048,180.5957
20:39:04:093,-1.5666,1.351,9.7352,56.3457,-0.0267,0.0687,-0.3484,181.176
20:39:04:109,-1.5762,1.4517,9.4094,56.2816,0.0766,-0.0229,-0.3026,181.6667
20:39:04:129,-1.4325,1.5954,9.1699,57.6928,0.0766,-0.0878,-0.2813,182.1192
20:39:04:152,-1.284,1.6912,9.2226,55.1365,0.0095,-0.0623,-0.2887,182.5174
20:39:04:177,-1.3175,1.7247,9.4142,56.5826,-0.032,-0.0229,-0.309,182.9131
20:39:04:192,-1.4373,1.696,9.4526,56.5744,-0.0235,-0.0069,-0.3175,183.3487
20:39:04:213,-1.5619,1.7247,9.4526,55.667,0.0127,-0.0623,-0.3026,183.7608
20:39:04:231,-1.5571,1.7679,9.3759,55.5974,0.0532,-0.1177,-0.2834,184.2019
20:39:04:250,-1.6002,1.8206,9.3759,56.1322,0.0639,-0.1571,-0.2706,184.5895
20:39:04:270,-1.5762,1.8541,9.4334,56.0698,0.0628,-0.1454,-0.2504,184.9649
20:39:04:294,-1.5619,1.8541,9.4526,56.2848,0.0564,-0.1326,-0.2397,185.3105
20:39:04:311,-1.581,1.8733,9.3807,56.975,0.0543,-0.1102,-0.2312,185.6778
20:39:04:329,-1.5906,1.9355,9.3519,57.2452,0.0543,-0.107,-0.2184,185.9925
20:39:04:351,-1.5619,1.9547,9.3472,57.684,0.066,-0.1155,-0.2227,186.2888
20:39:04:375,-1.7104,1.9403,9.3328,55.4935,0.0724,-0.1358,-0.2333,186.5542
20:39:04:390,-1.7487,1.8349,9.3328,57.6553,0.0649,-0.1134,-0.2216,186.8342
20:39:04:410,-1.8062,1.7391,9.2034,56.103,0.0415,-0.0356,-0.2003,187.1069
20:39:04:430,-1.9691,1.7391,9.1364,55.6185,0.001,0.0272,-0.1577,187.3491
20:39:04:452,-2.0122,1.7583,9.1603,55.4168,-0.0235,0.0496,-0.1098,187.5271
20:39:04:477,-2.0122,1.7535,9.1986,55.3647,-0.016,0.0208,-0.0757,187.5955
20:39:04:497,-2.0218,1.7391,9.1459,57.7972,0.0213,-0.0293,-0.0458,187.6188
20:39:04:511,-2.0457,1.72,8.9878,55.1805,0.0394,-0.1123,-0.0267,187.6102
20:39:04:531,-2.0409,1.6625,9.007,54.4754,-0.0001,-0.1773,-0.0054,187.5995
20:39:04:551,-2.0266,1.5523,9.2801,56.2031,-0.0533,-0.1667,0.033,187.5497
20:39:04:574,-1.9595,1.4517,9.6011,55.1311,-0.0725,-0.074,0.0777,187.4835
20:39:04:591,-2.0553,1.399,9.7113,54.9762,-0.0416,0.0016,0.1257,187.3761
20:39:04:613,-2.1176,1.4085,9.7065,56.4642,0.0255,0.0112,0.1917,187.2453
20:39:04:632,-1.9882,1.3942,9.5436,55.4558,0.0713,-0.0175,0.2418,187.0217
20:39:04:660,-1.8637,1.4277,9.4382,55.4461,0.0585,-0.0452,0.2705,186.7132
20:39:04:677,-1.7727,1.4277,9.4238,54.1713,0.0244,-0.0207,0.2982,186.3675
20:39:04:693,-1.6768,1.4421,9.3711,56.1249,-0.0022,0.0304,0.3334,186.0199
20:39:04:713,-1.5427,1.4612,9.2322,55.0693,0.0042,0.0464,0.3675,185.652
20:39:04:733,-1.399,1.5139,9.0214,55.4696,0.0181,-0.0101,0.3728,185.2471
20:39:04:762,-1.1882,1.5571,8.9208,56.71,0.0287,-0.0846,0.3579,184.815
20:39:04:779,-1.1211,1.5379,8.8393,55.6001,0.0106,-0.1134,0.3281,184.3763
20:39:04:794,-1.054,1.5475,8.7962,55.9449,-0.0373,-0.0559,0.3185,184.0355
20:39:04:813,-0.9965,1.5666,8.6237,56.4453,-0.1194,-0.0005,0.311,183.7466
20:39:04:838,-0.9821,1.6912,8.777,56.1101,-0.2206,-0.0708,0.3078,183.4407
20:39:04:854,-0.8001,1.811,9.2178,55.7407,-0.2291,-0.1731,0.3078,183.1614
20:39:04:879,-0.5366,1.902,9.6634,55.644,-0.1396,-0.286,0.2812,182.9143
20:39:04:896,-0.2635,1.9308,9.8071,55.2378,-0.016,-0.3382,0.212,182.686
20:39:04:914,-0.0144,1.9164,9.8023,57.6474,0.1075,-0.2785,0.0831,182.4918
20:39:04:937,0.0383,1.9212,9.6969,56.0931,0.2375,-0.1411,-0.0629,182.4144
20:39:04:958,-0.1773,2.0074,9.3136,55.0338,0.3696,-0.0708,-0.1343,182.4657
20:39:04:977,-0.3497,2.1751,8.6668,56.5309,0.4612,-0.1518,-0.13,182.6233
20:39:04:994,-0.3881,2.1943,8.0105,57.7575,0.4751,-0.3041,-0.1428,182.8849
20:39:05:021,-0.5749,1.9499,7.4691,56.99,0.4026,-0.3467,-0.2024,183.1093
20:39:05:037,-0.939,1.8158,7.0762,57.3808,0.2119,-0.172,-0.2333,183.3867
20:39:05:058,-1.2073,1.9308,7.0475,56.7983,-0.081,0.0528,-0.196,183.7036
20:39:05:076,-1.0492,2.1224,7.8811,55.9621,-0.3665,0.0517,-0.1428,183.9857
20:39:05:096,-0.5031,2.1416,9.4046,55.7329,-0.4357,0.0357,-0.1609,184.1727
20:39:05:118,-0.5031,2.6015,10.3245,57.3082,-0.2131,0.2403,-0.244,184.2952
20:39:05:135,-0.9486,3.0806,10.5305,58.0505,0.1288,0.3692,-0.3537,184.4802
20:39:05:159,-1.5666,3.2674,10.2718,55.5591,0.4069,0.1508,-0.3974,184.7423
20:39:05:178,-1.5283,3.0854,9.7975,55.0135,0.4889,-0.3808,-0.3718,185.0768
20:39:05:200,-0.7618,3.0279,9.879,56.4541,0.4303,-0.7291,-0.4464,185.4527
20:39:05:214,-0.757,3.3824,10.061,55.9343,0.3685,-0.433,-0.5423,185.9338
20:39:05:237,-1.2983,3.6555,9.3759,55.9473,0.2993,0.1625,-0.4592,186.5979
20:39:05:291,-1.6625,3.6076,8.0536,56.5399,0.132,0.4863,-0.2291,187.3314
20:39:05:295,-1.4804,3.2914,7.3493,56.7642,-0.0661,0.6781,-0.0149,187.7755
20:39:05:298,-1.2983,2.9512,7.3685,57.6831,-0.1449,0.8592,0.1736,187.8359
20:39:05:318,-1.0684,2.8171,7.3685,57.5872,-0.1279,0.7803,0.3334,187.6381
20:39:05:338,-0.9247,2.8267,7.1529,55.7743,-0.0991,0.7697,0.4527,187.1939
20:39:05:366,-0.757,2.9896,6.4822,57.2728,-0.1652,0.7931,0.5188,186.5963
20:39:05:379,-0.6324,3.2243,6.0606,57.1722,-0.3463,0.6387,0.4868,185.8943
20:39:05:398,-0.2875,3.2147,6.1899,57.6532,-0.5306,0.6099,0.3707,185.0805
20:39:05:418,-0.2252,2.7261,6.2426,57.4447,-0.7138,0.7665,0.2524,184.3503
20:39:05:436,-0.5222,2.1799,6.027,56.5586,-0.8501,0.9199,0.2865,183.7951
20:39:05:461,-0.7474,1.8685,5.9983,56.2134,-0.8139,0.84,0.4772,183.3662
20:39:05:481,-0.1485,1.9787,6.257,56.5586,-0.5913,0.4309,0.6072,182.8246
20:39:05:502,0.4647,2.3859,6.7025,56.4327,-0.3654,0.0048,0.409,182.079
20:39:05:520,0.9774,2.6781,6.5301,56.8516,-0.3793,-0.1571,0.0319,181.3221
20:39:05:541,0.9342,2.2949,6.6786,54.7882,-0.5689,-0.2615,-0.2248,180.9495
20:39:05:566,0.7139,1.4038,7.0619,56.3739,-0.684,-0.5203,-0.3015,181.0347
20:39:05:584,0.2443,0.9294,8.2069,56.0902,-0.6499,-0.9965,-0.3271,181.4674
20:39:05:608,0.2539,1.0109,8.9208,56.0805,-0.5987,-1.3864,-0.3771,182.0464
20:39:05:618,0.8097,1.2888,10.1425,55.4381,-0.7596,-1.7092,-0.571,182.6698
20:39:05:642,0.5366,0.7857,11.7714,56.0927,-0.962,-1.7284,-0.8,183.3612
20:39:05:664,-0.5126,-0.1437,13.2997,56.9683,-0.88,-1.5718,-0.7404,184.326
20:39:05:680,-0.5222,-0.6803,13.362,55.4155,-0.3931,-1.6197,-0.4038,185.502
20:39:05:701,0.6037,-0.642,11.5414,55.513,-0.2238,-1.8413,-0.2418,186.4669
20:39:05:723,1.1882,-0.3354,10.9665,57.9174,-0.7756,-1.9031,-0.2823,186.9589
20:39:05:744,1.8206,-0.9917,12.5954,56.0044,-1.2667,-1.8679,-0.3835,187.2959
20:39:05:763,2.0409,-1.6529,14.531,56.1269,-1.1441,-1.8381,-0.424,187.6582
20:39:05:780,1.9499,-2.338,14.1764,55.9432,-0.6488,-1.7443,-0.2653,188.0908
20:39:05:801,2.3667,-2.9416,12.5858,56.1338,-0.2674,-1.7486,-0.0394,188.4926
20:39:05:827,2.9896,-3.4255,10.794,56.3785,-0.1748,-1.8455,0.114,188.609
20:39:05:848,3.4399,-3.5549,9.2849,56.0712,-0.4219,-2.0245,0.1587,188.4578
20:39:05:862,3.7082,-3.507,8.6956,54.6546,-0.8576,-2.1885,0.1193,188.1314
20:39:05:881,3.9573,-3.4926,8.8824,54.4665,-1.2784,-2.3079,0.0064,187.7558
20:39:05:904,4.0004,-3.6268,9.4382,55.5793,-1.5543,-2.3664,-0.1225,187.3238
20:39:05:922,3.9286,-3.8855,9.7017,54.6505,-1.7013,-2.3217,-0.2067,186.9139
20:39:05:941,3.5741,-4.0148,9.6394,53.8686,-1.8163,-2.1342,-0.1992,186.5424
20:39:05:966,2.8937,-3.8903,9.3807,55.2732,-1.925,-1.7944,-0.0682,186.1914
20:39:05:979,2.4721,-3.5788,9.0741,52.4464,-1.9623,-1.4343,0.1385,185.7193
20:39:06:003,2.7692,-3.0758,8.9591,53.228,-1.8834,-1.0636,0.295,184.9823
20:39:06:022,3.0375,-2.5488,8.5902,53.2903,-1.7673,-0.5843,0.3387,184.0226
20:39:06:047,3.277,-2.0984,8.0153,52.7071,-1.7109,-0.0793,0.2918,182.9744
20:39:06:062,3.3633,-1.9068,7.3637,53.3097,-1.7098,0.3031,0.1566,182.1399
20:39:06:080,3.2483,-1.9595,6.9996,52.0304,-1.7247,0.4405,-0.0171,181.6976
20:39:06:100,3.1429,-2.2517,7.22,53.3571,-1.6938,0.3915,-0.163,181.6642
20:39:06:119,2.9943,-2.5584,7.5362,51.9364,-1.6374,0.269,-0.2493,181.9515
20:39:06:142,3.1477,-2.7165,8.1973,52.0605,-1.6203,0.1731,-0.2727,182.3669
20:39:06:165,3.8663,-2.8794,9.3759,51.2548,-1.599,0.2733,-0.2962,182.75
20:39:06:182,4.5802,-2.9416,10.6551,51.9649,-1.5255,0.6802,-0.358,183.1217
20:39:06:204,5.1503,-2.5536,11.206,50.9136,-1.3828,1.3854,-0.4826,183.6176
20:39:06:222,5.0736,-2.0601,10.8755,52.216,-1.2198,1.9894,-0.7255,184.5603
20:39:06:246,4.7718,-1.8301,10.5832,49.8887,-1.044,2.2802,-0.9545,186.194
20:39:06:262,4.5897,-1.9355,10.0802,50.1183,-0.979,2.3303,-1.044,188.5802
20:39:06:280,4.6376,-2.2997,10.9857,50.6601,-0.9386,2.0501,-1.0088,191.4374
20:39:06:309,4.5322,-2.841,12.5331,49.749,-0.7223,1.7093,-0.8704,194.3925
20:39:06:329,4.1106,-3.3201,13.7309,50.8889,-0.3835,1.4216,-0.6733,197.0683
20:39:06:340,3.2339,-3.4782,13.6734,50.4678,-0.0267,1.2533,-0.3803,199.2792
20:39:06:361,2.568,-3.2099,12.9308,50.0434,0.2513,1.0147,0.0596,201.0426
20:39:06:380,2.6015,-2.2326,12.2936,49.3064,0.5251,0.8017,0.588,202.3376
20:39:06:401,3.4016,-1.3798,11.6899,50.6327,0.9161,0.4565,0.9182,202.9954
20:39:06:425,3.9573,-1.49,11.527,51.4037,1.3475,-0.09,0.9427,202.9946
20:39:06:441,3.9477,-2.4338,12.078,51.6852,1.6937,-0.5406,0.8628,202.4498
20:39:06:461,3.7657,-3.7034,12.7535,52.8961,1.9217,-0.6663,0.85,201.5228
20:39:06:480,3.3058,-4.5083,12.811,52.5511,2.0218,-0.4639,0.9544,200.3557
20:39:06:504,2.6254,-4.6041,12.1403,53.1141,2.0495,-0.1763,1.1451,199.0795
20:39:06:521,2.2278,-4.2208,10.9665,52.3659,2.1326,-0.0506,1.3038,197.7653
20:39:06:549,2.0649,-3.7082,9.4861,51.545,2.221,-0.0804,1.3827,196.3629
20:39:06:563,1.9451,-3.2962,8.2452,52.5734,2.2178,-0.1965,1.3997,194.7792
20:39:06:582,1.7487,-3.0327,7.838,51.84,2.2285,-0.3776,1.4008,193.0643
20:39:06:603,1.6577,-2.98,7.5889,53.383,2.3094,-0.596,1.4093,191.2802
20:39:06:632,1.6289,-2.9704,7.2631,52.8084,2.3712,-0.7728,1.4253,189.4232
20:39:06:647,1.7822,-2.9225,7.0283,54.5282,2.3744,-0.8974,1.3987,187.518
20:39:06:662,2.0362,-2.9177,7.0283,54.2252,2.3616,-1.0317,1.2868,185.5556
20:39:06:682,2.3524,-3.047,7.0571,53.394,2.3254,-1.1212,1.0951,183.6499
20:39:06:707,2.635,-3.3153,7.1673,53.3064,2.1827,-1.0785,0.8639,181.8368
20:39:06:725,2.8075,-3.6172,7.311,53.2071,1.9089,-0.8197,0.604,180.2969
20:39:06:743,2.6494,-3.7226,7.3637,52.2445,1.5616,-0.4586,0.344,179.0363
20:39:06:763,2.3572,-3.6986,7.4883,50.7698,1.2644,-0.221,0.1257,178.2123
20:39:06:783,2.2374,-3.828,7.7087,49.852,1.0908,-0.1347,-0.0352,177.681
20:39:06:803,2.314,-4.149,7.7614,50.1704,0.9523,-0.14,-0.113,177.4506
20:39:06:823,2.4338,-4.8197,8.044,49.9365,0.7307,-0.1049,-0.1502,177.4138
20:39:06:848,2.3476,-5.4042,8.3842,50.0527,0.3675,0.1146,-0.0757,177.4565
20:39:06:864,2.3811,-5.639,8.71,49.2405,-0.0405,0.4533,0.098,177.5425
20:39:06:884,2.3859,-5.591,8.7052,48.5223,-0.4613,0.6664,0.3195,177.4761
20:39:06:910,3.1572,-5.9839,9.5053,48.1076,-0.8128,0.3585,0.4857,177.1774
20:39:06:934,4.3358,-6.5828,11.024,48.3424,-0.9982,-0.0367,0.4996,176.5994
20:39:06:948,4.5658,-6.027,11.9007,46.5615,-1.1111,0.3244,0.3877,175.8805
20:39:06:968,3.6411,-4.4748,10.8371,47.434,-1.1761,1.1894,0.1747,175.1738
20:39:06:985,2.635,-2.865,9.1795,46.4523,-1.1729,1.6869,-0.049,174.6135
20:39:07:008,3.4591,-2.5584,8.3458,47.1675,-0.9844,1.5005,-0.2717,174.366
20:39:07:024,4.858,-3.1381,7.5745,46.5137,-0.816,1.1106,-0.571,174.4738
20:39:07:048,5.2844,-3.9813,6.7648,45.6285,-0.9034,0.775,-0.8938,174.9168
20:39:07:066,4.3119,-4.3023,6.1324,45.823,-1.2134,0.5673,-1.0664,175.7419
20:39:07:093,2.6973,-4.0627,6.0797,44.8582,-1.5383,0.448,-0.9854,176.9543
20:39:07:111,1.5379,-3.3585,5.9743,45.4566,-1.6725,0.3649,-0.7617,178.3072
20:39:07:128,1.2361,-2.5009,5.2605,43.7859,-1.7183,0.1795,-0.5849,179.5179
20:39:07:146,1.0875,-1.926,4.7766,46.0382,-1.7801,-0.1187,-0.5327,180.4443
20:39:07:167,1.0492,-1.7056,4.8245,44.7066,-1.8579,-0.4404,-0.5103,181.1083
20:39:07:186,1.1067,-1.8589,5.5383,42.9912,-1.9154,-0.6375,-0.4506,181.6035
20:39:07:211,1.2121,-2.1224,6.6259,43.3424,-1.8866,-0.6375,-0.3164,181.9719
20:39:07:226,1.5475,-2.2853,7.1577,43.7509,-1.7897,-0.4916,-0.163,182.178
20:39:07:251,2.2182,-2.3332,7.1242,44.3474,-1.7471,-0.4021,-0.1449,182.2009
20:39:07:267,2.6542,-2.635,7.3924,41.5506,-1.8291,-0.3957,-0.3079,182.1037
20:39:07:288,2.5344,-3.1716,8.4656,42.5454,-1.9942,-0.3222,-0.4687,182.0275
20:39:07:350,2.3572,-3.5453,9.7544,41.7357,-2.0869,-0.1592,-0.4783,182.1203
20:39:07:356,2.4578,-3.6028,10.8132,42.4643,-2.0581,0.0411,-0.3857,182.3685
20:39:07:361,2.8267,-3.3968,11.4169,40.3511,-1.9782,0.2435,-0.2919,182.7162
20:39:07:374,3.2962,-3.2531,12.0732,40.8782,-1.8664,0.3734,-0.2994,183.0755
20:39:07:387,3.2435,-3.162,12.4565,40.0962,-1.696,0.415,-0.3058,183.5065
20:39:07:417,3.2099,-3.1045,12.7296,39.9428,-1.4893,0.3425,-0.2248,184.0476
20:39:07:434,3.4064,-2.9129,13.2901,36.8116,-1.2464,0.2253,-0.1268,184.6408
20:39:07:449,3.8376,-2.8123,14.1573,37.3656,-0.9247,0.1444,-0.1108,185.0948
20:39:07:468,4.0244,-3.1237,14.9717,37.2264,-0.5955,0.1604,-0.1843,185.3938
20:39:07:488,3.8232,-3.3345,15.2544,36.9901,-0.2973,0.4011,-0.1843,185.6044
20:39:07:510,3.4447,-3.0806,14.7226,37.8845,0.0489,0.6429,-0.048,185.9027
20:39:07:529,3.277,-2.3763,13.5345,36.8119,0.4814,0.7239,0.1896,186.372
20:39:07:546,3.5501,-2.0026,12.3367,35.492,0.9534,0.4363,0.3547,186.9195
20:39:07:567,3.6268,-2.4146,12.0061,34.6062,1.3965,-0.1358,0.3739,187.367
20:39:07:593,3.2722,-3.5309,12.5571,33.8201,1.7715,-0.6673,0.4176,187.4272
20:39:07:610,2.8985,-4.5945,13.3764,35.8099,2.0964,-0.9464,0.5475,187.0198
20:39:07:629,2.7452,-5.0113,13.7884,36.6486,2.368,-0.8602,0.6988,186.1532
20:39:07:648,2.6494,-4.7526,12.9404,36.8975,2.6098,-0.5193,0.7446,184.9418
20:39:07:669,2.3284,-4.2927,11.3019,35.8361,2.8122,-0.2689,0.6924,183.655
20:39:07:692,1.993,-4.0675,9.764,36.8712,2.9763,-0.2146,0.6306,182.5372
20:39:07:709,1.8206,-4.0436,8.6094,37.5268,3.0967,-0.3414,0.6125,181.63
20:39:07:728,1.8206,-4.1729,8.0392,39.3946,3.1638,-0.5566,0.6317,180.7488
20:39:07:748,1.8206,-4.4268,7.8524,39.6549,3.1883,-0.7387,0.6764,179.8028
20:39:07:771,1.7822,-4.652,7.7182,41.0015,3.1521,-0.7888,0.7318,178.785
20:39:07:793,1.9547,-4.7718,7.4691,40.0803,3.0796,-0.8325,0.7307,177.678
20:39:07:809,2.1703,-4.8628,7.1816,41.3989,2.9699,-0.9305,0.6381,176.5441
20:39:07:829,2.2949,-5.0497,7.196,43.3135,2.7803,-0.9795,0.5017,175.4539
20:39:07:849,2.2565,-5.2317,7.3541,44.2404,2.5054,-0.8197,0.3909,174.4995
20:39:07:870,2.2661,-5.294,7.2535,43.5869,2.1923,-0.5214,0.295,173.7831
20:39:07:895,2.3859,-5.3084,6.8942,43.7246,1.8716,-0.2945,0.1491,173.2567
20:39:07:909,2.6063,-5.5192,6.5636,45.0367,1.5211,-0.2018,-0.0373,172.839
20:39:07:929,2.6207,-5.7875,6.578,44.4254,1.1068,-0.1273,-0.1769,172.6207
20:39:07:949,2.2757,-5.8354,6.6403,46.1278,0.6679,-0.0026,-0.179,172.6271
20:39:07:970,1.8589,-5.5383,6.5876,47.0362,0.229,0.1252,-0.0256,172.7913
20:39:07:993,2.1368,-5.3611,7.1864,47.0679,-0.1002,0.0176,0.1917,172.9259
20:39:08:012,3.1381,-5.4473,8.0776,47.6397,-0.2078,-0.2221,0.3206,172.8488
20:39:08:031,3.7657,-5.2461,7.7374,48.4586,-0.3793,-0.1539,0.3004,172.5157
20:39:08:051,3.8711,-4.6999,7.2823,47.5738,-0.7915,0.1316,0.1704,172.0947
20:39:08:075,3.6699,-3.9909,7.541,49.3259,-1.2539,0.5396,0.0266,171.6979
20:39:08:094,4.1011,-3.713,8.3267,47.9488,-1.4872,0.7633,-0.114,171.3856
20:39:08:110,4.7143,-4.1202,8.6525,48.9818,-1.5671,0.7047,-0.3835,171.2338
20:39:08:129,5.0113,-4.8532,8.5375,47.277,-1.7631,0.465,-0.701,171.2592
20:39:08:152,4.331,-5.1503,8.4656,47.344,-2.1519,0.2584,-0.8927,171.6501
20:39:08:177,3.1764,-4.767,9.0453,47.752,-2.4992,0.1359,-0.8682,172.476
20:39:08:193,2.3811,-3.9909,9.328,47.6173,-2.5908,0.1657,-0.7159,173.5367
20:39:08:211,1.9499,-3.0854,8.8968,47.7828,-2.5098,0.2562,-0.5433,174.5252
20:39:08:232,1.7774,-2.2709,8.0584,46.2752,-2.3894,0.3404,-0.3889,175.3301
20:39:08:253,1.7295,-1.5427,7.1098,47.7076,-2.2882,0.3383,-0.261,175.9738
20:39:08:283,1.9978,-1.0109,6.6403,44.748,-2.1764,0.1881,-0.1737,176.3972
20:39:08:294,2.3763,-0.8049,6.5732,46.0297,-2.0091,-0.0261,-0.1428,176.704
20:39:08:313,2.6925,-1.0157,6.5061,44.5547,-1.8866,-0.2167,-0.1502,176.8754
20:39:08:333,2.9081,-1.4804,6.8654,46.6125,-1.9154,-0.2764,-0.1843,176.9464
20:39:08:353,2.9369,-1.8972,7.8141,45.283,-1.9782,-0.2455,-0.2301,176.9031
20:39:08:380,2.9225,-2.1895,8.7148,44.3513,-2.0027,-0.1454,-0.2727,176.8767
20:39:08:392,2.956,-2.2853,9.443,45.0456,-2.0336,0.0208,-0.31,176.9185
20:39:08:413,3.1333,-2.4003,10.3293,45.8046,-2.0262,0.1838,-0.3526,177.0491
20:39:08:439,3.2722,-2.8075,11.3642,44.4865,-1.9399,0.253,-0.375,177.2933
20:39:08:451,3.0997,-3.1908,12.1978,45.6886,-1.828,0.203,-0.2685,177.6548
20:39:08:477,3.1237,-3.1524,13.1751,46.206,-1.6587,0.1327,-0.0437,178.1047
20:39:08:493,3.2579,-2.6494,13.9656,45.0298,-1.3721,0.1316,0.1406,178.3917
20:39:08:513,3.5118,-2.3236,14.4208,46.172,-1.0131,0.1945,0.1661,178.4188
20:39:08:538,3.7369,-2.6207,15.0628,47.4841,-0.6339,0.1359,0.0777,178.2795
20:39:08:554,3.943,-3.0279,15.8102,47.968,-0.2642,0.1668,0.0703,178.1805
20:39:08:582,4.1921,-2.7404,15.7239,47.3054,0.0862,0.5172,0.1736,178.074
20:39:08:598,4.3167,-1.8349,14.5741,46.6491,0.474,0.8975,0.3046,178.0062
20:39:08:615,4.7574,-1.3079,13.1608,49.7557,0.9321,0.857,0.2972,178.2477
20:39:08:632,5.3946,-1.49,12.902,49.1796,1.4338,0.2914,0.1374,178.6658
20:39:08:653,6.1803,-2.4194,13.774,49.9191,1.9121,-0.2476,-0.1502,179.051
20:39:08:677,5.7012,-3.507,14.0231,50.5234,2.1667,-0.1518,-0.4698,179.1573
20:39:08:694,3.8711,-4.0675,13.5345,51.8248,2.2445,0.3532,-0.5891,179.1558
20:39:08:716,2.0457,-4.2592,12.4852,49.3813,2.4628,0.6887,-0.4602,179.52
20:39:08:737,1.1402,-4.4077,10.7653,51.1199,2.8272,0.6429,-0.1588,180.279
20:39:08:759,1.0684,-4.4221,8.9351,53.1055,3.0615,0.3585,0.212,181.0473
20:39:08:781,1.3319,-4.1538,7.7709,53.1843,3.1116,0.056,0.5294,181.4171
20:39:08:801,1.6337,-3.8759,7.4356,51.3382,3.1286,-0.2998,0.6796,181.2035
20:39:08:817,1.8493,-3.9573,7.3877,53.6048,3.1489,-0.5992,0.6935,180.5006
20:39:08:837,1.8781,-4.2687,7.3781,53.3837,3.0807,-0.6908,0.6466,179.5446
20:39:08:861,1.8637,-4.5945,7.3206,52.042,2.9081,-0.5715,0.5763,178.5267
20:39:08:883,1.8733,-4.8197,7.2343,53.5293,2.6695,-0.3851,0.4985,177.5894
20:39:08:899,1.9499,-4.858,6.9613,55.5166,2.4213,-0.2295,0.4378,176.7532
20:39:08:922,2.0697,-4.7574,6.463,55.948,2.1646,-0.1954,0.3813,176.0684
20:39:08:947,2.3045,-4.8484,6.3384,54.4457,1.8961,-0.3265,0.2716,175.468
20:39:08:963,2.5584,-5.2509,6.5876,55.7192,1.5563,-0.45,0.1033,174.9664
20:39:08:981,2.5632,-5.7827,7.0715,54.1878,1.1068,-0.4415,-0.0533,174.6703
20:39:08:998,2.2805,-6.0941,7.8332,53.8514,0.6221,-0.2689,-0.1023,174.5961
20:39:09:019,2.2997,-6.1803,8.456,55.5115,0.2077,-0.0729,-0.0629,174.7599
20:39:09:041,2.8075,-6.027,8.9064,54.5265,-0.0991,0.0208,-0.0139,174.8995
20:39:09:058,3.6603,-5.4856,8.3794,54.1908,-0.3782,0.2584,0.0096,174.9363
20:39:09:082,3.9334,-4.5514,7.1385,54.2071,-0.8128,0.5183,-0.1534,174.9083
20:39:09:099,2.7069,-3.4543,7.2823,53.5714,-1.2603,0.661,-0.342,174.8372
20:39:09:122,2.4242,-2.8315,8.5614,54.0754,-1.321,0.5598,-0.3079,174.9594
20:39:09:147,3.6603,-3.1093,9.5436,54.199,-1.0568,0.1582,-0.3473,175.27
20:39:09:165,4.4508,-3.6028,9.4286,54.3114,-0.8746,-0.0452,-0.5454,175.5813
20:39:09:185,4.8149,-4.216,8.7243,53.3041,-0.9918,-0.042,-0.8885,176.0035
20:39:09:198,4.5179,-4.5514,7.9817,53.5387,-1.3476,0.1401,-1.2826,176.7025
20:39:09:221,3.6938,-4.3262,6.9661,53.5278,-1.8014,0.4235,-1.5393,177.832
20:39:09:249,3.0183,-3.6124,6.3001,52.7566,-2.1593,0.4917,-1.6373,179.4645
20:39:09:269,2.6542,-2.9033,6.0031,52.9404,-2.2914,0.3255,-1.6917,181.3853
20:39:09:280,2.2997,-2.5057,5.6054,52.1206,-2.3372,0.0751,-1.746,183.3939
20:39:09:303,1.7008,-2.4386,5.5527,51.9599,-2.4235,-0.1273,-1.7311,185.4654
20:39:09:323,1.1882,-2.4003,6.1276,51.0827,-2.48,-0.2274,-1.5383,187.5561
20:39:09:341,1.1929,-2.3476,6.4965,51.8839,-2.4278,-0.1901,-1.2144,189.6216
20:39:09:411,1.3702,-2.1943,6.1803,49.3262,-2.4054,-0.1731,-0.8821,191.4013
20:39:09:413,1.6912,-2.132,6.5109,48.3609,-2.4587,-0.3084,-0.6232,192.7336
20:39:09:417,2.0984,-2.0841,7.6368,48.4623,-2.4597,-0.4852,-0.4272,193.685
20:39:09:423,2.8554,-2.199,9.0022,49.7013,-2.4022,-0.5278,-0.326,194.2996
20:39:09:444,3.301,-2.314,9.9891,49.1569,-2.3799,-0.3542,-0.3409,194.5645
20:39:09:465,3.3153,-2.4003,10.9473,49.1175,-2.3862,-0.0783,-0.4166,194.6815
20:39:09:480,3.047,-2.3476,11.7283,47.0543,-2.3159,0.1817,-0.4134,194.8988
20:39:09:499,3.0135,-2.3332,12.4373,48.0529,-2.1455,0.2946,-0.342,195.3513
20:39:09:521,3.1381,-2.2997,13.2805,46.9746,-1.8813,0.1902,-0.2568,195.9357
20:39:09:546,3.1237,-2.4146,14.3968,46.7799,-1.5372,0.0134,-0.1822,196.5248
20:39:09:565,3.2052,-2.5823,15.5131,45.9226,-1.1814,-0.0133,-0.114,196.9767
20:39:09:581,3.6315,-3.2435,16.8258,47.1839,-0.8342,-0.0889,-0.1481,197.2091
20:39:09:605,3.7657,-3.9765,18.3062,46.6773,-0.4176,-0.2103,-0.1353,197.4131
20:39:09:622,3.713,-3.5932,18.2104,45.6157,0.034,0.2094,0.1289,197.5849
20:39:09:642,4.0531,-1.9068,16.088,45.1956,0.4782,0.8741,0.4697,197.6336
20:39:09:667,4.9011,-0.6085,13.2518,44.7753,0.9874,1.0062,0.4634,197.7824
20:39:09:680,4.9299,-0.8576,11.6564,46.7711,1.4743,0.2903,0.1267,198.13
20:39:09:699,4.5179,-2.3428,12.3415,44.3575,1.8492,-0.6301,-0.1268,198.5818
20:39:09:720,3.8663,-3.828,13.7453,46.4465,2.1379,-0.9411,-0.0512,198.8038
20:39:09:742,3.1189,-4.3837,13.9848,44.7444,2.3275,-0.4681,0.2844,198.5986
20:39:09:761,2.5584,-3.9669,12.4325,43.543,2.4809,0.2477,0.653,198.0859
20:39:09:782,2.2853,-3.3249,10.0275,42.7567,2.6908,0.5162,0.8341,197.5133
20:39:09:801,1.9547,-2.9896,7.747,42.947,2.8719,0.285,0.9129,196.9042
20:39:09:821,1.6864,-2.9752,6.554,43.1024,2.9358,-0.2231,1.0311,196.2156
20:39:09:844,1.6768,-3.0614,6.6307,44.1165,2.9401,-0.6727,1.159,195.2859
20:39:09:863,1.7583,-3.2387,7.1146,43.0113,2.9475,-0.8378,1.2431,193.9903
20:39:09:888,1.9212,-3.368,7.2727,43.2223,2.906,-0.7558,1.2399,192.4028
20:39:09:909,2.1847,-3.5022,7.2583,42.0044,2.7931,-0.597,1.1291,190.6904
20:39:09:921,2.4673,-3.6411,7.2487,43.3147,2.6482,-0.5278,0.9342,189.0258
20:39:09:945,2.5392,-3.8855,7.4356,43.539,2.5076,-0.5321,0.7222,187.5544
20:39:09:963,2.4242,-4.2544,7.7949,42.9787,2.3584,-0.515,0.5656,186.3655
20:39:09:983,2.4961,-4.8005,8.2309,41.7341,2.1699,-0.4277,0.4538,185.4693
20:39:10:001,2.7883,-5.615,9.0118,40.9868,1.943,-0.4586,0.3238,184.7359
20:39:10:022,2.8794,-6.4822,10.0754,41.0875,1.715,-0.498,0.2684,184.1764
20:39:10:043,3.0087,-6.8319,10.7078,41.3765,1.5339,-0.3936,0.4048,183.7767
20:39:10:063,3.0854,-6.4774,10.152,41.6512,1.3816,-0.0836,0.6253,183.4389
20:39:10:081,3.2531,-5.7491,8.6812,41.2108,1.1845,0.154,0.7361,182.9133
20:39:10:100,4.0963,-5.4713,7.6751,41.5156,0.9097,0.0485,0.5507,182.0973
20:39:10:120,4.3885,-5.6629,6.9325,42.0909,0.4825,0.122,0.1779,181.0984
20:39:10:143,3.6651,-5.318,5.6006,42.5688,-0.2003,0.6387,-0.0884,180.3655
20:39:10:167,2.8842,-4.4891,4.7478,41.2897,-0.8949,0.9295,-0.2482,180.1389
20:39:10:182,2.3428,-3.4974,4.7047,41.092,-1.3849,0.8741,-0.358,180.1079
20:39:10:203,2.4626,-3.0039,5.4952,40.9674,-1.6001,0.4906,-0.4826,180.1769
20:39:10:227,3.301,-3.186,6.0845,42.3312,-1.6704,0.0826,-0.6477,180.4222
20:39:10:254,3.7369,-3.5932,6.1995,40.9869,-1.8962,-0.0548,-0.8661,180.9308
20:39:10:261,3.2674,-3.8615,6.2666,39.6646,-2.3021,0.0602,-1.0195,181.7252
20:39:10:281,2.3619,-3.7944,6.8032,40.007,-2.7335,0.301,-1.0024,182.8077
20:39:10:301,1.7295,-3.2339,7.3637,40.1562,-2.9476,0.4895,-0.849,184.0477
20:39:10:328,1.6864,-2.5919,7.3302,39.3987,-2.9295,0.4288,-0.6839,185.2671
20:39:10:343,1.8014,-2.1272,7.0906,38.5688,-2.8283,0.1955,-0.5433,186.3228
20:39:10:364,1.7918,-1.8972,7.2008,37.3155,-2.7527,-0.0846,-0.4283,187.1987
20:39:10:383,1.72,-1.9739,7.8332,37.1025,-2.6675,-0.302,-0.2791,187.8948
20:39:10:403,1.7631,-2.2086,8.5471,38.2305,-2.5396,-0.4266,-0.0618,188.3797
20:39:10:429,2.1751,-2.4146,9.0549,35.6216,-2.4171,-0.4894,0.2024,188.6289
20:39:10:442,2.774,-2.4482,9.6298,36.1754,-2.3138,-0.5598,0.4314,188.5617
20:39:10:468,3.416,-2.3715,10.4826,35.8149,-2.2211,-0.531,0.5688,188.1028
20:39:10:482,3.7944,-2.2326,11.3498,34.8641,-2.1178,-0.3478,0.621,187.3649
20:39:10:504,4.0819,-1.9451,11.9151,34.7517,-1.9878,-0.0378,0.6018,186.431
20:39:10:530,4.2496,-1.6577,12.0493,32.6612,-1.8323,0.3148,0.5369,185.6529
20:39:10:547,4.6951,-1.6002,12.0109,33.2707,-1.6683,0.4363,0.408,185.0625
20:39:10:565,4.9778,-1.8685,12.5906,32.5332,-1.4882,0.2946,0.2397,184.8226
20:39:10:584,5.0401,-2.0745,13.6542,31.8229,-1.2805,0.22,0.1587,184.8465
20:39:10:604,4.9682,-1.9212,14.1717,33.0147,-1.0302,0.415,0.1672,184.9442
20:39:10:630,5.1359,-1.7918,14.2483,33.3886,-0.7457,0.5428,0.0863,185.0509
20:39:10:649,5.0353,-2.1607,14.3441,32.2845,-0.4251,0.4352,-0.0938,185.3412
20:39:10:664,4.6424,-2.2038,14.3202,32.1533,-0.1055,0.3297,-0.0544,185.8228
20:39:10:688,4.9347,-1.5858,14.531,32.026,0.3579,0.1007,0.196,186.3885
20:39:10:712,5.3898,-0.733,13.9081,34.1446,1.0215,-0.2551,0.457,186.7959
20:39:10:727,5.8833,-0.4168,13.1224,33.4739,1.5574,-0.7696,0.4676,186.8031
20:39:10:744,6.0845,-1.1738,13.9896,35.0374,1.9931,-1.445,0.197,186.3048
20:39:10:770,5.6246,-3.0423,16.1839,35.4664,2.4181,-1.8988,-0.162,185.4223
20:39:10:790,4.5035,-4.8149,18.1434,37.616,2.7803,-1.6005,-0.2845,184.2715
20:39:10:811,3.4543,-5.2317,17.5301,36.1139,3.1361,-0.6279,-0.1385,183.1745
20:39:10:826,3.3153,-4.6137,14.6316,37.0248,3.478,0.2115,-0.048,182.411
20:39:10:844,3.5166,-3.9669,11.5079,38.968,3.7028,0.4917,-0.1683,182.1333
20:39:10:869,3.4734,-3.8471,9.4957,39.9924,3.7763,0.3937,-0.3612,182.2589
20:39:10:887,2.9129,-4.1825,8.8585,41.5426,3.7891,0.1753,-0.44,182.6388
20:39:10:911,2.2517,-4.6424,8.8106,41.5715,3.8349,-0.0335,-0.3622,183.1748
20:39:10:929,1.9212,-5.0736,8.5519,40.943,3.8487,-0.1091,-0.2024,183.6952
20:39:10:945,1.9355,-5.294,8.0296,42.1357,3.7486,-0.0857,-0.0533,184.0488
20:39:10:967,2.108,-5.3659,7.4451,43.6846,3.576,-0.0612,0.0117,184.1986
20:39:10:986,2.3572,-5.3515,6.7025,44.1005,3.3385,-0.0932,-0.0267,184.1619
20:39:11:010,2.3763,-5.3036,5.9504,44.9032,2.9923,-0.1326,-0.1236,184.0477
20:39:11:029,2.2038,-5.1263,5.3659,43.9602,2.5491,-0.1241,-0.2003,184.0355
20:39:11:046,2.1511,-4.9107,4.9922,44.7025,2.09,-0.091,-0.2461,184.1858
20:39:11:067,2.2517,-4.8293,4.6712,44.8682,1.6202,-0.0676,-0.3207,184.434
20:39:11:090,2.2997,-4.8293,4.3694,46.8101,1.0908,-0.0474,-0.4091,184.7248
20:39:11:111,2.3332,-4.8197,4.4748,46.0321,0.4697,-0.0793,-0.4901,185.0726
20:39:11:127,2.2517,-4.6089,5.3707,46.0468,-0.1513,-0.0687,-0.5114,185.5171
20:39:11:146,2.865,-4.791,6.9804,46.0857,-0.652,-0.0719,-0.5305,186.063
20:39:11:171,3.7417,-5.4425,8.4417,45.1102,-1.0238,0.024,-0.6573,186.5973
20:39:11:200,3.4112,-5.4234,8.135,44.5928,-1.5127,0.5566,-0.8256,187.1445
20:39:11:209,2.5057,-4.4364,8.0584,44.0619,-2.0954,0.9849,-0.8618,187.7849
20:39:11:228,2.6877,-3.6124,9.2657,45.8471,-2.2701,0.8368,-0.7819,188.3984
20:39:11:247,4.0723,-3.8232,10.0418,44.3798,-2.1167,0.3276,-0.6552,188.929
20:39:11:269,5.385,-4.2065,10.2718,43.8455,-2.0784,-0.1986,-0.5668,189.4471
20:39:11:294,5.9072,-4.1681,10.497,43.3973,-2.1817,-0.4074,-0.5252,190.0425
20:39:11:309,5.8737,-3.5788,9.9125,43.8582,-2.3799,-0.1209,-0.6232,190.7053
20:39:11:327,5.2748,-2.8842,8.5231,43.3164,-2.6898,0.3457,-0.8885,191.3606
20:39:11:347,4.1346,-2.5584,7.3637,44.1802,-2.9988,0.6376,-1.2304,192.1015
20:39:11:369,2.4673,-2.5248,6.8511,43.3065,-3.1436,0.6653,-1.4413,193.1163
20:39:11:396,1.0013,-2.3955,6.6067,42.5571,-3.1277,0.3862,-1.3444,194.4914
20:39:11:412,0.9199,-2.1655,7.0283,40.98,-3.0435,-0.0697,-1.0046,196.1999
20:39:11:463,1.4996,-2.1511,7.929,40.9849,-2.9018,-0.3392,-0.6158,197.7538
20:39:11:465,2.0457,-1.8445,8.2788,39.3359,-2.7463,-0.45,-0.293,198.8408
20:39:11:477,2.7356,-1.8301,8.5183,39.0907,-2.6334,-0.6066,-0.1556,199.3243
20:39:11:498,3.0039,-2.0889,8.9351,39.2868,-2.5993,-0.8133,-0.0948,199.4633
20:39:11:509,3.4399,-2.338,10.382,38.835,-2.6643,-0.9582,-0.0522,199.3891
20:39:11:533,3.9142,-2.0745,12.5379,37.4309,-2.6451,-0.8793,-0.0384,199.1221
20:39:11:547,4.5849,-1.4517,13.6303,37.4141,-2.4928,-0.4447,-0.195,198.6547
20:39:11:569,4.446,-0.9151,13.2566,37.296,-2.3873,0.122,-0.5838,198.1586
20:39:11:592,2.9608,-0.9534,13.5584,37.1651,-2.3,0.366,-0.9183,198.1286
20:39:11:609,1.4708,-1.284,14.5693,36.7561,-1.9793,0.367,-0.8437,198.8642
20:39:11:629,0.6851,-1.6816,15.0532,36.6865,-1.4754,0.1614,-0.5114,200.0671
20:39:11:651,0.2683,-1.7391,15.6137,37.3212,-1.0419,-0.0761,-0.0938,201.2193
20:39:11:671,0.4551,-1.6816,16.73,36.3895,-0.6158,-0.2476,0.2567,201.8937
20:39:11:696,1.1211,-1.4325,17.5589,38.1173,-0.1183,-0.2785,0.4825,201.9644
20:39:11:711,1.8541,-1.1402,17.4966,36.6538,0.4111,-0.1091,0.6338,201.5757
20:39:11:735,2.5775,-0.4887,16.2605,35.9274,0.9331,0.2317,0.7563,200.9479
20:39:11:753,3.301,-0.1389,14.5885,37.3148,1.4721,0.2754,0.7148,200.3282
20:39:11:771,3.6172,-0.8863,14.1812,36.6376,2.0037,-0.2327,0.507,199.8813
20:39:11:792,3.5453,-2.6063,15.5083,35.917,2.4948,-0.7409,0.327,199.4822
20:39:11:810,3.2291,-4.4077,16.7109,39.2473,2.8783,-0.596,0.3451,198.8573
20:39:11:830,2.7644,-5.4377,16.3467,38.6514,3.1297,0.1241,0.5912,198.0304
20:39:11:850,2.2613,-5.4904,14.4112,39.5269,3.3736,0.7047,0.914,197.2262
20:39:11:871,2.1559,-5.1263,11.8385,39.1148,3.6357,0.775,1.1249,196.5094
20:39:11:904,2.1368,-4.882,9.8023,40.9358,3.8147,0.4831,1.2463,195.6644
20:39:11:910,2.0601,-4.7574,8.7195,39.9306,3.8711,0.1295,1.3166,194.5194
20:39:11:932,2.2422,-4.7239,8.3219,41.0404,3.8839,-0.0985,1.3529,193.0814
20:39:11:951,2.5153,-4.6376,7.8476,42.8388,3.8221,-0.1827,1.2687,191.4055
20:39:11:981,2.6446,-4.6568,7.5889,44.0179,3.6868,-0.2018,1.1014,189.6449
20:39:11:995,2.7548,-4.7287,7.22,43.2791,3.5185,-0.1912,0.8863,187.9268
20:39:12:011,2.6111,-4.8101,6.7696,44.3155,3.3023,-0.2263,0.6519,186.3907
20:39:12:036,2.3188,-4.8293,6.3097,43.8881,3.0029,-0.1997,0.4687,185.1719
20:39:12:051,2.0697,-4.6808,5.9743,46.8515,2.6333,-0.0974,0.3323,184.3192
20:39:12:072,1.8445,-4.4987,5.73,47.1539,2.2604,0.056,0.229,183.7506
20:39:12:096,1.9116,-4.4891,5.3467,47.6042,1.9132,0.1476,0.1171,183.3361
20:39:12:112,2.1176,-4.6999,4.7143,49.3212,1.5201,0.1305,-0.0458,182.9936
20:39:12:132,2.0889,-4.973,4.5275,49.4511,0.996,0.0517,-0.1918,182.7819
20:39:12:153,1.6433,-5.0401,5.1934,50.3386,0.4016,0.0421,-0.2205,182.7635
20:39:12:172,1.2696,-4.6185,6.3959,50.602,-0.1034,0.155,-0.0661,182.9576
20:39:12:192,1.8445,-4.149,7.3302,49.7178,-0.4038,0.2232,0.1214,183.1645
20:39:12:217,3.1333,-4.0292,7.7182,50.2081,-0.6946,0.2307,0.1033,183.1368
20:39:12:234,3.7896,-3.8423,7.632,51.3468,-1.1473,0.4874,-0.0629,182.8792
20:39:12:252,3.507,-3.5022,7.6368,50.9275,-1.6235,0.6653,-0.2216,182.6884
20:39:12:282,3.2483,-3.0902,8.044,50.8103,-1.8962,0.5652,-0.2834,182.6187
20:39:12:296,3.5261,-3.1381,8.5231,50.8798,-2.0081,0.2008,-0.359,182.6648
20:39:12:313,4.0675,-3.7465,8.9112,50.9633,-2.17,-0.2711,-0.489,182.8425
20:39:12:334,4.2208,-4.5897,9.7831,50.9467,-2.4992,-0.6365,-0.5838,183.2525
20:39:12:354,3.8328,-4.9011,10.9857,50.8822,-2.8475,-0.6226,-0.5401,183.9076
20:39:12:380,3.2962,-4.4748,11.2923,50.476,-3.0265,-0.2679,-0.4038,184.7255
20:39:12:399,2.8937,-3.368,10.1472,49.9531,-3.0456,0.0506,-0.3484,185.4268
20:39:12:413,2.5871,-2.4721,8.8968,51.1177,-2.9743,-0.0058,-0.4144,185.9076
20:39:12:435,2.3092,-2.0505,8.3506,50.049,-2.8209,-0.2839,-0.4389,186.3354
20:39:12:463,2.0457,-1.8349,8.2021,49.9946,-2.6483,-0.5044,-0.3367,186.8863
20:39:12:476,1.7487,-1.6577,8.3458,47.8101,-2.4917,-0.5427,-0.1406,187.3609
20:39:12:494,1.672,-1.4612,8.5519,48.5026,-2.334,-0.3851,0.0511,187.6077
20:39:12:516,1.7152,-1.3271,8.3506,46.3849,-2.137,-0.2562,0.147,187.5997
20:39:12:538,1.8781,-1.4948,7.9338,46.3542,-1.9687,-0.2785,0.1704,187.4049
20:39:12:561,2.1416,-1.8876,7.9913,46.4309,-1.9399,-0.3755,0.1853,187.161
20:39:12:577,2.5727,-2.3045,8.7195,47.5676,-1.9921,-0.4266,0.2077,186.8871
20:39:12:595,2.8746,-2.5584,10.0275,47.0685,-2.0507,-0.3936,0.2269,186.5531
20:39:12:619,3.1093,-2.5296,11.2971,47.1527,-1.9868,-0.2785,0.2705,186.1563
20:39:12:635,3.5214,-2.6015,11.9103,47.3239,-1.8717,-0.2189,0.2301,185.7644
20:39:12:656,3.6411,-2.7213,12.7104,47.5271,-1.827,-0.237,0.1299,185.3302
20:39:12:682,3.828,-2.841,14.3729,49.4969,-1.7023,-0.2327,0.0799,184.9999
20:39:12:697,4.01,-2.6925,15.585,48.0339,-1.4403,-0.0261,0.0777,184.7735
20:39:12:716,4.2975,-2.2853,16.0641,49.2117,-1.109,0.3212,0.0074,184.6289
20:39:12:737,4.5418,-2.2374,16.0162,47.2582,-0.7191,0.5737,-0.211,184.6481
20:39:12:762,4.3646,-2.4482,15.4221,48.935,-0.3516,0.7569,-0.3782,185.0453
20:39:12:777,4.0771,-2.2278,14.6364,48.2581,-0.0256,0.8752,-0.309,185.879
20:39:12:794,3.9286,-1.4517,13.6111,49.9978,0.3557,0.9487,-0.0831,186.9995
20:39:12:817,4.0244,-0.8001,12.4086,48.1999,0.7925,0.7771,0.098,188.1309
20:39:12:838,4.0723,-1.054,12.0636,48.1036,1.2964,0.1199,0.0681,189.135
20:39:12:863,4.0052,-2.2374,12.9739,47.6718,1.7619,-0.6439,-0.0373,189.8381
20:39:12:879,3.895,-3.6363,14.4879,49.2618,2.1113,-0.809,-0.0309,190.0439
20:39:12:898,3.2674,-4.446,14.8424,51.1908,2.335,-0.2476,0.0937,189.7649
20:39:12:920,2.6829,-4.3981,13.5249,51.2138,2.5289,0.3958,0.2333,189.3579
20:39:12:942,2.2565,-4.2352,11.345,50.1391,2.7984,0.5662,0.2748,189.1709
20:39:12:961,1.8301,-4.1777,9.443,51.6702,2.971,0.3819,0.3611,189.2219
20:39:12:981,1.4612,-4.1154,8.389,53.3848,3.0157,0.1412,0.5347,189.3043
20:39:13:004,1.2504,-3.9669,8.0344,55.3195,3.0445,-0.0761,0.7212,189.1126
20:39:13:021,1.2936,-3.943,7.7661,57.1237,3.1009,-0.2359,0.8202,188.5899
20:39:13:044,1.3558,-4.0867,7.3924,55.5193,3.0977,-0.3137,0.8255,187.8461
20:39:13:066,1.3606,-4.3598,7.2296,57.3455,2.9806,-0.2839,0.7797,186.9921
20:39:13:085,1.5714,-4.5322,7.0475,57.7477,2.8112,-0.1912,0.6998,186.0966
20:39:13:100,1.7343,-4.6616,6.6546,58.9685,2.6141,-0.1294,0.5688,185.2581
20:39:13:121,1.7152,-4.7047,6.2666,58.412,2.3457,-0.0878,0.441,184.5462
20:39:13:139,1.7439,-4.6424,6.0318,58.9283,2.041,-0.0399,0.3291,183.9855
20:39:13:162,1.9451,-4.6041,5.7587,60.5013,1.7172,-0.0122,0.1821,183.5687
20:39:13:183,2.199,-4.7766,5.8402,58.9574,1.3603,-0.0953,-0.0118,183.3079
20:39:13:203,2.3476,-5.0784,6.4917,60.6005,0.9779,-0.172,-0.2003,183.2595
20:39:13:221,2.0984,-5.2653,7.196,60.6816,0.5603,-0.1177,-0.2823,183.4675
20:39:13:242,1.7727,-5.0018,8.0009,62.2495,0.1896,0.0315,-0.2163,183.7955
20:39:13:266,2.0026,-4.5706,8.8633,61.8492,-0.0182,0.0208,-0.081,184.1954
20:39:13:282,3.5214,-4.6568,10.2431,59.9921,0.0585,-0.3265,-0.0075,184.4734
20:39:13:301,4.5897,-4.6856,9.6969,60.9126,0.1267,-0.3829,-0.1034,184.5976
20:39:13:320,4.5754,-4.3598,7.9722,60.9126,-0.211,-0.1752,-0.3494,184.7144
20:39:13:339,3.9477,-3.9909,7.3972,60.5284,-0.7553,-0.0378,-0.7468,185.0685
20:39:13:363,3.5501,-4.1825,8.0009,61.0135,-1.2624,0.0933,-1.1921,185.6906
20:39:13:380,2.8746,-4.8916,8.6764,60.716,-1.7002,0.3276,-1.4797,186.7475
20:39:13:399,2.5584,-5.2413,8.9399,60.075,-2.1306,0.6088,-1.4041,188.2887
20:39:13:421,2.4961,-4.7383,9.0789,59.8518,-2.4214,0.775,-1.1622,190.03
20:39:13:447,2.4003,-3.8855,8.3698,58.156,-2.5002,0.6887,-0.9289,191.6413
20:39:13:464,2.0457,-3.0902,7.2775,55.974,-2.5258,0.3361,-0.7031,193.0349
20:39:13:479,1.8158,-2.4626,6.7073,57.4366,-2.5663,-0.0665,-0.4794,194.1812
20:39:13:508,1.7056,-2.0026,6.5205,56.5096,-2.5972,-0.3478,-0.3068,195.0722
20:39:13:519,1.5762,-1.6433,6.5924,55.3858,-2.6249,-0.4767,-0.1992,195.7601
20:39:13:537,1.5427,-1.4085,7.2056,54.0929,-2.5588,-0.5843,-0.098,196.1089
20:39:13:560,2.0362,-1.3846,7.929,54.2856,-2.3447,-0.629,0.0149,196.2784
20:39:13:580,2.7021,-1.5283,7.8572,54.8759,-2.1764,-0.5118,0.0223,196.2678
20:39:13:600,2.8506,-1.8876,7.6464,53.8255,-2.2062,-0.4042,-0.0842,196.1628
20:39:13:620,2.75,-2.4003,8.4704,53.2898,-2.3415,-0.3765,-0.1683,196.096
20:39:13:640,2.6829,-2.865,9.9317,54.845,-2.3958,-0.2721,-0.1534,196.1668
20:39:13:662,2.6111,-2.9225,10.6695,53.71,-2.3777,0.024,-0.0501,196.3199
20:39:13:681,2.7308,-2.5009,10.6647,52.4041,-2.3948,0.2988,0.0138,196.4982
20:39:13:706,3.0614,-2.2997,11.0527,54.0001,-2.3745,0.2775,-0.0554,196.7136
20:39:13:719,3.0375,-2.6254,12.2217,53.3321,-2.3181,-0.0143,-0.1428,197.0827
20:39:13:744,2.75,-2.9273,14.1764,51.5691,-2.1902,-0.204,-0.0224,197.5282
20:39:13:760,2.9752,-2.4099,16.0593,50.7055,-1.8611,-0.1326,0.1725,197.8555
20:39:13:781,3.416,-1.6098,17.1085,52.2282,-1.3689,0.0922,0.1757,197.9304
20:39:13:801,4.0579,-1.3846,18.5027,50.6061,-0.7106,0.1412,-0.0416,197.9199
20:39:13:824,5.4569,-1.787,19.5998,50.6858,0.1107,0.2552,-0.342,198.154
20:39:13:845,6.1708,-2.2086,18.1673,50.2734,0.7435,0.8943,-0.587,198.6407
20:39:13:861,5.1263,-2.0889,15.3263,48.8344,1.1195,1.5058,-0.4954,199.4656
20:39:13:881,4.1633,-1.9308,13.5297,47.863,1.5531,1.2427,-0.1673,201.0234
20:39:13:901,3.4687,-2.7883,13.2183,48.0098,2.2018,0.1923,0.1512,202.9256
20:39:13:921,2.9512,-4.3214,13.223,48.4601,2.7899,-0.8921,0.4016,204.2453
20:39:13:943,2.4434,-5.5671,13.2518,49.6211,3.0722,-1.4194,0.5976,204.3942
20:39:13:964,1.811,-5.9264,12.9404,48.6223,3.102,-1.2671,0.7531,203.4574
20:39:13:982,1.4373,-5.2509,11.7953,48.2699,3.0083,-0.5821,0.8703,201.9357
20:39:14:002,1.5954,-4.0531,9.6011,47.6428,2.939,0.0698,0.8351,200.352
20:39:14:027,1.8062,-3.1189,7.4978,48.6098,2.9049,0.2552,0.6434,199.0218
20:39:14:041,1.926,-2.8075,6.4151,50.7317,2.8762,0.0347,0.4474,198.0485
20:39:14:063,1.7583,-2.9991,6.439,50.4404,2.8772,-0.3691,0.3409,197.3734
20:39:14:082,1.6241,-3.4399,6.9469,52.8956,2.8996,-0.7217,0.327,196.8044
20:39:14:104,1.5954,-4.0004,7.5601,51.6274,2.8996,-0.8751,0.3387,196.2434
20:39:14:128,1.6098,-4.5275,8.0632,52.2176,2.8229,-0.8112,0.3057,195.5876
20:39:14:142,1.6529,-5.0018,8.5279,53.7232,2.6748,-0.6354,0.2173,194.8951
20:39:14:164,1.8349,-5.3132,8.7387,54.5978,2.5065,-0.4138,0.1001,194.275
20:39:14:184,1.9068,-5.4952,8.8154,53.0751,2.3212,-0.1699,-0.0426,193.8366
20:39:14:202,2.0074,-5.5096,8.7818,54.0478,2.1294,0.1572,-0.1705,193.494
20:39:14:227,2.2805,-5.591,8.5039,54.2509,1.9728,0.4459,-0.3377,193.3425
20:39:14:243,2.4194,-5.7348,7.6464,54.842,1.7406,0.7079,-0.5572,193.3312
20:39:14:262,2.2853,-5.7587,6.2809,56.2047,1.2751,1.0264,-0.7628,193.4379
20:39:14:284,1.6864,-5.524,5.2796,55.7254,0.6263,1.2192,-0.815,193.7617
20:39:14:304,1.351,-5.2317,5.2461,56.2203,0.0447,1.0701,-0.6541,194.2444
20:39:14:327,1.7247,-5.5144,6.1899,56.054,-0.2855,0.4533,-0.3995,194.707
20:39:14:342,1.6481,-5.639,6.2714,55.3895,-0.5433,0.0858,-0.1044,195.0308
20:39:14:364,1.3175,-5.0928,5.7683,56.3184,-0.9652,-0.0293,0.1768,195.2256
20:39:14:384,1.375,-4.4843,6.1564,54.7476,-1.3806,-0.1603,0.3046,195.189
20:39:14:404,2.6111,-4.3789,7.3637,56.2249,-1.6991,-0.3392,0.2993,194.8624
20:39:14:429,4.6568,-4.7047,9.3711,55.8106,-1.9271,-0.4873,0.1214,194.4267
20:39:14:442,5.9456,-5.2269,10.8898,55.2947,-2.0944,-0.3563,-0.1811,194.0381
20:39:14:465,5.5815,-5.2748,11.0192,54.3851,-2.3948,0.2435,-0.3867,193.8977
20:39:14:485,4.355,-4.5562,10.061,55.6848,-2.7836,0.8144,-0.343,194.0803
20:39:14:504,3.5214,-3.6459,8.9591,53.5597,-2.9679,1.0083,-0.2919,194.4386
20:39:14:527,2.4865,-2.7788,7.7853,53.8695,-2.8763,0.8251,-0.3036,194.8052
20:39:14:544,1.4852,-2.3236,6.669,51.6143,-2.7335,0.3628,-0.3026,195.1941
20:39:14:565,0.5558,-2.2422,6.3624,52.3094,-2.6792,-0.2189,-0.1641,195.6294
20:39:14:584,0.321,-2.2757,7.3254,53.0318,-2.578,-0.6567,0.1821,196.0009
20:39:14:604,1.2696,-2.2134,8.274,51.7764,-2.3745,-0.7728,0.5944,195.963
20:39:14:629,2.544,-1.9499,8.5566,50.3014,-2.2051,-0.6066,0.8351,195.3523
20:39:14:645,3.5214,-1.5427,8.456,50.765,-2.1295,-0.3701,0.767,194.3112
20:39:14:667,3.7944,-1.4517,8.4273,50.7971,-2.1093,-0.2988,0.4176,193.0862
20:39:14:687,3.483,-2.0218,9.2609,50.6283,-2.105,-0.3414,0.0181,192.0952
20:39:14:706,2.8362,-2.774,10.5353,50.8189,-2.088,-0.2061,-0.2131,191.5207
20:39:14:728,2.4817,-3.0997,11.6995,51.7539,-2.0336,0.1178,-0.2568,191.2424
20:39:14:745,2.6781,-3.2387,12.375,51.6063,-1.9133,0.4725,-0.2866,191.2622
20:39:14:765,2.9943,-3.3393,12.8398,50.5915,-1.7652,0.6035,-0.391,191.5222
20:39:14:786,3.2339,-3.5884,13.6542,51.4696,-1.6054,0.612,-0.4805,192.0841
20:39:14:806,3.1429,-3.6842,14.6412,50.2562,-1.4083,0.7409,-0.4751,192.8676
20:39:14:828,3.095,-3.6699,15.3502,50.7298,-1.1441,0.955,-0.4325,193.7681
20:39:14:847,3.3297,-3.8519,15.8772,51.5718,-0.7649,0.9753,-0.4304,194.7596
20:39:14:868,3.6651,-4.0531,16.0976,50.9064,-0.2738,0.8901,-0.3814,195.8782
20:39:14:886,3.8903,-3.5405,15.0963,50.3715,0.164,0.971,-0.1939,197.0791
20:39:14:910,4.1538,-2.0745,13.5297,50.3791,0.5273,1.2033,0.0543,198.1297
20:39:14:927,4.8437,-0.9774,12.2936,50.8548,0.9864,1.0967,0.0703,199.1569
20:39:14:946,5.1934,-1.0205,12.4709,49.6062,1.5989,0.4192,-0.2749,200.1809
20:39:14:967,5.5767,-2.453,13.5824,49.6011,2.2445,-0.2913,-0.7969,201.0959
20:39:14:989,5.4473,-4.2304,14.4399,49.7254,2.6535,-0.3371,-1.1963,201.8115
20:39:15:012,4.6472,-5.5575,14.5789,51.3555,2.7963,0.2381,-1.3582,202.4745
20:39:15:027,3.3776,-5.8354,13.4291,49.6901,2.8612,0.9561,-1.2389,203.4954
20:39:15:048,2.5584,-5.6294,11.3881,48.9965,3.0093,1.2363,-0.995,205.0097
20:39:15:068,1.9403,-5.3659,9.1795,50.2377,3.1563,1.0594,-0.7159,206.7623
20:39:15:089,1.4517,-5.1742,7.7566,50.7316,3.1915,0.5929,-0.3782,208.2823
20:39:15:108,1.2936,-4.8484,7.0379,50.1258,3.1361,0.1678,-0.0192,209.3326
20:39:15:128,1.3606,-4.4652,6.6978,51.208,3.0083,-0.1017,0.2578,209.7648
20:39:15:147,1.4756,-4.3885,6.7121,53.2529,2.9294,-0.3318,0.441,209.6583
20:39:15:169,1.7583,-4.4364,6.4726,52.2297,2.8378,-0.5022,0.5464,209.1561
20:39:15:196,2.0936,-4.5514,6.2953,52.3263,2.6375,-0.5938,0.5518,208.4505
20:39:15:211,2.2565,-4.4748,6.1228,53.8058,2.3329,-0.4873,0.4964,207.6393
20:39:15:229,2.3284,-4.2592,5.8402,52.762,2.0026,-0.3105,0.4144,206.8385
20:39:15:249,2.3428,-4.0771,5.3946,53.136,1.6841,-0.1613,0.3089,206.0579
20:39:15:268,2.3619,-3.8855,4.8916,52.2094,1.3624,-0.09,0.2002,205.3622
20:39:15:288,2.5153,-3.9382,4.5993,51.9841,1.046,-0.1315,0.0458,204.8452
20:39:15:313,2.5871,-4.3071,4.3502,51.2728,0.6647,-0.2189,-0.1683,204.4355
20:39:15:335,2.4482,-4.6999,4.5179,52.3285,0.1629,-0.2988,-0.3686,204.2986
20:39:15:347,1.8733,-4.9107,5.845,53.0482,-0.3473,-0.4458,-0.4517,204.4525
20:39:15:368,1.0684,-4.8532,8.1015,51.8378,-0.5295,-0.7313,-0.2493,204.8392
20:39:15:389,1.5858,-5.3802,9.4717,51.4727,-0.359,-1.3086,0.1416,205.325
20:39:15:414,2.7548,-6.2953,9.6298,53.2178,-0.3452,-1.6154,0.506,205.5838
20:39:15:431,3.8471,-6.348,9.3184,52.844,-0.8874,-1.1691,0.7702,205.4801
20:39:15:448,4.561,-4.9011,9.2418,52.6334,-1.9047,-0.1177,0.7329,204.9943
20:39:15:468,4.3214,-2.9225,10.4491,50.3342,-2.7005,0.6738,0.4399,204.0891
20:39:15:489,4.537,-1.8541,12.5475,52.2549,-2.5237,0.7985,0.1299,203.0588
20:39:15:511,5.3419,-2.2086,11.8432,50.4914,-1.8525,0.6301,-0.2237,202.3646
20:39:15:550,5.4569,-2.9991,9.5148,50.8136,-1.713,0.5268,-0.5913,202.1294
20:39:15:552,4.1969,-3.5405,8.2452,49.8469,-2.0901,0.6024,-0.7947,202.396
20:39:15:570,2.5536,-3.3345,8.1159,49.995,-2.4321,0.7495,-0.767,203.1307
20:39:15:595,1.7152,-2.5967,7.6655,47.9795,-2.4619,0.8975,-0.6818,204.1155
20:39:15:611,1.4948,-1.7439,6.7361,50.1244,-2.3309,0.8262,-0.6903,205.0767
20:39:15:631,1.6816,-1.2696,5.9887,47.5843,-2.1988,0.5993,-0.8597,206.013
20:39:15:649,1.7918,-1.3223,5.7156,47.3868,-2.1359,0.3819,-1.1313,206.9565
20:39:15:672,1.5954,-1.7679,5.9312,45.4563,-2.1391,0.2925,-1.3742,208.0292
20:39:15:696,1.1498,-2.3428,6.5013,44.6991,-2.1508,0.318,-1.5116,209.3381
20:39:15:712,0.6372,-3.0231,7.0283,45.1748,-2.1615,0.4288,-1.5202,210.8951
20:39:15:731,0.4839,-3.4112,7.6703,45.0468,-2.2062,0.5396,-1.4371,212.6045
20:39:15:751,0.8288,-3.5788,8.5279,47.8521,-2.1583,0.5609,-1.3337,214.3554
20:39:15:771,1.6673,-3.7417,8.9351,45.4956,-2.0922,0.4927,-1.3455,216.0767
20:39:15:796,2.1895,-4.0436,9.328,44.595,-2.2414,0.5779,-1.5127,217.7031
20:39:15:814,2.2182,-4.3837,10.4443,45.2443,-2.5812,0.9295,-1.7226,219.3001
20:39:15:832,2.0074,-4.6568,12.3846,43.1404,-2.806,1.2917,-1.8951,221.1458
20:39:15:851,1.8733,-4.6424,14.1046,45.0146,-2.6643,1.4206,-1.8802,223.4362
20:39:15:874,2.1032,-4.3502,14.8903,43.1653,-2.2829,1.4451,-1.7343,226.1953
20:39:15:892,2.2757,-3.8232,14.7945,44.899,-1.9303,1.4738,-1.5777,229.0735
20:39:15:915,2.5727,-3.5453,15.6521,45.5442,-1.533,1.2544,-1.4158,231.9242
20:39:15:933,3.6411,-3.5788,16.5384,42.67,-0.9897,1.0871,-1.2411,234.676
20:39:15:952,4.3981,-3.3106,16.0785,42.6302,-0.5082,1.1862,-1.0941,237.1711
20:39:15:981,4.2735,-2.2278,14.8903,44.8015,-0.1268,1.3843,-0.8245,239.446
20:39:15:998,4.4029,-0.7618,13.2662,42.4048,0.344,1.5218,-0.4293,241.6744
20:39:16:012,4.6233,0.1389,11.872,41.1802,0.9097,1.0999,-0.1982,243.8323
20:39:16:031,4.3119,-0.3258,12.054,40.2341,1.584,0.1039,-0.1982,245.7639
20:39:16:052,3.8903,-1.9978,13.1033,40.4501,2.2519,-0.8058,-0.1992,247.1176
20:39:16:080,3.7226,-3.9717,14.531,39.796,2.7206,-1.1329,-0.0821,247.6529
20:39:16:100,3.6986,-5.0257,15.1538,40.4319,2.9592,-0.6418,0.1065,247.4842
20:39:16:115,3.8998,-4.8053,13.865,40.2735,3.0168,0.2498,0.2162,246.9614
20:39:16:134,4.1633,-3.9957,11.6181,38.165,3.0647,0.807,0.098,246.5316
20:39:16:153,3.8998,-3.5741,9.4382,38.2023,3.1286,0.8613,-0.1385,246.4786
20:39:16:179,3.0183,-3.622,8.1255,38.5915,3.1425,0.612,-0.2376,246.768
20:39:16:196,2.2086,-3.895,7.7134,37.7588,3.134,0.3223,-0.147,247.2503
20:39:16:213,1.8014,-4.1729,7.2631,36.778,3.1244,0.0933,0.0362,247.6554
20:39:16:233,1.7679,-4.264,6.8127,37.653,3.0636,-0.1464,0.1928,247.7899
20:39:16:254,2.0601,-4.3789,6.4774,36.8156,2.955,-0.3169,0.2439,247.5958
20:39:16:280,2.3284,-4.4364,6.0654,36.6113,2.7217,-0.3435,0.1928,247.1227
20:39:16:298,2.52,-4.3454,5.6917,37.9202,2.3648,-0.2306,0.0777,246.5634
20:39:16:316,2.4769,-4.1154,5.3563,36.1177,1.9504,0.007,-0.0586,246.0902
20:39:16:336,2.3428,-3.8855,5.0305,35.8541,1.5222,0.2797,-0.1865,245.7921
20:39:16:356,2.2134,-3.8759,4.8101,34.5251,1.1558,0.4011,-0.3058,245.6351
20:39:16:375,2.2853,-4.2879,4.7957,34.3958,0.8596,0.301,-0.4187,245.5317
20:39:16:397,2.4338,-4.7957,5.0688,35.919,0.5187,0.1454,-0.5007,245.622
20:39:16:415,2.3667,-5.0688,6.0654,34.5505,0.1054,0.0528,-0.4826,245.823
20:39:16:436,2.2805,-4.882,6.8559,34.4637,-0.2568,0.1518,-0.3462,246.1037
20:39:16:455,2.3092,-4.2017,7.0235,32.8503,-0.6445,0.2094,-0.2035,246.4109
20:39:16:475,3.1524,-3.9813,8.1877,33.8025,-0.9183,-0.0356,-0.1918,246.5498
20:39:16:496,4.2352,-4.5658,8.8154,32.5716,-0.9961,-0.2338,-0.4474,246.5295
20:39:16:516,3.8376,-5.0784,8.4417,31.5349,-1.2858,-0.1848,-0.7649,246.5512
20:39:16:538,3.3776,-5.6629,8.801,32.9572,-1.7695,-0.0442,-0.9822,246.9134
20:39:16:556,2.5919,-5.8018,9.0645,31.6469,-2.2147,0.1657,-1.1505,247.5739
20:39:16:576,1.7679,-5.7491,9.74,31.9552,-2.5396,0.105,-1.1409,248.4893
20:39:16:597,1.8924,-5.8689,10.6599,29.3485,-2.6238,-0.1475,-0.9439,249.6107
20:39:16:617,2.2278,-5.8018,10.8851,28.7843,-2.6696,-0.3606,-0.636,250.7473
20:39:16:639,2.1128,-5.2796,10.8851,28.6397,-2.7261,-0.4543,-0.2578,251.6483
20:39:16:665,2.1224,-4.0436,10.4587,26.4513,-2.7783,-0.2572,0.1246,252.1704
20:39:16:681,2.9225,-2.453,9.6921,26.6035,-2.8443,0.204,0.2109,252.2347
20:39:16:700,3.1477,-1.1402,8.6477,26.9076,-2.807,0.6195,-0.081,251.9684
20:39:16:721,2.7788,-0.4887,7.723,25.977,-2.6259,0.7068,-0.5178,251.8119
20:39:16:738,2.3859,-0.5462,7.3493,26.7895,-2.334,0.5183,-0.9236,252.2147
20:39:16:762,1.993,-1.1019,7.2343,26.7333,-2.0496,0.2477,-1.2091,253.2189
20:39:16:781,1.6625,-1.9499,7.4547,28.0671,-1.8813,0.0592,-1.3614,254.564
20:39:16:798,1.1929,-2.9608,7.9578,27.2072,-1.8355,-0.0048,-1.3902,256.0609
20:39:16:821,0.6372,-3.6795,8.6189,26.446,-1.8643,0.0666,-1.2538,257.5857
20:39:16:841,0.5126,-4.0052,9.1316,25.8395,-1.9367,0.2349,-1.0142,259.0743
20:39:16:864,0.5222,-4.0196,9.649,26.484,-2.0613,0.5279,-0.783,260.4417
20:39:16:880,0.4503,-3.4112,9.9364,24.6679,-2.1487,0.8357,-0.5785,261.7012
20:39:16:899,0.9774,-3.1381,10.2191,24.804,-2.0784,0.775,-0.5284,262.9826
20:39:16:917,1.3798,-3.4878,11.2444,24.32,-1.9047,0.2136,-0.6019,264.3211
20:39:16:941,1.8493,-4.0819,13.4291,25.5007,-1.6981,-0.2721,-0.5454,265.5876
20:39:16:964,2.6686,-3.7705,15.7095,25.4827,-1.4254,-0.2125,-0.3771,266.5176
20:39:16:982,4.1586,-2.9512,16.7204,23.9774,-1.0376,0.3106,-0.4826,267.0725
20:39:17:000,4.767,-2.5009,16.7109,24.3032,-0.6658,0.5918,-1.0621,267.6053
20:39:17:019,4.1633,-2.7452,17.784,22.2904,-0.26,0.6056,-1.5457,268.6587
20:39:17:041,3.3824,-2.5584,18.2679,23.0529,0.2311,0.9966,-1.4893,270.4781
20:39:17:066,3.1524,-1.3415,17.5109,23.9038,0.8234,1.6198,-1.0536,272.7558
20:39:17:081,3.8807,-1.0828,16.6438,23.2478,1.7044,1.7167,-0.8214,275.337
20:39:17:098,4.3646,-2.2422,15.8054,21.9669,2.6162,1.2927,-0.849,278.0661
20:39:17:118,4.4891,-4.2113,15.6904,25.0891,3.2128,0.9199,-0.7297,280.5883
20:39:17:141,4.47,-5.7156,15.4508,25.5898,3.5483,0.7867,-0.375,282.6703
20:39:17:165,3.9334,-6.463,14.8184,24.7144,3.7529,0.8059,0.0543,284.2628
20:39:17:182,3.2579,-6.6115,13.5105,23.5134,3.9521,0.8208,0.376,285.274
20:39:17:201,2.4721,-6.5301,11.4743,25.4714,4.082,0.808,0.5486,285.7313
20:39:17:222,2.0409,-6.2522,9.3184,26.727,4.0384,0.7313,0.7148,285.7103
20:39:17:248,1.4756,-5.8977,7.8141,26.6875,3.8392,0.5534,0.8607,285.3791
20:39:17:266,1.0157,-5.6342,6.9229,26.5768,3.6879,0.2435,1.062,284.7277
20:39:17:281,0.7666,-5.3611,6.0366,26.3243,3.575,-0.1177,1.2687,283.9338
20:39:17:299,0.7234,-5.3036,5.4809,28.0125,3.4003,-0.4234,1.4274,282.8533
20:39:17:319,0.7666,-5.2892,5.3275,28.3418,3.119,-0.4649,1.5616,281.5416
20:39:17:340,1.169,-5.0784,5.0593,28.9558,2.7675,-0.2604,1.6256,280.0908
20:39:17:364,1.672,-4.5993,4.2927,28.9909,2.3638,-0.0101,1.5371,278.3103
20:39:17:382,1.9882,-4.0963,3.5118,32.1079,1.9206,0.0687,1.323,276.476
20:39:17:401,2.0889,-3.7753,3.1764,30.9812,1.4988,-0.0218,1.0397,274.8761
20:39:17:423,2.1895,-3.7609,3.1572,30.3668,1.1046,-0.2572,0.7297,273.383
20:39:17:441,2.1559,-4.1442,3.5501,33.2164,0.654,-0.4394,0.3941,272.2269
20:39:17:465,1.8924,-4.7143,4.4316,32.6245,0.0766,-0.4341,0.1576,271.5284
20:39:17:483,1.5427,-5.2078,6.2091,32.9916,-0.4666,-0.3041,0.1086,271.2869
20:39:17:504,1.1834,-5.2269,7.4164,33.389,-0.7852,-0.0921,0.3238,271.2906
20:39:17:520,1.8541,-4.9874,7.953,33.7003,-0.9311,-0.1411,0.5827,271.2701
20:39:17:546,3.2531,-5.1024,8.2357,34.9832,-1.0845,-0.2977,0.5741,270.9177
20:39:17:588,3.8088,-5.3419,8.0344,34.7103,-1.4967,-0.1741,0.3536,270.2744
20:39:17:591,3.895,-5.4952,8.3075,34.4077,-2.0901,0.0506,0.0383,269.6898
20:39:17:605,2.8362,-5.2078,8.595,33.0244,-2.595,0.3468,-0.2546,269.3089
20:39:17:620,2.2517,-4.8724,9.2418,34.2441,-2.8816,0.3553,-0.4219,269.507
20:39:17:641,2.6254,-5.0066,9.9987,34.2776,-2.97,0.04,-0.5859,269.7826
20:39:17:660,3.5022,-5.4617,10.8228,34.6491,-3.0851,-0.2668,-0.7255,270.3435
20:39:17:680,4.4748,-5.591,11.4504,34.2765,-3.4004,-0.1155,-0.9779,271.1425
20:39:17:702,4.1394,-5.0784,11.8001,37.0879,-3.8297,0.4011,-1.354,272.1205
20:39:17:722,3.4543,-4.0867,12.1067,37.6267,-4.0236,0.8624,-1.5894,273.4155
20:39:17:742,3.3633,-2.7356,11.9918,38.4972,-3.786,1.1404,-1.8025,275.6609
20:39:17:764,2.6398,-1.581,10.9857,38.421,-3.1926,1.2256,-2.1252,278.0723
20:39:17:782,1.1211,-1.2217,9.2418,39.4554,-2.6835,1.2437,-2.4363,280.9551
20:39:17:801,-0.7282,-1.3031,8.5519,40.1222,-2.4161,1.2011,-2.448,284.269
20:39:17:821,-1.5571,-1.4996,8.9926,41.5129,-2.0912,0.9742,-2.0901,287.9854
20:39:17:845,-1.2744,-1.6577,9.1795,41.1977,-1.6374,0.6653,-1.5084,291.708
20:39:17:861,-0.4264,-1.7247,8.9495,41.7073,-1.2837,0.2861,-0.9385,294.9449
20:39:17:882,0.5318,-1.993,9.213,42.4173,-1.0813,-0.0985,-0.5433,297.3795
20:39:17:902,1.4229,-2.4099,10.0179,43.1806,-0.9652,-0.3137,-0.31,298.9951
20:39:17:923,2.2182,-2.6254,10.5736,44.7463,-0.946,-0.2466,-0.2003,299.9742
20:39:17:948,2.9273,-2.5488,10.6838,44.4516,-1.0078,-0.0271,-0.1726,300.5556
20:39:17:963,3.4926,-2.5057,10.9138,45.901,-1.1292,0.0901,-0.3271,301.0936
20:39:17:983,3.2004,-2.5057,11.527,46.2124,-1.2304,0.0922,-0.5476,301.737
20:39:18:002,2.4434,-2.7117,12.5715,46.2778,-1.2091,0.0219,-0.6626,303.0005
20:39:18:022,1.5379,-2.8937,13.6063,47.2849,-1.0643,0.0261,-0.6168,304.5105
20:39:18:045,0.9774,-3.071,14.4304,47.7841,-0.8416,0.0719,-0.4304,306.0698
20:39:18:064,0.6037,-3.1908,15.1011,48.4636,-0.522,0.0102,-0.1779,307.653
20:39:18:083,0.4695,-3.1716,15.2784,47.8519,-0.1492,-0.0921,0.1576,309.0858
20:39:18:103,0.5126,-2.7261,15.2161,49.5079,0.246,-0.1475,0.6018,310.254
20:39:18:128,1.0684,-1.926,14.6987,50.306,0.7062,-0.2125,1.0216,310.9904
20:39:18:143,1.8685,-1.5954,14.5166,51.1441,1.2665,-0.5214,1.2016,310.9249
20:39:18:165,2.4051,-2.3715,14.8568,51.9273,1.8556,-0.9454,1.1355,310.4099
20:39:18:184,2.1943,-3.9525,15.5514,52.5386,2.3606,-1.216,1.012,309.4732
20:39:18:204,1.4756,-5.409,16.2174,52.5416,2.7728,-1.0306,1.0642,308.2708
20:39:18:232,0.9055,-5.9216,15.494,51.9721,3.1329,-0.3584,1.3145,306.9794
20:39:18:243,1.0971,-5.5623,13.132,52.8584,3.477,0.1934,1.519,305.7073
20:39:18:264,1.6146,-5.0209,10.4347,51.9981,3.689,0.3244,1.5457,304.5218
20:39:18:285,2.199,-4.6808,8.8729,51.1429,3.7252,0.1785,1.4732,303.2944
20:39:18:307,2.6302,-4.4987,8.3027,49.4838,3.673,0.0304,1.3294,301.9796
20:39:18:328,2.7165,-4.5131,8.0153,49.9554,3.6389,-0.123,1.1345,300.566
20:39:18:344,2.5105,-4.743,7.6991,50.0303,3.6123,-0.2956,0.9129,299.1806
20:39:18:364,2.247,-5.0497,7.2727,50.8718,3.4983,-0.4181,0.6935,298.1223
20:39:18:384,2.0218,-5.2461,7.0715,50.3793,3.2873,-0.4319,0.5092,297.2176
20:39:18:405,1.8589,-5.2365,6.9325,50.4264,3.0328,-0.3467,0.3675,296.53
20:39:18:429,1.7295,-5.1455,7.2823,48.2011,2.825,-0.2647,0.2833,296.0041
20:39:18:446,1.6673,-5.0928,7.5793,49.2533,2.7228,-0.0964,0.2759,295.6109
20:39:18:466,2.0266,-4.997,7.3493,49.9494,2.6407,0.0411,0.2258,295.2668
20:39:18:486,2.3332,-5.0401,6.2043,48.3422,2.4703,0.0933,0.0799,294.9161
20:39:18:506,2.5775,-4.882,4.4125,49.4211,1.9355,-0.0111,-0.1172,294.5015
20:39:18:529,2.7548,-4.5514,4.1202,48.7324,1.0396,-0.2253,-0.3058,294.218
20:39:18:547,2.5296,-4.3071,5.9408,49.5797,0.2407,-0.3648,-0.3931,294.222
20:39:18:566,2.9943,-4.5131,8.389,48.1911,-0.1577,-0.4064,-0.4251,294.5198
20:39:18:587,3.8088,-5.1647,9.625,47.9304,-0.3846,-0.1858,-0.6062,294.9408
20:39:18:607,3.4543,-5.3228,8.4944,46.7772,-0.8448,0.5609,-0.8267,295.3733
20:39:18:631,2.1176,-4.7095,7.1912,47.1732,-1.5234,1.1681,-0.9609,295.8872
20:39:18:648,1.1019,-3.6842,6.9086,49.4123,-2.0113,1.3119,-0.9034,296.3941
20:39:18:667,1.6385,-3.3585,7.7805,47.9188,-2.1327,0.6951,-0.783,296.8841
20:39:18:688,2.7213,-3.7849,8.7531,48.697,-2.0912,-0.123,-0.6498,297.3889
20:39:18:707,2.9752,-4.0723,9.3376,48.4563,-2.2115,-0.6162,-0.5018,297.9747
20:39:18:733,2.5248,-3.9334,9.8933,48.3669,-2.4193,-0.5885,-0.3377,298.6346
20:39:18:748,1.9643,-3.301,9.419,49.0647,-2.5546,-0.1869,-0.1747,299.2155
20:39:18:766,1.696,-2.5153,8.1398,47.7142,-2.5886,0.105,-0.1151,299.5674
20:39:18:787,1.6146,-1.9882,6.9181,47.5657,-2.5535,0.0879,-0.179,299.7273
20:39:18:815,1.4277,-1.8541,6.1803,49.9614,-2.5301,-0.1592,-0.2429,299.839
20:39:18:831,1.696,-1.3271,6.578,49.9231,-2.5599,-0.4458,-0.2355,300.0919
20:39:18:847,2.7883,-1.2648,8.6381,48.0798,-2.5343,-0.4681,-0.2717,300.4164
20:39:18:868,2.9752,-0.8624,10.382,48.7979,-1.9537,-0.5789,-0.4027,300.7069
20:39:18:888,2.9129,-1.2648,9.7975,50.587,-1.1569,-0.7813,-0.4006,301.0273
20:39:18:912,3.2195,-1.8589,7.3924,50.7858,-1.0717,-0.7845,-0.5167,301.5032
20:39:18:929,2.9848,-2.3284,7.3829,52.954,-1.7471,-0.5938,-0.75,301.9122
20:39:18:948,2.2613,-2.6254,9.9221,53.3367,-2.3223,-0.1571,-0.9609,302.3002
20:39:18:968,1.8781,-2.4242,11.4791,52.5842,-2.4257,0.2616,-1.0546,302.9841
20:39:18:989,2.0362,-2.2086,11.666,54.4011,-2.3649,0.334,-1.142,304.1282
20:39:19:014,1.9882,-2.2326,12.4182,54.9759,-2.3255,0.0656,-1.1356,305.6028
20:39:19:031,2.0409,-2.1511,14.21,56.307,-2.2126,-0.0868,-0.9236,307.2392
20:39:19:049,2.2278,-1.7774,15.5946,54.3873,-1.9378,0.0197,-0.6008,308.7387
20:39:19:067,2.865,-1.0732,16.3803,55.9173,-1.5298,0.1593,-0.4208,310.0333
20:39:19:087,3.4974,-0.8528,16.7875,57.4384,-1.0674,0.1817,-0.4421,311.0934
20:39:19:112,3.7034,-0.9342,16.8785,56.571,-0.6914,0.3606,-0.4773,312.0424
20:39:19:131,3.4495,-0.7474,16.1551,56.802,-0.358,0.6983,-0.391,313.0579
20:39:19:150,2.9608,-0.1725,14.6699,57.1872,0.034,0.9391,-0.1694,314.148
20:39:19:170,2.4817,0.3833,12.5715,54.8498,0.4729,0.9337,0.1022,315.3562
20:39:19:190,2.1511,0.3402,11.1965,55.1169,0.8905,0.3457,0.3334,316.4888
20:39:19:215,2.1463,-0.5893,11.8959,54.1346,1.2463,-0.6269,0.5124,317.2675
20:39:19:230,2.2086,-2.0409,14.0375,53.0049,1.5797,-1.2532,0.6775,317.3805
20:39:19:248,1.7008,-3.3441,15.5706,52.9023,1.8397,-1.151,0.8895,316.662
20:39:19:269,1.1355,-3.7322,15.4604,50.986,2.0772,-0.5129,1.1345,315.4076
20:39:19:291,0.9965,-3.3297,13.362,50.4044,2.3414,0.0815,1.2623,313.9778
20:39:19:313,1.1834,-2.9033,10.8036,48.8256,2.5257,0.2743,1.2335,312.6258
20:39:19:330,1.1019,-2.8315,9.1843,47.9533,2.6024,0.1518,1.1696,311.3957
20:39:19:351,0.848,-3.095,8.5471,47.4179,2.6311,-0.0335,1.1792,310.2076
20:39:19:370,0.733,-3.4207,8.1159,45.6005,2.6354,-0.1699,1.2453,308.9871
20:39:19:397,0.7474,-3.6938,7.8572,45.0909,2.6226,-0.2913,1.3113,307.6317
20:39:19:413,0.872,-3.9382,7.7039,44.0694,2.6066,-0.3637,1.3294,306.1048
20:39:19:429,1.0923,-4.0771,7.4499,43.6093,2.5971,-0.4394,1.2793,304.4243
20:39:19:451,1.399,-4.264,7.1864,43.3789,2.5736,-0.5331,1.1217,302.6516
20:39:19:470,1.5092,-4.6376,7.0667,42.3318,2.433,-0.5054,0.8788,300.9075
20:39:19:497,1.3319,-5.0545,7.1912,42.0976,2.1731,-0.2615,0.6604,299.3488
20:39:19:514,1.2696,-5.1838,7.1769,42.4387,1.894,0.0166,0.5188,298.0679
20:39:19:532,1.6625,-5.0928,7.4643,43.531,1.6841,0.1167,0.3781,297.0419
20:39:19:553,2.2997,-4.9826,8.3123,41.7354,1.5978,0.0219,0.2173,296.1404
20:39:19:573,3.368,-4.9347,9.6202,39.8604,1.6863,-0.1997,0.0287,295.3741
20:39:19:599,4.2496,-4.8772,9.5292,41.0502,1.7651,-0.2977,-0.26,294.8606
20:39:19:645,4.1538,-4.858,8.2261,40.6551,1.4136,-0.2519,-0.6584,294.5188
20:39:19:648,3.7753,-5.3611,8.1159,41.1316,0.6306,-0.0719,-1.0621,294.5313
20:39:19:661,2.7979,-5.6821,8.6716,40.1965,-0.1566,0.4427,-1.3252,295.0092
20:39:19:672,1.2936,-4.9155,8.3938,39.1334,-0.7074,1.0328,-1.3146,295.8776
20:39:19:697,0.0671,-3.4255,7.4883,38.0133,-0.9961,1.3353,-1.0696,296.9684
20:39:19:713,0.6276,-2.7165,7.0283,38.9199,-1.0664,0.9476,-0.8192,297.9515
20:39:19:733,2.2517,-3.3153,7.541,39.4788,-1.0951,0.1263,-0.718,298.6682
20:39:19:752,3.1333,-4.0052,8.3985,38.2946,-1.1484,-0.5757,-0.5955,299.2357
20:39:19:774,3.2483,-3.9142,7.9674,38.1371,-1.3082,-0.8825,-0.4549,299.838
20:39:19:793,2.6542,-3.3345,7.1433,36.987,-1.6736,-0.8346,-0.343,300.3965
20:39:19:814,2.017,-2.5105,6.7265,36.1044,-2.1253,-0.4713,-0.2855,300.8546
20:39:19:833,2.0218,-1.7391,6.554,37.9472,-2.4161,-0.1166,-0.3526,301.166
20:39:19:855,2.1751,-1.1929,6.2809,37.5068,-2.4395,-0.0282,-0.5316,301.4008
20:39:19:874,2.0649,-0.8049,6.0222,36.8916,-2.3585,-0.205,-0.6339,301.7419
20:39:19:899,1.9835,-0.6803,6.1755,37.5135,-2.2914,-0.3978,-0.5913,302.3129
20:39:19:916,1.8445,-0.618,7.2535,36.2059,-2.2286,-0.4415,-0.489,303.0241
20:39:19:933,2.132,-0.4839,8.8633,36.1683,-1.9516,-0.351,-0.3644,303.6871
20:39:19:956,2.3092,-0.6659,9.2849,36.1711,-1.5021,-0.2785,-0.3388,304.2347
20:39:19:973,3.0279,-0.9821,8.4752,37.6006,-1.2954,-0.2721,-0.2717,304.6701
20:39:20:000,4.1586,-1.7966,8.159,37.9243,-1.4999,-0.2391,-0.2738,305.0509
20:39:20:015,3.301,-2.2517,8.7339,37.8158,-1.8525,-0.2029,-0.2717,305.3044
20:39:20:034,2.5392,-2.1511,10.3676,37.6907,-2.1274,-0.1113,-0.2014,305.5218
20:39:20:055,2.4626,-2.1368,12.078,37.7743,-2.1956,0.0134,-0.2014,305.7722
20:39:20:080,2.1703,-2.2565,12.9739,38.919,-2.0763,-0.0325,-0.049,306.0346
20:39:20:099,2.75,-2.2278,13.8267,39.4771,-1.925,-0.2157,0.2578,306.3833
20:39:20:116,3.3824,-1.8397,15.1203,36.963,-1.6853,-0.3691,0.4964,306.5879
20:39:20:138,3.7705,-1.4804,16.0114,37.2965,-1.3529,-0.5097,0.5411,306.3577
20:39:20:156,3.8519,-1.466,17.1516,36.981,-1.028,-0.547,0.4293,305.841
20:39:20:176,3.5501,-1.4469,17.6643,36.4563,-0.6456,-0.1933,0.4197,305.2394
20:39:20:198,3.1668,-0.8193,16.2653,36.7673,-0.2152,0.2893,0.5795,304.7297
20:39:20:218,3.2818,0.024,13.9704,36.1752,0.2396,0.4331,0.7414,304.4853
20:39:20:236,3.7992,0.0623,12.9547,36.3438,0.7052,-0.0069,0.6977,304.3831
20:39:20:257,3.8136,-1.0061,13.8459,33.514,1.2058,-0.6695,0.6072,304.167
20:39:20:277,3.3393,-2.4865,14.7801,35.0585,1.6948,-0.9901,0.6413,303.6741
20:39:20:298,2.5009,-3.368,14.5693,31.9926,2.009,-0.7568,0.7904,302.8013
20:39:20:323,1.7487,-3.4064,13.2614,32.264,2.221,-0.27,0.9736,301.6732
20:39:20:343,1.5283,-2.9321,11.2779,29.62,2.449,0.0155,1.0706,300.4977
20:39:20:359,1.9116,-2.5009,9.3711,29.6366,2.6567,-0.0143,1.0631,299.3833
20:39:20:377,2.1368,-2.4242,8.0009,29.1608,2.7611,-0.1763,1.0098,298.2946
20:39:20:399,2.247,-2.3859,7.1146,28.4577,2.7505,-0.2966,0.947,297.1285
20:39:20:420,2.3045,-2.4817,6.8894,29.2201,2.6791,-0.3733,0.8245,295.8921
20:39:20:438,2.1559,-2.7931,6.9948,28.0935,2.5875,-0.3371,0.6881,294.6185
20:39:20:460,2.0841,-3.2674,7.3397,29.0943,2.5374,-0.3243,0.5614,293.4659
20:39:20:482,1.9595,-3.828,7.3877,28.1916,2.5417,-0.3275,0.4378,292.4875
20:39:20:501,1.7152,-4.2352,6.8559,28.1016,2.4149,-0.302,0.3494,291.6588
20:39:20:522,1.49,-4.5322,6.76,27.9346,2.1305,-0.2998,0.2684,290.9476
20:39:20:538,1.1211,-4.7478,7.2152,27.7818,1.8088,-0.1805,0.2418,290.3412
20:39:20:559,0.8911,-4.8245,7.4212,27.4925,1.5126,0.057,0.3206,289.85
20:39:20:584,1.1594,-4.8676,7.2487,28.6998,1.2591,0.1508,0.3504,289.3822
20:39:20:601,1.5092,-5.088,7.1577,29.3975,0.9928,0.0006,0.2642,288.8062
20:39:20:620,1.7391,-5.4809,7.541,28.7824,0.6018,-0.0868,0.1747,288.188
20:39:20:644,1.5954,-5.6773,8.1398,27.5607,0.1256,0.0357,0.1512,287.6666
20:39:20:660,1.6625,-5.821,9.2226,28.1093,-0.2259,0.0197,0.1544,287.2694
20:39:20:681,2.0793,-6.0606,9.8167,28.5379,-0.408,-0.0474,0.0532,286.8871
20:39:20:699,2.0505,-5.9839,9.4478,28.6111,-0.6669,0.0762,-0.1204,286.505
20:39:20:720,1.4133,-5.1886,8.9256,27.2808,-1.0025,0.3926,-0.2738,286.2322
20:39:20:738,1.2936,-4.2496,8.9687,30.1782,-1.2145,0.5588,-0.3399,286.1895
20:39:20:759,2.199,-3.8998,9.3519,29.2345,-1.1623,0.3202,-0.3995,286.418
20:39:20:780,3.3058,-3.8663,9.3232,28.7207,-1.0238,-0.1038,-0.5209,286.7638
20:39:20:799,4.3502,-3.7322,8.9256,28.6586,-1.0888,-0.2242,-0.8011,287.1644
20:39:20:821,4.5897,-3.5357,8.7675,29.0382,-1.485,0.4267,-1.2144,287.7539
20:39:20:841,3.4112,-3.047,8.1877,28.7918,-1.9729,1.4962,-1.5266,288.6915
20:39:20:866,2.0218,-2.1799,7.1625,28.442,-2.1551,2.0704,-1.6416,290.2018
20:39:20:883,0.939,-1.5858,5.7779,28.9045,-1.9836,1.9298,-1.6182,292.1642
20:39:20:901,0.0958,-1.2552,4.6089,28.8026,-1.7194,1.1777,-1.4626,294.4124
20:39:20:920,-0.3881,-1.3079,4.7287,30.1185,-1.5532,0.2605,-1.1622,296.7115
20:39:20:942,-0.1437,-1.5619,6.1133,29.6723,-1.4882,-0.1262,-0.7393,298.6862
20:39:20:966,1.0253,-1.5858,7.0475,31.7361,-1.5564,0.2424,-0.408,300.1641
20:39:20:983,2.0026,-1.5092,7.105,30.134,-1.6949,0.7985,-0.3984,301.0722
20:39:21:001,2.1128,-1.6625,6.693,31.3172,-1.7034,0.7644,-0.5337,301.7205
20:39:21:021,1.8301,-1.9835,6.5397,31.9917,-1.6406,0.0805,-0.6381,302.5497
20:39:21:039,1.7487,-2.4913,7.5314,33.3023,-1.6991,-0.6045,-0.7052,303.508
20:39:21:060,1.2888,-3.0087,9.5148,31.3473,-1.8834,-0.7153,-0.6882,304.3995
20:39:21:081,0.8528,-3.5645,11.6324,30.9548,-2.0145,-0.3946,-0.5593,305.0758
20:39:21:099,0.642,-3.7657,12.629,32.2418,-2.0166,-0.1006,-0.3633,305.6034
20:39:21:120,1.054,-3.5166,13.223,32.2268,-1.9431,-0.1017,-0.1609,306.1335
20:39:21:141,1.6385,-3.2195,14.0135,31.747,-1.8046,-0.1454,-0.065,306.6542
20:39:21:162,2.017,-3.0854,15.0484,33.5978,-1.6161,-0.1688,-0.1225,307.058
20:39:21:183,2.3092,-3.5549,16.4521,33.3147,-1.3593,-0.3137,-0.3473,307.34
20:39:21:199,1.9451,-4.0484,17.8751,33.1353,-1.076,-0.3201,-0.4687,307.6929
20:39:21:219,1.5139,-3.598,18.3877,32.7907,-0.7596,0.0645,-0.2472,308.1429
20:39:21:240,1.3702,-1.8541,17.3528,34.6881,-0.2813,0.6802,0.148,308.7383
20:39:21:262,1.8254,-0.5701,15.47,35.4608,0.425,0.7718,0.2684,309.4368
20:39:21:283,1.8014,-1.0157,14.0758,35.7631,1.2069,0.1327,0.0873,310.2015
20:39:21:301,1.3127,-2.7548,13.7596,34.8525,1.813,-0.6205,0.0096,310.81
20:39:21:323,0.3641,-4.4795,14.0327,35.7659,2.2263,-0.8069,0.2556,311.0843
20:39:21:342,-0.9294,-5.3946,13.4865,36.9564,2.4777,-0.4085,0.8426,310.9094
20:39:21:366,-1.3127,-5.2605,11.757,38.1148,2.6727,0.0656,1.5553,310.354
20:39:21:383,-0.0958,-4.4795,9.2082,37.9565,2.8197,0.2722,1.9931,309.4505
20:39:21:399,0.8911,-3.5932,7.0619,38.1777,2.8389,0.1018,2.0847,308.0159
20:39:21:422,1.2456,-3.3153,6.0174,37.0828,2.8282,-0.3361,2.0708,306.1508
20:39:21:444,1.4852,-3.1524,5.7204,37.8343,2.7568,-0.7451,1.9632,304.0318
20:39:21:461,1.3463,-3.3249,6.166,38.3821,2.678,-1.0008,1.8056,301.703
20:39:21:482,1.4708,-3.6459,6.2522,38.8401,2.5843,-1.0221,1.5979,299.3164
20:39:21:502,1.5954,-3.9525,6.1564,38.1636,2.3797,-0.9454,1.3507,297.1434
20:39:21:523,1.5666,-4.2687,6.2522,39.7719,2.0932,-0.8314,1.0929,295.1324
20:39:21:543,1.4804,-4.4748,6.5924,39.2139,1.764,-0.71,0.8948,293.4238
20:39:21:565,1.5762,-4.6424,7.22,38.2441,1.4412,-0.629,0.7254,292.1038
20:39:21:581,1.7152,-4.9299,8.1015,38.484,1.1728,-0.5246,0.5475,291.0519
20:39:21:602,1.7966,-5.1742,8.9064,39.1522,0.9725,-0.3424,0.3558,290.1483
20:39:21:621,1.672,-5.2701,8.983,39.4146,0.834,-0.057,0.1757,289.4412
20:39:21:647,1.6816,-5.2221,8.4225,39.6995,0.6743,0.0986,0.0085,288.9981
20:39:21:680,1.5427,-5.1934,7.8572,40.2068,0.4431,0.1241,-0.1801,288.731
20:39:21:683,1.4133,-5.318,7.747,39.3185,0.1597,0.0389,-0.3249,288.655
20:39:21:702,1.5331,-5.821,8.1255,39.8503,-0.0863,-0.1688,-0.5167,288.8961
20:39:21:724,1.0444,-6.2378,8.2117,41.3289,-0.424,-0.1081,-0.7553,289.2832
20:39:21:748,-0.2348,-5.9887,8.0057,38.4809,-0.8895,0.3958,-0.8874,289.9215
20:39:21:763,-1.5092,-5.1024,7.8141,40.6792,-1.2358,0.8357,-0.8629,290.8707
20:39:21:784,-1.3031,-4.5131,8.0488,40.4361,-1.3551,0.7953,-0.7638,291.8643
20:39:21:803,0.8815,-4.3789,9.0357,39.3506,-1.3998,0.5716,-0.7969,292.8921
20:39:21:823,3.5309,-4.0244,9.7496,39.8138,-1.5447,0.6174,-1.1782,293.8298
20:39:21:847,4.3502,-3.6124,9.4573,41.9021,-1.8121,1.1329,-1.7929,294.8123
20:39:21:863,2.9848,-3.2147,8.6094,40.3623,-2.0784,1.7923,-2.1071,296.277
20:39:21:884,1.5092,-2.4099,7.7661,42.3273,-2.0677,2.179,-2.0453,298.6626
20:39:21:906,0.7809,-1.7918,6.3289,42.8315,-1.7173,1.9244,-1.9708,301.4698
20:39:21:925,0.2012,-1.672,4.4508,42.7387,-1.3924,1.199,-2.0038,304.3716
20:39:21:948,-0.6707,-2.0409,3.6795,43.3601,-1.3764,0.317,-1.9569,307.1806
20:39:21:963,-1.6912,-2.6781,4.6568,42.7395,-1.4637,-0.3787,-1.6352,309.8762
20:39:21:984,-2.0074,-3.162,6.3049,42.9189,-1.5798,-0.5992,-1.0536,312.2746
20:39:22:006,-1.1882,-3.1764,7.5458,44.8345,-1.6768,-0.417,-0.4272,314.0913
20:39:22:026,0.0814,-2.9704,7.8476,44.7721,-1.8003,-0.188,-0.0597,315.1484
20:39:22:049,0.963,-2.5871,8.274,43.4548,-2.0241,-0.1784,0.0436,315.5935
20:39:22:065,1.1498,-2.3476,9.8263,43.5027,-2.121,-0.5012,0.0479,315.6998
20:39:22:087,1.1355,-2.0457,11.848,44.2744,-1.9442,-0.7483,0.1214,315.7051
20:39:22:107,1.5714,-2.0457,12.9691,44.2723,-1.6896,-0.6652,0.0703,315.5334
20:39:22:131,1.3846,-2.223,13.6207,44.6527,-1.6022,-0.3797,-0.1023,315.1549
20:39:22:147,1.2265,-2.2709,14.7514,46.3346,-1.5287,-0.0016,-0.1577,314.9424
20:39:22:165,1.4085,-1.8589,15.3502,46.3302,-1.2453,0.3148,-0.1651,315.0926
20:39:22:186,1.926,-1.3702,15.4269,45.5648,-0.8427,0.4767,-0.3164,315.5301
20:39:22:205,1.902,-1.6337,15.3981,48.0159,-0.4102,0.5172,-0.6669,316.2023
20:39:22:229,1.169,-2.2182,15.0819,46.7753,-0.0842,0.5822,-0.8522,317.042
20:39:22:248,0.7139,-2.6734,14.8136,47.1711,0.1768,0.71,-0.668,318.2314
20:39:22:266,0.6132,-2.8171,14.1717,48.1415,0.4825,0.6259,-0.3122,319.6141
20:39:22:287,0.5941,-3.368,13.9081,47.6881,0.8234,0.0666,0.0117,320.9305
20:39:22:307,0.4551,-4.4987,14.6316,49.6205,1.1462,-0.6737,0.2876,321.8263
20:39:22:325,-0.1198,-5.5431,15.7239,47.6056,1.3944,-1.0764,0.6114,322.0373
20:39:22:346,-0.8672,-5.6773,15.7958,46.5109,1.5925,-0.8506,1.0876,321.4896
20:39:22:366,-0.733,-4.652,13.9896,46.677,1.7992,-0.2902,1.5648,320.3911
20:39:22:388,0.0671,-3.3776,11.2108,47.1379,2.0548,-0.0282,1.6969,318.9227
20:39:22:407,0.412,-2.6015,8.9878,46.5061,2.2658,-0.1976,1.5829,317.3022
20:39:22:428,0.3737,-2.4578,7.9051,45.7422,2.416,-0.4873,1.4807,315.6354
20:39:22:447,0.2635,-2.52,7.4547,45.815,2.5502,-0.7174,1.4615,313.9838
20:39:22:467,0.4887,-2.5871,7.1673,44.4776,2.6471,-0.8186,1.4093,312.2758
20:39:22:488,0.5605,-2.8123,7.0667,45.6737,2.6397,-0.7185,1.2751,310.6039
20:39:22:507,0.5845,-3.1764,7.1721,43.3972,2.6066,-0.5459,1.1142,308.9534
20:39:22:527,0.5414,-3.5357,6.9277,44.106,2.5704,-0.4277,0.9608,307.4601
20:39:22:547,0.5174,-3.8903,6.9325,42.6928,2.4767,-0.4138,0.8479,306.2018
20:39:22:568,0.7666,-4.4077,7.5793,42.8712,2.3499,-0.4298,0.719,305.1253
20:39:22:589,0.963,-4.9826,8.5471,41.6802,2.2178,-0.3606,0.523,304.2057
20:39:22:616,1.0636,-5.5,9.2992,42.2655,2.0548,-0.0889,0.3483,303.4138
20:39:22:633,1.5619,-6.0606,9.3855,40.3087,1.8578,0.2253,0.1214,302.8988
20:39:22:648,1.7056,-6.4103,8.7483,41.6807,1.5606,0.5183,-0.1992,302.5475
20:39:22:667,1.1834,-6.578,8.0296,40.037,1.1504,0.7218,-0.4379,302.4261
20:39:22:689,-0.0048,-6.3959,7.6607,41.3766,0.751,0.872,-0.4496,302.6374
20:39:22:709,-0.642,-5.8737,8.0153,41.2921,0.5326,0.7622,-0.2195,302.9804
20:39:22:732,0.024,-5.3563,9.1507,39.7884,0.7382,0.1614,-0.0043,303.346
20:39:22:749,0.7905,-4.9874,7.3302,41.3317,1.0237,-0.3158,0.0266,303.4576
20:39:22:768,1.2792,-4.6376,4.676,41.7727,0.5965,-0.7451,-0.2078,303.4216
20:39:22:790,0.6995,-4.8149,4.8868,39.9039,-0.2568,-1.1371,-0.6008,303.4517
20:39:22:808,0.1629,-4.2783,7.3637,40.5434,-0.9652,-1.4002,-0.8299,303.8191
20:39:22:830,1.3942,-3.5453,9.5005,40.0947,-1.272,-1.3907,-0.9843,304.7292
20:39:22:848,4.0819,-2.7452,9.7352,40.429,-1.5884,-0.9337,-1.2059,305.9428
20:39:22:869,5.9791,-2.5248,9.6873,39.3519,-1.9633,-0.0633,-1.5457,307.3235
20:39:22:890,5.088,-2.0841,8.4177,40.881,-2.2978,0.9817,-1.8642,308.8534
20:39:22:912,3.0997,-1.6146,6.9661,39.9296,-2.5652,1.3524,-2.1274,310.6837
20:39:22:929,1.2073,-1.5044,6.8654,41.2913,-2.48,1.1266,-2.2179,312.8506
20:39:22:950,-0.2683,-1.5762,5.7252,41.504,-2.2744,0.6365,-2.007,315.3705
20:39:22:970,-1.1067,-1.7439,5.2509,43.2786,-2.3266,0.1114,-1.6278,318.0883
20:39:22:990,-1.4804,-2.0074,6.2953,42.7106,-2.4129,-0.3169,-1.1207,320.5755
20:39:23:013,-1.2936,-2.2182,7.4547,42.9718,-2.4118,-0.6215,-0.5337,322.5885
20:39:23:030,-0.5414,-2.4099,8.6956,43.5541,-2.4214,-0.8836,-0.0128,323.9478
20:39:23:050,0.3018,-2.338,10.0802,43.8422,-2.4022,-1.0977,0.3707,324.5414
20:39:23:070,1.2217,-2.1511,12.1115,44.5825,-2.3969,-1.0487,0.5923,324.4334
20:39:23:091,1.6673,-1.399,13.9513,44.3771,-2.2318,-0.6471,0.6658,323.7856
20:39:23:113,2.1559,-0.3162,13.8842,43.626,-1.941,0.0219,0.555,322.8947
20:39:23:130,2.0314,0.1677,12.95,44.1224,-1.6438,0.4043,0.1981,322.1057
20:39:23:151,0.9247,-0.321,12.8877,43.8188,-1.3497,0.2051,-0.0693,321.7578
20:39:23:171,0.436,-1.2313,13.9608,44.1447,-1.0302,-0.0463,0.0128,322.0082
20:39:23:192,0.3976,-2.0122,14.6795,44.7399,-0.7106,-0.1443,0.1672,322.4453
20:39:23:216,0.4839,-2.75,15.3502,45.6456,-0.4954,-0.2018,0.2503,322.644
20:39:23:233,0.5893,-3.3106,16.3994,46.203,-0.326,-0.1379,0.3472,322.632
20:39:23:252,1.0013,-3.392,16.7731,45.6941,-0.1034,0.0016,0.4857,322.5116
20:39:23:271,1.3942,-2.5105,16.0353,44.2433,0.1225,0.2094,0.7137,322.341
20:39:23:292,2.1559,-1.054,14.6651,44.956,0.4229,0.366,0.9012,322.2839
20:39:23:314,2.5536,-0.3162,13.7932,45.5035,0.8916,0.0464,0.7329,322.1166
20:39:23:332,1.8541,-1.3606,13.8027,42.7238,1.3528,-0.5683,0.3536,321.8462
20:39:23:353,0.7043,-3.0135,14.2723,43.228,1.6426,-0.7206,0.2439,321.5327
20:39:23:373,-0.4983,-4.0771,14.2244,43.4364,1.8226,-0.3275,0.474,321.0561
20:39:23:391,-1.0875,-4.1298,13.0985,44.9374,2.0644,0.1774,0.9172,320.633
20:39:23:414,-0.5605,-3.6268,10.6024,45.035,2.3595,0.3628,1.2889,320.191
20:39:23:433,-0.0192,-3.1333,8.1015,43.4296,2.5278,0.1934,1.5105,319.5141
20:39:23:452,0.0767,-2.8889,6.5157,43.1188,2.5811,-0.1432,1.6969,318.484
20:39:23:474,0.4743,-2.5296,5.6917,44.0389,2.5278,-0.4511,1.7758,317.0769
20:39:23:498,0.5893,-2.5919,5.5958,43.3925,2.4618,-0.7057,1.7449,315.296
20:39:23:512,0.5989,-3.071,5.9025,43.7281,2.4213,-0.906,1.682,313.3249
20:39:23:532,0.5605,-3.6268,6.2378,44.1969,2.3126,-0.8996,1.6213,311.474
20:39:23:553,0.6228,-4.1394,6.5253,45.337,2.1283,-0.8101,1.567,309.6715
20:39:23:573,0.8528,-4.4268,6.6594,43.0098,1.8833,-0.743,1.5137,307.9606
20:39:23:601,1.1929,-4.4268,6.8367,43.8497,1.6106,-0.7323,1.4274,306.324
20:39:23:616,1.3942,-4.3358,7.1864,42.358,1.356,-0.7472,1.2932,304.7566
20:39:23:633,1.7152,-4.4125,7.5601,42.9963,1.1249,-0.71,1.1025,303.2822
20:39:23:654,2.0553,-4.6712,7.7039,43.6264,0.8926,-0.6801,0.7978,301.9666
20:39:23:676,2.2134,-5.1311,7.8572,43.8358,0.5411,-0.6769,0.4431,300.8479
20:39:23:727,2.1128,-5.4186,8.4225,44.9527,0.1022,-0.5054,0.1086,300.1106
20:39:23:730,1.4612,-5.2269,9.1316,43.9249,-0.2823,-0.1933,-0.1726,299.7575
20:39:23:742,1.1355,-5.203,9.7975,44.7042,-0.4901,0.0656,-0.44,299.6671
20:39:23:753,0.8767,-5.5863,9.8358,45.3398,-0.6286,0.3159,-0.767,299.8959
20:39:23:773,0.1821,-5.7683,9.1076,43.9062,-0.8991,0.7281,-1.0088,300.4276
20:39:23:798,-0.5126,-5.1694,8.571,46.0463,-1.2049,1.0626,-1.0269,301.3394
20:39:23:817,0.0096,-3.9765,8.4512,43.5384,-1.3316,1.2256,-0.8522,302.5136
20:39:23:835,2.7165,-2.9704,8.8106,45.6065,-1.3497,1.3513,-0.9364,303.7603
20:39:23:857,5.5336,-2.659,9.0453,44.8589,-1.4499,1.6059,-1.6672,304.8419
20:39:23:877,5.7875,-3.5214,9.2992,44.7013,-1.6683,1.8115,-2.6195,306.0713
20:39:23:896,3.2962,-4.3694,9.1268,45.5431,-1.8451,1.7327,-3.0243,308.1898
20:39:23:916,0.7139,-4.216,8.6621,46.019,-1.877,1.3322,-2.7175,311.8493
20:39:23:935,-0.4264,-3.2195,7.8141,46.8264,-1.7758,0.9082,-2.2658,315.6646
20:39:23:956,-0.7043,-1.9595,6.7744,46.0867,-1.7237,0.6451,-2.1071,319.124
20:39:23:974,-1.3367,-1.284,6.6498,47.3201,-1.7322,0.4245,-2.1103,322.0446
20:39:24:000,-1.5666,-1.1067,7.4547,48.1924,-1.5607,0.2147,-1.9218,324.7626
20:39:24:016,-1.169,-0.939,7.5793,49.276,-1.2411,0.122,-1.5596,327.4293
20:39:24:037,-0.4216,-0.6755,6.7792,47.5209,-1.0248,0.0858,-1.2943,329.8363
20:39:24:057,-0.2204,-0.824,6.3959,48.8845,-0.9354,-0.0889,-1.2315,331.8015
20:39:24:076,-0.4312,-1.5379,6.8127,49.8761,-0.913,-0.3211,-1.2219,333.6443
20:39:24:105,-0.8097,-2.52,7.6272,49.7016,-0.9822,-0.4586,-1.11,335.1505
20:39:24:119,-1.0875,-3.1381,8.6141,51.7502,-1.1314,-0.4436,-0.8459,336.5353
20:39:24:139,-1.0157,-3.0854,9.5484,50.1438,-1.2539,-0.3147,-0.5273,337.8967
20:39:24:158,-0.3833,-3.0183,10.1712,51.7075,-1.3146,-0.3211,-0.3516,338.9604
20:39:24:184,-0.2108,-3.3537,11.1965,51.1457,-1.3828,-0.5704,-0.309,339.7821
20:39:24:202,-0.5893,-3.7705,12.9452,53.8771,-1.4232,-0.7132,-0.1396,340.4219
20:39:24:220,-0.618,-3.6315,14.4495,53.4278,-1.3402,-0.5981,0.1342,340.8654
20:39:24:240,-0.1629,-3.0902,15.3023,52.4287,-1.141,-0.3286,0.2578,341.0452
20:39:24:261,0.2108,-2.8506,15.6808,53.9205,-0.8832,-0.0878,0.1789,341.0167
20:39:24:282,0.2443,-2.8842,15.8197,53.664,-0.5902,0.1071,0.0831,341.0153
20:39:24:299,-0.0527,-3.0087,15.7,52.8161,-0.2696,0.0815,0.1076,341.2261
20:39:24:319,-0.4887,-2.568,15.4173,53.349,0.0937,0.0762,0.3622,341.6368
20:39:24:339,-0.2875,-2.1224,14.7897,53.2556,0.5507,0.0783,0.6753,342.0066
20:39:24:361,-0.0287,-2.4769,14.0615,52.908,1.062,-0.2306,0.8128,341.973
20:39:24:384,-0.1246,-3.4639,14.2579,51.9983,1.4626,-0.6034,0.9012,341.6091
20:39:24:402,-0.3593,-4.3741,14.4926,53.1931,1.796,-0.597,1.1366,340.8573
20:39:24:419,-0.412,-4.5466,13.5632,50.7596,2.0793,-0.2743,1.4956,339.7871
20:39:24:442,-0.1581,-4.125,11.5606,51.5458,2.2988,-0.0165,1.7928,338.485
20:39:24:461,0.091,-3.689,9.534,48.5429,2.4905,-0.0868,1.9547,336.9414
20:39:24:480,0.23,-3.4782,7.9338,47.8467,2.6162,-0.3701,2.0943,335.1599
20:39:24:501,0.4791,-3.3249,7.1242,47.5393,2.662,-0.6865,2.2338,333.1112
20:39:24:520,0.6995,-3.2291,6.693,46.2868,2.7366,-0.9859,2.302,330.7456
20:39:24:541,0.9821,-3.2099,6.1085,46.2868,2.7995,-1.2714,2.2605,328.0936
20:39:24:565,1.2025,-3.301,5.6485,47.123,2.7558,-1.4929,2.0996,325.2163
20:39:24:582,1.2313,-3.6028,5.6581,47.2885,2.5949,-1.5441,1.8738,322.3827
20:39:24:601,1.2744,-3.8759,5.9983,46.5388,2.302,-1.2607,1.633,319.6876
20:39:24:621,1.6146,-3.804,6.027,47.5293,1.9078,-0.7622,1.3369,317.2676
20:39:24:640,1.8972,-3.5261,5.7491,48.3368,1.5265,-0.3829,0.9491,315.1453
20:39:24:659,2.0505,-3.3776,5.4904,46.5992,1.1803,-0.1901,0.4889,313.3435
20:39:24:680,1.9882,-3.7178,5.6246,46.4494,0.8362,-0.2189,0.0138,312.0656
20:39:24:702,1.7679,-4.3023,6.2762,46.8369,0.5006,-0.3797,-0.3793,311.3105
20:39:24:720,1.3367,-4.9491,7.4308,47.3386,0.1565,-0.5161,-0.6179,311.1305
20:39:24:742,0.733,-5.2509,8.6525,47.1268,-0.2088,-0.3861,-0.6743,311.4276
20:39:24:762,0.4264,-5.0113,9.7688,46.9428,-0.5103,-0.0388,-0.555,312.0023
20:39:24:784,1.0732,-5.0688,10.8994,47.539,-0.5849,0.1827,-0.4783,312.6567
20:39:24:801,1.5187,-5.2413,10.679,46.8276,-0.554,0.4427,-0.6115,313.1488
20:39:24:819,0.8145,-4.8101,9.4861,46.7777,-0.7713,0.8656,-0.6882,313.5151
20:39:24:838,0.8672,-4.0723,8.9974,46.345,-0.9961,1.118,-0.6435,314.0489
20:39:24:861,1.7391,-3.6842,8.456,46.241,-1.044,0.9582,-0.7585,314.6076
20:39:24:884,2.1799,-4.0052,8.0776,45.4436,-1.1633,0.4821,-1.0738,315.1221
20:39:24:899,1.7439,-4.8772,8.8729,47.3828,-1.4456,-0.0644,-1.3284,315.7651
20:39:24:919,0.4024,-5.7396,10.5928,45.9822,-1.7364,-0.2668,-1.2698,316.8045
20:39:24:940,-0.9438,-5.6054,11.3881,46.0357,-1.9655,0.1881,-0.7447,318.1298
20:39:24:961,-0.9486,-4.2065,10.2047,45.8032,-2.0368,0.8038,-0.0128,319.4596
20:39:24:984,0.0814,-2.3763,8.0296,46.814,-1.9793,0.9423,0.4389,320.2826
20:39:25:002,1.0588,-0.963,6.4678,46.6364,-1.9058,0.7186,0.507,320.399
20:39:25:019,1.4612,-0.3162,6.051,47.195,-1.828,0.4203,0.343,320.0558
20:39:25:039,1.2265,-0.4024,6.3528,47.0713,-1.7386,0.2914,0.1587,319.64
20:39:25:064,1.0348,-0.8145,6.6786,46.4791,-1.6533,0.3894,0.0841,319.3687
20:39:25:082,1.1977,-1.2648,6.4582,46.1035,-1.6555,0.6514,0.0724,319.276
20:39:25:101,1.6146,-1.6816,6.027,46.806,-1.7897,0.8421,-0.0118,319.2893
20:39:25:121,1.9403,-1.9835,5.9312,48.0383,-1.9825,0.758,-0.2205,319.4046
20:39:25:142,2.1895,-2.2661,7.3206,47.4086,-2.1753,0.4799,-0.4986,319.6853
20:39:25:162,2.3811,-2.4338,9.7209,49.3972,-2.1743,0.334,-0.7361,320.1883
20:39:25:184,2.1511,-2.5823,11.6277,48.6236,-1.9282,0.3308,-0.963,320.8551
20:39:25:202,1.3942,-3.1045,12.6625,50.4479,-1.6778,0.3734,-1.224,321.7399
20:39:25:221,0.2731,-3.804,14.2291,50.0721,-1.5085,0.3883,-1.3668,322.8355
20:39:25:242,-0.527,-4.2017,15.8868,51.2174,-1.2049,0.5588,-1.2464,324.2318
20:39:25:263,-0.7091,-4.0436,16.2318,51.1943,-0.8107,0.8549,-0.9428,325.8571
20:39:25:286,-0.2156,-3.9094,15.8149,51.9491,-0.4017,0.9359,-0.7042,327.4883
20:39:25:303,-0.3066,-4.3119,15.4413,51.2236,-0.0341,0.5652,-0.6307,329.0844
20:39:25:323,-0.8528,-4.7095,15.4077,50.835,0.2535,0.1763,-0.4453,330.5031
20:39:25:347,-1.078,-4.3646,15.1634,50.7189,0.4665,0.1593,-0.048,331.5503
20:39:25:363,-0.8097,-3.3968,14.3154,50.482,0.7542,0.236,0.3856,332.1699
20:39:25:381,-0.297,-2.9081,13.4243,47.9932,1.2207,-0.1347,0.6221,332.3962
20:39:25:402,-0.024,-3.5214,13.2614,48.7728,1.7257,-0.8815,0.6413,332.2621
20:39:25:421,-0.1821,-4.5802,13.7357,48.1879,2.1795,-1.5121,0.6263,331.6195
20:39:25:447,-0.6228,-5.6485,14.071,44.5983,2.5118,-1.5888,0.6775,330.4206
20:39:25:463,-1.1738,-6.027,13.5488,45.8884,2.6333,-0.9954,0.8756,328.8634
20:39:25:486,-1.1211,-5.524,11.781,46.0128,2.6961,-0.2657,1.1142,327.2625
20:39:25:503,-0.5653,-4.7287,9.3999,41.195,2.7387,0.0837,1.2154,325.7843
20:39:25:523,-0.0958,-4.1538,7.6368,42.5252,2.6652,0.1369,1.2474,324.3876
20:39:25:545,0.091,-3.7801,6.693,42.1419,2.5683,0.0102,1.2996,322.9807
20:39:25:564,0.1581,-3.5645,6.0558,40.7605,2.5299,-0.2732,1.3539,321.4757
20:39:25:582,0.23,-3.5597,5.7444,39.0212,2.4937,-0.6013,1.3635,319.8522
20:39:25:604,0.2875,-3.6842,5.6677,39.3928,2.4202,-0.793,1.3188,317.8518
20:39:25:624,0.3162,-3.895,5.7108,38.8369,2.302,-0.8474,1.2282,315.8033
20:39:25:648,0.3402,-4.0915,5.7204,38.676,2.1251,-0.7313,1.1025,313.7587
20:39:25:663,0.3402,-4.1729,5.5719,37.723,1.8748,-0.515,0.9598,311.7932
20:39:25:685,0.4551,-4.1298,5.3323,36.9209,1.5701,-0.2615,0.816,309.9928
20:39:25:705,0.8193,-4.1059,5.179,37.6329,1.2463,-0.1262,0.6349,308.3458
20:39:25:724,1.672,-4.331,5.6629,36.3865,0.9374,-0.1709,0.2855,306.9028
20:39:25:781,2.5488,-4.6424,6.8654,36.3865,0.5358,0.0304,-0.3079,305.6345
20:39:25:784,2.774,-4.9107,8.1398,35.7809,0.115,0.6206,-0.9971,304.9456
20:39:25:787,1.9499,-4.9395,8.6668,36.1601,-0.0917,1.1223,-1.5649,304.906
20:39:25:807,1.26,-5.1886,8.3506,34.4321,-0.1034,1.1425,-1.8483,305.5907
20:39:25:824,1.4373,-5.8258,8.2357,34.3523,-0.1673,0.7484,-2.0123,306.9069
20:39:25:848,1.5858,-6.3049,7.8476,33.8373,-0.4112,0.6184,-2.1881,308.55
20:39:25:864,0.5558,-6.0174,7.2248,32.4043,-0.946,0.8666,-2.2914,310.4183
20:39:25:885,-0.436,-5.1024,7.723,32.2498,-1.4446,1.1724,-2.1071,312.4795
20:39:25:904,0.4312,-4.5562,8.4704,31.0238,-1.5362,0.9497,-1.7875,314.7329
20:39:25:925,2.2949,-4.8389,8.4752,31.9008,-1.4595,0.0474,-1.6448,316.6821
20:39:25:949,2.8937,-5.6725,8.5614,31.4667,-1.713,-1.0615,-1.6704,318.4788
20:39:25:965,1.581,-6.2905,10.3964,31.0762,-2.2222,-1.7454,-1.5031,320.0661
20:39:25:987,-0.0958,-6.0701,12.308,30.7298,-2.5823,-1.3747,-0.9247,321.5721
20:39:26:007,-0.551,-4.6472,11.8385,30.2183,-2.5791,-0.6354,-0.2418,322.8293
20:39:26:026,-0.3593,-3.1524,9.51,31.2317,-2.333,-0.4074,0.099,323.4474
20:39:26:048,-0.4599,-2.0649,7.0954,29.7347,-2.1838,-0.6961,0.1981,323.4553
20:39:26:067,-0.6947,-1.72,6.4965,32.2775,-2.1828,-1.216,0.3206,323.1145
20:39:26:086,-0.8911,-1.8972,7.2056,31.2621,-2.0826,-1.608,0.6029,322.5775
20:39:26:108,-0.6947,-2.0505,7.8524,30.8812,-1.9005,-1.7337,0.9992,321.6917
20:39:26:127,-0.1773,-2.1224,8.4944,30.2801,-1.7545,-1.5068,1.3198,320.2978
20:39:26:148,0.4456,-2.1895,9.237,31.4573,-1.6171,-1.0327,1.4306,318.3872
20:39:26:167,1.4277,-2.0314,10.2047,29.8572,-1.452,-0.3968,1.2719,316.2172
20:39:26:186,3.416,-1.4612,10.7892,29.967,-1.354,0.5268,0.6508,314.1668
20:39:26:208,4.7047,-1.1307,10.9138,30.5312,-1.3402,1.412,-0.4411,312.6674
20:39:26:233,4.3981,-1.8206,11.2683,29.1597,-1.1953,1.6389,-1.452,312.3556
20:39:26:248,3.3201,-3.1381,11.6468,31.0142,-0.9481,1.4674,-2.0773,313.6691
20:39:26:267,1.5092,-4.0196,11.8624,29.7394,-0.8895,1.4525,-2.2254,316.1293
20:39:26:287,-0.1054,-4.2496,12.5571,29.7845,-0.8459,1.444,-1.9676,319.0982
20:39:26:308,-0.6372,-4.0723,12.7823,30.3222,-0.6147,1.3492,-1.567,322.2233
20:39:26:332,-0.321,-3.9286,12.399,31.0286,-0.44,1.2533,-1.272,325.1463
20:39:26:349,-0.1629,-4.1154,12.4182,30.1257,-0.3963,1.0818,-1.1111,327.646
20:39:26:367,-0.5797,-4.2113,12.4373,29.7036,-0.3963,0.9369,-0.8704,329.7341
20:39:26:388,-1.2025,-3.943,12.2601,29.9296,-0.3793,0.6898,-0.4166,331.5021
20:39:26:409,-1.3894,-3.301,12.054,29.2507,-0.2749,0.3031,0.1832,333.0574
20:39:26:433,-1.0157,-2.7931,12.078,30.196,-0.0672,-0.2966,0.7307,333.966
20:39:26:448,-0.4312,-2.6925,12.9643,29.6989,0.262,-0.9912,1.0642,334.0556
20:39:26:468,-0.1485,-3.1285,13.9561,29.1597,0.6892,-1.5078,1.143,333.2837
20:39:26:489,-0.6612,-3.6986,14.7466,29.832,1.0929,-1.5345,1.1366,331.6966
20:39:26:508,-1.2409,-3.7849,14.7082,28.4794,1.454,-0.9028,1.2058,329.697
20:39:26:530,-1.1259,-3.2387,13.0122,27.677,1.8588,-0.0953,1.2815,327.7036
20:39:26:548,-0.5126,-2.7883,10.267,30.077,2.2306,0.2648,1.2357,326.0911
20:39:26:570,-0.1677,-2.7692,8.2596,30.5148,2.4298,0.1817,1.1792,324.9165
20:39:26:590,-0.1533,-3.0279,7.608,29.0367,2.5246,-0.0229,1.224,323.8997
20:39:26:617,-0.297,-3.2866,7.3206,29.3258,2.564,-0.1795,1.3188,322.8152
20:39:26:630,-0.1964,-3.6986,7.7326,30.2759,2.5736,-0.3233,1.4274,321.5377
20:39:26:649,0.0814,-4.3071,8.3171,29.6594,2.6727,-0.4074,1.5062,320.0387
20:39:26:669,0.4312,-4.7335,8.3554,27.5588,2.7782,-0.45,1.4903,318.2767
20:39:26:689,0.7139,-4.9491,7.9051,29.3563,2.7568,-0.4799,1.2943,316.3761
20:39:26:709,0.618,-5.2365,7.8763,28.7661,2.5821,-0.4522,0.9896,314.4329
20:39:26:733,0.3737,-5.5767,8.2404,27.9454,2.3776,-0.3318,0.7201,312.6834
20:39:26:749,0.23,-5.912,8.2644,29.3806,2.1784,-0.1486,0.5347,311.296
20:39:26:770,0.3066,-6.1228,8.0584,29.2351,1.8982,0.0059,0.409,310.2094
20:39:26:792,0.4503,-6.1755,8.0153,29.6311,1.5659,0.0826,0.2929,309.3418
20:39:26:817,0.4791,-6.1899,8.2357,29.3671,1.2729,0.0602,0.2109,308.5948
20:39:26:833,0.5174,-6.1516,8.159,28.23,1.0013,0.0048,0.1992,308.0569
20:39:26:851,0.7234,-6.0845,7.7566,27.2447,0.6274,-0.0825,0.2269,307.5686
20:39:26:871,1.5235,-6.5349,8.3985,27.9288,0.2279,-0.4713,0.0852,307.0184
20:39:26:890,1.1786,-6.6882,8.7387,28.7987,-0.2131,-0.4234,-0.1886,306.4541
20:39:26:917,-0.2491,-5.9072,8.7483,28.3702,-0.7489,0.122,-0.2909,306.1125
20:39:26:933,-0.8288,-4.4795,8.8345,27.7565,-1.0206,0.4906,-0.0522,306.1045
20:39:26:951,1.993,-3.7657,9.213,28.3098,-0.9332,-0.0378,0.2471,306.2162
20:39:26:972,6.0654,-3.3489,10.1185,28.1926,-0.7564,-1.0572,0.1171,306.0983
20:39:26:991,6.808,-2.865,10.9378,26.8557,-0.7383,-1.1957,-0.5913,305.6219
20:39:27:019,4.2975,-2.659,11.2204,28.6668,-0.946,-0.5736,-1.5585,305.2675
20:39:27:033,1.0205,-2.4386,11.4839,29.6775,-1.1026,0.5577,-2.1497,305.7212
20:39:27:051,-0.5174,-2.2278,9.879,26.0543,-0.8853,1.6656,-2.2531,307.3693
20:39:27:071,-0.6085,-1.8781,6.0654,28.0105,-0.6435,2.0129,-2.1529,309.8314
20:39:27:091,-0.5845,-1.4277,3.2722,29.4912,-0.7894,1.6826,-1.8866,312.5561
20:39:27:117,-0.6372,-1.1642,2.6207,28.8633,-1.0792,1.0562,-1.5063,315.205
20:39:27:134,-0.848,-1.1738,3.1333,28.9927,-1.2752,0.2051,-1.0333,317.5043
20:39:27:155,-1.1163,-1.2888,4.3933,27.8669,-1.3199,-0.6982,-0.4421,319.3474
20:39:27:171,-0.5893,-1.1498,5.6869,28.2941,-1.322,-1.2213,0.0873,320.5802
20:39:27:193,0.0671,-0.7043,7.0235,27.9089,-1.4669,-1.1329,0.2823,320.9753
20:39:27:218,0.5366,-0.2443,8.8441,27.9998,-1.6501,-0.5033,0.1363,320.6362
20:39:27:235,0.7474,-0.0287,10.1329,30.0877,-1.7247,0.334,-0.2514,320.0686
20:39:27:251,0.6037,0.024,10.473,28.899,-1.6544,0.7484,-0.5614,319.8407
20:39:27:273,0.6707,-0.1437,10.7557,29.8474,-1.5095,0.6174,-0.7031,320.2921
20:39:27:293,0.5701,-0.5701,11.4025,30.1761,-1.3572,0.2062,-0.8,321.2509
20:39:27:319,0.0048,-1.1067,12.4948,29.6586,-1.2752,-0.0921,-0.8139,322.3455
20:39:27:335,-0.4264,-1.7104,13.9417,29.6769,-1.1921,-0.0719,-0.7287,323.379
20:39:27:353,-0.5749,-2.2709,14.8568,31.6325,-1.0461,0.0922,-0.6147,324.3016
20:39:27:372,-0.3258,-2.7788,15.0963,30.4647,-0.9183,0.1476,-0.4879,325.2164
20:39:27:393,-0.321,-3.3728,15.4796,30.2098,-0.8214,0.0293,-0.3164,326.0526
20:39:27:418,-0.6085,-3.4878,15.4556,30.9731,-0.717,-0.009,0.1054,326.8101
20:39:27:433,-0.8288,-2.7788,14.8376,31.7375,-0.5274,-0.0878,0.7371,327.2905
20:39:27:454,-0.1389,-1.9308,13.9752,32.7609,-0.1598,-0.352,1.3038,327.3999
20:39:27:474,0.9917,-1.7295,13.1943,32.6544,0.2588,-0.7654,1.4541,326.8054
20:39:27:497,1.4612,-2.4961,12.7583,33.3978,0.5816,-1.1094,1.2442,325.4297
20:39:27:514,0.939,-3.5645,12.2601,33.3213,0.7083,-1.1467,1.0226,323.6774
20:39:27:533,-0.0192,-3.9861,11.6468,34.4825,0.6785,-0.8985,1.0184,321.9502
20:39:27:553,-0.5078,-3.5501,10.7461,34.1453,0.6838,-0.629,1.1824,320.4276
20:39:27:573,-0.4551,-2.5967,9.2897,34.8114,0.7659,-0.4436,1.322,319.0426
20:39:27:597,-0.2587,-1.7343,7.7997,36.4228,0.8884,-0.4362,1.3774,317.7393
20:39:27:615,-0.0144,-1.1929,6.6115,36.2265,1.0237,-0.6098,1.3742,316.3981
20:39:27:633,0.23,-1.0636,6.051,37.8237,1.1675,-0.9848,1.3539,314.9926
20:39:27:653,0.5174,-1.2025,6.2187,36.7478,1.3411,-1.3704,1.3198,313.8599
20:39:27:674,0.7139,-1.6577,6.9277,37.7882,1.4689,-1.4439,1.2399,312.242
20:39:27:697,0.8528,-2.2086,8.2836,37.592,1.568,-1.1861,1.1473,310.5252
20:39:27:713,0.963,-2.6446,9.4382,38.2047,1.7928,-0.8058,1.0482,308.9164
20:39:27:734,1.2217,-2.9896,9.1699,38.1286,2.0708,-0.5544,0.865,307.4922
20:39:27:754,1.4708,-3.1189,8.1973,39.2836,2.0943,-0.466,0.5358,306.3138
20:39:27:774,1.4517,-3.3489,7.9817,39.8744,1.91,-0.4735,0.1214,305.4193
20:39:27:797,1.1019,-3.8759,8.5375,39.2301,1.7203,-0.5459,-0.2738,304.9101
20:39:27:825,0.5845,-4.6472,9.3567,41.1303,1.5307,-0.4894,-0.5561,304.7538
20:39:27:837,0.0814,-5.3419,10.1137,38.7347,1.307,-0.2519,-0.6413,305.0648
20:39:27:860,-0.297,-5.7587,10.1856,40.8917,1.0716,0.056,-0.5508,305.7121
20:39:27:878,-0.4408,-5.6054,9.6346,39.6178,0.7584,0.2903,-0.3111,306.4753
20:39:27:899,0.1006,-5.4473,9.6777,41.1577,0.4974,0.154,-0.0256,307.1595
20:39:27:917,1.26,-5.3946,9.7352,39.8287,0.2993,-0.1038,0.0788,307.6665
20:39:27:937,1.6768,-4.743,9.4765,41.313,-0.0874,0.1891,-0.0938,307.733
20:39:27:960,0.8672,-3.7561,9.3184,39.6882,-0.4613,0.7963,-0.358,307.6266
20:39:27:982,0.321,-3.1429,8.9303,41.6508,-0.554,1.1212,-0.4773,307.7681
20:39:27:998,0.6995,-3.4112,8.3027,40.7933,-0.5103,0.9263,-0.5401,308.2194
20:39:28:019,1.2169,-4.2065,8.1015,42.7726,-0.5572,0.4192,-0.6126,308.8802
20:39:28:038,1.0971,-4.7718,8.1877,41.9221,-0.734,0.0059,-0.6477,309.6013
20:39:28:062,0.4551,-4.7862,8.1303,43.1154,-1.0344,0.0272,-0.5465,310.3981
20:39:28:085,-0.0958,-4.1059,7.6128,43.701,-1.386,0.4501,-0.2738,311.3437
20:39:28:102,0.0575,-2.9225,6.5828,44.0134,-1.615,0.8038,-0.0352,312.19
20:39:28:119,0.4168,-1.811,5.4282,41.2222,-1.6576,0.7846,0.0149,312.6646
20:39:28:139,0.551,-1.1977,4.6329,44.5549,-1.664,0.5439,-0.0426,312.9377
20:39:28:162,0.4695,-1.0875,4.7095,43.3822,-1.7087,0.2967,-0.0576,313.1822
20:39:28:185,0.5558,-1.2025,5.1886,44.0268,-1.7364,0.1795,0.0298,313.5024
20:39:28:203,1.0396,-1.0684,6.2282,43.5453,-1.6384,0.0315,0.131,313.9228
20:39:28:222,2.3763,-0.6707,7.5218,44.5825,-1.386,-0.0506,0.0586,314.2516
20:39:28:242,4.0484,-0.4599,8.4656,45.9724,-1.1218,0.0943,-0.3814,314.3964
20:39:28:262,4.01,-1.0301,8.4512,44.8582,-1.0174,0.3638,-1.0493,314.6669
20:39:28:284,2.6111,-1.9212,8.8058,46.2621,-1.0919,0.5151,-1.5244,315.399
20:39:28:306,0.9774,-2.5248,9.831,46.9057,-1.1591,0.6088,-1.6405,316.9996
20:39:28:322,0.2012,-2.7835,10.8419,46.5989,-1.1548,0.7058,-1.5021,319.0316
20:39:28:340,0.0383,-3.0614,11.7474,47.7852,-1.1026,0.6674,-1.3178,321.2473
20:39:28:363,0.0862,-3.4351,12.6912,47.7215,-1.027,0.4533,-1.1005,323.3621
20:39:28:385,0.2108,-3.6651,13.5967,49.4181,-0.88,0.1902,-0.7969,325.2913
20:39:28:403,0.5078,-3.3728,14.1237,48.1984,-0.7308,0.1806,-0.4933,327.048
20:39:28:419,1.2888,-3.1572,14.3345,49.5062,-0.5487,0.285,-0.4634,328.3453
20:39:28:437,1.3894,-3.5693,14.1142,49.3333,-0.4049,0.3415,-0.7308,329.2672
20:39:28:461,0.6564,-4.0963,13.8267,51.1975,-0.3953,0.3947,-0.8416,330.2049
20:39:28:485,-0.3354,-3.8711,13.4003,48.9752,-0.359,0.4427,-0.5913,331.4518
20:39:28:500,-0.939,-3.0087,12.6769,50.6505,-0.2099,0.3638,-0.1428,332.8674
20:39:28:520,-0.757,-2.5727,12.3511,50.2474,0.0521,0.0379,0.1459,334.0565
20:39:28:540,-0.9199,-3.1093,12.72,49.4707,0.3664,-0.4777,0.2684,334.7224
20:39:28:560,-0.9917,-4.0052,13.3524,49.4178,0.6359,-0.7803,0.4751,334.9246
20:39:28:580,-0.8815,-4.0771,13.3572,48.1666,0.8245,-0.6002,0.7861,334.7043
20:39:28:600,-0.412,-3.2147,12.3271,49.0172,1.0386,-0.2263,1.0791,333.9713
20:39:28:619,0.5462,-1.9787,10.6647,47.7762,1.3049,0.0048,1.1696,333.0086
20:39:28:639,1.2888,-1.0684,9.1555,48.4062,1.6085,0.0197,1.0535,331.935
20:39:28:660,1.4756,-0.7426,7.7134,49.0684,1.8631,-0.0857,0.8863,330.8241
20:39:28:682,1.2073,-0.8384,6.578,47.5495,1.9717,-0.3094,0.767,329.8349
20:39:28:702,0.5941,-1.2456,6.4582,48.7867,2.0335,-0.6194,0.7488,328.9309
20:39:28:720,0.0335,-1.8685,6.7361,47.6905,2.0868,-0.8516,0.801,328.0904
20:39:28:741,-0.4551,-2.6398,7.4116,46.8927,2.0698,-0.8516,0.8714,327.1574
20:39:28:766,-0.7666,-3.4016,8.135,47.0843,1.9931,-0.5757,0.9459,326.0937
20:39:28:781,-0.6468,-3.7944,8.044,48.7267,1.9483,-0.3424,0.9853,324.9556
20:39:28:803,-0.2875,-3.8711,7.402,46.4127,1.829,-0.2892,0.9257,323.8039
20:39:28:821,0.1006,-3.7944,7.5074,48.0248,1.6277,-0.3403,0.8213,322.6424
20:39:28:841,0.7378,-3.9094,8.3219,48.652,1.4839,-0.3925,0.67,321.5338
20:39:28:866,1.3079,-4.4556,9.1938,48.1106,1.3539,-0.5544,0.4463,320.4785
20:39:28:882,1.6673,-5.1503,10.1616,49.4763,1.1259,-0.6183,0.2663,319.5924
20:39:28:903,1.7583,-5.3323,11.0671,50.3594,0.8436,-0.4127,0.2045,318.94
20:39:28:922,1.5331,-4.9347,11.3402,49.5191,0.686,0.0783,0.1864,318.4638
20:39:28:942,1.8924,-4.6808,10.3964,49.7231,0.6274,0.2818,0.0788,318.0858
20:39:28:968,2.2805,-5.0305,9.3951,47.7324,0.4463,0.1124,-0.2323,317.6831
20:39:28:982,1.5379,-5.2365,8.9303,48.4586,0.0703,0.1998,-0.5039,317.4216
20:39:29:002,0.3018,-4.767,8.365,47.3487,-0.2951,0.5513,-0.5518,317.4419
20:39:29:022,-0.527,-3.8711,7.6559,47.9109,-0.5508,0.7463,-0.4038,317.7697
20:39:29:043,-0.1677,-3.3728,7.3877,48.6348,-0.6509,0.4512,-0.2578,318.1899
20:39:29:062,0.824,-3.4639,7.7757,47.396,-0.6786,-0.1518,-0.3047,318.5465
20:39:29:084,1.284,-3.8184,8.3554,49.159,-0.7979,-0.4032,-0.5295,318.7582
20:39:29:101,0.9151,-3.7944,8.5087,48.2469,-1.0493,-0.1358,-0.7628,318.9745
20:39:29:121,0.115,-3.2722,7.9817,46.2459,-1.3135,0.3809,-0.8704,319.4155
20:39:29:142,-0.3833,-2.4003,6.9181,48.146,-1.4733,0.7239,-0.7937,320.1815
20:39:29:166,-0.1821,-1.6241,5.7827,48.4815,-1.533,0.7132,-0.6914,321.1584
20:39:29:181,-0.0719,-1.0923,5.3467,48.8836,-1.534,0.4395,-0.6115,322.0908
20:39:29:203,-0.0862,-0.8528,5.4713,47.5263,-1.4861,0.1593,-0.5146,322.9401
20:39:29:224,-0.0383,-0.8336,5.9168,48.9615,-1.4286,0.0048,-0.3782,323.6875
20:39:29:245,0.3881,-0.9486,6.4103,48.0968,-1.3668,-0.0165,-0.2387,324.2693
20:39:29:264,0.872,-1.1259,6.5349,49.1397,-1.3476,0.0389,-0.1907,324.67
20:39:29:282,1.0971,-1.3031,6.9086,48.9679,-1.403,-0.0229,-0.2642,324.9161
20:39:29:303,0.9726,-1.5906,7.9578,48.3749,-1.4563,-0.1337,-0.3569,325.1398
20:39:29:323,0.848,-1.7774,9.2897,50.4471,-1.4882,-0.1518,-0.3846,325.4156
20:39:29:350,0.8959,-1.7008,10.4539,49.7421,-1.5095,0.0677,-0.3654,325.7351
20:39:29:364,1.1594,-1.6002,10.9665,50.8804,-1.4818,0.3042,-0.375,326.075
20:39:29:383,1.3271,-1.9499,10.8659,50.7635,-1.4573,0.2221,-0.4666,326.4904
20:39:29:406,1.0732,-2.5105,11.7905,50.0952,-1.501,-0.0953,-0.4656,327.0369
20:39:29:427,0.9869,-3.071,14.0279,50.3025,-1.4563,-0.2625,-0.342,327.6586
20:39:29:444,1.2409,-3.3249,15.9108,50.6721,-1.2549,-0.0303,-0.2568,328.0832
20:39:29:466,1.787,-3.8519,16.5001,51.2702,-1.0142,0.2626,-0.3335,328.3374
20:39:29:483,1.6433,-4.3789,16.6821,51.3077,-0.8395,0.3457,-0.4943,328.6254
20:39:29:504,1.0732,-3.895,16.3994,51.9208,-0.6818,0.5407,-0.3484,329.1187
20:39:29:523,1.0444,-2.3715,15.6089,50.9313,-0.4049,0.7921,-0.0533,329.8582
20:39:29:545,1.2504,-1.2696,14.4543,48.7169,0.1043,0.7825,0.0064,330.5526
20:39:29:564,0.7809,-1.8349,13.4051,49.6142,0.6892,0.2829,-0.1673,331.1235
20:39:29:584,-0.23,-3.4639,12.9164,47.949,1.078,-0.2625,-0.179,331.5692
20:39:29:604,-1.2169,-4.767,12.8925,46.0117,1.2772,-0.4159,0.1661,331.9071
20:39:29:624,-1.6816,-4.882,12.0013,45.6778,1.4061,-0.2061,0.7435,331.9643
20:39:29:647,-1.0923,-3.9046,10.0754,45.1018,1.486,0.0144,1.2399,331.5755
20:39:29:665,-0.1964,-2.7548,8.0632,44.8853,1.5744,-0.0207,1.4296,330.7104
20:39:29:686,0.1629,-2.0122,6.6067,41.8439,1.6447,-0.2657,1.4327,329.4072
20:39:29:706,0.1294,-1.7822,5.8354,42.3748,1.7012,-0.5853,1.4359,327.8066
20:39:29:726,0.0335,-1.8254,5.4952,43.4087,1.764,-0.8697,1.4828,326.0789
20:39:29:751,0.0527,-2.1128,5.4569,40.652,1.7757,-1.0136,1.5265,324.2022
20:39:29:766,0.206,-2.4913,5.7827,39.9082,1.6937,-0.9326,1.5286,322.0073
20:39:29:788,0.6899,-2.9416,6.1708,39.8597,1.5872,-0.7355,1.405,319.7104
20:39:29:807,0.9007,-3.4303,6.4965,41.0755,1.421,-0.5992,1.1813,317.4214
20:39:29:833,0.8432,-3.9046,7.4116,38.0189,1.2346,-0.4969,0.964,315.3458
20:39:29:878,0.6803,-4.2065,8.9687,39.606,1.1387,-0.4021,0.8383,313.4632
20:39:29:881,0.9151,-4.2783,10.9425,39.2476,1.3464,-0.3488,0.8042,311.9179
20:39:29:897,1.9116,-4.1873,10.382,39.454,1.7566,-0.3552,0.6082,310.4689
20:39:29:906,2.4913,-4.2448,8.4656,39.5127,1.5946,-0.4362,0.0234,309.0728
20:39:29:928,1.7727,-4.9347,9.237,38.7792,1.0556,-0.3606,-0.5774,307.9244
20:39:29:951,0.2395,-5.4042,10.4778,38.4327,0.7307,-0.0484,-0.8171,307.3498
20:39:29:967,-0.7139,-5.1647,10.1233,38.706,0.5901,0.2445,-0.6616,307.4973
20:39:29:988,-0.1437,-5.0257,9.5436,36.504,0.4463,0.0858,-0.4645,308.1348
20:39:30:007,0.4887,-4.9347,9.1172,38.8414,0.1832,-0.0751,-0.4442,308.6394
20:39:30:033,0.3689,-4.2879,9.0789,38.7902,-0.146,0.0016,-0.5007,308.9072
20:39:30:049,0.1485,-3.1141,9.3376,36.4825,-0.2866,0.0602,-0.6051,309.117
20:39:30:067,0.824,-2.4051,9.4765,37.1977,-0.3207,0.0038,-0.7958,309.2637
20:39:30:087,1.5187,-2.5967,9.831,38.2115,-0.3729,0.0219,-1.1186,309.5929
20:39:30:108,1.4038,-3.2004,9.9317,36.3127,-0.5188,0.2999,-1.4456,310.16
20:39:30:134,0.7186,-3.4591,9.5867,37.5518,-0.7607,0.7601,-1.6192,311.1149
20:39:30:150,-0.2012,-2.75,8.7004,36.893,-0.9662,1.2491,-1.5511,312.426
20:39:30:170,-0.5845,-1.6337,7.2056,36.3074,-0.9961,1.4046,-1.3487,313.9711
20:39:30:188,-0.551,-0.6995,5.6294,36.7633,-0.9119,1.1521,-1.126,315.6629
20:39:30:209,-0.2683,-0.0671,4.5275,36.5202,-0.8704,0.7761,-0.9705,317.2202
20:39:30:232,-0.1389,0.2491,4.2113,36.7413,-0.9023,0.4661,-0.897,318.525
20:39:30:248,-0.1341,0.2252,4.47,37.309,-0.9417,0.268,-0.816,319.5424
20:39:30:269,-0.0767,0.0096,5.1694,35.41,-0.9386,0.1188,-0.6594,320.4511
20:39:30:288,0.436,-0.2395,5.9552,35.6639,-0.9077,0.0091,-0.4847,321.2079
20:39:30:310,0.8863,-0.4312,6.7696,35.414,-0.914,-0.0793,-0.4112,321.8282
20:39:30:336,1.0157,-0.7043,7.9674,35.5254,-0.9907,-0.1187,-0.4379,322.1827
20:39:30:351,0.8863,-0.7426,9.5867,33.9194,-1.0951,-0.0282,-0.505,322.4989
20:39:30:369,0.5222,-0.551,10.9425,35.8725,-1.1378,0.219,-0.5284,322.7925
20:39:30:390,0.5941,-0.4264,11.6372,35.4022,-1.0376,0.3393,-0.5561,323.1677
20:39:30:409,0.2827,-0.7043,11.6756,35.2936,-0.9183,0.2594,-0.6381,323.7349
20:39:30:439,-0.2204,-1.2744,12.1547,33.4213,-0.8959,0.0805,-0.5763,324.3588
20:39:30:448,-0.4887,-1.8014,13.2997,33.5217,-0.8427,-0.1337,-0.4006,325.0497
20:39:30:469,-0.2443,-2.1272,14.3681,34.9373,-0.7383,-0.1198,-0.2269,325.6325
20:39:30:489,0.3258,-2.6111,14.3777,36.266,-0.6499,-0.0133,-0.2291,325.9458
20:39:30:517,0.1629,-2.9896,14.1285,35.1856,-0.6935,0.0357,-0.3537,326.1119
20:39:30:534,-0.5318,-3.1716,14.392,35.1856,-0.7607,0.0656,-0.2727,326.2522
20:39:30:551,-1.1259,-2.544,14.5118,34.6255,-0.6871,0.1699,0.1076,326.5899
20:39:30:570,-0.9151,-1.8206,14.1237,34.8782,-0.4208,0.2339,0.4996,326.8671
20:39:30:589,-0.6707,-1.7822,13.5632,35.538,-0.0448,-0.0175,0.6029,326.8237
20:39:30:609,-0.9438,-2.7788,13.2757,35.0427,0.3121,-0.3787,0.5081,326.4086
20:39:30:632,-1.902,-3.7226,12.5379,34.3853,0.4729,-0.3882,0.5784,325.7059
20:39:30:651,-2.5392,-3.6938,11.4216,34.3082,0.5304,-0.1592,0.9257,325.0027
20:39:30:672,-2.0697,-2.9081,9.6107,33.3286,0.6167,-0.0143,1.3177,324.2627
20:39:30:692,-1.0971,-1.8876,7.8715,34.3846,0.6924,-0.1123,1.5361,323.2238
20:39:30:718,-0.2443,-1.1642,7.0235,34.4895,0.7914,-0.3297,1.5744,321.7288
20:39:30:732,0.3018,-0.7809,6.487,33.7581,0.947,-0.5651,1.5116,319.9697
20:39:30:751,0.6659,-0.6851,6.1228,33.97,1.1068,-0.809,1.3827,318.0526
20:39:30:770,0.8432,-0.939,6.1564,32.7939,1.2218,-0.9763,1.1888,316.0579
20:39:30:790,0.7905,-1.5331,6.6307,34.5503,1.2889,-0.9709,0.9757,314.0686
20:39:30:812,0.6276,-2.2326,7.2823,36.1907,1.3102,-0.8058,0.7776,312.2834
20:39:30:831,0.4839,-2.865,7.8476,35.6378,1.3198,-0.5566,0.6168,310.7218
20:39:30:852,0.4456,-3.368,8.1877,32.9465,1.3262,-0.3542,0.474,309.3625
20:39:30:871,0.642,-3.598,8.1446,34.0985,1.3017,-0.1784,0.3238,308.2664
20:39:30:892,0.7953,-3.828,8.2309,34.2728,1.2484,-0.1145,0.1406,307.373
20:39:30:918,0.9438,-4.3454,8.1542,35.0551,1.1281,-0.0804,-0.0948,306.6472
20:39:30:936,0.7426,-4.9395,8.2979,36.6315,0.833,-0.041,-0.3217,306.1177
20:39:30:952,0.3593,-5.3755,8.7627,34.0068,0.4921,0.0656,-0.4102,305.8425
20:39:30:971,-0.1725,-5.2701,9.0884,34.61,0.2023,0.1508,-0.3601,305.7959
20:39:30:992,-0.115,-4.9347,9.4669,35.2839,0.033,0.0975,-0.2429,305.8841
20:39:31:015,0.7522,-5.1167,9.9125,35.6306,-0.0405,-0.2242,-0.3111,305.8893
20:39:31:032,0.9103,-5.3898,10.0323,35.0716,-0.1833,-0.3147,-0.5881,305.7898
20:39:31:053,0.0958,-5.2126,9.8885,35.2288,-0.4507,0.0144,-0.799,305.7227
20:39:31:073,-0.6612,-4.5179,9.8502,35.4912,-0.6488,0.4107,-0.8075,305.8939
20:39:31:093,0.2348,-4.1106,9.534,35.7535,-0.6744,0.481,-0.7755,306.4325
20:39:31:119,1.078,-4.264,9.3088,35.4487,-0.7234,0.171,-0.9215,307.071
20:39:31:134,0.8911,-4.6568,9.7927,33.2002,-0.8555,-0.0751,-1.0962,307.7073
20:39:31:154,0.091,-4.6424,9.7688,34.7257,-1.0067,0.04,-1.1015,308.4488
20:39:31:172,-0.5366,-3.9094,8.9351,34.0929,-1.1718,0.3692,-0.8863,309.4283
20:39:31:201,-0.2827,-2.7117,7.747,34.7646,-1.2485,0.5939,-0.6349,310.4235
20:39:31:218,0.2827,-1.49,6.3672,34.6326,-1.2358,0.5694,-0.5348,311.2455
20:39:31:233,0.5653,-0.6468,5.6342,34.6928,-1.1846,0.3606,-0.5486,311.9559
20:39:31:253,0.5797,-0.1533,5.4617,34.9407,-1.0824,0.1508,-0.5881,312.5674
20:39:31:274,0.5318,-0.024,5.5623,34.7143,-0.9162,-0.0836,-0.5934,313.2167
20:39:31:301,0.4503,-0.3306,5.7923,33.1835,-0.7085,-0.3361,-0.5582,313.7973
20:39:31:320,0.3976,-0.8001,6.6451,33.6175,-0.5156,-0.5374,-0.4826,314.3812
20:39:31:336,0.6899,-1.5762,7.517,36.0713,-0.3388,-0.4596,-0.4123,314.8256
20:39:31:356,0.7378,-2.1943,7.6607,36.5624,-0.4336,0.008,-0.3867,315.0802
20:39:31:377,0.4312,-2.3476,8.0153,35.4684,-0.7308,0.4682,-0.3569,315.352
20:39:31:396,0.0623,-1.9403,8.7866,35.135,-0.9194,0.6174,-0.3548,315.6406
20:39:31:418,0.1102,-1.5714,9.5244,35.0142,-0.9247,0.4746,-0.4016,316.1058
20:39:31:438,0.1677,-1.4517,10.4682,36.2307,-0.929,0.2392,-0.538,316.6928
20:39:31:456,-0.2587,-1.605,12.0061,36.0698,-0.93,0.0666,-0.6211,317.3811
20:39:31:475,-0.5078,-1.7918,13.7692,35.9994,-0.8395,-0.0261,-0.5998,318.0873
20:39:31:502,-0.5414,-1.7774,15.5467,37.1164,-0.6669,-0.0293,-0.4837,318.8711
20:39:31:519,0.1677,-2.0553,17.0414,37.6504,-0.408,0.0442,-0.4432,319.6104
20:39:31:536,0.3114,-2.314,17.8032,37.918,-0.1737,0.2424,-0.489,320.2595
20:39:31:558,0.2108,-2.0314,17.6547,36.5761,0.0308,0.5588,-0.3409,320.8843
20:39:31:577,0.2683,-0.8815,16.6725,35.9858,0.3515,0.9167,0.0404,321.5752
20:39:31:601,1.1355,-0.3354,14.8088,35.9163,0.8767,0.938,0.2141,322.2762
20:39:31:620,0.9055,-1.3271,12.7583,36.7035,1.3443,0.3777,0.0266,322.7166
20:39:31:640,-0.1821,-3.2818,12.2361,35.4845,1.5041,-0.3009,-0.0363,322.9934
20:39:31:659,-1.4996,-4.9011,12.2601,34.1439,1.4871,-0.5139,0.3068,323.1015
20:39:31:678,-2.4051,-5.112,11.3162,33.9545,1.3358,-0.3552,0.9832,322.9646
20:39:31:699,-2.0889,-4.1538,9.9556,32.7418,1.1771,-0.2135,1.6607,322.3866
20:39:31:721,-1.1307,-2.8698,8.2979,32.9006,1.1472,-0.302,2.0453,321.1331
20:39:31:740,-0.23,-1.7918,6.9708,33.7432,1.1472,-0.5811,2.1348,319.1526
20:39:31:759,0.3545,-1.2169,6.5349,33.586,1.1664,-0.8325,2.0613,316.6665
20:39:31:781,0.733,-0.9534,6.463,32.4052,1.2186,-0.9241,1.9047,313.9682
20:39:31:802,0.9055,-0.9247,6.4103,32.4595,1.2889,-0.9219,1.6916,311.2886
20:39:31:823,0.9869,-1.1259,6.3384,31.786,1.3443,-0.8697,1.4466,308.7459
20:39:31:840,0.8767,-1.5044,6.3576,32.5549,1.3464,-0.76,1.1654,306.2286
20:39:31:859,0.5749,-1.9739,6.578,31.571,1.3177,-0.6588,0.8959,304.0367
20:39:31:921,0.2539,-2.5919,7.081,28.4739,1.2527,-0.5598,0.6359,302.0851
20:39:31:923,-0.1821,-3.2291,7.8332,29.7531,1.1291,-0.3137,0.4367,300.5307
20:39:31:926,-0.3449,-3.7465,8.4369,31.4191,1.0013,-0.0282,0.3036,299.2881
20:39:31:941,-0.4216,-4.2448,8.7914,30.2948,0.9171,0.0986,0.1523,298.2529
20:39:31:959,-0.6612,-4.6808,8.7914,29.7422,0.8106,0.0869,0.017,297.2552
20:39:31:981,-0.642,-5.0545,8.8345,28.9191,0.589,0.057,-0.0639,296.4927
20:39:32:002,-0.6372,-5.1886,9.0932,30.7121,0.2854,0.0943,-0.0554,295.863
20:39:32:019,-0.3497,-5.1072,9.3136,30.1012,0.0031,0.106,0.05,295.3661
20:39:32:038,0.6803,-4.9538,9.7352,28.1704,-0.1822,-0.0996,0.0458,294.768
20:39:32:061,0.8624,-4.4987,9.3903,28.8191,-0.3495,-0.204,-0.1289,293.9891
20:39:32:081,0.1294,-3.8807,9.3472,28.2498,-0.5774,-0.1155,-0.2813,293.2964
20:39:32:104,-0.5031,-3.2195,9.4909,27.1025,-0.6925,0.1348,-0.3462,292.8212
20:39:32:119,0.0575,-3.0423,9.4334,27.2121,-0.6786,0.252,-0.4016,292.58
20:39:32:139,1.0923,-3.5261,9.2465,27.4496,-0.6722,0.024,-0.604,292.4764
20:39:32:163,1.3798,-3.9669,9.7113,27.679,-0.8011,-0.2008,-0.8373,292.4593
20:39:32:187,1.078,-3.9717,10.3197,25.8613,-0.9364,-0.0495,-0.9971,292.6451
20:39:32:206,0.4264,-3.3968,9.5723,25.87,-1.044,0.5204,-1.0578,293.1125
20:39:32:220,-0.2827,-2.5009,8.0153,26.3469,-1.1633,0.9977,-1.044,293.7357
20:39:32:238,-0.4024,-1.7008,6.5397,26.1534,-1.2113,1.1702,-0.9705,294.622
20:39:32:259,-0.2731,-1.1115,5.4856,26.1365,-1.2208,1.0232,-0.8597,295.6054
20:39:32:281,-0.0958,-0.6564,5.1886,26.8209,-1.1697,0.6898,-0.6861,296.7538
20:39:32:303,0.3162,-0.3162,5.2701,25.01,-1.0653,0.3084,-0.4943,297.7922
20:39:32:324,0.8672,-0.0862,5.5623,27.0399,-0.9897,0.0048,-0.4006,298.4536
20:39:32:339,1.1546,-0.1437,6.1803,23.8196,-0.9833,-0.1187,-0.4283,298.9171
20:39:32:360,1.1067,-0.4647,7.0715,24.7945,-1.0035,-0.1741,-0.5135,299.1658
20:39:32:380,0.9247,-0.9151,8.1159,24.5926,-1.0259,-0.2008,-0.571,299.571
20:39:32:405,0.6851,-1.1546,9.2274,23.233,-1.0973,-0.123,-0.5763,300.027
20:39:32:419,0.3402,-1.054,10.6024,23.7072,-1.1452,0.0166,-0.5359,300.4142
20:39:32:439,0.3689,-0.7809,11.7618,23.2758,-1.0504,0.2349,-0.4975,300.8936
20:39:32:466,0.618,-0.7953,11.9439,25.0753,-0.9183,0.3766,-0.587,301.4354
20:39:32:481,0.2635,-1.0875,12.2792,24.8935,-0.8352,0.317,-0.6893,302.1036
20:39:32:504,-0.0719,-1.6241,13.0554,23.7522,-0.7074,0.2328,-0.6658,302.9021
20:39:32:521,-0.1533,-1.9308,13.4386,25.2784,-0.57,0.2605,-0.5913,303.7752
20:39:32:541,0.1964,-2.4338,13.5776,23.764,-0.472,0.2818,-0.6211,304.5785
20:39:32:561,0.0671,-3.2722,13.5632,24.1625,-0.4443,0.1497,-0.75,305.3601
20:39:32:581,-0.733,-3.8232,13.8315,24.5727,-0.5167,-0.0048,-0.6648,306.1034
20:39:32:602,-1.4804,-3.5836,14.1046,25.7895,-0.57,-0.041,-0.2514,306.9472
20:39:32:620,-1.6146,-2.4434,13.9561,23.8908,-0.4666,-0.0388,0.3419,307.6674
20:39:32:640,-0.8576,-1.6289,13.477,23.0088,-0.1524,-0.2583,0.7212,307.9556
20:39:32:661,-0.3306,-1.8733,13.5728,23.7875,0.2396,-0.7451,0.7691,307.7037
20:39:32:682,-0.5222,-2.8075,13.774,22.197,0.5645,-0.9582,0.7787,306.9713
20:39:32:704,-1.2025,-3.3345,13.362,23.7958,0.7627,-0.7259,0.9672,305.9067
20:39:32:722,-1.2744,-2.9991,12.1978,23.7636,0.9427,-0.2743,1.2559,304.7388
20:39:32:742,-0.6228,-2.1368,10.2287,24.2802,1.1313,0.0421,1.4061,303.4673
20:39:32:767,0.0862,-1.4229,8.5566,26.1931,1.3155,0.0613,1.3656,302.0632
20:39:32:782,0.436,-1.1402,7.5074,23.6145,1.4934,-0.0538,1.2335,300.5842
20:39:32:804,0.412,-1.284,6.875,24.6064,1.633,-0.1528,1.0876,299.11
20:39:32:823,0.1725,-1.7391,6.5397,25.484,1.7299,-0.2562,0.9939,297.6989
20:39:32:843,0.1246,-2.2757,6.2809,24.0951,1.7736,-0.3669,0.9321,296.2375
20:39:32:867,0.1533,-2.8362,6.2474,26.275,1.7235,-0.4532,0.8554,294.7772
20:39:32:882,0.1198,-3.3153,6.3816,24.0127,1.5957,-0.4458,0.7712,293.3025
20:39:32:903,0.0814,-3.6028,6.5444,24.8595,1.4093,-0.3499,0.6753,291.9097
20:39:32:923,0.0814,-3.6507,6.7457,25.568,1.2154,-0.2317,0.5805,290.5801
20:39:32:943,0.1294,-3.5788,7.2296,25.5833,1.094,-0.2018,0.4815,289.3436
20:39:32:965,0.1581,-3.5788,8.4369,25.7178,1.1281,-0.3829,0.3845,288.2292
20:39:32:982,0.2156,-3.8184,9.6729,24.851,1.3752,-0.6588,0.3014,287.2009
20:39:33:003,0.2395,-4.0819,9.5484,25.5704,1.4551,-0.8335,0.1875,286.2702
20:39:33:024,-0.1246,-4.0388,9.2753,26.7776,1.1046,-0.7579,0.131,285.3856
20:39:33:045,-0.6803,-3.2195,9.7783,25.6277,0.6295,-0.4138,0.1789,284.6681
20:39:33:067,-0.2491,-2.4626,10.9617,24.8879,0.4378,-0.156,0.2258,283.9998
20:39:33:083,1.7247,-2.8267,11.4408,25.8756,0.5486,-0.1326,-0.0224,283.3655
20:39:33:103,2.4146,-3.2674,10.612,25.4748,0.4186,0.1508,-0.4815,282.7166
20:39:33:123,2.3092,-3.7034,10.0802,25.2757,0.131,0.4395,-0.9694,282.4477
20:39:33:143,1.3558,-3.5118,9.213,25.3455,-0.1993,0.6653,-1.321,282.6292
20:39:33:166,0.7522,-3.3345,9.3615,25.507,-0.4869,0.5843,-1.5031,283.4068
20:39:33:184,0.412,-3.4112,9.74,24.4006,-0.6413,0.448,-1.55,284.6102
20:39:33:206,0.2204,-3.5022,9.2992,24.217,-0.8235,0.5311,-1.5244,286.0193
20:39:33:225,-0.4599,-3.186,8.3842,24.206,-1.0536,0.7367,-1.4254,287.5417
20:39:33:245,-1.2456,-2.5488,7.4643,25.4171,-1.1505,0.7931,-1.126,289.0742
20:39:33:264,-1.4277,-1.6625,6.3289,24.1339,-1.1271,0.5662,-0.6861,290.4584
20:39:33:284,-0.8528,-0.7043,5.8306,25.1962,-1.0685,0.1838,-0.2397,291.5612
20:39:33:304,0.0431,0.1294,5.6437,23.5599,-0.9716,-0.0964,0.05,292.2402
20:39:33:325,0.7618,0.6132,5.845,24.9838,-0.9023,-0.1731,0.1171,292.4274
20:39:33:351,1.1402,0.8863,6.3816,23.1775,-0.8288,-0.0623,0.0234,292.2935
20:39:33:370,1.3271,0.824,6.7265,23.9523,-0.7063,0.024,-0.1875,292.0841
20:39:33:386,1.0109,0.3354,6.9134,24.8226,-0.6552,-0.0165,-0.4048,292.0325
20:39:33:406,0.6947,-0.1868,7.8715,22.7761,-0.7063,-0.0399,-0.5007,292.2117
20:39:33:425,0.3641,-0.4312,9.007,21.6995,-0.7937,0.1018,-0.5209,292.4977
20:39:33:449,-0.2204,-0.2827,10.382,22.6946,-0.93,0.4789,-0.457,292.9934
20:39:33:466,-0.6803,0.1725,11.6277,23.5999,-0.9577,0.9732,-0.3388,293.5922
20:39:33:486,-0.6707,0.5653,11.7953,22.3291,-0.7862,0.9689,-0.3718,294.2517
20:39:33:506,-0.9774,0.4551,11.8049,23.2484,-0.6232,0.4959,-0.4592,294.9432
20:39:33:527,-1.3271,-0.206,12.9691,22.7574,-0.5274,0.0144,-0.4134,295.6917
20:39:33:551,-1.3463,-0.824,14.1908,22.2511,-0.3942,-0.1028,-0.2738,296.4275
20:39:33:567,-0.9151,-1.4708,14.5118,22.6367,-0.2578,-0.0729,-0.2919,296.9995
20:39:33:586,-1.466,-1.8445,14.3777,21.6564,-0.276,0.0304,-0.342,297.4168
20:39:33:606,-2.132,-1.902,14.5262,21.3398,-0.325,0.1518,-0.1332,297.7988
20:39:33:627,-2.4817,-1.4612,14.325,22.2892,-0.1982,0.1092,0.3195,298.3212
20:39:33:652,-1.9499,-1.3894,13.9752,22.4126,0.1107,-0.253,0.7084,298.6654
20:39:33:667,-1.2313,-2.1655,13.9081,23.3565,0.4143,-0.662,0.816,298.4626
20:39:33:687,-1.2792,-3.0806,13.7021,21.5901,0.54,-0.6887,0.833,297.6951
20:39:33:706,-1.7104,-3.3633,12.8829,22.2531,0.5571,-0.3552,0.9736,296.6609
20:39:33:729,-1.7152,-2.8985,11.1102,20.9661,0.5912,-0.0356,1.2314,295.5691
20:39:33:751,-0.9726,-2.132,9.0022,22.8826,0.6604,-0.0772,1.4583,294.4183
20:39:33:767,-0.2875,-1.3079,7.8045,22.753,0.6956,-0.3627,1.5073,293.1154
20:39:33:787,0.1341,-0.824,7.5026,22.8974,0.7989,-0.5523,1.4807,291.5044
20:39:33:807,0.4503,-0.5653,6.8654,23.9482,0.9416,-0.6034,1.4061,289.78
20:39:33:833,0.6612,-0.6037,6.4247,21.6477,1.046,-0.6045,1.2698,287.9919
20:39:33:850,0.6612,-0.9726,6.3576,23.1893,1.1078,-0.498,1.1196,286.3434
20:39:33:870,0.4839,-1.5762,6.4678,24.1466,1.1494,-0.3307,0.9981,284.8193
20:39:33:888,0.4551,-2.1511,6.233,24.5829,1.1685,-0.1858,0.9022,283.5573
20:39:33:910,0.6707,-2.5248,5.8785,23.3167,1.0727,-0.1592,0.7627,282.3851
20:39:33:949,0.8001,-2.7788,6.1899,22.5552,0.9033,-0.1912,0.5624,281.2623
20:39:33:950,0.7474,-2.9321,6.7792,25.1605,0.7755,-0.172,0.3515,280.3719
20:39:33:967,0.8432,-3.162,7.1433,23.7227,0.6732,-0.1177,0.1257,279.7374
20:39:33:989,1.1163,-3.5693,7.3206,24.1284,0.5347,-0.188,-0.1918,279.4053
20:39:34:009,0.8863,-4.0244,8.0009,24.066,0.3355,-0.3914,-0.5231,279.1888
20:39:34:034,0.4887,-4.4939,9.122,25.5423,0.1778,-0.548,-0.7191,279.3688
20:39:34:052,0.0862,-4.8005,9.7879,24.7687,-0.0064,-0.466,-0.8288,279.8704
20:39:34:068,-0.1006,-5.0113,10.2766,24.0443,-0.3037,-0.1944,-0.8544,280.6329
20:39:34:089,0.23,-5.2557,10.6599,23.5772,-0.5412,-0.0303,-0.9098,281.505
20:39:34:108,0.0719,-5.2509,10.2862,25.8078,-0.7585,0.0741,-1.0323,282.4441
20:39:34:133,-0.8288,-4.8293,9.5005,25.0114,-1.0696,0.2626,-1.0919,283.4772
20:39:34:150,-2.0266,-3.6795,9.1172,25.679,-1.3828,0.4821,-0.93,284.6706
20:39:34:169,-2.0362,-2.9177,9.4813,24.877,-1.4509,0.3308,-0.6562,285.9621
20:39:34:189,-0.8911,-3.1045,10.3101,26.0894,-1.3668,-0.3009,-0.4432,287.2173
20:39:34:209,0.9055,-3.6268,11.5941,27.2576,-1.2837,-0.8889,-0.3857,288.1631
20:39:34:232,1.6912,-3.7034,12.2169,25.1814,-1.256,-0.8144,-0.5337,288.8374
20:39:34:249,0.9869,-2.9991,11.6851,26.3812,-1.3551,-0.041,-0.5998,289.287
20:39:34:270,0.618,-1.6193,10.2574,26.2202,-1.3838,0.7516,-0.5689,289.8179
20:39:34:290,0.8288,-0.3929,8.4417,27.6813,-1.1846,1.0829,-0.7447,290.6387
20:39:34:311,0.5318,0.2491,6.6498,25.9073,-0.9322,1.0168,-1.0195,291.6778
20:39:34:337,-0.0144,0.2491,5.6294,27.1724,-0.7607,0.7324,-1.1303,293.0906
20:39:34:353,-0.297,-0.0335,5.4329,26.9232,-0.6168,0.3734,-1.0046,294.7701
20:39:34:371,-0.3114,-0.5414,5.5144,27.3865,-0.4656,-0.0143,-0.7223,296.5285
20:39:34:391,0.024,-1.1642,5.8258,27.5584,-0.3857,-0.3158,-0.4102,297.9865
20:39:34:412,0.4024,-1.6768,6.5971,28.5551,-0.473,-0.3371,-0.1694,299.1415
20:39:34:436,0.5318,-1.902,7.5841,28.0846,-0.6126,-0.2285,-0.0011,299.6711
20:39:34:452,0.7043,-1.9068,8.6764,29.4,-0.6935,-0.1358,0.1065,299.9395
20:39:34:470,0.848,-1.5954,9.7065,27.7976,-0.6765,-0.0463,0.2034,300.0552
20:39:34:491,1.5092,-1.5331,10.3197,27.9846,-0.5817,-0.0037,0.1587,300.2883
20:39:34:511,1.6098,-1.9691,11.0288,29.6122,-0.5316,0.0155,-0.0576,300.4557
20:39:34:534,1.1738,-2.5823,12.0588,29.7845,-0.5519,0.0933,-0.2035,300.6726
20:39:34:551,0.6707,-3.1381,13.1464,29.8155,-0.5156,0.269,-0.2067,301.1481
20:39:34:572,0.5318,-3.277,13.2566,30.6872,-0.4475,0.4778,-0.1715,301.8166
20:39:34:592,0.5701,-3.4639,13.156,31.9017,-0.3729,0.4086,-0.2653,302.5714
20:39:34:612,0.1533,-3.6699,13.0841,30.8878,-0.309,0.2051,-0.3963,303.3903
20:39:34:634,-0.1437,-3.9813,13.132,30.9616,-0.2951,-0.0048,-0.3899,304.2816
20:39:34:653,-0.9007,-3.7561,13.1368,31.3286,-0.2834,-0.0729,-0.179,305.1443
20:39:34:673,-1.2217,-3.1141,13.017,31.7045,-0.1439,-0.0719,0.2428,305.8873
20:39:34:694,-0.8288,-2.7692,12.4757,30.7321,0.1523,-0.3073,0.5454,306.4161
20:39:34:720,-0.5941,-3.0854,12.2553,31.9145,0.4282,-0.7568,0.6434,306.5183
20:39:34:736,-0.8097,-3.7322,12.3271,32.3363,0.6348,-0.9869,0.7499,306.1701
20:39:34:754,-1.2361,-4.0244,11.9007,31.1694,0.7691,-0.8271,0.9704,305.5273
20:39:34:773,-1.2025,-3.6076,10.8707,29.9745,0.849,-0.5289,1.2442,304.4736
20:39:34:793,-0.4839,-2.7021,9.6155,30.5507,0.9651,-0.3403,1.4168,303.261
20:39:34:822,0.436,-1.7966,8.2357,30.8505,1.11,-0.2956,1.4189,301.8968
20:39:34:837,0.9774,-1.1738,7.2248,28.712,1.2357,-0.3787,1.2847,300.5415
20:39:34:853,1.3894,-0.8911,6.7696,30.4531,1.3592,-0.5033,1.0695,299.1205
20:39:34:871,1.4996,-0.9965,6.5636,31.4683,1.4839,-0.6269,0.8106,297.8254
20:39:34:897,1.3175,-1.5666,6.693,29.1908,1.5936,-0.793,0.5837,296.681
20:39:34:918,0.9917,-2.4721,7.1289,30.4742,1.6266,-0.7856,0.4421,295.7463
20:39:34:934,0.527,-3.301,7.5218,30.3753,1.5424,-0.5203,0.4048,294.9788
20:39:34:953,0.0479,-3.9238,7.8045,31.146,1.3869,-0.0846,0.4463,294.4009
20:39:34:977,-0.0623,-4.0436,7.6464,30.4432,1.2154,0.3841,0.5102,293.9273
20:39:34:997,0.321,-3.7369,7.1002,31.0575,1.0823,0.612,0.5156,293.4129
20:39:35:019,0.9247,-3.6699,6.6978,29.9173,1.0215,0.3958,0.3377,292.9317
20:39:35:036,1.2073,-4.149,7.0092,31.4504,0.9331,-0.106,-0.0043,292.373
20:39:35:056,0.9199,-5.0688,8.2404,29.6997,0.703,-0.3872,-0.2589,291.9711
20:39:35:076,0.4024,-5.6581,9.4909,30.4042,0.3217,-0.1486,-0.2461,291.8965
20:39:35:095,0.1821,-5.2653,10.1425,30.5833,-0.0256,0.2935,-0.0618,292.0316
20:39:35:114,0.8384,-4.6712,10.3772,31.0749,-0.1108,0.3713,0.017,292.1783
20:39:35:136,1.8397,-4.561,9.9317,30.7635,-0.1023,0.1423,-0.2355,292.1219
20:39:35:156,1.8349,-4.6376,9.419,31.322,-0.293,0.0869,-0.6509,292.0051
20:39:35:178,0.8863,-4.4604,9.2657,31.1115,-0.5668,0.2445,-0.9652,292.1482
20:39:35:202,0.2012,-4.1059,9.2561,29.5338,-0.733,0.3329,-1.0525,292.7951
20:39:35:222,0.4695,-4.1202,9.4478,29.1952,-0.7905,0.1412,-1.0419,293.8787
20:39:35:236,0.757,-4.3933,9.9029,30.8458,-0.8299,-0.2349,-1.0195,295.0755
20:39:35:259,0.5031,-4.5945,10.4922,32.5452,-0.9034,-0.4202,-0.9247,296.2273
20:39:35:277,0.0431,-4.0627,10.2383,31.3013,-0.9961,-0.1486,-0.6925,297.3074
20:39:35:305,-0.1437,-3.0327,9.0549,28.9513,-1.0696,0.3638,-0.4272,298.2585
20:39:35:319,0.2012,-1.7343,7.3254,30.6786,-1.0888,0.725,-0.2695,299.0567
20:39:35:337,0.6947,-0.6899,5.9264,29.5481,-1.0472,0.7367,-0.3058,299.6624
20:39:35:358,0.8672,-0.1246,5.2461,30.6061,-0.9652,0.5556,-0.4485,300.1733
20:39:35:382,0.8049,-0.0862,5.1551,30.7586,-0.8789,0.3447,-0.5646,300.7572
20:39:35:403,0.7905,-0.412,5.3419,32.8138,-0.8011,0.204,-0.5913,301.4734
20:39:35:422,0.7857,-0.9055,5.3371,30.6385,-0.7628,0.0496,-0.587,302.2643
20:39:35:440,0.8624,-1.5044,5.5958,29.6557,-0.8405,-0.1081,-0.6115,303.0267
20:39:35:460,0.9247,-2.0122,6.4007,30.9382,-1.0121,-0.2061,-0.6839,303.8168
20:39:35:477,0.7857,-2.314,7.7278,31.4689,-1.2081,-0.2199,-0.75,304.4931
20:39:35:498,0.436,-2.338,9.7065,31.0195,-1.3348,-0.1209,-0.701,305.268
20:39:35:518,0.5078,-2.2517,11.6277,32.3831,-1.1857,0.0719,-0.555,306.0215
20:39:35:539,0.8672,-2.3715,11.9103,31.3079,-0.9386,0.1806,-0.5337,306.7921
20:39:35:560,0.7953,-2.5392,12.0493,30.3903,-0.8842,0.1945,-0.5699,307.5088
20:39:35:580,0.5414,-2.9225,12.8781,30.4119,-0.8374,0.2424,-0.5476,308.2493
20:39:35:601,0.3689,-3.2004,13.3811,31.3268,-0.7085,0.3212,-0.4975,308.9992
20:39:35:619,0.5893,-3.8615,13.6063,31.0374,-0.5785,0.2136,-0.5699,309.7578
20:39:35:638,0.2587,-4.8293,14.1812,30.3172,-0.5465,-0.0165,-0.6871,310.4755
20:39:35:658,-0.6228,-5.1167,14.8328,30.5909,-0.6147,0.0347,-0.5071,311.2357
20:39:35:680,-1.1834,-4.0531,14.8568,29.8027,-0.5604,0.3148,0.0255,311.998
20:39:35:704,-0.7043,-2.5584,13.7021,29.9846,-0.2333,0.3894,0.5369,312.5274
20:39:35:721,-0.0383,-1.9739,12.3703,28.0788,0.1885,-0.0484,0.6785,312.7559
20:39:35:740,-0.0862,-2.6015,12.2265,28.2945,0.5358,-0.7835,0.5965,312.4709
20:39:35:761,-0.4983,-3.5788,12.8589,27.4568,0.801,-1.1638,0.6466,311.7915
20:39:35:782,-0.9199,-3.7992,12.7631,27.4568,1.0311,-0.9699,0.8895,310.8034
20:39:35:805,-0.6803,-3.2962,11.4791,26.2329,1.1994,-0.4543,1.1526,309.5335
20:39:35:823,-0.0958,-2.3763,9.6634,25.9492,1.3166,0.024,1.2719,308.1359
20:39:35:839,0.6612,-1.5379,7.8811,24.5002,1.4455,0.1646,1.2357,306.7227
20:39:35:858,1.1259,-1.0828,6.7505,25.8176,1.5723,-0.0058,1.0983,305.3951
20:39:35:882,1.26,-1.0588,6.4199,23.3631,1.6841,-0.3052,0.947,304.1293
20:39:35:904,1.2217,-1.3463,6.6019,22.788,1.8024,-0.5353,0.7957,302.9107
