Time,Acc_X,Acc_Y,Acc_Z,Meg,Gyr_X,Gyr_Y,Gyr_Z,Ore
20:21:39:958,-1.6481,3.4303,9.2753,53.2945,-0.4049,-0.0111,-0.0245,188.1796
20:21:39:979,-1.7822,3.5022,8.5998,54.5045,-0.359,-0.0921,-0.0235,188.7555
20:21:40:000,-1.6433,3.4782,8.1111,53.6778,-0.391,-0.3435,-0.0458,188.9072
20:21:40:021,-1.2888,3.4303,8.0871,53.1281,-0.5242,-0.4788,-0.1183,188.7918
20:21:40:038,-1.1738,3.2962,8.4752,52.5861,-0.6797,-0.3584,-0.2078,188.8489
20:21:40:057,-1.2409,2.9129,8.3602,52.6681,-0.7809,-0.2391,-0.2461,189.3114
20:21:40:077,-1.3942,2.3428,8.389,52.4957,-0.8544,-0.3659,-0.2461,189.8376
20:21:40:098,-1.4181,2.3859,7.7566,52.0815,-1.0184,-0.5182,-0.1715,190.2443
20:21:40:123,-1.0109,2.4099,7.953,52.0507,-1.3039,-0.3179,-0.1332,190.5514
20:21:40:142,-0.8863,2.338,8.6189,52.0365,-1.4222,-0.1795,-0.2248,190.7378
20:21:40:161,-1.0061,2.2422,9.8167,53.1294,-1.3061,-0.1997,-0.3846,191.029
20:21:40:182,-1.3031,2.3236,11.3833,53.7082,-0.8405,-0.2178,-0.5135,191.4792
20:21:40:206,-2.1272,1.5858,11.7378,53.5273,-0.0959,-0.2934,-0.5092,192.0811
20:21:40:224,-3.1093,0.8336,11.1629,53.4992,0.4889,-0.4159,-0.048,192.7149
20:21:40:242,-2.6638,1.4517,9.7975,54.5779,0.751,0.0016,0.4346,193.0333
20:21:40:261,-2.4434,2.1511,8.4273,53.8623,0.5518,0.7281,0.7414,192.4445
20:21:40:281,-1.2648,2.1799,7.3733,53.859,-0.0256,0.5865,0.7978,191.411
20:21:40:309,-1.4756,2.841,8.365,54.2721,-0.7457,-0.0825,0.6306,189.9669
20:21:40:326,-2.1703,2.7213,10.1616,52.8183,-1.2134,-0.0825,0.6817,188.8706
20:21:40:345,-1.5427,1.8062,10.8276,53.2519,-1.3508,0.5279,0.915,188.126
20:21:40:365,-0.2827,1.49,10.6551,53.5497,-1.2698,0.9178,0.947,187.1551
20:21:40:382,-0.551,1.9595,11.4169,52.7415,-0.8895,0.7803,0.9225,186.0247
20:21:40:404,-0.2731,2.1176,10.6311,54.4137,-0.1353,0.2541,0.8383,185.153
20:21:40:425,-2.2134,1.6193,10.152,53.8071,1.045,-0.237,0.8245,184.2832
20:21:40:443,-2.8458,0.9151,10.0275,54.2258,2.3904,-0.4596,0.9715,183.6116
20:21:40:461,-2.017,1.7727,5.1742,53.6245,2.7441,-1.4727,0.4367,182.545
20:21:40:483,-4.0388,4.7766,4.8197,54.8375,1.3859,-2.4261,-0.7681,181.2154
20:21:40:505,-2.7883,2.3188,5.8354,54.1485,0.507,0.2435,-0.506,180.7362
20:21:40:524,-1.5427,2.98,8.7243,52.8804,0.1363,1.2427,-0.2387,181.5075
20:21:40:546,-1.4085,3.5501,8.1494,53.2241,-0.0512,-0.1731,-0.097,181.4946
20:21:40:564,-0.4503,3.2052,9.1747,54.3893,0.0415,-1.2255,0.017,181.2946
20:21:40:582,-0.4887,3.4974,8.2931,51.7847,0.147,-1.2554,-0.1492,181.3629
20:21:40:603,-0.9199,3.7657,8.274,53.0315,0.0617,-1.3779,-0.179,181.8825
20:21:40:624,-0.9821,3.9477,7.747,52.6381,-0.1353,-0.8783,-0.0842,182.516
20:21:40:642,-0.8384,4.24,7.7709,53.0569,-0.5636,0.2797,-0.0522,183.1051
20:21:40:663,-1.4469,4.125,7.838,53.9615,-0.8203,1.0126,0.0351,183.399
20:21:40:684,-1.9882,4.0531,8.3219,53.2841,-0.9098,0.9508,0.1161,183.2373
20:21:40:707,-2.1607,3.8423,9.2418,53.6907,-0.7532,0.6184,0.1875,182.6823
20:21:40:731,-1.6098,3.6651,10.1808,53.1656,-0.3782,0.1731,0.1747,182.0004
20:21:40:742,-1.9451,3.3968,10.0562,51.7217,-0.0171,-0.1006,0.1491,181.3924
20:21:40:765,-2.8075,3.2483,9.3328,52.2687,0.1203,-0.2689,0.2301,181.0351
20:21:40:780,-3.0135,2.9321,9.5532,53.8292,0.1225,-0.4341,0.441,180.715
20:21:40:801,-1.8014,2.9225,10.7844,53.5027,0.2833,-0.6418,0.555,180.1905
20:21:40:824,-0.9294,3.2004,10.9905,53.5045,0.605,-0.9411,0.4666,179.4794
20:21:40:843,-0.4312,3.598,10.1185,53.5475,0.7542,-1.1606,0.3579,178.8768
20:21:40:864,0.7139,3.9621,9.558,52.6583,0.6125,-1.2596,0.2791,178.5936
20:21:40:883,1.4421,4.1586,9.7448,53.452,0.2311,-1.021,0.1299,178.5241
20:21:40:902,1.4756,3.7178,10.6886,55.5123,-0.1524,-0.6865,0.0362,178.7625
20:21:40:925,2.1799,2.8937,12.0061,53.6969,-0.3484,-0.5385,-0.0118,179.1545
20:21:40:943,2.4338,1.7966,13.5345,53.4129,-0.3686,-0.4106,-0.0874,179.4547
20:21:40:962,1.8445,0.3929,14.4112,54.1545,-0.3431,0.2658,0.0852,179.8861
20:21:40:982,2.2853,0.4216,14.0279,54.7486,-0.3228,1.0935,0.3696,180.2999
20:21:41:002,2.8698,1.1882,12.8493,52.4345,-0.0032,1.134,0.2333,180.2192
20:21:41:027,1.8397,1.0732,10.7126,53.321,0.5081,0.464,-0.0544,179.6349
20:21:41:044,1.1402,1.1977,8.4129,52.819,0.6828,-0.1187,-0.0373,179.3304
20:21:41:064,1.9499,1.9212,7.1289,52.8886,0.4463,-0.205,0.0117,179.4078
20:21:41:087,2.453,2.4242,7.3829,52.3722,0.1544,-0.1113,-0.1044,179.5922
20:21:41:103,1.7391,2.52,7.7566,52.7289,0.0596,0.0389,-0.2259,179.8297
20:21:41:125,1.1594,2.659,7.426,53.2591,0.1107,0.0453,-0.2802,180.1982
20:21:41:144,1.1211,2.8506,6.9181,51.7215,0.2183,-0.1102,-0.3367,180.5788
20:21:41:163,1.1929,2.865,6.6019,52.7913,0.3398,-0.3307,-0.4251,180.936
20:21:41:189,1.0253,2.8602,6.1803,52.9923,0.4239,-0.4649,-0.489,181.4271
20:21:41:204,0.9342,2.8458,5.7587,52.83,0.4037,-0.449,-0.4901,182.0919
20:21:41:224,1.1259,2.8985,5.7348,51.5816,0.2876,-0.3073,-0.4794,182.8397
20:21:41:247,1.0732,2.9033,6.1755,52.075,0.1949,-0.107,-0.457,183.6125
20:21:41:264,0.6899,3.0039,6.5971,50.65,0.1992,-0.0271,-0.3857,184.326
20:21:41:288,0.872,3.3776,6.8798,51.163,0.2812,-0.0559,-0.2994,184.9487
20:21:41:304,0.7666,3.7178,7.0427,50.7159,0.3302,-0.0484,-0.2269,185.4009
20:21:41:324,0.6372,4.0915,7.9817,51.6276,0.3611,0.1561,-0.0799,185.8137
20:21:41:344,1.3319,4.7526,7.7709,50.8049,0.4058,0.3202,-0.0927,186.1046
20:21:41:366,1.1738,5.3419,7.2775,51.0557,0.2428,0.3031,-0.2781,186.1156
20:21:41:389,0.4887,5.3228,7.3637,50.0731,-0.0523,0.3436,-0.4155,186.1712
20:21:41:405,-0.2491,4.9538,8.2309,51.1648,-0.3899,0.3521,-0.4687,186.431
20:21:41:426,-0.963,4.4077,9.9891,49.2831,-0.5817,0.2988,-0.3974,186.7684
20:21:41:446,-1.2888,4.1681,11.3881,48.8893,-0.5497,0.2978,-0.2429,187.0926
20:21:41:468,-1.1019,4.3598,10.9713,49.7375,-0.5561,0.3042,-0.113,187.3135
20:21:41:485,-0.5941,3.9142,11.1581,48.0112,-0.783,0.1795,-0.1151,187.2794
20:21:41:508,-0.2683,2.6973,13.1608,48.8934,-0.9247,0.0453,-0.2173,187.1541
20:21:41:527,-1.0732,1.3127,15.2784,49.7554,-0.6999,0.0719,-0.2355,187.1404
20:21:41:546,-1.7391,0.7618,14.8903,47.5532,-0.2259,0.2072,-0.0554,187.3123
20:21:41:574,-1.4948,1.0444,12.5715,47.3082,0.1288,0.0911,0.1161,187.4241
20:21:41:588,-0.8001,1.7391,10.4682,47.77,0.196,-0.1752,0.1661,187.268
20:21:41:609,-0.2443,2.132,9.1795,47.6611,0.0085,-0.3073,0.1214,186.9666
20:21:41:627,0.2012,2.1416,9.1316,46.6829,-0.2056,-0.3392,0.0309,186.7971
20:21:41:648,0.1916,1.9739,9.3519,48.4757,-0.2174,-0.368,-0.049,186.744
20:21:41:671,-0.23,2.0553,8.9303,46.1914,-0.0746,-0.4532,-0.0597,186.809
20:21:41:685,-0.2779,2.1272,7.5601,46.9474,0.1033,-0.6375,-0.0299,186.9925
20:21:41:706,-0.1629,2.2326,5.7971,47.9752,0.0777,-0.8857,-0.0107,187.1897
20:21:41:726,0.3976,1.9212,4.9203,45.3467,-0.2355,-1.1073,-0.0203,187.4261
20:21:41:779,0.7282,1.4133,6.9421,45.6344,-0.4432,-0.9156,-0.0916,187.7281
20:21:41:782,0.4551,1.0013,8.8202,45.4649,-0.2323,-0.3872,-0.0874,188.1759
20:21:41:799,-0.024,0.939,8.7004,46.7911,0.1949,0.0304,0.0074,188.5822
20:21:41:806,-0.024,1.2744,7.5697,45.2471,0.5123,0.0709,0.1278,188.789
20:21:41:828,0.5031,1.7679,7.1816,44.6487,0.6604,-0.0282,0.1651,188.7486
20:21:41:849,0.7378,2.0841,7.0954,44.1113,0.687,0.0048,0.1438,188.5366
20:21:41:873,0.6659,2.4242,7.1385,45.8827,0.6146,0.1178,0.1523,188.3829
20:21:41:889,0.7905,2.8219,7.541,43.9213,0.5326,0.1252,0.1693,188.2427
20:21:41:907,0.8288,3.5741,7.8668,43.9351,0.5017,0.057,0.1566,188.102
20:21:41:929,0.9342,4.2496,7.9865,44.1437,0.3962,-0.0463,0.1491,187.9615
20:21:41:949,1.3798,4.6041,8.7675,43.344,0.2567,-0.1858,0.1097,187.8392
20:21:41:969,1.7104,4.4173,9.6921,43.6647,0.147,-0.3925,0.0852,187.7798
20:21:41:989,2.1799,3.7753,11.1773,43.3922,0.1651,-0.6301,0.1534,187.8702
20:21:42:009,2.5823,3.3201,12.3607,43.5098,0.4569,-0.8676,0.3345,188.0987
20:21:42:029,3.5788,3.9286,11.206,43.341,0.8745,-1.265,0.4634,188.3238
20:21:42:049,5.3802,4.7095,8.2357,42.3986,0.7073,-1.6687,0.3195,188.4302
20:21:42:073,7.0954,4.4795,8.6094,42.7521,-0.0874,-1.4503,-0.0991,188.6472
20:21:42:088,6.5828,3.1285,10.5353,43.4782,-0.7223,-0.8037,-0.6285,189.3338
20:21:42:110,3.9717,1.5954,11.9199,41.9796,-0.9055,-0.1986,-0.832,190.4698
20:21:42:130,2.5296,0.8576,11.7378,42.9356,-0.669,-0.1145,-0.7478,191.7797
20:21:42:151,2.1224,0.9965,9.9556,42.5473,-0.3878,-0.4809,-0.5998,192.8239
20:21:42:171,2.5871,1.3415,8.1446,42.0529,-0.5092,-0.6354,-0.4901,193.6593
20:21:42:189,2.8985,1.7822,8.25,42.1327,-0.8448,-0.4138,-0.4869,194.4987
20:21:42:208,2.314,1.8158,9.3136,41.1678,-0.8938,-0.1773,-0.538,195.3367
20:21:42:229,1.375,1.7343,9.443,42.395,-0.5657,-0.1986,-0.5273,196.1863
20:21:42:256,0.8384,1.8349,8.2692,42.117,-0.1513,-0.3851,-0.4474,196.9546
20:21:42:273,1.0828,2.0745,7.081,42.1053,0.0521,-0.466,-0.375,197.6962
20:21:42:289,1.2073,2.2997,6.7505,42.6758,0.1427,-0.3542,-0.3825,198.3728
20:21:42:310,0.7761,2.4003,6.487,42.6592,0.2684,-0.155,-0.3889,199.0864
20:21:42:331,0.4456,2.6254,5.9647,41.9348,0.3877,-0.0079,-0.3377,199.7419
20:21:42:354,0.7234,3.1333,5.8402,41.934,0.4442,0.0709,-0.2983,200.3342
20:21:42:370,1.1211,3.7896,6.0031,42.9933,0.4324,0.2158,-0.3281,200.7962
20:21:42:389,1.2121,4.446,6.3863,41.5771,0.3494,0.4203,-0.3974,201.2409
20:21:42:410,1.3702,4.8868,7.517,41.7299,0.2982,0.5641,-0.4901,201.6824
20:21:42:432,1.0828,4.9011,9.1843,42.9175,0.3802,0.6855,-0.5391,202.1505
20:21:42:458,0.7091,5.0449,10.6743,42.7986,0.5315,0.8421,-0.4805,202.6444
20:21:42:474,0.7043,4.6664,11.9582,42.03,0.7925,0.9295,-0.3388,203.1111
20:21:42:490,0.7953,4.7143,11.3306,44.1622,0.9012,0.9295,-0.1247,203.3694
20:21:42:511,1.399,5.2748,11.2252,43.6853,0.7478,0.8624,0.0436,203.377
20:21:42:532,1.2744,6.2522,10.8755,43.6674,0.4026,0.8975,0.1715,203.1617
20:21:42:552,1.8828,6.4917,10.8324,43.5764,-0.1449,0.8176,0.1992,202.8696
20:21:42:572,2.4338,4.7335,12.8302,44.3974,-0.5817,0.546,0.0447,202.4053
20:21:42:591,0.7522,1.8972,14.7418,45.8528,-0.5082,0.4022,0.0128,202.002
20:21:42:612,-0.7234,0.733,14.4064,44.8663,0.0223,0.2935,0.4421,201.8765
20:21:42:633,-0.1581,1.5523,10.9473,44.8835,0.5059,0.0283,0.9118,201.6475
20:21:42:658,1.3223,2.8123,7.2727,44.0629,0.4058,-0.3158,1.0279,200.9277
20:21:42:674,1.8541,2.8746,6.0749,45.5878,-0.0299,-0.4394,0.899,200.0067
20:21:42:693,1.787,2.52,5.8641,45.1356,-0.3857,-0.4618,0.752,199.1591
20:21:42:713,1.4565,2.0936,6.1947,46.2001,-0.6062,-0.3137,0.6583,198.5524
20:21:42:735,1.2121,1.6241,6.4055,46.3911,-0.7457,0.024,0.6988,198.1018
20:21:42:756,1.2025,1.5523,6.1995,46.2382,-0.7979,0.2797,0.718,197.6451
20:21:42:771,1.078,1.49,5.7779,45.7003,-0.7617,0.2594,0.7052,196.9512
20:21:42:791,1.2792,1.6481,5.6677,44.8911,-0.7266,0.1284,0.6764,196.1142
20:21:42:814,1.2983,1.4469,5.9695,44.667,-0.7021,0.1423,0.6263,195.381
20:21:42:839,0.9774,1.1642,5.8114,45.256,-0.6701,0.3042,0.6508,194.6975
20:21:42:854,1.2504,1.5044,5.4282,46.7504,-0.6584,0.4267,0.653,194.0734
20:21:42:873,-0.3785,1.5714,5.4809,46.0515,-0.5369,0.285,0.7457,193.3914
20:21:42:892,0.1102,1.9068,5.4138,46.4714,-0.2664,-0.058,1.0184,192.687
20:21:42:914,0.9007,2.3045,4.5562,46.0091,0.1022,-0.5598,1.2058,191.8085
20:21:42:932,2.247,2.5105,3.2531,44.7561,0.2833,-1.2341,1.3156,190.7936
20:21:42:953,3.9525,3.0518,1.8589,46.5687,0.1384,-1.9872,1.258,189.736
20:21:42:972,6.2809,3.0614,1.3558,46.5231,-0.5348,-2.5891,0.963,188.7756
20:21:42:992,7.8668,1.7295,3.277,47.205,-1.5117,-2.7414,0.5667,188.2003
20:21:43:014,8.3123,0.3449,9.4286,48.0298,-2.3554,-2.5081,0.3781,188.2247
20:21:43:041,10.588,-1.7966,15.1634,48.9476,-2.6238,-1.5909,0.3174,188.6899
20:21:43:056,11.345,-2.7692,19.9495,47.2329,-2.3351,-0.1539,0.0543,189.0579
20:21:43:074,10.5689,-2.6302,21.0994,48.3661,-2.0166,1.33,-0.3004,189.0568
20:21:43:094,7.8428,-2.0314,20.879,48.2423,-1.7748,2.0097,-0.6829,188.9931
20:21:43:116,4.791,-1.9978,21.4587,49.3205,-1.3199,1.8296,-0.9971,189.2409
20:21:43:139,2.132,-2.8123,21.6264,47.834,-0.358,1.4483,-1.0248,189.9904
20:21:43:158,1.2888,-2.75,17.8272,47.5513,0.6849,1.1223,-0.8128,191.0787
20:21:43:175,1.8493,-1.7774,12.6769,49.8553,1.1281,0.8794,-0.6733,192.132
20:21:43:195,2.3859,-0.9199,9.5436,48.9146,1.0066,0.7409,-0.7361,192.9244
20:21:43:217,2.3188,-0.5605,8.686,49.7783,0.7797,0.6642,-0.8767,193.6062
20:21:43:240,1.7343,-0.4024,7.9817,49.2734,0.7073,0.5854,-0.9865,194.4213
20:21:43:258,0.7809,-0.1581,6.7169,49.8205,0.7179,0.4618,-0.9694,195.4022
20:21:43:278,0.1389,0.3497,5.2988,49.7155,0.6615,0.2935,-0.8182,196.483
20:21:43:295,0.2827,0.9294,4.743,50.7353,0.54,0.1433,-0.6637,197.5149
20:21:43:318,0.7809,1.4373,4.767,49.4972,0.4442,0.1284,-0.6072,198.3579
20:21:43:340,0.7234,1.605,5.0784,48.7955,0.4165,0.1902,-0.6072,199.0603
20:21:43:357,0.3114,1.6529,5.5144,49.9607,0.4591,0.367,-0.5039,199.7573
20:21:43:375,0.2922,1.8972,6.0749,50.385,0.5166,0.5886,-0.3345,200.4166
20:21:43:395,0.8624,2.4194,6.7457,49.3726,0.5944,0.7122,-0.2301,200.9054
20:21:43:416,1.145,2.956,7.0906,50.2303,0.7371,0.5108,-0.2557,201.1456
20:21:43:442,1.0109,3.1764,7.3685,50.0612,0.8426,0.3223,-0.2877,201.2622
20:21:43:459,1.0971,3.4399,7.3589,49.8574,0.7744,0.3979,-0.2834,201.486
20:21:43:475,0.9103,3.4639,8.3315,48.7157,0.556,0.6696,-0.228,201.7317
20:21:43:495,0.9199,3.416,9.8023,50.9732,0.458,1.1276,-0.1598,201.9433
20:21:43:525,-0.5989,2.568,10.2479,50.9445,0.4687,1.297,-0.0107,202.025
20:21:43:541,-0.5462,2.7404,10.8324,51.5357,0.4868,1.1266,0.2812,201.8672
20:21:43:559,-0.0719,2.7835,11.7762,51.1526,0.6135,0.6035,0.4165,201.416
20:21:43:577,-0.1246,3.392,11.8385,49.9126,0.8085,0.3585,0.572,200.6931
20:21:43:596,0.2491,4.7143,10.5593,50.1013,0.8095,0.1476,0.7243,199.9886
20:21:43:622,1.8493,5.1742,10.497,49.7566,0.6796,-0.5448,0.6029,199.1505
20:21:43:641,0.5366,3.2387,11.2635,50.2073,0.3568,-0.449,0.3419,198.2534
20:21:43:659,-0.7474,1.8685,12.0732,51.7088,0.148,0.1252,0.5667,197.8377
20:21:43:678,-0.7809,1.49,11.5079,49.938,0.2162,0.2903,0.8309,197.6106
20:21:43:699,-1.2025,1.3271,9.8646,49.9117,0.3398,-0.204,1.0216,196.8401
20:21:43:726,-0.7091,1.5331,8.7387,50.5988,0.3067,-0.7888,1.2698,195.7185
20:21:43:741,0.8336,1.4325,7.6224,48.8962,0.2854,-1.1733,1.3805,194.5671
20:21:43:759,1.9451,1.0205,5.6964,50.5132,0.2631,-1.4908,1.3209,193.3775
20:21:43:780,2.1751,1.0348,3.6938,48.8832,0.131,-1.674,1.2112,192.3088
20:21:43:855,1.3894,1.0301,2.4482,48.2759,-0.0256,-2.1395,1.192,191.4857
20:21:43:857,1.4469,0.2779,0.963,48.5515,-0.1588,-2.7063,1.3188,190.8594
20:21:43:860,2.4003,-0.1006,0.7713,49.618,-0.4166,-2.8554,1.4253,190.4375
20:21:43:863,3.689,-0.2539,1.9451,48.562,-0.5327,-2.6743,1.3667,190.1008
20:21:43:879,4.0771,-0.5031,3.1429,48.2242,-0.4038,-2.5401,1.1654,189.6812
20:21:43:899,4.2017,-0.2491,3.5357,49.1239,-0.3857,-2.3292,1.1323,189.2125
20:21:43:919,6.0462,-0.2827,3.9765,48.0627,-0.9535,-1.6218,1.1654,188.8504
20:21:43:942,8.1782,-0.1581,6.9996,48.649,-1.7609,-0.4639,0.9555,188.2848
20:21:43:961,8.6237,0.0096,11.0575,47.7641,-2.1071,0.5843,0.5731,187.374
20:21:43:980,7.7901,0.1629,13.6303,47.9636,-1.9175,1.2278,0.2237,186.2652
20:21:44:001,5.8018,0.5605,13.5728,48.5028,-1.354,1.5122,0.0554,185.288
20:21:44:024,4.9491,1.0971,11.9918,49.4536,-0.8395,1.3183,0.098,184.6427
20:21:44:042,5.1647,1.6577,10.3772,47.5402,-0.505,0.9636,0.0735,184.2233
20:21:44:061,5.3755,1.8062,9.2753,46.2576,-0.4954,0.7335,-0.0714,183.8432
20:21:44:082,5.4329,1.5379,9.007,46.6908,-0.6829,0.6514,-0.2237,183.6389
20:21:44:107,5.73,0.9726,9.6107,45.9428,-0.9055,0.5694,-0.3718,183.6657
20:21:44:127,6.2857,-0.1341,10.4395,47.2392,-0.9801,0.4629,-0.5188,183.9013
20:21:44:142,6.6498,-1.169,10.8324,46.7064,-0.9758,0.3873,-0.6573,184.3474
20:21:44:162,6.1612,-1.1786,11.0048,46.372,-0.93,0.2051,-0.7148,184.9245
20:21:44:182,6.5492,-1.0348,10.4443,46.5528,-1.0845,-0.0793,-0.7521,185.6924
20:21:44:207,6.8463,-1.8254,11.8385,45.5044,-1.5319,0.0389,-0.8959,186.54
20:21:44:226,5.6198,-2.956,15.1346,46.3092,-1.647,0.5982,-0.8778,187.4291
20:21:44:242,4.9874,-3.7992,16.4186,44.7611,-0.9471,0.9337,-0.6573,188.5096
20:21:44:261,4.9203,-3.3441,13.6686,44.5422,-0.0192,0.7867,-0.4549,189.5468
20:21:44:282,5.2653,-2.4146,9.9077,43.4607,0.3185,0.4597,-0.3526,190.2769
20:21:44:308,5.6437,-1.4948,8.5471,45.8401,0.1267,0.4661,-0.4379,190.8187
20:21:44:326,4.355,-1.1115,8.6285,44.4923,-0.1087,0.8187,-0.6083,191.2498
20:21:44:343,3.162,-0.6085,7.9578,42.862,-0.1332,0.8027,-0.6658,191.8302
20:21:44:364,2.8554,-0.0862,6.9277,41.916,0.0394,0.0315,-0.8011,192.6266
20:21:44:381,1.2744,-0.1006,7.6272,41.3345,0.3611,-0.5086,-0.8448,193.4751
20:21:44:402,0.7139,0.0096,7.105,43.5298,0.5826,-0.1273,-0.6232,194.3673
20:21:44:423,1.0588,0.436,5.9025,42.7266,0.4665,0.5524,-0.4166,195.2494
20:21:44:442,1.4612,1.0588,6.0749,42.8766,0.2982,0.8943,-0.3825,195.925
20:21:44:463,1.3654,1.3127,6.7984,41.4666,0.278,1.0445,-0.4794,196.3928
20:21:44:480,0.9534,1.4804,7.3302,40.848,0.4058,0.9977,-0.4847,196.8293
20:21:44:502,1.0109,1.9355,7.5266,41.1945,0.5997,0.8528,-0.5199,197.3823
20:21:44:520,0.8097,2.3284,7.7661,40.4493,0.8085,0.53,-0.5454,197.9021
20:21:44:541,1.5427,2.5584,8.1303,40.5671,1.0109,0.2221,-0.6179,198.4595
20:21:44:559,0.4312,2.1655,8.0344,39.4204,1.013,0.3574,-0.6083,199.0172
20:21:44:580,1.9882,1.8014,7.6655,41.5414,0.539,0.6578,-0.4336,199.6772
20:21:44:600,0.6564,2.1511,10.9569,39.6762,0.4644,0.8783,-0.3313,200.2751
20:21:44:620,1.1498,2.0122,10.909,40.1072,0.7083,0.8368,-0.1012,200.6343
20:21:44:640,2.0745,1.8876,9.3711,39.3461,0.5912,0.7516,0.0202,200.7936
20:21:44:660,1.375,2.1559,9.946,38.6716,0.1267,1.1809,0.0575,200.6765
20:21:44:680,1.3942,1.6577,10.0562,38.1221,-0.3175,1.7934,0.3238,200.4536
20:21:44:703,2.8506,2.4003,10.9617,38.2984,-0.913,1.8105,0.2514,200.1069
20:21:44:721,2.0314,1.5187,14.3825,38.3473,-1.0003,1.4621,-0.1524,199.3733
20:21:44:742,0.3545,-0.4503,16.3994,36.0131,-0.5508,1.2203,-0.3995,198.8101
20:21:44:761,0.0335,-1.3367,16.4905,39.0482,0.1715,1.1212,-0.473,198.7625
20:21:44:781,0.1198,-1.0444,16.3947,37.6325,1.3305,2.0043,-0.7883,199.0346
20:21:44:802,-1.5523,-0.321,10.8611,37.7195,2.3968,4.3522,-0.653,199.3926
20:21:44:823,-3.3393,-0.4839,1.2552,37.9502,1.3965,2.3537,-0.1055,200.0087
20:21:44:844,-4.2496,0.9294,5.4856,38.7361,-0.5604,-2.0948,0.327,199.9769
20:21:44:871,-1.1738,0.5941,10.0993,37.4546,-0.3974,-0.5278,0.0969,199.4964
20:21:44:883,0.5845,-0.1246,10.3341,37.4599,0.2535,0.922,-0.5433,199.5087
20:21:44:901,-1.0588,-0.4072,7.7757,39.1068,0.2705,-1.771,-0.4325,199.4947
20:21:44:923,-2.0505,0.0048,8.4944,38.5936,0.1256,-2.066,0.1619,199.9413
20:21:44:942,-1.5714,0.2587,7.2248,37.9605,0.2748,-0.4362,0.6114,200.7815
20:21:44:962,-1.7966,0.7618,6.5971,38.3959,0.3398,-0.4745,1.1036,200.9881
20:21:44:987,-1.0253,0.7953,6.3911,38.9725,0.491,-0.4149,1.404,200.3305
20:21:45:005,0.0527,0.7905,6.1276,38.6724,0.5922,-0.1954,1.502,199.1227
20:21:45:024,0.9726,0.6755,6.0893,37.5931,0.6412,-0.0974,1.4136,197.5875
20:21:45:045,1.2552,1.169,6.2187,38.4742,0.7488,0.0197,1.2431,195.9063
20:21:45:065,1.2217,2.2038,6.7552,38.2329,0.8458,0.0762,1.0716,194.3282
20:21:45:088,1.2504,3.1285,8.2309,38.4415,0.9214,0.252,0.9022,192.8793
20:21:45:102,1.1546,3.1189,9.1555,38.3175,1.0748,0.5396,0.7393,191.6227
20:21:45:124,1.2313,2.8554,9.237,36.9913,1.241,0.6099,0.5976,190.5208
20:21:45:144,1.1642,3.5693,10.0802,38.4301,1.3667,0.2903,0.4112,189.5267
20:21:45:168,0.8384,4.2544,10.3628,39.2349,1.4721,-0.253,0.1587,188.6373
20:21:45:187,0.3929,4.1298,10.0706,37.7272,1.2751,-0.58,0.0447,188.0639
20:21:45:204,0.321,3.7849,10.406,38.1193,0.7882,-0.2103,0.2865,187.99
20:21:45:225,1.3223,3.828,9.9077,37.6399,0.1928,0.5311,0.5784,188.162
20:21:45:249,2.3524,4.7095,9.2465,38.2102,-0.4752,0.8411,0.392,187.9525
20:21:45:263,2.5823,5.088,9.5148,38.0439,-1.0291,0.6046,-0.0618,187.096
20:21:45:285,2.453,4.2975,10.5736,38.961,-1.3135,0.056,-0.555,186.319
20:21:45:304,1.9643,2.5344,11.3162,38.766,-1.3061,-0.3637,-0.9247,186.1533
20:21:45:324,1.0253,0.9199,11.1773,37.1934,-1.1431,-0.4202,-0.9609,186.7638
20:21:45:345,0.6324,0.6324,10.3676,37.2907,-0.9705,-0.3041,-0.6786,187.945
20:21:45:365,1.2265,1.2552,9.237,38.9504,-0.8576,-0.2945,-0.4741,189.1679
20:21:45:390,1.6481,1.8685,8.3267,38.9361,-0.8043,-0.401,-0.5423,190.0123
20:21:45:405,1.5139,2.1943,7.5266,38.9635,-0.8374,-0.4671,-0.701,190.6464
20:21:45:425,1.1163,2.2374,6.7361,38.0115,-0.9226,-0.3691,-0.8075,191.3583
20:21:45:445,0.5893,2.1463,6.0797,38.4699,-0.9726,-0.2476,-0.8395,192.2735
20:21:45:465,0.0335,2.0074,5.7156,38.6222,-0.9758,-0.1411,-0.783,193.2653
20:21:45:487,-0.1533,1.9787,5.73,38.4228,-0.9503,0.0464,-0.7191,194.2505
20:21:45:505,-0.3497,1.8062,6.1133,38.1485,-0.9023,0.367,-0.701,195.1063
20:21:45:525,-0.8384,1.696,6.5684,37.4397,-0.8107,0.7708,-0.7084,195.8809
20:21:45:547,-2.0505,1.8541,6.9086,39.3239,-0.6168,1.1585,-0.7297,196.5642
20:21:45:570,-2.1176,2.1751,7.3302,38.1135,-0.5039,1.231,-0.6307,197.1897
20:21:45:588,-1.9691,3.0039,8.8729,37.9992,-0.212,0.4341,-0.7393,197.7771
20:21:45:606,-3.0375,2.9369,9.6011,36.7895,0.148,-0.3872,-0.8448,198.2788
20:21:45:625,-3.4016,2.635,10.6359,36.9243,0.3462,-0.71,-0.6861,199.0268
20:21:45:646,-3.4064,2.3524,11.3258,36.8082,0.3536,-0.4298,-0.4826,199.9231
20:21:45:672,-3.4782,2.1943,11.8001,37.116,0.1161,-0.0356,-0.2568,200.7356
20:21:45:690,-3.071,1.5571,13.1272,36.2256,-0.1492,0.35,0.0202,201.2683
20:21:45:706,-2.5967,1.5092,14.6076,36.9036,-0.228,0.7676,0.36,201.4895
20:21:45:727,-1.4325,2.1463,14.646,37.4844,-0.2216,0.9668,0.5731,201.3162
20:21:45:748,0.3737,2.5823,14.531,36.9511,-0.3516,0.6823,0.409,200.7333
20:21:45:773,0.6037,1.2265,16.2701,36.3572,-0.2547,0.2221,-0.2035,199.9059
20:21:45:790,-2.6015,-1.1834,15.997,35.7532,0.3898,-0.0676,-0.4741,199.3606
20:21:45:806,-4.4939,-2.5919,13.3141,35.3509,0.9427,-0.0793,0.0458,199.6093
20:21:45:827,-3.7944,-2.5296,10.2766,35.4892,1.0854,-0.0165,0.8277,200.0542
20:21:45:848,-1.9691,-1.2504,8.5902,36.1153,0.8617,-0.204,1.3188,199.9169
20:21:45:900,-0.6851,0.3306,8.6621,37.684,0.5549,-0.5395,1.307,198.8735
20:21:45:903,-0.2491,1.1019,9.1172,35.4385,0.3035,-0.7611,1.0279,197.3594
20:21:45:911,-0.1533,1.1977,9.5963,37.8064,0.131,-0.7174,0.8,195.977
20:21:45:928,-0.1629,1.1163,9.625,36.9456,0.1086,-0.3872,0.6913,194.979
20:21:45:948,-0.3114,1.078,8.9399,36.0264,0.2343,0.0496,0.6796,194.224
20:21:45:969,-0.3929,1.054,7.8907,35.952,0.4282,0.4331,0.7137,193.5287
20:21:45:987,-0.4264,1.2456,6.784,37.2189,0.6295,0.6099,0.7563,192.735
20:21:46:007,-0.115,1.6864,5.6917,38.0868,0.7733,0.5183,0.7542,191.812
20:21:46:028,0.4264,2.0697,5.4042,38.4299,0.8234,0.2616,0.6221,190.8019
20:21:46:051,0.527,2.4769,5.6485,36.83,0.8532,0.0155,0.4101,189.8111
20:21:46:073,0.3018,3.0375,6.0893,37.2646,0.8468,-0.1305,0.1608,189.0589
20:21:46:090,0.1773,3.3249,5.9552,39.3329,0.6924,-0.2434,-0.1364,188.5843
20:21:46:109,-0.0862,3.2052,5.9025,39.0508,0.3174,-0.3606,-0.4357,188.4677
20:21:46:129,-0.3976,2.8937,6.7409,37.4819,-0.0512,-0.547,-0.5966,188.7168
20:21:46:150,0.0814,2.4146,8.5279,35.8747,-0.1993,-0.6727,-0.7148,189.3763
20:21:46:174,0.551,2.6686,10.6838,38.8293,-0.1439,-0.7259,-0.9257,190.2487
20:21:46:190,0.8672,2.4338,12.3798,36.8593,-0.0682,-0.6013,-1.0557,191.2872
20:21:46:209,1.4038,1.4996,12.8493,38.6609,-0.1066,0.0411,-1.028,192.585
20:21:46:231,1.3558,1.5619,12.308,37.2507,-0.2653,0.7857,-0.8501,193.9916
20:21:46:255,0.4983,2.2709,11.2827,37.1377,-0.4688,1.3428,-0.6435,195.1888
20:21:46:273,-0.321,2.9608,10.8707,38.2595,-0.733,1.3311,-0.5178,195.9093
20:21:46:291,-0.3785,2.6398,11.551,36.3513,-0.9939,0.7803,-0.5774,196.2027
20:21:46:310,-0.1102,1.399,12.7775,38.6459,-1.0898,0.0687,-0.8022,196.3722
20:21:46:330,-0.8384,-0.1629,13.4291,37.5281,-0.9556,-0.2455,-0.8565,196.8343
20:21:46:355,-1.8733,-0.4743,12.7487,37.9044,-0.6339,-0.1656,-0.5114,197.769
20:21:46:373,-1.5139,0.4312,11.1054,36.7885,-0.2855,-0.0633,0.0053,198.8388
20:21:46:389,-0.1198,1.1834,9.6346,37.7507,-0.0938,-0.2721,0.2173,199.448
20:21:46:410,0.1916,1.6241,9.0741,39.6559,-0.0384,-0.7472,0.0447,199.4686
20:21:46:431,-0.3449,1.4229,8.6477,38.5862,0.0106,-1.0178,-0.1641,199.3353
20:21:46:456,-0.7666,1.3127,8.1446,39.6263,0.0394,-1.1819,-0.2355,199.5058
20:21:46:475,-0.4168,1.6529,7.6943,39.3847,0.0244,-1.0871,-0.261,199.9544
20:21:46:491,0.2108,2.017,6.9086,38.7373,-0.0427,-0.6535,-0.2727,200.5016
20:21:46:511,0.4791,2.2805,6.2426,39.8169,-0.1268,-0.3861,-0.3441,201.0483
20:21:46:531,0.3306,1.9691,5.9025,40.9025,-0.1822,-0.3361,-0.4709,201.5229
20:21:46:558,-0.0383,1.6241,5.9408,39.9117,-0.2216,-0.3105,-0.522,202.1248
20:21:46:572,-0.6803,1.787,6.9756,40.1049,-0.2163,-0.0878,-0.359,202.8218
20:21:46:592,-1.0348,2.1799,7.9482,40.926,-0.0768,0.4064,-0.0256,203.5619
20:21:46:611,-0.8528,2.4769,8.3698,40.0013,0.213,0.8475,0.2407,204.046
20:21:46:631,-0.5126,2.8267,8.6333,40.725,0.6018,0.9199,0.3089,204.0606
20:21:46:654,-0.4791,3.1572,8.7148,40.2819,1.0077,0.7622,0.196,203.6869
20:21:46:672,-0.7282,3.4495,8.7722,41.6205,1.3464,0.6621,0.0479,203.2069
20:21:46:693,-0.8911,3.4064,8.9878,41.7526,1.5946,0.5652,-0.0693,202.8923
20:21:46:711,-0.757,3.186,9.5484,42.3682,1.7459,0.1795,-0.244,202.7479
20:21:46:731,-1.1594,2.9177,10.5162,43.7591,1.8109,-0.0697,-0.4602,202.7183
20:21:46:756,-2.6063,3.0566,11.3162,43.45,1.8109,0.089,-0.4219,202.9701
20:21:46:772,-3.1908,4.1298,10.8851,43.9255,1.6937,0.5801,-0.0107,203.546
20:21:46:792,-2.4865,5.5,10.061,45.8885,1.2857,0.7771,0.3483,203.9718
20:21:46:812,-1.7391,5.9504,10.1377,44.9613,0.6348,0.2701,0.3803,203.8335
20:21:46:834,-1.49,4.4556,10.909,46.9705,-0.0086,-0.0772,0.1757,203.1976
20:21:46:856,-1.8541,2.2422,11.4648,46.9636,-0.3942,0.3883,0.082,202.7251
20:21:46:874,-2.6254,1.2361,10.7317,46.681,-0.4997,1.166,0.3004,202.645
20:21:46:894,-2.6638,1.466,9.5244,47.3199,-0.4091,1.4919,0.6476,202.4134
20:21:46:913,-2.3907,2.0697,8.4512,47.4397,-0.2056,1.2746,0.882,201.5619
20:21:46:933,-2.635,2.1463,8.2692,49.5388,-0.0107,0.7495,1.159,200.1825
20:21:46:956,-1.5954,3.162,8.0776,49.1873,0.1118,0.5023,1.2272,198.6822
20:21:46:976,-0.3881,3.4926,7.2918,47.4792,0.0798,0.2669,0.8,197.1239
20:21:46:993,-0.3162,3.1141,6.899,48.4967,0.0106,0.2498,0.3483,195.64
20:21:47:014,-0.9678,2.3428,6.1468,49.1191,-0.0214,0.3745,0.1938,194.7627
20:21:47:043,-1.6577,2.2134,5.8929,48.3334,-0.0331,0.4831,0.295,194.3766
20:21:47:057,-1.5954,2.4242,5.7635,49.3555,-0.0032,0.5716,0.4335,194.0499
20:21:47:074,-1.4804,2.8985,5.6725,50.445,-0.0341,0.5588,0.4623,193.625
20:21:47:093,-1.6816,3.368,6.3576,49.253,-0.0565,0.5247,0.4559,193.0239
20:21:47:114,-1.5619,3.4016,7.5985,49.8833,0.1097,0.5865,0.4719,192.4207
20:21:47:138,-1.4804,3.6651,8.0392,49.7881,0.4292,0.7548,0.4655,191.7893
20:21:47:156,-1.6816,4.3694,7.6655,49.9268,0.7339,0.8144,0.4591,191.1345
20:21:47:174,-1.6241,5.0305,6.9517,51.5613,0.9448,0.6504,0.392,190.3919
20:21:47:194,-1.3415,5.7587,6.4199,50.6216,1.0013,0.2754,0.2237,189.6315
20:21:47:215,-1.8541,6.7265,6.1564,52.4649,0.9054,-0.0261,-0.065,189.0098
20:21:47:236,-2.5009,6.9804,7.0954,50.7263,0.588,-0.2285,-0.2866,188.7737
20:21:47:256,-3.4064,6.9373,8.3602,51.5463,0.262,-0.1731,-0.2962,189.0142
20:21:47:274,-3.8519,6.4486,9.3184,52.0671,-0.0544,-0.1731,-0.1385,189.5863
20:21:47:294,-3.2722,6.0318,10.4826,51.7068,-0.1716,-0.1656,0.0085,190.0431
20:21:47:316,-2.3092,6.2187,10.6455,51.6428,-0.1449,-0.351,0.017,190.3425
20:21:47:335,-1.4708,6.3384,10.5928,52.4039,-0.195,-0.7494,-0.1865,190.5215
20:21:47:357,-1.6337,5.7204,10.8946,51.7644,-0.4017,-1.1414,-0.4943,190.8848
20:21:47:375,-1.6625,4.3119,11.6708,52.6325,-0.6531,-1.1989,-0.685,191.7296
20:21:47:396,-1.6241,2.8794,11.6851,52.8425,-0.8118,-0.7057,-0.6626,193.2805
20:21:47:418,-1.5139,2.0409,10.1664,52.1494,-0.8288,-0.1613,-0.4869,194.8228
20:21:47:439,-1.3463,2.3045,8.4704,51.8834,-0.75,-0.287,-0.3367,195.9903
20:21:47:458,-0.8959,3.0327,7.8428,53.2135,-0.7106,-0.9709,-0.343,196.6646
20:21:47:476,-0.3929,3.2674,8.7195,51.667,-0.7905,-1.4695,-0.5668,197.235
20:21:47:496,-0.1485,2.5392,9.6202,52.462,-0.9023,-1.1052,-0.7723,198.1549
20:21:47:517,-0.4743,1.7727,9.1891,52.2387,-1.0003,-0.4564,-0.7766,199.5989
20:21:47:537,-1.6337,2.5632,8.7818,52.6455,-0.9716,0.2136,-0.4687,201.0206
20:21:47:559,-1.7439,2.9416,7.9961,52.7831,-0.7244,0.6419,-0.1151,202.1174
20:21:47:576,-1.2696,2.8315,7.3014,51.9832,-0.3068,0.7356,-0.0054,202.5718
20:21:47:600,-1.2313,3.0854,6.9181,51.9499,0.1821,0.5716,-0.1012,202.4855
20:21:47:622,-1.4852,3.4878,6.6067,52.8071,0.5741,0.2871,-0.2227,202.2769
20:21:47:640,-1.8254,3.4543,6.2522,51.1491,0.7787,0.1273,-0.2557,202.2315
20:21:47:662,-2.0266,3.4782,5.7923,53.4749,0.784,0.0719,-0.1843,202.4289
20:21:47:679,-2.2038,3.9238,5.1742,53.267,0.4782,-0.0239,-0.0608,202.696
20:21:47:699,-1.787,4.4412,6.1037,53.1428,0.1118,-0.156,-0.0064,202.9147
20:21:47:721,-1.8733,4.7383,7.0427,54.431,-0.1737,-0.1752,-0.0895,203.0247
20:21:47:738,-2.4482,4.6903,8.2836,54.8229,-0.3228,-0.1709,-0.0853,203.2202
20:21:47:759,-3.4064,5.0066,9.4957,54.0847,-0.3228,-0.2828,-0.049,203.5113
20:21:47:777,-3.3393,4.4987,11.206,54.5907,-0.2728,-0.5555,0.0064,203.7859
20:21:47:798,-2.6638,3.5166,13.5249,53.7906,-0.1588,-0.5608,0.1342,204.0577
20:21:47:819,-3.2339,3.6172,14.2675,55.2901,0.1395,-0.057,0.458,204.3696
20:21:47:838,-2.7069,4.4652,11.9247,54.6689,0.3568,0.4981,0.8628,204.5305
20:21:47:859,-0.8863,5.2701,10.2287,54.867,0.2045,0.1604,0.8266,204.1602
20:21:47:879,-0.3833,5.1024,11.5318,55.0565,-0.0054,-0.4543,0.3536,203.0746
20:21:47:898,-1.1498,3.277,12.8254,55.2649,0.0724,-0.4543,-0.0458,202.1825
20:21:47:926,-2.4338,1.1882,11.4456,54.9386,0.3121,0.0006,-0.0054,202.0867
20:21:47:938,-2.9273,0.4983,8.5758,54.8105,0.343,0.268,0.3877,202.4003
20:21:47:957,-2.2326,1.0205,6.8463,55.0838,0.0308,0.1859,0.686,202.3992
20:21:47:978,-1.4038,2.0122,7.6655,56.2529,-0.3846,-0.0719,0.7563,201.8432
20:21:47:999,-0.7186,2.544,8.9735,56.3131,-0.5732,-0.0783,0.6327,201.0602
20:21:48:020,-0.757,2.3476,9.4861,56.3131,-0.5849,-0.0079,0.4666,200.3639
20:21:48:039,-1.4085,2.3524,9.3136,56.1216,-0.4688,0.0986,0.4772,199.7956
20:21:48:060,-1.3319,2.3955,8.3363,56.2579,-0.2717,0.1263,0.5582,199.3776
20:21:48:079,-1.0875,2.6446,7.1529,55.0394,-0.0895,0.1486,0.5624,198.949
20:21:48:106,-0.8528,2.8315,5.9695,54.6503,-0.0437,0.1433,0.5262,198.3603
20:21:48:122,-0.7234,3.0854,5.4521,56.1441,-0.1524,0.0357,0.4932,197.7584
20:21:48:142,-0.6707,3.2339,5.8498,55.7989,-0.2792,-0.0996,0.4708,197.2181
20:21:48:159,-0.7091,3.2579,6.5444,55.3195,-0.2685,-0.1645,0.4559,196.7244
20:21:48:178,-0.8815,3.2483,6.9708,55.386,-0.1353,-0.1635,0.4399,196.3443
20:21:48:199,-0.8576,3.4303,6.99,55.771,0.034,-0.1582,0.4399,196.0169
20:21:48:219,-0.5605,3.9382,6.9277,55.8454,0.1406,-0.2647,0.3739,195.6807
20:21:48:239,-0.0767,4.1873,7.4116,56.0952,0.181,-0.3925,0.2098,195.3596
20:21:48:260,-0.1102,4.3933,7.8763,56.4309,0.1938,-0.3084,0.0458,195.1423
20:21:48:279,-0.3929,4.4604,7.9242,56.7298,0.1246,-0.1443,-0.0799,195.1775
20:21:48:299,-0.7139,4.4412,8.4225,57.6212,-0.1055,-0.0878,-0.1513,195.3573
20:21:48:321,-0.8576,4.4125,9.9604,56.0008,-0.4613,-0.0207,-0.1023,195.6354
20:21:48:339,-0.7426,3.6747,11.024,55.9041,-0.7638,0.105,0.0287,195.9233
20:21:48:359,-0.7666,3.1764,10.8755,57.5024,-0.8118,0.3095,0.2471,196.1242
20:21:48:379,-0.5989,3.3489,10.5545,55.3015,-0.6254,0.4288,0.4825,196.1276
20:21:48:403,0.3354,4.0627,10.5832,56.2207,-0.4858,0.2104,0.4804,195.8367
20:21:48:420,0.4503,4.355,11.2396,55.5699,-0.5124,-0.3435,0.1619,195.2171
20:21:48:440,0.3881,3.4447,12.169,55.4485,-0.5657,-0.6567,-0.1662,194.734
20:21:48:460,0.1868,1.9691,12.3655,56.2216,-0.5231,-0.5619,-0.3537,194.7714
20:21:48:480,-0.1246,0.8815,11.5558,57.2302,-0.3729,-0.3254,-0.2909,195.293
20:21:48:502,-0.1389,0.5653,10.3868,53.0409,-0.2163,-0.1784,-0.1811,195.9228
20:21:48:520,0.3881,0.8815,9.4621,54.1943,-0.1748,-0.1795,-0.2291,196.379
20:21:48:540,0.8863,1.1402,8.9687,55.3743,-0.293,-0.3297,-0.473,196.6953
20:21:48:560,0.6612,1.2313,8.6333,54.3026,-0.4847,-0.4341,-0.6871,197.052
20:21:48:581,0.3641,1.4038,8.0536,54.0053,-0.5923,-0.4223,-0.7457,197.7321
20:21:48:603,0.1629,1.5762,7.6464,54.4135,-0.5061,-0.5086,-0.7468,198.6805
20:21:48:621,0.2204,1.9355,7.3924,54.4934,-0.2472,-0.6002,-0.7649,199.6688
20:21:48:641,0.4168,2.0745,7.105,53.9679,0.0351,-0.4692,-0.8533,200.7278
20:21:48:662,0.2539,2.1895,6.9325,53.6817,0.2801,-0.1731,-0.946,201.7822
20:21:48:681,-0.0575,2.2709,6.8367,52.7341,0.4431,0.2328,-0.9961,202.9639
20:21:48:702,-0.4935,2.4003,6.6498,53.1511,0.4974,0.6238,-1.028,204.1218
20:21:48:721,-1.169,2.7692,6.6259,53.4099,0.4846,0.7974,-1.0035,205.2496
20:21:48:742,-1.8924,3.1764,6.8463,54.3158,0.3898,0.6536,-0.8544,206.2757
20:21:48:762,-2.5344,3.5597,7.5841,52.6073,0.245,0.2115,-0.5678,207.1985
20:21:48:784,-2.0793,3.4639,8.7579,53.3332,0.1693,-0.0783,-0.2344,207.9955
20:21:48:805,-0.963,3.3585,9.946,54.5787,0.2237,0.187,-0.0501,208.5676
20:21:48:824,-0.7618,3.6842,10.8994,52.7705,0.4143,0.5961,-0.0554,208.8609
20:21:48:846,-0.9917,3.919,11.9918,53.3621,0.7573,0.7005,-0.1225,208.8727
20:21:48:864,-1.4277,3.4447,12.6481,54.1634,1.1739,0.3915,-0.2685,208.7846
20:21:48:883,-2.453,2.9704,13.223,54.5963,1.4881,0.106,-0.3548,208.7374
20:21:48:905,-2.9273,3.1956,13.4482,54.1775,1.5797,0.4576,-0.1492,208.936
20:21:48:923,-2.3667,3.8759,13.0266,55.0694,1.2719,0.5385,0.1022,209.2623
20:21:48:948,-2.5727,4.2017,12.902,53.9371,0.6764,0.2626,0.2684,209.2018
20:21:48:966,-2.4769,2.7979,13.0841,54.7033,0.3025,0.3702,0.2972,208.8447
20:21:48:988,-2.4769,1.4804,11.5654,53.561,0.2993,0.8059,0.2684,208.4468
20:21:49:006,-3.3201,1.5235,7.4547,55.5763,0.2471,1.0605,0.506,207.9228
20:21:49:024,-3.1572,2.5823,4.2256,55.1212,-0.4432,0.0847,0.7765,207.2105
20:21:49:043,-1.4373,3.3249,7.081,54.2982,-1.0504,-1.0785,0.6828,206.1107
20:21:49:063,-0.1485,3.0614,9.5436,53.8281,-1.1292,-1.5451,0.3281,205.1867
20:21:49:087,0.3833,2.6111,10.0323,56.1171,-0.9961,-1.5579,0.0213,204.9442
20:21:49:105,-0.0623,2.4194,9.9939,53.2421,-0.8075,-1.0487,-0.097,205.2855
20:21:49:125,-0.4408,2.1751,9.3472,54.5563,-0.4869,-0.4234,-0.0757,205.9478
20:21:49:144,-0.824,2.3572,8.4944,53.3713,-0.1588,-0.0825,0.0032,206.4698
20:21:49:164,-0.8815,1.8206,7.1433,53.0651,0.0788,0.1071,0.0788,206.7196
20:21:49:186,-0.9342,1.3702,6.257,53.5882,0.2439,0.1252,0.1683,206.7339
20:21:49:204,-1.1929,1.9451,5.9839,54.4061,0.3472,-0.0165,0.4144,206.5796
20:21:49:224,-0.7043,2.8267,6.0749,53.8773,0.3824,-0.0793,0.67,206.326
20:21:49:244,0.3689,3.5884,6.5205,53.9043,0.3249,-0.0921,0.6306,205.8663
20:21:49:264,0.6851,4.0867,7.2631,53.6271,0.2418,-0.0719,0.3536,205.157
20:21:49:286,0.3929,4.1154,7.8236,53.2774,0.1992,0.0613,0.114,204.5465
20:21:49:304,-0.1629,4.24,8.0536,53.9889,0.1715,0.2616,0.0213,204.2164
20:21:49:325,-0.4695,4.5035,8.1207,53.7085,0.1512,0.3265,0.0181,204.0938
20:21:49:345,-0.1773,4.8197,8.5806,54.5522,0.148,0.0613,-0.0426,203.9828
20:21:49:365,0.4503,4.9299,9.6394,54.2812,0.1555,-0.2892,-0.244,203.8232
20:21:49:386,1.0013,4.3646,10.9713,53.917,0.196,-0.499,-0.489,203.8614
20:21:49:405,0.9534,3.6363,11.6612,54.5928,0.2833,-0.3659,-0.554,204.2777
20:21:49:425,0.7857,3.5788,11.2108,53.5485,0.3462,0.0645,-0.4197,205.0218
20:21:49:445,0.9821,4.2783,10.3964,54.188,0.2567,0.1348,-0.3047,205.7576
20:21:49:465,1.8349,4.6856,10.2335,53.788,-0.0075,-0.3744,-0.4144,206.1592
20:21:49:486,2.5775,4.1538,10.8371,55.2844,-0.3654,-0.9816,-0.7873,206.4236
20:21:49:506,1.9787,2.7692,11.6468,52.5608,-0.6435,-1.1361,-1.0696,207.0748
20:21:49:526,1.0444,1.1402,11.3306,53.7333,-0.7457,-0.6578,-0.8927,208.3823
20:21:49:546,1.1546,0.5078,10.2814,53.554,-0.7138,-0.0527,-0.5423,210.0187
20:21:49:567,2.0793,1.0828,9.7161,54.0013,-0.5977,0.2616,-0.456,211.2138
20:21:49:586,2.7117,1.8733,9.9077,53.1157,-0.4613,0.1199,-0.7084,211.7979
20:21:49:606,1.8014,2.017,9.7592,53.6552,-0.3058,0.0038,-1.0024,212.1775
20:21:49:626,0.4503,1.6577,8.9974,53.5353,-0.1023,0.2775,-1.0195,212.933
20:21:49:646,-0.2491,1.49,7.8572,52.2882,0.1427,0.5822,-0.8608,214.0411
20:21:49:669,-0.4935,1.9355,7.014,53.4597,0.409,0.726,-0.6786,215.0231
20:21:49:687,-0.4264,2.6111,6.5636,52.0824,0.6689,0.758,-0.5838,215.6879
20:21:49:708,-0.4551,3.0614,6.3193,52.8942,0.9065,0.7537,-0.5955,216.1191
20:21:49:728,-0.7761,3.1285,6.166,54.7126,1.1089,0.7676,-0.6754,216.3974
20:21:49:747,-1.1882,3.2243,6.0797,54.6829,1.2197,0.644,-0.7926,216.7478
20:21:49:767,-2.3332,3.6842,4.5562,53.6439,1.1334,0.7665,-0.7926,217.1015
20:21:49:787,-2.6686,4.2256,4.24,53.2843,0.7073,0.3329,-0.6094,217.6267
20:21:49:807,-1.8493,4.7287,4.8484,53.3945,0.1459,0.2083,-0.4251,218.0388
20:21:49:828,-0.8432,5.2557,6.4007,51.9302,-0.293,0.3244,-0.4741,218.4743
20:21:49:848,-1.3702,5.4856,7.7661,53.1599,-0.4688,0.4586,-0.6903,218.7722
20:21:49:871,-2.9033,5.1886,9.1747,53.0257,-0.4134,0.3553,-0.8341,219.1166
20:21:49:888,-4.0436,5.2796,9.3663,53.29,-0.2632,-0.0197,-0.7755,219.6434
20:21:49:908,-3.7322,5.3707,9.1268,51.5127,-0.4869,-0.6823,-0.7255,220.3341
20:21:49:928,-2.247,4.8245,11.4504,50.8948,-0.865,-1.1606,-0.9641,221.1349
20:21:49:960,-1.8349,4.331,12.8158,52.5841,-1.0728,-0.7962,-1.2794,222.1294
20:21:49:970,-2.3859,3.5645,12.8685,54.2067,-1.3029,-0.858,-1.2943,223.5982
20:21:49:987,-2.865,3.1045,13.8363,51.9631,-1.533,-1.5835,-0.9119,225.3027
20:21:50:008,-1.2744,2.0745,15.1394,50.9032,-1.501,-1.9521,-0.5625,227.0318
20:21:50:029,0.3593,0.3354,14.1046,49.6422,-1.2113,-1.4716,-0.4624,228.5191
20:21:50:049,0.7953,-0.8384,11.7235,49.6174,-0.8395,-0.9166,-0.3793,229.6542
20:21:50:071,0.3689,-0.3737,10.5066,49.7344,-0.5519,-0.253,-0.1385,230.47
20:21:50:089,-0.4887,0.6468,10.4635,50.2002,-0.3015,0.0933,0.1779,231.0179
20:21:50:109,-0.321,0.8576,10.1472,49.0453,-0.0789,-0.1518,0.343,231.1563
20:21:50:129,0.2635,0.5558,9.4046,49.1935,0.0521,-0.4287,0.2567,230.8562
20:21:50:149,0.3689,0.4887,8.6668,50.8533,0.1129,-0.2753,0.0894,230.4312
20:21:50:169,0.0814,0.6707,8.0728,50.189,0.1544,-0.0069,-0.0821,230.1479
20:21:50:190,-0.2683,0.8384,7.3493,49.3583,0.18,0.1231,-0.1779,230.0298
20:21:50:209,-0.3689,1.0061,6.5732,48.3336,0.1235,0.2019,-0.1343,230.0246
20:21:50:230,-0.3449,1.4038,6.4486,50.1221,0.0138,0.1433,-0.0458,230.0802
20:21:50:252,-0.3689,1.6098,6.6211,48.1284,-0.081,0.0357,-0,230.1133
20:21:50:270,-0.3114,1.5475,6.9708,48.4207,-0.1055,-0.0452,0.0266,230.0354
20:21:50:290,-0.2012,1.5619,7.2966,48.5249,-0.0523,-0.0207,0.0383,229.9255
20:21:50:310,-0.0383,1.8206,7.5553,48.2487,0.0191,0.0624,-0.0139,229.8435
20:21:50:330,0.0767,2.2374,7.9386,47.6446,0.0852,0.0325,-0.1023,229.7403
20:21:50:350,0.1437,2.6063,8.3554,48.1228,0.1576,-0.0186,-0.195,229.6809
20:21:50:372,0.2731,2.865,8.7818,48.3284,0.2258,0.0027,-0.3207,229.7336
20:21:50:390,0.0575,2.9752,9.1986,48.0337,0.2343,0.1806,-0.5007,229.8963
20:21:50:412,-0.5558,2.7644,9.5628,47.0508,0.2109,0.1668,-0.6435,230.1922
20:21:50:432,-0.7522,2.3428,10.0179,47.3153,0.2109,-0.1518,-0.6882,230.6655
20:21:50:452,-0.3018,2.0218,10.8276,46.6827,0.2418,-0.5619,-0.6829,231.2912
20:21:50:471,0.1437,1.8924,11.6516,47.1303,0.3238,-0.6705,-0.6115,232.0389
20:21:50:491,0.7666,2.1799,11.3402,44.8887,0.409,-0.287,-0.4751,232.8413
20:21:50:511,1.7631,2.7069,10.4635,47.0784,0.3153,0.0602,-0.5327,233.584
20:21:50:531,2.2134,3.0375,10.3245,46.3615,-0.0011,-0.1358,-0.8533,234.1222
20:21:50:553,2.5392,2.1416,11.0671,45.5513,-0.3867,-0.6535,-1.2357,234.6614
20:21:50:572,1.9643,0.6707,12.2601,46.0943,-0.5668,-0.7771,-1.4083,235.6344
20:21:50:591,1.0492,-0.4647,12.3846,44.8078,-0.4006,-0.3009,-1.2283,237.1378
20:21:50:612,1.169,-0.733,10.8324,43.5592,-0.0789,0.2221,-0.9609,238.8738
20:21:50:632,2.2278,-0.1437,9.2226,45.1305,0.0628,0.3074,-0.9385,240.2542
20:21:50:653,2.5536,0.7091,9.0262,44.1042,-0.0373,-0.1688,-1.1963,241.2094
20:21:50:671,1.7535,0.8145,9.4094,44.6738,-0.1513,-0.5544,-1.42,242.131
20:21:50:692,0.5797,0.8336,9.3232,45.2801,-0.1566,-0.661,-1.4009,243.4909
20:21:50:712,0.321,0.8336,8.6285,43.9123,-0.1311,-0.3307,-1.2389,245.1782
20:21:50:733,0.4599,0.9199,7.9769,42.7079,-0.0714,0.0996,-1.1558,246.8065
20:21:50:756,0.0719,1.4229,7.5889,42.0547,0.0202,0.0794,-1.1132,248.1991
20:21:50:773,-0.1006,1.8349,7.5601,41.6148,0.1182,0.007,-1.0791,249.3933
20:21:50:793,0.0335,1.9068,7.4835,39.3089,0.1949,0.0773,-1.1111,250.6059
20:21:50:813,-0.0431,1.8876,7.3877,41.7385,0.2386,0.2051,-1.1495,251.797
20:21:50:844,-0.3497,2.1463,7.5026,41.711,0.279,0.1699,-1.1505,253.0129
20:21:50:856,-0.3976,2.4626,7.6607,40.2329,0.328,0.0389,-1.1431,254.2375
20:21:50:874,-0.3354,2.635,8.0488,40.9676,0.3462,-0.0346,-1.1356,255.4366
20:21:50:893,-0.4887,2.7452,8.6094,41.0949,0.3589,0.0549,-1.0781,256.68
20:21:50:915,-0.9678,2.7308,8.7052,40.8464,0.3941,0.3074,-0.9471,257.9531
20:21:50:940,-1.3079,2.98,8.7243,40.4757,0.4356,0.5012,-0.8192,259.1253
20:21:50:954,-1.4085,3.3441,9.0884,41.2475,0.4537,0.416,-0.7809,260.096
20:21:50:975,-1.2936,3.1908,9.7209,40.3757,0.4133,0.1838,-0.848,260.8879
20:21:50:995,-1.5187,2.5727,10.2958,38.7607,0.3525,0.0453,-0.865,261.6108
20:21:51:016,-1.9308,2.4242,10.7365,39.4203,0.3312,0.1806,-0.7191,262.5019
20:21:51:035,-1.7391,2.7165,10.5449,38.1318,0.2141,0.5513,-0.5657,263.3741
20:21:51:058,-1.4133,2.8219,10.6311,38.6816,-0.0842,0.3585,-0.5966,264.053
20:21:51:075,-1.2504,2.0889,11.575,38.6345,-0.3953,-0.2945,-0.75,264.4864
20:21:51:096,-1.3463,0.5078,12.8446,38.3524,-0.4709,-0.5331,-0.8011,264.9958
20:21:51:123,-2.2086,-0.5222,13.1608,38.5285,-0.2323,-0.156,-0.5934,265.8344
20:21:51:140,-2.8123,-0.5989,11.9534,38.136,0.1278,0.2999,-0.2184,266.7744
20:21:51:155,-2.2709,0.2683,10.5689,37.3105,0.3653,0.1817,0.0436,267.3591
20:21:51:176,-1.0971,1.3223,9.7256,37.2844,0.343,-0.2338,0.0522,267.4398
20:21:51:199,-0.5462,1.8158,9.4286,37.3527,0.147,-0.4426,-0.1034,267.2544
20:21:51:216,-0.7713,1.605,8.892,35.8134,-0.064,-0.2636,-0.1854,267.2157
20:21:51:236,-1.0157,1.3079,7.9338,36.619,-0.2333,0.0197,-0.1321,267.425
20:21:51:259,-1.0636,1.3127,6.9181,36.3047,-0.3899,0.1668,-0.0405,267.6523
20:21:51:277,-1.2792,1.3654,6.3768,35.1718,-0.5178,0.105,0.033,267.7737
20:21:51:296,-1.3846,1.3942,6.6978,35.7021,-0.5231,-0.2881,0.0958,267.7795
20:21:51:318,-0.9342,1.5906,7.2343,36.2546,-0.375,-0.4937,0.1566,267.7199
20:21:51:342,-0.4839,1.787,7.5505,36.3221,-0.1769,-0.319,0.1225,267.6408
20:21:51:359,-0.6037,1.9403,7.5122,34.5383,0.0191,-0.123,0.0447,267.5164
20:21:51:378,-0.7666,2.0745,7.2631,33.9339,0.181,-0.058,0.0117,267.4252
20:21:51:396,-0.7186,2.3763,7.0331,35.1584,0.2673,-0.0559,-0.0235,267.4023
20:21:51:416,-0.551,2.7548,7.0571,34.4914,0.2599,-0.0644,-0.0927,267.3578
20:21:51:437,-0.4839,3.186,7.4595,34.2358,0.1874,-0.1645,-0.2035,267.3984
20:21:51:458,-0.4503,3.5118,8.1734,33.9616,0.0841,-0.1901,-0.3462,267.5449
20:21:51:480,-0.4647,3.4926,9.1172,33.9616,-0.0075,-0.2455,-0.5209,267.8629
20:21:51:501,-0.5174,3.0518,10.4155,33.8288,-0.0608,-0.4191,-0.7287,268.3334
20:21:51:524,-0.6468,2.2613,11.8049,34.683,-0.0384,-0.6013,-0.8661,269.0253
20:21:51:542,-0.3449,1.4469,12.7535,32.4545,0.0926,-0.6194,-0.8064,269.9742
20:21:51:562,-0.1389,1.2648,12.926,33.265,0.3131,-0.4127,-0.5646,271.1066
20:21:51:579,0.1341,2.0553,12.193,31.783,0.474,0.0208,-0.2972,272.1465
20:21:51:600,0.9055,3.0423,11.0527,32.9488,0.3824,0.269,-0.3015,272.8608
20:21:51:623,1.4421,3.3728,10.9282,30.8012,0.0362,-0.0708,-0.604,273.1831
20:21:51:642,1.8349,2.5919,11.848,31.4013,-0.3399,-0.6098,-0.9737,273.5015
20:21:51:661,1.6529,0.9247,12.9787,30.2625,-0.489,-0.7547,-1.2602,274.2365
20:21:51:680,0.3306,-0.6755,12.9164,29.9608,-0.277,-0.3691,-1.1846,275.484
20:21:51:702,-0.527,-1.2121,11.0527,30.9099,0.1448,0.2914,-0.7628,277.0302
20:21:51:725,0.2539,-0.3545,8.8441,30.1801,0.425,0.5407,-0.4901,278.3967
20:21:51:742,0.9965,0.9821,7.8524,30.632,0.3632,0.089,-0.6051,279.1406
20:21:51:761,0.5366,1.5906,7.5362,31.2317,0.0681,-0.5097,-0.7979,279.5364
20:21:51:780,-0.0862,1.4181,7.3206,29.9272,-0.2696,-0.5054,-0.7915,280.213
20:21:51:802,-0.5078,1.2648,7.0715,30.3611,-0.5114,-0.1464,-0.6221,281.2689
20:21:51:821,-0.5366,1.5139,6.8127,29.5917,-0.6168,0.1028,-0.4879,282.2912
20:21:51:842,-0.7282,1.8349,6.9229,28.9005,-0.5902,0.1018,-0.4773,283.08
20:21:51:862,-1.0157,2.0793,7.3829,28.4571,-0.4134,-0.0197,-0.473,283.6645
20:21:51:883,-0.9821,2.1943,7.5649,29.5434,-0.1833,0.0474,-0.4933,284.2567
20:21:51:902,-1.0348,2.3092,7.7949,28.6287,0.0095,0.171,-0.5731,284.9522
20:21:51:926,-1.399,2.5488,8.4656,30.0994,0.164,0.1039,-0.5849,285.6353
20:21:51:941,-1.6098,2.8075,9.5675,27.7681,0.3312,-0.2114,-0.4783,286.4303
20:21:51:959,-0.7761,2.6973,10.6359,28.3442,0.638,-0.6162,-0.3878,287.223
20:21:52:011,-0.0096,2.4338,10.1185,28.8868,0.9811,-0.1155,-0.4038,287.9844
20:21:52:013,0.3354,2.017,9.419,28.4709,1.2303,1.0467,-0.5124,288.6976
20:21:52:022,-1.4708,2.5967,9.5963,28.3428,1.4274,2.0501,-0.5337,289.284
20:21:52:041,-2.7452,3.0279,9.5292,27.3733,1.4977,1.6954,-0.358,289.7633
20:21:52:061,-2.1607,3.1668,8.2261,27.7197,1.0002,0.1423,-0.3303,289.9512
20:21:52:080,-2.865,2.7069,8.6333,29.5405,0.0479,-0.3105,-0.3175,289.9673
20:21:52:100,-3.6315,2.4769,10.0466,29.1615,-0.8267,-0.3339,0.0841,290.3809
20:21:52:121,-2.9464,2.5009,12.102,28.1445,-1.3892,-0.3222,0.4932,290.9415
20:21:52:143,-1.7487,1.5619,14.1381,28.6995,-1.4999,-0.6663,0.5763,291.0566
20:21:52:160,-1.6146,0.1198,15.0867,29.038,-1.1623,-0.8399,0.5763,290.6866
20:21:52:183,-1.7104,-0.8911,13.8986,30.1973,-0.5945,-0.2146,0.7286,290.2614
20:21:52:208,-1.4325,-0.6803,11.7858,26.8157,-0.015,0.6514,0.8405,289.8393
20:21:52:222,-1.4804,0.6803,10.3916,29.6098,0.4708,1.0744,0.7148,289.0819
20:21:52:243,-1.7487,1.1163,8.9543,29.3552,0.7605,0.4245,0.4868,288.1271
20:21:52:264,-1.6193,1.2983,7.8668,29.7564,0.6998,-0.531,0.2791,287.1834
20:21:52:281,-1.2888,1.0061,7.7853,31.5223,0.3717,-0.8623,0.1619,286.6456
20:21:52:301,-1.4181,0.8001,8.1494,30.8336,0.0244,-0.7195,0.2162,286.5702
20:21:52:322,-1.3367,0.6899,7.8715,30.8261,-0.1865,-0.2988,0.4218,286.7243
20:21:52:343,-0.9007,0.7857,7.1098,30.2403,-0.2877,0.0464,0.5869,286.7673
20:21:52:365,-0.5893,1.1211,6.4055,31.5514,-0.2973,0.1593,0.6487,286.4834
20:21:52:383,-0.3737,1.399,6.2426,30.7586,-0.2216,0.0325,0.6242,285.896
20:21:52:406,-0.2539,1.6577,6.4486,31.9735,-0.0682,-0.1464,0.5433,285.2432
20:21:52:422,-0.1725,1.7966,6.7265,32.4435,0.1022,-0.2487,0.4303,284.6623
20:21:52:443,-0.1964,1.9164,7.1098,30.7803,0.2364,-0.3041,0.3291,284.337
20:21:52:469,-0.091,2.0074,7.2775,33.0497,0.3227,-0.2849,0.2769,284.2001
20:21:52:482,0.1294,2.2805,7.426,32.444,0.3291,-0.2945,0.2066,284.1949
20:21:52:503,-0.0335,2.7308,7.747,31.4659,0.2609,-0.2242,0.1097,284.2613
20:21:52:522,-0.1725,3.0327,8.2309,32.6475,0.1352,-0.1368,0.0234,284.4309
20:21:52:545,-0.3737,3.095,9.0549,31.9205,-0.0128,-0.1848,-0.0586,284.6624
20:21:52:564,-0.5174,2.7644,10.0418,31.7579,-0.1375,-0.254,-0.1406,285.0139
20:21:52:584,-0.5797,2.314,11.0479,33.3285,-0.2088,-0.3627,-0.1758,285.4842
20:21:52:606,-0.6132,2.132,12.0109,33.8872,-0.163,-0.3211,-0.1108,286.0258
20:21:52:623,0.2252,2.1943,11.8193,33.3617,-0.1183,-0.2849,0.0202,286.6196
20:21:52:643,1.8014,2.3907,11.6899,33.9819,-0.3037,-0.5289,-0,287.1559
20:21:52:663,3.095,2.0793,12.6481,33.6106,-0.5806,-0.776,-0.3239,287.495
20:21:52:682,3.5549,1.0348,14.0567,33.8881,-0.6605,-1.0114,-0.6925,287.9467
20:21:52:710,2.865,-0.2587,14.5693,34.6881,-0.3867,-0.7387,-0.8938,288.7982
20:21:52:739,1.5954,-0.8911,13.0793,36.3527,0.1139,0.0464,-0.7862,290.0613
20:21:52:746,0.8767,-0.206,10.1904,35.8908,0.4942,0.8592,-0.4826,291.4635
20:21:52:764,1.4756,0.8001,7.8572,36.0651,0.4601,0.7207,-0.4176,292.4445
20:21:52:792,2.1272,1.2409,7.6751,36.2813,0.0298,-0.2295,-0.7574,292.9287
20:21:52:805,1.4517,0.5558,9.0022,35.4306,-0.4421,-0.6876,-1.0728,293.3939
20:21:52:824,0.0048,-0.0767,10.0371,36.3938,-0.6073,-0.302,-0.9321,294.474
20:21:52:843,-0.733,0.0862,9.74,36.796,-0.4901,0.1838,-0.4837,295.9984
20:21:52:863,-0.3306,0.7713,8.5327,36.4367,-0.2855,0.4384,-0.1502,297.2756
20:21:52:883,0.1341,1.581,7.4499,36.7194,-0.1332,0.4586,-0.0874,297.9728
20:21:52:909,0.2875,2.1032,6.8319,37.3803,-0.0395,0.3915,-0.1875,298.2194
20:21:52:924,0.1964,2.1943,6.5444,36.9557,0.0447,0.3127,-0.3537,298.4457
20:21:52:945,0,2.1511,6.554,37.8657,0.1384,0.2253,-0.4943,298.7887
20:21:52:964,-0.1437,2.1368,6.7648,36.769,0.2066,0.2168,-0.5731,299.3325
20:21:52:988,-0.2683,2.1799,7.0954,36.9967,0.2268,0.2243,-0.5955,300.2394
20:21:53:006,-0.3545,2.3188,7.3589,36.4404,0.2183,0.2988,-0.5721,301.2578
20:21:53:025,-0.4216,2.4913,7.4308,39.2394,0.2045,0.4139,-0.5178,302.3016
20:21:53:048,-0.4599,2.7117,7.6512,37.6919,0.1768,0.4075,-0.4687,303.2892
20:21:53:065,-0.6372,2.8889,8.365,39.0864,0.1565,0.2541,-0.4432,304.2067
20:21:53:091,-1.0684,3.1141,9.3328,38.4373,0.1874,0.1753,-0.3963,305.0248
20:21:53:106,-1.054,3.4351,10.085,38.4893,0.2237,0.2115,-0.3441,305.8453
20:21:53:126,-0.7378,3.416,10.8611,39.568,0.196,0.0975,-0.3974,306.6591
20:21:53:148,-0.848,2.7931,11.7474,39.4863,0.1746,-0.1337,-0.489,307.372
20:21:53:168,-1.7008,2.3284,12.4469,40.236,0.2748,-0.0815,-0.3675,308.2207
20:21:53:189,-2.7883,2.9943,12.2601,39.7304,0.4889,0.302,0.0905,309.1855
20:21:53:206,-2.5057,4.0771,11.0959,39.2535,0.5645,0.6152,0.4847,309.9658
20:21:53:226,-1.6385,4.2592,10.1137,40.6611,0.327,0.5598,0.4708,310.1879
20:21:53:247,-0.9774,3.5741,10.5497,39.8063,-0.0672,0.0336,0.1342,309.8586
20:21:53:267,-1.0923,1.9116,12.2313,40.6867,-0.2802,-0.5875,-0.2248,309.3655
20:21:53:288,-1.9595,0.024,13.5824,40.596,-0.0448,-0.6716,-0.2791,309.3915
20:21:53:309,-2.8985,-0.8624,12.5763,40.2936,0.4751,0.024,0.0767,309.9839
20:21:53:328,-3.7274,-0.297,10.2479,41.5116,0.9033,0.6483,0.6775,310.6074
20:21:53:348,-3.1716,0.7091,8.2931,42.1591,1.0652,0.4,1.1387,310.6236
20:21:53:366,-1.7056,1.6193,7.2391,41.6798,1.0002,-0.2221,1.225,309.8543
20:21:53:393,-0.4503,2.1943,6.7409,40.2225,0.7904,-0.5385,1.0599,308.6296
20:21:53:408,0.2108,2.4242,6.5013,39.6184,0.5422,-0.5598,0.8437,307.4882
20:21:53:428,0.5605,2.4578,6.0797,40.709,0.3121,-0.2242,0.6349,306.669
20:21:53:449,0.5749,2.2757,5.3275,41.5422,0.0948,0.2552,0.4495,306.0645
20:21:53:469,0.4072,2.1511,4.5083,40.8558,-0.0533,0.6067,0.3622,305.5892
20:21:53:489,0.1964,1.9164,3.8376,42.2316,-0.1396,0.7622,0.3803,305.1331
20:21:53:508,-0.0575,1.8014,3.8136,42.4078,-0.2227,0.6323,0.4751,304.6461
20:21:53:529,-0.091,1.7918,4.3071,42.1573,-0.3303,0.465,0.5912,304.0778
20:21:53:549,0.0575,2.3284,5.1647,42.7737,-0.5007,0.611,0.5709,303.4703
20:21:53:571,0.1437,3.0854,5.8066,42.8108,-0.7308,0.7218,0.2599,302.888
20:21:53:589,-0.0719,3.4495,6.372,43.2335,-0.9599,0.6994,-0.2014,302.3069
20:21:53:609,-0.8528,3.1477,7.2631,42.6404,-1.1239,0.4725,-0.4581,302.0019
20:21:53:630,-1.5954,2.8027,9.0932,43.962,-1.0888,0.1614,-0.4549,302.2447
20:21:53:650,-2.1847,2.6542,10.5832,43.0506,-0.8224,0.0709,-0.3345,302.8832
20:21:53:671,-2.4626,2.5632,11.3594,45.0613,-0.5103,0.073,-0.1907,303.4984
20:21:53:691,-2.3907,2.52,11.4264,43.991,-0.359,0.007,-0.1012,303.9925
20:21:53:709,-2.2565,2.5153,11.4887,44.7795,-0.3697,-0.1038,-0.0437,304.5215
20:21:53:729,-1.8445,2.2565,11.9391,44.0806,-0.3942,-0.238,0.0639,304.9343
20:21:53:751,-1.2409,1.8781,12.3271,44.351,-0.3271,-0.27,0.2482,305.247
20:21:53:771,-0.5797,1.8349,12.0013,45.7827,-0.1758,-0.3062,0.4484,305.4468
20:21:53:793,0.1485,2.1032,10.8036,44.7274,-0.0874,-0.5512,0.4836,305.448
20:21:53:811,1.6193,1.8493,10.6216,45.124,-0.2781,-0.9986,0.1906,305.2273
20:21:53:831,2.75,1.1211,12.1547,45.4423,-0.6882,-1.2351,-0.4251,304.9803
20:21:53:854,2.1655,0.2156,14.4543,45.6271,-0.978,-0.9092,-1.0472,305.1728
20:21:53:872,0.0096,-0.9247,15.2879,45.2091,-0.9087,-0.1507,-1.3455,306.0551
20:21:53:895,-1.5379,-1.6337,13.7596,45.7587,-0.5497,0.4917,-1.1324,307.4493
20:21:53:910,-1.2552,-1.3558,11.0336,45.7587,-0.2653,0.6504,-0.7745,309.0645
20:21:53:930,-0.1437,-0.4599,9.0645,44.6875,-0.2951,0.4767,-0.7084,310.3725
20:21:53:950,0.0431,0.297,8.7914,45.5308,-0.5231,0.4309,-0.9289,311.2572
20:21:53:976,-0.642,0.5366,9.6011,43.8718,-0.5604,0.5417,-1.1676,312.1085
20:21:53:991,-1.6816,0.8432,9.4669,46.2465,-0.2887,0.7974,-1.2538,313.2409
20:21:54:011,-2.1847,1.3846,8.0057,45.2822,-0.0565,0.8507,-1.2411,314.7663
20:21:54:065,-1.5714,1.7247,6.6307,45.4129,-0.1471,0.4885,-1.3327,316.4039
20:21:54:066,-0.9965,1.3319,7.8141,46.4007,-0.2387,-0.1219,-1.5734,318.0106
20:21:54:075,-1.6768,1.1307,8.6668,45.266,0.033,0.6738,-1.6427,319.7784
20:21:54:091,-3.1141,0.5989,9.4526,44.6976,0.1992,1.4259,-1.4989,321.798
20:21:54:111,-4.0531,0.9247,10.2718,45.6298,0.3259,1.9979,-1.191,323.8752
20:21:54:131,-3.804,1.2217,9.7592,43.6879,0.4165,2.1886,-0.9747,325.7998
20:21:54:153,-4.5418,1.3846,8.6046,45.4867,0.702,1.4653,-0.8661,327.274
20:21:54:172,-7.1242,2.2038,8.7579,44.7164,1.2186,0.3542,-0.4815,328.483
20:21:54:193,-4.3406,2.3236,7.541,45.5185,1.5488,-1.7592,-0.4176,329.6025
20:21:54:212,-1.1163,0.733,4.9874,46.1239,1.421,-4.6227,-1.1846,330.3367
20:21:54:232,-10.9425,1.8301,9.0789,44.6268,0.5113,-3.5201,-1.1985,331.1469
20:21:54:258,-7.9578,-0.1102,11.4312,43.5838,-0.5295,0.2562,0.5028,333.1904
20:21:54:274,-1.6385,0.2443,14.2148,42.9935,-0.375,1.0807,1.094,335.3475
20:21:54:292,-2.0026,1.9451,12.078,44.3951,0.507,0.7814,0.9118,334.9313
20:21:54:312,-3.095,1.7008,8.595,44.1902,0.5475,-0.0122,0.8266,333.5579
20:21:54:333,-2.9848,0.3641,11.0384,43.2836,0.1054,-0.4628,0.9001,332.4511
20:21:54:359,-1.3367,-0.4168,13.9417,42.8031,0.3877,-0.6428,1.0684,331.5797
20:21:54:376,-1.0684,-0.6612,12.2936,41.7941,1.1089,-0.6918,1.2666,330.6786
20:21:54:400,-0.7426,0.618,7.8668,41.1864,1.3177,-0.7888,1.5031,329.5512
20:21:54:414,-0.2683,1.5714,5.6485,44.198,0.8671,-1.1446,1.306,328.2192
20:21:54:437,-0.1725,1.5619,6.9325,42.4001,0.3398,-1.4109,1.1238,326.7135
20:21:54:453,0.1341,0.8576,10.3389,42.3114,0.0841,-1.4738,1.1174,325.5404
20:21:54:477,0.4983,-0.2875,11.9055,41.0264,0.1821,-0.6301,1.2527,324.6507
20:21:54:494,0.8624,-0.2491,10.1472,42.5253,0.2428,0.5758,1.2261,323.8023
20:21:54:515,0.6276,0.5989,8.5758,41.3799,0.1139,1.3034,0.9885,322.5162
20:21:54:535,-0.23,0.7713,8.3171,42.834,-0.0256,1.1138,0.8202,320.9411
20:21:54:560,-0.9438,0.1485,9.1459,41.3376,-0.0064,0.9199,0.7446,319.4515
20:21:54:577,-1.6193,-0.1868,9.3759,41.4938,0.2737,0.8048,0.7329,318.2007
20:21:54:595,-1.49,-0.0096,7.9386,40.7103,0.6114,0.7953,0.7212,317.0851
20:21:54:618,-1.0492,0.8767,5.6485,41.6798,0.6167,0.6546,0.686,316.0231
20:21:54:635,-0.3162,1.7918,5.0209,41.2574,0.2705,0.4544,0.4879,314.9536
20:21:54:660,-0.527,2.0362,6.372,40.864,-0.1119,0.285,0.2215,313.9976
20:21:54:677,-1.0013,2.0505,8.4417,40.8253,-0.3729,0.2562,0.0245,313.307
20:21:54:696,-1.6768,1.8014,10.4251,39.7638,-0.3622,0.3447,-0.0192,312.957
20:21:54:715,-2.0889,1.9882,10.3293,41.6766,-0.1801,0.6504,0.0894,312.7979
20:21:54:735,-1.3558,2.7117,9.4669,41.1543,-0.0597,0.6419,0.0639,312.7145
20:21:54:757,-1.169,3.095,8.8058,41.2831,-0.0618,0.1561,-0.1055,312.4013
20:21:54:776,-0.8911,2.8123,9.2801,39.1734,-0.2717,-0.1624,-0.1588,312.1221
20:21:54:797,-0.4695,2.3572,10.4347,40.7775,-0.4294,-0.0836,-0.0576,312.189
20:21:54:816,-0.0767,2.6446,10.5545,39.7441,-0.5423,0.0102,0.0756,312.4215
20:21:54:835,0.4456,3.0087,10.7653,40.3385,-0.7404,-0.1933,-0.0203,312.4361
20:21:54:863,0.4551,2.1943,12.5906,39.3186,-0.9034,-0.5981,-0.2663,312.2962
20:21:54:876,-0.5462,0.2156,15.1059,39.8279,-0.7937,-0.7696,-0.2802,312.3035
20:21:54:897,-0.7043,-0.7091,15.7575,40.3834,-0.3228,-0.221,-0.0203,312.6521
20:21:54:917,-0.2443,0.2012,12.8829,40.178,0.3174,0.2094,0.1022,313.0268
20:21:54:941,0.3497,1.2025,8.7243,40.5115,0.4942,0.007,0.0788,313.0197
20:21:54:957,0.8815,1.9739,7.105,39.4355,0.1533,-0.238,-0.1715,312.8153
20:21:54:977,0.6324,1.8924,7.8907,38.9469,-0.1886,-0.1944,-0.4677,312.6648
20:21:54:997,-0.436,1.5571,8.4992,40.2318,-0.2387,0.0272,-0.62,312.8883
20:21:55:016,-1.4133,1.3031,8.25,40.9212,-0.0959,0.2051,-0.5795,313.4333
20:21:55:042,-1.672,1.4996,7.5218,40.4833,0.0905,0.2392,-0.4719,314.1238
20:21:55:061,-1.7535,1.6289,6.99,39.6439,0.2428,0.1987,-0.3952,314.735
20:21:55:079,-2.0553,1.6625,6.7505,39.7399,0.3802,0.2115,-0.2919,315.213
20:21:55:099,-2.1799,1.8541,6.0462,40.3309,0.5049,0.2509,-0.1534,315.6187
20:21:55:119,-1.9691,2.3332,5.385,39.2171,0.4964,0.2605,-0.0661,315.9368
20:21:55:140,-1.8876,2.75,5.4282,38.1783,0.3898,0.2328,-0.0661,316.0521
20:21:55:161,-1.811,3.1093,6.0941,37.9098,0.2737,0.2019,-0.1023,316.0602
20:21:55:177,-2.0362,3.2004,7.2918,38.3155,0.1992,0.1678,-0.1545,316.1028
20:21:55:198,-2.4817,3.0902,8.5327,39.0944,0.2237,0.2253,-0.1172,316.167
20:21:55:220,-2.8458,3.1333,8.8824,38.4052,0.2929,0.3564,0.0106,316.2856
20:21:55:244,-2.8315,3.4734,8.5039,38.759,0.2801,0.4267,0.147,316.3397
20:21:55:261,-2.544,3.6076,8.4417,39.2765,0.1416,0.2839,0.1843,316.2301
20:21:55:281,-2.1559,3.2531,9.3951,38.4101,-0.1119,0.073,0.1438,315.9089
20:21:55:301,-2.0841,2.8123,11.3881,36.95,-0.277,-0.0783,0.0958,315.5912
20:21:55:329,-2.2901,2.9512,12.9212,38.8838,-0.2525,-0.0133,0.1353,315.3604
20:21:55:346,-2.4626,3.7513,12.5188,36.8963,-0.2056,0.0922,0.1853,315.2358
20:21:55:360,-2.2278,3.7369,12.3367,38.834,-0.4091,-0.0079,0.1235,315.0484
20:21:55:380,-2.4003,2.1799,14.3106,36.3245,-0.5242,-0.0857,0.0128,314.7771
20:21:55:400,-3.2531,0.3641,15.5179,36.8566,-0.2227,-0.0559,0.1672,314.5961
20:21:55:421,-3.1572,-0.527,14.0279,37.8278,0.2673,0.0709,0.5177,314.5768
20:21:55:443,-2.7117,-0.2156,10.6838,38.3551,0.539,0.0283,0.7851,314.3323
20:21:55:463,-1.8637,0.4599,8.1973,36.0581,0.4591,-0.2253,0.8479,313.6193
20:21:55:482,-1.26,0.7234,7.3254,36.3481,0.2087,-0.4767,0.7307,312.6233
20:21:55:503,-0.9821,0.7139,7.3445,37.1649,-0.0672,-0.5193,0.5976,311.6786
20:21:55:528,-0.9438,0.7186,7.541,34.8771,-0.2866,-0.3712,0.5006,310.9471
20:21:55:546,-1.0923,0.7282,7.8428,35.3594,-0.3601,-0.1944,0.4612,310.3479
20:21:55:562,-1.3654,0.8145,7.9674,35.5793,-0.2333,-0.1379,0.4751,309.7873
20:21:55:581,-1.2025,0.7953,7.7039,36.4535,0.0553,-0.2221,0.5326,309.3326
20:21:55:603,-1.0348,1.0013,6.6115,34.7929,0.2407,-0.3307,0.5869,308.7493
20:21:55:628,-0.6612,1.2025,6.2714,35.5351,0.2663,-0.3329,0.621,308.1347
20:21:55:646,-0.3306,1.3894,6.5253,37.2747,0.279,-0.0964,0.6285,307.5323
20:21:55:665,-0.1964,1.9116,6.0079,35.2576,0.2929,0.1135,0.5901,306.8615
20:21:55:683,-0.2922,2.52,5.2844,35.7469,0.2013,0.0357,0.474,306.1188
20:21:55:701,-0.5174,2.7979,5.9025,36.3393,0.0181,-0.1933,0.3355,305.3967
20:21:55:723,-0.5558,2.8842,7.5553,34.6761,-0.0821,-0.2572,0.2375,304.8384
20:21:55:746,-0.6564,3.0758,8.7195,36.0975,-0.1055,-0.14,0.1491,304.5035
20:21:55:764,-0.9774,3.3153,9.3807,35.5906,-0.1247,-0.0484,0.0532,304.2721
20:21:55:783,-1.3798,3.368,10.1329,35.8208,-0.1588,-0.0974,-0.0171,304.132
20:21:55:801,-1.2792,3.2866,11.4504,35.3117,-0.1769,-0.1656,-0.0554,304.0418
20:21:55:823,-1.0636,3.0183,12.5427,36.1413,-0.1407,-0.1656,-0.0778,304.1181
20:21:55:843,-0.7857,2.774,13.1128,35.9638,-0.0917,-0.0143,-0.0043,304.1928
20:21:55:865,-0.1006,3.095,12.6577,35.3936,0.0031,0.1231,0.0831,304.2634
20:21:55:884,0.5318,3.9765,11.5941,36.0161,0.0085,-0.0463,0.0639,304.2185
20:21:55:900,1.9547,4.4029,11.6851,35.4173,-0.1087,-0.4021,-0.1683,304.0718
20:21:55:921,2.6781,3.2579,12.6529,33.6091,-0.2802,-0.4649,-0.6839,303.9402
20:21:55:944,0.9869,1.0588,13.8746,35.7763,-0.3058,-0.0239,-0.9971,304.2486
20:21:55:964,-0.5989,-0.297,12.8014,35.6053,-0.0384,0.4427,-0.8831,305.0688
20:21:55:981,-0.7186,-0.3785,9.9125,33.8252,0.2098,0.2424,-0.5998,306.1837
20:21:56:002,0.7234,0.1677,8.0344,36.1098,0.1661,-0.3243,-0.4602,307.0137
20:21:56:025,1.9308,0.6564,7.9769,35.7413,-0.1758,-0.482,-0.5582,307.5842
20:21:56:045,1.5906,0.9917,8.6189,35.355,-0.4784,-0.2103,-0.6967,308.1481
20:21:56:064,0.5989,1.3319,8.7435,35.0152,-0.4965,0.0229,-0.7393,308.844
20:21:56:112,-0.1725,1.581,8.2213,37.1962,-0.2802,-0.0229,-0.6893,309.6861
20:21:56:113,-0.4168,1.8254,7.2775,36.439,-0.0299,-0.155,-0.6051,310.517
20:21:56:126,-0.2779,2.1511,6.1755,36.6133,0.0937,-0.1741,-0.5572,311.3223
20:21:56:143,-0.2491,2.3524,5.639,36.4701,0.1011,-0.1251,-0.5785,312.1067
20:21:56:164,-0.5366,2.2661,5.5527,35.424,0.0958,-0.042,-0.6083,312.8047
20:21:56:182,-0.7474,2.338,5.4569,37.1696,0.0617,0.0293,-0.604,313.5438
20:21:56:205,-0.8911,2.4626,6.0462,35.801,-0.016,0.1028,-0.6232,314.27
20:21:56:222,-1.1642,2.5105,7.0283,35.9431,-0.0501,0.1731,-0.6456,315.0076
20:21:56:249,-1.8541,2.4051,8.1063,36.8454,-0.0224,0.219,-0.6083,315.7659
20:21:56:264,-2.2278,2.4913,8.6956,35.929,0.0266,0.2967,-0.4911,316.5187
20:21:56:283,-2.4482,2.7165,9.2322,37.229,0.0468,0.3553,-0.3761,317.2488
20:21:56:310,-2.9129,2.7835,9.6682,36.8472,0.0404,0.4767,-0.2557,317.8472
20:21:56:325,-3.3201,2.6829,9.4717,35.6567,-0.0554,0.5353,-0.1161,318.3239
20:21:56:348,-3.4112,2.3092,10.4299,37.1885,-0.2653,0.4767,0.0191,318.5926
20:21:56:368,-3.507,1.9212,12.6338,37.7022,-0.3505,0.4704,0.1992,318.694
20:21:56:385,-3.4782,2.3572,14.2675,37.6973,-0.1662,0.4949,0.4836,318.6924
20:21:56:409,-2.7788,3.5357,13.7836,37.0359,0.1001,0.5044,0.7275,318.4382
20:21:56:424,-1.6385,4.4939,12.49,36.9608,0.0649,0.4064,0.7169,317.881
20:21:56:443,-0.6372,3.6459,13.0458,36.6881,-0.1705,0.3436,0.4399,317.0146
20:21:56:465,-1.4517,1.7535,14.6028,37.8066,-0.1055,0.3276,0.2322,316.1558
20:21:56:484,-2.0409,0.0767,14.2914,36.4539,0.2982,0.3106,0.3409,315.6112
20:21:56:508,-2.0122,-0.6037,11.7043,37.303,0.6466,0.2562,0.5337,315.3303
20:21:56:526,-1.3798,-0.5462,9.2513,38.9855,0.7137,0.0027,0.6519,314.9048
20:21:56:548,-0.5174,0.0192,7.8572,37.5187,0.5262,-0.286,0.621,314.2737
20:21:56:568,0.0575,0.4168,7.6655,37.7422,0.1842,-0.3776,0.457,313.5272
20:21:56:585,-0.0719,0.3306,8.3123,38.1178,-0.0917,-0.2412,0.3153,312.9116
20:21:56:606,-0.6899,0.0719,8.7627,38.8613,-0.114,-0.1113,0.2833,312.5497
20:21:56:625,-1.2504,0.0096,8.7962,39.2828,0.1129,-0.1475,0.3696,312.3687
20:21:56:647,-1.5571,0.2491,7.6799,38.3713,0.4218,-0.3009,0.5262,312.1363
20:21:56:665,-1.7152,0.8336,6.1516,39.5764,0.5645,-0.3478,0.7116,311.8356
20:21:56:693,-1.4229,1.605,4.8341,38.9086,0.5315,-0.27,0.8735,311.412
20:21:56:710,-0.9678,2.3045,4.1825,38.9522,0.4058,-0.2242,0.9331,310.7848
20:21:56:727,-0.5989,2.8506,3.8567,39.4984,0.2503,-0.2998,0.8809,309.9366
20:21:56:748,-0.3976,3.2195,4.3741,39.6925,0.0713,-0.4522,0.7574,309.044
20:21:56:769,-0.1773,3.507,5.0305,38.2848,-0.0586,-0.6279,0.5997,308.2455
20:21:56:787,0.2875,3.919,5.4761,37.0936,-0.2216,-0.8602,0.4048,307.6332
20:21:56:809,0.7522,4.1011,6.051,37.5267,-0.4592,-1.1808,0.1416,307.2764
20:21:56:825,0.6755,3.8088,6.7073,36.7161,-0.8107,-1.3363,-0.1172,307.2305
20:21:56:847,-0.0287,3.4591,8.0153,37.7779,-1.2464,-1.0732,-0.2035,307.5274
20:21:56:869,0.0096,2.8219,10.0323,38.1309,-1.5308,-0.7792,-0.1396,308.1549
20:21:56:894,0.4072,2.6542,11.9151,38.431,-1.5479,-0.613,-0.0884,308.7688
20:21:56:911,0.5845,2.1943,13.0458,38.7998,-1.3327,-0.7281,-0.1577,309.1865
20:21:56:928,0.642,1.9116,14.6028,38.6428,-1.0174,-0.7643,0.0074,309.4932
20:21:56:949,1.8781,2.453,14.9574,41.1901,-0.6222,-0.5139,0.1544,309.8945
20:21:56:968,3.5693,2.6734,14.5789,39.6552,-0.2813,-0.5885,-0.0288,310.1214
20:21:56:992,4.6856,1.3606,14.8615,41.6736,-0.2014,-0.8367,-0.4741,310.1101
20:21:57:009,3.368,-1.0109,15.9826,40.9118,-0.1194,-0.5438,-0.8597,310.3393
20:21:57:028,1.9547,-2.6686,15.1251,40.2208,0.2077,0.1146,-0.7084,311.0207
20:21:57:049,2.0889,-2.6686,11.7187,39.7032,0.5944,0.6781,-0.4901,312.0823
20:21:57:069,2.7788,-1.72,7.6224,41.9159,0.637,0.5194,-0.3825,312.8654
20:21:57:094,3.7705,-0.7091,5.7731,40.8302,0.2151,0.0485,-0.4453,313.314
20:21:57:110,3.6028,-0.0767,6.257,41.5324,-0.3143,-0.139,-0.5614,313.6734
20:21:57:129,3.1572,0.6468,7.4547,40.9031,-0.6115,0.0102,-0.603,314.1666
20:21:57:150,2.4578,1.1977,8.3506,40.4302,-0.5338,0.1018,-0.6435,314.8529
20:21:57:169,1.787,1.6433,8.2021,41.9535,-0.2355,0.0879,-0.6829,315.5636
20:21:57:193,1.1259,1.8541,7.5074,41.5514,0.0031,0.1657,-0.7255,316.3179
20:21:57:210,0.5797,1.7535,7.105,41.8724,0.1235,0.5502,-0.7063,317.1393
20:21:57:229,1.0684,2.1416,6.6403,42.3189,0.2354,1.1234,-0.7244,318.0442
20:21:57:251,0.2827,2.4961,4.5227,41.7486,0.2556,1.3322,-0.9055,318.8805
20:21:57:271,-1.2313,2.3428,2.7835,42.0289,-0.1503,1.1298,-0.963,319.6866
20:21:57:294,-1.6193,2.0936,3.8615,42.4455,-0.6158,0.7271,-0.8906,320.5955
20:21:57:311,-1.4708,1.9547,6.1133,42.0681,-0.7713,0.1742,-0.9247,321.605
20:21:57:328,-1.8349,1.284,8.6237,44.4256,-0.684,-0.1827,-0.8682,322.5906
20:21:57:349,-1.9595,0.9821,10.3437,43.368,-0.5348,-0.0601,-0.6488,323.7563
20:21:57:369,-1.811,1.4085,11.3689,46.0442,-0.3569,0.2062,-0.3516,324.8488
20:21:57:393,-1.3846,1.8254,11.4264,43.1643,-0.2142,0.3606,-0.196,325.6709
20:21:57:410,-1.1929,1.5762,11.5893,43.4735,-0.228,0.3425,-0.113,326.1548
20:21:57:431,-0.9055,0.848,13.2087,44.9907,-0.2525,0.3042,-0.0352,326.454
20:21:57:451,-1.169,0.6851,14.8376,43.5598,-0.0672,0.2871,0.1704,326.7005
20:21:57:479,-0.4791,1.8924,14.6939,45.4243,0.2173,0.2285,0.4048,326.7787
20:21:57:494,0.7186,3.0997,13.568,45.6993,0.2748,0.1114,0.3217,326.6213
20:21:57:511,1.0253,2.1799,13.5297,45.5152,0.0628,0.1348,-0.0181,326.2437
20:21:57:530,-0.5797,0.024,14.7897,45.6272,0.0649,0.2445,-0.2067,325.9167
20:21:57:552,-1.8493,-1.6864,14.8903,44.6547,0.5209,0.2424,-0.0309,326.0167
20:21:57:579,-2.0697,-2.2326,12.2936,45.4966,1.0492,0.1295,0.2887,326.3404
20:21:57:593,-1.3654,-1.7822,9.0741,46.0047,1.1792,-0.1294,0.5337,326.4151
20:21:57:611,0.1916,-0.9342,7.4451,45.2751,0.8969,-0.3691,0.5315,326.1419
20:21:57:630,0.6612,-0.5174,7.2343,43.9251,0.4197,-0.3851,0.3142,325.6384
20:21:57:652,0.1916,-0.6516,7.9865,44.7183,-0.0459,-0.0953,0.1885,325.1027
20:21:57:679,-0.1916,-0.7618,8.8776,45.5425,-0.195,0.1859,0.1981,324.8334
20:21:57:694,-0.4935,-0.6899,8.6621,46.4381,-0.064,0.2435,0.2812,324.6761
20:21:57:712,-0.6324,-0.3689,7.8715,45.6374,0.148,0.154,0.3973,324.4455
20:21:57:731,-0.5797,0.0862,6.6451,45.3416,0.3078,0.0933,0.5454,324.1069
20:21:57:753,-0.2012,0.872,5.6006,44.2484,0.3334,0.0656,0.6476,323.6561
20:21:57:778,0.0527,1.6577,5.0784,44.2099,0.278,0.0112,0.6423,323.0957
20:21:57:793,0.297,2.2374,5.0401,43.7929,0.1672,-0.0548,0.5433,322.3895
20:21:57:812,0.1868,2.5105,5.8018,43.7386,0.0394,-0.0953,0.3685,321.7255
20:21:57:831,-0.3066,2.4865,7.22,45.6179,0.0127,-0.074,0.2333,321.1456
20:21:57:853,-0.618,2.659,8.0776,44.8149,0.1171,-0.0495,0.148,320.8012
20:21:57:878,-0.8001,2.9943,8.0632,44.9637,0.1427,-0.0815,0.0831,320.6388
20:21:57:892,-0.6707,3.3297,8.9783,44.2493,0.1065,-0.0463,0.0064,320.5626
20:21:57:912,-0.8288,3.4782,9.3711,45.9962,0.1097,0.0986,-0.0533,320.5463
20:21:57:933,-0.6707,3.5932,9.4765,44.1567,0.0415,0.155,-0.0789,320.6538
20:21:57:954,-0.4264,3.392,10.7078,45.4009,-0.0437,0.0783,-0.113,320.7379
20:21:57:982,-0.2922,2.9656,12.2457,44.9483,-0.0299,0.008,-0.0767,320.8269
20:21:57:998,-0.1054,2.75,13.6063,46.4326,0.1555,0.024,0.066,320.9955
20:21:58:019,0.4887,3.277,13.0889,44.8439,0.4037,0.0805,0.1917,321.162
20:21:58:040,1.6433,3.7801,12.1307,43.3157,0.4239,-0.0783,0.1044,321.1324
20:21:58:058,2.6877,3.1668,12.4373,45.2183,0.3291,-0.3978,-0.3377,320.8928
20:21:58:077,2.0074,1.2552,13.0745,45.8857,0.1949,-0.3968,-0.8107,320.8284
20:21:58:096,0.3402,-0.7426,13.6446,45.9246,0.2066,-0.0058,-0.9162,321.3065
20:21:58:139,-0.1533,-1.3942,12.4709,45.2013,0.4633,0.4501,-0.7404,322.325
20:21:58:140,0.3929,-0.8911,9.1076,44.9954,0.6689,0.35,-0.5731,323.3646
20:21:58:160,1.3079,0.0335,6.4678,46.0117,0.3973,-0.0633,-0.6019,324.0535
20:21:58:176,1.7822,0.4935,6.7505,45.1455,-0.1822,-0.189,-0.7606,324.5967
20:21:58:197,1.2361,0.848,8.2404,44.8729,-0.5828,-0.0005,-0.8576,325.2935
20:21:58:217,0.2491,1.26,9.2609,45.8776,-0.5764,0.171,-0.8331,326.1995
20:21:58:238,-0.4408,1.6673,9.0741,45.0024,-0.2983,0.1955,-0.7329,327.1757
20:21:58:258,-0.8959,1.926,7.9242,46.3958,0.0351,0.0911,-0.636,328.0782
20:21:58:277,-1.2456,2.1272,6.4534,45.899,0.246,-0.0122,-0.5231,328.8896
20:21:58:297,-1.2313,2.4626,5.4186,45.6643,0.2876,-0.0239,-0.4283,329.619
20:21:58:319,-1.1307,2.7356,5.0305,45.8809,0.2407,-0.0431,-0.4112,330.2541
20:21:58:345,-1.2936,2.7548,5.0066,45.9922,0.1629,-0.0431,-0.4464,330.7732
20:21:58:364,-1.6433,2.7117,5.3036,46.1206,0.0276,0.0027,-0.4656,331.2827
20:21:58:380,-1.8493,2.8267,5.9072,45.4016,-0.0842,0.0006,-0.4805,331.8545
20:21:58:399,-2.0936,2.7979,7.0188,45.9945,-0.1737,-0.0346,-0.5092,332.4258
20:21:58:418,-2.5248,2.6638,8.5566,44.8762,-0.2259,0.0687,-0.5028,333.0029
20:21:58:443,-3.1237,2.6494,9.6107,45.257,-0.1897,0.2711,-0.3995,333.6388
20:21:58:466,-3.4207,3.0279,10.0802,45.9371,-0.1002,0.4277,-0.2621,334.2366
20:21:58:481,-3.7369,3.3968,10.1425,45.2081,-0.0064,0.4022,-0.0863,334.6977
20:21:58:497,-2.7644,3.3537,10.3868,45.2398,-0.0491,0.2807,0.0415,334.8855
20:21:58:518,-2.0745,3.3537,11.8145,45.3472,-0.2195,0.2072,0.0671,334.9401
20:21:58:541,-1.8301,3.5549,13.9944,46.445,-0.2259,0.2818,0.1832,334.847
20:21:58:566,-1.1546,4.6376,14.2339,45.5416,-0.0469,0.2871,0.2631,334.7428
20:21:58:577,-0.321,4.8676,13.568,45.3567,-0.1098,0.1252,0.1012,334.4695
20:21:58:598,-0.6132,2.8267,15.5658,45.4759,-0.228,0.0581,-0.1577,334.1176
20:21:58:618,-2.1416,0.297,17.1229,44.9805,0.1885,-0.0207,-0.0884,333.984
20:21:58:638,-2.5871,-0.7761,14.943,43.8513,0.8021,-0.1209,0.2982,334.1476
20:21:58:657,-1.6864,-0.2395,11.3498,44.4978,1.0492,-0.2977,0.5859,334.266
20:21:58:676,-0.8384,0.8815,8.7579,43.5684,0.8436,-0.401,0.6061,333.9573
20:21:58:697,-0.5078,1.5139,8.0392,44.6542,0.3781,-0.286,0.4527,333.3664
20:21:58:718,-0.8959,1.2217,8.916,44.0222,0.0287,-0.0623,0.3046,332.8154
20:21:58:738,-1.49,0.6947,9.4765,42.7427,0.0489,0.0698,0.2748,332.3813
20:21:58:759,-1.9116,0.4599,8.6621,44.8573,0.2631,0.1369,0.3739,332.0222
20:21:58:780,-1.6385,0.5653,7.4308,42.1442,0.4825,0.1348,0.5028,331.6776
20:21:58:797,-1.0636,0.8336,6.2953,41.6202,0.6263,0.0432,0.5539,331.2276
20:21:58:817,-0.5941,1.1834,6.0989,41.3761,0.6551,-0.091,0.5081,330.6326
20:21:58:841,-0.4072,1.466,7.4643,42.0591,0.8064,-0.1166,0.4506,330.0065
20:21:58:860,-0.2491,1.8876,7.5458,42.6502,1.209,-0.0964,0.4325,329.4495
20:21:58:885,0.4456,2.8937,5.6102,42.0578,1.3922,-0.1752,0.3483,328.9671
20:21:58:900,1.4373,4.0484,4.4125,39.9022,1.0705,-0.2615,0.0383,328.5405
20:21:58:921,1.5762,4.2496,5.7396,40.172,0.5816,-0.1816,-0.3952,328.2295
20:21:58:948,0.6899,3.7561,7.8332,38.7205,0.3504,0.0581,-0.6914,328.2743
20:21:58:959,-0.4935,3.3776,8.71,40.608,0.4229,0.2957,-0.7415,328.711
20:21:58:977,-0.8336,3.8759,7.8045,39.6933,0.5688,0.2669,-0.7127,329.4023
20:21:58:997,-0.7666,4.4556,7.0092,38.7611,0.5326,-0.0101,-0.7873,330.0209
20:21:59:019,-0.939,4.5466,7.1529,38.6003,0.3249,-0.2253,-0.8821,330.6305
20:21:59:040,-0.9726,4.3406,8.1494,38.7896,0.0202,-0.2807,-0.9162,331.4728
20:21:59:058,-1.2169,4.0771,9.7544,39.5856,-0.1503,-0.1944,-0.8693,332.5293
20:21:59:079,-1.1929,4.3741,9.97,38.4792,-0.1183,-0.2679,-0.7926,333.6401
20:21:59:099,-0.1389,4.8245,9.1986,39.0777,-0.2738,-0.6705,-0.8714,334.6793
20:21:59:119,1.2217,4.3406,10.7365,39.2179,-0.7969,-1.0029,-1.1708,335.6727
20:21:59:140,1.3894,2.2038,15.7383,38.7759,-1.011,-0.7494,-1.4616,336.9393
20:21:59:158,-0.4839,0.4312,16.6869,40.0132,-0.4922,0.1625,-1.338,338.6678
20:21:59:178,-1.5954,1.0732,12.0588,37.5806,0.0021,0.5641,-0.8831,340.5872
20:21:59:200,-0.5222,2.453,8.8106,40.0665,0.1981,-0.0506,-0.604,341.9656
20:21:59:219,1.1546,3.4399,7.8907,38.4879,0.0884,-0.6599,-0.6339,342.697
20:21:59:240,1.6193,3.6507,8.3123,38.4045,-0.1737,-0.5619,-0.8075,343.3943
20:21:59:261,0.9294,3.5884,8.7435,38.6907,-0.3037,-0.1784,-0.9343,344.3426
20:21:59:284,-0.1916,3.3968,8.9256,38.0425,-0.0714,-0.0751,-0.9407,345.4536
20:21:59:299,-0.7474,3.2291,7.9626,37.0143,0.3888,-0.3275,-0.8767,346.5444
20:21:59:321,-0.6851,3.301,6.257,36.8184,0.6689,-0.5544,-0.8022,347.6201
20:21:59:341,-0.3066,3.392,5.1934,37.2993,0.6753,-0.5672,-0.7894,348.7637
20:21:59:360,-0.0575,3.6411,4.7335,36.9088,0.5624,-0.5022,-0.8629,349.9305
20:21:59:382,-0.0814,3.7082,5.0545,38.2792,0.4431,-0.4713,-1.0216,351.0943
20:21:59:407,-0.733,3.5884,5.4665,36.8238,0.343,-0.4181,-1.1526,352.3071
20:21:59:430,-1.4565,3.6172,6.5301,38.2136,0.2769,-0.4085,-1.1931,353.6596
20:21:59:449,-1.9787,3.7274,7.4883,38.6155,0.328,-0.3318,-1.1548,355.1366
20:21:59:463,-2.3428,4.1202,7.4451,37.0007,0.3536,-0.172,-1.0514,356.6739
20:21:59:483,-2.1511,4.7287,7.4787,37.6664,0.2972,0.0229,-0.9513,358.1606
20:21:59:500,-2.4817,5.2988,7.4212,37.0641,0.2418,0.1934,-0.8853,359.4118
20:21:59:522,-2.9225,5.8881,7.2248,38.1605,0.132,0.1625,-0.7617,0.4811
20:21:59:540,-2.5057,6.2187,8.1255,35.9611,-0.0778,0.007,-0.6893,1.4121
20:21:59:563,-2.5392,6.0893,9.625,37.1621,-0.2855,-0.0548,-0.685,2.2175
20:21:59:583,-3.3585,6.0989,11.254,37.1043,-0.3463,0.0283,-0.5359,3.0362
20:21:59:602,-3.7896,6.8319,11.6133,37.2901,-0.2131,0.1646,-0.2621,3.893
20:21:59:628,-3.2866,7.8141,10.6455,35.7827,-0.1545,0.0176,-0.1406,4.551
20:21:59:646,-2.1895,7.3062,10.7413,37.5276,-0.3452,-0.3829,-0.2504,4.8344
20:21:59:664,-1.5379,5.318,12.7775,36.5419,-0.5838,-0.6237,-0.4208,5.024
20:21:59:681,-1.9116,2.9416,14.4399,38.3853,-0.4858,-0.4639,-0.3889,5.5383
20:21:59:702,-2.5536,1.9164,13.6542,36.9184,-0.1119,-0.2583,-0.0267,6.3308
20:21:59:723,-1.5619,2.2709,11.6037,36.0812,0.2364,-0.3872,0.3227,7.0518
20:21:59:744,-0.206,3.1477,9.7256,37.9462,0.4282,-0.8367,0.425,7.2898
20:21:59:761,0.9342,3.4543,8.3458,38.7836,0.4058,-1.2554,0.3654,7.1945
20:21:59:781,1.4804,3.4639,7.8284,39.0687,0.2577,-1.3821,0.2546,7.1456
20:21:59:801,1.6385,3.2866,7.3589,37.6111,0.1928,-1.3438,0.1246,7.3008
20:21:59:822,1.2217,3.1477,6.4965,39.0443,0.1512,-1.3385,0.0032,7.6284
20:21:59:844,0.3354,2.5919,5.9408,39.7808,-0.0523,-1.1233,-0.0171,8.1191
20:21:59:861,0.4983,2.52,6.784,37.7275,-0.1236,-1.0839,0.0159,8.809
20:21:59:886,0.6755,2.4051,7.7853,39.2703,0.0596,-0.9379,-0.0256,9.4503
20:21:59:902,0.321,2.2326,7.747,40.4609,0.3312,-0.6887,-0.0363,9.9944
20:21:59:922,-0.2252,2.3236,7.105,38.4991,0.5326,-0.4032,0.0096,10.5217
20:21:59:945,-0.4503,2.7021,6.2953,38.6721,0.6199,-0.2444,0.0916,10.9952
20:21:59:963,-0.4168,3.2052,5.7635,38.4185,0.6306,-0.188,0.099,11.263
20:21:59:982,-0.5797,3.6842,5.6006,38.9893,0.5358,-0.2189,0.0415,11.3857
20:22:00:003,-1.0875,3.7801,6.1564,40.9913,0.3643,-0.2636,-0.0267,11.4474
20:22:00:023,-1.902,3.8328,6.8463,39.2628,0.196,-0.3361,0.0713,11.6465
20:22:00:043,-0.7378,4.3933,7.747,39.5193,0.1352,-0.5693,0.164,11.9136
20:22:00:062,0.9726,4.6999,8.2309,39.2812,0.0766,-0.9092,0.0756,12.1194
20:22:00:083,1.7343,4.4556,8.6908,40.4783,-0.163,-0.9305,0.0096,12.361
20:22:00:105,2.9033,4.1154,10.0418,40.9248,-0.4507,-0.6503,0.1108,12.8275
20:22:00:123,3.9382,4.2208,11.3881,39.8218,-0.456,-0.1944,0.2759,13.3608
20:22:00:186,5.1167,4.767,10.3485,41.5471,-0.31,-0.0942,0.3238,13.6815
20:22:00:189,6.1612,5.112,9.3184,38.2482,-0.4176,-0.6663,0.1278,13.5259
20:22:00:192,6.8415,4.2544,10.5641,40.5978,-0.6531,-1.1062,-0.1769,13.2614
20:22:00:206,6.5828,3.095,12.2984,40.1724,-0.7479,-0.8911,-0.3601,13.4566
20:22:00:224,5.6773,2.3811,12.8302,41.3489,-0.4656,-0.482,-0.407,14.2006
20:22:00:243,4.6185,2.0074,11.1629,41.5699,0.0671,-0.4255,-0.3729,15.0199
20:22:00:264,3.8807,2.0409,8.135,42.5856,0.3994,-0.6428,-0.3079,15.6753
20:22:00:285,3.6411,2.3524,5.4809,41.8359,0.229,-0.8207,-0.2685,16.2824
20:22:00:307,3.7034,2.5871,5.2796,42.0345,-0.2344,-0.7313,-0.3132,16.9668
20:22:00:327,3.5884,2.5248,6.051,41.927,-0.4688,-0.5086,-0.4208,17.6646
20:22:00:347,2.9512,2.2565,5.7204,43.0052,-0.4762,-0.3946,-0.5082,18.3525
20:22:00:367,2.4482,2.2422,5.1024,42.395,-0.4496,-0.3893,-0.5209,19.1156
20:22:00:385,2.0745,2.2949,4.7239,43.9855,-0.3995,-0.5906,-0.5231,19.9082
20:22:00:409,1.7535,2.4146,4.5466,41.997,-0.31,-0.8868,-0.5018,20.6952
20:22:00:425,1.811,2.635,4.125,42.7141,-0.2685,-1.0913,-0.4538,21.5815
20:22:00:446,2.1272,3.0375,3.3489,43.3424,-0.4006,-1.1648,-0.4474,22.5609
20:22:00:466,2.6829,3.4447,3.1141,42.961,-0.6786,-1.2117,-0.5497,23.601
20:22:00:486,2.9416,3.5932,3.4974,43.4529,-1.0089,-1.3214,-0.7447,24.6988
20:22:00:508,2.659,3.2435,4.7383,44.9291,-1.2698,-1.4556,-0.8309,25.8974
20:22:00:526,2.6925,3.0806,6.3576,45.9534,-1.3103,-1.559,-0.8032,27.3417
20:22:00:549,2.2901,2.6973,7.8572,45.2456,-1.2773,-1.4727,-0.6967,28.9544
20:22:00:567,2.0122,2.4626,9.2178,45.4512,-1.2059,-1.0743,-0.4677,30.5851
20:22:00:586,2.6446,2.5153,9.5915,46.4478,-1.0866,-0.9187,-0.309,32.0409
20:22:00:611,3.2962,2.2613,10.1041,49.0579,-1.1388,-0.8687,-0.2972,33.062
20:22:00:627,3.8136,1.9403,11.6324,49.0901,-1.3753,-0.7824,-0.391,33.8023
20:22:00:646,3.4255,0.9678,14.5789,45.406,-1.5617,-0.4266,-0.4102,34.4708
20:22:00:667,2.8602,0.0335,17.1852,49.1942,-1.4701,0.2978,-0.2312,35.2049
20:22:00:687,3.1381,0.1006,17.1181,47.7616,-1.2379,0.8251,0.0341,35.8701
20:22:00:708,4.0675,0.6755,16.7156,48.4017,-1.0962,0.8517,0.0809,36.0553
20:22:00:727,4.0004,0.206,17.1468,48.982,-0.9684,0.8922,0.0021,35.8256
20:22:00:747,3.1524,-0.4072,17.1229,48.0355,-0.6371,1.1713,0.1012,35.5684
20:22:00:766,2.8985,-0.527,14.8951,48.0355,-0.2397,1.2565,0.3249,35.4184
20:22:00:787,3.2195,-0.1389,12.6577,46.886,-0.0256,0.905,0.4879,35.1335
20:22:00:811,3.8903,0.2779,11.9582,48.4016,0.0639,0.5055,0.5496,34.5518
20:22:00:828,4.882,0.9582,11.5366,48.2484,0.1746,0.3574,0.5741,33.7963
20:22:00:848,6.4199,1.8972,10.4826,48.0197,0.3217,0.4704,0.4197,33.0303
20:22:00:868,6.7792,2.4099,8.4081,46.5899,0.3568,0.8485,-0.0075,32.2619
20:22:00:894,4.7622,2.2422,5.7444,46.9135,0.147,1.2927,-0.4901,31.6454
20:22:00:913,1.9547,1.3606,4.264,48.0578,-0.2834,1.5591,-0.7042,31.4769
20:22:00:930,-0.1054,0.4935,5.7731,47.2255,-0.4933,1.5069,-0.555,31.7975
20:22:00:947,-0.3689,0.0527,7.953,47.0209,-0.1321,1.2555,-0.2259,32.4122
20:22:00:967,0.0383,0,7.9147,47.7674,0.4314,0.9785,0.0639,32.8784
20:22:00:986,0.848,0.1821,6.9517,47.9534,0.6732,0.7771,0.2642,33.0123
20:22:01:007,1.2217,0.206,6.99,47.4273,0.6295,0.677,0.3259,32.7643
20:22:01:028,1.1882,-0.0096,8.068,48.0069,0.5709,0.6472,0.3845,32.3274
20:22:01:048,1.4038,0.0431,9.031,46.8308,0.7105,0.6056,0.4825,31.8172
20:22:01:071,2.1032,0.5845,8.6333,47.7838,0.866,0.5609,0.5294,31.2367
20:22:01:091,2.9991,1.375,7.8859,47.6326,0.8213,0.4405,0.4314,30.489
20:22:01:110,3.3201,1.7918,7.9242,44.9893,0.5965,0.3116,0.2183,29.7079
20:22:01:127,2.7931,1.7295,8.4369,45.3483,0.3014,0.2754,0.0522,29.0062
20:22:01:149,1.581,1.5092,9.2753,44.8448,0.0756,0.2573,0.0522,28.5916
20:22:01:168,1.0109,1.4565,10.1089,46.7302,-0.0256,0.1486,0.245,28.3642
20:22:01:192,1.6289,1.7774,11.0288,47.1417,0.0489,0.0315,0.5241,28.1583
20:22:01:209,2.8315,2.4242,10.7509,45.778,0.1928,-0.2061,0.6732,27.7773
20:22:01:230,4.2017,3.1524,10.1425,45.6267,0.1342,-0.5789,0.5731,27.0692
20:22:01:251,4.9395,2.8506,11.1869,46.5128,-0.1748,-0.7121,0.197,26.256
20:22:01:273,3.7274,1.3798,13.0027,47.6546,-0.3995,-0.2956,-0.097,25.6349
20:22:01:297,2.2565,0.297,14.0135,47.4017,-0.2238,0.2136,-0.0597,25.4744
20:22:01:312,2.4051,0.0814,12.2121,46.7542,0.2322,0.1508,0.0937,25.57
20:22:01:329,3.2674,0.4647,9.4621,46.5764,0.3685,-0.2189,0.0852,25.5143
20:22:01:350,3.6172,0.7091,8.6141,47.2113,0.0489,-0.0974,-0.0618,25.3336
20:22:01:369,2.8171,0.7761,8.9016,47.3199,-0.2056,0.3244,-0.1865,25.2258
20:22:01:394,1.3798,0.9534,8.2069,47.2083,-0.1737,0.5705,-0.1833,25.2693
20:22:01:410,0.3258,1.3606,6.8559,47.3269,0.0106,0.5055,-0.0608,25.3465
20:22:01:430,0.1533,1.8876,5.5527,45.8561,0.1874,0.2765,0.0745,25.3998
20:22:01:450,0.3737,2.3284,4.7143,46.7982,0.2567,0.0698,0.1193,25.3178
20:22:01:469,0.5462,2.5584,4.7766,46.2925,0.2162,-0.0229,0.0809,25.1365
20:22:01:491,0.4024,2.6159,5.5383,46.8254,0.1832,0.0016,0.0117,24.9713
20:22:01:510,-0.0575,2.4961,6.7744,46.7216,0.2311,0.0432,-0.0373,24.8588
20:22:01:532,-0.7186,2.2757,7.9482,46.4541,0.3643,0.1742,-0.0064,24.7936
20:22:01:550,-1.1115,2.5488,8.0153,47.066,0.4292,0.4203,0.0852,24.7978
20:22:01:577,-1.1977,2.8746,8.6621,47.4956,0.3621,0.6099,0.1534,24.7533
20:22:01:594,-1.26,2.8027,9.9987,47.0628,0.3866,0.7803,0.2098,24.5802
20:22:01:612,-1.7631,2.4817,10.7126,46.6777,0.5123,1.0009,0.3643,24.2401
20:22:01:633,-2.774,2.0793,10.6743,46.2953,0.5944,1.297,0.7403,23.7969
20:22:01:654,-2.6686,2.3572,10.4251,45.143,0.6157,1.5005,1.2953,23.1085
20:22:01:676,-1.1786,3.3585,9.8646,43.6437,0.6061,1.3609,1.6085,21.9289
20:22:01:691,-0.5845,4.1442,9.1172,44.3903,0.4964,1.0818,1.6554,20.0102
20:22:01:712,-0.5989,4.6808,8.0728,44.3238,0.0809,0.9284,1.7161,17.8171
20:22:01:732,0.2348,5.2461,8.5758,43.9404,-0.5817,0.4203,1.5968,15.6211
20:22:01:752,0.7713,4.3119,13.3141,44.0259,-0.9833,-0.4671,1.2026,13.4011
20:22:01:778,-0.1102,2.017,16.5192,45.6842,-0.5721,-0.8484,1.012,11.4423
20:22:01:795,-1.0348,1.169,14.8711,46.4655,0.0053,-0.6279,1.1387,10.2158
20:22:01:813,-0.8815,1.787,10.8419,45.0667,0.2854,-0.4649,1.2889,9.3401
20:22:01:833,-0.0335,2.6781,7.6559,43.2746,0.148,-0.6876,1.2144,8.2529
20:22:01:853,0.4551,2.6925,7.3158,43.2959,-0.2504,-0.9347,0.9427,6.9625
20:22:01:872,0.3785,2.1368,9.1411,43.8981,-0.5018,-1.0082,0.6487,5.8085
20:22:01:894,-0.412,1.1977,10.5545,45.2971,-0.4624,-0.8005,0.4815,5.0253
20:22:01:913,-1.2552,0.7139,11.0144,43.2258,-0.277,-0.433,0.507,4.6116
20:22:01:934,-1.3798,0.7713,10.3868,44.24,-0.0032,-0.0697,0.6104,4.3158
20:22:01:954,-0.9965,1.169,8.9399,43.3903,0.2588,0.1082,0.6508,3.9039
20:22:01:974,-0.7761,1.2648,7.6847,43.4666,0.393,0.1316,0.62,3.2774
20:22:01:994,-0.642,1.1786,7.3877,44.1477,0.4261,0.1795,0.6136,2.5489
20:22:02:013,-0.2779,1.1067,7.5601,44.6504,0.4878,0.252,0.5837,1.8444
20:22:02:033,0.0144,0.9726,8.0201,41.9827,0.5912,0.3074,0.5017,1.1424
20:22:02:054,0.2922,0.963,7.929,44.1578,0.637,0.4544,0.3962,0.4453
20:22:02:078,0.6276,0.9869,7.6751,43.345,0.5539,0.5055,0.2556,359.8281
20:22:02:094,0.551,0.7761,7.9865,41.8409,0.441,0.5481,0.1576,359.2733
20:22:02:115,0.4983,0.5749,8.3027,41.965,0.3302,0.6163,0.131,358.854
20:22:02:135,0.5174,0.5414,9.031,42.1201,0.1672,0.6387,0.1225,358.5371
20:22:02:157,0.206,0.436,10.358,42.7679,0.0543,0.5833,0.147,358.1758
20:22:02:179,-0.1246,0.4839,10.9617,42.6575,-0.0032,0.546,0.2737,357.8368
20:22:02:236,0.297,0.5989,11.2731,43.9509,-0.0714,0.5492,0.4346,357.5026
20:22:02:240,0.8528,1.1259,10.2287,41.4109,-0.1673,0.5577,0.5113,357.0134
20:22:02:241,1.0923,2.0984,8.9543,42.0089,-0.554,0.3809,0.4655,356.369
20:22:02:256,1.2792,2.3667,10.8946,42.4774,-1.0323,0.1604,0.3121,355.6299
20:22:02:275,0.412,1.4277,14.2004,42.3421,-1.0962,0.219,0.2386,354.9618
20:22:02:296,-0.0383,0.5414,15.7191,43.2211,-0.6179,0.3937,0.4346,354.5406
20:22:02:316,1.0828,0.9151,13.7165,43.9738,-0.0054,0.2381,0.6519,354.2441
20:22:02:335,2.6446,1.7487,10.7797,44.1604,0.1928,-0.0229,0.5784,353.6708
20:22:02:362,2.8458,2.108,9.534,42.1888,-0.0501,0.1646,0.2727,352.8965
20:22:02:381,1.7535,1.8589,9.5484,43.4021,-0.228,0.5716,0.0074,352.231
20:22:02:396,0.1246,1.4517,9.0549,42.2572,-0.0736,0.7207,-0.0405,351.8657
20:22:02:416,-0.6899,1.4085,7.6464,43.4908,0.2013,0.5652,0.0937,351.6925
20:22:02:439,-0.5558,1.8301,6.4534,42.4322,0.3792,0.3361,0.2141,351.6286
20:22:02:461,-0.4024,2.0841,5.6821,42.3401,0.4314,0.2349,0.2386,351.4306
20:22:02:479,-0.5318,2.1799,5.2269,42.4325,0.4154,0.2285,0.2152,351.1246
20:22:02:496,-0.8767,2.3332,4.9922,41.8807,0.2822,0.252,0.1661,350.8343
20:22:02:517,-1.399,2.2901,5.9983,42.6531,0.1448,0.2594,0.1214,350.5819
20:22:02:546,-1.9116,2.1224,7.1481,43.0125,0.1874,0.2104,0.1566,350.3716
20:22:02:564,-1.811,2.4913,7.6128,41.9478,0.2897,0.187,0.2546,350.2202
20:22:02:581,-1.2552,3.0662,7.9099,42.2492,0.3323,0.2392,0.2705,350.0277
20:22:02:600,-1.2504,3.3441,8.1494,42.271,0.3419,0.3233,0.213,349.7246
20:22:02:619,-1.4612,3.4974,8.135,43.6007,0.3217,0.4182,0.1949,349.3745
20:22:02:642,-1.6241,3.7896,8.2404,43.4801,0.2801,0.4405,0.1608,349.0861
20:22:02:668,-1.9451,3.8711,8.5087,43.43,0.1949,0.3883,0.0969,348.7648
20:22:02:684,-2.5488,3.483,9.0022,43.2391,-0.0001,0.4032,0.0628,348.4766
20:22:02:701,-2.5344,3.0135,11.5414,44.5313,-0.2472,0.7175,0.0831,348.2771
20:22:02:722,-2.7644,2.7931,13.865,44.459,-0.0288,1.0626,0.0671,348.1273
20:22:02:739,-3.9142,2.7021,12.2505,42.2665,0.0362,1.6113,0.2077,347.8303
20:22:02:760,-4.446,3.047,10.7701,43.0779,-0.2653,1.934,0.4474,347.4397
20:22:02:781,-4.1825,3.0135,11.1054,43.2854,-0.4528,1.5282,0.506,346.7231
20:22:02:802,-4.8964,2.247,11.6324,43.8141,-0.424,0.8144,0.4751,345.6208
20:22:02:824,-5.6102,1.3367,11.4648,45.0281,-0.4198,0.4938,0.5933,344.5805
20:22:02:849,-6.1133,0.7905,11,43.6879,-0.4496,0.4245,0.8522,343.8113
20:22:02:864,-5.8545,0.8384,10.6743,43.8103,-0.3889,0.154,1.11,343.0153
20:22:02:884,-5.2748,0.8432,10.1425,44.1986,-0.3484,-0.204,1.2708,341.9572
20:22:02:900,-4.6664,0.5318,10.0466,44.1986,-0.4176,-0.3169,1.3933,340.6878
20:22:02:921,-3.9334,0.3114,9.8358,44.9593,-0.4464,-0.1422,1.5489,339.3387
20:22:02:945,-3.071,0.5558,9.1555,45.3317,-0.359,0.04,1.6873,337.8885
20:22:02:964,-2.0793,0.8767,8.2261,45.5675,-0.1897,0.1774,1.7417,336.1812
20:22:02:983,-0.8672,1.7774,6.808,44.5807,-0.0906,0.3425,1.6703,334.2354
20:22:03:003,-0.4503,1.9499,5.3084,43.8541,-0.1034,0.4842,1.4679,332.181
20:22:03:023,-1.0205,1.7343,5.0018,43.3246,-0.1801,0.4363,1.3315,330.159
20:22:03:046,-1.4038,1.4996,5.9839,45.3224,-0.1098,0.219,1.2676,328.2889
20:22:03:064,-1.399,1.4373,6.8894,43.8633,0.1225,-0.0293,1.2431,326.5993
20:22:03:086,-1.2073,1.7391,6.7792,46.3425,0.2886,-0.2125,1.1781,325.0692
20:22:03:102,-0.8911,1.6673,6.9421,44.5687,0.294,-0.303,1.0535,323.646
20:22:03:123,-0.8672,1.3319,7.7278,45.6684,0.2567,-0.2519,0.9086,322.3267
20:22:03:139,-1.1355,1.2696,8.5614,46.6145,0.3249,-0.2562,0.768,321.1924
20:22:03:167,-1.1642,1.672,8.9064,45.6182,0.3323,-0.2242,0.6029,320.199
20:22:03:183,-1.4229,1.6768,9.6011,46.3733,0.2343,-0.1294,0.3941,319.4157
20:22:03:201,-2.7788,1.2361,10.5545,46.6359,0.1054,-0.0005,0.3174,318.762
20:22:03:221,-2.9848,0.9965,11.2492,46.8256,-0.0288,0.2435,0.4942,318.3383
20:22:03:243,-1.9308,1.7343,11.4887,45.9444,-0.0608,0.3063,0.6072,317.9512
20:22:03:265,-1.1786,2.1895,11.2252,48.428,-0.0075,0.1625,0.6434,317.2679
20:22:03:280,0.4935,3.3776,11.2683,45.7321,0.0798,-0.1816,0.5347,316.4286
20:22:03:298,0.2731,4.0915,10.9186,46.8861,0.1374,-0.6705,0.1459,315.5765
20:22:03:322,-0.6851,3.2435,10.4443,48.3372,-0.2099,-0.4873,-0.1044,314.9498
20:22:03:346,-1.993,2.3332,11.2587,46.6984,-0.6318,0.2584,-0.196,314.9625
20:22:03:365,-3.0423,1.8733,10.9521,47.1306,-0.5593,0.6365,-0.0618,315.1902
20:22:03:383,-2.3811,2.4003,8.2069,46.1602,-0.3782,0.3063,0.1385,315.2903
20:22:03:403,-0.7474,2.5823,6.9038,46.6074,-0.456,-0.4479,0.1459,315.1435
20:22:03:421,-0.0527,2.1943,8.0871,47.0389,-0.6328,-0.9518,0.0042,314.8803
20:22:03:441,-0.5318,1.5906,9.7496,47.8191,-0.7031,-0.7323,-0.1066,314.8142
20:22:03:464,-1.0301,1.672,9.5053,48.4125,-0.6413,-0.1347,-0.0874,315.0686
20:22:03:481,-1.0588,2.1176,7.517,48.2084,-0.5774,0.2413,-0.0746,315.356
20:22:03:502,-0.6564,2.5057,5.9552,48.3529,-0.6371,0.2392,-0.1364,315.4497
20:22:03:523,-0.8624,2.5248,5.9072,48.939,-0.7074,-0.0623,-0.2855,315.4447
20:22:03:542,-1.5571,1.9787,6.7073,48.2803,-0.668,-0.3648,-0.3367,315.4926
20:22:03:563,-2.2805,1.6673,6.7888,47.2588,-0.5742,-0.5001,-0.2248,315.825
20:22:03:583,-2.3236,1.787,5.9552,49.1502,-0.6062,-0.5566,0.0074,316.2343
20:22:03:603,-1.5619,1.6241,5.8833,49.0218,-0.8352,-0.7281,0.0213,316.5612
20:22:03:622,-1.5858,1.9308,6.4438,49.6414,-1.1356,-0.8399,-0.1353,316.6536
20:22:03:642,-1.3798,1.9068,8.6429,48.1123,-1.3061,0.1348,-0.4304,316.7109
20:22:03:664,-1.7104,1.605,11.6995,49.368,-0.44,2.7021,-0.8288,316.9749
20:22:03:683,-1.6481,0.3162,13.3716,48.3953,0.4782,0.628,-1.0067,317.4226
20:22:03:712,-3.4543,0.0767,13.5824,49.7024,1.5659,-0.8996,-0.6775,318.11
20:22:03:728,-3.7178,-0.1389,11.3929,49.031,2.1837,0.0464,-0.0608,319.1838
20:22:03:743,-3.2339,0.2731,8.0105,50.262,1.7448,-0.3563,0.4666,320.063
20:22:03:765,-2.9704,1.0971,8.1303,50.1434,0.5635,-0.7014,0.8767,320.0843
20:22:03:784,-1.9308,1.0971,10.0658,49.3073,-0.4368,-0.0495,1.029,319.6021
20:22:03:806,-2.1463,1.4948,12.9739,50.411,-0.8192,0.5471,1.208,318.7552
20:22:03:824,-1.6433,1.9835,13.9848,49.0095,-0.5199,1.0626,1.3742,317.5636
20:22:03:848,-1.1786,2.3332,13.1847,49.6568,-0.1013,1.0903,1.3177,316.0273
20:22:03:865,-1.054,1.9212,12.2409,49.6815,0.0362,0.628,0.9992,314.1794
20:22:03:886,-2.3476,0.7666,12.1594,49.9175,-0.064,0.1987,0.6903,312.3665
20:22:03:912,-3.3633,-0.4743,12.4948,49.7959,-0.1321,0.2935,0.7819,311.0125
20:22:03:931,-3.1381,-0.7426,11.963,47.9963,-0.1098,0.6099,1.0503,310.1144
20:22:03:945,-2.314,-0.2635,10.8371,48.3226,-0.0927,0.6845,1.2069,309.0724
20:22:03:965,-1.5762,0.1246,9.6442,47.0624,-0.1417,0.5556,1.1781,307.6357
20:22:03:985,-1.2648,0.4312,8.8968,46.3028,-0.1939,0.4277,1.061,305.9305
20:22:04:005,-1.4421,0.4839,8.3075,47.8604,-0.1279,0.3425,0.963,304.2852
20:22:04:030,-2.2997,0.436,7.3397,47.5966,-0.0171,0.3489,1.0876,302.7931
20:22:04:045,-1.7295,0.6707,6.4486,47.4457,0.0489,0.3361,1.3337,301.4163
20:22:04:066,-0.9199,1.2025,6.1276,45.3012,0.0553,0.2179,1.3752,299.9053
20:22:04:087,-0.4312,1.6912,6.6067,44.9883,0.0692,0.0592,1.2495,298.1166
20:22:04:106,-0.2922,1.8876,7.0092,47.1637,0.1299,-0.025,1.0375,296.3201
20:22:04:125,-0.5126,1.8924,7.4883,45.6438,0.1725,0.0272,0.8234,294.7085
20:22:04:147,-0.6995,1.7247,8.0392,45.1899,0.2013,0.1976,0.6626,293.3448
20:22:04:165,-0.8336,1.696,8.2357,47.1639,0.2588,0.3042,0.5049,292.2252
20:22:04:186,-1.0684,1.6768,8.2452,44.6269,0.2897,0.2594,0.3185,291.2401
20:22:04:205,-1.3079,1.581,8.4848,45.377,0.279,0.2296,0.1502,290.3764
20:22:04:230,-1.5714,1.4996,8.5279,45.5523,0.2109,0.3255,0.0309,289.7611
20:22:04:284,-1.72,1.5283,8.6668,44.1565,0.0543,0.3553,-0.0703,289.3414
20:22:04:285,-1.7487,1.4181,9.328,45.1264,-0.1151,0.2392,-0.1428,289.0406
20:22:04:294,-1.5331,1.1402,10.3101,42.9152,-0.2408,0.0357,-0.1875,288.8566
20:22:04:309,-1.284,0.8288,11.115,43.8039,-0.3399,-0.041,-0.195,288.79
20:22:04:327,-0.4983,0.5653,11.4169,43.4894,-0.4581,0.105,-0.2142,288.7802
20:22:04:346,0.0575,0.9151,10.9665,43.0272,-0.669,0.2978,-0.3921,288.825
20:22:04:365,-0.6372,1.26,11.0432,42.1663,-1.028,0.1582,-0.7212,288.8548
20:22:04:386,-1.9787,0.6085,12.7296,41.9731,-1.2709,-0.0644,-0.914,288.976
20:22:04:408,-2.8794,-0.3881,14.2483,41.4256,-1.2081,0.0485,-0.7095,289.5956
20:22:04:426,-2.5105,-0.6899,14.6843,41.9395,-0.7298,0.1753,-0.2333,290.4999
20:22:04:449,-0.9774,-0.3066,13.568,41.4322,0.0234,0.1028,0.1736,291.2098
20:22:04:468,0.4072,0.6372,10.5689,40.1815,0.4601,-0.0665,0.2162,291.2775
20:22:04:488,0.4935,1.169,8.2165,39.306,0.3227,-0.0697,-0.0948,290.8733
20:22:04:517,-0.9007,1.0205,7.1673,40.367,-0.0714,0.0592,-0.3697,290.5278
20:22:04:531,-2.0362,0.8145,7.3829,40.1653,-0.2813,0.1657,-0.326,290.5708
20:22:04:547,-2.4721,0.9534,7.4547,39.0048,-0.1417,0.1178,-0.0895,290.9084
20:22:04:566,-2.2182,1.351,7.0667,39.5745,0.1395,-0.0229,0.1736,291.2065
20:22:04:589,-1.6146,1.7774,6.4774,40.8309,0.3728,-0.1624,0.2855,291.2211
20:22:04:613,-1.2744,2.0841,5.7779,38.9127,0.4548,-0.1954,0.2418,290.9189
20:22:04:629,-1.1929,2.2565,5.3659,38.1742,0.3525,-0.1347,0.1129,290.4826
20:22:04:649,-1.5187,2.3284,5.7875,39.1076,0.1768,-0.0538,-0.0437,290.1207
20:22:04:669,-1.8637,2.2038,6.6642,36.5198,0.0958,0.0112,-0.1311,289.9056
20:22:04:689,-2.0793,2.2661,7.6128,36.4459,0.132,0.0016,-0.1417,289.8882
20:22:04:712,-2.2182,2.2422,8.3746,37.6344,0.2322,0.0102,-0.13,289.953
20:22:04:729,-2.3667,2.2038,8.9687,36.9966,0.2663,0.1476,-0.0959,290.0241
20:22:04:749,-2.7213,2.2374,9.6059,37.3449,0.2822,0.3052,-0.0458,290.0812
20:22:04:771,-3.2674,2.1272,10.0227,39.1556,0.3387,0.3361,0.0692,290.0656
20:22:04:794,-3.2531,1.8876,10.6695,37.5739,0.4154,0.1699,0.2397,289.9611
20:22:04:812,-2.7788,1.6241,11.5558,36.1707,0.4868,0.0442,0.3643,289.7234
20:22:04:830,-2.7835,2.0122,12.2744,37.7118,0.4761,0.1987,0.3792,289.3277
20:22:04:849,-3.0231,2.4003,12.3176,36.8131,0.3781,0.7676,0.3654,288.7976
20:22:04:873,-3.047,3.0327,10.8467,36.5834,0.2215,1.3737,0.3856,288.192
20:22:04:890,-2.9464,4.0052,9.4046,36.1707,0.0383,1.3215,0.2823,287.5161
20:22:04:914,-2.774,4.1729,9.213,36.6051,-0.1023,0.6759,-0.0778,286.611
20:22:04:929,-3.8184,2.956,9.5484,36.8691,-0.2376,-0.0697,-0.3452,285.9033
20:22:04:950,-4.4077,1.2169,10.8132,35.6716,-0.2323,-0.5139,-0.31,285.8039
20:22:04:972,-4.3406,0.1198,11.2731,36.5709,-0.1897,-0.5512,-0.0235,286.2019
20:22:04:999,-3.0423,0.0719,11.3594,35.0095,-0.1684,-0.6066,0.2215,286.6385
20:22:05:013,-1.5858,0.3737,10.9952,35.7158,-0.2259,-0.5512,0.1811,286.7344
20:22:05:030,-1.0253,0.4551,9.5196,34.0487,-0.4112,-0.2764,-0.0288,286.5525
20:22:05:050,-1.1355,0.5126,8.0057,35.6932,-0.6541,-0.0538,-0.2248,286.3927
20:22:05:070,-1.6289,0.6132,7.4691,34.0765,-0.7681,-0.0101,-0.3345,286.4044
20:22:05:090,-2.1368,0.5605,8.1638,34.9919,-0.5987,-0.0516,-0.3761,286.542
20:22:05:116,-2.7069,0.0048,7.9865,34.0148,-0.2451,-0.0271,-0.2461,286.8702
20:22:05:131,-2.8937,-0.3402,7.2679,33.8267,0.099,0.0453,0.0554,287.2399
20:22:05:151,-2.98,-0.0767,6.3145,35.0738,0.3494,0.0421,0.3451,287.4542
20:22:05:172,-2.4338,0.3018,5.3515,34.1177,0.4569,-0.0325,0.5486,287.3135
20:22:05:199,-1.2025,1.0732,4.4843,34.0147,0.4207,-0.3488,0.507,286.8351
20:22:05:213,0.0671,1.7583,4.5562,35.5435,0.2897,-0.7654,0.1672,286.1673
20:22:05:231,0.1533,1.672,5.1694,33.1162,0.0159,-0.9315,-0.3111,285.5965
20:22:05:251,-1.2504,0.8336,6.669,32.7191,-0.2866,-0.792,-0.5763,285.5004
20:22:05:272,-2.1416,0.1437,7.929,32.9254,-0.4368,-0.417,-0.4762,285.9908
20:22:05:296,-2.3092,0.3545,8.6046,34.366,-0.5092,-0.1411,-0.2291,286.7746
20:22:05:312,-1.4038,0.6516,9.5532,32.9486,-0.5551,-0.1571,-0.0884,287.3723
20:22:05:332,0.1773,0.5749,11.0575,33.2362,-0.652,-0.2444,-0.1406,287.6296
20:22:05:352,1.8014,0.321,13.4338,34.098,-0.815,-0.0985,-0.343,287.7265
20:22:05:372,2.0984,-0.1868,15.264,32.4258,-0.8384,0.3276,-0.5636,287.8649
20:22:05:397,0.8863,-0.2875,14.8184,33.8748,-0.636,0.6738,-0.489,288.2014
20:22:05:412,0.2443,0.5558,12.7727,31.9549,-0.4006,0.4917,-0.3558,288.7847
20:22:05:432,-0.2156,1.3798,11.1533,32.4301,-0.4539,-0.1677,-0.6062,289.216
20:22:05:452,-1.7727,1.1834,11.8097,32.9194,-0.7564,-0.5725,-0.9257,289.5838
20:22:05:473,-3.1333,-0.1198,13.271,33.0037,-0.8501,-0.3403,-0.8,290.3246
20:22:05:497,-3.6603,-0.6228,13.3476,33.5689,-0.5061,-0.1038,-0.2205,291.4722
20:22:05:513,-1.8301,-0.0814,12.1882,32.7064,0.0852,-0.2817,0.3845,292.4141
20:22:05:533,1.284,1.0828,10.5736,33.867,0.4996,-0.6663,0.3632,292.6661
20:22:05:554,2.3284,1.8158,9.4094,33.9673,0.4537,-0.7483,-0.3292,292.2285
20:22:05:580,0.9151,1.1546,8.686,32.5912,0.132,-0.3115,-1.0781,291.8033
20:22:05:601,-1.3175,0.3162,7.9099,32.4612,-0.1311,0.268,-1.3348,292.2042
20:22:05:612,-2.8458,0.1198,7.3254,34.6674,-0.1758,0.6142,-1.1175,293.486
20:22:05:639,-3.2531,0.3066,7.1242,33.9765,-0.0182,0.6813,-0.6733,295.0598
20:22:05:652,-2.4051,0.7426,7.1769,33.701,0.2854,0.5747,-0.2749,296.3916
20:22:05:680,-1.4469,1.2313,6.8702,34.2448,0.6593,0.3702,-0.1566,297.2272
20:22:05:697,-1.0828,1.5427,6.2905,35.2813,0.9225,0.1817,-0.2344,297.5866
20:22:05:714,-1.3175,1.6385,5.4234,32.8839,0.931,0.1305,-0.3239,297.8073
20:22:05:735,-1.9164,1.8876,5.3419,34.2702,0.719,0.0528,-0.31,298.108
20:22:05:755,-1.9355,2.1943,6.4678,34.5724,0.5496,-0.0974,-0.2759,298.5325
20:22:05:782,-1.8206,2.4626,7.7757,34.6674,0.5177,-0.2402,-0.3058,298.9766
20:22:05:797,-1.9068,2.659,8.7866,34.416,0.5496,-0.2157,-0.3473,299.412
20:22:05:816,-2.3955,2.7308,9.2801,33.5977,0.5699,-0.0612,-0.3526,299.8741
20:22:05:834,-2.4146,2.6302,9.328,35.1002,0.4537,0.024,-0.3217,300.4505
20:22:05:855,-2.223,2.5057,9.9604,35.1181,0.1651,0.0261,-0.3548,300.9454
20:22:05:878,-2.2757,2.3811,11.4025,33.6183,-0.146,0.0901,-0.4283,301.4443
20:22:05:894,-2.5488,2.3188,12.6146,35.234,-0.3388,0.2552,-0.4432,301.995
20:22:05:915,-1.5235,2.3045,12.423,36.0822,-0.5061,0.1316,-0.4645,302.5758
20:22:05:935,-0.7713,1.4708,13.5392,36.0169,-0.7106,-0.3627,-0.6413,303.193
20:22:05:954,-1.8062,-0.1389,15.8293,35.4351,-0.6765,-0.5672,-0.6765,303.8399
20:22:05:979,-2.8842,-1.5954,16.1072,37.0167,-0.3505,-0.0836,-0.2514,304.7328
20:22:05:995,-2.8362,-1.605,13.6782,38.1464,0.066,0.3638,0.5294,305.7021
20:22:06:014,-1.3654,-0.2539,11.2252,38.2088,0.4143,0.1369,1.1004,306.155
20:22:06:036,0.5989,1.1738,9.946,36.7404,0.4996,-0.4724,1.0141,305.6598
20:22:06:056,1.0301,1.6289,9.558,38.2949,0.2876,-0.7345,0.523,304.4303
20:22:06:080,0.1198,1.3031,9.4094,37.8522,0.0362,-0.5385,0.1129,303.3432
20:22:06:096,-0.7474,1.1402,8.3985,37.4674,-0.1364,-0.2562,-0.0522,302.8699
20:22:06:116,-0.9007,0.9438,7.5074,38.6624,-0.1897,-0.1028,-0.0661,302.8633
20:22:06:139,-0.5222,0.8288,7.1146,38.5512,-0.0576,-0.1432,0.0181,303.0328
20:22:06:156,0.1964,0.9247,6.9517,39.7508,0.1981,-0.2253,0.0618,303.2158
20:22:06:177,0.5174,0.9774,6.439,38.3105,0.425,-0.189,-0.0192,303.2933
20:22:06:198,0.1294,1.0157,5.8114,39.8464,0.5294,-0.0474,-0.1215,303.4446
20:22:06:217,-0.4024,0.8193,5.2605,38.8193,0.5304,0.1252,-0.1225,303.6913
20:22:06:238,-0.6755,0.7186,5.1599,38.6353,0.5049,0.187,-0.0341,304.0956
20:22:06:263,-0.4791,0.9342,5.1599,40.4546,0.4942,0.1486,0.0394,304.4368
20:22:06:283,-0.0479,1.375,5.4617,40.5994,0.3952,-0.0719,-0.0363,304.8405
20:22:06:334,0.3593,1.6146,6.6594,41.1624,0.2386,-0.302,-0.2866,304.943
20:22:06:338,0.1246,1.4565,8.0153,42.6783,0.0639,-0.2519,-0.5913,305.222
20:22:06:340,-0.5893,1.3031,8.8537,41.2688,-0.1609,-0.0335,-0.7915,305.8224
20:22:06:360,-0.9055,0.9965,9.649,41.9397,-0.4006,0.0996,-0.8874,306.8054
20:22:06:380,-1.1498,0.7761,11.0863,43.5648,-0.6094,0.1199,-0.9066,307.9805
20:22:06:401,-1.2744,0.8624,12.7296,44.2957,-0.6712,0.1423,-0.9002,309.2062
20:22:06:420,-1.4133,0.6276,13.7548,43.2952,-0.5295,0.2008,-0.8341,310.4718
20:22:06:440,-0.9917,0.1773,13.4291,42.1887,-0.3697,0.1092,-0.6477,311.7388
20:22:06:460,-0.3114,0.3114,13.4722,43.5913,-0.423,-0.2828,-0.5007,312.94
20:22:06:481,0.8001,0.1294,14.9813,43.5396,-0.571,-0.5715,-0.5987,313.9406
20:22:06:501,0.0144,-0.6947,16.754,43.2291,-0.4879,-0.2711,-0.6722,314.7917
20:22:06:523,-1.0492,-1.3223,15.906,43.9536,0.033,0.2871,-0.3015,315.7649
20:22:06:539,0.1773,-0.6947,12.8925,44.7879,0.6444,0.3329,0.2471,316.7921
20:22:06:560,2.7213,0.4216,9.879,45.1938,0.8649,-0.1006,0.311,317.3445
20:22:06:584,3.7513,1.5092,8.5758,44.1893,0.6476,-0.3861,-0.1907,317.2563
20:22:06:603,2.6446,1.72,7.9147,44.3167,0.2279,-0.1677,-0.8427,316.9174
20:22:06:621,0.5941,1.2169,7.2583,42.9907,-0.0874,0.3127,-1.2048,317.2242
20:22:06:644,-1.0013,0.9917,6.2953,46.0154,-0.1407,0.5524,-1.1974,318.2665
20:22:06:668,-1.6193,1.1402,5.3659,46.2834,0.0191,0.3841,-0.9875,319.7199
20:22:06:685,-1.4517,1.4373,4.6329,46.1804,0.2599,-0.0293,-0.7745,321.1956
20:22:06:701,-0.9965,1.8301,4.0675,45.5074,0.3781,-0.3829,-0.668,322.4816
20:22:06:725,-0.5701,2.1032,4.0723,45.2569,0.2822,-0.5097,-0.7042,323.5456
20:22:06:742,-0.6564,2.2853,4.7814,48.3636,0.0532,-0.4564,-0.7958,324.6486
20:22:06:763,-1.4229,2.2949,6.8271,47.3837,-0.0981,-0.3946,-0.8469,325.8121
20:22:06:783,-1.8301,2.0889,9.0357,47.0853,0.0489,-0.2892,-0.8075,326.9272
20:22:06:805,-1.8876,2.1224,9.6538,46.8796,0.2482,-0.0889,-0.6935,328.2695
20:22:06:824,-1.6816,2.5919,10.3868,47.617,0.4324,-0.0942,-0.636,329.5338
20:22:06:846,-1.4277,2.6254,10.3916,46.4114,0.5869,0.0272,-0.7116,330.6182
20:22:06:866,-2.2517,2.5009,9.946,48.3111,0.5123,0.2797,-0.6328,331.619
20:22:06:882,-2.8985,2.7356,10.291,47.9953,0.36,0.3777,-0.3686,332.6602
20:22:06:901,-2.6686,2.7261,11.0671,47.7843,0.2609,0.285,-0.1364,333.5955
20:22:06:922,-2.6159,2.9273,11.5558,48.3993,0.1523,0.2147,0.0415,334.1674
20:22:06:943,-2.0266,3.3153,11.7666,48.3772,-0.1044,0.2317,0.1821,334.5271
20:22:06:964,-0.0719,2.7021,12.7919,49.5948,-0.4837,0.0794,-0.0597,334.7147
20:22:06:985,-0.8145,1.1977,14.1812,48.2243,-0.5732,-0.4255,-0.652,334.6801
20:22:07:004,-3.1572,-0.7139,14.3872,48.3029,-0.4847,-0.8836,-0.8299,334.8995
20:22:07:023,-4.1346,-2.3188,14.5214,49.0182,-0.3431,-0.8879,-0.4112,335.8322
20:22:07:041,-3.071,-2.4817,13.156,48.2107,-0.1545,-0.5992,0.2578,337.05
20:22:07:065,-1.6529,-1.5571,11.1677,49.1452,-0.1236,-0.3733,0.735,337.7574
20:22:07:082,-0.4408,-0.551,9.9652,49.41,-0.2099,-0.2498,0.8777,337.6475
20:22:07:105,0.321,0.0479,9.2082,49.0034,-0.2493,-0.2839,0.7435,336.8939
20:22:07:123,0.5174,0.4168,8.4081,48.0425,-0.2365,-0.2636,0.5518,335.9865
20:22:07:146,0.1533,0.5462,7.3972,48.6902,-0.2025,-0.123,0.4325,335.1869
20:22:07:162,-0.3976,0.6132,6.2618,48.2733,-0.1726,0.073,0.4431,334.627
20:22:07:183,-0.7522,0.7139,5.4138,47.1807,-0.1311,0.2211,0.5582,334.2863
20:22:07:201,-0.7618,0.9774,5.1263,49.2041,-0.0469,0.1689,0.6732,333.898
20:22:07:224,-0.4839,1.351,5.4186,47.6471,0.098,-0.0314,0.686,333.3933
20:22:07:246,-0.1581,1.49,5.7156,47.4305,0.2641,-0.2679,0.6263,332.7053
20:22:07:262,0.0671,1.5235,6.0797,47.9953,0.3739,-0.3403,0.5539,332.04
20:22:07:283,-0.0192,1.5666,6.4438,48.2614,0.442,-0.3403,0.4857,331.4721
20:22:07:304,-0.1821,1.6768,6.578,46.7752,0.5059,-0.3435,0.4602,330.9572
20:22:07:322,-0.1677,1.7487,6.6882,47.4093,0.4793,-0.2668,0.4942,330.5218
20:22:07:343,-0.1916,1.8828,7.1194,46.6263,0.2631,-0.0048,0.5475,330.178
20:22:07:365,0.024,2.3428,8.2165,46.2831,-0.0128,0.3393,0.5049,329.7144
20:22:07:383,0.6707,2.8362,8.801,46.9438,-0.3175,0.4469,0.1811,329.1786
20:22:07:405,0.8959,2.7979,10.6407,46.3764,-0.767,0.1007,-0.4251,328.5752
20:22:07:430,-0.1533,1.3319,14.1525,47.9163,-0.864,-0.1113,-0.865,328.3095
20:22:07:443,-1.2983,-0.1725,15.5275,46.8773,-0.5657,0.1039,-0.734,328.8026
20:22:07:464,-0.9199,-0.5845,14.4112,47.3297,-0.3356,0.3969,-0.4027,329.8107
20:22:07:484,0.4216,-0.2779,13.1943,45.6177,-0.4347,0.3905,-0.3633,330.6597
20:22:07:504,1.5954,-0.5462,14.0519,46.3745,-0.603,0.0293,-0.6978,331.0677
20:22:07:523,0.9869,-1.8254,15.7335,44.4686,-0.5455,-0.09,-1.0408,331.3945
20:22:07:546,-0.8145,-3.0566,15.8245,46.0101,-0.211,0.2562,-0.9364,332.0782
20:22:07:566,-1.6625,-3.2722,13.7836,46.5728,0.3249,0.5364,-0.4155,333.1877
20:22:07:586,-0.5845,-2.4673,10.7797,45.0192,0.7563,0.3276,0.1747,334.15
20:22:07:609,1.5906,-1.0444,8.6189,45.2579,0.834,-0.1134,0.3579,334.5457
20:22:07:629,2.5967,0.2443,7.6751,45.1932,0.6242,-0.3243,0.0351,334.2587
20:22:07:643,1.8349,0.6755,7.0571,45.56,0.2961,-0.0964,-0.4219,333.7242
20:22:07:667,0.2779,0.6612,6.4247,44.5688,0.0468,0.318,-0.6594,333.5642
20:22:07:686,-0.8336,0.5893,5.5527,43.9059,-0.0299,0.5151,-0.652,333.9705
20:22:07:706,-1.5523,0.6899,4.8245,43.9042,0.0085,0.3606,-0.5028,334.6524
20:22:07:729,-1.7583,0.9103,4.5131,44.2682,0.0713,0.0869,-0.3154,335.3284
20:22:07:743,-1.49,1.1259,4.4795,44.5876,0.083,-0.0708,-0.1886,335.8928
20:22:07:766,-0.9821,1.375,4.9395,44.075,0.0223,-0.1262,-0.1737,336.2894
20:22:07:786,-0.9294,1.6193,6.142,43.549,-0.0576,-0.0367,-0.2823,336.4597
20:22:07:807,-1.6337,1.7774,7.4691,44.0705,-0.0331,0.1987,-0.3761,336.6034
20:22:07:830,-2.5871,1.7343,8.0823,43.6053,0.1246,0.4054,-0.3441,336.8339
20:22:07:846,-3.1333,1.7631,8.1159,44.4419,0.3057,0.4405,-0.1939,337.1806
20:22:07:865,-2.52,2.223,8.892,44.8091,0.4942,0.2637,-0.1204,337.5066
20:22:07:888,-1.1977,2.4913,10.0562,43.6869,0.8095,0.1774,-0.4134,337.6462
20:22:07:906,-1.72,1.72,9.2418,44.3455,0.8596,0.351,-0.9737,337.6796
20:22:07:931,-4.034,-0.0671,9.2897,42.0095,0.2471,0.4235,-1.2432,337.9858
20:22:07:945,-6.5157,-0.9247,11.5941,42.0191,-0.7127,0.6056,-0.9513,338.9615
20:22:07:965,-7.7374,0.23,14.9382,42.7151,-1.2411,1.0051,0.0404,340.2029
20:22:07:988,-5.0928,2.0649,16.8067,42.4781,-1.0781,0.9263,0.752,341.279
20:22:08:006,-2.5057,1.1642,17.7074,42.0877,-0.6765,0.2925,0.6072,341.1989
20:22:08:029,-3.6124,-1.0923,18.0907,42.6366,-0.048,-0.1773,0.5188,340.1797
20:22:08:046,-3.5118,-2.75,16.4426,43.0522,0.637,-0.1198,0.9022,339.2996
20:22:08:069,-2.0362,-2.7356,12.9404,41.4712,1.0854,0.0815,1.4125,338.5314
20:22:08:089,-0.3593,-1.2073,9.6202,42.6379,1.1323,0.0624,1.6671,337.3461
20:22:08:110,0.3641,0.7713,7.5937,40.2937,0.8564,-0.1454,1.3582,335.5101
20:22:08:129,-0.2108,1.3367,7.014,41.2696,0.4058,-0.3531,0.8053,333.3398
20:22:08:145,-1.0684,0.5462,7.5937,40.6759,0.083,-0.3446,0.572,331.6136
20:22:08:166,-1.6577,0.1916,7.6991,40.4866,0.0607,-0.1773,0.6668,330.5881
20:22:08:189,-1.6816,0.1964,7.0092,40.5913,0.2567,-0.0442,0.9001,329.7049
20:22:08:217,-1.4421,0.4168,5.7827,39.882,0.5017,0.0229,1.1441,328.8483
20:22:08:229,-1.0492,0.8145,4.3119,39.7671,0.6412,0.0315,1.3347,327.7018
20:22:08:252,-0.3018,1.3223,3.1093,40.2956,0.5944,-0.0207,1.4061,326.109
20:22:08:267,0.5845,1.8397,2.635,39.1703,0.3632,-0.1816,1.2847,324.3823
20:22:08:287,1.1067,2.3092,3.4112,38.5296,0.1022,-0.3936,1.0162,322.5275
20:22:08:308,1.2888,2.5584,4.9347,38.6948,-0.0331,-0.6151,0.6871,320.8102
20:22:08:330,1.169,2.5632,6.5349,39.1645,-0.0799,-0.71,0.376,319.4452
20:22:08:374,0.5222,2.52,7.8236,38.4237,-0.1961,-0.5853,0.0831,318.5343
20:22:08:378,-0.1677,2.3236,9.2418,36.8713,-0.3154,-0.3115,-0.1289,318.0041
20:22:08:393,-0.2348,2.338,9.9125,38.1418,-0.3303,-0.0996,-0.293,317.9152
20:22:08:411,-0.2156,2.5488,9.946,37.5233,-0.3942,-0.1539,-0.5284,317.9922
20:22:08:428,-0.8336,2.3332,10.6263,38.4178,-0.6211,-0.3616,-0.7937,318.0915
20:22:08:448,-1.6529,1.5139,12.8158,36.133,-0.8416,-0.3723,-0.865,318.4492
20:22:08:468,-1.5092,0.8049,14.4016,38.3195,-0.8256,-0.0548,-0.7031,319.1722
20:22:08:487,-0.9917,1.0205,14.0135,37.3974,-0.7713,0.1465,-0.5156,320.0223
20:22:08:512,-0.5174,2.0218,14.3537,36.6462,-0.8885,-0.0665,-0.4805,320.5943
20:22:08:530,0.3354,1.5331,16.6677,38.0246,-0.8991,-0.2434,-0.7223,320.9219
20:22:08:548,-0.5462,-0.6899,17.7649,37.4529,-0.4134,-0.0133,-0.9364,321.2149
20:22:08:571,-2.0026,-2.4194,15.2496,37.6861,0.3589,0.4054,-0.5806,321.8559
20:22:08:591,-1.1882,-2.3332,11.3785,35.787,1.0652,0.4277,0.1587,322.6194
20:22:08:614,1.6816,-1.0732,7.8332,36.5878,1.2527,0.0112,0.4729,322.9545
20:22:08:630,2.7931,0.5318,5.9791,36.4594,0.8298,-0.4436,0.0873,322.5242
20:22:08:649,1.926,1.0588,5.7539,36.2664,0.0969,-0.4351,-0.4059,321.7294
20:22:08:669,0.7618,0.848,6.6451,36.6198,-0.4176,-0.0463,-0.6243,321.4727
20:22:08:690,-0.1198,0.8815,6.899,36.0302,-0.4571,0.2562,-0.6126,321.8339
20:22:08:715,-0.5893,1.0923,6.1564,37.2379,-0.26,0.2562,-0.4837,322.3947
20:22:08:733,-0.642,1.3798,5.4377,35.7586,-0.0427,-0.0122,-0.3622,322.9368
20:22:08:749,-0.3689,1.5762,5.0784,37.0638,0.1161,-0.2221,-0.3207,323.3475
20:22:08:771,-0.1006,1.672,4.5658,36.1387,0.1672,-0.221,-0.3654,323.7019
20:22:08:800,-0.1102,1.8445,4.0579,36.2256,0.0468,-0.1464,-0.4858,323.9091
20:22:08:815,-0.5318,2.0362,4.2017,36.8083,-0.1801,-0.1049,-0.6413,324.1817
20:22:08:831,-1.2313,2.0793,5.1215,35.0133,-0.4006,-0.1049,-0.7415,324.5778
20:22:08:852,-1.7056,2.108,6.8942,37.0154,-0.5476,-0.1496,-0.7404,325.2065
20:22:08:871,-1.9308,2.0745,8.9687,35.9752,-0.5359,-0.0761,-0.6861,325.9494
20:22:08:898,-1.8828,2.1176,10.0514,36.8487,-0.4144,0.0762,-0.6392,326.6512
20:22:08:914,-1.284,2.1511,10.4395,36.3772,-0.3878,0.2275,-0.7148,327.3082
20:22:08:931,-1.8637,1.8828,10.9617,35.8967,-0.522,0.2978,-0.9087,327.9002
20:22:08:951,-3.5501,1.4085,11.8049,36.3428,-0.7628,0.0879,-0.8842,328.5511
20:22:08:972,-4.3214,1.2792,13.98,34.4054,-0.9897,-0.1209,-0.5327,329.4681
20:22:08:999,-4.4173,2.108,16.3947,36.1472,-0.8395,-0.139,-0.0203,330.3914
20:22:09:014,-2.8506,3.2818,16.8833,35.9442,-0.4975,-0.0378,0.359,330.9492
20:22:09:030,-0.3881,2.5775,16.4713,35.8376,-0.3111,0.1241,0.0351,330.9205
20:22:09:052,-1.7918,0.618,15.4077,34.8494,-0.0278,0.0538,-0.6104,330.4184
20:22:09:071,-3.3872,-1.1498,13.8171,35.1484,0.279,-0.2657,-0.751,330.3029
20:22:09:097,-3.0806,-2.4721,12.2026,35.7609,0.5177,-0.5267,-0.5284,330.9334
20:22:09:111,-2.0122,-3.0327,11.345,34.8783,0.7946,-0.4958,-0.2078,331.8055
20:22:09:132,-1.2983,-2.8794,10.0993,34.9092,1.3507,-0.6237,0.0106,332.3716
20:22:09:151,-1.1882,-1.926,8.5519,35.1714,1.5797,-1.2884,0.2716,332.5353
20:22:09:173,-0.1725,-1.145,7.4116,34.7172,1.5339,-1.7763,0.4016,332.4497
20:22:09:199,0.5558,-0.5222,6.1133,34.2498,1.1025,-2.115,0.2269,332.1241
20:22:09:217,0.848,-0.1725,5.8066,34.4362,0.3217,-1.9094,-0.1044,331.7716
20:22:09:232,0.1629,-0.5701,5.9983,35.6969,-0.4379,-1.3406,-0.2813,331.7094
20:22:09:254,-1.0732,-0.9965,6.9086,35.1804,-0.9087,-0.5534,-0.114,332.0308
20:22:09:273,-1.8924,-1.145,7.5218,34.9468,-0.9343,0.1976,0.4122,332.4954
20:22:09:298,-1.6529,-0.939,7.4499,34.901,-0.6339,0.7239,1.0993,332.6398
20:22:09:314,-0.5031,-0.3689,7.0283,35.0576,-0.2696,0.9519,1.6565,332.0913
20:22:09:334,1.1355,0.3402,6.9565,33.931,0.0532,1.052,1.8482,330.7287
20:22:09:353,2.3092,1.145,6.8319,34.0898,0.2503,1.0957,1.6234,328.6603
20:22:09:376,2.4051,1.2313,6.9325,33.011,0.328,1.0243,1.175,326.35
20:22:09:396,2.0074,1.1642,7.5314,33.8479,0.3664,0.9274,0.784,324.2522
20:22:09:416,1.5523,1.0061,8.3602,33.8693,0.3749,0.9007,0.5411,322.6807
20:22:09:434,1.3031,0.9582,9.1555,33.5574,0.3675,0.8102,0.3984,321.5463
20:22:09:455,1.0971,0.8911,10.0035,33.0422,0.3035,0.5247,0.2567,320.567
20:22:09:475,0.6132,0.9917,10.8563,34.2237,0.1363,-0.0058,0.1598,319.8711
20:22:09:500,0.1916,1.1786,12.4086,35.3539,-0.0384,-0.4064,0.2375,319.2907
20:22:09:516,0.5414,1.0253,13.453,35.1752,-0.0586,-0.4863,0.4644,318.8824
20:22:09:535,1.5762,1.7583,13.6542,33.2703,-0.0736,-0.5981,0.7574,318.4224
20:22:09:553,3.8232,2.7213,14.071,34.1761,-0.163,-0.8591,0.6519,317.8019
20:22:09:574,4.9011,2.2709,14.6555,31.8819,-0.3015,-0.8303,-0.2823,316.8775
20:22:09:599,2.4338,0.1294,14.3058,33.2055,-0.3409,-0.3701,-1.2123,316.0942
20:22:09:615,-0.1102,-1.8014,12.514,33.6327,-0.2429,0.2019,-1.24,316.2065
20:22:09:635,-0.2348,-2.2326,10.5209,31.4108,-0.0831,0.4288,-0.619,317.375
20:22:09:654,1.4133,-1.5619,9.098,31.4213,0.0958,0.2658,-0.0597,318.6095
20:22:09:682,2.52,-0.2156,8.2788,31.9322,0.1821,-0.0825,0.0064,319.1021
20:22:09:698,2.2901,0.8959,7.8332,32.5284,0.1193,-0.2721,-0.2365,318.9569
20:22:09:719,1.6002,1.2409,7.4547,33.1762,0.0447,-0.1805,-0.4166,318.763
20:22:09:735,0.9582,1.3031,6.7744,31.1745,0.0607,0.0719,-0.424,318.9176
20:22:09:754,0.6037,1.4804,5.9312,32.1886,0.1225,0.3223,-0.3526,319.2885
20:22:09:774,0.4887,1.6481,5.1886,32.3254,0.2023,0.4906,-0.3622,319.554
20:22:09:799,0.2443,1.6864,4.4125,31.9402,0.2503,0.5801,-0.489,319.7826
20:22:09:818,-0.2875,1.6673,3.7274,32.13,0.2141,0.5449,-0.6658,319.9665
20:22:09:835,-1.0828,1.7487,3.5261,32.2885,0.0436,0.3947,-0.816,320.2812
20:22:09:858,-2.1655,1.8972,4.4316,31.6197,-0.2461,0.1593,-0.8437,320.7547
20:22:09:880,-2.5105,1.9882,6.8223,29.919,-0.4837,-0.1454,-0.7244,321.4633
20:22:09:896,-2.2326,2.108,10.0658,31.3931,-0.5103,-0.091,-0.6051,322.2656
20:22:09:916,-2.3572,2.2709,12.0876,29.8375,-0.2813,0.3447,-0.4996,323.0004
20:22:09:934,-2.5536,2.2134,12.1163,29.9374,0.0362,0.7484,-0.3601,323.6018
20:22:09:955,-2.8123,2.0362,11.3977,31.5142,0.229,0.8134,-0.1311,324.043
20:22:09:976,-2.4769,2.0697,11.254,30.4234,0.2013,0.4735,0.1534,324.2408
20:22:09:995,-1.351,2.2422,12.6433,28.6499,0.0671,0.0442,0.359,324.1654
20:22:10:015,-0.8097,2.8506,14.6651,28.6156,0.066,-0.0229,0.4729,323.9074
20:22:10:035,-0.5078,3.6986,14.9813,30.5546,0.2183,0.3223,0.556,323.4039
20:22:10:057,0.527,3.8615,13.5201,28.2433,0.2098,0.4704,0.3526,322.3556
20:22:10:078,0.9151,2.1032,12.9308,29.8088,0.0106,0.4192,-0.2227,321.5866
20:22:10:097,-1.2121,-0.2635,12.9691,28.1318,0.0521,0.1508,-0.6552,320.8496
20:22:10:120,-3.2147,-2.0889,12.4038,27.9414,0.3014,-0.0719,-0.5231,320.7876
20:22:10:137,-2.8985,-3.4112,11.3977,29.498,0.4996,-0.2093,0.0032,321.2383
20:22:10:161,-1.3463,-3.4543,10.3293,28.3076,0.5954,-0.3893,0.5422,321.7315
20:22:10:185,-0.0479,-2.2901,9.4238,27.1639,0.5273,-0.5544,0.7691,321.5681
20:22:10:200,0.4408,-1.0923,8.5471,25.8364,0.3078,-0.5406,0.6647,320.8209
20:22:10:219,0.3497,-0.4264,7.8141,27.4177,-0.0086,-0.4074,0.4974,319.8224
20:22:10:240,0.0719,-0.3306,7.2775,27.5877,-0.2515,-0.205,0.4474,318.969
20:22:10:266,-0.2635,-0.2108,6.7696,27.1138,-0.3239,-0.0197,0.5315,318.3348
20:22:10:285,-0.4408,0.1437,6.257,25.9158,-0.2642,0.0975,0.6966,317.6009
20:22:10:300,-0.297,0.5701,5.6964,27.7687,-0.1311,0.0698,0.8586,316.8239
20:22:10:321,0.0287,1.1882,5.3563,26.4591,-0.0096,-0.1049,0.9385,315.8041
20:22:10:339,0.4168,1.8589,5.3563,26.9694,0.0532,-0.2839,0.8969,314.5903
20:22:10:361,0.7857,2.3284,5.5767,27.6061,0.0362,-0.4234,0.735,313.3755
20:22:10:381,1.0732,2.5392,6.2139,25.8896,-0.0586,-0.4852,0.5188,312.1691
20:22:10:426,1.2792,2.7261,7.3397,26.6119,-0.1513,-0.4586,0.2876,311.214
20:22:10:431,1.375,2.7931,8.6525,25.1938,-0.1396,-0.3424,0.0245,310.5342
20:22:10:440,0.4647,2.659,9.6777,25.6068,-0.0469,-0.1017,-0.1854,310.1456
20:22:10:463,-0.5653,2.6302,9.8837,25.5232,0.0308,0.0656,-0.228,310.0067
20:22:10:480,-0.7953,2.6446,10.0083,25.4122,0.0127,0.0485,-0.1801,310.1478
20:22:10:500,-0.4312,2.4673,10.5114,25.5651,-0.0661,-0.1592,-0.1406,310.2774
20:22:10:520,0.3018,2.0362,11.8097,24.7961,-0.1449,-0.4181,-0.1481,310.3207
20:22:10:546,0.6612,1.7918,13.5536,24.4548,-0.1194,-0.3211,-0.1534,310.3846
20:22:10:564,0.8815,1.7247,13.7644,25.0477,-0.0054,0.0411,-0.1055,310.5086
20:22:10:584,1.4277,2.108,13.3284,26.0118,0.0298,0.04,-0.0789,310.5504
20:22:10:603,2.5632,2.5248,14.3825,25.0087,0.0489,-0.3765,-0.2685,310.4997
20:22:10:622,2.9129,1.1594,15.3886,24.7805,0.1768,-0.4916,-0.8448,310.4441
20:22:10:641,0.8815,-1.1259,14.507,23.9745,0.3131,-0.058,-1.1473,310.6988
20:22:10:665,-0.7426,-2.3619,12.1786,24.8431,0.442,0.383,-0.7393,311.5975
20:22:10:683,0.0479,-1.8541,9.3519,24.5932,0.5326,0.2765,-0.1204,312.7639
20:22:10:702,1.6912,-0.5414,7.2918,27.5862,0.4356,-0.253,0.0703,313.4043
20:22:10:722,2.0697,0.5893,6.5588,26.0456,0.1438,-0.6801,-0.1236,313.3686
20:22:10:741,1.5906,0.9582,6.5253,25.9213,-0.2142,-0.6492,-0.3409,313.1902
20:22:10:761,0.8672,1.0636,6.8271,26.3953,-0.4315,-0.3254,-0.3921,313.375
20:22:10:782,0.3689,1.3079,6.9661,25.6834,-0.3921,0.0741,-0.3111,313.8097
20:22:10:801,0.1629,1.466,6.2282,24.6818,-0.1726,0.3436,-0.2429,314.2777
20:22:10:820,0.0287,1.5475,5.0257,26.9157,0.0447,0.3425,-0.2259,314.6007
20:22:10:841,-0.0575,1.6625,4.1969,25.0899,0.1342,0.1689,-0.245,314.7985
20:22:10:860,-0.1294,1.8062,4.0244,27.0087,0.0575,0.0592,-0.3058,314.8952
20:22:10:883,-0.3929,1.926,4.4268,26.3529,-0.1353,0.0229,-0.3771,315.1509
20:22:10:901,-0.7186,2.1032,5.7971,25.3834,-0.3729,0.0453,-0.4091,315.4817
20:22:10:921,-1.0253,2.3092,7.7614,26.6304,-0.5423,0.1668,-0.4027,315.9377
20:22:10:941,-1.0971,2.6063,9.6202,25.9541,-0.5689,0.334,-0.3793,316.4521
20:22:10:961,-1.0061,2.8842,10.8036,26.6138,-0.4485,0.4235,-0.3622,316.9043
20:22:10:982,-0.9582,3.0279,11.3642,27.1312,-0.2951,0.465,-0.3399,317.3593
20:22:11:000,-1.1498,2.9416,11.7666,26.0596,-0.1875,0.4022,-0.2663,317.7899
20:22:11:020,-0.9342,2.429,12.6002,25.4094,-0.0991,0.1774,-0.1119,318.1621
20:22:11:040,-0.4408,2.0745,13.774,28.1187,-0.0224,-0.0069,0.1118,318.4507
20:22:11:060,-0.1006,2.6494,14.7514,26.9272,0.0607,0.0197,0.359,318.5524
20:22:11:083,0.9294,3.2195,14.5022,26.8957,0.083,0.0805,0.3941,318.4435
20:22:11:105,1.8924,2.247,14.2818,27.0688,-0.1545,-0.1081,-0.0671,317.9978
20:22:11:126,0.3737,-0.1581,16.0641,26.3915,-0.1566,-0.3126,-0.5731,317.5047
20:22:11:146,-2.199,-2.6734,16.0832,28.6094,0.3834,-0.2508,-0.5156,317.5298
20:22:11:162,-3.1716,-3.8998,13.6446,27.7136,0.931,0.0283,0.164,318.1215
20:22:11:187,-1.8397,-3.6076,10.3006,28.3584,1.1046,0.1774,0.9353,318.649
20:22:11:202,0.1533,-2.1368,7.9434,27.018,0.8894,0.0059,1.2325,318.4144
20:22:11:223,0.939,-0.6564,7.0475,28.2975,0.4537,-0.2444,1.0194,317.2186
20:22:11:246,0.4408,-0.2731,7.1146,27.7178,-0.0128,-0.2902,0.7084,315.7065
20:22:11:262,-0.5366,-0.4839,7.5074,27.8163,-0.3303,-0.1294,0.6445,314.5081
20:22:11:284,-1.0875,-0.4743,7.5362,27.4467,-0.4038,0.0783,0.8032,313.7035
20:22:11:302,-1.1498,-0.0527,7.1433,27.676,-0.2621,0.1593,1.0429,312.9485
20:22:11:324,-0.6372,0.4647,6.5732,27.4095,-0.016,0.0954,1.2282,311.9605
20:22:11:343,0.024,1.0109,5.9552,28.9966,0.2258,-0.0079,1.2943,310.7048
20:22:11:365,0.6037,1.5475,5.3563,27.2436,0.3515,-0.0836,1.2602,309.2061
20:22:11:384,1.1115,2.1032,5.1742,27.5016,0.3462,-0.1347,1.1515,307.6832
20:22:11:402,1.6337,2.6638,5.3994,27.8378,0.2844,-0.1571,0.9587,306.1142
20:22:11:422,2.0457,3.2243,5.9695,29.9913,0.1597,-0.1784,0.654,304.7486
20:22:11:443,1.9212,3.5261,7.2056,27.1014,-0.0032,-0.14,0.2844,303.6737
20:22:11:463,1.2313,3.4207,8.7722,27.7628,-0.0768,0.0208,-0.0256,302.8762
20:22:11:484,0.4024,3.2291,9.7209,28.1256,-0.0043,0.2158,-0.1715,302.5341
20:22:11:503,0.2875,3.0518,9.9796,28.4281,0.0852,0.2158,-0.2227,302.4956
20:22:11:527,0.5749,3.0423,10.4682,26.5674,0.0415,0.0911,-0.3132,302.6047
20:22:11:544,0.7953,2.75,11.3833,28.8919,-0.1044,-0.0484,-0.4411,302.7172
20:22:11:563,0.7091,2.247,12.6721,27.6816,-0.2344,-0.0367,-0.4229,302.9938
20:22:11:588,1.0492,2.0841,13.5297,27.9688,-0.2248,0.122,-0.195,303.4443
20:22:11:605,2.0889,2.3524,13.5967,27.7696,-0.1598,0.0474,0.0149,303.8685
20:22:11:629,4.0388,2.7117,14.1477,28.6053,-0.1364,-0.3361,-0.0959,303.918
20:22:11:646,4.6376,1.72,14.9622,27.0187,-0.0789,-0.5747,-0.7809,303.8051
20:22:11:664,2.1176,-0.4791,14.8424,27.7324,0.0511,-0.1582,-1.3007,303.8844
20:22:11:686,-0.0192,-2.0362,12.7439,27.4771,0.2673,0.6387,-1.1292,304.7211
20:22:11:706,-0.3402,-2.0841,9.3424,28.1686,0.4474,0.873,-0.62,306.0206
20:22:11:729,0.9774,-1.1977,6.9325,27.4352,0.4292,0.3329,-0.2919,307.0739
20:22:11:748,2.0074,-0.0814,6.2857,28.8313,0.1651,-0.2359,-0.3974,307.5003
20:22:11:765,1.5906,0.4599,6.5876,29.1486,-0.1961,-0.2881,-0.6733,307.6607
20:22:11:786,0.4647,0.551,6.5109,28.3258,-0.4847,0.0815,-0.8043,308.0339
20:22:11:805,-0.5174,0.7953,6.027,29.5681,-0.6009,0.3457,-0.7297,308.8309
20:22:11:828,-0.9917,1.0828,5.7635,28.2305,-0.5199,0.2648,-0.5742,309.7126
20:22:11:845,-1.2361,1.3798,5.8593,28.267,-0.3026,0.0336,-0.4112,310.4609
20:22:11:866,-1.0971,1.6577,5.8066,28.0796,-0.0768,-0.0974,-0.2898,311.0834
20:22:11:886,-0.8863,1.9595,5.524,27.6193,0.0223,-0.0633,-0.2472,311.5695
20:22:11:905,-0.8911,2.3524,5.3323,29.2537,-0.0373,0.0251,-0.2525,311.9418
20:22:11:929,-0.9678,2.7931,5.8881,28.5646,-0.1875,0.0038,-0.2632,312.3029
20:22:11:946,-0.9247,3.1189,7.5745,27.5625,-0.2738,-0.0793,-0.293,312.6554
20:22:11:965,-1.2169,3.2339,9.7927,27.6193,-0.2078,-0.139,-0.3526,312.9911
20:22:11:988,-1.2983,3.1045,11.9247,28.0089,-0.0075,-0.0005,-0.3675,313.3807
20:22:12:007,-1.2169,2.9369,12.6433,27.5157,0.2918,0.4022,-0.3462,313.8738
20:22:12:031,-1.351,2.9943,12.0109,27.5534,0.4644,0.7154,-0.3239,314.3069
20:22:12:047,-1.5954,2.8075,11.4983,27.9454,0.4516,0.6983,-0.2834,314.6985
20:22:12:068,-1.4852,2.2949,11.8528,27.8895,0.3675,0.3883,-0.1971,314.9783
20:22:12:088,-1.2169,1.9978,12.6817,27.9784,0.2897,0.2807,-0.0639,315.2318
20:22:12:106,-1.5523,2.7788,12.696,27.426,0.2247,0.5076,0.1416,315.3898
20:22:12:129,-0.8911,3.4495,12.3176,27.5246,0.0766,0.4735,0.2013,315.3897
20:22:12:146,0.091,2.6159,13.1081,27.7115,-0.0224,0.0879,-0.098,315.1349
20:22:12:167,-1.1594,1.0013,13.9944,29.0666,0.0703,-0.3616,-0.4581,314.8023
20:22:12:188,-2.7356,-0.7139,14.3489,28.8787,0.246,-0.2956,-0.3729,314.9131
20:22:12:214,-2.9848,-2.1128,13.1033,28.6468,0.4388,0.1465,0.1001,315.5795
20:22:12:232,-2.6494,-2.0936,10.8419,27.2068,0.556,0.2168,0.7094,316.1462
20:22:12:247,-1.4708,-0.939,9.328,27.5939,0.507,-0.1241,1.1196,315.973
20:22:12:267,-0.0623,0.2348,8.777,27.5639,0.3217,-0.4138,1.1515,315.1206
20:22:12:288,0.4839,0.8001,8.6094,27.8494,0.1171,-0.4287,0.9971,313.8734
20:22:12:308,0.4072,0.9055,8.1782,27.4913,0.0319,-0.2317,0.8745,312.686
20:22:12:331,-0.0383,0.9486,7.1673,27.4424,0.0862,-0.0186,0.8245,311.6372
20:22:12:349,-0.4312,1.0157,5.8785,27.4607,0.1832,0.0751,0.8863,310.6982
20:22:12:368,-0.4264,1.2456,4.8053,27.6365,0.2375,0.0538,1.013,309.808
20:22:12:389,0,1.6481,4.3358,26.44,0.2162,-0.0442,1.0823,308.9073
20:22:12:408,0.5126,2.1368,4.4939,27.1209,0.1661,-0.1709,1.0354,307.8708
20:22:12:429,1.0013,2.5871,4.9299,28.5563,0.1235,-0.2849,0.8895,306.7485
20:22:12:461,1.3846,2.9081,5.7923,26.6077,0.0788,-0.401,0.6711,305.763
20:22:12:468,1.284,3.0039,7.0235,27.5211,0.05,-0.4532,0.4303,304.9164
20:22:12:488,0.8911,2.98,8.3794,25.614,0.0266,-0.3755,0.2524,304.3644
20:22:12:508,0.5462,3.1381,9.5196,26.6104,0.0106,-0.1251,0.1459,304.1048
20:22:12:529,0.2922,3.3968,10.2958,26.8194,0.0404,0.0602,0.0277,304.0068
20:22:12:549,0.0192,3.6651,10.9857,26.214,0.1182,0.0389,-0.1204,303.9894
20:22:12:570,0.3066,3.6315,11.4312,27.0663,0.1629,-0.0623,-0.2546,304.0067
20:22:12:591,0.8672,3.3106,11.8385,26.0725,0.082,-0.0623,-0.4006,304.269
20:22:12:614,0.7522,3.0327,12.3415,26.5166,-0.0246,0.2413,-0.4773,304.6927
20:22:12:631,0.8528,2.659,11.9199,26.2812,-0.0736,0.6206,-0.4656,305.2146
20:22:12:650,1.0061,2.8842,11.1533,25.9417,-0.2014,0.5843,-0.5028,305.7364
20:22:12:669,1.7918,2.8123,11.4983,28.2039,-0.4336,-0.0665,-0.7596,306.1253
