Time,Acc_X,Acc_Y,Acc_Z,Meg,Gyr_X,Gyr_Y,Gyr_Z,Ore
16:35:02:021,-1.8048,2.9821,8.8522,47.1332,-0.0603,0.008,0.0236,-45.4464
16:35:02:042,-1.6702,3.0993,9.0012,47.3118,-0.0529,-0.0336,0.0204,-45.4464
16:35:02:061,-1.7133,3.061,9.0849,47.3824,-0.0326,-0.0943,-0.0009,-45.4464
16:35:02:083,-1.6271,3.0586,9.0634,47.3136,-0.0134,-0.1369,-0.0116,-45.4464
16:35:02:102,-1.5458,3.1256,9.1017,47.2606,-0.0017,-0.1443,-0.0031,-45.4464
16:35:02:136,-1.5745,3.0754,9.2477,47.4437,-0.0198,-0.1529,-0.018,-45.4464
16:35:02:141,-1.5745,3.0251,9.2668,47.589,-0.0443,-0.1539,-0.0318,-45.4464
16:35:02:161,-1.5051,3.0658,9.2501,47.7526,-0.0379,-0.1156,-0.0158,-45.4464
16:35:02:182,-1.4261,3.0945,9.3027,47.8044,-0.0284,-0.0943,0.0087,-45.4464
16:35:02:206,-1.4046,3.0682,9.2189,47.6296,-0.0252,-0.0815,0.0097,-45.4464
16:35:02:222,-1.4381,3.1448,9.1232,47.6276,-0.0134,-0.0495,0.0076,-45.4464
16:35:02:244,-1.4548,3.1519,8.9964,47.5584,-0.0198,-0.0346,0.0076,-45.4464
16:35:02:262,-1.4405,3.0778,9.1304,47.6334,-0.0401,-0.0357,-0.0052,-45.4464
16:35:02:291,-1.4572,3.0108,9.2907,47.6091,-0.0635,-0.074,-0.0244,-45.4464
16:35:02:303,-1.4644,3.0132,9.3649,47.4655,-0.0571,-0.0889,-0.0244,-45.4464
16:35:02:323,-1.4812,2.9773,9.2955,47.3629,-0.0305,-0.0687,-0.0158,-45.4464
16:35:02:344,-1.5194,3.0036,9.3027,47.4745,-0.0017,-0.0282,-0.002,-45.4464
16:35:02:364,-1.4429,2.9486,9.262,47.3762,0.0153,-0.0431,0.0076,-45.4464
16:35:02:390,-1.4405,3.0682,9.2644,47.1597,0.0356,-0.0506,0.0172,-45.4464
16:35:02:407,-1.3998,3.0275,9.1711,47.1932,0.0313,-0.0399,0.0172,-45.4464
16:35:02:424,-1.4405,3.0802,9.0778,47.0853,0.0121,-0.0037,0.0236,-45.4464
16:35:02:443,-1.3065,3.0897,9.0299,47.139,-0.0017,0.0091,0.0395,-45.4464
16:35:02:466,-1.3161,3.0873,9.1663,47.1822,-0.0134,-0.0261,0.031,-45.4464
16:35:02:484,-1.2658,3.0323,9.1735,47.1679,-0.0252,-0.074,0.0087,-45.4464
16:35:02:505,-1.3208,3.0586,9.0945,47.0524,-0.0134,-0.0549,0.0033,-45.4464
16:35:02:527,-1.2562,3.0538,9.1807,47.1735,-0.0156,-0.0485,0.0033,-45.4464
16:35:02:545,-1.2586,3.0778,9.3577,47.3521,-0.0294,-0.0794,0.0023,-45.4464
16:35:02:573,-1.261,3.0299,9.3338,47.4762,-0.0273,-0.0644,-0.0063,-45.4464
16:35:02:591,-1.2514,3.0347,9.2189,47.4155,-0.0156,-0.0197,0.0012,-45.4464
16:35:02:606,-1.2036,3.0778,9.2931,47.4082,-0.0081,-0.0037,0.0108,-45.4464
16:35:02:626,-1.2849,2.9701,9.4199,47.3982,-0.0177,-0.0336,-0.0137,-45.4464
16:35:02:651,-1.3663,2.9222,9.3027,47.3877,-0.0156,-0.0346,-0.0318,-45.4464
16:35:02:668,-1.3663,2.9438,9.1472,47.4823,0.0089,0.0208,-0.0063,-45.4464
16:35:02:686,-1.2586,3.0227,9.0945,47.4635,0.0111,0.0218,0.0214,-45.4464
16:35:02:707,-1.2778,2.9773,9.0634,47.4061,-0.0007,0.0112,0.0204,-45.4464
16:35:02:728,-1.3615,2.939,8.9821,47.3308,-0.0177,-0.0027,0.0012,-45.4464
16:35:02:746,-1.328,2.9533,8.9557,47.3603,-0.0209,-0.0112,-0.0009,-45.4464
16:35:02:768,-1.2873,2.9797,9.0945,47.3315,-0.0241,-0.0463,-0.0009,-45.4464
16:35:02:788,-1.261,2.9318,9.3194,47.2972,-0.0401,-0.1081,-0.0137,-45.4464
16:35:02:807,-1.1815,2.9079,9.454,47.2407,-0.0529,-0.1369,-0.019,-45.4464
16:35:02:827,-1.1767,2.9557,9.3912,47.0891,-0.0422,-0.0719,-0.0063,-45.4464
16:35:02:849,-1.1988,3.006,9.3266,47.1131,-0.0316,0.0133,0.0055,-45.4464
16:35:02:869,-1.2108,2.9868,9.3003,47.188,-0.0316,0.0357,0.0012,-45.4464
16:35:02:888,-1.2419,2.9773,9.3841,47.1666,-0.0284,0.0154,-0.0041,-45.4464
16:35:02:908,-1.2802,2.9007,9.4463,47.0385,-0.023,-0.0165,-0.0137,-45.4464
16:35:02:928,-1.2586,2.8768,9.2788,46.8882,-0.006,-0.0112,-0.0137,-45.4464
16:35:02:954,-1.1862,2.9294,9.2094,46.9629,0.0164,0.0176,0.0033,-45.4464
16:35:02:969,-1.1988,2.8983,9.3171,47.1693,0.0089,-0.0144,-0.0009,-45.4464
16:35:02:989,-1.2969,2.8648,9.2644,47.0081,-0.0081,-0.0293,-0.0148,-45.4464
16:35:03:009,-1.2443,2.9318,9.1591,47.0326,-0.0071,0.0133,0.0033,-45.4464
16:35:03:029,-1.148,3.0347,9.0754,46.8976,-0.0007,0.0314,0.0289,-45.4464
16:35:03:054,-1.1192,3.0395,9.0491,46.9935,-0.0017,0.0091,0.0236,-45.4464
16:35:03:069,-1.1916,2.9797,9.0251,47.2489,0.0004,-0.008,-0.0063,-45.4464
16:35:03:089,-1.2419,2.8672,9.1089,47.3175,-0.0092,-0.0336,-0.0361,-45.4464
16:35:03:110,-1.2538,2.8122,9.2094,47.3171,-0.0316,-0.057,-0.0393,-45.4464
16:35:03:130,-1.2275,2.8289,9.2644,47.121,-0.0529,-0.057,-0.0201,-45.4464
16:35:03:154,-1.1647,2.8672,9.3266,47.2442,-0.0635,-0.0463,-0.0031,-45.4464
16:35:03:170,-1.1216,2.9462,9.3458,47.2672,-0.0603,-0.0357,0.0076,-45.4464
16:35:03:190,-1.0929,2.9462,9.2692,47.1764,-0.0465,-0.0208,0.0119,-45.4464
16:35:03:211,-1.1001,2.9318,9.2381,46.9886,-0.0337,-0.0197,0.0033,-45.4464
16:35:03:230,-1.1456,2.9222,9.2309,46.8141,-0.0284,-0.0495,-0.0137,-45.4464
16:35:03:252,-1.1025,2.9844,9.2357,46.8224,-0.023,-0.0538,-0.0137,-45.4464
16:35:03:271,-1.0546,2.9605,9.4128,46.682,-0.0379,-0.0623,-0.0116,-45.4464
16:35:03:292,-1.014,2.9246,9.4851,46.5842,-0.0582,-0.0836,-0.0222,-45.4464
16:35:03:312,-1.057,2.939,9.3314,46.6006,-0.0369,-0.0368,-0.018,-45.4464
16:35:03:335,-1.0642,2.9366,9.1543,46.5417,-0.0103,0.0165,-0.0095,-45.4464
16:35:03:353,-1.0594,2.9438,9.1328,46.716,-0.0092,0.0069,-0.0073,-45.4464
16:35:03:372,-1.0475,2.9079,9.073,46.901,-0.0198,-0.025,-0.0073,-45.4464
16:35:03:392,-1.0427,2.8768,9.0802,47.0728,-0.023,-0.0346,-0.0105,-45.4464
16:35:03:413,-1.0331,2.9007,9.0993,47.1969,-0.0305,-0.0442,-0.0137,-45.4464
16:35:03:432,-1.0116,2.9174,9.128,47.1708,-0.0401,-0.041,-0.019,-45.4464
16:35:03:453,-0.9733,2.9462,9.2644,47.2685,-0.0635,-0.041,-0.0276,-45.4464
16:35:03:474,-0.9852,2.9509,9.4176,47.3277,-0.0976,-0.0485,-0.0329,-45.4464
16:35:03:493,-1.002,2.9151,9.4271,47.4018,-0.104,-0.0261,-0.0329,-45.4464
16:35:03:513,-0.9637,2.9462,9.3888,47.487,-0.0816,-0.0037,-0.0222,-45.4464
16:35:03:538,-0.8632,2.9701,9.3075,47.4494,-0.0475,-0.0144,-0.0063,-45.4464
16:35:03:555,-0.8177,3.0347,9.2189,47.518,-0.023,-0.0165,-0.002,-45.4464
16:35:03:574,-0.7603,2.9964,9.2477,47.2382,-0.0273,-0.0261,-0.018,-45.4464
16:35:03:594,-0.7172,2.9581,9.2692,47.4265,-0.0443,-0.0442,-0.0403,-45.4464
16:35:03:613,-0.7388,2.9031,9.2883,47.4127,-0.055,-0.0378,-0.0574,-45.4464
16:35:03:638,-0.7914,2.8361,9.2979,47.3657,-0.0624,-0.0357,-0.0702,-45.4464
16:35:03:658,-0.801,2.805,9.4008,47.0774,-0.0656,-0.0485,-0.0776,-45.4464
16:35:03:676,-0.7986,2.7906,9.4008,47.1612,-0.0646,-0.0666,-0.0755,-45.4464
16:35:03:697,-0.7819,2.8098,9.2429,46.9976,-0.0518,-0.0399,-0.0627,-45.4464
16:35:03:717,-0.8871,2.8911,9.1807,47.0944,-0.0443,-0.0133,-0.0531,-45.4464
16:35:03:740,-0.8776,2.9055,9.0299,47.1472,-0.0475,-0.0154,-0.0553,-45.4464
16:35:03:757,-0.8919,2.8481,9.0419,47.13,-0.0571,-0.0197,-0.0638,-45.4464
16:35:03:777,-0.923,2.7547,9.2644,47.1776,-0.0891,-0.073,-0.0904,-45.4464
16:35:03:797,-1.0068,2.6943,9.3649,47.1577,-0.1221,-0.0953,-0.1085,-45.4464
16:35:03:817,-1.0786,2.6512,9.2812,47.3315,-0.1242,-0.0357,-0.0915,-45.4464
16:35:03:841,-1.0834,2.5603,9.1831,47.2115,-0.1093,0.0091,-0.0691,-45.4464
16:35:03:858,-1.1049,2.5316,9.1304,47.2196,-0.0912,-0.0016,-0.0563,-45.4464
16:35:03:878,-1.0594,2.4742,9.2118,47.2717,-0.0806,-0.0368,-0.0489,-45.4464
16:35:03:896,-1.0331,2.4646,9.2405,47.0826,-0.0859,-0.0623,-0.0457,-45.4464
16:35:03:916,-1.0259,2.4215,9.3003,47.2243,-0.1061,-0.0421,-0.0435,-45.4464
16:35:03:936,-1.0403,2.3043,9.4899,47.2968,-0.1477,-0.0517,-0.0563,-45.4464
16:35:03:957,-1.0786,2.2564,9.5904,47.1634,-0.1786,-0.0559,-0.0617,-45.4464
16:35:04:015,-1.0881,2.3115,9.454,47.182,-0.1668,0.0048,-0.034,-45.4464
16:35:04:016,-1.0355,2.467,9.2118,47.2073,-0.136,0.0708,0.014,-45.4464
16:35:04:017,-0.9924,2.6728,9.0538,47.2504,-0.12,0.0879,0.0438,-45.4464
16:35:04:036,-1.0235,2.7398,8.8618,47.4125,-0.1253,0.1005,0.0374,-45.4464
16:35:04:056,-1.1216,2.5938,8.9725,47.5417,-0.1658,0.0932,-0.0031,-45.4464
16:35:04:077,-1.3017,2.3952,9.1974,47.5176,-0.2222,0.0431,-0.0574,-45.4464
16:35:04:098,-1.5769,2.2756,9.3673,47.5591,-0.2457,0.0442,-0.0755,-45.4464
16:35:04:118,-1.6702,2.2008,9.3745,47.6746,-0.2361,0.0527,-0.0467,-45.4464
16:35:04:138,-1.5386,2.2469,9.3936,47.5502,-0.1945,0.041,0.0119,-45.4464
16:35:04:158,-1.4548,2.3737,9.396,47.7527,-0.1605,0.0154,0.0555,-45.4464
16:35:04:178,-1.6175,2.4718,9.1998,47.7649,-0.1594,0.0357,0.0513,-45.4464
16:35:04:199,-1.7521,2.467,9.4223,47.6477,-0.1764,0.0485,0.0236,-45.4464
16:35:04:218,-1.812,2.3809,9.6861,47.48,-0.1977,-0.0389,-0.0073,-45.4464
16:35:04:239,-1.7689,2.5101,9.4391,47.4915,-0.1668,-0.0399,-0.0095,-45.4464
16:35:04:262,-1.6558,2.534,9.3769,47.3456,-0.1477,0.0282,-0.0063,-45.4464
16:35:04:281,-1.7474,2.2469,9.6981,47.4615,-0.235,-0.0069,-0.0734,-45.4464
16:35:04:303,-1.9914,2.0213,9.9589,47.5881,-0.3256,-0.0389,-0.1533,-45.4464
16:35:04:322,-2.0895,1.9878,9.8321,47.4522,-0.3181,0.0399,-0.1352,-45.4464
16:35:04:341,-1.9627,2.1362,9.3266,47.3476,-0.2435,0.1612,-0.0212,-45.4464
16:35:04:363,-1.9101,2.3593,8.939,47.3661,-0.1605,0.2209,0.0854,-45.4464
16:35:04:381,-1.8239,2.4287,8.7494,47.609,-0.1189,0.1304,0.112,-45.4464
16:35:04:404,-1.6558,2.4503,8.5149,47.5002,-0.0976,0.0069,0.1099,-45.4464
16:35:04:422,-1.4812,2.4981,8.5292,47.623,-0.0965,-0.0719,0.1035,-45.4464
16:35:04:441,-1.3543,2.4814,8.7015,47.5807,-0.1487,-0.1486,0.0822,-45.4464
16:35:04:463,-1.4429,2.4479,8.7015,47.7224,-0.2041,-0.1646,0.0566,-45.4464
16:35:04:484,-1.4788,2.4431,8.7039,47.8514,-0.2265,-0.1422,0.031,-45.4464
16:35:04:503,-1.4333,2.5005,8.8642,47.9409,-0.2435,-0.1912,0.0374,-45.4464
16:35:04:522,-1.4094,2.6106,8.9097,47.9127,-0.2446,-0.2562,0.0545,-45.4464
16:35:04:542,-1.5314,2.8122,8.9294,47.6776,-0.2233,-0.2711,0.064,-45.4464
16:35:04:565,-1.4979,2.793,9.0347,47.82,-0.2116,-0.3084,0.0587,-45.4464
16:35:04:583,-1.4477,2.7595,9.2883,47.6546,-0.2105,-0.3531,0.0513,-45.4464
16:35:04:603,-1.5529,2.7667,9.4612,47.3945,-0.1988,-0.367,0.0438,-45.4464
16:35:04:622,-1.6965,3.0634,9.3194,47.0145,-0.1509,-0.2956,0.063,-45.4464
16:35:04:643,-1.5362,3.3511,9.2931,46.6303,-0.1029,-0.2093,0.1216,-45.4464
16:35:04:662,-1.1384,3.4923,9.6335,46.5146,-0.1072,-0.2604,0.1589,-45.4464
16:35:04:684,-1.014,3.5282,10.1198,46.4659,-0.1296,-0.3425,0.1248,-45.4464
16:35:04:703,-1.3017,3.6024,10.5344,46.5072,-0.1189,-0.3435,0.0481,-45.4464
16:35:04:725,-1.7521,3.5737,10.6086,46.3783,-0.0486,-0.2658,0.0087,-45.4464
16:35:04:743,-1.7665,3.2716,10.6062,46.4318,0.0558,-0.1273,0.0747,-45.4464
16:35:04:763,-1.3711,3.3344,11.3486,46.5854,0.0707,0.0069,0.2366,-45.4464
16:35:04:784,-0.801,3.1998,12.5462,46.7335,-0.1136,-0.041,0.3334,-45.4464
16:35:04:803,-1.014,2.9844,13.1761,46.7057,-0.2915,-0.0591,0.2419,-45.4464
16:35:04:824,-1.3998,2.8433,12.7119,46.7355,-0.2616,0.09,0.1237,-45.4464
16:35:04:847,-0.7436,2.7398,11.7775,46.7099,-0.0806,0.2081,0.1855,-45.4464
16:35:04:864,0.4187,2.5053,11.9569,46.7396,0.0249,-0.0176,0.2537,-45.4464
16:35:04:884,1.3789,1.3029,13.1737,46.5388,-0.0848,-0.5937,0.0257,-45.4464
16:35:04:904,1.4435,-0.0437,14.3121,46.3749,-0.1967,-1.0337,-0.3992,-45.4464
16:35:04:926,0.871,-1.002,13.4782,46.1707,0.0334,-0.9527,-0.674,-45.4464
16:35:04:946,0.3535,-1.1121,10.9101,46.0856,0.6224,-0.3254,-0.56,-45.4464
16:35:04:965,0.4259,-0.2925,8.467,45.9943,1.1165,0.3296,-0.1533,-45.4464
16:35:04:986,0.8423,0.3637,7.0511,45.8061,1.1389,0.5256,0.1791,-45.4464
16:35:05:006,0.9601,0.7926,6.5408,45.6528,0.7959,0.4787,0.2462,-45.4464
16:35:05:026,0.7107,1.0056,6.4499,45.2996,0.3859,0.4116,0.1099,-45.4464
16:35:05:046,0.399,1.3053,6.7537,45.1316,0.0823,0.3541,-0.0403,-45.4464
16:35:05:068,0.1047,1.5063,7.0893,45.1947,-0.0997,0.2486,-0.132,-45.4464
16:35:05:086,-0.0508,1.5494,7.1922,44.9377,-0.1647,0.1985,-0.1884,-45.4464
16:35:05:106,-0.082,1.5924,7.2473,44.8802,-0.1413,0.1485,-0.2023,-45.4464
16:35:05:127,-0.1107,1.7222,7.197,44.9205,-0.0678,0.0272,-0.2193,-45.4464
16:35:05:147,-0.1711,1.8634,6.9386,44.885,0.027,-0.0197,-0.2545,-45.4464
16:35:05:168,-0.2524,2.1003,6.7178,44.7634,0.0611,0.0154,-0.2672,-45.4464
16:35:05:186,-0.2046,2.2277,6.7322,44.5934,-0.0198,0.008,-0.2385,-45.3472
16:35:05:207,-0.2094,2.345,6.7346,44.6496,-0.1381,0.0133,-0.1927,-45.2413
16:35:05:227,-0.2931,2.6417,6.7394,44.4931,-0.2126,0.1122,-0.1426,-45.1305
16:35:05:248,-0.25,3.0036,7.1587,44.478,-0.2489,0.1367,-0.0585,-45.0165
16:35:05:267,0.0784,3.1424,7.7886,44.2587,-0.2542,-0.0165,0.0182,-44.9037
16:35:05:288,0.0353,3.3176,8.5508,44.2799,-0.1892,-0.1901,0.0225,-44.7939
16:35:05:308,-0.1831,3.5282,9.533,44.3456,-0.0912,-0.3116,-0.0329,-44.6866
16:35:05:328,-0.3864,3.5186,10.3854,44.2328,0.0142,-0.3233,-0.0627,-44.5797
16:35:05:349,-0.5731,3.5139,11.0225,44.3809,0.1121,-0.1752,-0.051,-44.4719
16:35:05:369,-0.4415,3.5115,11.7966,44.3074,0.1121,0.0016,0.0076,-44.3633
16:35:05:389,-0.3649,3.2764,12.8626,44.1455,-0.072,0.0581,0.0033,-44.2561
16:35:05:409,-0.9446,2.7111,14.0794,44.3926,-0.3618,0.0676,-0.1799,-44.1497
16:35:05:429,-1.8885,2.0692,14.8965,44.3335,-0.5555,0.1549,-0.396,-44.0398
16:35:05:449,-2.4251,1.5159,15.0018,44.1293,-0.4779,0.3796,-0.3055,-43.9188
16:35:05:469,-2.3653,1.2455,14.5968,44.0219,-0.1786,0.5778,0.0694,-43.7906
16:35:05:489,-2.19,0.9434,14.1655,44.0522,0.1334,0.5064,0.3867,-43.6677
16:35:05:509,-2.3007,0.728,12.5988,44.1276,0.4487,0.4308,0.539,-43.5608
16:35:05:529,-2.4754,0.7711,10.3113,44.1289,0.8129,0.6864,0.67,-43.5608
16:35:05:550,-2.5591,0.7926,9.0419,44.2395,0.9429,0.7035,0.6775,-43.5608
16:35:05:570,-2.3342,0.189,9.2046,44.1464,0.6863,0.1485,0.4804,-43.5608
16:35:05:590,-2.1182,-0.5683,9.8082,44.195,0.2985,-0.4394,0.2377,-43.5608
16:35:05:611,-1.9866,-1.0522,9.746,44.0093,0.0718,-0.582,0.1514,-43.5608
16:35:05:631,-1.8359,-0.9607,8.9145,43.8005,0.076,-0.3244,0.2963,-43.5608
16:35:05:651,-1.2443,-0.5228,7.614,43.5497,0.1782,0.0559,0.6125,-43.5608
16:35:05:672,-0.5539,0.0162,6.4594,43.2055,0.2399,0.3242,0.9342,-43.5608
16:35:05:691,-0.0796,0.5599,5.4724,43.2487,0.2293,0.4414,1.1429,-43.5608
16:35:05:712,0.1884,1.2407,4.6702,43.133,0.1931,0.5213,1.2483,-43.5608
16:35:05:732,0.3511,2.0094,4.3992,43.0387,0.1281,0.516,1.2696,-43.6856
16:35:05:751,0.4062,2.4407,4.7013,43.0192,-0.0284,0.3093,1.1567,-43.8517
16:35:05:772,0.344,2.4239,5.3695,43.0579,-0.2276,0.0208,0.8799,-44.0536
16:35:05:792,0.0999,2.1505,6.3876,43.2593,-0.3788,-0.2296,0.522,-44.2805
16:35:05:812,-0.1567,1.9854,7.4249,43.6453,-0.4278,-0.3904,0.2462,-44.5188
16:35:05:832,-0.4869,1.9448,7.9256,43.906,-0.3383,-0.2956,0.1461,-44.7581
16:35:05:853,-0.99,2.0716,8.1075,43.6851,-0.234,-0.0112,0.1333,-44.9961
16:35:05:872,-1.3352,2.5196,8.5244,43.7772,-0.267,0.2071,0.1439,-45.2316
16:35:05:893,-1.7378,3.3655,9.2285,43.4605,-0.4129,0.3146,0.1599,-45.4646
16:35:05:913,-1.5099,3.7675,10.0505,43.4617,-0.5513,0.353,0.1067,-45.6954
16:35:05:932,-0.6646,3.5976,11.3892,43.3582,-0.6429,0.1581,-0.0563,-45.9212
16:35:05:953,-0.1687,2.9773,13.4303,43.0715,-0.7568,-0.2999,-0.3779,-46.1373
16:35:05:974,-0.207,2.0477,15.3422,42.8176,-0.8772,-0.6981,-0.7486,-46.3338
16:35:06:023,-0.7412,1.2718,15.9051,42.4734,-0.8133,-0.712,-0.9253,-46.4991
16:35:06:025,-0.8847,1.468,14.6112,42.3431,-0.4726,-0.3212,-0.7379,-46.6292
16:35:06:033,0.4834,1.7749,13.9382,42.1303,-0.1221,0.0027,-0.2991,-46.7304
16:35:06:053,1.9298,0.8261,14.9085,42.2779,-0.1455,-0.2967,-0.1692,-46.7304
16:35:06:074,1.6283,-0.5444,15.2028,42.1424,-0.3181,-0.5447,-0.5025,-46.7304
16:35:06:094,0.658,-1.8162,13.4638,42.0849,-0.1381,-0.1294,-0.7805,-46.7304
16:35:06:116,0.198,-2.1087,11.3605,41.659,0.3529,0.3828,-0.6996,-46.7304
16:35:06:136,0.6963,-1.3609,10.3208,41.6464,0.7288,0.3562,-0.4514,-46.7304
16:35:06:155,1.4626,-0.5204,9.9374,41.4874,0.7959,-0.0261,-0.2651,-46.7304
16:35:06:176,1.0941,0.0066,9.1065,41.2965,0.6893,-0.0794,-0.3289,-46.7304
16:35:06:197,0.2052,0.1531,7.9184,41.209,0.5244,0.2113,-0.559,-46.7304
16:35:06:217,-0.6497,0.3781,6.8931,41.0575,0.371,0.4798,-0.6612,-46.7304
16:35:06:237,-1.1169,0.7208,6.0879,41.0833,0.2634,0.5884,-0.5835,-46.7304
16:35:06:257,-1.0929,1.1761,5.458,41.1042,0.2357,0.6236,-0.3779,-46.6305
16:35:06:276,-0.868,1.6816,5.0219,41.1952,0.2602,0.6225,-0.1447,-46.5157
16:35:06:297,-0.6933,2.2421,4.7396,41.2209,0.2857,0.5948,0.0033,-46.3939
16:35:06:316,-0.6281,2.68,4.593,41.4463,0.2783,0.517,0.0044,-46.2721
16:35:06:337,-0.8154,2.9605,4.5452,41.4334,0.2165,0.4148,-0.1107,-46.1488
16:35:06:357,-1.1671,3.0897,5.0339,41.4408,0.1068,0.2742,-0.2704,-46.0206
16:35:06:376,-1.5242,2.9366,6.0903,41.3139,-0.0561,-0.0208,-0.4194,-45.8822
16:35:06:396,-1.8191,2.8002,7.3095,41.2486,-0.2254,-0.2807,-0.477,-45.7296
16:35:06:417,-1.6487,2.8098,8.8666,41.3974,-0.3607,-0.4096,-0.3981,-45.5624
16:35:06:437,-1.3998,2.9127,10.5344,41.4256,-0.4214,-0.466,-0.2459,-45.3837
16:35:06:457,-1.2826,2.7954,11.7057,41.5258,-0.3309,-0.3414,-0.1373,-45.1991
16:35:06:478,-1.2395,2.5077,12.2686,41.354,-0.1125,-0.0858,-0.0691,-45.0131
16:35:06:497,-1.3113,2.735,12.3284,41.3627,0.1281,0.1591,0.0204,-44.8281
16:35:06:517,-1.2395,2.6536,12.4863,41.1973,0.2453,0.2667,0.0491,-44.6462
16:35:06:537,-1.7234,2.479,13.3226,41.3393,0.1494,0.2262,-0.0787,-44.4679
16:35:06:558,-2.3964,2.0644,14.0435,41.4754,-0.1008,0.223,-0.2332,-44.2889
16:35:06:578,-2.7099,1.8203,14.0722,41.3741,-0.2861,0.4233,-0.1682,-44.1044
16:35:06:598,-2.3653,1.4106,14.1727,41.327,-0.3,0.5351,0.0704,-43.9185
16:35:06:618,-2.2959,0.6873,14.4413,41.4131,-0.1828,0.2742,0.1897,-43.7385
16:35:06:639,-2.2744,-0.1585,13.3107,41.6082,0.1356,-0.0016,0.1642,-43.5691
16:35:06:659,-2.5113,-0.1681,11.0734,41.7352,0.6607,0.0581,0.2206,-43.4083
16:35:06:678,-2.3821,0.1723,9.14,41.9587,1.0515,0.0964,0.3515,-43.2548
16:35:06:699,-1.8239,0.3517,8.7159,42.1477,1.0132,-0.2434,0.3963,-43.1086
16:35:06:719,-1.1599,0.1292,9.2955,42.068,0.6053,-0.6832,0.2941,-42.9732
16:35:06:739,-1.0187,-0.2686,9.6096,42.241,0.1164,-0.7365,0.1557,-42.8478
16:35:06:760,-1.1097,-0.5468,9.3458,42.3853,-0.2233,-0.3979,0.1045,-42.7286
16:35:06:779,-0.9613,-0.4528,8.4742,42.4222,-0.3341,0.0293,0.2217,-42.6176
16:35:06:800,-0.6233,-0.0054,7.346,42.3255,-0.2585,0.3818,0.4676,-42.5195
16:35:06:820,-0.2596,0.4666,6.5767,42.3505,-0.1093,0.4861,0.6903,-42.5195
16:35:06:841,0.0353,1.1013,6.0449,42.3673,0.0558,0.3136,0.7712,-42.5195
16:35:06:860,0.3368,1.5805,5.3049,42.4414,0.241,0.1304,0.7382,-42.5195
16:35:06:881,0.2219,2.141,4.9884,42.5306,0.3987,-0.0048,0.6221,-42.5195
16:35:06:901,-0.0413,2.5747,5.3551,42.6062,0.4328,-0.2423,0.4059,-42.5195
16:35:06:921,-0.2716,2.6154,5.8678,42.6683,0.3475,-0.5076,0.1375,-42.5195
16:35:06:941,-0.341,2.7374,6.3924,42.7631,0.2059,-0.6331,-0.116,-42.5195
16:35:06:961,-0.2812,2.7906,7.5996,43.1564,0.0068,-0.713,-0.3012,-42.5195
16:35:06:981,-0.4726,2.8313,9.2907,43.31,-0.1924,-0.7759,-0.461,-42.5195
16:35:07:002,-0.8321,3.061,10.3783,43.2878,-0.251,-0.6992,-0.5782,-42.5195
16:35:07:022,-0.9541,3.3751,10.6014,43.2899,-0.1029,-0.4533,-0.5494,-42.5195
16:35:07:042,-0.53,3.4086,11.1188,43.2344,0.0782,-0.2647,-0.4535,-42.5195
16:35:07:061,-0.2524,3.2668,12.2207,43.2693,0.0419,-0.3041,-0.4216,-42.5195
16:35:07:082,-0.015,2.872,12.8172,43.2545,-0.1583,-0.3702,-0.4706,-42.4117
16:35:07:102,-0.1831,2.8863,13.6361,43.3788,-0.2936,-0.3244,-0.5004,-42.2868
16:35:07:123,-0.3242,2.7691,14.1703,43.0961,-0.3341,-0.335,-0.5068,-42.1458
16:35:07:143,-0.1184,2.5771,13.7539,43.1989,-0.2414,-0.2423,-0.428,-41.9882
16:35:07:163,0.2291,2.2756,13.5332,43.3881,-0.1125,-0.1081,-0.3278,-41.8175
16:35:07:183,0.1956,1.7007,13.5571,43.4808,-0.12,-0.0708,-0.3939,-41.638
16:35:07:203,-0.4798,0.9386,12.7047,43.482,-0.0848,0.1634,-0.5707,-41.4474
16:35:07:223,-1.1192,0.3494,11.1763,43.3735,0.1728,0.5458,-0.6463,-41.2405
16:35:07:243,-1.0235,0.2489,10.0026,43.5594,0.5126,0.6236,-0.5345,-41.0144
16:35:07:264,-0.2046,0.4594,9.6814,43.5118,0.6957,0.2465,-0.4003,-40.7725
16:35:07:288,0.0903,0.4714,9.6407,43.6575,0.6501,-0.1699,-0.4269,-40.5197
16:35:07:305,-0.3147,0.2201,8.9581,43.5776,0.4732,-0.1976,-0.6048,-40.2549
16:35:07:328,-0.9015,0.1914,7.5876,43.4773,0.3379,0.1208,-0.673,-39.9736
16:35:07:345,-1.1647,0.5623,6.347,43.4784,0.2879,0.4286,-0.5015,-39.6741
16:35:07:364,-0.9805,1.1348,5.683,43.6778,0.2463,0.467,-0.2406,-39.3626
16:35:07:385,-0.7077,1.7151,5.2475,43.9294,0.1909,0.3796,-0.0553,-39.0484
16:35:07:404,-0.5587,2.1864,4.6217,43.9828,0.159,0.3668,0.0172,-38.7376
16:35:07:430,-0.609,2.5651,4.1192,43.8892,0.1483,0.3594,-0.018,-38.433
16:35:07:449,-0.9852,2.9079,4.1886,43.8912,0.1004,0.2379,-0.1447,-38.1338
16:35:07:467,-1.6247,2.7135,4.9621,43.9288,-0.0667,0.0964,-0.3332,-37.8351
16:35:07:489,-2.1398,2.5172,6.2243,44.0087,-0.4268,0.1836,-0.4343,-37.5315
16:35:07:511,-2.2499,2.5292,7.4536,43.836,-0.9166,0.4712,-0.3182,-37.2198
16:35:07:530,-2.0154,2.9797,8.9916,43.8729,-1.2616,0.6385,-0.0617,-36.9089
16:35:07:550,-1.7593,3.5282,10.5966,43.7499,-1.2712,0.4584,0.1663,-36.61
16:35:07:570,-2.0776,3.8638,11.866,43.657,-0.9358,0.2859,0.2483,-36.3332
16:35:07:590,-2.5902,3.7699,12.1585,43.801,-0.4108,0.1889,0.1706,-36.0783
16:35:07:611,-2.7482,3.7172,11.5065,43.9323,0.143,0.1261,0.1951,-35.8371
16:35:07:630,-2.4299,3.6072,11.0082,44.2228,0.5446,0.0282,0.3304,-35.6064
16:35:07:649,-2.2211,3.3248,11.2433,44.3246,0.6351,-0.1901,0.375,-35.3888
16:35:07:670,-2.4299,3.2189,12.3188,44.4846,0.4455,-0.3883,0.3048,-35.1849
16:35:07:690,-2.5998,3.0203,13.0421,44.4052,0.1771,-0.3691,0.3048,-34.9942
16:35:07:712,-2.8253,3.0347,12.6203,44.7283,0.059,0.0719,0.4868,-34.817
16:35:07:730,-2.8038,2.8361,12.3954,44.8456,0.0174,0.5064,0.686,-34.6605
16:35:07:751,-2.8373,2.0931,13.0636,44.9371,-0.1029,0.3871,0.6647,-34.5323
16:35:07:770,-2.9928,1.0917,13.3274,44.9273,-0.1285,-0.0037,0.4943,-34.4304
16:35:07:790,-3.0646,0.6299,12.0622,44.7639,0.1867,-0.0719,0.5379,-34.4304
16:35:07:810,-3.0335,1.0606,9.868,44.8619,0.6904,0.2305,0.8479,-34.4304
16:35:07:830,-2.6237,1.4919,8.2798,44.9212,0.9471,0.3732,1.0779,-34.4304
16:35:07:851,-1.7833,1.3962,8.0166,45.112,0.7224,0.0336,1.0278,-34.4304
16:35:07:871,-1.0905,0.7472,8.7326,45.0723,0.1835,-0.4565,0.767,-34.4304
16:35:07:893,-0.9589,0.0353,9.1184,45.0985,-0.3341,-0.6598,0.4602,-34.4304
16:35:07:910,-0.9254,-0.2614,8.546,44.9308,-0.5608,-0.449,0.3186,-34.4304
16:35:07:931,-0.6257,-0.0628,7.2305,44.9655,-0.5003,-0.0708,0.4112,-34.4304
16:35:07:950,-0.1155,0.1507,5.5466,44.8802,-0.317,0.2624,0.6178,-34.5377
16:35:07:970,0.1813,0.5982,4.6265,44.7389,-0.1615,0.3924,0.7563,-34.667
16:35:07:990,0.1358,1.2909,4.8138,44.634,-0.1573,0.1037,0.7116,-34.8215
16:35:08:010,0.2602,1.6618,5.4006,44.412,-0.2478,-0.3318,0.6072,-34.9992
16:35:08:055,0.1789,1.9208,5.659,44.1809,-0.2648,-0.4309,0.5454,-35.1954
16:35:08:056,-0.0939,2.1075,5.7362,44.091,-0.2126,-0.2189,0.4559,-35.4079
16:35:08:072,-0.3194,2.2828,6.4283,44.1341,-0.2286,-0.1113,0.3387,-35.6329
16:35:08:092,-0.4199,2.2397,7.7599,43.8662,-0.3543,-0.2455,0.1844,-35.8645
16:35:08:111,-0.5803,2.278,9.2189,43.8931,-0.512,-0.3755,0.0087,-36.0976
16:35:08:131,-0.9517,2.3952,10.5003,43.7386,-0.5821,-0.3276,-0.132,-36.3262
16:35:08:150,-1.7569,2.7763,11.2409,43.7768,-0.5098,-0.0868,-0.215,-36.5452
16:35:08:172,-2.1111,3.2788,11.5807,43.747,-0.3469,0.1463,-0.1873,-36.7518
16:35:08:193,-1.8957,3.789,11.8014,43.7147,-0.1935,0.1442,-0.067,-36.9472
16:35:08:213,-1.3184,4.0576,12.259,43.6231,-0.1413,0.0048,-0.0244,-37.1345
16:35:08:232,-0.7579,3.8177,13.0205,43.7129,-0.235,-0.2253,-0.1383,-37.316
16:35:08:252,-0.4798,3.4229,13.6983,43.8477,-0.3298,-0.4032,-0.3044,-37.488
16:35:08:273,-0.3099,3.3559,13.7127,43.8634,-0.2702,-0.4447,-0.3981,-37.6452
16:35:08:293,0.3129,2.7667,13.5667,43.8052,-0.1104,-0.417,-0.4439,-37.7855
16:35:08:313,0.5791,1.727,14.9276,43.7348,-0.1562,-0.631,-0.6772,-37.9067
16:35:08:333,0.5623,0.1436,15.8351,43.6471,-0.3245,-0.8451,-1.067,-38.0019
16:35:08:353,0.0042,-0.9009,14.0315,43.5381,-0.0614,-0.4788,-1.2353,-38.0019
16:35:08:373,-0.1831,-1.1216,11.2193,43.2522,0.5489,0.2156,-0.905,-38.0019
16:35:08:393,0.2243,-0.5659,9.2357,42.9065,0.9333,0.5192,-0.4109,-38.0019
16:35:08:414,0.7298,-0.0652,8.9366,42.6432,0.7905,0.1815,-0.2161,-38.0019
16:35:08:434,0.7585,-0.1083,9.1017,42.4822,0.3358,-0.1422,-0.2778,-38.0019
16:35:08:453,0.0018,0.0712,8.4431,42.4095,0.0356,0.0176,-0.3853,-38.0019
16:35:08:474,-0.5922,0.4427,7.6714,41.9601,-0.0124,0.3157,-0.3768,-38.0019
16:35:08:496,-0.813,0.6873,7.0319,41.6253,0.0057,0.3604,-0.2587,-38.0019
16:35:08:517,-0.7627,1.0271,6.4786,41.7917,0.0579,0.2742,-0.1021,-38.0019
16:35:08:535,-0.5922,1.3914,5.8463,41.8224,0.1409,0.2369,0.0342,-38.0019
16:35:08:556,-0.6742,1.7701,5.3121,41.8077,0.208,0.3072,0.1237,-38.0019
16:35:08:576,-0.8225,1.9543,5.0578,41.5809,0.1941,0.3636,0.1397,-38.0019
16:35:08:597,-1.0451,2.1649,5.1296,41.5568,0.0972,0.3764,0.1216,-38.0019
16:35:08:616,-1.136,2.3163,5.3623,41.6949,-0.0326,0.4403,0.1173,-38.0019
16:35:08:637,-1.1695,2.6321,5.9204,41.7286,-0.1519,0.4979,0.1216,-38.0019
16:35:08:657,-1.1862,2.8648,6.6963,41.3071,-0.2563,0.4489,0.1173,-38.0019
16:35:08:677,-1.4166,3.0443,7.6283,41.0687,-0.3213,0.3445,0.1024,-38.0019
16:35:08:697,-1.4572,3.2285,8.9366,40.9292,-0.3341,0.1815,0.0779,-38.0019
16:35:08:718,-1.1121,3.6048,10.4812,40.9501,-0.2947,-0.0655,0.1109,-38.0019
16:35:08:737,-1.2443,3.8327,11.5591,40.8043,-0.1402,-0.1379,0.194,-38.0019
16:35:08:757,-1.7204,3.8082,11.7105,40.6374,0.075,0.1016,0.2057,-38.0019
16:35:08:777,-1.8263,3.4828,12.0455,40.3712,0.1632,0.2699,0.1642,-38.0019
16:35:08:797,-2.0058,3.3799,12.92,40.3277,0.094,0.1538,0.1088,-38.0019
16:35:08:816,-2.147,3.4923,13.8544,40.3503,-0.0262,0.0368,0.0811,-38.0019
16:35:08:837,-1.9938,3.3942,14.4461,40.2722,-0.1349,0.0889,0.1631,-38.0019
16:35:08:857,-1.6774,2.8528,14.6399,39.9911,-0.1807,0.2252,0.3122,-38.0019
16:35:08:877,-1.8455,2.0764,14.683,39.6081,-0.1541,0.2369,0.3377,-38.0019
16:35:08:898,-2.4658,1.3125,13.5715,39.5236,0.0068,0.1953,0.276,-38.0019
16:35:08:917,-3.0909,0.874,11.1404,39.3773,0.3816,0.3796,0.3526,-38.0019
16:35:08:938,-3.1436,0.8835,8.9773,39.5193,0.7714,0.5202,0.5497,-38.0922
16:35:08:957,-2.5615,0.8644,8.3372,39.2632,0.8481,0.1623,0.6423,-38.1982
16:35:08:977,-1.9651,0.4762,9.0395,38.9317,0.5648,-0.5277,0.5145,-38.321
16:35:08:998,-1.5505,0.0329,9.3864,38.734,0.1771,-0.8909,0.3069,-38.4582
16:35:09:018,-1.34,-0.1107,8.8834,38.5377,-0.0433,-0.6694,0.2164,-38.6034
16:35:09:038,-0.8752,-0.0724,8.0309,38.4059,-0.1221,-0.3361,0.2345,-38.7547
16:35:09:058,-0.5707,0.1388,7.2736,38.2688,-0.1743,-0.1507,0.3261,-38.9129
16:35:09:079,-0.5109,0.5097,6.8429,38.1765,-0.2329,-0.0602,0.4133,-39.0811
16:35:09:099,-0.4175,0.6897,6.4475,37.8778,-0.2435,-0.0889,0.473,-39.2642
16:35:09:119,-0.2429,1.0869,5.9611,37.6134,-0.1189,-0.1198,0.5497,-39.463
16:35:09:140,-0.0006,1.6839,5.5944,37.6782,0.0803,-0.1358,0.6551,-39.6791
16:35:09:159,-0.0197,2.1769,5.3025,37.4788,0.2122,-0.1379,0.7031,-39.9159
16:35:09:180,-0.1878,2.4335,5.077,37.4491,0.2144,-0.0943,0.6264,-40.1731
16:35:09:200,-0.4726,2.5723,5.2355,37.454,0.1121,-0.0314,0.4666,-40.4476
16:35:09:220,-0.8536,2.805,6.1525,37.0647,-0.0816,-0.0794,0.2792,-40.7322
16:35:09:240,-1.2299,2.8983,7.5829,36.821,-0.3149,-0.2328,0.1152,-41.0206
16:35:09:261,-1.3208,2.668,9.3841,36.5168,-0.512,-0.3467,-0.0276,-41.3058
16:35:09:280,-1.5434,2.7763,11.3007,36.5559,-0.6226,-0.3702,-0.117,-41.585
16:35:09:300,-1.8072,3.2285,12.0048,36.3253,-0.563,-0.1816,-0.0925,-41.8546
16:35:09:320,-1.4812,3.6168,12.283,36.1361,-0.3554,0.222,0.0704,-42.1148
16:35:09:341,-1.1216,3.9117,12.4959,35.9062,-0.2041,0.435,0.1865,-42.3706
16:35:09:361,-0.5348,3.7292,13.1306,35.6833,-0.1668,0.2656,0.1397,-42.6267
16:35:09:381,0.1071,3.5785,14.0435,35.8508,-0.1221,-0.2413,0.0076,-42.8807
16:35:09:402,0.4881,3.5426,14.254,35.7402,0.026,-0.5565,-0.1256,-43.1295
16:35:09:421,0.524,2.8409,13.8568,35.8927,0.1718,-0.5266,-0.2991,-43.3707
16:35:09:442,0.4134,1.547,15.2626,35.6429,0.1153,-0.5437,-0.5345,-43.5956
16:35:09:461,0.1238,-0.3117,16.5565,35.5309,-0.1178,-0.6438,-0.771,-43.7964
16:35:09:481,-0.4582,-1.5936,14.4293,35.3482,0.0494,-0.1965,-0.7891,-43.9656
16:35:09:502,-0.5922,-1.7611,11.0058,35.1825,0.6351,0.5501,-0.477,-44.1053
16:35:09:522,0.1621,-0.7525,8.6369,35.1586,0.9929,0.861,-0.0126,-44.2271
16:35:09:543,1.1133,0.536,8.0213,34.7188,0.8012,0.6459,0.3197,-44.347
16:35:09:563,1.1994,1.1952,7.7264,34.5725,0.404,0.4393,0.2654,-44.4759
16:35:09:583,0.6221,1.2742,6.9434,34.2232,0.1995,0.4233,-0.0595,-44.6122
16:35:09:603,-0.0341,1.4345,5.985,34.2387,0.1824,0.3988,-0.3118,-44.7441
16:35:09:623,-0.3769,1.59,5.2403,34.1818,0.1643,0.2923,-0.3864,-44.8613
16:35:09:644,-0.5994,1.8156,4.8784,34.1807,0.0707,0.173,-0.379,-44.9621
16:35:09:663,-0.6329,2.1242,4.8927,34.2675,-0.0731,0.073,-0.3214,-44.9621
16:35:09:684,-0.3123,2.4694,4.943,34.0979,-0.1903,-0.0431,-0.2118,-44.9621
16:35:09:704,0.2171,2.8839,5.348,34.3275,-0.2308,-0.1422,-0.1394,-44.9621
16:35:09:724,0.2506,3.2524,5.7506,34.1292,-0.2222,-0.1497,-0.1884,-44.9621
16:35:09:744,-0.2931,3.2788,5.6925,34.1784,-0.1732,-0.0325,-0.3694,-44.9621
16:35:09:764,-0.8776,3.1687,5.863,34.3048,-0.1413,0.0719,-0.5217,-44.9621
16:35:09:785,-1.3256,3.3033,6.6174,34.3448,-0.1732,0.0336,-0.5121,-44.9621
16:35:09:804,-1.5386,3.5426,7.8993,34.3949,-0.218,-0.106,-0.3704,-44.9621
16:35:09:825,-1.4285,3.6048,9.4343,34.3688,-0.2553,-0.2711,-0.1969,-44.9621
16:35:09:845,-1.069,3.32,11.0489,34.4497,-0.2542,-0.3989,-0.0734,-44.9621
16:35:09:866,-1.0546,3.0921,12.606,34.4726,-0.1818,-0.4458,-0.0201,-44.9621
16:35:09:886,-1.4405,2.9701,13.8736,34.5672,-0.0624,-0.3478,0.0225,-44.9621
16:35:09:905,-1.651,2.9294,14.6662,34.5249,0.0292,-0.1145,0.1067,-44.9621
16:35:09:925,-1.9627,3.14,15.0233,34.3982,0.1121,0.1719,0.2451,-44.9621
16:35:09:946,-2.2911,3.6766,15.2842,34.2524,0.2144,0.4361,0.4016,-44.9621
16:35:09:966,-1.7737,4.0289,15.3853,34.1502,0.3731,0.6917,0.6327,-44.9621
16:35:09:987,-1.2538,4.005,14.6303,33.9768,0.5883,0.8525,0.7968,-44.9621
16:35:10:007,-1.7204,3.6,13.2748,33.902,0.7767,0.8471,0.6849,-44.9621
16:35:10:027,-2.2283,2.7015,11.4658,33.8769,0.8981,0.6513,0.4453,-44.9621
16:35:10:078,-2.5424,2.2445,9.0849,34.0832,1.0696,0.4382,0.343,-44.9621
16:35:10:080,-2.5543,2.3091,7.4465,34.5577,1.1186,0.1996,0.3324,-44.9621
16:35:10:091,-2.0991,2.1075,7.4082,34.5636,0.7437,-0.1688,0.2877,-44.9621
16:35:10:107,-1.4309,1.523,7.4704,34.8139,0.0951,-0.4234,0.1823,-44.9621
16:35:10:128,-1.1001,0.9793,7.5135,35.0525,-0.4363,-0.3744,0.0406,-44.9621
16:35:10:148,-0.9494,0.469,7.748,35.3186,-0.809,-0.2306,-0.1288,-44.9621
16:35:10:167,-1.0475,0.2584,7.7456,35.4976,-1.0306,-0.0804,-0.231,-44.9621
16:35:10:188,-1.1336,0.2465,7.7815,35.424,-1.0413,0.0644,-0.1948,-44.9621
16:35:10:208,-0.9494,0.009,7.4273,35.5131,-0.8357,0.073,-0.0553,-44.9621
16:35:10:229,-0.7723,0.0981,7.008,35.3414,-0.4513,0.0123,0.1354,-44.9621
16:35:10:248,-0.7675,0.6778,6.4235,35.4485,-0.0241,0.008,0.3739,-44.9621
16:35:10:269,-0.9374,1.5733,5.3312,35.5606,0.3539,0.1325,0.5901,-44.9621
16:35:10:288,-1.1264,2.4096,4.337,35.4573,0.5148,0.2294,0.6509,-45.0676
16:35:10:309,-1.1001,2.6201,4.7827,35.5654,0.2644,0.0282,0.555,-45.1897
16:35:10:329,-1.1121,2.7039,6.0832,35.7532,-0.1775,-0.2029,0.4304,-45.3242
16:35:10:349,-1.069,2.8385,7.8317,36.0659,-0.4811,-0.3212,0.3334,-45.4663
16:35:10:369,-1.2084,2.9749,9.0969,36.1242,-0.5726,-0.3403,0.2281,-45.6137
16:35:10:390,-1.8455,3.0395,9.7531,36.0336,-0.4992,-0.2413,0.1088,-45.762
16:35:10:410,-2.3222,3.3416,10.4572,36.1409,-0.3586,-0.237,0.047,-45.9092
16:35:10:430,-2.1565,3.5498,12.1149,36.1378,-0.2318,-0.4756,0.1088,-46.0504
16:35:10:450,-1.0307,3.5569,13.5452,36.407,-0.1455,-0.7727,0.2526,-46.1864
16:35:10:470,0.1286,3.734,14.053,36.3277,-0.0262,-0.7098,0.409,-46.3222
16:35:10:491,0.6054,3.8662,14.4867,36.0735,0.0292,-0.3915,0.4218,-46.4636
16:35:10:510,0.5384,3.926,14.8223,35.7632,-0.0379,-0.0474,0.2664,-46.6121
16:35:10:531,0.3488,3.993,14.3073,35.6526,-0.0422,0.2443,0.1035,-46.7628
16:35:10:551,0.8734,3.2985,14.1631,35.9128,0.0196,0.2965,-0.0595,-46.9084
16:35:10:571,1.2951,1.9041,15.0042,35.873,-0.0209,0.0644,-0.3363,-47.0435
16:35:10:591,0.4499,0.5623,14.2881,35.8892,0.0047,0.073,-0.6953,-47.1606
16:35:10:611,-0.3314,-0.4289,11.732,35.783,0.3358,0.4734,-0.8965,-47.1606
16:35:10:636,-0.2022,-0.6688,9.4612,36.1073,0.7351,0.6268,-0.756,-47.1606
16:35:10:652,0.4259,-0.2136,8.4838,36.1334,0.8545,0.2774,-0.4652,-47.1606
16:35:10:672,0.8614,0.4307,8.1984,36.3932,0.6522,-0.1039,-0.3076,-47.1606
16:35:10:697,0.548,0.795,7.4201,36.5006,0.372,-0.0431,-0.3459,-47.1606
16:35:10:713,-0.0508,0.9577,6.5001,36.315,0.1909,0.2656,-0.4929,-47.1606
16:35:10:732,-0.4558,1.118,5.7529,36.3736,0.0876,0.4137,-0.5664,-47.1606
16:35:10:753,-0.6257,1.3914,5.403,36.4662,0.0398,0.3945,-0.5249,-47.1606
16:35:10:773,-0.652,1.4656,5.1972,36.4495,0.0089,0.3828,-0.4493,-47.0702
16:35:10:792,-0.6329,1.5972,4.6558,36.0388,-0.0071,0.5,-0.3651,-46.9626
16:35:10:813,-0.7244,2.0357,4.3298,36.001,-0.0156,0.6204,-0.2758,-46.8418
16:35:10:838,-0.8871,2.5484,4.3753,36.0094,-0.0305,0.4957,-0.23,-46.7122
16:35:10:860,-1.0953,2.8361,4.8568,35.8813,-0.071,0.1964,-0.2608,-46.5746
16:35:10:877,-1.2084,2.9533,5.9109,35.8878,-0.1381,-0.1848,-0.3406,-46.4283
16:35:10:899,-1.395,3.0491,7.2497,35.8061,-0.2052,-0.5065,-0.412,-46.2725
16:35:10:917,-1.7785,3.3176,8.2128,35.6719,-0.2063,-0.5479,-0.3928,-46.1034
16:35:10:939,-2.1206,3.9236,8.3252,35.417,-0.1487,-0.2338,-0.2001,-45.9233
16:35:10:957,-2.1063,4.7234,8.6895,35.4739,-0.1839,0.1474,0.1237,-45.7376
16:35:10:979,-1.8814,5.2265,10.1557,35.6399,-0.3714,0.2252,0.36,-45.5582
16:35:10:998,-1.7904,5.2696,11.9641,35.6115,-0.5162,0.0506,0.3803,-45.3931
16:35:11:018,-1.7306,4.3645,13.1474,35.6036,-0.4332,-0.1369,0.2387,-45.2442
16:35:11:040,-2.19,3.6814,14.2421,35.4188,-0.2073,-0.2807,0.0555,-45.1049
16:35:11:059,-2.6166,3.4995,14.875,35.3555,-0.0369,-0.3425,0.0076,-44.9679
16:35:11:080,-2.3414,3.5282,14.7212,35.5872,0.0558,-0.1316,0.2089,-44.8315
16:35:11:101,-1.8479,3.4756,14.9444,35.6838,0.0302,0.1463,0.4634,-44.7023
16:35:11:120,-1.8742,2.9342,15.0999,35.5808,-0.0838,0.2593,0.4868,-44.5884
16:35:11:140,-2.6237,2.2397,13.5093,35.6448,0.0217,0.3892,0.3835,-44.4914
16:35:11:160,-3.28,2.0812,10.4046,35.6352,0.4413,0.6193,0.4186,-44.4914
16:35:11:178,-2.9234,2.3163,7.815,36.0643,0.8033,0.6619,0.6626,-44.4914
16:35:11:199,-1.9771,2.4359,7.6427,36.0928,0.6989,0.1069,0.8085,-44.4914
16:35:11:221,-1.1456,1.6839,8.9198,36.1845,0.2154,-0.6885,0.5944,-44.4914
16:35:11:240,-1.0355,0.7424,9.4439,36.1934,-0.1807,-0.9719,0.2132,-44.4914
16:35:11:261,-1.3017,-0.0461,9.3171,36.1302,-0.3469,-0.777,-0.1032,-44.4914
16:35:11:281,-1.3591,-0.5037,8.951,36.1236,-0.4236,-0.5916,-0.2459,-44.4914
16:35:11:301,-1.0116,-0.6138,8.2702,36.0967,-0.4172,-0.4895,-0.1543,-44.4914
16:35:11:321,-0.5563,-0.3595,7.4847,36.2916,-0.3053,-0.3734,0.0896,-44.4914
16:35:11:341,-0.2907,0.0449,6.4331,36.2149,-0.1232,-0.2178,0.3515,-44.4914
16:35:11:360,-0.0748,0.402,5.0554,36.3959,0.0983,-0.041,0.571,-44.4914
16:35:11:383,0.1573,0.9123,3.865,36.336,0.2879,0.0868,0.7521,-44.4914
16:35:11:399,0.3296,1.7916,3.2423,36.3563,0.3039,0.0389,0.8809,-44.4914
16:35:11:419,0.3942,2.817,3.8124,36.6523,0.0313,-0.1656,0.8533,-44.4914
16:35:11:440,0.4086,3.0108,5.1733,37.0233,-0.4321,-0.253,0.6466,-44.4914
16:35:11:458,0.2578,2.7182,6.8237,37.2209,-0.7526,-0.1561,0.3909,-44.5845
16:35:11:481,-0.003,2.8002,8.5244,37.2105,-0.7856,-0.2445,0.1716,-44.6864
16:35:11:499,-0.4175,3.1902,9.9135,37.235,-0.6173,-0.4618,0.015,-44.7903
16:35:11:520,-0.8752,3.2692,11.2576,37.3797,-0.4662,-0.5671,-0.1202,-44.8901
16:35:11:539,-1.5458,3.2668,12.283,37.4941,-0.3447,-0.5138,-0.1863,-44.8901
16:35:11:559,-1.3304,3.5976,12.7167,37.6604,-0.219,-0.3638,-0.0904,-44.8901
16:35:11:581,-0.4391,3.8566,13.0732,37.8227,-0.1924,-0.2551,0.0928,-44.8901
16:35:11:599,0.3033,3.9141,13.9621,37.8141,-0.3458,-0.1997,0.1003,-44.8901
16:35:11:622,0.5432,3.6574,14.9276,38.0597,-0.5406,-0.1092,-0.0893,-44.8901
16:35:11:641,0.3583,3.0108,14.9779,38.3746,-0.5598,0.0517,-0.33,-44.8901
16:35:11:662,0.4038,1.9831,15.4331,38.4943,-0.431,0.1431,-0.56,-44.8901
16:35:11:680,0.5958,0.5025,16.3526,38.5957,-0.3309,-0.0101,-0.756,-44.8901
16:35:11:700,0.2339,-0.6066,15.7274,39.0668,-0.0774,0.0176,-0.8338,-44.8901
16:35:11:721,-0.003,-1.2796,13.4638,39.2962,0.4487,0.3296,-0.723,-44.8901
16:35:11:741,0.3583,-1.3753,11.3175,39.3968,0.9493,0.4425,-0.4557,-44.8901
16:35:11:763,1.1157,-0.92,10.5272,39.5735,1.0622,0.0985,-0.2481,-44.8901
16:35:11:780,1.2544,-0.4726,10.2323,39.4558,0.815,-0.2125,-0.1884,-44.7974
16:35:11:801,0.5862,-0.0987,9.1687,39.5212,0.5776,-0.0644,-0.2577,-44.702
16:35:11:821,0.0401,0.2752,7.2903,39.6781,0.5553,0.3264,-0.2747,-44.602
16:35:11:841,-0.1155,0.8716,5.3767,39.8386,0.6085,0.6214,-0.133,-44.4929
16:35:11:861,0.0544,1.4824,4.0612,39.7401,0.6011,0.6672,0.0502,-44.382
16:35:11:884,0.3751,2.0524,3.7214,39.7168,0.5063,0.4851,0.1493,-44.2771
16:35:11:901,0.3823,2.656,4.0636,39.9268,0.3624,0.2071,0.1003,-44.18
16:35:11:922,0.3248,2.8074,4.2604,39.9395,0.225,0.0921,-0.0691,-44.0889
16:35:11:941,0.1095,3.0012,4.663,40.2889,0.1057,0.1676,-0.2566,-43.997
16:35:11:962,-0.1448,3.1639,5.1105,40.2741,-0.0699,0.3583,-0.4226,-43.8976
16:35:11:983,-0.4367,3.1663,5.2977,40.5247,-0.3053,0.7672,-0.5409,-43.7857
16:35:12:005,-1.0546,3.0443,5.4532,40.652,-0.5024,1.1518,-0.6069,-43.6583
16:35:12:023,-1.7157,3.0634,5.8319,40.7893,-0.5534,1.0186,-0.6506,-43.5144
16:35:12:043,-2.0919,3.3511,6.8309,41.0601,-0.4694,0.3977,-0.6367,-43.3534
16:35:12:095,-2.3079,3.4923,8.2463,41.0531,-0.3511,-0.2977,-0.5345,-43.176
16:35:12:097,-2.528,3.3942,9.9278,41.2105,-0.2286,-0.7066,-0.3822,-42.9842
16:35:12:104,-2.1398,3.1208,11.4371,41.2639,-0.1519,-0.7727,-0.1714,-42.7842
16:35:12:124,-1.6008,3.0538,12.7143,41.5799,-0.1306,-0.68,0.0438,-42.5835
16:35:12:144,-1.1743,2.9318,14.3743,41.5349,-0.2638,-0.5426,0.1045,-42.3901
16:35:12:164,-0.9278,2.467,16.319,41.5068,-0.5173,-0.3776,0.0545,-42.2065
16:35:12:184,-1.2108,2.388,16.5589,41.7355,-0.5098,-0.0623,0.0768,-42.0319
16:35:12:204,-1.6056,2.8935,15.5312,41.9856,-0.1967,0.4222,0.2558,-41.8683
16:35:12:225,-1.8287,2.8409,14.7141,41.9856,0.0238,0.6864,0.409,-41.7208
16:35:12:245,-2.6285,2.345,13.5787,42.2346,0.1025,0.6949,0.3537,-41.5936
16:35:12:266,-3.323,2.1458,11.4945,42.3522,0.3401,0.6864,0.3069,-41.4832
16:35:12:285,-3.2752,2.3976,9.0203,42.3779,0.6852,0.5959,0.4367,-41.3859
16:35:12:305,-2.7338,2.4837,8.0118,42.4902,0.7596,0.2198,0.4889,-41.3859
16:35:12:326,-2.3103,1.5685,8.9342,42.938,0.3742,-0.3648,0.2345,-41.3859
16:35:12:345,-2.4993,0.2752,9.5809,42.9359,-0.1349,-0.6161,-0.1533,-41.3859
16:35:12:367,-2.5304,-0.5157,8.9414,42.8176,-0.3288,-0.4277,-0.3481,-41.3859
16:35:12:386,-2.1182,-0.6784,8.0405,42.9149,-0.2308,-0.2349,-0.2076,-41.3859
16:35:12:406,-1.3519,-0.2183,7.6307,42.892,-0.1381,-0.22,0.1482,-41.3859
16:35:12:426,-0.5539,0.3852,7.3125,42.8365,-0.1477,-0.2743,0.5102,-41.3859
16:35:12:448,-0.1591,0.8931,6.749,43.0298,-0.1242,-0.1646,0.7318,-41.3859
16:35:12:467,0.1143,1.2502,5.9563,43.067,-0.0273,0.0261,0.7925,-41.3859
16:35:12:487,0.0784,1.7007,5.2953,42.7027,0.1079,0.1357,0.7968,-41.3859
16:35:12:507,-0.2166,2.2732,4.9095,42.6228,0.1899,0.0911,0.7457,-41.3859
16:35:12:527,-0.3649,2.6058,4.9143,42.8689,0.1814,-0.057,0.6178,-41.3859
16:35:12:548,-0.4056,2.5914,5.7099,42.922,0.0771,-0.2775,0.4442,-41.489
16:35:12:568,-0.5085,2.3115,7.2042,43.0089,-0.0848,-0.5852,0.2334,-41.6089
16:35:12:588,-0.6018,2.0477,8.9294,43.3521,-0.1743,-0.8206,0.0342,-41.7367
16:35:12:608,-1.069,2.0836,9.801,43.3528,-0.1519,-0.7248,-0.1,-41.8663
16:35:12:628,-1.6152,2.2493,9.9661,43.3379,-0.0603,-0.3435,-0.1138,-41.9933
16:35:12:648,-1.718,2.7954,10.5003,43.5234,-0.0241,-0.1039,-0.0382,-42.1163
16:35:12:668,-1.5577,3.3176,11.3031,43.6415,-0.1274,-0.073,0.0662,-42.2382
16:35:12:689,-1.0355,3.3727,11.7535,43.4832,-0.2787,0.0165,0.1493,-42.3636
16:35:12:709,-0.3386,3.2285,12.9607,43.5688,-0.4065,0.0421,0.1695,-42.4932
16:35:12:729,-0.0078,3.4181,14.1464,43.3432,-0.4406,-0.0836,0.128,-42.6289
16:35:12:749,0.2483,3.5833,13.7492,43.0516,-0.3085,0.0197,0.0768,-42.7694
16:35:12:769,0.8901,3.2237,13.3274,43.0572,-0.2308,0.3264,-0.0265,-42.9135
16:35:12:790,1.3095,1.6499,14.3049,43.1263,-0.4257,0.337,-0.314,-43.058
16:35:12:809,0.7609,-0.1202,15.3344,43.1617,-0.6237,0.1186,-0.7571,-43.1938
16:35:12:830,0.3966,-1.6295,14.8487,43.115,-0.4523,-0.0399,-1.0254,-43.3077
16:35:12:850,0.3799,-2.3815,13.0014,43.0717,0.0696,-0.0858,-0.9391,-43.3077
16:35:12:870,0.8447,-1.6343,10.8885,43.0095,0.5808,-0.0304,-0.5707,-43.3077
16:35:12:890,1.5039,-0.2471,9.0443,43.036,0.8182,0.0804,-0.0585,-43.3077
16:35:12:910,1.5852,1.0319,7.9807,43.0254,0.7032,0.1091,0.1429,-43.3077
16:35:12:931,1.0558,1.4441,8.0022,42.9377,0.3039,0.0772,-0.1415,-43.3077
16:35:12:951,0.253,0.9553,7.6092,42.9189,-0.0145,0.2379,-0.5579,-43.3077
16:35:12:972,-0.4917,0.8524,6.6796,43.0562,0.0057,0.4276,-0.7752,-43.3077
16:35:12:991,-0.7316,1.0582,5.5609,43.1548,0.2091,0.4499,-0.7592,-43.3077
16:35:13:012,-0.8895,1.413,4.6582,43.4724,0.4072,0.3658,-0.625,-43.3077
16:35:13:031,-0.9182,1.8395,4.0205,43.4109,0.5148,0.2145,-0.5004,-43.3077
16:35:13:052,-0.9135,2.3354,3.8028,43.4297,0.5094,0.0144,-0.4237,-43.3077
16:35:13:072,-1.0857,2.6991,4.1049,43.5006,0.3571,-0.2029,-0.4343,-43.3077
16:35:13:092,-0.9111,2.6345,4.9214,43.4477,0.0876,-0.3052,-0.4929,-43.3077
16:35:13:112,-0.9374,2.8863,6.0138,43.4657,-0.1636,-0.2818,-0.5228,-43.215
16:35:13:133,-1.1025,3.3799,7.7073,43.27,-0.3714,-0.2818,-0.559,-43.1107
16:35:13:152,-1.541,3.5067,9.4199,43.1433,-0.5363,-0.3691,-0.625,-42.994
16:35:13:173,-2.0632,3.0179,11.0806,42.9787,-0.5907,-0.3766,-0.6655,-42.863
16:35:13:194,-2.2959,2.5436,12.1872,43.1143,-0.4598,-0.4138,-0.5654,-42.7173
16:35:13:213,-2.1781,2.6297,12.4505,43.3313,-0.0997,-0.3073,-0.2182,-42.5593
16:35:13:233,-1.8024,3.3153,12.0215,43.3374,0.3209,0.0431,0.292,-42.4015
16:35:13:253,-0.8704,3.7412,12.0933,43.3443,0.519,0.2997,0.6338,-42.2605
16:35:13:273,-0.5611,4.0505,13.1163,43.4631,0.3678,0.1858,0.5848,-42.1459
16:35:13:293,-0.8704,4.1821,13.3274,43.3177,0.1526,0.1389,0.3494,-42.1459
16:35:13:314,-1.261,3.9045,12.932,43.4728,0.1366,0.3839,0.2196,-42.1459
16:35:13:334,-1.5817,2.9079,13.4327,43.6184,0.1111,0.3743,0.0981,-42.1459
16:35:13:354,-2.1254,1.995,13.5787,43.6783,0.0462,0.1282,-0.0851,-42.1459
16:35:13:373,-2.8349,1.9543,12.3906,43.7114,0.2272,0.1453,-0.1298,-42.1459
16:35:13:394,-3.2919,2.3139,10.5464,43.8327,0.5233,0.3935,0.0076,-42.1459
16:35:13:414,-3.0957,1.7868,9.8991,43.6635,0.4818,0.3881,0.0715,-42.1459
16:35:13:434,-2.1613,0.5527,10.4237,43.663,-0.0134,-0.041,-0.1149,-42.1459
16:35:13:454,-1.8239,-0.3571,10.4166,43.8057,-0.5067,-0.2743,-0.3449,-42.1459
16:35:13:476,-1.9842,-0.743,9.4367,43.7313,-0.7068,-0.074,-0.4951,-42.1459
16:35:13:496,-2.2092,-0.5898,8.2558,43.5314,-0.6919,0.3178,-0.3864,-42.1459
16:35:13:517,-2.2696,-0.2351,7.748,43.4786,-0.5896,0.4574,0.0023,-42.1459
16:35:13:536,-1.4931,-0.149,7.4154,43.46,-0.3607,0.0953,0.474,-42.1459
16:35:13:557,-0.7268,0.3517,7.1707,43.7318,0.0664,-0.3798,0.8756,-42.1459
16:35:13:577,-0.4415,1.2718,6.9936,43.6973,0.5382,-0.6065,1.1535,-42.1459
16:35:13:597,-0.3721,1.9232,6.9697,43.716,0.8832,-0.6449,1.2696,-42.1459
16:35:13:617,-0.1974,2.0285,6.8285,43.7567,1.0483,-0.7141,1.1599,-42.1459
16:35:13:637,-0.25,2.2128,6.3494,43.6004,1.1612,-0.6033,0.9268,-42.2484
16:35:13:657,-0.4008,2.6441,6.0281,43.5188,1.1932,-0.2487,0.7371,-42.3799
16:35:13:677,-0.4175,2.9725,6.0951,43.4135,0.9663,0.0815,0.6136,-42.5361
16:35:13:697,-0.6622,2.8146,6.795,43.423,0.4796,0.3083,0.4282,-42.7116
16:35:13:718,-0.7842,2.6776,7.6786,43.4093,0.0782,0.4489,0.2483,-42.8991
16:35:13:738,-0.8225,3.0706,8.3109,43.6219,0.0132,0.4648,0.227,-43.0915
16:35:13:757,-0.8512,3.667,8.5436,43.6075,0.1292,0.4521,0.2643,-43.2876
16:35:13:778,-0.8608,4.2323,9.1328,43.6935,0.1313,0.3828,0.2164,-43.4883
16:35:13:798,-0.9302,4.2514,10.1031,43.9598,-0.0891,0.1623,0.0864,-43.6936
16:35:13:817,-1.0355,4.06,11.4897,44.0373,-0.4001,-0.0559,-0.0254,-43.8992
16:35:13:838,-0.5348,4.2969,13.0277,44.2622,-0.6535,-0.1699,0.0246,-44.1021
16:35:13:858,0.1023,4.2778,13.9119,44.1406,-0.8048,-0.0208,0.2025,-44.3049
16:35:13:878,0.5886,3.5641,14.7212,44.4195,-0.9113,0.3029,0.2377,-44.5146
16:35:13:898,0.5312,2.3115,15.7992,44.303,-0.956,0.3168,0.0225,-44.7332
16:35:13:919,-0.1448,0.8524,15.4594,44.4939,-0.7068,0.0815,-0.3108,-44.9535
16:35:13:939,-0.6646,-0.3141,13.3131,44.5706,-0.0316,-0.0208,-0.4908,-45.1632
16:35:13:959,-0.6449,-0.4361,10.8814,44.6814,0.7511,0.0186,-0.3736,-45.3558
16:35:13:979,0.0233,0.2297,8.7446,44.7721,1.2401,0.0165,-0.1085,-45.5323
16:35:13:999,0.6963,0.9649,7.2999,44.799,1.2017,-0.1518,0.063,-45.6995
16:35:14:019,0.603,1.3244,6.7011,44.9387,0.6682,-0.2008,-0.051,-45.8637
16:35:14:040,0.2028,1.1952,6.2752,44.8766,-0.0678,0.1346,-0.3246,-46.0222
16:35:14:060,-0.317,1.3244,5.9539,44.9387,-0.6482,0.5969,-0.4557,-46.1675
16:35:14:106,-0.7292,1.6762,5.863,44.8985,-0.922,0.7246,-0.4535,-46.2965
16:35:14:109,-0.8249,1.8491,6.0568,45.0175,-0.9337,0.4925,-0.3843,-46.4108
16:35:14:120,-0.7388,2.0644,6.2943,44.994,-0.7505,0.0613,-0.282,-46.5132
16:35:14:140,-0.5372,2.5268,6.7466,45.0959,-0.463,-0.3808,-0.1714,-46.6075
16:35:14:160,-0.3314,2.9749,7.3603,45.1525,-0.1818,-0.6118,-0.0862,-46.6075
16:35:14:180,-0.5994,3.0514,7.5087,45.2276,0.0792,-0.4863,-0.083,-46.6075
16:35:14:200,-0.9781,2.8696,7.3095,45.2457,0.2847,-0.2636,-0.1256,-46.6075
16:35:14:220,-1.0546,2.9916,7.5781,45.1938,0.3891,-0.2264,-0.0893,-46.6075
16:35:14:241,-0.8536,3.3224,8.342,45.071,0.3678,-0.3063,0.0491,-46.6075
16:35:14:261,-0.8082,3.7555,9.4152,44.9364,0.2708,-0.2594,0.1844,-46.6075
16:35:14:281,-0.868,3.8058,10.3017,44.8448,0.2218,-0.0889,0.2515,-46.6983
16:35:14:306,-0.789,3.8973,10.8503,44.8076,0.3209,0.0368,0.2675,-46.7962
16:35:14:326,-0.8177,4.4435,11.0345,44.7465,0.4892,0.1336,0.2888,-46.9018
16:35:14:344,-0.8512,4.5775,11.059,44.8754,0.5467,0.2188,0.2387,-47.0149
16:35:14:365,-1.1623,4.3065,11.0782,44.9805,0.421,0.2603,0.0481,-47.1336
16:35:14:386,-1.7061,4.453,11.126,45.1375,0.2176,0.3477,-0.0883,-47.2513
16:35:14:405,-1.9555,4.8455,10.7856,45.2937,0.0302,0.4893,-0.0116,-47.3638
16:35:14:427,-1.8861,4.8503,10.7258,45.4022,-0.12,0.5618,0.1248,-47.475
16:35:14:445,-1.9149,4.0146,11.5854,45.4592,-0.3064,0.2188,0.0875,-47.5894
16:35:14:466,-2.3797,2.8528,12.0981,45.5327,-0.3586,-0.3702,-0.1064,-47.7065
16:35:14:485,-3.1507,2.1601,11.5831,45.581,-0.1019,-0.7077,-0.1959,-47.8195
16:35:14:506,-3.1962,1.8156,9.9805,45.4989,0.2975,-0.5415,-0.0212,-47.924
16:35:14:526,-2.5352,1.7533,8.8235,45.4998,0.3955,-0.2285,0.2728,-48.0239
16:35:14:547,-2.2116,1.3842,9.5569,45.5341,-0.1061,-0.2913,0.3409,-48.1296
16:35:14:566,-2.2211,0.1866,10.7641,45.5877,-0.824,-0.4522,0.162,-48.2449
16:35:14:586,-2.1087,-0.5013,11.3222,45.5226,-1.1158,-0.4863,0.0395,-48.3655
16:35:14:606,-1.8526,-0.5085,11.0758,45.5522,-0.9763,-0.3616,0.1514,-48.4876
16:35:14:625,-1.3065,0.0909,9.9446,45.4112,-0.6333,-0.0868,0.4932,-48.6153
16:35:14:646,-0.7268,1.0439,8.7541,45.4916,-0.2521,0.1261,0.8991,-48.7597
16:35:14:667,-0.3553,2.0644,7.5685,45.5486,0.1015,0.206,1.2068,-48.935
16:35:14:687,-0.274,2.8672,6.1573,45.4679,0.4285,0.353,1.2888,-49.15
16:35:14:707,-0.3266,3.4277,4.9525,45.439,0.6394,0.614,1.1908,-49.4047
16:35:14:726,-0.463,3.4756,4.7539,45.5241,0.6288,0.5841,0.9257,-49.6941
16:35:14:747,-0.7364,3.2022,5.6207,45.6469,0.4679,0.1559,0.555,-50.0073
16:35:14:766,-0.8417,2.9055,6.6078,45.5652,0.3592,-0.1752,0.3048,-50.332
16:35:14:786,-0.8584,2.7446,7.2616,45.8251,0.3465,-0.1507,0.1855,-50.6578
16:35:14:806,-0.9733,2.5579,7.7192,45.7719,0.2921,0.0644,0.0949,-50.98
16:35:14:827,-1.1001,2.3043,8.589,45.744,0.1142,0.1932,0.0193,-51.2963
16:35:14:847,-1.0522,2.3186,9.7938,45.7941,-0.0614,0.1218,-0.0116,-51.6061
16:35:14:867,-0.8489,2.4885,10.6277,45.7768,-0.0891,0.0485,0.0491,-51.909
16:35:14:889,-0.7651,2.6919,10.5942,45.6965,-0.0007,0.1367,0.1652,-52.2081
16:35:14:907,-0.5396,3.0514,10.5147,45.7876,0.027,0.2923,0.2984,-52.507
16:35:14:928,0.0688,3.4684,10.9077,46.111,-0.1019,0.2316,0.4762,-52.8114
16:35:14:946,0.6772,4.2538,12.0024,46.0854,-0.2957,-0.0591,0.6114,-53.1284
16:35:14:969,1.1755,4.6612,12.9655,46.1921,-0.4907,-0.3457,0.4836,-53.4619
16:35:14:988,1.7408,4.2395,13.5595,46.3878,-0.6578,-0.3457,0.1876,-53.8068
16:35:15:007,2.0207,3.3416,15.0042,46.4335,-0.8261,-0.3244,-0.1628,-54.1522
16:35:15:028,1.5326,2.4861,16.0319,46.4125,-0.873,-0.3808,-0.5547,-54.4865
16:35:15:048,0.6054,1.5589,14.2349,46.3752,-0.4907,-0.074,-0.8082,-54.7959
16:35:15:068,-0.0221,1.0726,11.1332,46.3424,0.1846,0.4563,-0.8072,-55.071
16:35:15:088,-0.2213,0.9888,9.0538,46.0528,0.5808,0.5767,-0.658,-55.3121
16:35:15:108,-0.1639,0.5551,8.9821,45.9027,0.4828,0.073,-0.6165,-55.5241
16:35:15:129,-0.0317,-0.0461,9.3601,45.8559,0.2506,-0.6214,-0.6644,-55.7092
16:35:15:150,-0.207,-0.0628,8.7182,45.6426,0.2751,-0.8739,-0.673,-55.8671
16:35:15:169,-0.4487,0.1579,7.4201,45.446,0.3774,-0.6097,-0.5984,-55.9987
16:35:15:189,-0.6066,0.2489,6.3805,45.4535,0.2517,-0.1571,-0.5057,-56.1068
16:35:15:210,-0.667,0.2632,5.8367,45.3268,-0.0518,0.2348,-0.4194,-56.1068
16:35:15:229,-0.5803,0.3565,5.8056,45.2033,-0.3415,0.4798,-0.3246,-56.1068
16:35:15:249,-0.5827,0.7663,5.851,45.1918,-0.5269,0.5682,-0.2481,-56.1068
16:35:15:269,-0.6497,1.5398,5.202,45.1122,-0.4992,0.6076,-0.181,-56.1068
16:35:15:290,-0.9541,2.5125,4.2197,44.9199,-0.2542,0.6023,-0.1309,-56.1068
16:35:15:310,-1.1647,3.4971,3.9894,44.9004,-0.0273,0.3477,-0.1405,-56.1068
16:35:15:331,-0.9063,3.7101,4.4901,44.9691,-0.0326,-0.1529,-0.2012,-56.1068
16:35:15:351,-0.5994,3.6742,6.2847,44.9054,-0.2286,-0.5873,-0.3044,-56.1068
16:35:15:370,-0.655,3.6933,8.7541,44.8776,-0.4694,-0.7482,-0.4248,-56.1068
16:35:15:392,-0.9781,3.6287,10.7258,44.675,-0.5459,-0.598,-0.4716,-56.1068
16:35:15:411,-1.5242,3.6526,11.0489,44.3139,-0.3565,-0.2306,-0.4429,-56.1068
16:35:15:431,-1.8,4.005,10.7761,44.1608,-0.0465,0.1644,-0.2916,-56.1068
16:35:15:451,-1.6128,4.0935,11.5472,44.2702,0.059,0.2646,-0.0766,-56.1068
16:35:15:472,-1.2156,3.8638,13.3035,44.2491,-0.1306,0.1112,0.03,-56.1068
16:35:15:492,-0.9948,3.9547,15.2124,44.2432,-0.3224,0.0282,0.0395,-56.1068
16:35:15:513,-0.99,4.0026,16.2832,44.2027,-0.3075,0.1304,-0.019,-56.1068
16:35:15:533,-1.1575,3.5019,16.13,44.3392,-0.1061,0.3892,-0.1224,-56.1068
16:35:15:553,-1.5721,2.5436,16.0319,44.3518,0.0803,0.5543,-0.2788,-56.1068
16:35:15:573,-2.0776,1.0822,15.7011,44.5896,0.1995,0.4712,-0.4557,-56.1068
16:35:15:594,-2.7362,-0.0485,14.1296,44.7454,0.5137,0.4382,-0.5473,-56.1068
16:35:15:612,-3.1531,-0.0891,11.7153,44.5693,1.0515,0.647,-0.4067,-56.1068
16:35:15:633,-3.2632,0.2895,9.5593,44.5628,1.4626,0.8141,-0.0904,-56.1068
16:35:15:653,-3.0742,0.6371,8.1888,44.5826,1.4189,0.6715,0.1194,-56.1068
16:35:15:674,-2.799,0.7567,7.2233,44.4469,0.9748,0.4744,0.1823,-56.1068
16:35:15:693,-2.7171,0.9936,6.4331,44.4669,0.4306,0.517,0.2387,-56.1068
16:35:15:713,-2.4395,1.1396,6.3709,44.3622,-0.0188,0.468,0.3483,-56.1068
16:35:15:734,-1.934,1.0367,6.536,44.4515,-0.2755,0.0762,0.4836,-56.1068
16:35:15:754,-1.261,0.9721,6.3565,44.5623,-0.3085,-0.3616,0.5944,-56.1068
16:35:15:774,-0.6329,1.0415,5.9013,44.585,-0.219,-0.5746,0.6924,-56.1068
16:35:15:794,-0.3529,1.3125,5.6471,44.6248,-0.1178,-0.6353,0.7521,-56.1068
16:35:15:814,-0.2835,1.5206,5.5753,44.5546,-0.055,-0.6374,0.7329,-56.1068
16:35:15:834,-0.2812,1.7486,5.6901,44.7038,-0.0241,-0.5044,0.6807,-56.2115
16:35:15:856,-0.6018,2.1745,5.8319,44.9997,-0.0177,-0.2189,0.6551,-56.3427
16:35:15:876,-1.0499,2.5316,5.7601,44.983,-0.0486,0.0623,0.6413,-56.4986
16:35:15:897,-1.0786,2.6321,6.1621,45.1375,-0.137,0.1708,0.6232,-56.6758
16:35:15:918,-0.9517,2.793,7.2473,45.3633,-0.2616,0.0133,0.5795,-56.8741
16:35:15:937,-0.9206,2.939,8.7159,45.3892,-0.3405,-0.269,0.4602,-57.0917
16:35:15:956,-1.1264,3.0227,9.9206,45.4082,-0.3213,-0.4245,0.2718,-57.3243
16:35:15:977,-1.651,3.2046,10.3137,45.4545,-0.219,-0.2999,0.1077,-57.5646
16:35:15:997,-1.7378,3.2548,10.3998,45.5582,-0.1306,-0.0101,0.0513,-57.8062
16:35:16:016,-1.3687,3.4923,10.9819,45.8771,-0.2084,0.1016,0.1056,-58.046
16:35:16:036,-0.7531,3.6335,12.6156,45.9514,-0.4513,-0.1081,0.1205,-58.286
16:35:16:056,-0.1831,3.1089,14.3408,45.8441,-0.7206,-0.3893,-0.0403,-58.5274
16:35:16:076,0.0712,2.9821,14.7858,45.9174,-0.7547,-0.3606,-0.1873,-58.7657
16:35:16:119,0.2052,2.9438,14.0985,45.8991,-0.5035,0.0282,-0.1948,-58.9957
16:35:16:121,0.3727,2.4814,14.2062,45.9246,-0.3383,0.2465,-0.2417,-59.2177
16:35:16:136,0.1358,1.3196,14.8319,45.97,-0.4108,0.0581,-0.4652,-59.4296
16:35:16:156,-0.3625,0.0933,13.8951,45.8683,-0.267,0.0708,-0.6229,-59.6238
16:35:16:177,-0.5922,-0.6449,11.6172,45.543,0.1877,0.2901,-0.5611,-59.7961
16:35:16:197,-0.2979,-0.5898,9.9278,45.6033,0.5094,0.2092,-0.347,-59.948
16:35:16:218,0.2171,-0.2782,9.2979,45.4788,0.4296,-0.2775,-0.0691,-60.0862
16:35:16:238,0.4014,-0.0293,9.2213,45.2796,0.126,-0.6566,0.0928,-60.2208
16:35:16:258,0.5432,0.079,9.1352,45.2124,-0.0838,-0.6129,0.1109,-60.3591
16:35:16:277,0.6078,0.213,8.1864,45.1734,-0.0561,-0.2999,0.1184,-60.5005
16:35:16:298,0.615,0.603,6.6532,45.1756,0.1398,0.0826,0.1599,-60.6447
16:35:16:318,0.5719,1.2383,5.6471,45.2038,0.2815,0.2688,0.1972,-60.7943
16:35:16:338,0.6413,1.6714,5.1488,45.1252,0.2101,0.1794,0.1365,-60.9496
16:35:16:358,0.8351,1.9543,4.9214,45.195,0.0494,0.1218,0.0332,-61.1074
16:35:16:379,0.7226,2.4455,4.8616,45.2601,-0.0348,0.1442,-0.0648,-61.2653
16:35:16:398,0.4014,2.6967,4.7037,45.3256,-0.039,0.1474,-0.2268,-61.4192
16:35:16:419,-0.0939,2.7523,4.718,45.414,-0.0358,0.0815,-0.4365,-61.5636
16:35:16:439,-0.652,2.6656,5.1972,45.4334,-0.1264,-0.0698,-0.6101,-61.6914
16:35:16:459,-1.1695,2.5436,5.9157,45.4967,-0.2893,-0.2104,-0.6666,-61.7961
16:35:16:480,-1.2371,2.5723,7.7695,45.512,-0.4928,-0.3031,-0.5824,-61.7961
16:35:16:500,-1.0116,2.6656,10.1988,45.5706,-0.6578,-0.4735,-0.3992,-61.7961
16:35:16:521,-1.2323,2.9198,11.7847,45.6117,-0.5598,-0.481,-0.2065,-61.7961
16:35:16:541,-1.2586,3.0634,12.079,45.5228,-0.2425,-0.253,-0.0318,-61.7961
16:35:16:560,-0.8489,3.3607,11.7918,45.5429,0.0983,0.0293,0.1791,-61.7961
16:35:16:580,-0.3314,3.7651,12.1077,45.5347,0.2463,0.1378,0.3293,-61.7961
16:35:16:600,-0.0652,3.6694,13.0349,45.7808,0.1409,-0.0112,0.2473,-61.7961
16:35:16:621,-0.2764,3.3918,13.7611,45.5116,-0.0273,-0.1507,-0.0063,-61.7961
16:35:16:641,-0.5922,3.5043,13.3083,45.4954,-0.0177,-0.0016,-0.1,-61.7961
16:35:16:661,-0.5539,3.5306,12.7382,45.6278,0.1547,0.3328,0.0257,-61.7961
16:35:16:681,-0.1998,2.6058,13.5619,45.3904,0.0983,0.2838,0.015,-61.7961
16:35:16:701,-0.4678,1.3914,14.525,45.5549,-0.1328,-0.025,-0.2566,-61.8902
16:35:16:722,-1.1862,0.1675,14.0746,45.6621,-0.0838,-0.074,-0.5206,-61.8902
16:35:16:742,-1.6056,-0.5515,12.6323,45.6594,0.2549,0.0154,-0.5845,-61.8902
16:35:16:761,-1.2682,-0.5946,11.5519,45.4095,0.5403,0.0282,-0.3885,-61.8902
16:35:16:782,-0.5659,-0.2997,10.7833,45.2976,0.5499,-0.0698,-0.0957,-61.8902
16:35:16:802,-0.0867,-0.1035,9.8082,45.2044,0.3539,-0.0453,0.0811,-61.8902
16:35:16:822,-0.2333,0.0233,8.6967,44.8247,0.0739,0.2241,0.113,-61.8902
16:35:16:843,-0.5492,-0.0939,7.9878,44.8201,-0.1967,0.4297,0.0704,-61.8902
16:35:16:863,-0.4032,-0.1083,7.4178,44.4764,-0.332,0.3274,0.1237,-61.8902
16:35:16:883,0.0544,0.2919,6.8261,44.2934,-0.251,0.1165,0.3473,-61.8902
16:35:16:903,0.6078,0.9864,6.2148,44.0276,-0.0465,-0.0783,0.604,-61.8902
16:35:16:923,0.9284,1.6259,5.8223,43.8406,0.1686,-0.2285,0.735,-62.0005
16:35:16:944,0.7681,2.117,5.415,43.8189,0.323,-0.3244,0.6871,-62.1359
16:35:16:964,0.4642,2.278,5.0267,43.8498,0.3987,-0.3542,0.5124,-62.2937
16:35:16:984,0.0329,2.3043,5.0818,43.8632,0.3592,-0.3712,0.3069,-62.4661
16:35:17:004,-0.2142,2.3019,5.616,43.6116,0.1718,-0.3979,0.1397,-62.6453
16:35:17:025,-0.3793,2.3163,6.3972,43.4783,-0.0646,-0.3052,0.0459,-62.8263
16:35:17:044,-0.4869,2.2588,7.5135,43.1217,-0.2957,-0.1465,-0.0382,-63.0053
16:35:17:065,-0.5324,2.0907,8.8283,42.9105,-0.4768,-0.0634,-0.1383,-63.1797
16:35:17:085,-1.002,2.388,9.7843,42.6979,-0.4726,0.0293,-0.2129,-63.3457
16:35:17:105,-1.6271,2.8241,10.3017,42.5879,-0.317,0.2103,-0.231,-63.5014
16:35:17:125,-1.6678,3.0156,10.7258,42.2796,-0.1881,0.3061,-0.1991,-63.6454
16:35:17:145,-1.0427,3.2572,11.2457,42.2231,-0.1871,0.2177,-0.1383,-63.7789
16:35:17:166,-0.5803,3.6455,12.1514,42.1862,-0.2766,0.0325,-0.1043,-63.9044
16:35:17:185,-0.1759,3.4708,13.4064,42.1117,-0.4438,-0.2274,-0.1959,-64.0238
16:35:17:206,0.1262,3.1974,14.0889,42.0933,-0.5683,-0.335,-0.3044,-64.1333
16:35:17:226,0.6461,3.0945,14.5035,41.9855,-0.5226,-0.2051,-0.282,-64.2292
16:35:17:246,1.2616,2.5388,15.4881,41.7278,-0.4726,-0.2008,-0.2937,-64.2292
16:35:17:267,1.0319,1.212,16.523,41.3437,-0.5395,-0.2881,-0.5164,-64.2292
16:35:17:286,0.186,-0.5492,15.5145,41.1635,-0.43,-0.0549,-0.7848,-64.2292
16:35:17:306,-0.5898,-1.4782,12.7669,40.6583,0.0855,0.4414,-0.7614,-64.2292
16:35:17:326,-0.4343,-1.4255,10.2203,40.528,0.7149,0.7704,-0.3459,-64.2292
16:35:17:348,0.5575,-0.5348,8.8164,40.2804,1.0696,0.5959,0.1865,-64.2292
16:35:17:367,1.3789,0.3757,7.928,40.0539,1.076,0.1197,0.4282,-64.2292
16:35:17:387,1.1372,0.9721,7.3173,39.9702,0.8853,-0.106,0.2409,-64.2292
16:35:17:407,0.5288,0.8094,6.9841,39.9356,0.5489,-0.1166,-0.1352,-64.2292
16:35:17:428,0.2315,0.3446,6.7322,39.8765,0.1792,-0.0421,-0.379,-64.2292
16:35:17:447,0.1406,0.3685,6.9027,39.7669,-0.0944,-0.0517,-0.4173,-64.2292
16:35:17:467,0.2794,0.5934,6.9817,39.8775,-0.2201,-0.1624,-0.3363,-64.2292
16:35:17:487,0.2746,0.9242,6.4881,39.5205,-0.1583,-0.1411,-0.2342,-64.2292
16:35:17:508,0.2411,1.3531,5.5872,39.2475,0.0185,0.0165,-0.149,-64.2292
16:35:17:532,0.2841,1.8897,4.8162,39.0989,0.1696,0.1858,-0.0393,-64.2292
16:35:17:552,0.3081,2.522,4.5835,38.9391,0.1846,0.2103,0.015,-64.2292
16:35:17:574,0.3751,2.8911,4.9908,38.9212,0.0419,0.074,-0.0776,-64.2292
16:35:17:593,0.3248,3.0347,5.997,38.7457,-0.1743,-0.0431,-0.2747,-64.2292
16:35:17:613,0.1095,3.1137,7.9137,38.5241,-0.4097,-0.1561,-0.4791,-64.2292
16:35:17:632,-0.655,2.994,9.4319,38.2245,-0.5342,-0.1827,-0.6176,-64.2292
16:35:17:653,-1.6463,2.8002,10.6301,38.1298,-0.5088,-0.0602,-0.6346,-64.1158
16:35:17:673,-1.867,2.5747,11.3007,38.3671,-0.4289,0.0804,-0.4301,-63.9811
16:35:17:693,-1.596,2.8983,11.6243,38.2567,-0.2563,0.2667,-0.0095,-63.8323
16:35:17:713,-1.0307,3.2213,11.9928,38.0637,-0.0326,0.3445,0.425,-63.6843
16:35:17:732,-0.3984,3.3607,12.5342,37.9421,0.1324,0.2273,0.6615,-63.5518
16:35:17:753,-0.2931,3.5258,12.9368,37.9569,0.2091,0.0762,0.6381,-63.4444
16:35:17:772,-0.53,3.588,13.2389,37.9597,0.2059,-0.0559,0.4751,-63.4444
16:35:17:795,-0.8608,3.4732,13.5691,37.8212,0.1313,-0.1198,0.3505,-63.4444
16:35:17:813,-0.6401,2.8911,14.2977,38.0364,0.0047,-0.1337,0.2941,-63.4444
16:35:17:833,-0.7196,2.0907,14.9444,37.8466,-0.0987,-0.2253,0.1983,-63.4444
16:35:17:851,-1.3878,1.1252,14.3097,37.9567,0.0164,-0.2658,0.0587,-63.4444
16:35:17:873,-2.1589,0.6203,12.4241,37.9979,0.4328,-0.1518,0.03,-63.4444
16:35:17:893,-2.3844,0.7759,10.4429,38.1437,0.9013,0.0101,0.1908,-63.4444
16:35:17:914,-1.8814,1.0391,9.6646,38.3259,1.0441,-0.1081,0.3867,-63.4444
16:35:17:933,-1.0953,0.9051,9.9135,38.4513,0.7479,-0.5044,0.4208,-63.4444
16:35:17:954,-0.655,0.7496,9.6407,38.6187,0.3166,-0.5033,0.3048,-63.4444
16:35:17:974,-0.5731,0.6538,9.0132,38.2976,0.0015,-0.0559,0.1652,-63.4444
16:35:17:996,-0.6718,0.4881,8.4407,38.4001,-0.2116,0.2965,0.047,-63.4444
16:35:18:015,-0.8154,0.4116,7.7384,38.4258,-0.2851,0.4148,-0.0126,-63.4444
16:35:18:035,-0.6622,0.4522,6.8572,38.5457,-0.1871,0.3679,0.0129,-63.4444
16:35:18:054,-0.597,0.7424,5.942,38.6301,0.0281,0.1996,0.0917,-63.4444
16:35:18:074,-0.4917,1.0869,5.1464,38.4044,0.2847,0.0229,0.2068,-63.4444
16:35:18:094,-0.4247,1.5829,4.5715,38.1659,0.5052,-0.0879,0.3622,-63.4444
16:35:18:144,-0.5994,2.0477,4.6534,38.1597,0.567,-0.1869,0.4463,-63.4444
16:35:18:146,-0.7914,1.8682,5.2786,38.3934,0.4019,-0.3403,0.359,-63.4444
16:35:18:153,-1.0451,1.7127,6.2656,38.3454,0.0897,-0.3925,0.194,-63.4444
16:35:18:174,-1.0786,1.657,7.3196,38.2626,-0.2222,-0.2487,0.128,-63.4444
16:35:18:195,-0.7172,1.5517,8.3779,38.2365,-0.43,-0.0506,0.1525,-63.4444
16:35:18:214,-0.667,1.6959,9.3601,38.2256,-0.5088,0.0836,0.1663,-63.4444
16:35:18:235,-0.4989,1.9615,9.9541,38.117,-0.4555,0.2092,0.145,-63.4444
16:35:18:254,-0.5228,2.4503,10.3687,38.2927,-0.3511,0.3146,0.1141,-63.4444
16:35:18:278,-0.3936,2.805,10.5751,38.5409,-0.2766,0.2529,0.0534,-63.4444
16:35:18:296,-0.2644,3.2333,10.8455,38.6921,-0.2616,0.1208,-0.0393,-63.4444
16:35:18:319,-0.1567,3.4588,11.5113,38.9582,-0.349,0.0091,-0.1064,-63.4444
16:35:18:337,-0.207,3.5426,12.2806,39.2159,-0.4939,-0.0474,-0.1373,-63.4444
16:35:18:360,-0.1035,3.3631,12.7214,39.3801,-0.58,-0.0314,-0.1948,-63.4444
16:35:18:377,0.3033,2.8026,13.9478,39.618,-0.6184,-0.1284,-0.3012,-63.4444
16:35:18:397,0.4379,1.9831,15.5719,39.6815,-0.6812,-0.4383,-0.4855,-63.4444
16:35:18:416,0.2148,1.1593,15.8136,39.8219,-0.5459,-0.5106,-0.6485,-63.3501
16:35:18:438,-0.1974,0.74,13.8138,39.8788,-0.039,-0.122,-0.576,-63.2307
16:35:18:456,0.0999,0.5264,11.406,39.887,0.5659,0.3551,-0.2927,-63.0891
16:35:18:477,0.8375,0.3541,10.4405,39.7638,0.7809,0.2379,-0.0744,-62.9351
16:35:18:496,1.2138,-0.1131,10.3519,39.8001,0.5361,-0.2999,-0.165,-62.7802
16:35:18:519,0.9745,-0.4917,9.8058,39.5585,0.1984,-0.3521,-0.3523,-62.6216
16:35:18:536,0.4235,-0.4409,8.4072,39.8361,0.0292,0.0879,-0.3875,-62.4529
16:35:18:556,0.2267,0.1149,6.9697,39.8746,-0.0071,0.5256,-0.2395,-62.2703
16:35:18:580,0.2171,1.0702,6.0616,39.9292,-0.0411,0.631,-0.0233,-62.0787
16:35:18:597,0.2339,1.7629,5.7864,39.9394,-0.072,0.4382,0.0822,-61.8868
16:35:18:618,0.2219,1.9328,5.8869,39.9076,-0.0326,0.0346,0.0406,-61.7012
16:35:18:637,-0.0437,2.062,5.6327,40.2206,0.1419,-0.2604,-0.0691,-61.5173
16:35:18:657,-0.341,2.1386,4.8688,40.2395,0.3454,-0.2722,-0.1479,-61.3309
16:35:18:677,-0.5994,2.3258,4.0612,40.4939,0.4008,-0.0921,-0.1469,-61.1383
16:35:18:697,-1.1169,2.5196,4.1551,40.3885,0.1792,0.041,-0.1586,-60.9409
16:35:18:718,-1.2538,2.3306,5.6806,40.5152,-0.2744,-0.0889,-0.2332,-60.7382
16:35:18:738,-1.2227,2.2851,7.6738,40.622,-0.6674,-0.2668,-0.2619,-60.5273
16:35:18:758,-1.1312,2.3091,9.4008,40.5734,-0.7973,-0.237,-0.2246,-60.3085
16:35:18:778,-1.5386,2.4742,10.2993,40.7869,-0.6833,-0.0186,-0.1756,-60.0825
16:35:18:799,-2.0656,2.4718,10.6851,40.5821,-0.4651,0.2166,-0.0893,-59.8543
16:35:18:818,-2.19,2.2708,11.0058,40.5815,-0.267,0.2912,0.0566,-59.6237
16:35:18:839,-1.8072,1.9615,11.665,40.7762,-0.1413,0.1527,0.2473,-59.3957
16:35:18:860,-1.2849,1.9065,12.6491,41,-0.0987,-0.1284,0.4048,-59.1766
16:35:18:880,-1.1049,1.8275,13.7683,41.1035,-0.0891,-0.2583,0.5134,-58.9723
16:35:18:900,-1.6152,1.8395,14.3145,41.4156,-0.0593,-0.073,0.6274,-58.7866
16:35:18:920,-2.0177,1.8251,14.01,41.3839,0.0004,0.3487,0.8138,-58.6232
16:35:18:940,-1.8072,1.928,14.0387,41.6143,-0.0124,0.6491,0.9756,-58.4873
16:35:18:960,-1.9005,2.0692,13.8951,41.8103,-0.1061,0.6459,1.0108,-58.3843
16:35:18:980,-1.7856,1.6863,13.1809,42.2037,-0.0965,0.598,0.9916,-58.3843
16:35:19:000,-1.529,1.142,13.0923,42.5381,0.0121,0.3338,0.965,-58.3843
16:35:19:021,-1.4524,0.457,12.5916,42.8162,0.1664,-0.0953,0.8447,-58.3843
16:35:19:041,-1.3017,0.213,11.6554,43.0014,0.3752,-0.2391,0.7233,-58.3843
16:35:19:061,-1.0714,0.2273,10.8048,43.0916,0.4818,-0.2146,0.7031,-58.3843
16:35:19:081,-1.0666,0.0568,9.655,43.6146,0.4402,-0.0676,0.6477,-58.3843
16:35:19:101,-0.9805,-0.0843,8.4503,43.7684,0.3433,0.1826,0.5507,-58.3843
16:35:19:121,-0.8106,-0.0197,7.6116,44.3094,0.2549,0.3498,0.5273,-58.3843
16:35:19:141,-0.3099,-0.003,6.9553,44.5047,0.2304,0.3019,0.5944,-58.4751
16:35:19:161,0.131,0.2273,6.0903,44.5359,0.3571,0.2049,0.6732,-58.5801
16:35:19:181,0.4594,0.8524,5.0483,44.8274,0.5574,0.2337,0.7031,-58.7015
16:35:19:202,0.344,1.6546,4.1623,44.8819,0.6628,0.2827,0.6349,-58.8394
16:35:19:222,0.0329,2.1984,3.5127,45.0817,0.5904,0.2933,0.4591,-58.991
16:35:19:243,-0.2524,2.4096,3.8602,45.1735,0.3198,0.1698,0.2526,-59.1495
16:35:19:262,-0.4439,2.4,4.9382,45.3856,-0.0667,-0.0794,0.1003,-59.3079
16:35:19:283,-0.4654,2.412,5.9444,45.4601,-0.3724,-0.2264,0.0246,-59.4617
16:35:19:303,-0.5946,2.479,7.3412,45.5932,-0.5619,-0.2828,-0.0361,-59.6087
16:35:19:323,-0.9135,2.1721,8.5579,45.6977,-0.6791,-0.3297,-0.1607,-59.7495
16:35:19:344,-1.5218,1.9424,9.7053,45.8189,-0.6833,-0.3585,-0.2852,-59.8801
16:35:19:364,-2.0632,1.9161,10.3926,46.469,-0.564,-0.3787,-0.298,-59.9943
16:35:19:384,-2.3127,2.3833,10.3711,46.4902,-0.3639,-0.2498,-0.1565,-60.0918
16:35:19:403,-2.3797,3.1926,10.3543,46.6741,-0.1999,0.0123,0.1003,-60.0918
16:35:19:424,-2.0512,3.6814,10.9962,46.8462,-0.2276,0.0634,0.2728,-60.0918
16:35:19:444,-1.1336,3.6574,12.4409,46.8794,-0.4044,-0.2285,0.2526,-60.1835
16:35:19:464,-0.5276,3.1831,14.5442,47.067,-0.5576,-0.6587,0.0395,-60.2781
16:35:19:485,-0.7771,2.522,16.1133,47.2056,-0.5853,-0.8579,-0.2842,-60.3683
16:35:19:505,-1.014,2.3521,15.5647,47.3214,-0.4459,-0.4586,-0.4098,-60.3683
16:35:19:525,-0.0772,1.9472,15.9242,47.1186,-0.4097,0.0517,-0.282,-60.3683
16:35:19:544,0.9236,0.9553,17.342,47.2118,-0.6301,0.0996,-0.2598,-60.3683
16:35:19:565,0.6628,-0.1083,16.2951,47.4203,-0.5502,0.3136,-0.3981,-60.3683
16:35:19:586,-0.1448,-1.1958,13.2269,47.5094,0.0537,0.8716,-0.4759,-60.3683
16:35:19:605,-0.2309,-1.9119,10.5631,47.5634,0.681,1.0442,-0.3502,-60.3683
16:35:19:625,0.658,-1.4231,9.1878,47.5997,0.978,0.598,0.0033,-60.3683
16:35:19:645,1.6881,-0.3811,8.3856,47.6758,1.0004,0.0666,0.3771,-60.3683
16:35:19:666,1.5733,0.2249,7.5757,47.6927,0.8768,-0.1294,0.3888,-60.3683
16:35:19:686,0.5838,0.4427,6.7155,47.8578,0.6394,-0.0027,0.0939,-60.3683
16:35:19:706,-0.3266,0.7256,5.796,47.9777,0.3965,0.2614,-0.1053,-60.3683
16:35:19:726,-0.8369,1.0654,4.8042,47.9402,0.2463,0.4936,-0.1085,-60.3683
16:35:19:746,-0.9087,1.4943,3.9248,48.1383,0.176,0.5788,-0.0073,-60.3683
16:35:19:767,-0.3912,1.9663,3.5605,48.3717,0.126,0.4382,0.1365,-60.3683
16:35:19:787,0.2171,2.3904,3.4241,48.3343,0.0728,0.1346,0.2473,-60.3683
16:35:19:807,0.6293,2.7326,3.9846,48.3924,0.0238,-0.1262,0.2047,-60.3683
16:35:19:827,0.7729,2.6345,4.6606,48.3657,-0.0944,-0.2807,-0.0372,-60.3683
16:35:19:848,0.5862,2.4431,5.0267,48.3886,-0.2308,-0.1561,-0.3566,-60.3683
16:35:19:868,0.4235,2.4574,6.2028,48.4965,-0.4502,-0.0517,-0.5845,-60.3683
16:35:19:888,-0.128,2.5651,7.6953,48.5129,-0.7089,-0.1156,-0.6634,-60.3683
16:35:19:908,-0.6646,2.3737,9.6072,48.3491,-0.8548,-0.188,-0.6644,-60.3683
16:35:19:928,-0.7699,2.074,11.6578,48.3507,-0.8335,-0.302,-0.5526,-60.3683
16:35:19:949,-0.652,2.4479,12.6419,48.4682,-0.5907,-0.3137,-0.2747,-60.3683
16:35:19:969,-0.2788,3.2692,12.5294,48.4844,-0.1913,-0.0549,0.113,-60.2755
16:35:19:988,0.2363,4.0026,12.6419,48.7768,0.1142,0.1836,0.3526,-60.2755
16:35:20:009,0.4235,4.0792,13.727,48.9913,0.1036,0.0602,0.2185,-60.2755
16:35:20:029,-0.0078,3.4636,14.7811,49.2219,-0.0688,-0.0953,-0.1735,-60.2755
16:35:20:049,-0.9087,2.927,14.93,49.3289,-0.1274,0.0538,-0.4684,-60.2755
16:35:20:069,-1.2754,2.9414,14.1894,49.6091,-0.022,0.4148,-0.4269,-60.1848
16:35:20:089,-0.4965,2.5914,14.616,49.6749,0.0675,0.4851,-0.198,-60.0817
16:35:20:109,-0.1615,1.1665,15.9697,49.8387,-0.0049,0.0613,-0.2555,-59.9735
16:35:20:163,-0.5755,-0.6736,14.9898,50.2049,0.1505,-0.1859,-0.5718,-59.8591
16:35:20:165,-1.608,-1.471,12.0168,50.2939,0.7405,0.041,-0.7358,-59.729
16:35:20:175,-1.9196,-1.1886,9.3673,50.2853,1.2859,0.2848,-0.5824,-59.5753
16:35:20:190,-1.0235,-0.652,8.9318,50.3151,1.2912,-0.0602,-0.2884,-59.4021
16:35:20:209,0.1167,-0.5252,9.9565,50.3241,0.8023,-0.7535,-0.2033,-59.2196
16:35:20:230,0.3272,-0.7836,10.1318,50.123,0.2442,-0.8856,-0.4141,-59.0335
16:35:20:250,-0.2692,-1.0977,9.2261,50.048,-0.088,-0.4256,-0.6964,-58.8386
16:35:20:273,-0.6742,-1.0881,7.8197,49.7096,-0.1764,-0.0133,-0.7614,-58.6265
16:35:20:292,-0.6861,-0.5587,6.0425,49.347,-0.0475,0.2092,-0.5025,-58.395
16:35:20:311,-0.3912,0.2106,4.6439,49.0801,0.1771,0.2614,-0.0723,-58.1534
16:35:20:333,0.0497,0.9649,3.9488,49.0354,0.3294,0.108,0.3387,-57.9165
16:35:20:352,0.2913,1.7653,3.92,48.6815,0.3838,-0.1987,0.5177,-57.698
16:35:20:372,0.3559,2.4263,4.3609,48.5332,0.3603,-0.5298,0.4485,-57.5032
16:35:20:393,0.0903,2.4766,4.6146,48.4621,0.2857,-0.6044,0.2558,-57.3292
16:35:20:413,-0.4989,2.3569,5.3575,48.378,0.143,-0.5149,0.0161,-57.1688
16:35:20:432,-0.9637,2.0094,6.3135,48.7774,-0.0433,-0.5202,-0.1479,-57.013
16:35:20:453,-1.4668,2.1458,7.413,48.7831,-0.1466,-0.4948,-0.1447,-56.8562
16:35:20:473,-1.8,2.4909,8.1338,48.8862,-0.1754,-0.3222,-0.0318,-56.6986
16:35:20:493,-1.7641,3.0945,8.3492,48.7017,-0.1349,0.0442,0.1578,-56.5442
16:35:20:513,-0.9541,3.9643,9.0251,48.9746,-0.1083,0.2635,0.375,-56.3995
16:35:20:534,-0.3936,5.5023,10.0983,49.0849,-0.1391,0.1154,0.4495,-56.2711
16:35:20:557,-0.0532,6.1202,11.2289,49.3022,-0.251,-0.1401,0.1951,-56.1623
16:35:20:573,0.1023,4.9346,12.8124,49.3872,-0.5184,-0.383,-0.3704,-56.0626
16:35:20:594,-0.3984,3.3033,14.7236,49.246,-0.8335,-0.5128,-0.8817,-55.9518
16:35:20:614,-0.9374,2.747,15.9912,49.2759,-0.9891,-0.4128,-0.9636,-55.8125
16:35:20:634,-0.5994,3.1017,16.0989,49.2664,-0.8751,-0.0495,-0.592,-55.6429
16:35:20:655,0.6485,3.0514,16.6188,49.4785,-0.6716,0.2166,-0.1895,-55.4572
16:35:20:674,1.9035,1.727,17.991,49.7574,-0.5928,-0.0229,-0.1969,-55.2698
16:35:20:694,1.6187,-0.2495,17.6943,49.9759,-0.3778,-0.2967,-0.5888,-55.081
16:35:20:714,0.4014,-2.2092,15.0784,49.8309,0.1728,-0.1124,-1.035,-54.8774
16:35:20:737,-0.2189,-3.076,12.079,50.0529,0.7639,0.2401,-1.1149,-54.6447
16:35:20:757,0.1908,-2.4508,9.8536,50.1692,1.06,0.4009,-0.6815,-54.3808
16:35:20:778,0.8877,-0.9942,8.4072,50.1067,1.0249,0.4318,-0.0755,-54.1015
16:35:20:796,0.7944,0.1795,7.6235,49.9669,0.7639,0.5192,0.1855,-53.8281
16:35:20:816,0.3464,0.2249,6.7681,49.4107,0.4519,0.6055,-0.0169,-53.5697
16:35:20:836,-0.2381,0.3446,5.6112,49.0563,0.3497,0.6502,-0.2502,-53.3186
16:35:20:857,-0.4893,0.9434,4.797,49.0031,0.4189,0.5703,-0.2044,-53.0661
16:35:20:877,-0.4487,1.6211,4.6241,48.6651,0.4967,0.3178,0.0193,-52.8119
16:35:20:896,-0.1059,2.0357,4.3992,48.6043,0.5595,0.0133,0.2217,-52.5637
16:35:20:917,0.1932,2.5795,3.9224,48.4617,0.6469,-0.1124,0.3069,-52.3289
16:35:20:936,0.3416,3.195,3.6473,48.2099,0.6405,-0.1049,0.2728,-52.1107
16:35:20:956,0.1908,3.6383,3.9918,48.2489,0.4391,-0.1049,0.112,-51.907
16:35:20:976,-0.2094,3.4181,4.8975,48.2838,0.0855,-0.1188,-0.1746,-51.713
16:35:21:001,-0.6598,2.9294,5.5418,48.3518,-0.218,-0.0644,-0.4493,-51.5176
16:35:21:017,-0.923,2.8098,6.5121,48.2797,-0.3639,-0.0112,-0.5281,-51.312
16:35:21:042,-0.9111,2.994,7.7767,48.277,-0.4481,-0.106,-0.4418,-51.0936
16:35:21:062,-1.2299,3.2405,9.5737,48.3583,-0.4949,-0.2519,-0.3672,-50.8666
16:35:21:077,-1.2586,3.0586,10.9268,48.1189,-0.4481,-0.4043,-0.364,-50.6332
16:35:21:101,-0.9924,2.8146,11.8947,48.3349,-0.2489,-0.4565,-0.3257,-50.3941
16:35:21:118,-0.8752,2.8361,12.9105,48.2602,-0.1306,-0.4138,-0.2545,-50.1505
16:35:21:141,-0.9374,2.8217,14.3671,48.2946,-0.2467,-0.2221,-0.2023,-49.9045
16:35:21:158,-1.1695,2.6967,15.0114,48.2667,-0.4289,0.108,-0.1543,-49.6591
16:35:21:181,-1.7157,3.3918,13.9525,48.3218,-0.3437,0.6694,0.0055,-49.4161
16:35:21:202,-1.8144,4.4459,12.6688,48.5265,-0.0795,1.1742,0.3272,-49.1808
16:35:21:221,-1.3639,4.5775,13.0947,48.5106,-0.0369,1.0058,0.5188,-48.964
16:35:21:243,-1.4285,3.1974,14.2636,48.6897,-0.2063,0.3019,0.3027,-48.7714
16:35:21:261,-1.8957,1.8203,13.7294,48.659,-0.0901,-0.1688,0.0097,-48.596
16:35:21:282,-2.4443,1.2814,11.9928,48.8518,0.3763,-0.1742,0.0513,-48.4261
16:35:21:302,-2.3079,1.2048,10.1079,49.1371,0.7628,0.0336,0.3059,-48.2619
16:35:21:320,-1.675,1.0726,9.6024,49.0829,0.7437,-0.1443,0.4783,-48.1106
16:35:21:343,-0.8871,0.3661,10.1246,48.9088,0.3443,-0.6417,0.3814,-47.9778
16:35:21:363,-0.3888,-0.2614,9.9637,48.7325,-0.0518,-0.712,0.2292,-47.8613
16:35:21:382,-0.4032,-0.5276,8.9701,48.5044,-0.2126,-0.269,0.1759,-47.7576
16:35:21:404,-0.5013,-0.5252,7.602,48.4075,-0.2286,0.2433,0.1844,-47.6649
16:35:21:421,-0.4774,-0.3619,6.402,48.3377,-0.185,0.5192,0.2686,-47.6649
16:35:21:440,-0.329,-0.1298,5.6949,47.9522,-0.1029,0.4158,0.3782,-47.6649
16:35:21:462,-0.1878,0.2776,5.5035,47.6651,0.0121,0.1048,0.4506,-47.6649
16:35:21:481,-0.0772,0.8094,5.2762,47.6414,0.1601,-0.1571,0.473,-47.6649
16:35:21:503,0.0544,1.4776,4.9406,47.5773,0.3102,-0.2232,0.5113,-47.6649
16:35:21:520,0.0736,2.1075,4.5787,47.3917,0.3454,-0.1571,0.5273,-47.6649
16:35:21:541,0.0185,2.4718,4.7659,47.3108,0.1547,-0.1273,0.4144,-47.6649
16:35:21:564,-0.0676,2.5555,6.0449,47.1969,-0.2297,-0.2349,0.2132,-47.6649
16:35:21:582,-0.3027,2.4622,7.9783,47.1274,-0.5917,-0.4043,-0.0158,-47.6649
16:35:21:601,-0.4319,1.8634,9.2453,47.1136,-0.7462,-0.4831,-0.2704,-47.6649
16:35:21:622,-0.8154,1.928,10.0337,47.1987,-0.6578,-0.417,-0.4386,-47.6649
16:35:21:642,-1.651,2.7087,10.0863,47.134,-0.4236,-0.204,-0.4216,-47.6649
16:35:21:664,-1.7258,3.2213,9.8201,47.2331,-0.2233,0.0048,-0.2767,-47.6649
16:35:21:682,-1.3519,3.7244,10.5488,47.1194,-0.2744,-0.0176,-0.1415,-47.6649
16:35:21:703,-1.0618,3.6766,12.4241,47.1712,-0.6173,-0.2977,-0.1937,-47.6649
16:35:21:723,-0.9111,2.6943,14.4676,47.0616,-1.0253,-0.4799,-0.4024,-47.6649
16:35:21:743,-0.3051,2.0572,16.9711,46.7884,-1.2606,-0.4415,-0.4972,-47.6649
16:35:21:765,1.1707,1.6546,19.5625,46.5472,-1.2307,-0.5309,-0.3779,-47.6649
16:35:21:783,2.1147,0.7113,20.1691,46.1556,-0.8165,-0.6331,-0.3491,-47.6649
16:35:21:804,1.2329,-0.0365,17.7278,46.0002,-0.0859,-0.1475,-0.543,-47.6649
16:35:21:824,-0.0772,-0.7214,13.4447,45.7672,0.7085,0.8375,-0.6208,-47.562
16:35:21:844,-0.4056,-1.148,9.8608,45.7644,1.2805,1.4851,-0.3694,-47.4425
16:35:21:865,-0.128,-0.7693,8.5579,45.3186,1.4029,1.2146,-0.0648,-47.3142
16:35:21:885,0.6413,-0.5898,9.4875,45.1753,1.0483,0.2593,-0.0233,-47.1864
16:35:21:905,1.0989,-0.8291,9.7149,45.0498,0.5936,-0.2999,-0.1543,-47.0613
16:35:21:931,0.7274,-0.6999,8.8355,45.0257,0.3486,-0.024,-0.2895,-46.9347
16:35:21:944,-0.0221,-0.1753,7.3843,44.8154,0.2325,0.4616,-0.3459,-46.8032
16:35:21:966,-0.9039,0.524,5.7888,44.6549,0.2122,0.8588,-0.3012,-46.6649
16:35:21:986,-1.5075,1.0606,4.5236,44.4393,0.2815,1.0357,-0.1842,-46.5209
16:35:22:005,-1.3639,1.4991,3.8004,43.9938,0.4104,0.8386,0.0182,-46.3744
16:35:22:031,-0.88,1.8395,3.5803,43.8045,0.584,0.402,0.2696,-46.2315
16:35:22:046,-0.8393,2.668,3.0263,43.6725,0.7809,0.1208,0.4335,-46.1004
16:35:22:066,-0.8225,3.5641,2.4347,43.5206,0.8821,0.0495,0.4517,-45.9862
16:35:22:086,-0.5252,3.6981,3.2183,43.3994,0.6351,-0.2189,0.3186,-45.8875
16:35:22:107,-0.1107,3.0299,5.4724,43.3567,0.1505,-0.4884,0.0182,-45.8875
16:35:22:126,-0.0102,2.6058,8.2439,43.2309,-0.2819,-0.5618,-0.2905,-45.8875
16:35:22:177,-0.7603,2.6776,9.9517,43.128,-0.5077,-0.4032,-0.4823,-45.792
16:35:22:179,-1.733,2.8146,10.5194,43.1689,-0.4971,-0.0836,-0.4514,-45.6851
16:35:22:186,-1.6822,2.9055,10.9268,43.2275,-0.3192,0.0794,-0.1181,-45.5677
16:35:22:206,-0.7125,3.4181,11.4754,43.2083,-0.0561,-0.1049,0.3856,-45.4509
16:35:22:230,0.277,4.1773,12.0718,43.1767,0.1782,-0.3457,0.7616,-45.3525
16:35:22:247,0.749,4.7713,13.145,43.0118,0.2208,-0.4437,0.7808,-45.3525
16:35:22:267,0.198,4.5081,13.8712,42.9683,0.094,-0.3883,0.4474,-45.3525
16:35:22:287,-0.734,4.2156,13.3346,42.8767,0.1068,-0.0772,0.0939,-45.3525
16:35:22:308,-1.5936,4.599,12.4385,42.7617,0.3049,0.3189,0.0779,-45.3525
16:35:22:332,-1.9196,5.0518,11.7057,42.5174,0.4264,0.6044,0.324,-45.3525
16:35:22:348,-1.8144,4.6301,11.8277,42.3994,0.323,0.5501,0.474,-45.3525
16:35:22:367,-1.7474,3.6144,11.7918,42.1713,0.2282,0.1879,0.3686,-45.3525
16:35:22:388,-1.7761,2.5436,11.15,42.0291,0.3433,-0.106,0.1961,-45.3525
16:35:22:409,-2.1159,1.9615,10.261,41.8766,0.5084,-0.2359,0.0566,-45.3525
16:35:22:432,-2.1876,1.6738,9.5617,41.5129,0.5073,-0.2668,-0.0222,-45.3525
16:35:22:449,-2.0728,1.279,9.1591,41.2994,0.2836,-0.286,-0.0457,-45.3525
16:35:22:469,-1.4477,0.8668,9.3171,40.9623,-0.0742,-0.3361,-0.0595,-45.3525
16:35:22:489,-0.9111,0.6682,9.4199,40.8333,-0.4087,-0.3734,-0.0276,-45.3525
16:35:22:509,-0.6885,0.7232,8.9749,40.7341,-0.5779,-0.2541,0.0044,-45.3525
16:35:22:534,-0.542,0.8979,7.8389,40.5635,-0.5758,0.0133,0.0609,-45.3525
16:35:22:550,-0.2716,1.0726,6.5934,40.4369,-0.4875,0.2912,0.1834,-45.3525
16:35:22:574,-0.1591,1.1761,6.052,40.2433,-0.4182,0.337,0.3059,-45.3525
16:35:22:590,-0.1639,1.3172,6.4092,40.2573,-0.3671,0.0123,0.324,-45.3525
16:35:22:610,-0.1352,1.4704,6.5958,39.9447,-0.2414,-0.4256,0.2505,-45.3525
16:35:22:631,-0.1926,1.5541,6.591,39.8097,0.0025,-0.4852,0.2302,-45.4457
16:35:22:651,-0.4487,2.0094,6.6844,39.7848,0.2133,-0.2754,0.275,-45.5452
16:35:22:671,-0.5755,2.3163,6.9242,39.502,0.2495,-0.1507,0.3112,-45.6517
16:35:22:691,-0.5587,2.3306,7.3986,39.2229,0.1366,-0.22,0.2739,-45.7663
16:35:22:711,-0.3649,2.4239,7.94,39.0304,0.0153,-0.253,0.2036,-45.8872
16:35:22:734,-0.2213,2.8074,8.7302,38.8795,-0.0603,-0.1827,0.1961,-46.0119
16:35:22:752,-0.408,3.1472,9.195,38.5198,-0.1178,-0.0698,0.2004,-46.1407
16:35:22:773,-0.6909,3.5115,9.5186,38.6203,-0.1168,0.0357,0.1663,-46.2733
16:35:22:794,-0.6018,3.9428,9.9589,38.7075,-0.0678,0.0474,0.1578,-46.408
16:35:22:812,0.1573,4.0457,10.8311,38.7222,-0.0763,-0.0581,0.1887,-46.5446
16:35:22:836,0.8734,3.8423,12.5342,38.7402,-0.1786,-0.3403,0.1439,-46.6835
16:35:22:853,1.264,3.2213,13.6768,38.8041,-0.2585,-0.5884,-0.0414,-46.8234
16:35:22:873,0.7825,3.0179,13.5667,38.6232,-0.2073,-0.3776,-0.1703,-46.9582
16:35:22:893,0.1908,2.9964,12.6275,38.5402,-0.1221,0.141,-0.2023,-47.0841
16:35:22:913,0.5192,2.6177,13.2269,38.4363,-0.2286,0.2731,-0.2905,-47.2005
16:35:22:936,0.6126,1.7486,14.3264,38.2847,-0.5098,-0.0794,-0.4908,-47.3029
16:35:22:953,0.1358,1.267,13.5165,38.0573,-0.5141,-0.0229,-0.6378,-47.3029
16:35:22:973,0.0185,0.807,11.665,37.7784,-0.1402,0.4158,-0.5334,-47.3029
16:35:22:993,0.2219,0.6275,10.3424,37.5919,0.2378,0.5756,-0.3608,-47.3029
16:35:23:013,0.2913,0.7783,10.2897,37.2688,0.3465,0.1751,-0.364,-47.3029
16:35:23:035,0.1478,0.5791,10.0457,37.3105,0.2591,-0.2871,-0.4642,-47.3029
16:35:23:054,-0.329,0.5862,8.7589,37.0613,0.224,-0.2413,-0.5707,-47.3029
16:35:23:076,-0.6353,0.7807,6.9051,37.1031,0.2762,0.0666,-0.5558,-47.3029
16:35:23:095,-0.4702,1.1713,5.4676,37.0537,0.3145,0.2348,-0.3545,-47.3029
16:35:23:116,0.1358,1.6307,4.8401,36.9243,0.3039,0.1836,-0.0776,-47.3029
16:35:23:136,0.5934,2.3402,4.8401,36.9143,0.273,0.0644,0.0683,-47.3029
16:35:23:156,0.725,2.817,4.7659,37.0277,0.208,0.0101,-0.0201,-47.3029
16:35:23:177,0.5671,2.9366,4.8233,36.8205,0.1089,0.1016,-0.2257,-47.3029
16:35:23:196,0.0353,2.9653,5.1876,36.9961,-0.0145,0.1772,-0.4738,-47.3029
16:35:23:217,-0.6473,2.7787,5.5896,36.8244,-0.1487,0.1527,-0.723,-47.3029
16:35:23:236,-1.2323,2.4431,6.0616,36.5922,-0.2723,0.0985,-0.8626,-47.1924
16:35:23:256,-1.3328,2.2445,7.1085,36.3779,-0.3937,-0.0091,-0.7848,-47.0533
16:35:23:275,-1.194,2.6154,8.3372,36.1767,-0.4491,-0.0996,-0.5238,-46.8898
16:35:23:296,-1.0044,3.2692,9.2836,36.1319,-0.3895,-0.0655,-0.2055,-46.7114
16:35:23:317,-0.8082,3.746,10.1438,36.0266,-0.2755,-0.0069,0.0417,-46.5294
16:35:23:336,-0.6233,3.6742,11.2289,36.0748,-0.1583,-0.0815,0.128,-46.3531
16:35:23:357,-0.7484,3.4229,12.3165,35.9344,-0.0507,-0.269,0.0513,-46.1855
16:35:23:378,-0.9541,3.2865,13.3322,36.2261,-0.0081,-0.3638,-0.0893,-46.0225
16:35:23:401,-1.6367,3.1232,13.483,36.2736,-0.0369,-0.2125,-0.2268,-45.859
16:35:23:417,-3.2273,2.8361,12.7789,36.429,-0.1413,0.2561,-0.413,-45.6897
16:35:23:438,-4.3795,2.4766,12.0407,36.3761,-0.3224,0.7172,-0.4482,-45.5086
16:35:23:458,-4.4447,1.9113,12.4217,36.4328,-0.5024,0.8003,-0.2097,-45.3136
16:35:23:477,-4.0158,0.9338,13.1737,36.3935,-0.6141,0.4925,0.0523,-45.1138
16:35:23:497,-3.7137,0.4427,12.944,36.3272,-0.4949,0.2561,0.2814,-44.921
16:35:23:517,-3.0981,0.5288,11.665,36.4232,-0.1338,0.3466,0.6157,-44.7427
16:35:23:538,-1.9268,0.6849,10.9244,36.4139,0.159,0.3477,0.9469,-44.5882
16:35:23:559,-0.6598,0.7543,11.272,36.5161,0.1206,-0.1092,1.0182,-44.4676
16:35:23:580,-0.0915,0.3087,11.9809,36.2484,-0.1562,-0.5426,0.7979,-44.4676
16:35:23:601,-0.1591,-0.2016,11.799,36.5327,-0.3799,-0.5405,0.4975,-44.4676
16:35:23:618,-0.3888,-0.4385,10.474,36.6648,-0.3394,-0.1933,0.3473,-44.4676
16:35:23:638,-0.3458,-0.2853,8.601,36.8709,-0.1178,0.19,0.4527,-44.4676
16:35:23:659,0.0951,0.0425,7.2042,36.9288,0.1153,0.3221,0.718,-44.4676
16:35:23:678,0.5264,0.6873,6.6532,36.9102,0.2208,0.1304,0.9321,-44.4676
16:35:23:702,0.7418,1.0726,6.3326,36.9723,0.2186,-0.1561,0.9703,-44.4676
16:35:23:719,0.6772,1.3914,5.9013,36.9867,0.2506,-0.2903,0.9086,-44.4676
16:35:23:741,0.4714,1.9448,5.6399,37.3309,0.3774,-0.2999,0.8831,-44.572
16:35:23:761,0.332,2.278,5.3192,37.4513,0.4924,-0.2359,0.8469,-44.7002
16:35:23:780,0.0736,2.5053,5.2355,37.2938,0.47,-0.1348,0.6999,-44.851
16:35:23:802,-0.1902,2.7422,5.6566,37.384,0.2719,-0.073,0.4996,-45.0182
16:35:23:820,-0.2572,2.9892,6.335,37.6132,0.0281,0.0133,0.3632,-45.1943
16:35:23:840,-0.5635,3.207,7.1515,37.6288,-0.1509,0.1218,0.2324,-45.3743
16:35:23:862,-0.6138,2.994,8.3731,37.7334,-0.2553,0.1176,0.0438,-45.5535
16:35:23:881,-0.8249,3.1472,9.6909,37.8588,-0.2606,-0.0879,-0.1373,-45.7256
16:35:23:903,-1.0379,3.1878,10.2969,37.7934,-0.1871,-0.2764,-0.2704,-45.8842
16:35:23:921,-0.3147,2.9533,10.922,37.7738,-0.1679,-0.3574,-0.315,-46.0237
16:35:23:941,0.591,3.0873,11.6243,38.017,-0.2712,-0.4426,-0.3087,-46.1438
16:35:23:962,1.0247,3.4636,11.9115,38.0964,-0.4704,-0.4373,-0.4045,-46.2453
16:35:23:981,1.386,3.6526,12.2375,38.022,-0.7281,-0.3723,-0.625,-46.2453
16:35:24:004,2.0692,2.6824,12.1944,38.1509,-0.8144,-0.4639,-0.869,-46.2453
16:35:24:021,2.1194,1.3555,14.7787,38.1281,-0.7643,-1.023,-1.1756,-46.2453
16:35:24:041,1.9872,-0.4845,18.2836,38.0751,-0.9837,-1.6386,-1.5238,-46.2453
16:35:24:062,0.9236,-2.269,17.9456,38.1252,-0.9742,-1.1454,-1.7273,-46.2453
16:35:24:082,-0.1663,-2.7912,14.9827,38.1101,-0.447,0.057,-1.5728,-46.0935
16:35:24:104,-0.1543,-2.2642,12.2231,37.9623,0.1409,0.9558,-0.9125,-45.8889
16:35:24:122,0.5432,-1.2891,10.218,37.8866,0.5084,1.0879,-0.1799,-45.6574
16:35:24:142,1.2425,-0.3667,8.5675,37.7983,0.665,0.8631,0.2324,-45.4256
16:35:24:163,1.523,0.1962,6.941,37.7186,0.6947,0.7449,0.2526,-45.2082
16:35:24:215,1.1228,0.5791,6.1693,37.9217,0.6064,0.517,-0.0031,-45.005
16:35:24:218,0.883,0.0233,6.2919,37.8682,0.3848,0.09,-0.3332,-44.8065
16:35:24:223,0.2411,-0.1609,6.6293,37.9531,0.1153,-0.1539,-0.5686,-44.6009
16:35:24:243,-0.4534,0.0449,6.1047,37.9684,-0.0624,0.0549,-0.6005,-44.3777
16:35:24:263,-0.8847,0.4451,5.2546,38.0325,-0.055,0.4542,-0.4365,-44.1382
16:35:24:283,-0.8369,0.9984,4.809,37.9087,0.0366,0.5138,-0.1969,-43.8885
16:35:24:305,-0.8489,1.7294,5.2116,38.0605,0.094,0.1815,0.0161,-43.6346
16:35:24:325,-0.5492,2.0955,6.1119,38.1093,0.0473,-0.2711,0.1258,-43.3832
16:35:24:345,-0.1615,2.5723,7.4824,37.839,-0.0252,-0.5001,0.1844,-43.1379
16:35:24:365,-0.0987,3.0538,8.8307,37.7953,-0.0912,-0.4373,0.1951,-42.9003
16:35:24:385,-0.4152,3.2937,9.8513,37.7965,-0.1072,-0.1273,0.113,-42.6719
16:35:24:405,-0.6598,2.9127,10.7043,37.8701,-0.0752,0.1016,0.0129,-42.4496
16:35:24:426,-0.7962,2.5962,11.126,37.8265,0.0876,0.0794,-0.0063,-42.2283
16:35:24:445,-0.6329,2.3641,11.3916,38.0381,0.322,-0.0495,0.0822,-42.0074
16:35:24:466,-0.274,2.4,11.6267,37.9881,0.4722,-0.1465,0.2419,-41.7908
16:35:24:485,0.009,2.5938,11.7966,37.9768,0.5009,-0.1422,0.3995,-41.584
16:35:24:506,-0.3099,3.0323,11.744,38.0969,0.4328,-0.0133,0.4644,-41.3922
16:35:24:526,-0.8225,3.7125,11.5831,38.2013,0.2985,0.2348,0.5124,-41.2186
16:35:24:546,-1.1121,4.3496,11.0686,38.2586,0.1622,0.4915,0.6168,-41.0645
16:35:24:572,-0.8704,4.7186,11.3151,38.1689,0.0249,0.549,0.7105,-40.9322
16:35:24:588,-0.5515,3.8686,12.8267,38.3091,-0.1924,0.1815,0.653,-40.8242
16:35:24:607,-0.5827,2.6608,14.1009,38.3253,-0.2489,-0.2945,0.4208,-40.8242
16:35:24:628,-1.3854,1.7844,13.1976,38.5369,0.0844,-0.3648,0.2079,-40.8242
16:35:24:647,-2.1182,1.6935,10.8,38.7304,0.6011,0.074,0.1652,-40.8242
16:35:24:670,-2.1039,1.6403,9.4439,38.8692,0.7639,0.3604,0.2547,-40.8242
16:35:24:687,-1.7952,0.8261,9.88,39.0677,0.3955,0.1154,0.2238,-40.8242
16:35:24:707,-1.6391,0.0305,10.8215,39.088,-0.1253,-0.1422,0.0822,-40.8242
16:35:24:728,-1.7809,-0.4457,10.6708,39.303,-0.4065,-0.0112,-0.0063,-40.8242
16:35:24:748,-1.7061,-0.6377,9.329,39.3222,-0.4342,0.4499,0.0161,-40.8242
16:35:24:771,-1.1791,-0.2495,7.4512,39.2658,-0.3607,0.9334,0.2132,-40.8242
16:35:24:788,-0.9685,0.6054,6.3278,39.2864,-0.2989,1.0687,0.4581,-40.8242
16:35:24:809,-0.7029,0.8883,6.5719,39.3883,-0.2712,0.6086,0.5475,-40.8242
16:35:24:828,-0.4271,0.9123,6.6844,39.5341,-0.1104,-0.0975,0.5241,-40.8242
16:35:24:849,-0.2213,1.1665,5.9779,39.7398,0.2623,-0.3691,0.5624,-40.8242
16:35:24:873,-0.3242,1.5781,5.1829,39.9669,0.5489,-0.2445,0.6285,-40.8242
16:35:24:889,-0.5874,1.9352,4.9167,40.0092,0.5393,-0.1486,0.6104,-40.8242
16:35:24:909,-0.6574,2.345,5.3886,40.2533,0.3294,-0.1752,0.5795,-40.8242
16:35:24:930,-0.451,2.6632,6.8285,40.6625,0.0164,-0.237,0.571,-40.8242
16:35:24:949,-0.1687,2.7135,8.7948,40.8236,-0.2925,-0.2051,0.5071,-40.8242
16:35:24:972,-0.274,2.6345,10.2921,41.0163,-0.4832,0.1282,0.3643,-40.9272
16:35:24:990,-0.7077,2.4861,11.5591,41.244,-0.5077,0.3743,0.1844,-41.038
16:35:25:010,-1.2084,2.4096,11.9641,41.2703,-0.3309,0.2145,0.0502,-41.1505
16:35:25:030,-1.1599,2.5005,10.8957,41.3682,0.0526,0.0708,0.0545,-41.2587
16:35:25:050,-0.4917,2.7494,9.789,41.6165,0.3337,0.0495,0.1791,-41.3626
16:35:25:070,0.2291,3.3703,10.34,41.6573,0.1718,-0.1326,0.2846,-41.4662
16:35:25:090,0.6867,3.1902,12.4002,41.5571,-0.3501,-0.4575,0.2068,-41.5739
16:35:25:111,0.8877,2.7906,13.6959,41.7759,-0.6833,-0.5959,-0.0244,-41.6839
16:35:25:132,1.0032,2.656,14.1655,41.8443,-0.5832,-0.5256,-0.1714,-41.7878
16:35:25:151,0.6365,1.8945,15.1525,41.7973,-0.4491,-0.4277,-0.314,-41.8823
16:35:25:173,-0.0939,0.5503,15.7418,41.8078,-0.4822,-0.3222,-0.5355,-41.8823
16:35:25:192,-0.8776,-0.5611,14.4628,41.9701,-0.2851,-0.0048,-0.6048,-41.8823
16:35:25:212,-1.1791,-1.0522,12.2638,42.1262,0.2059,0.2678,-0.3811,-41.8823
16:35:25:233,-0.3817,-1.0379,10.3926,42.3867,0.6671,0.1378,0.0747,-41.8823
16:35:25:252,1.1013,-0.3523,8.8929,42.5445,0.8864,-0.3244,0.5039,-41.8823
16:35:25:272,2.8953,0.5623,8.2702,42.4291,0.8832,-0.6981,0.6445,-41.8823
16:35:25:293,3.07,1.3747,8.1434,42.6764,0.717,-0.8526,0.375,-41.8823
16:35:25:312,2.0477,1.3555,6.9697,42.7402,0.5094,-0.6331,-0.198,-41.8823
16:35:25:338,1.4219,1.2144,5.5681,42.8149,0.3305,-0.1188,-0.6506,-41.8823
16:35:25:353,1.3023,1.3627,4.6098,42.7422,0.1441,0.2316,-0.7337,-41.8823
16:35:25:374,1.6235,1.8299,4.2389,42.7395,0.0111,0.3051,-0.5771,-41.8823
16:35:25:394,1.7815,2.5005,4.1073,42.6538,-0.023,0.223,-0.4375,-41.8823
16:35:25:413,1.59,2.7835,3.9799,42.8385,-0.0198,0.1261,-0.5121,-41.8823
16:35:25:434,1.1515,2.4742,4.1719,42.9117,-0.0763,0.0186,-0.7795,-41.8823
16:35:25:454,0.4977,2.2032,4.3633,42.969,-0.1967,-0.0826,-1.0521,-41.8823
16:35:25:474,-0.3697,2.141,5.2714,43.164,-0.4065,-0.1124,-1.1884,-41.7834
16:35:25:496,-1.1336,1.8419,7.2449,43.6273,-0.7345,-0.1507,-1.2022,-41.6433
16:35:25:515,-1.6056,1.7438,9.2931,43.6886,-0.9475,-0.122,-1.051,-41.4627
16:35:25:541,-1.7109,1.8802,11.001,44.102,-0.8655,-0.057,-0.722,-41.2478
16:35:25:557,-1.8,2.3354,12.2566,44.4276,-0.5875,-0.1401,-0.3395,-41.0118
16:35:25:576,-1.6104,2.4909,13.0708,44.8437,-0.2861,-0.2743,-0.019,-40.7681
16:35:25:596,-0.9996,2.4455,13.9478,45.1202,-0.055,-0.4181,0.1983,-40.5289
16:35:25:616,-0.1759,2.6177,14.7332,45.4224,0.0494,-0.5023,0.3387,-40.3018
16:35:25:642,0.2674,3.073,14.7452,45.7479,0.0834,-0.2935,0.4335,-40.0919
16:35:25:657,0.0353,3.478,14.3025,46.4259,0.075,0.1176,0.4048,-39.9023
16:35:25:676,-0.3936,3.722,13.6481,46.9893,0.0132,0.4915,0.2952,-39.7303
16:35:25:696,-0.7268,3.4038,13.3155,47.2343,-0.0816,0.6917,0.1919,-39.5724
16:35:25:717,-1.3089,2.7015,13.0349,47.3513,-0.1232,0.6907,0.0822,-39.4242
16:35:25:737,-2.2092,2.4407,12.0407,47.7142,0.0601,0.5991,0.0268,-39.2815
16:35:25:757,-2.5998,2.6656,10.2897,48.1495,0.4253,0.5288,0.1077,-39.1424
16:35:25:777,-2.4467,2.723,8.7541,48.4426,0.6277,0.4318,0.2398,-39.0095
16:35:25:796,-1.922,1.7725,9.1208,48.6964,0.3401,0.1112,0.1631,-38.887
16:35:25:817,-1.2658,0.3254,11.0758,48.5746,-0.3565,-0.319,-0.0979,-38.7725
16:35:25:841,-1.124,-0.9775,12.7693,48.6854,-0.9891,-0.4106,-0.3236,-38.6588
16:35:25:857,-1.3687,-1.9382,12.9105,48.8605,-1.169,-0.1518,-0.4226,-38.5379
16:35:25:877,-1.4644,-2.1302,11.5878,49.0306,-0.8975,0.2379,-0.231,-38.4075
16:35:25:897,-0.9374,-1.5912,9.8201,49.1326,-0.415,0.6704,0.3091,-38.2749
16:35:25:916,-0.1376,-0.6257,8.6465,49.0576,0.0025,1.0378,0.9543,-38.1583
16:35:25:941,-0.0317,0.2058,7.6116,48.9761,0.2357,1.3402,1.3453,-38.1583
16:35:25:957,-0.07,0.052,6.4379,49.0147,0.3965,1.5,1.3857,-38.1583
16:35:25:978,-0.3362,0.1101,5.6279,49.2255,0.6319,1.2157,1.2558,-38.1583
16:35:25:999,-0.7101,0.7711,4.9908,49.1877,0.9993,0.6949,1.1801,-38.1583
16:35:26:018,-0.9876,1.3316,4.4016,49.116,1.3443,0.2156,1.1674,-38.2559
16:35:26:042,-1.0164,1.5182,4.1982,49.1063,1.4732,-0.1901,1.0992,-38.3874
16:35:26:058,-0.935,1.7725,4.2293,49.0922,1.3955,-0.4351,1.0129,-38.5473
16:35:26:079,-0.7316,2.0381,4.3178,49.022,1.1687,-0.4469,0.9225,-38.7329
16:35:26:099,-0.5372,2.6321,4.5571,49.2496,0.7895,-0.2189,0.8074,-38.942
16:35:26:118,-0.8273,3.4995,5.1392,49.3253,0.306,0.173,0.6668,-39.172
16:35:26:144,-1.1838,3.8877,5.5418,49.3781,-0.1796,0.4691,0.4517,-39.4218
16:35:26:160,-1.0403,4.1557,6.0449,49.459,-0.547,0.3573,0.259,-39.6822
16:35:26:179,0.0257,3.5593,8.0022,49.4928,-0.9294,-0.2402,0.1152,-39.9472
16:35:26:201,0.6126,2.3904,11.6554,49.7226,-1.4651,-0.9559,-0.1234,-40.2132
16:35:26:254,0.1741,1.8538,15.4929,49.9448,-1.9582,-1.2945,-0.4258,-40.4745
16:35:26:255,0.2028,1.1569,16.6594,50.3135,-2.0828,-1.0326,-0.5558,-40.721
16:35:26:260,0.8136,0.5671,17.79,50.3685,-1.9081,-0.615,-0.5185,-40.9476
16:35:26:280,0.8518,-0.5468,20.1111,50.3634,-1.8442,-0.5799,-0.5845,-41.1547
16:35:26:300,-0.14,-1.7324,19.4572,50.3412,-1.5024,-0.3925,-0.7454,-41.3404
16:35:26:320,-0.9517,-1.797,16.1157,50.4441,-0.5088,0.1176,-0.6112,-41.5005
16:35:26:342,-0.3601,-0.8554,13.1282,50.4983,0.5819,0.4297,-0.0595,-41.6407
16:35:26:362,1.0415,0.7448,11.4586,50.5551,1.1783,0.2486,0.5092,-41.7768
16:35:26:381,1.8987,2.0166,10.4189,50.5821,1.1953,-0.0602,0.5465,-41.9292
16:35:26:401,1.669,1.5972,9.7173,50.2027,0.8885,0.0314,-0.0063,-42.0982
16:35:26:421,0.8614,0.673,8.735,49.9392,0.6149,0.3977,-0.6218,-42.2672
16:35:26:443,0.1525,0.2728,7.3819,49.6924,0.5638,0.7118,-0.9242,-42.4116
16:35:26:462,-0.2261,0.2584,5.9635,49.6038,0.649,0.8716,-0.9434,-42.5218
16:35:26:482,-0.4295,0.3948,4.7133,49.2736,0.7596,0.8748,-0.8221,-42.5218
16:35:26:502,-0.4319,0.6275,3.4576,49.0953,0.8832,0.7896,-0.6676,-42.5218
16:35:26:522,-0.3194,1.1109,2.5837,48.8641,0.9738,0.6683,-0.5334,-42.5218
16:35:26:547,-0.1711,1.5709,2.1212,48.5269,0.9461,0.4893,-0.4833,-42.5218
16:35:26:562,-0.5755,2.0644,2.1308,48.1764,0.7756,0.2326,-0.5867,-42.5218
16:35:26:583,-1.3208,2.2373,2.5741,47.864,0.4743,-0.0921,-0.756,-42.5218
16:35:26:603,-1.7545,2.3139,4.1336,47.5987,0.0526,-0.4256,-0.82,-42.5218
16:35:26:624,-1.9842,2.6345,6.4283,47.5227,-0.4513,-0.63,-0.7411,-42.5218
16:35:26:645,-2.1613,2.6919,8.6465,47.6351,-0.8378,-0.5916,-0.5899,-42.4291
16:35:26:663,-2.2863,2.5149,10.5751,47.4725,-0.9752,-0.4937,-0.396,-42.3242
16:35:26:685,-1.7785,3.1113,12.798,47.4732,-0.9102,-0.5213,-0.117,-42.2146
16:35:26:705,-1.3352,3.9284,13.9478,47.3553,-0.6333,-0.5085,0.1652,-42.1104
16:35:26:724,-1.1791,4.0241,13.8114,47.727,-0.2414,-0.3009,0.2079,-42.1104
16:35:26:744,-1.4189,3.8082,14.3599,47.9656,-0.0582,-0.1518,0.0523,-42.1104
16:35:26:764,-1.8144,3.7771,15.7346,48.2037,-0.1711,-0.1614,-0.0883,-42.1104
16:35:26:785,-2.3151,3.8518,15.859,47.9481,-0.234,-0.0176,-0.1107,-42.1104
16:35:26:807,-2.3701,3.5498,15.3446,47.9161,-0.0912,0.2369,-0.0233,-42.1104
16:35:26:825,-1.9388,2.7206,15.2267,47.8567,0.0505,0.2103,0.1035,-42.1104
16:35:26:853,-1.5769,1.7246,14.9659,47.7353,0.2346,-0.0676,0.1471,-42.1104
16:35:26:866,-1.9795,0.9386,13.4638,47.6537,0.6628,-0.3361,0.08,-42.1104
16:35:26:886,-2.811,0.5647,10.5703,47.3189,1.2411,-0.3616,-0.0393,-42.1104
16:35:26:910,-3.055,0.3422,8.1123,47.0379,1.4732,-0.2477,-0.0553,-42.1104
16:35:26:925,-2.6094,-0.0102,7.8197,46.7021,1.0036,-0.2604,0.0566,-42.1104
16:35:26:946,-1.7085,-0.4122,8.747,46.6445,0.1473,-0.3041,0.1897,-42.1104
16:35:26:967,-0.9948,-0.6185,9.0012,46.2186,-0.4438,-0.2338,0.2547,-42.1104
16:35:26:986,-0.9972,-0.5803,8.2271,45.986,-0.5939,-0.0399,0.2377,-42.1104
16:35:27:009,-1.3113,-0.2686,7.1348,45.6104,-0.5289,0.2007,0.275,-42.1104
16:35:27:028,-1.3424,0.0497,6.3494,45.1822,-0.4257,0.2955,0.457,-42.1104
16:35:27:047,-0.9829,0.3565,5.7314,45.0688,-0.2723,0.1719,0.7563,-42.1104
16:35:27:068,-0.4702,0.7711,5.1176,44.9764,-0.0252,-0.0101,1.0789,-42.2036
16:35:27:087,-0.0532,1.4584,4.7874,44.7404,0.224,-0.1454,1.3165,-42.3409
16:35:27:110,0.198,2.0668,4.9358,44.4809,0.3486,-0.2317,1.3804,-42.5276
16:35:27:127,0.0425,2.321,5.0818,44.3427,0.3273,-0.2104,1.2291,-42.7606
16:35:27:147,-0.2835,2.3689,5.4245,44.1122,0.1824,-0.0602,0.9682,-43.0335
16:35:27:168,-0.4104,2.3258,6.1573,43.8878,-0.0827,0.0815,0.7457,-43.3402
16:35:27:188,-0.5133,2.3545,7.142,43.904,-0.3692,0.1975,0.5656,-43.6717
16:35:27:210,-1.0331,2.4287,8.0094,43.6396,-0.5566,0.3274,0.375,-44.021
16:35:27:228,-1.584,2.4455,9.1089,43.5029,-0.5853,0.3423,0.2079,-44.382
16:35:27:249,-1.273,2.7763,10.1198,43.4749,-0.4566,0.0442,0.1407,-44.7436
16:35:27:270,-0.5515,3.521,11.2505,43.2548,-0.3138,-0.4,0.1077,-45.1072
16:35:27:289,0.4977,3.2961,13.0062,43.138,-0.4587,-0.7141,-0.0595,-45.4721
16:35:27:310,1.0941,2.0883,14.6136,43.0178,-0.8261,-0.6246,-0.3577,-45.8313
16:35:27:329,1.0702,1.4656,15.6102,43.1583,-1.0562,-0.2402,-0.5909,-46.1744
16:35:27:349,1.3573,1.5182,15.8255,43.2231,-1.0317,0.0463,-0.5877,-46.4914
16:35:27:369,1.7073,1.7127,15.0712,43.191,-0.7952,0.2134,-0.4791,-46.7833
16:35:27:390,2.2941,0.7208,15.4977,42.9333,-0.5449,0.0921,-0.5217,-47.0547
16:35:27:410,2.196,-0.4845,15.3757,42.6763,-0.3075,-0.2945,-0.7454,-47.3083
16:35:27:430,0.9912,-1.0331,13.471,42.3477,0.1377,-0.2977,-0.9189,-47.5378
16:35:27:452,0.2315,-0.9751,11.2337,42.2583,0.5925,-0.0527,-0.8965,-47.738
16:35:27:470,0.6676,-0.731,10.5123,42.1686,0.7351,-0.123,-0.6644,-47.9062
16:35:27:490,1.1515,-0.5252,10.9747,41.4965,0.5233,-0.3872,-0.4855,-48.0508
16:35:27:517,0.7633,-0.5587,10.6708,40.891,0.2602,-0.3158,-0.5451,-48.1789
16:35:27:531,-0.0389,-0.6305,9.3529,40.5336,0.2304,0.0176,-0.6783,-48.2921
16:35:27:551,-0.451,-0.4193,7.9854,40.0587,0.3869,0.2369,-0.6165,-48.3876
16:35:27:578,-0.317,0.0329,6.795,39.6981,0.5947,0.2603,-0.3342,-48.3876
16:35:27:592,0.0903,0.7328,6.2243,39.5645,0.7863,0.1762,-0.0158,-48.3876
16:35:27:611,0.6221,1.4536,5.9707,39.1572,0.8843,0.09,0.1695,-48.3876
16:35:27:632,0.7442,1.7773,5.5968,38.5159,0.928,0.2049,0.1738,-48.4806
16:35:27:652,0.0305,1.7509,4.6845,38.5929,0.9812,0.5543,0.03,-48.5834
16:35:27:673,-0.5635,1.806,3.7454,38.2229,1.0206,0.8535,-0.0862,-48.6901
16:35:27:692,-1.0116,2.3665,3.058,37.9561,0.9748,0.9004,-0.0499,-48.7953
16:35:27:711,-1.6367,3.2285,2.8301,37.9413,0.7841,0.7683,0.0119,-48.8999
16:35:27:733,-1.8311,3.4875,3.4026,37.6867,0.4274,0.4659,-0.0148,-49.005
16:35:27:753,-1.6558,3.5761,5.2977,37.706,0.027,-0.0027,-0.0521,-49.1098
16:35:27:778,-1.3041,4.06,8.0931,37.6293,-0.3533,-0.4618,-0.0553,-49.2136
16:35:27:792,-1.0977,4.3161,11.2672,37.6534,-0.5907,-0.5618,-0.051,-49.3153
16:35:27:814,-1.8239,4.2538,12.7765,37.2388,-0.5045,-0.432,-0.1075,-49.4155
16:35:27:834,-2.3031,3.9404,12.865,37.1283,-0.1296,-0.2541,-0.1224,-49.5124
16:35:27:853,-1.9268,3.6718,13.0373,37.0174,0.1419,-0.2679,0.0236,-49.6045
16:35:27:877,-1.1312,4.06,14.0267,36.7662,0.1132,-0.3361,0.2984,-49.6996
16:35:27:894,-0.801,4.7306,14.6255,36.9413,-0.0337,-0.1997,0.5784,-49.8076
16:35:27:914,-1.0618,4.8,14.2421,36.6377,-0.0145,0.2049,0.6945,-49.9387
16:35:27:935,-1.4859,4.1462,13.8975,36.5368,0.1185,0.4371,0.6594,-50.0961
16:35:27:954,-2.0632,3.6694,13.0564,36.6148,0.3433,0.3626,0.6285,-50.2781
16:35:27:978,-2.2235,3.5976,11.2457,36.7066,0.6841,0.2688,0.6935,-50.4816
16:35:27:995,-1.6319,3.883,9.7843,36.7015,0.8608,0.19,0.8064,-50.7074
16:35:28:016,-0.8895,3.6646,10.1294,36.542,0.5446,-0.1177,0.7339,-50.958
16:35:28:035,-0.6281,2.117,11.4658,36.3556,-0.1146,-0.4256,0.3473,-51.231
16:35:28:055,-0.6837,0.3446,11.9545,36.0293,-0.6312,-0.3872,-0.0915,-51.513
16:35:28:078,-0.6909,-0.7382,11.2098,35.7924,-0.7707,-0.122,-0.2523,-51.7868
16:35:28:095,-0.1011,-0.7884,9.8608,35.6093,-0.6173,0.1314,0.0438,-52.0476
16:35:28:118,1.3573,0.2058,8.7565,35.4212,-0.2702,0.2486,0.6935,-52.3064
16:35:28:136,2.3324,2.2875,8.0333,34.7296,0.0919,0.2411,1.2345,-52.5864
16:35:28:157,2.476,3.454,7.4991,34.4423,0.2612,0.2422,1.2174,-52.9054
16:35:28:181,1.9202,2.3952,6.7974,34.5576,0.2826,0.3402,0.7084,-53.2614
16:35:28:197,0.6078,1.6863,5.5896,34.5055,0.4935,0.4553,0.2771,-53.6344
16:35:28:216,-0.4487,1.8562,4.5954,34.4314,0.815,0.3083,0.1876,-54.0077
16:35:28:237,-0.8512,1.8658,4.0588,34.1199,0.9674,-0.0101,0.2835,-54.3793
16:35:28:292,-1.0738,1.9089,3.8674,33.9241,0.8971,-0.2892,0.3718,-54.7498
16:35:28:294,-1.1671,2.1027,4.3346,33.9118,0.6479,-0.433,0.3973,-55.1225
16:35:28:296,-0.9661,2.2445,5.4532,33.8107,0.2943,-0.4852,0.3931,-55.4998
16:35:28:321,-0.6185,2.3952,6.6867,33.8501,-0.0103,-0.4341,0.3654,-55.8825
16:35:28:337,-0.1735,3.0419,7.5948,33.5875,-0.1626,-0.2945,0.2782,-56.269
16:35:28:357,-0.1735,4.1701,8.0548,33.4369,-0.1775,-0.1827,0.0885,-56.656
16:35:28:381,-0.6377,4.3376,7.9543,33.205,-0.1871,-0.2178,-0.2831,-57.0361
16:35:28:397,-0.5946,3.478,8.601,33.2223,-0.3714,-0.3297,-0.6708,-57.3943
16:35:28:420,-0.1615,2.8193,10.9795,32.9643,-0.8325,-0.5085,-0.821,-57.7175
16:35:28:439,0.5743,2.8911,14.3862,32.935,-1.3319,-0.6353,-0.7028,-58.0005
16:35:28:458,1.5326,3.6311,15.8907,32.8869,-1.4342,-0.5586,-0.4748,-58.2485
16:35:28:482,2.1314,3.9571,16.2377,32.6934,-1.1871,-0.3041,-0.4791,-58.4708
16:35:28:498,1.5494,2.86,17.1266,32.5305,-1.1924,0.0218,-0.8157,-58.6683
16:35:28:518,0.0855,1.2024,17.0118,32.469,-1.284,0.5181,-1.1287,-58.8294
16:35:28:538,-0.801,-0.1992,15.7753,32.5132,-0.9188,0.7885,-1.0915,-58.9448
16:35:28:559,-0.5563,-0.542,14.4389,32.5786,-0.2041,0.517,-0.6676,-58.9448
16:35:28:583,0.4834,0.2632,13.2341,32.7111,0.519,0.0783,-0.0808,-58.9448
16:35:28:599,1.5206,1.3723,11.6889,32.9218,1.0196,-0.1081,0.3537,-58.9448
16:35:28:620,1.5446,2.0955,9.5258,32.7184,1.1857,0.0868,0.3462,-58.9448
16:35:28:640,1.0008,2.2056,7.4393,32.7708,1.0089,0.5075,-0.0148,-58.9448
16:35:28:661,0.2913,1.9304,5.7841,32.8832,0.6893,0.9558,-0.3449,-58.9448
16:35:28:681,-0.2046,1.6666,4.7061,32.6497,0.4477,1.1539,-0.5015,-58.9448
16:35:28:701,-0.2931,1.5135,3.9535,32.7936,0.3838,1.025,-0.494,-58.9448
16:35:28:720,-0.3338,1.4489,3.4528,32.5607,0.4636,0.7182,-0.3736,-58.9448
16:35:28:741,-0.1902,1.5661,2.7416,32.5988,0.5872,0.3977,-0.2363,-58.9448
16:35:28:760,-0.195,2.0213,2.0183,32.5313,0.6607,0.1208,-0.1373,-58.9448
16:35:28:781,-0.3003,2.5531,2.1547,32.8039,0.4935,-0.2264,-0.1533,-58.9448
16:35:28:801,-0.3123,2.479,3.2758,32.7512,0.0292,-0.5692,-0.2587,-58.9448
16:35:28:821,-0.14,2.3474,4.785,32.56,-0.4704,-0.6438,-0.3417,-58.9448
16:35:28:841,0.1597,2.5412,7.3771,32.6206,-0.8122,-0.5522,-0.3523,-58.9448
16:35:28:862,-0.1011,3.1232,9.7196,32.4157,-0.9241,-0.4937,-0.3204,-58.9448
16:35:28:881,-0.8776,3.5904,11.3892,32.4762,-0.7334,-0.3563,-0.3161,-58.9448
16:35:28:902,-1.4357,3.9308,11.8325,32.3713,-0.3788,-0.318,-0.3161,-58.9448
16:35:28:921,-1.3735,4.6756,12.1418,32.3258,-0.0039,-0.3595,-0.1437,-58.8466
16:35:28:943,-0.923,5.1476,13.5428,32.277,0.0876,-0.6172,-0.0158,-58.7423
16:35:28:962,-0.5587,4.9705,15.0616,32.3482,-0.072,-0.7759,-0.0467,-58.6368
16:35:28:982,-0.9613,5.0112,15.6174,32.4642,-0.1796,-0.6236,-0.0957,-58.5287
16:35:29:003,-1.5529,5.0949,14.8487,32.6327,-0.1349,-0.2253,-0.084,-58.4168
16:35:29:023,-1.8,4.7498,14.4509,32.2929,-0.1732,0.2401,-0.0126,-58.3018
16:35:29:048,-2.3031,3.5354,14.549,32.05,-0.4832,0.4116,-0.0318,-58.186
16:35:29:064,-2.8038,2.3737,13.7318,32.2736,-0.6919,0.3935,-0.1075,-58.0677
16:35:29:084,-3.1747,2.0979,11.8014,32.364,-0.48,0.4158,0.0108,-57.9473
16:35:29:104,-3.2225,2.3043,10.3831,32.4943,-0.0997,0.5277,0.3197,-57.8274
16:35:29:124,-2.0728,1.9807,9.9254,32.713,0.1313,0.3466,0.7244,-57.7176
16:35:29:149,-1.1743,1.6666,9.9978,32.8819,0.1537,-0.2051,0.8511,-57.7176
16:35:29:164,-0.5587,1.1133,9.9326,32.9045,0.126,-0.6449,0.6125,-57.7176
16:35:29:185,-0.3051,0.661,9.2524,33.4056,0.1824,-0.615,0.3845,-57.7176
16:35:29:204,-0.3888,0.3924,8.0046,33.7954,0.2602,-0.1774,0.2984,-57.7176
16:35:29:225,-0.8991,0.1436,6.5671,33.7707,0.3028,0.3743,0.3505,-57.7176
16:35:29:248,-1.5625,0.1029,5.2164,33.7912,0.3401,0.8514,0.5379,-57.7176
16:35:29:265,-1.4859,0.0664,4.3035,33.7196,0.3827,0.9835,0.8266,-57.7176
16:35:29:286,-0.9733,0.3733,4.3035,33.7582,0.4061,0.6001,1.112,-57.7176
16:35:29:305,-0.2835,0.9218,5.1105,33.7138,0.4743,-0.0133,1.2867,-57.7176
16:35:29:325,0.1836,1.2622,5.3743,33.7664,0.6011,-0.2988,1.2196,-57.8227
16:35:29:350,0.1143,1.3842,5.0746,33.7636,0.6893,-0.2104,0.9321,-57.9651
16:35:29:365,-0.1926,1.4273,5.3432,33.7448,0.5531,-0.057,0.6104,-58.134
16:35:29:386,-0.585,1.3268,5.6447,33.8071,0.2005,0.073,0.3899,-58.3175
16:35:29:406,-1.0881,1.468,6.1837,34.0161,-0.1391,0.271,0.3037,-58.5044
16:35:29:426,-0.9781,1.6786,7.1444,34.2594,-0.4406,0.3956,0.2931,-58.6916
16:35:29:450,-0.3984,2.4407,8.9318,34.4676,-0.7089,0.4137,0.325,-58.882
16:35:29:467,0.0449,3.1591,11.071,34.8568,-0.9007,0.1421,0.276,-59.0766
16:35:29:488,0.1501,3.1854,12.6227,35.2323,-0.9102,-0.2956,0.0108,-59.2744
16:35:29:508,0.2602,2.9677,14.2182,35.4612,-0.8293,-0.5586,-0.3118,-59.4624
16:35:29:527,0.21,3.2285,14.9946,35.7236,-0.8112,-0.4852,-0.3949,-59.6293
16:35:29:548,0.2674,3.2913,14.9611,35.993,-0.7888,-0.0399,-0.2459,-59.7754
16:35:29:568,0.5503,3.1137,16.1587,36.1564,-0.8048,0.2081,-0.133,-59.9061
16:35:29:590,0.8327,2.1529,17.9025,36.541,-0.8623,0.0602,-0.2044,-60.0238
16:35:29:609,0.3775,0.8548,17.8307,36.8371,-0.6823,0.0293,-0.3502,-60.1255
16:35:29:628,0.2435,-0.1131,16.3765,37.1365,-0.1711,0.1208,-0.3055,-60.1255
16:35:29:649,1.0678,-0.259,14.6279,37.3523,0.4487,-0.1134,-0.0052,-60.1255
16:35:29:669,1.9083,0.5145,11.7942,37.8533,0.9738,-0.3755,0.3377,-60.1255
16:35:29:689,2.074,1.5206,8.7757,38.2541,1.2539,-0.237,0.4794,-60.1255
16:35:29:710,1.6738,1.9807,6.7346,38.7254,1.1069,0.0368,0.2846,-60.1255
16:35:29:730,1.0032,1.9998,5.4676,38.9488,0.682,0.2465,-0.0467,-60.2156
16:35:29:751,0.5743,1.6642,5.0339,39.1613,0.274,0.2561,-0.3055,-60.2156
16:35:29:769,0.5264,1.4058,5.5394,39.3174,0.0334,0.0399,-0.4503,-60.2156
16:35:29:789,0.4881,1.0606,5.5298,39.3891,0.0409,-0.1401,-0.5238,-60.2156
16:35:29:809,0.3655,0.929,4.9023,39.562,0.2293,-0.106,-0.5622,-60.2156
16:35:29:829,0.2506,1.1665,4.1001,39.6666,0.4072,-0.0293,-0.5121,-60.2156
16:35:29:850,0.1956,1.7007,3.7023,39.8846,0.4423,0.0304,-0.3832,-60.2156
16:35:29:871,0.4451,2.3545,3.987,39.9088,0.2911,0.0847,-0.2694,-60.2156
16:35:29:890,0.8327,3.0036,5.3504,40.2816,0.0111,0.0826,-0.2726,-60.2156
16:35:29:910,0.9021,3.3583,7.3579,40.317,-0.2244,-0.09,-0.4258,-60.2156
16:35:29:931,0.4905,3.5545,8.68,40.5524,-0.2212,-0.3095,-0.6186,-60.1155
16:35:29:950,-0.1615,3.7795,9.935,40.8481,-0.1093,-0.3542,-0.7294,-59.9897
16:35:29:971,-0.7938,3.8231,11.2935,41.1071,-0.0987,-0.3638,-0.7326,-59.8345
16:35:29:992,-1.1743,3.9188,12.3308,41.5075,-0.0305,-0.3265,-0.6122,-59.6513
16:35:30:012,-1.3184,4.5751,12.3476,41.9233,0.2218,-0.2754,-0.3321,-59.4443
16:35:30:032,-0.746,5.1811,11.8517,42.2277,0.502,-0.0719,-0.0084,-59.2249
16:35:30:053,-0.2094,5.3079,12.7669,42.5497,0.4573,0.1016,0.162,-59.0046
16:35:30:072,-0.3505,4.7043,13.2963,43.1164,0.1995,0.2039,0.0832,-58.7897
16:35:30:092,-1.2179,4.34,12.46,43.359,0.1771,0.419,-0.0893,-58.5779
16:35:30:117,-1.9172,3.5521,12.2614,43.923,0.1814,0.5192,-0.2438,-58.3636
16:35:30:132,-1.934,2.6824,13.0134,44.4675,-0.0113,0.4009,-0.2694,-58.1395
16:35:30:153,-1.6558,2.2229,12.7286,44.9297,-0.0134,0.2209,-0.0819,-57.9055
16:35:30:174,-1.8526,2.1338,11.056,45.0523,0.3092,0.141,0.1184,-57.6689
16:35:30:192,-1.9986,1.7677,9.746,45.5109,0.4711,0.0794,0.1812,-57.4369
16:35:30:218,-1.4381,1.4297,9.3817,45.8529,0.2644,-0.0581,0.2931,-57.2108
16:35:30:232,-0.4247,1.5781,9.2261,45.9058,-0.0241,-0.1955,0.5561,-56.996
16:35:30:252,0.2554,1.8395,8.7254,46.4723,-0.2095,-0.221,0.7148,-56.8024
16:35:30:274,0.4014,1.9807,8.208,46.6423,-0.3501,-0.1049,0.6402,-56.6361
16:35:30:316,0.2028,1.7892,7.681,46.5436,-0.4598,0.0506,0.4623,-56.4939
16:35:30:318,0.1669,1.5422,6.9793,46.5208,-0.4289,0.0708,0.3208,-56.3683
16:35:30:334,0.3799,1.6887,6.2267,46.8668,-0.2371,-0.1028,0.2877,-56.2536
16:35:30:354,0.2171,2.1936,5.616,47.0126,-0.0614,-0.2796,0.276,-56.1473
16:35:30:375,-0.2237,2.7278,6.1358,47.1432,-0.1157,-0.383,0.2196,-56.0493
16:35:30:394,-0.4199,2.8265,7.6475,47.4648,-0.4001,-0.5522,0.161,-55.9569
16:35:30:418,-1.1838,3.1137,9.6766,47.466,-0.6482,-0.7269,0.08,-55.8663
16:35:30:437,-1.3926,3.2961,12.3476,47.886,-0.6535,-0.8185,0.0364,-55.7744
16:35:30:457,-1.0881,3.3368,14.1966,48.1425,-0.2755,-1.0049,0.1035,-55.6802
16:35:30:477,-0.1926,3.4469,14.4724,48.1194,0.4839,-1.0198,0.1802,-55.5855
16:35:30:497,-0.1854,4.5464,13.5236,48.0888,1.1357,-0.6662,0.1184,-55.5855
16:35:30:520,-0.0221,5.0686,12.6156,48.2364,1.3624,-0.4756,-0.116,-55.5855
16:35:30:536,1.4626,4.6516,13.0397,48.3568,1.1389,-1.1072,-0.2268,-55.4942
16:35:30:557,2.0836,3.7866,12.9416,48.2022,0.8928,-1.8313,-0.3726,-55.3981
16:35:30:577,2.117,3.0849,12.1537,47.9498,0.7596,-1.7844,-0.5569,-55.2924
16:35:30:597,1.8796,2.5819,11.0536,47.7162,0.4967,-1.0763,-0.5451,-55.1714
16:35:30:622,1.8461,2.9701,10.5344,47.2522,0.0823,-0.3744,-0.3214,-55.0348
16:35:30:636,2.4473,2.939,10.4668,47.3619,-0.2393,-0.0272,-0.035,-54.8881
16:35:30:657,2.7015,1.9424,9.7244,47.3457,-0.3426,0.4606,0.1365,-54.7395
16:35:30:677,2.5262,2.0453,8.4239,47.2054,-0.3991,1.1592,0.2505,-54.5948
16:35:30:698,2.6369,2.2493,7.0128,46.8066,-0.4044,1.7215,0.4421,-54.4582
16:35:30:721,2.2247,2.6154,6.5982,47.1072,-0.3181,1.7365,0.4847,-54.3373
16:35:30:737,1.9609,2.7619,6.4044,47.012,-0.1967,1.0325,0.1897,-54.2342
16:35:30:756,2.275,2.4814,5.5346,47.3171,-0.0209,0.4339,-0.1362,-54.138
16:35:30:777,2.3563,2.2947,5.0267,47.6463,0.0961,0.2774,-0.2927,-54.0374
16:35:30:797,2.4281,2.3115,5.1057,47.6648,-0.0358,0.1133,-0.4269,-53.9274
16:35:30:819,2.6321,2.1721,5.7936,47.9769,-0.366,-0.2999,-0.5931,-53.8034
16:35:30:838,2.8403,2.1817,6.6006,47.9423,-0.7355,-0.5565,-0.7646,-53.6586
16:35:30:858,3.1831,1.8227,7.4082,48.3827,-1.0221,-0.4863,-0.8933,-53.4862
16:35:30:880,2.7948,2.1529,7.8921,48.3223,-1.0817,-0.2114,-1.0318,-53.2817
16:35:30:898,2.0907,2.0644,8.0094,48.6276,-0.9102,0.0932,-1.2459,-53.0409
16:35:30:926,1.1827,1.5637,8.1912,48.5818,-0.6418,0.2156,-1.4622,-52.7581
16:35:30:938,0.5073,1.5757,8.412,48.6675,-0.3724,-0.0549,-1.6889,-52.4247
16:35:30:959,0.0209,1.6839,7.6283,48.7947,-0.0294,-0.1326,-1.7933,-52.0352
16:35:30:979,-0.4917,2.4168,7.2377,48.773,0.3358,0.2284,-1.5984,-51.5881
16:35:30:999,-0.7077,3.3153,7.8562,48.948,0.4615,0.271,-1.2417,-51.0956
16:35:31:021,-0.6305,3.7555,8.5029,48.9274,0.3262,0.0208,-0.9626,-50.571
16:35:31:040,-0.746,4.127,8.8475,48.9214,0.2069,0.1005,-0.7571,-50.0252
16:35:31:059,-0.1304,4.4985,9.5665,49.0159,0.2133,0.3871,-0.4748,-49.4638
16:35:31:079,0.4158,4.6086,11.0877,48.9435,0.2282,0.3903,-0.2726,-48.8972
16:35:31:100,-0.2022,4.3932,12.2303,48.8556,0.3337,0.0644,-0.4706,-48.3331
16:35:31:122,-0.7077,4.0863,12.551,48.8753,0.7266,-0.1188,-0.7209,-47.7639
16:35:31:140,-0.518,3.8471,12.0742,48.7563,1.1708,-0.0495,-0.6463,-47.1804
16:35:31:160,-0.3266,4.1653,11.8373,48.7219,1.2592,0.1293,-0.3811,-46.5862
16:35:31:180,-0.4678,4.7856,12.0718,48.6527,0.929,0.3722,-0.1746,-45.9914
16:35:31:201,-0.2812,4.6875,12.0885,48.436,0.5052,0.679,-0.0052,-45.4054
16:35:31:221,-0.8489,4.733,12.1149,48.3294,0.3134,0.8791,0.1429,-44.8328
16:35:31:241,-1.5577,4.0361,11.7607,48.421,0.4168,0.862,0.0726,-44.2808
16:35:31:260,-2.3127,3.1783,11.2528,48.3917,0.7085,0.6406,-0.0744,-43.7454
16:35:31:281,-3.1795,2.5699,10.1414,48.2116,1.0153,0.5447,-0.1703,-43.2174
16:35:31:301,-3.3111,2.0237,9.1376,48.0538,1.1399,0.4542,-0.1959,-42.692
16:35:31:324,-2.8253,1.8849,8.6728,48.1313,1.0153,0.124,-0.1309,-42.1673
16:35:31:342,-2.2522,2.2349,8.4503,47.9778,0.7543,-0.122,0.0321,-41.6444
16:35:31:362,-1.7109,2.5436,8.1147,48.0147,0.4573,-0.0059,0.2739,-41.1318
16:35:31:388,-0.9374,2.601,7.197,47.8135,0.1739,0.2901,0.5092,-40.6395
16:35:31:403,-0.5779,2.5771,5.9061,47.5546,0.0366,0.696,0.6999,-40.1789
16:35:31:422,-0.4582,2.5436,4.4423,47.6176,-0.0103,1.1134,0.8628,-39.7593
16:35:31:442,-0.3338,2.747,3.3165,47.6285,-0.0933,1.3583,1.0108,-39.3857
16:35:31:462,-0.3888,3.1184,2.586,47.6073,-0.2297,1.4084,1.0939,-39.0638
16:35:31:488,-0.3721,3.6144,2.2504,47.3837,-0.3788,1.2221,1.0268,-38.7956
16:35:31:504,-0.3721,4.4339,2.1236,47.2572,-0.4832,0.9004,0.8586,-38.5776
16:35:31:524,-0.1567,4.6804,1.8981,47.3783,-0.5576,0.6097,0.5752,-38.4028
16:35:31:544,-0.2405,4.6516,2.3797,47.5526,-0.6823,0.3104,0.2025,-38.2591
16:35:31:564,-1.081,4.5392,3.6425,47.7528,-0.8889,-0.1539,-0.1852,-38.1318
16:35:31:588,-1.8933,4.2514,5.1488,47.6475,-1.1775,-0.6331,-0.5292,-38.0074
16:35:31:604,-2.3462,4.2969,7.209,47.7558,-1.4939,-0.8078,-0.6559,-37.8745
16:35:31:624,-2.3916,4.3543,9.9254,47.8932,-1.7952,-0.762,-0.608,-37.7299
16:35:31:645,-2.5591,4.1797,11.6052,47.8556,-1.8857,-0.4277,-0.4812,-37.577
16:35:31:665,-2.9234,3.6407,12.0909,48.0919,-1.6291,0.0847,-0.364,-37.4206
16:35:31:688,-2.7601,3.0634,12.853,48.0581,-1.2542,-0.0282,-0.3523,-37.2638
16:35:31:705,-2.2768,2.4335,13.7755,47.9816,-0.9017,-0.6289,-0.3534,-37.1042
16:35:31:725,-1.6917,2.4287,14.6351,47.9029,-0.4779,-0.9037,-0.2001,-36.9396
16:35:31:745,-0.3147,2.2325,14.3097,48.0672,-0.0507,-0.7695,0.064,-36.7738
16:35:31:766,1.0199,1.6839,13.9167,47.9408,0.1089,-0.6023,0.2313,-36.6148
16:35:31:790,1.0104,1.6187,13.8209,47.8424,-0.0997,-0.4852,0.1525,-36.4677
16:35:31:806,0.7657,1.5661,13.1115,47.8773,-0.3522,-0.1156,0.0395,-36.3305
16:35:31:826,0.6867,0.7065,11.7105,47.7664,-0.4257,0.5277,0.0609,-36.1993
16:35:31:846,-0.0245,0.4044,11.083,47.7149,-0.4332,0.78,-0.0467,-36.0742
16:35:31:866,-0.4439,0.2656,10.4524,47.6501,-0.398,0.3988,-0.2726,-35.9526
16:35:31:889,0.3488,0.0377,9.073,47.5399,-0.218,0.0389,-0.2758,-35.8264
16:35:31:906,0.6652,0.3589,8.2846,47.4432,-0.0475,0.1517,-0.116,-35.6946
16:35:31:927,0.1501,1.535,8.5364,47.3697,-0.1008,0.2241,-0.1756,-35.5617
16:35:31:947,0.1813,1.8562,8.7111,47.4664,-0.2403,-0.2594,-0.3481,-35.4259
16:35:31:967,0.4522,1.7127,7.8221,47.538,-0.2265,-0.6012,-0.3811,-35.2809
16:35:31:988,0.5432,1.5494,7.2329,47.3394,-0.1221,-0.2498,-0.331,-35.1257
16:35:32:008,0.1406,1.346,7.3555,47.2473,-0.0529,0.206,-0.3502,-34.9626
16:35:32:028,-0.3888,1.4632,7.5063,47.256,0.0153,0.3423,-0.5142,-34.7907
16:35:32:048,-0.4008,1.7868,7.5876,47.1808,0.143,0.2284,-0.5984,-34.6048
16:35:32:068,-0.7053,2.0668,7.8491,47.1723,0.3379,0.1581,-0.6367,-34.4013
16:35:32:090,-1.3065,2.0429,7.7743,47.0434,0.6341,0.3583,-0.7017,-34.1782
16:35:32:108,-2.1111,2.2947,7.197,46.8241,1.0238,0.9419,-0.6644,-33.9322
16:35:32:128,-3.0383,3.1017,6.0425,46.7177,1.3411,1.4073,-0.526,-33.6632
16:35:32:149,-3.0838,3.7699,6.0377,46.989,1.2912,0.8482,-0.3193,-33.3734
16:35:32:169,-2.3844,4.0361,7.5494,46.7307,0.8193,-0.3116,-0.133,-33.0702
16:35:32:189,-2.3557,4.0313,8.7206,46.4846,0.4136,-0.5969,-0.0766,-32.7636
16:35:32:209,-2.8181,3.9523,10.1868,46.4993,0.1174,-0.4309,-0.1479,-32.4594
16:35:32:230,-3.5222,3.4253,11.5041,46.3826,-0.169,-0.4767,-0.1948,-32.1574
16:35:32:249,-3.9703,3.0706,12.6323,46.4139,-0.3075,-0.5288,-0.1575,-31.8574
16:35:32:270,-3.9655,3.2985,13.2221,46.2045,-0.2766,-0.4788,0.0214,-31.5612
16:35:32:290,-3.7687,3.0897,12.9894,46.0343,-0.1402,-0.1699,0.2611,-31.2745
16:35:32:325,-3.6227,1.9567,12.8626,45.6959,-0.1072,0.1037,0.3483,-31.0032
16:35:32:332,-4.3603,1.3053,13.4925,45.7324,-0.332,-0.0005,0.2483,-30.7512
16:35:32:349,-4.133,1.0654,14.1727,45.7347,-0.6258,-0.2967,0.2718,-30.5148
16:35:32:370,-3.5988,0.4977,13.4758,45.5429,-0.5917,-0.3947,0.5475,-30.296
16:35:32:390,-3.6179,0.1436,12.2638,45.5833,-0.2712,-0.2615,0.6764,-30.1045
16:35:32:412,-3.2321,-0.2399,11.5639,45.5147,-0.0582,-0.2956,0.6136,-29.9419
16:35:32:431,-2.9498,-0.2183,11.2696,45.5631,-0.0869,-0.5001,0.6381,-29.8044
16:35:32:451,-2.6213,-0.0102,10.5512,45.728,-0.1477,-0.3659,0.7808,-29.6913
16:35:32:472,-1.9484,0.1962,9.1184,45.8449,-0.0454,0.041,1.0395,-29.6913
16:35:32:492,-0.9637,0.74,7.5876,45.8673,0.1835,0.418,1.3421,-29.6913
16:35:32:512,-0.3482,1.5805,6.457,46.1394,0.3614,0.5075,1.5168,-29.6913
16:35:32:532,-0.2142,2.2516,5.9707,46.2743,0.3816,0.3445,1.4486,-29.6913
16:35:32:552,-0.1687,2.3498,5.9539,46.1081,0.2389,0.1208,1.1833,-29.7891
16:35:32:573,-0.1448,2.074,5.875,46.1405,0.0929,-0.0644,0.915,-29.9244
16:35:32:593,-0.4319,1.995,5.5131,46.1131,0.1015,-0.0027,0.7776,-30.0866
16:35:32:613,-0.8321,2.2828,5.3192,46.0795,0.1877,0.2273,0.7893,-30.2699
16:35:32:633,-0.8249,2.7494,5.6375,46.0627,0.1846,0.3328,0.9076,-30.4741
16:35:32:656,-0.4415,3.0706,6.2824,46.0877,0.0505,0.222,0.9458,-30.703
16:35:32:674,-0.2405,3.1902,7.1611,45.9499,-0.1253,0.0581,0.8032,-30.9571
16:35:32:693,-0.5444,3.2836,8.2941,45.8411,-0.2723,-0.0613,0.4815,-31.2321
16:35:32:714,-1.2538,3.3081,9.2572,46.1428,-0.3138,-0.2541,0.1493,-31.5158
16:35:32:734,-1.4644,3.6168,10.0385,46.0513,-0.17,-0.3989,0.0001,-31.796
16:35:32:758,-1.2849,4.2754,10.8311,45.8928,0.0569,-0.4522,0.0491,-32.0667
16:35:32:774,-1.0881,4.7665,11.2624,45.8584,0.1877,-0.4309,0.1077,-32.329
16:35:32:794,-0.6329,4.6349,11.6219,45.9147,0.0993,-0.3297,0.0534,-32.5855
16:35:32:815,-0.4271,4.2873,12.6227,45.859,-0.2137,-0.3947,-0.0617,-32.8341
16:35:32:835,0.1693,3.128,13.5571,45.9528,-0.596,-0.6193,-0.2193,-33.0714
16:35:32:857,0.8112,1.2526,14.0865,45.8447,-0.8314,-0.5735,-0.3843,-33.2927
16:35:32:875,0.9476,0.0401,14.403,45.4914,-0.9571,-0.1475,-0.4301,-33.4926
16:35:32:895,0.4546,-0.1322,14.0291,45.3184,-1.005,0.4105,-0.2363,-33.6709
16:35:32:915,0.0712,-0.3978,12.5031,45.4799,-0.8421,0.9281,0.0427,-33.8361
16:35:32:935,0.131,-0.865,10.8957,45.6526,-0.4981,1.0453,0.1759,-33.9988
16:35:32:960,0.198,-0.7358,10.0672,45.5501,-0.1711,0.6363,0.0971,-34.1633
16:35:32:977,0.2937,-0.3763,9.4415,45.843,0.01,0.1868,-0.0169,-34.3266
16:35:32:996,0.2578,-0.0413,8.4335,46.088,0.0356,0.1101,-0.0574,-34.4845
16:35:33:016,0.1813,0.189,7.3071,46.2791,-0.0433,0.37,-0.0883,-34.6355
16:35:33:036,0.1286,0.4714,6.6509,46.6775,-0.1924,0.5415,-0.1192,-34.7791
16:35:33:062,0.1095,0.8668,6.524,46.6988,-0.3309,0.4212,-0.1565,-34.9137
16:35:33:076,0.0018,1.2574,6.3063,46.5415,-0.3458,0.2326,-0.215,-35.0393
16:35:33:096,-0.1519,1.5709,5.9803,46.8207,-0.2254,0.157,-0.2852,-35.1538
16:35:33:116,-0.3505,1.8419,5.9468,46.8061,-0.0795,0.09,-0.3747,-35.2549
16:35:33:138,-0.667,1.9304,5.9228,46.8134,0.0526,0.0581,-0.4429,-35.2549
16:35:33:159,-1.0594,1.8012,6.0999,46.7759,0.1792,0.0463,-0.4525,-35.2549
16:35:33:177,-1.4955,1.8084,6.4307,46.9431,0.257,-0.0378,-0.4162,-35.2549
16:35:33:197,-1.7689,1.928,7.2185,46.8803,0.2538,-0.0048,-0.33,-35.2549
16:35:33:217,-2.013,2.1864,8.0812,46.7701,0.1387,0.1005,-0.1852,-35.2549
16:35:33:237,-2.1876,2.4048,8.9868,46.8959,0.0206,0.288,0.0161,-35.2549
16:35:33:258,-2.5089,2.5579,10.0696,46.5764,-0.0071,0.4382,0.1759,-35.2549
16:35:33:278,-3.0335,2.9821,10.7617,46.4566,0.0632,0.5959,0.2995,-35.2549
16:35:33:297,-3.1077,3.3081,11.0949,46.2896,0.1057,0.7491,0.4325,-35.2549
16:35:33:318,-2.5376,3.4588,11.4586,46.0817,0.0728,0.7704,0.5156,-35.2549
16:35:33:338,-2.0704,3.9021,11.9928,45.7455,0.0675,0.6608,0.4836,-35.2549
16:35:33:360,-2.3079,4.5296,12.46,45.6227,0.1142,0.4276,0.2952,-35.2549
16:35:33:378,-2.8301,4.5607,12.7095,45.9393,0.1281,0.1538,-0.0137,-35.2549
16:35:33:399,-3.3428,4.4052,12.1053,45.9576,0.1569,0.1581,-0.2363,-35.2549
16:35:33:418,-3.3954,3.7699,11.5932,46.2287,0.1387,0.3445,-0.263,-35.2549
16:35:33:439,-3.5438,2.8911,12.216,46.4468,-0.0635,0.3104,-0.263,-35.2549
16:35:33:462,-3.9464,2.074,12.4002,46.4547,-0.1935,0.074,-0.3076,-35.2549
16:35:33:479,-4.2622,1.3101,11.9569,46.584,0.0345,-0.2594,-0.3204,-35.2549
16:35:33:500,-4.2885,0.5743,11.3725,46.7722,0.3635,-0.6406,-0.3246,-35.2549
16:35:33:520,-4.255,-0.2399,11.2241,46.914,0.4125,-0.8984,-0.2991,-35.2549
16:35:33:541,-3.7783,-0.8722,11.4993,46.7737,0.1196,-0.9772,-0.2108,-35.2549
16:35:33:561,-2.7601,-0.7956,11.3007,46.8423,-0.202,-0.7695,0.0353,-35.2549
16:35:33:580,-2.2522,-0.1944,9.6718,46.7486,-0.3149,-0.1337,0.3643,-35.2549
16:35:33:600,-2.0967,0.3398,7.7695,46.6125,-0.3778,0.6736,0.5923,-35.2549
16:35:33:624,-1.8718,0.548,6.3517,46.5419,-0.48,1.0357,0.7307,-35.2549
16:35:33:640,-1.2419,0.4187,5.4748,46.6338,-0.4363,0.7555,0.8234,-35.2549
16:35:33:662,-0.8584,0.7137,5.3695,46.7435,-0.1903,0.074,0.8511,-35.2549
16:35:33:681,-0.7914,1.142,5.9755,46.6659,0.0313,-0.6992,0.7712,-35.3621
16:35:33:701,-0.5587,1.1085,6.7011,46.7063,0.1654,-1.2306,0.6359,-35.492
16:35:33:726,-0.5635,0.8955,7.008,46.5561,0.3529,-1.2743,0.5252,-35.6385
16:35:33:742,-0.9829,1.0965,6.6532,46.5649,0.5712,-0.8462,0.49,-35.7968
16:35:33:761,-1.328,1.4824,6.481,46.5159,0.6277,-0.3361,0.5411,-35.9652
16:35:33:782,-1.2969,1.995,6.8309,46.5811,0.5105,-0.0943,0.5912,-36.145
16:35:33:802,-1.1503,2.5053,7.4369,46.5627,0.3838,0.0772,0.6051,-36.3378
16:35:33:827,-1.2419,2.8959,8.9868,46.2641,0.2304,0.1602,0.5273,-36.5443
16:35:33:842,-1.4094,3.0275,10.2156,46.2053,0.1632,-0.0027,0.3398,-36.7618
16:35:33:862,-1.6295,3.6622,10.544,46.0737,0.3667,-0.2296,0.2089,-36.9837
16:35:33:883,-1.3687,4.1868,10.6875,46.1386,0.5031,-0.2551,0.2015,-37.2045
16:35:33:904,-1.0786,4.4195,11.013,46.0884,0.2985,0.0304,0.2079,-37.4236
16:35:33:926,-0.8752,4.41,12.0742,46.0949,-0.1061,0.3796,0.1684,-37.642
16:35:33:943,-0.6574,4.2203,13.3681,46.2234,-0.3905,0.4041,0.1141,-37.8595
16:35:33:965,-0.0843,3.789,13.9286,46.0186,-0.365,0.0836,0.0523,-38.0755
16:35:33:984,0.8255,3.5091,14.1631,46.0926,-0.1498,-0.3116,-0.0499,-38.2879
16:35:34:005,1.1635,2.5388,15.0209,46.0904,-0.1296,-0.5373,-0.2948,-38.4932
16:35:34:027,0.3511,1.0247,14.3934,46.1219,-0.219,-0.2913,-0.6825,-38.6822
16:35:34:045,-0.4032,-0.283,12.4816,46.1018,-0.0486,0.255,-0.9114,-38.8425
16:35:34:064,-0.6933,-0.8219,10.6923,46.1349,0.2144,0.5032,-0.8423,-38.966
16:35:34:085,-0.5827,-0.6449,9.3984,45.9449,0.3369,0.4265,-0.5931,-38.966
16:35:34:105,-0.2548,0.064,8.5125,45.8216,0.3443,0.2784,-0.3172,-38.966
16:35:34:127,0.1286,0.9386,7.8293,45.858,0.2985,0.1911,-0.1543,-38.966
16:35:34:146,0.052,1.413,6.8094,45.9815,0.2059,0.2497,-0.2246,-38.966
16:35:34:166,-0.2429,1.4752,6.3015,45.9789,0.0366,0.353,-0.4056,-38.966
16:35:34:185,-0.5922,1.4321,6.143,45.8686,-0.1892,0.3839,-0.5228,-38.966
16:35:34:205,-0.8249,1.4776,5.8798,45.6064,-0.2734,0.3455,-0.511,-38.966
16:35:34:229,-0.7651,1.6714,5.3647,45.7582,-0.1391,0.1676,-0.3885,-38.966
16:35:34:246,-0.5731,2.1314,4.9286,45.716,0.0771,-0.1103,-0.2395,-38.966
16:35:34:266,-0.408,2.6154,4.6989,45.5668,0.2048,-0.3403,-0.1437,-38.966
16:35:34:286,-0.3817,3.0108,4.8951,45.6773,0.1952,-0.4596,-0.1586,-38.966
16:35:34:306,-0.4032,3.2333,5.01,45.5677,0.0866,-0.3627,-0.2555,-38.966
16:35:34:329,-0.5515,3.5091,5.1805,45.5837,-0.0795,-0.0421,-0.3385,-38.966
16:35:34:372,-0.585,3.5545,6.6987,45.6669,-0.3863,0.1389,-0.4226,-38.966
16:35:34:373,-0.4869,3.6383,9.2812,45.7333,-0.7813,0.1463,-0.4887,-38.966
16:35:34:386,-0.7842,3.8034,11.8947,45.4984,-1.004,0.1815,-0.5057,-38.966
16:35:34:408,-1.7402,3.4684,13.5763,45.6262,-0.8698,0.2731,-0.5377,-38.8673
16:35:34:428,-2.3557,2.7422,13.8736,45.7581,-0.4129,0.3413,-0.5228,-38.7578
16:35:34:448,-2.4706,3.0467,13.3131,45.8623,0.0855,0.3807,-0.3459,-38.6358
16:35:34:468,-2.4945,3.6694,13.3083,45.839,0.3049,0.3626,-0.1298,-38.5051
16:35:34:488,-3.1938,3.655,13.8114,45.7688,0.2549,0.321,-0.1522,-38.3723
16:35:34:508,-3.9966,3.6526,13.4662,45.894,0.2154,0.3562,-0.2758,-38.2364
16:35:34:529,-4.3029,3.667,13.3442,46.0034,0.2389,0.4222,-0.2406,-38.0936
16:35:34:549,-4.3125,2.9462,14.8606,45.9612,0.1196,0.2433,-0.1895,-37.9455
16:35:34:569,-4.6217,1.8873,15.2698,45.892,0.0558,-0.0549,-0.2023,-37.795
16:35:34:596,-4.8849,1.4465,13.4973,45.7709,0.4967,-0.1369,-0.0766,-37.6416
16:35:34:609,-5.2421,1.8993,10.4883,45.5302,1.1815,0.0005,0.2079,-37.4867
16:35:34:633,-5.0291,1.9926,8.1386,45.5728,1.4295,0.2369,0.4442,-37.335
16:35:34:650,-4.2574,1.3125,7.3268,45.5206,0.9876,0.3306,0.5252,-37.1917
16:35:34:670,-3.5773,0.7304,7.547,45.3841,0.3188,0.3764,0.5113,-37.062
