Time,Acc_X,Acc_Y,Acc_Z,Meg,Gyr_X,Gyr_Y,Gyr_Z,Ore
16:56:41:270,-0.7484,3.6479,9.3075,61.4548,-0.1019,-0.0208,0.113,-124.7746
16:56:41:290,-0.9087,3.5163,9.3362,61.4338,-0.0433,0.0613,0.0182,-124.7746
16:56:41:311,-1.2634,3.3894,9.4247,61.4339,0.0387,0.041,-0.0563,-124.7746
16:56:41:332,-1.7109,3.2572,9.2429,61.2975,0.0515,0.0208,-0.0158,-124.7746
16:56:41:351,-1.6965,3.3176,9.073,61.2233,0.0313,0.0091,0.1173,-124.7746
16:56:41:374,-1.2323,3.6287,9.0849,61.2411,0.0228,0.041,0.227,-124.8946
16:56:41:400,-0.9733,3.871,8.9462,61.0586,0.0281,0.1218,0.21,-125.0289
16:56:41:421,-0.9422,3.8495,8.6441,60.9629,0.0111,0.1581,0.1503,-125.1618
16:56:41:442,-1.1001,3.6885,8.589,60.88,-0.0593,0.1325,0.0907,-125.2834
16:56:41:458,-0.9517,3.4804,8.7685,60.897,-0.1264,0.0772,0.0822,-125.3972
16:56:41:483,-0.7986,3.399,9.0347,60.8112,-0.1455,0.0964,0.0928,-125.5089
16:56:41:504,-0.7149,3.454,9.0993,61.2041,-0.1125,0.1091,0.0619,-125.6197
16:56:41:523,-0.7866,3.521,9.0371,61.4244,-0.0539,0.09,0.014,-125.7283
16:56:41:545,-0.9182,3.5115,9.0778,61.3051,-0.0582,0.0304,-0.018,-125.8313
16:56:41:563,-1.0092,3.521,9.2692,61.4021,-0.1008,0.0186,-0.0158,-125.93
16:56:41:584,-0.9589,3.5426,9.2142,61.4244,-0.1008,0.0953,0.0033,-126.0258
16:56:41:604,-0.9613,3.5545,9.0371,61.3094,-0.0699,0.1336,0.0023,-126.1191
16:56:41:625,-0.9637,3.588,9.0658,61.3337,-0.0433,0.0943,-0.0265,-126.1191
16:56:41:642,-1.1312,3.4277,8.9175,61.4744,-0.0294,0.0613,-0.068,-126.1191
16:56:41:663,-1.3352,3.3392,9.1424,61.4471,-0.0273,-0.0453,-0.0766,-126.1191
16:56:41:682,-1.2921,3.1902,9.3434,61.3315,-0.0241,-0.1401,-0.0457,-126.1191
16:56:41:705,-1.1121,3.3033,9.3075,61.4738,0.0249,-0.1305,0.0182,-126.1191
16:56:41:723,-1.0116,3.4301,9.3242,61.6538,0.0558,-0.0932,0.0374,-126.1191
16:56:41:742,-0.9972,3.4588,9.0658,61.6631,0.076,-0.0399,0.0268,-126.1191
16:56:41:765,-0.9446,3.612,9.3266,61.8163,0.0547,-0.0346,0.0119,-126.1191
16:56:41:786,-1.0044,3.466,9.2548,61.9544,0.0441,0.0048,-0.0244,-126.1191
16:56:41:807,-1.057,3.5186,9.0491,61.8637,0.0908,0.0229,-0.0212,-126.1191
16:56:41:826,-1.0714,3.521,9.006,61.6046,0.0972,-0.0325,-0.0126,-126.1191
16:56:41:843,-1.1049,3.5617,8.8355,61.5095,0.0983,-0.0602,-0.0105,-126.1191
16:56:41:863,-0.9398,3.6072,8.8211,61.3992,0.0569,-0.0815,0.0023,-126.1191
16:56:41:884,-0.8489,3.4277,9.0203,61.2713,-0.0252,-0.0719,-0.0222,-126.1191
16:56:41:904,-0.9326,3.3033,9.1831,61.2269,-0.0955,-0.0091,-0.0435,-126.1191
16:56:41:923,-0.9182,3.2548,9.4104,61.0232,-0.1306,0.0442,-0.0254,-126.1191
16:56:41:943,-0.8967,3.207,9.466,60.8829,-0.0763,0.0485,-0.0286,-126.1191
16:56:41:964,-0.9733,3.2022,9.3314,60.7743,-0.0007,0.0197,-0.0467,-126.1191
16:56:41:987,-0.9924,3.1543,9.1519,60.7971,0.0217,0.0133,-0.0478,-126.1191
16:56:42:001,-1.002,3.3129,9.0443,60.8053,0.0142,0.0304,-0.034,-126.1191
16:56:42:022,-0.9302,3.3392,8.9749,60.8053,0.0185,0.0154,-0.034,-126.1191
16:56:42:041,-0.9374,3.3009,9.0419,60.6941,0.0281,-0.0399,-0.0627,-126.1191
16:56:42:064,-1.0116,3.2405,8.9581,60.611,0.0462,-0.074,-0.0787,-126.1191
16:56:42:087,-1.0546,3.3464,8.9198,60.5951,0.026,-0.0634,-0.0702,-126.1191
16:56:42:104,-1.1145,3.4014,9.0562,60.6616,-0.0486,-0.0229,-0.0627,-126.1191
16:56:42:122,-1.1527,3.2961,9.2309,60.6598,-0.0912,0.0005,-0.0638,-126.1191
16:56:42:144,-1.1599,3.2865,9.1232,60.8484,-0.055,-0.0069,-0.0521,-126.1191
16:56:42:161,-1.148,3.3176,9.1232,60.826,-0.022,-0.0613,-0.0414,-126.1191
16:56:42:184,-1.0953,3.3272,9.0802,60.9833,-0.0103,-0.0889,-0.0308,-126.1191
16:56:42:203,-0.9996,3.3823,9.2381,61.1003,-0.0166,-0.0879,-0.0095,-126.1191
16:56:42:223,-0.8752,3.3942,9.1352,61.036,-0.0007,-0.0613,0.0033,-126.1191
16:56:42:242,-0.7747,3.5091,9.0969,61.2631,0.0036,-0.0538,-0.002,-126.1191
16:56:42:263,-0.7436,3.4277,9.1854,61.2746,-0.0252,-0.0783,-0.0403,-126.1191
16:56:42:282,-0.8249,3.2865,9.3912,61.2892,-0.0411,-0.0858,-0.0723,-126.1191
16:56:42:306,-0.8967,3.2913,9.3386,61.1128,-0.0017,-0.0591,-0.0702,-126.1191
16:56:42:328,-0.9159,3.478,9.1376,61.0975,0.0451,-0.008,-0.0499,-126.1191
16:56:42:348,-0.9613,3.4756,8.8331,60.9728,0.043,0.0261,-0.0574,-126.1191
16:56:42:359,-1.0522,3.3703,8.7805,61.0556,0.0153,-0.0368,-0.084,-126.1191
16:56:42:380,-1.1073,3.2261,8.939,61.3338,-0.0262,-0.1166,-0.0925,-126.1191
16:56:42:399,-1.0738,3.2285,9.0826,61.2942,-0.0582,-0.1017,-0.0574,-126.1191
16:56:42:420,-0.99,3.2572,9.0132,61.2652,-0.0752,-0.0208,-0.0073,-126.1191
16:56:42:440,-0.7986,3.2961,9.1137,61.4718,-0.0838,-0.0165,0.0097,-126.1191
16:56:42:460,-0.7412,3.332,9.1998,61.561,-0.0646,-0.0613,-0.0116,-126.1191
16:56:42:480,-0.7603,3.3511,9.1878,61.4211,-0.0358,-0.0698,-0.0318,-126.1191
16:56:42:500,-0.7627,3.387,9.0514,61.5917,-0.0294,-0.0314,-0.0276,-126.1191
16:56:42:521,-0.7531,3.3775,9.0802,61.462,-0.0443,-0.024,-0.0254,-126.1191
16:56:42:541,-0.7962,3.3751,8.9222,61.3434,-0.022,-0.0421,-0.0286,-126.1191
16:56:42:562,-0.7603,3.4086,8.8283,61.2289,-0.0081,-0.0889,-0.0233,-126.1191
16:56:42:580,-0.6742,3.4708,8.8546,61.3973,-0.0401,-0.1198,-0.0137,-126.1191
16:56:42:600,-0.6377,3.5186,8.9845,61.4213,-0.0827,-0.1198,-0.0126,-126.1191
16:56:42:621,-0.7029,3.612,9.1543,61.411,-0.0688,-0.1209,-0.0286,-126.1191
16:56:42:641,-0.734,3.6694,8.9725,61.6367,-0.0188,-0.0996,-0.0308,-126.1191
16:56:42:661,-0.8273,3.6718,8.8259,61.5953,-0.0582,-0.0453,-0.0286,-126.1191
16:56:42:682,-0.8201,3.5043,9.4732,61.6256,-0.1935,-0.0538,-0.0329,-126.1191
16:56:42:702,-0.9924,3.4301,9.9039,61.6806,-0.2308,-0.0389,-0.019,-126.1191
16:56:42:722,-1.0618,3.3966,9.722,61.7264,-0.1317,-0.0069,0.0268,-126.1191
16:56:42:742,-0.8034,3.3176,9.3936,61.7421,-0.0614,-0.0378,0.0843,-126.1191
16:56:42:762,-0.5252,3.1759,9.466,61.508,-0.0901,-0.0836,0.1152,-126.1191
16:56:42:783,-0.4965,3.0634,9.5904,61.4862,-0.0859,-0.0772,0.1237,-126.1191
16:56:42:803,-0.4391,3.0658,9.4199,61.5919,0.0089,-0.0549,0.1386,-126.1191
16:56:42:825,-0.3912,3.1759,9.0443,61.423,0.1036,-0.0581,0.1439,-126.1191
16:56:42:845,-0.3721,3.1783,8.9001,61.5251,0.1068,-0.0815,0.1088,-126.1191
16:56:42:863,-0.3745,3.2285,8.9868,61.5711,0.0473,-0.0751,0.08,-126.1191
16:56:42:883,-0.4175,3.3464,9.1472,61.6252,0.0025,-0.0442,0.0672,-126.1191
16:56:42:904,-0.4487,3.3751,9.2022,61.4808,0.0196,-0.0346,0.0619,-126.1191
16:56:42:924,-0.4271,3.3607,9.0969,61.6964,0.0441,-0.0144,0.0587,-126.1191
16:56:42:945,-0.4128,3.4564,9.0538,61.755,0.0164,0.0314,0.0598,-126.1191
16:56:42:964,-0.4367,3.5139,8.9318,61.6503,-0.0081,0.0549,0.047,-126.1191
16:56:42:985,-0.475,3.466,8.9222,61.9408,-0.0177,0.0165,0.0065,-126.1191
16:56:43:004,-0.6646,3.4325,8.9246,61.9527,-0.0252,-0.0368,-0.0233,-126.1191
16:56:43:024,-0.652,3.4732,8.7254,61.9431,-0.0209,-0.041,0.0087,-126.1191
16:56:43:045,-0.4128,3.5737,8.5866,62.0119,-0.0475,-0.0421,0.0598,-126.1191
16:56:43:066,-0.4032,3.746,8.5627,62.0909,-0.1178,-0.0506,0.0438,-126.1191
16:56:43:085,-0.734,3.9882,8.4861,62.1006,-0.1732,-0.0229,0.0001,-126.1191
16:56:43:107,-1.0403,4.0983,8.2511,62.0947,-0.2105,0.0495,0.0065,-126.1191
16:56:43:125,-1.2084,4.3137,8.0237,62.223,-0.2148,0.1314,0.0779,-126.1191
16:56:43:146,-1.2395,4.5918,7.669,62.2723,-0.1541,0.1879,0.1599,-126.1191
16:56:43:165,-1.206,4.8263,7.1707,62.3212,-0.0635,0.1527,0.1684,-126.1191
16:56:43:185,-1.2491,4.6851,7.1085,62.5551,-0.0838,-0.0804,0.0513,-126.1191
16:56:43:206,-1.5194,4.3041,8.0118,62.3777,-0.2308,-0.3936,-0.1298,-126.1191
16:56:43:258,-1.7037,3.5306,9.0682,62.3863,-0.3394,-0.4831,-0.2278,-126.1191
16:56:43:260,-1.6199,2.9653,9.3577,62.3802,-0.2851,-0.3521,-0.1671,-126.1191
16:56:43:266,-1.4261,2.8193,9.0251,62.3835,-0.1903,-0.188,-0.0148,-126.1191
16:56:43:286,-1.2945,3.1902,8.522,62.4535,-0.1977,0.0144,0.1557,-126.1191
16:56:43:306,-1.1719,3.5521,8.0716,62.2165,-0.2574,0.1666,0.2739,-126.1191
16:56:43:327,-0.8369,3.7029,7.8245,62.1639,-0.2979,0.1101,0.3282,-126.1191
16:56:43:348,-0.5779,3.8375,7.6881,62.0765,-0.2968,-0.073,0.3293,-126.1191
16:56:43:368,-0.2812,3.9404,7.6953,62.3295,-0.2979,-0.2509,0.3016,-126.1191
16:56:43:388,-0.0102,4.0576,7.8682,62.4609,-0.3628,-0.3063,0.259,-126.2127
16:56:43:407,0.1597,4.1366,8.2965,62.6743,-0.4662,-0.2892,0.1897,-126.3119
16:56:43:428,0.1478,4.1462,8.8546,62.9811,-0.4672,-0.3116,0.0672,-126.4138
16:56:43:448,-0.2429,3.9165,9.7196,63.2923,-0.4118,-0.3521,-0.0862,-126.5135
16:56:43:469,-1.0427,3.7579,11.0925,63.784,-0.3959,-0.3872,-0.2023,-126.6059
16:56:43:489,-1.7976,3.7579,11.9115,64.1125,-0.2457,-0.4245,-0.1873,-126.6059
16:56:43:509,-1.8431,4.127,12.1244,64.3193,0.0473,-0.5373,-0.018,-126.6059
16:56:43:529,-1.2658,4.7234,12.3547,64.5789,0.2591,-0.7077,0.1887,-126.6059
16:56:43:549,-0.1759,5.1978,12.6156,64.8619,0.2857,-0.7546,0.3654,-126.6975
16:56:43:568,1.0558,5.1571,12.6927,64.8788,0.1739,-0.5991,0.4783,-126.8008
16:56:43:589,2.2965,4.9753,12.7358,64.9063,0.0505,-0.3627,0.5166,-126.9182
16:56:43:609,3.4439,4.7186,12.8195,64.8689,-0.0731,-0.1838,0.4612,-127.0505
16:56:43:630,4.2227,3.6598,12.8794,64.9062,-0.2222,-0.0815,0.2451,-127.1925
16:56:43:650,4.6343,2.1769,13.078,64.9934,-0.3266,0.0016,-0.0478,-127.3371
16:56:43:669,4.206,0.9936,13.0229,65.0699,-0.1828,0.0783,-0.3481,-127.4732
16:56:43:689,3.195,0.3254,11.8421,65.2041,0.2666,0.1921,-0.5941,-127.5947
16:56:43:710,2.4185,0.0233,9.8345,65.178,0.7043,0.1911,-0.7017,-127.6969
16:56:43:731,1.9513,0.0185,8.2989,65.0401,0.7756,0.0399,-0.7177,-127.6969
16:56:43:751,1.5685,0.4403,7.4824,64.9704,0.5212,0.0272,-0.6325,-127.6969
16:56:43:771,1.2736,1.4273,7.1085,64.7007,0.2186,0.1581,-0.4407,-127.6969
16:56:43:791,1.2855,2.3952,6.615,64.5666,0.0398,0.2603,-0.2395,-127.6969
16:56:43:812,1.4148,3.0778,6.0497,64.4452,-0.0603,0.2422,-0.1788,-127.6969
16:56:43:831,1.5111,3.3679,5.7147,64.0818,-0.1541,0.0783,-0.2694,-127.6969
16:56:43:852,1.8197,3.3153,5.8678,63.9374,-0.2563,-0.2029,-0.3736,-127.6969
16:56:43:872,2.2152,3.1998,6.6604,63.8761,-0.3756,-0.416,-0.4844,-127.6969
16:56:43:892,2.4138,3.0275,7.4249,63.8943,-0.3767,-0.3787,-0.6517,-127.6969
16:56:43:913,1.9202,2.7523,7.5087,63.9824,-0.1764,-0.1763,-0.8572,-127.6969
16:56:43:934,0.9625,2.5771,6.9601,63.9533,0.1142,0.0261,-1.0031,-127.6969
16:56:43:954,0.1238,2.735,6.5097,63.8554,0.3188,0.057,-1.0116,-127.5922
16:56:43:974,-0.3338,2.9007,6.4786,64.0085,0.3923,-0.09,-0.9338,-127.4576
16:56:43:994,-0.3625,3.0443,6.8309,63.8745,0.3688,-0.2349,-0.7923,-127.2981
16:56:44:013,-0.1155,3.4828,7.4369,63.7355,0.2272,-0.1614,-0.5984,-127.1187
16:56:44:034,-0.0556,4.0887,8.3276,63.753,-0.0198,0.0815,-0.4557,-126.9256
16:56:44:054,-0.1304,4.386,9.3793,63.7937,-0.3277,0.2763,-0.4056,-126.7234
16:56:44:075,-0.0006,4.5248,11.4802,63.562,-0.6674,0.1644,-0.4098,-126.5142
16:56:44:093,0.4834,4.5942,14.5585,63.6035,-0.7675,-0.2349,-0.5036,-126.2978
16:56:44:114,0.4379,4.2275,16.3573,63.5027,-0.3085,-0.4565,-0.6698,-126.0732
16:56:44:133,-0.8082,3.9835,15.4762,63.4607,0.47,-0.1891,-0.7358,-125.837
16:56:44:154,-1.7689,4.0385,13.3633,63.3274,0.9162,0.2273,-0.4727,-125.5885
16:56:44:174,-1.5864,4.0696,11.7942,63.1903,0.8172,0.4595,-0.0574,-125.3358
16:56:44:193,-1.2658,3.6694,11.4371,63.0391,0.4114,0.5639,0.1695,-125.0924
16:56:44:214,-1.5458,3.0754,10.9843,62.9138,0.1473,0.7768,0.2302,-124.8662
16:56:44:234,-2.2983,2.7858,10.2012,62.5691,0.2304,0.7576,0.2228,-124.6599
16:56:44:254,-2.9474,2.4814,9.1137,62.1165,0.3869,0.386,0.2015,-124.4723
16:56:44:274,-2.9139,1.7797,8.7733,61.8936,0.274,-0.1465,0.2185,-124.3061
16:56:44:294,-1.8096,0.8644,9.4008,61.8148,-0.1019,-0.5479,0.3314,-124.1617
16:56:44:314,-0.4941,0.5192,10.3472,61.6089,-0.382,-0.5458,0.4996,-124.0432
16:56:44:338,0.0999,0.7089,10.328,61.3155,-0.268,-0.1358,0.6082,-124.0432
16:56:44:360,0.1525,1.2311,8.3904,60.9791,0.2122,0.3445,0.6242,-124.0432
16:56:44:375,-0.0245,1.727,6.0999,60.8067,0.6373,0.4798,0.5603,-124.0432
16:56:44:395,-0.1472,2.007,4.4901,60.7636,0.6873,0.3658,0.4549,-124.0432
16:56:44:419,-0.4558,2.2301,3.9559,60.66,0.4509,0.1527,0.3473,-124.0432
16:56:44:438,-0.6042,2.4837,4.5021,60.5463,0.1483,-0.0932,0.3334,-124.0432
16:56:44:460,-0.6066,2.8241,5.3527,60.3214,-0.0433,-0.1518,0.4005,-124.0432
16:56:44:479,-0.4798,3.1208,5.8654,60.1756,-0.0859,-0.0463,0.4549,-124.0432
16:56:44:501,-0.3482,3.3751,6.3924,60.1184,-0.071,0.0357,0.4346,-124.1345
16:56:44:519,-0.3864,3.4612,7.0558,60.2704,-0.0816,0.0474,0.3451,-124.2433
16:56:44:541,-0.3721,3.6861,7.5206,60.2709,-0.1445,0.1325,0.26,-124.3667
16:56:44:561,-0.3912,3.7699,8.5364,60.2464,-0.2648,0.2667,0.1407,-124.501
16:56:44:579,-0.7962,3.2692,10.1605,60.2305,-0.3565,0.4254,0.0065,-124.6411
16:56:44:599,-1.5745,3.4086,10.7761,60.1443,-0.219,0.6992,0.064,-124.7831
16:56:44:619,-1.8431,4.4411,10.1701,59.7999,-0.0252,0.7949,0.3005,-124.9298
16:56:44:640,-1.1892,5.1236,10.6708,59.6791,-0.2276,0.4052,0.359,-125.0889
16:56:44:660,-0.341,4.9513,12.8052,59.7237,-0.71,0.0623,0.2015,-125.2609
16:56:44:679,0.0568,4.6851,14.3312,59.6262,-0.8889,0.0229,0.0896,-125.4403
16:56:44:701,0.7226,3.7484,14.3886,59.3417,-0.7206,-0.0293,0.0087,-125.6233
16:56:44:719,1.3597,2.5364,14.4724,59.2767,-0.5513,-0.2178,-0.1479,-125.8049
16:56:44:740,1.4674,1.1617,14.8726,59.0093,-0.4545,-0.3052,-0.3246,-125.9814
16:56:44:761,0.7346,0.2034,14.5657,58.7693,-0.17,-0.123,-0.3683,-126.1474
16:56:44:782,0.0042,0.1388,12.798,58.6386,0.3656,0.0666,-0.231,-126.303
16:56:44:802,-0.0269,0.3374,10.5075,58.5337,0.7969,-0.073,-0.0446,-126.454
16:56:44:820,0.7178,0.8931,8.8379,58.1379,0.8214,-0.4096,0.0822,-126.6063
16:56:44:841,1.4967,1.5494,7.9304,57.6496,0.4658,-0.5511,0.0364,-126.7604
16:56:44:861,1.4411,1.7844,7.3531,57.4513,-0.0561,-0.302,-0.2161,-126.9135
16:56:44:882,0.6437,1.6211,6.7513,56.9404,-0.4917,0.1708,-0.494,-127.0575
16:56:44:900,-0.2213,1.413,6.3135,56.8668,-0.6951,0.5181,-0.5931,-127.1831
16:56:44:922,-0.609,1.4273,6.1573,56.8268,-0.6514,0.516,-0.5057,-127.2858
16:56:44:940,-0.396,1.5565,6.1741,56.8427,-0.3852,0.1751,-0.3417,-127.2858
16:56:44:962,0.1573,1.8849,6.0066,56.5245,-0.0103,-0.2487,-0.2204,-127.2858
16:56:44:980,0.4642,2.3976,5.9779,56.3739,0.2538,-0.5309,-0.2204,-127.2858
16:56:45:002,0.4666,2.6393,6.4905,56.1316,0.3262,-0.6076,-0.3204,-127.2858
16:56:45:020,0.1693,2.6177,6.8309,55.9117,0.3539,-0.4309,-0.428,-127.2858
16:56:45:041,-0.4965,2.8385,6.2871,56.0244,0.4114,-0.1198,-0.4375,-127.2858
16:56:45:061,-0.9757,3.4516,6.1023,55.8749,0.3422,-0.0272,-0.3012,-127.2858
16:56:45:081,-0.2261,4.1198,7.5039,55.6784,0.0993,-0.2849,-0.0521,-127.2858
16:56:45:103,0.9141,4.8694,10.0576,55.3429,-0.1019,-0.5586,0.096,-127.2858
16:56:45:121,2.0716,5.0662,11.8134,55.232,-0.0156,-0.5055,-0.0329,-127.2858
16:56:45:142,2.4784,5.1188,12.2853,55.1161,0.1941,-0.1965,-0.3843,-127.2858
16:56:45:163,2.0524,4.6564,13.1713,54.9977,0.127,0.0272,-0.8562,-127.2858
16:56:45:184,0.926,3.5426,14.6279,54.8894,-0.0507,0.1101,-1.2736,-127.2858
16:56:45:203,-0.8776,2.3593,15.4235,54.581,0.0718,0.2646,-1.4302,-127.2858
16:56:45:222,-2.9043,2.4622,14.2881,54.3644,0.6064,0.7459,-1.116,-127.1769
16:56:45:274,-3.7041,3.8853,11.272,53.9948,1.2049,1.2285,-0.4578,-127.035
16:56:45:276,-3.5868,4.4195,8.857,53.7985,1.2837,1.073,-0.0478,-126.882
16:56:45:283,-3.2656,4.1055,8.7135,53.715,0.7628,0.468,0.0545,-126.7299
16:56:45:304,-2.8923,3.2788,9.8106,53.4732,0.2282,0.0911,0.129,-126.5834
16:56:45:323,-2.9833,2.4861,9.6311,53.1858,0.1249,0.1708,0.1802,-126.4476
16:56:45:344,-3.1412,1.8658,8.2176,53.1611,0.2101,0.3296,0.2196,-126.3253
16:56:45:364,-2.8062,1.7701,7.4967,53.0019,0.0483,0.255,0.308,-126.2178
16:56:45:383,-1.7378,1.6259,7.6666,52.6176,-0.43,0.09,0.4282,-126.2178
16:56:45:404,-1.0427,1.255,8.5843,52.367,-1.0658,0.0549,0.4357,-126.2178
16:56:45:425,-0.7986,0.6945,9.6885,52.182,-1.4917,0.0953,0.4005,-126.2178
16:56:45:444,-0.4941,0.4642,10.285,51.8455,-1.3596,0.008,0.4921,-126.2178
16:56:45:465,-0.0293,0.591,9.5019,51.5332,-0.6631,-0.2061,0.6626,-126.2178
16:56:45:485,0.3894,1.0702,7.5637,51.6315,0.1441,-0.5001,0.8213,-126.2178
16:56:45:505,0.9356,1.806,6.0784,51.2949,0.5403,-0.8217,0.9342,-126.2178
16:56:45:525,1.4674,2.3521,5.3862,51.1511,0.4903,-0.908,0.9257,-126.3229
16:56:45:545,1.6881,2.7302,5.0985,51.2391,0.2346,-0.6555,0.7734,-126.4583
16:56:45:566,1.3167,2.8696,5.3408,51.1915,-0.0859,-0.3031,0.5102,-126.6174
16:56:45:585,0.6293,2.5196,5.9037,51.1613,-0.3479,-0.0186,0.2462,-126.7899
16:56:45:606,0.0568,2.3186,6.5432,51.095,-0.414,0.0932,0.1013,-126.9674
16:56:45:625,-0.2548,2.4024,7.1252,51.1719,-0.3021,-0.0453,0.0459,-127.1436
16:56:45:646,-0.2644,2.4191,7.8538,51.1573,-0.1636,-0.4043,-0.0126,-127.3171
16:56:45:666,-0.2189,2.7087,9.1208,51.2001,-0.0944,-0.7929,-0.1117,-127.4867
16:56:45:688,0.1167,3.1639,10.0361,51.0247,0.0238,-0.8568,-0.1714,-127.6488
16:56:45:707,0.4014,3.6574,10.5655,50.9174,0.0356,-0.5895,-0.2481,-127.8019
16:56:45:726,0.1095,3.7842,12.0933,50.9701,-0.3447,-0.1507,-0.4248,-127.9421
16:56:45:747,-0.6742,3.7555,13.3298,50.9685,-0.7068,0.3615,-0.5142,-128.0634
16:56:45:768,-1.0187,4.328,13.5332,50.8632,-0.678,0.5117,-0.3427,-128.163
16:56:45:789,-0.1663,4.5631,14.0219,50.9354,-0.5864,0.2103,-0.1501,-128.163
16:56:45:808,0.5671,3.5809,15.4259,50.9128,-0.7238,-0.1486,-0.2662,-128.163
16:56:45:828,0.5073,1.8323,17.0788,50.7967,-0.8261,-0.2328,-0.4951,-128.163
16:56:45:848,-0.0221,0.2752,17.2846,50.7524,-0.4651,0.0261,-0.4855,-128.163
16:56:45:868,-0.6281,-0.149,15.4953,50.7818,0.3646,0.3828,-0.1863,-128.163
16:56:45:888,-0.5348,0.2082,11.7942,50.5269,1.2507,0.5309,0.2206,-128.163
16:56:45:908,0.5623,1.2885,8.0548,50.3507,1.6277,0.2433,0.5028,-128.163
16:56:45:929,1.9322,2.2229,6.0903,50.2963,1.1229,-0.2541,0.4208,-128.163
16:56:45:948,2.3037,1.8754,5.8463,49.9315,-0.0294,-0.3403,-0.0521,-128.163
16:56:45:969,1.3621,0.9936,6.481,49.541,-1.0647,0.1186,-0.4993,-128.163
16:56:45:990,0.2722,0.4259,6.4068,49.4823,-1.5066,0.6236,-0.6367,-128.163
16:56:46:009,0.277,0.4738,6.0329,49.1959,-1.4726,0.7545,-0.5355,-128.163
16:56:46:029,0.6652,0.8716,5.7338,48.9097,-1.1775,0.5106,-0.4652,-128.163
16:56:46:050,0.3894,1.1928,6.0185,48.8731,-0.7174,-0.0186,-0.5899,-128.163
16:56:46:069,-0.0676,0.8788,6.7609,48.6495,-0.0806,-0.68,-0.7198,-128.163
16:56:46:091,-0.384,0.6156,6.6556,48.2649,0.7064,-1.0401,-0.6847,-128.163
16:56:46:110,-0.3673,1.142,5.6088,48.3769,1.3017,-0.9953,-0.4855,-128.163
16:56:46:131,-0.451,2.1218,4.4973,48.3178,1.3571,-0.7365,-0.3065,-128.163
16:56:46:150,-0.6885,2.7326,4.4112,47.9914,0.8438,-0.4991,-0.2683,-128.0726
16:56:46:171,-0.4056,2.9007,5.4604,48.0669,0.0153,-0.2732,-0.2087,-127.9755
16:56:46:190,-0.0532,3.2213,8.4598,48.0599,-0.8176,0.0485,-0.1352,-127.8722
16:56:46:211,-0.2285,2.793,12.3835,47.9762,-1.3405,0.4521,-0.231,-127.7653
16:56:46:231,-1.3615,2.6082,14.8199,47.8991,-1.1381,0.8684,-0.2715,-127.6508
16:56:46:251,-2.4849,2.9605,14.6925,48.1335,-0.349,1.0548,-0.0585,-127.5294
16:56:46:271,-2.7458,3.5019,13.8473,47.9734,0.2857,0.8407,0.2483,-127.4105
16:56:46:292,-2.528,3.655,13.7079,47.8939,0.4551,0.4329,0.4719,-127.3044
16:56:46:314,-1.9388,4.0026,14.4293,47.6015,0.4956,-0.0112,0.6817,-127.3044
16:56:46:334,-0.7316,4.4004,14.9372,47.2214,0.6799,-0.3787,0.8948,-127.3044
16:56:46:353,0.7107,4.1868,14.683,47.1035,0.8608,-0.5341,0.9607,-127.3044
16:56:46:375,1.6929,3.2022,14.6854,47.0659,0.8576,-0.4224,0.8021,-127.3044
16:56:46:394,0.9236,2.1338,14.1129,46.8191,0.9407,-0.0005,0.5284,-127.3044
16:56:46:414,-0.396,2.1051,11.2863,46.7326,1.4018,0.4989,0.4517,-127.3044
16:56:46:433,-1.1767,2.5507,7.8682,46.6008,1.6831,0.6672,0.5284,-127.3044
16:56:46:454,-1.4979,2.8696,5.7912,46.5129,1.2742,0.4627,0.506,-127.3044
16:56:46:473,-1.0355,2.522,5.458,46.4621,0.4083,0.0421,0.4059,-127.4072
16:56:46:494,-0.3314,1.8586,6.4857,46.6314,-0.5056,-0.2999,0.3112,-127.5211
16:56:46:512,-0.0173,1.1228,7.6618,46.5019,-1.1265,-0.4011,0.2174,-127.6432
16:56:46:533,-0.0245,0.5168,8.2774,46.2397,-1.3234,-0.3563,0.2036,-127.7701
16:56:46:553,0.0592,0.3087,8.4431,46.0134,-1.1572,-0.3787,0.3398,-127.9014
16:56:46:574,0.3823,0.3637,8.2798,45.8638,-0.759,-0.4873,0.5731,-128.042
16:56:46:593,0.9577,0.7208,7.2688,45.8596,-0.219,-0.5767,0.7957,-128.1997
16:56:46:614,1.4195,1.4345,6.39,45.7509,0.1846,-0.6758,0.9118,-128.3808
16:56:46:634,1.4794,1.7892,6.347,45.8197,0.2698,-0.6395,0.8074,-128.5893
16:56:46:654,0.9745,2.117,6.2489,45.861,0.2751,-0.3446,0.6264,-128.8202
16:56:46:675,0.186,2.4957,6.4092,45.781,0.1973,0.0037,0.5028,-129.0664
16:56:46:695,-0.1543,2.5842,6.9936,45.8621,-0.0678,0.3615,0.4399,-129.322
16:56:46:715,-0.195,2.2899,8.0907,46.1384,-0.3841,0.6108,0.3345,-129.5839
16:56:46:735,-0.4965,2.007,9.1759,46.2322,-0.4332,0.5873,0.1599,-129.8482
16:56:46:755,-0.8632,2.2851,9.4684,46.1939,-0.0912,0.3114,0.063,-130.109
16:56:46:776,-0.9494,3.0802,8.9342,46.1053,0.2879,0.0517,0.0726,-130.3644
16:56:46:795,-0.4367,3.8925,9.0299,46.2688,0.2549,-0.0858,0.0854,-130.6146
16:56:46:815,0.32,4.477,10.4094,46.1562,-0.1711,0.0016,0.0044,-130.8596
16:56:46:835,0.2219,4.1557,12.326,46.2894,-0.5513,0.2081,-0.1756,-131.0943
16:56:46:856,-0.1567,3.5163,13.797,46.4563,-0.5811,0.3551,-0.1799,-131.3122
16:56:46:876,-0.3075,3.5067,14.6375,46.389,-0.43,0.549,0.0577,-131.514
16:56:46:896,0.3224,3.4277,13.6696,46.1643,-0.1786,0.7003,0.2814,-131.7099
16:56:46:916,2.2534,2.4383,13.2963,46.1764,-0.1711,0.4233,0.3037,-131.9085
16:56:46:937,3.0365,0.8118,14.8199,46.2014,-0.5491,0.1495,0.0055,-132.1101
16:56:46:957,2.1051,-0.7167,15.5192,46.0806,-0.496,0.2486,-0.3438,-132.3035
16:56:46:976,1.2855,-1.6008,13.3944,45.9082,0.274,0.3658,-0.3449,-132.4784
16:56:46:997,1.0654,-0.4217,9.5713,45.7677,1.0345,0.2955,-0.0244,-132.6364
16:56:47:018,1.4483,0.8333,6.3972,45.4514,1.011,0.0858,0.1738,-132.7898
16:56:47:038,1.6307,1.4106,5.2499,45.1356,0.2229,-0.1134,0.0545,-132.9449
16:56:47:057,1.4028,0.996,6.3422,45.073,-0.7771,-0.1188,-0.2161,-133.0959
16:56:47:078,0.6939,0.4235,7.8586,44.9079,-1.3927,0.0229,-0.3917,-133.2335
16:56:47:100,0.2865,0.2058,8.6034,44.8004,-1.4022,0.1144,-0.3885,-133.3527
16:56:47:118,0.2459,0.3852,8.4407,44.7611,-0.9976,0.2103,-0.2608,-133.4547
16:56:47:139,0.2291,0.8644,7.4776,45.0215,-0.4853,0.3168,-0.1671,-133.5452
16:56:47:158,0.2124,1.0391,6.9242,44.9852,-0.0965,0.1953,-0.1788,-133.5452
16:56:47:180,0.1741,1.5517,6.2656,45.0659,0.2549,-0.0133,-0.2023,-133.5452
16:56:47:199,0.2148,2.2421,5.6351,45.3076,0.5201,-0.1294,-0.2012,-133.5452
16:56:47:219,0.3176,2.6991,4.9813,45.3964,0.5691,-0.0751,-0.2513,-133.5452
16:56:47:239,0.3392,3.1448,4.6241,45.4736,0.4083,-0.0048,-0.3662,-133.5452
16:56:47:285,0.5623,3.3823,5.4509,45.5027,0.059,-0.1017,-0.4983,-133.5452
16:56:47:286,0.5049,3.1663,7.4082,45.3654,-0.3032,-0.2285,-0.6506,-133.5452
16:56:47:300,-0.1974,2.9988,10.0146,45.0757,-0.4268,-0.1731,-0.7411,-133.5452
16:56:47:319,-1.2251,3.1831,11.9234,45.0826,-0.2148,0.1272,-0.6474,-133.5452
16:56:47:339,-1.5051,3.6909,12.4193,45.087,0.1707,0.3519,-0.3566,-133.5452
16:56:47:360,-1.517,4.0648,13.4566,45.02,0.1963,0.3647,-0.1522,-133.5452
16:56:47:381,-1.812,3.5354,15.0305,44.9145,-0.0933,0.4158,-0.1639,-133.5452
16:56:47:401,-2.5448,3.2309,16.4052,45.0675,-0.1157,0.4915,-0.0819,-133.449
16:56:47:420,-3.189,3.4325,16.5709,45.1397,0.2336,0.5639,0.2313,-133.3519
16:56:47:441,-3.0766,3.4493,15.1358,45.2416,0.6554,0.5511,0.6434,-133.3519
16:56:47:461,-2.3557,2.4024,14.0219,45.5044,0.8811,0.0889,0.8767,-133.3519
16:56:47:481,-1.4572,1.1109,13.5835,45.5956,1.0483,-0.5575,0.9331,-133.3519
16:56:47:501,-0.8201,0.9458,13.0134,45.6373,1.3795,-0.7748,0.9097,-133.3519
16:56:47:521,-0.9015,1.5876,10.8455,45.7698,1.699,-0.3308,0.8256,-133.3519
16:56:47:542,-0.8249,1.9208,8.3085,46.0791,1.5084,0.3541,0.6796,-133.3519
16:56:47:562,-0.6574,1.8203,7.4345,46.1151,0.5936,0.9451,0.4346,-133.3519
16:56:47:582,-0.9948,0.9601,7.5302,46.2636,-0.5205,1.5298,0.1344,-133.4525
16:56:47:602,-1.7498,0.1196,7.5015,46.3886,-1.169,1.7961,-0.0446,-133.5561
16:56:47:626,-2.1446,-0.3045,6.8883,46.383,-1.2212,1.5458,0.0172,-133.6603
16:56:47:643,-2.1733,-0.1657,5.851,46.6086,-0.9326,0.9345,0.2526,-133.7696
16:56:47:666,-1.6391,0.0473,5.0291,46.7217,-0.5438,0.057,0.5603,-133.8914
16:56:47:687,-0.6377,0.3159,4.6074,46.9934,-0.1988,-0.8505,0.8607,-134.0336
16:56:47:703,0.1908,0.9027,4.6313,47.1898,-0.0379,-1.4426,1.0438,-134.2045
16:56:47:726,0.9093,1.4608,5.01,47.4684,-0.0667,-1.5939,1.0491,-134.4074
16:56:47:742,1.3956,1.9878,5.7553,47.6248,-0.1775,-1.3648,0.9182,-134.6412
16:56:47:766,1.3741,2.3498,6.5312,47.8941,-0.2712,-0.8782,0.669,-134.9002
16:56:47:788,1.1061,2.5747,7.0534,48.0804,-0.317,-0.2764,0.3899,-135.1744
16:56:47:807,0.1789,2.6967,7.3555,48.4507,-0.3415,0.0943,0.1152,-135.4524
16:56:47:829,-0.3051,2.6177,7.9519,48.6947,-0.3735,0.0261,-0.068,-135.7253
16:56:47:846,-0.3697,2.601,9.2333,48.7521,-0.4129,-0.2743,-0.1778,-135.9873
16:56:47:868,-0.6574,2.5149,11.0853,48.8468,-0.4332,-0.5149,-0.298,-136.2342
16:56:47:887,-1.395,2.7159,12.4193,48.9917,-0.3607,-0.4106,-0.3321,-136.4627
16:56:47:908,-1.34,3.3775,12.4122,49.153,-0.2244,-0.0985,-0.1831,-136.6726
16:56:47:927,-0.195,3.5785,12.3835,49.0669,-0.2787,-0.0218,-0.0638,-136.8699
16:56:47:948,0.9936,3.2309,14.0172,49.2447,-0.612,-0.2381,-0.1959,-137.0576
16:56:47:966,1.1348,2.5555,15.7681,49.2847,-0.7089,-0.3052,-0.5185,-137.232
16:56:47:987,-0.1304,2.1362,15.7896,49.5876,-0.2808,-0.1561,-0.7582,-137.3818
16:56:48:008,-0.7986,1.3005,14.5298,49.7954,0.1803,0.074,-0.7092,-137.4998
16:56:48:027,-0.88,-0.1442,14.2738,49.911,0.2687,0.3114,-0.4503,-137.5903
16:56:48:049,-0.6066,-1.0403,13.8138,50.0112,0.4264,0.532,-0.0659,-137.5903
16:56:48:066,-0.3817,-0.8554,12.3954,50.2033,0.8907,0.4861,0.3229,-137.5903
16:56:48:087,0.1573,-0.1848,10.7402,50.375,1.2699,0.1101,0.5667,-137.5903
16:56:48:107,1.1396,0.7878,9.3171,50.8051,1.2539,-0.2189,0.6562,-137.6998
16:56:48:129,1.7958,1.6379,8.5077,50.9636,0.8513,-0.269,0.5102,-137.83
16:56:48:149,1.925,1.7773,7.9711,51.0117,0.3102,0.0016,0.178,-137.9743
16:56:48:168,1.6522,1.7581,6.8883,51.2123,-0.1232,0.4872,-0.1234,-138.12
16:56:48:188,1.1731,1.7031,5.7673,51.5346,-0.4395,0.878,-0.3449,-138.2557
16:56:48:208,0.4211,1.3747,5.7649,51.8058,-0.6588,0.9153,-0.527,-138.3741
16:56:48:230,0.0305,0.7998,6.0879,51.7144,-0.5715,0.6193,-0.5856,-138.47
16:56:48:248,-0.1208,0.8142,5.9635,51.9562,-0.1317,0.2241,-0.4802,-138.47
16:56:48:269,-0.4798,1.1444,5.918,51.8657,0.3656,-0.1944,-0.3843,-138.47
16:56:48:288,-0.679,1.0295,5.9444,51.6453,0.7533,-0.6044,-0.3427,-138.47
16:56:48:309,-0.7866,1.6211,5.3384,51.6925,1.027,-0.7141,-0.1991,-138.47
16:56:48:333,-0.801,2.6608,4.7515,51.6602,0.9525,-0.5575,-0.0084,-138.47
16:56:48:350,-0.7268,3.1543,5.2618,51.8477,0.4477,-0.4117,0.0747,-138.47
16:56:48:371,-0.4319,3.4445,6.6006,51.8305,-0.1466,-0.3414,0.1525,-138.47
16:56:48:390,-0.1711,4.0265,8.6082,52.1114,-0.5067,-0.3478,0.2132,-138.47
16:56:48:410,-0.0867,4.398,11.0034,52.21,-0.5258,-0.3968,0.1695,-138.47
16:56:48:431,0.064,4.5535,12.7334,52.2176,-0.1999,-0.2498,0.1056,-138.47
16:56:48:450,0.1525,5.1882,13.0086,52.5931,0.2197,0.1197,0.0779,-138.47
16:56:48:470,0.265,5.1835,12.6227,52.8508,0.3816,0.419,-0.0265,-138.47
16:56:48:493,-0.0102,5.3222,13.4279,53.1038,0.2101,0.4169,-0.1628,-138.47
16:56:48:509,-0.5396,5.3533,14.4915,52.9745,0.0164,0.5011,-0.2385,-138.47
16:56:48:532,-1.7737,5.1787,13.5523,52.9654,0.075,0.9963,-0.2044,-138.47
16:56:48:550,-2.5256,4.6325,11.9641,53.1407,0.1537,1.2626,-0.0595,-138.47
16:56:48:570,-2.5424,4.0505,11.6124,53.2216,0.0739,1.0218,0.1365,-138.47
16:56:48:590,-2.2863,2.9533,12.1657,53.3057,0.11,0.4329,0.1791,-138.47
16:56:48:610,-2.394,1.6164,12,53.4054,0.421,-0.2647,0.031,-138.47
16:56:48:630,-2.6261,0.9505,11.3988,53.3318,0.5861,-0.6608,-0.0393,-138.47
16:56:48:652,-2.2403,0.6299,11.1308,53.6012,0.3379,-0.6843,0.1109,-138.47
16:56:48:672,-1.4189,0.5575,10.1342,53.7034,-0.006,-0.3904,0.3324,-138.47
16:56:48:692,-0.7842,1.0128,8.723,53.5923,-0.3234,0.0101,0.473,-138.47
16:56:48:711,-0.9135,0.5432,8.8929,53.4862,-0.6631,0.0676,0.4357,-138.47
16:56:48:731,-1.1288,0.0162,8.4072,53.5164,-0.5981,-0.0943,0.4389,-138.5713
16:56:48:753,-0.5635,0.3063,7.4584,53.7365,-0.1668,-0.3084,0.7073,-138.6894
16:56:48:773,0.2889,1.0152,6.9099,53.8759,0.2378,-0.6161,0.9353,-138.8323
16:56:48:793,1.4626,1.389,6.3517,53.8324,0.6288,-0.9346,0.9756,-139.0075
16:56:48:813,2.2367,2.3856,5.5968,53.7781,1.0654,-1.172,0.8607,-139.2154
16:56:48:834,1.8724,2.9318,4.8185,54.0541,1.3113,-1.2945,0.4996,-139.449
16:56:48:854,1.1252,2.9174,4.1145,54.2937,1.2837,-1.0891,0.1354,-139.6955
16:56:48:873,0.5934,3.2913,3.3954,54.4354,1.0015,-0.5415,0.0001,-139.9433
16:56:48:893,0.1884,3.6215,3.2686,54.4242,0.4402,0.0442,-0.0893,-140.1875
16:56:48:914,-0.3673,3.4564,4.1695,54.3294,-0.2702,0.435,-0.2555,-140.4224
16:56:48:934,-1.1815,3.006,5.5537,54.4528,-0.7739,0.5692,-0.4429,-140.6394
16:56:48:953,-2.0656,2.7302,6.8788,54.4853,-0.9678,0.565,-0.5419,-140.832
16:56:48:973,-2.9952,2.8696,8.4383,54.6822,-1.1052,0.566,-0.5313,-140.998
16:56:48:994,-3.4863,3.1161,10.2227,54.8241,-1.2915,0.6342,-0.3843,-141.1398
16:56:49:014,-3.1555,3.2961,11.5663,54.7858,-1.4779,0.7491,-0.1565,-141.2649
16:56:49:034,-2.3701,3.6048,12.9009,54.692,-1.6718,0.7013,-0.019,-141.3836
16:56:49:054,-1.3663,3.6072,14.9659,54.7128,-1.792,0.4094,-0.067,-141.503
16:56:49:074,-0.9757,3.1759,17.2032,54.9718,-1.5961,0.0357,-0.2608,-141.6214
16:56:49:094,-0.3817,2.2373,17.869,55.0775,-1.1764,-0.1188,-0.3608,-141.7326
16:56:49:114,0.2363,0.3613,19.0403,54.9348,-0.9518,-0.1571,-0.3864,-141.833
16:56:49:134,0.4331,-1.4638,20.0273,55.167,-0.6013,0.0208,-0.2694,-141.833
16:56:49:155,0.3607,-2.1326,17.7829,55.2701,0.3688,0.5458,0.1844,-141.833
16:56:49:175,0.2985,-0.786,13.6528,55.4264,1.4455,0.9025,0.7062,-141.9256
16:56:49:195,0.7825,1.0439,10.0935,55.6015,1.8908,0.764,0.9948,-142.0419
16:56:49:215,1.1779,2.5723,7.7288,55.6763,1.6618,0.3924,0.8916,-142.1888
16:56:49:235,0.5168,2.4622,6.9912,55.5136,1.0568,0.0698,0.4676,-142.3604
16:56:49:257,-0.5898,1.1372,6.9936,55.3292,0.4732,-0.0218,0.1354,-142.5413
16:56:49:314,-1.5194,0.2632,6.5169,55.27,0.2325,0.0751,0.1663,-142.7223
16:56:49:316,-1.8837,0.0377,5.7021,55.0675,0.2826,0.09,0.4218,-142.9058
16:56:49:317,-1.4405,0.5192,4.6074,54.8556,0.469,0.0037,0.7062,-143.1016
16:56:49:336,-0.9135,1.188,4.2126,54.6867,0.5904,-0.237,0.8064,-143.319
16:56:49:356,-0.7771,1.5039,3.9272,54.7419,0.6703,-0.5266,0.7318,-143.5629
16:56:49:376,-0.6646,1.6403,3.6832,54.6416,0.6426,-0.6172,0.6977,-143.828
16:56:49:397,-0.5276,2.1505,3.6329,54.5279,0.4146,-0.4394,0.6892,-144.1136
16:56:49:417,-0.3218,2.5412,3.9153,54.6233,0.0366,-0.1667,0.6242,-144.418
16:56:49:437,-0.3577,2.7763,4.6678,54.6922,-0.4513,0.0538,0.4826,-144.7389
16:56:49:458,-0.9135,2.4359,6.2752,54.696,-0.9592,0.2411,0.3314,-145.071
16:56:49:478,-1.8909,2.3545,8.3683,54.7351,-1.3064,0.5767,0.2984,-145.4065
16:56:49:498,-2.8588,2.6991,10.2371,54.8084,-1.3,0.8578,0.4517,-145.745
16:56:49:518,-3.079,3.6526,10.8359,54.8152,-0.8975,0.8812,0.7297,-146.093
16:56:49:538,-2.607,4.6397,10.9675,54.9988,-0.4843,0.5937,0.9331,-146.4606
16:56:49:558,-2.2624,4.5966,12.6562,55.1391,-0.4513,0.1176,0.898,-146.8537
16:56:49:579,-2.2187,3.6335,15.1741,55.2028,-0.5363,-0.1294,0.8085,-147.2742
16:56:49:599,-2.473,3.2644,16.3526,55.4063,-0.4342,0.272,0.8778,-147.7145
16:56:49:619,-3.0574,3.1711,15.9601,55.5797,-0.2329,0.9419,1.047,-148.1767
16:56:49:640,-3.6323,2.8385,15.2339,55.5754,-0.0411,1.2338,1.2505,-148.668
16:56:49:660,-3.9727,2.1218,14.5155,55.558,0.2208,1.1124,1.4816,-149.1943
16:56:49:680,-4.0708,2.2032,12.7143,55.4329,0.6692,0.9174,1.7403,-149.7602
16:56:49:700,-3.862,2.4694,9.8058,55.4112,0.9546,0.7896,1.8905,-150.3723
16:56:49:720,-3.6323,1.8179,8.601,55.1931,0.551,0.5746,1.7947,-151.0333
16:56:49:740,-3.7998,0.6658,9.5115,55.0186,-0.1881,0.2901,1.5699,-151.7397
16:56:49:761,-4.2742,-0.6927,10.8239,54.9579,-0.5662,-0.0282,1.4241,-152.4859
16:56:49:780,-4.4279,-1.5505,10.8168,54.8832,-0.3959,-0.3371,1.5274,-153.2665
16:56:49:801,-3.4409,-1.4423,10.0648,54.8051,-0.0262,-0.6459,1.8756,-154.0838
16:56:49:821,-1.4501,-0.5922,9.0873,54.9048,0.3007,-0.8877,2.2504,-154.9483
16:56:49:841,0.1669,0.3494,7.7145,54.8445,0.6394,-1.0124,2.3612,-155.8699
16:56:49:861,0.9404,1.2311,6.1669,54.6395,0.8971,-0.9602,2.1865,-156.8498
16:56:49:881,1.0295,1.5589,5.0698,54.6937,0.8704,-0.6491,1.9044,-157.8807
16:56:49:901,0.615,1.5087,4.605,54.6368,0.6277,-0.1795,1.6423,-158.9518
16:56:49:921,0.3511,1.6546,4.3968,54.4805,0.3891,0.2593,1.4763,-160.0535
16:56:49:941,0.1956,1.9807,4.416,54.4407,0.2101,0.4702,1.3112,-161.1785
16:56:49:962,-0.1328,1.9926,4.7061,54.4329,0.0686,0.3999,1.0683,-162.3191
16:56:49:982,-0.4295,1.9974,5.5274,54.2517,-0.104,0.1644,0.8245,-163.4654
16:56:50:002,-0.5707,1.8156,6.9386,54.1083,-0.2712,-0.1103,0.6306,-164.6085
16:56:50:023,-0.9757,1.7222,8.7829,54.0819,-0.3969,-0.3041,0.4485,-165.7412
16:56:50:043,-1.9244,1.9304,10.5464,53.9914,-0.463,-0.1241,0.3133,-166.8569
16:56:50:063,-2.2792,2.3689,10.6397,53.9908,-0.3138,0.3679,0.3176,-167.9506
16:56:50:084,-2.3701,3.1878,10.0361,54.0684,-0.1519,0.6715,0.3101,-169.0245
16:56:50:103,-2.3916,3.7029,9.7101,53.8603,-0.2499,0.7481,0.2036,-170.0794
16:56:50:123,-2.5519,4.0816,10.2945,53.8148,-0.5342,0.6491,0.0832,-171.1113
16:56:50:143,-1.8048,3.7866,11.1715,53.8713,-0.7963,0.386,0.0481,-172.1166
16:56:50:164,-0.6233,3.1783,12.4983,53.9324,-1.0029,-0.0634,0.047,-173.0949
16:56:50:183,0.5958,2.4168,14.2857,53.9136,-1.1892,-0.433,0.0236,-174.0465
16:56:50:204,1.3836,0.9338,16.3358,53.857,-1.3192,-0.3425,-0.0073,-174.9708
16:56:50:224,0.9021,-0.7908,17.9073,53.6926,-1.2361,0.1879,0.0289,-175.8653
16:56:50:244,0.1214,-1.5721,17.4018,53.7107,-0.7377,0.78,0.3973,-176.7315
16:56:50:265,1.0893,-1.3274,14.9851,53.6819,-0.0284,0.9345,1.0193,-177.5843
16:56:50:284,3.3051,-0.0078,12.3835,53.5979,0.5116,0.5043,1.4401,-178.4456
16:56:50:304,4.6415,1.5924,9.7005,53.7128,0.7351,0.0293,1.3144,-179.3289
16:56:50:325,4.721,2.3737,7.6666,53.6126,0.5915,-0.1273,0.767,179.7709
16:56:50:345,3.3912,1.928,7.1324,53.4867,0.2314,0.0005,0.1365,178.8725
16:56:50:364,1.9537,1.2502,6.3135,53.4624,0.0929,0.2337,-0.2385,177.9979
16:56:50:385,1.5206,1.4991,4.7683,53.4296,0.2059,0.2113,-0.3374,177.1589
16:56:50:405,1.1252,1.6164,3.6209,53.1387,0.2911,-0.2029,-0.5015,176.3578
16:56:50:425,0.4379,1.3627,3.9153,53.0934,0.1494,-0.6417,-0.6943,175.5988
16:56:50:445,-0.1831,0.7854,5.0483,52.9649,-0.1178,-0.6736,-0.7454,174.8868
16:56:50:466,-0.5587,0.3924,6.1143,52.7252,-0.234,-0.4298,-0.6538,174.2212
16:56:50:486,-0.7507,0.7089,6.1549,52.5748,-0.1775,-0.0985,-0.5015,173.5981
16:56:50:506,-1.0427,1.0822,6.3063,52.3092,-0.1935,0.1367,-0.3949,173.0106
16:56:50:526,-1.0905,1.1761,7.1539,52.1152,-0.2947,0.1218,-0.3182,172.4544
16:56:50:546,-1.1336,1.5135,8.5508,51.919,-0.3628,-0.0666,-0.2108,171.9246
16:56:50:567,-1.2538,1.6887,10.0624,51.7516,-0.3075,-0.2668,-0.1096,171.4166
16:56:50:587,-1.1384,2.1936,11.1547,51.5547,-0.0827,-0.2423,0.0385,170.9267
16:56:50:607,-0.9996,2.9605,11.2983,51.5977,0.1803,0.0485,0.1844,170.4478
16:56:50:628,-1.0522,3.8423,11.1332,51.243,0.257,0.3541,0.2579,169.9749
16:56:50:647,-1.057,4.2945,11.6554,50.9339,0.075,0.5202,0.26,169.505
16:56:50:667,-0.8847,4.273,13.011,50.9916,-0.1636,0.565,0.2409,169.0372
16:56:50:687,-1.1503,4.2084,14.5298,50.8269,-0.2041,0.5437,0.2164,168.5726
16:56:50:708,-1.5912,4.2849,14.8319,50.6217,-0.0081,0.5522,0.227,168.1126
16:56:50:728,-1.8933,3.8177,14.8893,50.5355,0.0897,0.3818,0.2185,167.6556
16:56:50:748,-2.0225,2.3617,15.7825,50.4296,-0.0081,0.0325,0.1844,167.2015
16:56:50:768,-2.0249,1.1013,16.2712,50.1234,0.1238,-0.1305,0.2515,166.7522
16:56:50:788,-2.3198,0.3637,15.076,50.0814,0.6117,-0.0719,0.3707,166.3055
16:56:50:809,-2.7194,0.0401,13.0612,50.0385,0.9759,-0.0751,0.5071,165.8588
16:56:50:828,-2.2983,-0.3284,12.4457,49.6383,0.9141,-0.3031,0.7691,165.4078
16:56:50:849,-0.6742,-0.0173,11.921,49.498,0.8832,-0.5001,1.1524,164.9428
16:56:50:870,0.8207,0.7352,10.1868,49.5033,1.0675,-0.4351,1.374,164.4502
16:56:50:889,0.8542,1.5757,7.724,49.2306,1.06,0.1005,1.3176,163.9234
16:56:50:909,0.1023,1.6283,6.3517,49.1205,0.7288,0.7342,1.1919,163.3643
16:56:50:929,-0.1783,1.2239,5.7045,48.9582,0.5073,0.8642,1.1556,162.7781
16:56:50:949,0.0138,1.4608,5.0483,48.8174,0.5904,0.5064,1.1983,162.1673
16:56:50:971,0.1789,1.5254,4.7587,48.9847,0.7202,-0.0346,1.1301,161.5307
16:56:50:990,0.1525,1.6092,4.6313,48.9571,0.7905,-0.3563,0.9884,160.8718
16:56:51:011,0.0975,1.8538,4.5691,48.9922,0.7245,-0.3318,0.8703,160.1957
16:56:51:031,-0.1567,1.9137,4.9693,48.8345,0.5158,-0.1838,0.7403,159.5065
16:56:51:051,-0.1131,2.0022,5.5657,48.8807,0.3177,-0.0346,0.6583,158.8097
16:56:51:077,0.1741,2.1745,5.997,48.7848,0.2314,0.1112,0.5965,158.1087
16:56:51:095,0.198,2.1864,6.3254,48.8018,0.2229,0.2401,0.4506,157.4056
16:56:51:116,-0.1256,2.3569,6.2728,48.9132,0.2399,0.3455,0.2877,156.7062
16:56:51:135,-0.3625,2.9677,6.143,48.5671,0.2016,0.3999,0.2142,156.017
16:56:51:155,-0.5013,3.7842,5.9755,48.7522,0.0558,0.419,0.1759,155.3401
16:56:51:175,-0.329,4.4674,6.3206,48.5136,-0.2798,0.2188,0.079,154.6754
16:56:51:197,-0.1615,4.4315,9.4152,48.6972,-0.9156,-0.3563,-0.1149,154.0268
16:56:51:216,0.1597,3.3583,13.5404,48.552,-1.4523,-0.614,-0.247,153.4024
16:56:51:237,0.2985,2.8313,15.4881,48.5114,-1.4523,-0.1145,-0.1639,152.8082
16:56:51:256,0.9284,2.9318,15.941,48.4303,-1.2318,0.3168,0.014,152.241
16:56:51:276,1.6977,2.9222,16.3908,48.423,-1.0807,0.3509,0.1077,151.6933
16:56:51:296,1.9226,2.6465,16.9298,48.3033,-0.972,0.6055,0.1109,151.1605
16:56:51:340,1.5302,2.278,16.4052,48.3406,-0.711,1.1092,0.1141,150.6421
16:56:51:341,0.7394,1.7127,14.9898,48.1052,-0.3149,1.2924,0.1003,150.137
16:56:51:352,0.4857,0.8931,12.9033,48.0834,0.0739,0.9121,0.0928,149.645
16:56:51:377,0.6126,0.5025,11.5615,48.2389,0.3049,0.1623,0.1077,149.1663
16:56:51:397,0.8949,0.4427,10.4501,48.1051,0.5137,-0.5096,0.1088,148.7002
16:56:51:415,1.0726,0.7089,8.7278,47.8882,0.7895,-0.7695,0.096,148.2466
16:56:51:436,0.8112,1.0008,6.8261,48.1459,0.9056,-0.5767,0.0619,147.8052
16:56:51:454,0.4283,1.2144,5.053,48.301,0.7554,-0.0293,0.0545,147.376
16:56:51:478,0.1071,1.3938,3.8315,48.2996,0.4061,0.6353,0.0822,146.9585
16:56:51:498,0.0784,1.5254,3.4576,48.586,0.0993,0.9771,0.112,146.551
16:56:51:516,0.4475,1.9352,3.527,48.6981,0.0718,0.7907,0.1173,146.1514
16:56:51:538,0.8495,2.7063,3.393,48.697,0.2602,0.3541,0.0332,145.7596
16:56:51:557,0.5527,3.1615,3.4217,49.0621,0.2921,0.1378,-0.1735,145.3782
16:56:51:575,-0.1328,3.0443,4.0493,49.2833,0.0409,0.2348,-0.3619,145.0134
16:56:51:599,-0.6377,2.8911,5.0746,49.2795,-0.2776,0.3541,-0.3981,144.6718
16:56:51:616,-0.7029,3.2548,6.4881,49.1019,-0.5237,0.2763,-0.2905,144.3531
16:56:51:637,-0.4702,3.7268,8.8211,49.1452,-0.6759,-0.0197,-0.2001,144.0524
16:56:51:657,-0.5563,3.8734,11.0321,49.1004,-0.528,-0.3052,-0.165,143.7655
16:56:51:675,-0.7364,4.4507,12,49.0666,-0.1381,-0.3947,-0.0467,143.4914
16:56:51:697,-0.3051,5.3701,11.7966,49.2267,0.1803,-0.2828,0.1482,143.2264
16:56:51:716,0.1932,5.6363,12.0766,48.9899,0.0834,-0.0549,0.1972,142.9635
16:56:51:737,0.253,5.1739,13.2628,49.1152,-0.2031,0.157,0.0875,142.7008
16:56:51:757,-0.4199,4.7091,14.1224,49.0923,-0.1498,0.1485,-0.0531,142.4427
16:56:51:778,-1.3615,4.3256,13.6241,49.206,0.176,0.0826,-0.116,142.1947
16:56:51:798,-1.7617,3.5833,12.7837,49.2386,0.2133,0.1453,-0.0702,141.9587
16:56:51:817,-2.0393,2.4311,13.3825,49.3452,-0.136,0.1772,0.0033,141.7339
16:56:51:837,-2.1302,1.6044,13.6098,49.5495,-0.1743,0.2284,0.1439,141.5155
16:56:51:858,-2.3007,1.8275,11.9091,49.4825,0.2815,0.37,0.3537,141.3001
16:56:51:877,-2.3964,2.5651,9.1567,49.8226,0.6415,0.5202,0.4943,141.0807
16:56:51:900,-2.7171,2.7763,7.3603,49.8477,0.4487,0.451,0.4431,140.8525
16:56:51:919,-2.7625,2.1936,6.8788,49.9354,-0.1061,0.174,0.3334,140.6164
16:56:51:938,-2.3031,1.1276,7.6905,50.1862,-0.6684,-0.1816,0.3005,140.3747
16:56:51:959,-1.6989,0.3637,8.6871,50.4469,-0.9369,-0.5192,0.3272,140.1285
16:56:51:980,-0.7771,0.1555,8.8355,50.5671,-0.7931,-0.729,0.409,139.8762
16:56:51:999,-0.0676,0.4331,7.7025,50.5657,-0.4822,-0.7301,0.4527,139.6173
16:56:52:019,0.2171,0.8405,7.0295,50.685,-0.398,-0.7045,0.3824,139.3511
16:56:52:039,0.0999,0.5192,8.0859,50.6246,-0.4832,-0.7216,0.2505,139.0811
16:56:52:058,0.076,0.1986,8.3707,50.6475,-0.2414,-0.5383,0.2473,138.8125
16:56:52:083,0.3368,0.996,7.1252,50.7395,0.3156,-0.1997,0.4027,138.5457
16:56:52:100,0.4905,1.861,5.7458,50.8087,0.6989,-0.0559,0.4282,138.2769
16:56:52:121,0.4475,2.4455,4.9238,50.9456,0.7596,-0.0687,0.2856,138.0039
16:56:52:140,0.1908,2.5938,4.5643,50.8704,0.5957,-0.0613,0.08,137.7301
16:56:52:160,-0.2261,2.7715,5.482,50.924,0.2581,-0.0442,-0.1075,137.4624
16:56:52:181,-0.7651,2.86,6.5671,51.0937,-0.0443,-0.0272,-0.2246,137.2085
16:56:52:201,-1.273,3.6694,6.6915,51.4145,-0.2606,0.124,-0.1618,136.9716
16:56:52:221,-1.2897,4.5775,8.1793,51.4952,-0.7462,0.2284,-0.0617,136.7496
16:56:52:240,-0.7364,4.34,10.1294,51.5011,-1.202,0.1421,-0.0563,136.5376
16:56:52:262,0.0018,4.0552,12.6927,51.3789,-1.4672,-0.2413,-0.0734,136.3332
16:56:52:281,0.7657,3.0849,15.804,51.2951,-1.6472,-0.6331,-0.1937,136.1373
16:56:52:302,1.197,1.5565,18.9781,51.4148,-1.4598,-0.7695,-0.3374,135.9547
16:56:52:321,0.7513,0.5575,19.261,51.4652,-0.7771,-0.286,-0.3108,135.793
16:56:52:342,0.4499,0.0162,17.0836,51.5731,-0.1626,0.4808,-0.1107,135.6509
16:56:52:362,0.2339,-0.8961,16.5446,51.4207,-0.1029,0.8663,0.0182,135.524
16:56:52:382,-0.2285,-1.8162,15.548,51.5467,0.076,1.1177,0.1099,135.4044
16:56:52:402,0.0377,-1.9478,12.6515,51.6767,0.5723,1.1454,0.2792,135.2894
16:56:52:424,1.6977,-1.1456,9.7149,51.8434,0.782,0.763,0.3409,135.1741
16:56:52:443,2.9862,0.39,7.8365,52.021,0.6341,0.1676,0.0704,135.0569
16:56:52:463,2.2917,0.3374,7.5972,51.9522,0.2495,-0.2072,-0.527,134.9472
16:56:52:483,0.6676,-0.192,7.9017,51.8297,-0.1977,-0.0101,-0.9019,134.9472
16:56:52:503,-0.1352,0.1723,7.4776,51.5691,-0.4055,0.5501,-0.7592,134.9472
16:56:52:523,0.0927,1.0032,6.5719,51.6921,-0.3852,0.8844,-0.4674,134.9472
16:56:52:543,0.332,1.7079,6.0808,51.6202,-0.2638,0.7608,-0.3534,134.9472
16:56:52:563,-0.2261,1.4847,6.7783,51.5212,-0.1125,0.3008,-0.4876,134.9472
16:56:52:587,-0.8393,0.7256,7.3866,51.4189,0.2623,-0.2189,-0.5707,134.9472
16:56:52:605,-1.2203,0.4953,7.1755,51.3564,0.7831,-0.4511,-0.4077,134.9472
16:56:52:627,-1.002,1.2431,6.2776,51.2788,1.0419,-0.2807,-0.1394,134.9472
16:56:52:645,-0.6718,1.8873,5.5418,51.2544,0.879,-0.025,-0.0478,134.9472
16:56:52:666,-0.5157,2.467,5.7745,51.3207,0.5318,-0.0059,-0.1085,135.0399
16:56:52:684,-0.7149,2.6895,7.1037,51.1238,0.2527,-0.3244,-0.1927,135.1366
16:56:52:705,-0.7364,2.6704,8.3952,51.112,0.1803,-0.7823,-0.1852,135.2409
16:56:52:725,-0.5539,2.9988,10.2371,50.9981,0.1185,-0.8483,-0.0393,135.3527
16:56:52:745,-0.0532,3.8447,12.0479,50.8152,0.2122,-0.4692,0.0406,135.4656
16:56:52:766,-0.3194,4.5416,11.8325,50.6154,0.6714,-0.0932,-0.0095,135.577
16:56:52:786,-0.6909,4.4315,11.0297,50.5516,0.8182,0.0836,-0.1256,135.6903
16:56:52:805,-1.0857,4.206,11.8756,50.5907,0.2783,0.3658,-0.1415,135.8088
16:56:52:827,-1.2826,4.1701,14.0076,50.3457,-0.2872,0.6449,-0.034,135.9308
16:56:52:846,-1.3902,3.8853,14.8534,50.3684,-0.2435,0.7949,0.063,136.0512
16:56:52:869,-1.9292,2.8816,14.4437,50.1975,0.1526,0.6534,0.0289,136.1665
16:56:52:886,-2.5017,1.861,13.5356,50.1704,0.4764,0.4084,0.015,136.2796
16:56:52:907,-2.8373,1.4201,11.7296,50.2166,0.6947,0.3977,0.1344,136.3932
16:56:52:927,-3.1986,1.5326,9.4612,50.1288,0.7298,0.4489,0.2483,136.5065
16:56:52:947,-2.854,1.7174,8.1434,50.0197,0.437,0.2411,0.376,136.6151
16:56:52:969,-1.6175,1.9496,7.9759,49.8397,0.0419,-0.2232,0.5241,136.7126
16:56:52:988,-0.3434,1.8849,8.1218,49.88,-0.1668,-0.6523,0.5113,136.7126
16:56:53:008,0.3176,1.5087,8.2702,49.8722,-0.1967,-0.8813,0.2963,136.7126
16:56:53:027,0.2865,1.1976,7.6307,49.8649,-0.0933,-0.7951,0.0843,136.7126
16:56:53:048,-0.2955,0.7376,6.7585,50.1193,-0.0379,-0.582,-0.0297,136.7126
16:56:53:069,-0.655,0.4068,6.5264,50.423,-0.0497,-0.4405,0.0395,136.7126
16:56:53:087,-0.6718,0.4164,6.1837,50.6362,0.0281,-0.3659,0.2334,136.7126
16:56:53:108,-0.3553,0.8142,5.7434,50.7889,0.1814,-0.3371,0.4527,136.7126
16:56:53:128,-0.1011,1.5517,5.4413,50.8292,0.2282,-0.318,0.5592,136.7126
16:56:53:149,0.0305,2.0357,5.3527,50.829,0.1206,-0.1955,0.523,136.7126
16:56:53:169,-0.0269,2.0692,6.0185,50.8684,-0.0816,-0.1358,0.3856,136.7126
16:56:53:189,-0.4128,1.7868,6.9817,50.8857,-0.1487,-0.237,0.2196,136.7126
16:56:53:209,-0.7507,1.9137,8.0237,50.7049,-0.0667,-0.3808,0.1897,136.7126
16:56:53:229,-0.9709,2.2152,9.3099,50.5653,0.0057,-0.3755,0.276,136.7126
16:56:53:249,-1.0475,2.5938,10.2012,50.5924,0.0611,-0.1081,0.3792,136.7126
16:56:53:270,-0.9254,3.6311,10.2802,50.5777,0.1419,0.1666,0.4527,136.7126
16:56:53:289,-0.4845,4.6445,10.0648,50.6242,0.0983,0.0453,0.4154,136.7126
16:56:53:339,0.2411,4.7474,11.2768,50.6876,-0.234,-0.5714,0.1908,136.7126
16:56:53:340,1.4028,3.5952,12.92,50.7804,-0.6418,-1.1283,-0.0744,136.7126
16:56:53:349,2.5286,2.5316,14.683,50.8849,-0.841,-1.1805,-0.2001,136.7126
16:56:53:373,2.5071,1.7988,16.2305,50.7933,-0.8229,-0.6491,-0.2905,136.7126
16:56:53:390,1.87,1.0367,15.5862,50.7713,-0.5832,0.3328,-0.2959,136.7126
16:56:53:411,1.6307,0.7711,14.4389,50.6095,-0.3373,1.0325,-0.1352,136.7126
16:56:53:435,1.6235,1.051,13.3226,50.7678,-0.1221,1.2519,0.0545,136.7126
16:56:53:451,1.4076,1.075,11.5615,50.8281,0.1441,1.1933,0.0992,136.7126
16:56:53:471,1.4124,1.334,9.5306,50.937,0.257,1.0112,0.1099,136.7126
16:56:53:492,1.398,1.9831,8.0572,50.9159,0.0345,0.8546,0.0939,136.7126
16:56:53:511,0.9045,1.7964,8.4981,50.8758,-0.4385,0.6736,-0.1096,136.7126
16:56:53:537,-0.0508,0.7543,8.8905,51.1922,-0.6791,0.5458,-0.3779,136.7126
16:56:53:553,-0.7723,0.402,8.4215,51.3917,-0.4917,0.4979,-0.3832,136.7126
16:56:53:574,-0.6933,0.74,7.5876,51.4213,-0.1381,0.2976,-0.182,136.7126
16:56:53:604,0.2243,1.4967,7.0798,51.6454,0.2091,-0.1113,0.015,136.7126
16:56:53:613,1.1013,1.9137,6.9936,51.7512,0.4956,-0.4969,0.0182,136.7126
16:56:53:638,1.209,2.1673,6.6891,52.0616,0.7735,-0.5724,-0.1352,136.7126
16:56:53:653,0.6532,2.4,5.604,52.0913,1.0078,-0.2945,-0.2758,136.7126
16:56:53:673,0.0664,2.7643,4.6558,52.3997,0.9812,0.0783,-0.3321,136.7126
16:56:53:694,-0.3912,3.1137,4.4064,52.1581,0.6788,0.2316,-0.3545,136.7126
16:56:53:714,-0.5898,3.1687,5.2092,52.3585,0.2879,-0.0005,-0.4098,136.7126
16:56:53:740,-0.7005,3.3009,6.7831,52.4066,-0.0305,-0.3244,-0.4588,136.8136
16:56:53:753,-0.8201,3.4636,8.4933,52.3203,-0.137,-0.4309,-0.4354,136.9267
16:56:53:774,-0.8273,3.6981,9.5761,52.4262,0.0036,-0.2679,-0.3236,137.0518
16:56:53:793,-0.7795,4.587,9.9446,52.1779,0.1728,0.0197,-0.1628,137.184
16:56:53:813,-0.667,5.1954,10.0313,52.4002,0.11,0.337,-0.1032,137.3175
16:56:53:838,-0.8656,5.2026,10.9029,52.427,-0.2233,0.5394,-0.2204,137.4499
16:56:53:853,-1.1916,4.2491,12.8028,52.6368,-0.5013,0.483,-0.3758,137.5846
16:56:53:874,-1.5194,3.8471,14.0507,52.7698,-0.3362,0.3658,-0.3459,137.7263
16:56:53:894,-1.4022,4.2945,13.7372,52.9852,0.1281,0.4084,-0.1383,137.8752
16:56:53:914,-1.6654,4.0433,12.35,52.995,0.3923,0.4808,-0.1075,138.0245
16:56:53:939,-2.4562,2.8672,12.1196,53.0182,0.2282,0.2103,-0.2788,138.1737
16:56:53:954,-3.2393,1.7581,12.92,53.4867,0.0153,-0.2828,-0.3502,138.3292
16:56:53:975,-3.0048,1.4656,12.7454,53.6213,0.1526,-0.5618,-0.1117,138.493
16:56:53:995,-2.0297,1.6786,11.8851,53.7034,0.2847,-0.5852,0.2132,138.6553
16:56:54:015,-1.395,1.59,11.1045,54.0841,0.1356,-0.4852,0.3261,138.8057
16:56:54:038,-1.0762,1.1444,9.9398,54.062,-0.0582,-0.2935,0.3558,138.9395
16:56:54:057,-1.0475,0.7831,9.2142,54.1471,-0.2286,-0.1539,0.4399,139.0555
16:56:54:077,-0.7771,0.6371,8.2487,54.4869,-0.2489,-0.0762,0.6114,139.1517
16:56:54:096,-0.3649,0.8955,6.8836,54.8155,-0.1178,-0.0549,0.8,139.1517
16:56:54:116,-0.1759,1.2239,6.0377,54.9175,-0.0571,-0.1955,0.8735,139.1517
16:56:54:140,0.0329,1.2837,6.0305,55.0436,-0.0273,-0.4565,0.8735,139.1517
16:56:54:157,0.3583,1.2885,5.8439,55.2482,0.1632,-0.7588,0.8479,139.1517
16:56:54:176,0.6245,1.7031,5.5729,55.3225,0.3848,-0.9932,0.7947,139.1517
16:56:54:197,0.5671,1.9639,5.5944,55.6954,0.4178,-0.9847,0.6541,139.1517
16:56:54:217,0.131,2.2493,5.7601,55.8219,0.3667,-0.7258,0.5017,139.0484
16:56:54:238,-0.262,2.3809,5.6734,55.7845,0.2836,-0.3126,0.4154,138.9292
16:56:54:257,-0.5061,2.4335,5.8223,55.8504,0.143,-0.0453,0.3494,138.7972
16:56:54:277,-0.5779,2.4981,6.4451,56.051,0.0142,-0.0698,0.2941,138.6558
16:56:54:297,-0.3338,2.7326,7.4297,56.1692,-0.0976,-0.2626,0.2558,138.5074
16:56:54:317,-0.0006,3.2094,8.3348,56.3261,-0.2265,-0.27,0.1823,138.3539
16:56:54:341,0.0209,3.5426,9.3027,56.4541,-0.4598,-0.0783,0.0182,138.198
16:56:54:358,-0.0987,3.0634,11.2768,56.3213,-0.7803,-0.0261,-0.1905,138.0471
16:56:54:378,0.0544,2.2804,13.3849,56.5547,-1.0221,-0.1294,-0.3044,137.909
16:56:54:405,1.1946,1.6427,14.8487,56.6898,-1.0477,-0.1869,-0.149,137.7892
16:56:54:419,2.9169,2.0213,15.8979,56.854,-0.9433,-0.0687,0.0832,137.6812
16:56:54:439,3.9398,2.5938,14.8487,56.7334,-0.6578,0.2965,0.0609,137.5778
16:56:54:459,3.341,2.266,13.6002,56.6939,-0.5491,0.615,-0.2852,137.4787
16:56:54:479,2.2558,0.9529,13.7468,56.665,-0.6833,0.7056,-0.5451,137.4787
16:56:54:505,1.547,-0.1226,14.199,56.7889,-0.5896,0.6065,-0.4823,137.4787
16:56:54:520,1.669,-0.9129,14.0219,56.9996,-0.1115,0.1975,-0.2481,137.4787
16:56:54:540,2.8068,-0.4941,12.6832,56.8514,0.4445,-0.3425,0.0364,137.4787
16:56:54:560,3.5276,0.4522,11.3438,57.0436,0.6128,-0.5756,0.0939,137.4787
16:56:54:581,2.7517,0.6108,10.0265,57.2018,0.4146,-0.3393,-0.133,137.4787
16:56:54:604,1.4339,0.8955,8.4646,57.4225,0.1622,0.222,-0.2704,137.4787
16:56:54:620,0.5192,1.3125,6.9841,57.7308,-0.0433,0.7214,-0.231,137.4787
16:56:54:640,0.3416,1.4249,6.4068,57.7499,-0.1541,0.8045,-0.1756,137.4787
16:56:54:661,0.4014,1.5015,6.1047,57.6072,0.0142,0.5,-0.1905,137.4787
16:56:54:680,0.5838,1.6403,5.8128,57.695,0.3688,0.0676,-0.2778,137.4787
16:56:54:706,0.3942,1.8419,5.3288,57.7731,0.6639,-0.1475,-0.3981,137.4787
16:56:54:722,0.1478,1.8993,4.8449,57.7474,0.7309,-0.025,-0.4897,137.4787
16:56:54:741,0.0042,2.2373,4.3131,57.533,0.6128,0.2752,-0.5015,137.4787
16:56:54:762,-0.2309,2.4287,4.4853,57.6458,0.3507,0.4201,-0.5355,137.4787
16:56:54:782,-0.7292,2.4287,5.7338,57.5857,0.0654,0.3349,-0.5782,137.4787
16:56:54:805,-1.0522,2.7374,6.9888,57.6747,-0.0411,0.2262,-0.477,137.5805
16:56:54:822,-0.9135,3.2961,7.8514,57.7164,-0.0007,0.1889,-0.2502,137.6946
16:56:54:842,-0.8154,3.8255,9.0203,57.7578,-0.039,0.1367,-0.0851,137.8124
16:56:54:863,-0.5587,4.4172,10.0863,57.617,-0.1093,0.0943,-0.0116,137.9274
16:56:54:882,-0.4726,4.8742,11.2026,57.8475,-0.1711,0.073,-0.0318,138.0363
16:56:54:905,-0.4726,4.5248,12.8363,57.9172,-0.2776,0.1229,-0.1032,138.1397
16:56:54:923,-0.4534,3.9452,14.144,57.9988,-0.3043,0.3775,-0.0776,138.2414
16:56:54:943,-0.4104,4.2275,14.4245,57.949,-0.2041,0.6928,0.0864,138.3406
16:56:54:964,-0.6473,4.2897,14.0746,57.9408,-0.2201,0.9398,0.1652,138.4322
16:56:54:983,-1.4405,3.1759,14.2905,58.0601,-0.4321,0.9963,0.063,138.4322
16:56:55:005,-2.4323,1.7414,14.6758,58.0076,-0.4342,0.7726,0.0065,138.4322
16:56:55:024,-2.9952,1.0965,13.6122,58.3613,0.0632,0.4616,0.1652,138.4322
16:56:55:044,-2.2935,1.6331,11.4682,58.3653,0.6893,0.1325,0.4208,138.4322
16:56:55:065,-2.0249,2.2493,9.6909,58.4546,0.8246,-0.2402,0.3771,138.4322
16:56:55:085,-2.0058,1.7246,9.2955,58.3938,0.3827,-0.6321,0.1024,138.4322
16:56:55:106,-1.6989,1.0247,9.7579,58.6467,-0.1668,-0.909,-0.0435,138.4322
16:56:55:125,-1.2826,0.2728,10.0481,58.7821,-0.4736,-0.9964,-0.068,138.4322
16:56:55:145,-1.0618,-0.216,9.7053,59.0883,-0.5342,-0.876,-0.0478,138.4322
16:56:55:165,-1.4716,-0.2518,8.3587,59.4252,-0.4193,-0.5128,0.0875,138.4322
16:56:55:184,-1.529,-0.07,6.9936,59.5532,-0.2606,-0.269,0.3867,138.4322
16:56:55:206,-0.8225,0.2967,5.8008,59.6537,-0.0443,-0.2796,0.767,138.4322
16:56:55:225,-0.128,1.063,5.132,59.7892,0.1963,-0.4064,1.0395,138.4322
16:56:55:245,0.4881,1.4201,4.3801,59.9374,0.4338,-0.516,1.1365,138.4322
16:56:55:265,0.8638,1.9472,3.5079,59.9403,0.4381,-0.3904,1.1194,138.4322
16:56:55:286,0.9141,2.141,4.3035,60.1282,-0.0561,-0.1774,0.9182,138.3084
16:56:55:306,0.4762,1.94,6.3398,60.0386,-0.6205,0.0474,0.5806,138.1539
16:56:55:325,0.1525,1.1085,9.0012,59.9811,-0.6738,0.1229,0.26,137.9834
16:56:55:379,0.0329,0.6179,10.3184,60.0347,-0.0635,-0.0272,0.0427,137.8089
16:56:55:381,-0.0221,1.4345,9.1615,60.0489,0.7788,-0.1688,-0.0212,137.6385
16:56:55:386,0.1597,2.266,8.546,60.319,0.9152,-0.1273,-0.133,137.4734
16:56:55:408,0.7107,2.7398,9.5498,60.3315,0.4626,0.0943,-0.3534,137.3164
16:56:55:426,1.7384,2.7446,10.4931,60.4011,0.0887,0.2571,-0.608,137.1751
16:56:55:447,2.0016,2.7087,12.2782,60.6586,-0.1839,0.0144,-0.9988,137.0597
16:56:55:467,1.0223,2.3306,13.7922,60.7552,-0.3415,-0.1997,-1.4206,137.0597
16:56:55:488,-0.0604,2.7326,13.2939,60.6752,-0.1913,-0.0197,-1.5078,137.0597
16:56:55:509,-0.9374,3.3846,12.2806,60.6962,-0.1019,0.2294,-1.3748,137.0597
16:56:55:528,-1.7521,3.0945,11.7224,60.8814,-0.2957,0.3434,-1.2012,137.0597
16:56:55:548,-1.7928,1.5948,12.9918,60.7863,-0.6951,0.3189,-0.8487,137.1786
16:56:55:574,-0.99,0.3111,14.9563,60.8319,-0.8676,0.2827,-0.2161,137.3217
16:56:55:588,1.1874,-0.0365,15.0138,60.7146,-0.3799,0.0964,0.4975,137.4656
16:56:55:609,4.1384,0.3948,13.8162,60.3991,0.2783,-0.3063,0.8447,137.5888
16:56:55:630,4.6415,1.1013,12.5486,60.2422,0.567,-0.6108,0.5379,137.682
16:56:55:649,2.9192,0.6969,11.1188,60.5833,0.584,-0.5607,0.0023,137.682
16:56:55:674,1.3262,0.4953,9.801,60.8005,0.5318,-0.237,-0.1458,137.682
16:56:55:690,0.4307,0.3733,8.7422,60.7502,0.4679,0.1293,-0.0095,137.682
16:56:55:710,0.2148,0.591,8.2558,60.7861,0.4477,0.2965,0.1695,137.682
16:56:55:729,0.5767,1.0487,7.5326,60.7334,0.6925,0.2049,0.3409,137.682
16:56:55:750,0.9093,1.5446,5.9611,61.0418,1.1399,0.0559,0.4048,137.682
16:56:55:774,0.9356,2.1003,3.9416,61.0763,1.4604,0.0538,0.3377,137.682
16:56:55:790,0.7801,2.8935,2.2528,61.1701,1.3699,0.2209,0.1972,137.682
16:56:55:812,0.749,3.7101,1.4602,60.8933,0.8417,0.4808,-0.0095,137.682
16:56:55:830,1.1276,4.4267,1.7928,60.8923,0.1483,0.6651,-0.33,137.682
16:56:55:851,1.7312,5.0471,3.1944,60.7926,-0.3991,0.5799,-0.7784,137.682
16:56:55:877,0.9817,5.8349,3.999,60.7927,-0.6343,0.3083,-1.2981,137.682
16:56:55:891,-0.1711,4.879,5.9994,60.7393,-0.9188,0.0314,-1.6325,137.7946
16:56:55:911,-0.8632,3.8303,8.9605,60.5212,-1.3341,0.2667,-1.5813,137.9596
16:56:55:932,-1.6056,4.2203,10.4094,60.8349,-1.4001,1.0602,-1.2406,138.1723
16:56:55:952,-2.5663,5.0112,10.3472,60.8655,-1.1594,1.5618,-1.0062,138.4176
16:56:55:976,-3.728,4.4124,11.0082,60.7511,-1.0519,1.2477,-0.9754,138.6847
16:56:55:992,-4.334,2.7571,13.6122,60.4991,-1.1988,0.4702,-0.904,138.9699
16:56:56:012,-4.4255,1.0726,16.7073,60.6761,-1.1329,-0.2157,-0.6453,139.2687
16:56:56:033,-4.6193,0.2871,18.3984,60.7204,-0.5406,-0.6417,-0.2055,139.5728
16:56:56:054,-3.6682,0.052,17.3061,61.367,0.3869,-0.8249,0.3707,139.8715
16:56:56:078,-1.7785,0.6179,15.2865,61.2954,1.1911,-1.0283,0.7499,140.1508
16:56:56:094,-1.1097,1.3484,12.6879,61.2761,1.7214,-1.1784,0.6945,140.4022
16:56:56:113,-1.1916,1.6738,9.5234,61.5036,1.78,-0.8292,0.5081,140.6297
16:56:56:134,-1.3424,1.9424,7.6642,61.5799,1.0824,-0.0762,0.4048,140.8382
16:56:56:153,-1.7085,1.6235,7.8586,61.4433,-0.0113,0.5959,0.3059,141.029
16:56:56:176,-2.0154,0.9027,8.9025,61.3603,-0.6919,0.7385,0.2025,141.2032
16:56:56:193,-2.3892,0.2465,9.4032,61.2064,-0.726,0.3818,0.1557,141.3625
16:56:56:214,-2.5472,-0.1872,9.6455,60.7452,-0.4694,-0.171,0.2526,141.5088
16:56:56:233,-2.1852,-0.4122,9.4684,60.5832,-0.1977,-0.4554,0.5124,141.6406
16:56:56:253,-1.4907,-0.137,8.7302,60.361,0.027,-0.3734,0.8362,141.7502
16:56:56:277,-0.5635,0.2943,7.3603,60.1103,0.2943,-0.2338,1.0843,141.7502
16:56:56:293,0.2961,1.2502,5.796,59.8092,0.5648,-0.253,1.2185,141.7502
16:56:56:315,0.9625,2.2205,4.416,59.4082,0.6543,-0.3861,1.1674,141.7502
16:56:56:334,1.2018,2.7159,4.3178,59.3214,0.3688,-0.4341,0.9278,141.7502
16:56:56:354,0.8136,2.7302,5.0291,59.1202,-0.0443,-0.2732,0.6082,141.7502
16:56:56:379,0.3464,2.6512,5.4365,58.9945,-0.2414,-0.0687,0.4144,141.6572
16:56:56:394,0.0305,2.522,6.3805,58.8971,-0.3852,-0.0495,0.2909,141.5525
16:56:56:415,-0.4175,1.9854,8.1553,58.9135,-0.5269,-0.1145,0.1418,141.4402
16:56:56:435,-0.9637,1.7653,9.4732,58.7346,-0.4427,0.0091,0.0843,141.326
16:56:56:455,-1.3567,2.1912,9.6311,58.8968,-0.1413,0.3242,0.1738,141.2135
16:56:56:478,-1.5984,2.9342,9.3194,59.0113,0.0558,0.5479,0.2238,141.0983
16:56:56:495,-1.4979,3.7101,9.6096,58.8319,-0.0316,0.4584,0.1471,140.9787
16:56:56:515,-1.2084,3.8495,11.3031,58.7994,-0.3852,0.0975,-0.0446,140.8567
16:56:56:536,-0.8273,3.0993,13.2963,58.6709,-0.7398,-0.1518,-0.2289,140.7381
16:56:56:556,-0.3601,2.6536,14.7404,58.5402,-0.7995,-0.2114,-0.2566,140.6301
16:56:56:578,0.2387,2.8863,15.1119,58.3966,-0.5939,-0.1369,-0.2023,140.5343
16:56:56:596,0.3799,3.3224,14.3288,58.1359,-0.4001,0.1453,-0.2353,140.5343
16:56:56:616,0.3846,2.5651,13.6002,57.5666,-0.3884,0.3775,-0.3875,140.5343
16:56:56:637,0.1454,0.5312,14.3862,57.2369,-0.4566,0.2965,-0.5483,140.5343
16:56:56:656,-0.2596,-1.2293,14.2762,56.977,-0.1498,0.2209,-0.445,140.5343
16:56:56:678,-0.1591,-1.4973,12.1125,56.5943,0.5148,0.1794,-0.0265,140.5343
16:56:56:698,0.8662,-0.4552,9.9954,56.3874,0.8992,-0.0858,0.3963,140.5343
16:56:56:717,1.8508,0.8118,8.3635,56.0487,0.8033,-0.4341,0.4964,140.5343
16:56:56:742,1.9681,1.5063,8.3037,55.7065,0.3859,-0.6672,0.2643,140.5343
16:56:56:758,1.4698,0.8668,9.1472,55.7765,-0.006,-0.7035,-0.0744,140.5343
16:56:56:780,1.0845,0.5815,8.5986,55.6903,-0.0092,-0.4724,-0.1639,140.5343
16:56:56:798,1.0439,0.7831,7.7934,55.5788,0.076,-0.2828,-0.1021,140.5343
16:56:56:819,1.0965,1.2814,6.5671,55.442,0.1366,-0.1209,-0.0915,140.5343
16:56:56:842,1.0582,1.6475,5.3958,55.434,0.2122,0.0389,-0.1724,140.5343
16:56:56:859,0.7968,2.0118,4.5452,55.3386,0.2506,0.1218,-0.3214,140.5343
16:56:56:879,0.4283,2.1218,4.5595,55.2345,0.1739,0.073,-0.4951,140.5343
16:56:56:900,-0.003,1.9831,5.6542,55.1591,0.0696,-0.0719,-0.6378,140.5343
16:56:56:920,-0.4032,1.9448,5.6973,54.7658,0.1324,-0.0708,-0.6506,140.5343
16:56:56:943,-0.6185,2.3402,5.2427,54.8148,0.11,0.0964,-0.5387,140.5343
16:56:56:960,-0.396,2.7763,5.93,54.6583,-0.2095,0.2145,-0.4152,140.5343
16:56:56:979,-0.2955,2.9533,8.0309,54.4925,-0.5853,0.2305,-0.3683,140.5343
16:56:57:000,-0.6233,3.0179,10.6828,54.3308,-0.71,0.2081,-0.3747,140.5343
16:56:57:020,-1.2945,3.1926,12.3404,54.0927,-0.4332,0.3104,-0.3214,140.6338
16:56:57:046,-1.8718,3.6,12.3117,53.8545,0.0675,0.5288,-0.1479,140.7384
16:56:57:060,-2.2164,3.8782,12.7645,53.6472,0.2154,0.6268,-0.0031,140.8424
16:56:57:080,-2.1781,3.5521,13.5476,53.5784,0.0812,0.6608,0.0971,140.9408
16:56:57:101,-2.1206,3.8327,13.8664,53.4184,0.0919,0.6981,0.2505,140.9408
16:56:57:121,-2.3533,4.273,13.5045,53.3804,0.2538,0.6534,0.3654,140.9408
16:56:57:145,-1.855,4.4291,12.7908,53.3393,0.3987,0.3849,0.4218,140.9408
16:56:57:161,-1.6032,3.813,12.6951,53.0381,0.3614,-0.1017,0.2973,140.9408
16:56:57:182,-1.5984,2.5029,13.2628,52.8582,0.2719,-0.4724,0.0949,140.9408
16:56:57:201,-1.9699,1.1204,12.9847,52.8888,0.4285,-0.5533,-0.051,140.9408
16:56:57:222,-2.6524,0.4259,11.0877,52.6054,0.6925,-0.3723,-0.0414,140.9408
16:56:57:246,-2.8373,0.3015,9.7101,52.5263,0.5819,-0.221,0.161,140.9408
16:56:57:262,-2.3366,0.2704,9.533,52.5364,0.2165,-0.2551,0.4218,140.9408
16:56:57:282,-1.3759,0.1675,9.195,52.5175,0.0419,-0.3393,0.6519,140.9408
16:56:57:303,-0.5946,0.2919,8.3037,52.6329,0.0908,-0.3936,0.7744,140.9408
16:56:57:323,-0.1496,0.4666,7.185,52.6955,0.1643,-0.4075,0.7872,140.9408
16:56:57:343,0.1095,0.7926,6.0568,52.6231,0.1505,-0.3691,0.767,140.9408
16:56:57:389,0.3129,1.1444,5.5633,52.4736,-0.0124,-0.3158,0.7712,140.8388
16:56:57:391,0.6006,1.5015,5.6686,52.5916,-0.1711,-0.2391,0.7968,140.7088
16:56:57:403,0.95,1.9854,5.5585,52.5418,-0.1072,-0.1539,0.7957,140.5513
16:56:57:424,1.0487,2.3569,5.0554,52.2459,0.075,-0.1529,0.6956,140.3675
16:56:57:444,0.9045,2.7135,4.5978,52.1047,0.1494,-0.2136,0.5156,140.1612
16:56:57:464,0.4062,2.9749,4.4949,51.8854,0.0356,-0.2498,0.3133,139.9388
16:56:57:485,0.0688,2.6728,5.2379,52.0421,-0.2659,-0.2626,0.1216,139.7082
16:56:57:504,-0.3386,2.5077,6.7681,52.1369,-0.5992,-0.3052,0.0033,139.477
16:56:57:524,-0.408,2.4144,8.2582,52.067,-0.7558,-0.3893,-0.0233,139.2494
16:56:57:546,-0.3529,2.5723,9.9159,52.0942,-0.8101,-0.4117,0.0119,139.0279
16:56:57:565,-0.475,2.7422,12.2734,52.006,-0.8879,-0.2274,-0.0382,138.8108
16:56:57:588,-0.5755,2.86,13.8257,52.1182,-0.7121,0.1378,-0.0936,138.5999
16:56:57:606,-0.652,3.1735,13.6074,52.1536,-0.3298,0.3967,-0.1128,138.3969
16:56:57:625,-0.5037,3.3176,13.0421,52.1592,-0.1402,0.2411,-0.166,138.2009
16:56:57:645,0.1669,2.9964,13.6911,52.1559,-0.268,-0.1774,-0.2598,138.0138
16:56:57:667,0.8136,2.5555,14.5035,52.3018,-0.4055,-0.4011,-0.3385,137.8385
16:56:57:686,1.5661,2.0213,14.8002,52.4756,-0.4321,-0.2828,-0.3864,137.6783
16:56:57:706,1.736,0.5336,15.0927,52.4204,-0.496,0.0527,-0.4919,137.5353
16:56:57:725,0.7896,-1.0522,15.5025,52.3873,-0.4864,0.5181,-0.5409,137.4131
16:56:57:746,0.1573,-2.2379,14.537,52.4809,-0.0561,0.877,-0.2767,137.3145
16:56:57:766,0.7681,-1.7803,11.7153,52.4703,0.6383,0.9046,0.2313,137.3145
16:56:57:787,2.2989,-0.3811,8.6082,52.308,0.9493,0.664,0.5699,137.2229
16:56:57:809,2.8499,1.1157,7.2233,52.1954,0.567,0.3349,0.3931,137.1159
16:56:57:827,1.7049,0.5599,8.2439,52.1805,-0.1328,0.0538,-0.1575,136.9992
16:56:57:848,0.2243,-0.1035,8.7829,52.1724,-0.4363,0.0591,-0.4173,136.8915
16:56:57:868,-0.1998,-0.1226,8.5364,52.1071,-0.2989,0.1495,-0.2182,136.8915
16:56:57:888,0.4014,0.4331,7.5805,52.2546,0.0238,0.1059,0.0939,136.8915
16:56:57:914,1.1252,1.2646,6.2967,52.2124,0.355,-0.0346,0.2249,136.8915
16:56:57:928,1.197,1.8036,5.3312,51.9254,0.4967,-0.1806,0.0885,136.7953
16:56:57:948,0.9428,1.9711,4.7707,52.1364,0.4519,-0.2093,-0.1192,136.6965
16:56:57:969,0.6748,2.2756,4.4183,52.3137,0.2879,-0.1358,-0.2842,136.602
16:56:57:990,0.1717,2.4814,4.9214,52.2319,-0.072,-0.0751,-0.4631,136.602
16:56:58:013,-0.2477,2.4885,6.143,52.2036,-0.496,0.0005,-0.609,136.602
16:56:58:029,-0.3625,2.2349,7.8054,52.5243,-0.7153,0.008,-0.673,136.602
16:56:58:048,-0.6185,2.3665,9.1256,52.3443,-0.5523,0.0197,-0.657,136.602
16:56:58:069,-0.9829,3.1113,8.7087,52.3898,-0.1306,0.2763,-0.5142,136.602
16:56:58:089,-1.462,4.1103,8.0907,52.6372,0.0908,0.5277,-0.3395,136.602
16:56:58:113,-1.9125,4.6134,8.5268,52.2906,-0.0262,0.5959,-0.2246,136.602
16:56:58:129,-2.2744,4.5823,9.8848,52.0573,-0.1413,0.5021,-0.1607,136.602
16:56:58:150,-2.3151,4.2323,10.7545,51.9604,-0.0071,0.2081,-0.133,136.602
16:56:58:171,-1.7474,3.8877,11.4586,51.8551,0.1025,-0.1348,-0.0872,136.602
16:56:58:189,-1.2227,3.2381,13.7372,51.5965,-0.1317,-0.3489,-0.1,136.602
16:56:58:214,-0.7077,2.7978,15.8614,51.8198,-0.3479,-0.1507,-0.0361,136.602
16:56:58:231,-0.5396,2.0333,16.9155,51.6724,-0.2638,0.2113,0.0289,136.602
16:56:58:251,-1.1025,0.7448,17.2702,51.4824,0.0812,0.418,-0.034,136.602
16:56:58:271,-2.1398,0.1771,15.5432,51.6304,0.7405,0.5628,0.0097,136.602
16:56:58:291,-2.339,0.5551,12.405,51.7316,1.3305,0.6502,0.2281,136.602
16:56:58:312,-2.0632,1.0199,9.9398,51.6538,1.2827,0.5373,0.3451,136.602
16:56:58:332,-1.4477,0.8501,8.9145,51.6694,0.6841,0.3477,0.308,136.602
16:56:58:352,-0.6473,0.4786,9.0802,51.5686,0.0238,0.1282,0.2515,136.602
16:56:58:373,-0.3458,-0.3236,9.2046,51.315,-0.2819,-0.1273,0.1514,136.602
16:56:58:394,-0.4654,-0.9081,8.5268,51.3999,-0.2371,-0.3393,0.1354,136.602
16:56:58:416,-0.6933,-0.9009,7.2544,51.5004,-0.0869,-0.416,0.3197,136.602
16:56:58:434,-0.4463,-0.3834,6.0305,51.4213,0.0015,-0.4778,0.6519,136.602
16:56:58:453,0.3129,0.6562,5.482,51.4866,-0.0071,-0.6491,0.9564,136.602
16:56:58:474,0.9673,1.7031,5.616,51.5618,-0.0912,-0.7301,1.0587,136.4834
16:56:58:493,1.2664,2.2995,5.8822,51.6582,-0.1253,-0.6342,0.9501,136.3281
16:56:58:515,1.075,2.9342,5.7362,51.4948,-0.0262,-0.4458,0.7553,136.141
16:56:58:534,0.3655,3.1639,5.7362,51.4668,0.0664,-0.3968,0.5007,135.9297
16:56:58:557,-0.1926,3.1304,5.875,51.4393,0.0643,-0.4298,0.2931,135.7037
16:56:58:574,-0.6281,2.9222,6.2148,51.3409,-0.0198,-0.3893,0.1802,135.4709
16:56:58:594,-0.8465,2.7906,7.0487,51.2211,-0.1636,-0.3585,0.1407,135.2354
16:56:58:617,-0.9829,2.6177,8.8618,51.1545,-0.3458,-0.3521,0.1194,134.9994
16:56:58:633,-1.0307,2.3833,10.5823,50.8017,-0.3533,-0.3095,0.113,134.7635
16:56:58:653,-0.9087,2.7159,11.3916,50.6322,-0.0891,-0.2849,0.1461,134.5266
16:56:58:674,-0.53,2.8696,11.5663,50.944,0.0951,-0.2146,0.1301,134.2894
16:56:58:693,0.143,2.68,12.1053,50.8595,-0.0933,-0.1166,0.03,134.052
16:56:58:715,0.4158,2.0094,13.27,50.7718,-0.5342,0.1016,-0.1405,133.818
16:56:58:734,0.1525,1.3771,14.1296,50.6809,-0.7409,0.4201,-0.2087,133.595
16:56:58:754,0.9141,1.6259,13.5165,50.705,-0.3671,0.483,-0.0105,133.3864
16:56:58:774,2.1769,2.4861,12.0383,50.53,0.1675,0.1154,0.0758,133.1838
16:56:58:794,2.857,2.613,11.7105,50.7824,0.1792,-0.3361,-0.2672,132.9838
16:56:58:816,2.7039,0.8668,13.1713,50.7091,-0.2606,-0.4618,-0.7422,132.7971
16:56:58:835,1.7432,-0.6832,14.6351,50.6967,-0.4108,-0.172,-0.9242,132.6426
16:56:58:855,0.4014,-1.3992,13.7103,50.5945,0.1111,0.2976,-0.7571,132.5275
16:56:58:875,-0.1519,-0.6999,10.3161,50.8379,0.8065,0.5959,-0.3342,132.5275
16:56:58:896,-0.1376,0.3111,8.0644,51.0488,0.8289,0.418,-0.0297,132.5275
16:56:58:915,0.1693,0.8333,7.9639,51.1503,0.2293,0.0889,0.0513,132.5275
16:56:58:936,0.3224,0.6897,8.4144,51.403,-0.3053,-0.0037,0.0513,132.5275
16:56:58:956,0.3703,0.7041,8.1936,51.4069,-0.53,0.1623,0.1067,132.5275
16:56:58:982,0.5886,1.1641,7.6116,51.6419,-0.6003,0.3935,0.2132,132.5275
16:56:58:996,0.6365,1.5254,7.6164,51.5546,-0.5683,0.4616,0.227,132.5275
16:56:59:017,0.5456,1.4058,7.3866,51.7428,-0.2712,0.2699,0.1386,132.4329
16:56:59:037,0.8351,1.7127,6.2172,51.4555,0.2399,-0.0016,0.1013,132.3351
16:56:59:057,0.8925,2.1529,5.1924,51.1967,0.5339,-0.2317,-0.0095,132.2352
16:56:59:082,0.8806,2.5651,4.6845,51.0149,0.4818,-0.2423,-0.1724,132.137
16:56:59:096,0.7872,2.8026,5.0148,50.8902,0.1803,-0.0442,-0.3246,132.0466
16:56:59:118,0.8016,2.9773,5.4556,50.7099,-0.0869,0.1676,-0.4354,132.0466
16:56:59:138,0.9553,3.2692,6.064,50.5818,-0.2776,0.1996,-0.5483,132.0466
16:56:59:158,0.548,3.1304,8.1649,50.6213,-0.5619,0.0005,-0.7369,132.0466
16:56:59:184,-0.3075,2.2516,12.0574,50.4955,-0.8176,-0.1752,-0.8944,132.0466
16:56:59:198,-1.1767,1.8897,14.4293,50.5569,-0.4779,0.0091,-0.7262,132.0466
16:56:59:218,-1.675,2.6847,13.6241,50.5961,0.3156,0.4137,-0.2778,132.0466
16:56:59:238,-1.2778,3.7675,11.7224,50.7681,0.8001,0.582,0.0971,132.0466
16:56:59:259,-0.585,4.2586,11.5543,50.8201,0.5723,0.4318,0.1919,132.0466
16:56:59:281,-0.8177,3.9523,12.8937,50.7292,0.1153,0.2454,0.1333,132.0466
16:56:59:299,-1.3974,3.6479,13.2174,50.7124,0.0823,0.0474,0.2164,132.0466
16:56:59:319,-1.1001,3.2189,12.6975,50.5981,0.3422,-0.2999,0.425,132.0466
16:56:59:340,0.1813,2.3689,12.7334,50.6635,0.4679,-0.6555,0.4857,132.0466
16:56:59:360,0.9308,2.2516,12.6664,50.7467,0.5595,-0.712,0.2995,132.0466
16:56:59:384,0.0401,1.8873,10.9651,50.8107,0.798,-0.5618,-0.0702,132.0466
16:56:59:423,-0.9206,1.4512,9.396,50.6481,0.7479,-0.5394,-0.2905,132.0466
16:56:59:426,-1.1216,0.7519,9.7364,50.5556,0.1782,-0.6555,-0.2726,132.0466
16:56:59:439,-0.6305,0.0329,10.8168,50.775,-0.4044,-0.6928,-0.1778,132.0466
16:56:59:461,-0.3482,-0.4504,10.9364,50.6846,-0.5715,-0.549,-0.1117,132.0466
16:56:59:481,-0.6138,-0.6664,10.4644,50.9932,-0.4907,-0.2988,-0.0648,132.0466
16:56:59:500,-1.014,-0.5396,8.9892,50.9969,-0.2563,0.0208,0.1024,132.0466
16:56:59:520,-0.9159,0.0018,7.0295,51.0238,-0.0071,0.3072,0.3526,132.0466
16:56:59:542,-0.6981,0.661,5.7362,50.9874,0.043,0.3434,0.4985,132.0466
16:56:59:564,-0.5468,1.1713,5.6638,51.0507,-0.0678,0.1559,0.5166,132.0466
16:56:59:584,-0.2381,1.5302,5.9611,50.9941,-0.0678,-0.041,0.522,132.0466
16:56:59:602,0.1358,1.8969,6.0808,50.9367,0.1047,-0.1603,0.5092,132.0466
16:56:59:621,0.3775,2.0429,6.3446,51.0493,0.3209,-0.2668,0.3941,131.9483
16:56:59:642,0.3176,1.9161,6.9506,50.6395,0.4573,-0.2818,0.2164,131.8373
16:56:59:661,-0.0556,2.0022,6.7854,50.5279,0.5244,-0.0091,0.1056,131.72
16:56:59:685,-0.3218,2.4766,6.4977,50.2986,0.3326,0.5,0.1226,131.5999
16:56:59:702,-0.5276,2.8768,7.0367,50.1513,-0.1338,0.91,0.145,131.4763
16:56:59:722,-0.6353,2.9964,8.3683,50.1179,-0.479,0.8311,0.1322,131.35
16:56:59:742,-0.518,3.1161,10.5942,50.2908,-0.4395,0.2869,0.0811,131.2216
16:56:59:763,-0.9613,3.2285,11.7942,50.128,-0.0859,-0.1294,-0.0031,131.0927
16:56:59:784,-1.3735,3.4469,10.9819,50.0891,0.2186,-0.188,0.0758,130.9662
16:56:59:804,-0.0556,3.1304,10.0552,49.9821,-0.0156,-0.2114,0.2909,130.8389
16:56:59:823,1.7815,2.4215,12.7932,50.1172,-0.8357,-0.5117,0.3091,130.7038
16:56:59:844,2.5143,1.6786,16.2712,50.1845,-1.2776,-0.7599,0.1077,130.5613
16:56:59:864,2.7494,0.74,16.5972,50.1847,-0.7899,-0.6268,-0.0648,130.421
16:56:59:884,2.3803,-0.2207,16.2736,49.8019,-0.2851,-0.2871,-0.1831,130.2897
16:56:59:904,1.6331,-0.7262,15.7442,49.7037,-0.0891,0.3349,-0.1895,130.171
16:56:59:924,1.2903,-0.5874,13.5906,49.6382,0.29,0.9217,-0.0276,130.0652
16:56:59:944,1.4841,0.0305,11.2552,49.5871,0.665,0.8738,0.0864,129.9657
16:56:59:965,2.1242,0.862,9.5617,49.8811,0.7106,0.4382,0.0364,129.8669
16:56:59:985,1.9083,1.2072,8.5053,49.9126,0.3955,0.1644,-0.2566,129.7709
16:57:00:005,0.737,0.6078,8.4383,49.8749,-0.0891,0.173,-0.5664,129.7709
16:57:00:025,-0.195,0.0305,8.6536,50.1434,-0.3692,0.272,-0.576,129.7709
16:57:00:048,0.186,0.2943,8.1769,50.4584,-0.2616,0.2007,-0.264,129.7709
16:57:00:065,1.3645,0.9936,7.8269,50.621,-0.0177,-0.2189,-0.0169,129.7709
16:57:00:086,1.9011,1.48,7.3699,50.7243,0.2059,-0.598,-0.0617,129.7709
16:57:00:106,1.8987,1.6546,7.0989,50.9451,0.4317,-0.6427,-0.2321,129.7709
16:57:00:126,1.6116,1.6235,5.9061,50.6797,0.7266,-0.3744,-0.3704,129.7709
16:57:00:147,1.1085,2.0692,3.9894,50.6041,0.9003,0.0666,-0.445,129.7709
16:57:00:166,0.5145,2.5747,3.1633,50.6935,0.6852,0.3764,-0.543,129.7709
16:57:00:187,-0.0317,2.7159,2.9617,50.6145,0.3422,0.4787,-0.6857,129.7709
16:57:00:207,-0.8608,2.8552,3.1681,50.7348,0.0569,0.3988,-0.8061,129.7709
16:57:00:227,-1.651,2.9868,4.4638,50.4519,-0.2499,0.1282,-0.8157,129.7709
16:57:00:252,-1.596,2.9701,6.9075,50.5602,-0.5747,-0.1976,-0.6825,129.8692
16:57:00:267,-0.9685,3.1496,9.6957,50.6133,-0.76,-0.27,-0.4855,129.9851
16:57:00:289,-1.1892,3.5713,12.6323,50.6825,-0.7292,-0.0368,-0.4216,130.1126
16:57:00:308,-1.922,3.4301,14.3169,50.9318,-0.4161,0.2976,-0.3779,130.2495
16:57:00:327,-2.3438,3.5713,13.7222,50.9455,0.0792,0.5522,-0.1607,130.3927
16:57:00:352,-1.8933,4.0122,13.1928,51.088,0.3007,0.5831,0.1173,130.5347
16:57:00:368,-1.3017,4.8072,13.0086,51.297,0.2431,0.5618,0.2835,130.6655
16:57:00:388,-1.261,5.4832,12.6951,51.6828,0.1483,0.565,0.2707,130.781
16:57:00:409,-1.2849,4.9729,12.4505,51.7205,-0.0017,0.4041,0.1386,130.8813
16:57:00:428,-1.2419,3.6,13.6074,51.7546,-0.2883,0.1165,-0.0031,130.8813
16:57:00:452,-1.4716,1.8562,14.6877,52.0372,-0.3085,-0.0879,-0.1011,130.8813
16:57:00:468,-2.1781,0.4594,13.8903,52.1019,0.1334,-0.1678,-0.0553,130.8813
16:57:00:489,-2.4395,-0.0485,12.149,52.4313,0.5276,-0.1806,0.1951,130.8813
16:57:00:510,-2.2648,0.0497,10.6445,52.3802,0.5872,-0.1752,0.5209,130.8813
16:57:00:529,-1.8287,0.1244,10.2873,52.5435,0.4807,-0.2636,0.7616,130.8813
16:57:00:551,-1.2514,0.1866,9.679,52.4378,0.4711,-0.4053,0.9023,130.8813
16:57:00:573,-0.7125,0.3159,8.5388,52.6735,0.5105,-0.4692,0.9788,130.8813
16:57:00:592,-0.3242,0.4475,7.535,52.6935,0.4114,-0.5096,0.9703,130.8813
16:57:00:611,-0.2166,0.4618,7.334,52.8931,0.1632,-0.533,0.898,130.8813
16:57:00:630,-0.1519,0.4259,7.2066,52.7655,-0.006,-0.4117,0.8959,130.7899
16:57:00:652,0.1669,0.6945,6.4331,52.7977,0.0334,-0.2029,0.9927,130.6696
16:57:00:670,0.7346,1.2598,5.12,53.0367,0.2005,-0.0911,1.064,130.5186
16:57:00:691,1.3358,2.0524,3.9464,53.1138,0.2708,-0.123,1.0023,130.3341
16:57:00:712,1.4171,2.723,3.4696,53.3169,0.1196,-0.1294,0.7776,130.1186
16:57:00:731,1.0439,2.9366,4.0229,53.6716,-0.1264,-0.1124,0.5124,129.8807
16:57:00:754,0.7944,2.6632,5.2714,54.0134,-0.2723,-0.204,0.3261,129.6313
16:57:00:772,0.3679,2.6177,6.5743,54.1576,-0.2691,-0.2604,0.2387,129.3766
16:57:00:792,-0.3553,2.1936,8.8187,54.3309,-0.2531,-0.3702,0.1855,129.1212
16:57:00:812,-0.5587,1.6935,10.7139,54.5324,-0.0827,-0.5937,0.2675,128.8663
16:57:00:834,0.1645,2.3186,11.9569,54.7231,0.1174,-0.6736,0.5305,128.6102
16:57:00:854,2.3492,3.7125,11.8373,55.028,0.2229,-0.6459,0.6935,128.3426
16:57:00:874,3.8608,4.5344,12.3093,54.7344,0.1196,-0.9548,0.3686,128.0582
16:57:00:894,4.1025,3.5402,13.2939,54.6417,-0.1466,-1.2935,-0.2545,127.7684
16:57:00:912,3.9972,3.0251,13.2221,54.5601,-0.3937,-0.8611,-0.5494,127.4978
16:57:00:933,3.9374,3.3607,12.5749,54.5865,-0.7782,0.1858,-0.5632,127.2585
16:57:00:955,2.8786,2.2397,13.3059,54.8363,-1.3138,1.0346,-0.7667,127.0521
16:57:00:973,1.3167,-0.1442,14.4556,54.9787,-1.4427,1.27,-0.9455,126.8873
16:57:00:993,0.0449,-1.0068,14.4748,54.9369,-0.8911,1.1784,-0.6602,126.7699
16:57:01:013,0.2506,-0.1609,12.8339,54.9975,0.0004,0.8993,-0.0222,126.7699
16:57:01:033,1.925,1.1809,10.1892,55.4114,0.6968,0.3296,0.4048,126.7699
16:57:01:056,3.4295,2.3091,9.0275,55.8528,0.6799,-0.3446,0.3037,126.6747
16:57:01:073,3.4774,1.9591,10.0289,56.0538,0.0132,-0.6225,-0.2097,126.5716
16:57:01:094,2.5962,0.8453,10.6421,56.4045,-0.5704,-0.1539,-0.6304,126.48
16:57:01:114,1.8245,0.6132,9.274,56.6967,-0.7004,0.696,-0.6943,126.48
16:57:01:134,1.2903,1.0702,7.4249,56.9117,-0.6557,1.3498,-0.6314,126.48
16:57:01:156,0.7801,1.2646,6.6485,56.925,-0.563,1.4371,-0.6495,126.48
16:57:01:174,0.3344,1.0678,6.0185,56.9239,-0.2084,0.9995,-0.7081,126.48
16:57:01:195,0.2363,1.4297,5.0794,57.0232,0.3071,0.4254,-0.6847,126.48
16:57:01:214,0.1789,1.6259,4.4064,56.9122,0.6011,-0.0272,-0.6943,126.48
16:57:01:234,0.1454,1.6451,4.1719,57.3175,0.5137,-0.1358,-0.7411,126.5714
16:57:01:256,-0.262,1.6863,4.4806,57.4999,0.0951,0.074,-0.7837,126.6862
16:57:01:276,-0.7053,1.59,5.5801,57.4825,-0.4023,0.2944,-0.7837,126.8252
16:57:01:296,-0.4415,1.6863,7.6834,57.5167,-0.5992,0.2901,-0.6186,126.9874
16:57:01:316,-0.0867,2.1697,9.5282,57.8663,-0.4172,0.2965,-0.4525,127.1673
16:57:01:335,-0.1591,3.0562,10.084,58.068,0.0089,0.4169,-0.3811,127.3572
16:57:01:357,-0.6742,4.0409,9.9613,58.3519,0.323,0.598,-0.3726,127.5568
16:57:01:376,-1.3854,4.2156,10.9747,58.6175,0.176,0.68,-0.4407,127.7647
16:57:01:396,-1.7569,3.5761,12.4768,58.6432,-0.088,0.6758,-0.5057,127.982
16:57:01:421,-2.3007,2.9366,13.4638,58.7367,-0.0976,0.6086,-0.5249,128.2107
16:57:01:472,-2.9091,2.8337,13.9621,59.0417,0.0664,0.4851,-0.4343,128.4513
16:57:01:473,-2.7721,3.3129,13.593,59.342,0.2666,0.3988,-0.1714,128.7009
16:57:01:477,-2.4873,3.2913,12.987,59.5076,0.3656,0.2699,0.0001,128.9504
16:57:01:497,-2.5998,2.601,12.4887,59.7651,0.4072,0.0581,-0.0137,129.194
16:57:01:522,-2.8301,1.8634,11.3055,59.5909,0.4903,0.0431,-0.0393,129.4336
16:57:01:537,-3.1842,0.7137,9.947,59.7902,0.4232,0.1474,-0.084,129.6703
16:57:01:557,-3.8285,-0.4409,9.7627,59.9478,0.1377,-0.0889,-0.1554,129.9068
16:57:01:577,-4.2407,-1.4183,10.4883,60.232,-0.2095,-0.4937,-0.0883,130.144
16:57:01:598,-3.8237,-2.0919,11.26,60.3313,-0.4545,-0.7322,0.177,130.3778
16:57:01:622,-2.7314,-1.998,11.2672,60.3241,-0.4342,-0.794,0.5198,130.5993
16:57:01:638,-1.5218,-1.2724,10.0648,60.2854,-0.2073,-0.6513,0.8053,130.7973
16:57:01:658,-0.6066,-0.2351,8.1984,60.3502,-0.0539,-0.3361,0.9586,130.964
16:57:01:680,-0.0078,0.5073,6.5408,60.5953,-0.0646,-0.0868,0.9671,131.0957
16:57:01:699,0.5551,1.1833,5.3623,60.6684,-0.1658,0.0059,0.8682,131.1928
16:57:01:722,0.6891,1.6522,5.19,60.6821,-0.3596,0.0027,0.6849,131.1928
16:57:01:740,0.3248,1.4776,6.5025,60.767,-0.4853,-0.0996,0.4879,131.1928
16:57:01:760,0.1478,1.4847,6.7609,60.8832,-0.1828,-0.2359,0.4176,131.1928
16:57:01:780,0.0497,1.9639,5.9755,61.0584,0.2815,-0.2977,0.4442,131.1928
16:57:01:800,-0.3051,2.0716,6.0114,61.2454,0.4274,-0.368,0.3441,131.1928
16:57:01:824,-0.7412,2.0429,6.1932,61.2796,0.355,-0.3169,0.2132,131.1928
16:57:01:841,-1.3113,1.9232,6.9027,61.4194,0.1643,-0.1699,0.1322,131.1928
16:57:01:860,-1.5386,1.6235,8.275,61.587,-0.0635,-0.0634,0.1205,131.1928
16:57:01:880,-1.745,1.7916,9.3386,61.7921,-0.1519,0.0591,0.1684,131.1928
16:57:01:901,-1.4907,2.4407,10.2491,61.952,-0.2222,0.1325,0.2505,131.1928
16:57:01:922,-0.8512,2.9151,11.6985,61.9483,-0.4087,0.0091,0.2249,131.1928
16:57:01:940,-0.4917,2.3856,13.2293,62.0508,-0.4704,-0.3861,0.0417,131.1928
16:57:01:961,-0.0341,1.8873,14.7787,62.0273,-0.365,-0.8547,-0.0595,131.1928
16:57:01:981,0.9577,1.5709,16.0846,62.042,-0.2446,-0.9708,0.0129,131.1928
16:57:02:001,1.4578,1.6451,16.2856,62.3084,-0.1296,-0.5447,0.0491,131.1928
16:57:02:024,1.2138,0.9505,15.0568,62.4007,-0.055,0.1154,-0.035,131.1928
16:57:02:042,0.5862,-0.082,14.5442,62.5649,-0.0678,0.5021,-0.1288,131.1928
16:57:02:062,0.064,-0.6951,13.4638,62.4608,0.1196,0.7321,-0.067,131.1928
16:57:02:082,-0.1687,-0.5946,11.3605,62.4351,0.5105,0.8652,0.1269,131.1928
16:57:02:103,0.5599,-0.0102,9.2788,62.3502,0.7394,0.6747,0.2963,131.1928
16:57:02:123,1.8389,0.8644,7.6307,62.3216,0.5829,0.2912,0.2451,131.1928
16:57:02:143,1.6379,0.6849,8.0046,62.3808,-0.072,-0.0527,-0.2353,131.1928
16:57:02:163,0.2411,-0.92,9.9206,62.3174,-0.8027,-0.1784,-0.7816,131.1928
16:57:02:183,-0.9757,-1.7468,10.0289,62.2451,-0.9369,0.0921,-0.8349,131.1928
16:57:02:203,-1.4524,-1.2915,8.6417,62.1896,-0.7078,0.5075,-0.4503,131.1928
16:57:02:224,-1.2347,-0.2853,7.5015,62.1656,-0.496,0.731,-0.0361,131.2975
16:57:02:244,-0.9709,-0.0389,6.8453,62.2532,-0.219,0.6342,0.1471,131.4025
16:57:02:263,-0.6377,0.4881,5.4461,62.5051,0.2687,0.4158,0.2803,131.5012
16:57:02:284,-0.1783,1.3938,4.3729,62.8044,0.6149,0.0783,0.4165,131.5012
16:57:02:305,0.7968,2.3641,3.9416,63.0046,0.6893,-0.2519,0.5028,131.5012
16:57:02:325,1.7815,3.3057,4.0612,62.8255,0.6117,-0.4202,0.3899,131.5012
16:57:02:345,2.184,3.7747,4.3226,62.7838,0.4626,-0.4533,0.0012,131.5012
16:57:02:365,1.6714,3.7029,5.077,62.6949,0.1345,-0.4128,-0.494,131.5012
16:57:02:386,0.7825,3.1519,6.7657,62.8907,-0.3373,-0.3126,-0.8338,131.5012
16:57:02:405,-0.1615,2.4263,9.8584,62.8165,-0.6674,-0.1912,-0.9157,131.6146
16:57:02:427,-0.8512,2.1864,11.8397,62.7114,-0.5406,0.1644,-0.7411,131.7577
16:57:02:445,-1.5027,2.9486,11.7559,62.4892,-0.1168,0.6268,-0.4035,131.9236
16:57:02:465,-2.1565,3.3129,11.4084,62.3639,0.0111,0.9196,-0.1586,132.1001
16:57:02:492,-2.4802,2.6441,12.1944,62.1233,-0.3831,1.2189,0.0438,132.2782
16:57:02:505,-2.9019,1.9974,14.3001,61.9463,-0.8815,1.3519,0.2622,132.4489
16:57:02:526,-2.214,1.94,16.2688,61.9392,-0.8431,1.0016,0.5401,132.6029
16:57:02:546,-1.4189,2.4766,16.748,61.815,-0.1764,0.3391,0.5763,132.7315
16:57:02:566,-1.8096,2.0189,15.4475,61.7611,0.7043,-0.3553,0.2643,132.8386
16:57:02:593,-2.3007,1.9854,13.4303,61.551,1.3582,-0.6363,0.0992,132.9403
16:57:02:606,-2.4395,2.2875,11.1811,61.6055,1.5861,-0.3691,0.1599,133.0455
16:57:02:626,-2.5041,2.254,9.7029,61.4006,1.3582,-0.1081,0.0822,133.1521
16:57:02:647,-2.988,1.7892,9.6239,61.4671,0.863,-0.172,-0.1948,133.2608
16:57:02:667,-3.9248,0.7878,9.7316,61.2386,0.4072,-0.384,-0.4535,133.3794
16:57:02:690,-4.2574,0.0185,9.5163,61.0135,0.0686,-0.5799,-0.412,133.5161
16:57:02:707,-3.7448,-0.4337,9.8489,60.9223,-0.2489,-0.7908,-0.1533,133.6655
16:57:02:728,-2.6644,-0.6688,9.4199,60.9473,-0.332,-0.8473,0.1589,133.8173
16:57:02:748,-1.4524,-0.1394,7.5182,60.7945,-0.1828,-0.6459,0.49,133.9611
16:57:02:768,-0.4463,0.5647,5.671,60.6185,-0.1562,-0.4383,0.653,134.0857
16:57:02:791,0.131,0.9482,5.1631,60.4256,-0.3362,-0.384,0.6306,134.1861
16:57:02:808,0.2219,0.3709,6.7878,60.3632,-0.4832,-0.5756,0.5337,134.1861
16:57:02:828,0.2483,0.0885,7.4393,60.5588,-0.1722,-0.6182,0.5795,134.1861
16:57:02:849,0.5025,0.6395,6.4307,60.4927,0.4104,-0.4288,0.7648,134.1861
16:57:02:868,0.615,1.3101,5.4126,60.1405,0.7256,-0.2455,0.7979,134.1861
16:57:02:892,0.603,1.8179,4.5165,59.8713,0.6703,-0.0975,0.6636,134.1861
16:57:02:909,0.3679,2.0907,5.01,59.6761,0.3113,-0.0197,0.4538,134.1861
16:57:02:929,0.0784,1.9137,6.3661,59.3781,-0.0443,-0.0112,0.2174,134.1861
16:57:02:950,-0.1256,2.0285,7.3095,59.4238,-0.12,0.0357,0.0811,134.1861
16:57:02:970,-0.1687,2.7523,7.9519,59.0991,-0.0997,0.1016,-0.0169,134.1861
16:57:02:993,-0.2692,3.4971,8.6536,58.8212,-0.3011,0.1996,-0.2268,134.1861
16:57:03:010,-0.408,2.7643,10.5003,58.6917,-0.7941,0.1144,-0.5505,134.1861
16:57:03:030,-0.2883,1.4919,13.3346,58.5611,-1.2829,-0.1582,-0.7891,134.1861
16:57:03:051,-0.0485,0.0162,16.2832,58.4202,-1.4928,-0.2114,-0.8157,134.1861
16:57:03:070,-0.1256,0.0233,17.4018,58.4043,-1.2084,0.1698,-0.6154,134.1861
16:57:03:093,-0.082,1.2526,15.5049,58.3127,-0.6003,0.6278,-0.3481,134.2852
16:57:03:111,-0.3075,1.3077,13.8975,58.0979,-0.3756,0.5788,-0.3534,134.3962
16:57:03:131,-0.801,-0.2447,14.6375,57.9665,-0.5939,0.239,-0.4439,134.5185
16:57:03:152,-1.0403,-1.4471,15.5695,57.5622,-0.5821,0.1559,-0.1916,134.6541
16:57:03:171,-0.2979,-1.5984,14.8415,57.179,-0.0422,0.1261,0.2867,134.7945
16:57:03:194,1.5398,-0.6066,12.4911,57.1069,0.6437,-0.1316,0.6445,134.9265
16:57:03:214,2.8283,0.8501,10.3472,56.6799,0.879,-0.3979,0.5529,135.0392
16:57:03:233,2.2247,1.051,9.3434,56.3313,0.7064,-0.4969,0.0278,135.1349
16:57:03:253,0.859,0.3063,8.5005,56.2787,0.5212,-0.383,-0.3971,135.2314
16:57:03:274,0.1334,0.0688,7.2449,56.1915,0.4839,-0.1273,-0.4312,135.3422
16:57:03:293,-0.0867,0.079,5.7123,56.2934,0.4732,0.0378,-0.3087,135.4679
16:57:03:314,0.3129,0.4092,4.8305,56.1055,0.3933,-0.024,-0.166,135.6032
16:57:03:334,0.926,0.874,4.5332,55.9921,0.306,-0.1869,-0.1288,135.7444
16:57:03:352,1.2162,1.1061,4.6726,55.8851,0.2794,-0.3403,-0.2481,135.8897
16:57:03:374,1.2927,1.1713,4.6391,55.7574,0.3262,-0.3957,-0.412,136.0431
16:57:03:393,1.2114,1.4106,4.5117,56.0116,0.3869,-0.4202,-0.5451,136.2099
16:57:03:413,1.0582,1.6355,4.4806,55.8222,0.3369,-0.4873,-0.657,136.3943
16:57:03:434,0.8997,1.8299,5.4796,55.7492,0.0718,-0.5469,-0.7358,136.5984
16:57:03:453,0.6724,1.9256,7.2879,55.8215,-0.218,-0.5341,-0.7763,136.8247
16:57:03:508,0.2195,2.1314,8.5675,55.9231,-0.3394,-0.1806,-0.723,137.0745
16:57:03:509,-0.4391,2.7063,9.6694,55.7273,-0.4672,0.4478,-0.5899,137.3447
16:57:03:513,-0.9589,3.0371,10.8479,55.687,-0.5545,0.8674,-0.4578,137.6307
16:57:03:534,-1.6343,3.4158,11.8182,55.5046,-0.4534,0.8546,-0.3907,137.9247
16:57:03:558,-2.4969,3.5234,12.6036,55.2849,-0.2925,0.5596,-0.4035,138.2232
16:57:03:574,-3.0096,3.0969,13.1689,55.2181,-0.1477,0.2284,-0.3481,138.5259
16:57:03:594,-2.9091,2.9509,13.9358,55.2427,-0.0103,0.0282,-0.1224,138.8313
16:57:03:614,-2.3342,3.4899,13.4519,55.0615,0.1899,0.1122,0.1322,139.1317
16:57:03:635,-2.1517,3.1352,12.2279,55.2346,0.2442,0.271,0.2004,139.4186
16:57:03:659,-2.1302,2.3928,13.078,55.5516,0.126,-0.0517,0.2047,139.6905
16:57:03:675,-0.7675,2.3426,12.7621,55.7111,0.5755,-0.8813,0.3451,139.9477
16:57:03:695,0.9769,1.9472,11.339,55.5815,1.1005,-1.7535,0.2973,140.1871
16:57:03:716,1.3262,0.39,11.72,55.5278,0.6671,-2.0006,-0.0936,140.4099
16:57:03:735,0.8662,-0.9607,13.5045,55.516,-0.1881,-1.3371,-0.2948,140.6304
16:57:03:760,0.1167,-1.8712,14.2229,55.603,-0.6514,-0.1816,-0.132,140.8574
16:57:03:776,-0.195,-1.4542,12.5246,55.5714,-0.5726,0.8258,0.2696,141.0866
16:57:03:797,0.1382,-0.4146,9.8393,55.4856,-0.3628,1.32,0.6104,141.3032
16:57:03:816,0.2818,0.4977,7.6259,55.3282,-0.2915,1.3253,0.6668,141.4943
16:57:03:836,0.1071,1.0008,6.6102,55.371,-0.2457,0.9494,0.5326,141.658
16:57:03:858,0.0066,1.0774,5.9396,55.6421,-0.0475,0.3487,0.4186,141.7992
16:57:03:876,0.32,1.2909,5.5322,55.6815,0.192,-0.1411,0.4122,141.9222
16:57:03:896,0.4014,1.4991,5.8032,55.8031,0.2847,-0.3957,0.3526,142.028
16:57:03:918,0.4307,1.657,5.6542,55.6987,0.4146,-0.4213,0.2856,142.1186
16:57:03:938,0.3296,1.8419,5.604,55.8758,0.4924,-0.2839,0.2164,142.1186
16:57:03:960,0.0999,1.9496,5.5298,55.9702,0.4668,-0.073,0.1237,142.1186
16:57:03:978,-0.2812,2.0596,5.7123,56.1044,0.3592,0.0538,0.0161,142.1186
16:57:03:998,-0.7172,1.9376,6.8261,56.0271,0.1228,0.1165,-0.1021,142.1186
16:57:04:019,-1.3208,1.4632,7.815,55.9837,-0.0806,0.2933,-0.165,142.1186
16:57:04:038,-1.5577,2.1242,7.8969,56.0938,-0.1434,0.5756,-0.0254,142.1186
16:57:04:061,-1.2251,2.9462,8.5268,56.3213,-0.3565,0.6885,0.0481,142.1186
16:57:04:078,-1.0403,3.2381,9.4612,56.485,-0.6578,0.4574,-0.1266,142.1186
16:57:04:100,-0.7795,2.0812,11.461,56.4982,-0.9039,-0.2658,-0.4312,142.1186
16:57:04:119,-0.3888,0.5073,14.4293,56.6066,-1.0892,-0.9527,-0.5888,142.1186
16:57:04:140,0.064,-0.2662,16.7384,56.8353,-1.0072,-0.9644,-0.4482,142.2277
16:57:04:161,0.8447,0.2106,16.2473,57.0387,-0.4076,-0.5106,-0.1543,142.3502
16:57:04:180,1.0774,0.4929,13.4327,57.3166,0.4019,-0.302,-0.0798,142.476
16:57:04:199,1.4602,0.5288,11.2792,57.5946,0.6682,-0.3393,-0.1138,142.6016
16:57:04:220,1.2497,-0.1298,11.4682,57.6453,-0.006,0.0953,-0.1639,142.7282
16:57:04:240,1.2903,-1.5212,12.551,57.8223,-0.7803,0.6853,-0.1266,142.8579
16:57:04:261,2.0931,-2.5513,13.6552,58.065,-0.9124,0.582,0.0289,142.99
16:57:04:280,3.3482,-2.0291,13.4423,58.1335,-0.4449,-0.0762,0.1589,143.1203
16:57:04:301,3.5946,-1.0786,11.811,58.1759,-0.0486,-0.4884,-0.0031,143.2447
16:57:04:321,2.5795,-0.7167,10.0744,58.2889,-0.2979,-0.1923,-0.347,143.3689
16:57:04:341,1.1396,-0.8985,9.8943,58.512,-0.8975,0.4457,-0.5473,143.5051
16:57:04:364,0.4187,-0.9607,9.6239,58.7465,-0.9987,0.927,-0.445,143.659
16:57:04:381,0.4307,-0.4361,8.2798,59.0638,-0.4406,1.0431,-0.215,143.8256
16:57:04:401,0.7729,0.4355,6.3589,59.3685,0.3017,0.7907,-0.0723,143.9958
16:57:04:422,0.8231,1.3842,4.6313,59.4286,0.7948,0.4276,-0.1245,144.1648
16:57:04:441,0.5384,1.8299,4.0947,59.8903,0.913,0.1889,-0.2842,144.3346
16:57:04:464,0.1167,2.0213,4.0373,60.0807,0.8395,0.108,-0.4461,144.5104
16:57:04:482,-0.542,2.208,4.5571,60.2887,0.6778,0.1453,-0.5526,144.6977
16:57:04:502,-1.2371,2.3402,5.4604,60.3701,0.4764,0.1122,-0.6133,144.8992
16:57:04:522,-1.7426,2.0907,7.1803,60.5825,0.2751,-0.09,-0.5792,145.1165
16:57:04:542,-1.9101,1.4201,10.1486,60.8262,0.0302,-0.3553,-0.4897,145.3467
16:57:04:567,-1.6869,1.2837,12.5916,60.9144,0.0908,-0.3361,-0.2523,145.5852
16:57:04:582,-1.7474,2.1338,12.7741,61.2614,0.6064,0.0048,0.0747,145.8245
16:57:04:603,-1.9005,3.2836,11.0106,61.344,1.1847,0.3796,0.3314,146.0545
16:57:04:623,-1.5625,4.3765,9.2333,61.5526,1.3401,0.5234,0.4719,146.2673
16:57:04:643,-1.0594,5.1045,9.1232,61.8249,0.9567,0.4808,0.4176,146.4579
16:57:04:664,-1.1671,4.7904,11.1284,62.0108,0.3891,0.288,0.1716,146.629
16:57:04:683,-1.7785,4.5392,12.8459,62.0339,0.2122,0.1591,0.0065,146.7885
16:57:04:704,-1.788,4.2443,12.6808,62.0597,0.3955,0.1921,0.0513,146.9424
16:57:04:729,-1.7641,3.4277,12.7095,62.1562,0.3454,0.2262,0.0715,147.0899
16:57:04:744,-2.1494,2.7087,13.2197,62.2491,0.143,0.2976,0.0225,147.231
16:57:04:764,-2.4443,1.6499,13.0062,62.2432,0.1366,0.3274,-0.0286,147.3671
16:57:04:785,-2.7553,0.335,12.4193,62.3311,0.1068,0.2209,-0.083,147.5007
16:57:04:804,-3.0933,-0.8913,12.1968,62.3369,-0.0582,0.0101,-0.0467,147.6332
16:57:04:829,-2.9521,-1.4495,10.6875,62.6538,-0.0092,-0.1582,0.2441,147.7632
16:57:04:844,-2.123,-1.1862,7.9998,62.8971,0.1068,-0.2093,0.6828,147.8804
16:57:04:866,-1.0331,-0.4726,6.4522,63.0718,-0.1828,-0.2402,0.9959,147.9707
16:57:04:886,-0.396,-0.1322,7.4871,63.1931,-0.6631,-0.3084,1.0758,147.9707
16:57:04:906,0.1956,-0.0485,8.1314,63.3182,-0.5779,-0.5065,1.08,147.9707
16:57:04:930,0.9021,1.0152,7.4106,63.5484,0.0004,-0.7833,1.1109,147.9707
16:57:04:946,1.5805,1.9376,6.143,63.5333,0.4775,-1.0188,0.9937,147.9707
16:57:04:966,1.3789,2.3091,5.3862,63.6657,0.6309,-1.0475,0.7265,147.8704
16:57:04:986,0.9553,2.3952,5.4604,63.4264,0.5627,-0.8228,0.5252,147.7477
16:57:05:006,0.4235,2.2373,6.0832,63.6537,0.4019,-0.3776,0.4282,147.6098
16:57:05:028,-0.0843,1.8012,6.2148,63.7772,0.3252,0.1144,0.3952,147.4603
16:57:05:046,-0.4487,1.7246,6.0138,63.8988,0.3539,0.4084,0.4421,147.3014
16:57:05:067,-0.585,2.3426,5.9874,63.8033,0.3944,0.4105,0.506,147.1311
16:57:05:087,-0.5563,3.0132,5.8439,63.7282,0.3571,0.2838,0.5102,146.9474
16:57:05:107,-0.7292,3.5976,6.0975,64.0781,0.1686,0.1911,0.4176,146.7503
16:57:05:128,-0.7627,4.1198,6.9362,63.964,-0.1605,0.0506,0.2803,146.5434
16:57:05:148,-0.7149,4.34,8.3755,64.3167,-0.5715,-0.0911,0.1205,146.3318
16:57:05:171,-0.4845,3.8495,10.0959,64.0699,-0.9092,-0.3382,-0.0329,146.1214
16:57:05:187,0.591,3.1926,12.1173,63.9706,-1.1477,-0.7066,-0.1096,145.9184
16:57:05:209,2.0668,2.4096,14.808,63.8557,-1.3394,-0.9474,-0.2204,145.7261
16:57:05:230,2.2678,1.8299,17.3779,63.8473,-1.3777,-0.8462,-0.4205,145.5505
16:57:05:249,1.9705,0.984,17.7589,63.8173,-1.1679,-0.2743,-0.5206,145.3994
16:57:05:268,1.5302,-0.7262,18.2094,63.6536,-1.0594,0.3232,-0.5345,145.2755
16:57:05:289,0.6867,-2.7984,19.1845,63.762,-0.9198,0.7672,-0.3971,145.1791
16:57:05:309,0.5264,-3.0927,17.5029,63.7248,-0.1083,1.1795,0.1067,145.1791
16:57:05:332,1.5541,-1.4064,13.5404,63.7204,1.0536,1.0783,0.6604,145.1791
16:57:05:350,2.7757,0.6562,9.0754,63.7781,1.8034,0.3754,0.7446,145.0821
16:57:05:369,3.3266,2.0883,6.9817,63.9285,1.633,-0.4799,0.275,144.9637
16:57:05:389,2.7661,1.3531,7.3555,64.0017,0.7873,-0.8313,-0.3651,144.8401
16:57:05:411,2.0692,0.524,7.5446,64.0572,-0.022,-0.3925,-0.6367,144.7335
16:57:05:433,1.6355,0.2919,7.4321,63.8939,-0.5566,0.3253,-0.5782,144.7335
16:57:05:450,1.1515,0.3948,7.118,63.7824,-0.711,0.714,-0.5057,144.7335
16:57:05:470,0.8327,0.8572,6.1167,63.727,-0.4055,0.6608,-0.445,144.7335
16:57:05:489,0.4953,1.334,5.0339,63.5765,0.0558,0.3008,-0.4312,144.7335
16:57:05:529,0.143,1.5422,4.3155,63.2528,0.3827,-0.1497,-0.4684,144.7335
16:57:05:532,0.1071,1.8754,3.786,63.1395,0.5084,-0.4458,-0.4375,144.7335
16:57:05:551,0.1645,2.5053,3.7621,63.2478,0.3923,-0.533,-0.3949,144.7335
16:57:05:578,0.3488,2.9629,4.1767,63.1694,0.1302,-0.4852,-0.4439,144.7335
16:57:05:597,0.4762,2.9486,4.7874,63.1982,-0.1391,-0.4277,-0.5782,144.7335
16:57:05:613,0.1286,2.5005,6.3398,63.1894,-0.4683,-0.4554,-0.7497,144.7335
16:57:05:634,-0.5324,2.007,8.8259,63.4262,-0.7441,-0.4703,-0.7901,144.8298
16:57:05:653,-0.789,2.2923,10.3998,63.7303,-0.6599,-0.2402,-0.543,144.9513
16:57:05:674,-0.5133,3.2913,10.8024,63.6275,-0.3831,0.108,-0.2182,145.0878
16:57:05:694,-0.396,4.1294,11.0973,63.643,-0.1807,0.223,-0.1117,145.2253
16:57:05:714,-0.4128,4.2993,11.8971,63.7322,-0.104,0.0368,-0.1586,145.3611
16:57:05:734,-0.07,3.8327,13.2532,63.7095,-0.1232,-0.1838,-0.181,145.4957
16:57:05:754,0.5719,3.3607,14.5442,63.8614,-0.0891,-0.2466,-0.1543,145.6307
16:57:05:773,0.7442,3.4277,14.7787,63.9372,-0.0124,-0.0027,-0.1863,145.7657
16:57:05:794,0.5982,3.207,14.3073,63.776,-0.1019,0.386,-0.3342,145.9022
16:57:05:814,0.2028,2.0453,15.1047,63.5448,-0.3703,0.4233,-0.5941,146.0459
16:57:05:833,-0.1567,0.6371,15.8112,63.6267,-0.3501,0.1676,-0.821,146.2058
16:57:05:854,-0.6598,-0.4774,15.0257,63.4603,0.0419,-0.0975,-0.9327,146.3889
16:57:05:874,-1.0738,-1.0164,12.7478,63.495,0.3592,-0.1369,-0.8839,146.5984
16:57:05:893,-0.9206,-0.9248,10.3113,63.5274,0.3017,0.0069,-0.6751,146.8317
16:57:05:915,-0.5492,-0.3236,9.0443,63.423,-0.0486,0.0815,-0.4695,147.0798
16:57:05:934,-0.1759,-0.8674,9.4415,63.2551,-0.3362,-0.1561,-0.3928,147.3354
16:57:05:954,-0.0173,-1.4566,9.7005,63.2366,-0.3703,-0.3723,-0.3097,147.5961
16:57:05:974,-0.2022,-1.6606,9.9422,63.297,-0.2904,-0.2647,-0.1181,147.8592
16:57:05:997,-0.6329,-1.1384,9.061,63.4439,0.0206,0.1218,0.1951,148.1177
16:57:06:015,-0.5898,-0.0604,6.7202,63.5745,0.5446,0.3881,0.5933,148.3597
16:57:06:035,-0.2716,1.1952,4.4806,63.4328,0.8853,0.2507,0.8916,148.5715
16:57:06:054,0.1597,2.1912,3.149,63.1306,0.8758,-0.1134,0.9671,148.744
16:57:06:075,0.253,2.6201,2.8158,63.049,0.5659,-0.3819,0.8096,148.8756
16:57:06:101,-0.0413,2.467,3.6329,63.0067,0.0908,-0.4245,0.5529,148.9725
16:57:06:115,-0.4798,2.1003,5.3886,62.8358,-0.2851,-0.3457,0.3856,148.9725
16:57:06:136,-0.7531,1.5398,7.0343,62.7846,-0.3266,-0.3308,0.3314,148.9725
16:57:06:156,-0.8824,1.4776,7.9161,62.3891,-0.0784,-0.3712,0.3909,148.9725
16:57:06:176,-0.7196,2.0381,8.1625,62.1964,0.1739,-0.3371,0.5177,148.9725
16:57:06:200,-0.2166,2.5484,8.68,62.1382,0.2048,-0.2679,0.5443,148.9725
16:57:06:216,0.1884,2.3665,10.3376,62.309,-0.0209,-0.2626,0.4069,148.9725
16:57:06:236,0.5791,2.412,11.866,62.2335,-0.3085,-0.1624,0.2079,148.9725
16:57:06:257,0.5408,2.0836,12.8842,62.2317,-0.5726,-0.024,-0.0446,148.9725
16:57:06:277,0.5767,1.4201,14.0076,62.2505,-0.7355,-0.0698,-0.2395,148.9725
16:57:06:300,0.9236,0.8979,14.9659,62.2002,-0.6727,-0.1678,-0.2427,148.9725
16:57:06:317,1.5326,1.3101,14.3575,62.3233,-0.3213,-0.0527,-0.0904,148.9725
16:57:06:337,1.8843,1.5254,12.4241,62.1993,-0.0603,0.1644,-0.0318,148.9725
16:57:06:358,1.8006,0.2704,12.3619,62.1637,-0.3,0.1559,-0.1437,148.9725
16:57:06:378,1.8796,-1.2915,13.215,62.1747,-0.6141,0.0911,-0.0776,148.9725
16:57:06:400,2.33,-2.1374,13.5188,62.1404,-0.4736,0.0431,0.2409,148.9725
16:57:06:418,3.4223,-1.4901,12.8985,62.0403,0.0451,-0.188,0.5752,148.9725
16:57:06:438,4.7593,-0.2901,11.0806,62.0616,0.5201,-0.4927,0.669,148.9725
16:57:06:458,5.1039,0.874,9.7962,61.9583,0.4658,-0.6523,0.4005,148.9725
16:57:06:478,4.2849,0.4594,10.1964,61.9888,-0.022,-0.5671,-0.1064,148.9725
16:57:06:503,3.0604,-0.2518,10.2706,61.9447,-0.2798,-0.1774,-0.4375,148.9725
16:57:06:519,2.2104,-0.4481,9.2572,61.8382,-0.1253,0.2571,-0.4237,148.9725
16:57:06:539,1.5709,-0.0269,7.8054,61.6659,0.1206,0.5437,-0.3225,148.9725
16:57:06:559,1.0702,0.39,6.6293,61.6413,0.3401,0.6385,-0.2842,148.9725
16:57:06:580,0.883,0.7878,5.729,61.514,0.6373,0.5064,-0.2459,148.9725
16:57:06:600,1.0869,1.3531,4.4925,61.3251,0.9983,0.2955,-0.182,148.9725
16:57:06:620,1.2784,2.0812,3.6114,61.2038,1.1314,0.108,-0.1873,148.9725
16:57:06:641,1.5613,2.6608,3.6377,61.0901,0.9652,-0.0698,-0.3225,148.9725
16:57:06:661,1.7049,2.8528,4.2341,60.9761,0.6968,-0.2178,-0.5803,148.9725
16:57:06:680,1.2832,2.5579,5.0267,60.9504,0.4402,-0.2775,-0.905,148.9725
16:57:06:701,0.4038,2.0333,5.9563,60.6799,0.1686,-0.2466,-1.1319,148.9725
16:57:06:721,-0.3553,1.5996,7.6762,60.4335,-0.1189,-0.1656,-1.1287,148.9725
16:57:06:741,-0.8752,1.5326,9.5928,60.3814,-0.2425,0.0591,-0.9221,149.0719
16:57:06:761,-0.9709,2.3952,9.5809,60.3665,-0.0763,0.4457,-0.5664,149.1998
16:57:06:781,-0.9422,3.6024,8.4479,60.3417,0.0398,0.7523,-0.2799,149.3402
16:57:06:804,-0.7986,4.1988,8.8211,60.0196,-0.2904,0.5735,-0.2694,149.4817
16:57:06:821,-1.0738,3.2094,12.3619,59.9478,-0.9326,-0.0336,-0.4855,149.6263
16:57:06:842,-1.7593,1.4776,15.9529,59.7102,-1.1711,-0.2349,-0.5696,149.782
16:57:06:862,-2.8301,1.0175,16.3382,59.7844,-0.775,0.2859,-0.2788,149.952
16:57:06:882,-3.1316,1.8036,14.7165,59.6482,-0.4715,0.829,0.2302,150.1247
16:57:06:902,-2.394,2.2397,14.9276,59.4109,-0.6067,0.7545,0.6125,150.2812
16:57:06:923,-0.7364,2.8265,15.2148,59.3509,-0.447,0.2284,0.8596,150.4083
16:57:06:942,0.9649,3.3846,14.01,59.3683,0.0792,-0.3744,0.8405,150.4083
16:57:06:967,1.6546,2.9174,13.1856,59.4963,0.257,-0.7407,0.4591,150.4083
16:57:06:982,1.1803,1.9304,13.0852,59.27,0.1089,-0.6118,0.1003,150.4083
16:57:07:003,0.6126,1.0128,12.8339,59.3321,0.0004,-0.1241,0.0832,150.4083
16:57:07:023,0.2578,0.6658,11.6076,59.1658,0.0632,0.337,0.26,150.4083
16:57:07:043,0.1406,0.7352,10.0026,59.3185,0.2272,0.4893,0.4378,150.4083
16:57:07:068,0.052,0.5719,8.534,59.2498,0.4434,0.3871,0.5433,150.4083
16:57:07:083,-0.0197,0.3135,6.9769,58.9896,0.6841,0.1815,0.62,150.4083
16:57:07:103,-0.2812,0.189,5.741,58.7849,0.8331,-0.0506,0.6903,150.4083
16:57:07:124,-0.5276,0.2704,5.0698,58.5644,0.8619,-0.2359,0.7872,150.4083
16:57:07:144,-0.5037,0.6586,4.4925,58.2966,0.8928,-0.269,0.9374,150.3027
16:57:07:168,-0.3577,1.0726,3.798,58.1439,0.9269,-0.2573,1.0236,150.1611
16:57:07:184,-0.2668,1.5422,3.1705,57.9239,0.815,-0.2359,0.9863,149.9813
16:57:07:204,-0.2859,1.7438,3.1944,57.5456,0.4807,-0.2296,0.8362,149.7653
16:57:07:225,-0.1759,1.6738,4.2532,57.4738,0.0558,-0.319,0.6413,149.5199
16:57:07:245,-0.0796,1.5159,5.9827,57.275,-0.2393,-0.4043,0.4431,149.254
16:57:07:269,-0.058,1.142,7.3603,57.2131,-0.2435,-0.4383,0.2622,148.9766
16:57:07:285,0.5097,1.6235,8.0357,57.2512,-0.1072,-0.482,0.1642,148.6968
16:57:07:305,0.7896,2.4191,9.3362,57.2087,-0.2776,-0.4863,-0.0009,148.4178
16:57:07:325,0.6437,1.8203,12.1537,57.0923,-0.7803,-0.3201,-0.2778,148.1443
16:57:07:346,0.3799,1.0463,14.4197,57.4169,-1.0977,0.0506,-0.4184,147.8873
16:57:07:367,1.0487,1.0247,14.9157,57.4053,-1.0019,0.2848,-0.2831,147.6527
16:57:07:385,2.1769,2.0501,14.9755,57.2969,-0.7132,0.0666,-0.1107,147.4373
16:57:07:406,3.0054,3.1232,14.1918,57.3136,-0.5045,-0.0442,-0.149,147.2335
16:57:07:427,2.8283,3.262,13.4997,57.1205,-0.6077,0.1517,-0.4333,147.0389
16:57:07:447,1.6953,1.5135,13.9478,56.7924,-0.8868,0.3498,-0.7028,146.8636
16:57:07:469,1.1468,-0.1657,15.1238,56.8676,-0.8453,0.3583,-0.4897,146.7171
16:57:07:487,2.0477,-0.8243,14.8941,56.6489,-0.1722,0.1197,0.1109,146.5911
16:57:07:546,3.7436,0.2034,12.3978,56.1923,0.7266,-0.2317,0.6391,146.4621
16:57:07:548,4.3519,1.6307,10.1486,56.0666,0.9908,-0.5065,0.6274,146.3096
16:57:07:549,3.5515,1.3938,9.6048,55.8758,0.5063,-0.5383,0.2132,146.1358
16:57:07:568,2.409,0.2824,9.7843,55.809,-0.1146,-0.4128,-0.0521,145.9566
16:57:07:591,2.2869,-0.1633,10.474,55.7491,-0.4651,-0.4032,-0.0084,145.784
16:57:07:608,2.9145,0.2082,10.5703,55.7385,-0.2798,-0.4916,0.0598,145.6177
16:57:07:628,3.14,0.5719,9.655,55.5278,0.3145,-0.3702,-0.084,145.4545
16:57:07:648,2.2104,0.5312,7.5422,55.2245,0.9056,0.0847,-0.38,145.2964
16:57:07:668,1.1803,0.4403,5.3862,55.2039,1.206,0.566,-0.5526,145.1492
16:57:07:689,0.2889,0.6945,3.5922,55.0863,1.2283,0.9057,-0.5569,145.0179
16:57:07:709,-0.1184,1.0822,2.5214,55.0845,1.0526,1.0165,-0.4897,144.903
16:57:07:729,-0.3745,1.48,2.461,55.1884,0.798,0.8887,-0.4631,144.8027
16:57:07:749,-0.7077,1.7079,2.7224,55.0973,0.7011,0.6055,-0.4919,144.8027
16:57:07:769,-1.0355,1.8682,2.5167,55.1971,0.7628,0.1836,-0.5228,144.8027
16:57:07:790,-1.1408,2.1601,2.5645,55.2985,0.6469,-0.2349,-0.4727,144.8027
16:57:07:809,-0.9087,2.723,4.1958,55.4004,0.1558,-0.4746,-0.3662,144.8027
16:57:07:829,-0.6353,3.344,6.6891,55.3906,-0.3394,-0.4554,-0.2417,144.8027
16:57:07:850,0.064,3.9045,8.8451,55.3297,-0.4907,-0.3254,-0.0904,144.8027
16:57:07:870,0.9093,4.3232,11.4993,55.1704,-0.6077,-0.4554,-0.1,144.8027
16:57:07:890,0.9577,3.7627,15.4068,54.8676,-0.971,-0.5841,-0.298,144.8027
16:57:07:911,0.7585,2.8409,19.4429,54.6076,-1.1487,-0.1784,-0.2799,144.8027
16:57:07:931,0.469,3.3009,19.1055,54.6022,-0.5003,0.7566,0.0566,144.8027
16:57:07:950,-0.1759,4.0816,15.804,54.2296,0.2676,1.4755,0.2654,144.8027
16:57:07:971,-1.3735,4.2921,13.7683,54.2429,0.388,1.549,0.2313,144.8027
16:57:07:992,-2.1326,4.1557,12.6156,54.3444,0.2921,1.3466,0.2846,144.8027
16:57:08:012,-2.1781,4.005,11.9617,54.3212,0.2762,0.8461,0.3909,144.8027
16:57:08:031,-1.9244,3.061,11.4108,54.3631,0.2655,0.0293,0.3304,144.8027
16:57:08:052,-1.6582,1.8826,11.461,54.5383,0.0792,-0.7535,0.2366,144.8027
16:57:08:073,-1.2227,0.6078,11.8612,54.5978,-0.2318,-1.0752,0.2963,144.7093
16:57:08:092,-0.6473,-0.0197,11.528,54.321,-0.3671,-0.8718,0.5273,144.606
16:57:08:112,-0.4869,-0.2638,10.3615,54.5555,-0.3469,-0.4,0.7723,144.4857
16:57:08:139,-0.3434,-0.1561,8.7852,54.3192,-0.2393,0.0197,1.014,144.3404
16:57:08:154,0.0784,0.1675,7.2162,54.2837,-0.0507,0.1612,1.2441,144.1629
16:57:08:175,0.9888,0.5982,6.198,54.1391,0.1846,-0.0059,1.3964,143.9449
16:57:08:194,1.8843,1.0391,5.729,53.9169,0.4114,-0.2722,1.3868,143.6821
16:57:08:215,2.1912,1.1952,5.4748,53.5142,0.6288,-0.4149,1.2014,143.3759
16:57:08:238,1.9848,1.6211,4.8927,53.4549,0.8086,-0.3084,0.9575,143.031
16:57:08:254,1.6594,2.1338,4.2054,53.1416,0.8268,-0.0176,0.7265,142.6566
16:57:08:273,1.5063,2.5125,3.8052,52.8475,0.5936,0.2838,0.4932,142.2618
16:57:08:294,1.2281,2.8433,4.73,52.7576,0.1462,0.4702,0.2164,141.8553
16:57:08:313,0.6485,2.8385,6.4068,52.4199,-0.3138,0.6459,-0.1075,141.4483
16:57:08:334,-0.0772,2.455,8.0501,52.4965,-0.5608,0.8961,-0.3523,141.056
16:57:08:354,-0.9087,2.5986,9.0969,52.4302,-0.5555,1.1752,-0.4354,140.6875
16:57:08:375,-1.5434,3.399,9.4923,52.6614,-0.528,1.2977,-0.4493,140.3446
16:57:08:394,-1.946,3.1831,10.0528,52.6039,-0.7078,0.9313,-0.5739,140.026
16:57:08:414,-1.3902,1.3795,11.2074,52.6362,-0.9529,-0.0517,-0.7124,139.7347
16:57:08:439,-0.2955,-0.4726,13.5523,52.8147,-1.0466,-1.2785,-0.6527,139.4728
16:57:08:454,0.344,-0.3906,14.9037,52.7663,-0.8144,-1.629,-0.2959,139.2404
16:57:08:475,1.4076,1.2359,12.7884,52.9142,-0.3213,-0.9058,0.2686,139.0253
16:57:08:494,2.0836,2.3067,11.6172,52.6359,-0.4864,-0.1198,0.4506,138.8068
16:57:08:515,1.9705,1.7151,13.8257,52.554,-1.2489,0.2944,0.2174,138.5786
16:57:08:538,1.6259,0.6586,14.9851,52.2086,-1.2893,0.4861,0.0555,138.3503
16:57:08:558,1.6331,0.1603,14.0124,51.9917,-0.5864,0.369,0.0395,138.1279
16:57:08:575,2.4879,-0.1298,12.4241,51.9398,0.0238,-0.0272,-0.002,137.9107
16:57:08:596,2.68,-0.1777,11.2552,51.7093,0.1558,-0.3371,-0.2321,137.6996
16:57:08:615,2.2008,-0.125,9.9637,51.5954,-0.0166,-0.2125,-0.5142,137.5022
16:57:08:638,1.3908,0.0233,9.4971,51.57,-0.333,0.2103,-0.6698,137.3286
16:57:08:656,0.6197,-0.2973,9.5115,51.4859,-0.5024,0.5405,-0.7102,137.1834
16:57:08:676,0.4905,-0.3476,8.4335,51.4722,-0.2435,0.582,-0.5899,137.0656
16:57:08:697,0.5408,-0.0652,7.7886,51.4807,0.0782,0.2699,-0.461,136.9709
16:57:08:716,0.2578,-0.0772,8.0764,51.4144,0.2655,-0.0836,-0.4588,136.9709
16:57:08:740,-0.1035,0.0233,7.1396,51.2321,0.681,-0.0975,-0.3704,136.9709
16:57:08:758,0.0066,0.6945,5.0219,51.1519,1.1793,0.0943,-0.1501,136.9709
16:57:08:778,0.2315,1.7151,3.2088,51.0712,1.306,0.2081,-0.0254,136.9709
16:57:08:798,0.3368,2.6943,2.8923,50.8026,0.9844,0.1527,-0.084,136.9709
16:57:08:818,0.411,3.4636,3.4289,50.872,0.5521,-0.041,-0.2619,136.9709
16:57:08:839,0.6293,3.6766,4.1312,50.4366,0.1856,-0.1869,-0.4503,136.9709
16:57:08:858,1.0774,4.0337,6.6867,50.2524,-0.2712,-0.3553,-0.6708,136.9709
16:57:08:878,0.5049,3.7292,10.8335,50.07,-0.5427,-0.6385,-0.9754,136.9709
16:57:08:899,-0.1543,3.1424,13.6241,49.8664,-0.2542,-0.663,-1.0947,136.9709
16:57:08:918,-0.5085,3.332,14.6566,49.7301,0.2367,-0.1933,-0.9125,136.9709
16:57:08:939,-1.0068,2.9605,14.8606,49.4987,0.5457,0.3498,-0.722,136.9709
16:57:08:960,-1.4907,2.7494,14.0219,49.2736,0.7724,0.5937,-0.4482,137.0772
16:57:08:979,-1.3113,3.4516,13.1761,49.1013,0.8054,0.581,-0.0744,137.1936
16:57:08:999,-0.9398,4.0935,12.4313,49.38,0.6351,0.4457,0.1173,137.3071
16:57:09:020,-1.1216,3.6718,12.1992,49.5009,0.4626,0.0091,0.0449,137.4112
16:57:09:040,-1.4836,2.994,11.8564,49.5778,0.4818,-0.4841,0.0012,137.5088
16:57:09:060,-1.4572,2.8792,10.5344,49.5143,0.5286,-0.4852,0.1514,137.6
16:57:09:080,-1.206,2.5866,9.9637,49.3524,0.2101,-0.2796,0.2622,137.6
16:57:09:100,-1.1527,1.1521,11.5854,49.2732,-0.3277,-0.4522,0.1546,137.6
16:57:09:121,-1.2826,0.0281,13.3801,49.1759,-0.4619,-0.762,0.1226,137.6
16:57:09:142,-1.0762,-0.4361,13.1354,48.9821,-0.0997,-0.6992,0.3419,137.6
16:57:09:161,-0.384,-0.0676,11.3462,48.654,0.3156,-0.2945,0.6626,137.6
16:57:09:181,0.3727,0.5503,8.9916,48.3841,0.5467,0.1314,0.8533,137.6
16:57:09:205,1.2233,1.3723,6.807,48.4077,0.567,0.3892,0.8245,137.6
16:57:09:221,1.5589,1.9113,5.3504,48.3216,0.3656,0.3956,0.5752,137.6
16:57:09:241,1.398,1.9998,4.8305,48.3502,0.0739,0.2646,0.1897,137.6
16:57:09:261,0.8518,1.0822,6.1047,48.3857,-0.1221,0.0069,-0.149,137.6
16:57:09:282,0.4259,0.984,6.4666,48.5653,0.1047,-0.1241,-0.2236,137.6
16:57:09:305,0.2506,1.7557,5.5872,48.6762,0.5329,-0.0804,-0.0478,137.6
16:57:09:322,0.064,2.3617,4.8784,48.6809,0.6213,0.0016,0.0566,137.6
16:57:09:342,-0.003,2.5771,4.5882,48.8223,0.3656,0.1144,0.1013,137.6
16:57:09:362,-0.2333,2.5651,5.2714,48.6794,-0.0614,0.1772,0.1035,137.5096
16:57:09:383,-0.1854,2.3641,6.2752,48.6519,-0.3735,0.1389,0.129,137.4147
16:57:09:406,-0.0126,2.5388,7.2784,48.4614,-0.4704,0.0644,0.1961,137.3154
16:57:09:423,0.0042,3.2596,8.3324,48.3942,-0.5237,0.0091,0.1993,137.2105
16:57:09:443,0.064,3.4277,10.4022,48.1616,-0.7505,-0.0921,0.0747,137.0994
16:57:09:464,0.5145,2.735,12.4528,47.8531,-1.0349,-0.2253,-0.1117,136.9868
16:57:09:483,0.8853,1.9831,14.5968,47.7252,-1.1988,-0.4213,-0.2342,136.8802
16:57:09:508,1.0558,1.2694,16.5398,47.5869,-1.0871,-0.5351,-0.23,136.7846
16:57:09:524,1.2879,1.3292,16.6858,47.1905,-0.5651,-0.2796,-0.0265,136.7846
16:57:09:572,1.2305,1.7773,14.348,46.9256,0.1153,0.2294,0.1493,136.7846
16:57:09:573,1.1994,1.9017,11.787,46.7308,0.4967,0.5075,0.1695,136.6942
16:57:09:584,1.1827,1.8993,10.4859,46.6658,0.4487,0.4723,0.0832,136.5987
16:57:09:609,1.7886,1.4106,9.6455,46.3803,0.225,0.3306,-0.0467,136.5011
16:57:09:625,2.3779,0.3374,9.8632,46.2641,-0.1242,-0.0463,-0.2927,136.4069
16:57:09:645,2.1218,-0.4989,11.2552,46.0158,-0.53,-0.4554,-0.5569,136.4069
16:57:09:664,1.5111,-1.1312,12.2471,45.9455,-0.7739,-0.4575,-0.6442,136.4069
16:57:09:685,0.682,-1.2485,11.6842,46.0393,-0.7877,-0.0687,-0.4865,136.4069
16:57:09:708,0.1621,-0.5348,10.1773,45.9047,-0.6887,0.3104,-0.1735,136.4069
16:57:09:725,0.1525,0.1938,8.7422,45.9456,-0.5248,0.4744,0.1099,136.4069
16:57:09:746,0.1023,0.673,7.7791,45.6368,-0.2478,0.3871,0.211,136.4069
16:57:09:766,0.1789,1.1013,6.2584,45.8163,0.175,0.2103,0.2281,136.4069
16:57:09:786,0.2578,1.5757,4.7109,45.7377,0.4573,0.0549,0.2217,136.4069
16:57:09:808,0.2961,1.8945,3.9057,45.7692,0.4242,-0.0101,0.1631,136.4069
16:57:09:826,0.3703,2.1075,4.2413,45.4816,0.2442,-0.0517,0.0811,136.4069
16:57:09:846,0.4307,2.522,4.8162,45.3516,0.2027,-0.0996,-0.0031,136.4069
16:57:09:866,0.3583,2.817,5.5466,45.617,0.2826,-0.2264,-0.0925,136.4069
16:57:09:886,0.3583,3.0754,6.9984,45.7059,0.3795,-0.5224,-0.1682,136.4069
16:57:09:908,0.2961,3.1759,8.1362,45.6298,0.4796,-0.7471,-0.2087,136.4069
16:57:09:926,0.1693,3.2333,9.5641,45.4551,0.437,-0.7588,-0.2012,136.4069
16:57:09:948,-0.2261,2.9533,11.2624,45.442,0.1984,-0.3915,-0.1575,136.4069
16:57:09:967,-0.0963,2.9653,12.2327,45.5341,0.0387,0.2284,0.0694,136.4069
16:57:09:987,0.1645,3.4086,12.7621,45.4523,0.075,0.6939,0.3272,136.4069
16:57:10:008,0.2913,3.9452,13.2891,45.2937,0.2176,0.7832,0.3835,136.4069
16:57:10:028,0.277,4.5009,13.2963,45.1232,0.453,0.6001,0.3272,136.4069
16:57:10:048,0.2052,5.3031,13.0397,44.779,0.6319,0.3178,0.2611,136.3154
16:57:10:068,0.6269,5.6219,13.3442,44.9446,0.5819,0.0037,0.2036,136.2152
16:57:10:089,1.2209,4.8718,14.4676,44.8343,0.355,-0.2583,0.0566,136.1074
16:57:10:111,0.8614,3.1926,15.7155,44.8033,0.2857,-0.3755,-0.1586,135.9977
16:57:10:128,0.5288,1.9543,14.6638,44.6759,0.7032,-0.1539,-0.165,135.8953
16:57:10:151,0.1908,1.8371,11.1906,44.8484,1.2038,0.2028,-0.0329,135.7995
16:57:10:170,-0.3075,2.2349,8.2463,44.8001,1.0696,0.3541,0.0129,135.7049
16:57:10:189,-0.597,2.1434,7.3675,44.6482,0.2953,0.2688,-0.0169,135.6098
16:57:10:210,-0.6138,1.7294,7.2162,44.8896,-0.5545,0.2124,-0.0222,135.5166
16:57:10:229,-0.4893,1.6092,6.8907,44.7474,-1.1871,0.2422,0.0119,135.4265
16:57:10:250,-0.4606,1.4608,6.6365,44.8495,-1.7186,0.2838,0.0012,135.4265
16:57:10:270,-0.8393,0.5192,8.5101,44.7575,-2.1925,0.1506,-0.0489,135.4265
16:57:10:291,-1.2299,-0.6832,10.5894,44.5689,-2.1382,-0.2818,0.015,135.4265
16:57:10:310,-0.7484,-0.9153,10.5847,44.3979,-1.2616,-0.7652,0.441,135.4265
16:57:10:330,0.0042,0.2584,8.6608,44.5639,-0.1434,-1.0859,0.9289,135.3262
16:57:10:351,0.8566,1.2837,6.6724,44.4208,0.5063,-1.1475,1.1162,135.1965
16:57:10:376,1.3669,1.7486,6.4259,44.2844,0.633,-0.9421,0.9778,135.0295
16:57:10:391,1.13,1.3388,6.4403,44.1458,0.7245,-0.533,0.6722,134.8304
16:57:10:411,0.3248,1.3842,5.6638,43.9525,0.9588,-0.0698,0.4517,134.6102
16:57:10:432,-0.1687,1.5541,4.6146,43.7433,1.0888,0.1261,0.3355,134.3763
16:57:10:452,-0.262,1.6983,4.2461,43.5259,0.9407,0.1048,0.2643,134.132
16:57:10:478,0.2506,1.6786,5.1248,42.9898,0.5414,-0.0101,0.1759,133.8808
16:57:10:493,1.2832,2.0213,6.8285,42.8388,0.1483,-0.1241,0.0246,133.6273
16:57:10:514,1.398,1.8491,8.8714,42.4807,-0.1349,-0.2349,-0.3395,133.3785
16:57:10:533,1.2616,1.2383,9.9517,42.4349,-0.3309,-0.3158,-0.6687,133.1482
16:57:10:554,1.5757,0.4905,12.2016,42.508,-0.7909,-0.4106,-0.7443,132.9495
16:57:10:585,2.0955,-0.3332,15.3129,42.4632,-1.3149,-0.1667,-0.6517,132.7862
16:57:10:593,2.6465,0.3852,16.4465,42.5538,-1.2574,0.5511,-0.3662,132.6576
16:57:10:614,2.4162,1.6935,14.3097,42.4468,-0.7622,1.22,-0.2161,132.5522
16:57:10:633,1.3478,1.602,12.5246,42.4056,-0.628,1.2881,-0.3822,132.4606
16:57:10:653,0.524,0.146,13.1976,42.6043,-0.907,0.943,-0.4471,132.4606
16:57:10:680,0.7274,-0.6114,14.1009,42.9065,-0.9252,0.6715,-0.1149,132.4606
16:57:10:694,1.6451,-0.9996,14.415,43.1179,-0.5056,0.2486,0.2888,132.4606
16:57:10:714,3.4128,-0.6281,13.8018,43.1705,0.0951,-0.432,0.5102,132.4606
16:57:10:734,4.069,0.2082,12.4337,43.4917,0.551,-0.9058,0.3814,132.4606
16:57:10:754,3.7651,0.5599,10.3639,43.5614,0.7479,-0.9708,0.0417,132.3679
16:57:10:778,2.9695,0.7567,8.4526,43.6258,0.5648,-0.5788,-0.2001,132.2752
16:57:10:793,2.2654,0.7687,7.5446,43.8763,0.0908,0.0293,-0.2905,132.2752
16:57:10:813,1.882,0.7902,7.3819,43.6782,-0.2222,0.4009,-0.3172,132.2752
16:57:10:835,1.614,0.8596,6.7705,43.4683,-0.0699,0.4116,-0.3491,132.2752
16:57:10:854,1.2712,1.1474,5.3886,43.1491,0.3518,0.2326,-0.4162,132.2752
16:57:10:878,0.7705,1.3531,4.0804,42.8962,0.6394,0.0399,-0.5142,132.2752
16:57:10:895,0.387,1.5422,3.4289,42.5918,0.633,-0.0602,-0.5867,132.2752
16:57:10:915,0.2171,1.8132,3.0915,42.6803,0.4359,-0.0378,-0.6186,132.2752
16:57:10:935,0.2578,2.2301,3.3069,43.0197,0.1345,-0.0368,-0.658,132.2752
16:57:10:955,0.5121,2.5531,4.7731,42.8961,-0.2126,-0.2264,-0.7379,132.2752
16:57:10:978,0.8877,2.5579,6.7705,43.0692,-0.4363,-0.4437,-0.8509,132.2752
16:57:10:995,0.536,2.3617,9.3529,43.3169,-0.5395,-0.3755,-0.9722,132.2752
16:57:11:016,-0.679,2.1625,11.4395,43.3053,-0.5353,0.1037,-1.0052,132.3907
16:57:11:036,-2.0201,2.5436,11.8349,43.4496,-0.3671,0.7013,-0.7795,132.5361
16:57:11:056,-2.3533,3.274,11.866,43.6555,-0.2212,0.9462,-0.4237,132.7026
16:57:11:078,-2.1135,3.6742,12.1585,43.5726,-0.137,0.7811,-0.1873,132.8754
16:57:11:096,-1.6343,3.5545,13.0349,43.4842,-0.1051,0.4318,-0.0883,133.0464
16:57:11:117,-0.9852,3.5928,14.1368,43.7123,-0.1349,0.222,-0.0009,133.2124
16:57:11:136,-0.6353,3.6742,15.1358,43.7207,-0.2095,0.2859,0.0662,133.3713
16:57:11:157,-0.7053,3.207,15.5312,43.5614,-0.2712,0.4947,0.0417,133.5201
16:57:11:178,-1.4333,1.9902,16.2257,43.6696,-0.2659,0.5724,-0.0116,133.6597
16:57:11:197,-2.1111,0.7352,15.8734,43.9419,0.1206,0.5,0.0843,133.7925
16:57:11:218,-2.2307,0.2345,13.4758,43.9206,0.8172,0.3338,0.3441,133.9161
16:57:11:238,-2.0465,-0.2662,11.473,44.0079,1.1112,-0.0325,0.4985,134.022
16:57:11:258,-1.3663,-0.8387,10.6804,43.8665,0.8992,-0.3766,0.5976,134.022
16:57:11:278,-0.3362,-0.6162,9.7268,43.6117,0.6213,-0.4405,0.7425,134.022
16:57:11:298,0.5599,-0.2973,8.4,43.5455,0.3326,-0.2828,0.7766,134.022
16:57:11:319,0.7059,0.0042,7.6355,43.4944,-0.0688,-0.0644,0.6572,134.022
16:57:11:338,0.524,-0.3715,7.9448,43.4937,-0.3479,-0.0708,0.5337,134.022
16:57:11:359,0.7442,-0.518,8.0501,43.1572,-0.1679,-0.3702,0.5763,134.022
16:57:11:379,1.2903,0.0377,7.2497,43.2804,0.3784,-0.6896,0.7638,134.022
16:57:11:400,1.7958,0.8644,5.7697,43.0548,0.8353,-0.7237,0.8905,134.022
16:57:11:420,1.8461,1.8419,4.4901,43.0333,0.9248,-0.4522,0.9023,133.9046
16:57:11:444,1.7432,2.6512,3.9655,42.9602,0.7479,-0.1379,0.8682,133.7561
16:57:11:460,1.669,3.2572,4.0397,42.9903,0.5446,0.0229,0.7947,133.5784
16:57:11:481,1.5829,3.7484,4.3298,42.7751,0.4668,-0.0208,0.6359,133.3747
16:57:11:500,1.0654,3.9117,4.6989,42.8276,0.4455,-0.1848,0.3537,133.1506
16:57:11:520,0.3488,3.4014,5.9396,42.8445,0.273,-0.3776,0.0651,132.9172
16:57:11:545,-0.3242,2.3498,8.4096,42.7587,-0.0603,-0.5012,-0.1096,132.6851
16:57:11:593,-0.3266,1.9017,10.9531,42.9318,-0.2329,-0.3457,-0.0308,132.4625
16:57:11:595,-0.1208,2.5316,11.9856,42.9748,-0.234,0.0655,0.0885,132.2478
16:57:11:600,0.119,2.9246,11.6889,43.0945,-0.1988,0.304,0.014,132.0365
16:57:11:621,0.2746,2.817,11.6674,42.8806,-0.2925,0.0304,-0.2118,131.8303
16:57:11:644,0.7513,2.1027,12.92,43.0001,-0.496,-0.4884,-0.4141,131.6375
16:57:11:661,1.7001,1.8514,13.6528,42.8077,-0.5939,-0.6534,-0.4067,131.4658
16:57:11:681,2.8666,2.4957,12.5557,42.6457,-0.5545,-0.3766,-0.2884,131.3164
16:57:11:702,4.1192,2.7182,12.0239,42.5715,-0.7845,-0.1454,-0.4045,131.1839
16:57:11:722,3.7771,1.3125,12.9272,42.286,-1.1935,-0.1316,-0.8274,131.0724
16:57:11:744,2.5627,-0.6329,13.9238,42.1894,-1.17,-0.2072,-1.0318,131.0724
16:57:11:762,2.1529,-1.9143,14.6566,41.9416,-0.6077,-0.4288,-0.7667,131.0724
16:57:11:782,2.6512,-1.6175,12.7238,41.8238,0.3039,-0.6214,-0.214,131.0724
16:57:11:803,3.8608,-0.2231,10.1821,41.7311,0.7937,-0.7972,0.1951,131.0724
16:57:11:823,4.3902,0.6467,9.5976,42.0187,0.4658,-0.8441,0.1663,131.0724
16:57:11:847,4.0977,0.7759,9.7316,42.0375,-0.0752,-0.4607,-0.0627,131.0724
16:57:11:863,3.3147,0.9147,9.2788,41.7768,-0.3905,0.2955,-0.1927,131.0724
16:57:11:884,2.4018,1.1713,8.342,41.7649,-0.3565,0.8237,-0.247,131.0724
16:57:11:903,1.9322,1.0774,7.4034,41.5409,-0.0699,0.7832,-0.3033,131.0724
16:57:11:923,1.7025,1.1157,6.2291,41.6017,0.3624,0.4553,-0.3694,131.0724
16:57:11:948,1.3238,1.2191,4.785,41.6897,0.7426,0.1708,-0.462,131.0724
16:57:11:964,0.6508,1.3579,3.7932,41.7376,0.8747,0.0666,-0.5462,131.0724
16:57:11:984,0.2818,1.5039,3.2064,41.5171,0.8268,0.1027,-0.5505,131.0724
16:57:12:004,0.1765,2.007,2.4323,41.6427,0.6841,0.1772,-0.5015,131.0724
16:57:12:024,-0.015,2.5962,2.0686,41.5952,0.3379,0.173,-0.5174,131.0724
16:57:12:046,-0.0963,2.8792,3.5414,41.6163,-0.2659,-0.0357,-0.6005,131.1772
16:57:12:065,-0.1591,2.8935,6.2339,41.6409,-0.8122,-0.2519,-0.69,131.2995
16:57:12:084,-0.329,2.9031,9.0634,41.7108,-0.9209,-0.2626,-0.6623,131.4439
16:57:12:106,0.0042,3.2261,10.8479,41.742,-0.6098,-0.155,-0.5164,131.6097
16:57:12:125,-0.2524,4.4076,11.2361,41.704,-0.3064,-0.0165,-0.396,131.79
16:57:12:147,-0.463,4.3232,12.4193,41.5913,-0.4875,0.1346,-0.3374,131.9781
16:57:12:165,0.344,3.8566,15.7466,41.3542,-0.8825,0.3008,-0.1842,132.1715
16:57:12:185,1.0367,3.1735,19.1055,41.4499,-0.743,0.4808,0.0065,132.3668
16:57:12:206,0.0138,3.2477,17.8618,41.5078,0.0782,0.9281,0.1567,132.5575
16:57:12:226,-1.1838,3.5474,14.5753,41.355,0.6543,1.2519,0.392,132.7363
16:57:12:248,-1.1916,3.2189,13.5452,41.3351,0.4988,1.1401,0.6807,132.8928
16:57:12:266,-0.3027,2.8983,12.8865,41.4221,0.371,0.9132,0.8778,133.0183
16:57:12:286,0.2243,3.0467,11.2361,41.4173,0.5638,0.5437,0.7755,133.0183
16:57:12:307,-0.1759,1.8849,10.3902,41.4391,0.5606,-0.0943,0.3272,133.0183
16:57:12:328,-1.136,0.2034,10.6708,41.4267,0.3156,-0.5426,0.0129,133.0183
16:57:12:346,-1.2347,-0.4146,10.5171,41.3401,0.1409,-0.6214,0.1365,133.0183
16:57:12:366,0.0209,-0.2375,9.8225,41.424,0.0409,-0.6971,0.4112,133.0183
16:57:12:387,1.3693,0.1053,9.0538,41.7335,-0.1296,-0.8451,0.4538,133.0183
16:57:12:407,1.7216,-0.1202,8.5866,41.7988,-0.4065,-0.7706,0.2206,133.0183
16:57:12:428,1.0917,-0.5994,8.2511,41.7862,-0.6056,-0.351,0.0225,133.0183
16:57:12:449,0.2506,-0.7669,7.7336,41.8725,-0.5013,0.141,0.0928,133.0183
16:57:12:468,0.2028,-0.3954,6.4379,42.0234,-0.055,0.3168,0.4059,133.0183
16:57:12:489,0.871,0.4427,5.1105,42.0974,0.3976,0.1762,0.7201,133.0183
16:57:12:509,1.3645,1.255,4.6367,42.1494,0.5595,-0.0847,0.7691,133.0183
16:57:12:528,1.3549,1.7438,4.6002,42.2124,0.5126,-0.2083,0.6242,133.0183
16:57:12:548,1.1563,2.2056,4.5571,42.0879,0.322,-0.09,0.4644,133.0183
16:57:12:569,0.9817,2.4335,5.3671,42.1962,-0.2116,0.3786,0.3059,132.9109
16:57:12:593,0.2267,2.1745,7.5039,42.2175,-0.9518,1.0975,0.0758,132.7957
16:57:12:616,-0.7172,1.3627,10.1557,42.3047,-1.1466,1.3572,-0.1533,132.6831
16:57:12:629,-1.1025,1.0606,10.9125,42.3897,-0.4523,0.9291,-0.1873,132.5809
16:57:12:650,-1.3543,1.7773,10.5847,42.5506,0.2889,0.3967,-0.1394,132.4883
16:57:12:670,-1.5888,2.3904,10.678,42.7546,0.388,0.1261,-0.1724,132.4883
16:57:12:690,-1.2778,2.7374,11.1739,42.6198,0.0707,0.0378,-0.1959,132.4883
16:57:12:714,-0.6233,2.6249,12.6347,42.8493,-0.3703,-0.0559,-0.1905,132.4883
16:57:12:730,0.2004,2.546,13.8233,42.8135,-0.5736,-0.1081,-0.1511,132.4883
16:57:12:751,0.6532,2.5627,14.1751,42.8385,-0.5385,-0.0506,-0.1597,132.4883
16:57:12:770,0.8518,1.6594,13.986,42.9436,-0.5077,0.0346,-0.2587,132.4883
16:57:12:791,0.9721,0.213,14.5394,43.0134,-0.5374,0.0644,-0.3023,132.4883
16:57:12:816,0.5695,-0.4002,14.7452,42.7836,-0.398,0.2742,-0.2033,132.4883
16:57:12:834,0.3894,-0.475,12.6515,42.8938,0.0803,0.6129,0.0225,132.4883
16:57:12:854,0.8064,-0.0748,10.532,42.8761,0.4189,0.5394,0.2025,132.4883
16:57:12:874,1.5446,0.1819,9.5163,42.8886,0.3827,0.0879,0.1791,132.4883
16:57:12:893,1.7791,0.3159,9.2644,43.0512,0.1142,-0.2924,-0.018,132.4883
16:57:12:917,1.3621,-0.0485,9.7771,43.1069,-0.2073,-0.4138,-0.2608,132.4883
16:57:12:933,0.6437,-0.4552,9.533,43.0884,-0.2979,-0.2807,-0.3747,132.4883
16:57:12:954,0.2291,-0.4457,8.4766,43.23,-0.1381,-0.1081,-0.3033,132.4883
16:57:12:973,0.0353,-0.2542,7.7599,43.4026,0.1036,-0.074,-0.1735,132.4883
16:57:12:994,-0.0437,-0.1585,7.1707,43.5888,0.3965,-0.1134,-0.0691,132.4883
16:57:13:018,0.32,0.3852,6.1119,43.6275,0.7213,-0.1017,0.08,132.4883
16:57:13:033,1.0534,1.4058,4.9047,43.683,0.928,-0.0154,0.1823,132.4883
16:57:13:053,1.1587,2.1912,3.9176,43.7483,0.9365,0.1005,0.0662,132.4883
16:57:13:074,0.9332,2.6752,3.082,43.8385,0.7916,0.2284,-0.1597,132.4883
16:57:13:094,0.6293,3.1352,2.8828,43.958,0.4679,0.2614,-0.3907,132.4883
16:57:13:117,0.2028,3.2022,4.2317,44.174,0.0121,0.008,-0.6495,132.4883
16:57:13:134,-0.1208,2.9964,6.3757,44.3424,-0.3234,-0.3915,-0.8136,132.4883
16:57:13:154,-0.4845,2.735,8.7135,44.1764,-0.4502,-0.6481,-0.837,132.4883
16:57:13:174,-0.8608,2.5149,10.8215,44.3085,-0.398,-0.5373,-0.6932,132.4883
16:57:13:195,-1.0953,2.8409,11.9019,44.4892,-0.2606,-0.1177,-0.4397,132.5925
16:57:13:218,-1.0546,3.0538,13.0373,44.7807,-0.2702,0.2081,-0.2438,132.7079
16:57:13:234,-0.734,2.8457,14.4628,44.8147,-0.3927,0.3264,-0.149,132.8269
16:57:13:254,-0.7771,2.5866,16.0056,44.8679,-0.3618,0.3338,-0.051,132.9461
16:57:13:274,-0.7484,2.9462,15.9218,44.9426,-0.0316,0.5767,0.1557,133.0621
16:57:13:294,-1.1862,3.4516,14.2612,44.9714,0.3475,0.9771,0.3398,133.169
16:57:13:319,-1.7689,3.5234,12.7502,45.2833,0.4988,1.2018,0.409,133.26
16:57:13:335,-1.9723,3.6096,11.4275,45.5062,0.5148,1.3785,0.4964,133.26
16:57:13:357,-1.9627,3.6838,10.462,45.461,0.4679,1.37,0.4751,133.26
16:57:13:375,-2.4921,2.8816,10.8144,45.4232,0.2868,0.7875,0.1312,133.26
16:57:13:396,-3.5366,1.0989,11.8851,45.4943,0.0249,-0.0794,-0.2948,133.26
16:57:13:416,-3.9703,-0.3141,12.9057,45.5767,-0.1296,-0.615,-0.3118,133.26
16:57:13:436,-3.4433,-0.865,13.2102,45.8098,-0.055,-0.8078,0.0332,133.26
16:57:13:456,-2.1805,-0.7382,12.2303,46.1425,0.1814,-0.8398,0.4261,133.26
16:57:13:476,-1.1312,-0.2686,9.9709,46.3088,0.3017,-0.6374,0.6477,133.26
16:57:13:496,-0.4726,0.1436,7.861,46.5026,0.1569,-0.2562,0.7222,133.26
16:57:13:518,-0.1496,0.4451,6.5312,46.7091,-0.0422,0.1165,0.7318,133.26
16:57:13:537,-0.2237,0.3302,5.9324,46.6895,0.0185,0.2475,0.6732,133.26
16:57:13:558,-0.4726,0.1412,5.132,46.8702,0.4146,0.0218,0.6572,133.26
16:57:13:577,-0.4989,0.3565,3.9846,46.9254,0.8172,-0.2871,0.7478,133.26
16:57:13:634,-0.5635,0.9075,3.0772,46.7998,0.945,-0.4586,0.8256,133.1568
16:57:13:636,-0.5372,1.4345,2.6435,46.6063,0.8118,-0.4969,0.8639,133.0282
16:57:13:637,-0.5372,1.9878,2.6746,46.7055,0.5489,-0.4916,0.8415,132.8719
16:57:13:658,-0.1083,2.3115,3.7813,46.6465,0.1888,-0.5841,0.7521,132.6892
16:57:13:678,0.5838,2.4646,6.0305,46.6388,-0.202,-0.6758,0.5465,132.4831
16:57:13:698,0.5288,2.0572,9.1687,46.7709,-0.447,-0.6545,0.1589,132.2625
16:57:13:719,-0.3601,2.0859,10.8311,47.0397,-0.3586,-0.3531,-0.1479,132.0429
16:57:13:738,-0.7842,2.8146,11.7751,47.0269,-0.3096,0.0804,-0.165,131.8353
16:57:13:760,-0.5324,3.3153,13.203,47.3442,-0.5576,0.2603,-0.1724,131.6396
16:57:13:783,-0.0365,3.0682,15.0664,47.6713,-0.7728,0.1953,-0.2778,131.456
16:57:13:799,-0.1783,2.8911,16.0223,47.7698,-0.6429,0.0932,-0.38,131.2879
16:57:13:819,0.1908,3.4828,15.536,47.9431,-0.2425,0.1229,-0.2736,131.1387
16:57:13:840,0.344,3.8638,14.6088,48.3043,0.0281,0.2912,-0.1916,131.0034
16:57:13:860,0.2148,3.0802,13.7444,48.5696,0.0441,0.5021,-0.2395,130.8784
16:57:13:884,-0.1496,1.6235,13.5428,48.6085,0.0015,0.5671,-0.182,130.7656
16:57:13:900,-0.3386,0.9505,12.5988,48.6625,0.1302,0.6236,0.1493,130.6627
16:57:13:920,0.32,1.0032,11.0249,48.7011,0.3592,0.4989,0.5997,130.5586
16:57:13:941,2.1458,1.6451,9.4684,48.8509,0.4999,-0.0751,0.9129,130.4376
16:57:13:960,3.4175,2.6919,8.3228,48.8942,0.3795,-0.7631,0.7936,130.2885
