Time,Acc_X,Acc_Y,Acc_Z,Meg,Gyr_X,Gyr_Y,Gyr_Z,Ore
16:45:03:429,-0.8489,3.9404,9.4684,61.8931,-0.2318,-0.1955,0.0981,-126.9088
16:45:03:458,-0.8489,3.7507,9.7436,61.9884,-0.2031,-0.2668,0.0609,-126.9088
16:45:03:475,-0.8225,3.6742,10.0768,62.0878,-0.1242,-0.318,0.0087,-126.9088
16:45:03:492,-0.8177,3.4325,10.1222,62.1888,0.0015,-0.2818,-0.0446,-126.9088
16:45:03:509,-1.1791,3.2142,9.7914,62.2671,0.1505,-0.2114,-0.0734,-126.9088
16:45:03:529,-1.3735,3.3129,9.1448,62.2507,0.2964,-0.1848,-0.0244,-126.9088
16:45:03:552,-1.1384,3.5498,8.4861,62.1592,0.3827,-0.2061,0.0662,-127.0118
16:45:03:576,-0.6909,3.8447,8.0955,62.102,0.3774,-0.253,0.0992,-127.12
16:45:03:593,-0.475,4.0409,8.0692,62.0745,0.2581,-0.2019,0.0459,-127.2229
16:45:03:611,-0.5755,4.0122,8.2008,61.9956,0.059,-0.0123,-0.0553,-127.2229
16:45:03:631,-0.9972,3.7962,8.3611,61.9747,-0.0955,0.124,-0.1543,-127.2229
16:45:03:652,-1.2299,3.6383,8.7326,62.2138,-0.1583,0.0485,-0.1852,-127.2229
16:45:03:671,-1.1892,3.6359,8.9246,62.2728,-0.1402,-0.0517,-0.1426,-127.2229
16:45:03:691,-1.0475,3.7053,8.8905,62.5417,-0.1413,-0.0453,-0.083,-127.2229
16:45:03:712,-1.0522,3.7699,9.0132,62.6152,-0.202,-0.0037,-0.0542,-127.2229
16:45:03:731,-1.0187,3.6885,9.2668,62.8175,-0.2542,0.0037,-0.0361,-127.2229
16:45:03:761,-1.0092,3.7268,9.454,63.0149,-0.235,0.0325,0.0001,-127.2229
16:45:03:772,-0.9398,3.7029,9.4732,62.9415,-0.1455,0.0325,0.031,-127.2229
16:45:03:792,-0.9805,3.8542,9.2261,63.0527,-0.0124,-0.0069,0.0513,-127.2229
16:45:03:814,-0.9589,3.9308,9.0562,62.4382,0.0601,-0.0549,0.0683,-127.2229
16:45:03:834,-0.9111,3.9715,8.8164,62.1872,0.0569,-0.0453,0.0715,-127.2229
16:45:03:865,-0.7484,3.9117,9.018,62.3168,-0.0188,-0.0506,0.0545,-127.2229
16:45:03:879,-0.7125,3.7436,9.1615,62.1722,-0.0838,-0.0144,0.0193,-127.2229
16:45:03:894,-0.8752,3.6574,9.4391,62.0701,-0.0912,0.0186,-0.0031,-127.2229
16:45:03:914,-0.7436,3.5521,9.4708,62.2103,0.0068,0.0037,0.0161,-127.2229
16:45:03:934,-0.7795,3.7675,8.9533,62.1048,0.1377,0.0112,0.031,-127.2229
16:45:03:964,-0.6766,3.8279,8.802,62.3008,0.1238,-0.0069,0.0364,-127.2229
16:45:03:978,-0.6622,4.0193,8.735,62.5026,0.0473,0.0325,0.0364,-127.2229
16:45:03:994,-0.6598,3.9954,8.7087,62.5803,-0.0039,0.0623,0.0172,-127.2229
16:45:04:013,-0.7412,4.0696,8.5914,62.6294,-0.022,0.0719,-0.0041,-127.2229
16:45:04:033,-0.8106,4.0552,8.613,62.5601,-0.0411,0.0314,-0.0329,-127.2229
16:45:04:069,-0.9517,3.9571,8.7278,62.6552,-0.0507,-0.0506,-0.0659,-127.2229
16:45:04:074,-0.99,3.8399,8.9366,62.6656,-0.0571,-0.1092,-0.068,-127.2229
16:45:04:093,-0.9446,3.8447,8.994,62.7138,-0.0731,-0.0666,-0.0446,-127.2229
16:45:04:114,-0.9087,3.8806,9.14,62.6945,-0.1019,-0.0069,-0.0265,-127.2229
16:45:04:142,-0.8871,3.8495,9.195,62.5816,-0.0933,0.0048,-0.0276,-127.2229
16:45:04:155,-0.9661,3.8231,9.1687,62.5457,-0.0454,-0.0005,-0.0329,-127.2229
16:45:04:176,-0.8895,3.8423,8.9701,62.4641,0.0015,-0.0165,-0.0297,-127.2229
16:45:04:195,-0.88,3.8399,8.9145,62.3999,0.0089,-0.0304,-0.0361,-127.2229
16:45:04:215,-0.8608,3.7819,8.951,62.2828,-0.0145,-0.0346,-0.0446,-127.2229
16:45:04:235,-0.8776,3.8058,9.0275,62.328,-0.0145,-0.0389,-0.0446,-127.2229
16:45:04:257,-0.8824,3.7603,9.006,62.3338,-0.0017,-0.0485,-0.0425,-127.2229
16:45:04:276,-0.9422,3.8303,8.9145,62.3327,0.0089,-0.0336,-0.034,-127.2229
16:45:04:295,-0.9829,3.8495,8.7613,62.3047,0.0111,-0.0208,-0.0222,-127.2229
16:45:04:316,-0.9565,3.9021,8.6895,62.4208,-0.0028,-0.0399,-0.0084,-127.2229
16:45:04:337,-0.9326,3.8997,8.814,62.4097,-0.0411,-0.09,-0.0084,-127.2229
16:45:04:356,-0.9182,3.926,9.0395,62.6597,-0.0742,-0.1198,-0.0126,-127.2229
16:45:04:377,-0.9015,3.8686,9.1591,62.661,-0.0763,-0.1145,-0.0095,-127.2229
16:45:04:397,-0.8225,3.8686,9.1687,62.4679,-0.0433,-0.0996,-0.0084,-127.2229
16:45:04:417,-0.8345,3.8201,9.1807,62.2172,-0.0092,-0.0911,-0.019,-127.2229
16:45:04:437,-0.9206,3.7292,9.0802,62.3266,0.0089,-0.0804,-0.0276,-127.2229
16:45:04:457,-0.9326,3.7053,8.9868,62.1493,0.0142,-0.0676,-0.0084,-127.2229
16:45:04:478,-0.9087,3.734,8.9486,62.1574,0.0068,-0.0495,0.0172,-127.2229
16:45:04:498,-0.88,3.789,8.8475,62.1368,-0.0049,-0.0304,0.0246,-127.2229
16:45:04:517,-0.8321,3.8058,8.8834,61.8601,-0.0177,-0.0474,0.0268,-127.2229
16:45:04:537,-0.7723,3.8231,8.9366,61.9371,-0.0305,-0.0559,0.0278,-127.2229
16:45:04:558,-0.7795,3.7962,8.9366,62.0843,-0.0518,-0.0282,0.0268,-127.2229
16:45:04:578,-0.7316,3.734,9.0491,62.3702,-0.0667,-0.0314,0.0257,-127.2229
16:45:04:598,-0.6646,3.7149,9.0658,62.3858,-0.0337,-0.0495,0.0246,-127.2229
16:45:04:622,-0.597,3.734,8.927,62.5115,0.0015,-0.0644,0.0087,-127.2229
16:45:04:639,-0.5348,3.7603,8.8379,62.3173,-0.0134,-0.0644,-0.0158,-127.2229
16:45:04:659,-0.5922,3.6981,8.951,62.3441,-0.0774,-0.0506,-0.0318,-127.2229
16:45:04:679,-0.652,3.6479,9.0802,62.6248,-0.1157,-0.0112,-0.0158,-127.2229
16:45:04:699,-0.6305,3.7125,9.0371,62.6565,-0.0965,0.0144,0.0129,-127.2229
16:45:04:722,-0.6162,3.7531,9.0108,62.7647,-0.0656,-0.0186,0.015,-127.2229
16:45:04:740,-0.6377,3.6838,9.0802,62.8168,-0.0731,-0.0527,0.0012,-127.2229
16:45:04:760,-0.6861,3.6335,9.128,62.766,-0.0816,-0.0325,0.0012,-127.2229
16:45:04:781,-0.7699,3.5378,9.2046,62.9551,-0.0688,-0.0282,0.0108,-127.2229
16:45:04:800,-0.7723,3.5593,9.0012,63.2483,-0.0326,-0.0197,0.0321,-127.2229
16:45:04:821,-0.679,3.5282,9.1041,63.1703,-0.0379,-0.0559,0.0459,-127.2229
16:45:04:840,-0.5707,3.5426,9.2405,63.0986,-0.0614,-0.0751,0.0491,-127.2229
16:45:04:861,-0.5587,3.5593,9.2979,62.8914,-0.0656,-0.0336,0.047,-127.2229
16:45:04:881,-0.5085,3.5091,9.3171,62.5505,-0.0507,-0.0059,0.0481,-127.2229
16:45:04:901,-0.5731,3.5186,9.1615,62.4686,-0.0028,0.0144,0.0523,-127.2229
16:45:04:923,-0.5348,3.5091,8.9916,62.5216,0.027,0.0091,0.0609,-127.2229
16:45:04:941,-0.4917,3.5737,8.8834,62.3304,0.0132,0.0101,0.0683,-127.2229
16:45:04:961,-0.5013,3.5569,8.9073,62.0977,-0.0305,0.0112,0.0555,-127.2229
16:45:04:982,-0.5133,3.5163,8.9025,62.2944,-0.0678,0.0208,0.0395,-127.2229
16:45:05:003,-0.5204,3.5282,8.9629,62.4088,-0.088,0.0112,0.031,-127.2229
16:45:05:024,-0.4726,3.5139,9.1208,62.6012,-0.1019,-0.0123,0.0332,-127.2229
16:45:05:043,-0.4032,3.5402,9.1208,62.9043,-0.0806,-0.0176,0.0406,-127.2229
16:45:05:063,-0.3864,3.5617,9.0778,62.9587,-0.0593,-0.0336,0.031,-127.2229
16:45:05:084,-0.3721,3.545,9.0395,62.924,-0.0614,-0.0463,0.0182,-127.2229
16:45:05:105,-0.3362,3.5737,9.0778,63.0308,-0.0774,-0.0368,0.0161,-127.2229
16:45:05:123,-0.341,3.5641,9.2501,63.1199,-0.0869,-0.0368,0.0097,-127.2229
16:45:05:143,-0.3577,3.5785,9.1639,63.0405,-0.0475,-0.0059,0.0129,-127.2229
16:45:05:164,-0.4056,3.6742,8.869,62.8399,-0.0113,0.0336,0.0214,-127.2229
16:45:05:184,-0.3529,3.7005,8.7948,62.822,-0.0411,0.0176,0.0257,-127.2229
16:45:05:206,-0.3338,3.6526,8.927,62.6964,-0.0901,-0.0123,0.0246,-127.2229
16:45:05:223,-0.3673,3.6096,9.0419,62.7541,-0.104,-0.024,0.0214,-127.2229
16:45:05:244,-0.3194,3.6048,8.9438,62.6561,-0.0955,-0.0069,0.0353,-127.2229
16:45:05:264,-0.3625,3.6526,8.9097,62.3925,-0.0891,-0.0027,0.0427,-127.2229
16:45:05:286,-0.3817,3.6981,8.6824,62.4034,-0.0816,-0.0059,0.0427,-127.2229
16:45:05:307,-0.3314,3.655,8.7996,62.5531,-0.0987,-0.0708,0.0332,-127.2229
16:45:05:324,-0.3003,3.6287,9.1161,62.5935,-0.1328,-0.1422,0.0225,-127.2229
16:45:05:345,-0.2357,3.5521,9.2453,62.8587,-0.1455,-0.1262,0.0214,-127.2229
16:45:05:367,-0.1831,3.4756,9.274,63.1265,-0.1328,-0.074,0.0321,-127.2229
16:45:05:384,-0.1998,3.4469,9.1711,63.1882,-0.0944,-0.0442,0.0427,-127.2229
16:45:05:406,-0.2548,3.4947,8.8403,63.2698,-0.0337,-0.0314,0.0683,-127.2229
16:45:05:453,-0.2333,3.6479,8.3707,63.4877,0.0174,-0.0442,0.0981,-127.2229
16:45:05:455,-0.2213,3.7484,8.2798,63.5092,-0.0007,-0.1092,0.0939,-127.2229
16:45:05:466,-0.3123,3.7484,8.3515,63.3726,-0.0593,-0.1571,0.0662,-127.2229
16:45:05:487,-0.3984,3.7005,8.4861,63.3988,-0.1178,-0.1678,0.0406,-127.2229
16:45:05:507,-0.4678,3.5426,8.735,63.1946,-0.1935,-0.1859,0.0278,-127.2229
16:45:05:527,-0.4869,3.4253,8.9049,63.1999,-0.2393,-0.1742,0.0427,-127.2229
16:45:05:547,-0.5755,3.5426,8.9868,62.931,-0.2393,-0.1198,0.0917,-127.2229
16:45:05:569,-0.585,3.8201,8.6536,63.0777,-0.1924,-0.0495,0.1439,-127.2229
16:45:05:586,-0.6066,4.0433,8.3013,63.0223,-0.169,-0.057,0.1429,-127.2229
16:45:05:606,-0.6233,4.127,8.5149,62.8319,-0.2371,-0.1901,0.0768,-127.2229
16:45:05:627,-0.6066,4.0624,9.0586,62.8237,-0.3554,-0.2903,-0.002,-127.2229
16:45:05:649,-0.4965,4.0265,9.6335,62.9067,-0.464,-0.2274,-0.0414,-127.2229
16:45:05:670,-0.475,3.8518,10.0026,62.9369,-0.4907,-0.1081,-0.0585,-127.2229
16:45:05:690,-0.6233,3.7005,9.9326,62.9066,-0.4076,-0.0218,-0.0691,-127.2229
16:45:05:710,-0.7172,3.7507,9.612,62.9726,-0.3032,0.073,-0.0308,-127.2229
16:45:05:730,-0.6622,3.6718,9.2381,63.0693,-0.2233,0.1325,0.0374,-127.2229
16:45:05:750,-0.6766,3.4684,9.1543,63.2479,-0.1487,0.1367,0.0854,-127.2229
16:45:05:770,-0.7579,3.5761,8.7565,63.5727,-0.072,0.2443,0.1599,-127.2229
16:45:05:790,-0.7412,3.8758,8.2534,63.4815,-0.0763,0.3818,0.2302,-127.2229
16:45:05:812,-0.4845,3.9858,8.2128,63.5768,-0.1679,0.3423,0.2302,-127.2229
16:45:05:831,-0.5085,4.0193,8.1864,63.6127,-0.2084,0.1858,0.1525,-127.2229
16:45:05:850,-0.7364,4.2036,8.0333,63.7032,-0.1999,0.0517,0.0406,-127.2229
16:45:05:871,-1.1671,4.0768,8.4263,63.662,-0.2254,-0.0463,-0.0297,-127.2229
16:45:05:892,-1.2347,3.993,8.8259,63.6682,-0.2308,0.0336,0.0204,-127.2229
16:45:05:912,-1.0403,4.3232,8.6369,63.6132,-0.219,0.1826,0.1375,-127.2229
16:45:05:931,-1.3376,4.2299,8.6991,63.7751,-0.3075,0.1282,0.1887,-127.2229
16:45:05:950,-1.718,3.9141,9.3075,64.1024,-0.4332,-0.0453,0.1493,-127.2229
16:45:05:972,-0.9924,4.1198,9.545,64.0688,-0.4097,-0.0708,0.2419,-127.2229
16:45:05:993,-0.3338,3.9715,10.6038,64.4257,-0.3128,-0.1614,0.2654,-127.2229
16:45:06:013,-0.4175,4.0026,11.138,64.4705,-0.1232,-0.1103,-0.002,-127.2229
16:45:06:033,-0.8393,4.1151,11.1715,64.9285,0.1398,-0.2573,-0.282,-127.2229
16:45:06:053,-1.0834,4.4195,11.2122,65.0773,0.42,-0.6268,-0.429,-127.2229
16:45:06:072,-0.7627,4.4339,11.5232,65.2343,0.666,-1.155,-0.428,-127.2229
16:45:06:093,-0.3601,4.4913,11.4275,65.1804,0.8161,-1.4745,-0.3374,-127.2229
16:45:06:113,0.6197,4.0959,11.4108,65.3549,0.6074,-1.449,-0.1927,-127.2229
16:45:06:133,1.8939,3.6096,12.5055,65.19,0.0196,-0.7631,-0.1096,-127.2229
16:45:06:153,1.8987,3.0658,12.999,65.3766,-0.4257,0.3306,-0.181,-127.2229
16:45:06:174,1.5398,1.8156,12.4146,65.2762,-0.5056,0.96,-0.3481,-127.2229
16:45:06:193,1.0965,0.6395,11.8229,65.2614,-0.3703,0.9686,-0.4354,-127.2229
16:45:06:214,0.8423,-0.0556,11.4706,65.4633,-0.1541,0.7694,-0.4003,-127.2229
16:45:06:234,0.9236,-0.4822,10.6564,65.3627,0.1302,0.6779,-0.2916,-127.2229
16:45:06:254,0.7753,-0.0963,9.5115,65.4585,0.4722,0.7449,-0.1096,-127.2229
16:45:06:274,0.4379,0.5838,7.8634,65.3682,0.766,0.7758,0.113,-127.2229
16:45:06:296,0.0544,1.6451,6.8094,65.0969,0.896,0.4467,0.3144,-127.2229
16:45:06:313,-0.1448,2.4526,7.1994,64.8364,0.8342,-0.2551,0.3282,-127.2229
16:45:06:334,0.2459,2.7906,7.6546,64.6544,0.7373,-0.7631,0.1471,-127.2229
16:45:06:354,-0.0197,2.4191,7.4489,64.4909,0.7053,-0.8995,0.0119,-127.2229
16:45:06:374,0.3129,2.5962,7.4943,64.2085,0.6341,-0.8877,-0.0116,-127.2229
16:45:06:394,0.4977,3.1926,7.6164,64.2519,0.5116,-0.762,-0.0105,-127.2229
16:45:06:414,0.7107,3.6168,7.535,64.0506,0.4274,-0.5277,-0.0595,-127.2229
16:45:06:434,0.7777,3.5258,7.1563,63.9797,0.4114,-0.3638,-0.1607,-127.2229
16:45:06:455,0.5623,3.3272,6.5791,64.2338,0.4274,-0.2839,-0.2257,-127.2229
16:45:06:474,0.2554,3.5067,5.9874,64.2035,0.3763,-0.2786,-0.182,-127.2229
16:45:06:494,0.0688,3.6287,5.6231,64.0394,0.1611,-0.3616,-0.1085,-127.2229
16:45:06:514,1.5996,4.0098,6.4618,63.8714,-0.2212,-0.4405,-0.0553,-127.2229
16:45:06:534,7.8156,7.0403,8.8881,63.8888,-0.7963,0.2795,-0.0563,-127.2229
16:45:06:555,1.0558,2.6728,7.4776,63.8507,-1.6611,2.0271,-0.8572,-127.2229
16:45:06:576,-2.7942,2.4885,5.7194,63.8453,-2.3267,1.9813,-1.3098,-127.2229
16:45:06:597,-1.8957,3.4684,6.3948,63.8174,-2.4992,0.7608,-0.8136,-127.1231
16:45:06:615,0.0425,3.9835,9.7843,63.5903,-2.4235,0.1421,-0.6005,-127.0022
16:45:06:637,-1.1892,1.2191,15.1262,63.491,-1.7026,-0.0229,-0.5462,-126.8684
16:45:06:656,-0.8321,1.995,13.4327,63.5643,-0.0731,1.3073,-0.3342,-126.7247
16:45:06:676,-1.8383,3.0754,11.1571,63.6577,0.5627,2.5468,-0.4493,-126.5772
16:45:06:696,-0.8465,1.8658,11.2409,63.5968,0.3774,2.221,-0.2332,-126.4178
16:45:06:718,-1.5099,3.0993,13.6576,63.6107,0.1739,0.8343,-0.1107,-126.2544
16:45:06:736,-3.1842,2.4144,14.7811,63.596,0.6458,-0.5895,-0.1479,-126.0934
16:45:06:756,-2.8756,2.9103,12.9559,63.2361,1.6117,-0.4671,0.079,-125.9299
16:45:06:776,-2.8947,3.1184,10.3663,63.1187,2.1793,0.0197,0.5401,-125.7677
16:45:06:796,-3.6203,3.0562,8.6345,62.8886,2.1942,0.0826,0.7606,-125.6182
16:45:06:816,-2.5113,3.4875,8.2439,62.6112,1.5712,0.0559,0.7307,-125.4893
16:45:06:837,-2.4084,2.872,8.6082,62.5074,0.3571,0.057,0.3218,-125.3832
16:45:06:857,-2.4203,2.3785,10.1342,62.3883,-0.4182,-0.1561,0.0726,-125.2922
16:45:06:877,-2.5711,2.0046,10.127,62.197,-0.2968,-0.1571,0.0342,-125.2922
16:45:06:897,-2.741,1.0056,9.2955,62.1257,0.043,-0.1337,-0.0148,-125.2922
16:45:06:917,-2.4873,1.346,8.9773,62.0488,-0.0316,-0.2168,0.0257,-125.2922
16:45:06:937,-1.3065,1.9998,9.6215,61.981,-0.366,-0.334,0.2132,-125.2922
16:45:06:957,-0.4726,0.8429,10.8407,61.8764,-0.153,-0.7226,0.2654,-125.2922
16:45:06:979,0.3488,1.3196,9.1687,61.911,0.6341,-1.139,0.1471,-125.2922
16:45:06:998,0.4187,1.9376,8.735,61.4811,0.8065,-1.3691,-0.0478,-125.2922
16:45:07:018,0.6126,2.1051,8.2343,61.2254,0.7192,-1.4341,-0.263,-125.2922
16:45:07:039,0.3799,2.5196,7.5111,60.9988,0.7074,-1.5587,-0.5036,-125.2922
16:45:07:059,0.6867,3.2812,6.7202,60.6674,0.7479,-1.3457,-0.4226,-125.2922
16:45:07:079,-0.07,3.9882,6.2148,60.5411,0.5787,-0.7652,0.064,-125.2922
16:45:07:099,-0.0556,3.9476,5.2786,60.3251,0.2112,-0.073,0.4794,-125.2922
16:45:07:122,0.5767,3.9667,5.7673,60.2797,-0.1881,0.2252,0.572,-125.2922
16:45:07:140,0.4062,3.9284,6.6652,60.1143,-0.4875,0.6129,0.6466,-125.2922
16:45:07:159,-0.4989,3.7388,7.456,60.1606,-0.6812,0.8535,0.6849,-125.2922
16:45:07:180,-0.667,3.9476,7.5876,60.0988,-0.7164,0.8748,0.7318,-125.2922
16:45:07:200,-0.0724,4.1127,7.5876,59.9344,-0.6418,0.8876,0.7989,-125.2922
16:45:07:220,-0.0508,4.3813,7.9328,59.8273,-0.6663,0.8876,0.7073,-125.4014
16:45:07:240,-0.542,4.7306,9.1902,59.7193,-0.6684,0.4915,0.4272,-125.5381
16:45:07:260,-0.7292,4.3304,11.284,59.6302,-0.4246,-0.2029,0.1567,-125.691
16:45:07:281,-0.5324,4.1964,12.6784,59.5926,0.1803,-0.7802,0.0055,-125.8495
16:45:07:301,-0.3218,4.5224,10.6301,59.5024,1.0004,-0.8696,-0.067,-126.0059
16:45:07:321,-0.4008,4.6229,9.7962,59.6048,1.3486,-0.5873,-0.068,-126.1574
16:45:07:342,-0.2979,4.2467,10.5559,59.7499,1.2337,-0.1134,0.0513,-126.3032
16:45:07:361,0.1693,5.1308,11.5113,59.5921,1.1335,0.3562,0.1056,-126.4486
16:45:07:381,-0.341,5.8971,10.3017,59.6285,1.027,0.5383,0.0268,-126.5966
16:45:07:402,0.8303,5.9139,9.4487,59.6243,0.7426,0.2944,0.1461,-126.742
16:45:07:422,1.5637,5.5645,9.8273,59.5794,0.3198,0.0197,0.1503,-126.8895
16:45:07:483,1.063,4.7593,11.3198,59.3532,-0.1115,-0.0165,-0.1884,-127.0409
16:45:07:487,0.5145,4.4937,11.5543,59.26,-0.2627,0.0719,-0.4961,-127.1839
16:45:07:489,0.591,3.7292,10.0026,58.9032,-0.1796,0.1154,-0.5664,-127.3057
16:45:07:502,1.547,3.3942,8.8307,58.4965,-0.0571,0.0826,-0.5324,-127.4041
16:45:07:522,1.4459,2.9414,7.7001,58.499,-0.121,0.1346,-0.6634,-127.4041
16:45:07:542,0.1525,1.8945,8.4957,58.156,-0.496,-0.0879,-0.7699,-127.4041
16:45:07:563,0.3176,1.7174,9.9613,57.9335,-0.6674,-0.3883,-0.6144,-127.4041
16:45:07:583,0.3679,2.0309,8.9121,57.6462,-0.4619,-0.1923,-0.4684,-127.4041
16:45:07:603,-0.3984,1.8993,7.3579,57.484,-0.3799,0.1815,-0.3715,-127.4041
16:45:07:623,-0.923,2.1529,7.4345,57.2556,-0.5216,0.3349,-0.2608,-127.4041
16:45:07:644,-0.6957,2.4335,7.7599,57.0359,-0.6258,0.3498,-0.1192,-127.4041
16:45:07:664,-1.3567,3.588,6.9649,56.8954,-0.5363,0.4148,-0.0819,-127.4041
16:45:07:685,-1.9125,3.0347,5.8056,56.7412,-0.5024,0.7534,0.0896,-127.4041
16:45:07:705,-1.8503,3.3344,5.2881,56.753,-0.5726,0.7736,0.1727,-127.4041
16:45:07:724,-1.3591,3.5809,6.1262,56.551,-0.6642,0.6406,0.0502,-127.4041
16:45:07:745,-0.9063,3.2237,6.347,56.5199,-0.7377,0.6534,-0.0691,-127.4041
16:45:07:765,-0.9757,3.1017,7.1922,56.2691,-0.7813,0.4446,-0.1873,-127.4041
16:45:07:785,-1.4405,3.073,7.4154,56.1756,-0.7249,0.2933,-0.2417,-127.4041
16:45:07:805,-1.8383,3.1807,8.2463,56.1271,-0.7366,0.3775,0.0438,-127.4041
16:45:07:825,-1.3615,3.4564,9.5067,56.0367,-0.824,0.9643,0.409,-127.4041
16:45:07:845,-1.9723,3.5498,9.6048,55.9316,-0.858,1.4648,0.5007,-127.4041
16:45:07:865,-1.3615,3.9858,10.285,55.7867,-0.7249,1.32,0.49,-127.4041
16:45:07:886,1.8772,5.4377,11.138,55.8354,-0.6013,0.9505,0.3197,-127.5038
16:45:07:906,1.0989,3.454,11.4538,55.5585,-0.2723,0.7225,-0.4248,-127.6159
16:45:07:926,-0.7914,2.7159,9.4732,55.4782,0.0196,0.4861,-1.067,-127.7111
16:45:07:946,-3.2082,3.1496,9.8871,55.2441,0.0812,-0.5405,-1.2299,-127.7111
16:45:07:966,-4.1617,3.0706,11.0536,55.1069,0.1015,-1.4543,-1.0457,-127.7111
16:45:07:987,-3.7615,2.4503,12.1561,54.9004,0.1579,-1.7524,-0.6921,-127.7111
16:45:08:006,-4.0086,1.4656,13.8305,54.8222,0.1462,-1.5555,-0.4056,-127.7111
16:45:08:028,-4.1402,0.5025,14.7715,54.5232,0.0643,-0.5469,-0.0723,-127.7111
16:45:08:047,-3.6203,0.6251,14.8343,54.3281,-0.0635,0.7534,0.4208,-127.7111
16:45:08:068,-3.6538,0.862,13.5667,54.3466,-0.0465,1.6757,0.6796,-127.7111
16:45:08:088,-3.9918,0.5743,11.9833,54.2774,0.0951,2.0197,0.4655,-127.7111
16:45:08:108,-4.9669,-0.2279,10.462,54.0952,0.2612,1.7844,0.0587,-127.7111
16:45:08:128,-5.9653,-0.8913,9.7866,54.1909,0.4594,0.8471,-0.0947,-127.7111
16:45:08:149,-5.4987,-1.1647,8.7829,53.8873,0.7948,-0.1369,0.2281,-127.7111
16:45:08:168,-4.0684,-0.2279,7.2832,53.6697,1.0568,-0.8068,0.8106,-127.7111
16:45:08:190,-2.5113,1.1228,6.6078,53.7039,0.9855,-1.3265,1.0832,-127.7111
16:45:08:208,-1.124,1.7701,6.3757,53.4206,0.7692,-1.7599,0.9395,-127.7111
16:45:08:229,-0.396,1.9041,6.4307,53.2534,0.5702,-2.1274,0.7201,-127.8063
16:45:08:249,-0.1424,1.9017,6.6365,53.0181,0.4402,-2.2137,0.5742,-127.9219
16:45:08:269,0.9212,3.5785,6.807,52.996,0.4466,-1.8728,0.5209,-128.054
16:45:08:289,1.1635,2.7691,6.009,52.8096,0.8129,-1.7865,0.4644,-128.2005
16:45:08:309,0.8662,3.6766,6.4235,52.8435,1.011,-1.9516,0.2132,-128.3581
16:45:08:330,1.5996,4.6971,7.1013,52.7681,0.9109,-1.4277,0.2803,-128.519
16:45:08:350,1.8245,4.6277,7.2018,52.6782,-0.071,0.7576,0.5667,-128.6861
16:45:08:370,0.6556,3.789,6.6724,52.8638,-0.7121,1.631,0.4186,-128.8695
16:45:08:389,-1.5721,2.3186,7.118,52.7537,-0.0624,-0.1028,0.162,-129.0614
16:45:08:410,-1.2251,3.6622,7.5278,52.7141,-0.0827,-0.3286,0.5816,-129.2558
16:45:08:430,2.2175,5.2265,9.478,52.7953,-0.1264,-0.6374,0.8319,-129.4671
16:45:08:451,1.4818,4.7785,10.2873,52.8159,-0.0507,-0.598,0.2856,-129.7034
16:45:08:471,-0.1735,4.5272,10.2586,52.9308,0.3891,-0.908,-0.1703,-129.9423
16:45:08:491,0.2315,5.6291,9.8106,52.8678,0.8353,-1.1848,-0.1383,-130.169
16:45:08:511,0.3344,4.8598,9.9882,52.8133,0.9311,-0.8995,-0.1362,-130.3857
16:45:08:532,0.2674,5.0997,10.0265,52.5981,0.8843,-0.6545,-0.1554,-130.5942
16:45:08:553,0.7992,4.9896,9.7508,52.4847,0.7234,-0.8931,-0.1746,-130.7941
16:45:08:571,2.1769,6.1178,10.1892,52.5414,0.4764,-1.4021,-0.1554,-130.985
16:45:08:592,3.0126,6.149,9.6335,52.4219,0.1356,-1.5885,-0.166,-131.1665
16:45:08:613,2.3204,5.4568,10.9866,52.0753,-0.2286,-1.6567,-0.3023,-131.3365
16:45:08:633,2.9575,3.5665,12.8387,51.9372,-0.4097,-1.3457,-0.2363,-131.4865
16:45:08:654,4.1575,3.1543,11.9785,51.8525,-0.2553,-0.7226,-0.018,-131.6204
16:45:08:675,3.7723,3.3966,10.611,51.8843,-0.0678,-0.1784,0.0012,-131.7497
16:45:08:694,2.141,2.8696,9.0873,51.8071,0.01,0.5085,-0.1128,-131.8761
16:45:08:714,3.0197,2.141,7.4967,51.633,-0.1019,0.8471,-0.0158,-131.9956
16:45:08:733,2.8762,2.2851,8.522,51.3564,-0.3618,0.6896,0.0044,-132.1109
16:45:08:754,2.4185,2.1314,9.3386,51.4523,-0.4321,0.5746,-0.0542,-132.2211
16:45:08:773,1.1133,1.3412,8.7111,51.3957,-0.2201,0.435,-0.0137,-132.3235
16:45:08:794,0.682,2.455,7.7791,51.4106,0.1462,-0.2157,0.1557,-132.422
16:45:08:813,1.7456,3.2937,7.5015,51.2119,0.2687,-0.713,0.2622,-132.5254
16:45:08:834,1.9131,3.8375,6.5934,51.1304,0.1867,-0.7141,0.1663,-132.6376
16:45:08:854,1.0367,3.2788,5.4317,51.1121,-0.0411,-0.4639,0.079,-132.7543
16:45:08:874,1.669,4.3908,6.3685,51.2212,-0.3746,-0.2999,0.1951,-132.8692
16:45:08:894,2.1218,3.9284,6.8572,51.3015,-0.3522,0.057,0.211,-132.9833
16:45:08:914,2.0931,3.9835,7.2449,51.1767,-0.1189,0.4009,-0.035,-133.0969
16:45:08:934,0.9236,3.6239,7.0367,51.2566,0.126,0.5138,-0.198,-133.2047
16:45:08:954,0.2506,3.7005,5.7338,51.1197,0.2165,0.5351,-0.1639,-133.3017
16:45:08:974,1.051,4.0026,6.4044,51.0338,0.0771,0.3999,-0.0233,-133.3017
16:45:08:998,1.6092,3.9093,7.3603,50.9833,-0.0241,0.2848,0.0917,-133.3017
16:45:09:018,1.6666,4.2156,7.803,51.0803,-0.0252,0.1655,0.1375,-133.3928
16:45:09:038,1.3214,4.7737,8.3635,50.8847,-0.0411,-0.0559,-0.0222,-133.4853
16:45:09:060,1.1874,4.8766,9.0275,50.7805,-0.1019,-0.3126,-0.0297,-133.4853
16:45:09:078,1.9059,4.7402,8.9025,50.7785,-0.1541,-0.0676,0.1429,-133.4853
16:45:09:101,2.6441,5.0734,9.6766,50.4724,-0.2489,0.4702,0.2505,-133.4853
16:45:09:120,2.263,5.3988,11.1117,50.2473,-0.3192,0.9228,0.0896,-133.5793
16:45:09:139,1.9585,5.2863,12.5031,50.234,-0.2744,0.8333,-0.0318,-133.6703
16:45:09:158,1.7312,5.5406,12.4337,50.1002,-0.071,0.2571,-0.0595,-133.6703
16:45:09:180,0.5647,5.3103,12.6688,49.9642,0.1739,0.3104,-0.1149,-133.6703
16:45:09:199,-0.2524,4.9035,12.7741,49.9927,0.3838,0.6651,-0.0318,-133.6703
16:45:09:219,0.3799,4.8407,12.0191,49.8868,0.5446,0.5447,0.2334,-133.6703
16:45:09:238,1.4243,4.5296,11.0369,49.5412,0.6053,0.0293,0.4389,-133.7611
16:45:09:258,1.657,3.938,10.1868,49.5569,0.6245,-0.3979,0.4559,-133.8679
16:45:09:279,1.0247,3.8566,8.9653,49.3366,0.6351,-0.4916,0.3569,-133.9926
16:45:09:297,0.0664,3.8853,8.1601,49.4557,0.5851,0.0016,0.3611,-134.1314
16:45:09:320,0.2889,3.3823,8.9653,49.4204,0.4178,0.6811,0.6253,-134.2834
16:45:09:338,1.8317,2.7015,9.8848,49.2827,0.3859,0.9963,0.8639,-134.4571
16:45:09:361,2.7015,2.7446,9.0562,49.0806,0.5574,0.8578,0.7883,-134.6618
16:45:09:379,2.2439,2.4981,8.0644,49.1094,0.5584,0.6225,0.5667,-134.8944
16:45:09:398,2.1817,2.2008,7.5709,49.1199,0.3017,0.2891,0.4495,-135.1452
16:45:09:419,2.3085,2.6177,6.4499,48.9794,0.0068,-0.4149,0.4122,-135.4066
16:45:09:439,2.5047,2.9486,6.0568,49.0688,-0.3341,-0.9517,0.3282,-135.6747
16:45:09:494,2.7494,3.0921,6.1741,48.8469,-0.5736,-0.8249,0.2483,-135.9438
16:45:09:499,2.3611,3.4062,6.5288,48.7667,-0.6152,-0.5916,0.1216,-136.2096
16:45:09:501,1.331,4.398,5.9396,48.9501,-0.4726,-0.3574,-0.0904,-136.4662
16:45:09:519,-0.0485,4.7474,6.0784,48.7633,-0.3852,-0.0868,-0.1085,-136.7065
16:45:09:539,-0.0389,4.9011,7.0032,48.576,-0.3628,0.0847,0.1301,-136.9292
16:45:09:559,0.5838,4.9274,7.8993,48.5817,-0.1956,0.2816,0.3558,-137.1459
16:45:09:581,0.9021,4.8144,6.7466,48.5893,0.0494,0.4798,0.3387,-137.3662
16:45:09:600,1.4818,4.9202,7.6068,48.6005,-0.0092,0.4851,0.2196,-137.5912
16:45:09:620,1.7288,4.3376,9.2859,48.5302,-0.1967,0.4041,0.1471,-137.8158
16:45:09:640,2.5866,4.8742,9.5019,48.528,-0.1977,-0.286,-0.0126,-138.0363
16:45:09:661,2.196,5.2385,9.5378,48.3375,-0.1274,-0.8686,-0.263,-138.2459
16:45:09:681,0.6891,5.272,10.2491,48.2499,-0.0017,-0.3478,-0.3608,-138.4357
16:45:09:701,-0.2142,5.7105,10.8024,48.2686,0.2133,0.2624,-0.2012,-138.6049
16:45:09:721,0.1238,5.2505,10.0026,48.159,0.371,0.2667,0.1056,-138.7621
16:45:09:742,3.1615,5.2576,10.8144,48.0805,0.1281,0.1154,0.4762,-138.9208
16:45:09:762,4.7569,4.7186,11.7559,48.0634,-0.1274,-0.1678,0.3654,-139.0926
16:45:09:782,3.3984,5.193,12.5079,48.0555,0.0025,-0.2349,-0.2577,-139.271
16:45:09:802,1.051,4.8287,12.9248,47.8806,0.2634,0.5256,-0.6666,-139.4314
16:45:09:822,1.0558,4.4913,12.4887,47.721,0.5499,1.106,-0.3864,-139.5619
16:45:09:842,2.4879,3.5521,11.2265,47.6967,0.7714,0.6587,-0.0212,-139.6781
16:45:09:862,3.1304,2.8624,9.2931,47.5367,0.9375,-0.3308,-0.068,-139.795
16:45:09:882,2.4377,2.7446,7.4919,47.6559,0.9833,-0.8941,-0.3161,-139.9116
16:45:09:902,1.5661,3.4947,6.7202,47.7631,0.765,-1.0241,-0.4471,-140.0185
16:45:09:923,1.41,4.0792,6.2267,47.8112,0.3784,-0.5873,-0.282,-140.1096
16:45:09:945,1.2377,3.5378,7.1898,47.7429,-0.072,-0.1166,-0.0254,-140.1096
16:45:09:963,1.2592,3.0156,7.8969,47.7008,-0.3,-0.1656,0.1333,-140.1096
16:45:09:983,1.8796,2.8887,7.3149,47.6459,-0.2691,-0.1891,0.1684,-140.1096
16:45:10:005,2.1673,3.2548,7.6977,47.6587,-0.2936,0.0325,0.0619,-140.1096
16:45:10:024,1.8508,3.7364,7.9328,47.8043,-0.1871,0.2007,-0.1746,-140.1096
16:45:10:044,0.7226,4.2897,7.1827,47.6536,0.1313,0.1431,-0.3566,-140.1096
16:45:10:070,-0.1424,4.6995,5.1805,47.4274,0.4274,0.0751,-0.3065,-140.1096
16:45:10:084,0.4618,4.7689,3.4552,47.3827,0.3571,0.0708,-0.034,-140.1096
16:45:10:106,0.7753,4.7617,3.5007,47.4319,-0.0944,0.0091,0.1546,-140.1096
16:45:10:124,0.4666,4.8263,4.3107,47.4599,-0.5523,0.1708,0.308,-140.1096
16:45:10:145,1.2353,4.4363,6.8548,47.6257,-0.9305,0.2497,0.4836,-140.1096
16:45:10:165,2.5986,4.4722,8.6082,47.8204,-0.8815,0.2774,0.4463,-140.1096
16:45:10:186,2.6512,5.0016,7.6451,47.7039,-0.563,0.3626,0.2707,-140.1096
16:45:10:205,1.4028,5.6363,9.9709,47.7759,-0.4747,0.2997,0.1056,-140.1096
16:45:10:225,1.2162,5.6411,10.8646,47.7988,-0.1189,0.5138,0.2217,-140.1096
16:45:10:245,2.1218,5.1188,9.1639,47.661,0.2815,0.7992,0.3208,-140.1096
16:45:10:265,2.8164,5.3844,8.1673,47.6551,0.2186,0.4883,0.1695,-140.2045
16:45:10:285,2.8044,5.1404,9.4367,47.7145,-0.185,0.0549,-0.0393,-140.3027
16:45:10:308,2.5167,5.3031,11.5543,47.5967,-0.3096,0.1304,-0.2427,-140.3027
16:45:10:326,1.4626,6.2542,12.4696,47.5638,-0.0134,0.5671,-0.2959,-140.3027
16:45:10:347,0.2411,6.2925,11.6172,47.6222,0.3262,0.7576,-0.2076,-140.3027
16:45:10:368,1.3549,5.3988,11.4921,47.7094,0.4008,0.3093,-0.0585,-140.3027
16:45:10:387,0.9936,4.2778,12.0622,47.904,0.2964,-0.1348,-0.1873,-140.3027
16:45:10:406,-0.2907,5.4251,10.4788,48.1054,0.3699,-0.3169,-0.3736,-140.3027
16:45:10:427,0.0449,4.9418,9.1304,48.3407,0.2442,-0.5873,-0.2353,-140.3027
16:45:10:447,0.0808,2.8457,9.7149,48.2794,0.0887,-0.4085,-0.0467,-140.3027
16:45:10:467,-0.655,2.6967,9.1807,48.3407,0.2772,0.2678,0.0864,-140.3027
16:45:10:487,-0.7938,2.2493,9.262,48.2958,0.3284,0.3903,0.2909,-140.3027
16:45:10:508,0.5288,2.2756,8.074,48.436,0.2399,0.2337,0.5241,-140.3027
16:45:10:528,0.2865,2.7954,7.1946,48.3346,-0.006,0.4212,0.572,-140.3027
16:45:10:548,0.469,3.5809,6.8453,48.3276,-0.4001,0.5586,0.5529,-140.3027
16:45:10:568,1.1827,4.5248,6.737,48.564,-0.7228,0.2997,0.4293,-140.4044
16:45:10:588,1.7192,4.017,7.4273,48.561,-1.0114,0.0623,0.3027,-140.5153
16:45:10:608,2.589,3.4277,7.7695,48.7297,-1.1126,-0.0836,0.2398,-140.6273
16:45:10:628,2.9551,3.5163,7.3795,48.7813,-0.9731,-0.0698,0.113,-140.7393
16:45:10:649,2.2965,3.7077,6.9434,48.919,-0.8836,-0.057,-0.018,-140.8471
16:45:10:668,1.6355,3.5665,7.3771,48.9481,-0.8602,-0.1539,-0.0851,-140.9451
16:45:10:689,1.075,3.2309,8.2917,49.1578,-0.6493,-0.0911,-0.0169,-140.9451
16:45:10:710,0.4062,3.7579,8.5268,49.2956,-0.1967,-0.1113,0.0726,-140.9451
16:45:10:730,1.1228,3.9284,8.1075,49.1089,0.1632,-0.2626,0.1003,-140.9451
16:45:10:749,2.2463,3.8734,7.7551,48.9152,0.2751,-0.2786,0.079,-140.9451
16:45:10:770,2.0429,4.0409,8.0955,48.9266,0.2826,0.0815,-0.1863,-140.9451
16:45:10:789,0.8973,4.7928,8.3276,48.914,0.3209,0.3455,-0.4919,-140.9451
16:45:10:810,0.2578,4.7761,9.274,48.8823,0.3369,0.1325,-0.6474,-140.9451
16:45:10:830,-0.3099,4.8239,9.6144,49.1154,0.5137,-0.0325,-0.7017,-140.9451
16:45:10:850,-0.463,4.7258,10.4477,49.0905,0.7,-0.1198,-0.6325,-140.9451
16:45:10:870,-0.0413,4.5775,11.1595,49.1441,0.8161,-0.0655,-0.494,-140.9451
16:45:10:890,-0.8847,4.7569,11.0997,49.2652,0.9897,0.2518,-0.5505,-140.9451
16:45:10:910,-1.3711,5.1739,9.813,49.4397,1.0387,0.5085,-0.4557,-140.9451
16:45:10:932,-2.2768,6.2088,8.7374,49.5758,0.8321,0.1634,0.0161,-140.9451
16:45:10:951,0.1071,6.7023,7.4704,49.86,0.3017,-0.2573,0.2984,-140.9451
16:45:10:972,3.7196,6.3021,8.3492,50.0861,-0.6056,-0.4383,0.0087,-140.9451
16:45:10:991,4.2347,4.992,13.133,50.0682,-1.4491,0.0943,-0.6059,-140.9451
16:45:11:012,0.5336,1.2622,14.4628,50.0817,-1.3447,1.6374,-1.2608,-140.9451
16:45:11:032,-0.3793,4.5392,12.7238,50.111,-0.3085,1.8462,-1.0105,-140.8158
16:45:11:053,-0.2907,3.0108,11.6291,50.3782,0.224,1.0517,-0.6304,-140.6523
16:45:11:074,-2.001,3.14,7.13,50.2857,0.3646,1.0634,-0.4674,-140.4705
16:45:11:095,-1.3687,2.9103,5.2475,50.2857,-0.0582,0.369,-0.2545,-140.2762
16:45:11:114,0.5216,2.4096,8.8905,50.4434,-0.7792,-0.7525,0.0129,-140.0774
16:45:11:134,0.3129,2.8385,10.2634,50.621,-0.9305,0.0602,-0.2289,-139.8871
16:45:11:154,-0.8728,2.4311,8.5244,50.8661,-0.7792,1.4489,-0.625,-139.6961
16:45:11:173,-1.4931,3.5593,6.4499,50.921,-0.8197,1.7855,-0.7688,-139.4897
16:45:11:193,-1.5673,3.9811,4.7324,50.8348,-1.1084,1.1528,-0.7816,-139.2647
16:45:11:214,1.6977,5.2768,5.8152,50.8554,-1.1391,-1.1763,0.1067,-139.0228
16:45:11:233,2.8164,1.9424,7.6929,51.0688,-1.5791,-2.1029,0.7169,-138.7971
16:45:11:253,-0.542,0.4834,7.4249,51.0363,-1.5418,-1.5001,-0.2587,-138.6086
16:45:11:273,-1.3328,0.9338,9.1735,51.0368,-1.235,-1.7972,-0.2097,-138.421
16:45:11:294,0.1478,2.1458,8.8116,50.9474,-0.6759,-1.9293,0.1983,-138.2345
16:45:11:314,0.052,2.6752,8.0166,50.9504,-0.3373,-1.8728,-0.1639,-138.0619
16:45:11:334,-0.0604,2.5914,8.6106,51.1905,-0.3596,-1.4863,-0.3832,-137.8884
16:45:11:354,-0.667,3.2022,9.7125,51.3807,-0.2233,-0.4213,-0.0489,-137.706
16:45:11:374,-1.9412,2.817,9.0562,51.4665,0.3838,0.9174,0.3611,-137.5269
16:45:11:394,-0.6598,2.9988,8.8594,51.706,0.3465,0.6363,0.5806,-137.3673
16:45:11:414,-0.4056,2.5316,11.2385,51.9051,0.0601,-0.5117,0.6562,-137.2352
16:45:11:435,0.0233,3.0179,11.1787,51.8859,0.1963,-0.7684,0.4378,-137.131
16:45:11:455,1.2927,3.7172,10.7426,52.0044,0.3859,-0.2402,0.6296,-137.131
16:45:11:496,2.2822,2.9581,12.6275,52.126,0.2559,0.0144,0.8138,-137.131
16:45:11:498,2.318,2.5866,13.6935,52.058,0.3869,0.4339,0.8277,-137.131
16:45:11:516,1.4674,1.8203,12.6036,52.1036,0.9535,1.2764,0.7574,-137.131
16:45:11:536,1.1994,0.6054,10.8694,52.3587,1.3465,1.8004,0.7734,-137.131
16:45:11:556,0.615,1.4417,10.2132,52.3452,1.1218,1.3274,0.5092,-137.131
16:45:11:575,-0.1567,2.613,10.2538,52.3623,0.5947,0.7459,0.0545,-137.131
16:45:11:596,-0.801,3.1161,9.8513,52.4425,0.3049,0.2401,-0.1192,-137.131
16:45:11:616,-1.608,2.0668,9.5952,52.4173,0.059,-0.2146,0.0854,-137.131
16:45:11:637,-1.584,1.3627,10.544,52.5419,-0.1988,-0.0666,0.5049,-137.131
16:45:11:656,-1.4501,0.8453,11.4036,52.6907,-0.1711,0.7353,0.8128,-137.2397
16:45:11:677,-1.2203,0.9577,10.9005,52.7642,0.1782,1.4861,0.9289,-137.3771
16:45:11:697,-1.4812,1.2144,9.722,52.9108,0.6064,1.3658,0.9406,-137.5466
16:45:11:717,-1.0283,2.4574,9.2357,53.0812,1.0568,0.4318,1.1034,-137.746
16:45:11:737,0.2411,3.2094,7.6857,53.3355,1.124,0.483,1.3165,-137.9791
16:45:11:757,1.2305,3.478,6.8381,53.5151,1.1005,0.8333,1.2899,-138.2529
16:45:11:778,1.2544,3.5258,6.2752,53.7028,1.0206,0.663,1.0502,-138.5648
16:45:11:798,0.749,4.0002,6.1238,53.7756,0.6841,0.0165,0.6487,-138.9048
16:45:11:818,0.4977,3.7795,6.0903,53.9563,0.2048,-0.5703,0.2696,-139.2578
16:45:11:838,-0.1974,3.6574,6.4403,54.2381,-0.0944,-0.9154,0.0885,-139.61
16:45:11:859,-0.1035,3.4875,6.8716,54.2626,-0.169,-0.9559,0.227,-139.9549
16:45:11:879,0.5671,3.7268,7.1635,54.4497,-0.137,-0.8185,0.275,-140.2984
16:45:11:899,0.7226,4.2802,7.861,54.5537,-0.0901,-0.4064,0.162,-140.6419
16:45:11:919,0.1836,4.4674,8.1841,54.5612,0.1398,0.1932,0.0182,-140.9808
16:45:11:939,-0.3505,4.7833,7.9711,54.7062,0.4359,0.7481,-0.0403,-141.3103
16:45:11:960,-0.4654,5.1667,7.8078,54.6357,0.5702,1.0612,-0.0095,-141.6281
16:45:11:979,-0.9565,5.531,8.0907,54.5952,0.5126,0.9739,0.0257,-141.936
16:45:12:000,-1.0235,5.7679,8.2367,54.4728,0.372,0.4489,0.0395,-142.235
16:45:12:021,-0.8297,5.5525,8.342,54.6601,0.1686,-0.0634,0.0417,-142.5264
16:45:12:040,-0.8847,5.3773,9.2788,54.7109,-0.1061,-0.5181,-0.019,-142.81
16:45:12:060,-0.8393,5.406,10.2969,54.6032,-0.317,-0.6001,-0.0137,-143.0852
16:45:12:080,-0.451,5.5119,11.6243,54.5813,-0.3991,-0.4426,0.096,-143.3521
16:45:12:100,-0.0006,5.5382,12.5103,54.6528,-0.1402,-0.2956,0.1993,-143.6152
16:45:12:120,0.0736,5.3294,11.418,54.7529,0.4359,0.108,0.2835,-143.8791
16:45:12:140,-0.2213,5.2887,9.9446,54.9259,0.6831,0.6672,0.3611,-144.1477
16:45:12:160,-0.3075,4.6899,9.8728,55.0184,0.2815,0.7056,0.3867,-144.4238
16:45:12:181,0.548,4.2945,10.4883,54.8007,-0.2371,0.0623,0.3387,-144.7075
16:45:12:201,1.7647,4.0026,10.4883,54.7758,-0.3511,-0.679,0.1599,-144.9968
16:45:12:221,1.1539,4.4578,10.1988,54.8478,-0.2798,-0.729,-0.2033,-145.2839
16:45:12:246,-0.8536,4.1438,9.935,55.1673,-0.2414,-0.1944,-0.4205,-145.5547
16:45:12:262,-1.4405,3.5091,9.7149,55.1656,-0.2031,0.1399,-0.2289,-145.8011
16:45:12:285,-0.789,2.9557,9.2524,55.244,-0.1146,0.1154,0.0598,-146.0323
16:45:12:306,-0.3577,2.9055,8.4383,55.3064,-0.0028,-0.0027,0.1599,-146.2601
16:45:12:325,-0.1687,3.006,7.8634,55.4401,0.026,-0.0495,0.113,-146.4898
16:45:12:346,-0.274,3.0419,7.6546,55.6957,0.01,-0.0783,0.0182,-146.7188
16:45:12:362,-0.6114,3.1831,7.197,55.7592,0.1111,-0.0932,-0.0244,-146.9434
16:45:12:386,-0.3793,3.3153,6.6509,55.7116,0.2772,-0.025,0.079,-147.1613
16:45:12:407,0.0329,3.5569,6.2512,55.4758,0.3678,0.1698,0.1748,-147.3784
16:45:12:427,0.4038,3.6909,5.9898,55.6332,0.3422,0.3072,0.1951,-147.5978
16:45:12:446,0.524,3.7723,6.2148,55.6757,0.1814,0.1655,0.1312,-147.8197
16:45:12:466,0.5982,4.386,6.749,55.7621,0.0569,-0.1316,0.0268,-148.0407
16:45:12:486,0.1358,4.4554,7.7169,55.8968,0.0664,-0.1976,0.0278,-148.2574
16:45:12:508,-0.2979,4.6612,8.4335,55.9357,0.2975,-0.2221,0.1013,-148.47
16:45:12:527,0.0975,5.272,8.1218,55.8041,0.6202,-0.0964,0.259,-148.6814
16:45:12:546,0.4403,5.7033,7.5374,56.0309,0.7767,0.0506,0.3314,-148.8982
16:45:12:569,0.3751,5.8349,7.3795,56.1613,0.6979,0.239,0.2909,-149.1233
16:45:12:587,0.3272,6.0006,7.456,56.1825,0.4722,0.5011,0.2696,-149.3553
16:45:12:607,0.4522,6.4098,7.9017,56.24,0.1473,0.6193,0.2419,-149.5925
16:45:12:627,0.4977,6.92,9.0802,56.071,-0.1871,0.5032,0.1375,-149.8325
16:45:12:648,0.0066,6.731,10.1342,55.9086,-0.3533,0.2869,-0.0233,-150.0712
16:45:12:669,-1.0522,5.945,10.3902,56.0059,-0.2893,0.0953,-0.1426,-150.3021
16:45:12:688,-2.0417,5.3821,9.9254,56.2599,-0.1647,0.173,-0.068,-150.5214
16:45:12:708,-2.5089,4.7474,10.0289,56.2769,-0.251,0.3519,0.1045,-150.7336
16:45:12:728,-2.4945,4.0098,10.599,56.2417,-0.431,0.239,0.2324,-150.9461
16:45:12:746,-2.2768,3.3224,10.4788,56.1368,-0.4417,0.008,0.3473,-151.1641
16:45:12:769,-2.26,2.6847,10.1366,56.2617,-0.4289,0.1186,0.4421,-151.3931
16:45:12:787,-3.1244,2.4646,10.261,56.2323,-0.5555,0.419,0.4357,-151.6353
16:45:12:808,-3.8285,2.7111,10.3735,56.373,-0.6674,0.4702,0.4847,-151.8911
16:45:12:827,-3.6251,2.9342,10.1079,56.2558,-0.6652,0.2198,0.718,-152.1623
16:45:12:847,-2.3533,3.1759,9.3864,56.312,-0.5843,-0.057,0.9905,-152.4576
16:45:12:867,-1.3137,3.5043,8.6106,56.3158,-0.4747,-0.1039,1.1045,-152.7857
16:45:12:888,-0.7029,3.5713,8.0405,56.4183,-0.3873,0.0059,1.0651,-153.1494
16:45:12:907,-0.3984,3.8614,7.681,56.5413,-0.2904,0.0804,0.9873,-153.5445
16:45:12:927,-0.3529,3.9188,7.3795,56.3885,-0.1583,0.1336,0.915,-153.9673
16:45:12:948,-0.2692,4.1151,6.9051,56.402,0.0025,0.1932,0.8628,-154.4142
16:45:12:968,-0.0102,4.0983,6.3876,56.3149,0.11,0.3189,0.8724,-154.8815
16:45:12:988,0.2243,4.1509,5.9587,56.2725,0.0972,0.4308,0.865,-155.3694
16:45:13:008,0.3823,4.328,5.918,56.0717,-0.0443,0.4936,0.7979,-155.8773
16:45:13:028,-0.0915,4.2299,6.469,55.9199,-0.2531,0.5298,0.6881,-156.4011
16:45:13:048,-0.667,4.453,7.4584,55.8877,-0.3948,0.4883,0.6072,-156.9368
16:45:13:069,-1.014,4.3932,8.7278,55.8733,-0.4321,0.4137,0.5848,-157.4805
16:45:13:089,-1.1384,4.2778,9.7484,55.9014,-0.2947,0.2507,0.5624,-158.0307
16:45:13:109,-1.2323,4.3717,10.2491,55.8498,-0.0486,0.0549,0.5262,-158.5873
16:45:13:129,-0.8871,4.34,10.8503,55.9697,0.1547,-0.1252,0.5284,-159.1486
16:45:13:149,-0.7125,4.3424,11.4251,55.8682,0.3156,-0.2818,0.5252,-159.7146
16:45:13:169,-0.5228,4.2802,11.5089,55.7862,0.5276,-0.2956,0.5539,-160.2854
16:45:13:189,0.0329,4.2921,11.1404,55.642,0.7618,-0.2509,0.6061,-160.8618
16:45:13:210,0.9332,4.812,10.6229,55.5533,0.8853,-0.3467,0.5869,-161.4472
16:45:13:230,1.5087,5.4808,9.8704,55.3343,0.8438,-0.384,0.5049,-162.0411
16:45:13:250,1.3669,5.531,9.4223,55.3523,0.5073,0.0229,0.4335,-162.6403
16:45:13:270,0.4499,4.6493,11.1882,55.1801,-0.1626,0.4435,0.3304,-163.2404
16:45:13:291,0.0616,3.7651,12.8315,54.7895,-0.463,0.2177,0.2867,-163.8356
16:45:13:310,0.996,3.5665,12.1801,54.8595,-0.0646,-0.2029,0.4154,-164.4236
16:45:13:331,1.9992,3.6168,10.3256,55.0754,0.3529,-0.0921,0.5198,-165.0102
16:45:13:352,1.9274,3.6503,9.4391,55.0776,0.3145,0.3157,0.4069,-165.6006
16:45:13:372,0.9141,3.667,9.3769,55.0671,0.0654,0.4872,0.1951,-166.1903
16:45:13:392,0.0066,3.4158,9.1974,55.1101,-0.0869,0.3338,0.1013,-166.7704
16:45:13:412,0.119,3.4756,8.6847,54.9469,-0.0987,0.1112,0.1844,-167.3376
16:45:13:432,0.3631,3.4995,7.9783,55.1121,-0.0795,0.0336,0.2611,-167.8954
16:45:13:452,0.3655,3.195,7.8945,55.1764,-0.1349,0.0666,0.2409,-168.4468
16:45:13:473,0.2339,3.0873,8.0261,55.1471,-0.121,0.0517,0.1684,-168.9912
16:45:13:518,0.1956,3.3559,7.5757,54.9242,0.1111,-0.0208,0.1205,-169.5264
16:45:13:522,0.1238,3.5952,6.6532,54.7924,0.3848,0.0208,0.1397,-170.0518
16:45:13:533,0.2148,3.7268,5.8391,54.6173,0.4892,0.1154,0.2047,-170.5682
16:45:13:553,0.2865,3.8662,5.4221,54.5696,0.3592,0.2007,0.2846,-171.0797
16:45:13:573,0.2267,3.7436,6.0185,54.2955,0.0792,0.1889,0.3526,-171.589
16:45:13:594,0.2315,3.7436,6.3948,54.1611,-0.1083,0.0485,0.3973,-172.0971
16:45:13:615,0.2411,4.1198,6.131,53.9218,-0.2084,-0.1933,0.4325,-172.6061
16:45:13:634,-0.0389,4.4722,6.2489,53.3943,-0.4395,-0.4298,0.4378,-173.1172
16:45:13:654,0.1047,4.8455,7.3986,53.2056,-0.6599,-0.5277,0.4794,-173.6286
16:45:13:674,0.0712,4.9083,8.0524,53.2386,-0.5736,-0.3808,0.5614,-174.1408
16:45:13:694,-0.1155,4.9202,7.6283,53.0433,-0.366,-0.0069,0.6807,-174.6568
16:45:13:714,-0.3912,5.0638,8.1266,52.9945,-0.4427,0.3423,0.8128,-175.1813
16:45:13:734,-0.4487,4.8909,10.2562,53.111,-0.6003,0.4553,0.9607,-175.7203
16:45:13:754,0.3823,5.1045,11.3151,53.0916,-0.4385,0.3434,1.1034,-176.2775
16:45:13:774,1.2353,5.4736,11.3462,53.1059,-0.136,0.2859,1.0736,-176.8589
16:45:13:794,0.5503,5.5549,11.8349,53.2672,-0.0113,0.4041,0.9214,-177.4623
16:45:13:814,-0.3338,4.465,12.9057,53.3813,-0.0507,0.631,0.9639,-178.0813
16:45:13:835,-0.5803,3.1089,13.5284,53.2553,-0.0241,0.8439,1.1461,-178.7178
16:45:13:855,-0.813,2.0572,13.3035,53.2819,0.1302,0.9696,1.21,-179.3776
16:45:13:875,-0.7507,1.6044,12.5103,52.8025,0.3752,0.8482,1.1663,179.9375
16:45:13:895,-0.6981,1.5135,11.126,52.3637,0.5904,0.7896,1.1503,179.2282
16:45:13:915,-0.9565,1.5661,9.8728,52.2864,0.5616,0.9622,1.1482,178.496
16:45:13:936,-1.3184,2.117,9.1807,52.1138,0.2612,1.009,1.0758,177.7421
16:45:13:956,-1.7354,2.5603,8.8953,51.7632,-0.1509,0.7427,1.0268,176.9698
16:45:13:976,-1.3065,2.7811,8.994,51.6161,-0.4608,0.3114,1.0875,176.1824
16:45:13:996,-0.597,2.7595,9.1591,51.4218,-0.531,0.0772,1.1759,175.3801
16:45:14:016,-0.0293,2.9797,8.814,51.0628,-0.3479,0.0858,1.194,174.5591
16:45:14:037,0.143,3.1304,8.2223,50.9655,-0.1168,0.2667,1.1716,173.7198
16:45:14:056,0.3488,3.0754,7.5326,50.914,0.0494,0.3967,1.1642,172.8629
16:45:14:077,0.6556,3.2189,7.209,50.6726,0.1387,0.4276,1.129,171.9891
16:45:14:097,0.2889,3.1017,6.8309,50.5794,0.2037,0.4616,1.0268,171.1
16:45:14:117,0.0544,3.1902,6.4522,50.5971,0.2144,0.3913,0.9607,170.1996
16:45:14:137,-0.003,3.4277,6.7998,50.3494,0.1121,0.272,0.9363,169.2906
16:45:14:157,0.2626,3.5234,6.9577,50.3086,0.075,0.2443,0.9225,168.3737
16:45:14:177,0.1238,3.7507,7.0941,50.2033,0.1089,0.3189,0.8692,167.4497
16:45:14:198,-0.1208,4.2084,7.6164,50.2127,0.0951,0.4467,0.816,166.5215
16:45:14:218,0.3727,4.4076,8.2989,50.1957,0.0866,0.3945,0.8138,165.5913
16:45:14:238,0.7825,4.3352,8.8283,50.0658,0.1675,0.2667,0.7137,164.6579
16:45:14:259,0.5097,4.3932,9.1615,49.8129,0.2889,0.1495,0.5007,163.7258
16:45:14:278,-0.0532,4.4602,9.5378,49.7174,0.3571,0.0527,0.3792,162.8029
16:45:14:299,-0.195,4.5344,10.1127,49.7176,0.3795,-0.0314,0.4069,161.8922
16:45:14:319,-0.2668,4.453,10.7378,49.3211,0.3955,-0.0016,0.4847,160.9922
16:45:14:339,-0.3362,4.465,10.6517,49.2974,0.5041,-0.0272,0.5475,160.0995
16:45:14:360,0.4331,4.9896,10.2897,49.2589,0.5478,-0.1603,0.6221,159.2112
16:45:14:380,1.8317,5.9767,10.2371,48.8505,0.4604,-0.2402,0.637,158.3245
16:45:14:400,2.2439,6.5755,9.9805,48.8162,0.3965,-0.0037,0.5326,157.4379
16:45:14:420,1.2209,6.0915,9.8154,48.7031,0.1824,0.4137,0.3696,156.5552
16:45:14:440,-0.0772,5.0542,10.4477,48.4855,-0.284,0.3732,0.2185,155.6838
16:45:14:460,-0.1878,4.084,11.7799,48.337,-0.6226,-0.237,0.2079,154.832
16:45:14:480,0.8925,3.1878,11.945,48.3619,-0.3948,-0.7439,0.3451,154.0004
16:45:14:500,1.8437,2.8552,10.8168,48.2457,0.159,-0.3616,0.4581,153.1834
16:45:14:521,1.3932,2.7571,9.4511,48.1199,0.4636,0.5373,0.4154,152.3745
16:45:14:541,0.5001,2.4526,8.4933,48.1866,0.3241,0.9057,0.3218,151.5728
16:45:14:561,0.6365,2.5484,8.3539,47.9917,-0.0209,0.5234,0.2675,150.7826
16:45:14:581,1.0223,2.7978,8.3133,47.8955,-0.1935,0.1698,0.1844,150.0065
16:45:14:601,0.9452,2.9509,8.0716,47.6255,-0.1509,0.1932,0.0683,149.2483
16:45:14:622,0.5503,3.0251,7.7958,47.3991,-0.0667,0.3551,0.0182,148.5114
16:45:14:642,0.5145,3.0323,7.4273,47.2462,0.0132,0.3945,0.0694,147.7963
16:45:14:662,0.7729,3.0993,6.9793,46.9457,0.0823,0.3232,0.1226,147.1009
16:45:14:682,0.6867,3.1089,6.7107,46.7013,0.0834,0.2646,0.112,146.4225
16:45:14:702,0.6676,3.2865,6.7609,46.6547,0.0217,0.1889,0.0864,145.7606
16:45:14:722,1.0152,3.6766,7.0606,46.5273,-0.023,0.0889,0.0651,145.115
16:45:14:742,0.9912,3.6574,7.3316,46.4058,0.0196,0.0442,0.0161,144.4865
16:45:14:763,0.8279,3.8303,7.3047,46.643,0.1877,0.0889,-0.0648,143.8761
16:45:14:783,0.6365,4.3161,6.9362,46.6926,0.3912,0.2518,-0.1362,143.2853
16:45:14:803,0.4977,4.8263,6.7155,46.4838,0.4573,0.4126,-0.1501,142.7166
16:45:14:824,0.5862,5.284,6.9793,46.6288,0.3497,0.4009,-0.1256,142.1692
16:45:14:844,0.9212,5.6267,7.5517,46.4607,0.2218,0.2337,-0.1341,141.6414
16:45:14:863,0.5838,5.677,8.2247,46.3969,0.1068,0.1868,-0.1959,141.1342
16:45:14:883,0.0879,5.5167,9.0012,46.3769,-0.0443,0.3562,-0.1597,140.6485
16:45:14:904,-0.4199,5.5262,10.0098,46.3688,-0.1956,0.4521,-0.0222,140.1832
16:45:14:924,-0.317,5.4305,11.1643,46.2211,-0.3234,0.3754,0.21,139.7321
16:45:14:943,0.3894,5.3342,11.9617,45.9515,-0.3298,0.2166,0.3792,139.2861
16:45:14:964,0.6556,5.1188,12.1466,45.881,-0.185,0.1314,0.3016,138.839
16:45:14:984,-0.1807,4.4291,11.4084,45.7772,-0.0156,0.2177,0.0609,138.3937
16:45:15:005,-1.4572,3.9117,10.6301,45.7584,-0.0103,0.32,-0.132,137.9599
16:45:15:025,-2.214,3.2309,10.4716,45.5977,-0.1818,0.1794,-0.1597,137.5437
16:45:15:045,-1.7952,3.1041,10.8359,45.3747,-0.2222,-0.106,-0.0595,137.1466
16:45:15:065,-1.3448,2.7978,10.3041,45.1306,0.0855,-0.0762,0.063,136.7642
16:45:15:085,-1.2419,2.668,8.7661,44.9507,0.4423,0.3839,0.1354,136.3924
16:45:15:105,-1.9364,2.9581,7.8126,44.9051,0.3923,0.8226,0.113,136.0276
16:45:15:126,-3.0718,3.1878,7.5996,45.043,-0.0816,0.9217,0.1429,135.6706
16:45:15:146,-3.2201,2.939,8.0213,44.9954,-0.759,0.6065,0.36,135.3186
16:45:15:166,-2.4395,2.5436,9.3458,44.9142,-1.3458,0.0399,0.604,134.962
16:45:15:186,-1.1767,2.4742,10.1629,44.8434,-1.4385,-0.4703,0.7521,134.5911
16:45:15:206,-0.2955,2.613,9.6981,45.008,-1.0114,-0.6246,0.784,134.2012
16:45:15:227,0.1765,2.9916,8.747,45.2178,-0.4534,-0.4778,0.7329,133.7938
16:45:15:246,0.4594,3.4923,7.9639,45.3616,0.0047,-0.0889,0.6988,133.3719
16:45:15:267,0.536,3.8495,7.008,45.6568,0.3507,0.2955,0.6423,132.9369
16:45:15:287,0.5527,4.1246,6.3517,45.6629,0.4881,0.4712,0.572,132.4908
16:45:15:307,0.411,4.4028,6.0425,45.5873,0.453,0.4606,0.4975,132.0361
16:45:15:327,0.1501,4.6636,5.9444,45.6617,0.2943,0.3232,0.4176,131.5757
16:45:15:347,-0.2429,4.8503,6.2608,45.6508,-0.0039,0.1336,0.376,131.1126
16:45:15:374,-0.2979,4.4363,7.5517,45.5279,-0.3948,-0.0144,0.4495,130.6473
16:45:15:388,-0.1519,3.7675,8.9414,45.2137,-0.6599,-0.1198,0.5156,130.1776
16:45:15:408,-0.0317,3.2644,10.5894,45.1624,-0.7228,-0.2157,0.4762,129.7033
16:45:15:428,-0.1807,2.7182,11.8636,44.8568,-0.5342,-0.2881,0.3569,129.226
16:45:15:448,-0.2572,2.8313,12.1968,44.8278,-0.1029,-0.416,0.2387,128.7504
16:45:15:468,-0.1011,3.0514,11.5232,44.8314,0.3774,-0.3585,0.2398,128.2826
16:45:15:488,0.3607,3.4708,10.7665,44.7179,0.633,-0.0996,0.2782,127.8204
16:45:15:536,0.8471,4.2826,10.1749,44.7532,0.6767,-0.1337,0.2036,127.3616
16:45:15:540,1.925,5.2457,9.7651,44.756,0.6831,-0.4586,0.1109,126.909
16:45:15:549,2.936,6.0365,9.1831,45.0096,0.7053,-0.6278,0.0502,126.4643
16:45:15:569,3.1615,5.5956,8.6871,45.0578,0.4541,-0.27,0.0193,126.0288
16:45:15:593,2.3109,4.1366,9.8776,45.0415,-0.2425,0.2433,-0.116,125.6034
16:45:15:609,0.8758,2.5866,12.1394,45.0493,-0.9177,0.2923,-0.396,125.1955
16:45:15:629,-0.2931,1.5494,13.8975,45.2366,-0.972,-0.0783,-0.5622,124.818
16:45:15:655,-0.4367,1.3699,13.7127,45.4267,-0.3714,-0.3957,-0.477,124.4767
16:45:15:674,-0.3697,1.6092,11.921,45.5173,0.3646,-0.1305,-0.2736,124.1666
16:45:15:694,-0.2907,1.928,10.017,45.6009,0.766,0.4329,-0.0808,123.8779
16:45:15:714,0.0377,2.3091,8.5699,45.5394,0.8278,0.5767,0.0385,123.6012
16:45:15:735,0.749,3.0586,7.3531,45.4525,0.749,0.4009,0.0832,123.3315
16:45:15:755,1.5613,3.801,6.4786,45.5899,0.6053,0.223,0.0651,123.0664
16:45:15:773,2.0979,3.9308,5.8917,45.5605,0.4114,0.1517,0.0172,122.8061
16:45:15:793,2.3085,3.7771,5.8798,45.375,0.1398,0.174,-0.0691,122.5531
16:45:15:817,1.9944,3.274,6.4546,45.4528,-0.1711,0.1751,-0.2076,122.3102
16:45:15:834,1.1827,2.7835,7.5326,45.4822,-0.4417,0.1176,-0.3726,122.0826
16:45:15:855,0.1789,2.3904,8.668,45.4002,-0.5971,0.0463,-0.5409,121.8773
16:45:15:875,-0.5683,2.412,9.6766,45.4266,-0.5342,-0.0953,-0.609,121.7006
16:45:15:896,-0.7531,2.656,9.8943,45.5771,-0.1615,-0.3318,-0.5078,121.5543
16:45:15:916,-0.0939,3.3559,9.1639,45.6756,0.4083,-0.2999,-0.2969,121.4327
16:45:15:935,0.5503,4.3113,8.0548,45.8108,0.9525,0.074,-0.1607,121.3276
16:45:15:956,0.6676,4.8939,6.9888,45.8103,1.3326,0.337,-0.1011,121.2325
16:45:15:977,1.0056,5.3605,6.2124,46.017,1.5201,0.4201,-0.0052,121.2325
16:45:15:997,0.9817,5.8229,6.0329,46.1986,1.4445,0.5117,0.1194,121.2325
16:45:16:017,0.3583,5.9378,6.682,46.3921,1.0536,0.5075,0.2462,121.1378
16:45:16:036,0.2818,5.3868,8.0285,46.2835,0.3955,0.3626,0.3272,121.036
16:45:16:058,-0.1424,4.4195,9.7986,46.3525,-0.2606,0.0538,0.1535,120.9247
16:45:16:076,-0.679,4.1151,11.2768,46.3077,-0.6461,-0.4224,-0.1884,120.8103
16:45:16:098,-0.6622,4.9657,12.0263,46.3461,-0.6003,-0.8323,-0.4248,120.7072
16:45:16:119,-0.801,5.8421,11.3797,46.2525,-0.1509,-0.7269,-0.5494,120.7072
16:45:16:138,-1.9651,5.5669,9.8752,46.1488,0.2996,0.0581,-0.5313,120.7072
16:45:16:160,-2.4371,5.3414,8.7589,46.1522,0.4317,0.6576,-0.3268,120.7072
16:45:16:177,-1.8239,4.9035,7.7121,46.1038,0.3699,0.419,-0.0212,120.7072
16:45:16:198,-0.2764,4.7067,6.8931,46.5027,0.2282,-0.0506,0.2558,120.7072
16:45:16:217,0.7729,4.3448,6.5695,46.6548,-0.0433,-0.0996,0.3419,120.7072
16:45:16:237,0.2626,3.8423,6.9482,46.7995,-0.4917,0.3328,0.1802,120.7072
16:45:16:257,-1.9627,3.1615,7.9472,46.8395,-1.1754,0.7864,-0.0723,120.7072
16:45:16:275,-3.9392,2.388,10.2921,46.902,-1.9869,0.5351,-0.1245,120.7072
16:45:16:299,-3.8261,1.9232,11.9785,47.0793,-2.299,-0.5884,0.1471,120.7072
16:45:16:316,-2.0225,2.2277,10.9699,46.995,-1.8303,-1.401,0.5699,120.7072
16:45:16:337,-0.652,2.3904,9.5785,46.8688,-1.154,-1.1859,0.7893,120.7072
16:45:16:356,0.186,2.6704,9.1448,46.6113,-0.5523,-0.2455,0.7989,120.6037
16:45:16:376,0.5791,3.1543,8.68,46.6126,0.0803,0.566,0.719,120.4761
16:45:16:398,1.0582,3.8782,7.4656,46.5608,0.6852,0.7161,0.6466,120.3273
16:45:16:418,1.6834,4.1653,5.7601,46.2884,0.994,0.6619,0.6519,120.1595
16:45:16:438,2.2582,4.6516,4.9119,46.499,0.7277,0.6779,0.5795,119.9723
16:45:16:456,2.0429,4.4076,5.7021,46.4343,-0.0241,0.5565,0.3366,119.7683
16:45:16:477,0.9476,3.9188,7.6307,46.2442,-0.7803,0.1591,-0.0212,119.5573
16:45:16:497,-0.8249,3.0969,9.7603,46.4171,-1.1764,-0.155,-0.3236,119.354
16:45:16:517,-2.3246,2.6776,11.2074,46.5017,-1.1265,-0.3616,-0.3715,119.1687
16:45:16:537,-2.135,2.6177,11.744,46.2284,-0.8037,-0.6353,-0.1288,119.0041
16:45:16:557,-0.7627,2.7763,11.7894,46.1607,-0.3362,-0.6481,0.129,118.8509
16:45:16:582,0.2267,3.3727,11.8923,46.4043,0.3081,-0.3435,0.1695,118.6997
16:45:16:597,0.8183,4.0624,10.4118,46.3228,1.173,0.0165,0.1344,118.5502
16:45:16:617,1.0463,4.812,8.318,46.4131,1.7502,0.4872,0.1844,118.4009
16:45:16:637,1.185,5.2648,7.2042,46.7333,1.5925,0.8652,0.2846,118.2489
16:45:16:658,1.6092,5.2457,8.1769,46.7435,0.7873,0.7491,0.2707,118.09
16:45:16:678,1.4919,4.6229,10.1605,46.8982,-0.1338,0.1336,0.0065,117.9255
16:45:16:699,0.2315,3.5569,11.744,47.2859,-0.809,-0.3553,-0.3992,117.7681
16:45:16:719,-1.5912,2.6082,13.5978,47.5484,-1.218,-0.6843,-0.7039,117.6324
16:45:16:739,-1.9938,2.0524,14.4796,47.7496,-1.0285,-1.0305,-0.6005,117.5295
16:45:16:759,-0.5898,2.4574,13.1474,47.7764,-0.185,-0.9719,-0.2204,117.5295
16:45:16:779,1.0678,3.2333,10.6947,47.6237,0.7085,-0.2232,0.1045,117.5295
16:45:16:799,2.117,4.3496,8.5962,47.766,1.1165,0.6992,0.162,117.5295
16:45:16:820,1.5757,4.8718,7.5398,47.9463,1.0121,1.107,-0.0244,117.5295
16:45:16:840,0.5503,4.6947,7.0822,47.9701,0.5947,0.8951,-0.1778,117.5295
16:45:16:860,-0.1663,3.9332,7.2018,48.0245,-0.0092,0.304,-0.1597,117.5295
16:45:16:880,-0.0772,2.8672,8.342,48.0102,-0.6109,-0.1827,-0.0276,117.5295
16:45:16:901,0.3727,1.9519,9.7603,48.1589,-0.8655,-0.3318,0.03,117.5295
16:45:16:920,0.5599,1.413,10.3783,48.0632,-0.5481,-0.3851,-0.0968,117.5295
16:45:16:941,0.3511,1.6092,9.2572,48.2912,0.1643,-0.4596,-0.298,117.5295
16:45:16:960,0.0377,1.9807,7.3603,48.1939,0.7533,-0.3371,-0.3864,117.5295
16:45:16:982,-0.1232,2.9318,6.1143,48.0296,0.9397,0.0197,-0.3758,117.5295
16:45:17:001,0.0305,3.612,5.2164,48.1898,0.8193,0.2923,-0.2417,117.5295
16:45:17:021,0.6604,3.9667,5.214,48.066,0.4892,0.2017,-0.0595,117.5295
16:45:17:041,1.2927,3.8447,5.7458,48.0604,0.2122,-0.0644,0.0225,117.5295
16:45:17:062,1.7049,4.2491,5.9468,47.9465,0.159,-0.1028,-0.0126,117.5295
16:45:17:082,1.0056,4.3065,6.3565,48.2498,0.0718,0.0953,-0.1075,117.5295
16:45:17:103,0.6269,4.1342,7.3412,48.1582,-0.1498,0.1943,-0.1149,117.5295
16:45:17:122,0.4086,3.4708,8.5555,48.2076,-0.4129,0.2806,-0.067,117.5295
16:45:17:142,-0.0556,2.9749,10.4285,48.3469,-0.6695,0.3796,-0.1362,117.5295
16:45:17:162,-0.5444,2.747,11.8421,48.156,-0.6588,0.2166,-0.2778,117.5295
16:45:17:183,-0.2357,3.4158,11.8373,48.1585,-0.2766,0.0048,-0.3672,117.5295
16:45:17:203,0.3679,5.0471,11.4538,48.1595,0.1473,0.2092,-0.4823,117.6209
16:45:17:223,-0.0341,5.452,10.6445,48.1369,0.469,0.6779,-0.6229,117.7339
16:45:17:244,-0.6861,5.1882,9.2453,48.0355,0.5691,1.041,-0.6442,117.8724
16:45:17:263,-1.2873,4.7258,8.9797,48.2169,0.1899,0.7108,-0.6602,118.0345
16:45:17:284,-1.1097,3.7723,9.7962,48.1825,-0.3788,-0.2775,-0.6463,118.2189
16:45:17:304,-0.8345,3.667,10.6134,48.0111,-0.6333,-0.9122,-0.5867,118.4228
16:45:17:325,-2.1159,2.9246,10.6828,47.871,-0.5694,-0.6545,-0.5196,118.6424
16:45:17:344,-3.1101,2.5029,11.2193,47.7755,-0.6876,-0.0304,-0.3246,118.8758
16:45:17:366,-3.5605,2.3617,12.5557,47.7779,-1.0029,-0.0336,-0.0979,119.1149
16:45:17:384,-3.1364,3.0371,12.9057,47.7871,-0.9475,-0.778,0.0609,119.3497
16:45:17:404,-2.3821,3.9212,10.934,47.7639,-0.4214,-1.3478,0.1972,119.5768
16:45:17:425,-1.9675,3.2524,8.5531,47.5953,0.0345,-1.2317,0.4016,119.7905
16:45:17:444,-1.4022,2.68,7.2712,47.6048,0.0004,-0.581,0.5582,119.9843
16:45:17:467,-0.4965,3.3607,8.074,47.6318,-0.2883,-0.2647,0.604,120.1535
16:45:17:485,0.5599,3.6383,8.2582,47.728,-0.1818,-0.3233,0.6498,120.2971
16:45:17:505,1.3525,3.3081,7.2999,47.7385,0.1803,-0.2668,0.6381,120.4142
16:45:17:565,1.6857,3.2716,6.7059,47.3097,0.2985,-0.106,0.4762,120.5057
16:45:17:568,1.3143,3.0443,6.9769,47.0929,0.1696,-0.0186,0.2643,120.5057
16:45:17:569,0.8471,2.5507,7.5494,46.9338,0.0696,-0.0613,0.1226,120.5057
16:45:17:586,0.67,2.4072,7.9424,46.6699,0.0526,-0.1241,0.0236,120.5057
16:45:17:606,0.277,1.9065,8.1649,46.4544,-0.0134,-0.1816,-0.0872,120.5057
16:45:17:626,-0.1496,1.4608,8.8546,46.3207,-0.2052,-0.2551,-0.2257,120.5057
16:45:17:647,-0.6622,1.4967,10.1175,46.224,-0.3256,-0.4362,-0.4162,120.5057
16:45:17:666,-1.1145,2.0812,11.0489,46.1358,-0.137,-0.6033,-0.5899,120.6119
16:45:17:688,-1.4142,2.7063,10.8431,46.1514,0.3379,-0.6321,-0.6634,120.7401
16:45:17:707,-1.4237,3.4445,9.8249,46.0987,0.8672,-0.367,-0.5803,120.8908
16:45:17:727,-0.6718,4.3741,8.8522,46.0412,1.2156,0.0474,-0.3097,121.0587
16:45:17:753,0.0855,4.8694,8.1864,46.2485,1.2699,0.3903,-0.0542,121.2308
16:45:17:777,1.3478,5.7823,8.2989,46.4375,0.9908,0.4915,0.063,121.3974
16:45:17:787,2.4185,6.271,8.9916,46.4534,0.4754,0.288,0.0353,121.5548
16:45:17:809,2.2128,4.9992,9.4104,46.5691,-0.1136,0.1538,-0.1245,121.7058
16:45:17:828,1.2927,3.3727,10.867,46.6205,-0.8048,0.1378,-0.413,121.8575
16:45:17:849,-0.0748,2.2104,13.0899,46.7083,-1.2606,0.0591,-0.7667,122.023
16:45:17:870,-1.261,1.7821,14.266,46.9501,-1.0381,-0.2104,-0.9519,122.2158
16:45:17:889,-2.123,1.8802,13.3729,47.1317,-0.2947,-0.3872,-0.8317,122.4423
16:45:17:909,-2.4251,1.861,11.0806,47.0801,0.4242,-0.0282,-0.4407,122.6954
16:45:17:928,-2.056,2.1218,9.0084,46.9903,0.7149,0.4787,0.0534,122.959
16:45:17:949,-0.7196,2.7374,7.9974,47.2723,0.5712,0.5682,0.4921,123.2138
16:45:17:970,0.9523,3.3607,7.3986,47.3549,0.3433,0.1751,0.7563,123.4436
16:45:17:995,2.7852,3.5641,6.4666,47.3918,0.2367,-0.2072,0.8767,123.639
16:45:18:009,4.1169,3.8853,5.671,47.6245,0.1047,-0.221,0.7584,123.7969
16:45:18:030,4.1192,3.7029,5.604,47.7223,-0.1881,0.0591,0.3355,123.9225
16:45:18:051,2.8211,3.2812,6.5169,47.7967,-0.53,0.2742,-0.1991,124.0331
16:45:18:071,1.1492,2.8026,7.5254,47.6374,-0.7089,0.222,-0.543,124.1496
16:45:18:093,0.0497,1.8682,8.0955,47.6866,-0.6887,0.0975,-0.6133,124.2851
16:45:18:110,-0.4989,1.5111,8.5555,47.6337,-0.5971,0.0357,-0.5728,124.441
16:45:18:130,-0.9972,1.2502,9.1328,47.614,-0.496,-0.024,-0.5068,124.6153
16:45:18:152,-1.136,1.4034,9.4947,47.7472,-0.2361,-0.0826,-0.3885,124.8051
16:45:18:172,-0.3984,2.5914,8.9725,47.7386,0.2559,-0.0208,-0.2214,125.0064
16:45:18:195,0.7537,3.9763,7.5422,47.7465,0.8257,0.1122,-0.0659,125.2116
16:45:18:211,1.6427,5.1308,6.3494,47.7032,1.1517,0.223,-0.019,125.4145
16:45:18:232,2.0764,6.058,6.1286,48.1674,1.1442,0.3988,-0.0361,125.6118
16:45:18:252,1.4435,6.4696,6.8285,48.3655,0.8236,0.7225,-0.0361,125.8038
16:45:18:272,0.2459,6.7143,8.9366,48.3262,0.1846,0.7981,0.0119,125.991
16:45:18:298,-0.5922,5.5741,11.059,48.6561,-0.3799,0.4467,0.1024,126.1713
16:45:18:314,-1.5003,3.9667,11.5932,48.8172,-0.5758,-0.3148,0.0161,126.3416
16:45:18:334,-2.6477,3.1687,12.0742,48.8831,-0.7941,-1.2647,-0.3214,126.5053
16:45:18:354,-2.0536,3.7507,13.8186,48.9776,-0.9518,-1.7301,-0.379,126.6757
16:45:18:374,-1.206,3.3368,14.3097,49.132,-0.283,-1.0763,-0.1447,126.8549
16:45:18:397,-1.922,3.6957,12.6927,49.0159,0.9077,0.4819,-0.0489,127.0353
16:45:18:413,-2.4299,4.8742,10.9866,49.1152,1.5915,1.5479,0.1088,127.2125
16:45:18:434,-2.123,4.4818,8.9749,49.1219,1.633,1.6257,0.5571,127.3806
16:45:18:455,-0.3147,3.9667,7.5541,48.9226,1.2369,1.1411,1.0161,127.5237
16:45:18:474,1.5302,3.7029,7.4369,48.9992,0.5702,0.4116,1.047,127.6259
16:45:18:497,1.8508,3.3248,7.861,49.1226,-0.0081,-0.0996,0.6583,127.6259
16:45:18:514,0.5456,2.6536,7.8467,49.3364,-0.3565,-0.0474,0.2057,127.6259
16:45:18:533,-1.4189,2.6177,8.3731,49.3122,-0.7036,0.3466,-0.0606,127.6259
16:45:18:561,-2.8636,2.0716,8.8522,49.4548,-0.9635,0.5703,0.0694,127.6259
16:45:18:573,-2.7194,1.5996,8.6345,49.5459,-1.0306,0.4265,0.4879,127.6259
16:45:18:599,-1.3232,1.6403,7.9735,49.376,-1.0253,0.1186,0.8564,127.6259
16:45:18:615,-0.3434,1.2981,7.6307,49.4603,-1.0359,-0.0932,0.9873,127.6259
16:45:18:634,0.4857,0.8859,7.3173,49.5744,-0.9742,-0.0708,0.9959,127.6259
16:45:18:655,1.0869,1.118,7.1228,49.5653,-0.8485,0.125,0.8533,127.5217
16:45:18:675,0.9888,1.6546,7.2999,49.5533,-0.6929,0.2987,0.5316,127.3892
16:45:18:699,0.2195,1.8873,7.2808,49.4692,-0.4992,0.4638,0.1546,127.2417
16:45:18:714,-0.6473,2.2493,7.0415,49.4668,-0.4044,0.5437,-0.0904,127.0929
16:45:18:735,-1.0905,2.3856,7.4249,49.3918,-0.5864,0.4691,-0.1117,126.9516
16:45:18:756,-0.8991,2.278,8.613,49.5667,-0.8676,0.1932,-0.067,126.8169
16:45:18:776,-0.5372,2.0524,9.7484,49.6807,-0.9358,-0.0485,-0.1138,126.6868
16:45:18:798,-0.518,2.254,10.4142,49.844,-0.7483,-0.0708,-0.2523,126.5616
16:45:18:816,-0.7388,2.601,10.6708,50.0051,-0.4214,0.0399,-0.3662,126.4467
16:45:18:836,-1.0451,3.0849,10.4836,49.9076,-0.071,0.2284,-0.3747,126.3481
16:45:18:856,-1.4477,3.2548,10.0576,50.0338,0.1441,0.2795,-0.33,126.3481
16:45:18:876,-1.584,3.2357,10.2323,50.3195,0.0728,0.1367,-0.2758,126.3481
16:45:18:900,-1.6774,3.274,11.059,50.7782,-0.1296,-0.1145,-0.2545,126.3481
16:45:18:917,-1.4285,3.454,11.744,50.9652,-0.1498,-0.4245,-0.2523,126.3481
16:45:18:937,-0.722,3.9308,11.5878,51.1683,0.1387,-0.5628,-0.214,126.3481
16:45:18:962,-0.5898,3.9212,10.4931,51.0512,0.4743,-0.1571,-0.1117,126.3481
16:45:18:977,-1.2562,3.3559,9.9733,51.2757,0.3497,0.5873,0.03,126.3481
16:45:18:997,-1.7737,2.3785,10.7067,51.4932,-0.2371,0.8642,0.1631,126.3481
16:45:19:017,-1.5625,1.6068,12.0622,51.4854,-0.7462,0.2305,0.2025,126.3481
16:45:19:038,-0.7149,1.1372,12.2064,51.4272,-0.6226,-0.5841,0.1929,126.3481
16:45:19:062,-0.0556,1.3125,10.4405,51.3509,-0.0965,-0.4948,0.2526,126.3481
16:45:19:078,0.1932,1.4895,9.2548,51.4102,0.0887,0.3104,0.3377,126.3481
16:45:19:099,-0.1807,1.2191,9.1519,51.6074,-0.1913,0.9291,0.3261,126.3481
16:45:19:120,-0.5109,0.8596,9.9254,51.6956,-0.6301,0.7214,0.1993,126.2567
16:45:19:139,-0.5898,0.5934,10.9053,51.74,-0.873,0.0921,0.0374,126.1591
16:45:19:165,-0.6042,0.6227,11.1739,51.7862,-0.6802,-0.2636,-0.0893,126.0604
16:45:19:179,-0.6933,1.118,10.2945,51.91,-0.1626,-0.1688,-0.149,125.966
16:45:19:199,-1.0546,1.7055,9.2118,51.9496,0.2868,0.1751,-0.1266,125.966
16:45:19:219,-1.407,2.0429,8.2582,51.8947,0.5041,0.3967,-0.0126,125.966
16:45:19:239,-1.2873,2.2128,7.7169,52.1324,0.5233,0.2965,0.1567,125.966
16:45:19:263,-0.7795,2.2301,7.5517,52.327,0.47,0.0261,0.2899,125.966
16:45:19:280,-0.3625,2.2899,7.1755,52.3885,0.4935,-0.1294,0.3537,125.8755
16:45:19:300,-0.1926,2.4814,6.9482,52.2648,0.4743,-0.0421,0.3782,125.7777
16:45:19:321,-0.2572,2.5364,7.1874,52.2815,0.3337,0.1229,0.3824,125.6706
16:45:19:341,-0.3099,2.5388,7.8802,52.2585,0.1643,0.222,0.3771,125.5532
16:45:19:366,-0.3817,2.7015,8.3492,52.5223,0.0601,0.2145,0.3611,125.4255
16:45:19:380,-0.2931,2.9486,9.1089,52.7779,-0.0188,0.108,0.3208,125.2882
16:45:19:401,-0.1831,2.7906,10.4381,52.7109,-0.0688,0.0261,0.2185,125.1433
16:45:19:421,-0.5946,2.668,11.3198,52.6885,0.0579,0.0325,0.0566,124.9938
16:45:19:441,-1.3137,2.9653,10.8814,52.7369,0.2517,0.1517,-0.0372,124.8467
16:45:19:464,-2.0776,3.32,10.8311,53.1066,0.2016,0.3328,0.0065,124.7071
16:45:19:482,-2.3892,3.2913,11.2816,53.2861,0.0068,0.5181,0.1684,124.572
16:45:19:503,-2.2816,2.8863,11.5831,53.4376,-0.1722,0.5288,0.3462,124.4336
16:45:19:522,-2.8349,2.3402,12.0646,53.3573,-0.3852,0.2784,0.3133,124.2848
16:45:19:581,-3.7256,1.3077,12.079,53.3501,-0.48,-0.1497,0.2281,124.1265
16:45:19:588,-3.7208,0.5312,12.0144,53.488,-0.4651,-0.6406,0.3016,123.9628
16:45:19:589,-3.2441,0.2345,11.6028,53.2571,-0.3426,-0.8686,0.4538,123.7919
16:45:19:603,-3.0814,0.2321,10.4333,53.3732,-0.0699,-0.6832,0.5411,123.6101
16:45:19:622,-2.6477,0.7831,9.262,53.1281,0.1057,-0.3936,0.6509,123.4159
16:45:19:643,-1.6798,1.3484,8.4718,53.1845,0.0664,-0.2434,0.8138,123.2054
16:45:19:663,-0.5946,1.7892,8.0979,53.2727,-0.0838,-0.2583,0.8809,122.9731
16:45:19:683,0.1047,2.1003,7.9615,53.1905,-0.2212,-0.2839,0.7989,122.7165
16:45:19:703,0.3105,2.2875,8.1434,53.021,-0.283,-0.2466,0.6498,122.438
16:45:19:723,0.1741,2.2804,8.5962,53.0395,-0.1999,-0.1784,0.5241,122.1425
16:45:19:743,-0.2429,2.141,8.4072,53.2466,0.0206,-0.0581,0.473,121.8361
16:45:19:766,-0.25,2.2612,8.1745,53.1309,0.208,0.0762,0.4953,121.5216
16:45:19:784,-0.3123,2.4957,8.2511,53.1682,0.2751,0.1975,0.5379,121.1981
16:45:19:804,-0.6622,2.3426,8.3563,53.1397,0.2719,0.3519,0.6168,120.8667
16:45:19:825,-0.5539,2.3258,8.4766,53.0932,0.2453,0.1996,0.6722,120.5221
16:45:19:845,-0.2046,2.1984,8.074,53.1781,0.274,-0.1316,0.6008,120.1637
16:45:19:866,0.658,2.9629,8.0572,53.1468,0.3284,-0.2466,0.4293,119.7945
16:45:19:885,1.0582,3.7795,8.2582,52.9657,0.3944,-0.1177,0.2015,119.4216
16:45:19:905,1.0941,4.273,8.2846,52.7913,0.4647,-0.0719,-0.0617,119.0515
16:45:19:925,0.5958,4.4483,8.5747,52.7979,0.4104,-0.2221,-0.3023,118.6943
16:45:19:946,0.1573,4.398,9.0203,52.8819,0.2389,-0.3244,-0.4152,118.3571
16:45:19:967,-0.2309,4.072,9.856,52.9942,-0.0497,-0.335,-0.4173,118.0433
16:45:19:985,-0.9565,3.3248,11.0638,52.9954,-0.3192,-0.2317,-0.3683,117.7521
16:45:20:006,-1.3376,2.6656,11.9306,53.0919,-0.3937,-0.1209,-0.247,117.4815
16:45:20:025,-1.1192,2.455,12.3476,53.2702,-0.2979,0.1101,-0.1447,117.2282
16:45:20:046,-1.1121,2.1075,12.9894,53.4427,-0.2233,0.3999,-0.1117,116.9876
16:45:20:067,-0.9398,1.4249,14.4126,53.5814,-0.202,0.2284,-0.0808,116.7585
16:45:20:086,0.3942,1.3938,14.348,53.9,0.2208,-0.4927,-0.0606,116.5405
16:45:20:108,1.59,1.7797,12.3906,54.0449,0.9855,-0.9197,-0.1959,116.3344
16:45:20:133,1.9274,2.6177,9.813,53.7639,1.4935,-0.6385,-0.3683,116.1446
16:45:20:148,1.7743,3.4014,8.1218,53.7068,1.4306,-0.0272,-0.4248,115.9752
16:45:20:167,1.2042,3.6,7.8778,53.8399,1.0089,0.6481,-0.4141,115.8265
16:45:20:188,0.2052,3.1783,8.1003,54.0869,0.5606,0.6768,-0.247,115.6971
16:45:20:207,0.0425,2.5842,7.8538,54.1892,0.2474,0.1389,-0.0084,115.5809
16:45:20:233,0.8207,2.5053,7.7216,54.3474,-0.023,-0.3627,0.0204,115.4688
16:45:20:248,1.1324,2.6895,7.8682,54.3755,-0.2393,-0.319,-0.0957,115.3593
16:45:20:269,0.792,2.2445,8.2199,54.304,-0.2489,0.1357,-0.2246,115.2566
16:45:20:289,0.4403,2.184,9.0156,54.7085,-0.0518,0.4073,-0.3832,115.1656
16:45:20:309,0.1573,1.928,8.4407,55.0219,0.3422,0.1399,-0.5632,115.1656
16:45:20:333,-0.1083,2.1314,7.5039,55.064,0.6426,-0.4469,-0.7624,115.1656
16:45:20:349,-0.451,2.4359,7.0223,55.3376,0.6373,-0.7855,-0.82,115.1656
16:45:20:368,0.0018,3.4684,6.7681,55.4104,0.6692,-0.8334,-0.6602,115.1656
16:45:20:389,0.2148,3.938,6.5504,55.5543,0.8172,-0.4458,-0.4738,115.1656
16:45:20:410,0.5527,4.1079,6.1502,55.7205,0.9514,0.1485,-0.2905,115.1656
16:45:20:434,0.5886,4.1366,5.9468,56.0048,0.9471,0.5639,-0.1575,115.1656
16:45:20:450,-0.0796,4.2132,6.5695,56.1754,0.6319,0.647,-0.1575,115.1656
16:45:20:470,-0.475,3.8614,7.8078,56.1402,0.1419,0.2358,-0.0893,115.1656
16:45:20:492,-0.3769,3.5282,9.9039,56.5491,-0.2989,-0.5044,0.0097,115.1656
16:45:20:511,0.1884,3.8686,11.2385,56.3549,-0.5832,-1.1592,-0.1192,115.1656
16:45:20:534,0.2124,4.6158,12.1825,56.5524,-0.6812,-1.1859,-0.363,115.1656
16:45:20:551,-0.6473,4.9609,12.5462,56.6473,-0.4523,-0.728,-0.5526,115.2642
16:45:20:575,-1.6965,4.6947,11.6076,56.5957,0.0494,-0.1124,-0.5249,115.3813
16:45:20:592,-1.855,4.4483,10.3663,56.569,0.4104,0.6055,-0.2799,115.5157
16:45:20:611,-1.2682,4.4483,10.072,56.46,0.453,0.9547,-0.0883,115.6575
16:45:20:634,-1.3878,4.3376,8.8379,56.4198,0.4434,0.6193,-0.0648,115.7988
16:45:20:651,-1.3639,4.3041,7.8491,56.3938,0.2762,0.3818,0.0523,115.9392
16:45:20:672,-1.8861,3.9811,8.0548,56.4707,-0.0848,0.6885,0.21,116.0732
16:45:20:694,-2.5902,3.7531,8.9653,56.5186,-0.5704,1.0282,0.2931,116.1942
16:45:20:715,-2.6166,2.8505,10.5559,56.6124,-1.053,0.7182,0.3622,116.2985
16:45:20:735,-2.3127,2.3091,11.8493,56.6522,-1.251,-0.1699,0.3377,116.2985
16:45:20:755,-2.2355,2.6608,10.8718,56.747,-1.0019,-1.1795,0.2952,116.2985
16:45:20:775,-0.9972,3.3224,10.3065,56.9765,-0.6216,-1.221,0.5358,116.2985
16:45:20:793,0.2746,3.8177,9.1567,56.8184,0.0015,-0.2743,0.7542,116.2985
16:45:20:814,0.6604,3.521,7.815,56.9458,0.6607,0.6832,0.6924,116.2985
16:45:20:836,0.804,4.2156,6.2387,56.8199,1.0888,1.025,0.571,116.2985
16:45:20:854,1.2353,4.4889,4.6074,56.8806,1.2443,0.9121,0.6061,116.2985
16:45:20:874,1.2042,5.1284,4.0373,56.8359,0.9748,0.7683,0.6466,116.2985
16:45:20:894,0.7729,4.4052,4.8066,56.7523,0.4061,0.8162,0.5529,116.2985
16:45:20:915,0.871,4.0792,6.3757,56.684,-0.17,0.3679,0.3803,116.1936
16:45:20:934,0.8758,4.4674,7.5924,56.633,-0.612,-0.8558,-0.0393,116.076
16:45:20:954,0.1023,3.9212,7.9831,56.627,-0.8953,-1.6833,-0.4301,115.9609
16:45:20:974,-0.082,4.1486,9.2572,56.5261,-1.0402,-1.8877,-0.5142,115.8639
16:45:20:994,-0.7316,4.3932,9.2261,56.6009,-0.9529,-1.8675,-0.5281,115.8639
16:45:21:015,-0.6233,4.2491,9.1807,56.4108,-0.7345,-1.0028,-0.3587,115.8639
16:45:21:035,0.8136,4.3113,10.6732,56.269,-0.5269,-0.0091,-0.0361,115.8639
16:45:21:055,1.0558,3.4181,11.272,56.4099,-0.1541,-0.1348,-0.215,115.8639
16:45:21:074,-0.3984,3.9691,10.0026,56.3666,0.2421,-0.6981,-0.707,115.8639
16:45:21:094,-1.5529,3.7484,9.0323,56.1917,0.0483,-0.8238,-0.6932,115.8639
16:45:21:115,-0.3817,4.733,10.9029,56.0725,-0.6588,-1.1752,-0.3374,115.8639
16:45:21:135,1.1372,4.3376,12.9416,56.0689,-1.0391,-1.4373,-0.1437,115.8639
16:45:21:156,2.2869,3.1304,13.9214,55.8888,-0.8367,-0.5106,-0.2225,115.8639
16:45:21:176,2.3611,2.8313,13.4471,56.0518,-0.2403,0.6971,-0.4802,115.8639
16:45:21:202,1.386,2.6225,11.598,56.0623,0.4189,0.9153,-0.5877,115.8639
16:45:21:215,0.536,2.2152,10.4118,55.7951,0.8033,0.7555,-0.4226,115.9676
16:45:21:239,-0.789,1.94,9.1304,55.788,0.9407,0.7278,-0.1,116.0833
16:45:21:256,0.7537,1.9376,8.8164,55.8776,0.6746,0.7651,0.4399,116.1985
16:45:21:276,2.4855,2.0955,8.7685,55.7225,0.2282,0.8365,0.5752,116.2945
16:45:21:297,1.6451,2.1266,8.5531,55.6351,0.0547,0.845,-0.0244,116.2945
16:45:21:317,0.7035,2.4072,8.1338,55.7134,0.0812,0.8461,-0.5132,116.2945
16:45:21:337,-0.408,2.0668,8.2439,55.5882,0.1441,0.8216,-0.6655,116.3921
16:45:21:357,-0.597,2.2301,7.9711,55.4958,0.3901,1.302,-0.5292,116.5129
16:45:21:377,-0.53,2.5914,7.4178,55.5877,0.7746,1.533,-0.2097,116.6519
16:45:21:402,0.0544,3.1591,6.2172,55.7251,0.8129,0.8812,-0.0851,116.7979
16:45:21:417,0.1669,3.4229,5.415,55.8114,0.4573,0.4595,-0.1362,116.9471
16:45:21:445,0.3799,3.5091,5.2738,55.9621,0.0185,0.0719,-0.2087,117.0984
16:45:21:458,-0.3434,3.3009,5.9109,56.028,-0.2851,0.3551,-0.4056,117.252
16:45:21:478,-0.6957,4.2586,7.3675,55.9874,-0.5216,0.8216,-0.3097,117.4144
16:45:21:501,-1.4381,3.0347,7.3047,55.9255,-0.4875,1.1092,-0.1437,117.5798
16:45:21:519,-0.2046,4.5679,8.5244,56.0692,-0.5109,0.4063,-0.1192,117.7434
16:45:21:538,0.265,4.3884,8.8929,55.906,-0.2947,-1.1827,-0.4322,117.9029
16:45:21:560,-0.4678,4.1222,7.9232,55.8119,-0.0965,-1.023,-0.7688,118.0712
16:45:21:601,-1.4118,4.4841,7.4656,55.8028,-0.4864,-0.5895,-0.8178,118.2622
16:45:21:602,-1.7737,3.5761,9.1424,55.701,-0.9252,-1.0411,-0.6751,118.474
16:45:21:619,-1.7402,2.8576,10.0193,55.4746,-1.0402,-0.9016,-0.5238,118.6987
16:45:21:641,-0.082,3.4971,10.6828,55.2105,-1.2723,-0.0091,-0.3385,118.931
16:45:21:661,-0.8441,3.8973,12.1322,55.043,-1.2265,0.5767,-0.3577,119.1644
16:45:21:680,-2.7529,3.5091,13.011,54.894,-0.5491,0.7204,-0.4823,119.3989
16:45:21:704,-4.4901,1.9184,13.1521,54.9584,0.0196,0.7449,-0.2651,119.6406
16:45:21:721,-2.6046,2.062,12.4026,54.6387,0.2868,0.4126,0.0854,119.8847
16:45:21:740,-2.1948,1.8108,12.594,54.3326,0.4626,-0.0858,-0.0297,120.1208
16:45:21:761,-1.2299,0.0957,11.351,54.3319,0.3955,-0.0495,-0.3055,120.3548
16:45:21:781,-1.9986,0.8883,10.7115,54.3546,0.1068,0.1421,-0.5824,120.5973
16:45:21:805,-4.0923,0.9601,10.4142,54.3048,-0.2585,0.2284,-0.7007,120.8565
16:45:21:821,-3.1795,1.5685,10.7521,54.4037,-0.4076,-0.0037,-0.3193,121.133
16:45:21:841,-2.6692,1.8849,10.9699,54.1559,-0.4033,-0.2935,-0.0403,121.4097
16:45:21:861,-2.921,1.8347,9.8728,53.7592,-0.2957,-0.3393,0.0683,121.6777
16:45:21:881,-2.2792,2.6106,8.7876,53.737,-0.1913,-0.3222,0.3451,121.9338
16:45:21:904,-0.7795,3.4756,8.1745,53.6742,-0.1828,-0.6608,0.5923,122.1668
16:45:21:922,0.3488,2.2636,7.8126,53.4567,-0.381,-0.647,0.6871,122.3692
16:45:21:942,1.8676,2.7159,8.0907,53.2118,-0.4534,-0.2285,0.669,122.5378
16:45:21:963,1.1061,2.6847,8.2965,53.1044,-0.2329,0.2795,0.424,122.6752
16:45:21:982,0.0185,3.7149,7.0056,52.9151,0.1409,0.4489,0.2164,122.7921
16:45:22:004,-0.4439,3.4875,5.9252,53.0176,0.1281,0.073,0.0119,122.8968
16:45:22:023,-0.2907,2.1936,5.8534,52.9595,-0.3298,-0.1827,-0.0702,122.9965
16:45:22:043,-0.2333,2.1123,7.0176,52.7108,-0.6067,0.0581,-0.0563,123.0926
16:45:22:063,-1.5147,2.1721,7.0487,52.698,-0.4853,0.2774,-0.2182,123.1836
16:45:22:084,-2.7362,0.5288,6.2536,52.4645,-0.3373,0.2348,-0.3534,123.276
16:45:22:105,-2.5161,1.9902,8.4072,52.3305,-0.5598,0.3519,-0.3204,123.3737
16:45:22:124,-1.1001,2.4574,9.4008,52.1639,-0.7228,0.4126,-0.2619,123.4761
16:45:22:144,-1.2706,1.6403,10.0217,51.9788,-0.365,-0.2551,-0.4194,123.579
16:45:22:165,-2.4921,1.9974,10.6636,51.6469,-0.0049,-0.4181,-0.6463,123.6897
16:45:22:184,-3.0335,2.9629,11.3103,51.6698,0.1579,-0.449,-0.5494,123.8182
16:45:22:204,-2.2887,3.2644,10.8072,51.6694,0.3177,-0.286,-0.2257,123.9596
16:45:22:224,-2.2116,2.735,11.0345,51.4998,0.1174,0.4041,0.0342,124.1043
16:45:22:244,-1.5864,2.5819,13.2365,51.4871,-0.2883,0.1122,0.1109,124.2418
16:45:22:265,0.1597,2.7254,13.8544,51.2902,-0.1892,-0.8537,-0.0414,124.3671
16:45:22:285,-0.3577,2.8193,12.5868,51.2852,0.1302,-0.6118,-0.3715,124.4884
16:45:22:305,-1.9053,1.8299,12.9081,51.2868,0.0823,-0.171,-0.5153,124.6193
16:45:22:325,-2.1805,0.9482,13.5236,51.2966,-0.0784,-0.1838,-0.3353,124.7635
16:45:22:345,-0.7795,0.2632,13.0014,51.1246,-0.0092,-0.2818,-0.0489,124.9139
16:45:22:365,0.0257,0.3278,11.5161,51.1355,0.1707,-0.6481,-0.1011,125.0611
16:45:22:385,0.8686,-0.3739,10.005,50.9404,0.2304,-0.7152,-0.2895,125.2084
16:45:22:406,0.1956,0.941,9.0562,50.8331,0.1505,-0.2786,-0.4844,125.3626
16:45:22:426,-0.6042,0.7639,8.4957,50.8837,0.1217,0.5596,-0.4141,125.5289
16:45:22:447,-0.3314,0.4786,7.8993,50.6539,0.1164,0.8152,-0.1394,125.7044
16:45:22:467,-0.463,0.9458,6.8572,50.5114,-0.121,0.4893,-0.1352,125.8795
16:45:22:486,-0.9661,1.1157,6.414,50.4773,-0.5438,0.3466,-0.2332,126.0533
16:45:22:506,-0.6646,0.3924,7.6475,50.4888,-1.1361,-0.024,-0.23,126.2265
16:45:22:527,0.2387,0.3541,8.0261,50.2799,-1.5269,-0.6395,-0.2778,126.3966
16:45:22:548,0.4259,0.1914,8.0955,50.307,-1.5088,-0.8387,-0.5324,126.5652
16:45:22:573,0.0209,-0.3978,8.6345,50.1684,-1.2318,-0.8984,-0.6304,126.7415
16:45:22:588,-0.0532,0.1005,8.8977,50.1544,-0.7931,-0.7003,-0.5899,126.9303
16:45:22:607,-0.4391,0.3278,8.8834,50.2242,-0.2915,-0.1795,-0.4503,127.1313
16:45:22:628,0.0018,0.2656,8.4861,49.9508,0.1654,0.1538,-0.0712,127.3379
16:45:22:648,0.7083,0.7591,7.5757,49.8424,0.5116,0.2944,0.1546,127.5398
16:45:22:672,0.6963,1.5326,8.479,49.8748,0.994,0.8652,0.079,127.7308
16:45:22:688,-0.2237,1.861,7.8634,49.9943,0.9588,0.7459,0.0449,127.915
16:45:22:708,-0.0461,1.6283,7.861,50.0569,0.4871,-0.1017,-0.067,128.0933
16:45:22:730,-0.3099,1.727,8.9845,50.0785,-0.1541,-0.2967,-0.1959,128.2684
16:45:22:749,-1.7498,1.7438,9.9206,49.8983,-0.58,-0.2551,-0.4429,128.443
16:45:22:772,-2.8564,1.2311,10.9388,50.0358,-0.7707,-0.5543,-0.5664,128.6237
16:45:22:789,-2.2044,0.603,11.9282,50.2668,-0.7047,-0.924,-0.2161,128.8127
16:45:22:809,-1.7809,0.1412,12.2901,50.3085,-0.283,-0.7738,0.2569,128.9985
16:45:22:830,-0.4917,-0.283,11.921,49.9437,0.0983,-0.3585,0.5582,129.1666
16:45:22:849,0.4235,-0.1298,12.0838,49.8407,0.0409,-0.0048,0.6679,129.3077
16:45:22:874,-0.1807,-0.3643,12.4816,49.7069,-0.0752,-0.1188,0.3909,129.421
16:45:22:890,-1.0235,-0.2207,12.2806,49.8906,-0.0252,-0.2274,0.1141,129.5164
16:45:22:910,-0.8082,-0.6736,7.0678,49.6814,0.1302,0.0346,0.1759,129.5164
16:45:22:930,1.2616,-1.0857,11.945,49.5065,-0.4768,-0.4703,0.3526,129.5164
16:45:22:950,-1.2538,-1.7587,10.2419,49.4088,-0.579,-0.7098,0.1269,129.5164
16:45:22:974,-3.0096,-3.0066,10.3256,49.1584,-0.5321,-0.6108,-0.1053,129.5164
16:45:22:991,-2.2935,-2.4628,10.7928,49.0668,-0.6865,-0.4788,0.1652,129.5164
16:45:23:011,-0.9685,-1.6175,10.3137,48.896,-0.5353,-0.2583,0.4889,129.5164
16:45:23:032,0.1549,-0.7621,9.533,48.738,-0.3405,-0.1806,0.5806,129.5164
16:45:23:050,0.0449,-0.216,9.1663,48.422,-0.2936,-0.367,0.4357,129.5164
16:45:23:073,0.3009,-0.0532,9.2261,48.483,-0.2798,-0.4607,0.3739,129.5164
16:45:23:092,0.3392,0.0664,9.1687,48.4062,-0.2116,-0.3435,0.3728,129.5164
16:45:23:112,0.1047,0.2058,9.0299,48.2104,-0.1178,-0.2061,0.3334,129.5164
16:45:23:133,0.1693,-0.0389,8.0907,48.1149,-0.0156,-0.0783,0.3569,129.5164
16:45:23:154,0.4929,0.6395,8.1434,48.3698,-0.0465,0.1048,0.4538,129.5164
16:45:23:176,0.6843,0.3015,7.5733,48.219,0.0089,0.0921,0.2941,129.4245
16:45:23:193,0.4905,0.2991,7.3843,48.0651,-0.0294,0.1826,0.1525,129.3219
16:45:23:214,0.7992,0.0861,7.7384,48.1317,-0.0145,0.1399,0.276,129.2141
16:45:23:233,1.8939,0.3565,8.5005,48.1151,0.0142,-0.0186,0.2909,129.0968
16:45:23:254,1.3549,0.2465,9.2955,48.1239,-0.0614,-0.1113,-0.247,128.9705
16:45:23:274,0.1167,0.0885,10.0457,48.2184,-0.0348,-0.2146,-0.5569,128.8541
16:45:23:294,-0.6957,-0.0508,10.2419,48.0609,0.2463,-0.2924,-0.3577,128.7578
16:45:23:314,-0.2931,-0.1107,10.0026,47.9724,0.4551,-0.2445,-0.0212,128.7578
16:45:23:335,0.4158,0.1388,10.6421,47.7665,0.3411,-0.1475,0.0577,128.7578
16:45:23:354,-0.1352,0.2871,11.2385,47.8595,0.2857,-0.0889,-0.1703,128.6635
16:45:23:376,-0.5013,0.0401,11.4467,47.739,0.4977,-0.0591,-0.2438,128.6635
16:45:23:394,-0.2333,0.2273,11.8612,47.5883,0.6692,0.0399,-0.0968,128.6635
16:45:23:414,0.4786,1.2168,12.2447,47.5957,0.6947,0.1655,0.0587,128.6635
16:45:23:434,0.1621,0.2489,11.6459,47.7231,0.7202,0.2188,0.1333,128.5688
16:45:23:454,0.4738,-1.5936,10.7952,47.8722,0.4359,0.2944,0.2355,128.4678
16:45:23:476,1.8485,-1.8209,10.6421,47.7937,-0.2542,0.386,0.194,128.3598
16:45:23:495,1.9346,-0.3045,11.6004,48.0613,-0.809,0.3636,-0.2694,128.248
16:45:23:514,-0.3338,0.2249,11.8899,47.9677,-0.8122,0.1751,-0.7837,128.1496
16:45:23:535,-1.7306,0.3589,11.5615,47.9166,-0.4172,-0.0431,-0.6133,128.1496
16:45:23:558,-1.0977,0.0957,10.721,48.1495,0.0089,-0.0836,0.0385,128.1496
16:45:23:576,-0.1155,-0.2183,9.801,48.1626,0.1995,0.0485,0.4794,128.1496
16:45:23:595,0.5336,-0.542,8.994,47.9122,0.1579,0.1889,0.5603,128.1496
16:45:23:660,0.6437,-0.7741,8.4526,47.9012,0.0047,0.2646,0.4453,128.0579
16:45:23:662,0.5264,-0.7789,8.1171,47.8122,-0.2073,0.2869,0.2995,127.9535
16:45:23:665,0.7561,-0.4869,8.0692,47.7641,-0.4097,0.2699,0.1897,127.8417
16:45:23:676,0.804,0.0861,8.0644,47.7818,-0.4662,0.1996,0.0385,127.7251
16:45:23:696,0.4211,0.4666,8.0142,47.7737,-0.2936,0.0868,-0.1394,127.6087
16:45:23:717,0.0185,0.4379,7.9902,47.5231,-0.0198,0.0229,-0.2055,127.4972
16:45:23:744,-0.2261,0.335,7.8921,47.4537,0.1728,0.0676,-0.1245,127.3933
16:45:23:757,-0.4175,0.1436,7.7264,47.5173,0.257,0.1911,0.0342,127.293
16:45:23:777,-0.3338,0.0281,7.8078,47.5043,0.2676,0.3583,0.2185,127.1916
16:45:23:797,0.1119,0.2871,8.1266,47.6233,0.2453,0.517,0.3345,127.0829
16:45:23:816,0.4618,0.7519,8.455,47.6495,0.2964,0.5458,0.3282,126.9635
16:45:23:842,0.1573,0.8477,8.8738,47.4753,0.4051,0.4627,0.259,126.8344
16:45:23:857,0.0209,0.9817,9.5593,47.476,0.4583,0.353,0.2771,126.6975
16:45:23:878,0.2841,0.9529,9.8082,47.6342,0.4956,0.2007,0.3515,126.5532
16:45:23:898,-0.1328,0.2201,9.6263,47.5865,0.4977,0.0644,0.2941,126.399
16:45:23:918,-0.5037,-0.204,10.1581,47.6111,0.3177,0.0357,0.2345,126.2378
16:45:23:941,-0.3338,-0.1633,11.1906,47.618,0.0292,0.0229,0.2505,126.0721
16:45:23:959,-0.0221,-0.1418,11.7535,47.5654,-0.1221,-0.1529,0.2537,125.8993
16:45:23:979,-0.5587,-0.4678,11.7248,47.4892,-0.1466,-0.3808,0.1354,125.7208
16:45:24:000,-1.3424,-0.6951,11.5232,47.4529,-0.2031,-0.4714,0.0193,125.5419
16:45:24:020,-0.9135,-0.2112,11.8828,47.3991,-0.2755,-0.4533,0.0427,125.3651
16:45:24:043,-0.6646,-0.1848,11.7535,47.2088,-0.2478,-0.4703,0.0779,125.1899
16:45:24:060,-1.2921,-0.6401,11.272,47.2315,-0.1924,-0.4469,-0.0052,125.0147
16:45:24:080,-1.9029,-1.0522,10.7833,47.2364,-0.1999,-0.2881,-0.0052,124.8418
16:45:24:101,-2.0919,-1.4471,10.2156,47.1353,-0.2457,-0.0293,0.1599,124.6716
16:45:24:120,-2.0441,-1.5165,10.0505,47.1312,-0.3096,0.2561,0.3686,124.4991
16:45:24:142,-2.2959,-1.6343,9.6263,47.1694,-0.3383,0.4744,0.5145,124.3181
16:45:24:161,-1.9795,-1.7994,9.2716,47.2366,-0.2883,0.5245,0.7062,124.1229
16:45:24:180,-0.8393,-1.3131,9.0802,47.2723,-0.2425,0.4446,0.8341,123.9074
16:45:24:201,-0.1472,-0.8171,8.6058,47.2653,-0.2084,0.2561,0.7521,123.6677
16:45:24:221,0.3153,-0.3811,8.1147,47.1125,-0.1913,0.0091,0.571,123.4071
16:45:24:243,0.0162,-0.1705,7.7073,47.0712,-0.219,-0.1923,0.3664,123.1332
16:45:24:261,-0.2764,-0.082,7.3747,46.9911,-0.3117,-0.2487,0.2984,122.853
16:45:24:281,0.2052,0.1819,7.2449,46.8106,-0.4672,-0.1699,0.359,122.5691
16:45:24:302,0.7202,0.6634,7.1324,46.7244,-0.5672,-0.0762,0.3334,122.2785
16:45:24:322,0.6508,0.9051,7.0678,46.796,-0.4939,-0.0719,0.194,121.9825
16:45:24:342,0.2363,0.9242,7.2233,46.5887,-0.3213,-0.0975,0.0928,121.6865
16:45:24:362,0.0664,0.7496,7.2975,46.5242,-0.1807,-0.0485,0.1152,121.3932
16:45:24:382,0.119,0.6179,7.6714,46.4135,-0.136,0.1027,0.1375,121.1019
16:45:24:403,0.2291,0.6275,8.455,46.4433,-0.1807,0.2933,0.0811,120.812
16:45:24:422,0.186,0.5097,9.1161,46.4759,-0.2265,0.4265,-0.018,120.526
16:45:24:443,-0.0317,0.1914,10.0935,46.4891,-0.2553,0.4904,-0.1032,120.2481
16:45:24:462,-0.3649,-0.1394,11.2217,46.3466,-0.2904,0.533,-0.1884,119.9793
16:45:24:484,-0.8824,-0.7023,12.0742,46.2174,-0.2457,0.5288,-0.2767,119.7226
16:45:24:503,-1.273,-1.1575,12.7932,46.4106,-0.1391,0.4766,-0.2842,119.48
16:45:24:524,-0.8776,-0.8746,13.1474,46.54,-0.0294,0.37,-0.2065,119.2531
16:45:24:544,-0.6233,-0.6951,13.1282,46.638,0.1664,0.1357,-0.166,119.0387
16:45:24:565,-0.8441,-0.9033,13.1234,46.5295,0.3731,-0.1081,-0.215,118.8351
16:45:24:584,-1.1192,-1.4782,12.9703,46.3457,0.404,-0.2029,-0.2012,118.6445
16:45:24:605,-0.542,-1.6367,12.6951,46.5162,0.2421,-0.204,-0.0936,118.466
16:45:24:624,-0.3314,-1.3035,12.4935,46.7221,0.0632,-0.1965,-0.1575,118.2962
16:45:24:644,-0.99,-1.6989,11.9665,46.8216,0.0505,-0.2562,-0.282,118.1371
16:45:24:665,-0.8201,-2.2905,11.3103,46.7177,0.1004,-0.367,-0.1554,117.992
16:45:24:685,-0.4343,-2.4293,10.7163,46.6759,0.0302,-0.4138,-0.0318,117.8563
16:45:24:710,-0.5635,-2.4939,10.34,46.7713,-0.1157,-0.3883,-0.083,117.7257
16:45:24:725,-0.5276,-2.3097,10.1438,46.8194,-0.2574,-0.3318,-0.1202,117.6017
16:45:24:745,-0.4439,-1.9549,9.8393,47.0693,-0.3181,-0.2924,-0.1213,117.4866
16:45:24:765,-0.5157,-1.5188,9.4875,47.0181,-0.2638,-0.2423,-0.149,117.3785
16:45:24:785,-0.5779,-1.1862,9.1089,46.9498,-0.1381,-0.1337,-0.1628,117.2785
16:45:24:811,-0.475,-0.7789,8.6656,46.9643,0.0057,0.0538,-0.1277,117.1865
16:45:24:825,-0.4917,-0.5133,8.1841,46.926,0.1601,0.2774,-0.0744,117.1865
16:45:24:846,-0.3123,-0.1753,7.7527,47.0139,0.3294,0.4542,0.0385,117.1865
16:45:24:867,-0.3075,-0.0628,7.468,46.8771,0.4892,0.5746,0.1482,117.1865
16:45:24:887,-0.1615,0.0425,7.4082,46.8441,0.5872,0.6736,0.2153,117.0945
16:45:24:913,0.1119,0.0401,7.1515,46.6199,0.6405,0.6885,0.2824,116.9982
16:45:24:927,0.265,0.0066,7.0534,46.5688,0.6309,0.6193,0.2984,116.8955
16:45:24:947,0.3703,-0.0628,7.2903,46.4999,0.4945,0.5309,0.2569,116.7863
16:45:24:967,0.6245,0.1268,7.7336,46.5025,0.2634,0.418,0.1514,116.6735
16:45:24:987,0.2411,0.4379,8.3611,46.684,0.0951,0.2294,-0.035,116.5606
16:45:25:014,-0.5157,0.4116,8.9605,46.6183,0.0473,0.0357,-0.1565,116.4511
16:45:25:028,-1.3759,-0.1298,9.7388,46.7503,-0.0007,-0.073,-0.0936,116.3492
16:45:25:047,-0.7771,-0.3715,10.4668,46.597,-0.1178,-0.1124,0.1237,116.252
16:45:25:068,-0.341,-0.5396,11.0393,46.6801,-0.1828,-0.2072,0.1919,116.1515
16:45:25:088,-0.5874,-0.8483,11.8229,46.4434,-0.1924,-0.3627,0.0555,116.0461
16:45:25:112,-1.4046,-0.877,12.5868,46.5184,-0.2616,-0.4447,-0.0893,115.941
16:45:25:129,-2.7769,-1.3633,12.5605,46.473,-0.2766,-0.4405,-0.0904,115.841
16:45:25:148,-2.945,-2.0554,12.2853,46.3482,-0.2116,-0.3574,0.1482,115.746
16:45:25:169,-1.9077,-1.8018,12.0933,46.2567,-0.1828,-0.2604,0.3537,115.6474
16:45:25:189,-1.1097,-1.2461,11.8445,46.0832,-0.039,-0.3616,0.2771,115.5388
16:45:25:210,-1.1432,-1.1743,11.6865,46.2041,0.2474,-0.6001,0.0704,115.4234
16:45:25:229,-1.7928,-1.4925,11.2744,46.0508,0.4168,-0.6619,-0.0467,115.3092
16:45:25:249,-1.7976,-1.4566,10.8431,46.2468,0.3603,-0.416,0.0406,115.2002
16:45:25:270,-1.6367,-1.2437,10.2467,46.1073,0.1952,-0.0123,0.2121,115.0936
16:45:25:290,-1.3926,-0.987,9.6407,46.1572,0.0206,0.3711,0.3718,114.9834
16:45:25:314,-0.5922,-0.4941,9.1161,45.9826,-0.1338,0.6619,0.4921,114.8635
16:45:25:330,-0.4822,-0.0604,8.6584,46.0072,-0.1807,0.8088,0.4634,114.7294
16:45:25:352,-0.4845,0.0329,8.1577,46.1455,-0.1061,0.8226,0.4186,114.5821
16:45:25:370,-0.3458,-0.1346,7.7169,46.2776,-0.0049,0.7736,0.4282,114.4242
16:45:25:391,0.0568,-0.0389,7.547,46.3061,0.0686,0.6523,0.3707,114.254
16:45:25:412,-0.1831,0.1866,7.322,46.2742,0.192,0.418,0.1983,114.0761
16:45:25:431,-0.655,0.2082,7.1037,46.3284,0.3507,0.1581,0.0502,113.897
16:45:25:451,-0.4965,0.5695,6.795,46.4483,0.4296,-0.0826,0.063,113.7217
16:45:25:470,-0.5803,0.8309,6.8836,46.4559,0.3965,-0.2913,0.0161,113.55
16:45:25:492,-0.518,1.008,7.276,46.3327,0.3145,-0.4224,-0.035,113.3838
16:45:25:513,-0.4104,1.0032,7.5087,46.2453,0.208,-0.5437,-0.0148,113.2234
16:45:25:533,-0.2166,1.0965,7.7504,46.0284,0.0142,-0.5607,-0.035,113.0683
16:45:25:552,-0.3051,1.1713,8.9438,46.0862,-0.3043,-0.4213,-0.1224,112.9179
16:45:25:581,-0.451,1.255,9.4947,46.0609,-0.4619,-0.3169,-0.2619,112.7735
16:45:25:594,-1.34,1.0032,10.7019,45.6839,-0.5608,-0.1198,-0.4056,112.6396
16:45:25:614,-2.0608,0.6514,11.8445,45.6142,-0.5502,0.0783,-0.3534,112.5211
16:45:25:633,-2.0824,0.0377,12.7669,45.4843,-0.4587,0.2987,-0.1202,112.4148
16:45:25:694,-1.7013,-0.3021,13.4686,45.5109,-0.3181,0.4872,0.0236,112.3131
16:45:25:697,-1.3591,-0.4313,13.684,45.5544,-0.1498,0.5373,0.0651,112.2113
16:45:25:699,-1.5075,-0.9033,13.4207,45.402,0.0292,0.5064,0.0928,112.1088
16:45:25:714,-1.3017,-0.9823,13.3418,45.41,0.1366,0.4904,0.1237,112.0055
16:45:25:733,-0.99,-0.5109,12.8794,45.535,0.225,0.4638,0.0523,111.9013
16:45:25:753,-0.7364,-0.4552,12.0598,45.7145,0.4445,0.3104,-0.0254,111.7992
16:45:25:774,-0.5611,-0.6377,11.5137,45.8744,0.6394,0.1154,-0.0617,111.7029
16:45:25:793,-0.3721,-0.8243,10.5847,46.0739,0.7,-0.0453,-0.0574,111.7029
16:45:25:814,-0.1011,-1.1121,9.8871,46.026,0.5638,-0.1774,-0.0372,111.7029
16:45:25:834,0.2554,-0.9488,9.6431,46.0479,0.2794,-0.2764,-0.0617,111.7029
16:45:25:854,0.1143,-1.0618,9.2237,46.1851,0.0089,-0.3734,-0.1799,111.7029
16:45:25:880,-0.0485,-0.8961,8.951,46.2121,-0.1786,-0.4639,-0.3108,111.7029
16:45:25:894,-0.1639,-0.6999,8.6273,46.1659,-0.2648,-0.5501,-0.3577,111.7029
16:45:25:917,-0.1448,-0.5659,8.2128,46.2813,-0.2531,-0.6204,-0.3459,111.7029
16:45:25:935,-0.1615,-0.5037,7.8293,46.2887,-0.2009,-0.6321,-0.3406,111.7029
16:45:25:955,0.0185,-0.3332,7.6403,46.4149,-0.1455,-0.582,-0.3193,111.7029
16:45:25:980,0.4062,0.1125,7.6953,46.3678,-0.0582,-0.516,-0.3055,111.7029
16:45:25:995,0.3224,0.2249,7.8945,46.2886,0.0771,-0.4501,-0.33,111.7029
16:45:26:015,0.3129,0.1771,7.9424,46.2292,0.1963,-0.3712,-0.2863,111.7029
16:45:26:036,0.3368,0.1244,8.1434,46.3051,0.2495,-0.2604,-0.214,111.7029
16:45:26:056,0.2578,0.0736,8.4359,46.1571,0.2421,-0.1007,-0.1756,111.7029
16:45:26:079,-0.2381,0.2225,8.9175,45.9069,0.1941,0.0985,-0.1778,111.7029
16:45:26:096,-1.081,0.122,9.5498,45.9408,0.1835,0.2571,-0.1107,111.7029
16:45:26:116,-1.1025,0.0257,10.273,45.8743,0.2122,0.3573,0.0385,111.7029
16:45:26:137,-0.9733,-0.1992,10.3089,46.0396,0.2485,0.37,0.0875,111.7029
16:45:26:157,-0.8082,-0.5898,10.4692,46.1051,0.2698,0.2646,0.0662,111.7029
16:45:26:180,-0.4487,-0.2686,11.1643,46.3953,0.2186,0.1261,0.0459,111.7029
16:45:26:197,-1.1216,-0.2279,11.61,46.5639,0.1739,0.0602,-0.0382,111.7029
16:45:26:217,-2.2283,-0.6233,11.5161,46.8054,0.1302,0.141,-0.0585,111.7029
16:45:26:237,-2.1685,-0.7693,10.9819,46.8374,0.0855,0.2401,0.1738,111.7029
16:45:26:257,-1.0953,-0.7884,10.7234,46.8951,0.076,0.2475,0.4112,111.7029
16:45:26:283,-0.2524,-0.5683,10.6277,47.0157,0.0451,0.1623,0.36,111.7029
16:45:26:297,-0.5348,-0.4169,10.4166,46.9512,0.01,0.0325,0.1013,111.7029
16:45:26:321,-1.069,-0.4169,10.0505,47.1289,0.027,-0.0708,-0.0116,111.7029
16:45:26:338,-1.4979,-0.7621,9.6957,46.8885,0.0292,-0.0581,0.0811,111.7029
16:45:26:358,-1.7234,-1.1049,9.3266,46.884,-0.104,0.0932,0.2302,111.7029
16:45:26:382,-1.4955,-1.203,9.3362,46.7631,-0.3351,0.2518,0.376,111.7029
16:45:26:399,-0.7675,-0.865,9.2692,47.0167,-0.5587,0.2987,0.4772,111.7029
16:45:26:419,-0.2931,-0.4528,8.9868,46.9488,-0.613,0.174,0.4389,111.7029
16:45:26:439,-0.1663,-0.2088,8.4933,46.8168,-0.4662,-0.0826,0.3016,111.7029
16:45:26:460,-0.1902,-0.003,8.1745,46.9289,-0.2798,-0.319,0.177,111.7029
16:45:26:482,-0.1974,0.3159,8.0333,47.0357,-0.1658,-0.433,0.1109,111.7029
16:45:26:500,-0.2668,0.6658,8.0931,47.2652,-0.0912,-0.416,0.0854,111.7029
16:45:26:520,-0.25,0.8357,7.9591,47.1531,-0.0103,-0.2977,0.0992,111.7029
16:45:26:541,-0.2596,0.9314,7.9017,47.3524,0.0739,-0.1486,0.1184,111.7029
16:45:26:560,-0.1831,0.8883,7.9376,47.1747,0.1313,-0.0133,0.1503,111.7029
16:45:26:581,-0.1448,0.8644,8.141,47.2018,0.1377,0.0921,0.1674,111.7029
16:45:26:601,-0.0054,0.8213,8.4718,47.3454,0.1324,0.1314,0.1578,111.6086
16:45:26:620,0.0951,0.6562,8.8666,47.4415,0.1558,0.1272,0.0704,111.5122
16:45:26:641,0.0592,0.6969,9.5713,47.3667,0.1292,0.0911,-0.0499,111.4163
16:45:26:661,-0.0724,0.524,10.1151,47.3746,0.0494,0.0229,-0.1288,111.4163
16:45:26:681,-0.3386,0.4187,10.5918,47.6305,0.0025,-0.057,-0.198,111.4163
16:45:26:701,-0.6257,0.2441,11.0082,47.5255,0.0302,-0.1497,-0.2449,111.4163
16:45:26:722,-0.6981,0.1149,11.394,47.7117,0.0462,-0.2274,-0.2289,111.4163
16:45:26:743,-0.585,0.064,11.5759,47.814,0.0345,-0.3031,-0.231,111.4163
16:45:26:762,-0.4343,0.0592,11.8828,48.0013,0.0686,-0.4405,-0.2884,111.4163
16:45:26:783,-0.1759,-0.0628,11.866,48.1047,0.1366,-0.5969,-0.3395,111.4163
16:45:26:802,0.1095,-0.877,11.4754,48.1149,0.1249,-0.6832,-0.3172,111.4163
16:45:26:822,0.5192,-1.0211,11.7894,48.1998,-0.17,-0.5479,-0.3268,111.4163
16:45:26:849,-0.25,-0.3117,12.4959,48.348,-0.5321,-0.2423,-0.5441,111.4163
16:45:26:863,-1.1551,0.2824,12.618,48.6989,-0.5491,0.024,-0.6357,111.4163
16:45:26:883,-1.4764,-0.0269,12.0096,48.9536,-0.1999,0.1453,-0.314,111.4163
16:45:26:903,-0.4845,-0.8028,10.8957,49.23,0.1909,0.1644,0.1407,111.4163
16:45:26:923,0.0209,-1.3896,10.0624,49.3222,0.2623,0.2337,0.2739,111.4163
16:45:26:944,0.5671,-1.1264,9.789,49.3605,0.0782,0.3317,0.1961,111.4163
16:45:26:964,0.7992,-0.8506,9.3984,49.4404,-0.0912,0.3402,0.0459,111.4163
16:45:26:984,0.6843,-0.5157,9.0467,49.622,-0.1328,0.2443,-0.1341,111.4163
16:45:27:005,0.3368,-0.2686,8.601,49.7623,-0.0742,0.1218,-0.2715,111.4163
16:45:27:024,0.0162,-0.1083,8.1625,49.8193,0.0196,0.0581,-0.3193,111.4163
16:45:27:048,0.0497,-0.0006,7.7767,50.0122,0.0919,0.0676,-0.2767,111.4163
16:45:27:065,0.4379,0.4235,7.5637,50.1903,0.1249,0.0889,-0.1991,111.4163
16:45:27:086,0.4307,1.1785,7.5111,50.3711,0.1899,0.0826,-0.2172,111.4163
16:45:27:105,0.0066,1.4943,7.5063,50.8539,0.3134,0.09,-0.2566,111.4163
16:45:27:125,-0.0748,0.9625,7.8078,51.1148,0.3699,0.1708,-0.1181,111.512
16:45:27:149,0.3081,0.7926,7.9519,51.3631,0.3518,0.19,0.0459,111.61
16:45:27:165,0.0114,0.5551,8.5508,51.6198,0.2804,0.1889,0.0353,111.7056
16:45:27:186,-0.1974,0.5695,8.9049,51.9128,0.2336,0.1911,0.0172,111.7981
16:45:27:206,-0.3745,0.2177,9.6096,52.174,0.2016,0.1847,0.0694,111.8884
16:45:27:226,-0.4056,0.0425,10.2203,52.4697,0.2527,0.1101,0.1631,111.8884
16:45:27:250,-0.4319,-0.3404,10.6684,52.7106,0.3294,0.0069,0.2494,111.8884
16:45:27:266,-0.0413,-0.1681,11.0273,52.6664,0.2932,-0.0772,0.3016,111.8884
16:45:27:287,-0.1902,-0.4026,11.3246,52.8518,0.2059,-0.1454,0.2984,111.8884
16:45:27:306,-0.0796,-0.2758,12.055,53.1804,0.0313,-0.1774,0.3122,111.8884
16:45:27:327,-0.3434,0.0568,12.35,53.0843,-0.1115,-0.2051,0.2345,111.8884
16:45:27:350,-1.1145,-0.1825,12.0048,53.0155,-0.0731,-0.2551,0.1184,111.8884
16:45:27:367,-1.3137,-0.3452,11.6124,53.1437,-0.0113,-0.2679,0.1365,111.8884
16:45:27:387,-0.8465,-0.0748,11.2696,53.4605,-0.0039,-0.2743,0.1599,111.8884
16:45:27:408,-0.6909,-0.003,11.0973,53.5895,0.0579,-0.3403,0.0534,111.8884
16:45:27:428,-0.9182,0.0766,10.733,53.9106,0.1409,-0.3893,-0.0734,111.8884
16:45:27:451,-1.474,-0.5085,10.2132,54.1265,0.1632,-0.3403,-0.0574,111.8884
16:45:27:468,-1.5314,-0.9751,9.9398,54.0279,-0.0379,-0.1103,0.0651,111.8884
16:45:27:488,-1.3208,-0.8339,9.8345,54.239,-0.3586,0.1453,0.1237,111.8884
16:45:27:508,-0.8919,-0.3141,9.6455,54.3605,-0.5853,0.2688,0.1525,111.8884
16:45:27:528,-0.3817,-0.0126,9.1567,54.4297,-0.5843,0.1943,0.1706,111.8884
16:45:27:550,0.1143,0.2201,8.5603,54.2911,-0.4268,-0.0229,0.1258,111.8884
16:45:27:569,0.332,0.2776,7.9567,54.4266,-0.2563,-0.2455,0.0257,111.8884
16:45:27:590,0.5958,0.3613,7.48,54.5947,-0.1626,-0.383,-0.0521,111.8884
16:45:27:609,0.5216,0.3781,7.2855,54.7289,-0.169,-0.4106,-0.1373,111.8884
16:45:27:629,0.5312,0.9003,7.4895,54.8657,-0.2286,-0.3521,-0.1799,111.8884
16:45:27:649,0.6054,1.2981,7.5159,55.0067,-0.17,-0.3148,-0.1703,111.8884
16:45:27:670,0.5049,1.3364,7.4584,55.2222,-0.0049,-0.3009,-0.166,111.8884
16:45:27:726,0.3009,0.9458,7.48,55.3493,0.0728,-0.1933,-0.1575,111.8884
16:45:27:729,0.4546,0.661,8.2846,55.412,0.0111,-0.057,-0.1011,111.8884
16:45:27:730,0.6556,0.6682,8.6058,55.5383,-0.0656,0.0229,-0.1075,111.8884
16:45:27:750,0.2841,0.591,9.2836,55.4564,-0.1423,0.1463,-0.2395,111.9828
16:45:27:770,-0.0006,0.4283,10.2754,55.4915,-0.1541,0.2401,-0.3172,112.085
16:45:27:791,-0.1783,0.1723,10.8455,55.4477,-0.0688,0.2571,-0.3108,112.1973
16:45:27:810,-0.1926,0.1555,11.5831,55.6802,0.0739,0.255,-0.3023,112.319
16:45:27:831,-0.3888,0.0185,11.9833,56.0206,0.2676,0.1858,-0.314,112.4508
16:45:27:850,-0.3194,0.1101,12.1298,56.2052,0.3795,0.1293,-0.3278,112.5927
16:45:27:871,-0.4869,0.0909,12.4313,56.482,0.42,0.074,-0.3587,112.7444
16:45:27:891,-0.6305,0.0401,12.6156,56.7221,0.4391,-0.0048,-0.3182,112.9083
16:45:27:912,-0.3697,-0.6353,12.2399,56.9116,0.421,-0.074,-0.1543,113.0825
16:45:27:932,0.6748,-1.0762,12.1029,57.1773,0.1398,-0.057,-0.0265,113.2616
16:45:27:951,1.5661,0.0042,12.0646,57.6202,-0.2095,-0.1284,-0.2055,113.441
16:45:27:974,0.5575,0.5025,11.9043,57.6295,-0.2819,-0.2711,-0.5963,113.6271
16:45:27:994,-0.2477,0.1244,11.3916,57.7223,-0.0539,-0.4469,-0.641,113.8322
16:45:28:013,0.0042,-0.4265,10.462,57.7191,0.0409,-0.4522,-0.3598,114.0564
16:45:28:034,0.2363,-0.8961,9.5928,57.6355,-0.1029,-0.302,-0.1852,114.2901
16:45:28:054,0.4331,-0.7669,9.0969,57.669,-0.3277,-0.1273,-0.1703,114.5287
16:45:28:073,0.4714,-0.5898,8.7111,57.8304,-0.4683,-0.0133,-0.1969,114.7713
16:45:28:094,0.4714,-0.4528,8.2965,57.7152,-0.48,0.0176,-0.215,115.0189
16:45:28:113,0.1884,-0.4146,7.861,57.7675,-0.4385,0.0474,-0.2513,115.2718
16:45:28:134,0.2459,-0.2375,7.5278,57.5226,-0.3778,0.1122,-0.2374,115.5301
16:45:28:154,0.4546,0.0425,7.3316,57.6861,-0.2659,0.1506,-0.2182,115.7931
16:45:28:174,0.6915,0.256,7.3484,57.6933,-0.0784,0.1208,-0.2395,116.0595
16:45:28:194,0.7418,0.3541,7.3603,57.6044,0.1238,0.0762,-0.2704,116.3304
16:45:28:214,0.4403,0.2225,7.322,57.578,0.2655,0.0826,-0.2788,116.6067
16:45:28:233,0.3823,0.3087,7.4178,57.587,0.3081,0.1474,-0.2001,116.8883
16:45:28:254,0.536,0.4283,7.736,57.5011,0.3209,0.2134,-0.0968,117.1717
16:45:28:274,0.548,0.6156,8.2702,57.5903,0.3433,0.255,-0.0435,117.4544
16:45:28:294,0.4427,0.6658,8.5364,58.0669,0.3923,0.2763,-0.0148,117.7335
16:45:28:319,0.1597,0.3781,9.0706,58.1655,0.3784,0.3349,0.0236,118.0084
16:45:28:335,0.2889,0.3733,9.8848,58.3378,0.3156,0.3274,0.1471,118.2783
16:45:28:355,0.7466,0.3852,10.0193,58.7907,0.323,0.2039,0.2324,118.5389
16:45:28:375,0.3751,-0.1609,10.2491,59.0712,0.2634,0.1325,0.1546,118.788
16:45:28:396,0.2865,-0.46,11.1978,58.9205,0.0206,0.1229,0.0758,119.0293
16:45:28:421,0.8183,0.5456,12.4481,59.3232,-0.2276,0.0282,0.0289,119.2664
16:45:28:436,-0.0891,1.1061,13.066,59.3407,-0.2371,-0.0943,-0.1767,119.5007
16:45:28:456,-2.0369,-0.07,12.7549,59.2074,-0.1253,-0.0836,-0.2619,119.7381
16:45:28:476,-2.1517,-0.8578,12.5821,59.1921,-0.1658,0.0346,0.079,119.9814
16:45:28:496,-0.9182,-0.853,11.8588,59.1814,-0.284,0.0794,0.3931,120.2181
16:45:28:516,-0.8895,-0.8315,11.799,58.7682,-0.3064,0.0368,0.26,120.4386
16:45:28:536,-2.1565,-1.4901,11.1643,58.5303,-0.1168,-0.0772,0.0587,120.6479
16:45:28:556,-2.674,-2.269,10.7282,58.501,-0.0273,0.0069,0.1493,120.8525
16:45:28:577,-2.19,-1.9214,10.654,58.3007,-0.1445,0.2422,0.3739,121.05
16:45:28:597,-1.4285,-1.3466,10.474,58.2884,-0.1636,0.3328,0.5347,121.234
16:45:28:621,-0.9948,-1.0331,9.9398,58.3403,0.0025,0.2465,0.5784,121.3997
16:45:28:637,-0.7938,-0.8841,9.4199,58.1897,0.1824,0.1272,0.5731,121.5455
16:45:28:658,-0.451,-0.6114,8.7159,57.9655,0.2687,0.0442,0.5891,121.6714
16:45:28:678,-0.3242,-0.4433,8.2152,58.3536,0.3007,0.0176,0.5678,121.7784
16:45:28:698,0.0975,-0.0532,7.8221,58.4875,0.2943,0.0314,0.5401,121.7784
16:45:28:720,0.7035,0.4331,7.3962,58.4589,0.3092,-0.0282,0.5166,121.7784
16:45:28:739,0.9284,0.5886,6.8931,58.4868,0.3603,-0.1582,0.4378,121.7784
16:45:28:759,0.9212,0.5767,6.5456,58.3356,0.339,-0.2434,0.3304,121.7784
16:45:28:779,1.1803,0.7759,6.4451,58.3164,0.2474,-0.2754,0.2569,121.7784
16:45:28:798,0.7896,0.8596,6.6676,58.1568,0.1132,-0.2434,0.1237,121.7784
16:45:28:821,0.2435,0.9553,6.8812,58.1668,-0.0379,-0.1529,0.0161,121.7784
16:45:28:840,0.2841,1.2359,7.5206,57.6685,-0.268,0.0357,-0.0052,121.7784
16:45:28:859,0.2889,1.8658,8.5747,57.4681,-0.431,0.1826,-0.1043,121.7784
16:45:28:880,-0.1328,2.0237,9.5833,57.3487,-0.3383,0.1868,-0.2799,121.7784
16:45:28:900,-0.3386,1.7749,10.2323,57.2724,-0.1935,0.1655,-0.3513,121.7784
16:45:28:921,-0.3697,1.4967,11.4562,57.2082,-0.1551,0.1282,-0.3065,121.7784
16:45:28:940,-0.2716,1.4369,12.0742,56.7817,-0.0561,-0.008,-0.2502,121.8816
16:45:28:960,-0.4606,0.9649,12.4911,56.5691,0.075,-0.0506,-0.2736,121.994
16:45:28:981,-0.4534,0.7232,12.7047,56.5474,0.1782,-0.0687,-0.2895,122.1154
16:45:29:001,-0.2142,0.7783,13.1306,56.6426,0.2282,-0.122,-0.2619,122.2469
16:45:29:022,-0.4367,0.5503,13.4614,56.5567,0.2122,-0.1039,-0.2715,122.3885
16:45:29:040,-1.0881,0.3087,13.809,56.5546,0.0972,0.1016,-0.2959,122.5394
16:45:29:061,-0.8536,0.3422,13.5188,56.2075,0.0249,0.3019,-0.1905,122.7009
16:45:29:081,0.0568,0.469,12.8195,56.3074,0.0919,0.3359,-0.0254,122.8673
16:45:29:101,0.2483,-0.0867,12.1298,56.1805,0.2953,0.2316,0.0182,123.0334
16:45:29:122,0.1143,-0.9846,11.0536,56.2728,0.4668,0.0826,0.0438,123.1996
16:45:29:142,0.0616,-1.6582,10.3591,56.1653,0.3007,0.1304,0.0704,123.3644
16:45:29:162,0.1501,-1.1049,10.1892,55.9117,-0.071,0.2774,0.0395,123.5278
16:45:29:182,0.1549,-0.8363,9.5498,55.6451,-0.2585,0.2944,0.0033,123.6912
16:45:29:202,0.332,-0.5372,8.9964,55.3087,-0.2414,0.1804,-0.0254,123.8531
16:45:29:222,0.1238,-0.192,8.3372,55.2246,-0.1391,0.0421,-0.132,124.0151
16:45:29:243,-0.2859,0.0138,7.7623,54.797,0.0228,-0.0527,-0.2278,124.1799
16:45:29:263,-0.4223,0.1819,7.3436,54.7458,0.1537,-0.041,-0.2161,124.3509
16:45:29:287,-0.4271,0.3781,6.9601,54.5917,0.2144,0.0687,-0.1415,124.5281
16:45:29:303,-0.475,0.4642,6.658,54.2277,0.2549,0.1868,-0.0638,124.7084
16:45:29:323,-0.2764,0.5862,6.5551,54.0188,0.2538,0.2699,0.0246,124.889
16:45:29:343,0.3009,0.996,6.6174,54.0366,0.2037,0.2859,0.0854,125.0668
16:45:29:363,0.7585,1.5948,6.7585,53.9917,0.1622,0.2134,0.063,125.2385
16:45:29:387,0.9356,1.7677,7.1492,54.0442,0.1036,0.1229,0.0108,125.4055
16:45:29:404,0.8997,1.6092,7.6427,54.0696,0.0025,0.008,-0.019,125.57
16:45:29:427,0.9236,1.7844,8.33,54.0018,-0.1498,-0.0549,-0.0467,125.7327
16:45:29:444,0.6891,1.7725,9.1232,53.6591,-0.3,-0.0186,-0.0638,125.8935
16:45:29:465,0.1238,1.2837,9.7316,53.6563,-0.3778,0.0346,-0.0595,126.0532
16:45:29:489,-0.2213,0.469,10.5344,53.5714,-0.4449,0.0943,-0.0137,126.2112
16:45:29:504,-0.1854,0.0837,10.7043,53.2622,-0.4449,0.0815,0.0321,126.3661
16:45:29:525,-0.2142,-0.393,11.4802,53.037,-0.4065,0.073,-0.0158,126.5169
16:45:29:545,-0.5874,-0.3141,11.8756,52.7792,-0.2276,-0.0751,-0.1639,126.6661
16:45:29:566,-1.5147,-0.3117,12.1992,52.5747,-0.0848,-0.1252,-0.2651,126.8192
16:45:29:588,-2.461,-0.5827,12.4863,52.3339,-0.0497,0.0059,-0.1746,126.9785
16:45:29:605,-2.4156,-0.92,12.7549,52.1169,-0.1136,0.1921,0.1035,127.1406
16:45:29:626,-1.1049,-0.7932,12.4959,51.7546,-0.2052,0.2316,0.2654,127.2953
16:45:29:646,-1.2443,-0.8004,11.9737,51.4865,-0.1487,0.0059,0.0332,127.4383
16:45:29:666,-2.123,-1.1336,11.2481,51.4214,0.0419,-0.3009,-0.2182,127.5775
16:45:29:688,-2.878,-1.6175,10.4524,51.4063,0.1728,-0.4351,-0.2012,127.7217
16:45:29:707,-3.4959,-2.1254,9.7077,51.3263,0.094,-0.2935,-0.0137,127.8708
16:45:29:761,-3.0407,-1.9789,9.2788,51.2599,-0.1956,0.0581,0.2728,128.0178
16:45:29:764,-1.8287,-1.3202,8.9462,51.1963,-0.4758,0.337,0.4868,128.1516
16:45:29:767,-1.0187,-0.6808,8.4981,51.047,-0.5035,0.3338,0.4751,128.2644
16:45:29:789,-0.5827,-0.3141,8.0668,51.2561,-0.3309,0.1389,0.3387,128.3578
16:45:29:808,-0.6622,-0.4504,7.59,51.2794,-0.1903,0.0048,0.2121,128.3578
16:45:29:827,-0.4295,0.0042,7.8054,51.1131,-0.251,0.0069,0.1493,128.3578
16:45:29:848,-0.5109,0.5145,7.7551,50.9647,-0.3437,0.0964,0.0704,128.3578
16:45:29:868,-0.4367,0.6993,7.6475,50.9521,-0.2627,0.1304,0.0598,128.3578
16:45:29:889,-0.1902,0.7208,7.5876,50.6902,-0.1115,0.1101,0.0907,128.3578
16:45:29:908,-0.0556,0.6491,7.5517,50.5051,-0.0401,0.0953,0.1077,128.3578
16:45:29:929,0.1669,0.5767,7.4512,50.8538,-0.071,0.0953,0.1248,128.3578
16:45:29:949,0.4594,0.7567,7.8006,50.7884,-0.169,0.0826,0.0875,128.3578
16:45:29:968,0.1119,0.9721,8.4622,50.8028,-0.2425,0.0453,-0.0648,128.3578
16:45:29:990,-0.1926,0.9003,9.2931,50.624,-0.2148,0.0101,-0.1778,128.3578
16:45:30:009,-0.3242,0.548,9.8034,50.4051,-0.1605,0.0016,-0.2087,128.3578
16:45:30:029,-0.7484,0.2919,10.6875,50.2278,-0.1083,-0.0005,-0.2704,128.3578
16:45:30:049,-1.4572,0.0281,11.8325,50.4419,0.0739,-0.0176,-0.3321,128.3578
16:45:30:069,-1.6893,-0.4026,12.1466,50.3692,0.4445,-0.0655,-0.3087,128.3578
16:45:30:089,-1.5649,-0.5085,12.1944,50.0457,0.7426,-0.0815,-0.2736,128.4599
16:45:30:110,-1.6487,-0.3571,12.3571,49.8139,0.8321,-0.0399,-0.2481,128.5711
16:45:30:130,-2.3079,-1.0618,12.7549,49.7558,0.8193,0.0794,-0.2257,128.6905
16:45:30:149,-2.3103,-1.7061,12.9942,50.0934,0.6181,0.3551,-0.149,128.8172
16:45:30:170,-1.8574,-1.584,12.8818,50.3844,0.3049,0.5884,-0.1032,128.9487
16:45:30:191,-1.4716,-0.9009,12.4768,50.3297,0.2261,0.5234,-0.132,129.0824
16:45:30:211,-1.6534,-0.5994,11.8397,50.2738,0.4519,0.2486,-0.1831,129.2188
16:45:30:231,-1.3974,-0.597,11.1188,50.3261,0.6319,0.0176,-0.1245,129.3606
16:45:30:252,-1.0499,-0.5707,10.2467,50.3827,0.5254,-0.074,-0.0254,129.5056
16:45:30:272,-0.655,-0.4869,9.4636,50.6409,0.2197,-0.1198,0.0545,129.65
16:45:30:292,-0.0748,-0.1633,8.9653,50.5381,-0.1221,-0.2264,0.0779,129.7899
16:45:30:312,-0.3912,-0.1059,8.5412,50.5243,-0.3671,-0.384,-0.0467,129.923
16:45:30:333,-0.53,-0.0604,8.1625,50.3973,-0.531,-0.5033,-0.0968,130.0529
16:45:30:357,-0.3482,-0.0748,7.6977,50.5134,-0.6599,-0.5767,-0.0499,130.1809
16:45:30:372,-0.1663,0.0568,7.5661,50.5761,-0.7441,-0.631,-0.0766,130.3054
16:45:30:392,-0.3817,0.189,7.4201,50.7002,-0.7164,-0.6587,-0.1799,130.4267
16:45:30:415,-0.7364,0.2154,7.2305,50.9129,-0.5619,-0.6268,-0.2321,130.5479
16:45:30:434,-1.0905,0.1962,7.2257,51.0998,-0.3746,-0.4852,-0.1831,130.6712
16:45:30:459,-1.1815,0.2704,7.4919,51.0754,-0.2318,-0.2477,-0.0574,130.7959
16:45:30:473,-0.8776,0.6347,7.8293,51.1697,-0.1157,0.025,0.0832,130.9174
16:45:30:494,-0.5444,0.9912,8.0285,51.3383,0.0686,0.2262,0.1695,131.0306
16:45:30:514,-0.4654,0.8237,8.2415,51.3745,0.3028,0.3093,0.2494,131.1335
16:45:30:534,-0.1519,0.469,8.5101,51.24,0.4114,0.3562,0.3622,131.2241
16:45:30:559,0.0018,0.3948,9.0347,51.3125,0.3379,0.4116,0.4016,131.2241
16:45:30:575,-0.3769,0.2847,9.856,51.3994,0.1941,0.4766,0.3293,131.2241
16:45:30:594,-0.734,-0.003,11.2457,51.5928,0.0632,0.5735,0.2707,131.2241
16:45:30:614,-0.5994,0.0885,12.3308,51.7537,0.0281,0.6118,0.2973,131.2241
16:45:30:634,-0.9446,-0.0724,12.6927,51.8787,0.1611,0.4883,0.2973,131.2241
16:45:30:655,-1.9149,-0.6066,12.7262,51.9543,0.2815,0.3455,0.2867,131.2241
16:45:30:674,-1.9507,-1.0044,12.5725,52.0789,0.2517,0.2912,0.3771,131.2241
16:45:30:694,-1.7258,-1.2867,12.2255,52.4767,0.1217,0.2305,0.3771,131.2241
16:45:30:715,-2.135,-1.4447,11.6913,52.3664,0.0206,0.0964,0.1844,131.2241
16:45:30:735,-2.0656,-0.8937,11.26,52.3338,0.0387,-0.1156,0.0332,131.2241
16:45:30:760,-2.19,-0.2877,10.7976,52.4622,0.2325,-0.3851,-0.0446,131.2241
16:45:30:774,-2.5878,-0.6879,9.8106,52.7923,0.4956,-0.582,0.0097,131.2241
16:45:30:795,-2.08,-1.0953,9.3171,52.7569,0.4114,-0.6182,0.1983,131.2241
16:45:30:816,-1.0618,-0.8195,8.9725,53.0274,-0.055,-0.5055,0.2835,131.2241
16:45:30:835,-1.1647,-0.7789,8.8427,53.243,-0.5289,-0.4117,0.1631,131.2241
16:45:30:861,-1.2371,-0.7597,8.8211,53.2755,-0.8229,-0.3893,0.0854,131.2241
16:45:30:875,-1.4166,-0.5827,8.8187,53.7224,-0.9837,-0.3457,0.015,131.2241
16:45:30:896,-1.8503,-0.3691,8.7805,53.9187,-1.02,-0.2519,-0.051,131.2241
16:45:30:916,-1.6941,0.0138,8.8857,53.9076,-0.9241,-0.1262,0.0087,131.2241
16:45:30:936,-1.4596,0.2512,8.7805,53.7145,-0.7121,-0.0218,0.1194,131.2241
16:45:30:959,-1.2778,0.414,8.6393,53.9529,-0.4555,0.0655,0.2047,131.2241
16:45:30:976,-1.0044,0.5336,8.455,53.8966,-0.2212,0.1378,0.2899,131.2241
16:45:30:996,-0.7555,0.3948,8.2917,53.9189,-0.0273,0.1676,0.3569,131.2241
16:45:31:017,-0.4175,0.3326,8.2367,54.0513,0.075,0.1634,0.4154,131.1228
16:45:31:038,0.186,0.5025,8.0788,54.01,0.1132,0.0985,0.4186,131.0092
16:45:31:060,0.4259,0.7496,8.1386,54.3146,0.1601,-0.0506,0.292,130.8844
16:45:31:077,0.2243,1.0056,8.5029,54.3986,0.2197,-0.1997,0.1248,130.7525
16:45:31:097,-0.0843,0.9864,9.0802,54.6739,0.241,-0.2285,0.0225,130.6194
16:45:31:118,-0.3338,0.5599,9.8034,54.6254,0.1707,-0.1103,-0.0009,130.4885
16:45:31:138,-0.3984,0.2752,10.4692,54.7656,0.0739,0.0421,-0.018,130.3598
16:45:31:159,-0.652,0.0042,11.1117,55.041,0.0675,0.1623,-0.0936,130.2339
16:45:31:178,-0.7364,0.0114,11.5496,55.2401,0.1931,0.1858,-0.1511,130.1134
16:45:31:198,-0.4774,0.2512,11.9115,55.4217,0.372,0.1133,-0.1873,130.0015
16:45:31:220,-0.3697,0.5575,12.2447,55.5009,0.5403,-0.0069,-0.2672,129.8996
16:45:31:239,-0.9422,0.2847,12.3835,55.8774,0.6841,-0.0879,-0.3545,129.8996
16:45:31:260,-1.651,-0.338,12.2447,55.9372,0.6884,-0.0154,-0.2842,129.8996
16:45:31:279,-1.5482,-1.0977,11.7009,56.453,0.4828,0.1804,-0.0893,129.8996
16:45:31:300,-0.8536,-1.4231,11.1308,56.8463,0.1899,0.2795,0.0449,129.8996
16:45:31:320,-0.5324,-1.2173,10.8431,57.0279,0.0079,0.1762,-0.0297,129.8996
16:45:31:340,-1.1743,-1.1982,10.5727,57.1328,0.0015,-0.0059,-0.1735,129.8996
16:45:31:366,-1.6941,-1.5888,10.273,57.2036,0.0004,-0.0463,-0.1107,129.8996
16:45:31:380,-1.4836,-1.7348,10.0385,57.3746,-0.1796,0.1186,0.0609,129.8996
16:45:31:400,-0.923,-1.4901,9.7747,57.3472,-0.4065,0.272,0.1535,129.8996
16:45:31:422,-0.5874,-1.1503,9.5043,57.4311,-0.4758,0.2571,0.1152,129.8996
16:45:31:441,-0.6449,-0.798,9.1735,57.3626,-0.4097,0.1485,0.03,129.8996
16:45:31:468,-0.6425,-0.6449,8.9049,57.3177,-0.3213,0.0762,0.0257,129.8996
16:45:31:481,-0.4869,-0.393,8.6919,57.4367,-0.3032,0.1016,0.0683,129.8996
16:45:31:501,-0.4989,-0.0317,8.5699,57.6059,-0.3043,0.1581,0.0736,129.8996
16:45:31:527,-0.3673,0.1077,8.3635,57.5567,-0.2265,0.1762,0.1099,129.8996
16:45:31:542,-0.015,0.2919,8.1362,57.5578,-0.0987,0.1495,0.1461,129.8996
16:45:31:562,0.0257,0.3374,7.9208,57.6987,0.0164,0.0889,0.1248,129.8996
16:45:31:584,0.143,0.4211,7.7432,57.884,0.0632,0.0399,0.1152,129.8055
16:45:31:603,0.2841,0.6054,7.6786,57.8919,0.0494,0.0154,0.113,129.7099
16:45:31:626,0.3176,0.8596,7.6642,58.1035,0.0632,-0.0378,0.0513,129.6126
16:45:31:642,-0.2261,0.9194,7.9591,58.0924,0.1334,-0.074,-0.0446,129.5163
16:45:31:662,-0.2764,1.2885,8.6106,58.1562,0.1909,-0.0176,-0.0361,129.4234
16:45:31:683,-0.5659,1.0271,9.2716,58.4328,0.257,0.0644,0.0364,129.4234
16:45:31:702,-0.6449,0.2847,10.1964,58.6658,0.224,0.1666,0.1855,129.3331
16:45:31:726,-0.262,0.0861,11.4395,58.8209,0.0377,0.2891,0.2888,129.2397
16:45:31:769,-0.5228,0.0981,12.3117,59.0133,-0.0912,0.3306,0.1908,129.1391
16:45:31:770,-1.2706,0.2489,12.9512,59.2942,0.0004,0.2539,0.0811,129.0347
16:45:31:783,-1.7234,0.2512,13.2054,58.9653,0.2325,0.1453,0.1184,128.9306
16:45:31:804,-2.2672,-0.3141,12.8578,59.1772,0.3976,0.1091,0.2047,128.8256
16:45:31:829,-1.7617,-0.7908,12.35,59.2551,0.3358,0.1453,0.3176,128.7182
16:45:31:844,-1.8,-1.3155,11.7248,59.4137,0.1079,0.1272,0.2654,128.6037
16:45:31:865,-1.934,-1.1097,11.485,59.5997,-0.088,-0.0037,0.0885,128.4842
16:45:31:884,-2.3055,-0.8554,10.7498,59.4427,-0.0561,-0.2541,-0.0787,128.365
16:45:31:904,-2.6979,-0.8315,10.0528,59.4068,0.176,-0.5469,-0.1362,128.2511
16:45:31:928,-2.9282,-1.0499,9.3171,59.3796,0.3071,-0.6385,-0.068,128.145
16:45:31:945,-2.1589,-0.8506,8.9198,59.805,0.1654,-0.5831,0.0598,128.0451
16:45:31:965,-1.4381,-0.5707,8.5412,59.6313,-0.0763,-0.4916,0.096,127.9462
16:45:31:985,-1.1647,-0.2973,8.3204,59.6287,-0.2393,-0.4682,0.0523,127.846
16:45:32:005,-1.3113,-0.192,8.0812,59.6853,-0.317,-0.4405,0.0161,127.7452
16:45:32:029,-1.2347,-0.0485,7.8269,59.4634,-0.3756,-0.3425,0.0459,127.6448
16:45:32:046,-1.0642,0.0305,7.6259,59.5937,-0.4438,-0.1997,0.1003,127.5441
16:45:32:065,-0.8106,0.2177,7.6211,59.4254,-0.4981,-0.0538,0.1226,127.4405
16:45:32:086,-0.7005,0.2512,7.5709,59.2894,-0.4619,0.0218,0.1099,127.3335
16:45:32:106,-0.8273,0.1029,7.6164,59.1242,-0.3554,0.0421,0.096,127.2238
16:45:32:129,-0.8249,0.1077,7.724,59.1378,-0.2808,0.0751,0.1035,127.1115
16:45:32:146,-0.8106,0.064,7.9161,59.1416,-0.2371,0.1144,0.1184,126.9963
16:45:32:166,-0.6449,0.1842,8.275,58.9376,-0.1892,0.1208,0.129,126.8782
16:45:32:187,-0.5515,0.2345,8.6369,58.8923,-0.0869,0.074,0.0885,126.7572
16:45:32:207,-0.3075,0.6491,9.1519,58.8466,0.0569,0.0016,-0.0063,126.6353
16:45:32:228,-0.4654,0.6419,9.5163,58.9288,0.2399,-0.0943,-0.1352,126.5162
16:45:32:247,-0.9159,0.0233,10.2562,59.3363,0.3486,-0.1294,-0.1916,126.4044
16:45:32:268,-0.6933,-0.0269,11.1141,59.2313,0.3039,-0.0485,-0.1756,126.3019
16:45:32:287,-0.5444,0.0736,11.5735,59.1043,0.3347,-0.0186,-0.1831,126.2078
16:45:32:308,-0.5563,0.1507,11.5783,59.0802,0.4924,-0.0943,-0.2129,126.2078
16:45:32:329,-0.8871,-0.3404,11.6865,59.1722,0.5915,-0.1603,-0.1991,126.2078
16:45:32:348,-0.9876,-0.7717,12.1514,58.89,0.4114,-0.0453,-0.149,126.2078
16:45:32:369,-1.0451,-0.7932,12.055,58.8983,0.0664,0.2134,-0.1927,126.2078
16:45:32:388,-1.1671,-0.6233,11.7918,58.9552,-0.0646,0.3604,-0.2704,126.2078
16:45:32:409,-1.2323,-0.609,11.3868,58.6666,0.0972,0.3157,-0.2161,126.2078
16:45:32:430,-1.2108,-0.8746,10.9292,58.6403,0.273,0.2731,-0.0702,126.2078
16:45:32:449,-1.1575,-1.3083,10.3424,58.6051,0.2304,0.3615,0.0726,126.2078
16:45:32:470,-0.5324,-1.4423,10.072,58.6209,0.0068,0.4691,0.2153,126.2078
16:45:32:491,0.2363,-1.1791,9.9135,58.7512,-0.2371,0.4265,0.227,126.2078
16:45:32:509,-0.003,-0.9655,9.7555,58.7326,-0.3234,0.2103,-0.0063,126.2078
16:45:32:530,-0.5037,-0.7645,9.6359,58.736,-0.284,-0.0112,-0.1959,126.2078
16:45:32:550,-0.5922,-0.5204,9.3482,58.6542,-0.2478,-0.0975,-0.2065,126.2078
16:45:32:570,-0.7388,-0.2542,9.0299,58.5984,-0.2148,-0.0783,-0.1746,126.2078
16:45:32:596,-0.6473,-0.149,8.6489,58.7817,-0.1519,-0.0261,-0.0915,126.2078
16:45:32:610,-0.3649,-0.015,8.2439,58.9574,-0.1019,0.0186,0.0033,126.2078
16:45:32:630,-0.2955,0.064,7.9041,58.965,-0.0774,0.0304,0.015,126.2078
16:45:32:651,-0.1376,0.2943,7.6786,58.739,-0.0411,0.0091,-0.002,126.2078
16:45:32:671,-0.2596,0.4929,7.4967,58.7705,0.0366,-0.0346,-0.0212,126.2078
16:45:32:696,-0.2548,0.7017,7.4465,58.8968,0.1153,-0.0485,-0.0031,126.2078
16:45:32:711,-0.2285,0.996,7.6834,58.7983,0.1728,-0.0229,0.0225,126.2078
16:45:32:731,-0.3888,0.941,8.0596,58.7774,0.2176,0.0346,0.0534,126.2078
16:45:32:752,-0.1352,0.8812,8.3707,58.5424,0.2037,0.1186,0.1407,126.2078
16:45:32:772,-0.0437,0.7807,8.6776,58.2591,0.1494,0.1634,0.1759,126.2078
16:45:32:795,-0.2716,0.4594,9.262,58.0793,0.0771,0.1719,0.128,126.2078
16:45:32:812,-0.1998,0.4164,10.0624,58.1068,-0.0348,0.1762,0.0917,126.2078
16:45:32:834,-0.0843,0.8955,11.0369,58.0357,-0.1317,0.1581,0.0374,126.1158
16:45:32:854,-1.0187,0.9194,11.9617,58.2257,-0.1136,0.141,-0.0691,126.0229
16:45:32:874,-2.4826,0.146,12.6251,58.3229,-0.0337,0.2337,-0.0425,125.9327
16:45:32:899,-2.473,-0.3667,12.8028,58.441,-0.0028,0.4052,0.2366,125.9327
16:45:32:913,-1.9196,-0.8746,12.5103,58.7009,-0.0007,0.4542,0.4581,125.8329
16:45:32:934,-1.651,-1.148,12.0622,58.8661,-0.0465,0.3402,0.3909,125.7186
16:45:32:954,-1.9603,-1.4566,11.7416,58.8949,-0.1008,0.1186,0.1695,125.5927
16:45:32:974,-2.4491,-1.4183,11.4515,58.8539,-0.1083,-0.123,-0.0126,125.4629
16:45:32:998,-3.2824,-1.7157,10.8048,58.816,-0.0529,-0.2679,-0.084,125.335
16:45:33:015,-3.6203,-2.0363,10.3161,58.5516,-0.0763,-0.2274,0.0097,125.2115
16:45:33:034,-2.7171,-1.7707,9.813,58.3428,-0.267,-0.0602,0.1738,125.0888
16:45:33:055,-2.1613,-1.4136,9.3553,58.1634,-0.4236,-0.0005,0.1972,124.9601
16:45:33:074,-1.8718,-1.3083,8.8642,58.006,-0.4566,-0.0474,0.1407,124.8245
16:45:33:098,-1.9507,-1.3107,8.5292,57.9118,-0.48,-0.0559,0.0736,124.6833
16:45:33:114,-2.0512,-1.2461,8.4861,57.7126,-0.5459,0.0431,0.0278,124.5394
16:45:33:134,-1.8263,-0.53,8.881,57.8354,-0.6013,0.1623,0.0172,124.3936
16:45:33:155,-1.7085,-0.125,8.9049,57.9083,-0.463,0.1826,0.0321,124.2463
16:45:33:174,-1.5027,-0.0556,8.6369,57.8415,-0.1668,0.1272,0.0875,124.0978
16:45:33:199,-1.2897,-0.1633,8.2199,57.7998,0.0844,0.0676,0.1344,123.947
16:45:33:216,-0.9781,-0.0676,7.8682,57.7484,0.2048,0.0176,0.1557,123.7931
16:45:33:236,-0.9398,-0.0006,7.657,57.5609,0.2293,-0.0176,0.1248,123.6374
16:45:33:256,-0.7029,0.2824,7.5422,57.377,0.2027,-0.025,0.0704,123.4804
16:45:33:275,-0.7531,0.6849,7.6881,57.242,0.192,-0.041,-0.0212,123.3237
16:45:33:298,-0.9182,1.0798,8.1266,57.1171,0.2293,-0.0368,-0.1224,123.1703
16:45:33:315,-1.261,1.3029,8.7757,57.0323,0.2975,0.0154,-0.1959,123.0236
16:45:33:336,-1.6726,1.0056,9.2788,57.0458,0.3678,0.1005,-0.181,122.8864
16:45:33:357,-1.5529,0.4666,9.8297,56.93,0.3507,0.1953,-0.0904,122.7578
16:45:33:377,-2.0058,-0.35,10.6828,56.908,0.2996,0.2284,-0.0766,122.635
16:45:33:399,-1.788,-0.3691,11.5854,56.9659,0.2921,0.19,-0.0819,122.5175
16:45:33:417,-1.6989,-0.2925,11.7296,57.0041,0.3987,0.0144,-0.1298,122.4055
16:45:33:436,-2.0225,-0.4576,11.6865,57.0268,0.5201,-0.2423,-0.2118,122.3004
16:45:33:456,-2.4108,-0.6903,12.1298,57.0421,0.437,-0.3265,-0.2608,122.206
16:45:33:477,-2.6285,-0.6951,12.3835,56.9427,0.1877,-0.1795,-0.2863,122.206
16:45:33:500,-2.6261,-0.8291,12.3787,56.8706,0.0526,-0.0431,-0.2332,122.206
16:45:33:518,-1.9316,-0.8506,12.2327,56.945,0.11,-0.0879,-0.0744,122.206
16:45:33:537,-1.4812,-1.0379,11.5208,56.9261,0.2836,-0.2849,0.0044,122.206
16:45:33:558,-1.6869,-1.4279,10.9436,56.7685,0.3816,-0.4245,-0.0265,122.206
16:45:33:578,-1.1623,-1.1456,10.3759,56.555,0.2623,-0.3947,-0.0073,122.206
16:45:33:598,-0.6329,-0.7549,9.6694,56.6757,0.1057,-0.368,-0.0148,122.206
16:45:33:619,-0.6138,-0.5276,9.073,56.3653,0.0441,-0.416,-0.1011,122.206
16:45:33:639,-0.746,-0.2662,8.6154,56.2431,0.0238,-0.4501,-0.1746,122.206
16:45:33:666,-0.8919,-0.259,8.2917,56.2299,-0.0177,-0.4043,-0.1682,122.206
16:45:33:679,-0.655,-0.1298,8.1529,56.006,-0.1328,-0.2764,-0.1043,122.206
16:45:33:699,-0.722,-0.0485,7.94,55.7883,-0.2606,-0.1252,-0.0883,122.206
16:45:33:719,-0.8536,-0.003,7.7695,56.0489,-0.3075,-0.0091,-0.0723,122.206
16:45:33:740,-0.6885,0.0162,7.614,56.1092,-0.2606,0.0399,0.0012,122.206
16:45:33:763,-0.4678,0.0425,7.4465,55.779,-0.1391,0.0059,0.0619,122.206
16:45:33:804,-0.4965,0.0114,7.3316,55.9798,0.0047,-0.0517,0.079,122.206
16:45:33:805,-0.4223,0.2249,7.2712,55.7521,0.1015,-0.0559,0.0758,122.206
16:45:33:820,-0.4271,0.5503,7.2999,55.6054,0.192,-0.024,0.0651,122.1107
16:45:33:840,-0.6209,0.8405,7.6068,55.6068,0.2975,0.0282,0.0864,122.0129
16:45:33:865,-0.7986,0.8166,7.9591,55.6129,0.3486,0.1389,0.1738,121.9121
16:45:33:880,-0.9374,1.0678,8.4144,55.3304,0.3039,0.2976,0.2824,121.8056
16:45:33:901,-0.9996,0.7615,8.8235,55.2853,0.2304,0.4467,0.392,121.6897
16:45:33:921,-0.5228,0.4522,9.8225,55.3118,0.0782,0.5692,0.4794,121.5605
16:45:33:941,0.3129,1.0343,10.6134,55.2611,-0.0656,0.5533,0.4197,121.4155
16:45:33:966,-0.4774,1.212,11.9282,55.3432,-0.0901,0.4734,0.1631,121.2563
16:45:33:981,-1.8694,1.0558,12.8291,55.4634,-0.0092,0.4606,0.0523,121.0923
16:45:34:002,-2.5041,0.4116,13.2174,55.5049,0.094,0.5522,0.2664,120.9273
16:45:34:022,-1.8287,0.0425,13.1115,55.6093,0.127,0.6513,0.5156,120.755
16:45:34:042,-1.7085,-0.2447,12.3858,55.6043,0.0812,0.6417,0.4059,120.5669
16:45:34:066,-1.7085,0.0473,11.5687,55.4788,0.1132,0.3849,0.1706,120.3676
16:45:34:082,-1.6391,-0.2518,11.0393,55.5068,0.2506,-0.0868,0.0044,120.1662
16:45:34:104,-2.0201,-0.6305,10.3543,55.3386,0.3422,-0.4138,-0.0947,119.9687
16:45:34:123,-2.6907,-1.148,9.5904,55.3166,0.1973,-0.4224,-0.0872,119.7792
16:45:34:143,-2.0297,-0.9727,9.2692,55.176,-0.2403,-0.4021,-0.0467,119.5983
16:45:34:165,-1.6606,-0.5827,9.2524,55.0459,-0.596,-0.4937,-0.1639,119.4222
16:45:34:183,-2.0824,-0.2949,8.9557,55.0145,-0.6706,-0.4682,-0.3459,119.2513
16:45:34:204,-2.3557,-0.3212,8.5101,54.9069,-0.6674,-0.4064,-0.3736,119.091
16:45:34:224,-2.528,-0.5444,8.2702,54.9331,-0.7355,-0.2477,-0.3108,118.9417
16:45:34:244,-2.5256,-0.3356,8.2391,54.6132,-0.8623,-0.008,-0.2555,118.8006
16:45:34:264,-2.1709,0.2369,8.5484,54.1977,-0.8229,0.0964,-0.181,118.6648
16:45:34:284,-1.812,0.6849,8.8379,53.97,-0.4768,0.1016,-0.083,118.5313
16:45:34:304,-2.0704,0.3805,8.951,53.8542,-0.0965,0.1336,0.0023,118.3977
16:45:34:325,-1.8933,-0.0078,9.2572,53.7955,-0.0358,0.2198,0.1716,118.2636
16:45:34:345,-1.1503,-0.0485,9.3338,53.5628,-0.2489,0.3146,0.3016,118.1232
16:45:34:368,-0.8776,0.0377,9.3745,53.5106,-0.43,0.2752,0.2313,117.9717
16:45:34:384,-0.5874,0.323,9.6981,53.4521,-0.3948,0.0527,0.0513,117.8108
16:45:34:405,-0.7125,0.6921,10.2538,53.3715,-0.1519,-0.1859,-0.1671,117.6474
16:45:34:425,-1.0355,0.9242,10.4644,53.6472,0.1931,-0.3254,-0.298,117.4898
16:45:34:446,-1.2849,0.7304,10.5655,53.5414,0.4828,-0.3616,-0.2969,117.3438
16:45:34:468,-1.6893,0.1938,11.0034,53.3638,0.6266,-0.2328,-0.2363,117.2108
16:45:34:485,-1.3926,-0.0508,11.5256,53.3422,0.6746,-0.0517,-0.1575,117.091
16:45:34:506,-1.3137,-0.0293,11.6865,53.2002,0.8108,0.0676,-0.1969,116.9795
16:45:34:527,-1.3926,-0.0341,11.4227,53.1422,1.076,0.0442,-0.2736,116.8783
16:45:34:546,-1.7617,-0.3858,11.0806,52.8318,1.2784,0.0336,-0.2905,116.8783
16:45:34:571,-1.6941,-0.4337,11.4897,52.9372,1.1442,0.1549,-0.2587,116.8783
16:45:34:586,-1.4596,-0.2758,11.3198,52.8613,0.8278,0.3445,-0.2225,116.8783
16:45:34:610,-1.3687,-0.4654,10.9364,53.0728,0.6799,0.3583,-0.1948,116.8783
16:45:34:627,-0.8225,-0.4433,10.3711,53.2974,0.6437,0.1975,-0.1117,116.8783
16:45:34:647,-0.7866,-0.7717,9.7196,53.2249,0.5425,-0.0048,-0.0553,116.8783
16:45:34:668,-0.9637,-1.1623,9.3673,53.3101,0.2463,-0.0932,-0.0318,116.8783
16:45:34:688,-0.9422,-1.0164,9.2022,53.2256,-0.2063,-0.0581,-0.0169,116.8783
16:45:34:709,-0.5898,-0.7071,9.0251,53.433,-0.5768,-0.0623,-0.0435,116.8783
16:45:34:727,-0.3625,-0.1513,8.9581,53.3477,-0.7441,-0.1997,-0.1831,116.8783
16:45:34:748,-0.6114,0.2584,8.7254,53.2239,-0.6833,-0.4,-0.38,116.8783
16:45:34:768,-0.8919,0.6078,8.4598,53.0282,-0.4853,-0.5213,-0.478,116.8783
16:45:34:787,-1.1336,1.0726,8.2869,52.8101,-0.283,-0.5288,-0.4844,116.8783
16:45:34:808,-1.1456,1.2718,8.2104,52.7725,-0.0763,-0.433,-0.4067,116.8783
16:45:34:828,-0.9278,1.3388,7.9472,52.482,0.1356,-0.2818,-0.2758,116.8783
16:45:34:848,-0.6305,1.2837,7.7671,52.4315,0.3166,-0.139,-0.1522,116.8783
16:45:34:869,-0.3099,1.3005,7.6857,52.302,0.4296,-0.0474,-0.0585,116.8783
16:45:34:888,-0.1615,1.3364,7.7647,52.2728,0.486,0.0027,-0.034,116.8783
16:45:34:909,-0.2046,1.4345,7.9878,51.9843,0.4924,0.041,-0.051,116.8783
16:45:34:936,-0.2118,1.6642,8.2582,51.6739,0.4519,0.073,-0.068,116.8783
16:45:34:949,-0.2668,1.873,8.5819,51.5919,0.4168,0.0676,-0.0947,116.8783
16:45:34:969,-0.5874,1.6863,8.8834,51.4907,0.3901,0.0527,-0.1202,116.8783
16:45:34:992,-1.081,1.2861,9.5593,51.7018,0.2666,0.124,-0.0989,116.8783
16:45:35:010,-1.2012,1.212,10.4429,51.634,0.1057,0.2039,-0.0105,116.8783
16:45:35:037,-0.4056,1.8586,11.1045,51.472,0.0206,0.2145,0.0715,116.8783
16:45:35:051,-0.5946,2.0644,11.5932,51.4782,0.0812,0.1229,-0.0063,116.8783
16:45:35:070,-1.3089,1.9232,11.6435,51.3859,0.1494,0.0762,-0.0979,116.8783
16:45:35:092,-1.5314,0.9218,11.1811,51.3587,0.0419,0.1783,-0.0095,116.8783
16:45:35:111,-1.4979,-0.1418,10.8861,51.2472,-0.2851,0.2774,0.1152,116.8783
16:45:35:135,-0.9972,0.1842,11.2792,51.122,-0.7462,0.2997,0.0917,116.8783
16:45:35:151,-1.5075,0.6754,11.4993,50.8597,-0.9518,0.2156,-0.1948,116.8783
16:45:35:171,-2.4706,0.6275,11.5113,50.6997,-0.5992,-0.0698,-0.363,116.8783
16:45:35:192,-2.7123,0.0281,10.934,50.5661,-0.0379,-0.3616,-0.1671,116.8783
16:45:35:212,-2.5089,-0.8363,10.7163,50.0698,0.1664,-0.3744,0.0662,116.8783
16:45:35:236,-1.9795,-0.9559,10.666,50.1913,-0.0624,-0.1731,0.1802,116.8783
16:45:35:254,-1.1527,-0.731,10.462,49.9768,-0.316,-0.0708,0.2036,116.8783
16:45:35:274,-0.7364,-0.35,10.2323,49.8153,-0.3692,-0.188,0.129,116.8783
16:45:35:294,-0.7436,-0.0293,9.7603,49.7728,-0.2361,-0.4032,0.0236,116.8783
16:45:35:314,-0.6497,0.2106,9.1998,49.7717,-0.0348,-0.565,-0.0265,116.8783
16:45:35:339,-0.8967,0.39,8.6728,49.7415,0.1249,-0.5852,-0.0712,116.8783
16:45:35:354,-0.7531,0.8285,8.2846,49.9383,0.2549,-0.5001,-0.0212,116.8783
16:45:35:374,-0.2572,1.2455,7.8293,49.858,0.4242,-0.4351,0.0822,116.8783
16:45:35:394,0.0185,1.2814,7.4082,49.8603,0.6053,-0.4277,0.1269,116.8783
16:45:35:414,0.0903,1.212,7.0367,49.7718,0.6575,-0.4021,0.1216,116.8783
16:45:35:437,-0.128,1.1569,7.0199,49.6326,0.5457,-0.2977,0.0854,116.8783
16:45:35:454,0.0162,1.0391,7.2855,49.6495,0.404,-0.2285,0.0577,116.8783
16:45:35:477,0.2698,1.1593,7.456,49.5393,0.2698,-0.2562,-0.0137,116.8783
16:45:35:495,0.2602,1.2957,7.8538,49.3179,0.126,-0.3148,-0.1511,116.8783
16:45:35:513,0.1597,1.3723,8.6058,49.3285,-0.0092,-0.368,-0.2937,116.8783
16:45:35:539,0.2841,1.6983,9.2836,49.2831,-0.1008,-0.4224,-0.4173,116.8783
16:45:35:554,-0.1328,1.6307,10.4142,49.1609,-0.1903,-0.4234,-0.5185,116.8783
16:45:35:576,-0.6162,1.401,11.8014,48.7952,-0.2105,-0.3798,-0.4908,116.8783
16:45:35:595,-0.207,1.535,12.012,48.6633,-0.0848,-0.3126,-0.3736,116.8783
16:45:35:614,-0.082,1.0343,12.2949,48.3164,0.0919,-0.1891,-0.3822,116.8783
16:45:35:637,0.1214,0.9003,12.4816,48.1006,0.274,-0.2136,-0.3917,116.8783
16:45:35:655,1.3119,0.5527,12.4193,48.1443,0.3731,-0.2977,-0.2969,116.8783
16:45:35:676,2.2319,0.3206,12.2973,47.8055,0.3252,-0.3371,-0.3896,116.8783
16:45:35:696,1.5206,0.6203,12.2016,47.5304,0.1473,-0.3105,-0.7326,116.8783
16:45:35:715,0.3942,1.4225,12.1681,47.4601,0.0823,-0.2306,-0.9178,116.8783
16:45:35:737,-0.14,1.4154,11.6961,47.6379,0.1995,-0.0889,-0.7443,116.9707
16:45:35:756,0.4977,1.0056,10.5847,47.5166,0.3177,0.0336,-0.3917,117.0846
16:45:35:776,1.1061,0.4953,9.7819,47.5672,0.2122,0.1378,-0.2076,117.2066
16:45:35:797,1.4459,0.3852,9.1831,47.4993,-0.0582,0.1602,-0.2172,117.3307
16:45:35:849,1.4722,0.3541,8.735,47.2522,-0.3458,0.1048,-0.3246,117.4577
16:45:35:851,1.1037,0.5192,8.3952,46.9836,-0.564,0.0101,-0.478,117.5914
16:45:35:857,0.792,0.6514,8.0405,47.0652,-0.6663,-0.0634,-0.5728,117.737
16:45:35:876,0.8782,0.8309,7.7121,46.9692,-0.6684,-0.0847,-0.5835,117.8972
16:45:35:897,0.6461,0.9123,7.5374,46.8715,-0.5832,-0.074,-0.6059,118.0723
16:45:35:918,0.2148,1.1396,7.5613,46.7252,-0.4438,-0.0165,-0.6059,118.2617
16:45:35:940,0.119,1.1085,7.5182,46.6679,-0.2648,0.1016,-0.5142,118.4652
16:45:35:957,0.1884,1.0869,7.5613,46.651,-0.0699,0.2241,-0.3864,118.6785
16:45:35:978,0.1286,1.1737,7.7671,46.5016,0.1238,0.3125,-0.2884,118.8973
16:45:35:998,-0.1304,0.7304,8.0333,46.6276,0.3102,0.3754,-0.1969,119.1171
16:45:36:019,0.119,0.5958,8.4479,46.3104,0.3869,0.4265,-0.0755,119.3361
16:45:36:038,0.5121,0.9027,8.8092,46.2536,0.3923,0.4126,-0.018,119.5494
