Time,Acc_X,Acc_Y,Acc_Z,Meg,Gyr_X,Gyr_Y,Gyr_Z,Ore
16:51:05:123,-0.5611,4.7761,8.3444,50.8721,-0.0742,0.0666,0.1322,-42.9681
16:51:05:144,-0.585,4.6612,8.6465,51.0508,-0.1498,0.0399,0.0353,-42.9681
16:51:05:171,-0.8728,4.4076,8.7589,50.8001,-0.1402,0.0091,-0.0744,-42.9681
16:51:05:194,-1.1432,4.1821,8.7063,50.9412,-0.0774,-0.0144,-0.1234,-42.9681
16:51:05:195,-1.1743,4.0313,8.814,51.0641,-0.0092,-0.0783,-0.0915,-42.9681
16:51:05:215,-1.0786,4.005,8.7613,50.978,0.0812,-0.1071,-0.0425,-42.9681
16:51:05:236,-1.1456,4.0792,8.5316,51.1339,0.1419,-0.0921,-0.0372,-42.9681
16:51:05:261,-1.1432,4.0313,8.5029,50.9565,0.1068,-0.1273,-0.0595,-42.8755
16:51:05:282,-1.1695,4.0146,8.7446,50.6899,0.0345,-0.1529,-0.0659,-42.7767
16:51:05:301,-1.1671,4.1007,8.7613,50.9289,0.0036,-0.0666,-0.0467,-42.6721
16:51:05:323,-1.2443,4.2203,8.6058,51.051,-0.0081,0.0644,-0.0329,-42.564
16:51:05:336,-1.2873,4.194,8.4,50.9558,-0.0166,0.1048,-0.0372,-42.4544
16:51:05:355,-1.3256,4.2849,8.4191,50.8273,-0.0156,0.041,-0.0425,-42.3406
16:51:05:379,-1.2347,4.2323,8.5651,50.8565,-0.022,-0.0676,-0.0435,-42.2216
16:51:05:398,-1.1838,4.2132,8.6201,50.69,-0.0273,-0.0975,-0.0414,-42.0973
16:51:05:423,-1.0594,4.2562,8.6441,50.8141,-0.0454,-0.0932,-0.0276,-41.9708
16:51:05:442,-0.9015,4.3065,8.8427,50.9558,-0.0784,-0.1017,-0.0254,-41.8438
16:51:05:463,-1.0068,4.3208,8.9366,50.8926,-0.0976,-0.0964,-0.051,-41.7184
16:51:05:484,-1.081,4.2634,9.2285,50.9562,-0.0955,-0.139,-0.068,-41.5969
16:51:05:503,-1.0786,4.2443,9.4295,51.0323,-0.0561,-0.1774,-0.0606,-41.4771
16:51:05:526,-1.1503,4.2754,9.4415,50.9857,0.01,-0.139,-0.0425,-41.3579
16:51:05:540,-1.0977,4.2826,9.0873,51.0188,0.0844,-0.0549,-0.0148,-41.2402
16:51:05:562,-1.1503,4.3837,8.6249,51.1581,0.1313,0.0005,-0.002,-41.1237
16:51:05:585,-1.1743,4.4913,8.3563,51.0401,0.1292,-0.0112,0.0012,-41.0076
16:51:05:602,-1.1097,4.4841,8.2726,50.9742,0.1068,-0.0485,-0.0105,-40.8915
16:51:05:625,-1.1049,4.4363,8.3563,51.0269,0.0632,-0.0836,-0.0425,-40.7733
16:51:05:645,-1.1384,4.3256,8.4407,51.1585,0.0206,-0.073,-0.0627,-40.6533
16:51:05:661,-1.2275,4.2945,8.4024,51.2664,-0.0039,-0.0389,-0.0531,-40.5316
16:51:05:681,-1.1192,4.2491,8.4431,51.3419,-0.0294,-0.0538,-0.0233,-40.4085
16:51:05:705,-1.057,4.261,8.5196,51.2316,-0.0465,-0.0836,-0.0041,-40.2833
16:51:05:723,-0.9613,4.2706,8.601,51.3262,-0.0603,-0.1028,-0.0031,-40.159
16:51:05:754,-0.9087,4.261,8.6178,51.4175,-0.071,-0.1007,-0.0063,-40.0364
16:51:05:758,-0.8082,4.2299,8.6536,51.4014,-0.0742,-0.0985,-0.0169,-39.9168
16:51:05:779,-0.8106,4.2658,8.6919,51.3025,-0.0774,-0.0847,-0.0382,-39.7999
16:51:05:800,-0.813,4.2826,8.7613,51.2062,-0.0838,-0.0911,-0.0606,-39.6875
16:51:05:821,-0.8321,4.3161,8.7541,50.9679,-0.0816,-0.0879,-0.083,-39.5774
16:51:05:843,-0.8465,4.3472,8.6752,50.9623,-0.0763,-0.0708,-0.0947,-39.4685
16:51:05:866,-0.9661,4.4243,8.6536,51.0347,-0.0806,-0.0815,-0.1021,-39.36
16:51:05:885,-0.99,4.4387,8.601,51.0404,-0.0742,-0.0921,-0.1032,-39.2508
16:51:05:900,-1.0331,4.5153,8.4622,51.1201,-0.0593,-0.0836,-0.1,-39.1384
16:51:05:921,-1.0283,4.5176,8.3803,51.3245,-0.0582,-0.0879,-0.1011,-39.0226
16:51:05:940,-1.0307,4.5272,8.3683,51.5496,-0.0624,-0.1081,-0.1138,-38.9027
16:51:05:961,-1.0786,4.5153,8.4215,51.4958,-0.0561,-0.1529,-0.1298,-38.7779
16:51:05:981,-1.0929,4.4698,8.342,51.6715,-0.0411,-0.172,-0.1383,-38.6481
16:51:06:000,-1.0427,4.3932,8.2271,51.752,-0.0379,-0.1539,-0.1362,-38.5122
16:51:06:020,-0.9733,4.2706,8.1888,51.7353,-0.0593,-0.1667,-0.1458,-38.3701
16:51:06:041,-0.8321,4.1198,8.2558,51.6978,-0.0912,-0.2072,-0.1554,-38.2227
16:51:06:061,-0.7316,4.0863,8.1123,51.5419,-0.0987,-0.2051,-0.1288,-38.0701
16:51:06:082,-0.7172,4.1007,7.6618,51.423,-0.0656,-0.1465,-0.1181,-37.9137
16:51:06:102,-0.6694,4.0313,7.5111,51.3108,-0.0678,-0.1933,-0.1607,-37.7554
16:51:06:122,-0.4989,3.7842,7.9496,51.2625,-0.1498,-0.4288,-0.2236,-37.5955
16:51:06:142,-0.1639,3.734,8.6082,51.1116,-0.2254,-0.615,-0.2044,-37.4323
16:51:06:162,0.3296,4.1653,8.9581,51.0252,-0.219,-0.5863,-0.116,-37.266
16:51:06:183,0.5599,4.5751,8.5962,51.1505,-0.1732,-0.3936,-0.0957,-37.101
16:51:06:203,0.3105,4.8479,8.2822,51.1522,-0.1956,-0.318,-0.1639,-36.9435
16:51:06:223,0.0377,5.1188,8.1817,51.1117,-0.2659,-0.3371,-0.1842,-36.791
16:51:06:243,-0.0843,5.3653,7.9328,51.1636,-0.3543,-0.2253,-0.1586,-36.6379
16:51:06:263,-0.1208,5.5214,8.0764,51.1411,-0.5811,-0.1838,-0.1778,-36.4803
16:51:06:284,-0.0532,5.4036,8.9581,51.124,-0.9539,-0.2732,-0.2268,-36.3183
16:51:06:304,0.0042,5.0949,10.0313,51.1472,-1.2499,-0.2764,-0.2129,-36.1511
16:51:06:324,0.1047,5.1045,10.7426,51.1542,-1.251,-0.1294,-0.0947,-35.9796
16:51:06:345,0.3057,5.1045,10.2658,50.7079,-0.9198,0.2379,0.0545,-35.8042
16:51:06:364,0.2243,5.1356,8.7111,50.3974,-0.4502,0.6481,0.0694,-35.6302
16:51:06:385,0.1167,5.0925,7.456,50.527,-0.1509,0.6662,-0.0435,-35.4621
16:51:06:405,0.0257,4.9011,7.1611,50.2803,-0.0816,0.321,-0.2385,-35.3006
16:51:06:426,-0.058,4.4243,7.3962,50.0542,-0.0742,-0.008,-0.4791,-35.1402
16:51:06:444,-0.3147,4.017,7.6164,49.9061,-0.0401,-0.1017,-0.6314,-34.9737
16:51:06:465,-0.4893,3.813,7.6259,49.7309,-0.0071,-0.024,-0.6112,-34.7932
16:51:06:485,-0.7531,3.9021,7.5876,49.5214,-0.022,0.0261,-0.5068,-34.5931
16:51:06:505,-0.8034,4.0361,7.6427,49.5794,-0.0806,-0.0112,-0.3811,-34.3746
16:51:06:527,-0.7771,4.5153,7.8293,49.7466,-0.1519,-0.0474,-0.2385,-34.1404
16:51:06:546,-0.7723,5.0542,7.9663,49.3857,-0.2233,-0.0336,-0.0989,-33.8963
16:51:06:565,-0.5994,5.3916,8.5627,49.4092,-0.2925,-0.0826,-0.0286,-33.6476
16:51:06:586,-0.5563,5.5023,10.2945,49.339,-0.3682,-0.3382,-0.0957,-33.3992
16:51:06:606,-0.7555,5.1882,12.1896,49.543,-0.3053,-0.5044,-0.2566,-33.1545
16:51:06:627,-1.3424,4.7833,12.798,49.4846,0.0366,-0.2754,-0.3257,-32.9114
16:51:06:648,-2.4084,4.812,12.4768,49.4528,0.4839,0.1208,-0.2001,-32.6642
16:51:06:667,-2.7673,4.4626,12.4193,49.5926,0.7426,0.0644,0.0119,-32.4085
16:51:06:688,-2.0871,4.084,12.3141,49.462,0.8012,-0.1699,0.2867,-32.1458
16:51:06:707,-1.2012,4.0887,12.6084,49.7796,0.6893,-0.3989,0.5241,-31.8834
16:51:06:728,-0.5492,3.6933,12.9512,49.8198,0.4956,-0.664,0.5294,-31.6334
16:51:06:748,0.0185,2.8911,13.4877,50.074,0.3795,-0.8547,0.3941,-31.4069
16:51:06:768,0.0855,2.266,13.9741,49.9149,0.4189,-0.8355,0.3112,-31.2059
16:51:06:788,-0.5157,2.1362,13.0971,50.165,0.6904,-0.3222,0.3771,-31.0273
16:51:06:808,-0.8608,2.2397,10.5703,50.4816,1.0089,0.5714,0.604,-30.8682
16:51:06:830,-0.7412,2.5771,8.1769,50.457,0.9493,1.058,0.7872,-30.7279
16:51:06:849,-0.5085,2.9174,7.2784,50.27,0.3976,0.9078,0.7787,-30.6144
16:51:06:870,-0.4223,2.6608,7.2592,50.2214,-0.2766,0.6971,0.5827,-30.6144
16:51:06:888,-0.5085,1.9735,7.4728,50.1737,-0.7078,0.6076,0.3451,-30.6144
16:51:06:909,-0.6718,1.4584,7.2808,50.0523,-0.7899,0.6374,0.2718,-30.6144
16:51:06:929,-0.5324,1.3149,6.6078,50.1662,-0.6503,0.7225,0.4005,-30.6144
16:51:06:950,-0.3218,1.4943,5.8367,49.9031,-0.4747,0.7257,0.5806,-30.6144
16:51:06:970,-0.1759,1.873,5.2642,49.4764,-0.3394,0.5969,0.6977,-30.6144
16:51:06:989,0.0832,2.345,4.8114,49.2935,-0.2052,0.3807,0.7361,-30.6144
16:51:07:010,0.1645,3.0634,4.4853,49.4494,-0.071,0.223,0.7105,-30.6144
16:51:07:031,0.1573,3.7603,4.5404,49.1751,-0.0316,0.1005,0.6168,-30.7045
16:51:07:079,-0.0508,4.3041,5.2235,49.1511,-0.1221,-0.0549,0.4037,-30.8174
16:51:07:080,-0.5252,4.453,6.0377,48.9985,-0.2499,-0.1262,0.113,-30.9485
16:51:07:089,-0.8417,4.2251,7.0343,48.6977,-0.3085,-0.1795,-0.1021,-31.0891
16:51:07:110,-1.2251,3.871,8.3252,48.9463,-0.3021,-0.2445,-0.1959,-31.2273
16:51:07:130,-1.8503,3.3799,9.7173,49.1611,-0.3618,-0.1742,-0.1575,-31.3551
16:51:07:150,-1.7928,3.2812,11.272,49.1976,-0.5248,-0.0591,0.0896,-31.4695
16:51:07:171,-1.0451,3.6885,13.0517,49.0455,-0.6301,-0.0772,0.3654,-31.5722
16:51:07:192,-0.1663,3.8614,14.537,48.9025,-0.5194,-0.1816,0.4133,-31.6732
16:51:07:212,0.4187,3.5306,15.0209,48.7027,-0.2073,-0.2498,0.1663,-31.7846
16:51:07:232,0.6269,2.8816,14.4676,48.779,0.1292,-0.1763,-0.132,-31.9103
16:51:07:252,0.2818,2.8959,13.1306,48.7213,0.3007,0.1804,-0.1522,-32.0411
16:51:07:272,0.2148,3.1113,11.5519,48.2842,0.1664,0.6545,0.0204,-32.1658
16:51:07:296,0.2148,3.0586,11.6004,47.9893,-0.332,0.6715,-0.0702,-32.2828
16:51:07:317,0.052,1.9184,13.1067,48.0024,-0.8836,0.2688,-0.428,-32.3995
16:51:07:336,-0.1256,0.323,13.5643,47.875,-0.9422,0.0772,-0.608,-32.5128
16:51:07:357,-0.0891,-0.3069,12.6951,47.7163,-0.4502,0.0463,-0.4088,-32.613
16:51:07:377,0.4331,0.1364,11.1093,47.6376,0.1899,0.0112,-0.0148,-32.613
16:51:07:393,0.9117,1.1061,9.5641,47.2271,0.502,-0.1784,0.162,-32.613
16:51:07:413,0.5958,1.6044,8.5077,47.1671,0.3742,-0.4309,-0.0361,-32.613
16:51:07:438,0.1262,1.5135,7.7001,47.0752,0.1174,-0.4437,-0.2852,-32.613
16:51:07:458,-0.2453,1.334,6.7657,46.8748,-0.0039,-0.2573,-0.3342,-32.613
16:51:07:478,-0.3601,1.2766,5.9635,46.7247,-0.0134,-0.1113,-0.2502,-32.613
16:51:07:497,-0.3194,1.3651,5.3695,46.7263,0.0142,-0.0783,-0.1554,-32.613
16:51:07:517,-0.1807,1.6522,4.8592,46.7159,0.0611,-0.0399,-0.0798,-32.613
16:51:07:538,0.0616,1.9184,4.5045,46.6792,0.0929,0.0815,-0.0414,-32.613
16:51:07:559,0.2435,2.2056,4.3226,46.7109,0.0855,0.2262,-0.0553,-32.613
16:51:07:578,0.3033,2.5771,4.2341,46.8623,0.0675,0.321,-0.0989,-32.613
16:51:07:602,0.4642,3.0826,4.7492,46.8003,0.0025,0.2262,-0.1863,-32.613
16:51:07:618,1.4841,3.399,6.3948,46.6072,-0.1104,-0.2083,-0.33,-32.613
16:51:07:638,1.6451,4.005,8.8235,46.6966,-0.2265,-0.6331,-0.5973,-32.613
16:51:07:658,0.5001,4.1246,11.2122,46.7315,-0.316,-0.6651,-1.0648,-32.613
16:51:07:678,-0.2189,3.3272,13.4519,46.6646,-0.2904,-0.7077,-1.5121,-32.613
16:51:07:699,-0.6305,2.5125,14.4437,46.7911,0.0579,-0.6907,-1.5611,-32.613
16:51:07:719,-1.34,2.3545,14.0459,46.7074,0.6618,-0.3499,-1.1895,-32.4996
16:51:07:739,-2.0321,2.5723,12.987,46.4952,1.1612,0.0655,-0.609,-32.3326
16:51:07:760,-2.6429,3.0562,11.8277,46.3959,1.306,0.4222,-0.051,-32.1243
16:51:07:782,-3.256,3.6933,10.6014,46.4892,1.0515,0.9291,0.3569,-31.8953
16:51:07:799,-3.5414,4.2443,9.7316,46.3828,0.4594,1.3839,0.6285,-31.6641
16:51:07:820,-3.3643,4.3837,10.3783,46.3923,-0.2723,1.254,0.735,-31.4441
16:51:07:841,-3.079,3.5713,12.2614,46.2336,-0.7877,0.5383,0.5518,-31.245
16:51:07:861,-2.7314,2.3904,13.4925,46.173,-0.7078,-0.0218,0.2292,-31.0733
16:51:07:880,-2.6716,1.8156,13.3107,46.0356,-0.1924,-0.1379,0.0012,-30.9256
16:51:07:901,-2.5208,1.7988,12.326,45.9015,0.2282,-0.2306,-0.0702,-30.7909
16:51:07:920,-1.6104,1.7462,11.2409,46.0423,0.2666,-0.3893,-0.018,-30.6592
16:51:07:940,-0.9757,1.7797,9.8943,45.8528,0.0249,-0.0751,0.0545,-30.5254
16:51:07:960,-0.99,1.5852,8.6345,45.958,-0.3756,0.468,0.0758,-30.3925
16:51:07:980,-1.1169,0.9482,7.48,45.8416,-0.7345,0.8173,0.1237,-30.2644
16:51:07:999,-1.1599,0.4738,6.2076,45.7943,-0.8548,1.0176,0.3515,-30.1403
16:51:08:021,-0.8943,0.3565,5.0339,45.6597,-0.759,0.9622,0.7318,-30.0245
16:51:08:040,-0.6981,0.74,4.7157,45.6361,-0.5885,0.4904,1.0374,-29.9273
16:51:08:061,-0.3769,1.1641,5.0985,45.8044,-0.3841,-0.2892,1.1162,-29.9273
16:51:08:079,-0.0173,1.3938,5.3695,45.5559,-0.1083,-0.7812,1.0299,-29.9273
16:51:08:099,0.2459,1.6116,5.6255,45.8276,0.1398,-0.794,0.8969,-29.9273
16:51:08:122,0.0927,2.0453,6.2417,45.6348,0.2176,-0.6481,0.7105,-29.9273
16:51:08:138,-0.3482,2.1482,7.1563,45.4657,0.1696,-0.5586,0.4612,-29.9273
16:51:08:161,-0.7914,1.8945,8.0859,45.5228,0.1814,-0.4724,0.2047,-30.0303
16:51:08:181,-1.0307,1.7438,8.2247,45.6367,0.372,-0.1933,0.1375,-30.1445
16:51:08:201,-1.2371,2.2564,8.2487,45.5554,0.5116,0.1367,0.2036,-30.2593
16:51:08:220,-1.7976,3.4086,8.9438,45.3087,0.3017,0.2571,0.2174,-30.3712
16:51:08:240,-1.6798,3.6263,10.407,45.4567,-0.1253,0.2241,0.1546,-30.4814
16:51:08:262,-1.2802,3.5234,11.4395,45.3015,-0.3724,0.2497,0.0566,-30.589
16:51:08:282,-0.9302,3.9141,12.46,45.6249,-0.4438,0.1708,-0.0052,-30.6936
16:51:08:300,-0.7507,4.2012,13.9214,45.8078,-0.5216,-0.0964,-0.133,-30.7932
16:51:08:320,-0.8919,3.8806,15.4881,45.8953,-0.6482,-0.2509,-0.3172,-30.8877
16:51:08:340,-0.7603,2.8696,15.8614,45.8514,-0.6301,-0.1529,-0.396,-30.8877
16:51:08:361,-0.3386,2.0548,16.0989,45.8645,-0.447,-0.2125,-0.3097,-30.8877
16:51:08:381,-0.1083,1.1252,15.9601,46.1804,-0.1551,-0.383,-0.1873,-30.8877
16:51:08:402,-0.1567,0.1842,14.6112,46.1958,0.2964,-0.319,-0.0329,-30.8877
16:51:08:421,0.0377,-0.3093,12.2303,46.2138,0.814,-0.1411,0.2036,-30.8877
16:51:08:441,0.548,-0.0365,10.0672,46.0065,1.0686,-0.155,0.4293,-30.8877
16:51:08:461,1.1755,0.6419,8.7374,46.1715,0.8907,-0.2541,0.522,-30.8877
16:51:08:482,1.1898,1.1833,8.0477,46.292,0.4125,-0.1582,0.3505,-30.8877
16:51:08:502,0.7035,1.1474,7.535,46.5241,-0.0891,0.1836,0.0619,-30.8877
16:51:08:522,0.2459,0.9649,6.6939,46.939,-0.3799,0.5543,-0.1,-30.8877
16:51:08:542,-0.0078,0.9577,5.9133,46.9798,-0.4672,0.7257,-0.0851,-30.8877
16:51:08:562,-0.0987,1.142,5.2953,47.1633,-0.4353,0.7182,0.0268,-30.8877
16:51:08:583,-0.0939,1.4273,5.0315,47.1959,-0.3245,0.5692,0.1652,-30.8877
16:51:08:603,0.0544,1.8969,5.0387,47.3036,-0.1157,0.4244,0.275,-30.8877
16:51:08:623,0.0951,2.4646,5.214,47.2721,0.1739,0.3999,0.2931,-30.8877
16:51:08:643,-0.0317,2.9509,4.864,47.401,0.4892,0.516,0.2398,-30.9817
16:51:08:663,-0.3123,3.4804,4.5404,47.3826,0.6915,0.5373,0.1525,-31.0791
16:51:08:684,-0.4008,3.8734,4.4447,47.1762,0.6096,0.2337,0.0119,-31.1772
16:51:08:705,-0.3912,4.0959,5.5442,47.3858,0.2165,-0.2317,-0.1671,-31.2702
16:51:08:723,-0.4247,4.0457,8.0094,47.3978,-0.3043,-0.5202,-0.3332,-31.2702
16:51:08:744,-0.667,4.1701,11.284,47.6751,-0.6802,-0.4106,-0.4674,-31.2702
16:51:08:764,-1.3759,4.0026,13.2293,47.8208,-0.6333,0.0719,-0.5483,-31.2702
16:51:08:784,-2.1589,3.6215,13.5428,48.0765,-0.235,0.4105,-0.559,-31.2702
16:51:08:805,-2.1781,2.9605,13.6289,48.046,0.1537,0.19,-0.4929,-31.2702
16:51:08:825,-1.8814,2.8744,14.683,48.185,0.3145,-0.3531,-0.3907,-31.2702
16:51:08:844,-1.6798,2.9701,15.3637,48.5163,0.4019,-0.6545,-0.263,-31.2702
16:51:08:865,-1.7545,3.0658,14.6614,48.5908,0.5542,-0.3712,0.0246,-31.2702
16:51:08:884,-1.9196,3.4397,12.9559,48.8809,0.7085,0.2273,0.3569,-31.2702
16:51:08:905,-1.9316,3.5593,11.8708,49.0968,0.649,0.451,0.4964,-31.2702
16:51:08:925,-2.1709,3.4301,11.1787,49.496,0.4732,0.4286,0.4431,-31.2702
16:51:08:945,-2.674,3.2836,10.0289,49.7513,0.4061,0.4744,0.3144,-31.2702
16:51:08:966,-2.9091,3.1041,8.9557,49.933,0.339,0.3413,0.1471,-31.2702
16:51:08:986,-2.8062,2.3761,8.8714,50.2814,0.0707,-0.1039,-0.0787,-31.2702
16:51:09:006,-2.5639,1.48,9.3984,50.3123,-0.2968,-0.4991,-0.2767,-31.2702
16:51:09:025,-2.0154,0.8524,10.005,50.5049,-0.5619,-0.5522,-0.3651,-31.2702
16:51:09:046,-1.5601,0.6054,9.9326,50.5393,-0.6301,-0.0868,-0.3832,-31.2702
16:51:09:089,-1.4501,0.4331,8.6656,50.4954,-0.5363,0.6672,-0.3449,-31.2702
16:51:09:090,-2.0273,0.3948,6.7442,50.4283,-0.4161,1.3359,-0.2214,-31.2702
16:51:09:106,-2.4993,0.3446,5.4652,50.3258,-0.3799,1.4339,0.015,-31.2702
16:51:09:126,-2.3725,0.2871,4.8449,50.4306,-0.3458,0.926,0.3952,-31.2702
16:51:09:148,-1.9125,0.6658,4.6367,50.2502,-0.137,0.3178,0.8437,-31.2702
16:51:09:167,-1.3615,1.5996,4.8568,50.2394,0.1931,-0.1571,1.1599,-31.2702
16:51:09:190,-0.8943,2.4837,5.2116,49.9072,0.4967,-0.3936,1.2174,-31.2702
16:51:09:208,-0.7747,2.9701,5.2738,49.8636,0.6192,-0.4543,0.9863,-31.2702
16:51:09:228,-0.8536,3.0299,5.47,50.0379,0.4988,-0.4959,0.6264,-31.2702
16:51:09:248,-1.0259,3.1639,6.3637,49.8834,0.2101,-0.5383,0.3334,-31.2702
16:51:09:268,-1.2754,3.2961,7.8706,49.7909,-0.0987,-0.4682,0.1312,-31.2702
16:51:09:288,-1.517,3.1065,9.3529,49.75,-0.2947,-0.2221,-0.0148,-31.3609
16:51:09:310,-1.6726,2.8074,9.7914,49.7139,-0.3075,0.0815,-0.0755,-31.4527
16:51:09:330,-1.1312,2.7398,10.1581,49.8576,-0.284,0.0666,-0.0776,-31.4527
16:51:09:349,-0.2213,3.0299,11.9928,50.38,-0.496,-0.3904,-0.2161,-31.4527
16:51:09:369,0.2171,2.5914,14.47,50.3605,-0.8495,-0.6459,-0.5877,-31.4527
16:51:09:389,-0.5204,1.9496,14.9157,50.3238,-0.9273,-0.1603,-0.8869,-31.4527
16:51:09:410,-1.2993,2.2181,13.7246,50.2789,-0.7771,0.5841,-0.7774,-31.4527
16:51:09:430,-1.3998,2.5436,13.4327,50.4882,-0.8932,0.8631,-0.6346,-31.4527
16:51:09:451,-1.541,1.2933,14.3527,50.4489,-1.2712,0.7651,-0.7102,-31.4527
16:51:09:471,-1.8144,0.0209,14.1942,50.4277,-1.2531,0.6289,-0.5984,-31.4527
16:51:09:490,-1.3376,-0.1083,13.325,50.1869,-0.7398,0.2071,-0.1,-31.4527
16:51:09:511,-0.0604,0.1531,12.067,49.6262,-0.1146,-0.3063,0.4442,-31.4527
16:51:09:531,0.7418,0.6897,10.3639,49.338,0.2612,-0.7556,0.6221,-31.4527
16:51:09:552,1.0008,1.4201,9.6646,49.0798,0.2581,-1.088,0.4389,-31.4527
16:51:09:572,0.8518,1.5326,9.5569,48.9422,0.1142,-1.156,0.0523,-31.4527
16:51:09:592,0.3679,1.1928,8.6441,48.5253,0.1632,-0.8973,-0.298,-31.4527
16:51:09:612,-0.0221,0.9601,7.4943,48.217,0.3358,-0.5096,-0.4663,-31.4527
16:51:09:631,-0.3984,1.0774,6.6293,48.1292,0.453,-0.2029,-0.5004,-31.4527
16:51:09:653,-0.5348,1.1689,6.009,48.039,0.5116,0.0027,-0.461,-31.4527
16:51:09:671,-0.5204,1.2287,5.3575,47.9035,0.5947,0.2241,-0.3683,-31.4527
16:51:09:692,-0.5707,1.5039,4.605,48.02,0.716,0.4755,-0.2523,-31.4527
16:51:09:712,-0.667,2.0429,4.1408,48.071,0.7788,0.5607,-0.1554,-31.4527
16:51:09:732,-0.6449,2.6273,4.1862,48.0668,0.7181,0.4361,-0.1138,-31.4527
16:51:09:753,-0.7053,3.3272,4.5954,47.8354,0.5499,0.2369,-0.1703,-31.4527
16:51:09:773,-0.88,3.8997,5.8822,47.9305,0.2506,-0.0485,-0.3598,-31.4527
16:51:09:793,-1.2754,3.6718,7.9711,47.8354,-0.1061,-0.237,-0.6261,-31.4527
16:51:09:813,-2.3246,3.1663,9.8393,47.6771,-0.3543,-0.123,-0.7933,-31.4527
16:51:09:832,-3.1292,2.723,11.2624,47.7863,-0.414,-0.0005,-0.7305,-31.3596
16:51:09:853,-3.338,2.2128,12.405,47.9334,-0.3117,0.0069,-0.4876,-31.2412
16:51:09:875,-3.3135,1.7916,13.066,47.617,-0.1807,0.1218,-0.1298,-31.1004
16:51:09:896,-3.323,1.9089,13.66,47.8291,-0.1807,0.2134,0.2579,-30.9474
16:51:09:915,-3.2417,2.4215,14.4915,47.4911,-0.2499,0.1644,0.6232,-30.7948
16:51:09:935,-2.8086,2.9821,14.5466,47.1525,-0.1402,0.3114,0.9596,-30.6562
16:51:09:958,-2.1781,3.3918,14.6495,47.1329,0.0537,0.3285,1.0662,-30.5471
16:51:09:976,-1.8407,2.9103,14.8271,46.7683,0.2282,-0.024,0.8469,-30.5471
16:51:09:996,-2.214,2.4479,14.1583,46.4266,0.5691,-0.2807,0.5795,-30.5471
16:51:10:015,-2.5161,2.7135,12.4576,46.2543,1.043,-0.1411,0.5518,-30.5471
16:51:10:037,-2.3079,2.9725,10.6229,45.9897,1.1932,0.025,0.5305,-30.5471
16:51:10:056,-2.1398,2.747,9.6407,45.6799,0.7554,0.0591,0.2995,-30.5471
16:51:10:076,-2.2259,1.9041,9.2285,45.4989,0.0515,0.2816,-0.002,-30.5471
16:51:10:096,-2.3821,0.9338,8.8977,45.4959,-0.4949,0.6768,-0.1756,-30.5471
16:51:10:116,-2.4921,0.2417,8.2965,45.3694,-0.7792,1.0548,-0.1309,-30.5471
16:51:10:137,-2.5567,0.0305,7.2233,45.1167,-0.8655,1.337,0.1184,-30.5471
16:51:10:156,-2.6357,0.0616,6.0449,44.9282,-0.8261,1.3636,0.4836,-30.5471
16:51:10:176,-2.2744,0.0401,5.2092,44.3289,-0.7036,0.9398,0.8735,-30.5471
16:51:10:197,-1.6415,0.1627,4.8138,43.9726,-0.4523,0.2571,1.2291,-30.6443
16:51:10:216,-1.0738,0.5886,4.8664,43.772,-0.0976,-0.4117,1.4976,-30.777
16:51:10:237,-0.5827,1.255,5.0889,43.4799,0.2868,-0.7993,1.6434,-30.955
16:51:10:257,-0.0461,2.1314,6.0114,42.9861,0.6074,-0.7993,1.6125,-31.1823
16:51:10:276,0.3272,2.6871,6.749,42.6244,0.7522,-0.2647,1.3112,-31.4609
16:51:10:297,0.143,2.7858,7.1133,42.6844,0.6309,0.614,0.8394,-31.7878
16:51:10:317,-0.5659,2.5579,6.996,42.2975,0.2059,1.5053,0.4272,-32.1502
16:51:10:337,-1.9172,2.7278,7.2903,42.2409,-0.3948,1.9101,0.1535,-32.5316
16:51:10:357,-2.9761,2.8672,8.196,42.1594,-0.8165,1.5639,0.015,-32.9194
16:51:10:377,-3.3039,2.7978,9.5689,41.8542,-0.824,0.5756,-0.0489,-33.3062
16:51:10:397,-2.8277,2.817,11.0393,41.7832,-0.4704,-0.2732,-0.0915,-33.6906
16:51:10:417,-2.6596,2.9773,11.8564,41.6385,0.0387,-0.7791,-0.2715,-34.0723
16:51:10:438,-2.3246,2.5675,12.877,41.3716,0.2996,-1.4831,-0.5377,-34.4475
16:51:10:457,-2.08,2.1051,14.4078,40.983,0.2996,-1.9431,-0.7784,-34.8057
16:51:10:478,-1.8909,1.9328,14.6064,40.8198,0.3294,-1.6429,-0.8146,-35.1372
16:51:10:498,-1.7833,2.0859,13.3849,40.6579,0.3081,-0.7024,-0.6378,-35.4348
16:51:10:518,-1.8144,2.0094,12.2806,40.5089,-0.1168,0.2049,-0.4759,-35.6974
16:51:10:538,-2.3318,1.4034,11.4323,40.5015,-0.6674,0.8056,-0.4194,-35.9327
16:51:10:558,-2.2863,0.6514,10.6588,40.1486,-0.8527,0.7832,-0.2246,-36.1489
16:51:10:579,-1.2778,0.5551,10.0935,40.159,-0.7142,0.2241,0.1652,-36.3515
16:51:10:599,0.0568,1.2502,9.7747,39.9153,-0.5098,-0.2615,0.441,-36.5498
16:51:10:619,0.804,1.995,10.1797,39.6179,-0.4534,-0.6971,0.2718,-36.7576
16:51:10:639,1.1396,1.727,10.2227,39.2181,-0.463,-0.99,-0.2991,-36.9832
16:51:10:660,0.8758,1.2191,9.5545,39.0603,-0.333,-0.8696,-0.9125,-37.2198
16:51:10:682,0.2674,0.7926,8.4957,38.8776,-0.0784,-0.5245,-1.3077,-37.447
16:51:10:705,-0.2405,0.5025,7.0606,38.2651,0.2389,-0.1571,-1.3919,-37.642
16:51:10:723,-0.6425,0.5527,5.8678,37.982,0.5169,0.0218,-1.2608,-37.7904
16:51:10:745,-0.9709,0.7735,4.9549,37.5709,0.7085,0.0112,-1.0307,-37.8883
16:51:10:764,-1.1671,1.2024,4.3825,37.3642,0.8097,-0.0602,-0.7656,-37.8883
16:51:10:784,-1.1121,1.8323,4.136,37.3083,0.7873,-0.1433,-0.511,-37.8883
16:51:10:804,-0.7699,2.5579,4.675,37.286,0.6117,-0.2477,-0.3193,-37.8883
16:51:10:824,-0.6425,3.0849,5.4748,37.0652,0.339,-0.2381,-0.2672,-37.8883
16:51:10:845,-0.923,3.4205,6.335,36.9221,0.0313,-0.1742,-0.364,-37.8883
16:51:10:861,-1.3831,3.4971,7.8174,36.8409,-0.2957,-0.2487,-0.4684,-37.8883
16:51:10:886,-1.8191,3.2716,9.9661,36.9135,-0.5704,-0.4394,-0.494,-37.8883
16:51:10:905,-2.2744,3.0491,11.9665,36.8482,-0.6493,-0.5288,-0.4237,-37.7916
16:51:10:925,-2.4849,2.8241,13.4734,36.7514,-0.4023,-0.566,-0.2704,-37.6809
16:51:10:944,-2.3677,2.7715,14.1823,36.549,0.1036,-0.5639,-0.068,-37.5602
16:51:10:965,-2.1302,2.9246,14.1081,36.4069,0.6256,-0.5138,0.129,-37.4336
16:51:10:984,-2.1637,3.3631,13.7468,36.274,0.945,-0.4959,0.2995,-37.3069
16:51:11:006,-2.2331,3.9141,13.3896,36.0066,1.0206,-0.3787,0.5092,-37.1866
16:51:11:024,-2.0919,4.3232,12.9488,36.0983,0.8971,-0.1731,0.6722,-37.0764
16:51:11:046,-1.7498,4.0816,13.0373,35.921,0.6085,-0.2157,0.6541,-36.9826
16:51:11:065,-1.6678,3.2548,13.4614,35.7136,0.3784,-0.4426,0.5007,-36.9826
16:51:11:112,-1.8287,2.5316,13.1019,35.9026,0.4668,-0.3542,0.3963,-36.9826
16:51:11:114,-2.0273,2.266,11.4132,36.0004,0.7714,0.1815,0.4314,-36.9826
16:51:11:125,-1.8191,2.4359,9.4588,36.1086,0.8246,0.6534,0.5443,-36.9826
16:51:11:144,-1.3161,2.4287,8.2223,36.0793,0.3976,0.7385,0.5433,-36.9826
16:51:11:163,-0.9182,2.2128,7.7958,36.4014,-0.2979,0.7459,0.359,-36.9826
16:51:11:184,-0.7507,1.7797,7.8221,36.4066,-0.9305,0.8525,0.1461,-36.9826
16:51:11:205,-0.9829,1.1569,7.5541,36.5469,-1.2435,1.0101,0.0278,-36.9826
16:51:11:228,-1.0786,0.6006,6.9242,36.6729,-1.2084,1.0122,0.1248,-36.9826
16:51:11:244,-0.734,0.5671,6.1765,36.3788,-0.907,0.8301,0.4176,-36.9826
16:51:11:268,-0.5492,0.9793,5.9587,36.3102,-0.4513,0.3359,0.6967,-36.9826
16:51:11:285,-0.384,1.4225,6.1549,36.0348,0.0153,-0.3787,0.7829,-36.9826
16:51:11:308,-0.2788,1.5637,6.3302,36.1903,0.4359,-0.7983,0.6924,-37.0869
16:51:11:328,-0.396,1.6546,6.4235,35.8593,0.7256,-0.664,0.5561,-37.2144
16:51:11:346,-0.5803,1.9448,6.1262,35.974,0.7128,-0.0868,0.49,-37.361
16:51:11:368,-0.8728,2.2421,6.0497,35.8158,0.339,0.4031,0.4623,-37.5196
16:51:11:387,-1.0499,2.5866,6.4451,35.9611,-0.121,0.6449,0.4112,-37.6878
16:51:11:408,-1.1169,3.0084,7.7767,35.9617,-0.4385,0.4904,0.3282,-37.8648
16:51:11:428,-1.3065,2.9892,9.9733,36.0535,-0.5917,0.0208,0.1482,-38.0497
16:51:11:446,-1.4501,2.8648,11.7559,36.2027,-0.4747,-0.2956,-0.0009,-38.2405
16:51:11:469,-1.3998,3.344,12.6515,36.0818,-0.1306,-0.3318,-0.0553,-38.4312
16:51:11:487,-1.1988,3.8447,12.9177,36.257,0.0993,-0.3851,-0.1692,-38.6171
16:51:11:507,-0.6742,3.3344,13.1952,36.1529,-0.0262,-0.4586,-0.3907,-38.7949
16:51:11:526,-0.1184,2.6177,14.0387,36.1056,-0.3554,-0.3435,-0.5036,-38.9598
16:51:11:548,0.0664,2.2636,14.0195,35.9826,-0.5374,0.1037,-0.5206,-39.1042
16:51:11:568,-0.1059,1.6816,13.6935,36.2044,-0.5523,0.4489,-0.6676,-39.2254
16:51:11:588,-0.5013,0.524,13.605,36.3153,-0.4864,0.4222,-0.8402,-39.3262
16:51:11:608,-0.9326,-0.137,12.4816,36.4969,-0.1722,0.4063,-0.6975,-39.3262
16:51:11:628,-0.4917,-0.0102,10.2873,36.6195,0.3539,0.4542,-0.1969,-39.3262
16:51:11:649,0.6341,0.8859,8.6728,36.8268,0.6618,0.1772,0.211,-39.3262
16:51:11:668,1.2185,2.1027,8.4431,36.9959,0.4168,-0.4426,0.0875,-39.3262
16:51:11:689,0.7178,2.0309,8.4742,37.5445,-0.0923,-0.6608,-0.4727,-39.3262
16:51:11:709,-0.329,1.1157,7.9376,37.779,-0.4278,-0.4245,-0.9785,-39.3262
16:51:11:728,-0.856,0.4594,7.0487,37.8171,-0.5184,-0.1965,-1.0489,-39.3262
16:51:11:751,-0.8991,0.5264,6.3805,37.8395,-0.4747,-0.1539,-0.804,-39.3262
16:51:11:769,-0.679,0.929,6.1645,38.0295,-0.3703,-0.335,-0.477,-39.3262
16:51:11:790,-0.3984,1.4417,6.1525,38.1226,-0.1999,-0.5096,-0.2417,-39.2286
16:51:11:809,-0.1567,1.9567,6.1525,38.3512,0.0377,-0.4799,-0.1671,-39.1154
16:51:11:829,-0.0365,2.6249,6.2417,38.4503,0.2165,-0.286,-0.1842,-38.9915
16:51:11:849,0.064,3.1519,6.2465,38.4855,0.2719,-0.024,-0.2332,-38.8588
16:51:11:870,0.0592,3.5115,6.469,38.5453,0.208,0.073,-0.3236,-38.7162
16:51:11:890,0.0855,3.6861,7.7121,38.5751,0.0302,-0.2711,-0.4983,-38.561
16:51:11:909,0.1813,3.4349,9.7651,38.5926,-0.1136,-0.729,-0.7369,-38.3916
16:51:11:930,-0.0963,2.8457,11.4945,38.5988,-0.0529,-0.7088,-0.9668,-38.2021
16:51:11:950,-0.8225,2.2152,11.8397,38.8418,0.2399,-0.106,-0.9732,-37.986
16:51:11:971,-1.7928,2.074,11.5328,38.8961,0.551,0.4041,-0.7294,-37.7361
16:51:11:990,-2.2451,2.117,11.7177,39.0264,0.6639,0.2113,-0.4791,-37.4507
16:51:12:011,-2.1159,1.928,12.3667,39.1917,0.6735,-0.1561,-0.314,-37.1377
16:51:12:032,-2.3366,2.1697,12.0407,39.3848,0.6947,-0.0037,-0.2033,-36.8092
16:51:12:051,-3.1125,2.8433,11.0369,39.9569,0.5638,0.4819,-0.1128,-36.4723
16:51:12:071,-3.4122,3.1998,10.5894,40.4302,0.1675,0.7875,0.1439,-36.1304
16:51:12:093,-3.3882,3.2572,11.0058,40.769,-0.2776,0.7811,0.4485,-35.7715
16:51:12:112,-3.3039,2.7882,12.0072,41.1142,-0.5459,0.4521,0.5582,-35.4159
16:51:12:132,-3.0909,2.062,12.8865,41.2682,-0.4917,0.0932,0.5678,-35.0765
16:51:12:152,-2.8373,1.7486,12.4768,41.5417,-0.0678,0.0346,0.6743,-34.7633
16:51:12:172,-2.4156,1.8514,10.6732,41.5489,0.3603,0.2092,0.8309,-34.4756
16:51:12:193,-1.8574,2.1625,9.655,41.5647,0.3017,0.0804,0.8703,-34.2167
16:51:12:213,-1.4189,2.0812,9.993,41.7411,-0.2158,-0.3137,0.6871,-33.9861
16:51:12:234,-1.3735,1.3579,10.7163,41.8599,-0.7323,-0.4053,0.4154,-33.7848
16:51:12:253,-1.5338,0.5527,10.6493,41.974,-0.9156,-0.1316,0.3366,-33.6077
16:51:12:273,-1.7282,0.2752,9.6526,42.0349,-0.7867,0.3349,0.5177,-33.4455
16:51:12:294,-1.7952,0.2895,8.2463,42.3982,-0.5237,0.6779,0.8767,-33.3006
16:51:12:316,-1.1336,0.5384,7.1731,42.7201,-0.2393,0.63,1.2813,-33.1781
16:51:12:335,-0.1567,1.0367,6.3972,43.1496,0.0441,0.4297,1.5773,-33.1781
16:51:12:355,0.3176,1.6307,5.808,43.1008,0.2879,0.2049,1.6413,-33.1781
16:51:12:376,0.1406,2.479,5.5872,43.3044,0.4551,-0.0581,1.4976,-33.1781
16:51:12:395,-0.0245,3.1831,5.8965,43.1964,0.519,-0.4106,1.2483,-33.1781
16:51:12:416,-0.0485,3.5115,6.5575,43.4253,0.4988,-0.811,0.8852,-33.2918
16:51:12:437,-0.1974,3.3894,6.9649,43.5776,0.4445,-1.0997,0.4101,-33.4426
16:51:12:456,0.2124,2.5244,7.861,43.8422,0.4232,-1.3201,0.03,-33.616
16:51:12:476,-0.1759,2.2899,9.2142,44.0743,0.568,-1.2935,-0.1224,-33.7946
16:51:12:496,-0.5228,2.9007,10.194,44.2141,0.8374,-0.8313,0.0427,-33.9662
16:51:12:516,-0.195,3.6574,10.7833,44.4518,0.9706,-0.2051,0.226,-34.1256
16:51:12:536,0.4158,4.1844,11.3868,44.6711,0.8012,0.4872,0.1109,-34.2794
16:51:12:556,0.7633,4.194,11.5711,45.1052,0.4008,1.2114,-0.2108,-34.4331
16:51:12:577,0.1047,3.8423,11.8205,45.3892,-0.0848,1.4425,-0.625,-34.5856
16:51:12:596,-0.6497,2.7763,12.7023,45.5328,-0.4363,0.9792,-0.9391,-34.7257
16:51:12:616,-1.057,2.0764,13.2269,45.7097,-0.4545,0.3679,-0.805,-34.8385
16:51:12:636,-0.6933,1.9184,12.7837,45.8625,-0.2212,-0.0048,-0.3417,-34.8385
16:51:12:656,0.1238,1.6187,12.5462,45.8912,0.0238,-0.5138,0.0033,-34.8385
16:51:12:677,0.8949,1.2144,12.0096,46.107,0.2985,-1.0113,0.1312,-34.8385
16:51:12:697,1.3932,1.2837,10.4046,46.2017,0.6543,-0.8824,0.1706,-34.8385
16:51:12:717,1.6881,1.669,8.4407,46.4411,0.7319,-0.5863,0.0736,-34.8385
16:51:12:737,2.0112,2.2923,7.1061,46.5036,0.3379,-0.5415,-0.0915,-34.8385
16:51:12:757,1.8963,2.7571,7.2592,46.6342,-0.3767,-0.7972,-0.4045,-34.8385
16:51:12:777,1.5709,2.2564,8.263,46.8165,-1.0168,-1.1252,-0.9189,-34.8385
16:51:12:797,1.142,1.4201,8.9342,46.8319,-1.2499,-1.1539,-1.3535,-34.8385
16:51:12:818,0.4134,0.8309,8.3276,46.9011,-1.0338,-0.8164,-1.5046,-34.8385
16:51:12:837,-0.0221,0.5264,6.9888,46.9545,-0.5832,-0.368,-1.3098,-34.8385
16:51:12:858,-0.3625,0.7711,5.8128,46.7845,-0.2052,-0.0325,-0.9455,-34.7342
16:51:12:878,-0.6885,1.2933,5.3001,46.7591,-0.0869,0.0495,-0.6964,-34.5845
16:51:12:898,-0.652,1.3053,5.2187,46.8324,-0.1221,-0.0644,-0.5547,-34.4031
16:51:12:918,-0.6473,1.4512,5.1224,47.0715,-0.0976,0.0176,-0.396,-34.1993
16:51:12:938,-0.6766,1.9328,5.3886,47.0107,-0.0656,0.1666,-0.2246,-33.9787
16:51:12:959,-0.7699,2.4144,6.4786,47.2819,-0.1636,0.1176,-0.1554,-33.7473
16:51:12:979,-0.7268,2.5531,7.9017,47.4394,-0.3266,0.1059,-0.1511,-33.5087
16:51:12:999,-0.722,2.6225,9.262,47.5079,-0.4704,0.2443,-0.117,-33.2655
16:51:13:020,-0.9159,2.5053,10.7139,47.9693,-0.5385,0.4819,0.0214,-33.018
16:51:13:039,-1.4812,2.8409,11.8851,48.079,-0.4555,0.8738,0.2867,-32.769
16:51:13:059,-1.8168,3.4588,12.0838,47.99,-0.234,1.1656,0.5667,-32.5221
16:51:13:080,-1.5434,4.2179,11.6339,47.7094,0.0121,1.1859,0.7094,-32.2878
16:51:13:131,-0.9254,4.8311,11.8397,47.8112,0.1079,0.8343,0.6583,-32.0758
16:51:13:134,-0.6257,5.0375,12.4983,47.5776,0.1206,0.3423,0.409,-31.8917
16:51:13:142,-0.868,4.9585,12.7573,47.5211,0.175,0.0336,0.1344,-31.7334
16:51:13:160,-1.3543,5.0806,12.618,47.5688,0.2463,-0.0399,-0.0286,-31.5913
16:51:13:181,-1.5817,4.6684,13.1617,47.4328,0.1707,-0.2083,-0.2278,-31.4539
16:51:13:201,-1.6893,3.5402,14.0411,47.5456,0.027,-0.5596,-0.5228,-31.3165
16:51:13:222,-2.2648,2.1505,14.2038,47.6112,0.0993,-0.6608,-0.7475,-31.1721
16:51:13:241,-3.1531,0.6778,13.2915,47.7959,0.3592,-0.3126,-0.6549,-31.0111
16:51:13:262,-3.8794,0.1149,11.6698,47.9322,0.4935,0.2294,-0.2118,-30.827
16:51:13:281,-3.4409,0.0281,10.2443,48.2863,0.2698,0.4819,0.4027,-30.6224
16:51:13:301,-2.3964,0.1531,9.3099,48.5045,-0.1732,0.5746,0.8927,-30.412
16:51:13:322,-1.5577,0.6778,8.4024,48.5841,-0.5481,0.7363,1.1269,-30.2184
16:51:13:342,-0.9182,0.8453,7.6331,48.7911,-0.7025,0.7545,1.1311,-30.0623
16:51:13:362,-0.8106,0.5408,7.2808,48.7475,-0.613,0.5724,1.0204,-29.9528
16:51:13:383,-0.8082,0.4355,7.0463,48.7191,-0.3778,0.3072,1.0204,-29.9528
16:51:13:402,-0.5515,0.6275,6.5695,48.5452,-0.1136,0.0836,1.1801,-29.9528
16:51:13:422,-0.3888,1.0893,6.076,48.4696,0.1196,-0.0623,1.3293,-29.9528
16:51:13:443,-0.4463,1.5206,5.8367,48.4544,0.2826,-0.2455,1.3176,-29.9528
16:51:13:463,-0.2788,1.5948,5.9109,48.2507,0.3763,-0.4043,1.2345,-30.0693
16:51:13:484,-0.0891,1.6863,6.1669,48.0993,0.4359,-0.2871,1.162,-30.2334
16:51:13:504,-0.0604,1.9591,6.2489,47.9795,0.4114,0.0421,1.0619,-30.4416
16:51:13:523,-0.2453,2.3258,6.3924,48.0776,0.2708,0.2912,0.9097,-30.6903
16:51:13:544,-0.3817,2.5962,7.1827,48.2454,0.0515,0.3285,0.7276,-30.9766
16:51:13:564,-0.0341,2.7111,8.534,48.5108,-0.1413,0.2113,0.6061,-31.292
16:51:13:584,0.0975,3.1567,10.4501,48.5314,-0.2489,0.0879,0.4964,-31.6304
16:51:13:604,0.1525,3.5234,11.8732,48.385,-0.2382,0.1261,0.3739,-31.9897
16:51:13:624,0.7561,3.478,11.6674,48.5726,-0.071,0.3903,0.2526,-32.3659
16:51:13:644,1.5852,3.7795,12.0359,48.5379,-0.104,0.1357,0.0268,-32.7537
16:51:13:665,2.385,3.4086,13.9884,48.3892,-0.4907,-0.4405,-0.3843,-33.1499
16:51:13:685,2.0979,2.1266,15.402,48.2966,-0.7877,-0.4543,-0.8551,-33.5475
16:51:13:705,0.5551,1.5206,14.6566,48.1103,-0.5779,0.0463,-1.0393,-33.9334
16:51:13:725,-0.3912,0.9649,13.2221,47.7474,-0.1722,0.2816,-0.8923,-34.2931
16:51:13:745,-0.9302,0.2321,12.3835,47.5829,0.0015,0.073,-0.7188,-34.6149
16:51:13:765,-1.2562,-0.3643,11.1691,47.2222,0.0961,-0.0655,-0.4706,-34.9033
16:51:13:785,-1.002,-0.4265,9.4875,46.9422,0.2985,-0.1838,-0.0734,-35.1651
16:51:13:805,-0.4822,0.3565,8.2199,46.7901,0.3987,-0.6001,0.2547,-35.4147
16:51:13:826,0.2004,1.1474,8.0405,46.5629,0.1473,-1.1848,0.3208,-35.6657
16:51:13:846,0.8734,1.3149,8.1625,46.3454,-0.2723,-1.4224,0.1013,-35.9235
16:51:13:866,0.9817,1.0175,7.8491,46.1015,-0.5928,-1.2359,-0.2491,-36.19
16:51:13:887,0.7155,0.7208,8.1218,46.0426,-0.7622,-1.0411,-0.5856,-36.4584
16:51:13:906,0.4499,0.5958,8.2582,45.9879,-0.6578,-0.7184,-0.8136,-36.7158
16:51:13:926,0.1406,0.5192,7.4656,45.9187,-0.3916,-0.1166,-0.9338,-36.9498
16:51:13:947,-0.2596,0.6179,6.335,45.88,-0.2052,0.4435,-0.9114,-37.1524
16:51:13:967,-0.3194,1.0463,5.7841,45.6205,-0.1818,0.7268,-0.7529,-37.3203
16:51:13:987,-0.3075,1.6499,5.2857,45.5234,-0.3064,1.0751,-0.592,-37.4551
16:51:14:006,-0.2979,2.0931,5.3647,45.3313,-0.6184,1.4552,-0.5121,-37.5635
16:51:14:031,-0.2668,2.3737,6.4834,45.021,-0.9262,1.5426,-0.4706,-37.5635
16:51:14:052,-0.3051,2.5819,7.7599,44.6764,-0.9305,1.2008,-0.4791,-37.5635
16:51:14:071,-0.6646,2.7739,8.7805,44.3918,-0.6493,0.6278,-0.5473,-37.5635
16:51:14:088,-1.0307,2.5388,9.8824,44.1205,-0.3021,-0.0218,-0.624,-37.5635
16:51:14:111,-1.5194,2.0046,11.7966,43.7776,-0.0156,-0.6097,-0.6027,-37.5635
16:51:14:133,-1.3137,1.5781,13.864,43.525,0.2762,-0.9762,-0.3981,-37.5635
16:51:14:152,-0.8225,1.7103,14.8534,43.4357,0.7309,-1.039,-0.1032,-37.5635
16:51:14:172,0.1501,1.8826,15.2913,43.2468,1.0909,-0.9165,0.2217,-37.5635
16:51:14:192,0.4499,2.6034,15.1573,43.1929,1.1953,-0.4277,0.392,-37.5635
16:51:14:211,0.1119,3.1567,14.2834,43.0596,1.207,0.2092,0.3856,-37.5635
16:51:14:232,-0.6018,3.7005,12.6084,43.0053,1.2923,0.7939,0.3814,-37.5635
16:51:14:253,-1.3017,4.3765,10.611,43.1167,1.2975,1.156,0.4634,-37.5635
16:51:14:273,-1.6463,4.7498,9.9613,43.2224,1.06,0.9505,0.506,-37.5635
16:51:14:292,-1.541,4.194,10.6804,43.4559,0.8182,0.2688,0.3814,-37.5635
16:51:14:314,-1.7521,3.2716,11.0536,43.5733,0.8758,-0.3212,0.1067,-37.6536
16:51:14:333,-2.2816,2.6201,10.5727,43.7455,1.0622,-0.5746,-0.1362,-37.7541
16:51:14:353,-2.8564,2.1936,9.6455,44.1276,1.0196,-0.5055,-0.1724,-37.8591
16:51:14:374,-3.201,2.2349,8.869,44.4341,0.5883,-0.2551,0.0172,-37.9556
16:51:14:392,-2.7649,2.254,8.6608,44.7305,-0.0827,-0.057,0.2995,-37.9556
16:51:14:413,-1.8885,1.7318,9.408,44.8752,-0.6727,-0.1262,0.4708,-37.9556
16:51:14:434,-0.8728,1.0415,10.0672,44.8249,-0.8708,-0.2977,0.5401,-38.0584
16:51:14:454,-0.3075,0.6156,9.4756,44.889,-0.6141,-0.3063,0.6093,-38.1791
16:51:14:473,-0.0843,0.603,8.0668,44.6354,-0.1605,-0.2626,0.6743,-38.3219
16:51:14:493,-0.0245,0.6873,6.7442,44.6455,0.225,-0.4128,0.7425,-38.4896
16:51:14:514,0.1262,0.7974,6.2752,44.6344,0.4722,-0.86,0.8746,-38.6857
16:51:14:534,0.7011,0.9697,6.323,44.5842,0.7437,-1.2881,1.063,-38.9134
16:51:14:553,1.319,1.4321,6.1717,44.4806,1.0462,-1.2967,1.1642,-39.1743
16:51:14:573,1.7623,1.7533,5.7912,44.4837,1.1112,-0.7844,1.0885,-39.4721
16:51:14:594,1.7647,1.9926,5.3886,44.5894,0.8736,-0.0879,0.9118,-39.8122
16:51:14:613,1.3454,2.2612,5.2259,44.8977,0.5148,0.4755,0.6849,-40.1924
16:51:14:634,0.8279,2.5699,5.5729,45.384,0.1057,0.7917,0.4367,-40.6048
16:51:14:654,0.21,2.4287,6.3709,45.6556,-0.2723,0.8919,0.1993,-41.0371
16:51:14:676,-0.207,2.3019,7.5589,46.1357,-0.4257,0.7811,0.1141,-41.4775
16:51:14:696,-0.1328,2.9174,8.656,46.3126,-0.2947,0.5714,0.2409,-41.915
16:51:14:716,-0.0724,4.3789,9.2022,46.3948,-0.1583,0.3775,0.343,-42.3465
16:51:14:735,0.1789,5.5143,10.0122,46.4638,-0.4385,0.1037,0.1535,-42.7766
16:51:14:755,0.4977,4.6301,12.1896,46.0918,-1.0945,-0.2445,-0.3321,-43.2122
16:51:14:777,1.0415,2.9557,16.1013,46.0429,-1.5578,-0.6502,-0.6921,-43.645
16:51:14:795,1.1898,2.2373,18.5396,45.995,-1.4065,-0.4543,-0.7454,-44.0581
16:51:14:816,1.5087,2.2684,17.7494,45.785,-0.9305,0.5884,-0.5963,-44.4357
16:51:14:838,1.3334,2.1123,16.0606,45.6609,-0.6663,1.484,-0.6016,-44.7782
16:51:14:857,0.2626,1.4154,13.5835,45.4092,-0.4907,1.9877,-0.7667,-45.0932
16:51:14:876,-0.5635,0.5001,10.7402,45.248,-0.1477,1.9952,-0.7124,-45.3835
16:51:14:896,-0.7436,0.189,8.656,44.9158,0.1899,1.2828,-0.3928,-45.6442
16:51:14:916,0.0305,0.7376,8.388,44.7936,0.2719,0.1091,0.0353,-45.8782
16:51:14:936,1.063,1.7509,9.0156,44.7127,0.1547,-0.7791,0.2462,-46.0967
16:51:14:959,1.6259,2.2851,9.5354,44.6507,-0.0411,-0.9282,0.0481,-46.3146
16:51:14:976,1.4967,2.0548,9.3864,44.6851,-0.1828,-0.4767,-0.3385,-46.5407
16:51:14:997,0.7681,1.5517,8.2367,44.6925,-0.1445,0.1815,-0.6165,-46.7666
16:51:15:016,0.2602,1.2144,6.807,44.6104,0.0334,0.5767,-0.6229,-46.9803
16:51:15:039,0.0808,1.2909,5.6375,44.5133,0.2687,0.5682,-0.4407,-47.171
16:51:15:057,0.1095,1.6786,4.8233,44.6239,0.5031,0.3807,-0.2662,-47.3381
16:51:15:080,0.1047,2.0524,4.2389,44.7377,0.6767,0.1964,-0.1927,-47.4868
16:51:15:097,-0.0628,2.4526,3.5127,44.6532,0.7298,0.1272,-0.2236,-47.6231
16:51:15:160,-0.3817,2.8911,3.2686,44.6499,0.5627,0.0421,-0.3108,-47.7485
16:51:15:162,-0.4654,3.1017,4.0684,44.452,0.2154,-0.1571,-0.3896,-47.8635
16:51:15:162,-0.4415,3.2961,5.7577,44.5473,-0.0987,-0.3063,-0.4216,-47.965
16:51:15:176,-0.5731,3.5785,7.1779,44.6053,-0.2361,-0.1912,-0.4343,-47.965
16:51:15:197,-0.9972,3.8782,8.1003,44.7141,-0.2968,0.0964,-0.4173,-47.965
16:51:15:217,-1.3711,4.2754,9.1902,45.0585,-0.366,0.2039,-0.3427,-47.965
16:51:15:237,-1.4907,4.4722,10.6253,45.278,-0.4481,0.0101,-0.3481,-47.965
16:51:15:257,-1.5051,4.1629,13.0062,45.2481,-0.5481,-0.4479,-0.5292,-47.965
16:51:15:278,-1.5864,2.668,15.2243,45.2642,-0.4907,-0.8387,-0.7113,-47.965
16:51:15:297,-1.989,2.0572,16.8054,45.2765,-0.153,-0.7205,-0.5888,-47.965
16:51:15:318,-2.5161,2.333,16.3645,45.1316,0.4285,-0.3446,-0.1383,-47.965
16:51:15:338,-1.5458,2.9246,15.0162,45.295,0.7756,-0.008,0.4794,-47.965
16:51:15:360,-1.1719,3.8997,13.6768,45.3814,0.6437,0.4308,0.6786,-47.965
16:51:15:379,-1.3089,3.6957,13.5691,45.2545,0.2506,0.4031,0.4634,-47.965
16:51:15:398,-1.9651,2.7954,13.1258,45.2395,0.2186,0.3008,0.2089,-47.965
16:51:15:419,-2.473,2.4168,11.2098,45.4513,0.5712,0.4893,0.1727,-47.965
16:51:15:438,-2.6979,2.5412,8.6991,45.466,0.7415,0.7097,0.2238,-47.965
16:51:15:460,-2.5783,2.5388,7.468,45.6714,0.3699,0.5245,0.1865,-47.965
16:51:15:480,-2.1541,2.0166,7.7025,45.8797,-0.2798,0.1165,0.0427,-47.965
16:51:15:499,-1.6343,1.3268,8.388,46.0005,-0.7792,-0.1742,-0.1032,-47.965
16:51:15:520,-1.1025,0.8501,8.5938,46.0847,-0.9614,-0.171,-0.1373,-47.965
16:51:15:540,-0.935,0.6873,8.0788,46.3132,-0.9017,0.0399,-0.0542,-47.965
16:51:15:560,-0.9159,0.7113,7.0822,46.2272,-0.7089,0.222,0.1312,-48.0553
16:51:15:582,-0.8824,0.9194,6.5743,46.2137,-0.4555,0.0953,0.3771,-48.1476
16:51:15:600,-0.5922,1.1641,6.2776,46.0919,-0.1136,-0.286,0.5933,-48.2473
16:51:15:621,-0.2859,1.4369,5.8487,46.0808,0.2772,-0.549,0.7286,-48.3631
16:51:15:641,0.0473,1.9017,5.8726,45.7974,0.5201,-0.63,0.7574,-48.501
16:51:15:661,0.186,2.2008,5.796,45.6914,0.5595,-0.3798,0.6807,-48.6631
16:51:15:681,-0.1448,2.3498,5.3647,45.5567,0.4125,0.1005,0.5124,-48.848
16:51:15:702,-0.4654,2.3641,5.5202,45.5148,0.0876,0.3583,0.3377,-49.0527
16:51:15:721,-0.609,2.4383,6.4068,45.7877,-0.2233,0.3881,0.2185,-49.2701
16:51:15:742,-0.88,2.6154,7.9256,45.8584,-0.415,0.3317,0.1173,-49.4974
16:51:15:762,-1.1312,2.5364,9.6694,45.9894,-0.4875,0.1751,0.0182,-49.7298
16:51:15:782,-0.9613,2.6345,11.3414,46.1418,-0.3959,0.0357,-0.0009,-49.9623
16:51:15:803,-0.4606,3.2548,12.6538,46.5858,-0.2254,-0.0421,0.0214,-50.1918
16:51:15:822,-0.4989,3.9308,13.1713,46.8235,-0.1274,-0.1262,-0.181,-50.4209
16:51:15:843,-0.7316,3.4349,13.7803,47.1603,-0.2563,-0.188,-0.5963,-50.65
16:51:15:863,-1.2945,2.4837,14.5729,47.102,-0.4108,-0.0889,-0.8168,-50.8701
16:51:15:882,-1.8479,2.6704,14.1033,46.9189,-0.3266,0.2262,-0.641,-51.0684
16:51:15:902,-1.3878,3.1256,13.5332,46.9354,-0.2744,0.4446,-0.3981,-51.2375
16:51:15:924,-1.057,2.3569,14.1177,47.2703,-0.4651,0.4063,-0.4525,-51.3852
16:51:15:944,-1.3184,0.8477,14.4221,47.0711,-0.4566,0.2667,-0.5686,-51.5196
16:51:15:964,-1.0977,-0.4361,13.7898,46.9833,0.0228,-0.0559,-0.527,-51.641
16:51:15:983,-0.6018,-1.0522,12.4768,46.9311,0.6373,-0.4362,-0.3779,-51.7476
16:51:16:004,0.0927,-0.6185,10.867,46.9192,0.9375,-0.5234,-0.1288,-51.84
16:51:16:024,0.5551,0.1675,8.8953,46.9694,0.7778,-0.3084,-0.0361,-51.84
16:51:16:045,0.1262,0.9577,7.1779,47.0582,0.2996,-0.0229,-0.2236,-51.84
16:51:16:064,-0.2213,1.0223,6.7783,47.049,-0.1551,0.0847,-0.445,-51.84
16:51:16:085,-0.2572,1.0247,7.0822,46.911,-0.3138,0.0474,-0.5728,-51.84
16:51:16:105,-0.5492,1.334,6.5432,47.0352,-0.1487,0.1037,-0.6282,-51.84
16:51:16:125,-0.8847,2.0477,5.348,46.5946,0.2059,0.2603,-0.5366,-51.84
16:51:16:146,-0.8489,2.6225,4.4136,46.4914,0.5265,0.2497,-0.3268,-51.84
16:51:16:165,-0.9541,2.8624,3.731,46.304,0.7011,0.0762,-0.2214,-51.84
16:51:16:186,-1.3663,3.3081,3.7525,46.1754,0.7128,-0.1593,-0.2332,-51.84
16:51:16:206,-1.4237,3.5833,4.876,45.9185,0.4786,-0.3638,-0.2948,-51.84
16:51:16:226,-1.5505,3.2261,6.9745,45.7913,0.0601,-0.3308,-0.3268,-51.84
16:51:16:246,-1.8933,3.2501,8.869,45.4781,-0.2446,-0.0613,-0.1756,-51.84
16:51:16:266,-2.1039,3.859,10.3113,45.3044,-0.2798,0.1357,0.1077,-51.84
16:51:16:286,-2.0058,4.5248,11.126,45.6097,-0.1498,0.1953,0.3569,-51.84
16:51:16:306,-1.7234,4.9466,12.2853,45.4333,-0.0614,0.0037,0.4442,-51.84
16:51:16:326,-1.2826,4.7952,13.9956,45.3522,-0.0454,-0.4138,0.3334,-51.84
16:51:16:347,-0.7029,4.2012,15.3996,45.2553,0.1015,-0.6363,0.1184,-51.84
16:51:16:367,-1.0977,3.7268,15.3565,45.33,0.4562,-0.3542,-0.1554,-51.84
16:51:16:387,-1.8861,2.9581,14.415,45.2424,0.7895,-0.0996,-0.3321,-51.84
16:51:16:408,-2.0058,2.2947,13.0062,45.6412,1.0121,0.0005,-0.1607,-51.84
16:51:16:427,-1.8479,2.4622,11.5735,45.6745,1.076,0.1431,0.2057,-51.84
16:51:16:448,-1.788,2.5938,11.2193,45.5594,0.8204,-0.0985,0.3473,-51.84
16:51:16:468,-1.6295,1.9902,11.5735,45.4497,0.469,-0.3968,0.26,-51.84
16:51:16:488,-1.9101,1.2359,10.6923,45.559,0.4072,-0.0293,0.2174,-51.84
16:51:16:508,-2.5854,1.1809,8.8546,45.6549,0.5212,0.7481,0.3154,-51.84
16:51:16:529,-2.8493,1.4847,7.1898,45.4387,0.4317,0.9856,0.49,-51.84
16:51:16:549,-2.2403,1.8251,6.6867,45.3786,0.0643,0.4233,0.6327,-51.84
16:51:16:569,-1.0068,1.8371,7.3675,45.0835,-0.3639,-0.3201,0.6338,-51.84
16:51:16:589,-0.2453,1.7486,8.3396,45.0417,-0.6035,-0.7375,0.4421,-51.9502
16:51:16:609,-0.3123,1.7103,8.8786,44.9575,-0.5248,-0.8121,0.1972,-52.0842
16:51:16:630,-0.4319,1.4752,8.4239,44.9531,-0.1445,-0.647,0.0854,-52.2364
16:51:16:649,-0.4415,1.3364,7.8197,44.7392,0.2815,-0.3861,0.096,-52.3967
16:51:16:669,-0.4367,1.4895,6.8524,44.55,0.5648,0.0463,0.2206,-52.5594
16:51:16:689,-0.1831,1.794,5.6351,44.6179,0.6202,0.5628,0.4975,-52.7241
16:51:16:709,0.009,2.2588,4.919,44.5823,0.4381,0.8184,0.7393,-52.8969
16:51:16:730,-0.2453,2.9749,4.9621,44.4604,0.1622,0.747,0.7893,-53.0842
16:51:16:750,-0.2644,3.387,5.6495,44.4767,-0.0188,0.5479,0.7297,-53.2944
16:51:16:770,-0.3673,3.4947,6.1262,44.4,-0.0316,0.5117,0.5795,-53.5285
16:51:16:791,-0.5157,3.5856,6.2656,44.2162,-0.0071,0.532,0.4059,-53.784
16:51:16:812,-0.7125,3.8177,6.7902,44.2237,-0.0486,0.3541,0.325,-54.0574
16:51:16:831,-1.0762,4.1988,7.7264,44.2497,-0.1189,-0.0772,0.2782,-54.3423
16:51:16:852,-1.1456,4.599,8.7374,44.0651,-0.0806,-0.3819,0.2483,-54.6361
16:51:16:871,-0.6718,4.9777,9.3745,44.2256,0.0249,-0.237,0.2377,-54.9358
16:51:16:891,-0.3864,5.2385,9.856,44.3875,-0.0007,0.0037,0.1652,-55.2402
16:51:16:913,-0.5037,5.452,11.1476,44.2484,-0.2734,-0.2019,-0.068,-55.5488
16:51:16:933,-0.3888,4.9633,13.3944,44.1957,-0.5971,-0.7791,-0.3523,-55.8648
16:51:16:953,0.4235,3.8471,14.9898,44.1525,-0.6035,-1.0635,-0.5047,-56.1752
16:51:16:973,0.7681,2.8241,15.2578,43.9696,-0.3234,-0.7024,-0.6144,-56.4686
16:51:16:992,0.5288,2.2128,14.3551,43.8167,-0.0901,-0.0282,-0.6144,-56.7416
16:51:17:013,0.0544,2.2128,13.0636,43.7631,-0.0337,0.4521,-0.396,-56.9895
16:51:17:034,0.0305,2.613,11.4873,43.5507,0.0196,0.7459,-0.0467,-57.2127
16:51:17:052,0.3535,2.7882,9.8465,43.3395,0.1398,0.7214,0.1546,-57.4192
16:51:17:073,0.4929,2.8528,8.9438,43.2492,0.1984,0.3051,-0.0201,-57.6214
16:51:17:093,0.4451,2.522,9.2166,43.0334,0.0281,-0.3808,-0.4674,-57.8267
16:51:17:116,0.2171,1.9472,9.5043,42.8856,-0.1988,-0.7525,-0.8008,-58.0278
16:51:17:136,0.0138,1.4943,8.939,42.6891,-0.2095,-0.533,-0.8189,-58.2109
16:51:17:182,-0.1831,1.5206,7.8197,42.7455,-0.0486,-0.0644,-0.6527,-58.3634
16:51:17:184,-0.3601,1.8826,6.5264,42.4369,0.0526,0.3264,-0.4727,-58.4855
16:51:17:194,-0.3529,2.3234,5.7745,42.1267,-0.0028,0.4276,-0.2959,-58.5829
16:51:17:215,-0.3458,2.6512,5.47,41.7708,-0.0806,0.3604,-0.1788,-58.5829
16:51:17:236,-0.2883,2.8816,5.3216,41.8978,-0.0614,0.2465,-0.1501,-58.5829
16:51:17:256,-0.25,3.1472,5.5681,41.849,0.0206,0.0943,-0.1788,-58.5829
16:51:17:275,-0.4199,3.4229,6.1454,41.5499,0.0983,-0.0581,-0.264,-58.5829
16:51:17:297,-0.8154,3.3703,6.3805,41.5435,0.1696,-0.1241,-0.3715,-58.5829
16:51:17:316,-1.3902,3.5928,6.5647,41.2144,0.1846,-0.1731,-0.396,-58.5829
16:51:17:338,-1.4764,3.993,7.1396,41.0384,0.1419,-0.3361,-0.2651,-58.5829
16:51:17:356,-1.2036,4.6086,8.0907,40.9936,0.0834,-0.4373,-0.0766,-58.5829
16:51:17:381,-1.0546,5.0351,8.9916,40.8344,0.0345,-0.2818,0.0481,-58.5829
16:51:17:396,-0.801,5.2409,9.6694,40.5783,0.0004,-0.0506,0.0907,-58.5829
16:51:17:415,-0.4989,5.1811,10.7928,40.3282,-0.0316,-0.0634,0.0321,-58.5829
16:51:17:436,-0.4822,4.8191,12.1561,40.2126,-0.0273,-0.3201,-0.1543,-58.5829
16:51:17:457,-0.7651,4.4674,13.3729,39.8476,0.0812,-0.5756,-0.3513,-58.5829
16:51:17:475,-1.3137,4.2419,13.8688,39.7864,0.3337,-0.4245,-0.3651,-58.5829
16:51:17:496,-1.4357,4.0696,13.188,39.7313,0.5819,0.1133,-0.1181,-58.5829
16:51:17:520,-1.2395,3.8279,12.6712,39.6285,0.5499,0.3434,0.1035,-58.5829
16:51:17:536,-1.5793,3.2937,13.0229,39.5568,0.3156,0.125,0.0768,-58.5829
16:51:17:561,-2.1374,2.9079,12.6515,39.3353,0.3145,0.1612,0.0736,-58.5829
16:51:17:577,-2.214,2.6704,10.7354,39.3023,0.5787,0.5362,0.2281,-58.5829
16:51:17:598,-2.1422,2.8481,8.8594,39.1935,0.6671,0.615,0.3272,-58.5829
16:51:17:617,-1.6104,3.0443,8.4383,39.2087,0.355,0.1186,0.3419,-58.5829
16:51:17:642,-0.9254,2.8481,8.7852,39.1362,-0.1189,-0.2849,0.276,-58.5829
16:51:17:660,-0.7962,2.4909,8.79,38.9643,-0.4971,-0.2189,0.1599,-58.5829
16:51:17:681,-0.8919,2.1817,8.5436,38.6999,-0.7121,0.0005,0.1269,-58.5829
16:51:17:698,-0.9613,2.0524,8.2989,38.5411,-0.7526,0.0719,0.2185,-58.5829
16:51:17:722,-0.6814,1.9974,8.1841,38.3177,-0.6035,-0.0613,0.3622,-58.5829
16:51:17:742,-0.1376,2.0836,7.8634,38.2107,-0.2744,-0.1262,0.5188,-58.5829
16:51:17:760,0.2913,2.4048,7.13,38.2017,0.0823,0.0208,0.6082,-58.6838
16:51:17:781,0.3823,2.7882,6.28,38.1382,0.3209,0.2305,0.588,-58.8032
16:51:17:799,0.1573,3.1017,5.5968,37.9945,0.4104,0.3754,0.4857,-58.9425
16:51:17:821,-0.1424,3.1974,5.3384,37.9896,0.3656,0.3146,0.3473,-59.0992
16:51:17:839,-0.4798,3.2716,5.5083,37.9229,0.2655,0.0794,0.2057,-59.2684
16:51:17:864,-0.5085,3.3153,6.1023,37.7526,0.1387,-0.1944,0.0992,-59.4446
16:51:17:884,-0.329,3.3559,7.3603,37.9372,-0.0294,-0.4437,0.0417,-59.6224
16:51:17:900,-0.2907,3.4445,9.0802,37.9095,-0.0997,-0.5543,0.0055,-59.7983
16:51:17:921,-0.3984,3.655,9.8513,37.8802,0.0643,-0.3819,0.0321,-59.9707
16:51:17:941,-0.3577,4.0241,9.5641,37.7238,0.2921,-0.0666,0.0981,-60.1387
16:51:17:962,-0.4343,4.52,9.073,37.7135,0.3113,0.1367,0.0747,-60.303
16:51:17:981,-0.5492,5.1356,9.5545,37.7777,0.0377,0.0091,-0.034,-60.466
16:51:18:001,-0.5659,5.4425,11.3462,37.9212,-0.3458,-0.335,-0.1756,-60.6258
16:51:18:021,-0.329,5.0734,12.676,37.901,-0.5141,-0.4522,-0.2767,-60.7787
16:51:18:041,0.1023,4.3352,12.7717,37.7315,-0.4246,-0.1486,-0.3278,-60.9195
16:51:18:061,0.4062,3.5019,12.8243,37.5054,-0.3756,0.0687,-0.4216,-61.0467
16:51:18:083,0.2339,2.7667,13.416,37.3728,-0.4406,-0.0037,-0.5153,-61.1577
16:51:18:101,0.3416,1.8275,12.9416,37.0511,-0.3511,0.0623,-0.4162,-61.2508
16:51:18:121,0.5408,1.3292,11.854,36.6185,-0.0869,0.1282,-0.2502,-61.2508
16:51:18:142,1.0295,1.1013,11.0973,36.5513,0.0728,-0.1433,-0.1884,-61.2508
16:51:18:165,1.2568,1.2885,10.5966,36.5577,0.0558,-0.4032,-0.1586,-61.2508
16:51:18:186,0.9649,1.5805,9.7819,36.541,0.0228,-0.2583,-0.1352,-61.2508
16:51:18:203,0.4355,1.7509,8.342,36.586,0.0356,0.1069,-0.1415,-61.2508
16:51:18:225,0.253,1.8897,6.5695,36.5206,0.0505,0.435,-0.084,-61.2508
16:51:18:242,0.0257,2.4407,5.3982,36.6073,-0.0561,0.4968,-0.019,-61.2508
16:51:18:262,0.0688,2.9151,5.3312,36.8344,-0.3053,0.223,-0.0009,-61.2508
16:51:18:283,0.2004,3.1759,6.131,36.9862,-0.547,-0.1294,-0.035,-61.2508
16:51:18:305,0.2746,3.1328,6.6437,37.0313,-0.6077,-0.1316,-0.1117,-61.2508
16:51:18:323,0.1119,3.0802,6.7513,36.8969,-0.5024,0.1186,-0.2076,-61.2508
16:51:18:344,-0.2166,3.1376,6.3805,36.8053,-0.3565,0.3328,-0.2545,-61.2508
16:51:18:363,-0.2859,3.3392,6.4977,36.4734,-0.3,0.2656,-0.2406,-61.2508
16:51:18:383,-0.1663,3.5545,7.669,36.3994,-0.3703,0.0197,-0.2555,-61.2508
16:51:18:404,-0.3147,3.5067,8.5627,36.2082,-0.4161,-0.0687,-0.3417,-61.2508
16:51:18:425,-0.7364,3.3153,9.0849,36.2287,-0.3373,-0.0005,-0.3949,-61.2508
16:51:18:443,-1.0929,3.32,9.5258,36.1496,-0.2031,0.0932,-0.2927,-61.2508
16:51:18:464,-1.3759,3.5354,9.6838,35.811,-0.0806,0.2933,-0.0648,-61.2508
16:51:18:484,-1.541,3.7747,9.7364,35.6841,-0.0262,0.5096,0.1738,-61.1571
16:51:18:504,-1.4022,3.8375,10.1868,35.5511,-0.088,0.451,0.3059,-61.0583
16:51:18:525,-0.9996,3.5833,10.9819,35.605,-0.1477,0.1975,0.2941,-60.9633
16:51:18:544,-1.136,3.3416,11.933,35.7902,-0.0859,0.0538,0.2121,-60.9633
16:51:18:565,-1.9914,3.0682,12.4289,35.458,0.0611,0.0772,0.1748,-60.9633
16:51:18:585,-2.2331,2.9438,12.1992,35.2132,0.2037,0.2284,0.3377,-60.9633
16:51:18:606,-2.1015,3.2548,11.6865,35.2667,0.2314,0.418,0.5869,-60.9633
16:51:18:625,-2.123,3.3272,11.0082,35.2732,0.1015,0.4979,0.67,-60.9633
16:51:18:646,-2.1948,3.1161,10.9962,35.3939,-0.1157,0.2667,0.5422,-60.9633
16:51:18:666,-2.6907,2.5842,11.6937,35.6238,-0.2798,-0.1518,0.2537,-60.9633
16:51:18:686,-3.2512,1.9591,11.6195,35.6312,-0.2105,-0.1774,0.0917,-60.9633
16:51:18:706,-3.2728,1.5948,10.8096,35.5883,-0.0177,0.0517,0.2387,-60.9633
16:51:18:726,-2.5352,1.5757,10.1629,36.0338,0.0324,0.0719,0.5401,-60.9633
16:51:18:746,-1.0116,1.6983,10.06,36.4102,-0.0933,-0.1113,0.7606,-60.9633
16:51:18:766,0.1621,2.0692,10.0816,36.4839,-0.2371,-0.1656,0.7318,-60.9633
16:51:18:787,0.3272,2.2708,9.9446,36.536,-0.3501,0.0208,0.4527,-60.9633
16:51:18:807,-0.0197,1.4919,9.7866,36.5269,-0.3756,0.0804,0.0758,-60.9633
16:51:18:827,-0.6162,0.9984,8.9025,36.745,-0.1189,0.1431,-0.0936,-60.9633
16:51:18:848,-0.856,1.0271,7.5613,37.1101,0.3198,0.2422,0.063,-60.9633
16:51:18:868,-0.585,1.4465,6.3278,37.4416,0.7043,0.2635,0.3515,-60.9633
16:51:18:888,-0.3817,2.0979,5.403,37.6166,0.8619,0.2348,0.5113,-60.9633
16:51:18:908,-0.2907,2.8241,5.1464,37.6176,0.7213,0.0868,0.4655,-60.9633
16:51:18:929,-0.2429,3.0156,5.808,37.808,0.3891,-0.2221,0.2153,-60.9633
16:51:18:949,-0.5563,2.6106,6.7633,38.0718,0.1228,-0.3883,-0.1234,-60.9633
16:51:18:969,-1.1527,2.4766,7.3244,38.2198,0.0324,-0.1774,-0.2758,-60.9633
16:51:18:989,-1.4453,2.6345,7.6618,38.349,-0.0252,0.0506,-0.2214,-60.9633
16:51:19:009,-1.4142,2.7715,8.3013,38.4291,-0.1434,0.0549,-0.1735,-60.9633
16:51:19:029,-1.3161,2.7063,9.0443,38.3618,-0.234,-0.0538,-0.1937,-60.9633
16:51:19:048,-1.2467,2.7787,9.6838,38.3846,-0.1967,-0.073,-0.1905,-60.9633
16:51:19:068,-1.194,2.9198,10.0863,38.476,-0.071,0.0826,-0.1383,-60.9633
16:51:19:092,-1.4812,3.3607,10.1222,38.59,0.0206,0.3019,-0.0925,-60.9633
16:51:19:109,-1.7976,3.993,10.1127,38.8384,0.026,0.3967,-0.0467,-60.9633
16:51:19:129,-1.8024,4.1868,10.3041,39.101,-0.0933,0.2209,-0.0915,-60.9633
16:51:19:150,-1.2706,3.9882,11.1308,39.0848,-0.2585,-0.0858,-0.1788,-60.9633
16:51:19:203,-0.6185,3.7962,12.0694,39.2432,-0.333,-0.2434,-0.2342,-60.9633
16:51:19:204,-0.4032,3.6383,12.6419,39.3311,-0.2989,-0.1028,-0.3385,-60.9633
16:51:19:210,-0.6209,3.3248,12.6108,39.3958,-0.2563,0.1687,-0.5132,-60.9633
16:51:19:230,-1.1527,2.8193,12.2351,39.6062,-0.2233,0.369,-0.6367,-60.9633
16:51:19:250,-1.3974,1.9256,11.598,39.6909,-0.1732,0.3871,-0.6708,-60.9633
16:51:19:271,-1.2132,0.7567,11.15,39.6619,-0.1487,0.1304,-0.6836,-60.8498
16:51:19:291,-1.0451,0.0568,11.3127,39.5466,-0.2052,-0.318,-0.6815,-60.7123
16:51:19:311,-0.8345,-0.1777,11.3294,39.5981,-0.2265,-0.5351,-0.5355,-60.5512
16:51:19:332,-0.7819,-0.0293,10.2778,39.5793,-0.1019,-0.221,-0.1969,-60.3678
16:51:19:353,-0.6066,0.7974,8.2582,39.6732,0.0664,0.3306,0.1887,-60.1616
16:51:19:373,-0.3505,1.6427,6.5288,39.7918,0.0908,0.566,0.4037,-59.9515
16:51:19:392,-0.0269,2.1625,5.7458,39.8245,-0.0166,0.3317,0.4027,-59.7504
16:51:19:413,0.0305,2.5388,5.348,39.9114,-0.088,0.0368,0.276,-59.5669
16:51:19:433,-0.1926,2.9581,5.0578,39.9309,-0.0912,-0.0879,0.0917,-59.4006
16:51:19:453,-0.3673,3.1711,5.144,39.9237,-0.0901,-0.0676,-0.0872,-59.247
16:51:19:473,-0.8154,3.2548,5.2762,39.9556,-0.121,-0.0421,-0.2449,-59.0961
16:51:19:493,-1.0164,3.14,6.0975,40.0217,-0.2073,-0.2881,-0.3278,-58.9411
16:51:19:513,-1.1049,3.3153,7.4752,39.98,-0.317,-0.5767,-0.2916,-58.7761
16:51:19:534,-0.9948,3.5474,9.0419,40.0764,-0.4193,-0.4618,-0.181,-58.5996
16:51:19:555,-1.2945,3.612,10.1462,40.2245,-0.463,0.0314,-0.0936,-58.4122
16:51:19:574,-1.867,3.4014,10.2515,40.2937,-0.4246,0.5607,0.0055,-58.22
16:51:19:595,-2.2839,3.4325,10.5775,40.3584,-0.4246,0.6619,0.1589,-58.0254
16:51:19:616,-2.2068,3.3775,11.9378,40.7267,-0.4864,0.4382,0.2579,-57.8325
16:51:19:636,-2.6237,2.8839,13.2867,40.6316,-0.4577,0.3093,0.211,-57.6467
16:51:19:656,-3.6251,1.9878,13.3394,40.5418,-0.219,0.4105,0.0747,-57.4753
16:51:19:676,-4.8227,1.2359,12.1298,40.3548,0.1196,0.5948,-0.0169,-57.3138
16:51:19:696,-4.9232,0.6467,10.666,40.3552,0.3134,0.5437,0.1642,-57.1564
16:51:19:717,-4.3388,0.8453,10.4285,40.2747,0.1856,0.0708,0.5731,-56.9971
16:51:19:736,-3.1675,1.2048,11.4275,40.3116,-0.0955,-0.5469,0.9161,-56.8417
16:51:19:756,-1.9842,1.5374,12.0239,40.6522,-0.1221,-0.6896,1.1556,-56.7051
16:51:19:777,-1.2419,2.3426,11.4251,40.6322,0.1217,-0.2924,1.2483,-56.6011
16:51:19:796,-0.5779,2.7374,10.1486,40.9957,0.2772,0.0091,1.08,-56.6011
16:51:19:817,0.2028,2.9318,9.3194,41.3008,0.1888,-0.008,0.7627,-56.6011
16:51:19:836,0.5671,3.0299,8.6991,41.5569,0.0419,0.0144,0.4644,-56.6011
16:51:19:857,0.0927,3.0993,7.9041,41.5457,-0.0007,0.2039,0.1759,-56.6011
16:51:19:876,-0.5659,2.8887,6.9266,41.7215,0.0569,0.4158,-0.0489,-56.6011
16:51:19:896,-1.1916,2.5795,6.0449,41.8839,0.1249,0.4904,-0.1533,-56.6011
16:51:19:916,-1.8981,2.455,5.5513,41.8296,0.1888,0.4009,-0.1426,-56.6011
16:51:19:935,-2.6333,2.7206,5.2092,41.9932,0.3209,0.3509,-0.0382,-56.6011
16:51:19:955,-2.9904,2.9342,4.3513,42.236,0.5276,0.4393,0.1471,-56.6011
16:51:19:976,-2.7888,3.0778,3.3811,42.3562,0.6863,0.4744,0.3664,-56.6011
16:51:19:996,-3.1914,4.2586,3.8148,42.5444,0.5744,0.0591,0.4975,-56.6011
16:51:20:016,-2.9474,5.5717,6.5073,42.6926,0.0876,-0.7812,0.5081,-56.6011
16:51:20:037,-2.1637,6.0054,10.2467,42.9794,-0.4385,-1.1859,0.3707,-56.6011
16:51:20:056,-1.4812,5.4568,13.3825,43.1117,-0.6024,-0.892,0.0736,-56.6011
16:51:20:077,-1.9603,4.992,14.5849,43.2227,-0.3021,-0.2551,-0.2513,-56.6011
16:51:20:097,-2.7386,4.5224,13.6959,43.3703,0.2953,0.3956,-0.3811,-56.6011
16:51:20:117,-3.3739,4.4315,11.9593,43.3217,0.8161,0.5447,-0.3001,-56.6011
16:51:20:138,-2.9952,4.3376,10.8215,43.6169,1.0174,0.2582,-0.1352,-56.6011
16:51:20:158,-2.0871,4.3543,11.5184,43.807,0.8214,-0.2796,-0.0691,-56.6011
16:51:20:178,-1.1719,4.4243,13.2365,44.1475,0.4551,-0.581,-0.1053,-56.6011
16:51:20:198,-0.1011,3.3009,14.2857,44.0211,0.2144,-0.3403,-0.1873,-56.6011
16:51:20:219,0.4235,1.7342,14.2086,44.1213,0.1771,0.1059,-0.3118,-56.6011
16:51:20:238,0.4259,0.469,13.4279,44.176,0.2612,0.3647,-0.4035,-56.6011
16:51:20:260,0.2195,-0.1705,12.2638,44.1189,0.4274,0.3349,-0.3662,-56.6011
16:51:20:279,-0.1735,-0.0293,11.0536,44.0869,0.6224,0.1293,-0.281,-56.6011
16:51:20:299,-0.3075,0.4522,9.7723,43.9886,0.6799,-0.008,-0.2204,-56.6011
16:51:20:320,0.0114,1.0917,8.5436,44.1411,0.4626,-0.0123,-0.1991,-56.6011
16:51:20:340,0.0209,1.8802,7.9639,44.1628,0.0281,0.0176,-0.3204,-56.6011
16:51:20:360,-0.4989,2.0357,7.6307,44.2592,-0.3724,0.09,-0.6421,-56.5047
16:51:20:380,-1.3113,1.7318,7.1468,44.4545,-0.5459,0.1953,-0.969,-56.3983
16:51:20:401,-1.9819,1.5541,6.481,44.4891,-0.5077,0.2656,-1.0883,-56.2731
16:51:20:421,-2.3677,1.7031,5.8582,44.5023,-0.333,0.2561,-0.9999,-56.1186
16:51:20:441,-2.1494,2.0788,5.5178,44.6743,-0.1328,0.2241,-0.7752,-55.9323
16:51:20:461,-1.462,2.2229,6.009,44.7708,0.0569,0.2198,-0.5483,-55.7163
16:51:20:481,-1.014,2.1864,6.0927,44.4466,0.3752,0.369,-0.445,-55.478
16:51:20:501,-1.3137,2.1817,4.9932,44.2102,0.8225,0.566,-0.4397,-55.2238
16:51:20:521,-1.9579,2.4215,3.6784,44.233,1.0419,0.435,-0.4098,-54.9566
16:51:20:541,-2.6453,3.1974,3.798,44.0141,0.7245,-0.0123,-0.2948,-54.6721
16:51:20:561,-2.327,3.5761,5.851,43.907,0.0643,-0.3286,-0.1213,-54.3698
16:51:20:581,-1.9364,3.7914,8.3515,44.2037,-0.4129,-0.1933,-0.019,-54.0557
16:51:20:601,-2.1565,4.3041,9.6455,44.1167,-0.5491,0.2252,-0.0403,-53.7425
16:51:20:622,-2.5663,4.8407,10.8861,43.9655,-0.596,0.3913,-0.1202,-53.4407
16:51:20:649,-2.9186,5.1667,12.326,44.0582,-0.5651,0.3732,-0.198,-53.1511
16:51:20:662,-3.4361,5.15,12.9775,44.0245,-0.317,0.516,-0.2715,-52.8707
16:51:20:683,-4.2479,4.7282,12.3571,44.2193,0.076,0.7129,-0.3481,-52.5965
16:51:20:702,-4.9137,4.3789,11.3486,44.2896,0.3774,0.6694,-0.314,-52.3221
16:51:20:722,-5.3545,4.2634,10.9699,44.362,0.4732,0.3967,-0.133,-52.0403
16:51:20:742,-5.2947,4.2993,10.6612,44.047,0.4604,0.1762,0.1109,-51.7492
16:51:20:763,-4.6026,3.859,10.7306,44.1451,0.3411,-0.0399,0.2196,-51.4544
16:51:20:783,-4.0373,2.7691,11.6076,44.1771,0.1057,-0.2999,0.0662,-51.1646
16:51:20:807,-3.9033,1.6307,12.1394,44.1239,-0.0284,-0.3521,-0.1352,-50.8842
16:51:20:828,-3.9631,0.6849,10.989,44.0471,0.1121,-0.1933,-0.2001,-50.612
16:51:20:848,-4.1904,0.5216,9.3984,43.8732,0.2964,-0.1944,-0.1756,-50.343
16:51:20:867,-3.5007,0.6945,8.4239,43.9364,0.2112,-0.4501,-0.0254,-50.0733
16:51:20:888,-2.6764,1.3364,8.7159,43.8784,-0.1093,-0.7258,0.1482,-49.8013
16:51:20:907,-2.2672,1.6762,9.2142,43.9164,-0.3415,-0.8323,0.2089,-49.5332
16:51:20:928,-2.2116,1.7653,8.7757,43.7976,-0.284,-0.6502,0.2419,-49.2787
16:51:20:946,-1.9125,1.9328,7.8538,43.6157,-0.1296,-0.3446,0.3579,-49.042
16:51:20:968,-1.3878,2.1769,6.862,43.626,-0.0262,-0.1443,0.5337,-48.8227
16:51:20:989,-0.9278,2.4933,5.9611,43.9163,0.0558,-0.1017,0.6434,-48.6225
16:51:21:009,-0.7268,2.8074,5.348,43.9561,0.1121,-0.1965,0.6157,-48.4465
16:51:21:028,-0.935,3.0586,5.1924,43.9244,0.1132,-0.3467,0.4495,-48.2976
16:51:21:049,-1.1073,3.1161,5.348,44.0468,0.0844,-0.3659,0.2664,-48.173
16:51:21:068,-1.4285,3.0467,5.1583,44.2554,0.0654,-0.155,0.1631,-48.0663
16:51:21:090,-2.0321,3.1926,4.8401,44.2203,0.0409,0.0101,0.1333,-47.9704
16:51:21:108,-2.4203,3.2865,4.9454,44.5593,-0.0092,-0.1028,0.1461,-47.8799
16:51:21:130,-2.5496,3.3153,5.5896,44.813,-0.0486,-0.3638,0.1695,-47.8799
16:51:21:148,-2.1613,3.2166,6.5097,44.7031,-0.0678,-0.5415,0.1897,-47.8799
16:51:21:169,-1.7378,3.4014,7.9783,44.7498,-0.0656,-0.6044,0.1791,-47.8799
16:51:21:222,-1.5673,3.6814,9.3841,44.6851,-0.0465,-0.6204,0.096,-47.8799
16:51:21:225,-1.8263,4.206,10.6804,44.8208,-0.1157,-0.6363,-0.034,-47.8799
16:51:21:227,-1.9819,4.7282,11.7679,44.7351,-0.3692,-0.4522,-0.1256,-47.8799
16:51:21:251,-1.7204,5.0183,13.8712,44.9441,-0.7366,-0.1891,-0.1778,-47.8799
16:51:21:270,-1.0187,4.745,15.6054,44.9951,-0.8644,0.0634,-0.1405,-47.8799
16:51:21:287,-0.5037,4.1892,15.9171,44.8311,-0.5981,0.2113,-0.0862,-47.8799
16:51:21:311,-0.518,3.926,15.0329,44.8328,-0.1754,0.2305,-0.084,-47.8799
16:51:21:329,-0.4343,3.4445,14.0602,44.7212,0.1004,0.1197,-0.1288,-47.8799
16:51:21:349,-0.4319,2.7374,13.1354,44.7568,0.1856,0.0154,-0.1884,-47.8799
16:51:21:368,-0.597,2.1194,11.9378,44.5998,0.2399,-0.0794,-0.2076,-47.8799
16:51:21:389,-0.3027,1.5852,10.9268,44.5765,0.2889,-0.3553,-0.2076,-47.7888
16:51:21:409,0.2315,1.5446,10.5655,44.5865,0.2005,-0.6406,-0.2033,-47.6917
16:51:21:430,0.5623,1.8682,9.7173,44.3614,0.0111,-0.4735,-0.2161,-47.5889
16:51:21:449,0.2339,2.196,8.6632,44.4065,-0.1658,-0.0144,-0.3289,-47.4819
16:51:21:472,-0.0413,2.1099,7.614,44.4187,-0.2158,0.2891,-0.4503,-47.3711
16:51:21:489,-0.0891,2.129,6.2847,44.4533,-0.072,0.3881,-0.4631,-47.2521
16:51:21:511,-0.0102,2.4933,5.3025,44.4491,0.1132,0.2582,-0.4173,-47.1198
16:51:21:529,-0.0843,2.9462,5.2355,44.6508,0.1888,-0.0836,-0.4024,-46.9734
16:51:21:550,0.0138,2.9462,5.7482,44.7673,0.2005,-0.4554,-0.429,-46.8142
16:51:21:570,0.1669,2.7302,6.3709,44.7409,0.2857,-0.4618,-0.4748,-46.6417
16:51:21:591,-0.2237,2.8193,6.1238,44.7686,0.4679,-0.0218,-0.51,-46.4558
16:51:21:610,-0.655,3.2237,5.2522,44.7944,0.6,0.3988,-0.4706,-46.2558
16:51:21:632,-1.0379,3.7244,5.0004,44.7429,0.4232,0.4276,-0.4365,-46.0394
16:51:21:650,-1.1025,3.9643,5.9061,44.69,0.0089,0.1474,-0.4375,-45.8072
16:51:21:673,-1.1456,4.1749,7.7169,44.7127,-0.2371,-0.2647,-0.4375,-45.5611
16:51:21:691,-1.2921,4.4937,9.8106,44.618,-0.1732,-0.6502,-0.4503,-45.3029
16:51:21:712,-1.5601,4.6875,11.3916,44.5958,0.059,-0.6459,-0.4525,-45.0352
16:51:21:730,-1.8574,4.6014,12.2471,44.4242,0.3028,-0.3286,-0.4152,-44.7577
16:51:21:753,-2.1159,4.2921,12.5222,44.7502,0.4168,-0.0794,-0.3736,-44.471
16:51:21:773,-2.1948,3.9954,12.3236,45.1738,0.4423,0.1144,-0.264,-44.1731
16:51:21:792,-2.8708,4.2826,12.0622,45.3394,0.404,0.3008,-0.1043,-43.8649
16:51:21:812,-3.3452,4.5775,11.6459,45.7615,0.3273,0.4201,0.1237,-43.5504
16:51:21:833,-3.0455,4.3017,11.5854,46.028,0.2442,0.2944,0.2888,-43.2353
16:51:21:852,-2.8923,3.7196,12.192,46.298,0.0972,-0.0485,0.2185,-42.9285
16:51:21:873,-2.9904,2.8911,12.0287,46.393,0.0558,-0.0794,0.1429,-42.6365
16:51:21:892,-3.2177,2.479,10.7402,46.7791,0.2101,0.1879,0.1823,-42.3575
16:51:21:913,-3.1101,2.3785,9.3386,46.8476,0.3539,0.2209,0.2196,-42.0894
16:51:21:933,-3.079,2.3521,8.8379,46.7374,0.2431,-0.1529,0.129,-41.8317
16:51:21:953,-2.6836,2.0285,9.0826,47.0117,-0.0316,-0.5565,0.0513,-41.5839
16:51:21:974,-1.9986,1.7701,9.3051,46.9345,-0.2148,-0.7109,0.0907,-41.343
16:51:21:994,-1.5218,1.9161,9.2309,46.949,-0.2254,-0.631,0.2473,-41.1084
16:51:22:013,-0.8489,2.1434,8.656,46.8784,-0.12,-0.3766,0.4527,-40.8829
16:51:22:035,-0.3577,2.3713,7.7121,47.0949,-0.0092,-0.0485,0.5731,-40.6713
16:51:22:056,-0.2261,2.4718,6.7346,47.1365,0.0292,0.1357,0.5539,-40.4807
16:51:22:076,-0.3936,2.5412,6.0377,47.0655,0.0547,0.1623,0.4932,-40.3164
16:51:22:096,-0.5922,2.7715,5.4676,47.0023,0.1185,0.1612,0.5156,-40.1766
16:51:22:115,-0.5587,3.1878,5.1733,47.1491,0.175,0.1367,0.6168,-40.0569
16:51:22:136,-0.3817,3.454,5.0961,47.3371,0.1931,0.0666,0.6722,-39.9575
16:51:22:156,-0.475,4.0002,5.592,47.5204,0.1686,-0.0453,0.5763,-39.9575
16:51:22:176,-0.6114,4.1486,6.2967,47.7222,0.1228,-0.1422,0.3675,-39.9575
16:51:22:198,-0.813,3.8806,6.5719,47.8014,0.0632,-0.1103,0.1471,-39.9575
16:51:22:216,-0.9613,4.06,7.2114,47.6949,-0.0497,-0.0911,0.0736,-39.9575
16:51:22:236,-0.6042,4.5296,8.6082,47.851,-0.1647,-0.2551,0.1589,-39.9575
16:51:22:256,-0.4845,4.9561,9.813,47.9757,-0.1306,-0.3521,0.1908,-39.9575
16:51:22:276,-0.5707,5.126,10.2227,47.974,0.0494,-0.2061,0.0896,-39.9575
16:51:22:296,-0.88,5.0327,10.9125,47.9776,0.1387,-0.1933,-0.0862,-39.9575
16:51:22:316,-1.0642,4.7067,12.3619,47.9284,0.0025,-0.4479,-0.2778,-39.9575
16:51:22:336,-0.9087,4.3597,13.7827,47.697,-0.2531,-0.5586,-0.3353,-39.9575
16:51:22:357,-0.0939,3.8255,14.2397,47.7628,-0.4225,-0.2328,-0.2502,-39.9575
16:51:22:376,0.3511,3.0634,14.5705,47.8914,-0.5194,0.1378,-0.3108,-39.9575
16:51:22:397,-0.1352,2.0357,14.5179,47.8282,-0.5248,0.3519,-0.5377,-39.9575
16:51:22:416,-1.2156,1.2814,13.1282,47.6926,-0.2808,0.5746,-0.5856,-39.9575
16:51:22:437,-1.2873,1.0678,11.2026,47.5269,0.1334,0.5405,-0.2916,-39.9575
16:51:22:457,-0.1998,1.5637,9.7962,47.2997,0.4104,0.1687,0.0896,-39.9575
16:51:22:477,0.7585,2.4694,8.8116,47.0893,0.3316,-0.1337,0.2632,-39.858
16:51:22:498,0.9697,3.1854,8.3157,46.7726,-0.0049,-0.1422,0.2217,-39.7646
16:51:22:517,0.6078,3.0299,7.6594,46.5901,-0.317,0.0921,0.0662,-39.7646
16:51:22:538,0.2219,2.6608,6.5886,46.2801,-0.4182,0.3423,-0.0393,-39.7646
16:51:22:557,0.0616,2.5531,5.7864,46.1151,-0.398,0.3477,-0.0414,-39.7646
16:51:22:577,-0.207,2.735,5.6925,45.9588,-0.4353,-0.0229,-0.0744,-39.7646
16:51:22:599,-0.0293,2.7302,6.6078,45.7903,-0.4928,-0.4735,-0.1341,-39.7646
16:51:22:618,0.2171,2.735,7.7312,45.5479,-0.3511,-0.4266,-0.1469,-39.7646
16:51:22:638,0.0066,2.8217,7.3364,45.3449,0.1164,0.2358,-0.1288,-39.7646
16:51:22:658,-0.4869,2.9246,5.671,45.5411,0.6298,0.8141,-0.1138,-39.7646
16:51:22:679,-0.801,3.4229,4.8449,45.3247,0.7841,0.5628,-0.0819,-39.7646
16:51:22:699,-0.5204,3.9595,5.7338,45.0795,0.5638,-0.2434,-0.0414,-39.7646
16:51:22:720,-0.2955,4.532,7.4106,44.8642,0.2772,-0.664,0.0012,-39.6715
16:51:22:738,-0.1543,4.949,8.747,44.7512,0.1345,-0.3723,0.0715,-39.5765
16:51:22:759,-0.317,5.2768,10.0026,44.6964,0.1015,0.0453,0.1503,-39.4828
16:51:22:779,-0.4917,5.4855,11.1356,44.6869,0.1089,0.1953,0.2121,-39.4828
16:51:22:801,-0.5492,5.5837,12.1705,44.6653,0.1206,0.1293,0.1514,-39.4828
16:51:22:820,-0.5659,5.1763,12.6012,44.4372,0.1782,0.1197,-0.068,-39.4828
16:51:22:840,-1.0546,4.678,12.5151,44.4185,0.2879,0.2209,-0.2566,-39.4828
16:51:22:860,-2.3797,4.8359,12.5127,44.5755,0.339,0.3146,-0.2502,-39.4828
16:51:22:880,-3.2584,4.8939,12.2901,44.4881,0.2602,0.3892,-0.0286,-39.4828
16:51:22:901,-3.3787,4.678,11.9258,44.2067,0.1292,0.4244,0.2345,-39.3881
16:51:22:921,-3.5797,4.41,11.4969,43.9976,0.0387,0.4276,0.3622,-39.2924
16:51:22:941,-3.7591,4.2467,10.8646,44.0449,0.0866,0.4169,0.4208,-39.2924
16:51:22:960,-3.4911,3.9045,9.8273,43.8231,0.241,0.2901,0.4186,-39.2924
16:51:22:981,-2.988,3.1328,9.1208,43.6111,0.3273,-0.0943,0.2462,-39.2924
16:51:23:001,-2.5735,2.4072,8.8666,43.6568,0.2836,-0.4873,0.0459,-39.2924
16:51:23:022,-2.54,2.2325,8.2343,43.4163,0.208,-0.4937,0.0044,-39.2924
16:51:23:042,-2.6333,2.2104,7.0822,43.2254,0.1537,-0.2583,0.1194,-39.2924
16:51:23:062,-2.202,2.2421,6.131,43.233,0.076,-0.1497,0.3282,-39.2924
16:51:23:082,-1.4357,2.3809,5.5944,43.1647,-0.0731,-0.2178,0.5166,-39.2924
16:51:23:102,-0.6861,2.5531,5.7147,42.9616,-0.3106,-0.3542,0.5539,-39.2924
16:51:23:123,-0.3553,2.5244,6.4211,42.8113,-0.5843,-0.4596,0.4346,-39.2924
16:51:23:143,-0.3769,2.3593,7.13,42.6422,-0.7132,-0.3467,0.3324,-39.2924
16:51:23:164,-0.4487,2.2373,7.1731,42.2106,-0.6003,-0.0186,0.4016,-39.2924
16:51:23:184,-0.451,2.5699,6.6556,41.9657,-0.3469,0.2571,0.5678,-39.2924
16:51:23:242,-0.5468,3.1519,6.4235,41.8102,-0.1498,0.1804,0.6636,-39.2924
16:51:23:245,-0.6861,3.4971,6.6221,41.5735,-0.0209,-0.0868,0.6402,-39.2924
16:51:23:246,-0.8991,3.7771,6.9218,41.3959,0.1419,-0.2391,0.5571,-39.4066
16:51:23:264,-0.9589,4.2132,7.2497,41.3191,0.2612,-0.2328,0.4996,-39.541
16:51:23:284,-0.5587,4.5416,7.4441,41.3809,0.1899,-0.1124,0.5294,-39.6916
16:51:23:305,-0.2524,5.0255,8.2056,41.2925,-0.0838,-0.0602,0.555,-39.8558
16:51:23:324,0.0401,5.4227,9.9015,41.4744,-0.3692,-0.2051,0.4527,-40.0355
16:51:23:345,-0.082,6.0413,11.799,41.3758,-0.463,-0.3585,0.2643,-40.2304
16:51:23:364,0.0066,6.2255,13.0253,41.3638,-0.4172,-0.2434,0.0854,-40.4364
16:51:23:385,0.198,5.586,13.5212,41.3862,-0.4204,0.0037,-0.149,-40.6474
16:51:23:405,0.1741,4.587,14.1368,41.2044,-0.4704,0.0442,-0.3971,-40.856
16:51:23:426,0.1478,3.8082,14.0913,40.8611,-0.2925,0.008,-0.4695,-41.0535
16:51:23:446,0.4738,3.1974,13.0828,40.4571,0.0983,0.0378,-0.3385,-41.2319
16:51:23:465,0.8183,2.589,12.551,40.2902,0.3305,-0.0719,-0.3406,-41.3902
16:51:23:485,0.6867,1.9304,12.2471,39.7773,0.3049,-0.1667,-0.4865,-41.5343
16:51:23:506,0.4618,1.3603,11.2289,39.677,0.2921,0.008,-0.4375,-41.6639
16:51:23:526,0.7107,0.7902,9.5498,39.3548,0.372,0.1495,-0.2268,-41.7739
16:51:23:546,0.9649,1.2024,8.8187,39.0757,0.3497,-0.0911,-0.0595,-41.8671
16:51:23:566,1.4698,2.2445,8.4503,38.9857,0.1792,-0.2573,0.0747,-41.8671
16:51:23:586,1.8652,2.9055,7.6092,39.0723,-0.006,0.0325,0.0875,-41.8671
16:51:23:607,1.949,3.1232,6.5432,38.9163,-0.1839,0.3786,-0.1149,-41.9574
16:51:23:627,1.669,3.2381,6.335,38.7605,-0.4342,0.3636,-0.4312,-42.0501
16:51:23:647,1.0152,3.0467,6.9553,38.6286,-0.7664,0.0474,-0.771,-42.0501
16:51:23:668,0.5934,2.6752,7.5589,38.5318,-0.9305,-0.0932,-0.9306,-42.0501
16:51:23:688,0.1621,2.4479,8.1386,38.4333,-0.7718,0.0836,-0.9061,-42.0501
16:51:23:708,-0.2333,2.4574,7.2473,38.2842,-0.2318,0.4947,-0.7294,-42.0501
16:51:23:728,-0.6353,2.8648,6.0305,38.0583,0.3859,0.6672,-0.5206,-42.0501
16:51:23:748,-0.6377,3.3775,5.3216,37.7462,0.7607,0.3104,-0.3981,-42.0501
16:51:23:769,-0.5085,3.8495,5.3456,37.8312,0.8353,-0.2381,-0.4269,-42.0501
16:51:23:794,-0.463,4.1318,6.1119,37.729,0.6469,-0.5596,-0.5505,-42.0501
16:51:23:809,-0.463,4.2012,7.2281,37.5987,0.3592,-0.5863,-0.5739,-41.9418
16:51:23:829,-0.7172,4.745,8.4503,37.2997,0.1366,-0.318,-0.4759,-41.8131
16:51:23:849,-0.7747,5.284,9.478,37.1459,-0.0262,0.1815,-0.3332,-41.6642
16:51:23:869,-0.4654,5.4281,10.1557,37.0403,-0.2425,0.7853,-0.2619,-41.5
16:51:23:889,-0.1519,5.1404,11.2552,37.1927,-0.5576,1.2338,-0.3321,-41.3259
16:51:23:909,-0.5779,4.4985,12.0766,37.1591,-0.7355,1.4734,-0.5121,-41.1458
16:51:23:929,-1.7833,3.8614,12.4576,37.0081,-0.5949,1.3338,-0.6825,-40.9612
16:51:23:950,-2.8684,3.679,12.5797,36.879,-0.1328,0.8791,-0.6985,-40.7673
16:51:23:971,-3.4887,4.0457,11.9354,36.9165,0.486,0.5501,-0.5387,-40.5576
16:51:23:989,-3.5438,4.2132,10.8072,36.9456,0.879,0.3541,-0.3811,-40.3289
16:51:24:010,-3.7998,3.9141,10.4979,36.985,0.8108,-0.0048,-0.4471,-40.0797
16:51:24:033,-4.3675,3.2644,10.5559,37.0218,0.535,-0.2455,-0.5547,-39.8147
16:51:24:051,-4.7318,2.9246,10.3065,36.8763,0.4189,-0.1124,-0.3459,-39.5317
16:51:24:070,-4.2861,3.0275,9.14,36.8228,0.469,0.2188,0.0523,-39.2291
16:51:24:090,-3.7807,3.2429,8.3276,36.7843,0.355,0.223,0.1727,-38.9158
16:51:24:114,-3.2847,2.8313,8.4742,36.8797,-0.0337,-0.2349,-0.0254,-38.6044
16:51:24:135,-2.9976,1.9184,9.1807,36.964,-0.4427,-0.7013,-0.2672,-38.2998
16:51:24:156,-2.7745,1.2718,9.7603,37.0709,-0.629,-0.974,-0.3193,-37.9984
16:51:24:175,-2.4849,0.9601,9.88,37.1246,-0.496,-1.0614,-0.1628,-37.6958
16:51:24:197,-2.0536,1.1013,9.1543,37.0581,-0.1061,-0.9208,0.1578,-37.3927
16:51:24:214,-1.6295,1.7079,7.5805,36.9039,0.3241,-0.5012,0.5017,-37.0948
16:51:24:234,-1.1145,2.2875,5.8008,36.935,0.5403,-0.0591,0.7361,-36.8104
16:51:24:256,-0.813,2.7374,4.5308,37.1703,0.4818,0.1527,0.8277,-36.5464
16:51:24:278,-0.6981,3.1759,4.1839,37.286,0.2538,0.0591,0.8,-36.312
16:51:24:296,-0.7603,3.5498,4.538,37.4736,0.0281,-0.1454,0.686,-36.1094
16:51:24:318,-0.8369,3.859,5.1464,37.8067,-0.0848,-0.2178,0.5454,-35.9387
16:51:24:337,-0.8728,3.8662,5.7769,38.0864,-0.1178,-0.1838,0.3845,-35.7954
16:51:24:359,-1.3017,3.7077,6.3565,38.2964,-0.1423,-0.2157,0.1919,-35.672
16:51:24:376,-1.7157,3.6598,7.0989,38.4656,-0.1232,-0.3925,0.0885,-35.5623
16:51:24:399,-1.7689,3.7795,7.995,38.5881,-0.0273,-0.598,0.1109,-35.4576
16:51:24:419,-1.5577,4.4052,8.9653,38.7387,0.0654,-0.5458,0.2494,-35.3533
16:51:24:438,-1.1192,5.2217,10.2419,38.9135,0.0079,-0.3478,0.3931,-35.2493
16:51:24:459,-1.1575,5.8947,11.7344,38.9677,-0.2222,-0.2551,0.3133,-35.1516
16:51:24:480,-0.935,5.6315,13.4566,38.951,-0.5077,-0.2136,0.1194,-35.1516
16:51:24:498,-0.5133,5.0375,14.5992,38.9137,-0.5885,-0.0005,0.0523,-35.1516
16:51:24:520,-0.1974,4.6205,14.7452,38.9885,-0.381,0.3168,0.1237,-35.1516
16:51:24:538,0.0736,4.1318,13.8018,39.1931,-0.0454,0.4915,0.1684,-35.1516
16:51:24:558,0.1262,3.612,12.6084,39.0961,0.1952,0.4371,0.0268,-35.1516
16:51:24:578,0.2506,2.6393,12.3954,39.0589,0.1909,0.0474,-0.2268,-35.1516
16:51:24:598,0.1406,1.8849,12.3547,39.1235,0.1324,-0.253,-0.298,-35.1516
16:51:24:618,0.2219,1.3675,11.461,39.142,0.273,-0.3798,-0.1575,-35.1516
16:51:24:638,0.5432,1.3651,10.6038,39.0848,0.518,-0.6853,-0.0084,-35.0498
16:51:24:659,0.9697,2.007,9.6526,39.3657,0.6841,-0.9112,0.0704,-34.9407
16:51:24:677,1.2592,2.7858,8.6393,39.4999,0.6628,-0.6864,0.0385,-34.8305
16:51:24:698,0.8112,3.2865,7.0989,39.578,0.4104,-0.0165,-0.1618,-34.7228
16:51:24:719,0.1813,3.2022,5.6686,40.0334,-0.0166,0.679,-0.3747,-34.6173
16:51:24:738,-0.082,2.9294,4.9262,40.2929,-0.4044,1.0058,-0.4365,-34.504
16:51:24:760,-0.1208,2.872,5.1224,40.365,-0.6226,0.8855,-0.4184,-34.3746
16:51:24:779,-0.1591,2.8816,6.0401,40.0859,-0.6674,0.5362,-0.4035,-34.231
16:51:24:798,-0.2979,2.9294,6.8524,40.2675,-0.5088,0.3818,-0.3981,-34.0752
16:51:24:820,-0.5157,2.7111,6.6772,40.2229,-0.1242,0.6065,-0.3843,-33.9084
16:51:24:838,-0.7938,2.5795,5.6495,40.1413,0.2921,0.8546,-0.33,-33.7319
16:51:24:859,-0.9135,2.5962,4.7683,40.0061,0.4615,0.7672,-0.2278,-33.5416
16:51:24:878,-0.8058,2.7206,4.5069,39.898,0.3475,0.4222,-0.1224,-33.3372
16:51:24:899,-0.6305,3.1974,5.5561,39.9893,0.0462,0.0123,-0.0201,-33.122
16:51:24:924,-0.542,3.6933,7.1204,39.9446,-0.2371,-0.1507,0.0939,-32.9032
16:51:24:945,-0.8489,4.3956,8.5986,40.1335,-0.3735,-0.025,0.1738,-32.6847
16:51:24:961,-1.0786,4.9155,9.8369,40.1902,-0.4193,0.0431,0.2292,-32.4728
16:51:24:978,-1.2371,5.2816,11.1523,40.311,-0.4055,-0.1294,0.2324,-32.2733
16:51:25:003,-1.124,5.3462,12.2925,40.7162,-0.3021,-0.2967,0.2121,-32.088
16:51:25:018,-1.2419,5.2935,12.7765,40.7514,-0.071,-0.2509,0.2047,-31.9141
16:51:25:040,-2.0082,5.4688,12.5557,40.8403,0.2453,-0.0975,0.2047,-31.7489
16:51:25:060,-2.7242,5.586,11.7823,40.7982,0.4743,0.0123,0.2057,-31.592
16:51:25:083,-3.067,5.4036,10.9675,40.8149,0.4157,0.0378,0.1865,-31.4399
16:51:25:099,-3.0838,4.8048,10.9101,41.1157,0.0334,-0.1113,0.079,-31.2915
16:51:25:120,-3.4792,3.9188,11.7009,41.1397,-0.4651,-0.2977,-0.1149,-31.1454
16:51:25:139,-4.1019,3.1687,11.7057,41.2229,-0.6631,-0.1784,-0.1852,-30.9991
16:51:25:162,-4.2622,2.7643,10.6828,41.2213,-0.5194,0.0644,-0.0095,-30.8496
16:51:25:181,-3.7974,2.6847,9.7914,41.3886,-0.4097,-0.0261,0.2324,-30.693
16:51:25:200,-3.1962,2.6919,10.0337,41.2135,-0.5459,-0.4554,0.2941,-30.5382
16:51:25:263,-2.2187,2.0094,10.8646,41.1899,-0.7345,-0.7876,0.1961,-30.3916
16:51:25:265,-1.8479,1.6307,10.9843,41.4421,-0.7292,-0.6864,0.0779,-30.2554
16:51:25:266,-1.8239,1.3771,10.3448,41.423,-0.531,-0.3361,0.064,-30.1274
16:51:25:281,-1.7109,1.3962,8.9438,41.3528,-0.2244,0.1282,0.2494,-30.0037
16:51:25:301,-1.4261,1.6546,7.1635,41.3202,0.0812,0.582,0.5102,-29.8825
16:51:25:320,-1.1916,1.9352,5.6686,41.2542,0.2815,0.7449,0.6945,-29.7693
16:51:25:342,-0.9039,2.2373,4.73,41.2532,0.3944,0.6118,0.7787,-29.673
16:51:25:362,-0.88,2.5364,4.2604,41.4278,0.4658,0.3189,0.7425,-29.673
16:51:25:381,-0.8225,2.6608,4.2293,41.3848,0.4892,-0.0538,0.5955,-29.673
16:51:25:402,-0.6933,2.7398,4.8568,41.1465,0.3976,-0.4469,0.3973,-29.673
16:51:25:421,-0.8465,3.0275,6.5958,41.2174,0.127,-0.7961,0.1652,-29.673
16:51:25:441,-1.069,2.9509,8.0764,41.3438,-0.0965,-0.7599,0.0044,-29.673
16:51:25:462,-1.3208,2.8481,8.9222,41.3591,-0.1115,-0.466,-0.0148,-29.673
16:51:25:483,-1.6319,3.2477,9.5067,41.3366,-0.022,-0.2306,0.0854,-29.673
16:51:25:502,-1.8598,4.0816,9.6096,41.3842,0.0654,0.0815,0.2888,-29.673
16:51:25:522,-1.8383,5.1069,9.6574,41.324,0.0601,0.4435,0.522,-29.673
16:51:25:542,-1.3328,5.9234,10.4166,41.5654,-0.0593,0.5053,0.6572,-29.673
16:51:25:563,-0.5779,6.1442,11.9545,41.9045,-0.1541,0.0623,0.539,-29.673
16:51:25:583,-0.0102,5.744,14.1081,41.9114,-0.0944,-0.5937,0.162,-29.673
16:51:25:605,0.481,4.8311,15.1119,42.1189,0.1387,-0.7716,-0.2204,-29.673
16:51:25:624,0.5145,4.06,14.3599,42.1038,0.3582,-0.3904,-0.4876,-29.673
16:51:25:645,0.4522,3.1543,13.4734,42.2988,0.2165,0.0613,-0.6847,-29.673
16:51:25:664,0.387,1.7773,13.392,42.3988,-0.2393,0.435,-0.8381,-29.673
16:51:25:684,0.0305,0.524,12.9129,42.6946,-0.5088,0.7939,-0.8455,-29.673
16:51:25:705,-0.2237,-0.1155,11.1835,42.3996,-0.3639,1.0016,-0.6389,-29.673
16:51:25:725,0.1095,-0.1585,9.4511,42.1968,-0.0731,0.7726,-0.3342,-29.673
16:51:25:745,0.7226,0.3805,8.4024,42.3484,0.0951,0.2241,-0.0766,-29.673
16:51:25:764,1.1204,1.1641,7.7791,42.3081,0.0569,-0.204,0.0065,-29.673
16:51:25:786,1.0439,1.5326,7.1611,42.3306,-0.1285,-0.3158,-0.0968,-29.673
16:51:25:805,0.615,1.535,6.3063,42.2998,-0.3533,-0.1869,-0.2395,-29.673
16:51:25:826,0.2746,1.4536,5.4413,42.32,-0.5534,-0.0794,-0.2895,-29.673
16:51:25:845,0.143,1.5278,4.9741,42.0841,-0.6802,-0.1912,-0.2481,-29.5804
16:51:25:865,0.253,1.7868,5.671,42.4568,-0.7302,-0.516,-0.1799,-29.4803
16:51:25:885,0.5121,2.0046,6.6532,42.6594,-0.5779,-0.6502,-0.1362,-29.3752
16:51:25:906,0.6006,2.2612,7.1276,42.6406,-0.1093,-0.4245,-0.1064,-29.2672
16:51:25:926,0.3176,2.6082,6.6939,42.5504,0.5105,-0.1358,-0.0883,-29.1581
16:51:25:946,-0.4319,3.1256,6.0999,42.7176,0.961,-0.0559,-0.0659,-29.0474
16:51:25:967,-1.0403,3.4564,6.2919,42.8898,0.9993,-0.4351,-0.0393,-28.9344
16:51:25:986,-1.1264,3.7627,7.1252,43.1158,0.7533,-0.6513,0.0864,-28.8185
16:51:26:005,-0.7555,4.4243,7.8945,43.5075,0.3944,-0.3648,0.3558,-28.6997
16:51:26:027,-0.3338,5.4855,9.2405,43.6794,-0.0539,-0.1092,0.5497,-28.5833
16:51:26:048,-0.2094,6.015,11.1787,43.9512,-0.4395,-0.0527,0.4272,-28.4799
16:51:26:069,-0.4008,5.5095,12.8483,44.4479,-0.5035,-0.1337,0.0907,-28.4799
16:51:26:088,-0.8632,4.7163,13.5571,44.8176,-0.1764,-0.2967,-0.1895,-28.4799
16:51:26:108,-1.3639,4.2156,13.4136,45.1957,0.2857,-0.4351,-0.2651,-28.4799
16:51:26:128,-1.6391,4.1031,13.1498,45.439,0.617,-0.5298,-0.1554,-28.4799
16:51:26:148,-1.6917,4.3376,12.8507,45.5724,0.7138,-0.4628,0.0843,-28.4799
16:51:26:168,-1.6128,4.5296,12.1346,45.817,0.6106,-0.1539,0.359,-28.3821
16:51:26:189,-1.34,4.2132,11.8086,46.2147,0.3816,0.0091,0.6157,-28.288
16:51:26:209,-0.7316,3.7771,11.9354,46.3219,0.322,-0.2328,0.9161,-28.288
16:51:26:229,-0.2405,3.7364,11.485,46.4914,0.6437,-0.5607,1.2025,-28.288
16:51:26:249,-0.0604,4.0217,10.1294,46.9514,1.125,-0.647,1.3314,-28.288
16:51:26:269,0.3248,4.5464,8.5555,47.5426,1.3571,-0.7109,1.2771,-28.288
16:51:26:289,1.0558,4.9298,8.2678,48.0831,1.0409,-1.0901,1.0054,-28.288
16:51:26:309,1.4895,4.3232,8.9462,48.4177,0.3539,-1.2168,0.5443,-28.4076
16:51:26:329,1.2281,3.1974,9.6814,48.9941,-0.2563,-0.8142,0.1248,-28.566
16:51:26:351,0.6676,2.3091,9.5928,49.2713,-0.4949,-0.204,-0.0606,-28.7427
16:51:26:370,0.0257,2.0142,8.7709,49.8206,-0.4534,0.4702,-0.0126,-28.9178
16:51:26:390,-0.3218,1.8706,7.2879,50.0999,-0.3778,1.139,0.1684,-29.0824
16:51:26:410,-0.2572,1.8538,6.0736,50.3696,-0.4278,1.5394,0.4016,-29.2387
16:51:26:430,-0.0628,2.1338,5.9396,50.3824,-0.5258,1.4339,0.6104,-29.394
16:51:26:450,0.2219,2.4837,6.2704,50.3997,-0.4459,0.9494,0.6871,-29.5579
16:51:26:470,0.3823,2.8552,6.4834,50.532,-0.1445,0.3935,0.6146,-29.7377
16:51:26:490,0.5695,3.1065,6.7585,50.565,0.1931,-0.0112,0.4272,-29.9371
16:51:26:510,0.4283,3.2937,6.67,50.7865,0.4647,-0.1177,0.0917,-30.1553
16:51:26:532,0.1741,2.927,6.4594,50.8349,0.584,-0.1774,-0.315,-30.3853
16:51:26:551,-0.2142,2.6225,6.1908,51.0221,0.5329,-0.073,-0.5803,-30.6141
16:51:26:571,-0.5874,2.4455,5.7386,51.1542,0.3443,0.3253,-0.6442,-30.8267
16:51:26:592,-0.9829,2.5531,5.4365,51.3699,0.0302,0.8109,-0.6027,-31.0134
16:51:26:612,-1.4979,2.9605,5.6495,51.7162,-0.3852,1.1315,-0.5739,-31.1725
16:51:26:633,-1.9842,3.4038,6.9601,51.9812,-0.922,1.1049,-0.5473,-31.3055
16:51:26:652,-1.9771,3.4851,9.4971,52.1051,-1.3756,0.8844,-0.4514,-31.4118
16:51:26:673,-1.2227,3.5163,11.7655,52.2809,-1.4939,0.828,-0.2385,-31.4118
16:51:26:693,-0.07,3.7196,13.5763,52.4108,-1.4246,0.8077,-0.0095,-31.4118
16:51:26:713,0.1238,3.8058,14.9803,52.3137,-1.3362,0.6704,0.0214,-31.4118
16:51:26:732,-0.3505,3.789,15.9338,52.3805,-1.1881,0.3956,-0.166,-31.4118
16:51:26:754,-0.4439,2.7135,17.2893,52.3531,-1.0359,-0.0091,-0.4109,-31.4118
16:51:26:773,-0.7842,1.6164,17.1793,52.1543,-0.7526,0.0506,-0.4322,-31.4118
16:51:26:794,-1.3017,1.413,15.0042,52.0857,-0.3128,0.4648,-0.1447,-31.4118
16:51:26:814,-0.679,1.4321,13.1139,51.8625,-0.0134,0.3679,0.194,-31.4118
16:51:26:834,0.3918,1.3053,12.4217,51.6598,0.0686,-0.1848,0.2814,-31.4118
16:51:26:855,0.7346,1.3507,11.4275,51.8686,0.1121,-0.3574,0.1152,-31.4118
16:51:26:876,0.3511,1.1856,9.6957,51.7596,0.2154,-0.0996,-0.0893,-31.5052
16:51:26:898,0.3942,1.2287,7.8437,51.7624,0.3923,0.1325,-0.0734,-31.6044
16:51:26:916,0.7035,1.5541,6.1334,51.8254,0.567,0.2582,0.0395,-31.7013
16:51:26:936,0.8183,1.8778,4.8736,51.9132,0.6074,0.3381,0.0076,-31.7979
16:51:26:956,0.5168,2.0453,4.3178,52.0736,0.4977,0.3647,-0.1628,-31.8987
16:51:26:977,0.0018,2.0357,4.0923,52.1377,0.3869,0.3796,-0.3513,-32.0013
16:51:26:996,-0.4798,1.9352,3.9033,52.0322,0.372,0.3381,-0.4663,-32.0992
16:51:27:017,-0.6885,1.9567,3.7813,52.0783,0.3731,0.206,-0.4972,-32.0992
16:51:27:037,-0.8871,2.2588,4.0158,51.9062,0.2623,0.0368,-0.5281,-32.0992
16:51:27:057,-0.746,2.4383,4.809,51.9175,-0.0188,-0.0985,-0.5792,-32.0992
16:51:27:077,-0.9302,2.5412,5.7625,51.7718,-0.3863,-0.106,-0.6623,-32.0992
16:51:27:097,-1.0522,2.4239,7.1228,51.5955,-0.6652,-0.1305,-0.6911,-32.0992
16:51:27:117,-1.4668,2.5627,8.5603,51.5697,-0.7451,-0.2221,-0.6612,-32.0992
16:51:27:137,-1.788,2.8911,9.5139,51.4931,-0.6631,-0.2423,-0.6186,-32.0992
16:51:27:157,-2.1182,3.0132,10.8933,51.4978,-0.7036,-0.3648,-0.6517,-32.0992
16:51:27:175,-2.4467,2.4455,12.7717,51.4249,-0.8655,-0.5256,-0.7347,-32.0992
16:51:27:196,-2.6118,1.8921,14.3169,51.7046,-0.8591,-0.5607,-0.658,-32.0992
16:51:27:217,-2.5735,1.9472,15.0353,51.6167,-0.5587,-0.3425,-0.3853,-32.0992
16:51:27:266,-3.1507,2.7787,14.01,51.7599,-0.1072,0.2742,-0.1415,-32.0992
16:51:27:268,-3.7926,3.5665,11.9521,51.885,0.0643,0.9196,-0.0606,-32.0992
16:51:27:276,-4.0229,3.3846,11.598,51.6514,-0.3181,0.8471,-0.1373,-32.0992
16:51:27:296,-4.1139,2.3139,13.0421,51.7422,-0.7856,0.255,-0.231,-32.0992
16:51:27:318,-4.1665,1.48,14.199,51.5694,-0.7121,-0.3467,-0.1138,-32.0992
16:51:27:337,-4.255,1.2766,13.7946,51.5166,-0.0891,-0.6449,0.194,-32.0992
16:51:27:357,-3.5509,1.3579,12.9296,51.2741,0.5286,-0.6523,0.571,-32.0992
16:51:27:377,-2.3749,1.0343,11.665,51.1009,0.7458,-0.5096,0.7265,-32.0992
16:51:27:397,-1.946,0.7137,10.7019,50.7351,0.5084,-0.3286,0.6019,-32.0992
16:51:27:421,-1.6822,0.3685,9.9063,50.4983,0.1057,0.0751,0.506,-32.0992
16:51:27:438,-1.6941,0.3326,8.8331,50.3425,-0.1786,0.6726,0.4964,-32.0992
16:51:27:462,-1.5242,0.524,7.669,50.074,-0.3447,1.1763,0.5475,-32.0992
16:51:27:478,-1.3998,0.6826,6.7783,49.8549,-0.4459,1.3551,0.5816,-32.0992
16:51:27:498,-1.2826,0.4929,6.6963,49.3834,-0.3916,0.926,0.5699,-32.0992
16:51:27:522,-1.136,0.3924,7.1539,48.8874,-0.0582,0.0591,0.5944,-32.1912
16:51:27:543,-0.8608,0.4451,7.2712,48.6893,0.4839,-0.6619,0.6828,-32.3079
16:51:27:563,-0.6425,0.7448,6.8788,48.3499,1.0025,-0.8398,0.7489,-32.4466
16:51:27:579,-0.53,1.1809,5.6853,48.0197,1.2305,-0.4543,0.7574,-32.6069
16:51:27:602,-0.7125,1.602,4.5093,47.8518,1.0366,0.0399,0.6711,-32.7881
16:51:27:624,-1.069,1.5541,4.4734,47.4559,0.4935,0.2699,0.473,-32.9891
16:51:27:642,-1.6199,1.523,5.0841,47.0948,-0.0294,0.3626,0.3229,-33.207
16:51:27:664,-2.056,1.8251,6.0879,46.9866,-0.316,0.3125,0.2792,-33.4369
16:51:27:683,-2.068,2.1625,7.5829,46.9188,-0.3927,0.1005,0.2462,-33.6756
16:51:27:704,-2.1972,2.3474,9.0275,46.6318,-0.3202,-0.1028,0.1269,-33.9228
16:51:27:723,-2.1637,2.1505,9.6766,46.8333,-0.1818,-0.3542,-0.0297,-34.1778
16:51:27:743,-1.675,2.0022,10.9364,46.9465,-0.2041,-0.8292,-0.1905,-34.4363
16:51:27:763,-1.3639,1.7103,13.6457,46.999,-0.5248,-1.0987,-0.3651,-34.698
16:51:27:784,-1.4692,1.0343,15.5527,46.7188,-0.8612,-0.5575,-0.3928,-34.9585
16:51:27:803,-1.2084,0.7615,15.4044,46.6229,-0.9166,0.3285,-0.1341,-35.2119
16:51:27:823,-0.4654,1.3101,14.8582,46.4153,-0.7473,0.7768,0.1716,-35.4541
16:51:27:844,-0.1232,1.7629,14.5035,46.3058,-0.5363,0.78,0.1844,-35.6951
16:51:27:864,-0.1807,1.2718,13.4686,46.1575,-0.2467,0.7045,0.0268,-35.9458
16:51:27:884,-0.2166,0.6514,11.2744,45.7937,0.1356,0.5831,0.0001,-36.2054
16:51:27:902,0.2985,0.5168,9.3601,45.2687,0.2985,0.1463,0.014,-36.4675
16:51:27:924,0.6197,0.5097,8.9725,44.8335,0.01,-0.6236,-0.1724,-36.728
16:51:27:943,0.2961,0.0885,9.6455,44.636,-0.4236,-1.1731,-0.5313,-36.9939
16:51:27:964,-0.0796,-0.3858,10.4357,44.3968,-0.6088,-1.3627,-0.8253,-37.26
16:51:27:984,-0.5515,-0.6377,9.9111,44.208,-0.4374,-1.1603,-0.9381,-37.5093
16:51:28:005,-1.0235,-0.4869,8.3779,43.9726,-0.0838,-0.6555,-0.8008,-37.7326
16:51:28:025,-1.2203,0.0425,6.5192,43.7119,0.2421,-0.1188,-0.4535,-37.9252
16:51:28:045,-0.8704,0.9075,5.4174,43.4795,0.4019,0.0762,-0.0222,-38.0908
16:51:28:065,-0.3529,1.8945,5.2762,43.2186,0.4722,-0.0282,0.3334,-38.2463
16:51:28:085,0.5671,2.7954,5.9492,42.9145,0.5521,-0.0836,0.5454,-38.3999
16:51:28:105,1.3549,3.6861,6.064,42.5293,0.5361,0.4073,0.4698,-38.5641
16:51:28:125,1.1444,4.0696,5.9228,42.4081,0.2911,1.2093,0.0832,-38.7456
16:51:28:144,0.1454,4.084,5.8487,42.0088,0.0089,1.6512,-0.3406,-38.9411
16:51:28:165,-1.014,4.0792,6.2991,41.7442,-0.136,1.37,-0.6804,-39.1425
16:51:28:184,-2.3509,3.6263,7.995,41.4302,-0.1828,0.4574,-0.9711,-39.3297
16:51:28:205,-3.4289,2.0596,10.7091,40.9307,-0.0582,-0.5394,-1.1,-39.4913
16:51:28:225,-4.7557,0.146,13.0229,40.833,0.3582,-0.9815,-0.8498,-39.6183
16:51:28:245,-5.3139,-0.0676,13.1856,40.4721,0.8704,-0.6278,-0.1032,-39.6183
16:51:28:265,-4.1737,1.1324,12.3906,40.2057,0.9993,-0.0762,0.7276,-39.6183
16:51:28:285,-2.9904,2.5268,12.5438,40.033,0.5563,0.2529,0.9682,-39.6183
16:51:28:305,-2.5304,2.7446,13.5811,40.2363,-0.0039,0.4116,0.735,-39.6183
16:51:28:327,-2.4706,2.7206,14.0148,39.9985,-0.1125,0.4286,0.5092,-39.7353
16:51:28:345,-2.5998,2.8959,13.7755,39.7578,0.2325,0.2763,0.4016,-39.8798
16:51:28:366,-3.0383,2.5938,13.0684,39.5836,0.6628,0.1517,0.3037,-40.0439
16:51:28:386,-3.472,2.5101,11.8588,39.2654,0.879,0.3477,0.2718,-40.2211
16:51:28:406,-3.4505,2.6082,10.017,39.0821,0.8331,0.8088,0.3005,-40.4045
16:51:28:427,-3.3087,3.0634,8.2941,39.1097,0.486,1.2104,0.2888,-40.5971
16:51:28:446,-2.7793,2.8241,7.9089,38.6166,-0.1104,1.2168,0.177,-40.7979
16:51:28:467,-2.866,2.0764,8.3515,37.918,-0.6226,0.8983,-0.0798,-41.008
16:51:28:486,-3.1149,1.1665,8.6417,37.5093,-0.8048,0.4893,-0.2651,-41.228
16:51:28:508,-3.1436,0.5192,8.062,37.221,-0.6865,0.1506,-0.1937,-41.4482
16:51:28:527,-2.7745,0.4379,7.0152,36.8733,-0.4939,-0.1284,0.1226,-41.6647
16:51:28:548,-2.0512,0.7376,6.1119,36.5064,-0.381,-0.4458,0.5646,-41.8794
16:51:28:574,-1.0881,1.1641,5.7601,36.2159,-0.2947,-0.8323,0.9564,-42.101
16:51:28:589,-0.2907,1.4154,5.8487,35.8826,-0.1178,-1.2413,1.1631,-42.3435
16:51:28:609,0.2626,1.7892,6.3517,35.4523,0.1451,-1.4607,1.1844,-42.6186
16:51:28:628,0.7226,2.2875,7.3938,35.1937,0.4221,-1.5459,1.0363,-42.9313
16:51:28:649,0.5073,2.9007,8.1266,35.0169,0.7288,-1.5395,0.6647,-43.2797
16:51:28:669,-0.1472,2.9103,7.9424,34.6436,0.9045,-1.3723,0.0896,-43.6571
16:51:28:689,-0.6233,2.1649,7.7097,34.4838,0.7394,-1.1294,-0.3928,-44.0488
16:51:28:709,-0.8034,1.6863,8.1529,34.3653,0.3763,-0.8366,-0.4727,-44.4335
16:51:28:729,-0.3864,1.7844,9.0323,34.3334,0.2016,-0.5044,-0.2193,-44.7947
16:51:28:749,-0.396,2.321,9.0706,34.1683,0.3923,-0.106,0.0246,-45.1319
16:51:28:769,-0.3984,3.1998,8.4359,34.1347,0.5222,0.2752,0.2622,-45.4546
16:51:28:789,-0.4152,4.0433,8.4144,34.0249,0.2261,0.4425,0.3526,-45.7722
16:51:28:810,-0.3912,4.0768,9.7603,33.8407,-0.3,0.3477,0.2089,-46.0924
16:51:28:830,-0.3147,3.0347,11.3103,33.8214,-0.7462,0.3573,0.0747,-46.4176
16:51:28:850,-0.2381,2.2056,12.2351,33.5401,-0.9795,0.4489,0.1035,-46.7438
16:51:28:870,0.536,2.3617,13.1067,33.4281,-0.9656,0.3274,0.2537,-47.068
16:51:28:890,1.3908,3.0849,13.9549,32.8845,-0.8005,0.0336,0.2015,-47.3922
16:51:28:910,1.3573,2.7446,15.2028,32.3929,-0.6823,-0.4533,-0.3363,-47.7224
16:51:28:930,0.7777,1.0726,15.7825,32.1515,-0.5035,-0.778,-0.9796,-48.0561
16:51:28:951,0.2841,-0.5396,15.1597,32.0182,-0.1935,-0.8568,-1.3013,-48.3771
16:51:28:974,-0.2477,-1.2413,13.2844,31.5799,0.0718,-0.728,-1.2779,-48.6627
16:51:28:993,-0.2381,-0.8171,10.9149,31.1941,0.1601,-0.4873,-0.8423,-48.8996
16:51:29:012,0.3272,0.0401,8.8211,30.8462,0.1515,-0.3009,-0.2736,-49.0894
16:51:29:032,1.2688,1.212,7.1922,30.2659,0.1228,-0.2977,0.0704,-49.2492
16:51:29:052,2.117,2.1123,6.1789,30.0266,-0.0252,-0.4277,0.0917,-49.3978
16:51:29:072,2.1745,2.3856,6.2267,29.9621,-0.2638,-0.4575,-0.2225,-49.547
16:51:29:091,1.7432,1.9496,6.3972,29.8761,-0.3479,-0.3276,-0.6325,-49.6972
16:51:29:112,1.185,1.5685,5.942,29.5439,-0.1178,-0.0591,-0.869,-49.8365
16:51:29:132,0.5145,1.3938,5.3336,29.4014,0.2133,0.1602,-0.9114,-49.9518
16:51:29:153,-0.1711,1.3316,4.7133,29.2195,0.42,0.3125,-0.8317,-49.9518
16:51:29:173,-0.6305,1.5422,4.2054,29.0511,0.4519,0.4883,-0.6538,-49.9518
16:51:29:193,-0.5874,2.1099,4.27,29.1205,0.3071,0.6268,-0.3907,-49.9518
16:51:29:213,0.0616,2.8528,5.1009,29.0265,0.0537,0.6683,-0.1863,-49.9518
16:51:29:233,0.5886,3.6646,6.5815,29.0586,-0.2585,0.5788,-0.215,-49.9518
16:51:29:286,0.3679,4.0505,8.5173,28.9305,-0.579,0.4031,-0.5078,-49.9518
16:51:29:289,-0.6861,3.6838,10.4836,28.7549,-0.8048,0.2795,-0.9285,-49.9518
16:51:29:297,-1.9771,2.939,12.1537,28.5041,-0.8218,0.1719,-1.1692,-49.9518
16:51:29:315,-2.6836,2.1984,13.4255,28.6472,-0.5747,0.1091,-1.0094,-49.9518
16:51:29:335,-3.2608,1.7151,14.4197,28.4861,-0.1796,0.2497,-0.5419,-49.8291
16:51:29:356,-3.0287,1.8275,14.4006,28.2506,0.1835,0.5447,0.096,-49.6741
16:51:29:376,-2.2863,2.4287,14.0387,28.1162,0.3891,0.6779,0.6381,-49.5028
16:51:29:396,-1.7354,3.466,13.6816,27.877,0.4626,0.7088,0.9437,-49.3357
16:51:29:416,-1.6534,4.4148,13.0947,27.6814,0.4945,0.7172,0.9873,-49.1929
16:51:29:436,-1.5673,4.532,13.0828,27.8613,0.4594,0.3509,0.7307,-49.0839
16:51:29:456,-1.5482,3.3631,14.2445,27.88,0.4423,-0.3276,0.2856,-49.0839
16:51:29:477,-2.2792,1.8036,15.0162,27.6957,0.6383,-0.6875,-0.0723,-49.0839
16:51:29:497,-3.122,0.9601,14.0052,27.6673,0.977,-0.4075,-0.1085,-49.0839
16:51:29:517,-3.6108,1.1761,11.7607,27.9329,1.0931,0.09,0.0246,-49.0839
16:51:29:537,-3.7424,1.3819,9.8369,28.1823,0.7628,0.337,0.1099,-49.0839
16:51:29:556,-3.0407,0.8453,8.9145,28.2921,0.2069,0.3317,0.1855,-49.0839
16:51:29:578,-2.4754,0.7543,8.6273,28.5114,-0.2318,0.3391,0.2632,-49.0839
16:51:29:596,-1.9579,0.7089,8.1673,28.5139,-0.4065,0.4222,0.3218,-49.0839
16:51:29:616,-1.5553,0.7878,6.9362,28.7994,-0.3298,0.5841,0.343,-49.0839
16:51:29:636,-1.136,0.9027,5.5083,28.8832,-0.1615,0.6417,0.4069,-49.0839
16:51:29:656,-0.8321,0.9434,4.1815,29.0013,0.0121,0.5607,0.5347,-49.0839
16:51:29:676,-0.8417,1.0319,3.2853,29.0822,0.1441,0.3093,0.6775,-49.0839
16:51:29:696,-0.6933,1.0008,2.933,29.0884,0.208,-0.1901,0.7947,-49.0839
16:51:29:717,-0.4893,1.3771,3.5055,29.3141,0.1334,-0.7738,0.8586,-49.0839
16:51:29:737,-0.2548,1.4943,4.7731,29.5948,-0.0614,-1.1029,0.8234,-49.0839
16:51:29:758,-0.1352,1.2407,6.4857,29.52,-0.1743,-0.9495,0.7307,-49.0839
16:51:29:777,-0.3553,1.0271,7.2114,29.6499,-0.022,-0.4873,0.6924,-49.1748
16:51:29:798,-0.6018,1.2048,6.7998,29.78,0.2772,-0.0975,0.7158,-49.2887
16:51:29:818,-0.6814,2.0453,6.6987,29.9615,0.3443,-0.0229,0.7414,-49.4234
16:51:29:837,-0.8512,2.668,7.6283,30.1017,0.0844,-0.1529,0.6498,-49.5762
16:51:29:858,-0.9613,2.6154,8.8355,30.3161,-0.2233,-0.0368,0.5273,-49.747
16:51:29:879,-0.6957,3.1376,9.7579,30.3216,-0.4577,0.3498,0.5433,-49.9331
16:51:29:898,-0.3338,4.4483,10.4429,30.2916,-0.759,0.5799,0.4836,-50.1281
16:51:29:919,-0.2955,4.8598,12.2471,30.5019,-1.203,0.3381,0.0545,-50.3336
16:51:29:939,0.064,3.4325,15.2148,30.4316,-1.4299,-0.2093,-0.4897,-50.5475
16:51:29:960,-0.1107,2.2708,16.7384,30.274,-1.2148,-0.3616,-0.7774,-50.7571
16:51:29:980,-0.5348,2.1386,16.0487,30.3273,-0.8996,0.0634,-0.7869,-50.9451
16:51:29:999,-0.8321,1.8491,16.3382,30.315,-0.9454,0.3519,-0.7742,-51.1022
16:51:30:020,-0.9135,0.3661,17.3061,30.0915,-1.005,0.4222,-0.7465,-51.2277
16:51:30:042,-0.8536,-0.7932,16.5613,30.1688,-0.5226,0.4744,-0.4812,-51.3232
16:51:30:060,-0.4247,-1.0164,14.2738,30.1184,0.3049,0.3487,0.0023,-51.3232
16:51:30:081,0.2961,-0.2231,11.6889,30.2837,0.945,0.025,0.4985,-51.3232
16:51:30:101,0.8925,0.8477,9.4032,30.3974,1.1389,-0.3031,0.7073,-51.3232
16:51:30:121,1.0199,1.7677,7.8437,30.6553,0.9588,-0.5001,0.5592,-51.3232
16:51:30:141,0.8734,1.9089,7.0869,30.6081,0.5883,-0.5703,0.2185,-51.3232
16:51:30:161,0.5575,1.5326,6.8477,30.932,0.2538,-0.5511,-0.1277,-51.4194
16:51:30:181,0.1765,1.0606,6.4068,31.1487,0.1302,-0.4426,-0.3491,-51.5167
16:51:30:203,-0.1974,0.7352,5.6327,31.391,0.1675,-0.2072,-0.4162,-51.5167
16:51:30:222,-0.396,0.6156,4.8162,31.56,0.2463,0.1112,-0.3353,-51.5167
16:51:30:242,-0.4367,0.7902,3.9942,31.7856,0.3497,0.4201,-0.1767,-51.5167
16:51:30:262,-0.463,1.2766,3.2973,31.8484,0.4328,0.6012,-0.0553,-51.5167
16:51:30:282,-0.4822,1.7557,2.799,32.1594,0.404,0.614,-0.0318,-51.5167
16:51:30:303,-0.4702,2.0931,3.0389,32.4255,0.2272,0.5415,-0.0968,-51.5167
16:51:30:322,-0.5635,2.6058,3.9727,32.4041,-0.0603,0.4979,-0.2172,-51.5167
16:51:30:342,-0.4343,3.0873,6.3135,32.6304,-0.3831,0.3573,-0.3811,-51.5167
16:51:30:362,-0.8967,3.2596,8.1817,32.6484,-0.4939,0.1762,-0.5664,-51.5167
16:51:30:383,-1.6582,3.2094,9.8249,32.9,-0.4012,-0.1305,-0.7188,-51.5167
16:51:30:403,-2.135,3.2309,11.5932,32.9733,-0.3234,-0.4735,-0.7358,-51.5167
16:51:30:423,-2.473,3.1161,13.0923,33.3732,-0.3447,-0.4618,-0.6506,-51.4209
16:51:30:442,-2.1972,2.7254,14.2636,33.4612,-0.4129,-0.2104,-0.4748,-51.2973
16:51:30:463,-1.5194,2.8457,15.3224,33.8802,-0.3639,0.0687,-0.2289,-51.1491
16:51:30:483,-1.2491,3.6168,15.5575,34.3712,-0.0624,0.3274,-0.018,-50.9829
16:51:30:504,-1.7013,4.532,13.9214,34.6679,0.4104,0.6885,0.0949,-50.8084
16:51:30:524,-2.2648,5.2576,12.1657,34.8697,0.5755,0.8013,0.08,-50.6318
16:51:30:544,-2.3557,4.8263,12.6975,35.3339,0.3145,0.2688,-0.0734,-50.4551
16:51:30:568,-2.5687,3.4636,14.3384,35.8474,0.2325,-0.5012,-0.2438,-50.2788
16:51:30:584,-2.9498,2.196,14.6519,36.0779,0.7117,-0.8089,-0.23,-50.099
16:51:30:609,-3.1699,1.7222,12.8172,36.4813,1.3166,-0.4543,-0.034,-49.9077
16:51:30:625,-3.0287,1.794,10.2754,36.8173,1.3582,0.1208,0.2004,-49.7075
16:51:30:646,-2.7434,1.9926,9.2955,37.2682,0.7256,0.3999,0.359,-49.5025
16:51:30:665,-1.9819,1.7055,9.5976,37.7052,-0.0497,0.4968,0.4048,-49.3004
16:51:30:685,-1.6128,1.1348,9.813,38.2461,-0.5363,0.7438,0.3112,-49.1092
16:51:30:704,-1.5434,0.5001,9.0036,38.6649,-0.6695,1.204,0.2345,-48.9352
16:51:30:725,-1.4859,0.2321,7.4632,38.8444,-0.6024,1.6076,0.2728,-48.7773
16:51:30:745,-1.1456,0.2847,5.616,39.4628,-0.463,1.6992,0.3963,-48.6336
16:51:30:765,-0.8369,0.5575,4.3322,39.7204,-0.3043,1.3242,0.5326,-48.5049
16:51:30:785,-0.8201,0.6179,3.8698,39.9869,-0.1551,0.5351,0.5869,-48.3944
16:51:30:811,-0.789,0.7711,4.011,40.1188,-0.0049,-0.3989,0.6359,-48.3944
16:51:30:826,-0.6909,1.2837,4.6822,40.472,0.1079,-1.1008,0.718,-48.3944
16:51:30:846,-0.4774,1.7007,5.5753,40.8925,0.2122,-1.3116,0.7489,-48.3944
16:51:30:870,-0.384,2.0142,6.1669,41.0051,0.2921,-1.0742,0.6817,-48.3944
16:51:30:890,-0.9206,2.5866,6.3015,41.4973,0.1941,-0.5895,0.4985,-48.3944
16:51:30:910,-2.1924,2.9509,7.1755,41.6098,-0.1903,-0.1305,0.2185,-48.3944
16:51:30:930,-3.2895,2.7811,8.3085,42.0456,-0.5928,0.3498,0.0385,-48.3944
16:51:30:950,-4.0469,2.7858,9.4971,42.1818,-0.7441,0.7534,0.1599,-48.3944
16:51:30:973,-3.9535,3.4445,10.4979,42.2436,-0.5896,0.8216,0.4804,-48.3944
16:51:30:992,-2.7218,3.8734,11.473,42.1977,-0.2393,0.3988,0.7062,-48.3944
16:51:31:008,-1.1408,4.3232,12.2327,42.2483,0.1132,-0.2839,0.6519,-48.3944
16:51:31:031,-0.195,4.6923,13.5882,42.3101,0.1984,-0.7716,0.2995,-48.3944
16:51:31:052,0.0879,4.5057,14.6303,42.2401,0.0313,-0.5405,-0.0734,-48.3944
16:51:31:071,-0.0748,4.4841,14.3121,42.2372,-0.2201,0.2316,-0.2087,-48.4856
16:51:31:091,0.1071,4.4076,13.5117,42.4476,-0.4374,0.6992,-0.2225,-48.4856
16:51:31:111,0.4187,3.6479,13.8257,42.7377,-0.5566,0.3636,-0.4173,-48.4856
16:51:31:132,0.591,1.8921,14.4796,42.9516,-0.43,-0.2413,-0.722,-48.4856
16:51:31:152,0.4403,0.2704,13.8497,43.1456,0.0302,-0.5426,-0.8944,-48.4856
16:51:31:171,0.4158,-1.2006,12.1849,43.3146,0.568,-0.7865,-0.9285,-48.4856
16:51:31:192,0.7107,-1.6032,10.4237,43.4777,0.8981,-1.0763,-0.7933,-48.4856
16:51:31:211,0.9577,-0.8913,8.8331,43.8232,0.8939,-1.1188,-0.6048,-48.4856
16:51:31:232,0.8327,-0.1944,7.3938,44.131,0.568,-0.8952,-0.5718,-48.4856
16:51:31:251,0.5432,0.0766,6.1956,44.2901,0.1089,-0.6012,-0.6453,-48.3868
16:51:31:273,0.2554,0.1555,5.2307,44.2916,-0.2403,-0.3989,-0.6932,-48.2663
16:51:31:309,0.1262,0.3709,4.8209,44.5349,-0.4513,-0.3723,-0.6868,-48.1198
16:51:31:315,0.0377,0.8429,5.1464,44.8788,-0.5353,-0.4011,-0.6708,-47.9471
16:51:31:332,-0.0054,0.9099,5.2594,45.2264,-0.4449,-0.3702,-0.723,-47.7533
16:51:31:356,-0.2046,1.0128,5.1679,45.8659,-0.2137,-0.334,-0.7742,-47.54
16:51:31:374,-0.3984,1.3651,5.0148,45.9326,0.0068,-0.3542,-0.7859,-47.3017
16:51:31:395,-0.5133,1.8586,4.8018,46.07,0.1302,-0.2849,-0.7795,-47.0363
16:51:31:415,-0.9422,2.5531,5.0722,46.4411,0.0601,-0.1667,-0.8114,-46.7436
16:51:31:434,-1.2969,2.9103,6.1645,46.7122,-0.1956,-0.1678,-0.8711,-46.4243
16:51:31:454,-1.4333,3.1735,8.1721,46.9966,-0.5779,-0.172,-0.8615,-46.0707
16:51:31:475,-1.6463,3.4971,10.6851,47.1456,-0.9294,0.0037,-0.788,-45.6883
16:51:31:495,-2.013,3.262,12.6832,47.2273,-0.9379,0.2177,-0.7102,-45.2806
16:51:31:515,-2.7266,3.1137,13.6863,47.1542,-0.5395,0.2731,-0.5877,-44.8509
16:51:31:535,-2.988,3.2237,13.8616,47.4674,-0.0177,0.1282,-0.3598,-44.4037
16:51:31:554,-2.7194,3.3799,13.5452,47.7221,0.3752,0.025,-0.0862,-43.9436
16:51:31:576,-2.1972,3.6503,12.7549,47.8552,0.5776,0.074,0.1535,-43.4777
16:51:31:594,-2.0752,4.3621,12.2399,48.0438,0.5553,0.1027,0.2973,-43.0146
16:51:31:615,-2.0776,4.7713,12.1801,48.1801,0.3379,0.0602,0.2984,-42.5652
16:51:31:635,-2.1422,4.5129,12.9488,48.2099,0.0526,-0.0495,0.1503,-42.1341
16:51:31:656,-2.1757,3.2381,14.7069,48.4239,-0.1509,-0.3915,-0.0979,-41.7214
16:51:31:676,-2.3366,1.7605,15.737,48.3065,0.0419,-0.6555,-0.3097,-41.3203
16:51:31:696,-2.8732,1.0534,14.8002,48.4223,0.5798,-0.5692,-0.3438,-40.9224
16:51:31:715,-3.4146,0.8907,12.7023,48.4194,0.9386,-0.2328,-0.2395,-40.52
16:51:31:736,-3.4289,0.5264,11.3486,48.3192,0.6884,-0.0474,-0.0691,-40.111
16:51:31:757,-2.6237,0.0473,11.3055,48.3222,0.1206,0.0069,0.1727,-39.6977
16:51:31:776,-1.5577,-0.0652,11.1547,48.3976,-0.2222,0.255,0.4612,-39.2895
16:51:31:796,-1.0044,0.0401,9.9302,48.5759,-0.1924,0.7321,0.6817,-38.8963
16:51:31:816,-0.8752,0.3446,7.94,48.6608,0.0473,1.1816,0.8586,-38.5298
16:51:31:838,-0.5755,0.7496,5.9563,48.8164,0.3241,1.3137,1.0427,-38.197
16:51:31:856,-0.2285,1.1976,4.6798,48.7897,0.5574,0.9813,1.1642,-37.903
16:51:31:876,-0.0054,1.6044,4.6002,48.6129,0.7085,0.3008,1.1216,-37.6517
16:51:31:897,-0.0293,1.7988,4.6845,48.75,0.8832,-0.2391,0.9778,-37.4456
16:51:31:916,-0.1352,1.9424,4.6487,48.5895,1.0494,-0.449,0.8032,-37.2803
16:51:31:938,-0.341,2.1888,4.5117,48.1895,1.0909,-0.384,0.588,-37.1492
16:51:31:957,-0.7029,2.2564,4.0469,48.1924,0.9322,-0.0389,0.3176,-37.0453
16:51:31:976,-1.5147,2.007,3.8411,48.0415,0.5158,0.3114,0.0587,-37.0453
16:51:31:997,-2.3055,1.4991,4.7396,48.1934,0.0025,0.272,-0.0457,-37.0453
16:51:32:017,-2.3773,1.1904,6.5408,48.1696,-0.3021,-0.0325,0.0992,-37.0453
16:51:32:037,-2.1398,1.6911,7.9065,48.1445,-0.3245,-0.0644,0.3654,-37.0453
16:51:32:056,-1.8503,2.6465,9.0754,47.9979,-0.3756,0.0602,0.5305,-37.0453
16:51:32:077,-1.2347,3.3224,10.8598,48.0428,-0.6152,0.0304,0.5305,-37.0453
16:51:32:097,-1.0905,3.7005,11.7224,48.2254,-0.8112,0.1826,0.425,-37.0453
16:51:32:116,-1.0403,3.6622,12.0072,48.0409,-0.955,0.3892,0.3334,-37.0453
16:51:32:137,-0.5468,3.6335,13.0325,48.0161,-1.135,0.3956,0.3494,-37.0453
16:51:32:157,0.1095,3.6191,13.3561,47.8533,-1.1913,0.3573,0.3441,-37.0453
16:51:32:177,0.7561,3.5641,13.8736,47.6319,-1.1967,0.108,0.1301,-37.0453
16:51:32:197,0.7968,2.3258,15.7801,47.6293,-1.2808,-0.3254,-0.3481,-37.0453
16:51:32:217,0.0066,0.2417,16.4154,47.3378,-1.0477,-0.3414,-0.7699,-37.0453
16:51:32:238,-0.7244,-1.0403,14.5585,47.1713,-0.3873,-0.0687,-0.7113,-37.0453
16:51:32:258,-0.329,-1.0355,12.3404,46.9485,0.2037,-0.0442,-0.2118,-37.0453
16:51:32:278,0.5982,0.1436,10.8885,46.7293,0.3667,-0.2093,0.226,-37.0453
16:51:32:298,0.9284,1.1204,9.8489,46.3903,0.1728,-0.2072,0.1887,-37.0453
16:51:32:317,0.3823,1.051,8.9868,46.2223,-0.0624,0.0048,-0.1543,-37.0453
16:51:32:338,-0.1759,0.6562,7.8389,46.1735,-0.0827,0.2166,-0.3374,-37.0453
16:51:32:358,-0.2477,0.74,6.6987,46.2639,0.0537,0.2763,-0.2246,-37.0453
16:51:32:379,-0.003,1.2359,6.0999,46.2004,0.127,0.2145,-0.0766,-37.0453
16:51:32:399,0.2052,1.5326,5.8152,46.0629,0.1206,0.272,-0.0457,-37.0453
16:51:32:419,0.0784,1.7198,5.2714,45.9692,0.1888,0.468,-0.0904,-37.0453
16:51:32:440,-0.1083,1.9567,4.8544,45.891,0.323,0.5692,-0.1373,-37.0453
16:51:32:460,-0.3864,2.3785,4.4542,45.9065,0.42,0.5746,-0.1437,-37.0453
16:51:32:480,-0.5228,2.8983,4.3442,45.7554,0.3965,0.4382,-0.132,-37.0453
16:51:32:501,-0.5707,3.3176,4.998,45.7079,0.257,0.1336,-0.1565,-37.0453
16:51:32:521,-0.5874,3.3966,6.6389,45.4603,0.059,-0.1816,-0.2534,-37.0453
16:51:32:540,-0.8106,3.0036,8.4766,45.5906,-0.0806,-0.2626,-0.3395,-37.0453
16:51:32:561,-1.2156,3.0491,10.261,45.5352,-0.1274,-0.155,-0.2758,-36.945
16:51:32:581,-1.5649,3.8495,11.3222,45.6295,-0.1083,0.0964,-0.1075,-36.8331
16:51:32:601,-2.0536,4.2586,12.0311,45.7213,-0.1104,0.3487,-0.0606,-36.7133
16:51:32:621,-2.3509,3.7531,12.6156,46.0061,-0.0731,0.3114,-0.0925,-36.5909
16:51:32:641,-2.3844,3.4181,13.2724,46.1189,0.0866,-0.0708,-0.0531,-36.4689
16:51:32:661,-2.5591,3.8351,14.0459,46.0097,0.2602,-0.4447,0.079,-36.3451
16:51:32:682,-2.7553,4.2156,14.5179,45.8592,0.3497,-0.5373,0.2174,-36.2197
16:51:32:701,-2.8349,4.1844,14.7428,45.8628,0.3688,-0.5458,0.2835,-36.0979
16:51:32:722,-2.7338,3.722,15.1502,45.8823,0.3869,-0.6853,0.276,-35.9828
16:51:32:741,-2.7051,3.32,14.5561,45.787,0.6138,-0.6491,0.2899,-35.8768
16:51:32:762,-2.7171,3.1376,12.2399,45.634,0.9397,-0.221,0.3037,-35.7788
16:51:32:782,-2.8062,3.1663,9.4199,45.4148,0.9162,0.2678,0.2345,-35.7788
16:51:32:802,-2.8732,2.8361,8.3803,45.4197,0.3592,0.386,0.0332,-35.7788
16:51:32:822,-2.9234,1.7725,8.7398,45.459,-0.2989,0.2891,-0.214,-35.7788
16:51:32:842,-2.7386,0.7496,9.1783,45.497,-0.6077,0.0442,-0.3491,-35.7788
16:51:32:864,-2.3031,0.1627,9.1424,45.5412,-0.5534,-0.2178,-0.3246,-35.6853
16:51:32:883,-1.8311,0.0473,8.3976,45.6717,-0.3096,-0.2732,-0.1405,-35.5837
16:51:32:904,-1.1527,0.3111,7.1611,45.7401,-0.055,-0.1103,0.1642,-35.4746
16:51:32:924,-0.6622,1.0295,5.9946,45.8148,0.0206,0.1165,0.3941,-35.3642
16:51:32:944,-0.7005,1.6307,5.4485,45.7976,-0.137,0.2401,0.4335,-35.2614
16:51:32:964,-1.057,1.3795,5.403,45.569,-0.2755,0.2209,0.3579,-35.2614
16:51:32:984,-1.4166,0.9625,5.1924,45.5358,-0.1125,0.0751,0.3537,-35.2614
16:51:33:004,-1.4812,1.1641,4.9071,45.7523,0.2186,-0.1316,0.5081,-35.2614
16:51:33:024,-1.3807,1.7222,4.7372,45.6731,0.4402,-0.2743,0.6924,-35.2614
16:51:33:044,-0.9924,2.1434,5.1272,45.6324,0.4328,-0.4511,0.767,-35.2614
16:51:33:065,-0.4798,2.3234,6.131,45.5109,0.306,-0.6747,0.6999,-35.2614
16:51:33:085,-0.2189,2.4933,7.2855,45.5379,0.1728,-0.713,0.4921,-35.2614
16:51:33:105,-0.1974,2.6177,8.4814,45.4916,0.027,-0.4341,0.2217,-35.2614
16:51:33:126,-0.9063,2.7739,9.9183,45.677,-0.1551,0.0112,-0.0372,-35.2614
16:51:33:145,-1.7204,2.7326,10.5727,45.8182,-0.2659,0.3445,-0.1778,-35.2614
16:51:33:165,-1.8909,2.8744,10.0792,45.7091,-0.251,0.4276,-0.149,-35.2614
16:51:33:186,-1.4213,3.3081,9.9589,45.6404,-0.3735,0.2411,-0.117,-35.2614
16:51:33:207,-0.7507,2.9127,11.5591,45.5134,-0.7845,-0.0591,-0.182,-35.2614
16:51:33:226,-0.4558,1.9615,13.5954,45.5451,-1.1583,0.0154,-0.181,-35.2614
16:51:33:246,-0.4199,2.1314,13.9789,45.2752,-1.2531,0.4595,-0.068,-35.2614
16:51:33:267,-0.1155,2.3402,15.0544,45.1572,-1.4022,0.4957,-0.1639,-35.2614
16:51:33:287,-0.4893,1.1133,17.086,45.0049,-1.5397,0.2624,-0.5973,-35.2614
16:51:33:336,-1.0379,-1.0929,17.4257,44.8547,-1.1572,0.0783,-0.8668,-35.2614
16:51:33:338,-0.7172,-2.2187,15.9266,44.6984,-0.2606,-0.237,-0.5792,-35.2614
16:51:33:346,0.3296,-1.3777,14.01,44.4992,0.5691,-0.5437,0.0246,-35.2614
16:51:33:367,1.4722,0.1507,11.7057,44.4367,0.9407,-0.4852,0.3909,-35.2614
16:51:33:389,1.547,1.2191,9.3194,44.4,0.8821,-0.1593,0.2153,-35.2614
16:51:33:408,0.9188,1.48,7.4967,44.3586,0.6032,0.1559,-0.2118,-35.2614
16:51:33:428,0.131,1.2144,6.481,44.3957,0.3305,0.3125,-0.5451,-35.2614
16:51:33:449,-0.4032,0.874,5.7577,44.6903,0.2261,0.2816,-0.6634,-35.2614
16:51:33:469,-0.5515,0.7639,5.2403,44.6285,0.2943,0.0762,-0.6229,-35.2614
16:51:33:489,-0.396,0.9673,4.8329,44.6005,0.4338,-0.1284,-0.5238,-35.2614
16:51:33:509,-0.2716,1.2814,4.5547,44.6667,0.5286,-0.1507,-0.4631,-35.1612
16:51:33:530,-0.195,1.5781,4.3178,44.5869,0.5382,-0.0005,-0.4631,-35.0426
16:51:33:549,-0.2142,1.9352,3.92,44.5266,0.4722,0.1911,-0.4929,-34.9076
16:51:33:569,-0.4439,2.455,3.8506,44.7135,0.2889,0.1975,-0.559,-34.7565
16:51:33:589,-0.4989,2.7398,4.6869,44.8889,0.0004,-0.0421,-0.624,-34.5886
16:51:33:610,-0.3266,2.8983,6.6772,44.6383,-0.2521,-0.384,-0.6889,-34.4022
16:51:33:630,-0.3721,2.9892,8.9701,44.6536,-0.3096,-0.5628,-0.7592,-34.1969
16:51:33:650,-1.0283,3.0586,10.6517,44.7013,-0.1413,-0.4596,-0.7848,-33.9728
16:51:33:671,-2.0728,3.0849,11.2289,44.7533,0.126,-0.1678,-0.6804,-33.7285
16:51:33:690,-2.9474,3.2237,11.4132,44.7205,0.2943,0.0293,-0.4301,-33.4615
16:51:33:712,-3.1819,3.4708,11.6842,44.7571,0.2538,0.041,-0.0648,-33.1751
16:51:33:731,-2.8851,3.7125,12.3954,44.7424,0.0601,-0.0985,0.292,-32.8774
16:51:33:751,-2.7817,3.8106,14.1248,44.5854,-0.1828,-0.4501,0.4517,-32.5814
16:51:33:771,-2.6955,3.5402,16.0008,44.7225,-0.3032,-0.6843,0.3973,-32.3008
16:51:33:791,-3.1005,2.5866,16.2257,44.8714,-0.2691,-0.63,0.1716,-32.0414
16:51:33:811,-3.0048,0.8309,15.929,45.0916,-0.2478,-0.6608,0.0513,-31.8023
16:51:33:831,-2.2839,-0.1083,14.8606,45.2379,-0.0795,-0.6353,0.3398,-31.5747
16:51:33:851,-1.9962,0.5958,12.4792,45.3127,0.3284,-0.1529,0.8905,-31.3532
16:51:33:871,-1.3854,1.8347,10.127,45.0657,0.5201,0.2784,1.2611,-31.1463
16:51:33:893,-0.6861,2.4191,8.7206,45.1303,0.2197,0.2965,1.1919,-30.9751
16:51:33:912,-0.7125,2.196,7.7575,45.247,-0.3181,0.4403,0.8021,-30.8518
16:51:33:932,-1.1695,1.4417,7.5159,45.2414,-0.8517,0.6289,0.424,-30.8518
16:51:33:953,-1.2682,0.6682,7.7288,45.2084,-1.1562,0.6044,0.3186,-30.8518
16:51:33:980,-1.0283,0.4307,7.736,44.9382,-1.1094,0.4957,0.4474,-30.8518
16:51:33:993,-0.6185,0.5838,7.3173,44.8327,-0.8154,0.3999,0.6381,-30.8518
16:51:34:013,-0.5133,0.9314,6.7513,44.7496,-0.4332,0.3232,0.7915,-30.8518
16:51:34:038,-0.5898,0.9601,6.198,44.8341,-0.0688,0.1165,0.8586,-30.8518
16:51:34:055,-0.6185,0.9697,5.8104,44.4798,0.2623,-0.2381,0.8714,-30.8518
16:51:34:074,-0.5539,1.2072,5.6686,44.3569,0.4903,-0.5479,0.8948,-30.8518
16:51:34:101,-0.3577,1.4417,5.8439,43.9872,0.5339,-0.7354,0.8692,-30.9576
16:51:34:120,0.0066,1.6546,6.6078,43.9818,0.4146,-0.7535,0.7712,-31.0901
16:51:34:140,0.3416,1.7127,8.1051,43.8908,0.2325,-0.4554,0.6178,-31.2482
16:51:34:163,0.2985,1.6887,9.128,43.8624,0.126,0.1772,0.4517,-31.4282
16:51:34:175,-0.0939,1.8347,9.4732,43.9041,0.0908,0.8652,0.36,-31.6248
16:51:34:197,-0.6377,2.2684,9.8154,43.8675,-0.0433,1.1955,0.292,-31.8315
16:51:34:215,-1.5888,2.534,10.7928,43.8748,-0.2308,1.0559,0.1312,-32.0445
16:51:34:237,-2.1087,2.1242,12.1005,43.7549,-0.2148,0.5746,-0.0414,-32.2614
16:51:34:259,-1.9244,1.8299,12.661,43.8326,0.1015,0.0975,-0.1107,-32.4762
16:51:34:280,-1.3065,1.6259,12.5845,43.8869,0.3987,-0.2636,-0.1639,-32.6833
16:51:34:300,-0.6329,1.4776,13.2293,43.9211,0.3752,-0.5055,-0.2587,-32.879
16:51:34:319,-0.1232,1.401,13.6193,43.9896,0.143,-0.2423,-0.2873,-33.0627
16:51:34:340,0.2722,1.3747,13.1809,44.2461,-0.1455,0.435,-0.3087,-33.2312
16:51:34:358,0.5264,0.7639,12.9727,44.2549,-0.4427,0.878,-0.4684,-33.3849
16:51:34:377,0.1549,-0.1155,12.6688,44.201,-0.5269,0.9877,-0.6602,-33.5241
16:51:34:396,-0.5611,-0.518,11.3797,44.1908,-0.2553,0.9707,-0.6623,-33.6452
16:51:34:422,-0.8154,-0.4893,9.4463,44.3453,0.1462,0.747,-0.4386,-33.7433
16:51:34:441,-0.3027,0.0162,8.1936,44.1732,0.2272,0.2039,-0.1895,-33.7433
16:51:34:462,0.3679,0.6562,8.7063,44.0353,-0.1999,-0.4873,-0.1352,-33.7433
16:51:34:480,0.5695,0.8716,10.5607,43.9804,-0.7025,-0.8931,-0.3023,-33.7433
16:51:34:499,0.4086,0.3996,11.0925,43.7159,-0.7334,-0.8686,-0.5345,-33.7433
16:51:34:519,0.2028,0.134,10.0576,43.8584,-0.3106,-0.517,-0.6048,-33.7433
16:51:34:538,0.0568,0.3182,8.0285,43.8267,0.1547,-0.024,-0.4887,-33.7433
16:51:34:562,-0.0221,0.9123,6.4618,43.9371,0.3838,0.2816,-0.3917,-33.7433
16:51:34:581,-0.0437,1.212,5.4245,43.7811,0.4104,0.4169,-0.4461,-33.7433
16:51:34:601,-0.4319,1.4201,4.5356,43.9491,0.3667,0.6065,-0.5728,-33.7433
16:51:34:618,-0.88,1.7605,3.9464,44.0284,0.3007,0.8493,-0.6378,-33.7433
16:51:34:640,-1.0762,2.0429,3.2471,44.173,0.2037,1.1742,-0.6506,-33.7433
16:51:34:658,-1.3878,2.4024,2.8205,44.21,-0.0337,1.4382,-0.6804,-33.7433
16:51:34:679,-1.8526,2.4718,3.6353,44.1098,-0.4204,1.3615,-0.7603,-33.6322
16:51:34:699,-2.3821,2.3139,5.5178,44.3947,-0.7089,0.9164,-0.8965,-33.5002
16:51:34:720,-3.3811,1.7749,8.0094,44.218,-0.7206,0.1442,-1.0627,-33.3475
16:51:34:739,-4.5619,0.7304,11.1428,44.3022,-0.4971,-0.6065,-1.0659,-33.1733
16:51:34:760,-5.75,0.2824,13.1593,44.3011,-0.1072,-0.8057,-0.6804,-32.9742
16:51:34:779,-5.6447,0.8142,13.9334,44.2357,0.2964,-0.6278,-0.0052,-32.7481
16:51:34:800,-4.3914,1.4154,13.9358,44.1602,0.5169,-0.4873,0.4889,-32.5051
16:51:34:820,-3.2752,2.1003,13.8066,43.9045,0.4573,-0.2881,0.6466,-32.2651
16:51:34:839,-3.1603,2.6177,14.3623,43.7111,0.2208,-0.106,0.62,-32.0441
16:51:34:860,-3.7041,2.5603,14.671,43.4711,0.1632,0.0261,0.6359,-31.8482
16:51:34:880,-4.0756,2.6943,14.2857,43.6979,0.3529,0.0037,0.7904,-31.6774
16:51:34:901,-4.0205,2.4503,14.2182,43.7927,0.5712,-0.2391,0.9044,-31.5317
16:51:34:919,-3.9272,1.9041,13.5476,43.7514,0.7756,-0.3393,0.9554,-31.4149
16:51:34:941,-3.7256,1.6307,11.8158,43.5924,1.0142,-0.2509,1.0598,-31.4149
16:51:34:962,-3.2297,1.9448,10.3184,43.7237,1.043,-0.2881,1.1407,-31.4149
16:51:34:981,-2.5041,2.2732,9.6191,43.9507,0.6394,-0.3265,1.0747,-31.4149
16:51:35:001,-1.9268,2.0477,9.5641,44.2278,-0.0614,-0.2881,0.8437,-31.4149
16:51:35:022,-1.5697,1.3651,9.5785,44.3284,-0.6162,-0.3233,0.5486,-31.4149
16:51:35:042,-1.1838,0.807,9.2477,44.1936,-0.7686,-0.5309,0.3345,-31.4149
16:51:35:061,-0.7603,0.6419,8.6249,44.1806,-0.6045,-0.7194,0.243,-31.5084
16:51:35:080,-0.3745,0.7735,7.8126,44.01,-0.3341,-0.6853,0.2089,-31.6159
16:51:35:103,-0.1352,0.795,6.8453,44.0486,-0.1104,-0.4692,0.1493,-31.7326
16:51:35:121,-0.2524,0.6969,5.875,43.9148,0.0441,-0.1774,0.0832,-31.8554
16:51:35:142,-0.4965,0.4834,5.4102,43.8365,0.1441,0.0197,0.096,-31.9818
16:51:35:162,-0.8321,0.3637,5.2283,43.5116,0.2836,0.0272,0.2079,-32.1094
16:51:35:182,-0.9326,0.3805,5.3791,43.371,0.4849,-0.1624,0.3664,-32.2383
16:51:35:203,-0.6574,0.728,5.2379,43.4879,0.6852,-0.2274,0.5497,-32.3714
16:51:35:223,-0.3912,1.3579,5.0841,43.3456,0.6904,-0.1326,0.6157,-32.514
16:51:35:245,-0.2859,1.7127,5.9779,43.3152,0.3646,-0.0304,0.4772,-32.6719
16:51:35:263,-0.4247,1.4536,7.6666,43.4474,-0.0539,0.2305,0.243,-32.8474
16:51:35:283,-0.8321,1.1569,9.4487,43.4215,-0.2286,0.5064,0.0779,-33.0368
16:51:35:303,-1.4668,1.6283,10.0887,43.4146,-0.0284,0.5767,0.0012,-33.2321
16:51:35:348,-1.8,2.2923,9.7627,43.5469,0.2399,0.5085,-0.0627,-33.4278
16:51:35:350,-1.7402,2.5436,10.1701,43.4844,0.0961,0.2571,-0.2289,-33.6191
16:51:35:368,-1.7665,2.2397,11.6363,43.0771,-0.3628,-0.073,-0.4386,-33.8026
16:51:35:383,-1.3519,1.7581,13.6959,42.9316,-0.6471,-0.3861,-0.4397,-33.9758
16:51:35:404,-0.3817,1.7246,14.4939,42.8013,-0.5598,-0.367,-0.2747,-34.1325
16:51:35:424,0.009,2.1601,13.7516,42.6072,-0.4438,0.0591,-0.3193,-34.2745
16:51:35:444,-0.1232,1.7797,13.4136,42.3812,-0.6802,0.4009,-0.6399,-34.4072
16:51:35:465,-0.667,0.4618,13.6768,42.0527,-0.9688,0.5256,-0.905,-34.5285
16:51:35:484,-1.3376,-0.5444,13.2532,41.6538,-0.8389,0.4116,-0.8221,-34.6308
16:51:35:505,-1.014,-1.0857,12.4337,41.5106,-0.3373,-0.0517,-0.4216,-34.6308
16:51:35:525,0.0903,-0.6855,11.394,41.4632,0.1963,-0.6736,0.0449,-34.6308
16:51:35:546,1.2903,0.4666,10.2443,41.4106,0.4061,-0.9975,0.292,-34.6308
16:51:35:565,1.8341,1.4489,9.6096,41.2921,0.1824,-0.8505,0.1493,-34.6308
16:51:35:586,1.6068,1.3723,9.073,41.2386,-0.1605,-0.2775,-0.3044,-34.6308
16:51:35:606,0.6963,0.8477,7.7049,41.1263,-0.2766,0.4148,-0.7401,-34.6308
16:51:35:625,-0.0078,0.5503,6.1645,41.0055,-0.2297,0.7811,-0.9562,-34.6308
16:51:35:645,-0.8034,0.6443,5.5585,40.7328,-0.2031,0.6758,-1.0094,-34.6308
16:51:35:667,-1.0546,0.6054,5.5059,40.4111,-0.0859,0.3093,-0.8828,-34.6308
16:51:35:686,-0.7579,0.9458,5.3982,40.2916,0.2538,-0.0655,-0.6517,-34.6308
16:51:35:707,-0.4487,1.6475,4.931,40.0755,0.6319,-0.2913,-0.4961,-34.6308
16:51:35:726,-0.207,2.5101,4.8185,39.9083,0.7426,-0.3414,-0.4674,-34.6308
16:51:35:747,-0.0365,3.0658,4.9741,39.8141,0.5478,-0.2892,-0.5899,-34.5401
16:51:35:768,-0.4223,3.3607,5.8008,39.6395,0.2037,-0.2349,-0.8434,-34.4339
16:51:35:787,-1.1671,3.0132,7.1444,39.4769,-0.1423,-0.2008,-1.035,-34.3092
16:51:35:807,-2.147,2.2851,8.9821,39.6147,-0.4087,-0.0911,-1.0212,-34.1603
16:51:35:827,-3.1507,1.6355,11.1045,39.5223,-0.6237,0.2305,-0.7156,-33.9819
16:51:35:847,-3.807,1.8706,12.7573,39.3399,-0.694,0.7077,-0.2023,-33.7766
16:51:35:868,-3.7998,2.3498,13.6098,39.3289,-0.4459,0.8855,0.2036,-33.555
16:51:35:889,-3.2177,2.4096,13.6672,39.1074,0.059,0.5831,0.3355,-33.3357
16:51:35:908,-2.7194,2.3713,13.6241,38.7112,0.4647,0.0154,0.2707,-33.1323
16:51:35:929,-2.8373,2.6417,13.9382,38.5203,0.6256,-0.384,0.1919,-32.9467
16:51:35:949,-3.0526,2.9821,13.7492,38.5208,0.6893,-0.4011,0.2196,-32.7742
16:51:35:969,-3.2369,3.0778,13.7779,38.27,0.6479,-0.2445,0.2664,-32.611
16:51:35:993,-3.3063,2.4574,13.9765,38.1084,0.4999,-0.0091,0.2505,-32.4575
16:51:36:009,-3.5174,1.861,13.2963,38.0821,0.4359,0.321,0.1908,-32.3149
16:51:36:029,-4.1139,1.2598,12.1101,37.9639,0.3933,0.4627,0.0651,-32.1845
16:51:36:050,-4.4279,0.3733,11.1547,37.8228,0.224,0.3434,0.0055,-32.0649
16:51:36:070,-4.5739,-0.5898,10.9173,37.7699,-0.0688,0.1154,0.0534,-31.9515
16:51:36:090,-4.145,-1.3968,10.6134,37.7054,-0.2851,-0.0293,0.2387,-31.8427
16:51:36:110,-3.0191,-1.4495,9.8513,37.3769,-0.3096,-0.0666,0.5848,-31.7421
16:51:36:130,-1.867,-0.7693,8.9701,37.27,-0.2286,-0.0165,0.9033,-31.7421
16:51:36:150,-0.7699,0.0814,7.9328,37.275,-0.1232,0.1442,1.064,-31.7421
16:51:36:171,-0.2788,0.6586,6.658,37.0044,0.027,0.3072,1.0342,-31.7421
16:51:36:190,-0.1902,0.8859,5.3456,36.4178,0.2282,0.3615,0.8788,-31.7421
16:51:36:211,-0.4582,0.8812,4.2102,36.1408,0.4232,0.2997,0.7435,-31.7421
16:51:36:232,-0.5324,0.8405,3.3691,35.893,0.518,0.1293,0.7435,-31.835
16:51:36:252,-0.4941,1.0845,3.3165,35.7732,0.4679,-0.1816,0.8394,-31.9524
16:51:36:272,-0.3147,1.5374,4.2485,35.8108,0.3454,-0.5128,0.9554,-32.0926
16:51:36:292,-0.0556,2.0524,5.281,35.6975,0.2857,-0.5799,1.0182,-32.2588
16:51:36:312,-0.0508,2.6417,6.0377,35.3153,0.2453,-0.2732,0.9714,-32.4596
16:51:36:332,-0.0652,2.9653,6.8046,34.9963,0.0707,0.1623,0.8639,-32.6933
16:51:36:353,-0.14,3.0682,8.7829,34.9095,-0.1605,0.2475,0.7808,-32.9585
16:51:36:372,0.1836,3.5186,10.8574,34.987,-0.0923,-0.0932,0.6786,-33.2508
16:51:36:393,-0.2548,4.9537,11.217,34.8838,0.3145,-0.2839,0.4261,-33.5679
16:51:36:413,-0.5659,5.7846,10.7713,34.7097,0.4796,-0.4575,-0.0212,-33.9051
16:51:36:433,-0.5779,5.0901,11.8134,34.392,0.0313,-0.7493,-0.5824,-34.25
16:51:36:453,-0.5539,3.4181,13.797,34.2661,-0.7057,-0.5905,-0.9093,-34.5857
16:51:36:473,-0.8512,2.3785,14.0459,34.3279,-1.0551,0.173,-0.8029,-34.892
16:51:36:494,-1.2826,2.2684,13.3872,34.1544,-0.9784,0.6736,-0.5387,-35.1611
16:51:36:516,-0.9111,2.278,13.672,33.7985,-0.7728,0.4212,-0.3608,-35.3991
16:51:36:536,-0.3912,1.3866,13.6361,33.5508,-0.5024,0.1378,-0.3907,-35.6167
16:51:36:554,-0.2979,0.347,12.8626,33.0922,-0.2286,0.1506,-0.5068,-35.8206
16:51:36:574,0.1262,-0.5946,11.6124,32.5658,-0.0593,0.1517,-0.5409,-36.0099
16:51:36:599,0.5958,-1.1073,10.6229,32.2505,-0.0827,-0.0431,-0.5664,-36.1798
16:51:36:616,0.5527,-0.9392,10.8694,31.9582,-0.3383,-0.3755,-0.641,-36.3311
16:51:36:638,0.4062,-1.0044,11.5567,31.794,-0.5216,-0.6289,-0.7475,-36.4639
16:51:36:657,0.2028,-1.1336,10.9436,31.5036,-0.2787,-0.6545,-0.7912,-36.5765
16:51:36:676,-0.0102,-0.4026,9.5952,31.3524,0.2272,-0.4671,-0.6325,-36.6665
16:51:36:697,-0.0628,0.347,7.9807,31.4407,0.6202,-0.1593,-0.3811,-36.6665
16:51:36:717,0.0832,0.8309,6.2387,31.3477,0.8374,0.0964,-0.2204,-36.6665
16:51:36:738,0.3751,1.1761,4.5236,31.4921,0.9897,0.2454,-0.1234,-36.6665
16:51:36:757,0.5121,1.8156,3.2231,31.4948,1.0483,0.2411,-0.1011,-36.6665
16:51:36:777,0.3942,2.4646,2.6483,31.4917,0.88,0.0091,-0.2566,-36.6665
16:51:36:797,-0.0461,2.7595,3.0963,31.5703,0.5158,-0.3435,-0.5451,-36.6665
16:51:36:816,-0.2094,2.6034,4.203,31.4739,0.1483,-0.6118,-0.7539,-36.6665
16:51:36:837,-0.2046,2.8792,5.6255,31.4313,-0.1232,-0.8015,-0.837,-36.6665
16:51:36:856,-0.3338,3.3894,7.4489,31.1408,-0.3596,-0.8132,-0.9562,-36.6665
16:51:36:877,-0.8441,3.2692,9.8321,31.2574,-0.6088,-0.6491,-1.1639,-36.6665
16:51:36:897,-1.9292,2.5268,11.8253,31.15,-0.6738,-0.2764,-1.2619,-36.5683
16:51:36:917,-2.6931,2.1721,12.7071,30.7079,-0.4353,0.1655,-1.0094,-36.4334
16:51:36:937,-2.9833,2.455,13.2628,30.3908,-0.0593,0.3647,-0.5483,-36.2594
16:51:36:956,-2.9282,2.3737,13.5141,30.0988,0.2804,0.3029,-0.1703,-36.0563
16:51:36:976,-2.6453,2.3976,13.4207,30.1378,0.5616,0.1911,0.1514,-35.8401
16:51:36:996,-2.4873,3.0634,13.0828,30.1242,0.7575,0.1517,0.4666,-35.6235
16:51:37:018,-2.3127,3.9332,12.4863,30.0705,0.7735,0.2166,0.6828,-35.4174
16:51:37:037,-2.1087,4.3597,12.4911,29.965,0.5542,0.0932,0.6881,-35.232
16:51:37:057,-2.1852,3.813,13.4686,29.9403,0.2122,-0.2562,0.4176,-35.074
16:51:37:078,-2.7434,2.8528,14.2977,30.0749,0.0174,-0.3744,0.1237,-34.9433
16:51:37:098,-3.6945,2.3019,13.0636,29.9784,0.0961,0.1165,0.0864,-34.8312
16:51:37:119,-3.9823,2.062,10.9125,30.1426,0.1153,0.6779,0.2441,-34.7268
16:51:37:138,-3.7807,1.4154,9.8991,30.1365,-0.2095,0.6715,0.3547,-34.6286
16:51:37:158,-3.1603,0.323,9.8249,30.0048,-0.5619,0.3391,0.424,-34.6286
16:51:37:179,-2.3797,-0.0915,9.2907,29.9301,-0.5896,0.141,0.5965,-34.6286
16:51:37:199,-1.8479,-0.0078,8.1601,30.0434,-0.3959,0.2017,0.7957,-34.6286
16:51:37:218,-1.3759,0.1866,6.749,30.0702,-0.2276,0.337,0.9554,-34.6286
16:51:37:239,-0.9039,0.4929,5.2786,30.1969,-0.1391,0.4233,1.1034,-34.6286
16:51:37:259,-0.5946,1.0415,4.3801,30.4104,-0.1434,0.2848,1.2313,-34.6286
16:51:37:279,-0.408,1.6379,4.5739,30.4807,-0.2585,-0.1358,1.2707,-34.6286
16:51:37:299,-0.1519,1.7198,5.3695,30.5082,-0.332,-0.63,1.1993,-34.7526
16:51:37:320,0.3057,1.5637,6.6437,30.6955,-0.2403,-0.9996,1.0672,-34.9205
16:51:37:355,0.7226,1.3675,7.8849,31.0009,-0.022,-0.9847,0.8927,-35.1286
16:51:37:359,0.3655,1.3986,7.7527,30.9843,0.2623,-0.3776,0.6903,-35.3711
16:51:37:380,-0.1232,1.4154,6.9171,31.0608,0.371,0.3104,0.5699,-35.6393
16:51:37:400,-0.4199,1.727,6.335,31.2392,0.2208,0.5927,0.5209,-35.925
16:51:37:420,-0.3027,2.074,6.8261,31.4666,-0.1381,0.3732,0.4261,-36.2233
16:51:37:441,0.3559,1.8562,8.8977,31.5022,-0.5331,-0.1497,0.2047,-36.5316
16:51:37:465,0.6987,1.8156,11.4347,31.6303,-0.613,-0.4863,-0.051,-36.8467
16:51:37:483,0.2363,1.9161,12.2662,31.7066,-0.2595,-0.3606,-0.2694,-37.1622
16:51:37:501,-0.0461,2.0429,11.217,31.8192,0.1121,-0.1305,-0.3726,-37.4688
16:51:37:521,0.0855,2.7015,10.599,31.968,0.0185,-0.0421,-0.3427,-37.758
16:51:37:548,0.4642,3.0323,11.4562,32.3251,-0.5216,-0.0602,-0.3651,-38.0256
16:51:37:566,0.5049,2.805,12.664,32.3222,-1.0349,0.0708,-0.5377,-38.2738
16:51:37:587,0.2291,2.5795,13.8975,32.2569,-1.3106,0.2103,-0.7667,-38.5039
16:51:37:603,0.2028,1.389,15.5432,32.3459,-1.3532,0.0911,-1.0478,-38.7106
16:51:37:626,-0.4678,-0.2207,16.075,32.2265,-1.0551,0.0144,-1.2576,-38.8872
16:51:37:642,-1.2323,-1.459,14.5968,32.3307,-0.4545,0.0613,-1.1245,-39.0238
16:51:37:666,-0.8082,-1.5793,12.5055,32.4054,0.1409,-0.0336,-0.5558,-39.1141
16:51:37:685,0.5815,-0.7597,10.666,32.5425,0.4445,-0.1901,0.096,-39.1141
16:51:37:705,1.7671,0.1149,9.1639,32.3175,0.371,-0.1827,0.3282,-39.1141
16:51:37:726,1.9944,0.5025,8.2367,32.5051,-0.0007,-0.0932,0.0438,-39.1141
16:51:37:746,1.5589,0.0736,7.7384,32.7699,-0.3533,-0.0687,-0.4333,-39.1141
16:51:37:766,0.8686,-0.2734,7.3986,32.7223,-0.5205,-0.1571,-0.8061,-39.1141
16:51:37:786,0.2722,-0.4026,7.1874,32.9161,-0.5194,-0.2711,-0.9604,-39.1141
16:51:37:808,-0.0437,-0.3188,7.0247,32.857,-0.3746,-0.2796,-0.9381,-39.1141
16:51:37:826,0.0209,-0.0796,7.0032,32.5177,-0.1189,-0.1209,-0.7752,-39.1141
