Time,Acc_X,Acc_Y,Acc_Z,Meg,Gyr_X,Gyr_Y,Gyr_Z,Ore
16:47:07:874,-1.9484,4.2443,9.1759,59.3517,0.2261,-0.1976,0.1482,-19.0074
16:47:07:896,-1.8646,4.678,8.1314,59.4879,0.518,-0.1731,0.2079,-19.0074
16:47:07:911,-1.6056,5.004,7.681,59.6858,0.5776,-0.269,0.2089,-19.0074
16:47:07:932,-1.3448,5.1404,7.5135,59.5401,0.4796,-0.27,0.161,-19.0074
16:47:07:952,-1.3137,5.2146,7.3651,59.6093,0.2889,-0.0943,0.0822,-19.0074
16:47:07:972,-1.4189,5.1882,7.3675,59.3624,0.1015,0.0091,-0.0041,-19.0074
16:47:08:000,-1.7713,4.9585,7.6834,59.433,-0.0039,-0.0378,-0.1075,-19.0074
16:47:08:014,-2.0058,4.7474,7.8467,59.4569,-0.0411,-0.073,-0.1405,-19.0074
16:47:08:032,-2.1996,4.8096,7.8538,59.3413,-0.0731,-0.0581,-0.1011,-19.0074
16:47:08:063,-2.1661,4.8096,7.8826,59.4336,-0.1296,-0.0804,-0.0478,-19.0074
16:47:08:074,-1.9986,4.8742,8.1218,59.1872,-0.1839,-0.106,-0.0105,-19.0074
16:47:08:093,-2.0393,4.8694,8.5316,59.2976,-0.2233,-0.122,-0.0126,-19.0074
16:47:08:113,-2.0847,4.678,8.9821,59.546,-0.2137,-0.1401,-0.0265,-19.0074
16:47:08:132,-2.0273,4.6732,8.9342,59.642,-0.1125,-0.0719,-0.0105,-19.0074
16:47:08:162,-1.9747,4.788,8.5795,59.8023,-0.0071,0.0218,0.0001,-19.0074
16:47:08:180,-1.9555,4.788,8.5723,60.0512,0.0121,0.0378,-0.0329,-19.0074
16:47:08:194,-1.9627,4.5703,8.5484,60.0303,0.0004,0.0527,-0.0744,-19.0074
16:47:08:214,-2.1398,4.4435,8.2247,59.9937,0.0068,0.1176,-0.0883,-19.0074
16:47:08:234,-2.1661,4.3472,8.074,60.0122,-0.0166,0.0996,-0.0723,-19.0074
16:47:08:262,-2.1087,4.3065,8.3731,59.9943,-0.0763,0.0389,-0.0457,-19.0074
16:47:08:274,-1.9029,4.3621,8.668,59.7956,-0.088,0.024,0.0001,-19.0074
16:47:08:296,-1.8359,4.4985,8.6297,59.8267,-0.0294,0.0389,0.0236,-19.0074
16:47:08:317,-1.8694,4.6038,8.546,59.7303,-0.0081,0.0442,0.0289,-19.0074
16:47:08:335,-1.7976,4.6134,8.6178,59.7463,-0.0188,0.0293,0.0353,-19.0074
16:47:08:363,-1.8024,4.6493,8.5866,59.7863,0.0121,-0.0037,0.0225,-19.0074
16:47:08:375,-1.9077,4.5583,8.3348,59.3471,0.0462,-0.0293,-0.0105,-19.0074
16:47:08:400,-2.0321,4.5344,8.2606,59.5285,0.026,-0.0549,-0.019,-19.0074
16:47:08:416,-1.9364,4.3813,8.3348,59.3284,-0.0209,-0.0591,0.0001,-19.0074
16:47:08:435,-1.8718,4.3065,8.4909,59.3823,-0.0539,-0.0613,0.0097,-19.0074
16:47:08:463,-1.7258,4.2586,8.8259,59.4336,-0.0699,-0.0868,0.0161,-19.0074
16:47:08:480,-1.608,4.2754,8.9342,59.3725,-0.0433,-0.0495,0.0225,-19.0074
16:47:08:496,-1.7952,4.3137,8.7517,59.2247,-0.0007,0.0037,0.0076,-19.0074
16:47:08:516,-1.8766,4.3448,8.5436,59.2417,0.0206,0.0091,0.0278,-19.0074
16:47:08:536,-1.7904,4.5464,8.4909,59.4096,0.0334,-0.0378,0.0704,-19.0074
16:47:08:565,-1.5673,4.6445,8.668,59.4436,0.0441,-0.1113,0.0822,-19.0074
16:47:08:580,-1.5386,4.7378,8.5675,59.4779,0.0664,-0.0975,0.0651,-19.0074
16:47:08:597,-1.6128,4.7521,8.4311,59.3706,0.0696,-0.0708,0.03,-19.0074
16:47:08:616,-1.5434,4.6469,8.3952,59.3905,0.0217,-0.0506,0.0076,-19.0074
16:47:08:636,-1.5817,4.5559,8.4885,59.3341,-0.0401,-0.0346,-0.0063,-19.0074
16:47:08:658,-1.5817,4.3376,8.735,59.3163,-0.0593,-0.0708,-0.018,-19.0074
16:47:08:678,-1.5745,4.2419,8.6943,59.3856,-0.0049,-0.106,-0.0105,-19.0074
16:47:08:698,-1.6032,4.3232,8.5268,59.1821,0.0707,-0.1337,0.0087,-19.0074
16:47:08:719,-1.517,4.3884,8.3755,59.2019,0.1068,-0.1656,0.0246,-19.0074
16:47:08:741,-1.5147,4.4913,8.2128,59.2168,0.1004,-0.1656,0.0406,-19.0074
16:47:08:760,-1.5505,4.5966,8.1817,59.0913,0.0643,-0.1806,0.0449,-19.0074
16:47:08:780,-1.4788,4.7043,8.2511,58.8868,0.0164,-0.1816,0.0385,-19.0074
16:47:08:799,-1.3783,4.7043,8.4718,58.8617,-0.0571,-0.1454,0.0204,-19.0074
16:47:08:819,-1.2347,4.6564,8.6082,58.8588,-0.0944,-0.1017,-0.0095,-19.0074
16:47:08:842,-1.3711,4.532,8.6584,58.9546,-0.0901,-0.0655,-0.0531,-19.0074
16:47:08:859,-1.5266,4.3184,8.7565,59.1021,-0.0795,-0.0655,-0.0712,-19.0074
16:47:08:879,-1.5888,4.3208,8.7709,58.8892,-0.0454,-0.0687,-0.0435,-19.0074
16:47:08:900,-1.5745,4.273,8.8235,58.9104,-0.0188,-0.0687,-0.0233,-19.0074
16:47:08:920,-1.6056,4.2227,8.7829,59.1326,-0.0049,-0.0623,-0.0158,-19.0074
16:47:08:943,-1.596,4.1533,8.7302,59.2698,-0.0028,-0.0517,-0.0105,-19.0074
16:47:08:961,-1.6774,4.0744,8.6943,59.5281,-0.0262,-0.0346,0.0012,-19.0074
16:47:08:981,-1.7545,4.084,8.8187,59.5843,-0.0614,-0.0197,0.0395,-19.0074
16:47:09:001,-1.6654,4.0983,8.9438,59.318,-0.0593,-0.0261,0.0992,-19.0074
16:47:09:021,-1.4955,4.2562,8.9198,59.4031,-0.0092,-0.0357,0.1503,-19.0074
16:47:09:042,-1.3472,4.2897,8.8857,59.398,0.027,-0.0549,0.1599,-19.0074
16:47:09:061,-1.3376,4.3304,8.6895,59.3257,0.0579,-0.0442,0.1525,-19.0074
16:47:09:082,-1.3735,4.4339,8.4455,59.1195,0.0707,-0.0346,0.1407,-19.0074
16:47:09:101,-1.2706,4.4387,8.5316,59.107,0.0292,-0.0495,0.1322,-19.0074
16:47:09:125,-1.2467,4.3693,8.7111,58.9549,-0.0252,-0.0463,0.1184,-19.0074
16:47:09:143,-1.2682,4.3089,8.7374,59.1877,-0.0305,-0.0059,0.113,-19.0074
16:47:09:162,-1.2634,4.4483,8.5053,59.318,0.0025,0.0421,0.1269,-19.0074
16:47:09:183,-1.1671,4.4937,8.4479,59.5738,0.0079,0.0112,0.1248,-19.0074
16:47:09:203,-1.081,4.4148,8.7206,59.8896,-0.023,-0.0602,0.1035,-19.0074
16:47:09:227,-1.0403,4.3424,8.9677,60.1388,-0.0337,-0.0676,0.0949,-19.0074
16:47:09:243,-0.9541,4.4578,8.8116,60.1978,0.0068,0.0133,0.1045,-19.0074
16:47:09:263,-0.9829,4.5775,8.4287,60.3668,0.0451,0.0676,0.0928,-19.0074
16:47:09:284,-1.0714,4.5775,8.3444,60.3643,0.0164,0.0314,0.0502,-19.0074
16:47:09:303,-1.1145,4.4028,8.5699,60.0021,-0.0422,-0.0154,0.0193,-19.0074
16:47:09:328,-1.1838,4.3328,8.6752,59.9954,-0.0699,0.0037,0.0172,-19.0074
16:47:09:344,-1.2179,4.2754,8.6154,59.9,-0.0742,0.0357,0.0289,-19.0074
16:47:09:364,-1.2921,4.2108,8.7398,59.6176,-0.0667,0.024,0.0427,-19.0074
16:47:09:385,-1.2586,4.2251,8.4957,59.6279,-0.0241,0.0165,0.0726,-19.0074
16:47:09:404,-1.1408,4.3424,8.4287,59.6279,-0.0145,-0.0272,0.0864,-19.0074
16:47:09:428,-1.014,4.3424,8.6106,59.4231,-0.0848,-0.057,0.0736,-19.0074
16:47:09:444,-1.002,4.3597,8.7374,59.4998,-0.1551,0.0186,0.0566,-19.0074
16:47:09:465,-1.1001,4.3496,8.7637,59.538,-0.17,0.0975,0.0459,-19.0074
16:47:09:485,-1.0786,4.2682,8.9121,59.4648,-0.1509,0.0815,0.0438,-19.0074
16:47:09:505,-1.0618,4.2634,8.9342,59.2481,-0.1115,0.0506,0.047,-19.0074
16:47:09:526,-1.0594,4.3089,8.8881,59.3648,-0.0614,0.0229,0.0534,-19.0074
16:47:09:545,-1.0475,4.3448,8.8355,59.0666,-0.0198,-0.0186,0.0491,-19.0074
16:47:09:565,-1.014,4.3496,8.8929,59.2286,0.0015,-0.041,0.0427,-19.0074
16:47:09:586,-1.0235,4.3496,8.8499,59.2601,0.0153,-0.0357,0.0364,-19.0074
16:47:09:605,-0.9948,4.3789,8.7182,59.3188,0.0324,-0.0293,0.0342,-19.0074
16:47:09:626,-0.9852,4.477,8.5508,59.4264,0.0334,-0.0144,0.0332,-19.0074
16:47:09:646,-0.9182,4.4602,8.5244,59.4567,0.0004,-0.0186,0.0214,-19.0074
16:47:09:667,-0.8297,4.3813,8.747,59.7625,-0.039,-0.0623,0.0012,-19.0074
16:47:09:686,-0.7364,4.3041,9.018,59.5534,-0.0529,-0.0847,-0.0116,-19.0074
16:47:09:711,-0.7651,4.3328,8.9725,59.8222,-0.0369,-0.0197,-0.0148,-19.0074
16:47:09:729,-0.9182,4.3113,8.8331,59.6366,-0.0071,0.0304,-0.0265,-19.0981
16:47:09:748,-1.0307,4.2754,8.6154,59.5695,0.0228,0.0197,-0.0382,-19.0981
16:47:09:767,-1.136,4.2849,8.5795,59.501,0.0302,-0.0346,-0.0382,-19.0981
16:47:09:788,-1.1916,4.1988,8.7326,59.4578,0.0174,-0.0879,-0.0393,-19.0981
16:47:09:808,-1.2179,4.1677,8.7254,59.441,0.0079,-0.0602,-0.0201,-19.0981
16:47:09:852,-1.2586,4.206,8.5962,59.2259,0.0132,-0.0059,0.0065,-19.0981
16:47:09:854,-1.2778,4.3328,8.4718,59.3145,0.027,-0.0144,0.0172,-19.0981
16:47:09:868,-1.1671,4.3884,8.3755,59.0979,0.0281,-0.0613,0.0172,-19.0981
16:47:09:888,-1.1408,4.3519,8.5149,59.2246,-0.0145,-0.1017,0.0012,-19.0981
16:47:09:908,-1.0977,4.2969,8.8451,59.1805,-0.0859,-0.1007,-0.0095,-19.0981
16:47:09:930,-1.0499,4.2227,9.0132,59.0278,-0.1157,-0.0346,0.0065,-19.0981
16:47:09:950,-0.9924,4.2395,9.0084,59.1175,-0.0891,0.0304,0.031,-19.0981
16:47:09:970,-0.9494,4.2873,9.0491,59.0232,-0.0358,0.0133,0.0417,-19.0981
16:47:09:990,-0.868,4.2586,8.9749,59.0473,0.026,-0.0346,0.0374,-19.0981
16:47:10:013,-0.8943,4.2993,8.8331,59.2103,0.0643,-0.0325,0.0268,-19.0981
16:47:10:034,-0.9063,4.2443,8.7422,59.1478,0.0547,-0.0208,0.0182,-19.0981
16:47:10:050,-0.9398,4.2826,8.6991,59.3454,0.0377,-0.0037,0.0129,-19.0981
16:47:10:070,-0.9326,4.3089,8.6512,59.4973,0.0196,0.0059,0.014,-19.0981
16:47:10:090,-0.8919,4.34,8.7063,59.498,0.0089,-0.0048,0.0161,-19.0981
16:47:10:110,-0.8489,4.4028,8.6728,59.4982,0.0164,-0.0091,0.0129,-19.0981
16:47:10:130,-0.856,4.4363,8.6584,59.5062,0.0185,-0.0165,0.0012,-19.0981
16:47:10:151,-0.8919,4.4483,8.6369,59.462,0.0196,-0.0186,-0.0116,-19.0981
16:47:10:170,-0.9087,4.4052,8.6441,59.4763,0.0142,-0.0176,-0.0212,-19.0981
16:47:10:190,-0.9135,4.3232,8.6728,59.6482,0.0047,-0.0208,-0.0233,-19.1899
16:47:10:211,-0.9326,4.2371,8.6871,59.7368,0.0111,-0.024,-0.0286,-19.2822
16:47:10:230,-0.9446,4.1701,8.7111,59.6625,0.0142,-0.0346,-0.0329,-19.2822
16:47:10:252,-0.9805,4.1725,8.6991,59.6373,0.01,-0.0293,-0.0265,-19.2822
16:47:10:274,-0.9948,4.2658,8.5771,59.4171,0.0057,0.0005,-0.0116,-19.2822
16:47:10:291,-0.9015,4.2778,8.6034,59.5663,-0.0188,-0.0005,-0.0073,-19.2822
16:47:10:310,-0.9805,4.2538,8.6632,59.4886,-0.0348,-0.0059,-0.0201,-19.2822
16:47:10:334,-1.1121,4.328,8.522,59.5062,-0.0241,0.0176,-0.0212,-19.2822
16:47:10:355,-1.0738,4.3645,8.4574,59.3742,-0.0262,-0.0005,-0.0137,-19.2822
16:47:10:376,-1.0642,4.3328,8.6345,59.2203,-0.0529,-0.0559,-0.0244,-19.2822
16:47:10:396,-1.1456,4.2778,8.7494,59.1952,-0.0688,-0.0506,-0.0276,-19.2822
16:47:10:415,-1.1264,4.2467,8.8355,59.3153,-0.0742,-0.0229,-0.0105,-19.2822
16:47:10:432,-1.0881,4.2514,8.9821,59.4653,-0.0688,-0.0186,0.0097,-19.2822
16:47:10:455,-1.0379,4.2084,9.0156,59.3682,-0.0475,-0.0112,0.0204,-19.2822
16:47:10:475,-1.0451,4.2538,8.9366,59.5869,-0.0209,0.008,0.0204,-19.2822
16:47:10:496,-1.081,4.2179,8.8786,59.3193,-0.0071,0.0059,0.0129,-19.2822
16:47:10:516,-1.1169,4.1557,8.8235,59.3558,0.0025,0.0005,0.0087,-19.2822
16:47:10:535,-1.1192,4.1151,8.7182,59.1501,0.0004,0.0176,0.0182,-19.2822
16:47:10:557,-1.1216,4.1509,8.668,59.1104,-0.0081,0.0154,0.0364,-19.2822
16:47:10:576,-1.0379,4.2179,8.6704,59.1499,-0.0166,0.0005,0.0513,-19.2822
16:47:10:598,-0.9996,4.2323,8.6656,59.1126,-0.0198,-0.0059,0.0534,-19.2822
16:47:10:616,-0.9589,4.2802,8.5651,58.9548,-0.0049,-0.0016,0.0566,-19.2822
16:47:10:638,-0.8943,4.3645,8.4526,58.9075,0.0089,-0.0272,0.0502,-19.2822
16:47:10:656,-0.8967,4.3741,8.5292,59.0331,-0.0113,-0.0655,0.0289,-19.2822
16:47:10:676,-0.9039,4.2826,8.7087,58.9017,-0.0486,-0.0708,0.0097,-19.2822
16:47:10:698,-0.9422,4.206,8.7111,59.2086,-0.0699,-0.024,0.0055,-19.2822
16:47:10:716,-0.9637,4.2227,8.7326,59.1481,-0.0891,0.0165,0.0076,-19.2822
16:47:10:737,-0.8895,4.1868,8.9097,59.0121,-0.1019,-0.0069,0.0065,-19.2822
16:47:10:756,-0.8776,4.1462,9.0395,59.2996,-0.088,-0.0346,-0.0009,-19.2822
16:47:10:777,-0.8728,4.0792,9.0778,59.5177,-0.0656,-0.0314,-0.0052,-19.2822
16:47:10:796,-0.9613,4.1079,9.1232,59.5663,-0.0529,-0.0272,-0.002,-19.2822
16:47:10:817,-0.9398,4.1079,9.0802,59.6141,-0.0411,-0.0208,0.0076,-19.2822
16:47:10:838,-0.8847,4.0672,9.1137,59.7718,-0.0369,-0.0261,0.014,-19.2822
16:47:10:856,-0.8225,4.084,9.195,59.6494,-0.0305,-0.0368,0.0204,-19.2822
16:47:10:878,-0.7005,4.0313,9.2118,59.7043,-0.0092,-0.0218,0.0268,-19.2822
16:47:10:897,-0.7005,3.9906,9.0945,59.8142,0.0334,0.0037,0.0289,-19.2822
16:47:10:917,-0.7149,4.0193,8.814,59.6357,0.0929,0.0016,0.031,-19.2822
16:47:10:937,-0.6622,4.0744,8.5436,59.6759,0.1238,-0.0197,0.03,-19.2822
16:47:10:958,-0.734,4.1318,8.455,59.6247,0.0908,-0.0314,0.015,-19.2822
16:47:10:978,-0.7531,4.1773,8.5029,59.6063,0.0356,-0.0208,0.0055,-19.2822
16:47:10:997,-0.7388,4.2873,8.4407,59.5622,-0.0007,0.0059,0.0119,-19.2822
16:47:11:018,-0.7507,4.3256,8.4479,59.5966,-0.0316,-0.0059,0.0001,-19.2822
16:47:11:037,-0.7699,4.2538,8.6536,59.5256,-0.0635,-0.0559,-0.0244,-19.2822
16:47:11:058,-0.8249,4.1127,8.9246,59.6082,-0.0869,-0.0879,-0.0393,-19.2822
16:47:11:077,-0.8608,4.0289,9.018,59.7432,-0.0752,-0.0676,-0.0286,-19.2822
16:47:11:099,-0.8632,4.0337,9.0156,59.8123,-0.0507,-0.0336,-0.0095,-19.2822
16:47:11:118,-0.8824,4.0624,8.9438,59.8702,-0.0337,-0.0186,0.0012,-19.2822
16:47:11:138,-0.8082,4.0481,8.9964,59.7913,-0.0273,-0.0272,0.0012,-19.2822
16:47:11:159,-0.7795,4.0768,8.994,59.7141,-0.0166,-0.0176,0.0033,-19.2822
16:47:11:180,-0.8177,4.0983,8.8714,59.7368,-0.0028,0.0059,0.0023,-19.2822
16:47:11:198,-0.8249,4.1366,8.7541,59.8401,0.0004,0.0112,0.0044,-19.2822
16:47:11:221,-0.8345,4.1509,8.7135,59.6742,-0.0092,0.0069,0.0033,-19.2822
16:47:11:240,-0.8082,4.1294,8.7494,59.4484,-0.0262,-0.0059,0.0033,-19.2822
16:47:11:259,-0.813,4.072,8.8068,59.4233,-0.039,-0.0176,0.0012,-19.2822
16:47:11:279,-0.8632,4.0241,8.8881,59.3128,-0.0443,-0.0165,0.0012,-19.2822
16:47:11:299,-0.8752,4.0193,8.8211,59.4234,-0.0305,-0.0123,0.0129,-19.2822
16:47:11:321,-0.8154,3.9739,8.8546,59.5077,-0.0305,-0.0368,0.0161,-19.3737
16:47:11:341,-0.813,3.9523,8.9749,59.4897,-0.0486,-0.0421,0.0097,-19.3737
16:47:11:360,-0.8704,3.9882,9.0132,59.298,-0.0624,0.0016,0.014,-19.4644
16:47:11:380,-0.8177,4.0528,9.0084,59.2815,-0.0624,0.0431,0.0332,-19.5564
16:47:11:400,-0.8106,4.0624,8.9749,59.3158,-0.0411,0.0431,0.0385,-19.5564
16:47:11:421,-0.8632,4.0457,8.9145,59.1424,-0.0071,0.0123,0.0289,-19.6471
16:47:11:441,-0.9015,4.0672,8.7541,59.4445,0.0174,-0.0091,0.0321,-19.6471
16:47:11:462,-0.8489,4.1007,8.6752,59.5509,0.0111,-0.0133,0.0406,-19.7376
16:47:11:482,-0.8082,4.0863,8.7757,59.5509,-0.0198,-0.0218,0.0342,-19.7376
16:47:11:502,-0.9087,4.1127,8.7374,59.5024,-0.0284,0.0037,0.0257,-19.7376
16:47:11:521,-0.9565,4.1629,8.7326,59.4957,-0.0358,0.0123,0.0246,-19.7376
16:47:11:541,-0.9709,4.1246,8.7159,59.5831,-0.0486,0.0005,0.0246,-19.7376
16:47:11:562,-1.0499,4.1414,8.7087,59.7252,-0.0646,0.0069,0.0193,-19.7376
16:47:11:582,-1.0594,4.072,8.8522,59.9264,-0.0838,-0.0069,0.0204,-19.7376
16:47:11:601,-1.0355,3.9882,8.951,59.639,-0.0859,-0.0176,0.03,-19.7376
16:47:11:622,-0.9781,3.9643,9.0586,59.423,-0.0752,-0.0165,0.0427,-19.7376
16:47:11:642,-0.9972,3.9667,8.9749,59.4087,-0.0539,-0.0048,0.0491,-19.7376
16:47:11:663,-1.0499,3.9906,8.7087,59.4786,-0.0305,0.0165,0.0672,-19.7376
16:47:11:684,-1.0355,4.017,8.6871,59.9178,-0.0379,-0.0261,0.0843,-19.7376
16:47:11:702,-0.9565,4.0672,8.7613,60.1267,-0.0497,-0.074,0.0992,-19.7376
16:47:11:724,-0.7412,4.139,8.7613,60.192,-0.0518,-0.0794,0.1162,-19.7376
16:47:11:743,-0.4798,4.2227,8.8618,60.215,-0.0667,-0.0932,0.1152,-19.7376
16:47:11:764,-0.3888,4.2036,8.8834,60.2845,-0.0869,-0.0826,0.0758,-19.8298
16:47:11:785,-0.408,4.06,9.0227,60.5732,-0.1168,-0.0794,0.0225,-19.9253
16:47:11:804,-0.4367,3.8997,9.2596,60.5057,-0.1274,-0.0847,-0.0063,-20.0234
16:47:11:825,-0.5037,3.9332,9.195,60.5446,-0.0901,-0.0346,-0.0031,-20.1217
16:47:11:881,-0.4941,4.0265,8.8164,60.3394,-0.0284,0.0123,0.0108,-20.2192
16:47:11:883,-0.4223,4.0528,8.5173,60.0896,0.0004,-0.0091,0.0087,-20.3152
16:47:11:885,-0.4343,4.0313,8.4455,59.8696,-0.0156,-0.0549,-0.0233,-20.4091
16:47:11:906,-0.4845,3.993,8.4311,59.8789,-0.0443,-0.0783,-0.0457,-20.5007
16:47:11:925,-0.5922,4.0193,8.318,59.7006,-0.0688,-0.0634,-0.0563,-20.5007
16:47:11:945,-0.7077,3.9763,8.2774,59.4846,-0.1083,-0.0623,-0.0638,-20.5007
16:47:11:966,-0.7579,3.9069,8.3515,59.6087,-0.1583,-0.0847,-0.0638,-20.5007
16:47:11:985,-0.7053,3.9404,8.589,59.6181,-0.2105,-0.1166,-0.0489,-20.5007
16:47:12:005,-0.5396,3.9787,9.0012,59.3429,-0.2382,-0.1486,-0.0254,-20.5007
16:47:12:025,-0.6329,4.0744,9.0754,59.4242,-0.202,-0.1028,-0.0137,-20.5007
16:47:12:045,-1.0331,4.2993,8.7374,59.4075,-0.136,-0.0069,-0.0063,-20.5007
16:47:12:066,-1.1384,4.4387,8.4838,59.2455,-0.1264,0.0421,0.0395,-20.5007
16:47:12:086,-0.8225,4.6014,8.4598,59.3467,-0.1977,0.0985,0.1109,-20.5007
16:47:12:107,-0.6861,4.6923,8.6608,59.3064,-0.3245,0.1921,0.1599,-20.5007
16:47:12:126,-0.6018,4.9681,9.1519,59.3497,-0.3841,0.2092,0.1716,-20.5007
16:47:12:146,-0.6837,5.0016,9.3051,59.5655,-0.283,0.1538,0.1493,-20.5007
16:47:12:167,-0.7005,4.9801,8.994,59.8776,-0.1253,0.0921,0.1226,-20.5007
16:47:12:187,-0.7268,4.7641,8.589,59.8987,-0.0912,0.0463,0.0896,-20.5007
16:47:12:208,-0.8847,4.3448,8.8235,60.1298,-0.2126,0.0186,0.0523,-20.5007
16:47:12:227,-0.9374,4.1438,9.0634,60.3694,-0.3309,0.1005,0.0822,-20.5007
16:47:12:248,-0.8106,4.0887,8.6752,60.4583,-0.3618,0.2582,0.1365,-20.5007
16:47:12:270,-0.9206,4.1127,8.1147,60.4155,-0.398,0.3636,0.1322,-20.5007
16:47:12:290,-0.8656,4.084,7.8317,60.253,-0.463,0.3274,0.1045,-20.5007
16:47:12:310,-0.5276,4.4052,7.1204,60.1894,-0.4736,0.1644,0.0694,-20.5007
16:47:12:330,-0.7053,4.4028,6.7274,60.3665,-0.5353,-0.1134,-0.0744,-20.5917
16:47:12:350,-1.0379,3.7938,6.8955,60.1136,-0.711,-0.2818,-0.2118,-20.6839
16:47:12:371,-1.1503,3.2453,7.3095,60.0363,-0.956,-0.1646,-0.1767,-20.6839
16:47:12:390,-1.4692,3.4995,7.7815,60.2071,-1.2307,0.0762,-0.0148,-20.6839
16:47:12:410,-0.9733,3.4756,8.3803,60.5274,-1.4385,0.2678,0.2132,-20.6839
16:47:12:433,-0.5563,3.6263,9.3075,60.5924,-1.4853,0.304,0.3101,-20.6839
16:47:12:451,-0.3218,3.6263,10.1151,60.6607,-1.3255,0.304,0.259,-20.7752
16:47:12:470,-0.3266,3.3751,10.5775,60.7666,-0.9848,0.2944,0.1493,-20.8798
16:47:12:491,-0.6957,3.1137,10.8861,60.57,-0.5992,0.1453,0.015,-20.9952
16:47:12:511,-1.1575,2.8983,11.5328,60.6557,-0.2723,-0.1124,-0.0798,-21.1159
16:47:12:531,-1.6415,2.4885,12.5127,60.7945,-0.0145,-0.3766,-0.1043,-21.2357
16:47:12:552,-1.9603,2.4096,13.1115,60.6747,0.2314,-0.4032,0.0065,-21.3499
16:47:12:571,-1.9388,2.5819,12.7669,60.5215,0.4839,-0.0644,0.2377,-21.4565
16:47:12:590,-1.7037,2.6584,12.1609,60.5416,0.6011,0.3402,0.4048,-21.5587
16:47:12:612,-1.7617,2.6082,11.5711,60.5563,0.4828,0.6864,0.4069,-21.6639
16:47:12:631,-1.9125,2.0716,10.9579,60.3395,0.1483,0.8588,0.2686,-21.7773
16:47:12:650,-2.0345,1.2024,11.0853,60.3786,-0.2446,0.6363,0.1056,-21.8999
16:47:12:670,-2.5137,0.3781,11.6698,60.4678,-0.4832,0.3317,-0.0041,-22.0273
16:47:12:691,-3.0359,0.0885,11.2983,60.4286,-0.3522,0.4073,0.145,-22.1557
16:47:12:711,-2.7434,0.0425,9.9087,60.1735,0.0654,0.6331,0.4517,-22.2824
16:47:12:731,-2.257,0.1101,8.5747,59.8718,0.4306,0.5746,0.5347,-22.4118
16:47:12:752,-1.8455,0.1938,7.9998,59.6243,0.5457,0.1559,0.3845,-22.5522
16:47:12:771,-1.4692,0.1651,8.1769,59.2543,0.4583,-0.3734,0.226,-22.7045
16:47:12:792,-1.5553,0.5432,8.5627,59.3805,0.3614,-0.6108,0.1791,-22.8618
16:47:12:811,-1.4836,0.996,8.3833,59.134,0.3752,-0.4415,0.2441,-23.0194
16:47:12:833,-1.1527,1.3316,7.8658,58.9546,0.3774,-0.1688,0.3165,-23.1763
16:47:12:853,-1.2036,1.6959,7.4847,58.6364,0.2506,0.0048,0.3377,-23.3352
16:47:12:873,-1.3065,2.117,7.3699,58.8304,0.0855,0.0698,0.3856,-23.4983
16:47:12:893,-1.2275,2.3402,7.2592,58.8562,0.0068,0.1101,0.4431,-23.6666
16:47:12:913,-1.0857,2.5077,7.2138,58.92,0.0196,0.0687,0.4122,-23.8424
16:47:12:933,-0.9685,2.5866,7.3914,58.8355,0.043,-0.1166,0.2835,-24.0282
16:47:12:953,-1.1073,2.4191,7.7336,58.6098,0.0398,-0.3148,0.1109,-24.2218
16:47:12:973,-1.4094,2.3426,7.9567,58.5608,0.0611,-0.3563,0.0332,-24.4184
16:47:12:994,-1.6295,2.6895,8.1266,58.4115,0.1185,-0.2615,0.0811,-24.611
16:47:13:013,-1.5984,3.073,8.1769,58.2208,0.1771,-0.1507,0.1716,-24.797
16:47:13:034,-1.6965,3.4851,8.2391,57.8016,0.1963,-0.0602,0.2324,-24.9781
16:47:13:054,-1.9364,3.871,8.4359,57.8807,0.1824,-0.0218,0.259,-25.1571
16:47:13:074,-2.0584,4.1246,8.5938,57.7818,0.1675,0.0069,0.275,-25.3363
16:47:13:094,-1.9675,4.1988,8.8116,57.8732,0.1238,-0.0506,0.2387,-25.5167
16:47:13:115,-1.7593,4.2849,9.868,57.7141,-0.0007,-0.2977,0.1077,-25.6982
16:47:13:134,-1.745,4.0624,11.394,57.8052,-0.1519,-0.6246,-0.0957,-25.8786
16:47:13:155,-1.855,3.6263,12.5557,57.6544,-0.1945,-0.7258,-0.2193,-26.0554
16:47:13:175,-1.2299,3.0299,13.0493,57.6701,-0.0987,-0.5533,-0.1288,-26.2219
16:47:13:195,-0.2668,2.7835,12.8387,57.696,0.0515,-0.2093,0.1099,-26.374
16:47:13:216,0.4594,2.6536,12.2877,57.5395,0.0993,0.0506,0.1972,-26.5155
16:47:13:236,0.4283,2.4024,12.0407,57.5236,-0.0039,0.09,0.0491,-26.6563
16:47:13:256,0.1047,1.8299,11.5831,57.4203,-0.0806,0.125,-0.0808,-26.7994
16:47:13:276,-0.0413,1.3484,11.1356,57.6387,-0.0433,0.1378,-0.0893,-26.9401
16:47:13:296,0.344,0.7041,10.7737,57.5163,0.0292,0.0048,-0.0851,-27.074
16:47:13:317,0.9021,0.3278,10.3519,57.5835,0.0929,-0.1124,-0.0872,-27.2002
16:47:13:336,1.2042,0.7017,10.2251,57.6299,0.0611,-0.1869,-0.1309,-27.3197
16:47:13:356,0.9697,0.941,9.9589,57.7027,-0.055,-0.123,-0.2087,-27.4333
16:47:13:377,0.5097,1.3507,9.0491,57.7534,-0.1296,0.1868,-0.1852,-27.5394
16:47:13:396,0.3607,1.739,8.0261,57.6385,-0.1615,0.4776,-0.1149,-27.6346
16:47:13:417,0.2698,2.0022,7.4967,57.7575,-0.2169,0.5032,-0.1096,-27.6346
16:47:13:437,0.2052,2.2349,7.2305,57.7255,-0.2393,0.3796,-0.165,-27.6346
16:47:13:457,0.198,2.3737,7.1228,57.7635,-0.1892,0.2177,-0.2577,-27.6346
16:47:13:477,0.131,2.2971,6.9864,57.7215,-0.0784,0.0911,-0.3598,-27.6346
16:47:13:497,-0.1448,2.4072,6.7974,57.7141,0.0696,0.0762,-0.4184,-27.6346
16:47:13:518,-0.3864,2.5364,6.7131,57.6025,0.1718,0.0719,-0.4354,-27.6346
16:47:13:538,-0.5372,2.5842,6.7011,57.4079,0.1803,0.0261,-0.4109,-27.6346
16:47:13:558,-0.6694,2.7254,6.7274,57.4049,0.1324,0.0154,-0.3459,-27.6346
16:47:13:578,-0.6837,2.927,7.1468,57.2282,0.0579,-0.0495,-0.2758,-27.6346
16:47:13:603,-0.6598,3.1184,8.0046,57.0327,-0.0188,-0.1891,-0.2332,-27.6346
16:47:13:623,-0.88,3.2913,8.7829,56.7615,-0.0678,-0.2125,-0.2055,-27.6346
16:47:13:643,-1.1216,3.5952,9.4636,56.8444,-0.0933,-0.1092,-0.132,-27.6346
16:47:13:664,-1.0929,3.9452,10.6445,56.7948,-0.121,-0.1529,-0.0617,-27.6346
16:47:13:683,-0.7555,3.9045,12.0096,56.9902,-0.0806,-0.3073,-0.068,-27.6346
16:47:13:704,-0.5204,3.7579,12.8961,57.1849,0.1036,-0.2285,-0.1447,-27.6346
16:47:13:722,-0.8489,3.2788,13.1091,57.2493,0.3667,0.0943,-0.2577,-27.6346
16:47:13:743,-2.1541,2.6871,12.8961,57.231,0.5425,0.4979,-0.2905,-27.6346
16:47:13:765,-3.5438,2.8624,12.3547,57.3918,0.518,0.8748,-0.1192,-27.6346
16:47:13:784,-3.6658,2.9103,11.7488,57.4821,0.3454,1.041,0.243,-27.5361
16:47:13:803,-2.8684,2.6967,11.7033,57.3075,0.126,0.8631,0.5529,-27.4308
16:47:13:826,-2.1565,2.2684,12.0431,57.2658,-0.039,0.468,0.5624,-27.3333
16:47:13:842,-1.9986,1.7653,12.0383,56.8961,-0.0294,0.1634,0.3686,-27.3333
16:47:13:864,-2.0584,0.996,11.2385,56.7683,0.1505,0.0655,0.1344,-27.3333
16:47:13:903,-2.1398,0.548,10.6158,56.5477,0.3113,-0.106,-0.0702,-27.3333
16:47:13:905,-1.9579,0.3254,10.2443,56.3283,0.3497,-0.3712,-0.117,-27.3333
16:47:13:921,-1.4812,0.347,9.5426,56.2384,0.3294,-0.4149,0.0268,-27.3333
16:47:13:942,-1.0546,0.8788,8.7278,56.2172,0.2783,-0.2338,0.2313,-27.3333
16:47:13:963,-0.7507,1.5446,7.9328,56.3398,0.1931,-0.0506,0.3888,-27.3333
16:47:13:985,-0.3553,2.007,7.2353,56.0567,0.1324,0.0336,0.5071,-27.3333
16:47:14:004,-0.0963,2.4072,6.9577,56.1938,0.1185,-0.041,0.5337,-27.3333
16:47:14:025,0.1023,2.6225,6.6126,55.9171,0.1718,-0.0836,0.4655,-27.3333
16:47:14:044,0.0257,2.7882,6.186,55.9821,0.2559,-0.0197,0.3515,-27.3333
16:47:14:064,-0.003,2.9486,5.93,55.9737,0.3113,-0.0059,0.2121,-27.3333
16:47:14:084,0.1406,3.0634,5.7769,55.7186,0.3177,-0.0485,0.0598,-27.3333
16:47:14:104,0.0162,2.9581,6.076,55.6433,0.2101,-0.2221,-0.1746,-27.3333
16:47:14:124,-0.4295,2.6536,6.8022,55.5366,0.0462,-0.3893,-0.3981,-27.3333
16:47:14:145,-0.9159,2.5699,7.3196,55.5611,-0.006,-0.2913,-0.445,-27.3333
16:47:14:163,-1.2778,3.14,7.4321,55.5543,0.0654,0.0048,-0.3427,-27.3333
16:47:14:185,-1.3113,3.6622,7.4728,55.4942,0.0897,0.174,-0.2278,-27.3333
16:47:14:204,-1.5745,3.7555,7.9759,55.4012,-0.0007,0.0282,-0.2374,-27.3333
16:47:14:228,-1.8455,3.7771,8.7757,55.3468,-0.0635,-0.1742,-0.2736,-27.3333
16:47:14:244,-1.7521,4.1438,9.7914,55.4295,-0.0475,-0.3009,-0.2076,-27.3333
16:47:14:264,-1.6247,4.611,10.7904,55.4766,-0.0688,-0.4394,-0.1298,-27.3333
16:47:14:284,-1.6774,4.7904,12.1777,55.4723,-0.1988,-0.6992,-0.1692,-27.2418
16:47:14:306,-1.3017,4.3376,13.6217,55.5893,-0.3128,-0.9442,-0.2395,-27.1453
16:47:14:325,-0.2692,3.5713,14.2469,55.6006,-0.2105,-0.8654,-0.1533,-27.043
16:47:14:347,0.4038,3.2644,13.7127,55.7274,0.0292,-0.5065,-0.0542,-26.9334
16:47:14:365,0.7801,2.7787,12.9129,55.7992,0.1111,-0.2242,-0.1138,-26.82
16:47:14:385,0.8327,1.9519,12.4863,55.9294,-0.0166,-0.1198,-0.2097,-26.7074
16:47:14:405,0.6102,1.6116,11.7799,55.9867,-0.0582,0.0325,-0.1959,-26.5934
16:47:14:428,1.1348,1.267,10.6588,56.0548,0.1004,0.1506,-0.132,-26.4741
16:47:14:446,1.8843,1.0104,9.7866,56.243,0.2367,0.0399,-0.1969,-26.3477
16:47:14:466,2.0524,1.279,9.3386,56.1992,0.1782,-0.139,-0.3811,-26.2198
16:47:14:488,1.59,1.255,8.8642,56.2379,-0.0561,-0.1933,-0.6069,-26.0892
16:47:14:506,0.6365,1.255,8.3683,56.3006,-0.3117,-0.1007,-0.7475,-25.9488
16:47:14:528,-0.1184,1.4369,7.7791,56.324,-0.4822,0.0336,-0.6932,-25.7899
16:47:14:547,-0.3458,1.6187,7.142,56.3841,-0.5481,0.124,-0.4812,-25.6072
16:47:14:566,-0.2596,2.0046,6.9171,56.5043,-0.5363,0.1399,-0.2927,-25.4038
16:47:14:587,0.0281,2.3617,6.795,56.6387,-0.4076,0.1431,-0.2097,-25.1884
16:47:14:607,0.2315,2.7595,6.6293,56.58,-0.1626,0.1889,-0.2257,-24.9683
16:47:14:630,0.0903,2.9821,6.2967,56.6436,0.0961,0.1719,-0.3353,-24.7461
16:47:14:651,-0.2429,3.0514,6.0473,56.7068,0.2804,0.0421,-0.4727,-24.52
16:47:14:670,-0.4463,3.1543,6.119,56.8424,0.323,-0.1614,-0.5632,-24.2863
16:47:14:691,-0.5922,3.1615,6.4522,56.9069,0.2272,-0.2913,-0.575,-24.0399
16:47:14:709,-0.3912,3.4253,7.3316,56.8019,0.0249,-0.3755,-0.4961,-23.7774
16:47:14:729,-0.0604,3.7651,8.9073,56.9253,-0.1775,-0.3851,-0.3896,-23.4995
16:47:14:749,-0.1376,4.1868,10.2802,56.9746,-0.2052,-0.204,-0.3321,-23.2103
16:47:14:770,-0.3601,4.3208,10.8598,57.1929,-0.0316,0.0186,-0.315,-22.9147
16:47:14:792,-0.4128,4.3376,11.0949,57.3349,0.1814,0.1005,-0.298,-22.6156
16:47:14:809,-0.3027,4.1151,11.6626,57.5877,0.2815,-0.0069,-0.3278,-22.3119
16:47:14:829,-0.3984,3.6909,12.393,57.5813,0.2868,-0.1582,-0.429,-22.004
16:47:14:849,-0.9135,3.1424,12.865,57.7058,0.2943,-0.1944,-0.5238,-21.6913
16:47:14:870,-1.9244,3.1878,12.8387,57.9604,0.3624,0.09,-0.4067,-21.3705
16:47:14:890,-2.461,3.8303,11.9234,57.9346,0.4083,0.5746,-0.0276,-21.0383
16:47:14:909,-2.3294,3.7316,11.0273,58.0221,0.3113,0.7939,0.2888,-20.698
16:47:14:930,-2.5998,3.0586,11.1476,57.8042,0.0834,0.5192,0.2387,-20.3629
16:47:14:950,-3.0144,2.0548,11.3246,57.9099,-0.0379,0.2049,0.1535,-20.0453
16:47:14:970,-3.2345,1.6283,10.7378,57.8476,0.0739,0.2092,0.2888,-19.7441
16:47:14:990,-2.5615,1.4321,9.8895,57.861,0.2314,0.2134,0.4357,-19.4553
16:47:15:010,-1.4764,1.5039,9.5378,58.1116,0.2346,-0.0581,0.4517,-19.1821
16:47:15:031,-0.4032,1.6594,9.6646,58.1409,0.0707,-0.4373,0.3282,-18.9287
16:47:15:051,-0.0939,1.6187,9.6933,58.1254,-0.1455,-0.5522,0.1248,-18.6968
16:47:15:072,-0.2118,1.4154,9.4391,58.1896,-0.3256,-0.3957,-0.0435,-18.4834
16:47:15:092,-0.4702,1.4465,8.6847,58.5059,-0.3778,-0.0772,-0.0425,-18.2808
16:47:15:110,-0.5468,1.6092,7.6259,58.6854,-0.3266,0.1485,0.0822,-18.0824
16:47:15:130,-0.3745,1.9113,6.7226,58.752,-0.2361,0.1698,0.2249,-17.8882
16:47:15:151,-0.2668,2.3186,6.3135,59.0853,-0.1477,0.0154,0.2696,-17.7026
16:47:15:172,-0.3386,2.5579,6.1669,58.9072,-0.0465,-0.1923,0.2142,-17.5297
16:47:15:192,-0.4965,2.7182,6.1837,58.9613,0.0686,-0.3137,0.1663,-17.3709
16:47:15:212,-0.5755,3.1184,6.5216,58.9936,0.1377,-0.3808,0.1791,-17.2238
16:47:15:232,-0.6233,3.4229,6.9147,58.8642,0.1622,-0.3979,0.1823,-17.0854
16:47:15:252,-0.5563,3.6168,7.4369,58.8236,0.1526,-0.3755,0.1493,-16.9555
16:47:15:273,-0.667,3.8423,8.3396,58.6682,0.094,-0.3808,0.0694,-16.834
16:47:15:292,-0.9685,3.926,9.3123,58.7409,0.0292,-0.3435,-0.0318,-16.7192
16:47:15:312,-1.136,3.7531,10.1103,58.6864,0.0345,-0.2019,-0.0574,-16.6083
16:47:15:333,-1.3543,3.7771,10.06,58.7975,0.1867,0.0719,0.014,-16.4978
16:47:15:352,-1.2156,4.1031,9.947,58.8173,0.3859,0.239,0.079,-16.3861
16:47:15:373,-0.8776,4.2826,10.2347,58.9622,0.4604,0.0538,0.0449,-16.2755
16:47:15:395,-0.8991,4.1294,10.8933,59.0736,0.4061,-0.2988,-0.1,-16.1694
16:47:15:414,-1.3424,3.9882,11.5543,59.273,0.3071,-0.4437,-0.1863,-16.065
16:47:15:433,-1.4213,4.1749,11.9019,59.4277,0.2176,-0.2423,-0.0212,-15.9583
16:47:15:454,-0.4869,4.4578,11.677,59.5658,0.1057,0.0154,0.3122,-15.8456
16:47:15:474,0.9165,4.3041,11.8229,59.58,-0.1115,-0.0346,0.4495,-15.7331
16:47:15:494,1.8054,3.4086,12.5581,59.5368,-0.3671,-0.2487,0.1887,-15.6348
16:47:15:515,1.4967,2.2008,12.7095,59.5352,-0.414,-0.1188,-0.0979,-15.6348
16:47:15:534,0.5671,1.7127,11.5208,59.3926,-0.1807,0.3285,-0.1373,-15.6348
16:47:15:554,0.6173,1.1372,9.734,59.5869,0.1292,0.5746,-0.0574,-15.6348
16:47:15:576,1.1276,0.6754,8.8594,59.298,0.2059,0.2742,-0.1202,-15.6348
16:47:15:595,1.4578,0.8094,9.521,59.3106,-0.022,-0.3244,-0.3385,-15.6348
16:47:15:615,1.197,0.8166,10.0098,59.1706,-0.2798,-0.565,-0.494,-15.6348
16:47:15:636,0.4038,1.0104,9.2477,59.0187,-0.283,-0.1529,-0.4588,-15.5428
16:47:15:655,-0.2477,1.7174,7.5087,59.1144,-0.088,0.4521,-0.2842,-15.4366
16:47:15:676,-0.2692,2.3928,5.9803,59.1018,0.0419,0.6683,-0.1011,-15.3178
16:47:15:696,-0.1759,3.1089,5.458,59.1252,0.0281,0.4308,-0.0382,-15.1921
16:47:15:716,-0.0126,3.4253,5.6279,58.8581,0.0079,0.1048,-0.0979,-15.0663
16:47:15:736,0.1119,3.4708,5.942,58.9176,0.0611,0.0304,-0.214,-14.9426
16:47:15:757,-0.0772,3.3511,6.0185,58.8403,0.1164,0.1389,-0.3395,-14.8189
16:47:15:777,-0.4487,3.0108,6.3709,58.7915,0.0792,0.1431,-0.428,-14.6907
16:47:15:797,-0.813,2.7882,6.9888,58.9541,-0.0198,0.0474,-0.4237,-14.5535
16:47:15:817,-0.9278,3.0012,7.7312,58.787,-0.0987,0.0133,-0.2895,-14.4047
16:47:15:838,-0.5898,3.6814,8.723,58.7459,-0.1487,0.0027,-0.0638,-14.2438
16:47:15:858,-0.2309,4.2491,9.856,58.6033,-0.1818,-0.0144,0.129,-14.0762
16:47:15:877,0.0185,4.6564,11.0154,58.8191,-0.1381,-0.0133,0.2036,-13.9116
16:47:15:927,0.1071,4.812,11.72,58.8828,0.0718,0.0165,0.1802,-13.7583
16:47:15:928,0.1286,4.6971,11.8421,58.7425,0.4072,0.0495,0.0704,-13.6186
16:47:15:937,-0.3147,4.3184,11.7607,58.7203,0.666,0.0133,-0.149,-13.491
16:47:15:957,-1.3041,3.746,11.8421,58.6818,0.7192,-0.0676,-0.38,-13.3696
16:47:15:978,-2.5543,3.6191,11.8062,58.7115,0.6575,0.0197,-0.396,-13.2448
16:47:15:998,-3.122,3.9117,10.9436,58.7783,0.617,0.4009,-0.0638,-13.1074
16:47:16:018,-3.012,4.206,9.9422,58.9188,0.4775,0.7289,0.2995,-12.9559
16:47:16:039,-3.0431,3.9715,9.6359,58.731,0.1451,0.6694,0.3856,-12.8024
16:47:16:059,-3.4457,3.3129,9.7603,58.2561,-0.1562,0.4265,0.36,-12.6607
16:47:16:079,-3.3547,2.5699,9.7531,58.2121,-0.2254,0.2166,0.4027,-12.5354
16:47:16:100,-2.8301,2.1027,9.4851,57.9327,-0.1296,0.0133,0.4826,-12.4258
16:47:16:120,-2.0919,1.9161,9.4636,57.5187,-0.0859,-0.2541,0.4911,-12.3336
16:47:16:140,-1.0187,1.7581,9.8895,57.1824,-0.2052,-0.5213,0.4634,-12.3336
16:47:16:160,-0.5204,1.4082,10.3113,56.9818,-0.4087,-0.6108,0.3856,-12.3336
16:47:16:181,-0.5468,1.0319,10.2251,56.6626,-0.4949,-0.4426,0.3526,-12.3336
16:47:16:200,-0.6646,1.3484,9.2142,56.4401,-0.3341,-0.0091,0.5134,-12.3336
16:47:16:220,-0.6114,1.7821,7.7049,56.4956,-0.0965,0.3988,0.7073,-12.3336
16:47:16:243,-0.4726,2.2995,6.2704,56.338,0.0079,0.5469,0.8117,-12.3336
16:47:16:262,-0.4271,2.9749,5.4652,56.319,-0.0145,0.3967,0.849,-12.3336
16:47:16:282,-0.2692,3.3559,5.549,56.14,-0.0699,0.0357,0.7755,-12.3336
16:47:16:302,-0.1424,3.3176,6.1214,56.2629,-0.1104,-0.2775,0.5869,-12.4386
16:47:16:321,-0.2166,3.073,6.7513,55.9436,-0.1232,-0.3723,0.4027,-12.5697
16:47:16:342,-0.5133,3.454,7.3795,55.6639,-0.1221,-0.2519,0.3334,-12.7194
16:47:16:361,-0.6574,3.7819,7.9998,55.3299,-0.1477,-0.1358,0.3197,-12.8804
16:47:16:382,-0.5731,3.7555,8.4526,55.2375,-0.1775,-0.09,0.2952,-13.0476
16:47:16:402,-0.6742,3.8877,9.0227,55.0372,-0.1626,-0.1145,0.2366,-13.2214
16:47:16:422,-0.868,4.0935,9.9906,54.8777,-0.0965,-0.2189,0.1812,-13.401
16:47:16:441,-1.0953,4.3543,10.3807,54.9007,0.0505,-0.122,0.2047,-13.5842
16:47:16:462,-1.2299,4.7186,9.8776,54.6905,0.2112,0.108,0.2632,-13.7684
16:47:16:482,-1.1432,4.8646,9.6981,54.5252,0.2122,0.0868,0.2643,-13.9536
16:47:16:503,-0.4989,4.52,10.6182,54.4473,0.0142,-0.2818,0.1951,-14.1412
16:47:16:523,-0.1208,3.9476,12.137,54.5612,-0.2052,-0.6236,0.0854,-14.3317
16:47:16:544,-0.2046,3.8201,13.3274,54.2814,-0.2712,-0.5618,0.0651,-14.5237
16:47:16:563,0.6724,3.7005,13.2078,54.2111,-0.1945,-0.1838,0.2451,-14.713
16:47:16:585,1.8867,3.332,12.5103,53.7795,-0.1328,0.1623,0.3494,-14.8987
16:47:16:604,1.9466,2.8624,11.7918,53.3076,-0.1807,0.3807,0.1567,-15.0893
16:47:16:624,1.1085,2.3689,10.9101,52.8588,-0.1658,0.5032,-0.0403,-15.2895
16:47:16:644,0.7992,1.7438,10.2299,52.5269,-0.0017,0.3349,-0.1202,-15.4923
16:47:16:664,1.008,0.8046,9.3386,52.533,0.224,0.0431,-0.2065,-15.6894
16:47:16:685,1.2162,0.5743,9.3194,52.2851,0.2719,-0.3137,-0.3406,-15.8782
16:47:16:705,1.2808,0.9649,9.8249,52.2211,0.0473,-0.6662,-0.4429,-16.0566
16:47:16:725,0.9476,1.2526,9.7436,51.9844,-0.1956,-0.4788,-0.4461,-16.2186
16:47:16:745,0.3344,1.5852,8.8522,52.0332,-0.3213,0.0666,-0.3726,-16.3614
16:47:16:764,-0.0126,2.1577,7.3843,52.0717,-0.3298,0.5511,-0.2236,-16.4848
16:47:16:785,-0.0508,2.7302,6.2441,51.9796,-0.2979,0.6853,-0.1117,-16.5916
16:47:16:805,-0.1059,3.2429,5.7697,52.0713,-0.2595,0.5575,-0.1213,-16.6876
16:47:16:825,-0.1591,3.5713,5.9683,51.7314,-0.1754,0.3253,-0.2353,-16.6876
16:47:16:845,-0.2285,3.5306,6.2219,51.4897,0.0206,0.2017,-0.363,-16.6876
16:47:16:866,-0.3721,3.2644,6.2536,51.573,0.2272,0.1474,-0.5142,-16.6876
16:47:16:885,-0.7579,2.9725,6.6413,51.5927,0.2698,-0.0069,-0.6367,-16.6876
16:47:16:906,-0.9733,2.7523,7.7121,51.3484,0.159,-0.2338,-0.6122,-16.6876
16:47:16:927,-0.7938,2.8241,8.8666,51.2731,0.0622,-0.302,-0.412,-16.6876
16:47:16:946,-0.734,3.4229,9.4851,51.2518,0.026,-0.074,-0.1618,-16.6876
16:47:16:966,-0.734,4.0313,9.9446,51.127,0.0036,0.2028,0.0481,-16.6876
16:47:16:988,-0.5563,4.4076,10.4213,51.3317,0.0292,0.288,0.1642,-16.6876
16:47:17:008,-0.262,4.6445,10.7234,51.1993,0.1505,0.2422,0.1791,-16.6876
16:47:17:031,0.0209,4.5535,10.9843,50.7887,0.274,0.1399,0.0555,-16.6876
16:47:17:053,-0.1783,4.127,11.5232,50.4617,0.29,0.0581,-0.1415,-16.6876
16:47:17:071,-1.0642,3.7771,12.2662,50.3931,0.2304,0.0858,-0.298,-16.6876
16:47:17:092,-2.5878,3.5952,11.9809,50.6487,0.241,0.4339,-0.2534,-16.6876
16:47:17:111,-3.2919,3.6359,10.5248,50.5824,0.3081,0.926,0.0917,-16.6876
16:47:17:130,-3.201,3.4995,9.7316,50.3037,0.2186,1.0112,0.4208,-16.6876
16:47:17:152,-3.1484,3.1831,10.285,49.7459,-0.0518,0.6268,0.4879,-16.6876
16:47:17:171,-3.0455,2.5077,10.7115,49.5616,-0.1775,0.2997,0.506,-16.6876
16:47:17:192,-3.0287,2.1649,10.2299,49.4734,-0.0507,0.2806,0.5774,-16.6876
16:47:17:211,-2.6548,1.7677,9.2405,49.3655,0.0569,0.2987,0.6093,-16.6876
16:47:17:231,-1.7976,1.5996,9.1639,49.2722,-0.1083,0.0101,0.5667,-16.6876
16:47:17:253,-0.9709,1.389,9.9302,48.5952,-0.4566,-0.4447,0.4325,-16.6876
16:47:17:272,-0.8297,0.9577,10.5631,48.6343,-0.7345,-0.6065,0.2569,-16.6876
16:47:17:294,-0.8871,0.591,10.407,48.6618,-0.8048,-0.3766,0.1972,-16.7866
16:47:17:315,-0.868,0.7663,9.3075,48.8604,-0.6599,-0.0389,0.3739,-16.8952
16:47:17:333,-0.408,1.2287,7.7958,49.0589,-0.3799,0.1378,0.6487,-17.0115
16:47:17:354,0.1956,1.7462,6.5791,48.9207,-0.1029,0.1176,0.8,-17.1405
16:47:17:375,0.4834,2.4503,5.93,48.7236,0.027,-0.0666,0.7478,-17.2902
16:47:17:394,0.6891,2.9414,5.8032,48.4379,0.0281,-0.2892,0.5901,-17.4653
16:47:17:413,0.5791,3.2333,5.9252,48.5308,-0.0177,-0.3574,0.4154,-17.6628
16:47:17:433,0.4307,3.2913,6.3398,48.3547,-0.0763,-0.335,0.2569,-17.8756
16:47:17:454,0.3655,3.1926,6.9769,48.2424,-0.1402,-0.3446,0.0992,-18.0963
16:47:17:474,-0.0293,3.0419,7.8538,48.0462,-0.2009,-0.3542,-0.0872,-18.3193
16:47:17:493,-0.5372,2.9533,8.9701,47.7437,-0.2414,-0.4075,-0.23,-18.5394
16:47:17:513,-0.9087,2.8983,9.9135,47.7007,-0.1583,-0.3925,-0.2246,-18.7494
16:47:17:534,-1.1097,3.0849,10.5799,47.829,0.0929,-0.2988,-0.1202,-18.9436
16:47:17:553,-0.9757,3.4851,10.474,47.8222,0.4072,-0.1869,-0.0403,-19.1227
16:47:17:573,-0.6042,3.734,10.3065,47.8449,0.5659,-0.2136,-0.0414,-19.2896
16:47:17:593,-0.4941,3.9093,10.6229,47.8491,0.4541,-0.3979,-0.1501,-19.448
16:47:17:614,-0.6353,3.801,11.2002,48.057,0.2059,-0.4799,-0.2694,-19.5984
16:47:17:634,-0.9805,3.9428,11.7727,48.1958,-0.0007,-0.384,-0.2321,-19.7374
16:47:17:654,-0.7053,4.1964,11.8923,48.1017,-0.0614,-0.2253,-0.0169,-19.8598
16:47:17:674,0.7226,4.2084,11.7799,48.2825,-0.0465,-0.1571,0.2068,-19.968
16:47:17:694,2.196,3.8495,12.2327,48.3068,-0.1455,-0.2924,0.128,-20.07
16:47:17:714,2.4114,2.6871,12.8291,48.5092,-0.3106,-0.4021,-0.2608,-20.1753
16:47:17:733,1.4004,1.4871,12.3356,48.5076,-0.2659,-0.1241,-0.543,-20.2822
16:47:17:755,0.2865,0.9601,10.8598,48.7639,0.0398,0.3296,-0.4865,-20.3768
16:47:17:776,0.2626,0.6054,9.1687,48.6815,0.3337,0.467,-0.2852,-20.3768
16:47:17:794,0.8447,0.4546,8.3515,48.7047,0.3795,0.141,-0.2012,-20.3768
16:47:17:815,1.7192,0.6826,8.7063,48.9839,0.1803,-0.3329,-0.2417,-20.3768
16:47:17:834,1.6475,1.1641,9.0514,48.9187,-0.0933,-0.4106,-0.3481,-20.3768
16:47:17:854,0.9165,1.4321,8.6178,49.0804,-0.2925,-0.0772,-0.4248,-20.3768
16:47:17:874,0.3583,1.739,7.6427,49.1214,-0.3788,0.3434,-0.3555,-20.3768
16:47:17:895,0.1932,2.2104,6.7513,49.263,-0.4289,0.5415,-0.264,-20.3768
16:47:17:956,0.2004,2.7422,6.3159,49.1369,-0.4758,0.467,-0.2545,-20.3768
16:47:17:958,0.1478,3.073,6.3972,49.3661,-0.4853,0.2571,-0.3459,-20.3768
16:47:17:963,-0.0389,3.0969,6.5815,49.4751,-0.3991,0.108,-0.477,-20.3768
16:47:17:977,-0.3864,3.0586,6.5599,49.5703,-0.2329,0.1495,-0.5718,-20.3768
16:47:17:994,-0.9781,3.0634,6.3685,49.7755,-0.1136,0.2699,-0.6154,-20.3768
16:47:18:014,-1.541,3.1208,6.4546,50.056,-0.1317,0.3061,-0.5792,-20.2845
16:47:18:035,-1.5649,3.1543,6.9841,50.3228,-0.2585,0.1708,-0.4631,-20.1699
16:47:18:056,-1.0977,3.274,8.2343,50.4201,-0.4044,-0.0005,-0.3172,-20.0355
16:47:18:083,-0.7866,3.4516,9.521,50.6275,-0.4608,-0.0421,-0.2001,-19.8865
16:47:18:096,-0.8249,3.2405,10.5368,50.668,-0.3724,-0.0293,-0.1778,-19.7288
16:47:18:117,-0.9302,3.0682,11.3438,50.7608,-0.1583,-0.122,-0.1714,-19.5678
16:47:18:136,-0.7316,3.073,11.7679,51.0823,0.1292,-0.1603,-0.0798,-19.4047
16:47:18:157,-0.4152,3.0251,11.7583,51.2115,0.3848,-0.0879,0.0044,-19.239
16:47:18:177,-0.2788,2.9294,11.6937,50.9193,0.4913,-0.0037,-0.0031,-19.0731
16:47:18:197,-0.3912,2.7422,11.8205,50.9085,0.4487,0.073,-0.0499,-18.91
16:47:18:216,-1.1575,2.7811,11.7344,51.0781,0.3763,0.3317,0.0108,-18.7496
16:47:18:237,-2.0106,3.1615,11.3414,51.2195,0.3284,0.6875,0.2856,-18.5899
16:47:18:257,-1.9196,3.2572,10.6301,51.3878,0.2932,0.9419,0.6125,-18.4327
16:47:18:277,-1.5075,3.0299,10.395,51.4825,0.1494,0.7608,0.6754,-18.286
16:47:18:298,-1.4453,2.2804,11.001,51.1858,-0.0582,0.1932,0.424,-18.1628
16:47:18:317,-2.1948,1.6762,11.193,51.3053,-0.1083,-0.1273,0.1365,-18.065
16:47:18:338,-2.4132,1.0391,10.6205,51.5272,0.0036,-0.0889,0.0779,-18.065
16:47:18:357,-1.7713,0.6969,10.4213,51.5115,-0.0028,-0.1678,0.1226,-18.065
16:47:18:379,-0.8991,0.7017,10.6851,51.6049,-0.2233,-0.3254,0.1312,-18.065
16:47:18:397,-0.4534,0.862,10.7593,51.608,-0.4928,-0.2732,0.1184,-18.065
16:47:18:419,-0.3434,0.8046,10.5655,51.5038,-0.6397,-0.0144,0.1194,-18.065
16:47:18:438,-0.207,0.807,9.7508,51.7624,-0.5949,0.2518,0.1642,-18.065
16:47:18:458,-0.0245,1.0989,8.951,52.1067,-0.4502,0.353,0.2174,-18.065
16:47:18:479,-0.0963,1.4752,8.8044,51.9719,-0.3234,0.1005,0.2185,-18.065
16:47:18:499,-0.0317,1.7892,8.6728,52.0832,-0.1115,-0.1603,0.2547,-18.065
16:47:18:520,0.1884,2.2181,7.8873,52.195,0.2144,-0.1252,0.3441,-18.065
16:47:18:540,0.1789,2.8672,7.008,52.1006,0.4754,-0.0336,0.3718,-18.065
16:47:18:560,0.0329,3.3655,6.5623,52.3026,0.5851,-0.1113,0.3101,-18.065
16:47:18:580,-0.2979,3.5976,6.6556,52.4279,0.5957,-0.2359,0.1802,-18.065
16:47:18:600,-0.7436,3.7436,6.7926,51.9505,0.5169,-0.1518,0.0342,-18.065
16:47:18:620,-1.5147,3.7077,7.0511,51.7033,0.3113,0.0144,-0.0766,-18.065
16:47:18:642,-2.4467,3.9476,7.8245,51.7029,0.0483,0.1655,-0.1213,-18.065
16:47:18:660,-2.8851,3.7651,8.6225,51.5946,-0.1168,0.3477,-0.1362,-18.065
16:47:18:681,-2.8708,3.4469,8.9294,51.465,-0.104,0.5405,-0.1501,-18.065
16:47:18:700,-2.2211,3.262,9.1783,51.2094,0.0174,0.4883,-0.1362,-18.065
16:47:18:721,-1.5386,3.2189,10.1892,51.0441,0.0929,0.108,-0.2353,-18.065
16:47:18:742,-1.2514,2.6991,11.3294,50.8051,0.0579,-0.2818,-0.4194,-18.065
16:47:18:761,-1.7569,2.3976,11.7488,50.9828,0.0334,-0.2881,-0.4088,-18.065
16:47:18:782,-2.123,2.5651,12.2303,51.0942,0.0526,-0.1806,-0.1288,-18.065
16:47:18:802,-1.1988,2.6776,12.3452,51.1635,0.1004,-0.1103,0.2707,-17.9679
16:47:18:823,0.2315,2.8122,12.2136,51.2232,0.0473,-0.0676,0.5411,-17.8654
16:47:18:842,1.1276,2.4239,12.8913,51.1466,-0.2201,-0.2168,0.4261,-17.7732
16:47:18:862,0.7705,1.5446,13.5188,51.3722,-0.4545,-0.2892,0.1567,-17.7732
16:47:18:882,-0.2668,1.1521,13.0325,51.3636,-0.3106,-0.0506,0.0949,-17.7732
16:47:18:904,0.0066,0.874,11.7392,51.7267,0.1313,0.1591,0.1748,-17.7732
16:47:18:923,0.7848,0.4522,10.788,51.6483,0.4509,0.0091,0.0129,-17.7732
16:47:18:943,1.0032,0.5121,10.5099,51.6151,0.4285,-0.3361,-0.3427,-17.7732
16:47:18:962,0.6461,0.5934,9.9805,51.5153,0.3188,-0.4021,-0.5004,-17.7732
16:47:18:983,0.1573,1.0223,8.79,51.4828,0.3667,-0.0399,-0.4354,-17.7732
16:47:19:004,-0.1567,1.6499,6.941,51.6309,0.4849,0.4339,-0.2873,-17.7732
16:47:19:024,-0.0843,2.2397,5.4628,51.7377,0.47,0.5895,-0.1479,-17.6767
16:47:19:044,-0.0389,2.8839,5.065,51.7992,0.2634,0.3743,-0.1213,-17.5695
16:47:19:064,-0.0269,3.2118,5.4772,51.6708,0.0036,0.074,-0.2023,-17.457
16:47:19:084,-0.195,3.1615,6.0592,51.6496,-0.1519,-0.0836,-0.3065,-17.3407
16:47:19:104,-0.3505,2.8481,6.3637,51.499,-0.1296,-0.0506,-0.347,-17.2186
16:47:19:125,-0.597,2.6536,6.3087,51.4051,0.0398,0.1197,-0.314,-17.0875
16:47:19:144,-0.7747,2.7254,6.2584,51.2899,0.1952,0.1538,-0.2513,-16.9461
16:47:19:165,-0.6425,2.8839,6.4977,51.292,0.2421,0.0165,-0.1767,-16.7947
16:47:19:185,-0.7292,3.2668,7.2233,51.0361,0.1856,-0.1262,-0.1224,-16.6356
16:47:19:205,-0.947,3.5569,7.8341,50.9868,0.1324,-0.1603,-0.0542,-16.4713
16:47:19:225,-1.0618,4.005,8.5125,50.9671,0.1324,-0.074,0.0566,-16.3038
16:47:19:245,-1.1097,4.3837,9.3793,51.0875,0.1228,-0.0804,0.1344,-16.1361
16:47:19:266,-0.6401,4.4076,10.2945,51.1957,0.1206,-0.171,0.1471,-15.9725
16:47:19:286,-0.3003,4.2251,11.138,51.3845,0.1036,-0.2114,0.0172,-15.8133
16:47:19:306,-0.5827,3.8082,12.0622,51.4585,-0.0028,-0.1987,-0.2545,-15.6602
16:47:19:327,-1.922,3.4971,13.0612,51.3919,-0.137,-0.1369,-0.4855,-15.5089
16:47:19:346,-3.2847,3.4421,12.8243,51.5719,-0.039,0.2987,-0.3534,-15.3505
16:47:19:366,-3.5701,3.3799,11.2433,51.6534,0.2261,0.8301,0.096,-15.1756
16:47:19:386,-3.4385,3.2524,10.1773,51.6437,0.2634,0.8919,0.3569,-14.9897
16:47:19:407,-3.5509,2.927,9.8225,51.7622,0.0302,0.6289,0.3803,-14.8074
16:47:19:428,-3.7567,3.0156,9.9398,51.729,-0.1636,0.386,0.4644,-14.6392
16:47:19:447,-2.9809,2.9438,9.6287,51.644,-0.136,0.2443,0.6977,-14.4861
16:47:19:467,-1.9914,2.8002,9.1376,51.6628,-0.0571,0.0975,0.7478,-14.352
16:47:19:488,-1.3591,2.4431,9.2405,51.8363,-0.1796,-0.2509,0.4623,-14.2437
16:47:19:507,-1.2754,1.9519,9.9374,51.8979,-0.4577,-0.6736,0.1312,-14.2437
16:47:19:529,-1.1767,1.4847,10.5823,52.04,-0.6429,-0.8164,-0.0403,-14.2437
16:47:19:548,-1.2179,0.9434,10.6182,52.1727,-0.629,-0.6363,-0.0723,-14.2437
16:47:19:570,-1.3735,0.7256,10.0289,52.2115,-0.464,-0.3542,0.0417,-14.2437
16:47:19:591,-1.407,0.9529,8.9629,52.8509,-0.202,-0.1017,0.2547,-14.2437
16:47:19:610,-1.2275,1.3579,7.7169,53.2091,0.0908,0.0549,0.4804,-14.2437
16:47:19:633,-1.069,1.8945,6.7442,53.204,0.3156,0.0591,0.6381,-14.2437
16:47:19:651,-0.8871,2.5938,6.1478,53.3987,0.4423,0.0059,0.735,-14.2437
16:47:19:672,-0.5587,3.1711,5.8367,53.3296,0.4668,-0.0463,0.735,-14.2437
16:47:19:691,-0.4152,3.3488,5.9228,53.5306,0.3561,-0.1891,0.5561,-14.2437
16:47:19:712,-0.6742,3.2189,6.5336,53.8205,0.1558,-0.3244,0.2696,-14.2437
16:47:19:730,-1.2826,3.3416,7.4249,53.7599,-0.0507,-0.3041,0.0981,-14.2437
16:47:19:750,-1.7085,3.2596,8.2223,54.0404,-0.218,-0.1795,0.096,-14.2437
16:47:19:770,-1.7856,3.1089,8.7422,53.8254,-0.2808,-0.0165,0.1695,-14.2437
16:47:19:790,-1.5386,3.4588,9.2764,53.9896,-0.2148,0.0794,0.2686,-14.2437
16:47:19:811,-1.3017,3.8495,10.0528,54.1601,-0.0784,-0.0314,0.308,-14.2437
16:47:19:831,-1.1288,4.0552,11.056,54.4499,0.0366,-0.3052,0.2281,-14.2437
16:47:19:852,-0.801,4.0337,11.9091,54.6371,0.1196,-0.4596,0.1514,-14.2437
16:47:19:870,-0.4798,3.9882,12.3476,54.4796,0.1196,-0.416,0.1024,-14.2437
16:47:19:891,0.3296,3.4253,12.6688,54.4803,0.0377,-0.3691,0.1162,-14.2437
16:47:19:911,1.1492,3.0634,12.7358,54.5392,-0.0699,-0.2317,0.1407,-14.2437
16:47:19:962,1.1731,2.5125,12.2255,54.9078,-0.1775,0.1059,0.0332,-14.3338
16:47:19:963,0.3488,1.7103,11.5472,55.0898,-0.2883,0.3296,-0.1533,-14.4272
16:47:19:970,-0.0293,1.0271,10.6397,55.1028,-0.2638,0.435,-0.1032,-14.5198
16:47:19:990,0.119,1.346,10.1892,55.1091,-0.1029,0.3338,0.1557,-14.5198
16:47:20:011,0.8614,1.5541,9.7675,54.9649,0.0739,0.0282,0.3048,-14.5198
16:47:20:032,1.7288,1.4489,9.14,55.2735,0.1771,-0.2285,0.2398,-14.5198
16:47:20:052,2.2439,1.6863,8.8953,55.5931,0.0876,-0.4458,0.0438,-14.6188
16:47:20:072,2.2175,2.1577,9.0371,55.5393,-0.2116,-0.5554,-0.1628,-14.7255
16:47:20:092,1.8245,2.2828,9.0132,55.538,-0.5587,-0.3659,-0.3502,-14.8324
16:47:20:112,1.1252,2.1984,8.2989,55.5646,-0.7824,0.0431,-0.4876,-14.9321
16:47:20:132,0.4786,2.117,7.3723,55.6422,-0.8208,0.3296,-0.5547,-14.9321
16:47:20:153,0.0497,2.0501,7.0152,55.6099,-0.7292,0.3285,-0.5909,-14.9321
16:47:20:172,-0.262,2.1458,6.9075,55.9878,-0.5056,0.1879,-0.5856,-14.9321
16:47:20:193,-0.4845,2.4072,6.4977,55.9616,-0.1466,0.157,-0.5366,-14.9321
16:47:20:213,-0.8297,2.7715,6.2219,56.1966,0.1654,0.1027,-0.5483,-14.9321
16:47:20:233,-1.2203,2.8959,6.3829,56.1908,0.2847,-0.106,-0.6037,-14.9321
16:47:20:253,-1.4046,2.817,7.1348,56.4382,0.2208,-0.3755,-0.6112,-14.9321
16:47:20:274,-1.5147,2.8409,8.2223,56.5854,0.0782,-0.4799,-0.526,-14.9321
16:47:20:293,-1.5649,2.9964,9.4708,56.7565,-0.0859,-0.3872,-0.3353,-14.9321
16:47:20:318,-1.3376,3.1424,10.6134,57.3474,-0.2052,-0.1465,-0.083,-14.8391
16:47:20:334,-1.1599,3.1783,11.2528,57.3727,-0.1818,0.1431,0.1439,-14.7353
16:47:20:359,-0.9063,3.2285,11.6746,57.4787,0.0036,0.2646,0.3048,-14.6323
16:47:20:374,-0.6449,3.32,12.0168,57.1713,0.2932,0.2465,0.3686,-14.5378
16:47:20:395,-0.7795,3.2237,12.0503,57.5443,0.5638,0.2529,0.292,-14.5378
16:47:20:418,-1.3208,2.9821,11.7823,57.4338,0.6852,0.2976,0.1599,-14.5378
16:47:20:439,-2.0297,2.9916,11.6865,57.4605,0.6405,0.3604,0.1557,-14.5378
16:47:20:458,-2.0608,3.0562,11.2289,57.411,0.5286,0.5341,0.3515,-14.5378
16:47:20:480,-1.7713,3.0634,10.9292,57.0097,0.3699,0.6246,0.5635,-14.5378
16:47:20:498,-1.788,2.793,11.0949,56.6995,0.1377,0.4489,0.571,-14.5378
16:47:20:520,-2.2475,2.2373,11.2146,56.5244,-0.0475,0.2646,0.4815,-14.5378
16:47:20:539,-2.5998,2.0357,10.8263,56.4464,-0.0646,0.2529,0.5113,-14.5378
16:47:20:560,-2.0106,1.8203,10.2323,56.0736,-0.0209,0.206,0.6168,-14.5378
16:47:20:580,-1.2012,1.5852,10.3663,55.9407,-0.1296,-0.0261,0.5731,-14.5378
16:47:20:600,-0.8536,1.1037,10.5607,55.822,-0.381,-0.2264,0.4293,-14.5378
16:47:20:619,-0.813,0.7448,10.6756,55.6305,-0.5747,-0.2391,0.3739,-14.6382
16:47:20:642,-0.8895,0.5838,10.1198,55.4659,-0.5566,-0.0378,0.4442,-14.7547
16:47:20:659,-0.5707,0.917,8.9025,55.6018,-0.3586,0.2124,0.6391,-14.8856
16:47:20:680,-0.1448,1.3316,7.5374,55.5337,-0.088,0.3221,0.8501,-15.0327
16:47:20:700,0.2674,1.8802,6.4618,55.4469,0.1579,0.3146,0.9831,-15.2016
16:47:20:719,0.7131,2.6847,5.5011,55.4302,0.3273,0.2646,1.0385,-15.3986
16:47:20:740,0.8662,3.4564,5.0028,55.2198,0.3592,0.1048,0.9278,-15.627
16:47:20:761,0.749,3.8082,5.1368,54.9712,0.2623,-0.1795,0.6317,-15.8887
16:47:20:781,0.1717,3.6622,5.7888,54.6013,0.126,-0.3968,0.2686,-16.1783
16:47:20:800,-0.4104,3.4516,6.6796,54.5725,0.0164,-0.4969,0.0268,-16.484
16:47:20:821,-0.7125,2.939,7.5709,54.2317,-0.1019,-0.4991,-0.0957,-16.7924
16:47:20:840,-1.0068,2.4957,8.7111,54.1593,-0.2723,-0.5554,-0.1692,-17.0937
16:47:20:860,-1.0403,2.0883,9.9829,54.1029,-0.3607,-0.5927,-0.1597,-17.3832
16:47:20:881,-0.7292,1.7414,11.1141,53.8757,-0.235,-0.449,-0.0318,-17.6581
16:47:20:900,-0.6814,2.196,11.2792,53.9343,0.0782,-0.0506,0.1812,-17.921
16:47:20:921,-0.7101,2.8289,10.7545,53.961,0.3592,0.2848,0.3494,-18.1779
16:47:20:940,-0.4152,3.2524,10.4572,54.0246,0.4519,0.2667,0.4027,-18.436
16:47:20:961,0.0592,3.7268,10.4309,54.1206,0.3933,0.1144,0.3739,-18.7017
16:47:20:980,0.4355,4.3519,11.1188,54.1241,0.1824,-0.0879,0.2302,-18.9751
16:47:21:001,1.0223,4.3837,11.8612,53.9657,-0.0987,-0.3137,0.0896,-19.2553
16:47:21:020,1.9155,3.813,12.3715,53.949,-0.2968,-0.3521,0.0012,-19.5387
16:47:21:041,2.3324,2.9031,13.0947,53.967,-0.4502,-0.3265,-0.2172,-19.821
16:47:21:061,2.0183,1.7892,13.0397,53.8082,-0.5077,-0.1134,-0.4407,-20.0998
16:47:21:081,1.1348,1.279,12.1609,53.7319,-0.3703,0.2081,-0.4141,-20.3679
16:47:21:101,1.0582,1.1785,11.0393,53.7939,-0.0816,0.2965,-0.2001,-20.6167
16:47:21:122,1.8293,0.7017,9.6072,53.493,0.208,0.1858,-0.0798,-20.8482
16:47:21:141,2.5214,0.8596,8.9097,53.5851,0.2794,-0.0985,-0.1703,-21.0698
16:47:21:162,2.4042,1.3196,8.9964,53.7743,0.0739,-0.4011,-0.3992,-21.2871
16:47:21:182,1.8485,1.1737,8.8164,53.6165,-0.1818,-0.3712,-0.6016,-21.4976
16:47:21:202,0.8327,1.1904,8.3276,53.4811,-0.3128,-0.0421,-0.6655,-21.6937
16:47:21:222,0.1454,1.4393,7.5087,53.7631,-0.3117,0.3093,-0.5845,-21.8673
16:47:21:242,0.0018,1.9663,6.682,53.801,-0.219,0.5032,-0.4067,-22.0166
16:47:21:262,0.0473,2.601,6.0209,53.8834,-0.0816,0.5394,-0.2736,-22.1433
16:47:21:283,-0.0054,3.2477,5.6064,54.1494,0.0579,0.4712,-0.2651,-22.2547
16:47:21:302,-0.0843,3.5761,5.5466,54.2348,0.1526,0.3104,-0.3939,-22.3562
16:47:21:323,-0.2213,3.5737,5.8152,54.2748,0.1696,0.1282,-0.5803,-22.448
16:47:21:343,-0.4223,3.4349,6.3805,54.434,0.0887,-0.0932,-0.7166,-22.448
16:47:21:363,-0.5683,3.262,7.389,54.6312,-0.0593,-0.2881,-0.7305,-22.448
16:47:21:383,-0.6401,3.0371,8.68,54.5389,-0.2095,-0.4458,-0.6687,-22.448
16:47:21:405,-0.6185,3.0491,10.0241,54.5972,-0.2755,-0.4437,-0.5473,-22.448
16:47:21:424,-0.5276,3.1017,11.4897,54.6717,-0.2297,-0.334,-0.3704,-22.448
16:47:21:444,-0.408,2.9294,12.7478,54.5818,-0.0561,-0.2157,-0.2182,-22.448
16:47:21:464,-0.384,2.7954,13.0421,54.6213,0.2527,0.0538,-0.0936,-22.448
16:47:21:485,-0.4822,2.7595,12.4887,54.7145,0.5606,0.3328,0.0172,-22.448
16:47:21:504,-0.9182,2.805,12.1125,54.9586,0.7117,0.451,0.0715,-22.448
16:47:21:525,-1.462,2.9605,12.0885,55.2025,0.7181,0.4648,0.162,-22.448
16:47:21:545,-1.4381,2.8624,11.6865,55.2904,0.6778,0.4925,0.3208,-22.448
16:47:21:566,-1.6917,2.805,11.8229,55.3178,0.551,0.3487,0.3505,-22.448
16:47:21:584,-2.3198,2.3952,11.6483,55.3604,0.4221,0.2848,0.308,-22.448
16:47:21:606,-2.7171,2.2421,10.4046,55.3903,0.469,0.5863,0.4474,-22.448
16:47:21:624,-2.2863,2.4431,9.0395,55.2882,0.4988,0.7374,0.6306,-22.448
16:47:21:646,-1.2251,2.7595,8.4814,54.9935,0.29,0.4169,0.6679,-22.448
16:47:21:665,-0.2237,2.6489,9.0347,54.7477,-0.1338,-0.1166,0.4612,-22.448
16:47:21:685,0.1525,1.9496,9.5091,54.4485,-0.5576,-0.3254,0.1333,-22.448
16:47:21:706,0.1047,1.0893,9.6909,54.2785,-0.8335,-0.1624,-0.084,-22.5574
16:47:21:726,-0.2524,0.4307,9.3242,54.1286,-0.9049,0.1176,-0.1,-22.6745
16:47:21:747,-0.2788,-0.1226,8.7589,54.2302,-0.792,0.1783,0.0108,-22.7903
16:47:21:766,-0.0173,-0.2088,8.0285,54.1378,-0.5226,0.1101,0.2419,-22.904
16:47:21:786,0.3703,0.6467,7.3268,54.0658,-0.2052,0.1549,0.5465,-23.0193
16:47:21:807,0.7537,1.873,6.536,54.218,-0.0092,0.2848,0.7084,-23.1455
16:47:21:827,0.9625,2.723,5.942,54.3513,-0.0337,0.2763,0.6072,-23.2927
16:47:21:846,0.9721,3.1567,6.0209,54.5031,-0.2265,0.0037,0.2931,-23.4652
16:47:21:868,0.5791,2.7763,7.0008,54.759,-0.464,-0.4543,-0.1437,-23.6582
16:47:21:888,-0.1974,2.4383,8.1194,54.7683,-0.5971,-0.6843,-0.4855,-23.8601
16:47:21:908,-0.7962,1.8921,8.7757,54.2879,-0.5726,-0.5288,-0.5963,-24.0557
16:47:21:928,-1.3663,1.6211,9.1017,54.3899,-0.4374,-0.2391,-0.5132,-24.2323
16:47:21:972,-1.6534,1.7151,9.128,54.5213,-0.219,-0.0357,-0.2672,-24.3843
16:47:21:974,-1.474,2.2684,9.0203,54.8458,0.0718,0.0325,0.0119,-24.5147
16:47:21:989,-0.8106,2.4383,9.3506,54.9617,0.2836,-0.1561,0.0694,-24.6343
16:47:22:009,-0.4487,2.0692,10.2347,54.8792,0.3188,-0.5373,-0.0851,-24.7537
16:47:22:031,-0.6981,1.928,11.1188,54.9674,0.2868,-0.664,-0.2087,-24.8746
16:47:22:051,-0.9757,2.0261,11.5759,55.1729,0.2453,-0.4895,-0.1543,-24.991
16:47:22:070,-0.4223,2.2205,11.9976,55.312,0.1643,-0.27,0.0481,-25.0989
16:47:22:090,1.0582,2.1051,12.7119,55.3291,0.0579,-0.1891,0.2089,-25.1998
16:47:22:110,2.3396,1.9256,13.471,55.1563,-0.0124,-0.2381,0.1258,-25.3017
16:47:22:130,2.8977,1.5302,13.7946,54.8795,-0.0134,-0.2274,-0.1181,-25.4122
16:47:22:150,2.4066,1.2144,12.8602,54.8292,0.1238,0.1016,-0.3289,-25.529
16:47:22:171,1.7264,0.8668,11.5089,54.8941,0.2272,0.3775,-0.5355,-25.6439
16:47:22:190,1.7121,-0.0437,10.4716,55.0323,0.0483,0.2997,-0.6964,-25.7496
16:47:22:210,1.4919,-0.6616,10.8766,55.297,-0.4236,-0.1039,-0.8061,-25.7496
16:47:22:230,1.1539,-0.8506,11.7081,55.4472,-0.8453,-0.4426,-0.7688,-25.7496
16:47:22:250,1.1444,-0.5611,11.7105,55.695,-0.841,-0.2604,-0.4567,-25.7496
16:47:22:271,1.3932,0.39,10.4381,55.849,-0.4577,0.2646,-0.0787,-25.7496
16:47:22:291,1.4243,1.3388,8.8546,56.1056,-0.0688,0.614,-0.0041,-25.7496
16:47:22:311,1.1204,1.9184,7.7288,56.1046,0.0834,0.5778,-0.1703,-25.7496
16:47:22:331,0.7537,2.0788,6.9242,56.1207,0.0654,0.4148,-0.3992,-25.7496
16:47:22:350,0.2626,2.1434,6.6293,56.245,-0.0348,0.2827,-0.6144,-25.7496
16:47:22:370,-0.0891,1.9687,6.5312,56.3265,-0.1562,0.2454,-0.706,-25.7496
16:47:22:391,-0.2453,1.8658,6.5145,56.5358,-0.283,0.3264,-0.6847,-25.7496
16:47:22:411,-0.2309,1.9687,6.8836,56.5229,-0.4385,0.3573,-0.6346,-25.7496
16:47:22:432,-0.1011,1.7438,7.6403,56.76,-0.6162,0.2145,-0.6527,-25.7496
16:47:22:452,-0.1011,1.3077,8.8164,56.9244,-0.7366,-0.0613,-0.7198,-25.7496
16:47:22:471,-0.2477,0.874,9.9541,57.3429,-0.6738,-0.2732,-0.6932,-25.647
16:47:22:492,-0.5396,0.7232,10.5751,57.8829,-0.4545,-0.286,-0.5707,-25.5273
16:47:22:512,-0.6377,0.9051,10.5224,58.126,-0.1892,-0.1518,-0.3374,-25.392
16:47:22:532,-0.5731,1.2837,10.1246,58.4139,0.0004,-0.0304,-0.0947,-25.2448
16:47:22:553,-0.3338,1.8227,9.7986,58.3778,0.0844,0.0133,0.0864,-25.0933
16:47:22:577,-0.0652,2.3833,9.7747,58.4553,0.0866,-0.0346,0.1823,-24.9464
16:47:22:593,0.1143,2.7206,9.8225,58.534,0.0558,-0.0794,0.1695,-24.8096
16:47:22:613,0.1549,2.8528,10.0313,58.8107,0.0366,-0.1092,0.0981,-24.6851
16:47:22:634,0.1454,2.7182,10.3304,58.9288,0.0505,-0.1443,0.0332,-24.573
16:47:22:653,0.0162,2.4335,10.5679,58.5798,0.0782,-0.1646,-0.0222,-24.4705
16:47:22:674,-0.2931,2.1529,10.8718,58.4702,0.0887,-0.1497,-0.0457,-24.3746
16:47:22:694,-0.4893,1.8538,11.1835,58.3556,0.1111,-0.1103,0.0097,-24.2831
16:47:22:714,-0.8465,1.9017,11.1188,58.3346,0.2293,0.0474,0.1855,-24.2831
16:47:22:734,-1.0187,2.4431,10.474,58.5962,0.404,0.2486,0.4346,-24.2831
16:47:22:754,-0.4271,2.5005,9.5641,58.5873,0.4732,0.2997,0.5497,-24.2831
16:47:22:774,0.0688,2.3426,9.9565,58.3435,0.2634,-0.0719,0.3579,-24.2831
16:47:22:794,-0.3099,1.2598,11.3797,58.1841,-0.1764,-0.7141,-0.1469,-24.2831
16:47:22:815,-0.8776,-0.015,12.2973,58.4235,-0.3905,-0.8718,-0.4045,-24.2831
16:47:22:835,-1.8837,-0.4654,11.5352,58.6317,-0.1093,-0.3318,-0.1341,-24.2831
16:47:22:855,-2.202,0.2871,9.4247,58.7731,0.4114,0.3892,0.4442,-24.2831
16:47:22:875,-1.6917,1.3986,7.8293,58.8796,0.7032,0.5937,0.8074,-24.2831
16:47:22:896,-0.7244,2.3856,7.6714,58.7194,0.6,0.1325,0.767,-24.2831
16:47:22:916,-0.0365,2.1936,8.3635,58.5375,0.3017,-0.4948,0.4005,-24.2831
16:47:22:936,0.0329,1.6427,9.14,58.5255,0.0601,-0.7343,-0.0095,-24.2831
16:47:22:956,-0.1926,1.2359,9.1639,58.3899,-0.022,-0.4788,-0.1905,-24.2831
16:47:22:976,-0.6257,0.9745,8.7254,58.1961,-0.0678,-0.0921,-0.2001,-24.2831
16:47:22:996,-1.0259,0.9577,8.479,58.0364,-0.1807,0.0911,-0.1298,-24.2831
16:47:23:016,-1.1025,1.1444,8.3228,57.8624,-0.2457,0.1804,0.0172,-24.2831
16:47:23:036,-1.057,1.5541,8.0979,57.8086,-0.2073,0.2305,0.1546,-24.2831
16:47:23:057,-0.9733,2.0285,7.7695,57.7226,-0.121,0.2337,0.227,-24.2831
16:47:23:077,-0.722,2.3545,7.6235,57.8558,-0.0795,0.1623,0.243,-24.2831
16:47:23:097,-0.4391,2.4048,8.1769,57.8543,-0.1146,0.0091,0.1716,-24.2831
16:47:23:117,-0.6449,2.3593,8.9049,57.9425,-0.136,-0.1017,0.0438,-24.2831
16:47:23:137,-0.9661,2.4191,9.5234,57.8743,-0.0774,-0.1284,-0.0105,-24.2831
16:47:23:158,-1.2203,2.4431,9.5809,57.7787,0.0292,-0.0463,0.0353,-24.2831
16:47:23:178,-1.517,2.479,9.6191,57.6554,0.1004,0.0101,0.1099,-24.2831
16:47:23:198,-1.5769,2.4407,9.8201,57.6425,0.1409,-0.0634,0.2164,-24.2831
16:47:23:219,-1.194,2.6297,9.9733,57.5246,0.224,-0.1145,0.3931,-24.2831
16:47:23:238,-0.7627,2.9629,10.2036,57.579,0.3113,-0.1603,0.4985,-24.2831
16:47:23:258,-0.5563,3.1113,10.4524,57.4316,0.3401,-0.2285,0.49,-24.2831
16:47:23:278,-0.5013,3.3344,10.8885,57.3143,0.3198,-0.2999,0.4666,-24.3881
16:47:23:299,-0.3051,3.4014,11.7823,57.2562,0.2698,-0.4341,0.4389,-24.5079
16:47:23:319,0.1789,3.3846,12.7119,57.2483,0.241,-0.566,0.4293,-24.6407
16:47:23:340,1.0726,2.9844,12.9966,57.2026,0.2485,-0.5044,0.4027,-24.7857
16:47:23:359,1.5924,2.0166,12.8746,56.98,0.2059,-0.2083,0.2228,-24.9429
16:47:23:380,1.1348,1.1228,12.6951,57.0384,0.0707,0.1549,-0.0222,-25.1113
16:47:23:400,0.3918,0.5432,11.3797,56.7321,0.0643,0.5937,-0.0073,-25.2846
16:47:23:420,0.2865,0.4044,10.1342,56.59,0.2005,0.7896,0.1344,-25.4543
16:47:23:440,0.3272,0.3852,9.2189,56.4741,0.2868,0.6246,0.1248,-25.6208
16:47:23:460,0.5647,0.591,8.6417,56.3589,0.241,0.3732,0.0566,-25.7883
16:47:23:481,0.4714,0.874,8.7589,56.0517,0.0302,0.073,-0.083,-25.9569
16:47:23:500,-0.1083,0.9745,8.7829,55.8172,-0.1945,0.0144,-0.2118,-26.1254
16:47:23:521,-0.7866,1.1013,8.3228,55.623,-0.284,0.223,-0.1724,-26.2875
16:47:23:541,-0.9541,1.4895,7.6283,55.4164,-0.2393,0.4201,0.0172,-26.4387
16:47:23:561,-0.7436,1.9137,7.0798,55.3646,-0.1413,0.4084,0.178,-26.5799
16:47:23:581,-0.7053,2.3498,6.9099,55.2403,-0.0294,0.2358,0.2004,-26.7187
16:47:23:606,-0.5946,2.5268,6.8716,55.0895,0.1366,0.0847,0.1503,-26.8605
16:47:23:625,-0.6042,2.7206,6.5623,55.0524,0.3379,0.0889,0.0832,-27.0061
16:47:23:647,-0.6138,2.8792,6.3924,54.9431,0.4221,0.0836,0.0214,-27.1529
16:47:23:665,-0.801,2.8672,6.6532,54.8495,0.3145,-0.0463,-0.0425,-27.2983
16:47:23:682,-0.99,2.7739,7.2927,54.825,0.0972,-0.1571,-0.0457,-27.4404
16:47:23:706,-0.722,2.8744,8.2702,54.9758,-0.1146,-0.1475,0.0758,-27.5766
16:47:23:726,-0.3769,3.2501,9.2285,54.7705,-0.2521,-0.0698,0.2281,-27.7075
16:47:23:746,-0.2237,3.4732,10.5248,54.6963,-0.317,-0.0655,0.2909,-27.8384
16:47:23:770,-0.1304,3.3775,11.9545,54.5376,-0.2723,-0.1656,0.2654,-27.974
16:47:23:787,-0.262,3.1711,12.5581,54.423,-0.0092,-0.0804,0.2398,-28.1172
16:47:23:808,-0.6018,3.2937,12.2519,54.3845,0.3454,0.1378,0.2292,-28.2669
16:47:23:826,-1.206,3.3942,11.8851,54.3296,0.5361,0.2646,0.226,-28.422
16:47:23:848,-2.2211,3.2836,11.7655,54.3489,0.47,0.337,0.243,-28.5818
16:47:23:867,-2.8397,2.9462,11.2265,54.106,0.3049,0.5064,0.3569,-28.7448
16:47:23:889,-2.9163,2.68,10.9149,54.1355,0.1249,0.5788,0.5529,-28.9116
16:47:23:908,-2.854,2.4694,10.8024,53.9539,-0.0369,0.5256,0.7041,-29.0858
16:47:23:928,-2.7769,2.0357,10.4859,53.9162,-0.1296,0.4254,0.767,-29.2747
16:47:23:947,-2.3414,1.5637,10.328,53.4693,-0.136,0.1399,0.7734,-29.483
16:47:23:981,-1.7234,1.1109,10.2778,53.3818,-0.0752,-0.1774,0.7084,-29.7134
16:47:23:985,-1.1575,0.6586,10.34,53.2589,-0.0614,-0.4053,0.5699,-29.9658
16:47:24:007,-0.8345,0.3733,10.2371,52.8742,-0.1551,-0.4469,0.4474,-30.2375
16:47:24:027,-0.7914,0.2273,9.7866,52.517,-0.2925,-0.2221,0.3931,-30.5232
16:47:24:047,-0.5037,0.3757,9.1017,52.0945,-0.382,0.1112,0.4655,-30.8189
16:47:24:068,-0.2333,0.9984,8.2128,52.0661,-0.3703,0.4073,0.6019,-31.1224
16:47:24:088,-0.0341,1.7222,7.2425,51.9071,-0.267,0.6001,0.6636,-31.4362
16:47:24:108,0.0808,2.278,6.39,51.9447,-0.1115,0.6236,0.6455,-31.7643
16:47:24:128,-0.0054,2.6967,5.6901,51.552,0.0292,0.4968,0.5624,-32.1103
16:47:24:147,-0.2453,3.1711,5.5442,51.3775,0.0844,0.1921,0.4261,-32.4705
16:47:24:169,-0.3864,3.3009,6.0233,51.1393,0.0569,-0.1838,0.2537,-32.8413
16:47:24:188,-0.609,3.0012,6.9601,51.1925,0.0057,-0.4788,0.0534,-33.2171
16:47:24:207,-1.0642,2.7182,7.9041,51.2422,-0.0071,-0.5714,-0.0893,-33.5909
16:47:24:229,-1.6199,2.8576,8.8379,50.9873,-0.0348,-0.465,-0.1149,-33.9563
16:47:24:248,-1.7402,2.8313,9.8345,50.8609,-0.137,-0.2828,-0.0403,-34.3074
16:47:24:269,-1.651,2.6297,11.1093,50.8265,-0.2627,-0.0474,0.0481,-34.6436
16:47:24:289,-1.7689,2.5149,11.7799,51.2035,-0.3192,0.3796,0.1674,-34.9684
16:47:24:309,-1.8814,2.939,11.8158,51.1452,-0.2318,0.679,0.3782,-35.2861
16:47:24:328,-1.6654,3.2094,11.7631,51.2067,0.0174,0.5405,0.457,-35.602
16:47:24:349,-1.3137,3.4421,11.8086,50.8793,0.2921,0.1655,0.3409,-35.9233
16:47:24:370,-0.9398,3.2501,12.2016,50.8236,0.4604,-0.2732,0.1461,-36.2518
16:47:24:390,-0.923,3.1424,12.4337,50.664,0.5489,-0.4831,0.0108,-36.5838
16:47:24:410,-0.6209,3.1663,11.8828,50.5128,0.5627,-0.334,0.0459,-36.9113
16:47:24:430,0.1956,2.7087,11.4538,50.2346,0.404,-0.0719,0.1013,-37.2302
16:47:24:451,0.7537,1.7821,11.7296,50.3167,0.0451,0.0975,0.0087,-37.5413
16:47:24:470,0.4475,0.9984,11.7009,50.0476,-0.2489,0.3104,-0.0766,-37.8494
16:47:24:492,0.1286,0.4522,10.7139,50.0569,-0.1924,0.516,-0.0148,-38.1524
16:47:24:510,0.2148,-0.0963,9.3745,50.0494,0.0664,0.4521,0.0374,-38.4483
16:47:24:531,0.4714,-0.4893,8.8977,50.0216,0.176,0.0889,0.0033,-38.7393
16:47:24:551,0.7944,-0.1202,9.4152,50.1007,0.0015,-0.3361,-0.0126,-39.0272
16:47:24:572,0.332,0.347,9.4439,50.0908,-0.2233,-0.3137,-0.0095,-39.3108
16:47:24:593,-0.207,0.9338,8.6919,50.0975,-0.2989,0.0431,0.0502,-39.5908
16:47:24:610,-0.4175,1.4082,7.5398,50.1106,-0.2595,0.3924,0.162,-39.8665
16:47:24:632,-0.3194,1.8467,6.6006,50.2264,-0.2606,0.4872,0.2068,-40.1397
16:47:24:651,0.0736,2.3904,6.6724,50.2345,-0.3405,0.2582,0.1919,-40.4144
16:47:24:670,0.6173,2.8385,7.7264,50.3832,-0.3543,-0.0016,0.1024,-40.6908
16:47:24:692,0.5121,3.0514,7.9304,50.4748,-0.1115,0.1676,-0.1021,-40.9698
16:47:24:710,-0.3003,2.9318,6.9218,50.2704,0.2474,0.4403,-0.3193,-41.2479
16:47:24:731,-0.6401,2.8672,6.4092,50.3571,0.4029,0.2774,-0.3577,-41.5169
16:47:24:752,-0.408,2.8672,6.6317,50.1444,0.3294,-0.0751,-0.2736,-41.7681
16:47:24:771,-0.0724,2.9701,7.3771,50.1111,0.1206,-0.2274,-0.2374,-41.9996
16:47:24:792,0.0066,2.9031,8.3563,50.1541,-0.1434,-0.1912,-0.2905,-42.2161
16:47:24:813,-0.1567,2.735,9.4176,49.9535,-0.3256,-0.0602,-0.3076,-42.4196
16:47:24:832,-0.4152,2.68,10.1964,49.6392,-0.3266,0.0399,-0.2385,-42.6096
16:47:24:852,-0.4463,2.8026,10.7067,49.4958,-0.1583,0.0538,-0.1394,-42.7869
16:47:24:872,-0.3075,3.0658,11.3175,49.6279,0.059,-0.0847,-0.0936,-42.9539
16:47:24:891,-0.0078,3.1663,11.8971,49.526,0.2272,-0.2019,-0.1426,-43.1147
16:47:24:914,0.0377,2.8816,12.0718,49.5492,0.3518,-0.1443,-0.2534,-43.2708
16:47:24:932,-0.7675,2.7763,12.1681,49.616,0.4083,-0.0346,-0.3598,-43.4202
16:47:24:952,-1.5984,2.7667,12.0168,49.6752,0.4083,0.0815,-0.3097,-43.5594
16:47:24:973,-1.7833,2.6201,11.5448,49.8511,0.3742,0.239,-0.1692,-43.684
16:47:24:993,-1.9053,1.9854,11.2217,50.195,0.2027,0.2944,-0.1703,-43.7957
16:47:25:013,-2.6405,1.5613,11.406,50.3985,-0.0273,0.223,-0.1991,-43.8996
16:47:25:034,-2.8588,1.2957,10.8311,50.4328,-0.055,0.2316,-0.0712,-43.9965
16:47:25:054,-2.08,1.0702,9.9852,50.4245,0.0739,0.1644,0.0704,-44.0867
16:47:25:073,-1.2993,0.6562,9.8536,50.6325,0.075,-0.1827,-0.0201,-44.0867
16:47:25:094,-0.7627,0.3996,10.1892,50.391,-0.1221,-0.4916,-0.1575,-44.1811
16:47:25:114,-0.6353,0.2824,10.1845,50.3711,-0.3895,-0.4064,-0.1842,-44.2762
16:47:25:134,-0.8082,0.1292,9.8393,50.3546,-0.5736,-0.09,-0.1192,-44.3672
16:47:25:154,-0.8728,0.3972,8.9294,50.0198,-0.5363,0.1889,0.0907,-44.3672
16:47:25:174,-0.5874,1.0487,7.7192,50.0564,-0.3032,0.2912,0.376,-44.3672
16:47:25:195,0.0592,1.9352,6.737,49.8279,-0.0092,0.1921,0.6082,-44.465
16:47:25:215,0.682,2.6441,6.0138,49.7761,0.2378,-0.0591,0.637,-44.578
16:47:25:235,0.8949,3.1448,5.671,49.4989,0.3859,-0.3808,0.4165,-44.7128
16:47:25:254,0.5264,3.3918,5.7577,49.299,0.3827,-0.5948,0.0875,-44.8692
16:47:25:275,-0.0245,3.3368,6.3446,48.9746,0.1952,-0.6459,-0.1682,-45.0384
16:47:25:295,-0.2644,2.9031,7.322,48.7107,-0.0933,-0.6118,-0.3214,-45.2085
16:47:25:315,-0.5874,2.5149,8.4766,48.7144,-0.3469,-0.4991,-0.4567,-45.3684
16:47:25:335,-1.206,2.2756,9.5545,48.4763,-0.4949,-0.3276,-0.543,-45.5134
16:47:25:356,-1.675,1.9687,10.1868,48.4179,-0.4513,-0.0623,-0.5004,-45.6409
16:47:25:376,-1.9771,2.0094,9.9709,48.3133,-0.1786,0.2635,-0.3268,-45.7484
16:47:25:396,-1.9053,2.4048,9.6526,48.3414,0.159,0.3423,-0.1458,-45.7484
16:47:25:416,-1.8885,2.7882,9.6407,48.0247,0.3731,0.1804,-0.0957,-45.7484
16:47:25:436,-1.9316,3.0084,9.813,48.2245,0.4093,0.0037,-0.0862,-45.7484
16:47:25:457,-1.5601,3.0299,10.5003,47.9943,0.2996,-0.1848,-0.0393,-45.7484
16:47:25:477,-0.9685,2.9557,11.6363,47.7254,0.1228,-0.335,0.0364,-45.7484
16:47:25:497,-0.6185,3.0993,12.5653,47.4062,-0.0316,-0.3606,0.1322,-45.7484
16:47:25:517,0.5695,3.2381,12.8243,47.2377,-0.0987,-0.1465,0.3176,-45.7484
16:47:25:537,1.9131,2.9916,12.7071,46.9626,-0.1807,0.0644,0.3272,-45.7484
16:47:25:557,2.2415,1.9065,12.9153,46.7209,-0.3884,-0.025,-0.0521,-45.8506
16:47:25:578,1.6714,0.6203,13.1378,46.78,-0.5205,-0.1518,-0.3939,-45.9658
16:47:25:597,1.4943,-0.3739,12.4887,46.4522,-0.3692,-0.0783,-0.4365,-46.0795
16:47:25:618,2.016,-1.325,11.7751,46.5295,-0.1349,-0.106,-0.4194,-46.18
16:47:25:638,2.4018,-1.2867,11.3581,46.3926,-0.022,-0.2189,-0.3928,-46.18
16:47:25:659,2.2893,-0.2183,10.4094,46.2935,0.0292,-0.0762,-0.2704,-46.18
16:47:25:679,1.9609,0.9123,8.7446,46.1934,0.094,0.3264,-0.1916,-46.18
16:47:25:698,1.5996,1.7797,7.1922,46.1677,0.1142,0.565,-0.2555,-46.18
16:47:25:719,1.2903,2.1817,5.9803,46.15,0.0547,0.5628,-0.3822,-46.18
16:47:25:739,0.7609,2.4191,5.482,46.3131,-0.0838,0.3594,-0.5984,-46.18
16:47:25:760,0.21,2.467,5.6901,46.267,-0.2297,0.0655,-0.7965,-46.18
16:47:25:780,-0.0508,2.3498,6.0808,46.2699,-0.2776,-0.0804,-0.8317,-46.18
16:47:25:801,-0.1854,2.3569,6.1406,46.2846,-0.186,-0.0133,-0.7805,-46.18
16:47:25:820,-0.396,2.5484,5.9348,46.1791,-0.0422,0.0996,-0.7635,-46.18
16:47:25:841,-0.7531,2.4622,6.2291,46.3725,-0.0262,-0.0048,-0.8136,-46.18
16:47:25:861,-1.0116,2.2851,7.1611,46.4483,-0.1061,-0.2732,-0.8327,-46.18
16:47:25:880,-1.1647,2.3139,8.2104,46.3729,-0.1221,-0.4458,-0.7624,-46.0685
16:47:25:901,-1.4285,2.5412,9.2189,46.3987,-0.1285,-0.416,-0.6442,-45.9322
16:47:25:921,-1.6271,2.601,10.3137,46.5586,-0.2105,-0.3435,-0.462,-45.7735
16:47:25:942,-1.4405,2.5436,11.7033,46.4746,-0.2403,-0.319,-0.2342,-45.5964
16:47:25:961,-0.9422,2.5579,12.5629,46.5349,-0.0507,-0.2221,-0.0478,-45.4081
16:47:26:017,-0.4654,2.5531,12.9081,46.951,0.2346,-0.0996,0.0268,-45.217
16:47:26:019,-0.542,2.4479,13.1402,46.7983,0.4051,0.0027,-0.0233,-45.0297
16:47:26:023,-1.1073,2.1505,13.011,46.7804,0.469,0.1421,-0.0691,-44.8482
16:47:26:042,-1.6487,1.9711,12.8626,47.1465,0.5393,0.2411,0.0129,-44.6702
16:47:26:062,-1.7282,2.3163,12.0455,46.859,0.6415,0.4339,0.2579,-44.4934
16:47:26:082,-1.2873,2.5555,11.1715,46.5776,0.5904,0.5714,0.4985,-44.3204
16:47:26:102,-1.0857,2.4,11.2887,46.4754,0.3166,0.3636,0.4879,-44.1596
16:47:26:123,-1.3902,1.8132,11.7081,46.6764,0.1025,0.0517,0.3409,-44.0184
16:47:26:142,-2.0608,1.4728,11.2313,46.5748,0.175,0.0794,0.2835,-43.8958
16:47:26:162,-2.2379,1.3507,10.1198,46.5632,0.3337,0.2454,0.3261,-43.7865
16:47:26:183,-2.1374,1.3149,9.4415,46.6442,0.2836,0.1868,0.3505,-43.6876
16:47:26:203,-1.7426,0.8142,9.6526,46.5321,0.0036,-0.1241,0.3218,-43.6876
16:47:26:223,-1.0905,0.5145,10.1964,46.6785,-0.2712,-0.3116,0.3558,-43.6876
16:47:26:243,-0.7053,0.6054,10.0863,46.9164,-0.3735,-0.1411,0.4421,-43.6876
16:47:26:264,-0.4989,0.8309,9.2859,47.0616,-0.3149,0.1847,0.5337,-43.6876
16:47:26:284,-0.3194,1.1013,7.9376,46.8504,-0.1541,0.4563,0.6487,-43.6876
16:47:26:304,-0.2429,1.6068,6.6963,46.6928,0.0174,0.5117,0.7574,-43.6876
16:47:26:324,0.0784,2.1529,5.8319,46.8395,0.1728,0.3083,0.8511,-43.6876
16:47:26:344,0.3392,2.6608,5.2929,46.9082,0.29,0.0059,0.8096,-43.6876
16:47:26:365,0.2291,3.1591,5.281,46.787,0.3145,-0.2945,0.604,-43.6876
16:47:26:386,0.0162,3.2788,5.9731,46.7922,0.2027,-0.6097,0.3654,-43.6876
16:47:26:405,-0.207,3.1256,7.0845,46.9939,0.0494,-0.7748,0.1972,-43.6876
16:47:26:425,-0.4869,3.0586,8.0453,47.1013,-0.023,-0.6683,0.0864,-43.7826
16:47:26:445,-0.7029,3.0275,8.7254,47.1982,-0.0305,-0.4202,0.0044,-43.8779
16:47:26:465,-0.9087,2.9007,9.1472,47.4903,-0.0486,-0.1539,-0.0403,-43.971
16:47:26:485,-1.0259,2.7667,9.722,47.3862,-0.0816,-0.0165,-0.0489,-43.971
16:47:26:506,-1.0522,2.601,10.4022,47.4457,-0.0348,-0.0293,-0.0531,-43.971
16:47:26:526,-0.9852,2.6967,11.056,47.578,0.1473,-0.0517,-0.0382,-43.971
16:47:26:546,-0.9398,2.6584,11.3175,47.6979,0.3379,-0.0964,-0.0766,-43.971
16:47:26:571,-1.2108,2.522,11.5663,47.7891,0.3635,-0.1688,-0.1458,-43.971
16:47:26:586,-1.1743,2.2899,11.6028,47.9651,0.273,-0.1752,-0.067,-43.971
16:47:26:607,-0.8393,2.8505,11.8851,48.1504,0.192,-0.1071,0.1802,-43.971
16:47:26:627,-0.0102,3.32,11.9354,48.4154,0.1547,0.0229,0.457,-43.971
16:47:26:648,1.1683,3.3775,11.5663,48.8256,0.1036,0.1719,0.5369,-43.971
16:47:26:668,1.5661,2.872,11.8995,49.0361,-0.1423,0.0911,0.2547,-43.971
16:47:26:688,0.6556,1.8036,11.8875,49.2367,-0.3863,0.174,-0.0723,-43.971
16:47:26:708,-0.0939,1.1324,10.9627,49.6173,-0.3383,0.435,-0.0979,-43.971
16:47:26:729,0.2267,0.3661,9.935,49.725,-0.1519,0.4031,0.0289,-43.971
16:47:26:756,1.1372,0.0909,9.5091,49.9231,-0.0806,0.0943,0.0651,-43.971
16:47:26:769,1.6187,0.8189,9.7699,50.0396,-0.234,-0.122,0.0214,-43.971
16:47:26:789,1.6187,1.3053,9.8848,50.1241,-0.5109,-0.0698,-0.0936,-43.971
16:47:26:809,1.1755,1.3747,9.2788,50.3109,-0.6791,0.2262,-0.2268,-43.971
16:47:26:836,0.5862,1.6786,8.4263,50.4576,-0.6482,0.6363,-0.2459,-43.971
16:47:26:849,0.2124,2.0118,7.3771,50.3932,-0.4747,0.9174,-0.1671,-43.971
16:47:26:870,0.0209,2.2516,6.3135,50.4775,-0.2574,0.9909,-0.1149,-43.971
16:47:26:890,-0.2429,2.5316,5.525,51.0148,-0.0838,0.877,-0.1373,-43.971
16:47:26:912,-0.3888,2.7906,5.2116,51.0492,0.0356,0.6268,-0.2076,-43.971
16:47:26:931,-0.4415,2.8193,5.4365,51.0234,0.0972,0.3157,-0.331,-43.971
16:47:26:952,-0.7603,2.4311,5.8989,51.231,0.0919,0.008,-0.4876,-43.971
16:47:26:975,-1.0187,2.0596,6.6365,51.4419,0.0334,-0.2328,-0.5494,-43.971
16:47:26:991,-1.2084,1.9591,7.4273,51.6131,-0.0603,-0.3063,-0.4706,-43.971
16:47:27:010,-1.0786,2.3306,8.5244,51.6202,-0.2009,-0.3244,-0.2863,-43.8794
16:47:27:030,-0.9182,2.5866,9.9613,51.8287,-0.3511,-0.3702,-0.116,-43.7697
16:47:27:052,-0.801,2.5149,11.3773,51.8635,-0.3873,-0.3734,-0.0382,-43.6497
16:47:27:071,-0.6909,2.5699,12.4385,51.9305,-0.2222,-0.286,0.0119,-43.5253
16:47:27:092,-0.6209,2.7015,13.1378,52.3563,0.0515,-0.1827,0.0374,-43.4
16:47:27:110,-0.8512,2.668,13.5691,52.5176,0.2953,-0.1337,-0.0276,-43.2744
16:47:27:131,-1.1025,2.2397,13.5858,52.4848,0.4871,-0.1134,-0.0787,-43.1498
16:47:27:156,-1.5984,2.1362,13.4447,52.6443,0.682,-0.0804,0.0119,-43.0222
16:47:27:171,-2.3438,2.5029,12.4624,52.9116,0.9003,0.1549,0.2462,-42.8904
16:47:27:195,-2.7529,2.6752,10.6086,53.1175,1.0345,0.5298,0.5124,-42.7565
16:47:27:210,-3.0024,2.8935,9.4828,53.1665,0.9077,0.581,0.6903,-42.6289
16:47:27:235,-2.9833,2.7422,9.3625,53.4109,0.5819,0.304,0.768,-42.5153
16:47:27:253,-3.079,2.3928,9.2836,53.214,0.3443,0.1772,0.7947,-42.4222
16:47:27:275,-3.1555,2.4359,8.7661,53.335,0.2772,0.2731,0.8064,-42.4222
16:47:27:295,-2.4467,2.2732,8.5149,53.5262,0.1686,0.2571,0.7936,-42.4222
16:47:27:315,-1.3878,1.9663,9.2381,53.4716,-0.1349,-0.1795,0.6114,-42.4222
16:47:27:335,-0.5348,1.2766,10.7258,53.6141,-0.5363,-0.7961,0.2494,-42.4222
16:47:27:353,-0.195,0.5121,11.6435,53.504,-0.7675,-0.9655,-0.0542,-42.4222
16:47:27:375,-0.2357,-0.0197,11.2648,53.5664,-0.6674,-0.5778,-0.1394,-42.4222
16:47:27:393,-0.3625,0.0712,9.5139,53.4793,-0.3053,0.0985,0.031,-42.4222
16:47:27:416,0.0497,0.4834,7.2712,53.7195,0.026,0.6353,0.2846,-42.4222
16:47:27:434,0.6221,1.2168,5.8152,53.6724,0.0782,0.6747,0.392,-42.4222
16:47:27:457,0.8399,2.1458,5.6806,53.7695,-0.1115,0.2507,0.2846,-42.4222
16:47:27:475,0.6221,2.5484,6.4187,53.9462,-0.2819,-0.1369,0.0513,-42.4222
16:47:27:496,0.3775,2.5531,6.8716,54.0276,-0.267,-0.1486,-0.1064,-42.4222
16:47:27:515,0.3607,2.4287,7.0391,54.2431,-0.2052,-0.0154,-0.1213,-42.4222
16:47:27:534,-0.0843,2.4718,7.7216,54.6277,-0.218,-0.0581,-0.2076,-42.4222
16:47:27:556,-0.9781,2.5555,8.5603,54.9524,-0.2031,-0.1433,-0.364,-42.4222
16:47:27:577,-1.6104,2.5675,9.0514,54.9976,-0.1083,-0.0399,-0.3545,-42.4222
16:47:27:595,-1.596,2.4742,9.2309,55.0754,-0.039,0.1282,-0.2172,-42.4222
16:47:27:615,-1.6199,2.6871,9.856,55.2312,-0.0411,0.1474,-0.116,-42.4222
16:47:27:636,-1.8598,2.7739,10.5147,55.3726,0.0132,0.0357,-0.0766,-42.4222
16:47:27:656,-2.0656,2.9557,10.7713,55.6827,0.1771,-0.0325,-0.0403,-42.4222
16:47:27:679,-2.2696,3.2889,11.0058,55.8475,0.2985,-0.1348,0.0033,-42.4222
16:47:27:695,-2.3701,3.5785,11.6483,55.7484,0.3102,-0.3009,0.0449,-42.4222
16:47:27:715,-2.4012,3.6646,12.2949,55.7703,0.3017,-0.4373,0.0971,-42.4222
16:47:27:735,-1.8909,3.6598,12.618,56.0746,0.3198,-0.4628,0.2174,-42.4222
16:47:27:756,-0.4869,2.9725,12.8913,56.489,0.2964,-0.4756,0.3208,-42.4222
16:47:27:776,0.1621,2.2804,12.9751,56.5467,0.2101,-0.3616,0.2324,-42.4222
16:47:27:796,-0.1059,1.3962,12.4792,56.6136,0.1217,-0.0538,0.0598,-42.4222
16:47:27:819,-0.7388,0.8237,11.5089,56.4942,0.1047,0.2486,0.0417,-42.4222
16:47:27:843,-0.5444,0.5647,10.4213,56.5748,0.1558,0.4244,0.2015,-42.4222
16:47:27:857,0.186,0.3111,9.667,56.6788,0.1334,0.3253,0.3005,-42.4222
16:47:27:877,1.0223,0.3565,9.466,56.6397,-0.0465,0.0858,0.2345,-42.4222
16:47:27:896,1.0726,0.9314,9.3673,56.4864,-0.3756,0.0463,0.0747,-42.4222
16:47:27:917,0.524,1.2742,9.6239,56.4972,-0.7015,0.1794,-0.0425,-42.4222
16:47:27:937,0.143,1.6839,9.274,56.4728,-0.7004,0.3786,0.08,-42.4222
16:47:27:957,0.0999,2.1769,7.7862,56.5197,-0.3288,0.7236,0.3293,-42.4222
16:47:27:977,0.3416,2.872,6.5647,56.5277,0.0164,0.7768,0.4559,-42.4222
16:47:28:029,0.3583,3.6215,6.2752,56.3493,0.1505,0.4616,0.3304,-42.4222
16:47:28:032,0.2004,3.7962,6.335,56.2956,0.2229,0.1453,0.0704,-42.4222
16:47:28:042,0.1167,3.2453,6.1406,56.3641,0.3614,0.0932,-0.1682,-42.4222
16:47:28:058,-0.4128,2.8576,6.0425,56.3321,0.437,0.0985,-0.3683,-42.4222
16:47:28:078,-0.8082,2.5866,6.5001,56.1739,0.3102,-0.0165,-0.4642,-42.4222
16:47:28:098,-0.7292,2.196,7.3149,56.1944,0.0782,-0.1518,-0.4535,-42.4222
16:47:28:118,-0.7723,2.2469,8.534,56.1958,-0.1125,-0.1252,-0.4003,-42.4222
16:47:28:138,-0.7005,2.5364,9.7675,56.1063,-0.1818,0.0282,-0.2852,-42.4222
16:47:28:159,-0.3505,2.7643,10.5823,56.3671,-0.071,0.1932,-0.0915,-42.4222
16:47:28:179,-0.1854,3.0467,10.4524,56.1631,0.2229,0.3754,0.0587,-42.4222
16:47:28:201,-0.2692,3.533,10.4118,56.1376,0.5052,0.3881,0.0811,-42.4222
16:47:28:219,-0.2859,3.746,10.7641,56.2551,0.6128,0.2294,0.0236,-42.4222
16:47:28:240,-1.124,3.5904,10.9866,56.1856,0.5968,0.1826,-0.1341,-42.4222
16:47:28:260,-2.4993,3.1472,11.0417,56.2153,0.5276,0.1772,-0.2788,-42.4222
16:47:28:281,-2.9713,2.4957,10.7378,56.2536,0.421,0.1485,-0.2342,-42.4222
16:47:28:301,-3.0096,1.9065,10.7043,56.4473,0.2027,0.1133,-0.1383,-42.4222
16:47:28:320,-3.3254,1.8132,10.8479,56.3846,-0.1285,0.1048,-0.051,-42.3296
16:47:28:341,-3.3476,1.3268,10.5607,56.6374,-0.365,0.1719,0.0864,-42.2331
16:47:28:360,-2.8086,0.795,10.2586,56.6856,-0.4246,0.1229,0.2025,-42.137
16:47:28:380,-1.8287,0.5432,10.1581,56.6114,-0.4363,-0.1049,0.2664,-42.137
16:47:28:401,-0.8297,0.7759,10.2084,56.8147,-0.5067,-0.3542,0.2569,-42.137
16:47:28:422,-0.1663,0.7376,9.9613,56.8931,-0.6301,-0.3925,0.129,-42.137
16:47:28:441,-0.0891,0.6395,9.1519,57.0705,-0.7771,-0.1571,-0.0808,-42.137
16:47:28:462,-0.463,0.7184,8.3755,57.1485,-0.9465,0.1676,-0.2225,-42.137
16:47:28:481,-0.8225,0.9075,7.9591,57.2535,-1.0594,0.2944,-0.165,-42.137
16:47:28:502,-1.2491,1.4919,7.4584,57.2301,-0.9752,0.2582,-0.0052,-42.137
16:47:28:522,-1.4812,2.2708,6.9458,57.4713,-0.7153,0.1612,0.2036,-42.137
16:47:28:542,-1.0187,3.0443,6.8429,57.5338,-0.4374,-0.0208,0.4208,-42.137
16:47:28:563,-0.4487,3.6957,7.2473,57.6029,-0.2702,-0.2264,0.4634,-42.137
16:47:28:584,-0.5898,3.6287,7.4991,57.5777,-0.1562,-0.3893,0.2047,-42.137
16:47:28:602,-1.6893,3.1376,8.0596,57.654,-0.0177,-0.5106,-0.2182,-42.137
16:47:28:623,-2.7745,3.0443,8.8786,57.5723,0.1111,-0.6214,-0.4301,-42.137
16:47:28:643,-3.2489,3.0969,9.3386,57.6329,0.2346,-0.4714,-0.3182,-42.137
16:47:28:663,-3.2656,3.4062,9.8536,57.728,0.2751,-0.2541,-0.1043,-42.137
16:47:28:683,-2.8828,3.533,11.0949,57.7839,0.2463,-0.2349,0.0683,-42.137
16:47:28:704,-3.1484,4.0528,12.0239,57.7519,0.2772,-0.1241,0.1322,-42.137
16:47:28:724,-3.2465,4.0528,12.0024,57.6195,0.4242,0.1762,0.1855,-42.137
16:47:28:744,-3.4002,3.8806,11.9306,57.6087,0.5755,0.3796,0.2089,-42.137
16:47:28:764,-3.6778,4.1103,11.9521,57.4973,0.6511,0.435,0.2419,-42.137
16:47:28:784,-3.6156,4.7545,12.3811,57.4821,0.6415,0.2699,0.3229,-42.137
16:47:28:804,-2.7075,4.5153,12.7286,57.4041,0.6479,0.1389,0.3814,-42.137
16:47:28:825,-2.4682,3.9858,12.7119,57.306,0.681,0.2848,0.2547,-42.137
16:47:28:846,-2.3055,2.8624,11.6865,57.0979,0.6362,0.5543,0.0885,-42.137
16:47:28:866,-1.9364,1.2502,11.4634,56.9978,0.3678,0.4659,-0.0734,-42.137
16:47:28:885,-1.5218,0.1819,12.1125,57.1609,0.0686,0.2486,-0.1352,-42.137
16:47:28:905,-0.5683,-0.4702,11.6195,56.9336,0.1377,0.4148,0.0672,-42.137
16:47:28:925,0.277,-0.3739,10.0122,56.813,0.4125,0.8684,0.2675,-42.137
16:47:28:945,0.7274,-0.3523,7.861,56.6678,0.4423,1.2327,0.2025,-42.137
16:47:28:968,0.1478,0.0909,6.6293,56.3829,0.0844,1.0517,-0.0212,-42.137
16:47:28:985,0.0855,0.5503,6.5336,56.3137,-0.2648,0.4957,-0.0819,-42.137
16:47:29:006,0.4642,1.5374,6.9314,55.9964,-0.349,-0.1337,-0.0372,-42.137
16:47:29:026,0.5001,2.5531,7.3364,55.9095,-0.3543,-0.4948,-0.0947,-42.137
16:47:29:047,0.0568,3.1926,7.9161,55.6344,-0.3703,-0.4202,-0.2033,-42.137
16:47:29:066,-0.2453,3.7579,7.8269,55.7002,-0.2702,-0.0921,-0.1852,-42.137
16:47:29:088,-0.2357,4.1031,7.276,55.6453,-0.0955,0.2124,-0.1586,-42.137
16:47:29:106,-0.4606,4.3328,6.9075,55.582,-0.1146,0.3583,-0.3427,-42.137
16:47:29:127,-0.5563,3.7986,7.9998,55.5981,-0.284,-0.1103,-0.5409,-42.137
16:47:29:148,-0.1831,3.0347,9.6814,55.6256,-0.1317,-0.5969,-0.6996,-42.137
16:47:29:167,0.0401,1.8897,9.7771,55.7377,0.4296,-0.3286,-0.9359,-42.137
16:47:29:188,-0.8536,1.4249,8.8355,55.9172,0.912,0.0985,-1.1607,-42.137
16:47:29:210,-1.7641,1.8586,8.7924,55.9959,0.8821,0.0197,-1.1011,-42.0422
16:47:29:230,-1.7689,1.9687,10.0289,56.2386,0.5041,-0.3063,-0.8594,-41.9032
16:47:29:250,-0.8345,1.8299,11.4634,56.5145,0.2794,-0.1891,-0.5877,-41.723
16:47:29:275,0.7848,2.2421,12.7286,56.6232,0.3305,0.2454,-0.3577,-41.514
16:47:29:291,2.117,2.3785,13.4662,56.694,0.4381,0.468,-0.3449,-41.2896
16:47:29:312,1.5087,2.2899,12.6467,56.9978,0.5542,0.63,-0.7028,-41.0585
16:47:29:330,-0.463,2.5196,11.2409,57.1288,0.6863,0.6896,-1.1905,-40.8213
16:47:29:351,-1.4859,2.5747,10.2658,57.3804,0.7575,0.4393,-1.4057,-40.5648
16:47:29:372,-1.6104,2.4455,9.5545,57.5093,0.6936,0.2348,-1.3769,-40.2694
16:47:29:391,-2.2935,1.7103,8.3803,57.4409,0.4679,0.2326,-1.5004,-39.9275
16:47:29:411,-3.6012,0.7137,7.6594,57.5487,0.1569,0.1357,-1.7614,-39.5412
16:47:29:431,-4.8778,0.3829,7.5924,57.9047,-0.0049,-0.2391,-1.6974,-39.1088
16:47:29:450,-5.5633,0.335,7.3071,58.1325,0.1217,-0.6853,-1.2576,-38.6263
16:47:29:471,-4.4064,0.8118,6.9529,58.4735,0.4338,-0.9325,-0.5931,-38.0987
16:47:29:490,-2.4132,1.0271,6.1741,58.6063,0.7863,-0.7546,-0.1522,-37.5403
16:47:29:510,-1.5003,0.6897,4.7946,58.6757,0.8598,-0.4788,-0.2577,-36.9722
16:47:29:531,-2.5113,0.728,4.7779,58.8846,0.4786,-0.5905,-0.6708,-36.4071
16:47:29:551,-2.9378,0.603,6.1741,59.25,0.0919,-1.0038,-0.7486,-35.8408
16:47:29:571,-2.7242,0.8668,7.547,59.3531,0.0664,-1.253,-0.4194,-35.2624
16:47:29:594,-2.4897,2.3019,7.9687,59.538,0.2208,-0.8856,0.0076,-34.6735
16:47:29:612,-2.7966,4.2754,7.5494,59.587,0.2879,-0.2274,0.259,-34.0869
16:47:29:630,-3.0455,5.2816,7.3023,59.4128,0.1707,-0.0282,0.2537,-33.5162
16:47:29:651,-3.3332,5.4664,7.8317,59.4521,-0.0912,-0.2498,0.0534,-32.9689
16:47:29:672,-3.1795,5.0064,9.4923,59.4643,-0.415,-0.6225,-0.0979,-32.4442
16:47:29:692,-3.0168,4.8622,11.4395,59.4817,-0.6578,-0.7684,-0.0968,-31.9367
16:47:29:712,-2.6596,4.5679,12.8674,59.4884,-0.7313,-0.614,-0.0414,-31.4431
16:47:29:732,-2.3773,3.746,12.9799,59.5497,-0.6216,-0.2647,0.047,-30.9654
16:47:29:752,-2.0393,2.939,12.2016,59.5356,-0.4577,-0.0261,0.1226,-30.5054
16:47:29:772,-0.8776,2.3282,12.2806,59.6688,-0.3767,-0.3819,0.1503,-30.065
16:47:29:793,0.6269,1.8873,13.2963,59.6543,-0.2446,-1.0358,0.1141,-29.6449
16:47:29:814,1.8652,1.4632,13.4662,59.9175,0.0951,-1.2604,-0.0435,-29.2463
16:47:29:833,2.1529,1.2694,12.0981,60.1826,0.5467,-0.9325,-0.3023,-28.8669
16:47:29:853,1.1515,1.0822,9.9709,60.2715,0.749,-0.6236,-0.6335,-28.4991
16:47:29:873,-0.3482,1.4919,8.7733,60.2395,0.519,-0.664,-0.7955,-28.1317
16:47:29:893,-1.1791,2.1553,8.7446,60.2637,0.1111,-0.8217,-0.6016,-27.7518
16:47:29:913,-1.0092,2.6201,8.7206,60.2562,-0.1061,-0.8036,-0.282,-27.3535
16:47:29:933,0.0951,2.7954,8.8499,60.2709,-0.1072,-0.7663,-0.0595,-26.9444
16:47:29:954,0.9936,2.9246,8.8259,60.429,-0.0145,-0.7322,-0.0095,-26.5371
16:47:29:974,0.8901,2.9294,8.4814,60.4845,0.1334,-0.5309,-0.133,-26.1406
16:47:29:995,0.3918,2.5723,7.9759,60.4808,0.2581,-0.2498,-0.2513,-25.7567
16:47:30:034,-0.0939,2.6776,7.1515,60.6061,0.3869,0.0336,-0.214,-25.3802
16:47:30:036,-0.0126,3.0108,6.4522,60.7085,0.5712,0.1666,-0.0553,-25.0061
16:47:30:054,0.3368,3.6359,6.0784,60.633,0.7639,0.1804,0.1109,-24.6351
16:47:30:075,0.5025,4.4387,5.808,60.5989,0.8438,0.1836,0.1237,-24.2728
16:47:30:095,0.1813,4.8048,5.4341,60.5245,0.6639,0.2071,-0.1043,-23.9253
16:47:30:115,-0.4439,4.8096,5.6447,60.6973,0.2112,0.2092,-0.347,-23.5929
16:47:30:136,-0.5779,4.8287,7.2999,60.4035,-0.2979,-0.0911,-0.38,-23.2666
16:47:30:156,-0.2189,4.9394,9.7531,60.3194,-0.5928,-0.5937,-0.2225,-22.9375
16:47:30:179,0.5982,5.0877,12.0048,60.1841,-0.6216,-0.7674,-0.1234,-22.6045
16:47:30:196,0.6317,5.016,12.8674,60.2989,-0.4087,-0.2626,-0.214,-22.2739
16:47:30:216,-0.4654,4.6636,12.2279,60.1822,-0.1221,0.4467,-0.3342,-21.9496
16:47:30:236,-2.0369,3.993,10.8933,60.353,0.0398,0.8631,-0.3822,-21.6279
16:47:30:256,-3.3356,3.7579,9.7723,60.2413,-0.0305,1.009,-0.2545,-21.3034
16:47:30:276,-3.2106,3.5665,9.5785,59.9389,-0.3458,0.8407,0.0832,-20.9737
16:47:30:297,-1.1097,3.5856,11.3988,59.9297,-0.6972,0.1644,0.5827,-20.6428
16:47:30:316,0.7274,4.0935,13.0493,59.8944,-0.6514,-0.3286,0.8106,-20.3241
16:47:30:336,1.2975,4.0481,12.5246,59.8237,-0.1924,-0.1891,0.5347,-20.0387
16:47:30:357,0.3224,3.2692,10.4979,59.4247,0.2676,-0.0708,-0.0286,-19.7947
16:47:30:381,-0.4558,2.1673,9.3673,59.3033,0.3646,-0.5044,-0.5377,-19.5795
16:47:30:397,-1.0834,1.3172,9.4511,58.8833,0.0961,-1.0422,-0.8029,-19.37
16:47:30:417,-1.4548,1.0654,10.3711,58.7235,-0.3128,-1.1912,-0.7337,-19.147
16:47:30:442,-1.4836,1.2263,10.6421,58.5673,-0.5194,-0.7333,-0.3694,-18.9005
16:47:30:462,-1.4548,1.6738,9.6239,58.4873,-0.4363,0.0261,0.0321,-18.634
16:47:30:481,-1.2251,1.9208,7.9496,58.2932,-0.219,0.5415,0.3154,-18.3614
16:47:30:502,-0.6401,2.0907,6.3852,58.1084,0.0153,0.5991,0.5102,-18.0978
16:47:30:522,-0.2046,2.5507,5.6518,58.3453,0.2133,0.2262,0.571,-17.8536
16:47:30:543,0.4475,3.2788,6.1549,58.2907,0.2751,-0.383,0.4027,-17.635
16:47:30:561,0.8782,3.2237,7.1683,58.0938,0.1931,-0.81,0.0736,-17.4437
16:47:30:583,0.7059,2.7715,7.7719,58.0471,0.1185,-0.7194,-0.2598,-17.2733
16:47:30:603,-0.1591,2.4622,8.1003,57.873,0.1047,-0.3893,-0.5164,-17.1111
16:47:30:622,-1.1862,2.2397,8.6154,57.5838,0.11,-0.2306,-0.592,-16.9447
16:47:30:644,-1.922,2.1817,8.6536,57.3315,0.2176,-0.0985,-0.4237,-16.7645
16:47:30:662,-1.8407,2.7326,8.1099,57.0643,0.4434,0.1453,-0.0744,-16.5675
16:47:30:683,-1.1192,3.5569,7.9974,56.699,0.5648,0.1431,0.2185,-16.3602
16:47:30:702,-0.1878,4.2467,8.8187,56.597,0.4636,-0.1454,0.3494,-16.1558
16:47:30:723,0.344,4.1677,9.6622,56.5912,0.2655,-0.3403,0.2387,-15.9651
16:47:30:742,0.4403,3.6526,10.6612,56.3986,0.0142,-0.319,-0.0031,-15.7936
16:47:30:764,0.143,3.2572,12.0096,56.2442,-0.2553,-0.1901,-0.084,-15.6365
16:47:30:784,-0.082,3.5665,13.2365,56.1365,-0.3671,-0.041,0.0875,-15.4844
16:47:30:803,0.8471,3.466,13.5643,55.8718,-0.2233,0.1059,0.4304,-15.3344
16:47:30:825,1.925,2.8983,12.5845,55.7547,0.0356,0.4212,0.6072,-15.1926
16:47:30:844,1.6211,2.6919,11.2816,55.5825,0.0983,0.6331,0.3856,-15.0714
16:47:30:863,0.996,1.9926,10.3304,55.2997,-0.0614,0.5543,0.1322,-14.9776
16:47:30:885,0.7155,1.5637,9.746,55.2261,-0.1722,0.2518,0.0981,-14.9776
16:47:30:904,1.2975,0.9458,9.2788,55.2021,-0.1296,-0.1869,0.1578,-14.9776
16:47:30:922,2.1314,0.603,9.1615,55.1921,-0.0795,-0.5351,0.1482,-14.9776
16:47:30:943,2.7206,1.0223,9.0251,55.136,-0.1498,-0.5905,0.1013,-14.9776
16:47:30:965,2.9384,1.6235,8.4072,54.966,-0.2851,-0.2999,-0.0095,-14.9776
16:47:30:984,2.3348,1.8802,7.4895,54.8083,-0.4161,0.0389,-0.263,-14.9776
16:47:31:008,1.6403,2.0764,6.9027,54.628,-0.4811,0.1005,-0.5004,-14.9776
16:47:31:023,1.1013,2.412,6.3757,54.6318,-0.4172,0.0708,-0.6048,-14.9776
16:47:31:043,0.6724,2.8074,5.7936,54.2277,-0.2616,0.1218,-0.6293,-14.9776
16:47:31:063,0.3153,3.0323,5.0746,54.0606,-0.0987,0.1996,-0.6399,-14.8872
16:47:31:086,-0.2166,3.2985,4.6726,54.0206,-0.0337,0.1389,-0.7028,-14.7767
16:47:31:105,-0.3984,3.3607,4.9071,53.871,-0.1051,-0.1678,-0.739,-14.6469
16:47:31:123,-0.4917,3.0945,6.0664,53.9657,-0.2723,-0.5479,-0.7539,-14.4955
16:47:31:144,-0.4893,2.8911,7.6738,54.1233,-0.4875,-0.7248,-0.6953,-14.3219
16:47:31:165,-0.5372,2.7398,8.9581,54.062,-0.6429,-0.6747,-0.5696,-14.1263
16:47:31:185,-0.4678,2.6584,10.4357,53.9671,-0.7174,-0.6576,-0.4375,-13.9107
16:47:31:204,-0.1208,2.7087,11.988,54.2836,-0.5981,-0.6779,-0.2873,-13.6797
16:47:31:225,0.0855,2.8744,12.9296,54.2637,-0.2585,-0.5746,-0.1692,-13.4391
16:47:31:245,0.399,2.7619,13.0852,54.3972,0.1569,-0.3297,-0.035,-13.194
16:47:31:265,0.4379,2.747,12.7645,54.5227,0.4892,-0.0293,0.0481,-12.9498
16:47:31:285,0.2411,2.7595,12.6012,54.5849,0.6106,0.1186,0.0534,-12.713
16:47:31:305,0.0927,2.8217,12.5198,54.412,0.6181,0.1719,0.1109,-12.487
16:47:31:326,-0.2381,3.3679,12.1849,54.4427,0.682,0.3019,0.2473,-12.2716
16:47:31:345,-0.4319,3.8154,11.1595,54.424,0.7394,0.483,0.3931,-12.0682
16:47:31:365,-0.4008,3.9476,10.474,54.1237,0.5648,0.4361,0.4176,-11.8814
16:47:31:386,-0.5779,3.2692,10.6373,54.0305,0.192,0.1826,0.2803,-11.717
16:47:31:405,-1.1097,2.5651,10.8885,53.6311,-0.0316,-0.0016,0.1716,-11.5745
16:47:31:426,-1.4836,2.1577,10.7641,53.3014,-0.0241,-0.0964,0.1897,-11.4454
16:47:31:447,-1.2084,1.6959,10.4836,53.1334,-0.0209,-0.1667,0.3005,-11.3251
16:47:31:466,-0.3697,1.0893,10.7545,53.0583,-0.2126,-0.2913,0.4186,-11.2141
16:47:31:486,0.1836,0.8357,11.3821,52.9711,-0.4619,-0.3414,0.4975,-11.1163
16:47:31:506,0.21,0.7424,11.4467,53.0814,-0.5194,-0.2178,0.5294,-11.1163
16:47:31:527,0.0712,0.8812,10.6086,53.1311,-0.316,0.0282,0.6242,-11.1163
16:47:31:547,0.2267,1.2239,9.2883,52.9807,-0.0156,0.1911,0.8021,-11.1163
16:47:31:567,0.8518,1.523,8.0524,52.7715,0.2122,0.2624,0.9735,-11.1163
16:47:31:588,1.4602,1.9017,7.2473,52.7477,0.273,0.2539,1.0438,-11.1163
16:47:31:608,1.7767,2.2277,6.8788,52.7989,0.2325,0.1964,0.9863,-11.1163
16:47:31:630,1.7503,2.6273,6.7035,52.4456,0.2144,0.1804,0.8437,-11.1163
16:47:31:650,1.6092,2.9414,6.3446,51.92,0.2506,0.2433,0.6764,-11.2274
16:47:31:670,1.3693,2.872,6.1214,51.4977,0.2282,0.2614,0.4932,-11.3661
16:47:31:690,1.0008,2.656,6.3565,51.6635,0.11,0.1698,0.3154,-11.5257
16:47:31:710,0.8758,2.6919,7.0271,51.7577,0.0238,-0.0208,0.2324,-11.6982
16:47:31:732,1.3119,2.5819,7.7432,51.5715,0.0526,-0.2466,0.1961,-11.8764
16:47:31:750,1.6738,2.6824,8.4287,51.507,0.1206,-0.2786,0.1226,-12.057
16:47:31:770,1.4602,2.8481,9.1161,51.474,0.1142,-0.1348,-0.0084,-12.238
16:47:31:791,0.9864,2.805,9.5641,51.4311,0.0409,-0.0336,-0.1288,-12.4179
16:47:31:810,1.0558,2.6919,9.789,51.6853,-0.0156,-0.0506,-0.1352,-12.5906
16:47:31:830,1.4052,2.927,10.1988,51.6137,-0.0987,-0.1209,-0.1266,-12.7527
16:47:31:849,1.6211,3.1567,10.9077,51.5235,-0.2702,-0.1806,-0.1586,-12.9032
16:47:31:872,1.87,3.2865,11.6985,51.5851,-0.4044,-0.2274,-0.133,-13.0425
16:47:31:891,2.7087,3.3607,12.0742,51.6656,-0.3991,-0.2402,-0.0297,-13.1698
16:47:31:911,3.7962,2.9007,12.3476,51.5804,-0.4118,-0.2477,-0.0425,-13.2859
16:47:31:933,3.8704,2.0907,12.8459,51.7779,-0.5269,-0.2019,-0.2736,-13.3949
16:47:31:951,2.8331,1.4082,12.4337,51.8434,-0.4651,0.0325,-0.4652,-13.4972
16:47:31:971,2.4688,1.1444,11.4754,51.7543,-0.1583,0.1293,-0.4407,-13.4972
16:47:31:992,2.8905,0.4331,10.6182,52.1663,0.0961,-0.0911,-0.4301,-13.4972
16:47:32:010,2.948,0.0568,10.4381,52.1097,0.0473,-0.3403,-0.5611,-13.4972
16:47:32:075,2.3444,0.1914,10.2275,51.9793,-0.1679,-0.2242,-0.6549,-13.4972
16:47:32:078,1.4746,0.4642,9.6191,52.2171,-0.2979,0.1293,-0.6708,-13.4972
16:47:32:081,0.6461,0.9075,8.4933,52.4521,-0.2808,0.4521,-0.6027,-13.4972
16:47:32:094,0.1789,1.5087,7.2832,52.6884,-0.1679,0.6172,-0.4439,-13.4972
16:47:32:111,0.1262,2.2397,6.3972,52.8105,-0.0348,0.5426,-0.2523,-13.4972
16:47:32:131,0.4086,2.805,5.8893,53.123,0.0951,0.2965,-0.1341,-13.4972
16:47:32:152,0.5432,3.3368,5.808,53.2008,0.1622,0.0336,-0.1831,-13.4062
16:47:32:172,0.5862,3.4445,5.9898,53.4624,0.1206,-0.1273,-0.3268,-13.3108
16:47:32:192,0.3942,3.4038,6.5815,53.8873,0.0057,-0.1337,-0.4557,-13.2096
16:47:32:213,0.1932,3.1424,7.456,54.0547,-0.1317,-0.0293,-0.5313,-13.0982
16:47:32:232,0.0449,2.5986,8.3659,54.147,-0.2723,0.074,-0.543,-12.9721
16:47:32:253,-0.1639,2.2421,9.2166,54.1581,-0.3746,0.1783,-0.4716,-12.8282
16:47:32:273,-0.2381,2.3545,10.0289,54.3926,-0.3511,0.3146,-0.2842,-12.6665
16:47:32:293,-0.0915,2.8433,10.7689,54.472,-0.1317,0.3573,-0.0617,-12.4896
16:47:32:313,0.2339,3.1161,10.855,54.7636,0.2634,0.2912,0.0907,-12.3048
16:47:32:333,0.3942,3.3918,10.8455,54.8811,0.5606,0.1911,0.1269,-12.121
16:47:32:353,0.6006,3.3511,10.9508,54.5923,0.5904,0.1208,0.0981,-11.944
16:47:32:375,0.3655,3.1974,11.1691,54.5838,0.5063,0.1751,0.0342,-11.7756
16:47:32:394,-0.3673,3.207,11.5328,54.8261,0.421,0.2635,-0.0233,-11.6145
16:47:32:414,-0.9398,3.3823,11.5472,54.765,0.3774,0.3786,0.0566,-11.458
16:47:32:434,-1.0594,3.746,11.0034,54.8153,0.3326,0.5021,0.2036,-11.3035
16:47:32:454,-0.6694,3.4469,10.7928,54.774,0.1632,0.4063,0.243,-11.1527
16:47:32:475,-0.3577,2.86,11.7296,54.5644,-0.072,0.0762,0.2036,-11.0109
16:47:32:495,-0.3194,2.5938,12.5773,54.6814,-0.1189,-0.1241,0.2238,-10.8798
16:47:32:515,-0.4654,2.2804,11.8253,55.0802,0.1121,0.0027,0.2526,-10.7568
16:47:32:535,-0.6257,1.8012,10.3783,55.2439,0.3411,0.0804,0.2036,-10.6424
16:47:32:556,-0.789,1.1498,9.6766,55.0875,0.2868,-0.0889,0.1546,-10.5377
16:47:32:575,-0.7196,0.6682,10.1366,55.1919,0.0025,-0.3467,0.1929,-10.4397
16:47:32:596,-0.7675,0.4594,10.4118,55.1174,-0.1423,-0.3553,0.3069,-10.3465
16:47:32:616,-0.8441,0.673,9.7866,55.2711,-0.0465,-0.1049,0.4783,-10.3465
16:47:32:636,-0.4654,1.3962,8.467,55.2805,0.1025,0.1581,0.6871,-10.3465
16:47:32:656,0.0185,1.794,7.2066,55.2632,0.1782,0.2273,0.7574,-10.3465
16:47:32:676,0.265,1.9184,6.3565,55.1752,0.1718,0.1282,0.6615,-10.3465
16:47:32:696,0.0879,2.0357,6.3829,55.0433,0.0844,-0.0549,0.5294,-10.3465
16:47:32:717,-0.1496,2.2493,6.6915,55.1178,-0.0188,-0.09,0.4879,-10.3465
16:47:32:737,0.0449,2.6249,6.7854,55.0194,-0.0699,0.0943,0.5635,-10.3465
16:47:32:757,0.2124,3.0084,6.9194,55.0659,-0.1104,0.2656,0.5837,-10.3465
16:47:32:777,0.1358,3.1328,7.5685,55.024,-0.1615,0.2028,0.4943,-10.3465
16:47:32:797,0.0784,3.0012,8.5125,55.1215,-0.1455,-0.0719,0.3814,-10.3465
16:47:32:817,0.1789,2.9462,9.3027,55.0438,0.0132,-0.221,0.3261,-10.3465
16:47:32:837,-0.0269,3.0012,9.2357,55.2511,0.2517,-0.0623,0.2707,-10.3465
16:47:32:857,-0.0843,3.1256,8.8044,55.3372,0.4019,0.0634,0.2441,-10.444
16:47:32:877,-0.0676,3.2937,9.408,55.3242,0.3422,-0.1422,0.178,-10.5452
16:47:32:898,-0.2812,3.2046,10.4907,55.497,0.1569,-0.3798,0.0609,-10.6493
16:47:32:918,-0.2381,2.8361,11.1691,55.5859,0.0356,-0.3286,0.0502,-10.7534
16:47:32:939,0.2195,2.656,11.4778,55.7372,-0.0113,-0.1198,0.1695,-10.8529
16:47:32:959,0.7107,3.0634,11.8253,55.8089,-0.0475,-0.0069,0.3304,-10.9471
16:47:32:979,1.8843,3.3846,12.1514,55.8535,-0.0742,-0.0538,0.4719,-11.0404
16:47:32:999,3.0843,3.3703,12.4528,55.6536,-0.1125,-0.1582,0.4272,-11.1394
16:47:33:019,3.1615,2.6728,12.594,55.6875,-0.1647,-0.1486,0.1109,-11.2501
16:47:33:040,2.0333,1.8132,12.0407,55.5876,-0.1445,0.0538,-0.1586,-11.3711
16:47:33:060,1.3502,1.6331,11.2002,55.5163,-0.0007,0.1932,-0.1373,-11.4909
16:47:33:080,1.8652,1.3507,10.194,55.3798,0.176,0.1197,0.0097,-11.5983
16:47:33:100,2.4712,1.2574,9.4564,55.2892,0.2346,-0.0186,-0.0031,-11.6955
16:47:33:121,2.3874,1.5589,9.0491,55.3674,0.1047,-0.0581,-0.1618,-11.7884
16:47:33:141,1.6187,1.602,8.8068,55.4729,-0.0827,0.0208,-0.3332,-11.7884
16:47:33:161,0.8997,1.5876,8.1338,55.6602,-0.1178,0.1644,-0.3822,-11.7884
16:47:33:180,0.3535,1.8419,7.0534,55.6922,-0.0507,0.337,-0.3161,-11.7884
16:47:33:201,0.3129,2.3521,6.3661,55.9181,-0.0401,0.3551,-0.1799,-11.7884
16:47:33:221,0.7131,2.9725,6.2656,55.9535,-0.0518,0.2614,-0.0446,-11.7884
16:47:33:241,0.9141,3.2189,5.9276,56.0447,-0.0124,0.2603,-0.0606,-11.7884
16:47:33:262,0.6389,3.2692,5.9228,56.0432,-0.0369,0.2667,-0.231,-11.7884
16:47:33:282,0.4451,2.9414,6.3326,56.122,-0.1349,0.2507,-0.3811,-11.7884
16:47:33:302,0.009,2.735,6.7783,56.2683,-0.2371,0.2624,-0.4407,-11.7884
16:47:33:322,-0.3817,2.5316,7.4608,56.3324,-0.333,0.2305,-0.4013,-11.7884
16:47:33:342,-0.3003,2.4718,8.3492,56.3885,-0.3948,0.1836,-0.2598,-11.7884
16:47:33:362,-0.0317,2.7739,9.1448,56.3711,-0.3863,0.2635,-0.0936,-11.7884
16:47:33:382,-0.1974,3.387,9.679,56.4658,-0.2776,0.4212,0.0332,-11.7884
16:47:33:403,-0.3577,3.7651,9.8919,56.7172,-0.0763,0.483,0.1269,-11.7884
16:47:33:423,-0.475,4.1605,9.9159,56.9245,0.1302,0.4339,0.1834,-11.7884
16:47:33:444,-0.3864,4.2778,10.3065,57.0241,0.1803,0.2465,0.1748,-11.7884
16:47:33:463,-0.3553,3.8447,10.9484,56.86,0.1132,0.1122,0.1099,-11.7884
16:47:33:483,-0.8441,3.4301,11.6746,56.8269,0.0249,0.125,0.0236,-11.7884
16:47:33:504,-1.6893,3.4804,12.405,57.0351,-0.0848,0.2965,0.0577,-11.7884
16:47:33:523,-1.9819,3.5234,12.2016,57.2922,-0.0933,0.631,0.2888,-11.7884
16:47:33:544,-2.0919,3.3894,11.6219,57.6221,-0.0305,0.8013,0.4826,-11.7884
16:47:33:564,-2.1517,2.8935,11.6483,57.7025,-0.1008,0.5852,0.4975,-11.7884
16:47:33:588,-2.2911,1.9448,12.3523,57.9306,-0.2201,0.19,0.4314,-11.7884
16:47:33:604,-2.3031,1.4656,12.3835,58.024,-0.1423,0.0112,0.4559,-11.7884
16:47:33:624,-2.1182,1.0391,11.5591,58.32,0.0611,0.0357,0.5262,-11.7884
16:47:33:644,-1.7234,0.3757,10.9436,58.7379,0.126,-0.0613,0.4772,-11.7884
16:47:33:664,-1.3089,0.0114,10.8598,58.8593,-0.0188,-0.2636,0.4261,-11.7884
16:47:33:690,-0.9494,0.0353,10.5123,58.8693,-0.1775,-0.1955,0.4655,-11.7884
16:47:33:709,-0.7962,0.2871,9.5593,58.7215,-0.2361,0.1293,0.5486,-11.7884
16:47:33:730,-0.6425,0.7184,8.1506,58.8716,-0.2308,0.4382,0.6381,-11.7884
16:47:33:749,-0.5444,1.0917,6.9147,58.8944,-0.234,0.5053,0.6722,-11.7884
16:47:33:765,-0.6766,1.3579,6.1908,58.9099,-0.2521,0.3391,0.6519,-11.8941
16:47:33:790,-0.5396,1.4393,6.2076,59.0126,-0.2254,-0.0591,0.621,-12.0194
16:47:33:810,-0.2764,1.669,6.4044,58.8253,-0.0667,-0.3915,0.6359,-12.1616
16:47:33:829,-0.0293,2.3139,6.536,58.7462,0.1057,-0.4298,0.6455,-12.3209
16:47:33:850,0.1119,2.7398,6.8907,58.8163,0.0876,-0.3702,0.5507,-12.497
16:47:33:870,0.143,2.5029,7.5852,59.1204,-0.0848,-0.334,0.3771,-12.6891
16:47:33:889,-0.2118,2.3498,8.6417,59.1788,-0.2276,-0.286,0.1844,-12.8935
16:47:33:913,-0.8034,2.3689,9.6239,59.5004,-0.1839,-0.2519,0.0704,-13.1041
16:47:33:932,-1.206,2.3186,9.9183,59.4541,0.0473,-0.1081,0.1162,-13.313
16:47:33:952,-1.1121,2.3976,9.7651,59.6351,0.2687,0.0687,0.2547,-13.5166
16:47:33:973,-1.081,2.6201,9.6407,59.7088,0.3699,0.1091,0.3377,-13.7162
16:47:33:992,-1.1121,3.1591,9.4828,59.7763,0.4466,0.1101,0.4037,-13.9165
16:47:34:012,-0.6305,3.3942,9.2883,59.9216,0.5233,0.1059,0.474,-14.1211
16:47:34:031,-0.3458,3.545,9.3529,60.0306,0.4722,0.0186,0.424,-14.3318
16:47:34:054,-0.3147,3.6574,9.6263,59.931,0.2485,-0.0996,0.2846,-14.552
16:47:34:105,0.0233,3.2644,10.4572,59.9978,-0.0379,-0.302,0.1503,-14.7799
16:47:34:110,0.7681,2.927,11.6411,60.3233,-0.2702,-0.533,0.0928,-15.0104
16:47:34:112,1.7743,2.6489,12.5749,60.3712,-0.3905,-0.712,0.0992,-15.2385
16:47:34:130,3.0867,2.3019,13.392,60.6942,-0.4023,-0.7759,0.0545,-15.4626
16:47:34:152,3.3888,1.6714,13.5906,60.9642,-0.3266,-0.5501,-0.1756,-15.6834
16:47:34:173,1.8269,1.2048,12.1825,61.0892,-0.1658,0.0282,-0.4684,-15.9
16:47:34:192,0.4618,1.1474,10.462,61.2445,0.0451,0.4254,-0.4802,-16.1047
16:47:34:213,0.4475,1.1737,9.0802,61.6537,0.2016,0.3604,-0.247,-16.287
16:47:34:232,1.4554,1.075,8.1051,61.968,0.2218,0.0485,-0.0904,-16.4469
16:47:34:254,2.2439,1.3627,8.1936,61.9988,0.0015,-0.3425,-0.1991,-16.5938
16:47:34:273,1.8724,1.4584,9.0299,62.201,-0.4598,-0.5298,-0.4951,-16.7345
16:47:34:294,0.9404,1.0056,9.5665,62.2577,-0.8176,-0.3585,-0.7284,-16.8651
16:47:34:312,-0.0006,0.6849,9.0323,62.3458,-0.8229,0.0186,-0.7198,-16.9739
16:47:34:333,-0.2213,1.0295,8.0118,62.4989,-0.5949,0.3328,-0.4482,-16.9739
16:47:34:353,0.0329,1.7486,6.9984,62.6302,-0.3213,0.3967,-0.1937,-16.9739
16:47:34:373,0.1214,2.2899,6.2489,62.5659,-0.0965,0.2869,-0.1703,-16.9739
16:47:34:393,0.0832,2.6489,6.143,62.5858,0.0505,0.1048,-0.2948,-16.9739
16:47:34:413,0.0401,2.6632,6.2895,62.8002,0.1846,-0.041,-0.4152,-16.9739
16:47:34:433,-0.1011,2.8265,6.186,63.1484,0.3102,-0.0208,-0.4599,-16.9739
16:47:34:453,-0.1107,2.9677,6.2752,63.4266,0.2474,-0.0293,-0.4652,-16.9739
16:47:34:473,0.1334,3.006,7.0726,63.684,-0.0486,-0.1411,-0.4503,-16.9739
16:47:34:494,0.3535,3.0945,8.7087,63.9883,-0.3948,-0.1912,-0.4237,-16.9739
16:47:34:512,0.2243,3.0778,10.2706,64.3712,-0.5534,-0.1188,-0.4024,-16.9739
16:47:34:532,0.0162,3.0371,11.6818,64.6991,-0.4853,-0.0069,-0.347,-16.9739
16:47:34:554,0.0832,2.8361,12.2495,65.1168,-0.1828,0.1421,-0.2108,-16.9739
16:47:34:574,0.0951,2.8696,12.4648,65.6511,0.1643,0.1474,-0.1469,-16.9739
16:47:34:594,0.0927,2.7182,12.6012,65.8194,0.3763,0.041,-0.181,-16.8784
16:47:34:612,-0.3266,2.2684,12.5821,66.1477,0.4871,0.0261,-0.2545,-16.7822
16:47:34:634,-1.2395,2.0524,12.5749,66.3485,0.535,0.1165,-0.2481,-16.6843
16:47:34:654,-1.5266,2.3737,12.1825,66.1672,0.5606,0.2507,0.0055,-16.5821
16:47:34:673,-1.014,2.7254,11.744,66.0716,0.5361,0.3668,0.2686,-16.4751
16:47:34:694,-0.7244,2.6824,11.4299,66.0684,0.3539,0.369,0.2846,-16.3719
16:47:34:716,-1.3854,2.2875,11.3246,65.9543,0.1068,0.2624,0.1514,-16.3719
16:47:34:733,-1.9388,1.8491,10.9484,65.5598,0.0483,0.157,0.1258,-16.3719
16:47:34:753,-1.6295,1.7127,10.127,65.5108,0.1302,0.0581,0.2313,-16.3719
16:47:34:773,-0.9637,1.3842,9.7555,65.3601,0.0771,-0.1497,0.2302,-16.3719
16:47:34:799,-0.6694,0.9194,9.8608,65.3569,-0.2116,-0.335,0.1258,-16.3719
16:47:34:815,-0.7962,0.6132,10.0241,65.4718,-0.531,-0.3158,0.0353,-16.3719
16:47:34:834,-1.0499,0.1507,9.8871,65.5168,-0.6365,-0.1869,0.0449,-16.3719
16:47:34:853,-1.2682,-0.003,9.0873,65.5876,-0.4768,0.0794,0.2398,-16.3719
16:47:34:874,-1.1599,0.5073,7.9089,65.4649,-0.2041,0.2784,0.5539,-16.3719
16:47:34:894,-0.585,1.1396,6.8883,65.5831,0.0111,0.2294,0.7808,-16.3719
16:47:34:915,-0.207,1.6935,6.3422,65.456,0.1238,-0.0048,0.8351,-16.3719
16:47:34:935,0.0401,2.0668,6.39,65.3002,0.1579,-0.2913,0.7542,-16.3719
16:47:34:955,0.1358,2.3258,6.5623,64.9422,0.1622,-0.3563,0.6615,-16.3719
16:47:34:976,0.1238,2.4048,6.5791,64.8458,0.1334,-0.2189,0.588,-16.3719
16:47:34:995,0.1095,2.3689,6.8046,64.551,0.0377,-0.1305,0.4996,-16.4859
16:47:35:015,0.2459,2.3306,7.4776,64.3046,-0.0859,-0.1624,0.4218,-16.6201
16:47:35:036,0.5288,2.141,8.5795,64.1807,-0.17,-0.2892,0.308,-16.7698
16:47:35:056,0.6221,2.1697,9.9039,63.9483,-0.1764,-0.368,0.1493,-16.9322
16:47:35:078,0.4522,2.0907,10.4357,63.7022,-0.0465,-0.2455,0.0491,-17.1031
16:47:35:096,0.5121,2.2056,10.2443,63.4353,0.1739,-0.0591,0.0513,-17.2764
16:47:35:116,0.816,2.2708,9.9733,63.5115,0.2921,0.0325,0.0236,-17.4493
16:47:35:136,1.0223,2.4096,10.139,63.2413,0.1675,-0.0368,-0.0617,-17.6221
16:47:35:157,1.0869,2.2397,10.5751,63.0289,-0.1008,-0.1582,-0.1469,-17.7943
16:47:35:177,1.331,1.9854,11.3198,62.7986,-0.3213,-0.2093,-0.1362,-17.963
16:47:35:198,1.8006,2.1218,12.1173,62.6122,-0.4289,-0.1869,-0.0308,-18.1252
16:47:35:216,2.2702,2.2128,12.1801,62.4003,-0.5035,-0.0378,-0.0116,-18.2802
16:47:35:237,2.2199,1.6307,12.2495,62.3433,-0.7015,0.0932,-0.1969,-18.4329
16:47:35:257,1.5182,0.9888,12.5581,62.2417,-0.8698,0.1282,-0.3555,-18.5841
16:47:35:278,1.264,0.5958,12.0096,62.1103,-0.6802,0.0751,-0.264,-18.7268
16:47:35:298,2.141,0.0209,11.2146,62.1089,-0.2989,-0.1241,-0.1884,-18.8554
16:47:35:320,2.9073,-0.6712,10.8885,62.2337,-0.0923,-0.4778,-0.3662,-18.9741
16:47:35:338,2.656,-0.6808,10.6397,62.027,-0.2137,-0.6747,-0.5558,-19.0869
16:47:35:358,2.0836,-0.7406,10.2084,61.9505,-0.4076,-0.5023,-0.6048,-19.1895
16:47:35:379,1.4991,-0.5515,9.1519,61.9023,-0.4108,-0.1039,-0.51,-19.1895
16:47:35:401,1.386,-0.0126,8.0046,61.6791,-0.2755,0.3349,-0.3214,-19.1895
16:47:35:419,1.2712,0.8189,7.0989,61.7581,-0.1956,0.5224,-0.2246,-19.1895
16:47:35:439,1.1659,1.4417,6.4187,61.4458,-0.1839,0.4659,-0.2852,-19.1895
16:47:35:461,0.9912,1.7701,6.143,61.1213,-0.1296,0.2869,-0.4184,-19.1895
16:47:35:480,0.737,1.9448,6.2512,60.887,-0.0049,0.0559,-0.5579,-19.1895
16:47:35:500,0.2435,1.9448,6.3613,60.9896,0.1387,-0.139,-0.674,-19.1895
16:47:35:520,-0.0676,1.9807,6.6102,60.7774,0.2176,-0.2647,-0.6943,-19.1895
16:47:35:541,-0.2429,2.1123,6.9218,60.6542,0.1888,-0.2935,-0.5952,-19.1895
16:47:35:561,-0.1035,2.254,7.7049,60.8362,0.0334,-0.3382,-0.4557,-19.1895
16:47:35:581,0.0473,2.4239,9.0849,60.4527,-0.1679,-0.4288,-0.3534,-19.1895
16:47:35:601,0.1908,2.4168,10.7067,60.3116,-0.2808,-0.4714,-0.2778,-19.1895
16:47:35:622,0.3176,2.4024,12.0168,60.5329,-0.1999,-0.3116,-0.1671,-19.1895
16:47:35:641,0.457,2.2253,12.4528,60.7047,0.0834,0.0261,-0.0457,-19.1895
16:47:35:662,0.4499,2.0596,12.1657,60.6061,0.4296,0.2316,0.0065,-19.1895
16:47:35:681,0.2865,1.9854,11.9378,60.3348,0.6543,0.1953,0.0012,-19.1895
16:47:35:702,0.1262,1.8179,12.0503,60.182,0.7,0.0804,0.0087,-19.1895
16:47:35:721,-0.14,2.0237,12.0072,59.85,0.6893,0.1336,0.1013,-19.1895
16:47:35:742,-0.0365,2.5125,11.5831,59.9293,0.6575,0.3786,0.2739,-19.1895
16:47:35:761,0.3583,2.5723,11.217,59.9399,0.4764,0.5405,0.3569,-19.1895
16:47:35:782,0.32,2.0381,11.5089,59.5506,0.1068,0.3999,0.2451,-19.1895
16:47:35:802,0.0114,1.468,12.4289,59.1197,-0.1722,0.0666,0.177,-19.1895
16:47:35:822,0.1047,1.5326,12.7956,58.7969,0.0387,-0.0964,0.3643,-19.1895
16:47:35:843,0.4522,1.8849,11.5496,58.757,0.6053,0.0687,0.5156,-19.1895
16:47:35:863,0.5288,1.7677,10.206,58.665,0.8694,0.0218,0.3197,-19.1895
16:47:35:884,0.3081,1.3053,9.6885,58.2995,0.5925,-0.2775,0.0513,-19.1895
16:47:35:903,-0.0939,0.6179,10.0217,58.0427,0.0473,-0.433,-0.1021,-19.1895
16:47:35:923,-0.4798,0.0544,10.0648,57.7343,-0.3277,-0.1699,-0.0457,-19.1895
16:47:35:943,-0.4367,0.1196,9.6215,57.3566,-0.4118,0.2422,0.243,-19.1895
16:47:35:963,0.0114,0.661,8.5747,56.9214,-0.316,0.5596,0.571,-19.1895
16:47:35:984,0.5264,1.3436,7.6283,56.5804,-0.1754,0.6086,0.7137,-19.2825
16:47:36:004,0.7944,1.7557,6.9793,56.1658,-0.0603,0.402,0.6562,-19.3943
16:47:36:024,0.7202,1.7031,6.9386,55.7086,0.0547,0.0293,0.4815,-19.5301
16:47:36:044,0.3464,1.8849,7.0606,55.2902,0.2229,-0.2178,0.3441,-19.6873
16:47:36:066,0.0353,2.254,6.941,54.8103,0.3774,-0.1912,0.324,-19.8618
16:47:36:111,0.1597,2.0883,6.8836,54.5336,0.4349,-0.1806,0.359,-20.0478
16:47:36:114,0.3607,2.1912,7.1468,54.2414,0.4242,-0.2647,0.3643,-20.2439
16:47:36:125,0.5336,2.5723,7.602,54.1474,0.388,-0.3116,0.3176,-20.4521
16:47:36:145,0.7466,2.7039,8.1984,53.9328,0.3113,-0.3371,0.2281,-20.6725
16:47:36:165,0.8303,2.5771,8.9222,53.9025,0.2112,-0.3542,0.1056,-20.903
16:47:36:186,0.8495,2.5172,9.5378,53.5736,0.1526,-0.3126,0.0182,-21.1403
16:47:36:205,1.3071,2.6034,9.8393,53.402,0.1366,-0.1965,-0.0201,-21.3792
16:47:36:226,1.523,2.601,10.3543,52.9819,0.0462,-0.1997,-0.1266,-21.6213
16:47:36:246,1.3549,2.2205,10.934,52.6796,-0.12,-0.3244,-0.2927,-21.8607
16:47:36:266,1.343,1.9519,11.3605,52.4816,-0.2105,-0.3798,-0.2991,-22.0938
16:47:36:286,1.8796,2.3139,12.1196,52.0541,-0.1945,-0.3723,-0.1096,-22.3136
16:47:36:307,2.7182,2.7302,12.1849,51.9425,-0.0955,-0.2445,0.0822,-22.5198
16:47:36:326,3.6209,3.0371,12.1992,51.727,-0.0443,-0.1475,0.0577,-22.7207
16:47:36:347,3.4965,2.6297,12.0957,51.4804,-0.0859,-0.1433,-0.2736,-22.924
16:47:36:368,2.0453,1.7103,11.5663,51.4645,-0.0656,-0.0399,-0.6389,-23.1291
16:47:36:388,1.1898,1.3914,10.9053,51.3856,0.1004,0.0282,-0.6559,-23.3245
16:47:36:408,1.1444,1.1593,10.194,51.152,0.3166,-0.0389,-0.4961,-23.496
16:47:36:428,1.5206,0.5647,9.5282,50.8179,0.4072,-0.1838,-0.4418,-23.644
16:47:36:448,1.6283,0.4666,9.3147,50.6368,0.2783,-0.3105,-0.4258,-23.7756
16:47:36:470,1.3956,0.7807,9.2142,49.7524,0.0238,-0.2264,-0.3726,-23.8942
16:47:36:490,1.1755,1.118,8.6919,49.6866,-0.1381,0.1229,-0.2937,-24.0006
16:47:36:511,0.8734,1.3914,7.7384,49.2241,-0.1818,0.582,-0.215,-24.0953
16:47:36:530,0.591,1.7868,6.7537,49.0244,-0.1977,0.8876,-0.1383,-24.0953
16:47:36:552,0.2028,2.2128,6.0185,48.978,-0.2201,0.9164,-0.0979,-24.0953
16:47:36:579,-0.2166,2.5412,5.5585,48.8775,-0.2063,0.7928,-0.1011,-24.0953
16:47:36:590,-0.6018,2.6704,5.3192,48.7617,-0.1615,0.6055,-0.1288,-24.0953
16:47:36:611,-0.6694,2.613,5.3073,48.6159,-0.1381,0.3413,-0.0915,-24.0953
16:47:36:631,-0.3458,2.7446,5.8008,48.5234,-0.1871,0.0474,0.015,-24.0953
16:47:36:650,0.0353,2.8935,7.0822,48.2709,-0.3021,-0.2413,0.0811,-24.0953
16:47:36:670,0.3918,2.9725,8.4503,48.513,-0.3415,-0.3638,0.1013,-24.0953
16:47:36:691,0.8686,3.2913,9.4564,48.5985,-0.2297,-0.2114,0.1589,-24.0953
16:47:36:710,0.9428,3.734,9.6814,48.35,-0.0593,0.0474,0.2313,-24.0953
16:47:36:730,1.0199,3.8997,9.9015,48.1859,0.0473,0.1282,0.2814,-24.1907
16:47:36:751,1.1779,3.8566,10.7569,47.9036,0.1025,-0.0517,0.2867,-24.2955
16:47:36:771,1.1827,3.7914,11.5232,47.7444,0.2357,-0.286,0.2451,-24.4107
16:47:36:791,1.075,3.4899,11.9498,47.55,0.4317,-0.3787,0.1961,-24.537
16:47:36:811,0.8279,3.3918,12.3428,47.5148,0.5361,-0.3435,0.2015,-24.672
16:47:36:831,0.8303,3.4493,12.6084,47.1109,0.5286,-0.2189,0.3005,-24.8138
16:47:36:851,0.9553,3.5833,12.3117,46.5194,0.4892,-0.0261,0.3931,-24.9632
16:47:36:871,1.1827,3.3176,12.2997,46.3487,0.3284,0.0282,0.36,-25.1241
16:47:36:891,0.6652,2.6297,12.8028,46.2567,0.0515,-0.0559,0.1887,-25.2991
16:47:36:911,-0.384,1.8323,12.676,46.1285,-0.0305,-0.008,0.112,-25.4859
16:47:36:931,-0.7364,1.6911,11.6148,45.8333,0.1899,0.1442,0.3154,-25.6764
16:47:36:952,-0.451,2.1051,10.1151,45.8415,0.4136,0.1953,0.6221,-25.8676
16:47:36:971,0.1717,2.5747,9.2788,45.6099,0.3379,-0.0186,0.7382,-26.0662
16:47:36:992,0.469,2.4933,9.5378,45.3347,-0.0134,-0.3553,0.5752,-26.284
16:47:37:012,0.5958,1.794,10.2347,45.412,-0.3682,-0.532,0.3345,-26.5244
16:47:37:032,0.4134,1.255,10.4859,45.233,-0.5088,-0.3947,0.2206,-26.7794
16:47:37:057,0.1573,0.8596,10.1222,45.091,-0.4257,-0.0527,0.2483,-27.0382
16:47:37:073,-0.0843,1.0367,9.0443,44.8648,-0.2371,0.4297,0.4059,-27.2961
16:47:37:093,-0.015,1.3053,7.9065,44.8494,-0.0859,0.7587,0.5933,-27.5537
16:47:37:113,0.265,1.6935,7.0319,44.5506,0.0537,0.764,0.7318,-27.8179
16:47:37:137,0.411,2.3689,6.7418,44.2887,0.2176,0.5106,0.7563,-28.0953
16:47:37:157,0.4307,2.7906,6.6556,44.1265,0.388,0.1762,0.6551,-28.3907
16:47:37:177,0.4158,2.7906,7.0965,44.0675,0.4999,-0.1752,0.4762,-28.7051
16:47:37:197,0.4134,2.5507,7.6092,43.9293,0.5691,-0.3425,0.324,-29.0344
16:47:37:213,0.3153,2.5244,7.8586,43.6633,0.5925,-0.2636,0.2345,-29.3729
16:47:37:237,0.387,2.3617,8.3611,43.7441,0.4881,-0.1965,0.1759,-29.715
16:47:37:258,0.6532,2.3737,8.8834,43.5699,0.3774,-0.1262,0.1823,-30.0572
16:47:37:278,1.1133,2.6919,9.3458,43.3816,0.3582,-0.0016,0.2036,-30.3972
16:47:37:297,1.4895,3.1017,9.5856,43.2937,0.3869,0.1165,0.1578,-30.735
16:47:37:318,1.4195,3.2189,9.6431,43.0352,0.3571,0.1676,-0.002,-31.0715
16:47:37:338,1.0271,3.3344,9.6885,42.8341,0.225,0.1453,-0.1469,-31.4052
16:47:37:360,0.8877,3.2142,9.5306,42.6502,0.0718,0.1506,-0.1437,-31.7306
16:47:37:378,1.1611,3.4014,9.8249,42.5515,-0.0848,0.141,-0.0212,-32.0413
16:47:37:399,2.0668,3.6646,10.7354,42.3745,-0.2861,0.0399,0.1162,-32.3368
16:47:37:417,2.881,3.6191,11.4084,42.1501,-0.4417,0.0197,0.0907,-32.6214
16:47:37:442,2.9504,3.2985,11.9091,42.3622,-0.5491,0.1336,-0.149,-32.9005
16:47:37:456,2.3037,2.321,11.988,42.4523,-0.6237,0.3487,-0.4109,-33.1734
16:47:37:477,1.4895,1.8084,11.6052,42.5795,-0.5672,0.5479,-0.5015,-33.4312
16:47:37:497,1.4004,1.0534,11.013,42.6839,-0.4438,0.4702,-0.4152,-33.6636
16:47:37:517,1.858,0.414,10.9603,42.8216,-0.3735,0.124,-0.3278,-33.8677
16:47:37:540,2.0477,0.5838,11.0758,43.0261,-0.3852,-0.0762,-0.2842,-34.049
16:47:37:559,1.7958,0.7639,10.5966,43.1726,-0.3703,0.0613,-0.2831,-34.212
16:47:37:578,1.6044,0.9482,9.2477,43.4435,-0.2542,0.3509,-0.3001,-34.3587
16:47:37:598,1.331,1.3579,8.2271,43.5321,-0.1999,0.5383,-0.3747,-34.4896
16:47:37:619,1.0343,1.7892,7.928,43.6392,-0.2254,0.4947,-0.5015,-34.6045
16:47:37:639,0.7346,2.0213,7.657,43.9517,-0.0806,0.353,-0.6016,-34.6998
16:47:37:660,0.3344,2.1266,6.8596,43.8589,0.2538,0.3306,-0.6655,-34.6998
16:47:37:679,-0.0532,2.2128,5.5107,43.9038,0.5702,0.5032,-0.6527,-34.6998
16:47:37:698,-0.396,2.7159,4.4614,43.7289,0.6213,0.6715,-0.5664,-34.6998
16:47:37:721,-0.518,3.2357,4.1958,43.812,0.3795,0.6896,-0.477,-34.6998
16:47:37:739,-0.5492,3.4397,4.8401,44.0607,0.0526,0.6044,-0.4823,-34.6998
16:47:37:761,-0.7555,3.5545,5.6901,44.2165,-0.2084,0.5586,-0.5366,-34.6998
16:47:37:779,-1.3735,3.6096,6.8668,44.5307,-0.4363,0.4723,-0.5473,-34.6998
16:47:37:799,-1.7498,3.4277,8.4933,44.6316,-0.5821,0.2262,-0.4546,-34.6998
16:47:37:820,-1.7833,3.3464,10.1055,45.0106,-0.5056,-0.0101,-0.2566,-34.5899
16:47:37:839,-1.9747,3.521,11.1643,45.2388,-0.2861,-0.1166,-0.0872,-34.4647
16:47:37:860,-2.2259,3.2142,11.9474,45.5499,-0.0678,-0.0858,0.0459,-34.3316
16:47:37:880,-2.4371,2.8241,12.1466,45.8214,0.0844,0.1176,0.2185,-34.1969
16:47:37:900,-2.2499,3.1807,12.4983,46.1351,0.1249,0.2593,0.4431,-34.0648
16:47:37:920,-1.7498,3.6574,13.2509,46.2485,0.0643,0.1964,0.5102,-33.9405
16:47:37:940,-1.3735,3.6479,14.2469,46.3516,-0.0177,0.141,0.3675,-33.8317
16:47:37:960,-1.7282,2.8576,14.8846,46.2752,-0.1115,0.2337,0.0822,-33.7406
16:47:37:981,-2.7218,1.8443,14.3671,46.3516,-0.1136,0.5628,-0.1075,-33.7406
16:47:38:001,-3.5031,1.6451,13.0971,46.5338,0.0441,0.927,0.0768,-33.7406
16:47:38:021,-3.3428,2.2056,12.2184,46.7012,0.224,0.8961,0.4911,-33.7406
16:47:38:044,-2.7027,2.4215,11.5113,46.6921,0.3241,0.5724,0.6977,-33.7406
16:47:38:062,-2.2475,1.9591,10.879,46.6883,0.2996,0.2475,0.6072,-33.7406
16:47:38:081,-2.1996,1.2287,10.1438,46.8081,0.1803,0.0772,0.4495,-33.7406
16:47:38:126,-2.1805,0.6078,9.2142,46.8374,0.0451,0.1069,0.4208,-33.7406
16:47:38:131,-1.922,0.469,8.2726,47.1421,-0.0699,0.223,0.5411,-33.7406
16:47:38:141,-1.5984,0.6467,7.4752,47.1336,-0.1317,0.2965,0.7201,-33.7406
16:47:38:161,-1.261,0.8477,6.7059,47.0921,-0.0635,0.2092,0.866,-33.7406
16:47:38:181,-0.7436,1.0056,5.8295,47.1107,0.1718,-0.0272,0.9778,-33.7406
16:47:38:201,-0.3625,1.4752,4.9286,47.1624,0.4562,-0.2818,1.014,-33.7406
16:47:38:222,-0.3362,1.9615,4.3346,47.0784,0.6011,-0.5586,0.8841,-33.7406
16:47:38:242,-0.3697,2.0333,4.3226,47.092,0.5489,-0.8142,0.6455,-33.8458
16:47:38:263,-0.3194,1.7198,4.5045,46.9745,0.4051,-0.8505,0.4101,-33.9716
16:47:38:282,-0.542,1.3364,4.8473,46.9782,0.1877,-0.582,0.2238,-34.1092
16:47:38:303,-0.9182,1.2574,5.3121,46.8347,-0.1306,-0.1305,0.1791,-34.2513
16:47:38:323,-0.7914,1.535,6.591,46.7381,-0.4864,0.1794,0.2547,-34.3919
16:47:38:343,-0.6885,2.0405,8.1649,47.048,-0.6812,0.1879,0.2739,-34.5304
16:47:38:363,-0.722,2.0883,9.4708,47.2097,-0.6333,0.0453,0.1631,-34.6706
16:47:38:384,-0.8728,2.1003,10.9292,47.4814,-0.4768,-0.0304,0.0683,-34.8156
16:47:38:404,-1.1838,2.388,11.7153,47.499,-0.3128,0.1698,0.1109,-34.9611
16:47:38:425,-1.3424,3.0969,11.7535,47.8376,-0.251,0.3594,0.2409,-35.101
16:47:38:444,-0.6694,3.7268,11.811,47.8326,-0.3682,0.3061,0.3739,-35.2365
16:47:38:464,0.3296,4.3089,13.1163,48.2485,-0.5715,0.108,0.4101,-35.3728
16:47:38:484,0.6508,4.3956,14.0602,48.5472,-0.6141,-0.0783,0.2334,-35.5151
16:47:38:504,0.7513,4.3813,14.0124,48.541,-0.5481,-0.1646,-0.0286,-35.6648
16:47:38:525,0.8925,3.5856,15.143,48.6567,-0.7142,-0.2807,-0.3204,-35.8162
16:47:38:545,0.2937,2.0979,15.8495,48.7967,-0.7696,-0.1944,-0.5792,-35.9594
16:47:38:565,-0.2309,0.874,14.8271,49.2065,-0.3373,-0.0399,-0.5963,-36.0859
16:47:38:585,0.2818,0.5264,13.1091,49.1652,0.2186,-0.1901,-0.3939,-36.1872
16:47:38:606,1.252,0.8907,11.6483,49.5652,0.4221,-0.4309,-0.2672,-36.1872
16:47:38:625,1.3214,1.0343,10.8024,49.8641,0.2964,-0.4554,-0.4248,-36.1872
16:47:38:645,0.7729,0.524,10.4094,50.471,0.2282,-0.4479,-0.6804,-36.1872
16:47:38:666,0.4307,0.1005,9.3673,50.8289,0.4711,-0.4937,-0.7475,-36.1872
16:47:38:686,0.3272,0.1268,7.7456,51.2539,0.8353,-0.4735,-0.6272,-36.1872
16:47:38:706,0.3607,0.5312,6.0162,51.5996,1.0409,-0.3883,-0.4706,-36.1872
16:47:38:726,0.4786,0.8859,4.7683,51.919,0.9631,-0.269,-0.3683,-36.1872
16:47:38:747,0.4762,1.2431,3.9823,52.4286,0.7383,-0.0538,-0.3214,-36.1872
16:47:38:766,0.277,1.4824,3.4098,52.6774,0.5371,0.1591,-0.3193,-36.0894
16:47:38:788,-0.0317,1.7246,2.8899,52.8138,0.4008,0.2188,-0.3332,-35.9785
16:47:38:807,-0.1059,2.074,2.6961,53.1193,0.2389,0.0953,-0.3193,-35.8554
16:47:38:827,0.0903,2.6225,2.6818,53.3868,0.0079,-0.0751,-0.3214,-35.7196
16:47:38:847,0.4379,3.2985,3.2351,53.8926,-0.3234,-0.1901,-0.4056,-35.5717
16:47:38:868,0.3057,3.7914,4.9789,54.2211,-0.7057,-0.2487,-0.592,-35.4129
16:47:38:888,-0.262,3.5426,6.7854,54.6233,-0.9497,-0.2296,-0.7976,-35.24
16:47:38:909,-1.0044,3.3488,8.8259,55.4801,-1.0764,-0.2093,-0.8285,-35.0477
16:47:38:929,-1.6295,3.0873,11.3294,56.1084,-1.1477,-0.2019,-0.6794,-34.8298
16:47:38:951,-2.068,2.5005,13.9023,56.6238,-1.0285,-0.1539,-0.4599,-34.587
16:47:38:970,-1.9388,2.3139,15.0353,57.2989,-0.678,0.0804,-0.1064,-34.3249
16:47:38:991,-1.194,3.0108,15.0664,57.9272,-0.3064,0.3221,0.2441,-34.0517
16:47:39:011,-0.7029,3.7962,15.3637,58.4903,-0.1455,0.3487,0.343,-33.7808
16:47:39:030,-1.0092,4.084,15.0688,59.0701,-0.0827,0.3647,0.2355,-33.524
16:47:39:051,-1.4596,3.9308,14.6279,59.6889,-0.0838,0.3221,0.1045,-33.286
16:47:39:070,-1.5888,2.9103,15.2363,59.9718,-0.1945,0.0921,-0.0158,-33.0622
16:47:39:090,-2.0871,1.9711,15.4618,60.3992,-0.039,-0.0889,-0.0744,-32.8474
16:47:39:111,-2.4084,1.7318,13.8018,60.8418,0.5542,-0.0389,0.0715,-32.6371
16:47:39:130,-2.2624,1.9448,11.4658,61.1027,0.9631,0.0272,0.243,-32.4281
16:47:39:151,-1.6128,1.7246,10.5679,61.1859,0.6692,-0.1113,0.2728,-32.2248
16:47:39:170,-0.9015,1.3579,10.879,61.431,0.0441,-0.1358,0.2515,-32.032
16:47:39:189,-0.4152,0.8644,10.6732,61.4903,-0.2957,0.0357,0.243,-31.8523
16:47:39:210,-0.3601,0.591,9.2333,61.8222,-0.3053,0.3583,0.2622,-31.6852
16:47:39:231,-0.5707,0.5743,7.535,61.9737,-0.3075,0.6566,0.3451,-31.5315
16:47:39:250,-0.6497,0.524,6.3829,62.1025,-0.3596,0.6758,0.5316,-31.39
16:47:39:270,-0.5157,0.481,5.7099,61.7869,-0.2712,0.3945,0.7829,-31.2648
16:47:39:290,-0.2644,0.6514,5.4365,61.8572,0.0398,-0.1028,1.0299,-31.162
16:47:39:311,0.1741,1.0152,5.4269,61.757,0.4711,-0.6971,1.1578,-31.162
16:47:39:331,0.6006,1.5709,5.2642,61.5902,0.8811,-1.0603,1.1429,-31.162
16:47:39:351,0.9476,2.1601,4.7874,61.3628,1.0409,-1.1072,0.9639,-31.162
16:47:39:371,1.1133,2.3402,4.7204,61.0192,0.8193,-1.0177,0.653,-31.162
16:47:39:392,0.984,2.0859,5.6949,60.9911,0.372,-0.7386,0.2899,-31.162
16:47:39:412,0.5886,1.6355,7.0032,60.9146,-0.0017,-0.237,0.0108,-31.2543
16:47:39:432,0.1214,1.2526,7.7121,60.7687,-0.1509,0.3072,-0.0744,-31.3534
16:47:39:452,-0.0532,1.7964,8.4598,60.6847,-0.1668,0.5373,-0.018,-31.447
16:47:39:472,0.1813,2.5244,10.2012,60.8105,-0.1658,0.2891,-0.0052,-31.447
16:47:39:493,0.4134,2.5938,11.4873,60.9331,-0.039,-0.0037,-0.1096,-31.447
16:47:39:513,0.5312,3.0132,11.6387,61.3279,0.0409,0.0889,-0.1554,-31.447
16:47:39:532,0.6963,3.746,12.1514,61.5579,-0.2531,0.1879,-0.1586,-31.447
16:47:39:552,0.9117,3.1448,13.6696,61.5986,-0.6951,0.125,-0.2332,-31.447
16:47:39:573,0.9093,2.5579,14.4174,61.9844,-0.7164,0.0666,-0.1288,-31.447
16:47:39:593,1.0439,3.1974,13.6935,62.3511,-0.398,-0.0005,0.1834,-31.447
16:47:39:614,1.8915,3.9141,13.2269,62.7965,-0.2861,-0.1944,0.3387,-31.447
16:47:39:633,2.5214,3.4086,14.0387,63.0186,-0.4363,-0.3968,0.1535,-31.447
16:47:39:654,2.4138,2.129,14.2905,63.2044,-0.4108,-0.2743,-0.1437,-31.447
16:47:39:674,2.1434,1.4417,13.0253,63.2684,-0.055,-0.0751,-0.3087,-31.447
16:47:39:695,2.1362,0.6969,11.3366,63.2844,0.257,-0.1156,-0.4706,-31.447
16:47:39:715,2.0907,0.2201,10.1198,63.6032,0.2719,-0.269,-0.6453,-31.447
16:47:39:735,1.6881,0.1986,9.6431,63.7402,0.1185,-0.253,-0.8157,-31.447
16:47:39:755,1.1204,-0.0413,9.2189,63.9877,0.0718,-0.1294,-0.9871,-31.447
16:47:39:776,0.4235,-0.216,7.9783,64.0771,0.2176,0.0623,-1.0499,-31.447
16:47:39:796,0.1382,-0.1657,6.4762,64.3209,0.3869,0.2326,-0.9072,-31.447
16:47:39:816,0.2818,0.1364,5.1709,64.5121,0.4807,0.2166,-0.6708,-31.3391
16:47:39:836,0.3894,0.74,4.4662,64.6014,0.4668,0.0431,-0.5345,-31.2005
16:47:39:856,0.3942,1.2407,4.2748,64.8064,0.3561,-0.1103,-0.5249,-31.0408
16:47:39:876,0.3248,1.4321,4.1623,64.929,0.2772,-0.1284,-0.5643,-30.8652
16:47:39:896,0.2722,1.6594,3.877,64.9016,0.2868,-0.008,-0.5952,-30.675
16:47:39:917,0.2506,2.1362,3.6903,65.009,0.2655,0.0804,-0.6037,-30.469
16:47:39:937,0.1501,2.7278,4.0493,65.0382,0.0929,0.1037,-0.6676,-30.2465
16:47:39:956,-0.1998,3.1137,4.7252,65.2897,-0.2446,0.1847,-0.7891,-30.008
16:47:39:976,-0.4247,3.4229,6.2847,65.4968,-0.6929,0.222,-0.8786,-29.751
16:47:39:996,-0.7268,3.3033,9.454,65.7403,-1.0807,0.1112,-0.9104,-29.4728
16:47:40:017,-1.6391,2.9246,12.4935,66.1666,-1.1116,0.0154,-0.8232,-29.1704
16:47:40:037,-2.1326,2.8839,15.0473,66.3673,-0.8176,-0.0154,-0.5526,-28.8443
16:47:40:057,-1.6965,2.4646,16.4728,66.72,-0.2904,-0.0048,-0.198,-28.4989
16:47:40:077,-0.4941,2.7374,16.2568,67.0919,0.2985,0.1655,0.1642,-28.144
16:47:40:097,-0.195,3.5856,15.5958,67.2614,0.6213,0.4094,0.3208,-27.7918
16:47:40:138,-0.7412,4.1629,14.5131,67.3272,0.6947,0.7651,0.2824,-27.4545
16:47:40:142,-1.6439,4.7163,12.9272,67.4382,0.6586,1.1145,0.2355,-27.1377
16:47:40:157,-2.3007,4.5511,12.2327,67.5468,0.4594,1.1102,0.1908,-26.839
16:47:40:178,-2.7745,3.5737,12.4935,67.4287,0.3443,0.7406,0.1482,-26.5554
16:47:40:198,-3.1962,2.9797,11.8923,67.3645,0.6149,0.3072,0.1812,-26.2847
16:47:40:218,-3.5533,2.9366,10.2538,67.025,0.9738,0.025,0.2473,-26.0248
16:47:40:239,-3.4696,2.7715,8.8594,66.8023,0.8917,-0.1454,0.2739,-25.7748
16:47:40:258,-2.8923,2.278,8.8594,66.6788,0.2985,-0.2732,0.2941,-25.5352
16:47:40:279,-2.1948,1.794,9.8776,66.4817,-0.3916,-0.3531,0.2441,-25.3075
16:47:40:300,-1.5362,1.1761,10.8622,66.3461,-0.7995,-0.3521,0.1045,-25.0948
16:47:40:319,-1.194,0.5384,10.7258,66.0779,-0.8527,-0.0676,-0.0265,-24.8981
16:47:40:344,-1.6558,0.0909,9.3888,65.8746,-0.7292,0.4222,-0.0467,-24.7138
16:47:40:360,-2.1446,-0.1992,8.2511,65.8121,-0.5821,0.6353,0.1652,-24.5367
16:47:40:380,-1.855,-0.393,7.6259,65.8377,-0.2904,0.3306,0.6125,-24.3655
16:47:40:400,-0.9661,-0.0365,6.9577,65.5798,0.2346,-0.122,1.1248,-24.2072
16:47:40:424,-0.0269,0.8189,6.1813,65.1603,0.8193,-0.4341,1.4891,-24.0759
16:47:40:444,0.6724,1.8754,5.47,64.855,1.206,-0.5543,1.5402,-24.0759
16:47:40:466,0.9625,2.6824,4.809,64.346,1.2688,-0.5106,1.309,-24.0759
16:47:40:486,0.6461,2.9916,4.5428,63.9544,1.0025,-0.3084,0.8746,-24.0759
16:47:40:504,0.0999,2.5412,4.7444,63.5034,0.5776,0.0378,0.4666,-24.0759
16:47:40:524,-0.3817,2.3809,4.8114,63.1762,0.1909,0.4691,0.2632,-24.0759
16:47:40:544,-0.7149,2.5603,4.8879,62.8004,-0.1306,0.813,0.1876,-24.1774
16:47:40:566,-1.014,2.8217,5.7864,62.3414,-0.4001,0.7417,0.1333,-24.2846
16:47:40:584,-0.8201,3.0371,7.5182,62.2817,-0.463,0.1581,0.0779,-24.3952
16:47:40:607,-0.4534,3.4947,8.6345,62.0903,-0.2766,-0.4011,0.0214,-24.5077
16:47:40:625,-0.0461,3.9165,9.5641,62.0486,-0.2126,-0.6097,-0.0872,-24.6206
16:47:40:644,0.2411,3.7651,11.4012,62.0244,-0.4672,-0.481,-0.215,-24.7314
16:47:40:665,0.21,3.8154,13.078,62.0148,-0.7568,-0.1752,-0.2395,-24.8357
