Time,Acc_X,Acc_Y,Acc_Z,Meg,Gyr_X,Gyr_Y,Gyr_Z,Ore
16:57:22:955,-0.5001,4.3202,8.9336,42.9644,0.1825,0.075,0.0185,-0.0167
16:57:22:973,-0.1041,4.2808,8.808,43.1567,0.3031,0.118,0.042,-0.0119
16:57:22:991,0.0048,4.2891,8.2229,43.1369,0.3361,0.2421,0.0108,-0.0021
16:57:23:010,-0.1543,4.2843,7.8365,43.0902,0.2967,0.2793,-0.0221,0.0032
16:57:23:030,-0.2225,4.1994,7.6355,42.8872,0.2295,0.2534,0.0026,0.003
16:57:23:050,-0.1089,4.4219,7.8879,42.8353,0.1804,0.166,0.053,0.0039
16:57:23:069,0.0658,4.8072,8.2122,42.6383,0.1489,0.1037,0.0548,0.0062
16:57:23:089,0.2309,4.9017,8.5938,42.537,0.0988,0.1223,0.0359,0.0093
16:57:23:109,0.2201,4.9842,8.5543,42.4195,0.0588,0.1987,0.0053,0.0128
16:57:23:129,0.1196,5.0895,8.4538,42.1728,0.0359,0.1929,-0.0224,0.0143
16:57:23:150,-0.1232,5.0345,8.3701,42.0934,0.0564,0.0732,-0.0643,0.0161
16:57:23:170,-0.2489,4.9484,8.1667,41.9437,0.0066,0.0628,-0.0588,0.0173
16:57:23:189,-0.2967,4.9077,8.0877,42.1621,-0.0845,0.0567,-0.0371,0.017
16:57:23:209,-0.1783,4.8814,8.3593,42.1823,-0.1489,0.0557,-0.0179,0.0162
16:57:23:229,-0.0431,5.0034,8.534,42.302,-0.1242,0.0481,-0.0396,0.0148
16:57:23:249,-0.0933,5.0608,8.6273,42.282,-0.0786,0.0038,-0.1028,0.015
16:57:23:269,-0.2608,5.0142,8.7661,42.3159,-0.0261,-0.0206,-0.1468,0.0154
16:57:23:292,-0.3494,4.9448,8.6572,42.3737,0.0002,0.0047,-0.1617,0.0148
16:57:23:310,-0.4475,4.8945,8.6082,42.4025,0.0014,0.0331,-0.1602,0.0144
16:57:23:330,-0.5288,4.9125,8.6883,42.598,0.0499,0.0023,-0.1492,0.0144
16:57:23:349,-0.5874,4.9974,8.6477,42.4655,0.129,-0.0573,-0.1416,0.0148
16:57:23:370,-0.451,5.0453,8.4778,42.5539,0.1177,-0.0573,-0.1312,0.0146
16:57:23:390,-0.3517,5.0524,8.3127,42.4861,0.027,0.0099,-0.1431,0.015
16:57:23:429,-0.4295,5.0441,8.5125,42.58,-0.02,-0.0063,-0.137,0.0151
16:57:23:431,-0.3864,5.0644,8.4969,42.6989,0.0115,-0.0338,-0.1321,0.0154
16:57:23:451,-0.3194,5.0441,8.4203,42.6507,-0.0005,-0.0176,-0.1407,0.0159
16:57:23:470,-0.2991,5.0417,8.3761,42.5763,-0.0365,-0.0093,-0.1532,0.0158
16:57:23:493,-0.2536,5.007,8.5448,42.4119,-0.0588,-0.0429,-0.1672,0.0164
16:57:23:509,-0.2201,4.9448,8.8391,42.6321,-0.0218,-0.0661,-0.1752,0.0171
16:57:23:530,-0.1974,4.9053,8.9372,42.4249,0.0655,-0.0707,-0.173,0.0182
16:57:23:552,-0.213,4.9842,8.6812,42.5525,0.1455,-0.0582,-0.1715,0.0195
16:57:23:571,-0.1627,5.1123,8.2875,42.6551,0.1498,-0.0392,-0.1834,0.0201
16:57:23:590,-0.0909,5.2654,8.0088,42.4414,0.1049,-0.0591,-0.21,0.0211
16:57:23:610,-0.122,5.4269,8.0076,42.6336,0.0359,-0.111,-0.2592,0.0224
16:57:23:629,-0.2524,5.409,8.3103,42.5599,-0.0191,-0.1226,-0.323,0.0233
16:57:23:651,-0.5731,5.2558,8.3928,42.4659,-0.0191,-0.1342,-0.3832,0.0238
16:57:23:672,-0.8554,5.0046,8.5472,42.2002,-0.0228,-0.1489,-0.3923,0.0234
16:57:23:694,-0.9045,5.2056,8.1835,42.2842,0.0539,-0.0567,-0.3987,0.0226
16:57:23:709,-1.1916,5.1637,7.992,42.2105,0.0689,-0.1043,-0.4607,0.0217
16:57:23:729,-1.3472,4.9783,7.9645,41.8955,0.0389,-0.1315,-0.487,0.0209
16:57:23:750,-1.3926,4.8538,8.0207,42.0733,-0.0472,-0.1037,-0.4882,0.0194
16:57:23:770,-1.3735,4.794,8.2181,41.8832,-0.1248,-0.0435,-0.4837,0.0172
16:57:23:789,-1.2826,4.7342,8.2421,41.9358,-0.1455,-0.0258,-0.4782,0.0146
16:57:23:811,-1.1797,4.7856,8.187,41.9573,-0.173,-0.0408,-0.4678,0.0103
16:57:23:830,-1.0648,4.8885,8.4072,41.9338,-0.1984,-0.0451,-0.4384,0.0089
16:57:23:851,-0.8626,5.0716,8.6189,41.9039,-0.1434,-0.0661,-0.4021,0.0085
16:57:23:870,-0.6018,5.3085,8.5292,42.0073,-0.0276,-0.1413,-0.411,0.0097
16:57:23:889,-0.5444,5.4951,8.1858,42.0549,0.0359,-0.2173,-0.4696,0.0115
16:57:23:910,-0.6939,5.5322,7.9537,41.934,-0.0331,-0.214,-0.538,0.0129
16:57:23:930,-1.06,5.3934,7.9717,41.8001,-0.1355,-0.2149,-0.5988,0.0137
16:57:23:969,-1.5565,4.7186,8.5316,41.517,-0.1944,-0.2689,-0.6217,0.0141
16:57:23:990,-1.4847,4.6648,8.5771,41.5649,-0.1828,-0.2952,-0.5887,0.0139
16:57:24:010,-1.322,4.6385,8.6907,41.2715,-0.1333,-0.3343,-0.5438,0.0143
16:57:24:030,-1.0923,4.7593,8.6812,41.3404,-0.0579,-0.3706,-0.4913,0.0155
16:57:24:051,-0.7968,5.0022,8.3151,41.4346,-0.0298,-0.4012,-0.4604,0.0174
16:57:24:072,-0.5013,5.19,8.0614,41.3644,-0.0915,-0.4391,-0.4748,0.0234
16:57:24:091,-0.2393,5.342,8.0554,41.5842,-0.1633,-0.4763,-0.5316,0.0277
16:57:24:110,-0.2321,5.4018,8.4526,41.7932,-0.1877,-0.5851,-0.619,0.0331
16:57:24:130,-0.3326,5.196,8.9468,41.8102,-0.1419,-0.6941,-0.7014,0.0388
16:57:24:169,-0.5551,4.7785,9.3236,41.7918,-0.0191,-0.7805,-0.7537,0.044
16:57:24:172,-0.3087,4.8921,9.2638,42.0665,-0.0341,-0.7204,-0.7454,0.0488
16:57:24:191,0.0156,5.2223,9.1011,41.9695,-0.0625,-0.6556,-0.783,0.0528
16:57:24:211,-0.0802,5.3073,9.4397,42.0273,-0.0231,-0.7188,-0.8709,0.057
16:57:24:231,-0.3206,5.074,9.5222,42.1713,0.1067,-0.8047,-0.9241,0.0621
16:57:24:250,-0.4953,5.0357,9.3188,42.2478,0.199,-0.8728,-0.9372,0.068
16:57:24:270,-0.536,5.0931,9.2255,42.4698,0.1691,-0.8737,-0.9421,0.074
16:57:24:290,-0.6497,5.1757,9.4217,42.515,0.1431,-0.8187,-0.9708,0.0794
16:57:24:310,-0.9846,5.2546,9.5342,42.5249,0.2011,-0.8114,-0.9995,0.0847
16:57:24:332,-1.2538,5.2271,9.2794,42.3111,0.2479,-0.7943,-1.0111,0.0948
16:57:24:351,-1.401,5.0776,9.0963,42.3021,0.2008,-0.7576,-1.0105,0.099
16:57:24:370,-1.5338,4.9436,9.1478,42.291,0.137,-0.6923,-0.9711,0.1024
16:57:24:390,-1.541,4.8371,9.0664,42.2265,0.1385,-0.6709,-0.9048,0.106
16:57:24:410,-1.4836,4.6923,8.8798,42.0741,0.1581,-0.6776,-0.8242,0.1096
16:57:24:431,-1.4309,4.6253,8.5914,41.9516,0.1269,-0.6764,-0.7204,0.1133
16:57:24:451,-1.2873,4.6493,8.5651,42.0015,0.0487,-0.6571,-0.6135,0.1166
16:57:24:472,-0.5755,4.7892,8.8271,41.9376,0.013,-0.6342,-0.4403,0.1204
16:57:24:490,-0.2225,4.7569,8.9815,42.1714,0.0735,-0.5118,-0.4143,0.1239
16:57:24:510,-0.1591,4.7354,8.3426,42.0719,0.1935,-0.4226,-0.4265,0.1269
16:57:24:530,-0.0431,4.7593,7.6068,42.0671,0.224,-0.4165,-0.4357,0.1301
16:57:24:549,0.2393,4.7067,7.1665,42.1107,0.1486,-0.3948,-0.4571,0.1334
16:57:24:569,0.2835,4.6074,7.0469,42.0737,0.0509,-0.4064,-0.4916,0.1362
16:57:24:591,0.2106,4.2544,7.3711,42.1222,-0.0115,-0.4717,-0.476,0.1421
16:57:24:610,0.4786,4.0451,7.8903,41.7434,-0.0075,-0.487,-0.3923,0.1452
16:57:24:629,1.0134,4.1348,8.205,41.2724,0.0637,-0.4827,-0.3169,0.149
16:57:24:649,1.456,4.5236,8.0842,40.4867,0.1465,-0.495,-0.2863,0.153
16:57:24:669,1.7097,4.8455,7.5147,40.0247,0.1165,-0.4073,-0.2909,0.1561
16:57:24:689,1.6654,5.2247,6.9332,39.5292,-0.0435,-0.3566,-0.3059,0.1585
16:57:24:710,1.7635,5.4544,7.1701,39.1136,-0.2677,-0.3777,-0.2983,0.1601
16:57:24:731,2.4514,5.7763,8.5603,38.5866,-0.4598,-0.41,-0.3322,0.1615
16:57:24:750,2.4706,5.8684,9.1514,38.0191,-0.378,-0.4745,-0.3868,0.1632
16:57:24:769,2.2995,5.9163,9.3488,37.2041,-0.2411,-0.487,-0.4433,0.1657
16:57:24:789,2.1511,5.9115,9.1322,36.6627,-0.1138,-0.4788,-0.4925,0.1687
16:57:24:809,1.8628,5.6614,8.8487,36.3817,-0.016,-0.4284,-0.5612,0.1718
16:57:24:829,1.328,5.4114,8.2863,35.8869,0.0643,-0.3123,-0.5948,0.1745
16:57:24:850,0.9763,5.2618,7.3854,35.3691,0.1376,-0.2225,-0.5918,0.1783
16:57:24:870,0.6951,5.123,6.5216,34.618,0.1636,-0.2259,-0.6052,0.1801
16:57:24:889,0.5731,4.8897,5.9761,34.6495,0.0997,-0.1969,-0.6012,0.181
16:57:24:909,0.3817,4.8215,5.6961,34.6185,-0.0319,-0.1599,-0.568,0.1811
16:57:24:929,0.2548,5.0166,5.7476,34.3088,-0.1834,-0.1629,-0.4809,0.1807
16:57:24:949,0.5743,5.3228,6.3494,34.748,-0.3086,-0.1712,-0.3694,0.18
16:57:24:969,0.9428,5.7045,7.0516,35.1265,-0.3532,-0.1651,-0.3077,0.1795
16:57:24:991,1.0732,6.1017,7.5948,35.4738,-0.3254,-0.1816,-0.2793,0.1794
16:57:25:009,1.1067,6.7226,8.4514,35.9077,-0.2802,-0.1193,-0.2876,0.1791
16:57:25:029,1.1019,6.7717,9.0006,36.5182,-0.217,-0.0689,-0.3606,0.1787
16:57:25:049,0.9356,6.4487,9.3631,36.3456,-0.0854,0.0322,-0.4516,0.1781
16:57:25:069,0.5695,6.0239,9.1179,36.192,0.0661,0.1446,-0.5252,0.1772
16:57:25:089,0.1555,5.5394,8.8104,37.0774,0.1538,0.2228,-0.5469,0.1761
16:57:25:110,-0.0945,5.2152,8.467,36.9707,0.1608,0.3407,-0.4956,0.1717
16:57:25:131,-0.1077,5.2738,8.3713,36.9268,0.0817,0.4375,-0.3758,0.1681
16:57:25:150,0.2608,5.7033,8.8367,37.2131,0.0179,0.4876,-0.2127,0.1648
16:57:25:169,0.7777,6.3733,9.0628,37.5052,0.0851,0.4556,-0.1009,0.1632
16:57:25:189,1.2491,7.1198,9.0281,37.6672,0.1969,0.2747,-0.1257,0.1638
16:57:25:209,1.0995,7.3196,9.4576,37.844,0.2023,0.0289,-0.2863,0.1657
16:57:25:229,0.3864,6.6879,10.3322,37.8354,0.1394,-0.1889,-0.422,0.1681
16:57:25:251,-0.0694,5.6734,11.2044,37.5629,0.0652,-0.3621,-0.3899,0.17
16:57:25:270,0.3242,4.5332,12.9332,37.8084,-0.0515,0.141,-0.0698,0.1691
16:57:25:289,0.6843,4.5236,11.6016,37.9171,0.3954,0.378,0.1364,0.1671
16:57:25:310,1.2491,5.2331,9.0975,37.3869,0.8422,0.1727,0.1003,0.1682
16:57:25:329,0.9176,5.214,7.5541,36.3896,0.8523,-0.0518,-0.1614,0.1731
16:57:25:349,0.1304,4.6098,7.0505,35.3216,0.5701,0.0377,-0.3713,0.1774
16:57:25:371,-0.731,3.9254,6.6927,35.1778,0.2973,0.2234,-0.5258,0.1763
16:57:25:391,-1.6343,3.3308,6.2919,35.1382,0.1135,0.2008,-0.6388,0.1739
16:57:25:410,-2.3019,2.6393,6.3075,35.6609,-0.079,-0.0145,-0.6745,0.1713
16:57:25:430,-2.412,2.1763,6.9823,35.6365,-0.334,-0.1691,-0.6132,0.1675
16:57:25:450,-2.0554,1.9801,7.8808,35.7335,-0.5844,-0.1446,-0.5075,0.162
16:57:25:470,-1.5482,2.0279,8.8857,35.8724,-0.7103,-0.0237,-0.3911,0.1556
16:57:25:489,-0.9835,2.2935,9.216,36.3872,-0.692,0.0933,-0.2634,0.1494
16:57:25:511,0.3637,3.4792,9.8596,37.2446,-0.6742,0.0661,-0.1373,0.1444
16:57:25:530,0.9751,3.746,10.6421,37.6059,-0.677,-0.0392,-0.0646,0.1406
16:57:25:550,1.4489,4.1133,10.946,37.5821,-0.2998,-0.1119,-0.0386,0.1385
16:57:25:571,1.279,4.465,10.319,37.3796,0.0451,-0.1501,-0.1483,0.1385
16:57:25:590,0.6485,4.5033,9.1956,37.4525,0.2876,-0.2262,-0.2876,0.1407
16:57:25:609,-0.061,4.1755,8.1811,37.2965,0.338,-0.2772,-0.4091,0.144
16:57:25:631,-0.8794,3.8046,7.4967,37.5847,0.2836,-0.3147,-0.4977,0.1497
16:57:25:651,-1.6355,3.4971,7.054,37.7442,0.1184,-0.3499,-0.5252,0.1508
16:57:25:670,-1.9753,3.2351,7.3029,37.8311,-0.1526,-0.3545,-0.4895,0.1501
16:57:25:690,-1.9669,3.2004,8.3151,37.852,-0.3633,-0.363,-0.4446,0.1487
16:57:25:711,-1.6319,3.253,9.4445,38.0628,-0.3819,-0.3575,-0.4198,0.1473
16:57:25:731,-1.1773,3.3775,10.0128,38.2047,-0.283,-0.2711,-0.403,0.1458
16:57:25:750,-0.9559,3.7041,9.9374,38.0679,-0.1804,-0.1342,-0.3899,0.1444
16:57:25:771,-0.9368,3.9924,9.4624,37.9089,-0.1058,-0.0881,-0.3642,0.1437
16:57:25:790,-0.8937,4.2425,9.0784,37.7891,-0.0438,-0.1587,-0.316,0.1442
16:57:25:810,-0.2572,4.9555,9.1023,37.7268,-0.1474,-0.2833,-0.2195,0.1449
16:57:25:830,0.1041,5.281,9.7029,37.6863,-0.225,-0.2723,-0.2289,0.1451
16:57:25:849,0.0885,5.4688,10.4518,37.5024,-0.14,-0.3111,-0.3294,0.1454
16:57:25:870,-0.3577,5.2499,10.8622,37.5452,0.1031,-0.3829,-0.4455,0.1471
16:57:25:890,-1.0229,4.7414,10.6648,37.343,0.3654,-0.4345,-0.5176,0.1506
16:57:25:913,-1.5541,4.2592,9.9972,37.3953,0.5194,-0.4024,-0.4974,0.16
16:57:25:930,-1.7934,4.0582,9.2016,37.4865,0.5368,-0.3444,-0.4275,0.164
16:57:25:949,-1.6869,4.0522,8.8846,37.3345,0.4467,-0.2436,-0.3328,0.1668
16:57:25:970,-1.4967,4.1204,8.5663,37.2579,0.4195,-0.1162,-0.2619,0.1699
16:57:25:990,-1.4261,4.4112,8.1823,37.5757,0.4833,-0.1807,-0.2133,0.1744
16:57:26:010,-1.1952,4.7581,8.0363,37.6427,0.5475,-0.3312,-0.1742,0.1802
16:57:26:032,-0.9655,5.1613,7.87,37.6564,0.4986,-0.3822,-0.2036,0.1858
16:57:26:054,-1.1258,5.3109,7.4931,37.7603,0.3749,-0.3963,-0.2091,0.1909
16:57:26:069,-1.3603,5.5693,7.5087,37.5704,0.1507,-0.4436,-0.188,0.1951
16:57:26:089,-1.0863,5.3432,8.0614,37.3583,-0.1532,-0.4378,-0.1061,0.1976
16:57:26:109,-0.6114,5.1721,8.9456,37.493,-0.4314,-0.2848,0.0182,0.1978
16:57:26:130,-0.2907,5.3695,9.9027,37.599,-0.4675,-0.1187,0.1019,0.1958
16:57:26:150,-0.1651,5.5741,9.7627,37.4146,-0.1697,-0.0396,0.0927,0.194
16:57:26:172,-0.5695,5.3037,8.5651,37.6242,0.1901,-0.1779,0.0289,0.1987
16:57:26:190,-1.0146,4.8802,7.7492,37.6751,0.3215,-0.4192,0.0191,0.2036
16:57:26:210,-1.054,4.55,7.9035,37.478,0.2298,-0.458,0.086,0.2072
16:57:26:230,-0.7573,4.4279,8.2098,37.501,0.1049,-0.3529,0.1477,0.2094
16:57:26:250,-0.2692,4.3286,8.5137,37.6685,0.0429,-0.2133,0.1758,0.2104
16:57:26:270,0.1819,4.2724,8.4706,37.944,0.0338,-0.0267,0.1633,0.2106
16:57:26:292,0.1771,4.2652,7.4154,37.8908,0.0496,0.0958,0.1202,0.2104
16:57:26:312,0.2656,4.4578,7.4309,37.8513,-0.031,-0.0206,0.1883,0.2107
16:57:26:330,0.7932,4.6469,7.7958,37.6679,-0.1419,-0.0576,0.2668,0.2109
16:57:26:349,1.3531,4.8909,8.1188,37.47,-0.2625,-0.0646,0.308,0.2103
16:57:26:369,1.7946,5.0572,8.5352,37.0085,-0.3514,-0.0444,0.2952,0.2093
16:57:26:389,1.9322,5.1458,8.9097,36.6323,-0.3563,-0.0634,0.2421,0.2078
16:57:26:409,1.6869,5.2235,9.204,35.9972,-0.1965,-0.1629,0.1678,0.2071
16:57:26:431,1.2981,4.9424,8.9958,35.7633,0.0176,-0.2512,0.1046,0.2107
16:57:26:450,0.9105,4.6373,8.3498,35.7192,0.1177,-0.2433,0.0835,0.213
16:57:26:470,0.652,4.5464,7.9071,35.5368,0.0799,-0.1978,0.0887,0.2143
16:57:26:489,0.5767,4.4291,7.6511,35.2632,-0.0099,-0.1275,0.1055,0.2148
16:57:26:510,0.5958,4.4291,7.4178,35.2235,-0.0961,-0.1034,0.1312,0.2148
16:57:26:530,0.7573,4.5069,7.5697,35.7538,-0.181,-0.159,0.1849,0.2147
16:57:26:551,1.3842,4.7533,8.1739,36.082,-0.2619,-0.1611,0.2552,0.214
16:57:26:571,2.1176,5.0991,9.0066,36.6744,-0.2937,-0.0954,0.2567,0.2132
16:57:26:589,2.1476,5.1805,8.8331,36.7663,-0.1101,-0.0603,0.2097,0.213
16:57:26:613,2.0136,5.3073,8.2696,36.8259,-0.0622,-0.0701,0.2188,0.2134
16:57:26:630,2.0554,5.4724,7.7504,36.7711,-0.1138,-0.0909,0.2405,0.2139
16:57:26:649,2.1691,5.6064,7.6235,36.9465,-0.228,-0.1358,0.2198,0.2141
16:57:26:670,2.132,5.5095,8.1045,36.9802,-0.3096,-0.1755,0.1547,0.2139
16:57:26:691,1.9813,5.2762,8.6297,36.9622,-0.2747,-0.155,0.0838,0.2133
16:57:26:710,1.6834,5.0429,8.5974,37.1119,-0.1544,-0.1016,0.0344,0.2134
16:57:26:730,1.4142,4.8814,8.1799,37.0125,-0.0432,-0.0747,0.0221,0.214
16:57:26:750,1.3352,4.7043,7.8293,36.8967,0.0066,-0.0701,0.0399,0.2146
16:57:26:771,1.5577,4.5799,7.5613,36.727,-0.0243,-0.0322,0.0777,0.2144
16:57:26:791,1.8437,4.66,7.401,36.7588,-0.1303,0.0677,0.1058,0.2127
16:57:26:812,2.2947,5.0201,7.4656,36.4801,-0.3276,0.2323,0.1184,0.2098
16:57:26:830,2.4574,5.2415,7.614,36.1973,-0.3031,0.1715,0.1089,0.2068
16:57:26:850,2.5232,5.5657,7.8054,36.1377,-0.2027,0.0136,0.0735,0.2051
16:57:26:871,2.4957,5.6985,8.083,36.0621,-0.1046,-0.1101,0.0047,0.2051
16:57:26:890,2.266,5.6626,8.2708,36.0571,-0.0664,-0.0447,-0.0612,0.2058
16:57:26:910,1.9968,5.6207,8.0207,36.0043,-0.1025,0.1165,-0.1013,0.2055
16:57:26:930,1.6606,5.6076,7.8748,35.9978,-0.1703,0.2308,-0.1407,0.2039
16:57:26:951,1.334,5.4748,7.9657,35.865,-0.1944,0.2289,-0.1889,0.1997
16:57:26:970,1.1713,5.4006,8.4,35.8318,-0.1104,0.137,-0.2393,0.1989
16:57:26:991,1.0708,5.2199,8.7242,36.2779,0.0166,0.0845,-0.2854,0.1989
16:57:27:010,1.0481,5.0895,8.9061,36.2738,0.1361,0.1251,-0.2711,0.1991
16:57:27:030,1.1593,5.1494,8.735,36.1106,0.1944,0.2066,-0.2256,0.1989
16:57:27:050,1.4859,5.2965,8.6118,36.0611,0.1761,0.3105,-0.1636,0.1982
16:57:27:072,1.7719,5.5681,8.6046,36.0231,0.1776,0.3822,-0.1309,0.1975
16:57:27:092,1.7216,6.0227,8.217,35.7634,0.3526,0.3835,-0.1926,0.1975
16:57:27:110,1.675,6.4427,8.1069,35.9583,0.436,0.3456,-0.2286,0.1983
16:57:27:130,1.6869,6.8411,8.2804,36.1389,0.5163,0.3184,-0.3196,0.1997
16:57:27:151,1.2239,7.0923,7.7695,35.9988,0.5692,0.2023,-0.4928,0.2021
16:57:27:170,0.4211,6.7549,7.5482,35.9954,0.3477,-0.0032,-0.6684,0.2049
16:57:27:190,-0.4283,5.8696,8.7111,36.027,-0.1254,-0.1614,-0.7494,0.206
16:57:27:211,-0.8949,4.9496,10.739,36.0393,-0.4751,-0.1981,-0.6571,0.2008
16:57:27:230,-0.5264,4.2784,12.6521,35.9979,-0.4934,-0.1107,-0.4268,0.1975
16:57:27:250,0.0502,4.118,13.742,36.0905,-0.1865,0.1333,-0.1504,0.1957
16:57:27:270,0.7884,4.7091,12.4068,36.2653,0.2802,0.3624,0.0771,0.1966
16:57:27:291,1.3807,5.7547,9.862,36.3007,0.5402,0.2317,0.1315,0.2
16:57:27:310,1.6092,6.3147,8.4048,36.2123,0.3942,-0.0509,0.053,0.2026
16:57:27:332,1.59,5.9725,8.0399,36.201,-0.3514,0.1749,-0.2955,0.2013
16:57:27:351,-0.5001,4.6301,8.3856,36.3313,-0.3807,0.3028,-0.5634,0.1967
16:57:27:370,-1.8221,4.0164,8.3055,36.3685,-0.0878,0.1703,-0.8007,0.1926
16:57:27:390,-2.9683,2.3222,7.8401,36.5077,0.3117,-0.0301,-1.0001,0.1915
16:57:27:410,-3.8752,0.8411,7.6678,36.8121,0.6309,-0.056,-0.7982,0.1935
16:57:27:430,-4.3837,0.5444,6.9165,36.7751,0.6556,0.0603,-0.3386,0.1964
16:57:27:451,-4.4483,1.5613,6.2764,36.7741,0.1629,-0.0811,0.1755,0.1983
16:57:27:472,-2.9264,2.1799,7.6164,36.9504,-0.3175,0.0551,0.6147,0.1934
16:57:27:491,-1.2168,2.7625,9.003,37.2724,-0.4479,0.3496,0.8563,0.1887
16:57:27:510,0.0024,3.7184,8.9898,37.3053,-0.2317,0.5912,0.9699,0.1858
16:57:27:530,0.5073,4.7545,7.8987,37.1773,0.1413,0.6028,0.9806,0.187
16:57:27:550,0.3709,5.4497,6.5994,37.2209,0.4861,0.2127,0.9384,0.1934
16:57:27:570,0.3745,5.9521,5.5908,36.9831,0.6367,-0.4461,0.8789,0.2032
16:57:27:592,0.7394,6.3266,6.5264,36.7752,-0.1914,-0.6623,0.5545,0.2105
16:57:27:614,0.5719,5.9186,8.1559,36.8219,-0.6355,-0.0451,0.3538,0.2109
16:57:27:638,-0.0514,5.3276,8.7171,36.8139,-0.6547,0.3352,0.2204,0.2057
16:57:27:649,-0.6449,5.1996,8.4491,35.7762,-0.4134,0.2619,0.188,0.2005
16:57:27:669,-0.6269,5.2822,8.1141,35.8121,-0.2045,0.0451,0.199,0.1978
16:57:27:689,-0.3781,5.336,8.0985,35.7259,-0.1471,-0.0866,0.1901,0.1972
16:57:27:710,-0.1627,5.2666,8.5304,35.4477,-0.181,-0.0444,0.2033,0.197
16:57:27:731,-0.0239,5.2522,8.9587,35.7473,-0.1486,0.1642,0.2356,0.1941
16:57:27:751,0.1651,5.4832,8.9157,35.765,0.0066,0.3297,0.2747,0.1933
16:57:27:770,0.2154,5.9665,8.4694,35.9245,0.2381,0.2619,0.2512,0.1951
16:57:27:790,0.061,6.2189,8.2636,35.685,0.4568,0.0841,0.1642,0.1988
16:57:27:811,-0.4965,6.3517,7.7157,36.5174,0.5884,0.1184,0.0591,0.2017
16:57:27:830,-1.3603,6.2524,6.5623,36.6195,0.5151,0.2375,-0.0307,0.2034
16:57:27:850,-1.9705,5.8528,5.5693,37.1469,0.2479,0.002,0.0053,0.2058
16:57:27:871,-1.791,5.8146,6.8542,37.3231,-0.4033,-1.0347,0.5191,0.2097
16:57:27:891,1.3412,7.1868,13.2634,37.1436,-0.2909,-0.9198,0.7317,0.2141
16:57:27:910,3.0891,8.0901,13.4871,37.4023,0.0909,-0.5854,0.7588,0.2188
16:57:27:929,3.9745,9.0078,12.2357,37.055,0.3187,-0.4717,0.535,0.2243
16:57:27:949,4.0762,9.2638,11.86,37.4328,0.2662,-0.6,0.1752,0.2305
16:57:27:970,3.7089,8.3186,12.8997,37.7094,0.206,-0.7225,-0.2191,0.2368
16:57:27:991,3.2387,6.597,13.5733,37.47,0.3468,-0.6724,-0.5154,0.2489
16:57:28:011,2.8798,4.6552,13.2132,37.2994,0.6012,-0.487,-0.6706,0.2546
16:57:28:030,2.4323,3.0808,11.8887,37.461,0.8489,-0.1859,-0.7011,0.2595
16:57:28:051,1.7731,2.2756,10.0116,37.6978,1.0887,0.1828,-0.6599,0.2639
16:57:28:070,1.1605,2.0758,7.3866,37.6996,1.2949,0.4522,-0.5973,0.2683
16:57:28:090,0.5862,2.126,4.6983,37.9591,1.2747,0.4348,-0.5261,0.273
16:57:28:109,0.2154,2.4132,3.3835,37.5598,0.9641,0.1691,-0.4119,0.277
16:57:28:132,0.1579,2.7171,4.4315,37.1376,0.0979,-0.0102,-0.2005,0.2788
16:57:28:149,0.2512,3.1418,5.1111,37.0843,-0.2231,0.14,-0.0609,0.2776
16:57:28:169,0.5121,3.7244,5.7906,36.9446,-0.3844,0.2433,0.0909,0.2741
16:57:28:189,0.9452,4.1791,6.1196,36.7204,-0.3322,0.275,0.1877,0.2701
16:57:28:209,1.2275,4.6899,5.9665,36.2716,-0.1645,0.2622,0.2051,0.2671
16:57:28:229,1.3328,5.1446,5.4604,36.1529,-0.016,0.261,0.1706,0.2654
16:57:28:250,1.1916,5.5633,4.8838,35.9743,0.038,0.2546,0.1119,0.2638
16:57:28:270,0.9464,5.9653,4.5344,36.4099,-0.0246,0.2347,0.0649,0.2623
16:57:28:289,0.9787,6.2213,4.7498,36.4673,-0.1975,0.2323,0.0301,0.2596
16:57:28:311,1.1773,6.4367,5.5741,36.1927,-0.3651,0.2289,-0.035,0.256
16:57:28:329,0.9978,6.451,6.4893,35.956,-0.3972,0.2051,-0.1196,0.2528
16:57:28:349,0.6604,6.4463,7.1246,36.2586,-0.3199,0.1767,-0.1504,0.2499
16:57:28:369,0.3182,6.3649,7.4668,36.0814,-0.2585,0.1978,-0.1095,0.2471
16:57:28:390,0.2572,6.4307,7.7001,35.9623,-0.2259,0.2271,-0.0243,0.2446
16:57:28:409,0.9954,6.6305,9.1561,35.6106,-0.0548,0.0667,0.1058,0.2433
16:57:28:429,1.4094,6.7442,10.1133,35.1728,0.1428,0.0728,0.0909,0.2436
16:57:28:449,1.4297,6.7023,10.0199,35.5422,0.3819,0.2906,-0.0139,0.2445
16:57:28:469,0.7729,6.4307,9.1262,36.2642,0.5548,0.484,-0.1333,0.2452
16:57:28:489,0.1328,6.2847,8.0997,36.9375,0.5985,0.5237,-0.1,0.2459
16:57:28:511,0.6162,6.5707,7.803,37.193,0.4516,0.4592,0.093,0.2463
16:57:28:530,1.4692,7.4465,8.7793,37.8993,0.2509,0.6015,0.2894,0.2443
16:57:28:559,1.8377,9.0556,9.2112,38.3015,0.2408,0.8544,0.3325,0.2419
16:57:28:570,1.5601,9.9218,8.3139,38.7928,0.3083,0.794,0.1474,0.2408
16:57:28:589,0.7609,9.7412,7.7396,39.0601,0.1318,0.2686,-0.1642,0.2412
16:57:28:609,-0.1101,8.4156,9.4804,39.0859,-0.1736,-0.2778,-0.3322,0.2415
16:57:28:630,-0.3529,7.0205,11.4138,39.1156,-0.2051,-0.2479,-0.2567,0.2408
16:57:28:652,-0.8997,6.4199,11.2977,39.2169,0.1132,0.1532,-0.1742,0.24
16:57:28:670,-1.8221,6.2656,9.1693,39.0939,0.4696,0.4348,-0.232,0.2397
16:57:28:690,-3.9254,4.8479,5.4748,39.3871,0.3123,0.1358,-0.3838,0.2398
16:57:28:710,-3.6873,3.9015,5.4497,39.6389,-0.0799,-0.191,-0.2375,0.2396
16:57:28:730,-2.5304,3.46,6.7669,39.7795,-0.4235,-0.3636,-0.0799,0.2388
16:57:28:750,-1.3161,3.3583,7.9274,40.1557,-0.6318,-0.2082,0.0069,0.2363
16:57:28:771,-0.6365,3.3464,8.2923,40.5028,-0.702,0.1602,0.0823,0.2248
16:57:28:791,-0.5492,3.5067,7.9095,40.9018,-0.6242,0.4073,0.2188,0.2191
16:57:28:809,-0.4714,3.8883,7.3089,41.1134,-0.4024,0.2943,0.4323,0.2174
16:57:28:830,0.1304,4.4877,6.9464,41.4949,-0.1239,-0.0777,0.6379,0.2203
16:57:28:850,1.0062,5.2367,6.652,41.5661,0.1269,-0.4064,0.7127,0.2259
16:57:28:871,1.5458,5.9976,6.2381,41.8072,0.104,-0.5286,0.6211,0.2297
16:57:28:890,1.6379,6.3541,6.1962,42.3039,-0.1584,-0.2304,0.4015,0.2295
16:57:28:912,-0.2895,5.6507,6.3972,42.2832,-0.2271,-0.1394,-0.1501,0.2284
16:57:28:930,-1.1821,5.1398,6.6736,42.1661,-0.064,-0.3273,-0.2607,0.2288
16:57:28:954,-1.6522,4.7665,6.5743,41.997,0.0151,-0.3685,-0.2482,0.2305
16:57:28:969,-1.6307,4.6469,6.4223,41.4682,-0.1364,-0.2805,-0.1254,0.2317
16:57:28:989,-1.267,4.7318,7.0528,41.0414,-0.392,-0.0896,0.0475,0.2307
16:57:29:010,-0.8495,5.1697,8.0327,40.8151,-0.4357,0.0505,0.2237,0.2278
16:57:29:031,-0.2465,6.0622,8.6608,40.5474,-0.1486,0.0084,0.3355,0.2272
16:57:29:051,0.3769,7.0193,8.7482,40.6625,0.3618,-0.2384,0.2934,0.2339
16:57:29:071,0.7705,7.7312,8.5424,41.0791,0.8337,-0.5499,0.1242,0.2444
16:57:29:091,0.9033,8.5926,8.0219,41.4101,0.8825,-0.7112,-0.0646,0.252
16:57:29:109,0.3218,8.68,7.5458,41.5697,0.3706,-0.254,-0.3441,0.252
16:57:29:130,-1.1509,7.9729,7.5601,41.8979,-0.3019,0.0652,-0.4629,0.2479
16:57:29:153,-1.4752,7.6295,9.1083,42.1652,-0.7075,-0.0686,-0.1938,0.2445
16:57:29:171,2.7362,8.1571,13.2215,42.4411,-0.7048,-0.5096,0.1642,0.2452
16:57:29:192,4.3992,8.4215,14.7518,42.1746,-0.1978,-0.6837,0.2143,0.2484
16:57:29:209,4.5523,8.1129,13.663,41.3353,0.177,-0.1593,-0.0869,0.251
16:57:29:229,2.9827,6.9212,11.1446,40.7827,0.433,-0.1633,-0.4904,0.2532
16:57:29:249,1.3974,5.0584,10.3717,39.7172,0.4965,-0.6342,-0.7115,0.2579
16:57:29:269,0.9703,3.1884,10.4112,39.0979,0.556,-0.7726,-0.6831,0.2645
16:57:29:290,1.0768,2.0853,10.0211,38.0157,0.6849,-0.4678,-0.5145,0.2757
16:57:29:310,1.5099,1.9825,8.6836,38.3385,0.8541,-0.038,-0.3059,0.2797
16:57:29:329,1.9777,2.6836,6.8112,38.4243,0.9216,0.2824,-0.1898,0.2827
16:57:29:349,2.0171,3.4792,4.8347,39.0045,0.8352,0.4342,-0.1993,0.2846
16:57:29:369,1.5446,4.1791,3.35,39.8921,0.5997,0.3789,-0.2567,0.2858
16:57:29:390,1.066,4.8168,2.918,40.4674,0.2778,0.0832,-0.3089,0.287
16:57:29:410,0.9858,5.0034,3.8836,41.6362,-0.0283,-0.2427,-0.3664,0.2875
16:57:29:431,1.0612,4.6684,5.0716,42.2162,-0.1727,-0.2366,-0.4226,0.2865
16:57:29:450,0.5097,4.9974,5.1888,43.9809,-0.1431,0.0909,-0.3395,0.2848
16:57:29:469,0.5336,5.4784,5.1697,43.8447,-0.151,0.1749,-0.3239,0.2825
16:57:29:489,0.4235,5.7894,5.464,44.0857,-0.1541,0.2069,-0.3703,0.2799
16:57:29:510,0.0491,6.0287,5.8564,44.4208,-0.1248,0.2213,-0.4381,0.2772
16:57:29:530,-0.3553,5.9677,6.0993,44.6115,-0.0903,0.2338,-0.4867,0.2746
16:57:29:549,-0.5336,5.7655,6.5563,44.8856,-0.0759,0.3059,-0.4384,0.2718
16:57:29:571,-0.457,5.7595,6.9332,45.0748,-0.0118,0.4638,-0.2934,0.2655
16:57:29:590,-0.2764,6.1388,6.7454,45.4913,0.0542,0.6119,-0.1025,0.2625
16:57:29:610,0.0275,6.8148,6.5815,46.0213,0.078,0.6495,0.0921,0.26
16:57:29:630,0.4283,7.4716,6.7226,46.2841,0.1,0.6309,0.21,0.2583
16:57:29:650,0.7956,7.7312,6.8016,46.6786,0.1388,0.6074,0.2161,0.2568
16:57:29:670,0.8064,7.7886,7.1414,46.7546,0.155,0.6275,0.1147,0.255
16:57:29:691,0.6939,7.7839,7.7169,46.511,0.2256,0.6981,-0.0499,0.2529
16:57:29:710,-0.2644,7.9645,7.48,46.5933,0.3551,0.7588,-0.2524,0.2512
16:57:29:730,-2.7135,7.9597,8.2768,46.6168,0.1535,0.2042,-0.2454,0.2505
16:57:29:749,-2.2457,7.7432,10.1372,46.8403,-0.0203,0.2546,0.013,0.2496
16:57:29:770,-1.2933,8.4347,10.8945,46.5731,-0.0664,0.5365,0.2317,0.247
16:57:29:789,-1.1402,8.8846,10.9448,47.1865,-0.0466,0.6581,0.2017,0.2435
16:57:29:810,-1.736,8.4826,11.3623,47.2846,-0.0041,0.6083,0.21,0.24
16:57:29:831,-1.791,7.9095,11.0453,47.6647,0.1281,0.5796,0.4018,0.2368
16:57:29:850,-1.882,7.5123,9.6526,48.2446,0.25,0.4061,0.5606,0.2384
16:57:29:879,-1.9454,7.0433,8.9192,48.5902,0.2735,0.0863,0.6461,0.2415
16:57:29:890,-1.346,6.5922,8.7099,48.5625,0.2961,0.0441,0.6064,0.2439
16:57:29:909,-1.517,5.9749,7.6367,48.0429,0.3636,0.2082,0.3945,0.2452
16:57:29:929,-2.2564,5.0536,6.335,47.0024,0.3722,0.2628,0.2253,0.2463
16:57:29:950,-2.7123,4.7139,5.8744,46.6833,0.2485,0.1532,0.2152,0.2468
16:57:29:970,-1.9825,4.4375,6.5743,46.7366,-0.2757,0.1675,0.3062,0.2456
16:57:29:989,-1.7683,4.142,7.1605,46.4421,-0.4125,0.3642,0.3428,0.2421
16:57:30:009,-1.3543,4.3825,7.3854,46.6834,-0.3685,0.5463,0.505,0.2373
16:57:30:033,-0.6951,5.0213,7.005,46.366,-0.1315,0.5597,0.6309,0.2331
16:57:30:049,-0.2776,5.5083,5.9294,46.7779,0.1144,0.3709,0.6697,0.2317
16:57:30:069,0.28,5.9007,5.1924,47.4284,0.1669,0.1132,0.6776,0.233
16:57:30:091,0.8303,6.3039,5.0524,48.7823,0.0628,-0.0405,0.5942,0.2376
16:57:30:109,0.9081,6.4343,5.1589,49.2289,-0.086,-0.0304,0.4213,0.238
16:57:30:129,0.4845,6.3912,5.0046,49.4484,-0.2112,0.0301,0.2396,0.2373
16:57:30:150,-0.1795,6.1591,4.9256,50.0896,-0.2683,-0.0619,0.1046,0.2372
16:57:30:170,-0.6903,5.9306,4.8861,50.2592,-0.2631,-0.2402,0.0463,0.2378
16:57:30:190,-0.8279,5.9761,4.8335,50.838,-0.3031,-0.3929,0.0399,0.2386
16:57:30:211,-0.7753,6.3314,5.4054,51.0621,-0.4488,-0.4907,0.0264,0.2387
16:57:30:231,-0.7729,6.5312,6.6485,51.4935,-0.5527,-0.3862,-0.0002,0.2379
16:57:30:255,-0.6329,7.1964,7.8951,51.8572,-0.4003,-0.3483,0.0035,0.237
16:57:30:269,-0.4786,7.4489,7.718,52.0912,-0.2472,-0.4479,0.0234,0.2374
16:57:30:289,-0.1615,7.5194,7.9825,52.1077,-0.1553,-0.5157,0.0115,0.2394
16:57:30:309,-0.073,7.7504,8.4921,52.3017,-0.0985,-0.4363,-0.0334,0.2417
16:57:30:329,-0.4965,8.0148,8.4168,52.3721,-0.0469,-0.3456,-0.1327,0.2435
16:57:30:350,-1.2431,7.7946,8.54,52.685,-0.0673,-0.378,-0.2179,0.2464
16:57:30:369,-1.4417,7.3926,9.0724,53.0922,-0.1599,-0.4363,-0.0863,0.2476
16:57:30:390,-0.6843,7.7755,10.2174,53.1611,-0.2531,-0.3844,0.225,0.2484
16:57:30:409,0.9141,8.6225,11.19,53.5718,-0.225,-0.2799,0.4516,0.2497
16:57:30:429,2.26,9.1753,11.5908,53.5679,-0.1055,-0.2292,0.4223,0.2516
16:57:30:449,2.7194,9.2172,11.2534,54.2188,0.0402,-0.1822,0.2311,0.254
16:57:30:471,2.3366,8.7673,10.3071,54.2603,0.1886,-0.5414,-0.3881,0.2574
16:57:30:490,0.1687,5.75,9.8572,54.5753,0.2017,-0.7286,-0.5805,0.2618
16:57:30:509,-0.1926,3.9601,9.7543,54.6721,0.2573,-0.6434,-0.5518,0.2661
16:57:30:529,-0.0945,3.0568,9.0018,54.79,0.2827,-0.3471,-0.3627,0.2694
16:57:30:549,0.5192,2.9276,7.8473,55.2484,0.2027,-0.0338,-0.1397,0.2707
16:57:30:569,1.3053,3.4086,6.9547,55.2324,0.0527,0.1929,0.0191,0.2701
16:57:30:590,2.0136,4.2126,6.4714,55.9151,-0.0176,0.297,0.0377,0.2683
16:57:30:611,2.1858,4.8682,5.3719,55.6962,0.0221,0.2341,-0.1095,0.2655
16:57:30:631,1.9478,5.0261,4.8,55.819,-0.0035,0.0292,-0.2888,0.2651
16:57:30:650,1.6678,4.9256,4.7031,56.1376,-0.0845,-0.0441,-0.389,0.264
16:57:30:671,1.5015,5.123,4.5272,56.128,-0.2085,0.0023,-0.4446,0.2612
16:57:30:690,1.3842,5.5573,4.2987,56.1679,-0.4165,0.0988,-0.5234,0.2562
16:57:30:710,0.9476,5.7583,4.6505,56.1902,-0.6251,0.1874,-0.629,0.25
16:57:30:731,0.3422,5.5837,5.6124,56.1853,-0.6403,0.1422,-0.706,0.2448
16:57:30:751,-0.1878,5.4054,6.3876,55.7926,-0.1877,-0.0582,-0.703,0.2418
16:57:30:770,-1.1354,5.275,6.5013,55.9125,-0.0826,-0.0185,-0.6058,0.24
16:57:30:790,-1.3998,5.3192,6.6784,55.9772,-0.0948,0.0451,-0.4415,0.2383
16:57:30:810,-1.3986,5.4066,7.2742,55.9679,-0.1174,0.1868,-0.2298,0.2361
16:57:30:830,-1.1474,5.6291,7.6869,56.3131,-0.0481,0.3209,0.0127,0.2336
16:57:30:852,-0.463,6.1795,7.7288,56.6198,0.0741,0.3905,0.2497,0.2317
16:57:30:871,0.4211,6.9404,7.6678,56.4435,0.1434,0.4265,0.3581,0.2304
16:57:30:891,0.5157,7.5948,7.8844,56.3828,0.1837,0.3768,0.2631,0.2307
16:57:30:910,-0.0467,7.5781,8.4586,56.2682,0.3031,0.3056,0.0845,0.232
16:57:30:930,-0.7848,7.2455,8.4993,56.4965,0.4901,0.3349,-0.0802,0.233
16:57:30:954,-1.6642,7.0385,8.0889,56.0701,0.4662,0.4919,-0.1376,0.2315
16:57:30:969,-1.7862,7.0445,7.9705,55.7311,0.1837,0.7643,0.0252,0.227
16:57:30:991,-1.2036,7.5577,8.4766,55.1159,-0.0945,0.8743,0.276,0.2223
16:57:31:011,-0.1029,9.0903,9.9087,54.7066,0.0362,0.2934,0.3138,0.2203
16:57:31:030,-0.7071,8.5268,10.4877,54.9477,0.0933,0.0063,0.1706,0.221
16:57:31:050,-1.0217,7.5829,11.0273,54.9285,0.0634,-0.0185,0.301,0.2224
16:57:31:069,-0.8028,7.3077,10.5858,55.1179,0.1046,0.0765,0.5188,0.2235
16:57:31:089,-0.5982,7.5841,9.6359,54.5726,0.1727,-0.0176,0.5692,0.2252
16:57:31:109,-0.7394,7.5912,9.1442,54.6351,0.2207,-0.0866,0.3807,0.228
16:57:31:130,-1.5398,6.6532,7.9717,54.6553,0.2808,0.0799,0.056,0.2302
16:57:31:151,-2.7565,5.549,6.4857,55.124,0.2775,0.1718,-0.1767,0.2308
16:57:31:170,-3.5174,4.5643,5.6997,55.3212,0.1987,0.0386,-0.2103,0.2312
16:57:31:190,-3.746,3.9541,5.659,55.1332,0.038,-0.1736,-0.1287,0.2313
16:57:31:210,-3.3667,3.6132,6.3123,55.0477,-0.199,-0.2417,0.0188,0.2299
16:57:31:231,-2.5878,3.4612,7.2634,55.2225,-0.4091,-0.0689,0.1846,0.2264
16:57:31:253,-1.809,3.5665,7.8281,55.7922,-0.4632,0.2567,0.3606,0.2213
16:57:31:271,-0.9846,4.0654,7.4919,56.3195,-0.396,0.5863,0.5371,0.2159
16:57:31:289,0.1161,5.586,5.6052,56.1859,-0.1425,0.589,0.6782,0.2119
16:57:31:309,0.6185,6.3637,5.1003,56.0672,-0.1223,0.2393,0.6306,0.2103
16:57:31:330,1.0397,6.8459,5.4879,55.8143,-0.1849,-0.0612,0.4391,0.2108
16:57:31:350,0.6951,6.5898,6.0682,55.7341,-0.2332,-0.1526,0.1333,0.2116
16:57:31:369,-0.3505,5.9139,6.28,56.0306,-0.2161,-0.1779,-0.0851,0.2118
16:57:31:390,-1.2383,5.4497,6.3194,55.8052,-0.1828,-0.2298,-0.133,0.2121
16:57:31:410,-1.7408,5.2905,6.2524,55.735,-0.206,-0.246,-0.0774,0.2118
16:57:31:430,-1.8616,5.3874,6.39,55.2714,-0.2931,-0.214,0.0206,0.211
16:57:31:449,-1.6917,5.6746,6.8722,55.2708,-0.3477,-0.2091,0.1278,0.2106
16:57:31:469,-1.328,6.0179,7.7061,55.1637,-0.2757,-0.2937,0.2054,0.2122
16:57:31:490,-0.4187,6.5695,8.9611,55.2659,-0.0328,-0.4607,0.2396,0.2167
16:57:31:511,0.7741,7.3747,10.3549,55.6014,0.3499,-0.5475,0.1174,0.223
16:57:31:532,0.7262,7.6487,10.7115,55.4497,0.724,-0.2866,-0.1654,0.2279
16:57:31:550,-1.3711,7.7946,6.329,55.4373,0.9461,0.2885,-0.3557,0.2296
16:57:31:569,-2.6991,7.9777,4.611,54.9202,0.593,0.3291,-0.4754,0.2299
16:57:31:589,-3.0042,8.0949,5.1123,55.0233,0.1162,-0.3374,-0.188,0.2316
16:57:31:610,-1.2849,8.3833,7.9837,55.429,-0.3713,-0.9106,0.1874,0.235
16:57:31:629,1.4907,8.8463,12.0574,55.4387,-0.6089,-1.0151,0.3587,0.2387
16:57:31:651,3.4241,9.2411,14.4251,55.4031,-0.3716,-0.6116,0.1892,0.2426
16:57:31:670,2.8403,9.204,12.9823,54.9272,0.0725,-0.2106,-0.2485,0.2443
16:57:31:690,0.7789,7.6666,10.5153,54.9431,0.2479,-0.3254,-0.6223,0.2471
16:57:31:711,-0.3721,5.537,10.1181,55.2905,0.1651,-0.5716,-0.6773,0.2496
16:57:31:731,-0.5671,3.8883,10.0786,55.8683,0.1208,-0.5087,-0.5621,0.2512
16:57:31:750,-0.7298,2.7661,9.5246,56.1242,0.2042,-0.3059,-0.3661,0.2528
16:57:31:770,-0.3996,2.2887,8.4491,55.7222,0.3257,-0.1348,-0.0588,0.2548
16:57:31:791,1.3101,3.8417,6.1711,55.6041,0.4278,0.1721,0.2998,0.2567
16:57:31:810,1.6343,4.6505,4.6923,55.5658,0.3227,0.155,0.1914,0.2584
16:57:31:829,1.6869,5.1529,4.1611,55.4882,0.0961,0.0115,0.0463,0.2597
16:57:31:849,1.6989,5.4293,4.471,55.147,-0.1281,-0.0738,-0.089,0.2603
16:57:31:869,1.5661,5.3946,4.8802,54.4275,-0.2665,-0.0435,-0.2164,0.2595
16:57:31:890,1.2084,5.3432,5.1506,53.8631,-0.3001,0.0102,-0.2778,0.2576
16:57:31:913,0.9631,5.6614,5.1912,53.5708,-0.2274,-0.006,-0.2976,0.2542
16:57:31:931,0.7645,6.0814,5.1697,53.8044,-0.148,-0.0661,-0.3508,0.2534
16:57:31:950,0.3757,6.3171,5.1924,53.7563,-0.1428,-0.0817,-0.4531,0.252
16:57:31:970,-0.3338,6.1543,5.4185,53.7554,-0.239,-0.0906,-0.5512,0.2496
16:57:31:990,-0.9093,5.7811,6.1137,53.5489,-0.3432,-0.0206,-0.5295,0.246
16:57:32:011,-1.1426,5.6219,6.6413,53.4884,-0.3719,0.1171,-0.4155,0.2418
16:57:32:030,-1.1725,5.6578,6.9739,53.711,-0.3364,0.2124,-0.2671,0.238
16:57:32:054,-1.1186,5.7153,7.1222,53.6978,-0.1248,0.2729,0.0823,0.235
16:57:32:069,-0.3135,6.2943,7.1043,53.5392,-0.0237,0.2381,0.2366,0.2333
16:57:32:089,0.3159,6.7884,7.4979,53.1061,0.024,0.1654,0.3276,0.2329
16:57:32:111,0.9332,7.1629,8.327,53.0513,0.0958,0.1364,0.3202,0.2334
16:57:32:129,1.0887,7.2849,8.674,52.5662,0.2683,0.184,0.1721,0.2344
16:57:32:151,0.3458,7.2239,8.278,52.5476,0.4467,0.2124,-0.0118,0.2361
16:57:32:171,-0.2656,7.0337,7.9717,52.0447,0.4275,0.1678,0.0176,0.2397
16:57:32:191,0.4175,7.6654,8.6692,51.7729,0.2167,0.224,0.2298,0.2395
16:57:32:211,1.0265,8.8917,9.5521,51.6566,0.0887,0.4137,0.323,0.2385
16:57:32:230,1.1916,9.8357,9.4696,51.2145,0.1681,0.4455,0.2552,0.2387
16:57:32:250,0.7023,10.0642,8.8738,50.8898,0.25,0.2436,0.0328,0.2399
16:57:32:270,-0.1627,9.0616,8.8056,50.7914,0.1403,-0.017,-0.1483,0.2408
16:57:32:290,-0.6808,8.0076,9.6024,50.7469,-0.0392,-0.0545,-0.122,0.24
16:57:32:312,-1.1163,7.1821,9.9924,50.6103,-0.0667,0.133,-0.0371,0.2386
16:57:32:330,-1.8796,6.5527,8.2588,50.8521,0.3297,0.0997,0.1315,0.239
16:57:32:349,-2.1823,6.4881,6.9643,50.8161,0.3581,0.0267,0.0206,0.241
16:57:32:370,-2.7613,5.988,6.2046,50.8567,0.1663,0.067,-0.1407,0.2421
16:57:32:390,-3.2267,5.2235,5.6782,50.8083,-0.0805,0.1095,-0.2246,0.2411
16:57:32:412,-3.5139,4.6493,5.7727,50.885,-0.2909,-0.0591,-0.2118,0.2362
16:57:32:432,-3.259,4.2389,6.3625,50.6537,-0.4748,-0.2366,-0.1135,0.2334
16:57:32:451,-2.4933,3.996,7.4201,50.3615,-0.6483,-0.2292,0.035,0.2293
16:57:32:470,-1.6965,3.941,8.546,50.1573,-0.6962,-0.0121,0.2008,0.2245
16:57:32:490,-0.9165,4.0881,8.9312,49.9594,-0.4956,0.2555,0.3981,0.2208
16:57:32:510,-0.2991,4.5906,8.1129,49.7457,-0.1688,0.3902,0.5786,0.2195
16:57:32:531,0.2776,5.2068,6.9715,49.2304,0.111,0.3034,0.699,0.2213
16:57:32:551,0.7597,5.7835,6.2536,49.1191,0.2732,0.046,0.702,0.2256
16:57:32:571,0.5707,6.2692,6.146,48.7503,0.3483,-0.184,0.5719,0.2307
16:57:32:590,-0.0658,6.1041,5.464,48.5228,0.3435,-0.0841,0.1468,0.235
16:57:32:610,-0.7633,5.878,4.7127,48.5928,0.1712,0.0377,0.0026,0.2372
16:57:32:630,-1.3866,5.7272,4.4913,48.3718,-0.0615,0.0298,-0.0475,0.2374
16:57:32:650,-1.6857,5.6351,4.9065,48.2049,-0.2747,-0.057,0.0005,0.2365
16:57:32:670,-1.4716,5.8756,5.866,47.902,-0.4177,-0.1516,0.1132,0.235
16:57:32:691,-0.9763,6.3673,7.127,47.8966,-0.3981,-0.1788,0.2112,0.2332
16:57:32:712,-0.6305,6.9284,7.5039,47.7601,-0.213,-0.1281,0.2598,0.234
16:57:32:730,-0.3984,7.4477,7.2323,47.941,-0.0194,-0.1779,0.2604,0.2365
16:57:32:750,-0.3661,7.6534,7.0014,47.568,0.0939,-0.3215,0.2097,0.2402
16:57:32:771,-0.4068,7.6176,7.078,47.1754,0.0964,-0.4333,0.1923,0.2439
16:57:32:789,-0.4391,7.8269,7.5051,46.7282,-0.0096,-0.425,0.1923,0.2464
16:57:32:809,-0.7466,7.7683,8.2684,46.5647,-0.1119,-0.3789,0.1636,0.2486
16:57:32:832,-0.9763,7.6259,9.0006,46.3947,-0.0948,-0.4568,0.2408,0.2521
16:57:32:850,-0.4499,7.9789,10.0965,45.8952,-0.0322,-0.5814,0.4669,0.2565
16:57:32:869,2.5986,9.3308,11.123,45.5666,-0.0279,-0.5026,0.6483,0.2609
16:57:32:889,3.4086,9.2507,11.5226,45.1767,0.0286,-0.3312,0.4204,0.2648
16:57:32:909,3.3272,8.6154,10.7378,44.8104,0.191,-0.1287,0.0811,0.2676
16:57:32:929,2.2229,7.5254,9.1214,44.5609,0.2964,-0.1226,-0.3147,0.2699
16:57:32:963,0.932,5.9163,8.5555,44.713,0.2692,-0.36,-0.5405,0.2724
16:57:32:970,0.4499,4.3238,8.5161,44.596,0.2763,-0.4852,-0.5826,0.2787
16:57:32:990,0.0778,3.1872,8.0877,44.5038,0.2796,-0.4155,-0.5392,0.2809
16:57:33:010,0.055,2.7864,7.3496,44.618,0.2103,-0.3117,-0.341,0.2823
16:57:33:031,0.9763,3.3559,6.8088,44.6474,0.0472,-0.235,-0.079,0.2825
16:57:33:050,1.9825,4.794,6.3912,44.6404,-0.1736,-0.1507,0.0023,0.2811
16:57:33:072,2.1117,5.9294,6.5839,44.8137,-0.48,0.0224,-0.3361,0.2781
16:57:33:091,1.5757,5.7607,6.6126,44.6814,-0.3838,0.0557,-0.4919,0.2744
16:57:33:111,0.8853,5.482,6.4857,44.6702,-0.2185,-0.0139,-0.5609,0.2716
16:57:33:129,0.4451,5.4126,6.0826,44.5809,-0.1141,-0.0267,-0.5417,0.2699
16:57:33:149,0.1603,5.5741,5.8493,44.2258,-0.1135,0.0466,-0.5035,0.2683
16:57:33:171,-0.0778,5.6136,5.75,44.1644,-0.1465,0.152,-0.491,0.266
16:57:33:190,-0.2118,5.4796,5.6901,44.1302,-0.14,0.2286,-0.4778,0.2631
16:57:33:210,-0.4343,5.4078,5.5777,43.927,-0.1355,0.2582,-0.4546,0.2599
16:57:33:231,-0.7765,5.3061,5.8708,43.8812,-0.1413,0.2698,-0.3829,0.2536
16:57:33:250,-0.9105,5.1446,6.1244,44.0238,-0.0875,0.3086,-0.2448,0.2511
16:57:33:271,-0.8674,5.19,6.0598,43.8253,0.0258,0.3291,-0.0826,0.2496
16:57:33:291,-0.6808,5.4341,5.8265,43.7852,0.0777,0.3083,0.0872,0.2486
16:57:33:309,-0.2177,5.9007,5.9163,43.8301,0.042,0.2815,0.2521,0.2484
16:57:33:330,0.2883,6.5109,6.201,43.6954,-0.0154,0.2308,0.3257,0.248
16:57:33:351,0.4391,6.8447,7.084,43.4023,-0.068,0.0869,0.2793,0.2487
16:57:33:370,0.5468,6.5767,9.0903,43.1926,-0.0069,0.0261,0.2182,0.25
16:57:33:389,0.5432,6.9775,8.9922,43.0334,0.2628,0.1599,0.199,0.2515
16:57:33:409,0.7394,7.2263,9.7089,42.3883,0.1984,0.2036,0.2622,0.2525
16:57:33:429,1.401,7.809,10.6851,41.8419,0.1633,0.4827,0.4049,0.2528
16:57:33:449,1.7061,8.8582,10.678,41.5002,0.36,0.8447,0.4928,0.2513
16:57:33:469,1.6558,10.1516,8.8331,41.3457,0.6636,0.8654,0.4739,0.2504
16:57:33:491,1.3328,10.995,7.2814,40.9166,0.6611,0.4049,0.2943,0.2563
16:57:33:509,1.0804,10.9735,8.0495,40.8137,0.3642,-0.2136,0.0451,0.2608
16:57:33:530,1.1629,9.9302,10.3908,40.8533,0.0664,-0.4354,-0.1489,0.2626
16:57:33:550,0.9308,8.4706,11.6327,40.7158,0.0509,-0.0878,-0.3138,0.2623
16:57:33:570,-0.3087,7.0899,10.9663,41.2166,0.396,0.2191,-0.4827,0.2627
16:57:33:591,-1.8688,5.9593,8.7386,41.5384,0.7967,0.3777,-0.5991,0.2639
16:57:33:611,-3.3703,5.007,6.134,41.7675,0.9247,0.4262,-0.6229,0.265
16:57:33:631,-4.5117,4.3286,4.0355,42.1309,0.2185,-0.0124,-0.2069,0.2657
16:57:33:649,-3.7543,3.5557,4.1922,42.4,-0.3902,-0.2314,0.0756,0.2652
16:57:33:670,-2.5113,3.4277,6.0574,42.311,-0.8847,-0.1868,0.2592,0.2622
16:57:33:690,-1.3926,3.3296,8.0064,42.4237,-1.0114,0.0396,0.3496,0.2564
16:57:33:709,-0.6233,3.2794,8.6871,42.4474,-0.7256,0.3572,0.4232,0.2497
16:57:33:729,-0.2752,3.7149,7.2431,42.4863,-0.3428,0.6196,0.5176,0.2437
16:57:33:751,0.0407,4.6289,5.2774,42.6459,-0.1752,0.5945,0.6416,0.2366
16:57:33:770,0.8315,5.7404,3.99,42.3218,-0.2469,0.3254,0.7256,0.2358
16:57:33:790,1.7204,6.7202,4.0463,42.2617,-0.4042,-0.0279,0.6538,0.2359
16:57:33:810,2.1332,7.1426,5.0046,42.4354,-0.5023,-0.2494,0.4009,0.2359
16:57:33:830,1.8269,7.0911,5.9151,42.8183,-0.5011,-0.2815,0.0493,0.2351
16:57:33:849,0.8291,6.682,6.323,42.8097,-0.4626,-0.2585,-0.264,0.2336
16:57:33:872,-0.2309,6.2536,6.6724,42.8904,-0.4601,-0.2512,-0.4598,0.2313
16:57:33:891,-2.1009,5.2714,7.6762,42.8791,-0.4556,-0.2457,-0.5246,0.229
16:57:33:910,-2.54,5.1793,7.9202,43.1703,-0.3034,-0.2585,-0.243,0.2273
16:57:33:931,-2.3366,5.5334,8.2373,43.6115,-0.2237,-0.2433,0.0426,0.2264
16:57:33:950,-1.4716,6.2405,8.6154,43.8528,-0.0463,-0.2359,0.2543,0.2266
16:57:33:970,-0.92,6.8088,8.5902,44.034,0.1886,-0.3065,0.3077,0.2289
16:57:33:989,-0.6592,7.1198,8.4108,43.9192,0.3697,-0.3948,0.3471,0.2334
16:57:34:010,-0.274,7.6379,8.3438,43.5699,0.4586,-0.3425,0.3893,0.2392
16:57:34:029,-0.2644,8.2863,7.4955,43.4134,0.4155,-0.184,0.3303,0.2486
16:57:34:049,-0.5133,8.546,7.0493,43.1033,0.2286,-0.3416,0.283,0.2536
16:57:34:069,-0.0239,8.5508,8.5484,42.5362,0.0643,-0.7268,0.3835,0.2606
16:57:34:091,1.4716,8.6429,10.5607,42.3427,0.0735,-1.0371,0.5356,0.2691
16:57:34:110,3.0532,8.7697,12.3709,42.1923,0.1807,-1.0383,0.5579,0.2768
16:57:34:131,3.862,8.7506,12.5743,42.1927,0.334,-0.5206,0.3997,0.2808
16:57:34:151,3.4732,8.601,10.5763,42.4229,0.3798,0.0325,0.1028,0.2823
16:57:34:169,0.92,6.5037,8.4179,42.9307,0.1981,-0.345,-0.607,0.2839
16:57:34:190,0.14,4.1922,9.0006,43.2684,0.2848,-0.534,-0.7109,0.2871
16:57:34:211,-0.2082,2.6477,8.4826,43.9237,0.3612,-0.2925,-0.5942,0.2902
16:57:34:230,-0.1663,2.3701,7.4919,44.3776,0.2818,0.0655,-0.323,0.2912
16:57:34:249,0.6329,3.2112,6.3673,44.7398,0.0964,0.3044,-0.0243,0.2899
16:57:34:272,1.7133,4.5966,5.872,44.8754,-0.1214,0.2854,0.1165,0.2848
16:57:34:290,2.5759,5.7033,5.8457,44.7596,-0.2882,0.2078,0.0655,0.2817
16:57:34:309,2.7661,6.1974,5.805,44.47,-0.3893,0.1608,-0.1483,0.2783
16:57:34:329,2.3103,6.0993,5.8373,44.3609,-0.4058,0.1058,-0.3548,0.2752
16:57:34:349,1.7312,5.7033,5.7332,44.4008,-0.3355,0.0261,-0.4577,0.2729
16:57:34:369,1.1868,5.5537,5.5801,44.2539,-0.2491,-0.0527,-0.4742,0.2713
16:57:34:391,0.8016,5.6734,5.4867,44.3016,-0.2136,-0.1095,-0.476,0.27
16:57:34:411,0.4032,5.8038,5.6542,44.2934,-0.2246,-0.1116,-0.4992,0.2682
16:57:34:431,-0.3589,5.4652,6.4941,44.5876,-0.2479,0.0209,-0.5157,0.2658
16:57:34:450,-0.6341,5.2271,6.7382,44.8297,-0.1617,0.1489,-0.4556,0.263
16:57:34:470,-0.8183,5.1266,6.6209,45.4855,-0.0695,0.2741,-0.3315,0.2601
16:57:34:490,-0.6867,5.202,6.3661,45.7689,0.0069,0.3529,-0.1605,0.2574
16:57:34:510,-0.2955,5.4688,6.1807,46.3314,0.0579,0.3572,0.009,0.2553
16:57:34:531,0.3015,5.8696,6.1962,46.6017,0.1003,0.3285,0.1642,0.2535
16:57:34:550,1.0588,6.4965,6.1208,47.0388,0.1196,0.3065,0.2631,0.2534
16:57:34:570,1.5817,7.2323,6.3398,47.3744,0.0936,0.2127,0.2335,0.2541
16:57:34:591,1.5972,7.5841,7.1581,47.5008,0.0973,0.0817,0.0802,0.2553
16:57:34:612,0.932,7.3388,7.882,47.6984,0.1718,-0.0084,-0.108,0.257
16:57:34:631,-0.14,7.0361,8.4215,47.6435,0.2427,-0.0707,-0.1804,0.2589
16:57:34:651,-0.3386,6.7741,8.9504,47.7737,0.2356,-0.0634,-0.0707,0.2599
16:57:34:670,0.1926,7.1988,9.734,47.5307,0.1165,0.1474,0.079,0.2584
16:57:34:690,-0.3972,8.6393,9.9972,47.5771,0.3731,0.9641,0.2167,0.255
16:57:34:710,-0.9057,9.2076,7.681,47.3664,0.6458,0.7479,0.3089,0.2536
16:57:34:729,-0.6066,9.7711,6.7896,47.2399,0.4852,0.2185,0.4024,0.2557
16:57:34:749,0.079,9.8166,8.1858,47.0845,0.0499,-0.0338,0.3826,0.2587
16:57:34:770,0.5946,9.0772,9.8692,47.188,-0.2274,0.057,0.2393,0.2592
16:57:34:791,0.2644,8.004,10.7725,47.1737,-0.1101,0.1495,0.0228,0.2569
16:57:34:812,-0.8961,6.6341,9.801,47.3797,0.2876,0.2277,-0.1828,0.2573
16:57:34:830,-2.2516,5.5944,7.5482,47.5891,0.534,0.2546,-0.2619,0.2582
16:57:34:850,-3.1035,4.9998,5.4556,47.6017,0.4021,0.1177,-0.1666,0.2592
16:57:34:871,-2.7613,4.6696,5.1829,47.7736,-0.006,-0.2149,0.0493,0.2596
16:57:34:890,-1.2239,4.6193,6.5671,47.9119,-0.4158,-0.3716,0.199,0.258
16:57:34:912,0.0682,4.6421,8.3366,47.9898,-0.6055,-0.1709,0.1752,0.254
16:57:34:931,0.6389,4.5631,8.6548,47.8819,-0.5001,0.2741,0.0777,0.2484
16:57:34:970,-0.1711,5.0261,5.7679,48.2493,-0.082,0.4348,-0.0008,0.2439
16:57:34:972,-0.3254,5.2104,4.8323,48.3062,-0.0524,0.0954,0.0331,0.242
16:57:34:989,-0.2788,5.3767,5.1876,47.9545,-0.159,-0.2008,0.0872,0.242
16:57:35:009,0.006,5.5119,6.2824,47.906,-0.2164,-0.3071,0.1394,0.2428
16:57:35:029,0.1519,5.7308,6.9559,47.4618,-0.1294,-0.2741,0.1217,0.2439
16:57:35:050,0.0885,6.1101,6.7167,47.134,-0.02,-0.1681,0.0454,0.2457
16:57:35:070,-0.1878,6.3194,6.006,47.0838,-0.0127,-0.0799,-0.0927,0.2457
16:57:35:091,-0.6987,6.1508,5.653,47.4214,-0.0759,-0.0851,-0.2188,0.2452
16:57:35:110,-1.2383,5.8193,5.6949,47.3837,-0.1312,-0.1211,-0.2531,0.2446
16:57:35:130,-1.5386,5.6554,5.8373,47.5655,-0.1739,-0.1373,-0.1892,0.2437
16:57:35:149,-1.5182,5.7296,6.1173,47.9077,-0.2326,-0.1095,-0.075,0.2425
16:57:35:169,-1.3567,6.1639,6.652,48.0716,-0.2439,-0.0997,0.0313,0.2419
16:57:35:192,-1.1677,7.0816,7.4249,48.6698,-0.0063,-0.2836,0.1043,0.2429
16:57:35:211,-1.1964,7.2311,7.5685,49.1659,0.1312,-0.3829,0.1394,0.2456
16:57:35:230,-0.9655,7.5147,7.9035,49.523,0.1565,-0.3242,0.2198,0.2493
16:57:35:249,-0.8961,7.9155,7.4333,49.6203,0.0951,-0.0536,0.2399,0.2517
16:57:35:269,-0.9978,8.0626,7.2526,49.7634,-0.0783,-0.173,0.2158,0.2526
16:57:35:289,-0.6102,7.937,9.5557,49.6099,-0.2521,-0.6269,0.2723,0.2545
16:57:35:311,0.4044,7.9382,12.4606,50.1427,-0.1886,-0.6852,0.4323,0.2613
16:57:35:330,1.6499,8.2026,13.4513,50.2967,0.0921,-0.2378,0.5554,0.2632
16:57:35:350,2.2672,8.741,11.9306,50.4959,0.3215,0.2301,0.5414,0.2643
16:57:35:370,2.4873,9.0437,9.8321,50.8489,0.3474,0.3074,0.3884,0.2658
16:57:35:391,2.473,8.5268,8.6632,51.1632,0.2463,0.0353,0.0756,0.2683
16:57:35:410,1.9178,6.7753,8.8941,51.3748,0.2002,-0.3221,-0.243,0.272
16:57:35:430,1.4536,4.8562,9.1789,51.7243,0.2766,-0.4678,-0.4003,0.2755
16:57:35:451,1.0648,3.5414,8.6429,52.0389,0.338,-0.356,-0.4198,0.2777
16:57:35:469,1.1916,3.6419,5.9294,52.0028,0.0053,-0.0374,-0.2085,0.2778
16:57:35:490,1.6642,4.5643,5.817,52.4642,-0.2607,-0.14,-0.151,0.2768
16:57:35:510,2.0279,5.2499,6.3805,52.6588,-0.3801,-0.2265,-0.2173,0.2754
16:57:35:530,1.9143,5.5789,6.7322,52.8249,-0.3438,-0.1944,-0.3752,0.2739
16:57:35:550,1.3448,5.4867,6.5276,52.8874,-0.2598,-0.0725,-0.5325,0.2721
16:57:35:571,0.6018,5.196,5.9761,53.0391,-0.1999,0.0286,-0.6012,0.2672
16:57:35:591,0.1244,5.2798,5.4939,53.0902,-0.1859,0.0365,-0.5945,0.265
16:57:35:611,-0.1675,5.4102,5.3444,53.2807,-0.1681,-0.0631,-0.5948,0.2635
16:57:35:630,-0.3984,5.397,5.4174,53.4544,-0.1501,-0.1147,-0.5942,0.2621
16:57:35:650,-0.4427,5.2798,5.6243,53.4194,-0.1672,-0.0695,-0.5631,0.2599
16:57:35:670,-0.481,5.1996,5.793,53.7672,-0.1999,0.0622,-0.5072,0.2568
16:57:35:690,-0.6832,5.1398,6.0897,53.7989,-0.2207,0.2173,-0.4302,0.2531
16:57:35:712,-0.7513,5.2391,6.0311,54.0782,-0.1614,0.349,-0.3065,0.2496
16:57:35:730,-0.5575,5.5119,5.9545,54.3389,-0.0234,0.3746,-0.0472,0.2469
16:57:35:750,-0.3027,5.9031,5.9904,54.3436,-0.0209,0.2127,0.057,0.245
16:57:35:770,0.2943,6.396,6.8279,54.4525,-0.0478,-0.0133,0.1758,0.2447
16:57:35:790,1.0349,6.8291,7.6857,54.6739,-0.0533,-0.0325,0.2317,0.2453
16:57:35:810,1.3699,7.4213,8.5807,55.0176,-0.0173,0.0322,0.17,0.2457
16:57:35:831,1.2227,7.724,8.9767,54.8322,0.1419,0.1581,0.0224,0.2469
16:57:35:852,0.457,7.6367,8.589,55.0257,0.3297,0.133,-0.1813,0.2486
16:57:35:870,-0.6425,7.3603,8.3569,55.0444,0.3581,0.0386,-0.268,0.2499
16:57:35:889,-0.6796,7.1605,8.6225,55.0091,0.1694,0.1211,-0.1232,0.2488
16:57:35:910,-0.3159,7.5984,9.5629,55.1755,-0.0377,0.3948,0.1028,0.246
16:57:35:930,-0.0814,8.8905,9.9924,55.6012,0.0432,0.611,0.246,0.2442
16:57:35:949,-0.2201,9.7089,9.0604,55.865,0.2686,0.5041,0.1211,0.2445
16:57:35:971,-1.0935,9.2674,8.4861,55.6787,0.2524,0.1694,-0.0921,0.2456
16:57:35:991,-1.1366,7.3268,10.8383,55.9322,-0.0634,0.0845,0.1303,0.2456
16:57:36:009,-0.9392,6.944,10.8419,56.2231,0.0979,0.2372,0.243,0.2446
16:57:36:029,-0.8853,6.7813,10.1181,56.3771,0.4143,0.2341,0.2262,0.245
16:57:36:050,-1.3017,6.3446,8.205,56.5317,0.6617,0.3493,0.0646,0.2471
16:57:36:070,-2.1547,5.8313,5.7511,56.6575,0.6174,0.4275,-0.0924,0.2488
16:57:36:091,-2.6584,5.2845,4.1922,56.6277,0.2573,0.2579,-0.1452,0.2483
16:57:36:111,-2.522,4.7151,4.7593,56.8752,-0.2161,-0.0405,-0.1052,0.2461
16:57:36:131,-1.7898,4.2592,6.2225,57.2791,-0.5432,-0.1379,-0.0441,0.242
16:57:36:150,-1.1916,3.99,7.5374,57.2252,-0.6862,-0.0029,-0.0313,0.2363
16:57:36:169,-0.9787,3.7424,8.065,56.9445,-0.6474,0.2647,0.0151,0.23
16:57:36:190,-0.9356,3.9171,7.6391,56.7273,-0.4794,0.4351,0.137,0.2249
16:57:36:209,-0.7382,4.3753,6.6748,56.7561,-0.2918,0.3661,0.2653,0.2224
16:57:36:231,-0.1807,4.9161,5.9139,56.8566,-0.2314,-0.0997,0.3786,0.2218
16:57:36:250,0.3266,5.5023,5.8804,57.2082,-0.294,-0.2488,0.2983,0.2222
16:57:36:270,0.5372,5.7212,7.0062,57.3299,-0.2757,-0.1669,0.1422,0.2225
16:57:36:290,-0.2465,5.6674,6.4104,57.4559,-0.2143,-0.0622,-0.0118,0.2219
16:57:36:310,-0.9751,5.6435,5.8158,57.973,-0.2402,-0.1095,-0.082,0.2209
16:57:36:329,-1.3412,5.6243,5.7655,58.5905,-0.3428,-0.2066,-0.0964,0.2199
16:57:36:352,-1.4812,5.6913,6.2297,59.2786,-0.4571,-0.2943,-0.0841,0.2172
16:57:36:371,-1.4058,5.7799,7.0313,59.7894,-0.4977,-0.3285,-0.0579,0.2159
16:57:36:390,-1.2873,5.994,7.9789,60.3053,-0.3822,-0.3209,-0.0353,0.216
16:57:36:411,-1.1139,6.4247,8.3342,60.5121,-0.0988,-0.3196,-0.0185,0.2181
16:57:36:430,-1.066,6.9452,7.7755,60.6877,0.1376,-0.3673,-0.0484,0.2214
16:57:36:450,-1.1079,7.212,7.468,61.2355,0.1477,-0.4036,-0.0774,0.2245
16:57:36:470,-0.9464,7.3412,8.0243,61.4372,0.089,-0.4198,-0.0964,0.2274
16:57:36:491,-0.9176,7.5266,8.3043,61.5881,0.1492,-0.3245,-0.2133,0.2297
16:57:36:511,-1.5242,7.4333,7.5805,61.9214,0.1978,-0.2952,-0.3819,0.2326
16:57:36:530,-0.9715,7.2491,10.4387,62.1809,0.0646,-1.0343,-0.1425,0.2376
16:57:36:552,1.1366,7.7839,12.1843,62.4024,0.0426,-1.071,0.0145,0.2439
16:57:36:570,2.7781,8.0148,13.0636,62.647,-0.0362,-0.7335,-0.0014,0.2491
16:57:36:590,3.3655,8.1368,12.3829,62.6957,-0.0609,-0.1052,-0.078,0.251
16:57:36:612,3.0808,7.9035,9.9852,62.8767,0.0698,0.2106,-0.2921,0.2498
16:57:36:631,1.6929,7.4453,9.0808,63.206,0.1758,0.0029,-0.557,0.2514
16:57:36:649,1.2227,6.0826,8.3462,63.6872,0.3239,-0.3056,-0.7454,0.2551
16:57:36:669,0.7382,4.2078,8.1488,63.9903,0.3514,-0.4965,-0.8557,0.258
16:57:36:689,0.4666,3.2291,7.5434,64.2072,0.301,-0.3004,-0.7118,0.2596
16:57:36:710,0.8016,3.2183,6.6736,64.5042,0.2378,-0.2042,-0.4837,0.2613
16:57:36:731,1.395,3.9517,6.2668,64.6124,0.2048,-0.3612,-0.345,0.2647
16:57:36:751,1.7085,4.672,5.817,65.0681,0.2601,-0.6483,-0.3661,0.2701
16:57:36:770,1.3472,4.8598,6.0873,65.2233,0.1987,-0.8172,-0.5221,0.2733
16:57:36:789,0.3123,5.0453,5.9844,65.7519,-0.3315,-0.0854,-0.5991,0.2721
16:57:36:809,-0.1639,5.1805,6.262,65.5745,-0.5252,0.0408,-0.513,0.2681
16:57:36:830,-0.122,5.3204,6.6915,65.7212,-0.5832,0.0319,-0.3835,0.2631
16:57:36:850,0.1986,5.4784,7.0708,65.74,-0.5063,0.0386,-0.3001,0.2583
16:57:36:871,0.4355,5.7511,7.3113,65.9207,-0.3031,0.0353,-0.3053,0.2528
16:57:36:891,0.2548,5.6925,7.0349,66.2549,-0.0753,0.0279,-0.3841,0.2519
16:57:36:909,-0.329,5.4209,6.6018,66.4217,0.0163,0.0658,-0.4027,0.251
16:57:36:930,-0.7968,5.3695,6.4391,66.6846,0.0292,0.1516,-0.3096,0.2501
16:57:36:949,-0.7956,5.4963,6.1878,66.4612,0.0652,0.2011,-0.181,0.2495
16:57:36:982,-0.5958,5.6686,5.8516,66.8634,0.1028,0.1779,-0.0667,0.2497
16:57:36:990,-0.4211,5.9079,5.8026,67.1229,0.0912,0.1193,0.0429,0.25
16:57:37:012,0.2608,6.5109,6.7609,67.4962,-0.0096,0.2653,0.2078,0.2497
16:57:37:030,0.3697,6.8052,7.1521,67.6366,0.017,0.2845,0.1746,0.2488
16:57:37:051,-0.0323,6.8148,7.9765,67.7164,0.1284,0.1544,0.0502,0.2487
16:57:37:070,-0.3852,6.3577,9.0114,68.0003,0.3163,0.0451,-0.0331,0.2501
16:57:37:090,-0.7454,6.3565,9.3476,68.2033,0.4824,0.0872,-0.0325,0.2528
16:57:37:109,-1.0026,6.6377,9.1573,68.373,0.4317,0.2686,0.0738,0.2553
16:57:37:129,-0.7202,7.2634,9.4325,68.3739,0.2115,0.5948,0.3047,0.2557
16:57:37:151,-0.0814,8.3533,9.5067,68.3998,0.1413,0.8178,0.4992,0.252
16:57:37:170,0.3541,9.4648,9.0449,68.3674,0.2158,0.6571,0.487,0.2523
16:57:37:189,0.2536,9.7711,8.8786,68.4332,0.1645,0.3038,0.3065,0.253
16:57:37:210,-0.1711,8.8606,9.722,68.7218,-0.0466,0.0686,0.2265,0.2528
16:57:37:231,-0.1759,8.071,10.8407,68.9093,-0.159,0.0814,0.3541,0.2523
16:57:37:251,-0.0251,7.6056,11.1745,68.8391,-0.0151,0.1266,0.4751,0.2538
16:57:37:272,0.0455,7.3986,10.7007,69.1418,0.3285,0.006,0.476,0.2582
16:57:37:291,-0.1065,7.2658,9.6754,69.4815,0.6767,-0.049,0.2766,0.2637
16:57:37:309,-2.333,5.3085,5.7452,69.3946,0.7231,0.0622,-0.2494,0.2683
16:57:37:330,-3.0532,4.2616,5.0022,69.4445,0.4195,-0.0331,-0.2405,0.2715
16:57:37:350,-2.9575,3.7041,5.4987,69.6861,0.0863,-0.0997,-0.0893,0.2728
16:57:37:370,-2.3055,3.4493,6.3266,69.4448,-0.1049,-0.0191,0.0732,0.2725
16:57:37:390,-1.6941,3.5127,6.5755,69.2391,-0.1889,0.1697,0.2173,0.2708
16:57:37:412,-1.054,3.9422,6.2321,69.228,-0.2705,0.3914,0.3615,0.2636
16:57:37:431,-0.4594,4.5284,5.8636,69.1073,-0.3456,0.5041,0.4687,0.2594
16:57:37:450,0.1232,5.0201,5.7093,69.1441,-0.3389,0.4458,0.546,0.2566
16:57:37:470,0.7083,5.5442,5.4999,69.3641,-0.2595,0.2668,0.5719,0.2557
16:57:37:490,1.1151,6.1077,5.3551,69.4381,-0.1956,0.0594,0.5148,0.256
16:57:37:510,1.1725,6.6245,5.4915,69.5399,-0.152,-0.0884,0.3435,0.2569
16:57:37:532,-0.1376,6.4128,5.5525,70.0054,-0.1287,-0.1785,0.0863,0.2576
16:57:37:551,-0.9212,5.945,5.8624,70.3825,-0.1495,-0.272,-0.1254,0.2583
16:57:37:569,-1.517,5.5346,6.2154,70.7535,-0.2323,-0.4039,-0.2182,0.2587
16:57:37:590,-1.6606,5.3324,6.5946,70.7415,-0.2732,-0.3764,-0.1043,0.2587
16:57:37:610,-1.3507,5.6267,6.9942,70.8055,-0.2842,-0.2955,0.0295,0.2583
16:57:37:630,-0.9021,6.3171,7.4644,71.0726,-0.2417,-0.2176,0.1119,0.2578
16:57:37:650,-0.6281,6.9823,7.6666,71.2273,-0.1599,-0.1856,0.1336,0.2576
16:57:37:671,-0.5049,7.3926,7.9119,71.4425,-0.0713,-0.2164,0.1391,0.2597
16:57:37:689,-0.3159,7.7204,8.3091,71.2785,0.0548,-0.2882,0.1397,0.2627
16:57:37:710,-0.0407,8.3701,8.4383,71.1353,0.2222,-0.2778,0.115,0.2662
16:57:37:730,-0.0443,9.2124,7.9693,70.9293,0.301,-0.2344,-0.0466,0.2696
16:57:37:750,-0.719,9.1119,7.8401,71.1416,0.2033,-0.3651,-0.228,0.2731
16:57:37:770,-1.078,8.6955,9.2818,71.2011,0.0435,-0.5988,-0.1416,0.2766
16:57:37:791,-0.1914,8.7171,10.7163,70.9081,-0.02,-0.611,0.1101,0.2797
16:57:37:811,1.2682,9.0473,11.3551,70.9933,0.0044,-0.5038,0.2387,0.2825
16:57:37:831,2.4,8.802,10.6361,70.8027,0.2387,-0.1113,-0.0319,0.2849
16:57:37:850,1.7348,8.132,8.5591,70.7226,0.308,-0.1636,-0.3297,0.2873
16:57:37:870,1.0995,6.4199,8.2181,70.4469,0.1306,-0.5053,-0.5527,0.2901
16:57:37:890,0.8794,4.4076,9.1502,70.4411,-0.0487,-0.5453,-0.5875,0.2925
16:57:37:909,0.6843,3.0485,9.4098,70.3111,-0.0438,-0.2366,-0.4565,0.2929
16:57:37:931,0.7513,2.7039,8.5101,70.155,0.0961,0.0408,-0.2204,0.2917
16:57:37:951,1.2347,3.1848,7.0505,70.3301,0.2167,0.0924,-0.0429,0.2924
16:57:37:970,1.474,4.0331,6.012,70.2017,0.2027,0.0057,-0.031,0.2932
16:57:37:990,1.3077,4.5081,5.4269,70.1568,0.0716,-0.0273,-0.1306,0.2928
16:57:38:010,0.7573,4.6373,5.3073,69.8023,-0.1327,-0.0093,-0.2231,0.2908
16:57:38:030,0.3254,4.6648,5.5609,69.7593,-0.3047,0.0591,-0.2158,0.2876
16:57:38:050,0.14,4.8323,5.8134,69.3036,-0.374,0.1046,-0.1739,0.2842
16:57:38:070,0.1005,5.0979,5.9593,68.9626,-0.3413,0.0942,-0.0991,0.2816
16:57:38:089,0.4929,6.0263,6.4702,68.5674,-0.1376,0.0053,-0.0087,0.2801
16:57:38:109,0.6173,6.1579,6.5683,68.1955,-0.0231,0.0148,-0.0221,0.2797
16:57:38:129,0.6736,6.1938,6.4522,67.8948,0.0396,0.1202,-0.0405,0.2796
16:57:38:149,0.5827,6.2668,5.9988,67.305,0.0463,0.2466,-0.0692,0.2791
16:57:38:169,0.1914,6.262,5.7021,67.3952,0.0185,0.2625,-0.0768,0.2781
16:57:38:191,-0.2297,6.0156,6.0263,67.0881,0.009,0.2216,-0.006,0.2764
16:57:38:210,-0.2237,5.9306,6.0407,66.9985,0.0368,0.2512,0.1229,0.2758
16:57:38:229,0.0167,6.3099,6.0347,66.9156,0.0176,0.254,0.2405,0.2751
16:57:38:249,0.5862,6.664,6.5169,66.5885,-0.0295,0.261,0.3059,0.2743
16:57:38:269,1.1222,7.0959,7.1785,66.4137,0.0047,0.2833,0.2928,0.2741
16:57:38:289,1.2802,7.4776,7.5374,66.082,0.1391,0.2799,0.1962,0.2747
16:57:38:311,1.0169,7.5709,7.3472,66.1789,0.2711,0.2656,0.057,0.2758
16:57:38:330,0.2883,7.48,6.9799,66.0395,0.2888,0.214,-0.0826,0.2767
16:57:38:351,0.1795,7.7492,8.5998,66.1618,-0.0304,0.1764,-0.027,0.2765
16:57:38:370,0.4558,8.4239,9.2925,66.3304,-0.1144,0.3328,0.0457,0.2747
16:57:38:389,0.5515,9.3212,8.9683,66.1944,-0.1587,0.3337,0.0683,0.2722
16:57:38:409,0.4558,9.6168,9.4014,66.46,-0.3102,0.1226,-0.031,0.2697
16:57:38:430,-0.0562,8.8846,10.41,66.3673,-0.4305,-0.0081,-0.1483,0.2671
16:57:38:451,-0.6413,7.8556,10.4913,66.466,-0.4134,0.0053,-0.097,0.2615
16:57:38:469,-0.4774,7.3831,9.9685,66.4996,-0.2976,-0.0906,0.0399,0.2608
16:57:38:489,-0.3135,7.3926,9.3368,66.3313,-0.1742,-0.2598,-0.0026,0.2611
16:57:38:510,-0.9153,7.0756,8.2995,66.0374,-0.0896,-0.2921,-0.2457,0.2615
16:57:38:531,-1.9561,6.128,6.5767,65.8195,-0.0988,-0.4152,-0.5001,0.2622
16:57:38:550,-2.8259,4.8742,5.8696,65.6055,-0.3209,-0.7885,-0.5936,0.2624
16:57:38:572,-2.6716,3.6993,6.9942,65.1881,-0.8899,-0.9568,-0.1969,0.2608
16:57:38:591,-1.4584,2.8175,9.5067,64.9244,-0.7472,-0.56,0.0038,0.2577
16:57:38:610,0.6173,3.5174,9.8082,64.5818,-0.5121,-0.1813,0.0255,0.254
16:57:38:630,0.4116,3.7699,8.4419,64.054,-0.2494,-0.0298,-0.038,0.2508
16:57:38:649,-0.2154,3.5928,6.7226,63.8041,0.0228,-0.1129,-0.0206,0.2499
16:57:38:670,-0.5527,3.6826,5.5011,63.6606,0.0741,-0.2146,0.1266,0.2512
16:57:38:690,-0.268,4.0187,5.2953,63.275,-0.1532,-0.0325,0.2931,0.2521
16:57:38:712,0.0921,4.6923,5.5765,63.0677,-0.4919,0.2027,0.3273,0.2443
16:57:38:732,0.1842,4.928,6.3541,62.9426,-0.7078,0.2329,0.2164,0.2387
16:57:38:750,0.0682,4.7821,7.1366,62.6469,-0.6678,0.0716,0.075,0.2349
16:57:38:770,-0.1854,4.5811,7.8808,62.6157,-0.3905,-0.1129,-0.0209,0.2342
16:57:38:790,-0.4283,4.4064,7.6008,62.3863,-0.0564,-0.1706,0.0023,0.2351
16:57:38:810,-0.3769,4.6983,6.8722,62.1569,0.0133,-0.1599,0.0912,0.2354
16:57:38:832,0.012,5.2211,6.9535,61.8448,-0.195,-0.1278,0.1086,0.2338
16:57:38:852,0.1208,5.3647,7.3639,61.8965,-0.4088,-0.0322,0.027,0.2311
16:57:38:870,0.0156,5.659,8.8534,62.0208,-0.1761,0.0301,0.0802,0.229
16:57:38:890,0.4857,6.2441,7.919,61.8503,0.1342,0.0356,0.0747,0.2287
16:57:38:910,0.4941,7.0552,6.8172,61.7112,0.2103,-0.3004,-0.0951,0.2309
16:57:38:930,0.1531,7.0708,6.9835,61.3552,0.0738,-0.7143,-0.2879,0.2349
16:57:38:950,0.0287,6.877,8.2636,61.5798,-0.0673,-1.0197,-0.3328,0.2396
16:57:38:988,0.4379,6.4594,10.0774,61.4885,-0.0313,-1.0343,-0.2188,0.2492
16:57:38:989,0.9416,6.5982,10.812,61.0968,0.031,-0.6813,-0.0279,0.2515
16:57:39:009,1.1151,7.1175,11.0752,60.7236,-0.0197,-0.217,0.0145,0.2516
16:57:39:031,0.8423,6.9559,11.3527,60.0724,-0.0475,-0.0661,-0.006,0.2516
16:57:39:049,0.3709,7.0505,11.6722,59.8097,0.0139,0.0463,0.0115,0.2511
16:57:39:069,0.25,6.6832,10.6899,59.5385,0.1043,0.2692,0.0557,0.2507
16:57:39:089,0.5779,6.0981,9.8369,59.2388,0.2356,0.2695,0.0927,0.252
16:57:39:111,0.6197,5.0237,9.0245,58.7803,0.4003,0.1978,0.0625,0.254
16:57:39:129,0.7669,4.185,7.9944,57.981,0.2509,0.4632,0.0753,0.2545
16:57:39:150,1.1976,4.1228,8.0614,57.8122,-0.1678,0.1294,0.1965,0.2532
16:57:39:169,2.8391,4.3549,9.0903,57.5363,-0.5008,-0.1794,0.2479,0.2509
16:57:39:190,4.0606,4.7737,9.6658,57.3516,-0.5597,-0.2259,0.1006,0.2482
16:57:39:210,4.7222,4.398,9.9123,57.2479,-0.4006,-0.2161,-0.1397,0.2456
16:57:39:246,4.1707,3.4528,10.0678,56.9283,0.1675,-0.2036,-0.3926,0.2503
16:57:39:250,2.7601,3.6873,7.5769,56.776,0.7897,-0.5673,-0.4097,0.2604
16:57:39:269,2.5591,3.9757,7.1163,56.0697,0.6831,-0.9562,-0.3276,0.2666
16:57:39:289,2.6608,3.6048,7.0134,56.2997,0.0597,-0.2983,-0.2378,0.2642
16:57:39:309,2.3605,3.9434,6.7765,55.959,-0.4238,0.4091,-0.1953,0.2577
16:57:39:329,2.0279,4.4148,6.5097,55.2979,-0.4607,0.5362,-0.2592,0.2528
16:57:39:351,1.7145,4.7617,6.1125,55.0141,-0.2124,0.2338,-0.4186,0.2518
16:57:39:371,1.0828,4.2784,5.811,54.4365,0.0673,-0.3102,-0.7463,0.2531
16:57:39:389,0.8136,4.3023,5.6219,54.2078,-0.0585,-0.2366,-0.7579,0.2541
16:57:39:409,0.5874,4.325,5.6626,53.7338,-0.3019,-0.0765,-0.7036,0.2529
16:57:39:429,0.7789,4.5655,6.1579,53.7542,-0.4772,0.0166,-0.6153,0.2494
16:57:39:449,1.1222,4.7103,6.6987,53.3172,-0.5389,0.0374,-0.5676,0.2449
16:57:39:469,1.3077,4.8766,7.5051,52.9315,-0.4995,-0.0548,-0.5472,0.2404
16:57:39:490,1.4453,4.8072,8.3019,52.9551,-0.3114,-0.1559,-0.5099,0.2365
16:57:39:510,1.6594,5.0489,8.5508,52.8492,-0.0588,-0.1889,-0.4491,0.2373
16:57:39:529,1.8772,5.4018,8.077,52.5413,0.1284,-0.1281,-0.4064,0.2388
16:57:39:549,2.0722,5.8038,7.7276,52.2617,0.1599,-0.0921,-0.407,0.2403
16:57:39:569,2.1464,6.0503,7.8162,52.182,0.1465,-0.0863,-0.4552,0.2419
16:57:39:589,2.0925,6.1292,8.1212,51.9123,0.191,-0.1116,-0.5582,0.244
16:57:39:610,2.0195,6.0431,8.272,51.6038,0.272,-0.1379,-0.7109,0.2466
16:57:39:633,0.993,5.47,9.0078,51.6848,0.3303,-0.1611,-1.0472,0.249
16:57:39:649,0.2907,5.4353,9.3559,51.4402,0.2799,-0.1626,-0.9736,0.2512
16:57:39:669,0.2548,6.3075,9.6538,51.0699,0.1211,0.0105,-0.7598,0.2522
16:57:39:690,0.4786,7.6594,10.002,50.9299,-0.0515,0.1636,-0.6397,0.2512
16:57:39:710,0.8195,8.3545,10.0714,50.5218,-0.1672,0.0564,-0.7219,0.249
16:57:39:729,0.7872,7.7946,10.9328,50.0764,-0.3089,-0.3581,-0.8984,0.2472
16:57:39:750,0.4714,6.6963,12.6138,49.5356,-0.3572,-0.6697,-0.9281,0.2458
16:57:39:771,0.2776,5.8469,13.7587,49.357,-0.1694,-0.7457,-0.8386,0.2468
16:57:39:790,-0.0203,4.9854,13.7803,48.93,0.2069,-0.5154,-0.7417,0.2502
16:57:39:810,-0.7274,4.5452,11.8804,48.5415,0.7014,-0.0909,-0.6651,0.2558
16:57:39:830,-1.5852,4.4459,8.7422,48.2634,1.046,0.1914,-0.7188,0.2624
16:57:39:849,-2.5364,4.1683,6.0873,47.899,1.0398,0.1486,-0.7986,0.2684
16:57:39:870,-3.0425,3.7484,4.5392,47.7133,0.7457,-0.0945,-0.8004,0.2723
16:57:39:891,-2.9791,3.338,4.5416,47.6128,0.2625,-0.3328,-0.6996,0.2727
16:57:39:910,-1.6319,2.7625,6.5707,47.6057,-0.4995,-0.0728,-0.3731,0.2692
16:57:39:930,-1.2012,3.2004,6.9057,47.5975,-0.4528,0.064,-0.1993,0.2642
16:57:39:951,-0.7537,3.9565,6.323,47.6062,-0.2897,-0.0099,-0.0389,0.2604
16:57:39:969,-0.274,4.7282,5.9186,47.6484,-0.2155,-0.3053,0.0796,0.2587
16:57:39:991,0.2477,5.3527,6.4187,47.6458,-0.2286,-0.6397,0.1465,0.2588
16:57:40:012,0.7753,5.8804,7.4034,47.3949,-0.2601,-0.772,0.1257,0.2602
16:57:40:031,0.8674,6.1472,8.1691,47.2067,-0.2613,-0.5976,-0.0292,0.2598
16:57:40:050,0.0191,5.9653,8.1799,46.9317,-0.1938,-0.3102,-0.2741,0.2594
16:57:40:070,-1.206,5.4293,7.6822,46.8943,-0.0551,-0.1852,-0.436,0.2597
16:57:40:090,-2.1547,4.9555,7.0445,46.6767,0.0802,-0.192,-0.4528,0.261
16:57:40:110,-2.6859,4.7617,6.4738,46.4671,0.129,-0.2411,-0.3731,0.2623
16:57:40:130,-2.8403,4.8969,6.2931,46.2054,0.0725,-0.2399,-0.2277,0.263
16:57:40:152,-2.2457,5.6267,6.8698,45.7373,-0.0053,-0.1736,-0.0805,0.2633
16:57:40:171,-1.9071,6.1304,7.1186,45.892,-0.0029,-0.1248,0.0353,0.2641
16:57:40:189,-1.474,6.5109,7.4453,45.8665,0.1779,-0.3691,0.1629,0.2663
16:57:40:210,-1.0373,6.6293,8.1512,45.8675,0.2549,-0.5689,0.2213,0.27
16:57:40:230,-0.1783,6.877,9.3117,45.797,0.3661,-0.6654,0.3285,0.2749
16:57:40:249,0.6963,7.5757,10.3537,45.3298,0.5738,-0.4699,0.3172,0.281
16:57:40:271,0.2345,7.8604,9.8788,44.9682,0.8468,-0.1862,0.115,0.2962
16:57:40:290,-0.5539,7.8317,8.8056,45.1368,0.8877,-0.1694,0.0475,0.3035
16:57:40:309,-0.475,8.0949,8.1368,45.2141,0.6095,-0.1828,0.1874,0.3075
16:57:40:329,0.9571,8.5017,8.5699,44.8688,0.0631,-0.2506,0.3041,0.307
16:57:40:350,2.2887,8.5866,10.4195,44.7653,-0.4265,-0.1226,0.2567,0.3034
16:57:40:371,3.3188,8.4586,12.0682,44.6459,-0.432,0.1367,0.1507,0.301
16:57:40:390,3.6251,8.2469,11.6375,44.6127,0.0264,0.2369,-0.1113,0.3025
16:57:40:413,2.0195,5.9198,8.997,44.6411,0.3548,-0.4348,-0.6339,0.3064
16:57:40:430,1.4584,4.209,9.064,44.6253,0.1446,-0.3688,-0.5985,0.3095
16:57:40:450,1.1282,3.2459,8.5412,44.2216,0.0478,-0.0466,-0.3926,0.3101
16:57:40:470,1.1844,3.1705,7.3831,43.8379,0.0273,0.1486,-0.1345,0.3094
16:57:40:489,1.5649,3.7579,6.3864,43.771,-0.0084,0.1177,0.0151,0.3084
16:57:40:510,1.6857,4.2485,5.8098,43.7662,-0.035,-0.0228,-0.0194,0.3078
16:57:40:531,1.3819,4.3394,5.3731,43.8071,-0.071,-0.1571,-0.148,0.3072
16:57:40:551,0.8171,4.2257,5.251,43.7434,-0.1816,-0.2259,-0.2277,0.3058
16:57:40:571,0.4738,4.2688,5.6124,43.9723,-0.3093,-0.2075,-0.2072,0.3033
16:57:40:590,0.5575,4.5655,6.1125,43.9712,-0.3471,-0.1138,-0.1684,0.3006
16:57:40:610,0.8004,5.0369,6.0084,43.962,-0.3202,0.0289,-0.1593,0.2977
16:57:40:630,1.0792,5.5047,5.7619,44.1465,-0.3193,0.0912,-0.191,0.2948
16:57:40:650,1.3208,5.8828,6.0072,43.9484,-0.3395,0.0817,-0.2695,0.2919
16:57:40:672,0.804,5.6901,6.3697,43.8808,-0.3166,0.0939,-0.3877,0.2891
16:57:40:691,0.4702,5.5346,6.4463,43.833,-0.2714,0.0936,-0.4427,0.2865
16:57:40:709,0.3589,5.519,6.7896,43.8372,-0.2317,0.0725,-0.3578,0.2841
16:57:40:730,0.2548,5.6865,6.7286,43.4118,-0.1449,0.0396,-0.264,0.2823
16:57:40:750,0.2991,6.0048,6.816,43.3679,-0.1171,-0.0771,-0.1553,0.2814
16:57:40:770,0.6867,6.0981,7.1605,43.2979,-0.1657,-0.1532,-0.0414,0.2807
16:57:40:791,1.1988,6.3541,8.1248,43.0312,-0.1602,-0.1742,0.0438,0.2799
16:57:40:811,1.6175,6.853,9.2459,43.2013,0.0148,-0.1193,0.0353,0.2817
16:57:40:830,1.4393,7.3328,9.4181,42.9942,0.3233,-0.0127,-0.1205,0.2855
16:57:40:850,0.5731,7.1533,8.8666,42.6794,0.5322,0.0273,-0.3169,0.29
16:57:40:869,-0.4487,6.7382,8.4945,42.1818,0.5148,0.0622,-0.3887,0.2932
16:57:40:889,-0.7932,6.5958,8.6393,41.7739,0.3212,0.2286,-0.2552,0.2938
16:57:40:910,-0.7178,7.1318,9.2136,41.5575,0.0967,0.5081,-0.0279,0.2924
16:57:40:930,-0.5635,8.1571,9.466,41.6511,0.0273,0.7454,0.1226,0.2911
16:57:40:950,-0.4582,8.8379,9.0592,41.27,0.0903,0.7075,0.0478,0.2905
16:57:40:970,-1.2658,7.1725,9.8477,41.2254,-0.1159,-0.0304,-0.1064,0.2901
16:57:41:001,-0.7537,6.5958,11.5214,41.1181,-0.235,-0.1843,0.1239,0.2891
16:57:41:009,-0.1412,6.268,12.6939,40.764,-0.1245,-0.0945,0.3004,0.2877
16:57:41:029,-0.012,6.14,12.2824,40.7584,0.308,0.1446,0.3377,0.288
16:57:41:050,-0.7585,6.1184,9.6156,41.0466,0.7521,0.3795,0.1321,0.2916
16:57:41:071,-2.053,5.4927,6.5635,40.7519,0.8056,0.3483,-0.1113,0.3017
16:57:41:090,-2.7398,4.5619,5.0943,40.4435,0.4742,0.0774,-0.1434,0.3037
16:57:41:110,-2.2911,3.7005,5.3276,40.6175,-0.0008,-0.1324,-0.0258,0.3024
16:57:41:130,-1.2431,3.3069,6.3972,40.275,-0.3459,-0.0774,0.0771,0.2984
16:57:41:150,-0.6365,3.3607,7.0481,40.1967,-0.4632,0.1975,0.1077,0.2935
16:57:41:171,-0.4152,3.5474,6.8076,40.0689,-0.3966,0.4397,0.1342,0.2892
16:57:41:191,-0.1627,3.9984,5.7392,39.8015,-0.2555,0.4662,0.2039,0.2866
16:57:41:214,0.1842,4.8849,5.0154,39.5631,-0.2103,-0.1599,0.3285,0.2855
16:57:41:230,0.4857,5.3169,5.7751,39.6951,-0.3294,-0.3395,0.3633,0.2848
16:57:41:250,0.6317,5.6578,6.9153,39.6333,-0.4247,-0.2683,0.305,0.2831
16:57:41:271,0.2524,5.8134,7.4369,39.7607,-0.4024,-0.1098,0.1422,0.2806
16:57:41:289,-0.536,5.5705,7.2598,39.4962,-0.3911,0.0121,-0.0264,0.2777
16:57:41:309,-1.334,5.2678,7.456,39.4043,-0.3969,0.0035,-0.1165,0.2744
16:57:41:331,-1.9848,4.8598,7.6427,39.6826,-0.3221,-0.0732,-0.1419,0.2693
16:57:41:350,-2.4538,4.4961,8.0136,39.7955,-0.1697,-0.1996,-0.0527,0.2693
16:57:41:370,-2.2361,4.4435,8.3354,39.9294,0.0496,-0.25,0.1364,0.2712
16:57:41:390,-1.6774,5.0357,8.345,39.6058,0.2457,-0.225,0.323,0.2744
16:57:41:410,-1.1629,5.8636,8.199,39.5763,0.3541,-0.1843,0.4323,0.2783
16:57:41:430,-0.6712,6.4546,8.0112,39.3937,0.3798,-0.141,0.4794,0.2823
16:57:41:452,-0.2321,6.9894,8.1607,39.6389,0.3651,-0.1361,0.465,0.2864
16:57:41:471,0.2536,7.7396,8.5149,39.5128,0.4027,-0.0014,0.3007,0.2903
16:57:41:489,-0.3182,7.8341,8.0004,38.9303,0.3896,-0.0066,0.1886,0.2941
16:57:41:509,-0.5587,7.8389,8.4909,38.7569,0.3215,-0.2537,0.2228,0.2979
16:57:41:530,0.1149,8.1404,9.3894,38.4338,0.2421,-0.3804,0.3743,0.3018
16:57:41:549,1.5338,8.8941,10.0271,38.4459,0.0961,-0.4103,0.491,0.3051
16:57:41:570,2.7218,9.2423,11.0644,38.1757,-0.0951,-0.3633,0.4006,0.3069
16:57:41:592,3.1418,8.6847,11.8481,38.0214,-0.0979,-0.1941,0.1907,0.3079
16:57:41:610,2.9803,7.7779,11.1805,38.0033,0.1132,-0.0435,-0.0747,0.3096
16:57:41:630,1.992,6.3553,9.9099,37.9146,0.2915,-0.0817,-0.3893,0.3126
16:57:41:650,0.798,4.5129,9.2447,37.99,0.4122,-0.2289,-0.5652,0.3163
16:57:41:670,0.2524,2.9635,8.321,38.095,0.4699,-0.1697,-0.5121,0.3193
16:57:41:690,0.1472,2.2397,7.1904,37.9935,0.4134,-0.0383,-0.3117,0.3214
16:57:41:712,1.6152,3.3775,5.8014,37.9232,0.0805,0.0231,0.1608,0.3224
16:57:41:730,2.3725,4.5332,5.61,37.9487,-0.1355,0.0698,0.1599,0.3219
16:57:41:752,2.6512,5.4461,5.7176,38.0475,-0.3199,0.1251,0.0191,0.3197
16:57:41:770,2.4849,5.8995,5.8325,37.7239,-0.3917,0.1449,-0.192,0.3164
16:57:41:790,1.9262,5.787,5.744,37.6253,-0.3618,0.0582,-0.3954,0.313
16:57:41:809,1.2778,5.4054,5.6842,37.5819,-0.3169,-0.0701,-0.4885,0.3103
16:57:41:829,0.8758,5.2857,5.9426,37.389,-0.3117,-0.1193,-0.484,0.308
16:57:41:851,0.6054,5.3121,6.0407,37.5319,-0.3248,-0.0463,-0.4705,0.3025
16:57:41:870,0.3099,5.4114,6.146,37.8574,-0.3474,0.0441,-0.4766,0.2991
16:57:41:890,-0.0526,5.4257,6.5157,38.0101,-0.3297,0.1058,-0.4989,0.2961
16:57:41:909,-0.4989,5.2295,6.719,37.8215,-0.2384,0.1489,-0.4724,0.2938
16:57:41:929,-0.7908,5.1529,6.6879,38.3772,-0.1403,0.1947,-0.3566,0.292
16:57:41:949,-0.7944,5.3336,6.3864,38.5964,-0.0979,0.2521,-0.1935,0.2905
16:57:41:973,-0.0909,5.9653,6.6532,39.1513,-0.1226,0.1859,0.1153,0.2891
16:57:41:991,0.4391,6.4391,7.1354,39.4109,-0.0954,0.1694,0.1953,0.288
16:57:42:009,0.7513,6.9835,7.8114,39.8199,-0.0475,0.1437,0.1633,0.2874
16:57:42:029,0.6221,7.0887,8.6417,39.7172,0.0664,0.1639,0.053,0.2874
16:57:42:050,0.1639,6.6736,8.7589,39.886,0.261,0.1416,-0.0878,0.2886
16:57:42:072,-0.7226,6.4678,8.6596,40.0798,0.3523,0.0942,-0.1868,0.2911
16:57:42:089,-1.2538,6.3147,8.9862,39.7934,0.217,0.1074,-0.0951,0.2933
16:57:42:111,-1.0134,6.396,10.002,39.5031,0.0075,0.3071,0.1526,0.2922
16:57:42:130,-0.792,7.1115,10.4877,39.3896,0.0072,0.5151,0.4204,0.2916
16:57:42:149,-0.0132,8.1954,10.0881,39.2363,0.1214,0.4162,0.5359,0.2926
16:57:42:169,0.3338,8.3737,10.2975,39.0764,0.1006,0.0515,0.4192,0.2938
16:57:42:190,0.347,7.9693,11.2881,39.4475,0.0093,-0.0851,0.3798,0.2944
16:57:42:210,0.6425,7.7839,11.6865,39.4124,0.0148,-0.0005,0.422,0.2949
16:57:42:231,0.8351,7.6857,11.3982,39.657,0.0912,0.1006,0.3749,0.296
16:57:42:251,-0.6485,6.2644,9.0688,39.946,0.2454,0.1807,0.1825,0.2981
16:57:42:270,-1.7563,5.4915,7.0744,40.3301,0.4812,0.3239,-0.1941,0.3007
16:57:42:292,-2.5974,4.5894,5.6495,40.6107,0.3395,0.202,-0.2558,0.303
16:57:42:310,-2.7685,3.8453,5.1565,41.1256,0.0411,0.0234,-0.1889,0.304
16:57:42:330,-2.217,3.4241,5.5884,41.1343,-0.3291,-0.0392,-0.0744,0.3026
16:57:42:350,-1.5386,3.1525,6.6197,40.9314,-0.619,0.1049,0.0047,0.2982
16:57:42:371,-1.1653,3.1334,7.3747,40.915,-0.6727,0.3276,0.0903,0.2852
16:57:42:390,-0.9775,3.3966,7.6152,41.153,-0.4531,0.3856,0.2042,0.2815
16:57:42:410,-0.7334,3.8752,6.9404,41.2313,-0.1235,0.294,0.3111,0.281
16:57:42:430,-0.3194,4.5643,6.0431,41.7809,0.0707,0.0612,0.4006,0.2823
16:57:42:449,0.1723,5.3157,5.7452,41.7759,0.0515,-0.1788,0.4369,0.2836
16:57:42:470,0.5539,5.8768,6.0347,41.8962,-0.0942,-0.254,0.3789,0.2834
16:57:42:492,0.28,6.1831,6.9763,42.3524,-0.3554,-0.002,0.1003,0.2814
16:57:42:512,-0.3147,5.9234,7.0863,42.7252,-0.2631,-0.0228,-0.0683,0.279
16:57:42:530,-0.8028,5.6949,6.8423,43.0529,-0.1321,-0.1358,-0.1801,0.2778
16:57:42:549,-1.2742,5.4688,6.7645,43.1719,-0.0814,-0.2424,-0.2298,0.2775
16:57:42:570,-1.4536,5.3659,7.0229,43.0674,-0.126,-0.2717,-0.2017,0.2775
16:57:42:590,-1.614,5.4329,7.4764,42.9231,-0.1996,-0.2243,-0.1211,0.2768
16:57:42:610,-1.4728,5.6973,8.2505,43.1151,-0.2204,-0.1736,0.0093,0.2754
16:57:42:631,-1.078,6.0383,8.8953,43.101,-0.0936,-0.1553,0.1196,0.2754
16:57:42:650,-0.7944,6.3063,9.0891,43.0837,0.1959,-0.2292,0.181,0.2793
16:57:42:670,-0.5767,6.6353,8.8606,42.9244,0.4717,-0.3132,0.2292,0.285
16:57:42:690,-0.213,7.2275,8.5436,42.9227,0.5939,-0.2265,0.2763,0.2906
16:57:42:709,-0.0861,7.9932,7.6487,42.8726,0.5686,-0.013,0.1956,0.2952
16:57:42:729,-0.4283,8.4144,7.0158,43.3707,0.414,-0.0573,0.0228,0.2987
16:57:42:751,-0.9212,8.2062,7.3496,43.6439,0.1654,-0.305,-0.0713,0.3007
16:57:42:770,-0.7202,7.9992,8.3964,43.6002,-0.1223,-0.5762,0.0796,0.3012
16:57:42:790,2.5376,8.4311,13.2275,43.7184,-0.3963,-0.7937,0.2925,0.3007
16:57:42:810,3.6371,8.3474,13.9561,44.0347,-0.0493,-0.4342,0.1394,0.3007
16:57:42:830,3.2471,8.0303,12.1053,44.2687,0.3713,-0.1067,-0.1944,0.3027
16:57:42:849,2.0602,6.8566,9.7723,44.4682,0.5435,-0.1287,-0.5557,0.3066
16:57:42:869,1.0181,5.1984,8.5256,44.739,0.5438,-0.3175,-0.7955,0.3114
16:57:42:893,0.2847,3.7196,7.7815,44.8376,0.5166,-0.4604,-0.8914,0.3207
16:57:42:910,-0.2859,2.4227,7.1665,45.3061,0.4888,-0.502,-0.8425,0.3248
16:57:42:930,-0.5276,1.7503,6.5791,45.6394,0.4143,-0.4226,-0.5961,0.3274
16:57:42:950,-0.213,1.9669,6.2237,45.964,0.1953,-0.202,-0.214,0.3272
16:57:42:971,0.4367,2.9647,6.0347,46.2272,-0.1074,0.1324,0.0945,0.324
16:57:43:007,0.7956,4.0666,5.9629,46.637,-0.3474,0.3563,0.2014,0.3195
16:57:43:009,0.9308,4.8598,6.1196,46.9464,-0.4317,0.3926,0.2023,0.3151
16:57:43:032,1.0337,5.2857,6.2536,47.2058,-0.3584,0.3151,0.1284,0.3123
16:57:43:050,0.8746,5.653,5.8768,47.4306,-0.0145,0.0976,0.0069,0.3114
16:57:43:069,0.8877,5.9713,5.4174,47.3837,0.046,0.1312,-0.0298,0.3116
16:57:43:090,0.8148,6.274,5.0716,47.5135,-0.0179,0.1865,-0.1211,0.3116
16:57:43:110,0.457,6.2441,5.0333,47.7132,-0.1245,0.1972,-0.2598,0.3107
16:57:43:129,-0.14,5.8301,5.3456,47.876,-0.1984,0.1849,-0.3496,0.3091
16:57:43:150,-0.548,5.5155,5.4473,48.0236,-0.2582,0.2469,-0.3193,0.3035
16:57:43:171,-0.6975,5.5155,5.5669,48.4878,-0.3355,0.2946,-0.224,0.2997
16:57:43:191,-0.5192,5.5777,5.9593,48.9161,-0.3865,0.2515,-0.1046,0.2961
16:57:43:210,-0.1854,5.8804,6.5791,49.1792,-0.3624,0.1516,0.0279,0.2935
16:57:43:230,0.3123,6.4128,7.0158,49.496,-0.2619,-0.0292,0.1373,0.2926
16:57:43:250,0.9835,6.9655,7.9992,50.0394,-0.1348,-0.3089,0.1733,0.2937
16:57:43:270,1.6439,7.1426,9.4732,50.26,0.0115,-0.4253,0.122,0.2957
16:57:43:291,0.7214,6.9954,9.8261,50.2544,0.2915,0.2378,-0.184,0.2975
16:57:43:309,-0.4558,6.9057,8.8283,50.2118,0.3172,0.422,-0.2078,0.299
16:57:43:329,-0.7609,7.0851,8.5567,49.6399,0.1837,0.4097,-0.0854,0.2999
16:57:43:349,-0.4307,7.6164,9.4708,48.9669,0.0105,0.4244,0.0661,0.2996
16:57:43:369,-0.2381,8.4179,10.0989,48.397,0.0057,0.4268,0.0973,0.2984
16:57:43:389,-0.3829,8.5603,10.4734,47.7207,0.0704,0.3242,-0.0102,0.2978
16:57:43:410,-0.8818,7.6881,10.7342,47.3929,0.0954,0.2323,-0.0347,0.2981
16:57:43:429,-0.999,7.206,10.8909,47.3019,0.0667,0.1944,0.1578,0.2979
16:57:43:449,-0.5013,7.2275,10.9699,47.1173,-0.0029,0.1959,0.3364,0.2974
16:57:43:469,-0.2381,7.2395,11.4461,47.133,0.0377,0.1889,0.3254,0.2981
16:57:43:489,-0.5432,6.7585,11.1984,47.1792,0.3282,0.3395,0.1391,0.3005
16:57:43:509,-1.5733,5.6542,8.9444,47.2823,0.6556,0.6391,-0.0994,0.3039
16:57:43:529,-2.7685,4.7533,6.329,47.2321,0.7347,0.6981,-0.1712,0.3071
16:57:43:550,-3.2913,4.1252,4.5284,47.2654,0.5399,0.4635,-0.108,0.3091
16:57:43:569,-2.668,3.3691,5.2762,47.2549,-0.2549,-0.0744,0.1801,0.3087
16:57:43:589,-2.0267,3.2459,6.6221,47.4801,-0.5563,0.0115,0.3288,0.3055
16:57:43:609,-1.3555,3.2901,7.8855,47.687,-0.5927,0.2219,0.5093,0.3002
16:57:43:629,-0.6126,3.8357,7.785,47.7346,-0.3471,0.3526,0.6535,0.2954
16:57:43:649,-0.2094,4.5799,6.9511,48.1741,-0.0777,0.2433,0.6987,0.2931
16:57:43:670,0.2321,5.1374,6.2871,48.5621,0.0576,0.0536,0.7173,0.2948
16:57:43:690,0.8004,5.7799,6.1017,49.0579,0.0637,-0.0444,0.6785,0.2961
16:57:43:709,1.1234,6.2596,5.9785,49.2046,-0.0191,0.0099,0.5176,0.2962
16:57:43:729,0.8279,6.3948,5.6925,49.4148,-0.1248,0.1043,0.2772,0.295
16:57:43:749,0.0335,6.2201,5.598,49.3852,-0.2405,0.0524,0.0713,0.2932
16:57:43:769,-0.5827,5.8038,6.1472,49.7468,-0.2925,-0.0655,-0.0316,0.2915
16:57:43:789,-0.993,5.4568,6.7597,49.9741,-0.2601,-0.1648,-0.0463,0.2904
16:57:43:810,-1.5147,5.5525,7.3567,50.2315,-0.0988,-0.1654,0.1043,0.2899
16:57:43:829,-1.3902,6.122,7.4273,50.5982,-0.0069,-0.1626,0.1972,0.29
16:57:43:849,-1.2754,6.6209,7.4943,50.5772,0.1013,-0.2176,0.2066,0.2912
16:57:43:869,-1.2491,6.8542,7.6391,51.2817,0.21,-0.3392,0.1923,0.2936
16:57:43:889,-0.8877,6.8459,8.2445,51.654,0.2998,-0.4876,0.2228,0.2974
16:57:43:909,-0.2249,7.3304,8.8307,51.9129,0.3615,-0.3596,0.2201,0.302
16:57:43:931,-0.5109,7.7037,8.4682,52.475,0.3682,-0.1407,0.0826,0.3094
16:57:43:950,-1.3065,7.407,8.3581,53.3528,0.3129,-0.2479,0.0768,0.3132
16:57:43:969,-0.8901,7.7121,8.9145,53.822,0.2512,-0.4479,0.2955,0.3169
16:57:43:989,0.4223,8.4491,9.9386,54.2804,0.1309,-0.5802,0.4745,0.3198
16:57:44:009,1.9047,8.8857,11.214,55.1484,0.0243,-0.476,0.542,0.3217
16:57:44:029,2.948,8.9647,11.6411,55.1971,0.0567,-0.1999,0.4696,0.3233
16:57:44:049,3.0724,8.796,10.8742,55.7019,0.2173,0.0203,0.2668,0.3257
16:57:44:071,2.4538,7.8999,9.3248,56.3221,0.3386,-0.0197,-0.031,0.329
16:57:44:090,1.255,4.739,9.0832,56.8066,0.323,-0.3089,-0.2644,0.3325
16:57:44:109,1.0899,3.4421,8.7984,57.2456,0.2989,-0.1721,-0.3163,0.3353
16:57:44:129,1.1055,3.003,7.6427,57.5787,0.3199,0.1052,-0.1804,0.337
16:57:44:149,1.6056,3.6108,6.3182,57.6811,0.2353,0.1984,-0.0304,0.338
16:57:44:169,2.1691,4.5392,5.6172,57.9292,0.0417,0.1636,-0.0063,0.3382
16:57:44:190,2.333,5.3444,5.4604,58.5795,-0.1975,0.1483,-0.0817,0.3339
16:57:44:210,2.2325,5.7918,5.7033,58.8225,-0.4103,0.1361,-0.2109,0.3299
16:57:44:229,1.8891,5.793,6.4032,59.4788,-0.4638,0.0597,-0.3422,0.3264
16:57:44:249,1.5075,5.5286,6.6257,59.7445,-0.3471,-0.0014,-0.4293,0.3239
16:57:44:269,1.0181,5.3946,6.4845,59.8033,-0.232,-0.0347,-0.4549,0.322
16:57:44:289,0.7226,5.4126,6.451,60.0783,-0.1742,-0.0203,-0.4268,0.3204
16:57:44:309,0.4917,5.4975,6.408,60.3339,-0.1242,0.0451,-0.418,0.3191
16:57:44:331,0.2166,5.4879,6.2046,60.3569,-0.0722,0.0979,-0.4186,0.3179
16:57:44:350,-0.2477,5.257,5.4209,60.5428,-0.0371,0.1629,-0.4162,0.3167
16:57:44:369,-0.39,5.2881,5.1111,60.8161,-0.1193,0.2427,-0.3019,0.3151
16:57:44:389,-0.2357,5.4437,5.2295,60.9162,-0.224,0.2246,-0.1846,0.3129
16:57:44:409,0.0945,5.7308,5.7607,61.3112,-0.2674,0.1801,-0.067,0.3102
16:57:44:429,0.5587,6.2177,6.3015,61.6937,-0.2335,0.0979,0.0194,0.3079
16:57:44:451,0.9763,6.6736,6.8447,61.9312,-0.1962,0.0124,0.0505,0.3053
16:57:44:471,1.2873,7.0241,7.6092,62.2251,-0.1422,-0.0429,0.0283,0.3049
16:57:44:489,1.3543,7.2431,8.3186,62.7026,-0.0536,-0.0133,-0.0408,0.3051
16:57:44:509,1.1366,7.389,8.6776,62.7818,0.0906,0.0493,-0.137,0.3063
16:57:44:529,0.5707,7.3974,8.4491,63.2938,0.2472,0.0683,-0.2863,0.3082
16:57:44:550,-0.4953,7.2311,8.2588,63.5114,0.2601,0.06,-0.396,0.3094
16:57:44:569,-0.9308,7.0887,8.5663,63.4841,0.1239,0.1284,-0.2912,0.3088
16:57:44:591,-0.6138,7.48,9.2112,63.8023,-0.0408,0.4107,0.0884,0.3071
16:57:44:610,0.2082,9.2842,9.3727,64.4626,0.1284,0.3377,0.0576,0.3064
16:57:44:630,-0.2106,8.8678,8.8558,64.9503,0.1532,0.1339,-0.1507,0.3073
16:57:44:649,-0.9823,7.5254,9.393,65.3457,0.0127,-0.093,-0.1788,0.3081
16:57:44:669,-1.0409,6.7286,10.6277,66.1034,-0.067,-0.2146,0.0188,0.3083
16:57:44:690,-0.5934,6.3924,11.281,66.627,0.0255,-0.1565,0.254,0.3085
16:57:44:711,-0.0933,6.4367,11.3133,67.12,0.2521,-0.0301,0.3694,0.3126
16:57:44:731,-0.1101,6.5731,10.1324,67.831,0.5423,0.2323,0.2442,0.3163
16:57:44:750,-1.2849,6.1029,7.6044,67.9799,0.68,0.505,-0.0044,0.3196
16:57:44:769,-2.4766,5.4389,5.3276,67.987,0.5567,0.5029,-0.1437,0.3215
16:57:44:789,-3.0461,4.7007,4.1468,68.0432,0.2268,0.2246,-0.1498,0.3212
16:57:44:809,-2.7996,4.1611,4.7222,68.2177,-0.2326,-0.0551,-0.0368,0.3178
16:57:44:829,-2.1272,3.8022,6.1914,68.2034,-0.6232,-0.0591,0.0667,0.3118
16:57:44:850,-1.6582,3.4588,7.6307,67.9818,-0.7405,0.0909,0.1773,0.3055
16:57:44:870,-0.396,4.3932,7.2885,67.8586,-0.5722,0.2436,0.3713,0.301
16:57:44:889,0.4367,5.3157,6.4283,67.8577,-0.17,0.115,0.6862,0.2988
16:57:44:909,1.279,6.1998,6.1232,67.8625,-0.1321,-0.0719,0.688,0.2985
16:57:44:929,1.9549,6.8961,6.1208,67.9561,-0.1724,-0.1226,0.5307,0.2987
16:57:44:949,1.7037,6.9978,6.1089,68.3974,-0.2396,-0.0774,0.2155,0.2983
16:57:44:970,0.743,6.3697,5.9462,68.5743,-0.2815,-0.0841,-0.0832,0.2971
16:57:45:008,-0.2692,5.7081,6.1519,68.5374,-0.3218,-0.1385,-0.2433,0.293
16:57:45:009,-1.1833,5.0381,6.4187,68.7149,-0.3633,-0.1449,-0.2818,0.2903
16:57:45:029,-1.9202,4.7318,6.8782,68.9134,-0.3551,-0.2017,-0.1923,0.2882
16:57:45:049,-2.0399,4.7127,7.4022,69.1909,-0.2741,-0.2784,-0.0301,0.2872
16:57:45:070,-1.5972,5.0632,8.0172,69.53,-0.1361,-0.268,0.1333,0.2875
16:57:45:090,-1.1689,5.4772,8.0339,70.1471,0.0591,-0.1755,0.2509,0.2894
16:57:45:111,-0.8698,6.134,7.5864,70.1857,0.2497,-0.17,0.3673,0.2931
16:57:45:130,-0.4475,6.9823,7.3364,70.6708,0.4345,-0.4546,0.3682,0.2983
16:57:45:149,0.5803,7.9202,8.1739,71.4194,0.403,-0.4458,0.2647,0.304
16:57:45:170,0.1005,8.2708,8.1835,71.9257,0.367,-0.0542,0.0845,0.3085
16:57:45:189,-0.9595,8.1787,7.3065,72.5115,0.3093,0.0414,-0.0548,0.3114
16:57:45:209,-1.4524,8.0818,7.8951,72.942,0.1822,-0.3178,-0.0328,0.3141
16:57:45:230,-0.2704,7.7085,9.3679,73.445,0.0295,-0.5463,0.1584,0.3168
16:57:45:251,1.5553,7.9597,10.855,73.5522,-0.1678,-0.5765,0.2891,0.3183
16:57:45:270,2.9994,7.9956,12.7214,74.1303,-0.2796,-0.3859,0.2934,0.3175
16:57:45:290,4.1719,7.9837,12.9894,74.4437,-0.0344,-0.038,0.2317,0.3184
16:57:45:311,4.2066,8.1212,11.0154,74.6339,0.3071,-0.0029,-0.0609,0.3217
16:57:45:330,3.2758,6.8686,9.6012,74.8648,0.3923,-0.2857,-0.4168,0.3255
16:57:45:350,2.4526,5.0321,8.8881,74.9445,0.3364,-0.3239,-0.5744,0.3281
16:57:45:371,0.926,3.405,6.7537,75.0984,0.2833,-0.1663,-0.5896,0.3298
16:57:45:391,1.127,3.807,6.1759,75.1784,0.0854,-0.1495,-0.341,0.3307
16:57:45:411,1.3292,4.4423,6.207,75.1185,-0.0857,-0.1443,-0.3245,0.3306
16:57:45:430,1.0564,4.7509,6.1113,75.0876,-0.2011,-0.1391,-0.3804,0.3294
16:57:45:450,0.6688,4.7462,6.1807,75.0756,-0.2512,-0.2308,-0.4293,0.3277
16:57:45:470,0.4606,4.721,6.4654,75.1372,-0.2821,-0.3083,-0.4326,0.326
16:57:45:490,0.3553,4.7354,6.938,75.0522,-0.2885,-0.2482,-0.3899,0.3241
16:57:45:511,0.4582,4.8215,7.0744,75.2254,-0.2188,-0.1135,-0.3166,0.3205
16:57:45:530,0.7119,5.1829,6.8471,75.0519,-0.0811,0.0215,-0.264,0.3199
16:57:45:550,0.9894,5.6291,6.3434,74.9543,0.0454,0.1275,-0.2659,0.3198
16:57:45:570,0.9703,6.0287,5.8217,75.0765,0.078,0.1886,-0.3248,0.3197
16:57:45:590,0.6796,6.1998,5.6435,74.934,0.0298,0.1987,-0.3932,0.3191
16:57:45:609,0.2824,6.0096,5.7655,74.6324,-0.0365,0.1874,-0.4052,0.318
16:57:45:631,0.0861,5.7691,5.9856,74.4927,-0.0716,0.1669,-0.3144,0.3171
16:57:45:651,0.6197,6.2417,6.5946,74.4915,-0.0411,0.1324,-0.1691,0.3168
16:57:45:669,0.8602,6.4319,7.0421,74.4165,0.1193,0.0389,-0.0298,0.3175
16:57:45:690,0.8961,6.7442,7.2694,74.47,0.2008,0.0997,-0.0157,0.3188
16:57:45:710,0.6879,6.9535,7.5326,74.6424,0.2909,0.1098,-0.0487,0.3206
16:57:45:730,0.3924,7.0361,7.803,74.6803,0.414,0.111,-0.111,0.3234
16:57:45:749,-0.0634,7.0361,7.5171,74.7133,0.4873,0.1211,-0.1972,0.3268
16:57:45:771,-0.4463,6.8411,7.5649,74.847,0.4262,0.104,-0.1889,0.3328
16:57:45:790,0.3278,7.3639,8.2528,74.9711,0.2702,0.2091,-0.0463,0.3332
16:57:45:809,0.8279,8.4108,9.2447,75.002,0.0964,0.5783,-0.0432,0.3316
16:57:45:829,0.1496,8.8451,9.0664,74.693,0.1278,0.98,-0.089,0.3306
16:57:45:849,-0.8148,9.0114,7.4429,74.3759,0.29,0.8444,-0.0667,0.3317
16:57:45:871,-1.346,9.2435,6.6999,74.215,0.203,0.2078,0.0108,0.333
16:57:45:892,-0.0371,8.0782,11.5262,73.8477,-0.1403,-0.3972,0.162,0.3327
16:57:45:912,0.2644,7.5147,12.5109,73.7041,-0.3328,-0.3755,0.337,0.3311
16:57:45:930,-0.207,7.2658,11.2905,73.5325,0.2781,0.399,0.3496,0.3307
16:57:45:949,-1.145,6.9177,8.8869,73.1967,0.651,0.5099,0.1996,0.3331
16:57:45:970,-2.5149,6.3529,6.2321,72.8163,0.721,0.487,0.0334,0.3372
16:57:45:991,-3.4301,5.7332,4.6409,72.753,0.4601,0.2753,-0.0283,0.3409
16:57:46:009,-3.4086,4.9077,4.6122,72.8682,0.0142,-0.0435,0.0258,0.3426
16:57:46:031,-2.4586,4.3454,6.0144,72.3495,-0.4116,-0.2225,0.1642,0.3376
16:57:46:050,-1.2491,4.0295,7.7133,72.3572,-0.6406,-0.1278,0.2653,0.3323
16:57:46:071,-0.335,3.9721,8.7482,71.9207,-0.5689,0.1446,0.3517,0.3276
16:57:46:091,0.25,4.3956,8.3773,71.7068,-0.3163,0.4467,0.4348,0.3243
16:57:46:111,0.5659,4.8969,7.1713,71.3666,-0.1013,0.6031,0.5038,0.3225
16:57:46:130,0.7729,5.2451,6.1376,71.1502,-0.0105,0.5548,0.5945,0.3218
16:57:46:151,1.0433,5.8038,5.7224,70.7801,0.0008,0.3367,0.618,0.3221
16:57:46:171,1.2036,6.1771,5.9019,70.4423,0.0234,0.0951,0.5203,0.3234
16:57:46:191,0.4259,6.5204,5.3492,70.717,0.1492,0.027,0.1678,0.3251
16:57:46:210,-0.3398,6.6042,4.8108,70.2452,0.0432,-0.0029,-0.0005,0.3263
16:57:46:232,-0.987,6.4941,4.9316,69.9006,-0.1516,-0.0539,-0.1214,0.3263
16:57:46:249,-1.5781,6.1843,5.4233,69.3671,-0.3077,-0.078,-0.1636,0.3248
16:57:46:269,-1.8305,6.0323,6.0275,69.1409,-0.399,-0.1321,-0.0909,0.3223
16:57:46:291,-1.5314,6.2345,6.9619,69.1408,-0.3911,-0.1602,0.0377,0.3175
16:57:46:310,-1.0289,6.6808,7.7515,68.9153,-0.2311,-0.1611,0.1266,0.3173
16:57:46:330,-0.6173,7.1581,7.8891,68.9622,0.027,-0.1691,0.1504,0.3192
16:57:46:349,-0.5157,7.4189,7.5434,68.5229,0.225,-0.214,0.1422,0.3225
16:57:46:371,-0.3015,7.6128,7.3531,68.7393,0.2946,-0.2604,0.1837,0.3261
16:57:46:390,0.4738,8.0662,7.7659,68.8359,0.29,-0.2097,0.2262,0.3292
16:57:46:411,0.8375,8.8343,7.852,68.723,0.2995,0.0765,0.1141,0.3314
16:57:46:430,0.0682,8.8881,7.1186,68.579,0.3419,0.1684,-0.111,0.3345
16:57:46:449,-1.2479,7.9502,7.7647,68.0224,0.0518,-0.8208,-0.0365,0.3385
16:57:46:469,0.0562,7.8389,9.5222,67.867,-0.2863,-0.8786,0.3331,0.3408
16:57:46:489,1.7037,8.5902,11.5681,67.3636,-0.4433,-0.7115,0.5108,0.3406
16:57:46:509,2.8834,8.9862,12.4714,66.9473,-0.2656,-0.4012,0.4042,0.3395
16:57:46:530,2.9504,8.7159,11.3348,66.4878,0.0576,-0.148,0.1159,0.3396
16:57:46:551,2.1416,7.9454,9.6227,66.0392,0.1849,-0.1361,-0.1984,0.3429
16:57:46:570,1.2538,6.4463,9.0772,65.7388,0.1944,-0.3239,-0.4097,0.3454
16:57:46:590,0.8052,4.9531,8.9898,65.2446,0.2976,-0.4082,-0.4766,0.3487
16:57:46:610,0.4786,3.6969,8.0315,65.2343,0.4348,-0.2986,-0.4742,0.3521
16:57:46:630,0.2249,3.2291,6.7609,64.7947,0.429,-0.1177,-0.3624,0.3541
16:57:46:649,0.347,3.5809,5.6949,64.3848,0.2439,0.0542,-0.1965,0.3542
16:57:46:672,0.7334,4.4267,5.2259,64.2909,-0.0026,0.1129,-0.0979,0.3527
16:57:46:692,1.0744,5.1529,5.1841,63.7826,-0.3105,0.0673,-0.2442,0.3503
16:57:46:710,0.859,5.8038,5.3204,63.5735,-0.3966,0.0224,-0.3783,0.3471
16:57:46:730,0.3924,5.6088,5.6195,63.2322,-0.4308,-0.0057,-0.4497,0.3435
16:57:46:750,0,5.6028,6.0694,62.958,-0.411,-0.0264,-0.4406,0.3398
16:57:46:770,-0.1807,5.7105,6.3721,62.6967,-0.3435,0.0063,-0.3951,0.3364
16:57:46:790,-0.1854,5.9007,6.2991,62.3376,-0.261,0.0643,-0.348,0.3335
16:57:46:811,-0.1866,6.1627,6.1412,62.09,-0.213,0.1205,-0.3435,0.3286
16:57:46:831,-0.3876,6.122,6.1161,61.7227,-0.2014,0.1956,-0.3606,0.3262
16:57:46:850,-0.7155,5.878,5.8887,61.6403,-0.1718,0.2836,-0.3276,0.3239
16:57:46:870,-0.8973,5.8828,5.5801,61.3055,-0.1575,0.2802,-0.2359,0.3217
16:57:46:891,-0.8171,5.9665,5.549,61.0984,-0.1874,0.2304,-0.137,0.3195
16:57:46:910,-0.6054,6.0012,6.146,60.8957,-0.2262,0.126,-0.0313,0.3176
16:57:46:930,-0.2118,6.0682,7.0397,60.5034,-0.1947,0.0735,0.0948,0.3165
16:57:46:951,0.9117,7.0971,7.6762,60.4132,0.1263,0.1443,0.1907,0.3167
16:57:46:969,1.0122,7.5386,7.5888,60.3524,0.2338,0.1736,0.0625,0.3181
16:57:46:989,0.6592,7.6056,7.2562,60.4089,0.2625,0.279,-0.0893,0.3198
16:57:47:035,0.0562,7.7515,7.0253,60.1538,0.1947,0.3312,-0.2387,0.321
16:57:47:035,-0.6903,7.6594,7.3831,60.0272,0.0249,0.3374,-0.3248,0.321
16:57:47:049,-0.5958,7.3675,8.6106,60.0067,-0.1694,0.3169,-0.2705,0.3193
16:57:47:073,-0.3565,7.3484,10.2796,59.8964,-0.1578,0.4232,-0.1465,0.3146
16:57:47:090,-0.2118,8.0231,10.5272,59.3628,0.1651,0.604,0.0463,0.3157
16:57:47:109,-0.1268,9.2363,8.8522,59.2249,0.4888,0.483,0.0808,0.3193
16:57:47:130,-0.5252,9.6802,7.8987,58.978,0.4504,0.016,-0.0622,0.3225
16:57:47:149,-0.7537,8.9276,8.9695,58.1325,0.0918,-0.3233,-0.1177,0.3231
16:57:47:169,-0.615,8.1248,10.4483,57.8522,-0.1703,-0.2625,-0.0713,0.3222
16:57:47:190,-0.7095,7.3125,10.9759,57.5106,-0.0585,-0.1287,-0.0194,0.323
16:57:47:210,-0.6951,6.7143,10.3896,57.0638,0.3163,0.0243,-0.0035,0.3262
16:57:47:229,-2.8558,5.537,5.8002,56.805,0.6526,0.4436,-0.3028,0.3299
16:57:47:249,-3.8309,4.7378,3.9685,56.8081,0.3761,0.367,-0.2497,0.3325
16:57:47:269,-4.0546,4.0845,3.6586,56.6749,-0.0988,0.0866,-0.0744,0.3328
16:57:47:290,-3.4217,3.8225,5.0728,56.2599,-0.5756,-0.0851,0.1593,0.33
16:57:47:309,-2.3677,3.7795,6.725,55.9903,-0.8401,-0.006,0.3294,0.3243
16:57:47:330,-1.4836,3.9135,7.7037,55.7958,-0.8661,0.1981,0.4522,0.3098
16:57:47:350,-0.6712,4.5571,7.8197,55.4195,-0.7155,0.3221,0.5621,0.3043
16:57:47:369,-0.0167,5.1924,7.3675,54.5647,-0.4916,0.2686,0.6235,0.3012
16:57:47:389,0.5647,5.866,6.8889,54.2344,-0.3117,0.0832,0.6373,0.3
16:57:47:409,1.1163,6.5348,6.8219,53.9126,-0.2445,-0.0838,0.5621,0.2992
16:57:47:429,1.2646,6.9236,7.1856,53.313,-0.2576,-0.1013,0.3664,0.2981
16:57:47:449,0.664,6.6245,7.2754,53.0653,-0.2161,-0.0154,0.1016,0.297
16:57:47:470,-1.1868,5.5848,6.4152,52.8809,-0.0353,-0.0768,-0.1529,0.2967
16:57:47:489,-1.6953,5.1494,6.2788,52.6393,-0.0615,-0.0701,-0.1211,0.2965
16:57:47:509,-1.9561,5.0728,6.2201,52.5601,-0.1177,0.02,-0.0121,0.2958
16:57:47:529,-2.0363,5.3456,6.2931,52.8002,-0.1596,0.0353,0.1046,0.2945
16:57:47:548,-1.9693,5.6698,6.6891,52.36,-0.1684,0.0194,0.1895,0.2932
16:57:47:569,-1.9645,5.9127,7.1677,52.1695,-0.1119,0.064,0.2585,0.2921
16:57:47:590,-2.0471,6.2273,7.2383,52.5086,0.0093,0.0695,0.3303,0.2927
16:57:47:610,-2.1105,6.5109,7.2574,52.364,0.1211,-0.0579,0.4366,0.2951
16:57:47:629,-1.5254,6.8638,7.7934,52.5941,0.1416,-0.2375,0.5872,0.2978
16:57:47:649,-0.3948,7.8042,8.991,52.7058,0.1116,-0.1526,0.6526,0.2997
16:57:47:669,-0.2357,8.4156,9.149,52.9393,0.1654,0.0741,0.4885,0.3019
16:57:47:690,-0.6903,8.1823,8.6656,53.1876,0.2384,-0.1205,0.3694,0.3057
16:57:47:709,-0.2776,8.1165,9.3918,53.7584,0.2326,-0.4818,0.549,0.3103
16:57:47:731,1.5613,8.9061,10.3418,54.0525,0.1788,-0.6516,0.7622,0.3145
16:57:47:749,4.4722,9.8213,12.2285,54.0647,0.0783,-0.2115,0.4015,0.3172
16:57:47:769,3.7663,9.1143,10.8359,54.3835,0.2705,0.0722,-0.0145,0.3191
16:57:47:789,2.4096,7.797,8.8511,54.6314,0.4082,-0.06,-0.3642,0.3218
16:57:47:809,1.1916,5.9234,8.1177,54.5348,0.4094,-0.3786,-0.5875,0.3256
16:57:47:829,0.408,4.1671,7.8951,54.3863,0.3957,-0.5163,-0.6409,0.3298
16:57:47:851,0.1591,3.0197,7.3878,54.2277,0.3532,-0.4055,-0.5521,0.3357
16:57:47:870,0.3757,2.6931,6.6162,53.8512,0.1758,-0.191,-0.3752,0.3354
16:57:47:890,0.9117,3.2363,6.2393,53.698,-0.1107,0.0087,-0.2054,0.3326
16:57:47:909,1.3866,4.1169,6.1998,53.4286,-0.3346,0.1104,-0.1868,0.3286
16:57:47:930,1.4788,4.7067,6.2465,53.1975,-0.4195,0.0948,-0.272,0.3246
16:57:47:949,1.2407,5.0369,6.3685,53.1807,-0.4067,0.0111,-0.374,0.3211
16:57:47:969,0.938,5.0776,6.3111,53.2565,-0.3621,-0.0307,-0.4345,0.318
16:57:47:991,0.6987,5.1458,6.1986,53.1799,-0.3245,-0.0582,-0.4424,0.3152
16:57:48:010,0.5121,5.6076,6.3577,53.3469,-0.2845,-0.0738,-0.4381,0.3127
16:57:48:029,0.414,5.8684,6.4259,53.3469,-0.2466,-0.0524,-0.4708,0.3103
16:57:48:049,0.2106,5.9821,6.6389,53.103,-0.2149,0.0191,-0.5124,0.3082
16:57:48:069,-0.1029,5.7547,6.5946,52.9232,-0.1578,0.1391,-0.5356,0.306
16:57:48:089,-0.3673,5.7619,6.2201,52.7627,-0.0799,0.2369,-0.4852,0.304
16:57:48:111,-0.4439,5.9749,5.6626,52.5311,-0.0283,0.2353,-0.4134,0.3015
16:57:48:130,-0.5288,6.14,5.403,52.2484,-0.0365,0.1602,-0.3505,0.3006
16:57:48:149,-0.4427,6.2237,5.5466,52.3567,-0.0768,0.0753,-0.2595,0.2998
16:57:48:170,-0.2201,6.5061,6.1173,52.3328,-0.1348,0.0023,-0.1672,0.2987
16:57:48:190,0.0658,6.8877,7.121,52.2936,-0.1575,-0.024,-0.1312,0.2978
16:57:48:210,0.0502,6.9236,7.986,52.2086,-0.108,0.0283,-0.1938,0.297
16:57:48:230,-0.5803,6.6317,8.4861,52.2937,-0.0191,0.056,-0.2549,0.2971
16:57:48:251,-1.0899,6.4164,9.0556,52.6045,0.1324,0.0115,-0.2439,0.2985
16:57:48:270,-1.7408,6.5468,8.9468,52.6047,0.297,0.0591,-0.2039,0.3006
16:57:48:289,-1.0564,7.5888,8.9707,52.512,0.173,0.4009,0.1733,0.3018
16:57:48:309,-0.7226,8.4383,9.4193,52.039,0.049,0.4482,0.2424,0.3015
16:57:48:329,-0.2835,8.9874,9.8142,51.7493,0.0838,0.2329,0.2417,0.3014
16:57:48:349,-0.4211,8.7936,10.7378,51.7559,0.1746,-0.2097,0.1122,0.3028
16:57:48:371,-0.8506,7.7982,12.0311,51.918,0.3358,-0.5038,0.0609,0.3112
16:57:48:391,-0.9033,6.9918,11.939,51.6875,0.5356,-0.4745,0.1785,0.317
16:57:48:409,-0.5025,6.7119,11.3204,51.1625,0.578,-0.3105,0.4137,0.3222
16:57:48:429,-0.1496,6.7549,11.0656,50.9173,0.5945,-0.031,0.5215,0.3273
16:57:48:449,-0.3817,6.6257,9.4995,50.7988,0.7756,0.3777,0.3954,0.3325
16:57:48:470,-1.4166,6.1591,6.6844,50.6361,0.874,0.6675,0.1507,0.3368
16:57:48:489,-2.3761,5.6351,4.1731,50.4323,0.6752,0.6877,0.0399,0.339
16:57:48:511,-2.4981,5.1972,3.0138,49.7511,0.214,0.4488,0.0313,0.3378
16:57:48:530,-1.9729,3.9171,4.9531,49.2118,-0.7814,0.057,0.0961,0.3331
16:57:48:549,-1.5063,3.5916,6.6604,48.943,-0.9274,0.075,0.2381,0.3258
16:57:48:569,-0.8231,3.8249,7.5852,48.9415,-0.7277,0.1193,0.4412,0.3186
16:57:48:589,-0.0419,4.7043,7.2335,48.6834,-0.4128,0.0854,0.5741,0.3139
16:57:48:610,0.6401,5.4999,6.6927,48.1875,-0.2326,-0.0307,0.6034,0.3118
16:57:48:631,1.1749,6.2776,6.4558,48.0727,-0.2051,-0.108,0.5573,0.3105
16:57:48:651,1.4417,6.9129,6.5827,47.9977,-0.2167,-0.1226,0.3896,0.3099
16:57:48:669,1.2239,6.9188,6.4211,47.8706,-0.1859,-0.0771,0.1147,0.3091
16:57:48:689,0.4367,6.4427,6.0347,47.9168,-0.1394,-0.0683,-0.1306,0.3085
16:57:48:709,-0.2788,5.9844,5.8959,47.4754,-0.1214,-0.1153,-0.254,0.3078
16:57:48:729,-0.883,5.5585,5.9234,47.1097,-0.1339,-0.1361,-0.2955,0.3069
16:57:48:749,-1.261,5.4257,6.0718,46.8588,-0.1657,-0.1535,-0.2512,0.3057
16:57:48:771,-1.48,5.8421,6.8279,46.8941,-0.2265,-0.1764,-0.0298,0.3042
16:57:48:790,-1.1821,6.3721,7.2598,46.5634,-0.1425,-0.2094,0.0848,0.3032
16:57:48:809,-0.9835,6.8387,7.4333,46.1282,0.0121,-0.3285,0.129,0.3036
16:57:48:829,-1.1294,6.8148,7.9346,46.1152,0.1868,-0.5655,0.1501,0.306
16:57:48:850,-1.0899,6.6377,9.07,45.8815,0.3651,-0.7763,0.2405,0.3107
16:57:48:869,-0.213,7.084,10.0092,45.7841,0.5841,-0.5954,0.3404,0.3171
16:57:48:889,-0.0562,7.9872,9.1633,45.9011,0.7454,-0.1608,0.2414,0.3239
16:57:48:911,-0.9607,7.9789,7.8305,45.6501,0.5881,-0.0267,0.1807,0.3338
16:57:48:929,-0.7956,8.2947,8.12,45.305,0.261,-0.1153,0.4186,0.3361
16:57:48:949,0.591,9.1286,9.2076,45.374,0.0136,-0.2866,0.6446,0.3375
16:57:48:970,2.4347,9.8572,10.5177,45.3448,-0.1046,-0.3804,0.648,0.3387
16:57:48:989,3.7998,9.6132,11.3815,45.176,-0.031,-0.2689,0.4061,0.3401
16:57:49:009,3.6503,8.9408,10.5858,44.7371,0.2091,-0.0038,0.0325,0.3425
16:57:49:040,2.2935,7.9334,8.6979,44.7241,0.4058,0.0078,-0.3361,0.3461
16:57:49:050,0.14,4.7019,7.2897,44.0031,0.3432,-0.4378,-0.6342,0.35
16:57:49:069,-0.2046,3.4158,7.3089,43.5024,0.1684,-0.4131,-0.5395,0.3526
16:57:49:089,0.0646,2.9169,7.2646,43.0684,-0.0038,-0.2894,-0.275,0.3535
16:57:49:109,0.9751,3.6467,7.4524,42.6073,-0.1797,-0.1681,0.0163,0.3526
16:57:49:129,1.9621,4.8144,7.6798,42.2799,-0.2903,0.0509,0.1208,0.3503
16:57:49:149,2.2804,5.671,7.2885,41.7856,-0.2601,0.2497,0.0286,0.3471
16:57:49:171,1.8616,6.1603,6.3745,41.468,-0.1373,0.272,-0.1348,0.3429
16:57:49:189,1.2634,6.1029,5.3767,41.0634,-0.0551,0.1129,-0.2824,0.3424
16:57:49:209,0.7298,5.7787,5.0752,40.7119,-0.0762,-0.0744,-0.3355,0.3419
16:57:49:229,0.6066,5.744,5.2786,40.5064,-0.1248,-0.13,-0.3117,0.341
16:57:49:249,0.6389,5.8493,5.5825,40.0593,-0.1507,-0.0509,-0.319,0.3397
16:57:49:269,0.5252,5.9797,5.6746,39.5112,-0.1348,0.0539,-0.3624,0.3383
16:57:49:291,0.2477,5.9593,5.5693,39.198,-0.1003,0.1196,-0.4064,0.3369
16:57:49:310,-0.207,5.9593,5.4616,39.0288,-0.0881,0.1559,-0.407,0.3355
16:57:49:329,-0.189,6.0622,5.3779,38.9319,-0.1141,0.2695,-0.2912,0.3337
16:57:49:349,-0.1819,6.2022,5.2152,38.6019,-0.1251,0.2686,-0.2308,0.3319
16:57:49:369,-0.1172,6.3242,5.4042,38.6856,-0.152,0.1629,-0.1642,0.3302
16:57:49:389,0.055,6.3781,5.9976,38.7488,-0.1581,0.0515,-0.0722,0.3287
16:57:49:410,0.4941,6.7107,6.749,39.1058,-0.1159,-0.0234,0.0127,0.3278
16:57:49:431,0.804,7.005,7.4584,39.0685,-0.0353,-0.0154,0.0038,0.3277
16:57:49:449,0.7119,7.2957,7.8748,38.9568,0.0845,0.0713,-0.0817,0.3286
16:57:49:469,0.1615,7.4261,7.4764,38.6776,0.1807,0.1052,-0.2314,0.3297
16:57:49:489,-0.7513,7.1234,7.4764,38.4283,0.1266,-0.0301,-0.3013,0.3302
16:57:49:509,-0.6413,6.9583,8.5938,38.1906,-0.067,-0.0854,-0.1413,0.3287
16:57:49:530,0.0263,7.3256,10.4782,37.6078,-0.2262,0.1892,0.0612,0.3258
16:57:49:550,0.5168,8.406,11.537,37.1796,-0.0811,0.6535,0.2543,0.3243
16:57:49:570,0.4319,10.416,8.9145,36.6393,0.4552,0.5609,0.2195,0.3257
16:57:49:589,0.0203,10.2114,8.662,36.1667,0.2705,0.0661,0.0912,0.3286
16:57:49:609,-0.0431,9.2853,9.8548,35.5312,-0.0005,-0.1086,0.0542,0.3304
16:57:49:629,-0.0598,8.412,10.885,35.1894,-0.0203,-0.0075,-0.0414,0.3305
16:57:49:649,-0.9081,7.0648,10.7665,34.7226,0.2705,0.1571,-0.2375,0.3309
16:57:49:669,-2.3988,5.6088,8.9922,34.3638,0.6217,0.3978,-0.3441,0.3331
16:57:49:691,-3.9314,4.7677,6.5216,34.1629,0.7323,0.5328,-0.2683,0.3396
16:57:49:709,-4.5858,4.3561,4.6708,34.2371,0.5289,0.337,-0.0261,0.3417
16:57:49:729,-3.9912,4.1049,4.4471,34.2737,0.0933,-0.0374,0.261,0.3412
16:57:49:749,-2.601,4.1169,5.4903,34.597,-0.3795,-0.1504,0.4717,0.3373
16:57:49:769,-1.3065,4.2042,6.9129,34.6174,-0.6944,0.0295,0.5527,0.3313
16:57:49:790,-0.3182,4.1755,7.9693,34.6343,-0.6755,0.3053,0.556,0.3257
16:57:49:812,0.2297,4.8718,6.2824,34.7189,-0.1755,0.4769,0.5683,0.3221
16:57:49:830,0.53,5.348,5.5167,34.7479,-0.1067,0.203,0.6303,0.3206
16:57:49:849,1.1354,5.9689,5.4532,35.1119,-0.1642,-0.0286,0.6761,0.3204
16:57:49:869,1.7109,6.6138,5.8564,34.8653,-0.2527,-0.1116,0.6009,0.3201
16:57:49:889,1.8197,7.0493,6.2393,34.7572,-0.2732,-0.0756,0.3642,0.3193
16:57:49:909,1.078,6.9954,6.1196,34.6287,-0.2228,-0.0542,0.0426,0.3181
16:57:49:929,-0.0036,6.4822,6.0371,34.6958,-0.1886,-0.1129,-0.1901,0.3171
16:57:49:950,-0.8315,6.0347,6.1639,34.7676,-0.1856,-0.1284,-0.2842,0.3147
16:57:49:969,-1.5087,5.7882,6.2728,34.0079,-0.2124,-0.1095,-0.2744,0.3129
16:57:49:989,-1.8221,5.653,6.5827,33.6891,-0.2512,-0.0958,-0.17,0.3111
16:57:50:009,-1.7324,5.8026,7.2778,32.6104,-0.203,-0.1297,-0.0102,0.3105
16:57:50:029,-1.3364,6.3015,7.7815,32.0841,-0.0261,-0.162,0.137,0.3118
16:57:50:049,-0.9858,7.0505,7.7073,30.9556,0.1623,-0.1929,0.1996,0.3146
16:57:50:070,-0.4259,7.7025,8.0842,30.078,0.294,-0.3147,0.1797,0.3181
16:57:50:091,-0.067,8.1117,8.6919,29.8405,0.3083,-0.2088,0.152,0.3218
16:57:50:109,-0.0826,8.4323,8.394,29.5113,0.3196,-0.0301,0.056,0.325
16:57:50:129,-0.536,8.0698,8.1775,30.2098,0.2705,-0.1703,0.0163,0.3277
16:57:50:150,-0.4271,7.9286,9.0688,30.6931,0.2304,-0.3804,0.2103,0.3309
16:57:50:169,0.6281,8.5567,9.5701,31.5886,0.2103,-0.3859,0.4424,0.3344
16:57:50:189,1.7001,9.1119,9.8297,31.8885,0.1593,-0.3804,0.5056,0.3376
16:57:50:212,2.4873,9.1466,10.1779,33.1698,0.1461,-0.3535,0.4186,0.3435
16:57:50:230,2.6536,8.7111,9.7902,34.2601,0.2167,-0.2405,0.2042,0.3462
16:57:50:250,2.0925,7.9944,8.735,34.547,0.2414,-0.2479,-0.108,0.349
16:57:50:270,1.0875,6.3506,8.6572,35.0091,0.2097,-0.4656,-0.3997,0.3519
16:57:50:290,0.5097,4.5105,8.8199,35.2455,0.2317,-0.4891,-0.5111,0.3542
16:57:50:310,0.0275,3.2279,8.1619,35.2982,0.2555,-0.2732,-0.4507,0.3554
16:57:50:331,-0.0287,2.9527,7.2383,35.2058,0.1434,-0.0673,-0.2277,0.3548
16:57:50:351,0.652,3.7089,6.8698,35.6666,-0.0857,0.0661,0.0374,0.3524
16:57:50:370,1.8568,5.5155,6.871,35.6962,-0.2894,0.2036,0.1104,0.3493
16:57:50:389,1.9286,6.1795,6.6461,35.346,-0.2231,0.2271,-0.0078,0.3464
16:57:50:410,1.5314,6.3876,6.0191,35.7307,-0.152,0.1532,-0.1767,0.3443
16:57:50:430,1.0325,6.2812,5.6064,35.6803,-0.1449,0.0402,-0.2793,0.3428
16:57:50:450,0.7047,6.1484,5.6746,35.6003,-0.1565,-0.0066,-0.301,0.3415
16:57:50:471,0.5192,6.1555,5.7105,35.5145,-0.1376,0.0344,-0.3089,0.3389
16:57:50:490,0.3697,6.2357,5.4257,35.6466,-0.1022,0.0851,-0.3444,0.3377
16:57:50:511,0.0646,6.2058,5.263,35.4556,-0.1141,0.0814,-0.4042,0.3361
16:57:50:530,-0.2572,5.9773,5.409,35.7414,-0.1556,0.1077,-0.433,0.3341
16:57:50:550,-0.5324,5.7176,5.6088,36.2507,-0.1663,0.1956,-0.4049,0.3319
16:57:50:570,-0.7573,5.4915,5.4784,36.0208,-0.1355,0.2561,-0.3129,0.3299
16:57:50:590,-0.7633,5.4927,5.3456,35.9722,-0.1138,0.2188,-0.181,0.3284
16:57:50:611,-0.4594,5.6016,5.5155,36.0254,-0.1217,0.1348,-0.046,0.3272
16:57:50:630,0.518,6.3936,6.6808,36.1424,-0.1364,0.0783,0.2085,0.3261
16:57:50:650,1.0923,7.0181,7.2072,35.7174,-0.1016,0.0976,0.2387,0.3252
16:57:50:670,1.4501,7.6164,7.803,35.9098,-0.0515,0.0893,0.1746,0.3247
16:57:50:689,1.5087,7.9681,8.278,35.461,0.0316,0.1837,0.0258,0.3246
16:57:50:709,0.9739,7.9884,8.0925,35.0337,0.0906,0.3456,-0.1797,0.3245
16:57:50:732,-0.0395,7.6558,7.9585,35.0002,0.0741,0.4198,-0.3047,0.3228
16:57:50:750,-0.2728,7.5972,8.4802,34.7233,-0.0087,0.4204,-0.2222,0.3209
16:57:50:769,-0.134,8.0913,9.6203,34.3091,-0.0909,0.484,-0.0783,0.3186
16:57:50:790,-0.1543,8.9767,10.3837,33.8082,0.0139,0.6232,0.0341,0.3179
16:57:50:810,-0.39,9.6191,9.7328,34.1949,0.3028,0.538,0.0252,0.3202
16:57:50:830,-0.9416,9.6682,8.6943,34.1459,0.4513,0.0973,-0.0539,0.324
16:57:50:850,-1.1557,8.7302,9.2303,34.1024,0.2723,-0.2912,-0.046,0.3264
16:57:50:872,-0.603,6.8267,11.2355,34.191,0.1807,0.0145,0.1703,0.3274
16:57:50:890,-0.8626,6.402,10.3777,33.8106,0.608,0.2818,0.1764,0.3297
16:57:50:909,-1.791,6.1256,7.9932,34.1247,0.9812,0.5194,0.0612,0.3345
16:57:50:929,-2.8164,5.7272,5.1876,34.5448,0.9907,0.618,-0.031,0.3404
16:57:50:950,-3.4158,5.4174,3.2794,35.0241,0.6055,0.4006,-0.0014,0.3452
16:57:50:969,-3.2171,4.9699,3.4397,34.9534,-0.0295,0.02,0.1119,0.347
16:57:50:992,-2.1739,4.672,5.0847,34.7768,-0.6064,-0.1223,0.2656,0.3394
16:57:51:011,-1.1198,4.4794,7.0074,34.9339,-0.9308,-0.0151,0.3578,0.3317
16:57:51:030,-0.0718,4.4459,8.2122,34.827,-0.9,0.2314,0.4491,0.3246
16:57:51:065,0.8076,5.0106,7.9394,35.2116,-0.6245,0.4143,0.5295,0.3198
16:57:51:070,1.261,5.7835,6.804,35.0764,-0.3661,0.3236,0.5114,0.3175
16:57:51:090,1.4201,6.1663,6.1962,34.8256,-0.2531,0.0151,0.4522,0.3169
16:57:51:110,1.6283,6.3051,6.28,34.827,-0.2353,-0.2259,0.3914,0.3165
16:57:51:131,1.6343,6.3829,6.5994,34.9864,-0.2283,-0.254,0.2631,0.3158
16:57:51:151,1.1725,6.3386,6.5432,35.1879,-0.0454,0.0188,-0.1553,0.315
16:57:51:170,-0.8542,5.9258,4.8251,34.9313,-0.0292,-0.0527,-0.2998,0.3147
16:57:51:189,-1.6594,5.598,4.5846,35.0418,-0.159,-0.1996,-0.3477,0.3141
16:57:51:210,-2.12,5.2881,5.1613,34.9671,-0.3465,-0.2873,-0.2906,0.3125
16:57:51:230,-2.1799,5.1709,6.256,35.2673,-0.4479,-0.2711,-0.152,0.3098
16:57:51:251,-1.8712,5.5047,7.066,35.169,-0.3731,-0.1785,0.0264,0.3048
16:57:51:270,-1.3496,6.3039,7.3795,34.7141,-0.1697,-0.1483,0.1596,0.3047
16:57:51:290,-0.8435,7.1163,7.3484,34.621,0.005,-0.1828,0.2054,0.3059
16:57:51:310,-0.4738,7.6786,7.4501,34.3168,0.0805,-0.2005,0.1883,0.3076
16:57:51:330,-0.2465,8.0028,7.9179,34.5238,0.1184,-0.1825,0.1529,0.3095
16:57:51:350,0.0144,8.589,8.5113,33.9079,0.1834,-0.0655,0.0945,0.3112
16:57:51:370,-0.1149,9.1537,8.1547,32.8381,0.2201,0.0564,-0.0524,0.3128
16:57:51:392,-0.518,9.1896,8.0363,32.3277,0.1095,-0.1746,-0.1468,0.3145
16:57:51:410,0.4774,9.0138,11.1876,32.3602,-0.1547,-0.695,0.2998,0.3161
16:57:51:430,2.2062,9.7029,12.3039,32.3634,-0.0487,-0.7705,0.5008,0.3182
16:57:51:449,3.7065,10.3896,12.9966,32.0763,0.2103,-0.7537,0.4064,0.322
16:57:51:470,3.9589,10.2855,11.8828,31.8791,0.4943,-0.5197,-0.0121,0.3275
16:57:51:489,2.4431,8.9695,9.6227,31.5158,0.5762,-0.374,-0.5789,0.3332
16:57:51:513,0.585,6.4307,8.4144,31.7927,0.4992,-0.5096,-0.9589,0.3429
16:57:51:531,-0.4391,4.0379,7.8939,32.6546,0.4204,-0.5808,-1.0093,0.3462
16:57:51:550,-0.8171,2.4718,7.1258,32.8036,0.3374,-0.41,-0.8554,0.3478
16:57:51:570,-0.6843,1.9418,6.0287,32.7533,0.1972,-0.1749,-0.5704,0.3478
16:57:51:590,0.1771,2.5232,5.2271,32.8033,-0.009,-0.1116,-0.261,0.3465
16:57:51:611,1.0923,3.7101,5.074,32.943,-0.2457,-0.2008,-0.141,0.3441
16:57:51:630,1.4381,4.4399,5.6566,33.3349,-0.4363,-0.3233,-0.1938,0.3407
16:57:51:651,1.4991,4.6995,6.3362,33.2516,-0.557,-0.2466,-0.2879,0.336
16:57:51:670,1.2263,4.8479,6.7549,33.1758,-0.4552,0.0527,-0.3926,0.331
16:57:51:689,0.3685,4.788,6.2058,32.9583,-0.2381,0.0142,-0.3713,0.3276
16:57:51:709,0.1292,5.0871,5.5418,32.4923,-0.1275,-0.0295,-0.2918,0.3258
16:57:51:729,0.201,5.6219,5.3001,32.3015,-0.1452,-0.0325,-0.2127,0.3247
16:57:51:749,0.3817,6.0826,5.3444,31.8934,-0.2112,-0.0047,-0.221,0.3232
16:57:51:771,0.408,6.3051,5.3527,31.2501,-0.3028,0.0551,-0.2934,0.318
16:57:51:790,0.1687,6.2465,5.4999,30.4011,-0.4158,0.0973,-0.3789,0.3139
16:57:51:810,-0.213,5.9773,5.9438,30.115,-0.4843,0.0851,-0.4085,0.3095
16:57:51:830,-0.53,5.8002,6.6748,30.3384,-0.4849,0.0622,-0.3685,0.3053
16:57:51:850,-0.7442,5.799,7.3244,30.4107,-0.4268,0.1119,-0.283,0.3015
16:57:51:870,-0.8339,5.9665,7.5841,30.8983,-0.3337,0.0967,-0.162,0.299
16:57:51:890,-0.615,6.1843,8.3115,31.0994,-0.2363,-0.0649,-0.027,0.2979
16:57:51:912,-0.0479,6.4152,9.4409,31.5931,-0.1077,-0.1495,0.0704,0.2981
16:57:51:931,0.3553,6.9954,9.8249,31.9489,0.3551,0.3563,0.0967,0.2993
16:57:51:949,0.079,7.5314,8.0626,32.2608,0.5157,0.5014,0.0316,0.3017
16:57:51:969,-0.2572,7.7731,7.1103,32.7104,0.4128,0.3187,-0.0328,0.3046
16:57:51:989,0.2201,7.8461,7.8018,32.5347,0.1419,0.1541,0.0111,0.3067
16:57:52:009,0.7501,8.1009,9.4385,32.3341,-0.1297,0.2799,0.071,0.3066
16:57:52:031,0.6485,8.747,10.6241,31.8802,-0.0747,0.5621,0.1422,0.3037
16:57:52:051,0.6592,9.8357,9.3679,31.7342,0.2631,0.5118,0.1269,0.3062
16:57:52:069,0.2572,10.3059,8.1404,31.3167,0.3786,0.0554,-0.0948,0.3094
16:57:52:090,-0.3793,9.4253,8.3737,31.3359,0.1587,-0.2637,-0.3212,0.3106
16:57:52:110,-0.7358,7.9525,9.5773,31.3137,-0.1003,-0.3068,-0.4748,0.3098
16:57:52:130,-1.5182,5.9928,10.5799,31.175,-0.0796,-0.1962,-0.6342,0.3096
16:57:52:150,-2.6369,4.2461,10.7426,31.3823,0.2668,-0.0197,-0.6009,0.3118
16:57:52:173,-3.8907,3.4839,7.0875,31.6489,0.7772,0.6037,-0.1034,0.3156
16:57:52:191,-3.6957,4.0606,5.3874,32.0431,0.564,0.6074,0.1019,0.3187
16:57:52:209,-2.1954,4.8514,5.4078,32.0894,0.1703,0.4131,0.2482,0.3202
16:57:52:229,-0.95,5.3539,6.0778,32.326,-0.21,0.3801,0.1477,0.3191
16:57:52:250,-0.6724,4.8706,6.6832,32.5985,-0.4724,0.4446,-0.0454,0.315
16:57:52:270,-0.9655,4.1922,6.804,32.8813,-0.56,0.5328,-0.0377,0.3091
16:57:52:292,-1.1234,4.1862,6.3182,33.1497,-0.5218,0.5301,0.144,0.2976
16:57:52:311,-0.9523,4.5212,5.4377,33.1463,-0.4604,0.323,0.3297,0.294
16:57:52:330,-0.7525,4.8431,5.1529,33.0756,-0.4797,-0.075,0.4724,0.2915
16:57:52:350,-0.3757,4.9412,5.6949,33.2298,-0.5582,-0.4192,0.5988,0.2892
16:57:52:370,0.2417,5.3061,6.7059,33.6712,-0.6122,-0.5777,0.67,0.2871
16:57:52:389,0.7346,5.8457,7.8293,33.8876,-0.5347,-0.5789,0.6162,0.2859
16:57:52:410,0.8112,6.2094,8.0578,33.7707,-0.3202,-0.4375,0.4174,0.2858
16:57:52:432,0.0586,6.3015,7.4489,33.9377,-0.1394,-0.3086,0.1605,0.286
16:57:52:450,-1.5338,5.7488,6.658,34.0092,-0.1746,-0.2259,0.0011,0.2858
16:57:52:470,-1.7743,5.7117,7.0062,34.0221,-0.2286,-0.1562,0.0344,0.2848
16:57:52:490,-1.7934,5.7882,7.3041,34.1639,-0.1975,-0.1138,0.0887,0.2835
16:57:52:510,-1.7599,6.0646,7.5446,33.9269,-0.0945,-0.1718,0.1455,0.2828
16:57:52:530,-1.7372,6.4187,8.0507,33.6857,0.0548,-0.2705,0.1926,0.2834
16:57:52:550,-1.6738,6.6808,8.3593,33.5499,0.235,-0.2857,0.2286,0.2858
16:57:52:571,-1.5517,6.8865,8.5316,33.3769,0.3441,-0.3432,0.294,0.2939
16:57:52:589,-0.6233,7.7743,9.2183,33.0312,0.3477,-0.2729,0.3551,0.2973
16:57:52:609,-0.4271,8.4718,9.3476,32.544,0.3041,0.0484,0.1651,0.2994
16:57:52:630,-1.0181,8.4287,8.5639,32.2138,0.2625,0.1587,0.0063,0.3013
16:57:52:649,-0.6102,8.1356,8.0148,31.7929,0.1303,-0.1602,0.0771,0.3029
16:57:52:670,0.7633,8.1272,9.5091,31.7626,-0.1504,-0.5047,0.2304,0.3029
16:57:52:692,2.2038,7.9932,11.7918,31.695,-0.3227,-0.3896,0.3175,0.3016
16:57:52:711,2.5172,8.01,10.124,31.6746,0.1294,0.0881,-0.0032,0.3013
16:57:52:730,1.261,6.4822,9.0269,32.1581,0.2011,-0.2647,-0.3444,0.303
16:57:52:750,0.2656,4.3992,9.2028,32.5561,0.1724,-0.5139,-0.4369,0.3057
16:57:52:770,0.0455,2.9204,9.2734,33.053,0.148,-0.4247,-0.3279,0.3079
16:57:52:790,0.341,2.3737,8.7625,33.5975,0.1355,-0.1428,-0.0863,0.309
16:57:52:810,1.261,2.9886,8.0004,34.057,0.0964,0.0936,0.1843,0.3093
16:57:52:831,2.3103,4.2736,7.3041,34.3265,-0.0038,0.2451,0.2866,0.3071
16:57:52:849,2.8618,5.3216,6.8483,34.4063,-0.1196,0.3413,0.1999,0.3048
16:57:52:872,2.7577,5.9749,6.2309,34.8835,-0.1944,0.3468,-0.0096,0.3024
16:57:52:890,2.1763,6.1149,5.9629,35.1006,-0.2124,0.1944,-0.2552,0.3007
16:57:52:910,1.395,5.6399,6.1005,34.813,-0.1388,-0.0237,-0.4571,0.3002
16:57:52:931,0.6413,5.1039,6.1531,34.6756,-0.0341,-0.1486,-0.5185,0.3002
16:57:52:953,-0.0945,5.2451,6.0084,34.696,-0.1226,0.0063,-0.4424,0.2994
16:57:52:970,-0.2321,5.2104,6.1149,34.8085,-0.1984,0.0945,-0.4323,0.2975
16:57:52:989,-0.4726,4.9807,6.2788,35.1052,-0.1883,0.1495,-0.4201,0.2952
16:57:53:010,-0.7047,4.8419,6.3577,35.2644,-0.1126,0.1718,-0.3593,0.2931
16:57:53:029,-0.7992,4.8598,6.2943,35.2471,-0.0392,0.2011,-0.2631,0.2916
16:57:53:050,-0.7681,5.0046,6.0622,35.1526,-0.02,0.2601,-0.1348,0.2906
16:57:53:086,-0.5085,5.4676,6.0419,35.7058,-0.0304,0.2549,0.0087,0.2895
16:57:53:091,0.0598,5.9222,6.2082,35.8299,-0.0258,0.1541,0.1312,0.2888
16:57:53:109,0.6867,6.39,6.8064,36.1578,-0.0261,0.0078,0.202,0.2895
16:57:53:131,1.3555,6.9212,7.8365,36.3097,0.0279,-0.1037,0.1975,0.291
16:57:53:150,1.7145,7.3603,8.8116,36.2465,0.1513,-0.0872,0.0912,0.2933
16:57:53:171,1.5099,7.7073,9.1848,36.4057,0.2958,0.0377,-0.0817,0.296
16:57:53:191,0.6365,7.5506,8.936,36.679,0.399,0.1208,-0.2906,0.299
16:57:53:212,-0.5468,7.194,8.802,36.7864,0.3749,0.2818,-0.159,0.3017
16:57:53:231,-0.5599,8.3282,8.729,36.8807,0.1917,0.5124,-0.0493,0.3027
16:57:53:250,-0.7633,8.9743,8.8367,37.1747,0.1303,0.4904,0.0176,0.3024
16:57:53:270,-0.652,9.4445,9.0688,37.1217,0.1697,0.2301,-0.0166,0.3029
16:57:53:289,-0.7513,8.7003,9.5916,37.3743,0.1367,-0.0857,-0.1483,0.3043
16:57:53:309,-1.0181,7.5087,10.8144,37.6422,0.0719,-0.2143,-0.1116,0.3058
16:57:53:330,-1.1127,6.5946,11.2247,37.9111,0.1498,0.0264,0.0432,0.3068
16:57:53:351,-1.2371,6.2249,10.1982,37.9722,0.359,0.2271,0.1914,0.3109
16:57:53:370,-1.5087,6.2477,9.0425,38.0831,0.5551,0.2931,0.1758,0.3146
16:57:53:390,-2.1165,5.7559,7.3137,38.2566,0.6217,0.4635,0.0454,0.3175
16:57:53:409,-2.9659,5.3157,5.5095,38.6722,0.4662,0.5563,-0.0292,0.3184
16:57:53:431,-3.253,4.9196,4.6074,38.7475,0.1248,0.3822,-0.0072,0.317
16:57:53:450,-2.8475,4.6289,5.1864,38.8276,-0.2723,0.1052,0.0505,0.3134
16:57:53:472,-1.8915,3.8895,7.7719,39.0866,-0.7198,0.0958,0.1651,0.3077
16:57:53:491,-1.5206,3.8082,8.4,39.2295,-0.6333,0.2622,0.3257,0.3013
16:57:53:510,-1.0181,4.1288,8.0136,39.4931,-0.3929,0.3636,0.4998,0.2961
16:57:53:529,-0.4223,4.6672,7.0038,39.9007,-0.1675,0.3233,0.6315,0.293
16:57:53:550,0.2094,5.2977,6.1819,39.9822,-0.067,0.1327,0.6901,0.2921
16:57:53:570,0.7777,5.7607,6.1436,39.9203,-0.0808,-0.0591,0.651,0.2925
16:57:53:589,1.145,6.0514,6.2847,39.7845,-0.1129,-0.1153,0.5056,0.2931
16:57:53:611,0.8112,6.0933,6.2548,40.1101,-0.1321,-0.049,0.2757,0.2927
16:57:53:631,-0.0814,5.8457,5.988,39.9705,-0.1568,-0.0072,0.0872,0.2918
16:57:53:650,-0.8279,5.6183,6.0335,40.0388,-0.1672,-0.0444,0.0096,0.2908
16:57:53:670,-1.3579,5.5813,6.0849,39.9134,-0.1837,-0.0481,-0.0093,0.2893
16:57:53:689,-1.681,5.7631,6.3147,39.6653,-0.2698,-0.0487,0.0399,0.2872
16:57:53:710,-1.4465,6.0514,7.1198,39.5333,-0.3227,-0.0979,0.1211,0.2855
16:57:53:732,-1.1127,6.3601,8.1559,39.4931,0.0518,-0.2115,0.1852,0.2855
16:57:53:751,-0.682,7.0804,8.8235,39.9039,0.2689,-0.3477,0.1917,0.2881
16:57:53:769,-0.2943,7.2275,9.5916,39.5653,0.3954,-0.3911,0.1785,0.2924
16:57:53:789,-0.0873,7.3914,10.2724,39.1095,0.5047,-0.1352,0.1785,0.2973
16:57:53:809,-0.4917,7.7396,9.1573,38.1867,0.6312,0.2738,0.0909,0.3017
16:57:53:829,-1.5601,7.6618,7.6762,37.5242,0.6742,0.221,0.0457,0.306
16:57:53:849,-1.7874,7.6211,7.3986,37.0347,0.6049,-0.1859,0.2008,0.3114
16:57:53:871,-0.7298,7.6678,7.7934,36.5646,0.3896,-0.5185,0.4672,0.322
16:57:53:890,1.2431,8.2086,9.137,36.2267,0.0228,-0.6639,0.6672,0.324
16:57:53:909,3.0341,8.5914,10.9268,35.7404,-0.2292,-0.4956,0.6541,0.3241
16:57:53:930,3.8644,8.6345,11.3862,35.7673,-0.1468,-0.2534,0.3771,0.3249
16:57:53:949,2.8379,7.7133,10.4566,35.7795,0.0802,-0.2793,-0.0903,0.3273
16:57:53:970,1.3484,5.7523,9.8429,36.4231,0.2564,-0.4788,-0.3169,0.3311
16:57:53:991,0.8207,4.3729,9.1705,37.0439,0.3801,-0.4873,-0.2943,0.3349
16:57:54:011,0.6999,3.6849,8.0782,37.8619,0.2659,-0.1339,-0.0533,0.3376
16:57:54:030,1.8209,4.5954,6.5348,38.7296,0.1049,-0.0255,0.0182,0.3387
16:57:54:050,2.2696,5.5119,6.2752,39.1492,-0.0041,0.0163,-0.0771,0.3388
16:57:54:069,2.1535,5.9773,5.945,39.7209,-0.0524,0.0255,-0.2812,0.3383
16:57:54:089,1.4297,5.8971,5.4676,39.8899,-0.1132,0.0002,-0.5029,0.3374
16:57:54:110,0.6568,5.4185,5.2738,40.4454,-0.1849,-0.0637,-0.6187,0.3359
16:57:54:132,0.1962,5.1398,5.452,40.7925,-0.25,-0.1245,-0.6003,0.3317
16:57:54:150,0.0323,5.1565,5.7296,40.8825,-0.286,-0.1116,-0.549,0.3292
16:57:54:170,-0.0598,5.3037,5.9689,40.9145,-0.2796,-0.0793,-0.5038,0.3267
16:57:54:190,-0.0263,5.4796,6.1484,40.8825,-0.2375,-0.0234,-0.4818,0.3244
16:57:54:210,-0.0227,5.5358,6.1053,41.0152,-0.1828,0.0887,-0.4812,0.3222
16:57:54:230,-0.2094,5.5741,5.7607,41.1596,-0.1419,0.1764,-0.4864,0.32
16:57:54:253,-0.6628,5.6195,5.3886,41.3956,-0.2295,0.1804,-0.3645,0.3176
16:57:54:271,-0.4953,5.8361,5.8146,41.6036,-0.2897,0.1611,-0.2363,0.3147
16:57:54:289,-0.0682,6.1854,6.335,41.8,-0.2848,0.1318,-0.1025,0.3118
16:57:54:309,0.5025,6.6054,6.853,41.9637,-0.2237,0.0515,0.0322,0.3096
16:57:54:329,1.3615,7.2383,7.3986,41.7157,-0.1223,-0.02,0.1022,0.3084
16:57:54:350,1.6451,7.8138,7.8987,41.6628,-0.0218,-0.0286,-0.0014,0.3083
16:57:54:369,1.0624,7.7707,8.0447,41.8519,0.0738,0.0796,-0.1959,0.3088
16:57:54:392,0.067,7.3603,7.6618,41.8581,0.1263,0.1556,-0.3615,0.3097
16:57:54:410,-1.1354,6.8602,7.7695,42.0917,0.1016,0.0725,-0.4223,0.3099
16:57:54:429,-1.5422,6.5408,8.7254,42.3338,0.0298,0.0591,-0.254,0.3091
16:57:54:450,-0.5755,6.932,9.6012,42.3901,-0.0365,0.3089,-0.0011,0.3073
16:57:54:470,-0.2201,8.1894,10.1288,42.7085,0.0316,0.669,0.0851,0.3061
16:57:54:489,-0.3924,9.0664,8.8774,42.9646,0.2274,0.8376,0.0139,0.3061
16:57:54:510,-1.1844,9.3428,7.4118,42.5819,0.2265,0.5609,-0.1538,0.3064
16:57:54:532,-1.9119,8.4945,8.126,42.8022,-0.2582,-0.3569,-0.0298,0.306
16:57:54:549,-0.4774,7.1091,12.6628,43.1966,-0.1877,-0.2344,0.122,0.3049
16:57:54:570,-0.195,6.6724,12.7358,43.314,0.155,0.0194,0.2237,0.3046
16:57:54:590,-0.457,6.5539,11.0572,43.1842,0.5643,0.2705,0.235,0.3069
16:57:54:610,-1.4094,6.268,8.3055,43.3027,0.7952,0.4226,0.0964,0.3112
16:57:54:630,-2.6357,5.6387,5.9294,43.4441,0.7619,0.3346,-0.0304,0.3163
16:57:54:651,-3.5031,4.7593,4.8227,43.6504,0.4962,0.0698,-0.0255,0.3208
16:57:54:671,-3.4074,4.014,5.1745,44.1089,0.1623,-0.1446,0.1248,0.3243
16:57:54:689,-2.5902,3.7962,6.1101,44.0652,-0.1009,-0.1187,0.2744,0.3231
16:57:54:710,-1.7994,3.9458,7.0074,43.7742,-0.2085,0.0872,0.3398,0.3208
16:57:54:731,-1.1964,4.1204,6.9966,43.4641,-0.1892,0.352,0.3685,0.3181
16:57:54:750,-0.9284,4.5392,6.1926,43.6611,-0.1419,0.5069,0.418,0.3159
16:57:54:771,-0.6305,5.1123,5.2463,43.6294,-0.1275,0.4158,0.4638,0.3145
16:57:54:792,-0.2393,5.6411,4.9759,43.343,-0.1972,0.1416,0.4931,0.3133
16:57:54:810,0.9846,6.4116,6.6401,43.3759,-0.3859,-0.1938,0.4244,0.3119
16:57:54:829,1.3041,6.5527,7.5147,43.6774,-0.3169,-0.1712,0.2787,0.3104
16:57:54:850,0.9918,6.5276,7.3807,43.6418,-0.1529,-0.0631,0.0884,0.3093
16:57:54:869,0.0802,6.2608,6.4391,43.7526,-0.0344,-0.0017,-0.0622,0.3089
16:57:54:890,-0.6999,6.0766,5.7404,44.116,-0.0283,-0.0014,-0.1058,0.3087
16:57:54:911,-1.1952,6.0646,5.2881,44.2198,-0.0927,-0.0154,-0.1113,0.3075
16:57:54:931,-1.59,6.0957,5.3623,44.3858,-0.1868,-0.1092,-0.0866,0.3064
16:57:54:950,-1.7539,6.1759,5.8923,44.8027,-0.2359,-0.1959,-0.0209,0.3055
16:57:54:971,-1.7767,6.5204,6.6556,44.9758,-0.2036,-0.2573,0.0683,0.3054
16:57:54:990,-1.3902,6.95,7.1916,44.88,-0.0954,-0.3175,0.1376,0.3066
16:57:55:010,-0.7609,7.4166,7.8532,44.7363,0.0359,-0.4522,0.1336,0.3094
16:57:55:030,-0.3266,7.7515,8.9288,44.9218,0.1837,-0.5356,0.0884,0.3135
16:57:55:051,-0.7083,7.8808,9.5175,44.5124,0.498,-0.3367,-0.0023,0.3183
16:57:55:069,-1.9896,7.5745,8.5376,44.2349,0.4168,-0.3013,0.1306,0.3232
16:57:55:089,-1.6546,7.9238,9.1777,44.1034,0.2668,-0.2848,0.4412,0.3271
16:57:55:109,-0.1172,8.7386,9.3559,43.6939,0.1819,-0.2634,0.7121,0.3302
16:57:55:129,1.7946,9.5139,9.8907,43.5711,0.0893,-0.3374,0.7976,0.3331
16:57:55:150,3.2435,9.7508,10.5847,43.9774,0.0704,-0.2662,0.6602,0.3357
16:57:55:171,3.6144,9.3224,10.2197,44.3361,0.1642,-0.1486,0.3731,0.3407
16:57:55:191,3.052,8.6393,9.4038,44.0693,0.2644,-0.1633,-0.0026,0.3439
16:57:55:210,1.7515,6.8172,8.7829,44.3482,0.359,-0.2692,-0.3587,0.3477
16:57:55:231,0.6461,4.9472,7.9478,44.7128,0.4629,-0.2482,-0.5063,0.3513
16:57:55:250,-0.1651,3.6921,6.6078,44.924,0.4699,-0.1321,-0.4977,0.3539
16:57:55:270,-0.3781,3.204,5.6602,45.1705,0.312,-0.0643,-0.3432,0.3548
16:57:55:290,0.256,3.6849,5.3527,45.4524,0.0481,0.0002,-0.181,0.3534
16:57:55:311,0.8614,4.6337,5.531,45.3363,-0.2188,0.0936,-0.151,0.35
16:57:55:330,0.7944,5.6387,6.1137,45.3797,-0.4724,0.2039,-0.2967,0.3455
16:57:55:350,0.5204,5.7583,5.9701,45.6187,-0.4452,0.1883,-0.3331,0.3408
16:57:55:369,0.2632,5.8959,5.9785,45.7363,-0.4119,0.1193,-0.3282,0.3365
16:57:55:390,0.1065,5.8828,6.055,45.7461,-0.3838,0.0909,-0.3059,0.3328
16:57:55:409,-0.1089,5.9115,6.1902,45.9252,-0.3291,0.1281,-0.2778,0.3293
16:57:55:432,-0.2919,6.0132,6.0742,46.2969,-0.2341,0.1752,-0.2708,0.3239
16:57:55:452,-0.5958,5.9737,5.7559,46.2929,-0.1614,0.2326,-0.2882,0.3217
16:57:55:470,-1.0457,5.8528,5.4162,46.3449,-0.1452,0.2812,-0.2827,0.3195
16:57:55:490,-1.3747,5.738,5.2666,46.5019,-0.1639,0.2799,-0.2225,0.3171
16:57:55:510,-1.3866,5.7918,5.342,46.7967,-0.2182,0.2375,-0.1245,0.3144
16:57:55:531,-1.1414,5.884,5.8373,47.1361,-0.3093,0.2097,-0.013,0.311
16:57:55:551,-0.5767,6.0814,6.6449,47.3059,-0.3795,0.2356,0.1086,0.3076
16:57:55:571,0.1137,6.4116,7.4357,47.4279,-0.3202,0.2195,0.2201,0.3054
16:57:55:590,0.9332,6.8064,8.0578,47.559,-0.1678,0.1614,0.2989,0.3048
16:57:55:609,1.7994,7.6343,9.0532,47.2913,0.2589,0.1935,0.1956,0.3059
16:57:55:629,1.0828,7.5541,8.4203,47.0868,0.4797,0.2534,-0.0044,0.3085
16:57:55:649,0.0287,7.2359,7.6905,47.063,0.5453,0.221,-0.1449,0.3121
16:57:55:669,-0.816,7.0828,7.5171,47.146,0.4088,0.1217,-0.162,0.3156
16:57:55:690,-0.6126,7.3196,8.741,46.9849,0.1495,0.144,-0.0136,0.3172
16:57:55:710,-0.0873,7.7922,9.4768,47.0753,0.0203,0.411,0.1028,0.316
16:57:55:731,-0.0455,8.7111,9.399,47.1177,0.0554,0.4271,0.1419,0.3159
16:57:55:751,0.0909,9.0999,9.1226,47.2329,0.0927,0.1639,0.1043,0.3168
16:57:55:770,-0.2728,8.9384,9.6754,47.9452,0.0255,-0.0673,0.0609,0.3171
16:57:55:789,-0.5468,8.674,10.069,48.4134,-0.0832,-0.0325,0.0924,0.3162
16:57:55:810,-0.6245,8.0722,10.0499,48.7584,-0.1474,0.0451,0.1126,0.3152
16:57:55:832,-0.7813,7.6271,10.2126,48.8402,-0.0493,-0.0209,0.0741,0.3158
16:57:55:853,-2.3785,5.7966,7.669,49.2769,0.451,0.1929,-0.3306,0.3178
16:57:55:870,-3.5414,4.7689,5.7464,49.594,0.3994,0.2179,-0.3719,0.3198
16:57:55:889,-3.9015,3.9757,4.8287,49.8518,0.1321,0.0786,-0.2472,0.3208
16:57:55:909,-3.5593,3.4576,5.214,50.0426,-0.1886,-0.1287,-0.0573,0.3201
16:57:55:930,-2.7422,3.2076,6.3613,50.2803,-0.4015,-0.2304,0.1523,0.3179
16:57:55:951,-1.6953,3.3918,7.3555,50.6249,-0.4565,-0.1877,0.3264,0.3117
16:57:55:971,-0.7095,3.8285,7.7791,50.8765,-0.3722,-0.0148,0.4589,0.3091
16:57:55:991,0.0682,4.5787,7.2323,51.2946,-0.2265,0.1727,0.5224,0.3075
16:57:56:011,0.451,5.2319,6.3099,51.6226,-0.118,0.195,0.5127,0.3069
16:57:56:030,0.8124,5.8181,5.6267,51.8044,-0.0851,0.0728,0.4876,0.307
16:57:56:051,1.0481,6.2871,5.4281,52.0995,-0.1138,-0.071,0.3905,0.3071
16:57:56:070,0.9368,6.591,5.2857,52.4135,-0.1596,-0.1623,0.2246,0.3069
16:57:56:091,0.4211,6.6233,5.2223,52.6285,-0.3374,-0.363,-0.1193,0.3061
16:57:56:112,-0.6748,6.0215,6.0682,52.7537,-0.4183,-0.3859,-0.1642,0.3046
16:57:56:129,-0.8949,6.0371,6.5803,53.1619,-0.451,-0.3575,-0.1944,0.3023
16:57:56:149,-1.0983,6.0873,6.9523,53.6225,-0.4409,-0.3288,-0.2173,0.2997
16:57:56:170,-1.3819,6.1173,7.4154,54.0177,-0.4079,-0.3166,-0.2091,0.2971
16:57:56:190,-1.6666,6.329,8.1691,54.4314,-0.3019,-0.3102,-0.13,0.2949
16:57:56:211,-1.6331,6.6437,8.7434,54.8251,-0.0872,-0.2921,-0.0206,0.2954
16:57:56:230,-1.4955,6.8315,8.6477,54.9859,0.1904,-0.2668,0.0551,0.2986
16:57:56:252,-1.4166,7.0469,8.1428,55.1011,0.3777,-0.2057,0.1367,0.3026
16:57:56:269,-1.1809,7.6511,7.3292,55.5406,0.4299,0.0087,0.155,0.3058
16:57:56:290,-1.4273,8.1416,6.1603,55.6948,0.3111,0.0402,0.0619,0.308
16:57:56:310,-1.3424,7.8796,6.4439,55.8489,-0.0078,-0.3651,0.0307,0.3091
16:57:56:330,-0.5073,7.9753,9.5127,56.1574,-0.2925,-0.7414,0.1697,0.3094
16:57:56:351,2.211,8.6931,12.9763,56.1544,-0.0386,-0.447,0.3954,0.3102
16:57:56:371,3.0078,9.1394,12.3039,56.3854,0.2207,-0.2066,0.3172,0.3121
16:57:56:390,3.3141,9.3129,10.7725,57.079,0.3847,-0.0466,0.0799,0.3152
16:57:56:409,2.6369,8.601,9.0568,57.5558,0.3874,-0.0585,-0.3178,0.3186
16:57:56:429,1.4776,6.737,8.5854,57.8746,0.3114,-0.2647,-0.673,0.3218
16:57:56:449,0.5982,4.6493,8.6692,58.2578,0.3123,-0.2906,-0.8028,0.3248
16:57:56:469,-0.14,3.1346,8.1739,58.3822,0.356,-0.1083,-0.757,0.3272
16:57:56:491,-0.6592,2.3198,7.2203,58.5484,0.3557,0.1107,-0.5475,0.3297
16:57:56:510,-0.6449,2.3581,6.1137,59.0305,0.232,0.2372,-0.2451,0.3291
16:57:56:530,-0.1831,3.2399,5.6662,59.3107,-0.0078,0.2359,-0.0075,0.327
16:57:56:551,0.1639,4.0857,5.7488,59.4545,-0.2213,0.2256,0.0921,0.3239
