Time,Acc_X,Acc_Y,Acc_Z,Meg,Gyr_X,Gyr_Y,Gyr_Z,Ore
17:40:04:476,-1.3603,4.7498,10.6517,39.8663,0.0866,-0.0591,0.0912,0.0972
17:40:04:496,-0.4929,5.5765,8.2911,40.8331,0.5347,0.0014,0.1843,0.1345
17:40:04:516,-1.2849,5.4796,5.1996,40.785,0.9308,-0.1413,-0.0579,0.1768
17:40:04:536,-2.5256,4.995,3.4337,41.2535,0.9305,-0.4198,-0.3102,0.2133
17:40:04:558,-3.1645,4.5894,4.075,41.4209,0.2195,-1.0343,-0.3181,0.2384
17:40:04:577,-2.729,4.3585,6.0443,41.522,-0.0893,-0.8596,-0.2246,0.2491
17:40:04:597,-1.8748,4.252,7.8293,42.1973,-0.3199,-0.3386,-0.144,0.2463
17:40:04:616,-1.2263,4.3837,8.5328,42.7125,-0.4971,0.1379,-0.1034,0.2359
17:40:04:636,-1.0875,4.7641,8.5388,42.755,-0.5823,0.4195,-0.1122,0.2251
17:40:04:656,-1.3077,5.1314,8.0973,42.5593,-0.5154,0.3734,-0.1587,0.2181
17:40:04:677,-1.5494,4.9914,7.2467,42.9049,-0.3615,0.0921,-0.2033,0.2157
17:40:04:697,-2.0698,4.5894,6.4786,42.76,-0.3679,-0.2359,-0.2454,0.2169
17:40:04:717,-2.2756,3.9015,7.9561,42.7467,-0.4632,-0.319,-0.2146,0.2162
17:40:04:736,-2.3498,3.7364,8.1655,42.6315,-0.3386,-0.2039,-0.0655,0.2115
17:40:04:756,-2.2337,4.2126,7.4022,42.5116,-0.155,-0.1599,0.1165,0.2077
17:40:04:776,-1.8508,4.9184,7.4118,42.0888,-0.2207,-0.2818,0.2561,0.2058
17:40:04:796,-1.4716,5.1242,7.7073,41.8269,-0.4696,-0.3019,0.3138,0.2043
17:40:04:817,-1.2443,5.1577,8.0495,41.469,-0.8355,-0.3175,0.3517,0.2019
17:40:04:837,-0.8758,5.3252,9.7125,41.0139,-0.5573,-0.294,0.3777,0.1996
17:40:04:856,-0.0622,5.4748,10.1504,41.2521,-0.0188,-0.2298,0.3096,0.1995
17:40:04:877,0.1878,5.866,8.8582,41.1065,0.3108,-0.2949,0.1535,0.2037
17:40:04:897,-0.2465,6.1663,7.5733,41.0536,0.2903,-0.4195,0.0276,0.2111
17:40:04:916,-0.6784,6.0132,7.4201,40.9937,0.1205,-0.4562,0.0069,0.2189
17:40:04:937,-0.8614,5.6578,8.0423,41.175,0.0203,-0.3621,0.0295,0.2244
17:40:04:958,-1.3579,5.3575,9.2913,40.871,0.0835,-0.199,0.0823,0.2298
17:40:04:976,-1.6475,5.2487,9.003,40.6801,0.2048,-0.0741,0.1318,0.2324
17:40:04:996,-1.7743,5.1386,9.0018,39.3603,0.2595,-0.086,0.1804,0.235
17:40:05:017,-1.2431,5.2008,9.1035,37.9948,0.1871,-0.1071,0.2815,0.2357
17:40:05:036,-0.5468,5.4903,10.2413,37.4658,-0.0423,-0.1129,0.4018,0.2353
17:40:05:056,0.0933,5.7942,12.067,37.6435,-0.2216,-0.0438,0.5402,0.234
17:40:05:077,0.8351,6.0443,12.7693,37.849,-0.0148,0.046,0.6636,0.2354
17:40:05:098,1.2275,6.5456,11.9438,38.1584,0.9864,-0.1089,0.7714,0.2416
17:40:05:116,1.2215,7.2909,10.0953,39.4506,1.1303,-0.2753,0.7329,0.252
17:40:05:136,1.3831,7.3089,8.0758,40.1212,0.8068,-0.6098,0.622,0.264
17:40:05:157,1.6463,6.9966,8.0435,41.7383,0.2207,-0.7592,0.4736,0.2738
17:40:05:176,1.937,6.122,9.545,43.1941,-0.2069,-0.5991,0.2821,0.2782
17:40:05:197,1.6439,4.806,11.2774,43.8651,-0.1587,-0.3377,0.1449,0.2782
17:40:05:218,0.4606,2.9898,10.7246,44.0949,0.3034,-0.0848,0.1575,0.2782
17:40:05:236,0.5683,2.9587,8.3198,43.8686,0.8233,-0.0472,0.261,0.2829
17:40:05:256,1.4501,3.2937,6.7813,43.8003,1.0261,-0.2561,0.3651,0.2902
17:40:05:276,2.6704,3.8393,6.3266,43.8558,0.8743,-0.4672,0.4256,0.2967
17:40:05:297,3.4397,4.4315,6.3565,43.8873,0.4724,-0.3609,0.3859,0.2996
17:40:05:316,3.7436,4.9388,6.7178,44.4987,-0.0124,0.0008,0.2656,0.2984
17:40:05:338,3.2148,5.1039,7.0158,44.5758,-0.276,0.4885,-0.2714,0.2954
17:40:05:358,2.2588,4.9017,6.6389,44.4852,-0.0979,0.4186,-0.4772,0.2929
17:40:05:376,1.3388,4.611,5.9222,44.9854,-0.0057,0.2674,-0.5713,0.2919
17:40:05:397,0.524,4.4016,5.4437,44.9015,-0.1214,0.2808,-0.5597,0.2909
17:40:05:416,-0.1041,4.3286,5.3934,44.9387,-0.2564,0.381,-0.4775,0.2882
17:40:05:436,-0.4427,4.6481,5.2702,44.6589,-0.3038,0.3282,-0.4058,0.2845
17:40:05:457,-0.53,4.9627,5.415,44.7304,-0.2659,0.1755,-0.3551,0.2815
17:40:05:478,-0.4941,5.2307,6.0275,44.5022,-0.1156,0.1016,-0.3282,0.2795
17:40:05:496,-0.871,5.0943,5.6865,44.5401,0.035,0.0469,-0.3404,0.2802
17:40:05:516,-1.0696,4.8203,6.0431,45.1446,0.006,-0.0286,-0.2918,0.28
17:40:05:536,-0.8231,4.7258,6.1316,45.1582,-0.1437,0.1217,-0.1345,0.2775
17:40:05:557,-0.3063,5.1625,6.5121,45.3559,-0.327,0.2585,0.0457,0.2734
17:40:05:576,0.6197,5.7535,7.8604,45.5928,-0.4962,0.2595,0.2048,0.269
17:40:05:597,1.5135,6.2847,9.5593,44.933,-0.265,0.1388,0.1645,0.2659
17:40:05:617,1.5805,6.5133,10.7833,44.7992,0.1379,0.1691,-0.0249,0.2653
17:40:05:636,0.8518,6.2776,10.8203,44.8517,0.5399,0.1608,-0.1403,0.2676
17:40:05:656,0.0096,5.817,9.9506,44.8053,0.6782,0.1822,-0.1263,0.2719
17:40:05:676,-0.3852,5.732,9.0844,44.8475,0.4904,0.2555,0.0115,0.2756
17:40:05:697,-0.3314,6.1902,9.3715,44.8611,0.166,0.41,0.1868,0.2769
17:40:05:716,0.0383,6.5013,10.0893,44.8123,-0.0325,0.6187,0.3383,0.2756
17:40:05:738,0.2943,7.1569,10.3741,45.1568,-0.0365,0.6385,0.381,0.2717
17:40:05:757,0.1878,7.6116,10.5129,46.0552,-0.0374,0.4232,0.2943,0.2707
17:40:05:776,-0.0467,6.9105,11.6913,46.2989,-0.1599,0.2179,0.2094,0.2689
17:40:05:797,-0.0215,6.2943,12.4439,46.3259,-0.1947,0.2549,0.2243,0.2667
17:40:05:816,-0.2465,5.9928,12.1878,45.2607,0.0435,0.3777,0.2182,0.2663
17:40:05:837,-1.2491,5.5753,10.5188,44.8986,0.4885,0.5105,0.0997,0.2688
17:40:05:857,-2.5472,4.8778,7.5075,43.4534,0.9143,0.6611,-0.0875,0.2735
17:40:05:877,-3.7914,4.4997,5.0489,42.5944,1.0469,0.5047,-0.1639,0.2792
17:40:05:896,-3.9242,3.8572,4.5595,42.0792,0.141,-0.3389,0.1773,0.2833
17:40:05:916,-3.0532,3.3655,5.8959,41.5843,-0.4846,-0.3062,0.396,0.2829
17:40:05:936,-1.7815,2.9791,8.3055,41.3777,-0.7289,0.0741,0.5414,0.2775
17:40:05:956,-0.8351,2.6142,9.6491,40.6148,-0.5212,0.5539,0.6284,0.2701
17:40:05:976,-0.2548,2.6608,8.6931,40.7222,-0.1868,0.8352,0.7259,0.2636
17:40:05:997,0.28,3.4971,6.2692,41.1176,-0.0402,0.7634,0.7741,0.2593
17:40:06:017,0.4989,4.3633,3.7938,41.7533,-0.0958,0.4305,0.7561,0.2571
17:40:06:036,0.5803,4.5081,4.2126,42.6152,-0.2295,0.0634,0.7506,0.2572
17:40:06:056,0.6891,4.855,5.5035,42.6796,-0.3532,-0.2311,0.7314,0.2573
17:40:06:076,0.5683,4.9089,6.5958,42.7303,-0.3807,-0.3612,0.615,0.2572
17:40:06:097,0.0562,4.9196,7.3065,43.0247,-0.3551,-0.3147,0.4479,0.2564
17:40:06:118,-0.4702,4.8754,7.8293,43.8245,-0.334,-0.0545,0.2543,0.2547
17:40:06:138,-1.0158,4.8574,8.0806,44.9055,-0.2653,0.0173,0.254,0.2523
17:40:06:159,-1.3065,4.8526,8.0913,45.1813,-0.1742,-0.02,0.3315,0.2505
17:40:06:176,-1.279,5.1398,8.2361,45.7626,-0.0735,-0.0872,0.4369,0.2497
17:40:06:197,-0.8243,5.6076,8.4802,45.9286,0.0725,-0.2308,0.5038,0.2505
17:40:06:217,0.0837,6.0419,9.2279,46.1223,0.2543,-0.3575,0.5001,0.2535
17:40:06:237,1.0636,6.4941,10.0702,46.4015,0.4189,-0.2824,0.4427,0.2582
17:40:06:258,1.5314,7.0289,10.3059,46.3839,0.5457,-0.0539,0.3273,0.2681
17:40:06:276,0.1615,7.5996,9.3583,46.4306,0.4797,-0.1324,0.2283,0.2734
17:40:06:298,0.9093,7.809,11.0453,46.499,0.2967,-0.5988,0.3273,0.2794
17:40:06:316,2.9779,8.4215,13.5829,46.1756,0.1584,-1.0175,0.5011,0.2855
17:40:06:337,5.2678,8.9623,15.4576,45.9334,0.1379,-0.9894,0.5774,0.2906
17:40:06:357,6.3027,8.8798,15.3284,46.0887,0.2857,-0.4491,0.4241,0.2944
17:40:06:379,5.7607,8.4419,12.816,46.2839,0.8679,0.4299,-0.2408,0.2984
17:40:06:397,4.2808,7.5721,9.9027,46.5271,0.962,0.1923,-0.7262,0.304
17:40:06:416,2.211,5.5872,8.1296,46.5645,0.9271,-0.1193,-1.0945,0.3107
17:40:06:436,0.4391,3.1525,7.1761,46.6543,0.8514,-0.2741,-1.1067,0.3172
17:40:06:460,-0.5671,1.5206,6.2979,47.3621,0.6669,-0.3413,-0.8856,0.3223
17:40:06:476,-0.9476,0.81,5.598,47.3867,0.3474,-0.352,-0.5102,0.3256
17:40:06:496,-0.4606,0.9212,5.3563,47.5002,-0.0631,-0.2329,-0.1309,0.3261
17:40:06:517,0.6042,1.8293,5.4712,47.4348,-0.4415,0.0521,0.0637,0.3171
17:40:06:536,1.9238,3.9027,5.6806,46.9676,-0.7372,0.2775,0.0255,0.3092
17:40:06:556,1.7898,4.0917,6.0622,46.6107,-0.8181,0.3502,-0.1403,0.3018
17:40:06:577,1.2526,4.0606,5.9091,47.4085,-0.6269,0.2973,-0.3169,0.2967
17:40:06:597,0.8459,4.1934,5.3743,47.5818,-0.3682,0.1889,-0.3719,0.2936
17:40:06:617,0.8195,4.6828,4.7916,47.4858,-0.2216,0.1278,-0.3086,0.2913
17:40:06:638,0.9416,5.3049,4.6038,47.9882,-0.2323,0.0762,-0.2454,0.2891
17:40:06:658,1.1821,5.8636,4.7892,48.3195,-0.4201,-0.0237,-0.2891,0.2865
17:40:06:676,1.2742,6.274,5.4927,48.7443,-0.4623,-0.0347,-0.4128,0.2837
17:40:06:697,0.9978,6.2883,6.3745,49.6329,-0.4039,0.0136,-0.5056,0.2806
17:40:06:717,0.518,6.0754,6.9535,50.6682,-0.2628,0.0276,-0.5157,0.2779
17:40:06:736,0.0682,5.8409,7.1689,50.7159,-0.1593,0.0261,-0.414,0.2761
17:40:06:756,-0.0826,5.7057,7.2287,51.1357,-0.1663,0.0383,-0.2271,0.2747
17:40:06:778,0.1292,6.0383,7.7169,51.3027,-0.2048,0.0692,-0.0432,0.2714
17:40:06:797,0.676,6.8758,9.8812,51.3926,-0.1202,0.1144,-0.035,0.2707
17:40:06:817,-0.0646,6.6903,10.654,52.078,0.049,0.1739,-0.1739,0.271
17:40:06:836,-1.1701,6.0215,10.4937,52.1482,0.3206,0.2891,-0.272,0.273
17:40:06:857,-1.7276,5.5693,9.527,52.3284,0.6147,0.3719,-0.2051,0.2764
17:40:06:877,-1.3268,6.2058,8.5125,52.3221,0.7146,0.4513,0.0579,0.2793
17:40:06:898,-0.7717,7.2048,8.3833,52.6332,0.2225,0.4943,0.3975,0.2806
17:40:06:918,-0.134,7.9717,8.4371,52.7768,-0.0991,0.2698,0.3816,0.2803
17:40:06:936,0.2441,8.1966,9.5366,53.0042,-0.3893,0.0133,0.3135,0.2787
17:40:06:956,0.6796,7.4943,11.8205,53.4812,-0.3896,0.0328,0.3428,0.2762
17:40:06:976,1.0516,6.8423,13.0373,53.776,-0.068,0.2497,0.3994,0.2739
17:40:06:996,1.0205,6.4343,12.0921,54.2017,0.2958,0.3138,0.4146,0.2737
17:40:07:016,0.4738,6.6449,10.4662,54.3122,0.505,0.1324,0.2604,0.276
17:40:07:037,-0.5958,6.2046,9.2542,54.3404,0.5765,0.0267,0.0881,0.2802
17:40:07:057,-2.3856,4.4566,6.798,54.5261,0.4717,-0.0377,0.0909,0.2871
17:40:07:077,-2.3091,3.8489,6.6329,54.5584,0.1871,-0.2014,0.2097,0.2882
17:40:07:097,-1.5661,3.4995,7.2395,54.6448,-0.1559,-0.3505,0.3615,0.2874
17:40:07:117,-0.5228,3.4744,8.3079,54.5665,-0.3865,-0.41,0.4669,0.2856
17:40:07:137,0.2489,3.3942,9.1095,54.528,-0.3896,-0.3337,0.4727,0.2838
17:40:07:158,0.3888,3.2363,8.0782,54.7568,-0.0142,0.6098,0.4088,0.2813
17:40:07:178,0.1053,3.3882,6.0682,55.3195,-0.0231,0.7973,0.4931,0.2781
17:40:07:196,0.0909,3.9553,4.5176,55.6331,-0.1217,0.5695,0.5655,0.275
17:40:07:216,0.2967,4.4937,3.8812,55.5081,-0.2399,0.141,0.5728,0.273
17:40:07:236,0.6497,4.9507,4.1611,55.6927,-0.3795,-0.2488,0.5069,0.2721
17:40:07:256,1.0217,5.2199,5.415,56.0097,-0.4849,-0.3593,0.4079,0.2714
17:40:07:277,1.2419,5.4114,6.9236,56.3001,-0.4589,-0.2518,0.2622,0.2699
17:40:07:297,0.7549,5.6207,7.9394,56.1159,-0.3154,-0.1095,0.0854,0.2668
17:40:07:318,0.1448,5.4891,7.9226,56.5714,-0.1813,-0.0961,-0.0493,0.2663
17:40:07:336,-0.2261,5.3121,7.949,56.4647,-0.118,-0.1287,-0.0762,0.266
17:40:07:356,-0.2943,5.4879,8.0124,56.5974,-0.0896,-0.1419,0.0145,0.266
17:40:07:376,0.1376,6.1651,8.266,56.7379,-0.0386,-0.1162,0.1575,0.2668
17:40:07:397,0.6257,6.786,8.4909,57.0538,0.0817,-0.1694,0.2228,0.2695
17:40:07:416,0.8542,6.9153,8.9288,57.0071,0.2573,-0.3789,0.1739,0.2747
17:40:07:438,1.0935,7.0241,9.874,56.7674,0.4058,-0.5939,0.1318,0.2811
17:40:07:457,1.1067,7.5254,10.0499,57.1948,0.5276,-0.2369,-0.009,0.2866
17:40:07:477,0.5827,7.6187,9.7376,57.0487,0.5289,-0.3239,-0.0771,0.2917
17:40:07:496,0.4164,7.2084,10.0834,56.9995,0.5246,-0.4727,0.0133,0.2976
17:40:07:516,1.1928,7.1498,10.2568,57.6603,0.3703,-0.4268,0.1709,0.3031
17:40:07:536,2.2756,7.5075,10.2568,58.2527,0.0121,-0.4253,0.2628,0.3065
17:40:07:558,3.1908,7.7288,11.5645,58.6722,-0.173,-0.2723,0.272,0.3073
17:40:07:577,4.2879,7.1892,11.5657,59.0262,-0.0166,0.0066,0.1654,0.3078
17:40:07:596,3.7759,6.5216,10.1085,59.3502,0.2576,0.1193,-0.0851,0.3099
17:40:07:616,2.7278,5.2235,8.808,59.4151,0.4519,0.0322,-0.4278,0.3132
17:40:07:636,1.5446,3.7986,7.413,59.6433,0.5472,-0.0075,-0.6807,0.3166
17:40:07:657,0.883,2.9635,6.1149,59.829,0.5402,-0.049,-0.7585,0.3194
17:40:07:676,0.792,2.7553,5.1829,59.456,0.3816,-0.0829,-0.6791,0.3206
17:40:07:698,0.8471,3.1513,5.0991,59.3157,0.0799,-0.078,-0.5169,0.3195
17:40:07:716,1.0205,3.6694,5.3228,58.9761,-0.3309,-0.0728,-0.4195,0.317
17:40:07:736,0.9703,3.8764,5.8947,58.7722,-0.3682,-0.0768,-0.4791,0.3141
17:40:07:756,0.8506,3.8752,6.4546,58.9878,-0.3288,0.0921,-0.5234,0.3107
17:40:07:776,0.4654,3.8034,6.402,58.941,-0.2607,0.2854,-0.509,0.3068
17:40:07:796,0.1161,3.8333,5.744,58.7416,-0.2008,0.3251,-0.4094,0.303
17:40:07:818,0.1854,4.3238,5.0381,58.6974,-0.1846,0.2048,-0.3038,0.2975
17:40:07:838,0.8518,5.4281,4.6804,58.6779,-0.2445,0.068,-0.2549,0.2951
17:40:07:857,0.987,5.7631,4.9496,58.7421,-0.3581,0.0087,-0.265,0.2918
17:40:07:877,1.0169,5.9928,5.6183,59.129,-0.4888,0.0359,-0.2961,0.2875
17:40:07:897,0.9631,6.1065,6.6425,59.4336,-0.5441,0.0454,-0.3279,0.2835
17:40:07:916,0.8327,6.1173,7.2467,59.453,-0.429,0.0151,-0.3618,0.2806
17:40:07:936,0.5611,6.1316,7.7049,59.5768,-0.2824,0.0093,-0.3642,0.2786
17:40:07:958,0.6245,6.3589,8.1332,59.6749,-0.0713,0.0777,-0.1538,0.2774
17:40:07:976,0.9141,6.9823,8.1966,60.0627,0.0023,0.0863,-0.152,0.2768
17:40:07:996,0.731,7.334,8.5819,60.4102,0.1031,0.0481,-0.2317,0.2769
17:40:08:016,0.3111,7.0433,9.3105,60.2908,0.3306,0.0405,-0.3254,0.2784
17:40:08:036,-0.4869,6.6784,9.3787,59.8673,0.4953,0.0359,-0.3645,0.2814
17:40:08:056,-1.3424,6.5551,9.1537,59.7092,0.3816,-0.005,-0.2476,0.2846
17:40:08:077,-1.0792,6.2393,10.5368,59.7862,0.1654,0.1052,-0.024,0.2864
17:40:08:098,-0.414,7.1701,10.0905,59.6936,0.1526,0.2757,0.3077,0.287
17:40:08:116,0.7071,8.3629,9.7998,59.6513,0.1892,0.1739,0.5515,0.2888
17:40:08:136,1.6187,8.4191,10.879,59.5875,0.0848,-0.1816,0.5527,0.291
17:40:08:156,1.9932,7.5446,12,59.3286,-0.0118,-0.3593,0.4357,0.2929
17:40:08:176,2.2134,6.9404,12.1185,59.4213,0.0838,-0.2268,0.4018,0.2952
17:40:08:196,1.9286,7.3974,11.1888,59.4206,0.3517,0.0606,0.3887,0.2983
17:40:08:218,0.6544,7.2479,9.3583,59.2873,0.6159,0.3951,0.1776,0.3016
17:40:08:236,-1.0409,6.4319,7.0708,59.0958,0.6968,0.7237,-0.2937,0.3042
17:40:08:256,-2.4658,5.4724,5.056,58.9103,0.4287,0.3792,-0.3108,0.3059
17:40:08:276,-3.1286,4.5212,4.4459,58.6945,0.0283,-0.0631,-0.1862,0.3068
17:40:08:297,-2.9922,3.8261,5.2582,58.145,-0.3529,-0.2259,-0.0029,0.3059
17:40:08:316,-2.2863,3.2171,6.682,57.7579,-0.5475,-0.1623,0.1859,0.3027
17:40:08:338,-0.5025,3.0485,8.0662,57.5671,-0.4876,0.1602,0.3288,0.2934
17:40:08:358,-0.1292,3.5809,6.7585,57.4297,-0.3328,0.5881,0.3865,0.2883
17:40:08:376,-0.134,4.1444,5.61,57.4174,-0.2454,0.7369,0.4216,0.2841
17:40:08:396,-0.0802,4.2891,5.1302,57.0654,-0.2198,0.5478,0.4537,0.2815
17:40:08:416,0.1998,4.7079,5.0297,56.9194,-0.1752,0.2683,0.5029,0.2805
17:40:08:436,0.609,5.4532,5.2056,56.6536,-0.1648,0.0432,0.5527,0.2801
17:40:08:468,0.7119,5.9701,5.8564,56.599,-0.2448,-0.0573,0.4852,0.2791
17:40:08:477,0.2249,5.8684,6.5527,56.686,-0.2427,-0.1345,0.1678,0.278
17:40:08:497,-0.4056,5.6853,6.8507,56.0135,-0.1932,-0.1929,0.1367,0.2775
17:40:08:516,-0.7884,5.6183,7.1234,55.8976,-0.2225,-0.2491,0.202,0.2772
17:40:08:536,-0.7107,5.6518,7.7264,55.667,-0.2427,-0.2805,0.3086,0.2768
17:40:08:557,-0.2357,5.9677,8.8343,55.7347,-0.0848,-0.2448,0.3832,0.2768
17:40:08:577,0.2656,6.457,9.4122,55.6624,0.2326,-0.1898,0.363,0.2785
17:40:08:598,0.335,6.749,8.5914,55.7558,0.4895,-0.2885,0.3361,0.289
17:40:08:618,0.8411,7.3771,8.9061,55.9188,0.5872,-0.4082,0.4058,0.2956
17:40:08:636,1.206,8.1547,8.5974,55.7906,0.5796,-0.2222,0.4189,0.3007
17:40:08:657,0.7454,8.7924,8.4526,56.0534,0.4696,-0.0649,0.2903,0.3044
17:40:08:677,0.8853,8.68,8.6812,56.1193,0.2637,-0.1278,0.1675,0.307
17:40:08:697,1.87,8.3892,9.5845,56.197,-0.0328,-0.3813,0.1107,0.3078
17:40:08:717,2.9803,7.7121,12.0156,55.8282,-0.494,-0.637,0.0774,0.3056
17:40:08:738,3.6299,6.6437,14.1488,55.8779,-0.4397,0.0759,-0.0725,0.3012
17:40:08:757,3.1083,5.7523,13.4178,55.635,0.2347,0.3508,-0.1602,0.2986
17:40:08:777,2.1368,5.3049,10.6301,55.1226,0.677,0.1043,-0.2714,0.3004
17:40:08:796,1.3687,4.3741,8.6716,55.0494,0.7402,-0.1083,-0.3282,0.3055
17:40:08:816,0.9368,3.2578,7.3567,54.7306,0.5411,-0.0783,-0.2262,0.3104
17:40:08:836,1.0588,2.9288,6.3182,54.6362,0.1965,0.0304,-0.0438,0.3128
17:40:08:858,1.6367,3.7089,5.7188,54.4596,-0.2082,0.1168,-0.0151,0.3083
17:40:08:878,1.8413,4.5978,6.1352,54.621,-0.5304,0.2133,-0.1388,0.3024
17:40:08:896,1.3472,4.5619,6.2213,54.6457,-0.6223,0.2781,-0.2937,0.2965
17:40:08:916,0.7358,4.4626,6.0538,54.624,-0.5344,0.221,-0.4186,0.2916
17:40:08:937,0.3147,4.4411,6.207,55.0807,-0.4366,0.104,-0.4467,0.288
17:40:08:957,0.3829,4.4662,6.597,55.1248,-0.3349,-0.0322,-0.3826,0.2858
17:40:08:976,0.5324,4.6564,6.6712,55.3065,-0.2027,-0.0716,-0.3025,0.2844
17:40:08:998,0.8375,5.0405,6.4834,55.4718,-0.1074,0.2002,-0.2027,0.2827
17:40:09:017,0.9691,5.4544,6.3266,55.4547,-0.0548,0.3218,-0.2582,0.2808
17:40:09:036,0.6353,5.4808,5.994,55.5721,0.0417,0.3535,-0.2983,0.2791
17:40:09:057,0.1472,5.4293,5.2798,55.237,0.0564,0.2304,-0.2772,0.2782
17:40:09:077,-0.2357,5.3958,4.9543,55.4262,-0.06,0.0267,-0.1773,0.2778
17:40:09:097,-0.1065,5.2965,5.4317,55.2645,-0.2219,-0.0817,-0.0234,0.277
17:40:09:118,0.4642,5.4808,6.5109,55.153,-0.3038,-0.1187,0.1052,0.2743
17:40:09:139,1.2072,5.7894,7.925,55.2091,-0.1742,-0.111,0.1782,0.2748
17:40:09:156,2.1655,6.7932,9.2064,54.7845,0.0915,-0.1165,0.1342,0.2772
17:40:09:177,1.8185,6.737,8.9827,54.5653,0.3438,-0.0658,-0.0014,0.2807
17:40:09:196,0.6784,6.396,8.0853,54.4718,0.5029,0.0866,-0.1547,0.2842
17:40:09:217,-0.3218,6.3051,7.3448,54.2495,0.5154,0.1434,-0.21,0.2872
17:40:09:236,-0.0598,6.9906,7.9932,53.918,0.3187,0.0389,-0.0573,0.2884
17:40:09:258,0.5934,7.6929,9.8465,53.3897,-0.0136,0.0041,0.089,0.2875
17:40:09:277,1.1833,8.5065,10.7426,52.8466,-0.0243,0.1321,0.089,0.2863
17:40:09:296,1.5206,9.0664,11.062,52.1048,0.0521,-0.0173,-0.049,0.2865
17:40:09:316,1.4764,8.8798,11.4054,52.0868,-0.0283,-0.024,-0.1492,0.287
17:40:09:337,1.3328,8.2564,11.8313,51.7379,-0.0866,0.1171,-0.1645,0.2862
17:40:09:356,1.1821,7.3651,11.7823,51.5344,0.0655,0.1486,-0.1856,0.285
17:40:09:378,0.5635,6.6329,11.2463,51.3171,0.3771,0.1052,-0.2784,0.2884
17:40:09:398,-0.4558,5.7141,9.9171,51.171,0.5973,0.2381,-0.3661,0.2909
17:40:09:417,-2.4837,4.1958,5.787,51.1909,0.5625,0.3593,-0.3288,0.2922
17:40:09:436,-2.5711,3.8118,5.2367,51.082,0.2711,0.2063,-0.1764,0.2921
17:40:09:456,-1.7228,3.5569,5.8756,51.4875,-0.1055,-0.057,0.0237,0.2904
17:40:09:477,-0.798,3.5761,6.5587,50.9711,-0.3771,-0.1205,0.1614,0.2871
17:40:09:496,-0.3505,3.5318,7.2407,50.7567,-0.5316,-0.0399,0.2051,0.2827
17:40:09:518,-0.2166,3.3679,7.5589,50.4427,-0.341,0.1452,0.2796,0.2787
17:40:09:538,-0.0706,3.5366,7.2,50.1275,-0.1223,0.1376,0.3596,0.2763
17:40:09:556,0.1723,4.1049,6.3159,49.8769,-0.0505,0.0341,0.4174,0.2756
17:40:09:578,0.4558,4.6229,5.8373,49.6686,-0.0979,-0.0536,0.4595,0.2757
17:40:09:596,0.8578,5.1458,5.7966,49.4471,-0.1407,-0.0783,0.4375,0.2758
17:40:09:618,1.1342,5.7607,5.7069,49.096,-0.17,-0.104,0.3114,0.2757
17:40:09:636,1.0409,6.1759,5.6674,48.8465,-0.2188,-0.1394,0.126,0.2754
17:40:09:658,0.6425,6.2034,5.9677,48.708,-0.2231,-0.2057,-0.0301,0.2747
17:40:09:676,-0.2895,5.9378,6.9715,48.3496,-0.1709,-0.286,-0.1092,0.275
17:40:09:696,-0.5216,5.8134,7.748,48.1983,-0.1379,-0.3645,-0.1309,0.2758
17:40:09:717,-0.4678,5.7428,8.4514,48.3512,-0.0655,-0.3994,-0.0759,0.2775
17:40:09:737,-0.3625,6.0909,8.4957,48.2132,0.1196,-0.363,0.0026,0.2806
17:40:09:757,-0.0263,6.5324,8.0183,48.2117,0.3349,-0.3144,0.0713,0.2853
17:40:09:778,0.5204,7.1163,7.8939,48.4388,0.4678,-0.4204,0.1174,0.2913
17:40:09:798,0.987,7.4859,8.6273,48.4428,0.4363,-0.6917,0.0258,0.2979
17:40:09:817,1.267,7.6917,9.3643,48.5946,0.3914,-0.5725,-0.0994,0.3039
17:40:09:836,0.7908,7.6211,10.0439,48.5435,0.3835,-0.4229,-0.1336,0.3089
17:40:09:857,0.3206,7.4728,10.1073,48.1187,0.4,-0.3105,0.0218,0.3132
17:40:09:876,1.011,7.5314,9.2877,47.6937,0.2133,-0.429,0.2188,0.3172
17:40:09:896,2.3103,8.065,9.478,47.3221,-0.1975,-0.5334,0.2628,0.3197
17:40:09:918,3.4863,7.2215,11.9402,47.1893,-0.4287,-0.2301,0.1804,0.3161
17:40:09:936,3.2124,6.7765,11.0608,46.8466,-0.3007,0.1736,0.053,0.3138
17:40:09:955,2.6225,5.8361,10.069,46.314,-0.0026,0.1431,-0.1358,0.3146
17:40:09:976,1.9705,4.4016,9.1777,45.6662,0.2866,-0.1461,-0.3187,0.3179
17:40:09:996,1.6343,3.2435,8.0889,45.1345,0.4323,-0.2757,-0.3676,0.3217
17:40:10:016,1.8365,3.2088,7.078,44.8437,0.4131,-0.2463,-0.2265,0.3246
17:40:10:037,2.3785,3.9864,6.53,43.72,0.0301,-0.0838,-0.0771,0.326
17:40:10:057,2.5735,4.5236,6.2357,43.1694,-0.155,0.1126,-0.2069,0.3251
17:40:10:076,2.272,4.8239,5.933,42.6939,-0.2402,0.2631,-0.3719,0.3225
17:40:10:097,1.7384,4.8634,5.3372,42.1692,-0.2451,0.2463,-0.5179,0.3192
17:40:10:117,1.1103,4.7533,4.8383,42.2961,-0.2344,0.0988,-0.5957,0.3162
17:40:10:136,0.5348,4.5846,4.6696,42.5844,-0.2494,-0.0457,-0.5725,0.3139
17:40:10:156,0.2333,4.4626,4.8168,42.9475,-0.2653,-0.1355,-0.4968,0.3119
17:40:10:178,0.2943,4.5356,5.1003,43.5507,-0.2879,-0.152,-0.4195,0.3079
17:40:10:196,0.792,5.1852,6.1735,44.7814,-0.2711,-0.0359,-0.356,0.3057
17:40:10:217,0.9212,5.7009,6.1149,45.7509,-0.1532,0.1009,-0.3419,0.3043
17:40:10:237,0.5934,5.9916,5.5561,46.6968,-0.0044,0.1822,-0.3963,0.3036
17:40:10:257,0.2441,5.9952,5.1984,47.2901,0.0179,0.1553,-0.4042,0.3029
17:40:10:277,0.3505,6.1077,5.9725,47.7969,-0.1113,0.0518,-0.2961,0.3017
17:40:10:299,1.0397,6.4953,7.4524,48.0446,-0.1831,-0.0738,-0.1138,0.3013
17:40:10:317,1.7109,7.0887,8.2421,48.0908,0.159,-0.0631,-0.0267,0.3022
17:40:10:337,1.7228,7.5781,8.5807,48.543,0.2967,-0.0646,-0.1367,0.3045
17:40:10:356,1.2239,7.4381,8.8343,48.7082,0.3868,-0.0576,-0.2506,0.3075
17:40:10:378,0.4977,7.0026,9.1286,48.744,0.4556,-0.0347,-0.2625,0.311
17:40:10:397,-0.1627,6.9631,9.417,48.6476,0.4476,0.1019,-0.1492,0.3143
17:40:10:417,-0.1759,7.3053,9.6132,48.6391,0.3615,0.3603,-0.0105,0.3164
17:40:10:438,-0.189,8.2863,9.7125,48.708,0.3123,0.5741,0.0353,0.3173
17:40:10:470,-0.3398,8.5184,9.1442,48.8926,0.3377,0.6358,0.0603,0.3179
17:40:10:478,-0.1029,8.6261,9.1549,49.1543,0.3166,0.4739,0.1119,0.3189
17:40:10:498,0.3422,8.3474,9.7555,48.9771,0.2045,0.2863,0.1626,0.3195
17:40:10:517,0.7035,7.8556,10.2413,48.7932,0.1177,0.2647,0.2042,0.3197
17:40:10:537,0.5264,7.3759,9.9482,48.9679,0.2179,0.3343,0.181,0.3209
17:40:10:560,-0.585,6.7525,8.6596,48.9503,0.6397,0.4858,-0.1385,0.3234
17:40:10:578,-2.0578,5.6973,6.5336,49.2416,0.5301,0.433,-0.141,0.326
17:40:10:597,-2.9803,4.9149,4.9663,49.2596,0.1229,0.1153,0.0545,0.3273
17:40:10:617,-2.8726,4.4327,5.0501,49.3207,-0.3664,-0.159,0.3367,0.3266
17:40:10:637,-1.7527,4.1671,6.2177,49.5543,-0.6956,-0.2014,0.5661,0.3233
17:40:10:657,-0.3613,4.3155,7.8281,49.8092,-0.7179,-0.0948,0.6837,0.3187
17:40:10:676,1.127,4.6875,9.1023,50.0431,-0.4213,0.2524,0.6321,0.3143
17:40:10:698,1.852,5.1601,8.4275,49.9037,-0.082,0.5906,0.4339,0.309
17:40:10:717,0.7382,5.3898,4.9711,49.9128,0.082,0.5738,0.2995,0.3084
17:40:10:736,0.3386,5.2223,4.3178,49.6191,0.0872,0.2986,0.2622,0.3088
17:40:10:756,0.1986,5.1111,4.3035,49.6366,-0.0102,0.0402,0.2888,0.3091
17:40:10:777,0.1962,5.2582,4.4351,49.5432,-0.1348,-0.0759,0.3172,0.3087
17:40:10:797,0.1053,5.5406,4.6552,49.6469,-0.2527,-0.0744,0.2821,0.3073
17:40:10:818,-0.0431,5.8265,5.3563,49.8797,-0.3459,-0.0982,0.2063,0.3056
17:40:10:838,-0.3218,5.9605,5.9868,50.0495,-0.3303,-0.1767,0.0985,0.3045
17:40:10:857,-0.6843,5.9234,6.536,50.3843,-0.2665,-0.3523,-0.0173,0.3038
17:40:10:877,-0.8913,5.878,7.2802,50.6298,-0.2732,-0.4049,0.0469,0.3034
17:40:10:897,-0.7418,5.9809,8.2301,50.986,-0.2158,-0.3651,0.1452,0.303
17:40:10:917,-0.3111,6.2584,9.0114,51.3303,-0.0463,-0.2439,0.2277,0.3032
17:40:10:937,-0.0036,6.6066,9.1262,51.7826,0.1495,-0.1889,0.2763,0.3045
17:40:10:959,0.3697,6.731,8.9025,52.0063,0.3074,-0.2185,0.3688,0.3111
17:40:10:978,1.1569,7.1438,8.6632,51.9905,0.3606,-0.1205,0.3841,0.3143
17:40:10:996,0.5635,7.9502,7.748,51.9396,0.2308,-0.056,0.2943,0.3161
17:40:11:017,0.8064,8.0088,8.2457,51.7125,-0.0166,-0.1187,0.3297,0.3162
17:40:11:037,2.272,8.4778,8.948,51.8699,-0.2937,-0.1901,0.4665,0.3149
17:40:11:057,3.667,9.0006,10.4865,51.9498,-0.5426,-0.4003,0.4675,0.3131
17:40:11:078,4.593,8.5472,12.3948,51.811,-0.5982,-0.472,-0.0224,0.3111
17:40:11:098,4.7342,7.6881,13.0469,51.6988,-0.3273,-0.2219,-0.3468,0.3087
17:40:11:117,3.7101,6.3948,12.4522,51.6502,0.0664,-0.2173,-0.6009,0.3079
17:40:11:137,2.4395,4.6756,11.196,51.9919,0.4259,-0.2879,-0.6574,0.3101
17:40:11:157,1.602,3.3057,9.4648,52.1545,0.5701,-0.3135,-0.5328,0.3144
17:40:11:177,1.4979,2.7924,7.6534,52.7001,0.407,-0.283,-0.3248,0.3186
17:40:11:198,2.0064,3.1753,6.5204,52.7732,0.0649,-0.1688,-0.2118,0.3207
17:40:11:218,2.5316,3.8441,6.1041,52.8928,-0.264,0.0496,-0.276,0.3157
17:40:11:237,2.1332,4.5894,5.7021,53.2011,-0.451,0.264,-0.4424,0.3106
17:40:11:257,1.4536,4.5308,5.3587,53.3935,-0.4162,0.2738,-0.6199,0.3067
17:40:11:277,0.6915,4.3645,4.8945,53.5971,-0.2552,0.086,-0.7436,0.3047
17:40:11:298,0.2046,4.4327,5.0213,53.4898,-0.1776,-0.1465,-0.742,0.3036
17:40:11:317,0.2632,4.6971,5.4748,53.679,-0.2066,-0.2466,-0.6382,0.3022
17:40:11:338,0.3769,4.9519,5.9079,53.6849,-0.2763,-0.1733,-0.5478,0.2998
17:40:11:357,0.3314,5.1984,6.0443,53.9313,-0.2876,0.0118,-0.5127,0.2976
17:40:11:378,0.0156,5.3874,5.7308,54.2771,-0.0542,0.2396,-0.5466,0.2955
17:40:11:397,-0.451,5.5083,5.3827,54.478,0.0261,0.2152,-0.5069,0.2943
17:40:11:417,-0.7992,5.6578,4.9866,54.6439,-0.0203,0.1602,-0.4235,0.2936
17:40:11:437,-0.9703,5.8265,4.9448,54.6766,-0.1987,0.0359,-0.276,0.2923
17:40:11:457,-0.6903,5.951,5.7978,54.9365,-0.3807,-0.1071,-0.0832,0.2901
17:40:11:478,0.0754,6.1065,7.7133,55.0337,-0.3508,-0.1461,0.0732,0.2875
17:40:11:499,1.0433,6.9248,10.1563,55.0757,-0.078,-0.0075,0.086,0.2885
17:40:11:517,0.4391,6.9751,9.6419,55.2048,0.2808,0.1327,-0.0154,0.2921
17:40:11:537,-0.3458,6.7274,9.3069,55.2652,0.5533,0.0567,-0.1043,0.2976
17:40:11:557,-0.4044,6.6544,9.3356,55.1886,0.6489,-0.0872,-0.0396,0.3035
17:40:11:578,0.1651,7.1952,9.8871,55.2265,0.5435,-0.0808,0.1336,0.3066
17:40:11:598,0.3398,7.3723,10.855,55.3121,0.2363,0.2677,0.2509,0.3063
17:40:11:618,0.5324,7.9597,10.5464,55.3321,0.1758,0.7139,0.396,0.3062
17:40:11:636,0.323,8.5005,9.271,55.2072,0.5053,0.4262,0.3685,0.3086
17:40:11:656,-0.4164,7.8664,9.119,55.0894,0.33,0.1352,0.4323,0.3118
17:40:11:677,-0.6317,6.8243,9.6706,55.0539,0.0701,0.0545,0.6629,0.3138
17:40:11:697,0.0239,6.1783,10.7031,54.8801,-0.0014,0.2918,0.8548,0.3139
17:40:11:717,0.7501,6.7167,10.9783,54.9839,0.2543,0.6975,0.7347,0.3133
17:40:11:738,0.4355,7.2407,8.942,54.9089,0.5087,0.9088,0.3679,0.3149
17:40:11:758,-0.7143,6.8339,5.5896,54.782,0.3893,0.5915,0.0988,0.3155
17:40:11:777,-1.255,5.0201,4.2748,54.907,-0.1159,-0.017,0.0716,0.3135
17:40:11:797,-0.1017,4.4949,6.3697,55.1468,-0.7454,-0.3554,0.1898,0.3075
17:40:11:817,0.7131,4.2293,8.7338,55.3334,-1.1345,-0.3453,0.2589,0.2997
17:40:11:836,1.0169,3.7531,10.1539,55.175,-1.0505,-0.2589,0.2069,0.2935
17:40:11:856,0.8973,3.5665,9.594,55.1485,-0.571,-0.0673,0.1623,0.2904
17:40:11:878,0.6365,3.9027,7.6857,55.5203,-0.0997,0.1935,0.214,0.2891
17:40:11:897,0.6257,4.4028,5.9151,55.8787,0.0548,0.3355,0.3789,0.2884
17:40:11:917,0.7418,4.8203,4.9005,56.2521,-0.0276,0.2155,0.3453,0.2879
17:40:11:937,0.6832,5.1553,4.4638,56.0558,-0.1306,0.056,0.243,0.2873
17:40:11:957,0.5815,5.3755,4.5093,56.4177,-0.2387,-0.0701,0.0988,0.2866
17:40:11:978,0.3984,5.4556,5.0177,56.6,-0.3392,-0.1153,-0.0567,0.2851
17:40:11:998,0.067,5.4736,5.732,57.1791,-0.4204,-0.1028,-0.2051,0.2795
17:40:12:018,-1.0146,5.0225,7.547,57.5525,-0.476,-0.0756,-0.2757,0.2759
17:40:12:036,-1.2479,4.8383,8.5268,57.5067,-0.4268,-0.1297,-0.2195,0.2733
17:40:12:058,-1.0241,4.9783,9.2997,57.3388,-0.3053,-0.1886,-0.0545,0.272
17:40:12:077,-0.3362,5.5537,9.8225,57.4985,-0.1232,-0.2057,0.1477,0.2728
17:40:12:096,0.4618,6.2477,10.0702,57.6135,0.1578,-0.2656,0.2717,0.2765
17:40:12:116,0.9787,6.7214,9.868,57.6381,0.4662,-0.3199,0.2766,0.2822
17:40:12:138,1.1809,7.4608,8.6871,57.8496,0.6336,-0.1455,0.2717,0.2876
17:40:12:156,1.0409,8.0267,7.7013,57.8336,0.3144,-0.3566,0.1168,0.2921
17:40:12:176,0.8901,7.9968,8.9886,57.7526,0.1138,-0.6886,0.1434,0.2965
17:40:12:197,1.4728,7.882,10.9747,57.752,0.1019,-0.6067,0.2497,0.3002
17:40:12:218,2.5125,8.0865,11.3312,58.3386,0.1132,-0.5563,0.2766,0.3036
17:40:12:236,3.3332,8.5184,11.6016,58.4262,0.0374,-0.4577,0.1428,0.3065
17:40:12:258,3.7184,8.1512,11.8277,58.6276,0.0078,-0.2069,-0.1208,0.3086
17:40:12:278,2.2636,5.8481,10.8526,58.8448,0.0951,-0.0457,-0.4275,0.3099
17:40:12:298,1.1665,4.0175,9.5318,59.0294,0.3538,-0.0408,-0.6446,0.3131
17:40:12:317,0.402,2.8427,7.4345,59.1959,0.6187,-0.042,-0.6819,0.3175
17:40:12:337,0.5803,2.8774,5.2271,59.9029,0.6458,-0.0646,-0.4916,0.3212
17:40:12:356,1.3496,3.6048,4.118,60.1538,0.3325,-0.1764,-0.2702,0.3224
17:40:12:376,2.2828,4.2784,4.3346,60.2062,-0.1709,-0.3273,-0.1654,0.3205
17:40:12:398,2.9061,4.6445,5.4018,60.5815,-0.8951,-0.308,-0.4369,0.3156
17:40:12:416,2.8331,4.5296,6.3338,60.8184,-0.9097,-0.1822,-0.6455,0.3089
17:40:12:436,2.0016,4.3657,6.6532,60.9435,-0.7668,-0.199,-0.7646,0.3024
17:40:12:456,1.1605,3.947,6.737,61.2457,-0.5704,-0.2683,-0.7402,0.2973
17:40:12:476,0.6042,3.6861,6.6975,61.5205,-0.4,-0.2509,-0.5893,0.2938
17:40:12:496,0.4187,3.7974,6.6269,61.5573,-0.275,-0.1425,-0.3954,0.2913
17:40:12:518,1.0911,4.9208,6.591,62.2106,-0.1394,0.0301,-0.3041,0.2882
17:40:12:537,0.9272,5.2164,5.7942,62.3767,-0.0038,0.2381,-0.3621,0.2873
17:40:12:556,0.2895,5.3504,5.0501,62.6296,0.0564,0.297,-0.4607,0.2869
17:40:12:577,-0.3386,5.202,4.5894,63.1421,0.0444,0.1718,-0.5069,0.2867
17:40:12:596,-0.5444,5.2152,4.6325,63.6931,-0.0701,0.0026,-0.4168,0.2855
17:40:12:617,-0.1651,5.3862,5.6806,64.0783,-0.3038,-0.1391,-0.2408,0.2829
17:40:12:636,0.609,5.6507,7.523,64.1036,-0.524,-0.2136,-0.053,0.2791
17:40:12:659,1.1701,6.073,8.9731,64.3948,-0.5389,-0.14,0.0744,0.2758
17:40:12:676,1.2455,6.3111,9.7579,64.2868,-0.027,-0.0383,0.0496,0.2745
17:40:12:697,1.0205,6.4594,9.746,64.4771,0.246,-0.0619,-0.02,0.2757
17:40:12:716,0.5934,6.5504,9.4397,64.6802,0.3581,-0.0505,-0.0838,0.2786
17:40:12:737,0.262,6.743,9.2124,64.8821,0.2717,0.0243,-0.067,0.2815
17:40:12:756,0.6329,6.9703,9.3703,64.8284,-0.0301,0.1794,-0.0182,0.2824
17:40:12:782,1.0397,7.2742,11.6734,64.6375,-0.1529,0.5059,0.0603,0.2778
17:40:12:797,1.0504,7.7671,11.4664,64.9848,0.0936,0.6452,0.1232,0.2782
17:40:12:817,1.4728,7.8939,10.6373,65.3251,0.414,0.4843,0.1474,0.2809
17:40:12:836,1.6786,7.9179,10.5882,65.6502,0.4213,0.232,0.1009,0.2833
17:40:12:857,1.8114,7.1569,11.5131,65.9673,0.2051,0.0649,0.0295,0.2845
17:40:12:876,1.6032,6.3697,11.5825,65.9283,0.1733,0.1657,0.006,0.2857
17:40:12:897,0.3817,5.7787,10.1204,66.1056,0.429,0.4305,-0.0863,0.2883
17:40:12:917,-1.3232,5.013,7.5793,66.4491,0.7552,0.6862,-0.2277,0.2923
17:40:12:937,-2.741,4.4435,4.9424,66.8092,0.6061,0.3807,-0.1996,0.2961
17:40:12:956,-3.4205,4.1073,3.7208,66.9693,0.005,-0.2363,0.0127,0.2984
17:40:12:976,-2.8582,3.5713,4.9053,66.8293,-0.6156,-0.495,0.2653,0.2973
17:40:12:996,-1.5206,3.3069,6.999,66.8773,-0.9821,-0.4595,0.3948,0.2922
17:40:13:016,-0.4857,3.1956,9.4433,67.2248,-0.9085,-0.0661,0.443,0.285
17:40:13:037,0.2034,2.9934,10.1599,67.6916,-0.535,0.5582,0.454,0.2779
17:40:13:057,0.2859,3.3248,8.3689,67.6345,-0.1874,0.823,0.4904,0.2689
17:40:13:076,0.3446,4.3777,4.4662,67.6379,-0.0441,0.5444,0.5255,0.2682
17:40:13:096,0.8195,4.5535,4.4471,67.3758,-0.0762,-0.0035,0.5676,0.2688
17:40:13:116,1.6379,5.123,5.6997,67.7861,-0.2216,-0.3835,0.6336,0.2689
17:40:13:137,2.1595,5.7212,6.8542,68.2301,-0.3541,-0.3377,0.597,0.2677
17:40:13:156,1.7312,5.9749,6.9272,68.3839,-0.2995,-0.1132,0.37,0.2666
17:40:13:178,0.6221,5.7835,6.7442,68.5342,-0.1904,-0.0805,0.0689,0.2661
17:40:13:197,-0.2465,5.3336,6.8303,68.1844,-0.2121,-0.3074,-0.1077,0.2656
17:40:13:216,-0.5815,5.0644,7.3268,68.8569,-0.2497,-0.3856,-0.0286,0.2651
17:40:13:236,-0.3565,5.1446,8.2911,69.171,-0.1944,-0.3178,0.0768,0.2645
17:40:13:256,0.1053,5.592,8.8283,69.925,-0.0173,-0.2124,0.1113,0.2645
17:40:13:277,0.4223,6.0526,8.4383,70.2279,0.1419,-0.3502,0.0741,0.266
17:40:13:299,0.7753,6.3015,8.5472,70.5589,0.2155,-0.6095,0.0582,0.2739
17:40:13:318,1.7252,7.0899,10.3358,70.8678,0.2753,-0.5224,0.0417,0.2779
17:40:13:336,1.3543,7.7527,9.6491,71.2809,0.3499,-0.1791,-0.0667,0.281
17:40:13:358,0.7789,8.0351,9.1944,71.95,0.3077,-0.1327,-0.2069,0.2839
17:40:13:376,1.4429,7.876,9.5079,72.0039,0.1052,-0.4137,-0.1984,0.2857
17:40:13:396,3.2889,8.1918,11.6136,72.3723,-0.2918,-0.7546,-0.0838,0.2849
17:40:13:417,4.7581,7.7527,14.668,72.8755,-0.6907,-0.8923,-0.1016,0.2816
17:40:13:438,4.8969,6.7035,16.0511,72.9303,-0.7063,-0.5643,-0.2711,0.2781
17:40:13:457,3.7077,5.4497,14.2684,72.6251,-0.2564,-0.0218,-0.4531,0.2774
17:40:13:475,2.1966,3.8321,11.7057,72.5631,0.7842,-0.0524,-0.6129,0.2813
17:40:13:496,1.4596,2.656,8.9312,72.215,0.9458,-0.0606,-0.5133,0.2881
17:40:13:516,1.2742,2.4622,6.0538,71.9309,0.7741,-0.1165,-0.4162,0.2948
17:40:13:536,1.0851,2.467,4.3382,71.8601,0.414,-0.3031,-0.319,0.3
17:40:13:558,1.1856,2.6333,4.0857,71.5514,0.0191,-0.3862,-0.2378,0.3023
17:40:13:578,1.5769,3.0987,4.471,71.2887,-0.3401,-0.2702,-0.2607,0.2991
17:40:13:597,1.6893,3.7268,6.3266,71.1274,-0.4937,-0.1367,-0.3975,0.2954
17:40:13:617,0.7705,3.5318,6.2417,71.3493,-0.3911,-0.0212,-0.5924,0.2923
17:40:13:638,-0.1292,3.1944,6.0287,71.5259,-0.2891,-0.0041,-0.67,0.2897
17:40:13:658,-0.3577,3.2877,5.8744,71.9159,-0.2689,0.0087,-0.5307,0.2869
17:40:13:677,0.0562,4.0032,5.7811,72.2136,-0.2894,0.0457,-0.3004,0.2838
17:40:13:698,0.7561,4.8503,5.7523,72.5021,-0.3154,0.1571,-0.0689,0.2808
17:40:13:717,1.3208,5.6291,5.6949,72.66,-0.3001,0.1813,-0.1077,0.2778
17:40:13:737,1.5673,6.2273,5.7523,72.4916,-0.2509,0.0786,-0.2072,0.2754
17:40:13:757,1.4812,6.4247,6.1101,72.9304,-0.1926,-0.0725,-0.3083,0.2741
17:40:13:777,1.1163,6.2309,6.4726,72.9335,-0.2051,-0.1397,-0.3254,0.2733
17:40:13:796,0.7884,5.9521,7.0158,73.0465,-0.2631,-0.1419,-0.2405,0.272
17:40:13:819,0.9069,5.7966,7.6917,73.1893,-0.2363,-0.1599,-0.1193,0.2697
17:40:13:838,1.3591,6.0491,8.6501,73.3416,-0.0658,-0.1709,-0.0677,0.2709
17:40:13:857,1.7013,6.743,9.9446,73.3229,0.2259,-0.1608,-0.1379,0.2749
17:40:13:877,1.3747,6.8782,9.7508,73.448,0.5701,-0.1874,-0.2616,0.2813
17:40:13:897,0.2166,6.6461,9.1011,73.4199,0.743,-0.1504,-0.4397,0.287
17:40:13:917,-0.5515,6.4379,8.7613,73.268,0.5154,0.0848,-0.4326,0.2889
17:40:13:937,-0.0706,6.8614,9.4636,73.5465,0.0964,0.3151,-0.1813,0.2872
17:40:13:958,0.9571,7.3603,11.0536,73.5579,-0.2176,0.3117,0.1492,0.2843
17:40:13:977,1.5685,8.0483,12.3506,73.3855,0.0325,0.3569,0.1862,0.2826
17:40:13:997,1.9525,8.4969,12.1567,73.6969,0.2668,0.3248,0.1617,0.2831
17:40:14:017,2.0674,8.272,11.2702,73.7812,0.3077,0.1495,0.1287,0.2852
17:40:14:036,2.2074,7.3543,11.2499,73.7253,0.3483,0.0371,0.0707,0.2879
17:40:14:056,1.8197,6.0861,11.7703,73.599,0.6452,0.3563,-0.038,0.2914
17:40:14:078,0.2824,4.9507,10.4184,73.454,1.0887,0.8318,-0.1333,0.2965
17:40:14:100,-2.6608,4.2257,3.7125,72.8572,1.2515,0.8978,-0.1816,0.3105
17:40:14:117,-2.5472,4.5272,2.6201,72.5527,0.9613,0.3355,-0.1089,0.3164
17:40:14:137,-1.0098,4.6935,3.8955,72.0145,0.3795,-0.4049,0.0692,0.3191
17:40:14:157,0.6185,4.9531,6.8363,71.3466,-0.2491,-0.7466,0.1681,0.3175
17:40:14:177,1.523,4.6241,9.0927,70.7705,-0.6263,-0.5621,0.0915,0.3127
17:40:14:197,1.4871,3.984,9.8213,70.2968,-0.6559,-0.0701,-0.0756,0.3071
17:40:14:219,0.7597,3.2088,8.6979,70.4864,0.1067,0.8077,-0.2198,0.3033
17:40:14:237,-0.2524,2.7577,5.8863,70.1157,0.4384,0.644,-0.0454,0.3029
17:40:14:256,-0.6317,2.9803,3.1884,69.7249,0.316,0.1345,0.305,0.3051
17:40:14:276,0.1627,3.4935,2.4718,69.4906,-0.1061,-0.1477,0.5899,0.3068
17:40:14:299,1.2766,4.4495,3.0078,69.3564,-0.5408,-0.2628,0.6397,0.3055
17:40:14:318,1.8676,5.2929,4.2389,69.1886,-0.7567,-0.3438,0.5264,0.3018
17:40:14:337,2.1368,6.1304,5.2295,69.0993,-0.8068,-0.4265,0.2732,0.2973
17:40:14:358,1.267,6.2907,7.2622,69.1317,-0.8276,-0.4959,-0.0371,0.2877
17:40:14:378,0.3721,6.073,7.9693,69.0959,-0.7482,-0.436,-0.2521,0.284
17:40:14:396,-0.1412,5.9366,8.6309,69.1093,-0.4855,-0.5548,-0.2943,0.2833
17:40:14:416,0.0156,5.9952,9.8106,69.1104,-0.1681,-0.8612,-0.217,0.2858
17:40:14:436,0.2931,6.1208,9.5414,69.0809,0.1407,-0.732,-0.1174,0.289
17:40:14:456,0.2441,6.4798,8.5926,69.065,0.239,-0.3523,-0.0298,0.2912
17:40:14:478,0.9392,7.0062,8.3007,69.2537,0.1089,-0.1715,0.0927,0.2919
17:40:14:497,1.6044,7.8353,8.948,69.3001,-0.1605,-0.1037,-0.0447,0.2914
17:40:14:516,1.2299,7.8903,9.5928,68.702,-0.1208,-0.2188,-0.21,0.2908
17:40:14:536,0.8219,7.4034,10.2975,68.0123,-0.0698,-0.3853,-0.1217,0.2912
17:40:14:556,1.6295,7.5817,10.9208,67.6111,-0.1675,-0.425,0.0515,0.2917
17:40:14:576,3.2363,8.2193,11.6662,67.3583,-0.4107,-0.3297,0.0948,0.2906
17:40:14:597,4.4327,8.7984,12.9308,67.0663,-0.5457,-0.0872,-0.078,0.2871
17:40:14:618,4.7043,8.3749,13.6331,66.7139,-0.3477,-0.0157,-0.3987,0.2825
17:40:14:636,2.26,4.5679,12.9823,66.3233,0.1498,-0.2979,-0.742,0.287
17:40:14:656,1.328,2.1176,11.7787,65.4872,0.6886,-0.5854,-0.8624,0.2953
17:40:14:676,1.0863,1.0684,9.6048,65.3893,1.0631,-0.5172,-0.6672,0.3047
17:40:14:697,1.5685,1.2144,7.6451,65.1469,1.1327,-0.3807,-0.3407,0.3134
17:40:14:716,2.6728,1.9681,6.2154,64.727,0.9623,-0.2637,-0.0542,0.32
17:40:14:739,3.4636,3.052,5.1757,64.6417,0.3291,0.195,-0.06,0.3236
17:40:14:757,3.5222,4.0594,4.2939,63.8885,0.0118,0.4155,-0.3065,0.3242
17:40:14:777,2.8319,4.4937,3.5079,63.4032,-0.2234,0.4565,-0.5878,0.3221
17:40:14:797,1.8221,4.4243,2.985,62.7108,-0.3432,0.2341,-0.7769,0.3189
17:40:14:818,0.9212,4.2532,2.7517,62.3573,-0.4042,-0.2323,-0.8267,0.3158
17:40:14:836,0.5109,4.2389,3.5198,62.0892,-0.4513,-0.5921,-0.7741,0.3135
17:40:14:858,0.7119,4.3537,4.6158,61.3722,-0.5377,-0.5316,-0.6984,0.3066
17:40:14:878,1.1545,5.6267,5.9342,61.0374,-0.6449,-0.2393,-0.6944,0.3013
17:40:14:896,0.7537,5.8241,6.2261,60.0089,-0.6187,-0.0133,-0.79,0.2967
17:40:14:916,0.1663,5.7835,6.2333,59.3807,-0.4473,-0.0023,-0.9006,0.2938
17:40:14:936,-0.2644,5.6435,6.1424,58.7363,-0.2854,-0.0768,-0.9479,0.2917
17:40:14:956,-0.4487,5.6351,6.2142,58.1349,-0.2793,-0.0667,-0.8853,0.2889
17:40:14:976,-0.1854,5.8756,6.8937,57.7261,-0.4155,-0.0307,-0.7399,0.2846
17:40:14:997,0.4845,6.4187,7.9298,56.8833,-0.5563,0.0817,-0.4919,0.2793
17:40:15:017,0.8423,6.7178,9.1896,56.4698,-0.2821,-0.0869,-0.5621,0.2755
17:40:15:036,0.749,6.4834,10.337,55.9895,0.1217,-0.1831,-0.6348,0.2751
17:40:15:056,0.3637,6.1687,10.6899,55.7972,0.4482,-0.1694,-0.6461,0.2778
17:40:15:076,-0.2632,6.0718,10.4303,55.6996,0.5628,-0.0823,-0.5319,0.2823
17:40:15:096,-0.4235,6.1484,9.5785,55.6138,0.3432,-0.006,-0.2356,0.2864
17:40:15:116,0.3553,7.151,9.7795,55.5225,-0.046,0.1727,0.0221,0.2875
17:40:15:137,1.8102,9.4792,11.2307,55.6854,-0.2515,0.4049,0.0451,0.283
17:40:15:156,1.6259,9.064,11.0716,55.7524,-0.1834,0.3343,-0.1657,0.2823
17:40:15:177,0.7346,7.3986,11.5107,55.9155,-0.0209,-0.1385,-0.4711,0.2834
17:40:15:197,-0.0849,5.9306,12.2225,55.8828,0.0951,-0.436,-0.5686,0.2851
17:40:15:217,-1.1079,4.9615,11.7476,55.7695,0.2873,-0.2198,-0.5573,0.2883
17:40:15:236,-2.3629,4.2748,9.5773,55.6564,0.6006,0.1474,-0.5536,0.2934
17:40:15:258,-3.4959,3.7926,7.3531,55.4039,0.7665,0.2524,-0.545,0.2987
17:40:15:277,-3.4564,3.4002,6.0514,54.9579,0.1593,-0.3196,-0.0927,0.302
17:40:15:296,-2.2325,3.1693,6.3123,54.3841,-0.4204,-0.3621,0.137,0.3011
17:40:15:316,-0.7071,3.0736,7.6845,54.2897,-0.7347,-0.0838,0.2121,0.2957
17:40:15:338,0.1029,3.1298,8.6979,53.7599,-0.6113,0.1602,0.1947,0.2889
17:40:15:356,0.1998,2.9635,8.3845,53.4229,-0.2674,0.2448,0.2375,0.2843
17:40:15:376,0.0622,3.0473,6.8889,52.8675,-0.0307,0.1028,0.4168,0.2826
17:40:15:398,0.4104,3.6718,5.4903,52.3013,-0.0124,-0.1984,0.6107,0.2829
17:40:15:416,2.2516,5.5214,5.2857,52.0398,-0.1226,-0.4491,0.6944,0.2826
17:40:15:436,2.9779,6.2501,5.5693,51.7685,-0.2592,-0.4919,0.6034,0.281
17:40:15:456,2.9276,6.5755,5.866,51.8158,-0.4103,-0.396,0.301,0.278
17:40:15:476,1.8664,6.2776,6.2931,51.4893,-0.5267,-0.2757,-0.1321,0.2743
17:40:15:497,0.6173,5.5418,6.6652,51.9049,-0.5023,-0.2979,-0.4971,0.2713
17:40:15:517,-0.3422,5.0201,7.1557,51.5838,-0.3716,-0.4302,-0.6898,0.2695
17:40:15:537,-0.9715,4.6672,7.742,51.3824,-0.2411,-0.5637,-0.7341,0.2687
17:40:15:556,-1.3077,4.5308,8.3175,51.4688,-0.0637,-0.4882,-0.5249,0.2683
17:40:15:577,-1.4154,4.6122,8.6596,51.1452,0.0548,-0.3624,-0.3355,0.2685
17:40:15:596,-1.2981,5.1613,8.747,51.0645,0.2393,-0.3288,-0.1819,0.27
17:40:15:618,-0.859,5.8804,8.5292,50.8547,0.3954,-0.3847,-0.1058,0.2732
17:40:15:636,-0.2931,6.5839,8.3976,50.8794,0.4061,-0.5261,-0.0921,0.2775
17:40:15:658,0.8614,7.8185,9.8764,50.459,0.3206,-0.5014,-0.1092,0.2846
17:40:15:677,0.4295,8.0674,9.7412,50.1724,0.2283,-0.2042,-0.2549,0.2869
17:40:15:696,0.0251,7.7527,10.2054,50.189,0.2127,-0.2592,-0.3822,0.2897
17:40:15:716,0.4068,7.7551,10.8311,49.7993,0.2479,-0.5038,-0.3535,0.2925
17:40:15:736,1.4237,8.0973,10.922,49.6812,0.1697,-0.4821,-0.2356,0.2934
17:40:15:757,2.4455,8.2552,11.4808,49.7093,-0.122,-0.345,-0.1886,0.2912
17:40:15:778,3.1274,7.6929,12.3206,49.4547,-0.443,-0.1764,-0.3658,0.2874
17:40:15:797,3.0341,6.597,12.6688,48.8952,-0.1287,-0.2567,-0.5325,0.2848
17:40:15:817,2.3641,4.9053,12.0861,48.7021,0.338,-0.3832,-0.633,0.2858
17:40:15:836,1.5924,3.0473,10.4554,48.6094,0.6489,-0.3462,-0.5698,0.2902
17:40:15:856,0.9906,1.943,8.1763,48.3127,0.6419,-0.2433,-0.3111,0.2958
17:40:15:876,1.1509,2.0518,6.0503,48.222,0.3743,-0.2723,-0.0334,0.2999
17:40:15:896,2.053,3.009,5.0213,48.3824,0.017,-0.3661,0.0444,0.3015
17:40:15:917,2.7757,3.8572,5.1326,48.1769,-0.2769,-0.3169,-0.0695,0.2974
17:40:15:937,2.8319,4.2987,5.4413,48.2418,-0.4119,-0.2118,-0.3062,0.2941
17:40:15:956,1.5302,3.9721,5.397,48.4794,-0.399,-0.1471,-0.5307,0.2913
17:40:15:977,0.749,3.7974,5.0261,48.1811,-0.312,-0.1388,-0.6477,0.2892
17:40:15:996,0.2955,3.874,4.8108,48.0727,-0.2668,-0.1596,-0.6541,0.2872
17:40:16:016,0.396,4.3573,4.9412,48.293,-0.2732,-0.2023,-0.5808,0.2851
17:40:16:037,0.6999,4.9543,5.3599,48.2237,-0.3294,-0.1403,-0.5829,0.2827
17:40:16:058,0.7083,5.3276,5.9402,48.0304,-0.3099,0.0005,-0.6513,0.2803
17:40:16:076,0.4762,5.543,6.079,48.032,-0.276,0.1251,-0.7088,0.2783
17:40:16:096,-0.0096,5.7739,6.0191,47.9792,-0.3166,0.1648,-0.7017,0.2763
17:40:16:116,-0.3242,5.8361,6.3194,47.6732,-0.3984,0.1083,-0.6119,0.2736
17:40:16:136,-0.3829,5.8349,7.4189,47.9286,-0.3893,0.1071,-0.4507,0.2705
17:40:16:157,-0.2788,5.9868,8.4826,48.0537,-0.2402,0.1397,-0.2625,0.2678
17:40:16:177,0.1519,6.609,9.3847,48.0223,0.0472,0.1385,-0.1852,0.2691
17:40:16:197,0.2381,7.0672,9.8477,47.8414,0.3483,0.1559,-0.2671,0.2735
17:40:16:217,-0.9918,6.609,10.0941,47.5881,0.5374,0.1556,-0.348,0.279
17:40:16:236,-1.7216,6.0215,10.1192,47.4228,0.6535,0.1797,-0.3581,0.2851
17:40:16:256,-1.7695,5.8505,10.1228,47.0078,0.6687,0.2286,-0.1865,0.2905
17:40:16:277,-1.2096,6.5886,10.4734,46.9749,0.5319,0.3774,0.126,0.2942
17:40:16:299,-0.6999,7.6642,10.5188,46.6898,0.3746,0.6345,0.3758,0.2971
17:40:16:318,-0.3482,8.3342,9.9183,46.2607,0.2146,0.6486,0.4907,0.2996
17:40:16:336,0.1424,8.2325,9.4851,45.8186,-0.0035,0.2781,0.4446,0.3009
17:40:16:357,0.7119,7.6702,10.4877,45.5321,-0.137,0.0441,0.4039,0.3004
17:40:16:377,1.3352,6.9559,11.9175,45.5665,0.0194,0.2356,0.268,0.2996
17:40:16:396,0.883,6.28,11.8086,45.0283,0.4036,0.6,0.0276,0.3011
17:40:16:416,-0.6676,5.4102,9.2674,44.8437,0.6348,0.6132,-0.1208,0.3055
17:40:16:437,-2.0734,4.5667,6.7322,44.9286,0.4485,0.257,-0.0454,0.3103
17:40:16:458,-1.7958,3.4421,6.5169,44.6693,0.0298,0.0307,0.1831,0.3108
17:40:16:484,-0.8901,3.4516,6.8686,44.5305,-0.3419,0.1287,0.3774,0.3065
17:40:16:496,-0.2764,3.545,6.9452,44.3756,-0.5316,0.3102,0.4461,0.3013
17:40:16:517,0.1053,3.6407,6.7298,44.6952,-0.5325,0.4201,0.4665,0.2968
17:40:16:537,-0.1328,3.6802,5.9234,44.9511,-0.4042,0.4162,0.4427,0.2936
17:40:16:557,-0.3936,3.5916,5.6136,45.1856,-0.287,0.1691,0.454,0.2915
17:40:16:578,0.1496,3.8991,5.817,45.5063,-0.1724,-0.3428,0.7295,0.2903
17:40:16:596,0.9428,4.6887,6.2309,45.323,-0.1904,-0.3126,0.7158,0.2891
17:40:16:616,1.517,5.4138,6.4989,45.4745,-0.2014,-0.155,0.567,0.2877
17:40:16:637,1.5852,6.0144,6.4343,45.6147,-0.1807,-0.0612,0.3111,0.2864
17:40:16:657,0.9703,6.3242,6.0945,45.7267,-0.202,-0.129,0.0536,0.2852
17:40:16:676,0.1017,6.067,6.3338,45.3414,-0.2191,-0.2714,-0.0841,0.2839
17:40:16:698,-0.6676,5.4377,7.815,44.8448,-0.1923,-0.4015,-0.1,0.2818
17:40:16:717,-0.6676,5.4449,8.8199,44.6793,-0.1312,-0.4366,-0.0475,0.2815
17:40:16:736,-0.6963,5.7224,9.3021,44.5903,0.0295,-0.3505,0.0316,0.2829
17:40:16:757,-0.3505,6.3063,9.2853,44.2285,0.264,-0.2976,0.1168,0.2864
17:40:16:776,0.1878,6.5157,9.6658,43.8964,0.4659,-0.4641,0.1342,0.2915
17:40:16:796,0.8112,6.6544,10.5332,43.4942,0.5676,-0.6865,0.1461,0.297
17:40:16:816,1.1067,6.9978,10.8203,42.8338,0.5588,-0.5707,0.1578,0.3018
17:40:16:837,0.7059,7.2299,10.8814,42.444,0.5142,-0.2952,0.1379,0.3063
17:40:16:855,0.6963,7.194,10.142,41.9422,0.6257,-0.027,0.323,0.3115
17:40:16:876,1.5242,7.6594,8.6656,41.7499,0.4036,-0.1779,0.3997,0.3164
17:40:16:896,2.607,8.3785,8.1978,41.3532,-0.1309,-0.3835,0.2738,0.3181
17:40:16:917,3.3356,8.1308,9.4241,41.2142,-0.5621,-0.3526,0.0276,0.3155
17:40:16:936,3.3332,6.8985,10.6397,41.2598,-0.6015,-0.2521,-0.2033,0.3104
17:40:16:957,2.1392,3.9254,10.4542,41.4915,-0.3355,-0.276,-0.3444,0.3048
17:40:16:977,1.8006,2.9791,9.253,41.6026,0.0353,-0.3111,-0.3743,0.306
17:40:16:995,1.8461,2.8415,7.3926,41.9666,0.2521,-0.2271,-0.2827,0.3076
17:40:17:016,2.1476,3.5079,6.2106,42.0857,0.1651,-0.1324,-0.1465,0.3076
17:40:17:036,2.3605,4.0618,5.7165,42.3149,-0.0875,-0.0383,-0.1382,0.3057
17:40:17:056,2.193,4.4435,5.3372,42.5542,-0.3227,0.1071,-0.257,0.302
17:40:17:076,1.7611,4.6528,4.9304,42.5159,-0.5017,0.2674,-0.4229,0.2972
17:40:17:098,1.1366,4.6349,5.0847,42.3936,-0.6516,0.0899,-0.7793,0.2918
17:40:17:115,0.4164,4.1683,5.6566,42.454,-0.5878,-0.1071,-0.7799,0.2867
17:40:17:136,0.0455,3.9565,6.3984,42.722,-0.4589,-0.1816,-0.6339,0.2824
17:40:17:156,0.2142,4.2497,6.8375,42.7366,-0.3349,-0.1095,-0.4943,0.279
17:40:17:176,0.6341,4.8897,7.1079,42.623,-0.1984,0.0463,-0.4574,0.2767
17:40:17:196,0.8554,5.4365,6.9177,42.6327,-0.0576,0.1642,-0.534,0.2758
17:40:17:217,0.5563,5.5681,6.347,42.5072,0.0014,0.228,-0.6025,0.2763
17:40:17:237,-0.2943,5.2427,5.671,42.6375,-0.0594,0.2155,-0.5869,0.2758
17:40:17:256,-0.3517,5.1015,6.335,42.6907,-0.1529,0.0915,-0.4675,0.2746
17:40:17:276,-0.1436,5.3946,7.6116,42.4133,-0.1788,-0.068,-0.2882,0.2734
17:40:17:296,0.2142,5.921,8.5771,42.7395,-0.1312,-0.1006,-0.1031,0.2729
17:40:17:316,0.3577,6.5815,9.052,42.9186,0.0014,-0.0255,-0.0032,0.2738
17:40:17:337,0.189,6.9129,9.7005,43.4814,0.1633,-0.0567,-0.0307,0.2761
17:40:17:358,-0.1328,6.9308,10.2389,43.9472,0.4546,0.0017,-0.1999,0.2798
17:40:17:377,-0.8578,6.6963,10.6038,44.2035,0.5478,0.0783,-0.1153,0.2844
17:40:17:396,-0.8602,6.7454,10.4698,44.6463,0.4455,0.2332,0.0875,0.2891
17:40:17:416,-0.28,7.3998,10.6469,45.2002,0.1935,0.4534,0.2595,0.2918
17:40:17:437,0.3505,7.9454,11.1649,45.9069,0.1391,0.5493,0.3477,0.293
17:40:17:456,0.8016,8.187,11.129,45.5877,0.2766,0.3868,0.3603,0.2948
17:40:17:477,0.9428,7.8233,10.6959,45.5359,0.4131,0.0732,0.3771,0.2979
17:40:17:497,0.6712,7.1713,10.3681,45.6823,0.5252,-0.1083,0.4116,0.307
17:40:17:517,-0.2847,6.6138,9.2806,45.3819,0.5744,-0.1092,0.3612,0.3122
17:40:17:536,-1.2347,6.006,8.4227,45.3937,0.5961,0.0447,0.1648,0.3172
17:40:17:556,-2.4634,5.1637,7.017,45.568,0.5359,0.2851,-0.0127,0.3211
17:40:17:576,-3.0209,4.6265,5.8373,45.496,0.36,0.3432,-0.0072,0.3228
17:40:17:596,-2.473,4.2616,6.0969,45.3644,0.0246,0.0545,0.1303,0.3213
17:40:17:618,-1.4644,3.9386,7.3196,45.8359,-0.3789,-0.1691,0.2573,0.3164
17:40:17:636,-0.9224,3.5486,8.4108,45.9848,-0.6758,-0.0704,0.3062,0.3096
17:40:17:656,-0.7071,3.1537,8.9252,46.3354,-0.5502,0.4577,0.3957,0.3032
17:40:17:676,-0.6078,2.9886,8.345,46.65,-0.2802,0.6697,0.5286,0.2987
17:40:17:696,-0.5396,3.3583,6.8339,47.0162,-0.0738,0.6443,0.6587,0.2965
17:40:17:716,-0.28,3.7675,5.3575,47.2972,0.0066,0.4088,0.772,0.2958
17:40:17:738,0.2668,4.1755,4.6134,47.5576,0.0005,0.1672,0.8389,0.2959
17:40:17:757,1.3615,5.4688,4.3968,47.6029,-0.0786,0.0005,0.7927,0.2949
17:40:17:777,1.4154,6.1077,4.9938,47.8363,-0.261,-0.0298,0.6437,0.2923
17:40:17:796,0.9583,6.1208,5.5633,48.2253,-0.41,0.0218,0.3975,0.2893
17:40:17:817,0.0598,5.8816,6.1149,48.1246,-0.3868,-0.0988,0.1339,0.2869
17:40:17:838,-0.5073,5.7296,6.9416,48.5255,-0.3169,-0.348,0.0066,0.285
17:40:17:856,-0.5623,5.653,8.0662,48.3668,-0.2995,-0.5267,-0.0111,0.2828
17:40:17:877,-0.189,5.8349,9.7041,48.5947,-0.2866,-0.5145,0.1104,0.2804
17:40:17:897,0.524,6.1603,11.208,48.7615,-0.056,-0.3939,0.1336,0.2789
17:40:17:916,0.9978,6.4032,12.0251,49.0206,0.3172,-0.2479,0.0814,0.28
17:40:17:936,0.926,6.3051,12.0299,49.1742,0.7054,0.0197,0.1104,0.2844
17:40:17:956,0.8925,6.7992,10.5224,49.1655,0.9018,0.1657,0.1095,0.2914
17:40:17:976,0.5336,7.4584,8.8941,49.5821,0.8163,-0.0111,0.0909,0.2991
17:40:17:997,0.3924,7.9071,8.4826,49.5081,0.5554,-0.2399,0.1358,0.3094
17:40:18:018,2.4574,8.3163,9.5749,50.004,0.1623,-0.3984,0.2063,0.3095
17:40:18:037,3.5725,8.2588,11.4006,50.1246,-0.276,-0.4751,0.1706,0.3064
17:40:18:056,4.1157,7.6463,12.5743,50.4799,-0.4632,-0.352,0.0005,0.3031
17:40:18:076,3.4158,6.7466,11.9533,50.8599,-0.2854,-0.0664,-0.2781,0.3019
17:40:18:097,2.065,5.0548,10.8658,51.2934,0.0261,-0.0719,-0.5909,0.3034
17:40:18:116,0.9799,3.1047,10.0534,51.6771,0.276,-0.305,-0.7454,0.3065
17:40:18:138,0.3565,1.7767,9.216,51.9221,0.4559,-0.2543,-0.3798,0.3101
17:40:18:157,0.3649,1.5362,8.0746,52.236,0.3645,0.0093,-0.031,0.313
17:40:18:176,0.9535,2.4837,6.7825,52.8038,0.1776,0.2011,0.1523,0.3145
17:40:18:196,1.5039,3.3452,5.8457,53.21,-0.0151,0.3432,0.1764,0.3145
17:40:18:216,1.9418,4.1013,5.208,53.3136,-0.1556,0.4562,0.0554,0.3132
17:40:18:237,1.9693,4.6636,4.587,53.591,-0.2424,0.4702,-0.1706,0.3112
17:40:18:259,1.547,4.8897,4.008,53.8705,-0.3187,0.3264,-0.3932,0.3061
17:40:18:277,1.0146,4.7509,3.8692,54.279,-0.396,0.1266,-0.5227,0.3027
17:40:18:296,0.5444,4.6253,4.7521,54.8184,-0.4888,-0.0423,-0.5264,0.2985
17:40:18:316,0.6221,4.7833,5.7188,55.2693,-0.5527,-0.1633,-0.4849,0.294
17:40:18:337,0.7501,5.1111,6.4092,55.3019,-0.5224,-0.1471,-0.436,0.2901
17:40:18:356,0.792,5.5202,6.7513,55.8192,-0.4229,-0.0362,-0.4244,0.2872
17:40:18:376,0.5791,5.6758,6.7872,56.0074,-0.3022,0.0548,-0.4522,0.2852
17:40:18:398,0.2847,5.732,6.8865,56.6563,-0.2195,0.0722,-0.4574,0.2837
17:40:18:417,0.1603,5.6112,7.3783,56.9852,-0.2017,0.0273,-0.4006,0.2823
17:40:18:436,0.4032,5.7404,8.0195,57.3946,-0.0383,-0.0582,-0.0906,0.2816
17:40:18:456,0.9344,6.4451,8.595,57.7742,0.1226,-0.0692,-0.017,0.2821
17:40:18:484,1.401,7.3292,9.2375,57.8409,0.3025,-0.0234,-0.1342,0.2842
17:40:18:497,1.2108,7.7635,9.6096,58.1841,0.4806,0.0997,-0.3746,0.288
17:40:18:518,-1.1629,6.9571,8.8905,58.2096,0.6199,0.1629,-0.534,0.2991
17:40:18:538,-1.6379,6.8387,8.5161,58.6351,0.5796,0.1498,-0.4525,0.3031
17:40:18:556,-1.5888,7.279,9.4505,58.4918,0.2298,0.1724,-0.2408,0.3032
17:40:18:576,-1.1641,7.6642,10.879,58.5681,-0.2063,0.3193,-0.0188,0.3004
17:40:18:597,-0.7119,7.7169,11.7954,58.8821,-0.3548,0.4021,0.1037,0.2976
17:40:18:616,-0.2943,7.2658,12.3458,59.0623,-0.2277,0.2402,0.1562,0.2964
17:40:18:638,0.0694,6.7478,12.402,59.5912,-0.0252,0.1208,0.214,0.2967
17:40:18:658,0.1567,6.1938,11.8098,59.9297,0.1587,0.2344,0.2472,0.2986
17:40:18:677,-0.6808,5.7811,10.465,60.3802,0.6104,0.7497,0.1095,0.3025
17:40:18:696,-2.0423,5.1601,7.8497,60.7561,0.6666,0.8001,0.1034,0.3079
17:40:18:716,-3.1621,4.8144,5.3707,60.6188,0.4049,0.399,0.235,0.3127
17:40:18:736,-3.1466,4.7258,4.6301,60.8855,-0.1171,-0.0958,0.3239,0.3143
17:40:18:756,-2.6369,4.1982,5.8732,60.9446,-0.6278,-0.2372,0.4036,0.3112
17:40:18:777,-1.87,3.5246,7.7013,61.0394,-0.8428,-0.1394,0.4763,0.3044
17:40:18:798,-1.2,3.0939,9.326,60.9462,-0.6678,0.0237,0.5337,0.2923
17:40:18:817,-0.3864,2.9539,8.7541,61.0697,-0.2531,0.2763,0.6205,0.2909
17:40:18:836,-0.2417,3.3918,7.1521,61.1435,0.0759,0.4195,0.7231,0.2918
17:40:18:856,0.3278,3.8955,6.0179,61.321,0.2213,0.3645,0.8651,0.2936
17:40:18:877,1.1438,4.6074,5.3743,62.4007,0.235,0.2133,0.9873,0.2955
17:40:18:896,1.7898,5.4006,5.001,62.8573,0.1602,0.0924,1.0004,0.2967
17:40:18:918,2.016,5.9677,4.7641,63.4585,-0.1324,0.0472,0.6107,0.2966
17:40:18:938,1.6989,6.2154,4.6899,63.687,-0.2243,-0.035,0.3178,0.2956
17:40:18:956,1.0576,6.1926,5.0429,64.4199,-0.2515,-0.2109,0.0872,0.2942
17:40:18:977,0.5456,6.0766,5.8277,65.0036,-0.2417,-0.3587,-0.0735,0.2929
17:40:18:996,0.1316,5.8863,6.8614,65.3255,-0.2207,-0.3865,-0.1593,0.2916
17:40:19:016,-0.3422,5.7727,7.8867,65.2203,-0.1611,-0.3212,-0.1568,0.2905
17:40:19:036,-0.7621,5.884,8.6692,65.1767,-0.0481,-0.2466,-0.0884,0.2898
17:40:19:058,-0.262,6.8303,10.4686,65.2879,0.1559,-0.3169,-0.0353,0.2932
17:40:19:076,-0.1412,6.8949,11.2355,65.2751,0.4119,-0.4073,-0.0619,0.298
17:40:19:096,-0.3482,6.987,10.7115,65.1401,0.5753,-0.1697,-0.0756,0.303
17:40:19:116,-0.7765,7.0923,10.2772,65.1147,0.5875,0.0643,-0.06,0.3079
17:40:19:136,-0.3888,7.1641,9.8967,65.1818,0.6113,0.0356,0.0619,0.3134
17:40:19:156,0.7047,7.5553,9.1789,65.6431,0.5997,-0.0869,0.2506,0.3176
17:40:19:178,2.0566,8.2002,9.5581,66.3353,0.2692,-0.119,0.4149,0.318
17:40:19:197,3.0724,8.1846,11.3551,66.8335,-0.1712,-0.0698,0.433,0.316
17:40:19:216,3.3751,7.5649,11.8433,67.2368,0.2411,0.1483,0.0762,0.3159
17:40:19:237,2.595,6.6437,10.0929,67.367,0.5377,-0.2256,-0.144,0.3195
17:40:19:256,1.6558,5.2666,8.6692,67.475,0.5139,-0.6281,-0.2592,0.3246
17:40:19:276,1.2024,3.7077,8.479,67.2516,0.3129,-0.5075,-0.2286,0.3287
17:40:19:296,1.0612,2.6919,8.0004,66.6964,0.108,-0.126,-0.0732,0.3302
17:40:19:319,1.8724,3.3308,6.4164,66.5178,-0.0386,0.1077,0.1077,0.3281
17:40:19:336,2.3043,4.1384,6.0491,67.0059,-0.1749,0.1639,0.1309,0.3255
17:40:19:356,2.3378,4.5631,5.7942,66.9834,-0.3233,0.1993,0.0246,0.3218
17:40:19:376,2.2062,4.8179,5.7416,66.9875,-0.4623,0.2363,-0.1013,0.3172
17:40:19:396,1.8951,4.9807,5.7775,67.0826,-0.5243,0.2268,-0.2372,0.3126
17:40:19:416,1.6487,5.0309,6.0598,67.4545,-0.5252,0.177,-0.359,0.3082
17:40:19:438,1.3926,4.8754,6.0849,68.4234,-0.4693,0.1807,-0.4497,0.3046
17:40:19:457,1.0839,4.9376,5.7691,69.4847,-0.3465,0.1975,-0.4919,0.3022
17:40:19:476,0.9356,5.123,5.4688,70.0296,-0.0954,0.0176,-0.4898,0.3011
17:40:19:496,0.8447,5.3611,5.3013,69.9646,-0.0481,-0.024,-0.502,0.3008
17:40:19:516,0.7298,5.6327,5.2953,70.3502,-0.0441,0.0044,-0.5255,0.3008
17:40:19:536,0.5444,5.7823,5.2905,70.5331,-0.0612,-0.0218,-0.546,0.3007
17:40:19:556,0.1878,5.7799,5.6136,71.0169,-0.0505,-0.1083,-0.5087,0.3006
17:40:19:578,0.0706,5.7811,6.1543,71.6223,-0.0197,-0.2326,-0.4171,0.3009
17:40:19:596,0.658,6.7525,7.8568,71.7286,-0.0667,-0.2491,-0.2482,0.3003
17:40:19:616,1.2622,7.8317,9.277,72.0107,-0.1428,-0.1666,-0.129,0.2993
17:40:19:636,1.0493,8.0136,10.5129,72.3488,-0.1214,-0.0447,-0.2289,0.2991
17:40:19:657,-0.0646,7.1737,11.0955,72.7119,0.0707,0.0796,-0.4604,0.3013
17:40:19:677,-1.2383,6.4271,10.4363,72.8371,0.4201,0.2329,-0.5463,0.306
17:40:19:698,-1.4429,6.6616,9.1992,73.4847,0.5356,0.3859,-0.02,0.3112
17:40:19:717,-0.6796,7.9454,9.4313,73.4252,0.2448,0.4968,0.1712,0.3144
17:40:19:736,-0.0861,8.9827,10.2257,73.7653,0.0881,0.6275,0.1559,0.3157
17:40:19:756,0.0096,9.4337,10.5177,73.743,0.0585,0.5695,0.0356,0.3162
17:40:19:776,-0.2692,8.5304,10.6433,73.7598,0.0878,0.3795,0.0041,0.3169
17:40:19:796,-0.6377,7.3448,10.7581,74.0005,0.1865,0.2424,0.133,0.318
17:40:19:816,-0.6724,6.5791,10.5512,74.1511,0.3997,0.2106,0.1932,0.3202
17:40:19:838,-1.1234,6.1926,9.5019,74.4699,0.6226,0.2027,0.068,0.3244
17:40:19:857,-3.0664,4.6983,5.6985,74.5107,0.6556,0.1767,-0.0286,0.3345
17:40:19:876,-3.2638,4.2867,4.7342,74.8415,0.3645,0.0319,0.0307,0.3356
17:40:19:896,-2.4479,4.0499,5.3898,74.4961,-0.1535,-0.2054,0.2023,0.3321
17:40:19:917,-1.2658,3.6479,6.8399,74.5637,-0.6883,-0.2436,0.3218,0.3244
17:40:19:937,-0.6006,3.3165,8.1308,74.704,-1.0267,0.009,0.3404,0.3147
17:40:19:957,-0.4295,3.0257,8.5555,74.6431,-1.0234,0.3172,0.3526,0.3063
17:40:19:978,-0.6066,2.8774,7.7791,74.6392,-0.2738,0.2943,0.5964,0.3014
17:40:19:996,-0.3039,3.3476,6.6389,74.5288,-0.0463,0.0301,0.8224,0.2999
17:40:20:016,0.4319,4.1874,6.0179,74.5826,-0.0151,-0.1544,0.9647,0.2999
17:40:20:037,1.4716,5.0524,5.9773,74.7993,-0.0515,-0.2112,0.9531,0.3001
17:40:20:056,2.2804,5.8863,6.0538,75.1968,-0.0851,-0.1321,0.7286,0.3001
17:40:20:077,2.2481,6.408,5.8816,75.6677,-0.1352,-0.0518,0.3819,0.2997
17:40:20:098,1.5242,6.4331,5.8983,75.7162,-0.1248,-0.086,0.0823,0.2989
17:40:20:117,-0.268,5.7272,6.1041,75.7119,-0.0484,-0.1816,-0.0942,0.2993
17:40:20:137,-0.883,5.391,6.4044,75.9663,-0.0313,-0.3022,-0.1629,0.2993
17:40:20:157,-1.1581,5.2534,7.2407,76.0683,-0.1159,-0.3557,-0.1116,0.2984
17:40:20:177,-1.1545,5.4018,8.3653,75.9759,-0.1666,-0.3264,0.0231,0.2976
17:40:20:197,-0.7717,5.9282,8.9803,75.9187,-0.0368,-0.2653,0.1724,0.2984
17:40:20:218,-0.0251,6.719,9.3787,76.0189,0.1825,-0.3025,0.2595,0.3011
17:40:20:239,0.5635,7.1402,10.0714,75.8699,0.3361,-0.3801,0.2463,0.3046
17:40:20:257,1.0313,7.8425,10.8969,76.0569,0.3322,-0.0493,0.17,0.3077
17:40:20:276,0.9392,7.809,10.4315,75.8275,0.3477,0.0768,0.089,0.3106
17:40:20:296,0.524,7.1175,9.8979,75.5171,0.3624,-0.005,0.243,0.3137
17:40:20:316,1.1701,7.0935,9.2806,75.4965,0.3062,-0.2552,0.5102,0.3168
17:40:20:337,2.7218,8.1416,9.3308,75.6471,0.0893,-0.5438,0.6012,0.3191
17:40:20:357,4.258,9.1573,10.459,75.6917,-0.1235,-0.5157,0.3911,0.3197
17:40:20:379,4.3454,8.1153,11.0752,75.6406,-0.1758,-0.2414,-0.1135,0.3182
17:40:20:396,2.3952,5.9916,10.3454,75.6087,-0.0261,-0.1394,-0.6562,0.3194
17:40:20:417,0.6269,3.7137,9.1669,75.314,0.2109,-0.206,-0.9479,0.3221
17:40:20:437,-0.4307,2.2062,7.8305,75.1506,0.3401,-0.2457,-0.9189,0.3248
17:40:20:457,-0.4558,1.8843,7.1378,74.994,0.2836,-0.301,-0.604,0.3261
17:40:20:494,0.2656,2.656,6.8279,74.7187,0.1043,-0.2579,-0.2375,0.3256
17:40:20:497,0.9691,3.5043,6.5862,74.278,-0.0759,-0.126,-0.0481,0.324
17:40:20:516,1.2718,4.0367,6.1196,73.8538,-0.2213,0.2589,-0.1309,0.3218
17:40:20:536,1.2754,4.5775,5.5143,73.3931,-0.2527,0.4052,-0.2964,0.3194
17:40:20:556,0.8554,4.7426,4.7498,72.9791,-0.268,0.3593,-0.4574,0.3169
17:40:20:576,0.28,4.6887,4.465,72.7746,-0.246,0.1403,-0.5304,0.3147
17:40:20:596,-0.1005,4.5188,4.4626,72.7343,-0.2631,-0.027,-0.4885,0.3129
17:40:20:618,0.2082,4.9304,5.2798,72.3943,-0.3349,-0.0838,-0.3572,0.3076
17:40:20:637,0.8291,5.6004,6.0491,72.2052,-0.3813,-0.0075,-0.2512,0.3046
17:40:20:656,1.3053,6.2501,6.3494,71.862,-0.3077,0.1211,-0.2466,0.3028
17:40:20:676,1.1222,6.4869,5.8672,71.8065,-0.1516,0.2097,-0.3691,0.3021
17:40:20:697,0.6879,6.3553,5.5561,71.683,-0.1193,0.1816,-0.4821,0.3009
17:40:20:717,0.5671,6.1089,6.2943,71.4425,-0.2686,0.0872,-0.4769,0.2982
17:40:20:738,0.6413,6.055,7.2395,71.1299,-0.4497,0.086,-0.3044,0.2947
17:40:20:757,0.5109,6.1579,7.9705,70.8138,-0.4436,0.1956,-0.2857,0.2909
17:40:20:776,0.1484,6.3278,8.7757,70.8686,-0.3328,0.2747,-0.3303,0.2873
17:40:20:796,-0.3912,6.3793,9.6969,70.4154,-0.0002,0.1965,-0.4314,0.2856
17:40:20:816,-1.3962,6.14,9.9589,70.0689,0.3202,0.0243,-0.4507,0.2871
17:40:20:836,-2.3342,5.9342,9.9087,69.4279,0.4027,-0.1281,-0.2268,0.2905
17:40:20:856,-1.8365,5.9761,10.3131,69.1955,0.2085,-0.068,0.1321,0.2932
17:40:20:878,0.2955,8.394,11.9605,69.1121,0.0597,0.465,0.4959,0.2941
17:40:20:897,0.9308,9.8082,11.0465,68.6062,0.1321,0.838,0.6077,0.2958
17:40:20:916,1.145,10.0546,10.2784,68.2814,0.228,0.6168,0.451,0.2977
17:40:20:936,0.853,8.601,11.1087,67.345,0.0991,0.0799,0.129,0.2985
17:40:20:956,0.1256,6.7717,12.073,66.9759,-0.0026,-0.1248,-0.0939,0.2993
17:40:20:977,-1.5876,5.324,10.873,66.857,0.2201,0.1736,-0.2469,0.3023
17:40:20:998,-3.3523,4.4794,8.016,66.5501,0.6752,0.4235,-0.191,0.3075
17:40:21:018,-4.5631,4.0451,5.7057,65.9808,0.3386,-0.0313,0.0768,0.312
17:40:21:036,-4.2544,3.5785,5.33,65.2624,-0.2848,-0.4003,0.4177,0.3125
17:40:21:056,-2.5819,3.2961,6.7944,64.9605,-0.8218,-0.3175,0.6086,0.3076
17:40:21:077,-0.9918,3.1956,8.7266,64.531,-0.9757,0.0814,0.6706,0.2991
17:40:21:097,0.2082,3.2566,9.9972,64.5269,-0.6504,0.5521,0.604,0.2909
17:40:21:116,0.5503,3.3846,9.1274,63.986,-0.1449,0.8853,0.4696,0.2864
17:40:21:138,-0.0479,3.5151,6.4857,63.3224,0.1342,0.743,0.4485,0.2869
17:40:21:157,-0.4917,3.6742,3.9625,63.0114,0.1636,0.268,0.5618,0.2884
17:40:21:176,0.0754,4.1647,4.319,62.8279,0.0811,-0.1526,0.7155,0.2893
17:40:21:197,0.725,4.8849,5.196,62.5687,-0.0545,-0.3303,0.7927,0.2891
17:40:21:216,0.9846,5.6004,5.8708,62.3278,-0.1486,-0.297,0.7118,0.2884
17:40:21:237,0.6317,6.0574,6.4092,62.1042,-0.1941,-0.2164,0.4803,0.2871
17:40:21:257,0.1077,5.866,7.072,61.6635,-0.2338,-0.1947,0.2442,0.2856
17:40:21:277,-0.3637,5.6554,7.6582,61.4662,-0.1575,-0.2017,0.0762,0.2844
17:40:21:296,-0.5827,5.4305,7.9262,61.4577,-0.082,-0.2072,0.1474,0.2837
17:40:21:316,-0.5468,5.5789,8.3378,60.8675,0.0435,-0.2033,0.2531,0.2837
17:40:21:336,-0.1436,6.079,8.7434,60.5472,0.2601,-0.2735,0.2915,0.2853
17:40:21:357,0.5288,6.7693,8.9827,60.1708,0.4595,-0.396,0.221,0.289
17:40:21:377,0.8602,7.188,9.2124,59.9783,0.5096,-0.4216,0.1266,0.2941
17:40:21:397,0.792,7.2921,9.7244,59.5918,0.491,-0.1715,0.0903,0.299
17:40:21:418,0.9009,7.6977,9.5474,59.1852,0.4727,-0.0426,0.0157,0.3034
17:40:21:436,1.1139,8.1751,9.9709,58.9394,0.4033,-0.173,-0.0515,0.3112
17:40:21:458,1.6618,8.2301,10.6636,58.3291,0.286,-0.3031,-0.0505,0.3137
17:40:21:476,2.4742,8.4921,11.4245,58.1944,0.1629,-0.4049,0.0069,0.3153
17:40:21:496,3.2961,8.3426,12.3087,58.025,0.0893,-0.5005,-0.0289,0.3165
17:40:21:517,3.2602,7.5673,12.0239,57.7251,0.1052,-0.2659,-0.2201,0.3178
17:40:21:539,2.0303,6.2572,10.5595,57.6443,0.4525,0.1547,-0.699,0.3205
17:40:21:557,0.5372,4.4327,8.79,57.2804,0.545,0.0548,-0.7457,0.3247
17:40:21:576,-0.6054,2.857,7.2658,57.2322,0.4137,-0.1031,-0.5793,0.3287
17:40:21:596,-0.9021,1.8556,6.3852,56.9542,0.1071,-0.2057,-0.2427,0.3306
17:40:21:616,-0.1376,1.8604,6.0849,56.7,-0.2695,-0.1837,0.0664,0.3295
17:40:21:636,1.0481,2.7757,6.2177,56.8091,-0.586,-0.0386,0.1782,0.3251
17:40:21:658,1.8556,3.6179,6.5324,56.6358,-0.6837,0.1147,0.1284,0.3189
17:40:21:677,2.2098,4.331,6.6796,56.5402,-0.542,0.1642,-0.0148,0.309
17:40:21:696,1.48,4.8419,5.6291,56.219,-0.3248,0.0838,-0.2188,0.3069
17:40:21:716,0.9511,4.7701,5.2917,55.9535,-0.2054,-0.0371,-0.3575,0.3055
17:40:21:737,0.7382,5.0058,5.0859,55.6315,-0.1804,-0.0677,-0.3764,0.3041
17:40:21:756,0.5204,5.3145,5.0548,55.6091,-0.2088,-0.0176,-0.3926,0.3023
17:40:21:776,0.4211,5.5418,5.3396,55.7386,-0.2451,0.0356,-0.3978,0.3005
17:40:21:798,0.189,5.8229,5.391,55.5205,-0.1535,0.1431,-0.4748,0.2993
17:40:21:816,-0.1675,6.1065,5.2714,55.1934,-0.1877,0.1385,-0.5166,0.2981
17:40:21:836,-0.4774,6.0981,5.5597,54.8982,-0.2558,0.0835,-0.5185,0.2965
17:40:21:857,-0.6508,5.7775,6.4152,54.6367,-0.2579,0.0383,-0.4439,0.2945
17:40:21:876,-0.6712,5.4568,7.389,54.6938,-0.1657,-0.0548,-0.2784,0.2928
17:40:21:897,-0.2907,5.4879,8.4335,54.7948,-0.0133,-0.1385,-0.0863,0.2921
17:40:21:918,0.4582,5.9773,9.6096,54.8632,0.1862,-0.1141,0.006,0.2953
17:40:21:938,1.0122,6.4654,10.5655,54.5181,0.4128,0.1092,-0.0319,0.2997
17:40:21:956,-0.2752,6.4463,9.6287,54.5641,0.6495,0.3493,-0.0915,0.3059
17:40:21:976,-1.2191,6.4187,8.4993,54.2069,0.7952,0.4305,-0.0796,0.3124
17:40:21:996,-1.0457,7.0229,8.0913,54.4225,0.6874,0.3917,0.104,0.3169
17:40:22:016,-0.3673,7.7791,8.7314,54.4984,0.3352,0.3771,0.3074,0.3183
17:40:22:036,0.4092,8.5496,9.7496,54.3528,0.0188,0.348,0.4363,0.318
17:40:22:059,1.0528,8.8738,10.6911,54.5688,-0.0044,-0.1126,0.3526,0.3179
17:40:22:076,1.3448,8.2505,11.3504,54.2379,0.0909,-0.1449,0.2876,0.3187
17:40:22:096,1.657,8.0028,11.3324,54.3482,0.1752,-0.0438,0.1709,0.3198
17:40:22:116,1.3974,8.2911,10.7521,54.3936,0.3209,-0.104,-0.1724,0.3219
17:40:22:136,-0.3111,7.5673,10.008,54.5434,0.4223,-0.1874,-0.4705,0.3253
17:40:22:156,-2.2433,5.9569,8.9695,54.6746,0.3157,-0.1727,-0.483,0.3287
17:40:22:178,-3.6467,3.5916,7.931,54.6898,0.0585,-0.2195,-0.2644,0.3293
17:40:22:197,-3.0365,2.8379,8.5161,55.0675,-0.1776,-0.2857,0.0264,0.3269
17:40:22:216,-1.9322,2.5819,8.7948,55.0464,-0.232,-0.1761,0.3422,0.3246
17:40:22:236,-0.6712,2.8929,8.4969,55.4156,-0.1019,0.0841,0.5844,0.3238
17:40:22:256,0.3422,3.5569,7.1175,55.6459,0.1211,0.4849,0.7136,0.3248
17:40:22:276,0.7561,4.2114,5.1805,55.5482,0.3215,0.8202,0.6883,0.3271
17:40:22:297,0.999,4.9507,3.5809,56.1773,0.3673,0.889,0.6388,0.3296
17:40:22:318,1.0457,5.4544,2.802,56.1878,0.1199,0.2848,0.4418,0.3314
17:40:22:337,1.0277,5.683,2.7039,56.5276,-0.0872,-0.1034,0.3297,0.3323
17:40:22:356,0.9452,5.8241,3.1992,56.6877,-0.3325,-0.283,0.2268,0.3315
17:40:22:377,0.7633,6.0048,4.197,57.0388,-0.5023,-0.3474,0.1116,0.3287
17:40:22:397,0.5228,6.2429,5.4317,57.2063,-0.5169,-0.411,-0.049,0.325
17:40:22:416,0.061,6.2166,6.323,57.4738,-0.4843,-0.4259,-0.188,0.3215
17:40:22:438,-0.2417,6.012,7.1653,58.102,-0.4488,-0.433,-0.2417,0.318
17:40:22:458,-0.5922,5.817,9.0772,58.2671,-0.3749,-0.4412,-0.2582,0.3125
17:40:22:476,-0.7932,5.7727,9.5521,58.6958,-0.1791,-0.3587,-0.2082,0.3121
17:40:22:506,-0.8841,6.2405,8.9982,58.8248,0.0954,-0.1797,-0.0744,0.3139
17:40:22:516,-0.6257,6.6712,8.5304,59.0905,0.3086,-0.1629,0.0722,0.3171
17:40:22:536,0.0718,7.4584,8.918,59.5048,0.3743,-0.2918,0.2097,0.3207
17:40:22:556,0.1579,8.3725,8.6931,59.8745,0.3679,-0.1834,0.2295,0.3239
17:40:22:578,0.061,8.4383,8.7494,60.4683,0.1999,-0.5881,0.1917,0.3268
17:40:22:597,0.7501,8.2313,10.4734,60.4296,0.1318,-0.5484,0.3413,0.329
17:40:22:616,1.9801,8.7254,11.1206,60.8823,0.0945,-0.385,0.421,0.3304
17:40:22:636,3.1884,9.4804,11.3169,61.1981,0.0319,-0.2949,0.3358,0.3312
17:40:22:657,4.069,9.545,11.6064,61.6079,0.0444,-0.049,0.0814,0.3316
17:40:22:676,4.0211,8.9432,10.9472,62.0576,0.148,0.1452,-0.2677,0.3324
17:40:22:698,2.9384,7.5458,9.5246,61.9382,0.3157,-0.0014,-0.6129,0.3382
17:40:22:718,1.4142,5.3037,8.3234,62.0108,0.4821,-0.2152,-0.7836,0.3426
17:40:22:737,-0.4965,2.4024,5.9486,61.8128,0.4571,-0.2552,-0.7265,0.3454
17:40:22:757,-0.3278,2.132,5.2786,62.3948,0.181,-0.257,-0.5124,0.3448
17:40:22:777,0.4738,2.7003,5.9282,62.2447,-0.2698,-0.3331,-0.2546,0.3404
17:40:22:796,1.2335,3.1705,7.3543,62.2694,-0.6773,-0.3673,-0.1312,0.3332
17:40:22:817,1.6032,3.4983,8.7194,62.2478,-0.8532,-0.2436,-0.1352,0.3256
17:40:22:838,1.517,3.9446,8.7386,62.3461,-0.3862,0.363,-0.2439,0.3199
17:40:22:857,1.0672,4.3777,7.3436,62.6814,-0.0826,0.4443,-0.2692,0.3174
17:40:22:876,0.5037,4.7139,5.6782,63.0989,0.0002,0.3792,-0.1822,0.3168
17:40:22:897,0.5324,5.2187,4.5655,63.4209,-0.0664,0.2729,-0.078,0.3165
17:40:22:916,0.8758,5.884,4.3825,63.3699,-0.1275,0.1324,-0.0515,0.3158
17:40:22:937,1.4895,6.5886,5.0321,63.6313,-0.0704,0.0047,-0.2072,0.3153
17:40:22:958,1.5697,6.8016,5.5645,63.9009,0.0356,-0.0035,-0.4882,0.3168
17:40:22:978,0.67,6.2441,5.336,64.1031,0.046,0.0435,-0.6351,0.3173
17:40:22:996,-0.8219,5.4485,4.6433,64.098,-0.0606,0.1116,-0.5521,0.3163
17:40:23:016,-0.865,5.6662,4.532,64.1591,-0.2344,0.1474,-0.3942,0.3137
17:40:23:037,-0.4941,6.0179,4.9771,63.9989,-0.4296,0.0756,-0.2243,0.3096
17:40:23:057,0.3386,6.6353,6.4403,64.0473,-0.5912,-0.0661,-0.0799,0.3045
17:40:23:076,1.2395,7.2323,9.1717,63.8925,-0.6263,-0.265,-0.0521,0.3004
17:40:23:098,1.2227,7.3579,11.2881,64.0047,-0.3688,-0.3761,-0.2179,0.2991
17:40:23:117,0.2871,7.1127,11.8875,63.9132,0.0252,-0.2155,-0.4275,0.3008
17:40:23:137,-1.0672,6.5025,10.8897,63.8395,0.3957,0.4183,-0.3816,0.304
17:40:23:156,-1.6558,6.1376,9.6981,63.6327,0.2057,0.5041,-0.0509,0.3065
17:40:23:176,-1.3149,6.3577,9.746,63.1904,0.0154,0.5808,0.3047,0.3069
17:40:23:197,-0.4774,7.2347,10.1192,63.3403,0.0151,0.666,0.5508,0.3067
17:40:23:218,0.5157,8.6967,9.9517,63.1429,0.0762,0.5227,0.5502,0.3079
17:40:23:238,1.0277,9.5342,9.5892,63.2046,0.0405,0.1074,0.3312,0.3085
17:40:23:257,1.4142,7.8353,11.8528,63.0243,-0.0258,-0.2876,0.1413,0.3089
17:40:23:276,0.9284,6.7298,12.5085,62.7495,0.0597,-0.2665,-0.0316,0.3105
17:40:23:297,-0.6377,5.6734,10.8299,62.8305,0.3804,0.1541,-0.2228,0.3147
17:40:23:317,-2.2828,4.9771,7.7288,62.7249,0.6917,0.5463,-0.3239,0.3203
17:40:23:337,-3.198,4.4518,5.8469,62.6319,0.6568,0.4778,-0.2946,0.3243
17:40:23:358,-2.7649,3.7388,5.9916,62.1357,-0.1049,-0.0664,0.0829,0.325
17:40:23:377,-1.8592,3.1609,6.5886,61.7496,-0.3618,0.0582,0.203,0.3226
17:40:23:396,-1.1258,2.8582,6.9488,61.4098,-0.4293,0.297,0.3065,0.3186
17:40:23:416,-0.5001,2.8893,6.7071,60.7673,-0.3774,0.5371,0.3618,0.3145
17:40:23:437,-0.256,3.1035,5.6363,60.3849,-0.3459,0.6269,0.4168,0.3108
17:40:23:461,-0.4714,3.6144,4.0726,59.9138,-0.3911,0.3728,0.5264,0.3037
17:40:23:477,0.0837,4.0487,4.7689,59.7304,-0.4891,-0.1006,0.6987,0.2995
17:40:23:498,1.0887,5.0572,5.86,59.2563,-0.5954,-0.4116,0.8532,0.2946
17:40:23:516,1.9119,6.0431,7.4237,58.6527,-0.6599,-0.5356,0.8325,0.2898
17:40:23:536,2.15,6.6879,8.3797,58.1751,-0.567,-0.432,0.6086,0.2863
17:40:23:556,1.2502,6.6879,8.3091,57.6698,-0.3465,-0.232,0.2405,0.2848
17:40:23:576,-0.0156,6.1005,7.809,57.5415,-0.1199,-0.1168,-0.0603,0.2848
17:40:23:597,-0.8901,5.6638,7.4608,57.3608,0.0212,-0.1135,-0.1544,0.2856
17:40:23:618,-1.2778,5.4449,7.4931,56.7489,0.0728,-0.1617,-0.1046,0.2865
17:40:23:638,-1.0241,5.6794,8.15,56.2031,0.0869,-0.2509,0.035,0.2879
17:40:23:656,-0.469,6.1962,8.9216,55.8572,0.3728,-0.3306,0.1382,0.2905
17:40:23:677,0.0323,6.603,9.344,55.8351,0.5484,-0.3822,0.0686,0.295
17:40:23:699,0.1172,6.5145,9.6742,55.7635,0.6132,-0.4323,0.1052,0.3006
17:40:23:716,0.6018,6.6676,10.4542,55.3666,0.6342,-0.1617,0.1681,0.3062
17:40:23:736,1.054,7.1988,10.191,54.3235,0.6761,0.1767,0.1312,0.3118
17:40:23:758,0.5982,7.669,7.5194,53.6145,0.6639,0.1165,0.1639,0.3229
17:40:23:776,1.4931,8.1512,6.9248,53.4113,0.4336,-0.1052,0.2833,0.3251
17:40:23:796,2.479,8.4945,8.333,52.6505,-0.1086,-0.3862,0.3276,0.3225
17:40:23:816,3.0173,7.6941,10.6361,51.9894,-0.6309,-0.6086,0.2176,0.3169
17:40:23:837,3.2602,6.8243,12.1376,51.2907,-0.7613,-0.6275,0.0732,0.3116
17:40:23:857,2.881,5.671,12.5886,50.6765,-0.5005,-0.5741,-0.1501,0.3093
17:40:23:877,2.0937,4.2138,11.5071,50.4602,-0.0435,-0.4843,-0.3633,0.3105
17:40:23:898,1.2682,3.1418,9.5868,50.7658,0.3801,-0.1629,-0.3251,0.3134
17:40:23:916,1.2,2.9073,7.9717,50.6827,0.2036,-0.0081,-0.1419,0.3155
17:40:23:936,1.7228,3.4672,7.0074,49.9693,-0.0231,0.2014,-0.1098,0.3156
17:40:23:956,2.0052,4.0307,6.256,49.981,-0.1749,0.4009,-0.2042,0.3141
17:40:23:976,1.8162,4.4351,5.4126,50.1244,-0.2708,0.5145,-0.3477,0.3118
17:40:23:997,1.3579,4.6935,4.5763,50.1691,-0.3587,0.4152,-0.5286,0.3089
17:40:24:018,0.0634,4.3167,4.8371,49.9977,-0.4204,0.1675,-0.6752,0.3022
17:40:24:036,-0.4881,3.862,5.7248,49.7363,-0.4079,-0.0988,-0.6944,0.2994
17:40:24:057,-0.3338,3.9051,6.1974,49.314,-0.2891,-0.224,-0.5505,0.2976
17:40:24:076,0.1543,4.6493,6.3589,49.0052,-0.1571,-0.1813,-0.3606,0.2965
17:40:24:098,0.7131,5.3946,6.207,49.1559,-0.115,0.0276,-0.2466,0.2954
17:40:24:116,0.938,5.945,5.7619,49.0481,-0.1217,0.3041,-0.264,0.2945
17:40:24:139,0.6975,6.3637,5.3504,48.7516,-0.1116,0.4174,-0.3477,0.2938
17:40:24:157,0.4463,6.408,5.2199,48.2823,-0.1742,0.1403,-0.4607,0.2931
17:40:24:177,0.2034,6.1615,5.8684,48.2887,-0.2582,-0.0499,-0.4079,0.2917
17:40:24:197,0.2859,5.9521,7.2263,48.2656,-0.2665,-0.192,-0.2979,0.2897
17:40:24:216,0.5348,5.9354,8.9515,48.2872,-0.1205,-0.1303,-0.2011,0.2881
17:40:24:236,0.5432,6.1795,10.0008,48.2391,0.1947,0.0255,-0.1715,0.2882
17:40:24:257,0.189,6.4845,9.7819,48.0291,0.5121,0.0579,-0.2213,0.2914
17:40:24:277,-0.4893,6.5623,9.0891,48.0205,0.633,-0.0399,-0.264,0.3021
17:40:24:297,-1.3388,6.3757,9.2997,48.0359,0.5221,-0.0258,-0.1688,0.3055
17:40:24:316,-0.8925,6.7226,10.4758,48.1608,0.2417,0.13,0.0194,0.3064
17:40:24:336,-0.3864,7.2993,11.2606,47.6158,0.0527,0.4388,0.2133,0.3068
17:40:24:357,0.0658,8.3462,10.5428,46.9154,0.1483,0.7106,0.3648,0.3086
17:40:24:376,0.1711,8.6536,9.2291,46.2705,0.2778,0.6749,0.3752,0.3107
17:40:24:398,0.2895,8.0794,9.2554,46.0878,-0.0954,0.0896,0.3777,0.3111
17:40:24:418,0.6652,7.3771,10.2425,45.8737,-0.0451,-0.0081,0.3178,0.3104
17:40:24:436,0.4726,7.005,10.5619,45.6775,0.2686,0.0634,0.1006,0.3113
17:40:24:456,-0.5838,6.3613,9.3571,45.4291,0.527,0.1245,-0.1055,0.3148
17:40:24:476,-1.9095,5.7464,7.6044,45.1964,0.5362,0.0359,-0.1681,0.3195
17:40:24:511,-2.7541,5.1242,6.5121,45.5054,0.3425,-0.3251,-0.0896,0.3236
17:40:24:516,-2.6345,4.55,6.4223,45.53,-0.0964,-0.571,0.0157,0.3251
17:40:24:539,-1.6666,3.0676,8.9121,45.8251,-0.5716,-0.2934,0.1846,0.3155
17:40:24:556,-1.2012,2.7721,9.4552,45.8397,-0.7378,0.1694,0.3627,0.3089
17:40:24:576,-0.5958,3.1753,8.5268,45.7086,-0.5145,0.5851,0.5542,0.305
17:40:24:596,-0.2213,3.8632,6.3841,45.6777,-0.1306,0.7924,0.6672,0.3043
17:40:24:617,-0.1065,4.3262,4.5248,45.538,0.0887,0.7231,0.6675,0.3049
17:40:24:636,0.2524,4.812,3.7005,45.6192,0.0585,0.4485,0.6923,0.3049
17:40:24:658,0.6879,5.3408,3.7759,45.4919,-0.1162,0.1269,0.6868,0.3035
17:40:24:677,0.9846,5.6853,4.7103,45.7262,-0.5276,-0.2054,0.4534,0.3003
17:40:24:697,0.9703,5.7882,6.1448,45.7847,-0.4837,-0.1584,0.2766,0.2963
17:40:24:716,0.5563,5.8756,7.0469,45.5202,-0.2766,-0.1031,0.0948,0.2934
17:40:24:736,-0.1519,6.0395,6.95,45.4812,-0.1587,-0.1562,-0.0383,0.292
17:40:24:756,-0.8411,5.9091,6.9476,45.1621,-0.1923,-0.2931,-0.0704,0.291
17:40:24:776,-1.3113,5.5119,7.8999,45.1184,-0.1917,-0.3868,0.0298,0.2897
17:40:24:798,-1.389,5.391,9.2303,45.161,-0.0215,-0.4042,0.2005,0.2889
17:40:24:818,-0.9942,5.6674,10.0953,45.1419,0.265,-0.3609,0.3575,0.2938
17:40:24:836,0.6126,6.8542,10.4542,44.7588,0.5667,-0.2827,0.4177,0.2999
17:40:24:856,1.0074,7.5829,9.667,44.4093,0.7943,-0.1156,0.3731,0.3072
17:40:24:877,0.4822,8.1212,8.0351,44.1557,0.8459,0.1623,0.2366,0.314
17:40:24:896,-0.0431,7.9071,7.3472,44.1581,0.6678,0.1162,0.1022,0.3191
17:40:24:918,0.4187,7.5745,7.8449,44.2741,0.3997,-0.2173,0.1333,0.3222
17:40:24:938,2.2086,7.9944,8.802,44.1128,0.1333,-0.4384,0.3025,0.3232
17:40:24:956,3.8596,8.5424,10.4842,43.6287,0.0188,-0.7036,0.2082,0.3239
17:40:24:977,5.056,8.6178,10.7928,43.3357,0.049,-0.5783,-0.1575,0.3254
17:40:24:997,4.7689,8.3581,10.2269,43.2166,-0.2173,-0.2946,-0.6187,0.3257
17:40:25:016,2.9743,6.7789,10.2832,43.0511,-0.4317,-0.192,-0.9027,0.3232
17:40:25:036,1.1605,4.5799,10.8156,43.0256,-0.2958,-0.1901,-0.932,0.3199
17:40:25:058,-0.0586,2.6489,10.4471,42.7644,-0.0002,-0.2607,-0.742,0.3182
17:40:25:077,-0.2022,1.5625,8.4407,42.7259,0.1898,-0.2366,-0.3606,0.3194
17:40:25:097,0.6281,2.7123,7.3125,42.9338,0.1749,-0.0536,0.0221,0.3193
17:40:25:116,1.3005,3.7149,6.5157,43.3139,0.0237,0.1736,0.1865,0.3179
17:40:25:136,1.5577,4.3597,5.7236,43.4719,-0.1119,0.3893,0.1581,0.3156
17:40:25:156,1.4824,4.9017,4.9651,43.4579,-0.1547,0.5475,0.0585,0.3134
17:40:25:178,1.2455,5.0871,4.2114,43.3356,-0.1129,0.4052,-0.3102,0.3117
17:40:25:197,0.8088,5.0429,3.521,43.5998,-0.1742,0.2289,-0.4339,0.3101
17:40:25:216,0.3805,4.9244,3.3057,43.4854,-0.3047,0.0368,-0.4427,0.3081
17:40:25:236,0.2943,4.9196,3.8237,43.2481,-0.4516,-0.0221,-0.3917,0.3051
17:40:25:256,0.4905,5.1984,4.678,43.1294,-0.5224,0.0451,-0.3847,0.3009
17:40:25:276,0.5276,5.4784,5.3827,42.727,-0.4864,0.0848,-0.4155,0.2963
17:40:25:297,0.3589,5.7224,5.8768,42.705,-0.4103,-0.027,-0.4519,0.2923
17:40:25:318,-0.0443,5.6195,7.6331,43.0999,-0.3319,-0.1382,-0.4388,0.2868
17:40:25:337,0.1531,5.6255,8.522,43.2528,-0.2363,-0.1672,-0.3511,0.2853
17:40:25:356,0.5432,5.9163,9.2195,43.3466,-0.126,-0.0777,-0.2246,0.2844
17:40:25:377,0.7705,6.2405,9.4851,43.5268,0.009,0.0887,-0.1446,0.2846
17:40:25:396,0.4343,6.4463,9.4768,43.7454,0.1703,0.2451,-0.155,0.2859
17:40:25:417,-0.2548,6.3876,9.1023,43.8006,0.3554,0.308,-0.1859,0.289
17:40:25:438,-0.9284,6.4439,8.9671,43.9949,0.549,0.0567,-0.0799,0.293
17:40:25:458,-0.8195,6.475,9.1394,43.7344,0.4809,0.0469,0.0814,0.2973
17:40:25:476,0.0814,7.2036,9.5019,43.2407,0.2912,0.2622,0.1355,0.3002
17:40:25:496,0.2847,8.0064,9.6598,43.2398,0.0906,0.4843,0.159,0.3012
17:40:25:516,0.1854,8.7003,9.661,43.1191,-0.0396,0.3951,0.192,0.3005
17:40:25:536,0.3302,9.0341,9.8991,42.8883,-0.1614,0.0533,0.1889,0.2993
17:40:25:556,0.7813,8.7458,10.9986,42.5915,-0.2439,-0.1471,0.1742,0.2979
17:40:25:578,1.2981,8.0578,12.3302,42.3526,-0.0958,0.0426,0.0316,0.2962
17:40:25:597,-1.1569,6.0383,9.7974,42.3848,0.3367,0.5111,-0.2274,0.2985
17:40:25:617,-3.4588,4.8981,6.396,42.4606,0.6761,0.775,-0.4488,0.3017
17:40:25:636,-4.8335,3.8249,4.6911,42.6507,0.5695,0.52,-0.4195,0.3035
17:40:25:656,-4.599,3.0497,5.0883,42.5924,0.1156,-0.0365,-0.1251,0.3023
17:40:25:677,-2.9838,2.7565,7.0134,42.5506,-0.4427,-0.5001,0.2634,0.2979
17:40:25:696,-1.0122,2.7398,9.5641,42.7674,-0.8435,-0.6376,0.5426,0.2915
17:40:25:718,0.5934,2.6967,11.0321,42.8409,-0.4681,0.0997,0.6003,0.2858
17:40:25:736,1.1426,2.7242,10.0989,42.8883,-0.053,0.6632,0.5655,0.2823
17:40:25:756,0.926,3.1741,7.5386,42.5636,0.1468,0.8441,0.6092,0.2807
17:40:25:776,0.7956,3.7819,5.2558,42.6713,0.1245,0.633,0.6831,0.2803
17:40:25:796,0.9858,4.3633,4.2556,42.7961,0.0292,0.2689,0.7442,0.2806
17:40:25:817,1.6223,5.0955,4.3035,42.9371,-0.0457,-0.0591,0.6611,0.2812
17:40:25:838,2.0961,6.1412,5.4233,42.8654,-0.0783,-0.1813,0.4192,0.2824
17:40:25:858,1.212,6.1854,5.4712,42.8708,-0.1092,-0.1581,0.0924,0.2818
17:40:25:876,-0.128,5.6889,6.0024,42.7558,-0.2213,-0.2027,-0.2066,0.2804
17:40:25:896,-1.3388,5.1147,7.0098,42.5445,-0.3578,-0.2802,-0.3199,0.278
17:40:25:916,-1.6881,4.9041,8.0853,42.368,-0.3935,-0.3618,-0.2262,0.2759
17:40:25:936,-1.3783,5.0201,9.0808,42.4118,-0.3108,-0.3783,-0.0276,0.2746
17:40:25:957,-0.7741,5.8062,9.7914,42.0524,-0.1513,-0.2534,0.2042,0.2745
17:40:25:980,-0.2285,6.6353,9.6347,42.2175,0.1171,-0.0704,0.3175,0.2768
17:40:25:996,0.1771,7.2742,9.1645,42.2127,0.6031,-0.3984,0.3093,0.282
17:40:26:016,0.7525,7.6666,10.0008,42.3917,0.6971,-0.3294,0.2476,0.2891
17:40:26:036,0.7884,7.9143,10.0762,42.1533,0.8013,0.0099,0.1526,0.2959
17:40:26:056,0.201,8.1093,8.4634,42.3755,0.7567,-0.0166,0.1126,0.3025
17:40:26:077,0.0837,8.1763,7.3866,42.531,0.4507,-0.385,0.1727,0.3087
17:40:26:098,2.4861,8.5041,9.6395,42.2167,0.024,-0.5872,0.2158,0.3137
17:40:26:117,3.5402,8.3222,10.873,42.3057,-0.297,-0.5676,0.1575,0.3127
17:40:26:137,4.2233,7.9561,11.2558,42.3994,-0.3312,-0.491,-0.0017,0.3118
17:40:26:156,3.6838,7.3412,10.4076,42.4092,-0.1782,-0.308,-0.3138,0.3112
17:40:26:177,1.7372,5.5777,9.7519,42.3859,-0.1129,-0.1608,-0.7378,0.3105
17:40:26:197,-0.2429,3.4373,9.216,43.0937,-0.0221,-0.1862,-0.9733,0.3109
17:40:26:217,-1.4584,1.8544,8.4251,43.1976,0.1333,-0.3303,-0.9018,0.3123
17:40:26:238,-1.529,1.2491,7.937,43.8637,0.1611,-0.4934,-0.5618,0.3134
17:40:26:256,-0.5085,1.7133,8.0853,44.4167,-0.3004,-0.3202,0.2866,0.3122
17:40:26:276,0.743,2.6489,8.4479,44.9639,-0.4815,0.0356,0.4354,0.3084
17:40:26:296,1.7779,3.4528,8.6752,44.9611,-0.4314,0.4659,0.3945,0.3032
17:40:26:317,2.3031,4.2628,8.0842,44.9835,-0.1513,0.7185,0.2124,0.2985
17:40:26:336,2.053,4.8885,6.7454,45.0662,0.1562,0.6993,0.0121,0.2966
17:40:26:359,1.3926,5.6818,3.9123,44.9541,0.2433,0.5176,-0.1761,0.2977
17:40:26:378,1.1725,5.9677,3.5474,44.7982,0.108,0.3428,-0.3013,0.2975
17:40:26:396,1.1342,6.1687,3.8201,44.8709,-0.0878,0.1684,-0.3792,0.2963
17:40:26:417,0.9141,6.1077,4.4351,44.6532,-0.2506,0.0221,-0.491,0.294
17:40:26:436,0.548,5.8708,5.3216,44.3515,-0.3783,-0.0719,-0.5985,0.2909
17:40:26:456,0.1986,5.6483,6.1496,44.6509,-0.4326,-0.0484,-0.6434,0.2874
17:40:26:477,-0,5.537,6.9547,44.859,-0.3929,0.017,-0.622,0.2845
17:40:26:498,-0.2154,5.4353,7.2574,45.3452,-0.2219,0.0417,-0.5646,0.2831
17:40:26:525,-0.0957,5.4855,7.7133,45.4297,0.0191,-0.0628,-0.2729,0.2829
17:40:26:536,0.5575,6.189,8.8546,45.9115,0.1895,-0.0334,-0.1981,0.2837
17:40:26:556,0.8518,6.8913,9.5725,45.8996,0.4082,0.1593,-0.2686,0.2861
17:40:26:577,0.2871,7.072,9.1334,46.4485,0.5551,0.3215,-0.3413,0.2895
17:40:26:596,-0.7741,6.8327,8.2576,47.0839,0.5722,0.2793,-0.3529,0.2936
17:40:26:618,-1.8293,6.3027,7.8341,47.0924,0.4491,0.2082,-0.2017,0.2998
17:40:26:638,-2.2457,6.1232,7.748,47.0695,0.1801,0.2069,0.0542,0.2996
17:40:26:656,-1.5159,6.9248,9.5797,47.0258,-0.1022,0.2182,0.3007,0.298
17:40:26:676,-0.3936,7.9956,10.5619,47.1439,-0.1978,0.1672,0.5276,0.2965
17:40:26:696,0.4786,8.5496,11.4987,47.0051,-0.1688,-0.0179,0.5615,0.2961
17:40:26:717,1.1007,8.0124,12.5575,46.4721,-0.1416,-0.2222,0.4458,0.2959
17:40:26:736,1.5111,7.0576,13.0816,46.1486,-0.1107,-0.1495,0.3526,0.2957
17:40:26:757,1.6929,6.6054,12.6329,46.0518,0.4904,0.4824,0.3099,0.2972
17:40:26:777,0.9105,6.8148,10.5858,45.9332,0.8654,0.8422,0.0383,0.3012
17:40:26:796,-0.9571,6.3374,7.4465,46.2693,0.9354,1.013,-0.1953,0.3064
17:40:26:817,-2.9671,5.7236,4.2449,46.2319,0.5884,0.6052,-0.2353,0.3107
17:40:26:836,-3.9577,5.0249,3.2554,46.3018,0.0084,-0.0808,-0.1196,0.3127
17:40:26:856,-3.5366,4.0403,4.8586,46.8526,-0.487,-0.3957,0.0658,0.3115
17:40:26:878,-1.4225,2.9827,8.6943,47.3852,-0.6895,-0.2671,0.1962,0.3015
17:40:26:898,-1.0026,2.7852,8.6512,47.3253,-0.5716,0.1147,0.2708,0.2963
17:40:26:916,-0.9571,3.0963,7.0804,47.3071,-0.3395,0.5545,0.3801,0.2921
17:40:26:936,-0.8554,3.7687,5.3049,47.3996,-0.2042,0.7231,0.5362,0.2891
17:40:26:956,-0.3936,4.3669,4.6636,47.2158,-0.1852,0.4271,0.6739,0.2877
17:40:26:977,0.3613,4.794,5.3707,47.0373,-0.239,-0.0869,0.7634,0.2871
17:40:26:997,1.2299,5.2164,6.5492,47.0671,-0.3163,-0.3575,0.7778,0.2862
17:40:27:018,1.7563,5.6901,7.4453,46.4506,-0.3383,-0.2848,0.6804,0.2848
17:40:27:037,1.212,5.8038,7.0265,45.8382,-0.2179,-0.0264,0.4216,0.2839
17:40:27:056,0.1591,5.616,6.2249,45.8823,-0.0695,-0.009,0.0402,0.2836
17:40:27:076,-0.4582,5.5023,6.067,45.7724,-0.1083,-0.1865,0.0078,0.2834
17:40:27:096,-0.8076,5.2953,6.7226,45.5868,-0.0835,-0.356,0.053,0.2835
17:40:27:116,-0.6832,5.3264,7.5386,45.1353,-0.0011,-0.3819,0.122,0.2843
17:40:27:138,-0.4475,5.7583,8.0578,44.8514,0.0961,-0.326,0.1581,0.2877
17:40:27:157,0.4367,6.7107,8.7637,44.2532,0.1904,-0.3471,0.1578,0.2911
17:40:27:176,1.0134,7.5649,9.551,44.4232,0.2863,-0.4482,0.1101,0.295
17:40:27:197,0.6114,8.15,8.9695,44.1517,0.338,-0.2417,-0.0585,0.298
17:40:27:216,0.0179,7.9705,8.5376,43.3691,0.2185,-0.1584,-0.2109,0.2999
17:40:27:237,0.3242,7.5446,10.0654,42.5419,-0.0173,-0.4687,-0.1721,0.3009
17:40:27:257,1.6594,7.7958,11.4497,42.1728,-0.1752,-0.5988,0.0515,0.301
17:40:27:278,3.0688,8.6417,11.9462,41.8175,-0.1862,-0.5301,0.221,0.3013
17:40:27:297,3.9099,8.8834,12.3099,41.5795,-0.1541,-0.5347,0.1813,0.3019
17:40:27:316,3.9577,8.3797,11.72,41.6286,0.0585,-0.3297,-0.3667,0.3029
17:40:27:336,3.0317,7.0768,10.8251,41.0417,0.257,-0.4064,-0.724,0.3051
17:40:27:356,1.5972,4.8215,9.8716,41.1269,0.4684,-0.3758,-0.9048,0.3088
17:40:27:376,0.347,3.0473,8.4694,41.2736,0.4919,-0.2033,-0.8514,0.313
17:40:27:398,-0.3661,1.8592,5.7811,41.5872,0.2714,-0.0896,-0.6009,0.316
17:40:27:418,0.3374,2.4036,5.7595,41.5681,-0.0732,-0.1669,-0.3144,0.3139
17:40:27:436,1.2957,3.0736,6.4367,41.9021,-0.4003,-0.2686,-0.1413,0.3096
17:40:27:456,1.9932,3.7603,7.0158,41.4101,-0.6156,-0.1373,-0.1104,0.3038
17:40:27:476,2.2265,4.3011,7.133,41.3018,-0.644,0.115,-0.2008,0.2982
17:40:27:497,1.8556,4.587,6.2058,41.6081,-0.4326,0.2637,-0.3774,0.2948
17:40:27:516,1.2024,4.6935,4.9448,41.5316,-0.1663,0.1791,-0.5457,0.2937
17:40:27:537,0.944,4.9567,4.343,41.6882,-0.0783,-0.0499,-0.5957,0.2929
17:40:27:557,0.9416,5.2618,4.7892,41.5527,-0.2289,-0.2112,-0.5774,0.2907
17:40:27:576,1.2084,5.5908,5.5394,41.3335,-0.4895,-0.0243,-0.5967,0.287
17:40:27:597,1.0792,5.8696,5.9175,40.9603,-0.4427,0.0933,-0.6999,0.2829
17:40:27:617,0.4618,5.8481,5.9844,41.2522,-0.3392,0.1403,-0.7668,0.2793
17:40:27:636,-0.2776,5.5884,5.6375,41.0357,-0.2918,0.0973,-0.7402,0.2763
17:40:27:658,-0.9583,5.537,5.4999,40.6236,-0.3343,-0.0444,-0.6419,0.2707
17:40:27:677,-1.5458,5.415,5.9773,40.2103,-0.4244,-0.2155,-0.4659,0.2674
17:40:27:696,-1.4405,5.2977,8.7733,39.4863,-0.4409,-0.2836,-0.2341,0.2646
17:40:27:716,-1.0564,5.4269,10.3047,38.289,-0.2912,-0.2943,-0.0658,0.2637
17:40:27:736,-0.9332,5.6865,11.1194,37.1654,0.0139,-0.2005,0.0344,0.2654
17:40:27:756,-1.1605,5.8744,10.818,36.6672,0.3691,-0.0231,0.0735,0.2695
17:40:27:776,-1.0158,5.8923,10.5727,36.0262,0.5869,0.0182,0.1361,0.2745
17:40:27:797,0.323,6.341,11.0728,35.5355,0.5484,0.0438,0.341,0.2784
17:40:27:816,1.5721,7.2395,12.1077,35.0794,0.3984,0.2045,0.545,0.281
17:40:27:835,2.2648,8.4646,12.0491,34.7464,0.7152,0.9653,0.6471,0.2842
17:40:27:856,2.0889,9.8513,10.2939,34.8834,0.9555,0.9,0.4424,0.2899
17:40:27:876,1.5242,10.3286,7.9729,35.148,0.7805,0.3343,0.0903,0.2972
17:40:27:896,0.7908,9.3009,7.2419,35.6807,0.2023,-0.195,-0.1126,0.3024
17:40:27:916,0.2824,7.2861,8.8606,35.8399,-0.2106,-0.1904,-0.0652,0.3032
17:40:27:937,-0.0993,5.927,10.55,35.9204,-0.0695,0.1871,0.0334,0.3016
17:40:27:955,-2.0985,5.6447,7.681,36.0117,0.3346,0.5249,0.0505,0.3038
17:40:27:976,-3.3368,5.4485,5.318,36.2074,0.4888,0.4702,-0.0371,0.3063
17:40:27:996,-3.1633,4.9065,5.2738,36.4824,0.1602,-0.0551,0.0331,0.3061
17:40:28:016,-1.7527,4.1504,7.1414,36.5047,-0.4345,-0.491,0.1828,0.3016
17:40:28:036,-0.7501,3.5809,9.1155,36.6885,-0.8844,-0.4055,0.228,0.2938
17:40:28:057,-0.4965,2.7996,9.9613,37.0291,-0.5628,0.3346,0.1327,0.2864
17:40:28:077,-0.6126,2.2516,9.1944,37.0978,-0.0881,0.6831,0.2182,0.2818
17:40:28:096,-0.853,2.3749,6.8231,37.2343,0.1507,0.7411,0.3719,0.28
17:40:28:116,-0.8961,2.8451,4.5775,37.7739,0.0936,0.495,0.5518,0.2796
17:40:28:136,-0.5468,3.4421,3.5426,38.1459,-0.1691,0.152,0.7249,0.2791
17:40:28:156,0.2991,4.2592,3.8991,38.8675,-0.4366,-0.0884,0.7866,0.2773
17:40:28:176,1.2179,5.1051,5.0668,39.5499,-0.5536,-0.2078,0.6678,0.2743
17:40:28:199,1.748,5.7823,6.341,40.6243,-0.473,-0.2705,0.399,0.2695
17:40:28:216,0.8219,5.7846,7.2754,41.6049,-0.2689,-0.3352,0.0942,0.2692
17:40:28:236,0.0658,5.537,7.2562,42.5155,-0.1807,-0.3743,-0.0652,0.2687
17:40:28:257,-0.2261,5.3611,7.7862,43.6746,-0.2485,-0.3819,-0.0667,0.2675
17:40:28:277,-0.1591,5.3839,8.747,44.3138,-0.3086,-0.3822,0.0057,0.266
17:40:28:297,0.0694,5.7511,9.7531,44.775,-0.2405,-0.3172,0.089,0.2656
17:40:28:318,0.0431,6.3159,9.6503,44.8879,0.0249,-0.1776,0.1113,0.2676
17:40:28:337,-0.2309,6.408,9.3057,45.2477,0.3239,-0.2042,0.0533,0.272
17:40:28:356,-0.0167,6.7178,9.2758,45.4765,0.5319,-0.3019,0.0292,0.2777
17:40:28:376,0.3182,7.3352,8.6919,45.7361,0.3068,-0.29,-0.1025,0.2823
17:40:28:396,0.4558,7.6522,8.881,45.7551,-0.0637,-0.4378,-0.2045,0.2845
17:40:28:417,0.9416,7.2706,10.5906,46.2033,-0.3322,-0.4885,-0.192,0.2841
17:40:28:436,1.9741,6.9715,12.2728,46.5576,-0.4177,-0.33,-0.1104,0.2819
17:40:28:458,3.1944,7.2467,12.9332,47.0703,-0.4183,-0.097,-0.0982,0.2754
17:40:28:476,4.392,7.6319,12.0467,47.8032,-0.2445,0.0948,-0.2439,0.2744
17:40:28:497,2.8331,5.9043,10.6816,48.5155,0.086,-0.0536,-0.6449,0.2771
17:40:28:530,1.2443,3.533,9.5605,48.9035,0.4232,-0.4049,-0.9565,0.2824
17:40:28:537,0.25,1.8808,8.2768,48.8,0.5835,-0.4983,-0.9598,0.2874
17:40:28:556,-0.2082,1.3029,7.1438,49.1748,0.4989,-0.3664,-0.7323,0.2905
17:40:28:577,0.28,1.815,6.2417,49.0183,0.2726,-0.1828,-0.3639,0.2911
17:40:28:598,0.9835,2.7494,6.0634,49.478,-0.1865,-0.0457,-0.1156,0.2898
17:40:28:616,1.4225,3.4074,5.9701,50.0496,-0.2839,0.005,-0.2173,0.2875
17:40:28:636,1.3651,3.8393,5.884,50.2477,-0.3355,0.0808,-0.3575,0.2845
17:40:28:657,1.0062,3.9996,5.6435,50.054,-0.3541,0.1452,-0.4623,0.2812
17:40:28:676,0.4534,3.9805,5.3121,50.0348,-0.3331,0.0741,-0.4711,0.2778
17:40:28:696,0.2094,4.1228,5.4018,50.2986,-0.254,-0.0518,-0.4216,0.2751
17:40:28:718,0.4499,4.9998,5.7763,50.5412,-0.1733,-0.1428,-0.3774,0.2725
17:40:28:736,0.7944,5.4963,5.9462,51.098,-0.1715,-0.1083,-0.334,0.271
17:40:28:756,0.8985,5.8744,6.0072,51.2432,-0.2265,0.0551,-0.3502,0.2688
17:40:28:776,0.6604,6.0179,6.2381,50.6636,-0.2674,0.129,-0.4302,0.2665
17:40:28:796,0.1998,5.8038,6.5109,50.4652,-0.2537,0.108,-0.5231,0.2646
17:40:28:816,-0.3374,5.4233,6.8483,50.939,-0.2133,0.0292,-0.5496,0.2631
17:40:28:838,-0.6365,5.2164,7.2191,51.3212,-0.1553,-0.1339,-0.2653,0.2619
17:40:28:857,-0.25,5.3456,8.1117,51.5995,-0.0945,-0.2149,-0.0643,0.2611
17:40:28:876,0.7621,6.0144,9.3488,51.9698,0.067,-0.1898,-0.0322,0.2614
17:40:28:896,1.3113,6.5803,10.0989,52.1603,0.2885,-0.0026,-0.1465,0.2632
17:40:28:917,0.9559,6.6257,9.7962,52.4802,0.4769,0.1532,-0.272,0.2665
17:40:28:936,0.0443,6.5551,9.1011,52.9263,0.5359,0.1996,-0.2729,0.2708
17:40:28:956,-0.5216,6.6485,8.0961,53.1316,0.2952,0.0707,-0.1367,0.2746
17:40:28:978,-0.2847,7.084,8.8164,53.2766,-0.0863,0.0307,0.0429,0.274
17:40:28:996,0.5384,9.2315,11.9605,53.2212,-0.2414,0.2585,0.0539,0.2719
17:40:29:016,0.463,9.411,11.5645,53.4396,-0.1113,0.3801,-0.0478,0.2715
17:40:29:036,0.0311,8.2289,11.7847,53.6879,0.0023,0.086,-0.2549,0.2719
17:40:29:057,-0.0945,6.5252,12.8387,53.5929,-0.0072,-0.2185,-0.3612,0.2724
17:40:29:077,-1.1342,4.8514,12.3924,53.1897,0.1257,0.0057,-0.4369,0.274
17:40:29:098,-2.6118,3.8237,10.0116,52.949,0.4974,0.4922,-0.4216,0.2778
17:40:29:117,-3.8118,3.5581,6.9356,52.6726,0.6877,0.6996,-0.0692,0.2825
17:40:29:136,-4.2652,3.4505,4.8538,52.0171,0.2228,0.1578,0.2414,0.2858
17:40:29:156,-3.411,3.478,4.9747,51.2782,-0.436,-0.3004,0.4916,0.2852
17:40:29:176,-1.8173,3.3368,7.3065,50.8726,-0.874,-0.3432,0.5838,0.28
17:40:29:197,-0.4786,3.0006,10.0762,50.6232,-0.7842,-0.013,0.5579,0.2726
17:40:29:216,0.0275,2.5519,10.8598,50.7534,-0.3673,0.4229,0.5344,0.2668
17:40:29:237,-0.1687,2.4299,9.3093,51.2625,-0.0386,0.5982,0.6422,0.2629
17:40:29:256,0.3051,3.5474,6.3972,51.5769,0.0805,0.4482,0.8267,0.2635
17:40:29:276,1.0648,4.2257,6.0526,52.1685,0.1101,0.2222,0.9598,0.265
17:40:29:297,1.6534,4.8826,5.7559,52.8507,0.1596,0.0826,0.969,0.2673
17:40:29:316,1.7575,5.403,5.2391,53.977,0.214,0.0396,0.8346,0.2699
17:40:29:336,1.4201,5.9139,4.6576,54.8442,0.1776,0.0838,0.6147,0.2715
17:40:29:357,0.7238,6.1077,4.4124,55.1049,0.0377,0.0878,0.3349,0.2718
17:40:29:378,-0.0263,5.8624,5.123,55.4448,-0.1513,-0.086,0.0799,0.2711
17:40:29:396,-0.5635,5.4138,6.5025,55.5592,-0.3493,-0.3697,-0.1083,0.2695
17:40:29:416,-1.0062,5.2044,7.8891,56.188,-0.2952,-0.2427,-0.0484,0.2675
17:40:29:436,-1.3974,5.3731,8.8295,56.8551,-0.119,-0.0832,0.0499,0.266
17:40:29:456,-1.7109,5.7775,8.9348,57.3157,0.0805,-0.1657,0.1587,0.266
17:40:29:476,-1.4022,6.2166,9.0628,57.8349,0.1739,-0.5414,0.2549,0.2681
17:40:29:498,0.792,7.0816,12.7478,58.2534,0.2338,-0.6715,0.2921,0.2753
17:40:29:518,1.0122,7.334,12.1555,58.6969,0.4287,-0.17,0.2347,0.2799
17:40:29:536,0.4211,7.4788,9.8548,58.8144,0.6968,0.2424,0.1266,0.2858
17:40:29:556,0.7226,7.4477,8.3976,59.034,0.7329,0.0973,0.17,0.2916
17:40:29:577,2.0195,7.8748,8.3186,59.3185,0.4522,-0.2304,0.3242,0.2948
17:40:29:597,3.3787,8.1679,9.5282,59.2718,-0.0389,-0.4546,0.3667,0.2944
17:40:29:618,4.0654,7.5254,11.3181,59.5286,-0.5151,-0.5432,-0.188,0.2917
17:40:29:637,3.6096,5.7835,12.4164,59.9801,-0.2353,-0.3969,-0.534,0.2893
17:40:29:656,2.0997,3.5629,11.9186,60.2513,0.2286,-0.3572,-0.6168,0.2895
17:40:29:676,0.9045,1.7803,10.349,60.7347,0.5713,-0.2863,-0.4177,0.293
17:40:29:697,0.5456,1.2036,8.3498,61.4452,0.5835,-0.1553,-0.0997,0.2977
17:40:29:716,1.0421,1.9657,6.6736,61.7467,0.3245,-0.0823,0.0948,0.3011
17:40:29:737,1.8437,3.0832,6.0802,62.1696,-0.0011,0.0069,0.0786,0.3021
17:40:29:757,2.2265,3.9541,5.8696,62.6858,-0.2943,0.2256,-0.0582,0.2962
17:40:29:777,2.0578,4.6205,5.549,62.9913,-0.4995,0.3758,-0.2494,0.2907
17:40:29:796,1.0528,4.8838,5.1386,63.3386,-0.5841,0.2622,-0.4415,0.2857
17:40:29:817,0.7358,4.7677,5.5609,63.6732,-0.5524,-0.0191,-0.5402,0.2817
17:40:29:837,0.7478,4.9029,6.189,63.7984,-0.4824,-0.2417,-0.5356,0.2785
17:40:29:857,0.8925,5.2164,6.5145,63.7699,-0.4039,-0.2604,-0.5102,0.2758
17:40:29:877,0.9236,5.4879,6.8554,63.8048,-0.352,-0.1941,-0.5203,0.2733
17:40:29:897,0.6951,5.415,6.9954,64.1519,-0.3044,-0.0958,-0.5698,0.2711
17:40:29:917,0.189,5.1159,7.0014,64.3371,-0.1495,0.0658,-0.5686,0.2695
17:40:29:936,-0.2285,4.8335,6.6951,64.6773,-0.0759,0.13,-0.4381,0.2683
17:40:29:956,-0.4187,4.8491,6.2429,64.8362,-0.024,0.0918,-0.2702,0.2677
17:40:29:976,-0.2752,5.1087,6.067,65.0782,-0.0047,-0.024,-0.104,0.2677
17:40:29:996,0.1484,5.5872,6.3709,65.756,-0.0063,-0.1086,0.0191,0.268
17:40:30:018,0.5803,6.1699,6.853,66.2024,-0.0173,-0.1492,0.0454,0.2691
17:40:30:037,0.0634,6.8853,8.7793,66.879,-0.0032,-0.2286,-0.0628,0.2704
17:40:30:056,-1.0241,6.0969,9.9757,67.1674,0.108,-0.3929,-0.1895,0.2731
17:40:30:077,-1.5781,5.5358,10.331,67.5157,0.2796,-0.4171,-0.1651,0.2766
17:40:30:097,-1.3376,5.6148,10.0846,67.8595,0.3545,-0.2027,0.0261,0.2789
17:40:30:116,-0.3027,6.987,10.7151,68.4051,0.1544,0.1086,0.3496,0.2783
17:40:30:138,0.6162,8.2325,11.3862,68.5473,-0.2961,0.4534,0.4284,0.2753
17:40:30:158,0.8471,8.2098,12.2943,68.4598,-0.2164,0.1483,0.2863,0.2726
17:40:30:176,1.0301,7.1043,13.4895,68.7636,0.0322,0.0224,0.2482,0.2719
17:40:30:196,1.1988,6.1424,13.6068,68.909,0.2976,0.2515,0.3065,0.273
17:40:30:216,1.0445,5.3922,12.5504,68.91,0.5518,0.5744,0.4766,0.2755
17:40:30:236,0.7143,5.8433,10.7007,68.7317,0.7775,0.779,0.4656,0.2797
17:40:30:256,-0.1998,6.1484,8.4203,68.7477,0.8505,0.7912,0.312,0.2853
17:40:30:278,-1.1533,6.0347,6.0263,68.7372,0.6046,0.5231,0.1623,0.2936
17:40:30:298,-1.6319,5.5789,4.8993,68.7176,0.0973,0.1752,0.0732,0.2922
17:40:30:316,-1.2383,3.7854,6.4056,69.0946,-0.392,0.2008,-0.0053,0.2869
17:40:30:336,-1.3196,3.2722,6.8076,68.5398,-0.6523,0.4281,-0.0105,0.2798
17:40:30:356,-1.657,2.9886,6.5264,68.7586,-0.6455,0.5728,0.049,0.2733
17:40:30:376,-2.2074,2.7685,6.1591,68.8634,-0.505,0.48,0.1651,0.2689
17:40:30:397,-2.2995,2.7027,6.0299,69.2155,-0.3279,0.1565,0.3804,0.2667
17:40:30:418,-1.7719,2.9575,6.451,69.6273,-0.2048,-0.1856,0.6519,0.2661
17:40:30:436,-0.7992,3.5557,7.1749,69.4479,-0.0811,-0.3364,0.9827,0.2662
17:40:30:456,0.1675,4.2604,7.596,69.6792,-0.0124,-0.2445,0.9223,0.2668
17:40:30:476,0.8638,4.8598,7.9681,69.6593,0.0869,-0.0454,0.7262,0.2678
17:40:30:497,0.9739,5.1027,7.6152,70.2425,0.1358,0.1999,0.4891,0.269
17:40:30:517,0.4463,5.0441,6.7717,70.3641,0.1199,0.3233,0.3728,0.2697
17:40:30:547,0.1184,5.0955,6.055,70.7722,0.1,0.2488,0.3432,0.2708
17:40:30:557,0.0526,5.3958,5.7188,71.0436,0.0283,0.0829,0.3474,0.2712
17:40:30:576,0.5743,6.402,6.6413,71.1224,-0.079,-0.0872,0.3541,0.2712
17:40:30:596,1.1821,6.7753,8.2241,71.4912,-0.1703,-0.3578,0.3245,0.2716
17:40:30:617,1.7061,7.0193,10.611,71.5002,-0.188,-0.6364,0.225,0.2725
17:40:30:636,1.7013,7.2897,12.4439,71.8243,-0.0741,-0.6303,0.1025,0.2744
17:40:30:656,1.0696,7.4369,11.4903,72.0741,0.2256,-0.2851,-0.0316,0.2779
17:40:30:678,0.335,7.2215,10.6193,72.131,0.4348,-0.2616,-0.1394,0.2827
17:40:30:697,0.9452,6.8028,11.263,72.1491,0.1669,-0.5512,0.1254,0.2867
17:40:30:716,2.3737,7.0708,12.0993,72.0861,-0.0264,-0.1871,0.2143,0.2881
17:40:30:736,3.6275,7.5577,12.2249,71.9404,-0.0374,0.0322,0.0628,0.2876
17:40:30:756,4.1145,7.3125,11.8373,71.6176,0.1513,0.1309,-0.2448,0.2878
17:40:30:776,3.6311,6.4176,10.3705,71.7583,0.2815,0.0536,-0.5722,0.2894
17:40:30:798,2.6369,4.8311,9.0209,71.2707,0.2637,-0.1477,-0.7686,0.2919
17:40:30:817,1.7492,2.9779,8.3294,70.9641,0.1385,-0.2222,-0.7546,0.2941
17:40:30:836,1.2849,1.1964,7.7372,70.7689,-0.0231,-0.1819,-0.5673,0.2928
17:40:30:856,1.7755,1.9872,7.5494,70.4556,-0.1636,-0.0866,-0.268,0.2902
17:40:30:876,2.2612,3.2339,7.2766,69.9144,-0.2695,0.0258,-0.0619,0.2869
17:40:30:897,2.3856,4.1587,6.7896,69.5211,-0.301,0.1474,-0.0536,0.2837
17:40:30:917,2.0662,4.672,6.0766,69.184,-0.2662,0.2353,-0.1767,0.2811
17:40:30:938,1.3735,4.7055,5.415,68.6938,-0.2136,0.2124,-0.3798,0.2791
17:40:30:956,0.6018,4.3358,5.1517,68.2157,-0.184,0.0011,-0.5499,0.2777
17:40:30:976,0.2177,4.3083,5.2857,67.8427,-0.1782,-0.0038,-0.4907,0.2761
17:40:30:996,0.1567,4.5559,5.5597,67.3149,-0.1031,0.0166,-0.4443,0.2748
17:40:31:017,0.2213,4.8419,5.616,66.6112,0.0102,0.0554,-0.4504,0.2744
17:40:31:036,0.1507,5.1326,5.3827,66.3941,0.0606,0.0982,-0.4901,0.2747
17:40:31:058,-0.1041,5.2834,5.318,65.9167,0.0725,0.1394,-0.5017,0.2756
17:40:31:077,-0.3673,5.3922,5.1876,65.6073,0.0154,0.1602,-0.494,0.2751
17:40:31:097,-0.8949,5.2403,5.4999,65.1579,-0.1104,0.1028,-0.4088,0.2737
17:40:31:117,-0.4606,5.5274,6.8459,65.1559,-0.2616,-0.0768,-0.2091,0.2717
17:40:31:138,0.317,5.9821,8.8869,64.8082,-0.3102,-0.286,0.006,0.2703
17:40:31:157,1.0696,6.5504,10.8682,64.6187,-0.1749,-0.3639,0.1284,0.2708
17:40:31:177,0.9212,6.6377,11.9031,64.2867,0.1483,-0.2515,0.086,0.2742
17:40:31:199,-0.3015,6.2345,11.2905,63.9553,0.8334,0.2335,-0.0313,0.2803
17:40:31:217,-1.0995,6.0084,9.8345,63.6653,0.6049,0.3994,0.2387,0.2861
17:40:31:236,-0.7262,6.731,9.8441,62.9592,0.122,0.5169,0.5286,0.2883
17:40:31:256,0.1914,7.8209,11.519,62.4306,-0.0762,0.6092,0.6461,0.2871
17:40:31:277,1.0648,8.6118,12.8004,61.5713,0.093,0.4861,0.5878,0.286
17:40:31:297,1.7731,8.3342,13.0217,60.9015,0.3483,0.3392,0.4281,0.2875
17:40:31:318,1.6618,7.5553,12.6461,60.2903,0.4552,0.5328,0.3248,0.2904
17:40:31:338,0.9571,7.1139,11.3791,59.4753,0.5066,0.7698,0.2094,0.2929
17:40:31:357,-1.8676,5.9868,7.6427,58.569,0.633,0.7723,0.0741,0.2998
17:40:31:377,-3.0724,5.3671,5.9163,57.5456,0.6385,0.5881,-0.0023,0.3033
17:40:31:397,-3.472,4.4901,5.33,56.7091,0.3664,0.2717,0.024,0.3042
17:40:31:418,-3.0173,3.4624,6.3673,55.7962,-0.1333,-0.0478,0.1471,0.3014
17:40:31:437,-2.0578,2.7936,8.0028,54.9322,-0.5783,-0.1129,0.3196,0.2956
17:40:31:459,-1.1988,2.4526,8.8929,54.1572,-0.5909,0.4556,0.5463,0.2889
17:40:31:477,-0.6556,2.455,8.3438,52.8388,-0.374,0.7836,0.6351,0.2829
17:40:31:497,-0.4857,2.6812,6.8148,52.1471,-0.1709,0.7732,0.7362,0.2784
17:40:31:517,-0.3529,3.1406,5.3276,51.2753,-0.071,0.462,0.8389,0.2762
17:40:31:536,0.0407,3.74,4.6241,50.4874,-0.1269,0.0967,0.9033,0.2755
17:40:31:556,0.6664,4.3143,4.9795,49.6371,-0.2405,-0.1147,0.8975,0.2749
17:40:31:578,1.3496,4.8634,5.805,48.8304,-0.3093,-0.1376,0.7808,0.2724
17:40:31:598,1.4393,5.7009,6.8614,48.1828,-0.326,-0.0359,0.5533,0.2704
17:40:31:616,0.6054,5.6459,7.054,47.4049,-0.279,-0.0008,0.2925,0.269
17:40:31:636,-0.0885,5.482,7.0959,46.8976,-0.1975,-0.038,0.1382,0.268
17:40:31:657,-0.5372,5.3276,7.3472,46.3368,-0.1779,-0.0808,0.0961,0.267
17:40:31:677,-0.6461,5.2726,7.7683,45.7338,-0.1822,-0.0759,0.1407,0.2661
17:40:31:697,-0.6042,5.4724,8.0937,45.2462,-0.1034,-0.1089,0.2161,0.2665
17:40:31:718,-0.5767,5.878,8.2337,44.9149,0.1935,-0.3254,0.3157,0.2685
17:40:31:737,-0.1639,6.4152,8.4897,44.1419,0.2674,-0.6397,0.2876,0.2722
17:40:31:757,0.5874,6.9224,10.1623,43.3009,0.2998,-0.7472,0.2182,0.2772
17:40:31:777,1.1976,7.1474,11.9653,42.5633,0.3819,-0.2466,0.108,0.2818
17:40:31:796,1.0205,7.2443,11.5119,42.0454,0.5017,0.2372,0.006,0.2851
17:40:31:816,0.3482,7.2239,10.1779,41.2037,0.5896,0.1666,0.0435,0.2889
17:40:31:838,0.4068,7.0181,10.0176,40.2777,0.6416,0.0539,0.2082,0.2991
17:40:31:858,2.345,8.2146,9.7579,39.3381,0.4736,-0.1654,0.3566,0.3025
17:40:31:876,3.6909,8.4084,10.9364,37.8845,0.0741,-0.3538,0.3312,0.3035
17:40:31:896,4.4243,7.6977,12.3218,36.9155,-0.1822,-0.4323,0.0973,0.3035
17:40:31:917,3.9924,6.2764,12.4522,35.9398,-0.0689,-0.2882,-0.25,0.3048
17:40:31:937,2.2193,4.5272,10.3813,35.0073,0.3642,-0.0194,-0.608,0.3086
17:40:31:959,0.4451,3.143,7.5015,33.5202,0.7579,0.1544,-0.7857,0.3139
17:40:31:979,-0.6508,2.4826,5.3683,32.364,0.3838,-0.0735,-0.4446,0.318
17:40:31:999,-0.9129,2.2373,4.9795,31.1711,-0.0835,-0.1678,-0.126,0.319
17:40:32:018,-0.2692,2.7099,5.5442,30.0725,-0.3966,-0.1156,0.0869,0.3169
17:40:32:037,0.5216,3.6562,6.2034,29.422,-0.5029,0.0319,0.0655,0.3128
17:40:32:057,0.8542,4.2676,6.4271,28.648,-0.4467,0.177,-0.0875,0.3082
17:40:32:077,0.5252,4.3657,6.1615,27.8413,-0.3267,0.2818,-0.2396,0.3041
17:40:32:098,-0.6006,4.3059,4.8287,26.9936,-0.228,0.3016,-0.2741,0.2982
17:40:32:119,-0.6832,4.5392,4.483,26.4377,-0.2094,0.2531,-0.2301,0.2953
17:40:32:137,-0.3278,4.9567,4.812,25.9884,-0.3242,0.2286,-0.148,0.2915
17:40:32:158,0.2524,5.4461,5.5837,25.7391,-0.4305,0.2625,-0.071,0.2873
17:40:32:177,0.7011,5.9773,6.1819,25.113,-0.3935,0.3172,-0.0716,0.2838
17:40:32:197,1.054,6.4618,6.2249,24.7801,-0.2589,0.411,-0.1275,0.2811
17:40:32:218,0.8818,6.7573,5.8493,24.3409,-0.1507,0.5044,-0.2479,0.2787
17:40:32:238,0.4403,6.7059,5.7787,23.8945,-0.1672,0.4937,-0.3771,0.2758
17:40:32:257,0.0132,6.14,6.6664,23.4974,-0.3068,0.3673,-0.4586,0.272
17:40:32:276,-0.3206,5.6112,8.0315,22.9666,-0.3322,0.0625,-0.3422,0.2684
17:40:32:297,-0.664,5.2307,9.5198,22.487,-0.1156,-0.005,-0.224,0.2661
17:40:32:318,-1.121,4.9878,10.7916,21.9834,0.2127,0.1816,-0.0579,0.2659
17:40:32:337,-1.4812,5.1123,10.5954,21.4887,0.4925,0.4284,0.1113,0.2678
17:40:32:358,-1.9226,5.8002,9.2602,20.7041,0.4769,0.4174,0.2274,0.2728
17:40:32:378,-1.2371,6.5695,9.344,19.9969,0.1724,0.305,0.4146,0.2723
17:40:32:397,-0.3302,7.2455,10.7067,19.2573,-0.188,0.3422,0.5826,0.2693
17:40:32:416,0.9535,8.2217,12.1029,18.6183,-0.3395,0.3829,0.7149,0.2666
17:40:32:436,2.0183,8.7541,12.5575,18.2622,-0.1941,0.2931,0.6987,0.266
17:40:32:457,2.0399,8.2816,12.7454,17.7558,0.0078,0.1691,0.4571,0.2669
17:40:32:477,1.6307,7.6319,12.0969,17.3224,0.1727,0.2066,0.2216,0.2683
17:40:32:499,0.4869,6.9535,10.8598,16.8187,0.3169,0.3346,-0.0124,0.2703
17:40:32:518,-1.1043,5.878,9.2327,16.7411,0.4598,0.3816,-0.2479,0.273
17:40:32:553,-2.6273,5.1888,7.2814,16.5614,0.3658,0.2631,-0.2808,0.2752
17:40:32:558,-3.2806,4.7103,6.0048,16.5712,-0.0118,-0.1193,-0.1578,0.2762
17:40:32:577,-3.0233,4.0259,6.5623,16.4209,-0.4146,-0.36,-0.0741,0.2749
17:40:32:597,-2.5759,3.0975,8.1344,16.3944,-0.6403,-0.2173,0.0087,0.271
17:40:32:617,-2.3988,2.345,9.1645,16.5341,-0.6309,0.1141,0.1431,0.265
17:40:32:639,-2.5125,1.7946,9.4277,16.4711,-0.4079,0.4317,0.3975,0.2548
17:40:32:657,-2.0961,2.2397,6.9775,16.3709,-0.1394,0.5921,0.7311,0.2528
17:40:32:677,-1.3543,3.0879,5.726,16.3237,0.0279,0.5121,1.0282,0.2528
17:40:32:697,-0.4092,3.8716,5.2164,16.7175,0.0615,0.2787,1.224,0.254
17:40:32:719,0.6676,4.7079,5.4281,16.8547,0.013,0.0295,1.3102,0.2557
17:40:32:738,1.4704,5.4616,5.805,17.1826,-0.0267,-0.1022,1.2478,0.2576
17:40:32:757,1.6666,6.0263,5.7595,17.4533,-0.0096,-0.1251,0.6822,0.2594
17:40:32:776,1.2802,6.2632,5.5334,17.3782,-0.0945,-0.1761,0.3624,0.2608
17:40:32:796,0.6185,6.0203,5.5358,17.7867,-0.2564,-0.3056,0.1669,0.2611
17:40:32:816,0.1137,5.5944,6.3206,17.9427,-0.4131,-0.3792,0.1049,0.2603
17:40:32:837,0.0239,5.3456,7.6881,17.9977,-0.429,-0.2952,0.0979,0.2584
17:40:32:856,0.0479,5.4066,8.7003,17.967,-0.2897,-0.1779,0.0903,0.2564
17:40:32:877,-0.0467,5.6303,9.0413,18.0325,-0.0383,-0.2198,0.0848,0.2557
17:40:32:899,-0.0826,5.8768,8.8092,18.3186,0.1568,-0.4507,0.0851,0.2614
17:40:32:916,1.5015,6.7262,10.3932,18.401,0.224,-0.6486,0.1431,0.2657
17:40:32:937,1.8257,7.6104,10.4136,18.8402,0.268,-0.4268,0.064,0.269
17:40:32:956,1.1354,7.3579,10.0415,18.8695,0.2576,-0.228,-0.1834,0.2717
17:40:32:976,0.7035,6.7525,10.3442,19.1318,0.1907,-0.2891,-0.2793,0.2743
17:40:32:996,1.4907,6.9212,10.2485,19.3103,0.1575,-0.3422,-0.1016,0.2768
17:40:33:019,2.6489,7.401,10.4459,19.5598,-0.0747,-0.7252,0.0487,0.2793
17:40:33:037,3.7436,7.6834,11.3815,19.7452,-0.2201,-0.7115,-0.1526,0.2809
17:40:33:056,4.215,7.3651,12.0658,19.9301,-0.2747,-0.4736,-0.5481,0.2809
17:40:33:076,3.2674,5.9665,12.2213,20.2546,-0.1446,-0.2515,-0.8966,0.2799
17:40:33:096,1.6116,4.0522,11.4915,20.4232,0.1058,-0.0814,-1.0038,0.2796
17:40:33:117,0.2285,2.4706,9.8979,20.829,0.2546,-0.0118,-0.8801,0.2801
17:40:33:137,-0.6006,1.6104,8.1296,21.1157,0.2066,-0.162,-0.5527,0.2811
17:40:33:158,0.7513,2.5412,7.2347,21.7296,-0.0157,-0.3297,-0.2088,0.2809
17:40:33:177,1.6726,3.2183,7.8221,22.1985,-0.2863,-0.2937,-0.0646,0.278
17:40:33:196,1.8676,3.6072,7.6666,22.5791,-0.3819,-0.0246,-0.1229,0.2743
17:40:33:217,1.5003,3.8548,6.731,23.0256,-0.2992,0.2268,-0.2518,0.2711
17:40:33:237,0.8973,3.9709,5.5394,23.3707,-0.1749,0.341,-0.363,0.2687
17:40:33:256,0.5946,4.1659,4.7988,23.7582,-0.1272,0.2695,-0.3899,0.2669
17:40:33:278,0.6784,4.4865,4.7677,24.0532,-0.257,-0.1361,-0.3209,0.2652
17:40:33:298,0.9966,4.806,5.5286,24.2811,-0.3144,-0.2301,-0.316,0.2636
17:40:33:316,1.3507,4.9424,6.4857,24.5475,-0.2738,-0.1605,-0.3224,0.2617
17:40:33:336,1.736,5.1817,7.2514,24.6742,-0.1086,-0.0298,-0.3722,0.2604
17:40:33:356,2.1583,5.6913,7.4261,25.0323,0.0835,0.0961,-0.5066,0.2602
17:40:33:376,1.9238,6.0838,7.2156,25.2233,0.2103,0.2198,-0.6556,0.2611
17:40:33:396,1.0624,6.0407,6.3769,25.2043,0.2017,0.1202,-0.7146,0.2624
17:40:33:419,-0.0538,5.8983,6.5121,25.6622,0.1028,-0.0881,-0.597,0.2645
17:40:33:437,0.1292,6.1675,7.6235,26.1499,-0.0664,-0.2332,-0.4412,0.2642
17:40:33:459,0.1914,6.0191,9.5725,26.688,-0.188,-0.3337,-0.4,0.2637
17:40:33:476,-0.0299,5.8349,10.9029,26.7884,-0.0686,-0.276,-0.4186,0.2646
17:40:33:496,-0.451,5.9151,10.989,27.0583,0.2515,-0.0102,-0.4186,0.2673
17:40:33:516,-1.1198,5.744,9.9302,27.416,0.5844,0.2647,-0.4195,0.2718
17:40:33:538,-1.3735,5.7033,9.0939,27.7141,0.7216,0.3832,-0.3138,0.2761
17:40:33:557,-1.0169,6.3661,9.4983,28.4117,0.5759,0.4302,-0.0591,0.2785
17:40:33:576,-0.4905,7.8197,9.8321,28.606,0.2347,0.753,0.3025,0.2791
17:40:33:596,-0.0227,8.8427,9.679,28.8998,0.1229,0.5221,0.2573,0.2794
17:40:33:616,0.2656,8.8929,9.8237,29.3378,-0.0903,0.0783,0.1727,0.2794
17:40:33:636,0.6173,7.6355,11.1398,29.9899,-0.2118,-0.1101,0.1681,0.2786
17:40:33:656,0.9894,6.4032,12.8243,30.7124,0.1141,0.1669,0.1309,0.278
17:40:33:678,-0.5121,5.6794,9.259,31.186,0.7964,0.7662,-0.049,0.2856
17:40:33:697,-2.2122,5.269,5.61,31.7833,1.1767,1.0194,-0.3465,0.2917
17:40:33:716,-2.9934,4.9244,3.6802,32.0772,0.9351,0.7546,-0.4302,0.2951
17:40:33:738,-2.8965,4.4255,4.0905,32.6539,0.2213,0.221,-0.3627,0.2932
17:40:33:756,-2.1404,3.3153,6.5599,33.2988,-0.6153,-0.1923,-0.2411,0.2862
17:40:33:777,-1.2538,2.5448,9.2315,33.7562,-1.064,-0.2784,-0.042,0.2777
17:40:33:798,-0.664,2.2804,10.0642,34.1696,-0.3994,0.2335,0.3697,0.2715
17:40:33:817,-0.4152,2.6943,8.7003,34.2511,-0.0557,0.4378,0.5814,0.2685
17:40:33:836,-0.2752,3.5689,6.5527,34.6734,-0.0093,0.3074,0.7338,0.2675
17:40:33:856,0.0837,4.2808,5.3049,34.9418,-0.1129,-0.0273,0.8092,0.2674
17:40:33:876,0.5492,4.9137,5.2654,35.496,-0.1941,-0.29,0.7637,0.2677
17:40:33:896,0.9978,5.348,5.8947,35.7586,-0.1996,-0.3056,0.5948,0.2681
17:40:33:916,1.0504,5.6459,6.2333,35.952,-0.1715,-0.1599,0.3404,0.2682
17:40:33:938,0.4487,5.677,6.0203,36.1641,-0.1788,-0.0713,0.1177,0.2677
17:40:33:957,-0.9488,5.6136,6.146,36.3207,-0.2366,-0.0793,0.006,0.265
17:40:33:976,-1.4572,5.4664,6.7729,36.878,-0.3129,-0.1538,-0.0341,0.2631
17:40:33:997,-1.4991,5.2929,7.8544,37.1751,-0.3505,-0.2815,0.0292,0.2615
17:40:34:017,-1.0337,5.348,8.8846,37.5775,-0.2845,-0.349,0.1828,0.2611
17:40:34:037,-0.3637,5.7344,9.661,37.8041,-0.0872,-0.3642,0.3407,0.263
17:40:34:057,0.4439,6.3075,9.8345,38.0694,0.5377,-0.3218,0.4018,0.2677
17:40:34:077,0.7466,6.7406,9.4576,38.5678,0.6623,-0.2857,0.3694,0.2741
17:40:34:097,0.9308,7.1246,9.0413,39.1584,0.6132,-0.1938,0.3346,0.2807
17:40:34:116,0.9835,7.6164,8.5041,39.4122,0.4424,-0.1975,0.2149,0.2862
17:40:34:137,0.6784,7.8006,8.5735,39.3903,0.287,-0.345,0.1226,0.2904
17:40:34:156,0.9583,7.3184,9.1549,39.2453,0.1733,-0.4039,0.1465,0.294
17:40:34:176,1.8556,7.1486,9.07,39.0014,-0.0619,-0.5365,0.159,0.2963
17:40:34:198,3.5725,7.1952,11.0201,39.349,-0.2308,-0.7356,0.1568,0.2981
17:40:34:218,4.5045,7.2455,11.9366,39.4979,-0.2671,-0.9445,0.0912,0.2983
17:40:34:237,4.2772,6.3876,12.4774,39.6813,-0.3612,-0.6678,-0.17,0.2964
17:40:34:256,2.6895,4.7414,11.6626,39.5698,-0.3044,-0.159,-0.5279,0.2944
17:40:34:276,0.8889,3.2411,9.7005,39.8346,0.0203,0.1373,-0.7155,0.2947
17:40:34:297,-0.1555,2.3426,7.785,40.2008,0.3383,0.0896,-0.6581,0.2972
17:40:34:319,-0.0706,2.6381,6.6078,40.7558,0.4149,-0.1141,-0.3969,0.2999
17:40:34:339,0.8124,3.7496,6.2955,41.539,0.261,-0.2341,-0.1422,0.3013
17:40:34:356,1.4548,4.5511,6.3888,41.7453,-0.2014,0.0698,-0.3041,0.3004
17:40:34:377,1.3292,4.7007,6.2883,41.9146,-0.3141,0.3144,-0.5172,0.2973
17:40:34:396,0.6628,4.4028,5.951,42.147,-0.3059,0.411,-0.6223,0.2933
17:40:34:416,0.0144,4.124,5.5071,42.4229,-0.2332,0.3551,-0.607,0.2895
17:40:34:436,-0.2979,4.0654,5.123,42.7788,-0.1856,0.2509,-0.5215,0.2867
17:40:34:458,-0.3242,4.1611,4.9053,43.0069,-0.1804,0.1584,-0.4079,0.2823
17:40:34:477,0.1316,4.6959,5.0824,43.1099,-0.1975,0.1132,-0.29,0.2803
17:40:34:497,0.4391,5.1936,5.3324,43.0058,-0.1947,0.1226,-0.2161,0.2784
17:40:34:516,0.4032,5.6028,5.2929,43.1095,-0.1852,0.1666,-0.2219,0.2765
17:40:34:536,0.1137,5.7344,5.3324,43.1343,-0.206,0.159,-0.2518,0.2745
17:40:34:570,0.0443,5.6207,5.5346,43.1748,-0.2677,0.0683,-0.2353,0.2721
17:40:34:578,0.1472,5.5884,6.4654,43.0384,-0.3774,-0.1009,-0.1541,0.2694
17:40:34:597,0.7525,5.9163,8.2804,43.2098,-0.4534,-0.3425,0.0151,0.2674
17:40:34:616,1.6594,6.6317,10.2891,43.4507,0.0023,-0.6947,0.1052,0.268
17:40:34:636,2.0889,7.0505,11.7464,43.7406,0.3624,-0.4519,-0.0838,0.2713
17:40:34:656,1.5745,6.8806,11.7392,43.9322,0.6104,-0.1098,-0.2735,0.2762
17:40:34:676,0.2465,6.5372,11.0548,43.9867,0.724,0.1535,-0.2628,0.2817
17:40:34:697,-0.347,6.6174,10.1037,44.0578,0.6156,0.3511,-0.1397,0.2866
17:40:34:718,-0.3326,7.2215,9.5629,44.1402,0.3645,0.4946,-0.046,0.2904
17:40:34:738,-0.0215,7.6092,9.6598,44.3862,0.1694,0.4818,0.0667,0.2903
17:40:34:756,0.1687,7.6367,9.7783,44.4353,0.0496,0.3612,0.0982,0.2897
17:40:34:776,0.2345,7.3113,10.136,44.3307,-0.1031,0.2417,0.1092,0.2877
17:40:34:797,0.3135,6.8734,10.5715,44.3678,-0.2674,0.2207,0.148,0.2848
17:40:34:816,0.0993,6.6293,10.9831,44.5881,-0.2781,0.1544,0.1727,0.283
17:40:34:837,-0.5468,6.2859,10.6624,44.8007,-0.0441,0.0423,0.1177,0.2839
17:40:34:857,-1.5829,5.6219,8.9169,45.1178,0.2747,0.0738,0.005,0.2862
17:40:34:876,-2.4933,4.9005,6.9846,45.1118,0.1235,0.1611,-0.0704,0.2876
17:40:34:896,-2.7912,4.2748,6.2273,45.4313,-0.2506,0.0704,0.0041,0.2867
17:40:34:916,-2.5842,3.7328,6.518,45.3232,-0.5805,0.0469,0.0942,0.2828
17:40:34:936,-2.2732,3.125,7.407,45.4803,-0.7033,0.0499,0.2097,0.2767
17:40:34:956,-2.016,2.5137,8.4957,45.4298,-0.5463,0.1077,0.3877,0.2708
17:40:34:978,-1.1031,2.4347,8.0351,45.318,-0.2433,0.2647,0.6269,0.2646
17:40:34:997,-0.4929,3.1705,6.7549,45.1057,-0.002,0.3899,0.8563,0.2642
17:40:35:016,0.1842,3.8142,5.8851,45.0796,0.0927,0.3471,0.9904,0.2647
17:40:35:037,0.926,4.4387,5.6447,45.2227,0.0796,0.224,1.0383,0.2656
17:40:35:057,1.523,5.1829,5.592,44.7694,0.0551,0.1352,0.9748,0.2666
17:40:35:076,1.59,5.7476,5.3013,44.9564,0.0344,0.1345,0.7772,0.2672
17:40:35:096,1.1964,6.1328,5.0788,44.9137,-0.0441,0.1281,0.5267,0.267
17:40:35:119,0.6903,6.0299,5.6626,44.6886,-0.1859,-0.0356,0.2903,0.2662
17:40:35:137,0.3553,5.7165,6.8818,44.8141,-0.327,-0.3493,0.111,0.2651
17:40:35:156,0.2859,5.6985,8.0183,44.795,-0.2619,-0.3743,0.1177,0.2642
17:40:35:176,0.3326,5.8062,9.0162,44.9975,-0.1095,-0.3248,0.1281,0.2639
17:40:35:197,0.317,6.0239,9.7531,44.8019,0.1391,-0.2488,0.1232,0.265
17:40:35:216,0.2273,6.2572,9.6766,45.2678,0.4076,-0.3147,0.0994,0.2682
17:40:35:238,0.1376,6.2776,9.3559,45.2522,0.5539,-0.4846,0.129,0.2737
17:40:35:258,0.4199,6.5312,9.6263,45.216,0.5786,-0.4103,0.1361,0.2857
17:40:35:276,0.5384,6.8865,9.0544,44.9712,0.4775,-0.2815,0.0502,0.29
17:40:35:296,0.2536,6.4128,9.8261,44.7245,0.3248,-0.3758,0.0075,0.2939
17:40:35:316,1.0481,6.7717,9.9482,44.9424,0.2698,-0.4317,0.206,0.2973
17:40:35:338,2.6704,8.1045,10.1157,44.7505,0.1587,-0.4788,0.4549,0.2998
17:40:35:356,4.3047,8.9109,11.7655,44.8861,-0.0817,-0.7533,0.4754,0.3015
17:40:35:378,5.0237,8.2277,13.1641,44.6444,-0.2268,-0.7866,0.2014,0.302
17:40:35:396,4.1946,7.0014,12.944,44.6947,0.1202,0.1217,-0.5069,0.3017
17:40:35:416,2.2241,5.2953,11.0991,44.7156,0.5185,0.2072,-0.7106,0.3033
17:40:35:441,0.3266,3.3236,8.8116,45.2682,0.7616,0.0619,-0.6388,0.3076
17:40:35:457,-0.7442,2.0698,6.9428,45.5009,0.7139,-0.1266,-0.3303,0.3133
17:40:35:478,-0.7358,1.6606,5.9605,45.2441,0.4406,-0.2112,0.0389,0.318
17:40:35:498,1.3292,3.0389,6.4164,45.1763,0.119,-0.1104,0.2515,0.3199
17:40:35:518,1.8951,3.5533,6.4487,45.0928,-0.0628,0.1455,0.2417,0.3181
17:40:35:537,1.8568,3.9601,5.8289,45.1789,-0.0707,0.4262,0.1153,0.3159
17:40:35:556,1.529,4.337,4.8586,45.1779,-0.0102,0.6208,-0.0261,0.3139
17:40:35:577,1.0911,4.5823,4.0475,44.6197,0.0292,0.6568,-0.1532,0.3122
17:40:35:597,0.8566,4.9352,3.5856,44.0994,-0.0063,0.5618,-0.2234,0.3104
17:40:35:617,0.7633,5.3264,3.5653,43.981,-0.1199,0.4174,-0.2714,0.308
17:40:35:638,0.8865,5.7356,4.0499,43.8916,-0.4815,0.1767,-0.3074,0.3044
17:40:35:656,1.1521,6.0467,5.0907,43.4696,-0.5869,0.2112,-0.3688,0.2997
17:40:35:676,1.1402,6.2429,5.9282,43.4243,-0.5936,0.2326,-0.4614,0.2942
17:40:35:696,0.8231,6.0885,6.4475,43.1811,-0.5521,0.2106,-0.4992,0.2889
17:40:35:716,0.5827,5.6877,6.7801,43.2095,-0.5038,0.1358,-0.4571,0.284
17:40:35:736,0.3864,5.2798,7.2371,43.7937,-0.4391,0.0228,-0.3257,0.2797
17:40:35:758,0.4116,5.0836,7.8927,44.283,-0.3343,-0.0851,-0.1428,0.2746
17:40:35:777,0.7119,5.2869,8.6118,44.4856,-0.1892,-0.1672,-0.0118,0.2741
17:40:35:796,0.6975,6.0574,9.7627,44.8212,-0.0053,-0.0848,0.0166,0.2749
17:40:35:817,0.4355,6.5779,8.8941,45.3217,0.1941,0.1254,0.02,0.2764
17:40:35:837,0.0933,6.9906,8.5364,45.3203,0.2589,0.1376,-0.0399,0.2781
17:40:35:856,-0.1639,6.7765,9.4732,45.3169,0.1345,0.0264,-0.1385,0.2785
17:40:35:876,-0.1771,6.5611,10.6062,45.2245,-0.013,0.1141,-0.1458,0.2773
17:40:35:898,-0.4044,7.0229,10.9687,45.0297,-0.0496,0.4504,-0.06,0.2753
17:40:35:916,-0.2273,8.1105,10.6648,44.6832,0.1257,0.4717,0.122,0.2743
17:40:35:936,0.2644,8.8104,10.593,44.4282,0.0313,0.082,0.0148,0.2746
17:40:35:957,0.6664,8.3103,11.6028,44.1993,-0.1394,-0.1834,-0.0863,0.2746
17:40:35:976,0.9559,6.8961,13.1593,44.3041,-0.0163,-0.2726,-0.1639,0.2742
17:40:35:996,0.749,5.1003,13.7886,44.2307,0.5316,-0.1147,-0.1675,0.2763
17:40:36:019,-0.3613,3.9757,12.5348,44.2291,1.1339,0.3557,-0.031,0.2906
17:40:36:038,-2.7924,4.2784,5.7631,44.0257,1.3202,0.5307,0.0826,0.2988
17:40:36:056,-2.7936,4.0594,4.8132,44.0662,0.9439,0.1816,0.2366,0.3043
17:40:36:076,-1.6008,3.8225,5.854,44.2701,0.3199,-0.1584,0.4818,0.3056
17:40:36:097,-0.3362,3.7603,7.2754,43.8564,-0.1636,-0.1773,0.6416,0.3042
17:40:36:116,0.615,3.7029,7.8832,43.859,-0.2903,-0.0258,0.6526,0.302
17:40:36:136,1.1785,3.7567,7.2802,43.6873,-0.1923,0.2271,0.5896,0.2997
17:40:36:158,1.2945,4.0953,5.8983,43.5648,-0.1358,0.5545,0.5166,0.2965
17:40:36:177,1.2455,4.5966,4.7426,43.7093,-0.327,0.5704,0.4134,0.2927
17:40:36:196,1.2754,5.0668,4.2185,43.4309,-0.4714,0.213,0.3706,0.2887
17:40:36:216,1.4297,5.4832,4.8072,43.4284,-0.5334,-0.1639,0.2961,0.2853
17:40:36:236,1.6702,5.5525,6.0814,43.1419,-0.4549,-0.3282,0.1758,0.2828
17:40:36:256,1.6857,5.6566,7.1533,43.49,-0.2644,-0.2735,0.0154,0.2814
17:40:36:278,0.6616,5.8528,6.8734,43.5082,-0.1138,-0.2133,-0.1455,0.2809
17:40:36:298,0.1663,5.6937,6.7358,43.5449,-0.0942,-0.1825,-0.2582,0.2804
17:40:36:316,-0.3709,5.5238,7.1462,43.3179,-0.1984,-0.1345,-0.3059,0.2786
17:40:36:336,-0.7741,5.3456,7.9286,42.9018,-0.2931,-0.1074,-0.2653,0.2765
17:40:36:357,-1.139,5.342,8.284,43.1998,-0.2072,-0.1028,-0.1654,0.276
17:40:36:376,-1.2921,5.5693,8.3474,42.976,0.0197,-0.225,-0.0053,0.2782
17:40:36:397,-1.1677,5.8026,8.741,42.9875,0.239,-0.513,0.184,0.2832
17:40:36:418,-0.079,5.7703,10.4734,42.7595,0.5313,-1.1241,0.6031,0.2908
17:40:36:437,1.675,6.7597,12.1543,42.4698,0.816,-0.6464,0.5796,0.2993
17:40:36:456,2.1751,7.8497,11.0572,42.0844,0.9565,-0.2472,0.3453,0.3081
17:40:36:477,1.5852,8.0172,9.527,42.0849,0.7903,-0.0289,0.3206,0.316
17:40:36:496,1.7539,8.0698,8.2289,41.6983,0.4003,0.0166,0.4476,0.3213
17:40:36:516,2.7721,8.5831,7.7444,41.2284,-0.0948,-0.2647,0.5053,0.3235
17:40:36:539,5.659,8.6919,10.5835,41.064,-0.4611,-0.4998,0.363,0.3214
17:40:36:558,5.6183,7.6594,11.0381,40.4573,-0.524,-0.3978,-0.0157,0.3189
17:40:36:578,4.13,6.0179,10.3705,39.9121,-0.359,-0.1935,-0.5139,0.3175
17:40:36:596,2.473,4.0798,9.4074,39.428,-0.0918,-0.2219,-0.8578,0.3182
17:40:36:616,1.1139,2.6201,8.3246,39.3035,0.1639,-0.3346,-0.9672,0.3206
17:40:36:636,0.5204,1.7707,7.785,38.7453,0.2827,-0.5194,-0.8679,0.3237
17:40:36:657,1.0349,1.785,7.6092,38.6236,0.2246,-0.5774,-0.5802,0.3254
17:40:36:678,1.8879,2.869,7.5972,38.5605,-0.1602,0.0628,-0.2503,0.3243
17:40:36:697,2.193,3.7388,7.2048,38.1473,-0.2023,0.4259,-0.4,0.3213
17:40:36:716,1.7336,4.1551,6.2692,38.3847,-0.1584,0.5906,-0.5414,0.3177
17:40:36:736,1.1091,4.331,5.1051,38.1675,-0.1483,0.5521,-0.6428,0.3144
17:40:36:757,0.5432,4.4853,4.1264,38.0111,-0.2543,0.3667,-0.6675,0.3111
17:40:36:776,0.1472,4.5858,3.9003,37.7796,-0.3832,0.1217,-0.5777,0.3077
17:40:36:798,0.6772,5.2893,5.2451,37.6746,-0.4565,-0.0857,-0.4855,0.3007
17:40:36:819,0.9966,5.7835,6.2237,37.5051,-0.4354,-0.2045,-0.4412,0.2982
17:40:36:836,1.133,6.0945,6.8004,36.844,-0.3169,-0.2219,-0.4659,0.2967
17:40:36:857,0.9117,6.2417,6.5264,36.6045,-0.1715,-0.0951,-0.5325,0.2957
17:40:36:876,0.4953,6.2357,6.0909,36.0403,-0.1177,0.0295,-0.5902,0.2943
17:40:36:896,0.2297,6.2501,6.2656,35.7066,-0.2014,0.0609,-0.5866,0.2918
17:40:36:916,0.1519,5.9797,6.9906,35.332,-0.3694,0.079,-0.5472,0.2877
17:40:36:939,0.1699,5.9593,7.9789,35.0043,-0.4623,0.2964,-0.2451,0.2826
17:40:36:957,0.5372,6.2824,8.8367,34.4774,-0.1361,0.2772,-0.1565,0.2791
17:40:36:976,0.5587,6.7753,8.9611,34.273,0.286,0.1978,-0.2152,0.2791
17:40:36:996,-0.0694,7.0253,8.2816,34.2492,0.5548,0.1187,-0.3181,0.2826
17:40:37:016,-1.1605,7.0134,7.5494,33.8094,0.5258,0.0576,-0.3184,0.2873
17:40:37:037,-1.9645,6.9835,7.3005,33.5012,0.188,0.0173,-0.1465,0.2906
17:40:37:059,-0.932,7.0122,10.5296,33.4046,-0.29,0.038,0.0319,0.2865
17:40:37:078,-0.3206,7.0851,12.4929,33.18,-0.4769,0.2405,0.177,0.2825
17:40:37:096,0.3541,7.663,12.2548,33.1418,-0.1804,0.44,0.3248,0.2814
17:40:37:117,0.3829,7.7635,11.1924,33.2715,0.1434,0.4204,0.3487,0.2822
17:40:37:136,0.5468,7.0493,11.4796,33.2445,0.1126,0.1807,0.3819,0.2826
17:40:37:156,1.1378,6.6018,12.0861,33.0623,-0.0338,0.1016,0.5334,0.2823
17:40:37:176,1.34,6.9177,12.0132,33.0052,0.0362,0.2271,0.6327,0.283
17:40:37:198,0.5994,7.2706,10.4447,33.1953,0.6996,0.7946,0.2167,0.2857
17:40:37:217,-1.0983,6.6927,7.7898,33.1155,0.8086,0.87,-0.0237,0.29
17:40:37:236,-2.7458,6.0168,5.1781,33.2965,0.549,0.6391,-0.1202,0.2938
17:40:37:256,-3.6514,5.336,3.9434,33.0844,0.0582,0.2411,-0.1251,0.2953
17:40:37:276,-3.8094,4.4183,4.4124,33.0438,-0.4577,-0.02,-0.0255,0.2935
17:40:37:296,-3.3404,3.5928,5.9605,33.0352,-0.7555,-0.075,0.1263,0.2883
17:40:37:316,-2.4897,3.1083,7.6475,32.9954,-0.7191,-0.0075,0.2347,0.2818
17:40:37:339,-1.8018,2.8259,8.5771,33.4544,-0.4607,0.2256,0.3291,0.2721
17:40:37:356,-1.4895,2.7805,6.5982,33.1396,-0.2317,0.5414,0.4528,0.2686
17:40:37:377,-1.1916,3.2782,5.068,33.3765,-0.1626,0.6965,0.63,0.2655
17:40:37:397,-0.7358,3.9063,4.3837,33.4699,-0.2298,0.5322,0.79,0.2628
17:40:37:416,-0.0754,4.459,4.8778,33.6009,-0.3768,0.1489,0.8847,0.2603
17:40:37:436,0.5647,4.7629,5.9701,33.9928,-0.5176,-0.1245,0.889,0.2574
17:40:37:458,0.9224,5.0465,6.8255,34.1142,-0.5551,-0.1217,0.8019,0.2543
17:40:37:477,0.8746,5.3779,7.084,34.4451,-0.2891,-0.0221,0.4501,0.252
17:40:37:496,0.4152,5.4485,6.7537,34.4913,-0.2222,-0.1403,0.3224,0.2509
17:40:37:516,0.0574,5.3515,6.7274,34.9472,-0.2894,-0.2537,0.2821,0.2502
17:40:37:536,0.0395,5.0836,7.4919,35.149,-0.3089,-0.2763,0.3031,0.249
17:40:37:557,0.2154,5.056,8.211,35.4807,-0.2063,-0.2527,0.3135,0.2481
17:40:37:576,0.2142,5.251,8.3103,35.701,-0.0722,-0.3856,0.3221,0.2483
17:40:37:598,0.2967,5.4305,8.5591,35.8411,0.017,-0.5991,0.348,0.2531
17:40:37:617,0.6078,5.7787,9.4409,36.1958,0.0609,-0.6177,0.3664,0.256
17:40:37:636,1.1809,7.6056,10.4267,36.3961,0.0264,-0.6132,0.2821,0.2581
17:40:37:656,1.736,7.8078,12.1496,36.7296,-0.1776,-0.7332,0.1868,0.2589
17:40:37:676,2.7003,7.7037,13.7097,37.075,-0.3337,-0.695,0.1471,0.2584
17:40:37:696,3.8369,8.3354,14.4084,37.3688,-0.312,-0.4522,0.1779,0.2574
17:40:37:717,4.5141,8.9551,13.9286,37.6336,-0.0826,0.0976,-0.1327,0.2564
17:40:37:739,4.4267,8.9695,12.798,37.8484,0.0191,-0.0435,-0.5389,0.2561
17:40:37:756,3.5844,7.7934,12.0885,38.0767,0.177,-0.3994,-1.034,0.2578
17:40:37:776,2.1631,4.9974,11.9342,38.055,0.3969,-0.4983,-1.3092,0.2616
17:40:37:796,0.8782,2.1942,11.135,38.3618,0.5805,-0.275,-1.2891,0.2661
17:40:37:816,-0.317,0.396,9.8357,38.3541,0.6587,0.0759,-0.9879,0.2702
17:40:37:836,-0.9894,-0.195,8.1476,38.3527,0.5991,0.2488,-0.5328,0.2734
17:40:37:858,-0.8243,0.3541,6.6724,38.5702,0.4143,0.199,-0.155,0.2769
17:40:37:877,0.7501,2.3653,6.0012,38.6561,0.1999,0.1071,0.0295,0.277
17:40:37:896,1.273,3.1262,5.8995,38.8897,0.0417,0.1907,0.0472,0.2758
17:40:37:917,1.1952,3.5761,5.5262,38.8895,-0.0243,0.3529,-0.0603,0.2744
17:40:37:936,0.9392,3.7328,4.9567,38.8475,0.0286,0.3636,-0.1901,0.274
17:40:37:957,0.7178,3.9206,4.2808,39.0606,0.1226,0.2445,-0.2582,0.2744
17:40:37:978,0.7322,4.2855,3.7902,39.2759,-0.0374,0.1474,-0.2204,0.2744
17:40:37:997,0.9224,4.8084,3.7172,39.4722,-0.206,0.1474,-0.2106,0.2732
17:40:38:017,1.2479,5.5059,4.0391,39.4563,-0.3609,0.1309,-0.2827,0.2707
17:40:38:036,1.5051,6.1555,4.6528,39.6285,-0.4742,0.0686,-0.4485,0.2672
17:40:38:057,1.4752,6.5145,5.4927,39.9409,-0.531,0.027,-0.6431,0.2632
17:40:38:076,1.1174,6.347,6.4606,40.2527,-0.5252,0.0451,-0.7543,0.2587
