Time,Acc_X,Acc_Y,Acc_Z,Meg,Gyr_X,Gyr_Y,Gyr_Z,Ore
17:22:58:564,2.9001,6.0227,7.0684,31.5577,0.5234,-0.1941,-0.0651,0.3282
17:22:58:582,2.4694,6.1783,5.7356,31.4789,0.0695,0.1003,-0.2086,0.3505
17:22:58:601,1.9131,5.811,5.8158,31.7957,-0.173,0.1281,-0.3451,0.3545
17:22:58:621,1.3292,5.2881,6.0957,31.9847,-0.1944,0.0142,-0.4322,0.3466
17:22:58:640,0.8578,5.0309,6.469,31.9445,-0.192,-0.0991,-0.4881,0.3343
17:22:58:660,0.4175,4.739,6.7178,32.2224,-0.2442,-0.0799,-0.4954,0.3196
17:22:58:680,0.0096,4.7904,6.6568,32.3749,-0.3056,-0.0991,-0.4297,0.3065
17:22:58:701,-0.0048,5.1721,6.7035,32.8382,-0.3612,-0.202,-0.3571,0.2979
17:22:58:720,0.1926,5.4449,7.2778,32.9813,-0.4049,-0.2943,-0.2841,0.2913
17:22:58:743,0.6796,5.7153,8.2313,33.09,-0.3624,-0.2558,-0.2043,0.2857
17:22:58:760,1.3496,6.4714,9.2818,32.8404,-0.0591,-0.0057,-0.2138,0.2821
17:22:58:780,1.3771,6.6042,9.1238,32.7043,0.1449,0.0628,-0.3051,0.2799
17:22:58:801,1.0098,6.5563,8.5232,32.9528,0.2879,0.1037,-0.4105,0.2796
17:22:58:820,0.3793,6.3781,7.9466,32.9132,0.3303,0.1235,-0.4853,0.2803
17:22:58:840,-0.2213,6.1484,7.6439,33.0021,0.3493,0.1235,-0.5104,0.2807
17:22:58:862,-0.5767,6.0287,7.4584,32.8783,0.3328,0.1064,-0.4979,0.2792
17:22:58:882,-0.8112,6.0431,7.3555,33.0045,0.2338,0.0899,-0.4661,0.2773
17:22:58:902,-1.0026,6.1567,7.7133,33.0824,0.0686,0.0496,-0.3891,0.2743
17:22:58:921,-0.7298,6.4092,8.4491,33.4138,-0.0793,0.0414,-0.3009,0.2706
17:22:58:942,-0.3697,6.7513,9.0927,33.6857,-0.1553,-0.0011,-0.2758,0.2676
17:22:58:962,-0.1125,6.9811,9.8034,33.6237,-0.2039,-0.1465,-0.339,0.2658
17:22:58:982,-0.2309,6.5671,10.9292,33.5143,-0.1987,-0.3383,-0.438,0.2639
17:22:59:003,-0.5827,5.7583,12.6221,33.4076,0.3038,-0.1914,-0.1692,0.2607
17:22:59:029,-0.6556,5.2056,12.463,33.29,0.5472,0.1199,0.183,0.2569
17:22:59:040,-0.0598,5.8552,10.3729,33.2004,0.6767,0.1862,0.4511,0.2543
17:22:59:062,0.5827,6.8542,8.3916,33.58,0.6205,-0.0423,0.4123,0.2561
17:22:59:081,0.6233,7.078,7.7874,33.675,0.4458,-0.2381,0.1316,0.2616
17:22:59:100,-0.122,6.1627,8.0172,33.2524,0.4128,-0.1553,-0.208,0.2674
17:22:59:121,-1.3831,4.7844,8.0231,33.2305,0.6452,0.0762,-0.401,0.2724
17:22:59:141,-2.4658,3.9063,6.7155,33.2552,0.9241,0.2027,-0.4468,0.2728
17:22:59:161,-3.2243,3.6981,4.8443,33.1335,0.8923,0.1055,-0.4267,0.2731
17:22:59:181,-3.5246,3.7938,3.801,33.1799,0.4803,-0.0481,-0.3381,0.271
17:22:59:201,-3.2495,3.9063,4.0128,33.2241,-0.2008,-0.0741,-0.1924,0.264
17:22:59:221,-2.4179,3.9769,5.5346,33.206,-0.8703,0.1846,-0.0205,0.252
17:22:59:241,-1.4142,3.9984,7.3771,33.0957,-1.1403,0.4962,0.1359,0.2391
17:22:59:264,-0.5336,5.0943,8.1165,33.5056,-0.3138,0.2289,0.2059,0.2308
17:22:59:280,-0.5157,5.1039,7.2861,33.8497,0.0799,-0.0774,0.1701,0.2289
17:22:59:301,-0.8136,4.9747,6.4702,33.7664,0.1174,-0.1489,0.1726,0.2306
17:22:59:321,-1.3244,4.8048,6.0921,33.9191,-0.0832,-0.0829,0.2355,0.2317
17:22:59:341,-1.6786,4.7474,6.4283,33.7733,-0.2634,0.0108,0.3219,0.2308
17:22:59:360,-1.7288,4.7605,6.9906,33.7219,-0.2662,0.0261,0.3674,0.2286
17:22:59:382,-1.7946,4.8993,7.1856,33.5267,-0.13,-0.0451,0.3748,0.2264
17:22:59:402,-1.7121,5.129,6.8088,33.4132,-0.0166,-0.1758,0.3476,0.2272
17:22:59:433,-1.5278,5.4138,6.5204,33.5445,-0.093,-0.2329,0.329,0.2272
17:22:59:442,-1.2359,5.6387,6.7884,32.7261,-0.2793,-0.1428,0.314,0.2258
17:22:59:461,-0.9165,5.9318,7.3902,32.3691,-0.3859,-0.0686,0.2889,0.2242
17:22:59:480,-0.5958,6.3135,8.1787,31.582,-0.3374,-0.0973,0.2422,0.2237
17:22:59:501,-0.3326,6.4822,8.7517,31.6877,-0.1642,-0.1486,0.1616,0.2246
17:22:59:523,-0.329,6.4666,8.9611,31.9642,0.0988,-0.122,0.0773,0.2262
17:22:59:541,-0.5599,6.3673,9.1023,32.1116,0.1361,-0.0683,0.0916,0.2275
17:22:59:560,-0.6437,6.3434,9.0293,32.2413,0.166,-0.1587,0.073,0.2289
17:22:59:580,-1.078,6.2967,9.5809,31.8818,0.2656,-0.3859,0.1594,0.2317
17:22:59:601,-0.5444,6.53,10.2855,32.1846,0.4033,-0.5295,0.3427,0.2364
17:22:59:621,0.7729,6.9404,10.6373,32.7981,0.4128,-0.516,0.4325,0.2421
17:22:59:642,2.1105,7.1653,11.0848,33.7917,0.2118,-0.3114,0.4126,0.2472
17:22:59:662,3.2925,7.2802,11.3886,34.0637,-0.0224,-0.0108,0.2053,0.2493
17:22:59:681,3.4122,7.1031,11.257,34.0016,-0.0609,0.0524,-0.1808,0.2499
17:22:59:701,2.5914,6.0909,10.6863,33.9722,0.0686,-0.2784,-0.5229,0.2531
17:22:59:721,1.9214,4.325,10.8419,34.2125,0.2802,-0.6379,-0.6096,0.2577
17:22:59:741,1.7515,2.7685,10.9053,34.4568,0.5154,-0.6348,-0.4847,0.2623
17:22:59:762,2.0279,2.2708,10.0881,34.88,0.7234,-0.3868,-0.2117,0.2665
17:22:59:783,3.9769,3.9553,6.6903,34.9645,0.5197,0.0964,0.0736,0.2701
17:22:59:802,4.6959,5.1302,5.3085,34.8133,0.1199,0.1684,-0.1713,0.272
17:22:59:823,3.8297,5.8923,5.1027,34.664,-0.2894,-0.0246,-0.595,0.2721
17:22:59:841,2.2062,5.7631,6.2453,34.7616,-0.498,-0.305,-0.8741,0.2713
17:22:59:862,0.9858,5.0237,7.614,34.7376,-0.4977,-0.399,-0.9502,0.2698
17:22:59:880,0.0873,4.5966,8.3007,34.4004,-0.4302,-0.3526,-0.8699,0.2673
17:22:59:902,-0.3805,4.5631,8.6285,34.4762,-0.3108,-0.2747,-0.7364,0.262
17:22:59:922,-0.2596,4.794,8.5436,34.5713,-0.1501,-0.2763,-0.6109,0.2611
17:22:59:941,0.0395,5.3767,8.6692,34.4094,0.0111,-0.2469,-0.5553,0.2611
17:22:59:960,0.3194,5.7846,8.3222,33.9093,0.1556,-0.0487,-0.5733,0.2611
17:22:59:981,0.2704,5.8732,7.3735,33.3206,0.2769,0.1742,-0.6096,0.2617
17:23:00:000,-0.1831,5.939,6.1639,31.6396,0.4165,0.1394,-0.6823,0.2642
17:23:00:020,-0.883,5.6674,5.2666,30.7616,0.4699,-0.1333,-0.7178,0.2681
17:23:00:041,-1.3232,5.1374,5.2415,29.8122,0.2601,-0.2561,-0.5409,0.2713
17:23:00:061,-1.2144,4.9125,5.9545,27.9003,0.0875,0.0402,-0.3818,0.272
17:23:00:080,-0.8806,5.3874,5.5454,26.0113,-0.0615,0.2085,-0.3057,0.2704
17:23:00:100,-0.9356,5.6818,5.3695,25.2941,-0.2023,0.0414,-0.2761,0.2682
17:23:00:119,-0.8076,5.5789,6.7418,24.6541,-0.2509,-0.2543,-0.1704,0.267
17:23:00:140,0.0802,5.6387,8.6668,23.8685,-0.1547,-0.3068,-0.0846,0.2668
17:23:00:161,0.9296,6.0754,9.7962,25.4399,0.0625,-0.1403,-0.1561,0.2678
17:23:00:180,0.8148,6.3817,9.411,26.076,0.2613,0.0466,-0.2648,0.2689
17:23:00:200,0.4654,6.4714,8.1631,26.9954,0.2897,0.0851,-0.2413,0.2702
17:23:00:220,0.3601,7.2503,7.8078,28.6372,0.1907,0.0567,-0.1567,0.2712
17:23:00:241,0.548,8.1248,7.9011,30.0405,0.1437,0.1019,-0.1698,0.2724
17:23:00:260,0.3314,8.8283,7.5613,30.7765,0.1999,0.0081,-0.3128,0.2749
17:23:00:281,-0.2608,8.985,7.4405,31.6387,0.2424,-0.1321,-0.54,0.277
17:23:00:303,-1.1641,8.3031,7.7013,32.9237,-0.2723,0.0118,-0.7282,0.2758
17:23:00:321,-2.741,6.2668,10.2114,32.9507,-0.4782,0.1852,-0.6041,0.271
17:23:00:341,-3.2483,5.5513,11.342,33.3491,-0.3829,0.2921,-0.325,0.2645
17:23:00:360,-3.0879,5.3958,11.3946,33.6538,0.0115,0.2778,0.0116,0.2597
17:23:00:381,-2.3928,5.8146,10.4363,34.0049,0.4064,0.25,0.2056,0.2586
17:23:00:401,-2.2026,5.7799,8.9468,34.3473,0.6287,0.1984,0.2169,0.2607
17:23:00:421,-2.5807,5.1829,7.675,34.4197,0.6571,0.1642,0.2153,0.2644
17:23:00:443,-2.8618,4.3944,6.481,35.017,0.5521,0.0533,0.2608,0.2715
17:23:00:461,-2.6836,3.8584,6.2477,35.482,0.3664,-0.1385,0.3748,0.2742
17:23:00:481,-1.8042,3.734,7.017,35.7161,0.2066,-0.1013,0.5079,0.2754
17:23:00:501,-0.987,4.0822,7.2945,35.6845,0.0811,0.0759,0.5818,0.2752
17:23:00:522,-0.5898,4.727,7.2299,35.6268,-0.0402,0.1843,0.5705,0.274
17:23:00:556,-0.3135,5.08,7.066,35.7852,-0.1452,0.2439,0.5489,0.2723
17:23:00:562,-0.1938,5.3886,6.9332,36.0715,-0.1779,0.2805,0.5177,0.2706
17:23:00:581,-0.3529,6.3589,5.7344,36.2008,-0.1504,0.2396,0.4646,0.2698
17:23:00:601,-0.7729,6.5061,5.8744,36.0122,-0.2866,-0.0753,0.274,0.2693
17:23:00:623,-1.2251,6.0957,6.9894,36.0574,-0.3703,-0.1043,0.2456,0.2683
17:23:00:640,-1.5254,5.6937,7.998,36.0272,-0.3209,-0.0035,0.2844,0.2665
17:23:00:661,-1.5422,5.543,8.1117,36.1818,-0.1791,0.1663,0.3311,0.2645
17:23:00:681,-1.675,5.5825,7.4261,36.587,-0.0179,0.2775,0.3595,0.2627
17:23:00:702,-1.8999,5.7715,6.5252,36.6209,0.1196,0.2421,0.3616,0.2625
17:23:00:722,-2.0578,5.9402,5.7954,36.5788,0.1495,0.1315,0.3461,0.2635
17:23:00:741,-2.1954,6.0335,5.7272,36.5085,0.0564,0.0392,0.3311,0.2639
17:23:00:761,-2.1787,5.9234,6.3326,36.9777,-0.0942,0.009,0.3439,0.2644
17:23:00:781,-2.0339,5.8074,7.4584,37.066,-0.1477,0.1132,0.3903,0.2632
17:23:00:800,-1.8114,5.9127,8.1248,36.939,0.0002,0.2088,0.4224,0.2631
17:23:00:823,-1.7396,6.1747,7.6511,36.871,0.2045,0.2585,0.3977,0.2639
17:23:00:842,-2.3043,6.4056,5.8385,36.7898,0.1446,0.21,0.3314,0.2646
17:23:00:861,-2.3545,6.5982,6.0251,36.9649,-0.0906,0.0276,0.383,0.2661
17:23:00:882,-1.7097,6.8471,7.6977,37.0599,-0.3071,-0.2292,0.4285,0.2658
17:23:00:901,-0.926,6.9547,10.5404,37.3122,-0.363,-0.4119,0.4954,0.2669
17:23:00:920,0.2584,6.9715,13.2227,37.3218,-0.1202,-0.2839,0.5956,0.2685
17:23:00:940,1.517,7.1629,13.3639,37.3031,0.2903,0.1223,0.6994,0.2709
17:23:00:962,2.7757,8.0279,10.6493,37.6335,0.4812,0.2585,0.7031,0.2787
17:23:00:982,3.527,9.1514,8.8846,37.7948,0.3884,-0.0136,0.4975,0.2841
17:23:01:001,3.74,9.326,8.5866,37.6931,0.2075,-0.2796,0.1866,0.289
17:23:01:022,3.3236,8.2696,8.9085,37.7042,0.0753,-0.3987,-0.0739,0.2928
17:23:01:042,2.7637,6.8698,9.2542,37.7536,0.0215,-0.4314,-0.1674,0.296
17:23:01:060,2.5675,5.6459,9.4935,37.9242,0.0686,-0.4198,-0.1393,0.2993
17:23:01:083,2.6249,5.0166,9.7687,37.7354,0.2375,-0.3306,-0.1005,0.3033
17:23:01:101,2.0614,4.124,7.3268,37.79,0.4931,-0.1761,-0.1072,0.3085
17:23:01:120,1.8724,3.9601,5.732,37.6176,0.7353,-0.2222,-0.033,0.3149
17:23:01:140,2.0447,4.2915,4.6098,37.3973,0.5536,-0.2411,0.0113,0.3207
17:23:01:160,2.2433,5.074,4.0702,37.5999,0.2479,-0.2479,-0.0241,0.3255
17:23:01:181,2.3258,5.7691,4.3238,37.5467,-0.0573,-0.2683,-0.1283,0.3284
17:23:01:201,2.2923,6.2022,5.2223,37.4779,-0.2256,-0.2408,-0.2963,0.3293
17:23:01:223,1.9322,6.2237,5.8947,37.8447,-0.2259,-0.2054,-0.4548,0.3288
17:23:01:240,1.4166,6.2273,6.1663,38.1257,-0.1477,-0.2439,-0.5504,0.3293
17:23:01:261,0.9404,6.1424,6.5037,38.2713,-0.042,-0.2925,-0.5883,0.3301
17:23:01:282,0.6066,6.0323,6.5408,38.6572,-0.0124,-0.2359,-0.5513,0.3304
17:23:01:301,0.4475,6.1472,6.475,38.7889,-0.0576,-0.1257,-0.4817,0.33
17:23:01:321,0.3673,6.3051,6.5659,38.9562,-0.0747,-0.0841,-0.4169,0.3297
17:23:01:343,0.3362,6.329,6.6221,39.3881,0.0429,-0.0023,-0.2724,0.3299
17:23:01:362,0.3051,6.3769,6.4176,39.7908,0.1156,0.0249,-0.2279,0.3305
17:23:01:381,0.055,6.5085,5.2714,39.5998,0.1284,0.0014,-0.1946,0.3313
17:23:01:400,-0.213,6.4738,4.9531,39.6872,0.0707,-0.0472,-0.1378,0.3322
17:23:01:420,-0.28,6.4152,5.0859,39.9666,-0.0148,-0.0835,-0.0589,0.3329
17:23:01:440,-0.0108,6.5623,5.7081,39.9775,-0.067,-0.0411,0.0015,0.3331
17:23:01:461,0.2082,6.7298,6.1914,40.3892,-0.0447,0.0768,0.0012,0.3328
17:23:01:482,0.2369,6.9057,6.0754,40.5331,-0.0105,0.1437,-0.0254,0.3317
17:23:01:501,0.2512,7.0205,6.0108,40.4582,-0.027,0.1504,-0.0696,0.3307
17:23:01:521,0.2213,6.9918,6.3805,40.3545,-0.0735,0.2136,-0.1298,0.3289
17:23:01:541,-0.0766,6.9667,6.6592,40.0381,-0.0964,0.3435,-0.1448,0.3264
17:23:01:561,-0.0933,7.2491,6.6377,40.2996,-0.1443,0.3749,-0.0828,0.3235
17:23:01:582,0.2788,7.8401,7.2335,40.3647,-0.2363,0.3633,-0.018,0.3203
17:23:01:604,0.7466,8.5149,8.5376,40.5509,-0.016,0.5512,-0.0241,0.3174
17:23:01:623,0.2835,9.795,8.5579,40.8775,0.195,0.513,-0.1042,0.316
17:23:01:640,-0.1172,9.7424,7.681,41.104,0.0848,0.2363,-0.1387,0.316
17:23:01:661,-0.2608,9.2937,9.064,41.2935,-0.2802,0.0078,-0.0709,0.3152
17:23:01:680,-0.2608,8.3139,11.7188,41.8038,-0.4183,0.046,0.0983,0.3124
17:23:01:702,-0.3781,7.4596,13.1617,42.509,-0.0396,0.1113,0.3494,0.3099
17:23:01:721,-0.006,7.121,12.475,42.6839,0.6067,0.0298,0.5852,0.3117
17:23:01:742,0.5707,7.5182,10.52,42.9578,1.089,-0.035,0.5553,0.3277
17:23:01:761,0.2656,7.5745,8.3055,43.0038,1.2344,0.0728,0.2789,0.336
17:23:01:781,-0.9727,6.81,6.1149,43.0592,1.1477,0.2118,0.0049,0.3426
17:23:01:802,-2.0973,5.6495,4.3095,43.161,0.8923,0.1471,-0.1008,0.3473
17:23:01:821,-2.5902,4.8191,3.7041,43.5386,0.5105,0.0286,-0.0116,0.3495
17:23:01:841,-2.1835,4.3896,4.2018,43.6975,0.1202,-0.0231,0.1301,0.3495
17:23:01:862,-0.8889,4.4435,5.8875,43.6952,-0.0823,0.0304,0.2486,0.3488
17:23:01:884,-0.28,4.9819,5.8361,43.8337,-0.0594,0.0701,0.3516,0.3488
17:23:01:904,0.1854,5.6327,5.598,43.9931,0.1465,-0.1449,0.4921,0.3505
17:23:01:921,0.6006,5.9545,5.3623,44.3933,0.1617,-0.2573,0.5037,0.3534
17:23:01:941,0.987,6.2142,5.2175,44.5775,0.1092,-0.286,0.4893,0.3566
17:23:01:960,1.4106,6.6449,5.0142,44.5773,0.0392,-0.2268,0.387,0.3593
17:23:01:981,1.3627,7.0373,4.5488,44.3479,-0.0991,-0.1513,0.1939,0.3607
17:23:02:003,0.7753,7.2646,4.5284,44.3233,-0.2372,-0.2017,0.004,0.3603
17:23:02:021,0.0586,7.1617,5.0166,44.5204,-0.2931,-0.389,-0.0999,0.3603
17:23:02:039,-0.3218,7.1067,5.8481,44.0237,-0.3013,-0.5127,-0.1255,0.3601
17:23:02:061,-0.5348,7.1414,6.4355,44.2152,-0.3254,-0.4953,-0.1222,0.3595
17:23:02:081,-0.6796,7.3448,6.9212,44.4478,-0.3126,-0.4433,-0.1151,0.3592
17:23:02:101,-0.7478,7.5434,7.3783,44.6528,-0.2023,-0.4895,-0.1213,0.3602
17:23:02:122,-0.7621,7.6534,7.8903,45.1022,-0.0166,-0.5551,-0.1374,0.3627
17:23:02:142,-0.8303,7.6092,8.1655,45.6262,0.1712,-0.5289,-0.1597,0.366
17:23:02:162,-0.9117,7.4668,7.9908,45.7466,0.2356,-0.3154,-0.1206,0.369
17:23:02:180,0.4379,8.2002,7.8736,46.1159,0.1553,-0.1755,-0.2175,0.3709
17:23:02:200,0.1041,8.4168,8.2181,46.7025,0.2106,-0.0961,-0.4258,0.372
17:23:02:222,-0.7813,7.8592,8.0327,46.8757,0.3764,-0.0191,-0.4074,0.3736
17:23:02:241,-0.4546,7.8497,6.8195,46.726,0.4229,0.0081,-0.2245,0.3759
17:23:02:262,0.6138,8.6273,5.6435,46.8378,0.1297,-0.0774,-0.1038,0.3776
17:23:02:281,1.7527,9.2279,6.0072,46.768,-0.4268,-0.1959,-0.0819,0.3739
17:23:02:301,2.5448,9.082,7.9992,46.8496,-0.8117,-0.2127,-0.1081,0.3688
17:23:02:322,2.8857,8.455,10.0164,46.7615,-0.7433,-0.3144,-0.0993,0.3662
17:23:02:340,3.3882,7.5362,11.2199,46.3153,-0.2824,-0.4604,-0.0535,0.3676
17:23:02:360,3.6754,6.6425,10.7892,45.9872,0.2359,-0.4345,-0.0632,0.3716
17:23:02:383,3.204,5.8564,8.9025,45.9666,0.6544,-0.1993,-0.1032,0.3766
17:23:02:403,2.0937,5.4473,4.9304,46.1342,0.5988,-0.2833,-0.131,0.3819
17:23:02:421,1.7886,5.4975,4.0223,45.9471,0.4119,-0.3987,-0.1927,0.3871
17:23:02:440,1.6845,5.5609,3.9613,45.9649,0.1193,-0.3572,-0.2572,0.3906
17:23:02:460,1.8078,5.6901,4.617,45.9184,-0.1242,-0.2017,-0.361,0.3914
17:23:02:480,1.5266,5.8122,5.2534,46.3112,-0.1935,-0.0738,-0.4756,0.3901
17:23:02:501,1.0313,5.9079,5.3097,47.0378,-0.1834,-0.024,-0.5067,0.3883
17:23:02:522,0.6808,6.0179,5.1757,47.4715,-0.1868,-0.0032,-0.4615,0.3842
17:23:02:555,0.4678,6.213,5.0692,47.3338,-0.2106,0.005,-0.3751,0.3822
17:23:02:560,0.4487,6.4223,5.0501,47.2375,-0.2274,-0.0044,-0.274,0.3802
17:23:02:580,0.5456,6.6628,4.9579,47.1342,-0.2491,-0.0295,-0.1921,0.3783
17:23:02:600,0.5192,6.9236,5.0237,46.6038,-0.3025,-0.0903,-0.1341,0.3763
17:23:02:620,0.5348,6.9248,5.4377,45.6526,-0.3578,-0.1339,-0.0709,0.3741
17:23:02:644,1.0457,6.7992,7.1055,44.9097,-0.2408,-0.0447,0.08,0.3722
17:23:02:661,1.2778,6.9356,7.1797,43.9802,-0.0625,0.0741,0.0874,0.371
17:23:02:679,1.194,6.9906,6.4319,42.9325,0.0609,0.1608,0.0803,0.3707
17:23:02:700,1.1031,7.0816,5.6614,42.4038,0.0802,0.173,0.0904,0.3708
17:23:02:720,1.1438,7.2897,5.4616,42.2289,0.0478,0.1074,0.0791,0.371
17:23:02:740,1.3974,7.3184,5.8469,42.7108,0.0374,0.0667,0.0632,0.3714
17:23:02:760,1.8293,7.4417,6.2967,43.3863,0.0521,0.0823,0.0055,0.3718
17:23:02:781,2.0662,7.5326,6.798,44.3085,0.0835,0.1712,-0.1292,0.3718
17:23:02:801,1.8197,7.4465,6.7789,45.1147,0.159,0.3196,-0.2679,0.3717
17:23:02:821,1.2215,7.6307,6.0371,46.2336,0.1807,0.2964,-0.3564,0.3714
17:23:02:840,0.871,7.8796,5.8624,47.7302,0.0319,0.2182,-0.3839,0.3696
17:23:02:861,0.9823,8.0913,6.7669,48.8822,-0.1758,0.2802,-0.3418,0.3663
17:23:02:880,1.2263,8.8977,7.7731,49.6019,-0.2213,0.3887,-0.3271,0.3631
17:23:02:900,1.2694,9.9458,8.1787,49.6748,-0.1397,0.3294,-0.3968,0.3608
17:23:02:922,1.2036,10.4315,8.5125,49.7629,-0.1046,0.326,-0.6762,0.3584
17:23:02:941,-0.4199,9.6335,8.9827,49.8298,-0.0713,0.3691,-0.7172,0.3554
17:23:02:961,-1.5505,8.5687,8.9408,49.8228,0.0683,0.3129,-0.6552,0.353
17:23:02:980,-2.3844,7.3902,8.6201,49.8387,0.2198,0.2262,-0.4951,0.3519
17:23:03:000,-2.6429,6.4319,8.5232,49.9126,0.3856,0.2143,-0.3183,0.3524
17:23:03:020,-2.7625,5.7452,8.1512,50.0097,0.5973,0.3624,-0.2437,0.3541
17:23:03:042,-3.2674,5.1637,6.7657,50.2607,0.7619,0.5246,-0.1668,0.36
17:23:03:061,-3.4146,4.8622,4.7509,50.6812,0.688,0.458,-0.0272,0.3626
17:23:03:081,-2.8989,4.9412,3.795,50.9385,0.3331,0.1935,0.1069,0.3632
17:23:03:102,-1.858,4.8514,4.4877,51.3453,-0.1416,0.0432,0.1881,0.3606
17:23:03:122,-0.9559,4.8299,5.811,51.763,-0.5145,0.0786,0.2511,0.3557
17:23:03:142,-0.3984,5.0668,6.9535,51.6673,-0.6758,0.1067,0.3381,0.3509
17:23:03:161,0.189,5.4245,7.9609,51.7752,-0.5389,0.0405,0.442,0.3484
17:23:03:183,0.7561,5.9701,8.0471,51.8591,-0.2268,-0.0234,0.5098,0.3486
17:23:03:201,1.3663,7.5135,5.9821,51.8522,0.0765,-0.1461,0.5037,0.3505
17:23:03:220,1.529,8.2146,5.1984,51.7179,-0.0252,-0.2011,0.3018,0.3525
17:23:03:240,1.1007,8.412,4.8084,51.7989,-0.1904,-0.3044,0.0015,0.3534
17:23:03:261,0.1555,7.919,5.1242,51.8307,-0.381,-0.4281,-0.2447,0.353
17:23:03:281,-0.7322,7.1258,5.8265,51.6855,-0.5298,-0.5059,-0.3454,0.3511
17:23:03:302,-1.413,6.6389,6.7741,51.703,-0.5386,-0.5689,-0.3598,0.3461
17:23:03:322,-1.7647,6.2943,7.6463,51.9437,-0.4259,-0.5597,-0.3216,0.3446
17:23:03:341,-1.9454,6.1304,8.059,52.0447,-0.235,-0.4861,-0.2474,0.3443
17:23:03:361,-2.0997,6.3063,7.803,52.1614,-0.0597,-0.4088,-0.1747,0.345
17:23:03:380,-2.1523,6.4893,7.2921,52.2266,0.0228,-0.378,-0.1164,0.3461
17:23:03:403,-1.9729,6.615,6.8794,52.1671,0.0411,-0.3541,-0.066,0.3473
17:23:03:421,-1.7252,6.8459,6.5635,52.0714,0.006,-0.3624,-0.0492,0.3482
17:23:03:442,-1.6415,6.8806,6.7394,52.1402,-0.0472,-0.3511,-0.0434,0.3487
17:23:03:460,-1.1067,7.3938,7.2742,51.784,0.006,-0.2036,-0.004,0.3492
17:23:03:480,-1.3292,7.8078,7.1868,51.2119,0.0823,-0.1703,-0.0644,0.35
17:23:03:500,-1.5194,7.8784,6.7573,51.0616,0.1013,-0.1901,-0.0235,0.3513
17:23:03:521,-1.0756,8.2253,6.5623,50.7885,0.0096,-0.2512,0.0363,0.3526
17:23:03:541,-0.4092,8.3246,7.1797,50.5695,-0.1248,-0.3279,0.0394,0.3534
17:23:03:561,0.0718,8.1882,8.1811,50.4372,-0.1889,-0.3105,0.0321,0.3529
17:23:03:582,0.3649,7.9585,8.6154,50.4644,-0.1727,-0.2366,0.0568,0.3525
17:23:03:602,0.7932,7.8963,8.4347,50.0958,-0.1681,-0.2424,0.0904,0.3519
17:23:03:621,1.3484,7.7671,8.4802,50.3053,-0.2466,-0.2656,0.0754,0.3506
17:23:03:642,1.7862,7.3352,8.808,50.6737,-0.2897,-0.2509,0.033,0.3495
17:23:03:661,1.9214,6.652,9.1454,50.7523,-0.1596,-0.2344,0.0186,0.3498
17:23:03:681,2.0291,6.0084,8.7075,50.9656,0.0942,-0.2146,0.0348,0.3519
17:23:03:701,1.9765,5.4963,7.669,51.1488,0.2986,-0.1532,0.0461,0.355
17:23:03:720,1.2826,4.7617,5.0716,51.0226,0.4183,0.079,0.1127,0.3582
17:23:03:741,1.2395,4.9591,3.8477,50.7145,0.2906,0.0747,0.157,0.361
17:23:03:761,1.3244,5.5549,3.1107,51.0244,0.0279,-0.0212,0.1127,0.3626
17:23:03:781,1.3914,6.0311,3.3356,51.303,-0.337,-0.0985,0.0024,0.3622
17:23:03:800,1.1809,6.0503,4.4542,51.1184,-0.6712,-0.0725,-0.1078,0.3589
17:23:03:823,0.8351,5.9294,5.7464,51.0927,-0.8706,-0.0075,-0.1436,0.3459
17:23:03:841,0.5145,5.9151,6.9775,51.0478,-0.9152,-0.0267,-0.0901,0.3393
17:23:03:861,0.5252,5.9868,8.3904,50.9405,-0.7549,-0.1037,0.011,0.3348
17:23:03:881,0.8219,6.0766,9.3332,51.043,-0.451,-0.1553,0.1093,0.3327
17:23:03:902,1.2933,6.2524,9.5043,51.2697,-0.1678,-0.0783,0.1775,0.332
17:23:03:921,1.785,6.4774,8.9025,51.1231,-0.0182,0.1055,0.197,0.3314
17:23:03:941,2.0495,6.6903,8.0542,50.8483,0.0438,0.2778,0.1833,0.3311
17:23:03:962,2.2086,6.8806,7.0361,51.0462,0.0805,0.2763,0.1472,0.3313
17:23:03:981,2.4814,7.0744,6.0407,50.9232,0.0484,0.1064,0.0318,0.3318
17:23:04:000,2.5448,7.2694,5.9294,50.7358,0.0163,0.0478,-0.0699,0.3322
17:23:04:021,2.2744,7.2897,6.0766,50.4818,-0.0279,-0.0078,-0.1939,0.3325
17:23:04:040,1.8341,7.1019,6.542,50.4425,-0.0588,0.0148,-0.2874,0.3324
17:23:04:060,1.3137,6.8973,6.8889,50.0064,-0.0545,0.0786,-0.3604,0.3318
17:23:04:081,0.7454,6.6485,7.0098,49.8223,-0.0072,0.1611,-0.4068,0.3309
17:23:04:101,0.2967,6.4391,6.8734,49.6028,0.0301,0.224,-0.4377,0.329
17:23:04:120,-0.1029,6.2441,6.731,48.9584,0.0374,0.2616,-0.4481,0.3279
17:23:04:140,-0.3781,6.122,6.7167,49.1491,0.0368,0.2958,-0.4514,0.3265
17:23:04:161,-0.7813,6.012,6.8949,49.2139,0.0283,0.3853,-0.4328,0.3246
17:23:04:180,-0.9631,5.9928,7.011,49.289,0.0276,0.5111,-0.354,0.3225
17:23:04:200,-0.9835,6.2704,6.9691,48.9613,0.0405,0.5402,-0.248,0.3209
17:23:04:222,-0.4044,7.4022,7.5793,48.7771,0.1501,0.4543,0.0006,0.3201
17:23:04:240,0.0586,8.2241,7.8389,48.941,0.2479,0.4574,0.0281,0.3203
17:23:04:260,0.341,8.9324,7.9549,49.3199,0.3557,0.5337,-0.0238,0.3212
17:23:04:280,0.1854,9.5067,7.4644,49.9845,0.4244,0.586,-0.1512,0.3227
17:23:04:301,-0.317,9.673,6.9823,49.735,0.3425,0.5212,-0.3063,0.3241
17:23:04:320,-0.9583,9.0293,7.3292,49.5782,0.1648,0.4684,-0.434,0.3244
17:23:04:341,-1.5505,7.8999,8.1009,49.4576,0.0524,0.4281,-0.4383,0.3216
17:23:04:361,-1.7815,6.9452,9.0497,49.8112,0.0722,0.3914,-0.3225,0.3204
17:23:04:380,-1.614,6.414,9.4564,50.1251,0.1578,0.494,-0.1533,0.3194
17:23:04:401,-1.3854,6.4917,8.8176,50.0255,0.1892,0.6165,0.0339,0.3186
17:23:04:421,-0.993,7.0624,7.8987,49.6351,0.1901,0.5961,0.1582,0.3186
17:23:04:440,-0.6066,7.6199,7.1856,49.2433,0.1831,0.3541,0.16,0.3197
17:23:04:461,-0.4247,7.4836,7.273,49.1986,0.2112,0.1382,0.0693,0.3215
17:23:04:481,-0.6221,6.6664,7.4644,49.2105,0.3212,0.122,-0.0608,0.3237
17:23:04:501,-2.8893,4.7904,5.5801,48.9476,0.4678,0.2445,-0.1881,0.3262
17:23:04:520,-3.7113,4.4219,4.5105,48.5134,0.4522,0.1822,-0.0925,0.3288
17:23:04:540,-3.7496,4.5356,3.9745,48.0784,0.1339,-0.0096,0.0425,0.3307
17:23:04:569,-3.216,4.654,4.5978,47.8165,-0.3352,-0.144,0.1304,0.3302
17:23:04:580,-2.4491,4.7892,6.0706,47.618,-0.7524,-0.1064,0.1872,0.3264
17:23:04:601,-1.9238,4.8407,7.6953,47.4822,-0.9452,-0.0383,0.2294,0.3128
17:23:04:622,-1.4405,4.9472,9.0532,47.4263,-0.805,0.0338,0.3473,0.3077
17:23:04:640,-0.7585,5.3695,9.2925,46.8838,-0.4357,0.1162,0.4771,0.3057
17:23:04:660,-0.1723,6.2548,8.12,46.8507,-0.1278,0.14,0.5385,0.3057
17:23:04:680,0.1316,7.0828,6.7262,46.9203,-0.0371,0.0542,0.4969,0.3064
17:23:04:701,0.2213,7.7192,5.738,47.0942,-0.1049,-0.1315,0.3549,0.3068
17:23:04:722,0.0574,7.8281,5.7141,47.0901,-0.2451,-0.3612,0.1158,0.3066
17:23:04:742,-0.475,7.1988,6.4259,46.9892,-0.352,-0.4702,-0.0925,0.3054
17:23:04:760,-1.8891,6.0108,7.8257,46.7226,-0.3062,-0.469,-0.2618,0.3041
17:23:04:780,-2.4311,5.6578,8.1296,46.5183,-0.2262,-0.4308,-0.2346,0.3029
17:23:04:800,-2.6752,5.4353,8.3545,46.838,-0.1144,-0.3951,-0.1503,0.3023
17:23:04:820,-2.6489,5.4616,8.1643,46.6548,-0.0035,-0.3593,-0.0373,0.3025
17:23:04:840,-2.4227,5.7595,7.7073,46.4621,0.0597,-0.3419,0.0638,0.3035
17:23:04:862,-2.0937,6.1077,7.2897,46.1626,0.0863,-0.3487,0.1271,0.3071
17:23:04:881,-1.8281,6.4881,6.993,45.8883,0.0863,-0.3315,0.1506,0.309
17:23:04:901,-1.8616,6.798,6.6652,45.9663,0.0661,-0.3282,0.1402,0.3108
17:23:04:921,-2.0495,6.9799,6.6401,46.0944,0.0472,-0.3199,0.1191,0.3123
17:23:04:940,-2.2983,7.2395,6.6461,46.3137,0.0435,-0.2335,0.0565,0.3134
17:23:04:960,-2.8271,7.3208,6.3494,45.9749,0.0084,-0.2436,-0.0098,0.3144
17:23:04:980,-3.1119,7.1091,6.7334,46.1926,-0.0695,-0.4226,0.0208,0.3154
17:23:05:001,-2.8164,6.8016,7.9561,46.309,-0.1303,-0.5105,0.1436,0.3162
17:23:05:021,-2.0961,6.6867,9.5234,46.4171,-0.0667,-0.4018,0.296,0.3178
17:23:05:040,-0.3936,7.3448,9.4911,46.836,0.6098,0.2253,0.3738,0.3211
17:23:05:060,-0.1292,7.7707,7.255,46.8344,0.6944,0.3462,0.299,0.3257
17:23:05:079,-0.0538,8.0662,5.5346,46.6431,0.4977,0.2708,0.1863,0.33
17:23:05:100,0.1232,8.0112,5.0417,46.2949,0.1599,0.0964,0.0791,0.3326
17:23:05:122,0.1232,7.6487,5.8193,46.4414,-0.1431,-0.0313,-0.0018,0.332
17:23:05:141,-0.1256,7.1366,6.9583,46.6205,-0.2757,-0.0948,0.0192,0.3303
17:23:05:160,0.0431,7.0026,7.4656,46.4122,-0.3664,-0.1868,0.0929,0.3279
17:23:05:180,0.5456,6.9595,8.1284,46.4675,-0.5457,-0.3233,0.1237,0.3245
17:23:05:201,0.9799,6.4415,9.6742,46.0352,-0.6177,-0.3505,0.1466,0.3214
17:23:05:221,1.4357,5.8684,10.8395,46.1339,-0.3829,-0.2124,0.2077,0.3203
17:23:05:241,1.6678,5.4197,10.3597,46.3639,0.0756,-0.0053,0.2688,0.3225
17:23:05:262,1.3687,5.0572,8.6572,46.6835,0.5249,0.0783,0.3152,0.3276
17:23:05:281,0.9009,4.9723,5.0608,46.8723,0.7924,0.1162,0.3567,0.3339
17:23:05:300,0.8327,5.336,3.8417,46.7676,0.5301,0.1733,0.3329,0.3392
17:23:05:320,0.8112,5.8816,3.2112,46.82,0.0893,0.2011,0.2615,0.3418
17:23:05:341,0.6748,6.2919,3.4409,46.5647,-0.4076,0.1727,0.1784,0.3406
17:23:05:360,0.5994,6.4164,4.8227,46.5853,-0.7735,0.1327,0.1191,0.3361
17:23:05:382,0.6054,6.1675,6.3697,46.2495,-0.896,0.1006,0.12,0.3228
17:23:05:402,0.5527,6.1424,7.7097,46.1884,-0.8004,0.0142,0.1765,0.3176
17:23:05:422,0.6401,6.1316,8.4646,45.8549,-0.6177,-0.0374,0.2697,0.3139
17:23:05:440,1.0672,6.1974,8.7984,45.5703,-0.4375,0.0029,0.3735,0.3113
17:23:05:461,1.5302,6.4391,8.5484,45.2232,-0.2879,0.0796,0.4304,0.3096
17:23:05:480,1.9394,6.5492,8.0291,45.2976,-0.1721,0.13,0.4169,0.3087
17:23:05:500,2.0183,6.4594,7.5063,45.5698,-0.0646,0.17,0.3549,0.3084
17:23:05:523,1.657,6.268,6.1017,45.4072,0.0041,0.2414,0.1955,0.3082
17:23:05:541,1.3232,6.1711,5.6662,45.4312,-0.1016,0.275,0.1292,0.3074
17:23:05:560,0.9153,6.073,5.5932,45.454,-0.2182,0.2766,0.0971,0.3055
17:23:05:580,0.5779,5.9713,5.7643,45.2741,-0.3264,0.2482,0.1038,0.3028
17:23:05:600,0.4798,5.945,6.1531,45.3083,-0.4287,0.2491,0.121,0.2993
17:23:05:621,0.3721,5.8947,6.6509,45.3026,-0.5237,0.2399,0.1326,0.2949
17:23:05:643,0.3793,5.8361,7.5434,44.8902,-0.5472,0.1917,0.1668,0.2902
17:23:05:662,0.5815,5.8911,8.5579,44.6946,-0.483,0.2259,0.2028,0.2813
17:23:05:680,1.054,6.0395,9.3153,44.4693,-0.3514,0.3722,0.2279,0.2776
17:23:05:700,1.4644,6.3338,9.4708,44.3778,-0.184,0.4968,0.2077,0.2748
17:23:05:720,1.6522,6.6461,9.1789,43.5779,-0.0279,0.5606,0.1555,0.2728
17:23:05:740,1.7468,6.8949,8.7805,43.61,0.0683,0.5673,0.1078,0.2716
17:23:05:760,1.9813,7.0851,8.5161,43.1994,0.1321,0.5453,0.0715,0.271
17:23:05:783,2.1775,7.4991,8.4443,42.857,0.3395,0.5044,-0.0296,0.2713
17:23:05:801,2.0064,7.7695,8.1727,42.8987,0.4998,0.4986,-0.1161,0.2727
17:23:05:820,1.5769,7.852,7.669,42.349,0.6523,0.4727,-0.2327,0.2752
17:23:05:840,0.8195,7.8209,7.1127,42.781,0.7237,0.4094,-0.3485,0.2787
17:23:05:860,-0.1101,7.6415,6.5025,42.5777,0.6532,0.3163,-0.4438,0.2824
17:23:05:880,-0.8112,7.3914,6.3841,43.037,0.3954,0.1452,-0.5134,0.2852
17:23:05:900,-1.188,6.865,7.5386,42.9888,0.0338,0.0356,-0.5666,0.2859
17:23:05:923,-1.3603,5.8193,9.6048,43.3319,-0.1636,0.1553,-0.5311,0.2807
17:23:05:942,-1.7157,5.1003,11.1697,44.0659,0.0243,0.4491,-0.4023,0.2787
17:23:05:963,-2.2026,4.8873,10.5835,44.4244,0.4632,0.7506,-0.1735,0.2792
17:23:05:982,-2.4514,5.7679,8.1667,44.9937,0.6684,0.6828,0.0202,0.2812
17:23:06:000,-2.2875,6.8279,6.4893,45.1192,0.4244,0.3661,0.1332,0.282
17:23:06:021,-1.7049,7.3161,6.664,45.7858,-0.0603,0.1138,0.1307,0.2802
17:23:06:042,-1.3615,6.6425,8.3761,46.1356,-0.348,0.0875,0.1491,0.2776
17:23:06:061,-1.1115,5.945,9.7328,46.6841,-0.1593,0.1849,0.233,0.2775
17:23:06:081,-1.2622,5.2487,7.4704,46.6838,0.9409,0.3541,0.1283,0.2814
17:23:06:101,-2.3498,4.8395,4.7234,46.4284,1.0542,0.2695,0.0015,0.2878
17:23:06:120,-3.277,4.5739,2.8762,46.3131,0.7271,0.1333,-0.0113,0.2937
17:23:06:142,-3.7089,4.5942,2.4191,46.042,0.1202,0.0124,0.0993,0.2969
17:23:06:160,-3.3571,4.7163,3.5366,45.911,-0.4965,-0.0316,0.2709,0.2959
17:23:06:182,-2.1188,5.0441,5.4843,45.5813,-0.8673,-0.0512,0.3311,0.285
17:23:06:201,-1.3184,5.3324,7.3161,45.3363,-0.9262,0.0124,0.2728,0.2784
17:23:06:221,-1.0181,5.4927,8.3569,45.278,-0.8025,0.1309,0.2245,0.2725
17:23:06:241,-0.9739,5.6554,8.5914,45.3116,-0.5948,0.2115,0.2245,0.2681
17:23:06:261,-0.944,5.9904,8.2433,45.1653,-0.41,0.2188,0.2553,0.2647
17:23:06:281,-0.7274,6.4128,7.7611,45.1827,-0.3315,0.214,0.2642,0.2622
17:23:06:304,-0.6891,6.8507,7.3747,45.3572,-0.2488,0.1535,0.233,0.2608
17:23:06:322,-0.9332,7.1797,6.4331,45.4892,-0.1578,-0.0744,0.025,0.2603
17:23:06:343,-1.3711,6.9655,6.3529,45.5159,-0.2378,-0.1694,-0.1277,0.2596
17:23:06:363,-1.9107,6.4223,6.7848,45.5616,-0.3218,-0.2243,-0.2205,0.2583
17:23:06:380,-2.4622,5.8349,7.3723,45.2572,-0.3407,-0.2369,-0.2321,0.2565
17:23:06:401,-2.9515,5.4676,7.7659,45.0795,-0.3059,-0.2253,-0.1585,0.2545
17:23:06:421,-3.1382,5.3575,7.9549,45.0841,-0.2375,-0.2405,-0.0269,0.2529
17:23:06:443,-2.8714,5.5549,8.1679,44.9049,-0.159,-0.272,0.0913,0.2524
17:23:06:460,-2.321,5.939,8.467,44.8375,-0.0603,-0.2225,0.1439,0.2531
17:23:06:481,-2.0255,6.2836,8.3689,44.5865,0.0502,-0.1193,0.1304,0.254
17:23:06:501,-1.986,6.4187,7.8293,44.3198,0.1468,0.0237,0.1167,0.2548
17:23:06:520,-2.1476,6.6604,6.8411,44.0596,0.2078,0.1859,0.0394,0.2553
17:23:06:541,-2.9874,6.5862,5.4365,43.9247,0.1544,0.141,-0.0816,0.2557
17:23:06:576,-4.1013,5.9928,5.0237,43.9039,-0.0402,-0.1333,-0.0577,0.2554
17:23:06:582,-4.4853,5.2223,6.0706,43.7414,-0.3395,-0.2967,0.1756,0.2534
17:23:06:600,-2.1918,5.6566,10.3585,43.714,-0.4091,-0.2057,0.7074,0.251
17:23:06:621,-1.1294,6.5731,11.2654,43.6338,0.0744,-0.1434,0.7785,0.2511
17:23:06:641,-0.1711,7.6164,10.0451,43.4781,0.4748,-0.0677,0.7489,0.2548
17:23:06:661,0.5444,8.7589,8.053,43.5547,0.3725,-0.0331,0.6371,0.2597
17:23:06:681,1.206,9.6562,7.06,43.5985,-0.0961,-0.111,0.4099,0.2624
17:23:06:702,1.5194,9.5785,8.1655,43.0291,-0.5683,-0.2955,0.0611,0.2592
17:23:06:721,0.9236,8.2744,10.2832,42.8475,-0.7106,-0.3566,-0.1674,0.2561
17:23:06:742,0.5216,7.0313,11.7129,42.8218,-0.4989,-0.3383,-0.1649,0.2548
17:23:06:761,0.6975,6.0778,11.6184,42.8138,-0.1413,-0.3337,-0.1185,0.256
17:23:06:781,0.5192,5.2319,10.8861,42.7166,0.1639,-0.3844,-0.1066,0.2596
17:23:06:801,0.0802,4.1157,10.319,42.7162,0.4833,-0.4024,-0.0195,0.2657
17:23:06:824,-0.0754,3.1537,9.393,42.5233,0.8651,-0.2677,0.1469,0.2736
17:23:06:842,0.1208,3.1801,5.476,42.5798,1.1376,-0.0304,0.3454,0.2823
17:23:06:861,0.2357,3.4062,4.0223,42.9614,0.8822,-0.0017,0.3323,0.2902
17:23:06:880,0.3135,3.5773,3.3488,43.1856,0.4406,0.0615,0.3244,0.2955
17:23:06:901,0.6173,3.9757,3.2626,43.0626,-0.0747,0.1071,0.3271,0.297
17:23:06:920,0.9811,4.5739,4.0534,43.148,-0.5411,0.0505,0.328,0.295
17:23:06:941,1.4584,5.2762,5.3025,43.1206,-0.8334,-0.027,0.3143,0.2905
17:23:06:962,1.9334,5.8229,6.6915,43.08,-0.9629,-0.1019,0.2575,0.2792
17:23:06:981,2.2361,6.1125,8.0686,43.0706,-0.9006,-0.1614,0.1943,0.2747
17:23:07:001,2.327,6.4164,8.8522,42.8425,-0.6892,-0.2182,0.157,0.2719
17:23:07:022,2.4586,6.6138,9.0305,42.6383,-0.4937,-0.2329,0.1396,0.2701
17:23:07:042,2.601,6.6915,8.8857,42.4814,-0.3734,-0.1486,0.0993,0.2684
17:23:07:061,2.5831,6.6939,8.2385,42.4336,-0.3181,-0.0423,0.0067,0.2664
17:23:07:082,2.3198,6.4857,7.4249,42.3566,-0.3288,0.0166,-0.1017,0.2639
17:23:07:103,2.059,6.2142,6.9045,42.3595,-0.3144,-0.1211,-0.3039,0.2617
17:23:07:121,1.3531,5.4891,7.4907,42.0036,-0.184,-0.2167,-0.3729,0.2607
17:23:07:142,0.9356,5.2092,7.4608,41.8694,-0.1067,-0.1825,-0.4129,0.2605
17:23:07:160,0.5025,5.0692,7.2658,41.7061,-0.1801,-0.0661,-0.372,0.2597
17:23:07:180,0.3218,5.0321,7.4584,41.4035,-0.286,0.042,-0.2721,0.2575
17:23:07:200,0.5731,5.2403,7.9226,40.9793,-0.2634,0.0622,-0.1845,0.2547
17:23:07:222,1.0158,5.5848,8.3641,40.7971,-0.0976,0.0252,-0.1692,0.2525
17:23:07:241,1.3831,5.9043,8.5184,40.4813,0.0912,0.0359,-0.2334,0.2531
17:23:07:261,1.4548,5.9498,8.3833,40.4663,0.2143,0.1315,-0.3479,0.2535
17:23:07:281,0.999,5.8911,7.9872,40.4323,0.254,0.2732,-0.4496,0.2534
17:23:07:301,0.2058,5.8828,7.5123,40.5295,0.2216,0.3212,-0.4603,0.253
17:23:07:321,0.1089,5.854,7.3304,40.528,0.1425,0.2604,-0.3552,0.2523
17:23:07:342,0.4845,6.329,7.925,40.8325,0.0893,0.2359,-0.2709,0.2517
17:23:07:362,0.5204,7.5936,8.7171,40.961,0.2149,0.2466,-0.3971,0.2514
17:23:07:381,0.1077,7.4453,8.8307,40.8593,0.2063,0.1788,-0.5009,0.2518
17:23:07:401,-0.1651,7.0134,9.1095,40.8836,0.0463,0.192,-0.525,0.2516
17:23:07:421,-0.4582,6.749,9.7448,40.7689,-0.1516,0.297,-0.5214,0.2494
17:23:07:441,-1.0146,6.402,10.331,40.7751,-0.2133,0.4015,-0.453,0.2454
17:23:07:461,-1.4405,6.1149,10.2353,40.4536,-0.1547,0.3951,-0.3005,0.2413
17:23:07:482,-1.3771,6.2381,9.9135,40.3396,-0.0973,0.2344,-0.1594,0.2367
17:23:07:502,-0.9476,6.1519,9.9685,40.2728,-0.0191,0.0102,-0.1084,0.237
17:23:07:522,-0.6126,5.6853,10.1264,40.0699,0.1388,-0.0927,-0.1319,0.2389
17:23:07:541,-0.7119,4.8323,9.9051,40.2307,0.4201,-0.0683,-0.1704,0.2428
17:23:07:560,-1.2502,4.0427,9.1549,40.0544,0.7989,0.0683,-0.1924,0.2488
17:23:07:580,-1.943,3.4887,7.3161,39.776,1.104,0.1266,-0.1985,0.2563
17:23:07:602,-2.5184,3.4385,5.3468,39.8396,1.1031,-0.0115,-0.1564,0.2633
17:23:07:624,-2.4108,3.8477,4.1133,39.8645,0.6926,-0.1538,-0.0922,0.2664
17:23:07:640,-1.8485,3.9529,5.2666,39.8413,-0.6446,-0.0527,0.0538,0.264
17:23:07:661,-1.279,4.1946,7.0516,39.9038,-0.9311,-0.0344,0.0861,0.2579
17:23:07:681,-0.8315,4.5081,8.3294,39.9911,-0.8499,-0.0457,0.0892,0.2508
17:23:07:701,-0.4977,4.7916,8.8355,39.7923,-0.5371,-0.1113,0.0861,0.2456
17:23:07:720,-0.2644,5.1589,8.5173,39.7489,-0.2246,-0.1422,0.0941,0.2433
17:23:07:742,-0.2094,5.604,7.6702,39.6626,-0.1217,-0.1013,0.0935,0.2423
17:23:07:761,-0.2261,5.9749,6.8877,39.5177,-0.2002,-0.1461,0.0565,0.2415
17:23:07:781,-0.3948,6.1232,6.8877,39.3951,-0.3102,-0.2961,-0.029,0.2408
17:23:07:801,-0.6855,5.8229,7.4201,39.5275,-0.348,-0.4351,-0.1133,0.2401
17:23:07:822,-0.9775,5.4879,8.0267,39.1739,-0.3383,-0.4724,-0.1735,0.2395
17:23:07:841,-1.3065,5.1386,8.5866,39.0113,-0.2714,-0.4446,-0.1991,0.2392
17:23:07:862,-1.5864,4.8383,8.6943,38.9545,-0.1626,-0.418,-0.1924,0.2396
17:23:07:883,-1.6427,4.7258,8.6094,38.8975,-0.0234,-0.4076,-0.0812,0.2404
17:23:07:901,-0.9787,5.2343,8.5196,38.8329,0.086,-0.3917,-0.0586,0.242
17:23:07:921,-0.5575,5.5382,8.1344,38.8642,0.1987,-0.4,-0.0889,0.2445
17:23:07:941,-0.335,5.7535,7.718,38.9996,0.2424,-0.4268,-0.1607,0.2479
17:23:07:960,-0.3362,5.9163,7.4321,38.6499,0.214,-0.4082,-0.2532,0.2513
17:23:07:981,-0.67,6.0179,7.2431,38.5777,0.1281,-0.3624,-0.3128,0.2541
17:23:08:002,-0.8028,6.1938,7.0313,38.6959,0.0255,-0.3083,-0.3793,0.2565
17:23:08:021,-1.3304,6.3577,6.8327,38.5438,-0.1071,-0.4027,-0.4777,0.2568
17:23:08:040,-1.9597,6.2201,7.4489,38.2491,-0.2644,-0.6608,-0.4725,0.2569
17:23:08:061,-1.7898,5.8349,8.8319,38.1975,-0.4116,-0.8386,-0.35,0.2563
17:23:08:081,-1.0469,5.6483,10.544,37.9493,-0.4928,-0.8383,-0.1741,0.2551
17:23:08:102,0.0215,5.9007,11.9928,37.6055,-0.4323,-0.6223,-0.0229,0.254
17:23:08:121,1.0086,6.524,12.2249,37.6479,-0.1752,-0.3633,0.0244,0.2551
17:23:08:143,1.6917,7.0457,11.1841,37.5574,0.1217,-0.3905,-0.0284,0.2585
17:23:08:161,2.6776,6.4905,9.8297,37.3126,0.1571,-0.7085,-0.3152,0.2627
17:23:08:181,2.7577,5.3264,10.0989,37.3326,0.1556,-0.6663,-0.3998,0.2666
17:23:08:200,2.7111,4.7498,9.7496,37.4088,0.2136,-0.5017,-0.4633,0.2699
17:23:08:221,2.3928,4.3633,8.8068,37.4192,0.286,-0.4027,-0.533,0.273
17:23:08:241,2.0267,3.8991,7.7862,37.2545,0.3383,-0.4812,-0.5678,0.2765
17:23:08:263,1.791,3.4134,7.2706,37.4177,0.3508,-0.6058,-0.5583,0.2853
17:23:08:281,1.7073,2.9396,7.0397,37.2401,0.3606,-0.6153,-0.4814,0.2899
17:23:08:302,1.8843,2.7936,6.6604,37.3988,0.3743,-0.5799,-0.3589,0.2942
17:23:08:320,2.3163,3.1908,6.1017,37.3565,0.3138,-0.52,-0.2673,0.2976
17:23:08:342,2.7721,3.8345,5.5358,37.1875,0.118,-0.5032,-0.2535,0.2992
17:23:08:362,3.0162,4.654,5.531,37.0854,-0.1455,-0.5301,-0.3128,0.2989
17:23:08:382,3.1214,5.3635,5.8768,36.9324,-0.3893,-0.5817,-0.4401,0.2973
17:23:08:402,3.0449,5.7619,6.4379,37.0934,-0.5563,-0.7256,-0.6038,0.2952
17:23:08:421,2.8822,5.4736,8.9803,36.8371,-0.6187,-1.0353,-0.7086,0.2932
17:23:08:440,3.0209,5.4353,10.4447,36.692,-0.418,-0.8835,-0.661,0.2917
17:23:08:460,3.21,5.5406,10.8538,36.4226,-0.0548,-0.6403,-0.6222,0.2917
17:23:08:481,3.1657,5.787,9.941,36.2545,0.29,-0.4443,-0.6454,0.294
17:23:08:501,2.8223,5.9653,8.7051,36.4424,0.4736,-0.3465,-0.6946,0.2982
17:23:08:522,2.5292,5.9007,7.7767,36.4221,0.5252,-0.2986,-0.7694,0.3085
17:23:08:543,2.2146,5.6925,7.334,36.5007,0.5652,-0.2289,-0.8433,0.3138
17:23:08:561,1.7898,5.4509,6.8471,36.2922,0.6113,-0.1507,-0.8882,0.3191
17:23:08:598,1.2371,5.2702,6.6449,36.2816,0.6303,-0.1116,-0.879,0.3245
17:23:08:600,0.7789,5.1709,6.8638,36.2346,0.684,-0.0243,-0.8378,0.33
17:23:08:620,0.3721,5.1374,6.6604,36.1777,0.7311,0.1239,-0.7697,0.3352
17:23:08:642,-0.012,5.275,6.1352,36.3758,0.6862,0.1972,-0.6872,0.3397
17:23:08:661,0.1783,5.7057,6.2812,36.1526,0.5258,-0.0683,-0.5516,0.344
17:23:08:681,0.4499,5.9294,6.8327,35.9397,0.5447,-0.1092,-0.5806,0.3484
17:23:08:701,0.5623,6.0742,7.1186,35.841,0.5649,0.0014,-0.576,0.3529
17:23:08:720,0.8375,6.6006,7.2203,35.8204,0.5951,0.1871,-0.5614,0.357
17:23:08:741,0.8734,7.5374,6.9535,35.9453,0.6257,0.4128,-0.6209,0.3611
17:23:08:761,0.6245,8.4658,6.1579,35.9502,0.5356,0.5334,-0.7474,0.3646
17:23:08:781,0.1711,9.3428,5.6853,35.7357,0.3144,0.4989,-0.9447,0.3672
17:23:08:802,-0.4786,9.7232,6.0562,35.4376,0.0701,0.3829,-1.1671,0.3659
17:23:08:821,-1.2885,9.3607,6.8985,35.5955,-0.0664,0.3404,-1.2944,0.3637
17:23:08:842,-2.1392,8.8319,7.6164,35.9118,-0.078,0.3719,-1.2236,0.3615
17:23:08:862,-2.4814,8.6656,7.7276,35.8934,-0.0719,0.3661,-1.0562,0.3592
17:23:08:881,-2.6548,8.2887,7.8844,35.996,-0.122,0.2332,-0.8726,0.3573
17:23:08:900,-2.6788,7.6403,8.6883,35.7921,-0.0423,0.031,-0.6698,0.3572
17:23:08:922,-2.5029,6.8136,9.5426,35.7574,0.2476,0.006,-0.5128,0.3599
17:23:08:941,-2.6955,5.7296,9.0999,35.9937,0.9754,0.4418,-0.2654,0.3655
17:23:08:962,-3.7998,4.6217,5.1589,36.1542,1.0249,0.4574,-0.1185,0.3726
17:23:08:980,-4.1157,4.6672,3.5928,35.8307,0.7573,0.2668,0.0586,0.3795
17:23:09:001,-3.8512,4.8957,3.2518,35.6778,0.2256,0.0454,0.2401,0.3838
17:23:09:021,-2.9204,5.1733,4.4207,35.6567,-0.3737,-0.016,0.3781,0.3837
17:23:09:042,-1.797,5.3839,6.414,35.6085,-0.7588,0.024,0.4142,0.373
17:23:09:061,-1.0528,5.4999,8.2385,35.7152,-0.7466,0.0835,0.4239,0.3679
17:23:09:082,-0.5372,5.8696,9.2088,35.8468,-0.4168,0.1666,0.4389,0.3657
17:23:09:101,-0.2094,6.4439,8.6955,35.9906,-0.0625,0.2729,0.4511,0.3658
17:23:09:121,0.006,7.2108,7.4357,36.1866,0.1055,0.3337,0.4377,0.3667
17:23:09:142,0.2189,8.0554,6.2967,36.2935,0.1092,0.3187,0.3354,0.3675
17:23:09:162,0.207,8.5878,5.5011,36.2201,0.0451,0.2149,0.1109,0.3678
17:23:09:182,-0.2333,8.5639,5.1661,36.0812,-0.0215,0.0307,-0.1695,0.3677
17:23:09:201,-1.9071,7.4441,5.5011,36.0691,-0.078,-0.1575,-0.4041,0.367
17:23:09:220,-2.68,6.883,6.2776,36.244,-0.228,-0.3841,-0.5739,0.3655
17:23:09:240,-3.1442,6.4487,6.9547,36.2434,-0.2616,-0.392,-0.5464,0.3635
17:23:09:261,-3.5031,5.9988,7.4453,35.9985,-0.2744,-0.3786,-0.4673,0.3611
17:23:09:281,-3.7938,5.5609,7.9609,35.8007,-0.217,-0.3935,-0.318,0.3587
17:23:09:303,-3.7292,5.2534,8.4335,35.8633,-0.0692,-0.3401,-0.1185,0.3574
17:23:09:321,-3.4313,5.2403,8.3043,36.0709,0.0936,-0.1596,0.0883,0.3584
17:23:09:342,-3.2243,5.7069,7.4321,36.188,0.1691,0.0111,0.2492,0.3598
17:23:09:361,-2.9575,6.2943,6.6353,36.2932,0.1752,0.0689,0.3705,0.3616
17:23:09:382,-2.5926,7.0038,6.1041,36.1436,0.1559,0.0209,0.4224,0.3633
17:23:09:400,-2.272,7.6403,5.726,36.259,0.0878,-0.1138,0.3577,0.3645
17:23:09:421,-2.1583,7.858,5.6686,36.3595,-0.0264,-0.2845,0.2135,0.3649
17:23:09:443,-2.3689,7.2778,6.0538,36.2404,-0.1495,-0.4412,0.1411,0.3645
17:23:09:462,-2.1488,6.743,7.608,36.2704,-0.2039,-0.5982,0.2981,0.3638
17:23:09:480,-1.6331,6.9643,8.1691,36.1243,-0.111,-0.637,0.3937,0.3636
17:23:09:501,-1.0325,7.3496,8.3689,36.111,0.0246,-0.6614,0.4203,0.3644
17:23:09:520,-0.5001,7.8042,8.461,36.2263,0.191,-0.6144,0.3485,0.3665
17:23:09:540,-0.3709,8.0339,8.0124,36.2482,0.3529,-0.4821,0.1839,0.3699
17:23:09:562,-1.0409,8.1177,7.1043,35.9529,0.4436,-0.3746,0.0195,0.374
17:23:09:581,-1.7755,8.0435,6.1914,36.0405,0.4345,-0.2808,-0.0699,0.3822
17:23:09:600,-2.1882,8.0698,5.3456,36.2131,0.2885,-0.2494,-0.1127,0.3843
17:23:09:621,-2.4431,8.1595,5.3384,36.0093,0.0661,-0.2469,-0.1451,0.3847
17:23:09:641,-2.4132,7.8078,5.9462,36.2062,-0.0961,-0.162,-0.139,0.3839
17:23:09:661,-2.3055,7.4309,6.4271,36.3434,-0.1465,-0.0771,-0.1081,0.3827
17:23:09:681,-2.2935,7.054,6.5827,36.3078,-0.1697,-0.0286,-0.044,0.3811
17:23:09:702,-2.1643,6.7825,6.5743,36.6132,-0.2253,0.0096,0.0913,0.379
17:23:09:720,-0.9176,7.0205,6.7992,36.8282,-0.3355,-0.0188,0.2938,0.376
17:23:09:741,0.0239,7.2335,8.4,36.8382,-0.3877,-0.429,0.6597,0.3732
17:23:09:760,1.0744,7.1856,9.7639,36.8858,-0.1013,-0.3667,0.712,0.372
17:23:09:781,1.8257,7.1605,9.6383,37.2579,0.2378,-0.0615,0.5919,0.373
17:23:09:801,1.608,6.7226,8.1811,37.3393,0.4473,0.2271,0.3842,0.3758
17:23:09:822,0.8662,5.951,6.5575,37.5008,0.4962,0.4333,0.2944,0.3826
17:23:09:841,0.3003,5.2941,5.1147,37.5269,0.4268,0.5151,0.372,0.3851
17:23:09:861,0.3003,5.1685,4.0439,37.4567,0.2469,0.4186,0.5403,0.386
17:23:09:881,0.7956,5.5011,3.8692,37.7956,-0.0441,0.2543,0.6942,0.3847
17:23:09:901,1.6355,6.0323,4.5069,37.98,-0.3432,0.1422,0.7749,0.3815
17:23:09:921,2.467,6.5647,5.4927,38.0176,-0.5429,0.0759,0.7474,0.3772
17:23:09:941,2.8403,6.8853,6.5456,38.2157,-0.5976,0.0215,0.649,0.373
17:23:09:963,2.266,7.1713,7.8174,38.484,-0.5313,-0.0127,0.5644,0.3694
17:23:09:982,1.9693,7.3388,8.3928,38.6377,-0.4253,-0.0689,0.5382,0.3669
17:23:10:001,1.8867,7.3771,8.8666,38.9164,-0.1498,0.0521,0.4924,0.3652
17:23:10:020,1.7384,7.2945,8.6632,39.0025,0.0481,0.2717,0.4108,0.3645
17:23:10:040,1.2694,6.9918,7.7611,39.1232,0.2356,0.4003,0.3088,0.3651
17:23:10:061,0.7585,6.4044,6.81,39.3015,0.3493,0.4901,0.2621,0.3667
17:23:10:082,0.3147,5.8409,5.8564,39.5745,0.3474,0.5829,0.2734,0.3699
17:23:10:102,0.073,5.586,4.9543,39.7395,0.2124,0.6275,0.3476,0.3698
17:23:10:120,0.1244,5.6088,4.5021,39.4488,-0.0115,0.5585,0.4612,0.368
17:23:10:142,0.4857,5.7595,4.7366,39.5907,-0.2558,0.4436,0.5705,0.3648
17:23:10:162,1.06,5.9593,5.6734,39.8881,-0.4049,0.3676,0.6539,0.361
17:23:10:181,1.5446,6.28,6.4989,39.8884,-0.4213,0.3251,0.6854,0.3576
17:23:10:202,1.8927,6.7657,7.0636,40.0149,-0.3557,0.235,0.6661,0.355
17:23:10:223,2.2421,7.0923,8.0495,40.1012,-0.1852,0.2057,0.4768,0.3532
17:23:10:241,2.3234,7.0229,8.3366,40.0374,-0.1022,0.2714,0.3836,0.3517
17:23:10:261,2.4431,6.9129,8.5472,39.9957,0.0258,0.3658,0.2737,0.3507
17:23:10:281,2.3474,6.6903,8.3833,40.1923,0.2106,0.4629,0.1744,0.3506
17:23:10:301,2.2289,6.6449,7.596,40.3449,0.3642,0.538,0.0852,0.3517
17:23:10:321,2.0626,6.6592,6.7071,40.1162,0.4058,0.5924,-0.0345,0.3534
17:23:10:342,1.8066,6.536,5.8744,40.4414,0.348,0.6019,-0.1567,0.3558
17:23:10:362,1.279,6.2704,5.3827,40.6534,0.2253,0.5136,-0.2037,0.356
17:23:10:381,1.0696,6.1843,5.5274,40.7065,0.0909,0.3789,-0.1588,0.3555
17:23:10:401,1.2084,6.4714,6.2369,40.9097,0.0063,0.2915,-0.1084,0.355
17:23:10:421,1.3531,7.0851,7.0624,40.9582,0.0475,0.2448,-0.0922,0.3552
17:23:10:442,1.407,7.8437,7.5003,41.0499,0.173,0.2326,-0.153,0.3565
17:23:10:461,1.1163,8.2851,7.5242,40.9765,0.2888,0.2347,-0.2569,0.3585
17:23:10:483,0.743,8.3976,7.3986,41.123,0.3703,0.2628,-0.3415,0.3609
17:23:10:502,0.195,8.205,7.5757,41.0457,0.557,0.2802,-0.5757,0.3639
17:23:10:520,-0.3254,7.5565,7.937,40.8788,0.7262,0.3242,-0.6597,0.3677
17:23:10:541,-0.7501,6.9954,8.0937,40.8278,0.9458,0.4461,-0.6426,0.3727
17:23:10:562,-1.0193,6.9739,7.7061,40.7624,1.1519,0.6135,-0.6002,0.3789
17:23:10:581,-1.1593,7.3711,6.4834,40.9457,1.1846,0.7136,-0.562,0.3858
17:23:10:603,-1.0804,8.0818,4.9017,40.9671,0.8431,0.56,-0.5464,0.3945
17:23:10:622,-0.609,8.4897,5.0177,40.9082,0.1666,0.1339,-0.5128,0.3931
17:23:10:640,0.3099,7.8042,7.7815,40.8073,-0.3703,-0.1086,-0.4319,0.3896
17:23:10:661,1.0696,6.9404,10.8156,40.7182,-0.2298,0.005,-0.2691,0.3892
17:23:10:681,1.0349,6.6461,10.8694,40.97,0.4766,0.2454,0.0925,0.3946
17:23:10:701,1.0469,8.4156,8.2038,41.0808,1.0588,0.2714,0.4142,0.404
17:23:10:721,1.5446,10.4279,5.525,41.4195,1.1871,-0.0289,0.3063,0.414
17:23:10:743,1.4417,10.9938,4.5129,41.3329,1.0423,-0.3404,-0.2703,0.4224
17:23:10:761,-2.4275,6.8901,4.6301,41.1388,0.7979,-0.2414,-1.033,0.4288
17:23:10:782,-3.4457,5.4676,4.0798,41.4135,0.6938,-0.1126,-0.9358,0.4335
17:23:10:801,-3.8967,4.8431,3.4636,41.4619,0.4818,-0.1599,-0.7682,0.437
17:23:10:820,-3.9637,4.4913,3.5438,41.3358,0.1559,-0.3202,-0.5098,0.4389
17:23:10:840,-3.4493,4.4411,4.343,40.904,-0.1978,-0.3908,-0.2132,0.4387
17:23:10:861,-2.7517,4.5667,5.1924,40.9049,-0.52,-0.3441,0.087,0.4362
17:23:10:882,-1.7994,5.147,6.1484,40.6009,-0.6755,-0.2378,0.3986,0.4318
17:23:10:901,-0.5707,6.335,6.8853,40.7405,-0.5246,-0.1474,0.5818,0.4254
17:23:10:921,0.3182,7.4931,6.7549,40.9348,-0.1874,-0.1269,0.5715,0.4259
17:23:10:942,0.481,8.4634,5.7021,40.7186,0.0389,-0.203,0.4527,0.4276
17:23:10:962,0.5025,9.1585,4.5416,40.612,0.0469,-0.3621,0.2593,0.4291
17:23:10:981,0.3721,9.3978,4.0391,40.6802,-0.086,-0.535,-0.0027,0.4295
17:23:11:002,-0.128,9.0891,4.081,40.9039,-0.246,-0.7026,-0.2773,0.4286
17:23:11:021,-0.9428,8.3713,4.5823,40.8164,-0.3615,-0.8801,-0.4679,0.427
17:23:11:041,-2.1224,6.95,6.2656,40.9327,-0.3832,-1.0038,-0.5107,0.4251
17:23:11:061,-2.2911,6.743,6.7226,40.6592,-0.3291,-0.9528,-0.42,0.4233
17:23:11:080,-2.1775,6.9081,6.9009,40.7888,-0.287,-0.9064,-0.3094,0.4217
17:23:11:101,-1.8066,7.3137,7.1581,40.7758,-0.2472,-0.8789,-0.2166,0.4204
17:23:11:120,-1.2168,7.8281,7.4512,40.8038,-0.166,-0.8138,-0.1845,0.4197
17:23:11:142,-0.9643,8.1942,7.2969,40.7973,-0.0603,-0.7234,-0.1982,0.4202
17:23:11:162,-0.9823,8.4933,6.7561,40.7823,0.0417,-0.7109,-0.1903,0.4217
17:23:11:181,-0.9523,8.8415,6.2536,40.6851,0.0851,-0.7937,-0.1698,0.4236
17:23:11:201,-0.5791,9.2686,6.1208,40.4862,0.0441,-0.8942,-0.2282,0.4249
17:23:11:221,-0.4128,9.417,6.518,40.5885,-0.0194,-0.914,-0.3983,0.4258
17:23:11:241,-0.8207,8.9121,7.0373,40.6233,0.0341,-0.8141,-0.5889,0.4274
17:23:11:264,-1.7228,8.1153,6.8806,40.639,0.2204,-0.6788,-0.6811,0.4302
17:23:11:282,-2.7194,7.078,5.1398,40.7868,0.3868,-0.6153,-0.6503,0.4339
17:23:11:301,-2.6859,6.932,4.9029,40.8476,0.326,-0.4855,-0.4566,0.4373
17:23:11:320,-2.3019,7.0074,4.6301,40.8549,0.2402,-0.3135,-0.3021,0.4398
17:23:11:341,-1.1593,7.5864,4.2652,41.1712,0.1071,-0.3636,-0.1713,0.4415
17:23:11:361,0.1184,8.2505,4.9723,41.2349,-0.0728,-0.5292,-0.146,0.4422
17:23:11:381,1.0301,8.4491,6.3099,41.4334,-0.2518,-0.5102,-0.1124,0.4415
17:23:11:402,1.6475,8.5771,7.1761,41.3607,-0.4027,-0.2876,0.0281,0.4357
17:23:11:421,2.1248,9.3966,7.4094,41.5782,-0.4238,-0.2564,0.1564,0.4331
17:23:11:441,2.4933,9.9194,7.547,41.7205,-0.2702,-0.546,0.0754,0.4322
17:23:11:461,2.0901,9.2507,7.5936,42.0452,-0.0936,-0.8392,-0.1289,0.4325
17:23:11:482,1.3125,7.7683,7.4465,42.1108,-0.0081,-0.848,-0.1918,0.4329
17:23:11:502,0.804,6.6808,7.0744,42.1568,0.0099,-0.673,-0.1643,0.4332
17:23:11:522,0.6233,5.8552,6.524,42.5956,0.0667,-0.5227,-0.0996,0.434
17:23:11:543,1.0038,5.6901,4.7198,42.54,0.1248,-0.5099,0.0379,0.4353
17:23:11:561,1.523,6.1914,4.2209,42.59,-0.0133,-0.5026,0.0208,0.4361
17:23:11:581,1.7791,6.5492,4.1492,42.6998,-0.1886,-0.498,-0.0495,0.4356
17:23:11:601,1.7743,6.7382,4.5643,42.8936,-0.3135,-0.4849,-0.0657,0.4339
17:23:11:621,1.8185,7.1151,4.8766,42.7411,-0.3749,-0.483,-0.0388,0.4314
17:23:11:641,1.7946,7.7659,5.196,42.8754,-0.4198,-0.5432,-0.0199,0.4285
17:23:11:663,1.8269,8.2887,5.7212,43.0088,-0.4696,-0.5869,-0.0235,0.4215
17:23:11:681,1.7097,8.6333,6.3194,42.7149,-0.524,-0.5542,-0.0577,0.4175
17:23:11:702,1.4154,8.601,6.9392,42.6958,-0.5053,-0.535,-0.0919,0.414
17:23:11:721,1.0337,8.2181,7.7504,42.8185,-0.3768,-0.5408,-0.0971,0.4119
17:23:11:740,0.7765,7.4285,8.321,42.7236,-0.144,-0.4617,-0.0308,0.4116
17:23:11:760,0.8052,7.0134,7.992,42.4965,0.0783,-0.3367,0.0874,0.4125
17:23:11:783,1.1163,7.0732,7.2287,42.6094,0.2014,-0.232,0.1768,0.4142
17:23:11:801,1.8772,7.2909,5.5549,42.5381,0.2637,-0.1339,0.1988,0.4163
17:23:11:820,2.0183,7.3783,5.0632,42.4314,0.202,-0.2091,0.1695,0.4184
17:23:11:840,2.1416,7.4405,5.1781,42.5986,0.1355,-0.2509,0.1411,0.42
17:23:11:860,2.2588,7.4668,5.3922,42.7581,0.1052,-0.2256,0.0816,0.4212
17:23:11:880,2.1284,7.4524,5.2786,42.8379,0.0829,-0.1825,0.0195,0.4222
17:23:11:900,1.9968,7.5577,5.068,42.7573,0.0353,-0.144,-0.0412,0.423
17:23:11:922,1.9095,7.596,4.9687,42.7006,-0.0283,-0.1129,-0.1115,0.4232
17:23:11:940,1.8054,7.5769,4.9914,42.7456,-0.079,-0.1119,-0.1778,0.4227
17:23:11:961,1.59,7.4584,5.147,42.9705,-0.1257,-0.1077,-0.226,0.4219
17:23:11:981,1.3771,7.2885,5.4712,42.8056,-0.1636,-0.0643,-0.2315,0.4207
17:23:12:001,1.2802,7.212,5.8062,42.7784,-0.166,0.0017,-0.2144,0.4196
17:23:12:020,1.1833,7.273,5.9151,42.7132,-0.1208,0.0472,-0.1998,0.419
17:23:12:042,1.0875,7.3388,5.7823,42.4918,-0.0851,0.0515,-0.1802,0.4184
17:23:12:062,1.0696,7.4345,5.7775,42.5465,-0.0985,0.0802,-0.1521,0.4176
17:23:12:082,1.1964,7.8915,6.0227,42.602,-0.1327,0.1614,-0.1161,0.4166
17:23:12:101,1.2335,8.1978,6.2572,42.4124,-0.104,0.1614,-0.1216,0.4157
17:23:12:120,1.2526,8.3653,6.5444,42.0328,-0.0334,0.1859,-0.1439,0.4152
17:23:12:141,1.1426,8.3797,6.6784,42.0472,0.0652,0.2301,-0.1772,0.4155
17:23:12:160,1.0086,8.333,6.5157,41.9802,0.1669,0.2839,-0.2083,0.4167
17:23:12:182,0.8327,8.3139,6.1244,42.0145,0.2152,0.3312,-0.2459,0.4205
17:23:12:201,0.6437,8.0997,5.9175,42.0404,0.2259,0.3603,-0.2807,0.4227
17:23:12:221,0.5061,7.8221,5.8672,41.7934,0.2491,0.4103,-0.2874,0.425
17:23:12:241,0.3697,7.7204,5.6004,41.7409,0.2518,0.4488,-0.2871,0.4271
17:23:12:261,0.1831,7.596,5.4855,41.746,0.214,0.4369,-0.2514,0.4289
17:23:12:282,0.2166,7.474,5.7129,41.6465,0.2045,0.4171,-0.1756,0.4307
17:23:12:303,0.4235,7.614,5.8828,41.3819,0.235,0.3887,-0.1194,0.4329
17:23:12:323,0.8399,7.925,5.9856,41.3193,0.3233,0.3935,-0.0962,0.4354
17:23:12:341,1.0241,8.0997,5.9246,41.3007,0.3541,0.4027,-0.1298,0.4382
17:23:12:360,1.1019,8.1763,5.8229,41.2225,0.3887,0.4183,-0.1872,0.4413
17:23:12:381,0.9811,8.1894,5.738,41.4194,0.4354,0.4326,-0.2523,0.4447
17:23:12:401,0.737,8.26,5.4377,41.176,0.4757,0.4607,-0.3122,0.4485
17:23:12:421,0.4104,8.5831,4.8574,41.0314,0.4253,0.4522,-0.379,0.4523
17:23:12:442,0.0514,8.9456,4.4877,41.3156,0.2579,0.3951,-0.4383,0.4568
17:23:12:461,-0.1759,9.1214,4.8562,41.5015,0.0619,0.2921,-0.5003,0.4569
17:23:12:481,-0.3817,8.7494,5.7691,41.4964,-0.0438,0.2436,-0.5641,0.4565
17:23:12:501,-0.8614,8.0662,6.5934,41.2273,-0.0096,0.3251,-0.5559,0.4569
17:23:12:521,-1.328,7.4871,7.0002,41.3201,0.2097,0.4388,-0.4887,0.4595
17:23:12:541,-1.7659,7.0672,6.4092,41.3099,0.5182,0.5209,-0.3998,0.4641
17:23:12:562,-2.0818,7.0277,4.9149,41.501,0.6495,0.5664,-0.2996,0.469
17:23:12:583,-2.0734,7.4931,3.0102,41.5787,0.2888,0.6174,-0.1842,0.4726
17:23:12:618,-1.9023,7.6702,3.1394,41.5657,0.0017,0.6187,-0.1903,0.474
17:23:12:620,-1.7372,7.6068,3.9218,41.5683,-0.2127,0.6226,-0.1979,0.4733
17:23:12:640,-1.6235,7.5805,4.8144,41.4912,-0.2934,0.5872,-0.1674,0.4713
17:23:12:661,-1.7946,7.6056,5.2834,41.631,-0.3196,0.5111,-0.0846,0.4688
17:23:12:680,-2.0183,7.6008,5.5825,41.5816,-0.3942,0.4314,0.0733,0.466
17:23:12:701,-1.8748,7.7779,6.1651,41.2259,-0.472,0.3603,0.219,0.4586
17:23:12:721,-1.4788,7.931,6.9404,41.327,-0.4745,0.3074,0.2764,0.4551
17:23:12:741,-1.2048,7.7587,7.59,41.2213,-0.3477,0.3178,0.2773,0.453
17:23:12:761,-1.2036,7.5781,7.5613,41.1425,-0.1251,0.3743,0.2608,0.4526
17:23:12:781,-1.5302,7.4788,6.5432,41.3219,0.0512,0.3826,0.2547,0.4532
17:23:12:801,-1.7145,7.6008,5.4114,41.2817,0.0741,0.3083,0.2767,0.4536
17:23:12:822,-1.529,7.9669,4.8323,41.0827,-0.0313,0.2344,0.2462,0.453
17:23:12:841,-1.3065,8.6788,4.9639,41.0163,-0.3618,0.1645,0.0507,0.4509
17:23:12:861,-1.4213,8.5639,5.604,41.2726,-0.4229,0.1022,-0.0458,0.4479
17:23:12:880,-1.8042,8.126,6.0981,41.0513,-0.3798,0.0606,-0.044,0.4446
17:23:12:900,-2.1631,7.9825,6.2417,41.0499,-0.297,0.0221,0.0192,0.4418
17:23:12:920,-2.3988,7.9107,6.2477,40.8698,-0.2573,-0.0115,0.0791,0.4396
17:23:12:940,-2.6501,7.7216,6.2967,40.6417,-0.261,-0.0237,0.1411,0.4376
17:23:12:962,-2.857,7.4979,6.5336,40.8664,-0.2714,-0.0793,0.2312,0.4336
17:23:12:981,-2.8379,7.2251,6.95,40.771,-0.2353,-0.1327,0.3476,0.4323
17:23:13:001,-2.5196,7.1139,7.3472,40.6915,-0.1452,-0.1272,0.453,0.4317
17:23:13:020,-2.0207,7.2251,7.4118,40.5691,-0.031,-0.0744,0.5107,0.4321
17:23:13:040,-1.5685,7.4249,7.0361,40.4383,0.0875,-0.0307,0.5098,0.4334
17:23:13:061,-1.3161,7.5589,6.4606,40.1636,0.1571,-0.0478,0.4859,0.4351
17:23:13:081,-1.0385,7.7013,5.9282,40.3201,0.1724,-0.1162,0.4438,0.4369
17:23:13:102,-0.743,7.748,5.6686,40.2472,0.1584,-0.1944,0.3745,0.4385
17:23:13:120,-0.3996,7.6451,5.8313,39.8625,0.1541,-0.2723,0.1952,0.44
17:23:13:140,-0.4415,7.4895,5.7559,39.9277,0.1691,-0.3151,0.1121,0.4416
17:23:13:160,-0.3876,7.4405,5.6865,40.2476,0.1465,-0.352,0.051,0.4431
17:23:13:181,-0.1974,7.5996,5.8708,40.0993,0.1119,-0.3456,-0.0382,0.4443
17:23:13:200,-0.2094,7.7396,5.994,40.2749,0.0973,-0.297,-0.1509,0.4452
17:23:13:222,-0.4487,7.8808,5.6004,40.3998,0.086,-0.2949,-0.2364,0.4464
17:23:13:241,-0.6401,8.0698,5.275,40.1792,-0.0029,-0.3923,-0.2758,0.446
17:23:13:261,-0.6951,8.12,5.6566,40.3286,-0.1336,-0.4797,-0.2721,0.4447
17:23:13:280,-0.6449,7.9705,6.2907,40.6903,-0.1932,-0.5157,-0.2053,0.4432
17:23:13:301,-0.5288,7.998,6.8136,40.8969,-0.1651,-0.5921,-0.0883,0.4422
17:23:13:321,-0.1448,8.1763,7.4333,40.468,-0.0689,-0.6446,0.0229,0.4421
17:23:13:342,0.2249,8.4203,7.6534,40.7072,0.0793,-0.6156,0.0831,0.4434
17:23:13:363,0.4917,8.7506,7.2957,40.4823,0.2314,-0.5484,0.0516,0.4457
17:23:13:381,0.1412,8.3426,5.5143,40.4267,0.3303,-0.4827,-0.1991,0.4486
17:23:13:401,-0.1041,7.8042,5.056,40.6054,0.2518,-0.4946,-0.2816,0.4512
17:23:13:422,-0.2429,7.2479,5.007,40.581,0.1746,-0.5169,-0.3351,0.453
17:23:13:440,-0.3781,6.6114,5.3097,40.3823,0.1568,-0.5053,-0.3403,0.4544
17:23:13:460,-0.396,6.2213,5.257,40.3447,0.1859,-0.432,-0.2764,0.4557
17:23:13:482,-0.2859,6.4881,4.7689,40.5954,0.1843,-0.3954,-0.2056,0.4583
17:23:13:502,-0.1161,6.9954,4.2269,40.6409,0.104,-0.4504,-0.1671,0.4585
17:23:13:521,0.0574,7.5996,4.0798,40.6856,-0.0692,-0.5252,-0.1561,0.4573
17:23:13:541,0.2895,8.2038,4.5009,40.8662,-0.2656,-0.5673,-0.1857,0.4547
17:23:13:560,0.4762,8.5208,5.2822,40.6692,-0.3908,-0.5832,-0.2599,0.4514
17:23:13:582,0.4666,8.5125,6.2584,40.5672,-0.3884,-0.5731,-0.3326,0.4486
17:23:13:601,0.3051,8.3474,7.0301,40.6179,-0.2411,-0.5637,-0.3674,0.4472
17:23:13:622,0.055,8.1476,7.1318,40.6279,-0.0499,-0.538,-0.3467,0.447
17:23:13:640,0.2453,8.3163,6.213,40.7636,0.0622,-0.4589,-0.2611,0.4472
17:23:13:660,0.5384,8.4012,5.9533,40.6074,0.0619,-0.4617,-0.277,0.4475
17:23:13:680,0.7382,8.3198,5.8373,40.7253,0.0673,-0.4433,-0.3161,0.4479
17:23:13:700,0.6497,8.2026,5.6255,40.8106,0.0835,-0.4238,-0.358,0.4485
17:23:13:720,0.3805,8.1177,5.4724,40.9416,0.1,-0.4323,-0.3818,0.4491
17:23:13:742,0.1304,7.9944,5.3121,41.1414,0.115,-0.4275,-0.3977,0.4508
17:23:13:763,-0.1735,7.8999,5.0034,41.2292,0.0899,-0.421,-0.4029,0.4512
17:23:13:781,-0.4295,7.6953,4.7641,41.3268,0.0197,-0.4149,-0.3852,0.451
17:23:13:801,-0.5468,7.5709,4.7809,41.1747,-0.0615,-0.4174,-0.3357,0.4502
17:23:13:821,-0.3888,7.6403,5.1087,41.3539,-0.1098,-0.4278,-0.2957,0.4491
17:23:13:840,-0.28,7.7133,5.6877,41.4311,-0.1037,-0.4287,-0.2902,0.448
17:23:13:862,-0.3829,7.6152,6.1938,41.2928,-0.0863,-0.374,-0.2599,0.4471
17:23:13:882,-0.4235,7.6594,6.5252,41.2982,0.0279,-0.1978,-0.1399,0.4467
17:23:13:901,-0.1974,8.0303,6.073,41.2563,0.0933,-0.2072,-0.1017,0.447
17:23:13:922,0.1125,8.1559,5.854,41.2482,0.1269,-0.2222,-0.0748,0.4477
17:23:13:941,0.4247,8.3079,5.6889,41.166,0.1562,-0.2075,-0.095,0.4487
17:23:13:960,0.5228,8.4012,5.3432,41.1811,0.1587,-0.1926,-0.1365,0.4499
17:23:13:981,0.4618,8.5125,5.0596,40.8003,0.1144,-0.1898,-0.197,0.451
17:23:14:003,0.1938,8.3701,4.9711,40.6892,0.0582,-0.1975,-0.2459,0.4521
17:23:14:022,-0.1256,8.2289,4.9926,40.863,0.0044,-0.2243,-0.259,0.452
17:23:14:041,-0.3314,8.0578,5.2271,40.798,-0.0322,-0.232,-0.2535,0.4516
17:23:14:061,-0.591,7.8413,5.476,40.776,-0.0475,-0.1917,-0.2239,0.4511
17:23:14:081,-0.7466,7.7611,5.5884,40.684,-0.0386,-0.151,-0.1652,0.4508
17:23:14:101,-0.8148,7.8209,5.6351,40.7336,-0.0127,-0.1407,-0.1048,0.4507
17:23:14:122,-0.7681,7.8401,5.7416,40.9429,0.016,-0.151,-0.0437,0.4507
17:23:14:142,-0.5659,7.9155,5.793,41.1806,0.0509,-0.1095,0.011,0.4511
17:23:14:161,-0.1436,8.2253,5.2092,41.2926,0.0704,-0.0344,0.0376,0.4516
17:23:14:181,0,8.3845,4.9376,41.1388,0.0362,-0.0591,0.0281,0.4521
17:23:14:200,0.195,8.5244,4.9352,41.3816,-0.0264,-0.0606,-0.0174,0.4522
17:23:14:221,0.1878,8.4227,5.1171,41.4902,-0.0698,-0.0383,-0.0837,0.4519
17:23:14:241,-0.1089,8.1512,5.2869,41.896,-0.0768,-0.0423,-0.1097,0.4515
17:23:14:262,-0.3446,7.9561,5.5035,41.879,-0.0664,-0.0255,-0.0785,0.4506
17:23:14:282,-0.4546,7.9585,5.5585,41.7438,-0.0451,0.0136,-0.0409,0.4504
17:23:14:302,-0.4307,8.12,5.5585,41.8284,-0.0289,0.0466,-0.0208,0.4503
17:23:14:321,-0.4929,8.1631,5.4784,41.7613,-0.0142,0.0747,-0.0373,0.4504
17:23:14:341,-0.652,8.0483,5.2235,41.764,-0.0322,0.0994,-0.033,0.4501
17:23:14:381,-0.6377,7.9214,5.3659,41.6904,-0.1162,0.1022,0.0235,0.4503
17:23:14:383,-0.6078,7.9693,5.5837,41.5474,-0.1049,0.1025,0.0565,0.4501
17:23:14:404,-0.5743,8.0399,5.7153,41.0623,-0.0704,0.0845,0.0929,0.4497
17:23:14:422,-0.4786,8.1559,5.8026,41.169,-0.0564,0.0878,0.1127,0.4495
17:23:14:440,-0.3924,8.1236,5.8804,41.1274,-0.0536,0.1107,0.128,0.4493
17:23:14:461,-0.2608,8.0806,5.866,41.1581,-0.0246,0.1202,0.1323,0.4492
17:23:14:481,-0.1675,8.0674,5.7488,41.2879,0.0026,0.1122,0.1323,0.4492
17:23:14:501,-0.1065,8.1021,5.6279,41.4028,0.006,0.1153,0.128,0.4494
17:23:14:522,-0.0586,8.1129,5.4867,41.3776,-0.0102,0.1284,0.1161,0.4501
17:23:14:541,-0.0323,8.0949,5.4365,41.5565,-0.0252,0.1205,0.0929,0.4505
17:23:14:561,-0.1113,8.0459,5.5226,41.5263,-0.0377,0.1104,0.0632,0.4506
17:23:14:581,-0.2572,7.9454,5.6698,41.1877,-0.046,0.1235,0.0461,0.4506
17:23:14:603,-0.4092,7.815,5.7966,41.1626,-0.0334,0.141,0.0571,0.4505
17:23:14:643,-0.4929,7.7803,5.72,40.9101,-0.0127,0.1584,0.0822,0.4504
17:23:14:644,-0.5001,7.809,5.4891,40.8222,-0.017,0.1562,0.0959,0.4505
17:23:14:662,-0.4929,7.7408,5.397,40.8955,-0.0457,0.1532,0.1075,0.4504
17:23:14:681,-0.195,8.0782,5.4473,40.7459,-0.1089,0.166,0.1222,0.4501
17:23:14:701,-0.1304,8.1679,5.738,40.4318,-0.1064,0.1489,0.0828,0.4499
17:23:14:720,-0.2991,8.0518,6.0538,40.4503,-0.0673,0.159,0.0635,0.4497
17:23:14:740,-0.4774,7.9669,6.0132,40.6632,-0.0273,0.1724,0.0825,0.4493
17:23:14:760,-0.536,7.998,5.8768,40.6992,-0.0151,0.1684,0.1017,0.4491
17:23:14:782,-0.4977,8.0495,5.7918,40.8373,-0.0325,0.1437,0.1231,0.449
17:23:14:801,-0.341,8.0818,5.9581,40.7019,-0.0475,0.1016,0.1408,0.4489
17:23:14:821,-0.079,8.0315,6.262,40.3862,-0.0243,0.0921,0.1417,0.4487
17:23:14:840,0.1388,8.0183,6.3434,40.5313,0.02,0.1248,0.1188,0.4482
17:23:14:861,0.1783,7.9597,6.0538,40.4032,0.0515,0.1691,0.087,0.4484
17:23:14:880,0.1077,7.919,5.7547,40.3733,0.0777,0.151,0.0666,0.4492
17:23:14:902,0.0873,7.9083,5.5657,40.3059,0.0884,0.111,0.0443,0.4502
17:23:14:922,0.061,7.9011,5.537,40.2423,0.0771,0.119,0.0156,0.4511
17:23:14:941,-0.0933,7.8999,5.4054,40.1277,0.0304,0.1022,-0.0299,0.452
17:23:14:961,-0.4522,7.8185,5.2941,40.2285,-0.0179,0.0857,-0.0238,0.4527
17:23:14:981,-0.5468,7.7037,5.4736,40.226,-0.0725,0.0915,0.0024,0.4529
17:23:15:000,-0.5587,7.7049,5.7356,40.0134,-0.0783,0.0948,0.0376,0.4525
17:23:15:021,-0.475,7.8078,5.8672,39.9684,-0.0472,0.078,0.0599,0.452
17:23:15:042,-0.3326,7.949,5.8792,39.9488,-0.0322,0.0667,0.0666,0.4511
17:23:15:062,-0.1842,7.9597,5.9282,39.6576,-0.0368,0.0881,0.0608,0.4508
17:23:15:082,-0.0778,7.9837,5.9402,39.5967,-0.0279,0.0958,0.0425,0.4506
17:23:15:103,-0.0132,7.9286,5.9151,39.4741,0.0057,0.0817,0.0199,0.4506
17:23:15:123,0.0024,7.9322,5.6842,39.2475,0.0243,0.0667,-0.0043,0.4508
17:23:15:141,-0.0263,7.9322,5.4879,39.355,-0.0081,0.0438,-0.0272,0.4509
17:23:15:161,-0.0682,7.9023,5.5573,39.5297,-0.0505,0.0255,-0.0473,0.4508
17:23:15:183,-0.1029,7.9035,5.8337,39.6389,-0.0579,0.0127,-0.0678,0.4504
17:23:15:201,-0.3182,7.809,5.9665,39.6413,-0.0383,0.0011,-0.0968,0.45
17:23:15:221,-0.5001,7.6654,5.8875,39.9907,-0.0136,-0.0017,-0.0898,0.4497
17:23:15:241,-0.5085,7.724,5.7882,39.9735,-0.0243,-0.024,-0.0574,0.4492
17:23:15:261,-0.4175,7.8329,5.8983,40.0685,-0.0396,-0.0356,-0.0544,0.4488
17:23:15:281,-0.4032,7.8138,6.006,40.215,-0.0249,-0.0108,-0.055,0.4484
17:23:15:302,-0.402,7.9837,5.8923,40.2014,-0.0017,-0.0124,-0.0641,0.448
17:23:15:321,-0.4319,8.0183,5.7428,40.1604,-0.002,-0.0301,-0.0883,0.4481
17:23:15:341,-0.4499,8.0327,5.8301,40.1825,-0.0215,-0.0292,-0.1014,0.4481
17:23:15:361,-0.5049,7.9944,5.9689,40.354,-0.0148,-0.0173,-0.1185,0.4481
17:23:15:381,-0.6437,7.9023,5.9581,40.0838,0.0072,-0.0209,-0.1103,0.4481
17:23:15:401,-0.6724,7.8748,5.7894,39.891,0.0197,-0.0316,-0.0886,0.4482
17:23:15:421,-0.6473,7.9071,5.6889,39.862,0.0002,-0.056,-0.0779,0.4482
17:23:15:442,-0.5695,7.8867,5.8636,39.9307,-0.0218,-0.0591,-0.0803,0.4481
17:23:15:461,-0.5659,7.8353,6.0215,39.9625,-0.0102,-0.0466,-0.0855,0.4479
17:23:15:480,-0.682,7.8353,6.1017,40.0016,0.0472,-0.0124,-0.069,0.4478
17:23:15:502,-0.7131,7.9155,5.854,40.129,0.0622,-0.013,-0.0458,0.4479
17:23:15:521,-0.6532,7.9968,5.7224,39.9727,0.0603,-0.0292,-0.0373,0.4483
17:23:15:541,-0.6114,8.0016,5.6435,40.0689,0.0466,-0.0292,-0.0428,0.4489
17:23:15:562,-0.658,7.9837,5.5262,40.3212,0.0221,-0.0295,-0.0492,0.4495
17:23:15:582,-0.7334,7.9502,5.531,40.4659,-0.0093,-0.0496,-0.0544,0.4501
17:23:15:601,-0.8518,7.7444,5.7858,40.2149,-0.0203,-0.0701,-0.0437,0.45
17:23:15:621,-0.8423,7.6403,6.0263,40.0671,-0.0069,-0.0667,-0.0018,0.4495
17:23:15:641,-0.731,7.7157,6.1065,39.867,0.009,-0.0426,0.0351,0.449
17:23:15:661,-0.5168,7.8114,6.0395,39.7442,0.0283,-0.0283,0.0574,0.4489
17:23:15:681,-0.3099,7.9753,5.8684,39.8249,0.0478,-0.0438,0.0516,0.449
17:23:15:703,-0.1998,8.0447,5.6842,39.8198,0.0188,-0.0988,0.0049,0.4493
17:23:15:721,-0.146,8.0183,5.9055,39.6483,0.0011,-0.0967,-0.0269,0.4495
17:23:15:741,-0.201,7.949,6.079,39.5214,0.0218,-0.0814,-0.0535,0.4495
17:23:15:760,-0.3374,7.8497,6.0419,39.6756,0.0554,-0.0774,-0.0589,0.4494
17:23:15:781,-0.3852,7.7898,5.8899,39.6626,0.0744,-0.082,-0.0519,0.4495
17:23:15:801,-0.3697,7.876,5.75,39.602,0.0707,-0.0707,-0.0568,0.4497
17:23:15:822,-0.5073,7.9095,5.5406,39.6097,0.0499,-0.0756,-0.0709,0.4504
17:23:15:842,-0.6939,7.8724,5.5023,39.6731,0.0133,-0.1174,-0.0617,0.4506
17:23:15:861,-0.6437,7.8018,5.7966,39.7123,-0.0011,-0.1532,-0.0272,0.4504
17:23:15:881,-0.4032,7.8532,6.1232,39.7281,0.0224,-0.1596,-0.0208,0.4501
17:23:15:901,-0.3458,7.7563,6.2859,39.924,0.053,-0.1275,-0.0318,0.4497
17:23:15:921,-0.4187,7.7204,6.1125,39.9485,0.0854,-0.0857,-0.0034,0.4496
17:23:15:941,-0.3027,7.986,5.7332,39.9506,0.1074,-0.1177,0.0067,0.4501
17:23:15:962,-0.1687,8.0794,5.5107,40.1442,0.0823,-0.1691,-0.0226,0.4507
17:23:15:981,-0.012,7.9202,5.7523,40.1044,0.0478,-0.1602,-0.044,0.4511
17:23:16:000,-0.0347,7.9537,5.6638,40.0723,0.0649,-0.1785,-0.0889,0.4512
17:23:16:020,-0.0443,7.9382,5.7284,40.0389,0.0597,-0.2063,-0.0993,0.4515
17:23:16:040,-0.0036,7.9394,5.8445,40.1392,0.0609,-0.1907,-0.1124,0.4517
17:23:16:060,-0.0299,7.9334,5.817,39.9948,0.0838,-0.1684,-0.1365,0.4518
17:23:16:082,-0.1711,7.9657,5.5202,39.9483,0.1,-0.1489,-0.1585,0.4528
17:23:16:102,-0.347,8.0698,5.1422,40.0649,0.078,-0.1544,-0.172,0.4537
17:23:16:121,-0.4223,8.1021,4.989,40.1415,0.027,-0.1712,-0.1863,0.4544
17:23:16:141,-0.5587,8.0602,5.0213,40.2123,-0.0252,-0.173,-0.1869,0.4548
17:23:16:160,-0.6006,8.0638,5.2211,40.0352,-0.0551,-0.1779,-0.1753,0.4548
17:23:16:182,-0.5958,8.1057,5.5178,40.1891,-0.0481,-0.1816,-0.1717,0.4547
17:23:16:202,-0.6688,8.1105,5.6818,40.2229,-0.038,-0.1544,-0.1613,0.4544
17:23:16:222,-0.7848,8.1093,5.799,40.3029,-0.0276,-0.1315,-0.1365,0.4541
17:23:16:242,-0.8602,7.9083,5.8911,40.3923,0.0463,-0.1025,-0.0657,0.4539
17:23:16:260,-0.7382,7.7982,5.6423,40.5136,0.0658,-0.0744,-0.0269,0.454
17:23:16:280,-0.5719,7.8221,5.2953,40.4636,0.0509,-0.0686,0.0034,0.4541
17:23:16:301,-0.3529,7.9478,5.1721,40.628,0.0206,-0.0716,0.0046,0.4544
17:23:16:321,-0.2309,8.0626,5.1625,40.7741,-0.013,-0.0799,-0.0217,0.4548
17:23:16:341,-0.2393,8.1081,5.2403,40.5851,-0.0408,-0.0909,-0.0467,0.455
17:23:16:362,-0.2728,8.1236,5.403,40.3594,-0.0579,-0.0945,-0.0641,0.4548
17:23:16:382,-0.3051,8.1368,5.5645,40.2476,-0.0536,-0.0863,-0.0806,0.4545
17:23:16:402,-0.3852,8.1404,5.6686,40.3336,-0.0331,-0.0799,-0.0944,0.4543
17:23:16:421,-0.4941,8.0423,5.653,40.1884,-0.0194,-0.071,-0.0904,0.4541
17:23:16:441,-0.5623,8.0686,5.6411,40.0424,-0.0182,-0.0548,-0.077,0.4539
17:23:16:461,-0.5982,8.053,5.5908,39.7691,-0.016,-0.0469,-0.0715,0.4539
17:23:16:482,-0.6604,7.9681,5.5274,39.8637,-0.0182,-0.0402,-0.0507,0.4537
17:23:16:502,-0.6221,7.9992,5.519,39.9984,-0.0249,-0.0414,-0.0275,0.4536
17:23:16:521,-0.6497,7.9801,5.7643,40.1715,-0.0151,-0.0392,0.0031,0.4535
17:23:16:541,-0.6843,8.0638,5.7105,40.1899,0.0096,-0.006,0.0192,0.4533
17:23:16:561,-0.7346,8.1165,5.5848,39.8173,0.017,0.0121,0.0379,0.4533
17:23:16:580,-0.6724,8.1787,5.4317,39.9568,0.0145,0.0444,0.0531,0.4537
17:23:16:600,-0.7394,8.2457,5.2319,40.1275,-0.0044,0.0631,0.0489,0.4541
17:23:16:623,-0.8315,8.1619,5.1254,40.1682,-0.0362,0.0405,0.0556,0.4547
17:23:16:650,-0.8794,8.0112,5.3276,39.9396,-0.0735,0.0203,0.0916,0.4549
17:23:16:661,-0.7932,7.9418,5.787,39.8144,-0.079,0.0224,0.1362,0.4543
17:23:16:681,-0.6425,7.9454,6.0814,39.9028,-0.0368,0.0701,0.1558,0.4537
17:23:16:702,-0.5468,7.9992,6.0287,39.8732,0.0044,0.1235,0.1768,0.4534
17:23:16:721,-0.4451,8.0566,5.7643,39.9662,0.0356,0.1559,0.1894,0.4537
17:23:16:743,-0.2907,8.1751,5.2834,39.8292,0.0475,0.1523,0.1787,0.4543
17:23:16:763,-0.4271,8.1332,5.1625,39.6717,-0.0099,0.1608,0.1219,0.4551
17:23:16:780,-0.6568,8.0028,5.2104,39.9175,-0.0573,0.1779,0.1158,0.4557
17:23:16:801,-0.8542,7.8855,5.2965,40.0657,-0.0759,0.2271,0.1399,0.456
17:23:16:821,-1.0134,7.9896,5.1649,40.0487,-0.0838,0.2402,0.1588,0.456
17:23:16:842,-1.1821,8.1344,5.1398,40.2568,-0.1226,0.221,0.1686,0.4561
17:23:16:861,-1.4261,8.0782,5.5035,40.2644,-0.1733,0.2363,0.1845,0.456
17:23:16:883,-1.5936,7.9107,5.9067,40.3668,-0.192,0.25,0.2395,0.454
17:23:16:902,-1.6044,7.8616,6.3852,40.578,-0.1691,0.2335,0.3238,0.4524
17:23:16:921,-1.3065,7.7731,6.9619,40.6373,-0.0936,0.2567,0.4166,0.451
17:23:16:960,-0.4714,8.1452,6.2692,40.3658,0.1086,0.4626,0.3311,0.4519
17:23:16:963,-0.8626,7.5302,5.5561,40.1861,0.0826,0.5014,0.2853,0.4533
17:23:16:982,-0.999,7.2383,4.9627,40.3254,-0.0084,0.4736,0.3204,0.4543
17:23:17:003,-0.8662,7.2646,5.0082,40.179,-0.1184,0.3703,0.3476,0.4542
17:23:17:022,-0.6377,7.2371,5.7033,40.02,-0.1636,0.3386,0.3488,0.4534
17:23:17:041,-0.5994,7.2108,6.1292,40.1567,-0.1165,0.3874,0.3378,0.4525
17:23:17:061,-0.6413,7.389,5.8911,40.1172,-0.0472,0.4085,0.3448,0.4521
17:23:17:080,-0.7155,7.8784,5.519,40.2249,-0.0481,0.3114,0.3213,0.4521
17:23:17:101,-0.6317,8.0076,5.9019,40.4532,-0.0906,0.2136,0.3231,0.4517
17:23:17:121,-0.2429,8.2875,6.5492,40.683,-0.1119,0.2488,0.2801,0.451
17:23:17:142,-0.207,8.4239,6.8842,40.7187,-0.0899,0.3987,0.1933,0.4503
17:23:17:161,-0.4534,8.394,6.2895,40.8195,-0.0405,0.483,0.1335,0.4504
17:23:17:181,-0.8495,8.4203,5.6901,41.0838,-0.0536,0.363,0.1515,0.4501
17:23:17:202,-0.6784,8.4084,6.0132,41.1452,-0.1,0.2616,0.1863,0.4497
17:23:17:221,-0.6162,8.132,6.6712,41.3017,-0.0545,0.3025,0.1918,0.45
17:23:17:241,-0.8435,7.8341,6.5647,41.4735,0.0637,0.374,0.2156,0.4511
17:23:17:263,-1.2562,7.7037,5.9163,41.4539,0.1232,0.3441,0.2932,0.4526
17:23:17:281,-1.6905,7.3902,5.3839,41.4473,0.0655,0.2622,0.4227,0.4536
17:23:17:302,-1.2096,7.1474,5.6554,41.4501,-0.0163,0.173,0.5073,0.4539
17:23:17:321,-0.5097,7.1797,6.4235,41.5487,-0.0622,0.1975,0.5583,0.4535
17:23:17:341,0.2489,7.523,6.8375,41.6572,-0.031,0.3187,0.5272,0.4529
17:23:17:361,0.5061,7.8006,6.6449,41.7594,0.0521,0.4611,0.4368,0.4529
17:23:17:381,0.4331,7.9346,5.5753,41.6899,0.0417,0.4693,0.405,0.4536
17:23:17:403,0.6054,8.2708,5.0931,41.7293,-0.0744,0.3392,0.3793,0.4529
17:23:17:421,0.7286,8.1416,5.6423,42.0994,-0.159,0.2644,0.3283,0.4519
17:23:17:441,0.725,7.785,6.0754,42.1706,-0.1119,0.2949,0.3183,0.4515
17:23:17:461,0.5791,7.8676,5.7021,42.2506,-0.0228,0.2781,0.2889,0.4515
17:23:17:481,0.14,7.8951,5.1817,42.2058,-0.0267,0.1804,0.2263,0.4511
17:23:17:501,-0.2596,7.5817,5.2044,42.4935,-0.1226,0.1602,0.2169,0.4497
17:23:17:522,-0.4343,7.3603,5.6662,42.5941,-0.2488,0.2857,0.2529,0.4476
17:23:17:542,-0.8004,6.9356,6.2548,42.8757,-0.177,0.3603,0.3259,0.4459
17:23:17:562,-0.9081,7.2287,5.8672,42.935,-0.1443,0.2976,0.4062,0.4445
17:23:17:581,-0.6341,7.3627,6.1424,42.9857,-0.181,0.2369,0.4881,0.4432
17:23:17:601,-0.0849,7.4692,6.8148,43.3466,-0.1675,0.2931,0.5406,0.4416
17:23:17:620,0.4211,7.5278,6.9655,43.4317,-0.0808,0.3838,0.5464,0.4404
17:23:17:641,0.7621,7.6798,6.5731,43.5636,0.0069,0.4256,0.5134,0.44
17:23:17:662,0.8913,7.7444,6.0479,43.4596,0.0283,0.4091,0.4496,0.4402
17:23:17:680,0.7717,7.6044,5.6411,43.3446,-0.0359,0.3713,0.4047,0.4396
17:23:17:702,0.7059,7.5039,5.7811,43.3803,-0.1229,0.3297,0.4065,0.4384
17:23:17:721,0.7932,7.5553,6.1938,43.4859,-0.1513,0.3114,0.412,0.4372
17:23:17:742,0.865,7.7551,6.4594,43.4846,-0.1235,0.2989,0.3864,0.4363
17:23:17:761,0.7107,7.7264,6.5994,43.3807,-0.0786,0.3166,0.354,0.4357
17:23:17:782,0.451,7.6989,6.414,43.4042,-0.0451,0.3676,0.3555,0.4353
17:23:17:802,0.1795,7.785,6.0754,43.4114,-0.0548,0.3465,0.3549,0.4347
17:23:17:822,-0.195,7.4034,6.5097,43.4046,-0.0814,0.2799,0.3842,0.434
17:23:17:842,-0.2273,7.2,6.7011,43.6813,-0.0631,0.319,0.4258,0.4332
17:23:17:861,-0.1651,6.9368,6.7992,43.9021,-0.0451,0.3703,0.4783,0.4326
17:23:17:880,-0.0443,6.731,6.9631,43.9186,-0.0139,0.4598,0.5541,0.432
17:23:17:900,0.2094,6.7765,6.8375,44.0888,0.0411,0.5191,0.6283,0.4317
17:23:17:922,0.3422,7.0457,6.7502,44.1278,0.0863,0.5209,0.6909,0.4324
17:23:17:941,0.5587,7.2371,6.7837,44.3628,0.1348,0.5185,0.7434,0.4333
17:23:17:961,0.8219,7.3819,6.615,44.655,0.1718,0.5371,0.7755,0.4344
17:23:17:982,1.066,7.5362,6.3386,44.9427,0.1721,0.5426,0.7926,0.4354
17:23:18:001,1.206,7.6439,6.1843,45.1768,0.1495,0.5231,0.785,0.4362
17:23:18:022,1.072,7.6235,6.3625,45.2109,0.1373,0.4681,0.7743,0.4371
17:23:18:043,1.0457,7.5171,6.664,45.3055,0.1904,0.4195,0.7712,0.4382
17:23:18:063,1.7276,7.4907,6.4989,45.3988,0.1727,0.4705,0.7306,0.4392
17:23:18:081,2.2098,7.5852,6.3338,45.771,0.1431,0.5304,0.6613,0.44
17:23:18:100,2.5065,7.6654,6.0933,45.8667,0.1245,0.5347,0.536,0.4405
17:23:18:122,2.4897,7.5434,5.8959,45.9292,0.0961,0.509,0.4252,0.4409
17:23:18:141,2.4084,7.5135,5.7643,45.9159,0.0457,0.462,0.3589,0.441
17:23:18:161,2.4885,7.675,5.8923,45.8716,-0.0166,0.4155,0.2841,0.4407
17:23:18:182,2.4586,7.6582,6.1208,45.7567,-0.0493,0.3734,0.1747,0.4393
17:23:18:201,1.9502,7.3256,6.585,46.0489,-0.0115,0.3355,0.1029,0.4391
17:23:18:221,1.3615,6.9799,6.7621,46.0861,0.0756,0.3642,0.0959,0.4393
17:23:18:241,0.7513,6.8243,6.5085,46.224,0.1294,0.3914,0.1359,0.4397
17:23:18:261,0.4917,6.7298,6.2919,46.2274,0.1156,0.4107,0.2217,0.4398
17:23:18:281,0.5803,6.7202,6.1508,46.3382,0.0893,0.4391,0.2972,0.4398
17:23:18:304,0.7549,6.8231,6.0072,46.3111,0.0903,0.4238,0.3509,0.4399
17:23:18:323,0.9607,7.0301,5.7715,46.3867,0.079,0.3884,0.3729,0.4399
17:23:18:341,1.188,7.2251,5.7894,46.6501,0.0386,0.3199,0.3647,0.4399
17:23:18:360,1.9047,7.2802,6.6939,46.828,0.0429,0.2741,0.3115,0.4398
17:23:18:381,2.2648,7.3508,6.7753,46.8314,0.0823,0.3074,0.2413,0.4397
17:23:18:401,2.4012,7.4249,6.5647,46.945,0.1419,0.2845,0.1677,0.4401
17:23:18:421,2.4969,7.4895,6.2405,47.1955,0.1746,0.2308,0.0892,0.4409
17:23:18:442,2.5842,7.535,5.8624,47.2033,0.1562,0.1898,0.0037,0.4427
17:23:18:461,2.6273,7.5685,5.5202,47.5996,0.1043,0.1,-0.0819,0.4433
17:23:18:481,2.6728,7.6032,5.4724,47.8292,0.0276,-0.016,-0.1585,0.4433
17:23:18:501,2.7422,7.675,5.7488,47.9525,-0.0396,-0.0903,-0.2257,0.4431
17:23:18:521,2.7446,7.8209,6.061,47.767,-0.0548,-0.1578,-0.3005,0.4429
17:23:18:541,2.5747,7.882,6.2333,47.8629,-0.0307,-0.2402,-0.3806,0.4431
17:23:18:562,2.3031,7.7707,6.2417,47.7155,-0.0194,-0.308,-0.4475,0.4432
17:23:18:583,1.9717,7.6642,6.3817,47.6968,-0.0234,-0.3273,-0.4746,0.4434
17:23:18:601,1.5972,7.7276,6.1077,47.7479,0.1135,-0.4058,-0.5345,0.4443
17:23:18:621,1.474,7.6738,5.7811,47.5227,0.1355,-0.4421,-0.5794,0.4457
17:23:18:660,1.3699,7.614,5.5155,47.3223,0.1141,-0.4162,-0.6286,0.4471
17:23:18:662,1.1976,7.6666,5.2367,47.0211,0.0958,-0.4122,-0.6906,0.4483
17:23:18:680,0.8064,7.6738,5.1003,47.0589,0.0814,-0.4464,-0.7407,0.4494
17:23:18:702,0.4427,7.6223,5.1434,46.8481,0.0643,-0.4946,-0.7434,0.4513
17:23:18:722,0.2991,7.6307,5.4568,46.647,0.042,-0.5026,-0.7254,0.4519
17:23:18:741,0.3051,7.6857,5.8409,46.5149,0.0652,-0.4766,-0.7101,0.453
17:23:18:761,0.3494,7.718,6.067,46.1296,0.1498,-0.4409,-0.7022,0.4547
17:23:18:781,0.3936,7.8042,5.9103,46.1782,0.2396,-0.4113,-0.7016,0.4569
17:23:18:801,0.3482,7.9585,5.7081,46.1835,0.2845,-0.3661,-0.7178,0.4593
17:23:18:823,0.2441,8.1978,5.3982,46.0159,0.2176,-0.2705,-0.8247,0.4615
17:23:18:842,-0.0706,8.5711,4.9531,45.837,-0.0084,-0.4278,-0.8848,0.4626
17:23:18:861,0.055,9.0903,6.1208,45.7683,-0.2827,-0.6321,-0.9588,0.4615
17:23:18:881,0.1926,8.473,8.5244,45.6798,-0.3074,-0.6199,-1.0204,0.4588
17:23:18:901,0.0096,7.6307,9.8489,45.382,0.0377,-0.4155,-0.9817,0.4569
17:23:18:921,-0.274,7.3376,9.1119,45.4885,0.5136,-0.2497,-0.8656,0.4583
17:23:18:941,-0.463,7.6953,6.8626,45.2585,0.7457,-0.2292,-0.7746,0.4628
17:23:18:962,-0.3685,8.15,4.9412,44.7956,0.6501,-0.3355,-0.7239,0.4682
17:23:18:981,-0.134,8.601,4.1647,44.6516,0.3749,-0.5081,-0.7434,0.474
17:23:19:002,0.0909,8.534,4.599,44.5002,0.1116,-0.6214,-0.8036,0.4741
17:23:19:022,-0.0706,8.0339,5.3982,44.1765,-0.0267,-0.568,-0.8803,0.4735
17:23:19:041,-0.7238,7.3591,6.1639,44.0039,0.0447,-0.494,-0.9206,0.4742
17:23:19:061,-1.5829,6.7059,6.3326,43.8791,0.2979,-0.4314,-0.9053,0.4767
17:23:19:081,-2.4957,6.3613,5.5645,43.7056,0.4635,-0.3868,-0.8183,0.4798
17:23:19:103,-3.1825,6.3194,4.7653,43.4479,0.4281,-0.3264,-0.6765,0.4822
17:23:19:121,-3.3655,6.4989,3.996,43.366,0.0741,-0.3218,-0.3928,0.4832
17:23:19:141,-3.0999,6.5109,4.4172,43.3138,-0.0948,-0.4421,-0.2841,0.4828
17:23:19:161,-2.7302,6.3565,5.2857,42.9948,-0.2094,-0.5542,-0.1426,0.481
17:23:19:181,-2.1141,6.542,6.2548,42.8866,-0.2585,-0.6868,0.0269,0.4784
17:23:19:201,-1.212,6.9858,7.4213,42.8981,-0.2698,-0.7054,0.1793,0.4753
17:23:19:222,-0.0491,7.6415,8.1619,42.6446,-0.1999,-0.4556,0.2447,0.4705
17:23:19:241,0.4164,8.7182,7.6164,42.3242,-0.0127,-0.1932,0.1243,0.4706
17:23:19:262,-0.0766,9.6335,5.7691,42.2833,0.1446,-0.2595,-0.0785,0.4713
17:23:19:281,-0.8662,9.8345,4.4207,42.1871,0.0701,-0.6254,-0.2511,0.4706
17:23:19:301,-1.3101,9.1179,4.8562,41.9934,-0.1483,-0.8282,-0.2862,0.4683
17:23:19:322,-1.1689,8.4455,6.0742,42.08,-0.2512,-0.7634,-0.2807,0.4659
17:23:19:340,-1.279,7.8461,6.8722,41.8972,-0.1263,-0.6248,-0.3009,0.465
17:23:19:363,-1.9645,7.139,5.5537,41.718,0.3065,-0.5957,-0.2275,0.466
17:23:19:380,-2.2014,7.0696,4.8407,41.8695,0.3392,-0.7158,-0.1802,0.4678
17:23:19:400,-2.2576,7.0588,4.7821,41.8679,0.2408,-0.7921,-0.1072,0.4693
17:23:19:422,-1.9226,7.2359,5.0201,41.7942,0.0545,-0.677,-0.0357,0.4697
17:23:19:440,-1.547,7.675,5.141,41.5538,-0.1455,-0.4824,-0.0195,0.4685
17:23:19:461,-1.3304,8.0734,5.129,41.6044,-0.2772,-0.5539,-0.0501,0.4661
17:23:19:482,-1.1306,7.9202,5.592,41.4642,-0.3887,-0.7695,-0.04,0.4578
17:23:19:503,-0.5133,7.6786,6.6532,41.5859,-0.4962,-0.8413,0.0211,0.4522
17:23:19:522,-0.0191,7.5123,7.7145,41.2725,-0.4913,-0.7033,0.0122,0.4475
17:23:19:541,-0.0981,7.145,7.9023,40.9931,-0.2796,-0.5832,0.0318,0.445
17:23:19:561,-0.4032,6.9523,7.1175,41.0547,0.0078,-0.6382,0.0965,0.4444
17:23:19:581,-0.4798,6.9057,6.1735,41.0659,0.1914,-0.7204,0.2065,0.4446
17:23:19:602,-0.1902,7.4524,5.3288,41.2373,0.2301,-0.732,0.2489,0.4448
17:23:19:622,-0.0861,8.187,4.6911,41.2285,0.1593,-0.764,0.1695,0.4444
17:23:19:641,-0.1711,8.7326,5.1661,41.089,-0.1309,-0.8685,-0.0987,0.4428
17:23:19:661,-0.3529,8.4766,5.9186,41.1274,-0.1975,-0.7891,-0.2511,0.4403
17:23:19:680,-0.6903,8.0758,6.1603,41.5071,-0.1657,-0.6968,-0.3442,0.4379
17:23:19:701,-1.0935,7.8401,5.9797,41.6839,-0.119,-0.6694,-0.3546,0.436
17:23:19:720,-1.346,7.7767,5.9426,41.5736,-0.1153,-0.6529,-0.3091,0.4342
17:23:19:741,-1.4883,7.7695,5.9892,41.3945,-0.1452,-0.5695,-0.223,0.43
17:23:19:762,-1.401,7.8975,5.9785,41.362,-0.2127,-0.4665,-0.1029,0.4272
17:23:19:781,-1.1079,8.0913,6.0993,41.545,-0.2692,-0.3926,0.0342,0.4241
17:23:19:801,-0.6305,8.2768,6.3565,41.7672,-0.2747,-0.4045,0.1607,0.4208
17:23:19:822,0.012,8.4694,6.6556,41.7635,-0.2677,-0.3716,0.2663,0.4176
17:23:19:841,0.5444,8.6369,6.8279,41.7027,-0.2527,-0.3267,0.3063,0.4146
17:23:19:861,0.8267,8.5831,6.9643,41.9358,-0.1776,-0.3395,0.3201,0.4124
17:23:19:882,0.9093,8.1117,7.0229,42.2161,0.031,-0.4207,0.2657,0.4108
17:23:19:901,0.6855,7.5745,6.8363,42.4648,0.1327,-0.3184,0.2471,0.4102
17:23:19:921,0.4092,7.2957,6.2871,42.7296,0.2185,-0.2531,0.2599,0.4106
17:23:19:942,0.3302,7.1091,5.7464,42.6378,0.2781,-0.2705,0.2871,0.4115
17:23:19:961,0.6736,7.0792,5.4353,42.7194,0.2882,-0.2839,0.2941,0.4127
17:23:19:981,1.127,7.1821,5.2235,42.8922,0.2353,-0.2014,0.255,0.4138
17:23:20:002,1.4656,7.4201,5.0058,43.0715,0.14,-0.0799,0.197,0.4151
17:23:20:022,1.6331,7.8054,4.8598,43.1269,0.0499,0.0243,0.1274,0.4153
17:23:20:042,1.5422,8.2277,4.7438,43.198,-0.0255,0.0582,0.0724,0.415
17:23:20:062,1.4034,8.5292,4.9484,43.162,-0.0756,0.0356,0.0602,0.4145
17:23:20:081,1.3651,8.6512,5.3515,43.4044,-0.0878,0.0432,0.0706,0.4141
17:23:20:102,1.2826,8.6776,5.8241,43.5184,-0.0386,0.0689,0.0962,0.4142
17:23:20:122,1.1174,8.6022,6.1292,44.0402,0.0686,0.0713,0.1316,0.4152
17:23:20:142,0.9344,8.4933,6.1496,44.3777,0.1721,0.1067,0.1741,0.4167
17:23:20:162,0.7789,8.2528,5.927,44.5337,0.2143,0.1852,0.3018,0.4183
17:23:20:180,1.0074,7.6044,5.9725,44.9281,0.2378,0.2579,0.3836,0.4199
17:23:20:200,1.3292,7.5888,5.7523,45.2293,0.2787,0.3942,0.4136,0.4218
17:23:20:221,1.3639,7.5757,5.1912,45.6522,0.3047,0.5029,0.409,0.4242
17:23:20:241,1.322,7.5159,4.7031,45.6194,0.3071,0.542,0.4255,0.4268
17:23:20:262,1.395,7.7097,4.3549,45.8714,0.2644,0.5234,0.438,0.4314
17:23:20:282,1.5326,7.858,4.2843,45.7007,0.1513,0.4571,0.4154,0.4324
17:23:20:301,1.6989,7.6714,4.9041,45.761,0.0362,0.4522,0.4068,0.4326
17:23:20:322,1.7958,7.4333,5.5418,45.7754,0.0005,0.5307,0.4078,0.4328
17:23:20:341,1.7109,7.255,5.9007,45.6918,0.046,0.6193,0.4398,0.4336
17:23:20:361,1.6164,7.3017,5.7188,45.6877,0.1217,0.6767,0.4875,0.4348
17:23:20:381,1.5972,7.5182,5.3551,45.7556,0.1605,0.6837,0.515,0.4361
17:23:20:403,1.5888,7.6451,5.0297,46.0406,0.0756,0.6825,0.5165,0.4371
17:23:20:421,1.7228,7.7384,5.2223,45.9994,0.0267,0.6895,0.5034,0.4376
17:23:20:440,1.7587,7.6044,5.5633,46.1883,0.0374,0.7262,0.4826,0.438
17:23:20:461,1.6522,7.4357,5.5561,46.1381,0.0609,0.7567,0.4786,0.4385
17:23:20:481,1.6439,7.3352,5.4281,46.5208,0.0554,0.7634,0.4875,0.439
17:23:20:501,1.7372,7.2168,5.4209,46.559,0.0243,0.7588,0.5134,0.4393
17:23:20:522,1.9896,7.2455,5.5107,46.8425,-0.013,0.7457,0.5363,0.4389
17:23:20:542,2.2373,7.3304,5.7284,46.6765,-0.0469,0.735,0.54,0.4382
17:23:20:561,2.3725,7.3591,5.9426,46.7433,-0.0545,0.7121,0.5315,0.4375
17:23:20:581,2.3988,7.3878,6.1843,47.0269,-0.0386,0.6718,0.5366,0.4369
17:23:20:601,2.4239,7.4644,6.4247,47.1377,-0.0182,0.6248,0.551,0.4364
17:23:20:622,2.3976,7.5087,6.7023,47.3759,0.005,0.6101,0.5837,0.436
17:23:20:643,2.467,7.5876,6.8985,47.0758,0.038,0.6574,0.6255,0.4359
17:23:20:679,2.6321,7.7216,6.877,47.1787,0.0933,0.786,0.6359,0.4363
17:23:20:681,2.2828,8.0518,5.683,47.0689,0.2561,0.9986,0.5709,0.4377
17:23:20:700,1.7886,8.1224,4.794,47.3373,0.2808,0.9714,0.551,0.4396
17:23:20:721,1.3292,8.2122,4.3382,47.465,0.2216,0.8517,0.5473,0.4415
17:23:20:741,1.0552,8.0518,4.7306,47.4757,0.1269,0.8114,0.5806,0.4428
17:23:20:760,1.127,7.9346,5.336,47.3598,0.0707,0.9103,0.6103,0.4432
17:23:20:782,1.0361,7.9908,5.5011,47.5174,0.0576,1.0121,0.6093,0.443
17:23:20:801,0.7597,7.9537,5.4796,47.926,0.0493,1.0435,0.6289,0.4427
17:23:20:821,0.5707,7.7791,5.6064,48.046,0.0371,1.0411,0.6872,0.4422
17:23:20:842,0.6879,7.608,5.9007,48.2406,0.0496,1.0368,0.7608,0.4418
17:23:20:861,0.8913,7.5242,6.1496,48.2962,0.0878,1.071,0.8125,0.4415
17:23:20:881,1.011,7.4178,6.0969,48.188,0.1235,1.1128,0.854,0.4414
17:23:20:900,1.1557,7.3711,5.9988,48.2507,0.1434,1.1168,0.8873,0.4412
17:23:20:921,1.3866,7.3663,5.9844,48.5337,0.1431,1.1055,0.8864,0.441
17:23:20:940,1.5948,7.2766,6.1149,48.5455,0.1214,1.1474,0.8567,0.4403
17:23:20:959,1.4297,7.2179,5.9833,48.517,0.1294,1.377,0.8167,0.4395
17:23:20:980,1.1821,7.3508,5.7392,48.5811,0.115,1.3291,0.8054,0.4386
17:23:20:999,1.2203,7.2503,6.0981,48.6348,0.1009,1.3172,0.8039,0.4376
17:23:21:019,1.3711,7.1593,6.3733,48.6723,0.1126,1.4235,0.7853,0.4364
17:23:21:041,1.3819,7.2168,6.2812,48.6973,0.1345,1.5359,0.7676,0.4335
17:23:21:061,1.395,7.3496,5.8552,48.9738,0.1593,1.5426,0.7391,0.4322
17:23:21:080,1.4177,7.3938,5.5896,48.8744,0.1486,1.454,0.6979,0.4308
17:23:21:100,1.4895,7.3113,5.7392,48.978,0.1049,1.3749,0.6588,0.4291
17:23:21:120,1.5374,7.1486,6.2967,48.9714,0.0823,1.3428,0.6167,0.4272
17:23:21:141,1.4919,6.9416,6.7286,49.3044,0.1031,1.3425,0.5837,0.4252
17:23:21:160,1.4285,6.8076,7.005,49.181,0.1379,1.3752,0.5855,0.4234
17:23:21:181,1.5051,6.7394,6.9978,49.0643,0.1724,1.3633,0.6145,0.4219
17:23:21:200,1.7791,6.8004,7.1198,49.333,0.2124,1.279,0.6484,0.4209
17:23:21:219,2.4263,6.8937,7.3747,49.3377,0.2766,1.1788,0.6888,0.4202
17:23:21:239,2.2935,6.9129,7.2479,49.425,0.3169,1.1984,0.7156,0.4197
17:23:21:260,1.8628,7.2203,6.7896,49.5145,0.3526,1.0728,0.7886,0.4196
17:23:21:280,2.0052,7.949,6.5755,49.3956,0.3453,0.7876,0.8351,0.4203
17:23:21:301,2.54,8.9037,7.005,49.2706,0.2595,0.48,0.7596,0.4228
17:23:21:321,3.0556,9.4445,7.7731,49.5765,0.1052,0.3761,0.577,0.4224
17:23:21:340,3.2495,9.5498,8.5472,50.0866,0.0002,0.4519,0.3955,0.4212
17:23:21:360,3.3607,9.5127,8.9061,50.1898,0.0783,0.527,0.2279,0.4208
17:23:21:380,3.2746,9.46,8.4239,50.2329,0.2757,0.5133,0.0531,0.4219
17:23:21:400,2.9204,9.2411,7.3173,50.4114,0.4415,0.3966,-0.1292,0.4242
17:23:21:421,2.3306,8.6309,6.0538,50.6442,0.4928,0.2729,-0.2911,0.4266
17:23:21:443,0.5408,7.0481,4.0702,51.2152,0.3031,0.1684,-0.4633,0.4283
17:23:21:461,-0.3159,6.597,3.7113,51.3843,0.184,0.133,-0.5232,0.4292
17:23:21:481,-1.1581,6.2058,3.6933,51.4918,0.0884,0.152,-0.5748,0.4291
17:23:21:501,-1.9549,5.9127,3.5282,51.4048,0.0347,0.1822,-0.6035,0.4282
17:23:21:520,-2.9695,5.6818,3.4277,51.6335,-0.0359,0.1352,-0.576,0.4268
17:23:21:540,-4.1025,5.5537,3.6371,51.8419,-0.1217,0.0417,-0.4658,0.425
17:23:21:562,-5.1003,5.3731,3.9362,51.9832,-0.2149,-0.1083,-0.2428,0.4232
17:23:21:582,-5.3839,5.4509,4.2389,51.9393,-0.3703,-0.2329,0.0764,0.4212
17:23:21:601,-4.7761,5.939,4.8347,51.5313,-0.6776,-0.2598,0.3894,0.4127
17:23:21:623,-3.1178,6.6556,6.6676,51.7158,-0.9827,-0.0783,0.5617,0.4048
17:23:21:641,-1.3208,7.2311,8.528,51.746,-1.0337,0.3022,0.5522,0.3961
17:23:21:662,-0.122,7.6164,9.338,51.9526,-0.8389,0.6443,0.4676,0.3882
17:23:21:681,0.5384,7.8114,8.9539,52.1071,-0.5475,0.9073,0.4145,0.382
17:23:21:703,0.8973,7.9801,7.8915,52.1424,-0.264,1.0505,0.427,0.3778
17:23:21:722,1.2873,8.8056,5.1242,52.323,0.1422,0.8108,0.2798,0.3759
17:23:21:742,0.7095,8.9958,4.0738,52.3932,0.1458,0.4501,0.0651,0.3758
17:23:21:760,-0.4164,8.6034,4.0187,52.6702,-0.0478,0.184,-0.1484,0.3759
17:23:21:781,-1.4776,7.675,4.6708,52.9015,-0.3053,0.1193,-0.201,0.3744
17:23:21:800,-2.1858,6.9858,5.6423,53.1756,-0.4589,0.1321,-0.1594,0.371
17:23:21:821,-2.6046,6.481,6.5192,53.3442,-0.4293,0.1373,-0.0684,0.3668
17:23:21:843,-2.7446,6.2381,6.926,53.3861,-0.3099,0.1367,0.066,0.3632
17:23:21:861,-2.6453,6.28,6.8925,53.6122,-0.2228,0.1623,0.2178,0.3585
17:23:21:881,-2.3234,6.5982,6.792,53.7797,-0.2014,0.1849,0.3644,0.3567
17:23:21:901,-1.7133,7.0253,6.786,53.9011,-0.1865,0.2289,0.4731,0.3552
17:23:21:920,-1.1007,7.474,6.6114,54.0188,-0.1538,0.2378,0.5177,0.3542
17:23:21:941,-0.5503,7.7683,6.457,54.1884,-0.133,0.2191,0.5018,0.3534
17:23:21:962,-0.1507,7.9047,6.3793,54.5068,-0.1058,0.2161,0.4343,0.3528
17:23:21:981,-0.1603,7.8999,6.1316,54.5705,-0.0704,0.2063,0.3314,0.3524
17:23:22:001,-1.2574,7.6331,5.8301,54.6911,-0.068,0.0542,0.2599,0.3523
17:23:22:021,-1.7803,7.5924,6.0419,54.9474,-0.1147,-0.1303,0.321,0.3524
17:23:22:041,-1.7767,7.4728,6.8136,55.2598,-0.1883,-0.3502,0.4612,0.353
17:23:22:061,-1.1139,7.395,8.0459,55.5334,-0.2173,-0.4635,0.6408,0.3538
17:23:22:082,-0.1771,7.5099,9.271,55.9727,-0.1016,-0.4485,0.7776,0.3578
17:23:22:102,0.7657,7.864,10.057,56.0304,0.1953,-0.3291,0.8451,0.3625
17:23:22:121,1.3567,8.4826,9.6419,56.2096,0.5625,-0.1471,0.8234,0.3686
17:23:22:142,1.6499,9.3272,7.9813,56.4182,0.7066,-0.0234,0.7349,0.3745
17:23:22:161,1.803,10.2341,6.4869,56.593,0.5313,-0.0032,0.5556,0.3784
17:23:22:182,1.6618,10.8598,6.0347,56.7163,0.1568,-0.0899,0.2407,0.3797
17:23:22:201,1.1067,10.1982,7.2048,56.7258,-0.0997,-0.1605,-0.0837,0.3798
17:23:22:223,0.0502,8.6859,8.5926,56.8481,0.2912,-0.0921,-0.2248,0.3807
17:23:22:242,-1.0768,7.4871,8.7314,56.8785,0.5356,-0.1446,-0.1029,0.3836
17:23:22:260,-2.0495,5.8301,7.4178,56.9837,0.5985,-0.1956,0.0562,0.388
17:23:22:280,-1.6774,5.0728,7.2622,56.7525,0.5502,-0.1226,0.2135,0.3926
17:23:22:301,-1.1127,4.4794,7.0158,57.0949,0.4895,0.0921,0.3763,0.3962
17:23:22:320,-0.5013,4.2676,6.5839,57.4139,0.4656,0.2967,0.5705,0.3988
17:23:22:342,0.4786,4.4806,6.2776,57.4314,0.5011,0.3844,0.7104,0.4012
17:23:22:362,1.4369,4.9854,5.7655,57.5188,0.5432,0.3529,0.7361,0.4072
17:23:22:381,2.1033,5.5789,5.1302,57.7188,0.4531,0.2979,0.6869,0.4095
17:23:22:401,2.5711,6.061,4.6851,58.0483,0.2146,0.2772,0.6096,0.4097
17:23:22:421,2.9324,6.4534,4.7198,58.1812,-0.0823,0.3056,0.5366,0.4079
17:23:22:442,3.1286,6.9511,5.1063,58.7992,-0.2766,0.3438,0.456,0.4051
17:23:22:461,3.0939,7.4237,5.5466,59.0609,-0.2995,0.3038,0.3134,0.4028
17:23:22:483,2.2947,7.4512,5.9019,59.1202,-0.0686,0.1694,0.0327,0.4015
17:23:22:502,1.9155,7.4477,5.6088,59.4964,-0.0564,0.2405,-0.0553,0.4004
17:23:22:521,1.6223,7.5529,5.3635,59.5481,-0.1278,0.3532,-0.1231,0.3985
17:23:22:541,1.3388,7.6534,5.403,59.5136,-0.1886,0.4299,-0.1897,0.3955
17:23:22:560,0.9787,7.5398,5.5968,59.5086,-0.1846,0.4638,-0.2599,0.3919
17:23:22:581,0.5683,7.2694,5.5418,59.8863,-0.1617,0.5255,-0.2996,0.3882
17:23:22:601,0.1484,6.9858,5.3946,59.8084,-0.1767,0.5799,-0.3024,0.3841
17:23:22:622,-0.2237,6.6197,5.3731,59.85,-0.1773,0.5961,-0.2312,0.3756
17:23:22:641,-0.4654,6.3817,5.3396,59.7986,-0.1816,0.5728,-0.0941,0.3717
17:23:22:661,-0.4905,6.347,5.4736,59.6832,-0.2078,0.5087,0.0712,0.3682
17:23:22:698,-0.1675,6.3266,5.8373,59.9928,-0.2411,0.436,0.2181,0.3649
17:23:22:700,0.384,6.4092,6.3984,60.3506,-0.2509,0.4076,0.3311,0.362
17:23:22:720,1.005,6.4953,6.877,60.5759,-0.1932,0.3642,0.3989,0.3601
17:23:22:743,1.6905,6.6305,7.0983,60.5762,-0.1153,0.2973,0.4297,0.3587
17:23:22:762,2.3498,6.883,7.2431,60.5892,-0.0664,0.3532,0.4187,0.357
17:23:22:781,3.003,7.7635,6.7011,60.614,-0.1028,0.4736,0.161,0.3548
17:23:22:801,2.9504,7.6738,6.926,60.935,-0.1532,0.3951,-0.007,0.3522
17:23:22:821,2.6859,7.3723,7.2993,61.1984,-0.1458,0.323,-0.0699,0.3496
17:23:22:840,2.5472,7.5075,7.3735,61.1544,-0.1388,0.2301,-0.0538,0.3473
17:23:22:860,2.4347,8.2313,7.59,61.3614,-0.1666,0.0951,-0.0589,0.3455
17:23:22:881,2.3414,8.997,8.1846,61.163,-0.2054,-0.0148,-0.2028,0.3423
17:23:22:900,1.7982,8.857,8.9623,61.0658,-0.1724,-0.0264,-0.4242,0.3406
17:23:22:921,0.9308,8.205,9.283,61.0915,-0.0573,0.0066,-0.5507,0.3393
17:23:22:942,0.0359,7.6271,9.003,61.0592,0.0719,0.0374,-0.5415,0.3386
17:23:22:961,-0.6437,7.6235,8.4407,60.9988,0.152,0.02,-0.4615,0.3386
17:23:22:981,-0.9511,8.1165,7.9645,61.0055,0.1449,-0.0851,-0.4322,0.3389
17:23:23:002,-1.1737,8.2337,7.9418,61.2415,0.0405,-0.2118,-0.4881,0.3387
17:23:23:023,-1.3484,7.6463,8.2684,61.2881,-0.0625,-0.2393,-0.5247,0.3378
17:23:23:041,-1.4979,6.0646,8.3988,61.5449,0.0756,-0.0875,-0.6026,0.3367
17:23:23:062,-2.0028,5.263,7.7779,61.5441,0.3419,0.0735,-0.6405,0.3363
17:23:23:080,-2.735,4.6851,6.262,61.7238,0.5612,0.2011,-0.6454,0.337
17:23:23:101,-3.5127,4.4758,4.5404,61.8598,0.5328,0.1376,-0.5861,0.3383
17:23:23:121,-4.1252,4.5033,3.746,62.0325,0.2622,-0.1199,-0.4203,0.3397
17:23:23:143,-3.9482,4.4961,4.1276,62.0576,-0.1532,-0.3532,-0.1793,0.3403
17:23:23:161,-2.8594,4.7186,5.5406,61.7398,-0.5508,-0.4491,0.0284,0.3356
17:23:23:181,-1.5254,5.1194,7.2993,61.5421,-0.7592,-0.3697,0.1362,0.3309
17:23:23:201,-0.3422,5.5382,8.6225,61.5691,-0.6868,-0.1605,0.1381,0.3266
17:23:23:221,0.3852,6.0012,8.9647,61.7212,-0.37,0.1067,0.0706,0.324
17:23:23:242,0.4379,6.4822,7.8245,61.6318,0.0032,0.2121,-0.0308,0.3236
17:23:23:263,-0.1699,7.2933,4.672,61.3607,0.1856,0.1355,-0.12,0.3244
17:23:23:282,-0.3984,7.5673,4.0666,61.1691,-0.1226,-0.1443,-0.3131,0.3248
17:23:23:301,-0.9009,7.468,4.3023,61.0783,-0.4155,-0.2372,-0.4554,0.3234
17:23:23:320,-1.4249,7.1079,5.2558,61.3964,-0.6034,-0.3025,-0.5583,0.3202
17:23:23:340,-1.9214,6.8028,6.4152,61.3486,-0.6587,-0.3425,-0.6271,0.3159
17:23:23:360,-2.4562,6.5444,7.1713,61.3687,-0.6425,-0.3813,-0.6411,0.3113
17:23:23:380,-2.8965,6.2548,7.6379,61.3864,-0.5921,-0.4586,-0.5718,0.3069
17:23:23:402,-3.0461,6.0299,8.266,61.3611,-0.4977,-0.5203,-0.43,0.3035
17:23:23:421,-2.7302,6.0838,8.6142,61.5853,-0.3169,-0.4775,-0.2755,0.3004
17:23:23:442,-2.3856,6.3685,8.5687,61.6568,-0.1284,-0.3884,-0.1768,0.3007
17:23:23:461,-2.0746,6.7059,8.0794,61.6303,0.016,-0.2518,-0.1252,0.3015
17:23:23:482,-2.0351,7.1354,7.1916,61.5373,0.0536,-0.2195,-0.135,0.3024
17:23:23:502,-2.2289,7.1306,6.7621,61.5979,-0.0047,-0.2424,-0.1573,0.3029
17:23:23:523,-2.4742,6.8303,6.9284,61.7493,-0.0362,-0.1935,-0.1432,0.3031
17:23:23:543,-3.2818,6.5408,6.4798,61.6864,0.0356,-0.3416,-0.0434,0.3041
17:23:23:560,-3.1825,6.2213,6.7059,61.9233,-0.0365,-0.6449,0.1423,0.3061
17:23:23:581,-2.394,6.2058,7.8401,61.8493,-0.1507,-0.837,0.3592,0.3086
17:23:23:601,-1.2311,6.2788,9.4002,62.0152,-0.1568,-0.7711,0.5424,0.3109
17:23:23:620,-0.0694,6.5683,10.4315,62.2053,0.0661,-0.5499,0.7007,0.3135
17:23:23:641,0.8961,7.3938,9.9984,62.2493,0.4024,-0.326,0.7865,0.3176
17:23:23:662,1.5003,8.4814,8.3821,62.4243,0.5328,-0.2854,0.7669,0.3296
17:23:23:681,2.0973,9.5198,7.0265,62.3614,0.3477,-0.4614,0.6478,0.3347
17:23:23:701,2.6501,10.0857,7.1725,62.7094,0.0005,-0.7002,0.3824,0.3377
17:23:23:721,2.6584,9.6048,8.7589,62.5789,-0.2143,-0.7023,0.0254,0.3389
17:23:23:742,1.7934,8.4215,9.9123,62.8043,-0.1318,-0.5059,-0.2367,0.3404
17:23:23:762,0.5456,7.34,9.7268,62.6407,0.1523,-0.4501,-0.343,0.3439
17:23:23:782,-0.4738,5.4867,8.5771,62.823,0.5692,-0.56,-0.3051,0.3493
17:23:23:803,-0.5037,4.5392,8.0303,62.8058,0.6843,-0.4308,-0.2422,0.3551
17:23:23:821,-0.3697,3.8812,7.3448,62.8215,0.8218,-0.2072,-0.1518,0.3613
17:23:23:840,-0.3326,3.5354,6.1627,62.7223,0.9207,0.0985,-0.0791,0.3674
17:23:23:861,-0.4247,3.5258,4.7689,62.6678,0.9033,0.359,-0.0119,0.3729
17:23:23:880,-0.3948,3.8405,3.2566,62.5119,0.7259,0.4125,0.0525,0.3774
17:23:23:901,-0.1507,4.3693,2.4072,62.5112,0.3447,0.2161,0.1191,0.3804
17:23:23:923,0.0861,4.8718,2.7003,62.7224,-0.2002,0.0102,0.1836,0.3781
17:23:23:941,0.4283,5.056,4.0522,62.8415,-0.7616,0.0224,0.3149,0.371
17:23:23:961,1.1294,5.5406,5.7703,62.9365,-1.1611,0.1352,0.4627,0.3615
17:23:23:981,1.8269,6.1615,7.5601,62.9275,-1.2338,0.1678,0.5275,0.3529
17:23:24:002,2.3533,6.7944,9.0102,63.0726,-0.9644,0.0823,0.5043,0.3474
17:23:24:021,2.6979,7.2634,9.46,63.1669,-0.5423,-0.0148,0.4178,0.3451
17:23:24:043,2.8798,7.4847,9.0844,63.616,-0.2173,-0.0111,0.3118,0.3441
17:23:24:063,2.9635,7.5553,8.351,63.7101,-0.0793,0.1162,0.2019,0.3432
17:23:24:082,2.6812,7.3735,6.8865,63.825,-0.0817,0.2946,-0.0709,0.3418
17:23:24:101,2.1918,6.9583,6.3171,63.7317,-0.0661,0.287,-0.1686,0.3401
17:23:24:120,1.7695,6.6509,5.8672,64.0061,-0.0347,0.1856,-0.2046,0.3388
17:23:24:141,1.4847,6.4463,5.6662,64.0347,-0.0304,0.0759,-0.241,0.3382
17:23:24:160,1.1222,6.0598,5.8193,64.1082,-0.0704,0.024,-0.2593,0.3377
17:23:24:182,0.7035,5.7488,5.9737,64.2003,-0.1397,0.06,-0.2217,0.3348
17:23:24:201,0.3494,5.7081,6.073,64.173,-0.2335,0.079,-0.1347,0.3324
17:23:24:221,0.3338,5.8301,6.5324,64.0756,-0.3016,0.0389,-0.04,0.3299
17:23:24:241,0.6437,5.9713,7.2012,64.0694,-0.3202,0.0292,0.04,0.3274
17:23:24:262,1.2168,6.2213,7.9167,64.2371,-0.2665,0.0866,0.087,0.3253
17:23:24:281,1.9466,6.5504,8.3545,64.1253,-0.1284,0.1675,0.0476,0.3241
17:23:24:303,2.3844,6.7956,8.3318,64.1893,0.0478,0.2182,-0.0809,0.3239
17:23:24:323,2.2074,6.3218,7.6917,64.3125,0.1898,0.2146,-0.3063,0.3243
17:23:24:341,2.2804,6.1448,7.858,64.2968,0.1978,0.2323,-0.2584,0.3245
17:23:24:360,2.8175,6.6329,7.9537,64.4027,0.2857,0.2396,-0.2162,0.325
17:23:24:381,3.1418,7.5326,7.7551,64.389,0.4271,0.2179,-0.2801,0.3265
17:23:24:401,3.0114,8.3569,7.0887,64.3297,0.5127,0.181,-0.4343,0.3292
17:23:24:421,2.5256,8.9504,6.4965,64.3206,0.4293,0.1132,-0.6451,0.3321
17:23:24:443,1.8879,9.2028,6.6126,64.4091,0.1785,0.0466,-0.9242,0.3332
17:23:24:462,0.8865,8.4861,7.6582,64.4856,-0.0673,-0.0139,-1.175,0.3309
17:23:24:481,-0.2261,7.2383,9.2447,64.5033,-0.1132,-0.0072,-1.2675,0.3284
17:23:24:501,-1.2778,6.1376,10.3729,64.4988,0.0982,0.0915,-1.2074,0.3275
17:23:24:521,-2.193,5.4102,10.3035,64.0952,0.44,0.1825,-0.9862,0.3291
17:23:24:542,-2.5807,5.6387,9.2399,64.3055,0.6373,0.1318,-0.6799,0.332
17:23:24:561,-2.3306,6.3386,8.3605,64.3456,0.5597,-0.009,-0.4099,0.3348
17:23:24:582,-0.5922,7.1426,9.2375,63.9936,0.3535,-0.1235,-0.2355,0.3368
17:23:24:600,-0.0323,6.8937,9.5904,63.6458,0.5087,-0.0127,-0.2627,0.3392
17:23:24:621,-0.4678,6.1149,8.6142,63.3901,0.8807,0.1242,-0.4527,0.3433
17:23:24:641,-1.7252,5.1577,6.5252,63.1658,1.1241,0.181,-0.551,0.3493
17:23:24:661,-2.7745,4.5811,4.3717,62.6936,1.0924,0.0982,-0.5431,0.3561
17:23:24:680,-3.5976,4.5176,2.9838,62.691,0.8041,-0.1654,-0.4432,0.3625
17:23:24:703,-3.7759,4.599,2.7757,62.4669,0.3428,-0.4421,-0.2691,0.3674
17:23:24:721,-2.9599,4.7593,3.7747,62.2656,-0.1889,-0.5395,-0.08,0.3677
17:23:24:741,-1.6092,5.1529,5.6279,62.2427,-0.5686,-0.4143,-0.0119,0.3633
17:23:24:762,-0.7274,5.5621,7.1127,62.1911,-0.6406,-0.1996,-0.0382,0.3587
17:23:24:781,-0.3661,5.9665,7.5769,62.084,-0.4635,-0.0753,-0.084,0.3556
17:23:24:801,-0.3003,6.4451,7.1186,62.0934,-0.2271,-0.0835,-0.1014,0.3544
17:23:24:821,-0.2632,7.1533,6.3769,62.1358,-0.1147,-0.1822,-0.1133,0.354
17:23:24:843,-0.1591,7.7001,5.878,62.1247,-0.2106,-0.359,-0.3079,0.3535
17:23:24:862,-0.481,7.9932,5.6136,61.891,-0.2976,-0.4348,-0.4704,0.3523
17:23:24:881,-1.0875,7.663,5.86,61.5694,-0.37,-0.5243,-0.628,0.3505
17:23:24:901,-1.6845,7.0684,6.2728,61.1412,-0.4012,-0.5774,-0.7156,0.3482
17:23:24:920,-2.3055,6.6485,6.8291,61.1288,-0.37,-0.6055,-0.7358,0.3457
17:23:24:941,-2.8199,6.1914,7.2036,60.7937,-0.3068,-0.6046,-0.6924,0.3434
17:23:24:962,-3.1753,5.8768,7.3771,60.3652,-0.2405,-0.5634,-0.577,0.3403
17:23:24:981,-3.3141,5.811,7.3759,60.2042,-0.1578,-0.5307,-0.4291,0.3398
17:23:25:001,-3.216,5.9976,7.1569,59.9262,-0.0704,-0.5041,-0.2889,0.3402
17:23:25:021,-2.9958,6.3374,6.8004,59.7301,-0.0166,-0.4699,-0.1793,0.3409
17:23:25:042,-2.6967,6.7585,6.3936,59.8193,-0.0258,-0.4733,-0.1084,0.3416
17:23:25:062,-2.3617,7.188,6.3494,60.0815,-0.0649,-0.4727,-0.0721,0.3422
17:23:25:081,-2.0841,7.4656,6.4582,59.9182,-0.0814,-0.4669,-0.0721,0.3428
17:23:25:104,-1.8353,7.8209,6.603,60.0668,0.0212,-0.3526,-0.1393,0.3437
17:23:25:121,-2.3163,7.8174,6.1663,60.0845,0.067,-0.3364,-0.222,0.3449
17:23:25:141,-2.9743,7.5159,5.8875,60.0727,0.0557,-0.451,-0.2495,0.3464
17:23:25:161,-3.2171,7.0014,6.1149,59.9688,-0.027,-0.5902,-0.1561,0.3478
17:23:25:181,-2.7948,6.8052,6.987,59.8939,-0.137,-0.6651,0.0183,0.3487
17:23:25:201,-1.8628,7.0158,8.4335,59.7478,-0.1083,-0.6461,0.16,0.3491
17:23:25:222,-0.7478,7.5206,9.6754,59.6365,0.1788,-0.5157,0.1964,0.3544
17:23:25:243,-0.1783,8.1392,9.131,59.6764,0.5282,-0.2906,0.1228,0.3598
17:23:25:262,0.0323,8.6716,7.2168,59.8269,0.5799,-0.214,0.037,0.3643
17:23:25:281,0.3458,9.1705,5.9246,59.9389,0.2695,-0.2928,-0.0754,0.3659
17:23:25:301,0.6808,9.3248,6.3003,59.9329,-0.1309,-0.4088,-0.2077,0.3651
17:23:25:321,0.8267,8.7972,7.5015,59.9887,-0.3276,-0.531,-0.314,0.3634
17:23:25:342,0.7932,8.2086,8.4491,59.9408,-0.3856,-0.6617,-0.3198,0.3613
17:23:25:363,0.9212,7.681,9.0808,59.763,-0.4562,-0.79,-0.2776,0.3586
17:23:25:380,1.4345,5.8552,11.3336,59.5814,-0.5118,-0.9439,0.0214,0.3555
17:23:25:401,2.4455,5.3061,12.2082,59.2479,-0.1758,-0.6834,0.1848,0.3534
17:23:25:421,3.058,5.1159,10.9926,58.8036,0.3447,-0.316,0.135,0.3543
17:23:25:441,2.6297,4.6337,8.3593,58.4177,0.7497,-0.1825,-0.0373,0.3587
17:23:25:461,1.8736,3.8166,5.732,58.308,0.8957,-0.2106,-0.1115,0.3656
17:23:25:482,1.4489,3.4062,3.8273,58.1682,0.7903,-0.4003,-0.0861,0.3796
17:23:25:501,1.6367,3.4648,3.1896,58.1438,0.5243,-0.6092,-0.0348,0.3839
17:23:25:521,2.4251,3.9075,3.4002,58.0925,0.1727,-0.6996,-0.0385,0.3852
17:23:25:541,3.3858,4.5775,3.9745,58.086,-0.2118,-0.6687,-0.1497,0.3833
17:23:25:563,4.0463,5.2104,4.6983,58.0294,-0.5567,-0.5719,-0.3403,0.3784
17:23:25:580,4.197,5.7739,5.4652,57.9859,-0.8114,-0.4458,-0.5757,0.3717
17:23:25:601,3.7699,6.0634,6.1125,57.9825,-0.9158,-0.4177,-0.7883,0.3647
17:23:25:623,2.9372,6.1508,6.6939,57.8049,-0.8948,-0.5826,-0.9041,0.3584
17:23:25:640,1.7994,6.3314,8.5292,57.5475,-0.783,-0.958,-0.7785,0.3527
17:23:25:662,1.7791,6.6006,9.8261,57.4131,-0.6709,-1.0062,-0.6698,0.3477
17:23:25:681,2.0423,6.798,10.8778,57.4448,-0.4418,-0.9296,-0.6139,0.3439
17:23:25:701,2.1739,6.8686,11.2092,57.0679,-0.1345,-0.8013,-0.6228,0.3422
17:23:25:720,2.1236,6.6257,10.855,57.0163,0.1706,-0.6474,-0.6393,0.3429
17:23:25:742,2.0554,6.341,10.0176,56.8624,0.4381,-0.5118,-0.6384,0.3508
17:23:25:763,1.9119,6.1531,9.003,56.6171,0.6446,-0.469,-0.6292,0.3572
17:23:25:782,1.8221,6.0311,7.9717,56.1747,0.7625,-0.5053,-0.646,0.3644
17:23:25:801,1.6786,5.8181,7.2024,56.1552,0.8016,-0.6098,-0.6872,0.3718
17:23:25:821,1.4895,5.6207,6.81,55.9496,0.7891,-0.724,-0.7291,0.379
17:23:25:842,1.1797,5.5202,6.6269,55.6913,0.7475,-0.7564,-0.7559,0.3857
17:23:25:861,0.7298,5.7954,6.4475,55.7139,0.6849,-0.7063,-0.7752,0.3916
17:23:25:883,0.3075,6.6006,6.0455,55.7494,0.3147,-0.7378,-0.9123,0.396
17:23:25:900,0.0754,7.0014,6.5468,55.4893,0.0774,-0.9464,-1.0424,0.3984
17:23:25:921,0.256,6.3362,8.0997,55.5065,0.0472,-0.8648,-1.1075,0.3994
17:23:25:940,0.3745,5.8768,8.7374,55.4949,0.2531,-0.5234,-1.0647,0.4007
17:23:25:960,0.3673,6.0179,7.7133,55.5801,0.4604,-0.2515,-0.9404,0.4037
17:23:25:981,0.6724,6.682,6.1866,55.5983,0.433,-0.221,-0.7779,0.4075
17:23:26:001,1.4536,7.6439,5.5561,55.4995,0.2045,-0.3297,-0.6915,0.4114
17:23:26:022,2.0435,8.2708,5.7571,55.5465,-0.0237,-0.4024,-0.741,0.4112
17:23:26:042,1.9322,8.3354,6.1615,55.3394,-0.0658,-0.4247,-0.8564,0.4116
17:23:26:062,1.1976,8.0937,6,55.4824,0.1034,-0.5212,-0.9829,0.4138
17:23:26:081,0.1567,7.5553,5.251,55.3649,0.3196,-0.7451,-1.1304,0.4172
17:23:26:101,-1.0481,6.81,4.4136,55.3036,0.37,-0.9922,-1.2251,0.4199
17:23:26:122,-2.0339,6.2429,3.9697,54.9357,0.1794,-1.2087,-1.1805,0.4199
17:23:26:143,-2.3007,6.2154,4.4758,54.9006,-0.1742,-1.2897,-1.0684,0.4167
17:23:26:160,-1.8102,6.652,6.7502,54.6078,-0.7656,-0.9843,-1.066,0.4107
17:23:26:181,-1.9896,6.6999,7.7575,54.4565,-0.7998,-0.8395,-1.1234,0.4035
17:23:26:201,-2.4156,6.4355,8.3593,54.426,-0.6492,-0.7778,-1.0944,0.3967
17:23:26:221,-2.7218,6.055,8.394,54.309,-0.4229,-0.7283,-0.9401,0.3915
17:23:26:241,-2.6345,6.1424,7.8401,54.2826,-0.2524,-0.684,-0.697,0.3879
17:23:26:263,-2.2409,6.7047,7.3041,54.1629,-0.1654,-0.6752,-0.4866,0.3832
17:23:26:282,-1.7252,7.1653,6.8865,54.062,-0.0799,-0.7533,-0.3415,0.382
17:23:26:302,-1.1677,7.657,6.5767,53.9287,0.0176,-0.8804,-0.2782,0.3813
17:23:26:321,-0.6508,8.0459,6.3529,54.1068,0.064,-0.9445,-0.3198,0.3808
17:23:26:340,-0.3984,8.2636,6.122,54.0097,0.056,-0.9577,-0.4618,0.3803
17:23:26:362,-0.6185,8.0231,5.8983,53.7266,0.0273,-1.0243,-0.6503,0.3793
17:23:26:381,-1.1737,7.3364,6.0156,53.5043,-0.0084,-1.1525,-0.7825,0.378
17:23:26:402,-2.2433,5.8074,6.6568,53.3031,0.0072,-1.1724,-0.8042,0.3765
17:23:26:421,-2.7003,5.318,6.7047,53.4059,0.0127,-1.0731,-0.6857,0.3749
17:23:26:440,-2.4072,5.2666,6.6401,53.5752,-0.0447,-0.9326,-0.5113,0.3732
17:23:26:460,-1.4871,5.8325,6.6341,53.3122,-0.2158,-0.7811,-0.3949,0.3706
17:23:26:480,-0.5097,6.6497,6.7561,53.3935,-0.5017,-0.6495,-0.3491,0.3663
17:23:26:500,0.1663,7.1366,7.4357,53.2013,-0.7833,-0.5286,-0.2902,0.3599
17:23:26:522,0.4965,7.1306,8.2361,53.1833,-0.8856,-0.4,-0.098,0.344
17:23:26:543,1.0217,7.7121,8.6859,53.0717,-0.7366,-0.3716,0.2071,0.3375
17:23:26:561,1.8293,9.0353,8.5747,52.9723,-0.443,-0.4968,0.383,0.3331
17:23:26:581,2.4036,10.1396,8.004,52.8574,-0.2191,-0.6926,0.2807,0.3299
17:23:26:601,2.4658,10.0331,7.596,52.5733,-0.2118,-0.7689,0.0064,0.3269
17:23:26:621,2.0243,8.9492,7.9131,52.3811,-0.2396,-0.6193,-0.2065,0.3248
17:23:26:641,1.5817,7.8437,8.2672,52.0261,-0.0777,-0.4766,-0.3601,0.325
17:23:26:663,1.0098,6.7645,8.0435,52.1049,0.2207,-0.3367,-0.4215,0.3277
17:23:26:682,0.7597,5.9474,5.7452,52.0457,0.4806,-0.1828,-0.3607,0.3317
17:23:26:717,1.2945,5.9868,5.1996,51.9552,0.3893,-0.2644,-0.3519,0.3354
17:23:26:720,1.852,5.8684,5.2618,51.7779,0.224,-0.3086,-0.3598,0.3378
17:23:26:740,2.2851,5.6638,5.6375,51.6683,0.0603,-0.2622,-0.3427,0.3388
17:23:26:760,2.4682,5.6782,6.1173,51.7736,-0.0527,-0.2271,-0.2856,0.3387
17:23:26:782,2.5543,5.6411,6.5874,51.8382,-0.0994,-0.2243,-0.1936,0.3361
17:23:26:802,2.601,5.9892,6.7394,51.829,-0.1379,-0.2546,-0.0867,0.3338
17:23:26:821,2.7302,6.664,6.8327,51.6973,-0.2164,-0.2921,-0.0101,0.3308
17:23:26:841,2.8905,7.4728,7.1031,51.7036,-0.2812,-0.3181,-0.007,0.3277
17:23:26:863,2.93,7.9478,7.6056,51.8359,-0.2488,-0.3523,-0.1054,0.3256
17:23:26:881,2.6967,7.8461,8.0806,52.007,-0.0838,-0.3703,-0.2465,0.3252
17:23:26:902,2.3103,7.5338,7.8317,51.9217,0.0909,-0.2949,-0.3656,0.3264
17:23:26:922,1.8975,7.3723,7.1474,51.7237,0.1849,-0.162,-0.4676,0.3288
17:23:26:941,1.4489,7.2742,6.39,51.7666,0.2369,-0.0557,-0.5803,0.332
17:23:26:961,0.5575,7.1629,4.9926,51.8061,0.199,-0.0765,-0.7355,0.3353
17:23:26:980,0.0754,7.054,4.9711,51.7982,0.0402,-0.159,-0.7333,0.3376
17:23:27:000,-0.0706,6.95,5.5119,51.7421,-0.1532,-0.1532,-0.686,0.3383
17:23:27:021,-0.2668,6.8602,6.2453,51.7024,-0.3096,-0.0893,-0.6261,0.3374
17:23:27:042,-0.5527,6.6233,7.0828,51.4394,-0.3447,-0.035,-0.5388,0.334
17:23:27:062,-0.737,6.28,7.5721,51.469,-0.2509,0.0331,-0.3995,0.3332
17:23:27:083,-0.8136,6.1352,7.5458,51.5386,-0.1049,0.0591,-0.223,0.3331
17:23:27:102,-0.8973,6.1364,7.3543,51.4037,0.0108,0.0203,-0.0458,0.3334
17:23:27:121,-0.7956,6.1819,7.2957,51.4249,0.0796,0.0096,0.1319,0.3339
17:23:27:141,-0.3458,6.4403,7.1486,51.4737,0.122,0.1009,0.2465,0.3351
17:23:27:163,0.0514,6.7645,6.7442,51.3635,0.1559,0.2103,0.2676,0.3368
17:23:27:183,0.1795,7.0804,6.1854,51.1952,0.0735,0.235,0.1686,0.3385
17:23:27:202,-0.2644,7.413,5.9306,51.3438,-0.0493,0.1739,0.1219,0.3393
17:23:27:221,-0.5252,7.2168,6.3506,51.4214,-0.1443,0.1712,0.1405,0.3392
17:23:27:240,-0.6054,7.2503,6.7837,51.4678,-0.1987,0.1675,0.1662,0.3384
17:23:27:261,-0.5563,7.0911,7.212,51.4706,-0.214,0.1752,0.1848,0.3372
17:23:27:281,-0.5743,6.81,7.5888,51.3103,-0.1764,0.2323,0.2077,0.336
17:23:27:302,-0.6927,6.4343,7.6606,51.1797,-0.0793,0.2949,0.2556,0.3358
17:23:27:322,-0.7059,6.1567,7.2993,51.3423,0.0322,0.3667,0.3207,0.337
17:23:27:341,-0.6473,6.0933,6.5898,51.4539,0.0667,0.4223,0.376,0.3381
17:23:27:361,-0.4834,6.1161,6.0407,51.3084,0.0069,0.4314,0.4233,0.3385
17:23:27:381,-0.3039,6.1543,5.8732,51.1789,-0.089,0.4033,0.4465,0.3381
17:23:27:401,-0.146,6.1627,6.055,51.039,-0.1626,0.3832,0.4737,0.3372
17:23:27:421,0.1125,6.3721,6.1591,51.0969,-0.2118,0.3474,0.4826,0.3356
17:23:27:441,0.256,6.5659,6.4678,51.1135,-0.2763,0.3077,0.4866,0.3335
17:23:27:461,0.6879,6.8148,7.1474,50.9426,-0.3978,0.2335,0.5137,0.3307
17:23:27:480,1.0493,6.8518,7.7827,50.7048,-0.4381,0.144,0.5449,0.3272
17:23:27:500,1.5817,6.8411,8.6297,50.4955,-0.3926,0.1092,0.5742,0.3233
17:23:27:520,2.1416,6.9296,9.204,50.5419,-0.2424,0.1361,0.5852,0.32
17:23:27:541,2.5579,7.1581,9.1896,50.3783,-0.0017,0.1941,0.5479,0.3184
17:23:27:560,2.5137,7.3184,8.3677,50.4169,0.2051,0.2191,0.4655,0.319
17:23:27:582,2.2887,7.401,7.2299,50.1209,0.2851,0.1862,0.3864,0.3234
17:23:27:601,2.0674,7.4166,6.2847,50.148,0.2274,0.1031,0.3057,0.3249
17:23:27:622,1.8628,7.4824,5.9976,50.3349,0.0826,0.0286,0.212,0.3252
17:23:27:641,1.5242,7.2574,6.3649,50.1611,-0.0347,0.046,0.1176,0.3252
17:23:27:662,1.06,6.9679,6.6987,50.1381,-0.0389,0.0915,0.062,0.3255
17:23:27:682,0.5551,6.7729,6.7095,50.0574,0.0102,0.0948,0.025,0.3261
17:23:27:702,0.1196,6.5288,6.6975,50.0482,0.0249,0.0845,0.0202,0.3265
17:23:27:721,-0.3266,5.939,6.8231,49.8915,-0.0741,0.1495,0.1426,0.3265
17:23:27:741,-0.2166,5.787,7.0373,49.7565,-0.1086,0.1361,0.2517,0.3258
17:23:27:761,0.1854,5.726,7.34,49.6885,-0.1022,0.129,0.3674,0.3248
17:23:27:781,0.8925,5.8875,7.5039,49.5897,-0.0542,0.1428,0.452,0.3238
17:23:27:800,1.4836,6.2536,7.4297,49.6945,-0.0218,0.155,0.4939,0.3231
17:23:27:821,2.083,6.7202,7.3364,49.7535,0.009,0.1523,0.4945,0.3227
17:23:27:842,2.5412,7.2203,7.1677,49.5274,0.0463,0.1116,0.4392,0.323
17:23:27:861,2.8774,7.6893,7.0409,49.4427,0.0667,0.082,0.3164,0.3238
17:23:27:881,2.9085,7.8939,6.7741,49.4104,0.0704,0.1016,0.1323,0.3248
17:23:27:901,2.4191,7.7982,6.3517,49.3802,0.042,0.0893,-0.0599,0.3257
17:23:27:921,1.6666,7.3627,6.2716,49.1571,-0.0069,0.0347,-0.1842,0.3261
17:23:27:941,1.078,6.8375,6.4582,49.0894,-0.046,0.016,-0.2297,0.3262
17:23:27:963,0.6604,6.4774,6.5659,49.1262,-0.0817,0.0301,-0.2327,0.3258
17:23:27:981,0.1017,6.012,6.7394,48.886,-0.1217,0.0564,-0.2016,0.3252
17:23:28:001,0.0754,6.0335,6.8399,49.1412,-0.1629,0.0619,-0.0525,0.3242
17:23:28:021,0.2261,6.2273,7.06,49.1232,-0.1584,0.0457,0.0183,0.323
17:23:28:040,0.4331,6.4762,7.273,48.9984,-0.1355,0.0719,0.0699,0.3218
17:23:28:060,0.7083,6.8088,7.3448,48.9637,-0.0835,0.1077,0.0846,0.321
17:23:28:081,0.9607,7.1294,7.3316,48.8517,-0.0224,0.1156,0.0504,0.3209
17:23:28:102,1.0804,7.3053,7.3771,48.6675,0.0252,0.1391,-0.0229,0.3223
17:23:28:121,0.9823,7.3256,7.2873,48.1742,0.0536,0.2109,-0.0971,0.3237
17:23:28:141,0.719,7.3208,7.1426,48.2912,0.0881,0.2735,-0.1503,0.3257
17:23:28:161,0.518,7.346,6.8734,48.0363,0.1135,0.2842,-0.1991,0.3278
17:23:28:181,0.2871,7.2706,6.8363,48.2532,0.1116,0.3041,-0.2462,0.33
17:23:28:201,0.0048,7.1486,6.9308,48.3503,0.1009,0.3795,-0.2633,0.3322
17:23:28:222,-0.2512,7.1474,6.9344,48.4547,0.1025,0.4339,-0.277,0.3346
17:23:28:242,-0.8877,7.2634,6.5767,48.5278,0.0964,0.4577,-0.3063,0.3368
17:23:28:260,-1.1797,7.3077,6.1615,48.4051,-0.1623,0.4757,-0.3228,0.3379
17:23:28:281,-1.2251,7.4273,6.0383,48.5682,-0.4464,0.3306,-0.3109,0.337
17:23:28:301,-0.9966,7.2873,6.8794,48.3931,-0.7237,0.1602,-0.2856,0.3333
17:23:28:321,-0.9416,6.9476,8.4694,48.2527,-0.8413,0.0365,-0.2269,0.3272
17:23:28:341,-0.7047,6.4427,10.1013,47.8864,-0.6318,0.0435,-0.1319,0.321
17:23:28:363,-0.4331,6.3015,10.3238,47.6472,-0.2082,0.1489,-0.0296,0.3174
17:23:28:381,-0.3697,6.5216,9.1525,47.5688,0.1147,0.2647,0.0583,0.3194
17:23:28:401,-0.4714,6.6867,7.7623,47.5576,0.202,0.3884,0.026,0.3222
17:23:28:421,-0.9906,6.213,6.9069,47.434,0.2149,0.495,-0.0324,0.3256
17:23:28:441,-1.6403,5.6674,6.0885,47.3012,0.2332,0.6129,-0.0498,0.3292
17:23:28:461,-2.2576,5.269,5.1601,46.9724,0.1709,0.7799,-0.0299,0.3321
17:23:28:483,-3.3739,5.0381,4.3167,47.0292,-0.203,0.7732,0.066,0.3334
17:23:28:502,-3.4528,4.8503,4.7892,46.9629,-0.4494,0.7124,0.1298,0.3327
17:23:28:521,-3.2746,4.7031,5.4927,46.9121,-0.7506,0.6962,0.1906,0.3294
17:23:28:541,-2.9767,4.5559,6.7837,46.7949,-0.991,0.7259,0.2746,0.3235
17:23:28:561,-2.5627,4.3908,8.1093,46.519,-1.0175,0.7781,0.4038,0.3162
17:23:28:582,-2.2672,4.4602,8.7972,46.6366,-0.8593,0.7708,0.5174,0.3094
17:23:28:601,-2.3115,4.7139,8.7338,46.6403,-0.6657,0.6541,0.5867,0.304
17:23:28:622,-2.4431,4.8383,8.4933,46.7383,-0.5307,0.4073,0.6451,0.2957
17:23:28:641,-2.1906,4.7761,8.2672,46.401,-0.5811,0.1764,0.711,0.2896
17:23:28:663,-1.6367,4.7665,8.5328,46.1844,-0.8758,0.0249,0.7468,0.2805
17:23:28:682,-1.0158,4.5978,9.7244,46.0389,-1.1861,0.0075,0.7422,0.2693
17:23:28:701,-0.6353,4.2808,11.2283,45.7992,-1.2387,0.0533,0.7095,0.2592
17:23:28:738,-0.5898,3.8943,12.128,45.6535,-0.9253,0.1794,0.7489,0.2531
17:23:28:741,-0.8495,3.7436,11.5119,45.2378,-0.4326,0.3105,0.8784,0.2511
17:23:28:761,-0.7956,4.4626,8.8044,44.737,0.0612,0.3624,1.0983,0.2514
17:23:28:781,-0.7178,4.7509,7.9238,44.5319,0.0585,0.4097,1.0592,0.2525
17:23:28:801,-0.9966,4.9376,7.3089,44.3031,0.0136,0.3294,0.9694,0.2535
17:23:28:821,-1.2849,4.9591,7.1366,44.177,-0.0447,0.1132,0.8784,0.2539
17:23:28:841,-1.3496,4.7821,7.657,43.8661,-0.1214,-0.0735,0.8115,0.2535
17:23:28:861,-1.194,4.5691,8.5519,43.6937,-0.1947,-0.0625,0.7364,0.2522
17:23:28:883,-1.334,4.276,9.3153,43.4501,-0.1984,0.0948,0.6716,0.249
17:23:28:901,-1.608,4.0415,9.4971,43.4948,-0.1126,0.2512,0.653,0.2485
17:23:28:920,-1.7599,3.9015,9.1872,43.5378,-0.0008,0.349,0.6756,0.249
17:23:28:941,-1.9071,3.9218,8.6955,43.3505,0.0854,0.3541,0.7245,0.2503
17:23:28:962,-1.8724,4.0786,8.4718,43.3197,0.1654,0.3264,0.7785,0.2522
17:23:28:982,-1.7121,4.3047,8.1846,43.446,0.2359,0.2644,0.8155,0.2547
17:23:29:002,-1.5494,4.5942,8.0853,43.4376,0.2396,0.1006,0.854,0.2571
17:23:29:022,-1.3759,4.8658,8.3163,43.3666,0.2246,0.1058,0.868,0.2593
17:23:29:042,-0.6197,5.4006,9.283,43.277,0.246,0.2036,0.8311,0.2614
17:23:29:061,-0.5432,5.8708,9.0915,43.1278,0.279,0.2411,0.6921,0.2639
17:23:29:080,-0.877,6.0526,8.8343,43.1013,0.2769,0.0835,0.5782,0.2666
17:23:29:101,-0.8495,5.9617,9.1167,43.2023,0.2063,-0.0655,0.5901,0.269
17:23:29:120,-0.1962,6.0132,9.7304,43.3466,0.1324,-0.0154,0.6616,0.2706
17:23:29:142,0.6245,6.3087,10.0714,42.8773,0.1501,0.1849,0.6768,0.2736
17:23:29:161,1.1354,6.8327,9.734,42.6119,0.2411,0.3407,0.6118,0.2762
17:23:29:182,1.2359,7.2383,9.0245,42.4568,0.323,0.3822,0.4969,0.2795
17:23:29:201,0.9392,7.4201,8.2983,42.3045,0.3319,0.2937,0.3176,0.2826
17:23:29:221,0.0443,7.0851,8.0674,42.1043,0.2714,0.1132,0.1161,0.2852
17:23:29:240,-0.95,6.2082,8.4203,42.2098,0.2213,-0.0759,0.0058,0.2872
17:23:29:262,-1.7444,5.3049,9.0544,42.1105,0.1605,-0.2317,0.0012,0.2882
17:23:29:283,-1.6283,3.4684,11.1565,41.9068,0.1009,-0.0906,0.3506,0.2886
17:23:29:301,-0.9368,2.9731,11.7966,41.9743,0.3083,0.2494,0.602,0.2894
17:23:29:321,-0.1507,2.8415,11.0728,42.2815,0.6804,0.5548,0.8085,0.2927
17:23:29:341,0.4582,2.948,9.3512,42.2356,0.9965,0.6782,0.9398,0.2991
17:23:29:360,0.9488,2.9551,7.8879,42.3221,1.1015,0.7274,1.0522,0.3076
17:23:29:381,1.4668,3.009,6.7047,42.7216,1.0417,0.8224,1.179,0.3164
17:23:29:402,2.211,3.4552,5.5777,42.5257,0.8541,0.8135,1.2556,0.33
17:23:29:421,3.0748,4.008,5.0824,42.4742,0.6361,0.6913,1.2773,0.3345
17:23:29:441,3.9458,4.666,5.0309,42.4976,0.4714,0.4574,1.2321,0.338
17:23:29:462,4.4148,5.4867,5.1015,42.5036,0.3007,0.2417,1.0956,0.34
17:23:29:482,4.4853,6.2812,5.251,42.4702,0.0725,0.0579,0.9132,0.3403
17:23:29:501,4.3286,6.786,5.7224,42.5454,-0.1196,-0.0673,0.7239,0.3396
17:23:29:522,4.0893,7.0301,6.3625,42.5227,-0.1917,-0.1602,0.5321,0.3387
17:23:29:542,3.7531,7.1414,6.7107,42.2512,-0.1642,-0.1859,0.325,0.3382
17:23:29:560,2.796,7.0193,6.6317,41.9795,-0.118,-0.2008,-0.0486,0.3379
17:23:29:581,2.1631,6.7394,6.7825,41.8645,-0.1397,-0.1883,-0.2172,0.3374
17:23:29:600,1.5075,6.1998,7.0624,41.7961,-0.1449,-0.1608,-0.3268,0.3367
17:23:29:621,1.0528,5.6172,7.1414,41.7008,-0.1541,-0.0625,-0.3399,0.3357
17:23:29:641,0.719,5.3252,6.9751,41.4707,-0.1898,0.0472,-0.2841,0.3342
17:23:29:662,0.585,5.2606,6.8578,41.4119,-0.2173,0.0732,-0.1817,0.3303
17:23:29:682,0.7143,5.2941,7.0074,41.5654,-0.1929,0.0347,-0.0767,0.3289
17:23:29:702,1.0516,5.4353,7.2718,41.3537,-0.1034,0.0224,0.0024,0.3283
17:23:29:722,1.3938,5.7296,7.2467,41.4858,-0.0151,0.0695,0.0342,0.3284
17:23:29:741,1.6307,6.0371,7.078,41.4874,0.0499,0.0948,0.0302,0.329
17:23:29:761,1.7946,6.3171,6.9188,41.5053,0.0783,0.079,-0.0018,0.3297
17:23:29:783,1.9131,6.5492,6.9224,41.3743,0.0576,0.0496,-0.0434,0.3302
17:23:29:802,2.3569,6.8554,7.9932,41.5812,-0.0111,0.0426,-0.2257,0.3303
17:23:29:822,2.3151,6.7789,8.6788,41.4011,0.0481,0.1388,-0.3693,0.3304
17:23:29:841,1.8006,6.5276,9.1167,41.0322,0.1654,0.2225,-0.4508,0.331
17:23:29:861,1.5027,6.4343,9.2375,40.857,0.3166,0.2592,-0.4157,0.3326
17:23:29:880,1.6223,7.0062,9.0233,40.89,0.4268,0.2347,-0.3992,0.3353
17:23:29:901,1.7551,7.7049,8.8881,40.6756,0.4439,0.1852,-0.4856,0.3387
17:23:29:922,1.6319,8.1081,8.9097,40.5521,0.3832,0.2201,-0.6561,0.3445
17:23:29:941,1.1498,8.0782,8.8965,40.5056,0.2845,0.2808,-0.8454,0.3461
17:23:29:961,0.5599,7.6331,9.0975,40.2029,0.2243,0.3276,-0.9365,0.3474
17:23:29:982,-0.0072,7.2108,9.2758,40.274,0.2778,0.3199,-0.9343,0.3494
17:23:30:002,-0.5085,6.804,9.0915,40.046,0.3932,0.276,-0.8238,0.3523
17:23:30:021,-0.6963,6.7095,8.4885,40.1181,0.4638,0.1553,-0.6384,0.3559
17:23:30:042,-0.5348,6.9236,8.3725,40.0331,0.4925,-0.0053,-0.5043,0.3599
17:23:30:062,-0.6341,6.3398,8.266,39.989,0.6813,0.0078,-0.5351,0.3646
17:23:30:081,-1.3555,5.5454,7.5876,39.7635,0.8599,0.097,-0.6399,0.3705
17:23:30:101,-2.5196,4.7677,6.4319,39.7076,1.0029,0.1859,-0.6997,0.3777
17:23:30:120,-3.5581,4.3789,5.08,39.7615,1.0023,0.1755,-0.6668,0.3855
17:23:30:141,-4.1025,4.3262,4.2317,39.664,0.8016,0.0035,-0.5666,0.3926
17:23:30:160,-3.947,4.3753,4.1683,39.7578,0.4427,-0.1972,-0.4423,0.3976
17:23:30:181,-3.3224,4.2772,4.8299,39.4749,-0.0234,-0.2738,-0.3268,0.3969
17:23:30:201,-2.6668,4.1121,6.1256,39.2788,-0.4699,-0.2509,-0.19,0.3912
17:23:30:221,-2.0171,3.9948,7.7204,38.8675,-0.7063,-0.1336,-0.0101,0.3847
17:23:30:240,-1.3507,4.1468,8.8271,38.7872,-0.6141,0.0115,0.2053,0.3802
17:23:30:262,-0.6437,4.7414,8.9085,38.7794,-0.2531,0.0579,0.4456,0.3794
17:23:30:280,0.3302,5.9282,8.0614,38.3405,0.1379,-0.024,0.6051,0.3817
17:23:30:301,1.2742,7.1845,6.8411,38.0534,0.3444,-0.1483,0.5797,0.3851
17:23:30:322,1.4393,8.674,5.1446,38.1581,0.3236,-0.2576,0.365,0.3878
17:23:30:341,0.7896,8.7135,4.9208,38.3961,-0.1174,-0.3771,-0.3213,0.3885
17:23:30:360,-0.0658,8.339,5.2032,38.4924,-0.3401,-0.5597,-0.6435,0.387
17:23:30:380,-0.9488,7.4979,6.1424,38.821,-0.473,-0.7653,-0.8748,0.3838
17:23:30:401,-1.7228,6.6245,7.2921,38.6927,-0.48,-0.8361,-0.9502,0.3798
17:23:30:421,-2.2409,6.0012,8.0794,38.5734,-0.3859,-0.8135,-0.9307,0.3757
17:23:30:442,-2.534,5.6507,8.4981,38.5251,-0.214,-0.7485,-0.8314,0.3708
17:23:30:461,-2.5591,5.6985,8.339,38.4606,-0.068,-0.6761,-0.7135,0.3698
17:23:30:481,-2.4203,6.0096,8.0758,38.0034,-0.0099,-0.6211,-0.6255,0.3694
17:23:30:501,-2.205,6.1819,8.0195,37.7684,0.0454,-0.5557,-0.5531,0.3697
17:23:30:521,-2.0794,6.3972,7.6056,37.4793,0.1358,-0.5386,-0.4869,0.3707
17:23:30:541,-1.986,6.6939,7.0828,37.2649,0.1791,-0.6159,-0.4227,0.3719
17:23:30:561,-1.7085,6.9428,6.8889,37.3331,0.1596,-0.6672,-0.383,0.3729
17:23:30:582,-1.395,7.1761,6.9033,37.108,0.1425,-0.64,-0.412,0.3739
17:23:30:603,-2.1129,7.0696,6.3266,37.0436,0.1443,-0.6058,-0.5159,0.3749
17:23:30:621,-2.6022,6.7729,6.1687,37.0555,0.0689,-0.6636,-0.6075,0.3756
17:23:30:641,-2.8893,6.5791,6.3099,37.2455,-0.0389,-0.7271,-0.5333,0.3755
17:23:30:660,-2.8439,6.6162,7.0457,37.0709,-0.1358,-0.7915,-0.4004,0.3743
17:23:30:680,-2.2445,6.8016,7.9872,37.065,-0.1141,-0.7839,-0.2779,0.3725
17:23:30:702,-1.5182,7.1103,8.3964,37.0546,0.02,-0.7567,-0.2272,0.3715
17:23:30:721,-0.9093,7.2861,8.467,36.8502,0.1663,-0.71,-0.2312,0.3728
17:23:30:742,-0.4463,7.3555,8.2696,36.8653,0.2802,-0.5738,-0.2453,0.375
17:23:30:761,-0.1854,7.346,7.6367,36.7468,0.3346,-0.5182,-0.2471,0.3774
17:23:30:781,0.061,7.4142,7.1976,36.6547,0.3196,-0.6452,-0.2337,0.3793
17:23:30:801,0.1651,7.4345,7.1737,36.4222,0.2579,-0.8563,-0.2187,0.3803
17:23:30:821,0.4116,7.3819,7.4237,36.1266,0.1608,-0.9702,-0.1698,0.3802
17:23:30:843,1.0349,7.6319,7.4656,35.9006,0.0466,-0.9797,-0.1136,0.3791
17:23:30:860,1.2491,7.48,7.6546,35.595,-0.1843,-1.0615,-0.1921,0.3768
17:23:30:881,1.4046,6.9488,8.0411,35.5148,-0.1831,-1.0518,-0.2541,0.374
17:23:30:901,1.4357,6.3661,7.9669,35.4898,-0.0564,-0.9867,-0.2847,0.3717
17:23:30:920,1.3998,5.921,7.4536,35.4632,0.1101,-0.9488,-0.3176,0.3708
17:23:30:941,1.2395,5.3898,6.7358,35.237,0.2188,-0.8954,-0.3421,0.3711
17:23:30:962,1.0564,5.0489,5.9653,35.086,0.2152,-0.8407,-0.318,0.3724
17:23:30:982,1.0516,4.9938,5.5071,35.3818,0.1144,-0.7824,-0.263,0.3718
17:23:31:001,1.1976,5.1111,5.409,35.5147,-0.0341,-0.7485,-0.2248,0.37
17:23:31:021,1.5242,5.196,5.6554,35.589,-0.1642,-0.7472,-0.1875,0.3672
17:23:31:041,2.0076,5.4162,5.8828,35.3882,-0.2503,-0.7744,-0.1365,0.3636
17:23:31:061,2.5328,5.8325,6.1232,35.0367,-0.3267,-0.7912,-0.1042,0.3594
17:23:31:081,2.8905,6.3422,6.39,34.9695,-0.3859,-0.7708,-0.1118,0.355
17:23:31:103,2.9468,6.853,6.542,34.9775,-0.4064,-0.7549,-0.2291,0.3507
17:23:31:121,2.6931,7.7791,6.6329,34.942,-0.4281,-0.8178,-0.3384,0.3465
17:23:31:140,2.5831,7.8389,7.194,34.7257,-0.4186,-0.8413,-0.4536,0.3423
17:23:31:160,2.4371,7.6977,7.681,34.5723,-0.3422,-0.7763,-0.5376,0.3385
17:23:31:180,2.3258,7.5517,7.8269,34.3719,-0.2201,-0.6666,-0.602,0.3358
17:23:31:201,2.1033,7.3196,7.5757,34.4809,-0.0964,-0.5524,-0.6576,0.3343
17:23:31:222,1.7037,6.9691,7.2048,34.7041,0.0142,-0.4653,-0.6698,0.3348
17:23:31:242,1.3304,6.6245,6.743,34.7518,0.0967,-0.4158,-0.6264,0.3359
17:23:31:261,1.0983,6.402,6.2596,34.9419,0.1278,-0.3935,-0.5473,0.337
17:23:31:281,0.9906,6.1914,5.8612,34.9057,0.111,-0.399,-0.4539,0.3377
17:23:31:302,0.9488,6.0945,5.5825,34.916,0.0542,-0.3911,-0.3302,0.3375
17:23:31:321,1.0732,6.2572,5.3767,34.9804,-0.0359,-0.3499,-0.1988,0.3366
17:23:31:340,1.3005,6.6497,5.3707,34.9816,-0.126,-0.2873,-0.1228,0.3352
17:23:31:362,1.2144,7.346,5.4485,35.0162,-0.2033,-0.0814,-0.1857,0.334
17:23:31:381,0.877,7.5314,5.2678,34.8702,-0.2482,-0.017,-0.266,0.3328
17:23:31:401,0.5085,7.5171,5.342,34.829,-0.3019,0.0255,-0.3225,0.3315
17:23:31:421,0.2213,7.4596,5.5633,34.8342,-0.3267,0.0744,-0.3311,0.3301
17:23:31:442,0.067,7.5194,5.811,34.6768,-0.3312,0.1416,-0.3125,0.3286
17:23:31:461,-0.0718,7.6845,5.988,34.9439,-0.3395,0.2216,-0.2874,0.3272
17:23:31:481,-0.0754,7.9047,6.2656,34.8885,-0.3441,0.2882,-0.2605,0.3248
17:23:31:502,0.0455,7.9992,6.8674,34.9422,-0.3068,0.3673,-0.2395,0.3244
17:23:31:521,0.0108,8.0076,7.3866,34.8634,-0.2082,0.4369,-0.2086,0.3249
17:23:31:541,-0.0419,8.0327,7.7803,34.9715,-0.0701,0.5231,-0.157,0.3268
17:23:31:561,-0.055,8.0901,7.925,34.9344,0.0738,0.6318,-0.117,0.3301
17:23:31:582,-0.1256,7.9346,7.9609,34.8231,0.221,0.7338,-0.0901,0.3348
17:23:31:602,-0.2201,7.5948,7.8844,35.1329,0.4009,0.8471,-0.0464,0.3412
17:23:31:622,-0.3302,7.3651,6.8997,34.8078,0.6846,1.0062,0.0602,0.3489
17:23:31:641,-0.3063,7.3065,6.6855,34.8591,0.7439,1.0954,0.1191,0.3573
17:23:31:660,-0.25,7.523,6.4977,34.9382,0.8132,1.2344,0.1521,0.3664
17:23:31:681,-0.457,8.1009,5.7081,34.8708,0.8334,1.3163,0.1078,0.3762
17:23:31:702,-0.9392,8.6991,4.5715,34.7684,0.6355,1.1538,0.0211,0.3855
17:23:31:720,-1.3388,8.7817,4.7426,34.7466,0.2023,0.8007,-0.0589,0.3918
17:23:31:742,-1.3519,7.8652,6.9153,34.5519,-0.1904,0.6367,-0.0748,0.3932
17:23:31:761,-1.3041,6.9942,9.3105,34.3851,-0.2479,0.8251,0.0003,0.3937
17:23:31:781,-1.6582,6.4283,9.9003,34.4135,0.0209,1.0628,0.1793,0.3964
17:23:31:802,-1.809,6.4439,8.735,34.3524,0.2472,1.0655,0.4997,0.3995
17:23:31:821,-1.0624,7.4058,7.541,34.1686,0.1578,0.9204,0.7785,0.4009
17:23:31:841,-0.0766,8.3653,7.4967,34.1932,-0.0811,0.9229,0.8778,0.4008
17:23:31:861,0.3087,8.7171,7.3125,34.1783,-0.2136,1.0365,0.8198,0.4008
17:23:31:883,0.1543,8.7529,7.194,34.022,-0.1058,1.0841,0.6026,0.4028
17:23:31:901,-2.5436,6.737,5.2199,34.1195,0.4036,1.0081,0.0183,0.4073
17:23:31:921,-4.0834,5.854,3.9852,34.1406,0.2989,0.8395,0.073,0.412
17:23:31:941,-4.7725,5.3049,3.7053,34.0607,-0.0075,0.6284,0.2847,0.4146
17:23:31:960,-4.392,4.9914,4.4961,33.9571,-0.3413,0.5252,0.5507,0.4141
17:23:31:981,-3.3583,5.0704,5.7763,34.0452,-0.5182,0.5686,0.7361,0.4112
17:23:32:002,-2.3964,5.4209,6.7131,34.1607,-0.4913,0.7295,0.7672,0.4075
17:23:32:023,-1.9825,5.616,6.7753,34.231,-0.4229,0.9287,0.7092,0.402
17:23:32:041,-2.15,5.6148,6.1268,34.1875,-0.4162,1.1165,0.6912,0.3994
17:23:32:061,-2.4108,5.7165,5.1829,33.9571,-0.4824,1.1544,0.7425,0.3962
17:23:32:081,-2.6177,5.945,4.6624,33.6622,-0.5902,1.0453,0.8207,0.392
17:23:32:102,-2.6381,6.2345,4.8933,33.6322,-0.6862,0.8734,0.8967,0.387
17:23:32:121,-2.4742,6.597,5.5035,33.6675,-0.7448,0.739,0.942,0.3816
17:23:32:142,-2.3605,6.9954,6.2453,33.7957,-0.7744,0.6458,0.9398,0.3759
17:23:32:160,-2.0925,7.1892,7.9322,33.4723,-0.6122,0.5325,0.8949,0.3708
17:23:32:180,-1.9573,7.1474,8.321,33.3991,-0.4565,0.5313,0.8839,0.3669
17:23:32:200,-1.742,7.0588,8.4191,33.3959,-0.3206,0.6034,0.8748,0.3641
17:23:32:220,-1.5984,6.8925,7.9681,33.4317,-0.2185,0.7078,0.8647,0.3622
