Time,Acc_X,Acc_Y,Acc_Z,Meg,Gyr_X,Gyr_Y,Gyr_Z,Ore
16:33:19:763,-0.0379,2.6331,9.3353,32.9209,-0.0628,-0.1256,0.1065,-54.7609
16:33:19:775,0.077,2.6018,9.176,32.968,0.0809,-0.2055,0.0649,-54.7609
16:33:19:793,0.0904,2.6012,9.0671,32.9046,0.1821,-0.3098,0.0437,-54.7609
16:33:19:813,0.0217,2.828,9.0037,32.8523,0.1852,-0.4046,0.0458,-54.7609
16:33:19:833,0.0885,2.9187,8.9815,32.8472,0.1075,-0.4578,0.0511,-54.7609
16:33:19:854,0.1941,2.8867,9.0123,32.776,-0.0341,-0.4173,0.0532,-54.7609
16:33:19:873,0.1842,2.905,8.962,32.7923,-0.2044,-0.2055,0.0532,-54.7609
16:33:19:893,-0.2053,3.0388,9.0061,32.8256,-0.444,0.2513,0.0298,-54.7609
16:33:19:915,-0.7202,3.0205,9.2769,32.5145,-0.691,0.6164,0.0298,-54.7609
16:33:19:935,-1.0776,2.8698,9.5433,32.7995,-0.7772,0.7389,0.1129,-54.7609
16:33:19:953,-1.2502,2.7504,9.5745,32.7257,-0.6132,0.7612,0.23,-54.7609
16:33:19:973,-1.2839,2.8122,9.3691,32.8572,-0.3375,0.7144,0.3268,-54.7609
16:33:19:993,-1.4011,3.1812,9.15,32.9562,-0.0341,0.4599,0.4078,-54.7609
16:33:20:014,-1.2977,3.1599,8.8053,33.195,0.2087,0.0447,0.4141,-54.7609
16:33:20:033,-1.0351,3.5161,8.8073,33.1126,0.2534,-0.51,0.3013,-54.7609
16:33:20:053,-0.8447,3.3941,8.7356,33.3773,0.214,-0.6132,0.0713,-54.8565
16:33:20:073,-1.0118,3.3455,8.7534,33.4363,0.1256,-0.379,-0.0447,-54.9531
16:33:20:093,-1.1301,3.2839,8.5631,33.2521,0.0724,0.0277,0.0064,-54.9531
16:33:20:113,-0.8982,3.1108,8.4467,33.2944,-0.0426,0.1341,0.0841,-54.9531
16:33:20:133,-0.7573,3.1584,8.5229,33.0063,-0.1405,0.0905,0.1001,-55.0444
16:33:20:153,-0.8784,3.3538,8.6097,32.872,-0.116,0.1182,0.0841,-55.1377
16:33:20:177,-1.0392,3.3772,8.5212,33.0081,0.0149,0.131,0.1065,-55.231
16:33:20:193,-0.9277,3.2203,8.1143,32.8989,0.1086,0.1022,0.1395,-55.3248
16:33:20:213,-0.7634,3.2366,7.8898,33.0598,0.0234,0.0277,0.1554,-55.4211
16:33:20:233,-0.6078,3.3232,7.9661,33.0093,-0.181,-0.0053,0.132,-55.5223
16:33:20:253,-0.5986,3.2427,8.2922,32.8145,-0.4237,0.1672,0.0724,-55.6273
16:33:20:273,-0.7979,3.192,8.7522,32.5498,-0.6409,0.5291,0.0735,-55.7328
16:33:20:293,-0.7864,3.1045,9.2211,32.563,-0.7091,0.7985,0.164,-55.8374
16:33:20:313,-0.6258,2.9461,9.7048,32.6957,-0.5845,0.5632,0.1874,-55.9464
16:33:20:333,-0.3043,2.7967,10.1616,32.4943,-0.3226,0.0596,0.0713,-56.0638
16:33:20:353,-0.2547,2.8315,10.3185,32.5904,-0.0415,-0.3151,-0.1129,-56.1852
16:33:20:373,-0.3773,2.9909,10.4161,32.7229,0.2097,-0.3907,-0.2087,-56.301
16:33:20:393,-0.3896,3.0612,10.2705,32.7546,0.3843,-0.3205,-0.1863,-56.404
16:33:20:414,-0.584,3.6678,10.1866,32.6449,0.2608,-0.2214,-0.131,-56.4948
16:33:20:432,-0.6317,4.2517,10.6519,32.665,-0.049,-0.0373,-0.1895,-56.4948
16:33:20:452,-0.5413,3.9368,11.4104,32.6433,-0.2002,0.2214,-0.3439,-56.4948
16:33:20:473,-0.8608,3.3651,11.5034,32.5671,-0.0575,0.6462,-0.4844,-56.4948
16:33:20:493,-0.5806,2.1509,10.8418,32.7226,0.0958,0.7304,-0.5238,-56.4948
16:33:20:513,-0.5352,1.3853,10.0841,32.9807,0.0692,0.5323,-0.5227,-56.4948
16:33:20:533,-0.564,1.274,10.0491,33.2313,0.0532,0.3641,-0.4003,-56.4948
16:33:20:553,-0.251,0.8269,9.8448,33.3198,0.1054,0.1629,-0.3407,-56.4948
16:33:20:574,0.1384,0.3873,9.455,33.2521,0.1235,-0.0671,-0.3918,-56.4948
16:33:20:593,0.404,0.3655,9.2697,33.5159,0.0713,-0.3098,-0.412,-56.4948
16:33:20:614,0.7614,0.4227,9.0494,33.3261,-0.0266,-0.4312,-0.3992,-56.4948
16:33:20:633,0.954,0.6441,8.7332,33.0623,-0.116,-0.3322,-0.4003,-56.4948
16:33:20:654,1.0061,1.0451,8.3234,32.7906,-0.1629,-0.0468,-0.4248,-56.4948
16:33:20:676,0.8514,1.411,7.8903,32.6263,-0.2587,0.1491,-0.5121,-56.4948
16:33:20:693,0.5494,1.6415,7.6814,32.2347,-0.4035,0.1661,-0.6931,-56.3955
16:33:20:714,0.097,1.5413,7.6777,32.1584,-0.4621,0.1235,-0.8986,-56.2798
16:33:20:734,-0.4546,1.4922,7.7111,32.4067,-0.3811,0.1288,-0.9837,-56.141
16:33:20:753,-0.8101,1.4707,7.5161,32.5062,-0.2172,0.0969,-0.9316,-55.974
16:33:20:774,-1.1039,1.6258,7.2827,32.6757,-0.1331,-0.0181,-0.8443,-55.7807
16:33:20:793,-1.3429,1.8867,7.4284,32.7915,-0.1725,-0.1618,-0.7761,-55.5655
16:33:20:817,-1.5455,2.1073,7.7134,32.9385,-0.2449,-0.2502,-0.7484,-55.3329
16:33:20:833,-1.752,2.193,8.06,33.047,-0.3694,-0.2268,-0.7261,-55.0833
16:33:20:853,-1.7091,2.1298,8.685,33.2461,-0.5376,-0.1618,-0.625,-54.8184
16:33:20:873,-1.6408,2.1138,9.7957,33.174,-0.6675,-0.23,-0.5153,-54.5432
16:33:20:894,-1.7261,2.1724,10.9703,33.2959,-0.6452,-0.2044,-0.4141,-54.2643
16:33:20:913,-1.9414,2.1881,11.832,33.4147,-0.5057,0.0468,-0.2832,-53.9793
16:33:20:935,-2.1488,2.2097,12.042,33.3674,-0.2757,0.3087,-0.1267,-53.6917
16:33:20:954,-2.3783,2.2825,11.8678,33.4557,-0.0532,0.411,-0.0032,-53.4064
16:33:20:977,-2.6704,2.4089,11.3484,33.4595,0.1033,0.5291,0.1054,-53.1264
16:33:20:993,-2.925,2.4623,10.9941,33.6397,0.0916,0.4195,0.247,-52.8568
16:33:21:013,-2.8419,2.2434,11.2119,33.6896,-0.0138,-0.0554,0.3875,-52.6052
16:33:21:034,-2.524,1.7474,11.7266,33.6566,0.0032,-0.3098,0.4503,-52.3771
16:33:21:054,-2.3374,0.8492,12.3732,33.7001,0.1437,-0.5557,0.3918,-52.172
16:33:21:073,-2.5076,0.0707,12.745,33.614,0.2917,-1.0018,0.2012,-51.989
16:33:21:093,-2.7393,-0.4436,12.7457,33.7987,0.4248,-1.1115,0.1948,-51.8207
16:33:21:114,-2.6023,-0.9936,12.2507,33.5986,0.5589,-0.8964,0.2992,-51.6599
16:33:21:134,-2.2821,-1.2875,11.4143,33.9106,0.5877,-0.642,0.4333,-51.5087
16:33:21:154,-2,-1.1439,10.3796,33.9062,0.5536,-0.2172,0.5717,-51.371
16:33:21:176,-1.7475,-0.6182,9.0423,33.5309,0.5004,0.3247,0.7016,-51.2493
16:33:21:193,-1.4726,-0.1173,7.7288,33.4032,0.3929,0.6324,0.7261,-51.1498
16:33:21:214,-1.3982,0.369,6.6887,33.0027,0.2534,0.6654,0.6782,-51.1498
16:33:21:233,-1.613,0.8919,6.1274,32.9071,0.1597,0.5962,0.6345,-51.1498
16:33:21:253,-1.7811,1.1449,5.6768,32.7395,0.1107,0.4684,0.6313,-51.1498
16:33:21:273,-1.7455,1.2822,5.3865,32.8995,0.0394,0.3002,0.6484,-51.1498
16:33:21:293,-1.5895,1.4344,5.8264,33.1903,-0.0692,-0.1022,0.6281,-51.1498
16:33:21:314,-1.1536,1.0864,6.5175,33.3641,-0.1256,-0.5408,0.5259,-51.1498
16:33:21:333,-0.4789,0.337,7.3373,33.4509,-0.2023,-0.7463,0.3673,-51.1498
16:33:21:354,-0.202,0.0653,8.1646,33.5781,-0.3226,-0.6005,0.2832,-51.1498
16:33:21:374,0.1311,0.2408,8.9668,33.1664,-0.428,-0.1331,0.2896,-51.2503
16:33:21:394,0.6041,0.1359,9.4633,33.2077,-0.4802,0.3609,0.2768,-51.3542
16:33:21:415,0.7683,0.1473,9.9951,33.3437,-0.4897,0.6122,0.1874,-51.4633
16:33:21:434,0.4086,0.8249,10.554,33.1382,-0.3961,0.5898,0.1182,-51.5771
16:33:21:453,0.3834,1.1872,10.9515,32.7625,-0.2683,0.4578,0.1352,-51.6937
16:33:21:473,0.3342,1.4779,11.3574,32.8137,-0.1789,0.5376,0.1416,-51.8124
16:33:21:493,0.1724,1.6425,11.8202,32.4724,-0.1267,0.757,0.1118,-51.9313
16:33:21:513,-0.313,1.9447,12.0672,32.4456,-0.1491,0.8155,-0.0884,-52.0502
16:33:21:534,-0.8629,2.0947,11.9779,32.092,-0.1554,0.6111,-0.3311,-52.1659
16:33:21:553,-0.885,0.8603,11.9218,32.3392,-0.3897,-0.1469,-0.5621,-52.2744
16:33:21:574,-0.9772,-0.4019,13.1323,32.5304,-0.5068,-0.5238,-0.5653,-52.3718
16:33:21:593,-1.0137,-0.9733,13.9485,32.703,-0.0458,-0.4865,-0.3907,-52.3718
16:33:21:615,-0.747,-1.1995,13.0224,33.1987,0.5504,-0.3726,-0.2332,-52.3718
16:33:21:633,-0.3567,-0.93,11.6217,33.4048,0.8634,-0.4248,-0.1459,-52.3718
16:33:21:653,0.1456,-0.2638,10.3869,33.7016,0.6899,-0.5643,-0.1789,-52.3718
16:33:21:677,0.5604,0.0945,9.6054,34.1006,0.3907,-0.4567,-0.3205,-52.3718
16:33:21:696,0.3996,0.3632,8.8509,34.3437,0.2981,0.0777,-0.5142,-52.3718
16:33:21:714,-0.1201,0.6171,7.668,34.5295,0.3897,0.6079,-0.6452,-52.3718
16:33:21:734,-0.7203,0.8117,6.431,34.7631,0.4461,0.7889,-0.7133,-52.3718
16:33:21:753,-1.1235,1.0945,5.6879,34.6857,0.4461,0.5696,-0.6729,-52.3718
16:33:21:789,-1.2123,1.2756,5.2884,34.8968,0.4589,0.2044,-0.5856,-52.3718
16:33:21:795,-1.146,1.3993,5.0902,35.2077,0.3929,-0.1501,-0.5345,-52.2656
16:33:21:813,-0.991,1.6071,5.2095,35.091,0.1821,-0.3428,-0.5078,-52.1446
16:33:21:833,-0.8646,1.6525,6.0227,35.0253,-0.1416,-0.4493,-0.5685,-52.011
16:33:21:853,-1.0057,1.4909,7.5027,35.1211,-0.3843,-0.4546,-0.6399,-51.8656
16:33:21:873,-1.3181,1.4326,8.6232,34.6805,-0.3726,-0.2608,-0.6175,-51.7047
16:33:21:893,-1.7435,1.6509,9.1516,34.5687,-0.2981,-0.0575,-0.4525,-51.5266
16:33:21:913,-1.9832,1.7683,9.5339,34.6723,-0.2662,-0.0809,-0.2289,-51.337
16:33:21:933,-2.2036,2.0598,10.0267,34.4801,-0.2864,-0.2875,-0.0447,-51.1465
16:33:21:953,-2.3059,2.1526,10.7862,34.3726,-0.2672,-0.4322,0.1224,-50.9624
16:33:21:975,-2.3304,2.0856,11.491,34.4884,-0.165,-0.4514,0.2938,-50.7885
16:33:21:995,-2.2433,1.9273,12.2958,34.4273,-0.1586,-0.625,0.4205,-50.6296
16:33:22:015,-1.9562,1.8749,13.2737,34.6819,-0.0862,-0.5504,0.5675,-50.4929
16:33:22:032,-1.9196,1.5947,13.2461,34.9013,0.2619,0.0575,0.7186,-50.3727
16:33:22:053,-2.3455,1.8335,12.2899,35.1233,0.6675,0.3471,0.857,-50.2714
16:33:22:073,-2.3109,1.7155,11.0597,35.0153,0.7516,-0.2151,0.8975,-50.2714
16:33:22:093,-1.8601,1.0864,10.8773,35.2314,0.5419,-1.0423,0.7602,-50.2714
16:33:22:114,-1.3247,0.5593,11.5363,35.2884,0.4312,-1.2797,0.5888,-50.2714
16:33:22:133,-0.9138,0.1567,11.6204,35.1897,0.461,-1.1562,0.3971,-50.2714
16:33:22:153,-0.5828,-0.0986,10.8312,35.0117,0.4205,-0.8262,0.2417,-50.2714
16:33:22:177,-0.363,-0.1192,9.9833,34.7957,0.1501,-0.5132,0.1235,-50.2714
16:33:22:193,-0.116,-0.0928,9.5006,34.7726,-0.1682,-0.2033,0.0554,-50.2714
16:33:22:214,-0.0396,-0.1291,9.0528,34.5216,-0.2342,0.1469,0.0234,-50.2714
16:33:22:234,-0.3177,0.1892,8.0195,34.3128,-0.0735,0.5866,0.0681,-50.2714
16:33:22:254,-0.4628,0.2777,6.5404,34.4597,0.0948,1.0306,0.2012,-50.2714
16:33:22:274,-0.7635,0.4683,5.2854,34.605,0.0788,1.2542,0.3503,-50.2714
16:33:22:293,-1.2634,0.9056,4.9496,34.715,-0.0468,1.2382,0.511,-50.2714
16:33:22:313,-1.5154,1.2357,5.1671,34.9413,-0.1331,0.9859,0.6835,-50.2714
16:33:22:333,-1.3476,1.5783,5.6894,35.0768,-0.1703,0.4738,0.8315,-50.3677
16:33:22:353,-0.7881,1.8389,6.9033,35.0543,-0.2502,-0.4365,0.8762,-50.4977
16:33:22:373,0.1142,2.0541,8.603,34.9252,-0.313,-0.9635,0.7559,-50.6631
16:33:22:394,1.0622,2.0166,10.1887,35.2532,-0.4376,-0.6122,0.4461,-50.8543
16:33:22:415,1.0535,1.6948,11.4384,35.2443,-0.3247,0.1469,0.0096,-51.0543
16:33:22:434,0.4081,1.9482,11.503,35.2452,-0.1725,0.7453,-0.3215,-51.2443
16:33:22:453,-0.515,2.112,11.1789,35.0599,-0.2257,0.8464,-0.478,-51.4163
16:33:22:478,-0.9437,2.0466,11.2654,35.0748,-0.3886,0.8027,-0.4322,-51.5694
16:33:22:494,-1.1303,2.0566,11.978,34.8744,-0.4557,0.7463,-0.28,-51.7046
16:33:22:514,-1.0891,2.021,12.7506,34.9205,-0.3588,0.5366,-0.1086,-51.8274
16:33:22:534,-1.0132,2.0775,13.1295,34.8583,-0.1171,0.2044,0.0362,-51.944
16:33:22:554,-0.2423,1.45,13.0116,34.5537,-0.0745,-0.2321,0.116,-52.0599
16:33:22:575,0.751,-0.1917,13.298,34.3322,-0.1416,-0.5749,-0.0937,-52.1816
16:33:22:594,0.7492,-1.5282,13.0285,34.3948,0.1906,-0.3801,-0.3151,-52.2985
16:33:22:614,-0.0156,-1.8567,11.4321,34.3293,0.5387,-0.0394,-0.3705,-52.396
16:33:22:634,-0.749,-1.3198,9.9023,34.6816,0.5291,-0.1011,-0.2161,-52.396
16:33:22:655,-0.6574,-0.4347,8.9445,34.901,0.2864,-0.3748,0.0383,-52.396
16:33:22:677,-0.0071,0.162,8.3398,35.3528,0.0703,-0.3918,0.1363,-52.396
16:33:22:694,0.5603,0.5559,7.7776,35.8196,-0.0713,-0.2278,0.0192,-52.396
16:33:22:715,0.6003,0.9006,7.0739,36.238,-0.1522,0.0085,-0.1799,-52.396
16:33:22:735,0.1768,1.2718,6.4886,36.4389,-0.2087,0.1405,-0.3471,-52.396
16:33:22:754,-0.332,1.4077,6.1322,36.5522,-0.2513,0.0798,-0.3822,-52.396
16:33:22:774,-0.5092,1.357,5.8448,36.5134,-0.2513,-0.0287,-0.2576,-52.396
16:33:22:793,-0.6153,1.2888,5.9717,36.3904,-0.198,-0.1469,-0.1299,-52.396
16:33:22:817,-0.4006,1.2132,6.2496,36.4024,-0.1672,-0.3567,-0.066,-52.396
16:33:22:833,-0.08,1.3553,6.6624,36.8,-0.313,-0.4024,-0.0937,-52.396
16:33:22:853,0.0428,1.5644,7.8118,36.7848,-0.4919,-0.2342,-0.181,-52.396
16:33:22:874,-0.0689,1.5259,9.1221,36.894,-0.4887,-0.1629,-0.2875,-52.396
16:33:22:893,-0.3999,1.7112,10.303,37.1198,-0.3992,-0.1959,-0.297,-52.396
16:33:22:914,-0.5108,1.7764,11.2435,36.8764,-0.3268,-0.2715,-0.2513,-52.396
16:33:22:933,-0.5447,1.9829,11.9201,36.911,-0.2427,-0.1214,-0.1852,-52.396
16:33:22:953,-0.6833,2.082,12.2077,37.1283,-0.1203,0.2225,-0.0937,-52.396
16:33:22:976,-0.8442,2.0658,12.4656,37.0457,-0.1331,0.3237,-0.0064,-52.396
16:33:22:993,-0.8464,1.8416,13.177,36.6946,-0.2087,0.1246,0.083,-52.396
16:33:23:013,-0.8684,1.6496,14.0205,36.6946,-0.0926,-0.1224,0.1778,-52.396
16:33:23:034,-1.2285,1.959,14.0996,36.6419,0.296,0.0149,0.3396,-52.396
16:33:23:053,-1.475,1.8446,12.9606,36.7387,0.7453,0.3162,0.4823,-52.396
16:33:23:073,-1.7552,1.1315,11.4155,37.0514,0.9582,0.1618,0.4088,-52.396
16:33:23:093,-1.9963,-0.0278,10.2981,37.0947,0.7804,-0.4557,0.2204,-52.396
16:33:23:114,-2.367,-0.791,10.2198,37.3128,0.5164,-0.9869,0.0958,-52.396
16:33:23:133,-2.1286,-1.2867,10.5317,37.0216,0.4408,-1.1264,0.1661,-52.396
16:33:23:154,-1.7701,-1.201,10.2157,36.7514,0.5323,-0.9688,0.2875,-52.396
16:33:23:177,-1.1588,-0.8017,9.2088,36.7277,0.5483,-0.7027,0.4003,-52.396
16:33:23:193,-0.4541,-0.3295,8.0208,36.3709,0.3013,-0.461,0.4173,-52.396
16:33:23:215,-0.0885,0.3256,7.3113,36.2703,-0.1192,-0.0894,0.379,-52.396
16:33:23:233,-0.071,0.6738,6.8994,36.5758,-0.3481,0.5536,0.3087,-52.496
16:33:23:253,-0.3708,0.6737,6.5462,36.7034,-0.3439,0.9646,0.2459,-52.6004
16:33:23:274,-0.639,0.5227,5.9061,36.8867,-0.2736,1.0615,0.3087,-52.708
16:33:23:293,-0.7368,0.6097,5.5254,37.2832,-0.2747,0.8592,0.4727,-52.8227
16:33:23:314,-0.587,0.9408,6.0387,37.5546,-0.2896,0.4014,0.6175,-52.9524
16:33:23:334,-0.2249,1.162,6.969,37.8573,-0.1831,-0.2545,0.658,-53.1037
16:33:23:354,0.1315,1.2033,8.0545,37.9308,-0.0596,-0.9316,0.5685,-53.2783
16:33:23:375,0.6892,1.2079,9.2769,37.7087,-0.0383,-1.2116,0.395,-53.4738
16:33:23:394,1.0823,0.9519,10.3624,37.6444,-0.0245,-0.9348,0.1618,-53.6771
16:33:23:415,0.9636,0.8077,10.9934,37.8328,-0.0319,-0.2555,-0.0277,-53.8779
16:33:23:434,0.5363,0.9056,11.2358,37.9641,-0.017,0.4855,-0.066,-54.0669
16:33:23:454,0.2821,0.9625,11.4575,38.1487,-0.0873,0.8389,-0.0383,-54.2425
16:33:23:475,0.1197,1.4952,11.9407,37.8262,-0.1938,0.8475,0.0064,-54.4111
16:33:23:493,-0.1708,2.0548,12.6023,37.3718,-0.1171,0.8741,0.0532,-54.5757
16:33:23:513,-0.3972,2.3848,12.7496,36.8243,0.1192,0.8389,0.082,-54.7356
16:33:23:534,-0.3205,2.6083,12.2318,36.1091,0.165,0.5973,0.0767,-54.8911
16:33:23:553,0.5879,1.4389,12.5779,35.7877,-0.2513,-0.1267,-0.0958,-55.0512
16:33:23:573,1.1059,-0.2871,13.8211,35.1378,-0.2513,-0.5632,-0.2651,-55.2131
16:33:23:593,0.9622,-1.5094,13.4136,34.9984,0.1789,-0.4589,-0.3354,-55.3611
16:33:23:615,0.4941,-1.5933,12.1543,35.1853,0.478,-0.2875,-0.2715,-55.4887
16:33:23:633,0.371,-1.032,10.8614,35.1476,0.5419,-0.2576,-0.082,-55.5998
16:33:23:654,0.685,-0.3159,9.5423,35.3956,0.4791,-0.2619,0.0703,-55.7029
16:33:23:678,0.9646,0.2525,8.2674,36.338,0.3705,-0.1799,0.0798,-55.8041
16:33:23:695,1.0289,0.7522,7.1946,36.8728,0.2598,-0.0373,-0.0138,-55.9052
16:33:23:714,0.9199,1.1972,6.2447,37.437,0.1214,0.1373,-0.1491,-56.0035
16:33:23:734,0.6665,1.413,5.733,37.8068,-0.0043,0.3098,-0.2928,-56.094
16:33:23:754,0.3662,1.3196,5.5879,38.0714,0.0202,0.3801,-0.3737,-56.094
16:33:23:800,0.1639,1.261,5.5787,38.3935,0.1693,0.3109,-0.3726,-56.094
16:33:23:802,0.0132,1.3105,5.4725,38.3392,0.2502,0.0149,-0.3801,-56.094
16:33:23:813,-0.1643,1.7315,6.1397,38.4041,0.1682,-0.477,-0.3258,-56.094
16:33:23:833,0.0722,2.0105,7.1542,38.383,0.1224,-0.8421,-0.214,-56.094
16:33:23:853,0.4946,2.2774,7.9579,38.0714,0.0873,-0.9199,-0.1767,-56.094
16:33:23:873,0.8304,2.4089,8.4881,37.8669,-0.0415,-0.6526,-0.1746,-56.094
16:33:23:893,0.8913,2.4716,9.1058,38.0002,-0.3205,-0.1703,-0.2523,-56.094
16:33:23:914,0.36,2.6972,10.3874,37.8833,-0.5653,0.2108,-0.3194,-56.094
16:33:23:933,-0.4555,2.7443,11.7644,38.0794,-0.4727,0.3364,-0.2789,-56.094
16:33:23:953,-1.037,2.8615,12.1195,38.3212,-0.2055,0.2353,-0.0969,-56.094
16:33:23:975,-1.1895,2.8139,12.2946,38.0159,-0.1906,-0.0671,0.1097,-56.094
16:33:23:993,-1.0882,2.5036,13.0315,37.6238,-0.2513,-0.2044,0.2875,-56.094
16:33:24:014,-1.0266,2.2538,13.4393,37.7423,-0.0862,0.1533,0.4706,-56.094
16:33:24:034,-0.8596,1.4445,13.2467,37.7569,0.1224,0.2406,0.4919,-56.094
16:33:24:053,-0.6918,0.1131,12.6915,37.9826,0.1352,-0.1469,0.362,-56.094
16:33:24:073,-1.0335,-0.5862,12.2595,38.4693,0.1927,-0.2875,0.2981,-56.094
16:33:24:093,-1.2592,-0.8798,11.4778,38.5577,0.3268,-0.297,0.3567,-56.094
16:33:24:114,-1.1105,-0.9391,10.4421,38.5833,0.2545,-0.3907,0.4589,-56.094
16:33:24:133,-0.7283,-0.6625,9.8742,38.4085,-0.0021,-0.4003,0.5557,-56.094
16:33:24:154,-0.1478,-0.439,9.3674,38.2806,-0.2278,-0.131,0.6047,-56.1866
16:33:24:177,0.2314,-0.1085,8.6569,38.2215,-0.33,0.411,0.6228,-56.2962
16:33:24:194,0.3905,0.1329,7.6453,38.0801,-0.3002,0.9337,0.5675,-56.4185
16:33:24:214,0.2725,0.2765,6.4759,37.9068,-0.214,1.1296,0.4844,-56.5539
16:33:24:233,0.0631,0.5757,5.5477,37.8744,-0.2225,0.9891,0.4472,-56.7023
16:33:24:253,-0.3157,1.0257,5.3402,37.8424,-0.2576,0.7772,0.5121,-56.8643
16:33:24:273,-0.2803,1.1309,5.5789,38.469,-0.1672,0.6058,0.609,-57.0402
16:33:24:293,0.0385,1.2517,5.9135,39.0931,-0.0522,0.2789,0.5813,-57.2324
16:33:24:314,0.3092,1.7109,6.6153,39.6918,-0.1214,-0.2747,0.3801,-57.4427
16:33:24:333,0.4486,1.882,8.0175,40.0774,-0.2949,-0.8837,0.0287,-57.6673
16:33:24:353,0.6113,1.3294,9.816,40.1854,-0.3428,-0.9731,-0.2374,-57.8932
16:33:24:374,0.5409,0.7692,11.0638,40.034,-0.1522,-0.2598,-0.4046,-58.1032
16:33:24:394,0.1942,0.8022,11.2122,40.0024,-0.0437,0.6069,-0.4993,-58.2862
16:33:24:415,-0.2841,0.8787,11.5988,39.8893,-0.2289,0.8219,-0.609,-58.4428
16:33:24:433,-0.828,0.9975,12.5337,40.1837,-0.2821,0.5898,-0.6143,-58.5777
16:33:24:454,-1.1621,1.0122,13.1752,40.5577,-0.0085,0.3662,-0.4951,-58.6881
16:33:24:477,-1.1421,1.3181,13.05,40.6803,0.3002,0.2097,-0.2214,-58.6881
16:33:24:494,-0.9173,1.946,12.4898,40.7643,0.4663,0.2161,0.0351,-58.6881
16:33:24:514,0.1325,2.0262,12.0965,40.3279,0.3205,-0.0373,0.0671,-58.6881
16:33:24:533,1.3559,0.4043,12.3406,39.9952,-0.0415,-0.4738,-0.23,-58.6881
16:33:24:553,1.1706,-1.2286,12.9848,39.7323,-0.017,-0.4216,-0.576,-58.6881
16:33:24:575,0.0183,-1.5874,12.537,39.6201,0.2715,-0.1948,-0.6367,-58.6881
16:33:24:593,-0.6137,-1.4505,11.4736,39.5731,0.3684,-0.1011,-0.4322,-58.6881
16:33:24:614,-0.2527,-0.9552,10.6355,40.0653,0.181,-0.2502,-0.1703,-58.6881
16:33:24:635,0.6593,-0.5448,10.1649,40.5178,-0.0958,-0.2885,-0.1224,-58.6881
16:33:24:655,1.1542,-0.2585,9.6908,40.9311,-0.1693,0.0969,-0.2736,-58.6881
16:33:24:677,0.6713,0.1862,8.7345,41.3851,-0.0011,0.7186,-0.4141,-58.6881
16:33:24:693,-0.012,0.6187,7.2963,41.738,0.2736,1.1296,-0.444,-58.6881
16:33:24:713,-0.3982,0.9626,6.0014,41.7858,0.4237,1.0082,-0.3843,-58.6881
16:33:24:734,-0.7663,1.5019,5.4263,41.5246,0.4706,0.4897,-0.2513,-58.6881
16:33:24:753,-0.5742,1.5233,5.2199,41.5312,0.6058,-0.0564,-0.1075,-58.6881
16:33:24:773,-0.2521,1.4486,5.005,41.5824,0.609,-0.5536,-0.0532,-58.6881
16:33:24:793,0.1571,1.4621,5.4482,41.6515,0.3567,-0.9816,-0.0362,-58.6881
16:33:24:817,0.4176,1.6707,6.8124,41.8552,0.0575,-1.0263,-0.0192,-58.6881
16:33:24:833,0.6203,1.7076,8.2719,41.7889,-0.0405,-0.5919,-0.0596,-58.6881
16:33:24:853,0.4793,1.8874,8.9949,41.8948,-0.0266,0.0905,-0.131,-58.6881
16:33:24:873,0.0301,2.3905,9.3163,41.713,-0.0788,0.362,-0.1852,-58.6881
16:33:24:893,-0.6575,2.5174,9.9051,41.6393,-0.2534,0.2332,-0.1916,-58.6881
16:33:24:914,-1.3528,2.5809,10.8745,41.9987,-0.378,-0.0149,-0.0596,-58.6881
16:33:24:933,-1.6611,2.5874,11.8093,41.8216,-0.4205,-0.2342,0.1363,-58.6881
16:33:24:954,-1.4535,2.2424,12.6039,41.7311,-0.4546,-0.2364,0.3119,-58.6881
16:33:24:975,-1.4172,1.9221,13.4999,41.6511,-0.395,-0.1065,0.4546,-58.6881
16:33:24:993,-1.7068,2.1032,13.8327,41.5745,-0.0383,0.3279,0.6782,-58.6881
16:33:25:017,-1.834,2.4005,13.0844,41.5078,0.4567,0.5387,0.7708,-58.6881
16:33:25:033,-1.9389,2.2281,11.6848,41.8595,0.6675,0.0894,0.6377,-58.6881
16:33:25:053,-1.8661,1.3446,10.8342,41.9887,0.4514,-0.6707,0.4195,-58.6881
16:33:25:074,-1.6207,0.4023,11.0346,42.0923,0.0681,-0.9018,0.3002,-58.6881
16:33:25:093,-1.4227,-0.2363,11.3838,42.159,-0.0532,-0.5738,0.2534,-58.6881
16:33:25:114,-1.1907,-0.4535,10.7865,42.2362,-0.0053,0.0032,0.2587,-58.6881
16:33:25:134,-0.881,-0.4528,9.5252,42.1527,-0.0287,0.4397,0.247,-58.6881
16:33:25:154,-0.6048,-0.241,8.5314,41.754,-0.1448,0.6079,0.164,-58.6881
16:33:25:177,-0.737,0.0609,7.6687,41.6055,-0.0394,0.6707,0.1043,-58.6881
16:33:25:193,-0.9593,0.3422,6.435,41.488,0.1597,0.6473,0.1395,-58.6881
16:33:25:216,-0.9671,0.4599,5.2814,41.441,0.2491,0.6175,0.2928,-58.6881
16:33:25:234,-0.7021,0.6522,4.523,41.4266,0.1789,0.5419,0.4663,-58.6881
16:33:25:254,-0.3906,0.9954,4.5363,41.4758,-0.0213,0.3396,0.5589,-58.7841
16:33:25:274,-0.0475,1.239,5.0815,41.6724,-0.3098,-0.0277,0.4897,-58.9007
16:33:25:294,0.238,1.4344,6.3148,41.6671,-0.5962,-0.3929,0.2757,-59.038
16:33:25:314,0.3213,1.2545,8.119,41.4245,-0.7836,-0.6367,0.016,-59.1881
16:33:25:333,0.1027,0.6846,10.1208,41.5066,-0.7059,-0.56,-0.1618,-59.3395
16:33:25:353,-0.1223,0.177,11.3777,41.5093,-0.3875,-0.0649,-0.2097,-59.4792
16:33:25:377,-0.5075,0.3232,11.4861,41.2373,-0.0298,0.5621,-0.1512,-59.601
16:33:25:393,-0.7176,0.8638,11.3407,41.4575,0.0735,0.7442,-0.0905,-59.7077
16:33:25:414,-0.6588,1.4491,11.8812,41.3887,-0.0085,0.3386,-0.0926,-59.8092
16:33:25:433,-0.739,1.6111,12.6283,41.3063,0.1416,0.115,-0.0841,-59.9073
16:33:25:454,-0.7232,1.9408,12.6152,41.254,0.3971,0.1661,-0.0256,-59.9073
16:33:25:476,-0.7801,2.5439,11.8301,40.9254,0.412,0.395,0.0192,-59.9073
16:33:25:493,0.1578,1.9032,11.7623,40.9325,-0.0671,0.0437,-0.1448,-59.9073
16:33:25:515,0.6709,0.7263,13.0274,40.7551,-0.4141,-0.5195,-0.4227,-60
16:33:25:534,0.5763,-0.4425,13.729,40.6006,-0.0596,-0.3119,-0.5589,-60
16:33:25:553,-0.1807,-0.9769,13.1278,40.7337,0.2183,-0.2193,-0.6281,-60
16:33:25:573,-0.1942,-0.553,12.2209,40.885,0.1927,-0.3375,-0.4791,-60
16:33:25:593,0.1407,-0.0953,11.4148,40.9805,0.0905,-0.412,-0.3726,-60
16:33:25:615,0.3604,0.4232,10.5417,41.1311,0.131,-0.1821,-0.4141,-60
16:33:25:634,0.174,0.696,9.0886,41.2012,0.3151,0.1235,-0.527,-60
16:33:25:653,-0.1114,1.0205,7.3816,41.1649,0.4993,0.3492,-0.5941,-60
16:33:25:678,-0.3331,1.3825,5.8413,41.0781,0.5643,0.2981,-0.5909,-60
16:33:25:694,-0.25,1.6127,4.9841,40.9939,0.4706,-0.0085,-0.5643,-60
16:33:25:714,0.1345,1.7058,4.939,40.5642,0.3386,-0.3599,-0.5451,-59.9023
16:33:25:734,0.5002,1.3946,5.4528,40.0756,0.2938,-0.461,-0.5589,-59.79
16:33:25:754,0.6384,0.8741,5.9593,39.7161,0.2193,-0.4386,-0.6228,-59.6612
16:33:25:778,0.4088,0.9506,6.7771,39.287,0.0745,-0.4088,-0.6601,-59.5151
16:33:25:814,-0.0995,1.2614,7.8544,39.1057,0.0053,-0.4024,-0.6313,-59.3509
16:33:25:816,-0.5074,1.4357,8.523,38.7755,0.0522,-0.2875,-0.5483,-59.1684
16:33:25:833,-0.991,1.5292,8.9772,38.8216,0.0319,-0.0043,-0.428,-58.9694
16:33:25:853,-1.6255,2.1725,9.5677,38.7846,-0.0202,0.2353,-0.2172,-58.7576
16:33:25:873,-2.0641,2.7592,10.1426,38.396,-0.0841,0.2385,0.0117,-58.5424
16:33:25:894,-2.2263,3.0273,10.705,38.4092,-0.0703,0.0213,0.2374,-58.334
16:33:25:914,-2.0551,3.0083,11.3053,38.2294,-0.0969,-0.2236,0.4408,-58.1413
16:33:25:933,-1.6271,2.6574,12.1352,38.3248,-0.1459,-0.1778,0.5909,-57.9705
16:33:25:954,-1.7057,2.4721,12.8706,38.5138,0.0309,0.1746,0.7197,-57.8228
16:33:25:978,-2.1259,2.8276,12.6589,38.6493,0.428,0.3577,0.7889,-57.6984
16:33:25:994,-2.0907,2.7703,11.9496,38.6364,0.4919,-0.1363,0.675,-57.6037
16:33:26:015,-1.7318,1.789,11.9239,38.4954,0.1352,-0.857,0.4216,-57.6037
16:33:26:033,-1.5056,0.8542,12.5866,38.5092,-0.0958,-0.8762,0.2172,-57.6037
16:33:26:054,-1.5533,0.2383,12.5212,38.6269,-0.0767,-0.3982,0.0873,-57.6037
16:33:26:073,-1.5429,-0.2307,11.5325,38.3975,-0.0905,0.116,0.0256,-57.6037
16:33:26:093,-1.4027,-0.5195,10.565,38.3847,-0.2864,0.2662,-0.017,-57.6037
16:33:26:114,-1.3996,-0.2855,9.7701,38.4854,-0.3194,0.3865,0.0586,-57.6037
16:33:26:134,-1.2252,0.0875,8.154,38.3726,-0.0415,0.7602,0.2726,-57.6037
16:33:26:153,-0.8489,0.307,6.3361,38.3798,0.1863,1.0178,0.4429,-57.6037
16:33:26:177,-0.3997,0.5037,5.061,38.4771,0.2459,0.9241,0.5089,-57.6037
16:33:26:193,-0.166,0.5992,4.4139,38.4036,0.2108,0.6452,0.4695,-57.6037
16:33:26:214,-0.3899,0.7529,4.4871,38.2358,0.1405,0.3311,0.444,-57.6037
16:33:26:233,-0.4621,0.8679,4.7383,38.2811,0.0926,0.1395,0.494,-57.6037
16:33:26:258,-0.2187,1.0331,5.2357,38.26,-0.1043,-0.2289,0.4493,-57.6037
16:33:26:274,0.0091,1.3154,6.8137,38.2148,-0.51,-0.9156,0.2715,-57.6037
16:33:26:294,0.214,1.0738,9.06,38.3744,-0.5941,-1.3234,0.0979,-57.7063
16:33:26:314,0.3683,0.7334,10.4737,38.5445,-0.2406,-1.0455,-0.0873,-57.8136
16:33:26:335,0.1688,1.0898,10.5967,38.6056,0.0511,-0.3641,-0.23,-57.9075
16:33:26:354,0.0534,1.6945,10.493,38.5625,-0.1959,0.2598,-0.3173,-57.9075
16:33:26:373,-0.1118,1.8616,10.7888,38.5907,-0.6686,0.7665,-0.4003,-57.9075
16:33:26:394,-0.5485,1.755,12.1755,38.4554,-0.9752,1.1136,-0.4855,-57.9075
16:33:26:415,-0.8957,1.7156,12.91,38.6831,-0.8443,1.285,-0.5451,-57.9075
16:33:26:434,-1.0615,1.277,12.3979,38.7316,-0.6963,1.5033,-0.5515,-57.9075
16:33:26:456,-1.0999,1.2059,12.1525,38.3978,-0.9486,1.3244,-0.4312,-57.9075
16:33:26:478,-0.3197,0.7741,13.8682,38.2225,-1.1285,0.4897,-0.198,-57.9075
16:33:26:495,0.6907,0.3409,15.2379,38.1381,-0.4365,-0.1629,-0.0032,-57.9075
16:33:26:514,1.3741,-0.2769,13.483,38.3435,0.4344,-0.2789,-0.1735,-57.9075
16:33:26:534,0.6277,-0.2112,11.4961,38.8872,0.6526,-0.4929,-0.6228,-57.9075
16:33:26:554,-0.3321,0.1986,10.4223,39.5092,0.3588,-0.8741,-0.7591,-57.9075
16:33:26:575,-0.6868,0.5052,10.2793,40.2412,0.1278,-0.9316,-0.7357,-57.9075
16:33:26:594,-0.8723,0.5537,9.8399,40.7489,0.181,-0.6132,-0.7729,-57.9075
16:33:26:615,-1.2668,0.6084,8.8626,41.0987,0.3875,-0.3343,-0.758,-57.7932
16:33:26:635,-1.3789,0.6762,7.6442,41.0235,0.5589,-0.2566,-0.6739,-57.6521
16:33:26:655,-1.2933,0.737,6.722,41.038,0.6601,-0.3364,-0.5983,-57.489
16:33:26:677,-1.1653,0.847,6.2385,40.8091,0.7506,-0.3982,-0.5504,-57.3071
16:33:26:694,-1.1387,0.9558,5.8737,40.3455,0.8496,-0.3875,-0.4865,-57.1097
16:33:26:714,-0.9962,1.0355,5.6077,39.8466,0.8049,-0.3332,-0.4067,-56.8983
16:33:26:734,-0.7305,1.127,5.7512,39.3733,0.5494,-0.3098,-0.3173,-56.6772
16:33:26:754,-0.6947,1.5232,6.4011,39.3252,0.3045,-0.2875,-0.2257,-56.4518
16:33:26:774,-0.6807,1.7773,6.8083,39.1642,0.1554,-0.3279,-0.1746,-56.2252
16:33:26:793,-0.5197,1.8272,7.8938,39.2022,-0.0649,-0.5206,-0.0575,-56.0008
16:33:26:814,-0.1892,1.9926,9.5225,39.3032,-0.23,-0.824,0.0287,-55.7864
16:33:26:833,0.0355,2.3637,11.051,39.4772,-0.2513,-0.6942,0.016,-55.5789
16:33:26:853,0.0646,2.4476,11.5862,39.3735,-0.164,-0.3556,0.0756,-55.3756
16:33:26:873,-0.1235,2.7296,11.7976,39.6549,-0.2481,0.0373,0.1075,-55.1768
16:33:26:894,-0.1701,2.4336,12.4664,39.6388,-0.3481,0.1948,0.1363,-54.9858
16:33:26:914,-0.4016,2.3259,13.487,39.5982,-0.2374,0.1757,0.2374,-54.8047
16:33:26:933,-0.8075,2.2992,13.97,39.4421,0.2619,0.2694,0.4408,-54.6346
16:33:26:953,-1.0984,2.3366,12.7897,39.2286,0.9816,0.3418,0.6718,-54.4775
16:33:26:977,-1.1936,2.1707,10.5329,39.2481,1.1871,0.0575,0.6569,-54.343
16:33:26:994,-1.3018,1.8731,9.5289,39.3508,0.6399,-0.5898,0.4503,-54.2435
16:33:27:014,-1.1487,1.1235,10.8752,39.2188,-0.0053,-1.0678,0.2353,-54.2435
16:33:27:034,-1.0308,0.0519,12.2696,39.4902,-0.1203,-0.9571,0.0575,-54.2435
16:33:27:053,-1.0697,-0.4045,12.0383,39.9322,0.1363,-0.5951,0.0554,-54.2435
16:33:27:073,-0.7055,-0.4532,10.5778,40.3776,0.1235,-0.3237,0.1437,-54.2435
16:33:27:093,0.0299,-0.388,9.3259,40.8617,-0.2055,-0.0256,0.1778,-54.2435
16:33:27:114,0.4012,-0.2061,8.6285,41.4209,-0.4472,0.3886,0.1299,-54.2435
16:33:27:133,0.3484,0.1656,7.863,41.6414,-0.3343,0.8666,0.1043,-54.2435
16:33:27:154,0.2164,0.5223,6.733,41.6392,-0.0181,1.1434,0.1299,-54.2435
16:33:27:176,-0.0899,0.8648,5.8708,41.7338,0.3279,1.1732,0.1789,-54.2435
16:33:27:193,-0.4561,1.0674,5.1608,41.7049,0.577,0.9465,0.2704,-54.2435
16:33:27:215,-0.6778,1.3085,4.6258,41.7684,0.6952,0.5345,0.4312,-54.2435
16:33:27:234,-0.7241,1.8627,4.6258,41.7188,0.5313,0.0245,0.5408,-54.2435
16:33:27:253,-0.191,1.8334,5.6195,41.7562,0.1895,-0.5164,0.4823,-54.2435
16:33:27:273,0.6903,1.3333,7.3065,41.6519,-0.1682,-0.8262,0.2395,-54.2435
16:33:27:295,0.8273,0.9303,9.06,41.6708,-0.3769,-0.6462,-0.0671,-54.2435
16:33:27:314,0.4958,0.7799,10.2903,41.8025,-0.4418,0.1033,-0.1906,-54.2435
16:33:27:333,0.4056,0.8994,10.7719,41.6947,-0.5834,0.625,-0.1533,-54.2435
16:33:27:354,0.2481,1.7963,11.2939,41.7795,-0.8975,0.9763,-0.2097,-54.2435
16:33:27:375,0.0801,2.3318,12.2623,41.9213,-1.0764,1.2254,-0.3205,-54.2435
16:33:27:393,0.0193,2.1944,12.9307,41.921,-0.9827,1.4032,-0.4567,-54.2435
16:33:27:414,-0.6281,2.5121,13.2095,41.6764,-0.7602,1.4373,-0.5238,-54.2435
16:33:27:433,-0.9958,2.3837,13.3892,41.5067,-0.6537,1.0998,-0.5185,-54.2435
16:33:27:454,-0.8313,1.3685,14.5176,41.2798,-0.4929,0.3056,-0.5302,-54.2435
16:33:27:475,-0.4396,-0.0177,14.4812,41.0526,0.1352,-0.1608,-0.4599,-54.2435
16:33:27:494,-0.2928,-0.5762,12.5668,41.2414,0.5387,-0.2385,-0.4344,-54.2435
16:33:27:513,-0.3126,-0.2516,11.6645,41.8697,0.3311,-0.5589,-0.4035,-54.2435
16:33:27:533,0.2639,-0.1117,11.6753,42.1636,0.083,-0.6846,-0.3641,-54.1484
16:33:27:553,0.7119,-0.092,11.1101,42.6122,0.1448,-0.4056,-0.4993,-54.0427
16:33:27:573,0.3766,0.2743,9.5973,43.0725,0.3119,-0.0011,-0.659,-53.9195
16:33:27:593,-0.1781,0.6047,7.9002,43.3722,0.4631,0.1416,-0.7133,-53.7735
16:33:27:615,-0.52,0.9618,6.6081,43.4501,0.5781,-0.0522,-0.675,-53.6043
16:33:27:633,-0.4358,1.1663,5.7997,43.6246,0.6718,-0.3194,-0.6186,-53.4168
16:33:27:655,-0.159,1.0901,5.2808,43.5013,0.6899,-0.5121,-0.6271,-53.2124
16:33:27:677,-0.1017,1.1038,5.1842,43.3001,0.6175,-0.6026,-0.6643,-52.9916
16:33:27:693,-0.2656,1.3682,5.3278,43.3972,0.4738,-0.5334,-0.642,-52.7532
16:33:27:714,-0.3453,1.4875,5.6832,43.2277,0.2715,-0.297,-0.5707,-52.4972
16:33:27:733,-0.7298,1.8754,6.3816,43.16,0.0351,-0.131,-0.5557,-52.2261
16:33:27:753,-1.1091,2.3586,7.3968,43.2713,-0.1576,-0.2736,-0.5185,-51.9447
16:33:27:776,-1.1627,2.31,8.3237,43.2527,-0.2917,-0.5121,-0.4674,-51.6578
16:33:27:816,-1.3775,2.2626,9.2852,43.1799,-0.4184,-0.5845,-0.3982,-51.365
16:33:27:818,-1.6961,2.2173,10.5041,43.3788,-0.4876,-0.4823,-0.2353,-51.068
16:33:27:833,-1.9228,2.239,11.657,43.3764,-0.4897,-0.0937,0.0426,-50.7689
16:33:27:853,-1.8797,2.492,12.3947,43.5627,-0.4461,0.1597,0.3279,-50.475
16:33:27:873,-1.451,2.3724,12.9444,43.6114,-0.4546,0.1991,0.4812,-50.1991
16:33:27:894,-1.3541,2.4068,13.5726,43.5361,-0.3268,0.2789,0.5366,-49.9476
16:33:27:914,-1.7226,2.5878,13.5856,43.5324,0.0873,0.3354,0.6196,-49.7202
16:33:27:933,-1.7167,2.1108,12.7604,43.5087,0.4887,-0.0319,0.5898,-49.5188
16:33:27:954,-1.4652,1.3143,11.6089,43.5494,0.5451,-0.5909,0.4333,-49.3477
16:33:27:979,-1.2964,0.592,11.2445,43.4037,0.3109,-0.6462,0.3077,-49.2011
16:33:27:994,-1.3097,-0.0705,11.3612,43.7678,0.0798,-0.544,0.165,-49.0707
16:33:28:015,-1.2766,-0.5958,11.2562,43.8493,-0.0958,-0.4408,0.0926,-48.9525
16:33:28:033,-1.0813,-0.9471,10.8866,44.0958,-0.2204,-0.2779,0.0745,-48.8405
16:33:28:054,-0.8415,-1.0591,10.0747,44.5848,-0.2268,0.1501,0.1427,-48.7323
16:33:28:074,-0.8761,-0.7966,8.591,44.7022,-0.0724,0.7655,0.2662,-48.6262
16:33:28:093,-0.9607,-0.4316,6.8718,44.9248,0.1235,1.1818,0.4344,-48.5248
16:33:28:114,-0.9552,-0.0411,5.3991,45.1035,0.1906,1.1232,0.6303,-48.5248
16:33:28:133,-0.8652,0.4421,4.5303,45.2416,0.1331,0.8453,0.7687,-48.5248
16:33:28:153,-0.6643,0.8727,4.5164,44.9017,0.0798,0.4823,0.8347,-48.5248
16:33:28:176,-0.3676,1.073,4.7565,44.9995,0.0841,0.1469,0.8017,-48.5248
16:33:28:194,-0.2395,1.2026,5.122,45.0667,0.0096,-0.1916,0.6271,-48.5248
16:33:28:215,-0.347,1.3481,6.0526,45.0667,-0.2534,-0.8411,0.4067,-48.5248
16:33:28:233,-0.0235,0.9765,7.5288,45.1234,-0.3929,-1.4607,0.2566,-48.5248
16:33:28:255,0.3974,1.067,8.6624,45.3495,-0.4333,-1.7375,0.1693,-48.6261
16:33:28:273,0.8951,1.2902,9.2296,45.2519,-0.4535,-1.3904,0.0958,-48.727
16:33:28:295,1.5846,0.9953,9.5361,45.2932,-0.7016,-0.9731,-0.0905,-48.825
16:33:28:315,1.5526,0.7115,10.7494,45.3481,-1.1126,-0.5281,-0.2757,-48.9197
16:33:28:335,1.2087,0.9514,12.453,45.4542,-1.2084,0.083,-0.2715,-48.9197
16:33:28:354,0.7055,0.9681,13.5085,45.4117,-1.0891,0.4291,-0.3056,-48.9197
16:33:28:374,0.1349,1.1371,14.0466,45.5834,-0.8283,0.5685,-0.3258,-48.9197
16:33:28:395,0.0138,1.056,14.0522,45.5423,-0.4908,0.675,-0.1384,-48.9197
16:33:28:415,1.1049,-0.1355,14.3622,45.2744,-0.4908,0.1533,-0.0287,-48.9197
16:33:28:433,2.0651,-0.9432,15.2086,45.3403,-0.4216,-0.329,-0.164,-48.9197
16:33:28:455,2.4033,-1.7173,14.9236,45.562,0.0894,-0.2555,-0.346,-48.9197
16:33:28:478,2.1745,-2.1756,13.5261,46.0291,0.5579,0.0011,-0.4812,-48.9197
16:33:28:495,1.6771,-1.6371,12.4548,46.6704,0.8783,-0.066,-0.4237,-48.9197
16:33:28:514,1.6962,-0.7492,11.0349,47.1295,0.8624,-0.3183,-0.28,-48.9197
16:33:28:533,1.9977,-0.1734,9.6447,47.349,0.6516,-0.2044,-0.2853,-48.9197
16:33:28:554,1.922,0.1537,8.5723,47.3001,0.4887,0.1778,-0.4578,-48.9197
16:33:28:575,1.2873,0.4772,7.5928,47.0401,0.5451,0.6207,-0.5738,-48.9197
16:33:28:593,0.7691,0.6394,6.5032,46.7626,0.6707,0.8443,-0.5643,-48.9197
16:33:28:614,0.4974,0.7438,5.7453,46.4438,0.7623,0.7953,-0.5302,-48.8131
16:33:28:633,0.3916,1.0057,5.3638,46.4402,0.8294,0.5408,-0.5281,-48.6919
16:33:28:655,0.3194,1.146,5.1746,46.3177,0.9018,0.2449,-0.5504,-48.5578
16:33:28:675,0.2312,1.3701,5.0441,46.209,0.9113,-0.0522,-0.5866,-48.4086
16:33:28:693,0.0755,1.8609,5.1886,46.2938,0.7293,-0.1714,-0.527,-48.2473
16:33:28:713,0.0916,2.2313,5.9593,46.2035,0.4812,-0.1789,-0.4546,-48.0727
16:33:28:737,0.1212,2.6227,6.9242,46.1757,0.2534,-0.1427,-0.4631,-47.8875
16:33:28:753,-0.0188,3.0058,7.7979,46.1189,-0.0181,-0.0873,-0.527,-47.6924
16:33:28:774,-0.4681,3.2421,8.8292,46.0309,-0.313,0.0713,-0.5632,-47.4857
16:33:28:794,-0.952,3.2813,10.035,46.1826,-0.4727,0.1789,-0.51,-47.265
16:33:28:817,-1.2641,2.9798,11.0788,46.2778,-0.6399,-0.0245,-0.3737,-47.0348
16:33:28:833,-1.3272,2.6487,12.4317,46.3152,-0.8538,-0.2672,-0.2119,-46.8016
16:33:28:853,-1.3374,2.361,14.0864,46.4756,-0.8645,-0.3833,-0.0543,-46.5711
16:33:28:873,-1.4378,2.1586,14.9447,46.3412,-0.5025,-0.1884,0.116,-46.3442
16:33:28:893,-1.487,1.7922,14.4672,46.2048,-0.0032,0.0894,0.2757,-46.122
16:33:28:914,-1.4483,1.2446,13.4373,46.1932,0.2321,0.0862,0.2694,-45.911
16:33:28:933,-1.7398,0.675,12.5824,46.2092,0.2821,-0.0969,0.1469,-45.7164
16:33:28:953,-2.226,0.3067,11.8993,46.295,0.2619,-0.2811,0.1331,-45.5352
16:33:28:976,-2.2797,-0.1441,11.5199,46.3973,0.1725,-0.6111,0.1373,-45.3676
16:33:28:994,-1.9563,-0.4532,10.9751,46.5727,0.0575,-0.7186,0.1938,-45.2126
16:33:29:018,-1.1882,-0.6752,10.187,46.8325,-0.0053,-0.4961,0.197,-45.0682
16:33:29:033,-0.6169,-0.8823,9.07,47.1747,-0.0181,-0.1097,0.0745,-44.9323
16:33:29:053,-0.5363,-0.6173,7.6783,47.2605,0.0202,0.3492,-0.0745,-44.7996
16:33:29:073,-0.5012,-0.2923,6.4497,47.391,0.1352,0.7218,-0.049,-44.6644
16:33:29:094,-0.5045,0.092,5.6261,47.4907,0.2832,0.9667,0.148,-44.5274
16:33:29:115,-0.4999,0.4702,5.3371,47.5971,0.4567,1.0977,0.3992,-44.3928
16:33:29:135,-0.5816,0.7701,5.2005,47.6306,0.626,1.1168,0.6175,-44.2712
16:33:29:154,-0.4889,0.9387,5.1718,47.7653,0.7091,0.9284,0.7048,-44.1743
16:33:29:177,-0.6138,1.6177,5.3924,47.8192,0.4408,0.3897,0.5877,-44.1743
16:33:29:194,-0.8615,2.2168,6.8737,47.7916,0.0117,-0.1767,0.4003,-44.1743
16:33:29:215,-0.5089,2.1949,8.7712,47.8137,-0.2236,-0.4929,0.214,-44.1743
16:33:29:234,0.0802,1.524,9.7145,47.9067,-0.3364,-0.3801,-0.0415,-44.1743
16:33:29:253,0.2397,0.9364,10.1058,47.8892,-0.4461,0.2002,-0.2885,-44.1743
16:33:29:274,-0.1181,0.6059,10.9588,48.0872,-0.4919,0.7996,-0.3098,-44.1743
16:33:29:296,-0.7353,1.4049,11.9232,48.2523,-0.4386,1.0998,-0.1171,-44.1743
16:33:29:315,-1.1089,2.3675,12.2693,48.2636,-0.2726,1.5193,0.2938,-44.1743
16:33:29:334,-1.1568,3.1303,12.634,48.3944,-0.148,1.7258,0.6367,-44.1743
16:33:29:353,-1.1252,3.84,12.719,48.2159,-0.2097,1.3553,0.6154,-44.1743
16:33:29:376,-0.3526,2.5631,13.5284,48.1071,-0.3481,0.2427,0.1959,-44.1743
16:33:29:393,-0.1981,0.968,14.7467,48.0798,-0.2459,-1.2361,-0.4525,-44.1743
16:33:29:414,-0.3927,-0.4863,14.2066,48.3717,0.2619,-1.3266,-0.6473,-44.1743
16:33:29:434,-0.6786,-1.0226,12.576,48.5102,0.6782,-0.8368,-0.6494,-44.1743
16:33:29:453,-0.8173,-0.4343,10.9367,48.8507,0.8006,-0.6154,-0.6548,-44.1743
16:33:29:477,-0.6037,0.0617,9.7807,49.3528,0.5046,-0.6846,-0.5685,-44.1743
16:33:29:493,-0.2204,0.5857,9.0077,49.6498,0.0607,-0.5462,-0.4951,-44.1743
16:33:29:514,-0.1582,0.8505,8.3502,49.8912,-0.1778,0.0788,-0.6175,-44.1743
16:33:29:533,-0.508,0.952,7.5419,50.1418,-0.0341,0.5589,-0.7527,-44.0603
16:33:29:554,-0.9009,1.1033,6.466,50.37,0.2534,0.5483,-0.7953,-43.9205
16:33:29:574,-1.1087,0.9712,5.386,50.012,0.4184,0.1735,-0.8283,-43.7574
16:33:29:595,-1.1919,1.1007,4.7605,49.9529,0.4503,-0.3481,-0.7761,-43.5734
16:33:29:615,-1.1051,1.3121,4.7822,49.8156,0.3886,-0.724,-0.5345,-43.3706
16:33:29:633,-0.8389,1.3193,4.8882,49.6799,0.2278,-0.6271,-0.1948,-43.1535
16:33:29:654,-0.6925,1.6097,5.6644,49.8995,0.0596,0.264,0.0596,-42.9279
16:33:29:679,-0.4034,1.9583,7.1003,49.7996,-0.1139,0.6984,0.1054,-42.6964
16:33:29:695,-1.0379,2.6267,8.3529,50.1112,-0.3332,0.0852,-0.0671,-42.4832
16:33:29:714,-1.5215,2.7119,9.4045,50.4577,-0.2204,-0.0756,-0.1767,-42.2819
16:33:29:734,-1.7693,2.4793,10.3156,50.6562,0.0064,-0.2417,-0.131,-42.0827
16:33:29:754,-2.203,2.8064,10.4563,50.6192,0.1661,-0.2427,-0.0192,-41.885
16:33:29:777,-2.2756,2.8357,10.6254,50.6593,-0.0106,-0.0894,0.1693,-41.6899
16:33:29:793,-2.0991,2.7937,11.5351,50.7383,-0.478,-0.2183,0.2459,-41.5062
16:33:29:844,-2.0112,2.7186,13.2357,50.3829,-0.7346,-0.2811,0.2332,-41.342
16:33:29:846,-2.0478,2.3112,13.9377,51.0301,-0.3918,0.0639,0.3375,-41.1924
16:33:29:853,-2.1647,2.1136,13.0635,51.3007,0.3056,0.478,0.4919,-41.0513
16:33:29:873,-2.4641,2.1185,11.6036,51.4437,0.6846,0.1129,0.3854,-40.9259
16:33:29:893,-2.5874,1.7635,10.8034,51.717,0.4493,-0.9869,0.1256,-40.8247
16:33:29:915,-2.1799,0.783,11.2924,51.9823,0.0213,-1.647,-0.0277,-40.8247
16:33:29:933,-1.7692,0.1268,11.7638,52.1622,-0.1182,-1.5374,-0.0979,-40.8247
16:33:29:953,-1.3255,-0.3284,11.3609,52.3738,-0.0767,-1.0348,-0.1512,-40.8247
16:33:29:976,-0.9592,-0.5738,10.5056,52.2243,-0.1416,-0.6452,-0.2119,-40.7314
16:33:29:993,-1.0134,-0.3283,9.3223,52.3915,-0.2246,-0.1586,-0.1278,-40.6303
16:33:30:014,-1.2015,-0.0667,7.9177,52.53,-0.1597,0.494,0.1203,-40.5204
16:33:30:034,-1.3239,0.2548,6.5699,52.409,0.0351,1.0008,0.3716,-40.4085
16:33:30:053,-1.2026,0.5558,5.284,52.7567,0.2225,1.1839,0.5983,-40.3066
16:33:30:073,-0.9664,0.9879,4.6303,52.9831,0.3449,1.1275,0.7144,-40.3066
16:33:30:095,-0.9167,1.3694,4.2325,53.0298,0.378,0.8996,0.6771,-40.3066
16:33:30:114,-0.8974,1.4373,4.2116,53.0182,0.3992,0.4408,0.5291,-40.3066
16:33:30:133,-1.0343,1.492,4.5738,53.4491,0.1544,-0.1874,0.3907,-40.3066
16:33:30:153,-1.3734,1.9768,6.3062,53.5933,-0.3098,-0.7761,0.4301,-40.3066
16:33:30:177,-0.6761,1.6804,8.439,53.6624,-0.6207,-0.8666,0.4567,-40.3066
16:33:30:193,0.06,1.2968,10.1054,53.7567,-0.7048,-0.4429,0.2502,-40.3066
16:33:30:214,0.2044,0.8227,11.472,53.6414,-0.7708,0.3758,0.0798,-40.3066
16:33:30:233,-0.4048,0.7925,12.6545,53.3529,-0.8815,1.0455,0.0437,-40.3066
16:33:30:257,-1.4677,1.4219,13.2735,53.5879,-0.8613,1.6098,0.1395,-40.3066
16:33:30:274,-1.6129,1.8824,13.283,53.8105,-0.5781,1.7663,0.3119,-40.3066
16:33:30:294,-1.3624,2.2253,13.1649,53.5474,-0.1746,1.3383,0.2875,-40.3066
16:33:30:315,-1.5448,2.8689,12.5048,53.5179,0.2715,0.9305,0.3087,-40.3066
16:33:30:334,-1.0803,2.3658,12.3519,53.3435,0.2875,0.2214,0.2736,-40.4028
16:33:30:354,-0.3034,0.9061,13.3075,53.0829,-0.0543,-0.8805,-0.0756,-40.5159
16:33:30:375,0.0468,-0.4256,13.919,52.8291,-0.0298,-1.0902,-0.3364,-40.6344
16:33:30:393,-0.1099,-1.269,13.3697,52.9657,0.2938,-0.6761,-0.5249,-40.7362
16:33:30:415,-0.9736,-0.7916,12.0355,52.9369,0.5483,-0.33,-0.4983,-40.7362
16:33:30:434,-0.9772,-0.3434,10.6868,52.8873,0.4535,-0.3918,-0.3567,-40.7362
16:33:30:454,-0.4751,0.1978,9.7827,53.0817,0.2278,-0.5376,-0.3375,-40.7362
16:33:30:476,-0.1468,0.6398,8.8787,53.1528,0.1991,-0.363,-0.4461,-40.7362
16:33:30:493,-0.2273,1.0663,7.5966,53.4146,0.3343,0.0085,-0.5813,-40.7362
16:33:30:514,-0.3988,1.4087,6.239,53.2531,0.5174,0.2566,-0.6569,-40.7362
16:33:30:533,-0.457,1.4178,5.2018,52.8285,0.609,0.1959,-0.708,-40.7362
16:33:30:553,-0.5182,1.489,4.6462,52.4651,0.5653,0.033,-0.7346,-40.7362
16:33:30:574,-0.7765,1.5948,4.6095,52.0406,0.4887,-0.0085,-0.7357,-40.6421
16:33:30:594,-0.9663,1.4324,4.8296,51.7812,0.4301,-0.0011,-0.6654,-40.5242
16:33:30:614,-1.0125,1.4812,5.2494,51.3477,0.3013,-0.0713,-0.543,-40.3844
16:33:30:634,-1.0427,1.7489,6.1636,51.367,0.0117,-0.28,-0.4589,-40.23
16:33:30:654,-1.0768,2.001,7.5042,51.1999,-0.2715,-0.4525,-0.4333,-40.0678
16:33:30:677,-1.1862,2.1121,9.1001,51.0207,-0.395,-0.4812,-0.4312,-39.9009
16:33:30:693,-1.5751,2.3255,10.3356,51.1102,-0.3268,-0.2821,-0.3992,-39.7217
16:33:30:714,-2.0677,2.6382,10.7965,51.0567,-0.2236,-0.0639,-0.2779,-39.5318
16:33:30:735,-2.3958,2.9281,11.0008,50.8041,-0.3109,-0.0287,-0.1224,-39.3361
16:33:30:753,-2.4952,3.0343,11.7944,50.869,-0.4972,-0.1703,0.0117,-39.1436
16:33:30:777,-2.3304,2.661,12.9083,50.5304,-0.4929,-0.2374,0.1022,-38.9605
16:33:30:793,-2.519,2.6944,13.2855,50.0704,-0.1842,-0.0128,0.231,-38.7863
16:33:30:814,-2.7035,2.7605,12.7766,49.9693,0.1459,0.1906,0.3418,-38.6195
16:33:30:833,-2.5617,1.9448,12.2647,50.0738,0.1522,-0.2566,0.2278,-38.4689
16:33:30:854,-2.4986,0.9269,12.7404,50.1755,-0.0298,-0.8219,0.0287,-38.339
16:33:30:873,-2.6796,0.0783,13.1968,50.5541,0.0458,-0.9348,-0.0735,-38.2195
16:33:30:893,-2.7846,-0.5526,12.719,50.4771,0.2427,-0.6292,-0.0234,-38.0993
16:33:30:913,-2.6381,-0.7868,11.541,50.1935,0.2811,-0.23,0.0447,-37.9764
16:33:30:933,-2.2933,-0.9181,10.3737,49.8106,0.0788,0.0916,0.0852,-37.8541
16:33:30:953,-2.0053,-0.7227,9.2983,49.5001,-0.1235,0.3439,0.1065,-37.7365
16:33:30:976,-1.7725,-0.5802,8.1798,49.2729,-0.1597,0.5728,0.1491,-37.6229
16:33:30:993,-1.6299,-0.3987,6.8876,49.2123,0.016,0.5227,0.2151,-37.5179
16:33:31:014,-1.3809,-0.2139,6.1733,49.1925,0.1661,0.5227,0.3386,-37.4229
16:33:31:034,-1.1064,0.0948,5.5117,49.3771,0.2332,0.7346,0.5483,-37.4229
16:33:31:056,-1.2142,0.5088,5.1776,49.2237,0.1661,0.8794,0.7421,-37.4229
16:33:31:073,-1.3418,0.8781,4.9522,49.3699,0.1097,0.7474,0.856,-37.4229
16:33:31:093,-1.4257,1.4833,5.443,49.4648,0.0021,0.3833,0.8954,-37.4229
16:33:31:115,-1.1891,1.2388,6.4186,49.6929,-0.0053,0.0213,0.8198,-37.4229
16:33:31:135,-1.2003,1.5121,7.4911,49.6726,-0.0298,-0.346,0.7037,-37.4229
16:33:31:153,-1.036,1.663,8.4527,49.7563,-0.1075,-0.346,0.5664,-37.4229
16:33:31:176,-0.8619,1.6333,9.245,49.8664,-0.2449,-0.0756,0.4067,-37.5304
16:33:31:193,-0.9116,1.6354,9.8602,49.7915,-0.4099,0.3311,0.2928,-37.6466
16:33:31:215,-1.0892,1.8814,10.6175,49.6426,-0.6856,0.3748,0.2129,-37.7699
16:33:31:233,-1.3324,2.1637,11.8575,49.6104,-0.8751,0.2853,0.2065,-37.9027
16:33:31:253,-1.2053,2.2658,13.0336,49.3595,-0.8507,0.3311,0.2566,-38.0424
16:33:31:273,-1.2195,2.5366,13.6307,48.95,-0.5728,0.4631,0.2246,-38.1884
16:33:31:293,-1.3695,2.6915,13.0081,48.8165,-0.2204,0.5281,0.214,-38.3366
16:33:31:314,-0.7265,1.8634,12.6793,48.4058,-0.3716,-0.0351,0.1203,-38.4905
16:33:31:334,-0.2333,0.8593,13.5803,48.3449,-0.4461,-0.5717,-0.0426,-38.6547
16:33:31:353,0.0068,-0.4219,13.2505,48.0352,0.0745,-0.3971,-0.2246,-38.8154
16:33:31:374,-0.6859,-0.6939,11.283,47.9983,0.4695,-0.1107,-0.3556,-38.959
16:33:31:393,-1.2028,-0.307,9.5517,48.2475,0.3822,-0.1363,-0.3226,-39.0832
16:33:31:414,-0.744,-0.2193,8.6772,48.0449,-0.0564,-0.5004,-0.2821,-39.1943
16:33:31:433,-0.1178,-0.1766,8.8607,48.3602,-0.5462,-0.6633,-0.4024,-39.2982
16:33:31:453,-0.0988,0.0286,9.2842,48.452,-0.6835,-0.4227,-0.6058,-39.3895
16:33:31:473,-0.3456,-0.0342,8.8637,48.2275,-0.4291,0.1033,-0.7463,-39.3895
16:33:31:493,-0.78,0.0028,7.7917,48.6904,0,0.4983,-0.7101,-39.3895
16:33:31:514,-1.0674,0.2551,6.6353,48.9175,0.3226,0.444,-0.5419,-39.3895
16:33:31:534,-1.1611,0.6821,5.8488,49.2632,0.4567,0.165,-0.3109,-39.3895
16:33:31:553,-0.8914,0.9375,5.5146,49.5087,0.5217,-0.1235,-0.0841,-39.3895
16:33:31:578,-0.4027,1.1345,5.6558,49.8721,0.4642,-0.5217,-0.0128,-39.3895
16:33:31:594,-0.0884,1.4998,6.2141,49.9332,0.2949,-0.8379,-0.0362,-39.3895
16:33:31:614,0.1833,1.7168,7.2972,49.8649,0.0862,-0.9518,-0.1672,-39.3895
16:33:31:633,0.2575,1.8398,8.6922,49.7697,-0.0841,-0.9475,-0.3194,-39.3895
16:33:31:653,0.1199,1.9018,9.9948,49.4281,-0.1107,-0.7932,-0.395,-39.3895
16:33:31:678,-0.3726,2.0729,10.6928,49.0254,-0.0713,-0.4003,-0.3737,-39.3895
16:33:31:693,-0.9662,2.3368,10.894,48.9043,-0.05,0.0415,-0.197,-39.3895
16:33:31:713,-1.3593,2.7677,11.0915,48.4333,-0.1682,0.1448,-0.0181,-39.3895
16:33:31:733,-1.2573,2.6612,11.933,48.3061,-0.3929,-0.0138,0.0926,-39.3895
16:33:31:753,-1.0232,2.0726,13.6775,48.1944,-0.4897,-0.165,0.1746,-39.3895
16:33:31:776,-1.0529,1.7294,15.0258,47.9354,-0.2289,-0.066,0.2896,-39.3895
16:33:31:793,-1.2921,1.5824,14.7948,47.7299,0.3716,0.3481,0.4195,-39.3895
16:33:31:814,-1.2177,0.7128,13.2858,47.452,0.79,0.2161,0.3237,-39.3895
16:33:31:851,-1.4621,0.0119,12.1373,47.5078,0.84,-0.4802,0.083,-39.3895
16:33:31:855,-1.708,-0.4458,11.5342,47.409,0.7101,-0.8677,0.0202,-39.3895
16:33:31:873,-1.6044,-0.7606,11.0443,47.8049,0.56,-0.7687,0.0437,-39.3895
16:33:31:894,-1.3134,-0.7266,10.4276,48.0102,0.3684,-0.6111,0.0437,-39.3895
16:33:31:914,-0.664,-0.6843,9.5642,48.2319,0.1214,-0.3737,-0.033,-39.3895
16:33:31:935,-0.2232,-0.5762,8.5328,48.6073,-0.1192,-0.116,-0.2044,-39.3895
16:33:31:953,-0.3076,-0.3646,7.4234,49.0533,-0.2417,0.1714,-0.3247,-39.3895
16:33:31:973,-0.7206,-0.2252,6.3471,49.1734,-0.2268,0.3939,-0.3034,-39.3895
16:33:31:994,-0.9697,-0.0429,5.4226,49.3233,-0.1235,0.4887,-0.1331,-39.3895
16:33:32:015,-0.9936,0.2824,4.8,49.2406,-0.0256,0.4557,0.1097,-39.3895
16:33:32:033,-0.7966,0.5505,4.4549,49.1614,0.049,0.3939,0.2917,-39.3895
16:33:32:053,-0.6172,0.7106,4.4046,49.0813,0.0106,0.1874,0.3428,-39.3895
16:33:32:076,-0.7678,1.1821,5.1268,49.1182,-0.198,-0.2321,0.2747,-39.3895
16:33:32:094,-0.4951,1.198,6.6261,49.0458,-0.4557,-0.5909,0.1618,-39.3895
16:33:32:114,-0.236,1.0563,8.3858,48.7766,-0.6303,-0.5174,0.0106,-39.3895
16:33:32:134,-0.0559,0.6957,9.7119,48.5711,-0.6452,0.0106,-0.1576,-39.3895
16:33:32:153,-0.3099,0.4913,10.6799,48.2558,-0.626,0.3673,-0.2704,-39.3895
16:33:32:177,-0.6519,0.5972,11.7042,48.3077,-0.6484,0.4993,-0.2576,-39.3895
16:33:32:193,-0.7375,0.4321,12.9132,48.01,-0.6963,0.6164,-0.1405,-39.3895
16:33:32:213,-0.9839,0.8562,13.7821,47.6869,-0.5898,0.9018,0.0586,-39.3895
16:33:32:233,-1.0491,1.3432,14.0722,47.5444,-0.3215,1.1605,0.2619,-39.3895
16:33:32:253,-1.026,2.0546,13.8643,47.1171,-0.0128,1.2148,0.3929,-39.3895
16:33:32:273,-0.5381,2.2078,13.6719,46.55,-0.0788,0.7516,0.2736,-39.3895
16:33:32:296,0.5474,0.9402,14.6711,46.3183,-0.1661,-0.1906,-0.1043,-39.3895
16:33:32:313,1.1372,-1.0386,14.206,46.4009,0.2736,-0.4514,-0.4195,-39.3895
16:33:32:333,0.6491,-1.8423,12.4899,46.4858,0.6505,-0.2257,-0.5962,-39.3895
16:33:32:353,-0.1775,-1.3458,10.9463,46.8967,0.6494,-0.2289,-0.5387,-39.3895
16:33:32:373,-0.0524,-0.9331,10.0102,47.5716,0.3897,-0.4472,-0.362,-39.3895
16:33:32:396,0.391,-0.349,9.3107,48.0456,0.1618,-0.412,-0.3375,-39.3895
16:33:32:414,0.3611,0.1634,8.3346,48.1312,0.1554,-0.1054,-0.4674,-39.2879
16:33:32:433,-0.0474,0.6067,6.9783,48.3655,0.2576,0.1533,-0.5877,-39.1705
16:33:32:453,-0.3692,0.8413,5.7982,48.3796,0.3907,0.1022,-0.626,-39.0348
16:33:32:474,-0.5259,1.0017,4.8423,48.1901,0.4354,-0.1948,-0.6228,-38.8823
16:33:32:493,-0.6553,1.1591,4.3705,47.806,0.4067,-0.444,-0.6218,-38.7149
16:33:32:514,-0.6493,1.1958,4.3418,47.6126,0.3354,-0.5877,-0.6399,-38.5323
16:33:32:533,-0.5699,1.0665,4.5235,47.5234,0.2151,-0.6164,-0.6484,-38.3338
16:33:32:553,-0.461,0.9048,4.9435,47.2888,-0.0202,-0.6569,-0.5973,-38.1194
16:33:32:575,-0.6082,1.2349,6.1074,47.3249,-0.3875,-0.7974,-0.5259,-37.894
16:33:32:593,-0.4599,1.2053,8.1063,46.8772,-0.6367,-0.9241,-0.4748,-37.6584
16:33:32:613,-0.3186,0.6667,10.0029,46.7462,-0.6835,-0.6729,-0.4503,-37.4138
16:33:32:633,-0.4811,0.5596,11.2017,46.4471,-0.6942,0.0628,-0.3205,-37.1545
16:33:32:653,-1.1178,0.8449,12.4011,46.6029,-0.7229,0.642,-0.1182,-36.8835
16:33:32:676,-1.9518,1.4026,13.2946,46.3785,-0.6611,0.7453,0.1554,-36.609
16:33:32:693,-2.1981,1.4736,13.9623,46.3346,-0.5046,0.4897,0.3609,-36.3467
16:33:32:713,-2.001,1.3456,14.5016,46.3034,-0.3343,0.2332,0.494,-36.1059
16:33:32:733,-1.83,1.4372,14.9548,45.9549,-0.0437,0.3205,0.6643,-35.8888
16:33:32:753,-1.8316,1.4879,14.5309,46.0595,0.4195,0.675,0.8698,-35.6951
16:33:32:773,-1.5146,0.853,13.315,46.034,0.8187,0.5515,0.8304,-35.5315
16:33:32:793,-1.5943,0.0915,12.1844,45.9063,0.9135,-0.1033,0.4738,-35.4039
16:33:32:814,-2.0922,-0.3939,11.6686,45.6614,0.7399,-0.7793,0.2119,-35.3057
16:33:32:835,-2.1724,-1.0876,11.5404,45.5021,0.5834,-0.9635,0.1576,-35.3057
16:33:32:853,-2.0925,-1.4985,11.02,45.5212,0.5121,-0.8358,0.1895,-35.3057
16:33:32:873,-1.713,-1.6577,10.1243,45.3825,0.4291,-0.6899,0.2395,-35.3057
16:33:32:894,-1.0985,-1.6078,9.1232,45.4205,0.2843,-0.692,0.2395,-35.3057
16:33:32:914,-0.5094,-1.4082,8.1018,45.6667,0.1767,-0.6356,0.214,-35.3057
16:33:32:933,-0.2188,-1.0825,6.9095,45.6603,0.1565,-0.4173,0.2225,-35.3057
16:33:32:953,-0.0095,-0.8137,5.854,45.5293,0.2204,-0.0373,0.3226,-35.3057
16:33:32:975,0.1733,-0.5776,5.1604,46.0034,0.2789,0.3854,0.5089,-35.3057
16:33:32:994,0.0777,-0.0001,4.7348,45.8951,0.313,0.8017,0.7197,-35.3057
16:33:33:017,0.0796,0.6486,4.6071,46.1446,0.2938,1.0455,0.8634,-35.3057
16:33:33:034,0.2309,0.9064,4.6148,45.9853,0.1405,0.8581,0.8198,-35.3057
16:33:33:055,0.3698,1.2547,5.5498,45.8006,-0.2406,0.165,0.659,-35.3057
16:33:33:078,0.6258,1.3118,7.7526,45.8609,-0.5398,-0.445,0.4748,-35.4026
16:33:33:093,0.9708,0.8418,9.814,45.8222,-0.5217,-0.4248,0.231,-35.5175
16:33:33:114,0.9495,0.7507,10.6866,46.0303,-0.346,0.2811,0.0106,-35.6339
16:33:33:136,0.7001,0.705,11.1766,46.3473,-0.3503,1.0263,-0.0884,-35.7391
16:33:33:154,0.1571,1.0622,11.7297,46.5451,-0.5707,1.2116,-0.1778,-35.8348
16:33:33:177,-0.5443,1.7206,12.5997,46.3932,-0.7208,1.0945,-0.247,-35.8348
16:33:33:194,-1.0012,1.9097,13.2966,46.1253,-0.5738,0.9699,-0.3279,-35.8348
16:33:33:216,-1.7379,2.3589,13.5112,45.9184,-0.2353,0.9497,-0.3013,-35.8348
16:33:33:233,-2.1601,2.8077,13.148,45.7542,-0.0447,0.8049,-0.0788,-35.8348
16:33:33:254,-0.9615,1.8253,13.9652,45.3967,-0.3173,-0.0405,-0.0021,-35.8348
16:33:33:274,0.0504,0.1871,15.5932,45.2218,-0.1437,-0.6729,-0.1448,-35.8348
16:33:33:293,0.2986,-1.3633,14.7676,45.0411,0.4578,-0.412,-0.2821,-35.8348
16:33:33:313,-0.7054,-1.3893,13.1958,45.2357,0.9465,-0.164,-0.3173,-35.8348
16:33:33:333,-1.2335,-0.8933,11.5114,45.2114,1.0668,-0.2332,-0.0405,-35.8348
16:33:33:354,-0.6611,-0.5003,9.9361,45.661,0.9997,-0.2938,0.2417,-35.8348
16:33:33:376,0.0073,-0.0369,8.5041,46.168,0.8996,-0.2289,0.2768,-35.8348
16:33:33:393,0.3292,0.2401,7.2175,47.0679,0.7772,-0.1427,0.1299,-35.8348
16:33:33:414,0.1251,0.5625,6.198,47.4278,0.6218,-0.0713,-0.0405,-35.8348
16:33:33:433,-0.1878,0.6761,5.4274,47.7099,0.5249,0.0543,-0.1278,-35.8348
16:33:33:453,-0.3351,0.8116,5.0955,47.592,0.5579,0.1491,-0.0916,-35.8348
16:33:33:474,-0.1634,0.7812,4.5621,47.5014,0.6356,0.4141,0.0064,-35.8348
16:33:33:494,0.0526,1.0011,4.2987,47.4095,0.5611,0.445,0.0277,-35.8348
16:33:33:513,-0.0306,1.8839,4.5258,47.3201,0.28,0.1427,-0.0085,-35.8348
16:33:33:533,0.0935,2.4606,5.3097,47.3008,0.0085,-0.1874,-0.1171,-35.8348
16:33:33:553,0.391,2.4601,6.2913,47.4634,-0.1874,-0.1491,-0.2906,-35.8348
16:33:33:575,0.3649,2.3732,7.2839,47.4479,-0.4386,0.2023,-0.4078,-35.8348
16:33:33:594,-0.1711,2.7786,8.6248,47.4619,-0.6771,0.3567,-0.444,-35.8348
16:33:33:614,-0.8477,3.3102,10.2299,47.3635,-0.7921,0.1906,-0.4237,-35.8348
16:33:33:634,-1.0996,3.4824,11.4273,47.2189,-0.7378,-0.1416,-0.4078,-35.8348
16:33:33:654,-1.2239,3.1775,12.5639,47.2683,-0.7676,-0.3929,-0.3449,-35.8348
16:33:33:679,-1.0806,2.6847,14.0758,47.0769,-0.7591,-0.5888,-0.2044,-35.8348
16:33:33:695,-1.0091,2.5438,15.2009,47.4465,-0.4929,-0.6516,-0.0522,-35.8348
16:33:33:714,-1.0364,2.6947,14.8399,47.4597,0.0554,-0.2204,0.1001,-35.8348
16:33:33:734,-1.1501,2.4352,13.4057,47.6292,0.5898,0.2225,0.0926,-35.8348
16:33:33:753,-1.781,1.9195,11.5199,47.9385,0.7772,-0.1693,-0.165,-35.8348
16:33:33:775,-2.4567,1.0654,10.4894,48.1217,0.5068,-1.0636,-0.4354,-35.8348
16:33:33:795,-2.6043,0.3481,10.7605,48.3707,0.0926,-1.7993,-0.5483,-35.8348
16:33:33:815,-2.1153,-0.3621,11.3446,48.3498,-0.0213,-1.8855,-0.6111,-35.8348
16:33:33:858,-1.7323,-0.9213,11.2672,48.5093,0.1118,-1.4948,-0.6079,-35.8348
16:33:33:859,-1.4682,-1.2764,10.583,48.4685,0.181,-0.9497,-0.5451,-35.728
16:33:33:873,-1.6275,-1.2284,9.4634,48.635,0.2161,-0.7325,-0.2225,-35.5981
16:33:33:893,-1.2859,-0.9745,8.4236,48.6708,0.2491,-0.1735,0.198,-35.4569
16:33:33:915,-0.5265,-0.519,7.5393,48.3505,0.3013,0.4482,0.5451,-35.3182
16:33:33:934,0.7662,-0.017,6.102,48.4802,0.2928,1.1498,0.5025,-35.191
16:33:33:953,0.534,1.2221,5.1697,48.1883,-0.017,1.4394,0.0894,-35.0831
16:33:33:973,-0.6673,2.2635,5.304,47.9888,-0.2257,1.2829,-0.0735,-34.9861
16:33:33:993,-1.0705,1.9226,6.1794,47.9275,-0.1373,0.8049,0.0021,-34.8935
16:33:34:015,-0.9656,1.8244,7.3973,48.1282,0.1139,0.0628,0.0713,-34.8935
16:33:34:034,-0.62,1.5935,8.2296,47.9031,0.3961,-0.4333,0.0511,-34.8935
16:33:34:054,-0.4774,1.5265,8.4383,47.6477,0.5845,-0.5419,-0.0138,-34.8935
16:33:34:081,-0.4252,1.412,8.3316,47.4394,0.5547,-0.3439,-0.0649,-34.8935
16:33:34:094,-0.252,1.5322,8.3526,47.1116,0.263,-0.2097,-0.0841,-34.8935
16:33:34:115,-0.1036,1.4326,8.9654,46.9452,-0.1735,-0.2587,-0.1661,-34.8935
16:33:34:133,-0.186,1.6508,10.3647,46.9506,-0.5643,-0.3194,-0.1416,-34.8935
16:33:34:153,-0.0692,1.9939,12.0182,47.0341,-0.6186,-0.1693,0.0426,-34.8935
16:33:34:177,0.3248,2.0198,12.8185,47.2905,-0.3609,-0.0383,0.1533,-34.8935
16:33:34:193,0.0969,1.9527,12.4927,47.2671,-0.1086,0.2023,0.1906,-34.8935
16:33:34:214,-0.1558,2.026,11.716,47.2516,-0.0468,0.4014,0.362,-34.8935
16:33:34:233,0.7842,1.105,12.0752,47.223,-0.3748,-0.3428,0.4291,-34.8935
16:33:34:254,1.0991,0.6226,13.3532,47.0402,-0.3811,-1.202,0.2278,-34.8935
16:33:34:275,1.1637,-0.1813,13.5449,46.9055,0.1629,-1.2403,0.1118,-34.8935
16:33:34:294,1.1392,-0.2723,12.2834,46.8424,0.7261,-0.824,0.1448,-34.8935
16:33:34:316,1.2239,0.6777,10.5967,47.288,0.8304,-0.5526,0.1799,-34.8935
16:33:34:334,1.0951,1.9493,8.9089,47.4274,0.4333,-0.5728,0.1874,-34.8935
16:33:34:354,1.2847,2.3091,7.8713,47.8018,0.0202,-0.2044,0.1065,-34.8935
16:33:34:374,1.3576,2.2426,7.2881,48.248,-0.1778,0.3002,-0.0554,-34.8935
16:33:34:394,1.1281,2.1074,6.6953,48.3334,-0.1927,0.5302,-0.2268,-34.8935
16:33:34:415,0.5707,2.3964,6.6356,48.286,-0.3045,0.2481,-0.3769,-34.8935
16:33:34:433,0.1337,2.5001,7.0381,48.1274,-0.0958,0.165,-0.444,-34.8935
16:33:34:455,0.1163,1.9754,6.5228,47.7554,0.2321,0.2651,-0.3705,-34.8935
16:33:34:474,0.2858,1.9214,5.8821,47.4574,0.3449,0.2151,-0.2502,-34.8935
16:33:34:494,-0.1675,2.4989,6.0106,47.3899,0.1799,-0.0149,-0.23,-34.8935
16:33:34:514,0.0521,2.8203,6.8459,47.2377,0.0671,-0.3045,-0.1576,-34.8935
16:33:34:534,0.6758,2.5963,7.6229,46.787,0.0575,-0.5227,-0.0937,-34.8935
16:33:34:554,1.1707,2.6371,8.4313,46.6734,-0.0596,-0.5919,-0.0862,-34.8935
16:33:34:577,1.0465,2.9932,10.068,46.7779,-0.1512,-0.3843,-0.0937,-34.8935
16:33:34:594,1.0721,3.1012,10.922,46.5063,0.0032,0.2864,-0.0234,-34.7983
16:33:34:614,0.8869,2.9407,10.3722,46.6065,0.1799,0.5611,0.1278,-34.6983
16:33:34:634,0.6748,2.7853,10.7536,46.5841,-0.1852,0.5792,0.2332,-34.6044
16:33:34:654,0.5056,2.5888,12.2766,46.4046,-0.5792,0.6292,0.4269,-34.6044
16:33:34:677,0.0826,2.4849,13.8487,46.4443,-0.6324,0.56,0.5685,-34.6044
16:33:34:695,-0.2976,2.5677,13.9345,46.4579,-0.2002,0.7293,0.7144,-34.6044
16:33:34:714,-0.2059,2.1545,13.0975,46.7436,0.1576,0.659,0.7932,-34.6044
16:33:34:736,-0.0714,1.5498,12.5903,46.9982,0.1384,-0.1203,0.4983,-34.6044
16:33:34:753,-0.4668,1.1379,12.5796,46.947,0.1714,-0.6931,0.2044,-34.6044
16:33:34:773,-0.5772,0.6317,12.0528,46.7141,0.3205,-0.8208,0.1022,-34.6044
16:33:34:793,-0.4889,0.4969,10.9285,46.3835,0.3535,-0.6654,0.0628,-34.6044
16:33:34:815,-0.1988,0.3877,9.6443,46.0877,0.2321,-0.4557,-0.0245,-34.6044
16:33:34:834,0.117,0.1431,8.7321,45.8393,-0.0756,-0.5025,-0.1789,-34.6044
16:33:34:853,0.0271,0.2531,7.9069,45.702,-0.3215,-0.3343,-0.2513,-34.6044
16:33:34:873,-0.0492,0.3188,7.208,45.6069,-0.3609,0.0767,-0.2023,-34.6044
16:33:34:895,-0.0934,0.1762,6.2818,45.5309,-0.2044,0.5249,-0.1459,-34.6044
16:33:34:914,-0.2205,0.1457,5.3423,45.5038,-0.05,0.7591,-0.0979,-34.6044
16:33:34:933,-0.6438,0.4144,4.7736,45.6428,-0.0554,0.8475,0.0383,-34.6044
16:33:34:953,-1.075,0.6981,4.8706,45.4923,-0.1565,0.8624,0.3407,-34.6044
16:33:34:975,-0.763,0.871,5.3276,45.5414,-0.2779,0.7037,0.5983,-34.6044
16:33:34:994,-0.1329,1.5625,6.7608,45.7287,-0.4834,-0.0011,0.593,-34.6044
16:33:35:014,0.3422,2.186,8.7612,45.8845,-0.5643,-0.7367,0.3098,-34.6044
16:33:35:034,0.8139,1.2728,10.0583,45.905,-0.3045,-0.6207,0.017,-34.6044
16:33:35:054,0.5849,1.135,10.35,46.0464,-0.0607,0.0138,-0.214,-34.6044
16:33:35:077,-0.0444,2.0216,10.3562,46.446,-0.2065,0.5888,-0.4706,-34.6044
16:33:35:093,-0.1919,2.0115,10.7751,46.2234,-0.3875,0.263,-0.4141,-34.6044
16:33:35:114,-0.7074,1.6116,11.7979,45.7914,-0.4365,0.5078,-0.3918,-34.6044
16:33:35:134,-0.4827,1.5388,12.7072,45.6229,-0.3066,0.6175,-0.2151,-34.6044
16:33:35:153,-0.3203,1.5865,13.2213,45.188,-0.1501,0.5515,-0.1703,-34.6044
16:33:35:177,-0.4566,2.0858,12.8999,44.7673,-0.0522,0.5323,-0.164,-34.6044
16:33:35:193,0.5183,1.1485,12.9533,44.6151,-0.4291,0.165,-0.2789,-34.6044
16:33:35:214,0.9869,-0.0117,14.1997,44.0962,-0.5941,-0.1065,-0.3386,-34.6044
16:33:35:233,1.0778,-0.9677,14.0431,43.6138,-0.0298,-0.1288,-0.3556,-34.6044
16:33:35:253,0.6837,-1.1342,12.4758,43.1212,0.4227,-0.1608,-0.33,-34.6044
16:33:35:273,0.4373,-0.5763,10.9877,42.791,0.5227,-0.2289,-0.181,-34.6044
16:33:35:294,0.7649,-0.041,9.7224,42.7788,0.4621,-0.2172,-0.0351,-34.6044
16:33:35:314,0.9918,0.61,8.6283,43.1837,0.313,-0.0916,-0.0862,-34.6044
16:33:35:333,0.8327,1.1778,7.6827,43.3653,0.23,0.1927,-0.231,-34.6044
16:33:35:353,0.5898,1.3826,6.6935,44.0354,0.2406,0.461,-0.3769,-34.6044
16:33:35:374,0.3081,1.4394,5.8574,43.9706,0.2491,0.4386,-0.4802,-34.6044
16:33:35:393,-0.0505,1.4197,5.4263,43.6346,0.2417,0.132,-0.5579,-34.5081
16:33:35:413,-0.2931,1.2952,5.1275,43.5141,0.2491,-0.1672,-0.5653,-34.3993
16:33:35:434,-0.5034,1.0695,5.0371,43.286,0.2406,-0.4088,-0.5174,-34.2765
16:33:35:454,-0.5362,0.8748,5.2935,42.9599,0.0639,-0.6526,-0.4056,-34.1422
16:33:35:474,-0.5505,0.9815,6.13,43.1022,-0.1554,-0.8102,-0.2364,-34.0002
16:33:35:494,-0.3654,1.0713,7.3695,42.9977,-0.3545,-0.8911,-0.0639,-33.8554
16:33:35:514,-0.1154,1.6431,8.4834,42.7974,-0.4503,-0.8251,0.0351,-33.7122
16:33:35:534,0.2997,2.2484,9.6495,42.8503,-0.5483,-0.4312,0,-33.571
16:33:35:553,0.4256,2.0752,10.8612,42.7878,-0.6175,0.1469,-0.1054,-33.4278
16:33:35:576,-0.1968,2.0339,11.9804,42.8814,-0.5483,0.4173,-0.0575,-33.2794
16:33:35:595,-0.739,2.2415,12.6505,43.1523,-0.4961,0.3875,0.1278,-33.1303
16:33:35:615,-0.5563,1.9008,14.0305,43.3895,-0.5494,0.1895,0.3268,-32.9893
16:33:35:634,-0.4041,1.8015,15.576,43.1237,-0.3513,0.1842,0.4876,-32.8631
16:33:35:653,-0.3829,1.8113,15.8109,43.0139,0.2278,0.4759,0.5866,-32.7517
16:33:35:678,-0.3539,1.2776,14.5139,42.8846,0.5334,0.412,0.4227,-32.6569
16:33:35:695,-0.7374,0.3644,13.4632,42.744,0.5589,0.0479,0.1011,-32.6569
16:33:35:714,-1.3235,-0.3107,12.6035,42.6338,0.5408,-0.2214,-0.0053,-32.6569
16:33:35:734,-1.5698,-0.7687,11.9243,42.6079,0.5738,-0.3215,0.0586,-32.6569
16:33:35:753,-1.4267,-0.7002,10.8563,42.6866,0.6569,-0.1682,0.1927,-32.6569
16:33:35:778,-1.1634,-0.3358,9.4043,42.8854,0.5611,0.1107,0.2736,-32.6569
16:33:35:794,-0.8544,0.1153,8.3936,42.9635,0.3364,0.3907,0.3141,-32.6569
16:33:35:814,-0.7683,0.5881,7.5163,42.9299,0.1959,0.6335,0.2555,-32.6569
16:33:35:833,-0.8933,0.7355,6.6493,43.0364,0.197,0.7634,0.1938,-32.6569
16:33:35:869,-1.0257,0.7574,5.7435,43.0902,0.2151,0.7069,0.2129,-32.6569
16:33:35:873,-1.0816,0.7592,5.0679,43.0389,0.1586,0.5015,0.3183,-32.6569
16:33:35:893,-1.1833,0.8552,4.8078,43.2766,0.0671,0.3322,0.4759,-32.6569
16:33:35:915,-1.2718,0.99,4.9536,43.1356,-0.0884,0.2097,0.6218,-32.6569
16:33:35:933,-1.1234,1.1444,5.5419,43.0459,-0.2779,0.0032,0.7037,-32.6569
16:33:35:953,-0.7912,1.4215,6.8938,43.3758,-0.4397,-0.2672,0.6441,-32.6569
16:33:35:973,-0.4517,1.2035,8.3793,43.3794,-0.3492,-0.4014,0.4983,-32.754
16:33:35:994,-0.2847,0.7775,9.3991,43.6204,-0.1522,-0.1767,0.3332,-32.8654
16:33:36:016,-0.5481,0.7878,10.0046,43.8521,0.0394,0.3173,0.2395,-32.9809
16:33:36:033,-0.581,1.0731,10.1425,44.1005,0.1852,0.6729,0.1522,-33.0958
16:33:36:054,-0.5511,1.1811,10.4568,44.0218,0.0724,0.7186,0.0362,-33.211
16:33:36:078,-0.7022,1.3872,10.9031,44.3248,-0.0437,0.8155,0.0256,-33.3255
16:33:36:094,-0.7416,1.7666,11.5612,44.2913,-0.1395,0.8751,0.131,-33.4364
16:33:36:114,-0.6761,2.1425,12.1125,44.3704,-0.165,0.939,0.247,-33.548
16:33:36:133,-0.1311,2.4255,12.213,44.3047,-0.3545,0.8943,0.1991,-33.6639
16:33:36:154,0.8718,1.0545,13.6975,44.3592,-0.8389,0.2002,-0.2129,-33.7918
16:33:36:177,0.5903,-0.2028,14.8873,44.2363,-0.4876,-0.0724,-0.576,-33.9239
16:33:36:193,-0.1633,-0.91,14.0527,44.021,0.1288,0.0351,-0.6931,-34.0319
16:33:36:214,-0.8826,-0.789,12.5523,43.8104,0.2598,0.0319,-0.6548,-34.0319
16:33:36:234,-1.0242,-0.3546,11.4095,43.6955,0.1246,0.0053,-0.4503,-34.0319
16:33:36:253,-0.4003,0.1208,10.4077,43.5089,0.0373,0.0926,-0.3247,-34.0319
16:33:36:274,-0.0082,0.6138,9.2052,43.401,0.0628,0.3332,-0.4535,-34.0319
16:33:36:294,-0.1133,0.9902,7.9994,43.4686,0.1437,0.4642,-0.6878,-34.0319
16:33:36:314,-0.6507,1.3422,6.9279,43.2212,0.2811,0.411,-0.8304,-34.0319
16:33:36:335,-1.1235,1.3902,5.7726,43.5116,0.4152,0.2033,-0.8059,-34.0319
16:33:36:354,-1.3512,1.4312,4.9776,43.6803,0.412,-0.1693,-0.6729,-34.0319
16:33:36:375,-1.1563,1.3695,4.879,43.5512,0.2459,-0.6058,-0.5589,-33.9381
16:33:36:394,-0.9025,1.0815,5.4572,43.3873,0.1043,-0.7921,-0.5579,-33.83
16:33:36:414,-1.0027,0.8388,6.4803,43.3563,0.0607,-0.823,-0.5813,-33.7086
16:33:36:434,-1.1139,0.8345,7.4519,43.264,0.0926,-0.9018,-0.5227,-33.5691
16:33:36:453,-1.0732,1.0102,8.3618,43.303,0.0106,-0.9912,-0.4589,-33.4161
16:33:36:473,-1.0979,1.5497,9.5924,43.4325,-0.0745,-0.8869,-0.4141,-33.252
16:33:36:493,-1.2737,1.7144,10.7862,43.5621,-0.0075,-0.3897,-0.3002,-33.0751
16:33:36:514,-1.7346,1.8301,11.3239,43.5594,0.2395,0.3034,-0.1107,-32.8841
16:33:36:533,-2.1514,2.4552,11.0353,43.4325,0.3215,0.6462,0.1086,-32.6855
16:33:36:553,-2.4434,3.1139,11.3634,43.5801,0.1214,0.3524,0.2076,-32.4947
16:33:36:576,-2.5186,3.1893,12.2023,43.5561,0.0085,-0.1043,0.2672,-32.3218
16:33:36:593,-2.5915,2.7463,12.8309,43.7198,0.1171,-0.2694,0.444,-32.1669
16:33:36:614,-2.7209,2.863,12.7387,43.4952,0.4887,-0.0096,0.7197,-32.0292
16:33:36:633,-2.4226,2.722,11.7521,43.5551,0.7815,0.0458,0.7836,-31.9118
16:33:36:654,-2.1057,1.8329,10.5607,43.3674,0.6856,-0.4493,0.5195,-31.9118
16:33:36:677,-1.8533,0.4835,11.2328,43.5031,0.0767,-1.3691,0.1608,-31.9118
16:33:36:693,-1.7288,-0.8175,13.0277,43.4354,-0.2427,-1.9345,-0.0873,-31.9118
16:33:36:715,-1.6063,-1.7682,13.368,43.3328,0.1235,-1.4362,-0.0149,-31.9118
16:33:36:736,-1.5356,-1.6521,11.4852,42.9921,0.6069,-0.5089,0.2278,-31.9118
16:33:36:754,-1.3735,-0.6104,8.8517,42.9172,0.6601,0.2694,0.5281,-31.9118
16:33:36:775,-0.7365,0.1604,6.8107,42.9201,0.2928,0.7729,0.6856,-31.9118
16:33:36:794,-0.4129,0.8606,5.9135,43.0019,-0.1299,0.9188,0.6558,-31.9118
16:33:36:814,-0.5065,1.2458,5.511,42.7831,-0.1501,0.8475,0.577,-31.9118
16:33:36:833,-0.376,1.1733,4.9119,42.799,0.0085,0.675,0.5408,-31.9118
16:33:36:854,-0.1955,1.1568,4.1221,42.6308,0.1214,0.5185,0.5643,-31.9118
16:33:36:874,-0.0574,1.6087,4.0897,42.6622,-0.0277,0.2651,0.5504,-31.9118
16:33:36:894,-0.1196,2.2177,5.1781,42.8677,-0.2906,-0.0607,0.4078,-32.0047
16:33:36:914,-0.044,2.1238,7.1415,43.0096,-0.4269,-0.5568,0.2821,-32.1163
16:33:36:933,0.2926,1.8651,9.0372,42.9529,-0.4653,-0.8741,0.1384,-32.2412
16:33:36:953,0.4845,1.9374,10.3661,43.3695,-0.3897,-0.576,-0.017,-32.3684
16:33:36:974,0.3533,1.8232,10.9827,43.3842,-0.2651,0.1299,-0.1576,-32.4851
16:33:36:993,0.1735,1.6396,11.4167,43.211,-0.2097,0.543,-0.2513,-32.5852
16:33:37:014,-0.1989,2.0757,11.9566,43.1562,-0.2811,0.6154,-0.3002,-32.5852
16:33:37:033,-0.6409,2.7757,12.4768,42.9357,-0.2491,0.7687,-0.2917,-32.5852
16:33:37:055,-0.7669,3.0482,12.5435,42.4796,-0.1597,0.8773,-0.2353,-32.5852
16:33:37:076,-0.8683,3.1331,12.5396,42.0299,-0.0969,0.8751,-0.1139,-32.5852
16:33:37:093,-0.9698,3.5271,12.3947,41.2107,-0.0043,0.6526,0.0798,-32.5852
16:33:37:116,0.5702,2.1825,13.3076,40.5714,-0.1884,-0.2513,-0.0224,-32.5852
16:33:37:133,0.9756,0.5786,14.527,40.0931,0.0873,-1.0668,-0.3237,-32.5852
16:33:37:153,0.7683,-0.4207,12.9986,39.7958,0.7378,-0.8113,-0.5142,-32.5852
16:33:37:177,-0.1347,-0.2635,10.7501,39.7505,0.8272,-0.4099,-0.5707,-32.5852
16:33:37:194,-0.7054,0.1639,9.2477,39.8173,0.4642,-0.3098,-0.4397,-32.5852
16:33:37:215,-0.2226,0.4392,8.8642,40.2331,0.0575,-0.4248,-0.2864,-32.5852
16:33:37:234,0.5195,0.6712,8.6708,41.0061,-0.0894,-0.3897,-0.3567,-32.5852
16:33:37:253,0.8417,0.8904,8.1742,41.4157,-0.1224,-0.2374,-0.6037,-32.5852
16:33:37:273,0.4491,1.1659,7.4015,41.9533,-0.049,-0.0149,-0.8347,-32.5852
16:33:37:293,-0.1411,1.2437,6.5338,42.0122,-0.0181,0.2097,-0.8815,-32.5852
16:33:37:314,-0.6615,1.328,6.0037,41.7659,0.0437,0.1938,-0.8081,-32.4758
16:33:37:333,-0.8101,1.4764,5.8867,41.2584,0.099,-0.0532,-0.6537,-32.3423
16:33:37:354,-0.5143,1.3192,5.8933,41.0789,0.1661,-0.1565,-0.5068,-32.1912
16:33:37:375,-0.1739,1.3555,6.2789,40.6951,0.1469,-0.1629,-0.4376,-32.0255
16:33:37:393,-0.0863,1.6112,6.9815,40.5576,-0.0032,-0.1661,-0.4003,-31.8497
16:33:37:416,0.0682,1.9047,8.1321,40.4636,-0.1884,-0.1373,-0.3886,-31.665
16:33:37:434,-0.0645,2.1567,9.3277,40.4966,-0.2938,-0.0522,-0.4216,-31.4722
16:33:37:454,-0.6246,2.4992,10.2494,40.7781,-0.1842,0.2129,-0.378,-31.269
16:33:37:473,-1.1817,2.864,10.3334,40.7243,0.0745,0.5217,-0.2491,-31.0533
16:33:37:493,-1.694,3.3424,10.1922,40.5229,0.1586,0.4429,-0.0798,-30.8314
16:33:37:514,-2.1985,3.8407,10.61,40.5962,0.0884,-0.099,0.0554,-30.6164
16:33:37:536,-2.039,3.4683,11.4867,40.2209,-0.1554,-0.6058,0.1512,-30.418
16:33:37:554,-1.7849,2.7044,13.2883,39.9519,-0.2534,-0.6335,0.2619,-30.234
16:33:37:580,-1.8972,2.44,14.0254,39.9107,0.2033,-0.0085,0.4823,-30.0609
16:33:37:594,-2.166,2.5158,12.7712,39.6213,0.7751,0.4482,0.6739,-29.8955
16:33:37:615,-2.227,2.2689,10.8188,39.3103,0.8177,0.1097,0.6601,-29.7544
16:33:37:634,-2.2316,1.7128,10.2698,39.377,0.3418,-0.6537,0.527,-29.6508
16:33:37:654,-2.0409,0.988,11.1543,39.1095,-0.0767,-1.1275,0.4056,-29.6508
16:33:37:679,-1.7236,0.0508,11.6161,38.7906,-0.1384,-0.9507,0.3726,-29.6508
16:33:37:695,-1.5686,-0.2146,10.8115,38.8572,-0.016,-0.3141,0.445,-29.6508
16:33:37:714,-1.1136,-0.1079,9.305,38.5556,-0.0319,0.2055,0.5717,-29.6508
16:33:37:734,-0.5292,0.3076,8.2323,38.5384,-0.3215,0.3237,0.576,-29.6508
16:33:37:754,-0.4521,0.8537,7.6706,38.5545,-0.4397,0.4621,0.4908,-29.6508
16:33:37:775,-0.5227,1.056,6.8099,38.6467,-0.2608,0.5888,0.4408,-29.6508
16:33:37:794,-0.5991,0.9453,5.7256,38.8716,-0.0596,0.5589,0.4738,-29.6508
16:33:37:814,-0.6214,1.216,5.0296,38.9293,0.0309,0.33,0.5206,-29.6508
16:33:37:833,-0.7837,1.7632,5.0557,38.938,-0.0713,-0.0703,0.5621,-29.6508
16:33:37:872,-0.5433,1.9823,6.1332,39.2028,-0.2119,-0.4163,0.5536,-29.7418
16:33:37:873,-0.0604,2.0454,7.2886,39.3075,-0.2406,-0.6228,0.4078,-29.8536
16:33:37:893,0.2765,2.2222,8.3815,39.4355,-0.2523,-0.5611,0.1373,-29.9775
16:33:37:914,0.3087,1.8917,9.4881,39.4802,-0.2023,-0.2726,-0.1373,-30.1018
16:33:37:933,0.075,1.6221,10.334,39.1801,-0.0405,0.0628,-0.2811,-30.2145
16:33:37:953,-0.3582,1.5505,10.5387,38.9938,0.198,0.4929,-0.2938,-30.3086
16:33:37:973,-0.4666,1.8564,10.4264,38.2894,0.231,0.576,-0.2811,-30.3086
16:33:37:993,-0.2027,1.6453,10.7279,37.7345,0.1171,0.3822,-0.3205,-30.3086
16:33:38:015,-0.3046,1.8174,11.1513,37.3423,-0.0064,0.2257,-0.2119,-30.3086
16:33:38:033,-0.0148,2.0652,11.5171,37.3181,-0.082,0.3865,0.0277,-30.3086
16:33:38:053,0.4903,2.2848,11.7725,37.002,-0.1416,0.8123,0.1554,-30.3086
16:33:38:078,1.3123,1.78,12.3835,36.6906,-0.4269,0.9113,0.0202,-30.3086
16:33:38:094,1.3134,0.5964,13.9549,36.328,-0.6633,0.1874,-0.4493,-30.3086
16:33:38:114,0.3904,-0.1804,14.341,36.1656,-0.1299,-0.1192,-0.5824,-30.3086
16:33:38:133,-0.3996,-0.6786,12.7422,36.1033,0.4227,-0.1895,-0.444,-30.3086
16:33:38:153,-0.6579,-0.3747,11.0414,36.7157,0.5153,-0.2513,-0.2076,-30.3086
16:33:38:177,-0.1654,0.4384,9.8478,37.157,0.3237,-0.5376,0.0458,-30.3086
16:33:38:193,0.6588,1.2484,9.1632,37.8832,-0.0213,-0.6622,-0.0213,-30.3086
16:33:38:214,1.0339,1.6058,8.4895,38.3502,-0.2129,-0.2342,-0.3268,-30.3086
16:33:38:233,0.592,1.8957,7.2993,38.6087,-0.2619,0.3556,-0.6026,-30.3086
16:33:38:253,-0.3076,1.9149,6.1581,38.53,-0.1906,0.6154,-0.7442,-30.3086
16:33:38:273,-0.8221,1.8302,5.3645,38.7217,-0.0596,0.23,-0.675,-30.3086
16:33:38:293,-1.0485,1.879,4.9328,38.4877,0.049,-0.379,-0.5696,-30.3086
16:33:38:314,-0.9448,1.812,5.0125,38.5022,0.066,-0.7367,-0.5451,-30.3086
16:33:38:334,-0.5451,1.6552,5.3578,38.3582,0.0852,-0.8283,-0.6207,-30.2019
16:33:38:354,-0.6568,2.0147,6.2375,38.3665,0.0106,-0.955,-0.7293,-30.0786
16:33:38:376,-0.8606,2.306,7.7134,38.0595,-0.0905,-1.087,-0.6335,-29.9362
16:33:38:393,-0.2088,2.3894,9.4673,37.6694,0.0256,-0.9603,-0.5866,-29.7746
16:33:38:415,0.172,2.7406,10.4636,37.2414,0.1767,-1.037,-0.5568,-29.5992
16:33:38:433,0.4439,2.4729,10.4637,37.1746,0.1576,-0.5462,-0.4812,-29.4045
16:33:38:453,0.2808,2.3878,10.4698,37.2543,-0.1203,0.2513,-0.2917,-29.1912
16:33:38:473,-0.2834,2.8368,10.991,37.4719,-0.3311,0.5334,-0.0543,-28.9653
16:33:38:495,-0.6645,3.1189,12.0838,37.6448,-0.4834,0,0.0575,-28.7433
16:33:38:514,-0.4129,2.7142,13.3365,37.8373,-0.4312,-0.5685,0.1448,-28.5379
16:33:38:533,-0.0947,2.0825,13.6082,37.7105,-0.0724,-0.5004,0.2832,-28.3443
16:33:38:555,-0.2518,2.0117,13.1839,37.5596,0.2619,-0.1235,0.5909,-28.1599
16:33:38:578,0.177,1.5399,12.4465,37.546,0.3013,-0.0703,0.6846,-27.9963
16:33:38:594,0.1719,1.0118,12.2924,37.701,0.0862,-0.4748,0.3599,-27.865
16:33:38:614,-0.0919,0.1371,12.4558,37.6079,-0.0852,-0.8773,0.1182,-27.7603
16:33:38:634,-0.2481,-0.5709,12.2337,37.7823,-0.0224,-0.9816,0.049,-27.6666
16:33:38:655,-0.2126,-0.6649,11.4229,37.7777,0.0916,-0.8113,0.1469,-27.6666
16:33:38:677,0.1275,-0.337,10.3308,37.8271,0.082,-0.5621,0.2779,-27.6666
16:33:38:694,0.5098,0.0955,9.1718,37.6574,-0.1065,-0.363,0.2704,-27.6666
16:33:38:714,0.6895,0.3224,8.111,37.7961,-0.3311,0.0224,0.1597,-27.6666
16:33:38:734,0.484,0.1744,7.1795,37.7443,-0.3865,0.5472,0.0309,-27.6666
16:33:38:754,-0.0189,0.0618,6.5408,37.9319,-0.3066,0.8666,-0.0106,-27.6666
16:33:38:774,-0.5,0.0957,5.9792,38.0037,-0.131,1.0295,0.1011,-27.6666
16:33:38:794,-0.6892,0.13,5.3969,38.2287,0.0617,1.0987,0.3066,-27.6666
16:33:38:815,-0.7109,0.345,5.0559,38.3164,0.2023,0.9348,0.5504,-27.6666
16:33:38:834,-0.5854,0.847,5.0035,38.5919,0.1586,0.5675,0.7495,-27.6666
16:33:38:855,-0.2724,1.3554,6.1162,38.3344,-0.0756,0.0298,0.7857,-27.6666
16:33:38:873,0.503,1.1046,7.9494,38.6303,-0.2694,0.0064,0.6952,-27.6666
16:33:38:893,0.7396,0.8371,9.6921,38.4462,-0.263,-0.0117,0.5238,-27.6666
16:33:38:914,0.433,1.3658,10.3506,38.3739,-0.1065,0.2172,0.3013,-27.6666
16:33:38:933,0.2658,1.3726,10.488,38.3453,-0.0511,0.5408,-0.0202,-27.6666
16:33:38:953,0.1513,1.2059,10.7001,38.1951,-0.3109,0.5834,-0.2097,-27.6666
16:33:38:975,-0.3091,1.4649,11.4343,37.7791,-0.6963,0.5036,-0.2214,-27.6666
16:33:38:993,-0.6254,1.8839,12.5804,37.5972,-0.8581,0.5494,-0.1341,-27.6666
16:33:39:014,-0.7487,1.7994,13.2782,37.2828,-0.6686,0.6942,-0.0213,-27.6666
16:33:39:034,-0.525,1.2515,12.9511,36.8469,-0.4631,0.7889,0.0617,-27.6666
16:33:39:054,0.0871,0.4073,13.6689,36.5471,-0.6729,-0.0341,0.0149,-27.6666
16:33:39:074,0.5399,-0.5223,15.0114,36.288,-0.56,-0.7176,-0.0671,-27.6666
16:33:39:093,0.909,-1.9369,14.8664,36.0976,0.0713,-0.7133,-0.1278,-27.6666
16:33:39:114,0.8302,-2.4556,13.5797,36.5866,0.6782,-0.4514,-0.0735,-27.6666
16:33:39:135,0.5292,-1.7599,12.1823,37.3734,0.9252,-0.4141,0.1054,-27.6666
16:33:39:153,0.5239,-0.7184,10.6311,38.3606,0.7932,-0.4653,0.2992,-27.6666
16:33:39:179,0.7978,-0.1222,9.2579,39.0103,0.5557,-0.1682,0.3258,-27.6666
16:33:39:193,0.761,0.3798,8.1142,39.6324,0.3875,0.3503,0.2364,-27.6666
16:33:39:215,0.4451,0.8283,7.0321,39.7674,0.3875,0.8251,0.164,-27.6666
16:33:39:233,0.3378,1.2025,5.9426,39.2572,0.4621,0.9773,0.1299,-27.6666
16:33:39:254,0.2099,1.3916,4.9989,38.9679,0.4844,0.8123,0.0607,-27.6666
16:33:39:274,-0.0605,1.6275,4.4307,38.7371,0.4525,0.5132,-0.0415,-27.6666
16:33:39:294,-0.1945,1.6431,4.1547,38.2349,0.3716,0.28,-0.0969,-27.6666
16:33:39:314,-0.1151,1.2589,4.2857,37.7639,0.1384,0.2119,-0.05,-27.6666
16:33:39:334,0.1592,0.6354,5.2977,37.4677,-0.2853,0.4088,0.1341,-27.6666
16:33:39:353,0.1069,0.9825,7.5214,37.0222,-0.824,0.2832,0.3173,-27.6666
16:33:39:374,-0.0754,1.9363,10.1744,36.4613,-0.9667,-0.2875,0.3098,-27.7608
16:33:39:394,0.134,2.0512,11.4649,36.8121,-0.4429,-0.1597,0.083,-27.8651
16:33:39:414,0.137,1.9185,11.6511,36.4585,0.1554,0.4152,-0.1203,-27.9626
16:33:39:433,-0.6411,2.5608,11.2558,36.3993,0.2938,0.8464,-0.1065,-27.9626
16:33:39:455,-1.3416,3.0091,11.0035,36.5122,0.2342,0.6814,0.1022,-27.9626
16:33:39:473,-1.845,3.0536,10.9872,36.277,0.0447,0.2545,0.2747,-27.9626
16:33:39:493,-1.7342,2.9754,11.8146,36.0527,-0.0979,-0.3524,0.3567,-28.0611
16:33:39:515,-1.4543,2.6039,12.4664,35.5753,0.0607,-0.5302,0.4823,-28.1745
16:33:39:535,-1.359,2.1979,12.3912,35.6268,0.2821,-0.5951,0.445,-28.2987
16:33:39:553,-1.3007,1.2243,12.1361,35.7397,0.346,-1.0157,0.2364,-28.4358
16:33:39:574,-1.5265,0.5713,11.9924,35.986,0.3119,-1.4,0.033,-28.5841
16:33:39:594,-1.5766,-0.0433,11.7787,36.4089,0.3279,-1.2936,-0.0096,-28.732
16:33:39:615,-1.5272,-0.4967,11.2713,36.8955,0.2608,-1.0838,-0.0106,-28.8756
16:33:39:634,-1.4912,-0.6874,10.9507,36.9606,0.016,-0.9891,-0.0256,-29.0124
16:33:39:654,-1.3127,-0.8446,10.7399,36.9809,-0.1331,-0.84,0.0756,-29.145
16:33:39:678,-1.0666,-0.8852,10.1737,37.2002,-0.0468,-0.4259,0.2545,-29.275
16:33:39:694,-1.0693,-0.5758,9.2492,36.8516,0.1107,-0.0075,0.4493,-29.399
16:33:39:714,-1.1061,-0.2129,8.3421,36.9304,0.3418,0.3513,0.6452,-29.5286
16:33:39:735,-0.8704,-0.0508,7.1025,37.0967,0.6494,0.5856,0.8443,-29.6717
16:33:39:753,-0.5204,0.2647,5.7681,37.19,0.8155,0.643,0.9539,-29.838
16:33:39:774,-0.3732,0.8146,4.7053,36.9671,0.7133,0.5494,0.9869,-30.0334
16:33:39:793,-0.0545,1.2994,4.3054,36.6799,0.4695,0.2768,0.9656,-30.2647
16:33:39:814,0.416,1.8631,4.6107,36.2653,0.1533,-0.1373,0.8879,-30.5306
16:33:39:833,1.1711,2.148,5.4132,35.8954,-0.2225,-0.3673,0.6878,-30.8271
16:33:39:855,1.9653,1.8812,6.86,35.5327,-0.5462,-0.3034,0.3503,-31.1425
16:33:39:884,2.0829,1.6786,8.3565,35.5113,-0.6739,0.1065,-0.0256,-31.4595
16:33:39:895,1.4462,1.8532,9.3081,35.3132,-0.6143,0.7793,-0.264,-31.7595
16:33:39:913,0.7219,2.1862,10.1557,34.8087,-0.626,1.1243,-0.33,-32.0336
16:33:39:933,0.1323,2.2833,11.0789,34.2943,-0.7335,1.0753,-0.3098,-32.2857
16:33:39:953,-0.0742,2.4618,12.3291,33.852,-0.873,0.9529,-0.1767,-32.5196
16:33:39:973,-0.3285,2.9856,13.6667,33.4348,-0.9869,0.8453,-0.0309,-32.7403
16:33:39:993,-0.2169,2.9163,15.3648,32.9092,-0.8645,0.6388,0.0128,-32.9519
16:33:40:015,0.6573,0.9462,17.8205,32.4905,-0.5781,-0.296,-0.1906,-33.1621
16:33:40:033,0.5075,-0.8252,17.7897,32.5542,0.3907,-1.1711,-0.4088,-33.3669
16:33:40:054,-0.1358,-1.5222,15.0812,32.9944,1.2371,-0.9827,-0.4461,-33.5496
16:33:40:073,-0.7986,-1.3318,12.4075,33.5303,1.5182,-0.5792,-0.2289,-33.7061
16:33:40:093,-1.1153,-0.275,10.6365,34.3467,1.2478,-0.3045,0.083,-33.8478
16:33:40:114,-0.5256,0.5902,9.0921,35.5521,0.7027,-0.263,0.33,-33.9908
16:33:40:133,0.4108,0.8578,8.0393,36.433,0.3205,-0.1725,0.3726,-34.1442
16:33:40:153,0.9577,1.0387,7.3096,36.9014,0.2076,-0.0841,0.1341,-34.3069
16:33:40:178,0.9532,1.3681,6.4769,37.4438,0.2395,-0.0735,-0.1831,-34.4723
16:33:40:193,0.7559,1.4054,5.7033,37.42,0.3449,0.0373,-0.3545,-34.6296
16:33:40:214,0.6421,1.2099,5.0592,36.7052,0.4078,0.3173,-0.4312,-34.7687
16:33:40:234,0.5898,0.9896,4.5902,35.9584,0.3013,0.4876,-0.5462,-34.8871
16:33:40:253,0.2345,1.2345,4.6731,35.4244,0.082,0.3609,-0.6707,-34.9851
16:33:40:274,-0.1478,1.5915,5.0328,34.5078,-0.1054,0.1203,-0.7389,-34.9851
16:33:40:294,-0.2433,1.7497,5.4932,34.0715,-0.2204,0.115,-0.692,-34.9851
16:33:40:314,-0.3043,1.9721,6.1793,33.9407,-0.428,0.2726,-0.5834,-34.9851
16:33:40:335,0.0001,2.1832,7.1786,33.7778,-0.5888,0.3567,-0.3801,-34.9851
16:33:40:353,0.1169,2.4343,8.5088,33.6265,-0.5792,0.2236,-0.2683,-34.9851
16:33:40:374,-0.2942,2.664,9.7886,33.6156,-0.4386,0.082,-0.2342,-34.9851
16:33:40:393,-1.0945,3.2116,10.6797,33.4675,-0.2246,0.214,-0.0735,-34.9851
16:33:40:415,-1.5192,3.4456,11.075,33.1249,-0.0564,0.329,0.263,-34.9851
16:33:40:433,-1.5434,3.586,11.6356,32.7005,-0.2151,0.0383,0.5568,-34.9851
16:33:40:453,-1.3207,3.7771,13.5362,32.0973,-0.4227,-0.4663,0.6973,-34.9851
16:33:40:474,-0.7535,3.5786,15.2673,31.3243,-0.1331,-0.6196,0.7783,-34.9851
16:33:40:495,-0.0517,2.2047,15.6176,30.9191,0.4961,-0.4855,0.6654,-34.9851
16:33:40:514,-0.2429,0.9915,14.6889,30.8061,0.8038,-0.4567,0.2896,-34.9851
16:33:40:533,-1.2299,0.3164,13.7668,30.8262,0.7005,-0.5259,0.0117,-34.9851
16:33:40:554,-1.9125,-0.071,12.9496,31.1119,0.5387,-0.5238,0.0405,-34.9851
16:33:40:575,-2.0303,-0.4012,12.1098,31.6861,0.4205,-0.3694,0.2119,-34.9851
16:33:40:594,-1.6055,-0.5212,11.0165,32.0818,0.3066,0.0245,0.4056,-35.0777
16:33:40:614,-0.9678,-0.61,10.0103,32.4194,0.1075,0.3418,0.4663,-35.1782
16:33:40:634,-0.785,-0.0981,9.2617,32.6693,-0.0287,0.6643,0.4418,-35.2903
16:33:40:654,-0.801,0.2496,8.0377,33.1871,0.0969,1.0327,0.4535,-35.4107
16:33:40:681,-0.6965,0.1081,6.2391,33.3863,0.3066,1.2648,0.4951,-35.5329
16:33:40:694,-0.5323,0.4389,4.8319,33.2515,0.4163,1.0615,0.5675,-35.6727
16:33:40:714,-0.503,1.1921,4.1288,32.9466,0.4035,0.7154,0.5951,-35.8313
16:33:40:733,-0.2512,1.4375,3.8356,32.6397,0.2662,0.4514,0.5419,-36.0109
16:33:40:753,-0.1975,1.6785,3.7638,32.5489,0.0745,0.378,0.4748,-36.2073
16:33:40:773,-0.2516,1.8573,4.4879,32.6731,-0.1852,0.2513,0.3684,-36.4162
16:33:40:794,-0.4632,2.0258,6.004,32.6095,-0.4642,-0.1448,0.2651,-36.6385
16:33:40:815,-0.4417,2.2111,8.0194,32.3454,-0.5451,-0.6399,0.1341,-36.8722
16:33:40:833,0.1997,1.8457,9.3085,31.8997,-0.5419,-0.7953,-0.1043,-37.1073
16:33:40:853,0.6456,1.3935,10.5168,31.4566,-0.6697,-0.5387,-0.4024,-37.3324
16:33:40:873,0.3936,1.4259,11.4935,31.1846,-0.8379,-0.0894,-0.6207,-37.5352
16:33:40:893,0.0138,1.6569,12.5991,30.9646,-0.9954,0.2726,-0.6686,-37.7071
16:33:40:914,-0.2677,1.882,13.7628,30.766,-0.971,0.4951,-0.6292,-37.848
16:33:40:933,-0.6167,2.1365,14.1481,30.5029,-0.6196,0.8847,-0.5132,-37.9577
16:33:40:953,-0.6827,2.5821,14.3749,30.2156,-0.2662,1.0466,-0.3641,-37.9577
16:33:40:974,-0.2548,2.1363,14.9555,29.8749,-0.1725,0.3492,-0.4546,-37.9577
16:33:40:993,-0.1819,0.8536,14.8573,30.1645,0.2885,-0.1703,-0.527,-37.9577
16:33:41:013,-0.4479,-0.2772,13.0418,30.5897,0.922,-0.0319,-0.4099,-37.9577
16:33:41:033,-0.933,-0.1362,10.6422,31.2491,1.0966,0.2225,-0.2843,-37.9577
16:33:41:053,-1.1434,0.5931,9.4,32.214,0.6154,0.0096,-0.1267,-37.9577
16:33:41:074,-0.6048,0.9724,9.377,33.1322,0.082,-0.4472,-0.0852,-37.9577
16:33:41:093,-0.0634,0.8858,9.4877,33.6649,-0.066,-0.4748,-0.1693,-37.9577
16:33:41:113,-0.0001,0.9092,8.9773,33.9266,0.0798,-0.1927,-0.3588,-37.9577
16:33:41:133,-0.2742,0.8423,7.7899,33.7746,0.3109,0.1278,-0.4855,-37.9577
16:33:41:154,-0.5578,0.9648,6.5559,33.2091,0.4865,0.2204,-0.5164,-37.9577
16:33:41:179,-0.7172,1.2937,5.322,32.6224,0.6399,0.1192,-0.5078,-37.9577
16:33:41:193,-1.0266,0.7187,4.3788,31.9542,0.6494,0.0681,-0.4972,-37.9577
16:33:41:215,-0.7668,1.2421,4.4285,31.3726,0.51,0.1608,-0.3907,-37.8654
16:33:41:235,-1.1654,2.0777,4.6883,30.9112,0.4067,-0.099,-0.3332,-37.7631
16:33:41:254,-1.1745,2.2523,5.0402,30.6289,0.1948,-0.5621,-0.2832,-37.6571
16:33:41:273,-0.8418,2.2277,5.8216,30.3379,-0.1437,-0.8975,-0.1746,-37.5498
16:33:41:294,-0.5977,2.6272,7.0067,30.2462,-0.4322,-1.0189,-0.1203,-37.4465
16:33:41:315,-0.1426,2.8527,8.1044,30.1606,-0.6516,-0.7623,-0.2023,-37.3412
16:33:41:334,-0.075,2.673,9.2214,30.143,-0.8102,-0.2012,-0.3769,-37.2266
16:33:41:354,-1.0315,2.8635,10.7424,29.9873,-0.8187,0.0362,-0.4514,-37.0985
16:33:41:375,-1.8368,3.0863,11.4346,29.7532,-0.7474,0.0468,-0.3258,-36.9572
16:33:41:394,-1.9796,2.1574,12.5304,29.6018,-0.9294,0.0937,-0.1033,-36.8087
16:33:41:414,-2.3617,1.2701,14.8884,29.4338,-0.7921,-0.0777,0.3173,-36.6611
16:33:41:433,-1.942,1.2356,14.907,29.1736,-0.1842,0.3567,0.7889,-36.5182
16:33:41:454,-1.5164,1.5872,14.8391,29.1041,0.2172,0.0767,0.7697,-36.3978
16:33:41:473,-0.9225,0.9393,14.6744,29.091,0.3087,-0.3758,0.5036,-36.3978
16:33:41:493,-0.9045,0.0097,13.8215,29.0419,0.5302,-0.5195,0.2289,-36.3978
16:33:41:514,-1.3503,0.2376,12.2466,28.7352,0.6856,-0.2225,0.1278,-36.3978
16:33:41:533,-1.5651,0.2711,10.3381,28.6859,0.6154,0.0948,0.0937,-36.3978
16:33:41:554,-1.3588,0.2777,9.2219,28.4619,0.1916,-0.0564,0.0287,-36.3978
16:33:41:573,-1.0315,0.5107,9.3228,28.6502,-0.3141,-0.4631,-0.1267,-36.3978
16:33:41:594,-0.7001,0.5165,9.5097,28.8242,-0.4237,-0.4291,-0.3183,-36.3978
16:33:41:616,-0.6214,0.2094,8.8961,29.3926,-0.1469,-0.0181,-0.4386,-36.3978
16:33:41:634,-1.0083,-0.0833,7.6294,29.9088,0.1895,0.3652,-0.3694,-36.3978
16:33:41:654,-1.3363,-0.0971,6.4099,30.3509,0.4472,0.4482,-0.0617,-36.3059
16:33:41:680,-1.3508,0.2528,5.5502,30.263,0.543,0.2576,0.2726,-36.2095
16:33:41:694,-1.2577,0.5392,5.1168,30.0504,0.5281,0.1586,0.4983,-36.2095
16:33:41:713,-0.7993,0.9445,5.1153,30.0436,0.4823,0.1884,0.708,-36.2095
16:33:41:734,-0.3776,1.003,5.3123,29.7272,0.3439,-0.0287,0.8134,-36.2095
16:33:41:753,0.2374,1.2364,6.1745,29.618,-0.0468,-0.6377,0.6537,-36.2095
16:33:41:774,0.6889,1.7749,7.4234,29.7619,-0.4035,-1.038,0.329,-36.2095
16:33:41:793,1.0958,1.6819,8.7428,29.3366,-0.5142,-0.8602,-0.0309,-36.2095
16:33:41:813,1.1414,1.3905,9.4687,29.0451,-0.3364,-0.2747,-0.378,-36.2095
16:33:41:833,0.6337,1.4878,9.8967,28.9554,-0.1533,0.0394,-0.6718,-36.2095
16:33:41:853,-0.0766,1.9373,10.2676,28.4811,-0.1852,0.0724,-0.791,-36.2095
16:33:41:899,-0.5171,2.6175,10.5819,27.94,-0.3567,0.1682,-0.7165,-36.2095
16:33:41:901,-0.4019,2.5705,10.8618,27.462,-0.4876,0.2938,-0.6441,-36.2095
16:33:41:913,-0.5146,2.888,11.2447,26.8619,-0.5376,0.3929,-0.6878,-36.2095
16:33:41:933,-1.4419,2.2594,12.7635,26.0622,-0.6143,1.3734,-0.6814,-36.0985
16:33:41:953,-0.7419,1.793,13.8497,25.5864,-0.8485,1.0114,-0.6111,-35.96
16:33:41:973,-0.8052,0.6721,16.1601,25.0755,-0.9773,-0.297,-0.7538,-35.8154
16:33:41:993,-0.2535,-0.7361,16.6322,25.1534,-0.296,-0.7751,-0.8251,-35.6595
16:33:42:014,0.076,-1.7055,14.6642,25.428,0.4961,-0.5355,-0.8464,-35.4781
16:33:42:034,0.2687,-1.6375,12.356,26.3389,1.0327,-0.3354,-0.7431,-35.2648
16:33:42:053,0.3273,-0.6413,10.8142,27.3622,1.3425,-0.1789,-0.6931,-35.0287
16:33:42:074,0.3655,0.3498,9.6126,28.7632,1.5661,-0.2055,-0.576,-34.7746
16:33:42:094,0.2914,1.2311,8.2218,29.8968,1.565,-0.1703,-0.4993,-34.5086
16:33:42:114,0.0815,1.6304,6.7214,30.71,1.3425,0.0564,-0.4557,-34.2331
16:33:42:133,-0.1844,1.5967,5.358,31.0246,0.89,0.3705,-0.3173,-33.9488
16:33:42:153,-0.5802,1.6732,4.6084,31.2221,0.3087,0.5515,-0.115,-33.6603
16:33:42:179,-0.8897,2.0047,4.6779,31.1667,-0.1267,0.4631,-0.0075,-33.3734
16:33:42:194,-0.826,2.1024,5.233,31.0527,-0.3982,0.0809,0.0351,-33.1015
16:33:42:214,-0.5161,1.899,6.0212,31.1189,-0.4589,-0.3652,0.0138,-32.8459
16:33:42:233,-0.0225,1.7817,6.8298,30.685,-0.3332,-0.6973,0.0043,-32.6039
16:33:42:255,0.4669,1.692,7.0958,30.7409,-0.1661,-0.5909,-0.0075,-32.3722
16:33:42:276,0.7213,1.3928,7.4447,30.3462,-0.1916,-0.132,-0.0767,-32.1407
16:33:42:294,0.3602,1.6564,8.0371,29.861,-0.2619,0.3173,-0.1288,-31.9072
16:33:42:315,-0.2399,2.355,8.3588,29.6072,-0.3577,0.4333,-0.0468,-31.6715
16:33:42:334,-0.5401,3.0548,9.1047,29.2821,-0.4269,0.0767,0.1629,-31.442
16:33:42:353,-0.0987,3.2761,10.1645,29.1072,-0.3588,-0.3545,0.3162,-31.2304
16:33:42:373,0.5098,3.3279,10.7344,29.3458,-0.3194,-0.5834,0.3077,-31.0391
16:33:42:393,1.1292,2.8091,11.7425,29.3998,-0.4493,-0.6335,0.1608,-30.8655
16:33:42:415,1.2274,2.3507,14.0341,29.3983,-0.5313,-0.6739,-0.0106,-30.7069
16:33:42:436,0.4457,1.8824,15.2886,29.4715,-0.0713,0.1661,0.0564,-30.5461
16:33:42:453,-0.6222,1.7293,14.1626,29.5553,0.6122,1.482,0.5515,-30.3735
16:33:42:473,-0.6911,1.5532,13.4347,29.7579,0.8954,1.3638,0.642,-30.2085
16:33:42:494,-0.2327,1.0997,13.1825,30.2189,0.6079,-0.329,0.1331,-30.0875
16:33:42:513,0.1415,-0.1701,12.887,30.6957,0.577,-1.1168,-0.1821,-29.9971
16:33:42:533,0.0147,-0.8043,11.6763,30.8158,0.7378,-0.7932,-0.2864,-29.906
16:33:42:553,-0.3275,-0.529,9.9784,30.8599,0.625,-0.3183,-0.1789,-29.8026
16:33:42:574,-0.1898,0.1214,9.0631,30.6781,0.1246,-0.164,-0.148,-29.6932
16:33:42:593,0.0312,0.566,8.9835,30.3617,-0.3599,-0.1821,-0.2789,-29.5846
16:33:42:613,-0.0751,0.6834,8.8985,30.3987,-0.3939,-0.0852,-0.4291,-29.4702
16:33:42:633,-0.1867,0.6945,8.0453,30.103,-0.1618,0.148,-0.4131,-29.3409
16:33:42:654,-0.0504,0.6045,6.9572,30.1779,0.0511,0.4195,-0.3098,-29.1956
16:33:42:677,0.1187,0.8494,6.0805,30.0475,0.1459,0.6548,-0.197,-29.0356
16:33:42:693,0.3176,1.1137,5.4519,30.3002,0.2076,0.7836,-0.1086,-28.8729
16:33:42:713,0.3706,1.5236,5.0586,30.5924,0.2246,0.7133,-0.115,-28.7103
16:33:42:733,0.5469,1.8869,5.1516,30.5763,0.1767,0.4195,-0.23,-28.5508
16:33:42:753,0.7028,2.2127,5.5126,30.9105,-0.0894,-0.1778,-0.5078,-28.395
16:33:42:773,0.7373,2.4211,6.8316,31.2146,-0.5345,-0.7069,-0.8443,-28.2374
16:33:42:793,0.5947,2.0621,8.7834,31.4128,-0.7229,-0.8517,-1.0945,-28.0628
16:33:42:814,0.3178,1.7438,10.19,31.8049,-0.5919,-0.461,-1.235,-27.8555
16:33:42:834,0.0642,1.7341,10.5877,32.1676,-0.3556,0.1554,-1.2946,-27.6015
16:33:42:854,-0.1398,1.8355,10.9544,32.0744,-0.247,0.4823,-1.3564,-27.3019
16:33:42:874,-0.4015,1.9927,11.4211,31.912,-0.1863,0.4141,-1.3819,-26.9626
16:33:42:894,-0.7024,2.3319,11.7673,31.6081,-0.0575,0.1533,-1.3319,-26.587
16:33:42:914,-0.7304,2.5914,12.1171,31.4937,0.0969,-0.0383,-1.2201,-26.1789
16:33:42:934,-0.3381,2.2688,12.2195,31.1439,0.3077,0.0554,-1.1008,-25.7396
16:33:42:954,-0.0427,1.9403,11.7909,30.9645,0.5281,0.4195,-0.9997,-25.2701
16:33:42:975,0.2079,2.1886,11.1046,30.4957,0.4333,0.6335,-0.9326,-24.7694
16:33:42:993,1.3054,1.2315,12.3895,30.1149,-0.1459,-0.4908,-1.2467,-24.258
16:33:43:014,1.4055,0.0102,13.8188,29.8499,-0.1341,-1.235,-1.63,-23.7384
16:33:43:035,1.2426,-1.2613,13.2272,29.971,0.3769,-0.7889,-1.8216,-23.1795
16:33:43:053,0.3792,-1.4553,11.6632,30.3334,0.6984,-0.23,-1.7002,-22.5646
16:33:43:074,-0.2408,-0.4657,10.1739,30.5737,0.6111,-0.1778,-1.3074,-21.9014
16:33:43:093,-0.0295,0.607,8.9907,31.1131,0.2672,-0.2981,-0.9209,-21.2098
16:33:43:114,0.363,1.3648,8.2464,31.2968,-0.0319,-0.1522,-0.8677,-20.5034
16:33:43:135,0.1776,1.9974,7.8383,31.4949,-0.0894,0.0149,-1.004,-19.7837
16:33:43:154,-0.3664,2.3203,7.241,31.5913,-0.066,-0.0213,-1.0806,-19.0509
16:33:43:179,-0.9063,2.3609,6.9679,31.786,-0.0245,-0.1767,-1.0625,-18.3026
16:33:43:194,-0.8165,2.1779,7.0606,32.0176,0.1192,-0.2779,-0.9837,-17.5425
16:33:43:216,-0.125,1.5258,7.2683,32.2445,0.2704,-0.3588,-0.9624,-16.7706
16:33:43:233,0.5617,1.6017,7.5474,32.8615,0.3726,-0.5643,-0.9497,-15.9895
16:33:43:253,1.1889,1.8527,7.6938,33.1704,0.4503,-0.5738,-1.0178,-15.1993
16:33:43:274,1.6401,1.4912,7.6974,33.552,0.395,-0.3599,-1.2062,-14.3947
16:33:43:295,1.2512,1.3754,7.5783,33.6732,0.165,0.0011,-1.3116,-13.5663
16:33:43:315,0.4067,1.7329,7.723,34.0619,-0.0894,0.2225,-1.2371,-12.7095
16:33:43:335,-0.1152,2.0359,8.4628,34.4376,-0.2949,-0.0021,-1.1179,-11.8343
16:33:43:354,-0.6964,2.1968,9.5392,34.3795,-0.3449,-0.378,-1.0221,-10.9507
16:33:43:375,-1.3213,2.4369,10.2925,34.5959,-0.2789,-0.5206,-0.758,-10.062
16:33:43:393,-0.9114,2.6855,10.9278,34.3869,-0.3567,-0.5951,-0.3875,-9.1724
16:33:43:414,-0.1799,2.9464,12.1211,34.2307,-0.4567,-0.7985,-0.2662,-8.2958
16:33:43:433,0.2937,3.3593,13.3875,33.9629,-0.3875,-0.8602,-0.3875,-7.4389
16:33:43:454,0.3014,3.1284,13.4077,34.0285,-0.0383,-0.3875,-0.5547,-6.5937
16:33:43:474,-0.0862,2.3309,12.3656,34.2791,0.3311,0.4014,-0.5717,-5.7475
16:33:43:494,-0.7738,1.8896,12.0006,34.1159,0.461,0.6228,-0.5132,-4.8997
16:33:43:514,-1.3435,1.5899,12.0104,34.2824,0.4003,0.0468,-0.6516,-4.0601
16:33:43:536,-1.4638,0.8321,12.3049,34.4069,0.4067,-0.8187,-0.7506,-3.2346
16:33:43:554,-0.9996,-0.0191,11.9786,34.2615,0.4983,-0.9667,-0.7655,-2.414
16:33:43:574,-0.6749,-0.4434,11.8259,34.4555,0.5174,-1.021,-0.8443,-1.5906
16:33:43:594,-0.6933,-0.4026,11.3013,34.2405,0.4461,-0.9305,-0.9071,-0.7629
16:33:43:615,-0.6548,-0.131,10.4442,34.0641,0.3652,-0.3758,-0.8443,0.0756
16:33:43:635,-0.7523,0.2904,8.8671,34.2491,0.3215,0.3449,-0.7304,0.9308
16:33:43:654,-0.772,0.5048,7.3862,34.4105,0.2875,0.8027,-0.6494,1.7959
16:33:43:676,-0.8792,0.8343,6.2583,34.4453,0.2023,0.8592,-0.5845,2.6663
16:33:43:694,-1.0834,1.0326,5.6201,34.6399,0.1416,0.7825,-0.4567,3.5284
16:33:43:715,-1.2295,0.9782,5.3125,34.6647,0.1608,0.7772,-0.2608,4.3816
16:33:43:734,-1.1156,1.0251,4.8457,34.8671,0.2289,0.5664,-0.1501,5.2188
16:33:43:753,-1.1891,1.5309,4.7889,34.6702,0.2289,-0.0979,-0.1906,6.0317
16:33:43:774,-1.3696,2.1973,5.3051,34.8565,0.0937,-1.0167,-0.198,6.8143
16:33:43:793,-0.8437,1.842,6.4338,35.2749,-0.0979,-1.499,-0.197,7.5734
16:33:43:813,-0.0778,1.5934,8.2101,35.4517,-0.3173,-1.6332,-0.2598,8.314
16:33:43:833,0.5317,1.8711,10.0014,35.9589,-0.4472,-1.4458,-0.3748,9.0428
16:33:43:853,0.7518,2.0771,11.4289,36.3269,-0.3556,-1.0135,-0.5398,9.7667
16:33:43:874,0.6478,2.1234,11.9009,35.8483,-0.115,-0.3503,-0.6558,10.4945
16:33:43:904,0.6516,2.1802,11.6655,35.7913,-0.017,0.1086,-0.7027,11.2304
16:33:43:913,0.4486,2.6324,11.4778,35.4147,-0.1799,0.1746,-0.7921,11.9724
16:33:43:933,0.0061,2.6047,11.8274,35.7013,-0.297,0.3726,-0.906,12.7223
16:33:43:953,-0.5432,2.1328,12.0823,36.0272,-0.2395,0.7495,-0.856,13.4854
16:33:43:973,-0.9553,2.0074,11.9092,36.5266,-0.2055,0.9688,-0.7123,14.261
16:33:43:994,-0.5655,1.6616,12.2266,36.8402,-0.2896,0.3694,-0.6462,15.0375
16:33:44:015,0.0242,1.2601,12.3895,37.0031,-0.2278,-0.0937,-0.5217,15.8058
16:33:44:033,0.7151,0.4278,11.7961,36.8172,-0.0373,0.0426,-0.4567,16.5673
16:33:44:053,0.9079,0.0086,10.9465,36.8223,0.0256,0.1246,-0.477,17.3234
16:33:44:074,0.8377,0.1182,10.3355,36.4829,-0.1416,-0.1075,-0.4397,18.0731
16:33:44:095,0.7594,0.4327,9.9307,36.6193,-0.2811,-0.0064,-0.362,18.8151
16:33:44:115,0.8268,0.5823,8.9776,36.5432,-0.2023,0.148,-0.3141,19.5512
16:33:44:133,0.3711,0.7899,7.9883,36.6715,-0.0862,0.2843,-0.3503,20.2769
16:33:44:154,0.0301,1.036,7.0477,36.8785,0.0096,0.2747,-0.3811,20.9925
16:33:44:179,-0.1053,1.1817,6.4305,37.3683,0.0543,0.0266,-0.4184,21.6993
16:33:44:194,-0.1599,1.2629,6.2527,37.6576,0.1033,-0.2896,-0.4557,22.3944
16:33:44:215,0.0593,1.1757,6.1923,38.0044,0.1821,-0.4535,-0.4631,23.0807
16:33:44:234,0.3448,1.0925,6.1703,37.9711,0.2119,-0.5164,-0.4674,23.7623
16:33:44:255,0.4125,1.4048,6.4798,38.2995,0.1629,-0.5206,-0.445,24.4393
16:33:44:274,0.4943,1.5125,7.0063,37.9396,0.0341,-0.6399,-0.4748,25.1136
16:33:44:293,0.4027,1.5377,7.8335,37.6071,-0.1906,-0.8336,-0.5579,25.7838
16:33:44:314,0.2851,1.5215,8.7251,37.3205,-0.3481,-0.8443,-0.576,26.4532
16:33:44:333,0.0983,1.5679,9.5983,37.2422,-0.4525,-0.6846,-0.5057,27.1245
16:33:44:353,-0.0873,1.9016,10.3067,37.3802,-0.5696,-0.3439,-0.4248,27.7976
16:33:44:373,-0.3893,2.1782,10.9679,37.6522,-0.6643,0.0298,-0.3098,28.4709
16:33:44:394,-0.5552,2.0515,11.7954,37.998,-0.6718,0.1672,-0.165,29.139
16:33:44:415,-0.4565,1.7807,12.9235,38.0771,-0.6558,-0.132,-0.0245,29.794
16:33:44:434,-0.2676,1.6716,14.2099,38.2551,-0.4823,-0.5334,0.099,30.4257
16:33:44:454,-0.2084,1.6798,14.7942,38.1113,-0.099,-0.5866,0.247,31.0308
16:33:44:475,0.0865,1.2473,14.6052,38.2123,0.3886,-0.3237,0.4557,31.6087
16:33:44:494,0.4426,0.2069,13.6,38.2202,0.8815,-0.1672,0.4472,32.1526
16:33:44:514,0.2332,-0.5226,12.4756,38.0981,1.1094,-0.1725,0.2172,32.661
16:33:44:533,-0.2122,-0.2529,11.5932,37.7585,1.0189,-0.3705,0.05,33.1417
16:33:44:553,-0.2301,-0.1169,11.4485,37.9615,0.8198,-0.6271,0.0075,33.6025
16:33:44:575,0.153,-0.1482,11.092,37.9063,0.7208,-0.5334,-0.0948,34.0447
16:33:44:593,0.5627,-0.2287,10.2142,38.0424,0.6196,-0.2172,-0.2566,34.4799
16:33:44:613,0.7103,0.0672,9.123,37.9654,0.395,0.1501,-0.4237,34.9137
16:33:44:633,0.6044,0.4643,8.0187,38.2136,0.0916,0.609,-0.4897,35.3544
16:33:44:655,0.2032,0.5926,7.1586,38.3074,-0.1629,1.0508,-0.4993,35.8065
16:33:44:677,-0.4029,0.5879,6.6497,38.4128,-0.231,1.2158,-0.4493,36.2746
16:33:44:694,-0.9589,0.5991,6.3943,38.5234,-0.0788,1.0093,-0.2619,36.7382
16:33:44:714,-1.1886,0.733,5.8907,38.87,0.2491,0.7846,0.0713,37.1935
16:33:44:733,-1.3251,1.1241,5.5448,38.7699,0.5856,0.6484,0.3918,37.6301
16:33:44:754,-1.4182,1.7869,5.8672,38.9373,0.6462,0.1608,0.527,38.0378
16:33:44:777,-1.0822,2.1369,6.5069,39.0232,0.3971,-0.7548,0.4972,38.4077
16:33:44:794,-0.1847,1.8353,7.8269,39.0842,0.1097,-1.3319,0.4088,38.7415
16:33:44:814,0.4249,1.5336,9.4067,39.2425,0.1022,-1.0423,0.2491,39.046
16:33:44:834,0.5534,1.4845,9.5622,39.377,0.33,-0.0607,0.0681,39.3414
16:33:44:853,0.3387,1.6183,8.8362,39.3831,0.4354,0.9901,-0.0628,39.6363
16:33:44:873,-0.2315,2.2075,8.8101,39.7805,0.1278,1.1722,-0.1491,39.9328
16:33:44:894,-0.8505,2.8734,9.4415,40.0385,-0.3428,0.9273,-0.0979,40.2269
16:33:44:914,-0.9505,3.1433,10.5434,40.0848,-0.6548,0.7804,-0.0309,40.5165
16:33:44:934,-0.7952,3.2488,11.9309,40.4433,-0.7751,0.6015,-0.1427,40.798
16:33:44:953,-0.7184,3.1687,12.8633,40.4578,-0.6739,0.3929,-0.3471,41.0713
16:33:44:975,-0.9305,3.0636,13.0214,40.4385,-0.4961,0.3332,-0.5526,41.3453
16:33:44:993,-1.0894,2.6925,12.9718,40.6345,-0.4834,0.2204,-0.6973,41.6244
16:33:45:014,-1.0725,1.8723,13.24,40.6195,-0.4983,-0.1224,-0.7154,41.9152
16:33:45:033,-1.0509,1.0337,12.9353,40.6025,-0.0586,-0.2129,-0.5717,42.2167
16:33:45:055,-0.6967,0.1892,11.5905,40.3699,0.4035,-0.23,-0.4056,42.5251
16:33:45:074,-0.5961,-0.187,10.4412,39.9983,0.5132,-0.4237,-0.3247,42.8378
16:33:45:093,-0.5636,0.2697,10.0944,39.5527,0.3705,-0.8113,-0.263,43.1514
16:33:45:116,-0.0185,0.5837,9.5961,39.329,0.2087,-0.9124,-0.2119,43.4625
16:33:45:135,0.5535,0.5931,8.6855,39.5141,0.0894,-0.6111,-0.2992,43.7755
16:33:45:153,0.4865,0.6925,7.465,39.935,0.0181,-0.0532,-0.4557,44.0968
16:33:45:176,-0.0629,1.012,6.4049,40.3016,-0.0373,0.3737,-0.51,44.4316
16:33:45:193,-0.5674,1.2351,5.8433,40.6296,-0.0468,0.4503,-0.4621,44.776
16:33:45:216,-0.9488,1.4583,5.566,40.9557,-0.0628,0.2364,-0.3545,45.1267
16:33:45:233,-0.9031,1.4371,5.2671,40.9561,-0.0724,0.0841,-0.1948,45.4773
16:33:45:253,-0.5501,1.3998,5.3046,40.9869,-0.1011,-0.1256,-0.0543,45.8234
16:33:45:273,-0.173,1.5225,6.0809,41.0908,-0.2364,-0.3375,0.0351,46.1601
16:33:45:293,-0.007,1.8926,7.4023,41.2261,-0.4503,-0.5089,-0.0032,46.4848
16:33:45:314,0.0343,2.2097,8.9044,41.6377,-0.5824,-0.5717,-0.1097,46.7996
16:33:45:334,0.0824,2.2286,10.308,41.9448,-0.5195,-0.5217,-0.1991,47.1073
16:33:45:354,-0.0322,2.0578,11.0706,42.0135,-0.3215,-0.1852,-0.2491,47.412
16:33:45:375,-0.6503,2.1175,11.5471,42.4593,-0.1299,0.1469,-0.1618,47.718
16:33:45:394,-1.3077,2.285,11.7944,42.9655,0.0479,0.3556,0.083,48.0219
16:33:45:414,-1.7661,2.4889,12.0644,43.0838,0.1522,0.3577,0.3694,48.315
16:33:45:433,-1.6297,2.5907,12.3705,43.2548,0.1852,0.1533,0.5472,48.5869
16:33:45:454,-1.1731,2.4346,12.7951,43.3805,0.1597,-0.1491,0.5504,48.8298
16:33:45:474,-1.0666,2.0656,13.2217,43.3331,0.313,-0.1459,0.5057,49.0439
16:33:45:494,-1.2666,1.568,12.7551,43.34,0.6643,0.1373,0.5717,49.2334
16:33:45:514,-1.3023,0.8156,11.8445,43.162,0.9113,-0.0479,0.5494,49.3966
16:33:45:533,-1.2903,0.2177,11.047,43.3486,0.9241,-0.6313,0.4088,49.53
16:33:45:554,-1.1897,-0.073,10.316,43.3783,0.7335,-0.89,0.3641,49.6401
16:33:45:573,-0.9795,-0.2389,9.7515,43.0157,0.4844,-0.7623,0.3364,49.7352
16:33:45:593,-0.6948,-0.0574,9.2026,43.3002,0.2129,-0.4706,0.2768,49.7352
16:33:45:615,-0.2166,0.1794,8.7202,43.5578,-0.1097,-0.3418,0.164,49.7352
16:33:45:633,0.1785,0.3926,8.3165,43.5236,-0.4205,-0.3843,-0.0064,49.7352
16:33:45:653,0.2134,0.5752,7.9384,43.6525,-0.6409,-0.2321,-0.1267,49.7352
16:33:45:680,-0.0743,0.4267,7.4928,43.7013,-0.7091,0.2129,-0.1129,49.7352
16:33:45:693,-0.564,0.4482,7.0383,43.8936,-0.6388,0.7357,0.066,49.8344
16:33:45:714,-0.8255,0.5831,6.6646,43.9297,-0.4365,1.0104,0.3609,49.9339
16:33:45:733,-0.7839,0.9358,6.4859,43.9436,-0.1022,0.9539,0.6462,49.9339
16:33:45:753,-0.608,1.2373,6.1025,44.0357,0.1884,0.8113,0.7751,49.9339
16:33:45:776,-0.2692,1.4331,6.1522,43.9684,0.2715,0.3386,0.7037,49.9339
16:33:45:793,0.0075,1.7476,6.9006,43.6786,0.1086,-0.6143,0.5685,49.9339
16:33:45:814,0.5376,1.8333,8.258,43.4752,-0.0926,-1.2999,0.3918,49.9339
16:33:45:833,0.9814,1.7275,9.8275,43.6168,-0.2374,-1.2542,0.1214,49.9339
16:33:45:853,1.0847,1.7247,10.865,43.6373,-0.2332,-0.5653,-0.1522,49.9339
16:33:45:874,0.9722,1.7379,11.1962,43.7104,-0.2853,0.132,-0.3854,49.9339
16:33:45:912,0.7664,1.5202,11.8977,43.9845,-0.5302,0.1054,-0.593,49.9339
16:33:45:914,0.3191,1.5678,13.008,44.3376,-0.5802,0.0437,-0.6718,49.9339
16:33:45:934,-0.1795,1.7435,13.3544,44.5741,-0.214,0.4386,-0.5664,49.9339
16:33:45:954,-0.702,1.9654,12.5451,44.6379,0.2513,0.9773,-0.3737,49.9339
16:33:45:973,-1.1968,2.5131,11.3076,44.4777,0.5387,1.218,-0.2332,49.9339
16:33:45:994,-1.0012,2.5765,10.8466,44.2225,0.2076,0.56,-0.264,49.9339
16:33:46:015,-0.311,1.6703,11.7856,44.0361,-0.4493,-0.6878,-0.5856,49.9339
16:33:46:033,0.2566,0.1592,12.784,44.2137,-0.5036,-0.955,-0.7644,49.9339
16:33:46:053,0.3471,-1.0624,12.4225,44.1462,-0.1735,-0.7261,-0.7846,50.046
16:33:46:073,-0.0179,-1.2084,11.4851,44.2672,0.1256,-0.6782,-0.56,50.1817
16:33:46:094,0.0505,-1.0302,10.5295,44.0116,0.3748,-0.7421,-0.2545,50.3306
16:33:46:114,0.4847,-0.3766,9.7492,43.7247,0.6164,-0.7516,-0.0362,50.4852
16:33:46:133,0.9188,0.256,8.5353,43.465,0.7921,-0.5089,0.0979,50.6358
16:33:46:153,1.0923,0.638,7.0681,43.2905,0.7878,-0.0213,0.1895,50.7807
16:33:46:177,1.0437,0.9812,5.8421,43.3788,0.5259,0.4099,0.2385,50.9177
16:33:46:193,0.9228,1.6668,5.2369,43.1857,0.0522,0.5707,0.1597,51.0493
16:33:46:213,0.6079,2.2471,5.3754,43.2365,-0.3268,0.6452,-0.0138,51.1755
16:33:46:233,0.7365,2.2978,5.6198,43.2888,-0.4631,0.7101,-0.1107,51.3005
16:33:46:254,1.0248,2.0752,5.9535,43.003,-0.4461,0.6814,-0.1799,51.4266
16:33:46:273,1.091,2.0749,6.8648,42.9801,-0.4152,0.2896,-0.3173,51.5531
16:33:46:293,0.83,2.1678,8.1976,43.0253,-0.2949,-0.3205,-0.445,51.6799
16:33:46:313,0.5349,1.8433,9.0485,43.0684,-0.1097,-0.5089,-0.5355,51.8117
16:33:46:333,0.1879,1.6149,9.4674,43.2253,0.0437,-0.1491,-0.5089,51.958
16:33:46:353,-0.0668,1.6784,9.7216,43.3803,0.0011,0.116,-0.378,52.1215
16:33:46:373,-0.4444,2.208,10.4928,43.4527,-0.2353,0.0948,-0.2023,52.297
16:33:46:394,-0.4577,2.2663,11.2489,43.6519,-0.3024,0.1682,-0.0458,52.4771
16:33:46:416,-0.4303,2.0251,11.7595,43.7827,-0.132,0.2566,0.0351,52.6559
16:33:46:433,-0.5789,1.8963,12.3209,43.5785,-0.0117,0.1246,0.1352,52.8262
16:33:46:453,-0.7685,2.033,12.7984,43.521,0.0245,0.1501,0.3364,52.9858
16:33:46:473,-0.9376,2.285,12.9976,43.5713,0.1618,0.4131,0.4802,53.1309
16:33:46:494,-1.0779,2.3558,12.3854,43.4655,0.4653,0.8017,0.6015,53.2573
16:33:46:514,-0.708,1.2891,11.3759,43.2876,0.4951,0.4376,0.4152,53.3588
16:33:46:533,-1.0353,0.5485,11.2288,43.3005,0.2576,-0.577,-0.0351,53.3588
16:33:46:554,-1.458,0.1412,11.4492,43.3893,0.231,-1.0135,-0.1948,53.3588
16:33:46:576,-1.3641,-0.6361,11.3486,43.3755,0.2885,-0.9209,-0.1789,53.3588
16:33:46:594,-1.2319,-0.8654,10.9103,43.4528,0.3173,-0.5845,-0.0873,53.3588
16:33:46:614,-1.0003,-0.6895,10.2468,43.1913,0.2257,-0.1757,0.0458,53.3588
16:33:46:634,-0.6968,-0.259,9.5248,43.1841,-0.0234,0.0969,0.1001,53.4518
16:33:46:655,-0.5577,0.1598,8.7268,43.051,-0.263,0.478,0.0809,53.5444
16:33:46:677,-0.5234,0.0991,7.7847,43.0025,-0.3354,0.8805,0.0362,53.6412
16:33:46:694,-0.7847,0.1953,6.8035,43.185,-0.2928,1.07,0.0596,53.733
16:33:46:714,-1.0759,0.2785,6.0906,42.9434,-0.2108,1.0593,0.2214,53.733
16:33:46:733,-1.0716,0.4375,5.5355,42.9306,-0.0979,0.8858,0.4365,53.733
16:33:46:754,-0.9694,0.8314,5.2569,42.6573,-0.0266,0.5962,0.5611,53.733
16:33:46:776,-0.7416,1.3062,5.2904,42.6384,-0.1214,0.1437,0.5472,53.733
16:33:46:793,-0.4395,1.4922,5.9099,42.5287,-0.3567,-0.3897,0.4546,53.733
16:33:46:815,0.1591,1.3798,7.0264,42.4219,-0.6665,-0.8358,0.2321,53.733
16:33:46:833,0.4133,1.2392,8.6437,42.357,-0.9358,-0.9294,-0.1033,53.733
16:33:46:853,0.3561,0.8983,10.2759,42.3215,-0.8837,-0.4078,-0.3599,53.733
16:33:46:874,-0.0241,0.7465,10.8746,42.2606,-0.5813,0.3769,-0.4535,53.733
16:33:46:895,-0.1982,0.6597,10.9395,42.3302,-0.3396,0.6622,-0.4408,53.733
16:33:46:915,-0.3677,1.1201,11.4678,42.2309,-0.4929,0.2236,-0.5302,53.733
16:33:46:933,-0.5681,1.3504,12.6729,42.0607,-0.593,0.0064,-0.6228,53.733
16:33:46:953,-0.9322,1.3219,13.5774,42.179,-0.4259,0.2055,-0.6037,53.733
16:33:46:974,-1.3012,1.6858,13.708,42.2109,-0.2119,0.5078,-0.4684,53.8267
16:33:46:993,-1.2214,1.9422,13.721,42.3548,-0.1767,0.5174,-0.378,53.934
16:33:47:014,-0.295,0.9867,14.2561,42.6331,-0.3109,-0.0788,-0.5227,54.0497
16:33:47:033,0.1254,-0.4276,14.5094,42.8475,-0.0075,-0.4408,-0.7229,54.1728
16:33:47:054,-0.1379,-1.4507,13.012,42.872,0.5813,-0.197,-0.7804,54.3106
16:33:47:074,-0.777,-1.7265,11.2719,42.9141,1.0263,-0.1299,-0.6995,54.4697
16:33:47:093,-1.0567,-1.5143,10.0905,42.8045,1.0668,-0.61,-0.4993,54.647
16:33:47:114,-0.4386,-0.983,9.4249,42.8982,0.8496,-1.0668,-0.3034,54.8363
16:33:47:134,0.3209,-0.4184,8.7631,42.7064,0.6218,-0.9145,-0.2449,55.0337
16:33:47:154,0.7188,-0.064,7.7576,42.4758,0.445,-0.2278,-0.3961,55.2404
16:33:47:177,0.2353,0.4604,6.5845,42.577,0.2438,0.5611,-0.5888,55.4622
16:33:47:193,-0.4973,0.7593,5.8135,42.2763,0.049,0.9688,-0.6856,55.7044
16:33:47:216,-1.1664,1.0521,5.5998,42.3371,-0.0916,0.8017,-0.6473,55.9675
16:33:47:233,-1.4683,1.2066,5.6118,41.9742,-0.1597,0.3907,-0.5472,56.2424
16:33:47:253,-1.385,1.1948,5.9411,41.789,-0.1618,0.0085,-0.411,56.5256
16:33:47:276,-1.1681,1.3036,6.3422,41.615,-0.1501,-0.23,-0.2875,56.8127
16:33:47:293,-0.9226,1.4777,6.698,41.3401,-0.1735,-0.3215,-0.2097,57.1003
16:33:47:314,-0.5899,1.6279,7.3451,41.0115,-0.3492,-0.3758,-0.2108,57.3874
16:33:47:334,-0.5775,1.6458,8.4059,41.0808,-0.4695,-0.3407,-0.2545,57.6742
16:33:47:354,-0.9075,1.7591,9.5985,40.9566,-0.4557,-0.3013,-0.2715,57.9611
16:33:47:374,-1.113,1.5071,10.5172,41.2097,-0.3449,-0.2576,-0.2033,58.2482
16:33:47:393,-1.4233,1.3938,11.2663,41.048,-0.197,-0.1852,-0.0713,58.5326
16:33:47:414,-1.7707,1.5739,11.6621,41.6509,-0.0128,0.0021,0.1544,58.8111
16:33:47:433,-1.6782,1.5827,11.8256,41.6408,0.0862,0.0777,0.3524,59.0772
16:33:47:454,-1.3205,1.4548,12.2225,41.8125,0.0064,-0.1629,0.4514,59.3238
16:33:47:474,-0.9275,1.2112,13.0835,41.4759,-0.0266,-0.28,0.4738,59.5473
16:33:47:493,-0.8764,1.1632,13.4407,41.6658,0.1533,0.0639,0.4993,59.7477
16:33:47:515,-1.2306,1.2563,12.8459,41.4503,0.4291,0.61,0.6037,59.9266
16:33:47:534,-1.1926,0.9359,12.0824,41.4293,0.4759,0.4141,0.5973,60.0805
16:33:47:554,-1.0479,0.1453,12.0257,41.4421,0.3748,-0.3503,0.4173,60.2054
16:33:47:574,-1.154,-0.456,11.7951,41.4589,0.4897,-0.4812,0.3694,60.3069
16:33:47:594,-1.2914,-0.7363,10.9563,41.0492,0.6952,-0.2225,0.4141,60.3069
16:33:47:616,-1.5045,-0.6075,9.8537,41.0909,0.6132,-0.2289,0.445,60.3069
16:33:47:633,-1.296,-0.6072,9.2906,40.5875,0.2683,-0.3471,0.4972,60.3069
16:33:47:654,-0.9754,-0.5314,9.0554,40.2128,-0.017,-0.1927,0.5025,60.3069
16:33:47:678,-1.0057,-0.2823,8.4625,39.925,-0.1331,0.23,0.5068,60.3069
16:33:47:694,-1.0721,0.0037,7.7765,40.2276,-0.1554,0.5941,0.5866,60.3069
16:33:47:715,-0.9892,0.0351,7.018,39.9524,-0.0617,0.6186,0.6963,60.3069
16:33:47:734,-0.8769,0.2848,6.4385,39.8241,0.0362,0.5195,0.8315,60.3069
16:33:47:754,-0.7813,0.59,5.9045,39.7731,0.132,0.5387,0.939,60.3069
16:33:47:776,-0.5933,0.7392,5.4124,39.5737,0.1799,0.5195,0.9763,60.3069
16:33:47:800,-0.3982,1.03,5.2271,39.4404,0.0341,0.2534,0.9199,60.1845
16:33:47:814,-0.3729,1.6483,5.8952,39.2715,-0.3215,-0.2513,0.7793,60.0312
16:33:47:833,0.1557,1.5732,7.2821,39.0601,-0.5664,-0.7144,0.5951,59.8513
16:33:47:854,0.6334,1.2439,9.0923,39.2062,-0.6569,-0.9167,0.3641,59.6512
16:33:47:873,0.7451,1.062,10.5113,39.618,-0.4578,-0.544,0.1214,59.4435
16:33:47:893,0.7192,0.9056,10.7066,39.3666,-0.2012,0.0958,-0.0767,59.2402
16:33:47:937,0.378,0.982,10.6368,39.6367,-0.2694,0.3109,-0.2662,59.0497
16:33:47:939,-0.1179,1.2431,11.1531,39.6306,-0.5451,0.1895,-0.4429,58.8748
16:33:47:953,-0.5395,1.285,12.0686,39.5285,-0.6952,0.2374,-0.51,58.7195
16:33:47:973,-0.8578,1.1047,12.7205,39.5953,-0.5132,0.5046,-0.4663,58.5883
16:33:47:993,-1.2995,1.2705,12.6222,39.7878,-0.2321,0.7133,-0.3183,58.4777
16:33:48:015,-1.5937,1.9048,12.1748,39.9162,-0.1246,0.7229,-0.1331,58.3834
16:33:48:033,-0.883,1.1934,12.5853,40.2218,-0.3843,0.0724,-0.1491,58.3834
16:33:48:053,-0.3401,0.1998,13.8874,40.3137,-0.5515,-0.7453,-0.3524,58.3834
16:33:48:073,-0.1075,-1.0514,14.1823,40.2103,-0.0894,-0.807,-0.3939,58.3834
16:33:48:094,-0.0088,-1.8067,12.8232,40.0145,0.4674,-0.478,-0.2747,58.3834
16:33:48:114,0.0568,-1.7004,11.4914,39.5844,0.7793,-0.33,-0.0415,58.3834
16:33:48:133,0.4028,-0.928,10.388,39.1044,0.8315,-0.3652,0.1533,58.3834
16:33:48:157,0.7663,-0.1635,9.1811,39.0262,0.7559,-0.2566,0.1746,58.3834
16:33:48:178,0.8932,0.373,7.9306,38.6982,0.6633,0.0266,0.0362,58.3834
16:33:48:193,0.8203,0.7668,6.6528,38.7741,0.5121,0.2821,-0.1693,58.3834
16:33:48:213,0.6294,1.0238,5.8567,38.6295,0.363,0.3418,-0.363,58.3834
16:33:48:233,0.37,1.2155,5.3931,38.5655,0.2587,0.1522,-0.5302,58.3834
16:33:48:253,0.2845,1.2682,5.124,38.3243,0.1799,-0.1352,-0.6686,58.3834
16:33:48:275,0.0961,1.2165,5.1582,38.5198,0.0745,-0.4216,-0.8134,58.3834
16:33:48:293,-0.0212,1.109,5.5876,38.4513,0.0064,-0.5653,-0.8709,58.3834
16:33:48:314,-0.0934,0.84,6.3028,38.4791,-0.0916,-0.4972,-0.7602,58.3834
16:33:48:333,-0.2417,0.8824,7.1729,38.2568,-0.2651,-0.1927,-0.4684,58.3834
16:33:48:353,-0.2929,1.2916,8.3338,38.1864,-0.4599,-0.0224,-0.2534,58.4827
16:33:48:373,-0.239,1.6913,9.7248,37.8478,-0.5994,-0.1001,-0.1852,58.5914
16:33:48:394,-0.3382,2.0168,11.0045,38.075,-0.543,-0.1693,-0.1256,58.7039
16:33:48:415,-0.5114,2.1236,11.6602,38.0629,-0.3045,-0.1341,-0.0234,58.8173
16:33:48:434,-0.6571,2.2204,11.7467,38.2478,-0.0479,-0.0522,0.1618,58.9268
16:33:48:453,-0.6806,2.5074,11.719,38.4058,0.0075,-0.0234,0.3641,59.0282
16:33:48:474,-0.2393,2.6504,12.3381,38.4274,-0.1448,-0.1703,0.4365,59.0282
16:33:48:494,0.173,2.6013,13.1867,38.6816,-0.2012,-0.2033,0.3545,59.0282
16:33:48:514,0.0147,2.3614,13.5169,38.5124,0.0447,0.2449,0.2768,59.0282
16:33:48:534,-0.6916,2.0584,12.7043,38.1382,0.3439,0.7921,0.3758,59.0282
16:33:48:554,-1.2164,1.5731,11.7917,37.9914,0.4748,0.7346,0.3992,59.0282
16:33:48:576,-1.2899,0.6925,11.5763,37.6262,0.4983,-0.0266,0.2012,59.0282
16:33:48:594,-1.5375,-0.1141,11.6619,37.4189,0.5281,-0.7846,-0.0064,59.0282
16:33:48:617,-1.3574,-0.7629,11.5418,37.6309,0.5504,-1.0199,-0.0639,59.0282
16:33:48:633,-1.1424,-1.1287,11.0796,37.6941,0.4887,-0.7836,-0.0575,59.0282
16:33:48:653,-0.7905,-1.2361,10.1977,37.5038,0.3811,-0.2928,-0.0202,59.0282
16:33:48:677,-0.3442,-1.1015,9.1178,37.6014,0.1501,0.1661,-0.0373,59.0282
16:33:48:694,-0.3501,-0.4292,8.1978,37.7656,-0.1597,0.4791,-0.0809,59.0282
16:33:48:714,-0.4654,-0.0587,7.4699,37.8301,-0.3684,0.6665,-0.0884,59.0282
16:33:48:735,-0.7283,0.0608,6.7696,38.1421,-0.3588,0.8922,-0.0287,59.0282
16:33:48:754,-0.984,0.2496,6.1043,38.1801,-0.264,1.1019,0.1512,59.0282
16:33:48:777,-1.0591,0.5044,5.6027,37.8885,-0.1278,1.1935,0.379,59.0282
16:33:48:794,-1.1166,0.851,5.2891,37.9009,-0.0032,1.038,0.5675,59.0282
16:33:48:815,-1.1313,1.239,5.2964,37.7749,0.0926,0.6079,0.6239,59.0282
16:33:48:833,-1.1246,1.4555,5.6463,37.795,0.1693,-0.0564,0.5621,59.0282
16:33:48:853,-1.0797,1.9647,6.5716,37.8309,0.1661,-0.9081,0.4535,59.0282
16:33:48:873,-0.6102,2.1254,8.2975,37.9047,0.116,-1.6971,0.2757,59.0282
16:33:48:895,-0.0108,2.0978,9.9163,37.9455,0.3034,-1.9025,0.0383,58.9278
16:33:48:914,0.7916,1.7029,10.7226,37.8839,0.4503,-1.3638,-0.2406,58.8275
16:33:48:933,1.1221,1.7605,11.2671,37.7421,0.1331,-0.7825,-0.5015,58.8275
16:33:48:954,1.236,1.7594,12.2344,38.0031,-0.5185,-0.3567,-0.691,58.8275
16:33:48:975,0.9578,1.6415,13.4706,38.2889,-1.004,0.2885,-0.7027,58.8275
16:33:48:993,0.374,1.7121,14.5563,38.4875,-1.1466,1.037,-0.477,58.8275
16:33:49:015,-0.1758,2.1172,14.8698,38.7054,-0.9582,1.4298,-0.1192,58.8275
16:33:49:033,0.1784,2.2066,15.2003,38.6772,-0.6441,1.0029,0.1405,58.8275
16:33:49:053,1.5066,1.1017,15.3521,38.4531,-0.1086,0.1278,0.0724,58.8275
16:33:49:073,2.2384,-0.1898,13.646,37.9365,0.6473,-0.1363,-0.1278,58.8275
16:33:49:093,1.774,-0.5441,11.0662,37.5791,1.2126,0.1533,-0.33,58.8275
16:33:49:113,0.8681,-0.0994,9.0486,37.3443,1.2616,0.1437,-0.4248,58.8275
16:33:49:133,0.3574,0.5247,7.7588,36.8683,0.7474,-0.2481,-0.4408,58.8275
16:33:49:153,0.2256,0.9093,7.321,36.675,0.116,-0.412,-0.4791,58.8275
16:33:49:178,0.1269,0.8397,7.3533,36.3747,-0.214,-0.3183,-0.6026,58.8275
16:33:49:194,-0.1322,0.7084,7.08,36.3835,-0.2321,-0.1522,-0.7421,58.9331
16:33:49:219,-0.5143,0.6107,6.5973,36.1345,-0.1267,-0.1991,-0.8017,59.0616
16:33:49:233,-0.8523,0.7088,6.1982,36.044,-0.0532,-0.4269,-0.7484,59.2115
16:33:49:253,-0.9056,0.7203,6.1185,36.328,0.0479,-0.5547,-0.5834,59.3815
16:33:49:276,-0.7386,0.674,6.1045,36.5103,0.2087,-0.4557,-0.346,59.5671
16:33:49:294,-0.3825,0.8647,5.8942,36.8865,0.3897,-0.2023,-0.1299,59.7609
16:33:49:314,-0.2198,1.2097,5.8328,37.1298,0.3961,-0.1203,0.0011,59.9552
16:33:49:334,-0.1393,1.8879,6.4168,37.3479,0.1863,-0.3439,0.1576,60.1444
16:33:49:353,0.2873,2.2554,7.851,37.4578,-0.0788,-0.5557,0.3577,60.324
16:33:49:374,0.7488,2.4161,9.4398,37.7553,-0.1097,-0.6154,0.4408,60.4865
16:33:49:393,1.033,2.564,10.2947,37.9725,0.0554,-0.4653,0.3918,60.63
16:33:49:419,1.0432,2.8701,10.5319,38.0675,-0.0106,-0.2236,0.198,60.7555
16:33:49:435,0.378,3.0069,11.3547,38.143,-0.3034,0.0703,0.0586,60.8734
16:33:49:453,-0.4519,2.636,12.7905,38.174,-0.5057,0.2555,0.198,60.9905
16:33:49:473,-0.9135,2.4624,14.4904,37.9544,-0.5057,0.1863,0.4163,61.1019
16:33:49:493,-0.9999,2.4327,15.2682,37.9887,-0.1246,0.3077,0.6377,61.1968
16:33:49:518,-0.9017,2.3114,14.6533,38.1378,0.4844,0.6005,0.7367,61.1968
16:33:49:533,-1.1016,2.2091,13.0761,38.2176,0.9571,0.444,0.6175,61.1968
16:33:49:554,-1.4357,1.8608,11.6375,38.3064,0.9316,-0.2779,0.3449,61.1968
16:33:49:574,-1.4313,1.1039,11.0465,38.2703,0.5281,-0.6835,0.2055,61.1968
16:33:49:593,-1.3812,0.3917,10.9824,38.0616,0.2023,-0.5238,0.1118,61.1968
16:33:49:614,-1.4263,-0.1252,10.6657,38.0167,0.0138,-0.0916,0.1224,61.1968
16:33:49:634,-1.1033,-0.7247,9.9967,37.961,-0.1938,0.3141,0.1863,61.1968
16:33:49:654,-0.6527,-1.0926,9.4303,37.6527,-0.4929,0.5206,0.1948,61.1968
16:33:49:677,-0.6605,-0.8709,8.9346,37.76,-0.4961,0.7516,0.1852,61.1968
16:33:49:696,-0.9163,-0.4298,7.8191,37.3768,-0.2225,0.9465,0.2576,61.1968
16:33:49:714,-1.0642,-0.1313,6.1932,37.1087,0.1011,1.0519,0.4472,61.1968
16:33:49:734,-0.9451,0.0685,4.8047,37.1303,0.2736,0.9763,0.7165,61.1968
16:33:49:754,-0.7664,0.2526,3.9984,37.0819,0.2097,0.774,0.9816,61.1968
16:33:49:779,-0.555,0.6333,4.1942,36.7176,-0.0192,0.4429,1.1498,61.0883
16:33:49:793,-0.119,0.9772,5.1624,36.8283,-0.2417,0.0149,1.1168,60.9414
16:33:49:814,0.3868,1.2777,6.2498,36.8121,-0.4738,-0.5121,0.8645,60.7556
16:33:49:834,0.9672,1.1022,7.9142,36.3573,-0.7048,-0.7378,0.5281,60.5416
16:33:49:855,1.3148,0.4289,9.5492,36.5787,-0.675,-0.5802,0.1533,60.3142
16:33:49:873,1.0215,-0.2374,10.6212,36.6284,-0.5408,-0.0852,-0.0798,60.0891
16:33:49:896,0.5629,0.2232,11.2785,36.5639,-0.5557,0.3758,-0.1341,59.8781
16:33:49:914,0.3531,0.9116,12.0317,36.4429,-0.708,0.5387,-0.1565,59.683
16:33:49:958,0.3087,1.403,12.7674,36.4166,-0.7846,0.6654,-0.2193,59.5023
16:33:49:960,0.4426,1.3967,13.2325,36.3166,-0.7208,0.7389,-0.3609,59.3358
16:33:49:973,-0.1468,1.7881,13.1626,36.2473,-0.5951,0.9294,-0.5472,59.1859
16:33:49:993,-0.7798,1.5474,13.127,36.393,-0.5888,0.9124,-0.6665,59.0588
16:33:50:017,-1.2329,0.7793,13.5519,36.2737,-0.6239,0.6377,-0.7016,58.9588
16:33:50:033,-1.8199,0.3898,13.9579,36.0256,-0.2513,0.4429,-0.511,58.9588
16:33:50:053,-1.8127,0.0567,13.2087,35.8749,0.214,0.1757,-0.2342,58.9588
16:33:50:073,-1.1545,-0.4629,12.2191,35.83,0.2662,-0.3119,-0.1065,58.9588
16:33:50:093,-0.3512,-0.7346,11.7279,35.8537,0.083,-0.5962,-0.0596,58.9588
16:33:50:115,0.2816,-0.5219,10.9883,35.5306,0.0096,-0.3439,-0.1246,58.9588
16:33:50:134,0.3888,-0.2298,9.8459,35.6334,0.1331,0.0639,-0.2938,58.9588
16:33:50:153,0.0752,0.0403,8.2255,35.6605,0.3918,0.3418,-0.4461,58.9588
16:33:50:177,-0.0079,0.5411,7.0252,35.5225,0.5526,0.494,-0.5526,58.9588
16:33:50:195,0.5098,0.6385,5.8456,35.6845,0.6367,1.1147,-0.7878,58.9588
16:33:50:214,0.3628,0.1251,4.5659,35.7568,0.5877,1.664,-1.12,58.9588
16:33:50:233,-1.0137,0.3949,4.0855,35.7285,0.3822,1.2616,-1.1339,58.9588
16:33:50:253,-2.1544,0.8333,4.7904,36.0016,0.3396,0.1139,-0.7506,59.0663
16:33:50:274,-2.2985,0.8235,5.7593,35.9355,0.3897,-1.0285,-0.3215,59.1908
16:33:50:294,-1.5432,0.7415,6.8264,36.1329,0.2906,-1.4266,-0.1501,59.321
16:33:50:314,-1.1187,0.567,7.9641,36.2774,0.1129,-1.1434,-0.2108,59.4562
16:33:50:333,-1.5299,0.6348,9.2992,36.43,0.0149,-0.6069,-0.2374,59.6
16:33:50:353,-2.1737,0.9033,10.2253,36.8437,0.1246,-0.1703,-0.0905,59.7517
16:33:50:377,-2.4594,1.2898,10.3155,36.9655,0.2246,0.0234,0.1576,59.9048
16:33:50:394,-2.5408,1.7857,10.3792,37.1775,0.1001,0.0532,0.3492,60.0509
16:33:50:414,-2.532,2.1963,10.8292,37.3046,-0.066,0.1512,0.4525,60.184
16:33:50:433,-2.3327,2.1477,11.1885,37.1682,-0.2406,0.3875,0.4503,60.3012
16:33:50:453,-2.467,1.9919,11.7404,37.2534,-0.4046,0.5973,0.3694,60.4022
16:33:50:474,-3.2071,1.7419,12.5123,37.4657,-0.3396,0.6665,0.3716,60.4022
16:33:50:493,-3.7087,1.2932,12.9719,37.2918,-0.0011,0.3556,0.4706,60.4022
16:33:50:513,-3.5683,0.599,12.9051,37.1656,0.3258,-0.4024,0.4503,60.4022
16:33:50:533,-3.0993,-0.3112,12.5499,37.2532,0.4184,-0.7697,0.4461,60.4022
16:33:50:553,-2.575,-0.8657,12.1405,36.9754,0.4184,-0.5738,0.4269,60.4022
16:33:50:575,-2.2531,-0.9069,11.6781,37.1579,0.2875,-0.2832,0.3577,60.4022
16:33:50:593,-1.9449,-0.8989,11.1554,37.2472,0.066,-0.0011,0.2917,60.4022
16:33:50:614,-1.723,-0.9207,10.6023,37.0594,-0.0788,0.3109,0.2502,60.4022
16:33:50:633,-1.8332,-0.657,9.6242,37.409,-0.0128,0.6345,0.2864,60.4022
16:33:50:654,-1.951,-0.1967,8.1958,37.5324,0.2044,0.7974,0.4333,60.4022
16:33:50:677,-1.6751,0.0004,6.6939,37.5307,0.3556,0.6377,0.6037,60.4022
16:33:50:693,-1.3314,0.0754,5.6745,37.8301,0.3439,0.2332,0.6995,60.4022
16:33:50:715,-1.2135,0.3491,5.2676,37.6699,0.2981,-0.0713,0.8091,60.3083
16:33:50:734,-0.9504,0.5841,5.0041,37.3808,0.33,-0.1459,0.9337,60.1888
16:33:50:753,-0.6885,0.7978,4.9534,37.6544,0.2353,-0.2502,0.922,60.0432
16:33:50:773,-0.5564,1.4347,5.4673,37.6321,-0.0383,-0.5313,0.7548,59.8699
16:33:50:793,-0.4395,1.6462,6.6313,37.6868,-0.313,-0.9071,0.4716,59.6734
16:33:50:814,-0.5764,1.3584,8.0701,37.9388,-0.4227,-1.0476,0.2342,59.461
16:33:50:833,-0.5853,1.0337,9.2297,38.3418,-0.2875,-0.8485,0.1203,59.2464
16:33:50:853,-0.6526,0.8139,9.863,38.6554,-0.1341,-0.3439,0.0948,59.036
16:33:50:875,-0.7302,0.9727,10.681,38.9195,-0.1799,-0.0106,0.0703,58.8329
16:33:50:893,-0.7455,1.2334,11.4962,39.0687,-0.3066,0.214,0.0053,58.6367
16:33:50:914,-0.8499,1.4558,12.2411,39.0419,-0.3492,0.477,-0.0181,58.4493
16:33:50:933,-1.0297,1.6783,12.5866,39.1195,-0.2619,0.7186,-0.0383,58.2704
16:33:50:953,-1.2945,2.3104,12.4839,39.3725,-0.2917,0.8613,-0.1075,58.0995
16:33:50:974,-1.1908,1.9138,13.4533,39.5069,-0.6643,0.3322,-0.2757,57.9397
16:33:50:993,-1.3499,0.4956,15.2387,39.5983,-0.7964,-0.3748,-0.3449,57.7851
16:33:51:013,-1.3357,-0.862,15.7399,39.4753,-0.1491,-0.5227,-0.0841,57.6395
16:33:51:033,-0.9697,-1.5628,14.2261,39.4606,0.5526,-0.4205,0.3343,57.4963
16:33:51:054,-0.326,-1.311,12.652,39.0691,0.9018,-0.5302,0.7005,57.3453
16:33:51:073,0.4287,-0.269,11.0318,38.7346,0.8911,-0.6143,0.8837,57.1745
16:33:51:093,1.123,0.439,9.4471,38.4457,0.8475,-0.4354,0.8017,56.9803
16:33:51:114,1.3543,1.0404,7.7735,38.3284,0.7708,-0.165,0.5547,56.7656
16:33:51:133,1.2857,1.3712,6.3753,38.2215,0.643,0.1203,0.2917,56.54
16:33:51:153,1.0564,1.388,5.5141,38.2096,0.5557,0.2342,0.083,56.3122
16:33:51:176,0.8211,1.3869,5.0708,38.4552,0.5195,0.2161,-0.0532,56.0872
16:33:51:193,0.7343,1.3456,4.7704,38.4361,0.5483,0.164,-0.1544,55.8699
16:33:51:215,0.7275,1.361,4.4094,38.3632,0.4748,0.0383,-0.2683,55.6628
16:33:51:233,0.7674,1.358,4.4003,38.6022,0.0224,-0.296,-0.4695,55.4709
16:33:51:253,0.4024,1.5403,5.2327,38.669,-0.6377,-0.7112,-0.7218,55.3007
16:33:51:273,-0.3333,1.8609,6.7441,38.7341,-1.0838,-1.0061,-0.7974,55.1612
16:33:51:293,-0.7303,2.1279,8.1505,38.9784,-1.1158,-1.12,-0.6399,55.0551
16:33:51:314,-0.5137,2.2371,9.3172,39.1425,-0.8688,-1.1115,-0.4269,55.0551
16:33:51:334,-0.1761,2.5026,9.7531,39.2494,-0.6207,-0.6079,-0.1842,55.0551
16:33:51:355,0.1562,2.771,10.7014,39.6611,-0.5845,0.1491,-0.0043,55.0551
16:33:51:376,0.0804,3.1671,11.2245,39.7486,-0.5494,0.642,0.0639,55.0551
16:33:51:393,-0.2147,3.9568,11.973,39.988,-0.6729,0.658,0.1597,55.0551
16:33:51:417,0.1823,3.8362,13.4788,40.0208,-0.7165,0.2523,0.2204,55.0551
16:33:51:433,0.5546,3.0001,15.2088,39.9842,-0.2821,-0.1469,0.2608,55.0551
16:33:51:454,0.6305,2.2986,15.4128,39.9509,0.626,-0.1661,0.4461,55.0551
16:33:51:473,0.583,2.1664,13.6621,39.9426,1.2137,0.0447,0.5132,55.0551
16:33:51:494,0.3486,1.6057,12.5172,40.027,1.103,0.1097,0.1065,54.9502
16:33:51:514,-0.4642,0.5571,12.1547,39.986,0.8166,-0.5472,-0.4503,54.8369
16:33:51:538,-1.201,-0.6166,12.0253,40.2367,0.6494,-0.9454,-0.6281,54.7306
16:33:51:554,-1.6896,-1.0189,11.4496,40.4477,0.7005,-0.8751,-0.5504,54.7306
16:33:51:573,-1.9158,-0.8571,10.0669,40.8623,0.625,-0.5036,-0.3332,54.7306
16:33:51:593,-1.8282,-0.3696,8.8635,41.166,0.2694,-0.1405,-0.1246,54.7306
16:33:51:615,-1.4355,-0.1144,8.0696,41.6366,-0.1938,0.0554,0.0426,54.7306
16:33:51:633,-1.0181,0.1093,7.7195,42.1801,-0.5898,0.2278,0.131,54.7306
16:33:51:654,-0.6208,0.0547,7.3847,42.6946,-0.6771,0.4748,0.1033,54.7306
16:33:51:677,-0.5695,0.0565,6.6973,43.1246,-0.4908,0.6548,0.0522,54.7306
16:33:51:695,-0.7272,0.1798,5.7205,43.3664,-0.2491,0.7878,0.0884,54.7306
16:33:51:713,-1.0617,0.1852,4.9486,43.3938,-0.0394,0.9252,0.2651,54.7306
16:33:51:733,-1.3584,0.651,4.4477,43.2004,0.1033,1.0508,0.5951,54.7306
16:33:51:753,-1.432,1.3585,4.3418,43.2153,0.1171,0.8443,0.8741,54.7306
16:33:51:774,-1.2476,2.1601,4.6669,43.0473,-0.1427,0.2502,0.8762,54.7306
16:33:51:793,-0.8668,2.7037,5.8976,43.2872,-0.6516,-0.4855,0.6473,54.6084
16:33:51:814,-0.3442,2.7815,8.3997,43.4258,-1.1126,-1.0231,0.3609,54.4632
16:33:51:834,0.3217,2.5046,10.9179,43.5083,-1.2105,-0.8123,0.0905,54.3094
16:33:51:853,1.0654,2.4116,12.8584,43.7565,-1.1189,-0.017,-0.2534,54.1633
16:33:51:875,1.5385,2.0487,14.1788,43.8672,-0.9646,0.5387,-0.7857,54.0365
16:33:51:893,1.2595,1.3571,14.8646,43.9258,-0.724,0.7399,-1.3819,53.9391
16:33:51:915,0.0648,0.5187,14.6908,44.0419,-0.4578,0.9614,-1.6129,53.9391
16:33:51:933,-1.1114,0.434,14.1416,44.3632,-0.2704,1.0306,-1.1605,53.9391
16:33:51:971,-1.2372,0.9761,13.8022,44.3168,-0.1331,0.7559,-0.1331,53.9391
16:33:51:973,0.333,0.8521,14.1106,44.2176,0.0979,-0.0032,0.692,53.9391
16:33:51:993,1.975,-0.0727,13.9662,44.6504,0.4088,-0.8773,0.4067,53.9391
16:33:52:015,1.5584,-1.0077,12.4099,44.7504,1.0689,-0.8049,-0.4727,53.9391
16:33:52:033,-0.0155,-1.3169,9.8657,44.6115,1.5012,-0.3822,-0.8805,53.9391
16:33:52:053,-1.2531,-1.2585,7.7702,44.6667,1.3372,-0.1448,-0.7463,53.9391
16:33:52:073,-1.5215,-1.1205,6.6495,44.5911,0.6803,-0.3056,-0.4099,53.9391
16:33:52:094,-0.9715,-1.0054,6.7222,44.511,-0.1672,-0.7133,-0.0969,53.9391
16:33:52:114,0.0217,-0.9531,7.3387,44.4034,-0.7431,-0.7665,0.0351,54.0383
16:33:52:133,0.6863,-0.7672,7.7323,44.4977,-0.9326,-0.4599,-0.0415,54.1396
16:33:52:153,0.7236,-0.6371,7.4144,44.7528,-0.7783,0.1948,-0.2225,54.2447
16:33:52:177,0.1481,-0.4752,6.7042,45.1228,-0.4876,0.6218,-0.3396,54.361
16:33:52:193,-0.51,-0.0697,5.9992,45.2676,-0.2513,0.5707,-0.3162,54.4805
16:33:52:214,-0.8645,0.311,5.3659,45.6215,-0.1256,0.3641,-0.1501,54.605
16:33:52:233,-0.7522,0.4024,5.2171,45.6544,-0.1352,0.1512,0.0596,54.7306
