Time,Acc_X,Acc_Y,Acc_Z,Meg,Gyr_X,Gyr_Y,Gyr_Z,Ore
16:30:30:407,-0.6177,2.335,8.9247,34.0028,0.3173,-1.0636,-0.3471,-67.7838
16:30:30:423,-0.5589,2.6352,9.055,33.9478,0.1874,-0.9145,-0.3279,-67.7838
16:30:30:443,-0.6062,2.9897,9.164,33.6651,-0.1086,-0.6345,-0.3087,-67.7838
16:30:30:463,-0.6488,3.1715,9.299,33.7061,-0.2928,-0.0948,-0.214,-67.7838
16:30:30:483,-0.8812,3.2121,9.0281,33.6735,-0.2012,0.4163,-0.1459,-67.7838
16:30:30:503,-1.1294,3.2994,8.4687,33.8681,-0.0075,0.4876,-0.1831,-67.7838
16:30:30:523,-1.3959,3.4635,8.1098,33.8426,0.0671,0.1331,-0.3066,-67.7838
16:30:30:543,-1.4449,3.5522,8.1604,34.1315,-0.0447,-0.3258,-0.4578,-67.7838
16:30:30:563,-1.2681,3.2179,8.5477,33.773,-0.2342,-0.5057,-0.5259,-67.7838
16:30:30:583,-1.2023,3.0471,8.9013,34.0697,-0.3183,-0.2278,-0.4333,-67.6826
16:30:30:603,-1.2242,3.2265,8.7176,34.2825,-0.2651,0.4067,-0.2811,-67.5686
16:30:30:623,-1.5411,3.455,8.199,34.0441,-0.2385,0.856,-0.2012,-67.4465
16:30:30:643,-1.8681,3.4908,7.7132,33.7262,-0.3662,0.8996,-0.2427,-67.3231
16:30:30:663,-2.1737,3.2,7.9768,33.6919,-0.4823,0.6207,-0.2598,-67.2006
16:30:30:683,-2.373,2.7767,8.4037,33.7274,-0.4291,0.296,-0.1767,-67.0774
16:30:30:703,-2.3613,2.5344,8.5786,33.6848,-0.2832,0.197,0.0032,-66.9568
16:30:30:723,-1.959,2.4513,8.5269,33.816,-0.1916,0.2928,0.1725,-66.8422
16:30:30:743,-1.7524,2.8146,8.5393,34.1521,-0.2055,0.3961,0.2768,-66.739
16:30:30:765,-1.5756,3.1325,8.8885,34.2438,-0.2683,0.2449,0.2619,-66.739
16:30:30:783,-1.7531,3.5288,9.5031,34.1763,-0.2811,-0.0681,0.1799,-66.739
16:30:30:803,-1.8681,3.6288,10.1645,34.3142,-0.148,-0.165,0.1384,-66.739
16:30:30:823,-1.8081,3.4616,10.3815,34.1011,0.0266,-0.0564,0.0671,-66.739
16:30:30:842,-1.9848,3.6765,10.5913,33.9542,0.0617,-0.0948,-0.0351,-66.739
16:30:30:864,-2.3282,4.0092,10.9971,33.8532,0.0468,-0.33,-0.0713,-66.739
16:30:30:883,-2.3595,3.8426,11.4548,34.1102,0.1395,-0.4482,-0.0617,-66.739
16:30:30:903,-2.2192,3.6249,11.4431,33.8685,0.3109,-0.3332,0.0085,-66.739
16:30:30:922,-2.0895,3.422,11.0971,34.0903,0.4599,-0.0415,0.1182,-66.739
16:30:30:942,-2.117,3.4446,10.31,33.8359,0.5217,0.4056,0.2204,-66.739
16:30:30:964,-1.9969,3.2119,9.314,33.7947,0.4131,0.6558,0.2864,-66.739
16:30:30:983,-1.5882,2.4535,8.6437,33.8921,0.1043,0.4812,0.2129,-66.739
16:30:31:003,-1.745,2.1976,8.7907,34.1147,-0.2204,0.3811,0.1735,-66.739
16:30:31:023,-1.6276,1.7152,9.1389,34.088,-0.2608,0.3332,0.2332,-66.739
16:30:31:042,-1.2526,1.1399,9.0913,34.3723,-0.2236,0.0937,0.1959,-66.739
16:30:31:063,-1.1273,1.028,9.1325,34.5061,-0.2885,-0.2129,0.1991,-66.739
16:30:31:083,-0.8899,1.0728,9.3478,34.7132,-0.3822,-0.3024,0.3098,-66.739
16:30:31:102,-0.3722,1.3117,9.4865,34.4104,-0.4312,-0.2321,0.3428,-66.739
16:30:31:122,-0.0402,1.6871,9.346,34.4434,-0.4418,0.0511,0.2598,-66.739
16:30:31:142,-0.0296,1.9179,8.846,34.4576,-0.3843,0.4929,0.0788,-66.739
16:30:31:163,-0.1675,1.8892,8.0717,34.4738,-0.3524,0.7335,-0.1182,-66.739
16:30:31:183,-0.4735,1.8521,7.614,34.5867,-0.3024,0.7463,-0.1863,-66.739
16:30:31:203,-0.5655,1.6581,7.3145,34.598,-0.1448,0.56,-0.0969,-66.739
16:30:31:222,-0.2271,1.5083,7.022,34.701,0.066,0.2608,-0.0011,-66.739
16:30:31:244,0.3053,1.647,6.7626,34.8089,0.1182,-0.1586,0.016,-66.739
16:30:31:263,0.6036,1.9191,7.1934,34.6145,-0.0522,-0.5557,-0.0756,-66.739
16:30:31:283,0.4794,2.1421,8.1528,34.313,-0.1938,-0.8049,-0.2193,-66.739
16:30:31:303,0.0883,2.3157,9.1148,34.2742,-0.2459,-0.8634,-0.3194,-66.739
16:30:31:323,-0.1467,2.2999,9.8008,33.9298,-0.2257,-0.7154,-0.3439,-66.739
16:30:31:343,-0.2776,2.1657,10.3406,34.0144,-0.2459,-0.5962,-0.3503,-66.739
16:30:31:364,-0.5943,2.3708,10.9773,33.9847,-0.2449,-0.4951,-0.297,-66.739
16:30:31:383,-0.7882,2.5437,11.3299,34.1373,-0.1203,-0.2843,-0.1884,-66.739
16:30:31:403,-0.893,2.678,11.126,34.1177,0.0884,-0.0777,-0.0586,-66.739
16:30:31:423,-0.8581,2.8287,10.5995,34.0978,0.2364,-0.0234,0.0213,-66.739
16:30:31:443,-0.6924,2.5,10.1339,34.1113,0.2129,-0.2694,0.0575,-66.739
16:30:31:464,-0.6975,1.9165,10.4792,34.3573,-0.0106,-0.6899,0.0958,-66.739
16:30:31:483,-0.981,1.5443,11.4281,34.2428,-0.148,-0.7293,0.197,-66.739
16:30:31:503,-1.1379,1.3252,11.8383,34.1452,-0.132,-0.4354,0.2768,-66.739
16:30:31:523,-1.2556,0.932,11.9169,34.3753,-0.1544,-0.3311,0.2385,-66.739
16:30:31:543,-1.3697,0.4847,12.1426,34.2991,-0.0937,-0.3567,0.2374,-66.739
16:30:31:564,-1.4147,0.2952,11.8979,34.1274,0.1459,-0.3694,0.2236,-66.739
16:30:31:583,-1.3592,0.2398,11.2643,34.489,0.2683,-0.5153,0.1725,-66.739
16:30:31:603,-0.9803,0.108,10.7559,34.5645,0.2055,-0.5834,0.0979,-66.739
16:30:31:626,-0.7349,0.1447,10.3557,34.7993,0.1395,-0.363,-0.0149,-66.739
16:30:31:643,-0.6514,0.2111,9.5529,34.9147,0.1182,0.0021,-0.1363,-66.739
16:30:31:664,-0.8306,0.447,8.4686,35.1693,0.1246,0.4205,-0.2065,-66.739
16:30:31:683,-0.9602,0.5529,7.3589,35.4331,0.066,0.741,-0.2172,-66.739
16:30:31:703,-1.006,0.5661,6.6085,35.1998,-0.033,0.8219,-0.1874,-66.739
16:30:31:725,-1.1309,0.6431,6.4611,35.0142,-0.0692,0.6739,-0.1192,-66.739
16:30:31:743,-1.1048,0.6542,6.6059,35.3148,0.0309,0.3641,-0.0447,-66.739
16:30:31:763,-0.9121,0.5637,6.4601,34.996,0.1884,0.1278,-0.0064,-66.739
16:30:31:783,-0.8162,0.8767,6.2883,35.3821,0.1533,-0.0894,0.0021,-66.739
16:30:31:803,-0.6554,1.0704,6.6376,35.3311,-0.1043,-0.395,-0.05,-66.739
16:30:31:825,-0.2633,0.989,7.7967,34.8323,-0.3705,-0.7612,-0.1086,-66.739
16:30:31:843,0.1657,0.9403,9.3144,34.5204,-0.4227,-0.988,-0.1703,-66.739
16:30:31:863,0.4451,1.1501,10.4134,34.188,-0.2449,-0.9816,-0.3002,-66.739
16:30:31:882,0.322,1.4452,11.0019,33.7104,0.0873,-0.9837,-0.3865,-66.739
16:30:31:902,-0.172,1.9455,11.0315,33.7423,0.4163,-1.0572,-0.2875,-66.739
16:30:31:923,-0.3537,2.6479,10.9172,33.9293,0.4759,-1.1626,-0.0405,-66.739
16:30:31:943,-0.0252,3.0669,10.9831,33.7177,0.2204,-0.8688,0.2768,-66.739
16:30:31:963,0.6758,3.2271,11.7034,33.701,-0.1086,-0.3567,0.4919,-66.739
16:30:31:982,1.4135,2.95,12.8672,33.7786,-0.1799,0.1033,0.4993,-66.739
16:30:32:006,1.5294,2.8883,13.1778,33.758,0.0447,0.3684,0.3279,-66.739
16:30:32:026,1.9899,1.8864,12.6274,33.803,0.1192,0.1544,0.1022,-66.739
16:30:32:043,2.1891,0.6553,12.7634,33.8954,0.0085,-0.0937,-0.066,-66.739
16:30:32:064,2.1069,-0.2936,12.5425,34.2534,0.1693,0.1629,-0.2129,-66.739
16:30:32:083,1.5879,-0.6483,11.4101,34.5659,0.3428,0.4354,-0.3279,-66.739
16:30:32:104,1.158,-0.3679,10.1943,34.8311,0.2683,0.5834,-0.296,-66.739
16:30:32:123,1.3509,-0.1339,9.4251,35.5556,0.0405,0.5302,-0.3109,-66.739
16:30:32:143,1.61,0.038,9.1847,36.2214,-0.0862,0.4003,-0.4674,-66.739
16:30:32:164,1.3553,0.2275,8.5991,36.7631,-0.0138,0.4173,-0.6995,-66.739
16:30:32:183,0.7098,0.2742,7.6649,36.9176,0.1384,0.5888,-0.8304,-66.6478
16:30:32:204,-0.0197,0.5111,6.6269,37.1537,0.2555,0.7474,-0.7964,-66.5307
16:30:32:223,-0.5511,0.7014,5.7732,37.0005,0.297,0.8347,-0.5951,-66.3892
16:30:32:243,-0.8576,1.154,5.3341,36.9037,0.2491,0.6026,-0.3716,-66.2348
16:30:32:263,-0.9156,1.6152,5.5979,36.7541,0.1821,0.049,-0.1746,-66.0783
16:30:32:283,-0.5786,1.7404,6.0159,36.6714,0.1224,-0.3886,-0.0351,-65.9254
16:30:32:304,-0.164,1.7449,6.6049,36.7566,-0.099,-0.5643,0.0351,-65.7797
16:30:32:323,0.1147,1.6821,7.7343,36.648,-0.4312,-0.4653,0.0713,-65.6424
16:30:32:343,0.1798,1.9478,9.7148,36.6283,-0.6856,-0.2364,0.0884,-65.5125
16:30:32:364,0.3398,2.0258,11.6197,36.6658,-0.5504,0.0468,0.017,-65.3888
16:30:32:383,0.0606,1.7553,12.6745,36.4448,-0.1299,0.3375,-0.164,-65.2634
16:30:32:408,-0.7308,1.5766,12.3425,36.6565,0.2843,0.6047,-0.2672,-65.1292
16:30:32:423,-1.7838,1.7622,11.3915,36.7326,0.5195,0.8613,-0.0287,-64.9875
16:30:32:443,-2.1393,2.1722,10.4833,36.6737,0.5387,0.7921,0.4078,-64.8496
16:30:32:463,-1.7192,2.7777,10.2773,36.9723,0.3141,0.2736,0.8038,-64.7382
16:30:32:485,-0.7784,3.0539,11.0772,37.177,0.0607,-0.2065,1.0519,-64.7382
16:30:32:503,0.1463,3.0514,12.0676,37.3761,-0.0032,-0.2587,1.1211,-64.7382
16:30:32:523,0.41,3.4333,12.5668,37.5216,0.3034,0.0628,1.0285,-64.7382
16:30:32:543,0.589,2.7959,11.2337,37.8948,0.6899,-0.0085,0.6356,-64.7382
16:30:32:563,0.0242,1.8882,9.8318,38.3759,0.6792,-0.4312,0.2193,-64.7382
16:30:32:584,-0.8861,1.4533,9.2259,38.8608,0.5834,-0.5526,-0.0032,-64.7382
16:30:32:607,-1.3502,1.0487,8.4236,39.4129,0.4802,-0.2214,-0.0405,-64.7382
16:30:32:623,-1.7363,1.3819,7.6264,39.4441,0.1618,0.017,-0.049,-64.7382
16:30:32:643,-1.5985,1.5757,7.413,39.2836,-0.3897,-0.0202,-0.0905,-64.7382
16:30:32:663,-1.1247,1.2036,8.1961,39.3246,-0.9039,-0.1725,-0.2289,-64.7382
16:30:32:683,-0.8776,0.7707,9.1044,39.329,-1.1722,-0.1118,-0.4014,-64.7382
16:30:32:703,-1.2107,0.6923,9.6411,39.2271,-1.1466,0.2193,-0.4589,-64.7382
16:30:32:723,-1.6608,0.5919,9.4008,39.2886,-0.9039,0.5973,-0.2789,-64.7382
16:30:32:743,-1.9267,0.5348,8.7294,38.9688,-0.4961,0.8358,0.1235,-64.7382
16:30:32:766,-1.7765,0.7577,7.687,38.8709,-0.0319,0.7932,0.5238,-64.7382
16:30:32:783,-1.4438,1.2217,6.5613,39.0168,0.2587,0.3226,0.7144,-64.7382
16:30:32:802,-1.0546,1.7421,6.1196,39.0993,0.3119,-0.3513,0.6654,-64.7382
16:30:32:823,-0.9611,2.0169,6.2884,39.3116,0.132,-0.8443,0.5483,-64.8292
16:30:32:842,-0.8044,2.1263,7.3457,39.3353,-0.2065,-0.9018,0.5195,-64.9389
16:30:32:864,-0.2442,2.1603,8.6634,39.2562,-0.5589,-0.543,0.3897,-65.0637
16:30:32:883,0.1064,1.9297,10.4622,39.204,-0.7208,-0.0138,0.1491,-65.1957
16:30:32:903,0.001,1.7103,11.8364,38.8293,-0.4131,0.3077,-0.1182,-65.3233
16:30:32:923,-0.54,1.6567,11.7319,38.5197,-0.0298,0.3098,-0.296,-65.4383
16:30:32:943,-0.8959,1.6405,11.3869,38.2748,0.1288,0.0926,-0.3066,-65.5392
16:30:32:964,-0.8135,1.7367,11.3658,37.9585,0.0852,0.0341,-0.1852,-65.5392
16:30:32:982,-0.3707,2.1065,11.5455,37.6334,-0.0341,0.1906,-0.0692,-65.5392
16:30:33:003,0.0667,2.4494,12.1194,37.5471,-0.1182,0.2779,-0.0894,-65.5392
16:30:33:023,0.3401,2.7129,12.4597,37.3853,-0.0777,0.2864,-0.2268,-65.5392
16:30:33:043,0.6452,2.1716,12.7075,37.5188,-0.0841,0.1299,-0.4322,-65.5392
16:30:33:063,0.6915,0.6142,13.1998,37.5762,0.0649,-0.1693,-0.5749,-65.5392
16:30:33:083,0.558,-0.7123,12.9236,37.568,0.363,-0.2906,-0.6675,-65.5392
16:30:33:103,-0.0025,-1.522,11.8715,37.8225,0.7101,-0.2161,-0.6899,-65.5392
16:30:33:122,-0.4152,-1.4948,10.4554,37.9416,0.8219,-0.2938,-0.6005,-65.5392
16:30:33:142,-0.2198,-1.1911,9.2439,38.3093,0.6239,-0.4663,-0.5185,-65.5392
16:30:33:164,-0.072,-0.3304,8.4285,38.6193,0.2832,-0.4046,-0.4823,-65.5392
16:30:33:183,-0.0596,0.6072,7.792,38.9013,-0.016,-0.1278,-0.4844,-65.5392
16:30:33:203,-0.1281,1.1961,7.1142,38.8974,-0.1661,0.247,-0.5845,-65.4424
16:30:33:223,-0.3541,1.4048,6.3531,38.7702,-0.2555,0.4695,-0.7314,-65.3242
16:30:33:246,-0.7856,1.3752,6.1144,38.5732,-0.3247,0.4748,-0.824,-65.1864
16:30:33:265,-1.277,1.1144,6.1652,38.3191,-0.2321,0.3407,-0.7602,-65.0258
16:30:33:284,-1.8581,1.0488,6.4199,38.0424,-0.0543,0.2598,-0.511,-64.8453
16:30:33:303,-2.0993,1.3268,6.6587,37.8543,0.1224,0.0798,-0.1182,-64.6557
16:30:33:323,-1.3928,1.7214,6.9241,37.8973,0.0532,-0.2747,0.1427,-64.4733
16:30:33:345,-0.3832,1.7078,7.7118,37.8344,-0.181,-0.3513,0.1214,-64.3041
16:30:33:364,0.0729,1.4009,9.0616,38.1466,-0.3833,-0.2236,-0.0511,-64.1443
16:30:33:383,-0.1862,1.1843,10.4305,38.3775,-0.3652,-0.0245,-0.1533,-63.9852
16:30:33:403,-0.9071,1.5011,11.3467,38.7788,-0.198,0.1778,-0.05,-63.8256
16:30:33:423,-1.2035,1.7992,11.9567,38.4298,0.0575,0.2651,0.2044,-63.6693
16:30:33:444,-0.8498,2.0264,12.1967,38.4901,0.4567,0.1661,0.3748,-63.524
16:30:33:464,-0.3013,2.3868,11.5872,38.3549,0.79,-0.0873,0.3386,-63.3953
16:30:33:483,-0.1558,2.9661,10.8224,38.2367,0.7144,-0.2491,0.1522,-63.2776
16:30:33:503,-0.514,3.0443,11.083,38.1969,0.4141,-0.2332,0.0213,-63.1669
16:30:33:523,-0.8127,2.7845,11.8992,38.5742,0.3013,-0.0256,0.0383,-63.058
16:30:33:544,-1.1445,2.7241,12.095,38.4267,0.5015,0.2619,0.1235,-62.9493
16:30:33:563,-1.3229,2.4799,11.4277,38.414,0.7261,0.1682,0.148,-62.8456
16:30:33:583,-1.27,1.4987,10.9211,38.3097,0.6345,-0.4354,0.0426,-62.7525
16:30:33:604,-1.2989,0.6426,11.0094,38.0943,0.5536,-0.7027,-0.0021,-62.7525
16:30:33:623,-1.2725,0.1099,10.4475,38.1795,0.5664,-0.3652,0.0011,-62.6589
16:30:33:643,-1.4974,0.1918,9.37,38.3015,0.5206,0.0532,0.016,-62.563
16:30:33:664,-1.717,0.5928,8.2277,38.4779,0.3449,0.1874,0.0543,-62.4696
16:30:33:683,-1.7294,0.9375,7.291,38.5795,0.0075,0.1959,0.0543,-62.4696
16:30:33:703,-1.8429,1.2977,7.0122,39.0379,-0.4514,0.3024,0.0437,-62.4696
16:30:33:726,-2.067,1.447,7.3511,39.0419,-0.7783,0.478,0.0564,-62.4696
16:30:33:743,-2.1496,1.1425,7.7109,39.0695,-0.8113,0.5589,0.1522,-62.4696
16:30:33:764,-2.1006,0.9794,7.6725,39.2783,-0.593,0.4546,0.3141,-62.4696
16:30:33:783,-1.8308,0.9307,7.2566,39.6285,-0.3939,0.2129,0.4695,-62.4696
16:30:33:803,-1.6147,1.1547,7.0085,39.6408,-0.2726,0.0351,0.625,-62.4696
16:30:33:824,-1.3119,1.387,6.9108,39.8512,-0.1948,-0.0415,0.725,-62.4696
16:30:33:843,-0.9644,1.4239,6.9257,40.0216,-0.1544,-0.0181,0.7836,-62.4696
16:30:33:863,-0.3103,1.564,7.2566,39.9094,-0.2183,-0.066,0.7069,-62.4696
16:30:33:883,-0.1423,2.1779,7.9302,39.9636,-0.3599,-0.1331,0.4365,-62.4696
16:30:33:903,-0.4075,2.4118,8.863,39.9019,-0.5121,-0.0224,0.1884,-62.5636
16:30:33:923,-0.7054,2.1698,9.7996,40.1557,-0.4972,0.2619,0.0564,-62.6595
16:30:33:944,-1.03,2.0463,10.217,39.7807,-0.3769,0.4035,0.05,-62.7541
16:30:33:964,-1.0488,1.9413,10.6235,39.7119,-0.3386,0.2204,0.115,-62.8508
16:30:33:983,-0.8031,1.6978,11.3567,39.7669,-0.379,-0.1288,0.1767,-62.9534
16:30:34:005,-0.6863,2.2146,12.1349,39.5546,-0.395,-0.1522,0.2108,-63.0616
16:30:34:023,-0.7143,2.5821,12.8669,39.6611,-0.3503,0.0937,0.197,-63.1736
16:30:34:043,-0.5829,2.5344,13.2129,39.7243,-0.1395,0.2246,0.164,-63.2873
16:30:34:063,-0.3826,2.1847,12.8698,39.6037,0.0639,-0.0415,0.0735,-63.4029
16:30:34:083,0.2428,1.0327,12.7534,39.4144,0.099,-0.4983,-0.0245,-63.5193
16:30:34:104,0.6021,-0.1619,12.6225,39.1643,0.2832,-0.5664,-0.0937,-63.6291
16:30:34:123,0.641,-0.671,11.4842,39.0301,0.6452,-0.2789,-0.1501,-63.7258
16:30:34:143,0.4429,-0.4304,9.74,38.7706,0.7846,-0.1469,-0.2438,-63.7258
16:30:34:163,0.4281,-0.341,8.4099,38.9546,0.4514,-0.2438,-0.3024,-63.7258
16:30:34:183,0.6124,-0.0618,8.2787,39.2978,-0.1118,-0.2545,-0.3673,-63.7258
16:30:34:203,0.7404,0.4436,8.8673,39.5398,-0.4184,0.0532,-0.4791,-63.7258
16:30:34:223,0.653,0.6489,8.9545,39.8714,-0.4333,0.4173,-0.6516,-63.7258
16:30:34:243,0.2,0.8833,8.5087,40.1587,-0.2992,0.5707,-0.8358,-63.7258
16:30:34:263,-0.3409,0.8872,7.8214,40.1332,-0.0862,0.5504,-0.9412,-63.7258
16:30:34:283,-0.852,0.9127,6.9919,40.2112,0.1118,0.3535,-0.9231,-63.7258
16:30:34:303,-1.1599,1.0836,6.3309,40.5796,0.2364,0.0798,-0.8049,-63.7258
16:30:34:323,-1.2757,1.2201,5.8412,40.7011,0.2438,-0.1618,-0.6665,-63.6148
16:30:34:343,-1.2539,1.3735,5.5767,41.0656,0.0554,-0.2002,-0.5153,-63.4852
16:30:34:364,-1.0261,1.4101,6.0891,41.3255,-0.2896,-0.1086,-0.4376,-63.3466
16:30:34:383,-0.9492,1.3148,7.2069,41.207,-0.5675,-0.0586,-0.4653,-63.2004
16:30:34:403,-1.4365,1.5179,8.6136,40.8705,-0.6569,-0.1001,-0.4014,-63.0466
16:30:34:423,-1.5146,1.5117,9.7023,40.5743,-0.511,-0.0862,-0.2119,-62.8854
16:30:34:443,-1.3554,1.6195,10.1558,40.4839,-0.3354,-0.0692,-0.083,-62.7252
16:30:34:463,-1.231,1.7737,10.6236,39.9243,-0.2545,-0.1501,-0.0319,-62.5691
16:30:34:485,-1.4149,2.0672,11.1685,39.9959,-0.1629,-0.2268,0.0011,-62.4178
16:30:34:503,-1.5968,2.0678,11.5847,40.0131,-0.0447,-0.2789,0.0692,-62.2716
16:30:34:523,-1.6304,1.8971,11.7843,39.6545,-0.0309,-0.3599,0.1597,-62.1337
16:30:34:542,-1.516,1.6445,12.4527,39.9658,-0.0862,-0.379,0.2747,-62.0072
16:30:34:563,-1.4147,1.8816,13.0066,39.8028,-0.017,-0.1693,0.3854,-61.8934
16:30:34:584,-1.1918,2.1252,12.8221,39.7961,0.0958,-0.0479,0.3705,-61.7963
16:30:34:603,-0.7252,1.2086,12.6207,40.0019,0.0298,-0.3811,0.1927,-61.7963
16:30:34:623,-0.9319,0.3766,12.8368,39.8957,0.131,-0.4301,0.0703,-61.7963
16:30:34:643,-1.5342,0.1873,11.9482,40.114,0.5174,-0.1533,0.0926,-61.7963
16:30:34:663,-1.9093,0.2804,10.3731,40.0769,0.6345,-0.2193,0.1384,-61.7963
16:30:34:685,-1.8228,-0.109,9.4982,39.778,0.3268,-0.5291,0.1597,-61.7963
16:30:34:703,-1.5332,-0.4166,9.8539,39.4784,0.0106,-0.5653,0.164,-61.7963
16:30:34:723,-1.1725,-0.7437,10.1816,39.3489,-0.0117,-0.2906,0.1533,-61.7963
16:30:34:743,-0.7425,-1.1373,9.4812,39.1823,0.0586,0.0649,0.1608,-61.7963
16:30:34:764,-0.5355,-1.0605,8.4889,38.9569,0.0649,0.4312,0.1554,-61.7963
16:30:34:784,-0.6703,-0.6379,7.5712,38.952,0.0788,0.6707,0.1682,-61.7963
16:30:34:803,-0.7468,-0.1971,6.7383,38.7463,0.1405,0.6643,0.2161,-61.7963
16:30:34:823,-0.6116,0.0092,5.9533,38.417,0.1831,0.5164,0.2427,-61.7963
16:30:34:843,-0.4047,0.2848,5.4561,38.3424,0.1118,0.3769,0.214,-61.7963
16:30:34:866,-0.2604,0.9255,5.4022,38.5335,-0.1437,0.1629,0.1022,-61.7963
16:30:34:883,-0.2571,1.5398,6.0766,38.6637,-0.5781,0.0149,-0.1097,-61.7963
16:30:34:903,-0.3762,1.1089,7.4943,39.0951,-1.0082,0.1746,-0.2885,-61.7963
16:30:34:923,-0.6934,0.7124,9.1772,39.7778,-1.1701,0.6792,-0.4205,-61.7963
16:30:34:943,-1.3276,0.5575,10.4342,40.0293,-0.9497,1.0572,-0.4951,-61.7963
16:30:34:966,-2.0661,0.421,10.9695,40.6222,-0.4653,1.0338,-0.3599,-61.7963
16:30:34:983,-2.3837,0.5052,10.8856,40.3323,0.0192,0.4823,-0.1278,-61.7963
16:30:35:003,-1.9522,0.5858,10.6099,40.8025,0.1203,-0.2161,0.1182,-61.7963
16:30:35:022,-1.5697,0.7891,11.3478,40.7013,-0.082,-0.3215,0.346,-61.7963
16:30:35:042,-1.1679,1.2235,12.5172,40.5953,-0.2119,-0.0884,0.5494,-61.7963
16:30:35:065,-0.6968,1.8596,13.3505,40.7117,-0.0628,-0.0437,0.6186,-61.7963
16:30:35:083,-0.1547,2.2373,13.3409,40.7364,0.1852,-0.2576,0.4961,-61.7963
16:30:35:103,0.8762,1.0082,13.1177,40.4516,0.1874,-0.7538,0.1533,-61.7963
16:30:35:123,1.0182,-0.5145,13.4328,40.1506,0.1852,-0.9305,-0.2033,-61.7963
16:30:35:143,0.5241,-1.3153,13.0927,40.3663,0.6367,-0.4855,-0.3407,-61.7963
16:30:35:164,-0.1287,-1.0873,11.2909,40.4074,0.939,-0.1757,-0.3098,-61.7963
16:30:35:183,-0.217,-0.6098,9.8054,40.1476,0.8155,-0.2459,-0.2438,-61.7963
16:30:35:203,0.2779,-0.0673,9.2407,40.555,0.411,-0.4195,-0.2694,-61.7963
16:30:35:223,0.7933,0.1969,9.1993,40.5081,0.1043,-0.2161,-0.4663,-61.7963
16:30:35:247,0.7201,0.2086,8.7003,40.404,0.0351,0.2715,-0.7644,-61.7963
16:30:35:264,-0.1672,0.3096,7.7733,40.5802,0.1129,0.6707,-0.9571,-61.7011
16:30:35:283,-1.1209,0.3787,6.7744,40.7878,0.2385,0.7112,-0.9348,-61.5715
16:30:35:303,-1.7761,0.6413,6.0894,41.0538,0.3364,0.445,-0.6931,-61.4154
16:30:35:323,-1.7667,0.8328,5.6166,41.342,0.3907,0.0256,-0.3609,-61.2456
16:30:35:346,-1.2783,1.0298,5.428,41.3681,0.3577,-0.2832,-0.1022,-61.072
16:30:35:364,-0.8888,1.2256,5.5661,41.644,0.2268,-0.477,-0.0043,-60.9024
16:30:35:383,-0.6289,1.5777,6.0741,41.7696,-0.082,-0.5749,0.0437,-60.7395
16:30:35:403,-0.3786,1.5847,7.2027,41.9668,-0.4546,-0.5451,0.0767,-60.5876
16:30:35:423,-0.1055,1.5725,8.7797,42.1206,-0.5877,-0.4418,0.0224,-60.4449
16:30:35:445,-0.1401,1.5398,9.9562,42.3472,-0.494,-0.2715,-0.0873,-60.3061
16:30:35:464,-0.4376,1.6132,10.7193,42.3065,-0.3268,-0.1256,-0.1299,-60.1669
16:30:35:484,-0.9446,1.4962,11.1287,42.362,-0.1363,0.0149,-0.0809,-60.0261
16:30:35:503,-1.4931,1.8964,11.2301,42.4101,0.083,0.1288,0.1235,-59.8861
16:30:35:523,-1.5727,2.273,10.9571,42.5386,0.2065,0.0234,0.3599,-59.7564
16:30:35:543,-1.2015,2.4031,10.9151,42.1001,0.1565,-0.1959,0.5334,-59.6464
16:30:35:563,-0.6973,2.3861,11.4617,42.1734,0.0287,-0.3354,0.5824,-59.6464
16:30:35:583,-0.3814,2.1864,11.8631,42.0142,0.0181,-0.1448,0.5536,-59.6464
16:30:35:603,-0.5277,2.2614,11.8413,41.8638,0.0809,0.0756,0.4642,-59.6464
16:30:35:624,-0.4626,1.598,11.6686,41.9302,-0.0075,-0.2864,0.2566,-59.6464
16:30:35:644,-0.4552,0.295,12.2845,41.9394,-0.1789,-0.8996,0.0287,-59.6464
16:30:35:664,-0.6798,-0.5525,13.0056,42.0341,0.0085,-1.0125,-0.0596,-59.6464
16:30:35:683,-0.9208,-0.7322,12.3593,42.1195,0.3886,-0.6069,-0.0053,-59.6464
16:30:35:703,-0.9276,-0.4643,11.0062,42.0739,0.4386,-0.3343,0.0106,-59.6464
16:30:35:726,-0.7289,-0.2457,10.2359,42.436,0.1757,-0.2055,-0.0266,-59.6464
16:30:35:743,-0.422,-0.1221,9.8508,42.6716,-0.0586,0.082,-0.1033,-59.6464
16:30:35:764,-0.406,0.0547,9.1739,42.6534,-0.0969,0.5845,-0.1746,-59.6464
16:30:35:783,-0.6468,0.3319,8.2642,42.7322,-0.05,0.9284,-0.1821,-59.6464
16:30:35:803,-0.8811,0.433,7.4228,42.6885,0.0735,0.8358,-0.1597,-59.6464
16:30:35:825,-1.1248,0.6338,6.5962,42.7901,0.2736,0.5898,-0.0341,-59.6464
16:30:35:843,-1.2873,0.9491,5.807,42.7943,0.4844,0.3609,0.1544,-59.6464
16:30:35:863,-1.2451,1.1742,5.1659,42.8678,0.5653,0.1714,0.3215,-59.6464
16:30:35:883,-1.0413,1.3431,4.9957,43.2828,0.3758,-0.116,0.362,-59.6464
16:30:35:903,-0.8831,1.6472,5.7102,42.9478,0.0117,-0.4738,0.28,-59.6464
16:30:35:923,-0.7351,1.4691,6.8954,42.8936,-0.3279,-0.5813,0.1682,-59.6464
16:30:35:943,-0.6375,1.0146,8.3424,42.7628,-0.5621,-0.3258,0.0969,-59.6464
16:30:35:963,-0.7241,0.7676,9.8783,42.5994,-0.5728,0.1214,0.082,-59.6464
16:30:35:983,-0.6663,0.8366,10.6956,42.6276,-0.4014,0.4908,0.0383,-59.6464
16:30:36:003,-0.8544,1.2073,10.9099,42.763,-0.329,0.5579,-0.083,-59.6464
16:30:36:024,-1.123,1.2813,11.3092,43.4249,-0.4727,0.4972,-0.131,-59.6464
16:30:36:043,-1.414,1.4382,12.0135,43.4814,-0.5408,0.5675,-0.0181,-59.6464
16:30:36:064,-1.5112,1.7788,12.6062,43.6522,-0.4557,0.5419,0.1565,-59.6464
16:30:36:083,-1.3547,2.2029,12.8466,43.8111,-0.2821,0.3875,0.2811,-59.6464
16:30:36:103,-0.682,2.1774,12.8232,44.0064,-0.2715,-0.0415,0.2683,-59.6464
16:30:36:123,0.4499,0.6638,13.5285,43.6413,-0.5132,-0.5494,0.1139,-59.6464
16:30:36:143,0.7666,-0.8673,14.2122,43.8043,-0.1448,-0.4205,0.0266,-59.6464
16:30:36:164,0.5031,-1.2043,12.842,43.9035,0.4855,0.1033,0.0841,-59.6464
16:30:36:183,0.1988,-0.6555,11.015,43.7304,0.5387,-0.0564,0.1086,-59.6464
16:30:36:205,0.6761,-0.6818,10.3044,43.411,0.1576,-0.3567,0.116,-59.6464
16:30:36:223,1.0705,-0.335,10.3818,43.374,-0.0256,-0.2087,-0.016,-59.6464
16:30:36:243,1.0151,0.1697,9.8053,42.9574,0.0894,0.2545,-0.2385,-59.6464
16:30:36:263,0.5724,0.5411,8.4429,42.6107,0.198,0.5334,-0.4578,-59.6464
16:30:36:283,0.0864,0.7907,7.1369,42.276,0.2236,0.5142,-0.6186,-59.6464
16:30:36:305,-0.4069,1.0053,6.3331,42.697,0.2257,0.2555,-0.7091,-59.6464
16:30:36:324,-0.8595,1.0654,5.8366,42.7497,0.2204,-0.0745,-0.6856,-59.6464
16:30:36:344,-1.0436,0.9182,5.5847,43.2331,0.2193,-0.2332,-0.5249,-59.6464
16:30:36:364,-0.9221,0.8584,5.3558,43.5945,0.1341,-0.2779,-0.363,-59.6464
16:30:36:382,-0.8889,1.0165,5.5609,43.5874,-0.0798,-0.3226,-0.1991,-59.6464
16:30:36:403,-0.6622,1.1645,6.3674,43.4341,-0.2672,-0.3897,-0.0309,-59.554
16:30:36:432,-0.301,1.3014,7.5008,43.3806,-0.2981,-0.4748,0.0298,-59.554
16:30:36:443,0.052,1.4669,8.3845,43.3202,-0.3545,-0.5366,-0.0043,-59.554
16:30:36:463,-0.1433,1.7987,9.3932,43.0491,-0.4237,-0.4599,-0.0692,-59.554
16:30:36:485,-0.2875,1.6895,10.3824,42.5546,-0.4216,-0.3247,-0.0522,-59.554
16:30:36:503,-0.504,1.472,11.2465,42.2198,-0.3758,-0.1618,0.0106,-59.4639
16:30:36:523,-0.8106,1.4516,12.1015,42.1416,-0.2353,-0.0479,0.1522,-59.4639
16:30:36:543,-0.6491,1.3004,12.4279,41.8841,-0.1065,-0.0351,0.2811,-59.4639
16:30:36:563,-0.123,0.8042,12.8662,41.5531,-0.1597,-0.1043,0.3173,-59.4639
16:30:36:583,-0.0271,0.4192,13.5646,41.8058,-0.1416,-0.0468,0.3205,-59.4639
16:30:36:603,-0.6265,0.7585,13.8482,41.7823,0.2938,0.1501,0.4514,-59.4639
16:30:36:623,-0.9461,1.4592,12.4958,41.3403,0.9358,0.1895,0.6792,-59.4639
16:30:36:643,-0.4051,1.2503,10.5427,41.3242,1.0253,-0.3024,0.625,-59.4639
16:30:36:663,-0.1612,0.7214,9.7944,40.9225,0.6665,-0.7048,0.3567,-59.4639
16:30:36:685,-0.3449,0.368,9.9643,40.4403,0.3726,-0.6335,0.1661,-59.4639
16:30:36:703,-0.5136,0.092,9.9572,40.051,0.1746,-0.3811,0.033,-59.4639
16:30:36:723,-0.4232,-0.3093,9.9248,39.8211,-0.1565,-0.2853,-0.116,-59.4639
16:30:36:743,-0.3683,-0.8541,10.3455,39.8302,-0.4961,-0.2374,-0.2449,-59.4639
16:30:36:764,-0.4549,-0.9484,10.6533,39.8162,-0.6015,-0.0043,-0.2768,-59.4639
16:30:36:784,-0.6506,-0.6728,10.299,39.6888,-0.4397,0.4748,-0.2119,-59.4639
16:30:36:803,-0.7729,-0.4116,9.2627,39.7999,-0.1182,0.7815,-0.1182,-59.4639
16:30:36:823,-0.8932,-0.1993,7.8173,39.7261,0.1714,0.7186,0.0085,-59.4639
16:30:36:843,-0.9515,0.0518,6.6201,39.7154,0.3684,0.4897,0.2023,-59.4639
16:30:36:866,-0.8414,0.3573,5.7679,39.8342,0.4525,0.2033,0.3822,-59.4639
16:30:36:883,-0.6567,0.7502,5.4714,39.8753,0.4173,0.0075,0.4802,-59.4639
16:30:36:903,-0.3958,1.0129,5.5308,40.0524,0.2832,-0.1384,0.4855,-59.4639
16:30:36:923,-0.0121,1.3834,6.2294,39.9496,-0.0586,-0.3545,0.3652,-59.4639
16:30:36:943,0.0533,1.5078,7.6414,39.9674,-0.3918,-0.4663,0.1448,-59.4639
16:30:36:966,-0.143,1.0011,9.3852,39.9831,-0.4514,-0.379,0.0032,-59.4639
16:30:36:983,-0.3048,0.4165,10.5787,39.9276,-0.2768,-0.1959,-0.0149,-59.4639
16:30:37:003,-0.3739,0.6115,11.2196,39.9756,-0.0841,0.0596,0.0202,-59.4639
16:30:37:023,-0.3695,0.9706,11.4744,39.8626,-0.0234,0.2236,0.0032,-59.4639
16:30:37:043,-0.3578,1.4108,11.7784,39.5803,-0.049,0.2289,-0.0192,-59.4639
16:30:37:065,-0.3569,1.9019,12.0575,39.578,-0.1001,0.2214,-0.033,-59.4639
16:30:37:084,-0.4272,2.039,12.5586,39.2271,-0.0564,0.2385,-0.0213,-59.4639
16:30:37:104,-0.702,2.459,12.7036,39.2856,0.148,0.2342,0.0671,-59.4639
16:30:37:123,-0.4747,2.8162,12.1644,39.0525,0.1405,0.1821,0.1852,-59.4639
16:30:37:143,0.7752,1.458,12.514,38.8666,-0.2204,-0.1192,0.1384,-59.4639
16:30:37:165,1.2587,0.1975,13.7159,38.8383,-0.0043,-0.3407,-0.0447,-59.4639
16:30:37:183,0.971,-0.3905,12.752,38.8996,0.6345,-0.263,-0.1789,-59.4639
16:30:37:203,0.5903,-0.332,10.7892,38.9674,0.6697,-0.2747,-0.197,-59.4639
16:30:37:223,0.8515,-0.3297,10.0577,38.9102,0.1661,-0.3013,-0.1501,-59.4639
16:30:37:243,1.3202,-0.0354,10.3091,38.8761,-0.1799,-0.0777,-0.2097,-59.4639
16:30:37:264,1.4589,0.3177,9.9,38.7339,-0.0937,0.2992,-0.444,-59.4639
16:30:37:283,0.9648,0.6589,8.5932,38.8266,0.1852,0.5589,-0.6782,-59.4639
16:30:37:303,0.3132,0.8578,6.9911,38.9896,0.444,0.5217,-0.7964,-59.4639
16:30:37:323,-0.0663,0.9575,5.6076,38.9456,0.5355,0.2459,-0.8134,-59.4639
16:30:37:346,-0.3701,1.1018,4.9866,38.8753,0.5057,-0.1267,-0.7729,-59.4639
16:30:37:364,-0.4067,1.0473,4.8417,38.9717,0.4312,-0.3652,-0.6888,-59.4639
16:30:37:383,-0.2674,0.7027,4.8046,39.0727,0.3077,-0.3822,-0.5919,-59.3534
16:30:37:403,-0.3967,1.0093,5.2228,38.9118,0.017,-0.3418,-0.4482,-59.2302
16:30:37:423,0.0429,1.3738,6.3403,38.9399,-0.263,-0.3716,-0.2981,-59.0994
16:30:37:445,0.6703,1.5138,7.7005,39.0794,-0.4535,-0.4535,-0.3535,-58.9643
16:30:37:463,0.2993,1.7628,8.9925,39.0725,-0.5057,-0.3226,-0.428,-58.8196
16:30:37:483,-0.3743,1.9491,10.0132,38.8259,-0.4716,-0.0969,-0.3407,-58.663
16:30:37:503,-1.0006,2.2803,10.9169,38.7985,-0.4227,0.1043,-0.1118,-58.4997
16:30:37:523,-1.1866,2.2701,12.0439,38.5438,-0.2481,0.1778,0.131,-58.3384
16:30:37:544,-1.1834,2.4331,12.6743,37.9437,0.0373,0.2204,0.2885,-58.1862
16:30:37:564,-1.0233,2.5049,12.829,37.9457,0.1629,0.23,0.3247,-58.0482
16:30:37:583,-0.8551,2.2628,13.1959,37.7717,0.0415,0.263,0.3002,-57.926
16:30:37:603,-0.9813,1.9511,14.1128,37.9945,0.0085,0.3481,0.3109,-57.8174
16:30:37:624,-1.3835,2.0123,14.5392,38.088,0.3992,0.4983,0.4291,-57.7222
16:30:37:644,-1.4256,2.0606,13.3528,38.2595,0.9571,0.4067,0.5717,-57.7222
16:30:37:664,-0.9178,1.6693,11.6247,38.2502,1.1264,-0.1831,0.5121,-57.7222
16:30:37:683,-0.7789,1.1381,10.8639,38.1965,0.8996,-0.6207,0.3375,-57.7222
16:30:37:703,-0.7632,0.9522,10.6484,38.3741,0.7463,-0.5834,0.23,-57.7222
16:30:37:726,-0.5537,0.8319,9.8699,38.017,0.6132,-0.411,0.0979,-57.7222
16:30:37:744,-0.333,0.7791,8.8752,38.1898,0.3311,-0.2683,-0.0607,-57.7222
16:30:37:763,-0.2229,0.7845,8.1898,38.1951,-0.0617,-0.2406,-0.2257,-57.7222
16:30:37:783,-0.3082,0.8403,7.7766,38.589,-0.4333,-0.1331,-0.3492,-57.7222
16:30:37:803,-0.5331,0.7943,7.6947,38.5815,-0.5898,0.1629,-0.3662,-57.7222
16:30:37:825,-0.783,0.5263,7.3451,38.6762,-0.4589,0.3769,-0.3002,-57.7222
16:30:37:844,-0.9239,0.3823,6.9243,38.7456,-0.2172,0.3758,-0.1065,-57.7222
16:30:37:864,-1.0521,0.5221,6.4336,38.6676,0.0671,0.2332,0.1906,-57.7222
16:30:37:883,-0.8946,0.6966,5.9564,38.7795,0.3449,0.0926,0.4599,-57.7222
16:30:37:903,-0.7345,1.0302,5.7356,38.8296,0.4983,-0.1746,0.56,-57.7222
16:30:37:924,-0.4482,1.3996,5.8581,38.7405,0.3769,-0.5845,0.527,-57.7222
16:30:37:943,0.0323,1.489,6.6242,38.8598,0.1448,-0.8986,0.4014,-57.7222
16:30:37:964,0.7151,1.3037,7.6453,39.049,-0.0852,-0.9763,0.2417,-57.7222
16:30:37:983,1.1563,1.0786,8.783,38.913,-0.2545,-0.6271,0.1097,-57.7222
16:30:38:004,1.1136,1.1876,9.7099,38.7113,-0.3237,-0.0064,0.0117,-57.7222
16:30:38:024,0.6422,1.9698,10.41,38.672,-0.2779,0.4535,-0.0862,-57.7222
16:30:38:043,0.1971,2.4472,10.743,38.4464,-0.2949,0.6292,-0.1235,-57.7222
16:30:38:063,-0.0258,2.3577,11.4021,38.5486,-0.3183,0.724,-0.0937,-57.7222
16:30:38:083,-0.3969,2.6439,12.2074,38.7081,-0.2694,0.7921,-0.0639,-57.7222
16:30:38:106,-1.0072,3.4231,12.7886,38.6977,-0.1682,0.8113,-0.05,-57.7222
16:30:38:123,-1.0738,3.8977,12.803,38.8415,-0.1395,0.6984,0.0192,-57.7222
16:30:38:143,0.1536,2.5899,13.3455,38.9363,-0.4344,0.0106,-0.0628,-57.7222
16:30:38:164,0.6723,1.1453,14.4875,38.5317,-0.2992,-0.3694,-0.1927,-57.7222
16:30:38:183,0.771,-0.1344,13.7173,38.531,0.2193,-0.2172,-0.2246,-57.7222
16:30:38:204,0.6005,-0.247,12.1196,38.4595,0.4429,-0.0053,-0.1246,-57.7222
16:30:38:223,0.8525,0.0331,10.8851,38.5705,0.3609,-0.0415,0.0479,-57.7222
16:30:38:243,1.5404,0.4001,9.8002,38.7553,0.2033,0,0.0841,-57.7222
16:30:38:263,1.9368,0.7605,8.7309,39.0725,0.0969,0.2129,-0.1278,-57.7222
16:30:38:283,1.5879,1.2033,7.8155,39.3733,0.1235,0.3726,-0.4024,-57.7222
16:30:38:303,1.0977,1.4693,6.8664,39.4755,0.3247,0.329,-0.5781,-57.7222
16:30:38:323,0.8245,1.3821,5.757,39.5769,0.4993,0.1288,-0.6441,-57.7222
16:30:38:343,0.7084,1.3868,4.8321,39.8476,0.5579,-0.1001,-0.6654,-57.7222
16:30:38:363,0.5666,1.5008,4.373,39.5998,0.5813,-0.412,-0.6867,-57.611
16:30:38:383,0.525,1.805,4.0027,39.8476,0.4844,-0.8549,-0.675,-57.4826
16:30:38:405,0.7421,2.2692,4.1185,39.8697,0.1778,-1.285,-0.708,-57.3397
16:30:38:455,0.8996,2.6952,4.86,40.0079,-0.1863,-1.5193,-0.8304,-57.1735
16:30:38:457,0.922,2.8499,6.112,40.045,-0.6931,-1.301,-0.8549,-56.9891
16:30:38:463,1.1324,2.4657,8.0942,39.7923,-1.0423,-0.7889,-0.8208,-56.777
16:30:38:483,1.0012,2.5093,10.2557,39.6539,-1.3053,-0.2587,-0.8102,-56.5377
16:30:38:503,0.1661,2.5878,12.432,39.5232,-1.1339,0.1618,-0.8006,-56.2703
16:30:38:523,-0.6218,2.5683,13.4355,39.542,-0.7421,0.164,-0.5951,-55.9811
16:30:38:543,-0.7012,2.2939,13.9815,39.3636,-0.5909,-0.0256,-0.3077,-55.6831
16:30:38:563,-0.4128,1.6871,15.0632,39.2421,-0.4716,-0.2385,-0.066,-55.3866
16:30:38:584,-0.394,1.4228,15.8175,39.3836,-0.0862,0.0085,0.2002,-55.0943
16:30:38:603,-0.7282,1.8982,15.0487,39.4828,0.5121,0.5387,0.4259,-54.8115
16:30:38:623,-0.8267,1.9801,13.4586,39.4492,0.856,0.3801,0.477,-54.5528
16:30:38:643,-0.6254,1.1854,12.147,39.3615,0.8453,-0.1278,0.3652,-54.3228
16:30:38:663,-0.7451,0.7444,11.3453,39.6822,0.8326,-0.2225,0.2736,-54.1129
16:30:38:684,-0.9829,0.6724,10.3708,39.7243,0.7314,-0.0756,0.2108,-53.9215
16:30:38:704,-0.999,0.5368,9.5117,39.4557,0.412,0.0468,0.1512,-53.7411
16:30:38:723,-0.8801,0.3054,9.2822,39.9674,0.0351,0.1224,0.1214,-53.5732
16:30:38:743,-0.5632,0.0976,9.3057,40.4078,-0.197,0.0447,0.1022,-53.4167
16:30:38:763,-0.5166,0.3287,8.8487,40.5571,-0.1576,0.1714,0.0862,-53.2666
16:30:38:784,-0.6042,0.5134,7.9375,40.9772,0.0575,0.4706,0.1246,-53.12
16:30:38:803,-0.6065,0.5132,6.6407,41.126,0.2885,0.6792,0.197,-52.9793
16:30:38:823,-0.7417,0.6575,5.5055,41.2444,0.3961,0.6569,0.296,-52.853
16:30:38:843,-0.9241,1.0841,4.8911,41.1922,0.4078,0.5462,0.4056,-52.7405
16:30:38:867,-1.0069,1.4733,4.6355,41.1619,0.3066,0.3332,0.5164,-52.6495
16:30:38:884,-0.735,1.607,5.2514,41.455,0.1054,-0.0564,0.6069,-52.6495
16:30:38:903,-0.0253,1.6045,6.2181,41.3451,-0.0586,-0.4567,0.5696,-52.6495
16:30:38:923,0.3813,1.9998,7.1964,41.3726,-0.2374,-0.5015,0.3322,-52.6495
16:30:38:943,0.3008,1.8846,8.5382,41.9019,-0.3684,-0.1235,0.082,-52.6495
16:30:38:966,0.1267,1.5576,9.5819,41.9311,-0.3843,0.2843,-0.0713,-52.6495
16:30:38:983,-0.0524,1.6942,10.1942,42.076,-0.4642,0.4653,-0.1799,-52.6495
16:30:39:003,-0.5062,2.0261,11.0205,42.2274,-0.725,0.5164,-0.214,-52.6495
16:30:39:023,-0.7883,2.2441,12.2076,42.1728,-0.8304,0.675,-0.0319,-52.6495
16:30:39:043,-0.7093,2.5352,13.1495,42.3833,-0.7123,0.7037,0.1373,-52.6495
16:30:39:065,-0.3347,2.9514,14.0401,42.5989,-0.5366,0.4514,0.1852,-52.6495
16:30:39:083,-0.2402,3.5899,14.6309,42.6507,-0.2417,-0.05,0.1799,-52.6495
16:30:39:103,1.0442,2.3931,14.7948,42.7501,-0.1533,-0.6792,0.1874,-52.6495
16:30:39:123,2.273,0.0164,14.642,42.5884,-0.0266,-0.8187,-0.0096,-52.6495
16:30:39:143,1.6564,-0.6181,13.2822,42.9327,0.5015,-0.1214,-0.2183,-52.6495
16:30:39:164,0.3416,0.2053,10.9619,43.3303,0.8656,0.3162,-0.2481,-52.6495
16:30:39:183,-0.3315,0.8606,8.8838,43.7849,0.6729,0.2332,-0.1778,-52.6495
16:30:39:203,-0.2475,1.1694,7.9668,44.3318,0.1693,-0.2246,-0.1618,-52.6495
16:30:39:223,0.0239,1.1928,8.0025,44.8479,-0.2395,-0.4823,-0.2534,-52.6495
16:30:39:243,0.0129,1.0699,7.8415,44.9425,-0.3162,-0.2225,-0.4067,-52.6495
16:30:39:264,-0.354,0.9589,7.2224,45.2231,-0.1693,0.2502,-0.51,-52.6495
16:30:39:283,-0.9262,0.9838,6.3724,45.5376,0.0011,0.4482,-0.4993,-52.6495
16:30:39:303,-1.2592,1.0871,5.748,45.5876,0.0862,0.329,-0.3758,-52.5519
16:30:39:323,-1.298,1.2368,5.5507,45.7617,0.1065,0.0671,-0.1757,-52.4482
16:30:39:346,-1.0086,1.3463,5.6649,45.5969,0.1799,-0.0511,0.0468,-52.3442
16:30:39:364,-0.4058,1.4221,5.7732,45.5375,0.247,-0.0841,0.1895,-52.2464
16:30:39:384,0.2231,1.6142,6.0777,45.5852,0.083,-0.2768,0.1831,-52.2464
16:30:39:403,0.6746,1.982,7.1909,45.574,-0.247,-0.5004,0.0245,-52.2464
16:30:39:423,0.5278,2.1364,8.7423,45.6038,-0.3897,-0.3247,-0.1224,-52.2464
16:30:39:445,0.1887,1.6583,9.8222,45.5686,-0.2864,0.1331,-0.1171,-52.2464
16:30:39:464,-0.3498,1.6946,10.5269,45.5174,-0.1672,0.3226,-0.0043,-52.1548
16:30:39:483,-0.8696,2.3531,10.9642,45.3644,-0.1278,0.2736,0.148,-52.1548
16:30:39:503,-1.277,2.9269,11.5558,45.191,-0.1746,0.0617,0.3034,-52.1548
16:30:39:523,-0.939,2.5203,12.5718,45.2428,-0.3087,-0.2108,0.4844,-52.1548
16:30:39:545,-0.3469,1.9394,14.0627,45.3939,-0.3833,-0.3002,0.6005,-52.1548
16:30:39:563,-0.2108,1.814,15.1642,45.2463,-0.083,0.0596,0.6686,-52.1548
16:30:39:583,-0.5681,2.106,14.6803,45.3444,0.6175,0.4653,0.7325,-52.1548
16:30:39:603,-0.5497,1.8996,12.9476,45.5441,0.9827,0.0745,0.643,-52.1548
16:30:39:623,-0.402,1.0478,12.089,45.4075,0.8751,-0.5802,0.4067,-52.1548
16:30:39:643,-0.6083,0.5188,12.0166,45.9989,0.79,-0.7357,0.2694,-52.1548
16:30:39:664,-0.6174,0.3117,11.3554,46.2299,0.7996,-0.4141,0.2364,-52.1548
16:30:39:683,-0.5956,0.4837,10.1774,46.6602,0.6739,-0.1097,0.1437,-52.1548
16:30:39:703,-0.5711,0.6701,9.0074,47.412,0.4078,0.1107,0.0468,-52.1548
16:30:39:726,-0.3019,0.6918,8.0301,47.9074,0.0841,0.378,-0.0351,-52.1548
16:30:39:743,-0.297,0.836,7.5947,48.187,-0.1352,0.5408,-0.1522,-52.1548
16:30:39:765,-0.5247,0.7931,7.107,48.4325,-0.0745,0.6409,-0.2406,-52.1548
16:30:39:783,-0.8506,0.783,6.3004,48.5564,0.1331,0.625,-0.2087,-52.1548
16:30:39:803,-1.1153,0.993,5.4201,48.7293,0.3226,0.5057,-0.0554,-52.1548
16:30:39:825,-1.1854,1.5487,4.6876,48.4969,0.3822,0.4354,0.1267,-52.1548
16:30:39:843,-1.0792,1.8468,4.4652,48.5391,0.2353,0.3109,0.1948,-52.1548
16:30:39:864,-1.0299,1.8804,4.8703,48.7174,0.0021,0.0703,0.1256,-52.1548
16:30:39:883,-0.9774,2.0577,5.6329,48.4752,-0.3343,-0.0926,0.0564,-52.1548
16:30:39:903,-1.008,2.3284,7.2355,48.7184,-0.6548,-0.1224,-0.0213,-52.1548
16:30:39:924,-0.783,2.2489,9.0237,48.8835,-0.7612,-0.0224,-0.1182,-52.1548
16:30:39:943,-0.6911,2.0494,10.3245,48.9211,-0.577,0.2257,-0.28,-52.1548
16:30:39:964,-0.9674,2.0752,10.8737,48.8207,-0.4322,0.346,-0.4227,-52.1548
16:30:39:984,-1.245,1.9791,11.4682,48.6174,-0.5164,0.198,-0.4418,-52.1548
16:30:40:003,-1.5162,2.1039,12.406,48.6201,-0.6037,0.2821,-0.3449,-52.1548
16:30:40:024,-1.7037,2.395,13.2711,48.5052,-0.4397,0.4759,-0.1565,-52.1548
16:30:40:043,-1.7688,2.8232,13.2273,48.6904,-0.1033,0.5749,0.0021,-52.1548
16:30:40:063,-1.7767,3.4091,12.6715,48.6283,0.0213,0.4706,0.0948,-52.1548
16:30:40:083,-1.0384,2.6959,12.8577,48.8976,-0.1906,-0.0735,0.0224,-52.1548
16:30:40:104,-0.4141,0.7593,14.0418,49.2323,-0.2438,-0.6516,-0.099,-52.1548
16:30:40:123,-0.2016,-0.6225,13.6635,49.3638,0.2012,-0.6228,-0.0979,-52.1548
16:30:40:143,-0.4136,-0.9053,12.1209,49.5714,0.6548,-0.3311,0.0309,-52.1548
16:30:40:163,-0.4828,-0.191,10.3027,49.6523,0.7027,-0.2938,0.2353,-52.1548
16:30:40:183,-0.0213,0.5619,8.921,50.0833,0.3929,-0.2726,0.3268,-52.1548
16:30:40:205,0.3476,1.0926,8.1403,49.9746,0.0894,-0.0873,0.2949,-52.1548
16:30:40:223,0.4544,1.3334,7.2413,50.0647,0.0032,0.1735,0.1512,-52.1548
16:30:40:243,0.2479,1.5245,6.1538,50.3696,0.0309,0.3609,-0.0245,-52.1548
16:30:40:263,0.2096,1.4345,5.2239,50.5491,-0.0106,0.1714,-0.1778,-52.1548
16:30:40:283,0.102,1.5254,4.9881,50.4747,-0.197,-0.3002,-0.3386,-52.1548
16:30:40:304,-0.1917,1.8322,5.4132,50.7363,-0.1725,-0.511,-0.3875,-52.1548
16:30:40:323,-0.1408,1.6333,5.5263,50.7667,-0.0011,-0.3918,-0.296,-52.1548
16:30:40:345,0.294,1.289,5.5425,50.5947,0.0011,-0.2172,-0.2183,-52.1548
16:30:40:363,0.5436,1.268,6.2324,50.6574,-0.1842,-0.3737,-0.2843,-52.1548
16:30:40:383,-0.0469,1.9682,7.4034,50.7155,-0.3247,-0.7697,-0.3811,-52.1548
16:30:40:404,-0.3736,2.1348,8.265,50.6358,-0.4354,-0.7868,-0.3513,-52.1548
16:30:40:423,-0.4921,2.0627,9.4985,50.8626,-0.6143,-0.4972,-0.264,-52.1548
16:30:40:453,-0.5062,1.9578,11.2381,51.0579,-0.7442,-0.0458,-0.1001,-52.1548
16:30:40:463,-0.7858,2.4225,12.9226,51.3446,-0.5738,0.3151,0.0011,-52.1548
16:30:40:483,-1.179,2.7021,13.3754,51.6981,-0.2406,0.3716,0.1043,-52.1548
16:30:40:503,-1.0148,2.2302,13.1925,51.8934,-0.164,0.1874,0.2364,-52.1548
16:30:40:523,-0.9719,1.7665,13.8065,52.0094,-0.1597,-0.0575,0.4056,-52.1548
16:30:40:543,-1.181,1.9048,14.2879,52.0158,0.2097,0.1522,0.7091,-52.1548
16:30:40:563,-1.1872,2.4882,13.117,52.3319,0.6963,0.5227,0.9837,-52.1548
16:30:40:585,-0.7818,2.5643,11.3604,52.4795,0.642,0.198,0.8751,-52.1548
16:30:40:604,-0.3898,1.6698,10.9558,52.7129,0.2587,-0.4173,0.4865,-52.1548
16:30:40:623,-0.8028,1.0129,11.46,52.7318,0.148,-0.7335,0.2033,-52.2471
16:30:40:643,-1.1519,0.5351,11.2106,52.8573,0.2023,-0.692,0.0543,-52.3413
16:30:40:665,-1.4155,0.2057,10.5777,53.1718,0.1448,-0.4493,0.0277,-52.4326
16:30:40:684,-1.4554,0.1315,9.9762,53.4515,-0.0032,-0.1405,0.0862,-52.4326
16:30:40:703,-1.2556,0.2334,9.2373,53.7315,-0.1011,0.2246,0.1576,-52.4326
16:30:40:723,-1.2817,0.6633,8.2361,53.6027,-0.0437,0.5973,0.2129,-52.5249
16:30:40:743,-1.2082,0.8146,7.0788,53.7718,0.1448,0.7634,0.28,-52.6198
16:30:40:763,-1.0004,0.7579,5.8294,53.6694,0.3141,0.6611,0.3481,-52.722
16:30:40:784,-0.8612,0.8951,5.0055,53.644,0.3418,0.3822,0.412,-52.836
16:30:40:803,-0.7302,1.0066,4.633,53.6299,0.2917,0.1757,0.4503,-52.9633
16:30:40:823,-0.5369,1.0117,4.5976,53.6261,0.1842,0.1043,0.4418,-53.1058
16:30:40:843,-0.2778,1.1116,4.9744,53.807,-0.0128,0.0458,0.3726,-53.2591
16:30:40:866,-0.2281,1.1077,6.038,54.2095,-0.3237,-0.2608,0.2119,-53.4244
16:30:40:883,-0.3278,1.0611,7.8321,54.3566,-0.5249,-0.6335,0.1043,-53.5957
16:30:40:903,-0.1993,0.759,9.5642,54.8773,-0.4802,-0.6228,0.1203,-53.7639
16:30:40:923,0.0538,0.7824,10.3823,54.9207,-0.3737,-0.0756,0.1501,-53.9277
16:30:40:943,0.3746,1.3247,10.9718,54.9003,-0.4535,0.5387,0.0713,-54.0871
16:30:40:966,0.3998,1.8757,11.7229,54.9968,-0.6186,0.8027,-0.1948,-54.2413
16:30:40:983,-0.1458,2.1622,12.4826,54.8578,-0.6228,0.8528,-0.4599,-54.3808
16:30:41:003,-0.9319,2.2277,12.8739,54.8544,-0.5025,0.7591,-0.5717,-54.5004
16:30:41:023,-1.6198,2.597,12.8575,55.0605,-0.4152,0.7176,-0.4738,-54.5964
16:30:41:044,-0.9412,1.9131,13.2629,55.1732,-0.6409,0.3481,-0.3481,-54.5964
16:30:41:065,0.0062,0.3604,15.2156,55.3036,-0.8208,-0.2002,-0.3428,-54.5964
16:30:41:083,0.4647,-1.01,16.3457,55.602,-0.2364,-0.4546,-0.3311,-54.5964
16:30:41:103,0.4645,-1.6137,14.793,55.8358,0.4227,-0.2704,-0.2545,-54.5964
16:30:41:123,0.1661,-1.035,12.8049,55.9206,0.5472,-0.1725,-0.1171,-54.5964
16:30:41:143,0.4779,-0.2411,11.3306,56.4616,0.378,-0.1884,-0.0075,-54.5964
16:30:41:163,0.5739,0.5153,10.2489,56.698,0.3141,-0.0884,-0.1118,-54.5964
16:30:41:183,0.4285,0.9584,8.8723,56.873,0.4472,0.0958,-0.2459,-54.5964
16:30:41:203,0.2214,1.1325,7.3748,56.7905,0.6899,0.1757,-0.3662,-54.5964
16:30:41:223,0.1129,1.0569,5.8487,56.5193,0.8592,0.0596,-0.4248,-54.5964
16:30:41:244,0.1386,0.9952,4.7948,55.9052,0.9145,-0.197,-0.4876,-54.5964
16:30:41:263,0.0856,0.9309,4.1309,55.6666,0.8613,-0.4067,-0.5579,-54.5964
16:30:41:283,-0.0362,0.8628,3.9152,55.4975,0.7442,-0.4248,-0.5589,-54.5964
16:30:41:303,0.0538,0.8992,4.1516,55.1705,0.5451,-0.4312,-0.5068,-54.5964
16:30:41:323,0.4644,1.0891,4.8307,55.3534,0.3034,-0.4578,-0.5121,-54.5964
16:30:41:346,0.802,1.2457,5.7257,55.2628,0.0628,-0.4695,-0.6409,-54.49
16:30:41:364,0.4481,1.475,7.0266,55.3249,-0.164,-0.4301,-0.7985,-54.3634
16:30:41:383,-0.4507,2.0414,8.3884,55.5611,-0.4014,-0.3875,-0.8081,-54.2095
16:30:41:402,-1.1838,2.7556,9.74,55.7606,-0.577,-0.0511,-0.6505,-54.0353
16:30:41:422,-1.6876,3.2064,10.8609,55.6451,-0.6601,0.3716,-0.4216,-53.843
16:30:41:444,-2.3039,3.4606,12.204,55.6827,-0.7154,0.378,-0.1352,-53.6457
16:30:41:463,-2.3292,3.2528,13.8276,55.4316,-0.6931,-0.0213,0.2119,-53.4579
16:30:41:483,-1.7512,2.9693,15.4528,55.3812,-0.5472,-0.2768,0.4376,-53.288
16:30:41:503,-1.5162,2.9741,16.2874,55.1527,0.0554,0.0468,0.5888,-53.1336
16:30:41:523,-1.456,2.7533,14.9942,54.8896,0.8996,0.3183,0.6452,-52.9967
16:30:41:544,-1.4876,2.0464,12.477,54.8507,1.2073,0.1618,0.5856,-52.8842
16:30:41:564,-1.4196,1.3179,11.0777,54.6205,0.8932,-0.3769,0.4035,-52.8842
16:30:41:583,-1.5358,0.81,11.0243,54.2266,0.4557,-0.6782,0.2395,-52.8842
16:30:41:603,-1.4098,0.0029,11.0708,53.7361,0.2097,-0.5898,0.1256,-52.8842
16:30:41:623,-1.3487,-0.5364,10.753,53.2849,-0.0458,-0.2523,0.0841,-52.8842
16:30:41:643,-1.1203,-0.8245,10.3693,52.8587,-0.2768,0.0394,0.1011,-52.8842
16:30:41:665,-0.8856,-0.5868,9.6168,52.7092,-0.2449,0.3492,0.1874,-52.8842
16:30:41:683,-0.5801,-0.2253,8.2486,52.6709,0.0458,0.5547,0.3364,-52.8842
16:30:41:703,-0.3607,0.1079,6.6306,52.6427,0.3992,0.5653,0.5121,-52.8842
16:30:41:726,-0.0249,0.3097,5.1741,52.6702,0.6888,0.461,0.7037,-52.8842
16:30:41:743,0.3818,0.6338,4.1383,52.652,0.7942,0.2513,0.7942,-52.8842
16:30:41:764,0.4527,1.252,3.4321,52.8712,0.7431,0.0554,0.7825,-52.8842
16:30:41:783,0.761,1.7017,3.096,52.7354,0.5472,-0.1831,0.6367,-52.8842
16:30:41:803,1.0295,1.9794,3.2697,52.7943,0.0128,-0.4951,0.2374,-52.9762
16:30:41:824,0.7633,1.9114,4.7463,52.7971,-0.6622,-0.6984,-0.1991,-53.0754
16:30:41:843,0.2529,1.5219,7.5631,52.6209,-1.1051,-0.6548,-0.3418,-53.0754
16:30:41:865,-0.0155,1.2578,10.0518,52.7801,-0.9433,-0.1778,-0.3066,-53.0754
16:30:41:883,0.0031,1.7735,10.9632,52.6976,-0.6611,0.4908,-0.3162,-53.0754
16:30:41:903,-0.0183,2.3288,11.4439,52.9077,-0.8113,0.9348,-0.5004,-53.0754
16:30:41:924,-0.396,2.4369,12.7266,53.1396,-1.0402,1.1701,-0.6601,-53.0754
16:30:41:943,-1.1311,2.5689,14.3377,52.7846,-0.8986,1.1402,-0.7346,-53.0754
16:30:41:963,-1.8044,2.7562,14.962,52.1214,-0.3737,0.988,-0.5856,-53.0754
16:30:41:983,-1.9211,3.3628,14.553,51.7371,0.0522,0.5802,-0.2555,-53.0754
16:30:42:003,-0.286,2.6131,14.9579,50.9498,0.0032,-0.4738,-0.0681,-53.0754
16:30:42:024,1.7492,0.4347,15.9765,50.3169,0.1693,-1.2169,-0.231,-53.0754
16:30:42:043,2.118,-0.6227,15.0935,50.1194,0.7101,-0.8294,-0.5526,-53.0754
16:30:42:064,1.1525,-0.1519,13.062,49.6365,0.9262,-0.2545,-0.7272,-52.9841
16:30:42:083,0.7204,0.372,11.3542,49.4324,0.6611,-0.1278,-0.7282,-52.869
16:30:42:106,0.9008,0.6022,10.4812,49.7091,0.346,-0.0341,-0.757,-52.7322
16:30:42:123,0.8001,0.8686,9.5201,50.0728,0.4056,0.1661,-0.9273,-52.5683
16:30:42:143,0.3362,1.0986,7.8911,50.2487,0.6367,0.3811,-1.0625,-52.3705
16:30:42:163,-0.1883,1.289,6.1555,50.889,0.8208,0.3673,-1.1541,-52.1371
16:30:42:183,-0.6325,1.3653,4.8432,50.8106,0.8709,0.0852,-1.1509,-51.8647
16:30:42:205,-0.8169,1.3643,4.1376,50.7135,0.8038,-0.346,-1.0359,-51.5681
16:30:42:223,-0.8892,1.2234,3.9024,50.5577,0.6792,-0.7964,-0.8698,-51.2485
16:30:42:243,-0.7573,1.0509,4.089,50.4589,0.5078,-1.1243,-0.6984,-50.9125
16:30:42:263,-0.4811,1.1948,4.6517,50.1663,0.2438,-1.2616,-0.5664,-50.5655
16:30:42:283,-0.1051,1.6376,5.5886,49.8604,-0.0862,-1.1285,-0.5579,-50.2091
16:30:42:305,0.0621,1.6584,6.8937,49.9171,-0.28,-0.7953,-0.6601,-49.8396
16:30:42:323,-0.2303,1.4207,8.0221,49.8447,-0.3215,-0.2385,-0.725,-49.4501
16:30:42:344,-1.2262,1.9347,8.7318,49.7632,-0.3183,0.2481,-0.6601,-49.0413
16:30:42:364,-2.1004,2.6395,9.2329,49.7667,-0.4599,0.4205,-0.4748,-48.6221
16:30:42:383,-2.7645,3.0486,10.0727,49.9333,-0.6569,0.3109,-0.2023,-48.2047
16:30:42:403,-2.7453,2.9952,11.4175,49.7121,-0.7921,0.0383,0.1235,-47.8013
16:30:42:423,-2.1512,2.606,13.3819,49.4803,-0.7932,-0.0937,0.3652,-47.4197
16:30:42:484,-1.9321,2.2846,15.0902,49.3448,-0.3609,0.2608,0.5302,-47.0587
16:30:42:486,-2.4117,2.7507,14.8925,49.4122,0.4865,0.824,0.7495,-46.719
16:30:42:488,-2.7715,3.7973,12.6055,49.4586,1.1253,0.9252,0.9497,-46.4126
16:30:42:504,-2.3725,4.1852,10.3212,49.5288,1.0913,0.3481,0.9071,-46.1534
16:30:42:523,-1.3691,3.1508,9.8752,49.5623,0.362,-0.6207,0.5632,-45.944
16:30:42:542,-1.0565,1.7084,11.8065,49.5835,-0.4184,-1.0306,0.1469,-45.7648
16:30:42:563,-1.2527,0.2152,13.3682,49.7723,-0.3918,-0.6601,-0.0192,-45.5899
16:30:42:584,-1.48,-0.5211,12.6366,50.0699,-0.1554,0.1735,0.0596,-45.4097
16:30:42:603,-1.1972,-0.8942,10.9647,50.2797,-0.1192,0.725,0.2257,-45.2323
16:30:42:623,-0.7788,-0.9464,9.705,50.5314,-0.2545,0.8847,0.3098,-45.0688
16:30:42:643,-0.8807,-0.9671,8.4748,50.3491,-0.0788,0.9103,0.4152,-44.921
16:30:42:663,-1.5808,-1.2423,7.4235,50.2909,0.3237,1.3063,0.8219,-44.7895
16:30:42:684,-1.8841,-0.2938,6.1628,50.1503,0.741,1.5161,1.3234,-44.7895
16:30:42:703,-1.512,0.5503,4.8868,50.0158,0.8602,1.2872,1.6587,-44.7895
16:30:42:723,-0.6682,0.8554,4.0983,49.9769,0.7825,0.7921,1.7098,-44.7895
16:30:42:743,-0.1608,1.685,3.7687,50.1184,0.642,0.2449,1.5778,-44.7895
16:30:42:767,0.0981,2.4175,3.8076,50.1402,0.3694,-0.3141,1.3255,-44.9256
16:30:42:784,0.464,2.5953,4.2653,49.8825,-0.0511,-0.609,0.9827,-45.1071
16:30:42:803,0.6623,2.7261,5.1746,49.8355,-0.6196,-0.5046,0.5536,-45.3174
16:30:42:823,0.3733,3.0394,6.6435,49.7799,-1.1637,-0.1948,0.1533,-45.5385
16:30:42:843,0.2428,3.2008,8.4263,49.4262,-1.4309,0.0032,-0.1352,-45.7596
16:30:42:865,0.3169,3.0475,10.0477,49.5119,-1.5469,0.0681,-0.4163,-45.9703
16:30:42:883,0.0568,2.8735,11.7999,49.7031,-1.5544,0.2587,-0.6899,-46.1564
16:30:42:903,-0.666,3.0352,13.3076,49.5225,-1.4128,0.5856,-0.8315,-46.312
16:30:42:923,-1.4712,2.8715,14.4821,49.6202,-1.152,0.9539,-0.7527,-46.4373
16:30:42:943,-2.5095,3.5142,15.1252,49.1954,-0.7027,1.0785,-0.4812,-46.5352
16:30:42:966,-2.4064,3.6549,15.3775,49.3041,-0.4301,0.5494,-0.1129,-46.5352
16:30:42:983,-0.9076,1.5295,16.1034,48.9665,-0.1714,-0.4557,-0.0277,-46.6282
16:30:43:003,-0.2751,-0.2454,15.971,48.8813,0.4897,-0.906,-0.1789,-46.6282
16:30:43:023,-0.6385,-0.5931,13.8582,48.8298,1.1477,-0.7272,-0.2736,-46.6282
16:30:43:043,-0.9991,-0.2815,11.2732,49.0784,1.2552,-0.5643,-0.2364,-46.6282
16:30:43:066,-0.5471,0.0376,9.6859,49.7692,0.8304,-0.5387,-0.1852,-46.6282
16:30:43:083,0.2953,0.3604,9.2777,50.0505,0.3119,-0.4961,-0.313,-46.6282
16:30:43:103,0.724,0.4509,9.1056,50.6379,0.1214,-0.3407,-0.6335,-46.6282
16:30:43:123,0.5618,0.5226,8.1701,50.9182,0.2236,0.0319,-0.9252,-46.6282
16:30:43:143,0.0713,0.5257,6.7507,50.7991,0.395,0.3961,-1.0796,-46.6282
16:30:43:164,-0.4439,0.6419,5.4873,50.3305,0.5015,0.4706,-1.0827,-46.6282
16:30:43:183,-0.8323,0.8129,4.7605,50.032,0.5366,0.2129,-0.9848,-46.5003
16:30:43:203,-0.9513,1.0703,4.4764,49.6678,0.5515,-0.1842,-0.8358,-46.3493
16:30:43:223,-0.7855,1.2255,4.583,49.4636,0.5323,-0.5249,-0.7357,-46.173
16:30:43:243,-0.5793,1.3124,4.8187,49.5216,0.4205,-0.6856,-0.6824,-45.9798
16:30:43:263,-0.5914,1.712,5.4696,49.2396,0.1171,-0.7091,-0.6526,-45.7693
16:30:43:283,-0.7202,2.3076,6.7688,49.011,-0.2651,-0.658,-0.642,-45.5439
16:30:43:303,-0.8175,2.4582,8.533,49.0873,-0.5696,-0.5845,-0.6558,-45.3043
16:30:43:323,-1.1179,2.4281,10.1342,48.9546,-0.544,-0.2672,-0.6122,-45.044
16:30:43:345,-1.8657,2.865,10.986,48.7901,-0.3673,0.083,-0.4748,-44.7708
16:30:43:364,-2.5246,3.5743,11.2418,48.8152,-0.2246,0.197,-0.2545,-44.4902
16:30:43:383,-2.6483,3.8968,11.3657,48.6222,-0.2342,0.1022,-0.0415,-44.2129
16:30:43:403,-2.3852,3.8203,11.8446,48.387,-0.3343,-0.0554,0.116,-43.9475
16:30:43:423,-2.005,3.2447,12.9435,48.4262,-0.3737,-0.0564,0.2076,-43.6965
16:30:43:445,-2.2638,3.3563,13.7919,48.2344,-0.0053,0.2225,0.3119,-43.4573
16:30:43:468,-2.2455,3.1475,13.1861,48.2968,0.6037,0.2449,0.3471,-43.233
16:30:43:483,-2.0214,2.0838,11.546,48.2913,0.8198,-0.198,0.1363,-43.0271
16:30:43:503,-2.24,1.0372,11.1829,48.1613,0.3705,-0.8794,-0.1427,-42.8366
16:30:43:523,-2.3201,-0.2886,12.4118,47.864,-0.0639,-1.1349,-0.247,-42.6499
16:30:43:544,-2.0742,-1.0268,12.8378,47.5927,-0.1075,-0.6782,-0.1469,-42.4563
16:30:43:563,-1.6925,-1.0786,11.7884,47.7308,-0.0138,-0.0096,-0.0862,-42.2564
16:30:43:584,-1.1579,-1.1305,9.9452,47.881,-0.0692,0.3875,-0.0713,-42.0555
16:30:43:603,-0.9671,-0.8868,8.295,47.9637,-0.2896,0.4621,-0.082,-41.8586
16:30:43:623,-1.3372,0.0939,7.178,48.1257,-0.2864,0.5494,0.0043,-41.6658
16:30:43:643,-1.4845,0.5318,6.0309,47.7094,-0.0916,0.5664,0.1884,-41.4792
16:30:43:664,-1.2113,0.3757,4.8693,47.744,0.0916,0.4312,0.3886,-41.3077
16:30:43:683,-1.1219,0.5596,4.2328,47.7102,0.1703,0.1672,0.5568,-41.1628
16:30:43:703,-1.1792,0.8722,4.141,47.7304,0.1831,-0.1341,0.725,-41.044
16:30:43:725,-1.1773,1.1588,4.2763,47.9421,0.1341,-0.4035,0.84,-41.044
16:30:43:743,-1.116,1.6187,5.2319,47.7033,-0.0309,-0.6494,0.8666,-41.044
16:30:43:764,-0.6545,1.5243,6.7253,47.5891,-0.2321,-0.8166,0.7996,-41.044
16:30:43:783,-0.1675,1.3348,8.6217,47.3414,-0.3854,-0.8911,0.5898,-41.044
16:30:43:803,-0.0121,1.3073,10.1301,47.363,-0.3343,-0.4674,0.3375,-41.044
16:30:43:824,-0.1484,1.6167,11.3281,47.4382,-0.3087,0.1033,0.1086,-41.044
16:30:43:843,-0.1212,1.9777,11.9412,47.4909,-0.362,0.5611,-0.1331,-41.044
16:30:43:864,-0.5288,2.0744,12.5898,47.1588,-0.461,0.8613,-0.444,-41.044
16:30:43:883,-1.8052,2.3688,13.1385,47.0894,-0.4844,1.0295,-0.5132,-41.044
16:30:43:903,-2.8402,2.8665,13.4239,46.6183,-0.3567,1.0551,-0.2236,-41.044
16:30:43:924,-3.2921,3.8739,13.1363,46.3533,-0.1235,1.2041,0.2364,-41.044
16:30:43:943,-2.3772,4.5902,13.3941,46.1156,-0.2811,0.7644,0.7804,-41.044
16:30:43:965,1.0539,2.6355,15.347,45.8805,-0.2459,-0.5345,0.8059,-41.044
16:30:43:983,2.2107,0.8257,14.5474,45.7384,0.478,-1.285,0.3151,-41.044
16:30:44:003,1.7453,-0.6943,11.7704,45.8111,1.0923,-1.0998,-0.4706,-41.044
16:30:44:023,-0.0106,-0.5012,9.6221,46.2309,1.1211,-0.5675,-0.8751,-41.044
16:30:44:043,-1.1322,1.0173,8.9405,46.5892,1.0604,0.4163,-0.6803,-41.044
16:30:44:063,-0.6084,0.5932,9.4842,47.3802,0.9252,-0.3758,-0.5675,-41.044
16:30:44:083,-0.1961,1.2956,7.6376,48.0292,0.2151,-1.2329,-0.4163,-41.044
16:30:44:103,0.2516,1.3561,7.6305,48.5627,-0.1789,-0.7548,-0.3748,-41.044
16:30:44:123,0.2621,1.2286,7.5333,48.9729,-0.2949,-0.131,-0.445,-41.044
16:30:44:143,0.0351,1.1131,7.0464,49.231,-0.197,0.4216,-0.5185,-40.9501
16:30:44:163,-0.4508,1.1277,6.4749,48.9638,-0.0607,0.544,-0.4716,-40.8389
16:30:44:183,-0.4637,1.3616,6.3498,48.8199,0.0926,0.5004,-0.2843,-40.7159
16:30:44:205,-0.0097,1.35,6.158,48.4264,0.2683,0.363,-0.1192,-40.5883
16:30:44:223,0.2592,1.6147,5.8936,48.0231,0.3513,0.2002,-0.1054,-40.4616
16:30:44:243,0.3179,2.1461,5.9271,47.8096,0.2694,-0.0681,-0.0979,-40.3376
16:30:44:263,0.503,2.7988,6.7729,47.441,0.1693,-0.5046,-0.033,-40.2198
16:30:44:283,0.7538,3.2034,7.8363,47.2663,0.1629,-0.9986,-0.0937,-40.1097
16:30:44:304,0.92,3.3452,8.7161,47.3825,0.0798,-1.2701,-0.2502,-40.001
16:30:44:323,0.7492,3.0059,9.4194,47.2944,-0.0958,-1.0029,-0.3503,-39.8832
16:30:44:343,0.2508,2.2081,10.9094,47.1877,-0.0649,-0.3151,-0.3119,-39.7477
16:30:44:363,-0.2831,2.7685,12.3133,47.5367,0.1395,-0.1203,-0.1512,-39.6039
16:30:44:383,-0.767,3.6612,12.9461,47.4557,0.2427,-0.6952,-0.0692,-39.4651
16:30:44:403,-0.6468,4.6807,12.9543,47.4561,0.2108,-0.8187,-0.0266,-39.3318
16:30:44:423,-0.0769,4.1647,12.921,47.7032,0.2608,-0.2332,0.083,-39.1957
16:30:44:452,-0.2788,3.3593,12.2808,47.6991,0.5589,0.6984,0.1608,-39.0556
16:30:44:463,-1.1823,3.4741,11.3447,47.4801,0.7304,0.8826,0.2161,-38.9241
16:30:44:483,-2.2208,3.601,10.1743,47.9068,0.5376,0.3268,0.2012,-38.8125
16:30:44:503,-2.8443,2.7485,9.4305,48.0885,0.0373,-0.082,0.3183,-38.7207
16:30:44:523,-1.9933,1.2317,10.441,48.3012,-0.4578,-0.56,0.4887,-38.7207
16:30:44:543,-0.7406,0.0522,11.7963,48.5481,-0.3045,-1.3659,0.2843,-38.7207
16:30:44:564,-0.2586,0.3798,11.7471,49.1012,0.2151,-1.9004,0.2502,-38.7207
16:30:44:586,-0.0216,0.9863,10.0865,49.359,0.4578,-1.7013,0.1182,-38.7207
16:30:44:603,1.002,0.8316,8.9569,49.488,0.4269,-1.8365,-0.1405,-38.7207
16:30:44:623,1.3288,0.4929,8.3745,49.5626,0.3801,-2.5839,-0.3758,-38.7207
16:30:44:643,1.3094,0.4619,7.5472,49.7764,0.4983,-3.3994,-0.56,-38.7207
16:30:44:663,1.2386,0.5797,5.8684,49.4589,0.6952,-3.475,-0.5696,-38.7207
16:30:44:685,0.9646,1.6303,4.6013,49.4283,0.7751,-1.2861,-0.2651,-38.7207
16:30:44:703,1.1688,2.5027,3.3957,49.3928,0.8251,0.8826,0.2204,-38.7207
16:30:44:723,0.762,2.3549,3.2975,49.0773,0.2587,3.2504,0.5313,-38.7207
16:30:44:743,0.3119,3.1478,5.4063,48.8968,-0.7783,3.2642,0.873,-38.7207
16:30:44:764,0.2778,3.6075,7.1418,48.9232,-1.5853,1.7875,1.0072,-38.7207
16:30:44:783,1.2846,2.8057,9.1065,48.9488,-1.6215,1.449,1.0487,-38.7207
16:30:44:803,1.5811,1.9058,9.89,49.2146,-1.4202,0.8847,1.1669,-38.7207
16:30:44:823,2.4068,0.9495,10.245,49.3471,-1.1115,0.2917,0.7293,-38.7207
16:30:44:843,2.0652,2.6083,11.0603,49.4923,-0.7878,-0.6473,0.231,-38.8169
16:30:44:863,1.6817,3.8088,11.1966,49.3823,-0.4472,-0.6015,0.1331,-38.9091
16:30:44:883,2.4411,3.2672,11.2145,49.2271,-0.4291,-0.2002,0.1107,-38.9091
16:30:44:903,2.5582,3.0838,12.2411,49.074,-0.5653,0.1267,0.0554,-38.9091
16:30:44:923,1.8487,3.4596,13.4047,48.9061,-0.4812,0.5036,0.1703,-38.9091
16:30:44:943,2.0173,3.0811,13.473,49.0689,-0.2491,0.724,0.3556,-38.9091
16:30:44:965,2.9701,1.5292,13.0902,49.2144,-0.2214,0.3684,0.2598,-39.0031
16:30:44:983,3.0918,0.2689,12.8589,49.1784,-0.1022,0.1416,-0.0234,-39.1006
16:30:45:003,2.2682,-0.3077,12.1999,49.0474,0.1938,0.0916,-0.1821,-39.1006
16:30:45:023,1.8231,-0.153,10.8981,49.2862,0.3897,0.017,-0.0905,-39.1006
16:30:45:043,2.0851,0.1857,9.3988,49.3359,0.1576,0.0862,0.0671,-39.1006
16:30:45:064,2.4936,0.5222,8.4586,49.3682,-0.2566,0.4376,0.0681,-39.1006
16:30:45:083,2.4145,0.7798,7.9617,49.7317,-0.61,0.7697,-0.1224,-39.1006
16:30:45:103,1.9511,0.7756,7.5016,49.909,-0.7665,0.9188,-0.3982,-39.1006
16:30:45:123,1.3651,0.7474,6.9178,50.1151,-0.7133,1.0519,-0.5685,-39.1006
16:30:45:143,0.6131,0.374,6.4401,50.0618,-0.5994,1.0859,-0.5451,-39.1006
16:30:45:163,-0.043,0.5042,6.2295,50.3935,-0.4897,0.6665,-0.3481,-39.1006
16:30:45:183,0.3293,0.2122,6.5742,50.3369,-0.3098,0.2502,-0.3481,-39.1006
16:30:45:203,0.843,0.5991,7.3881,50.1149,-0.0085,0.3056,-0.3535,-39.1006
16:30:45:223,1.1307,0.9782,7.6355,49.9424,0.1384,0.8187,-0.3992,-39.1006
16:30:45:243,0.3016,1.0857,8.2152,49.7416,-0.0224,0.9071,-0.5547,-39.1006
16:30:45:263,-0.3056,0.9839,9.4081,49.5242,-0.0756,0.6867,-0.4173,-39.1006
16:30:45:283,-0.0359,1.2123,10.4949,49.3734,0.0117,0.905,-0.1597,-39.1006
16:30:45:303,-0.5491,2.0167,11.0644,49.2544,0.1384,0.8741,-0.1299,-39.1006
16:30:45:323,-1.1847,2.4144,11.1037,48.844,0.2864,0.675,0.0011,-39.1006
16:30:45:343,-1.2064,2.4826,11.3604,48.5139,0.363,0.4535,0.1043,-39.1006
16:30:45:364,-0.8722,2.3118,11.2664,48.1431,0.3588,0.0543,0.0905,-39.1006
16:30:45:383,-0.9939,1.7313,11.7435,47.9665,0.2513,-0.3875,0.0458,-39.1006
16:30:45:403,-1.0404,1.5848,12.4548,48.086,0.3449,-0.3492,0.2076,-39.1006
16:30:45:423,-1.3487,1.7627,12.0735,48.1715,0.6814,0.05,0.3247,-39.1006
16:30:45:444,-1.834,1.2019,10.7627,48.2597,0.7559,0.0213,0.1884,-39.1006
16:30:45:463,-2.4139,0.6539,9.9337,48.3421,0.4312,-0.197,0.017,-39.1006
16:30:45:483,-2.7604,-0.0491,9.9498,48.4083,-0.0554,-0.2513,-0.0277,-39.1006
16:30:45:503,-2.8711,-0.382,10.4663,48.1956,-0.4354,-0.1416,0.083,-39.1006
16:30:45:523,-2.3697,-0.3164,10.4928,48.4087,-0.6814,-0.1022,0.1299,-39.1006
16:30:45:544,-1.4687,-0.1416,9.7771,48.5609,-0.9156,-0.0543,0.0415,-39.1006
16:30:45:564,-1.8461,-0.281,8.8583,48.9832,-1.1828,-0.0522,-0.066,-39.1006
16:30:45:583,-2.097,-0.6171,8.4019,48.9675,-1.2456,-0.4237,0.1203,-39.1006
16:30:45:603,-0.5518,-0.4692,8.8433,48.9479,-0.9262,-0.1821,0.2257,-39.1006
16:30:45:623,-0.1428,-0.2105,8.0844,48.678,-0.4653,0.7165,0.2172,-39.1006
16:30:45:644,-0.6235,-0.3605,7.1561,48.4561,-0.2214,0.8379,0.2044,-39.1006
16:30:45:664,-0.867,-0.1003,6.5698,48.3516,0.231,-0.1576,0.264,-39.1006
16:30:45:683,-0.3374,0.218,6.1008,48.2016,0.511,-0.955,0.2576,-39.1006
16:30:45:703,-0.0507,0.9136,5.9703,48.0445,0.5738,-0.757,0.1629,-39.1006
16:30:45:723,-0.6486,1.7407,5.8863,47.915,0.346,-0.2502,0.0692,-39.1006
16:30:45:743,-0.9095,1.6364,6.3932,47.5139,0,-0.2236,0.0628,-39.1006
16:30:45:764,-0.4061,1.2404,8.0557,47.6265,-0.3322,-0.5249,-0.0096,-39.1006
16:30:45:783,0.1997,1.1582,10.0528,47.13,-0.3535,-0.4046,-0.0809,-39.1006
16:30:45:803,0.3005,1.204,11.2119,46.887,-0.2268,0.0894,-0.1491,-39.1006
16:30:45:826,-0.208,1.1744,11.5174,46.6542,-0.2332,0.264,-0.1065,-39.1006
16:30:45:843,-0.7988,1.4772,11.9841,46.4281,-0.4578,0.2364,0.0969,-39.1006
16:30:45:863,-0.5201,1.3156,13.5403,46.4541,-0.6239,0.1821,0.3002,-39.1006
16:30:45:883,0.3277,1.2984,15.3949,46.5739,-0.3418,0.2097,0.2726,-39.1006
16:30:45:903,0.7932,1.3292,15.6047,46.4382,0.2246,0.2183,0.0767,-39.1006
16:30:45:924,1.5926,-0.5237,14.0023,46.1093,0.5227,-0.0735,-0.2619,-39.1006
16:30:45:943,0.9802,-1.9568,12.9829,45.89,0.6015,-0.1299,-0.4216,-39.1006
16:30:45:963,0.2429,-2.3609,11.735,45.4959,0.857,0.0703,-0.3758,-39.1006
16:30:45:983,-0.1887,-1.6579,9.8059,45.6468,0.8347,0.2768,-0.296,-39.1006
16:30:46:003,-0.3453,-0.635,8.1816,46.005,0.2949,0.378,-0.2183,-39.1006
16:30:46:023,0.5413,0.2554,8.5447,46.2474,-0.4535,0.1512,-0.3599,-39.1006
16:30:46:043,0.3669,0.3589,9.703,46.4939,-0.6718,0.1182,-0.6026,-39.1006
16:30:46:063,-0.1312,0.1825,10.0135,46.518,-0.379,0.2406,-0.6292,-39.1006
16:30:46:083,-0.3201,0.2676,9.0294,46.6645,0.0926,0.2779,-0.5685,-39.1006
16:30:46:103,-0.179,0.4117,7.4421,46.5134,0.3258,0.197,-0.6015,-38.9991
16:30:46:123,-0.0072,0.5209,6.7959,46.0835,0.3971,0.1352,-0.6196,-38.8796
16:30:46:143,-0.2344,0.5801,6.2929,45.7972,0.6186,0.2438,-0.5919,-38.7394
16:30:46:163,-0.467,0.7233,5.4561,45.3408,0.725,0.3279,-0.5376,-38.5808
16:30:46:183,-0.793,0.9409,5.1339,45.0963,0.593,0.3045,-0.5046,-38.4069
16:30:46:206,-0.8674,1.1907,5.695,44.8667,0.2896,0.0373,-0.4908,-38.2251
16:30:46:223,-1.1887,1.6301,7.4053,44.6783,0.0745,-0.2214,-0.4897,-38.0347
16:30:46:243,-1.8646,1.5676,8.6922,44.4996,0.0841,-0.0437,-0.3833,-37.8317
16:30:46:263,-2.1554,1.1894,9.2358,44.1589,0.0522,-0.0522,-0.1661,-37.6236
16:30:46:283,-2.1655,1.2697,10.7195,44.1796,0.0564,-0.3481,-0.1107,-37.4198
16:30:46:304,-3.305,1.5893,11.4745,44.3962,0.3354,-0.4248,0.1363,-37.2188
16:30:46:323,-3.3859,2.3581,11.0312,44.3275,0.3811,-0.2672,0.6058,-37.0307
16:30:46:343,-1.9317,2.6467,11.0593,44.2184,0.1384,-0.0479,0.9156,-36.8717
16:30:46:364,-0.8423,2.7756,11.9083,44.2545,-0.1075,-0.1075,0.8837,-36.751
16:30:46:383,-0.6849,2.6038,12.8817,43.8957,-0.1341,0.1011,0.8496,-36.751
16:30:46:403,-1.3615,2.4195,12.8651,43.9127,0.198,0.3939,0.9433,-36.751
16:30:46:423,-1.5341,1.7781,11.6263,43.7281,0.3907,0.2097,0.8656,-36.751
16:30:46:463,-1.6479,0.7771,10.6607,43.6704,0.2906,-0.1054,0.6622,-36.751
16:30:46:464,-1.4675,0.5076,10.5812,43.8116,0.0884,-0.3769,0.5472,-36.751
16:30:46:483,-1.4871,0.3415,10.6351,43.6165,-0.0468,-0.3567,0.4727,-36.751
16:30:46:503,-1.3452,-0.0454,10.4217,43.5191,-0.2364,-0.3162,0.4184,-36.751
16:30:46:523,-1.0842,-0.0658,10.2859,43.6687,-0.4482,-0.3215,0.3641,-36.751
16:30:46:543,-0.714,-0.1049,10.3108,43.3276,-0.4823,-0.2225,0.3077,-36.751
16:30:46:563,-0.7939,-0.1742,9.6987,43.258,-0.3162,-0.0415,0.3471,-36.8488
16:30:46:586,-0.8713,-0.155,8.5462,43.3652,-0.082,0.0543,0.4578,-36.9556
16:30:46:603,-0.8492,0.1568,7.0079,43.2952,0.016,0.2938,0.5483,-37.0718
16:30:46:623,-1.103,0.3543,6.0403,43.3181,-0.0639,0.4706,0.6388,-37.2061
16:30:46:643,-1.4933,0.4899,6.1805,43.188,-0.0415,0.4035,0.7027,-37.3568
16:30:46:663,-1.8516,0.6774,6.3576,43.2184,0.2065,0.3662,0.791,-37.5303
16:30:46:684,-1.4199,1.101,6.0508,43.1694,0.2938,0.297,0.8943,-37.7312
16:30:46:703,-0.1675,1.9617,6.6983,43.2389,0.1767,0.1416,0.7687,-37.9512
16:30:46:723,-0.0107,2.3243,8.2269,43.3525,0.1586,-0.1725,0.3748,-38.192
16:30:46:743,-0.5928,2.2128,8.9882,43.7374,0.2129,-0.296,0.1831,-38.4358
16:30:46:764,-0.5775,2.4331,9.1476,43.4178,0.1831,-0.329,0.1586,-38.6789
16:30:46:785,0.6461,2.9457,9.3478,43.6482,0.0309,-0.4929,0.0351,-38.9219
16:30:46:803,1.6875,2.7252,10.1194,43.6165,-0.3098,-0.3588,-0.2821,-39.1566
16:30:46:823,0.978,2.0553,11.4181,43.4983,-0.5856,-0.0617,-0.4141,-39.3691
16:30:46:843,0.3969,1.9079,12.7861,43.6293,-0.5046,0.1139,-0.3098,-39.5616
16:30:46:863,0.4956,2.0566,13.0446,43.6152,-0.1831,0.131,-0.3109,-39.7354
16:30:46:884,-0.088,2.4094,12.5894,43.7404,0.0383,0.0916,-0.3918,-39.8907
16:30:46:903,-0.5004,2.1292,11.7818,43.7729,0.0511,0.0926,-0.3503,-40.0283
16:30:46:923,-0.4248,1.066,11.6875,44.051,-0.1384,0.0351,-0.2938,-40.1519
16:30:46:943,-0.2082,0.2131,11.8162,43.7351,-0.0351,-0.0809,-0.2672,-40.2624
16:30:46:967,-0.1294,0.0866,10.8183,43.729,0.1075,-0.214,-0.2704,-40.3605
16:30:46:983,-0.1419,0.4012,9.5183,44.2021,-0.0362,-0.1959,-0.264,-40.3605
16:30:47:003,0.7977,0.4773,9.0303,44.34,-0.4291,-0.1703,-0.2683,-40.3605
16:30:47:023,1.9761,-0.179,9.6713,44.5469,-0.8932,-0.1778,-0.5728,-40.3605
16:30:47:043,1.3964,-0.8593,11.2309,45.071,-1.004,-0.0245,-0.8656,-40.3605
16:30:47:065,0.5192,-1.0497,11.7202,45.0755,-0.4716,0.3396,-0.8208,-40.3605
16:30:47:083,0.16,-0.7288,10.1249,45.4486,0.1512,0.7123,-0.6984,-40.3605
16:30:47:103,-0.7334,-0.8044,7.7968,45.5106,0.3961,1.005,-0.5845,-40.3605
16:30:47:123,-0.1969,0.1396,6.4839,45.4095,0.6814,0.5983,-0.5568,-40.3605
16:30:47:143,0.0417,0.7445,5.3883,45.6075,0.8208,0.1352,-0.7123,-40.3605
16:30:47:165,-0.1512,0.9492,4.7971,45.2276,0.7857,-0.1895,-0.8677,-40.2475
16:30:47:186,-0.5794,0.9828,4.6981,45.0338,0.5185,-0.3524,-0.8922,-40.1027
16:30:47:203,-0.7039,1.1668,5.4115,44.7621,0.1086,-0.3748,-0.84,-39.9397
16:30:47:223,-0.7952,1.2633,6.5996,44.5732,-0.3194,-0.28,-0.7868,-39.7507
16:30:47:243,-0.8956,1.1613,8.1648,44.7827,-0.6292,-0.2257,-0.7176,-39.5457
16:30:47:264,-1.1722,1.2086,9.8657,44.5606,-0.6548,-0.1767,-0.6164,-39.3233
16:30:47:283,-1.5759,1.5657,10.6041,44.8594,-0.4706,-0.0394,-0.4408,-39.0862
16:30:47:303,-2.0844,2.0566,10.7446,45.2283,-0.3939,0.0894,-0.2087,-38.842
16:30:47:323,-2.0259,2.1091,11.0182,45.5524,-0.4802,0.0309,-0.0362,-38.6014
16:30:47:343,-1.6952,1.8248,11.7502,45.5382,-0.6239,-0.2002,0.0245,-38.3713
16:30:47:364,-1.5124,1.4367,13.1686,45.8484,-0.5866,-0.379,0.0149,-38.1509
16:30:47:383,-1.9763,1.7271,13.9436,46.0394,-0.1725,-0.2608,0.0937,-37.9352
16:30:47:403,-2.0842,1.2982,12.7672,45.8275,0.0383,-0.2417,0.1097,-37.7288
16:30:47:423,-1.6968,-0.0628,12.3651,46.0189,-0.2225,-0.4578,-0.0341,-37.5343
16:30:47:446,-1.8668,-1.3024,13.0373,46.3306,-0.3407,-0.5813,-0.1672,-37.3451
16:30:47:464,-2.4019,-2.0894,13.2094,46.1114,-0.197,-0.5355,-0.1097,-37.153
16:30:47:483,-2.566,-2.3877,12.1161,46.1101,0.0128,-0.3992,0.1033,-36.964
16:30:47:503,-2.2072,-2.2173,10.2587,45.9635,-0.0948,-0.3045,0.2662,-36.7857
16:30:47:523,-1.8501,-1.8875,8.4965,45.9315,-0.4216,-0.1757,0.3758,-36.6234
16:30:47:545,-1.6351,-1.2769,7.2241,45.9567,-0.7208,-0.0128,0.4993,-36.4796
16:30:47:564,-1.2526,-1.1613,6.6013,45.9817,-0.9071,0.0916,0.577,-36.3565
16:30:47:583,-1.0138,-1.2748,6.8392,46.0922,-0.824,0.1001,0.6441,-36.2573
16:30:47:603,-0.8131,-1.2925,7.0614,46.2806,-0.5547,0.0426,0.6856,-36.2573
16:30:47:623,-0.8223,-0.9619,6.8586,46.3163,-0.2097,0.0383,0.724,-36.2573
16:30:47:644,-0.9126,-0.7518,6.7224,46.6482,-0.0096,-0.0905,0.7218,-36.2573
16:30:47:665,-0.7271,-0.5399,6.6192,46.7966,0.0681,-0.2417,0.7293,-36.2573
16:30:47:683,-0.0488,-0.551,6.9453,46.7842,-0.1192,-0.3918,0.6558,-36.2573
16:30:47:703,0.5443,-0.3721,8.5119,46.9427,-0.2481,-0.2672,0.5164,-36.2573
16:30:47:724,0.6453,-0.61,9.845,47.0401,-0.2129,0.0032,0.3364,-36.2573
16:30:47:743,0.3042,-0.5255,10.7203,47.1233,-0.0096,0.214,0.2459,-36.2573
16:30:47:764,-0.0441,-0.1189,10.8758,47.1584,0.2406,0.3183,0.2278,-36.2573
16:30:47:783,0.0354,0.0568,10.8574,47.2129,0.3737,0.2289,0.2044,-36.2573
16:30:47:803,0.0357,0.1868,11.215,47.3886,0.3066,0.0649,0.1629,-36.2573
16:30:47:823,-0.3523,0.5319,12.6974,47.1507,0.3513,0.1043,0.2395,-36.3498
16:30:47:843,-0.4422,0.5196,13.7816,46.9488,0.6686,0.165,0.3748,-36.4469
16:30:47:864,-0.645,0.9245,14.0903,46.6782,1.0604,0.0937,0.5472,-36.5543
16:30:47:883,0.5866,0.5541,12.9425,46.5703,1.0242,-0.1299,0.5472,-36.6807
16:30:47:903,1.8896,-0.9572,12.7837,46.5596,0.5643,-0.3961,0.1874,-36.8249
16:30:47:925,1.33,-1.5092,13.4123,46.4737,0.7421,-0.3151,-0.0862,-36.9671
16:30:47:944,0.4983,-1.7347,11.8595,46.3349,1.0189,-0.1789,-0.116,-37.0998
16:30:47:964,-0.0426,-1.363,10.313,46.1774,0.922,-0.247,-0.0075,-37.2279
16:30:47:983,0.318,-0.7853,9.3115,45.9787,0.6281,-0.3992,0.0894,-37.3577
16:30:48:003,1.0136,-0.2546,8.7529,46.0941,0.2875,-0.4461,0.0447,-37.4901
16:30:48:024,1.2186,0.2219,8.3027,46.0766,0.0873,-0.1501,-0.0937,-37.6175
16:30:48:044,0.5255,0.5058,7.8498,46.2343,0.066,0.231,-0.1416,-37.7342
16:30:48:063,-0.3463,0.6105,7.3119,46.494,0.1938,0.3833,-0.0021,-37.8416
16:30:48:083,-0.7565,0.6595,7.1752,46.3415,0.3471,0.3684,0.2534,-37.9478
16:30:48:103,-0.4595,0.6242,7.6808,46.2836,0.6271,0.231,0.4429,-38.0622
16:30:48:124,0.3471,1.1094,7.5656,46.1532,1.0891,0.0319,0.4056,-38.1889
16:30:48:143,0.9806,1.5297,6.6883,46.0011,1.3862,-0.1278,0.0788,-38.3244
16:30:48:163,0.4703,2.088,5.6489,45.8232,1.3979,-0.2321,-0.1874,-38.4587
16:30:48:183,-0.0085,2.545,4.891,45.628,1.0391,-0.3173,-0.1565,-38.5881
16:30:48:204,0.4113,2.8849,5.0296,45.2901,0.3939,-0.3609,-0.0383,-38.7151
16:30:48:223,0.8174,3.1451,6.6237,45.1053,-0.115,-0.4887,-0.0522,-38.8422
16:30:48:243,1.0613,3.4926,8.3132,45.3251,-0.3024,-0.5621,-0.099,-38.9645
16:30:48:263,1.2665,3.7641,9.4994,44.9262,-0.4067,-0.4823,-0.1906,-39.0772
16:30:48:283,0.7313,3.9799,10.3375,45.004,-0.5153,-0.2268,-0.181,-39.1759
16:30:48:305,0.3035,3.8021,11.4137,45.0035,-0.6505,-0.0458,0.0522,-39.1759
16:30:48:323,0.8678,3.2528,12.9445,44.8968,-0.7133,-0.1693,0.2662,-39.2688
16:30:48:343,1.2713,2.9675,14.5584,45.0261,-0.3769,-0.1916,0.3173,-39.3648
16:30:48:364,1.1777,3.0654,14.5296,45.1787,0.3854,0.0234,0.2459,-39.461
16:30:48:383,0.3718,2.5871,12.4801,45.2645,0.6281,-0.0011,0.0192,-39.5626
16:30:48:403,-0.4807,1.7028,11.3156,45.1221,0.3194,-0.3024,-0.1842,-39.6656
16:30:48:423,-1.0547,0.6789,11.6581,44.9745,-0.049,-0.6665,-0.23,-39.7629
16:30:48:443,-0.9787,-0.0629,12.0674,44.6628,-0.1725,-0.7453,-0.1395,-39.8534
16:30:48:466,-0.7834,-0.4271,11.7265,44.531,-0.2108,-0.4535,-0.033,-39.8534
16:30:48:483,-0.4491,-0.5485,10.628,44.5541,-0.2683,0.049,0.1033,-39.8534
16:30:48:503,-0.049,-0.4429,9.0628,44.3298,-0.5121,0.5302,0.1735,-39.8534
16:30:48:523,-0.2631,-0.3392,8.7262,44.2571,-0.7953,0.8762,0.148,-39.8534
16:30:48:543,-0.699,-0.3189,8.8678,44.2589,-0.5813,0.9486,0.1938,-39.8534
16:30:48:563,-1.365,-0.4223,8.028,44.3293,-0.1065,1.0849,0.3748,-39.8534
16:30:48:586,-1.6495,-0.2166,7.0187,44.2112,0.362,1.0221,0.7186,-39.9498
16:30:48:603,-1.207,0.1738,6.7429,44.3894,0.6942,0.7708,1.0135,-40.0684
16:30:48:623,-0.4188,1.0873,6.5381,44.3553,0.9199,0.643,1.0093,-40.2264
16:30:48:643,-0.5504,1.9748,6.4035,44.1324,0.9081,0.4855,0.8038,-40.4102
16:30:48:663,-0.4597,2.4662,6.211,44.0418,0.7165,-0.0681,0.6324,-40.6227
16:30:48:685,0.0897,2.5507,6.8569,44.1583,0.33,-0.3886,0.4983,-40.8593
16:30:48:702,0.706,2.7046,8.1379,43.876,0.1522,-0.4908,0.4003,-41.1054
16:30:48:723,1.0332,3.1223,8.9326,43.6668,0.198,-0.2832,0.2598,-41.3547
16:30:48:743,1.3104,3.3811,9.1825,43.4319,0.164,-0.0277,0.0681,-41.6016
16:30:48:763,1.1525,3.3621,9.4401,43.4451,-0.148,0.1054,-0.0958,-41.8424
16:30:48:784,0.7748,3.3861,10.4394,43.1381,-0.5068,0.1182,-0.115,-42.0738
16:30:48:803,0.754,3.3998,11.9856,43.1739,-0.5142,0.0181,-0.0224,-42.2952
16:30:48:823,0.9337,3.8257,13.1447,43.1449,-0.2161,-0.0287,0.0458,-42.507
16:30:48:843,1.0115,4.5329,13.2973,42.9767,0.0639,-0.0256,0.099,-42.7126
16:30:48:863,2.0305,3.5117,12.9483,42.8313,0.1107,-0.2161,0.0298,-42.9171
16:30:48:884,2.6925,1.0704,12.8735,42.7467,-0.0075,-0.6516,-0.4397,-43.1169
16:30:48:903,1.3709,-0.0962,12.6324,42.5291,0.1746,-0.7953,-0.7421,-43.2908
16:30:48:923,0.2716,-0.3154,11.1197,42.6765,0.3332,-0.6154,-0.6239,-43.432
16:30:48:943,0.0353,-0.0101,9.8952,42.6322,0.115,-0.5089,-0.3939,-43.5512
16:30:48:966,0.6117,0.5896,8.9685,42.7142,-0.2811,-0.4461,-0.2757,-43.6568
16:30:48:983,1.135,0.8925,7.9995,42.5871,-0.6814,-0.2832,-0.3364,-43.6568
16:30:49:003,1.1544,1.0071,7.3612,42.1067,-0.9805,-0.0692,-0.4727,-43.6568
16:30:49:023,0.9551,0.9702,7.2132,41.5924,-1.0327,0.2076,-0.5813,-43.6568
16:30:49:043,0.3884,0.9692,7.0738,41.1952,-0.8517,0.445,-0.5685,-43.6568
16:30:49:068,0.0456,0.8432,6.9082,41.0498,-0.576,0.3407,-0.5025,-43.6568
16:30:49:083,0.0147,0.7672,6.8569,41.1849,-0.264,0.0128,-0.4344,-43.6568
16:30:49:103,0.292,0.9088,6.7289,41.3303,0.0511,-0.2321,-0.4195,-43.6568
16:30:49:123,0.646,1.1296,6.5693,41.2104,0.197,-0.3567,-0.4237,-43.6568
16:30:49:142,0.9645,1.5509,6.7952,40.9877,0.1437,-0.445,-0.4663,-43.6568
16:30:49:163,1.1802,1.8063,7.2854,41.3324,-0.0266,-0.4418,-0.5036,-43.6568
16:30:49:183,1.11,1.9692,8.0934,41.2173,-0.2204,-0.3151,-0.5259,-43.5591
16:30:49:203,0.9928,2.0239,9.1522,41.3792,-0.4014,-0.2768,-0.4472,-43.4517
16:30:49:223,0.8069,2.0429,10.7404,41.3563,-0.4227,-0.2108,-0.3652,-43.328
16:30:49:243,0.5521,2.235,11.5849,40.8668,-0.1576,0.016,-0.2353,-43.1936
16:30:49:265,-0.0777,2.7447,11.5417,40.7213,0.0447,0.1373,-0.0979,-43.0537
16:30:49:283,-0.3281,2.889,11.5558,40.5843,0.0202,0.0319,0.0564,-42.9177
16:30:49:304,-0.1961,2.4803,11.9831,40.4404,-0.0777,-0.0852,0.1799,-42.7908
16:30:49:323,-0.1968,2.0178,12.632,40.4355,-0.0756,-0.0788,0.3109,-42.6745
16:30:49:344,-0.6988,2.3441,13.0412,40.4806,0.2161,0.2055,0.5142,-42.5699
16:30:49:364,-0.7963,2.1358,12.0936,40.4817,0.5142,0.3162,0.5994,-42.5699
16:30:49:383,-0.6317,1.1079,10.7396,40.335,0.3567,-0.0894,0.4472,-42.5699
16:30:49:403,-0.5462,0.1779,10.8491,40.5649,-0.0884,-0.7229,0.2002,-42.5699
16:30:49:423,-0.4111,-0.7803,11.3666,40.3568,-0.2779,-0.9209,0.0788,-42.5699
16:30:49:445,-0.2819,-1.4002,11.2093,40.2178,-0.3237,-0.7516,0.0692,-42.5699
16:30:49:464,-0.2785,-1.3008,10.2962,40.2561,-0.3567,-0.3237,0.1714,-42.5699
16:30:49:483,-0.0472,-1.0679,9.0664,40.2319,-0.593,0.0287,0.3279,-42.5699
16:30:49:503,0.3786,-0.498,8.5206,40.08,-0.8368,0.3002,0.3971,-42.5699
16:30:49:523,0.5159,-0.326,8.5041,40.0719,-0.856,0.5696,0.3673,-42.5699
16:30:49:545,0.2388,-0.3152,8.4073,39.891,-0.5643,0.7037,0.378,-42.5699
16:30:49:563,-0.0424,-0.2373,7.8865,39.9929,-0.1576,0.6835,0.4834,-42.5699
16:30:49:583,-0.1552,0.018,7.3147,39.6993,0.1767,0.4855,0.5898,-42.5699
16:30:49:603,0.0511,0.1664,6.996,39.8986,0.4674,0.2619,0.6505,-42.5699
16:30:49:623,0.0888,0.614,6.9154,39.9756,0.6388,0.0128,0.6452,-42.5699
16:30:49:645,0.2131,1.1421,7.1108,39.9871,0.6356,-0.3119,0.6026,-42.6615
16:30:49:664,0.8268,1.2656,7.7471,40.0283,0.428,-0.6707,0.4599,-42.7768
16:30:49:683,1.5387,1.2716,8.919,40.2706,0.2587,-0.8677,0.2289,-42.907
16:30:49:703,1.901,1.4748,10.0023,40.3427,0.3077,-0.6835,0.0075,-43.0388
16:30:49:723,2.096,1.6717,10.4419,40.1175,0.4376,-0.2704,-0.1725,-43.1624
16:30:49:744,2.038,1.8494,10.2752,40.0224,0.362,-0.0511,-0.3215,-43.276
16:30:49:765,1.9055,2.0772,10.4852,39.744,0.0767,-0.0681,-0.4535,-43.3775
16:30:49:783,1.9159,2.2034,11.4386,39.9047,-0.1895,-0.1842,-0.544,-43.3775
16:30:49:803,1.7809,1.9318,12.5811,39.8708,-0.1842,0.016,-0.5259,-43.3775
16:30:49:823,1.2457,2.0282,13.3466,39.9015,0.1256,0.4184,-0.4163,-43.3775
16:30:49:844,0.9024,2.3805,12.8385,39.777,0.3758,0.5888,-0.2193,-43.3775
16:30:49:863,1.9218,1.4945,11.88,39.4506,0.0926,0.3535,-0.2023,-43.3775
16:30:49:883,2.3445,0.4306,12.1744,39.2708,-0.0894,0.1278,-0.4014,-43.3775
16:30:49:903,1.5448,-0.1156,11.6479,39.4223,0.214,0.1672,-0.4706,-43.3775
16:30:49:925,0.7417,-0.2422,10.3,39.1439,0.2768,0.0128,-0.3364,-43.3775
16:30:49:943,1.0577,-0.1341,9.4577,39.4758,0.0021,-0.1373,-0.131,-43.3775
16:30:49:963,1.6412,0.1266,9.0916,39.6635,-0.3066,-0.1852,-0.1203,-43.3775
16:30:49:983,1.8384,0.3017,8.6023,40.108,-0.5792,-0.0926,-0.2491,-43.3775
16:30:50:003,1.469,0.3443,8.3701,40.1934,-0.7165,0.0852,-0.3652,-43.3775
16:30:50:024,1.0229,0.4574,8.3597,40.0805,-0.5483,0.3343,-0.3929,-43.3775
16:30:50:044,0.4732,0.6495,7.7432,39.8899,-0.2012,0.5589,-0.3226,-43.3775
16:30:50:063,0.1809,0.7674,6.8779,39.3451,0.0948,0.5919,-0.2225,-43.2859
16:30:50:083,0.0527,0.9963,6.2072,38.8637,0.3087,0.4237,-0.1544,-43.1908
16:30:50:103,0.1001,1.4114,5.898,39.0087,0.4259,0.1682,-0.1011,-43.0967
16:30:50:124,0.4588,1.7055,6.102,39.1753,0.4791,-0.099,-0.0948,-43.0059
16:30:50:143,0.8092,2.0921,6.2474,39.6079,0.3939,-0.2257,-0.1011,-43.0059
16:30:50:164,1.3489,2.2706,6.7948,39.8157,0.0277,-0.3567,-0.2055,-43.0059
16:30:50:183,1.4356,2.0394,8.3811,39.9635,-0.33,-0.4961,-0.4003,-42.9072
16:30:50:203,1.0803,1.8254,10.1153,39.9744,-0.3098,-0.5345,-0.444,-42.801
16:30:50:224,0.8884,2.0107,10.9973,39.6324,-0.0405,-0.297,-0.2981,-42.6788
16:30:50:243,0.7489,2.5552,11.0777,39.2509,0.1629,0.1416,-0.0788,-42.5469
16:30:50:263,0.5976,3.1295,10.9815,39.1519,0.1086,0.362,0.0256,-42.4171
16:30:50:283,0.4076,3.1358,11.2356,38.9601,-0.1235,0.2715,0.0713,-42.2941
16:30:50:306,0.4559,2.7181,12.1525,38.79,-0.3833,0.1363,0.0969,-42.1797
16:30:50:323,0.3148,2.2062,13.3348,38.9676,-0.3343,0.1416,0.2151,-42.071
16:30:50:344,-0.001,2.1373,14.0253,38.8507,0.0926,0.2704,0.4205,-41.972
16:30:50:364,0.2038,1.3367,13.1351,38.776,0.5589,0.0479,0.4589,-41.972
16:30:50:383,0.0913,0.5476,11.835,38.542,0.6047,-0.3599,0.2214,-41.972
16:30:50:405,-0.2927,-0.1179,11.1204,38.3779,0.4333,-0.6792,0.0767,-41.972
16:30:50:424,-0.4003,-0.428,10.558,38.4237,0.2683,-0.6367,0.1278,-41.972
16:30:50:443,-0.3165,-0.4359,9.9127,38.0906,0.0617,-0.428,0.198,-41.972
16:30:50:472,0.2589,-0.5275,9.3148,37.9456,-0.2576,-0.329,0.1948,-41.972
16:30:50:483,0.8317,-0.4462,8.82,37.7583,-0.6739,-0.2566,0.0756,-41.972
16:30:50:504,0.992,-0.3443,8.4539,37.6066,-0.9699,0.0287,-0.0394,-41.972
16:30:50:522,0.8327,-0.7752,8.621,37.439,-0.9561,0.2928,-0.099,-41.972
16:30:50:543,0.3691,-0.7057,8.4412,37.443,-0.5089,0.5568,0.0096,-41.972
16:30:50:563,0.0758,-0.4467,7.5468,37.706,0.0958,0.7804,0.3002,-41.972
16:30:50:583,0.1568,-0.0665,6.423,37.6827,0.5078,0.8049,0.5536,-41.972
16:30:50:603,0.4315,0.5137,5.7668,37.675,0.6643,0.6015,0.6292,-41.972
16:30:50:623,0.6195,1.2211,5.5382,37.8225,0.6739,0.3599,0.56,-41.972
16:30:50:643,0.9038,1.7051,5.748,37.8935,0.3801,0.0096,0.3939,-41.972
16:30:50:663,1.1943,1.7459,6.7894,37.6813,-0.0969,-0.3748,0.1065,-41.972
16:30:50:686,1.2508,1.482,8.9875,37.5704,-0.3535,-0.7005,-0.1512,-41.972
16:30:50:703,1.1275,1.4071,10.4929,37.5117,-0.1906,-0.527,-0.3066,-41.972
16:30:50:724,0.996,1.4074,10.9162,37.2522,0.0053,-0.1182,-0.3396,-41.972
16:30:50:743,0.8721,1.8033,10.7724,36.8486,-0.0958,0.2864,-0.3183,-41.972
16:30:50:763,0.9342,1.9585,11.3546,36.4146,-0.4067,0.4706,-0.3268,-41.972
16:30:50:785,0.8427,1.8578,12.5701,36.0993,-0.5153,0.4663,-0.3748,-41.972
16:30:50:803,0.4555,1.9203,13.7676,35.4871,-0.1735,0.3769,-0.3641,-41.972
16:30:50:824,0.0964,2.5132,13.9806,35.03,0.2364,0.3875,-0.1331,-41.972
16:30:50:843,0.8991,2.1855,14.0633,34.8005,0.4642,0.4333,0.1491,-41.972
16:30:50:863,2.4666,0.7633,14.1958,34.5422,0.4354,0.0628,0.0319,-41.972
16:30:50:884,2.2701,0.0598,13.9684,34.6431,0.6505,-0.2033,-0.4259,-41.972
16:30:50:903,0.757,-0.2445,12.0131,34.7712,0.972,-0.0053,-0.6771,-41.972
16:30:50:923,-0.259,-0.0948,10.1339,35.063,0.8368,-0.0245,-0.6132,-41.972
16:30:50:943,-0.2153,0.1932,9.1182,35.5405,0.3939,-0.198,-0.3577,-41.8804
16:30:50:964,0.4039,0.3199,8.4501,36.2649,-0.0756,-0.444,-0.1842,-41.7875
16:30:50:983,0.9407,0.3993,7.727,36.9492,-0.4621,-0.5898,-0.2044,-41.6921
16:30:51:003,0.979,0.4575,7.0571,37.3112,-0.7261,-0.5994,-0.3471,-41.5931
16:30:51:023,0.9267,0.4984,6.6677,37.7278,-0.8485,-0.4141,-0.412,-41.4798
16:30:51:043,0.7849,0.4941,6.772,37.7251,-0.7304,-0.2672,-0.4429,-41.3496
16:30:51:066,0.6903,0.5828,6.5088,37.5484,-0.3343,-0.0809,-0.3811,-41.2017
16:30:51:083,0.8439,0.6684,6.5163,37.4863,0.0405,-0.0351,-0.3588,-41.0421
16:30:51:103,0.8165,0.7772,6.8656,36.9502,0.3535,-0.2374,-0.4269,-40.875
16:30:51:123,0.9016,1.141,6.627,36.3944,0.5834,-0.3545,-0.4056,-40.6999
16:30:51:143,1.0384,1.6638,6.9358,35.6152,0.445,-0.4237,-0.4131,-40.5201
16:30:51:164,1.1197,2.1129,7.6183,35.3011,0.1373,-0.4738,-0.4035,-40.3352
16:30:51:183,1.3599,2.2976,8.6531,34.704,-0.0245,-0.3396,-0.3609,-40.1383
16:30:51:203,1.7305,2.2053,9.4889,34.8147,-0.0596,-0.3322,-0.1863,-39.9396
16:30:51:223,2.5584,3.3672,10.3718,34.7871,-0.1278,-0.2406,-0.2811,-39.7389
16:30:51:243,1.5645,3.2497,11.1038,34.6713,-0.1395,-0.0969,-0.3407,-39.5322
16:30:51:264,0.8913,3.0752,11.4831,34.5007,-0.1043,0.1884,-0.1522,-39.3177
16:30:51:283,0.8189,3.0256,12.3575,34.1149,-0.2417,0.4024,-0.016,-39.104
16:30:51:303,0.3387,2.4466,13.5463,33.8128,-0.3865,0.3322,0.1043,-38.8978
16:30:51:323,-0.2662,2.3762,14.4628,33.2832,-0.0011,0.3396,0.2587,-38.6987
16:30:51:343,-0.5155,1.9224,13.6694,33.188,0.6356,0.5451,0.4216,-38.5121
16:30:51:364,-0.7964,1.2978,12.4856,33.1687,0.9433,0.4525,0.4152,-38.3486
16:30:51:383,-1.0819,0.6283,11.7445,33.3036,0.9401,0.082,0.3343,-38.2142
16:30:51:403,-1.4436,0.2063,11.1305,33.4603,0.8283,-0.1097,0.3897,-38.0997
16:30:51:423,-1.3686,0.0485,10.6806,33.7177,0.625,-0.1608,0.5206,-38.0089
16:30:51:443,-0.8511,0.0037,10.4376,33.8308,0.362,-0.231,0.5611,-38.0089
16:30:51:464,-0.2321,-0.1366,9.6903,34.4337,0.164,-0.0703,0.5366,-38.0089
16:30:51:483,0.0103,-0.033,8.7334,34.9948,-0.0713,0.3237,0.5472,-38.0089
16:30:51:503,-0.1158,0.1226,7.8951,35.6565,-0.2108,0.8464,0.6324,-38.0089
16:30:51:523,-0.3372,0.1626,7.0806,36.1186,-0.1714,1.2307,0.7708,-38.0089
16:30:51:545,-0.3803,0.2,6.5575,36.236,-0.0128,1.2297,0.9124,-38.0089
16:30:51:564,-0.3274,0.5161,6.094,36.0483,0.1672,0.8187,1.0061,-38.0089
16:30:51:583,-0.291,0.9387,5.6338,35.8196,0.2885,0.4567,1.0221,-38.1164
16:30:51:603,-0.1729,1.3712,5.7207,35.2014,0.2662,0.197,1.0827,-38.2609
16:30:51:624,0.2664,1.6959,6.1384,34.7748,0.1491,-0.0128,1.07,-38.4464
16:30:51:645,0.781,1.7949,7.0642,34.2956,-0.0692,-0.3705,0.8177,-38.6639
16:30:51:664,1.0122,2.0748,8.166,33.9809,-0.1948,-0.8719,0.4386,-38.9046
16:30:51:683,1.5515,2.4618,9.4106,33.5591,-0.0692,-0.9007,0.1022,-39.146
16:30:51:703,1.2417,2.6165,9.8768,33.4096,0.1352,-0.3215,-0.0969,-39.3765
16:30:51:723,0.6964,2.7637,9.6394,33.3356,0.0437,0.3066,0.0192,-39.5923
16:30:51:743,0.6756,3.0255,10.0726,32.9949,-0.4684,0.4589,0.0894,-39.8053
16:30:51:763,0.7022,3.1523,11.6728,32.8377,-0.7655,0.3992,-0.0309,-40.0142
16:30:51:783,0.4061,3.1051,13.261,32.6054,-0.4961,0.378,0.0021,-40.2112
16:30:51:803,-0.171,3.5744,13.5463,32.4387,0.0415,0.5451,0.1022,-40.3968
16:30:51:823,-0.1031,3.8871,12.5092,32.4647,0.2076,0.6516,0.3162,-40.5811
16:30:51:843,0.9781,2.5305,12.2144,32.4853,-0.1395,0.3811,0.1043,-40.7753
16:30:51:863,0.789,1.4637,12.6737,32.4656,-0.1874,-0.0149,-0.2672,-40.9665
16:30:51:883,-0.0755,0.7065,11.9027,32.6159,0.0639,-0.1672,-0.4173,-41.1399
16:30:51:903,-0.5735,-0.0188,10.4136,32.7592,0.033,-0.1884,-0.3226,-41.2946
16:30:51:926,-0.4441,-0.0055,9.8321,33.1945,-0.3418,-0.2033,-0.0948,-41.4384
16:30:51:943,0.3819,0.1288,9.9366,33.6699,-0.7431,-0.297,-0.0234,-41.5785
16:30:51:963,0.6878,0.2179,9.9005,34.8642,-0.7655,-0.2161,-0.1235,-41.71
16:30:51:983,0.2873,0.5912,9.581,35.4097,-0.4163,-0.0096,-0.1267,-41.8262
16:30:52:003,0.3842,0.839,8.4612,36.0474,0.1352,0.1586,-0.0575,-41.9295
16:30:52:025,0.6521,1.1993,7.1411,36.1919,0.5547,0.297,-0.0649,-42.0252
16:30:52:043,0.7729,1.327,6.1933,36.0246,0.692,0.4993,-0.1427,-42.0252
16:30:52:063,0.6436,1.6215,5.6884,35.6698,0.692,0.5898,-0.3002,-42.0252
16:30:52:083,0.2537,1.579,5.4522,35.4121,0.5696,0.609,-0.4269,-42.0252
16:30:52:103,-0.3931,1.932,5.6937,34.9301,0.3268,0.4376,-0.5015,-42.0252
16:30:52:124,-0.482,1.7943,6.3445,34.6282,0.0905,-0.1022,-0.4461,-42.0252
16:30:52:143,-0.4141,1.5407,7.5195,34.3235,-0.0256,-0.6654,-0.428,-42.0252
16:30:52:164,-0.6184,2.1349,8.4365,34.1737,-0.0234,-0.971,-0.2949,-42.0252
16:30:52:183,-0.1458,2.3647,9.4047,33.81,-0.0948,-0.8805,-0.1629,-42.0252
16:30:52:203,-0.0688,2.6482,10.8305,33.4788,-0.1139,-0.247,-0.0681,-42.0252
16:30:52:224,0.0352,2.7017,11.9769,33.1519,0.0256,0.4961,0.017,-42.0252
16:30:52:243,-0.5337,3.1836,12.1058,32.9169,0.3237,1.2584,0.1214,-42.0252
16:30:52:264,-1.2879,3.6408,11.466,32.404,0.5185,1.4266,0.2864,-42.0252
16:30:52:283,-1.5214,3.7731,10.8463,32.5133,0.3726,1.07,0.4535,-42.0252
16:30:52:306,-1.6819,3.8794,11.2808,32.5399,0.1235,0.4408,0.5313,-42.0252
16:30:52:323,-1.9084,3.8465,12.0144,32.5654,0.1672,-0.083,0.6186,-42.0252
16:30:52:344,-1.4013,2.8031,11.9808,32.6366,0.2459,-0.4951,0.56,-42.0252
16:30:52:364,-1.0747,1.5242,11.6109,32.4736,0.2513,-0.626,0.3811,-42.1299
16:30:52:383,-1.4762,1.3833,11.0686,32.7327,0.3087,-0.3971,0.3662,-42.2415
16:30:52:405,-1.6777,1.6347,10.1207,32.711,0.1725,-0.0724,0.4078,-42.3612
16:30:52:423,-1.4975,1.702,9.3641,33.1639,-0.2374,0.0032,0.3226,-42.494
16:30:52:443,-1.219,1.3918,9.2809,33.2325,-0.5951,-0.083,0.1682,-42.6349
16:30:52:463,-0.733,0.5008,9.0693,33.1689,-0.6856,-0.0405,0.0798,-42.7756
16:30:52:506,-0.8193,0.1433,8.4561,33.4381,-0.5132,0.3897,0.1352,-42.9084
16:30:52:508,-1.0331,0.654,7.6607,33.4595,-0.2236,0.692,0.3801,-43.0388
16:30:52:523,-0.6341,1.0278,6.7144,33.4183,0.0437,0.6494,0.5717,-43.1796
16:30:52:543,-0.0438,0.9387,6.1413,33.6362,0.1714,0.3439,0.5164,-43.3381
16:30:52:564,0.0409,1.2564,5.9057,33.6927,0.3034,0.066,0.3875,-43.5104
16:30:52:583,-0.0902,1.6686,5.5537,33.5308,0.3513,-0.0373,0.297,-43.6922
16:30:52:603,-0.2074,2.0146,5.465,33.5146,0.1267,-0.1065,0.2449,-43.8795
16:30:52:623,0.1318,2.0681,6.3633,33.1618,-0.3354,-0.4653,0.05,-44.0752
16:30:52:643,0.7472,1.6582,7.9714,32.7026,-0.6516,-0.8262,-0.2576,-44.269
16:30:52:663,0.8475,1.6349,9.7995,32.2708,-0.4716,-0.8283,-0.5792,-44.442
16:30:52:683,0.1777,2.191,9.9517,32.0284,0.0085,-0.379,-0.5973,-44.5748
16:30:52:703,0.1568,2.1357,9.3138,31.3639,-0.0564,-0.1001,-0.5547,-44.6861
16:30:52:723,0.0062,2.298,10.1002,31.095,-0.4897,0.0628,-0.5589,-44.6861
16:30:52:743,-0.2357,2.7283,11.6943,30.9509,-0.6303,0.2033,-0.5281,-44.6861
16:30:52:763,-0.5304,2.891,12.5892,30.5308,-0.4418,0.3237,-0.5015,-44.6861
16:30:52:785,-0.7342,3.2385,12.7055,30.3869,-0.3173,0.2449,-0.4003,-44.6861
16:30:52:803,1.0246,1.1819,13.5735,30.14,-0.625,-0.3971,-0.5738,-44.6861
16:30:52:823,1.4857,-0.5038,15.7751,29.926,-0.5664,-0.8091,-0.9624,-44.6861
16:30:52:843,0.6152,-1.0787,15.4855,30.0113,0.2896,-0.6047,-0.9624,-44.6861
16:30:52:863,0.0791,-1.0985,13.0711,30.3919,0.7091,-0.5707,-0.6686,-44.6861
16:30:52:885,0.5392,-0.6445,11.2188,30.9107,0.5291,-0.6601,-0.3481,-44.6861
16:30:52:903,1.0556,0.2304,10.2529,31.6416,0.1991,-0.6324,-0.2097,-44.5899
16:30:52:923,1.2301,0.967,9.5194,32.2021,0.0309,-0.4408,-0.2513,-44.4887
16:30:52:943,1.1801,1.2972,8.7055,32.5226,0.0873,-0.0905,-0.3652,-44.3766
16:30:52:963,0.8966,1.6747,7.4105,32.812,0.2768,0.3077,-0.4887,-44.2488
16:30:52:984,0.3344,2.1114,5.9929,32.7844,0.3982,0.4589,-0.5589,-44.1054
16:30:53:003,0.0394,1.9826,5.1659,32.6169,0.4759,0.3109,-0.626,-43.9484
16:30:53:023,-0.0331,1.6467,5.0863,32.2472,0.5472,-0.0681,-0.7431,-43.7779
16:30:53:043,-0.0699,1.4289,5.2152,31.7436,0.5707,-0.197,-0.8688,-43.5875
16:30:53:066,0.3735,1.4857,5.526,31.4297,0.4322,-0.2364,-0.856,-43.3716
16:30:53:084,-0.0619,1.8987,6.0197,31.3078,0.1608,-0.362,-0.6611,-43.1407
16:30:53:104,0.5109,1.9077,6.6842,31.09,-0.1182,-0.3066,-0.6143,-42.8954
16:30:53:123,0.602,2.0702,7.7114,30.9592,-0.4078,-0.4024,-0.6835,-42.6372
16:30:53:143,0.1547,2.5016,8.7147,30.894,-0.5728,-0.3875,-0.7474,-42.3572
16:30:53:166,-0.3217,2.7727,9.6121,30.7035,-0.4961,-0.2023,-0.6409,-42.0598
16:30:53:183,-0.3532,3.2209,10.3366,30.2849,-0.2183,0.1895,-0.4078,-41.7411
16:30:53:203,-0.2441,3.5351,11.6878,30.2364,0.1011,0.5238,-0.2087,-41.4158
16:30:53:223,-0.3447,3.209,12.562,30.5403,0.2811,0.6739,-0.0128,-41.0946
16:30:53:243,-0.3009,3.0715,13.4521,30.4608,0.3577,0.6899,0.0852,-40.7819
16:30:53:266,-0.8534,3.7261,13.8169,30.4522,0.4599,0.6526,0.1938,-40.483
16:30:53:283,-0.715,3.1932,13.3629,30.4114,0.6196,0.6494,0.2981,-40.2015
16:30:53:303,-0.5496,2.0951,13.0312,30.4133,0.5376,0.0926,0.0298,-39.9456
16:30:53:323,-1.132,1.367,12.4544,30.265,0.3716,-0.5696,-0.2332,-39.7024
16:30:53:343,-1.7094,0.8683,11.8278,30.5435,0.4003,-0.7282,-0.2726,-39.4604
16:30:53:364,-1.8781,0.4446,10.8962,30.7089,0.3865,-0.7229,-0.1416,-39.2178
16:30:53:383,-1.6661,0.223,9.8505,30.6337,0.1288,-0.8538,0.0798,-38.9815
16:30:53:403,-1.011,0.2842,9.656,30.716,-0.2502,-1.1317,0.2938,-38.7655
16:30:53:423,-0.3434,0.5589,9.4484,30.6378,-0.3407,-1.0221,0.3961,-38.5658
16:30:53:443,-0.0782,0.8225,8.642,30.5888,-0.2481,-0.3929,0.5015,-38.3777
16:30:53:464,-0.0796,0.7078,7.5642,30.5464,-0.0841,0.4365,0.5866,-38.2018
16:30:53:483,-0.1854,0.5778,6.5425,30.6503,0.0319,1.0827,0.6931,-38.0441
16:30:53:503,-0.5425,0.662,5.9263,30.5504,0.0202,1.3138,0.9028,-37.9155
16:30:53:523,-0.4975,0.6801,5.8317,30.6246,-0.0075,1.1243,1.1328,-37.9155
16:30:53:545,0.0624,0.7166,6.1105,30.4832,0.0394,0.7708,1.1871,-37.9155
16:30:53:563,0.4484,1.1571,6.4444,30.5781,0.0607,0.4333,1.0114,-37.9155
16:30:53:583,0.5824,1.7099,6.8509,30.2043,0.0309,0.0138,0.6686,-37.9155
16:30:53:603,0.5998,1.7598,7.5277,30.5042,-0.0224,-0.2598,0.3471,-37.9155
16:30:53:623,0.5318,1.5363,8.2036,30.4582,-0.1235,-0.2513,0.1224,-37.9155
16:30:53:644,0.0397,1.4818,8.9385,30.265,-0.2534,0.2214,0.0958,-37.9155
16:30:53:663,-0.3639,2.1099,9.385,30.1694,-0.4216,0.7197,0.1459,-37.9155
16:30:53:683,-0.1497,2.7981,10.1011,30.2266,-0.6643,0.857,0.0394,-37.9155
16:30:53:703,-0.0959,3.3792,11.4218,30.0454,-0.6548,0.758,-0.2087,-37.9155
16:30:53:723,-0.4551,3.5274,12.0755,29.7138,-0.3439,0.6292,-0.4184,-37.9155
16:30:53:743,-1.1005,3.7913,12.132,29.727,-0.0894,0.5579,-0.379,-37.9155
16:30:53:764,-1.8122,4.525,11.8965,29.7639,-0.0788,0.7421,-0.0958,-37.9155
16:30:53:783,0.0077,3.6806,12.6335,29.6044,-0.5696,0.4897,0.0287,-37.9155
16:30:53:803,1.648,1.1823,14.9343,29.8395,-0.658,-0.3929,-0.4141,-37.9155
16:30:53:823,1.2681,-0.304,15.4356,30.2137,-0.0543,-0.8091,-0.7144,-37.9155
16:30:53:843,0.3221,-1.0576,13.6377,30.7602,0.5834,-0.5366,-0.6228,-37.9155
16:30:53:864,0.1562,-0.9938,11.6971,31.6553,0.6026,-0.2619,-0.3045,-37.9155
16:30:53:883,0.8838,-0.2774,10.6947,32.6761,0.3567,-0.1735,-0.1725,-37.9155
16:30:53:903,1.2263,0.87,9.7346,33.2789,0.2246,-0.033,-0.3119,-37.9155
16:30:53:926,1.1475,1.3247,8.5357,34.0268,0.1831,0.2406,-0.6186,-37.9155
16:30:53:944,0.5571,1.6097,7.5053,34.487,0.2715,0.4706,-0.8123,-37.9155
16:30:53:964,0.1969,1.5914,6.5273,34.7306,0.4301,0.494,-0.8581,-37.7992
16:30:53:983,0.0925,1.5785,5.7367,34.6457,0.511,0.2385,-0.8677,-37.6564
16:30:54:003,0.2993,1.5558,5.3768,34.3457,0.5313,-0.049,-0.8911,-37.4911
16:30:54:025,0.5351,1.5315,5.3476,34.2298,0.5398,-0.2395,-0.9827,-37.2969
16:30:54:043,0.45,1.5943,5.3878,33.8454,0.4056,-0.3588,-1.1115,-37.0763
16:30:54:064,0.118,1.4618,5.8351,33.8391,0.1608,-0.3588,-1.1328,-36.8227
16:30:54:083,-0.0458,1.1848,6.7447,33.7911,-0.1416,-0.2395,-0.9901,-36.5376
16:30:54:103,0.152,1.6179,7.9855,33.792,-0.3332,-0.1267,-0.9039,-36.2237
16:30:54:123,0.182,2.1032,9.0206,33.5588,-0.3141,-0.0224,-0.9081,-35.8865
16:30:54:143,-0.0995,2.4878,9.6367,33.6604,-0.1331,0.0703,-0.8975,-35.5288
16:30:54:163,-0.6677,2.9539,9.6777,33.8095,0.0724,0.1544,-0.7783,-35.1493
16:30:54:183,-0.9325,3.4736,9.7003,33.8963,0.0916,0.1033,-0.6058,-34.7528
16:30:54:203,-0.9072,3.8491,10.2086,33.8623,-0.0479,-0.082,-0.5142,-34.3539
16:30:54:224,-0.5881,3.7609,11.5201,33.9528,-0.2183,-0.2821,-0.543,-33.9521
16:30:54:243,-0.2707,3.0675,12.8657,33.8665,-0.2545,-0.2736,-0.642,-33.5428
16:30:54:264,-0.74,2.7647,13.7008,33.9102,-0.1341,-0.1533,-0.6792,-33.1184
16:30:54:283,-1.2113,2.5112,13.7367,34.0156,0.2385,-0.0468,-0.6132,-32.6835
16:30:54:303,-1.0131,1.3718,13.1954,34.348,0.3407,-0.4216,-0.7112,-32.2432
16:30:54:323,-0.8038,-0.3346,13.3843,34.383,0.2726,-0.8794,-0.9358,-31.7938
16:30:54:343,-1.1473,-1.0227,13.0928,34.4724,0.4525,-0.7538,-0.8528,-31.322
16:30:54:365,-0.9818,-0.8797,11.8674,34.5347,0.6079,-0.5036,-0.626,-30.8325
16:30:54:383,0.142,-0.7058,10.5406,34.5558,0.3503,-0.5941,-0.6824,-30.3367
16:30:54:405,1.1459,-0.8992,9.6355,34.3903,-0.1586,-0.6143,-1.0029,-29.8291
16:30:54:424,0.8085,-0.7448,9.0708,34.4895,-0.5142,-0.363,-1.3053,-29.2897
16:30:54:443,-0.0286,-0.6814,8.8348,34.173,-0.4919,0.0053,-1.2925,-28.7197
16:30:54:463,-0.2423,-0.7917,8.1673,34.3641,-0.1544,0.2246,-1.0827,-28.1202
16:30:54:483,-0.2527,-0.5363,7.1763,34.1473,0.2204,0.2108,-0.8453,-27.503
16:30:54:519,-0.015,-0.0667,6.2798,33.9851,0.4983,0.0554,-0.7069,-26.8777
16:30:54:526,0.1719,0.6159,5.762,34.3756,0.5877,-0.2289,-0.7474,-26.2488
16:30:54:543,0.3032,1.0819,5.2061,34.5383,0.5227,-0.3833,-0.9018,-25.6115
16:30:54:563,0.1536,1.5357,4.9596,34.7162,0.1267,-0.4546,-1.1328,-24.9589
16:30:54:582,-0.1575,1.6368,6.0362,35.1534,-0.4131,-0.5164,-1.3468,-24.2788
16:30:54:603,-0.3464,1.4222,7.7248,35.1807,-0.6846,-0.4365,-1.4543,-23.5747
16:30:54:623,-0.466,1.4251,9.1588,35.251,-0.6675,-0.23,-1.5544,-22.837
16:30:54:643,-0.8048,1.5643,9.9318,35.4849,-0.5153,0.0277,-1.6481,-22.0629
16:30:54:663,-1.3133,1.423,10.3826,35.3645,-0.4163,0.1852,-1.6715,-21.2523
16:30:54:683,-2.0934,1.4703,10.809,35.3857,-0.3173,0.3194,-1.5171,-20.4003
16:30:54:703,-2.3796,1.943,11.0418,35.38,-0.2076,0.2896,-1.2552,-19.532
16:30:54:723,-2.1987,2.4354,11.4752,35.3705,-0.2065,0.1182,-1.0891,-18.651
16:30:54:743,-1.9239,2.6728,12.219,35.2543,-0.1416,-0.0703,-0.9763,-17.7629
16:30:54:763,-1.5859,2.3244,12.8428,35.4318,0.1341,-0.2044,-0.8879,-16.871
16:30:54:786,-1.4676,1.9955,12.7879,35.5389,0.4929,-0.3843,-0.7474,-15.9785
16:30:54:803,-0.5921,2.0948,12.1614,35.3729,0.5504,-0.6324,-0.6037,-15.0905
16:30:54:823,1.6379,0.3529,12.6153,35.2412,0.0639,-1.1967,-0.9039,-14.2055
16:30:54:843,2.4333,-1.3005,13.8787,35.0683,-0.1043,-1.1339,-1.3106,-13.3148
16:30:54:863,1.912,-2.0278,13.1527,34.9239,0.3801,-0.4429,-1.4916,-12.3944
16:30:54:885,1.0602,-1.9676,10.7169,34.9241,0.6643,0.1554,-1.3308,-11.443
16:30:54:903,0.9056,-1.1673,8.8269,34.8341,0.4354,0.2076,-1.1796,-10.4728
16:30:54:923,0.8948,-0.1159,7.9523,35.0283,0.0671,-0.0021,-1.2456,-9.4905
16:30:54:943,0.7155,0.5362,7.6045,35.2039,-0.1544,-0.0756,-1.4745,-8.4913
16:30:54:964,0.2861,0.7299,7.3049,35.5248,-0.1821,0.0617,-1.7183,-7.4658
16:30:54:984,-0.3641,0.5206,6.9641,35.7282,-0.0756,0.2023,-1.8131,-6.4039
16:30:55:003,-1.0812,0.3098,6.5213,35.9219,-0.0256,0.0596,-1.7386,-5.3176
16:30:55:023,-1.5925,0.4038,6.6887,35.6864,-0.0511,-0.3087,-1.5299,-4.2041
16:30:55:043,-1.4852,0.6536,7.129,35.5248,0.1363,-0.5302,-1.2031,-3.0833
16:30:55:066,-1.0682,1.1349,7.1874,35.6947,0.3822,-0.5206,-1.005,-1.9523
16:30:55:083,-0.8204,1.6831,6.9352,35.8637,0.3907,-0.4088,-0.9614,-0.823
16:30:55:104,-0.7997,2.1378,6.9598,36.0298,0.1405,-0.3811,-1.0242,0.3095
16:30:55:123,-1.072,2.3425,7.6559,36.1834,-0.1863,-0.5068,-1.07,1.4474
16:30:55:143,-1.3356,2.2004,8.637,36.3914,-0.4152,-0.5717,-0.972,2.5898
16:30:55:166,-1.3618,2.1891,9.4046,36.4585,-0.5078,-0.4163,-0.7857,3.7276
16:30:55:183,-1.1838,2.3221,9.6615,36.4565,-0.5345,0.0128,-0.6015,4.8627
16:30:55:203,-1.2373,2.4675,9.4329,36.3635,-0.6824,0.5259,-0.4887,5.9864
16:30:55:223,-1.8811,2.7012,9.6176,36.4909,-0.971,0.5451,-0.3865,7.0911
16:30:55:243,-1.9286,2.336,10.9216,36.3508,-1.2084,0.1043,-0.264,8.1702
16:30:55:265,-1.1121,1.5372,13.3214,36.353,-1.1317,-0.1522,-0.2555,9.2187
16:30:55:283,-0.8857,1.0106,14.7418,36.4903,-0.8283,0.1544,-0.3726,10.243
16:30:55:303,-1.8071,0.8122,15.229,36.6721,-0.4802,0.741,-0.3535,11.2499
16:30:55:323,-2.2831,-0.2517,15.1146,36.5617,-0.0362,0.7921,-0.2779,12.2337
16:30:55:343,-2.3702,-1.7928,14.4425,36.8302,0.3769,0.3013,-0.3258,13.1911
16:30:55:364,-2.6598,-2.7363,13.6364,37.0444,0.7591,-0.2193,-0.3109,14.1263
16:30:55:383,-2.8698,-2.9047,12.5385,37.1442,1.1179,-0.4088,-0.0767,15.0449
16:30:55:403,-2.6802,-2.5599,11.0137,37.093,1.2371,-0.461,0.197,15.936
16:30:55:423,-2.1284,-1.9427,9.8017,37.3573,0.9901,-0.3439,0.3322,16.7991
16:30:55:443,-1.524,-1.6638,9.0174,37.2407,0.626,-0.1054,0.329,17.6326
16:30:55:463,-1.4236,-1.3125,8.224,37.2163,0.3449,0.1831,0.264,18.4372
16:30:55:484,-1.7775,-0.6164,7.3703,37.1795,0.2065,0.412,0.3205,19.2126
16:30:55:503,-1.6596,-0.3033,6.763,37.1494,0.2119,0.4035,0.4674,19.9525
16:30:55:523,-1.1947,-0.1438,6.5752,36.8592,0.363,0.3535,0.5132,20.6527
16:30:55:546,-1.047,-0.1141,5.9213,36.9899,0.4929,0.3545,0.5068,21.3151
16:30:55:564,-1.1848,0.0603,5.5349,37.0995,0.4993,0.1842,0.544,21.94
16:30:55:583,-1.3716,0.452,5.6323,37.1826,0.5419,-0.1586,0.6601,22.524
16:30:55:603,-1.1252,0.9777,5.9494,37.2851,0.5302,-0.4014,0.7453,23.0656
16:30:55:623,-0.1099,1.1746,6.5798,37.4012,0.3013,-0.6867,0.6303,23.5655
16:30:55:645,0.4877,1.4225,7.6622,37.3859,0.0096,-0.9018,0.1565,24.033
16:30:55:663,0.1329,1.1051,8.9406,37.7365,-0.0245,-0.8038,-0.2885,24.4884
16:30:55:683,-0.6524,1.0942,9.5227,38.0883,0.1448,-0.4546,-0.4812,24.9513
16:30:55:703,-1.2777,1.3012,9.2933,38.5072,0.0852,0.0426,-0.5121,25.4191
16:30:55:723,-1.1753,1.2598,9.3925,38.6785,-0.3577,0.362,-0.4599,25.8971
16:30:55:744,-0.9097,1.5817,10.6571,38.8006,-0.8251,0.4706,-0.5738,26.3808
16:30:55:763,-1.2575,1.8368,12.0523,38.8523,-0.8432,0.4716,-0.7921,26.8707
16:30:55:783,-1.9856,1.7585,12.5439,38.9909,-0.5664,0.6218,-0.8006,27.3716
16:30:55:803,-2.3604,1.9671,12.0997,39.1084,-0.3971,0.757,-0.5664,27.8813
16:30:55:823,-1.4424,1.2842,12.2206,39.4351,-0.4961,0.4695,-0.4312,28.3891
16:30:55:844,-0.9671,0.5486,13.1829,39.5534,-0.5568,0,-0.5366,28.8908
16:30:55:864,-1.101,-0.1281,13.5503,39.9949,-0.2938,-0.2033,-0.5164,29.3899
16:30:55:883,-1.2017,-0.9379,13.0693,39.7314,0.1097,-0.1533,-0.313,29.8869
16:30:55:903,-0.8004,-1.2644,12.0748,39.7092,0.3077,-0.1757,0.0075,30.3758
16:30:55:928,-0.0713,-0.7292,11.2132,39.4596,0.3162,-0.2779,0.1565,30.848
16:30:55:943,0.4732,-0.095,10.3051,39.2471,0.2608,-0.3098,0.0447,31.3033
16:30:55:965,0.3992,0.3524,9.0813,39.0817,0.2257,-0.148,-0.1714,31.7478
16:30:55:983,0.0817,0.5849,7.7067,38.8034,0.1884,0.1001,-0.3109,32.1903
16:30:56:003,-0.1659,0.7476,6.5628,38.8815,0.1501,0.2779,-0.3662,32.6338
16:30:56:025,-0.3461,0.8573,5.9067,39.1281,0.1427,0.3151,-0.4067,33.0789
16:30:56:044,-0.6072,0.6956,5.8186,39.2884,0.23,0.0745,-0.4514,33.5223
16:30:56:064,-0.6874,0.5833,5.3412,39.8913,0.4333,-0.1661,-0.4376,33.9654
16:30:56:083,-0.8472,0.6726,4.8881,40.4491,0.3609,-0.3641,-0.4184,34.4135
16:30:56:103,-1.0537,0.7064,5.4974,40.4284,0.0894,-0.4205,-0.3524,34.8646
16:30:56:124,-0.9968,0.8127,6.5033,40.6389,-0.1246,-0.1895,-0.2906,35.3156
16:30:56:143,-1.2424,1.137,7.7541,40.7997,-0.3279,0.0298,-0.2917,35.7661
16:30:56:164,-1.798,1.5612,8.9033,40.6297,-0.4482,0.1735,-0.2662,36.2138
16:30:56:183,-2.5827,1.8289,10.0918,40.9512,-0.4535,0.1799,-0.1427,36.6533
16:30:56:203,-2.8758,1.9769,11.03,40.9452,-0.4131,0.1491,0.0873,37.0811
16:30:56:224,-2.7885,1.999,12.0353,40.9747,-0.378,0.2449,0.2906,37.4895
16:30:56:243,-2.9944,2.2172,13.1218,41.3217,-0.2875,0.4674,0.4855,37.8731
16:30:56:263,-2.8522,2.1341,13.8576,41.6341,-0.2119,0.5568,0.6452,38.2254
16:30:56:283,-2.6028,1.7995,14.6331,42.0257,-0.1107,0.593,0.7048,38.5428
16:30:56:304,-2.7835,1.6917,14.8733,42.3005,0.3109,0.6111,0.8368,38.8223
16:30:56:323,-2.6178,1.2659,13.9348,42.2908,0.906,0.3418,0.9497,39.0588
16:30:56:344,-1.9952,-0.009,12.0715,42.1716,1.2659,-0.2726,0.824,39.254
16:30:56:363,-1.4907,-1.0458,10.7458,42.316,1.0742,-0.9081,0.5749,39.4192
16:30:56:383,-1.2526,-1.6358,10.582,42.2767,0.6814,-1.0199,0.3567,39.5684
16:30:56:406,-1.4869,-1.701,10.2132,42.5012,0.5217,-0.6803,0.2789,39.7096
16:30:56:424,-1.6582,-1.5356,9.1541,42.7797,0.3439,-0.2853,0.296,39.8447
16:30:56:443,-1.4512,-1.3325,7.9656,43.1616,0.0405,-0.0138,0.3343,39.9706
16:30:56:463,-1.2005,-0.7944,7.0943,43.3565,-0.264,0.2087,0.3407,40.0852
16:30:56:483,-0.9923,-0.2497,6.3047,43.5239,-0.4929,0.3694,0.2821,40.1872
16:30:56:505,-1.1194,0.1699,5.7492,43.5066,-0.577,0.4961,0.263,40.1872
16:30:56:538,-1.3154,0.4566,5.7571,43.4959,-0.4929,0.4386,0.3471,40.1872
16:30:56:545,-1.4694,1.0294,5.6021,43.3628,-0.247,0.2864,0.4472,40.1872
16:30:56:563,-1.4354,1.6754,5.3634,43.4165,-0.1171,0.0309,0.4237,40.1872
16:30:56:583,-1.2426,1.6106,5.9532,43.4284,-0.2811,-0.2055,0.23,40.1872
16:30:56:603,-1.5386,1.1985,7.624,43.7698,-0.3449,-0.3151,0.0554,40.1872
16:30:56:623,-1.8951,0.8475,9.1856,44.2116,-0.1821,-0.3577,0.0075,40.1872
16:30:56:643,-1.938,0.5196,10.0624,44.3168,0.1086,-0.2491,0.0554,40.1872
16:30:56:663,-1.7407,0.4957,10.3093,44.6299,0.2183,-0.0245,0.0958,40.1872
16:30:56:682,-1.3855,0.5548,10.744,44.6896,0.1256,0.1789,0.0256,40.1872
16:30:56:703,-1.3809,0.7129,11.5266,44.8188,0.0341,0.2427,-0.131,40.1872
16:30:56:723,-1.6831,0.9914,11.9849,44.8046,0.0735,0.3002,-0.0798,40.1872
16:30:56:743,-1.5764,1.611,12.243,45.1512,0.0266,0.3801,0.1586,40.1872
16:30:56:764,-1.0259,2.0888,12.8694,45.2725,0.0564,0.3939,0.3183,40.1872
16:30:56:786,-0.9777,3.0795,13.1595,45.6056,0.3087,0.1246,0.3843,40.1872
16:30:56:803,0.004,3.2545,12.7447,45.7082,0.2885,-0.3854,0.3662,40.1872
16:30:56:824,1.0522,2.1269,13.122,46.0279,0.083,-0.6824,0.0586,40.1872
16:30:56:843,0.8893,1.1936,13.2466,45.8701,0.2768,-0.5185,-0.247,40.1872
16:30:56:864,0.157,0.3308,11.8578,45.6065,0.6345,-0.3024,-0.445,40.1872
16:30:56:885,-0.588,0.0845,10.1132,45.2709,0.6143,-0.3268,-0.4589,40.1872
16:30:56:903,-0.4804,0.1167,9.3109,45.0538,0.2885,-0.5653,-0.4152,40.1872
16:30:56:923,0.1412,0.1968,8.9814,44.6886,-0.0437,-0.6186,-0.4929,40.1872
16:30:56:943,0.2396,0.4218,8.2958,44.7789,-0.2513,-0.3801,-0.6899,40.1872
16:30:56:964,-0.1517,0.5355,7.4131,44.3469,-0.3577,-0.0064,-0.8538,40.1872
16:30:56:985,-0.7216,0.6005,6.4564,44.5496,-0.3535,0.3077,-0.9156,40.3111
16:30:57:003,-1.1891,0.4817,5.7897,44.7858,-0.2928,0.3056,-0.8762,40.4604
16:30:57:023,-1.3992,0.3416,5.6208,44.7443,-0.2246,-0.0341,-0.7932,40.6323
16:30:57:043,-1.4714,0.3957,6.0047,44.8594,-0.0383,-0.3215,-0.6707,40.8185
16:30:57:067,-1.2129,0.575,5.7969,44.9391,0.148,-0.2747,-0.4738,41.0222
16:30:57:084,-0.9469,0.7915,5.7986,44.7195,0.099,-0.148,-0.3641,41.2367
16:30:57:103,-0.6919,1.085,6.7027,44.8252,-0.0873,-0.1384,-0.3194,41.4569
16:30:57:123,-0.5144,1.3699,7.9106,45.217,-0.2108,-0.2044,-0.4386,41.6829
16:30:57:143,-1.0746,1.5637,8.939,45.6302,-0.2438,-0.2864,-0.5611,41.9181
16:30:57:166,-1.7809,1.5541,9.7702,45.8514,-0.297,-0.2608,-0.494,42.1656
16:30:57:183,-2.2019,1.5134,10.8644,46.2273,-0.3535,-0.1789,-0.2608,42.4231
16:30:57:203,-2.2364,1.7663,12.0455,46.4716,-0.2875,-0.0043,-0.0053,42.6784
16:30:57:223,-2.303,2.405,12.5855,46.8037,-0.1746,0.0916,0.1672,42.9227
16:30:57:243,-1.9616,2.4652,12.8673,47.1801,-0.2055,-0.0117,0.2651,43.1523
16:30:57:264,-1.567,2.24,13.705,47.5708,-0.263,-0.0543,0.2715,43.3652
16:30:57:283,-1.4895,2.0123,14.2968,47.6588,0.0181,0.2193,0.2949,43.5619
16:30:57:303,-2.1724,1.9748,13.6125,47.9214,0.5632,0.5121,0.4131,43.7407
16:30:57:323,-2.4473,1.7994,11.8393,47.9556,0.9699,0.1938,0.5589,43.8933
16:30:57:343,-1.9038,0.8644,10.4367,47.9962,0.9454,-0.6026,0.4727,44.0168
16:30:57:364,-1.6633,-0.2233,10.2501,48.0588,0.6782,-1.2946,0.2853,44.119
16:30:57:383,-1.4794,-0.758,10.4773,47.969,0.5345,-1.5682,0.2608,44.2111
16:30:57:403,-1.1261,-0.9309,10.1155,47.6374,0.4173,-1.3542,0.2917,44.2111
16:30:57:423,-0.7228,-1.0511,9.4033,46.952,0.2002,-0.9241,0.3109,44.2111
16:30:57:443,-0.1728,-1.2261,8.3525,46.3681,-0.2332,-0.5046,0.2992,44.2111
16:30:57:465,-0.1451,-0.9861,7.7969,46.0064,-0.7612,-0.0128,0.2981,44.2111
16:30:57:483,-0.434,-0.2863,7.4363,45.8031,-0.988,0.5227,0.3716,44.2111
16:30:57:503,-0.5157,0.0776,7.0004,45.4837,-0.8943,0.8698,0.4344,44.2111
16:30:57:523,-0.5224,0.3948,6.428,45.4667,-0.6505,1.0881,0.4727,44.2111
16:30:57:544,-0.7824,0.5981,5.9104,45.1875,-0.4024,1.0934,0.4908,44.2111
16:30:57:564,-1.1612,0.6488,5.7087,45.0946,-0.2438,0.8517,0.543,44.2111
16:30:57:583,-1.2105,0.77,5.6936,45.1664,-0.1405,0.4514,0.6367,44.2111
16:30:57:603,-0.8189,0.7895,6.5514,45.0646,-0.132,0.0021,0.6005,44.2111
16:30:57:623,-0.5076,0.934,8.2509,45.2998,-0.1725,-0.3833,0.4429,44.2111
16:30:57:644,-0.1983,0.6171,9.8283,45.4042,-0.1182,-0.6196,0.2129,44.2111
16:30:57:663,-0.3609,0.6985,11.1103,45.2532,-0.1129,-0.4493,-0.0053,44.2111
16:30:57:683,-0.6071,0.9542,11.7228,45.4393,-0.0405,0.0298,-0.0979,44.2111
16:30:57:703,-0.5003,0.8524,11.7161,45.6637,-0.1735,0.4578,-0.1735,44.2111
16:30:57:723,-0.7136,0.9819,12.3556,45.7711,-0.4961,0.7719,-0.2811,44.2111
16:30:57:745,-1.284,0.996,13.4577,46.0417,-0.5366,0.9646,-0.3545,44.2111
16:30:57:764,-2.0357,0.9525,13.9384,46.1711,-0.1437,0.9337,-0.2523,44.2111
16:30:57:783,-2.7312,1.7059,13.4363,45.9658,0.3141,0.8507,0.0884,44.2111
16:30:57:803,-1.9338,2.0362,12.3224,45.762,0.3375,0.5643,0.3822,44.2111
16:30:57:823,-0.174,0.7545,12.7236,45.6283,0.0106,0.1693,0.2949,44.2111
16:30:57:844,0.1186,-0.3142,13.1522,44.9146,0.3875,-0.1757,0.0426,44.2111
16:30:57:864,-0.5257,-0.7399,11.4037,44.5182,0.7942,-0.3343,-0.0841,44.2111
16:30:57:883,-0.7302,-1.0525,9.7257,43.9016,0.643,-0.4631,-0.0362,44.2111
16:30:57:903,-0.3247,-0.9003,9.2199,43.2912,0.2278,-0.5057,0.0532,44.2111
16:30:57:924,0.3349,-0.3534,9.2584,42.88,-0.0798,-0.3854,-0.0032,44.2111
16:30:57:943,0.5075,0.0244,8.7272,42.568,-0.1448,-0.0649,-0.1948,44.2111
16:30:57:965,0.2056,0.2351,7.5741,42.3977,-0.1714,0.3141,-0.3758,44.2111
16:30:57:983,-0.243,0.4497,6.4928,42.6378,-0.2076,0.5345,-0.4578,44.2111
16:30:58:003,-0.5546,0.6022,5.925,42.5883,-0.1938,0.5536,-0.4791,44.2111
16:30:58:026,-0.7684,0.7516,5.9655,42.5597,-0.0543,0.296,-0.4684,44.2111
16:30:58:043,-0.8139,0.8103,6.0096,42.8652,0.2033,-0.0117,-0.4259,44.2111
16:30:58:063,-0.6039,0.9643,5.5515,42.6707,0.3673,-0.1789,-0.3567,44.2111
16:30:58:083,-0.5249,1.2322,5.8611,42.7005,0.2427,-0.4237,-0.363,44.2111
16:30:58:104,-0.3393,1.2768,6.8034,42.7623,0.0756,-0.6569,-0.4024,44.2111
16:30:58:125,-0.8054,1.3227,8.3027,42.8775,-0.0905,-0.7208,-0.4333,44.2111
16:30:58:145,-1.3416,1.5028,9.7931,42.7195,-0.0596,-0.6569,-0.2726,44.2111
16:30:58:163,-1.1169,1.592,10.4297,42.8008,0.0351,-0.3971,-0.0745,44.2111
16:30:58:183,-1.1137,1.8329,10.9745,42.76,-0.0564,-0.197,-0.0479,44.302
16:30:58:203,-1.7204,2.343,11.8538,42.6941,-0.0021,-0.2044,-0.0064,44.302
16:30:58:224,-1.9042,2.2976,12.2463,42.9052,0.0852,-0.2651,0.1224,44.302
16:30:58:243,-1.6008,1.9124,12.8576,42.9449,-0.0032,-0.2012,0.2757,44.302
16:30:58:263,-1.283,1.9189,13.7942,42.757,-0.082,0.0277,0.3407,44.302
16:30:58:283,-1.3725,2.0484,14.4227,42.5259,0.1544,0.3119,0.3183,44.302
16:30:58:303,-1.3503,1.1802,13.5759,42.6104,0.5313,0.0426,0.1735,44.302
16:30:58:323,-1.3247,-0.2219,12.5095,42.6032,0.5792,-0.4972,-0.0245,44.302
16:30:58:343,-1.8309,-0.6816,11.9044,42.4062,0.6548,-0.5568,-0.0032,44.302
16:30:58:363,-1.883,-0.8026,10.6705,42.285,0.7623,-0.4152,0.181,44.302
16:30:58:383,-1.4537,-0.7008,9.187,42.2046,0.5334,-0.3279,0.2864,44.302
16:30:58:406,-1.0673,-0.4942,8.4766,42.0175,0.066,-0.2587,0.2278,44.302
16:30:58:423,-0.791,-0.4001,8.049,41.964,-0.3183,-0.083,0.131,44.302
16:30:58:443,-0.9893,-0.1551,7.4859,42.0226,-0.5856,0.3013,0.1427,44.302
16:30:58:464,-1.1402,-0.139,7.0375,41.8878,-0.659,0.5738,0.2321,44.302
16:30:58:484,-1.136,-0.2161,6.4635,41.8028,-0.5675,0.6047,0.3652,44.302
16:30:58:505,-1.0451,0.0418,5.957,41.4839,-0.4408,0.4376,0.5121,44.302
16:30:58:553,-0.9264,0.5305,5.8538,41.4345,-0.2917,0.2225,0.6239,44.302
16:30:58:555,-0.7195,0.9072,6.0349,41.3231,-0.1235,0.0671,0.6473,44.302
16:30:58:564,-0.4076,1.0356,6.1601,41.2788,-0.1171,-0.0426,0.5717,44.302
16:30:58:583,-0.3338,0.9446,7.0395,41.3683,-0.3024,-0.478,0.3535,44.2073
16:30:58:603,-0.2582,0.663,8.5547,41.2505,-0.3056,-0.8294,0.214,44.1015
16:30:58:623,-0.1469,0.5656,10.0566,41.4134,-0.1852,-0.8624,0.1352,43.9915
16:30:58:643,0.0508,0.3592,11.1546,41.6046,-0.0053,-0.5036,0.099,43.8835
16:30:58:663,0.2628,0.661,11.5011,41.674,0.0628,0,0.0202,43.781
16:30:58:683,0.4857,0.7502,11.7391,41.7606,-0.0916,0.197,-0.1554,43.685
16:30:58:704,0.4552,0.8877,12.4214,41.719,-0.3471,0.1948,-0.3726,43.685
16:30:58:723,0.0571,0.9769,13.5979,41.8488,-0.3907,0.3311,-0.478,43.685
16:30:58:743,-0.4863,1.0781,14.1045,41.9856,-0.0128,0.5973,-0.4653,43.685
16:30:58:764,-1.2008,2.0203,13.1918,42.0405,0.3811,0.7037,-0.2789,43.685
16:30:58:786,-0.3291,1.8752,12.2122,42.1353,0.2619,0.4493,-0.198,43.685
16:30:58:803,0.3358,0.7703,12.6354,41.9283,0.066,0.1767,-0.4514,43.685
16:30:58:825,-0.3969,-0.0466,12.5228,41.8853,0.3822,0.0788,-0.5004,43.685
16:30:58:843,-0.813,-0.6535,11.1168,41.6166,0.593,-0.0415,-0.3545,43.685
16:30:58:864,-0.6317,-0.8215,9.9535,41.0043,0.3843,-0.2012,-0.1469,43.685
16:30:58:884,0.2073,-0.5074,9.7112,40.6024,0.0128,-0.3418,-0.0224,43.685
16:30:58:903,0.917,-0.2471,9.5343,40.1175,-0.231,-0.2821,-0.1437,43.685
16:30:58:923,0.8602,-0.0468,8.7271,39.658,-0.3418,0.0128,-0.3386,43.685
16:30:58:943,0.1643,0.2304,7.6201,39.3479,-0.3513,0.3109,-0.4131,43.685
16:30:58:964,-0.2387,0.5053,6.6071,39.2928,-0.2608,0.3716,-0.362,43.685
16:30:58:985,-0.3442,0.6364,6.0029,39.3754,-0.1459,0.2097,-0.3194,43.685
16:30:59:003,-0.3041,0.8602,5.9058,39.398,0.0394,0.0309,-0.3247,43.685
16:30:59:023,-0.3343,0.9532,5.7646,39.6772,0.2406,-0.0852,-0.346,43.7787
16:30:59:043,-0.5377,1.05,5.6353,39.7881,0.3577,-0.0649,-0.3258,43.8815
16:30:59:063,-0.619,1.1169,5.6767,39.8168,0.2992,-0.1746,-0.2608,43.9917
16:30:59:084,-0.5762,1.2931,6.5156,40.3139,0.0202,-0.5291,-0.2523,44.1065
16:30:59:103,-0.4284,1.3061,8.2914,40.3679,-0.1586,-0.7623,-0.2662,44.226
16:30:59:123,-0.4122,1.3803,10.0461,40.5543,-0.1139,-0.577,-0.2406,44.3528
16:30:59:143,-0.5832,1.6775,11.1,40.7283,0.0224,-0.1757,-0.1565,44.4866
16:30:59:166,-0.8501,1.8848,11.6406,40.8653,0.0884,0.2555,-0.0181,44.6244
16:30:59:183,-1.3077,2.3717,12.0202,41.1404,0.1033,0.3907,0.1448,44.7569
16:30:59:203,-1.2472,2.6598,12.141,41.101,0.05,0.2364,0.3066,44.8796
16:30:59:223,-0.6308,2.4375,12.6056,41.397,-0.1522,0.0809,0.3503,44.9858
16:30:59:243,-0.3414,2.1772,13.9608,41.3545,-0.1895,0.1341,0.3087,45.0795
16:30:59:265,-0.8684,2.1465,14.4128,41.3408,0.2608,0.3897,0.3854,45.0795
16:30:59:283,-1.1087,1.9776,13.2054,41.492,0.7335,0.2715,0.4716,45.0795
16:30:59:303,-0.7177,0.9319,11.6383,41.5537,0.8081,-0.2214,0.3407,45.0795
16:30:59:323,-0.9163,0.2646,11.1111,41.3809,0.6345,-0.691,0.1246,45.0795
16:30:59:343,-1.0841,-0.2314,10.8656,41.3569,0.5451,-0.7772,0.0841,45.0795
16:30:59:364,-0.8742,-0.6297,10.2137,41.0626,0.4003,-0.5909,0.0905,45.0795
16:30:59:383,-0.464,-0.8033,9.2619,40.5423,0.0916,-0.3066,0.0394,45.0795
16:30:59:403,-0.0479,-1.0367,8.2871,40.4051,-0.3407,-0.0394,-0.1033,45.0795
16:30:59:423,-0.4376,-0.8888,7.5246,40.0466,-0.7272,0.2438,-0.1852,45.0795
16:30:59:443,-0.9426,-0.604,7.0859,39.757,-0.8656,0.4344,-0.1001,45.0795
16:30:59:464,-1.073,-0.5063,6.6718,39.8251,-0.7793,0.4919,0.0341,45.0795
16:30:59:483,-0.9535,-0.3238,6.4719,39.6895,-0.5824,0.5046,0.1693,45.0795
16:30:59:503,-1.0322,0.0261,6.0555,39.516,-0.3769,0.6569,0.2917,45.0795
16:30:59:523,-1.291,0.3265,5.9068,39.6073,-0.2427,0.6622,0.4035,45.0795
16:30:59:544,-1.4248,0.5391,6.1347,39.8903,-0.1299,0.4802,0.5057,45.0795
16:30:59:564,-1.0968,0.6638,6.8795,39.6206,-0.1448,0.0181,0.4834,45.0795
16:30:59:583,-0.8658,0.4399,8.5874,40.0237,-0.1288,-0.5004,0.3513,45.0795
16:30:59:603,-0.9298,0.3022,10.1371,40.0052,0.0724,-0.5153,0.3173,45.0795
16:30:59:623,-0.8032,0.6959,10.9005,39.8988,0.2928,-0.1757,0.3354,45.0795
16:30:59:644,-0.3959,0.8276,11.0358,40.0263,0.2459,0.23,0.2768,45.0795
16:30:59:663,-0.3368,1.013,11.6313,40.1667,-0.0266,0.3151,0.1097,45.0795
16:30:59:683,-0.7432,1.2086,12.7593,40.0207,-0.1725,0.494,0.0639,45.0795
16:30:59:703,-1.1329,1.5078,13.6532,40.2443,-0.1256,0.8219,0.1065,45.0795
16:30:59:723,-1.401,1.6707,13.8519,40.2173,0.1118,1.1466,0.1746,45.0795
16:30:59:745,-2.1332,2.5526,13.2298,40.0189,0.4823,1.1509,0.3279,45.0795
16:30:59:764,-1.9995,3.5081,11.7632,40.0716,0.6122,0.8145,0.5611,44.989
16:30:59:783,-0.0956,2.7154,11.4602,40.1467,0.4003,0.1906,0.4983,44.8762
16:30:59:803,0.9025,1.3755,11.5885,39.7792,0.4738,-0.4195,0.0266,44.75
16:30:59:823,0.1935,0.3822,10.4489,39.6045,0.5547,-0.5781,-0.3503,44.6338
16:30:59:845,-0.543,-0.1921,9.2485,39.2364,0.2694,-0.4993,-0.4078,44.536
16:30:59:864,-0.4942,-0.5165,8.9731,38.6012,-0.1927,-0.3673,-0.3268,44.536
16:30:59:883,-0.2026,-0.1152,9.1723,38.2321,-0.5462,-0.2161,-0.3311,44.536
16:30:59:903,0.034,0.2369,9.0999,37.9167,-0.6037,-0.0075,-0.4653,44.536
16:30:59:923,-0.2014,0.4038,8.1206,37.7354,-0.4802,0.2012,-0.6345,44.536
16:30:59:943,-0.7696,0.4584,6.931,38.0696,-0.4557,0.2715,-0.6792,44.536
16:30:59:963,-1.1804,0.3716,6.7698,37.9301,-0.378,0.1182,-0.5962,44.536
16:30:59:983,-1.0751,0.4177,7.2307,38.0646,0.0117,-0.0554,-0.478,44.536
16:31:00:007,-0.7745,0.6685,6.5474,38.2362,0.4631,-0.148,-0.4259,44.536
16:31:00:025,-0.4463,0.7952,5.6646,38.2504,0.4929,-0.3194,-0.4706,44.536
16:31:00:043,-0.6918,0.9286,6.0779,38.1861,0.3002,-0.5653,-0.5302,44.536
16:31:00:063,-1.0449,0.8816,7.0987,38.7635,0.2534,-0.7932,-0.4259,44.536
16:31:00:083,-0.7133,0.7914,8.0357,39.4082,0.1735,-1.0253,-0.2853,44.6373
16:31:00:103,0.1386,1,9.3542,39.7741,0.0138,-1.0689,-0.3109,44.7465
16:31:00:124,0.0984,1.424,10.432,40.021,-0.0064,-0.6494,-0.4248,44.8695
16:31:00:144,-0.6665,1.6198,10.6155,40.2637,0.0181,-0.0202,-0.3471,45.0099
16:31:00:163,-1.4687,2.08,10.5076,40.1337,-0.1437,0.3588,-0.1043,45.161
16:31:00:183,-1.7408,2.394,11.4719,39.7227,-0.3716,0.2576,0.1459,45.3068
16:31:00:203,-1.216,2.2763,13.0889,39.7644,-0.4205,-0.0458,0.2779,45.4417
16:31:00:224,-0.7004,2.2225,14.536,39.559,-0.1714,0.0128,0.3119,45.5608
16:31:00:243,-0.9538,2.4998,14.9484,39.4632,0.4961,0.4131,0.3258,45.6642
16:31:00:263,-1.3213,2.2181,13.3291,39.3658,1.0593,0.3769,0.2662,45.6642
16:31:00:283,-1.4582,1.1957,11.885,39.3826,1.0519,-0.2246,0.0405,45.6642
16:31:00:303,-2.1096,0.3143,11.6291,39.0607,0.856,-0.8187,-0.1278,45.6642
16:31:00:323,-2.3202,-0.3761,11.6215,39.0813,0.7112,-1.005,-0.1256,45.6642
16:31:00:343,-2.2658,-0.7306,11.0541,39.0463,0.6335,-0.807,0.0138,45.6642
16:31:00:363,-1.8374,-0.6666,10.0074,39.1417,0.4386,-0.4301,0.1629,45.6642
16:31:00:383,-1.0807,-0.6905,8.9827,39.1665,0.0767,-0.0277,0.2225,45.6642
16:31:00:403,-0.9143,-0.053,8.1179,39.4237,-0.2119,0.445,0.2385,45.6642
16:31:00:423,-0.9375,0.4388,7.0774,39.3215,-0.313,0.7985,0.2662,45.6642
16:31:00:443,-0.9383,0.5997,5.8804,39.3681,-0.2832,0.9305,0.313,45.6642
16:31:00:463,-1.0568,0.6543,5.0751,39.256,-0.2108,0.8741,0.4259,45.6642
16:31:00:483,-1.1346,0.8156,5.0692,39.2674,-0.115,0.6665,0.5866,45.6642
16:31:00:505,-0.8896,1.1788,5.4753,39.1684,0.0394,0.3929,0.7133,45.6642
16:31:00:523,-0.1591,1.5737,6.2194,39.1118,0.1437,0.3194,0.6622,45.6642
16:31:00:572,0.5395,1.9538,7.1851,39.3943,-0.0149,0.7314,0.3939,45.6642
16:31:00:574,0.0457,1.776,8.2361,39.2803,-0.3151,1.729,0.1256,45.6642
16:31:00:584,-1.1146,1.7535,9.1844,39.4892,-0.5653,2.1602,-0.0692,45.6642
16:31:00:603,-1.8747,1.8535,10.1238,39.542,-0.4546,1.861,-0.2406,45.6642
16:31:00:623,-2.43,2.0429,10.5262,39.6368,-0.1576,1.104,-0.4546,45.6642
16:31:00:643,-2.5099,1.725,10.6011,39.5416,0.0543,0.3673,-0.5824,45.6642
16:31:00:663,-2.3313,1.8034,10.4609,39.6617,-0.0979,0.1214,-0.6835,45.6642
16:31:00:683,-2.6812,2.1423,11.264,39.9254,-0.411,0.3843,-0.7516,45.6642
16:31:00:704,-3.3117,2.0053,12.2721,39.7214,-0.4173,0.5504,-0.7293,45.6642
16:31:00:723,-4.335,2.9878,12.3842,39.755,-0.2246,0.5802,-0.5675,45.6642
16:31:00:744,-3.9637,2.2887,12.3424,39.7034,-0.2545,0.1522,-0.5536,45.6642
16:31:00:764,-3.7322,0.5465,13.4102,39.6841,-0.1991,-0.5579,-0.6452,45.7605
16:31:00:785,-3.6026,-1.2103,13.2799,39.5597,0.1182,-0.6856,-0.4493,45.8694
16:31:00:803,-3.6876,-1.4486,12.1916,39.4405,0.3545,-0.4195,-0.1267,45.9891
16:31:00:823,-3.0678,-1.1418,10.9757,38.9271,0.3258,-0.3833,0.1746,46.1105
16:31:00:843,-1.8637,-0.9692,9.8718,38.1906,0.1352,-0.6058,0.2246,46.2214
16:31:00:863,-1.3425,-0.4463,8.5481,37.8784,-0.0373,-0.9167,0.1469,46.3211
16:31:00:885,-1.0687,0.0609,7.4003,37.5182,-0.0735,-1.2009,0.1086,46.3211
16:31:00:903,-0.7848,0.5146,6.5218,37.6317,-0.0277,-1.2733,0.116,46.3211
16:31:00:923,-0.5358,0.5914,5.5333,37.5811,-0.0256,-1.169,0.116,46.3211
16:31:00:943,-0.4629,0.6469,4.8677,37.7863,-0.2342,-1.0561,0.1363,46.3211
16:31:00:965,-0.1118,0.7824,5.7931,37.9404,-0.3726,-1.0093,0.0745,46.3211
16:31:00:984,0.2536,0.8601,6.9149,37.9505,-0.0096,-0.6037,-0.0437,46.3211
16:31:01:006,0.0861,0.8131,6.2312,37.8307,0.247,-0.1554,-0.1842,46.3211
16:31:01:023,-0.9752,1.1217,5.968,38.2889,0.0649,-0.1576,-0.1586,46.4115
16:31:01:043,-1.1595,1.3191,6.9963,38.4536,-0.099,-0.4418,0.0405,46.4115
16:31:01:063,-0.5068,1.5722,8.3861,38.6364,-0.116,-0.5302,0.1097,46.4115
16:31:01:083,-0.2486,2.1252,9.8987,39.0083,-0.0532,-0.2491,-0.0468,46.4115
16:31:01:103,-1.0432,2.6051,10.4606,39.1426,0.0426,0.1874,-0.131,46.5044
16:31:01:123,-1.9836,2.8311,10.5754,38.9084,-0.0138,0.378,-0.0053,46.6006
16:31:01:143,-1.988,2.9164,11.0865,39.1238,-0.2268,0.1395,0.1554,46.6915
16:31:01:166,-1.4131,2.6777,12.5232,39.1314,-0.4567,-0.1852,0.1852,46.6915
16:31:01:183,-1.2091,2.2264,14.8849,39.0356,-0.3865,-0.2002,0.1735,46.6915
16:31:01:203,-1.6598,1.7385,15.9953,39.0033,0.2353,0.2715,0.3748,46.6915
16:31:01:223,-2.0637,1.8501,14.7368,39.1856,0.9188,0.6761,0.7644,46.6915
16:31:01:243,-1.406,1.1829,12.7269,39.2847,1.1679,0.2928,0.7719,46.6915
16:31:01:266,-1.167,-0.0065,11.4602,39.241,1.0923,-0.4844,0.4152,46.6915
16:31:01:283,-1.4138,-0.9703,10.6799,39.2435,0.8986,-1.0157,0.231,46.6915
16:31:01:303,-1.5526,-1.1417,10.1163,39.0902,0.691,-0.9443,0.3194,46.6915
16:31:01:323,-1.3088,-0.6954,9.2629,38.7793,0.4269,-0.4834,0.4993,46.6915
16:31:01:343,-0.6347,-0.1939,8.3429,38.3891,0.0117,-0.0671,0.5174,46.6915
16:31:01:364,-0.0674,0.2178,7.8448,38.4154,-0.5046,0.148,0.3013,46.6915
16:31:01:383,-0.4734,0.6748,7.761,37.949,-0.8091,0.3332,0.082,46.6915
16:31:01:403,-1.1207,0.7386,7.3839,38.1226,-0.8177,0.5238,0.0607,46.6915
16:31:01:423,-1.4045,0.7341,6.9979,38.2498,-0.6601,0.6345,0.2491,46.6915
16:31:01:442,-1.0869,0.6161,6.7494,38.304,-0.4216,0.7144,0.4376,46.6915
16:31:01:463,-0.865,0.6478,6.3339,38.5017,-0.148,0.8091,0.5025,46.5956
16:31:01:483,-0.7322,0.7454,5.7227,38.7368,0.0405,0.8017,0.4897,46.4834
16:31:01:503,-0.7909,1.0398,5.5043,38.7385,0.0224,0.5909,0.3961,46.3565
16:31:01:523,-0.58,1.0943,6.023,38.6074,-0.0575,0.3066,0.2417,46.2186
16:31:01:543,-0.4,0.8762,6.8767,38.6287,-0.1884,0.0522,0.0309,46.0755
16:31:01:564,-0.7328,0.5474,8.3674,38.8258,-0.1831,-0.2438,-0.1246,45.9344
16:31:01:583,-0.988,0.5974,9.4724,38.997,-0.1267,-0.5281,-0.1895,45.7989
16:31:01:603,-0.8766,1.0143,10.3362,39.4589,-0.2044,-0.4716,-0.2278,45.6757
16:31:01:623,-0.6523,1.4448,10.9833,39.7748,-0.363,0.0053,-0.2768,45.571
16:31:01:643,-0.8637,1.6857,11.8744,39.9627,-0.5994,0.3726,-0.3492,45.571
16:31:01:664,-1.5634,1.6481,13.3358,40.1821,-0.6079,0.3673,-0.3013,45.571
16:31:01:683,-2.2171,1.9162,14.205,40.1668,-0.28,0.2023,-0.1256,45.571
16:31:01:703,-2.2665,2.2032,13.6224,40.2733,0.0245,0.099,0.116,45.571
16:31:01:723,-1.287,1.3424,13.0468,40.3968,-0.0969,-0.1001,0.1054,45.571
16:31:01:744,-1.1213,0.3029,13.9441,40.3451,-0.0905,-0.3662,-0.1139,45.571
16:31:01:764,-1.3401,-0.6099,13.6008,40.0592,0.3151,-0.4653,-0.1246,45.571
16:31:01:783,-1.1883,-0.8755,12.2632,40.0075,0.5206,-0.4067,0.0213,45.571
16:31:01:803,-0.2988,-0.6915,11.2435,39.8594,0.3982,-0.33,0.1065,45.571
16:31:01:823,0.7087,-0.407,10.7104,39.5333,0.0756,-0.2193,-0.0586,45.571
16:31:01:843,0.9515,-0.3126,10.3022,39.2998,-0.0926,0.0596,-0.3811,45.571
16:31:01:863,0.34,-0.2389,9.1043,39.0203,-0.0532,0.4195,-0.6281,45.571
16:31:01:883,-0.5347,-0.2124,7.5918,39.0367,0.05,0.6335,-0.6601,45.571
16:31:01:903,-1.1166,-0.0244,6.379,39.2616,0.1895,0.6026,-0.5142,45.571
16:31:01:923,-1.2225,0.2364,5.6279,39.6045,0.3418,0.3545,-0.3684,45.571
16:31:01:943,-1.1296,0.5173,5.0811,39.914,0.4897,0.1001,-0.2821,45.571
16:31:01:963,-1.1286,0.6364,4.6899,40.4981,0.5611,-0.0948,-0.2161,45.571
16:31:01:983,-1.0208,0.7911,4.5093,40.6558,0.5174,-0.1384,-0.132,45.571
16:31:02:004,-0.9195,0.9118,4.6014,40.6359,0.2183,-0.2087,-0.1171,45.571
16:31:02:023,-1.0326,1.3105,5.7415,40.6399,-0.1821,-0.33,-0.1554,45.571
16:31:02:043,-1.2859,1.7733,7.2778,40.8647,-0.4152,-0.4152,-0.1363,45.571
16:31:02:063,-1.3481,1.9533,8.8694,41.0012,-0.5185,-0.4631,-0.0777,45.571
16:31:02:083,-1.3567,2.0791,10.4079,41.5548,-0.4961,-0.3897,0.0032,45.571
16:31:02:103,-1.3919,2.129,11.7324,41.4741,-0.3769,-0.1693,0.1086,45.571
16:31:02:124,-1.5323,2.3327,12.4751,41.9239,-0.2129,0.148,0.2289,45.571
16:31:02:143,-1.6225,2.5839,12.6941,42.2976,-0.1714,0.2917,0.3492,45.571
16:31:02:163,-1.3037,2.3988,13.187,42.3448,-0.329,0.2598,0.4035,45.571
16:31:02:183,-1.2318,2.0418,14.3532,42.3426,-0.3662,0.247,0.4184,45.571
16:31:02:203,-1.6888,2.1223,14.9098,42.6912,0.0607,0.2608,0.5206,45.571
16:31:02:224,-1.5301,1.43,13.6626,42.8247,0.478,0.0224,0.577,45.571
16:31:02:243,-1.307,0.1806,12.311,43.096,0.6569,-0.3481,0.4642,45.571
16:31:02:263,-1.7142,-0.1029,11.0726,43.1245,0.7378,-0.5792,0.4003,45.571
16:31:02:283,-1.8033,-0.1219,9.6717,43.3051,0.5866,-0.6069,0.395,45.571
16:31:02:303,-1.5379,-0.1987,8.7375,43.2029,0.1331,-0.5557,0.2981,45.571
16:31:02:323,-1.1808,-0.4653,8.6304,42.8349,-0.3897,-0.4248,0.1054,45.571
16:31:02:344,-0.9954,-0.9892,8.6381,42.7166,-0.7804,-0.33,-0.115,45.571
16:31:02:364,-1.3324,-0.9079,8.5523,42.7925,-0.9614,-0.1544,-0.1629,45.571
16:31:02:383,-1.6272,-0.7292,8.2984,43.0295,-0.8251,0.0138,-0.0362,45.571
16:31:02:403,-1.7138,-0.6288,7.714,42.9184,-0.4823,0.1363,0.1821,45.571
16:31:02:423,-1.5669,-0.4735,6.7335,43.0857,-0.0979,0.3141,0.4642,45.571
16:31:02:443,-1.3073,0.0597,5.7002,43.2932,0.1597,0.395,0.6995,45.4735
16:31:02:464,-1.0071,0.7224,5.2105,43.349,0.2789,0.3279,0.823,45.3518
16:31:02:483,-0.7669,1.2469,5.5385,43.323,0.3056,0.066,0.7804,45.2025
16:31:02:505,-0.4001,1.4541,6.5231,43.3822,0.2491,-0.4248,0.5898,45.0275
16:31:02:523,-0.2113,1.6798,7.7052,43.7366,0.1001,-0.9603,0.3513,44.8358
16:31:02:566,0.3144,1.68,9.1628,44.0379,-0.0298,-1.0785,0.116,44.6385
16:31:02:568,0.4779,1.7014,10.6506,44.4349,0.017,-0.9209,-0.1405,44.4474
16:31:02:583,0.5934,1.5061,11.311,44.8889,0.1874,-0.8123,-0.3684,44.2721
16:31:02:604,0.8048,1.3537,11.7624,45.1854,0.1459,-0.8443,-0.6122,44.1135
16:31:02:623,0.7396,1.5905,12.3767,45.4425,-0.0362,-0.7091,-0.7878,43.9895
16:31:02:643,0.598,1.5643,13.1227,45.6931,-0.2023,-0.2715,-0.8475,43.9895
16:31:02:664,0.1987,0.9925,13.3136,45.8535,-0.1842,0.1852,-0.725,43.9895
16:31:02:683,-0.3294,1.114,13.0447,45.8643,-0.0724,0.5036,-0.3024,43.9895
16:31:02:703,0.9835,0.6058,12.8608,45.9259,-0.0809,0.2523,-0.0394,43.9895
16:31:02:723,2.1119,-0.1936,13.1728,45.8077,-0.0298,-0.297,-0.2864,43.9895
16:31:02:743,1.6239,-0.5611,12.6295,45.7789,0.4078,-0.4482,-0.4865,43.9895
16:31:02:764,1.1451,-0.7995,11.0407,45.6569,0.625,-0.4706,-0.428,43.9895
16:31:02:783,1.3603,-0.722,9.9155,45.6975,0.4418,-0.6239,-0.2992,43.9895
16:31:02:803,2.0145,-0.2377,9.5268,45.2074,-0.033,-0.724,-0.2885,43.9895
16:31:02:823,2.099,0.3519,9.5281,45.023,-0.4535,-0.6026,-0.5025,43.9895
16:31:02:843,1.4337,0.6984,9.2025,44.9231,-0.5323,-0.1373,-0.6835,43.9895
16:31:02:863,0.5063,0.8236,8.4136,45.0334,-0.2779,0.3811,-0.7197,44.0805
16:31:02:885,-0.2477,0.8933,7.0572,44.8889,0.1778,0.5856,-0.576,44.1918
16:31:02:903,-0.4414,0.7918,5.6441,45.2409,0.4386,0.4067,-0.4237,44.3134
16:31:02:923,-0.4862,0.966,4.9067,45.5315,0.4525,-0.0021,-0.3801,44.4398
