Time,Acc_X,Acc_Y,Acc_Z,Meg,Gyr_X,Gyr_Y,Gyr_Z,Ore
16:27:45:525,-0.9881,1.6698,9.1903,34.3544,-0.3524,-0.5036,-0.0458,-63.3609
16:27:45:543,-0.6641,1.7489,9.4912,34.1661,-0.4269,-0.477,-0.0948,-63.3609
16:27:45:564,-0.4587,1.7035,9.8653,34.0164,-0.5483,-0.1618,-0.2427,-63.3609
16:27:45:583,-0.7076,1.3691,10.1806,33.748,-0.5557,0.2523,-0.4216,-63.3609
16:27:45:602,-1.4451,1.0886,10.2562,33.7239,-0.4344,0.5217,-0.4961,-63.3609
16:27:45:622,-2.2148,0.9563,10.1474,33.7491,-0.1831,0.6079,-0.3971,-63.3609
16:27:45:642,-2.4559,0.9325,9.9681,33.7264,0.1448,0.3758,-0.198,-63.3609
16:27:45:663,-2.3642,0.9231,9.453,33.8098,0.3354,-0.0554,-0.1597,-63.3609
16:27:45:683,-2.3713,0.9756,9.1348,34.0164,0.2896,-0.3599,-0.2385,-63.3609
16:27:45:703,-2.4711,1.0749,8.9983,34.1869,0.1544,-0.4291,-0.2928,-63.3609
16:27:45:723,-2.5756,1.0716,8.9712,34.3048,-0.0234,-0.494,-0.2576,-63.3609
16:27:45:743,-2.6236,1.1191,8.8359,34.3146,-0.2151,-0.5589,-0.0969,-63.3609
16:27:45:763,-2.3337,1.1366,8.6838,34.4419,-0.3705,-0.6494,0.1246,-63.3609
16:27:45:783,-1.8736,1.2601,8.4753,34.2013,-0.3939,-0.5845,0.329,-63.3609
16:27:45:803,-1.0544,1.2901,8.6631,34.1402,-0.3247,-0.3843,0.3673,-63.3609
16:27:45:822,-1.134,1.5291,8.7326,34.0021,-0.2002,-0.1959,0.2608,-63.3609
16:27:45:845,-1.3446,1.3433,8.8717,34.0429,-0.0458,-0.1884,0.1831,-63.3609
16:27:45:863,-1.6052,1.1621,8.8029,34.1466,0.0937,-0.1767,0.2417,-63.3609
16:27:45:883,-1.5515,1.1689,8.6531,34.2476,0.1384,-0.115,0.3396,-63.3609
16:27:45:903,-1.7249,1.2062,8.2479,34.0214,-0.0021,-0.1618,0.3247,-63.3609
16:27:45:923,-1.3927,1.4557,8.23,33.8116,-0.2257,-0.148,0.3748,-63.3609
16:27:45:944,-1.2983,1.6064,8.3499,33.6515,-0.346,0.0149,0.329,-63.3609
16:27:45:963,-0.676,1.3487,9.5199,33.7645,-0.2406,0.1011,0.2076,-63.3609
16:27:45:983,-0.6924,1.5802,9.9498,33.6222,-0.0884,0.131,0.0969,-63.3609
16:27:46:002,-0.5677,1.7249,10.2567,33.8174,0.1235,0.3311,0.0064,-63.3609
16:27:46:022,-0.6648,1.6961,10.2949,33.8248,0.2417,0.4227,-0.1459,-63.3609
16:27:46:044,-1.0268,1.8772,10.6935,33.8124,0.1874,-0.0607,-0.3183,-63.3609
16:27:46:063,-1.1867,2.1963,10.876,33.8454,0.0437,-0.8113,-0.3769,-63.3609
16:27:46:083,-0.558,1.9766,11.331,33.6986,-0.0224,-0.9731,-0.4003,-63.3609
16:27:46:102,0.0305,1.528,11.8623,33.3831,-0.0085,-0.5355,-0.4802,-63.3609
16:27:46:122,0.0008,1.299,11.7791,33.4063,0.0777,0.2683,-0.5313,-63.3609
16:27:46:142,-0.5399,1.1988,11.0325,33.6055,0.1288,1.0593,-0.5632,-63.3609
16:27:46:163,-1.0803,1.034,10.0791,33.6827,-0.0256,1.4586,-0.593,-63.3609
16:27:46:183,-1.4296,0.5188,9.7359,33.6022,-0.5015,1.2424,-0.6611,-63.2635
16:27:46:202,-1.6914,-0.0698,10.4569,33.6255,-0.8294,0.8091,-0.7314,-63.1579
16:27:46:222,-1.8473,-0.8368,11.1682,33.5614,-0.6505,0.7399,-0.6665,-63.035
16:27:46:242,-1.8601,-1.4437,10.9558,33.2384,-0.2481,0.9209,-0.4386,-62.8942
16:27:46:263,-1.9215,-1.6257,10.3489,33.2102,0.049,0.8272,-0.231,-62.744
16:27:46:282,-1.8088,-1.2451,9.7757,33.4013,0.1874,0.3226,-0.0532,-62.5934
16:27:46:302,-1.3625,-0.7379,9.3025,33.3211,0.2662,-0.1405,0.1011,-62.4477
16:27:46:325,-0.63,-0.4323,8.9369,33.2931,0.3034,-0.4248,0.1065,-62.3098
16:27:46:343,-0.1644,-0.2664,8.6419,33.5556,0.2832,-0.5164,-0.0905,-62.1771
16:27:46:363,-0.3254,-0.182,8.446,33.3728,0.2395,-0.461,-0.2843,-62.0419
16:27:46:382,-0.8543,0.1741,8.175,33.5484,0.1852,-0.3205,-0.3481,-61.8985
16:27:46:403,-1.2074,0.6037,7.7671,33.523,0.099,-0.0979,-0.2981,-61.7459
16:27:46:424,-1.2288,0.8773,7.5043,33.3929,-0.0437,0.0479,-0.1863,-61.5876
16:27:46:443,-1.0307,0.9749,7.6386,33.4069,-0.1235,0.0426,-0.0617,-61.4304
16:27:46:463,-0.5791,0.9662,7.8882,33.3282,-0.1459,-0.181,0.0032,-61.2794
16:27:46:482,-0.2906,0.9952,8.242,33.3013,-0.1107,-0.3939,-0.0948,-61.1349
16:27:46:502,-0.3361,0.9466,8.4691,33.3885,-0.0735,-0.3758,-0.2012,-60.9909
16:27:46:524,-0.4748,0.7553,8.7618,33.4274,-0.1118,-0.1789,-0.1789,-60.8439
16:27:46:543,-0.7959,0.9624,9.2235,33.5311,-0.2374,-0.0106,-0.1267,-60.6965
16:27:46:563,-1.208,1.5266,9.9893,33.4726,-0.329,0.0319,-0.1129,-60.5518
16:27:46:583,-1.2758,1.4495,10.646,33.321,-0.3556,0.0735,-0.1789,-60.4088
16:27:46:603,-1.4378,1.2157,11.4648,33.2764,-0.3098,0.1054,-0.2172,-60.266
16:27:46:623,-1.6344,1.242,12.0814,33.0826,-0.0362,0.2289,-0.0809,-60.1197
16:27:46:643,-1.6339,1.2765,11.911,33.2125,0.3151,0.3588,-0.0085,-59.972
16:27:46:663,-1.8274,1.5115,11.3441,33.4649,0.3535,0.3503,-0.0458,-59.8266
16:27:46:683,-1.9651,1.5096,11.2735,33.3577,0.1852,0.2502,-0.0937,-59.6832
16:27:46:706,-2.2055,1.3581,11.7274,33.2064,0.1065,0.0128,-0.0596,-59.5419
16:27:46:723,-2.5082,1.3475,12.0467,33.3521,0.2683,-0.0809,0.1512,-59.4027
16:27:46:743,-2.6665,1.5762,11.784,33.3303,0.5387,0.0649,0.4812,-59.2708
16:27:46:763,-2.3033,1.4808,10.8485,33.5958,0.7431,0.2757,0.6069,-59.1513
16:27:46:783,-1.9236,0.6375,10.1851,33.5213,0.6281,0.0224,0.2427,-59.0516
16:27:46:806,-2.2887,-0.2689,10.3778,33.4712,0.2992,-0.6015,-0.3205,-59.0516
16:27:46:823,-2.7172,-1.7021,11.0922,33.5153,0.263,-0.7357,-0.5046,-58.9458
16:27:46:843,-3.2857,-2.3136,11.1038,33.4384,0.527,-0.4578,-0.3119,-58.8232
16:27:46:863,-3.3748,-2.0107,10.1886,33.5551,0.7804,-0.0628,0.1192,-58.6882
16:27:46:883,-2.7303,-1.342,9.0406,33.5057,0.6643,0.1757,0.4333,-58.5606
16:27:46:904,-1.793,-0.707,8.3149,33.6123,0.3854,0.3524,0.5153,-58.4477
16:27:46:923,-1.3806,-0.0261,7.9579,33.5147,0.197,0.5323,0.3971,-58.3529
16:27:46:943,-1.4238,0.4343,7.405,33.6463,0.2161,0.6079,0.2917,-58.3529
16:27:46:963,-1.5494,0.6687,6.4694,33.5071,0.2587,0.6037,0.214,-58.3529
16:27:46:983,-1.8022,1.0256,5.7139,33.9267,0.2172,0.4716,0.1948,-58.3529
16:27:47:004,-1.952,1.1163,5.4372,34.0975,0.1171,0.2417,0.2364,-58.3529
16:27:47:023,-1.9937,1.2466,5.5962,34.2752,0.0053,-0.0884,0.2938,-58.3529
16:27:47:043,-1.7786,1.1809,6.3075,34.4086,-0.0958,-0.3726,0.2896,-58.3529
16:27:47:063,-1.4436,1.112,7.2489,34.5374,-0.1075,-0.4972,0.2353,-58.3529
16:27:47:086,-1.2007,0.9597,8.2675,34.2429,-0.1565,-0.6122,0.0681,-58.3529
16:27:47:103,-1.1869,0.7481,9.3633,34.4243,-0.2257,-0.6452,-0.1033,-58.3529
16:27:47:123,-1.3152,0.5622,10.357,34.3048,-0.1661,-0.4908,-0.1746,-58.3529
16:27:47:142,-1.3406,0.5932,10.817,34.1997,0.0085,-0.2545,-0.1469,-58.3529
16:27:47:163,-1.1622,0.9872,10.6897,34.1802,0.0458,-0.0213,-0.1629,-58.3529
16:27:47:185,-1.1805,1.5858,10.7394,33.8109,-0.1107,0.1246,-0.3205,-58.3529
16:27:47:203,-1.5268,1.9474,10.9448,33.6425,-0.2992,0.3268,-0.5015,-58.3529
16:27:47:223,-2.1509,1.8651,11.3386,33.4287,-0.3343,0.4727,-0.6218,-58.3529
16:27:47:242,-2.9506,1.7705,11.5953,33.4072,-0.2353,0.4759,-0.5675,-58.3529
16:27:47:263,-3.7527,2.1559,11.5464,33.2547,-0.1043,0.4291,-0.3141,-58.2508
16:27:47:285,-3.6505,2.2008,11.3777,33.1392,-0.132,0.2225,0.0128,-58.1465
16:27:47:303,-2.3623,1.2982,11.9848,32.7081,-0.2768,-0.3162,0.2033,-58.0549
16:27:47:323,-1.1957,0.1637,12.7917,32.646,-0.083,-0.758,0.1171,-58.0549
16:27:47:342,-0.7866,-0.7995,12.24,32.19,0.2757,-0.7857,-0.1214,-58.0549
16:27:47:363,-0.9518,-1.1492,11.3404,32.0696,0.4397,-0.6643,-0.2055,-58.0549
16:27:47:384,-0.9241,-1.0029,10.5472,32.3425,0.3822,-0.5345,-0.0703,-57.9563
16:27:47:403,-0.4177,-0.6557,10.0425,32.7921,0.2385,-0.4376,0.0788,-57.8591
16:27:47:423,0.1991,-0.1885,9.4277,33.346,0.1884,-0.2151,0.0841,-57.7653
16:27:47:443,0.5387,0.273,8.4329,34.1697,0.2779,0.2033,-0.05,-57.671
16:27:47:466,0.6003,0.5927,7.3257,34.5392,0.3982,0.5738,-0.2491,-57.5703
16:27:47:483,0.2328,1.0099,6.3887,34.7866,0.4791,0.6335,-0.4216,-57.4587
16:27:47:503,-0.1095,1.3248,5.9092,35.0663,0.56,0.4461,-0.478,-57.3332
16:27:47:543,-0.0314,1.4933,5.8537,35.077,0.6058,0.1001,-0.4716,-57.1941
16:27:47:546,0.1732,1.6815,6.0883,34.9467,0.6409,-0.2853,-0.3843,-57.0427
16:27:47:566,0.6014,2.0327,6.7803,34.6779,0.6207,-0.658,-0.1767,-56.8842
16:27:47:583,1.3151,1.8357,7.5006,34.669,0.5919,-0.6952,-0.1459,-56.7221
16:27:47:603,1.5627,1.6801,8.0153,34.2781,0.5579,-0.3737,-0.3609,-56.5516
16:27:47:623,0.738,2.1262,8.4957,34.4309,0.445,-0.05,-0.6441,-56.3637
16:27:47:644,-0.7279,2.3554,9.2048,34.1246,0.3215,-0.0128,-0.7282,-56.1572
16:27:47:665,-1.7456,2.5493,9.5864,34.3472,0.2268,-0.1459,-0.6005,-55.9329
16:27:47:683,-2.3111,2.6099,9.8907,34.3653,0.0671,-0.1682,-0.4557,-55.6923
16:27:47:703,-2.9874,2.7634,10.3823,34.5942,-0.1011,-0.1107,-0.3279,-55.4464
16:27:47:723,-3.439,2.7163,11.0333,34.7447,-0.2694,-0.115,-0.131,-55.2007
16:27:47:743,-3.5938,2.5636,11.9104,35.0436,-0.4099,-0.1512,0.0617,-54.9642
16:27:47:765,-3.8199,2.5535,12.8367,35.0054,-0.3524,-0.0011,0.2172,-54.7389
16:27:47:783,-4.0788,2.616,13.2639,34.866,-0.0415,0.1927,0.3886,-54.5285
16:27:47:804,-3.8968,2.1676,12.9102,35.0253,0.2385,-0.0117,0.4397,-54.3372
16:27:47:823,-3.6458,1.3999,12.4315,34.9805,0.3481,-0.4897,0.3034,-54.1694
16:27:47:842,-3.5061,0.654,11.7169,34.8849,0.3822,-0.643,0.2044,-54.0154
16:27:47:863,-3.5083,0.2689,11.0308,34.9255,0.363,-0.4684,0.2225,-53.8698
16:27:47:883,-3.2934,0.0661,10.1818,34.8594,0.2736,-0.2406,0.3343,-53.7344
16:27:47:903,-2.5101,-0.1163,9.299,34.5662,0.0884,-0.0437,0.4248,-53.6145
16:27:47:923,-1.7196,-0.1863,8.5853,34.7397,-0.1842,0.0767,0.3705,-53.514
16:27:47:945,-1.3354,0.0349,7.9198,34.6795,-0.3524,0.3886,0.2917,-53.514
16:27:47:964,-1.2448,0.1884,7.1429,34.9735,-0.313,0.7953,0.2598,-53.514
16:27:47:984,-1.3251,0.2419,6.31,35.213,-0.1629,0.9901,0.3173,-53.514
16:27:48:003,-1.341,0.411,5.4763,35.5793,-0.0703,0.9081,0.4301,-53.514
16:27:48:023,-1.4439,0.5837,4.9794,35.7536,-0.0319,0.7272,0.5557,-53.514
16:27:48:045,-1.6359,0.9153,4.8361,35.9587,-0.0362,0.4791,0.6984,-53.514
16:27:48:064,-1.4785,1.1084,5.02,36.2528,-0.1448,0.2023,0.8208,-53.514
16:27:48:084,-0.7457,1.3451,5.8011,36.181,-0.4024,-0.2065,0.7697,-53.514
16:27:48:103,-0.5234,1.6721,7.1794,36.42,-0.6452,-0.6441,0.4567,-53.514
16:27:48:123,-0.4817,1.1971,8.8372,36.6245,-0.6494,-0.9305,0.1469,-53.6171
16:27:48:144,-0.702,0.6622,9.5965,36.3999,-0.5557,-0.6377,-0.0639,-53.7194
16:27:48:164,-1.2685,1.0149,9.9413,36.0785,-0.5813,0.0256,-0.0809,-53.8123
16:27:48:183,-1.5004,1.549,10.4232,36.124,-0.8783,0.4642,-0.033,-53.8123
16:27:48:203,-1.4641,1.9468,11.4255,35.9499,-1.2393,0.5962,-0.1416,-53.9062
16:27:48:223,-1.5282,2.0619,12.7466,35.856,-1.3755,0.6611,-0.3588,-53.998
16:27:48:244,-1.9252,1.8525,13.6717,35.6301,-1.1562,0.7793,-0.5866,-53.998
16:27:48:263,-2.7434,1.7982,13.5389,35.4851,-0.7602,0.9603,-0.625,-53.998
16:27:48:283,-3.2638,1.9205,13.0623,35.1342,-0.6058,0.9443,-0.4152,-53.998
16:27:48:303,-2.6907,1.3074,13.5321,34.7269,-0.6015,0.3481,-0.2108,-53.998
16:27:48:326,-1.3573,-0.3294,13.8624,34.8558,-0.2172,-0.0586,-0.0841,-53.998
16:27:48:343,-0.7962,-1.2726,12.6035,34.7462,0.3939,-0.0011,-0.1192,-53.998
16:27:48:363,-1.1209,-1.1209,10.9114,34.6305,0.527,-0.0032,-0.1395,-53.998
16:27:48:383,-0.9263,-1.0442,10.0583,34.743,0.2896,-0.1799,-0.0894,-53.998
16:27:48:403,-0.3333,-1.0133,9.8703,34.6475,-0.0128,-0.313,-0.1267,-53.998
16:27:48:425,-0.0635,-0.7497,9.8405,35.1297,-0.0948,-0.214,-0.2694,-53.998
16:27:48:443,-0.2428,-0.4547,9.1631,35.8372,0.0575,0.0703,-0.4078,-53.998
16:27:48:464,-0.6654,-0.0412,8.0374,36.3482,0.2789,0.3439,-0.4386,-53.998
16:27:48:483,-0.9105,0.4123,6.9278,36.8539,0.4237,0.3364,-0.4131,-53.998
16:27:48:503,-1.0271,0.7468,6.253,36.9422,0.4961,0.1224,-0.3811,-53.998
16:27:48:524,-1.1378,1.0112,6.0474,37.4888,0.626,-0.1427,-0.3396,-53.998
16:27:48:543,-1.0768,0.9565,5.7987,37.4732,0.7921,-0.4301,-0.2598,-53.998
16:27:48:564,-0.8345,0.8909,5.725,37.5107,0.8347,-0.7751,-0.2289,-53.9015
16:27:48:583,-0.7671,1.1962,6.415,37.4539,0.7495,-1.169,-0.2438,-53.7963
16:27:48:603,-0.843,1.4788,7.5762,37.3341,0.6729,-1.4362,-0.2789,-53.6864
16:27:48:623,-0.9446,1.7142,8.3732,37.2075,0.5994,-1.3447,-0.2736,-53.5634
16:27:48:643,-1.1847,1.9784,9.1162,36.8536,0.363,-0.9965,-0.2332,-53.4338
16:27:48:664,-1.6036,2.5531,10.1563,36.8151,-0.0011,-0.7176,-0.181,-53.2976
16:27:48:683,-2.253,2.5877,11.8263,36.7273,-0.2151,-0.7027,-0.1448,-53.1586
16:27:48:706,-2.8621,2.3561,13.2774,36.6111,-0.0884,-0.7974,0.0213,-53.025
16:27:48:723,-2.9337,1.9763,14.2522,36.6828,0.1437,-0.9805,0.297,-52.8975
16:27:48:743,-2.638,1.8418,14.98,36.5886,0.2789,-0.9284,0.61,-52.7865
16:27:48:764,-2.2039,1.9331,14.8854,36.4782,0.527,-0.4386,0.9624,-52.7865
16:27:48:783,-1.4069,1.4616,14.3912,36.5029,0.9869,0.0713,1.1402,-52.7865
16:27:48:805,-0.8951,0.9627,12.9073,36.6436,1.3968,-0.1097,1.0018,-52.7865
16:27:48:823,-0.6927,0.6976,11.0523,36.7862,1.4863,-0.2811,0.8187,-52.7865
16:27:48:843,-0.6277,0.6655,9.6107,36.9227,1.2467,-0.3992,0.6452,-52.7865
16:27:48:863,-0.3607,0.606,8.7065,36.9938,0.7793,-0.5408,0.4823,-52.7865
16:27:48:883,0.1566,0.5567,8.0033,36.6284,0.3247,-0.4035,0.3503,-52.7865
16:27:48:905,0.6631,0.3971,7.0552,36.6871,-0.0117,0.0096,0.1991,-52.8834
16:27:48:923,0.6435,0.2746,5.8832,36.6639,-0.3034,0.6026,0.0607,-52.9784
16:27:48:943,-0.2942,0.3961,5.7396,36.646,-0.5675,0.7815,0.0426,-53.0721
16:27:48:963,-1.1994,0.3263,6.0567,36.8894,-0.5738,0.2225,0.2289,-53.172
16:27:48:983,-1.0585,0.0222,5.9984,36.9591,-0.3151,-0.165,0.5749,-53.2832
16:27:49:003,-0.556,0.0896,5.9577,37.2879,0.0277,-0.1448,0.9167,-53.4123
16:27:49:023,-0.1875,0.539,6.3391,37.3429,0.3247,-0.0202,1.136,-53.57
16:27:49:043,0.4203,1.1697,6.7129,37.4665,0.4844,-0.1075,1.1424,-53.7648
16:27:49:063,0.8036,1.9123,6.9899,37.4435,0.3726,-0.2662,0.9241,-53.996
16:27:49:084,0.9789,2.3799,7.3605,37.1728,0.0607,-0.2757,0.6335,-54.2534
16:27:49:103,1.2163,2.3934,7.9141,36.8537,-0.2598,-0.1938,0.3982,-54.5246
16:27:49:124,1.4595,2.4951,8.6848,36.6782,-0.609,-0.2023,0.2289,-54.802
16:27:49:143,1.7908,2.5432,9.8998,36.7461,-0.9859,-0.1299,0.0703,-55.0779
16:27:49:164,1.9753,2.655,11.4472,36.4399,-1.235,0.1054,-0.0948,-55.343
16:27:49:185,1.8317,2.5842,12.8543,36.383,-1.2744,0.4322,-0.1948,-55.5851
16:27:49:203,1.3305,2.7117,13.8608,35.9347,-1.186,0.6505,-0.2385,-55.8118
16:27:49:223,0.9239,3.2215,14.4967,35.6926,-0.9773,0.7729,-0.2002,-56.0174
16:27:49:243,1.7553,2.5006,15.3151,35.245,-0.8187,0.3045,-0.2566,-56.2123
16:27:49:263,2.4974,0.921,15.8567,35.2275,-0.4418,-0.4493,-0.5142,-56.3911
16:27:49:284,2.2454,-0.2383,14.4564,35.2207,0.2864,-0.3609,-0.5259,-56.5386
16:27:49:303,2.0242,-0.5346,12.4236,35.8388,0.8251,0.1757,-0.4557,-56.6566
16:27:49:323,1.646,0.0931,10.9113,36.5623,0.8826,0.2395,-0.4535,-56.755
16:27:49:343,1.7999,0.6849,9.6346,37.6066,0.5749,0.05,-0.4269,-56.755
16:27:49:364,2.0204,0.8845,8.7373,38.433,0.1491,0.0543,-0.6452,-56.755
16:27:49:384,1.5277,0.9614,8.2233,39.2407,-0.1129,0.3194,-0.9561,-56.755
16:27:49:403,0.8298,0.7883,7.5267,39.5016,-0.016,0.6697,-1.1392,-56.755
16:27:49:423,0.1872,0.7405,6.4937,39.2558,0.2023,0.7846,-1.1498,-56.755
16:27:49:443,-0.2873,0.844,5.6981,39.0985,0.3567,0.625,-1.0508,-56.755
16:27:49:466,-0.6003,1.0888,5.2556,38.6455,0.4184,0.1852,-0.9071,-56.6442
16:27:49:484,-0.46,1.2014,5.1178,38.4501,0.4876,-0.1831,-0.7272,-56.5109
16:27:49:503,-0.0128,1.246,5.1201,38.2495,0.5781,-0.3982,-0.6367,-56.3578
16:27:49:523,0.4742,1.8375,5.1983,38.1006,0.4418,-0.544,-0.6931,-56.1856
16:27:49:560,0.721,2.3969,5.6608,38.0964,0.016,-0.5611,-0.8773,-55.9941
16:27:49:567,0.582,2.477,6.9883,37.8371,-0.543,-0.4684,-1.0519,-55.7821
16:27:49:583,0.0727,2.2471,8.6121,37.5908,-0.9497,-0.1107,-1.0859,-55.5384
16:27:49:603,-0.7944,1.9694,10.4258,37.8323,-1.1147,0.2246,-0.9827,-55.2635
16:27:49:623,-1.8639,2.026,12.1606,37.7171,-1.0104,0.4184,-0.7591,-54.9602
16:27:49:643,-2.5531,1.9439,13.3369,37.7169,-0.7314,0.3535,-0.4631,-54.6458
16:27:49:665,-2.4625,1.4337,14.1525,37.6713,-0.5685,0.0596,-0.1522,-54.3311
16:27:49:683,-2.2589,1.2001,15.0688,37.7541,-0.3929,-0.0298,0.1352,-54.0233
16:27:49:703,-2.2617,1.2685,15.5175,37.6998,0.1544,0.1831,0.3769,-53.7282
16:27:49:723,-2.2423,1.1779,14.5478,37.9817,0.8975,0.362,0.5856,-53.4481
16:27:49:743,-2.0032,0.7811,12.5503,38.1152,1.416,0.0841,0.61,-53.1941
16:27:49:764,-1.7619,0.3368,10.5482,38.1099,1.3319,-0.5249,0.4759,-52.9715
16:27:49:783,-1.6575,-0.0311,10.1228,38.4388,0.8837,-0.9997,0.3641,-52.7772
16:27:49:803,-1.4058,-0.4034,10.4642,38.4733,0.6622,-1.1243,0.3513,-52.6033
16:27:49:823,-0.8874,-0.6268,9.9645,38.4546,0.6196,-0.8347,0.3758,-52.4445
16:27:49:843,-0.2275,-0.7422,8.8506,38.5838,0.4759,-0.3364,0.3929,-52.3001
16:27:49:863,0.2141,-0.5641,7.8312,38.4447,0.1395,0.1065,0.3705,-52.1715
16:27:49:883,0.2923,-0.2289,7.0862,38.5729,-0.2427,0.4674,0.3279,-52.0586
16:27:49:903,-0.0619,0.1331,6.6384,38.8226,-0.3503,0.7985,0.2587,-51.9568
16:27:49:923,-0.6337,0.608,6.0716,38.7159,-0.2374,1.0104,0.3194,-51.8646
16:27:49:945,-0.7628,0.7457,5.5301,39.0313,-0.0277,1.0029,0.5185,-51.8646
16:27:49:964,-0.4773,0.7972,5.1291,39.2585,0.1693,0.7069,0.6856,-51.8646
16:27:49:983,-0.1656,1.2425,5.1085,39.1484,0.1767,0.2523,0.6995,-51.8646
16:27:50:003,0.0439,1.5968,5.5814,39.4191,-0.0341,-0.1405,0.5281,-51.8646
16:27:50:023,0.5316,1.2975,6.7609,39.4116,-0.3737,-0.4503,0.2694,-51.8646
16:27:50:045,0.618,1.225,8.4058,39.4109,-0.6281,-0.5845,-0.0586,-51.8646
16:27:50:063,0.2285,1.2206,9.6574,39.5121,-0.7091,-0.2491,-0.3162,-51.8646
16:27:50:083,-0.1712,1,10.6195,39.5382,-0.7836,0.1352,-0.4131,-51.8646
16:27:50:103,-0.43,0.9629,11.6166,39.5924,-0.9742,0.3268,-0.3492,-51.8646
16:27:50:123,-0.4075,1.2049,12.85,39.6591,-1.1637,0.5281,-0.2406,-51.8646
16:27:50:144,-0.5375,1.602,14.1391,39.6852,-1.0785,0.6665,-0.3119,-51.8646
16:27:50:163,-1.1932,1.9243,14.4852,39.6059,-0.658,0.9742,-0.362,-51.8646
16:27:50:183,-1.8127,2.2308,13.7935,39.3227,-0.2395,1.137,-0.2161,-51.8646
16:27:50:203,-1.623,1.9161,13.7123,39.3758,-0.0852,0.6037,-0.0735,-51.8646
16:27:50:223,-0.9591,1.3102,14.2419,39.4708,0.1576,-0.1373,0.0138,-51.8646
16:27:50:243,0.0233,0.0204,13.6291,39.6818,0.6335,-0.5973,0.0287,-51.8646
16:27:50:264,0.4605,-0.6015,12.1506,39.8018,0.8666,-0.626,0.05,-51.8646
16:27:50:283,0.5808,-0.11,10.9202,40.3202,0.8283,-0.543,0.1491,-51.8646
16:27:50:303,1.0786,0.4638,9.6746,40.7298,0.5866,-0.4525,0.197,-51.8646
16:27:50:326,1.465,0.8652,8.5027,41.2014,0.2938,-0.23,0.0075,-51.8646
16:27:50:343,1.2862,1.2425,7.621,41.7689,0.1469,0.1427,-0.296,-51.8646
16:27:50:363,0.8416,1.2823,6.7491,41.9589,0.1565,0.4035,-0.5217,-51.8646
16:27:50:383,0.1922,1.3001,6.0954,42.1283,0.2204,0.3354,-0.6707,-51.8646
16:27:50:403,-0.3634,1.4867,5.7173,42.2476,0.3737,0.0617,-0.692,-51.7577
16:27:50:425,-0.5538,1.3923,5.798,41.9646,0.6388,-0.3726,-0.6356,-51.6292
16:27:50:443,-0.585,1.3399,5.5182,41.8827,0.8187,-0.79,-0.5973,-51.4858
16:27:50:463,-0.5715,1.5335,5.362,41.7906,0.7644,-1.0402,-0.5781,-51.3269
16:27:50:483,-0.8327,1.6984,5.6049,41.6726,0.4397,-1.0231,-0.5781,-51.1528
16:27:50:503,-0.9959,1.8642,6.5315,41.714,-0.0149,-0.7729,-0.4333,-50.9612
16:27:50:523,-0.9592,1.9795,7.5681,41.7632,-0.4003,-0.3854,-0.197,-50.7618
16:27:50:543,-0.976,2.0947,9.0755,41.5659,-0.6037,-0.1416,-0.0351,-50.5645
16:27:50:564,-1.0521,2.3709,10.7802,41.709,-0.5387,-0.1916,0.066,-50.3738
16:27:50:583,-1.219,2.5845,11.641,41.9552,-0.3247,-0.115,0.1618,-50.1896
16:27:50:603,-1.2534,2.6269,12.1316,42.0976,-0.3822,-0.0575,0.2715,-50.0182
16:27:50:624,-1.0738,2.5096,13.5686,42.2708,-0.6718,-0.1725,0.3684,-49.8657
16:27:50:643,-1.0185,2.162,15.6479,42.6293,-0.5281,-0.1533,0.5078,-49.7309
16:27:50:663,-0.9054,1.839,15.8365,42.8484,0.1927,0.3897,0.7463,-49.6101
16:27:50:683,-0.9408,1.5821,14.6421,42.6829,1.0295,0.511,0.8368,-49.6101
16:27:50:704,-0.8341,1.194,12.7883,42.8373,1.3212,-0.2236,0.7272,-49.6101
16:27:50:723,-0.6304,0.5669,11.41,42.9532,1.1243,-0.8411,0.6377,-49.6101
16:27:50:743,-0.3142,-0.027,10.9261,42.6178,0.9167,-0.8922,0.5738,-49.6101
16:27:50:763,-0.1457,-0.273,10.349,42.6164,0.824,-0.7091,0.5994,-49.6101
16:27:50:783,0.2254,-0.3017,9.2457,42.3979,0.6942,-0.4589,0.6942,-49.6101
16:27:50:805,0.7832,-0.2966,8.1056,42.5064,0.411,-0.2395,0.7005,-49.6101
16:27:50:823,0.9683,0.1317,7.0588,42.5759,0.0479,0.0841,0.6399,-49.7027
16:27:50:843,0.7966,0.5276,6.2988,42.8318,-0.1427,0.5888,0.5376,-49.8081
16:27:50:863,0.413,0.7641,5.5729,42.8038,-0.1906,0.8805,0.4653,-49.9254
16:27:50:883,0.0713,0.9724,5.3394,42.5724,-0.1757,0.8134,0.5174,-50.0567
16:27:50:904,0.0335,1.1849,4.9499,42.6266,-0.0437,0.6462,0.6228,-50.2047
16:27:50:923,0.1349,1.4959,4.6915,42.7443,0.0021,0.4791,0.6569,-50.3729
16:27:50:943,0.1885,2.011,5.085,42.4644,-0.1224,0.3364,0.6154,-50.5619
16:27:50:963,0.4837,2.238,5.9935,42.2353,-0.3918,0.1054,0.4993,-50.7706
16:27:50:983,0.9567,2.1171,7.6492,42.2827,-0.6867,-0.2097,0.3247,-50.9936
16:27:51:004,0.9156,2.0095,9.5126,41.845,-0.6878,-0.2715,0.1448,-51.2196
16:27:51:023,0.7891,1.6918,10.6536,42.0263,-0.3907,0.0181,0.05,-51.4363
16:27:51:043,0.7546,1.9924,10.7828,42.2739,-0.3471,0.2087,-0.0021,-51.645
16:27:51:063,0.9684,2.4205,11.4821,41.9167,-0.7932,0.2129,-0.0937,-51.8496
16:27:51:083,0.8828,2.5405,13.2981,41.637,-1.0338,0.2768,-0.2151,-52.0437
16:27:51:103,0.5929,2.404,14.3403,41.4396,-0.7623,0.4269,-0.2427,-52.2193
16:27:51:123,0.2501,1.9911,14.2014,41.305,-0.3013,0.6761,-0.2278,-52.375
16:27:51:143,-0.4735,2.4428,13.3415,40.8997,0.0788,0.8304,-0.1789,-52.5136
16:27:51:163,-0.1633,2.2493,12.7345,40.8322,0.0596,0.5408,-0.0777,-52.6458
16:27:51:186,0.584,0.9331,12.8747,40.8322,-0.0383,-0.1427,-0.1522,-52.7764
16:27:51:203,0.7807,-0.1922,12.2433,40.676,0.2151,-0.1576,-0.1735,-52.8969
16:27:51:223,0.3137,-0.2708,10.9359,40.9819,0.412,0.1075,-0.1778,-53.0038
16:27:51:243,0.0142,0.2638,9.6434,41.3927,0.231,0.1512,-0.0692,-53.1026
16:27:51:264,0.3984,0.434,8.9991,41.343,-0.2534,-0.0245,-0.0085,-53.2028
16:27:51:283,0.6728,0.5633,8.7715,41.7516,-0.6739,-0.0628,-0.1459,-53.3026
16:27:51:303,0.3934,0.6766,8.4621,41.8131,-0.8059,0.2172,-0.2811,-53.3026
16:27:51:323,-0.1228,0.8544,7.898,41.5307,-0.6686,0.5483,-0.3343,-53.3026
16:27:51:343,-0.5799,1.0436,7.1794,41.6324,-0.3886,0.6526,-0.3162,-53.3026
16:27:51:364,-0.7876,1.1582,6.3876,41.4388,-0.099,0.4589,-0.247,-53.3026
16:27:51:384,-0.8957,1.2573,5.8271,41.0869,0.0777,0.0692,-0.1693,-53.3026
16:27:51:404,-0.8397,1.4492,5.6641,40.691,0.1757,-0.2843,-0.0905,-53.3026
16:27:51:423,-0.6152,1.254,6.108,40.4514,0.2236,-0.494,0.0224,-53.3026
16:27:51:443,-0.0508,1.2728,7.0498,40.0697,0.3396,-0.7495,0.1001,-53.3026
16:27:51:466,0.8016,1.4497,7.8395,39.5307,0.444,-0.8996,0.0138,-53.3026
16:27:51:483,0.8169,1.8295,8.7401,39.4912,0.395,-0.9465,-0.247,-53.3026
16:27:51:503,0.1782,2.0052,9.6151,39.5548,0.363,-0.9358,-0.3556,-53.3026
16:27:51:523,-0.2187,2.0239,10.1349,39.5068,0.297,-0.7676,-0.2321,-53.3026
16:27:51:543,-0.4477,2.3371,10.5672,39.5238,0.1256,-0.3279,-0.0383,-53.3026
16:27:51:580,-0.5669,2.6438,11.1727,39.6844,-0.116,0.1544,0.1352,-53.3026
16:27:51:587,-0.4845,2.7276,11.9893,39.604,-0.3769,0.3364,0.2576,-53.3026
16:27:51:603,-0.3194,2.4505,13.1245,39.4415,-0.4972,0.3045,0.3098,-53.3026
16:27:51:623,-0.4564,2.2868,13.9525,39.3945,-0.2268,0.3364,0.379,-53.3026
16:27:51:643,-0.837,2.4558,13.4492,39.2724,0.3673,0.4184,0.5227,-53.3026
16:27:51:664,-0.8626,2.1511,12.1463,39.0852,0.675,0.0277,0.5515,-53.3026
16:27:51:683,-0.7297,1.4003,11.417,39.0485,0.593,-0.6399,0.4727,-53.3991
16:27:51:703,-0.6605,0.7809,11.395,38.9754,0.4929,-0.9124,0.3801,-53.5095
16:27:51:723,-0.7117,0.3315,11.0695,39.0441,0.4046,-0.7474,0.3087,-53.6294
16:27:51:743,-0.8604,0.0154,10.601,39.2387,0.1895,-0.4503,0.2726,-53.7559
16:27:51:765,-0.5921,-0.4827,10.1579,39.4866,-0.066,-0.1299,0.2683,-53.8879
16:27:51:783,-0.3191,-0.7816,9.6641,39.5812,-0.2981,0.1693,0.2364,-54.0244
16:27:51:803,-0.5364,-0.4118,9.0474,39.699,-0.296,0.6867,0.2587,-54.1593
16:27:51:823,-0.8113,0.0042,7.9039,39.6306,-0.0117,1.1008,0.3418,-54.2934
16:27:51:843,-0.73,0.1297,6.3769,39.7182,0.2374,1.2946,0.4706,-54.4333
16:27:51:865,-0.3666,0.43,5.183,39.6187,0.3332,1.1647,0.543,-54.5871
16:27:51:883,-0.0072,0.9348,4.7132,39.4804,0.3354,0.8634,0.5089,-54.7581
16:27:51:903,0.0085,1.353,4.5568,39.6763,0.2906,0.5419,0.411,-54.9439
16:27:51:923,0.5217,1.4416,4.6651,39.8384,0.05,0.1842,0.2608,-55.1426
16:27:51:946,0.9138,1.4873,5.5886,39.8711,-0.428,-0.1618,-0.0617,-55.3487
16:27:51:964,0.3019,1.2551,8.1335,40.2416,-0.8379,-0.363,-0.247,-55.5497
16:27:51:983,0.1464,0.6436,10.5958,40.1947,-0.7538,-0.33,-0.2449,-55.7354
16:27:52:003,0.401,0.6132,11.418,40.0865,-0.445,0.0447,-0.3098,-55.9011
16:27:52:024,0.277,1.0462,11.5472,40.1165,-0.4503,0.412,-0.4184,-56.0459
16:27:52:045,0.0252,1.1771,12.0919,39.8214,-0.6633,0.5238,-0.5206,-56.1738
16:27:52:064,-0.3104,1.1805,13.0002,39.0923,-0.7314,0.7261,-0.6047,-56.2789
16:27:52:083,-1.066,1.2335,13.5425,38.8558,-0.4631,0.9624,-0.6367,-56.2789
16:27:52:103,-1.977,1.8299,13.0412,38.7324,-0.1522,1.1094,-0.4738,-56.2789
16:27:52:123,-1.9294,2.1441,12.656,38.7651,-0.1863,0.7463,-0.313,-56.2789
16:27:52:144,-1.2633,1.3874,13.6869,39.0571,-0.3183,0.0351,-0.2875,-56.2789
16:27:52:164,-0.8176,-0.1536,14.1159,39.0993,0.1352,-0.3918,-0.3045,-56.2789
16:27:52:183,-0.8197,-0.9946,12.9314,39.1875,0.4557,-0.4514,-0.1959,-56.2789
16:27:52:203,-0.5698,-0.9346,12.1751,39.5734,0.3641,-0.5547,0.0128,-56.2789
16:27:52:223,0.1621,-0.678,11.8612,39.7456,0.2427,-0.6654,0.2108,-56.2789
16:27:52:244,0.8616,-0.2129,10.9748,40.1526,0.3002,-0.5462,0.1852,-56.2789
16:27:52:264,0.8233,0.3653,9.4623,40.3948,0.5174,-0.2236,0.0149,-56.2789
16:27:52:283,0.4587,0.7416,7.647,40.9064,0.6984,0.1075,-0.0873,-56.2789
16:27:52:303,0.0673,1.0499,5.8948,40.6911,0.7399,0.1767,-0.1054,-56.2789
16:27:52:324,-0.0249,1.2947,4.858,40.8003,0.692,0.0277,-0.0979,-56.2789
16:27:52:343,0.4172,1.4387,4.6218,41.0012,0.658,-0.3013,-0.1725,-56.2789
16:27:52:364,1.1588,1.6245,4.7252,41.2192,0.6856,-0.5962,-0.4535,-56.2789
16:27:52:383,1.383,1.7094,5.0334,41.0919,0.6835,-0.5685,-0.89,-56.2789
16:27:52:403,0.6707,1.4351,5.2823,41.0598,0.5643,-0.3833,-1.1488,-56.2789
16:27:52:425,-0.6069,1.6006,5.7138,40.8737,0.2033,-0.3332,-1.0615,-56.173
16:27:52:443,-1.5367,2.339,6.9457,40.8443,-0.2704,-0.3758,-0.6931,-56.044
16:27:52:464,-1.5025,1.9982,8.5823,40.7742,-0.4855,-0.1491,-0.2821,-55.8989
16:27:52:483,-1.3866,1.9109,9.5418,40.9012,-0.4546,0.1831,0.0277,-55.7482
16:27:52:503,-1.3104,2.5201,9.9458,41.1102,-0.4993,0.3524,0.1938,-55.6051
16:27:52:526,-1.366,3.1972,10.3719,41.5882,-0.6462,0.2523,0.2278,-55.4764
16:27:52:544,-1.5296,3.0553,11.6243,41.3117,-0.9507,-0.0287,0.2449,-55.366
16:27:52:564,-1.293,1.8143,13.6738,41.4896,-1.0551,-0.1757,0.378,-55.2725
16:27:52:583,-0.7795,1.2712,15.6211,41.4094,-0.5866,-0.0256,0.5281,-55.2725
16:27:52:603,0.0638,1.7385,15.3704,41.4479,0.3034,0.2608,0.4546,-55.2725
16:27:52:624,0.6289,1.767,13.6623,41.3979,0.7208,-0.0383,0.0032,-55.2725
16:27:52:643,0.0939,1.0856,12.3585,41.4406,0.6462,-0.412,-0.3939,-55.2725
16:27:52:663,-0.4129,-0.0103,11.6919,41.7085,0.4812,-0.4876,-0.4727,-55.2725
16:27:52:683,-0.6836,-0.3186,10.9678,41.6106,0.3599,-0.3801,-0.4163,-55.1775
16:27:52:703,-0.6622,-0.1278,10.0061,41.6144,0.1522,-0.2757,-0.4131,-55.0742
16:27:52:723,-0.5416,-0.135,9.1635,41.5311,-0.1672,-0.1597,-0.4557,-54.9605
16:27:52:743,-0.4921,-0.234,8.4132,41.6031,-0.4003,0.1278,-0.4653,-54.8332
16:27:52:763,-0.6792,-0.2924,7.5157,41.5348,-0.4472,0.461,-0.4205,-54.6912
16:27:52:783,-0.9287,-0.3546,6.5586,41.7376,-0.363,0.6175,-0.3077,-54.5383
16:27:52:804,-1.0822,-0.2847,5.6374,41.8896,-0.2875,0.5398,-0.1512,-54.3815
16:27:52:823,-1.1635,-0.0118,4.9675,41.9937,-0.2012,0.3907,0.0468,-54.2278
16:27:52:843,-1.1873,0.3628,4.509,42.0584,-0.0671,0.2608,0.2502,-54.0825
16:27:52:863,-1.1417,0.692,4.1851,42.2361,-0.0394,0.0373,0.3215,-53.9535
16:27:52:883,-1.0235,0.7518,4.5395,42.323,-0.3247,-0.4248,0.23,-53.8458
16:27:52:905,-1.0738,0.4677,5.8213,42.4268,-0.7996,-0.8549,0.083,-53.8458
16:27:52:923,-1.1611,-0.0178,8.0634,42.6042,-1.1339,-1.0923,0.0692,-53.8458
16:27:52:943,-0.8873,-0.3926,10.2737,42.8407,-1.1456,-0.8794,0.1767,-53.8458
16:27:52:963,-0.0515,-0.3516,11.8641,42.7853,-0.9731,-0.4014,0.1991,-53.8458
16:27:52:983,0.5286,0.2204,12.4855,42.8151,-0.8954,0.1022,-0.0554,-53.8458
16:27:53:004,0.7115,0.6281,12.8763,42.6843,-1.1072,0.4599,-0.3599,-53.8458
16:27:53:023,0.626,0.7958,13.6123,42.4658,-1.2967,0.7836,-0.6239,-53.7489
16:27:53:043,0.0225,0.9086,14.5064,42.4399,-1.0955,1.0242,-0.8113,-53.6295
16:27:53:063,-0.8355,1.2216,14.6095,42.5026,-0.5951,1.1158,-0.7687,-53.4828
16:27:53:083,-1.0854,1.515,14.4419,42.022,-0.0671,0.8336,-0.61,-53.3144
16:27:53:103,-0.248,0.5692,14.3254,42.1533,0.0809,-0.0437,-0.5227,-53.1358
16:27:53:123,0.8752,-1.3248,14.7689,42.0009,0.1491,-0.8123,-0.543,-52.9492
16:27:53:143,1.2764,-2.5408,14.4607,42.3559,0.5494,-0.8741,-0.5951,-52.7461
16:27:53:164,0.8398,-2.8192,13.2345,42.6783,1.0359,-0.5802,-0.5323,-52.5225
16:27:53:185,0.2207,-2.1514,11.7203,43.544,1.3319,-0.5206,-0.3694,-52.2834
16:27:53:203,0.0299,-1.2611,10.2147,43.8316,1.3798,-0.6441,-0.1384,-52.0412
16:27:53:223,0.2168,-0.5733,8.9033,44.5488,1.268,-0.6803,-0.033,-51.8038
16:27:53:243,0.3047,-0.0846,7.6713,44.9328,1.1594,-0.5089,-0.049,-51.5714
16:27:53:263,0.196,0.2818,6.5397,45.1164,1.0221,-0.1927,-0.1278,-51.342
16:27:53:284,-0.0115,0.5787,5.7265,45.1187,0.9092,0.1246,-0.1906,-51.1124
16:27:53:303,-0.1873,0.5787,5.1489,45.0428,0.905,0.2789,-0.2257,-50.8827
16:27:53:323,-0.4303,0.6718,4.7054,44.61,0.9135,0.2406,-0.2385,-50.6523
16:27:53:343,-0.7614,1.0145,4.5335,44.6827,0.889,0.1278,-0.2033,-50.4209
16:27:53:366,-0.911,1.2455,4.3308,45.0673,0.757,0.0085,-0.1459,-50.1921
16:27:53:384,-0.7782,1.4364,4.7459,45.0635,0.395,-0.1906,-0.0681,-49.9701
16:27:53:403,-0.235,1.7325,5.486,45.4057,-0.1107,-0.3556,-0.0628,-49.7582
16:27:53:423,-0.3357,2.3947,7.0302,45.468,-0.6281,-0.3322,-0.1767,-49.5505
16:27:53:443,-0.5783,2.368,9.1475,45.4053,-0.8208,-0.1427,-0.2023,-49.3434
16:27:53:466,-0.9483,2.0382,10.8072,45.443,-0.724,0.2332,-0.1097,-49.13
16:27:53:483,-1.5498,2.3751,11.8528,45.8287,-0.5345,0.5164,0.1033,-48.9179
16:27:53:503,-1.7466,2.8881,12.5533,45.9681,-0.5217,0.4642,0.3684,-48.7192
16:27:53:523,-0.9614,2.5072,13.7308,46.1092,-0.7112,0.1118,0.4983,-48.5462
16:27:53:543,-0.535,1.9396,15.0524,46.1716,-0.5313,0.1405,0.5866,-48.3953
16:27:53:566,-0.6787,1.8223,15.3841,46.3335,0.0468,0.4386,0.6494,-48.2635
16:27:53:598,-0.7543,1.2463,15.0407,46.0824,0.4748,0.1767,0.5536,-48.1571
16:27:53:606,-0.7419,0.1946,14.3012,46.2113,0.6281,-0.3588,0.4557,-48.1571
16:27:53:623,-0.8593,-0.3243,13.6172,46.3648,0.7069,-0.511,0.4535,-48.1571
16:27:53:642,-0.9057,-0.4371,12.7571,46.6656,0.6931,-0.4322,0.4546,-48.1571
16:27:53:664,-0.7902,-0.6352,11.5832,46.5132,0.6186,-0.1597,0.4929,-48.1571
16:27:53:683,-0.481,-0.7233,10.2833,46.8866,0.5845,0.1725,0.5345,-48.1571
16:27:53:703,-0.4898,-0.4958,8.5982,47.0366,0.642,0.5451,0.5675,-48.1571
16:27:53:723,-0.7365,-0.0197,6.8193,47.3267,0.7846,0.8986,0.6452,-48.1571
16:27:53:743,-0.8023,0.2136,5.085,47.1869,0.8869,1.0082,0.757,-48.1571
16:27:53:764,-0.7038,0.3052,3.763,47.2615,0.8858,0.8666,0.8464,-48.1571
16:27:53:783,-0.663,0.6982,2.8623,47.2741,0.7399,0.5557,0.9518,-48.2588
16:27:53:803,-0.462,1.2174,2.4905,47.4384,0.5089,0.1842,1.0316,-48.3927
16:27:53:823,-0.022,1.6675,2.5704,47.5485,0.1554,-0.2949,0.9401,-48.5668
16:27:53:843,0.422,1.8918,3.0681,47.8247,-0.4365,-0.7282,0.7101,-48.7764
16:27:53:863,0.9168,1.4497,4.8065,48.1832,-1.0849,-0.9976,0.4525,-49.0106
16:27:53:883,1.2268,0.8958,7.5344,48.0319,-1.4351,-1.2382,0.1874,-49.2552
16:27:53:903,1.2235,0.7148,9.8842,47.9025,-1.3819,-0.9188,0.016,-49.4912
16:27:53:923,1.0773,0.8983,11.6535,48.0124,-1.1126,-0.0894,-0.0628,-49.7071
16:27:53:945,1.1307,1.1822,12.7639,47.6344,-0.9976,0.4897,-0.1533,-49.9052
16:27:53:963,1.0429,1.6758,13.5139,47.4188,-1.0689,0.7996,-0.3609,-50.0866
16:27:53:984,0.5037,1.7729,14.4474,47.4703,-0.9635,0.9571,-0.5675,-50.2447
16:27:54:003,-0.3121,1.9865,14.8326,47.4092,-0.6505,0.9624,-0.5856,-50.3748
16:27:54:023,-0.2519,2.2773,14.9671,47.4541,-0.4674,0.7282,-0.4738,-50.4813
16:27:54:045,0.7072,1.1756,15.6217,47.4686,-0.5004,0.0021,-0.4897,-50.576
16:27:54:064,1.2393,-0.4344,15.7554,47.4307,-0.1373,-0.1938,-0.593,-50.576
16:27:54:083,1.0862,-1.2807,14.1498,47.3076,0.3673,0.116,-0.5494,-50.576
16:27:54:103,0.7452,-0.971,12.4261,47.5797,0.4748,0.1533,-0.363,-50.576
16:27:54:123,0.8912,-0.3099,11.1425,47.8747,0.3194,-0.083,-0.1906,-50.576
16:27:54:144,1.2777,0.042,10.0739,48.063,0.1948,-0.1852,-0.2459,-50.576
16:27:54:164,1.0971,0.454,8.7694,48.4722,0.2278,0.0106,-0.428,-50.576
16:27:54:183,0.5985,0.7896,7.2462,48.4923,0.3098,0.3173,-0.5121,-50.576
16:27:54:203,0.1752,1.006,5.9435,48.1202,0.379,0.4418,-0.527,-50.576
16:27:54:223,0.0024,1.0487,5.0309,48.2897,0.412,0.2938,-0.5217,-50.576
16:27:54:244,-0.1244,1.0009,4.6528,48.2266,0.428,-0.0117,-0.5281,-50.576
16:27:54:264,-0.182,0.8992,4.4702,48.0539,0.5078,-0.2161,-0.511,-50.4858
16:27:54:283,-0.196,0.7384,4.2236,47.9807,0.5568,-0.2002,-0.4951,-50.3805
16:27:54:303,-0.3939,1.033,4.2545,48.0396,0.3716,-0.1618,-0.4461,-50.2614
16:27:54:326,-0.2545,1.5098,4.9808,47.827,-0.0798,-0.2289,-0.4173,-50.1325
16:27:54:344,-0.3596,1.908,6.9832,47.7445,-0.5195,-0.4418,-0.4738,-49.997
16:27:54:364,-0.183,1.466,9.1503,47.8953,-0.7357,-0.6761,-0.5078,-49.8562
16:27:54:383,-0.0709,1.5067,10.683,47.8577,-0.8475,-0.4674,-0.4919,-49.7017
16:27:54:403,-0.3339,1.8875,11.8949,47.8878,-0.8986,-0.0138,-0.4578,-49.5317
16:27:54:424,-0.6967,1.8557,13.0227,47.7404,-0.9113,0.2246,-0.3918,-49.3478
16:27:54:443,-0.7406,1.3128,14.1634,47.8332,-0.889,0.116,-0.231,-49.1611
16:27:54:463,-0.7778,1.0511,15.1123,47.9094,-0.6452,0.0298,0.099,-48.9747
16:27:54:483,-0.8617,1.2624,15.1997,47.871,-0.0213,0.363,0.5068,-48.7945
16:27:54:503,-0.7983,1.4132,13.8254,48.0214,0.7697,0.6462,0.7559,-48.6319
16:27:54:524,-0.5953,0.8647,11.7811,48.2989,0.9529,0.1214,0.4738,-48.5008
16:27:54:544,-0.8584,0.0212,11.3499,48.6384,0.5483,-0.9986,0.0447,-48.3971
16:27:54:564,-0.799,-1.1331,12.0611,48.5877,0.1192,-1.6428,-0.1107,-48.3048
16:27:54:583,-0.5511,-1.9938,12.6278,48.8848,0.0075,-1.3202,-0.1427,-48.2058
16:27:54:603,-0.5989,-2.0362,12.2037,48.9273,0.148,-0.5579,-0.0948,-48.1001
16:27:54:624,-0.4833,-1.8921,11.0246,48.6228,0.2353,0.0128,0.0021,-47.9896
16:27:54:643,-0.3475,-1.4366,9.5673,48.5183,0.1235,0.411,0.0905,-47.8807
16:27:54:663,-0.4185,-1.0345,8.3494,48.6446,0.2119,0.7804,0.148,-47.7748
16:27:54:683,-0.6794,-0.5523,6.9228,48.9191,0.5121,1.0338,0.2513,-47.6803
16:27:54:703,-0.8553,-0.0969,5.4126,49.0205,0.8709,1.1008,0.4195,-47.5886
16:27:54:723,-0.6697,0.4021,4.2009,49.328,1.0636,0.9593,0.577,-47.5886
16:27:54:743,-0.1462,0.6596,3.5452,49.4831,0.8698,0.6441,0.5951,-47.5886
16:27:54:763,0.1195,1.1333,3.8048,49.5829,0.4227,0.3513,0.4589,-47.5886
16:27:54:783,-0.0226,1.3813,4.409,49.4413,0.0096,0.1182,0.2694,-47.5886
16:27:54:806,-0.1272,1.225,5.7263,49.6364,-0.3673,-0.4227,0.1075,-47.5886
16:27:54:823,-0.0382,0.8975,8.0144,49.657,-0.5813,-1.1796,0.0586,-47.5886
16:27:54:843,0.3618,0.78,9.5867,49.4904,-0.5004,-1.3276,0.0096,-47.5886
16:27:54:864,0.5712,1.2026,10.2576,49.4836,-0.4131,-0.7527,-0.2065,-47.5886
16:27:54:883,0.3625,1.5676,10.3501,49.2718,-0.6026,0.0809,-0.4503,-47.5886
16:27:54:905,-0.0435,1.9531,10.775,49.2049,-1.0263,0.4642,-0.6186,-47.5886
16:27:54:923,-0.3685,2.0924,11.9833,49.2266,-1.4245,0.5941,-0.691,-47.5886
16:27:54:944,-0.7264,1.7067,13.6401,49.1332,-1.4628,0.6186,-0.7186,-47.5886
16:27:54:963,-1.4087,1.6363,14.8203,48.8365,-1.0796,0.6697,-0.6335,-47.5886
16:27:54:983,-1.6322,1.6583,15.328,48.5455,-0.5781,0.4088,-0.4056,-47.4809
16:27:55:004,-0.5827,0.3857,15.6531,48.1347,-0.3215,-0.3535,-0.2278,-47.3713
16:27:55:023,0.5046,-1.2145,15.4452,47.8406,0.0798,-0.7815,-0.2012,-47.2588
16:27:55:043,0.635,-2.0647,13.9017,48.2426,0.6622,-0.4823,-0.2183,-47.1359
16:27:55:063,0.0283,-1.4976,12.0401,48.7445,0.89,-0.198,-0.1203,-47.0052
16:27:55:083,-0.1185,-0.8312,10.5081,49.1077,0.8251,-0.1757,0.0841,-46.876
16:27:55:103,0.2891,-0.4792,9.2098,49.9089,0.4951,-0.3364,0.1491,-46.7582
16:27:55:123,0.5393,0.1086,9.0001,50.432,0.1703,-0.4951,0.0192,-46.6515
16:27:55:143,0.588,0.2672,8.4061,50.8541,0.1182,-0.082,-0.1384,-46.544
16:27:55:164,0.4326,0.1256,7.4453,51.4898,0.3684,0.4663,-0.2353,-46.4274
16:27:55:186,0.113,0.4083,6.2288,52.0448,0.6239,0.7186,-0.2513,-46.3044
16:27:55:203,0.0883,0.6765,5.3635,52.1805,0.774,0.6462,-0.2545,-46.1728
16:27:55:223,0.0925,0.7417,4.7762,52.422,0.7442,0.313,-0.3205,-46.0393
16:27:55:243,0.0676,0.8771,4.778,52.1104,0.5164,-0.1246,-0.3811,-45.9023
16:27:55:264,0.3659,0.8765,5.5871,51.8523,0.2012,0.0266,-0.2885,-45.7567
16:27:55:285,0.7639,0.3528,6.8938,51.717,0.0617,0.7932,-0.0564,-45.5997
16:27:55:303,0.3351,0.7986,7.6515,51.4558,-0.2172,1.12,0.1672,-45.4492
16:27:55:323,-0.0245,2.3952,8.8264,51.4413,-0.5313,0.8826,0.1565,-45.3145
16:27:55:343,-0.8373,3.1385,10.5593,51.9135,-0.643,0.445,-0.0479,-45.1933
16:27:55:363,-1.3374,2.7779,12.0804,52.1119,-0.3833,-0.099,-0.1927,-45.0782
16:27:55:384,-1.8114,2.7044,12.3628,52.4366,-0.2214,-0.626,0.0106,-44.9643
16:27:55:403,-1.2675,2.1711,13.0457,52.5658,-0.3151,-0.7005,0.3066,-44.861
16:27:55:423,-0.8977,1.3504,14.3674,52.8442,-0.2364,-0.2385,0.4684,-44.769
16:27:55:443,-1.4194,1.6205,14.2652,52.931,0.4099,0.4333,0.675,-44.769
16:27:55:464,-1.7224,1.6839,11.7334,53.5448,0.8932,0.6888,0.8049,-44.769
16:27:55:484,-1.6482,1.4393,9.5778,54.0306,0.659,0.0224,0.5355,-44.769
16:27:55:503,-1.5537,0.5832,10.0651,54.5632,0.0617,-1.1328,0.1799,-44.769
16:27:55:523,-1.3328,-0.5678,11.526,54.8651,-0.1799,-1.6555,-0.0351,-44.769
16:27:55:543,-1.1757,-1.1039,11.8817,54.7709,-0.1341,-1.4852,-0.1288,-44.769
16:27:55:566,-0.8974,-0.8812,11.2876,54.855,-0.0554,-1.0466,-0.1437,-44.769
16:27:55:618,-0.1321,-0.5468,10.1279,54.753,0.017,-0.8123,-0.231,-44.769
16:27:55:620,0.2576,-0.192,8.7704,54.388,0.0426,-0.7804,-0.4205,-44.769
16:27:55:623,0.2283,0.1352,7.6569,54.0036,0.0575,-0.725,-0.5345,-44.769
16:27:55:643,0.2367,0.2467,6.8111,53.7175,0.132,-0.2992,-0.4088,-44.769
16:27:55:665,-0.0843,-0.0771,6.0142,53.4426,0.1618,0.5291,-0.2374,-44.769
16:27:55:683,-0.0942,-0.2408,5.0659,52.9556,-0.0522,1.0487,-0.2204,-44.6758
16:27:55:703,-0.5677,0.1635,4.7844,52.8297,-0.2832,1.2094,-0.0969,-44.5754
16:27:55:723,-0.7955,0.5855,5.3566,52.6654,-0.3865,0.8475,0.0916,-44.4813
16:27:55:743,-0.5706,0.7785,6.2397,52.5809,-0.2694,0.346,0.1789,-44.4813
16:27:55:764,-0.0964,0.7506,7.2254,52.3771,-0.1714,-0.3481,0.0735,-44.4813
16:27:55:784,0.1476,0.7441,8.2514,52.3238,-0.1693,-1.0689,-0.1182,-44.4813
16:27:55:803,0.4017,0.8341,9.0732,52.5944,-0.1139,-1.2361,-0.2619,-44.4813
16:27:55:823,0.478,0.7575,9.6133,52.7409,-0.0617,-0.7772,-0.346,-44.4813
16:27:55:843,0.4357,1.0931,10.1954,52.7428,-0.247,-0.3481,-0.4003,-44.3839
16:27:55:864,0.3726,1.4545,11.1845,52.7435,-0.6196,-0.1714,-0.4397,-44.2753
16:27:55:883,0.4786,0.7219,13.1613,52.5578,-0.7005,0.164,-0.4461,-44.1503
16:27:55:903,0.0337,0.702,14.7681,52.2412,-0.2002,0.4972,-0.3481,-44.0066
16:27:55:923,-0.8014,1.6406,14.1741,52.0967,0.4525,0.7804,-0.1065,-43.8504
16:27:55:944,0.4119,1.23,12.5306,51.8633,0.2896,0.4589,-0.0224,-43.7017
16:27:55:964,1.8232,-0.4702,13.2032,51.6306,-0.494,-0.0011,-0.3854,-43.5638
16:27:55:983,1.0871,-1.6013,14.6172,51.6346,-0.3918,0.0916,-0.7484,-43.4103
16:27:56:003,-0.3019,-2.0588,13.7712,51.8728,0.0383,-0.0075,-0.7218,-43.2332
16:27:56:023,-0.9666,-1.6004,12.3154,52.4387,0.2065,-0.2811,-0.3332,-43.0394
16:27:56:044,-0.328,-0.8888,11.2404,52.9266,0.2427,-0.6037,0.0586,-42.8488
16:27:56:067,0.6072,-0.1023,10.0106,53.41,0.3024,-0.7144,0.1501,-42.6685
16:27:56:083,1.0934,0.6681,8.7004,53.5807,0.3258,-0.6942,0.0256,-42.4981
16:27:56:103,1.1449,1.0086,7.37,53.8192,0.3066,-0.5355,-0.1533,-42.3301
16:27:56:123,0.9452,1.0925,6.1684,53.5049,0.2704,-0.197,-0.297,-42.158
16:27:56:143,0.5291,1.4497,5.5547,53.4516,0.2289,0.115,-0.3279,-41.9788
16:27:56:164,0.3279,1.1373,5.1552,53.5296,0.2119,0.2566,-0.2917,-41.7933
16:27:56:183,0.314,0.8903,5.2588,53.0426,0.1501,0.1682,-0.3311,-41.6039
16:27:56:203,0.2972,0.9328,6.0989,52.7302,0.132,-0.0894,-0.3045,-41.4129
16:27:56:223,0.6707,0.6575,6.7488,52.7452,0.2236,-0.016,-0.1778,-41.2167
16:27:56:243,0.7256,1.0155,7.5216,52.4789,0.2427,-0.0809,-0.1171,-41.0225
16:27:56:264,0.8167,1.6602,8.4262,52.3702,0.296,-0.346,-0.082,-40.8332
16:27:56:283,1.2496,2.1384,9.2968,52.2244,0.3098,-0.6079,-0.1576,-40.6503
16:27:56:303,1.3159,2.6588,9.7289,51.6987,0.1278,-0.4418,-0.2864,-40.466
16:27:56:323,0.9841,3.0467,10.188,51.5227,-0.28,0.1661,-0.3194,-40.2719
16:27:56:347,0.5912,2.8308,11.2655,51.3772,-0.6973,0.6409,-0.2576,-40.0689
16:27:56:363,0.171,2.6616,12.8498,51.5855,-0.9177,0.6037,-0.1437,-39.8642
16:27:56:383,0.2365,2.2119,14.5185,51.6363,-0.7761,0.2768,0.05,-39.6637
16:27:56:403,-0.0688,1.17,15.4564,51.625,-0.1097,-0.0894,0.1842,-39.4792
16:27:56:424,0.8285,1.2299,14.4401,51.7058,0.5345,-0.1789,0.2523,-39.3063
16:27:56:446,0.2495,-0.0447,12.7364,51.3604,0.8283,-0.4173,-0.0447,-39.1455
16:27:56:463,-0.9402,0.0369,11.4987,51.5881,0.7836,-0.6069,-0.0298,-38.9919
16:27:56:483,-1.1427,-0.0133,10.7877,51.2553,0.5962,-0.7176,0.1214,-38.848
16:27:56:503,-0.5109,-0.35,10.6742,51.5028,0.3183,-0.873,0.2129,-38.719
16:27:56:523,0.2296,-0.6351,10.7158,51.5781,0.2129,-0.7932,0.1863,-38.6021
16:27:56:544,0.4816,-0.7092,10.1176,51.6169,0.2513,-0.5462,0.082,-38.4919
16:27:56:563,0.2101,-0.4435,8.9255,51.6618,0.3545,-0.1341,0.0756,-38.3834
16:27:56:583,-0.0398,0.003,7.5407,51.7063,0.4738,0.2896,0.2119,-38.2804
16:27:56:603,0.0324,0.3179,6.3638,51.591,0.5877,0.5568,0.3577,-38.1863
16:27:56:623,0.1243,0.6369,5.5596,51.5212,0.6548,0.4823,0.4408,-38.1863
16:27:56:646,0.2182,1.0111,4.8254,51.5122,0.6505,0.1171,0.4354,-38.1863
16:27:56:663,0.2086,1.3648,4.4224,51.756,0.5185,-0.0394,0.4035,-38.1863
16:27:56:683,0.013,1.5553,4.7829,51.4661,0.2151,0.5951,0.4621,-38.1863
16:27:56:703,0.1761,1.8635,5.5808,51.5282,-0.2481,1.4884,0.5781,-38.1863
16:27:56:723,0.2919,1.9881,7.8165,51.3259,-0.741,1.0945,0.5366,-38.1863
16:27:56:744,0.4617,2.0961,9.7804,51.1238,-0.7815,0.1938,0.2736,-38.1863
16:27:56:763,0.5386,1.9115,11.0399,50.978,-0.3119,-0.395,-0.0468,-38.1863
16:27:56:783,0.4965,1.1156,10.8929,50.7085,0.2427,-0.642,-0.1224,-38.1863
16:27:56:804,0.7021,1.3367,10.402,50.3402,0.3034,-0.7634,-0.2619,-38.1863
16:27:56:823,0.8607,2.5392,10.7502,50.3946,0.017,-0.7644,-0.2268,-38.1863
16:27:56:843,1.4485,2.5995,11.4232,50.2812,-0.4759,-0.0298,-0.1363,-38.1863
16:27:56:863,1.6571,2.6359,12.0662,50.1823,-0.5845,0.8581,-0.066,-38.1863
16:27:56:883,1.8526,2.4425,12.2653,50.3619,-0.7144,0.9795,-0.1682,-38.1863
16:27:56:903,2.2319,1.1895,14.0089,50.1116,-0.9805,0.6558,-0.2481,-38.1863
16:27:56:923,2.0675,0.1383,14.1345,49.9561,-0.5845,-0.1757,-0.3513,-38.1863
16:27:56:945,2.0508,-0.7036,12.9447,50.1121,-0.1395,-0.4056,-0.4546,-38.1863
16:27:56:963,1.9675,-0.6307,11.5474,49.9758,-0.0937,-0.5249,-0.378,-38.1863
16:27:56:983,2.2036,-0.2224,10.3805,50.2138,-0.2672,-0.6122,-0.3237,-38.1863
16:27:57:003,2.4139,-0.1833,9.2436,50.6676,-0.4834,-0.3194,-0.3418,-38.1863
16:27:57:023,2.0001,-0.0448,8.4013,51.1525,-0.51,0.1395,-0.3961,-38.1863
16:27:57:043,1.3139,0.5449,7.8033,51.1243,-0.4589,0.3449,-0.4312,-38.0883
16:27:57:064,1.0421,0.833,7.3525,51.149,-0.2843,0.4472,-0.4706,-37.9738
16:27:57:083,0.9784,0.5775,6.5291,51.1851,-0.1075,0.5579,-0.5568,-37.8438
16:27:57:103,0.6523,0.3552,6.1294,50.7772,-0.0447,0.7878,-0.6058,-37.6947
16:27:57:124,-0.0573,0.254,6.4796,50.5336,0.0437,0.9188,-0.4716,-37.5286
16:27:57:143,-0.1934,0.5204,6.8039,50.7481,0.1906,0.7846,-0.313,-37.3538
16:27:57:163,-0.2411,1.1234,7.4069,50.462,0.2747,0.4333,-0.3279,-37.1762
16:27:57:185,-0.2886,1.5233,8.2152,50.6034,0.3354,0,-0.3939,-36.9946
16:27:57:203,-0.3494,1.2998,8.8807,50.5079,0.4631,-0.1107,-0.2545,-36.8082
16:27:57:223,-0.5057,1.4146,9.2792,50.3371,0.5313,-0.0607,-0.0266,-36.6199
16:27:57:243,-0.9751,2.1697,9.6751,50.149,0.444,-0.0341,0.1608,-36.4386
16:27:57:263,-1.2664,3.1116,10.176,49.9807,0.181,0.0202,0.1693,-36.2695
16:27:57:284,-1.1949,3.0162,10.8458,49.7639,-0.2417,0.2779,0.1831,-36.1107
16:27:57:303,-0.8491,2.032,12.1758,49.6712,-0.5313,0.3386,0.2332,-35.9645
16:27:57:323,-0.6354,0.8355,13.708,49.7284,-0.4589,0.2395,0.3151,-35.8324
16:27:57:343,-1.2519,0.3952,14.5304,49.6056,0.0926,0.5078,0.6601,-35.7123
16:27:57:363,-1.6792,0.8254,13.3674,50.0444,0.8336,0.791,1.0455,-35.616
16:27:57:386,-1.5233,0.8829,11.1338,50.0837,1.0423,0.2491,0.906,-35.616
16:27:57:403,-1.3568,0.6497,9.9098,50.3707,0.4354,-0.6058,0.61,-35.616
16:27:57:423,-1.1345,-0.1492,10.8019,50.7376,-0.1448,-0.8187,0.4418,-35.616
16:27:57:443,-1.1876,-0.4392,11.421,50.7552,-0.2534,-0.6888,0.2736,-35.616
16:27:57:463,-1.3055,-0.3471,10.7285,50.6076,-0.2321,-0.4301,0.1948,-35.616
16:27:57:483,-1.0389,-0.3237,9.4275,50.5277,-0.4067,-0.0979,0.2129,-35.616
16:27:57:503,-0.6502,-0.2048,8.5469,50.3932,-0.7112,0.2523,0.2055,-35.616
16:27:57:523,-0.5915,-0.3414,8.008,50.4197,-0.857,0.5536,0.1831,-35.616
16:27:57:543,-0.9075,-0.3044,7.7143,50.369,-0.6867,0.741,0.2821,-35.616
16:27:57:565,-1.0622,-0.0105,7.0978,50.1205,-0.2449,0.6856,0.4823,-35.616
16:27:57:583,-0.6511,0.0754,6.019,50.2986,0.1278,0.412,0.6015,-35.616
16:27:57:615,-0.1263,-0.0208,5.2931,50.2642,0.2949,-0.0383,0.5291,-35.7162
16:27:57:625,-0.2235,0.4088,5.1012,50.2808,0.2683,-0.4855,0.4046,-35.836
16:27:57:643,-0.5079,0.7811,5.6015,50.0886,0.0894,-0.8006,0.3407,-35.969
16:27:57:664,-0.1873,0.6649,6.577,50.0108,-0.2225,-0.8709,0.3396,-36.1128
16:27:57:684,0.1969,0.4584,8.2173,49.6052,-0.5888,-0.7314,0.2683,-36.2616
16:27:57:703,0.9151,-0.1691,10.5855,49.5565,-0.5919,-0.4748,0.1075,-36.4138
16:27:57:723,0.859,-0.0191,11.753,49.5274,-0.1906,-0.1331,-0.1682,-36.5554
16:27:57:743,0.321,0.5968,11.3173,49.5007,-0.0138,0.33,-0.297,-36.6797
16:27:57:765,-0.2674,1.441,11.1332,49.2241,-0.2832,0.6558,-0.3034,-36.7883
16:27:57:783,-0.4713,1.6219,12.1477,49.3338,-0.5238,0.774,-0.2491,-36.8836
16:27:57:803,-0.3119,1.4306,13.5793,48.7928,-0.362,0.8017,-0.1767,-36.8836
16:27:57:823,-0.4827,1.7125,13.7719,48.5621,0.1629,0.7953,-0.1224,-36.8836
16:27:57:843,-0.6078,1.9422,12.6483,48.5348,0.4078,0.609,0.0149,-36.8836
16:27:57:863,0.679,0.8483,12.4634,47.7692,0.0596,-0.0213,0.0884,-36.8836
16:27:57:883,1.7868,-0.8059,13.6997,47.7065,-0.1192,-0.5621,-0.1725,-36.8836
16:27:57:903,1.2863,-1.7089,13.5029,47.3441,0.2321,-0.5632,-0.5089,-36.8836
16:27:57:923,0.1281,-1.6755,12.3982,47.161,0.5685,-0.6218,-0.5483,-36.8836
16:27:57:946,-0.1422,-1.3116,10.7856,47.3729,0.5132,-0.7751,-0.2875,-36.8836
16:27:57:964,0.5451,-0.7979,9.9554,47.5594,0.264,-0.7878,-0.1512,-36.8836
16:27:57:983,1.1782,0.0912,9.3402,47.9212,0.05,-0.5749,-0.2225,-36.8836
16:27:58:003,1.2789,0.632,8.445,48.5503,0.0617,-0.0884,-0.4078,-36.8836
16:27:58:023,0.8934,1.0508,7.1584,48.8287,0.131,0.3279,-0.5515,-36.8836
16:27:58:045,0.6058,1.2525,5.9855,49.2092,0.197,0.395,-0.6026,-36.8836
16:27:58:064,0.4937,1.349,5.2187,49.1325,0.1501,0.1331,-0.643,-36.8836
16:27:58:084,0.3147,1.3798,5.2211,48.9401,0.0234,-0.1608,-0.6952,-36.8836
16:27:58:103,0.139,1.1058,5.688,48.9864,-0.0586,-0.214,-0.659,-36.8836
16:27:58:123,0.2781,0.8577,6.4638,48.5883,-0.0852,-0.0798,-0.5643,-36.7722
16:27:58:145,0.1531,0.9742,7.479,48.4824,-0.0745,-0.099,-0.5557,-36.6469
16:27:58:164,-0.2319,1.1309,8.743,48.3607,-0.0628,-0.1874,-0.4897,-36.5074
16:27:58:183,-0.5862,1.1734,9.8154,47.978,0.0926,-0.099,-0.346,-36.3517
16:27:58:203,-0.8518,1.529,10.2716,47.6011,0.2385,0.0979,-0.1448,-36.1903
16:27:58:223,-0.8239,1.894,10.3994,47.682,0.1512,0.2278,0.0277,-36.0299
16:27:58:243,-0.8856,2.2343,11.2758,47.6286,-0.0532,0.2821,0.1341,-35.8772
16:27:58:263,-0.6944,1.9717,12.2013,47.5988,-0.1501,0.2108,0.2044,-35.7357
16:27:58:283,-0.2924,1.242,13.1455,47.4036,-0.2417,0.1224,0.231,-35.6074
16:27:58:303,-0.4999,1.0375,14.2103,47.2876,-0.0149,0.214,0.3098,-35.4891
16:27:58:324,-0.7753,1.0452,13.741,46.9623,0.5824,0.3684,0.4759,-35.3819
16:27:58:345,-0.7645,0.7552,12.0419,47.1189,0.9252,0.0575,0.4674,-35.3819
16:27:58:364,-0.7197,0.2193,10.8223,47.3675,0.8123,-0.5707,0.3205,-35.3819
16:27:58:383,-0.7593,0.0207,10.6817,47.3919,0.4631,-0.8783,0.2193,-35.3819
16:27:58:403,-0.5553,-0.0774,10.8793,47.563,0.2417,-0.7729,0.1735,-35.3819
16:27:58:425,-0.3008,-0.0229,10.4673,47.537,0.0617,-0.4493,0.0852,-35.3819
16:27:58:443,0.0488,-0.0405,9.7369,47.4221,-0.2214,-0.1608,-0.0617,-35.3819
16:27:58:463,0.0658,0.1674,9.2201,47.1807,-0.5174,0.1033,-0.2183,-35.3819
16:27:58:483,-0.3905,0.5079,8.8314,47.1307,-0.4791,0.4865,-0.2619,-35.3819
16:27:58:503,-0.8177,0.462,8.1033,47.2519,-0.1267,0.7516,-0.165,-35.3819
16:27:58:524,-1.1299,0.5348,6.9691,47.1793,0.2555,0.7538,0.082,-35.3819
16:27:58:544,-1.1036,0.6736,6.11,47.3279,0.4929,0.5142,0.3109,-35.3819
16:27:58:563,-0.9662,0.8869,5.5588,47.6056,0.6164,0.1682,0.4067,-35.3819
16:27:58:583,-0.8804,1.0734,5.4139,47.502,0.5898,-0.0373,0.4855,-35.3819
16:27:58:603,-0.7037,1.3058,5.7057,47.5688,0.3992,-0.1459,0.543,-35.3819
16:27:58:625,-0.2752,1.0617,6.8357,47.962,0.0383,-0.2438,0.5632,-35.3819
16:27:58:643,-0.0574,1.1297,8.8835,48.3265,-0.1916,-0.4408,0.51,-35.3819
16:27:58:664,0.3166,0.9534,10.6006,48.3256,-0.0043,-0.4844,0.3907,-35.3819
16:27:58:683,0.8389,0.7824,10.8508,48.5588,0.3418,-0.2193,0.2055,-35.3819
16:27:58:703,0.7586,1.2645,10.3841,48.5236,0.3332,0.2151,0.0277,-35.3819
16:27:58:723,0.3982,1.9979,10.3949,48.1207,0.0298,0.6697,-0.0937,-35.3819
16:27:58:743,0.2291,2.4514,10.9568,47.8682,-0.2257,0.8581,-0.1874,-35.3819
16:27:58:763,0.1964,2.4019,11.6516,47.8446,-0.3109,0.6867,-0.3407,-35.3819
16:27:58:783,-0.3627,2.7339,11.8489,47.6494,-0.2097,0.7037,-0.4919,-35.3819
16:27:58:806,-0.8144,2.8509,11.5974,47.5375,-0.3982,1.0657,-0.543,-35.3819
16:27:58:823,-0.7487,1.8053,12.3395,47.3003,-0.7846,1.1296,-0.5866,-35.3819
16:27:58:843,-1.2081,0.9101,13.4225,47.173,-0.7367,0.9316,-0.593,-35.3819
16:27:58:864,-1.7282,-0.0358,13.3157,47.1313,-0.2619,0.5078,-0.5866,-35.3819
16:27:58:883,-2.2235,-0.5335,12.1667,47.0665,0.0415,-0.0426,-0.3641,-35.3819
16:27:58:906,-2.033,-0.4689,11.0649,47.5098,0.0234,-0.4195,0.0554,-35.3819
16:27:58:923,-1.2447,-0.1829,10.1829,47.7331,-0.0192,-0.3918,0.3875,-35.3819
16:27:58:943,-0.4294,0.1193,8.789,47.9397,0.0373,-0.1256,0.5142,-35.3819
16:27:58:964,-0.1337,0.4924,7.1361,48.3246,0.0298,0.0543,0.4961,-35.3819
16:27:58:983,-0.2246,0.9231,5.7671,48.8013,-0.1097,0.2353,0.4397,-35.3819
16:27:59:004,-0.3162,0.9503,5.0626,48.902,-0.2427,0.4259,0.4248,-35.3819
16:27:59:023,-0.261,0.944,4.8903,49.2559,-0.2864,0.3418,0.4163,-35.3819
16:27:59:043,-0.0522,0.9439,5.0526,49.3969,-0.2491,0.0532,0.3535,-35.3819
16:27:59:063,0.1813,1.1558,5.7226,49.3898,-0.1821,-0.4173,0.2672,-35.3819
16:27:59:083,0.6439,1.2773,6.5312,49.2365,-0.1746,-0.856,0.115,-35.3819
16:27:59:103,0.8219,1.2859,7.8283,49.41,-0.2427,-0.8283,-0.0426,-35.3819
16:27:59:123,0.7677,1.2288,9.4006,49.4856,-0.1916,-0.6335,-0.2044,-35.3819
16:27:59:143,0.8418,0.8614,10.2469,49.5308,-0.1757,-0.1512,-0.3471,-35.3819
16:27:59:163,0.1591,1.2557,11.0545,49.5446,-0.3567,0.3109,-0.4951,-35.3819
16:27:59:186,-0.9598,1.6254,12.1821,49.659,-0.3961,0.445,-0.4205,-35.3819
16:27:59:203,-1.633,1.7398,13.2954,50.0683,-0.1863,0.1501,-0.1182,-35.3819
16:27:59:223,-1.5476,1.7578,13.6466,50.1888,0.0373,-0.3801,0.1991,-35.3819
16:27:59:242,-0.9872,1.6617,13.9821,49.9565,0.2097,-0.51,0.4354,-35.3819
16:27:59:263,-0.9702,1.8357,13.9909,50.1271,0.5621,-0.1789,0.5909,-35.3819
16:27:59:283,-1.186,1.8933,12.6518,50.0478,1.0977,-0.0096,0.6952,-35.3819
16:27:59:303,-1.2776,1.621,10.3509,50.0103,1.169,-0.3929,0.5983,-35.3819
16:27:59:323,-1.5472,1.3621,8.9977,50.0029,0.7112,-0.9401,0.3811,-35.4778
16:27:59:343,-1.5868,1.0389,9.3388,49.946,0.1427,-1.202,0.2172,-35.589
16:27:59:363,-1.3848,0.5436,10.0131,50.2326,-0.1757,-1.0881,0.0639,-35.7036
16:27:59:385,-1.381,0.3073,10.184,50.3083,-0.3173,-0.6601,-0.0649,-35.8092
16:27:59:403,-1.4206,0.2812,9.6667,50.1877,-0.3865,-0.1139,-0.1043,-35.9045
16:27:59:423,-0.9344,0.1335,8.7203,50.3377,-0.5611,0.3662,-0.1118,-35.9045
16:27:59:443,-0.5817,0.3343,8.2673,50.2043,-0.7783,0.6611,-0.1906,-35.9045
16:27:59:463,-0.5845,0.477,8.0746,49.7769,-0.7293,0.7846,-0.2726,-35.9045
16:27:59:484,-0.8056,0.4389,7.4993,49.8069,-0.4024,0.6963,-0.2896,-35.9045
16:27:59:503,-1.2201,0.6178,6.6641,49.8056,-0.0021,0.5845,-0.0777,-35.9045
16:27:59:523,-1.152,1.2365,6.0905,49.7958,0.1767,0.4312,0.2172,-35.9045
16:27:59:543,-0.3793,1.5866,6.3931,49.7518,0.1246,0.148,0.2619,-35.9045
16:27:59:566,0.2993,1.462,7.0005,49.5067,0.0809,-0.1703,-0.0075,-35.9045
16:27:59:583,0.3318,1.1985,7.8736,49.5313,0.0021,-0.5334,-0.4024,-35.9045
16:27:59:633,-0.4185,0.8637,9.4429,49.235,-0.0117,-0.8783,-0.5792,-35.9045
16:27:59:635,-0.7474,0.322,11.1347,49.2052,0.1597,-0.8123,-0.4312,-35.9045
16:27:59:643,-0.6514,0.0407,11.6544,49.405,0.5621,-0.4056,-0.2172,-35.9045
16:27:59:664,-0.1741,0.222,11.2308,49.4601,0.6047,-0.0841,-0.0788,-35.9045
16:27:59:683,0.2357,0.6611,11.2105,49.2808,0.3609,0.0852,-0.1171,-35.9045
16:27:59:703,0.2908,1.2248,11.3325,49.139,0.1459,0.3311,-0.1512,-35.9045
16:27:59:722,0.0816,1.8737,11.6299,48.7703,0.0362,0.5845,-0.131,-35.9045
16:27:59:743,-0.1072,2.5786,11.8149,48.5238,0.0937,0.6675,-0.0426,-35.9045
16:27:59:764,0.4696,2.5592,11.7133,48.127,0.0053,0.4216,-0.131,-35.9045
16:27:59:783,1.1154,1.2405,12.4377,47.981,-0.2257,-0.0511,-0.4897,-35.9045
16:27:59:803,0.3513,0.1923,13.1503,47.8965,-0.0681,-0.2779,-0.7783,-35.9045
16:27:59:823,-0.6088,-0.4919,12.763,48.0456,0.2811,-0.329,-0.7218,-35.9045
16:27:59:843,-1.2553,-0.504,11.4042,48.0729,0.4589,-0.3332,-0.4269,-35.9045
16:27:59:864,-1.0025,-0.2168,10.0141,47.9933,0.3162,-0.3226,-0.1129,-35.8082
16:27:59:883,-0.2291,0.146,9.4318,48.1172,0.0532,-0.2981,0.0266,-35.7149
16:27:59:903,0.2144,0.497,8.949,48.1772,-0.0596,-0.2119,-0.0426,-35.6246
16:27:59:923,0.0751,0.7079,8.1123,48.2957,0.0245,0.017,-0.1522,-35.5308
16:27:59:946,-0.2572,0.9668,6.6764,48.3177,0.1405,0.0852,-0.164,-35.4328
16:27:59:964,-0.3121,1.1737,5.5242,48.2062,0.1299,0.0916,-0.0905,-35.333
16:27:59:984,0.0374,1.4396,5.0982,48.1433,0.0341,0.016,-0.0586,-35.2351
16:28:00:004,0.3719,1.6233,5.0424,47.8511,0.0564,-0.0798,-0.0937,-35.1388
16:28:00:023,0.8891,1.6991,5.1544,47.6526,0.0394,-0.1767,-0.1799,-35.0419
16:28:00:044,1.2783,1.6941,5.6428,47.3656,-0.1288,-0.2087,-0.3364,-34.9423
16:28:00:064,1.2395,1.6393,6.8428,47.007,-0.363,-0.0639,-0.4844,-34.8314
16:28:00:083,0.9167,1.6554,8.2869,47.1143,-0.4589,0.0703,-0.5941,-34.7041
16:28:00:102,0.4009,1.6757,9.3756,47.018,-0.3162,0.1182,-0.6441,-34.5576
16:28:00:123,-0.3783,1.8057,9.7508,47.2909,-0.1118,0.1735,-0.5685,-34.3917
16:28:00:144,-1.195,2.1648,9.9607,47.3749,-0.1224,0.1895,-0.3992,-34.2125
16:28:00:164,-2.2466,2.601,10.8782,47.254,-0.3481,0.0873,-0.1373,-34.0296
16:28:00:183,-2.7132,2.3114,12.3062,46.9132,-0.4472,-0.0681,0.2917,-33.853
16:28:00:203,-2.0582,1.8711,13.6207,46.7841,-0.411,-0.2364,0.6665,-33.6973
16:28:00:223,-1.4239,2.0145,14.714,46.4061,-0.2523,-0.1906,0.7932,-33.5697
16:28:00:243,-1.0097,1.874,15.044,46.4564,-0.0117,-0.0319,0.7389,-33.47
16:28:00:264,-0.6204,0.6581,14.7045,46.2921,0.2193,-0.181,0.5164,-33.47
16:28:00:283,-0.7863,-0.4623,13.9332,45.9906,0.4365,-0.3141,0.3577,-33.47
16:28:00:303,-1.0792,-0.6676,12.787,46.1105,0.5707,-0.2672,0.3822,-33.47
16:28:00:325,-0.8531,-0.4419,11.5495,46.0602,0.4695,-0.2119,0.445,-33.47
16:28:00:343,-0.2221,-0.2219,10.6266,45.9048,0.2555,-0.0575,0.4099,-33.47
16:28:00:363,0.3347,-0.308,9.6892,45.8345,0.1672,0.1863,0.2864,-33.47
16:28:00:383,0.5252,-0.2591,8.4105,45.7605,0.2257,0.445,0.1565,-33.47
16:28:00:403,0.3077,0.0036,7.0017,45.78,0.3024,0.5483,0.082,-33.47
16:28:00:424,0.0616,0.38,5.5527,45.5873,0.3609,0.6292,0.1267,-33.47
16:28:00:443,0.0647,0.4747,4.3543,45.3118,0.3535,0.593,0.1906,-33.47
16:28:00:463,0.0744,0.613,3.5404,45.6837,0.2151,0.3535,0.2065,-33.47
16:28:00:483,-0.035,1.0147,3.4523,45.5884,-0.0958,-0.1363,0.1789,-33.47
16:28:00:503,0.067,1.4276,4.2136,45.6311,-0.4205,-0.6633,0.115,-33.47
16:28:00:524,0.4625,1.1656,5.7648,45.3806,-0.6367,-1.0348,-0.0479,-33.47
16:28:00:543,0.8259,0.3792,7.8582,45.1041,-0.6952,-1.0604,-0.2576,-33.47
16:28:00:563,0.5389,0.0106,9.7062,44.7438,-0.5589,-0.4983,-0.378,-33.47
16:28:00:583,-0.3025,0.5191,10.5739,44.7352,-0.395,0.1491,-0.4333,-33.47
16:28:00:602,-0.5028,0.6978,10.7383,44.6261,-0.4812,0.3556,-0.4365,-33.47
16:28:00:623,-0.3011,0.936,11.3639,44.4308,-0.8496,0.3449,-0.4674,-33.47
16:28:00:644,-0.4623,1.2406,12.9207,44.1151,-0.9678,0.5174,-0.4621,-33.47
16:28:00:663,-0.6794,1.6011,13.8293,43.9033,-0.691,0.6824,-0.4195,-33.47
16:28:00:683,-0.7716,1.9494,13.6579,43.4118,-0.3737,0.7346,-0.3471,-33.47
16:28:00:703,-0.5216,2.1726,13.3394,42.8392,-0.3364,0.4876,-0.3141,-33.47
16:28:00:723,0.4026,0.8663,14.2731,42.7365,-0.5036,-0.2214,-0.395,-33.47
16:28:00:743,0.7455,-0.8989,15.6691,42.3903,-0.1331,-0.724,-0.461,-33.3737
16:28:00:764,0.405,-1.8903,14.819,41.8678,0.6867,-0.7708,-0.444,-33.2605
16:28:00:783,-0.1013,-1.6097,12.6707,41.8563,1.1732,-0.856,-0.2225,-33.1364
16:28:00:805,0.1684,-0.9005,10.6868,41.7152,1.0817,-0.9007,0.0809,-33.0143
16:28:00:824,1.1658,-0.42,9.4315,41.9824,0.7027,-0.7612,0.1735,-32.9025
16:28:00:843,1.6106,-0.0664,8.9334,42.237,0.346,-0.477,-0.0287,-32.7988
16:28:00:864,1.2036,0.3208,8.3648,42.2532,0.3024,-0.0266,-0.2438,-32.6906
16:28:00:883,0.405,0.5403,7.1996,42.3799,0.4791,0.2183,-0.3471,-32.5731
16:28:00:905,-0.2521,0.8645,5.823,42.6021,0.626,0.1725,-0.3056,-32.4487
16:28:00:924,-0.4287,1.1346,4.9051,42.7312,0.5568,-0.0703,-0.2374,-32.3225
16:28:00:943,-0.2508,1.1422,4.6068,42.7673,0.3535,-0.2214,-0.1469,-32.1972
16:28:00:963,0.0894,1.143,4.6902,42.934,0.164,-0.148,-0.1065,-32.0721
16:28:00:983,0.4199,1.3664,5.1115,43.1695,-0.0798,-0.0958,-0.1416,-31.9469
16:28:01:004,0.6115,1.4192,6.1284,43.2853,-0.3961,-0.0713,-0.2513,-31.8208
16:28:01:023,0.7079,1.1514,7.8749,43.4002,-0.6452,-0.0798,-0.3428,-31.6886
16:28:01:043,0.3062,1.1771,9.7406,43.5257,-0.6132,0.0224,-0.3609,-31.5447
16:28:01:064,-0.2973,1.4389,10.8164,43.1963,-0.3684,0.3205,-0.2502,-31.3871
16:28:01:084,-0.9339,1.9489,11.2099,42.6568,-0.1629,0.4535,-0.0362,-31.2244
16:28:01:104,-1.1338,2.5607,11.4889,42.7016,-0.0713,0.2651,0.2204,-31.0697
16:28:01:123,-0.7263,2.5626,11.8863,42.627,-0.148,0.0788,0.3897,-30.9318
16:28:01:143,-0.3218,2.4458,12.8255,42.4929,-0.2427,0.0426,0.4312,-30.8127
16:28:01:163,-0.4233,2.3324,14.0376,42.7863,-0.0437,0.1799,0.4535,-30.7091
16:28:01:185,-0.4983,2.0339,13.9806,42.6817,0.4344,0.1459,0.4482,-30.7091
16:28:01:204,-0.6166,1.5151,12.8601,42.5803,0.5994,-0.1597,0.3439,-30.7091
16:28:01:223,-0.8449,0.9197,12.0989,42.5096,0.5345,-0.2598,0.2662,-30.7091
16:28:01:243,-1.1304,0.6108,11.4265,42.52,0.4269,-0.1778,0.231,-30.7091
16:28:01:263,-1.1818,0.2325,10.8305,42.6634,0.1416,-0.2033,0.2129,-30.7091
16:28:01:285,-0.9764,-0.3739,10.9853,42.9342,-0.1416,-0.2459,0.2406,-30.7091
16:28:01:304,-0.6916,-0.7553,10.9746,43.2597,-0.1448,-0.0777,0.3141,-30.7091
16:28:01:323,-0.5291,-0.7282,10.029,43.6192,0.1331,0.3013,0.4322,-30.7091
16:28:01:343,-0.4843,-0.3612,8.1642,44.1332,0.4514,0.577,0.5515,-30.7091
16:28:01:363,-0.3087,-0.0479,6.3133,44.558,0.6154,0.5557,0.6122,-30.7091
16:28:01:384,-0.1301,0.2264,4.9272,44.6693,0.6037,0.3151,0.6292,-30.7091
16:28:01:403,-0.1059,0.8285,4.2854,44.852,0.4876,0.0298,0.6505,-30.7091
16:28:01:423,0.1199,1.2455,4.1448,44.9455,0.3428,-0.1192,0.6239,-30.8101
16:28:01:443,0.5312,1.6441,4.3863,45.0914,0.0617,-0.1501,0.4621,-30.9309
16:28:01:466,0.8895,2.0748,5.3642,45.5373,-0.477,-0.1895,0.1278,-31.0643
16:28:01:483,0.9574,2.0361,7.904,45.4143,-0.9539,-0.3481,-0.2534,-31.1966
16:28:01:503,0.8456,0.9841,10.4987,45.3877,-0.856,-0.2704,-0.5664,-31.3084
16:28:01:523,0.0172,0.8303,11.6243,45.3363,-0.2598,0.1373,-0.6792,-31.3084
16:28:01:543,-0.7975,1.2394,10.915,45.2334,0.164,0.5579,-0.5568,-31.3084
16:28:01:565,-1.0728,1.3569,10.3437,45.1266,-0.066,0.725,-0.3535,-31.3084
16:28:01:583,-1.0411,1.7426,11.3713,45.1057,-0.4653,0.6984,-0.0468,-31.3084
16:28:01:604,-0.6826,2.0128,13.0234,44.9261,-0.5025,0.5451,0.2523,-31.3084
16:28:01:639,-0.2939,2.0327,14.1684,44.8782,-0.1895,0.3503,0.5206,-31.3084
16:28:01:643,0.9702,1.4103,14.2189,44.9578,0.0862,-0.083,0.5621,-31.3084
16:28:01:664,2.1504,-0.0119,14.3908,44.7888,0.0117,-0.5408,0.1927,-31.3084
16:28:01:683,1.7037,-0.9194,14.3252,44.8886,0.2704,-0.2438,-0.115,-31.3084
16:28:01:703,0.7085,-0.8662,12.5554,45.2097,0.5164,0.0383,-0.1927,-31.3084
16:28:01:723,0.0914,-0.4341,10.7406,45.1833,0.2459,0.033,-0.0426,-31.3084
16:28:01:743,0.5063,-0.1141,10.1797,45.706,-0.1373,-0.0724,0.0969,-31.3084
16:28:01:764,1.2153,0.16,9.9347,45.8585,-0.2651,0.0053,0.033,-31.3084
16:28:01:783,1.2485,0.395,9.0434,46.4045,-0.0543,0.2214,-0.1757,-31.3084
16:28:01:805,0.7672,0.7412,7.2121,46.5385,0.1033,0.3024,-0.3513,-31.3084
16:28:01:823,0.2279,0.9822,5.7314,46.6653,0.0798,0.2097,-0.4184,-31.3084
16:28:01:846,-0.0621,1.0817,5.1272,46.78,0.0202,0.0447,-0.4205,-31.3084
16:28:01:864,-0.0707,0.9775,4.9997,46.9156,0.0202,-0.165,-0.3694,-31.3084
16:28:01:884,0.0108,1.2375,5.3655,46.4597,0.0511,-0.2427,-0.3481,-31.3084
16:28:01:903,0.0037,1.597,5.6438,46.6308,0.1214,-0.0809,-0.3268,-31.3084
16:28:01:923,0.1663,1.6732,5.9194,46.3014,0.016,0.0021,-0.3662,-31.3084
16:28:01:946,0.1106,1.6874,6.9534,46.1262,-0.2023,-0.0234,-0.3971,-31.3084
16:28:01:965,-0.2703,1.9573,8.4738,46.1755,-0.2608,-0.2406,-0.4088,-31.3084
16:28:01:983,-0.8765,2.2518,9.5997,46.1875,-0.2087,-0.3918,-0.3822,-31.3084
16:28:02:003,-1.2403,2.3132,10.4303,46.2233,-0.1959,-0.2768,-0.1991,-31.3084
16:28:02:023,-1.3909,2.5687,11.0538,46.3002,-0.164,0.0767,0.0053,-31.3084
16:28:02:044,-1.6569,2.7207,11.3324,46.2779,-0.1597,0.2342,0.1959,-31.3084
16:28:02:063,-1.574,2.4757,11.974,46.1732,-0.2864,0.0948,0.3971,-31.3084
16:28:02:084,-1.1733,1.9377,13.2758,46.3568,-0.3354,-0.0617,0.5164,-31.3084
16:28:02:103,-1.0246,1.8768,14.033,46.1778,-0.0405,0.0437,0.5749,-31.3084
16:28:02:123,-0.8263,1.4148,13.3534,45.8399,0.3247,-0.1033,0.4802,-31.3084
16:28:02:144,-0.7806,0.4108,12.6045,45.7409,0.3567,-0.5866,0.3364,-31.3084
16:28:02:164,-0.9551,-0.1533,12.2916,45.5866,0.3428,-0.6345,0.2992,-31.3084
16:28:02:183,-0.9421,-0.1897,11.6263,45.6173,0.2789,-0.3982,0.3237,-31.3084
16:28:02:203,-0.6393,-0.2337,10.9238,46.0947,0.0341,-0.2949,0.2896,-31.3084
16:28:02:223,-0.1497,-0.2449,10.5503,46.3142,-0.2183,-0.2598,0.1906,-31.3084
16:28:02:244,0.2409,-0.4229,10.2115,46.6224,-0.362,-0.2395,0.0117,-31.3084
16:28:02:264,0.1129,-0.3308,9.6744,46.9835,-0.263,-0.082,-0.1129,-31.3084
16:28:02:283,-0.3237,-0.1957,8.5333,46.857,0.0213,-0.0479,-0.0979,-31.3084
16:28:02:303,-0.647,-0.0899,7.0452,47.139,0.3758,-0.1043,0.0575,-31.3084
16:28:02:324,-0.5018,-0.0145,5.5788,46.9469,0.5824,-0.1544,0.2779,-31.3084
16:28:02:344,-0.2992,0.2968,4.6653,46.7835,0.56,-0.148,0.4727,-31.3084
16:28:02:363,0.0369,0.6524,4.3983,46.3776,0.3833,-0.1778,0.6516,-31.3084
16:28:02:383,0.4752,1.0353,4.7182,46.0233,0.1416,-0.4088,0.658,-31.4203
16:28:02:403,1.0657,1.4411,5.7923,45.6771,-0.1352,-0.6399,0.4983,-31.5548
16:28:02:425,1.504,1.4799,7.454,45.6035,-0.4461,-0.6335,0.1501,-31.6985
16:28:02:443,1.6398,0.8616,9.2793,45.5962,-0.5994,-0.2417,-0.2002,-31.8345
16:28:02:463,1.1162,0.4546,10.4524,45.7658,-0.461,0.4354,-0.4227,-31.9453
16:28:02:483,0.3454,0.4538,10.5884,45.9717,-0.2906,0.8709,-0.4514,-31.9453
16:28:02:503,-0.1887,0.6776,10.5496,45.5862,-0.4365,0.7506,-0.3503,-31.9453
16:28:02:524,-0.0974,0.4082,11.5004,45.5441,-0.7325,0.4695,-0.164,-31.9453
16:28:02:544,0.067,0.3363,12.9109,45.3498,-0.6856,0.5376,0.0894,-31.9453
16:28:02:564,0.2655,0.8082,13.2271,44.8789,-0.3652,0.7857,0.3386,-31.9453
16:28:02:583,0.7368,1.6883,12.6339,44.6261,-0.2949,0.5355,0.3322,-31.9453
16:28:02:603,1.7297,0.728,13.1074,44.4904,-0.6707,-0.1522,0.0351,-31.9453
16:28:02:624,1.575,-0.1008,14.6817,44.1451,-0.643,-0.362,-0.2619,-31.9453
16:28:02:644,0.6879,-0.8158,14.6971,44.075,-0.0958,-0.1597,-0.3418,-31.9453
16:28:02:664,-0.1329,-1.1023,13.1854,43.7324,0.2981,-0.0841,-0.115,-31.9453
16:28:02:683,-0.017,-0.6085,11.7303,43.7004,0.3641,-0.2587,0.2225,-31.9453
16:28:02:703,0.7518,0.2385,10.9239,43.689,0.3354,-0.3716,0.3237,-31.9453
16:28:02:724,1.302,0.7887,9.8454,43.8714,0.4035,-0.2097,0.1448,-31.9453
16:28:02:744,1.2362,1.1221,8.4773,43.9511,0.5249,0.049,-0.1544,-31.9453
16:28:02:764,0.8086,1.229,6.8981,44.1876,0.577,0.164,-0.4078,-31.9453
16:28:02:783,0.3176,1.1818,5.7735,44.3048,0.5387,0.1352,-0.5376,-31.9453
16:28:02:806,0.058,0.904,5.1498,44.2823,0.478,0.0362,-0.5781,-31.9453
16:28:02:823,-0.0629,0.8497,4.8749,43.9911,0.4131,-0.0053,-0.5611,-31.9453
16:28:02:844,0.0447,0.757,4.8415,43.9717,0.3066,0.0202,-0.5621,-31.9453
16:28:02:864,0.3236,0.8949,4.9389,43.6439,0.0607,0.0543,-0.6281,-31.9453
16:28:02:883,0.2807,0.8884,5.6535,43.7809,-0.3098,0.0809,-0.6803,-31.9453
16:28:02:904,0.2241,0.9074,7.1213,43.6532,-0.5951,0.1022,-0.609,-31.9453
16:28:02:923,-0.1474,1.2226,8.8782,43.3697,-0.6484,0.1235,-0.5153,-31.9453
16:28:02:944,-0.2676,1.7247,10.1762,43.5923,-0.5185,0.1139,-0.3471,-31.8474
16:28:02:964,-0.1043,2.0074,10.8464,43.2508,-0.4237,0.0862,-0.2534,-31.7405
16:28:02:983,-0.7024,2.1038,11.7997,43.1404,-0.3673,0.0032,-0.0969,-31.6279
16:28:03:004,-1.1674,1.8387,12.849,43.3475,-0.2853,-0.1554,0.2161,-31.5197
16:28:03:023,-0.7929,1.159,13.7304,43.1794,-0.2534,-0.2332,0.5589,-31.4259
16:28:03:044,-0.2357,1.3308,14.7718,42.8771,-0.0458,-0.1235,0.741,-31.4259
16:28:03:063,-0.1318,1.843,14.4695,42.7935,0.3801,-0.0075,0.7101,-31.4259
16:28:03:083,-0.3886,1.2625,13.5976,42.3882,0.5515,-0.3684,0.5802,-31.4259
16:28:03:103,-0.603,0.5536,13.3794,42.4337,0.5653,-0.7846,0.527,-31.4259
16:28:03:123,-0.4513,0.1239,13.205,42.1147,0.56,-0.8102,0.4865,-31.4259
16:28:03:143,-0.2955,-0.3134,12.7197,42.131,0.4259,-0.5994,0.363,-31.4259
16:28:03:164,-0.3548,-0.7339,12.2134,42.2222,0.3119,-0.2832,0.2438,-31.4259
16:28:03:184,-0.8104,-0.8154,11.3984,42.192,0.3673,0.0479,0.2587,-31.4259
16:28:03:203,-0.9856,-0.7441,9.8737,41.836,0.4951,0.3268,0.362,-31.4259
16:28:03:223,-0.9854,-0.4634,8.3839,41.9198,0.6228,0.3971,0.4759,-31.4259
16:28:03:243,-0.8242,-0.1092,7.1,41.8066,0.7591,0.2491,0.5717,-31.5227
16:28:03:263,-0.4673,0.0242,5.983,41.558,0.9039,0.0617,0.6548,-31.642
16:28:03:284,-0.0125,0.2979,4.8884,41.7519,0.9518,-0.0905,0.6856,-31.7864
16:28:03:303,0.5887,0.8081,4.1852,41.9649,0.7367,-0.2108,0.6228,-31.9566
16:28:03:323,1.0578,1.4717,4.1897,41.7234,0.3577,-0.2843,0.4472,-32.1476
16:28:03:343,1.3168,1.8702,4.6143,41.7514,-0.0437,-0.4099,0.1703,-32.3506
16:28:03:363,1.1729,1.706,5.3935,41.4381,-0.4929,-0.5387,-0.066,-32.5535
16:28:03:385,0.8786,1.6064,6.4201,41.3235,-0.8911,-0.5451,-0.0905,-32.7437
16:28:03:403,0.7846,1.5045,7.5953,41.1826,-1.1669,-0.2023,0.0745,-32.9216
16:28:03:423,1.1047,0.4603,9.1697,40.9125,-1.2595,0.3226,0.2183,-33.0854
16:28:03:443,0.9774,-0.3132,10.8756,40.7823,-0.9507,1.1903,0.4014,-33.2357
16:28:03:467,0.6795,0.7509,11.8722,40.3402,-0.445,1.1083,0.3077,-33.3887
16:28:03:484,-0.0487,1.5652,10.9734,40.1516,-0.3567,0.8038,0.2395,-33.5472
16:28:03:503,0.6411,1.9507,11.9382,39.899,-0.5036,0.3034,0.2587,-33.7149
16:28:03:523,1.1522,1.876,13.1968,39.4306,-0.2853,0.165,0.2395,-33.8844
16:28:03:543,1.4066,1.6485,13.152,39.2327,0.1597,0.2555,0.1799,-34.0519
16:28:03:566,2.0924,0.5247,12.1552,39.1825,0.0319,0.2236,0.0192,-34.2213
16:28:03:583,2.0276,-0.8372,12.8589,38.7431,-0.5206,0.2385,-0.2981,-34.385
16:28:03:603,1.0385,-1.3355,14.1932,38.809,-0.2704,0.2491,-0.3982,-34.5303
16:28:03:623,0.3474,-1.4935,13.3751,38.8311,0.2332,0.0458,-0.3396,-34.6551
16:28:03:667,0.0853,-1.1285,11.6657,38.9626,0.3801,-0.1427,-0.197,-34.7679
16:28:03:670,0.4449,-0.4483,10.2802,38.998,0.2438,-0.3258,-0.0511,-34.8759
16:28:03:684,1.0456,-0.1784,9.1329,39.6149,-0.0075,-0.0053,0.0298,-34.9788
16:28:03:703,1.1684,0.2894,8.1453,39.8608,-0.132,0.5685,-0.0532,-35.0747
16:28:03:723,0.8903,0.5184,7.1693,40.1154,-0.2449,1.038,-0.2236,-35.0747
16:28:03:743,0.3449,0.5391,6.7226,40.3797,-0.2757,1.1232,-0.3694,-35.0747
16:28:03:763,-0.1863,0.6968,6.4713,40.5163,-0.1352,0.9294,-0.4418,-35.0747
16:28:03:783,-0.6314,0.8057,6.1998,40.1113,0.1065,0.5557,-0.4269,-35.0747
16:28:03:803,-0.7037,0.7021,6.0403,39.7208,0.33,0.1746,-0.3173,-35.0747
16:28:03:823,-0.4498,0.8022,6.0155,39.4131,0.4259,-0.0735,-0.1938,-35.0747
16:28:03:843,-0.0701,1.2697,6.6057,38.968,0.3215,-0.2523,-0.1863,-35.0747
16:28:03:864,0.3189,1.4785,7.3411,38.8991,0.2459,-0.3311,-0.2587,-35.0747
16:28:03:883,0.3441,1.2259,7.9199,38.8548,0.1416,-0.3492,-0.3567,-35.0747
16:28:03:903,-0.2228,1.5354,8.6251,39.0018,-0.0948,-0.2449,-0.3556,-35.0747
16:28:03:923,-0.7061,2.124,9.717,39.134,-0.2992,-0.1341,-0.28,-35.0747
16:28:03:944,-0.756,2.2368,10.8409,39.3131,-0.4535,0.0596,-0.2268,-35.0747
16:28:03:964,-0.93,1.8115,12.0054,39.2813,-0.5195,0.1054,-0.1906,-35.0747
16:28:03:983,-1.2753,1.2942,13.1455,39.341,-0.4727,-0.1288,-0.0617,-35.0747
16:28:04:003,-1.2475,0.8889,14.2162,39.4066,-0.3151,-0.4003,0.1533,-35.0747
16:28:04:023,-1.1382,1.0949,14.561,39.299,0.165,-0.3897,0.4152,-35.0747
16:28:04:045,-0.8321,1.4814,13.3899,39.2079,0.5781,-0.165,0.6164,-35.0747
16:28:04:064,-0.3975,1.4406,12.1206,39.5496,0.5845,-0.2545,0.5387,-35.0747
16:28:04:083,-0.1903,0.5145,11.5409,39.6292,0.4131,-0.56,0.2747,-35.0747
16:28:04:103,-0.6184,-0.0529,11.7907,39.5687,0.363,-0.9028,0.0873,-35.0747
16:28:04:123,-0.8935,-0.3578,11.6743,39.5745,0.5132,-1.0742,0.0511,-35.0747
16:28:04:144,-0.867,-0.3811,10.7999,39.5469,0.6697,-0.9965,0.082,-35.0747
16:28:04:163,-0.507,-0.2728,9.6818,39.3718,0.61,-0.8837,0.0767,-35.0747
16:28:04:183,0.0335,-0.2701,9.1111,39.8498,0.3662,-0.7846,0.0021,-35.0747
16:28:04:203,0.1479,-0.1283,8.6345,39.7009,0.2406,-0.5089,-0.0415,-35.0747
16:28:04:223,-0.0675,0.2667,7.7323,39.5171,0.379,0.0043,-0.0117,-35.0747
16:28:04:244,-0.3389,0.5911,6.458,39.672,0.5589,0.4099,0.1033,-35.0747
16:28:04:264,-0.3555,0.793,5.2178,39.59,0.6239,0.5526,0.2459,-35.0747
16:28:04:283,-0.0799,0.8328,4.7655,39.5388,0.4812,0.3513,0.2789,-35.0747
16:28:04:303,0.1913,1.0224,5.1692,39.6947,0.2406,0.0106,0.2151,-35.0747
16:28:04:326,0.3226,1.2863,6.3542,39.471,0.1522,-0.3705,0.1618,-35.1683
16:28:04:343,0.8025,1.3212,7.2,39.4415,0.1938,-0.6026,0.0798,-35.2673
16:28:04:364,1.3793,1.5756,7.8291,39.4478,0.1033,-0.6452,-0.0767,-35.3663
16:28:04:383,1.6587,1.9055,8.823,39.4446,-0.0926,-0.6015,-0.3162,-35.4579
16:28:04:404,1.7449,2.0255,10.036,39.6558,0.0458,-0.1672,-0.6462,-35.4579
16:28:04:425,1.4319,2.1641,10.2669,39.4592,0.1288,-0.1288,-0.873,-35.4579
16:28:04:443,1.0954,2.3875,10.3156,39.0662,0.0756,0.2012,-0.9071,-35.4579
16:28:04:464,0.6784,2.8541,11.069,38.6352,-0.1682,0.4024,-0.7144,-35.4579
16:28:04:483,0.5276,2.9636,11.4566,37.9314,-0.3939,0.6005,-0.363,-35.4579
16:28:04:503,0.0888,3.1328,12.2455,37.6575,-0.4631,0.9475,-0.0756,-35.4579
16:28:04:524,-0.3424,3.313,12.8718,37.3972,-0.3737,1.3053,0.2534,-35.4579
16:28:04:543,0.4183,2.3272,14.2967,37.3425,-0.6292,1.0455,0.5962,-35.4579
16:28:04:564,1.5206,0.6393,15.5493,37.328,-0.6803,0.4269,0.4919,-35.4579
16:28:04:583,1.1879,-0.3828,15.233,37.3297,-0.0479,0.5824,0.2513,-35.4579
16:28:04:604,0.0602,-0.2229,13.1704,38.0163,0.543,0.7101,0.164,-35.4579
16:28:04:624,-0.3153,0.3799,10.5866,37.8495,0.5313,0.4312,0.3364,-35.4579
16:28:04:643,0.0897,0.777,8.7679,37.9719,0.1065,0.0681,0.4684,-35.4579
16:28:04:664,0.5788,1.1525,8.0599,38.1437,-0.2576,-0.083,0.3705,-35.4579
16:28:04:683,0.8293,1.2912,7.536,38.3084,-0.3194,-0.0798,0.1384,-35.4579
16:28:04:706,0.8129,1.4993,6.9561,38.4682,-0.2012,-0.0617,-0.1459,-35.4579
16:28:04:723,0.6001,1.222,6.3447,38.5645,-0.0309,-0.0607,-0.3247,-35.4579
16:28:04:743,0.233,1.0971,5.8024,38.4729,0.1373,0.0085,-0.3428,-35.4579
16:28:04:763,0.0829,1.1985,5.3606,38.2572,0.2438,0.0202,-0.3205,-35.4579
16:28:04:782,0.2125,1.2588,5.1704,37.7209,0.1789,-0.1001,-0.3258,-35.4579
16:28:04:804,0.229,1.4901,5.9034,37.3022,-0.0032,-0.4046,-0.3034,-35.4579
16:28:04:823,0.5512,1.3961,6.9108,37.1087,-0.0309,-0.7357,-0.2715,-35.4579
16:28:04:843,0.8595,1.2043,7.5274,36.8612,0.0075,-0.7974,-0.2566,-35.4579
16:28:04:863,0.8042,1.6216,8.0225,36.835,-0.066,-0.4791,-0.2129,-35.4579
16:28:04:883,0.6707,2.3775,8.512,36.8247,-0.3077,0.0958,-0.1821,-35.4579
16:28:04:904,0.3597,2.7307,9.2937,36.7668,-0.5323,0.5206,-0.1054,-35.4579
16:28:04:924,-0.0419,2.8269,10.1036,36.6293,-0.6207,0.5249,0.0085,-35.4579
16:28:04:943,-0.3,2.9115,10.8197,36.2948,-0.6367,0.1757,0.1203,-35.4579
16:28:04:964,-0.1571,2.5023,12.0085,36.3358,-0.8379,-0.2715,0.066,-35.4579
16:28:04:983,-0.7701,1.585,13.9502,36.3177,-0.8294,-0.3087,-0.1703,-35.4579
16:28:05:004,-2.4069,0.7923,14.5662,36.2074,-0.2576,0.3077,-0.1533,-35.4579
16:28:05:023,-3.7025,0.4651,13.1719,36.4369,0.2864,0.9231,0.3045,-35.4579
16:28:05:043,-3.3665,0.231,11.9629,36.3681,0.2598,0.6388,0.7421,-35.4579
16:28:05:063,-2.1403,-0.1811,11.5739,36.0539,0.0224,-0.1874,0.8645,-35.4579
16:28:05:083,-0.7519,-0.4779,11.934,35.7944,-0.1725,-0.7027,0.7527,-35.4579
16:28:05:103,0.4054,-0.7024,12.0574,35.4664,-0.2065,-0.5653,0.5164,-35.4579
16:28:05:123,1.099,-0.9168,11.777,35.0877,-0.3002,-0.0862,0.2576,-35.4579
16:28:05:143,1.4438,-0.7982,11.3354,34.9324,-0.5089,0.3162,-0.0085,-35.4579
16:28:05:163,1.3098,-0.776,10.8339,34.4526,-0.5792,0.6942,-0.1852,-35.4579
16:28:05:186,0.7862,-0.5949,9.985,34.3846,-0.3673,1.0093,-0.1714,-35.4579
16:28:05:203,0.1794,-0.1425,8.8689,34.1956,0.0468,1.0615,0.0075,-35.4579
16:28:05:223,-0.041,0.0927,7.3168,34.4398,0.5015,0.8315,0.2502,-35.4579
16:28:05:243,0.0855,0.1509,5.8185,35.067,0.7751,0.4227,0.4131,-35.4579
16:28:05:263,0.1499,0.4207,4.8059,35.3689,0.7836,-0.0149,0.4589,-35.4579
16:28:05:285,0.1381,0.721,4.415,35.7016,0.6132,-0.214,0.4546,-35.4579
16:28:05:303,-0.0798,1.0453,4.6753,35.9221,0.3577,-0.4078,0.4173,-35.5551
16:28:05:323,-0.2988,1.1385,5.8558,35.7908,0.0937,-0.7932,0.3939,-35.6695
16:28:05:343,0.0138,1.4987,7.6403,36.0187,-0.1139,-1.1285,0.395,-35.7995
16:28:05:363,0.5448,1.7388,9.0319,35.8961,-0.1533,-0.9358,0.2321,-35.9357
16:28:05:384,0.8103,1.557,9.9374,35.4972,-0.0767,-0.3258,-0.0628,-36.0653
16:28:05:403,0.3158,1.3988,10.6905,35.1717,0.0309,-0.0234,-0.2821,-36.1828
16:28:05:423,-0.0863,1.7021,10.9943,34.7996,-0.0064,-0.1214,-0.379,-36.2874
16:28:05:443,-0.4179,2.1675,11.8942,33.9321,-0.2076,-0.2204,-0.4088,-36.3775
16:28:05:468,-0.396,2.1058,12.936,33.2245,-0.2587,-0.0394,-0.3162,-36.3775
16:28:05:484,-0.3198,1.9574,13.5549,32.9438,0.1086,0.1501,-0.1246,-36.3775
16:28:05:503,-0.0685,2.666,12.8138,32.7436,0.4418,0.0032,0.0926,-36.3775
16:28:05:523,1.3851,2.2106,12.4765,32.8887,0.116,-0.675,0.131,-36.3775
16:28:05:543,2.7762,0.1601,13.6896,33.3106,-0.2204,-1.2403,-0.2044,-36.3775
16:28:05:566,2.4872,-1.2813,13.9066,33.7045,0.197,-0.7729,-0.5866,-36.3775
16:28:05:583,0.7567,-1.0661,12.2682,33.9475,0.6271,-0.1682,-0.7367,-36.3775
16:28:05:604,-0.5354,-0.3367,10.4904,34.5431,0.5483,0.0649,-0.5174,-36.3775
16:28:05:623,-0.5479,0.2552,9.395,35.0122,0.1384,0.0075,-0.1842,-36.3775
16:28:05:643,0.1471,0.6664,9.0085,35.4873,-0.2172,-0.0671,-0.049,-36.3775
16:28:05:684,0.5568,0.8009,8.5176,35.55,-0.2566,0.0937,-0.1533,-36.3775
16:28:05:686,0.5857,0.8627,7.4668,35.5757,-0.2225,0.3343,-0.3141,-36.3775
16:28:05:703,0.3484,0.9303,6.5433,34.9729,-0.2459,0.428,-0.461,-36.3775
16:28:05:723,-0.0032,0.8833,6.0984,34.0759,-0.2906,0.3609,-0.5355,-36.3775
16:28:05:743,-0.3717,0.7011,5.9544,33.5947,-0.2332,0.3758,-0.445,-36.3775
16:28:05:764,-0.4387,0.8161,5.9394,33.2328,-0.1352,0.3673,-0.346,-36.3775
16:28:05:783,-0.196,0.8237,6.0207,32.9135,-0.1672,0.165,-0.346,-36.2819
16:28:05:803,-0.1554,0.8194,6.4064,32.6844,-0.3279,0.0479,-0.3226,-36.1801
16:28:05:823,-0.2994,0.5469,7.251,32.6073,-0.477,0.2481,-0.1789,-36.069
16:28:05:843,-0.3451,0.4605,8.3073,32.568,-0.5046,0.379,0.016,-35.9547
16:28:05:864,-0.0991,0.8184,9.4501,32.5781,-0.4003,0.1267,0.1693,-35.8474
16:28:05:884,0.4382,1.291,10.3169,32.6691,-0.2321,-0.1384,0.1746,-35.751
16:28:05:903,0.3417,1.4855,11.1547,32.5594,-0.131,-0.1075,0.0979,-35.751
16:28:05:923,-0.297,1.5318,11.8111,32.5736,-0.0309,0.0596,0.2151,-35.751
16:28:05:946,-0.5779,2.0477,12.2721,32.3018,-0.0266,0.1437,0.4365,-35.751
16:28:05:964,-0.1032,2.1141,12.9551,32.2351,-0.1214,0.1075,0.5664,-35.751
16:28:05:983,0.4257,1.7929,13.7869,32.199,-0.0554,-0.0437,0.5376,-35.751
16:28:06:003,0.2012,1.4076,14.0462,32.5743,0.3386,0.0287,0.5366,-35.751
16:28:06:024,-0.3722,1.6751,13.0669,32.8786,0.9688,0.2204,0.725,-35.751
16:28:06:045,-0.5212,1.6421,10.91,32.9552,1.2755,0.1884,0.7846,-35.751
16:28:06:064,-0.7464,1.3983,9.2608,33.2335,0.9933,-0.0138,0.5749,-35.751
16:28:06:083,-0.8281,0.8714,9.1264,33.156,0.3386,-0.3183,0.2768,-35.751
16:28:06:103,-1.243,0.0957,10.1492,32.9199,-0.2374,-0.4802,0.0586,-35.751
16:28:06:123,-1.7457,-0.475,11.2441,32.4693,-0.4759,-0.3907,0.0415,-35.751
16:28:06:144,-1.9628,-0.601,11.5179,32.3039,-0.3992,-0.0937,0.1703,-35.751
16:28:06:163,-1.7542,-0.3504,11.0869,32.0126,-0.3577,0.1693,0.3237,-35.751
16:28:06:183,-1.195,-0.2391,10.2531,31.8033,-0.2513,0.4653,0.4365,-35.8486
16:28:06:203,-0.6244,-0.1495,8.8514,31.8684,-0.0948,0.7484,0.4684,-35.9503
16:28:06:223,-0.2353,-0.0353,7.5724,31.8719,0.0298,0.7644,0.3992,-36.0634
16:28:06:243,-0.2047,0.3441,6.4357,31.6774,0.181,0.5227,0.3386,-36.1877
16:28:06:263,-0.1983,0.6379,5.661,31.8142,0.3226,0.3396,0.3801,-36.3213
16:28:06:283,0.1156,0.6092,5.1329,31.9911,0.346,0.4567,0.4695,-36.4638
16:28:06:303,0.2032,0.8907,5.1966,32.1447,0.1863,0.6281,0.4099,-36.6174
16:28:06:326,-0.293,1.6612,6.2639,32.4391,0.0085,0.4546,0.3098,-36.7828
16:28:06:343,-0.47,2.034,7.5662,32.5154,-0.0437,-0.0468,0.2151,-36.9586
16:28:06:364,0.0032,1.7692,8.6305,32.306,-0.0862,-0.478,0.0511,-37.1401
16:28:06:383,0.4259,1.6358,9.4855,32.3368,-0.2012,-0.4035,-0.2747,-37.3149
16:28:06:404,0.1796,1.2418,10.2474,32.1862,-0.2353,0.1033,-0.6154,-37.466
16:28:06:425,-0.674,1.0184,10.6163,31.9032,-0.2087,0.5472,-0.7186,-37.5833
16:28:06:443,-1.5474,1.2847,10.9301,31.4167,-0.3279,0.461,-0.6782,-37.6756
16:28:06:464,-2.0998,1.7782,11.7774,30.9085,-0.4993,0.363,-0.4865,-37.6756
16:28:06:483,-1.9007,1.6919,12.6859,30.2774,-0.428,0.2321,-0.1778,-37.6756
16:28:06:503,-1.1812,1.4031,12.9272,29.8253,-0.0884,0.1544,0.1129,-37.6756
16:28:06:523,-0.8005,1.9789,12.2915,29.6354,0.2757,-0.0735,0.3066,-37.6756
16:28:06:543,0.1061,2.0479,11.4823,29.7076,0.2406,-0.3481,0.3897,-37.6756
16:28:06:564,1.2989,0.5795,11.5996,29.6891,-0.0043,-0.5738,0.115,-37.6756
16:28:06:583,1.0894,-0.5977,12.1444,30.0523,0.0564,-0.4269,-0.231,-37.6756
16:28:06:604,0.0911,-0.6857,11.5297,30.2703,0.2853,-0.2289,-0.3567,-37.6756
16:28:06:623,-0.4178,-0.4505,10.5027,30.9044,0.1703,-0.1363,-0.2896,-37.6756
16:28:06:643,-0.1626,-0.2439,9.9806,31.685,-0.2662,-0.28,-0.2875,-37.6756
16:28:06:664,0.371,-0.2782,10.1547,32.213,-0.6164,-0.2268,-0.4418,-37.6756
16:28:06:683,0.3314,-0.3725,10.0829,32.2809,-0.5781,0.1948,-0.6207,-37.6756
16:28:06:703,-0.217,-0.1505,9.2107,32.6537,-0.23,0.6771,-0.6761,-37.6756
16:28:06:724,-0.7754,0.2221,7.7692,32.7049,0.1693,0.7964,-0.577,-37.6756
16:28:06:744,-0.8779,0.5168,6.4573,32.4707,0.4259,0.5036,-0.4216,-37.6756
16:28:06:763,-0.7104,0.9519,5.8396,32.0518,0.5451,-0.0479,-0.2715,-37.6756
16:28:06:783,-0.2725,1.1438,5.8284,31.8017,0.609,-0.5238,-0.1427,-37.6756
16:28:06:805,0.3597,1.1188,5.8831,31.0446,0.5792,-0.658,-0.1618,-37.6756
16:28:06:823,0.5116,1.3585,6.0862,30.9069,0.3875,-0.5259,-0.2992,-37.6756
16:28:06:843,0.2381,1.3857,6.8039,30.6115,0.0639,-0.3939,-0.4376,-37.6756
16:28:06:863,-0.0876,1.4961,7.8084,30.0475,-0.2246,-0.3322,-0.5387,-37.5766
16:28:06:883,-0.3877,1.5701,8.8977,30.2204,-0.3939,-0.1427,-0.5281,-37.4605
16:28:06:905,-0.6852,1.532,9.9178,30.3612,-0.4259,0.1278,-0.4248,-37.3272
16:28:06:924,-1.0276,1.5207,11.2022,30.2307,-0.4301,0.2928,-0.2108,-37.1831
16:28:06:943,-1.2488,2.122,12.2571,30.3491,-0.3087,0.1789,0.0021,-37.0387
16:28:06:963,-0.9914,2.391,12.9015,30.3054,-0.2129,-0.0617,0.131,-36.9024
16:28:06:983,-0.5055,1.7677,13.4943,30.0605,-0.0916,-0.2364,0.1757,-36.7762
16:28:07:004,-0.3827,1.5305,13.4089,29.9597,0.2587,-0.0149,0.2449,-36.6558
16:28:07:023,-0.7484,2.1491,12.3733,29.8439,0.7176,0.2949,0.3524,-36.5423
16:28:07:043,-0.9875,2.4937,10.8872,29.8897,0.79,0.0958,0.2608,-36.4459
16:28:07:063,-0.9669,1.7534,10.5027,29.8891,0.412,-0.6164,-0.0234,-36.4459
16:28:07:086,-1.1259,0.9376,11.4086,29.8623,0.0138,-1.1158,-0.3077,-36.4459
16:28:07:103,-1.2085,0.3449,12.0138,30.1406,-0.0649,-0.9081,-0.4919,-36.4459
16:28:07:123,-1.3688,-0.0993,11.7839,29.8672,-0.0586,-0.5227,-0.6484,-36.3353
16:28:07:143,-1.562,-0.5084,11.3427,29.9775,-0.099,-0.3237,-0.7367,-36.2023
16:28:07:163,-1.5995,-0.6994,10.5004,29.9457,-0.0479,-0.2076,-0.7059,-36.0458
16:28:07:186,-1.5251,-0.4708,9.4962,29.7267,0.1065,-0.0245,-0.5898,-35.8633
16:28:07:204,-1.3784,-0.3559,8.2661,29.7319,0.3449,0.2481,-0.428,-35.6665
16:28:07:223,-1.1807,-0.3177,6.8158,29.6404,0.5898,0.6122,-0.1789,-35.4593
16:28:07:243,-0.7174,-0.1364,5.7518,29.5867,0.7037,0.9656,0.1757,-35.2499
16:28:07:263,-0.493,0.2967,5.0265,29.6594,0.7272,1.0199,0.4046,-35.0557
16:28:07:285,-0.5986,0.8645,4.6544,29.6778,0.6558,0.7602,0.4205,-34.8858
16:28:07:304,-0.7228,1.2745,4.799,29.4695,0.4695,0.231,0.3716,-34.743
16:28:07:323,-0.4445,1.0007,5.8395,29.4871,0.0969,-0.263,0.3162,-34.6253
16:28:07:343,-0.0368,0.6001,7.3769,29.384,-0.296,-0.4365,0.3258,-34.5265
16:28:07:366,-0.0524,1.0965,8.8294,29.441,-0.3439,-0.378,0.1927,-34.5265
16:28:07:384,-0.5656,1.5141,9.5369,29.3418,-0.2832,-0.1256,0.017,-34.5265
16:28:07:404,-0.2953,1.4578,10.3547,29.0336,-0.1459,0.0309,-0.1565,-34.5265
16:28:07:423,-0.4643,1.5043,10.2877,28.8457,-0.1746,0.2236,-0.3364,-34.4268
16:28:07:443,-0.509,1.6757,10.7637,28.5275,-0.3034,0.5611,-0.3247,-34.3152
16:28:07:466,-1.1809,2.4424,11.2092,28.0651,-0.3364,0.9007,-0.363,-34.1926
16:28:07:483,-2.0091,3.8573,11.4725,27.9304,-0.3737,0.9997,-0.5504,-34.0569
16:28:07:503,-2.5646,3.656,12.2172,27.7495,-0.3428,0.4195,-0.4653,-33.9142
16:28:07:523,-2.3455,2.9428,12.8266,27.4256,-0.2076,-0.0394,-0.2353,-33.7661
16:28:07:543,-1.1319,1.9462,14.1619,27.2266,-0.2938,-0.9486,-0.2151,-33.6282
16:28:07:565,-0.083,0.3838,15.4402,26.9094,-0.165,-1.4202,-0.3077,-33.4911
16:28:07:583,0.4525,-1.2237,14.7659,26.8985,0.4503,-0.7282,-0.3577,-33.335
16:28:07:603,-0.0991,-1.3018,12.8349,27.1719,0.938,0.1086,-0.2161,-33.1592
16:28:07:623,-0.325,-0.5082,10.9424,27.5926,0.9039,0.2268,0.0756,-32.9842
16:28:07:643,0.2395,0.2269,9.7878,27.8426,0.5419,-0.1757,0.2236,-32.8247
16:28:07:665,0.8446,0.7171,9.1456,28.3536,0.3109,-0.3545,0.1107,-32.6806
16:28:07:701,0.9596,1.0369,8.2867,28.8636,0.3556,-0.181,-0.116,-32.5396
16:28:07:703,0.7329,1.1781,6.9427,29.0528,0.4844,0.1501,-0.2875,-32.3924
16:28:07:723,0.4957,1.4785,5.73,29.5205,0.5526,0.2981,-0.3918,-32.2359
16:28:07:743,0.2744,1.7817,5.0747,29.5969,0.5046,0.1874,-0.4727,-32.0709
16:28:07:764,-0.038,1.8304,4.9224,29.6325,0.5004,-0.0735,-0.5408,-31.8968
16:28:07:783,-0.2522,1.8957,4.7589,29.2287,0.4599,-0.4429,-0.5483,-31.7114
16:28:07:803,-0.4889,2.0091,4.8729,29.0211,0.2321,-0.4014,-0.5057,-31.5153
16:28:07:823,-0.1459,2.3401,5.5118,28.7982,0.0064,-0.3354,-0.4482,-31.3079
16:28:07:843,0.0089,2.3666,6.4394,29.0626,-0.2736,-0.2545,-0.4035,-31.0913
16:28:07:863,0.0062,2.3199,7.7505,29.1003,-0.4621,-0.0724,-0.3961,-30.8649
16:28:07:883,-0.028,2.8746,8.521,29.3855,-0.5728,0.0011,-0.4131,-30.6303
16:28:07:903,-0.4659,2.7178,9.2033,29.4509,-0.741,0.1714,-0.378,-30.3858
16:28:07:923,-0.6734,3.0003,10.181,29.6638,-0.7665,0.2821,-0.2832,-30.1345
16:28:07:945,-0.9491,3.2559,10.7544,29.7444,-0.6558,0.0607,-0.2129,-29.8845
16:28:07:964,-0.8069,3.2283,11.6461,29.76,-0.7676,-0.2566,-0.1448,-29.6401
16:28:07:983,-0.4074,2.8563,13.1172,29.9759,-0.8421,-0.543,-0.1565,-29.4022
16:28:08:003,-0.4854,2.2661,14.1284,29.8393,-0.6175,-0.2481,-0.1491,-29.1604
16:28:08:023,-1.0679,2.5519,13.8782,29.8815,-0.016,0.5866,0.1011,-28.9105
16:28:08:045,-1.4186,2.8963,12.8658,29.8175,0.4365,0.7719,0.2576,-28.6679
16:28:08:064,-1.0609,2.0299,12.6602,29.7425,0.3332,-0.3013,-0.0522,-28.4536
16:28:08:083,-1.2079,0.6087,13.4672,29.7528,0.115,-1.465,-0.4514,-28.2551
16:28:08:103,-1.2856,-1.0643,13.9725,29.7948,0.1576,-1.4618,-0.4897,-28.0455
16:28:08:123,-1.2798,-2.0111,13.3827,29.7533,0.4397,-0.7059,-0.2608,-27.8166
16:28:08:145,-1.2019,-1.8338,11.7191,29.9884,0.6335,0.082,0.0266,-27.5786
16:28:08:163,-0.9283,-0.9236,9.9903,30.0516,0.4972,0.461,0.1959,-27.3476
16:28:08:183,-0.672,-0.1622,8.8087,30.4319,0.3194,0.4748,0.1203,-27.1357
16:28:08:203,-0.6716,0.4434,7.6296,30.5137,0.3194,0.4259,0.0032,-26.9299
16:28:08:223,-0.6061,0.1079,6.6794,30.4791,0.3652,0.5078,0.0586,-26.7296
16:28:08:243,-0.6041,0.3017,6.1589,30.6316,0.4322,0.6079,0.2129,-26.5379
16:28:08:264,-0.3406,0.5878,5.8857,30.9208,0.494,0.5015,0.3386,-26.3625
16:28:08:283,-0.0789,0.9089,5.5305,30.9813,0.6228,0.3481,0.3694,-26.2068
16:28:08:303,0.174,1.1662,5.0371,31.3756,0.6846,0.1778,0.329,-26.0708
16:28:08:325,0.5038,1.5331,4.6963,31.5668,0.4227,-0.116,0.181,-25.9553
16:28:08:343,0.7426,1.9486,5.4841,31.6199,-0.1246,-0.6452,-0.0745,-25.8544
16:28:08:363,0.9397,1.807,6.8857,31.5728,-0.5994,-0.8336,-0.3513,-25.757
16:28:08:383,0.8929,1.5519,8.6992,31.5628,-0.7378,-0.5462,-0.6111,-25.6422
16:28:08:403,0.7671,1.4972,9.6061,31.5231,-0.5355,-0.1597,-0.8379,-25.4987
16:28:08:424,0.6091,1.7384,9.9156,31.7691,-0.3875,0.2427,-1.0316,-25.3181
16:28:08:444,0.2846,2.2509,10.0647,31.7887,-0.3556,0.296,-1.2158,-25.1053
16:28:08:464,-0.092,2.7105,10.1013,31.756,-0.4674,0.2576,-1.3266,-24.8552
16:28:08:483,-0.4448,3.0016,10.4253,31.7147,-0.5973,0.2736,-1.3872,-24.5653
16:28:08:503,-0.769,2.9437,11.4438,31.6483,-0.5813,0.2321,-1.3521,-24.2325
16:28:08:524,-0.8844,2.799,12.4258,31.4211,-0.3354,0.2268,-1.2201,-23.8636
16:28:08:543,-1.0784,3.2766,12.6269,31.6684,-0.0096,0.2885,-1.0221,-23.467
16:28:08:563,-0.1033,2.3307,12.8689,31.5668,-0.0128,0.5611,-0.7974,-23.0452
16:28:08:583,1.3583,-0.0599,14.9825,31.94,-0.3386,0.0181,-0.9369,-22.6139
16:28:08:603,1.4285,-1.0335,16.5526,32.0252,0.0341,-0.1491,-1.136,-22.1653
16:28:08:623,1.2679,-1.8064,15.7592,32.1744,0.8379,-0.0106,-1.2605,-21.6852
16:28:08:643,0.9714,-1.7329,13.3142,32.2576,1.2201,0.0468,-1.185,-21.1722
16:28:08:663,1.016,-1.1198,11.1747,32.6699,1.1967,-0.0405,-0.9901,-20.6336
16:28:08:683,1.3859,-0.2979,9.4941,33.079,1.0487,-0.1608,-0.9305,-20.0699
16:28:08:706,1.5017,0.4285,8.0478,33.7178,0.9699,-0.2257,-1.1136,-19.4928
16:28:08:723,1.1887,0.8184,6.6697,34.2729,0.9177,-0.3758,-1.383,-18.8896
16:28:08:744,0.711,0.9724,5.5765,34.3114,0.8198,-0.626,-1.5714,-18.2535
16:28:08:763,0.3284,1.2009,5.0555,34.5381,0.6409,-0.9965,-1.6545,-17.5822
16:28:08:783,0.2521,1.2471,5.0702,34.5345,0.4173,-1.3372,-1.6704,-16.8751
16:28:08:805,0.4451,1.3831,5.3605,34.4094,0.2555,-1.548,-1.6002,-16.1321
16:28:08:824,0.7883,1.4372,5.8988,34.5112,0.1576,-1.778,-1.5725,-15.3475
16:28:08:843,1.0649,1.4199,6.1882,35.017,0.0852,-1.9366,-1.6417,-14.5408
16:28:08:864,1.0134,1.5455,6.5425,35.015,-0.0468,-1.9004,-1.7993,-13.6954
16:28:08:883,0.632,1.8284,6.8504,35.0565,-0.2502,-1.6055,-1.9228,-12.8024
16:28:08:905,0.245,1.9363,7.3437,35.4924,-0.5281,-1.0625,-1.8898,-11.8562
16:28:08:923,-0.0581,2.0283,8.418,35.4653,-0.7612,-0.7623,-1.7354,-10.8647
16:28:08:943,-0.306,2.1357,9.6313,35.55,-0.9081,-0.7697,-1.4841,-9.8408
16:28:08:963,-0.3183,1.7971,10.9886,35.9923,-0.8507,-0.4887,-1.1434,-8.7921
16:28:08:983,-0.526,1.5801,11.8015,36.0699,-0.5898,0.5398,-0.6942,-7.7227
16:28:09:004,-0.9788,2.0866,11.9772,36.305,-0.4248,1.3904,-0.3077,-6.6536
16:28:09:023,-1.3817,3.49,11.8487,36.3778,-0.576,1.2148,-0.3034,-5.6074
16:28:09:043,-1.21,4.0295,12.3304,36.5636,-0.6942,0.363,-0.4088,-4.5914
16:28:09:064,-0.5324,3.0782,12.6109,36.4311,-0.4493,-0.0287,-0.3109,-3.5987
16:28:09:086,-0.4838,2.589,12.2316,36.4399,0.0756,0.3599,-0.1916,-2.6237
16:28:09:103,-1.0343,3.2126,11.2817,36.3752,0.3939,0.6824,-0.0948,-1.6697
16:28:09:123,-0.908,3.0371,11.3034,36.3116,0.1831,0.1054,-0.2427,-0.7465
16:28:09:143,-0.4804,1.5558,12.4181,36.4094,-0.1182,-0.9593,-0.5675,0.1488
16:28:09:163,-0.1566,0.0622,13.6129,36.5721,-0.1821,-1.565,-0.7346,1.0317
16:28:09:185,0.2622,-0.9332,13.4291,36.8605,0.049,-1.3095,-0.7325,1.9284
16:28:09:204,0.6366,-1.3813,12.0262,37.0014,0.264,-0.5291,-0.6878,2.8209
16:28:09:223,0.6478,-1.0763,10.4769,37.0021,0.2183,-0.0607,-0.6558,3.719
16:28:09:243,0.6112,-0.5843,9.1215,37.1674,0.0468,0.1608,-0.6005,4.6141
16:28:09:263,0.2892,-0.112,7.9615,37.5409,-0.0245,0.2789,-0.5536,5.5053
16:28:09:284,-0.058,0.3827,7.0149,37.6116,0.0639,0.4216,-0.4493,6.3897
16:28:09:303,-0.2264,0.5571,6.2113,37.7327,0.2225,0.3769,-0.3194,7.2606
16:28:09:323,-0.2222,0.7947,5.5923,37.9178,0.3332,0.3471,-0.2065,8.1141
16:28:09:343,-0.0235,0.9061,5.0501,37.7882,0.3311,0.3854,-0.0703,8.9481
16:28:09:364,-0.2769,1.2789,4.8974,37.8548,0.2278,0.2619,-0.016,9.7576
16:28:09:383,-0.5804,1.7821,5.9058,38.0328,0.0607,-0.4248,-0.0617,10.5368
16:28:09:403,-0.1408,1.8915,7.1947,38.0676,-0.0884,-1.1541,-0.2779,11.287
16:28:09:423,0.8772,1.175,9.0528,38.2417,0.0607,-0.9113,-0.61,12.0347
16:28:09:443,0.9774,0.7694,9.7878,38.4319,-0.0117,-0.3194,-0.7527,12.7885
16:28:09:465,0.6252,1.2258,10.2063,38.4468,-0.2183,0.6047,-0.5643,13.5587
16:28:09:484,0.0223,2.0752,10.6404,38.527,-0.5078,1.0785,-0.4578,14.3326
16:28:09:503,-0.4707,2.6775,11.188,38.799,-0.7186,1.1179,-0.6026,15.1031
16:28:09:523,-0.6774,2.463,11.6244,38.6678,-0.7123,1.0625,-0.7378,15.8725
16:28:09:543,-1.004,2.0267,11.9895,38.5419,-0.5717,1.037,-0.7048,16.6422
16:28:09:565,-1.5975,2.1685,12.2342,38.6428,-0.4184,1.005,-0.5728,17.4092
16:28:09:586,-1.9474,2.3881,12.4882,38.7433,-0.164,0.8091,-0.3886,18.1659
16:28:09:603,-1.7136,2.7353,12.2748,39.1304,0.1735,0.6335,-0.0894,18.9051
16:28:09:623,0.0324,2.1775,12.4632,39.5291,0.1916,-0.2087,-0.0256,19.6155
16:28:09:643,1.6459,0.6271,13.4107,39.5982,0.0703,-1.0977,-0.2928,20.2981
16:28:09:665,1.9373,-0.9045,13.164,39.6651,0.4759,-0.8986,-0.6058,20.9743
16:28:09:714,1.1361,-1.1996,11.7085,39.5172,0.8528,-0.2757,-0.642,21.6669
16:28:09:716,0.4297,-0.4439,10.3156,39.1846,0.873,-0.0075,-0.379,22.3559
16:28:09:726,0.6982,0.3287,9.2724,39.3789,0.5973,-0.1299,-0.1863,23.0377
16:28:09:742,1.1151,0.6257,8.8247,39.4779,0.3354,-0.2683,-0.2768,23.7079
16:28:09:764,1.1446,0.7162,8.3808,39.7693,0.2853,-0.2481,-0.5376,24.3726
16:28:09:783,0.7639,0.6425,7.7823,39.966,0.3673,-0.165,-0.757,25.0436
16:28:09:803,0.2849,0.6346,7.0325,39.9864,0.4802,-0.1608,-0.8464,25.7199
16:28:09:823,0.0183,0.6687,6.3517,39.8643,0.5483,-0.2023,-0.8592,26.4067
16:28:09:843,-0.2108,1.0015,5.7637,39.9426,0.593,-0.2853,-0.8283,27.1036
16:28:09:865,0.0167,1.0642,5.3034,40.0286,0.5589,-0.4014,-0.7091,27.8084
16:28:09:883,0.267,1.299,5.3438,40.2084,0.3641,-0.5994,-0.6665,28.5172
16:28:09:903,0.2513,1.7559,6.0591,40.3182,0.1672,-0.8134,-0.7133,29.2293
16:28:09:923,0.0286,1.9688,6.7853,40.2985,0.0756,-0.889,-0.7591,29.9467
16:28:09:944,-0.2616,2.5025,7.305,40.3268,-0.0948,-0.7442,-0.7421,30.6733
16:28:09:964,-0.3187,2.9275,7.8252,40.1435,-0.4056,-0.362,-0.7325,31.4118
16:28:09:983,-0.5169,3.195,8.7485,40.1771,-0.7218,-0.0745,-0.7889,32.1611
16:28:10:003,-1.2326,3.4702,9.7176,40.5437,-0.8592,0.1086,-0.8123,32.9192
16:28:10:023,-2.0144,3.6883,10.6114,40.7709,-0.889,0.1703,-0.6643,33.682
16:28:10:044,-2.2859,3.6433,11.6817,40.8558,-0.9071,0.0862,-0.4386,34.4409
16:28:10:063,-2.0045,3.3178,13.4024,40.9389,-0.9081,-0.2821,-0.2726,35.1854
16:28:10:083,-1.6492,2.7365,15.4131,41.1465,-0.6569,-0.6037,-0.1267,35.9087
16:28:10:103,-1.627,2.513,16.1605,41.333,-0.066,-0.2672,0.1278,36.609
16:28:10:123,-1.4365,2.2989,15.4563,41.4639,0.5866,0.0884,0.3439,37.278
16:28:10:144,-1.1319,1.5652,14.3551,41.9884,0.8634,-0.2268,0.3407,37.9091
16:28:10:164,-0.866,0.6044,13.6997,42.009,1.0072,-0.7154,0.2523,38.5045
16:28:10:183,-0.7825,-0.1376,12.8246,41.8641,1.2339,-1.0455,0.2108,39.0758
16:28:10:203,-0.8183,-0.5135,11.5419,41.8713,1.3681,-1.0955,0.2449,39.6113
16:28:10:223,-0.9144,-0.468,10.1503,41.8698,1.3266,-0.9188,0.3407,40.1246
16:28:10:243,-0.7866,-0.2545,8.8275,42.0231,1.0913,-0.7037,0.4535,40.6068
16:28:10:265,-0.3938,-0.1237,7.5756,42.1875,0.7495,-0.3652,0.5132,41.0621
16:28:10:283,-0.1363,0.0121,6.5299,42.4504,0.4269,0.1086,0.5238,41.4909
16:28:10:303,0.028,0.0024,5.842,42.5512,0.1959,0.5313,0.5483,41.8935
16:28:10:326,-0.0614,0.1895,5.3118,42.6147,0.083,0.692,0.6058,42.2626
16:28:10:343,-0.2404,0.6552,4.998,42.5646,0.1075,0.7602,0.7282,42.5969
16:28:10:364,-0.1994,1.1085,4.4626,42.5912,0.148,0.7602,0.8634,42.8954
16:28:10:383,0.013,1.2621,4.0823,42.5139,-0.0287,0.6782,0.8826,43.1527
16:28:10:403,0.3446,1.3658,4.2732,42.5469,-0.5398,0.5302,0.7996,43.3738
16:28:10:425,0.8051,1.8397,6.0308,42.8444,-1.1349,0.1672,0.7474,43.5572
16:28:10:443,1.2086,2.2442,8.0049,43.0561,-1.4841,-0.2278,0.5866,43.7145
16:28:10:464,2.0858,1.9683,10.3512,43.3828,-1.4192,-0.2768,0.2183,43.8526
16:28:10:483,2.39,1.467,11.4671,43.5735,-0.9944,0.0351,-0.1661,43.9867
16:28:10:503,2.0535,1.1156,11.7785,43.7635,-0.5164,0.4578,-0.5579,44.1301
16:28:10:525,0.9257,1.8439,11.4049,44.2423,-0.3865,0.5962,-0.7506,44.2934
16:28:10:543,0.3016,2.4741,11.4313,44.1565,-0.4823,0.7676,-0.7176,44.4814
16:28:10:563,0.06,2.4992,11.6671,44.2421,-0.511,0.8815,-0.7697,44.6914
16:28:10:583,-0.3497,2.608,11.9969,44.5766,-0.4567,0.8624,-0.7442,44.9213
16:28:10:603,-0.4445,3.0908,12.3693,44.6361,-0.4301,0.7272,-0.5366,45.1667
16:28:10:624,1.0503,2.1316,13.6675,45.0523,-0.5792,-0.0681,-0.4855,45.4147
16:28:10:643,2.0229,0.4792,15.6763,45.6562,-0.3811,-1.1094,-0.7123,45.6614
16:28:10:663,2.1394,-1.0954,15.3396,45.7502,0.2161,-1.1083,-0.8368,45.9216
16:28:10:683,1.5861,-2.1086,13.1288,46.08,0.5376,-0.8932,-0.7538,46.2131
16:28:10:706,0.9837,-0.9895,10.9972,46.0802,0.544,-0.3045,-0.4227,46.514
16:28:10:723,0.9634,-0.2095,10.033,45.7767,0.6292,-0.132,-0.3471,46.82
16:28:10:743,0.8994,0.5449,8.5284,45.4934,0.5494,-0.1448,-0.3556,47.1294
16:28:10:763,0.5039,0.8924,7.6702,45.6674,0.4684,-0.0671,-0.3907,47.4436
16:28:10:783,0.1757,1.116,7.0996,45.5089,0.5195,-0.1278,-0.4621,47.762
16:28:10:805,-0.3023,1.1313,6.5031,45.2051,0.6814,-0.2449,-0.5132,48.0848
16:28:10:823,-0.4833,0.9462,5.4737,45.2702,0.7878,-0.3439,-0.4642,48.4169
16:28:10:843,-0.5395,0.8316,4.7369,45.5949,0.7421,-0.3418,-0.3726,48.7508
16:28:10:863,-0.5079,1.0042,4.6103,45.6848,0.5898,-0.4738,-0.3396,49.087
16:28:10:882,-0.4911,1.3827,4.6017,45.8559,0.2938,-0.5494,-0.3428,49.4268
16:28:10:904,-0.361,1.7481,5.1743,46.3487,-0.1629,-0.4514,-0.4099,49.7751
16:28:10:923,-0.1183,2.0076,6.6465,46.5543,-0.625,-0.5025,-0.4951,50.1334
16:28:10:943,0.1162,2.1008,8.3784,46.9402,-0.8038,-0.7538,-0.643,50.5013
16:28:10:963,-0.0201,1.8683,9.8925,47.4024,-0.6973,-0.7942,-0.609,50.8819
16:28:10:983,-0.2131,2.1758,10.3204,47.3193,-0.5036,-0.165,-0.3918,51.278
16:28:11:004,-0.2017,2.6535,10.9132,47.577,-0.4759,0.5462,-0.1735,51.6808
16:28:11:023,-0.412,3.0713,11.5902,47.6139,-0.5888,0.9113,-0.0181,52.0818
16:28:11:043,-0.3837,2.6793,12.9266,47.7412,-0.6164,1.1615,0.1469,52.4732
16:28:11:063,-0.3711,2.3741,14.3483,47.7204,-0.3961,0.8177,0.2672,52.8417
16:28:11:084,-0.684,2.8299,14.6898,48.0179,-0.0319,0.4791,0.4141,53.1815
16:28:11:104,-0.6276,2.9872,14.6207,48.1905,0.247,0.3811,0.4993,53.4915
16:28:11:123,-0.3336,1.8283,14.5851,48.4578,0.461,0.0468,0.3535,53.7702
16:28:11:143,-0.5136,0.6154,14.0028,48.7145,0.6356,-0.3151,0.1544,54.0264
16:28:11:164,-1.0064,-0.0292,13.1602,48.9476,0.8421,-0.2374,0.1863,54.2664
16:28:11:185,-1.5237,-0.1545,11.9535,49.0152,0.9443,-0.3162,0.3535,54.4915
16:28:11:203,-1.3687,-0.2679,10.9569,48.675,0.7389,-0.6154,0.411,54.6918
16:28:11:223,-0.7719,-0.5174,10.3184,48.4988,0.5334,-0.6814,0.4919,54.8716
16:28:11:243,-0.2094,-0.6367,9.1837,48.3717,0.5238,-0.3332,0.4908,55.03
16:28:11:264,-0.1227,-0.376,7.5394,48.3198,0.6292,0.1767,0.4908,55.1692
16:28:11:284,-0.2874,0.0457,5.7435,48.171,0.7027,0.5589,0.5451,55.2878
16:28:11:303,-0.4287,0.3691,4.4407,48.0281,0.6367,0.758,0.6154,55.3813
16:28:11:323,-0.5794,0.7518,3.7865,47.8932,0.478,0.6697,0.6388,55.3813
16:28:11:343,-0.7156,1.3174,3.9543,47.537,0.3418,0.2726,0.5888,55.3813
16:28:11:364,-0.8408,1.6319,4.4229,47.4465,0.148,0.131,0.4897,55.3813
16:28:11:384,-0.5008,1.7825,5.3848,47.5783,-0.0458,0.6079,0.4333,55.3813
16:28:11:403,-0.1346,2.1213,6.4768,47.6045,-0.4301,0.3183,0.4003,55.3813
16:28:11:423,-0.2354,2.0721,7.8364,47.8631,-0.7857,0.0043,0.3226,55.3813
16:28:11:443,-0.8491,2.0001,9.4705,48.1314,-0.7591,-0.0649,0.3151,55.3813
16:28:11:466,-0.6835,2.3008,9.9328,47.9999,-0.4695,0.1405,0.445,55.3813
16:28:11:483,-0.0273,1.5733,10.1436,48.0724,-0.2619,0.2843,0.5845,55.3813
16:28:11:503,0.7792,1.8423,10.7598,48.1172,-0.4514,0.2332,0.6707,55.3813
16:28:11:523,0.7638,2.6567,11.5754,48.0685,-0.8017,0.6175,0.7697,55.2855
16:28:11:543,0.6953,2.8431,12.6906,48.0869,-0.9848,1.0572,0.8145,55.1719
16:28:11:566,0.4527,2.5963,13.6881,48.1325,-0.873,1.3159,0.7697,55.0354
16:28:11:583,0.5486,2.8421,13.8251,48.2673,-0.6569,1.3212,0.8113,54.873
16:28:11:603,1.5949,1.6884,13.9959,48.0045,-0.5132,0.6079,0.6399,54.6776
16:28:11:623,1.7579,0.9293,13.8679,47.7376,-0.2608,-0.2321,0.1693,54.4576
16:28:11:643,1.3433,0.1805,12.8089,47.2362,0.2119,-0.4716,-0.082,54.2352
16:28:11:664,1.0294,-0.0872,11.239,46.8673,0.4706,-0.5249,-0.1693,54.0212
16:28:11:684,1.1854,-0.0726,9.9726,46.2529,0.3056,-0.6356,-0.2395,53.8259
16:28:11:721,1.2792,0.1078,9.5807,46.1557,-0.181,-0.939,-0.412,53.642
16:28:11:723,1.2401,0.3062,9.553,46.0451,-0.511,-1.0764,-0.5802,53.4819
16:28:11:743,0.9976,0.2599,9.25,45.9494,-0.3843,-0.8709,-0.7048,53.3506
16:28:11:763,0.6207,0.303,8.3211,46.0342,0.0735,-0.5057,-0.7772,53.2496
16:28:11:783,0.2094,0.4374,6.8246,45.9644,0.4791,-0.0873,-0.758,53.2496
16:28:11:803,0.0009,0.4998,5.4631,46.0532,0.6313,0.2491,-0.6824,53.2496
16:28:11:823,-0.2587,0.8529,4.7391,46.0037,0.6452,0.3599,-0.5909,53.2496
16:28:11:843,-0.307,1.1643,4.3703,46.2551,0.6441,0.2896,-0.4993,53.2496
16:28:11:864,-0.1465,1.2377,4.1483,46.6254,0.4919,0.1129,-0.4887,53.2496
16:28:11:884,-0.1506,1.6913,4.7774,46.8462,0.1341,-0.2459,-0.5174,53.2496
16:28:11:903,-0.0729,1.8538,6.032,47.168,-0.297,-0.6367,-0.4929,53.2496
16:28:11:923,0.0172,1.8149,7.5303,47.6318,-0.692,-0.8538,-0.4844,53.2496
16:28:11:945,-0.1747,1.8769,9.6517,47.6861,-0.9688,-0.8411,-0.5142,53.3429
16:28:11:964,-0.4578,1.7116,11.3127,47.6921,-0.8954,-0.3407,-0.4173,53.4575
16:28:11:983,-0.7946,1.6295,12.1286,47.6236,-0.6516,0.2938,-0.2598,53.5875
16:28:12:003,-1.1778,2.069,12.5779,47.5577,-0.5345,0.3897,-0.0905,53.7219
16:28:12:023,-1.0299,2.3513,13.3902,47.4397,-0.6196,-0.0064,0.0628,53.8505
16:28:12:044,-0.4849,2.0018,14.5065,47.5518,-0.6686,-0.3183,0.1139,53.9724
16:28:12:064,-0.2982,1.723,15.1318,47.8077,-0.4237,-0.0362,0.2523,54.0871
16:28:12:083,-0.4071,1.7591,14.9231,47.5084,0.1565,0.7101,0.5132,54.1887
16:28:12:103,-0.3081,1.2844,13.9555,47.2455,0.8091,0.8166,0.6069,54.1887
16:28:12:123,-0.2134,0.4237,12.4047,47.2326,1.1275,0.2119,0.4227,54.1887
16:28:12:143,-0.6296,0.0676,11.3468,47.2156,0.9848,-0.6164,0.2353,54.1887
16:28:12:164,-0.6477,-0.3647,11.0654,47.0253,0.6143,-1.1999,0.1852,54.1887
16:28:12:183,-0.3034,-0.8476,11.0366,47.277,0.3109,-1.1924,0.1608,54.1887
16:28:12:203,-0.0073,-1.1845,10.623,46.8203,0.1373,-0.7197,0.1416,54.1887
16:28:12:224,0.1279,-1.2605,9.6705,46.6534,0.0415,-0.0468,0.1661,54.1887
16:28:12:244,-0.0972,-0.7646,8.4871,46.3493,-0.0128,0.5685,0.2513,54.1887
16:28:12:266,-0.522,0.0907,7.3359,45.9753,0.0383,1.0135,0.4099,54.1887
16:28:12:283,-0.7853,0.642,6.2219,45.8153,0.2172,1.1456,0.5376,54.1887
16:28:12:303,-0.904,0.7675,4.9349,45.718,0.411,0.9997,0.6729,54.1887
16:28:12:324,-1.0507,0.935,3.8672,45.5034,0.4855,0.7836,0.873,54.1887
16:28:12:343,-1.1646,1.365,3.4707,45.3148,0.4706,0.6164,1.0561,54.088
16:28:12:363,-0.822,1.7475,3.7687,45.2768,0.1863,0.3705,1.0998,53.9508
16:28:12:383,-0.1099,1.8944,5.4136,44.9283,-0.4397,-0.016,0.9518,53.7806
16:28:12:403,0.3038,1.8441,8.0774,44.4152,-0.8613,-0.3673,0.6132,53.5855
16:28:12:424,0.5557,1.5846,10.2367,44.5753,-0.8081,-0.4599,0.2938,53.3768
16:28:12:443,0.6244,1.0374,11.5618,44.7698,-0.4834,-0.3354,0.0468,53.1681
16:28:12:463,0.5226,1.1368,12.082,44.5604,-0.3386,-0.1767,-0.116,52.9675
16:28:12:483,0.5077,1.2211,12.6252,44.7218,-0.5153,0.1203,-0.2566,52.7846
16:28:12:502,0.0923,1.5917,13.2263,44.9882,-0.6516,0.6643,-0.2704,52.6255
16:28:12:524,-0.2581,1.8493,13.8529,44.8814,-0.4674,1.0945,-0.1363,52.4834
16:28:12:543,-0.4105,1.2923,13.8348,44.6355,-0.0713,1.6055,0.1139,52.3505
16:28:12:563,-1.1382,1.6707,12.9334,44.9467,0.2268,1.911,0.33,52.2156
16:28:12:583,-1.2078,2.2403,12.0551,44.7034,-0.0916,1.0189,0.2459,52.0634
16:28:12:603,-1.0551,1.2994,13.1306,44.7741,-0.2843,-0.5153,0.2044,51.8954
16:28:12:623,-0.5025,0.0002,12.7165,44.7149,0.1065,-1.3958,0.2534,51.7102
16:28:12:643,-0.4054,-0.8022,11.5225,44.8507,0.313,-1.169,0.1469,51.5239
16:28:12:663,-0.4946,-0.5944,10.4476,44.7944,0.2395,-0.9071,0.1341,51.3424
16:28:12:683,-0.3077,-0.1908,9.5707,44.776,0.0447,-1.1019,0.1501,51.1652
16:28:12:705,0.3294,0.5916,9.0915,44.5053,-0.1182,-1.6129,0.066,50.9796
16:28:12:723,1.1338,0.9835,8.4155,44.0508,-0.0798,-1.8887,-0.2246,50.7969
16:28:12:743,1.5706,-0.023,7.5064,43.5557,0.0649,-1.2563,-0.4589,50.6372
16:28:12:763,1.2211,-0.6226,6.1753,43.0998,0.363,0.1735,-0.395,50.5117
16:28:12:783,0.25,-0.101,5.1635,42.8399,0.51,1.1551,-0.0287,50.409
16:28:12:804,0.0745,0.7449,4.3901,42.8743,0.4855,1.2243,0.2246,50.3061
16:28:12:823,0.5547,1.368,4.2896,42.6747,0.2864,0.5015,0.1714,50.1893
16:28:12:843,1.0705,2.1254,5.1087,42.6146,-0.0415,-0.4397,-0.0096,50.0641
16:28:12:863,0.9692,2.5188,6.7101,42.9048,-0.3332,-1.1147,-0.1842,49.9399
16:28:12:883,1.5337,1.3236,7.918,42.7643,-0.543,-1.2073,-0.4642,49.8311
16:28:12:904,1.5055,0.927,9.7002,42.9631,-0.5749,-0.8453,-0.5675,49.8311
16:28:12:923,1.867,1.1456,10.0099,43.4409,-0.7676,0.2821,-0.6761,49.8311
16:28:12:943,1.4367,0.9927,9.8581,43.4052,-0.955,2.5051,-0.6335,49.8311
16:28:12:964,0.1049,1.4706,10.9799,43.4341,-1.202,3.4665,-0.3971,49.8311
16:28:12:983,-1.2625,1.721,12.5478,43.3782,-1.1115,2.7543,-0.4621,49.8311
16:28:13:003,-2.0379,1.5375,14.05,43.1238,-0.741,2.1953,-0.2896,49.8311
16:28:13:023,-3.3045,0.0755,15.1815,43.2044,-0.3268,1.4713,-0.0926,49.8311
16:28:13:043,-3.5808,0.936,15.4522,43.3632,0.411,-0.3226,0.1586,49.8311
16:28:13:063,-2.2303,0.6938,14.3658,43.5887,1.0487,-1.4884,0.4727,49.8311
16:28:13:085,-0.5556,0.0473,13.2765,43.4221,1.4841,-1.9685,0.2513,49.8311
16:28:13:103,-0.666,-0.6931,11.8248,43.3335,1.7854,-1.8355,-0.329,49.8311
16:28:13:123,-2.1585,-0.5836,10.0028,43.1848,1.7066,-1.6449,-0.6026,49.8311
16:28:13:143,-2.2544,-0.0724,8.9068,43.2516,1.2446,-1.6502,-0.4173,49.8311
16:28:13:163,-1.3872,-0.4558,8.2091,43.1562,0.3694,-0.6995,-0.0575,49.8311
16:28:13:185,-1.5144,-0.1827,7.9643,43.0219,-0.0926,-0.6771,0.1469,49.8311
16:28:13:203,-1.2593,0.164,8.4374,42.7874,-0.4578,-0.6995,0.395,49.8311
16:28:13:223,-0.5426,0.3744,9.0572,42.4545,-0.544,-0.4386,0.5738,49.8311
16:28:13:243,-0.796,-0.1897,8.2341,42.4263,-0.4738,0.3056,0.9156,49.8311
16:28:13:263,-1.06,-0.2186,7.2978,42.0597,-0.4408,0.9124,1.0753,49.8311
16:28:13:283,-1.1541,0.2152,6.7308,41.7435,-0.3875,1.0018,1.3415,49.8311
16:28:13:303,-1.0203,0.3197,6.4395,41.4654,-0.2491,0.9124,1.6374,49.8311
16:28:13:323,-0.755,0.6652,6.5525,41.1767,-0.0575,0.6367,1.7141,49.6819
16:28:13:343,-0.4439,1.3995,6.785,41.2618,0.181,0.2843,1.7482,49.4705
16:28:13:364,0.1174,2.212,6.8819,41.6142,0.2449,-0.0106,1.631,49.2004
16:28:13:383,1.3591,2.6371,7.7531,41.6592,0.2672,-0.4589,1.1253,48.8764
16:28:13:403,2.2594,2.3527,8.8352,41.9752,0.2566,-0.9933,0.3098,48.5262
16:28:13:423,2.1999,2.0417,9.3228,41.9685,0.2204,-0.5313,-0.1927,48.1878
16:28:13:443,1.3438,1.9453,9.5749,41.8286,0.0554,0.2385,-0.3183,47.8792
16:28:13:466,0.7875,2.3455,10.2528,41.6797,-0.3109,0.6271,-0.264,47.5984
16:28:13:483,1.0013,1.1037,11.9763,41.6041,-0.626,0.5057,-0.5164,47.3397
16:28:13:503,0.6069,1.0104,14.2044,41.5351,-0.4695,0.1863,-0.7708,47.1066
16:28:13:523,-0.381,1.1007,14.9203,41.5902,-0.0319,0.477,-0.6324,46.9081
16:28:13:543,-0.4328,1.7351,13.8467,41.4399,0.3524,0.9837,-0.3503,46.7377
16:28:13:565,-0.1663,1.8004,12.3741,41.4772,0.3524,0.9561,-0.2246,46.5823
16:28:13:583,0.6189,1.0254,11.9965,41.6138,0.1991,0.4429,-0.3077,46.4348
16:28:13:603,0.6219,-0.2325,12.0944,41.823,0.264,0.2172,-0.5015,46.302
16:28:13:623,0.0075,-0.7294,11.4783,42.0454,0.4418,0.2981,-0.5355,46.1932
16:28:13:643,-0.2927,-0.5635,10.1084,42.0655,0.3396,0.5195,-0.511,46.1932
16:28:13:665,0.595,0.3756,8.3656,42.1794,0.0575,0.2523,-0.6239,46.1932
16:28:13:683,0.902,0.3226,7.8833,42.2569,-0.3748,-0.2821,-1.0423,46.1932
16:28:13:727,0.0604,-0.0616,8.04,42.0436,-0.5824,-0.1278,-1.2488,46.1932
16:28:13:729,-0.7069,-0.0989,7.6514,42.2044,-0.5632,0.4855,-1.1307,46.1932
16:28:13:743,-1.2107,0.347,6.701,42.4843,-0.5334,0.8219,-0.9954,46.1932
16:28:13:763,-0.9808,0.4045,7.4689,42.4329,-0.4865,0.3662,-0.873,46.3092
16:28:13:783,-0.8135,0.2213,8.4888,42.0269,0.0511,-0.0937,-0.8134,46.444
16:28:13:803,-0.8848,0.7896,7.8474,41.7995,0.6761,-0.2523,-0.6143,46.5918
16:28:13:823,-1.0421,1.4137,6.2727,41.4946,0.8113,-0.165,-0.4653,46.7567
16:28:13:843,-0.7509,1.9923,6.3534,41.0938,0.4908,-0.2843,-0.444,46.9364
16:28:13:864,0.0941,1.8336,8.7361,41.0365,0.3769,-0.4684,-0.7357,47.1296
16:28:13:883,-1.7978,2.1584,8.8712,41.1514,0.6452,0.0245,-0.7644,47.3487
16:28:13:903,-2.9081,2.9418,8.3754,41.2269,0.7165,0.2087,-0.1959,47.5855
16:28:13:923,-0.2666,3.5751,8.849,41.6614,0.5132,-0.198,0.1097,47.8162
16:28:13:945,0.4299,3.2531,10.2237,42.1086,0.3503,-0.3865,-0.2204,48.0411
16:28:13:964,-1.3091,2.8985,10.7001,42.2073,0.2853,-0.1001,-0.2044,48.2729
16:28:13:983,-2.314,2.7937,10.6601,42.3074,0.1491,0.3098,0.1384,48.5077
16:28:14:003,-2.5394,2.7912,10.8339,42.4943,-0.1906,0.2694,0.4727,48.7292
16:28:14:023,-2.1161,2.6603,12.8268,42.3284,-0.4408,-0.0138,0.7165,48.9201
16:28:14:044,-1.1655,1.913,14.7903,42.5021,-0.148,0.2385,0.692,49.0816
16:28:14:064,-2.0245,1.6497,13.7772,42.3669,0.3684,0.297,0.6569,49.2107
16:28:14:083,-1.7963,1.1754,11.8506,42.4924,0.4429,-0.1842,0.7123,49.3066
16:28:14:103,-0.5189,0.2985,11.4476,42.3524,0.3215,-0.4993,0.4865,49.3066
16:28:14:123,-0.8416,-0.0807,10.7738,42.096,0.2885,-0.2672,0.2438,49.3066
16:28:14:143,-1.2952,0.3555,9.2821,42.0448,0.2076,-0.0639,0.2183,49.3066
16:28:14:164,-1.263,0.4129,7.6904,42.051,-0.1437,-0.1065,0.131,49.3066
16:28:14:183,-1.6025,0.3969,7.1066,41.9515,-0.6867,-0.1363,-0.0181,49.3066
16:28:14:203,-2.2516,-0.5424,8.3084,41.7066,-1.0018,0.1916,0.017,49.3066
16:28:14:225,-2.2016,-0.2605,8.4121,41.6779,-0.8634,0.5259,0.1203,49.3066
16:28:14:243,-2.2842,-0.1244,7.2351,41.5178,-0.708,0.7272,0.2779,49.3066
16:28:14:263,-1.8069,0.5713,6.3082,41.571,-0.6313,0.6697,0.5068,49.3066
16:28:14:283,-0.9737,0.8582,5.904,41.6422,-0.6132,0.5781,0.5313,49.3066
16:28:14:303,-1.3789,1.0038,5.8806,41.7633,-0.6058,0.6388,0.5153,49.3066
16:28:14:324,-1.4994,1.0705,6.2821,41.7744,-0.544,0.7453,0.5504,49.3066
16:28:14:343,-1.32,1.2992,6.5797,41.6892,-0.4376,0.5387,0.4716,49.3066
16:28:14:363,-1.0839,1.3124,7.5899,41.5888,-0.4131,0.049,0.2864,49.3066
16:28:14:383,-1.4092,1.3229,8.8886,41.5492,-0.3183,-0.3162,0.099,49.3066
16:28:14:403,-1.5855,1.0227,9.8842,41.2664,-0.0554,-0.2938,0.0479,49.2156
16:28:14:424,-1.3551,1.2153,9.4289,41.1581,0.0937,-0.3194,-0.0522,49.2156
16:28:14:443,-1.3722,1.4651,9.2973,41.4078,-0.2651,-0.3428,-0.2097,49.2156
16:28:14:463,-1.216,1.1713,10.9137,41.2688,-0.6782,-0.2183,-0.3354,49.2156
16:28:14:483,-1.4004,0.6823,12.6149,41.3524,-0.7591,0.0394,-0.4376,49.2156
16:28:14:503,-2.1294,0.5194,13.9088,41.6382,-0.61,0.1778,-0.4248,49.2156
16:28:14:523,-2.1144,1.0283,14.5723,41.4762,-0.0852,0.0309,-0.2768,49.2156
16:28:14:543,-2.209,1.762,13.7011,41.4475,0.4376,-0.2864,-0.131,49.2156
16:28:14:563,-1.385,0.7586,12.3003,41.2499,0.3641,-0.4429,-0.1778,49.2156
16:28:14:583,-1.8443,-0.9139,12.8456,40.8972,0.1522,-0.0287,-0.263,49.2156
16:28:14:603,-1.9892,-1.786,12.5138,41.1309,0.3843,0.1608,-0.0075,49.2156
16:28:14:623,-0.9981,-1.663,10.8359,40.9318,0.4759,-0.0287,0.1203,49.2156
16:28:14:643,0.0188,-0.9722,9.6736,40.6245,0.2119,-0.2065,0.0575,49.2156
16:28:14:663,0.5395,-0.5251,9.2707,40.6728,-0.115,-0.1288,-0.1203,49.2156
16:28:14:683,0.6935,-0.564,9.3703,40.794,-0.3247,0.0266,-0.3332,49.2156
16:28:14:705,0.1035,-0.4726,9.2889,40.8179,-0.1629,0.3737,-0.4376,49.2156
16:28:14:723,-0.2297,-0.0064,7.9072,40.8508,0.0948,0.3684,-0.461,49.2156
16:28:14:743,-0.2744,0.2402,6.7223,40.7811,0.0724,0.1672,-0.5408,49.2156
16:28:14:764,-0.3292,0.2381,6.6896,40.5727,0.0138,0.3151,-0.61,49.2156
16:28:14:783,-1.1408,0.1417,6.6356,40.3464,0.1544,0.4865,-0.5994,49.2156
16:28:14:804,-1.9555,0.045,6.0561,40.2513,0.4397,0.4344,-0.4503,49.3174
16:28:14:823,-1.3706,0.5441,5.7743,40.1506,0.5206,0.0064,-0.3247,49.4297
16:28:14:843,-0.2069,0.7866,8.2628,40.2221,0.5675,-0.3268,-0.5653,49.5485
16:28:14:863,-0.5454,0.5295,9.8932,39.9858,1.0178,-0.4834,-0.9177,49.6855
16:28:14:883,-2.2673,1.723,8.4347,40.1451,1.1945,-0.3748,-0.7186,49.8538
16:28:14:903,-2.2052,2.98,7.7434,40.2745,0.971,-0.3769,-0.2704,50.0435
16:28:14:923,-1.2076,3.3109,9.1134,40.4987,0.6878,-1.0178,-0.1895,50.2391
16:28:14:943,-0.7737,2.9838,10.0618,40.716,0.5813,-0.7825,-0.2853,50.4386
16:28:14:964,-1.3434,3.8145,9.1925,40.5752,0.1927,-0.049,-0.2449,50.6553
16:28:14:983,-1.7322,3.9443,10.1968,40.551,-0.3141,0.0394,-0.1129,50.879
16:28:15:003,-1.4453,3.3524,12.0549,40.2905,-0.411,-0.1235,-0.0021,51.0973
16:28:15:023,-1.311,2.6157,13.6041,40.4013,-0.23,-0.2427,-0.0096,51.3052
16:28:15:043,-1.7522,1.6042,13.5696,40.5012,0.2374,-0.0649,-0.1075,51.5051
16:28:15:064,-3.1906,0.3903,11.7206,40.6293,0.2715,0.0319,-0.1203,51.706
16:28:15:085,-3.5279,-0.6809,11.3831,40.4666,-0.1075,-0.0692,0.0266,51.9061
16:28:15:103,-3.0229,-1.4157,12.1446,40.6139,-0.2374,-0.0085,0.1512,52.0991
16:28:15:123,-2.6358,-1.5867,12.5572,40.727,-0.0948,-0.0713,0.1714,52.2777
16:28:15:143,-2.0989,-1.0877,11.5856,40.4648,0.0958,-0.0649,0.0564,52.4447
16:28:15:163,-2.3932,-0.3618,10.1303,40.1258,-0.05,0.1299,-0.0383,52.6099
16:28:15:183,-2.5366,0.1241,9.2786,40.0001,-0.2694,0.23,-0.0341,52.7727
16:28:15:203,-2.9582,0.0718,9.6546,40.0888,-0.2438,0.297,0.0277,52.9331
16:28:15:223,-3.1393,-0.1265,9.491,40.3131,0.1065,0.4088,0.2151,53.0821
16:28:15:243,-3.3352,0.2955,8.54,40.3824,0.4067,0.2864,0.3907,53.2148
16:28:15:263,-3.4857,0.8345,7.3632,40.5321,0.7112,0.1118,0.6771,53.3236
16:28:15:283,-2.9174,1.5591,5.9487,40.5008,0.9305,0.0671,0.9805,53.3236
16:28:15:303,-1.619,1.9694,4.9358,40.1854,0.8879,0.131,1.1477,53.3236
16:28:15:323,-0.6717,2.6952,4.572,40.3742,0.6888,0.214,1.0817,53.3236
16:28:15:343,-0.5575,2.8536,5.5255,40.3946,0.3567,0.2757,0.8592,53.3236
16:28:15:365,-0.5275,2.4719,6.5507,40.1382,0.2683,0.4152,0.6899,53.3236
16:28:15:383,-0.5448,2.4283,6.7899,40.5885,0.1789,0.4386,0.544,53.3236
16:28:15:403,-0.3413,3.0723,7.3202,40.5395,0.0692,0.4897,0.3833,53.3236
16:28:15:423,-0.3851,3.2175,7.8936,40.5946,-0.0213,0.6271,0.1129,53.3236
16:28:15:443,-1.1471,3.0103,8.4233,40.4947,-0.3577,0.8081,-0.1373,53.3236
16:28:15:465,-2.0502,2.9072,9.8443,40.8539,-0.7431,1.0945,-0.2768,53.3236
16:28:15:483,-2.9832,3.1501,11.2874,40.6954,-0.7964,1.0253,-0.2449,53.3236
16:28:15:503,-3.3638,2.9803,12.6576,40.8284,-0.4727,0.3822,-0.1735,53.3236
16:28:15:523,-3.2161,2.9624,12.5195,40.8977,-0.0767,-0.0926,-0.115,53.3236
16:28:15:543,-2.7545,1.3257,12.0305,40.5479,-0.2417,-0.2662,-0.1437,53.3236
16:28:15:565,-2.3905,-0.713,12.7664,40.6555,-0.4003,-0.197,-0.0426,53.3236
16:28:15:583,-1.7938,-1.0705,12.5721,40.6241,-0.1522,-0.0256,0.1256,53.3236
16:28:15:603,-1.5867,-0.2721,11.1319,40.6612,-0.0106,-0.0809,0.2129,53.3236
16:28:15:623,-1.0739,0.2732,10.2704,40.2722,-0.2598,-0.2502,0.1522,53.2335
16:28:15:643,-0.5645,0.5705,10.1388,40.053,-0.6526,-0.1224,-0.0628,53.2335
16:28:15:663,-0.6155,0.5033,10.2124,39.8503,-0.8017,0.1948,-0.2044,53.2335
16:28:15:683,-1.0187,0.7917,9.4032,39.6227,-0.6005,0.3439,-0.2726,53.2335
16:28:15:703,-1.5761,0.9417,8.0642,39.3337,-0.4195,0.3556,-0.3056,53.2335
16:28:15:733,-1.9863,1.007,7.2661,39.4048,-0.3694,0.4738,-0.28,53.2335
16:28:15:744,-2.1931,0.7262,7.0683,39.71,-0.2534,0.5856,-0.1821,53.2335
16:28:15:764,-2.1649,0.7544,6.8997,39.625,0.082,0.5078,-0.0224,53.2335
16:28:15:783,-2.378,0.7661,5.9059,39.8855,0.4227,0.3854,0.0692,53.2335
16:28:15:803,-3.2793,0.9121,4.7915,40.2184,0.494,0.3056,0.1863,53.2335
16:28:15:823,-3.1052,1.0639,4.839,40.1386,0.2108,0.1011,0.2662,53.2335
16:28:15:845,-2.4184,1.6344,6.6666,40.4334,-0.0256,-0.0564,0.3343,53.2335
16:28:15:864,-1.3949,2.0454,8.3858,40.7303,0.1043,0.0181,0.3492,53.2335
16:28:15:883,-1.0566,2.8303,8.7786,40.9661,0.2385,0.0426,0.2789,53.1359
16:28:15:903,-0.3682,3.8231,10.0403,40.7325,0.1533,-0.2374,0.263,53.0314
16:28:15:923,0.0267,4.3015,10.8058,40.6434,0.2864,-0.2576,0.0256,52.9246
16:28:15:944,-1.366,4.496,10.0567,40.8521,0.1703,-0.4887,-0.2023,52.825
16:28:15:964,-2.5317,3.4733,10.0562,40.6355,-0.395,-0.725,-0.3109,52.825
16:28:15:983,-4.0327,1.6941,11.9688,40.3756,-0.7889,-1.0029,-0.3183,52.825
16:28:16:003,-5.743,0.5964,13.385,40.7472,-0.5919,-1.3351,0.1001,52.825
16:28:16:023,-4.7164,-0.3998,13.5711,40.9605,0.2044,-1.4266,0.3833,52.7268
16:28:16:043,-3.914,-0.3977,11.3336,40.8196,0.4823,-1.3915,0.3971,52.6149
16:28:16:064,-2.7163,-0.5999,10.0154,41.0364,0.0415,-1.0497,0.4322,52.5013
16:28:16:083,-1.6867,-0.5799,9.874,40.9347,-0.4599,-0.363,0.4227,52.3883
16:28:16:103,-0.9416,-0.3443,9.496,40.9493,-0.8698,0.0564,0.3141,52.2694
16:28:16:122,-0.6215,-0.1456,9.7372,41.0644,-1.2925,0.1884,0.0735,52.1479
16:28:16:143,-0.996,-1.1604,10.809,41.0954,-1.4021,0.4791,-0.2715,52.0361
16:28:16:163,-2.5855,-1.2172,10.7016,41.3427,-1.12,0.6633,-0.2736,51.934
16:28:16:183,-3.052,-0.9417,9.71,41.4119,-0.8208,0.6218,-0.0256,51.831
16:28:16:203,-2.4653,-0.5035,8.4791,41.404,-0.6462,0.2023,0.1405,51.7276
16:28:16:225,-1.8836,0.4742,7.0315,41.5764,-0.4216,-0.8389,0.1522,51.6085
16:28:16:243,-1.0714,1.0174,5.7618,41.8357,0.1224,-2.3646,0.2736,51.4669
16:28:16:263,-0.2685,0.7276,5.5153,41.862,0.7836,-3.3707,0.3992,51.4669
16:28:16:283,0.072,0.9745,4.9264,41.9651,0.9923,-2.5275,0.61,51.2931
16:28:16:303,0.1472,1.0635,4.6985,42.185,0.5856,-1.3926,0.8549,51.1139
16:28:16:325,1.1302,0.2766,6.3006,42.1655,-0.116,-0.7836,0.905,50.9205
16:28:16:343,1.8452,-0.0491,8.9903,42.1655,-0.4184,-0.445,0.6207,50.7114
16:28:16:363,1.3322,0.4175,10.1689,42.1391,-0.2065,0.1214,0.2747,50.4966
16:28:16:383,0.6614,0.4042,9.6593,42.4019,0.0213,0.3492,0.1011,50.282
16:28:16:403,0.3254,0.8557,9.0298,42.4099,-0.164,0.2214,0.0735,50.0712
16:28:16:423,0.8895,0.7464,9.5473,42.5666,-0.6697,-0.1033,-0.0192,49.866
16:28:16:443,1.6643,1.0996,11.0486,42.9756,-1.0497,-0.3194,-0.3002,49.6748
16:28:16:463,1.9625,0.4193,11.9863,43.2415,-1.2318,0.2651,-0.5366,49.514
16:28:16:483,1.4704,0.2939,12.6303,43.7617,-1.1732,0.1373,-0.7304,49.3822
16:28:16:503,1.6837,-0.8058,13.0127,44.1364,-1.1754,-0.774,-0.8421,49.277
16:28:16:523,2.5467,-2.2579,15.0926,44.0836,-1.1839,-1.8418,-1.1839,49.277
16:28:16:543,2.4018,-2.609,16.8613,44.3828,-0.4525,-1.828,-1.4245,49.277
16:28:16:564,1.5299,-3.181,15.5893,44.7036,0.4759,-1.0604,-1.3617,49.277
16:28:16:583,1.2275,-3.8844,13.3319,44.7123,0.6824,-0.5909,-0.8602,49.277
16:28:16:603,1.6765,-3.5353,11.8779,44.6968,0.4067,-0.1948,-0.2545,49.277
16:28:16:623,2.6406,-2.7853,11.142,44.5884,0.2246,0.3513,-0.0085,49.3684
16:28:16:643,2.7052,-1.8387,10.444,44.4665,0.2864,0.9699,-0.0458,49.4597
16:28:16:663,2.2174,-1.1479,9.3267,44.2628,0.5355,1.3883,-0.1352,49.4597
16:28:16:683,1.4866,-0.8127,8.0431,44.4843,0.8922,1.5576,-0.1576,49.4597
16:28:16:705,0.6537,-0.5088,6.7383,44.5527,1.2254,1.3755,-0.0351,49.4597
16:28:16:723,0.2981,-0.418,5.4749,44.6383,1.4426,0.9443,0.2438,49.4597
16:28:16:743,0.8006,0.5911,5.1447,44.8803,1.5331,0.51,0.2108,49.4597
16:28:16:763,0.9457,0.6937,5.1712,44.8918,1.5171,0.1682,0.0628,49.4597
16:28:16:783,0.879,1.0043,5.3676,44.9227,1.499,0.3215,0.0458,49.4597
16:28:16:804,1.1178,1.1949,5.0625,45.2012,1.2212,0.6462,0.0266,49.4597
16:28:16:823,1.1458,1.377,5.2794,45.4134,0.7101,1.0806,-0.0341,49.4597
16:28:16:843,0.5569,1.8497,6.3537,45.7728,0.132,0.9401,-0.0894,49.4597
16:28:16:863,-0.2576,2.5615,8.1316,46.0044,-0.2513,0.8432,-0.0596,49.4597
16:28:16:883,-0.12,2.4883,10.2712,46.3408,-0.5462,0.8517,0.0373,49.4597
16:28:16:903,-0.6196,2.751,11.2398,46.4271,-0.6164,1.1488,0.1224,49.4597
16:28:16:923,-0.9108,3.2818,12.3102,46.633,-0.5568,0.7974,0.1448,49.4597
16:28:16:943,-0.7371,3.1358,13.229,46.6207,-0.5632,0.5206,0.1884,49.4597
16:28:16:963,-0.7026,2.8959,14.429,46.9232,-0.4269,0.7634,0.2481,49.4597
16:28:16:983,-1.5993,2.3344,14.5255,46.9835,-0.0245,1.4479,0.3492,49.4597
16:28:17:003,-2.3423,2.1256,13.1915,47.0338,0.2204,2.1144,0.675,49.4597
16:28:17:023,-3.3356,1.6148,11.459,47.2771,0.0586,1.8674,0.8006,49.4597
16:28:17:043,-2.8195,0.6163,11.7317,47.3552,-0.017,0.9923,0.4291,49.4597
16:28:17:063,-3.5869,-0.7504,11.5978,47.4228,0.2896,0.0639,0.0905,49.4597
16:28:17:086,-4.0348,-0.91,10.7127,47.6751,0.6984,-0.7059,0.0373,49.4597
16:28:17:103,-3.6555,-0.7601,9.4587,47.8952,0.758,-1.2552,0.1512,49.4597
16:28:17:123,-2.4572,-0.6099,8.5007,47.7439,0.4408,-1.3649,0.214,49.4597
16:28:17:143,-1.2942,-0.4974,8.1165,47.7741,0.0532,-1.0242,0.0937,49.4597
16:28:17:163,-1.0042,-0.0415,7.7905,47.6967,-0.1799,-0.4333,-0.0777,49.4597
16:28:17:184,-0.9966,0.1025,7.1685,47.8136,-0.1874,0.0479,-0.1842,49.4597
16:28:17:205,-1.0241,0.079,6.2347,47.6091,-0.0916,0.1735,-0.1991,49.4597
16:28:17:223,-0.817,0.3958,5.2517,47.9005,-0.1437,0.0213,-0.2385,49.4597
16:28:17:243,-0.4255,0.8631,4.8657,48.0833,-0.2992,-0.1895,-0.4525,49.4597
16:28:17:264,-0.5019,1.4886,6.299,47.93,-0.197,-1.1328,-0.5983,49.4597
16:28:17:284,-1.2615,2.394,7.6335,47.9127,0.2917,-2.4923,-0.4961,49.4597
16:28:17:303,-1.2846,2.536,8.0414,47.859,0.7921,-2.5796,-0.3449,49.4597
16:28:17:323,-0.623,2.2778,8.0177,48.0653,0.7687,-1.5799,-0.1895,49.4597
16:28:17:343,-0.2248,2.2346,8.0764,48.3342,0.3258,-0.5015,-0.1278,49.4597
16:28:17:365,-0.3894,2.6673,8.8428,48.744,-0.1906,-0.0053,-0.1576,49.4597
16:28:17:383,0.0686,2.6208,9.8959,49.1383,-0.5408,0.0405,-0.2662,49.4597
16:28:17:403,0.5117,2.1125,11.255,49.5484,-0.8081,0.2161,-0.4291,49.4597
16:28:17:423,0.1527,1.739,12.2571,50.0046,-1.0093,0.8507,-0.5334,49.4597
16:28:17:443,-0.6498,1.6454,13.283,50.1171,-1.0327,1.5075,-0.4642,49.5699
16:28:17:465,-1.5053,2.0816,13.7357,50.2432,-0.6729,1.5991,-0.2491,49.6889
16:28:17:483,-1.8256,2.6542,12.8606,50.4985,-0.2608,0.9582,0.0511,49.7997
16:28:17:503,-0.8052,1.8017,11.948,50.706,-0.2545,0.066,0.3119,49.8931
16:28:17:523,0.6354,-0.0373,12.3106,50.7375,-0.2587,-0.4301,0.2438,49.8931
16:28:17:543,0.7403,-1.3754,12.0032,50.5191,-0.066,-0.5036,-0.0703,49.8931
16:28:17:564,-0.06,-1.5745,10.826,50.3129,-0.1224,-0.3471,-0.2502,49.8931
16:28:17:583,-0.4898,-1.6227,9.8534,49.8919,-0.5951,-0.1278,-0.2278,49.8931
16:28:17:603,-0.7174,-1.469,9.541,49.646,-1.1903,0.1331,-0.1565,49.9981
16:28:17:623,-0.5089,-1.1242,9.6475,49.564,-1.5555,0.2896,-0.1427,50.1063
16:28:17:643,-0.1126,-0.8482,10.3571,49.4032,-1.5097,-0.0767,-0.2151,50.2154
16:28:17:664,0.2353,-0.9343,9.04,49.0741,-1.2307,-0.6494,-0.5653,50.3236
16:28:17:683,0.3078,-0.6538,7.5605,48.8517,-0.7921,-0.6665,-0.7506,50.4496
16:28:17:703,0.3353,-0.4646,6.9481,48.8226,-0.165,-0.2587,-0.7335,50.591
16:28:17:723,0.1603,-0.256,6.5665,48.8804,0.4929,0.0543,-0.658,50.7485
16:28:17:789,0.0814,-0.1117,6.3106,49.07,1.1083,-0.0138,-0.5462,50.9161
16:28:17:789,0.1986,-0.0685,6.3971,49.6744,1.5118,-0.3311,-0.5036,51.0902
16:28:17:790,0.3209,0.0394,6.7183,49.8321,1.6374,-0.6164,-0.4248,51.2773
16:28:17:803,0.1745,1.0833,6.7414,49.8475,1.565,-0.6047,-0.1629,51.4648
16:28:17:823,0.0193,2.1421,7.0825,50.1797,1.3042,-0.1714,0.066,51.6569
16:28:17:844,0.0369,2.2776,7.6194,49.9894,0.8634,0.2406,0.0756,51.8442
16:28:17:864,-0.1993,1.7854,8.2073,50.089,0.3545,0.4195,-0.0085,52.0302
16:28:17:883,-0.9085,1.8603,9.4842,50.0061,-0.0362,0.5174,0.1214,52.215
16:28:17:903,-1.4033,2.6337,11.3017,50.0809,-0.2364,0.4418,0.4291,52.3887
16:28:17:923,-1.3304,3.0641,12.9384,50.1073,-0.3769,0.23,0.6452,52.5361
16:28:17:944,-1.0047,2.1504,14.0103,50.2014,-0.3929,0.3982,0.6622,52.6583
16:28:17:964,-1.4261,1.6892,13.9282,50.2048,-0.1001,0.79,0.89,52.757
16:28:17:983,-1.8069,1.7494,12.5008,50.2811,0.4642,1.2542,1.4394,52.757
16:28:18:003,-1.2953,0.9428,12.1342,50.3668,1.0306,1.152,1.631,52.757
16:28:18:023,-0.7808,0.0567,12.3819,50.2586,1.0508,-0.0511,0.79,52.757
16:28:18:043,-1.6628,0.1741,12.1064,50.325,0.7602,-1.186,-0.1097,52.757
