Time,Acc_X,Acc_Y,Acc_Z,Meg,Gyr_X,Gyr_Y,Gyr_Z,Ore
16:23:16:433,-0.7984,3.208,8.6001,33.7355,-0.0522,-0.2726,0.0575,-52.2846
16:23:16:453,-0.9608,3.2932,8.6516,33.5393,-0.1192,-0.1799,0.0383,-52.2846
16:23:16:473,-1.1155,3.254,8.8597,33.8689,-0.1746,-0.1331,0.0852,-52.2846
16:23:16:493,-1.0871,3.1968,9.0915,33.9189,-0.1842,-0.2055,0.1288,-52.2846
16:23:16:514,-1.0598,3.1602,9.2993,33.8439,-0.1288,-0.263,0.1459,-52.2846
16:23:16:533,-1.1934,3.4483,9.3103,33.8921,0.0181,-0.198,0.1991,-52.2846
16:23:16:552,-1.2624,3.7931,9.0438,34.0017,0.1363,-0.0777,0.23,-52.2846
16:23:16:575,-0.987,3.7609,8.7343,33.77,0.082,-0.1203,0.1341,-52.2846
16:23:16:593,-0.8749,3.4212,8.8907,33.8687,-0.0777,-0.1778,-0.0213,-52.2846
16:23:16:613,-1.281,3.339,9.3025,34.215,-0.0979,-0.1586,-0.0713,-52.2846
16:23:16:633,-1.6297,3.565,9.2679,34.0619,0.0468,-0.099,0.0287,-52.2846
16:23:16:654,-1.4679,3.7338,8.8114,34.1292,0.115,-0.1363,0.1672,-52.2846
16:23:16:676,-0.9592,3.8036,8.3537,34.178,0.0383,-0.2214,0.2214,-52.2846
16:23:16:693,-0.8472,3.9051,8.295,34.0969,-0.0096,-0.23,0.1948,-52.2846
16:23:16:715,-0.9109,3.8695,8.3997,34.0324,0.083,-0.1384,0.1693,-52.2846
16:23:16:734,-0.8732,3.7799,8.2816,34.148,0.2704,0.0202,0.1852,-52.2846
16:23:16:753,-0.5448,3.725,7.8409,34.0343,0.3386,0.0043,0.1608,-52.2846
16:23:16:773,-0.3487,3.8397,7.54,34.0729,0.2225,-0.1022,0.0724,-52.2846
16:23:16:793,-0.1636,3.7354,7.6162,34.3478,0.0053,-0.1299,-0.0841,-52.2846
16:23:16:814,-0.2408,3.7276,7.9418,34.1862,-0.2044,-0.0383,-0.1427,-52.2846
16:23:16:833,-0.2364,3.9157,8.4063,33.9375,-0.3322,0.1757,-0.0617,-52.2846
16:23:16:853,0.0058,3.9383,8.7832,34.046,-0.3439,0.3641,-0.033,-52.2846
16:23:16:873,0.0952,3.9065,9.1993,33.8654,-0.2534,0.2651,-0.1427,-52.2846
16:23:16:894,-0.0354,3.7295,9.3172,33.6493,-0.0884,-0.0106,-0.3183,-52.2846
16:23:16:913,-0.3157,3.6288,9.3687,33.6026,0.0032,-0.3833,-0.4887,-52.2846
16:23:16:933,-0.7979,3.7791,9.5114,33.6483,-0.0692,-0.5621,-0.5664,-52.2846
16:23:16:953,-1.166,4.0314,9.9072,33.5882,-0.2172,-0.3811,-0.4951,-52.2846
16:23:16:975,-0.9652,4.0392,10.3043,33.6549,-0.329,-0.0351,-0.4141,-52.2846
16:23:16:993,-0.7426,4.0457,10.6566,33.5626,-0.363,0.2151,-0.4333,-52.2846
16:23:17:013,-0.7481,3.9383,10.9862,33.7339,-0.2204,0.2757,-0.4727,-52.2846
16:23:17:033,-0.8449,3.5963,10.8711,33.6494,0.1288,0.1703,-0.4716,-52.2846
16:23:17:055,-0.9137,3.5565,10.2769,33.6287,0.5387,0.0798,-0.3716,-52.2846
16:23:17:073,0.2017,2.6185,9.489,33.9435,0.5845,-0.4472,-0.3268,-52.2846
16:23:17:093,0.5955,2.593,9.4464,33.8571,0.3183,-0.7665,-0.2662,-52.2846
16:23:17:113,1.1116,2.6357,9.4951,33.9095,0.1427,-0.2768,-0.2161,-52.1896
16:23:17:133,1.0124,2.5153,9.2999,34.1047,0.0298,0.2481,-0.4312,-52.0824
16:23:17:153,0.019,2.4223,8.9823,33.78,-0.0617,0.3428,-0.5909,-51.9607
16:23:17:175,-0.5869,2.1962,8.7392,33.5284,-0.1427,0.1118,-0.5834,-51.8228
16:23:17:193,-0.864,2.2134,8.9191,33.4889,-0.2395,-0.181,-0.4897,-51.6736
16:23:17:214,-0.5629,2.2136,9.1446,33.092,-0.3077,-0.2023,-0.3769,-51.5154
16:23:17:233,-0.185,2.024,9.0477,33.4331,-0.3205,0.1192,-0.3641,-51.3455
16:23:17:253,-0.4105,2.011,8.6936,33.3087,-0.2949,0.412,-0.3992,-51.164
16:23:17:273,-0.6351,1.8844,8.2962,33.2416,-0.2843,0.3694,-0.4141,-50.9729
16:23:17:293,-0.9229,1.8521,8.0094,33.4298,-0.2843,0.1554,-0.3513,-50.7758
16:23:17:314,-1.0995,2.2384,7.9935,33.3177,-0.2608,-0.0096,-0.1618,-50.5757
16:23:17:333,-0.6715,2.3985,7.8903,33.3142,-0.198,-0.0266,-0.0032,-50.3765
16:23:17:353,-0.3852,2.6368,7.5956,33.1933,-0.1629,0.033,0.049,-50.1825
16:23:17:374,-0.415,3.0596,7.5167,33.258,-0.2119,0.0649,0.0543,-49.9958
16:23:17:393,-0.372,3.6682,7.9441,33.1213,-0.3343,-0.0671,0.0639,-49.8188
16:23:17:414,-0.0297,3.7563,8.3559,32.9219,-0.3449,-0.1278,0.0224,-49.6531
16:23:17:433,0.1031,3.6405,8.3994,32.7882,-0.2151,0.017,-0.0735,-49.4941
16:23:17:455,-0.2712,3.6358,8.1868,32.7654,-0.082,0.1554,-0.1118,-49.3357
16:23:17:474,-0.7141,3.6626,8.6275,32.9588,-0.0256,0.049,-0.0383,-49.1774
16:23:17:494,-0.7591,3.5266,9.5076,33.1343,0.1001,-0.2715,0.0681,-49.0246
16:23:17:514,-0.4458,3.2557,10.1708,33.4256,0.2832,-0.4535,0.0969,-48.8802
16:23:17:534,-0.2531,3.0602,10.4538,33.1477,0.3716,-0.461,0.033,-48.7422
16:23:17:555,-0.3675,2.8118,10.6402,33.0593,0.2513,-0.3748,-0.0415,-48.6088
16:23:17:574,-0.5955,2.7372,10.9075,32.9138,-0.0437,-0.1235,-0.0064,-48.4772
16:23:17:594,-1.0155,2.9013,11.4468,32.802,-0.3588,0.2566,0.1576,-48.3476
16:23:17:615,-1.3865,3.3374,12.0928,32.9164,-0.4653,0.5941,0.4269,-48.2243
16:23:17:633,-1.5108,3.738,12.2286,32.9847,-0.3162,0.8783,0.6388,-48.1151
16:23:17:653,-1.5911,3.7812,11.4659,32.9984,-0.0415,0.9656,0.6643,-48.1151
16:23:17:677,-0.9411,2.7424,10.511,33.2839,0.0586,0.3194,0.363,-48.1151
16:23:17:695,-1.3186,1.6294,10.2707,33.2658,0.0639,-0.4567,-0.0692,-48.1151
16:23:17:718,-1.967,0.8153,10.051,33.329,0.3428,-0.4929,-0.066,-48.1151
16:23:17:734,-2.2079,0.4279,8.965,33.4659,0.6814,-0.2108,0.1693,-48.1151
16:23:17:754,-1.9726,0.6917,7.5768,33.3076,0.5973,-0.2076,0.3268,-48.1151
16:23:17:775,-1.5102,1.015,7.3565,33.4891,0.0905,-0.4876,0.2917,-48.1151
16:23:17:793,-1.5721,1.5938,8.3029,33.6256,-0.2161,-0.5164,0.2545,-48.1151
16:23:17:815,-1.6971,1.9585,9.0372,33.8648,-0.1246,-0.4248,0.2736,-48.1151
16:23:17:836,-1.8234,2.0342,8.8435,34.2202,0.0979,-0.3332,0.3141,-48.1151
16:23:17:854,-1.8981,2.1793,8.1134,34.7272,0.1746,-0.3151,0.4748,-48.1151
16:23:17:874,-1.7175,2.3198,7.3671,34.5968,-0.0277,-0.1299,0.6452,-48.1151
16:23:17:893,-1.3827,2.3286,7.3157,34.5559,-0.2417,0.2342,0.8049,-48.1151
16:23:17:914,-0.8741,2.3039,7.5184,34.5928,-0.2566,0.5174,0.8464,-48.1151
16:23:17:935,-0.3855,2.2353,7.5605,34.6344,-0.1214,0.477,0.7548,-48.2198
16:23:17:955,-0.0826,2.2839,7.5935,34.5385,-0.0234,0.0287,0.5345,-48.3512
16:23:17:974,0.1894,2.3312,7.7573,34.6481,-0.0415,-0.4014,0.3237,-48.5051
16:23:17:994,0.5,2.1517,8.2929,34.5196,-0.132,-0.5685,0.1522,-48.6711
16:23:18:014,0.5474,2.2427,9.177,34.3316,-0.1938,-0.4248,0.0745,-48.8414
16:23:18:034,0.5152,2.7657,9.9718,34.3676,-0.0937,-0.0554,0.033,-49.0051
16:23:18:054,0.2708,3.3546,10.1135,34.4692,0.0532,0.2225,-0.1001,-49.1598
16:23:18:074,0.199,3.2551,10.0502,34.2341,0.0224,0.1033,-0.2726,-49.3055
16:23:18:094,-0.0689,3.1477,10.5304,33.9387,-0.082,-0.1831,-0.4035,-49.4419
16:23:18:117,-0.3637,3.1992,11.2069,33.9462,-0.0724,-0.2896,-0.3822,-49.5632
16:23:18:133,-0.467,3.2697,11.9304,33.8629,0.0287,-0.1672,-0.2172,-49.6667
16:23:18:153,-0.1786,3.1575,12.0683,33.747,0.1363,0.0692,-0.1065,-49.6667
16:23:18:176,0.7282,2.2361,12.1131,33.8944,-0.0426,-0.1373,-0.2566,-49.6667
16:23:18:194,0.8393,1.1301,12.6498,33.9827,-0.2246,-0.2417,-0.4791,-49.6667
16:23:18:216,0.3647,0.5722,12.5093,33.9968,0.0298,0.2097,-0.3758,-49.6667
16:23:18:240,0.1694,0.4724,11.088,34.2647,0.3801,0.4503,-0.2012,-49.6667
16:23:18:254,0.2392,0.7346,9.4391,34.3071,0.3854,0.2757,-0.1522,-49.6667
16:23:18:274,0.4867,1.0258,8.5215,34.3713,0.066,0.1522,-0.1789,-49.6667
16:23:18:295,0.3972,1.3851,8.2014,34.4486,-0.2364,0.3024,-0.2608,-49.6667
16:23:18:313,-0.1159,1.8447,8.0522,34.0162,-0.362,0.4844,-0.3332,-49.6667
16:23:18:333,-0.6144,2.3835,7.7318,34.0737,-0.3268,0.5653,-0.297,-49.6667
16:23:18:353,-0.6274,2.6336,7.3795,34.1877,-0.2555,0.3662,-0.2459,-49.6667
16:23:18:374,-0.2134,2.4293,7.3785,34.3755,-0.2129,-0.0639,-0.3322,-49.6667
16:23:18:394,0.0411,2.0261,7.3613,34.6454,-0.0958,-0.2545,-0.4653,-49.6667
16:23:18:414,-0.0192,1.7546,7.0793,34.9978,0.0596,-0.0798,-0.4546,-49.6667
16:23:18:447,-0.1325,1.6578,6.7093,34.8832,0.1565,0.2012,-0.3056,-49.6667
16:23:18:453,-0.1425,1.8914,6.612,34.9096,0.0894,0.2811,-0.1863,-49.6667
16:23:18:473,0.0882,2.1689,7.2509,34.9304,-0.0777,0.0341,-0.2172,-49.6667
16:23:18:493,-0.3193,2.8733,8.4086,34.7199,-0.1118,-0.2449,-0.33,-49.6667
16:23:18:513,-0.9318,3.133,9.007,34.6548,0.0287,-0.2715,-0.2843,-49.6667
16:23:18:533,-1.4155,3.4321,9.1596,34.6507,0.0809,-0.05,-0.0532,-49.5653
16:23:18:553,-1.2446,3.7452,9.804,34.5233,-0.0607,0.0106,0.165,-49.4612
16:23:18:576,-0.6815,3.5877,11.0092,34.464,-0.1767,-0.1416,0.1118,-49.3678
16:23:18:593,-0.7554,3.3581,11.9703,34.6895,-0.0383,-0.2875,-0.0948,-49.3678
16:23:18:615,-1.4001,2.8114,11.9819,34.5288,0.1789,-0.3183,-0.1352,-49.3678
16:23:18:633,-1.8583,2.403,11.7736,34.4796,0.1714,-0.2992,0.0628,-49.2757
16:23:18:654,-1.8028,2.1875,12.0753,34.4758,0.0543,-0.0224,0.4141,-49.2757
16:23:18:677,-1.4177,2.0776,12.1518,34.5497,0.1927,0.4078,0.6675,-49.2757
16:23:18:694,-0.9299,1.4704,11.3004,34.7281,0.428,0.2204,0.6026,-49.2757
16:23:18:714,-0.807,0.9057,10.5771,34.8168,0.4812,-0.4663,0.3268,-49.2757
16:23:18:734,-1.1248,0.7668,9.8939,35.2146,0.478,-0.593,0.1703,-49.2757
16:23:18:753,-1.3075,0.6792,9.1627,35.1747,0.3226,-0.3939,0.1384,-49.2757
16:23:18:775,-1.2861,0.7448,8.5931,35.3698,-0.0447,-0.2044,0.1725,-49.2757
16:23:18:795,-0.7828,0.8898,8.7617,35.4491,-0.4993,0.0085,0.2108,-49.2757
16:23:18:815,-0.3397,1.0909,9.3154,35.8132,-0.7623,0.2459,0.1224,-49.2757
16:23:18:833,-0.4811,1.2591,9.4659,36.0323,-0.7272,0.5376,0.0586,-49.2757
16:23:18:853,-0.7831,1.3098,9.0254,35.8803,-0.5366,0.7868,0.1384,-49.2757
16:23:18:877,-0.8683,1.3788,8.0889,35.9641,-0.2662,0.9433,0.3258,-49.2757
16:23:18:893,-0.7564,1.4106,7.0591,36.1415,-0.0788,0.9039,0.4759,-49.2757
16:23:18:913,-0.7054,1.7006,6.2928,36.4119,0.0266,0.7304,0.5206,-49.2757
16:23:18:933,-0.6794,2.0707,5.7942,36.5701,0.0724,0.4514,0.4493,-49.2757
16:23:18:954,-0.7393,2.4507,5.5461,36.9274,-0.0703,0.1331,0.2917,-49.2757
16:23:18:975,-0.7751,2.7367,6.1474,36.9218,-0.4514,-0.1512,0.0948,-49.3679
16:23:18:993,-0.5807,2.5395,7.7547,36.7663,-0.8294,-0.3545,-0.0937,-49.4701
16:23:19:013,-0.6157,2.3607,9.4616,36.913,-0.922,-0.3002,-0.2726,-49.5728
16:23:19:033,-0.9712,2.5353,10.8802,37.0292,-0.7133,-0.0639,-0.28,-49.6651
16:23:19:053,-1.153,2.3297,11.5956,36.95,-0.3119,0.1352,-0.1778,-49.6651
16:23:19:074,-1.0096,2.0727,11.7734,37.1203,0.0341,-0.0458,-0.1203,-49.6651
16:23:19:093,-1.0587,2.3232,11.7541,37.4383,0.1022,-0.3396,-0.1927,-49.6651
16:23:19:114,-1.3501,2.7378,11.9746,37.4625,-0.0021,-0.2768,-0.297,-49.6651
16:23:19:133,-1.4085,2.5627,12.5428,37.5788,-0.1395,-0.1767,-0.3875,-49.6651
16:23:19:153,-1.577,2.0262,13.0985,37.4465,-0.0841,0.0671,-0.3886,-49.6651
16:23:19:177,-1.314,1.1367,12.8975,37.2455,0.0639,0.2268,-0.3971,-49.6651
16:23:19:193,-1.1479,-0.0093,12.3692,37.1126,0.1693,0.049,-0.5217,-49.6651
16:23:19:214,-1.399,-0.4003,11.3203,36.9613,0.4514,0.1938,-0.4759,-49.6651
16:23:19:233,-1.4045,-0.6953,9.8006,36.8854,0.625,0.313,-0.3513,-49.6651
16:23:19:253,-1.3718,-0.6111,8.4865,36.9719,0.4397,0.1501,-0.2438,-49.6651
16:23:19:274,-1.2717,-0.2978,8.0049,37.2811,-0.083,-0.2002,-0.116,-49.6651
16:23:19:293,-0.8642,0.1335,8.5915,37.5486,-0.576,-0.362,-0.0192,-49.6651
16:23:19:314,-0.5104,0.5863,9.343,37.5446,-0.7272,-0.2023,-0.0916,-49.6651
16:23:19:333,-0.4903,0.7597,9.4294,37.4613,-0.5217,0.1927,-0.2119,-49.6651
16:23:19:354,-0.8352,0.8745,8.5721,37.4847,-0.1214,0.4621,-0.2502,-49.6651
16:23:19:376,-1.179,1.1197,7.3079,37.3555,0.2033,0.3066,-0.2044,-49.6651
16:23:19:393,-1.336,1.4591,6.3545,37.1049,0.3066,-0.0351,-0.1043,-49.6651
16:23:19:414,-1.1616,1.6684,5.9978,37.1052,0.2204,-0.2161,0,-49.6651
16:23:19:434,-0.8732,1.751,6.1845,37.1081,0.1107,-0.132,0.0224,-49.6651
16:23:19:454,-0.8604,1.9027,6.5551,37.3866,0.016,-0.0287,-0.0319,-49.6651
16:23:19:474,-0.8824,2.1695,7.0665,37.1991,-0.0128,0.0149,-0.0426,-49.6651
16:23:19:493,-1.1092,2.2607,7.5465,37.4895,0.0277,-0.0085,-0.1352,-49.6651
16:23:19:514,-1.6914,2.2587,7.9054,37.4545,-0.0362,-0.1256,-0.2193,-49.5722
16:23:19:534,-2.666,2.3732,8.9767,37.5173,-0.231,-0.2566,-0.083,-49.4787
16:23:19:554,-2.9441,2.2218,10.5106,37.6866,-0.2757,-0.1554,0.3684,-49.3847
16:23:19:574,-2.3783,1.9718,11.4893,37.4984,-0.1416,0.0128,0.7665,-49.3847
16:23:19:593,-1.3389,1.7784,11.7745,37.3914,-0.0777,-0.017,0.9316,-49.3847
16:23:19:615,-0.6171,1.5913,12.1917,37.231,-0.1895,-0.2843,0.8272,-49.3847
16:23:19:634,-0.7462,1.8095,13.0514,37.0729,-0.3056,-0.346,0.7559,-49.3847
16:23:19:654,-1.0013,1.9388,13.5989,37.1207,-0.0958,0.1427,0.9497,-49.3847
16:23:19:677,-0.5744,1.3754,12.5621,37.1855,0.3237,0.3961,1.0955,-49.3847
16:23:19:694,0.0296,0.5776,11.358,37.1675,0.5249,-0.2523,0.8347,-49.4764
16:23:19:717,-0.1437,0.2084,10.6482,37.3031,0.5589,-0.9209,0.4397,-49.6045
16:23:19:734,-0.4105,0.1599,10.2008,37.5154,0.4695,-1.0721,0.231,-49.7502
16:23:19:753,-0.3671,0.2321,9.9473,37.6126,0.1895,-0.823,0.1959,-49.901
16:23:19:775,0.1083,0.6312,10.0806,38.0396,-0.1682,-0.4099,0.198,-50.0549
16:23:19:794,0.909,0.633,10.3219,38.1386,-0.4141,-0.0713,-0.0106,-50.2087
16:23:19:814,0.7263,0.5157,10.2956,38.0656,-0.4376,0.2161,-0.3332,-50.3579
16:23:19:836,-0.1053,0.5148,9.6501,38.3852,-0.2087,0.4706,-0.4312,-50.4893
16:23:19:854,-0.9518,0.6487,8.5445,38.4538,0.1235,0.5195,-0.2204,-50.5979
16:23:19:878,-1.2323,0.7367,7.379,38.5571,0.4397,0.3577,0.148,-50.6913
16:23:19:893,-1.1628,0.7361,6.6428,38.7373,0.692,-0.0394,0.4972,-50.784
16:23:19:914,-0.7361,1,6.7055,38.7671,1.0253,-0.7996,0.791,-50.8918
16:23:19:934,-0.0496,1.7481,6.847,38.6504,1.4469,-1.6087,0.8411,-51.0268
16:23:19:954,0.6995,2.6842,6.5485,38.4755,1.5097,-1.911,0.5557,-51.1921
16:23:19:974,1.2948,2.5984,6.2379,38.1116,1.0199,-1.5182,0.1714,-51.3781
16:23:19:994,1.4421,2.2843,6.9836,38.0874,0.2811,-0.7367,-0.0011,-51.5692
16:23:20:016,0.9431,2.6335,8.2227,37.9976,-0.1533,0.0884,-0.0117,-51.7539
16:23:20:034,0.4995,3.1763,8.9449,37.9116,-0.2268,0.5164,-0.0415,-51.9259
16:23:20:054,0.4164,3.2977,9.3333,37.9668,-0.362,0.2513,-0.1235,-52.0902
16:23:20:074,0.5476,3.1118,10.6516,37.8195,-0.6154,-0.1086,-0.132,-52.2514
16:23:20:094,0.8389,2.8332,12.5681,37.6479,-0.6888,-0.1182,-0.0926,-52.4049
16:23:20:114,0.8896,2.8079,13.9414,37.711,-0.4535,0.2065,-0.0447,-52.5457
16:23:20:134,0.6499,3.0605,13.6941,37.6883,0.0287,0.6963,0.0298,-52.6707
16:23:20:153,0.7223,3.021,12.1704,37.5618,0.2992,0.7506,0.0277,-52.7842
16:23:20:177,1.1496,2.3241,11.3394,37.373,0.1831,0.2236,-0.1757,-52.8962
16:23:20:194,1.0435,1.6101,10.9572,37.4365,0.2885,0.1618,-0.3556,-53.0089
16:23:20:215,0.4856,1.1429,9.5599,37.6323,0.4919,0.2427,-0.4929,-53.1033
16:23:20:234,-0.0558,1.067,8.1936,37.7387,0.3151,-0.049,-0.494,-53.1033
16:23:20:254,0.2916,1.1377,8.0027,37.9027,-0.3077,-0.5557,-0.3929,-53.1033
16:23:20:274,1.0712,1.2733,8.9966,38.0241,-0.9241,-0.6058,-0.4099,-53.1033
16:23:20:294,1.534,1.1572,9.9005,37.9427,-1.1743,-0.099,-0.5909,-53.1033
16:23:20:315,1.0347,0.931,9.8128,38.2168,-1.0018,0.6313,-0.741,-53.1033
16:23:20:335,-0.0878,1.1549,8.8653,38.3417,-0.6675,0.9773,-0.659,-53.1033
16:23:20:354,-0.7354,1.4189,7.8057,38.3905,-0.3705,0.8411,-0.378,-53.1033
16:23:20:376,-0.5202,1.4904,7.1583,38.6396,-0.1331,0.3545,-0.1246,-53.1033
16:23:20:393,0.0104,1.6459,6.8502,38.087,0.0916,-0.0692,-0.0362,-53.1033
16:23:20:415,0.4455,1.6492,6.5298,38.2813,0.2715,-0.1331,-0.0905,-53.1033
16:23:20:434,0.381,1.734,6.2556,38.0689,0.2651,0.0458,-0.1256,-53.1033
16:23:20:467,0.2172,1.9016,6.2528,38.1801,0.0213,0.1405,-0.1395,-53.1033
16:23:20:476,-0.399,2.2724,7.6996,38.2146,-0.3471,-0.1778,-0.1203,-53.1033
16:23:20:496,-0.7777,2.3873,10.2247,38.5202,-0.329,-0.5589,0.0894,-53.1033
16:23:20:515,-0.1418,2.2703,11.3298,38.3946,0.0522,-0.4184,0.2938,-53.1033
16:23:20:533,0.2302,2.4279,11.2582,38.7571,0.2779,-0.082,0.2534,-53.1033
16:23:20:554,-0.2641,2.3938,11.417,38.9225,0.2768,-0.1916,0.033,-53.1033
16:23:20:577,-1.2884,2.4376,11.8757,38.7388,0.2193,-0.4514,0.0543,-53.1033
16:23:20:593,-1.1405,2.3499,12.186,38.6568,0.1235,-0.411,0.4354,-53.1033
16:23:20:615,-0.2559,2.4608,12.4392,38.6541,-0.0064,0.099,0.8443,-53.1033
16:23:20:633,0.1934,3.1109,12.6537,38.7288,0.1416,0.7357,1.0391,-53.1033
16:23:20:655,0.6843,3.0722,11.8959,38.7853,0.3513,0.5866,0.8017,-53.1033
16:23:20:676,0.7171,2.0813,11.0501,38.8472,0.4802,-0.1288,0.2821,-53.1033
16:23:20:693,0.0136,1.2104,10.0558,38.9143,0.5557,-0.4408,-0.0256,-53.1033
16:23:20:714,-0.7209,0.8125,8.9558,39.1505,0.4599,-0.363,-0.0937,-53.1033
16:23:20:733,-1.1666,0.8334,8.3165,39.2055,0.1395,-0.3237,-0.016,-53.1033
16:23:20:753,-1.0062,0.8727,8.297,39.4639,-0.2906,-0.2938,0.1065,-53.1033
16:23:20:773,-0.5108,0.9572,8.8189,39.5485,-0.6718,-0.2545,0.1544,-53.1033
16:23:20:793,-0.1889,0.8414,9.4688,39.4811,-0.8059,-0.099,0.1522,-53.1033
16:23:20:815,-0.2368,0.7158,9.5349,39.5673,-0.5707,0.1448,0.2119,-53.1033
16:23:20:834,-0.4161,0.6425,8.5279,39.5373,-0.1363,0.3577,0.3961,-53.1033
16:23:20:854,-0.3617,0.7151,7.1197,39.505,0.198,0.4333,0.6494,-53.1033
16:23:20:877,-0.2883,1.241,6.0307,39.7493,0.3513,0.3673,0.8432,-53.2126
16:23:20:894,-0.0266,1.7038,5.3938,39.9032,0.3875,0.2853,0.906,-53.3478
16:23:20:914,0.332,1.9967,5.2813,39.9663,0.2821,0.1139,0.8081,-53.5131
16:23:20:935,0.7995,2.2148,5.7729,40.0434,0.05,-0.1522,0.5962,-53.7067
16:23:20:954,0.9962,2.6175,7.007,40.0229,-0.2694,-0.4631,0.3599,-53.9231
16:23:20:975,0.9959,2.801,8.7673,40.0988,-0.3971,-0.643,0.2097,-54.1534
16:23:20:993,1.4505,2.2045,10.2498,40.1986,-0.2938,-0.691,0.0841,-54.3835
16:23:21:014,2.1653,1.6798,11.2555,40.2521,-0.1821,-0.5281,-0.0735,-54.6073
16:23:21:033,2.426,1.8598,12.0591,40.2513,-0.3087,-0.2683,-0.3173,-54.8205
16:23:21:054,1.7741,2.3488,12.9161,40.409,-0.4908,0.2438,-0.5078,-55.0149
16:23:21:075,1.0011,2.2597,13.7195,40.1228,-0.3939,0.7059,-0.4291,-55.1809
16:23:21:094,0.3792,2.4034,13.7334,40.1206,0.0287,0.7293,-0.1278,-55.32
16:23:21:114,0.1399,3.2512,12.8323,39.9019,0.4557,0.4716,0.1597,-55.4451
16:23:21:134,1.0264,3.1437,11.7554,39.842,0.511,-0.0202,0.1618,-55.5718
16:23:21:154,1.7382,2.055,11.4915,39.9868,0.411,-0.3332,-0.197,-55.7075
16:23:21:177,1.2595,1.0237,10.9161,40.266,0.5078,-0.2076,-0.5919,-55.8354
16:23:21:194,0.3887,0.2413,9.5924,40.5257,0.4674,0.0138,-0.807,-55.9419
16:23:21:215,-0.0766,-0.238,8.3435,40.96,0.0224,0.1661,-0.7889,-55.9419
16:23:21:234,-0.0095,-0.3187,8.5382,41.089,-0.7996,0.1735,-0.7208,-55.9419
16:23:21:254,0.4372,-0.236,9.6897,41.392,-1.4,0.3087,-0.7027,-55.9419
16:23:21:275,0.654,-0.0397,10.4633,41.6811,-1.4181,0.6484,-0.8315,-55.9419
16:23:21:295,0.1476,0.3023,9.9991,41.6724,-0.9763,0.9071,-0.9678,-55.9419
16:23:21:313,-0.5194,0.7588,8.6441,41.8384,-0.4706,0.905,-0.8347,-55.9419
16:23:21:333,-0.3635,0.9891,7.3273,41.9856,-0.132,0.61,-0.5249,-55.8436
16:23:21:353,0.1442,1.4334,6.6749,42.0226,0.0426,0.2268,-0.2513,-55.7291
16:23:21:375,0.6787,1.7336,6.5938,42.062,0.2183,-0.1097,-0.1746,-55.6092
16:23:21:394,1.26,1.9166,6.2477,42.251,0.4078,-0.3535,-0.3109,-55.4876
16:23:21:415,1.8006,1.9605,6.0163,42.3634,0.3279,-0.7048,-0.6409,-55.3621
16:23:21:433,1.0446,1.9848,6.9463,42.2794,0.0937,-0.8059,-0.9071,-55.2256
16:23:21:454,0.2753,1.5511,8.4312,42.2365,-0.0256,-0.5462,-0.7921,-55.0647
16:23:21:474,-0.0987,1.3941,9.5374,42.2383,-0.033,-0.1405,-0.5749,-54.8748
16:23:21:493,-0.2148,1.9133,10.3788,42.2841,-0.0021,0.0979,-0.346,-54.6657
16:23:21:515,-0.055,2.2677,11.1067,42.1307,0.1299,0.0458,-0.2821,-54.4469
16:23:21:536,-0.3662,2.5139,11.6406,42.3685,0.3258,-0.1735,-0.3183,-54.2254
16:23:21:554,-1.0572,2.2016,12.0217,42.1876,0.4823,-0.214,-0.2566,-54.0001
16:23:21:573,-1.3532,1.9582,12.2995,42.4657,0.4397,-0.099,-0.016,-53.7709
16:23:21:593,-1.0157,2.0596,12.9212,42.4467,0.1874,0.2694,0.2214,-53.5452
16:23:21:614,-0.9957,2.3982,13.4375,42.5843,0.1618,0.8666,0.3109,-53.3271
16:23:21:633,-1.1517,2.1351,13.1239,42.6161,0.4237,0.7964,0.1533,-53.1218
16:23:21:655,-1.5014,0.8254,12.4914,42.7541,0.6973,0.0149,-0.131,-52.9327
16:23:21:677,-1.7783,-0.333,11.9611,42.7234,0.8027,-0.4748,-0.1884,-52.7511
16:23:21:694,-1.8663,-0.5474,11.5162,42.7113,0.7665,-0.3332,0.0192,-52.5706
16:23:21:714,-1.4974,-0.0952,10.3678,42.8933,0.6814,0.0309,0.3205,-52.3907
16:23:21:733,-0.6837,0.794,9.124,43.0551,0.4546,-0.082,0.4259,-52.2242
16:23:21:754,-0.0643,1.5319,8.5485,43.2505,0.1906,-0.5291,0.2534,-52.0843
16:23:21:774,-0.2563,1.3551,7.9512,43.1996,0.2087,-0.8145,0.0777,-51.9657
16:23:21:793,-0.8426,1.2825,7.162,43.1841,0.3503,-0.9816,0.1544,-51.8548
16:23:21:814,-0.7934,1.3722,6.3567,43.0046,0.4163,-1.0955,0.4205,-51.7535
16:23:21:834,-0.2368,1.3028,6.2036,42.7663,0.378,-1.0508,0.6824,-51.7535
16:23:21:853,0.4151,1.5151,5.7872,42.5038,0.378,-0.5313,0.8198,-51.7535
16:23:21:873,0.438,1.8527,5.6691,42.7672,0.2353,0.181,0.7357,-51.7535
16:23:21:893,0.4399,2.1195,5.9077,42.6624,-0.0138,0.5611,0.61,-51.7535
16:23:21:914,0.5113,2.3431,6.484,42.8436,-0.3215,0.4589,0.4503,-51.7535
16:23:21:933,0.728,2.4527,7.5993,43.0446,-0.4929,0.1235,0.3237,-51.7535
16:23:21:953,1.0317,2.1644,8.7399,42.9614,-0.4301,-0.1299,0.1959,-51.7535
16:23:21:973,1.1379,1.8456,9.8367,42.8915,-0.2044,0.1214,0.1565,-51.7535
16:23:21:993,1.0095,2.2312,10.2705,42.79,-0.0075,0.4131,0.0586,-51.7535
16:23:22:014,0.8887,2.7637,10.3259,42.6264,-0.0351,0.4248,-0.0884,-51.7535
16:23:22:033,0.8293,2.9944,10.8315,42.577,-0.214,0.2193,-0.2151,-51.7535
16:23:22:054,0.7716,3.1465,11.818,42.1968,-0.2321,0.1235,-0.2427,-51.7535
16:23:22:073,0.709,3.1649,12.2004,42.2828,-0.049,0.2981,-0.2268,-51.7535
16:23:22:093,0.9073,3.4055,12.2543,42.1542,-0.1331,0.3247,-0.2747,-51.7535
16:23:22:115,1.6463,1.9456,13.6753,42.1683,-0.6569,0.0053,-0.445,-51.7535
16:23:22:134,1.3842,0.6212,15.3501,42.2809,-0.4088,0.0948,-0.4621,-51.7535
16:23:22:154,0.9383,-0.1267,14.2604,42.3815,0.4227,0.2332,-0.4173,-51.7535
16:23:22:177,0.4159,0.5174,11.8265,42.302,0.691,-0.1129,-0.2491,-51.7535
16:23:22:194,0.9468,1.0078,10.1038,42.1831,0.4972,-0.2055,-0.0447,-51.7535
16:23:22:215,1.24,1.7448,8.9444,42.2172,0.2332,0.0735,-0.049,-51.7535
16:23:22:234,0.9986,2.1266,8.0434,41.9634,0.0756,0.3268,-0.1767,-51.7535
16:23:22:254,0.7191,1.9136,7.106,41.8368,0.0607,0.3843,-0.3013,-51.7535
16:23:22:274,0.2931,1.8934,6.2539,41.8065,0.1299,0.2236,-0.4067,-51.7535
16:23:22:294,-0.1035,1.9315,5.5803,41.6118,0.1533,-0.0905,-0.4557,-51.7535
16:23:22:315,-0.4248,1.9281,5.2147,41.6061,0.1341,-0.2427,-0.4461,-51.7535
16:23:22:335,-0.4879,1.8842,4.9765,41.4731,0.0809,-0.1618,-0.3513,-51.6488
16:23:22:354,-0.189,1.9818,5.2561,41.3691,-0.0447,-0.016,-0.2513,-51.5328
16:23:22:374,0.2692,2.1413,5.8513,41.1858,-0.2225,0.0735,-0.2747,-51.4107
16:23:22:394,0.0909,2.2035,6.6715,41.3276,-0.3545,0.0575,-0.3918,-51.2833
16:23:22:417,-0.599,2.8045,7.5269,41.1731,-0.3769,0.0224,-0.379,-51.1476
16:23:22:434,-0.6826,3.1536,8.511,40.9566,-0.313,-0.23,-0.2087,-51.0027
16:23:22:480,0.0864,3.5245,9.7356,40.7499,-0.0948,-0.9475,-0.0809,-50.8589
16:23:22:481,0.9104,3.8862,10.4848,40.8206,0.1416,-1.3074,-0.1757,-50.7243
16:23:22:496,0.9746,3.7537,10.8547,40.5242,0.2576,-1.0178,-0.3237,-50.5869
16:23:22:515,0.5914,3.2241,11.3505,40.5851,0.1693,-0.4653,-0.263,-50.4366
16:23:22:533,0.4213,2.622,12.1745,40.6252,-0.1927,-0.1416,-0.083,-50.2761
16:23:22:553,0.4272,2.5823,13.7335,40.345,-0.4525,0.2161,0.198,-50.1158
16:23:22:577,0.2526,3.311,14.628,40.6234,-0.0277,0.7123,0.4812,-49.9582
16:23:22:593,0.7342,3.1123,13.4815,40.487,0.5951,0.4461,0.4695,-49.8127
16:23:22:614,0.9241,2.2431,11.6172,40.3249,0.7495,-0.3034,0.148,-49.695
16:23:22:633,0.6018,1.4993,10.5759,40.2604,0.5717,-0.4248,-0.0926,-49.5955
16:23:22:654,0.1117,1.1861,10.138,40.4688,0.3119,-0.3002,-0.1533,-49.4995
16:23:22:679,0.1769,0.8986,9.6774,40.278,0.0979,-0.1033,-0.0298,-49.4023
16:23:22:694,0.5605,1.0726,9.3412,40.4703,-0.1033,-0.0948,0.0319,-49.3055
16:23:22:714,0.7057,1.599,9.4751,40.3216,-0.2172,-0.3748,-0.0543,-49.3055
16:23:22:734,0.7562,1.6507,9.3993,40.1428,-0.116,-0.4301,-0.1714,-49.3055
16:23:22:754,0.6218,1.4714,8.5387,40.4801,0.1192,-0.0916,-0.2449,-49.2072
16:23:22:774,0.2366,1.3886,7.3061,40.057,0.2736,0.329,-0.2225,-49.0968
16:23:22:794,-0.0563,1.2364,6.1025,40.402,0.2651,0.6356,-0.0948,-48.977
16:23:22:815,-0.2836,1.5918,5.361,40.3222,0.1661,0.7612,0.0745,-48.8531
16:23:22:834,-0.3838,2.1314,5.1538,40.1638,0.0958,0.6611,0.1448,-48.7376
16:23:22:853,-0.1892,2.1982,5.1278,39.8153,-0.0096,0.2395,0.0266,-48.6347
16:23:22:874,-0.0296,2.0319,5.593,39.4722,-0.3322,-0.1682,-0.0926,-48.5444
16:23:22:895,0.0166,1.8919,6.7818,39.5013,-0.6601,-0.2268,-0.0841,-48.5444
16:23:22:914,0.0881,1.7399,8.4999,39.6016,-0.8134,-0.116,-0.016,-48.5444
16:23:22:934,0.1523,1.9281,10.2423,39.3783,-0.6729,0.0415,0.0564,-48.4526
16:23:22:953,0.4299,2.1311,11.0926,39.1598,-0.3971,0.0841,-0.0713,-48.3601
16:23:22:974,0.3836,2.2272,11.0603,39.2712,-0.4408,0.1661,-0.2129,-48.2672
16:23:22:993,-0.1464,2.4282,11.5326,39.3091,-0.5792,0.4706,-0.2172,-48.1678
16:23:23:013,-0.5079,2.7684,12.1891,39.3921,-0.6015,0.5164,-0.0745,-48.0606
16:23:23:033,-0.235,2.8655,12.8799,39.4908,-0.4653,0.3929,0.0671,-47.9534
16:23:23:053,-0.188,3.4452,12.9576,39.4893,-0.1533,0.3268,0.0862,-47.8498
16:23:23:074,0.1541,2.7856,12.3736,39.4833,-0.1363,0.0447,-0.0192,-47.7519
16:23:23:095,0.141,1.6456,12.7065,39.1709,-0.2268,-0.1224,-0.0724,-47.7519
16:23:23:114,-0.1166,0.9783,12.7277,39.2669,0.148,-0.1288,-0.0617,-47.6587
16:23:23:134,-0.2553,0.4189,11.0556,39.1558,0.4163,-0.2694,-0.0554,-47.5638
16:23:23:154,0.1719,0.0327,9.956,38.7134,0.1363,-0.3684,0.0564,-47.4715
16:23:23:177,0.7746,0.4107,10.1039,38.857,-0.3087,-0.2906,0.1214,-47.4715
16:23:23:194,1.177,0.7368,10.3389,38.7772,-0.4259,0.0468,0.0032,-47.4715
16:23:23:215,0.7812,0.9638,9.7033,38.8196,-0.198,0.3673,-0.1916,-47.4715
16:23:23:233,0.0497,1.1624,8.2753,39.1441,0.1043,0.4684,-0.2513,-47.3761
16:23:23:254,-0.3876,1.3299,6.9101,39.3006,0.2268,0.2342,-0.1629,-47.274
16:23:23:274,-0.4828,1.5723,6.2362,39.4721,0.1693,-0.0096,-0.0607,-47.1717
16:23:23:294,-0.2578,1.5381,6.0385,39.5934,0.1139,-0.0713,-0.0075,-47.0722
16:23:23:315,-0.096,1.573,6.024,39.7149,0.0703,0.017,-0.0032,-46.9751
16:23:23:334,0.1298,1.7419,6.2301,40.0354,-0.0394,0.0479,0.0128,-46.8806
16:23:23:354,0.4617,1.9883,6.7991,40.0645,-0.1948,-0.0415,0.0064,-46.8806
16:23:23:375,0.6763,2.1401,7.5861,40.1235,-0.3024,-0.1437,-0.0575,-46.8806
16:23:23:394,0.3044,2.3198,8.471,40.1642,-0.296,-0.1011,-0.116,-46.8806
16:23:23:415,-0.1243,2.3536,9.2302,40.3079,-0.1895,-0.0405,-0.0649,-46.7879
16:23:23:434,-0.3091,2.3793,9.9639,40.1522,-0.0586,-0.0639,0.0149,-46.6937
16:23:23:455,-0.4744,2.4781,10.4705,40.0649,0.0426,-0.033,0.0639,-46.6017
16:23:23:476,-0.7143,2.5284,10.7292,40.3524,0.1235,0.1384,0.1437,-46.6017
16:23:23:494,-0.9768,2.4662,10.9262,40.02,0.0948,0.2598,0.2757,-46.6017
16:23:23:514,-0.8426,2.1905,11.6866,39.8726,-0.033,0.2087,0.4301,-46.6017
16:23:23:535,-0.6256,2.0313,13.0272,39.9926,0.0053,0.2002,0.5675,-46.6017
16:23:23:554,-0.7524,2.1095,13.6877,40.2207,0.477,0.3503,0.7005,-46.6017
16:23:23:575,-0.5004,1.5811,12.3315,40.2033,0.9954,0.1863,0.6239,-46.6017
16:23:23:594,-0.6081,0.9515,10.4392,40.4739,0.873,-0.3056,0.3705,-46.6017
16:23:23:615,-0.7214,0.2546,10.0872,40.5673,0.2821,-0.5174,0.2183,-46.6017
16:23:23:634,-0.7293,0.0355,10.7969,40.4299,-0.1065,-0.2992,0.2523,-46.6017
16:23:23:654,-0.4351,0.4244,10.7955,40.6023,-0.1608,0.0798,0.3822,-46.6017
16:23:23:678,-0.0742,1.2712,10.0894,40.7417,-0.2321,0.2981,0.4237,-46.6017
16:23:23:693,0.4781,1.687,9.7652,41.1619,-0.3748,0.2257,0.2598,-46.6017
16:23:23:714,0.4608,1.8628,9.4569,41.1718,-0.313,0.2843,0.0064,-46.6017
16:23:23:734,-0.0422,1.7342,8.7633,41.4086,-0.1246,0.4173,-0.1565,-46.6017
16:23:23:754,-0.6258,1.4957,7.8942,41.4623,0.1214,0.4205,-0.1363,-46.6017
16:23:23:774,-1.1189,1.268,7.0104,41.5503,0.3418,0.2853,0.0862,-46.6017
16:23:23:794,-1.0648,1.21,6.383,41.5422,0.477,0.1672,0.3748,-46.6017
16:23:23:815,-0.696,1.5264,5.9852,41.244,0.4738,0.1033,0.527,-46.6017
16:23:23:835,-0.2417,1.8442,5.9468,41.5334,0.3151,0.0937,0.4908,-46.6952
16:23:23:855,0.0654,2.0062,6.4005,41.1843,0.0383,-0.0287,0.2651,-46.8064
16:23:23:874,0.1821,2.0005,7.212,41.1919,-0.2087,-0.1384,0.0224,-46.9292
16:23:23:894,0.2648,1.5973,8.2866,41.3772,-0.3545,-0.1107,-0.1384,-47.0527
16:23:23:914,0.1045,1.5167,9.2051,41.4895,-0.3226,-0.0649,-0.2268,-47.1686
16:23:23:935,-0.2458,1.8787,9.6059,41.3134,-0.2385,-0.0554,-0.2576,-47.272
16:23:23:954,-0.5615,2.2016,9.5604,41.2414,-0.378,0.049,-0.263,-47.3633
16:23:23:974,-0.7203,2.2974,10.2872,41.1701,-0.609,0.1789,-0.2619,-47.3633
16:23:23:994,-0.646,2.0165,11.5633,41.1568,-0.6824,0.1427,-0.2417,-47.3633
16:23:24:016,-0.7787,1.9878,13.0428,41.4284,-0.4248,0.1501,-0.1693,-47.3633
16:23:24:034,-0.9403,2.2158,13.1158,41.4453,0.1629,0.379,-0.033,-47.3633
16:23:24:054,-0.1251,1.8381,11.4862,41.6185,0.3226,0.2694,0.0447,-47.3633
16:23:24:074,1.0656,1.0978,11.0108,41.5295,0.0554,-0.0298,-0.0298,-47.3633
16:23:24:094,1.5978,0.7687,11.4344,41.4395,0.0969,-0.1906,-0.2406,-47.3633
16:23:24:114,1.3016,0.7817,10.7903,41.8157,0.3694,-0.3407,-0.5611,-47.3633
16:23:24:134,0.8773,0.4272,9.3308,42.1429,0.1107,-0.3652,-0.7985,-47.3633
16:23:24:154,0.4645,0.1733,9.5715,42.188,-0.6899,-0.0532,-0.8805,-47.3633
16:23:24:178,-0.0191,0.0938,11.0458,42.4785,-1.1317,0.4333,-0.8656,-47.3633
16:23:24:193,-0.8608,0.3409,11.7042,42.7389,-0.7197,0.8049,-0.7708,-47.3633
16:23:24:215,-1.4707,0.8095,10.5112,42.5276,0.0309,0.7591,-0.544,-47.2683
16:23:24:233,-1.6461,1.3592,8.4654,42.6168,0.5834,0.2906,-0.3322,-47.1546
16:23:24:255,-1.4092,1.7479,6.788,42.6436,0.7463,-0.2481,-0.2076,-47.0323
16:23:24:273,-1.025,1.9361,5.899,42.7973,0.5728,-0.4844,-0.1586,-46.91
16:23:24:294,-0.6288,2.0161,5.8753,43.0474,0.2853,-0.2896,-0.1384,-46.7861
16:23:24:315,-0.4157,1.8733,6.3594,43.1621,0.0724,-0.0426,-0.1799,-46.659
16:23:24:335,-0.3753,2.0768,7.0391,42.8867,-0.0319,-0.0756,-0.2491,-46.529
16:23:24:354,-0.6438,2.2673,7.8764,42.8599,-0.1043,-0.297,-0.2917,-46.3977
16:23:24:374,-1.0009,1.9772,8.9609,42.9951,-0.1576,-0.2534,-0.1661,-46.2625
16:23:24:395,-1.0603,1.8515,9.9689,43.0043,-0.1065,0.1054,0.0841,-46.1221
16:23:24:415,-0.393,1.8278,10.0494,43.3144,-0.0064,0.3641,0.28,-45.9822
16:23:24:434,0.7955,1.491,9.6903,43.4176,-0.066,0.4983,0.2821,-45.8528
16:23:24:454,0.5523,2.3666,9.9399,43.4782,-0.1384,0.3418,-0.0064,-45.7384
16:23:24:499,-0.2279,2.3863,10.362,43.5686,-0.2055,0.0405,-0.2342,-45.6333
16:23:24:501,-1.147,1.864,11.3485,43.5404,-0.2364,-0.082,-0.2342,-45.5288
16:23:24:515,-2.2837,2.3415,12.0229,43.9457,-0.016,0.1554,0.0788,-45.4176
16:23:24:534,-2.3859,2.8477,11.4382,44.0621,0.2534,0.263,0.4269,-45.3052
16:23:24:553,-1.7928,2.6109,10.4379,44.1898,0.2438,-0.2044,0.4322,-45.209
16:23:24:576,-1.071,1.8599,10.4374,44.3869,-0.099,-0.774,0.1938,-45.209
16:23:24:593,-0.8009,0.9726,11.1573,44.5882,-0.3396,-0.7815,-0.099,-45.209
16:23:24:614,-1.0075,0.1097,11.5701,44.4786,-0.3918,-0.5153,-0.3077,-45.209
16:23:24:634,-1.599,0.0041,11.3771,44.3122,-0.2832,-0.2715,-0.3407,-45.209
16:23:24:655,-2.0582,0.4017,10.4463,44.49,-0.1001,-0.1491,-0.1938,-45.209
16:23:24:677,-2.0263,0.7292,9.118,44.3908,0.0447,-0.197,0.0202,-45.1169
16:23:24:694,-1.4996,0.6536,7.9816,44.7558,-0.0064,-0.3992,0.1224,-45.0263
16:23:24:714,-1.2715,0.925,7.7161,44.79,-0.2491,-0.5206,0.1214,-45.0263
16:23:24:733,-1.0278,1.0081,7.8474,45.0492,-0.4322,-0.2736,0.1097,-45.0263
16:23:24:753,-0.8255,0.7279,7.9972,45.4191,-0.3045,0.2225,0.1182,-45.0263
16:23:24:773,-0.7899,0.6324,7.3586,45.6139,-0.0106,0.3843,0.1011,-45.0263
16:23:24:795,-0.77,0.686,6.7657,45.8119,0.1171,0.0479,0.0543,-45.0263
16:23:24:814,-0.7626,1.0777,6.7796,45.9975,0.1437,-0.4205,0.0415,-45.0263
16:23:24:833,-0.483,1.0489,6.9907,46.0192,0.0777,-0.6835,0.0106,-45.0263
16:23:24:853,-0.1607,0.721,7.7105,46.0354,-0.1278,-0.6665,-0.0256,-45.0263
16:23:24:874,0.2258,0.6068,9.0081,46.3715,-0.3662,-0.692,-0.1735,-45.0263
16:23:24:893,0.4189,0.6746,10.4399,46.4604,-0.3982,-0.5195,-0.4067,-45.0263
16:23:24:914,0.1809,0.5661,11.2715,46.3217,-0.1735,-0.0649,-0.5579,-45.0263
16:23:24:933,-0.2793,0.1317,11.1907,46.3185,0.0511,0.363,-0.4748,-44.921
16:23:24:955,-0.6777,0.8497,10.9217,46.0837,0.0192,0.5259,-0.3087,-44.797
16:23:24:980,-0.8488,1.9455,11.2797,45.6849,-0.1395,0.5142,-0.2545,-44.6637
16:23:24:993,-0.9469,2.4302,11.7198,45.6131,-0.1288,0.4269,-0.3024,-44.528
16:23:25:013,-1.1038,2.4842,11.4697,45.614,-0.116,0.4248,-0.3087,-44.3864
16:23:25:033,-0.4905,1.5017,11.7048,45.6469,-0.4876,0.2268,-0.3588,-44.2399
16:23:25:053,-0.255,0.4533,13.3394,45.5701,-0.7932,0.0021,-0.3939,-44.0926
16:23:25:073,-0.1656,-0.5776,14.4043,45.8512,-0.4163,-0.0617,-0.3545,-43.9376
16:23:25:094,-0.3249,-1.3022,13.3443,45.9447,0.1906,-0.05,-0.2246,-43.7707
16:23:25:114,-0.3406,-1.2192,11.8261,45.9618,0.3843,-0.1938,0.0852,-43.5975
16:23:25:134,0.3258,-0.7542,10.7984,46.0885,0.2875,-0.264,0.3748,-43.4317
16:23:25:154,0.9152,-0.0629,9.9342,46.7316,0.197,-0.1033,0.3535,-43.2816
16:23:25:178,1.035,0.4171,9.1504,46.918,0.2321,0.0383,0.1842,-43.147
16:23:25:195,0.8485,0.7608,8.0718,47.1181,0.2672,0.1693,-0.0117,-43.0234
16:23:25:214,0.4297,0.8584,7.1947,47.3501,0.3226,0.2417,-0.1352,-42.9019
16:23:25:234,0.0441,0.9837,6.4874,47.4226,0.3524,0.164,-0.1618,-42.781
16:23:25:254,-0.0758,1.117,6.0732,47.4507,0.3694,0.0884,-0.0681,-42.659
16:23:25:273,0.2479,1.1122,5.8762,47.4805,0.3726,0.0277,-0.0106,-42.5381
16:23:25:295,0.6117,1.2554,5.8145,47.5742,0.3354,-0.0511,-0.0724,-42.4205
16:23:25:315,0.7171,1.5124,5.9876,47.7651,0.1224,-0.1501,-0.197,-42.3066
16:23:25:334,0.6707,1.6437,6.6639,47.6541,-0.1618,-0.2065,-0.3237,-42.1935
16:23:25:354,0.3811,1.6187,7.6351,47.8727,-0.3897,-0.0671,-0.3705,-42.0749
16:23:25:375,-0.1523,1.7209,8.7553,47.8451,-0.4589,0.2172,-0.2864,-41.9459
16:23:25:394,-0.4981,1.8775,9.5294,47.5735,-0.395,0.3971,-0.1821,-41.8064
16:23:25:414,-0.8547,2.2234,10.2507,47.6449,-0.3577,0.264,-0.0937,-41.6636
16:23:25:434,-1.0627,2.2748,11.5165,47.7711,-0.3077,-0.1522,-0.0522,-41.5249
16:23:25:456,-1.3693,1.711,12.7696,47.7992,-0.1001,-0.296,0.1107,-41.3914
16:23:25:474,-1.3872,1.2223,13.5085,47.7779,0.0586,-0.131,0.3577,-41.2627
16:23:25:494,-1.0815,0.941,13.9536,47.6744,0.0841,0.3471,0.5675,-41.1442
16:23:25:514,-1.2236,1.6055,14.265,47.373,0.4024,0.6388,0.7431,-41.0419
16:23:25:534,-0.961,1.8632,13.2654,47.3122,0.8634,0.3418,0.7878,-41.0419
16:23:25:555,-0.3614,1.0404,11.4622,47.4018,1.0529,-0.3205,0.5238,-41.0419
16:23:25:573,-0.1406,0.1894,10.1403,47.9366,0.6824,-0.4897,0.1927,-41.0419
16:23:25:593,-0.4575,-0.0817,10.201,47.9098,0.2587,-0.264,-0.0383,-41.0419
16:23:25:615,-0.7062,-0.2015,10.0926,47.8687,0.0649,-0.016,-0.1182,-41.0419
16:23:25:633,-0.7446,-0.1534,9.4454,48.0697,-0.1214,0.2065,-0.1746,-41.0419
16:23:25:653,-0.4568,-0.2074,9.061,47.9421,-0.379,0.2875,-0.2427,-41.0419
16:23:25:678,-0.4576,-0.0938,9.0852,48.1139,-0.445,0.2928,-0.3056,-41.0419
16:23:25:693,-0.8636,0.3356,8.6119,48.2288,-0.1863,0.3396,-0.3183,-41.0419
16:23:25:713,-1.1873,0.4592,7.4486,48.4511,0.1459,0.4812,-0.1757,-41.0419
16:23:25:733,-1.1664,0.5088,6.3615,48.4563,0.3694,0.4855,0.049,-41.0419
16:23:25:754,-0.9865,0.6209,5.4472,48.7395,0.4525,0.3439,0.2161,-41.0419
16:23:25:775,-0.8183,0.8647,5.1786,48.8541,0.4024,0.1459,0.3162,-41.0419
16:23:25:793,-0.4857,1.2701,5.0062,49.0061,0.2566,-0.0383,0.3034,-41.0419
16:23:25:814,-0.1373,1.4873,5.3566,48.9717,-0.0468,-0.2449,0.1533,-41.0419
16:23:25:836,0.0945,1.6305,6.2464,49.0406,-0.4727,-0.527,-0.1107,-41.0419
16:23:25:854,0.0788,1.3224,7.632,48.9597,-0.8219,-0.4674,-0.4099,-41.0419
16:23:25:874,-0.3115,1.045,9.1871,48.9197,-0.905,-0.0681,-0.5728,-41.0419
16:23:25:894,-0.5809,0.7668,10.1356,49.077,-0.7602,0.2704,-0.5845,-41.0419
16:23:25:914,-0.8492,1.0445,10.5248,48.9554,-0.758,0.3971,-0.5611,-41.0419
16:23:25:935,-0.7227,1.2626,11.2122,49.3946,-1.0849,0.494,-0.5408,-40.9487
16:23:25:954,-0.5981,1.3026,12.7668,49.2621,-1.3042,0.7314,-0.642,-40.8425
16:23:25:974,-1.0775,1.3501,13.7255,49.5403,-1.2116,1.1967,-0.6995,-40.7184
16:23:25:994,-1.6933,1.3583,14.1353,49.3699,-0.8581,1.6885,-0.6516,-40.5709
16:23:26:015,-1.648,0.8156,13.8766,48.8982,-0.5462,1.1307,-0.626,-40.4036
16:23:26:035,-1.4485,-0.1853,14.4487,48.3933,-0.2917,-0.1714,-0.6633,-40.2357
16:23:26:054,-1.2704,-1.246,14.5924,48.0936,0.313,-0.8475,-0.6196,-40.0602
16:23:26:074,-1.3685,-1.6582,13.2357,47.8007,0.856,-0.8507,-0.5142,-39.8666
16:23:26:095,-1.5517,-1.2067,11.4896,48.1319,0.9646,-0.7399,-0.2779,-39.6541
16:23:26:116,-0.9587,-0.7876,10.2051,48.7267,0.7612,-0.6058,-0.0713,-39.431
16:23:26:133,-0.3248,-0.5349,9.5054,49.1781,0.4312,-0.5153,-0.1214,-39.2078
16:23:26:154,-0.2352,-0.3271,9.499,49.5915,0.3471,-0.4046,-0.2779,-38.9865
16:23:26:178,-0.4832,-0.0282,9.1169,49.7938,0.5227,-0.3492,-0.4099,-38.7621
16:23:26:195,-0.7637,0.2112,8.1295,49.8691,0.7772,-0.2832,-0.4621,-38.5276
16:23:26:216,-1.0079,0.4322,6.9566,49.9884,0.939,-0.1938,-0.3886,-38.2801
16:23:26:234,-0.8551,0.5403,5.9998,50.1188,0.9784,-0.1011,-0.2278,-38.0222
16:23:26:255,-0.6596,0.7499,5.3533,50.2749,0.972,-0.0692,-0.083,-37.7588
16:23:26:273,-0.5418,1.1656,5.0199,50.2339,0.8858,-0.099,-0.0117,-37.4982
16:23:26:293,-0.5827,1.7929,5.0035,50.5631,0.691,-0.1554,-0.0341,-37.2438
16:23:26:317,-0.542,2.1787,5.4399,50.6229,0.3801,-0.2108,-0.0884,-36.9962
16:23:26:334,-0.5042,2.3823,6.4035,50.574,0.017,-0.2885,-0.1437,-36.7557
16:23:26:354,-0.8678,2.6233,7.8754,50.554,-0.2672,-0.2459,-0.1352,-36.5197
16:23:26:373,-1.4374,2.9166,9.4012,50.6081,-0.3662,-0.0639,-0.0096,-36.2859
16:23:26:393,-1.6708,3.1569,10.3432,50.6422,-0.4099,0.1086,0.148,-36.0558
16:23:26:415,-1.8037,3.3609,11.2583,51.0326,-0.5334,0.0692,0.2427,-35.8374
16:23:26:434,-1.5114,2.7498,12.6353,51.3201,-0.6643,-0.2736,0.2779,-35.6369
16:23:26:454,-1.3854,1.551,14.6745,51.4901,-0.6803,-0.5302,0.3322,-35.4586
16:23:26:473,-1.6074,1.4917,16.2905,51.5336,-0.2449,-0.198,0.5834,-35.2965
16:23:26:506,-1.1717,1.5882,15.8192,51.7175,0.4823,0.214,0.7804,-35.1478
16:23:26:516,-0.5977,0.9942,13.9804,51.6898,0.7729,0.0011,0.6526,-35.0251
16:23:26:533,-0.7525,0.1275,12.5277,51.6674,0.8496,-0.1927,0.4706,-34.9325
16:23:26:553,-1.2713,0.0283,10.8667,51.8031,1.004,-0.2065,0.4631,-34.9325
16:23:26:577,-1.5834,0.2887,9.1709,51.9902,0.8815,-0.3322,0.5419,-34.9325
16:23:26:593,-1.1107,0.31,8.066,51.8543,0.527,-0.4152,0.6484,-34.9325
16:23:26:614,-0.2422,0.2842,7.4283,52.1756,0.1533,-0.3098,0.6303,-34.9325
16:23:26:633,0.3473,0.3663,7.1935,52.381,-0.1427,-0.1703,0.4567,-34.9325
16:23:26:653,0.4755,0.4476,7.0786,52.3928,-0.2598,-0.0522,0.2342,-34.9325
16:23:26:676,0.1825,0.4979,6.6964,52.5814,-0.2129,0.2002,0.0894,-34.9325
16:23:26:693,-0.0922,0.3876,5.9777,52.5509,-0.1395,0.625,0.0948,-34.9325
16:23:26:713,-0.3935,0.3716,5.5165,52.4761,-0.1608,1.0029,0.165,-34.9325
16:23:26:733,-0.8409,0.7189,5.2582,52.6567,-0.2459,1.1615,0.264,-34.9325
16:23:26:753,-1.0046,1.1184,5.4782,52.8711,-0.3992,0.89,0.33,-34.9325
16:23:26:775,-0.8672,1.2424,6.59,52.7637,-0.5589,0.197,0.3311,-34.9325
16:23:26:793,-0.501,1.1172,8.1532,52.9891,-0.5941,-0.494,0.2938,-34.9325
16:23:26:814,-0.2322,1.0197,9.5148,52.957,-0.4099,-0.6888,0.2023,-35.0392
16:23:26:833,-0.1364,1.3014,10.1153,53.0039,-0.1341,-0.2694,0.1203,-35.1461
16:23:26:853,0.1046,1.266,9.8673,53.2933,-0.0468,0.2236,0.0138,-35.2465
16:23:26:873,0.0757,1.555,10.0003,53.5532,-0.3343,0.2342,-0.1884,-35.3425
16:23:26:893,-0.7403,2.5246,11.2677,53.5761,-0.5898,0.0948,-0.2949,-35.4348
16:23:26:914,-0.977,2.5334,12.3868,53.4997,-0.5142,-0.0266,-0.2108,-35.4348
16:23:26:933,-0.8167,2.2523,13.0288,53.1782,-0.4301,0.0021,-0.1416,-35.4348
16:23:26:953,-0.8809,2.5269,13.7331,53.2862,-0.4865,-0.0011,-0.1341,-35.4348
16:23:26:974,-0.277,1.6001,14.9005,53.0059,-0.6069,-0.3556,-0.2385,-35.4348
16:23:26:993,-0.1587,0.1775,16.0733,53.1024,-0.3652,-0.5888,-0.4269,-35.4348
16:23:27:015,-0.5736,-0.7128,15.2359,53.2166,0.4216,-0.2832,-0.4003,-35.4348
16:23:27:034,-0.8929,-0.9789,12.7417,53.5746,0.8347,-0.0021,-0.2076,-35.4348
16:23:27:055,-0.7559,-0.7311,10.6015,53.8279,0.6569,0.0703,0,-35.4348
16:23:27:076,-0.2313,-0.1971,9.6911,53.9868,0.2214,0.0979,0.1299,-35.4348
16:23:27:094,0.2183,0.4309,9.3861,54.1771,0.0277,0.3066,0.0852,-35.4348
16:23:27:115,0.2968,0.7127,8.5459,54.3228,0.2491,0.6005,-0.0437,-35.4348
16:23:27:134,0.2192,0.8391,7.1711,54.6809,0.527,0.6633,-0.1767,-35.4348
16:23:27:153,-0.0695,0.9985,6.0687,54.6159,0.6058,0.428,-0.2885,-35.4348
16:23:27:178,-0.3791,1.1495,5.5549,54.7849,0.6005,0.1097,-0.2928,-35.4348
16:23:27:194,-0.4212,1.2958,5.4824,54.6589,0.6526,-0.1075,-0.1746,-35.4348
16:23:27:215,-0.1154,1.3578,5.575,54.7263,0.7016,-0.1852,-0.0969,-35.4348
16:23:27:234,0.1403,1.4358,5.8236,54.3233,0.5877,-0.378,-0.1938,-35.4348
16:23:27:254,-0.0508,1.7841,6.5174,54.2007,0.2906,-0.6973,-0.3801,-35.4348
16:23:27:274,-0.5818,2.0527,7.605,54.2486,0.0958,-0.9944,-0.4642,-35.4348
16:23:27:293,-0.7742,1.8544,8.442,54.2023,0.0245,-0.9656,-0.4216,-35.4348
16:23:27:314,-0.9334,1.89,9.0711,54.2522,-0.0405,-0.3897,-0.2864,-35.4348
16:23:27:334,-1.3003,2.1504,9.4097,54.2573,-0.0841,0.4141,-0.0788,-35.4348
16:23:27:354,-1.8896,2.6936,9.8361,54.095,-0.0692,0.6037,0.2119,-35.3426
16:23:27:375,-2.049,3.0221,10.1002,54.2164,-0.049,0.2906,0.5568,-35.3426
16:23:27:394,-1.2046,2.6346,10.3401,54.2194,-0.2364,-0.0554,0.7048,-35.3426
16:23:27:414,-0.5264,2.0429,11.5522,54.0518,-0.6005,0.0756,0.6345,-35.3426
16:23:27:434,-1.1504,1.89,13.3049,54.3469,-0.2736,0.4535,0.6377,-35.3426
16:23:27:453,-1.7206,1.8933,12.6649,54.3507,0.4535,0.4812,0.8783,-35.3426
16:23:27:474,-1.3327,1.7669,10.8631,54.1319,0.5738,-0.131,0.8986,-35.3426
16:23:27:494,-0.6976,1.2125,10.4537,54.0556,-0.0096,-0.7772,0.6037,-35.3426
16:23:27:514,-0.306,0.6199,11.7564,53.7251,-0.4855,-0.8528,0.2789,-35.4502
16:23:27:534,-0.4062,0.3244,12.5777,53.6093,-0.4195,-0.5653,0.0543,-35.5658
16:23:27:554,-0.4508,0.5491,11.8019,53.8723,-0.1863,-0.2129,-0.0575,-35.6749
16:23:27:573,0.134,0.3451,10.6886,54.0264,-0.1884,-0.1757,-0.2236,-35.7749
16:23:27:593,0.3567,0.6241,10.1644,53.8735,-0.395,-0.3673,-0.4791,-35.868
16:23:27:614,-0.0171,0.832,9.7897,53.8272,-0.2566,-0.23,-0.6494,-35.868
16:23:27:633,-0.5001,0.7967,8.4202,53.7787,0.1533,0.1725,-0.6654,-35.868
16:23:27:653,-0.5721,0.6168,6.7086,53.3692,0.444,0.7123,-0.5494,-35.868
16:23:27:677,-0.6052,0.7008,5.3582,53.1575,0.4429,1.0295,-0.3907,-35.868
16:23:27:693,-0.9137,1.2012,4.963,53.1317,0.264,0.8421,-0.2417,-35.868
16:23:27:714,-1.0301,1.5781,5.3265,53.1323,0.1703,0.1735,-0.0543,-35.868
16:23:27:736,-0.5433,1.7215,5.9533,52.975,0.1948,-0.411,-0.0798,-35.868
16:23:27:753,-0.0301,1.5614,6.5911,52.6155,0.1278,-0.4418,-0.4003,-35.868
16:23:27:774,-0.1044,1.4932,7.5434,52.5744,-0.0096,-0.198,-0.659,-35.868
16:23:27:793,-0.397,1.463,8.7277,52.0199,0.1799,-0.0053,-0.79,-35.868
16:23:27:814,-0.9186,2.0974,8.7459,51.4999,0.2747,-0.2023,-0.7165,-35.868
16:23:27:833,-0.7226,2.3315,8.967,51.527,0.0905,-0.1618,-0.724,-35.7558
16:23:27:854,-0.7954,2.3855,9.688,51.6473,-0.4099,0.0905,-0.7442,-35.6219
16:23:27:874,-1.1822,2.3619,11.1384,51.5574,-0.8975,0.4631,-0.4376,-35.4645
16:23:27:893,-1.287,2.1021,12.8648,51.4109,-0.9326,0.7027,-0.1597,-35.2919
16:23:27:914,-1.5645,2.2567,13.5073,51.2458,-0.7005,1.1221,0.1107,-35.1147
16:23:27:934,-1.0919,1.8866,13.901,51.0775,-0.6782,1.0487,0.3449,-34.9404
16:23:27:954,-0.5962,1.0875,15.0051,50.826,-0.6611,0.1512,0.1757,-34.7919
16:23:27:975,-0.5927,-0.3246,14.509,50.6787,-0.0586,-0.3396,-0.0394,-34.6675
16:23:27:993,-1.0747,-0.8891,12.6479,50.6209,0.6303,-0.3087,-0.0958,-34.5441
16:23:28:015,-1.2146,-0.4212,10.7833,51.0534,0.8432,-0.5632,0.05,-34.418
16:23:28:034,-0.426,0.1166,9.3507,51.1793,0.6005,-0.9358,0.1416,-34.2988
16:23:28:054,0.2574,0.6309,8.7896,51.7215,0.1735,-1.1871,0.0128,-34.1925
16:23:28:074,0.567,1.2038,8.9097,52.0824,-0.0681,-1.202,-0.23,-34.0949
16:23:28:095,0.6384,1.3252,8.5241,52.3588,0.0043,-0.8719,-0.5142,-33.9949
16:23:28:115,0.3088,1.3026,7.3773,52.5154,0.099,-0.346,-0.7335,-33.8739
16:23:28:134,-0.1734,1.43,6.6919,52.3213,0.0458,-0.1075,-0.7399,-33.7254
16:23:28:154,-0.3399,1.4682,6.6294,52.0435,-0.0224,-0.2332,-0.6207,-33.5556
16:23:28:177,-0.2195,1.3142,6.6424,52.1432,0.0213,-0.3407,-0.5291,-33.3718
16:23:28:194,-0.0906,1.109,6.6228,51.6673,0.1065,-0.2172,-0.4706,-33.1724
16:23:28:214,-0.0676,1.2259,6.6251,51.4078,0.148,-0.0607,-0.3897,-32.9597
16:23:28:235,0.1891,1.3787,7.0777,51.6038,0.1778,0.1459,-0.264,-32.737
16:23:28:256,0.0239,2.0101,7.743,51.5622,0.1011,-0.0075,-0.1075,-32.5104
16:23:28:274,-0.0551,2.7359,8.5552,51.2199,0.0202,-0.2449,0.0809,-32.2895
16:23:28:293,0.0629,3.0952,9.3852,51.0767,0.0649,-0.4429,0.0586,-32.08
16:23:28:313,-0.0003,3.3702,10.3151,50.922,0.082,-0.5142,-0.0224,-31.8814
16:23:28:334,-0.138,3.3894,11.4279,50.5635,0.0841,-0.3897,-0.0362,-31.6878
16:23:28:353,0.3133,2.6675,12.3541,50.325,0.0405,-0.412,-0.0319,-31.4975
16:23:28:373,0.5999,2.2802,13.6106,50.2448,-0.0969,-0.5813,0.0106,-31.3146
16:23:28:394,0.417,2.5985,14.5965,50.3749,-0.0021,-0.3311,0.2076,-31.1378
16:23:28:417,0.3158,2.5165,14.077,50.4029,0.5195,0.4599,0.4269,-30.9624
16:23:28:433,0.0811,1.7414,12.2556,50.3908,0.906,0.5728,0.3375,-30.7962
16:23:28:453,-0.4306,1.2237,10.7333,50.3873,0.7346,-0.1554,0.0532,-30.6544
16:23:28:473,-0.7509,0.8314,10.7845,50.1428,0.3056,-1.0466,-0.033,-30.537
16:23:28:514,-0.4972,0.2352,11.6524,50.5636,0.131,-1.3085,0.0181,-30.4339
16:23:28:516,0.04,-0.074,11.5494,50.7095,0.2395,-0.9326,0.0809,-30.3334
16:23:28:533,0.2918,0.1636,10.6312,50.9459,0.3396,-0.4173,0.131,-30.2316
16:23:28:553,0.3225,0.6972,9.4804,51.2121,0.3556,0.0926,0.164,-30.1316
16:23:28:577,0.1287,1.1583,8.4181,51.2928,0.3056,0.445,0.1597,-30.0347
16:23:28:593,-0.091,1.3276,7.3466,51.3257,0.2896,0.7346,0.1948,-30.0347
16:23:28:614,-0.2931,1.2872,6.2913,51.4078,0.3811,0.9465,0.2694,-30.0347
16:23:28:635,-0.2394,1.2974,5.2277,51.5691,0.4738,1.0231,0.3822,-30.0347
16:23:28:654,-0.1306,1.3778,4.6856,51.8886,0.4269,0.8911,0.4557,-30.0347
16:23:28:677,-0.1523,1.5155,4.6765,51.9093,0.2151,0.692,0.5015,-30.0347
16:23:28:694,-0.0355,1.4598,5.1174,51.816,-0.0884,0.7783,0.5898,-30.0347
16:23:28:715,-0.0299,1.6158,6.1056,51.8167,-0.4514,0.9412,0.6675,-30.0347
16:23:28:734,-0.2031,2.2812,7.6595,51.7088,-0.7559,0.7921,0.5643,-30.0347
16:23:28:754,0.0259,2.4402,9.1723,51.46,-0.7037,0.3939,0.3364,-30.0347
16:23:28:774,0.1821,2.1881,9.865,51.4784,-0.3609,0.1363,0.0192,-30.0347
16:23:28:794,-0.107,1.908,9.8941,51.349,-0.0671,0.1065,-0.1033,-30.0347
16:23:28:815,-0.6871,2.2652,10.0286,51.2688,-0.1256,0.1427,0.0096,-30.0347
16:23:28:834,-1.0237,3.0097,10.921,51.0878,-0.3226,0.3024,0.1821,-30.0347
16:23:28:854,-0.7876,3.4852,11.7913,50.5645,-0.4099,0.4812,0.2523,-30.0347
16:23:28:874,-0.7122,4.1324,12.1929,49.8426,-0.3247,0.6569,0.2736,-30.0347
16:23:28:895,-0.4202,4.2673,11.9032,49.2486,-0.1991,0.7197,0.2342,-30.0347
16:23:28:914,0.6872,2.8471,12.4545,49.1602,-0.3961,-0.1682,-0.1459,-30.1257
16:23:28:934,0.4909,1.5023,13.9855,48.8692,-0.3897,-0.9614,-0.4865,-30.2303
16:23:28:954,-0.0017,-0.0971,13.9864,49.0388,0.1011,-0.6782,-0.5962,-30.2303
16:23:28:975,-0.9568,-0.3829,12.6284,49.7645,0.4131,-0.2811,-0.428,-30.2303
16:23:28:995,-1.2764,0.092,11.168,50.3088,0.3024,-0.2406,-0.0075,-30.2303
16:23:29:015,-0.4327,0.4783,10.72,50.6695,0.016,-0.2704,0.2843,-30.2303
16:23:29:033,0.4362,0.7996,10.3455,51.0639,-0.1065,0.116,0.3599,-30.2303
16:23:29:056,0.5674,1.2006,9.3216,51.3492,-0.0777,0.8922,0.2545,-30.2303
16:23:29:074,0.2873,1.3105,7.9831,51.2182,0.0096,1.6364,0.1916,-30.2303
16:23:29:094,-0.2368,1.9875,6.8725,51.1159,-0.0309,1.8344,0.0681,-30.2303
16:23:29:115,-0.7555,2.298,6.4293,51.3778,-0.0096,1.5491,-0.0426,-30.2303
16:23:29:135,-0.8992,1.7838,5.8686,51.2081,0.1278,0.971,-0.0724,-30.2303
16:23:29:154,-0.8383,1.5456,5.8069,51.0419,0.2087,0.2321,0.0383,-30.2303
16:23:29:177,-0.5036,1.7181,6.121,50.9521,0.329,-0.3503,0.1597,-30.2303
16:23:29:194,0.1693,2.0768,6.5201,50.4047,0.2853,-0.7176,0.0937,-30.2303
16:23:29:215,0.4152,2.3867,7.4823,50.252,0.1341,-0.8656,-0.1714,-30.2303
16:23:29:234,-0.0788,2.3441,8.3754,49.9035,0.131,-0.8751,-0.4056,-30.2303
16:23:29:253,-0.6513,2.2869,8.6097,49.9541,0.1427,-0.6196,-0.4067,-30.2303
16:23:29:273,-1.0899,2.5987,8.7539,49.8697,0.0181,-0.231,-0.1757,-30.2303
16:23:29:293,-1.3925,3.2332,9.7412,49.7104,-0.165,-0.1065,0.0138,-30.2303
16:23:29:314,-1.6073,3.495,10.8803,49.6121,-0.1916,-0.2332,0.1373,-30.2303
16:23:29:334,-1.4032,2.9567,11.6659,49.3871,-0.1884,-0.461,0.2278,-30.2303
16:23:29:353,-1.0558,2.484,12.7049,49.2285,-0.2566,-0.5078,0.2906,-30.2303
16:23:29:375,-1.1498,2.2995,13.7843,49.3973,0.0181,-0.1416,0.4312,-30.2303
16:23:29:393,-1.3019,2.3306,12.755,49.145,0.577,0.2981,0.5866,-30.2303
16:23:29:415,-1.3285,2.1572,10.881,49.1337,0.6761,0.1831,0.4834,-30.2303
16:23:29:433,-1.5706,1.7212,10.0019,48.9875,0.4589,-0.263,0.2938,-30.3378
16:23:29:454,-1.7048,1.4957,9.5841,48.8212,0.2502,-0.3833,0.2246,-30.4591
16:23:29:474,-1.4126,1.3017,9.2921,48.9671,-0.0447,-0.3109,0.1192,-30.586
16:23:29:494,-1.1184,1.1161,9.6333,48.9895,-0.4269,-0.3833,-0.1107,-30.7162
16:23:29:514,-0.8288,0.8601,10.2306,49.0365,-0.6122,-0.3833,-0.3183,-30.8428
16:23:29:534,-0.925,0.6793,10.1896,49.0807,-0.4589,-0.0937,-0.3982,-30.9534
16:23:29:555,-1.0513,0.4561,8.9892,49.3166,-0.1437,0.3673,-0.3109,-30.9534
16:23:29:574,-1.1853,0.4911,7.466,49.189,0.0447,0.6399,-0.1512,-30.9534
16:23:29:594,-1.2432,0.7621,6.3497,49.2611,0.1054,0.5983,0.0756,-30.9534
16:23:29:614,-1.0338,1.1684,5.8159,49.1756,0.1874,0.4173,0.2853,-30.9534
16:23:29:633,-0.5849,1.3473,5.3316,49.2076,0.2587,0.2385,0.3407,-30.9534
16:23:29:653,-0.3246,1.6282,4.9667,48.9482,0.1395,0.1448,0.2491,-30.9534
16:23:29:677,-0.6218,2.5998,5.5123,48.7892,-0.2587,-0.0713,0.0426,-31.0513
16:23:29:693,-1.2085,3.9354,7.2583,48.7198,-0.691,-0.4344,-0.2438,-31.1571
16:23:29:714,-1.2392,4.3121,9.905,48.2743,-0.8134,-0.8837,-0.5802,-31.2611
16:23:29:733,-0.6582,3.3385,11.8806,48.2255,-0.4514,-0.8208,-0.9731,-31.2611
16:23:29:753,-0.4551,2.0514,11.9038,48.159,0.05,-0.1746,-1.2116,-31.2611
16:23:29:775,-0.7017,1.3253,11.3452,47.6779,0.1224,0.2129,-1.1296,-31.2611
16:23:29:794,-0.9444,1.1697,11.7024,47.7009,-0.0277,0.3471,-0.6686,-31.2611
16:23:29:814,-0.9495,1.3036,12.2865,47.5536,0.1033,0.609,0.1459,-31.2611
16:23:29:836,-0.6564,2.1514,12.2614,47.4088,0.5089,0.6462,0.8645,-31.2611
16:23:29:855,-0.0107,3.8349,11.8617,47.7844,0.8613,0.3077,1.1296,-31.2611
16:23:29:873,1.3893,4.1778,10.828,47.5468,0.8006,-0.0852,0.6824,-31.2611
16:23:29:894,2.4051,2.2255,10.6813,47.2969,0.2033,-0.7772,-0.3673,-31.2611
16:23:29:918,1.4165,0.3876,11.583,47.1458,-0.1821,-0.8059,-1.104,-31.2611
16:23:29:935,0.0476,-0.5503,11.3197,46.8897,-0.1299,-0.0117,-1.1764,-31.2611
16:23:29:954,-0.8574,-0.4004,10.4089,46.9477,-0.181,0.4706,-0.9199,-31.2611
16:23:29:973,-0.5881,0.0658,9.8605,47.3797,-0.5227,0.4003,-0.6942,-31.155
16:23:29:994,0.1105,0.3065,10.3792,47.7661,-0.8326,0.0564,-0.7474,-31.0331
16:23:30:015,0.274,0.4745,11.2361,48.3271,-0.7165,-0.132,-0.9635,-30.8959
16:23:30:034,-0.2672,0.641,11.0247,48.5708,-0.1512,-0.0884,-1.0838,-30.7305
16:23:30:054,-0.8385,0.7322,9.4512,48.6742,0.4322,0.0628,-1.0018,-30.5281
16:23:30:074,-1.2237,0.9948,7.783,48.7454,0.7335,0.0841,-0.8102,-30.2918
16:23:30:094,-1.1967,1.2605,6.7808,48.4634,0.8262,0.0458,-0.5951,-30.0306
16:23:30:115,-1.028,1.5157,6.2307,48.5036,0.8368,0.1246,-0.4205,-29.7528
16:23:30:133,-0.5142,1.5236,5.8131,48.3031,0.8794,0.2417,-0.3375,-29.4633
16:23:30:154,-0.3068,1.6828,5.4067,48.1143,0.8656,0.1959,-0.3705,-29.1663
16:23:30:177,-0.7289,2.7326,5.551,47.9483,0.6399,-0.0958,-0.4291,-28.8634
16:23:30:193,-1.0843,3.5051,6.4703,48.1682,0.3407,-0.4716,-0.5419,-28.5608
16:23:30:214,-1.4013,3.8558,7.8262,48.2711,0.0458,-0.8177,-0.6611,-28.2544
16:23:30:234,-1.5884,3.856,9.4262,48.3766,-0.0979,-0.8443,-0.6494,-27.9381
16:23:30:254,-1.4459,3.4143,10.6636,48.5526,-0.0266,-0.5174,-0.5472,-27.605
16:23:30:274,-1.5197,3.2229,11.4125,48.437,0.1586,-0.2023,-0.4014,-27.2556
16:23:30:294,-1.9141,3.178,11.4565,48.5284,0.3396,-0.1033,-0.2246,-26.8974
16:23:30:316,-2.0265,3.0889,11.4318,48.2679,0.3173,-0.1746,-0.0032,-26.54
16:23:30:334,-2.1751,2.9027,12.2898,48.2465,0.2672,-0.1139,0.2832,-26.1936
16:23:30:354,-1.8294,3.02,12.3913,48.3815,0.5579,0.33,0.5834,-25.86
16:23:30:374,-2.003,3.3101,11.4748,48.4708,1.0114,0.7335,0.7453,-25.5473
16:23:30:393,-1.9968,3.0485,9.9126,48.6347,1.152,0.4759,0.6345,-25.2653
16:23:30:415,-2.077,2.6102,8.7381,48.5416,0.8177,-0.2576,0.3705,-25.0226
16:23:30:434,-1.9935,1.9401,8.7353,48.6569,0.3407,-0.6207,0.2236,-24.813
16:23:30:453,-1.8854,1.5789,9.0962,49.0147,0.1001,-0.4684,0.1789,-24.6203
16:23:30:474,-1.6258,1.5991,8.9881,49.0681,-0.0468,-0.0916,0.1884,-24.4357
16:23:30:525,-1.2778,1.7907,8.5456,49.3949,-0.3364,0.2236,0.1086,-24.2574
16:23:30:527,-1.2994,2.1462,8.7201,49.5143,-0.7123,0.313,-0.0639,-24.0879
16:23:30:534,-1.6635,2.1545,8.8734,49.5898,-0.7506,0.5398,-0.1565,-23.9208
16:23:30:553,-2.1127,1.8419,8.2979,49.5243,-0.5078,0.7985,-0.0564,-23.7497
16:23:30:574,-2.2822,1.6961,7.2593,49.713,-0.2694,0.9252,0.2342,-23.5758
16:23:30:594,-2.1845,1.8377,6.4828,49.4609,-0.1224,0.8634,0.5334,-23.4156
16:23:30:614,-1.8197,2.1831,6.0388,49.9892,-0.0351,0.6963,0.7516,-23.2806
16:23:30:633,-1.3421,2.3212,5.7246,50.1139,0.0639,0.5526,0.84,-23.1787
16:23:30:653,-1.0482,2.4594,5.5414,50.4081,0.0788,0.3524,0.7453,-23.1787
16:23:30:677,-1.2401,2.8668,6,50.7127,-0.1278,-0.0277,0.56,-23.1787
16:23:30:694,-1.2748,3.0154,7.211,50.5231,-0.3737,-0.4184,0.4163,-23.1787
16:23:30:714,-1.1322,2.9393,8.8523,50.4607,-0.5238,-0.6548,0.3556,-23.1787
16:23:30:733,-0.7243,2.7749,10.3023,50.496,-0.3428,-0.3684,0.33,-23.1787
16:23:30:754,-0.5565,2.9007,10.613,50.2652,0.017,0.1672,0.2502,-23.1787
16:23:30:775,-0.7098,3.32,10.2398,50.1282,0.0415,0.3077,0.0873,-23.1787
16:23:30:794,-1.0495,3.8591,10.6338,50.2454,-0.2385,0.0979,-0.0916,-23.1787
16:23:30:815,-1.3931,4.2654,11.7362,50.1775,-0.3034,0.0586,-0.1086,-23.1787
16:23:30:833,-1.3694,4.1431,12.2748,49.9306,-0.0852,0.2417,-0.0202,-23.1787
16:23:30:853,-1.3996,4.3735,11.7012,49.8838,0.1852,0.5494,0.0617,-23.1787
16:23:30:878,-1.4113,4.7665,10.9347,49.8852,0.0735,0.6026,-0.0064,-23.1787
16:23:30:895,-1.0959,3.8609,11.6119,49.7293,-0.2832,0.0011,-0.2779,-23.1787
16:23:30:914,-1.1926,2.3473,12.7414,49.7858,-0.2321,-0.5068,-0.4035,-23.1787
16:23:30:933,-1.2146,1.0223,12.4099,49.5057,0.2619,-0.4024,-0.3886,-23.1787
16:23:30:953,-1.6869,0.9911,10.8289,49.3937,0.5621,-0.3002,-0.2417,-23.1787
16:23:30:975,-1.2783,1.3774,9.3272,49.3551,0.4205,-0.2843,0.0149,-23.1787
16:23:30:994,-0.1679,1.9575,8.6585,49.6531,0.1107,-0.3343,0.0096,-23.1787
16:23:31:015,0.649,2.1822,8.5636,49.7447,-0.1065,-0.2928,-0.2364,-23.1787
16:23:31:033,0.7601,1.9874,8.2354,50.1326,-0.0735,0.1789,-0.4855,-23.1787
16:23:31:055,0.0699,2.0905,7.4124,50.6005,0.1139,0.7996,-0.5802,-23.1787
16:23:31:075,-0.6832,2.7045,6.3238,50.3698,0.2864,0.9241,-0.5994,-23.1787
16:23:31:094,-0.5908,2.5804,5.645,49.9395,0.3237,0.4706,-0.576,-23.1787
16:23:31:114,-0.3722,2.3566,5.4523,50.1476,0.363,-0.2161,-0.5504,-23.0797
16:23:31:134,-0.2649,2.4709,5.367,50.043,0.4503,-0.6303,-0.6026,-22.9705
16:23:31:154,-0.3367,2.9013,5.3159,49.5565,0.3226,-0.7953,-0.6228,-22.8449
16:23:31:178,-0.0869,3.0305,6.1191,49.6996,-0.0617,-0.8943,-0.658,-22.7053
16:23:31:194,-0.1142,3.1418,7.8227,49.3498,-0.362,-0.8656,-0.7687,-22.5447
16:23:31:215,-0.4681,3.1908,9.3818,49.1894,-0.2023,-0.5983,-0.8496,-22.3623
16:23:31:233,-1.1414,3.2302,9.5874,49.53,0.1235,-0.0958,-0.8262,-22.1456
16:23:31:254,-2.0719,3.5575,9.4263,49.5614,0.2172,0.2257,-0.6888,-21.8966
16:23:31:275,-3.081,3.9652,9.6997,49.2419,0.1629,0.1629,-0.4493,-21.6265
16:23:31:294,-3.488,4.167,10.2108,49.5456,0.1874,-0.0788,-0.165,-21.3494
16:23:31:314,-3.2552,4.236,10.6362,49.3304,0.1075,-0.4834,0.0617,-21.079
16:23:31:334,-2.5422,3.9089,11.4607,49.2246,-0.0319,-0.4844,0.1938,-20.8224
16:23:31:353,-2.3723,3.8392,11.9159,49.3085,0.0394,0.0979,0.2789,-20.5752
16:23:31:376,-2.5409,3.4434,11.829,48.9609,0.1959,0.6154,0.3098,-20.3316
16:23:31:394,-2.7223,2.7554,11.637,48.9,0.1405,-0.1224,0.1405,-20.1082
16:23:31:414,-2.9257,1.9349,12.0219,48.743,0.0415,-0.6931,0.0926,-19.9129
16:23:31:434,-2.5205,1.1328,11.8499,48.3887,0.2726,-0.3034,0.2353,-19.7263
16:23:31:455,-2.3159,1.6895,10.7733,48.335,0.4333,-0.0735,0.3237,-19.5447
16:23:31:473,-1.5587,2.3178,9.0565,48.263,0.4078,-0.3194,0.2385,-19.3793
16:23:31:494,-1.2079,2.9496,8.0392,48.5687,0.1906,-0.7665,0.0053,-19.2338
16:23:31:515,-0.8183,2.7242,7.9881,48.3689,0.016,-0.9529,-0.115,-19.0998
16:23:31:534,-0.6798,2.6263,7.8644,48.3699,-0.0224,-0.7857,-0.0788,-18.9665
16:23:31:554,-0.8291,2.4301,7.6452,48.2891,-0.0564,-0.1512,-0.0532,-18.8272
16:23:31:574,-1.1011,2.6809,6.832,48.1777,0.0096,0.33,-0.0564,-18.6787
16:23:31:594,-1.5144,2.9206,5.8494,48.0391,0.0245,0.3567,-0.0479,-18.5278
16:23:31:614,-1.9264,2.7679,5.6088,48.3413,-0.083,0.1427,0.0905,-18.3815
16:23:31:633,-2.0384,2.4284,6.5622,48.4806,-0.131,-0.2002,0.3205,-18.2485
16:23:31:654,-1.7283,2.3869,7.8537,48.4225,-0.0383,-0.4163,0.4653,-18.1362
16:23:31:677,-0.8851,2.3459,8.8874,48.2938,-0.0224,-0.131,0.4684,-18.1362
16:23:31:694,-0.3841,2.4,9.2606,48.154,0.0011,0.2076,0.2459,-18.1362
16:23:31:715,-0.7631,2.7703,9.1129,47.8789,0.0607,0.4046,0.1171,-18.1362
16:23:31:735,-0.9622,3.0316,8.453,47.6592,0.2747,0.2268,0.1927,-18.1362
16:23:31:753,-0.8716,3.5211,7.8547,47.439,0.3737,-0.2321,0.264,-18.1362
16:23:31:775,-0.737,4.2892,7.9088,47.1795,0.1246,-0.527,0.1927,-18.1362
16:23:31:794,-0.9133,4.6823,8.6741,47.0085,-0.1501,-0.264,0.0926,-18.1362
16:23:31:815,-1.2065,4.6756,9.7217,46.9978,-0.3556,0.082,0.0586,-18.1362
16:23:31:836,-1.197,4.4268,11.2567,47.0034,-0.3119,0.3151,0.1022,-18.1362
16:23:31:855,-1.1073,4.6314,11.3367,47.0608,-0.1341,0.3737,-0.0117,-18.1362
16:23:31:875,-1.0023,4.2144,11.2694,46.8946,-0.1991,0.1437,-0.2204,-18.1362
16:23:31:893,-1.0191,2.6915,12.0756,46.827,-0.3599,-0.1576,-0.4056,-18.1362
16:23:31:916,-1.2555,1.4224,12.3787,46.3735,-0.1522,0.0671,-0.2949,-18.1362
16:23:31:934,-1.2986,1.1853,11.137,46.4106,0.1778,0.3865,0.0011,-18.1362
16:23:31:954,-0.9074,1.6468,9.0675,46.2082,0.2214,0.3343,0.2406,-18.1362
16:23:31:973,-0.312,1.9135,7.4549,46.0312,-0.1959,-0.0798,0.2715,-18.1362
16:23:31:993,0.1083,2.2641,7.5212,45.954,-0.741,-0.3183,0.2033,-18.1362
16:23:32:015,0.1802,2.5103,8.288,46.1335,-0.9412,-0.3247,0.0628,-18.1362
16:23:32:035,0.1068,2.633,8.4704,46.0789,-0.8123,-0.1097,-0.0809,-18.1362
16:23:32:054,-0.203,2.7373,8.1209,46.0651,-0.6228,0.2715,-0.1586,-18.1362
16:23:32:074,-0.8208,2.4154,7.523,46.2932,-0.5121,0.7293,-0.132,-18.1362
16:23:32:093,-1.2063,2.6356,7.4309,46.3453,-0.4163,0.659,0.0809,-18.1362
16:23:32:113,-0.9349,2.6436,8.0225,46.0748,-0.2576,0.0138,0.2214,-18.1362
16:23:32:133,-0.113,2.3167,8.8151,45.8594,-0.0415,-0.5015,0.2033,-18.1362
16:23:32:154,0.5036,1.6617,9.2468,45.8607,0.1586,-0.3961,0.1129,-18.1362
16:23:32:178,0.2875,1.7969,9.1061,45.6036,0.2545,0.0511,0.0756,-18.1362
16:23:32:194,-0.2004,2.6144,8.8882,45.2882,0.2811,0.3343,0.1597,-18.1362
16:23:32:216,-0.1551,3.1802,8.8086,44.8379,0.3481,0.247,0.2353,-18.1362
16:23:32:234,-0.0181,3.4877,8.5319,44.6382,0.4653,0.0224,0.2395,-18.1362
16:23:32:253,-0.1685,3.9061,8.0375,44.5275,0.4865,-0.0628,0.2406,-18.1362
16:23:32:273,-0.7183,4.4009,7.8886,44.3665,0.4163,0.0053,0.2885,-18.1362
16:23:32:295,-1.161,4.8422,8.0123,44.1206,0.296,-0.0596,0.3577,-18.1362
16:23:32:314,-1.0316,4.9959,8.2719,44.1804,0.0681,-0.2704,0.3769,-18.1362
16:23:32:335,-0.6589,4.9052,9.3958,43.9777,-0.3439,-0.5664,0.231,-18.1362
16:23:32:354,-0.6499,4.2906,11.5805,44.0297,-0.51,-0.5526,0.0319,-18.1362
16:23:32:374,-0.9471,3.3523,12.8756,44.0533,-0.1405,0.1299,-0.0394,-18.1362
16:23:32:394,-1.5995,3.08,11.76,44.1072,0.2843,0.6228,0.0117,-18.1362
16:23:32:415,-1.6617,2.1023,10.9033,43.9158,0.0724,-0.0011,-0.1011,-18.1362
16:23:32:434,-1.6488,0.9905,11.7402,43.6043,-0.197,-0.7123,-0.2087,-18.1362
16:23:32:453,-1.3643,0.0274,12.179,43.5607,-0.0905,-0.6228,-0.1714,-18.1362
16:23:32:474,-1.2564,0.1819,11.3962,43.4843,0.0735,-0.1906,-0.0617,-18.1362
16:23:32:494,-1.1007,0.9566,9.5616,43.3104,0.0362,0.2161,0.0458,-18.1362
16:23:32:543,-0.8695,1.9177,8.0648,43.3659,-0.2736,0.3705,-0.0149,-18.1362
16:23:32:545,-1.1,2.7979,7.5841,43.3699,-0.5589,0.297,-0.1373,-18.1362
16:23:32:553,-1.4458,3.1823,7.205,43.2425,-0.6015,0.2534,-0.2204,-18.1362
16:23:32:577,-1.5751,3.066,7.1754,43.1962,-0.51,0.1906,-0.1576,-18.1362
16:23:32:593,-1.4792,2.7577,7.1667,43.0603,-0.2715,0.0415,-0.0351,-18.1362
16:23:32:614,-1.3985,2.7904,6.5572,43.0487,0.0266,-0.2321,0.0873,-18.1362
16:23:32:633,-1.2812,2.6937,6.5244,43.1737,0.2119,-0.6281,0.1278,-18.1362
16:23:32:654,-0.9672,2.3813,6.9952,43.2519,0.264,-0.8038,0.0564,-18.1362
16:23:32:677,-0.8722,2.0832,7.9482,43.5406,0.1395,-0.5387,-0.0021,-18.1362
16:23:32:693,-0.5396,1.4915,9.2295,43.536,0.0298,0.0149,0.099,-18.1362
16:23:32:716,-0.1417,0.7971,10.1771,43.6683,0.1554,0.7123,0.33,-18.1362
16:23:32:734,-0.2239,1.5582,10.1188,43.6586,0.4472,0.9805,0.4642,-18.1362
16:23:32:754,-0.3506,2.8802,9.0611,43.3175,0.6175,0.5781,0.3268,-18.1362
16:23:32:773,-0.5304,3.6506,8.2277,43.0796,0.4834,0.0649,0.0458,-18.1362
16:23:32:794,-1.2345,3.8492,8.1673,42.9811,0.0671,-0.0745,-0.2161,-18.1362
16:23:32:815,-2.194,3.996,9.418,42.6277,-0.3641,0.2768,-0.2087,-18.1362
16:23:32:834,-2.7575,4.2154,10.6166,42.5374,-0.5941,0.6516,-0.0671,-18.1362
16:23:32:853,-2.8878,4.3562,11.3084,42.4526,-0.5696,0.7463,0.082,-18.1362
16:23:32:874,-2.8655,4.9003,11.4957,42.633,-0.3705,0.5281,0.2459,-18.1362
16:23:32:894,-2.2793,4.2676,11.7479,42.5244,-0.363,0.0479,0.0916,-18.1362
16:23:32:914,-2.5902,2.6653,13.7995,42.5328,-0.5142,-0.8219,-0.4014,-18.1362
16:23:32:934,-2.6723,0.3778,15.5128,42.7726,-0.2044,-0.6665,-0.3215,-18.1362
16:23:32:954,-1.984,-0.665,13.9175,42.6619,0.3226,0.5941,0.2608,-18.1362
16:23:32:975,-0.5,0.3879,10.9514,42.8043,0.5217,1.2254,0.9731,-18.1362
16:23:32:994,2.0251,1.2846,8.7054,42.9014,0.4716,0.8017,1.1264,-18.1362
16:23:33:014,3.4458,1.697,8.1375,43.116,0.3662,-0.2779,0.5792,-18.2454
16:23:33:033,2.7132,1.8723,7.781,43.4118,0.4557,-0.5707,-0.1256,-18.3865
16:23:33:054,1.007,1.8839,6.4767,43.8487,0.5281,-0.1629,-0.3396,-18.5185
16:23:33:076,-0.2215,2.1885,5.2452,44.1709,0.3758,0.2055,-0.0692,-18.6267
16:23:33:094,-0.4417,2.6811,4.7567,44.5732,0.1288,0.0277,0.2321,-18.7262
16:23:33:114,0.1499,2.9809,5.3465,44.7806,0.0426,-0.4716,0.2172,-18.8369
16:23:33:134,0.8048,2.8023,6.0725,44.9151,0.1363,-0.7665,-0.0447,-18.9591
16:23:33:154,1.0063,2.5828,6.6522,45.1977,0.1416,-0.6484,-0.3247,-19.0783
16:23:33:178,0.7606,2.3421,7.3892,45.1736,-0.0468,-0.2651,-0.4961,-19.18
16:23:33:194,0.3606,2.2279,8.5106,45.1286,-0.2481,0.0309,-0.4929,-19.18
16:23:33:214,-0.0682,2.562,9.6486,45.6242,-0.2406,0.0905,-0.4163,-19.18
16:23:33:233,-0.3702,3.2089,10.2781,45.42,0.033,0.1288,-0.263,-19.18
16:23:33:253,-0.39,3.8399,10.2813,45.3427,0.362,0.0149,-0.181,-19.18
16:23:33:274,-0.6497,4.608,9.9678,45.4432,0.4727,-0.0639,-0.1948,-19.18
16:23:33:294,-0.5553,4.4749,9.9078,45.3626,0.3109,0.0181,-0.1831,-19.18
16:23:33:314,-0.3955,4.253,10.5462,45.6215,0.0862,0.1107,-0.1341,-19.18
16:23:33:333,-0.073,4.1178,11.2029,45.6221,0.0628,0.2598,-0.0671,-19.18
16:23:33:353,-0.065,4.4954,11.0613,45.6911,0.2811,0.4472,-0.0564,-19.18
16:23:33:374,-0.135,4.9398,9.8855,45.8106,0.5302,0.3748,-0.1895,-19.18
16:23:33:394,-0.0232,4.0176,9.1662,45.7449,0.3332,-0.6335,-0.6803,-19.18
16:23:33:414,-0.3578,2.5655,10.3027,45.8036,-0.1341,-1.3127,-1.1551,-19.18
16:23:33:434,-1.2247,1.1873,11.7431,46.316,-0.2853,-0.807,-1.2936,-19.18
16:23:33:455,-2.3485,0.6205,11.6495,46.3744,-0.1416,-0.0085,-1.186,-19.0625
16:23:33:473,-3.7163,1.3355,10.1623,46.5414,-0.0234,0.4929,-0.922,-18.8925
16:23:33:494,-4.1573,1.9476,8.5648,46.6716,-0.1011,0.4759,-0.5206,-18.6885
16:23:33:514,-3.7365,2.2063,8.1034,46.5959,-0.2417,-0.0468,-0.2278,-18.4759
16:23:33:534,-2.9632,2.0856,8.2036,46.9065,-0.1938,-0.3811,-0.0916,-18.27
16:23:33:555,-2.6964,2.0419,7.8777,46.9159,0.0394,-0.3535,-0.0447,-18.068
16:23:33:577,-2.4891,1.633,7.0814,47.2113,0.296,-0.131,0.1405,-17.8677
16:23:33:594,-2.2736,1.4284,6.1772,47.4821,0.3535,0.0862,0.3971,-17.6728
16:23:33:615,-2.038,1.8449,5.8677,47.7381,0.2406,-0.0149,0.6409,-17.4958
16:23:33:634,-1.4963,2.2188,6.4425,47.5909,0.0958,-0.4748,0.625,-17.3511
16:23:33:654,-0.8306,2.2107,7.4623,47.6375,0.0138,-0.9103,0.4514,-17.2428
16:23:33:677,-0.1776,1.8821,8.3986,47.3851,0.0256,-0.9231,0.2353,-17.2428
16:23:33:695,-0.3839,2.1528,8.7811,47.4149,0.099,-0.2683,0.2108,-17.2428
16:23:33:716,-0.9445,2.9567,8.7897,47.4228,0.1395,0.5632,0.3843,-17.2428
16:23:33:734,-1.2958,3.9293,8.4889,47.3627,0.0234,0.7495,0.3854,-17.2428
16:23:33:753,-1.3383,4.3463,8.8015,47.255,-0.1852,0.3119,0.2119,-17.2428
16:23:33:775,-1.3306,3.9542,9.9739,47.172,-0.2566,-0.2087,0.0437,-17.2428
16:23:33:793,-1.5082,3.9838,10.7639,47.2563,-0.1533,-0.164,0.1129,-17.2428
16:23:33:816,-1.0649,4.0249,10.966,46.9847,0.0117,0.1224,0.3322,-17.2428
16:23:33:833,-0.4491,4.4783,10.5867,47.1706,0.099,0.2193,0.3854,-17.2428
16:23:33:853,0.5147,4.5374,10.15,47.3804,-0.1491,0.066,0.1278,-17.2428
16:23:33:874,1.2097,3.0078,11.463,47.593,-0.6558,-0.5845,-0.362,-17.2428
16:23:33:894,1.0034,1.4284,12.6363,47.8336,-0.5313,-0.2555,-0.5472,-17.2428
16:23:33:914,0.473,0.6919,12.1223,47.6984,-0.0916,0.164,-0.4897,-17.2428
16:23:33:935,-0.2847,0.9932,11.0686,47.3142,0.099,-0.0202,-0.3109,-17.2428
16:23:33:954,-0.2424,1.3405,9.9317,47.2327,-0.0032,-0.2598,-0.0767,-17.2428
16:23:33:974,0.0952,1.9374,8.9569,47.0888,-0.2438,-0.1331,0.0447,-17.2428
16:23:33:993,-0.1169,2.679,8.3974,47.1637,-0.4312,0.1959,-0.0277,-17.2428
16:23:34:015,-0.5389,2.9314,7.7216,47.2287,-0.3939,0.4237,-0.164,-17.2428
16:23:34:034,-1.0612,3.0344,7.0799,47.5703,-0.2821,0.2672,-0.2481,-17.2428
16:23:34:054,-1.2036,2.9209,6.7455,47.5076,-0.181,-0.0405,-0.1991,-17.1506
16:23:34:076,-1.0387,2.7378,6.9445,47.423,-0.0767,-0.2694,-0.0383,-17.0587
16:23:34:093,-0.3397,2.4108,7.1855,47.5499,0.0522,-0.164,0.148,-16.9682
16:23:34:114,0.179,2.3174,7.4464,47.3652,0.1065,-0.0415,0.1629,-16.9682
16:23:34:134,0.1221,2.7997,8.0427,47.5212,0.099,-0.0756,0.0852,-16.9682
16:23:34:154,0.1495,2.7745,8.8623,47.5545,0.1661,-0.0192,0.0532,-16.9682
16:23:34:177,0.1731,2.7546,9.4076,47.5005,0.3907,0.1256,0.0894,-16.9682
16:23:34:194,-0.0156,3.2808,9.2958,47.539,0.7282,0.2864,0.132,-16.9682
16:23:34:215,-0.3213,4.1562,8.4993,47.5428,0.8964,0.2289,0.1533,-16.9682
16:23:34:234,-0.4746,5.278,8.0533,47.6931,0.7218,-0.0745,0.1373,-16.9682
16:23:34:254,-0.0496,5.6377,8.361,47.6137,0.3875,-0.3151,0.0426,-16.9682
16:23:34:274,0.9878,4.7581,9.4585,47.2831,0.0362,-0.3886,-0.1831,-16.9682
16:23:34:293,0.9159,3.9831,10.822,47.394,-0.1948,-0.1107,-0.3939,-16.9682
16:23:34:314,0.1379,3.6254,11.5507,47.1364,-0.165,0.2938,-0.3907,-16.9682
16:23:34:333,-0.5447,3.5622,11.6533,47.2355,0.0245,0.378,-0.2161,-16.8689
16:23:34:355,-0.6702,3.2243,11.7263,46.9917,0.1246,-0.3705,-0.2364,-16.7676
16:23:34:374,-0.7986,2.7703,12.1407,47.0476,0.2385,-1.0423,-0.4099,-16.6759
16:23:34:394,-1.0991,2.0682,11.3882,46.9137,0.5366,-0.7825,-0.4227,-16.5761
16:23:34:415,-1.769,2.1207,9.7702,46.5152,0.6675,-0.3545,-0.3343,-16.4555
16:23:34:434,-2.1468,2.1671,8.4844,46.8963,0.297,-0.4472,-0.3162,-16.3223
16:23:34:453,-2.285,2.3388,8.3165,46.8509,-0.2055,-0.494,-0.1714,-16.1862
16:23:34:473,-1.7869,2.4732,8.305,47.2458,-0.3822,-0.164,0.0639,-16.0449
16:23:34:494,-1.269,2.8354,7.8966,47.4347,-0.3279,0.082,0.1948,-15.9028
16:23:34:514,-0.8996,2.9226,7.3868,47.6582,-0.2257,0.0564,0.1629,-15.7692
16:23:34:561,-0.9258,2.7337,6.9302,47.5714,-0.165,-0.0192,0.0639,-15.646
16:23:34:563,-1.2227,2.5548,6.9392,47.5118,-0.2087,-0.1672,0.082,-15.5308
16:23:34:576,-1.3996,2.7289,7.3898,47.3423,-0.2033,-0.2076,0.1991,-15.4249
16:23:34:593,-1.0828,2.8522,8.0698,47.2586,-0.131,-0.1682,0.2587,-15.3267
16:23:34:614,-0.3718,2.2296,8.843,47.1012,-0.0117,-0.2002,0.197,-15.3267
16:23:34:633,-0.2081,1.6737,9.087,47.2494,0.2065,0.0479,0.0862,-15.3267
16:23:34:654,-0.7325,1.7011,8.0947,46.6556,0.445,0.6324,0.0596,-15.3267
16:23:34:678,-1.5748,2.5056,7.0446,46.6398,0.363,0.8006,0.1331,-15.2305
16:23:34:694,-2.1197,3.3149,6.8782,46.6021,0.1011,0.4876,0.2811,-15.2305
16:23:34:715,-2.1414,3.7712,6.889,46.4323,0.0628,0.2726,0.461,-15.2305
16:23:34:734,-2.104,4.1939,7.1042,46.3127,0.0319,0.2183,0.6058,-15.2305
16:23:34:753,-1.6997,4.5139,7.8739,46.32,-0.2268,0.1586,0.6409,-15.2305
16:23:34:774,-1.1823,4.8175,9.7053,45.9696,-0.7825,-0.0351,0.4706,-15.2305
16:23:34:795,-0.1436,3.7966,12.1996,45.481,-1.12,0.0085,0.2566,-15.2305
16:23:34:815,0.4055,2.5572,14.1265,45.2272,-0.9561,0.1874,0.1065,-15.2305
16:23:34:834,0.439,1.9664,14.3844,45.2283,-0.329,0.4738,0.1608,-15.2305
16:23:34:854,0.7674,1.5164,12.9576,45.3025,0.0809,0.346,0.1778,-15.2305
16:23:34:874,0.1358,1.6775,11.1718,45.5614,0.2214,0.3641,0.1661,-15.2305
16:23:34:894,-0.5662,2.1171,9.1338,45.4648,0.2768,0.6548,0.2821,-15.2305
16:23:34:914,-0.9101,2.7179,7.447,45.3034,0.0788,0.56,0.4961,-15.2305
16:23:34:933,-0.3155,3.3399,7.1723,44.8666,-0.3705,-0.1299,0.6207,-15.2305
16:23:34:954,0.9562,3.3643,8.4389,44.6099,-0.8177,-0.7857,0.4653,-15.3396
16:23:34:975,1.919,2.8672,10.4026,44.5708,-0.9614,-0.8379,0.1341,-15.4742
16:23:34:993,2.112,2.1578,11.3489,44.2594,-0.7953,-0.2342,-0.2076,-15.6011
16:23:35:014,1.3925,1.8198,11.016,44.1412,-0.4599,0.3609,-0.428,-15.7042
16:23:35:034,0.7705,1.533,9.9209,44.5432,-0.082,0.5376,-0.4269,-15.7042
16:23:35:054,0.4372,1.4464,8.5887,44.3094,0.2992,0.4823,-0.2917,-15.7042
16:23:35:077,0.3036,1.6431,7.0641,44.3263,0.6292,0.3801,-0.1767,-15.7042
16:23:35:094,0.1462,1.8688,5.5972,44.1939,0.6899,0.197,-0.1672,-15.7042
16:23:35:114,-0.273,2.7942,4.9789,44.1715,0.3769,-0.0341,-0.1182,-15.7042
16:23:35:133,-0.4484,3.4366,5.5921,44.0446,0.0032,-0.1789,-0.066,-15.7042
16:23:35:155,-0.5322,3.7368,6.787,43.9668,-0.1522,-0.2055,-0.0862,-15.7042
16:23:35:177,-0.4823,3.7332,7.936,43.8008,-0.2055,-0.1842,-0.1682,-15.7042
16:23:35:195,-0.7499,3.5977,9.5446,43.6284,-0.2183,-0.3524,-0.2481,-15.7042
16:23:35:215,-1.0793,3.3246,11.1512,43.395,-0.1011,-0.4227,-0.1938,-15.7042
16:23:35:234,-0.7847,2.7697,11.9257,43.2647,0.1916,-0.2342,-0.0138,-15.7042
16:23:35:254,0.1809,2.4016,11.9201,43.1207,0.2576,0.0437,0.1129,-15.7042
16:23:35:274,0.4148,2.6189,12.1322,43.1691,0.1799,0.2332,-0.0021,-15.7042
16:23:35:294,-0.7726,3.1351,12.1828,43.0978,0.2545,0.5174,-0.1171,-15.7042
16:23:35:315,-2.0424,3.3988,10.9882,42.8025,0.544,0.7027,-0.0085,-15.7042
16:23:35:333,-2.6225,3.4405,9.7934,42.8804,0.5664,0.2214,0.0873,-15.7042
16:23:35:353,-2.569,3.081,9.8087,42.8694,0.3162,-0.6409,0.2172,-15.7042
16:23:35:375,-1.6874,2.5012,10.0863,42.6469,0.2928,-0.4908,0.3364,-15.7042
16:23:35:393,-1.319,2.8878,9.4229,43.0109,0.2843,0,0.2672,-15.7042
16:23:35:414,-1.2535,3.0962,8.7996,42.9959,0.0309,-0.0511,0.0575,-15.7042
16:23:35:433,-1.1877,2.5203,9.1038,42.9511,-0.2406,-0.3535,-0.1618,-15.7042
16:23:35:453,-1.0745,1.651,9.6759,42.9931,-0.3013,-0.412,-0.2332,-15.7042
16:23:35:473,-1.1991,1.2607,9.5764,42.8225,-0.1288,-0.1991,-0.1416,-15.7042
16:23:35:493,-1.3219,1.1532,8.5915,42.6749,0.0383,0.263,0.0468,-15.7042
16:23:35:515,-1.5144,1.4481,7.5745,42.989,0.0703,0.5259,0.2555,-15.7042
16:23:35:536,-1.5606,1.8148,6.613,43.1409,0.1192,0.494,0.4131,-15.7042
16:23:35:554,-1.5677,2.1411,5.8439,43.0786,0.1906,0.2545,0.4983,-15.7042
16:23:35:577,-1.5307,2.403,5.3525,42.8136,0.2012,-0.0607,0.5621,-15.7042
16:23:35:594,-1.1539,2.5219,5.2702,42.6956,0.0511,-0.2374,0.5547,-15.7042
16:23:35:615,-1.0032,2.9099,5.9709,42.1637,-0.346,-0.214,0.4897,-15.8167
16:23:35:634,-0.891,3.0584,7.9621,41.9716,-0.7144,-0.3247,0.4376,-15.9442
16:23:35:653,-0.4543,2.7868,10.5215,42.2706,-0.7176,-0.5845,0.3215,-16.0876
16:23:35:677,-0.0043,2.4527,11.9824,42.1059,-0.2566,-0.3939,0.1959,-16.2426
16:23:35:695,0.1802,2.1773,11.7011,41.6764,0.2534,0.1618,0.0979,-16.3864
16:23:35:715,-0.1244,2.5323,10.6698,41.8813,0.3673,0.4961,0.0873,-16.5181
16:23:35:734,-0.4292,3.3917,10.1381,41.6911,0.1693,0.5951,0.1906,-16.649
16:23:35:754,-0.303,4.0065,9.9802,41.5164,0.0564,0.7037,0.3024,-16.7814
16:23:35:775,-0.2089,4.5633,9.9334,41.4295,0.0383,0.527,0.2779,-16.9191
16:23:35:793,-0.2569,5.1856,9.7211,41.5794,-0.0309,0.3684,0.1565,-17.0681
16:23:35:818,0.1087,4.6155,10.0823,41.4211,-0.4578,0.0511,-0.1171,-17.2225
16:23:35:833,-0.1623,3.353,11.7264,41.7382,-0.7655,-0.1916,-0.3237,-17.377
16:23:35:853,-0.5358,2.052,12.8324,41.7813,-0.4919,-0.148,-0.3268,-17.5164
16:23:35:874,-0.6105,1.1977,12.753,41.8596,-0.0639,-0.2523,-0.2459,-17.6374
16:23:35:893,0.0757,0.5837,12.1691,42.0041,0.0894,-0.4216,-0.0926,-17.7473
16:23:35:913,0.8076,0.7321,11.3896,41.9375,0.181,-0.1501,-0.0085,-17.8491
16:23:35:933,0.9299,1.4634,9.8656,41.8545,0.2928,0.3865,-0.0468,-17.9391
16:23:35:953,0.3599,2.4557,8.0121,41.8671,0.3694,0.7335,-0.1437,-17.9391
16:23:35:973,-0.1353,3.0084,6.3495,41.7405,0.3822,0.7889,-0.2406,-17.9391
16:23:35:993,-0.5631,3.0839,5.372,41.5539,0.3503,0.6228,-0.2938,-17.9391
16:23:36:014,-0.7438,2.9686,5.0578,41.5653,0.2523,0.363,-0.2726,-17.9391
16:23:36:033,-0.8,3.015,5.1651,41.3443,0.1203,0.0767,-0.2864,-17.9391
16:23:36:053,-0.6774,2.8891,5.4786,41.5025,-0.0287,-0.0437,-0.2715,-17.9391
16:23:36:075,-0.7335,3.0172,6.1035,41.6429,-0.1139,-0.2183,-0.1884,-17.9391
16:23:36:093,-0.6343,3.3187,6.7514,41.5273,-0.05,-0.4003,-0.0319,-17.9391
16:23:36:114,-0.5068,4.0839,7.1728,41.6481,0.05,-0.5004,0.033,-17.9391
16:23:36:134,-0.0173,4.0477,7.6677,41.5754,-0.0852,-0.3567,-0.0756,-17.9391
16:23:36:153,-0.2843,3.8287,9.2562,41.6315,-0.3268,-0.2332,-0.2353,-17.9391
16:23:36:176,-0.6787,3.348,11.016,41.4939,-0.2065,0.0522,-0.2161,-17.9391
16:23:36:193,-0.6658,2.7987,11.242,41.5823,0.0713,0.5973,-0.0862,-17.9391
16:23:36:215,-0.5161,2.6491,10.8245,41.9152,0.132,0.6494,0.0075,-17.9391
16:23:36:233,-0.4344,2.9653,11.3792,41.8843,-0.0298,0.0756,0.0362,-17.9391
16:23:36:253,-0.4613,2.9629,12.3093,41.5407,0.1288,-0.2438,0.0884,-17.9391
16:23:36:273,-0.6576,3.1417,11.922,41.9219,0.5504,0.1129,0.2076,-17.9391
16:23:36:293,-1.212,3.6498,9.735,41.6101,0.8741,0.8368,0.2896,-17.9391
16:23:36:313,-1.7283,4.054,7.7273,41.4208,0.5802,0.7261,0.2342,-17.9391
16:23:36:333,-2.0278,3.8522,8.0105,41.4086,-0.1852,-0.4354,-0.0575,-17.9391
16:23:36:353,-1.7618,2.8975,10.0671,41.1763,-0.6558,-1.1253,-0.1874,-17.9391
16:23:36:373,-1.3452,2.2458,11.8566,40.9696,-0.5813,-1.0849,-0.2364,-17.9391
16:23:36:393,-1.1972,2.1918,12.1284,41.0378,-0.2161,-0.7612,-0.263,-17.9391
16:23:36:415,-1.2437,2.332,11.2649,40.9755,0.0277,-0.6856,-0.3492,-17.9391
16:23:36:434,-1.1479,2.2715,10.4033,41.3119,-0.0756,-0.5781,-0.4067,-17.9391
16:23:36:453,-1.1188,1.9323,9.6764,41.3833,-0.0735,-0.131,-0.411,-17.9391
16:23:36:473,-1.3484,1.7566,8.464,41.2168,0.0362,0.3716,-0.329,-17.9391
16:23:36:495,-1.6416,1.8003,7.3164,41.3447,0.1512,0.5483,-0.1789,-17.9391
16:23:36:515,-1.9327,2.177,6.2942,41.1683,0.2491,0.5419,0.0256,-17.9391
16:23:36:533,-2.023,2.6667,5.4191,40.933,0.2779,0.411,0.2129,-17.9391
16:23:36:583,-1.8799,2.9178,5.095,41.0157,0.2044,0.0692,0.3109,-17.9391
16:23:36:585,-1.506,2.9435,5.6094,41.1509,0.0458,-0.3577,0.3311,-17.9391
16:23:36:596,-1.1429,2.9556,6.6482,40.8991,-0.0767,-0.5281,0.2853,-17.9391
16:23:36:614,-1.0652,3.0305,7.7178,40.9029,-0.148,-0.3535,0.2843,-17.9391
16:23:36:633,-1.0044,2.8113,8.6537,40.8046,-0.1895,-0.0149,0.3098,-17.9391
16:23:36:654,-0.91,2.664,9.493,40.7026,-0.1959,0.049,0.3332,-17.9391
16:23:36:677,-0.643,2.7141,10.4315,40.819,-0.1363,-0.2278,0.3247,-17.9391
16:23:36:693,-0.3388,2.8751,11.2896,40.6041,0.0266,-0.5866,0.2619,-17.9391
16:23:36:715,-0.0976,2.8827,11.2854,40.4956,0.1693,-0.1874,0.2002,-17.9391
16:23:36:734,-0.2928,2.9142,10.9747,40.5336,0.165,0.5259,0.2023,-17.9391
16:23:36:753,-0.7704,3.6036,10.406,40.2029,0.1491,0.8826,0.2523,-17.9391
16:23:36:775,-0.9429,4.1397,9.4009,40.1101,0.1288,0.8815,0.2481,-17.9391
16:23:36:793,-0.5469,4.3042,9.1455,40.3942,-0.197,0.2172,0.0511,-17.9391
16:23:36:815,-0.1239,3.4333,10.8841,40.2724,-0.5323,-0.4791,-0.2385,-17.9391
16:23:36:833,-0.0777,2.1545,12.1233,40.0098,-0.3396,-0.2662,-0.4195,-17.9391
16:23:36:854,-0.4988,1.564,11.9908,39.9009,0.0117,0.0767,-0.4919,-17.9391
16:23:36:874,-0.6089,1.1816,11.0725,39.5198,0.05,0.0053,-0.4365,-17.9391
16:23:36:893,-0.1506,1.1403,10.945,39.4269,-0.1448,-0.1991,-0.2587,-17.9391
16:23:36:915,0.8441,1.0435,11.0581,39.4147,-0.1586,-0.0564,-0.1384,-17.9391
16:23:36:934,0.9844,1.0622,10.7782,39.3269,0.066,0.5877,-0.0596,-17.9391
16:23:36:954,0.5309,1.8093,9.4233,39.3668,0.3886,1.2307,-0.0373,-17.9391
16:23:36:975,0.0516,2.4436,7.3026,39.1754,0.5355,1.4298,-0.131,-17.9391
16:23:36:993,-0.6152,3.0377,5.7108,39.0542,0.3151,1.0008,-0.2193,-17.9391
16:23:37:014,-1.5652,3.6727,5.5748,38.8505,0.1512,0.2055,-0.1192,-17.9391
16:23:37:034,-1.6513,3.6848,5.6083,38.9269,0.362,-0.3907,0.1235,-17.9391
16:23:37:055,-1.1507,3.4897,5.172,38.8672,0.6058,-0.8102,0.2236,-17.9391
16:23:37:075,-0.9445,3.7314,5.0965,38.7717,0.3183,-1.2648,0.165,-17.9391
16:23:37:094,-0.9378,3.9332,6.1484,38.3557,-0.1299,-1.3617,0.1203,-17.9391
16:23:37:113,-0.6172,3.3852,7.7857,37.842,-0.3524,-0.857,0.1565,-17.9391
16:23:37:133,-0.3063,3.0835,8.7783,37.8348,-0.2821,-0.264,0.1938,-17.9391
16:23:37:153,0.2908,3.2936,9.2367,37.9484,-0.2374,-0.0447,0.1075,-17.9391
16:23:37:179,0.4156,3.7865,9.7166,37.8474,-0.3268,0.0373,-0.1533,-17.9391
16:23:37:194,-0.2285,4.2733,10.2961,37.8304,-0.4099,0.313,-0.3162,-17.9391
16:23:37:215,-0.8136,4.078,10.6628,37.8918,-0.3843,0.6846,-0.2587,-17.9391
16:23:37:234,-1.3253,3.9286,10.7377,37.637,-0.3556,0.8624,-0.0809,-17.9391
16:23:37:254,-2.0692,4.3514,10.8791,37.333,-0.2076,0.7985,0.0596,-17.9391
16:23:37:273,-2.8389,4.7393,10.4968,37.372,0.0905,0.4855,0.1693,-17.9391
16:23:37:295,-2.8341,3.9942,10.1661,37.0825,0.1533,-0.445,0.1427,-17.9391
16:23:37:314,-2.1333,2.5689,10.6967,36.855,-0.1725,-0.9699,0.049,-17.9391
16:23:37:333,-1.5141,1.1579,11.7452,36.6971,-0.4067,-0.6995,-0.0926,-17.9391
16:23:37:354,-1.5248,0.4629,12.2707,36.817,-0.3737,-0.1459,-0.0841,-17.9391
16:23:37:375,-1.7654,0.5792,11.3093,36.9875,-0.1107,0.4163,0.0703,-17.9391
16:23:37:394,-1.459,1.2059,9.4561,37.0436,-0.0511,0.5334,0.1916,-17.9391
16:23:37:415,-1.3531,2.1708,8.4619,37.1013,-0.2214,0.3183,0.1778,-17.9391
16:23:37:434,-1.3793,2.7015,7.9976,37.2886,-0.1821,0.3173,0.116,-17.9391
16:23:37:455,-1.5891,2.5455,7.1128,37.2295,0.0319,0.3503,0.0394,-17.9391
16:23:37:474,-2.0357,2.3724,6.1396,37.4622,0.1437,0.1842,0.115,-17.9391
16:23:37:494,-2.2224,2.6239,5.5811,37.4394,0.1267,-0.1341,0.3673,-17.9391
16:23:37:515,-1.6598,2.847,5.6606,37.1639,0.0969,-0.477,0.5451,-17.9391
16:23:37:535,-0.9905,2.8543,6.2978,37.1827,0.0149,-0.7804,0.4738,-17.9391
16:23:37:553,-0.5834,2.3241,7.6128,36.7541,-0.0532,-0.857,0.3407,-17.9391
16:23:37:574,-0.6777,2.0948,8.7349,36.6423,0.0522,-0.7112,0.2321,-17.9391
16:23:37:593,-0.9837,2.1232,8.8635,36.5394,0.1405,-0.3439,0.2481,-18.0314
16:23:37:614,-0.8923,2.2843,8.8747,36.0933,0.0798,-0.1203,0.3215,-18.1252
16:23:37:633,-0.4661,2.43,9.0905,35.8165,-0.017,-0.1948,0.2949,-18.2251
16:23:37:653,0.1118,2.3265,9.7053,35.568,-0.2087,-0.609,0.1405,-18.3376
16:23:37:678,0.0524,2.3131,10.7155,35.1921,-0.3961,-0.6484,-0.0437,-18.4641
16:23:37:693,-0.4035,2.3349,11.8979,34.9047,-0.33,0.1501,0.0075,-18.574
16:23:37:714,-0.9254,2.7049,11.6066,34.7761,0.0021,0.8773,0.2055,-18.6644
16:23:37:733,-1.0983,3.401,10.1105,34.8432,0.0639,0.9454,0.3545,-18.6644
16:23:37:753,-0.2251,3.4134,9.9483,34.9157,-0.461,0.0798,0.2417,-18.7693
16:23:37:775,0.2919,2.8781,11.7763,34.7693,-0.7261,-0.6122,0.0319,-18.9005
16:23:37:793,0.524,2.0627,12.6129,34.5856,-0.2726,-0.3109,-0.033,-19.0287
16:23:37:814,0.2774,2.0051,11.4683,34.6584,0.1459,0.1565,-0.0468,-19.1409
16:23:37:834,0.4367,1.7868,10.0183,34.396,0.0011,0.1288,-0.1065,-19.2434
16:23:37:853,1.0871,1.2306,10.3621,34.2816,-0.5142,-0.3567,-0.2236,-19.3463
16:23:37:873,1.2487,1.0197,11.4413,34.1286,-0.6335,-0.3939,-0.3748,-19.4447
16:23:37:893,0.9608,0.9651,11.2593,34.4087,-0.2906,-0.0032,-0.4695,-19.4447
16:23:37:913,0.27,1.0957,9.4743,34.4827,0.1214,0.5419,-0.4333,-19.4447
16:23:37:935,-0.3513,1.493,7.3461,34.2345,0.2417,0.8272,-0.3034,-19.4447
16:23:37:953,-0.6957,1.9932,6.077,34.4828,0.1512,0.6548,-0.1863,-19.4447
16:23:37:973,-0.6214,2.3549,5.7462,34.4024,0.0341,0.1884,-0.083,-19.4447
16:23:37:993,-0.2361,2.3501,5.9526,34.2353,0.017,-0.2012,-0.0543,-19.4447
16:23:38:015,0.0196,2.2652,6.1375,34.3005,0.0468,-0.2917,-0.0905,-19.4447
16:23:38:033,-0.0291,2.3626,6.1061,34.223,-0.0351,-0.1001,-0.0873,-19.4447
16:23:38:054,-0.1862,2.8196,6.7184,33.9718,-0.2662,-0.0341,-0.0511,-19.4447
16:23:38:074,-0.0832,2.9885,8.0407,33.8478,-0.3513,-0.2214,0.0064,-19.4447
16:23:38:094,0.2807,3.0155,9.1886,33.6138,-0.2087,-0.4163,-0.0181,-19.4447
16:23:38:114,0.4779,2.8791,9.6629,33.8012,-0.0862,-0.3034,-0.1118,-19.4447
16:23:38:133,0.066,2.6056,10.2558,33.6395,-0.1373,0.0128,-0.1991,-19.4447
16:23:38:153,-0.4578,2.5776,11.1409,33.496,-0.2353,0.1203,-0.1661,-19.4447
16:23:38:180,-0.7959,2.3092,12.1443,33.3281,-0.3258,0.0948,-0.0735,-19.4447
16:23:38:193,-1.0802,2.0187,13.1871,33.3439,-0.2321,-0.1011,0.0777,-19.4447
16:23:38:214,-1.2598,2.2098,13.1317,32.9634,0.1278,0.1565,0.3897,-19.4447
16:23:38:234,-1.3726,2.9066,11.6597,32.761,0.543,0.6271,0.6846,-19.4447
16:23:38:253,-1.3399,3.0313,10.4975,32.727,0.4259,0.1331,0.5749,-19.4447
16:23:38:273,-1.5237,1.8821,10.669,32.2293,0.0681,-0.807,0.2385,-19.4447
16:23:38:293,-1.8649,0.9319,11.1303,31.9396,0.0202,-0.7484,0.2183,-19.4447
16:23:38:314,-2.157,0.6423,10.7494,31.9759,0.1757,-0.3375,0.3748,-19.4447
16:23:38:334,-2.17,1.0273,9.6692,32.1991,0.1448,-0.1725,0.527,-19.4447
16:23:38:353,-1.6541,1.3507,8.8298,32.4298,-0.0628,-0.1363,0.5866,-19.5361
16:23:38:373,-1.0599,1.6198,8.6853,32.9817,-0.2864,-0.0767,0.5345,-19.646
16:23:38:393,-0.5229,1.491,8.5189,33.293,-0.362,0.1544,0.3875,-19.7695
16:23:38:414,-0.4668,1.0587,8.11,33.3411,-0.3322,0.4567,0.2608,-19.8978
16:23:38:434,-0.77,0.879,7.7879,33.6195,-0.2289,0.5408,0.33,-20.0285
16:23:38:453,-0.7912,1.1073,7.4319,33.6999,0.0064,0.4759,0.5547,-20.1651
16:23:38:473,-0.4962,1.4698,6.7378,33.6896,0.2183,0.4259,0.7016,-20.3151
16:23:38:495,-0.3446,1.8574,6.3006,33.5499,0.2438,0.2853,0.6622,-20.4841
16:23:38:515,-0.4642,2.1438,6.2343,33.5646,0.0607,0.1022,0.543,-20.6757
16:23:38:534,-0.6386,2.2452,7.0965,33.1618,-0.2002,-0.0639,0.4738,-20.8859
16:23:38:553,-0.443,2.1075,8.4011,33.1427,-0.2906,-0.2097,0.445,-21.11
16:23:38:597,0.1858,2.4234,8.9194,32.7708,-0.1576,-0.231,0.362,-21.3451
16:23:38:600,0.9216,2.7963,8.8664,32.7708,-0.1405,-0.0692,0.0607,-21.5826
16:23:38:614,0.6537,2.917,9.4692,32.4871,-0.3109,0.2619,-0.2864,-21.8144
16:23:38:633,0.5264,2.4226,10.4522,32.4491,-0.4887,0.4546,-0.5185,-22.0264
16:23:38:653,-0.1698,2.0159,11.7323,32.376,-0.6345,0.2385,-0.6963,-22.2163
16:23:38:677,-0.992,1.2002,13.4736,32.3289,-0.4887,0.2715,-0.5025,-22.3792
16:23:38:693,-1.3195,0.7923,13.8964,32.0293,0.1246,0.6292,-0.0447,-22.5107
16:23:38:713,-1.2898,1.1231,12.1526,31.9245,0.6399,0.8326,0.2587,-22.6249
16:23:38:733,-1.2117,1.8389,10.4521,31.4002,0.5419,0.4727,0.3024,-22.7426
16:23:38:753,-0.7947,1.5141,10.2861,31.332,0.1086,-0.0671,0.2374,-22.8764
16:23:38:774,-0.7089,0.8171,10.8291,31.3225,-0.0277,-0.0788,0.2332,-23.0212
16:23:38:794,-1.1154,0.8894,10.4876,31.2447,0.1416,0.1001,0.3652,-23.1667
16:23:38:815,-0.9688,1.3026,9.5484,31.6256,0.1235,-0.0671,0.4663,-23.318
16:23:38:835,-0.0601,1.7027,9.4533,31.9497,-0.2566,-0.445,0.3822,-23.4863
16:23:38:853,0.6383,1.9816,10.7323,32.4216,-0.576,-0.758,0.049,-23.6715
16:23:38:873,0.7579,1.5741,11.9096,32.7272,-0.527,-0.5387,-0.3109,-23.8568
16:23:38:893,0.1175,0.9944,11.8585,32.7526,-0.1821,-0.0085,-0.527,-24.0196
16:23:38:914,-0.6248,0.8642,10.6682,32.8065,0.1459,0.297,-0.5419,-24.152
16:23:38:933,-0.8152,0.8693,9.2203,32.6009,0.3524,0.4216,-0.4376,-24.2567
16:23:38:953,-0.6972,0.9679,8.1765,32.4097,0.5057,0.4035,-0.3567,-24.2567
16:23:38:974,-0.6535,1.0494,7.331,32.1446,0.7208,0.3056,-0.3024,-24.2567
16:23:38:994,-0.6581,1.2124,6.2446,31.9401,0.8869,0.1821,-0.2523,-24.2567
16:23:39:014,-0.7664,1.4356,5.1145,31.623,0.8315,0.2055,-0.148,-24.2567
16:23:39:033,-0.9958,2.004,4.5967,31.1847,0.4802,0.198,-0.0064,-24.2567
16:23:39:053,-1.1093,2.812,4.9297,31.2559,0.0437,-0.0362,0.1491,-24.2567
16:23:39:073,-1.0838,3.1746,6.1707,31.4182,-0.2619,-0.5249,0.28,-24.2567
16:23:39:093,-1.3375,3.1331,7.9672,31.3046,-0.2662,-1.169,0.363,-24.2567
16:23:39:114,-1.7855,3.2016,9.4392,31.5338,-0.0117,-1.5948,0.5132,-24.3552
16:23:39:133,-1.7995,3.1187,10.2105,31.863,0.1842,-1.0135,0.8847,-24.4653
16:23:39:153,-1.15,3.3557,10.9042,31.8105,0.1459,-0.0756,1.1988,-24.5878
16:23:39:178,-0.0859,3.3725,11.634,31.7689,0.0224,0.4291,1.186,-24.7375
16:23:39:194,0.637,2.8121,12.512,31.8264,-0.1384,0.4429,0.8709,-24.9219
16:23:39:215,0.1413,2.5816,13.4085,31.7446,-0.0192,0.3705,0.6303,-25.1351
16:23:39:233,-0.3311,2.9064,12.6555,31.7659,0.4493,0.7548,0.7548,-25.3605
16:23:39:254,-0.0835,3.1474,11.0423,31.6225,0.4759,0.6601,0.7101,-25.5992
16:23:39:274,0.3371,2.5349,10.5969,31.5775,0.2225,-0.0245,0.329,-25.8653
16:23:39:295,-0.0123,1.8347,10.1649,31.4093,0.082,-0.1427,-0.05,-26.1464
16:23:39:316,-0.7708,1.4245,9.5837,31.445,0.0011,0.1118,-0.1916,-26.4175
16:23:39:337,-1.4259,1.4764,8.6283,31.1659,-0.1107,0.2896,-0.0713,-26.672
16:23:39:356,-1.4636,2.0073,7.8662,31.0374,-0.3247,0.2896,0.1107,-26.9149
16:23:39:375,-0.6486,2.0402,7.9993,31.0628,-0.6452,0.0373,-0.0011,-27.157
16:23:39:393,-0.7872,2.0279,8.808,30.8835,-0.7676,-0.1416,-0.231,-27.398
16:23:39:415,-1.0766,1.442,9.3933,30.8818,-0.5792,-0.0767,-0.2704,-27.6252
16:23:39:434,-1.3266,0.6801,9.3248,31.0349,-0.2161,0.0916,-0.0969,-27.8303
16:23:39:454,-1.3759,0.4536,8.6962,31.2326,0.1618,0.3098,0.263,-28.0178
16:23:39:473,-1.0749,1.0852,7.8436,31.1837,0.428,0.412,0.56,-28.202
16:23:39:493,-0.4754,1.7743,6.9477,31.4239,0.56,0.3141,0.609,-28.3972
16:23:39:514,-0.1496,2.3216,6.3576,31.4277,0.5004,0.0224,0.4088,-28.6109
16:23:39:534,-0.0788,2.6083,6.3149,31.6454,0.3141,-0.2757,0.1735,-28.8391
16:23:39:555,-0.2003,2.6105,6.9608,31.5126,0.0437,-0.4461,0.0128,-29.0735
16:23:39:575,-0.3515,2.3385,8.3494,31.3323,-0.1341,-0.3545,-0.0309,-29.3044
16:23:39:594,-0.5945,2.546,9.5548,30.828,-0.0287,-0.1831,-0.033,-29.5254
16:23:39:617,-0.1679,2.555,9.9501,30.7387,0.0809,-0.2736,-0.1586,-29.7358
16:23:39:633,-0.0078,2.3739,10.1811,30.8043,-0.1554,-0.4993,-0.4365,-29.9392
16:23:39:654,-0.157,1.6953,11.5274,30.4561,-0.4589,-0.2576,-0.5802,-30.1244
16:23:39:678,-0.4415,1.2946,13.0286,30.1643,-0.428,0.1842,-0.5536,-30.2801
16:23:39:694,-0.7487,1.5995,13.2507,29.8304,-0.1288,0.6175,-0.4046,-30.4016
16:23:39:714,-0.8348,2.5374,12.4546,29.2828,-0.017,0.7591,-0.3247,-30.4969
16:23:39:735,-0.265,2.0943,12.3612,28.7153,-0.2534,0.297,-0.4865,-30.4969
16:23:39:754,-0.5489,1.5944,12.7704,28.3367,-0.1097,0.1459,-0.5451,-30.4969
16:23:39:775,-0.9034,1.3006,11.6737,28.4073,0.3173,0.4067,-0.3343,-30.4969
16:23:39:793,-1.2547,1.5757,9.7149,28.5042,0.4546,0.3396,-0.1544,-30.4969
16:23:39:817,-0.9369,1.8699,8.388,28.7383,0.0937,-0.0266,0.0809,-30.4969
16:23:39:835,-0.0059,1.9836,8.6994,29.3963,-0.4195,-0.5515,0.1192,-30.4969
16:23:39:854,0.7156,2.076,9.5269,30.1469,-0.576,-0.6654,0.0128,-30.4969
16:23:39:874,1.1164,1.7828,9.7618,30.5924,-0.3694,-0.263,-0.1767,-30.4969
16:23:39:894,0.9265,1.4846,8.8426,31.1117,-0.0522,0.3588,-0.3524,-30.4969
16:23:39:914,0.3046,1.6536,7.5608,31.4596,0.1203,0.5185,-0.4653,-30.4969
16:23:39:933,-0.0237,1.5673,6.7928,31.7377,0.1863,0.2023,-0.4972,-30.4969
16:23:39:954,0.0408,1.3067,6.6445,31.7744,0.2736,-0.1203,-0.4344,-30.4969
16:23:39:974,0.2377,1.2475,6.6114,31.6073,0.411,0.0043,-0.3354,-30.4969
16:23:39:994,0.2758,1.5307,6.2371,31.3634,0.4738,0.2119,-0.3322,-30.4969
16:23:40:015,0.3774,1.762,5.9542,31.3644,0.313,0.2566,-0.3961,-30.4969
16:23:40:034,0.1891,2.204,6.3815,31.1244,0.0458,0.0607,-0.4056,-30.4969
16:23:40:054,0.2884,2.6502,7.2053,30.6962,-0.1459,-0.2172,-0.3098,-30.4969
16:23:40:074,0.7303,2.8676,8.108,30.6574,-0.2332,-0.363,-0.2789,-30.4969
16:23:40:095,0.8805,3.0279,8.8962,30.4146,-0.2438,-0.33,-0.3748,-30.4044
16:23:40:115,0.4253,3.5624,9.5661,30.3888,-0.28,-0.2076,-0.5291,-30.3006
16:23:40:134,-0.3343,3.8867,10.3781,30.2824,-0.3992,-0.1246,-0.6835,-30.1811
16:23:40:154,-0.95,3.4753,11.2365,30.5167,-0.527,0.0085,-0.7506,-30.0414
16:23:40:180,-1.2161,2.5782,12.1755,30.5064,-0.6792,0.1874,-0.7229,-29.8779
16:23:40:194,-1.7354,1.7419,13.4955,30.2538,-0.5824,0.329,-0.6218,-29.6925
16:23:40:215,-1.9056,1.2613,14.3387,30.4465,-0.1107,0.4376,-0.3556,-29.4853
16:23:40:234,-1.4129,1.2493,13.7619,30.3948,0.577,0.1331,0.0224,-29.2688
16:23:40:254,0.0851,1.1289,12.3187,30.5346,0.8826,-0.3258,0.1437,-29.0592
16:23:40:273,1.2835,0.2138,11.4362,30.6947,0.7921,-0.659,-0.3481,-28.8665
16:23:40:293,0.852,-0.3662,10.7533,31.0248,0.5717,-0.2875,-0.9284,-28.6714
16:23:40:315,-0.6045,-0.1482,10.2327,31.0945,0.4557,0.2821,-1.1935,-28.442
16:23:40:334,-1.6634,0.5351,9.2532,31.1065,0.3822,0.3875,-1.1637,-28.1718
16:23:40:353,-2.0589,1.011,8.3086,31.2693,0.0958,0.1299,-1.1253,-27.8725
16:23:40:373,-2.2057,0.8648,8.0686,31.2043,-0.3098,-0.2246,-1.152,-27.549
16:23:40:393,-2.5759,0.7873,8.3578,31.4134,-0.5206,-0.296,-1.0785,-27.2001
16:23:40:415,-2.8348,0.7338,8.6649,31.6737,-0.3769,-0.2183,-0.8315,-26.8239
16:23:40:434,-2.7282,0.4545,8.1411,31.9998,0.016,-0.1139,-0.4983,-26.4257
16:23:40:453,-2.4389,0.5193,7.2506,31.8264,0.3205,-0.0724,-0.1884,-26.0173
16:23:40:474,-1.8655,0.8637,6.5749,32.0607,0.4344,-0.2736,-0.0234,-25.6129
16:23:40:495,-1.3076,1.2181,6.3249,32.3695,0.3024,-0.643,0.0138,-25.2229
16:23:40:515,-0.7376,1.4296,6.7656,32.5165,0.0735,-0.8751,-0.0011,-24.8508
16:23:40:534,-0.1486,1.3314,7.4853,32.4501,-0.115,-0.6377,-0.0128,-24.4907
16:23:40:553,0.5007,1.3981,8.4129,32.6911,-0.2491,-0.1693,-0.1395,-24.1341
16:23:40:598,0.7514,1.954,9.2464,32.4631,-0.2119,0.1565,-0.4791,-23.7779
16:23:40:599,0.3644,2.2981,9.5768,32.4154,-0.0192,0.3865,-0.7985,-23.413
16:23:40:613,-0.1067,2.4172,9.6633,32.824,0.2214,0.4716,-0.8304,-23.0296
16:23:40:633,0.414,2.4058,9.3659,33.0145,0.2779,0.4461,-0.7346,-22.6269
16:23:40:655,1.3256,2.3024,9.752,33.1717,-0.0607,0.2076,-0.9837,-22.2118
16:23:40:677,1.1084,2.6196,11.4704,32.9885,-0.3183,0.0106,-1.4671,-21.7792
16:23:40:695,0.2404,2.1487,12.8435,33.0105,0.0415,0.1927,-1.7577,-21.3147
16:23:40:714,-0.7267,1.3125,12.2487,33.038,0.7037,0.4929,-1.7183,-20.7985
16:23:40:733,-1.7126,1.9451,10.6406,33.1394,1.0689,0.6228,-1.466,-20.2308
16:23:40:753,-1.6583,2.884,9.5706,33.1749,0.6516,0.1821,-1.3628,-19.6245
16:23:40:774,-0.6622,1.3088,10.7204,33.1843,-0.3599,-0.7697,-1.5618,-18.9981
16:23:40:793,-0.6776,-0.1869,13.2079,33.2985,-0.4503,-0.9986,-1.6726,-18.3485
16:23:40:814,-0.8671,-0.6975,12.9962,33.2092,0.2161,-0.5057,-1.5044,-17.6596
16:23:40:833,-1.0498,-0.1621,11.2692,33.0092,0.3929,-0.3492,-1.2648,-16.9295
16:23:40:853,-0.7251,0.6607,10.3682,32.9908,0.1171,-0.4738,-1.0146,-16.1747
16:23:40:875,0.2171,1.1487,9.9357,33.1883,-0.0607,-0.5366,-0.9007,-15.4064
16:23:40:893,0.9185,1.1112,9.6422,33.2597,0.0468,-0.2896,-0.9954,-14.6276
16:23:40:914,1.1759,0.9668,8.8021,33.4156,0.3109,0.2278,-1.0934,-13.8313
16:23:40:933,1.4094,0.9345,7.4226,33.6983,0.4951,0.5707,-1.284,-13.0126
16:23:40:953,1.4046,0.8246,6.5829,33.9138,0.2853,0.4046,-1.6417,-12.1706
16:23:40:975,0.4851,0.8659,6.9845,33.7325,0.1065,-0.066,-1.9973,-11.299
16:23:40:993,-0.5207,0.7141,7.3759,33.7108,0.2481,-0.395,-1.9547,-10.394
16:23:41:014,-0.8137,0.5506,7.2579,33.9281,0.428,-0.445,-1.6023,-9.4502
16:23:41:033,-0.6691,1.2336,7.0765,34.1692,0.2938,-0.3066,-1.3883,-8.4733
16:23:41:053,-0.9922,2.5968,7.5946,34.3267,0.0639,-0.3034,-1.4532,-7.4715
16:23:41:073,-1.6067,3.32,7.9715,34.3517,-0.0522,-0.4205,-1.5469,-6.449
16:23:41:094,-2.2257,3.2127,8.4352,34.3794,-0.1576,-0.5653,-1.4586,-5.405
16:23:41:115,-2.6149,3.0547,9.2815,34.6061,-0.2374,-0.6281,-1.1626,-4.3431
16:23:41:136,-2.626,3.0962,10.3305,34.3223,-0.1948,-0.6516,-0.8538,-3.2717
16:23:41:154,-2.2046,3.1394,11.1414,34.5989,-0.082,-0.6271,-0.6867,-2.2017
16:23:41:177,-1.6898,3.2152,11.4411,34.4794,-0.0319,-0.4972,-0.6558,-1.1407
16:23:41:194,-1.318,3.0836,11.9888,34.9769,-0.1959,-0.395,-0.7399,-0.0844
16:23:41:214,-0.9915,1.9674,13.3972,35.2181,-0.2747,-0.2715,-0.8006,0.9675
16:23:41:233,-1.2463,1.4789,14.8299,35.3285,0.0841,0.3237,-0.5504,2.0182
16:23:41:253,-1.2252,1.7533,14.3051,35.4009,1.0902,1.0178,-0.2502,3.0629
16:23:41:276,-0.8703,1.9791,11.4863,35.4179,1.7971,0.8368,-0.2917,4.0882
16:23:41:295,-0.535,1.2861,9.2419,35.4732,1.5416,-0.2417,-0.774,5.0888
16:23:41:315,-1.0093,0.2669,9.0481,35.477,0.6601,-1.0774,-1.2925,6.0799
16:23:41:334,-1.6844,-0.7495,10.4168,35.5745,0.1448,-1.0189,-1.3713,7.0921
16:23:41:355,-2.0434,-0.9727,10.7318,35.5445,0.1054,-0.5036,-1.1349,8.1308
16:23:41:375,-2.22,0.005,9.7173,35.7403,0.0809,0.0021,-0.8602,9.1885
16:23:41:393,-2.1821,1.2389,8.7599,35.9771,-0.0969,0.0245,-0.7176,10.2516
16:23:41:413,-2.1256,1.9054,8.1559,36.0376,-0.1799,-0.1544,-0.6931,11.3086
16:23:41:434,-2.0444,1.9036,7.775,36.3528,-0.0937,-0.4088,-0.6665,12.3546
16:23:41:453,-2.0193,1.649,7.3205,36.2791,0.0639,-0.6228,-0.577,13.3881
16:23:41:474,-1.7873,1.3467,7.0671,36.6211,0.1927,-0.7655,-0.3982,14.4077
16:23:41:494,-1.6951,1.3183,7.0872,36.6054,0.2598,-0.6878,-0.1597,15.4107
16:23:41:514,-1.3366,1.5683,7.4183,36.924,0.3098,-0.5174,0.016,16.3929
16:23:41:534,-1.0426,2.089,7.7582,36.8453,0.3279,-0.4493,-0.0234,17.3482
16:23:41:553,-0.7842,2.0588,8.1376,37.2017,0.3215,-0.4876,-0.2002,18.2765
16:23:41:574,-0.8509,2.2063,8.5753,37.2307,0.313,-0.3811,-0.3694,19.1842
16:23:41:594,-1.2466,2.3142,9.1031,37.3421,0.3205,-0.0447,-0.4983,20.0816
16:23:41:616,-1.7309,2.2587,9.4026,37.2649,0.4684,0.3513,-0.5398,20.9746
16:23:41:633,-2.1187,2.3552,8.7765,37.4377,0.6654,0.6824,-0.4472,21.8646
16:23:41:654,-2.0267,2.6711,8.2399,37.472,0.6132,0.4738,-0.3396,22.7471
16:23:41:677,-1.5556,2.6124,8.4841,37.6243,0.2726,-0.131,-0.4216,23.6137
16:23:41:693,-1.7062,2.3756,9.4229,37.8464,-0.0479,-0.1043,-0.5195,24.469
16:23:41:716,-2.2024,2.2494,10.2716,37.8737,-0.1491,0.378,-0.378,25.3237
16:23:41:733,-2.573,2.5332,10.6185,37.9865,-0.1821,0.642,-0.1842,26.1727
16:23:41:753,-2.3367,2.7051,10.5373,37.9809,-0.2832,0.5185,-0.0128,27.0041
16:23:41:775,-1.1563,1.9186,11.2019,37.9947,-0.6473,-0.0969,-0.0287,27.8095
16:23:41:793,-0.6904,1.0418,12.6074,38.4956,-0.6931,-0.4812,-0.0586,28.5823
16:23:41:814,-0.3958,0.4862,12.8285,38.5763,-0.2246,-0.1874,0.116,29.3274
16:23:41:834,-0.3024,0.6579,11.6235,38.556,0.1586,0.1192,0.2917,30.0457
16:23:41:854,0.0883,1.0471,10.3229,38.7918,0.1597,-0.0011,0.3524,30.7325
16:23:41:873,0.7121,1.1688,9.5602,38.3359,-0.1256,-0.2576,0.2065,31.3857
16:23:41:894,0.8086,1.329,9.4355,38.1668,-0.3599,-0.2129,-0.0607,32.012
16:23:41:914,0.4333,1.4396,9.2171,38.0815,-0.378,0.1278,-0.2555,32.6234
16:23:41:934,-0.1778,1.3996,8.6064,38.0938,-0.2257,0.3982,-0.3503,33.2271
16:23:41:953,-0.549,1.4228,7.6947,38.3595,0.0277,0.3865,-0.2875,33.8231
16:23:41:973,-0.485,1.5615,6.7585,38.3284,0.231,0.1097,-0.1373,34.4075
16:23:41:993,-0.0643,1.9224,6.2662,38.6525,0.2864,-0.2651,-0.0628,34.9751
16:23:42:014,0.0602,2.3627,6.137,38.9596,0.2949,-0.4812,-0.1182,35.5243
16:23:42:033,0.1876,2.2867,5.8367,38.9484,0.2183,-0.4365,-0.1863,36.0629
16:23:42:054,0.313,2.0793,5.6874,39.0207,-0.0767,-0.2523,-0.2789,36.596
16:23:42:073,0.0656,2.2555,6.4398,39.1047,-0.3897,-0.1735,-0.411,37.1285
16:23:42:094,-0.4958,2.5621,7.9568,39.1724,-0.4386,-0.4397,-0.5068,37.6597
16:23:42:114,-0.9809,2.1853,8.9565,39.241,-0.3822,-0.6824,-0.5004,38.1854
16:23:42:133,-1.544,2.18,9.9341,39.3163,-0.395,-0.4983,-0.3418,38.7115
16:23:42:153,-1.9019,2.7402,11.0195,39.3296,-0.3311,-0.0596,-0.1203,39.2377
16:23:42:179,-1.5614,2.9468,12.0279,39.1758,-0.1224,0.1182,0.0075,39.7564
16:23:42:193,-1.1878,2.6665,12.4007,39.3783,0.0011,0.1235,-0.0319,40.2568
16:23:42:214,-1.5406,2.6381,13.1418,39.3961,-0.131,-0.0681,-0.0671,40.7422
16:23:42:234,-1.8529,2.5517,14.0981,39.7234,-0.1086,0.0362,0.1224,41.2147
16:23:42:254,-1.9062,2.7088,14.0205,39.6421,0.329,0.6111,0.4259,41.6719
16:23:42:275,-1.535,2.7645,12.7231,39.6349,0.6303,0.4983,0.4908,42.1019
16:23:42:294,-0.9207,1.5669,12.0678,39.5895,0.5653,-0.2757,0.1778,42.4969
16:23:42:315,-0.9706,0.6454,11.9095,39.6564,0.5834,-0.5973,-0.0628,42.8647
16:23:42:333,-1.2776,0.3355,11.1965,39.5217,0.7016,-0.2981,-0.0554,43.2263
16:23:42:353,-1.262,0.4409,9.9555,39.5755,0.6462,0.0064,0.0085,43.5856
16:23:42:376,-0.9767,0.7769,8.8238,39.4187,0.3641,0.0926,-0.0681,43.9396
16:23:42:393,-0.7277,1.0442,8.2214,39.6497,0.0926,0.0916,-0.2449,44.2908
16:23:42:416,-0.8298,1.149,7.7107,39.8805,0.0362,0.2332,-0.3758,44.6434
16:23:42:433,-1.0523,0.9963,6.9523,39.9125,0.1267,0.4099,-0.4152,44.9995
16:23:42:453,-1.3729,0.9029,6.243,40.3036,0.1863,0.4706,-0.3481,45.3612
16:23:42:473,-1.7316,1.1033,5.8078,40.6262,0.2257,0.3929,-0.1948,45.7249
16:23:42:494,-1.7372,1.3777,5.5358,40.3315,0.2459,0.3173,-0.0011,46.085
16:23:42:513,-1.7139,1.7984,5.4162,40.5374,0.2002,0.148,0.0447,46.4351
16:23:42:533,-1.7789,2.3538,5.8563,40.407,-0.0149,-0.115,-0.0266,46.773
16:23:42:554,-2.0475,2.8189,6.8875,40.6888,-0.2917,-0.3513,-0.164,47.101
16:23:42:574,-2.5282,2.8918,8.5185,40.732,-0.4546,-0.3875,-0.2161,47.4246
16:23:42:594,-2.3405,2.4755,10.0638,41.0361,-0.4067,-0.2214,-0.115,47.7452
16:23:42:628,-2.1185,2.131,10.8767,41.2436,-0.0415,0.0969,-0.0383,48.0602
16:23:42:639,-2.0782,2.198,10.3451,41.3783,0.3769,0.4088,0.05,48.3661
16:23:42:653,-2.1018,2.5476,9.4122,41.4417,0.5078,0.2928,0.0905,48.6612
16:23:42:678,-1.942,2.6095,9.2496,41.6289,0.2832,-0.1938,0.0628,48.9416
16:23:42:697,-1.934,2.8746,10.0445,41.7673,0.0351,-0.3024,0.1288,49.2129
16:23:42:714,-1.5577,2.9649,10.8149,41.9544,0.0106,-0.0596,0.2204,49.4751
16:23:42:733,-1.3182,3.2957,10.7678,42.1995,0.0862,0.1661,0.1863,49.725
16:23:42:753,-0.9341,3.6871,10.3084,42.1389,-0.0383,-0.0671,-0.0128,49.9613
16:23:42:774,-0.5087,2.4765,11.0339,42.7003,-0.4184,-0.8358,-0.3726,50.1868
16:23:42:793,-0.7028,0.6856,12.4812,42.6561,-0.445,-1.087,-0.5174,50.4109
16:23:42:814,-0.86,-0.4982,12.6968,42.6871,-0.1224,-0.5504,-0.4003,50.6442
16:23:42:833,-1.2315,-0.3634,11.6857,42.4596,0.1182,-0.0671,-0.1959,50.89
16:23:42:853,-1.2501,0.3759,10.3963,42.4509,0.0511,-0.0202,-0.0192,51.139
16:23:42:873,-0.7355,0.9816,9.4776,42.3052,-0.1735,-0.1767,0.0234,51.3829
16:23:42:893,-0.401,1.4661,9.0997,42.6071,-0.2938,-0.2491,-0.099,51.6191
16:23:42:913,-0.29,1.6485,8.5884,42.7332,-0.2023,-0.0681,-0.2587,51.8514
16:23:42:933,-0.4214,1.6048,7.5369,42.9195,-0.1022,0.1938,-0.3918,52.0864
16:23:42:953,-0.7458,1.6073,6.7286,43.1467,-0.0756,0.2938,-0.4472,52.3295
16:23:42:974,-1.0764,1.7895,6.3899,43.398,-0.0287,0.2225,-0.3428,52.5818
16:23:42:994,-1.0024,2.0045,6.0544,43.5347,0.1235,0.0075,-0.1863,52.8356
16:23:43:015,-0.7323,2.3024,5.7933,43.8453,0.1735,-0.181,-0.1118,53.0852
16:23:43:034,-0.4694,2.4749,6.0999,43.6642,-0.0809,-0.2992,-0.181,53.3321
16:23:43:055,-0.5288,2.5335,7.7237,44.0427,-0.4227,-0.2917,-0.23,53.5813
16:23:43:074,-0.796,2.4694,9.7111,44.3999,-0.3652,-0.1341,-0.1469,53.8328
16:23:43:094,-0.6017,1.9855,10.6522,44.3115,0.0735,0.2151,0.0532,54.0808
16:23:43:115,-0.6077,2.0154,10.6833,44.5743,0.5472,0.4088,0.1927,54.3186
16:23:43:137,-0.7601,2.7188,10.1659,44.8773,0.7751,0.3077,0.2789,54.54
16:23:43:154,-0.6773,2.9275,9.9616,45.0019,0.741,0.066,0.2779,54.7458
16:23:43:177,-0.8076,3.1993,10.1634,45.2549,0.6388,-0.0138,0.2651,54.9336
16:23:43:194,-0.7718,3.4528,10.2802,45.4047,0.4695,-0.0554,0.2449,55.1129
16:23:43:215,-0.2861,3.7081,10.3096,45.4542,0.1171,-0.0798,0.1203,55.2812
16:23:43:233,0.114,3.9078,10.5022,45.4369,-0.1991,-0.0809,-0.1341,55.4455
16:23:43:254,-0.2859,4.0602,11.0596,45.0696,-0.2992,-0.2832,-0.3918,55.6098
16:23:43:276,-0.7994,3.0452,11.8387,45.5136,-0.1586,-0.6963,-0.577,55.7776
16:23:43:294,-1.2326,1.7084,12.1397,45.746,0.0245,-0.9912,-0.6665,55.9529
16:23:43:314,-1.5123,0.7745,12.2295,46.0318,0.0777,-0.7878,-0.61,56.1451
16:23:43:335,-1.7568,0.5551,12.0824,46.1188,0.0596,-0.4642,-0.494,56.3582
16:23:43:353,-1.9344,0.6464,11.7895,46.2481,0.0224,-0.3758,-0.4876,56.5865
16:23:43:375,-2.2404,0.8729,11.0514,46.1479,0.0085,-0.2747,-0.5036,56.8267
16:23:43:393,-2.4212,0.8956,10.0011,46.2696,0,-0.1235,-0.4312,57.0802
16:23:43:415,-2.6901,1.0957,8.8611,46.6092,0.1043,0.0884,-0.2875,57.3438
16:23:43:434,-2.9221,1.503,7.3477,46.9181,0.3141,0.3205,-0.0681,57.6114
16:23:43:454,-2.702,1.8372,5.6809,46.9462,0.4003,0.3609,0.1661,57.875
16:23:43:474,-2.2797,2.1711,4.8285,47.2039,0.2459,0.017,0.263,58.1254
16:23:43:504,-2.0263,2.304,5.0883,47.2041,0.0468,-0.5345,0.2672,58.3567
16:23:43:517,-1.6001,1.8687,5.6546,47.1841,-0.0287,-0.6494,0.3056,58.5685
16:23:43:533,-1.0996,1.147,6.5667,47.1614,-0.0021,-0.3577,0.3449,58.7645
16:23:43:553,-0.7908,0.9411,7.4037,46.9295,0.0437,0.0075,0.3034,58.946
16:23:43:573,-0.8154,1.2978,7.7713,46.9862,0.1129,0.1043,0.1895,59.1129
16:23:43:593,-0.9942,1.7357,7.6039,46.8118,0.1182,0.1043,0.1288,59.2668
16:23:43:616,-1.0792,1.9419,7.6276,46.9306,-0.0043,0.0564,0.0703,59.4118
16:23:43:633,-1.2683,2.1236,8.3511,47.479,-0.3311,-0.0724,-0.016,59.551
16:23:43:654,-1.3409,2.1277,9.4862,47.724,-0.6665,-0.1022,-0.0468,59.6892
16:23:43:677,-1.4046,2.2438,10.7704,48.4146,-0.857,0.0213,-0.0202,59.8319
16:23:43:693,-1.4939,2.4243,11.9344,48.6702,-0.7591,0.1746,0.0671,59.9697
16:23:43:714,-1.4096,2.5684,12.775,48.8643,-0.4865,0.2289,0.2236,60.0996
16:23:43:734,-0.814,2.749,12.9278,49.0327,-0.2236,0.1852,0.3535,60.2147
16:23:43:755,0.1861,2.6891,12.9816,49.2279,-0.2023,0,0.3077,60.3113
16:23:43:776,0.7621,2.3533,13.6026,49.0791,-0.2257,-0.181,0.0245,60.3113
16:23:43:793,0.7225,1.4768,13.695,49.3876,0.0362,0.0735,-0.1906,60.3113
16:23:43:814,0.2748,0.7284,12.5921,49.0963,0.4024,0.3226,-0.2587,60.3113
16:23:43:833,-0.017,0.4288,11.3528,48.8351,0.4834,0.165,-0.1959,60.3113
16:23:43:853,0.093,0.2922,10.5275,48.3421,0.3056,-0.231,-0.1043,60.4047
16:23:43:873,0.3127,0.4301,10.0404,47.9267,0.1075,-0.379,-0.0287,60.4991
16:23:43:895,0.336,0.7712,8.9305,47.7112,0.033,-0.0916,0.0234,60.5946
16:23:43:913,0.1548,1.1055,7.5452,47.67,0.0245,0.2715,0.0458,60.6915
16:23:43:934,-0.0834,1.5223,6.3446,47.5301,-0.0181,0.4503,0.0671,60.7881
16:23:43:953,-0.1611,1.8548,5.4894,47.6288,-0.0266,0.3716,0.0671,60.8799
16:23:43:973,-0.1751,2.0187,5.1506,47.7545,-0.0373,0.0767,0.0447,60.8799
16:23:43:993,-0.079,2.1358,5.151,47.4625,-0.0309,-0.2608,0.0362,60.8799
16:23:44:014,0.3878,2.0896,5.3659,47.7996,-0.016,-0.4535,0.0309,60.8799
16:23:44:033,0.6183,1.9213,6.0644,47.6069,-0.0415,-0.4482,-0.0106,60.8799
16:23:44:053,0.6851,1.8929,6.9168,47.7113,0.0032,-0.2257,0.0021,60.8799
16:23:44:074,0.845,2.2422,7.265,47.8847,-0.0703,0.0287,-0.0703,60.8799
16:23:44:094,0.105,2.9517,8.2347,47.9375,-0.3758,0.1395,-0.2364,60.8799
16:23:44:115,-0.6157,3.1124,9.5505,48.0632,-0.5302,0.1437,-0.2566,60.9755
16:23:44:133,-1.0065,2.8647,10.7289,48.3418,-0.5792,0.2438,-0.1341,61.077
16:23:44:153,-1.4563,3.1745,11.8977,48.2233,-0.6058,0.3769,0.0192,61.1823
16:23:44:177,-1.6369,3.3883,12.9217,48.2188,-0.6079,0.3024,0.1043,61.2888
16:23:44:194,-1.6506,3.0939,14.0836,47.9564,-0.6143,0.0394,0.1544,61.3821
16:23:44:214,-1.8076,2.6106,15.1487,47.6452,-0.2885,-0.0586,0.3268,61.3821
16:23:44:233,-1.8423,2.3941,14.3076,47.8639,0.4333,0.4259,0.6622,61.3821
16:23:44:254,-1.6767,2.3716,12.2,47.7777,1.0625,0.5877,0.8666,61.3821
16:23:44:277,-1.5162,1.8869,9.9004,47.4892,1.3159,0.1565,0.7953,61.3821
16:23:44:294,-1.4634,1.5162,8.5623,47.3297,1.004,-0.7314,0.5281,61.3821
16:23:44:314,-1.2614,0.6307,9.0217,47.0613,0.2523,-1.3478,0.2821,61.3821
16:23:44:333,-0.8965,-0.2812,10.4548,47.0002,-0.2374,-1.1796,0.1363,61.3821
16:23:44:353,-0.6122,-0.7878,11.0146,47.0712,-0.346,-0.3439,0.0649,61.3821
16:23:44:374,-0.6765,-0.5525,10.6835,46.8047,-0.3567,0.5291,0,61.3821
16:23:44:393,-1.1611,0.3598,9.9326,47.195,-0.3492,0.8762,-0.0319,61.3821
16:23:44:415,-1.5796,0.929,8.9073,46.8658,-0.198,0.905,0.0362,61.3821
16:23:44:434,-1.7357,1.0752,7.7649,46.8997,0.016,0.8315,0.2214,61.3821
16:23:44:454,-1.8191,1.3054,6.7461,47.0675,0.2278,0.7112,0.5227,61.3821
16:23:44:475,-1.6106,1.5745,6.0631,46.9509,0.395,0.5941,0.8091,61.3821
16:23:44:494,-1.4679,2.1207,5.4563,46.5417,0.5451,0.4653,0.9497,61.2832
16:23:44:514,-1.2864,2.628,4.8783,46.5445,0.5217,0.2885,0.9305,61.1516
16:23:44:533,-1.1726,2.7592,4.8869,46.4498,0.3311,0.0266,0.7889,60.99
16:23:44:553,-0.8928,2.6875,5.887,46.0222,0.0096,-0.4078,0.6665,60.8028
16:23:44:574,-0.3141,2.154,7.8406,46.039,-0.2555,-0.8166,0.511,60.5918
16:23:44:593,-0.1758,1.9311,9.8498,46.0966,-0.3194,-0.8411,0.2821,60.368
16:23:44:632,0.1131,1.7271,11.1131,46.2047,-0.1533,-0.5174,0.116,60.1413
16:23:44:634,0.5092,1.5716,11.5103,46.2119,-0.066,-0.2087,-0.0681,59.92
16:23:44:653,0.7033,1.5743,11.8792,46.2806,-0.2321,-0.0916,-0.3024,59.71
16:23:44:677,0.1777,2.2578,12.3363,46.2654,-0.3982,0.2108,-0.4727,59.523
16:23:44:693,-0.3854,2.913,12.6932,46.1924,-0.3013,0.5888,-0.4961,59.3611
16:23:44:714,-0.8579,3.3698,11.8575,46.3171,0.0128,0.8815,-0.4344,59.2241
16:23:44:733,-1.4336,4.096,10.6604,46.3901,0.1959,0.8815,-0.313,59.1069
16:23:44:753,-1.5948,4.1434,10.4081,46.286,-0.0064,0.1235,-0.2214,59.0012
16:23:44:775,-1.2394,2.9558,11.4454,46.1432,-0.1778,-0.6175,-0.2608,58.8988
16:23:44:794,-1.166,1.324,12.2274,45.6172,0.0554,-0.7027,-0.3322,58.8032
16:23:44:814,-1.4918,0.5932,11.7489,45.08,0.2917,-0.4929,-0.2715,58.8032
16:23:44:833,-1.4825,0.4114,11.2313,44.7946,0.1703,-0.4354,-0.0788,58.8032
16:23:44:853,-0.6903,0.3489,11.1953,44.5698,-0.0575,-0.3684,0.0798,58.8032
16:23:44:873,0.3399,0.0842,10.7316,44.66,-0.0362,-0.0841,-0.0032,58.8032
16:23:44:895,0.5044,0.1107,9.3712,44.4044,0.1533,0.3907,-0.2172,58.8032
16:23:44:915,0.0033,0.4454,7.5317,44.351,0.2481,0.7602,-0.3535,58.8032
16:23:44:934,-0.6035,0.8282,6.3212,44.4172,0.2183,0.8134,-0.3545,58.8032
16:23:44:954,-0.9074,1.245,5.643,44.2032,0.1863,0.4983,-0.2321,58.8032
16:23:44:975,-0.9902,1.6969,5.3608,44.2503,0.214,0.1246,-0.0671,58.8032
16:23:44:996,-0.6933,2.1973,4.9224,44.4882,0.2246,0.0224,0.0937,58.8032
16:23:45:015,-0.5256,2.9043,4.9404,44.3735,0.0692,0.0958,0.1448,58.8032
16:23:45:034,-0.5703,3.8847,5.7161,44.5276,-0.1533,0.0862,0.099,58.8032
16:23:45:055,-1.0367,4.4789,7.2589,44.6781,-0.1916,-0.1214,0.0575,58.8032
16:23:45:074,-1.0476,4.0723,8.4982,44.6452,0.0202,-0.2843,0.0979,58.8032
16:23:45:094,-0.8929,3.6242,9.2214,44.6429,0.2129,-0.3418,0.148,58.8032
16:23:45:116,-0.9235,3.5345,9.9748,44.3662,0.2555,-0.3066,0.1863,58.8032
16:23:45:135,-0.8593,3.4636,10.6895,44.0715,0.2715,-0.198,0.1948,58.8032
16:23:45:154,-0.8198,3.3485,11.1534,44.1249,0.2545,-0.1011,0.1416,58.8032
16:23:45:177,-0.6551,3.0974,11.4193,44.0436,0.0649,-0.099,0.0703,58.8032
16:23:45:195,-0.5287,2.6822,12.3186,44.0472,-0.2704,-0.1001,-0.0106,58.8032
16:23:45:216,-0.8356,2.4687,13.803,44.4178,-0.329,0.1139,0.0511,58.8032
16:23:45:234,-1.1453,2.4157,14.245,44.4386,0.2598,0.6388,0.3577,58.8032
16:23:45:254,-1.1252,2.6977,12.4942,44.1725,1.0221,0.8719,0.6175,58.8032
16:23:45:277,-1.2481,3.152,10.0422,44.2345,1.3755,0.2566,0.61,58.7103
16:23:45:295,-1.3096,2.9219,7.9207,43.9478,1.1828,-0.6005,0.3897,58.5878
16:23:45:314,-1.3706,2.6011,7.1758,43.5571,0.478,-1.0104,0.1554,58.4513
16:23:45:333,-1.1441,1.9625,8.1221,43.7845,-0.3183,-0.8038,-0.0596,58.3203
16:23:45:353,-1.0139,1.4626,9.7924,43.3482,-0.7623,-0.2938,-0.1693,58.2082
16:23:45:374,-0.8315,1.2646,10.6756,43.1964,-0.6601,0.0671,-0.2875,58.1161
16:23:45:393,-0.8289,0.9903,10.1899,42.967,-0.4227,0.1554,-0.4322,58.1161
16:23:45:414,-1.2902,0.9214,9.2251,42.9229,-0.2662,0.2097,-0.4376,58.1161
16:23:45:434,-1.557,0.8568,8.262,42.841,-0.1533,0.3098,-0.2875,58.1161
16:23:45:453,-1.8462,1.1841,7.343,43.0426,0.0064,0.4408,-0.0341,58.1161
16:23:45:474,-1.8306,1.5268,6.3725,43.3014,0.1842,0.4929,0.2598,58.1161
16:23:45:493,-1.637,2.0684,5.1347,43.4063,0.28,0.4418,0.4461,58.1161
16:23:45:514,-1.4988,2.7463,4.3271,43.3275,0.2044,0.1608,0.4919,58.1161
16:23:45:533,-1.2426,3.2418,4.1215,43.1297,-0.0341,-0.2864,0.4173,58.1161
16:23:45:553,-1.0228,3.5536,5.1148,43.4131,-0.4919,-0.626,0.3268,58.0132
16:23:45:574,-0.7254,3.3089,7.0441,43.1605,-0.8294,-0.6878,0.1735,57.9028
16:23:45:594,-0.55,2.931,9.0562,43.3136,-0.8858,-0.5121,-0.0075,57.7917
16:23:45:615,-0.4617,2.4026,10.4753,43.3891,-0.6601,-0.2183,-0.1725,57.6868
16:23:45:633,-0.4771,2.2661,11.365,43.5151,-0.461,-0.1757,-0.2949,57.5902
16:23:45:654,-0.1996,1.8112,12.3261,43.3945,-0.4503,-0.4578,-0.3992,57.5902
16:23:45:678,-0.0666,1.3498,13.3458,43.3185,-0.4195,-0.4706,-0.4195,57.5902
16:23:45:693,-0.0468,1.5959,13.6394,43.4429,-0.2704,0.0852,-0.346,57.5902
16:23:45:714,-0.3407,2.3513,13.0327,43.497,0.0756,0.7378,-0.296,57.5902
16:23:45:734,-0.8381,3.2184,11.2836,43.5963,0.3684,1.0625,-0.3183,57.5902
16:23:45:756,-1.1113,3.3595,10.1203,43.5318,0.1373,0.5621,-0.4322,57.5902
16:23:45:777,-1.2624,2.2516,10.9438,43.4911,-0.2353,-0.2715,-0.4897,57.5902
16:23:45:794,-1.3159,1.0979,11.6851,43.1136,-0.0085,-0.3024,-0.2949,57.5902
16:23:45:815,-1.3986,0.9646,10.8261,42.7501,0.3386,-0.0905,-0.0202,57.5902
16:23:45:834,-0.9218,1.0922,9.7219,42.7112,0.1852,-0.247,0.164,57.5902
16:23:45:855,-0.0203,1.2524,9.7446,42.5881,-0.2491,-0.4631,0.1405,57.5902
16:23:45:874,0.4357,1.2826,10.1765,42.4086,-0.4354,-0.3237,-0.0394,57.5902
16:23:45:894,0.3529,1.1548,9.8754,42.1442,-0.2843,0.1405,-0.2523,57.5902
16:23:45:915,-0.2201,1.1012,8.5947,41.9846,-0.0277,0.5195,-0.3535,57.5902
16:23:45:938,-0.7006,1.2474,7.2096,42.0142,0.1192,0.4791,-0.3205,57.5902
16:23:45:954,-0.7065,1.4114,6.1533,42.1156,0.1405,0.23,-0.2427,57.5902
16:23:45:973,-0.5166,1.5615,5.6654,42.2946,0.0809,0.0511,-0.2002,57.5902
16:23:45:994,-0.3358,1.5724,5.6319,42.5122,0.0234,0.115,-0.1906,57.5902
16:23:46:015,-0.5124,2.0364,5.8899,42.3048,0.0011,0.2002,-0.1757,57.5902
16:23:46:034,-0.6833,2.4049,6.0192,42.3951,-0.082,0.1746,-0.1501,57.5902
16:23:46:055,-0.7226,2.6884,6.5799,42.4655,-0.2715,-0.0117,-0.115,57.6806
16:23:46:074,-0.6962,2.7628,7.7605,42.5823,-0.3982,-0.313,-0.0649,57.7714
16:23:46:094,-0.6126,2.7881,9.1054,42.7654,-0.3811,-0.4759,0.0298,57.7714
16:23:46:114,-0.3476,2.7542,10.3382,42.7051,-0.2608,-0.4525,0.0948,57.7714
16:23:46:135,-0.2626,2.6937,11.2786,42.6767,-0.1065,-0.2065,0.0873,57.7714
16:23:46:154,-0.3867,2.6884,11.5227,42.311,0.0064,0.0426,0.0649,57.7714
16:23:46:177,-0.5542,2.805,11.7458,42.0289,-0.1086,0.0649,0.0309,57.7714
16:23:46:193,-0.6868,2.5572,12.7068,42.0403,-0.2545,-0.0437,-0.0245,57.7714
16:23:46:214,-0.9831,2.1527,13.5908,42.2185,-0.1033,0.1097,0.0575,57.7714
16:23:46:234,-1.3962,2.53,13.3265,42.3406,0.3897,0.5632,0.2928,57.7714
16:23:46:253,-1.1918,2.7739,11.7176,42.3749,0.7144,0.5025,0.3897,57.7714
16:23:46:277,-0.7536,1.9332,10.7044,42.4802,0.5164,-0.3886,0.0948,57.7714
16:23:46:294,-1.1877,1.1451,10.9022,42.294,0.3002,-0.9603,-0.1831,57.7714
16:23:46:314,-1.5474,0.5351,10.5535,42.0304,0.3801,-0.6548,-0.2002,57.7714
16:23:46:334,-1.9007,0.7292,9.3425,42.0262,0.3524,-0.2129,-0.1288,57.7714
16:23:46:353,-2.0855,1.195,8.4931,41.8181,0.0213,-0.1363,-0.1139,57.7714
16:23:46:374,-1.8703,1.3129,8.7233,41.5616,-0.3854,-0.3907,-0.1576,57.7714
16:23:46:394,-1.456,0.9572,9.2985,41.6734,-0.5483,-0.4865,-0.1863,57.7714
16:23:46:418,-1.2724,0.7144,9.2764,41.8035,-0.3737,-0.3641,-0.1139,57.7714
16:23:46:434,-1.1382,0.7888,8.3385,42.0187,-0.0916,-0.1118,0.0468,57.864
16:23:46:455,-1.158,1.2628,7.1176,42.3164,0.1107,0.1022,0.2662,57.864
16:23:46:474,-1.0206,1.767,6.2723,42.1616,0.2033,0.1842,0.4386,57.864
16:23:46:494,-0.8705,2.2003,5.5845,42.0577,0.2342,0.1341,0.4493,57.864
16:23:46:515,-0.8416,2.4236,5.3038,42.2344,0.1703,-0.0873,0.378,57.864
16:23:46:535,-0.7513,2.548,5.5345,42.1205,0.0277,-0.3769,0.2757,57.864
16:23:46:554,-0.3976,2.3594,6.4169,42.28,-0.1395,-0.6228,0.1533,57.864
16:23:46:574,-0.1353,2.428,7.8876,42.1593,-0.3268,-0.6973,0.0607,57.864
16:23:46:594,0.1844,2.2029,9.4983,42.0967,-0.2843,-0.5664,-0.0884,57.864
16:23:46:646,0.0807,2.1534,10.535,42.1393,-0.1544,-0.231,-0.2896,57.864
16:23:46:647,0.2132,1.7828,10.8062,42.2497,-0.1672,0.0085,-0.4589,57.864
16:23:46:655,0.0294,1.3813,11.6129,42.0224,-0.4301,0.1224,-0.6601,57.864
16:23:46:676,-0.6319,1.2417,12.7499,41.8211,-0.4716,0.5121,-0.6441,57.864
16:23:46:694,-1.0696,1.3313,13.0609,41.8609,-0.1789,0.9582,-0.4482,57.9715
16:23:46:714,-1.3085,1.97,12.2297,41.7659,0.0735,1.0615,-0.2459,58.0931
16:23:46:734,-0.5402,2.1618,11.7485,41.6399,-0.2332,0.5557,-0.1948,58.2196
16:23:46:753,0.0846,1.0072,13.1885,41.8195,-0.5611,-0.28,-0.3758,58.3462
16:23:46:776,-0.3194,0.2071,14.1594,42.1454,-0.0873,-0.2033,-0.231,58.4766
16:23:46:793,-0.7228,0.1206,13.0614,42.067,0.4812,-0.0043,0.0713,58.6084
16:23:46:815,-0.6404,0.6965,11.4846,42.1516,0.5206,-0.2928,0.33,58.7296
16:23:46:833,0.1455,1.0048,10.7888,42.5842,0.3056,-0.544,0.5036,58.8376
16:23:46:853,0.8584,1.4783,10.2802,42.2826,0.1597,-0.4078,0.4312,58.8376
16:23:46:873,0.9718,1.7282,9.5662,42.154,0.1629,-0.0479,0.1746,58.8376
16:23:46:894,0.6304,1.5717,8.4492,42.0198,0.2395,0.3386,-0.0351,58.8376
16:23:46:915,0.0959,1.4683,7.3901,41.893,0.3013,0.4993,-0.1299,58.8376
16:23:46:934,-0.1593,1.3778,6.6224,41.8883,0.3577,0.4184,-0.1512,58.8376
16:23:46:953,-0.2733,1.2968,6.0434,41.9539,0.4738,0.164,-0.1618,58.8376
16:23:46:975,-0.3494,1.4246,5.3612,41.8355,0.5898,-0.0554,-0.1405,58.8376
16:23:46:993,-0.0565,1.5532,4.6944,41.6875,0.577,-0.0841,-0.0809,58.8376
16:23:47:014,0.4293,1.7584,4.4075,41.438,0.3726,-0.0075,-0.1341,58.9291
16:23:47:034,0.3544,2.1185,4.9946,41.3062,-0.0096,-0.0926,-0.2821,59.0265
16:23:47:054,-0.1494,2.9629,6.3107,41.1948,-0.3694,-0.3141,-0.4131,59.1331
16:23:47:073,-0.3579,3.2372,8.032,41.2544,-0.5845,-0.4812,-0.4472,59.2525
16:23:47:093,-0.5897,3.3342,9.7922,40.8902,-0.6973,-0.577,-0.4535,59.3848
16:23:47:113,-1.1035,3.3592,11.3574,40.787,-0.5302,-0.2981,-0.3045,59.5311
16:23:47:133,-1.4124,3.4409,11.9579,40.6539,-0.1863,0.0586,-0.0628,59.6859
16:23:47:153,-1.2667,3.6494,11.7058,40.6222,-0.0937,0.1735,0.1799,59.8396
16:23:47:177,-0.6836,3.2894,12.3397,40.6896,-0.2757,0.0064,0.2289,59.9857
16:23:47:193,-0.5818,2.6784,13.8164,40.5414,-0.2651,-0.1214,0.1544,60.1183
16:23:47:216,-0.9726,2.1014,14.359,40.832,0.1874,0.0884,0.2736,60.2388
16:23:47:236,-1.0855,2.0073,13.1828,40.6648,0.791,0.3535,0.477,60.3438
16:23:47:253,-0.7926,1.6499,11.3848,40.6495,0.9454,-0.0681,0.4312,60.3438
16:23:47:279,-0.6005,0.9016,10.3642,40.9032,0.5866,-0.5824,0.231,60.3438
16:23:47:293,-0.9317,0.4642,10.252,40.8387,0.2726,-0.3961,0.1512,60.3438
16:23:47:315,-1.3835,0.3327,9.5831,40.8593,0.1821,0.0628,0.2289,60.3438
16:23:47:333,-1.7206,0.9947,8.3793,40.9209,0.0362,0.297,0.4248,60.3438
16:23:47:355,-1.289,1.8265,7.7009,40.8223,-0.2246,0.0575,0.5376,60.3438
16:23:47:374,-0.6554,2.1645,7.7894,40.6579,-0.5025,-0.3162,0.3929,60.3438
16:23:47:393,-0.4425,2.0051,8.1075,40.4315,-0.5866,-0.1938,0.1725,60.3438
16:23:47:414,-0.7921,1.39,8.1992,40.3139,-0.4248,0.1427,0.0862,60.3438
16:23:47:434,-1.0442,0.9049,7.7463,40.3253,-0.1118,0.3971,0.2406,60.3438
16:23:47:454,-0.9269,0.7438,7.0193,40.5171,0.1182,0.3652,0.477,60.3438
16:23:47:475,-0.5227,1.0239,6.6167,40.6373,0.2236,0.1512,0.6047,60.3438
16:23:47:494,-0.2154,1.4458,6.5177,40.4493,0.2864,0.017,0.5345,60.3438
16:23:47:514,-0.1394,1.6605,6.6474,40.7332,0.2385,-0.016,0.3822,60.3438
16:23:47:533,-0.2051,1.6365,7.1788,40.5454,0.0149,-0.05,0.2151,60.3438
16:23:47:553,-0.291,1.5878,8.3203,40.5703,-0.1948,-0.1544,0.1267,60.2481
16:23:47:573,-0.3294,1.8412,9.5135,40.8951,-0.2789,-0.0894,0.1086,60.1523
16:23:47:593,-0.2652,2.2976,10.0804,40.8237,-0.083,-0.016,0.0586,60.0566
16:23:47:615,0.0375,2.2951,10.1583,41.1492,-0.1011,-0.0841,-0.0085,59.9604
16:23:47:635,0.3633,2.1037,11.2575,41.3549,-0.3886,-0.2853,-0.1491,59.8674
16:23:47:654,0.2242,2.4241,12.7503,41.3505,-0.5036,-0.132,-0.1693,59.8674
16:23:47:677,0.2814,2.5786,13.7315,41.3829,-0.2332,0.2704,-0.1267,59.8674
16:23:47:694,0.146,2.858,13.3403,41.3299,0.1533,0.51,-0.1597,59.8674
16:23:47:714,0.6488,2.4094,12.8812,41.3112,0.0628,0.0809,-0.2885,59.8674
16:23:47:733,0.8743,1.1653,13.628,41.1915,-0.0862,-0.4141,-0.4301,59.8674
16:23:47:753,0.9727,0.2273,13.8799,41.0778,0.2864,-0.2587,-0.3364,59.8674
16:23:47:777,0.9147,-0.0417,12.2839,41.0112,0.7719,0.0458,-0.1533,59.8674
16:23:47:794,0.8856,0.728,10.1916,40.5653,0.8645,0.1086,0.05,59.8674
16:23:47:815,1.2151,1.623,8.816,40.0127,0.5898,-0.082,0.1075,59.8674
16:23:47:834,1.4992,2.1606,8.0108,39.6867,0.2183,-0.1278,-0.0234,59.8674
16:23:47:856,1.3849,2.2478,7.3421,39.6452,0.0468,0.083,-0.2949,59.8674
16:23:47:874,0.7981,2.127,6.5626,39.7618,-0.0106,0.3407,-0.544,59.8674
16:23:47:894,0.1162,1.9404,5.9523,40.325,-0.0202,0.2853,-0.7069,59.8674
16:23:47:915,-0.5105,1.9374,5.6441,40.437,-0.0415,0.1054,-0.7282,59.8674
16:23:47:937,-0.8808,1.993,5.588,40.6522,0.0128,-0.0724,-0.6313,59.8674
16:23:47:953,-0.5888,1.8968,5.4889,40.8072,0.1118,-0.1533,-0.4599,59.8674
16:23:47:973,-0.0541,1.9407,5.7056,40.6765,0.1256,-0.2278,-0.4141,59.8674
16:23:47:993,0.0471,2.5146,6.1603,40.4466,0.0202,-0.2278,-0.4631,59.9691
16:23:48:016,0.0178,2.7114,6.8107,40.6053,-0.1938,-0.1661,-0.5323,60.0871
16:23:48:034,0.063,2.4112,7.8601,40.6641,-0.4429,-0.2012,-0.5387,60.2238
16:23:48:054,-0.0348,2.3328,9.1842,40.5733,-0.5866,-0.1672,-0.4525,60.3786
16:23:48:073,-0.3385,2.6354,10.4763,40.7815,-0.4642,0.0532,-0.329,60.5484
16:23:48:093,-0.6489,3.2029,11.1591,40.8561,-0.2491,0.1884,-0.2076,60.7258
16:23:48:114,-0.6222,3.4017,11.4424,41.1255,-0.1757,0.1682,-0.1672,60.905
16:23:48:134,-0.4333,3.002,12.0826,41.1614,-0.2906,0.0468,-0.1938,61.0849
16:23:48:153,-0.769,2.6573,13.2393,41.2237,-0.2672,0.0649,-0.1799,61.2667
16:23:48:177,-1.2641,2.6537,13.3386,41.0589,0.1469,0.4088,0.0075,61.4506
16:23:48:193,-1.3607,2.5054,12.2903,41.3845,0.4865,0.3119,0.1043,61.6265
16:23:48:214,-1.114,1.6478,11.6304,41.2736,0.4631,-0.4557,-0.0394,61.7872
16:23:48:233,-1.0871,0.7535,11.3865,41.4139,0.2875,-0.8645,-0.165,61.9378
16:23:48:253,-1.1838,0.2249,11.3188,41.383,0.1725,-0.6462,-0.165,62.0909
16:23:48:273,-1.1766,0.1012,10.919,41.1117,0.0809,-0.3364,-0.0735,62.2498
16:23:48:293,-0.8136,0.2056,10.2131,41.0129,-0.0639,-0.082,0.017,62.4118
16:23:48:314,-0.2777,0.3251,9.7337,41.2659,-0.2875,-0.0692,-0.0149,62.5729
16:23:48:334,-0.3567,0.9042,9.5525,41.1124,-0.4088,0.0383,-0.1097,62.7325
16:23:48:353,-0.6048,1.2876,8.8837,41.4748,-0.2662,0.2789,-0.1554,62.8933
16:23:48:376,-0.8658,1.2939,7.6889,41.8489,-0.0085,0.4141,-0.1256,63.0543
16:23:48:393,-1.2247,1.4865,6.4606,41.9515,0.1959,0.3726,0.0415,63.2131
16:23:48:414,-1.0849,1.5343,5.552,41.7775,0.2896,0.181,0.2736,63.3639
16:23:48:434,-0.8874,1.8853,5.2374,41.4496,0.2502,-0.1011,0.378,63.4993
16:23:48:453,-0.5618,2.1711,5.4857,41.5815,0.0724,-0.313,0.3364,63.6164
16:23:48:474,-0.0643,1.9781,6.1623,41.467,-0.198,-0.4014,0.1895,63.7187
16:23:48:494,0.2793,1.7544,7.4735,41.4006,-0.5749,-0.4386,-0.0405,63.8141
16:23:48:514,0.2282,1.623,9.2765,41.6686,-0.7889,-0.2853,-0.2672,63.912
16:23:48:534,-0.0268,1.4835,10.8293,41.6388,-0.658,0.1448,-0.4205,64.0203
16:23:48:554,-0.3094,1.1385,11.3551,41.3993,-0.2459,0.4791,-0.461,64.1409
16:23:48:575,-0.4015,1.0159,11.262,41.3911,-0.0128,0.3535,-0.4067,64.2729
16:23:48:594,-0.6241,1.7134,11.3303,41.2817,0.016,0.0937,-0.3599,64.4108
16:23:48:615,-0.7984,2.4897,11.6931,41.5122,-0.0021,0.3098,-0.3002,64.5584
16:23:48:663,-0.8876,2.6939,11.954,41.6024,0.1203,0.6303,-0.2576,64.715
16:23:48:665,-1.094,3.0579,11.6827,41.7804,0.2821,0.7208,-0.1916,64.8774
16:23:48:677,-1.0556,3.4277,11.2289,41.9904,0.2246,0.4727,-0.1821,65.0413
16:23:48:693,-0.1754,2.2539,11.6274,42.1894,-0.0713,-0.1767,-0.346,65.2046
16:23:48:715,-0.1571,0.9407,12.354,42.5301,-0.0362,-0.3854,-0.5217,65.3718
16:23:48:735,-0.442,0.0977,12.0835,42.8594,0.263,-0.2332,-0.4557,65.5489
16:23:48:753,-0.5428,-0.1876,11.1391,43.0048,0.4163,-0.2236,-0.247,65.7365
16:23:48:773,0.1634,-0.2607,10.424,43.0518,0.2523,-0.3865,-0.0319,65.9285
16:23:48:793,1.1741,0.0592,10.1018,42.934,-0.0224,-0.4429,-0.0106,66.1196
16:23:48:815,1.5092,0.6729,9.9435,42.704,-0.1331,-0.3449,-0.2108,66.3079
16:23:48:833,1.3225,1.1536,9.1236,42.5711,-0.0426,0.0245,-0.4642,66.4993
16:23:48:853,0.6732,1.4531,7.7568,42.6233,0.1022,0.2651,-0.643,66.7013
16:23:48:876,0.0305,1.7007,6.4929,42.8415,0.1597,0.2789,-0.6718,66.92
16:23:48:894,-0.2378,1.8275,5.6233,42.9046,0.1565,0.0426,-0.6356,67.1545
16:23:48:914,-0.3672,1.8961,5.3717,42.9191,0.0948,-0.2694,-0.6005,67.4034
16:23:48:933,-0.393,1.8107,5.584,43.1833,0.0522,-0.4259,-0.5632,67.6656
16:23:48:953,-0.4023,1.8764,5.8416,43.1155,-0.0128,-0.3524,-0.5174,67.941
16:23:48:975,-0.4438,2.0555,6.3438,43.2627,-0.1661,-0.2119,-0.4535,68.2296
