Time,Acc_X,Acc_Y,Acc_Z,Meg,Gyr_X,Gyr_Y,Gyr_Z,Ore
14:47:31:066,-1.1323,1.6325,9.8117,59.0183,0.1746,0.1384,0.3662,212.59
14:47:31:085,-1.3714,1.6994,10.0816,58.9482,0.1501,0.2044,0.461,216.83
14:47:31:105,-1.4848,1.838,10.2429,59.0014,0.2012,0.2183,0.6313,216.1
14:47:31:125,-1.586,2.0489,10.1949,59.2197,0.2513,0.2502,0.8549,215.59
14:47:31:145,-1.2817,2.2203,10.3424,59.3725,0.1182,0.049,1.0189,214.93
14:47:31:165,-0.3463,1.5237,11.3793,59.5882,-0.2938,-0.7357,0.7996,214.03
14:47:31:185,-0.2129,1.1503,12.825,59.5524,-0.6058,-1.2339,0.362,213.07
14:47:31:205,-0.076,0.2184,13.2174,59.4035,-0.5057,-0.7516,0.1437,212.41
14:47:31:225,-0.3756,-0.386,12.3161,59.5233,-0.231,0.0745,0.2555,211.87
14:47:31:245,-0.9996,-0.0214,10.7862,59.4271,0.132,0.8272,0.5834,211.35
14:47:31:265,-1.0998,0.0376,9.4424,59.4336,0.5472,1.2265,0.7804,210.76
14:47:31:285,-1.2571,0.4103,8.4058,59.4479,0.8666,1.0774,0.7506,209.93
14:47:31:305,-1.6235,0.7663,7.6875,59.6669,1.004,0.478,0.6441,209.06
14:47:31:325,-1.6821,0.8162,7.2249,59.5619,0.9433,-0.2917,0.5355,208.38
14:47:31:345,-1.3469,0.7806,7.0514,59.4646,0.6388,-0.8613,0.3684,207.99
14:47:31:365,-1.0408,0.8045,7.4161,59.4463,0.1512,-0.9933,0.1576,207.72
14:47:31:385,-1.0114,0.7697,8.0476,59.3413,-0.2811,-0.6281,0.083,207.44
14:47:31:405,-0.9994,0.7273,8.4749,59.3039,-0.4887,0.0309,0.1384,207.14
14:47:31:425,-1.1367,0.7488,8.4447,59.1718,-0.5057,0.6803,0.2268,206.73
14:47:31:445,-1.3606,1.0207,8.2779,59.3578,-0.4514,0.8783,0.329,206.19
14:47:31:465,-1.5633,1.4902,8.2822,59.5745,-0.4131,0.6718,0.444,205.64
14:47:31:485,-1.3121,1.6999,8.5024,59.2806,-0.3854,0.1948,0.4748,205.22
14:47:31:505,-0.9393,1.591,8.6786,59.3586,-0.3449,-0.1842,0.3726,204.92
14:47:31:525,-0.7643,1.582,8.7023,59.3153,-0.3002,-0.1491,0.3237,204.63
14:47:31:551,-0.7081,1.7639,8.7923,59.1943,-0.2747,0.1373,0.3811,204.3
14:47:31:565,-0.6248,1.9235,8.8869,59.4132,-0.2896,0.2843,0.4088,203.81
14:47:31:585,-0.6157,1.99,9.0151,59.289,-0.2789,0.2545,0.379,203.25
14:47:31:605,-0.4632,2.1454,9.434,59.0359,-0.2151,0.0532,0.296,202.72
14:47:31:625,-0.1361,2.1275,9.7466,58.9867,-0.1363,-0.0948,0.1214,202.34
14:47:31:645,0.044,2.0481,9.9853,58.8922,-0.1735,-0.2502,-0.1437,202.08
14:47:31:665,-0.0913,1.8187,10.1538,59.1087,-0.2523,-0.2417,-0.2864,201.98
14:47:31:686,-0.3431,1.7458,10.1759,59.2796,-0.3673,0.0138,-0.2151,202.11
14:47:31:705,-0.5599,1.8053,10.6467,59.3688,-0.4908,0.3098,-0.0575,202.33
14:47:31:725,-0.8491,2.1129,10.9258,59.3241,-0.5483,0.4759,0.0852,202.39
14:47:31:745,-1.0781,2.1701,11.046,59.287,-0.4929,0.5728,0.1469,202.35
14:47:31:765,-1.278,2.254,11.3536,59.2483,-0.313,0.5057,0.1129,202.21
14:47:31:785,-1.423,2.171,11.5347,59.2192,0.0756,0.4024,0.0117,202.06
14:47:31:806,-1.5344,2.2057,11.2435,59.0592,0.5685,0.2853,-0.0745,202.02
14:47:31:829,-1.4666,2.1903,10.4953,58.8402,0.8326,0.1597,-0.1597,202.12
14:47:31:846,-1.1812,1.6273,10.1212,58.8389,0.5653,-0.2598,-0.313,202.31
14:47:31:866,-1.0602,0.9337,10.4523,58.6094,0.2055,-0.3119,-0.4195,202.65
14:47:31:886,-1.1777,0.1313,10.7587,58.7719,0.0958,-0.0522,-0.4748,203.1
14:47:31:913,-1.5164,-0.1705,10.6435,58.7168,0.1214,0.1235,-0.4929,203.43
14:47:31:929,-1.6179,-0.5748,10.4172,59.07,0.0458,0.0053,-0.4897,203.81
14:47:31:946,-1.4262,-1.1428,10.4511,58.8854,-0.1097,-0.2587,-0.4684,204.35
14:47:31:966,-1.3556,-1.316,10.5309,58.8949,-0.1693,-0.3205,-0.445,205.05
14:47:31:986,-1.352,-1.0533,10.1962,59.0969,-0.0681,-0.1214,-0.3311,205.7
14:47:32:011,-1.4311,-0.4493,9.4129,59.1171,0.1512,0.3386,-0.1693,206.21
14:47:32:028,-1.2218,0.2548,8.1294,58.8406,0.3705,0.725,-0.0948,206.46
14:47:32:045,-1.0556,0.8084,6.8199,59.2134,0.3609,0.7559,-0.1703,206.49
14:47:32:066,-1.1699,1.2505,6.2296,58.8944,0.1384,0.4642,-0.3258,206.47
14:47:32:086,-1.4136,1.386,6.2306,59.0694,-0.0852,0.1789,-0.4344,206.66
14:47:32:111,-1.5995,1.3181,6.4806,58.8254,-0.2481,0.0447,-0.444,207.11
14:47:32:126,-1.7948,1.3811,6.8944,58.4736,-0.444,-0.0181,-0.3513,207.67
14:47:32:146,-1.8113,1.5163,7.6389,58.2963,-0.643,-0.099,-0.2662,208.21
14:47:32:166,-1.6154,1.2767,8.5211,58.2483,-0.691,-0.1288,-0.197,208.66
14:47:32:186,-1.569,1.0626,9.1519,58.1198,-0.5419,-0.0468,-0.1661,209.01
14:47:32:209,-1.6774,1.0314,9.2575,58.4149,-0.3311,0.0085,-0.1033,209.26
14:47:32:226,-1.6561,0.8182,9.1035,58.4277,-0.2055,-0.0351,0.0117,209.44
14:47:32:246,-1.6241,0.6742,9.1889,58.4392,-0.1757,-0.0649,0.2055,209.64
14:47:32:266,-1.4268,0.8765,9.368,58.5498,-0.1033,-0.1054,0.3854,209.71
14:47:32:291,-1.06,1.1207,9.3396,58.9732,-0.0011,-0.1267,0.4823,209.55
14:47:32:306,-0.8405,1.6722,9.2149,59.0162,0.0532,-0.082,0.4706,209.19
14:47:32:325,-0.8705,2.0953,9.3067,59.2501,0.033,-0.1203,0.3843,208.66
14:47:32:345,-1.0718,2.0824,9.717,59.3192,-0.0479,-0.3066,0.2747,208.09
14:47:32:368,-1.4073,1.5617,10.5441,59.3953,-0.132,-0.4056,0.2566,207.67
14:47:32:391,-1.7313,1.1529,11.3379,59.3905,-0.2332,-0.2896,0.3662,207.4
14:47:32:408,-1.8936,0.9743,12.3388,59.4272,-0.3481,-0.0554,0.5653,207.08
14:47:32:426,-2.0569,0.9946,13.073,59.524,-0.1991,0.2342,0.7932,206.55
14:47:32:447,-2.1867,1.0549,12.8785,59.6311,0.1735,0.3609,0.9603,205.79
14:47:32:466,-2.3552,0.7629,12.2654,59.3382,0.3407,0.1629,0.9635,204.84
14:47:32:492,-2.1762,-0.5306,12.2244,59.3849,0.2523,-0.4354,0.8294,203.86
14:47:32:508,-2.2011,-1.576,12.269,59.3173,0.4291,-0.6324,0.7197,203.01
14:47:32:525,-2.3965,-1.6259,11.2209,59.4386,0.7474,-0.4365,0.7623,202.29
14:47:32:546,-2.2459,-1.2162,9.5835,59.5887,0.6707,-0.2811,0.8411,201.44
14:47:32:566,-1.7468,-0.9257,8.6897,59.5817,0.2321,-0.2193,0.7996,200.48
14:47:32:590,-1.1563,-0.7012,8.5765,59.6182,-0.1469,-0.1001,0.5451,199.43
14:47:32:606,-1.0715,-0.7347,8.3919,59.7122,-0.28,0.1459,0.2832,198.39
14:47:32:626,-1.3007,-0.7583,7.8533,59.4718,-0.3396,0.4344,0.1512,197.5
14:47:32:646,-1.5027,-0.5568,7.1774,59.4714,-0.4184,0.6952,0.2023,196.9
14:47:32:674,-1.3628,-0.0808,6.7705,59.5611,-0.5259,0.8475,0.363,196.5
14:47:32:690,-1.0171,0.3612,6.7187,59.6923,-0.6154,0.8113,0.4716,196.14
14:47:32:707,-0.7139,0.5949,6.9139,59.7437,-0.6218,0.5802,0.4684,195.7
14:47:32:726,-0.5003,0.4537,7.2786,60.1329,-0.5302,0.23,0.4418,195.25
14:47:32:746,-0.2819,0.307,7.5951,60.5486,-0.3503,-0.1086,0.4557,194.9
14:47:32:773,-0.1254,0.4068,7.798,60.4154,-0.2821,-0.2864,0.4003,194.63
14:47:32:789,-0.1598,0.7973,8.1236,60.852,-0.3545,-0.3694,0.2193,194.26
14:47:32:806,-0.1412,0.7612,8.5679,60.9756,-0.4663,-0.3237,-0.0373,193.85
14:47:32:827,-0.481,0.8035,9.3519,61.102,-0.5632,-0.1714,-0.3066,193.53
14:47:32:846,-1.2238,0.7748,10.4935,61.2046,-0.4876,-0.05,-0.4631,193.41
14:47:32:872,-1.6557,0.6191,11.2014,61.2621,-0.329,0.0649,-0.4674,193.59
14:47:32:886,-1.9521,0.5916,11.8009,61.475,-0.2992,0.1395,-0.395,194.03
14:47:32:906,-1.9531,0.7547,12.5671,61.339,-0.3503,0.1554,-0.3226,194.53
14:47:32:926,-1.7697,0.5796,13.5098,61.4477,-0.346,0.0394,-0.3045,194.98
14:47:32:946,-1.8188,0.4125,14.191,61.7083,-0.0937,-0.016,-0.2704,195.42
14:47:32:972,-2.0495,0.7032,14.0602,61.604,0.2481,0.0639,-0.1405,195.86
14:47:32:985,-1.7143,0.5563,13.6313,61.7685,0.2608,0.0681,-0.0202,196.21
14:47:33:006,-1.1384,-0.958,13.7262,61.9634,0.3833,-0.165,-0.0639,196.38
14:47:33:026,-1.344,-1.7638,12.548,62.2046,1.0359,-0.0437,-0.0224,196.51
14:47:33:100,-1.8124,-1.5773,10.1081,62.2884,1.465,0.198,0.1075,196.67
14:47:33:106,-1.9325,-1.0732,8.1851,62.4145,1.1424,0.2193,0.2129,196.62
14:47:33:107,-1.4096,-1.1043,7.8449,62.4749,0.3577,-0.1852,0.1778,196.43
14:47:33:107,-1.0226,-1.218,8.6542,62.1795,-0.1831,-0.4376,-0.0224,196.3
14:47:33:126,-1.0557,-1.1178,9.1865,62.3984,-0.1522,-0.1576,-0.2353,196.3
14:47:33:148,-1.5049,-0.7862,8.4835,62.3364,0.0894,0.3854,-0.3322,196.21
14:47:33:166,-1.9049,-0.5183,7.2149,62.4879,0.1522,0.8411,-0.3215,196.15
14:47:33:186,-2.2957,-0.1851,6.2499,62.3916,0.0011,1.0508,-0.2832,196.19
14:47:33:207,-2.5871,0.0614,6.0131,62.3177,-0.2183,1.0135,-0.165,196.36
14:47:33:225,-2.5915,0.0298,6.3008,62.2836,-0.3439,0.8145,0.0447,196.66
14:47:33:248,-2.3582,0.052,6.9761,62.0066,-0.3119,0.5334,0.2491,196.99
14:47:33:267,-2.0169,0.2995,7.534,61.9462,-0.2108,0.1554,0.3492,197.17
14:47:33:286,-1.6729,0.5859,7.885,62.0327,-0.0916,-0.066,0.3428,197.18
14:47:33:306,-1.4732,0.6753,7.9764,62.0283,0,-0.0437,0.3183,197
14:47:33:326,-1.4932,0.8755,7.9392,62.0777,-0.0735,0.1054,0.3002,196.65
14:47:33:347,-1.5667,1.0582,8.3954,62.3783,-0.3098,0.1341,0.2672,196.19
14:47:33:366,-1.6576,0.9376,9.4337,62.4363,-0.4024,0.0958,0.3396,195.75
14:47:33:387,-1.6565,0.8616,10.4064,62.8234,-0.297,-0.0511,0.4269,195.44
14:47:33:406,-1.6796,1.1709,10.9507,62.8587,-0.1597,-0.0969,0.5494,195.14
14:47:33:426,-1.6972,1.4758,11.3024,63.0608,-0.0905,-0.0798,0.6271,194.73
14:47:33:445,-1.7978,1.6439,11.4552,63.3569,-0.0649,-0.0788,0.6154,194.1
14:47:33:466,-1.9817,1.6078,11.6793,63.2291,-0.1576,-0.0926,0.5919,193.36
14:47:33:485,-2.2341,1.344,12.3838,63.1372,-0.2598,-0.0554,0.5696,192.62
14:47:33:506,-2.6653,1.202,13.0083,63.2962,-0.0926,0.2129,0.6654,191.92
14:47:33:533,-2.8143,1.2104,12.7079,63.1747,0.1363,0.3726,0.8123,191.13
14:47:33:545,-2.3894,0.779,12.3491,63.4435,0.1235,0.1757,0.6399,190.19
14:47:33:566,-2.5391,-0.5252,12.3521,63.7459,0.2406,-0.1746,0.1852,189.29
14:47:33:586,-3.1704,-1.3913,11.4981,63.8282,0.6388,-0.1938,0.0064,188.64
14:47:33:606,-3.52,-1.628,9.7562,63.8445,0.8304,0.0511,0.0532,188.45
14:47:33:628,-3.5388,-1.1111,8.2109,63.4472,0.5749,0.2619,0.132,188.29
14:47:33:649,-3.3678,-0.5422,7.5368,63.3542,0.1341,0.3471,0.0617,188.08
14:47:33:665,-3.079,-0.7208,7.3262,63.2547,-0.2012,0.4376,-0.115,187.82
14:47:33:686,-3.0261,-0.977,7.281,62.964,-0.4195,0.4056,-0.247,187.72
14:47:33:705,-3.1301,-0.898,7.3312,62.7299,-0.5366,0.2906,-0.2129,187.78
14:47:33:733,-3.1253,-0.8262,7.2971,62.567,-0.5366,0.2598,0.0224,188.12
14:47:33:746,-2.7388,-0.7282,7.2318,62.716,-0.4259,0.247,0.2928,188.46
14:47:33:765,-2.0995,-0.4821,7.0892,62.6899,-0.2576,0.1799,0.5302,188.5
14:47:33:786,-1.6823,-0.0057,6.993,62.6599,-0.066,0.0798,0.6643,188.24
14:47:33:806,-1.2114,0.4442,6.9535,62.8903,0.0554,-0.0522,0.7261,187.7
14:47:33:829,-0.7639,0.6337,7.108,62.6615,0.0351,-0.3162,0.6707,186.99
14:47:33:846,-0.3854,0.934,7.6769,62.4756,-0.1661,-0.4908,0.4567,186.24
14:47:33:866,-0.4441,1.8063,8.8003,62.3163,-0.2683,-0.5589,0.1299,185.59
14:47:33:885,-0.4849,2.2803,9.8451,62.3048,-0.2012,-0.3694,-0.2033,185.09
14:47:33:906,-0.6538,2.2884,10.517,62.2331,-0.0394,-0.1043,-0.5866,184.8
14:47:33:926,-1.4465,2.3283,10.7857,62.2672,0.0916,0.1863,-0.906,184.79
14:47:33:947,-2.2134,2.2788,11.0189,62.334,0.1416,0.3066,-1.0923,185.18
14:47:33:967,-2.8035,1.9974,11.3764,62.3544,0.1331,0.1757,-1.2307,186.04
14:47:33:986,-3.1811,1.2836,11.975,62.6771,0.165,-0.0852,-1.3159,187.32
14:47:34:012,-3.6712,0.3945,12.3894,62.3874,0.3279,-0.1906,-1.2776,188.93
14:47:34:026,-4.3096,0.0719,12.1529,62.4538,0.4791,0.1001,-0.9891,190.64
14:47:34:046,-4.7519,0.5375,11.4859,62.2714,0.3268,0.5089,-0.5951,192.13
14:47:34:066,-4.5969,0.0163,11.6405,62.0329,-0.0373,0.2917,-0.3439,193.12
14:47:34:087,-4.0162,-1.3307,11.8239,61.8024,0.0224,-0.0405,-0.2246,193.85
14:47:34:107,-4.0177,-1.8446,10.9721,61.5097,0.4887,0.0192,-0.0575,194.64
14:47:34:126,-4.1284,-1.7082,9.5517,61.3516,0.7144,-0.0394,0.1948,195.01
14:47:34:146,-3.8198,-1.5189,8.6418,61.2258,0.5004,-0.4056,0.3886,195.09
14:47:34:166,-3.0569,-1.6482,8.5917,60.6633,0.0319,-0.9103,0.395,195.07
14:47:34:186,-2.1044,-1.6659,8.9406,60.5448,-0.2779,-1.0221,0.3386,194.99
14:47:34:210,-1.3767,-1.3536,9.198,60.372,-0.3045,-0.7602,0.1597,194.75
14:47:34:226,-1.1945,-0.8276,8.9228,60.1546,-0.0862,-0.4152,-0.0181,194.27
14:47:34:246,-1.0978,-0.392,7.963,60.3488,0.1554,0.0426,-0.0926,193.82
14:47:34:266,-1.1453,0.1168,7.0194,60.4613,0.1916,0.3311,-0.1448,193.51
14:47:34:286,-1.381,0.5227,6.6419,60.3121,0.1203,0.3492,-0.1682,193.35
14:47:34:310,-1.5002,0.7937,6.499,60.1842,0.0948,0.1757,-0.0788,193.4
14:47:34:326,-1.3922,1.1173,6.402,60.0451,0.0745,0.0021,-0.016,193.66
14:47:34:346,-1.4929,1.5308,6.6176,59.5988,-0.0064,-0.1512,-0.0319,193.92
14:47:34:365,-1.5923,1.6501,7.2008,59.4305,-0.148,-0.3726,-0.0234,194.05
14:47:34:393,-1.4516,1.4884,8.0198,59.3252,-0.2385,-0.4876,-0.0021,194.2
14:47:34:405,-1.4631,1.4324,8.8985,59.1078,-0.2726,-0.4067,0.0309,194.37
14:47:34:426,-1.5758,2.0389,9.7581,58.9937,-0.2694,-0.2002,0.1682,194.4
14:47:34:446,-1.1906,2.3081,10.5531,58.8226,-0.247,0.0447,0.2438,194.28
14:47:34:466,-0.7608,2.2343,11.2939,58.7048,-0.132,0.1373,0.0894,193.97
14:47:34:493,-0.7771,2.0036,11.6709,58.5634,0.0447,0.1544,-0.1278,193.59
14:47:34:506,-1.2685,1.3302,12.1321,58.2235,0.1597,0.0394,-0.2076,193.39
14:47:34:526,-1.7759,0.516,12.6995,58.0166,0.3194,-0.1267,-0.0628,193.52
14:47:34:546,-2.2131,0.351,12.5193,57.7311,0.5568,-0.0852,0.1948,193.87
14:47:34:565,-2.6714,0.7725,11.6911,57.4216,0.6452,0.1757,0.4759,194.09
14:47:34:586,-3.0861,1.5791,10.9387,57.2461,0.5195,0.3992,0.725,193.84
14:47:34:606,-2.578,1.3177,10.7984,57.1201,0.2225,0.0245,0.7538,193.16
14:47:34:625,-1.9454,-0.1817,11.3168,57.0123,0.0894,-0.5643,0.3982,192.39
14:47:34:646,-2.0875,-1.434,11.1677,56.4988,0.3992,-0.609,0.083,191.88
14:47:34:665,-2.515,-1.9085,9.9917,56.2365,0.7421,-0.411,0.0639,191.52
14:47:34:686,-2.7231,-1.6421,8.5597,55.9614,0.7165,-0.3109,0.2321,191.3
14:47:34:707,-2.3812,-1.0366,7.765,55.4173,0.2768,-0.4887,0.3641,191.17
14:47:34:726,-1.8009,-0.6195,7.7859,55.1086,-0.2704,-0.7378,0.3098,191.02
14:47:34:746,-1.3974,-0.4669,8.1305,55.0406,-0.51,-0.6409,0.1821,190.86
14:47:34:774,-1.4024,-0.1854,8.1022,54.7241,-0.4493,-0.2757,0.132,190.6
14:47:34:791,-1.4575,0.2396,7.739,54.4754,-0.3481,-0.0043,0.2193,190.24
14:47:34:805,-1.2053,0.4571,7.4417,54.3312,-0.3684,0.0522,0.3364,189.88
14:47:34:826,-0.8676,0.6338,7.3742,54.1796,-0.3716,0.0894,0.4216,189.58
14:47:34:846,-0.4705,0.7837,7.2445,54.0274,-0.2545,0.2033,0.4748,189.21
14:47:34:873,-0.3138,0.8368,7.196,53.8093,-0.1054,0.1469,0.4908,188.69
14:47:34:886,-0.1554,1.054,7.0806,53.5186,-0.0075,-0.0586,0.4727,188.11
14:47:34:906,-0.1989,1.4196,7.4266,53.5469,-0.0319,-0.3034,0.4152,187.64
14:47:34:926,-0.1123,1.6221,8.1209,53.1391,-0.1107,-0.4589,0.3162,187.23
14:47:34:946,0.1488,1.6473,9.0093,52.5456,-0.1916,-0.4589,0.1011,186.9
14:47:34:968,0.1593,1.611,9.8139,52.2403,-0.2044,-0.2587,-0.2204,186.58
14:47:34:986,-0.3755,1.4837,10.377,52.1046,-0.1214,0.049,-0.5078,186.35
14:47:35:006,-1.1613,1.5144,10.5428,51.5398,-0.0979,0.4024,-0.7048,186.34
14:47:35:026,-2.053,1.4518,10.7617,51.5574,-0.2598,0.6154,-0.8751,186.62
14:47:35:054,-3.2492,1.2732,11.3953,51.2799,-0.494,0.6846,-0.9273,187.17
14:47:35:068,-4.2767,0.8281,12.3821,50.9343,-0.511,0.6973,-0.6878,188.03
14:47:35:085,-4.2903,1.3069,12.8353,50.7514,-0.197,0.7644,-0.1916,189.08
14:47:35:170,-3.7576,1.6436,12.0377,50.2594,-0.0703,0.8326,0.2385,189.95
14:47:35:170,-2.7459,1.4809,12.141,50.2031,-0.4951,0.3907,0.5046,190.27
14:47:35:171,-1.3952,-0.3161,13.7128,49.5421,-0.6367,-0.2555,0.56,190.22
14:47:35:172,-0.293,-1.6257,13.6562,49.0154,0.0969,-0.4205,0.5653,190.11
14:47:35:186,0.2344,-1.6989,12.0734,48.6865,0.6942,-0.0969,0.5504,189.81
14:47:35:206,0.5784,-1.19,10.33,48.2044,0.6856,0.0511,0.5249,188.99
14:47:35:226,1.2369,-0.9323,9.545,48.0248,0.2502,-0.1246,0.3002,188.14
14:47:35:248,1.6121,-0.7934,9.797,47.7888,-0.0862,-0.2789,-0.1331,187.54
14:47:35:266,1.3461,-0.5432,9.6441,47.9142,0.1011,-0.165,-0.5611,187.26
14:47:35:286,0.5949,-0.2567,8.7674,47.8838,0.3247,0.1341,-0.8059,187.34
14:47:35:306,-0.1155,0.1163,7.5478,47.9018,0.4163,0.3716,-0.8741,187.69
14:47:35:325,-0.6522,0.5553,6.702,47.8479,0.3173,0.4472,-0.8751,188.4
14:47:35:351,-1.147,0.9129,6.3733,47.4893,0.1554,0.3609,-0.7932,189.28
14:47:35:368,-1.317,1.1005,6.5459,47.2805,0.0447,0.1789,-0.6399,190.32
14:47:35:387,-1.3357,1.0848,6.8509,46.8496,0.0809,-0.1022,-0.5249,191.36
14:47:35:406,-1.2619,1.2582,7.2202,46.4544,0.1427,-0.3801,-0.4599,192.33
14:47:35:426,-0.9708,1.2561,7.5093,46.6196,0.1554,-0.5728,-0.4322,193.17
14:47:35:446,-0.8954,1.2879,7.873,46.347,0.0798,-0.5419,-0.4567,193.92
14:47:35:465,-1.0672,1.351,8.259,46.3643,-0.0043,-0.3471,-0.4418,194.5
14:47:35:486,-1.3099,1.5424,8.7923,46.2869,-0.0894,-0.2161,-0.3811,194.97
14:47:35:505,-1.4131,1.6124,9.4658,46.2048,-0.1491,-0.2204,-0.2768,195.38
14:47:35:525,-1.3858,1.621,10.3439,46.1703,-0.1086,-0.3396,-0.1672,195.81
14:47:35:547,-1.3445,1.7671,10.9202,46.0959,0.0351,-0.412,-0.0628,196.23
14:47:35:565,-1.2604,1.7445,11.1644,46.0949,0.1086,-0.4493,0.0351,196.55
14:47:35:585,-1.1628,1.8344,11.3442,46.3395,0.0266,-0.4408,0.1416,196.71
14:47:35:608,-0.8131,1.7439,11.8072,46.2049,-0.1054,-0.362,0.2715,196.72
14:47:35:626,-0.6198,1.9676,12.2967,46.0143,-0.0532,-0.1267,0.3332,196.57
14:47:35:646,-0.9777,2.7602,12.2304,45.9397,0.1608,0.1501,0.3418,196.21
14:47:35:666,-1.154,3.0482,11.9781,45.7604,0.0564,-0.1065,0.2651,195.66
14:47:35:685,-0.3813,1.0858,12.7124,45.6687,-0.2747,-0.6484,-0.049,195.24
14:47:35:705,-0.4332,-0.9014,13.7237,45.5973,-0.099,-0.5962,-0.4163,195.2
14:47:35:727,-1.3729,-1.6707,13.1604,45.6345,0.5217,-0.1373,-0.4642,195.35
14:47:35:746,-2.0437,-1.8364,11.3769,45.9719,0.8911,0.131,-0.2108,195.57
14:47:35:766,-2.083,-1.6063,9.7903,46.2484,0.8389,0.0628,0.1033,195.93
14:47:35:800,-1.4374,-1.4892,8.7127,46.4746,0.5632,-0.1097,0.2502,196.23
14:47:35:810,-0.8085,-1.6494,8.2195,46.5534,0.3024,-0.1341,0.1789,196.29
14:47:35:825,-0.6356,-1.5879,7.6989,46.7222,0.2225,0.083,0.0468,196.08
14:47:35:848,-0.7788,-1.2314,6.7719,46.476,0.2183,0.3801,-0.0138,195.78
14:47:35:865,-1.1333,-0.6502,5.7708,46.6408,0.1011,0.6377,0.016,195.49
14:47:35:885,-1.5074,0.1293,5.0786,47.0361,-0.1043,0.7825,0.1288,195.27
14:47:35:907,-1.7483,1.0479,4.7603,46.8673,-0.3449,0.8123,0.2353,195.06
14:47:35:927,-2.0044,1.7826,5.0803,47.3658,-0.6037,0.6058,0.2587,194.8
14:47:35:945,-1.9957,1.824,6.1051,47.3277,-0.7783,0.1565,0.2491,194.51
14:47:35:965,-1.7228,1.5219,7.3352,47.4843,-0.708,-0.1608,0.2289,194.37
14:47:35:987,-1.5909,1.5433,8.1165,47.2763,-0.5238,-0.1491,0.2012,194.34
14:47:36:007,-1.5828,1.4453,8.7946,47.4829,-0.5355,-0.0032,0.148,194.18
14:47:36:025,-1.5213,1.1566,9.5011,47.4667,-0.6058,0.3247,0.1129,193.89
14:47:36:045,-1.6134,1.1004,10.1936,47.8327,-0.6367,0.5856,0.0809,193.53
14:47:36:065,-1.922,1.0825,10.8138,48.0206,-0.6186,0.6303,0.1033,193.14
14:47:36:085,-2.039,1.0991,11.4492,48.4041,-0.6005,0.5036,0.214,192.97
14:47:36:105,-1.8237,1.1671,12.2343,48.2497,-0.642,0.2449,0.3247,192.9
14:47:36:125,-1.4692,1.0035,13.5005,48.3421,-0.6494,-0.0607,0.3961,192.83
14:47:36:145,-0.6697,1.845,14.6943,48.2541,-0.329,-0.2065,0.4418,192.69
14:47:36:165,0.3276,2.2597,14.3928,48.7653,0.1214,-0.0128,0.1608,192.42
14:47:36:186,0.3244,2.5542,13.4691,48.8549,0.1554,0.2843,0.0724,191.89
14:47:36:205,0.4142,1.0511,14.0474,49.14,0.1288,-0.1043,-0.0767,191.42
14:47:36:227,0.2638,-0.9696,13.3047,49.2833,0.6995,-0.3865,-0.2172,191.3
14:47:36:245,-0.8781,-1.4397,11.5857,49.4852,1.1977,0.0256,-0.2278,191.75
14:47:36:265,-1.8132,-0.9068,9.7741,49.5041,1.1605,0.2257,-0.0798,191.85
14:47:36:285,-1.7985,-0.7493,8.9699,49.8857,0.5951,-0.2566,-0.0053,191.88
14:47:36:305,-1.3631,-1.2967,9.1895,49.9399,-0.0681,-0.8304,-0.0969,192.11
14:47:36:325,-1.0228,-1.6671,9.8332,49.8779,-0.346,-0.9529,-0.2076,192.54
14:47:36:345,-0.9131,-1.6646,9.569,50.1416,-0.1874,-0.4706,-0.2726,192.89
14:47:36:368,-1.1846,-1.2446,8.6863,50.2293,0.1459,0.0149,-0.2662,192.99
14:47:36:386,-1.5219,-0.6249,7.0884,50.2233,0.3992,0.4141,-0.2129,192.96
14:47:36:405,-1.8037,-0.1531,5.7813,50.3437,0.3194,0.4759,-0.1565,193
14:47:36:425,-1.9586,0.2089,5.1796,50.5358,0.0692,0.3343,-0.0277,193.1
14:47:36:445,-1.935,0.4717,5.3083,50.5673,-0.115,0.0575,0.1554,193.33
14:47:36:465,-1.642,0.7834,5.966,50.609,-0.1938,-0.4216,0.3726,193.52
14:47:36:485,-0.8728,1.1372,6.8359,50.5464,-0.1246,-0.7964,0.5962,193.65
14:47:36:506,0.0713,1.3404,7.4304,50.6996,0.017,-0.741,0.7069,193.61
14:47:36:525,0.5179,1.97,7.6481,50.8409,0.0979,-0.4035,0.643,193.14
14:47:36:545,0.5696,2.6501,7.7439,50.7075,-0.0639,-0.116,0.5068,192.22
14:47:36:566,0.4785,2.7979,8.5437,50.7838,-0.4046,-0.0362,0.297,191.23
14:47:36:585,0.0791,2.5741,10.1839,50.9308,-0.5142,-0.1331,0.0969,190.47
14:47:36:606,-0.2441,2.1142,11.1742,50.7833,-0.2896,-0.2268,0.0149,190.06
14:47:36:626,-0.4676,1.884,11.4632,50.8583,-0.0703,-0.2438,0.0341,189.99
14:47:36:645,-0.6461,1.8845,11.5504,50.9231,-0.0532,-0.1938,0.0756,190.01
14:47:36:666,-0.699,1.7858,12.1588,51.0509,-0.1576,-0.1608,0.115,189.98
14:47:36:686,-0.8952,1.4016,13.4937,51.1738,-0.1746,-0.1927,0.1459,189.87
14:47:36:705,-1.2105,1.0916,14.5126,51.3251,0.1171,-0.0021,0.3024,189.75
14:47:36:725,-1.5782,1.459,14.2645,51.2935,0.5579,0.5121,0.5643,189.6
14:47:36:748,-1.7753,2.1449,13.2516,51.3781,0.7357,0.6526,0.6792,189.06
14:47:36:766,-1.4679,1.339,12.9097,51.5584,0.5249,0.1522,0.5632,188.2
14:47:36:786,-1.1601,-0.1267,13.3451,51.2841,0.5068,-0.2257,0.3151,187.57
14:47:36:805,-1.3509,-1.0397,12.864,51.2964,0.8145,-0.0884,0.1278,187.22
14:47:36:828,-1.7794,-1.3059,11.5587,51.1075,0.8964,0.1256,0.0522,186.85
14:47:36:848,-1.8921,-1.4928,10.4236,50.961,0.6356,0.2427,0.0798,186.51
14:47:36:867,-1.5595,-1.8857,9.6014,50.6725,0.2715,0.3854,0.066,186.29
14:47:36:885,-1.3151,-2.0838,8.9099,50.7399,0.016,0.5941,0.0075,186.15
14:47:36:905,-1.2499,-1.922,7.9598,50.2626,-0.0106,0.84,0.0351,185.9
14:47:36:925,-1.2902,-1.3507,6.7208,50.2995,0.0841,1.0135,0.2044,185.66
14:47:36:945,-1.2087,-0.5785,5.6024,50.2263,0.1597,0.9497,0.4653,185.37
14:47:36:965,-0.7885,0.1061,4.9641,49.7803,0.1767,0.7144,0.6707,185.05
14:47:36:985,-0.1007,0.7065,4.8717,49.8214,0.1831,0.428,0.6792,184.57
14:47:37:005,0.3403,1.2359,4.8324,49.6816,0.2566,0.3588,0.4983,183.93
14:47:37:025,0.3799,1.5897,4.5248,49.5556,0.2736,0.3002,0.2694,183.16
14:47:37:046,0.1146,1.9919,4.3408,49.7401,0.0628,0.1842,0.0437,182.47
14:47:37:074,-0.2855,2.2449,4.6476,49.8109,-0.3024,0.0437,-0.1757,182.07
14:47:37:085,-0.5386,2.1956,5.4227,49.9733,-0.691,0.0149,-0.3513,182.04
14:47:37:105,-0.7389,1.8518,6.5634,49.6505,-0.9571,0.083,-0.5323,182.26
14:47:37:126,-1.1035,1.6266,7.8468,49.3249,-1.0455,0.115,-0.6824,182.65
14:47:37:146,-1.5837,1.5491,9.0012,49.0964,-0.9997,0.0586,-0.7889,183.18
14:47:37:166,-2.0516,1.441,9.9357,48.9948,-0.9092,-0.0639,-0.8507,183.93
14:47:37:233,-2.594,1.4156,10.9473,48.7566,-0.8645,-0.1874,-0.8102,184.9
14:47:37:234,-2.9046,1.3298,12.1414,48.788,-0.823,-0.2821,-0.6494,185.97
14:47:37:235,-2.8817,1.1988,13.5671,48.6923,-0.6942,-0.2726,-0.4589,187.03
14:47:37:253,-2.7712,1.2004,14.5451,48.4124,-0.3013,-0.0266,-0.2768,187.89
14:47:37:266,-2.8685,1.4734,14.4269,48.092,0.2481,0.3918,-0.0979,188.4
14:47:37:285,-3.5129,2.6187,13.3007,48.1536,0.5589,0.6803,0.1129,188.51
14:47:37:306,-3.3534,3.1783,12.5472,47.9267,0.2033,0.4227,0.2481,188.39
14:47:37:326,-1.6506,1.0492,13.6233,47.7553,-0.247,-0.082,0.1512,188.29
14:47:37:348,-1.0323,-0.8749,14.1595,47.9139,0.2832,-0.082,-0.1246,188.41
14:47:37:368,-1.8007,-1.0604,12.1423,47.7466,0.9294,0.3822,-0.1544,188.39
14:47:37:386,-2.4067,-0.5305,10.04,47.4508,0.7527,0.445,-0.1011,188.18
14:47:37:406,-2.326,-0.9176,9.5755,47.2973,0.0969,0.0564,-0.0181,188.14
14:47:37:426,-1.6026,-1.6479,10.1957,47.0466,-0.3066,-0.3247,-0.0085,188.44
14:47:37:453,-1.1023,-1.9172,10.4865,46.7534,-0.2023,-0.2843,-0.131,188.82
14:47:37:466,-1.1802,-1.4582,9.455,46.5069,0.2151,0.0948,-0.1703,188.97
14:47:37:486,-1.3121,-0.7051,7.5443,46.482,0.5132,0.4621,-0.116,188.92
14:47:37:507,-1.3867,0.246,5.7287,46.3378,0.5174,0.5898,-0.1182,188.82
14:47:37:528,-1.3829,0.8307,4.7336,46.0153,0.3119,0.4844,-0.148,188.78
14:47:37:547,-1.3259,1.0185,4.4249,45.9437,0.1192,0.3173,-0.148,188.9
14:47:37:566,-1.3428,1.254,4.6309,45.4764,-0.0181,0.082,-0.0852,189.16
14:47:37:586,-1.3041,1.7487,5.1764,45.1299,-0.1565,-0.1576,-0.0522,189.47
14:47:37:606,-1.3159,1.9523,5.8295,45.1727,-0.2747,-0.2779,-0.0724,189.78
14:47:37:629,-1.1933,2.0364,6.499,44.9062,-0.4088,-0.231,-0.1107,189.97
14:47:37:646,-1.3138,2.1612,7.211,44.6377,-0.5792,-0.0479,-0.247,190.12
14:47:37:666,-1.8786,1.9032,8.2105,44.3033,-0.7421,0.1437,-0.2992,190.17
14:47:37:686,-2.2522,1.389,9.472,44.1674,-0.8304,0.2385,-0.2119,190.3
14:47:37:706,-2.5269,1.0506,10.6316,44.1814,-0.8315,0.2353,-0.0234,190.57
14:47:37:733,-2.6424,0.9762,11.9272,43.9173,-0.7591,0.0692,0.2108,190.82
14:47:37:745,-2.6263,0.632,13.1513,43.9292,-0.4748,-0.1363,0.4354,190.98
14:47:37:766,-2.4712,0.4231,13.7247,44.0536,-0.016,-0.3354,0.6335,190.92
14:47:37:786,-2.2537,0.6161,13.4209,43.7498,0.2949,-0.4333,0.8081,190.56
14:47:37:805,-2.0787,1.3883,13.0382,43.5679,0.4312,-0.3599,0.906,189.92
14:47:37:826,-1.9158,2.0471,12.6786,42.8816,0.4269,-0.313,0.8326,188.97
14:47:37:846,-1.3652,1.3783,12.7114,42.681,0.2619,-0.5515,0.4929,187.81
14:47:37:866,-1.2439,-0.0725,13.0028,42.5624,0.3087,-0.6047,-0.0106,186.87
14:47:37:886,-1.8486,-0.9712,12.1425,42.2725,0.5866,-0.2896,-0.3194,186.34
14:47:37:906,-2.4761,-1.3193,10.5246,42.3946,0.675,0.1086,-0.4195,186.09
14:47:37:931,-3.0168,-1.2891,9.3784,42.4315,0.3407,0.1746,-0.4184,186.11
14:47:37:947,-3.1081,-1.4122,9.2158,42.1805,-0.1767,-0.0969,-0.3662,186.42
14:47:37:966,-2.7265,-2.0466,9.6699,41.9497,-0.4227,-0.3726,-0.3077,187.05
14:47:37:986,-2.4653,-2.394,9.5473,41.7065,-0.1938,-0.4823,-0.1831,187.74
14:47:38:014,-2.2509,-2.0802,8.3138,41.5222,0.2225,-0.395,0.1171,188.27
14:47:38:025,-1.9205,-1.3038,6.55,41.2639,0.4099,-0.2321,0.4865,188.52
14:47:38:046,-1.355,-0.3738,5.2584,41.2173,0.214,-0.1065,0.7474,188.39
14:47:38:066,-0.8089,0.4697,4.9207,41.3167,-0.099,0.0405,0.8091,187.82
14:47:38:086,-0.3797,0.861,5.2063,41.0504,-0.214,0.2119,0.6963,186.96
14:47:38:108,-0.4523,1.2208,5.5604,41.3186,-0.2161,0.131,0.4738,185.89
14:47:38:125,-0.9411,1.6243,5.9756,41.7275,-0.2257,-0.0043,0.2747,184.99
14:47:38:146,-1.5013,1.9179,6.6247,41.6388,-0.2811,-0.0106,0.2033,184.47
14:47:38:166,-1.3415,1.5998,7.5418,41.5362,-0.4748,-0.1235,0.0937,184.13
14:47:38:185,-1.2388,1.3329,9.1078,41.2495,-0.6697,-0.2342,-0.1533,183.92
14:47:38:211,-1.4567,0.871,11.0402,41.2197,-0.5728,-0.2374,-0.3769,183.9
14:47:38:226,-1.9098,0.2878,12.0153,41.0671,-0.2438,0.0085,-0.4802,184.06
14:47:38:247,-2.5294,0.1919,12.1706,40.9944,-0.1267,0.2736,-0.395,184.34
14:47:38:273,-2.8497,0.6307,12.4953,40.9131,-0.2843,0.4248,-0.1852,184.68
14:47:38:287,-2.7202,1.2946,13.1743,40.8942,-0.3013,0.577,0.0554,185.05
14:47:38:306,-2.34,1.2351,13.3043,40.8431,0.0309,0.6505,0.2321,185.26
14:47:38:326,-2.4481,1.9901,12.5408,40.6819,0.4195,0.6218,0.4056,185.18
14:47:38:346,-2.4119,2.9527,11.5606,40.7748,0.3258,0.378,0.5185,184.92
14:47:38:366,-1.2129,1.5831,12.0556,40.7573,-0.1608,-0.0138,0.4535,184.55
14:47:38:387,-0.6822,-0.7173,13.1821,40.9331,-0.016,-0.2033,0.1735,184.26
14:47:38:406,-1.1061,-1.3717,12.5209,41.3803,0.511,0.0894,-0.0415,183.98
14:47:38:425,-1.6581,-1.3712,10.8769,41.4955,0.6037,0.3694,-0.0735,183.58
14:47:38:445,-1.6362,-1.6001,9.9295,41.7353,0.2151,0.2289,-0.0564,183.3
14:47:38:466,-0.9928,-2.1137,9.8548,41.8562,-0.2523,-0.1288,-0.1118,183.35
14:47:38:488,-0.3502,-2.1755,9.8776,41.8209,-0.3833,-0.1821,-0.3034,183.7
14:47:38:505,-0.4243,-1.8026,9.1785,41.4195,-0.1469,0.0884,-0.527,184.02
14:47:38:526,-0.7463,-1.1164,7.8208,41.227,0.1182,0.3897,-0.5856,184.23
14:47:38:546,-0.9091,-0.4842,6.3812,41.1389,0.1416,0.5015,-0.6164,184.56
14:47:38:566,-1.1038,-0.0847,5.7033,41.0518,-0.049,0.3758,-0.6271,185.02
14:47:38:592,-1.2117,0.2593,5.5012,40.9291,-0.1746,0.2843,-0.5579,185.86
14:47:38:606,-1.3361,0.5137,5.6351,41.4077,-0.1501,0.1682,-0.4354,186.74
14:47:38:626,-1.3916,0.8105,5.9165,41.3496,-0.1075,-0.0277,-0.2821,187.51
14:47:38:646,-1.2465,1.0165,6.4976,41.4747,-0.1746,-0.2726,-0.2417,188.17
14:47:38:666,-1.0913,1.0856,7.4132,41.4666,-0.2811,-0.494,-0.3311,188.71
14:47:38:691,-1.3017,1.0961,8.335,41.2868,-0.2938,-0.3875,-0.4578,189.19
14:47:38:706,-1.9267,0.8635,9.1827,41.1223,-0.2449,-0.0862,-0.4259,189.59
14:47:38:726,-2.346,0.7399,9.6849,40.9709,-0.1735,0.1235,-0.2076,189.92
14:47:38:746,-2.4187,0.9954,10.1951,41.171,-0.2183,0.1703,0.016,190.26
14:47:38:773,-2.5961,1.0438,11.3899,40.9732,-0.2332,-0.0607,0.2108,190.48
14:47:38:790,-2.336,0.6945,12.2132,41.3721,0.0532,-0.3982,0.4014,190.58
14:47:38:806,-2.0555,0.6881,12.4073,41.3183,0.4056,-0.7293,0.5707,190.61
14:47:38:826,-1.9866,0.997,12.4544,41.3591,0.5962,-0.9869,0.7027,190.36
14:47:38:846,-1.8672,1.0923,12.433,41.3173,0.6569,-1.1104,0.7335,189.85
14:47:38:873,-2.0329,1.3213,12.1761,41.2721,0.6633,-0.774,0.823,189.16
14:47:38:886,-1.9441,1.2226,12.0024,41.0948,0.494,-0.4408,0.9081,188.19
14:47:38:905,-1.4982,0.4584,12.2187,41.1116,0.1884,-0.5227,0.6707,186.95
14:47:38:925,-1.3147,-0.4503,12.5407,41.3615,0.1384,-0.6409,0.2821,185.83
14:47:38:946,-1.4778,-1.3159,11.9796,41.5518,0.362,-0.5089,0.0106,185.1
14:47:38:966,-1.8354,-1.5368,10.6942,41.5393,0.4599,-0.2513,-0.0745,184.67
14:47:38:985,-1.9267,-1.4684,9.6011,41.6767,0.2002,-0.2023,-0.0649,184.43
14:47:39:006,-1.7302,-1.4693,9.043,41.5702,-0.2513,-0.3737,-0.1544,184.4
14:47:39:026,-1.5419,-1.5209,8.5982,41.4994,-0.511,-0.3961,-0.263,184.58
14:47:39:046,-1.385,-1.4234,7.9324,41.2126,-0.5068,-0.181,-0.2726,184.84
14:47:39:066,-1.3023,-1.1674,7.0003,41.6342,-0.5142,0.2002,-0.1544,185.07
14:47:39:085,-1.2391,-0.8638,6.3894,41.7815,-0.6739,0.4631,0.0522,185.19
14:47:39:105,-1.062,-0.4567,6.2007,41.5321,-0.84,0.6047,0.2757,185.18
14:47:39:125,-1.1368,-0.1763,6.3416,41.7263,-0.8038,0.6537,0.445,185.07
14:47:39:146,-1.4234,0.2595,6.9522,42.1475,-0.5643,0.3971,0.5132,184.77
14:47:39:165,-1.2984,0.4009,7.5251,41.9199,-0.1842,0.0011,0.6005,184.36
14:47:39:186,-1.0572,0.4706,7.6007,42.1413,0.0458,-0.2065,0.6175,184.05
14:47:39:206,-1.4494,0.5045,8.267,41.8837,-0.0106,-0.4961,0.6516,183.58
14:47:39:228,-1.0262,-0.0817,9.128,41.9246,-0.0958,-0.7538,0.7442,182.97
14:47:39:338,-0.0854,-0.1484,10.4022,41.9225,-0.1129,-0.9742,0.6196,182.44
14:47:39:339,0.4746,0.2202,10.8587,41.9543,0.0894,-0.6015,0.2981,181.86
14:47:39:339,0.2393,0.416,10.6222,42.04,0.2481,0.0053,0.0958,180.92
14:47:39:340,-0.1204,0.7193,10.2773,42.309,0.1352,0.2087,-0.0405,180.03
14:47:39:340,-0.2316,1.1595,10.7106,42.5237,-0.3183,0.1735,-0.1214,179.5
14:47:39:354,-0.1393,1.1493,12.1586,42.8009,-0.6058,0.1288,-0.1735,179.58
14:47:39:365,-0.0249,1.0424,13.516,42.7744,-0.5195,0.0905,-0.2662,179.78
14:47:39:386,-0.3368,0.9407,13.9615,43.203,-0.2044,0.2214,-0.3992,180.01
14:47:39:406,-0.6305,0.6552,13.8359,43.0391,-0.132,0.4802,-0.4141,180.29
14:47:39:428,-0.6664,-0.8414,14.3277,43.1946,-0.1735,0.3396,-0.4482,180.55
14:47:39:446,-1.1883,-2.0997,14.0776,43.1442,0.3056,0.3194,-0.4695,181
14:47:39:465,-2.1989,-2.4828,12.2819,43.3028,0.8751,0.6665,-0.3332,181.69
14:47:39:486,-2.7351,-2.3518,10.0898,43.44,0.8869,0.8379,0.0468,182.07
14:47:39:506,-1.932,-2.1725,9.1297,43.5697,0.4599,0.4259,0.4365,182.31
14:47:39:526,-0.2311,-1.7701,9.2525,43.7501,0.0447,-0.2864,0.511,182.47
14:47:39:547,0.5635,-1.2321,9.9355,44.0871,-0.0426,-0.5015,0.3024,182.64
14:47:39:566,0.8228,-0.6848,9.5438,44.0903,0.3247,-0.3662,0.0852,182.36
14:47:39:586,0.6747,-0.1973,8.0523,44.4312,0.5824,0.0085,-0.1395,181.95
14:47:39:606,0.1583,0.1679,6.5763,44.4247,0.5621,0.2587,-0.2736,181.54
14:47:39:634,-0.1009,0.4403,5.7611,44.6202,0.3449,0.3396,-0.313,181.42
14:47:39:646,-0.3022,0.7359,5.7115,44.592,0.132,0.3258,-0.2917,181.61
14:47:39:666,-0.2023,0.8736,5.8315,44.8404,0.1235,0.3535,-0.3162,181.99
14:47:39:685,-0.1355,0.8998,5.8897,45.0782,0.1416,0.3418,-0.4216,182.35
14:47:39:706,-0.309,1.1122,6.0335,45.3918,0.0862,0.2502,-0.5376,182.68
14:47:39:729,-0.6631,1.1577,6.5643,45.5059,-0.1288,0.0841,-0.5366,183.21
14:47:39:746,-0.6687,1.0489,7.6106,45.6095,-0.4376,-0.1043,-0.3513,183.89
14:47:39:765,0.1995,1.0649,9.2634,45.5234,-0.6015,-0.4599,-0.0639,184.7
14:47:39:785,1.3041,1.3954,10.5665,45.8295,-0.4195,-0.6207,0.0394,185.37
14:47:39:805,2.0125,1.6815,11.4236,46.2783,-0.0617,-0.5845,-0.2023,185.72
14:47:39:827,1.4736,1.5463,11.3281,46.4508,0.2843,-0.0703,-0.6558,185.71
14:47:39:846,-0.4007,1.4029,10.6414,46.7365,0.3577,0.6782,-0.9454,185.64
14:47:39:866,-2.5194,1.0272,9.9006,47.0089,0.1767,1.3308,-1.0135,185.82
14:47:39:885,-4.3708,0.4027,9.7533,47.2009,-0.3013,1.4841,-0.8464,186.36
14:47:39:905,-5.5815,-0.1309,11.0119,47.2196,-0.7846,0.9454,-0.3268,187.3
14:47:39:925,-5.3471,-0.5326,12.8541,47.4197,-0.675,0.016,0.4088,188.59
14:47:39:945,-4.1915,-0.0183,13.252,47.6726,0.0373,-0.4291,1.0114,189.76
14:47:39:965,-2.9273,1.3205,12.3785,47.9903,0.3886,-0.8932,1.2563,189.95
14:47:39:985,-1.2745,1.1104,12.0705,48.1097,0.1852,-1.3436,0.9593,189.08
14:47:40:005,-0.5547,-0.0965,12.702,48.3673,0.0745,-1.252,0.3492,187.96
14:47:40:026,-1.0665,-1.0174,12.3425,48.4629,0.3386,-0.6399,0.0309,186.83
14:47:40:045,-1.4826,-1.6813,10.9116,48.6091,0.5834,0.0075,0.0809,185.95
14:47:40:065,-1.4961,-1.646,9.3894,49.3099,0.5068,0.296,0.3002,185.34
14:47:40:087,-1.0282,-1.1838,8.7891,49.5865,0.2002,0.1097,0.3652,184.93
14:47:40:108,-0.4873,-0.8345,8.5762,49.8006,0.0405,-0.0617,0.1363,184.63
14:47:40:125,-0.3575,-0.8369,7.9855,50.2953,0.0841,0.1267,-0.1341,184.42
14:47:40:146,-0.6492,-0.7295,6.9977,50.2951,0.099,0.3865,-0.28,184.17
14:47:40:166,-1.0317,-0.5501,6.1501,50.717,-0.0373,0.5472,-0.2875,184.08
14:47:40:185,-1.2815,-0.2999,5.785,50.6453,-0.2587,0.5121,-0.198,184.23
14:47:40:208,-1.4572,0.0768,5.964,50.8738,-0.4386,0.3748,-0.0596,184.56
14:47:40:227,-1.4433,0.3504,6.4481,50.9415,-0.4791,0.1288,0.0809,184.9
14:47:40:246,-1.2312,0.4739,6.8663,51.047,-0.4099,-0.1746,0.1608,185.16
14:47:40:266,-1.1181,0.6036,7.6617,51.2225,-0.3929,-0.5589,0.1352,185.3
14:47:40:285,-0.9903,0.4085,8.4708,51.7356,-0.3471,-0.7378,0.0767,185.35
14:47:40:306,-1.0102,0.4077,9.1024,51.6577,-0.2832,-0.5515,0.0128,185.4
14:47:40:325,-1.5227,0.9664,9.7114,51.7837,-0.3439,-0.1799,-0.1182,185.26
14:47:40:346,-2.1501,1.3236,10.5101,51.8563,-0.4738,0.1608,-0.3982,184.98
14:47:40:366,-2.9283,0.7813,11.3867,51.9237,-0.5132,0.4493,-0.6984,184.83
14:47:40:394,-3.5386,-0.1209,11.909,51.8465,-0.4408,0.6973,-0.8475,185.02
14:47:40:406,-3.7295,-0.8625,11.8075,52.0687,-0.4056,0.9827,-1.0104,185.63
14:47:40:425,-3.7617,-1.3421,11.6082,52.2304,-0.4908,1.2904,-1.0519,186.49
14:47:40:446,-3.6658,-1.2964,11.7199,52.5291,-0.5877,1.614,-0.7261,187.54
14:47:40:465,-3.068,-0.1206,12.2274,52.5302,-0.4791,1.5895,-0.115,188.73
14:47:40:486,-1.1572,0.358,12.1572,52.9927,-0.1544,0.8719,0.1022,189.79
14:47:40:505,-0.2048,-0.4776,12.3723,53.1155,-0.2704,0.083,0,190.55
14:47:40:526,0.0205,-1.3934,13.0427,52.9938,-0.0256,-0.395,-0.1661,191.22
14:47:40:546,-0.3251,-2.1808,12.4644,52.7391,0.527,-0.2278,-0.099,191.72
14:47:40:566,-0.8177,-2.0273,11.3144,52.7294,0.8507,-0.1129,0.0756,191.88
14:47:40:586,-1.0034,-1.7399,10.5255,52.5539,0.774,-0.5259,0.1948,191.78
14:47:40:605,-0.6094,-1.7449,10.4156,52.7396,0.5153,-1.1019,0.0745,191.81
14:47:40:625,-0.379,-1.854,10.6027,52.9685,0.4376,-1.3255,-0.2002,191.95
14:47:40:645,-0.4669,-1.6002,10.1885,53.1473,0.5919,-1.087,-0.4429,191.99
14:47:40:665,-0.94,-1.3309,8.9032,53.115,0.7953,-0.5941,-0.6026,192.03
14:47:40:686,-1.4903,-0.9525,7.3741,53.535,0.8389,-0.2033,-0.5632,192.09
14:47:40:706,-1.7767,-0.5025,6.2729,53.5142,0.7133,-0.0852,-0.4141,192.4
14:47:40:725,-1.828,-0.1691,5.7468,53.4566,0.593,-0.1118,-0.1991,192.89
14:47:40:745,-1.7616,0.1151,5.7013,53.6077,0.5653,-0.2151,0.0032,193.4
14:47:40:765,-1.4635,0.2298,5.9324,53.9126,0.5707,-0.3971,0.1831,193.75
14:47:40:789,-1.2118,0.5873,6.3826,53.7845,0.5536,-0.6633,0.2576,193.89
14:47:40:805,-1.3005,1.1907,6.7294,53.9522,0.5451,-0.6899,0.3173,193.89
14:47:40:825,-1.1107,1.702,7.0094,53.9483,0.3716,-0.5951,0.4056,193.73
14:47:40:846,-0.7146,2.1135,7.6443,53.9029,0.0373,-0.3673,0.4014,193.36
14:47:40:869,-0.5,2.1898,8.6278,53.9036,-0.2108,-0.1246,0.3364,192.91
14:47:40:886,-0.6395,2.0922,9.8761,53.8437,-0.2576,0.1192,0.329,192.19
14:47:40:905,-0.8025,1.9532,10.6202,53.9187,-0.0543,0.2097,0.4259,191.59
14:47:40:925,-0.8755,1.9152,10.7867,53.9949,0.197,0.2023,0.5962,191.13
14:47:40:946,-0.7863,2.1536,10.7774,54.0715,0.2427,0.0277,0.7357,190.64
14:47:40:968,-0.4221,2.6257,11.1464,54.314,0.0351,-0.296,0.7548,190.08
14:47:40:985,-0.0607,2.5477,12.1425,54.3408,-0.2108,-0.4812,0.6175,189.43
14:47:41:005,-0.1399,2.055,13.1013,54.4869,-0.1054,-0.1948,0.5174,188.79
14:47:41:025,-0.7228,2.0111,12.9183,54.2848,0.132,0.2843,0.6015,188.01
14:47:41:046,-1.0738,2.2634,12.3428,54.5438,0.0586,0.3875,0.7272,187.11
14:47:41:066,-0.6494,1.3869,12.9719,54.4319,-0.115,0.0564,0.5888,186.22
14:47:41:085,-0.6372,0.2418,13.3802,54.6723,0.1182,-0.263,0.2885,185.49
14:47:41:105,-0.8885,-0.9295,12.4904,54.677,0.478,-0.2917,0.1299,185.01
14:47:41:126,-1.0628,-1.2995,11.0025,54.5307,0.5451,-0.1363,0.1192,184.71
14:47:41:146,-0.9277,-1.2425,10.0951,54.7705,0.2821,-0.0479,0.1491,184.49
14:47:41:166,-0.5357,-1.0818,9.4713,54.7475,-0.0458,0.0617,-0.0138,184.28
14:47:41:185,-0.5318,-0.8965,8.7239,54.867,-0.2065,0.5057,-0.2566,184.09
14:47:41:205,-0.8588,-0.6716,7.7172,55.079,-0.2694,0.9582,-0.4131,183.85
14:47:41:231,-1.2399,-0.5118,6.7168,55.1048,-0.3194,1.1701,-0.4418,183.71
14:47:41:246,-1.6155,-0.382,6.0676,55.3662,-0.3247,1.1839,-0.2896,183.87
14:47:41:265,-1.7269,-0.1913,5.7656,55.6037,-0.2811,0.9529,-0.0021,184.25
14:47:41:286,-1.517,0.1083,5.6267,55.3992,-0.1469,0.5802,0.3205,184.66
14:47:41:305,-1.36,0.8007,5.7973,55.3733,-0.0319,0.2332,0.4748,184.93
14:47:41:326,-1.3596,1.2952,6.0272,54.9448,0.0096,-0.0681,0.5387,184.85
14:47:41:353,-1.2098,1.4587,6.5964,54.8251,-0.0841,-0.461,0.5153,184.53
14:47:41:401,-0.9932,1.4405,7.6173,54.7594,-0.2491,-0.7815,0.4429,184.14
14:47:41:403,-0.8281,1.604,8.7234,54.8555,-0.33,-0.7697,0.3833,183.83
14:47:41:422,-0.6996,1.7161,9.7826,55.1462,-0.2949,-0.4631,0.2949,183.47
14:47:41:432,-0.6329,1.7612,10.4143,54.8209,-0.2214,-0.1959,0.0948,182.92
14:47:41:445,-0.6793,1.8697,11.0187,54.5554,-0.3098,-0.2193,-0.1842,182.32
14:47:41:465,-0.8767,1.5899,12.162,54.4543,-0.4269,-0.3897,-0.4354,182.08
14:47:41:486,-1.0815,1.2312,13.1792,54.028,-0.4184,-0.3205,-0.5568,182.33
14:47:41:506,-1.1697,1.0007,13.9216,54.1371,-0.3503,-0.1097,-0.61,182.83
14:47:41:525,-1.2109,0.6592,14.4128,53.7431,-0.0075,0.0884,-0.6228,183.35
14:47:41:547,-1.4636,0.5225,13.6078,53.4277,0.4695,0.4056,-0.4684,183.89
14:47:41:565,-1.6791,1.4057,12.5127,53.4296,0.5919,0.5483,-0.1831,184.44
14:47:41:586,-0.7361,0.9036,12.3061,53.0415,0.511,0.0362,-0.0692,184.82
14:47:41:606,0.3765,-0.6941,11.8529,52.9294,0.8177,-0.3822,-0.1363,185.24
14:47:41:626,0.2513,-1.1937,10.3232,53.0045,1.0593,-0.0138,-0.1927,185.76
14:47:41:652,-0.5196,-0.3858,8.6909,53.131,0.9103,0.3109,-0.2055,185.89
14:47:41:666,-0.8313,-0.1994,7.7464,52.9069,0.3694,0.2917,-0.1384,185.78
14:47:41:685,-0.69,-0.3192,7.8032,52.6428,-0.2204,-0.0788,-0.1363,185.95
14:47:41:707,-0.2675,-0.5519,8.2767,52.4719,-0.6196,-0.4078,-0.263,186.29
14:47:41:727,-0.1972,-0.4175,8.6068,52.3895,-0.7091,-0.3354,-0.4408,186.74
14:47:41:745,-0.4973,-0.1489,8.4221,52.1942,-0.56,0.0192,-0.5206,187.14
14:47:41:765,-0.9173,0.0666,7.6012,52.2085,-0.3854,0.3567,-0.4855,187.45
14:47:41:785,-1.148,0.2956,6.8614,52.1604,-0.4003,0.5025,-0.4163,187.79
14:47:41:805,-1.4013,0.6569,6.7343,52.1959,-0.4418,0.4578,-0.3439,188.21
14:47:41:825,-1.479,0.9781,6.8172,52.0573,-0.3599,0.2992,-0.214,188.67
14:47:41:845,-1.3265,1.2208,6.8208,52.0206,-0.2289,0.1001,-0.1043,189.19
14:47:41:865,-1.0558,1.4104,6.9518,51.8791,-0.2566,-0.1672,-0.0234,189.6
14:47:41:886,-0.495,1.6107,7.8652,51.7873,-0.3897,-0.4972,-0.0256,189.92
14:47:41:906,-0.0976,1.6761,8.8848,51.7139,-0.4237,-0.5675,-0.1384,190.18
14:47:41:927,-0.014,1.3245,9.8025,51.6132,-0.3801,-0.3673,-0.2236,190.36
14:47:41:946,-0.2799,0.959,10.6097,51.6301,-0.2513,-0.0224,-0.1522,190.42
14:47:41:969,-0.5203,1.0663,11.0437,51.4512,0.0096,0.2651,0.0788,190.45
14:47:41:985,-0.3864,1.4505,10.9806,51.5306,0.2694,0.3396,0.2885,190.43
14:47:42:005,-0.0328,1.8052,10.7821,51.3802,0.4461,0.2151,0.3279,190.31
14:47:42:025,0.1086,2.1236,10.5543,51.0764,0.4567,-0.0916,0.1895,190.05
14:47:42:045,-0.18,2.1431,10.8119,50.9385,0.2236,-0.346,-0.0224,189.84
14:47:42:065,-0.7821,1.6782,12.0423,50.7909,0.0767,-0.2875,-0.0596,189.82
14:47:42:085,-1.3218,1.5464,12.8399,50.8646,0.2715,0.0458,0.1405,189.86
14:47:42:113,-1.5571,2.0393,12.4619,50.731,0.4099,0.2715,0.3237,189.79
14:47:42:125,-1.4733,2.0458,12.3476,50.6836,0.2587,0.0426,0.23,189.46
14:47:42:147,-1.1358,0.6759,13.1242,50.6177,0.1129,-0.5504,-0.1299,189.13
14:47:42:165,-1.4028,-0.636,13.5231,50.0993,0.2864,-0.8581,-0.4046,189.14
14:47:42:187,-1.6679,-1.7338,12.8671,49.8169,0.5643,-0.724,-0.395,189.55
14:47:42:207,-1.716,-1.9461,11.6451,49.755,0.5973,-0.5036,-0.2161,190.02
14:47:42:228,-1.2828,-1.8142,10.7262,49.4977,0.4312,-0.445,-0.0873,190.38
14:47:42:246,-0.5172,-1.7843,9.9921,49.7301,0.3599,-0.5973,-0.1224,190.62
14:47:42:266,-0.1321,-1.5025,9.1578,49.7084,0.6409,-1.0316,-0.2747,190.8
14:47:42:286,-0.3321,-0.7937,7.7602,49.7684,1.1051,-1.5757,-0.3332,191.16
14:47:42:306,-0.4285,-0.1304,6.1378,49.8501,1.2605,-1.7503,-0.1874,191.9
14:47:42:326,-0.0701,0.4947,4.9836,49.9613,1.0338,-1.3372,0.0447,192.75
14:47:42:347,0.4625,0.9318,4.5322,49.8547,0.5909,-0.6058,0.2076,193.15
14:47:42:365,0.7775,1.3643,4.5053,49.7677,0.1491,0.132,0.1991,192.93
14:47:42:386,0.7072,1.8627,4.8409,49.9233,-0.2193,0.5185,0.0245,192.28
14:47:42:406,0.3229,2.0425,5.4229,50.1055,-0.4791,0.4865,-0.115,191.59
14:47:42:425,0.2925,1.833,6.4338,49.9535,-0.7091,0.2289,-0.1661,191.27
14:47:42:445,0.3189,1.3937,7.5552,50.004,-0.8943,-0.0319,-0.2161,191.35
14:47:42:465,0.14,1.213,9.2633,50.0901,-0.9667,-0.1416,-0.2204,191.67
14:47:42:488,-0.1317,1.2625,10.652,50.1207,-0.6729,-0.1618,-0.1767,191.98
14:47:42:506,0.0525,1.1789,11.1468,50.0622,-0.3226,-0.3077,-0.0948,192.33
14:47:42:526,0.3665,1.5115,11.5602,50.1372,-0.2151,-0.6271,-0.0756,192.65
14:47:42:545,0.5984,1.9635,12.3117,50.1708,-0.2694,-0.8847,-0.1011,193.01
14:47:42:565,0.9588,2.1474,13.2584,50.2135,-0.296,-0.9177,-0.0948,193.34
14:47:42:587,1.4671,2.0755,13.8627,50.07,-0.1246,-0.5068,-0.0958,193.62
14:47:42:606,1.8149,2.6776,13.5687,50.3177,0.1916,0.2033,-0.1416,193.67
14:47:42:625,1.2983,3.0199,12.2595,50.1129,0.3311,0.6058,-0.2204,193.46
14:47:42:646,1.7061,2.9904,11.7555,50.3405,-0.0373,0.4237,-0.1863,193.25
14:47:42:666,2.9432,0.945,12.7212,50.4892,-0.1491,0,-0.3833,193.34
14:47:42:686,2.8206,-0.427,12.1761,50.9105,0.3694,0.2268,-0.5302,193.75
14:47:42:705,1.9218,-0.3761,10.5879,50.9156,0.6026,0.5249,-0.5611,194.26
14:47:42:726,1.3377,-0.2821,9.4072,51.2868,0.3173,0.6441,-0.4291,194.66
14:47:42:745,1.472,-0.8567,9.3008,51.3586,-0.1384,0.4472,-0.2768,195.13
14:47:42:765,1.9075,-1.2129,9.4134,51.1234,-0.4014,0.2395,-0.2491,195.56
14:47:42:786,1.8246,-1.0137,9.0931,51.1876,-0.3737,0.2853,-0.3865,196
14:47:42:805,1.2494,-0.586,8.1574,50.8051,-0.2981,0.5015,-0.4929,196.3
14:47:42:825,0.706,-0.1788,7.0875,50.9242,-0.3183,0.758,-0.5249,196.59
14:47:42:846,0.1447,0.241,6.4889,51.1149,-0.4248,0.8719,-0.527,196.95
14:47:42:876,-0.2127,0.7407,6.3125,51.2828,-0.4493,0.889,-0.494,197.36
14:47:42:886,-0.2934,1.0989,6.2895,51.6177,-0.3886,0.691,-0.4418,197.89
14:47:42:905,-0.2801,1.3089,6.403,51.9713,-0.3119,0.3375,-0.3971,198.51
14:47:42:925,-0.1645,1.5787,6.9691,51.9395,-0.297,-0.1139,-0.3567,199.22
14:47:42:946,0.0726,1.8568,7.9377,51.7778,-0.2342,-0.56,-0.4227,199.97
14:47:42:967,-0.0317,1.8974,8.6449,51.9373,-0.1299,-0.7527,-0.4546,200.71
14:47:42:985,0.0023,1.3978,9.2958,51.927,-0.0916,-0.7133,-0.4141,201.41
14:47:43:006,-0.1213,1.3789,10.002,51.8164,-0.0681,-0.5068,-0.2513,202
14:47:43:025,-0.0114,1.6675,10.7819,52.2693,-0.0287,-0.2438,-0.0607,202.41
14:47:43:046,0.1199,1.4836,11.2361,52.3433,0.1416,0.0437,0.099,202.61
14:47:43:067,0.1261,1.3532,11.3398,52.689,0.4621,0.1767,0.2853,202.57
14:47:43:086,-0.18,1.848,11.0025,53.1465,0.757,0.1129,0.5398,202.43
14:47:43:106,-0.3042,2.5933,10.8413,53.5574,0.7261,-0.2459,0.8102,202.22
14:47:43:126,0.4385,2.3824,11.4285,53.4755,0.4908,-0.5334,0.9188,201.87
14:47:43:146,0.8539,2.2281,12.2935,53.4882,0.2619,-0.4525,0.8698,201.26
14:47:43:166,0.7204,2.3197,12.9472,53.3783,-0.0266,-0.3449,0.8198,200.25
14:47:43:185,1.022,1.5644,13.7967,53.5066,-0.3748,-0.5004,0.791,199.13
14:47:43:206,1.8816,0.1052,15.2651,53.6985,-0.1629,-0.5302,0.6079,198.15
14:47:43:225,1.8096,-0.5737,14.4539,53.8645,0.6611,-0.1033,0.4322,197.32
14:47:43:246,0.9459,-0.0509,11.6137,53.7286,1.2467,0.494,0.4216,196.61
14:47:43:266,0.6894,0.4705,9.1477,53.3166,1.1498,0.6782,0.4046,195.86
14:47:43:286,0.5427,0.401,8.0994,53.582,0.6739,0.5898,0.2161,195.11
14:47:43:305,0.492,0.313,7.944,53.2771,0.2278,0.3992,-0.0224,194.49
14:47:43:325,0.5154,-0.2352,7.8345,53.0393,-0.016,0.3077,-0.3205,194.13
14:47:43:349,0.2732,-0.5911,7.426,53.0699,-0.1703,0.4301,-0.5068,194.06
14:47:43:369,0.021,-0.6508,7.0959,52.9288,-0.3279,0.5675,-0.5195,194.19
14:47:43:386,-0.1015,-0.5251,6.9436,52.6236,-0.4184,0.6281,-0.4514,194.59
14:47:43:441,-0.2063,-0.2742,6.9652,52.4852,-0.3056,0.6824,-0.297,195.05
14:47:43:442,-0.3078,0.056,6.6655,52.3476,-0.0266,0.7282,-0.0745,195.51
14:47:43:460,-0.4714,1.002,6.1916,51.9985,0.1214,0.6462,0.1139,195.83
14:47:43:465,-0.1354,1.6391,6.1048,52.0751,0.0053,0.3737,0.1906,195.97
14:47:43:486,0.3317,1.7542,6.5904,52.1326,-0.1171,0.0724,0.1022,195.95
14:47:43:505,0.511,1.7832,7.2294,52.0136,-0.2002,-0.2055,-0.0138,195.89
14:47:43:526,0.5205,1.954,8.0706,52.2189,-0.3098,-0.3971,-0.1501,195.9
14:47:43:547,0.5263,1.8649,8.9455,52.0621,-0.3599,-0.3769,-0.2811,196.05
14:47:43:566,0.4841,1.6535,9.557,51.8532,-0.3173,-0.2513,-0.3961,196.26
14:47:43:586,0.3509,1.6439,9.9292,51.7383,-0.2587,-0.1459,-0.51,196.53
14:47:43:606,0.188,1.9309,10.4553,51.4966,-0.1991,-0.164,-0.6047,196.89
14:47:43:630,0.1074,2.3396,10.8579,51.6562,-0.1725,-0.2672,-0.7218,197.43
14:47:43:646,0.2777,2.487,11.4273,52.0194,-0.2002,-0.2183,-0.8368,198.17
14:47:43:665,0.1965,2.4347,11.9071,51.7395,-0.1427,-0.0628,-0.9901,198.99
14:47:43:685,-0.0287,2.2568,12.2004,51.7498,0.0713,0.1895,-1.1158,199.88
14:47:43:705,-0.3243,2.1466,11.705,51.7645,0.2885,0.428,-1.1764,200.86
14:47:43:728,-0.7264,2.5151,11.0435,51.3995,0.0809,0.6154,-1.153,202
14:47:43:746,0.0218,1.6742,11.7923,51.2876,-0.3971,0.4823,-1.1424,203.2
14:47:43:765,1.1094,-0.445,13.6281,50.9827,-0.3513,0.2715,-1.4426,204.4
14:47:43:785,0.5227,-1.4219,13.3768,50.5097,0.3364,0.4333,-1.597,205.75
14:47:43:805,-0.5203,-1.3508,11.5753,50.4743,0.643,0.5206,-1.4085,207.45
14:47:43:827,-0.5908,-1.3371,10.5787,50.0494,0.2608,0.1927,-1.0838,209.32
14:47:43:845,0.655,-2.0363,11.0778,49.5285,-0.2502,-0.3599,-0.9081,211.05
14:47:43:866,1.5662,-1.999,11.9322,49.8746,-0.3471,-0.6803,-1.0125,212.59
14:47:43:885,1.9277,-2.0083,11.1009,49.5884,0.0447,-0.5004,-1.2446,213.88
14:47:43:906,1.2412,-1.6907,8.8699,49.3141,0.2726,-0.0128,-1.367,215.13
14:47:43:927,0.2682,-0.4294,7.1154,49.2181,0.2161,0.4195,-1.2744,216.41
14:47:43:946,-0.4326,0.7804,6.3068,49.0058,0.0511,0.5834,-1.1658,217.73
14:47:43:965,-0.5423,1.4086,6.0443,48.7339,-0.1054,0.4237,-1.1317,219.03
14:47:43:985,-0.2986,1.5995,6.2717,48.6224,-0.1714,0.0468,-1.1786,220.35
14:47:44:006,-0.1969,1.9095,6.8164,48.351,-0.1246,-0.2502,-1.301,221.78
14:47:44:026,-0.5368,1.9668,7.2492,48.2234,0.0564,-0.4706,-1.4032,223.31
14:47:44:047,-0.8996,1.8922,7.476,47.7868,0.1395,-0.5345,-1.3745,224.96
14:47:44:066,-0.9076,1.9609,7.8751,47.3097,0.1352,-0.4887,-1.3202,226.69
14:47:44:086,-0.9861,1.9713,8.3314,46.9618,0.1075,-0.3481,-1.3159,228.33
14:47:44:114,-1.1505,1.7699,8.7962,46.9308,-0.0202,-0.2364,-1.2967,229.81
14:47:44:126,-1.4272,1.3626,9.5887,47.2789,-0.1278,-0.2161,-1.2094,231.24
14:47:44:146,-1.6615,0.8951,10.1968,47.381,0.0245,-0.0862,-1.005,232.65
14:47:44:166,-1.935,0.835,10.0776,47.2643,0.2704,0.197,-0.6484,234.07
14:47:44:185,-2.1054,1.2636,9.7702,47.0127,0.3737,0.3801,-0.2704,235.37
14:47:44:207,-2.0166,1.8735,9.8045,46.2218,0.3599,0.3332,0.0085,236.25
14:47:44:225,-1.5501,2.3181,10.1003,45.7155,0.2747,0.1256,0.1501,236.69
14:47:44:246,-1.4789,2.4131,10.9232,45.7881,0.1001,-0.1757,0.1118,236.81
14:47:44:265,-1.6419,2.2504,11.9078,45.7565,-0.0011,-0.2555,0.1459,236.7
14:47:44:286,-1.6421,2.2191,12.692,45.3813,-0.0937,-0.2917,0.1874,236.58
14:47:44:308,-0.7679,1.2679,13.7817,45.5413,-0.4152,-0.6069,0.083,236.41
14:47:44:326,0.3186,-0.7443,15.0419,45.4244,-0.5036,-0.7612,-0.2417,236.17
14:47:44:346,0.4664,-2.0172,14.7057,45.0179,-0.0319,-0.3077,-0.4503,236.01
14:47:44:365,-0.2578,-2.14,12.4724,44.5846,0.4354,0.2364,-0.231,236.22
14:47:44:386,-0.7337,-1.2727,10.4026,44.2162,0.4727,0.1416,-0.2193,236.75
14:47:44:413,-1.0512,-0.5797,8.9919,43.7558,0.3439,-0.3056,-0.2491,237.17
14:47:44:426,-0.9696,-0.8086,8.0677,43.4539,0.2076,-0.7325,-0.264,237.5
14:47:44:446,-0.4936,-1.1419,7.7225,43.192,0.0798,-0.9167,-0.3183,237.88
14:47:44:465,-0.3741,-0.816,7.454,42.9317,0.016,-0.5941,-0.3673,238.25
14:47:44:486,-0.6775,-0.251,7.0745,43.0379,-0.0617,-0.2033,-0.3492,238.55
14:47:44:505,-1.0178,0.3179,6.6895,43.0821,-0.1586,0.0639,-0.3279,238.77
14:47:44:526,-1.3601,0.7384,6.555,42.9087,-0.198,0.1214,-0.2747,239.05
14:47:44:546,-1.5781,1.0939,6.5798,43.0137,-0.1831,-0.0053,-0.165,239.32
14:47:44:566,-1.5706,1.35,6.8328,42.5386,-0.1938,-0.1906,-0.05,239.68
14:47:44:587,-1.3436,1.5158,7.3635,42.2873,-0.2427,-0.3641,0.0341,239.98
14:47:44:606,-0.8478,1.4961,8.1583,42.1825,-0.2981,-0.4503,0.0287,240.13
14:47:44:626,-0.6061,1.1615,9.1117,41.8769,-0.2928,-0.4322,-0.05,240.12
14:47:44:646,-0.5979,0.9208,9.7796,42.0423,-0.1416,-0.3535,-0.0575,240.07
14:47:44:665,-0.5756,0.7796,10.3196,42.0952,0.1086,-0.4141,-0.049,240.13
14:47:44:687,-0.6839,0.7685,10.2788,41.8763,0.4855,-0.3322,-0.0351,240.31
14:47:44:706,-0.5546,0.8303,10.0757,41.745,0.7719,-0.2811,0.0021,240.58
14:47:44:725,-0.2364,1.3821,9.8022,41.6292,0.8038,-0.3066,-0.0724,240.81
14:47:44:746,0.1512,1.7513,9.6951,41.4069,0.5919,-0.2236,-0.2502,240.93
14:47:44:765,0.2277,1.8523,9.9153,40.948,0.2576,0.0522,-0.4567,240.93
14:47:44:790,-0.1797,1.8158,10.6432,40.758,-0.0852,0.1895,-0.6015,240.93
14:47:44:805,-0.561,1.5677,11.5293,40.5294,-0.231,0.1927,-0.6207,241.1
14:47:44:825,-0.7533,1.7421,12.0796,40.3551,-0.1863,0.1991,-0.5494,241.58
14:47:44:845,-0.5723,1.9932,11.9326,40.43,-0.2566,0.378,-0.5046,242.28
14:47:44:865,-0.4701,1.5642,11.9932,39.9015,-0.3205,0.395,-0.5025,242.87
14:47:44:889,-0.5436,0.7821,11.9967,39.6026,-0.2151,0.477,-0.4376,243.4
14:47:44:905,-0.9343,0.4239,11.5444,39.428,0.0777,0.609,-0.2885,243.97
14:47:44:925,-1.3427,0.4199,10.562,38.9307,0.1597,0.5004,0.0575,244.6
14:47:44:946,-0.0262,-0.0736,10.7216,38.7145,-0.2789,0.1288,0.3045,245.14
14:47:44:974,1.5179,-0.5403,11.381,38.7082,-0.4951,-0.3811,0.1469,245.11
14:47:44:987,2.1416,-1.1643,11.2472,38.1663,-0.3109,-0.4865,-0.165,244.73
14:47:45:005,1.9852,-1.2214,10.0509,37.9105,0.1416,-0.3151,-0.4525,244.6
14:47:45:026,1.2625,-1.0496,7.9962,38.0315,0.4248,-0.0011,-0.5557,244.89
14:47:45:046,0.6094,-0.5365,6.2443,38.0098,0.313,0.2438,-0.4812,245.53
14:47:45:067,0.178,0.1585,5.6489,37.9482,-0.1011,0.2119,-0.4184,246.15
14:47:45:085,-0.0097,0.8563,5.9566,38.4121,-0.51,-0.0437,-0.4663,246.51
14:47:45:105,0.123,1.0362,6.3712,38.2685,-0.6303,-0.1672,-0.5195,246.77
14:47:45:126,0.2687,1.0242,6.6172,37.8646,-0.56,-0.1757,-0.6143,247.18
14:47:45:145,0.0593,1.1777,6.731,37.725,-0.5749,-0.0958,-0.6782,247.78
14:47:45:173,-0.3346,1.3188,7.4008,37.4646,-0.6526,-0.0426,-0.6846,248.49
14:47:45:186,-0.3704,1.514,8.4351,36.9849,-0.6505,-0.1267,-0.643,249.19
14:47:45:206,-0.1663,1.8132,9.3968,36.6625,-0.5291,-0.1927,-0.6345,249.95
14:47:45:225,-0.0835,1.9244,10.2575,36.377,-0.3865,-0.1916,-0.6867,250.76
14:47:45:246,0.1803,1.8326,10.9768,36.4258,-0.2821,-0.1491,-0.659,251.59
14:47:45:271,0.8417,1.4702,11.5839,36.2652,-0.1448,0.0053,-0.6494,252.43
14:47:45:286,1.0674,1.1396,11.7784,36.1214,0.1288,0.2757,-0.7261,253.24
14:47:45:305,0.6602,1.0192,11.3612,35.9084,0.4695,0.5451,-0.7335,254.07
14:47:45:328,0.0757,1.3972,10.4974,35.8174,0.7101,0.6345,-0.6526,255.07
14:47:45:353,-0.2849,1.7071,9.8299,35.6516,0.6207,0.4397,-0.5781,256.15
14:47:45:366,-0.0782,1.322,10.0744,35.2414,0.362,0.1459,-0.6005,257.04
14:47:45:385,-0.2618,0.8154,10.8844,35.5649,0.3045,0.198,-0.625,257.65
14:47:45:406,-0.9399,0.8516,11.1367,35.4014,0.5685,0.6335,-0.5057,258.24
14:47:45:425,-1.7488,1.5747,10.0418,35.3145,0.5877,0.9294,-0.3343,259
14:47:45:500,-2.0658,1.2457,10.2616,35.2368,0.0053,0.4993,-0.3407,259.78
14:47:45:501,-1.4879,-0.4937,12.3384,35.167,-0.8528,-0.7836,-0.5589,260.03
14:47:45:502,-0.9701,-2.7901,15.0739,34.6732,-0.9252,-1.383,-0.8145,260
14:47:45:505,-0.8042,-4.1912,15.465,34.4228,-0.3087,-0.9656,-0.8688,260.32
14:47:45:526,-0.8326,-4.1458,14.094,34.2538,0.0415,-0.2587,-0.6548,261.39
14:47:45:551,-0.7777,-3.3435,12.5995,34.1286,-0.049,0.1959,-0.4078,262.66
14:47:45:565,-0.6355,-2.3349,11.1952,33.9994,-0.017,0.659,-0.2545,263.48
14:47:45:586,-0.7069,-1.4244,9.4981,34.1342,0.3535,0.9944,-0.1469,263.91
14:47:45:606,-0.6282,-0.8445,7.5538,34.134,0.725,0.9656,-0.0287,264.39
14:47:45:626,-0.4485,-0.2672,5.8393,34.1589,0.9294,0.6218,0.1001,264.93
14:47:45:647,-0.2881,0.2935,4.7109,34.2425,0.8996,0.1331,0.1395,265.27
14:47:45:666,-0.1467,0.9196,4.2208,34.2922,0.7133,-0.2321,0.083,265.3
14:47:45:686,0.0136,1.3938,4.0685,34.2055,0.4014,-0.3599,-0.0394,265.09
14:47:45:705,0.1073,1.1901,4.6563,34.0238,-0.082,-0.51,-0.2395,264.84
14:47:45:728,0.1491,1.2792,5.9085,33.8508,-0.5408,-0.7133,-0.461,264.59
14:47:45:746,0.0138,1.0439,7.729,33.5288,-0.8027,-0.7399,-0.692,264.51
14:47:45:765,-0.1988,0.4458,9.1475,33.2511,-0.8038,-0.543,-0.8389,264.74
14:47:45:786,-0.4557,0.0262,10.2336,33.0389,-0.6505,-0.2523,-0.8549,265.39
14:47:45:810,-0.5351,-0.0363,11.0544,32.9672,-0.4929,0.0298,-0.8358,266.37
14:47:45:828,-0.8843,0.4015,11.6507,33.0176,-0.2789,0.2715,-0.8272,267.45
14:47:45:846,-1.1809,0.8659,11.7371,32.8515,-0.0607,0.3077,-0.7751,268.53
14:47:45:865,-1.1158,1.0215,11.8509,33.0711,0.0596,0.1789,-0.7123,269.66
14:47:45:885,-0.9674,1.0194,12.1802,33.1032,0.1608,0.1373,-0.6931,270.71
14:47:45:905,-0.9748,1.195,12.4404,32.9444,0.2981,0.264,-0.6441,271.61
14:47:45:926,-0.9817,1.6424,12.4031,32.5244,0.3024,0.4546,-0.544,272.51
14:47:45:946,-0.1794,1.6301,12.7822,32.514,-0.1448,0.115,-0.576,273.37
14:47:45:965,1.3242,-0.6177,14.4037,32.1555,-0.4919,-0.3375,-0.9624,273.88
14:47:45:986,1.0329,-2.2313,14.7879,31.8142,0.1544,-0.0543,-1.3212,274.12
14:47:46:009,-0.2741,-2.5483,12.955,31.794,0.8177,0.3354,-1.1658,275.19
14:47:46:031,-0.5662,-2.3964,11.2769,31.7685,0.8613,0.2225,-0.7506,277.21
14:47:46:046,0.2515,-2.3523,10.6961,31.6614,0.6633,-0.3503,-0.4748,278.89
14:47:46:066,1.0936,-2.1066,10.2012,31.6323,0.8006,-0.6803,-0.4376,279.75
14:47:46:086,1.3248,-1.6889,8.5788,31.2501,1.1211,-0.5653,-0.5547,280.24
14:47:46:107,0.8067,-0.8248,6.5712,31.1424,1.1615,-0.4301,-0.6792,280.95
14:47:46:131,0.0978,0.2095,5.0327,31.2169,0.823,-0.3769,-0.7399,281.74
14:47:46:147,-0.3505,0.9396,4.3522,30.8599,0.2342,-0.3311,-0.7133,282.43
14:47:46:165,-0.7321,1.1639,4.7269,30.8316,-0.329,-0.2214,-0.6058,282.98
14:47:46:185,-1.0657,1.1314,5.6959,30.8606,-0.5345,-0.0319,-0.4908,283.43
14:47:46:205,-1.472,1.161,6.4941,30.6399,-0.4152,-0.016,-0.296,283.93
14:47:46:226,-1.5712,1.1425,6.6061,30.4735,-0.1874,-0.0064,-0.0564,284.54
14:47:46:245,-1.616,1.5291,6.7632,30.8558,-0.1522,-0.1725,0.0916,285.08
14:47:46:265,-1.0566,1.8372,7.4648,30.3734,-0.3258,-0.4802,0.1278,285.31
14:47:46:287,-0.4216,2.016,8.759,30.1607,-0.5557,-0.6399,0.0032,285.15
14:47:46:307,-0.2128,1.9544,10.4029,30.0329,-0.6558,-0.5078,-0.1437,284.83
14:47:46:326,-0.3478,1.6836,11.5295,29.8567,-0.5408,-0.1895,-0.1139,284.69
14:47:46:345,-0.6472,1.8631,12.0111,29.6636,-0.4259,0.2065,0.0969,284.9
14:47:46:365,-0.6782,1.9726,12.4054,29.6256,-0.3141,0.3907,0.3854,285.22
14:47:46:385,-0.379,2.0678,12.9146,29.661,-0.1906,0.1874,0.5888,285.32
14:47:46:410,0.1714,1.7223,13.5529,29.4457,0.0405,-0.148,0.6888,285.03
14:47:46:425,0.5683,1.5101,13.7507,29.3565,0.3449,-0.3918,0.7314,284.46
14:47:46:445,0.9273,1.7058,13.2097,29.1125,0.4237,-0.3811,0.7069,283.85
14:47:46:465,1.0478,0.7657,13.4574,29.1344,0.3087,-0.4173,0.4365,283.21
14:47:46:485,0.7375,-0.2499,13.5602,29.1077,0.3822,-0.5717,0.0916,282.31
14:47:46:506,0.005,-1.1155,12.7467,28.7138,0.6473,-0.4131,-0.0969,281.68
14:47:46:526,-0.6686,-1.4097,11.1327,28.6881,0.7676,-0.0405,-0.0692,281.65
14:47:46:546,-1.2297,-1.2608,10.0236,28.7689,0.5195,0.0415,-0.0373,281.98
14:47:46:566,-1.3247,-1.3381,9.4739,28.5627,0.1171,-0.1054,-0.0969,282.08
14:47:46:594,-1.3072,-1.5001,8.9811,28.5885,-0.1235,-0.1086,-0.1927,281.85
14:47:46:607,-1.3052,-1.4742,8.1111,28.9152,-0.2651,0.0394,-0.2619,281.69
14:47:46:626,-1.3224,-1.4202,7.0701,29.2272,-0.4493,0.2268,-0.2534,281.79
14:47:46:645,-1.2301,-1.2741,6.3456,29.4357,-0.6026,0.4301,-0.1448,281.99
14:47:46:665,-1.1512,-0.9635,6.0435,29.5527,-0.6718,0.6047,0,282.18
14:47:46:688,-1.064,-0.6676,5.9594,29.6282,-0.6505,0.6846,0.1682,282.31
14:47:46:706,-1.0301,-0.2144,6.051,29.6633,-0.5238,0.6303,0.3119,282.33
14:47:46:726,-0.9465,-0.0027,6.2825,29.7286,-0.3822,0.4141,0.3961,282.23
14:47:46:746,-0.7586,0.1747,6.7995,29.9002,-0.3002,0.1139,0.4408,281.99
14:47:46:765,-0.6017,0.451,7.7023,29.9955,-0.3119,-0.214,0.428,281.61
14:47:46:786,-0.4587,0.6739,8.8967,30.1988,-0.3056,-0.478,0.3109,281.11
14:47:46:806,-0.5697,0.6164,10.0157,30.3774,-0.2119,-0.5451,0.2545,280.54
14:47:46:826,-0.2352,0.3456,10.7985,30.3498,-0.1033,-0.4812,0.1597,280.17
14:47:46:846,-0.3007,0.366,11.2615,30.4891,0.0522,-0.1874,0.1022,279.92
14:47:46:866,-0.2204,0.4307,11.5466,30.5733,0.165,0.0788,0.0671,279.82
14:47:46:890,-0.1893,0.6053,11.7241,30.913,0.1991,0.1618,-0.0245,279.83
14:47:46:906,-0.0565,0.8911,11.807,31.1163,0.1597,0.1192,-0.1331,279.83
14:47:46:926,-0.303,1.0544,12.2509,31.4025,0.0224,0.1938,-0.214,279.84
14:47:46:949,-0.6331,1.2739,12.9801,31.5015,0.0373,0.3364,-0.1544,279.89
14:47:46:969,-0.9871,1.9822,13.159,31.7995,0.0415,0.4844,-0.033,280.09
14:47:46:990,-0.7961,1.5284,13.531,32.1253,-0.2928,0.2087,0.0468,280.38
14:47:47:006,0.1323,-0.9277,14.5582,32.3066,-0.0948,-0.3801,0.0128,280.34
14:47:47:025,0.384,-2.6221,13.3787,32.7735,0.7559,-0.4397,0.0117,280.08
14:47:47:046,-0.0327,-2.3259,10.6897,33.2856,1.1892,0.099,0.0948,280.43
14:47:47:068,-0.4238,-1.6721,8.892,33.3591,0.8347,0.2779,0.2033,281.03
14:47:47:085,0.0172,-1.9817,8.4874,33.8952,0.2491,-0.1043,0.231,281
14:47:47:105,0.8551,-2.3684,8.6643,34.4722,-0.0713,-0.7186,0.0649,280.38
14:47:47:126,0.902,-1.699,8.4243,34.6798,-0.0192,-0.7964,-0.2023,279.7
14:47:47:147,0.3892,-0.5921,7.4509,35.0218,0.0852,-0.3599,-0.3662,279.47
14:47:47:167,0.0315,0.1897,6.2244,35.4088,-0.1043,0.1182,-0.4716,279.8
14:47:47:186,-0.1372,0.6169,5.5962,35.6976,-0.5121,0.3939,-0.5643,280.26
14:47:47:206,-0.3247,0.6983,5.9383,36.1163,-0.8581,0.4844,-0.6484,280.59
14:47:47:226,-0.4796,0.5812,6.8863,36.579,-0.8932,0.3971,-0.6218,280.92
14:47:47:246,-0.549,0.3864,7.6597,37.1286,-0.5951,0.2651,-0.5749,281.49
14:47:47:271,-0.5219,0.5198,7.9668,37.4338,-0.2885,0.1214,-0.5259,282.21
14:47:47:285,-0.1133,0.4171,8.2485,37.5123,-0.2246,0.0362,-0.5121,283.23
14:47:47:305,-0.092,0.3404,8.842,37.8787,-0.3513,0.0767,-0.5909,283.97
14:47:47:325,-0.5176,0.3622,9.6713,37.9084,-0.412,0.3396,-0.5281,284.52
14:47:47:346,-1.0775,0.2767,10.402,38.2022,-0.1927,0.4983,-0.3162,285.12
14:47:47:370,-1.1849,0.4936,10.4532,38.4007,0.1341,0.4354,0.0224,285.84
14:47:47:386,-1.0252,1.0944,10.4785,38.8893,0.2832,0.2225,0.2651,286.58
14:47:47:406,-0.9482,1.4515,10.8832,39.1975,0.4152,-0.0106,0.3854,286.82
14:47:47:426,-0.8547,1.4972,10.8141,40.1309,0.5313,-0.165,0.511,286.61
14:47:47:448,-0.6396,1.5683,10.8431,40.6864,0.3865,-0.2843,0.5515,286.28
14:47:47:465,-0.2127,1.2883,11.7457,41.0549,0.1863,-0.3226,0.5334,285.69
14:47:47:486,-0.1567,1.1459,12.6636,41.5121,0.1746,-0.2566,0.5345,284.91
14:47:47:545,-0.3129,1.5508,12.8968,41.7854,0.2353,-0.1544,0.5802,284.21
14:47:47:547,-0.1252,1.4608,13.0578,41.9017,0.1352,-0.3364,0.4482,283.67
14:47:47:548,0.3331,-0.1732,13.7145,42.3993,-0.0415,-0.6792,0.0277,283.02
14:47:47:575,-0.2436,-1.5777,14.192,42.6676,0.1948,-0.6899,-0.313,282.28
14:47:47:585,-0.9495,-2.2177,12.8082,43.0367,0.7538,-0.2385,-0.2449,282.09
14:47:47:606,-1.4785,-1.9475,10.5617,43.3,0.9816,0.1778,-0.0319,282.77
14:47:47:626,-1.6418,-1.3019,8.9107,43.7136,0.7506,0.2694,0.0948,283.49
14:47:47:647,-1.4637,-1.0921,8.0238,44.0193,0.28,0.0777,-0.0202,283.62
14:47:47:667,-1.403,-1.326,7.6816,44.4087,-0.0511,0.0256,-0.2002,283.22
14:47:47:686,-1.5924,-1.4995,7.2083,44.8074,-0.1501,0.1341,-0.2566,282.86
14:47:47:706,-1.8475,-1.3475,6.4574,45.1381,-0.2481,0.2726,-0.1033,282.92
14:47:47:729,-1.8444,-1.0615,6.0151,45.2977,-0.4205,0.3247,0.297,283.17
14:47:47:746,-1.0607,-0.852,6.0095,45.5205,-0.5962,0.1618,0.5653,283.24
14:47:47:765,-0.376,-0.6362,6.2025,45.7799,-0.6356,0.0277,0.6462,282.85
14:47:47:785,-0.1724,-0.249,6.5124,45.7488,-0.5376,0.0287,0.6611,282.13
14:47:47:806,-0.0681,-0.0604,6.6635,45.9204,-0.5387,0.1629,0.6569,281.43
14:47:47:828,-0.0332,0.0849,7.087,46.2617,-0.6984,0.1224,0.6058,280.74
14:47:47:850,-0.0004,0.1706,8.0823,46.4738,-0.8634,-0.0138,0.5547,279.93
14:47:47:866,0.1768,0.1307,9.575,46.9874,-0.8187,-0.28,0.4589,279.08
14:47:47:885,0.3827,0.1585,10.6589,47.2646,-0.5036,-0.3386,0.3247,278.35
14:47:47:906,0.4072,0.2438,10.9898,47.8614,-0.2268,-0.2459,0.1608,277.92
14:47:47:932,0.2223,0.4716,11.2694,48.5935,-0.1299,-0.0873,0.0011,277.73
14:47:47:945,0.0519,0.7546,11.759,48.9436,-0.164,0.0468,-0.0905,277.63
14:47:47:966,0.294,0.8744,12.6611,49.1689,-0.2619,0.1735,-0.1906,277.6
14:47:47:986,0.3335,0.8623,13.6567,49.2473,-0.2289,0.2481,-0.3577,277.65
14:47:48:006,-0.1402,0.859,13.9377,49.1948,-0.0341,0.3439,-0.4195,277.82
14:47:48:031,-0.6985,1.0235,13.8345,49.3244,0.0138,0.4173,-0.3322,278.33
14:47:48:045,-0.7762,-0.0527,14.245,49.5386,-0.0543,0.0916,-0.2438,278.95
14:47:48:066,-0.2241,-1.7923,14.4491,50.0276,0.411,-0.3183,-0.231,279.34
14:47:48:086,-0.417,-2.494,13.0016,50.1276,1.103,-0.0745,-0.1618,279.72
14:47:48:109,-0.8956,-2.2579,10.7896,50.2804,1.218,0.0905,0.0437,280.44
14:47:48:126,-0.7223,-2.1611,9.6804,50.3507,0.8336,-0.2108,0.2321,281.01
14:47:48:145,0.3748,-2.7825,9.6354,50.2771,0.3918,-0.6995,0.2374,280.88
14:47:48:166,1.4349,-3.0093,9.8811,50.2995,0.2566,-0.9454,-0.0703,280.27
14:47:48:186,1.5112,-2.4199,9.1699,50.1879,0.3822,-0.5675,-0.4461,279.7
14:47:48:214,0.6694,-1.3153,7.7884,50.2965,0.445,0.1501,-0.6452,279.73
14:47:48:226,-0.265,-0.4619,6.2981,50.204,0.3897,0.6047,-0.6281,280.33
14:47:48:246,-0.699,0.0726,5.2726,50.1057,0.1586,0.8027,-0.5153,281.12
14:47:48:267,-0.9708,0.466,5.1515,50.1572,-0.1618,0.6611,-0.4461,281.79
14:47:48:286,-1.079,0.7501,5.5928,50.1679,-0.3556,0.3961,-0.362,282.16
14:47:48:308,-0.8948,0.8734,6.3907,50.3089,-0.3801,0.165,-0.3056,282.43
14:47:48:326,-0.7399,0.761,7.1603,50.497,-0.231,0.0511,-0.3673,282.74
14:47:48:345,-0.3698,0.5172,7.8702,50.4465,-0.1714,-0.0117,-0.4195,283.13
14:47:48:365,0.4466,0.4009,9.0733,50.3222,-0.164,-0.1341,-0.61,283.6
14:47:48:387,0.3177,0.5236,10.013,50.6288,-0.0884,-0.1192,-0.8549,284.07
14:47:48:406,-0.5202,0.4387,10.4624,50.79,-0.0426,0.0192,-0.7623,284.72
14:47:48:425,-0.9661,0.4687,10.7745,50.7009,-0.0298,0.0756,-0.362,285.71
14:47:48:446,-0.8483,0.9009,11.1001,51.171,0.0351,0.2108,0.1075,286.68
14:47:48:466,-0.5724,1.4757,11.4511,51.3004,0.2044,0.2981,0.4291,287.25
14:47:48:486,-0.2497,1.6601,11.1449,51.1672,0.3407,0.1565,0.5504,287.35
14:47:48:510,-0.2311,1.8659,10.9177,51.3091,0.3247,-0.0149,0.5632,287.06
14:47:48:526,-0.3177,1.7433,10.8816,51.2333,0.2449,-0.1618,0.5962,286.45
14:47:48:546,-0.5959,1.5553,11.0215,51.2035,0.0969,-0.2321,0.6069,285.74
14:47:48:572,-1.0383,1.5541,11.5514,51.3566,-0.1842,-0.2427,0.5526,284.98
14:47:48:587,-1.1361,0.5878,12.7267,51.1335,-0.4333,-0.4738,0.412,284.14
14:47:48:606,-1.1818,-0.6265,13.8887,51.0587,-0.1842,-0.6409,0.1991,283.28
14:47:48:626,-1.9942,-1.1962,13.2356,50.8566,0.3684,-0.3662,0.1672,282.69
14:47:48:646,-2.6451,-1.0959,11.3531,50.569,0.6558,-0.0245,0.3897,282.73
14:47:48:668,-2.7179,-0.8459,10.1161,50.3001,0.4046,0.0905,0.5238,282.99
14:47:48:693,-2.3994,-1.0361,9.8712,50.2344,0.0319,0.0468,0.5025,282.64
14:47:48:705,-2.0696,-1.3742,9.6451,49.9532,-0.0756,0.1597,0.4035,281.78
14:47:48:725,-1.9727,-1.662,8.7987,49.8601,-0.0596,0.4312,0.411,281.01
14:47:48:746,-1.8072,-1.5961,7.8171,49.7,-0.0713,0.7314,0.5856,280.54
14:47:48:766,-1.4405,-1.1971,6.9118,49.6191,-0.0979,0.8326,0.8368,280.11
14:47:48:787,-0.8101,-0.6844,6.4968,49.3507,-0.1129,0.6899,0.9624,279.49
14:47:48:806,-0.2377,-0.0563,6.1527,49.2358,-0.0649,0.4663,0.9752,278.56
14:47:48:826,0.2317,0.4303,5.8243,49.1819,-0.0596,0.28,0.9028,277.46
14:47:48:846,0.5806,0.5144,5.5593,49.1128,-0.1522,0.131,0.8049,276.33
14:47:48:866,0.6874,0.5505,5.9223,48.9144,-0.4812,-0.0053,0.6409,275.23
14:47:48:891,0.7473,0.6093,7.2551,48.884,-0.8177,-0.2459,0.4173,274.12
14:47:48:906,0.6297,0.7022,9.0604,49.0521,-0.9337,-0.4493,0.1799,273.07
14:47:48:925,0.4031,1.0717,10.4872,48.9943,-0.9209,-0.4865,-0.0415,272.34
14:47:48:945,-0.1625,1.4696,12.4294,49.1896,-1.0391,-0.5589,-0.3322,272.06
14:47:48:966,-0.6403,1.1321,14.7164,49.2294,-0.7985,-0.3098,-0.5643,271.98
14:47:48:990,-0.9438,0.3843,15.4597,49.0467,-0.0043,0.2119,-0.5834,272.22
14:47:49:006,-1.0912,0.1634,14.25,49.0603,0.8219,0.5408,-0.4259,273.2
14:47:49:026,-0.789,0.3346,12.3108,48.6078,1.2712,0.5302,-0.2491,274.55
14:47:49:046,-0.4037,0.6912,10.6537,48.4338,1.3255,0.2502,-0.2129,275.61
14:47:49:068,-0.1485,1.0771,9.6414,48.3032,1.1456,0.0213,-0.181,276.13
14:47:49:085,0.1972,1.8354,8.7864,48.196,0.642,0.1246,-0.0852,276.29
14:47:49:105,0.646,1.4013,9.7774,48.0372,-0.1129,0.0128,-0.148,276.33
14:47:49:126,1.0536,-0.2928,11.4348,47.7457,-0.3098,-0.2885,-0.4035,275.92
14:47:49:145,0.0986,-1.0025,12.0193,47.3013,0.0745,-0.1948,-0.6292,275.67
14:47:49:172,-0.8656,-1.3228,11.2773,47.0701,0.3822,0.0224,-0.5664,276.14
14:47:49:185,-0.8635,-1.6664,10.6272,46.9363,0.2491,-0.1576,-0.4301,277.15
14:47:49:205,-0.0947,-2.2695,10.6658,47.006,-0.0341,-0.4386,-0.4897,277.9
14:47:49:226,0.1692,-2.0956,10.6977,47.1272,-0.0383,-0.2129,-0.692,278.21
14:47:49:246,-0.3739,-1.616,9.7317,47.3294,0.2938,0.198,-0.8304,278.62
14:47:49:270,-0.9788,-1.1208,7.8933,47.3508,0.5376,0.61,-0.7037,279.54
14:47:49:286,-1.3964,-0.3191,6.2755,47.3993,0.5164,0.8411,-0.5238,280.77
14:47:49:306,-1.585,0.4141,5.2424,46.9685,0.2704,0.7996,-0.379,281.72
14:47:49:328,-1.5721,0.9399,4.9668,46.6657,-0.0735,0.5696,-0.2779,282.23
14:47:49:349,-1.4326,1.1885,5.2468,46.4641,-0.2885,0.2981,-0.2065,282.39
14:47:49:365,-1.1928,1.1983,5.6869,46.1683,-0.4354,-0.0468,-0.1863,282.46
14:47:49:385,-0.845,0.9312,6.3804,46.3611,-0.5951,-0.3151,-0.197,282.53
14:47:49:405,-0.645,0.7545,7.3391,46.3017,-0.7208,-0.4333,-0.2225,282.59
14:47:49:426,-0.7488,0.6303,8.3755,46.0806,-0.807,-0.411,-0.1874,282.7
14:47:49:448,-0.8688,0.6737,9.3548,46.022,-0.8081,-0.4046,-0.0554,282.89
14:47:49:465,-0.8862,0.7145,10.0714,45.6764,-0.7996,-0.428,0.1491,283.09
14:47:49:486,-0.5565,0.6107,11.1296,45.7579,-0.7708,-0.5749,0.3577,283.22
14:47:49:506,-0.0909,0.6224,12.3607,46.0414,-0.5611,-0.7751,0.4099,283.09
14:47:49:526,0.2018,0.8008,13.1973,45.7563,-0.099,-0.7421,0.4322,282.75
14:47:49:547,0.2467,1.1066,13.0136,45.8068,0.4088,-0.4802,0.4855,282.47
14:47:49:593,0.1659,1.5816,12.0501,45.702,0.51,-0.2151,0.543,282.33
14:47:49:594,0.3312,1.6674,11.6469,45.2652,0.2843,0.0607,0.576,282.05
14:47:49:617,0.7354,2.0466,11.9334,44.8415,0.1129,0.2364,0.544,281.39
14:47:49:630,0.7562,1.7987,11.8065,45.004,-0.1065,0.3386,0.3897,280.6
14:47:49:646,0.4224,0.9844,12.2944,45.023,-0.3865,0.197,0.1991,279.89
14:47:49:666,0.5175,-1.0882,13.5632,44.8045,-0.411,-0.2672,-0.1895,279.21
14:47:49:686,-0.2421,-2.1801,13.7461,44.7897,0.1661,-0.4972,-0.5632,278.74
14:47:49:706,-1.2251,-2.5897,11.8816,44.3922,0.824,-0.1821,-0.5121,278.99
14:47:49:726,-1.9192,-2.2646,9.4898,44.0774,0.9912,0.1448,-0.1906,280.06
14:47:49:746,-2.0959,-1.5123,7.9329,43.7527,0.7059,0.2992,0.1022,281.04
14:47:49:765,-1.8749,-1.145,7.2493,43.5329,0.2608,0.2555,0.1501,281.46
14:47:49:786,-1.7349,-1.1077,7.067,43.4647,-0.1086,0.1427,-0.0021,281
14:47:49:807,-1.8265,-1.1853,6.9612,43.2013,-0.3726,0.1043,-0.0756,280.5
14:47:49:834,-1.9891,-1.1357,6.9878,43.1929,-0.5941,0.0447,-0.0064,280.23
14:47:49:847,-1.9269,-1.0708,7.1859,42.7995,-0.7825,0.0085,0.1991,280.13
14:47:49:865,-1.5873,-0.9608,7.7026,42.4601,-0.8134,0.0266,0.4429,280.01
14:47:49:885,-1.0779,-0.7572,8.1039,42.0351,-0.6132,0.0522,0.6069,279.75
14:47:49:905,-0.6966,-0.3806,8.1477,41.7736,-0.3141,0.0234,0.6526,279.38
14:47:49:932,-0.5375,-0.0532,7.8799,42.0514,-0.1086,-0.0894,0.6154,278.93
14:47:49:949,-0.4566,0.3206,7.7157,41.8178,-0.1001,-0.1576,0.5611,278.38
14:47:49:966,-0.3281,0.482,7.9588,42.0458,-0.214,-0.1821,0.5142,277.72
14:47:49:986,-0.2334,0.6002,8.6596,42.0896,-0.3279,-0.2459,0.428,277.01
14:47:50:006,-0.0748,0.381,9.697,41.8717,-0.3173,-0.3439,0.2949,276.29
14:47:50:026,0.3176,0.1818,10.551,41.5475,-0.1299,-0.3748,0.1224,275.7
14:47:50:045,0.2599,-0.0248,10.8599,41.4601,0.0809,-0.2214,-0.0617,275.38
14:47:50:066,-0.1656,0.0818,10.9591,41.0831,0.1075,-0.0522,-0.1448,275.32
14:47:50:086,-0.3406,0.0593,11.4213,40.865,-0.0607,0.0586,-0.1278,275.44
14:47:50:108,-0.2571,0.342,12.2571,40.4723,-0.2342,0.0873,-0.083,275.53
14:47:50:126,0.183,0.5671,13.2907,40.1293,-0.2002,-0.0266,-0.1054,275.55
14:47:50:146,0.6484,0.6863,13.5497,40.0609,0.0554,-0.0479,-0.1405,275.59
14:47:50:166,0.3444,1.2859,13.5456,39.6822,0.0437,0.2108,-0.1086,275.83
14:47:50:186,0.5038,0.5181,14.4123,39.3913,-0.2023,0.115,-0.1182,276.13
14:47:50:213,1.1205,-1.6576,15.0833,39.0271,0.148,-0.2715,-0.3652,276.14
14:47:50:226,0.1389,-2.4707,13.8884,38.7146,0.9209,-0.0745,-0.5845,276.24
14:47:50:246,-1.1322,-2.2252,11.3219,38.3252,1.3489,0.3641,-0.5142,277
14:47:50:267,-1.6801,-1.8248,9.2969,38.083,1.1275,0.5142,-0.2417,278.18
14:47:50:286,-1.1263,-1.7533,8.4456,37.9606,0.6111,0.2726,-0.0809,278.91
14:47:50:308,-0.4469,-1.8656,8.4174,38.0983,0.1821,0.1022,-0.1789,278.97
14:47:50:325,-0.62,-1.362,8.1838,38.2852,0.1533,0.3056,-0.2843,278.69
14:47:50:345,-0.9805,-0.7457,7.1111,38.2931,0.3087,0.7378,-0.263,278.69
14:47:50:366,-1.2537,-0.1778,5.6568,38.273,0.3024,1.0199,-0.2278,279.11
14:47:50:386,-1.5697,0.4798,4.6253,38.1798,0.1235,0.9986,-0.1789,279.55
14:47:50:408,-1.6405,0.6877,4.208,38.141,-0.1959,0.6548,-0.0979,279.77
14:47:50:425,-1.4901,0.767,4.8027,38.2221,-0.4397,0.1512,0.0011,279.76
14:47:50:446,-1.2322,0.7443,5.9267,38.3175,-0.5238,-0.3364,0.0671,279.63
14:47:50:465,-0.8769,0.712,7.0387,38.176,-0.4823,-0.6399,0.0628,279.42
14:47:50:487,-0.8045,0.5227,7.8596,38.2381,-0.4876,-0.6462,0.0575,279.38
14:47:50:511,-0.712,0.2641,8.9293,37.9709,-0.5557,-0.5621,0.1448,279.29
14:47:50:525,0.0054,0.3484,10.6138,37.6634,-0.4929,-0.5675,0.2491,279.19
14:47:50:546,0.9389,0.3011,11.6403,37.5544,-0.1448,-0.362,0.2055,279
14:47:50:566,0.8835,0.2148,11.8301,37.0132,0.1938,-0.0543,0.082,278.82
14:47:50:594,0.2159,0.6965,11.6845,36.5794,0.428,0.099,0.1011,278.89
14:47:50:608,-0.0019,1.2063,11.3821,36.4052,0.5089,0.1395,0.2502,278.99
14:47:50:626,0.1018,1.3814,11.2897,36.1739,0.4493,-0.0341,0.3141,279.03
14:47:50:646,0.0891,1.0239,11.4704,36.291,0.3034,-0.3662,0.2875,278.79
14:47:50:668,0.0329,0.4925,12.0384,36.2822,0.214,-0.6516,0.3226,278.33
14:47:50:687,-0.3513,0.5443,12.5167,36.4594,0.313,-0.6824,0.4908,277.86
14:47:50:706,-0.4797,1.0228,12.462,36.5334,0.3151,-0.7612,0.6686,277.48
14:47:50:725,0.3566,0.4609,12.8771,36.7384,0.1256,-1.0668,0.5611,277.05
14:47:50:745,0.7874,-0.39,13.5442,36.7237,0.2065,-0.9529,0.1608,276.21
14:47:50:766,0.1332,-1.0262,12.9101,36.554,0.6026,-0.5046,-0.0181,275.42
14:47:50:787,-0.6084,-0.9619,11.179,36.6002,0.7921,-0.05,0.033,275.39
14:47:50:805,-0.8698,-0.7487,9.8871,36.394,0.6111,0.132,0.1086,275.7
14:47:50:825,-0.5858,-0.7741,9.2126,36.3845,0.2736,0.05,0.0053,275.7
14:47:50:846,-0.3216,-1.0603,8.7634,36.8278,-0.0149,0.0724,-0.2044,275.36
14:47:50:866,-0.3633,-1.0812,8.0754,36.9168,-0.1352,0.4024,-0.3364,275.06
14:47:50:892,-0.7138,-0.8029,7.093,37.1047,-0.2161,0.7644,-0.3087,275.1
14:47:50:905,-0.8862,-0.3732,6.2932,37.0241,-0.3535,0.9316,-0.1448,275.42
14:47:50:925,-0.8747,0.1652,5.973,37.2161,-0.428,0.8794,0.0841,275.68
14:47:50:945,-0.4245,0.6978,5.9097,36.9939,-0.3354,0.7218,0.2321,275.77
14:47:50:968,0.1124,1.0904,5.8256,37.0301,-0.1629,0.4983,0.2055,275.69
14:47:50:990,0.1564,1.2424,5.8839,37.0815,-0.1437,0.2864,0.0415,275.54
14:47:51:005,-0.1539,1.2123,6.5469,37.0404,-0.3322,0.0458,-0.0703,275.34
14:47:51:025,-0.2055,1.0191,7.8138,37.2688,-0.544,-0.2566,-0.1278,275.16
14:47:51:047,-0.178,0.6236,9.1389,37.2608,-0.5675,-0.3237,-0.1703,275.03
14:47:51:073,-0.3236,0.5223,10.0975,37.1909,-0.3971,-0.1043,-0.1192,275.05
14:47:51:085,-0.5371,0.8203,10.479,37.319,-0.1874,0.148,-0.0564,275.31
14:47:51:106,-0.6706,1.2563,10.5897,37.4385,-0.1735,0.1746,-0.0767,275.64
14:47:51:126,-0.7613,1.4502,11.1894,37.5165,-0.3758,0.0043,-0.1714,275.83
14:47:51:147,-0.8098,1.1466,12.4124,37.8999,-0.6015,-0.2502,-0.2768,275.83
14:47:51:167,-0.7054,0.6004,13.7632,38.1484,-0.5994,-0.3109,-0.2906,275.73
14:47:51:185,-0.5835,0.0243,14.8746,38.2337,-0.2438,-0.1267,-0.2566,275.98
14:47:51:205,-0.7384,0.2599,14.83,38.1463,0.2736,0.1405,-0.1363,276.42
14:47:51:226,-0.6617,0.586,14.0434,38.0315,0.3364,0.1139,-0.0511,277.11
14:47:51:245,0.2888,-0.88,13.9392,38.0046,0.0405,0.0628,-0.1427,277.59
14:47:51:265,0.2303,-2.1476,13.8312,38.0533,0.4599,0.4418,-0.2214,277.52
14:47:51:285,-0.6328,-2.1945,11.9554,38.2466,1.0817,0.7751,-0.0394,277.63
14:47:51:305,-1.1227,-1.6938,9.7869,38.6259,1.169,0.5749,0.2938,278.42
14:47:51:326,-0.4008,-1.5972,8.6041,38.744,0.6079,0.0458,0.4983,278.84
14:47:51:346,0.4041,-1.8082,8.811,39.2152,0.0426,-0.6154,0.3567,278.39
14:47:51:366,0.5595,-1.5187,9.144,39.5032,-0.0106,-0.7176,0.1576,277.31
14:47:51:385,0.3761,-1.2456,8.4544,39.9146,0.2449,-0.3513,0.049,276.59
14:47:51:405,-0.0452,-0.6051,6.9824,39.9615,0.3535,0.0926,0.033,276.5
14:47:51:426,-0.1913,-0.2705,5.7131,39.9864,0.1852,0.3737,0.0724,276.64
14:47:51:454,-0.1461,0.0494,5.2216,40.1975,-0.0351,0.4216,0.1214,276.6
14:47:51:466,0.0763,0.6585,5.2359,40.1824,-0.2161,0.1725,0.1129,276.38
14:47:51:485,0.4564,1.0959,5.6396,40.4787,-0.2491,-0.1214,-0.0128,276.07
14:47:51:506,0.7879,1.2054,5.7933,40.7775,-0.3503,-0.3343,-0.2108,275.83
14:47:51:526,0.9074,1.4027,6.3447,40.8728,-0.6132,-0.3641,-0.4748,275.76
14:47:51:548,0.8152,1.3392,7.4418,40.9818,-0.8602,-0.0703,-0.7133,275.79
14:47:51:569,0.4451,1.2359,8.8891,41.1367,-0.9986,0.3875,-0.8336,276.08
14:47:51:585,-0.1298,1.3679,10.492,40.9966,-0.9294,0.8517,-0.8198,276.72
14:47:51:636,-0.7656,1.5284,11.7037,41.2607,-0.6388,1.1083,-0.7101,277.68
14:47:51:638,-1.2558,1.4417,11.9736,41.2249,-0.3024,1.0881,-0.527,278.84
14:47:51:651,-1.7116,1.2205,12.1445,41.3576,-0.0958,0.7878,-0.2853,280.03
14:47:51:665,-2.0522,0.99,12.6689,41.4848,0.1437,0.297,0.0075,280.96
14:47:51:685,-2.0087,0.5424,12.8711,41.9223,0.4397,-0.1086,0.3662,281.52
14:47:51:705,-1.6575,0.135,12.6613,42.1147,0.6271,-0.2864,0.7261,281.79
14:47:51:725,-1.1303,0.2293,12.4382,42.1534,0.7112,-0.3109,1.0061,281.62
14:47:51:746,-0.7144,0.5415,12.0693,42.2754,0.8528,-0.2119,1.1158,280.97
14:47:51:766,-0.8948,1.1714,11.0543,42.4974,0.9518,-0.1288,1.1168,279.95
14:47:51:786,-0.885,1.1225,10.168,42.5251,0.5919,-0.4429,0.9624,278.8
14:47:51:806,-0.4842,-0.0888,10.8987,42.7243,0.1789,-0.8645,0.5536,277.45
14:47:51:834,-0.5844,-1.2059,11.5695,42.9373,0.2161,-0.9348,0.2523,275.92
14:47:51:846,-0.8443,-1.8108,11.1432,43.0561,0.4173,-0.7314,0.131,274.99
14:47:51:866,-1.0805,-1.8117,10.0283,43.0571,0.4333,-0.4567,0.1576,274.77
14:47:51:886,-1.1383,-1.25,9.2835,43.199,0.1341,-0.3375,0.1522,274.76
14:47:51:906,-1.0473,-0.8616,8.8184,43.1376,-0.2502,-0.3034,-0.0202,274.52
14:47:51:933,-0.9738,-0.7311,8.3511,43.3154,-0.5121,-0.099,-0.2108,274.09
14:47:51:946,-1.1226,-0.7252,7.9905,43.6415,-0.6548,0.1991,-0.3577,273.83
14:47:51:966,-1.4406,-0.594,7.7186,44.0544,-0.6963,0.4397,-0.3524,273.9
14:47:51:986,-1.5854,-0.6157,7.3404,44.1196,-0.6718,0.6132,-0.1586,274.22
14:47:52:005,-1.4772,-0.5612,7.2649,44.3164,-0.5834,0.6505,0.1341,274.65
14:47:52:033,-1.1758,-0.3664,7.3731,44.2974,-0.3418,0.5451,0.3961,274.94
14:47:52:046,-0.9795,0.0767,7.2327,44.5039,-0.0064,0.3929,0.5707,275
14:47:52:066,-0.7351,0.3673,6.9123,44.446,0.2193,0.1799,0.6792,274.85
14:47:52:086,-0.234,0.4923,6.8818,44.4755,0.2928,-0.1491,0.7229,274.46
14:47:52:106,0.2989,0.8336,7.1578,44.3104,0.1459,-0.4344,0.6335,273.82
14:47:52:127,0.7022,1.1181,8.1603,44.3999,-0.1246,-0.6111,0.3992,272.97
14:47:52:145,0.6998,1.0145,9.4458,44.515,-0.2534,-0.5504,0.082,272.01
14:47:52:166,0.3653,0.8752,10.3747,44.6128,-0.2246,-0.3034,-0.1246,271.29
14:47:52:186,0.0526,0.9875,10.8256,44.8373,-0.2587,-0.1661,-0.2012,271.09
14:47:52:214,-0.0658,0.9159,11.5855,45.2081,-0.5142,-0.2119,-0.3002,271.21
14:47:52:226,-0.4732,0.7804,12.8471,45.5222,-0.6558,-0.2023,-0.3492,271.3
14:47:52:246,-0.7226,0.5615,13.8726,45.3163,-0.4738,-0.1693,-0.2832,271.43
14:47:52:266,-0.6125,0.7295,13.9347,45.4282,-0.1054,-0.0341,-0.1363,271.83
14:47:52:285,-0.5683,1.2045,13.4344,45.4203,0.0788,0.2012,0.0234,272.4
14:47:52:308,0.2116,0.8562,13.5473,45.3489,-0.0575,0.0543,0.1107,272.85
14:47:52:326,1.3183,-0.7565,14.2275,45.3371,0.263,-0.247,-0.1661,272.88
14:47:52:345,0.6953,-1.7259,12.7189,45.5044,1.0253,-0.1054,-0.3929,272.74
14:47:52:365,-0.2931,-1.5936,10.3375,45.618,1.2818,0.2321,-0.3567,273.31
14:47:52:387,-0.7082,-1.3589,8.8297,45.6532,0.9401,0.3141,-0.1682,274.15
14:47:52:407,-0.0473,-1.5671,8.6434,45.809,0.3109,-0.0468,-0.0639,274.56
14:47:52:428,0.9545,-1.8968,9.2568,46.0308,-0.1299,-0.4056,-0.2225,274.4
14:47:52:446,1.054,-1.7683,9.5351,46.0675,-0.115,-0.2821,-0.4738,274.02
14:47:52:465,0.4317,-1.0636,8.7655,46.0573,0.0894,0.1895,-0.5504,274.08
14:47:52:485,-0.1513,-0.0285,7.3938,46.4198,0.1011,0.5696,-0.4865,274.7
14:47:52:512,-0.2633,0.2516,6.4806,46.2589,-0.0809,0.7495,-0.4408,275.47
14:47:52:525,-0.5194,0.7169,6.1485,46.5374,-0.2694,0.6846,-0.3886,275.97
14:47:52:546,-0.6844,1.1006,6.396,46.6124,-0.3311,0.4759,-0.3449,276.34
14:47:52:565,-0.677,1.0725,6.5283,46.6658,-0.2204,0.214,-0.3141,276.67
14:47:52:585,-0.4763,0.9466,6.5884,46.8349,-0.2278,-0.1011,-0.2938,277.09
14:47:52:610,-0.1952,0.8362,7.096,47.148,-0.3279,-0.2811,-0.3332,277.49
14:47:52:625,-0.1891,0.9882,7.7711,47.6341,-0.4312,-0.2087,-0.3705,277.75
14:47:52:646,-0.3108,1.0448,8.42,47.9836,-0.5291,0.0383,-0.3449,278.04
14:47:52:671,-0.2815,0.9514,9.3069,48.1176,-0.6079,0.2417,-0.2619,278.39
14:47:52:686,-0.1714,0.7637,10.3768,48.1438,-0.6143,0.2545,-0.1842,278.77
14:47:52:707,-0.1881,0.7539,11.4076,48.1051,-0.411,0.1767,-0.0873,279.08
14:47:52:726,-0.2761,0.8575,11.8998,47.9533,-0.0586,0.1299,0.05,279.39
14:47:52:745,-0.3879,1.0079,11.6895,48.0617,0.2214,0.131,0.1821,279.74
14:47:52:765,-0.6709,0.9339,11.5751,48.097,0.3311,0.0437,0.2875,279.99
14:47:52:786,-0.7962,0.7761,11.6467,48.2235,0.379,-0.0862,0.4078,279.96
14:47:52:806,-0.8217,0.5915,11.8871,48.3955,0.4301,-0.1522,0.5025,279.71
14:47:52:826,-1.018,0.7796,12.1088,48.5743,0.6281,-0.0532,0.6218,279.28
14:47:52:846,-1.2806,1.5322,11.4668,48.7802,0.7665,0.0096,0.7783,278.82
14:47:52:866,-0.8508,1.6367,10.9978,48.9205,0.5015,-0.2779,0.7676,278.32
14:47:52:892,0.3236,0.4374,12.0698,49.2726,0.181,-0.7868,0.2821,277.43
14:47:52:905,0.2932,-0.7717,12.9152,49.3041,0.2885,-0.8932,-0.3588,276.22
14:47:52:925,-0.674,-1.6052,12.1842,49.3161,0.4791,-0.6132,-0.6313,275.61
14:47:52:945,-1.0987,-2.4541,10.8643,49.0814,0.3673,-0.1789,-0.5366,276.04
14:47:52:966,-1.3102,-2.4149,10.1439,49.2417,0.0458,0.1043,-0.2896,276.8
14:47:52:990,-0.9704,-2.0527,9.9372,48.9605,-0.2246,0.1086,-0.1586,277.33
14:47:53:005,-0.5622,-1.792,9.481,49.0388,-0.263,0.1491,-0.2044,277.49
14:47:53:026,-0.4193,-1.3849,8.516,49.4226,-0.1938,0.2576,-0.2236,277.58
14:47:53:046,-0.4629,-0.7618,7.4615,49.7645,-0.1597,0.3322,-0.2033,277.84
14:47:53:073,-0.6053,-0.1059,6.5065,49.8426,-0.1821,0.4365,-0.115,278.15
14:47:53:086,-0.7352,0.4779,5.8537,49.8342,-0.2364,0.4865,-0.0064,278.4
14:47:53:106,-0.6156,0.8422,5.7001,49.4143,-0.2853,0.4024,0.082,278.54
14:47:53:127,-0.4979,1.0914,5.9993,49.3913,-0.2683,0.1959,0.1246,278.53
14:47:53:146,-0.4645,1.4277,6.4195,49.4957,-0.1874,-0.033,0.1022,278.44
14:47:53:172,-0.268,1.3107,6.6943,49.5384,-0.1437,-0.2864,0.0628,278.31
14:47:53:186,-0.1541,1.0863,7.0943,49.5014,-0.23,-0.3567,0.0266,278.22
14:47:53:206,-0.1945,1.1962,7.8543,49.501,-0.4227,-0.3524,-0.0106,278.11
14:47:53:226,-0.1349,1.3222,9.0518,49.3795,-0.5994,-0.3322,-0.1054,277.96
14:47:53:246,-0.2145,1.2057,10.5378,49.5454,-0.5973,-0.2236,-0.2619,277.8
14:47:53:267,-0.4216,0.8128,11.5132,49.7161,-0.3375,-0.0075,-0.3641,277.8
14:47:53:286,-1.0394,0.721,11.7831,49.5941,-0.0426,0.1629,-0.362,278.16
14:47:53:306,-1.5583,1.0128,11.8307,49.7104,-0.0245,0.0948,-0.2438,278.81
14:47:53:332,-1.3582,0.9491,12.8317,49.7483,-0.2662,-0.2097,-0.0969,279.39
14:47:53:347,-0.686,0.7966,14.4752,49.4004,-0.2364,-0.3535,-0.0437,279.59
14:47:53:371,-0.1198,0.6,15.1036,49.6883,0.3599,-0.1363,0.0958,279.57
14:47:53:385,-0.4887,1.5915,13.8362,49.751,0.9305,0.3087,0.2694,279.84
14:47:53:408,-0.3675,2.404,12.3249,49.8793,0.543,0.4354,0.4099,280.32
14:47:53:426,1.1415,-0.6803,13.0312,49.9253,-0.0969,0.0681,0.1384,280.3
14:47:53:454,1.1869,-3.1168,13.6843,50.0335,0.2672,0.0809,-0.23,279.32
14:47:53:466,0.1077,-3.4294,12.468,50.1565,0.8113,0.214,-0.2417,278.89
14:47:53:485,-0.0591,-3.3293,11.2832,50.3532,0.6707,0.0266,-0.1331,279.54
14:47:53:506,0.8224,-3.6733,10.4836,50.4033,0.2129,-0.2151,-0.1597,280
14:47:53:526,0.8622,-3.6946,10.2208,50.6474,-0.1033,-0.1203,-0.313,279.89
14:47:53:548,-0.0786,-2.4948,9.7014,50.4679,-0.0543,0.2002,-0.3013,279.73
14:47:53:569,-1.1161,-0.0702,8.4115,50.4533,0.0128,0.5494,-0.1469,279.98
14:47:53:586,-0.9921,0.3028,6.9656,50.1601,-0.1427,0.6707,-0.0767,280.48
14:47:53:605,-0.9584,0.5993,6.2719,50.0165,-0.3918,0.4301,-0.1224,280.71
14:47:53:626,-0.8432,1.1332,6.5041,50.0398,-0.5004,-0.1214,-0.2087,280.65
14:47:53:647,-0.6779,1.47,6.9802,50.2654,-0.296,-0.527,-0.2566,280.56
14:47:53:693,-0.238,1.0451,6.8736,50.5557,0.0373,-0.6207,-0.3098,280.73
14:47:53:694,-0.0763,0.9973,6.459,50.8929,0.1821,-0.4621,-0.4131,281.19
14:47:53:705,-0.0011,1.0898,6.4359,50.6762,0.1373,-0.2779,-0.4972,281.7
14:47:53:725,0.0686,1.0309,6.8103,50.8583,-0.0053,-0.2236,-0.5568,282.19
14:47:53:745,0.0496,1.0674,7.5013,50.8448,-0.116,-0.1991,-0.5707,282.67
14:47:53:765,0.1654,0.9021,8.1423,50.7375,-0.1789,-0.0681,-0.5291,283.2
14:47:53:786,0.2601,0.705,8.7187,50.7824,-0.2513,0.0788,-0.4493,283.81
14:47:53:812,0.2776,0.6475,9.2887,50.8775,-0.2928,0.2055,-0.3492,284.41
14:47:53:826,0.4218,0.5314,9.9307,50.7821,-0.296,0.1608,-0.2875,284.94
14:47:53:850,0.1909,0.2094,10.6042,50.9866,-0.181,0.1831,-0.2183,285.36
14:47:53:866,-0.5567,0.2849,11.0395,51.0049,0.049,0.2747,0.0905,285.74
14:47:53:885,-0.8454,0.7186,11.2936,51.3903,0.1618,0.0777,0.4812,286.18
14:47:53:907,-0.5991,1.4005,11.6553,51.6324,0.1256,-0.3492,0.6697,286.35
14:47:53:932,0.067,1.1881,12.3696,51.753,0.0596,-0.6143,0.5653,285.87
14:47:53:949,-0.2988,1.0398,12.9829,51.8961,0.1661,-0.4131,0.4599,284.99
14:47:53:966,-0.9247,1.0693,13.0525,51.9115,0.2055,-0.2193,0.5078,284.29
14:47:53:986,-0.7274,0.3481,13.3954,51.8992,0.1341,-0.3215,0.5195,283.86
14:47:54:006,-0.1783,-0.4664,14.0177,52.0835,0.3066,-0.4557,0.2928,283.27
14:47:54:030,-0.4115,-1.0194,13.1925,52.4067,0.7389,-0.2119,0.0564,282.63
14:47:54:046,-0.9009,-1.0684,11.3413,52.6871,0.856,0.1054,-0.0596,282.48
14:47:54:066,-1.1861,-1.1325,10.009,52.3645,0.5738,0.2459,-0.0852,282.66
14:47:54:087,-1.0593,-1.5439,9.6212,51.9841,0.1863,0.0969,-0.1054,282.67
14:47:54:106,-0.749,-1.7688,9.4148,51.9785,-0.0085,-0.0053,-0.1405,282.48
14:47:54:126,-0.5934,-1.6275,8.8336,51.7608,0.0032,0.116,-0.1384,282.33
14:47:54:146,-0.6311,-1.2287,7.7266,51.8158,0.0266,0.3375,-0.0692,282.43
14:47:54:166,-0.6965,-0.5772,6.6661,52.0291,-0.0745,0.4802,0.0649,282.66
14:47:54:192,-0.662,-0.0098,6.0593,52.0991,-0.2513,0.4759,0.2012,282.76
14:47:54:206,-0.6043,0.5135,6.0352,52.2208,-0.362,0.3992,0.2885,282.61
14:47:54:226,-0.554,0.8994,6.298,52.3209,-0.3183,0.3386,0.3268,282.28
14:47:54:248,-0.2861,1.0702,6.6141,52.7715,-0.2065,0.2204,0.3247,281.93
14:47:54:267,0.021,0.9142,7.0555,52.8519,-0.131,0.0341,0.1991,281.62
14:47:54:286,0.166,0.8014,7.6705,52.6742,-0.1373,-0.2662,-0.0341,281.3
14:47:54:313,0.0725,0.5302,8.3588,52.7104,-0.165,-0.4589,-0.1725,281.01
14:47:54:326,0.0561,0.1595,9.1959,52.4659,-0.2002,-0.511,-0.2044,280.92
14:47:54:346,0.0277,0.1802,10.1089,52.2749,-0.1863,-0.3716,-0.1906,281.05
14:47:54:366,0.0633,0.2289,10.6332,52.4264,-0.0873,-0.0681,-0.1661,281.27
14:47:54:386,0.0053,0.3847,11.0017,52.3961,-0.0511,0.0426,-0.1597,281.57
14:47:54:408,-0.2022,0.582,11.5691,52.6158,-0.0479,0.016,-0.1512,281.87
14:47:54:425,-0.6783,0.5964,12.5369,52.8998,0.0543,-0.0213,-0.0586,282.06
14:47:54:445,-0.8996,0.8383,13.2708,52.9276,0.33,-0.1022,0.1416,282.26
14:47:54:465,-1.0762,1.3233,13.3183,53.3594,0.6952,-0.0724,0.263,282.49
14:47:54:486,-1.3414,2.6786,12.3674,53.1756,0.9646,0.115,0.3428,282.63
14:47:54:511,-1.3714,3.7043,10.9515,53.1536,0.5749,0.0138,0.3173,282.64
14:47:54:526,0.0342,1.2691,10.8092,53.3907,-0.1118,0.0841,0.082,282.28
14:47:54:546,0.0581,-0.2086,12.1272,53.1456,-0.1405,0.1831,-0.1757,281.41
14:47:54:567,-0.5845,-1.1175,11.0535,52.913,0.165,0.2992,-0.1118,280.95
14:47:54:594,-0.7835,-0.8202,9.7498,52.8167,-0.0256,0.5717,0.0011,281.31
14:47:54:606,-0.5192,-0.7145,9.4223,52.6849,-0.478,0.4535,0.0873,281.54
14:47:54:626,0.396,-1.31,9.9003,52.5067,-0.7985,-0.0884,-0.0096,281.3
14:47:54:646,0.8534,-1.5099,10.0125,52.5672,-0.7229,-0.3769,-0.2268,280.85
14:47:54:667,0.7928,-1.0465,9.3644,52.7461,-0.3822,-0.1256,-0.3024,280.63
14:47:54:689,0.6649,-0.1958,8.1835,52.801,-0.116,0.1363,-0.3311,281.02
14:47:54:705,0.3692,0.4089,6.9732,52.6644,-0.1001,0.214,-0.3311,281.65
14:47:54:725,-0.0195,0.719,6.4079,52.836,-0.197,0.0852,-0.2896,282.16
14:47:54:746,-0.1758,0.9402,6.3038,52.6856,-0.2608,-0.116,-0.2513,282.49
14:47:54:765,-0.0203,1.0217,6.5581,52.865,-0.2811,-0.1416,-0.2353,282.75
14:47:54:787,0.3047,0.8852,6.8667,52.5394,-0.2683,-0.1086,-0.3056,283
14:47:54:806,0.4523,0.7621,7.2345,52.3667,-0.313,0.0011,-0.4503,283.26
14:47:54:826,0.0837,0.8904,7.8243,52.0786,-0.4131,-0.0106,-0.5845,283.61
14:47:54:846,-0.1511,0.585,8.158,51.8252,-0.444,0.0053,-0.5781,284.01
14:47:54:865,-0.5874,0.2035,8.503,51.6862,-0.4695,0.0841,-0.4908,284.61
14:47:54:887,-1.0743,-0.0205,9.1358,51.5933,-0.5557,0.1278,-0.2587,285.28
14:47:54:905,-1.2019,-0.3109,10.4825,51.6267,-0.643,0,0.1043,285.87
14:47:54:926,-1.0275,-0.5237,12.2613,52.0394,-0.4365,-0.0149,0.5483,286.18
14:47:54:946,-0.2014,-0.8884,13.1686,52.0417,0.0873,-0.1874,0.9614,286.18
14:47:54:965,0.6913,-0.3301,13.3022,52.2186,0.4322,-0.6324,0.9103,285.99
14:47:54:987,0.6161,0.6035,13.5267,52.1743,0.5526,-0.7016,0.6154,285.26
14:47:55:006,0.3136,0.8387,13.5635,52.0044,0.7101,-0.2789,0.6154,284.19
14:47:55:026,0.2529,1.2261,12.7718,51.8897,0.8315,0.2864,0.7974,283.44
14:47:55:048,0.3822,2.3116,11.8867,51.8522,0.7559,0.5611,0.8358,282.95
14:47:55:069,0.7075,2.0722,11.6886,51.4901,0.3811,0.1182,0.461,282.23
14:47:55:086,0.4502,0.0611,12.4731,51.4252,0.2321,-0.4014,-0.1203,281.09
14:47:55:106,-0.2553,-1.3687,12.4448,51.3087,0.5206,-0.5536,-0.428,280.1
14:47:55:126,-0.8785,-1.8968,11.3384,51.0726,0.7335,-0.3694,-0.4567,280.12
14:47:55:146,-1.1491,-1.871,10.2157,51.4618,0.5164,-0.1469,-0.3162,280.77
14:47:55:168,-1.0024,-1.7678,9.5993,51.3697,0.0788,-0.1001,-0.2183,281.35
14:47:55:185,-0.721,-1.5152,9.2535,51.2559,-0.1874,0.017,-0.2694,281.52
14:47:55:206,-0.7244,-1.3051,8.5475,50.9308,-0.2534,0.2694,-0.3428,281.51
14:47:55:225,-0.9374,-0.9917,7.4821,50.685,-0.2002,0.5632,-0.3077,281.7
14:47:55:246,-1.0958,-0.596,6.4471,50.3848,-0.148,0.7208,-0.1288,282.13
14:47:55:268,-1.133,-0.1495,5.643,50.5644,-0.1235,0.7495,0.1043,282.59
14:47:55:287,-1.0739,0.334,5.2058,50.4323,-0.1001,0.6377,0.2853,282.86
14:47:55:306,-0.9941,0.723,5.0134,50.5617,-0.0724,0.428,0.3769,282.82
14:47:55:326,-0.6686,0.7824,5.0139,50.4153,-0.0596,0.1171,0.4269,282.53
14:47:55:346,-0.243,0.7452,5.4154,50.3372,-0.1714,-0.2023,0.3897,282.11
14:47:55:367,0.01,0.7353,6.5302,50.3056,-0.4397,-0.5217,0.2651,281.56
14:47:55:386,0.5207,0.261,8.2586,50.1157,-0.6622,-0.7431,0.0905,280.9
14:47:55:406,0.5746,-0.1831,9.916,49.8829,-0.6462,-0.6154,-0.1341,280.32
14:47:55:425,-0.0541,-0.1456,11.2812,49.9419,-0.428,-0.1597,-0.2257,280.05
14:47:55:446,-0.8655,0.4597,11.8393,49.7764,-0.1725,0.3748,-0.1852,280.24
14:47:55:466,-1.312,0.832,12.1035,49.7089,-0.1554,0.4993,-0.1959,280.75
14:47:55:485,-1.6016,1.0975,12.8323,49.6761,-0.2395,0.3077,-0.2353,281.16
14:47:55:505,-1.7988,1.0302,13.9736,49.9533,-0.1373,0.1341,-0.1725,281.35
14:47:55:525,-1.7816,0.8119,14.7495,49.7172,0.2736,0.0607,-0.0958,281.6
14:47:55:554,-2.1329,1.1954,14.3936,49.8346,0.8794,0.1746,0.0319,281.98
14:47:55:566,-2.4079,2.3443,12.8174,49.5034,1.1126,0.3141,0.2683,282.52
14:47:55:586,-0.8613,1.3224,11.9586,49.1465,0.6675,0.0798,0.3364,282.93
14:47:55:606,0.0549,-0.9979,12.8827,49.0287,0.6143,-0.23,0.0937,282.62
14:47:55:626,0.1979,-1.7645,12.0824,48.6982,1.1828,0.1065,0.0437,281.84
14:47:55:650,0.2384,-1.588,9.9744,48.5771,1.1967,0.3588,0.0884,281.96
14:47:55:665,0.8906,-1.6173,8.7869,48.6559,0.5515,0.2811,0.0298,282.25
14:47:55:686,1.567,-2.1256,8.6054,48.5796,-0.1512,0.0596,-0.2534,281.89
14:47:55:738,1.2714,-2.2393,8.7195,48.5836,-0.6079,-0.0426,-0.593,281.26
14:47:55:739,0.391,-1.4832,8.6384,48.2923,-0.7048,0.1086,-0.6452,280.99
14:47:55:757,-0.2464,-0.3776,7.8793,48.1009,-0.7154,0.3396,-0.4503,281.39
14:47:55:765,-0.5314,0.262,7.2115,47.7545,-0.7846,0.5387,-0.1916,282.18
14:47:55:785,-0.6893,0.7382,6.7938,47.6973,-0.823,0.4951,-0.0862,282.77
14:47:55:812,-0.8985,1.0395,6.7081,47.4522,-0.7634,0.2129,-0.0319,283.03
14:47:55:826,-1.0273,1.1741,6.9799,47.5056,-0.5675,-0.0873,0.0277,283.14
14:47:55:846,-1.0261,0.8607,6.9882,47.3089,-0.2736,-0.296,0.1054,283.23
14:47:55:866,-0.9701,0.8329,6.8579,47.0483,-0.0809,-0.3215,0.2193,283.37
14:47:55:886,-0.8176,1.0673,7.3204,47.0339,-0.0798,-0.2832,0.3226,283.41
14:47:55:906,-0.4791,1.0486,8.2948,47.0868,-0.1235,-0.3343,0.2449,283.26
14:47:55:933,-0.6358,1.0982,9.5098,46.7127,-0.0053,-0.3748,0.1703,282.87
14:47:55:946,-0.6891,1.2087,10.3135,46.6397,0.1852,-0.3205,0.2374,282.54
14:47:55:965,-0.3846,1.1329,10.8539,46.269,0.2757,-0.2268,0.346,282.44
14:47:55:986,0.0174,1.1351,11.5593,45.877,0.2821,-0.1341,0.3918,282.3
14:47:56:006,0.0717,1.2906,12.3009,45.8157,0.3205,-0.033,0.412,281.97
14:47:56:028,0.1813,1.1086,12.591,45.8536,0.3556,0.1182,0.5547,281.54
14:47:56:046,0.6281,0.8828,12.5992,45.6747,0.2811,0.1672,0.6516,281.15
14:47:56:065,0.943,1.0041,12.9267,45.1999,0.28,0.2119,0.6505,280.63
14:47:56:085,1.3369,1.7436,12.7672,45.0558,0.4014,0.3183,0.6154,279.8
14:47:56:106,0.9382,1.7218,12.0823,44.6394,0.2523,0.2214,0.4312,279.12
14:47:56:127,0.5884,1.2384,12.5102,44.2223,-0.0032,-0.0202,0.1267,278.41
14:47:56:149,-0.071,-0.4842,13.2273,43.775,0.1618,-0.3354,-0.3226,277.67
14:47:56:165,-0.9377,-1.4645,12.6288,43.3461,0.543,-0.5451,-0.5589,277.31
14:47:56:186,-1.4213,-1.9162,11.3843,43.3222,0.7091,-0.5153,-0.5589,277.76
14:47:56:206,-1.3157,-1.9058,10.3301,42.7959,0.6452,-0.3141,-0.4322,278.57
14:47:56:227,-0.8274,-1.5929,9.3963,42.5695,0.5462,0.016,-0.5259,279.28
14:47:56:246,-0.8413,-1.0635,8.2189,42.4486,0.4259,0.3545,-0.7399,279.79
14:47:56:267,-1.0073,-0.7318,7.0753,42.0045,0.2236,0.4983,-0.9018,280.33
14:47:56:287,-1.29,-0.482,6.2481,41.6883,-0.033,0.4461,-0.922,281.02
14:47:56:314,-1.5948,0.023,5.8186,41.7,-0.2949,0.3077,-0.774,281.81
14:47:56:325,-1.6274,0.432,5.8582,41.7596,-0.4887,0.1916,-0.5078,282.64
14:47:56:345,-1.3536,0.464,6.0521,41.7164,-0.5195,0.1235,-0.2353,283.37
14:47:56:365,-1.0715,0.6643,6.1925,41.4468,-0.4535,0.0596,-0.0202,283.94
14:47:56:386,-1.0622,0.8435,6.5174,41.3195,-0.3599,-0.082,0.0926,284.3
14:47:56:408,-0.9601,0.8795,6.9345,40.957,-0.2832,-0.2545,0.1831,284.43
14:47:56:426,-0.739,0.8511,7.4588,40.3552,-0.2225,-0.3599,0.2438,284.38
14:47:56:445,-0.2697,0.7338,7.9265,39.8666,-0.1629,-0.3843,0.263,284.23
14:47:56:465,0.0168,0.9067,8.5543,39.4356,-0.1629,-0.3577,0.1139,284
14:47:56:486,-0.2029,1.2897,9.2044,38.9472,-0.2417,-0.2161,-0.0692,283.74
14:47:56:507,-0.3492,1.3693,10.2594,38.5302,-0.3726,-0.1373,-0.2076,283.54
14:47:56:525,-0.2926,1.6246,11.5423,38.2363,-0.4716,-0.0905,-0.3897,283.52
14:47:56:546,-0.32,2.0738,12.7723,38.149,-0.5877,-0.0053,-0.6186,283.64
14:47:56:566,-0.2263,1.5352,14.0311,38.2256,-0.7101,0.1065,-0.9209,283.97
14:47:56:586,-0.7298,0.9014,15.1822,38.359,-0.3481,0.231,-1.1488,284.52
14:47:56:611,-1.9003,1.304,14.5881,38.198,0.2726,0.5802,-1.0316,285.52
14:47:56:626,-2.5732,2.2488,13.4525,37.8735,0.33,0.7548,-0.7463,287.25
14:47:56:646,-1.5593,0.7427,13.3675,37.7617,0.1395,0.264,-0.5717,288.91
14:47:56:666,-0.4663,-1.6455,13.3463,37.1797,0.5419,-0.0979,-0.6526,289.77
14:47:56:686,-0.9931,-2.2596,11.3111,37.3364,1.2031,0.0894,-0.5919,290.35
14:47:56:706,-1.552,-1.9257,9.0391,36.8878,1.2212,0.2491,-0.329,291.49
14:47:56:726,-1.4975,-1.7191,8.1565,36.7156,0.6409,-0.0224,0.0224,292.54
14:47:56:746,-0.5829,-2.0098,8.4092,37.0537,-0.0713,-0.6228,0.2374,292.8
14:47:56:766,0.128,-1.8434,8.8464,36.9514,-0.3684,-0.791,0.1948,292.32
14:47:56:793,-0.0368,-1.029,8.9259,36.9246,-0.3002,-0.5738,0.1097,291.64
14:47:56:805,-0.5767,-0.1433,8.0763,36.9658,-0.1288,-0.2161,0.1033,291.35
14:47:56:826,-0.9166,0.3946,6.9998,36.8941,-0.1235,0.0085,0.1682,291.42
14:47:56:845,-1.0406,0.776,6.383,36.6139,-0.2502,0.0958,0.2651,291.46
14:47:56:866,-0.6846,0.8825,6.3264,36.0257,-0.3364,0.0085,0.3364,291.29
14:47:56:886,-0.3239,1.1023,6.4266,36.0563,-0.2289,-0.0479,0.329,290.92
14:47:56:906,0.0166,1.3017,6.4236,35.9858,-0.0788,-0.1416,0.2906,290.54
14:47:56:925,0.4028,1.4723,6.4829,35.8776,-0.0554,-0.2513,0.1693,290.25
14:47:56:946,0.5418,1.6965,6.9356,35.7074,-0.164,-0.3215,0.0106,289.94
14:47:56:966,0.5721,1.7487,7.8519,35.7741,-0.3183,-0.3066,-0.1341,289.64
14:47:56:987,0.4287,1.6868,8.9133,35.7394,-0.378,-0.214,-0.2449,289.48
14:47:57:006,0.2232,1.5437,9.7664,35.7711,-0.3034,-0.1065,-0.2491,289.51
14:47:57:025,0.2271,1.4119,10.6294,35.6609,-0.231,-0.0543,-0.2183,289.8
14:47:57:045,0.0905,1.2893,11.3769,35.7713,-0.0937,-0.0213,-0.181,290.17
14:47:57:066,-0.1514,1.072,11.8772,35.5311,0.0713,-0.0575,-0.082,290.51
14:47:57:085,-0.3336,0.6811,12.2104,35.6503,0.1938,-0.1874,0.0873,290.85
14:47:57:105,-0.3967,0.2768,12.5663,35.7053,0.1331,-0.2566,0.2896,291.06
14:47:57:125,-0.483,0.0781,13.3235,35.6458,0.0479,-0.1586,0.5089,291.02
14:47:57:146,-0.6705,0.5412,13.772,35.7724,0.2491,0.1384,0.7974,290.65
14:47:57:174,-0.6037,1.026,13.281,35.9043,0.4354,0.2736,0.9986,290.22
14:47:57:185,-0.2747,0.8596,12.8858,35.7829,0.3535,-0.0884,0.7676,289.66
14:47:57:205,-0.2005,-0.1051,12.7615,35.54,0.3897,-0.4642,0.3162,288.56
14:47:57:226,-0.8525,-0.8947,11.7434,35.2701,0.6377,-0.4056,0.0617,287.41
14:47:57:247,-1.3668,-1.2683,10.4404,35.1517,0.6558,-0.2768,0.099,287.04
14:47:57:267,-1.4,-1.3611,9.5298,35.1273,0.411,-0.2502,0.2608,287.08
14:47:57:286,-1.0255,-1.2578,9.2095,35.427,0.0564,-0.2438,0.3801,286.93
14:47:57:305,-0.5622,-1.0284,9.1542,35.8957,-0.2108,-0.0969,0.3492,286.45
14:47:57:326,-0.2891,-0.8784,8.8514,36.0509,-0.3364,0.1522,0.2555,285.83
14:47:57:346,-0.3565,-0.6349,8.2359,36.2778,-0.3045,0.4493,0.23,285.32
14:47:57:367,-0.596,-0.1805,7.4819,36.4238,-0.2012,0.6047,0.3396,285.02
14:47:57:386,-0.6161,0.2824,6.814,36.4705,-0.1011,0.6313,0.5153,284.86
14:47:57:405,-0.4319,0.6293,6.4332,36.4497,-0.0266,0.5046,0.6037,284.59
14:47:57:426,-0.2628,0.9745,6.2717,36.5482,0.066,0.2885,0.5664,284.1
14:47:57:446,-0.1368,1.3077,6.1785,36.412,0.0958,0.1405,0.5142,283.44
14:47:57:466,0.0368,1.3713,6.4063,36.3423,0.0149,-0.0202,0.4216,282.8
14:47:57:485,0.2762,1.2488,7.2289,36.6918,-0.2044,-0.3226,0.2885,282.16
14:47:57:506,0.5682,0.7915,8.8817,36.715,-0.3854,-0.6026,0.0937,281.49
14:47:57:526,0.6375,0.6346,10.5897,36.8264,-0.3002,-0.7133,-0.1246,280.92
14:47:57:554,0.4116,0.6972,11.5386,36.8191,0.0011,-0.4088,-0.2268,280.67
14:47:57:566,0.0983,0.6334,11.7139,36.6724,0.2033,-0.1246,-0.1906,280.95
14:47:57:586,0.1669,0.4811,12.1329,37.0064,0.1629,-0.116,-0.1299,281.46
14:47:57:606,0.2843,0.4834,13.0834,36.9844,0.2129,-0.1757,-0.1491,281.77
14:47:57:627,0.0306,0.8801,13.7063,37.0605,0.511,-0.1139,-0.1107,281.89
14:47:57:653,-0.2641,1.7272,13.1455,36.8728,0.823,0.0777,0.0298,282.2
14:47:57:666,-0.2938,2.7045,12.2212,36.892,0.7112,0.1395,0.0756,282.64
14:47:57:686,0.7312,1.6252,11.9492,36.7748,0.1107,-0.0458,-0.1341,282.79
14:47:57:706,1.0519,-0.2911,12.4083,37.041,-0.0639,0.1842,-0.5046,282.38
14:47:57:726,-0.1013,-0.756,11.8813,37.131,0.3258,0.5845,-0.5238,282.06
14:47:57:753,-0.5398,-1.1344,10.6048,37.2914,0.5291,0.4578,-0.2321,282.78
14:47:57:800,-0.2732,-1.359,9.4647,37.4637,0.4802,0.0543,0.0309,283.7
14:47:57:801,0.293,-1.1808,8.4497,37.5249,0.3343,-0.1522,0.1874,283.95
14:47:57:814,0.712,-0.744,7.5947,37.6204,0.1001,-0.1746,0.2012,283.84
14:47:57:830,0.7885,-0.1124,7.0058,37.7844,-0.181,-0.1554,0.1703,283.52
14:47:57:849,0.6615,0.6894,6.7632,37.9095,-0.3865,-0.0011,0.1448,283.11
14:47:57:865,0.5191,1.3037,6.6159,38.1734,-0.4908,0.2002,0.0862,282.75
14:47:57:885,0.4026,1.6119,6.5176,38.4282,-0.5057,0.2811,-0.0202,282.51
14:47:57:905,0.3924,1.6611,6.5869,38.4617,-0.4919,0.1565,-0.1256,282.37
14:47:57:925,0.3752,1.7464,6.8096,38.6688,-0.4131,-0.0394,-0.1778,282.34
14:47:57:946,0.41,2.0423,7.0024,38.8125,-0.3162,-0.165,-0.2033,282.45
14:47:57:965,0.5591,2.114,7.151,38.75,-0.3641,-0.2161,-0.2566,282.7
14:47:57:986,0.8545,1.7997,7.6797,38.9642,-0.6026,-0.214,-0.362,282.94
14:47:58:006,0.846,1.4953,8.7649,39.3515,-0.7836,-0.0948,-0.4844,283.11
14:47:58:033,0.595,1.2662,9.8908,39.3975,-0.6569,0.0181,-0.4578,283.33
14:47:58:045,0.6007,0.9159,10.3205,39.6651,-0.3407,0.1256,-0.297,283.85
14:47:58:065,0.5201,1.05,10.5025,40.165,-0.1405,0.2214,-0.1224,284.61
14:47:58:086,0.549,1.2144,10.88,40.1945,-0.0969,0.2779,-0.0181,285.24
14:47:58:106,0.5485,1.0419,11.509,40.3618,-0.0745,0.1576,-0.0437,285.52
14:47:58:127,0.3018,0.7163,12.1291,40.7255,-0.0522,-0.0362,-0.1246,285.59
14:47:58:146,-0.4405,0.6411,12.8895,40.9099,-0.0266,-0.0192,-0.0724,285.62
14:47:58:165,-1.208,0.9365,13.3896,41.2289,0.2406,0.3865,0.2576,285.71
14:47:58:186,-1.1883,1.1822,12.8756,41.4676,0.4503,0.6367,0.6452,285.98
14:47:58:206,-0.4285,0.8314,12.5459,41.6842,0.2726,0.2523,0.5749,286.12
14:47:58:232,0.0704,-0.214,12.7824,41.8477,0.1735,-0.2747,0.1352,285.5
14:47:58:246,-0.6266,-0.8343,12.3607,41.9082,0.4291,-0.2278,-0.1682,284.51
14:47:58:266,-1.2162,-1.3302,11.0405,42.2098,0.6164,0.0277,-0.1906,284.21
14:47:58:286,-1.4156,-1.7147,9.9395,42.4159,0.4365,0.049,-0.099,284.58
14:47:58:306,-1.2387,-1.7548,9.3674,42.7661,0.0852,-0.0671,0.0394,284.85
14:47:58:330,-0.7417,-1.586,8.9606,42.8029,-0.2055,-0.0202,0.116,284.76
14:47:58:345,-0.3773,-1.2966,8.4672,43.0507,-0.3567,0.164,0.0873,284.51
14:47:58:365,-0.3196,-0.874,7.7973,43.3047,-0.3971,0.4333,0.0596,284.26
14:47:58:386,-0.5283,-0.259,7.1153,43.3513,-0.3875,0.5685,0.132,284.13
14:47:58:409,-0.5671,0.3714,6.6808,43.8174,-0.3556,0.5057,0.2864,284.09
14:47:58:426,-0.4371,0.7389,6.498,44.0393,-0.2651,0.3045,0.4312,284
14:47:58:445,-0.3024,0.9515,6.4241,43.984,-0.1235,0.1086,0.4663,283.74
14:47:58:466,-0.2886,1.1864,6.516,43.9803,-0.0245,-0.0841,0.3833,283.34
14:47:58:485,-0.1698,1.0614,6.8207,43.9022,-0.0394,-0.3098,0.2087,282.87
14:47:58:512,-0.0837,0.9379,7.5412,44.1807,-0.181,-0.4631,0.0117,282.4
14:47:58:525,-0.0596,0.7447,8.692,44.6133,-0.3609,-0.494,-0.1182,282
14:47:58:546,0.0029,0.3366,9.8736,45.1217,-0.4205,-0.3322,-0.2193,281.8
14:47:58:566,-0.2732,0.0567,10.7793,45.8,-0.2992,-0.0021,-0.264,281.72
14:47:58:587,-0.6067,0.1075,11.0677,46.2776,-0.1778,0.2385,-0.2268,282.08
14:47:58:611,-0.5714,-0.012,11.389,46.5997,-0.2225,0.2417,-0.198,282.52
14:47:58:625,-0.8658,0.1119,11.9814,46.4893,-0.2875,0.3024,-0.1512,282.87
14:47:58:646,-1.3662,0.4976,12.6932,46.379,-0.2012,0.3609,0.0937,283.05
14:47:58:665,-1.1835,0.9297,13.0062,46.5248,0.0894,0.3492,0.3513,283.29
14:47:58:687,-0.9486,1.4816,12.5423,47.024,0.4269,0.3556,0.4035,283.43
14:47:58:711,-0.9368,2.1944,11.8547,47.2697,0.3939,0.2236,0.296,283.37
14:47:58:725,0.0515,0.6781,11.8762,47.5212,-0.0756,-0.082,0.0011,283.07
14:47:58:746,0.1205,-0.8336,12.5263,47.7741,-0.181,0.099,-0.3503,282.44
14:47:58:766,-0.894,-1.0216,12.0236,47.4665,0.2353,0.5494,-0.3205,282.03
14:47:58:793,-1.2915,-1.2013,10.6482,47.2223,0.4844,0.609,-0.0735,282.56
14:47:58:806,-1.031,-1.4232,9.7311,47.2262,0.3609,0.1246,0.0894,283.33
14:47:58:826,-0.2533,-1.7706,9.5144,47.4892,0.115,-0.4844,0.0916,283.52
14:47:58:845,0.3367,-1.8208,9.4363,48.0072,-0.0383,-0.6942,-0.0277,283.22
14:47:58:866,0.4393,-1.5607,9.0059,48.2557,-0.0351,-0.4322,-0.1544,282.87
14:47:58:886,0.2096,-0.8707,8.1616,48.3406,0.0266,0.0905,-0.1448,282.81
14:47:58:906,0.0721,-0.313,7.0312,48.3379,0.0468,0.5792,-0.0681,283.04
14:47:58:925,-0.1257,0.2053,6.1633,48.2054,-0.049,0.708,-0.0767,283.36
14:47:58:945,-0.3607,0.7443,5.7203,48.248,-0.2023,0.4716,-0.1395,283.51
14:47:58:966,-0.53,1.0752,5.837,48.2666,-0.3098,0.1682,-0.1576,283.49
14:47:58:987,-0.4995,1.2693,6.2693,48.4154,-0.3205,-0.0341,-0.1224,283.5
14:47:59:005,-0.1943,1.2087,6.7917,48.458,-0.329,-0.2065,-0.1022,283.61
14:47:59:025,0.0271,1.103,7.6274,48.3369,-0.4695,-0.3056,-0.1533,283.74
14:47:59:046,-0.1132,1.0275,8.9684,48.7074,-0.6356,-0.378,-0.2811,283.79
14:47:59:065,-0.5353,0.9653,10.29,48.8791,-0.5643,-0.3162,-0.3237,283.78
14:47:59:086,-0.6858,0.699,11.1277,49.0812,-0.3258,-0.1789,-0.1906,283.99
14:47:59:105,-0.6467,0.4342,11.3179,49.4777,-0.0894,0.1139,0.0106,284.48
14:47:59:126,-0.8901,0.601,11.6152,49.617,0.0639,0.2694,0.2289,284.95
14:47:59:146,-1.0122,1.0244,11.9564,49.6826,0.2523,0.164,0.4631,285.2
14:47:59:174,-0.6755,1.0948,12.0261,49.7364,0.4163,-0.1363,0.6239,285.15
14:47:59:186,-0.1434,1.0223,12.0547,49.6994,0.4301,-0.4131,0.6069,284.82
14:47:59:205,-0.0327,1.1342,12.3754,49.9087,0.4333,-0.3268,0.5557,284.15
14:47:59:226,-0.1804,1.1814,12.2291,50.0376,0.5206,0.017,0.5451,283.38
14:47:59:247,-0.3843,1.1807,11.6541,50.4547,0.4312,0.1672,0.4865,282.79
14:47:59:273,-0.2879,0.6241,11.6107,50.7033,0.1043,-0.2364,0.2694,282.24
14:47:59:285,0.0451,-0.5188,11.9489,51.0426,-0.1118,-0.6537,-0.148,281.49
14:47:59:305,-0.2876,-1.1874,11.9293,51.2233,0.0064,-0.6026,-0.477,280.77
14:47:59:325,-0.7612,-1.9278,11.3077,51.5274,0.0809,-0.411,-0.5856,280.75
14:47:59:346,-0.9354,-2.5296,10.6418,51.3985,-0.0373,-0.2619,-0.5653,281.32
14:47:59:368,-0.9511,-2.6051,9.9336,51.5019,-0.2044,-0.0958,-0.4653,281.96
14:47:59:386,-0.8592,-2.3966,9.1664,51.7215,-0.3343,0.1703,-0.3801,282.53
14:47:59:406,-0.8955,-2.0506,8.3642,51.9718,-0.3961,0.4567,-0.3567,283.02
14:47:59:426,-1.0965,-1.642,7.488,52.2453,-0.3737,0.7176,-0.3087,283.46
14:47:59:446,-1.3775,-1.2341,6.6886,52.3194,-0.3087,0.8677,-0.1459,283.94
14:47:59:466,-1.6317,-0.7819,6.1893,52.4432,-0.2502,0.8113,0.1171,284.43
14:47:59:486,-1.7544,-0.3528,5.9112,52.3625,-0.1895,0.658,0.4333,284.79
14:47:59:505,-1.6981,0.0861,5.9839,52.6059,-0.0926,0.5227,0.708,284.83
14:47:59:532,-1.535,0.3865,6.1649,52.7226,0.0128,0.3599,0.8602,284.53
14:47:59:547,-1.2591,0.7699,6.7496,52.9125,-0.0405,0.0319,0.8794,283.9
14:47:59:571,-0.9201,1.1835,8.0002,52.7758,-0.116,-0.4088,0.6973,282.98
14:47:59:585,-0.2237,0.7899,9.2114,52.8858,-0.1629,-0.6888,0.4173,281.84
14:47:59:606,-0.1287,0.3066,10.23,53.0511,-0.1288,-0.5408,0.1278,280.84
14:47:59:626,-0.5983,0.3784,10.8361,53.0316,-0.0724,-0.1821,0.0021,280.18
14:47:59:653,-0.825,0.4345,11.2743,53.078,-0.1224,0.0671,0.0043,279.98
14:47:59:665,-0.6719,0.3535,11.9119,53.5551,-0.3056,0.0948,-0.0138,279.98
14:47:59:686,-0.5001,0.4226,13.0081,53.7422,-0.4131,-0.0628,-0.0586,279.92
14:47:59:706,-0.1931,0.3877,13.9423,53.8689,-0.2321,-0.1597,-0.0852,279.8
14:47:59:726,0.0278,0.4498,14.0479,54.2396,0.1895,-0.0639,-0.0788,279.85
14:47:59:752,0.1038,1.506,13.0956,54.2566,0.4291,0.1299,-0.0202,280.16
14:47:59:765,0.7703,1.6911,12.3146,54.4606,0.05,0.115,-0.1139,280.54
14:47:59:786,1.5836,-0.3087,13.0678,54.4876,-0.1852,-0.2268,-0.5025,280.57
14:47:59:844,1.044,-1.7617,12.8682,54.4694,0.4195,-0.1203,-0.7996,280.29
14:47:59:845,-0.2915,-1.6091,11.0297,54.2568,0.9007,0.2161,-0.8113,280.84
14:47:59:846,-1.0356,-1.3171,9.2336,54.2731,0.7133,0.2555,-0.7027,282.16
14:47:59:874,-1.0241,-1.7314,8.7541,53.964,0.1661,-0.0639,-0.6037,283.27
14:47:59:885,-0.6864,-2.3477,9.11,53.8794,-0.2353,-0.3897,-0.6186,283.82
14:47:59:906,-0.8909,-2.1043,9.2555,53.772,-0.197,-0.329,-0.6313,284.12
14:47:59:927,-1.2324,-1.3781,8.3785,53.7118,0.0841,-0.0351,-0.4621,284.64
14:47:59:950,-1.2966,-0.7648,7.009,53.3477,0.2364,0.1842,-0.2321,285.54
14:47:59:966,-1.2011,-0.1428,5.9897,53.4206,0.1554,0.2204,-0.0681,286.37
14:47:59:986,-1.0192,0.3166,5.5525,52.9887,-0.0234,0.1182,0.0341,286.77
14:48:00:006,-0.7105,0.7378,5.7709,53.0182,-0.1384,0.0106,0.1246,286.81
14:48:00:035,-0.2696,0.9701,6.2626,52.9055,-0.0905,-0.0554,0.0798,286.67
14:48:00:052,-0.0776,1.0953,6.5667,52.8001,-0.0586,-0.1895,-0.0447,286.52
14:48:00:066,0.1498,1.0395,7.1709,52.8376,-0.116,-0.2811,-0.1693,286.43
14:48:00:085,-0.0738,1.0515,8.143,53.0298,-0.2289,-0.2108,-0.3268,286.38
14:48:00:105,-0.314,0.6821,9.1576,52.7157,-0.3194,-0.0554,-0.3929,286.46
14:48:00:128,-0.5849,0.2764,9.9594,52.5626,-0.3737,0.0681,-0.2949,286.72
14:48:00:145,-0.666,0.1368,10.9255,52.4905,-0.4067,0.1033,-0.0692,287.14
14:48:00:165,-0.6064,0.2092,11.9927,52.5409,-0.2704,0.0873,0.1586,287.52
14:48:00:186,-0.5395,0.3285,12.4509,52.2812,0.0202,0.0138,0.3471,287.72
14:48:00:208,-0.6805,0.4794,12.4327,51.9889,0.2023,-0.1246,0.5153,287.77
14:48:00:232,-0.4798,0.3801,12.3769,51.7638,0.1821,-0.2172,0.6718,287.6
14:48:00:246,-0.7727,0.7481,12.7076,51.3445,0.214,-0.1597,0.807,287.08
14:48:00:266,-1.1022,1.0357,12.6359,50.9002,0.3833,-0.0543,1.0114,286.32
14:48:00:286,-1.0901,1.12,12.3578,50.9086,0.494,-0.264,1.1764,285.54
14:48:00:306,0.034,0.5503,12.5193,50.7612,0.4653,-0.7059,0.9997,284.56
14:48:00:326,0.6218,-0.6111,12.9174,50.4375,0.5462,-0.7815,0.3854,283.2
14:48:00:347,-0.2503,-1.1231,12.157,50.316,0.8027,-0.4024,-0.0245,281.86
14:48:00:366,-1.0358,-1.582,10.5443,50.1778,0.7602,0.0053,-0.1033,281.37
14:48:00:387,-1.4497,-1.5366,9.3963,49.8316,0.3577,0.2608,0.0085,281.47
14:48:00:414,-1.2315,-1.4395,9.1434,49.7596,-0.0979,0.3748,0.1341,281.46
14:48:00:426,-0.5887,-1.5592,9.1308,49.5761,-0.3652,0.5281,0.0756,281.18
14:48:00:445,-0.4566,-1.3566,8.8422,49.4511,-0.3492,0.8017,-0.0852,280.79
14:48:00:465,-0.6945,-0.912,7.8428,48.9953,-0.181,0.9837,-0.1437,280.62
14:48:00:486,-0.8827,-0.4544,6.6735,48.6957,-0.0937,0.9209,-0.082,280.8
14:48:00:508,-0.9572,-0.2467,6.1413,48.2787,-0.1065,0.6697,0.0341,281.09
14:48:00:525,-0.8056,-0.0496,6.204,47.7794,-0.0522,0.477,0.1757,281.22
14:48:00:546,-0.7772,0.3087,6.2439,47.3828,0.082,0.4983,0.2896,281.22
14:48:00:565,-0.889,0.6835,6.2805,47.2617,0.099,0.5004,0.3524,281.14
14:48:00:586,-0.8767,0.8562,6.6463,46.9433,-0.0713,0.3087,0.3056,280.92
14:48:00:612,-0.9136,1.0732,7.6094,46.6272,-0.23,-0.0106,0.198,280.47
14:48:00:626,-0.9415,1.1991,8.6686,46.2352,-0.2097,-0.264,0.1192,279.93
14:48:00:646,-0.8063,1.1005,9.5107,46.0519,-0.0979,-0.4067,0,279.58
14:48:00:666,-1.1087,1.1119,9.963,45.8451,-0.0415,-0.3247,-0.1299,279.44
14:48:00:686,-1.3242,1.3371,10.4243,45.7676,-0.1682,-0.1991,-0.1437,279.45
14:48:00:713,-1.1175,1.0573,11.3846,45.7135,-0.4812,-0.197,-0.1778,279.55
14:48:00:730,-1.0338,0.9614,13.0362,45.5037,-0.6611,-0.2129,-0.2438,279.57
14:48:00:746,-1.0809,0.9097,14.4483,45.0691,-0.4216,-0.131,-0.2427,279.55
14:48:00:766,-1.2455,1.3119,14.1665,44.7581,-0.0458,-0.0064,-0.1384,279.82
14:48:00:793,-0.9352,1.378,13.3286,44.355,-0.1597,-0.1714,-0.1065,280.38
14:48:00:805,-0.1097,-0.1196,13.6047,44.2022,-0.2172,-0.3098,-0.2395,280.69
14:48:00:826,-0.3504,-1.3705,13.1554,43.983,0.3599,-0.1246,-0.2789,280.62
14:48:00:846,-0.991,-1.4828,11.2785,43.839,0.8496,-0.2513,-0.132,281.02
14:48:00:866,-1.0563,-1.3569,9.7899,43.733,0.8219,-0.7612,0.0437,281.79
14:48:00:886,0.1552,-1.7865,9.3105,43.3617,0.445,-1.4554,0.066,282.09
14:48:00:910,1.3974,-2.3306,9.5389,43.2338,0.0181,-1.6907,-0.1778,281.83
14:48:00:926,1.6076,-2.3078,9.5096,42.8107,-0.164,-1.3436,-0.4557,281.32
14:48:00:946,1.0414,-1.6153,8.8806,42.7427,-0.1533,-0.5494,-0.5376,281.19
14:48:00:966,0.367,-0.9319,7.6534,42.4372,-0.1746,0.2619,-0.3929,281.61
14:48:00:986,0.0025,-0.2894,6.5704,42.0848,-0.3013,0.8198,-0.1714,282.39
14:48:01:005,-0.0823,0.1089,6.1882,41.9703,-0.4557,0.9465,-0.0224,282.96
14:48:01:025,0.1025,0.5128,6.289,41.7137,-0.4535,0.824,0.0075,283.19
14:48:01:046,0.3058,0.9117,6.352,41.5912,-0.247,0.6143,-0.0628,283.22
14:48:01:066,0.4694,1.0965,5.9126,41.3856,-0.049,0.2938,-0.1608,283.31
14:48:01:087,0.5356,1.2289,5.5593,41.168,-0.0266,-0.164,-0.2917,283.53
14:48:01:105,0.312,1.2904,5.7465,41.2423,-0.2097,-0.7793,-0.4461,283.72
14:48:01:125,0.0811,1.4904,6.8025,41.0641,-0.5259,-1.0753,-0.5206,283.86
14:48:01:146,-0.218,1.3153,8.9227,41.0686,-0.7463,-0.8272,-0.4674,284
14:48:01:166,-0.5372,0.8538,10.921,40.8352,-0.6473,-0.3524,-0.2289,284.28
14:48:01:186,-0.2121,0.1814,12.0955,40.5213,-0.4429,-0.0916,0.1043,284.78
14:48:01:205,0.1934,0.2322,13.1258,40.0424,-0.2949,-0.0085,0.2736,285.31
14:48:01:226,0.4882,0.1294,14.2238,39.6641,-0.1395,0.0075,0.313,285.41
14:48:01:246,0.3671,-0.1515,14.8757,39.5933,0.0117,0,0.3449,285.26
14:48:01:273,0.1191,-0.176,15.0464,39.453,0.1459,0.0724,0.5046,285.02
14:48:01:286,0.4336,-0.336,15.0103,39.3556,0.1139,0.0767,0.6633,284.77
14:48:01:306,0.9819,-1.1356,15.5882,39.218,0.1129,0.0128,0.5451,284.31
14:48:01:326,0.7095,-1.8086,15.4084,39.2947,0.5951,0.0979,0.3418,283.54
14:48:01:347,-0.1153,-1.7488,13.647,39.0887,1.1999,0.3268,0.3481,283.04
14:48:01:368,-0.5132,-1.5864,10.9924,39.2329,1.3063,0.4865,0.4035,283.09
14:48:01:386,-0.7319,-1.4221,9.3896,39.2749,0.8954,0.4993,0.3716,283.08
14:48:01:407,-0.6687,-1.6655,8.7332,39.1911,0.3982,0.4525,0.2406,282.52
14:48:01:428,-0.5795,-2.1356,8.3175,38.8537,0.115,0.4812,0.0681,281.75
14:48:01:448,-0.7277,-2.2996,7.7555,38.7955,0.0607,0.5781,0.0085,281.13
14:48:01:465,-0.9086,-1.9011,6.9433,38.8232,0.1011,0.6803,0.0948,280.9
14:48:01:485,-0.9016,-1.316,6.1013,38.7586,0.1384,0.7037,0.296,280.92
14:48:01:506,-0.6326,-0.7776,5.3414,38.9216,0.1373,0.6984,0.4727,280.91
14:48:01:525,-0.3534,-0.2065,4.9169,39.2262,0.0809,0.6367,0.5451,280.67
14:48:01:547,-0.3792,0.4757,4.7539,38.876,0.0405,0.5728,0.5334,280.17
14:48:01:566,-0.532,1.0231,4.7532,38.5878,-0.0937,0.4887,0.4844,279.52
14:48:01:586,-0.579,1.4011,5.0871,38.8173,-0.4259,0.3034,0.379,278.85
14:48:01:606,-0.4254,1.2206,6.2037,38.6756,-0.9018,-0.0511,0.2459,278.12
14:48:01:625,-0.1361,0.6771,8.282,38.4822,-1.2286,-0.6132,0.0468,277.34
14:48:01:646,-0.0068,0.2507,10.6193,38.3971,-1.0135,-0.8666,-0.1916,276.64
14:48:01:669,-0.3057,0.1233,11.8982,38.3612,-0.4525,-0.5355,-0.2321,276.22
14:48:01:686,-0.3495,0.0853,12.2369,37.7656,-0.2108,-0.3109,-0.2065,276.76
14:48:01:706,-0.387,0.3857,13.0378,37.7554,-0.3982,-0.2002,-0.2065,277.32
14:48:01:726,-0.3701,0.5808,14.7128,37.9459,-0.5387,-0.1661,-0.2161,277.54
14:48:01:754,-0.0251,0.3032,15.9343,38.1531,-0.1906,-0.0798,-0.1874,277.59
14:48:01:767,0.1181,0.456,15.3739,38.3612,0.5238,0.2065,-0.1831,277.88
14:48:01:785,-0.318,1.3776,13.4508,38.452,0.9113,0.3875,-0.2023,278.52
14:48:01:806,-0.0818,0.5856,12.1993,38.6096,0.8315,0.2843,-0.3471,279.22
14:48:01:826,-0.0996,-0.5793,11.6302,38.5407,0.9571,0.2065,-0.5526,279.54
14:48:01:852,-0.7571,-0.634,10.3451,38.4976,1.1711,0.3151,-0.6228,279.86
14:48:01:891,-1.1274,-0.6841,9.1027,38.3166,0.9529,0.2108,-0.5696,280.61
14:48:01:893,-0.869,-1.2354,8.9243,38.3584,0.3386,-0.1373,-0.5355,281.37
14:48:01:914,-0.3259,-1.9744,9.4459,38.6727,-0.214,-0.4546,-0.6175,281.71
14:48:01:930,-0.0462,-2.4855,10.0005,38.5088,-0.4589,-0.4237,-0.7314,281.86
14:48:01:950,-0.2648,-2.4729,9.7464,38.5969,-0.3449,-0.0522,-0.8017,282.23
14:48:01:965,-0.8149,-1.9067,8.4911,38.6557,-0.1065,0.4738,-0.6654,283.02
14:48:01:986,-1.208,-1.122,7.007,38.5173,0.0468,0.7815,-0.296,284.16
14:48:02:005,-1.2748,-0.2539,6.0513,38.5968,0.0703,0.7293,0.0979,285.24
14:48:02:026,-1.0345,0.5344,5.787,38.4434,0.0458,0.3332,0.33,285.84
14:48:02:050,-0.5848,1.0951,5.8489,38.6783,0.1299,-0.1778,0.3918,285.83
14:48:02:067,-0.0422,1.3985,6.0113,38.6334,0.2715,-0.7655,0.4237,285.44
14:48:02:085,0.7647,1.5546,6.1632,38.9199,0.2726,-1.2446,0.3428,284.99
14:48:02:106,1.1012,1.5291,6.5121,38.6385,0.0788,-1.1647,0.099,284.45
14:48:02:134,0.8318,1.8817,7.4156,38.7561,-0.2385,-0.6388,-0.116,283.88
14:48:02:145,0.2108,2.101,8.6721,38.5913,-0.5313,0.0043,-0.2555,283.55
14:48:02:165,-0.4511,1.9553,10.2246,38.4327,-0.6303,0.3843,-0.2321,283.49
14:48:02:186,-0.8858,1.6822,11.3883,38.0974,-0.4844,0.4908,-0.1278,283.7
14:48:02:207,-1.2937,1.586,12.1462,38.1992,-0.2002,0.3386,-0.0032,284.07
14:48:02:227,-1.5646,1.5951,12.5619,38.0257,0.0543,0.0948,0.1437,284.43
14:48:02:249,-1.5069,1.4559,12.8132,38.0042,0.1192,-0.0926,0.2651,284.66
14:48:02:265,-1.2688,1.2065,13.3268,38.0984,0.1033,-0.0564,0.3641,284.63
14:48:02:286,-1.0405,1.2549,13.5582,38.0896,0.1895,0.1544,0.4376,284.35
14:48:02:306,-0.9339,1.4356,13.0878,37.9961,0.247,0.2832,0.4195,284
14:48:02:331,-0.6033,0.5854,12.771,37.6938,0.198,0.1288,0.2491,283.64
14:48:02:346,-0.7754,-0.512,12.5957,37.5155,0.3918,-0.0969,0.0309,283.13
14:48:02:365,-1.4385,-0.907,11.5123,37.7028,0.7548,-0.0969,0.0362,282.78
14:48:02:386,-1.7398,-0.9943,10.1036,37.5507,0.8602,-0.1129,0.2395,282.87
14:48:02:406,-1.5548,-1.1862,9.1463,37.762,0.5621,-0.3428,0.3066,283.07
14:48:02:425,-1.082,-1.5761,8.8909,37.8137,0.0798,-0.5462,0.2172,282.77
14:48:02:445,-0.7809,-1.8181,8.8599,37.6128,-0.2449,-0.4535,0.0671,282.1
14:48:02:466,-0.8522,-1.8222,8.605,37.7509,-0.3801,-0.1341,0.0064,281.52
14:48:02:486,-0.8617,-1.6728,7.9607,37.4905,-0.4333,0.297,0.0649,281.29
14:48:02:513,-0.8794,-1.4357,7.1967,37.5092,-0.477,0.6707,0.1852,281.28
14:48:02:526,-0.9109,-1.0584,6.7056,37.772,-0.5185,0.824,0.3439,281.27
14:48:02:546,-0.9447,-0.534,6.5099,37.6419,-0.4408,0.7676,0.5515,281.11
14:48:02:566,-0.8175,0.0792,6.3007,37.5196,-0.2523,0.6313,0.7602,280.8
14:48:02:586,-0.5077,0.5747,6.0697,37.1307,-0.1331,0.4599,0.857,280.36
14:48:02:608,0.0046,0.9916,6.0568,37.1616,-0.2608,0.3173,0.7857,279.68
14:48:02:628,0.3576,1.2382,6.8796,36.7862,-0.5568,0.0639,0.5025,278.71
14:48:02:646,0.1584,1.3535,8.2969,36.877,-0.7069,-0.1011,0.2076,277.6
14:48:02:666,-0.2787,1.2052,9.3934,36.8371,-0.5696,-0.0692,0.0958,276.7
14:48:02:687,-0.58,1.0847,9.8258,36.7526,-0.4014,-0.0277,0.1246,276.37
14:48:02:711,-0.6785,1.0103,10.4007,36.7205,-0.4578,-0.28,0.1363,276.37
14:48:02:725,-0.3392,0.6646,11.763,36.4178,-0.6047,-0.7697,-0.0181,276.29
14:48:02:745,-0.1065,0.2016,13.3904,36.3716,-0.5515,-0.9688,-0.2374,275.98
14:48:02:765,-0.2577,0.04,14.5289,36.1827,-0.2204,-0.6707,-0.3322,275.79
14:48:02:786,-0.5958,0.2636,14.3779,36.2114,0.1246,-0.082,-0.3396,276.01
14:48:02:806,-0.6638,0.5076,13.6952,35.9332,0.0649,0.3513,-0.4503,276.59
14:48:02:826,-0.5761,-0.3842,13.9521,35.9552,-0.2023,0.5728,-0.7825,277.11
14:48:02:846,-1.0972,-1.7887,14.4569,35.6662,0.0277,0.9145,-0.9795,277.47
14:48:02:866,-1.5763,-2.5729,13.2371,35.5393,0.6665,1.1945,-0.6888,278.26
14:48:02:894,-1.5548,-2.6129,11.4398,35.4452,0.8485,0.9422,-0.3758,279.89
14:48:02:906,-0.8466,-2.6482,10.562,35.1199,0.56,0.4972,-0.2427,281.26
14:48:02:925,-0.08,-2.7129,10.152,34.9869,0.3077,0.4056,-0.3151,281.79
14:48:02:946,0.1382,-2.6589,9.3068,34.5735,0.2278,0.5845,-0.4195,281.9
14:48:02:965,-0.3259,-1.8965,8.0068,34.0695,0.2076,0.8177,-0.411,282.18
14:48:02:987,-1.1127,-0.905,6.6531,33.7844,0.1884,1.0189,-0.1906,282.68
14:48:03:005,-1.6243,0.0194,5.4512,33.5023,0.0841,1.0412,0.1256,283.29
14:48:03:025,-1.6097,0.7037,4.8296,33.4614,-0.1469,0.8475,0.33,283.69
14:48:03:046,-1.4573,1.0061,4.8007,33.2987,-0.3428,0.5643,0.3897,283.64
14:48:03:065,-1.2866,1.0901,5.1237,33.4567,-0.4035,0.2374,0.4312,283.21
14:48:03:086,-1.0159,1.0949,5.5215,33.2164,-0.3364,-0.1139,0.4535,282.7
14:48:03:105,-0.7046,1.1229,6.1892,33.2091,-0.2427,-0.4354,0.4291,282.19
14:48:03:125,-0.2874,1.2134,7.2998,33.3735,-0.2268,-0.8932,0.247,281.67
14:48:03:146,-0.1157,1.0252,8.4319,33.1684,-0.2342,-1.0135,-0.0415,281.08
14:48:03:167,-0.6188,0.9778,9.3792,33.11,-0.3162,-0.6218,-0.2289,280.56
14:48:03:191,-1.2483,0.9043,10.2451,32.9262,-0.3961,0.0213,-0.1831,280.38
14:48:03:206,-1.5548,0.5934,10.8689,32.9255,-0.3545,0.5259,-0.0096,280.53
14:48:03:226,-1.7079,0.4197,11.4437,32.6711,-0.2332,0.5951,0.1054,280.84
14:48:03:246,-2.0935,0.7408,11.9442,32.2779,0.033,0.3471,0.2033,281.07
14:48:03:273,-2.2451,0.8881,11.8889,32.1914,0.1863,-0.0053,0.297,281.18
14:48:03:285,-1.9489,0.5891,12.0884,32.1909,0.0692,-0.2694,0.3684,281.16
14:48:03:305,-1.8683,0.5408,12.9356,31.8751,-0.0788,-0.3109,0.4227,280.84
14:48:03:326,-1.8705,0.8382,13.5846,31.9605,-0.0926,-0.2449,0.4674,280.28
14:48:03:346,-1.4631,-0.0513,14.2601,32.1816,-0.2406,-0.5345,0.2183,279.75
14:48:03:373,-1.6041,-1.789,15.3574,32.1766,-0.1235,-0.8347,-0.2332,279.11
14:48:03:386,-2.5278,-2.7718,14.9872,32.2634,0.5121,-0.7335,-0.2896,278.54
14:48:03:405,-2.9185,-2.9123,12.775,31.8233,1.0253,-0.3737,0.0671,278.79
14:48:03:426,-2.7856,-2.4658,10.8143,31.6149,0.8964,-0.1895,0.3992,279.52
14:48:03:446,-2.142,-2.1859,9.9744,31.673,0.4642,-0.2459,0.3492,279.72
14:48:03:467,-1.666,-2.3258,9.4228,31.3761,0.1852,-0.28,0.0798,279.13
14:48:03:485,-1.6416,-2.3274,8.7125,31.4646,0.2161,-0.1629,-0.0532,278.38
14:48:03:505,-1.6872,-1.9373,7.5856,31.5215,0.3205,-0.1033,-0.0192,278.11
14:48:03:525,-1.617,-1.4619,6.5318,31.434,0.363,-0.2012,0.1341,278.21
14:48:03:547,-1.4008,-0.8187,5.8688,31.1696,0.4184,-0.5856,0.3194,278.31
14:48:03:571,-1.0332,-0.1075,5.3326,31.3018,0.4993,-0.8538,0.527,278.22
14:48:03:585,-0.5912,0.4027,5.0256,31.5301,0.5174,-0.8177,0.708,277.92
14:48:03:606,-0.2836,0.8567,5.0851,31.3178,0.4312,-0.5462,0.8038,277.41
14:48:03:625,0.1985,1.2331,5.5638,31.1654,0.2608,-0.3918,0.8145,276.64
14:48:03:646,0.685,1.4155,6.364,31.1911,0.099,-0.5068,0.6899,275.69
14:48:03:670,1.0353,1.2621,7.4115,30.9282,-0.0767,-0.6005,0.477,274.64
14:48:03:685,0.9365,1.2663,8.6789,30.8714,-0.0948,-0.3758,0.3471,273.68
14:48:03:705,0.8177,1.664,9.4071,31.2254,-0.0117,0.0117,0.2938,273.01
14:48:03:725,1.2846,1.7584,9.6088,31.0871,-0.1118,0.2044,0.1469,272.64
14:48:03:752,1.2469,2.2314,10.7149,31.3121,-0.4237,0.2694,-0.1554,272.32
14:48:03:765,0.7712,2.3814,12.2861,31.3863,-0.5259,0.2193,-0.3992,271.92
14:48:03:785,0.3413,2.1845,13.2844,31.6591,-0.3428,0.2183,-0.4908,271.82
14:48:03:806,-0.1784,2.0138,13.4372,31.2832,-0.0948,0.4695,-0.4834,272.25
14:48:03:826,-1.0503,2.5318,13.1884,31.2709,-0.0713,0.8485,-0.4397,272.98
14:48:03:847,-1.2593,0.8176,13.3792,31.1547,-0.4003,1.0072,-0.6122,273.69
14:48:03:866,-1.7657,-2.0935,13.8367,30.945,-0.1107,0.7783,-0.9667,274.09
14:48:03:886,-3.6173,-3.3003,12.4416,30.8067,0.5302,0.7708,-0.7974,274.63
14:48:03:938,-4.4495,-3.0532,10.1871,30.7412,0.6931,0.9986,-0.0192,276.06
14:48:03:940,-3.1648,-2.2339,9.0425,30.5866,0.0969,0.9614,0.7431,277.49
14:48:03:955,-0.5076,-1.6135,9.5591,30.6279,-0.6697,0.6175,0.8964,277.72
14:48:03:965,1.3471,-0.8837,10.5366,30.634,-0.8773,0.2843,0.511,276.58
14:48:03:985,1.6789,-0.0336,10.7204,30.7949,-0.6622,0.0979,-0.0096,275.17
14:48:04:005,1.3361,0.5288,9.7135,30.9963,-0.3322,0.1884,-0.3034,274.39
14:48:04:026,0.9078,0.9828,8.2344,31.3226,-0.1118,0.1735,-0.4291,274.4
14:48:04:045,0.6049,1.2405,6.9135,31.1708,-0.0149,-0.0586,-0.4642,274.85
14:48:04:065,0.3965,1.1011,6.308,31.2226,0.033,-0.2534,-0.4876,275.42
14:48:04:086,0.1375,0.7443,6.2091,30.8183,0.1778,-0.3929,-0.4674,275.98
14:48:04:108,-0.0242,0.217,5.9329,30.9287,0.2502,-0.3077,-0.4897,276.56
14:48:04:133,-0.4244,-0.203,6.1491,30.8685,0.1725,-0.1299,-0.4759,277.19
14:48:04:146,-0.6938,-0.0564,6.6643,30.9962,0.066,-0.1139,-0.477,277.72
14:48:04:165,-0.9608,0.2755,7.2786,31.0663,-0.0532,-0.2545,-0.461,278.23
14:48:04:186,-1.0595,0.3967,8.1679,30.9278,-0.2364,-0.4653,-0.3982,278.7
14:48:04:206,-1.1879,0.429,9.5613,30.6662,-0.3226,-0.5302,-0.2342,279.13
