Time,Acc_X,Acc_Y,Acc_Z,Meg,Gyr_X,Gyr_Y,Gyr_Z,Ore
14:34:23:029,0.823,1.9622,9.4307,63.5155,-0.2151,-0.099,-0.1842,200.36
14:34:23:045,1.2072,2.04,9.2051,63.1449,-0.2023,-0.1395,-0.2289,181.57
14:34:23:065,1.3339,2.1062,8.9954,63.0204,-0.2119,-0.033,-0.2906,181.85
14:34:23:085,1.069,2.2289,9.2052,63.0279,-0.2587,-0.0628,-0.3141,182.18
14:34:23:105,0.8567,2.0947,9.3327,63.0179,-0.3386,-0.2364,-0.264,182.55
14:34:23:125,1.1618,1.9014,9.2423,63.2951,-0.2768,-0.3215,-0.1288,182.96
14:34:23:145,1.397,1.6494,8.8968,63.1056,-0.2843,-0.1544,-0.0617,183.29
14:34:23:165,1.3274,1.441,9.0425,63.0305,-0.3577,0.0564,-0.0586,183.49
14:34:23:185,1.267,1.3012,9.4508,63.053,-0.4216,0.0926,-0.0852,183.61
14:34:23:205,1.2933,1.2873,9.8275,63.2469,-0.4291,0.0564,-0.1608,183.7
14:34:23:225,1.3604,1.52,9.8798,63.2868,-0.3769,-0.0021,-0.2779,183.83
14:34:23:245,1.2232,1.8049,9.7654,63.524,-0.3737,-0.066,-0.3843,184.06
14:34:23:265,1.0615,2.0852,9.7864,63.6144,-0.4216,-0.1139,-0.4205,184.45
14:34:23:285,1.0376,2.2349,9.8363,63.4472,-0.3833,-0.1437,-0.4014,184.94
14:34:23:305,0.9953,2.3077,9.7649,63.6512,-0.2427,-0.116,-0.3524,185.46
14:34:23:325,0.9466,2.2798,9.4797,63.6257,-0.1182,-0.0266,-0.2694,185.96
14:34:23:345,0.8622,2.227,9.3869,63.6154,-0.0809,0.0543,-0.1703,186.38
14:34:23:365,0.9692,2.1455,9.2345,63.5304,-0.0873,0.0575,-0.1224,186.69
14:34:23:386,1.0444,2.0996,9.0834,63.3678,-0.1011,0.05,-0.1373,186.88
14:34:23:405,1.0416,2.1012,8.9785,63.6495,-0.1246,0.0468,-0.1512,187.03
14:34:23:425,1.0176,2.1756,8.9999,64.048,-0.1554,0.0916,-0.1512,187.21
14:34:23:446,1.1049,2.2709,9.0749,64.0249,-0.1842,0.1246,-0.1352,187.39
14:34:23:465,1.1772,2.36,9.207,64.0991,-0.1959,0.1512,-0.1054,187.57
14:34:23:485,1.2754,2.355,9.283,63.7943,-0.1927,0.164,-0.0948,187.72
14:34:23:505,1.4335,2.3,9.3608,63.4838,-0.1693,0.1938,-0.1331,187.85
14:34:23:525,1.4876,2.2617,9.5021,63.4189,-0.1075,0.2374,-0.1991,187.97
14:34:23:546,1.3966,2.1823,9.6471,63.3552,-0.0234,0.2342,-0.2726,188.15
14:34:23:566,1.2062,2.1788,9.5994,63.3739,0.0224,0.2002,-0.3247,188.43
14:34:23:585,1.0921,1.9113,9.6051,63.4172,-0.0224,0.1703,-0.3577,188.76
14:34:23:605,1.0161,1.3742,9.6854,63.2104,-0.0522,0.0149,-0.5323,189.16
14:34:23:625,0.7506,1.6702,9.6662,63.0891,-0.0894,0.0277,-0.7069,189.62
14:34:23:645,0.3066,2.2434,9.7924,63.2541,-0.197,0.2374,-0.5685,190.32
14:34:23:666,0.0872,2.4536,10.2359,63.3684,-0.2438,0.3343,-0.2747,191.14
14:34:23:686,0.1825,2.3178,10.5915,63.4656,-0.1586,0.3716,-0.05,191.73
14:34:23:705,0.0505,2.133,10.9141,63.4674,-0.0213,0.4663,0.0554,191.98
14:34:23:726,-0.2528,1.7086,11.2863,63.1092,0.0245,0.5398,0.1405,192.01
14:34:23:746,-0.3735,1.2947,11.7093,62.8642,-0.0287,0.4599,0.0681,191.92
14:34:23:773,-0.3851,1.1474,11.7734,62.6228,-0.0564,0.0852,-0.1778,191.76
14:34:23:789,-0.4599,1.1317,11.257,62.5515,-0.0468,-0.3535,-0.3513,191.75
14:34:23:805,-0.6666,1.0419,10.6105,62.6191,-0.0575,-0.428,-0.2906,192.05
14:34:23:826,-0.9558,0.8074,10.3558,62.4981,-0.0405,-0.3066,-0.0777,192.49
14:34:23:846,-1.0288,0.5217,10.1481,62.4367,0.1065,-0.3109,0.1427,192.8
14:34:23:873,-0.8723,0.1907,9.3511,62.305,0.3471,-0.3833,0.3098,192.85
14:34:23:889,-0.5713,0.0511,8.2405,62.3128,0.5504,-0.3609,0.3822,192.67
14:34:23:906,-0.2055,0.3428,7.3387,62.4151,0.6164,-0.1895,0.3737,192.33
14:34:23:926,0.1043,0.7735,7.0644,62.4434,0.4823,0.0575,0.346,191.93
14:34:23:946,0.1824,1.0639,7.3159,62.6794,0.231,0.2236,0.3641,191.54
14:34:23:972,0.1575,1.2062,7.7323,62.8375,-0.0884,0.3066,0.4621,191.15
14:34:23:989,0.0901,1.1344,8.449,62.5319,-0.3769,0.3066,0.5408,190.71
14:34:24:006,0.1705,1.0878,9.0016,62.6524,-0.4684,0.1874,0.5004,190.14
14:34:24:026,0.1091,1.1596,9.169,62.6858,-0.3801,0.1129,0.4237,189.52
14:34:24:054,-0.1068,1.1579,9.1332,62.7201,-0.2204,0.1916,0.4514,188.98
14:34:24:072,-0.2251,1.2289,9.1045,62.6827,-0.1171,0.28,0.5515,188.5
14:34:24:087,-0.0629,1.327,9.1318,62.8739,-0.0958,0.313,0.6367,187.97
14:34:24:105,0.1923,1.3354,9.3248,62.9032,-0.0468,0.3024,0.6196,187.31
14:34:24:125,0.4932,1.5454,9.3706,63.0969,0.0788,0.2108,0.5259,186.58
14:34:24:151,0.5977,1.8502,9.3444,63.1283,0.1895,0.115,0.4216,185.9
14:34:24:170,0.4708,2.0896,9.0422,63.2565,0.1778,0.0468,0.3907,185.33
14:34:24:186,0.4004,2.2523,9.3452,63.3977,0.0735,0.132,0.3992,184.88
14:34:24:206,0.4159,2.3361,10.0291,63.522,0.1246,0.2821,0.3907,184.44
14:34:24:226,0.4203,2.3279,10.5369,63.1217,0.28,0.3716,0.3332,184
14:34:24:251,0.4293,2.2868,10.7974,62.9867,0.3886,0.2726,0.2172,183.56
14:34:24:266,0.4644,2.455,10.7803,63.0301,0.4014,0.0905,0.099,183.2
14:34:24:286,0.4679,2.7105,10.7766,62.9309,0.3428,-0.0128,-0.0043,182.99
14:34:24:306,0.4302,2.7759,11.0212,62.9596,0.2757,-0.0011,-0.0703,182.92
14:34:24:326,0.4388,3.0531,11.7428,63.0119,0.3396,-0.0256,-0.1299,182.97
14:34:24:351,0.4105,3.324,11.6352,62.935,0.5781,-0.1256,-0.1182,183.08
14:34:24:366,0.1624,3.0853,10.6808,62.8112,0.577,0.0234,0.049,183.26
14:34:24:386,-0.5986,1.4705,10.6577,63.0223,0.2204,0.2246,0.2779,183.39
14:34:24:406,-0.4297,0.5368,11.9701,62.935,0.0309,0.05,0.3971,183.27
14:34:24:434,0.1627,0.3427,12.2417,63.2329,0.3662,-0.2481,0.3364,182.9
14:34:24:446,0.2385,0.0417,10.5066,63.0965,0.7793,-0.28,0.1767,182.48
14:34:24:467,0.0064,0.2765,8.7704,63.1066,0.7389,-0.0788,0.0809,182.2
14:34:24:486,-0.3562,0.4431,8.1901,63.109,0.3801,0.0862,0.1618,182.1
14:34:24:506,-0.5234,0.1177,8.3996,63.0226,0.0202,-0.017,0.2704,182.02
14:34:24:532,-0.2695,-0.0489,8.3293,63.2768,-0.1874,-0.3024,0.2481,181.8
14:34:24:549,0.1652,0.0807,8.0793,63.0972,-0.2417,-0.4546,0.0777,181.51
14:34:24:565,0.2671,0.6138,7.8272,63.2802,-0.1437,-0.3354,-0.1192,181.36
14:34:24:586,0.1237,1.335,7.4851,63.7437,0.0117,-0.1427,-0.1831,181.44
14:34:24:606,0.0315,1.7689,7.0412,63.3411,0.0596,-0.0085,-0.1203,181.67
14:34:24:631,0.0496,1.9055,6.6931,63.4276,-0.0011,0.116,-0.0106,181.91
14:34:24:646,0.3961,2.0663,6.8318,63.4352,-0.1395,0.263,0.0564,182.02
14:34:24:666,0.5222,2.1131,7.4315,63.3963,-0.2726,0.379,0.0309,181.99
14:34:24:686,0.5293,2.2745,8.1283,63.2868,-0.3513,0.3194,-0.016,181.89
14:34:24:706,0.517,2.531,8.6034,63.3225,-0.378,0.2172,-0.0075,181.81
14:34:24:731,0.4354,2.5028,8.9589,63.1173,-0.346,0.1874,0.0543,181.8
14:34:24:747,0.4148,2.3904,9.4162,63.0537,-0.2832,0.2033,0.1043,181.78
14:34:24:766,0.3445,2.411,9.9016,62.9591,-0.1331,0.2055,0.1171,181.69
14:34:24:786,0.172,2.4959,10.092,63.5832,0.0458,0.1288,0.1554,181.55
14:34:24:814,0.1009,2.5215,9.7714,63.8454,0.1469,0.05,0.2289,181.39
14:34:24:830,0.0625,2.4783,9.6168,64.1596,0.1459,0.1097,0.3173,181.19
14:34:24:847,0.0128,2.4126,9.6819,64.551,0.0767,0.165,0.3971,180.91
14:34:24:865,0.0924,2.3987,10.0551,64.3571,-0.05,0.2023,0.4322,180.53
14:34:24:886,0.3124,2.7086,10.6742,64.6326,-0.1746,0.2002,0.4152,180.05
14:34:24:912,0.3755,3.1056,11.3735,64.5919,-0.2704,0.164,0.3662,179.54
14:34:24:926,0.0724,3.2258,11.7112,64.7846,-0.3929,0.0511,0.3215,179.07
14:34:24:946,-0.7871,2.0317,11.8809,64.6899,-0.757,-0.1703,0.3843,178.67
14:34:24:966,-1.0521,0.9222,13.108,64.9573,-1.0423,-0.4237,0.511,178.31
14:34:24:985,-0.6012,0.3271,14.3183,64.8641,-0.6867,-0.5281,0.5738,177.88
14:34:25:008,-0.3543,-0.176,13.4701,65.0368,0.0692,-0.4184,0.5451,177.34
14:34:25:059,-0.454,-0.4931,11.4846,65.3815,0.4621,-0.1246,0.4674,176.75
14:34:25:060,-0.5819,-0.2729,10.3952,65.4477,0.3471,0.066,0.3822,176.19
14:34:25:082,-0.5596,-0.1496,10.2319,65.6991,0.1884,-0.0245,0.2992,175.7
14:34:25:090,-0.4144,0.0617,9.6184,65.6235,0.2906,-0.2821,0.1927,175.3
14:34:25:107,-0.062,0.6501,8.3291,65.3393,0.4887,-0.4056,0.1256,175.01
14:34:25:125,0.2775,1.2582,7.0236,65.326,0.6292,-0.28,0.1352,174.87
14:34:25:145,0.5104,1.589,6.2264,65.2649,0.6771,0.0767,0.1661,174.79
14:34:25:166,0.4712,1.7977,5.89,65.3539,0.6739,0.3588,0.1842,174.67
14:34:25:186,0.4612,2.2054,5.9314,65.5721,0.5579,0.4046,0.1948,174.46
14:34:25:205,0.499,2.5184,6.1734,65.8536,0.3332,0.2587,0.1767,174.2
14:34:25:226,0.3711,2.5879,6.709,65.7705,0.1203,0.0926,0.1203,173.93
14:34:25:245,0.0825,2.5386,7.3088,66.0094,0.0085,0.0138,0.116,173.72
14:34:25:266,0.099,2.5718,7.9239,66.3177,-0.0075,0.049,0.1852,173.59
14:34:25:293,0.3217,2.5104,8.3719,66.0487,0.0607,0.1927,0.2278,173.45
14:34:25:306,0.4857,2.3594,8.839,66.0975,0.1491,0.3684,0.2108,173.22
14:34:25:326,0.7832,2.5911,9.3765,66.274,0.2246,0.3173,0.115,172.93
14:34:25:346,1.0057,3.1306,9.6102,66.3297,0.2278,0.0745,-0.0351,172.65
14:34:25:365,1.0137,3.6475,9.4146,66.3905,0.1118,-0.1672,-0.1395,172.53
14:34:25:391,0.8783,3.6743,9.6264,66.7933,-0.1331,-0.1256,-0.1384,172.62
14:34:25:405,0.8162,3.344,10.7931,67.022,-0.263,0.0341,-0.1224,172.83
14:34:25:425,1.1397,3.1866,12.1178,67.1493,-0.1778,0.0383,-0.2012,173.01
14:34:25:446,1.5282,3.5612,12.8174,67.3304,0.1469,-0.2246,-0.4067,173.16
14:34:25:466,1.3347,3.5553,11.866,67.1538,0.3471,-0.3971,-0.5664,173.46
14:34:25:487,-0.1069,1.9832,10.832,67.2406,-0.0128,-0.1139,-0.5153,174.04
14:34:25:506,-0.4506,1.4361,12.8022,67.0816,-0.4333,0.0639,-0.3418,174.77
14:34:25:526,0.2427,1.4332,14.0588,67.0975,-0.0021,-0.1203,-0.2534,175.32
14:34:25:547,0.7375,0.9581,12.2948,66.9951,0.7484,-0.1352,-0.3343,175.68
14:34:25:575,0.7421,1.109,9.7256,67.2922,1.0221,0.1682,-0.4599,176.02
14:34:25:586,0.3039,1.3676,8.3163,67.4748,0.7495,0.4642,-0.4269,176.47
14:34:25:606,-0.1054,1.4722,8.2181,67.3397,0.2513,0.445,-0.3087,176.93
14:34:25:626,-0.3483,1.3709,8.5196,67.5813,-0.0383,0.1821,-0.1746,177.27
14:34:25:646,-0.439,1.1374,8.1093,67.7358,-0.0564,-0.0447,-0.0628,177.49
14:34:25:669,-0.4256,1.0198,7.2403,67.7834,-0.0884,-0.1054,0.0181,177.64
14:34:25:686,-0.2342,1.1867,6.8249,67.8032,-0.1959,-0.0617,0.0575,177.71
14:34:25:706,0.0356,1.5544,6.763,67.6665,-0.2278,0.0064,0.0575,177.71
14:34:25:726,0.1939,1.9099,6.8992,67.421,-0.164,0.1171,0.0106,177.67
14:34:25:746,0.2067,2.226,6.9748,67.1957,-0.1011,0.2172,-0.0426,177.62
14:34:25:768,-0.0815,2.4165,7.1926,67.3747,-0.0948,0.2545,-0.0405,177.59
14:34:25:785,-0.2797,2.3795,7.7548,67.2674,-0.066,0.3641,0.0383,177.6
14:34:25:805,-0.1661,2.4673,8.1779,67.4905,0.0586,0.4887,0.1586,177.57
14:34:25:826,0.235,2.6944,8.5222,67.4702,0.1033,0.5526,0.2278,177.41
14:34:25:846,0.2559,2.6935,8.7689,67.5154,0.0437,0.4056,0.2172,177.09
14:34:25:871,0.1311,2.7,9.0159,67.7438,-0.0841,0.1831,0.2065,176.72
14:34:25:886,-0.0132,2.6961,9.5016,67.8973,-0.1405,0.083,0.197,176.41
14:34:25:906,-0.18,2.9179,9.9687,68.0025,-0.0458,0.0309,0.2204,176.15
14:34:25:925,-0.4118,2.933,9.9066,68.1756,0.0586,-0.0021,0.3162,175.92
14:34:25:946,-0.4989,2.7484,9.4806,67.918,-0.0138,-0.0149,0.4322,175.65
14:34:25:970,-0.3415,2.6026,9.5304,67.9487,-0.2151,0.0735,0.4887,175.27
14:34:25:986,-0.0266,2.8136,10.5631,68.0435,-0.3684,0.1395,0.4014,174.77
14:34:26:006,0.0938,3.35,11.8142,68.2114,-0.2417,0.148,0.2044,174.22
14:34:26:027,-0.1876,3.937,11.8681,68.0586,0.0543,0.1022,0.0745,173.8
14:34:26:053,-1.221,2.9952,10.5783,67.8542,-0.0383,0.115,0.2087,173.6
14:34:26:066,-1.5807,1.8087,10.6172,67.85,-0.4248,0.0554,0.4589,173.48
14:34:26:086,-0.7512,1.7103,11.6536,67.7964,-0.4141,-0.1086,0.5802,173.16
14:34:26:107,-0.0466,1.5979,11.3568,67.6987,-0.0181,-0.0532,0.5302,172.61
14:34:26:126,-0.1961,1.1362,9.9838,67.7609,0.1597,0.1778,0.4078,171.99
14:34:26:148,-0.8288,0.5258,8.9895,67.6031,-0.0905,0.3364,0.3513,171.43
14:34:26:166,-0.8167,0.6822,9.4629,67.843,-0.4482,0.3418,0.3268,170.96
14:34:26:186,-0.6685,0.7926,10.0561,67.9653,-0.4546,0.1672,0.2534,170.5
14:34:26:206,-0.3222,1.0257,9.8229,67.9719,-0.198,-0.0096,0.0958,170.09
14:34:26:226,-0.1502,1.6489,8.8687,67.9969,0.0628,-0.0426,-0.0671,169.83
14:34:26:251,-0.1263,2.2509,8.1522,67.7144,0.2353,0.0128,-0.0554,169.79
14:34:26:266,0.1604,2.283,7.4675,67.7834,0.4003,0.1437,-0.017,169.89
14:34:26:286,0.085,1.8426,6.8323,67.6386,0.4887,0.3545,-0.0926,169.94
14:34:26:312,-0.1785,1.8069,6.6723,67.6729,0.4621,0.4589,-0.2257,169.94
14:34:26:326,-0.5316,2.0451,6.7259,67.6523,0.313,0.3418,-0.2906,170
14:34:26:347,-0.7616,2.3558,6.8804,67.4764,0.0937,0.0554,-0.2768,170.19
14:34:26:366,-1.0057,2.4777,7.1652,66.9647,-0.1171,-0.2278,-0.2055,170.46
14:34:26:386,-1.1092,2.5199,7.6899,67.0165,-0.181,-0.2566,-0.115,170.77
14:34:26:405,-1.1305,2.6693,8.2629,66.7624,-0.099,-0.1256,-0.0383,171.05
14:34:26:434,-0.9579,2.8217,8.5385,66.792,-0.0277,0.017,0.0064,171.22
14:34:26:446,-0.7605,3.1111,8.7912,67.0189,-0.0607,0.0777,0.0192,171.28
14:34:26:466,-0.6633,3.1538,9.0003,66.8321,-0.2332,0.0745,0.0202,171.26
14:34:26:486,-0.6367,2.7625,9.6601,66.9144,-0.4812,0.131,-0.017,171.23
14:34:26:508,-0.4211,2.3255,10.8745,66.7392,-0.5888,0.231,-0.181,171.2
14:34:26:530,-0.6238,2.1712,12.2879,66.6534,-0.3769,0.28,-0.4525,171.23
14:34:26:547,-0.9248,2.7276,12.8323,66.6981,0.0798,0.0373,-0.643,171.47
14:34:26:566,-0.7205,4.0438,11.7707,66.3497,0.4535,-0.2172,-0.6281,172.01
14:34:26:586,-1.1095,3.9046,10.3661,66.0652,0.3769,0.1395,-0.411,172.78
14:34:26:606,-1.9498,2.5293,10.2514,66.0104,-0.0021,0.6079,-0.0969,173.48
14:34:26:627,-1.9874,1.4418,11.7487,65.7285,-0.3737,0.7144,0.197,173.82
14:34:26:646,-1.3391,0.9234,12.955,65.445,-0.3045,0.3407,0.2949,173.71
14:34:26:666,-0.589,0.5473,12.4336,65.2699,0.0213,-0.083,0.165,173.32
14:34:26:686,-0.2104,0.567,10.7881,65.0504,0.2459,-0.2374,-0.0745,172.96
14:34:26:707,-0.4372,0.7341,9.391,64.7736,0.2417,-0.1948,-0.2289,172.88
14:34:26:727,-0.6641,0.9409,8.5528,64.483,0.1107,-0.1703,-0.2406,173.07
14:34:26:747,-0.7197,1.0069,8.1123,64.3839,0.0149,-0.2002,-0.2087,173.38
14:34:26:766,-0.8699,0.8561,7.6984,64.405,-0.0234,-0.2172,-0.1821,173.69
14:34:26:787,-0.9706,0.8512,7.4124,64.0891,-0.0213,-0.2513,-0.1959,173.97
14:34:26:814,-0.9442,1.0019,7.2625,63.7862,0.0234,-0.3183,-0.263,174.23
14:34:26:826,-0.8262,1.5807,7.0355,63.5072,0.1246,-0.264,-0.2608,174.53
14:34:26:846,-0.589,2.1902,6.7123,63.1184,0.214,-0.049,-0.1661,174.91
14:34:26:866,-0.419,2.3675,6.4118,62.9548,0.1522,0.1789,-0.0628,175.23
14:34:26:886,-0.3797,2.4649,6.5773,62.6749,-0.082,0.4024,0.0075,175.39
14:34:26:909,-0.5345,2.4594,7.579,62.2119,-0.3258,0.5185,0.049,175.39
14:34:26:926,-0.7103,2.4078,8.8336,61.915,-0.362,0.4589,0.1118,175.29
14:34:26:946,-0.4861,2.5364,9.5527,61.5331,-0.2183,0.2246,0.1554,175.12
14:34:26:967,-0.0757,2.6489,9.7673,61.4871,0.0106,0.0788,0.1033,174.9
14:34:26:986,-0.0377,2.7133,9.6046,61.5861,0.2513,0.0777,0.0053,174.7
14:34:27:007,-0.3104,2.8052,9.2518,61.6231,0.3428,0.0511,-0.05,174.6
14:34:27:026,-0.3646,3.2177,9.1867,61.4685,0.3056,0.0043,-0.0447,174.61
14:34:27:046,-0.2694,3.5321,9.393,61.1803,0.2161,-0.0096,-0.0213,174.66
14:34:27:111,-0.4867,3.6443,9.8115,60.7166,0.0745,-0.0617,-0.0234,174.71
14:34:27:113,-0.9564,3.5141,10.0615,60.3311,-0.1714,-0.1852,0,174.75
14:34:27:114,-1.2915,3.0516,10.7921,59.9352,-0.5217,-0.2353,0.1192,174.8
14:34:27:135,-1.1054,2.5504,12.4018,59.8063,-0.544,-0.2757,0.1682,174.82
14:34:27:146,-0.6802,2.5943,13.4065,59.5683,-0.0575,-0.3556,-0.0277,174.71
14:34:27:166,-1.1512,2.8229,11.9909,59.2205,0.3215,-0.3992,-0.2385,174.62
14:34:27:185,-2.2839,1.878,10.7207,59.1406,-0.0373,-0.4908,-0.1821,174.81
14:34:27:210,-2.5183,1.0046,10.9919,58.8528,-0.5132,-0.6399,0.0426,175.17
14:34:27:226,-1.9066,0.3614,11.5437,58.54,-0.4961,-0.6345,0.1991,175.43
14:34:27:246,-1.6518,-0.3574,11.0728,57.99,-0.2875,-0.4429,0.1789,175.45
14:34:27:266,-1.5643,-0.5807,10.3884,57.8196,-0.2694,-0.3694,0.0692,175.33
14:34:27:293,-1.5226,0.013,9.9399,57.8784,-0.3386,-0.4748,-0.0245,175.23
14:34:27:305,-1.4498,0.3933,9.1017,57.5263,-0.3418,-0.6516,0.0021,175.26
14:34:27:325,-1.0886,0.7951,8.0882,57.3913,-0.3119,-0.7357,0.0692,175.37
14:34:27:345,-0.4629,1.4414,7.3587,57.2704,-0.2395,-0.5589,0.1363,175.46
14:34:27:366,-0.0911,1.67,6.9591,56.6809,-0.0873,-0.2427,0.2044,175.46
14:34:27:394,0.2088,1.7729,6.8544,56.2932,0.0415,-0.0256,0.2427,175.36
14:34:27:405,0.3043,1.8411,6.6531,56.0782,0.0458,0.0181,0.2502,175.14
14:34:27:425,0.2884,1.8004,6.4461,56.05,-0.0745,0.0468,0.2481,174.87
14:34:27:446,0.0034,1.6912,6.5818,55.8148,-0.3428,0.1661,0.3013,174.59
14:34:27:466,-0.1745,1.2464,7.6817,55.5695,-0.5632,0.2172,0.3811,174.29
14:34:27:487,0.2067,1.1472,8.919,55.1696,-0.4621,0.0703,0.3748,173.91
14:34:27:508,0.4961,1.1999,9.2951,54.7192,-0.1725,-0.0181,0.2694,173.46
14:34:27:525,0.5984,1.068,8.7815,54.7266,-0.0224,-0.0649,0.1416,173.06
14:34:27:546,0.5936,1.2136,8.6876,54.6741,-0.1182,-0.0458,0.0256,172.8
14:34:27:566,0.5887,1.4929,9.3273,54.9459,-0.2353,0.0362,-0.0841,172.68
14:34:27:591,0.5542,1.7013,9.9185,54.987,-0.2726,0.0841,-0.1693,172.69
14:34:27:606,0.5191,1.8984,10.3929,54.6237,-0.2864,0.1831,-0.2321,172.82
14:34:27:626,0.2548,1.8534,10.8755,54.3567,-0.3577,0.3013,-0.2374,173.04
14:34:27:646,0.2102,1.839,11.7898,54.1141,-0.4237,0.3449,-0.2161,173.3
14:34:27:673,0.5564,2.0661,13.1075,53.8511,-0.2811,0.2002,-0.2523,173.55
14:34:27:686,0.8635,2.4661,13.2268,53.4454,0.0362,0.0373,-0.3311,173.79
14:34:27:706,0.1334,1.8308,12.2929,53.2926,0.0703,0.1927,-0.3205,174.11
14:34:27:726,-0.9937,0.0466,12.5257,53.0043,-0.2832,0.3748,-0.1363,174.51
14:34:27:747,-0.2643,-0.0369,14.388,53.1221,-0.1416,0.0767,-0.0032,174.83
14:34:27:773,0.9651,-0.0303,13.7641,53.2075,0.6718,-0.2694,-0.1043,174.93
14:34:27:789,1.3462,-0.1451,10.872,53.1853,1.2595,-0.1629,-0.3481,174.95
14:34:27:806,0.9501,0.031,8.532,53.1061,1.1988,0.1246,-0.5036,175.16
14:34:27:826,0.5015,0.5588,7.8181,52.8394,0.7421,0.2832,-0.4812,175.64
14:34:27:846,0.169,0.8016,8.043,52.2338,0.2108,0.1501,-0.3897,176.21
14:34:27:872,-0.0536,0.5308,8.6187,52.066,-0.1384,-0.1331,-0.3109,176.71
14:34:27:886,-0.0526,0.2622,9.0162,51.9106,-0.1757,-0.395,-0.2906,177.13
14:34:27:906,-0.0768,0.1548,8.8252,51.6492,0.0256,-0.5004,-0.3162,177.51
14:34:27:926,-0.0307,0.5003,8.2745,51.3211,0.3247,-0.4525,-0.329,177.91
14:34:27:946,0.0346,1.0022,7.4589,51.2074,0.5898,-0.4088,-0.297,178.35
14:34:27:972,0.0211,1.3287,6.4108,51.2898,0.6846,-0.3407,-0.2183,178.77
14:34:27:986,0.1265,1.5046,5.6143,51.3526,0.5195,-0.2438,-0.1235,179.15
14:34:28:006,0.3228,1.7607,5.4468,51.662,0.1448,-0.0724,-0.016,179.45
14:34:28:030,0.4678,2.0489,6.2163,51.9444,-0.2768,0.1086,0.0745,179.61
14:34:28:046,0.3173,2.3035,7.6974,51.9068,-0.4993,0.3173,0.1714,179.6
14:34:28:066,0.1862,2.2781,9.3851,51.9568,-0.3141,0.625,0.3024,179.45
14:34:28:085,0.0997,1.7969,10.2262,52.1942,0.0937,0.9018,0.4354,179.12
14:34:28:106,0.0568,1.073,10.5435,51.7641,0.2183,0.9156,0.4482,178.56
14:34:28:126,0.0111,1.0939,10.9887,51.7743,0.049,0.5707,0.3119,177.86
14:34:28:153,-0.2349,1.2805,11.7113,51.6921,-0.0905,0.0916,0.148,177.3
14:34:28:166,-0.4034,1.8286,11.5743,51.7976,-0.05,-0.2172,0.0554,177.02
14:34:28:186,-0.3669,2.6985,11.3192,51.8493,-0.0394,-0.2491,0.0362,177
14:34:28:206,-0.2618,3.3388,11.4882,52.2501,-0.0437,-0.2183,0.0043,177.02
14:34:28:226,-0.2641,3.6285,11.6765,52.2286,-0.0735,-0.1831,-0.049,177.01
14:34:28:246,-0.9789,2.9128,11.9185,52.2457,-0.3322,-0.2364,-0.0415,177.01
14:34:28:265,-1.7973,1.6838,13.1466,52.2254,-0.6281,-0.56,0.1022,177.1
14:34:28:285,-1.5034,0.9372,14.0068,52.182,-0.4216,-0.9039,0.3066,177.3
14:34:28:305,-0.9415,-0.0976,12.8048,52.1442,0.0724,-0.7612,0.3662,177.53
14:34:28:326,-0.8149,-0.8814,11.2758,52.1646,0.329,-0.2097,0.2683,177.4
14:34:28:346,-0.9537,-0.7597,10.6457,52.4515,0.4578,0.1906,0.1395,176.86
14:34:28:366,-1.0609,-0.1915,9.6558,52.7104,0.5973,0.1938,0.0522,176.25
14:34:28:386,-1.0003,0.6312,8.1744,52.8557,0.6473,0.0298,0.0479,175.93
14:34:28:405,-0.6217,1.33,6.7993,53.2914,0.5611,-0.1278,0.116,175.87
14:34:28:426,-0.0954,1.7297,5.8892,53.3998,0.4291,-0.2065,0.1821,175.91
14:34:28:450,0.5298,1.743,5.4926,53.3988,0.3843,-0.1618,0.1331,175.9
14:34:28:465,0.831,1.8876,5.5423,53.6561,0.4695,0.0639,-0.0256,175.77
14:34:28:486,0.6074,2.5565,5.895,53.6893,0.5036,0.2459,-0.2108,175.55
14:34:28:506,0.0582,2.9591,6.4902,53.4128,0.3961,0.0713,-0.2608,175.36
14:34:28:533,-0.3772,3.0323,7.0012,53.3144,0.2662,-0.2342,-0.1565,175.49
14:34:28:547,-0.2806,3.047,7.2245,53.1412,0.1086,-0.2906,0.05,175.92
14:34:28:566,0.0262,2.9874,7.7024,53.2774,-0.0405,-0.1459,0.181,176.31
14:34:28:587,0.1179,3.0081,8.6606,53.314,-0.1171,0.0649,0.2236,176.38
14:34:28:606,0.0516,2.9644,9.5358,53.6622,0.0128,0.1778,0.214,176.16
14:34:28:628,0.184,3.2739,9.7226,53.9744,0.2268,0.23,0.1693,175.83
14:34:28:646,0.2277,3.5618,9.5744,53.7932,0.3205,0.3194,0.0916,175.5
14:34:28:666,0.0904,3.8703,9.8908,53.9261,0.2726,0.4248,0.05,175.19
14:34:28:686,0.0225,4.1785,10.2298,54.0439,0.1427,0.5132,0.0564,174.93
14:34:28:706,0.0536,4.1649,10.9422,54.3177,0.049,0.5909,0.0777,174.72
14:34:28:731,0.3028,4.5046,11.2856,54.5709,0.0905,0.544,0.0713,174.5
14:34:28:745,0.2912,4.7741,10.9875,54.6445,-0.0213,0.5015,0.1278,174.26
14:34:28:766,-0.4802,3.4693,11.0783,54.6638,-0.4493,0.4482,0.2715,174.07
14:34:28:786,-0.4431,2.0555,12.8014,54.6241,-0.7293,0.1331,0.4408,173.87
14:34:28:805,0.5206,1.5824,13.4659,54.7793,-0.3205,-0.4056,0.4493,173.64
14:34:28:826,1.3295,1.3923,11.1887,54.9002,0.1874,-0.577,0.3407,173.38
14:34:28:846,1.3235,1.2601,8.7387,54.5791,0.0841,-0.3024,0.2481,173.09
14:34:28:866,1.0152,1.4555,7.9619,55.1128,-0.444,0.0713,0.2853,172.73
14:34:28:886,0.6739,1.2372,8.3999,55.2472,-0.9199,0.231,0.3843,172.37
14:34:28:913,0.4396,0.5002,9.0543,55.2049,-1.1392,0.0426,0.4312,171.98
14:34:28:927,0.523,-0.2711,9.2147,55.636,-1.0689,-0.2108,0.378,171.59
14:34:28:946,0.7168,-0.4334,9.0377,55.5383,-0.8081,-0.2779,0.2108,171.24
14:34:28:966,0.8232,-0.184,8.5747,55.3019,-0.4887,-0.1852,0.0192,170.92
14:34:28:986,0.9678,0.3089,8.648,55.5024,-0.1437,-0.083,-0.1171,170.55
14:34:29:008,0.9932,0.3898,8.1808,55.5233,0.2843,-0.1192,-0.2129,170.4
14:34:29:026,1.1381,0.7493,7.1718,55.2286,0.5313,-0.0905,-0.3854,170.45
14:34:29:046,0.792,1.2626,6.4018,55.0816,0.3471,0.0713,-0.4621,170.64
14:34:29:066,0.3826,1.6237,7.0076,54.9722,-0.0405,0.2576,-0.3758,170.98
14:34:29:086,0.1527,1.7063,8.7245,55.0107,-0.1522,0.3247,-0.2193,171.44
14:34:29:107,-0.0011,1.6297,9.7197,54.8011,0.05,0.2992,-0.1001,171.82
14:34:29:169,-0.1677,1.4254,9.5815,54.7375,0.1693,0.2523,-0.0319,172.07
14:34:29:170,-0.2478,1.4183,9.5861,54.7893,0.0703,0.2566,-0.0011,172.18
14:34:29:171,-0.41,1.5069,10.1034,54.7545,-0.0543,0.2608,0.0277,172.21
14:34:29:194,-0.5413,1.5233,10.6625,54.7983,-0.1118,0.1682,0.0362,172.19
14:34:29:206,-0.581,1.481,10.9033,55.0668,-0.0969,0.0777,-0.0096,172.16
14:34:29:225,-0.5495,1.9065,11.0347,54.8379,-0.0202,0.0948,-0.0841,172.16
14:34:29:246,-0.6061,2.4878,11.0794,54.9753,0.0916,0.2033,-0.1288,172.15
14:34:29:266,-0.8421,2.8084,11.1493,55.1396,0.1778,0.3151,-0.1001,172.16
14:34:29:289,-0.5737,3.4431,11.3761,55.1451,0.3524,0.2332,0.0309,172.2
14:34:29:306,-0.1852,3.8632,10.3582,55.2639,0.2566,0.1703,0.1459,172.26
14:34:29:325,-0.9874,1.8188,10.4899,55.1465,-0.3833,0.0564,0.3322,172.29
14:34:29:346,-0.8282,1.1018,12.3289,54.7781,-0.7272,-0.4291,0.3886,172.2
14:34:29:366,-0.5132,0.74,12.7141,54.4976,-0.4078,-0.791,0.428,172.12
14:34:29:388,-0.2223,0.0332,11.4894,54.7868,-0.0287,-0.5707,0.379,172
14:34:29:405,-0.548,-0.6852,10.6423,55.0138,0.0735,-0.1576,0.247,171.62
14:34:29:426,-0.7165,-0.3057,10.7028,55.248,0.1278,-0.0767,0.082,171.01
14:34:29:446,-0.8713,0.045,10.1125,55.1224,0.2651,-0.2662,-0.0351,170.57
14:34:29:469,-0.9128,0.4065,8.9317,54.9375,0.3087,-0.5015,-0.1288,170.47
14:34:29:487,-0.7096,1.2947,7.8192,54.7644,0.2981,-0.6452,-0.1884,170.61
14:34:29:505,-0.3827,2.0749,6.901,54.6261,0.2576,-0.5792,-0.1405,170.92
14:34:29:526,-0.1974,2.3829,6.2164,54.3996,0.2427,-0.4322,-0.0043,171.24
14:34:29:546,0.0146,2.2325,5.7251,54.32,0.2183,-0.1597,0.1224,171.48
14:34:29:566,0.1237,2.1635,5.6493,54.1855,0.1086,0.1831,0.1618,171.52
14:34:29:591,0.0226,2.2504,6.1347,54.021,-0.0639,0.3833,0.1906,171.29
14:34:29:605,-0.0496,2.4175,6.874,53.9123,-0.1927,0.2193,0.2268,170.95
14:34:29:626,0.006,2.3173,7.2362,53.9153,-0.2023,-0.0405,0.2406,170.68
14:34:29:646,0.1524,2.3373,7.2863,53.6236,-0.131,-0.0969,0.2183,170.54
14:34:29:674,0.3293,2.6295,7.3242,53.6693,-0.0884,0.0138,0.2097,170.36
14:34:29:686,0.5581,2.971,7.6729,53.6509,-0.116,0.1491,0.1767,170.09
14:34:29:706,0.8417,3.4663,8.2421,53.2616,-0.1288,0.1512,0.1097,169.78
14:34:29:726,0.8441,3.6742,8.5622,53.5477,-0.1703,0.0841,0.0447,169.51
14:34:29:747,0.7386,3.714,8.9177,53.4565,-0.3056,0.0916,0.033,169.37
14:34:29:769,0.5189,3.4985,9.6147,53.4633,-0.4897,0.1469,0.0979,169.31
14:34:29:790,0.5148,2.9027,10.8311,53.1593,-0.5728,0.1437,0.1746,169.27
14:34:29:806,0.9777,2.3353,11.8839,52.94,-0.5078,0.0287,0.1139,169.17
14:34:29:826,1.5814,2.2248,12.6535,52.7956,-0.2523,-0.1256,-0.1522,169.01
14:34:29:846,1.9228,2.7479,12.7408,52.4621,0.1821,-0.2896,-0.5015,168.89
14:34:29:872,2.1993,3.6581,11.4469,52.2986,0.5526,-0.1544,-0.7304,169.02
14:34:29:885,0.3623,1.9185,10.2314,52.2677,0.3268,0.544,-0.7048,169.49
14:34:29:906,-0.8966,0.2789,11.9262,51.9569,-0.2395,1.1008,-0.3833,170.05
14:34:29:926,-0.5974,0.1343,14.2507,51.7422,0.0224,0.7059,-0.1916,170.51
14:34:29:946,0.1481,0.1776,12.9795,51.4976,0.7272,0.0639,-0.247,170.92
14:34:29:971,0.3928,0.4813,10.2432,51.3556,0.8187,-0.1586,-0.4397,171.33
14:34:29:986,0.1322,1.0172,8.6672,51.1872,0.3907,-0.1171,-0.4865,171.74
14:34:30:006,-0.0664,1.4218,8.44,51.1336,-0.1703,-0.1129,-0.3045,172.25
14:34:30:026,-0.0211,1.011,8.8256,50.8402,-0.4823,-0.1395,-0.1001,172.87
14:34:30:057,0.2336,0.5684,8.9657,50.8666,-0.4834,-0.23,-0.0564,173.37
14:34:30:066,0.3563,0.3344,8.737,51.1034,-0.2853,-0.3375,-0.1501,173.62
14:34:30:087,0.2642,0.4147,8.1165,50.9415,-0.0362,-0.5132,-0.2619,173.75
14:34:30:106,0.1964,0.7869,7.2761,50.9415,0.0905,-0.6846,-0.3151,173.98
14:34:30:127,0.2926,1.1178,6.4912,50.9308,0.1246,-0.7389,-0.2949,174.4
14:34:30:148,0.4377,1.2454,5.9047,50.4354,0.0607,-0.4929,-0.2587,174.91
14:34:30:166,0.3695,1.2692,5.9695,50.0033,-0.0948,-0.0053,-0.1799,175.32
14:34:30:186,0.4667,1.5303,6.6896,49.9948,-0.165,0.4472,-0.0916,175.5
14:34:30:206,0.7405,1.8888,7.5354,49.452,-0.1288,0.8134,-0.033,175.52
14:34:30:226,0.6723,2.1657,8.0452,49.5567,-0.2076,0.7527,-0.017,175.35
14:34:30:246,0.2893,2.2767,8.6422,49.6592,-0.5015,0.4589,0.0149,175.23
14:34:30:266,-0.157,2.3081,9.8114,49.3808,-0.8049,0.1991,0.1352,175.28
14:34:30:286,-0.132,2.1219,11.3416,49.0219,-0.8432,0.1139,0.2906,175.4
14:34:30:306,0.2371,1.811,12.4589,48.8109,-0.5345,0.0777,0.3258,175.39
14:34:30:325,0.295,1.7213,12.6592,48.68,-0.1097,0.0373,0.2491,175.09
14:34:30:346,0.3589,1.9988,12.1165,48.388,0.1448,-0.1299,0.1831,174.71
14:34:30:365,0.7514,2.3515,11.6885,48.5181,0.1746,-0.2204,0.1278,174.41
14:34:30:386,1.32,2.7791,11.5473,48.5342,0.2342,-0.2768,0.0096,174.26
14:34:30:406,1.6605,2.7771,10.7714,48.1262,0.2087,-0.2278,-0.2097,174.14
14:34:30:436,0.9909,1.7165,10.086,48.2881,-0.1118,-0.1288,-0.3556,174.12
14:34:30:451,0.3714,0.7026,10.6516,48.083,-0.4865,0.0415,-0.329,174.28
14:34:30:466,0.3338,0.1886,11.826,48.0733,-0.4791,0.3694,-0.2757,174.63
14:34:30:486,-0.2983,-0.4649,12.3188,48.0931,-0.2151,0.692,-0.2726,174.91
14:34:30:506,-1.1011,-1.2238,11.9163,47.8372,-0.2172,0.7878,-0.2204,175.01
14:34:30:529,-1.4201,-1.5316,12.2537,47.6538,-0.4269,0.5919,-0.2087,175.16
14:34:30:546,-1.631,-1.4898,12.4311,47.5803,-0.4248,0.0639,-0.2076,175.43
14:34:30:566,-1.2378,-0.968,11.7891,47.4526,-0.1427,-0.511,-0.1799,175.86
14:34:30:585,-0.6307,-0.3759,10.0132,47.4395,0.2917,-0.7942,-0.1427,176.42
14:34:30:606,-0.1244,0.1042,8.1005,47.3783,0.6313,-0.7559,-0.148,176.86
14:34:30:626,0.0571,0.6892,6.5741,47.4827,0.7665,-0.5707,-0.132,177.08
14:34:30:646,0.0148,1.1117,5.7957,47.4292,0.7772,-0.3449,-0.0383,177.2
14:34:30:666,0.0459,1.2812,5.3277,47.4777,0.6803,-0.1491,0.0554,177.27
14:34:30:686,0.0987,1.4155,5.2173,47.1075,0.4418,0.0809,0.1331,177.27
14:34:30:706,-0.0199,1.7415,5.7315,47.3358,0.1097,0.3024,0.2278,177.15
14:34:30:726,-0.2905,1.8031,6.6662,47.2365,-0.0884,0.3652,0.3705,176.91
14:34:30:745,-0.2304,1.7843,7.3035,47.1173,-0.247,0.3726,0.4855,176.59
14:34:30:766,0.0853,1.808,8.1148,47.3802,-0.3854,0.3556,0.5174,176.17
14:34:30:786,0.3615,1.9919,9.0049,47.3161,-0.5057,0.3268,0.4322,175.64
14:34:30:806,0.5331,2.2919,10.0165,47.1155,-0.5206,0.2044,0.2694,175.04
14:34:30:826,0.5922,2.2701,10.7837,46.9666,-0.4663,0.0894,0.0554,174.52
14:34:30:846,0.0016,2.2339,11.3647,46.8045,-0.4184,0.1235,-0.116,174.21
14:34:30:866,-0.5378,2.3379,12.3461,46.6528,-0.411,0.1416,-0.0777,174.1
14:34:30:886,-0.3813,2.3598,13.6075,46.786,-0.23,-0.0628,0.0064,174.16
14:34:30:913,0.1975,2.3285,14.0802,46.6845,0.2364,-0.4695,-0.0096,174.3
14:34:30:926,0.9112,2.9386,12.899,46.6547,0.7921,-0.7751,-0.1267,174.46
14:34:30:946,0.6611,3.213,11.0649,46.8416,0.9561,-0.4173,-0.116,174.66
14:34:30:966,-0.7415,2.0195,10.2022,46.5732,0.6835,0.1405,0.1661,174.77
14:34:30:988,-1.0514,0.6245,10.9807,46.8927,0.3865,0.3513,0.593,174.67
14:34:31:010,-0.3404,-0.286,11.3785,47.0371,0.5121,0.3662,0.8081,174.41
14:34:31:026,0.1853,-0.8148,10.7459,47.3264,0.5983,0.4322,0.7304,173.8
14:34:31:046,-0.3316,-0.6113,10.3163,47.4673,0.3247,0.2811,0.5717,172.84
14:34:31:066,-0.998,-0.0134,10.0557,47.5024,-0.1874,-0.412,0.6814,171.91
14:34:31:086,-0.1386,0.3851,9.4915,47.5096,-0.6239,-1.2914,0.8815,171.44
14:34:31:107,1.2299,-0.1624,9.072,47.4863,-0.6537,-1.6875,0.8166,171.3
14:34:31:126,2.0653,-0.4877,8.3467,47.5318,-0.2779,-1.531,0.5227,170.88
14:34:31:146,2.1759,-0.1486,7.3474,47.9074,0.1618,-0.9603,0.2055,170.14
14:34:31:166,1.702,0.384,6.654,48.2782,0.4173,-0.3535,0.0405,169.35
14:34:31:216,1.4457,0.7656,6.3475,48.0454,0.4865,-0.0149,0.0628,168.76
14:34:31:217,1.6827,0.8196,6.0826,48.002,0.3939,0.0064,0.0639,168.48
14:34:31:229,1.9546,0.8372,5.9148,48.0458,0.1565,-0.0309,-0.0394,168.35
14:34:31:246,2.0947,1.0888,6.0968,47.8528,-0.2161,-0.0777,-0.1821,168.29
14:34:31:265,1.9345,1.3231,6.8455,47.7996,-0.5259,-0.0532,-0.2662,168.34
14:34:31:289,1.5433,1.2347,7.7427,47.8902,-0.7005,0.0085,-0.2513,168.55
14:34:31:306,1.5308,1.1184,8.7506,47.6247,-0.7101,-0.0053,-0.2151,168.83
14:34:31:326,1.4966,1.1258,9.5914,47.5014,-0.5717,0.017,-0.1746,169.13
14:34:31:346,1.5611,1.4295,9.9455,47.6475,-0.4035,-0.1246,-0.1182,169.39
14:34:31:365,1.9274,1.8502,10.096,47.5726,-0.3332,-0.164,-0.0426,169.61
14:34:31:393,2.1359,2.1125,10.0241,47.6406,-0.3258,-0.0607,0.0075,169.84
14:34:31:406,2.117,2.1294,10.1908,47.8349,-0.4525,0.165,0.0426,169.91
14:34:31:425,2.0969,2.3426,11.0439,47.9869,-0.5685,0.2342,0.0617,169.84
14:34:31:446,1.9527,2.1499,11.6015,48.0853,-0.5366,0.0639,0.0266,169.7
14:34:31:466,1.8471,2.3324,12.004,48.1524,-0.6399,-0.0011,0.0543,169.68
14:34:31:488,1.452,1.8171,12.5902,48.308,-0.7857,0.1203,0.1821,169.71
14:34:31:505,1.3661,0.5173,13.474,48.2641,-0.9859,0.0617,0.3162,169.65
14:34:31:526,1.7203,-0.6271,14.7048,48.1046,-0.8059,-0.0479,0.3141,169.47
14:34:31:546,2.0032,-1.6663,14.5907,48.1379,-0.1011,-0.0703,0.1363,169.21
14:34:31:567,1.8514,-2.2425,12.7577,48.1105,0.5238,0.131,-0.1278,168.86
14:34:31:587,1.0856,-1.9636,10.9898,48.2305,0.7069,0.4514,-0.3162,168.54
14:34:31:606,-0.1179,-1.8613,9.9704,48.1652,0.5227,0.5355,-0.2938,168.43
14:34:31:627,-0.5173,-1.6127,9.293,48.1245,0.1842,0.264,-0.1405,168.64
14:34:31:646,-0.1756,-1.1128,8.7768,48.0434,-0.0522,-0.1054,-0.049,169.09
14:34:31:673,0.2764,-0.7833,8.1932,47.9562,-0.0096,-0.3098,-0.0383,169.52
14:34:31:686,0.4837,-0.4663,7.0532,47.8602,0.1129,-0.2651,-0.0468,169.78
14:34:31:706,0.6701,0.0123,6.2865,48.2854,0.1544,-0.0287,-0.0298,169.86
14:34:31:727,0.7426,0.5099,6.1576,48.0617,0.1214,0.264,-0.0181,169.82
14:34:31:746,0.6509,0.9489,6.626,48.0396,0.1491,0.4695,0.0021,169.71
14:34:31:774,0.5517,1.4291,6.9412,47.8876,0.1948,0.4684,0.0373,169.59
14:34:31:786,0.5915,1.7861,7.0253,47.7483,0.1757,0.4014,0.1203,169.54
14:34:31:806,0.6143,1.6678,7.0759,47.9978,-0.0021,0.3822,0.2023,169.54
14:34:31:826,0.7615,1.2277,7.821,48.0855,-0.2353,0.4227,0.2225,169.46
14:34:31:846,0.954,0.6923,9.0595,48.0317,-0.3567,0.4791,0.1448,169.26
14:34:31:872,1.132,0.6648,10.4256,48.0273,-0.2694,0.4322,-0.0596,168.99
14:34:31:886,1.0286,0.9866,11.0874,47.9816,-0.1033,0.2619,-0.297,168.79
14:34:31:906,0.441,1.5246,11.38,47.8497,-0.0617,0.066,-0.4322,168.85
14:34:31:926,0.044,2.1053,11.5682,47.8143,-0.1757,-0.0969,-0.3833,169.22
14:34:31:946,0.0434,2.0899,12.396,47.9719,-0.346,0.0277,-0.2459,169.81
14:34:31:967,0.6101,1.8644,13.9939,48.1029,-0.198,0.1405,-0.2406,170.3
14:34:31:986,0.8336,2.0856,14.4387,48.313,0.2917,0.1395,-0.3982,170.54
14:34:32:006,-0.2018,1.7461,13.3079,48.242,0.6367,0.3215,-0.4567,170.76
14:34:32:026,-1.311,0.7877,12.4388,48.4944,0.625,0.5834,-0.3183,171.09
14:34:32:046,-1.2903,0.256,13.0515,48.5336,0.6281,0.6484,-0.1341,171.48
14:34:32:066,-0.6987,-0.1367,12.586,48.3681,1.0657,0.5195,-0.0383,171.78
14:34:32:085,-0.0419,-0.2022,10.4154,48.5952,1.3936,0.5259,-0.0181,171.98
14:34:32:106,0.4056,-0.2249,8.3344,48.747,1.252,0.7719,0.0011,172.03
14:34:32:125,0.3832,-0.2969,7.5459,48.9286,0.6995,0.922,0.0394,171.94
14:34:32:153,0.2305,-0.446,7.959,49.2475,0.0958,0.6452,0.116,171.78
14:34:32:165,0.6271,-0.5514,8.293,49.1804,-0.2598,-0.0298,0.1341,171.65
14:34:32:185,1.0379,-0.7161,7.8597,49.4379,-0.4216,-0.5483,0.0341,171.92
14:34:32:205,1.2285,-0.7218,7.3629,49.4071,-0.4972,-0.725,-0.1075,172.13
14:34:32:225,1.2277,-0.3832,7.1524,49.3551,-0.4897,-0.642,-0.2097,172.3
14:34:32:248,0.9779,-0.0003,7.1447,49.4203,-0.3886,-0.5323,-0.2108,172.47
14:34:32:266,0.9143,0.3707,7.0721,49.5264,-0.2736,-0.3875,-0.1672,172.68
14:34:32:286,0.9596,0.8301,7.0109,49.8129,-0.1863,-0.2044,-0.131,172.91
14:34:32:306,0.9245,1.0947,7.0631,50.0872,-0.2747,-0.1097,-0.1097,173.03
14:34:32:326,0.9977,1.2726,7.5545,50.1521,-0.4227,-0.0852,-0.1075,173.13
14:34:32:346,1.097,1.3729,8.4325,50.4239,-0.4408,-0.1224,-0.1629,173.26
14:34:32:365,0.844,1.5441,9.0775,50.6065,-0.3801,-0.2225,-0.23,173.42
14:34:32:385,0.459,1.552,9.3087,50.7529,-0.3428,-0.4003,-0.2374,173.61
14:34:32:405,0.0019,1.4433,9.6372,50.8176,-0.2928,-0.4131,-0.1043,173.94
14:34:32:426,-0.0627,1.4312,10.2812,50.8962,-0.1906,-0.2864,0.1043,174.29
14:34:32:446,0.0621,1.3815,10.966,50.9312,-0.0138,-0.1821,0.2832,174.42
14:34:32:465,0.2171,1.363,10.8794,51.1837,0.0777,-0.0969,0.4067,174.29
14:34:32:486,0.3424,1.5488,10.8735,51.0019,-0.0948,0.0213,0.5078,173.96
14:34:32:511,0.696,1.7978,11.9023,51.4752,-0.3215,0.0692,0.5898,173.48
14:34:32:526,1.2038,1.707,13.0751,51.7245,-0.3247,-0.1214,0.5898,172.89
14:34:32:550,1.8023,1.7893,12.9999,52.0296,-0.2949,-0.3194,0.4621,172.28
14:34:32:566,1.4172,0.9154,12.5785,52.2925,-0.4589,-0.3279,0.3364,171.75
14:34:32:585,1.0269,-0.0589,13.2329,52.6974,-0.5717,-0.3641,0.296,171.24
14:34:32:605,1.163,-0.7816,13.7954,52.8402,-0.198,-0.3886,0.2566,170.83
14:34:32:633,1.2018,-1.4654,12.7806,53.2435,0.3716,-0.2598,0.1224,170.49
14:34:32:646,0.8154,-1.6889,11.0214,53.3417,0.5472,0.0298,-0.0202,170.1
14:34:32:665,0.2557,-1.7437,10.3729,53.4655,0.33,0.181,-0.0948,169.75
14:34:32:686,-0.317,-1.7239,10.3429,53.787,0.131,0.0032,-0.1427,169.6
14:34:32:706,-0.4377,-1.3578,9.7589,54.2378,0.1544,-0.3907,-0.1672,169.72
14:34:32:733,-0.271,-0.6827,8.4237,54.6488,0.3077,-0.5866,-0.1703,170.07
14:34:32:746,-0.0465,0.0213,6.9672,54.7559,0.461,-0.4876,-0.1054,170.43
14:34:32:766,0.1831,0.6463,5.8488,54.7853,0.5323,-0.1916,-0.0043,170.65
14:34:32:785,0.2613,1.0568,5.3991,54.6332,0.5334,0.1405,0.1278,170.68
14:34:32:806,0.2452,1.2911,5.2702,54.567,0.4738,0.3684,0.2417,170.55
14:34:32:826,0.2175,1.3902,5.5014,54.2875,0.33,0.4503,0.3322,170.29
14:34:32:846,0.3958,1.6206,6.0782,54.3063,0.1043,0.3066,0.3811,169.95
14:34:32:866,0.5618,1.7662,6.7865,54.3559,-0.1224,0.0756,0.3897,169.6
14:34:32:886,0.6006,1.7033,7.6702,54.844,-0.2619,-0.1267,0.3811,169.3
14:34:32:914,0.7805,1.237,8.4795,55.1085,-0.2864,-0.1874,0.3641,168.99
14:34:32:926,1.1858,0.9517,9.2299,55.4062,-0.1682,-0.0234,0.2502,168.65
14:34:32:946,1.6687,1.3164,9.7784,55.6721,0.0106,0.3386,0.0106,168.21
14:34:32:965,1.6965,2.0838,10.2448,55.8349,0.016,0.5398,-0.2459,167.72
14:34:32:985,1.1699,2.5325,10.5651,55.8302,-0.2087,0.4386,-0.3992,167.42
14:34:33:007,0.7384,2.7684,11.4578,55.8283,-0.577,0.1576,-0.4003,167.58
14:34:33:025,0.5287,2.5949,12.7692,55.803,-0.7804,-0.2683,-0.3119,168.13
14:34:33:046,0.9464,2.2032,13.6056,55.8599,-0.6601,-0.6218,-0.2757,168.83
14:34:33:066,1.7322,1.9545,13.5425,56.2538,-0.1672,-0.7048,-0.3982,169.45
14:34:33:086,2.2229,2.2338,12.0296,56.395,0.3705,-0.2832,-0.5164,169.86
14:34:33:106,1.2332,1.3343,11.0403,56.5966,0.5078,0.5653,-0.3939,170.15
14:34:33:125,0.1227,0.101,11.723,56.9761,0.4046,0.8964,-0.0341,170.3
14:34:33:146,0.28,-0.7225,11.9692,56.8244,0.4567,0.5856,0.3449,170.43
14:34:33:166,1.2154,-1.336,10.6328,56.5292,0.5632,0.2864,0.4716,170.51
14:34:33:185,2.0027,-1.3898,9.0911,56.4382,0.4354,0.3215,0.3056,170.52
14:34:33:206,1.7428,-1.2172,8.3594,56.5434,0.049,0.445,0.0713,170.05
14:34:33:272,1.0329,-0.9629,8.4411,56.7266,-0.4503,0.23,-0.017,169.57
14:34:33:273,0.6604,-0.9069,8.7558,56.9486,-0.8432,-0.1778,0.0692,169.48
14:34:33:274,0.757,-1.0644,8.9354,57.3238,-0.9646,-0.5227,0.1789,169.72
14:34:33:294,1.3987,-1.0366,8.7769,57.3785,-0.774,-0.7133,0.1576,169.92
14:34:33:306,1.8766,-0.8894,8.1401,57.4961,-0.3886,-0.593,-0.0277,169.9
14:34:33:326,1.7771,-0.6681,7.2684,57.8074,-0.0511,-0.2747,-0.2278,169.69
14:34:33:346,1.3911,-0.2626,6.7537,57.7173,0.0969,-0.0745,-0.3162,169.48
14:34:33:370,1.3112,0.2718,6.4117,58.0682,0.0692,-0.0447,-0.3109,169.5
14:34:33:388,1.5829,0.3566,6.3228,58.144,-0.1203,0.0692,-0.3066,169.79
14:34:33:407,1.6549,-0.08,7.1384,58.1658,-0.3343,0.3386,-0.3939,170.14
14:34:33:425,1.4681,-0.0336,8.4996,58.2758,-0.4716,0.4674,-0.5206,170.4
14:34:33:446,1.1252,0.343,9.7695,58.3525,-0.5483,0.3024,-0.5856,170.72
14:34:33:466,0.7031,0.6379,10.5379,58.1569,-0.5621,0.0926,-0.5717,171.32
14:34:33:487,0.1779,0.7751,11.1179,58.1046,-0.527,0.0596,-0.4259,172.13
14:34:33:505,-0.1089,1.047,11.8744,58.2389,-0.4269,0.017,-0.1767,172.87
14:34:33:526,0.0416,1.071,12.6654,58.1812,-0.2321,-0.1544,0.0841,173.41
14:34:33:546,0.3315,0.7029,12.7923,58.2155,0.0256,-0.329,0.264,173.74
14:34:33:566,0.7623,0.487,12.3028,58.7029,0.1906,-0.3162,0.3599,173.79
14:34:33:586,1.0141,0.3955,12.2366,58.578,0.2395,-0.1863,0.3918,173.55
14:34:33:606,1.1527,0.2023,12.6401,58.6753,0.3694,-0.1533,0.3492,173.07
14:34:33:626,1.3093,0.1983,12.7076,58.7348,0.6878,-0.2449,0.2214,172.56
14:34:33:648,1.4367,0.7797,11.6069,58.5106,1.0274,-0.1895,0.0468,172.15
14:34:33:674,0.684,0.8664,10.3649,58.2831,0.9348,0.1533,0.0192,171.86
14:34:33:685,-0.2506,0.2983,10.5608,58.6525,0.5121,0.2459,0.2076,171.61
14:34:33:705,-0.1067,-0.4769,11.3796,58.7518,0.3652,-0.0245,0.4482,171.47
14:34:33:726,0.6594,-1.1995,10.8124,58.5423,0.5036,-0.1586,0.5057,171.4
14:34:33:745,1.0048,-1.654,9.8661,58.727,0.4919,0.0522,0.3875,171.09
14:34:33:773,0.5342,-1.6304,9.8933,58.6283,0.2438,0.2598,0.2992,170.49
14:34:33:785,0.0987,-1.2866,10.3278,58.4164,0.0341,0.0649,0.3173,169.86
14:34:33:805,0.298,-0.805,10.1515,58.6176,-0.0522,-0.3513,0.3311,169.52
14:34:33:826,0.6547,-0.1836,9.2491,58.6742,0.0426,-0.6942,0.2906,169.37
14:34:33:846,1.0065,0.4422,7.811,58.7233,0.214,-0.7878,0.2587,169.22
14:34:33:872,1.2514,0.917,6.4102,58.7282,0.3684,-0.6345,0.2608,169.11
14:34:33:886,1.5652,1.3171,5.2893,58.4011,0.3599,-0.2672,0.2875,168.71
14:34:33:906,1.7082,1.5588,5.0696,58.2984,0.1874,0.1363,0.2598,168.3
14:34:33:932,1.4469,1.5287,5.5867,58.4505,0.0277,0.3737,0.2427,167.78
14:34:33:955,1.1686,1.6689,6.3324,58.3003,-0.0319,0.4408,0.2694,167.31
14:34:33:966,1.0613,1.8113,6.9879,58.7197,-0.0447,0.3822,0.346,166.95
14:34:33:986,1.3691,1.4731,7.4349,58.7329,-0.1512,0.1608,0.3811,166.63
14:34:34:006,1.9371,0.9955,7.984,58.7458,-0.2662,-0.0053,0.2513,166.32
14:34:34:032,2.2828,0.7508,8.4908,58.753,-0.3599,-0.0287,-0.0075,166.01
14:34:34:046,2.4615,1.1409,9.3018,58.7038,-0.4067,0.0564,-0.2843,165.74
14:34:34:065,2.1026,1.6205,10.046,58.7508,-0.5057,0.1437,-0.4674,165.65
14:34:34:086,1.6246,1.7995,10.9449,58.695,-0.6643,0.1182,-0.5164,165.84
14:34:34:106,1.3049,1.6209,11.9989,58.6122,-0.8102,0.1139,-0.4684,166.34
14:34:34:126,1.3668,1.3419,13.6986,58.7756,-0.8315,0.0522,-0.428,166.97
14:34:34:155,1.8505,1.1423,15.3686,58.8815,-0.4887,-0.2257,-0.5707,167.54
14:34:34:167,2.1352,1.7201,15.2308,58.9229,0.2534,-0.5632,-0.8336,168.12
14:34:34:186,1.7829,2.648,12.6096,58.9428,0.7314,-0.2672,-0.8624,168.85
14:34:34:205,0.3699,1.718,11.4495,58.7653,0.5462,0.3875,-0.4855,169.74
14:34:34:226,0.5044,0.5711,12.8461,58.2853,0.4237,0.5132,-0.0096,170.39
14:34:34:246,1.5063,-0.8306,12.6464,57.8133,0.757,0.2289,0.1735,170.84
14:34:34:266,2.3059,-1.6751,10.6902,57.7715,1.0306,0.1097,0.0064,171.07
14:34:34:286,2.5103,-1.276,8.9659,57.6139,0.9624,0.3013,-0.2683,171
14:34:34:306,1.7228,-0.788,8.1233,57.6718,0.5856,0.477,-0.4078,170.89
14:34:34:327,0.8756,-0.5931,8.1301,57.7684,0.0394,0.3471,-0.3407,170.98
14:34:34:346,0.5926,-0.7958,8.6575,57.8086,-0.3364,-0.0362,-0.198,171.42
14:34:34:366,0.7594,-1.083,8.6279,57.5242,-0.3897,-0.4461,-0.1427,172
14:34:34:385,1.0955,-0.9981,7.9204,57.0044,-0.2374,-0.6601,-0.2214,172.52
14:34:34:405,1.2366,-0.6177,6.7865,56.9719,-0.0437,-0.6218,-0.3694,172.89
14:34:34:428,1.2205,0.0643,6.018,56.6415,0.0724,-0.4642,-0.4653,173.19
14:34:34:446,1.2222,0.7242,5.303,56.5509,0.1544,-0.3077,-0.5089,173.52
14:34:34:465,1.2559,1.075,4.6907,56.6202,0.0468,-0.0511,-0.5121,173.98
14:34:34:485,1.258,1.2009,4.6765,56.6669,-0.346,0.2502,-0.4855,174.47
14:34:34:508,1.1244,1.0939,5.8084,56.3242,-0.8272,0.4684,-0.4365,174.91
14:34:34:527,0.9468,1.1151,7.5108,56.0779,-1.0902,0.5015,-0.3599,175.33
14:34:34:546,0.8161,1.2677,9.0684,55.7761,-1.136,0.3268,-0.2374,175.77
14:34:34:565,0.8845,1.0786,10.3084,55.568,-1.0434,0.0979,-0.0979,176.24
14:34:34:586,1.1313,0.8221,11.1314,55.3097,-0.8464,-0.0554,-0.0213,176.68
14:34:34:606,1.327,0.6756,11.5912,54.9655,-0.6239,-0.0234,0.0021,176.94
14:34:34:627,1.3386,0.7115,12.1454,55.0219,-0.4248,0.0617,0.0138,177.02
14:34:34:646,1.1659,0.8278,12.4709,55.1052,-0.2236,0.0905,0.0458,176.97
14:34:34:666,0.8488,0.6757,12.5134,55.1052,-0.1501,0.0979,0.1139,176.93
14:34:34:685,0.8603,0.6853,13.0184,54.9099,-0.082,0.0554,0.1725,176.88
14:34:34:706,1.2225,0.9364,13.3451,54.8999,0.165,-0.0447,0.1299,176.79
14:34:34:726,1.4319,1.3596,12.5735,54.9635,0.3801,-0.0053,0.0447,176.66
14:34:34:746,0.6305,1.0893,11.8699,55.0381,0.1991,0.1757,0.0713,176.53
14:34:34:765,-0.1952,-0.0306,12.829,54.9011,-0.131,0.0873,0.2662,176.37
14:34:34:786,0.3268,-0.7614,13.6097,54.9137,0.0437,-0.2662,0.4078,176.27
14:34:34:814,1.0084,-1.428,12.5122,54.9247,0.4227,-0.1789,0.3609,176.21
14:34:34:826,0.6947,-2.0931,11.2402,54.5808,0.4046,0.2225,0.2523,175.85
14:34:34:846,0.2952,-2.146,11.662,54.3626,0.1373,0.3449,0.2246,175.23
14:34:34:865,0.1837,-1.9849,11.9966,54.2384,0.131,0.0383,0.2236,174.74
14:34:34:886,0.4185,-1.8005,10.9158,54.1917,0.313,-0.2789,0.1789,174.58
14:34:34:915,0.6318,-1.1574,9.2309,54.2843,0.5675,-0.4429,0.0745,174.53
14:34:34:926,0.8714,-0.3076,7.4111,54.4084,0.7655,-0.4322,0.0437,174.43
14:34:34:946,1.0115,0.4629,5.8847,54.5303,0.8187,-0.362,0.0841,174.34
14:34:34:966,1.1677,0.8184,4.8083,54.3685,0.7538,-0.1682,0.1693,174.25
14:34:34:986,1.408,1.0037,4.3698,54.3893,0.5781,0.1001,0.2172,174.11
14:34:35:008,1.4161,1.0736,4.6231,54.2388,0.3492,0.3705,0.1821,173.82
14:34:35:025,1.3306,1.4959,5.4069,54.1134,0.1416,0.5195,0.1299,173.43
14:34:35:046,0.8958,1.6484,6.3958,54.2274,-0.0649,0.5909,0.1735,173.09
14:34:35:066,0.5457,1.3607,7.5169,54.4584,-0.2811,0.4461,0.2843,172.85
14:34:35:086,0.8557,0.9134,8.7987,54.4446,-0.4674,0.1693,0.3322,172.67
14:34:35:106,1.6114,0.7868,9.9409,54.5013,-0.4216,-0.0703,0.1735,172.52
14:34:35:125,2.0235,1.0002,10.3391,54.3839,-0.2651,-0.1033,-0.1267,172.29
14:34:35:146,1.8684,1.5592,10.5115,54.1634,-0.1341,0.0266,-0.3843,172.11
14:34:35:166,1.5598,2.1676,10.8126,54.0001,-0.0862,0.28,-0.4897,172.12
14:34:35:194,1.2643,2.4218,11.5115,53.9444,-0.1331,0.5536,-0.5004,172.39
14:34:35:207,0.9494,2.3598,12.8527,53.9012,-0.1948,0.5983,-0.5323,172.77
14:34:35:225,0.8788,2.1973,14.5241,53.7582,-0.116,0.2097,-0.5643,173.24
14:34:35:246,1.572,2.5613,14.822,53.9252,0.3322,-0.3982,-0.643,173.93
14:34:35:266,1.6403,1.9924,12.5554,54.1459,0.6686,-0.2651,-0.6739,174.88
14:34:35:288,0.8239,0.6485,12.0191,54.2478,0.4621,0.4312,-0.5568,175.75
14:34:35:349,0.4653,-0.2791,13.5497,54.4226,0.5132,0.5046,-0.3726,176.22
14:34:35:350,0.8201,-1.2141,12.8631,54.6732,0.9199,0.2225,-0.3279,176.65
14:34:35:351,1.2647,-1.2177,10.5948,54.5927,1.1221,0.0319,-0.5259,177.21
14:34:35:366,1.248,-0.3672,8.7687,54.4446,0.9422,-0.0192,-0.7091,177.69
14:34:35:391,0.9581,0.5307,7.603,54.5485,0.5376,-0.0586,-0.6654,178.27
14:34:35:405,0.6013,0.6877,7.0249,54.4853,0.033,-0.131,-0.4887,179.08
14:34:35:426,0.451,0.2408,7.177,54.6034,-0.3641,-0.3013,-0.3194,179.92
14:34:35:446,0.7548,-0.1558,7.4366,54.8519,-0.4876,-0.4908,-0.28,180.64
14:34:35:466,0.9835,-0.2162,7.2757,54.8719,-0.4024,-0.5973,-0.3939,181.2
14:34:35:486,0.9202,0.1675,6.8926,54.9695,-0.2151,-0.5643,-0.5302,181.65
14:34:35:506,0.6724,0.6436,6.4427,54.8326,0.0021,-0.3971,-0.5185,182.14
14:34:35:526,0.6538,1.1889,5.867,55.0817,0.115,-0.1224,-0.4088,182.72
14:34:35:546,0.6829,1.4593,5.5729,55.2251,0.0075,0.1522,-0.263,183.24
14:34:35:566,0.9239,1.4093,6.0595,55.4175,-0.2278,0.3705,-0.1735,183.61
14:34:35:587,1.1252,1.2889,7.2734,55.4678,-0.3737,0.444,-0.1959,183.81
14:34:35:606,1.0279,1.4325,8.2976,55.6272,-0.3939,0.3971,-0.2768,183.91
14:34:35:625,0.728,1.8365,9.1927,55.7516,-0.4035,0.2065,-0.2928,184.08
14:34:35:647,0.5243,2.1017,9.6961,55.7002,-0.3875,0.0735,-0.1991,184.42
14:34:35:669,0.3266,1.7051,10.1341,55.8054,-0.4216,0.1405,-0.0745,184.86
14:34:35:691,0.168,1.4673,11.0965,56.0561,-0.4589,0.2225,0.0373,185.13
14:34:35:706,0.2388,1.2775,12.0561,56.3462,-0.4291,0.2023,0.0852,185.19
14:34:35:726,0.1827,1.2318,12.5729,56.3354,-0.3705,0.1395,0.0873,185.16
14:34:35:747,0.0226,1.3887,12.8951,56.4904,-0.3726,0.0958,0.0639,185.1
14:34:35:765,-0.0109,1.8588,13.4769,56.5508,-0.3535,0.0096,0.0649,185.03
14:34:35:785,-0.0252,2.1162,13.5691,56.7251,-0.3258,-0.0703,0.1331,184.98
14:34:35:805,-0.4701,1.2327,13.6934,56.8552,-0.4322,-0.0798,0.2694,184.98
14:34:35:825,-0.5593,0.211,14.8192,57.2027,-0.2992,-0.2065,0.3833,184.87
14:34:35:846,-0.4281,-0.7861,14.7856,57.4032,0.2044,-0.2183,0.3737,184.64
14:34:35:867,-0.747,-1.7884,13.5986,57.5042,0.6069,-0.0405,0.2715,184.3
14:34:35:885,-0.9541,-1.8302,12.8409,57.521,0.8102,0.0202,0.1608,183.8
14:34:35:905,-0.9522,-1.3843,11.9784,57.1418,1.1275,-0.1246,0.0884,183.38
14:34:35:926,-0.5989,-0.6062,9.9906,56.923,1.4841,-0.2651,0.0468,183.2
14:34:35:946,-0.1792,0.3955,7.6746,56.8906,1.6374,-0.2151,0.0426,183.2
14:34:35:966,0.1683,1.1702,5.9031,56.777,1.5278,0,0.1491,183.19
14:34:35:985,0.6397,1.5387,4.9402,56.7105,1.2936,0.2033,0.2534,183.09
14:34:36:006,1.0033,1.6656,4.6768,56.5185,1.037,0.3662,0.2757,182.85
14:34:36:026,1.138,1.784,4.8349,56.1288,0.8166,0.4802,0.2289,182.47
14:34:36:048,0.9948,1.8086,5.2878,55.8157,0.6611,0.4472,0.164,182.01
14:34:36:066,0.9189,1.9404,5.4508,55.8558,0.4695,0.3141,0.1054,181.6
14:34:36:086,0.9133,2.2431,5.73,55.1867,0.2481,0.1373,0.0426,181.35
14:34:36:105,0.8501,2.4143,6.1249,55.3857,0.0437,0.0713,-0.0341,181.22
14:34:36:125,0.7458,2.4395,6.726,55.2886,-0.1352,0.1746,-0.1235,181.19
14:34:36:148,0.4941,2.3938,7.7224,55.0841,-0.2928,0.2406,-0.247,181.16
14:34:36:165,0.4455,2.6819,8.6303,55.1774,-0.3748,0.1341,-0.4024,181.17
14:34:36:185,0.3311,2.9679,9.4055,55.3236,-0.3396,0.0213,-0.5494,181.36
14:34:36:206,0.1572,3.1952,9.718,55.3173,-0.2172,-0.0181,-0.6739,181.78
14:34:36:230,-0.1203,3.6297,9.9561,55.5932,-0.1299,0.0862,-0.7367,182.39
14:34:36:247,-0.2361,4.3046,10.3468,55.4922,-0.1246,0.2268,-0.724,183.09
14:34:36:265,-0.4446,4.468,11.1831,55.219,-0.1938,0.2843,-0.6942,183.83
14:34:36:286,-0.6352,4.26,12.2127,54.7804,-0.2172,0.1139,-0.7048,184.55
14:34:36:306,-0.3409,4.391,12.9473,54.5476,-0.0511,-0.264,-0.7559,185.32
14:34:36:329,0.163,4.7297,12.1988,54.3005,0.1831,-0.346,-0.7868,186.24
14:34:36:346,-0.6635,3.4029,11.6112,54.0787,0.1448,0.164,-0.708,187.29
14:34:36:366,-1.2022,2.375,13.1121,53.7513,0.1192,0.3492,-0.4365,188.12
14:34:36:386,-0.1088,1.6517,13.2143,53.5547,0.5792,-0.1075,-0.1874,188.69
14:34:36:405,1.0644,0.7412,10.7549,53.2954,0.9188,-0.2906,-0.2204,189.38
14:34:36:427,1.6377,0.6264,9.0858,52.694,0.8091,-0.033,-0.4163,189.89
14:34:36:445,1.3322,0.8029,8.6733,52.3188,0.4738,0.264,-0.5792,190.13
14:34:36:465,0.527,0.5941,9.0707,52.1666,0.0351,0.198,-0.6015,190.35
14:34:36:486,-0.0181,0.1358,9.589,51.8039,-0.2992,-0.2459,-0.5408,190.8
14:34:36:506,-0.1061,-0.2616,9.6054,51.7402,-0.4195,-0.8027,-0.4855,191.56
14:34:36:527,0.3805,-0.1632,9.077,51.465,-0.2726,-1.2499,-0.5483,192.5
14:34:36:545,0.8138,0.4323,7.8612,51.4728,0.0735,-1.4288,-0.7091,193.51
14:34:36:565,0.8343,1.1072,6.3242,51.3891,0.3971,-1.2797,-0.8155,194.56
14:34:36:586,0.8366,1.8045,5.0719,51.4827,0.5046,-0.9465,-0.7964,195.67
14:34:36:605,0.8814,2.3534,4.4901,51.3671,0.3748,-0.5057,-0.7346,196.78
14:34:36:627,0.8864,2.6627,4.6831,51.0336,0.0873,-0.116,-0.6601,197.74
14:34:36:646,0.9433,2.695,5.4711,50.6998,-0.2278,0.1672,-0.6164,198.48
14:34:36:666,0.8232,2.6606,6.3823,50.4264,-0.5132,0.3556,-0.6175,199.07
14:34:36:692,0.6996,2.6608,7.3559,49.9211,-0.7846,0.3961,-0.6367,199.57
14:34:36:707,0.6831,2.5227,8.4036,49.6737,-1.0285,0.2449,-0.658,200.07
14:34:36:726,1.234,2.3102,9.562,49.4749,-1.1253,-0.1576,-0.7421,200.67
14:34:36:746,1.9506,2.1141,9.8295,49.183,-1.1211,-0.5983,-0.9593,201.45
14:34:36:766,2.0323,1.7552,9.8282,49.1251,-1.0721,-0.6729,-1.252,202.5
14:34:36:787,1.2259,2.1693,10.5875,49.0253,-0.8677,-0.2193,-1.3542,203.74
14:34:36:814,0.6569,2.6403,11.2611,48.7824,-0.5919,0.1608,-1.2712,205.06
14:34:36:825,0.4889,2.6756,11.768,48.4537,-0.4514,0.2992,-1.1275,206.48
14:34:36:846,0.9018,2.1744,12.0135,48.176,-0.4131,0.1895,-1.1434,207.89
14:34:36:866,1.7896,2.342,12.1789,47.6872,-0.4291,-0.0905,-1.4096,209.22
14:34:36:885,2.0884,2.8738,11.8154,47.2105,-0.6399,-0.1991,-1.8035,210.6
14:34:36:908,0.4807,1.2134,12.2517,47.514,-1.3681,-0.4706,-2.0803,212.21
14:34:36:926,-0.6403,0.4628,14.6536,47.1963,-1.7588,-1.4682,-1.9664,214.06
14:34:36:946,0.0796,0.1279,15.0538,46.9498,-1.1647,-2.0718,-1.6758,216.47
14:34:36:966,1.0993,-1.0402,12.9033,46.9578,-0.4408,-1.6726,-1.598,219.24
14:34:36:986,1.1289,-2.0024,11.4956,46.6082,-0.2555,-0.8507,-1.6279,221.47
14:34:37:006,1.0486,-1.9062,11.6294,46.1635,-0.1991,-0.4301,-1.6566,223.1
14:34:37:026,0.8365,-1.9642,11.3237,45.8477,-0.0277,-0.3716,-1.6438,224.66
14:34:37:045,1.0498,-1.6853,10.4545,45.7291,0.2523,-0.4865,-1.6555,226.51
14:34:37:065,1.1469,-0.9515,9.1091,45.4153,0.4983,-0.5494,-1.7194,228.52
14:34:37:086,0.9855,0.0062,7.8503,45.0301,0.609,-0.6388,-1.7088,230.58
14:34:37:106,0.8493,0.6222,6.728,45.2205,0.5345,-0.8006,-1.5693,232.66
14:34:37:126,0.8861,0.7969,6.1375,45.0948,0.4173,-0.8709,-1.4511,234.7
14:34:37:145,1.0454,0.9463,5.5722,44.72,0.2938,-0.7133,-1.3425,236.54
14:34:37:165,0.6779,1.2578,5.7912,44.617,0.115,-0.3311,-1.1743,238.21
14:34:37:189,0.2651,1.7179,6.65,44.6537,-0.0043,0.0351,-0.8634,239.64
14:34:37:205,0.3135,1.7631,7.6221,44.1385,-0.017,0.2204,-0.5174,240.86
14:34:37:225,0.7678,1.3354,7.9757,44.0232,0.05,0.3077,-0.3024,241.82
14:34:37:246,1.1222,0.7949,8.1729,43.9715,0.0596,0.4333,-0.2374,242.48
14:34:37:267,1.3318,0.4386,8.4472,43.7872,-0.0287,0.4024,-0.2853,242.86
14:34:37:289,1.5862,0.3719,8.9603,43.396,-0.1522,0.2534,-0.4674,243.09
14:34:37:305,1.5913,0.5147,9.4461,43.0823,-0.2236,0.1512,-0.7197,243.35
14:34:37:325,1.2259,0.9695,9.9305,42.7463,-0.3332,0.0798,-0.9593,243.82
14:34:37:346,0.8451,1.477,10.673,42.5321,-0.4418,0.0586,-1.0625,244.58
14:34:37:409,0.5771,1.7669,11.5729,42.0832,-0.3439,0.2172,-1.0466,245.58
14:34:37:410,0.3156,1.8819,12.5136,41.9215,-0.066,0.3939,-0.9529,246.78
14:34:37:411,0.5464,1.9724,12.8068,42.1973,0.2449,0.3034,-0.9028,248.07
14:34:37:426,1.0239,2.3906,12.1628,41.7623,0.428,0.1533,-0.9763,249.37
14:34:37:446,0.8871,2.4953,11.3184,41.41,0.3375,0.164,-1.021,250.62
14:34:37:466,0.1667,1.8854,11.4528,41.1609,0.0266,0.2981,-0.7836,251.77
14:34:37:486,0.6586,1.5846,12.4807,40.5943,0.0149,0.1682,-0.4929,252.77
14:34:37:505,1.4648,0.9886,11.6437,40.3613,0.3449,0.0532,-0.3726,253.58
14:34:37:525,1.8403,0.3243,9.663,40.1553,0.3769,0.0607,-0.3918,254.36
14:34:37:546,1.8991,0.15,8.7334,40.0818,0.0266,0.1267,-0.4046,254.97
14:34:37:574,1.5848,-0.0631,8.8441,39.9756,-0.3343,0.0405,-0.3471,255.29
14:34:37:586,1.4873,-0.2292,9.0935,39.9751,-0.5398,-0.2438,-0.2523,255.5
14:34:37:606,1.6099,-0.4774,8.9885,39.9244,-0.5834,-0.5121,-0.1863,255.77
14:34:37:626,1.7128,-0.8101,8.7176,40.1268,-0.4716,-0.6537,-0.1948,256.07
14:34:37:647,1.7883,-0.7307,8.3911,39.8121,-0.2225,-0.6228,-0.2832,256.38
14:34:37:667,1.7065,-0.2053,7.7907,39.5241,0.1054,-0.5557,-0.4035,256.77
14:34:37:689,1.4201,0.2395,6.93,39.4993,0.2119,-0.6111,-0.4621,257.32
14:34:37:705,1.1549,0.7475,6.391,39.5066,0.1522,-0.724,-0.4227,257.95
14:34:37:725,1.0894,1.0012,6.2895,39.4626,0.0256,-0.7101,-0.3087,258.54
14:34:37:747,1.1135,1.0465,6.522,39.3676,-0.0873,-0.5121,-0.2012,259.04
14:34:37:766,1.1696,1.0691,6.983,38.9626,-0.2342,-0.2033,-0.0745,259.4
14:34:37:785,1.2308,0.9055,7.6926,38.5214,-0.3897,0.0149,0.0373,259.59
14:34:37:806,1.454,0.7599,8.5895,38.3326,-0.5046,0.1618,0.0639,259.59
14:34:37:825,1.5725,0.7316,9.5623,38.4159,-0.5345,0.2246,0.016,259.46
14:34:37:846,1.5285,0.8219,10.3077,38.3545,-0.5015,0.1405,-0.083,259.32
14:34:37:871,1.314,1.0192,10.7966,38.4516,-0.4759,0.0458,-0.1054,259.3
14:34:37:885,1.254,1.1693,11.1926,38.3262,-0.4951,0.0181,-0.0639,259.41
14:34:37:905,1.2498,1.1233,11.9011,38.0465,-0.4993,0.083,0.0043,259.55
14:34:37:926,1.4928,1.0538,12.7324,37.7233,-0.3992,0.1384,0.0245,259.63
14:34:37:953,1.9045,0.9916,13.2217,37.3583,-0.1927,0.099,-0.0671,259.66
14:34:37:965,2.004,1.0498,13.2774,37.186,0.0522,-0.0596,-0.2236,259.71
14:34:37:986,2.0066,1.4836,12.8867,37.2272,0.2928,-0.2023,-0.3599,259.98
14:34:38:005,1.5779,1.6895,12.2136,37.1833,0.4322,-0.1065,-0.4184,260.41
14:34:38:029,0.4193,1.0226,11.8118,36.9199,0.3343,0.0522,-0.2545,260.95
14:34:38:048,0.0886,0.0143,12.4093,36.9273,0.2608,0.0106,0.0852,261.44
14:34:38:065,0.8475,-0.9389,11.9729,37.0322,0.5142,0.0106,0.2736,261.66
14:34:38:085,1.4248,-1.6149,10.8246,36.6683,0.6856,0.2683,0.2172,261.71
14:34:38:106,1.4339,-1.6506,10.0907,36.8465,0.56,0.5483,0.0351,261.58
14:34:38:126,0.936,-1.0215,10.3954,36.5928,0.2534,0.5217,-0.0458,261.31
14:34:38:147,0.5044,-0.6676,10.7125,36.4264,0.0948,0.0979,0.0362,261.03
14:34:38:166,0.7334,-0.2872,9.9726,36.4119,0.1416,-0.4184,0.1118,260.89
14:34:38:185,1.1795,0.1478,8.5161,36.2761,0.2662,-0.774,0.0713,260.88
14:34:38:206,1.4966,0.5637,7.104,35.9136,0.3684,-0.9188,-0.0479,260.9
14:34:38:226,1.4585,0.7044,6.0455,36.09,0.4184,-0.8613,-0.1373,260.97
14:34:38:246,1.2719,0.7909,5.5212,35.8858,0.3769,-0.7059,-0.1874,261.14
14:34:38:266,1.1868,1.0502,5.5517,35.696,0.4099,-0.5185,-0.1863,261.37
14:34:38:286,1.0969,1.3119,5.516,35.9151,0.5419,-0.2491,-0.1427,261.63
14:34:38:307,1.1678,1.6039,5.3095,35.9105,0.5398,0.0096,-0.0532,261.96
14:34:38:334,1.3972,1.9876,5.3158,35.5232,0.1874,0.1863,0.0394,262.22
14:34:38:346,1.4596,2.0203,6.5018,35.3968,-0.3662,0.2555,0.131,262.18
14:34:38:365,1.5839,1.7149,8.1507,34.7793,-0.7101,0.1352,0.1565,261.75
14:34:38:386,2.0504,1.5852,9.6574,34.8318,-0.7304,0.0916,0.0117,261.25
14:34:38:406,2.245,1.7313,10.6615,34.4105,-0.4738,0.1746,-0.2449,260.94
14:34:38:428,1.8404,2.1452,11.1731,33.9775,-0.165,0.4078,-0.4099,261
14:34:38:446,1.2369,2.3088,11.5358,33.6041,-0.0511,0.6611,-0.3843,261.44
14:34:38:465,1.0727,2.598,12.4126,33.5578,-0.1022,0.7442,-0.23,262.01
14:34:38:485,1.204,2.7954,13.3433,33.156,-0.1597,0.7154,-0.0522,262.41
14:34:38:506,1.0112,2.0288,14.0646,33.2066,-0.3056,0.8006,0.1405,262.6
14:34:38:525,0.8117,0.6697,15.7814,33.0793,-0.3907,0.7218,0.2864,262.57
14:34:38:546,1.383,0.0854,16.71,32.56,0.1075,0.2502,0.1703,262.25
14:34:38:565,1.8637,0.397,14.852,32.3618,0.9039,-0.0341,-0.1182,262.04
14:34:38:585,1.3401,0.4353,11.739,32.0279,1.1839,-0.0202,-0.197,262.32
14:34:38:605,1.1996,0.4384,9.5981,31.5518,0.9731,-0.0117,-0.0554,262.8
14:34:38:625,1.5067,0.1756,8.6967,31.5219,0.692,0.0224,0.1118,263.02
14:34:38:645,1.7888,-0.4198,8.1065,31.5808,0.5408,0.0511,0.1331,262.92
14:34:38:666,1.856,-0.6473,7.5913,31.6256,0.428,0.0649,0.0479,262.69
14:34:38:686,1.5024,-0.6942,7.2474,31.5546,0.3109,-0.0181,-0.0362,262.45
14:34:38:709,1.0712,-0.569,7.1662,31.8018,0.231,-0.2481,-0.033,262.29
14:34:38:726,1.0927,-0.3298,6.9924,31.87,0.2576,-0.5664,-0.0277,262.26
14:34:38:746,1.2992,-0.0683,6.1827,32.0296,0.3567,-0.7815,-0.0979,262.35
14:34:38:767,1.3887,0.4124,5.1593,32.3696,0.3109,-0.7602,-0.2129,262.62
14:34:38:787,1.4341,1.417,4.715,32.3556,0.0884,-0.5451,-0.2427,262.85
14:34:38:808,1.1587,1.9968,4.9049,32.1778,-0.2694,-0.1416,-0.1033,263.14
14:34:38:826,1.0867,2.0157,5.858,32.357,-0.6973,0.1948,0.116,263.33
14:34:38:846,1.1244,1.5382,7.4902,32.22,-0.9795,0.3726,0.2981,263.21
14:34:38:865,1.4397,1.1344,8.9205,32.3373,-1.0327,0.2992,0.3183,262.8
14:34:38:886,1.743,0.9618,10.0556,32.282,-0.8294,0.132,0.2076,262.31
14:34:38:912,1.7048,1.0833,10.3083,31.931,-0.56,0.0256,0.0692,261.96
14:34:38:925,1.6611,1.5286,10.37,31.7341,-0.4046,-0.0181,-0.017,261.87
14:34:38:946,1.7055,1.9073,10.4341,31.7987,-0.3513,0.0138,-0.0479,261.92
14:34:38:966,1.6752,1.8846,10.4663,31.2793,-0.3886,0.0703,-0.0405,262
14:34:38:986,1.5468,1.9003,10.9297,31.1103,-0.527,0.0777,0.017,262.06
14:34:39:011,1.7617,2.2446,11.544,31.2887,-0.6058,0.033,0.099,262.03
14:34:39:026,1.574,2.1102,11.7197,31.0031,-0.8869,0.1384,0.2012,261.94
14:34:39:046,0.5464,0.1315,13.3008,31.335,-1.4799,0.1608,0.4141,261.76
14:34:39:066,0.4522,-1.5895,16.5603,31.5871,-1.4511,-0.2726,0.5856,261.2
14:34:39:089,0.962,-3.1207,17.0274,31.6498,-0.7091,-0.626,0.4759,260.51
14:34:39:105,0.7529,-3.9795,15.1054,31.3993,-0.0767,-0.6207,0.0937,260.21
14:34:39:125,-0.0777,-3.6713,13.4887,31.5367,0.2268,-0.3843,-0.181,260.14
14:34:39:146,-0.7032,-2.6126,12.2391,31.6693,0.5057,-0.1331,-0.2033,260.21
14:34:39:166,-0.7588,-1.3726,10.8497,31.7217,0.8027,0.083,-0.1075,260.53
14:34:39:188,-0.3845,-0.1898,9.4464,32.1638,1.1285,0.3332,0,260.94
14:34:39:206,-0.1094,0.4838,8.0479,32.6711,1.4011,0.6792,0.1033,261.28
14:34:39:226,-0.0576,0.8557,7.1571,32.9425,1.498,0.9827,0.23,261.48
14:34:39:246,-0.0261,1.2029,6.6763,33.1045,1.5118,1.0093,0.3577,261.46
14:34:39:265,0.0198,1.3251,6.1242,33.2912,1.4373,0.9018,0.4631,261.17
14:34:39:288,0.2265,1.5119,5.6956,33.5357,1.235,0.7101,0.5185,260.67
14:34:39:306,0.4149,1.8202,5.5356,33.6507,0.9614,0.5515,0.5217,259.96
14:34:39:326,0.6398,2.2865,5.4586,33.8231,0.6888,0.4472,0.4865,259.12
14:34:39:346,0.7364,2.4623,5.6725,34.1399,0.4099,0.5046,0.4344,258.25
14:34:39:366,0.759,2.2346,6.1841,34.3164,0.1448,0.5643,0.363,257.43
14:34:39:385,0.6636,2.1057,6.8357,34.201,-0.1065,0.4993,0.2736,256.64
14:34:39:405,0.9053,2.2309,7.6906,34.6309,-0.2992,0.3801,0.1554,255.94
14:34:39:463,1.1839,2.4441,8.7052,34.8459,-0.3386,0.2087,-0.0639,255.37
14:34:39:464,1.1623,2.651,9.4424,34.9068,-0.28,0.0969,-0.3439,255.02
14:34:39:466,0.4529,3.1584,10.3371,35.2846,-0.2576,0.0788,-0.4908,254.99
14:34:39:486,-0.3178,3.2261,11.1232,35.3107,-0.3481,-0.0202,-0.4205,255.35
14:34:39:505,-0.4156,2.7294,12.5762,35.4501,-0.4269,-0.1608,-0.2906,255.86
14:34:39:526,0.2848,2.3421,13.9253,35.8981,-0.082,-0.3843,-0.3439,256.3
14:34:39:549,1.5737,3.206,13.5986,36.3909,0.6739,-0.6569,-0.6622,256.77
14:34:39:565,1.5372,4.1767,11.1418,36.7505,1.0529,-0.2576,-0.8837,257.58
14:34:39:586,-0.649,2.4427,9.9426,37.3456,0.5951,0.4599,-0.626,258.78
14:34:39:613,-0.9475,1.0244,11.7941,37.5067,-0.0724,0.5664,-0.115,259.73
14:34:39:625,0.1281,-0.3521,12.7825,37.802,-0.1278,0.1299,0.0671,259.95
14:34:39:646,1.4476,-1.0279,11.9104,38.0117,0.0202,-0.181,-0.2321,259.88
14:34:39:666,1.4441,-0.666,10.8416,38.1701,0.0138,-0.1448,-0.7591,259.9
14:34:39:694,0.1675,0.5424,10.2924,38.4982,-0.0745,-0.1682,-0.9944,260.14
14:34:39:707,-1.0338,1.2061,9.3575,39.071,-0.2002,-0.3769,-0.7729,260.86
14:34:39:726,-1.0939,1.1241,8.3539,39.1107,-0.4088,-0.6058,-0.3662,261.94
14:34:39:746,-0.3597,0.7566,7.9965,39.5216,-0.5504,-0.6824,-0.1427,262.87
14:34:39:766,0.3684,0.5508,7.9264,40.0318,-0.4067,-0.6654,-0.1661,263.39
14:34:39:786,0.5943,0.6354,7.5096,40.0319,-0.0862,-0.6345,-0.3215,263.72
14:34:39:806,0.4694,0.8959,6.5341,40.2718,0.1554,-0.6207,-0.4397,264.19
14:34:39:827,0.3789,1.282,5.7592,40.9089,0.1714,-0.4887,-0.4291,264.84
14:34:39:846,0.5555,1.6658,5.4817,40.9918,0.0319,-0.2193,-0.3449,265.52
14:34:39:871,0.5937,1.8668,6.1511,40.9879,-0.2257,0.1469,-0.2438,266.07
14:34:39:886,0.4157,1.5434,7.3011,41.4899,-0.395,0.3758,-0.164,266.39
14:34:39:905,0.3262,1.5172,8.6753,41.4618,-0.4631,0.4046,-0.0862,266.51
14:34:39:926,0.5031,1.676,9.5473,41.8226,-0.4184,0.1938,-0.0681,266.56
14:34:39:952,0.684,1.7451,10.1737,42.0153,-0.3332,0.0043,-0.1065,266.61
14:34:39:965,0.6844,1.773,10.4053,42.3543,-0.1714,-0.0777,-0.165,266.69
14:34:39:986,0.5541,2.1447,10.6283,42.835,-0.0426,-0.0394,-0.1661,266.89
14:34:40:006,0.2725,2.171,10.6777,43.1799,0.0458,0.0862,-0.0713,267.17
14:34:40:032,0.2059,2.1623,10.8737,43.4177,0.0426,0.2119,0.0596,267.45
14:34:40:046,0.4113,2.1134,11.2908,44.035,0.0181,0.1863,0.1235,267.57
14:34:40:066,0.6192,2.1997,11.6817,44.183,0.1075,0.0181,0.0468,267.48
14:34:40:086,0.7257,2.8603,11.2991,44.4618,0.3109,-0.115,-0.049,267.33
14:34:40:108,0.6654,3.6069,10.472,44.8282,0.2875,0.0703,-0.0192,267.37
14:34:40:125,-0.5034,2.3039,10.3148,45.2481,-0.1821,0.3396,0.198,267.51
14:34:40:146,-0.9091,0.7313,11.6079,45.3978,-0.7005,0.0937,0.4727,267.37
14:34:40:166,-0.2038,-0.4043,12.6378,45.4706,-0.6782,-0.3833,0.6079,266.78
14:34:40:193,0.8369,-1.0833,11.9566,45.8527,-0.247,-0.4812,0.4429,266.11
14:34:40:206,0.9927,-1.477,10.4844,45.7515,-0.0266,-0.0703,0.1363,265.68
14:34:40:225,0.4239,-1.2537,10.134,45.9672,-0.1618,0.3992,-0.1043,265.43
14:34:40:246,-0.1826,-0.4734,10.7392,45.9128,-0.2811,0.4301,-0.1554,265.22
14:34:40:273,-0.2532,-0.0719,10.8728,46.1074,-0.1927,0.0735,-0.1437,265.12
14:34:40:285,0.0634,0.3127,9.669,46.115,0.0437,-0.3449,-0.2023,265.24
14:34:40:305,0.436,1.0081,8.2754,46.3267,0.2257,-0.5068,-0.2917,265.53
14:34:40:325,0.4131,1.3806,7.0678,46.3904,0.3322,-0.4493,-0.3322,265.93
14:34:40:346,0.2573,1.6699,6.3569,46.8102,0.3694,-0.2598,-0.264,266.4
14:34:40:366,0.194,1.8327,6.0593,46.7913,0.3481,-0.0277,-0.1725,266.88
14:34:40:385,0.1818,1.9415,6.2215,46.7668,0.2704,0.131,-0.1235,267.24
14:34:40:405,-0.005,1.9334,6.6646,46.7903,0.2055,0.2172,-0.0681,267.43
14:34:40:425,0.1117,1.9155,7.0503,47.2183,0.1267,0.2108,-0.066,267.51
14:34:40:446,0.1903,1.6817,7.6808,47.4556,0.0798,0.2704,-0.0948,267.53
14:34:40:472,0.2537,1.5892,8.3324,47.6857,0.0873,0.363,-0.1491,267.51
14:34:40:486,0.3442,1.7481,8.8198,48.1346,0.1214,0.4333,-0.1852,267.56
14:34:40:506,0.4453,1.9688,9.2326,48.2249,0.0692,0.4386,-0.2406,267.68
14:34:40:526,0.5055,2.1965,9.7013,47.9628,-0.0894,0.3577,-0.346,267.81
14:34:40:546,0.393,2.444,10.6285,48.5579,-0.28,0.2151,-0.4642,267.93
14:34:40:566,0.0733,2.6002,11.5493,48.5136,-0.4248,0.0554,-0.543,268.12
14:34:40:586,-0.2796,2.4807,12.7013,48.2522,-0.4972,-0.1884,-0.5845,268.47
14:34:40:605,-0.2541,2.5965,13.5323,48.4299,-0.313,-0.4951,-0.6037,268.98
14:34:40:625,0.1832,3.179,12.8235,48.5227,-0.0096,-0.4237,-0.5717,269.68
14:34:40:646,-0.5354,1.7183,11.9716,48.4856,-0.0916,0.1075,-0.4259,270.63
14:34:40:667,-0.5584,0.9456,13.2453,48.7671,-0.1331,0.3801,-0.2523,271.45
14:34:40:685,0.2071,0.7019,13.8384,48.9418,0.4173,0.2395,-0.1714,271.87
14:34:40:706,0.7373,0.1315,11.6691,49.1451,0.9816,0.1214,-0.2321,272.31
14:34:40:725,0.8858,-0.0349,9.3238,48.853,1.0199,0.1608,-0.3045,272.9
14:34:40:754,0.8078,0.0222,7.9429,48.6278,0.6335,0.3279,-0.3332,273.31
14:34:40:770,0.4689,-0.0028,7.8114,48.3112,0.0362,0.3673,-0.2938,273.49
14:34:40:786,-0.045,-0.2405,8.5932,48.2782,-0.4259,0.1097,-0.231,273.49
14:34:40:807,-0.306,-0.4385,9.051,48.1875,-0.5802,-0.378,-0.1895,273.39
14:34:40:827,-0.1374,-0.2153,8.7032,48.0796,-0.5195,-0.7655,-0.1906,273.44
14:34:40:849,0.2247,0.2853,7.9697,48.2031,-0.3769,-0.905,-0.2236,273.66
14:34:40:866,0.5021,0.8611,7.0568,48.4937,-0.1597,-0.8091,-0.2704,274.06
14:34:40:885,0.5207,1.2359,6.3887,47.9743,0.0064,-0.5589,-0.2789,274.57
14:34:40:906,0.5126,1.5037,5.8883,48.0747,0.0554,-0.297,-0.2523,275.14
14:34:40:929,0.4808,1.7425,5.8387,48.0041,-0.0522,0.0096,-0.1842,275.65
14:34:40:947,0.2809,1.8042,6.4294,47.8109,-0.2438,0.2736,-0.083,276
14:34:40:965,0.2661,1.5877,7.3972,47.8034,-0.363,0.4067,0.0181,276.15
14:34:40:985,0.3775,1.4536,8.332,47.983,-0.3439,0.4727,0.0458,276.12
14:34:41:006,0.3555,1.5704,9.2365,47.9323,-0.2672,0.4269,0.0256,276.04
14:34:41:026,0.1786,1.676,9.73,48.0474,-0.1746,0.2545,0.017,275.96
14:34:41:047,0.1949,1.8438,9.7581,48.1507,-0.1352,0.082,0.0426,275.91
14:34:41:066,0.4027,1.964,9.8366,48.072,-0.148,0.099,0.0777,275.88
14:34:41:085,0.3107,1.8126,10.358,48.5619,-0.1916,0.2545,0.1278,275.82
14:34:41:106,0.3081,1.9039,11.2327,48.5076,-0.2214,0.313,0.1821,275.72
14:34:41:134,0.2506,1.8636,12.1224,48.7324,-0.2417,0.313,0.2246,275.54
14:34:41:146,0.201,1.7633,12.9211,48.4371,-0.2183,0.2374,0.2044,275.29
14:34:41:166,0.1863,2.0592,13.4776,48.2704,-0.1384,0.0532,0.1554,275
14:34:41:186,-0.1635,2.1817,13.0995,48.1923,-0.1916,-0.1757,0.1512,274.75
14:34:41:206,-1.2799,0.7762,12.9651,47.7994,-0.5845,-0.4173,0.28,274.58
14:34:41:228,-1.1664,0.1194,14.0038,48.2787,-0.6356,-0.8145,0.4887,274.26
14:34:41:247,-0.4246,-0.3816,13.7396,48.2593,-0.1341,-0.8091,0.6271,273.8
14:34:41:266,-0.3889,-1.2445,12.1884,48.4601,0.2502,-0.4472,0.5962,273.5
14:34:41:285,-1.1062,-2.0131,11.0642,48.2771,0.1533,-0.1235,0.56,273.21
14:34:41:305,-1.3308,-1.9284,11.0809,47.9465,-0.1246,-0.198,0.5387,272.65
14:34:41:327,-1.4199,-1.693,10.7344,47.7504,-0.2129,-0.5898,0.4855,271.85
14:34:41:345,-1.0983,-1.1718,9.6529,47.7407,-0.0703,-0.9337,0.4046,271.11
14:34:41:366,-0.6592,-0.2427,8.01,47.5963,0.2033,-0.9773,0.3481,270.58
14:34:41:386,-0.3704,0.7194,6.4758,47.5176,0.4429,-0.6196,0.4291,270.3
14:34:41:405,-0.1675,1.2885,5.5027,47.2533,0.5866,-0.0852,0.61,270.12
14:34:41:427,0.038,1.2599,4.9938,46.9809,0.5866,0.3567,0.7751,269.82
14:34:41:446,0.1891,1.1143,5.1173,46.6544,0.4674,0.61,0.8645,269.21
14:34:41:503,0.3234,1.3071,5.6091,46.5898,0.3268,0.6824,0.9092,268.25
14:34:41:505,0.4424,1.4682,6.4181,46.2663,0.3173,0.8592,0.9603,267.1
14:34:41:506,0.7476,1.6698,7.0321,46.3532,0.3439,0.9593,0.9241,265.92
14:34:41:525,0.9348,1.7342,7.4947,46.7066,0.1821,0.8709,0.8059,264.76
14:34:41:546,1.017,1.4619,8.3708,46.7203,-0.1693,0.5962,0.6303,263.54
14:34:41:566,1.2584,1.1914,9.6921,46.632,-0.3843,0.1427,0.3726,262.31
14:34:41:585,1.4445,1.1417,10.5014,46.8,-0.2885,-0.1938,0.0884,261.3
14:34:41:608,1.5139,1.5768,10.4608,46.4881,-0.1001,-0.263,-0.1789,260.79
14:34:41:625,1.4044,2.19,10.5514,46.5172,-0.0639,-0.0543,-0.3535,260.77
14:34:41:645,1.0229,2.3666,11.2434,46.5791,-0.1373,0.3162,-0.4152,261.02
14:34:41:665,0.4879,2.1894,12.9255,46.6562,-0.1693,0.4259,-0.4131,261.35
14:34:41:686,0.3367,2.188,14.2795,46.5875,0.0362,-0.0213,-0.4184,261.71
14:34:41:707,0.9486,2.8669,13.8267,46.4003,0.445,-0.4738,-0.4482,262.22
14:34:41:725,0.8517,2.6557,12.1458,46.2423,0.6377,-0.1725,-0.3843,262.94
14:34:41:746,-0.3984,0.8869,11.7318,46.2277,0.3662,0.4014,-0.2257,263.71
14:34:41:766,-0.7542,-0.0519,13.6421,46.0864,0.198,0.2502,-0.0543,264.15
14:34:41:786,-0.1472,-0.7954,13.4276,45.962,0.5142,-0.4141,0.0106,264.17
14:34:41:811,0.6938,-0.9257,11.1094,45.7552,0.7272,-0.5526,-0.1246,264.34
14:34:41:825,0.7493,-0.5704,9.3414,45.5293,0.6058,-0.197,-0.2949,264.61
14:34:41:846,0.173,-0.2032,8.7809,45.4523,0.2736,0.1075,-0.2896,264.82
14:34:41:866,-0.2779,-0.2778,8.673,45.2784,-0.0617,0.0202,-0.1608,264.97
14:34:41:894,-0.2121,-0.5119,8.6131,44.9137,-0.3013,-0.3205,-0.0575,265.07
14:34:41:906,0.2207,-0.485,8.2922,44.5246,-0.3098,-0.7335,-0.0628,265.1
14:34:41:925,0.6134,-0.1899,7.3667,44.4284,-0.1735,-0.9241,-0.181,265.16
14:34:41:946,0.7077,0.2594,6.5458,44.1104,0.0458,-0.8155,-0.3141,265.4
14:34:41:966,0.5713,0.7345,5.7429,43.843,0.2821,-0.5568,-0.3822,265.85
14:34:41:988,0.4447,1.2772,5.0769,44.0008,0.4173,-0.2385,-0.3652,266.47
14:34:42:006,0.4798,1.7464,4.7004,44.1417,0.3258,0.1139,-0.2694,267.12
14:34:42:025,0.8097,2.0383,4.6745,43.978,-0.1235,0.3918,-0.1959,267.61
14:34:42:046,0.9927,1.9256,5.8605,43.8443,-0.8166,0.5185,-0.1735,267.75
14:34:42:066,0.6844,1.5799,8.0114,43.6531,-1.2936,0.3811,-0.1852,267.49
14:34:42:087,0.2132,1.4427,10.2099,43.4717,-1.3085,-0.115,-0.1235,267.18
14:34:42:106,0.4928,1.3291,10.9788,43.4244,-0.9529,-0.543,-0.0149,267.16
14:34:42:125,1.068,1.0824,10.7667,43.1824,-0.4961,-0.3875,0.0149,267.47
14:34:42:146,1.4685,1.2795,10.738,43.1936,-0.1533,0.1576,-0.0075,267.85
14:34:42:165,1.4579,1.4338,11.3569,43.2114,0.1001,0.7559,-0.0213,268.14
14:34:42:191,1.2171,1.5345,12.2969,42.9328,0.2268,1.0732,-0.049,268.32
14:34:42:206,0.8214,1.7738,13.1434,42.6397,0.3024,1.0604,-0.0798,268.41
14:34:42:226,0.7785,2.1165,13.6027,42.8228,0.3077,0.6548,-0.164,268.44
14:34:42:246,1.1474,2.57,13.3412,42.0673,0.395,0.1767,-0.3513,268.45
14:34:42:274,1.1476,2.7669,11.8258,41.9472,0.4301,0.1501,-0.6196,268.58
14:34:42:286,-0.2728,2.0122,11.0359,41.9712,0.115,0.511,-0.7623,268.98
14:34:42:306,-1.8853,1.6716,12.496,41.5845,-0.1352,0.5675,-0.5611,269.52
14:34:42:326,-2.1296,0.8511,13.1612,41.5468,0.1522,0.2065,-0.1373,270.07
14:34:42:347,-1.3634,-0.2924,11.7266,41.5468,0.5004,0.0884,0.0756,270.74
14:34:42:372,-1.198,-1.204,10.2518,41.1399,0.5557,0.3556,0.0256,271.2
14:34:42:385,-1.7022,-1.227,9.8957,40.9831,0.4088,0.4418,-0.0852,271.28
14:34:42:405,-2.0915,-0.5751,9.4565,40.8464,0.2566,0.0596,-0.0724,271.14
14:34:42:426,-1.9411,0.0909,8.3289,40.2984,0.0639,-0.4865,0.0128,271.04
14:34:42:446,-1.5259,0.4196,6.9103,40.4064,-0.2172,-0.9337,0.0937,271.01
14:34:42:467,-0.9467,0.7713,6.2662,40.2684,-0.4844,-1.2403,0.1757,270.93
14:34:42:488,-0.3617,0.9765,5.9734,40.2885,-0.4855,-1.2084,0.2566,270.77
14:34:42:506,0.0225,0.9578,5.8684,40.1622,-0.2789,-0.8858,0.3151,270.68
14:34:42:526,0.2073,1.0672,5.609,40.3184,0.0224,-0.4684,0.3375,270.65
14:34:42:551,0.3134,1.4492,5.4385,39.858,0.1884,-0.0138,0.3364,270.6
14:34:42:566,0.3776,1.8509,5.5905,39.4374,0.1437,0.2832,0.3449,270.46
14:34:42:585,0.4757,2.1347,6.0961,39.3338,-0.1299,0.4514,0.33,270.13
14:34:42:606,0.5836,2.0534,7.2589,39.0861,-0.395,0.5494,0.3013,269.6
14:34:42:625,0.69,1.6703,8.7534,38.907,-0.5291,0.6143,0.2427,268.95
14:34:42:646,0.9103,1.1442,10.1581,38.8037,-0.4887,0.6037,0.0735,268.39
14:34:42:665,1.293,1.0797,11.3787,38.4587,-0.2321,0.4993,-0.2193,267.93
14:34:42:685,1.4424,1.5892,11.6025,38.2453,0.0969,0.3641,-0.6111,267.9
14:34:42:706,1.1971,2.0858,11.2881,37.9711,0.2044,0.4163,-0.905,268.24
14:34:42:725,0.2263,2.2305,11.7828,37.778,0.1373,0.6537,-0.9901,268.97
14:34:42:751,-0.429,2.485,13.0343,37.7551,0.1182,0.725,-0.8986,269.89
14:34:42:765,-0.4889,2.6164,13.8695,37.1816,0.2417,0.5195,-0.8208,270.92
14:34:42:785,-0.336,2.7201,13.4962,36.8046,0.3045,0.4567,-0.8059,271.92
14:34:42:806,-1.37,1.6916,13.5696,36.6639,-0.0075,0.7506,-0.7165,272.9
14:34:42:826,-2.2192,0.6608,15.2872,36.5745,-0.148,0.6516,-0.4642,273.69
14:34:42:853,-1.8059,-0.2313,15.6165,36.5013,0.4205,0.1139,-0.2268,274.28
14:34:42:867,-0.7319,-0.7901,12.5956,36.8116,1.0529,-0.3396,-0.2513,274.9
14:34:42:886,-0.2736,-0.6319,9.4486,36.7082,0.9624,-0.5195,-0.4312,275.59
14:34:42:906,-0.5418,0.1398,7.8729,36.8587,0.3865,-0.5462,-0.5057,276.02
14:34:42:926,-1.0941,0.7139,7.4431,36.6026,-0.3694,-0.7176,-0.2481,276.32
14:34:42:947,-0.9948,0.1399,7.887,36.6124,-0.8975,-1.0295,0.0798,276.57
14:34:42:966,-0.2738,-0.4936,8.0446,36.3785,-0.9358,-1.3447,0.2395,276.53
14:34:42:986,0.5191,-0.9365,7.6451,36.3297,-0.7027,-1.3425,0.198,276.59
14:34:43:006,0.8026,-0.9788,7.026,36.2675,-0.3449,-1.1285,0.0277,276.58
14:34:43:029,0.8938,-0.3884,6.438,36.3942,-0.0309,-0.8656,-0.1331,276.7
14:34:43:046,0.8312,0.1219,6.0466,36.5591,0.1661,-0.642,-0.1927,277
14:34:43:066,0.7942,0.3037,5.6556,36.7634,0.2161,-0.4908,-0.2321,277.4
14:34:43:086,0.7217,0.4777,5.5085,36.9254,0.0532,-0.3716,-0.2523,277.79
14:34:43:105,0.8232,1.0192,6.1107,37.0078,-0.2619,-0.2843,-0.2534,278.09
14:34:43:133,0.6197,1.2152,7.2572,37.0288,-0.5004,-0.3045,-0.2044,278.26
14:34:43:146,0.7362,1.3329,8.1454,36.7379,-0.5707,-0.412,-0.1278,278.39
14:34:43:166,0.9356,1.3009,8.754,36.7105,-0.61,-0.4141,-0.0554,278.56
14:34:43:186,1.0874,1.3234,9.512,36.3329,-0.6739,-0.3886,-0.0106,278.72
14:34:43:206,1.289,1.3638,10.53,36.3414,-0.6079,-0.3524,0.0426,278.8
14:34:43:228,1.386,1.3754,11.262,36.0751,-0.3588,-0.1554,0.0894,278.83
14:34:43:246,1.2672,1.4802,11.6495,36.1013,-0.1746,0.2151,0.1735,278.93
14:34:43:266,1.1704,1.7466,12.4799,36.1692,-0.1469,0.511,0.2875,279.04
14:34:43:285,1.2816,1.8496,13.577,35.7886,-0.1714,0.4972,0.3449,278.95
14:34:43:306,1.2669,1.9001,14.3794,35.6666,-0.1075,0.1682,0.3013,278.62
14:34:43:327,1.4665,2.5241,14.2924,35.4933,0.0586,-0.1427,0.2332,278.2
14:34:43:346,0.8933,2.2306,13.585,35.3254,-0.0373,-0.1618,0.2587,277.89
14:34:43:365,0.1311,0.82,14.1914,35.642,-0.2236,-0.2608,0.4205,277.65
14:34:43:386,0.528,-0.6338,14.4144,36.2716,0.1991,-0.477,0.5749,277.21
14:34:43:414,1.2723,-1.8827,12.5636,36.598,0.8198,-0.3854,0.4727,276.79
14:34:43:426,1.1715,-2.2629,10.4117,36.6293,0.9518,0.0149,0.247,276.58
14:34:43:446,0.0998,-1.9521,9.6492,36.8257,0.6069,0.3279,0.1714,276.32
14:34:43:466,-0.8412,-1.4072,9.6397,37.0187,0.2214,0.0735,0.3694,275.92
14:34:43:486,-0.4268,-1.2002,9.2202,36.991,-0.0703,-0.444,0.6228,275.41
14:34:43:508,0.2548,-1.3301,8.665,37.3504,-0.0735,-0.7783,0.6707,274.74
14:34:43:554,0.8452,-1.0253,7.4447,37.5927,0.082,-0.938,0.593,273.94
14:34:43:555,1.1214,-0.2805,6.2438,37.9982,0.1842,-0.856,0.5238,273.28
14:34:43:567,1.2608,0.3105,5.613,38.5584,0.2055,-0.5973,0.5419,272.72
14:34:43:591,1.3702,0.4126,5.5626,39.0059,0.2875,-0.2172,0.5621,272.19
14:34:43:607,1.5232,0.5576,5.7035,39.0145,0.461,0.1512,0.5281,271.61
14:34:43:625,1.3983,0.7337,5.5823,38.9589,0.4972,0.3418,0.4929,271.07
14:34:43:646,1.446,1.0054,5.8512,39.2371,0.3109,0.4088,0.4855,270.53
14:34:43:666,1.6324,1.1078,6.4572,39.0637,-0.0043,0.3173,0.4493,269.86
14:34:43:685,1.8399,1.0392,7.3547,38.8909,-0.2843,0.1682,0.3577,269.06
14:34:43:707,2.1301,1.0484,8.132,38.9676,-0.4631,0.0532,0.181,268.27
14:34:43:726,2.6699,1.668,9.1769,38.9766,-0.4865,0.0628,-0.0809,267.67
14:34:43:746,2.7931,2.2639,9.8981,38.6423,-0.3865,0.1693,-0.3535,267.35
14:34:43:766,2.4828,2.4849,10.7302,38.8713,-0.2821,0.4386,-0.5164,267.46
14:34:43:789,1.8966,2.6019,11.8786,38.9532,-0.148,0.708,-0.5142,267.89
14:34:43:805,1.5075,2.7087,12.9369,39.3543,-0.0681,0.7495,-0.3886,268.54
14:34:43:826,1.4726,2.2116,13.9668,39.8248,-0.0607,0.4503,-0.3226,269.21
14:34:43:845,1.7877,1.8878,14.7189,40.0813,0.0319,-0.0128,-0.4099,269.68
14:34:43:865,1.8762,2.0306,14.3142,40.1402,0.3481,-0.2427,-0.4908,270.06
14:34:43:891,0.9358,1.2444,13.2181,40.1655,0.4035,0.1512,-0.3237,270.67
14:34:43:906,0.2814,-0.1935,13.8652,40.0961,0.2726,0.4482,0.0575,271.42
14:34:43:925,0.8115,-1.5733,14.242,40.1591,0.6675,0.082,0.263,271.74
14:34:43:946,1.8073,-2.1311,11.659,40.2664,1.2531,-0.197,0.1203,271.77
14:34:43:965,2.2395,-1.3383,8.6617,40.4522,1.3308,0.0224,-0.1341,271.89
14:34:43:986,1.4968,-0.3606,6.9753,40.4635,0.8485,0.4099,-0.1597,272
14:34:44:006,0.8967,0.3079,6.9249,41.0456,0.0724,0.378,0.1022,271.97
14:34:44:026,0.9323,-0.0291,7.398,41.1459,-0.445,-0.0511,0.378,271.62
14:34:44:046,1.5602,-0.5333,7.3001,41.1799,-0.6271,-0.4525,0.4759,271.03
14:34:44:065,1.9129,-0.9128,6.8613,41.5607,-0.6686,-0.658,0.3684,270.4
14:34:44:086,1.8894,-0.9104,6.6701,41.587,-0.5962,-0.5983,0.1842,269.84
14:34:44:106,1.6106,-0.536,6.5053,41.7865,-0.3886,-0.5313,0.0437,269.48
14:34:44:125,1.5035,-0.103,6.1241,42.1364,-0.2087,-0.4248,-0.0075,269.41
14:34:44:152,1.5262,0.3985,5.8985,42.3365,-0.0958,-0.2342,-0.0266,269.54
14:34:44:166,1.423,0.7222,5.8151,42.4491,-0.2087,-0.033,-0.0383,269.69
14:34:44:186,1.375,1.0442,6.5493,42.5625,-0.4674,0.1714,0.0149,269.75
14:34:44:205,1.6454,1.1917,7.7044,42.4206,-0.6441,0.3503,0.0905,269.65
14:34:44:225,2.0691,1.1649,8.9599,42.6489,-0.7495,0.4291,0.0639,269.47
14:34:44:246,1.9759,1.2362,10.5112,42.3179,-0.6867,0.4237,0.0106,269.25
14:34:44:273,1.8248,1.3365,11.5602,42.2856,-0.412,0.2129,0.0266,269.12
14:34:44:285,2.1476,1.2906,11.7317,42.1794,-0.0192,0.0245,0.0298,269.21
14:34:44:305,2.5316,1.5316,11.148,42.2064,0.2438,0.1842,0.0075,269.42
14:34:44:326,2.3261,1.6442,11.167,42.624,0.2481,0.4887,0.0064,269.65
14:34:44:346,1.8054,1.6115,11.9134,42.7758,0.0245,0.5866,0.0798,269.71
14:34:44:368,1.6576,1.5412,13.1647,43.1035,-0.1576,0.2619,0.1533,269.64
14:34:44:387,1.8886,1.4678,13.8124,43.0963,-0.0426,-0.2811,0.1597,269.35
14:34:44:405,2.3717,1.4567,12.915,43.062,0.3013,-0.5451,0.0628,269.15
14:34:44:425,1.8129,1.2334,11.4766,43.1227,0.2938,-0.3226,0.016,269.16
14:34:44:446,0.6187,0.1331,12.0886,42.8858,-0.0053,-0.1001,0.1821,269.24
14:34:44:467,0.2656,-1.1453,13.0706,43.2414,0.1373,-0.4024,0.3694,269.07
14:34:44:485,0.718,-1.9845,11.7408,43.7349,0.5227,-0.6356,0.4141,268.79
14:34:44:506,0.8321,-2.1698,9.8952,44.037,0.5526,-0.5089,0.329,268.66
14:34:44:526,0.5767,-1.8357,9.1759,44.4996,0.1789,-0.1906,0.3141,268.37
14:34:44:547,0.4084,-1.4629,9.697,44.6545,-0.2151,-0.1235,0.3567,267.86
14:34:44:566,0.7508,-1.0935,9.9461,44.9012,-0.362,-0.297,0.3503,267.18
14:34:44:586,1.4632,-0.2359,9.6303,44.9991,-0.2065,-0.363,0.1874,266.58
14:34:44:606,1.5953,0.4581,8.6991,45.326,0.132,-0.2044,0.0021,266.19
14:34:44:626,1.4419,0.9905,7.6671,45.4084,0.4333,0.066,-0.082,266.15
14:34:44:656,1.2467,1.1358,6.8737,45.5359,0.6228,0.3205,-0.0926,266.38
14:34:44:665,1.1936,1.3056,6.3521,45.5134,0.7357,0.4365,-0.0564,266.63
14:34:44:685,1.227,1.4988,5.8168,45.6232,0.7474,0.4951,-0.0426,266.82
14:34:44:705,1.1003,1.7454,5.4743,45.5421,0.5813,0.5515,-0.0032,266.9
14:34:44:726,0.759,1.7367,5.6912,46.0955,0.2459,0.5164,0.0862,266.85
14:34:44:748,0.6332,1.5283,6.4196,46.2465,-0.1139,0.2853,0.2023,266.62
14:34:44:765,0.9598,1.3871,7.1276,46.348,-0.3897,0.0149,0.2608,266.21
14:34:44:785,1.456,1.5306,7.8016,46.3816,-0.5919,-0.1033,0.1852,265.75
14:34:44:805,1.6008,1.943,8.519,46.353,-0.7304,-0.0202,0.0511,265.29
14:34:44:825,1.5246,2.3839,9.7311,46.2571,-0.824,0.0287,-0.0511,264.95
14:34:44:846,1.4568,2.5899,10.7865,46.3327,-0.7378,-0.2044,-0.0979,264.78
14:34:44:866,1.6,2.627,10.9754,46.4954,-0.5888,-0.2608,-0.0756,264.82
14:34:44:886,1.4952,1.8033,11.3556,46.5998,-0.5472,0.05,-0.0649,265.05
14:34:44:905,1.3579,0.9259,12.819,46.5535,-0.576,0.2768,-0.082,265.22
14:34:44:925,1.7018,0.4753,14.8311,46.8604,-0.3662,-0.049,-0.2321,265.27
14:34:44:946,2.32,1.0515,14.84,47.3666,0.3364,-0.6526,-0.4961,265.39
14:34:44:967,2.4084,1.879,12.0217,47.4223,0.807,-0.4791,-0.5632,266
14:34:44:985,1.3368,0.804,10.7349,47.4905,0.5504,0.3258,-0.2513,267.06
14:34:45:006,0.9834,-1.0756,12.0373,47.543,0.3332,0.5888,0.2576,267.75
14:34:45:033,2.0972,-2.4648,12.0014,47.4125,0.5813,0.2321,0.412,267.81
14:34:45:046,3.2874,-2.8172,10.0348,47.4597,0.7399,0.0756,0.115,267.6
14:34:45:065,3.5447,-1.65,8.5728,47.5934,0.5355,0.2406,-0.3513,267.43
14:34:45:086,2.2457,-0.5505,8.2479,47.8866,0.0224,0.494,-0.5313,267.11
14:34:45:106,1.1491,0.0062,8.9521,48.0262,-0.5462,0.56,-0.3535,267.15
14:34:45:128,0.9626,-0.2784,9.9707,48.4379,-0.774,0.2289,-0.1288,267.28
14:34:45:145,1.6299,-0.4264,9.5736,48.5511,-0.6111,-0.2757,-0.1533,267.38
14:34:45:165,2.0004,-0.1373,8.1252,48.7611,-0.3684,-0.4418,-0.3556,267.56
14:34:45:185,1.7723,0.2508,6.8821,48.9907,-0.2332,-0.2715,-0.5078,267.91
14:34:45:206,1.2792,0.521,6.4589,48.8352,-0.1661,-0.0458,-0.5195,268.44
14:34:45:227,0.8783,0.7222,6.2438,49.0397,-0.1214,0.1011,-0.4141,269.07
14:34:45:246,0.8235,0.776,6.2663,48.9248,-0.1512,0.1821,-0.2364,269.72
14:34:45:266,1.0437,0.5515,6.3608,49.3482,-0.2619,0.1916,-0.1203,270.23
14:34:45:286,1.4085,0.4808,6.8659,49.504,-0.4365,0.1735,-0.1256,270.49
14:34:45:306,1.2477,0.3668,7.8761,49.4313,-0.5728,0.1703,-0.1682,270.53
14:34:45:326,0.7663,0.4286,9.1771,49.48,-0.6122,0.0905,-0.1278,270.56
14:34:45:346,0.8191,0.9468,10.3692,49.3778,-0.494,-0.1341,-0.0586,270.68
14:34:45:366,1.1478,1.2367,11.0597,48.9497,-0.2129,-0.2417,-0.0128,270.86
14:34:45:386,1.5382,1.362,11.0538,49.1993,0.1331,-0.1565,0.0053,271.08
14:34:45:413,1.5471,1.6323,10.91,49.355,0.3343,0.1107,0.0639,271.33
14:34:45:425,1.3012,1.8138,11.1144,49.4726,0.3109,0.3045,0.2278,271.53
14:34:45:446,1.2779,1.6487,11.6694,49.6257,0.1533,0.2278,0.4078,271.53
14:34:45:466,1.401,1.172,12.025,49.5223,0.0075,-0.0106,0.4716,271.23
14:34:45:486,1.5091,0.9401,12.1907,49.8078,-0.0415,-0.1139,0.4195,270.68
14:34:45:509,1.8011,1.5426,12.2147,50.0019,0.0575,-0.0532,0.3077,270.06
14:34:45:525,1.2114,1.175,11.8128,50.3399,0.0703,0.1001,0.2183,269.59
14:34:45:546,1.2758,0.908,11.8861,50.612,0.0341,0.1256,0.1831,269.27
14:34:45:603,0.8015,-0.0242,12.156,50.7554,0.0043,0.198,0.2172,268.98
14:34:45:605,0.5765,-0.934,12.6218,50.9869,0.0213,0.1491,0.3279,268.74
14:34:45:607,0.4123,-1.9243,12.5588,50.7609,-0.0181,0.1672,0.4674,268.49
14:34:45:625,0.1271,-3.139,12.6752,50.7563,-0.3002,0.264,0.5738,268.15
14:34:45:645,0.1711,-3.4803,13.5065,50.8067,-0.4972,0.1246,0.5919,267.54
14:34:45:666,0.4157,-3.3273,13.415,50.7519,-0.3364,-0.3854,0.511,266.69
14:34:45:686,0.9842,-2.5253,11.3908,51.0159,0.0224,-0.79,0.3567,266
14:34:45:707,1.4678,-1.2881,9.1302,51.0975,0.3716,-0.7921,0.1235,265.61
14:34:45:725,1.411,-0.1994,7.1907,51.2947,0.6399,-0.4397,-0.017,265.38
14:34:45:746,1.3358,0.8306,6.0616,51.235,0.6803,0.0362,-0.0096,265.38
14:34:45:766,1.0329,1.0506,6.0357,51.59,0.6494,0.3865,0.0884,265.45
14:34:45:794,0.866,1.0665,6.2424,51.694,0.8453,0.7815,0.2502,265.42
14:34:45:805,0.9488,0.9071,6.2355,52.0594,1.1019,1.2946,0.3982,265.36
14:34:45:826,1.0959,0.7513,6.3137,52.2209,1.2094,1.4202,0.4408,265.24
14:34:45:846,1.1611,0.9474,6.4024,52.3143,1.1402,1.0806,0.3364,264.89
14:34:45:866,1.0551,1.5351,6.216,52.1014,0.8656,0.5696,0.1906,264.32
14:34:45:889,0.7309,1.9189,6.1956,52.2563,0.4269,0.1171,0.1299,263.72
14:34:45:905,0.392,1.6629,6.6926,52.2896,-0.0756,-0.1501,0.1789,263.19
14:34:45:926,0.4219,1.2584,7.9091,52.4926,-0.3258,-0.2129,0.2193,262.71
14:34:45:946,0.9056,1.1324,8.731,53.0178,-0.2906,-0.23,0.1544,262.28
14:34:45:966,1.5683,1.4319,9.3025,53.34,-0.1725,-0.2119,-0.1011,262.02
14:34:45:988,1.4414,1.8561,9.3248,53.7123,-0.1672,-0.0852,-0.3843,261.9
14:34:46:005,0.8093,2.2529,9.6962,53.8083,-0.4386,0.1427,-0.494,262.03
14:34:46:025,0.2895,2.3611,11.4657,54.0166,-0.6856,0.3428,-0.445,262.32
14:34:46:046,0.4426,2.4002,13.6555,54.0168,-0.6186,0.1033,-0.3982,262.64
14:34:46:065,1.1042,3.059,14.2155,53.8776,-0.2246,-0.2129,-0.4131,263.07
14:34:46:089,0.3502,1.6144,12.8835,54.2492,-0.1725,0.115,-0.3822,263.72
14:34:46:106,-0.4532,0.2442,14.2333,54.2723,-0.5664,0.4578,-0.2065,264.42
14:34:46:126,-0.1531,-0.6078,15.8306,54.5184,-0.2598,-0.0373,-0.0287,264.65
14:34:46:146,0.8655,-1.1874,13.7981,54.7987,0.4706,-0.4322,-0.0437,264.84
14:34:46:174,1.4175,-1.1666,10.7631,55.1249,0.7921,-0.148,-0.2055,265.35
14:34:46:187,0.9406,-0.8349,9.1408,55.1259,0.5643,0.329,-0.313,265.79
14:34:46:205,0.0801,-0.6548,9.1417,55.3982,0.115,0.3418,-0.2204,266
14:34:46:226,0.0477,-0.6116,9.3941,55.2116,-0.1427,-0.1544,-0.0692,266.05
14:34:46:246,0.491,-0.6298,8.7305,55.0695,-0.1512,-0.6792,-0.0745,266.06
14:34:46:269,0.7927,-0.375,7.4793,55.256,-0.0351,-0.8815,-0.1586,266.12
14:34:46:286,0.9356,0.1544,6.3959,55.0581,0.0809,-0.7815,-0.23,266.31
14:34:46:306,0.9383,0.603,5.6371,55.3902,0.1714,-0.5515,-0.2555,266.62
14:34:46:325,0.8576,0.9075,5.204,55.4609,0.2449,-0.3162,-0.2225,267
14:34:46:346,0.7318,1.0439,4.8693,55.3538,0.247,-0.1299,-0.1246,267.39
14:34:46:368,1.0595,1.2432,4.6355,55.5444,0.0798,0.1011,-0.0085,267.71
14:34:46:388,1.4457,1.3481,5.322,55.5786,-0.2896,0.379,0.0468,267.85
14:34:46:406,1.5179,1.1754,7.0703,55.4181,-0.5707,0.5526,0.0649,267.67
14:34:46:426,1.338,1.1213,8.8578,55.7456,-0.6037,0.4865,0.0596,267.34
14:34:46:446,1.1666,1.3347,9.9359,55.7117,-0.3875,0.3226,0.0958,267.11
14:34:46:467,1.2179,1.4688,10.2698,55.56,-0.1672,0.3237,0.1874,267.09
14:34:46:485,1.2351,1.4264,10.667,55.8133,-0.1459,0.4216,0.2683,267.14
14:34:46:506,1.3809,1.4022,11.5451,55.9042,-0.3194,0.3535,0.296,267.02
14:34:46:526,1.3421,1.3295,12.6286,55.828,-0.5462,0.0234,0.2502,266.65
14:34:46:546,1.3646,1.338,13.6072,56.0748,-0.6899,-0.3343,0.1735,266.15
14:34:46:565,1.422,1.4921,14.6311,55.612,-0.5557,-0.6164,0.0277,265.74
14:34:46:585,1.2129,1.6396,14.8167,55.5381,0.0053,-0.6516,-0.0798,265.51
14:34:46:605,1.1559,2.0591,13.6309,55.6417,0.6473,-0.3449,-0.066,265.69
14:34:46:628,0.7358,1.7882,12.012,55.5409,0.8869,0.2385,0.0394,266.19
14:34:46:653,0.0394,0.7512,11.9109,55.6272,0.6388,0.4078,0.1778,266.6
14:34:46:665,0.0462,-0.3153,12.3779,55.8676,0.577,0.0011,0.2459,266.51
14:34:46:685,0.4541,-1.0907,11.2698,56.0349,0.7016,-0.2928,0.1352,266.18
14:34:46:705,0.273,-1.3272,9.7407,56.0918,0.5589,-0.0916,-0.0447,265.98
14:34:46:725,-0.465,-1.2229,9.7731,56.3738,0.181,0.1884,-0.1043,265.83
14:34:46:746,-1.0191,-0.8902,10.3037,56.03,-0.0373,0.0703,-0.0128,265.64
14:34:46:765,-0.9527,-0.7528,9.9532,55.9333,-0.0575,-0.2726,0.1246,265.51
14:34:46:786,-0.3019,-0.0408,8.8901,55.4969,0.0415,-0.5302,0.1533,265.48
14:34:46:805,0.2646,0.8691,7.7134,55.2736,0.2278,-0.6069,0.1246,265.44
14:34:46:825,0.5069,1.3359,6.5602,55.1795,0.4291,-0.4525,0.1214,265.41
14:34:46:846,0.625,1.597,5.5925,55.0115,0.5302,-0.1203,0.1661,265.46
14:34:46:866,0.6727,1.8783,5.3532,55.1058,0.4333,0.1852,0.2417,265.48
14:34:46:886,0.8431,1.9713,5.8472,55.5002,0.2906,0.2491,0.3013,265.3
14:34:46:906,1.1272,1.6878,6.3546,55.2623,0.1948,0.1746,0.3119,264.92
14:34:46:926,1.2435,1.2751,6.6447,54.7554,0.0649,0.1586,0.2566,264.47
14:34:46:951,1.4545,1.0209,7.3587,54.5242,-0.116,0.1746,0.1171,264.02
14:34:46:965,1.7078,0.976,8.708,54.3572,-0.1586,0.2087,-0.0809,263.58
14:34:46:986,2.1788,1.0401,9.8731,54.2723,0.0373,0.2406,-0.3599,263.29
14:34:47:006,2.2136,1.1978,10.8855,54.4986,0.4205,0.3513,-0.6984,263.37
14:34:47:028,1.5796,1.9904,11.0922,55.0363,0.7165,0.3556,-0.9231,263.88
14:34:47:046,0.8035,2.8964,10.8714,55.074,0.6697,0.2534,-0.889,264.82
14:34:47:066,0.4297,3.4762,11.182,55.1935,0.378,0.1491,-0.7612,265.88
14:34:47:086,0.3256,3.5938,12.1975,55.1904,0.1938,-0.0351,-0.692,266.73
14:34:47:106,0.3657,3.5769,13.0422,54.9734,0.3205,-0.4291,-0.7357,267.41
14:34:47:127,0.5654,4.0229,12.4368,54.6825,0.6888,-0.7495,-0.8421,268.19
14:34:47:151,-0.1013,4.0199,11.0105,54.5026,0.8166,-0.3737,-0.8656,269.28
14:34:47:166,-1.8673,3.429,11.0598,54.3608,0.5195,0.3311,-0.4802,270.56
14:34:47:187,-2.1769,2.155,12.498,54.3453,0.4099,0.2928,0.1927,271.58
14:34:47:206,-0.5194,0.8843,11.4271,54.3146,0.6154,-0.1884,0.5259,271.98
14:34:47:232,1.1315,0.604,9.227,54.3098,0.5366,-0.4291,0.3907,271.9
14:34:47:246,1.5645,0.9535,7.8298,54.2879,0.1746,-0.379,0.1448,271.46
14:34:47:265,1.0932,1.4484,7.4877,54.0207,-0.2843,-0.2033,0.1129,270.93
14:34:47:286,0.6124,1.2628,7.6133,53.9378,-0.6963,-0.2502,0.3024,270.53
14:34:47:306,0.8759,0.931,7.5346,53.6515,-0.9252,-0.4472,0.4929,270.18
14:34:47:330,1.3098,0.6743,7.057,53.7265,-0.9944,-0.6803,0.5302,269.72
14:34:47:346,1.6649,0.5819,6.3794,53.6479,-0.9954,-0.7921,0.4482,269.21
14:34:47:366,1.8301,0.3634,6.0598,53.47,-0.9518,-0.6984,0.3194,268.75
14:34:47:386,1.9659,0.3527,6.0644,53.2929,-0.7878,-0.4983,0.1735,268.4
14:34:47:414,1.9724,0.5503,5.8724,53.432,-0.6303,-0.2278,0.0692,268.21
14:34:47:425,2.0729,0.9459,5.8537,53.2982,-0.6324,0.082,0.0085,268.2
14:34:47:446,1.923,1.1155,6.5073,53.7715,-0.7644,0.3567,-0.0085,268.21
14:34:47:465,1.6775,1.2325,7.5828,53.9992,-0.9316,0.5323,0.0075,268.12
14:34:47:486,1.4811,1.5749,9.4201,53.8744,-0.955,0.56,0.1001,267.97
14:34:47:513,1.4913,1.6274,10.6808,53.6642,-0.8453,0.2715,0.1895,267.82
14:34:47:526,1.6456,1.2496,11.2715,53.2393,-0.6675,-0.0213,0.2289,267.73
14:34:47:546,2.0658,1.0681,11.4934,53.1073,-0.4631,-0.1448,0.2108,267.62
14:34:47:566,2.4495,1.2354,11.8439,52.7853,-0.1352,-0.0522,0.131,267.5
14:34:47:586,2.4666,1.6569,11.6059,52.813,0.1501,0.2278,0.0756,267.43
14:34:47:607,2.1193,1.9431,11.6039,52.4648,0.0894,0.4674,0.1171,267.51
14:34:47:651,1.8357,1.9502,12.5843,52.7813,-0.0969,0.4205,0.1927,267.49
14:34:47:653,1.9104,1.7944,13.8179,52.806,-0.049,0.0479,0.1895,267.23
14:34:47:666,2.233,1.637,13.7879,52.5467,0.3194,-0.3386,0.0586,266.95
14:34:47:690,2.2032,2.0355,12.378,52.7075,0.5813,-0.247,-0.1171,266.89
14:34:47:707,0.7768,1.6294,11.9529,52.5682,0.3961,0.1384,-0.0554,267.08
14:34:47:725,-0.0519,0.6594,13.1925,52.1492,0.3013,0.1097,0.2225,267.2
14:34:47:745,0.5999,-0.5795,12.8406,52.0217,0.7335,-0.1938,0.3609,267.11
14:34:47:765,1.3194,-1.3809,10.6796,51.9336,1.0732,-0.0362,0.2268,267.04
14:34:47:786,1.253,-1.2774,9.3988,51.9307,0.9827,0.4653,-0.0256,266.99
14:34:47:805,0.2347,-0.6674,9.6708,51.9065,0.6516,0.7229,-0.1171,266.77
14:34:47:826,-0.6235,-0.4135,10.0954,51.6223,0.3439,0.4035,0.0117,266.52
14:34:47:846,-0.3844,-0.0027,9.7373,51.0904,0.1842,-0.2119,0.1682,266.32
14:34:47:866,0.3852,0.2937,8.5173,50.8467,0.1895,-0.6292,0.2449,266.13
14:34:47:893,1.0614,0.6206,7.1523,50.9151,0.3141,-0.824,0.1874,265.96
14:34:47:906,1.4432,1.0048,5.8846,50.5219,0.4248,-0.7793,0.0777,265.83
14:34:47:925,1.4293,1.1442,5.1512,50.5634,0.2662,-0.856,-0.0224,265.83
14:34:47:946,1.3785,1.6169,5.1762,50.7607,-0.1927,-1.5704,-0.1139,265.85
14:34:47:966,1.5354,2.217,5.2938,50.31,-0.5696,-2.3806,-0.1427,265.8
14:34:47:992,1.8548,2.5415,5.1601,50.5599,-0.6037,-2.5158,-0.0969,265.87
14:34:48:005,1.9429,2.684,4.5878,50.4383,-0.4706,-1.8099,0.049,266.29
14:34:48:025,2.1258,2.6092,4.5304,50.5383,-0.4205,-0.2864,0.3737,266.85
14:34:48:046,2.9141,2.1976,5.9885,50.6934,-0.5206,1.1647,0.6228,267.11
14:34:48:065,3.6806,1.6079,7.9759,50.7324,-0.5579,1.7929,0.4727,266.61
14:34:48:086,3.6244,1.5606,9.6052,50.5298,-0.5568,1.8067,0.0213,265.65
14:34:48:106,2.5639,2.0299,11.0371,50.3249,-0.7229,1.3681,-0.2704,264.91
14:34:48:126,1.7678,2.5556,12.2515,49.9071,-1.0263,0.7208,-0.2204,264.65
14:34:48:146,2.0532,2.3345,13.633,49.6735,-1.1764,0.3843,-0.0298,264.68
14:34:48:174,2.9583,1.8317,14.9125,49.4462,-0.8432,0.3386,-0.0522,264.75
14:34:48:186,3.2888,1.675,14.7975,48.9123,-0.2097,0.6196,-0.2129,264.87
14:34:48:206,2.1237,0.8004,13.9543,48.598,0.0735,1.2009,-0.1618,265.33
14:34:48:226,1.4245,-0.1296,14.7555,48.2452,0.1757,1.3148,0.1065,265.92
14:34:48:246,2.0153,-0.7841,14.533,48.0933,0.7708,0.9358,0.2225,266.16
14:34:48:268,2.5869,-1.0197,11.895,47.8177,1.252,0.7442,0.0798,266.36
14:34:48:286,1.9579,-1.2616,9.315,47.342,0.9923,0.89,-0.0639,266.59
14:34:48:305,0.8932,-1.213,8.8822,46.8112,0.231,0.9145,0.0138,266.52
14:34:48:326,0.2758,-1.3288,9.4536,46.533,-0.3822,0.4812,0.2183,266.12
14:34:48:346,0.46,-1.6202,9.4869,46.2288,-0.6047,-0.2044,0.3588,265.57
14:34:48:366,0.9947,-1.734,8.5811,45.7384,-0.5387,-0.7815,0.3002,265.09
14:34:48:385,1.2961,-1.5623,7.2121,45.6062,-0.4376,-1.0732,0.0958,264.71
14:34:48:406,1.2333,-0.976,6.2106,45.4331,-0.3556,-0.8869,-0.0202,264.46
14:34:48:426,1.1748,-0.3758,5.6714,45.4194,-0.3811,-0.3449,0.05,264.39
14:34:48:446,1.3779,-0.0818,5.9877,45.2191,-0.4088,0.0713,0.1565,264.41
14:34:48:467,1.805,0.1172,6.4799,45.0519,-0.3109,0.2374,0.0884,264.31
14:34:48:486,2.14,0.4097,6.931,44.5957,-0.1799,0.2694,-0.1778,264.16
14:34:48:506,1.6761,0.4904,7.2997,44.3432,-0.1459,0.3237,-0.4291,264.12
14:34:48:526,0.6922,0.5932,7.7396,43.9877,-0.1821,0.4386,-0.4322,264.33
14:34:48:546,0.3205,0.9427,8.4943,43.6271,-0.2949,0.5142,-0.2289,264.78
14:34:48:567,0.7472,1.0069,9.7739,43.2038,-0.2726,0.4823,-0.0373,265.24
14:34:48:586,1.2792,0.6763,10.4784,43.0368,-0.0181,0.4131,-0.0298,265.51
14:34:48:606,1.5042,0.7503,10.4757,42.6129,0.1533,0.3024,-0.1427,265.72
14:34:48:626,1.3196,1.1167,10.547,42.4229,0.0639,0.1522,-0.2108,265.93
14:34:48:653,1.0219,1.5035,11.0796,42.246,-0.1842,0.1171,-0.1011,266.11
14:34:48:666,0.9313,1.5234,12.1379,41.9939,-0.2853,0.264,0.0926,266.23
14:34:48:686,1.1523,1.26,13.1798,41.4886,-0.231,0.363,0.214,266.25
14:34:48:706,1.816,1.3972,13.6251,41.3265,-0.1171,0.1821,0.2055,266.18
14:34:48:726,2.1876,1.4406,13.1534,40.7431,-0.1842,-0.1139,0.0649,266.05
14:34:48:748,1.33,-0.0239,12.5125,40.6494,-0.6984,-0.3865,-0.0639,265.88
14:34:48:769,0.4823,-1.3605,13.9151,40.4147,-0.9667,-0.626,-0.0735,265.58
14:34:48:786,0.5042,-2.1391,14.4949,40.2273,-0.3758,-0.8719,-0.0958,265.27
14:34:48:806,0.4785,-2.8341,12.6167,40.3061,0.2832,-0.7516,-0.198,265.45
14:34:48:825,0.2089,-3.0167,10.8956,40.0985,0.4738,-0.3716,-0.3173,265.97
14:34:48:846,-0.1783,-2.6853,10.2106,40.347,0.3939,-0.2289,-0.3641,266.37
14:34:48:865,-0.3282,-2.2507,9.6351,39.9841,0.3002,-0.4014,-0.329,266.68
14:34:48:885,0.0056,-1.5921,8.7192,39.7838,0.313,-0.5685,-0.3268,267
14:34:48:905,0.2495,-0.8721,7.5169,39.522,0.3641,-0.5547,-0.3599,267.34
14:34:48:925,0.3121,-0.0993,6.5292,39.0503,0.3929,-0.3758,-0.28,267.73
14:34:48:945,0.4648,0.2935,5.8464,39.0898,0.4056,-0.1586,-0.1384,268.14
14:34:48:966,0.6775,0.4679,5.1698,39.0837,0.3545,-0.017,-0.0756,268.47
14:34:48:986,0.7783,0.7878,4.653,38.8349,0.1884,0.1139,-0.0979,268.65
14:34:49:006,0.8262,1.0981,4.4286,38.6475,-0.1533,0.1778,-0.1427,268.67
14:34:49:034,0.5381,1.0643,4.6873,38.77,-0.625,0.0724,-0.1852,268.6
14:34:49:046,0.3095,1.2062,5.4354,38.6665,-1.0657,-0.0575,-0.165,268.5
14:34:49:066,0.128,0.6859,6.5126,38.4693,-1.4437,-0.0224,-0.0564,268.36
14:34:49:086,0.5323,0.4197,8.5764,38.5232,-1.5022,0.1789,0.0884,268.26
14:34:49:106,1.1801,0.0293,10.5746,38.1057,-1.1104,0.4163,0.1288,268.16
14:34:49:133,1.7295,-0.4491,12.0117,37.6948,-0.5408,0.5536,-0.0117,268.23
14:34:49:146,1.9163,-0.3212,12.6743,37.2326,-0.1224,0.5004,-0.2651,268.5
14:34:49:166,1.6075,0.2308,13.1936,36.9077,-0.0128,0.3641,-0.3929,268.95
14:34:49:186,1.4237,0.4619,13.9495,36.9223,-0.0468,0.2321,-0.3662,269.45
14:34:49:207,1.5297,0.3233,14.8898,36.9077,0.0905,0.0532,-0.379,269.95
14:34:49:227,1.9345,0.8225,15.157,36.9218,0.5132,-0.1288,-0.527,270.44
14:34:49:246,1.7952,1.7294,13.9471,37.1337,1.0082,0.0788,-0.5749,271.07
14:34:49:266,0.1932,0.5903,12.0835,37.055,1.0072,0.7027,-0.2534,271.98
14:34:49:286,-0.2514,-1.1838,12.7812,36.6948,0.5994,1.0572,0.3215,272.87
14:34:49:305,1.0497,-1.8747,13.6211,36.532,0.9135,0.6313,0.5025,273.09
14:34:49:331,2.0199,-2.2911,11.1379,36.301,1.4224,0.3258,0.2683,272.85
14:34:49:346,1.9607,-1.9124,8.3942,36.3235,1.3372,0.3897,-0.083,272.7
14:34:49:366,1.0978,-1.0131,7.2793,36.4464,0.7431,0.5462,-0.1948,272.5
14:34:49:386,0.393,-0.3973,7.4033,36.4453,-0.0149,0.4429,0.0032,272.27
14:34:49:414,0.2537,-0.4412,8.2109,36.3374,-0.494,0.1182,0.2747,272
14:34:49:425,0.5374,-0.8581,8.4045,36.4716,-0.5153,-0.1725,0.4482,271.61
14:34:49:446,0.9012,-1.1971,7.8827,36.4795,-0.3513,-0.2481,0.4216,271.21
14:34:49:466,0.8201,-1.1308,7.4414,36.3698,-0.1874,-0.2002,0.2853,270.8
14:34:49:486,0.6799,-0.799,7.1692,36.5395,-0.0713,-0.2427,0.1746,270.41
14:34:49:509,0.8685,-0.3875,6.9588,36.5743,0.0458,-0.2321,0.0681,270.13
14:34:49:526,1.0813,-0.1552,7.0643,36.308,0.2513,-0.0905,-0.0937,269.97
14:34:49:546,1.0436,0.0881,6.9404,36.5152,0.4897,0.1576,-0.2715,269.96
14:34:49:566,0.7874,0.706,7.0762,36.6652,0.5249,0.4216,-0.362,270.19
14:34:49:586,0.5189,1.1908,7.8737,36.3345,0.3279,0.5408,-0.3247,270.56
14:34:49:607,0.1814,1.23,9.294,36.442,0.1884,0.478,-0.2204,270.9
14:34:49:626,0.0248,1.1532,10.3502,36.283,0.1799,0.2566,-0.0905,271.14
14:34:49:646,0.0558,1.428,10.9516,36.0369,0.1618,-0.0021,0.0394,271.37
14:34:49:698,0.1819,1.4644,11.3491,36.1002,0.0458,-0.2129,0.1416,271.5
14:34:49:700,0.2041,1.2776,11.8849,35.8284,-0.0639,-0.2853,0.2289,271.44
14:34:49:720,0.5182,1.418,12.2786,36.1173,-0.017,-0.3056,0.2683,271.23
14:34:49:726,0.9075,1.7236,12.1122,36.1147,0.116,-0.2619,0.2204,270.97
14:34:49:746,0.8987,1.9232,11.6651,36.1905,0.1129,-0.148,0.1278,270.76
14:34:49:766,0.727,2.1365,11.8581,36.2145,-0.0479,-0.1629,0.1107,270.55
14:34:49:785,0.2606,1.7746,12.1092,36.3647,-0.2938,-0.4312,0.1491,270.33
14:34:49:806,-0.1874,0.6379,12.4415,36.6009,-0.445,-0.692,0.3109,270.08
14:34:49:826,0.0396,-0.2113,12.5944,36.6105,-0.2257,-0.7772,0.4546,269.78
14:34:49:846,0.3881,-1.1517,11.7523,36.5809,0.165,-0.5387,0.5408,269.5
14:34:49:866,0.4179,-2.1128,10.5846,36.5645,0.2097,-0.1331,0.5025,269.26
14:34:49:893,0.1691,-2.4238,10.5578,36.4662,-0.1075,0.0468,0.362,268.84
14:34:49:906,-0.1778,-2.2783,11.0031,36.2883,-0.3801,-0.3205,0.2321,268.13
14:34:49:925,-0.1446,-1.9206,10.4638,36.0977,-0.478,-0.8954,0.1512,267.46
14:34:49:946,0.433,-0.8206,9.3678,36.4703,-0.3556,-1.1136,0.083,267.06
14:34:49:966,0.6087,0.1026,8.1932,36.4105,-0.049,-0.8602,0.0692,266.84
14:34:49:987,0.6689,0.5274,7.114,36.3852,0.2768,-0.3929,0.1693,266.92
14:34:50:009,0.9278,0.6659,6.3413,36.7213,0.5366,0.0277,0.2257,267.05
14:34:50:025,1.258,0.9507,5.872,36.716,0.6548,0.2843,0.198,267.07
14:34:50:046,1.3714,1.1592,5.7132,36.7786,0.6356,0.3588,0.1001,266.95
14:34:50:066,1.2454,1.421,5.619,37.3136,0.5217,0.3577,0.0138,266.73
14:34:50:086,0.9669,1.718,6.0166,37.2006,0.3375,0.3002,0.0522,266.54
14:34:50:105,0.8989,1.8645,7.0862,36.9555,0.1235,0.0596,0.2246,266.39
14:34:50:126,1.2272,1.5737,7.9018,37.0048,-0.0458,-0.3002,0.3386,266.18
14:34:50:146,1.6966,1.2704,8.3982,36.7579,-0.2246,-0.4578,0.3545,265.84
14:34:50:174,2.375,1.4746,9.6005,36.9956,-0.2225,-0.4216,0.2715,265.37
14:34:50:187,2.6456,1.6805,10.3315,37.1042,0.0564,-0.2204,0.1395,264.9
14:34:50:209,2.5137,2.1725,10.0929,37.197,0.1512,0.164,0.0277,264.7
14:34:50:226,2.2296,2.5881,10.5754,37.4153,-0.1448,0.4844,0.017,264.69
14:34:50:246,2.0903,2.3632,12.1754,37.4075,-0.5323,0.4088,-0.0117,264.53
14:34:50:269,2.1519,2.0307,13.8857,37.701,-0.5845,-0.0181,-0.2108,264.21
14:34:50:286,2.2684,2.6206,14.2747,38.145,-0.0788,-0.4493,-0.4557,264.03
14:34:50:307,1.9999,3.3084,11.8436,38.3087,0.3087,-0.0873,-0.3982,264.43
14:34:50:325,0.4833,1.677,11.1355,38.6449,0.0277,0.8837,-0.0202,265.34
14:34:50:348,0.0095,0.1458,13.2219,38.6461,-0.0948,1.0583,0.4621,265.81
14:34:50:368,0.7652,-1.1501,13.2083,38.8954,0.4099,0.6803,0.6026,265.62
14:34:50:386,1.5247,-1.5547,10.7909,39.1019,0.774,0.6186,0.4408,265.34
14:34:50:406,1.6544,-1.2096,8.7531,39.599,0.6377,0.8986,0.2172,265.02
14:34:50:426,1.0278,-1.0041,7.7984,40.0535,0.0543,1.1413,0.1224,264.52
14:34:50:446,0.2077,-1.0419,8.4618,40.5477,-0.5302,1.0423,0.198,263.9
14:34:50:467,-0.0256,-1.3367,9.3131,40.4891,-0.7846,0.3875,0.3364,263.25
14:34:50:486,0.532,-1.4897,9.0197,40.3942,-0.6814,-0.2619,0.3311,262.73
14:34:50:506,1.1309,-1.2778,7.8619,40.1434,-0.4354,-0.5941,0.1682,262.38
14:34:50:525,1.4642,-0.8316,6.8241,40.3313,-0.2321,-0.5345,-0.033,262.17
14:34:50:546,1.5317,-0.3152,6.4378,40.5698,-0.0798,-0.2757,-0.1831,262.09
14:34:50:566,1.349,0.0008,6.2562,40.816,0.0234,-0.1129,-0.2906,262.18
14:34:50:585,1.3098,0.4902,6.0837,41.3204,0.0202,0.0277,-0.3375,262.42
14:34:50:605,1.1876,0.7754,6.5539,41.8671,-0.082,0.3407,-0.33,262.76
14:34:50:626,0.8408,1.0546,7.6417,42.0997,-0.2055,0.5451,-0.3311,263.09
14:34:50:653,0.1963,1.266,9.0017,42.4502,-0.2779,0.5345,-0.2896,263.38
14:34:50:668,-0.363,1.4638,10.1611,42.411,-0.247,0.28,-0.1533,263.64
14:34:50:685,-0.5488,1.668,11.0639,42.8099,-0.0798,0.1821,-0.0138,264.03
14:34:50:706,-0.5118,1.8296,11.6499,43.1789,0.2278,0.231,0.1469,264.33
14:34:50:727,-0.266,1.6567,11.6346,43.4172,0.4557,0.297,0.2789,264.54
14:34:50:748,-0.0406,1.7215,11.7715,43.8136,0.4684,0.3503,0.3694,264.62
14:34:50:766,-0.1301,1.6497,12.0402,44.3548,0.3854,0.3247,0.4823,264.46
14:34:50:786,-0.201,1.4641,12.1902,44.8228,0.2513,0.2885,0.6324,263.97
14:34:50:806,0.1992,1.3169,12.7623,44.9733,0.1821,0.1608,0.7101,263.39
14:34:50:825,0.8765,1.4346,13.1181,45.5277,0.3641,-0.0053,0.6516,262.63
14:34:50:845,1.4253,1.6684,12.0609,45.9594,0.5142,-0.0511,0.5046,261.87
14:34:50:865,0.8751,0.6806,11.2271,46.052,0.2119,-0.0735,0.4035,261.26
14:34:50:885,0.4915,-0.117,12.0798,45.952,-0.0447,-0.2449,0.4684,260.6
14:34:50:905,1.0225,-0.6169,12.4543,46.1918,0.1618,-0.3588,0.5238,259.9
14:34:50:925,1.5979,-1.1327,11.423,46.2002,0.4738,-0.2491,0.3694,259.42
14:34:50:946,1.1476,-1.9905,9.8986,46.4196,0.3854,0.0128,0.0862,259.04
14:34:50:965,0.3678,-2.0766,9.9882,46.5182,-0.0617,0.0884,-0.1459,258.66
14:34:50:985,-0.1679,-1.7973,10.1555,46.7813,-0.4259,-0.1597,-0.2555,258.25
14:34:51:006,-0.3258,-1.205,9.7269,46.8344,-0.494,-0.4972,-0.3364,258.1
14:34:51:029,-0.1146,-0.0857,8.7509,47.238,-0.1959,-0.6164,-0.3769,258.27
14:34:51:046,0.1588,0.7991,7.194,47.1881,0.2704,-0.3418,-0.3481,258.77
14:34:51:065,0.2788,0.907,5.5603,47.4489,0.543,0.1522,-0.3002,259.48
14:34:51:086,0.4681,0.8548,5.0556,47.4374,0.5068,0.6037,-0.2832,260.12
14:34:51:106,0.61,0.7536,5.4097,47.2704,0.3982,0.8496,-0.362,260.49
14:34:51:128,0.4005,1.0378,6.164,47.2273,0.329,0.791,-0.5185,260.68
14:34:51:146,-0.1362,1.6094,6.5691,47.7577,0.2438,0.4844,-0.5504,260.93
14:34:51:166,-0.4773,1.9998,6.772,48.0435,0.0437,0.1139,-0.4429,261.38
14:34:51:186,-0.5395,2.0115,6.9174,48.1561,-0.2406,-0.1629,-0.3045,261.91
14:34:51:206,-0.266,1.9005,7.6219,48.6009,-0.5536,-0.198,-0.2236,262.32
14:34:51:227,-0.0567,1.8983,9.1494,48.7651,-0.5919,-0.0905,-0.2481,262.53
14:34:51:246,-0.0532,2.2396,10.3248,48.9407,-0.3748,0.0011,-0.296,262.69
14:34:51:266,-0.2123,2.7276,10.871,49.1257,-0.1629,0.0745,-0.3087,263.04
14:34:51:286,-0.4272,2.9565,11.317,49.2385,-0.1107,0.0522,-0.2225,263.51
14:34:51:306,-0.3888,2.759,11.8329,49.1384,-0.1544,-0.0138,-0.115,263.95
14:34:51:326,-0.0897,2.5473,12.7346,49.3393,-0.2002,-0.1352,-0.0777,264.23
14:34:51:346,0.425,2.8282,13.3585,49.7232,-0.0788,-0.4621,-0.1192,264.36
14:34:51:366,0.5557,2.7317,12.6376,50.1046,-0.0948,-0.7123,-0.0862,264.49
14:34:51:386,0.0002,1.0841,12.0451,49.8645,-0.6196,-0.8038,0.0873,264.73
14:34:51:415,0.6811,-0.3576,13.63,49.894,-0.9358,-1.0753,0.2257,264.73
14:34:51:432,2.0066,-1.5368,14.0271,50.0129,-0.2885,-1.0742,0.1107,264.36
14:34:51:446,2.6223,-1.9284,11.5993,50.0217,0.5142,-0.4983,-0.2417,264.26
14:34:51:466,2.16,-1.1037,9.5757,50.1406,0.6569,0.3322,-0.5206,264.65
14:34:51:486,0.8783,-0.6098,9.2943,50.4579,0.2566,0.6452,-0.4738,265.13
14:34:51:508,0.3721,-0.3305,9.7557,50.7226,-0.1533,0.2385,-0.2662,265.52
14:34:51:525,0.5206,-0.5769,9.5219,51.0304,-0.3119,-0.412,-0.1544,265.77
14:34:51:546,0.8148,-0.5826,8.6811,51.3273,-0.2949,-0.8698,-0.2183,265.95
14:34:51:566,0.8007,-0.2931,7.5767,51.1999,-0.1991,-1.0423,-0.313,266.15
14:34:51:587,0.8152,0.0735,6.7905,51.4103,-0.0692,-0.9678,-0.3215,266.46
14:34:51:612,0.906,0.3376,6.3628,51.4649,0.181,-0.6814,-0.2768,266.89
14:34:51:625,1.0674,0.7473,5.8769,51.6832,0.4354,-0.2683,-0.214,267.4
14:34:51:646,1.1288,1.3811,5.4167,51.8255,0.4727,0.0405,-0.083,267.93
14:34:51:665,1.124,1.7878,5.4422,52.3533,0.2481,0.3087,0.1182,268.31
14:34:51:685,1.0966,1.6244,6.1342,52.6313,-0.099,0.5472,0.3716,268.36
14:34:51:706,1.3142,1.0799,7.3875,52.3356,-0.4301,0.7474,0.6228,268.04
14:34:51:754,1.7704,0.3645,9.2875,52.4971,-0.5217,0.8283,0.6792,267.38
14:34:51:755,2.0982,-0.3059,10.9148,52.4539,-0.2566,0.725,0.5206,266.52
14:34:51:768,2.1025,-0.3243,11.3327,52.502,0.0564,0.4376,0.2161,265.79
14:34:51:789,1.6324,0.083,10.7859,52.6569,0.0777,0.1735,0.0021,265.38
14:34:51:806,1.3653,0.7151,10.8157,52.8014,-0.1363,0.0011,-0.0554,265.2
14:34:51:826,1.2125,1.1781,11.3577,52.9945,-0.2161,0.0192,-0.0138,265.07
14:34:51:846,1.1036,1.196,11.6565,53.128,-0.1235,0.0862,-0.0043,265.02
14:34:51:866,1.3108,1.2084,11.5044,53.1824,-0.0468,0.1043,-0.0149,265.06
14:34:51:893,1.6404,1.4438,11.58,53.3184,-0.0894,0.0117,-0.082,265.14
14:34:51:906,1.4336,1.6389,11.6772,53.3711,-0.2779,-0.0149,-0.1842,265.16
14:34:51:926,0.1682,0.7093,12.502,53.3762,-0.5919,-0.1746,-0.1703,265.18
14:34:51:946,-0.0397,0.153,13.6666,53.6324,-0.5515,-0.5653,0.0128,265.18
14:34:51:965,0.7847,-0.3619,13.1604,53.671,-0.1533,-0.6665,0.1544,265.28
14:34:51:987,1.3397,-1.1578,12.0738,53.7941,0.1661,-0.2278,0.1373,265.5
14:34:52:005,1.0246,-1.9359,11.8082,53.8124,0.197,0.2619,0.0617,265.59
14:34:52:025,0.6471,-1.844,12.5711,53.9691,0.2395,0.2747,-0.033,265.5
14:34:52:046,0.2716,-1.4576,12.2109,54.1109,0.3939,-0.0543,-0.0756,265.39
14:34:52:065,0.2494,-0.8362,10.7727,54.1388,0.5376,-0.4397,-0.1033,265.5
14:34:52:086,0.2629,-0.0882,9.1693,54.0747,0.659,-0.5845,-0.1129,265.71
14:34:52:106,0.3037,0.6262,7.6201,54.3893,0.7985,-0.626,-0.0703,265.92
14:34:52:126,0.4222,1.0745,6.3419,54.6849,0.8826,-0.5749,0.0096,266.16
14:34:52:146,0.5576,1.2883,5.3749,54.7612,0.8666,-0.4344,0.0905,266.35
14:34:52:174,0.7262,1.5093,4.7263,54.761,0.7559,-0.2779,0.1735,266.4
14:34:52:186,1.0915,1.7301,4.6093,54.8752,0.5589,-0.1405,0.1991,266.3
14:34:52:205,1.4592,1.9425,4.982,54.6125,0.3599,0.0128,0.1672,266.02
14:34:52:226,1.5405,1.7223,5.4245,54.5254,0.2193,0.1852,0.0948,265.66
14:34:52:246,1.2632,1.6073,6.1163,54.6642,0.0383,0.3577,0.0767,265.34
14:34:52:268,1.057,1.5963,7.3352,54.6525,-0.164,0.297,0.1501,265.09
14:34:52:286,1.3129,1.6488,8.0765,54.8785,-0.3694,0.0383,0.1831,264.81
14:34:52:305,2.0399,1.7274,8.6896,54.9,-0.6388,-0.0511,0.0511,264.5
14:34:52:325,2.1844,1.6959,9.5752,54.7554,-0.84,0.1448,-0.197,264.14
14:34:52:346,1.6799,1.9908,11.2936,54.7438,-0.9816,0.494,-0.3577,263.88
14:34:52:367,0.8701,2.2492,13.6781,54.8786,-0.8592,0.5238,-0.3843,263.91
14:34:52:387,0.5899,2.2297,14.9392,54.7479,-0.4834,0.083,-0.3535,264.24
14:34:52:405,1.2886,2.2711,14.2949,54.6049,-0.0266,-0.444,-0.3854,264.86
14:34:52:425,1.8137,2.7492,12.152,54.4828,0.2161,-0.4344,-0.4056,265.6
14:34:52:445,1.2352,2.0755,11.2123,53.9597,0.0596,0.082,-0.2172,266.33
14:34:52:466,0.5702,0.8372,12.5482,53.6579,-0.0266,0.4546,0.2129,266.82
14:34:52:486,1.0062,-0.931,12.7709,53.789,0.2097,0.23,0.5632,266.95
14:34:52:506,2.1789,-1.8702,11.2805,53.432,0.4716,0.0117,0.445,266.87
14:34:52:526,2.5698,-1.5711,9.461,53.3991,0.4876,0.2768,0.0777,266.48
14:34:52:554,1.5236,-0.9917,8.7553,53.5032,0.0894,0.5057,-0.1129,266.05
14:34:52:565,0.4412,-0.7049,9.0384,53.2185,-0.3513,0.362,0.0649,265.7
14:34:52:585,0.4636,-0.6815,9.2016,52.96,-0.5132,0.0341,0.3449,265.46
14:34:52:606,1.2473,-0.7798,8.6123,52.9066,-0.4205,-0.1608,0.4386,265.22
14:34:52:625,1.885,-0.9257,7.7343,52.7285,-0.247,-0.1192,0.2981,264.89
14:34:52:649,2.0984,-0.5964,7.1673,52.3976,-0.1129,0.1331,0.0309,264.51
14:34:52:666,1.8494,0.1862,7.0908,52.374,-0.0021,0.2545,-0.2002,264.23
14:34:52:685,1.4756,0.6437,6.8324,52.1634,0.116,0.296,-0.2789,264.19
14:34:52:706,1.2569,0.8756,6.6762,51.8536,0.1554,0.362,-0.231,264.45
14:34:52:726,1.1868,0.935,6.8172,51.9538,0.0437,0.461,-0.1501,264.81
14:34:52:747,1.2535,0.8074,7.7703,51.7746,-0.1597,0.4546,-0.1033,265.07
14:34:52:766,1.0531,0.6007,9.0512,51.6023,-0.2885,0.2906,-0.0724,265.14
14:34:52:786,0.7079,0.5102,10.1199,51.3497,-0.264,0.0106,0.0011,265.14
14:34:52:806,0.5474,0.513,10.4986,50.933,-0.0671,-0.3098,0.165,265.2
14:34:52:826,0.9399,0.346,9.7103,50.6333,0.1107,-0.4078,0.2981,265.32
14:34:52:846,1.2399,0.3568,9.0272,50.526,0.148,-0.2332,0.3354,265.33
14:34:52:865,1.3594,0.5642,9.0152,50.365,0.0798,0.0873,0.346,265.09
14:34:52:885,1.4616,0.8843,9.6302,50.8091,-0.1043,0.1246,0.3428,264.69
14:34:52:905,1.8559,1.2373,10.1824,50.8432,-0.3396,-0.0564,0.2757,264.2
14:34:52:930,2.0785,1.271,10.7288,50.514,-0.6047,-0.2726,0.1682,263.67
14:34:52:946,2.4164,1.3419,11.595,50.5118,-0.8219,-0.4706,0.0426,263.19
14:34:52:966,2.771,1.7461,12.2789,50.153,-0.8986,-0.6473,-0.1288,262.82
14:34:52:985,2.0064,0.5517,12.4759,49.6127,-1.0615,-0.4844,-0.1863,262.66
14:34:53:005,1.2531,-0.9414,14.1258,49.4088,-1.1392,-0.3386,-0.1373,262.68
14:34:53:028,1.5249,-1.4489,15.6181,49.1472,-0.5557,-0.3513,-0.132,262.71
14:34:53:045,1.7805,-2.1925,14.5407,48.6903,0.2608,-0.0894,-0.2704,263.01
14:34:53:066,1.4083,-2.5326,12.8057,48.8311,0.6303,0.3833,-0.4748,263.67
14:34:53:085,0.446,-1.8948,12.1245,48.6863,0.6984,0.6292,-0.5856,264.33
14:34:53:105,-0.572,-1.3391,11.3627,48.5593,0.6803,0.5526,-0.4365,264.95
14:34:53:127,-0.6898,-0.7099,10.4321,48.2721,0.6462,0.296,-0.1427,265.67
14:34:53:149,-0.2133,-0.2435,9.2614,48.1596,0.6633,0.0916,0.0852,266.24
14:34:53:165,0.3418,0.168,7.9839,47.8632,0.7123,-0.066,0.198,266.49
14:34:53:186,0.7218,0.4093,6.7277,47.9108,0.7027,-0.2257,0.2449,266.49
14:34:53:206,1.0132,0.6714,5.8284,47.859,0.6665,-0.2449,0.2459,266.31
14:34:53:228,1.1041,0.838,5.1638,47.6322,0.5802,-0.1043,0.1757,266.02
14:34:53:246,1.024,1.0258,5.0269,47.4422,0.4205,0.1267,0.082,265.71
14:34:53:265,0.8377,1.3547,5.4704,47.0083,0.2779,0.2928,0.0287,265.4
14:34:53:285,0.8504,1.5453,6.102,46.9791,0.198,0.3673,0.0149,265.16
14:34:53:306,0.8479,1.4601,6.3658,46.8774,0.0724,0.4897,-0.0405,265.03
14:34:53:326,0.6055,1.417,7.1907,46.7943,-0.1831,0.5653,-0.1001,264.94
14:34:53:346,0.7784,1.5597,8.4168,46.5862,-0.4461,0.4173,-0.165,264.8
14:34:53:366,1.1822,1.759,9.8225,46.6522,-0.4802,0.1661,-0.3332,264.7
14:34:53:386,1.089,1.6999,10.4425,46.6662,-0.2726,0.0852,-0.5302,264.75
14:34:53:407,0.4582,1.8301,10.4696,46.4884,-0.1586,0.1043,-0.5941,265.17
14:34:53:425,-0.1505,1.8634,10.6456,46.3475,-0.3364,0.1246,-0.4578,265.85
14:34:53:445,-0.1251,1.4659,11.8911,45.8926,-0.5877,0.0245,-0.2811,266.51
14:34:53:466,0.6998,1.4398,13.5484,45.4102,-0.4408,-0.296,-0.3077,266.92
14:34:53:485,1.3938,1.8901,13.2137,45.2302,0.0671,-0.4642,-0.4695,267.23
14:34:53:507,0.862,1.4691,11.5145,45.0967,0.1001,0.0543,-0.4333,267.81
14:34:53:526,-0.2361,-0.3594,12.396,44.9775,-0.2768,0.5877,-0.1757,268.55
14:34:53:546,0.1793,-1.0343,14.4626,44.9359,-0.0681,0.3705,0.0362,268.88
14:34:53:566,1.1845,-1.5778,13.5904,44.543,0.5888,0.0075,0.0085,269.05
14:34:53:586,1.6381,-1.7458,10.9189,44.6132,0.8762,0.0745,-0.2065,269.41
14:34:53:607,1.2777,-1.5317,9.2695,43.9649,0.6281,0.2885,-0.3694,269.73
14:34:53:626,0.655,-1.1341,9.0222,44.2011,0.1448,0.2662,-0.3237,269.9
14:34:53:646,0.4194,-1.046,9.1837,44.0292,-0.1395,-0.0298,-0.1565,270.02
14:34:53:671,0.7343,-1.1842,8.973,43.6519,-0.1097,-0.3279,-0.049,270.15
14:34:53:695,1.1052,-0.9887,8.0328,43.5685,0.0735,-0.5259,-0.0756,270.3
14:34:53:706,1.2461,-0.4717,6.9137,43.6272,0.1831,-0.5419,-0.2246,270.46
14:34:53:725,1.2312,0.4043,6.2865,43.485,0.2108,-0.477,-0.4035,270.66
14:34:53:746,0.9451,1.2392,5.8939,43.4229,0.2694,-0.3386,-0.4929,270.94
14:34:53:817,0.5428,1.5617,5.4627,43.4251,0.3109,-0.0884,-0.4418,271.4
14:34:53:819,0.2005,1.6721,5.1426,43.6838,0.1299,0.2374,-0.2747,272.03
14:34:53:821,0.2249,1.5511,5.8583,43.7754,-0.3141,0.5675,-0.1331,272.54
14:34:53:844,0.2501,1.3536,7.65,43.7856,-0.6175,0.7399,-0.0756,272.68
14:34:53:845,0.1008,1.0714,9.3392,43.8908,-0.6665,0.6132,-0.0852,272.57
14:34:53:866,-0.2239,0.894,10.5996,43.4231,-0.5057,0.2981,-0.0788,272.53
14:34:53:893,-0.4691,0.8446,10.7877,43.1761,-0.2268,-0.0213,-0.0032,272.63
14:34:53:905,-0.333,0.967,10.3881,42.8473,-0.0554,-0.0628,0.115,272.87
14:34:53:925,0.0567,1.1771,10.2991,42.6374,0.0192,0.0681,0.2119,273.04
14:34:53:946,0.314,1.3622,10.4546,42.5867,0.0011,0.1938,0.2726,273.03
14:34:53:965,0.4033,1.5212,10.8478,42.4268,-0.1011,0.2811,0.329,272.84
14:34:53:986,0.4853,1.7527,11.6776,42.56,-0.2651,0.2906,0.3673,272.51
14:34:54:005,0.5992,2.112,12.3735,42.2396,-0.329,0.1459,0.3939,272.06
14:34:54:026,0.4764,2.1468,12.2052,42.3868,-0.4983,0.0948,0.4429,271.57
14:34:54:046,-0.7071,0.25,12.3766,42.1525,-1.0114,0.28,0.5675,271.1
14:34:54:066,-1.0005,-1.154,14.5743,42.1648,-1.251,0.0511,0.6856,270.39
14:34:54:087,-0.1856,-1.9633,15.3609,41.7404,-0.5579,-0.4152,0.643,269.48
14:34:54:106,0.3819,-2.5553,13.1966,41.7424,0.28,-0.3929,0.3875,268.89
14:34:54:126,0.2269,-2.5407,11.003,41.6465,0.5696,0.1672,0.1043,268.65
14:34:54:147,-0.7656,-1.9876,10.5473,41.6382,0.5078,0.544,-0.0958,268.45
14:34:54:174,-1.6889,-1.3736,10.3627,41.8115,0.4599,0.2747,-0.0756,268.29
14:34:54:188,-1.5673,-0.6055,9.238,42.008,0.4216,-0.2012,0.0437,268.33
14:34:54:205,-0.9674,0.2041,7.9233,42.0029,0.3748,-0.4205,0.181,268.45
14:34:54:225,-0.3027,0.6863,6.7862,42.1239,0.3354,-0.3396,0.3449,268.41
14:34:54:246,0.3024,0.901,6.1948,42.3217,0.2449,-0.1118,0.4418,268.22
14:34:54:269,0.6655,0.8919,6.2351,42.1724,0.1725,0.1299,0.4322,267.82
14:34:54:285,0.589,0.7877,6.4745,41.9744,0.083,0.1884,0.3684,267.27
14:34:54:305,0.4764,0.9049,6.8559,42.0536,-0.033,0.0437,0.2821,266.72
14:34:54:326,0.3658,0.8269,7.2141,41.9402,-0.1235,-0.1203,0.2332,266.21
14:34:54:346,0.1558,0.6904,7.585,42.0501,-0.1214,-0.2097,0.1906,265.81
14:34:54:367,0.0584,0.5655,7.7733,42.1263,-0.082,-0.1618,0.1576,265.51
14:34:54:385,0.1501,0.6973,8.1488,41.8885,-0.0628,-0.0245,0.1139,265.3
14:34:54:405,0.3417,0.9918,8.942,41.7325,-0.0532,0.0905,0.0596,265.13
14:34:54:426,0.5144,1.2895,9.7318,41.774,0.066,0.0713,-0.0426,264.98
14:34:54:447,0.7036,1.9593,9.8305,41.4269,0.1373,0.0213,-0.1714,264.93
14:34:54:470,0.5546,2.5016,9.9638,41.3609,-0.05,0.0713,-0.2587,265.04
14:34:54:486,0.1678,2.4506,11.1339,41.4926,-0.4621,0.1895,-0.2374,265.17
14:34:54:505,-0.2059,1.9274,13.3661,41.7033,-0.6505,0.0383,-0.1735,265.25
14:34:54:526,-0.0591,1.4946,14.9507,41.5478,-0.4014,-0.3897,-0.1906,265.32
14:34:54:546,0.6485,2.0447,14.8554,41.7831,0.1831,-0.5653,-0.3226,265.56
14:34:54:565,0.3272,2.5821,13.2133,41.7111,0.5675,0.0287,-0.2906,266.05
14:34:54:585,-1.3653,0.2328,12.9526,41.7317,0.28,0.7676,0.0639,266.72
14:34:54:605,-1.2257,-1.1308,14.8803,41.4357,0.3098,0.4759,0.3833,267.08
14:34:54:626,0.1654,-1.6202,13.8228,41.5142,0.9614,-0.2183,0.3758,266.94
14:34:54:649,1.1402,-1.476,10.6004,41.6056,1.3947,-0.3811,0.099,266.88
14:34:54:669,1.2407,-0.5114,8.0831,41.4598,1.3606,-0.0128,-0.1363,266.82
14:34:54:685,0.5907,0.1695,6.8195,41.3683,0.9284,0.4141,-0.0905,266.75
14:34:54:705,0.1172,0.5034,6.8752,41.1289,0.3854,0.4237,0.1001,266.69
14:34:54:726,0.217,0.3548,7.1844,41.0227,0.0181,0.1022,0.3024,266.46
14:34:54:748,0.5983,0.0289,7.1172,40.7757,-0.164,-0.3077,0.3556,266.08
14:34:54:769,0.9535,-0.0883,6.7136,40.9459,-0.2385,-0.6505,0.2513,265.62
14:34:54:786,1.2357,0.2506,6.3669,40.9562,-0.2108,-0.8017,0.0958,265.19
14:34:54:806,1.405,0.8189,6.0396,41.1193,-0.0756,-0.7644,-0.017,264.92
14:34:54:827,1.497,1.1472,5.6364,41.3708,0.0788,-0.5621,-0.0639,264.9
14:34:54:847,1.593,1.3505,5.2298,41.2107,0.0809,-0.1799,-0.0873,265.06
14:34:54:866,1.673,1.4962,5.4348,40.8862,-0.2332,0.2246,-0.1278,265.25
14:34:54:886,1.2918,1.218,6.9884,40.9795,-0.6952,0.4908,-0.1852,265.24
14:34:54:905,0.7593,1.0063,9.0628,40.5751,-0.9603,0.3907,-0.1842,265.06
14:34:54:926,0.5262,1.2091,11.0799,40.3716,-0.8709,0.0415,-0.0969,264.97
14:34:54:946,0.6764,1.2248,11.8493,40.5198,-0.4748,-0.2353,0.0202,265.11
14:34:54:965,1.0258,1.0481,11.4518,40.4302,-0.1192,-0.1874,0.0841,265.44
14:34:54:985,1.3322,1.073,11.3893,40.2631,0.0681,0.0309,0.0894,265.73
14:34:55:005,1.3066,1.2087,11.5257,40.1433,0.1033,0.099,0.0596,265.81
14:34:55:029,1.3592,1.5519,11.7708,40.1718,0.016,0.0128,-0.0021,265.77
14:34:55:046,1.2055,1.8707,12.0755,39.7944,-0.066,-0.0735,-0.0671,265.68
14:34:55:065,0.9513,1.8658,12.6149,39.3308,-0.0383,-0.1065,-0.0873,265.61
14:34:55:085,0.9602,2.0678,12.6869,39.1282,0.1703,-0.1703,-0.0713,265.65
14:34:55:105,0.8259,2.1078,11.8785,39.1883,0.2704,-0.0383,-0.0266,265.83
14:34:55:128,-0.0807,0.6774,11.4876,39.3363,0.049,0.0554,0.0735,266.07
14:34:55:146,-0.0415,0.0555,12.2892,39.5095,0.1107,-0.2587,0.1373,266.05
14:34:55:165,0.4611,-0.2551,11.0309,39.4687,0.5057,-0.3769,0.1544,265.89
14:34:55:185,0.5848,-0.4242,9.3164,39.526,0.5345,-0.0138,0.1022,265.97
14:34:55:205,-0.091,-0.8568,8.8747,39.0462,0.0724,0.3822,0.0809,265.98
14:34:55:227,-0.7602,-0.8976,9.8279,38.6622,-0.4322,0.2672,0.1363,265.68
14:34:55:246,-0.9502,-1.0521,10.0551,38.4323,-0.7133,-0.296,0.2449,265.2
14:34:55:266,-0.3063,-0.7448,9.3341,38.0034,-0.7538,-0.7229,0.2832,264.81
14:34:55:286,0.4013,-0.0794,8.3894,37.8183,-0.5685,-0.7655,0.2289,264.5
14:34:55:314,0.7756,0.5769,7.262,37.9998,-0.2513,-0.5164,0.1714,264.25
14:34:55:326,0.8961,0.8416,6.3473,37.9116,0.0426,-0.0479,0.1767,264.15
14:34:55:346,0.9324,0.9372,5.6512,37.8592,0.1714,0.3577,0.1991,264.13
14:34:55:366,1.0949,1.132,5.6815,37.8164,0.0692,0.6026,0.1682,264.06
14:34:55:386,0.9737,1.1478,6.4018,37.8742,-0.0916,0.6143,0.1235,263.82
14:34:55:408,0.7301,1.0726,7.2903,37.7704,-0.1767,0.4184,0.1405,263.51
14:34:55:425,0.7375,0.9046,7.9396,37.4393,-0.2364,0.1618,0.2044,263.28
14:34:55:446,1.1235,0.6904,8.3285,37.3154,-0.3141,0.0649,0.198,263.11
14:34:55:466,1.2538,0.449,9.04,36.9062,-0.378,0.1522,0.1363,262.88
14:34:55:486,1.4996,0.3876,10.1054,36.394,-0.4322,0.2651,0.0075,262.6
14:34:55:512,1.5008,0.7638,11.2929,36.24,-0.3343,0.2715,-0.197,262.38
14:34:55:525,1.2703,1.0364,11.8874,35.9366,-0.1906,0.2065,-0.3279,262.34
14:34:55:546,1.0763,1.3485,12.4139,35.8385,-0.116,0.198,-0.3971,262.61
14:34:55:566,0.8181,1.4316,13.3696,35.8749,-0.1139,0.1001,-0.4344,263.03
14:34:55:586,0.8637,1.4637,14.2442,35.7894,0.0777,-0.247,-0.4961,263.52
14:34:55:607,1.3314,1.9368,13.5759,35.6397,0.544,-0.4408,-0.5355,264.08
14:34:55:626,1.1872,1.8388,11.9841,35.4639,0.7229,0.033,-0.4844,264.86
14:34:55:646,0.1677,0.8438,12.1036,35.3785,0.4716,0.5951,-0.2332,265.7
14:34:55:666,0.0941,-0.3564,13.6123,35.4441,0.3865,0.4205,0.082,266.22
14:34:55:686,1.04,-1.2035,12.7875,35.2217,0.6047,-0.0596,0.1735,266.39
14:34:55:707,1.8013,-1.3372,10.9652,35.166,0.5611,-0.1416,-0.0011,266.48
14:34:55:725,1.4261,-1.1793,10.1373,34.8614,0.2055,0.0266,-0.1735,266.39
14:34:55:746,0.824,-0.6753,10.4669,34.7217,-0.1065,-0.0319,-0.1597,266.19
14:34:55:766,0.6444,-0.5801,10.3704,34.4361,-0.1373,-0.3173,-0.0256,266.11
14:34:55:794,0.8424,-0.7976,9.4333,34.2759,-0.0085,-0.5568,0.0511,266.21
14:34:55:807,1.122,-0.9218,8.301,34.2004,0.1938,-0.6164,0.0021,266.35
14:34:55:876,1.3636,-0.7206,7.0952,34.1479,0.3811,-0.527,-0.1469,266.43
14:34:55:878,1.3651,-0.1383,6.2992,34.0711,0.4738,-0.4344,-0.33,266.57
14:34:55:879,1.0571,0.4158,5.6868,34.2209,0.5089,-0.4259,-0.4472,266.8
14:34:55:901,0.7894,0.733,5.3597,34.1865,0.4716,-0.3726,-0.4482,267.2
14:34:55:905,0.7864,1.0373,5.2815,34.4151,0.4014,-0.1661,-0.3375,267.72
14:34:55:926,0.7964,1.0791,5.3954,34.4289,0.2385,0.2119,-0.1831,268.23
14:34:55:946,0.9831,1.1987,6.31,34.2747,-0.0522,0.4961,-0.0394,268.6
14:34:55:966,0.976,1.0364,7.6,34.1487,-0.2928,0.4535,0.0298,268.67
14:34:55:988,0.9456,1.0466,8.9725,34.1489,-0.4141,0.2342,0.066,268.52
14:34:56:006,0.7728,1.2276,9.9472,33.7794,-0.3407,-0.0767,0.148,268.34
14:34:56:026,0.9218,1.309,9.9697,33.8459,-0.2598,-0.2385,0.2992,268.24
14:34:56:046,1.3248,1.3038,9.9778,33.6445,-0.2853,-0.1214,0.4152,268.18
14:34:56:066,1.7448,1.3372,10.5084,33.6444,-0.3716,0.0628,0.412,267.91
14:34:56:087,1.962,1.5375,11.4665,33.8643,-0.412,0.0852,0.2992,267.42
14:34:56:105,1.9278,1.8345,12.2545,34.0639,-0.3396,0.0351,0.1331,266.88
14:34:56:125,1.5075,1.6763,12.7082,33.884,-0.1682,-0.0522,0.0192,266.52
14:34:56:146,1.504,2.1137,12.8568,34.0538,0.0958,-0.1395,-0.0213,266.42
14:34:56:174,1.2205,2.4247,12.1361,34.0969,0.2268,0.0064,0.0032,266.52
14:34:56:186,0.0107,1.105,11.7715,33.7843,-0.1405,0.2044,0.2119,266.7
14:34:56:206,-0.1233,-0.059,13.44,33.7321,-0.3897,0.0149,0.4291,266.64
14:34:56:226,0.5403,-0.9462,13.6764,33.7077,-0.0351,-0.3098,0.4663,266.16
14:34:56:246,1.0493,-1.4454,12.2077,33.4558,0.3354,-0.2065,0.3109,265.79
14:34:56:269,0.6459,-1.6142,11.0645,33.4244,0.33,0.131,0.1214,265.58
14:34:56:285,0.031,-1.0649,11.0533,33.539,0.1714,0.1672,0.0788,265.26
14:34:56:305,-0.2776,-0.7846,10.5759,33.6892,0.0777,-0.1299,0.1608,264.98
14:34:56:326,0.1199,-0.271,9.5517,33.9606,0.1139,-0.4259,0.2246,264.81
14:34:56:346,0.7839,0.4475,8.3415,33.7748,0.3024,-0.5696,0.1757,264.65
14:34:56:373,1.1023,1.1254,6.8913,34.0208,0.4993,-0.478,0.0969,264.5
14:34:56:386,1.0672,1.3754,5.7889,34.0416,0.6111,-0.2417,0.0767,264.45
14:34:56:405,1.0465,1.4321,5.1401,34.003,0.5994,0.0511,0.0894,264.45
14:34:56:426,1.1179,1.6048,5.0348,34.0733,0.4674,0.3024,0.082,264.4
14:34:56:446,1.2478,1.8435,5.5039,34.131,0.2843,0.3492,0.0713,264.24
14:34:56:466,1.1905,1.9019,6.1489,34.0678,0.1278,0.2651,0.0671,264
14:34:56:485,1.0104,1.9606,6.714,33.9966,0.0075,0.1842,0.0948,263.76
14:34:56:505,0.9993,1.9074,7.3692,33.7936,-0.1416,0.1554,0.1107,263.58
14:34:56:525,1.0569,1.6725,8.0934,33.6316,-0.2789,0.1757,0.1246,263.38
14:34:56:546,1.2816,1.5167,8.8462,33.8298,-0.3822,0.2236,0.0777,263.15
14:34:56:566,1.4248,1.7662,9.7414,33.5145,-0.4386,0.2619,0.0053,262.92
14:34:56:586,1.2642,2.1048,10.6338,33.2724,-0.51,0.2364,-0.0447,262.74
