Time,Acc_X,Acc_Y,Acc_Z,Meg,Gyr_X,Gyr_Y,Gyr_Z,Ore
17:03:54:937,-0.3493,1.6893,9.8489,59.706,-0.0099,0.162,-0.0575,198.7607
17:03:54:962,-0.3493,1.6893,9.8489,59.5077,0.2101,0.4478,-0.11,188.6774
17:03:54:979,-0.3493,1.6893,9.8489,61.0308,0.2101,0.4478,-0.11,188.9738
17:03:54:996,-0.0742,2.0746,8.7123,59.853,0.2101,0.4478,-0.11,189.9629
17:03:55:016,-0.2249,2.2038,9.0856,60.5825,-0.0783,0.0215,-0.044,190.3156
17:03:55:038,-0.3876,2.0865,9.8273,60.2897,-0.1858,0.1339,-0.0147,190.2966
17:03:55:054,-0.414,1.919,10.4231,59.108,-0.2212,0.1559,0.0171,190.2227
17:03:55:073,-0.2106,1.7946,10.538,59.1464,-0.1796,0.096,0.0256,190.3685
17:03:55:103,-0.067,1.6869,10.3968,59.6446,-0.0892,0.0471,0.0134,190.5987
17:03:55:112,-0.0814,1.6989,10.1121,60.2239,-0.0025,0.0142,-0.0269,190.8209
17:03:55:132,-0.1651,1.8138,9.8249,61.0975,0.05,-0.0103,-0.0721,190.9908
17:03:55:150,-0.2297,1.8879,9.7268,60.9776,0.0903,0.0117,-0.0868,191.1381
17:03:55:170,-0.2513,1.8544,9.7507,59.6423,0.127,0.074,-0.0697,191.2053
17:03:55:189,-0.2417,1.7563,9.746,59.8678,0.1392,0.0972,-0.0501,191.2237
17:03:55:210,-0.2776,1.663,9.7436,60.7287,0.1196,0.0691,-0.0477,191.2459
17:03:55:230,-0.3541,1.5816,9.7627,60.5825,0.0867,0.0374,-0.0526,191.2576
17:03:55:252,-0.3135,1.6223,9.7173,59.6318,0.0635,-0.009,-0.0697,191.2901
17:03:55:269,-0.268,1.6558,9.3583,59.7775,0.0671,-0.0506,-0.0868,191.3713
17:03:55:289,-0.3685,1.7348,9.1478,59.5722,0.0671,-0.0372,-0.0904,191.4283
17:03:55:309,-0.4116,1.7109,9.3655,60.6715,0.0293,0.0264,-0.077,191.4377
17:03:55:345,-0.4546,1.6152,9.7292,59.706,-0.0123,0.0752,-0.0623,191.4339
17:03:55:351,-0.4977,1.596,9.7747,60.3727,-0.005,0.0544,-0.0562,191.3885
17:03:55:375,-0.4834,1.6534,9.6574,58.0508,0.039,0.0252,-0.0562,191.4033
17:03:55:391,-0.5001,1.6606,9.5569,60.6563,0.0622,0.0239,-0.0489,191.4156
17:03:55:409,-0.4451,1.6822,9.5665,60.8879,0.0488,0.03,-0.0428,191.3916
17:03:55:438,-0.4164,1.6295,9.4182,60.1187,0.0293,0.0264,-0.044,191.4007
17:03:55:459,-0.3111,1.6271,9.4229,58.8328,0.0024,0.0215,-0.055,191.4808
17:03:55:469,-0.3135,1.6606,9.3823,61.3157,-0.0331,0.0215,-0.0843,191.5764
17:03:55:492,-0.4331,1.7994,9.2459,60.4529,-0.0318,0.0227,-0.1161,191.6691
17:03:55:524,-0.5958,1.9262,8.9874,60.2152,0.0011,0.0593,-0.1271,191.7493
17:03:55:531,-0.7298,2.0219,8.7817,60.6379,0.0109,0.1033,-0.1173,191.8112
17:03:55:563,-0.9643,2.01,8.9492,60.1315,-0.0221,0.1852,-0.0917,191.7677
17:03:55:572,-1.2443,2.0148,9.1358,59.6993,-0.0563,0.2402,-0.0599,191.6177
17:03:55:589,-1.6199,1.9286,9.2674,60.3727,-0.0599,0.2658,-0.0196,191.3672
17:03:55:624,-2.1152,1.3591,9.0138,61.4076,-0.0172,0.1461,0.0537,190.6494
17:03:55:634,-2.4526,1.1151,8.8798,59.5091,-0.0392,0.03,0.0574,190.216
17:03:55:660,-2.8331,1.3256,8.6213,59.6991,-0.0514,-0.0421,0.0586,189.7346
17:03:55:669,-2.991,1.4596,8.1715,59.9573,-0.0294,-0.1031,0.1099,189.2189
17:03:55:695,-2.6776,1.4883,7.8341,59.2757,-0.0306,-0.1373,0.2235,188.6429
17:03:55:719,-2.266,1.4453,7.7982,61.0927,-0.11,-0.2045,0.3176,188.0401
17:03:55:736,-1.9286,1.4572,8.0614,60.5245,-0.2847,-0.2754,0.3579,187.4552
17:03:55:749,-1.5577,1.5577,8.4203,62.2737,-0.5669,-0.2668,0.3933,186.9095
17:03:55:768,-1.1533,1.4094,9.8943,60.6715,-0.9286,-0.1044,0.4666,186.3244
17:03:55:789,-0.7202,1.7085,12.079,59.9786,-1.223,0.0801,0.5057,185.8274
17:03:55:810,-0.6293,2.1583,12.9954,59.3348,-1.1912,0.0117,0.4813,185.3802
17:03:55:833,-0.5288,2.7685,12.414,60.2849,-0.793,-0.1129,0.4556,184.9494
17:03:55:850,-0.3159,3.216,10.2915,60.7083,-0.2676,-0.1996,0.4654,184.5085
17:03:55:870,-0.2273,3.539,8.6716,59.7128,0.0293,-0.0848,0.4972,184.0088
17:03:55:890,-0.4666,3.6227,8.4634,61.6692,0.006,0.1779,0.5289,183.3831
17:03:55:909,-0.7968,3.4146,9.0018,60.1891,-0.1454,0.3477,0.5742,182.6759
17:03:55:931,-0.8806,2.9575,9.7029,60.7181,-0.2554,0.3526,0.6255,181.8974
17:03:55:950,-0.9069,2.6225,10.0068,59.3027,-0.2187,0.2731,0.6572,181.1089
17:03:55:971,-0.9236,2.3139,9.7101,61.166,-0.077,0.162,0.6743,180.3185
17:03:55:990,-1.0146,1.7874,9.7555,61.6373,0.0195,0.1009,0.6756,179.4881
17:03:56:016,-1.3448,1.2491,10.0403,60.6633,0.0219,-0.003,0.6255,178.7147
17:03:56:031,-1.7515,1.2275,10.1336,61.6339,-0.0428,-0.3707,0.485,178.0795
17:03:56:051,-1.2347,1.4979,9.332,61.2419,-0.0758,-0.7983,0.3188,177.7024
17:03:56:074,-1.2945,2.9145,7.3364,61.145,0.1465,-0.4305,0.2638,177.0078
17:03:56:088,-1.3304,3.1154,6.5635,61.6994,0.4642,0.1326,0.5253,176.2365
17:03:56:113,-1.0935,2.388,7.6307,60.2318,0.4471,0.6018,0.7892,175.1476
17:03:56:133,-0.6461,2.0889,8.5831,61.7336,0.1905,0.636,0.8332,174.0856
17:03:56:152,-0.1436,2.1799,8.6572,60.3099,0.0146,0.3819,0.7611,173.2027
17:03:56:171,-0.0479,2.1942,8.2002,60.8663,-0.055,0.3318,0.6719,172.4302
17:03:56:194,-0.7944,2.3952,7.7121,62.4438,-0.1613,0.5566,0.6365,171.5559
17:03:56:215,-0.7609,2.01,10.4518,61.8981,-0.4423,1.0331,0.755,170.5284
17:03:56:231,0.4666,0.4977,13.2227,62.4327,-0.4753,1.6195,0.9346,169.5066
17:03:56:253,1.0816,-0.1699,13.4477,62.3841,-0.1601,1.534,0.7953,168.795
17:03:56:269,1.084,0.7585,11.4975,63.9576,-0.005,0.3904,0.3249,168.7106
17:03:56:289,0.9882,1.5386,9.5043,63.5667,-0.2505,-0.6456,-0.0819,169.0999
17:03:56:309,1.6917,0.2776,9.6766,63.0366,-0.6268,-0.7971,-0.2138,169.7281
17:03:56:331,0.0239,0.9547,10.2676,63.2355,-0.7612,-0.51,-0.3739,170.2909
17:03:56:350,-0.0574,0.9571,11.3468,64.4329,-0.4875,0.2084,-0.3714,170.7785
17:03:56:370,0.6437,0.4642,11.7847,64.9704,-0.1161,0.7643,-0.1882,171.1325
17:03:56:389,1.1222,0.8638,10.1767,64.6934,0.0085,0.5444,-0.2371,171.5341
17:03:56:412,1.2467,-0.28,10.3131,61.7485,-0.3654,-0.4208,-0.468,172.3078
17:03:56:433,1.2562,1.5362,10.0738,63.3912,-1.0642,-1.8429,-0.8626,173.5204
17:03:56:452,0.3852,2.3354,13.4836,62.1793,-1.5663,-2.3926,-1.0043,174.73
17:03:56:473,-0.4618,3.1178,14.2995,63.9907,-1.3317,-2.2021,-0.9127,175.6511
17:03:56:489,1.0792,2.0411,12.0885,64.0838,-0.3104,-1.6596,-0.4154,176.1161
17:03:56:511,2.9934,0.8064,8.9444,60.781,0.5106,-1.1269,-0.0379,176.354
17:03:56:533,2.8522,1.2562,7.2239,63.9737,0.4178,-0.5405,-0.1967,177.1334
17:03:56:550,2.2971,0.9667,6.6975,63.8309,0.2186,-0.2803,-0.2627,177.5467
17:03:56:570,1.3567,0.7011,6.5755,64.2604,0.1563,0.289,-0.2884,177.8701
17:03:56:590,0.7777,0.5934,6.7454,64.3596,0.1746,1.0599,-0.2151,178.0231
17:03:56:614,0.2871,0.1484,7.9202,64.1874,0.1429,1.5938,-0.0355,177.9182
17:03:56:640,0.9332,-0.1603,9.2387,64.1019,0.028,1.5315,0.1698,177.6715
17:03:56:649,0.6006,-0.4905,9.679,64.5211,-0.0001,1.1003,0.2186,177.371
17:03:56:669,0.0574,-1.0193,9.0712,63.5412,-0.1027,0.3489,0.2113,177.0806
17:03:56:689,-0.3135,-1.0911,9.5665,64.3474,-0.2322,-0.1153,0.105,176.8884
17:03:56:709,-0.5647,-0.7849,10.1551,63.7888,-0.2359,-0.2082,-0.0452,176.856
17:03:56:730,-0.871,-0.7777,10.2485,64.6579,0.0366,-0.0543,-0.165,176.923
17:03:56:750,-1.7707,-1.017,9.9733,64.3979,0.4849,0.2768,-0.2309,176.9678
17:03:56:769,-3.1202,0.1005,9.6574,64.0252,1.003,0.6629,-0.1931,176.8314
17:03:56:789,-3.9099,0.6365,9.4277,65.5158,1.3658,0.8278,0.138,176.2262
17:03:56:811,-3.7232,0.6078,10.6026,64.2589,1.6236,0.6226,0.6157,175.1384
17:03:56:830,-1.9454,0.7011,11.7894,67.2768,1.7568,0.1436,0.8307,174.0314
17:03:56:850,-0.189,0.0263,12.9093,65.5644,1.7189,0.0142,0.2687,173.7174
17:03:56:869,-1.4237,-0.4307,10.1145,65.5644,1.488,-0.5845,-0.8711,174.6656
17:03:56:891,-2.0913,0.1388,8.1667,65.5644,1.086,-1.0988,-1.5015,176.3311
17:03:56:913,-3.0293,2.1129,8.4012,65.5644,0.5876,-0.8692,-1.4624,177.8129
17:03:56:931,-4.867,3.6084,10.7773,66.8655,0.05,-0.3646,-1.0654,178.6
17:03:57:051,-2.1559,3.1657,12.6772,66.0579,-0.4985,-0.0665,-0.1992,178.1332
17:03:57:052,0.8566,1.3424,14.5244,65.0115,-1.3782,-0.8667,0.8063,177.4551
17:03:57:052,1.6343,0.1412,12.4403,67.8563,-1.0569,-0.9889,0.9846,176.6963
17:03:57:053,1.5529,-0.134,9.8489,64.0882,-0.5181,-0.7702,0.689,176.1003
17:03:57:053,1.6487,0.402,7.6857,65.3582,-0.1393,-0.1141,0.2919,175.8129
17:03:57:054,1.0289,1.1964,6.7908,67.2708,0.0244,0.8131,-0.0013,175.694
17:03:57:070,0.2871,1.5506,7.066,65.8394,-0.0392,1.6671,-0.1027,175.5012
17:03:57:089,-0.2345,1.4668,7.2861,67.3848,-0.2529,2.0947,-0.0758,175.1827
17:03:57:111,-0.2297,1.5577,7.3436,64.7909,-0.5364,1.9933,-0.0795,174.9239
17:03:57:131,-0.5432,2.5125,7.4632,66.0469,-0.8076,1.6256,-0.1686,174.8216
17:03:57:152,-1.6008,3.941,7.748,65.9957,-0.9994,1.2798,-0.198,174.7506
17:03:57:171,-1.6128,4.1396,8.3103,65.6088,-1.0483,1.0257,0.0537,174.4764
17:03:57:189,-1.3424,3.3308,8.9324,66.653,-0.9408,0.7472,0.4276,173.8591
17:03:57:214,-1.0552,2.6417,9.3894,66.6438,-0.7294,0.432,0.6902,173.0125
17:03:57:233,-0.658,2.4837,9.7819,65.3508,-0.4668,0.1265,0.8234,172.0856
17:03:57:254,-0.4977,2.144,9.8728,65.8801,-0.1589,-0.0897,0.9003,171.0742
17:03:57:269,0.0479,1.7755,9.6574,66.9489,0.1404,-0.3059,0.9822,170.0315
17:03:57:288,0.055,1.2443,9.2052,66.0165,0.3603,-0.3792,0.9944,168.9965
17:03:57:308,0.5312,1.0217,8.9348,66.5705,0.4532,-0.3353,0.9431,168.0424
17:03:57:329,0.5336,0.7753,9.466,66.0465,0.4055,-0.1557,0.8185,167.2222
17:03:57:349,0.3589,0.5982,10.9041,65.9162,0.3347,0.1131,0.6365,166.5922
17:03:57:370,0.4116,0.5982,12.1986,67.9708,0.3041,0.278,0.4349,166.1564
17:03:57:393,0.3254,0.6796,13.2993,66.1346,0.2369,0.1852,0.2052,166.0176
17:03:57:414,-0.2345,0.7226,13.8999,66.6751,0.0977,-0.1166,0.0024,166.1006
17:03:57:434,-0.323,0.6772,13.7803,63.5407,0.0195,-0.411,-0.0819,166.5745
17:03:57:452,0.792,0.5838,13.3783,65.1856,0.0109,-0.2998,-0.2456,167.0483
17:03:57:470,0.9619,0.9547,14.1655,64.4234,0.0586,0.074,-0.507,167.7578
17:03:57:491,0.2273,1.0409,14.6919,65.1824,0.2944,0.4271,-0.8467,168.7355
17:03:57:517,-0.9978,0.8064,13.7085,66.0264,0.7,0.5065,-1.1118,169.8859
17:03:57:534,-1.6176,0.7322,11.4162,67.6174,0.9846,0.355,-1.2108,171.1026
17:03:57:552,-1.6152,0.95,10.4375,65.3278,0.9248,0.2707,-1.1656,172.291
17:03:57:571,-1.7611,1.1414,10.3849,66.2935,0.7061,0.3306,-1.0837,173.3602
17:03:57:589,-1.718,0.9978,9.789,66.7729,0.5863,0.3501,-0.9982,174.3381
17:03:57:609,-1.7324,0.9236,9.0162,63.9485,0.5509,0.2829,-0.9432,175.2418
17:03:57:632,-2.0004,0.859,8.3725,63.5127,0.5546,0.1974,-0.9359,176.1602
17:03:57:652,-2.3115,0.9858,8.138,63.6603,0.6022,0.0997,-0.931,177.0787
17:03:57:672,-2.4479,1.1605,7.4656,63.0215,0.711,-0.064,-0.9249,178.02
17:03:57:690,-2.3474,1.0935,6.0873,61.5346,0.8613,-0.2192,-0.8711,178.9196
17:03:57:712,-2.0028,0.7202,5.3001,63.2409,0.9187,-0.2815,-0.7538,179.7233
17:03:57:731,-1.7444,0.3398,4.9149,62.5252,0.8478,-0.312,-0.6646,180.4432
17:03:57:752,-1.7348,0.0885,4.4195,63.2697,0.7378,-0.3304,-0.6292,181.1309
17:03:57:769,-1.8592,0.2656,4.0152,60.9498,0.6548,-0.174,-0.5779,181.7176
17:03:57:792,-2.479,0.5216,4.4889,60.9999,0.5509,0.1913,-0.4582,182.0315
17:03:57:814,-2.79,0.6054,5.8887,61.2215,0.4251,0.6006,-0.2322,181.978
17:03:57:828,-3.0269,0.4211,7.7934,61.3612,0.3224,0.9023,0.0061,181.61
17:03:57:848,-3.3954,0.2249,9.9087,59.6549,0.2162,0.9989,0.16,181.0361
17:03:57:869,-3.1274,0.3135,11.2295,59.8948,0.0439,0.7875,0.2309,180.508
17:03:57:889,-2.7757,0.5073,10.9735,60.3115,-0.1845,0.2658,0.2773,180.1102
17:03:57:910,-2.1272,0.0287,11.1434,58.8992,-0.8003,-0.2864,0.5375,179.737
17:03:57:932,-2.0794,-0.2536,12.1388,58.0356,-0.9823,-0.1813,0.5265,178.8091
17:03:57:948,-2.4981,-0.682,12.8183,58.9157,-0.9347,0.0032,0.3494,178.4657
17:03:57:968,-2.6871,-1.1438,11.9115,58.9572,-0.7575,0.0544,0.1368,178.3115
17:03:57:989,-2.6584,-0.8734,10.7581,58.7618,-0.7453,-0.053,-0.0941,178.4288
17:03:58:011,-2.6632,-0.2632,10.3537,57.0323,-0.9225,-0.0433,-0.2945,178.7595
17:03:58:029,-2.4766,0.3733,11.1601,58.8863,-1.0752,0.2182,-0.3898,179.164
17:03:58:049,-2.3186,0.7585,12.6796,57.2447,-1.0862,0.6091,-0.446,179.5984
17:03:58:069,-2.1224,0.7992,13.7755,56.5694,-0.8919,0.8009,-0.54,180.1633
17:03:58:090,-2.4191,1.0696,13.0241,57.4589,-0.5498,0.6262,-0.7037,180.9295
17:03:58:114,-3.4074,1.407,11.3563,55.8854,-0.2505,0.3245,-0.8259,181.8271
17:03:58:132,-4.209,1.7348,10.337,57.2926,-0.1772,0.1387,-0.7844,182.642
17:03:58:151,-4.5559,2.2804,9.8441,56.6947,-0.2664,0.0752,-0.6255,183.2524
17:03:58:168,-4.0367,2.7637,10.1384,56.1358,-0.3922,0.0544,-0.3837,183.6268
17:03:58:188,-2.936,2.6488,9.7531,54.8483,-0.3763,-0.0323,-0.088,183.7095
17:03:58:208,-1.8736,2.2612,8.8176,53.7851,-0.2236,-0.2143,0.1637,183.5298
17:03:58:230,-1.4692,1.8066,7.7791,54.1023,-0.0306,-0.4037,0.2785,183.2377
17:03:58:248,-1.4764,1.608,6.5707,54.9532,0.1807,-0.5258,0.2895,182.9198
17:03:58:270,-1.6941,1.541,5.4628,54.4581,0.3469,-0.5295,0.2968,182.603
17:03:58:288,-1.8664,1.5099,4.946,54.3145,0.397,-0.4183,0.3677,182.1854
17:03:58:311,-1.8305,1.3089,4.934,50.8888,0.3115,-0.2681,0.5033,181.612
17:03:58:336,-1.6247,1.1055,6.1376,52.848,0.0769,-0.1263,0.6572,180.0759
17:03:58:351,-1.2897,0.9547,7.6044,52.2109,-0.1809,-0.1263,0.733,179.3956
17:03:58:369,-1.6678,2.4957,10.1647,52.2014,-0.2982,-0.5136,0.3579,179.0607
17:03:58:390,-3.6012,3.7208,10.3322,52.828,0.1673,-0.571,-0.0257,179.0872
17:03:58:413,-5.0297,4.3119,8.7745,51.3568,0.8673,-0.4697,-0.198,179.2156
17:03:58:430,-5.1661,4.3645,6.7908,50.4281,1.2754,-0.3243,-0.0526,179.1628
17:03:58:448,-4.3406,3.9841,6.353,49.4853,1.1019,-0.1202,0.3091,178.7167
17:03:58:469,-2.1129,3.216,8.6812,48.2717,0.5326,0.1131,0.711,177.8845
17:03:58:488,-1.1581,2.6632,11.8205,48.4534,0.0476,0.2023,0.8784,176.9352
17:03:58:507,-0.2608,2.1392,12.8519,49.651,-0.1076,-0.0653,0.8234,176.1287
17:03:58:531,0.4522,1.6845,13.2826,49.1808,-0.1638,-0.3817,0.5998,175.6747
17:03:58:549,1.0576,1.651,15.4529,47.2322,-0.1687,-0.2094,0.2064,175.6532
17:03:58:570,1.1007,1.7515,17.4509,48.8611,0.1319,0.256,-0.3592,176.1989
17:03:58:588,0.0096,1.8018,17.1829,47.7759,0.7305,0.4698,-0.9542,177.307
17:03:58:609,-1.1342,1.5625,15.5964,46.363,1.1826,0.278,-1.3195,178.8143
17:03:58:629,-1.3519,1.2467,13.017,47.0875,1.3133,-0.2082,-1.3757,180.4337
17:03:58:648,-1.1844,1.2179,11.2893,46.9601,1.1667,-0.6138,-1.3195,182.0842
17:03:58:668,-1.0816,1.261,10.6528,45.8327,0.9651,-0.7152,-1.3048,183.7752
17:03:58:688,-1.0911,1.1677,9.722,46.8999,0.9199,-0.6761,-1.3268,185.4613
17:03:58:708,-1.1868,0.9739,8.4036,46.8788,0.9969,-0.5747,-1.3769,187.1526
17:03:58:731,-1.4477,0.8734,7.1019,45.7175,1.086,-0.4245,-1.449,188.8524
17:03:58:749,-1.742,0.9547,5.8768,46.8423,1.1215,-0.2522,-1.5138,190.5721
17:03:58:769,-2.0459,1.1055,5.1589,47.7102,1.0799,-0.0811,-1.5284,192.2205
17:03:58:790,-2.5986,1.3519,5.1829,47.0082,0.948,0.0374,-1.4734,193.7328
17:03:58:809,-2.7829,1.6223,5.5777,46.9817,0.7501,0.0044,-1.3134,195.1174
17:03:58:833,-3.2207,1.3974,5.4676,47.4713,0.4874,-0.3951,-0.7856,197.2292
17:03:58:856,-2.8546,1.206,5.0656,46.9263,0.4471,-0.488,-0.4081,197.8221
17:03:58:870,-2.7111,0.6891,4.8407,47.3194,0.3677,-0.4525,-0.0929,198.0696
17:03:58:888,-2.4742,0.2393,5.3025,49.1221,0.1514,-0.3939,0.1722,198.0019
17:03:58:909,-2.4837,-0.189,5.7212,46.1114,-0.1234,-0.2913,0.342,197.727
17:03:58:929,-2.8929,-0.3517,7.0493,47.7884,-0.3971,0.0716,0.3885,197.2697
17:03:58:949,-3.5892,-0.3541,9.3177,45.9285,-0.727,0.6592,0.3652,196.5952
17:03:58:967,-3.9386,-0.4618,12.2776,48.3489,-1.0373,1.2444,0.3665,195.733
17:03:58:988,-3.8046,-0.9571,14.4742,48.6599,-1.1106,1.523,0.4227,194.7763
17:03:59:008,-3.5773,-1.2993,14.7876,49.1849,-1.0336,1.3312,0.4263,193.9227
17:03:59:032,-4.3502,-1.1964,14.3665,50.0453,-0.9787,0.8315,0.287,193.3753
17:03:59:050,-5.5083,-0.9212,13.1366,48.4421,-0.9946,0.2793,0.1466,193.1364
17:03:59:119,-5.2331,-0.5288,11.1793,48.9883,-1.1289,-0.2229,0.1575,193.0125
17:03:59:120,-3.9625,0.3302,10.1288,49.24,-1.5138,-0.5869,0.2186,192.9179
17:03:59:120,-3.1466,0.926,11.2271,49.8677,-1.9377,-0.5784,0.2809,192.7641
17:03:59:127,-2.6704,1.3519,12.4618,49.2166,-2.0281,-0.4538,0.3457,192.5035
17:03:59:151,-2.9169,1.4261,12.7226,49.297,-1.7459,-0.4452,0.3848,192.1978
17:03:59:168,-3.2518,1.407,12.1436,50.3278,-1.2829,-0.5075,0.4349,191.7915
17:03:59:189,-3.5055,1.8018,9.8584,49.5255,-0.7868,-0.6004,0.5045,191.2551
17:03:59:209,-3.1944,2.2827,7.346,50.3278,-0.4631,-0.5833,0.6756,190.5186
17:03:59:229,-2.3426,2.266,6.2596,49.6726,-0.4264,-0.3194,0.9822,189.4496
17:03:59:254,-1.5864,1.6917,6.8698,50.6239,-0.5731,0.0471,1.3194,188.0009
17:03:59:269,-0.859,1.0935,7.4489,49.7647,-0.694,0.1803,1.565,186.3074
17:03:59:291,-0.5145,1.9358,8.2313,49.1431,-0.6451,-0.0872,1.4831,182.9362
17:03:59:309,-2.3234,2.8786,8.8319,50.7496,-0.2823,-0.1092,1.2681,181.5467
17:03:59:327,-3.1011,2.8786,7.2933,49.3188,0.2846,-0.1776,1.3536,179.9948
17:03:59:347,-1.0863,1.6845,4.3334,51.0091,0.6438,-0.3499,1.8423,177.9769
17:03:59:368,1.328,0.8686,4.3549,49.7891,0.3555,-0.422,2.2381,175.6216
17:03:59:389,1.3735,0.5408,6.8985,50.3694,-0.2249,-0.3487,2.1319,173.4171
17:03:59:407,-0.3087,1.2969,9.5378,51.7111,-0.4961,-0.3169,1.7666,171.5615
17:03:59:433,-1.5577,2.4526,10.4614,51.9588,-0.3617,-0.3585,1.4904,169.9598
17:03:59:449,-1.2514,2.9073,10.2365,51.0311,-0.0135,-0.3023,1.4343,168.4149
17:03:59:472,-1.2825,2.6656,10.3944,51.0061,0.2699,-0.075,1.3951,166.8903
17:03:59:489,-0.9643,2.065,10.5524,50.9793,0.3787,0.0752,1.2938,165.5004
17:03:59:509,0.1029,1.34,10.4973,52.8889,0.3054,-0.0078,1.1337,164.3394
17:03:59:529,1.1031,0.8686,10.2173,52.903,0.0952,-0.2021,0.8356,163.562
17:03:59:550,0.8542,0.6365,11.8851,53.8922,-0.1723,-0.2351,0.3897,163.2832
17:03:59:568,1.005,-0.2776,13.0289,55.3326,-0.3446,-0.1496,-0.0868,163.5405
17:03:59:588,2.0818,-1.3185,13.1055,54.3388,-0.4216,-0.097,-0.4716,164.2611
17:03:59:607,1.7013,-1.3185,14.7948,54.4418,-0.4839,0.1387,-0.909,165.4485
17:03:59:637,0.2632,-0.4666,16.8742,53.4078,-0.358,0.4979,-1.4673,167.1625
17:03:59:647,-1.4788,0.4881,16.2162,54.395,0.1258,0.5651,-1.978,169.3828
17:03:59:667,-2.412,1.0457,13.8999,53.0356,0.7122,0.4711,-2.1173,171.7382
17:03:59:688,-1.9717,0.5312,11.3324,54.3182,0.9419,0.2646,-1.8241,173.7826
17:03:59:709,-1.1653,-0.347,10.0451,54.8186,0.7305,0.0361,-1.438,175.4532
17:03:59:733,-0.804,-0.6724,10.0499,54.4874,0.3445,-0.0958,-1.267,178.5323
17:03:59:750,-0.7035,-0.1579,8.6333,55.2673,0.2027,-0.0653,-1.4893,180.2185
17:03:59:769,-0.6461,-0.268,7.8174,56.2181,0.3664,0.1033,-1.6286,182.0536
17:03:59:789,-0.481,-0.548,7.1115,52.9741,0.524,0.228,-1.7776,184.0239
17:03:59:808,-0.6796,-0.5886,6.1926,54.2298,0.6768,0.2634,-1.9841,186.2361
17:03:59:830,-1.194,-0.2704,5.4796,54.8473,0.7818,0.2866,-2.1833,188.6397
17:03:59:849,-2.2445,0.5384,5.7356,55.1592,0.7855,0.3587,-2.2859,191.115
17:03:59:869,-3.0054,1.2514,6.5587,55.2839,0.7782,0.4503,-2.1869,193.4512
17:03:59:888,-3.3428,1.7085,7.5111,54.863,0.8344,0.5114,-1.8986,195.4724
17:03:59:908,-3.2638,1.7396,7.6833,54.863,0.8942,0.3929,-1.5089,197.0587
17:03:59:933,-3.4169,1.4836,7.9442,55.2556,0.7989,0.0874,-1.1106,198.2269
17:03:59:948,-3.9075,1.4907,8.2863,54.1848,0.5644,-0.3011,-0.7783,199.0649
17:03:59:969,-4.989,1.5745,8.6859,53.0023,0.3994,-0.499,-0.5156,199.6334
17:03:59:990,-5.0441,1.2036,7.9226,53.5743,0.4434,-0.3854,-0.1772,199.7909
17:04:00:017,-3.3787,0.0048,7.1521,54.5168,0.5302,0.1375,0.2174,199.467
17:04:00:045,-2.4479,-0.8686,9.0186,54.391,0.4789,1.0172,0.3261,198.8812
17:04:00:053,-3.9817,-0.8949,10.8108,53.4165,0.4568,1.7111,0.105,198.3395
17:04:00:067,-4.9771,-0.6293,10.9807,53.453,0.3481,1.7282,0.0048,197.8927
17:04:00:086,-4.6205,-0.8829,11.4329,54.0144,-0.1613,1.2481,0.2211,197.3204
17:04:00:106,-3.6227,-1.6271,12.8399,53.5474,-0.8797,0.5492,0.485,196.6542
17:04:00:126,-2.6034,-2.3976,13.7611,54.0038,-1.311,-0.1166,0.5119,196.1306
17:04:00:147,-2.8187,-2.4479,13.2873,52.0721,-1.2328,-0.499,0.1417,196.089
17:04:00:169,-3.9482,-1.8257,12.0455,52.7232,-0.7966,-0.4477,-0.4423,196.6636
17:04:00:191,-6.3673,0.1675,11.3946,51.7565,-0.1002,0.4808,-0.997,198.654
17:04:00:212,-6.3027,1.0217,11.5741,52.0311,-0.0746,0.6531,-0.7563,199.4208
17:04:00:232,-5.4197,1.0696,10.8227,52.3084,-0.198,0.3232,-0.2517,199.6307
17:04:00:250,-4.4985,0.5456,9.8177,52.85,-0.3849,-0.1776,0.3323,199.2342
17:04:00:268,-4.3454,0.4929,8.7912,52.344,-0.5657,-0.6199,0.722,198.3901
17:04:00:288,-3.9434,1.0074,7.5398,50.3085,-0.738,-0.9473,0.959,197.2921
17:04:00:307,-3.1346,1.3735,6.8602,50.9374,-0.8614,-1.0378,1.1716,195.9567
17:04:00:333,-2.0626,1.3926,6.597,50.8342,-0.8369,-0.8887,1.3622,194.4217
17:04:00:351,-1.3089,1.2323,6.3386,49.8636,-0.672,-0.6847,1.4587,192.7868
17:04:00:368,-0.5695,1.0122,5.9629,50.2758,-0.4863,-0.5833,1.4404,191.1805
17:04:00:388,-0.3398,1.2443,5.5729,50.5571,-0.3825,-0.6114,1.3096,189.7256
17:04:00:408,-0.6341,1.6726,5.3767,49.7894,-0.3287,-0.6419,1.1569,188.4343
17:04:00:429,-0.8734,1.9095,5.7523,49.8622,-0.2713,-0.5637,1.0885,187.2275
17:04:00:449,-0.8662,1.9621,6.3147,50.0999,-0.1821,-0.4403,1.0824,186.0237
17:04:00:469,-0.859,1.9214,6.9033,48.6959,-0.0941,-0.3548,1.0629,184.8454
17:04:00:489,-1.0983,2.2038,7.9011,49.4244,-0.0648,-0.323,1.0091,183.7106
17:04:00:509,-1.4836,2.5819,8.9516,48.8611,-0.0844,-0.3597,0.9859,182.6093
17:04:00:532,-1.4285,2.6249,9.8919,47.3025,-0.1601,-0.5344,1.0531,181.4454
17:04:00:549,-0.9787,2.534,10.7414,47.0546,-0.3153,-0.8093,1.1655,180.1755
17:04:00:568,0.0838,2.0219,12.1053,48.3477,-0.5144,-1.039,1.2449,178.8625
17:04:00:588,0.7083,1.5242,14.1488,44.2137,-0.6134,-1.0707,1.152,177.6792
17:04:00:608,0.2656,1.5458,15.527,48.1441,-0.4142,-0.9193,0.8405,176.8308
17:04:00:631,-0.2752,1.2467,15.6969,45.1838,-0.0269,-0.78,0.5363,176.3195
17:04:00:648,0.3326,0.5264,12.5551,46.9565,0.3701,-1.0866,0.1808,175.9999
17:04:00:668,1.261,0.3781,11.9354,45.6369,0.2919,-1.1318,-0.0306,175.9834
17:04:00:690,1.7635,-0.0742,11.8086,45.8575,0.3738,-0.8166,-0.3299,176.4287
17:04:00:714,1.8784,-0.3183,11.5789,44.861,0.6584,-0.3255,-0.7025,177.2519
17:04:00:730,0.7035,-0.3829,11.3611,43.6313,0.948,0.1962,-1.0544,178.3849
17:04:00:753,-0.7896,-0.0239,10.8778,44.264,1.1031,0.5859,-1.2486,179.6344
17:04:00:771,-1.1007,0.6054,10.8084,43.9294,0.9663,0.7814,-1.2108,180.8179
17:04:00:787,-0.5527,0.9739,11.5167,42.1001,0.6523,0.8449,-1.0434,181.816
17:04:00:807,-0.1531,0.9954,11.9976,42.4076,0.4446,0.7594,-0.8992,182.6832
17:04:00:830,-0.0479,0.7657,11.3851,42.4076,0.4458,0.4943,-0.8614,183.5481
17:04:00:848,-0.2847,0.524,9.7436,42.4654,0.5974,0.1901,-0.9542,184.5448
17:04:00:868,-0.7729,0.4714,7.2263,42.6103,0.7928,-0.009,-1.1265,185.7499
17:04:00:887,-1.0935,0.6293,5.1517,43.1349,0.9174,0.0044,-1.2816,187.1165
17:04:00:908,-1.7731,1.1414,4.2018,42.3266,0.9394,0.2145,-1.3708,188.4938
17:04:00:932,-2.4167,1.8209,4.142,43.6146,0.8759,0.4381,-1.3036,189.7355
17:04:00:948,-2.4383,1.9167,4.6301,40.5587,0.7513,0.526,-1.0251,190.6489
17:04:00:968,-2.0148,1.4859,5.0417,40.772,0.6303,0.4576,-0.6598,191.1847
17:04:00:988,-1.2347,0.9715,5.6638,40.5286,0.5583,0.3587,-0.369,191.4591
17:04:01:008,-1.4859,0.6556,6.6855,41.5308,0.5265,0.3452,-0.2395,191.5889
17:04:01:029,-1.7922,0.6389,7.401,39.5631,0.4617,0.2487,-0.1833,191.6927
17:04:01:047,-1.8879,0.9643,8.1499,41.5358,0.2931,0.0728,-0.1332,191.7727
17:04:01:070,-1.5649,0.9236,9.3631,39.9145,0.1282,-0.0408,-0.0147,191.7737
17:04:01:088,-1.8042,0.3517,10.3298,40.4159,0.0317,-0.1044,0.1551,191.6123
17:04:01:112,-1.9406,-0.524,11.2295,41.239,-0.2762,-0.3804,0.3518,191.3384
17:04:01:132,-2.1224,-0.7298,11.7918,41.5547,-0.5462,-0.5026,0.3689,191.0647
17:04:01:217,-2.4359,-0.8423,11.7966,40.7216,-0.7514,-0.5967,0.386,190.4461
17:04:01:218,-2.7063,-0.9523,11.019,39.8511,-0.9457,-0.6932,0.4398,190.0745
17:04:01:218,-2.4096,-0.8327,10.325,40.1947,-1.2144,-0.7189,0.5228,189.6175
17:04:01:219,-1.6702,-0.4594,10.9328,38.0989,-1.5211,-0.4892,0.5913,189.0243
17:04:01:232,-1.1366,-0.2393,13.4548,41.4661,-1.6836,0.0374,0.6035,188.3449
17:04:01:252,-1.2873,-0.4355,15.5701,40.3935,-1.4979,0.5138,0.5216,187.6944
17:04:01:267,-1.8018,-0.2752,15.2542,38.1752,-1.0752,0.4246,0.3408,187.2502
17:04:01:286,-3.4672,0.3183,13.0457,38.9678,-0.6512,0.0019,0.1747,186.9842
17:04:01:307,-4.6373,1.1892,10.1288,39.4192,-0.4325,-0.2949,0.2418,186.6313
17:04:01:329,-4.6995,1.8592,7.87,41.2296,-0.4643,-0.2229,0.5424,185.9393
17:04:01:350,-3.7926,2.1727,7.3603,39.2756,-0.5987,0.1766,0.9529,184.768
17:04:01:369,-2.7374,2.0219,7.5302,40.1517,-0.6476,0.5737,1.3231,183.2235
17:04:01:388,-1.3256,1.5936,7.6211,40.048,-0.5816,0.6812,1.5845,181.3973
17:04:01:407,-0.3254,1.0361,7.4991,38.6813,-0.4924,0.4796,1.6346,179.5626
17:04:01:430,-0.2513,1.0863,6.7382,39.6194,-0.391,0.1107,1.4709,177.9325
17:04:01:448,-0.1507,1.462,6.0873,38.5627,-0.3067,-0.1838,1.2608,176.5439
17:04:01:468,0.189,1.6558,6.061,39.0067,-0.2102,-0.2351,1.1386,175.2991
17:04:01:488,0.6508,1.6606,6.2955,40.4966,-0.0721,-0.1728,1.0714,174.1411
17:04:01:508,0.792,1.5864,6.5324,41.0424,0.0464,-0.1385,0.9846,173.0844
17:04:01:530,0.7753,1.4764,7.267,39.6906,0.0867,-0.0836,0.8723,172.1396
17:04:01:548,0.3111,1.5816,8.1045,40.1649,0.0683,-0.0078,0.7305,171.3304
17:04:01:569,-0.2895,2.278,10.3825,39.7629,-0.0709,0.0789,0.5289,170.101
17:04:01:589,-0.1795,2.1703,11.2319,40.6494,-0.0844,0.0764,0.5241,169.5215
17:04:01:607,0.0144,2.1368,12.1771,40.0816,-0.0795,0.0215,0.496,168.9844
17:04:01:627,-0.1196,2.2899,13.4429,40.202,-0.1051,-0.0885,0.4288,168.5424
17:04:01:648,0.1531,2.0363,14.2014,38.5496,-0.1467,-0.3634,0.4068,168.1356
17:04:01:666,1.2754,1.1366,13.8879,39.5893,-0.176,-0.8166,0.4556,167.7096
17:04:01:687,2.0794,0.5216,12.6939,40.1642,-0.2383,-1.2625,0.4947,167.2811
17:04:01:706,1.9238,0.0909,12.6006,39.8814,-0.5572,-1.6107,0.452,166.8816
17:04:01:730,3.0389,-0.4953,13.5003,39.1246,-1.1399,-1.9052,0.3921,166.5397
17:04:01:748,5.872,-0.5743,14.3354,39.5533,-1.2523,-1.75,0.3078,166.3109
17:04:01:770,5.6471,-1.2634,15.2471,37.1821,-0.6183,-0.7091,-0.1723,166.6039
17:04:01:786,3.6132,-1.2658,14.5699,39.7374,0.2601,0.3416,-0.9481,167.7325
17:04:01:806,1.3687,-0.1866,12.548,39.6207,0.8026,0.6922,-1.5797,169.5109
17:04:01:827,-0.1627,0.9284,11.1673,40.4586,0.8527,0.6323,-1.7874,171.4551
17:04:01:847,-0.4905,1.3137,10.2437,41.7497,0.7183,0.4747,-1.6188,173.1945
17:04:01:868,-0.5719,1.1821,9.5354,38.0831,0.6254,0.366,-1.3659,174.6624
17:04:01:887,-0.6389,0.8183,8.8511,39.1234,0.667,0.3171,-1.2022,175.9662
17:04:01:905,-0.8734,0.3087,8.3294,41.1465,0.7855,0.2512,-1.1766,177.2158
17:04:01:927,-1.0098,0.1436,7.5182,38.5664,0.9394,0.0899,-1.2853,178.5917
17:04:01:947,-1.1605,0.3111,6.2022,40.2796,1.0995,-0.075,-1.4465,180.1582
17:04:01:968,-1.3208,0.5671,5.0536,39.557,1.2094,-0.1166,-1.5076,181.7806
17:04:01:987,-1.3807,0.5743,4.6349,39.1108,1.2033,-0.0359,-1.4136,183.3077
17:04:02:006,-1.3208,0.3015,4.3502,38.7958,1.1276,0.0813,-1.234,184.5974
17:04:02:033,-1.0241,-0.3637,5.0417,40.4575,0.8649,0.4918,-0.9444,186.5566
17:04:02:050,-0.9882,-0.2991,6.3769,39.973,0.6743,0.7936,-0.8907,187.3232
17:04:02:071,-0.9571,-0.1842,8.1667,38.3098,0.4849,1.0465,-0.854,187.989
17:04:02:087,-1.4237,-0.0407,9.454,39.1649,0.3603,1.1674,-0.8052,188.5699
17:04:02:106,-2.1057,-0.0048,9.9709,39.8279,0.2296,1.1222,-0.6793,189.0078
17:04:02:132,-2.7829,-0.1101,10.8969,38.2706,0.0085,1.0404,-0.4484,189.206
17:04:02:147,-3.0891,-0.5504,11.8086,38.0616,-0.2688,0.9292,-0.1454,189.1285
17:04:02:167,-3.1801,-1.3519,12.5623,38.2716,-0.5547,0.7166,0.1392,188.8183
17:04:02:187,-3.1896,-2.0243,13.194,37.7734,-0.8614,0.4527,0.331,188.3498
17:04:02:206,-3.1633,-2.2205,13.3137,38.3374,-1.1399,0.1326,0.4178,187.8775
17:04:02:229,-2.8953,-1.8257,13.3113,38.5036,-1.3623,-0.1276,0.4459,187.4191
17:04:02:250,-2.2875,-1.3831,13.6367,38.8913,-1.4808,-0.2412,0.4862,186.9524
17:04:02:266,-1.9501,-1.2347,13.8951,38.2489,-1.4038,-0.2534,0.5277,186.4442
17:04:02:291,-2.3976,-1.2682,13.407,37.626,-1.1473,-0.2534,0.5192,185.9194
17:04:02:306,-3.1418,-1.1653,11.9593,38.8755,-0.8711,-0.3133,0.4801,185.4067
17:04:02:327,-3.5581,-0.8231,10.3466,37.5713,-0.694,-0.3328,0.4508,184.9167
17:04:02:352,-3.6395,-0.3589,9.0784,39.0379,-0.6292,-0.2815,0.4666,184.378
17:04:02:371,-3.0054,0.0885,7.7527,38.1654,-0.6341,-0.2974,0.5338,183.7793
17:04:02:387,-1.9621,0.3637,6.7047,39.3569,-0.6842,-0.356,0.6157,183.107
17:04:02:406,-1.0935,0.6126,6.1448,38.0142,-0.7111,-0.3243,0.6621,182.3887
17:04:02:432,-0.4403,0.8853,5.7165,39.264,-0.6635,-0.218,0.6731,180.9976
17:04:02:449,-0.2321,1.2586,5.7069,39.264,-0.5449,-0.0469,0.6401,180.3781
17:04:02:467,-0.9117,2.2564,5.817,39.264,-0.2126,0.3183,0.6242,179.7111
17:04:02:487,-0.6915,2.3713,6.262,39.3482,-0.2041,0.2866,0.8026,178.8264
17:04:02:506,0.0455,2.5747,7.8963,39.3482,-0.2945,0.096,1.0299,177.7628
17:04:02:528,0.268,1.4285,7.9083,40.4172,-0.3763,-0.284,1.1862,176.5266
17:04:02:552,0.5001,2.7733,9.5928,38.8285,-0.3238,-0.5332,1.0714,175.4045
17:04:02:571,-0.9643,3.5318,12.1842,39.5163,-0.1638,-0.3658,1.0323,174.308
17:04:02:585,-1.6343,3.6347,12.5121,40.067,0.1539,-0.5686,1.1496,173.0491
17:04:02:605,0.7489,2.4718,12.4762,38.0193,0.2357,-1.1868,1.4672,171.5052
17:04:02:627,1.261,0.4618,12.9739,39.3338,0.1795,-1.458,1.4599,169.984
17:04:02:655,1.8497,0.2752,11.1577,39.4099,0.3273,-1.4678,1.0384,168.9637
17:04:02:666,0.6413,1.1988,13.3519,40.6845,0.3518,-1.1563,0.386,168.627
17:04:02:685,0.5384,2.8044,14.4,42.1505,0.6181,-0.6273,-0.1137,168.8361
17:04:02:705,-0.5049,1.9645,14.7398,42.7557,1.2314,-0.0494,-0.2383,169.1235
17:04:02:725,-0.2967,0.8877,13.6941,41.3481,1.6382,0.3587,-0.0795,169.2463
17:04:02:746,1.5601,-0.1866,13.8401,41.7571,1.5283,0.4723,0.0341,169.3107
17:04:02:765,2.5244,-0.2823,13.7898,42.3473,1.0042,0.1449,-0.3727,169.873
17:04:02:786,1.0409,0.3996,13.7061,43.0717,0.5607,-0.1385,-1.1277,171.2463
17:04:02:808,-0.2321,0.67,12.2513,43.6938,0.43,-0.356,-1.4942,173.0071
17:04:02:829,0.0239,0.4283,10.1551,45.0154,0.4911,-0.3365,-1.3366,174.615
17:04:02:845,0.7155,0.0407,8.8726,44.0553,0.4458,-0.1092,-1.1289,175.967
17:04:02:866,0.5504,0.0335,8.7147,46.8001,0.2088,0.1901,-1.1827,177.3468
17:04:02:887,0.146,0.3876,8.5663,47.0092,-0.0172,0.3269,-1.3647,178.882
17:04:02:905,-0.1603,0.7968,8.1835,45.9563,-0.0807,0.4002,-1.4612,180.5048
17:04:02:928,-0.5623,1.1103,8.0136,47.1044,-0.0269,0.4503,-1.4563,182.0897
17:04:02:948,-0.8614,1.2706,7.0612,48.5934,0.2785,0.2768,-1.2499,183.6194
17:04:02:965,-0.5958,1.0217,6.3936,48.4207,0.4398,0.1314,-1.0996,186.2034
17:04:02:986,-0.3972,0.6891,5.8337,49.4512,0.546,-0.0323,-0.9713,187.3546
17:04:03:006,-0.4498,0.4451,5.3384,49.1529,0.5741,-0.1642,-0.9017,188.4668
17:04:03:031,-0.8112,0.4355,5.001,49.0481,0.5314,-0.2668,-0.8675,189.5508
17:04:03:049,-0.9954,0.4738,5.4987,50.1409,0.4251,-0.2241,-0.7966,190.5397
17:04:03:067,-0.9954,-0.1699,7.7527,49.8924,0.32,-0.0213,-0.6964,191.3952
17:04:03:086,-1.072,-0.4714,9.4014,52.16,0.2528,-0.0164,-0.694,192.2327
17:04:03:105,-1.3807,0.055,9.4229,51.5099,0.1502,-0.2876,-0.8113,193.2781
17:04:03:132,-1.4381,0.6772,9.1214,52.3341,0.0121,-0.3902,-0.7551,194.2472
17:04:03:147,-1.6463,0.7537,9.8608,51.7777,-0.1296,-0.1141,-0.4325,194.8109
17:04:03:166,-1.541,-0.0383,11.1984,53.5299,-0.2334,0.2536,0.0061,194.8508
17:04:03:186,-1.1031,-0.9547,11.9761,53.4819,-0.3385,0.3648,0.3127,194.5422
17:04:03:206,-1.1366,-1.5721,12.4618,54.1873,-0.5071,0.2072,0.3762,194.1777
17:04:03:232,-1.7731,-1.5529,12.2513,55.0222,-0.7233,-0.0714,0.298,193.9527
17:04:03:293,-2.5149,-1.1557,11.653,54.1766,-0.9713,-0.2949,0.2626,193.7595
17:04:03:294,-2.4933,-0.4164,12.3135,53.9622,-1.2853,-0.2644,0.3909,193.4261
17:04:03:294,-1.8353,-0.134,13.8903,53.8336,-1.5309,-0.0726,0.6242,192.8273
17:04:03:305,-0.6174,-0.4235,14.9719,56.1968,-1.493,-0.0897,0.8332,192.0638
17:04:03:326,-0.3637,-0.7274,14.2397,54.3686,-1.1509,-0.4477,0.8735,191.2529
17:04:03:346,-1.3543,-0.8566,11.866,55.3491,-0.7221,-0.9205,0.7904,190.4923
17:04:03:368,-2.3904,-0.8877,9.4564,53.6975,-0.4655,-1.1428,0.7562,189.7276
17:04:03:387,-2.6225,-0.6485,8.2122,54.8243,-0.4765,-1.028,0.8087,188.8878
17:04:03:406,-0.7657,0.3685,7.6881,56.6643,-0.6757,-0.3133,1.1154,186.6508
17:04:03:427,0.134,0.1555,8.1763,55.1967,-0.6097,-0.0225,1.2644,185.3891
17:04:03:451,1.7396,-0.3948,8.1356,56.5086,-0.4301,0.0215,1.2901,184.161
17:04:03:467,2.8283,-0.4498,8.2289,56.1736,-0.2493,-0.1532,1.0225,183.2559
17:04:03:495,2.3234,-0.0072,8.2002,56.361,0.028,-0.3548,0.5363,182.8259
17:04:03:504,2.3904,0.414,7.8389,57.216,0.441,-0.5674,0.0965,182.8786
17:04:03:526,0.9021,0.9763,6.8387,56.6733,0.8991,-0.6859,-0.2248,183.2375
17:04:03:545,0.0311,1.4716,4.5057,57.2568,1.152,-0.8032,-0.2981,183.6722
17:04:03:565,-0.1723,1.8855,3.1848,55.5055,0.8099,-1.0903,0.0012,183.7915
17:04:03:586,1.1414,2.613,3.9601,58.0268,0.0305,-1.2528,0.3921,183.5285
17:04:03:605,2.1248,2.881,6.2189,60.3201,-0.6085,-0.9547,0.6279,183.0325
17:04:03:628,2.4431,2.6895,9.4277,59.0511,-0.7673,-0.2229,0.6915,182.433
17:04:03:647,2.3857,2.3282,12.4546,59.3194,-0.4924,0.5578,0.6071,181.9111
17:04:03:666,2.0291,1.9167,14.0961,58.7127,-0.0697,0.8315,0.4068,181.6158
17:04:03:686,1.6702,2.0148,14.2612,56.7017,0.1722,0.4943,0.1001,181.6415
17:04:03:706,1.1222,2.6345,14.3139,58.6145,0.1453,-0.0824,-0.1711,181.9333
17:04:03:729,0.2943,2.8187,14.8379,57.8147,0.0354,-0.356,-0.2456,182.2743
17:04:03:748,0.2656,2.3928,14.6082,59.2551,-0.0159,-0.4904,-0.0746,182.4306
17:04:03:768,1.6008,1.3304,14.1488,57.6929,-0.0673,-0.4489,0.2162,182.3125
17:04:03:785,3.3428,-0.2991,15.0221,60.5557,-0.1088,-0.1826,0.3481,182.0951
17:04:03:805,5.0991,-2.0124,14.7135,59.9861,0.1282,0.1143,0.1185,182.1883
17:04:03:827,4.2975,-2.1344,13.9837,61.8972,0.5729,0.4625,-0.5669,183.0133
17:04:03:847,2.132,-1.2419,12.6389,60.0518,0.9187,0.724,-1.3354,184.6109
17:04:03:869,-0.2776,0.5743,9.7077,59.4903,0.9785,0.6507,-1.5199,188.1485
17:04:03:887,-0.5073,0.7083,9.2937,58.7299,0.7183,0.6568,-1.1228,189.3928
17:04:03:906,-0.4786,0.737,8.863,60.7451,0.4483,0.6995,-0.8015,190.2685
17:04:03:928,0.0311,0.5838,8.5161,59.129,0.2626,0.6543,-0.5425,190.8687
17:04:03:948,0.1531,0.5192,8.3797,58.8247,0.1893,0.6189,-0.3995,191.3466
17:04:03:966,0.0431,0.5264,8.3175,60.6837,0.2406,0.5627,-0.3739,191.7748
17:04:03:987,0.0838,0.4786,7.925,61.7062,0.4007,0.4466,-0.3665,192.1967
17:04:04:006,0.3206,0.2225,7.0181,61.3862,0.5961,0.2719,-0.3421,192.6028
17:04:04:029,0.1914,-0.0861,6.2166,59.9559,0.7391,0.14,-0.3336,193.0336
17:04:04:049,0.0622,-0.1986,6.0371,60.3032,0.7867,0.0703,-0.3287,193.4506
17:04:04:071,0.1627,-0.268,5.9486,59.54,0.7843,0.0166,-0.3177,193.8641
17:04:04:086,1.6104,-0.5192,6.6281,60.5583,0.7794,0.0581,-0.2994,194.2879
17:04:04:106,2.2373,-0.8327,8.5376,60.2022,0.9077,0.3379,-0.3873,194.7697
17:04:04:129,1.2706,-1.3185,10.1145,60.5456,1.345,0.6226,-0.5938,195.3771
17:04:04:148,0.1268,-1.2873,11.3348,61.1952,1.8203,0.454,-0.7526,196.1147
17:04:04:167,-1.2586,-1.0002,8.5161,58.5025,2.0414,-0.5258,-0.8088,197.1385
17:04:04:190,-2.3163,0.9141,4.9388,59.1094,1.6273,-1.3603,-0.6427,198.2636
17:04:04:206,-2.4024,2.1296,5.391,59.9101,0.4288,-1.083,-0.2639,198.909
17:04:04:227,-1.4979,1.9047,9.4014,60.7257,-0.7477,-0.4574,0.27,198.8064
17:04:04:250,0.1675,0.8519,12.1029,61.5545,-1.1888,-0.0274,0.7538,198.0749
17:04:04:272,0.0526,0.0239,13.4166,60.6347,-1.168,0.1888,0.8295,197.1774
17:04:04:285,-0.9619,0.2847,12.5623,60.4528,-1.0446,-0.0958,0.6218,196.5449
17:04:04:305,-0.9069,1.474,10.9472,60.5456,-1.0495,-0.6065,0.3689,196.3387
17:04:04:329,-0.1268,2.5412,9.9828,61.2758,-1.366,-0.4721,0.4386,195.8591
17:04:04:348,0.8016,2.668,12.4738,62.4077,-1.5236,0.0044,0.5998,195.2921
17:04:04:367,1.2299,1.1342,15.0197,61.2814,-1.5651,0.1094,0.6475,194.636
17:04:04:387,0.8997,1.0672,13.5386,60.8974,-1.2267,-0.4342,0.5253,194.1915
17:04:04:405,0.0622,1.8138,11.2606,61.0978,-0.9799,-0.7995,0.2321,194.0426
17:04:04:427,-0.5432,2.6249,9.3057,61.7103,-0.8223,-0.5894,0.1417,193.9455
17:04:04:446,0.1436,1.3304,8.327,58.9525,-0.7062,0.1962,0.1502,193.8112
17:04:04:464,-0.4475,1.5553,9.5665,59.2323,-0.7477,0.8021,0.1808,193.6212
17:04:04:485,-0.3709,1.1127,11.3157,61.1191,-0.7111,1.0172,0.4214,193.1662
17:04:04:505,-0.2608,1.0193,10.8682,59.9323,-0.3629,0.5725,0.766,192.3757
17:04:04:535,0.1029,1.0911,8.2289,60.3161,0.1404,-0.1508,0.9859,191.3495
17:04:04:551,0.2034,1.2945,5.9294,59.8068,0.4874,-0.5307,0.9822,190.3142
17:04:04:570,0.6987,1.127,5.0273,59.2757,0.5876,-0.4745,0.9223,189.365
17:04:04:585,0.8925,0.6748,5.3192,57.7423,0.4947,-0.2925,0.849,188.5033
17:04:04:605,1.3807,0.7059,5.6686,57.8088,0.298,-0.378,0.7403,187.7669
17:04:04:628,1.5769,1.194,6.1137,59.1271,0.1209,-0.5295,0.5571,187.2625
17:04:04:645,1.5338,1.5649,6.2453,58.6337,0.0781,-0.5649,0.4141,186.9182
17:04:04:667,1.5482,1.8568,6.4152,59.5842,0.1502,-0.3621,0.3591,186.6255
17:04:04:685,1.9932,1.7898,7.5087,57.6826,0.2308,0.0202,0.3701,186.3004
17:04:04:706,2.4837,0.8901,9.2243,57.7261,0.2846,0.3232,0.2883,186.071
17:04:04:731,2.6871,0.5001,10.1599,56.8035,0.287,0.2426,-0.0208,186.1786
17:04:04:746,1.7396,1.6582,10.392,57.3412,0.1978,-0.053,-0.4716,186.7618
17:04:04:769,0.6006,3.0102,10.3203,56.7329,0.0293,-0.2693,-0.6683,187.5479
17:04:04:786,1.4931,2.5484,12.536,56.3663,-0.3568,-0.1972,-0.0733,188.0883
17:04:04:805,2.1823,1.1533,14.0578,57.6042,-0.3434,-0.0616,0.0427,188.2315
17:04:04:826,2.4861,0.9906,13.0816,56.1423,-0.0966,-0.0176,-0.2077,188.5413
17:04:04:848,3.1178,1.6534,13.4907,58.2421,-0.0123,0.3648,-0.6402,189.328
17:04:04:864,2.8594,1.876,16.1492,56.0762,0.1221,1.3739,-1.0532,190.4984
17:04:04:884,1.0241,1.9621,17.537,57.4179,0.6291,2.2731,-1.4111,191.9331
17:04:04:904,-0.7274,1.9693,15.9697,55.2252,1.119,2.2804,-1.5345,193.425
17:04:04:928,-1.4644,1.9214,13.8305,58.2218,1.1178,1.6354,-1.3293,194.7155
17:04:04:947,-1.1629,1.6391,12.5599,56.3716,0.6963,0.9598,-0.9285,195.6302
17:04:04:964,-0.6772,1.2156,11.8301,56.3716,0.2699,0.5602,-0.6011,196.2535
17:04:04:985,-0.1172,0.7274,10.6768,54.7089,0.1087,0.3599,-0.4716,196.7691
17:04:05:006,0.3087,0.4594,9.265,57.3515,0.2186,0.2841,-0.5095,197.3428
17:04:05:027,0.4403,0.4092,7.7049,57.5468,0.452,0.2939,-0.6476,198.0602
17:04:05:052,0.1723,0.6796,6.3362,55.9111,0.6511,0.3428,-0.8027,198.928
17:04:05:068,-0.3948,0.9954,5.592,58.0609,0.744,0.4063,-0.8992,199.8784
17:04:05:085,-1.0026,1.2586,5.592,57.1212,0.7378,0.4503,-0.8907,200.7733
17:04:05:105,-1.5242,1.3807,5.7715,59.0769,0.7061,0.3745,-0.8186,201.5968
17:04:05:131,-1.8831,1.6869,5.3862,56.369,0.6865,0.1546,-0.7233,202.3494
17:04:05:150,-1.6176,1.7061,5.0536,55.9184,0.6316,-0.0445,-0.5486,202.9534
17:04:05:166,-1.0361,1.2227,5.7452,56.0046,0.4984,-0.0836,-0.3214,203.3511
17:04:05:184,-0.7681,0.6389,6.2357,55.6265,0.4251,-0.0042,-0.1821,203.5729
17:04:05:206,-0.4068,0.1196,6.9799,56.5062,0.4226,0.1852,-0.1552,203.7045
17:04:05:233,-0.268,-0.1364,8.1452,55.8251,0.4373,0.4772,-0.2224,203.8493
17:04:05:252,-0.8112,-0.5216,9.8297,57.6131,0.3493,0.6995,-0.325,204.0123
17:04:05:266,-1.2012,-0.8686,10.9783,56.3377,0.0879,0.5492,-0.303,204.1738
17:04:05:285,-1.3089,-0.9356,11.921,56.1825,-0.2419,0.3452,-0.2688,204.5499
17:04:05:353,-1.4381,-1.0409,12.8327,56.3046,-0.5291,0.223,-0.2395,204.7674
17:04:05:354,-1.8544,-0.993,13.2491,56.534,-0.7184,0.1278,-0.2224,204.9933
17:04:05:354,-1.8281,-0.8375,12.6844,57.6522,-0.8247,-0.0433,-0.1698,205.2032
17:04:05:364,-1.2873,-0.6269,12.5264,58.4968,-0.975,-0.1996,-0.0892,205.3705
17:04:05:385,-1.017,-0.4403,13.0265,57.1872,-1.0776,-0.2522,-0.0685,205.5252
17:04:05:409,-1.4333,-0.4905,12.8231,57.4639,-0.9432,-0.2705,-0.1638,205.7719
17:04:05:428,-2.132,-0.5982,11.5669,58.9826,-0.6219,-0.3047,-0.3226,206.1726
17:04:05:444,-3.2351,-0.2393,9.6287,58.7138,-0.3483,-0.334,-0.4826,206.7166
17:04:05:466,-4.2305,0.5743,8.418,57.6103,-0.314,-0.2913,-0.5229,207.2652
17:04:05:486,-4.4267,1.4022,8.5687,58.8255,-0.5352,-0.1911,-0.3287,207.579
17:04:05:505,-3.8046,1.6295,8.9468,58.457,-0.7966,-0.1557,0.0378,207.5142
17:04:05:529,-2.4766,1.4022,9.2722,57.1441,-1.0092,-0.2888,0.4263,207.0406
17:04:05:547,-1.5314,1.1127,9.6359,56.0801,-1.146,-0.6175,0.6352,206.37
17:04:05:569,-0.9308,1.2682,9.521,58.6782,-1.1082,-1.0243,0.5974,205.7657
17:04:05:585,-1.4189,1.9286,9.2985,56.5653,-0.876,-1.3359,0.3689,205.3727
17:04:05:606,-2.0746,2.5364,8.6525,57.3857,-0.4802,-1.5167,0.1294,205.1908
17:04:05:627,-2.4622,2.936,6.7789,57.9002,-0.0465,-1.6339,0.0268,205.1211
17:04:05:647,-2.5579,3.2877,5.1924,56.8051,0.2333,-1.5289,0.1734,204.8867
17:04:05:667,-2.1583,3.2184,5.0393,57.7211,0.2663,-1.2589,0.5192,204.2861
17:04:05:686,-1.5434,3.0006,5.6231,57.8546,0.2076,-0.8972,0.9236,203.244
17:04:05:707,0.5838,1.5242,7.791,58.7307,0.0952,-0.0421,1.3988,200.3814
17:04:05:733,1.3208,1.2491,9.722,57.8857,-0.0331,0.2096,1.3182,198.9534
17:04:05:746,1.517,1.5793,11.4975,57.0786,-0.0954,0.2108,1.0763,197.8114
17:04:05:765,1.7827,1.5816,12.3972,55.7142,0.0085,0.1107,0.871,196.8898
17:04:05:785,2.1488,1.1605,12.0598,57.5603,0.1587,-0.0934,0.6975,196.1803
17:04:05:805,2.3904,1.0672,11.5382,57.4209,0.1429,-0.3597,0.485,195.6913
17:04:05:831,2.6154,1.084,11.7129,58.7998,-0.0111,-0.4892,0.2321,195.515
17:04:05:853,2.5053,0.8303,12.0742,58.2397,-0.0929,-0.4159,-0.0159,195.6011
17:04:05:868,2.4191,0.5121,12.3733,60.0081,-0.1577,-0.2986,-0.2334,195.9058
17:04:05:884,2.5508,0.5145,13.5434,61.4056,-0.3495,-0.1911,-0.4081,196.3764
17:04:05:906,3.6802,0.3852,15.7161,59.4223,-0.468,0.0936,-0.5571,197.0508
17:04:05:927,4.544,-0.3183,17.1541,60.7884,-0.2297,0.4259,-0.8528,198.0664
17:04:05:944,3.4959,-0.5575,15.2878,59.0906,0.3591,0.4943,-1.3574,199.5878
17:04:05:965,1.6415,-0.0838,12.0814,60.2584,0.7953,0.2585,-1.7618,201.5201
17:04:05:984,0.8183,0.2632,10.0475,59.4963,0.827,0.1485,-1.7972,203.4488
17:04:06:004,1.0146,0.2249,9.7388,59.3859,0.656,0.3098,-1.5883,205.1422
17:04:06:025,1.4477,-0.0646,9.9757,56.8521,0.5595,0.6042,-1.4099,206.6333
17:04:06:046,1.651,-0.548,9.801,57.1174,0.6157,0.7582,-1.3781,208.0731
17:04:06:067,1.5769,-0.5886,9.0664,57.6247,0.6841,0.6226,-1.5138,209.6598
17:04:06:084,1.2347,-0.3517,7.9394,57.5607,0.7391,0.3721,-1.7092,211.4799
17:04:06:104,0.8183,-0.0455,6.9918,57.9109,0.7879,0.2169,-1.851,213.456
17:04:06:124,0.4331,0.055,6.4367,56.8168,0.8344,0.2011,-1.9108,215.4777
17:04:06:145,0.2895,0.0431,6.1161,56.041,0.8735,0.2609,-1.9071,217.4933
17:04:06:165,-0.2369,0.0479,6.0155,57.5103,0.8527,0.4173,-1.8302,219.4577
17:04:06:184,-0.39,0.1053,6.8339,56.8898,0.7757,0.5309,-1.7544,221.3529
17:04:06:205,-0.737,0.3446,7.4848,58.5951,0.7269,0.6116,-1.6652,223.0768
17:04:06:226,-1.0624,0.3709,7.9561,57.2822,0.7,0.6421,-1.5174,226.0986
17:04:06:243,-1.3878,0.4427,8.0901,57.4228,0.656,0.5993,-1.3158,227.2954
17:04:06:264,-1.7994,0.6197,8.0758,56.6631,0.5277,0.4552,-1.0715,228.2631
17:04:06:284,-2.5125,0.7944,8.2816,56.5766,0.298,0.2817,-0.7514,228.9082
17:04:06:305,-2.9551,1.0289,9.3248,58.1342,0.0158,0.1815,-0.3311,229.1231
17:04:06:331,-3.3476,1.4118,11.1673,57.36,-0.22,0.1901,0.1637,228.7895
17:04:06:348,-2.814,1.1462,11.8397,57.5407,-0.2615,0.1925,0.7159,227.8697
17:04:06:366,-1.5338,0.0335,11.4066,56.7487,-0.2701,0.0325,1.2302,226.4232
17:04:06:383,-0.6293,-0.7442,10.8371,54.9824,-0.5095,-0.2962,1.543,224.7329
17:04:06:404,-0.8519,-0.536,10.4255,53.2058,-0.9053,-0.5148,1.6444,222.975
17:04:06:425,-1.072,0.1603,10.9208,55.7782,-1.3476,-0.4208,1.7433,221.0933
17:04:06:445,-0.6269,0.3613,12.3302,57.3903,-1.7288,-0.1007,1.9254,218.9479
17:04:06:464,0.0479,0.0144,13.3615,56.526,-1.851,0.1888,2.0671,216.6205
17:04:06:483,1.3376,-0.804,14.4479,56.6176,-1.7569,0.2157,2.0219,214.3714
17:04:06:505,1.9095,-0.8542,14.1057,53.2606,-1.526,-0.1569,1.6493,212.6026
17:04:06:525,1.864,-0.7561,12.5432,54.6104,-1.1375,-0.6138,1.0848,211.4696
17:04:06:547,1.1629,-0.5743,10.7581,53.516,-0.7282,-0.8117,0.5131,210.91
17:04:06:566,0.3446,-0.3063,9.5976,52.5537,-0.4167,-0.6651,0.0525,210.8476
17:04:06:584,-0.2345,-0.0574,9.009,53.4757,-0.2102,-0.3463,-0.2212,211.0641
17:04:06:605,-0.6389,0.3087,8.8606,54.1215,-0.0954,-0.0445,-0.358,211.4205
17:04:06:629,-0.2536,0.268,8.6189,53.0125,-0.0355,-0.1447,-0.4069,212.2765
17:04:06:646,0.012,0.2632,7.8341,54.8432,-0.0868,-0.5686,-0.4692,212.7641
17:04:06:664,0.0933,0.39,6.9392,53.0125,-0.1186,-0.9131,-0.551,213.3497
17:04:06:684,0.122,0.4331,6.4702,52.409,-0.0819,-0.9706,-0.6097,213.9876
17:04:06:704,0.2249,0.3111,6.5037,51.9867,-0.0135,-0.8105,-0.6524,214.6717
17:04:06:728,0.3111,0.3565,6.7214,51.5709,0.0231,-0.6138,-0.7221,215.4384
17:04:06:746,0.4403,0.5145,7.0732,50.6138,0.0195,-0.4501,-0.8052,216.3038
17:04:06:763,0.725,0.7681,7.4465,51.9361,-0.0001,-0.2815,-0.8675,217.2434
17:04:06:784,0.3948,1.1486,8.0758,52.6195,-0.0306,-0.0983,-0.9127,218.2199
17:04:06:803,0.213,1.6319,9.131,53.0187,-0.1332,-0.0054,-0.9102,219.1965
17:04:06:825,0.5264,1.7276,10.2173,51.672,-0.2591,-0.0689,-0.8809,220.1506
17:04:06:847,0.6365,1.5553,10.258,51.7697,-0.2432,-0.2558,-0.8748,221.1171
17:04:06:865,0.6413,1.2538,9.7962,50.0265,-0.1503,-0.4599,-0.9151,222.1168
17:04:06:885,0.7896,1.3256,9.7531,50.7981,-0.1992,-0.604,-1.0251,223.2458
17:04:06:905,1.0361,2.0028,10.124,51.795,-0.3238,-0.6578,-1.1839,224.5508
17:04:06:928,0.8423,2.5172,11.5238,49.1554,-0.4399,-0.521,-1.3012,225.9793
17:04:06:944,0.6485,2.1535,12.7561,50.8976,-0.4973,-0.3145,-1.2902,227.394
17:04:06:964,1.0624,1.1103,14.869,47.3607,-0.4863,-0.0934,-1.1814,228.6768
17:04:06:984,2.266,-0.0526,16.1946,48.9578,-0.369,0.0215,-1.1338,229.9186
17:04:07:004,3.283,-0.4666,15.4122,49.837,-0.0697,0.0374,-1.2315,231.2579
17:04:07:026,3.8955,-0.6341,15.5414,47.5127,0.1795,0.1534,-1.383,232.7669
17:04:07:047,3.4361,-0.6628,14.7589,46.9942,0.364,0.1449,-1.5296,234.4368
17:04:07:065,2.3402,-0.5599,13.0768,48.2846,0.5705,-0.0042,-1.6665,236.2415
17:04:07:084,2.0578,-0.4307,9.2698,47.9636,0.7036,0.0936,-1.6628,239.9031
17:04:07:104,2.3761,-0.2967,10.0427,46.5262,0.5937,0.5285,-1.5834,241.5739
17:04:07:124,2.2612,-0.4283,10.1958,45.4515,0.6743,0.8742,-1.5712,243.1943
17:04:07:145,1.8329,-0.4522,9.2291,44.2049,0.9126,0.961,-1.6506,244.8919
17:04:07:163,1.34,-0.3661,7.7695,43.7025,1.0958,0.8584,-1.752,246.6645
17:04:07:184,0.8088,-0.1029,6.6808,45.141,1.1447,0.691,-1.807,248.506
17:04:07:203,0.3111,0.1675,6.207,44.8534,1.086,0.5224,-1.7874,250.3195
17:04:07:226,0.1125,0.39,6.1041,43.0691,0.981,0.3465,-1.6897,252.0431
17:04:07:250,0.0239,0.4355,5.9342,43.9633,0.8832,0.1583,-1.5675,253.6525
17:04:07:265,-0.0526,0.4307,5.5729,42.9044,0.8295,0.0239,-1.4527,255.1567
17:04:07:284,-0.1388,0.4068,5.7332,43.1456,0.755,-0.0017,-1.3415,256.5493
17:04:07:304,-0.3685,0.5025,6.1448,43.1456,0.6193,0.0142,-1.2303,257.8183
17:04:07:324,-0.4211,0.7298,6.7502,42.4262,0.4275,0.0202,-1.0666,258.9039
17:04:07:346,-0.2991,0.9069,8.327,42.321,0.1661,0.0532,-0.7978,259.6794
17:04:07:419,0.7322,0.5049,10.7438,41.9771,-0.0941,0.1131,-0.468,260.0581
17:04:07:421,1.1725,-0.3517,12.2393,41.7662,-0.1699,0.0923,-0.2835,260.2355
17:04:07:422,0.548,-0.8686,12.6772,40.5705,-0.0648,-0.086,-0.3042,260.4637
17:04:07:432,-0.3565,-0.8949,11.6387,40.3556,0.0867,-0.3414,-0.4386,260.8965
17:04:07:445,-0.8686,-0.7155,9.8513,38.9548,0.138,-0.5894,-0.5034,261.4605
17:04:07:467,-0.9308,-0.6437,9.0281,37.9534,-0.0379,-0.6944,-0.4447,261.9995
17:04:07:485,-1.1773,-0.9452,8.93,39.5644,-0.297,-0.6651,-0.3568,262.4211
17:04:07:504,-1.6917,-0.8614,8.8008,40.0128,-0.5083,-0.5478,-0.3482,262.7831
17:04:07:525,-2.3043,-0.2895,8.7793,40.1879,-0.7307,-0.3707,-0.3873,263.1909
17:04:07:549,-2.6082,0.2919,10.258,39.9892,-1.1607,0.3758,-0.1027,263.4794
17:04:07:566,-1.7396,0.0168,12.2441,39.6959,-1.4075,0.6445,0.1734,263.1324
17:04:07:589,-0.7442,-0.1723,14.3186,37.8055,-1.5529,0.5554,0.2968,262.6859
17:04:07:603,-0.6341,0.0072,14.333,38.8812,-1.3537,0.1412,0.2052,262.3894
17:04:07:624,-1.3807,-0.0431,12.3254,39.0447,-0.9127,-0.2754,0.0794,262.2949
17:04:07:646,-2.0052,-0.1914,9.8465,39.336,-0.5132,-0.4477,0.061,262.1896
17:04:07:666,-2.3163,-0.0096,8.1763,38.1749,-0.3629,-0.3145,0.1294,262.021
17:04:07:690,-2.0435,0.3996,7.5853,36.7601,-0.391,0.0312,0.2785,261.6854
17:04:07:705,-0.9523,0.4834,8.3318,36.5088,-0.4998,0.3819,0.507,261.1139
17:04:07:729,0.2728,0.1747,9.4301,36.9731,-0.5413,0.4723,0.6682,260.3734
17:04:07:742,0.536,0.3278,9.8249,37.9364,-0.5046,0.1119,0.6059,259.7027
17:04:07:762,0.1244,1.206,9.1573,37.7801,-0.4044,-0.4623,0.4214,259.2285
17:04:07:783,-0.0718,1.6798,8.0136,37.7757,-0.1943,-0.7959,0.3762,258.8228
17:04:07:803,0.201,1.6128,6.6042,37.5168,0.0512,-0.7959,0.4972,258.2745
17:04:07:823,0.5527,1.2132,5.8672,37.8948,0.1343,-0.6089,0.6462,257.5649
17:04:07:846,0.9858,0.8399,6.3458,36.5088,0.0097,-0.3255,0.7244,256.7859
17:04:07:866,1.4237,0.9045,8.607,36.2341,-0.1968,-0.0469,0.6841,256.0721
17:04:07:884,1.3926,0.7657,9.8848,35.3322,-0.2371,0.0361,0.5265,255.5251
17:04:07:903,1.1677,1.2897,10.0929,35.7877,-0.0709,-0.0408,0.3139,255.2419
17:04:07:931,0.938,1.4644,9.8584,36.5423,0.1099,-0.0787,0.1563,255.1271
17:04:07:946,1.0696,1.2682,10.4207,34.6678,0.1587,-0.0469,0.1197,255.0288
17:04:07:965,1.6893,0.7466,11.5214,36.7507,0.1026,-0.0616,0.0977,254.9738
17:04:07:984,2.0794,0.4953,12.5432,36.0876,0.0329,-0.1935,-0.0477,255.0747
17:04:08:005,1.6654,1.0265,13.6989,36.3274,0.1233,-0.455,-0.5291,256.0848
17:04:08:027,1.6606,0.6389,13.6247,36.3997,0.3151,-0.5039,-0.6622,256.8487
17:04:08:046,2.1918,0.5073,13.754,37.5198,0.4764,-0.5564,-0.7526,257.7275
17:04:08:063,3.1824,-0.1555,14.0554,36.4111,0.5497,-0.4355,-0.7929,258.6408
17:04:08:083,4.8407,-0.8159,15.7352,37.1396,0.5497,-0.0494,-0.8772,259.6331
17:04:08:104,5.08,-1.4094,17.0656,35.1332,0.5876,0.2121,-1.1692,260.9399
17:04:08:127,3.9458,-1.529,14.9408,35.1332,0.8722,-0.0323,-1.62,262.7271
17:04:08:146,2.747,-0.9404,11.2343,35.1332,1.0188,-0.582,-1.9597,264.9232
17:04:08:165,1.8808,-0.0646,9.8297,35.1332,0.7317,-0.8924,-2.099,267.3251
17:04:08:184,1.4668,0.481,9.8273,38.2017,0.4141,-0.8325,-2.1405,269.7804
17:04:08:203,1.0409,0.6891,9.6024,39.1952,0.4288,-0.5662,-2.2224,272.3434
17:04:08:223,0.2608,0.8423,9.4684,38.9428,0.645,-0.2571,-2.391,275.0657
17:04:08:246,-0.3661,0.7442,8.7505,39.0953,0.8649,-0.1532,-2.6206,278.0198
17:04:08:266,-1.2825,1.4381,6.9464,39.8173,0.9749,-0.3316,-2.8796,281.3188
17:04:08:285,-1.809,2.5555,5.2738,41.1893,1.0115,-0.4098,-2.9493,284.7509
17:04:08:306,-2.1703,3.0604,4.4052,40.2622,1.0604,-0.1996,-2.7,287.8792
17:04:08:333,-2.0219,2.6776,3.8979,41.3965,1.1801,0.2353,-2.2272,290.3718
17:04:08:349,-1.6199,1.9884,3.9817,41.4024,1.2119,0.6091,-1.741,292.1923
17:04:08:368,-1.3041,1.529,4.8526,41.6813,1.1215,0.8938,-1.3537,293.4481
17:04:08:384,-0.256,1.017,5.7404,41.4323,1.0396,1.088,-1.0739,294.2873
17:04:08:404,0.0096,0.6293,7.1928,40.9587,0.9859,1.2383,-0.9701,294.9366
17:04:08:424,-1.34,0.7609,8.6644,41.9618,0.9981,1.3825,-0.9896,295.4969
17:04:08:446,-2.3186,1.2371,9.1334,42.6092,1.0359,1.3983,-0.9322,295.9951
17:04:08:464,-2.4096,1.3854,9.2171,41.5574,0.5595,1.0807,-0.3837,296.2206
17:04:08:484,-2.3976,0.5264,10.3609,44.9182,0.1258,0.9158,-0.0257,295.9102
17:04:08:504,-2.2971,0.0957,10.5619,43.1205,-0.2688,0.581,0.1967,295.5343
17:04:08:526,-2.857,0.2273,10.4327,43.8933,-0.6745,0.2389,0.2492,295.2577
17:04:08:548,-3.4505,0.3757,10.9663,45.6378,-1.0739,0.2182,0.32,294.9218
17:04:08:565,-3.6921,-0.0502,11.8062,45.0765,-1.4246,0.4002,0.496,294.3528
17:04:08:583,-3.3906,-0.603,12.3876,46.2927,-1.7227,0.5627,0.7073,293.5087
17:04:08:603,-2.924,-0.4666,13.1701,44.7604,-2.011,0.5908,0.8332,292.5327
17:04:08:624,-2.2134,-0.0694,13.9789,46.4953,-2.1625,0.4686,0.8661,291.5651
17:04:08:645,-1.6152,0.1077,14.0363,47.4348,-1.9756,0.2426,0.8515,290.6634
17:04:08:664,-1.5051,-0.1268,12.6341,49.3795,-1.5126,-0.1019,0.7623,289.9691
17:04:08:685,-1.8281,-0.3111,10.2963,47.5067,-1.0544,-0.4672,0.5864,289.539
17:04:08:705,-2.5531,0.0048,8.4227,47.5382,-0.8064,-0.6395,0.3726,289.3729
17:04:08:734,-3.0102,0.5743,7.2072,47.5382,-0.7441,-0.5405,0.2467,289.3465
17:04:08:746,-2.924,1.1151,6.7214,47.5745,-0.7856,-0.3072,0.2993,289.2365
17:04:08:765,-2.3689,1.4261,7.0158,49.8317,-0.8809,-0.0909,0.4752,288.924
17:04:08:783,-1.5003,1.3304,7.3842,47.9782,-0.9481,-0.0323,0.7,288.3394
17:04:08:803,-0.7418,1.1198,7.523,48.6644,-0.9701,-0.1972,0.8588,287.5623
17:04:08:823,-0.2895,1.0265,7.6187,48.7806,-0.9445,-0.4587,0.8991,286.7521
17:04:08:845,0.1292,0.4953,8.26,48.6224,-0.8333,-0.6981,0.8515,285.9861
17:04:08:865,0.4427,0.4379,8.2241,48.4485,-0.6867,-1.0658,0.6878,285.3981
17:04:08:883,0.8638,1.0576,7.9011,51.3049,-0.6317,-1.5741,0.5057,285.0094
17:04:08:905,-0.012,1.1653,6.4128,51.9811,-0.6048,-1.8893,0.4349,284.731
17:04:08:932,0.1005,1.7252,6.6832,51.7548,-0.584,-1.8563,0.6059,284.2611
17:04:08:945,1.1868,1.2084,9.4205,51.1324,-0.8394,-0.995,1.35,283.3678
17:04:08:964,2.3306,0.8016,12.1579,51.1837,-1.0312,-0.9644,1.4953,281.8848
17:04:08:983,3.0389,0.6006,14.3186,52.4529,-0.9921,-1.1807,1.3878,278.9715
17:04:09:004,2.388,0.6078,15.0604,52.9427,-0.6427,-1.3774,1.0995,277.8481
17:04:09:023,1.651,1.1916,13.9501,52.5449,-0.1296,-1.48,0.7415,277.0914
17:04:09:045,-1.2467,4.7641,12.6054,53.1319,0.3445,-1.2735,0.4055,276.8383
17:04:09:064,-3.5127,4.4459,12.6054,53.3219,0.612,-0.7604,0.4092,276.6586
17:04:09:085,1.0744,1.1701,13.1366,55.1878,0.4727,-0.6016,1.0152,275.7062
17:04:09:104,4.6349,-1.3208,13.5601,56.501,0.3139,-0.7323,1.1838,274.4738
17:04:09:132,4.9244,-1.0504,13.8975,54.604,0.331,-0.6346,0.5571,273.9648
17:04:09:147,4.7234,-0.8375,13.6893,57.1449,0.6927,-0.0921,-0.1295,274.2449
17:04:09:166,4.6229,-1.1438,13.6917,55.478,1.0482,0.5126,-0.5364,275.0157
17:04:09:183,3.4457,-1.0217,12.4666,55.2398,1.2314,0.6592,-0.8223,276.0666
17:04:09:203,2.4335,-0.6532,10.3226,56.3678,1.1984,0.4063,-0.9224,277.2109
17:04:09:225,2.4,-0.3493,9.0377,56.8635,0.8539,0.1742,-0.8675,278.2921
17:04:09:247,2.8307,-0.146,9.143,57.0232,0.4642,0.2646,-0.7636,279.2577
17:04:09:264,3.082,-0.3661,9.4564,58.1066,0.2944,0.5993,-0.7209,280.131
17:04:09:284,2.7087,-0.737,9.1071,56.5811,0.3322,0.9097,-0.8113,281.0758
17:04:09:303,2.1488,-0.5647,8.3438,57.277,0.3884,1.0392,-1.0153,282.2
17:04:09:324,1.6008,-0.2225,7.6642,58.0075,0.4312,1.0563,-1.2193,283.5296
17:04:09:346,1.1342,0.079,7.2407,56.1299,0.5082,1.0367,-1.3293,286.4847
17:04:09:363,0.0239,0.5001,6.6449,56.8925,0.634,0.9842,-1.3769,287.9559
17:04:09:388,-0.5623,0.5719,6.1376,58.0028,0.882,0.6678,-1.267,289.2365
17:04:09:403,-0.9045,0.6174,5.6758,58.208,0.816,0.3709,-1.0739,290.4251
17:04:09:481,-0.8519,0.4498,5.3791,57.3892,0.6316,0.0936,-0.7978,291.3576
17:04:09:482,-0.6126,0.2441,5.5681,58.1405,0.4141,-0.0359,-0.5156,291.985
17:04:09:482,0.0407,-0.0191,6.6784,59.5249,0.2345,0.0581,-0.281,292.3289
17:04:09:483,1.2682,-0.0359,9.0832,57.8512,0.1697,0.3354,-0.1723,292.4922
17:04:09:505,-0.1412,0.4977,12.0838,58.6984,0.3506,0.6788,-0.3238,292.7177
17:04:09:530,-3.3476,1.3998,12.9691,57.1295,0.7794,0.7117,-0.5266,293.2189
17:04:09:546,-3.74,2.1464,9.9828,57.6748,1.0249,0.1754,-0.2932,293.5739
17:04:09:565,-1.9813,1.6989,8.5998,58.2656,0.5705,-0.422,0.4117,293.3098
17:04:09:583,0.6221,-0.0168,10.3203,58.2881,-0.2578,-0.7177,1.24,292.1591
17:04:09:602,2.2134,-1.7683,11.8325,58.2547,-0.7587,-0.9779,1.67,290.5493
17:04:09:622,2.1512,-2.589,11.732,60.1399,-0.771,-1.0964,1.4624,289.1452
17:04:09:645,1.6008,-2.6058,10.069,57.7645,-0.5596,-0.9632,0.9077,288.2778
17:04:09:665,1.1079,-2.3785,8.9444,58.2988,-0.4448,-0.4415,0.3775,287.8841
17:04:09:683,0.2991,-1.9884,9.4397,59.8443,-0.5572,0.377,0.0317,287.7
17:04:09:703,0.5264,-1.8568,12.7896,59.9314,-0.8821,1.1687,-0.1198,287.5652
17:04:09:724,-0.1603,-1.8281,15.7974,59.5203,-1.1021,1.4155,-0.3042,287.6232
17:04:09:746,-0.9882,-1.1079,14.8259,57.5657,-1.0214,0.8034,-0.6036,288.1731
17:04:09:764,-1.8401,-0.481,12.3063,58.7976,-0.8345,0.0056,-0.727,288.9705
17:04:09:785,-2.8499,-0.0933,10.0594,58.1695,-0.7209,-0.4037,-0.573,289.6594
17:04:09:803,-3.2136,0.4666,9.1502,59.0197,-0.8602,-0.5283,-0.2334,290.0014
17:04:09:826,-2.6225,1.194,8.7936,57.256,-1.1424,-0.5368,0.1917,289.289
17:04:09:844,-0.6126,1.6391,8.8798,58.7135,-1.2144,-0.2766,0.9627,288.2814
17:04:09:865,0.6221,1.0792,8.9874,58.7135,-0.9127,-0.2033,1.0885,287.1295
17:04:09:883,0.7633,0.8327,8.351,58.1695,-0.5462,-0.3634,0.9187,286.1508
17:04:09:905,0.6197,1.4094,6.8387,56.7591,-0.2529,-0.6407,0.6316,285.4647
17:04:09:928,0.6628,1.9334,5.8696,58.8528,-0.0746,-0.6957,0.5289,284.9034
17:04:09:947,1.2754,2.0028,6.3434,57.6754,0.0378,-0.4599,0.6536,284.2108
17:04:09:963,1.8855,1.1414,6.4247,58.9392,0.0891,-0.2827,0.8515,283.2944
17:04:09:983,2.7613,1.1438,7.724,56.6244,0.0635,-0.2119,0.8552,282.3551
17:04:10:002,2.3378,1.2873,8.3438,57.3708,0.0573,-0.1886,0.7134,281.5962
17:04:10:022,1.7922,1.9095,8.9324,58.9229,0.0415,-0.2497,0.5913,280.9812
17:04:10:045,1.1174,2.4431,9.533,57.2396,0.0464,-0.2619,0.5424,280.4431
17:04:10:065,0.0168,2.8068,10.66,56.8686,0.1502,-0.1606,0.5289,279.9338
17:04:10:083,-0.9428,2.9025,11.988,56.9344,0.3017,-0.1276,0.5387,279.4198
17:04:10:103,-0.6078,2.6417,11.409,57.8863,0.397,-0.4403,0.6646,278.7446
17:04:10:122,0.5097,1.9549,10.2796,57.9246,0.265,-0.8728,0.9199,277.7504
17:04:10:144,2.321,0.6628,10.3896,57.4285,-0.0954,-1.0316,1.2315,276.368
17:04:10:164,4.7186,-0.8925,11.7105,56.3485,-0.4313,-0.8997,1.4257,274.6978
17:04:10:183,5.1159,-1.5506,13.3735,57.548,-0.5877,-0.5674,1.1826,273.2995
17:04:10:203,4.1826,-1.4213,14.4024,58.5234,-0.6012,-0.2827,0.6646,272.496
17:04:10:224,4.1348,-1.1174,15.5509,56.0083,-0.4179,0.1168,0.1869,272.2777
17:04:10:247,3.2184,-0.6604,16.0271,56.4524,0.1355,0.713,-0.3556,272.7093
17:04:10:263,1.2802,-0.1149,14.8762,56.4769,0.8454,1.2041,-0.8956,273.7857
17:04:10:284,-0.335,0.2895,12.938,54.3361,1.3194,1.3617,-1.1203,275.0837
17:04:10:303,0.2991,-1.0552,10.2915,54.7339,0.9126,0.8193,-0.5266,276.6152
17:04:10:325,1.4907,-1.8975,9.6407,55.2019,0.5961,0.6262,-0.3348,276.8701
17:04:10:345,1.9573,-2.1368,9.6144,53.7596,0.3945,0.603,-0.4912,277.2913
17:04:10:362,1.5673,-1.6678,9.5234,54.1938,0.3958,0.6079,-0.8943,278.156
17:04:10:382,0.6054,-0.8351,8.7099,52.9316,0.6279,0.6323,-1.3293,279.5017
17:04:10:401,-0.3685,-0.0191,7.5924,53.4663,0.9236,0.6665,-1.5858,281.1659
17:04:10:423,-0.6987,0.3924,6.6353,53.0467,1.1056,0.6421,-1.5871,282.8152
17:04:10:447,-0.8495,0.5073,5.7571,53.083,1.1716,0.559,-1.4453,284.3194
17:04:10:466,-0.9069,0.4522,5.2858,52.6501,1.1398,0.4601,-1.2596,285.5986
17:04:10:486,-0.8231,0.2489,5.3097,51.1175,0.9798,0.2951,-1.0715,286.6781
17:04:10:504,-0.5671,0.0096,5.8241,49.5168,0.7684,0.0826,-0.9151,287.6035
17:04:10:522,-0.6197,-0.1603,6.2836,51.8619,0.5827,-0.119,-0.7844,288.4203
17:04:10:547,-0.682,0.0359,6.81,51.2269,0.4422,-0.2216,-0.661,289.1299
17:04:10:563,-0.6604,0.1507,7.1378,50.9439,0.3445,-0.1447,-0.4741,289.6084
17:04:10:585,-0.0024,0.1484,7.8556,50.365,0.2369,0.0728,-0.2334,289.7733
17:04:10:602,-0.0024,-0.0215,9.6215,51.5373,0.1099,0.4039,-0.0648,289.6794
17:04:10:622,-0.7442,-0.1627,10.8443,51.2019,0.0439,0.603,-0.0196,289.5111
17:04:10:644,-1.4142,-0.2776,11.3444,52.5316,-0.0086,0.6067,0.0244,289.2839
17:04:10:663,-1.5458,-0.5934,11.6842,50.202,-0.1577,0.5358,0.1637,288.8938
17:04:10:682,-1.1031,-1.3926,11.7799,51.2355,-0.4289,0.3721,0.3469,288.3435
17:04:10:701,-0.5862,-2.0291,12.2871,50.8425,-0.7807,0.1107,0.4165,287.7528
17:04:10:722,-0.7896,-2.1129,12.0766,50.9877,-1.0569,-0.2131,0.2663,287.3856
17:04:10:743,-1.1318,-1.7779,10.7486,51.2303,-1.1693,-0.4574,0.0439,287.3026
17:04:10:763,-1.4644,-0.1125,11.8493,50.8303,-1.344,0.03,-0.1955,287.4169
17:04:10:783,-1.8712,0.2919,13.7898,50.0547,-1.2206,0.4637,-0.2163,287.8066
17:04:10:803,-2.5029,0.8375,14.2971,48.8972,-0.887,0.5285,-0.2346,288.0463
17:04:10:824,-3.1442,1.2706,12.6461,50.5937,-0.4985,0.1754,-0.1454,288.2044
17:04:10:844,-3.1154,1.0576,10.0977,49.5893,-0.2676,-0.2339,0.1893,287.9971
17:04:10:863,-2.2158,0.5958,8.9468,49.072,-0.3507,-0.4574,0.6621,287.2769
17:04:10:881,-0.4953,0.1268,8.9994,47.5946,-0.6048,-0.5283,1.0592,286.0923
17:04:10:902,0.9834,-0.2177,9.3512,48.1984,-0.7331,-0.5527,1.218,284.7122
17:04:10:921,1.809,-0.3757,9.0951,47.8738,-0.6244,-0.5979,1.1093,283.4137
17:04:10:948,1.7444,-0.2465,8.0231,48.1568,-0.3849,-0.6847,0.8087,282.4818
17:04:10:962,1.1318,0.2369,6.8291,47.5851,-0.1454,-0.7397,0.4666,281.9131
17:04:10:982,0.725,0.7011,5.9892,49.6945,0.0244,-0.6834,0.2394,281.5985
17:04:11:001,0.7011,1.3639,5.9868,47.428,0.105,-0.5637,0.1649,281.4223
17:04:11:023,0.5097,0.6317,5.7547,48.1531,0.094,-0.488,0.171,281.2046
17:04:11:043,1.4859,0.6461,5.9892,47.2619,0.0928,-0.3719,0.0598,281.1309
17:04:11:062,0.2082,1.1773,7.9155,46.6105,0.0952,-0.0787,-0.0599,281.188
17:04:11:082,0.1436,1.5984,8.1212,47.3408,0.1514,-0.0995,-0.1674,281.3944
17:04:11:103,-0.4283,2.1248,8.7529,46.4122,0.0989,-0.1776,-0.1576,281.5898
17:04:11:122,-0.4857,2.3569,9.6359,46.1113,0.0256,-0.1801,-0.0391,281.6707
17:04:11:144,-0.2536,1.8831,10.617,45.8315,-0.0159,-0.1862,0.1514,281.529
17:04:11:165,-0.2273,1.3902,11.2511,45.9119,-0.0575,-0.312,0.2247,281.1787
17:04:11:185,-1.0265,1.5936,12.0718,46.0397,-0.1051,-0.4464,0.1062,281.2837
17:04:11:203,-3.1801,2.2875,13.9167,46.0008,-0.0392,-0.444,-0.0941,281.4383
17:04:11:226,-2.3809,1.9956,13.7898,43.8953,0.0256,-0.5039,0.0427,281.4566
17:04:11:244,-1.6128,1.6941,13.2443,43.2548,-0.0257,-0.6248,0.204,281.2471
17:04:11:262,0.0168,0.804,13.1725,45.0139,-0.22,-0.7152,0.3714,280.8167
17:04:11:281,1.9334,0.0359,13.8616,42.8347,-0.3739,-0.6333,0.4141,280.337
17:04:11:301,3.2399,-0.079,14.8714,43.6921,-0.2249,-0.2827,0.1722,280.1102
17:04:11:321,3.4839,-0.1795,14.7589,43.6019,0.3102,0.2903,-0.2517,280.3559
17:04:11:343,2.7805,-0.4211,13.7659,43.8244,0.849,0.647,-0.6683,281.0804
17:04:11:367,2.0004,-0.457,11.653,43.5151,1.0396,0.5273,-0.9566,282.0748
17:04:11:380,1.9836,-0.0191,10.2269,41.6614,0.8613,0.2622,-1.0495,283.1861
17:04:11:402,2.3043,0.4738,10.1575,42.5904,0.5851,0.2389,-1.0727,284.3339
17:04:11:425,2.3857,0.6532,9.7173,41.9293,0.5619,0.421,-1.1362,285.5411
17:04:11:445,1.8449,0.8016,8.8271,42.4597,0.7598,0.6617,-1.2657,286.8609
17:04:11:464,0.9117,1.084,7.7384,42.3347,0.9846,0.8657,-1.4075,288.3305
17:04:11:527,0.2273,1.2299,7.0421,41.293,1.1178,0.9646,-1.4441,289.8193
17:04:11:528,0.0359,1.2754,6.6449,40.7465,1.0885,0.8889,-1.3525,291.1777
17:04:11:528,0.012,1.1821,6.6161,41.8091,0.9443,0.6592,-1.2169,292.4038
17:04:11:547,-0.1244,1.1868,6.4271,41.5593,0.7977,0.3477,-1.0715,293.5031
17:04:11:562,-0.1747,1.0576,6.0778,40.2767,0.7171,0.0813,-0.8931,294.4549
17:04:11:583,-0.1244,0.7442,6.1137,40.1098,0.6902,-0.0653,-0.694,295.2034
17:04:11:606,-0.055,0.4738,6.0754,39.5497,0.6768,-0.141,-0.5303,295.7957
17:04:11:621,0.0024,0.1484,6.2118,40.2118,0.6291,-0.1508,-0.3922,296.2242
17:04:11:642,0.1268,-0.256,7.1402,40.139,0.4935,-0.108,-0.2603,296.5191
17:04:11:663,0.3781,-0.4905,8.1117,39.0412,0.3115,-0.0848,-0.1808,296.6971
17:04:11:683,0.1101,-0.6269,9.612,38.9779,0.083,0.0129,-0.1686,296.957
17:04:11:702,-0.5192,-0.4211,10.7222,40.0531,-0.0269,0.1571,-0.1405,297.0288
17:04:11:721,-1.4572,-0.0766,12.3565,38.6908,-0.1674,0.2402,-0.0526,296.9963
17:04:11:743,-2.6704,0.4857,13.6606,39.3145,-0.2982,0.0398,0.0977,296.8842
17:04:11:764,-3.3476,0.5838,13.1964,41.8785,-0.4448,-0.5161,0.3995,296.5946
17:04:11:781,-3.3308,0.414,11.6459,39.04,-0.7062,-1.243,0.8197,296.0068
17:04:11:801,-2.3163,0.0861,10.7342,41.9129,-1.0776,-1.7317,1.2657,294.9996
17:04:11:822,-0.3183,-0.4905,10.459,40.3429,-1.3525,-1.772,1.6322,293.5212
17:04:11:844,1.998,-1.2514,10.9663,39.5046,-1.3635,-1.3371,1.7238,291.7905
17:04:11:861,3.5222,-2.0937,11.9067,39.3287,-1.0532,-0.571,1.4367,290.2071
17:04:11:881,2.8187,-2.2014,11.5286,40.139,-0.4729,0.1986,0.8552,289.1761
17:04:11:900,0.5408,-1.6223,10.3418,39.8167,0.0464,0.735,0.2956,288.7689
17:04:11:921,-0.8566,-0.7585,9.4875,39.4462,0.1111,0.8913,0.0537,288.6487
17:04:11:942,-1.0433,0.3805,10.1264,38.9083,-0.2554,0.7948,0.0916,288.5386
17:04:11:965,-0.1986,0.9212,11.1194,40.2552,-0.6256,0.6103,0.2932,288.224
17:04:11:981,0.5192,1.0122,11.1697,40.558,-0.7123,0.2829,0.4776,287.7348
17:04:12:002,0.39,1.1222,9.6383,40.0089,-0.5743,-0.1373,0.485,287.2662
17:04:12:021,0.2704,1.2706,7.3125,41.0597,-0.4032,-0.5332,0.4031,286.8977
17:04:12:043,0.2345,1.4572,5.805,39.9762,-0.3177,-0.6664,0.3164,286.6422
17:04:12:061,0.4714,1.7348,5.6566,40.7806,-0.2395,-0.4501,0.1954,286.5303
17:04:12:081,0.1125,2.1152,5.8385,39.9705,-0.0245,0.0032,-0.0196,286.6534
17:04:12:101,-0.2393,2.3809,5.7428,40.5138,0.3237,0.4772,-0.2346,287.0038
17:04:12:120,-0.7466,2.6919,5.47,40.5499,0.5534,0.7753,-0.3397,287.458
17:04:12:144,-1.3017,3.0556,6.0538,40.5537,0.2748,0.6873,0.0268,287.8188
17:04:12:162,-0.6604,2.6848,7.7001,40.6297,-0.1015,0.4796,0.4117,287.8204
17:04:12:188,0.2345,2.2469,9.8177,41.226,-0.4411,0.1901,0.7012,286.7453
17:04:12:201,0.7394,1.9836,11.4305,41.226,-0.5621,-0.108,0.7599,285.9908
17:04:12:222,0.9882,1.7228,11.9067,39.1662,-0.38,-0.2216,0.6597,285.3479
17:04:12:245,1.0887,1.5194,12.1484,41.7613,-0.1137,-0.1325,0.4923,284.8746
17:04:12:266,0.7801,1.6822,12.5695,40.5663,0.0134,-0.0164,0.3029,284.6358
17:04:12:282,0.6006,1.9669,13.2634,41.0877,-0.0013,-0.0127,0.1942,284.505
17:04:12:301,0.5862,1.8281,13.9454,41.0187,-0.066,-0.0665,0.2101,284.369
17:04:12:323,0.8136,1.4979,14.1846,40.709,-0.1344,-0.1923,0.3054,284.1191
17:04:12:342,1.6367,1.2921,14.388,42.0472,-0.3226,-0.3914,0.397,283.7539
17:04:12:362,3.0006,1.2227,15.9841,41.0538,-0.5449,-0.4391,0.4019,283.396
17:04:12:380,4.2425,0.5671,17.5968,41.7448,-0.4472,-0.24,0.1954,283.2305
17:04:12:401,3.74,-0.3565,16.4674,42.1599,0.1392,-0.0335,-0.2676,283.5745
17:04:12:420,2.2875,-0.4307,13.1605,42.3174,0.7879,0.0117,-0.8003,284.488
17:04:12:446,1.0074,-0.1005,10.5811,42.796,1.0298,0.1082,-1.1033,285.7603
17:04:12:463,0.7801,0.347,9.88,42.5521,0.9162,0.3428,-1.0996,287.02
17:04:12:481,0.7107,0.7801,10.6959,43.3709,0.7061,0.6152,-0.964,288.1069
17:04:12:501,0.4068,0.8303,10.5093,44.6711,0.689,0.7227,-0.8357,289.0297
17:04:12:521,0.2967,0.5025,9.746,43.3845,0.7867,0.6128,-0.7502,289.8712
17:04:12:542,0.28,0.1938,8.7434,44.8506,0.8466,0.3452,-0.7538,290.7112
17:04:12:563,0.1172,0.2034,7.5278,44.7951,0.8649,0.0068,-0.8577,291.7316
17:04:12:581,-0.0431,0.3709,6.6377,44.3383,0.8857,-0.2082,-0.975,292.8889
17:04:12:601,-0.6461,0.5192,5.5442,45.4013,1.0176,-0.2045,-1.0385,294.1364
17:04:12:622,-0.9356,0.5432,5.4365,44.7929,1.0433,-0.1459,-0.9848,295.2945
17:04:12:643,-1.2251,0.6508,5.391,45.1306,1.0054,-0.13,-0.8882,297.5328
17:04:12:662,-1.3495,0.7322,5.2786,45.9757,0.893,-0.1557,-0.7306,298.435
17:04:12:682,-1.2395,0.6078,5.4245,44.3561,0.7256,-0.1581,-0.5181,299.1038
17:04:12:700,-0.9547,0.4164,6.317,46.7554,0.5265,-0.0848,-0.3165,299.5238
17:04:12:721,-0.524,0.1771,7.3795,46.7491,0.3481,0.008,-0.1808,299.7719
17:04:12:745,-0.3876,-0.0838,8.3557,46.4314,0.2333,0.0936,-0.1185,299.9023
17:04:12:761,-0.4164,-0.3493,9.0736,46.4474,0.1087,0.0972,-0.0721,299.9854
17:04:12:781,-1.0265,-0.5791,9.5689,46.232,-0.1112,-0.0604,-0.0257,300.0693
17:04:12:800,-1.2443,-0.6796,10.483,46.9148,-0.4643,-0.2583,0.0598,300.1191
17:04:12:821,-1.395,-0.5432,11.4425,48.4509,-0.771,-0.3658,0.061,300.1866
17:04:12:841,-1.7874,-0.0957,12.3302,45.7688,-0.8003,-0.1874,-0.0636,300.3214
17:04:12:861,-2.9815,0.8638,12.6317,48.2203,-0.5327,0.2548,-0.2334,300.5655
17:04:12:881,-3.6658,1.8712,11.2223,47.8602,-0.1992,0.6775,-0.2371,300.765
17:04:12:901,-3.1561,2.2469,10.538,47.552,-0.2701,0.9109,0.1368,300.5208
17:04:12:923,-0.8375,1.6032,12.9069,48.639,-0.8284,0.8987,0.7916,299.5405
17:04:12:940,2.0722,0.347,15.7926,48.1489,-1.2352,0.5725,1.2815,298.0544
17:04:12:960,2.321,-0.2082,14.601,48.1315,-0.9848,-0.0139,1.2156,296.7431
17:04:12:981,0.4594,0.5504,11.3683,49.1362,-0.4802,-0.5051,0.8136,295.9944
17:04:13:001,-1.2012,1.5816,8.528,48.1877,-0.2212,-0.5674,0.5998,295.5208
17:04:13:022,-1.3472,2.2684,7.9442,48.2394,-0.2823,-0.2412,0.7574,294.8304
17:04:13:041,-0.4594,2.2038,9.5785,47.1452,-0.523,0.1351,1.1313,293.6662
17:04:13:063,0.871,1.2251,8.8726,49.9362,-0.5731,-0.1202,1.5967,292.1084
17:04:13:081,0.9906,1.0816,7.3819,47.6141,-0.5071,-0.4245,1.5638,288.8031
17:04:13:100,0.859,1.1868,6.2548,49.184,-0.4729,-0.6126,1.4416,287.365
17:04:13:122,0.7083,1.328,5.5442,49.1764,-0.4423,-0.648,1.3243,286.062
17:04:13:143,1.0911,1.2467,5.3097,48.6686,-0.3812,-0.5552,1.2424,284.827
17:04:13:161,1.2419,1.1222,5.2594,48.8208,-0.2835,-0.3597,1.13,283.6977
17:04:13:180,1.395,1.1246,5.7882,48.7386,-0.2151,-0.1361,0.959,282.722
17:04:13:200,1.1079,1.541,6.6233,49.0566,-0.2029,0.0496,0.7415,281.9874
17:04:13:221,0.8758,2.1679,7.8126,50.5634,-0.2163,0.1949,0.5681,281.4589
17:04:13:244,0.6532,2.5651,9.2578,49.9617,-0.2554,0.2915,0.5265,280.962
17:04:13:260,0.9739,2.6465,10.8443,48.4876,-0.3189,0.2206,0.5681,280.442
17:04:13:282,1.3902,2.814,11.4879,50.0958,-0.3556,-0.0738,0.6096,279.8623
17:04:13:301,1.2395,2.8259,11.677,48.9468,-0.3434,-0.4122,0.6462,279.2852
17:04:13:320,1.4118,2.7063,11.3922,47.9578,-0.3385,-0.6468,0.7318,278.6152
17:04:13:343,2.3115,2.1583,12.3757,51.136,-0.4521,-0.6749,0.8417,277.8028
17:04:13:362,3.5797,1.4812,14.1655,49.4867,-0.5144,-0.5368,0.8124,276.9948
17:04:13:380,4.008,0.7633,15.8501,49.6287,-0.3812,-0.4208,0.5424,276.4656
17:04:13:401,3.8644,0.3733,14.5101,50.5517,-0.0465,-0.5784,0.1404,276.3664
17:04:13:422,3.9051,0.5168,12.8231,49.3208,0.1184,-0.7861,-0.1857,276.6552
17:04:13:444,4.7522,0.4283,13.6702,49.8363,-0.0294,-0.6517,-0.3531,277.1152
17:04:13:465,5.6949,-0.4618,15.2758,51.0597,-0.0941,-0.3108,-0.5009,277.7217
17:04:13:481,5.6662,-1.7037,15.1657,50.7906,0.2064,-0.108,-0.8491,278.6959
17:04:13:502,3.1609,-1.7252,11.4712,52.2156,0.8197,-0.2705,-1.8974,280.2263
17:04:13:523,2.345,-0.7585,10.9185,50.9514,0.7073,-0.2241,-2.1882,282.2994
17:04:13:542,1.9549,-0.1507,11.0883,50.8716,0.5497,0.0166,-2.2663,287.3427
17:04:13:600,1.3878,0.1364,11.3181,51.2497,0.5497,0.3354,-2.2798,289.8966
17:04:13:601,0.5049,0.3374,10.5667,51.3715,0.7879,0.5578,-2.2896,292.4246
17:04:13:601,-0.201,0.2991,8.7458,51.3555,1.1178,0.5444,-2.2602,294.8893
17:04:13:619,-0.7346,0.3924,6.475,50.7263,1.3133,0.3452,-2.1845,297.2892
17:04:13:640,-1.1773,0.6772,4.4076,52.096,1.2607,0.1155,-2.0305,299.543
17:04:13:661,-1.3807,1.1964,3.6419,51.7463,0.959,-0.0225,-1.7361,301.5047
17:04:13:680,-1.7061,1.797,3.8788,51.7193,0.5412,-0.086,-1.3036,303.006
17:04:13:700,-1.8377,2.2062,3.9936,50.9425,0.0696,-0.2412,-0.7013,303.9288
17:04:13:720,-1.1198,1.3495,4.9316,51.357,-0.5963,-0.5918,0.0586,304.0899
17:04:13:742,0.2249,0.067,6.9512,51.357,-1.2926,-1.0781,0.6462,303.6799
17:04:13:760,1.7539,-0.7729,8.3175,51.357,-1.5956,-1.4849,0.755,303.1624
17:04:13:781,2.1655,-0.6102,9.0233,51.357,-1.4454,-1.6376,0.4337,302.9646
17:04:13:800,2.7182,-0.3493,9.4182,52.7132,-1.063,-1.4593,0.0085,303.1635
17:04:13:821,2.4,0.0479,9.6072,52.3164,-0.5376,-0.9644,-0.3898,303.7703
17:04:13:842,1.0911,0.2919,8.4873,51.9547,0.1087,-0.2436,-0.6964,304.6351
17:04:13:862,0.4498,0.4594,7.8437,52.7618,0.4642,0.3843,-0.7037,305.4478
17:04:13:880,0.4762,0.4929,9.3799,51.5279,0.2577,0.8144,-0.4765,305.9369
17:04:13:900,1.718,0.0957,12.4164,51.9741,-0.1687,0.9463,-0.1857,306.0446
17:04:13:920,2.5244,-0.4977,14.1631,52.7425,-0.2419,0.829,-0.1246,306.0858
17:04:13:945,1.6582,-0.7059,12.6269,50.8132,0.0793,0.4882,-0.3372,306.4103
17:04:13:961,0.4451,1.1749,9.1884,52.3822,0.0293,0.0544,-0.5009,307.0731
17:04:13:979,0.8901,0.8973,11.0237,54.7436,-0.2029,0.5309,-0.1735,307.6255
17:04:14:000,0.7346,0.0694,13.4812,52.8236,-0.1699,0.9842,0.1221,307.5721
17:04:14:019,0.1795,-0.28,13.4046,52.8236,-0.0111,0.8974,0.1453,307.3452
17:04:14:041,-1.9286,0.6748,11.7775,52.0244,0.1184,0.4759,0.0977,307.2637
17:04:14:060,-2.1918,0.9452,9.7149,53.1901,0.0451,0.0728,0.2932,307.0179
17:04:14:081,-1.4572,0.8351,9.6263,52.9192,-0.2297,0.0642,0.6768,306.3391
17:04:14:101,0.1149,0.0383,10.7533,53.2016,-0.3727,0.3733,1.0054,305.2548
17:04:14:119,1.6056,-0.792,10.8754,54.0162,-0.1894,0.4869,1.0482,304.0765
17:04:14:143,1.6415,-0.4164,9.813,51.4692,0.1343,0.3354,0.7452,303.263
17:04:14:159,0.8758,0.6963,7.9131,53.6014,0.3909,0.1021,0.3335,302.928
17:04:14:180,0.2871,1.5434,5.8863,52.4609,0.4165,-0.185,0.1698,302.8614
17:04:14:199,0.28,1.7324,5.0656,51.2215,0.1795,-0.3707,0.2944,302.6656
17:04:14:219,1.1151,1.3902,4.5583,52.0862,-0.1674,-0.4562,0.4703,302.2932
17:04:14:242,1.8664,1.0289,5.0441,52.4514,-0.4509,-0.3585,0.5106,301.8314
17:04:14:260,2.4383,1.3663,7.0158,53.5851,-0.4203,0.2866,0.3518,301.4701
17:04:14:282,-1.5769,3.5198,10.002,52.9165,0.0219,1.0453,0.1197,301.3621
17:04:14:300,-1.3232,3.8094,9.6957,51.2883,0.4691,0.7802,0.4605,300.8991
17:04:14:319,0.7418,3.216,8.3222,53.2031,0.4398,0.1461,0.81,300.0956
17:04:14:340,1.864,2.5675,8.8941,52.8908,0.0415,0.0142,0.744,299.3729
17:04:14:361,1.7037,2.1535,10.8682,52.6866,-0.1161,0.432,0.5106,298.8519
17:04:14:380,0.9834,1.718,11.7009,52.5963,0.1685,0.9158,0.2577,298.5275
17:04:14:399,1.4453,1.2825,12.7083,53.9696,0.4129,0.8901,0.0305,298.4438
17:04:14:426,1.3376,0.1268,12.7131,53.8423,0.4568,-0.0482,-0.4386,299.1227
17:04:14:441,1.5625,0.1364,11.0979,52.9579,0.3994,-0.4171,-0.5779,299.8636
17:04:14:464,0.9308,0.4475,10.9615,52.9175,0.2345,-0.3206,-0.7612,300.7999
17:04:14:486,0.2776,0.9595,12.0766,52.4613,0.0427,0.1326,-0.8907,301.803
17:04:14:501,-0.0838,0.9523,12.7011,53.5677,0.0525,0.5786,-0.9017,302.7422
17:04:14:521,-0.737,1.0074,11.8684,55.0792,0.2333,0.7789,-0.8186,303.5726
17:04:14:541,-1.2969,1.1916,10.3849,53.652,0.3396,0.6959,-0.7062,304.3063
17:04:14:560,-0.8949,1.1462,9.5952,54.0162,0.1807,0.4796,-0.5144,304.8511
17:04:14:579,-0.268,0.9763,9.6957,53.2696,-0.1369,0.2719,-0.3397,305.2472
17:04:14:599,-0.1053,-0.1364,10.148,53.7539,-0.446,0.0936,-0.2285,305.5337
17:04:14:619,0.2249,-0.0933,11.0644,53.1943,-0.6256,-0.0677,-0.2517,305.8683
17:04:14:643,-0.4522,0.7466,9.789,52.8378,-0.4374,-0.2302,-0.4008,306.4221
17:04:14:659,-0.3541,1.0887,7.7073,53.1842,-0.1332,-0.2864,-0.413,306.9901
17:04:14:682,0.0024,1.005,6.92,53.9675,-0.0428,-0.1263,-0.3556,307.4848
17:04:14:700,-0.0933,0.7418,7.2239,52.3519,-0.0721,0.1021,-0.3678,307.9631
17:04:14:719,-0.3254,1.1892,7.3771,53.5228,-0.0379,0.2316,-0.4924,308.5443
17:04:14:739,-0.5623,1.7539,7.0301,52.7215,-0.0074,0.0874,-0.5095,309.1703
17:04:14:759,-0.8375,1.9741,6.6209,51.996,0.0415,-0.0543,-0.457,309.7642
17:04:14:779,-1.0911,2.199,6.0849,52.4193,0.0952,-0.0983,-0.3837,310.2967
17:04:14:800,-1.2299,2.6058,6.0802,53.6487,0.1001,-0.0555,-0.281,310.7128
17:04:14:819,-0.8782,2.6776,7.5709,53.4882,0.0891,0.1302,-0.1454,310.961
17:04:14:839,-0.5815,2.4191,9.0066,53.9435,0.1722,0.2964,-0.0233,311.0603
17:04:14:858,-0.603,2.6273,10.1073,53.7701,0.3176,0.3232,0.0048,311.0843
17:04:14:879,-0.536,1.3185,14.4168,53.2235,0.568,0.2072,-0.022,311.1449
17:04:14:899,-0.4355,2.5053,11.4951,53.2236,0.5424,-0.5014,-0.1662,311.4758
17:04:14:919,-0.8973,2.9767,10.8012,54.1966,0.4288,-0.5271,-0.2065,311.8946
17:04:14:939,-1.0863,2.7829,11.2702,53.6101,0.3164,-0.2717,-0.0709,312.1332
17:04:14:961,-0.7872,2.1559,10.7246,53.8734,0.243,-0.2607,0.0684,312.2126
17:04:14:979,-0.6772,2.0124,9.1454,55.6314,0.0085,-0.477,0.182,312.2061
17:04:14:999,-0.6796,1.1438,9.6455,54.3327,-0.4435,-0.4843,0.2773,312.105
17:04:15:019,-0.6413,0.859,11.4401,53.9344,-0.9322,-0.3609,0.3701,311.8591
17:04:15:041,-0.3063,0.2345,13.6391,55.6695,-1.1546,-0.2302,0.496,311.4235
17:04:15:060,0.1053,-0.9188,15.1083,53.9734,-0.9383,-0.1227,0.5717,310.8952
17:04:15:083,-0.1029,-1.151,13.9861,54.7037,-0.3996,-0.1654,0.4398,310.5086
17:04:15:099,-2.144,0.5934,9.4301,55.7015,0.0903,-0.1874,0.2492,310.3728
17:04:15:118,-1.5529,0.2776,11.3252,54.2979,0.0073,-0.1276,0.3506,310.0966
17:04:15:142,-0.8112,0.1005,9.8967,54.1027,-0.1406,-0.4245,0.507,309.684
17:04:15:160,-0.1842,-0.1077,8.9516,54.7102,-0.2114,-0.4513,0.6426,309.1272
17:04:15:181,0.1914,-0.0072,8.5041,53.125,-0.3385,-0.3401,0.689,308.4996
17:04:15:199,0.615,0.1316,7.87,53.9343,-0.3898,-0.2766,0.6768,307.8707
17:04:15:218,0.5695,0.3829,7.1234,53.4351,-0.3446,-0.2277,0.612,307.3032
17:04:15:243,0.2513,0.9523,6.8076,54.5523,-0.2933,-0.2143,0.4947,306.8835
17:04:15:262,0.1747,1.4883,7.0612,55.9294,-0.292,-0.2803,0.4092,306.5789
17:04:15:282,0.5743,1.5458,7.6355,54.3327,-0.2688,-0.3475,0.3432,306.3478
17:04:15:303,0.5862,1.261,8.1117,52.5764,-0.11,-0.3792,0.2418,306.2123
17:04:15:328,0.8542,1.3256,8.0901,52.8324,0.1136,-0.3866,0.1417,306.2214
17:04:15:345,0.8207,1.7492,9.0784,53.6978,0.535,0.0777,0.0293,306.1956
17:04:15:358,0.6269,1.9095,9.2602,53.3291,0.7513,0.2682,-0.0061,306.2739
17:04:15:385,0.1268,2.3641,7.5829,54.1862,0.8637,0.2841,-0.0171,306.3678
17:04:15:405,0.4403,2.6297,9.4875,53.5756,0.6254,0.3318,0.0415,306.3925
17:04:15:417,0.4642,2.4981,10.3346,54.4926,0.375,0.2182,0.0769,306.3692
17:04:15:440,0.4762,2.4861,9.8058,53.959,0.3212,0.0948,0.0525,306.4112
17:04:15:461,0.9356,2.3115,10.392,53.9913,0.1685,-0.0237,0.0219,306.4926
17:04:15:477,1.1127,1.9956,11.0955,55.6599,-0.0538,-0.3072,-0.0465,306.6834
17:04:15:498,1.7803,1.5458,11.5238,54.4709,-0.1247,-0.5552,-0.1173,306.979
17:04:15:517,2.601,1.005,11.5071,55.219,-0.0721,-0.5662,-0.1772,307.3266
17:04:15:540,2.8187,0.7322,11.7344,54.9029,0.0476,-0.378,-0.2762,307.7359
17:04:15:559,2.1152,0.7801,11.7033,55.0035,0.1355,-0.0494,-0.3959,308.2224
17:04:15:580,1.7563,0.7298,12.2584,54.8753,0.0696,0.2182,-0.4667,308.7488
17:04:15:597,1.8042,0.3972,12.4499,53.7731,-0.1491,0.3745,-0.496,309.2645
17:04:15:640,1.3232,0.2201,12.0718,54.8068,-0.3531,0.581,-0.5632,309.8072
17:04:15:640,0.3709,0.4522,11.0644,53.1819,-0.4729,0.6751,-0.6304,310.4557
17:04:15:658,0.0479,0.5168,11.3133,54.5349,-0.4435,0.5969,-0.5523,311.0294
17:04:15:677,-0.1675,1.0337,11.6937,53.1083,-0.2603,0.4442,-0.3837,311.4633
17:04:15:698,0.4834,0,10.1504,52.2131,0.0683,0.3,-0.1931,311.6706
17:04:15:718,0.2632,-0.067,8.6644,53.9184,0.3224,0.3037,-0.0538,311.7383
17:04:15:741,0.0072,0.7322,7.2909,53.9578,0.375,0.2915,-0.0599,311.8144
17:04:15:760,0.0383,0.9954,6.7525,52.2927,0.2345,0.3269,-0.1002,311.9287
17:04:15:780,0.0191,1.005,6.53,53.2295,0.0011,0.4466,-0.165,312.3426
17:04:15:805,-0.4403,1.4596,6.6975,55.1082,-0.2261,0.8486,-0.3568,312.6182
17:04:15:819,-0.5456,1.6128,6.8889,55.2152,-0.2652,0.9146,-0.3702,312.9628
17:04:15:841,-0.8016,1.7707,7.1641,54.6064,-0.2945,0.9475,-0.3556,313.2884
17:04:15:862,-1.005,1.8329,7.3651,53.9802,-0.3262,0.9842,-0.3177,313.5494
17:04:15:882,-1.1821,1.6822,7.5589,53.982,-0.3495,0.9915,-0.2456,313.7567
17:04:15:900,-1.3807,1.8712,8.4347,51.3076,-0.3519,0.9231,-0.165,313.8846
17:04:15:921,-1.4836,2.1918,9.3344,52.2545,-0.3006,0.6971,-0.0904,313.9562
17:04:15:941,-1.4118,2.1607,10.6528,53.7247,-0.1577,0.4723,-0.0416,313.996
17:04:15:962,-1.3639,1.8281,11.3085,55.8203,0.138,0.3965,-0.0306,314.0189
17:04:15:979,-1.9741,1.5649,10.3657,53.7486,0.5949,0.5529,-0.044,314.039
17:04:15:999,-2.6848,1.797,10.2915,54.1734,0.9211,0.6885,0.0158,313.9503
17:04:16:018,-2.8546,1.9813,10.6457,53.9657,0.9113,0.1864,0.1734,313.7295
17:04:16:039,-2.2516,1.8257,10.8945,53.5213,0.8417,-0.4697,0.298,313.5018
17:04:16:059,-1.9095,1.6702,10.5595,53.1309,0.838,-0.8838,0.2883,313.3788
17:04:16:078,-2.0602,1.8138,10.3298,53.2134,0.7574,-1.0695,0.1917,313.4087
17:04:16:098,-2.2684,1.8497,10.7653,52.2072,0.5521,-1.072,0.1514,313.5106
17:04:16:118,-1.0863,1.9023,11.7727,53.8821,0.2773,-1.1196,0.2113,313.5459
17:04:16:138,-0.268,1.5027,12.7442,52.9377,-0.0465,-1.1245,0.2382,313.5466
17:04:16:157,-1.1342,0.7274,12.7155,53.1884,-0.3324,-0.5307,0.1624,313.5018
17:04:16:179,-2.0052,0.3589,11.3204,53.3658,-0.4826,0.1045,0.0305,313.4648
17:04:16:198,-2.7494,0.3493,10.6576,53.6355,-0.5914,0.5432,0.1099,313.2561
17:04:16:218,-2.8235,0.6843,10.2533,53.3513,-0.6525,0.5993,0.3775,312.7648
17:04:16:238,-2.2804,0.4164,9.8513,53.3513,-0.6207,0.2194,0.6438,312.0401
17:04:16:258,-0.7489,0.5551,9.3081,52.9374,-0.2016,-0.7763,0.5681,310.8234
17:04:16:278,-0.9093,0.9117,8.8534,53.3197,0.0744,-1.0488,0.3555,310.5956
17:04:16:298,-1.4477,1.1916,8.3246,52.5776,0.2809,-1.0329,0.226,310.5299
17:04:16:317,-1.3998,1.4046,7.6618,52.0817,0.364,-0.9742,0.2883,310.3829
17:04:16:338,-0.8375,1.3232,7.1904,52.8393,0.3078,-0.8679,0.4703,310.0322
17:04:16:358,0.0215,1.4764,7.1282,53.6549,0.2101,-0.5368,0.6255,309.4494
17:04:16:378,0.3111,1.8688,6.9894,53.1607,0.1697,-0.1117,0.6401,308.7841
17:04:16:397,0.1819,2.211,6.9129,52.2709,0.1148,0.173,0.5534,308.1638
17:04:16:418,0.5695,1.9214,7.0062,52.0612,0.0293,0.1424,0.4434,307.6652
17:04:16:439,0.1603,2.4646,7.6307,53.6208,-0.0318,-0.0054,0.287,307.3737
17:04:16:458,0.1436,2.4431,8.7123,53.8204,-0.0147,-0.1337,0.2003,307.177
17:04:16:478,0.1795,2.4239,9.5498,52.4897,0.0854,-0.1276,0.1502,307.0352
17:04:16:498,-0.2943,2.4215,9.7747,52.3605,0.2015,0.0593,0.1038,306.9409
17:04:16:518,-0.4379,2.4574,10.27,53.65,0.243,0.3354,0.1563,306.7112
17:04:16:538,-0.0981,2.3569,11.0405,50.9337,0.1734,0.4796,0.2284,306.3494
17:04:16:559,0.3183,2.0267,11.6961,52.3643,0.0305,0.3721,0.1624,306.0656
17:04:16:582,0.4498,1.6223,11.9928,52.0116,-0.1332,0.1339,-0.0257,306.0396
17:04:16:599,0.0526,1.5745,11.866,51.4596,-0.2603,0.1143,-0.1161,306.1106
17:04:16:618,-0.0239,1.3615,11.8804,51.3319,-0.2688,0.6128,0.0439,305.9207
17:04:16:640,-0.4092,1.5697,11.9976,50.1762,-0.1674,1.2053,0.3115,305.3241
17:04:16:661,-0.6054,2.0243,12.1508,52.93,0.0097,1.3128,0.4923,304.5201
17:04:16:681,-0.0861,2.1559,12.0622,52.511,0.2308,0.7704,0.5057,303.7762
17:04:16:699,0.7801,1.8257,11.3013,50.9375,0.4398,-0.0445,0.2858,303.4259
17:04:16:718,-0.1292,1.7539,8.9898,52.3645,0.2333,-0.4,-0.3214,304.0147
17:04:16:738,0.2919,1.2873,9.1861,54.2494,-0.1687,-0.3011,-0.3018,304.3554
17:04:16:760,0.5575,1.151,9.3583,51.8606,-0.2774,-0.0787,-0.2163,304.5611
17:04:16:777,0.5456,1.1174,9.7699,52.3221,-0.2505,-0.0714,-0.1955,304.723
17:04:16:798,0.3422,1.139,9.3799,51.0178,-0.2249,-0.4428,-0.3556,305.1345
17:04:16:817,-0.0838,1.1127,8.4203,52.7179,-0.2554,-0.7262,-0.5779,305.8452
17:04:16:840,-0.4618,0.9021,7.3747,51.0916,-0.3629,-0.6126,-0.6463,306.6134
17:04:16:860,-0.6245,0.8853,7.0158,50.262,-0.5107,-0.1948,-0.5205,307.1744
17:04:16:878,-0.7561,1.1797,7.2239,51.8967,-0.6451,0.2328,-0.2981,307.4428
17:04:16:898,-0.7178,1.5075,7.5541,52.8292,-0.7123,0.4271,-0.1039,307.4658
17:04:16:918,-0.4475,1.7444,7.6929,52.6844,-0.6867,0.4564,-0.0159,307.3738
17:04:16:938,-0.3565,1.8521,7.8341,51.3464,-0.5706,0.5126,-0.0061,307.2787
17:04:16:958,-0.4427,1.8257,8.1141,51.9672,-0.402,0.5578,-0.0403,307.2396
17:04:16:978,-0.5647,1.8281,8.3797,51.0391,-0.2432,0.4344,-0.088,307.2584
17:04:16:998,-0.6365,1.8855,8.8391,52.2871,-0.1234,0.2206,-0.0941,307.2935
17:04:17:018,-0.548,1.8281,9.5115,50.7203,-0.0428,0.1119,-0.0343,307.2739
17:04:17:038,-0.6245,1.7133,10.2006,49.9459,0.0207,0.1962,0.0537,307.1614
17:04:17:058,-1.0433,1.675,10.459,51.9104,0.0757,0.3916,0.1185,306.9418
17:04:17:079,-1.3543,1.7109,10.6911,51.242,0.1319,0.5749,0.1832,306.6305
17:04:17:098,-1.5314,1.7827,11.0261,51.9897,0.1942,0.6213,0.2809,306.1992
17:04:17:118,-1.3878,1.7635,11.4233,50.1586,0.2638,0.4674,0.364,305.6833
17:04:17:138,-1.1055,1.7611,11.8373,50.1599,0.3335,0.1937,0.3775,305.1889
17:04:17:158,-1.0313,1.718,12.2201,49.1382,0.3945,0.0056,0.3286,304.7495
17:04:17:179,-1.3472,1.4812,12.682,50.2981,0.4935,0.1742,0.2357,304.3889
17:04:17:200,-1.462,1.2323,12.7083,47.4021,0.4911,0.1424,0.2064,304.0975
17:04:17:217,-1.5553,0.9715,12.213,49.5333,0.4141,-0.174,0.16,303.5732
17:04:17:238,-1.6989,0.8112,11.4712,49.1953,0.2785,-0.3866,0.1551,303.3867
17:04:17:258,-1.9262,0.8949,10.9567,48.4364,0.1331,-0.2204,0.259,303.0674
17:04:17:278,-1.7396,1.0337,10.7055,48.1828,0.0207,0.0593,0.4544,302.4844
17:04:17:298,-0.9834,1.0313,10.3226,46.9671,-0.0367,0.0948,0.6157,301.7086
17:04:17:318,-0.2967,1.0146,9.7867,49.053,-0.0294,-0.064,0.601,300.9797
17:04:17:339,-0.1484,1.0337,9.1932,47.6874,0.0085,-0.2253,0.3933,300.4984
17:04:17:359,-0.5121,1.0504,8.3821,47.3528,0.0207,-0.2962,0.1294,300.3274
17:04:17:379,-0.9858,0.9356,7.6451,45.6706,-0.0257,-0.2436,-0.0135,300.3122
17:04:17:400,-1.206,0.8351,7.1497,45.1884,-0.1259,-0.1263,0.0256,300.2231
17:04:17:419,-1.0265,0.7633,6.9966,45.0909,-0.2346,-0.0176,0.1673,299.99
17:04:17:440,-0.6221,0.8375,7.0899,47.8876,-0.303,-0.0286,0.2956,299.5979
17:04:17:460,-0.3637,1.0744,7.2,45.5107,-0.3128,-0.1679,0.3396,299.1877
17:04:17:479,-0.1388,1.261,7.1689,45.201,-0.2688,-0.3145,0.3017,298.8415
17:04:17:500,0.0838,1.2921,7.0349,45.6729,-0.198,-0.3536,0.226,298.5863
17:04:17:520,0.1053,1.4572,7.0899,44.885,-0.1259,-0.2558,0.138,298.4236
17:04:17:544,-0.0359,1.6654,7.3244,44.8595,-0.0697,-0.1276,0.0562,298.3417
17:04:17:562,-0.0455,1.7683,7.7336,45.0139,-0.0367,-0.1007,0.0073,298.2882
17:04:17:579,0.0048,1.7683,8.4012,44.7878,-0.0269,-0.1667,-0.0196,298.2736
17:04:17:600,-0.2536,1.9262,9.2674,43.6637,-0.0453,-0.2155,-0.0672,298.3223
17:04:17:618,-0.7298,2.1081,10.3011,43.476,-0.0941,-0.1398,-0.1308,298.4461
17:04:17:639,-0.9643,1.6223,11.5693,43.7588,-0.2517,-0.0897,-0.2517,298.5983
17:04:17:705,-0.8662,1.4213,12.2034,43.7828,-0.3763,-0.2363,-0.2822,298.893
17:04:17:705,-0.5145,1.0361,12.5169,42.4945,-0.5034,-0.4587,-0.2688,299.1581
17:04:17:705,0.012,0.6006,12.6413,42.7157,-0.5865,-0.5527,-0.2065,299.6423
17:04:17:718,0.3302,0.323,12.4881,41.955,-0.6073,-0.488,-0.0929,299.7058
17:04:17:740,0.5886,0.3709,12.6317,43.1982,-0.5596,-0.3438,-0.0233,299.6793
17:04:17:762,1.0074,0.3972,12.5288,42.066,-0.4655,-0.3108,-0.0941,299.7213
17:04:17:779,1.407,0.1507,11.933,41.5127,-0.347,-0.356,-0.3055,299.982
17:04:17:799,1.3902,-0.146,11.1601,40.5812,-0.2187,-0.2424,-0.5767,300.5221
17:04:17:823,1.0146,-0.4116,10.4184,41.67,-0.1051,0.041,-0.7832,301.2957
17:04:17:844,0.6915,-0.5049,10.1743,40.5812,-0.0074,0.3538,-0.8333,302.1047
17:04:17:858,0.6915,-0.5551,9.7867,41.764,0.0586,0.3782,-0.7477,302.8093
17:04:17:879,0.6341,-0.4331,9.3655,42.0871,0.1026,0.2072,-0.6207,303.3847
17:04:17:898,0.4044,0.0383,8.8511,40.1977,0.1294,0.0716,-0.5144,303.8742
17:04:17:918,0.1005,0.5145,8.3916,41.4296,0.1514,0.0984,-0.4117,304.2567
17:04:17:940,0.0431,0.725,8.0136,41.1893,0.1746,0.2157,-0.3091,304.532
17:04:17:959,-0.0168,0.8519,7.6929,40.4145,0.1893,0.278,-0.2456,304.7425
17:04:17:977,-0.3302,1.2371,7.5087,40.4712,0.1954,0.2707,-0.2505,304.9698
17:04:17:997,-0.6078,1.5793,7.3866,41.5919,0.2113,0.2572,-0.2774,305.231
17:04:18:017,-0.7777,1.7037,7.2383,39.921,0.2382,0.2499,-0.2627,305.4805
17:04:18:039,-0.7298,1.785,7.401,40.3197,0.2565,0.2133,-0.2053,305.6707
17:04:18:058,-0.4498,1.9095,7.6977,40.3137,0.2553,0.0911,-0.1369,305.7804
17:04:18:079,-0.122,1.9956,8.2481,39.84,0.2528,-0.0494,-0.099,305.8733
17:04:18:100,0.4642,1.9071,9.6335,40.7142,0.2211,-0.2339,-0.1576,305.9909
17:04:18:117,0.347,1.9478,10.2054,37.9325,0.1539,-0.2729,-0.1857,306.1948
17:04:18:141,0.0574,1.7659,10.6457,39.1302,0.0732,-0.24,-0.1698,306.5785
17:04:18:159,-0.2871,1.4668,10.9615,39.37,0.0085,-0.0958,-0.1063,306.6576
17:04:18:183,-0.5168,1.5362,11.5238,39.6565,-0.0159,0.1045,0.0232,306.5918
17:04:18:199,-0.3254,1.663,12.213,39.4997,0.0121,0.2059,0.2003,306.3049
17:04:18:218,0.2082,1.6415,12.4642,39.112,0.0867,0.1143,0.3225,305.9128
17:04:18:236,0.4379,1.6989,12.3709,40.3409,0.2039,0.0557,0.3103,305.5413
17:04:18:259,0.1196,1.9286,12.1532,39.4997,0.3579,0.1864,0.2455,305.2293
17:04:18:278,-0.4116,2.0674,11.9904,38.8444,0.5021,0.2903,0.2504,304.9077
17:04:18:299,-0.1771,1.8425,11.8708,40.4055,0.59,0.1901,0.287,304.5486
17:04:18:319,0.3254,1.3615,11.4784,38.5747,0.6059,-0.1581,0.226,304.2877
17:04:18:338,0.1675,1.1079,10.7605,40.2471,0.5607,-0.4868,0.0305,304.3118
17:04:18:360,-0.6126,1.2299,9.88,38.1899,0.4617,-0.4745,-0.1369,304.5563
17:04:18:379,-1.2251,1.2706,9.0856,39.2586,0.342,-0.1422,-0.0856,304.6722
17:04:18:400,-0.9715,1.0433,8.7099,39.2449,0.2137,0.1827,0.1514,304.4537
17:04:18:420,-0.2177,0.9476,8.5328,40.1968,0.0952,0.1314,0.3261,304.0532
17:04:18:442,0.4475,1.1486,8.4299,39.0323,0.0109,-0.2534,0.2565,303.8102
17:04:18:459,0.8136,1.328,8.2409,40.2622,-0.0502,-0.6211,-0.0147,303.9242
17:04:18:478,0.536,1.2802,7.7384,40.088,-0.121,-0.703,-0.3165,304.4089
17:04:18:499,-0.0574,1.1844,7.2766,40.088,-0.2102,-0.4098,-0.4533,304.9973
17:04:18:520,-0.3876,1.1892,7.0708,39.2338,-0.3177,0.0142,-0.3604,305.4003
17:04:18:548,-0.1771,1.3065,7.3795,39.4623,-0.4044,0.2731,-0.1418,305.5118
17:04:18:564,0.1436,1.5242,8.1954,39.9963,-0.4093,-0.0848,-0.0013,305.4728
17:04:18:582,0.2393,1.462,8.4945,38.9432,-0.3397,-0.2986,-0.132,305.6721
17:04:18:597,-0.0144,1.5769,8.9276,39.9504,-0.2493,-0.2791,-0.2358,305.979
17:04:18:617,-0.1125,1.7587,9.4708,40.3814,-0.1528,-0.1667,-0.2297,306.2728
17:04:18:640,0.1723,1.8018,9.7268,39.5313,-0.0502,-0.1166,-0.1711,306.4816
17:04:18:659,0.3757,1.7922,9.7436,39.4204,0.0561,-0.0518,-0.1564,306.6721
17:04:18:679,0.2345,1.7659,9.8154,38.7933,0.1514,0.1461,-0.2089,306.8964
17:04:18:699,-0.0239,1.7874,10.1169,38.0365,0.2015,0.3623,-0.2725,307.1685
17:04:18:718,0.0646,1.6702,10.7342,38.2406,0.1905,0.3855,-0.3055,307.458
17:04:18:740,0.1651,1.6104,11.33,38.4661,0.116,0.1119,-0.3556,307.8286
17:04:18:758,0.122,1.5649,11.7679,38.8716,-0.0086,-0.2998,-0.4484,308.3723
17:04:18:781,0.2297,1.2108,11.9617,38.1379,-0.1296,-0.4929,-0.457,308.9521
17:04:18:799,0.2584,1.0887,12.0646,39.5591,-0.2029,-0.3414,-0.2908,309.3192
17:04:18:819,0.5192,1.3065,12.6724,40.4626,-0.209,-0.1593,-0.0306,309.3859
17:04:18:844,1.5458,1.0983,12.536,38.0365,-0.154,-0.2998,0.0952,309.3077
17:04:18:862,2.412,0.5934,11.6411,39.8843,-0.0746,-0.5222,-0.0856,309.4434
17:04:18:879,1.8209,0.414,10.4782,40.6608,0.006,-0.389,-0.4484,309.9666
17:04:18:899,0.201,0.6748,9.4947,39.5131,0.0769,0.1485,-0.6793,310.7059
17:04:18:918,-0.6341,0.95,8.8846,40.1775,0.1306,0.7093,-0.5767,311.2462
17:04:18:942,-0.3541,1.2395,8.6859,40.2155,0.1514,0.8217,-0.2383,311.4071
17:04:18:958,0.5192,1.5697,8.9587,40.9554,0.1502,0.4063,0.0427,311.3056
17:04:18:977,1.2084,1.9836,9.0808,39.1257,0.1624,-0.2901,0.0207,311.3548
17:04:18:998,1.5194,1.7539,8.7841,41.406,0.1771,-0.78,-0.2945,311.7977
17:04:19:019,-0.414,1.3017,7.5757,40.2351,0.039,-0.4868,-0.8479,312.7226
17:04:19:042,-1.0265,1.1079,7.523,40.5984,-0.1198,-0.0201,-0.7111,314.5439
17:04:19:061,-0.8016,0.9763,7.48,41.8044,-0.2847,0.2988,-0.4044,314.9685
17:04:19:080,-0.4642,1.2562,7.5685,40.3458,-0.3666,0.5541,-0.1075,315.0373
17:04:19:097,-0.2823,1.5338,7.4824,41.0035,-0.3116,0.7606,0.0684,314.8972
17:04:19:118,-0.1484,1.742,7.4321,40.5982,-0.1601,0.8217,0.1136,314.6884
17:04:19:138,-0.0885,2.077,7.748,39.8411,0.0256,0.7178,0.0769,314.5303
17:04:19:160,0.0622,2.345,8.2385,40.6879,0.2052,0.4014,0.0085,314.4986
17:04:19:179,0.2847,2.3545,8.6166,41.0128,0.3457,-0.0738,-0.0782,314.5953
17:04:19:198,0.2273,2.4335,9.2291,39.8255,0.408,-0.4831,-0.165,314.8936
17:04:19:217,0.0335,2.2684,9.7699,41.0499,0.3872,-0.6541,-0.1894,315.2567
17:04:19:238,-0.1364,2.0506,10.5787,41.9215,0.287,-0.5393,-0.1308,315.5453
17:04:19:259,-0.3398,2.144,11.6937,41.0499,0.138,-0.2192,0.0097,315.6307
17:04:19:278,-0.2704,2.3186,12.5527,41.5226,0.0097,0.0838,0.2064,315.438
17:04:19:299,-0.2201,2.4311,12.8423,43.0455,-0.0331,0.2426,0.3811,315.0326
17:04:19:322,-0.1699,2.5436,12.6317,42.5864,0.0256,0.3073,0.4801,314.511
17:04:19:349,-0.2177,2.6991,12.3637,42.5534,0.1355,0.3733,0.5228,313.9272
17:04:19:358,-0.0909,2.4622,12.2847,41.8118,0.254,0.4344,0.4838,313.3564
17:04:19:378,0.012,2.0052,11.9187,42.9892,0.3335,0.3562,0.3029,313.0037
17:04:19:397,-0.3661,1.675,11.2774,42.2423,0.353,0.1705,0.0647,312.9515
17:04:19:419,-0.993,1.4764,10.4495,43.4686,0.3127,0.1253,-0.0306,313.0151
17:04:19:439,-1.3783,1.5721,9.8656,42.6403,0.2296,0.2389,0.1172,312.9198
17:04:19:460,-0.9858,1.6439,9.7388,44.1737,0.1404,0.2756,0.4104,312.4848
17:04:19:479,0.5216,1.4907,9.2865,44.9533,0.0757,-0.2387,0.5094,311.8815
17:04:19:499,0.6508,1.3232,8.7936,44.7209,0.0818,-0.4648,0.1979,311.3192
17:04:19:517,0.28,1.2299,8.3127,45.1078,0.0378,-0.5588,-0.1405,311.6624
17:04:19:539,-0.1795,1.1605,7.8844,45.1078,-0.077,-0.5332,-0.3262,312.206
17:04:19:560,-0.3805,1.1462,7.7671,45.1078,-0.2603,-0.4367,-0.3262,312.7256
17:04:19:577,-0.3589,1.2227,7.7408,45.6807,-0.468,-0.3181,-0.1992,313.0762
17:04:19:597,0.0168,1.328,7.937,47.1508,-0.6036,-0.174,-0.0403,313.235
17:04:19:617,0.2201,1.3807,8.1428,44.4334,-0.6317,-0.0567,0.0537,313.2635
17:04:19:637,0.1962,1.3878,8.2074,46.1284,-0.5633,0.0068,0.028,313.2945
17:04:19:659,0.0383,1.3567,8.2552,45.1583,-0.4252,0.074,-0.077,313.4394
17:04:19:677,-0.1651,1.3304,8.473,46.632,-0.2566,0.1766,-0.1686,313.6841
17:04:19:698,-0.4618,1.517,8.7577,48.1098,-0.0807,0.2524,-0.1833,313.9341
17:04:19:892,-0.5862,1.8138,9.1238,47.9171,0.0818,0.2365,-0.1137,314.1256
17:04:19:893,-0.4092,1.9119,9.5354,48.3648,0.2174,0.1339,-0.033,314.2419
17:04:19:895,-0.1747,2.0052,9.9876,46.8289,0.3176,0.0154,-0.0208,314.3618
17:04:19:896,-0.0263,2.0291,10.7127,47.3602,0.3787,-0.0689,-0.0795,314.5463
17:04:19:897,-0.1603,2.0219,11.5119,47.1305,0.408,-0.0665,-0.1552,314.8254
17:04:19:898,-0.39,1.8138,12.1938,48.5583,0.3933,0.0471,-0.2151,315.1448
17:04:19:899,-0.8614,1.596,12.6245,49.706,0.3298,0.41,-0.1967,315.3502
17:04:19:901,-1.2395,1.5434,12.3709,48.5507,0.2382,0.9842,-0.0575,315.2898
17:04:19:902,-1.407,1.8473,10.5571,47.1339,0.1478,1.4594,0.1673,314.8657
17:04:19:902,-1.206,2.2588,10.727,48.5459,-0.0538,1.7307,0.3823,314.1399
17:04:19:916,-1.3854,2.6704,11.4018,48.4799,-0.3825,1.3837,0.408,313.479
17:04:19:942,-0.2177,2.01,11.0022,50.8071,-0.4008,0.2267,-0.1564,313.2985
17:04:19:964,-0.3039,1.4189,10.4471,48.8775,-0.231,-0.1068,-0.5034,313.9172
17:04:19:977,-0.6676,1.0552,9.8297,47.7665,-0.0733,-0.3133,-0.7257,314.8258
17:04:19:997,-1.072,0.9141,9.4708,50.8964,0.0231,-0.5772,-0.7404,315.8001
17:04:20:016,-1.0289,0.8064,9.2435,47.1146,0.0182,-1.0634,-0.6109,316.709
17:04:20:036,-0.6245,0.7801,9.2363,49.1363,-0.0733,-1.5912,-0.4716,317.5501
17:04:20:056,-0.1938,0.8207,9.1167,49.3176,-0.1735,-1.7451,-0.3702,318.2796
17:04:20:076,-0.0479,0.9069,8.9204,47.8616,-0.2273,-1.3603,-0.2786,318.8585
17:04:20:096,0.0933,1.0074,8.5543,49.7995,-0.2139,-0.6175,-0.1564,319.1743
17:04:20:116,0.0239,1.0241,8.1859,48.7657,-0.1491,0.1168,-0.0257,319.2522
17:04:20:136,-0.2752,1.1964,7.87,49.7292,-0.0563,0.5016,0.0305,319.2071
17:04:20:158,-0.457,1.4118,7.2742,50.3836,0.0341,0.4491,0.0073,319.2049
17:04:20:176,-0.6221,1.6439,6.9751,49.2975,0.1209,0.3025,0.0073,319.2189
17:04:20:197,-0.6054,1.9478,7.1306,49.8966,0.1942,0.1852,0.0562,319.2082
17:04:20:216,-0.2273,2.1464,7.4154,48.7593,0.2321,-0.0054,0.1124,319.1573
17:04:20:236,0.3254,2.1631,7.7743,50.4456,0.2272,-0.2534,0.1099,319.1287
17:04:20:256,0.5791,2.1248,8.2863,49.9615,0.1673,-0.4904,-0.0001,319.2802
17:04:20:277,0.3493,2.1488,8.9157,50.1812,0.0598,-0.5955,-0.1723,319.6367
17:04:20:296,-0.0144,1.8616,9.5115,48.7413,-0.0611,-0.4073,-0.2652,320.0652
17:04:20:316,-0.5025,1.6917,10.2556,49.2974,-0.1784,-0.0188,-0.2102,320.3576
17:04:20:336,-0.7346,1.7659,11.0979,51.1295,-0.2615,0.2572,-0.0343,320.4244
17:04:20:357,-0.4068,1.8999,11.8277,50.2262,-0.2713,0.2805,0.1771,320.2196
17:04:20:376,0.0742,1.8473,12.2824,49.347,-0.1821,0.1107,0.3042,319.9143
17:04:20:396,-0.3159,1.4931,12.2417,50.6654,0.1612,-0.1007,0.182,319.6636
17:04:20:416,-0.8638,1.2299,12.1866,51.2926,0.3383,0.0752,0.1075,319.4074
17:04:20:436,-0.8542,1.1007,11.866,50.6654,0.4715,0.085,0.1172,319.3091
17:04:20:455,-0.6317,1.2849,11.3874,50.7907,0.5436,-0.1166,0.2125,319.1568
17:04:20:476,-0.5264,1.4596,10.7486,50.9647,0.5656,-0.2229,0.3359,318.8849
17:04:20:497,-0.6604,1.5434,9.9206,51.8658,0.5448,-0.0824,0.4153,318.4965
17:04:20:516,-0.6652,1.7228,9.3775,53.164,0.4849,0.2059,0.4715,318.0083
17:04:20:539,-0.2656,1.8425,9.1837,51.4806,0.3823,0.2878,0.5204,317.4277
17:04:20:559,0.0431,1.919,9.1932,51.7544,0.243,0.0056,0.4459,316.9926
17:04:20:577,0.134,1.7037,8.6835,51.4726,0.0427,-0.4171,0.1795,316.9214
17:04:20:598,-0.2943,1.462,7.9346,50.6546,-0.2419,-0.5857,-0.1039,317.2106
17:04:20:618,-0.9906,1.2156,7.5685,50.3882,-0.5645,-0.2803,-0.1638,317.5018
17:04:20:636,-1.127,1.0074,7.6044,51.8029,-0.8516,0.1913,0.0403,317.4518
17:04:20:656,-0.6365,1.139,7.9107,52.0645,-1.0288,0.4491,0.353,317.0251
17:04:20:678,0.0694,1.3591,8.1547,52.6374,-1.052,0.3892,0.5839,316.3597
17:04:20:697,0.5815,1.5936,8.1045,51.8299,-0.9322,0.2047,0.6389,315.6592
17:04:20:722,0.8853,1.6774,8.1165,53.2328,-0.7209,0.118,0.5351,315.0963
17:04:20:742,0.9476,1.6008,8.1308,52.4892,-0.4729,0.1278,0.3567,314.7054
17:04:20:759,0.7035,1.5745,8.5065,52.0973,-0.2261,0.1754,0.1673,314.5323
17:04:20:780,0.5001,1.5434,9.0425,51.3464,-0.0147,0.0544,0.0268,314.5241
17:04:20:796,0.2823,1.5458,9.7125,52.0973,0.1502,-0.2375,-0.0501,314.6389
17:04:20:816,0.012,1.5553,10.3561,52.114,0.2797,-0.499,-0.077,314.8135
17:04:20:838,-0.1795,1.529,10.7175,50.6545,0.375,-0.4721,-0.0636,314.9828
17:04:20:859,-0.0502,1.6008,11.878,53.4776,0.4605,-0.0359,0.0464,315.0245
17:04:20:878,0.0933,1.3711,12.3541,52.0333,0.4886,0.0593,0.0427,314.9876
17:04:20:897,-0.2393,1.3232,12.3637,53.2212,0.5448,0.377,0.0183,314.9234
17:04:20:917,-0.7872,1.5888,11.6985,53.4732,0.6389,0.8852,0.0891,314.7061
17:04:20:936,-0.938,2.0985,10.995,53.3845,0.7391,1.3153,0.298,314.1704
17:04:20:956,-0.7035,2.668,10.9831,52.5963,0.8221,1.4167,0.5204,313.3304
17:04:20:979,-0.0909,3.0676,10.9185,53.1607,0.8735,1.0013,0.5583,312.5213
17:04:20:997,0.8327,3.0652,8.6477,53.1032,0.8735,0.3892,0.3152,312.0872
17:04:21:016,0.3852,2.3426,9.1645,54.9058,0.4886,0.0398,-0.1149,312.1867
17:04:21:037,-0.4044,1.9119,9.7867,53.1337,-0.0746,-0.3267,-0.5889,312.8895
17:04:21:059,-1.0241,1.4668,9.9182,53.1779,-0.3043,-0.2021,-0.7844,313.7729
17:04:21:095,-1.7157,1.1629,10.404,54.808,-0.3446,0.0374,-0.7001,315.1108
17:04:21:105,-1.151,0.804,9.7412,53.4775,-0.3715,-0.3096,-0.3995,315.6144
17:04:21:124,-0.9906,1.005,9.1382,54.3886,-0.3849,-0.3414,-0.2994,316.0115
17:04:21:142,-0.8925,1.1414,8.406,54.2044,-0.3886,-0.2607,-0.2004,316.2988
17:04:21:162,-0.6796,1.1366,7.9729,55.0022,-0.3568,-0.1129,-0.0746,316.4175
17:04:21:182,-0.5934,1.2227,7.8939,53.8703,-0.2872,-0.0176,0.0317,316.3752
17:04:21:200,-0.7561,1.2634,7.669,54.3422,-0.1931,-0.0445,0.0684,316.3119
17:04:21:225,-0.8183,1.3089,7.3627,53.3003,-0.0941,-0.0775,0.0415,316.2742
17:04:21:240,-0.8925,1.4788,7.2718,54.9561,-0.0123,-0.0628,0.0293,316.2527
17:04:21:261,-1.0146,1.7252,7.4632,52.9885,0.0439,-0.0579,0.0818,316.1806
17:04:21:278,-0.7059,1.8927,7.7671,52.9878,0.072,-0.13,0.1722,316.0085
17:04:21:299,-0.3302,1.9765,8.0471,55.0195,0.0769,-0.2583,0.2309,315.8047
17:04:21:317,-0.122,2.0602,8.6381,54.5248,0.0757,-0.3011,0.2296,315.6184
17:04:21:337,-0.2345,2.1176,9.3416,53.8559,0.0671,-0.1801,0.193,315.4485
17:04:21:358,-0.548,2.1488,10.0666,54.3389,0.0402,0.063,0.1893,315.2235
17:04:21:377,-0.9069,2.321,10.7773,53.2983,-0.0062,0.2658,0.2528,314.9071
17:04:21:398,-1.0552,2.3569,11.3085,54.2806,-0.0502,0.3025,0.3542,314.4562
17:04:21:416,-0.7442,2.2971,11.5765,54.9153,-0.0624,0.2194,0.4446,313.9031
17:04:21:436,-0.6102,2.4718,12.0359,53.6966,-0.0428,0.0789,0.4996,313.326
17:04:21:459,-0.5288,2.4742,12.6628,52.9665,0.0195,-0.0237,0.4935,312.7701
17:04:21:478,-0.2752,2.0913,12.7346,52.5381,0.1148,-0.053,0.3982,312.3082
17:04:21:496,-0.3087,1.6343,12.4929,53.3488,0.2137,0.03,0.2321,312.0094
17:04:21:517,-0.536,1.5936,12.2082,53.7432,0.2626,0.0801,0.0855,311.8412
17:04:21:536,-0.804,1.8568,11.5047,53.4764,0.2553,-0.0176,0.1038,311.6934
17:04:21:557,-1.017,2.1296,10.6911,52.7736,0.2553,0.0361,0.3506,311.2752
17:04:21:579,-0.7442,2.144,10.1169,52.5411,0.3005,0.2939,0.6866,310.4364
17:04:21:597,-0.1579,2.1894,9.9996,51.0734,0.3738,0.4686,0.8955,309.3052
17:04:21:616,0.5599,2.2564,9.8489,53.688,0.4458,0.2438,0.8808,308.2355
17:04:21:635,0.9045,2.2325,9.7292,53.1168,0.4886,-0.2168,0.634,307.5317
17:04:21:658,0.7178,2.053,9.0162,51.6718,0.4666,-0.6236,0.2162,307.39
17:04:21:678,-0.0072,1.8473,8.0518,50.1228,0.3493,-0.6896,-0.1479,307.6826
17:04:21:698,-0.7849,1.6056,7.2024,51.9033,0.1453,-0.3634,-0.2334,307.9639
17:04:21:716,-0.9188,1.3639,6.8148,50.3644,-0.0954,0.1192,-0.0367,307.9118
17:04:21:736,-0.4642,1.4883,6.9057,49.5892,-0.3177,0.4662,0.2809,307.4399
17:04:21:757,0.0479,1.7492,7.1833,52.0178,-0.4557,0.5211,0.4996,306.699
17:04:21:777,0.4953,1.9023,7.121,50.6799,-0.4399,0.2499,0.32,306.0014
17:04:21:797,0.2345,1.9334,7.0804,51.4845,-0.3654,0.1705,0.1075,305.3626
17:04:21:817,-0.0622,2.0387,7.4752,50.8774,-0.2896,0.1131,-0.0184,305.2852
17:04:21:837,-0.0622,2.0985,8.0399,50.7889,-0.2249,-0.0103,-0.0465,305.2715
17:04:21:860,0.0742,1.9908,8.6261,49.9497,-0.1601,-0.1716,-0.0403,305.2856
17:04:21:878,0.1938,2.1057,9.2507,49.3012,-0.099,-0.2803,-0.0611,305.324
17:04:21:897,0.4762,2.1344,10.2987,49.4306,-0.0245,-0.2363,-0.0953,305.3985
17:04:21:922,0.4259,2.0985,11.8086,50.1714,0.0891,-0.0897,-0.1295,305.4688
17:04:22:021,-0.0526,2.0076,12.6341,49.4306,0.2333,-0.0384,-0.1784,305.5734
17:04:22:022,-0.3685,1.9406,12.7633,48.562,0.386,-0.0726,-0.1931,305.7112
17:04:22:024,-0.4331,2.0746,12.4307,48.9765,0.5179,-0.0469,-0.0953,305.7504
17:04:22:025,-0.012,2.6345,12.347,49.7191,0.623,0.0874,0.1185,305.5171
17:04:22:026,0.7418,3.1059,12.2728,48.7832,0.7036,0.0923,0.2907,305.0709
17:04:22:048,1.2323,3.2638,11.8756,48.8954,0.7366,-0.1801,0.2113,304.788
17:04:22:062,1.0744,3.0341,9.9565,47.5827,0.6621,-0.5674,-0.1454,304.9995
17:04:22:078,0.3661,2.3306,9.0568,49.2827,0.3322,-0.6114,-0.5266,305.6388
17:04:22:096,0.067,1.6128,8.9228,47.2504,-0.3165,-0.4403,-0.6414,306.3561
17:04:22:116,-0.5145,1.6295,8.93,47.7012,-0.7282,-0.0384,-0.5449,306.8607
17:04:22:135,-0.548,1.7037,9.5258,48.0397,-0.854,0.3171,-0.2297,306.9362
17:04:22:159,0.5312,1.5793,9.6766,47.0712,-0.8577,0.0752,0.0867,306.7101
17:04:22:178,1.2993,1.5864,9.7986,46.8828,-0.7673,-0.4159,0.1331,306.5357
17:04:22:197,1.5003,1.3974,9.3296,46.5926,-0.6329,-0.8068,-0.0892,306.701
17:04:22:216,1.2156,1.1557,8.5567,46.8874,-0.5144,-0.8655,-0.3947,307.1935
17:04:22:236,-0.3135,1.3113,8.0184,47.5155,-0.3629,-0.0738,-0.5791,307.8676
17:04:22:263,-0.3924,1.3711,7.5613,46.6644,-0.297,0.2609,-0.4044,308.8369
17:04:22:278,-0.2895,1.6558,7.4848,46.993,-0.2285,0.4515,-0.2248,308.9202
17:04:22:301,-0.1603,2.0794,7.59,46.3492,-0.1687,0.4552,-0.1442,308.928
17:04:22:315,-0.0215,2.3497,7.5996,45.5579,-0.1198,0.3208,-0.154,308.9684
17:04:22:336,-0.012,2.4072,7.7073,46.2567,-0.0868,0.2145,-0.2004,309.079
17:04:22:362,-0.1149,2.412,8.1476,45.9827,-0.0721,0.1571,-0.2297,309.1912
17:04:22:382,-0.1244,2.5316,8.8702,45.2743,-0.077,0.0557,-0.2089,309.3145
17:04:22:403,0.0622,2.5364,9.7005,44.9042,-0.0831,-0.0616,-0.1515,309.4232
17:04:22:416,0.0981,2.3569,10.3777,45.3975,-0.0648,-0.1056,-0.1088,309.4903
17:04:22:436,-0.0622,2.2899,10.9543,46.6804,-0.0123,0.0679,-0.0831,309.4788
17:04:22:458,-0.323,2.4957,11.5143,47.0374,0.0867,0.399,0.0036,309.3353
17:04:22:476,-0.3805,2.7254,12.1053,46.1056,0.2345,0.603,0.1575,308.9808
17:04:22:496,-0.146,2.8738,12.3709,45.889,0.4116,0.4808,0.2858,308.4886
17:04:22:516,0.1316,2.9934,12.3757,45.173,0.5986,0.2206,0.3152,308.0141
17:04:22:537,0.1675,2.881,12.189,45.0297,0.7855,0.085,0.2675,307.6103
17:04:22:558,-0.1484,2.8475,11.8636,43.5593,0.9382,0.0789,0.1857,307.2981
17:04:22:576,-0.3757,2.7781,11.7081,45.2166,1.0249,0.1131,0.116,307.0455
17:04:22:596,-0.2895,2.5316,11.4305,44.62,1.014,0.0007,0.0903,306.8356
17:04:22:622,-0.3183,2.4167,10.9017,43.7893,0.8869,-0.1972,0.0806,306.6786
17:04:22:636,-0.5791,2.2445,10.0666,45.038,0.656,-0.2351,0.0989,306.5337
17:04:22:657,-0.8925,2.1751,9.6144,44.2025,0.3591,-0.0017,0.2137,306.1882
17:04:22:680,-0.8231,2.1655,9.4612,44.2798,0.0561,0.2182,0.4263,305.5522
17:04:22:699,0.0885,1.7085,8.7817,44.3193,-0.314,-0.0066,0.6084,304.1144
17:04:22:718,0.3039,1.5697,8.3055,44.2447,-0.3702,-0.075,0.474,303.5148
17:04:22:735,0.1412,1.5649,8.0351,44.0991,-0.3873,-0.0384,0.2932,303.0828
17:04:22:755,-0.0718,1.4859,7.7695,43.2593,-0.3947,-0.0201,0.1331,302.8303
17:04:22:777,-0.2369,1.4668,7.4704,44.0991,-0.4203,-0.0543,0.0378,302.6998
17:04:22:798,-0.3254,1.5649,7.5326,43.9158,-0.4655,-0.0811,0.0244,302.5856
17:04:22:816,-0.3541,1.6463,7.7121,43.6819,-0.5071,-0.1044,0.0671,302.4521
17:04:22:835,-0.2489,1.6223,7.7815,43.167,-0.5193,-0.1288,0.1307,302.2417
17:04:22:857,-0.2608,1.6654,7.9681,43.6923,-0.4863,-0.0897,0.2015,301.9425
17:04:22:877,-0.2704,1.7946,8.1906,42.2696,-0.3983,-0.0518,0.2614,301.598
17:04:22:896,0.0814,1.9238,8.4251,41.7122,-0.2627,-0.0494,0.3054,301.1905
17:04:22:919,0.4498,2.1679,8.7386,42.9805,-0.0966,-0.0482,0.298,300.7693
17:04:22:935,0.5815,2.4287,9.0401,43.3409,0.0696,-0.0176,0.2076,300.4623
17:04:22:957,0.3493,2.7326,9.4253,42.9805,0.2052,0.0936,0.0659,300.3033
17:04:22:975,0.0885,2.7589,9.8201,42.1454,0.3029,0.2695,-0.0538,300.2244
17:04:22:996,-0.0909,2.8451,10.4686,43.804,0.3518,0.3281,-0.1124,300.1716
17:04:23:016,-0.1603,2.924,11.1147,43.785,0.3445,0.1681,-0.1332,300.1998
17:04:23:035,-0.1005,2.7015,11.3635,42.3405,0.2858,-0.13,-0.1564,300.3058
17:04:23:061,-0.1842,2.2851,11.3851,42.8471,0.1844,-0.3181,-0.1589,300.4675
17:04:23:082,-0.2345,1.9358,11.2415,43.1671,0.0182,-0.1764,-0.0709,300.1486
17:04:23:098,-0.1149,2.0339,11.1147,41.3879,-0.2249,0.245,0.1404,299.494
17:04:23:115,0.8327,2.5388,10.9065,41.2905,-0.7111,0.9072,0.4263,298.7161
17:04:23:137,1.1246,2.4981,10.7797,42.0936,-0.8418,0.8156,0.3103,298.0963
17:04:23:159,0.6676,2.2947,10.8467,44.0712,-0.887,0.4417,0.0952,297.8972
17:04:23:181,0.1029,1.7731,10.593,43.1316,-0.8565,-0.0824,-0.1271,297.9586
17:04:23:196,-0.2871,1.2299,10.4447,43.7238,-0.7477,-0.4806,-0.2529,298.2153
17:04:23:223,-0.5456,0.6939,10.5069,43.9302,-0.5621,-0.6468,-0.2603,298.491
17:04:23:234,-0.3398,0.2082,10.4255,42.3671,-0.3299,-0.703,-0.2248,298.7393
17:04:23:256,0.0502,0.1053,10.1025,42.0383,-0.088,-0.6541,-0.2138,298.9323
17:04:23:279,0.0885,0.3183,9.5904,42.7044,0.1416,-0.4428,-0.2297,299.1341
17:04:23:296,-0.0479,0.6485,8.8989,42.3705,0.3383,-0.1618,-0.2383,299.3225
17:04:23:316,-0.134,0.9595,8.0255,41.9913,0.4727,0.0496,-0.1931,299.452
17:04:23:333,-0.0646,1.3495,7.535,42.4503,0.5509,0.1949,-0.0819,299.4253
17:04:23:354,-0.1412,1.7827,7.2933,42.8217,0.6047,0.245,0.0513,299.2609
17:04:23:374,-0.1196,2.0148,7.2574,42.2426,0.6572,0.2023,0.1368,299.0064
17:04:23:395,-0.0096,2.0985,7.2096,42.3258,0.7049,0.107,0.1441,298.7498
17:04:23:415,-0.0144,2.4072,7.2503,41.3879,0.733,0.0288,0.0916,298.5742
17:04:23:435,-0.0861,2.7039,7.6092,40.7932,0.7317,-0.0225,0.0317,298.4855
17:04:23:458,-0.0263,2.8714,7.9848,42.6037,0.6853,-0.0567,-0.0074,298.4507
17:04:23:475,0.0502,3.0389,8.3557,41.8066,0.5815,-0.0457,-0.0245,298.4261
17:04:23:501,0.1005,3.137,8.8487,42.8703,0.4263,-0.0078,-0.033,298.3929
17:04:23:514,0.1029,3.0389,9.2889,41.2905,0.243,0.0239,-0.0562,298.3687
17:04:23:533,-0.0718,3.0102,9.801,42.1674,0.0561,0.096,-0.0843,298.3548
17:04:23:554,-0.39,3.0867,10.4854,42.5872,-0.0917,0.228,-0.0501,298.2565
17:04:23:573,-0.3709,3.1059,11.0979,42.1674,-0.1662,0.3245,0.0513,298.0244
17:04:23:594,-0.1723,3.137,11.4975,41.3911,-0.1564,0.3086,0.1649,297.6701
17:04:23:614,-0.2369,3.1944,11.6243,40.7806,0.0854,0.2438,0.2015,297.2806
17:04:23:635,-0.4164,3.0652,11.5334,40.7616,0.2601,0.2878,0.1319,296.7044
17:04:23:660,-0.3805,2.7996,11.5454,40.3079,0.4251,0.234,0.0574,296.4739
17:04:23:675,-0.402,2.6249,11.4688,41.7639,0.5265,-0.0787,-0.0355,296.4207
17:04:23:696,-0.6796,2.5579,11.0333,40.7541,0.5448,-0.4758,-0.1185,296.5954
17:04:23:716,-1.1892,2.455,10.4877,39.4867,0.4996,-0.5723,-0.1027,296.7795
17:04:23:736,-1.5673,2.3737,9.947,40.9217,0.3958,-0.3682,0.0549,296.7459
17:04:23:761,-1.4261,2.2684,9.6,40.6793,0.2418,-0.1496,0.2858,296.4013
17:04:23:778,-0.8949,2.0746,9.0114,41.3541,0.0732,-0.0738,0.4288,295.8425
17:04:23:796,-0.4905,1.9358,8.3677,41.0731,-0.0807,0.0056,0.4068,295.3003
17:04:23:815,-0.4522,1.9525,7.8724,41.7855,-0.2126,0.1607,0.3091,294.8042
17:04:23:834,-0.5599,1.9908,7.4704,40.1463,-0.314,0.2572,0.2382,294.3809
17:04:23:854,-0.5121,1.9143,7.267,41.2544,-0.3825,0.234,0.2284,293.9573
17:04:23:875,-0.4331,1.9645,7.1139,40.4974,-0.4142,0.1094,0.2394,293.5771
17:04:23:896,-0.3183,2.0483,7.267,39.6231,-0.4069,-0.0359,0.2443,293.2284
17:04:23:915,-0.2536,2.1224,7.4249,41.0579,-0.3702,-0.1935,0.2296,292.9294
17:04:23:935,-0.1484,2.12,7.523,40.5572,-0.3079,-0.2998,0.1967,292.7107
17:04:23:956,-0.0407,2.1703,7.736,40.6376,-0.231,-0.312,0.1685,292.5196
17:04:23:979,0.067,2.3019,8.26,40.1463,-0.1564,-0.2522,0.1404,292.3439
17:04:23:995,0.2153,2.4861,8.5735,40.2182,-0.099,-0.1813,0.0977,292.1811
17:04:24:015,0.3972,2.5436,9.0975,38.61,-0.0465,-0.0494,0.0452,292.0388
17:04:24:064,0.2417,2.7135,9.5378,40.0552,-0.0001,0.1595,0.0061,291.882
17:04:24:064,-0.1053,2.9791,9.7699,39.7168,0.0549,0.4747,0.0293,291.6423
17:04:24:076,-0.012,3.4576,10.6792,40.2448,0.2015,0.7301,0.1197,291.2366
17:04:24:095,0.2871,3.4241,11.4329,40.1463,0.2638,0.3257,0.0171,290.7052
17:04:24:116,0.5192,3.1011,12.0694,38.4045,0.3176,-0.2192,-0.1747,290.8404
17:04:24:136,0.1603,2.7661,11.9569,40.8479,0.3603,-0.571,-0.3189,291.2219
17:04:24:160,-0.524,2.8307,11.9139,40.2448,0.4031,-0.3744,-0.2224,291.4459
17:04:24:178,-0.9117,3.3619,11.7751,38.4045,0.4568,0.0544,0.1575,291.1612
17:04:24:197,-0.1603,3.7472,11.8875,39.7674,0.5253,0.2438,0.5668,290.3882
17:04:24:216,1.1294,3.7352,11.6315,39.5131,0.601,0.0606,0.6267,289.567
17:04:24:235,1.8664,3.2423,10.8945,38.6477,0.6621,-0.1899,0.237,289.2496
17:04:24:256,1.3783,2.8068,9.8058,37.3982,0.6682,-0.3181,-0.3531,289.6037
17:04:24:276,0.0359,2.9169,9.0042,37.2278,0.6144,-0.1996,-0.7404,290.3275
17:04:24:296,-0.8925,3.0628,8.1332,36.9021,0.5191,0.0288,-0.6756,290.8948
17:04:24:316,-0.5719,2.9145,7.9178,36.6215,0.4031,0.1949,-0.2578,290.9733
17:04:24:334,0.3039,2.857,8.0877,37.1206,0.2748,0.0532,0.1026,290.7402
17:04:24:358,0.8471,3.0413,7.9442,36.9021,0.1392,-0.4208,0.0879,290.7236
17:04:24:376,0.9619,2.7852,7.5159,38.4212,-0.0111,-0.7959,-0.2175,291.1434
17:04:24:394,0.2776,2.455,6.4463,37.3126,-0.2163,-0.8105,-0.5571,291.9207
17:04:24:415,-0.1771,2.2158,6.3458,36.8248,-0.5095,-0.3878,-0.6781,292.6702
17:04:24:435,-0.615,2.1607,6.3506,36.9654,-0.8174,0.1632,-0.5657,293.0906
17:04:24:463,-0.7729,2.3186,6.9535,37.4851,-1.0471,0.6274,-0.3934,293.1746
17:04:24:480,-0.7466,2.4718,7.1569,36.4993,-1.2047,0.7496,-0.27,293.1133
17:04:24:499,-0.6652,2.5268,7.4465,37.2158,-1.2707,0.6946,-0.2248,293.0288
17:04:24:515,-0.6461,2.5531,7.7767,37.1349,-1.267,0.6103,-0.2041,292.9767
17:04:24:535,-0.8112,2.2038,8.528,36.213,-1.2022,0.3831,-0.1576,293.0345
17:04:24:559,-0.8136,2.1894,9.0808,37.008,-1.1582,0.2365,-0.1051,292.9886
17:04:24:580,-0.6891,2.2516,9.8177,36.0098,-1.0691,0.1058,-0.011,292.8813
17:04:24:598,-0.414,2.1224,10.5524,36.1414,-0.909,0.0129,0.0745,292.7143
17:04:24:614,-0.3087,2.0435,11.5717,36.0652,-0.6781,-0.0249,0.1026,292.4827
17:04:24:633,-0.5192,2.12,12.6796,36.908,-0.3898,-0.0298,0.0757,292.3027
17:04:24:654,-0.6867,2.0722,13.0816,35.1537,-0.0465,-0.0237,0.0549,292.1494
17:04:24:675,-0.9882,1.9525,12.7466,35.9993,0.3322,0.0398,0.0928,291.9253
17:04:24:696,-1.3735,1.9789,12.3398,36.5563,0.6987,0.2145,0.193,291.5836
17:04:24:715,-1.6774,2.1488,12.0766,36.5392,0.9944,0.3416,0.3213,291.066
17:04:24:734,-1.5577,2.4885,12.2034,34.8422,1.1642,0.3232,0.4055,290.4655
17:04:24:760,-1.0576,2.8235,12.1196,36.4216,1.1752,0.0557,0.3775,289.9374
17:04:24:780,-0.5049,2.6584,11.4281,36.5307,1.0433,-0.3353,0.2431,289.629
17:04:24:793,-0.7011,2.5244,10.3896,36.4216,0.7953,-0.4648,0.1124,289.5025
17:04:24:813,-1.4931,2.7398,9.7436,35.9298,0.4898,-0.2045,0.1722,289.2739
17:04:24:834,-1.5864,2.7781,9.4493,35.4661,0.1832,0.0948,0.4556,288.6746
17:04:24:853,-0.7513,2.4144,9.3224,35.9473,-0.0844,0.0887,0.7061,287.7961
17:04:24:874,0.0239,2.0363,9.0162,35.0196,-0.3006,-0.1153,0.6572,287.0165
17:04:24:895,0.079,1.7563,8.7697,35.937,-0.4729,-0.1544,0.3457,286.5854
17:04:24:914,-0.5408,1.5721,8.473,34.9312,-0.6012,0.0202,0.0183,286.4592
17:04:24:934,-1.1797,1.3878,8.016,36.0816,-0.6891,0.2414,-0.099,286.4061
17:04:24:959,-1.4405,1.2802,7.7815,34.9781,-0.7282,0.366,0.0427,286.2017
17:04:24:975,-1.1821,1.3089,7.7025,35.2898,-0.7123,0.3452,0.3274,285.6678
17:04:24:996,-0.2034,1.4524,7.7049,33.9238,-0.4912,0.0386,0.6389,284.9229
17:04:25:015,-0.0479,1.5242,7.7575,36.5308,-0.3116,-0.064,0.5424,283.5592
17:04:25:034,-0.0766,1.596,7.7743,33.7845,-0.1198,-0.1007,0.3726,283.1257
17:04:25:058,-0.2417,1.6271,7.8126,35.1634,0.0671,-0.0909,0.2284,282.841
17:04:25:081,-0.2919,1.6152,7.992,35.1463,0.2321,-0.0555,0.1404,282.6437
17:04:25:096,-0.1675,1.7109,8.2983,35.1463,0.3457,-0.0445,0.0867,282.5006
17:04:25:116,-0.0502,1.8592,8.8176,34.7465,0.408,-0.0115,0.0598,282.3815
17:04:25:135,-0.012,2.2014,9.4852,35.8384,0.4458,0.162,0.0525,282.2295
17:04:25:157,-0.0263,2.613,10.2221,34.7465,0.4789,0.4136,0.0537,282.0128
17:04:25:177,-0.2608,2.7565,10.9137,33.846,0.4874,0.4857,0.0073,281.8404
17:04:25:196,-0.3541,2.5627,11.4209,36.4216,0.4398,0.2243,-0.1271,281.8602
17:04:25:213,-0.6317,2.3952,11.6148,33.9739,0.3212,-0.2009,-0.3067,282.1484
17:04:25:233,-1.2825,2.4455,11.519,34.8898,0.1526,-0.4538,-0.3617,282.5783
17:04:25:254,-1.34,2.735,11.4568,34.213,-0.0025,-0.3414,-0.1344,282.7449
17:04:25:274,-0.8207,2.9767,11.6267,33.7558,-0.0807,-0.0543,0.2675,282.4358
17:04:25:295,0.4092,3.0987,12.0598,36.2068,-0.1051,0.0874,0.4899,281.8438
17:04:25:315,1.5314,2.9456,11.8732,36.2416,-0.0905,-0.0433,0.3249,281.4423
17:04:25:333,2.0243,2.3163,11.3181,34.7671,-0.0379,-0.0738,-0.1344,281.5184
17:04:25:353,1.3998,1.4788,10.5858,34.8878,0.0085,0.1082,-0.694,282.1427
17:04:25:375,0.0048,1.1581,9.7579,36.1112,0.006,0.3452,-1.1167,283.1551
17:04:25:394,-1.1964,1.2849,9.2171,34.3054,-0.0233,0.5761,-1.2071,284.2363
17:04:25:415,-1.6774,1.3902,8.863,33.8208,-0.0502,0.7044,-0.9872,285.0717
17:04:25:439,-1.1198,1.7204,9.1119,35.8572,-0.1247,0.0422,-0.5425,285.6196
17:04:25:464,-0.6963,1.7396,8.8774,33.7083,-0.1564,-0.5368,-0.5413,286.189
17:04:25:478,-0.8351,1.4644,8.5591,35.2694,-0.1687,-0.7482,-0.6292,286.8287
17:04:25:495,-1.2658,1.206,7.9777,35.9103,-0.1784,-0.6383,-0.683,288.4137
17:04:25:515,-1.6654,1.2443,7.6762,34.9183,-0.1833,-0.3463,-0.5669,289.0041
17:04:25:534,-1.6726,1.462,7.5541,34.3014,-0.1626,-0.0445,-0.2737,289.2381
17:04:25:555,-1.1677,1.7755,7.4728,34.3925,-0.1027,0.1534,0.0647,289.1124
17:04:25:575,-0.4546,2.0818,7.3914,35.6386,-0.0184,0.2157,0.2883,288.7286
17:04:25:597,0.0191,2.3378,7.547,34.3007,0.0696,0.2328,0.32,288.2862
17:04:25:615,0.2441,2.3737,7.4943,33.3011,0.1502,0.2524,0.1673,288.0049
17:04:25:633,0.1101,2.6728,7.7575,33.9135,0.2113,0.2988,-0.0746,287.9955
17:04:25:653,-0.122,3.0245,8.3462,33.989,0.2394,0.2169,-0.2627,288.2062
17:04:25:675,-0.2608,2.8379,8.6237,34.3177,0.2186,-0.1398,-0.3421,288.5939
17:04:25:694,-0.39,2.668,9.1525,35.7537,0.1306,-0.5075,-0.3494,289.0525
17:04:25:715,-0.7705,2.6058,9.8321,33.2821,0.006,-0.7054,-0.2798,289.4741
17:04:25:733,-1.1055,2.6441,11.0022,33.8018,-0.1186,-0.648,-0.1185,289.6952
17:04:25:754,-1.0313,2.7111,11.9043,33.7272,-0.2322,-0.5478,0.0867,289.7128
17:04:25:773,-0.8638,2.479,12.1747,34.6328,-0.2835,-0.477,0.2651,289.4818
17:04:25:795,-0.9715,2.3354,12.0383,32.7427,-0.2529,-0.2962,0.364,289.1145
17:04:25:817,-1.2706,2.5196,11.8923,33.4727,-0.1479,0.0544,0.4434,288.5881
17:04:25:846,-1.0241,2.6106,12.0503,34.1032,-0.0013,0.3245,0.5265,287.9203
17:04:25:857,-0.2393,2.2971,11.9163,33.2821,0.1282,0.245,0.4789,287.29
17:04:25:877,0.0981,1.6606,11.4927,32.8185,0.215,-0.0848,0.2162,287.0647
17:04:25:895,-2.2373,1.6223,9.7531,33.711,0.2467,-0.119,-0.1027,287.2056
17:04:25:916,-2.7757,2.0794,9.5641,33.2821,0.2492,0.2072,0.2858,286.8229
17:04:25:934,-1.6463,2.2181,9.5713,32.8652,0.2553,0.1595,0.7721,285.9152
17:04:25:961,-0.0287,2.2445,9.5091,34.2167,0.2516,-0.312,0.9248,284.9492
17:04:25:980,0.9619,2.1918,9.4636,32.7259,0.2211,-0.7592,0.5913,284.4459
17:04:25:995,0.7657,1.6845,8.7625,31.9931,0.1429,-0.8862,-0.0245,284.6459
17:04:26:013,-0.469,1.4022,8.0495,33.2821,0.0097,-0.5686,-0.5217,285.2653
17:04:26:033,-1.5936,1.4429,7.7551,32.3343,-0.1577,-0.0445,-0.5767,285.8511
17:04:26:054,-1.6534,1.7061,7.5757,31.2888,-0.336,0.322,-0.2163,285.9981
17:04:26:077,-0.7226,1.7037,7.5781,32.8653,-0.4839,0.4503,0.2296,285.6212
17:04:26:249,0.2871,1.7779,7.6762,33.3773,-0.5853,0.366,0.4386,285.0209
17:04:26:249,0.6652,1.9023,7.7599,33.3773,-0.6341,0.2035,0.3579,284.5432
17:04:26:250,0.5767,1.6654,7.7815,33.3773,-0.6048,0.1351,0.1319,284.3228
17:04:26:251,0.0598,1.4381,8.138,33.3773,-0.5181,0.1094,-0.0623,284.3151
17:04:26:251,-0.1914,1.462,8.6309,33.3773,-0.4179,-0.0824,-0.1234,284.4087
17:04:26:252,-0.122,1.5362,9.1789,32.0399,-0.3055,-0.3524,-0.0575,284.4749
17:04:26:252,-0.0263,1.5266,10.0355,32.5105,-0.1711,-0.466,0.0232,284.5029
17:04:26:253,-0.0933,1.6487,10.9352,33.2112,-0.0233,-0.3597,0.0268,284.5177
17:04:26:253,-0.402,1.9956,11.5286,33.3972,0.1368,-0.1117,-0.0061,284.5179
17:04:26:273,-0.4235,1.9956,11.6985,31.8365,0.2968,0.1913,-0.0208,284.4676
17:04:26:293,-0.2177,1.7731,11.6028,31.3508,0.4165,0.4637,-0.0587,284.385
17:04:26:314,-0.2536,2.1057,11.5741,31.3479,0.4666,0.5187,-0.1332,284.3703
17:04:26:333,-0.4164,2.5986,11.4377,32.8377,0.4849,0.4491,-0.1369,284.4077
17:04:26:358,-0.0335,3.003,11.4066,32.4732,0.5057,0.1839,0.1026,284.3462
17:04:26:376,0.4738,2.8666,11.6076,32.4732,0.4727,-0.2546,0.0781,284.2084
17:04:26:395,0.9834,2.3019,11.4927,32.6254,0.3835,-0.7873,-0.1503,284.4798
17:04:26:414,0.938,1.7755,11.1793,31.7322,0.2137,-1.0194,-0.4838,285.185
17:04:26:435,0.1316,1.5075,10.684,32.1803,-0.0025,-0.7897,-0.6989,286.0644
17:04:26:455,-0.6054,1.2299,10.3561,33.7448,-0.1992,-0.1642,-0.6219,286.7221
17:04:26:479,-0.6604,1.1127,10.0259,33.1318,-0.3507,0.3733,-0.3226,286.9233
17:04:26:493,-0.2297,1.1533,9.6263,34.5944,-0.435,0.5211,-0.0575,286.823
17:04:26:516,0.134,1.2108,9.1071,31.5727,-0.4497,0.432,-0.0013,286.6845
17:04:26:533,0.0479,1.2921,8.5232,30.9969,-0.4106,0.3257,-0.1051,286.6793
17:04:26:554,-0.3757,1.3256,7.9609,34.3337,-0.3397,0.2854,-0.2077,286.8263
17:04:26:576,-0.871,1.4501,7.4536,31.5589,-0.2432,0.3,-0.1698,286.9342
17:04:26:596,-0.9212,1.6176,7.3555,32.7408,-0.1173,0.3342,0.0171,286.8528
17:04:26:615,-0.6843,1.7731,7.4273,30.8567,0.0329,0.2426,0.2174,286.588
17:04:26:634,-0.268,1.7731,7.2861,34.2348,0.1917,0.0276,0.3005,286.254
17:04:26:659,-0.0168,1.6534,6.9894,33.7847,0.3347,-0.1239,0.2406,286.0179
17:04:26:675,-0.0144,1.5984,6.9105,31.2683,0.4275,-0.1092,0.1343,285.8845
17:04:26:696,-0.0526,1.7683,7.2263,32.4466,0.4373,-0.0665,0.0635,285.8114
17:04:26:713,0.0933,2.1296,7.2335,33.4364,0.3628,-0.1398,0.0574,285.7939
17:04:26:733,0.5121,2.3617,7.4249,32.7968,0.2516,-0.1544,0.1038,285.7091
17:04:26:760,0.6006,2.4981,7.9178,33.6949,0.1294,-0.0775,0.1392,285.5956
17:04:26:776,0.2273,2.6752,8.796,31.9051,0.0158,0.0117,0.1209,285.484
17:04:26:797,-0.4235,2.9121,9.8034,33.5086,-0.0819,-0.0811,0.0989,285.4132
17:04:26:816,-0.3661,2.9312,11.7488,31.7508,-0.187,-0.8484,0.2272,285.3477
17:04:26:834,-0.0574,2.6082,12.5336,34.2011,-0.1748,-1.1172,0.3103,285.2833
17:04:26:855,0.3254,2.0961,12.6939,32.8728,-0.1186,-1.0768,0.3152,285.1785
17:04:26:875,0.4092,1.7348,12.6006,33.1882,-0.0318,-0.637,0.2565,285.0366
17:04:26:892,0.2345,1.8927,12.8566,33.7981,0.0549,-0.0103,0.1954,284.8289
17:04:26:912,0.5384,2.01,12.3326,32.5941,0.1123,0.3269,0.1429,284.6124
17:04:26:933,0.6197,1.9789,11.2056,33.1131,0.1306,0.3599,0.0818,284.4539
17:04:26:953,0.0957,2.0578,10.1504,33.7981,0.1258,0.4869,0.0562,284.3153
17:04:26:975,-0.2919,2.1607,9.7412,32.2587,0.116,0.6629,0.1258,284.063
17:04:26:993,-0.3685,2.2349,9.8513,33.6016,0.105,0.6091,0.237,283.6867
17:04:27:016,-0.0096,1.9549,10.0451,32.5826,0.0708,0.1204,0.226,283.4194
17:04:27:033,0.3829,1.5362,9.5641,34.1171,-0.0062,-0.5234,0.0232,283.518
17:04:27:053,0.1244,1.4046,9.0066,34.5321,-0.1259,-0.7592,-0.2138,283.9207
17:04:27:074,-0.5575,1.3161,8.8391,33.2748,-0.2676,-0.5014,-0.2713,284.3586
17:04:27:094,-0.8088,1.1294,8.5089,33.6862,-0.4167,-0.1618,-0.1112,284.5272
17:04:27:114,-0.39,1.1988,8.2911,34.7673,-0.5547,0.0862,0.1526,284.3457
17:04:27:133,0.3087,1.4668,8.2361,32.8728,-0.6402,0.2365,0.3689,283.938
17:04:27:152,0.926,1.6104,8.1428,33.9219,-0.6439,0.3086,0.4202,283.4433
17:04:27:177,1.2156,1.3783,7.9561,33.7268,-0.5779,0.3831,0.2822,283.1039
17:04:27:194,0.7777,1.0792,7.803,34.7673,-0.4765,0.4332,0.0427,283.0115
17:04:27:215,0.1196,1.0648,7.9872,33.5369,-0.3751,0.3782,-0.1283,283.128
17:04:27:235,-0.2728,1.2682,8.4945,32.1257,-0.2676,0.228,-0.099,283.2513
17:04:27:256,-0.055,1.529,9.1765,33.564,-0.1491,-0.0042,0.0903,283.207
17:04:27:277,0.2895,1.5793,10.8251,34.2185,0.0818,-0.4342,0.1551,282.9412
17:04:27:294,-0.1819,1.4979,10.9017,34.1088,0.1759,-0.323,0.0183,282.9948
17:04:27:313,-0.6485,1.3998,11.2104,34.4765,0.2638,0.1779,0.0476,282.9315
17:04:27:332,-0.3422,1.3711,11.3157,34.1377,0.32,0.6299,0.2296,282.6226
17:04:27:353,0.5097,1.3831,11.3587,34.5599,0.3237,0.68,0.3347,282.1951
17:04:27:378,1.1079,1.73,11.4425,33.5386,0.2883,0.4894,0.2211,281.9144
