Time,Acc_X,Acc_Y,Acc_Z,Meg,Gyr_X,Gyr_Y,Gyr_Z,Ore
15:31:19:539,-3.1459,4.0707,4.4509,59.9447,-0.376,-1.0924,-0.2891,56.2031
15:31:19:603,1.372,3.3297,13.361,59.5679,-1.0932,0.9236,-0.0033,56.4531
15:31:19:619,-0.7565,3.7595,12.5541,58.0641,-0.657,1.2043,0.0177,56.4531
15:31:19:640,-1.4939,4.2336,11.4839,59.6059,-0.249,1.1066,0.1869,56.4531
15:31:19:656,-1.1048,4.6609,10.118,59.0213,0.0003,0.58,0.0955,196.7812
15:31:19:679,-1.3275,4.5544,9.3435,61.1467,0.0746,0.3337,0.0268,196.6406
15:31:19:705,-1.2006,4.4371,9.2872,59.2127,0.0266,0.4615,0.05,196.3281
15:31:19:725,-1.0521,4.2228,9.0143,60.1836,-0.0565,0.6432,0.0753,196.1406
15:31:19:735,-1.1766,3.9606,8.6085,59.9363,-0.1651,0.7295,0.1512,195.9688
15:31:19:755,-1.1898,3.9606,8.7018,58.7784,-0.2277,0.7241,0.2018,195.9688
15:31:19:776,-1.1635,3.9163,9.219,60.2679,-0.1078,0.6504,0.2106,195.7969
15:31:19:799,-1.3514,3.9774,9.3531,59.496,0.101,0.5699,0.2153,195.5469
15:31:19:817,-1.3562,4.0169,8.6683,58.3986,0.1726,0.6325,0.1868,195.2344
15:31:19:834,-1.6208,4.1007,7.792,59.2191,0.0152,0.8706,0.1605,194.9375
15:31:19:855,-2.2121,3.9546,7.3,59.0788,-0.2607,1.1026,0.1911,194.625
15:31:19:874,-2.4563,3.4806,7.6855,59.1682,-0.5281,1.2722,0.2662,194.3281
15:31:19:899,-1.3933,2.8174,9.1101,58.4819,-0.567,1.3454,0.1639,194.0625
15:31:19:920,-3.7684,3.7475,9.7493,59.7423,-0.3894,1.5305,0.4082,193.7031
15:31:19:939,-3.3865,3.301,9.3591,59.091,-0.2293,1.297,0.5586,193.2344
15:31:19:955,-3.4236,3.5009,9.3938,60.3613,-0.0277,1.0735,0.618,192.5938
15:31:19:975,-3.1267,3.8146,9.559,59.2059,0.1345,0.9819,0.5871,191.8281
15:31:19:999,-3.1411,4.1545,9.5338,57.3786,0.1995,1.0181,0.4582,191.0312
15:31:20:017,-3.6259,4.3509,9.4716,59.0873,0.2029,1.0759,0.4359,190.2656
15:31:20:035,-3.3494,4.3233,9.3722,59.6037,0.1289,1.0477,0.2976,189.5938
15:31:20:059,-3.8534,4.3006,9.9384,60.6699,0.0815,1.053,0.1235,189
15:31:20:074,-4.1478,3.5955,10.2413,60.8697,0.0935,0.8624,0.0175,188.4688
15:31:20:095,-4.161,3.4758,10.2593,59.2926,0.1361,0.048,-0.06,188.1562
15:31:20:118,-3.5637,3.4267,11.4432,60.099,0.3271,-0.2554,-0.3839,187.9844
15:31:20:139,-4.2424,3.1083,11.6539,60.2786,0.5098,-0.6035,-0.5429,187.9531
15:31:20:155,-3.851,2.2428,11.351,60.8034,0.6107,-1.0202,-0.5391,188.2344
15:31:20:175,-3.7193,2.2823,11.3965,59.8224,0.8051,-0.6565,-0.3282,188.9375
15:31:20:200,-1.9129,1.8106,9.632,60.9086,0.8738,-0.1297,-0.2755,189.7656
15:31:20:217,-0.9384,1.9387,6.7757,59.5278,0.6482,-0.167,-0.4781,190.5469
15:31:20:235,-1.4771,2.165,5.229,59.7176,0.3936,-0.8035,-0.6188,191
15:31:20:255,-1.2281,2.6378,5.0543,59.1307,0.2517,-1.4892,-0.8209,191.5469
15:31:20:275,-1.944,2.7635,5.3655,59.0067,-0.1542,-0.918,-1.1642,192.3438
15:31:20:301,-2.7891,3.0233,5.824,58.5806,-0.4064,-0.6644,-0.9743,193.3125
15:31:20:319,-1.8159,2.7001,7.9561,58.6486,-0.4138,-0.93,-0.8315,194.7188
15:31:20:338,-1.3969,2.3206,8.3379,58.5528,-0.1265,-1.0687,-0.7301,195.4219
15:31:20:355,-2.3139,1.8968,7.6149,59.1541,0.0477,-0.8919,-0.7373,196.5781
15:31:20:377,-2.5808,3.5045,7.1779,57.4105,0.257,-1.429,-0.7013,197.5625
15:31:20:399,-1.0414,3.5356,6.4561,58.9761,0.4727,-2.5694,-0.5431,198.9844
15:31:20:416,-0.0657,3.9678,6.6045,60.3504,0.6099,-3.4051,-0.5594,199.9688
15:31:20:434,0.1713,3.7439,9.3602,57.8031,0.425,-3.913,-0.6797,200.9219
15:31:20:453,-0.0897,2.4295,10.6124,58.4578,0.0152,-2.2892,-0.6835,201.9688
15:31:20:474,1.8329,3.5141,8.8838,59.5017,-0.0032,0.0847,-0.2877,203.2188
15:31:20:500,0.3126,3.4339,9.0346,59.2212,-0.0578,0.6128,-0.3024,204.4688
15:31:20:520,-1.4939,3.0736,9.6763,58.4926,0.0535,-0.1728,-0.2361,205.1875
15:31:20:538,-1.2999,3.659,8.1775,59.029,0.2458,-0.192,0.1565,205.3438
15:31:20:557,-0.0597,4.0815,7.2893,59.3867,0.1401,0.5255,0.1951,205.6875
15:31:20:582,-0.3542,3.2424,8.5055,58.1441,-0.0767,0.6368,0.0489,205.7656
15:31:20:599,-0.8379,3.6003,9.0717,59.6581,-0.008,0.4101,0.2004,205.4531
15:31:20:615,0.1761,4.6633,8.4002,58.3365,0.2397,0.2386,0.3967,205.25
15:31:20:640,0.8955,5.3445,8.6827,57.8163,0.433,0.0458,0.3253,205.0781
15:31:20:655,0.0468,5.1146,8.6791,56.4601,0.5649,0.0245,-0.0302,204.6719
15:31:20:675,-1.6639,4.6238,8.4804,56.7405,0.6085,0.2029,-0.3319,204.1719
15:31:20:700,-1.8518,4.6214,9.5219,59.56,0.506,0.2434,-0.2797,203.9844
15:31:20:722,-1.3023,4.9758,9.875,55.3862,0.5097,0.1601,-0.0869,204.3906
15:31:20:737,-1.701,4.9901,10.1791,57.0983,0.5244,-0.0154,-0.1242,204.6562
15:31:20:760,-2.5665,4.8034,9.6655,57.7605,0.5598,-0.1033,-0.2326,204.7188
15:31:20:774,-3.2428,4.9327,8.9125,56.5696,0.4701,-0.0152,-0.1492,204.8594
15:31:20:795,-2.5677,4.9686,9.6033,58.8791,0.3089,-0.2405,-0.0086,205.1562
15:31:20:815,-1.5274,4.358,11.1595,56.517,0.2155,-0.7838,0.0364,205.3125
15:31:20:835,-0.784,3.4674,12.0621,55.8935,0.2165,-0.7934,0.038,205.375
15:31:20:855,-1.4568,3.2639,11.4839,56.5411,0.1955,-0.29,0.0497,205.4844
15:31:20:875,-1.9536,3.5404,9.6954,54.8342,0.2056,0.3244,0.1456,205.6094
15:31:20:902,-1.5477,3.3932,8.0746,55.8511,0.2621,0.2418,0.2332,205.5938
15:31:20:919,-2.1822,3.8062,6.559,55.2889,0.3137,-0.2642,0.2481,205.3594
15:31:20:937,-1.2233,3.732,7.0367,56.628,0.0695,-0.7494,0.2819,205.0312
15:31:20:955,0.0504,3.5668,7.1947,57.3753,-0.1364,-0.5822,0.3938,204.8125
15:31:20:974,-0.2788,3.2651,7.8591,56.2557,-0.4077,-0.4085,0.3237,204.6562
15:31:21:000,-0.7385,2.955,7.9369,56.3665,-0.5044,-0.1971,0.2963,204.3438
15:31:21:018,-0.8642,3.119,7.6939,57.2172,-0.4312,-0.0828,0.3671,204.0938
15:31:21:037,-0.6822,3.3908,7.5215,57.0098,-0.2599,-0.0842,0.4321,203.4375
15:31:21:055,-0.5374,3.4399,7.3719,56.6078,0.0043,-0.2264,0.3778,202.9688
15:31:21:075,-1.0928,3.3824,7.4413,57.2362,0.0043,-0.1401,0.4284,202.5469
15:31:21:102,-1.2724,3.5608,7.9956,55.6351,0.0466,-0.0008,0.561,202.1562
15:31:21:120,-0.9073,3.6637,8.2685,56.6052,0.1569,0.2115,0.6585,202.1562
15:31:21:134,-1.0007,3.5285,8.0147,55.2876,0.3199,-0.0117,0.7767,201.6875
15:31:21:154,0.0468,4.5903,8.0913,56.1296,0.4666,-0.2743,0.708,201.0781
15:31:21:176,0.291,4.8465,7.5562,55.6794,0.5481,-0.7566,0.5197,200.2812
15:31:21:200,0.2491,5.2343,7.5023,56.3507,0.4754,-0.7401,0.3703,199.3594
15:31:21:219,0.0121,5.2966,7.4413,54.696,0.2906,-0.5063,0.3264,198.6094
15:31:21:234,-0.9624,5.2511,8.1057,56.1567,0.0461,0.082,0.4718,198.125
15:31:21:254,-0.6786,5.1422,8.6983,54.2372,-0.1324,0.5065,0.7437,197.8125
15:31:21:274,0.5316,5.4414,9.6248,54.7392,-0.18,0.387,0.8441,197.5156
15:31:21:301,1.7742,5.1541,10.7178,56.4186,-0.0831,0.0392,0.8199,196.9844
15:31:21:320,2.7307,4.7866,11.1667,55.1715,0.0235,-0.3193,0.7629,196.0312
15:31:21:336,3.024,4.6478,11.5102,56.4829,0.0927,-0.4527,0.6673,195
15:31:21:359,2.5416,4.4861,11.6802,56.6173,0.1188,-0.3869,0.6958,194.1094
15:31:21:373,3.2467,4.9506,10.6579,55.0604,-0.0977,-0.2993,0.6918,193.2969
15:31:21:394,5.2698,4.6274,10.9452,56.0691,-0.4607,-0.1917,0.304,192.625
15:31:21:425,4.852,3.5285,12.9815,54.5753,-0.4322,0.1694,0.0121,191.9219
15:31:21:433,2.8732,2.7252,13.0928,55.5645,-0.0809,0.5039,-0.0153,191.2031
15:31:21:455,1.7096,2.8748,10.6998,55.7323,0.1614,0.5952,0.0627,190.9531
15:31:21:475,1.6354,3.2471,8.1476,55.0939,0.0775,0.6322,0.0803,190.9688
15:31:21:502,1.8772,3.4758,6.7075,54.4923,-0.1968,0.429,0.0303,190.9062
15:31:21:564,1.8413,3.325,6.9996,54.3833,-0.3822,0.3207,-0.0733,190.7031
15:31:21:564,1.3085,2.9215,7.1815,54.9252,-0.4815,0.489,-0.0765,190.4844
15:31:21:564,1.0404,2.7707,6.9505,56.3809,-0.4527,0.5311,-0.0203,190.4062
15:31:21:588,1.1769,3.0436,6.2681,55.8823,-0.372,0.4392,-0.0483,190.4844
15:31:21:595,1.4235,3.4782,5.8192,52.2302,-0.2631,0.0525,-0.1615,190.5
15:31:21:617,1.3792,3.5117,6.589,53.4299,-0.0533,-0.3923,-0.2712,190.4688
15:31:21:639,0.7902,3.6314,6.838,52.4879,0.167,-0.6274,-0.2672,190.5625
15:31:21:655,0.6214,3.9618,6.6009,53.8983,0.2634,-0.7579,-0.2193,190.875
15:31:21:675,1.1302,4.4035,6.7039,53.702,0.2458,-0.7321,-0.2291,191.25
15:31:21:698,1.5815,4.704,7.2797,52.9354,0.2237,-0.6,-0.3002,191.625
15:31:21:718,1.3612,4.8165,7.9297,52.9354,0.1811,-0.2788,-0.3754,191.9688
15:31:21:733,1.4965,4.8908,8.5678,53.5394,0.2338,-0.0439,-0.3013,192.3594
15:31:21:758,2.1094,5.1876,9.1364,53.4127,0.3108,0.3071,-0.361,192.7969
15:31:21:774,-0.0801,5.3421,8.2805,53.4181,0.3603,0.6109,-0.3786,193.1875
15:31:21:796,-0.4512,5.7383,8.5546,52.046,0.3356,0.7161,-0.2531,193.5
15:31:21:813,-0.3758,5.5635,9.1364,51.6758,0.3153,0.6991,-0.1048,193.7969
15:31:21:832,-0.9252,5.226,9.3112,51.1012,0.2967,0.6725,-0.0686,194.0156
15:31:21:853,-0.3243,5.2846,9.8606,51.2068,0.3185,0.4083,0.1565,194.0156
15:31:21:873,-0.7253,5.0189,9.9887,51.5139,0.3777,0.1265,0.3032,193.9531
15:31:21:893,-2.3582,4.6813,10.3167,52.2005,0.4059,0.1212,0.3861,193.7812
15:31:21:917,-3.5864,4.6202,10.1228,51.7846,0.502,-0.1041,0.5581,193.4219
15:31:21:935,-2.6227,4.5975,7.9836,51.2233,0.6986,-0.4343,0.8668,192.9688
15:31:21:954,0.5855,4.9422,7.7753,52.7614,0.4567,-0.8687,1.2926,192.4375
15:31:21:974,3.012,4.6106,10.2485,51.8292,-0.2386,-0.8192,1.3624,191.125
15:31:21:994,3.3436,3.6697,16.5345,52.6497,-0.8559,0.0157,1.0604,189.7812
15:31:22:017,0.6813,4.285,11.0936,53.0568,-1.3723,2.3745,0.8486,188.5156
15:31:22:034,1.7263,1.0289,8.077,52.7764,-1.1489,2.2075,-0.1152,187.4062
15:31:22:053,-0.966,1.0589,7.1959,52.1311,-0.5888,0.1867,-0.1471,186.125
15:31:22:074,-0.0226,4.5795,5.6181,51.1337,-0.4059,-0.6216,0.6782,185.9375
15:31:22:094,1.3085,4.2,6.7673,52.6954,-1.0818,-0.1917,0.9951,186.125
15:31:22:119,1.2104,1.9184,8.0518,54.6281,-1.2727,0.0626,0.7994,185.4844
15:31:22:135,1.3409,1.7759,9.2729,54.3758,-1.1297,0.9489,0.6817,184.5156
15:31:22:154,1.5767,2.2943,8.0458,52.2812,-0.629,1.2197,0.5171,183.7188
15:31:22:175,2.344,1.9531,6.2418,52.5108,-0.0402,0.8083,0.4545,182.9219
15:31:22:202,2.769,2.5887,4.7909,51.5885,0.1824,0.5963,0.4042,182.2344
15:31:22:219,1.6689,3.2771,5.0974,52.9069,-0.0485,0.5835,0.2289,181.9531
15:31:22:237,-0.0214,3.951,6.9852,51.8,-0.5113,0.3452,0.0851,181.3594
15:31:22:255,-0.4512,4.1545,9.3626,54.1128,-0.8147,-0.0445,0.2287,180.9062
15:31:22:274,0.4598,3.8313,9.62,52.4548,-0.6365,-0.2764,0.4875,180.7188
15:31:22:294,1.3445,3.8744,8.7234,52.77,-0.2019,-0.2586,0.5283,180.5938
15:31:22:316,1.4019,4.0564,8.3607,53.5648,0.0021,-0.1081,0.3719,180.2344
15:31:22:336,1.2954,4.3772,9.9636,52.6234,-0.1004,-0.1675,0.2675,179.6562
15:31:22:354,1.4941,4.291,12.4248,52.8201,-0.1555,-0.2615,0.2249,179.1875
15:31:22:378,2.0208,4.1761,13.0234,51.5063,0.1694,-0.1627,0.1671,178.7188
15:31:22:401,2.2818,4.3581,12.2548,51.9361,0.7225,0.58,-0.3109,178.4844
15:31:22:419,2.6469,4.534,10.8195,52.3375,0.5694,0.6847,-0.5868,178.2969
15:31:22:436,2.21,4.3413,9.7146,53.326,-0.0703,0.2397,-0.7937,178.5625
15:31:22:454,1.1074,3.9403,11.8754,53.102,-0.4682,0.0176,-0.7937,179.0938
15:31:22:477,1.2236,3.0029,14.9004,51.2331,-0.3153,0.1199,-0.7825,179.0938
15:31:22:501,2.0017,1.9124,16.0808,52.3346,0.2181,-0.1449,-0.8369,179.9688
15:31:22:517,1.8365,1.5951,14.4252,52.7197,0.5982,-0.6546,-1.063,181.7969
15:31:22:535,1.0667,2.469,11.1104,52.9775,0.6597,-0.8482,-1.1381,181.7969
15:31:22:552,1.1362,2.8557,8.2039,52.0109,0.3761,-0.6514,-1.1032,182.7188
15:31:22:572,0.7543,2.8844,6.9601,52.7545,-0.1244,-0.1614,-1.0156,183.9844
15:31:22:594,1.1697,2.0596,7.664,52.9627,-0.4085,0.2485,-1.0148,185.3594
15:31:22:620,1.7227,0.7368,8.0303,51.1566,-0.3696,0.3105,-1.1911,186.6094
15:31:22:635,1.8245,0.0222,7.9237,52.0429,-0.0932,0.3718,-1.5091,187.7969
15:31:22:653,-0.5841,1.2839,6.6692,51.3514,0.1601,0.3167,-1.3272,188.9531
15:31:22:673,-1.1898,1.9076,5.0615,51.7203,0.1659,0.1215,-1.0084,190.2344
15:31:22:692,0.2348,1.6682,4.02,50.4971,-0.1902,0.3646,-1.0374,191.9062
15:31:22:718,-0.3842,2.572,3.6764,49.4842,-0.6543,0.906,-1.1397,193.3906
15:31:22:736,-0.9791,2.7372,4.6497,52.1616,-0.9396,1.514,-1.1791,194.5312
15:31:22:755,-2.3725,2.3433,6.7182,51.7024,-0.8261,1.7593,-1.0156,195.6094
15:31:22:774,-3.353,2.7121,8.6049,50.0401,-0.3459,1.4283,-0.7349,196.8281
15:31:22:793,-3.3901,3.0269,9.0885,51.3452,0.2964,0.7955,-0.468,198
15:31:22:819,-2.782,3.1897,8.8144,49.7839,0.7771,0.2107,-0.3301,198.9062
15:31:22:838,-2.5509,3.3417,8.2781,51.1576,0.9215,0.0179,-0.259,200.0781
15:31:22:855,-2.9627,3.4913,7.6927,52.5142,0.7715,0.0565,-0.2025,200.4688
15:31:22:873,-3.4882,3.6889,7.4916,51.6169,0.5191,-0.0229,-0.0504,200.8281
15:31:22:894,-3.6666,3.4135,8.387,51.8707,0.3617,-0.4343,0.1845,200.9688
15:31:22:918,-3.9563,3.8158,9.5901,52.0939,0.3659,-1.1718,0.3845,201.1875
15:31:22:936,-3.0812,3.7032,12.0813,52.6725,0.4032,-1.4107,0.4982,201.1562
15:31:22:953,-2.1271,3.6338,13.495,52.1196,0.289,-0.6906,0.5395,200.9531
15:31:22:974,-2.0469,3.9678,13.0665,53.6897,0.0013,0.1745,0.5623,200.6406
15:31:22:995,-2.9112,4.4526,12.8594,54.4314,-0.1742,0.4821,0.6795,200.2031
15:31:23:020,-3.2524,4.3162,12.9743,53.9126,-0.016,0.1675,0.817,199.6562
15:31:23:036,-2.8071,3.629,12.7193,53.5934,0.3007,-0.4096,0.8929,198.8906
15:31:23:054,-2.248,2.912,12.6774,55.5985,0.5822,-0.7332,0.9528,197.9688
15:31:23:078,-1.6842,2.335,12.0741,53.7489,0.7233,-0.5835,0.953,197.0469
15:31:23:092,-1.6615,1.8046,10.1886,55.5333,0.5593,-0.2418,0.9672,196.0938
15:31:23:114,-1.622,1.7951,8.4169,54.9406,0.1606,-0.0208,1.0273,195.1094
15:31:23:135,-1.2616,2.1674,7.2713,54.9373,-0.2421,-0.0791,1.0566,194.125
15:31:23:154,-0.7577,2.3433,6.7075,55.4462,-0.5246,-0.3007,1.0199,193
15:31:23:173,0.3963,2.3936,6.984,55.5942,-0.6842,-0.4743,0.9773,191.8125
15:31:23:195,1.0045,2.5002,6.8894,55.8462,-0.7222,-0.5726,0.8881,190.6406
15:31:23:214,1.4642,2.6402,7.2486,55.9218,-0.7177,-0.5912,0.7557,189.6406
15:31:23:234,1.6042,2.566,7.5443,54.5105,-0.6253,-0.4445,0.626,188.6562
15:31:23:252,1.0596,2.5636,7.8818,56.6991,-0.4674,-0.1377,0.5059,187.8281
15:31:23:271,0.4933,2.9491,7.227,56.5215,-0.2253,0.2655,0.4859,186.8906
15:31:23:292,0.206,3.4794,6.4405,56.7449,-0.0429,0.5497,0.5139,186.3594
15:31:23:315,0.1031,3.9846,6.2131,54.7287,0.0195,0.506,0.5051,185.7812
15:31:23:334,-0.1028,4.3473,7.0331,56.346,-0.0109,0.1329,0.4675,185.1562
15:31:23:352,0.4119,4.5412,8.296,56.472,-0.1281,-0.1254,0.4398,184.8438
15:31:23:372,1.1146,5.0296,10.5597,57.2479,-0.265,-0.0783,0.3882,184.2344
15:31:23:392,1.6988,5.3421,11.4719,55.967,-0.2495,0.1923,0.197,183.7344
15:31:23:416,1.8149,5.3469,11.952,56.8148,-0.1033,0.3121,-0.1016,183.2812
15:31:23:433,1.1637,4.6825,12.1651,57.0023,0.1113,-0.0453,-0.4422,182.9375
15:31:23:453,0.1893,3.7643,12.1196,57.0313,0.2807,-0.5832,-0.6555,182.8594
15:31:23:473,0.2934,2.9431,12.4559,56.8585,0.2224,-1.0674,-0.6262,183.125
15:31:23:493,1.1781,2.6953,12.7792,56.6375,-0.0285,-0.8908,-0.4473,183.8125
15:31:23:519,1.7048,3.2639,13.1419,56.1465,-0.3196,-0.2623,-0.3367,184.6719
15:31:23:537,1.6844,3.6996,13.5094,54.6019,-0.4586,0.1659,-0.3743,185.3594
15:31:23:553,0.9961,2.991,14.5485,55.2116,-0.4101,-0.0016,-0.5698,185.875
15:31:23:625,0.8046,1.8968,14.1343,55.8189,-0.0908,-0.2932,-0.6651,186.2812
15:31:23:632,0.9374,1.2396,11.3654,55.4035,0.3856,-0.2754,-0.5849,186.8281
15:31:23:632,0.6047,1.3557,8.5702,55.8703,0.681,-0.2005,-0.4174,187.5625
15:31:23:633,1.1302,2.1302,7.1672,54.3717,0.5768,-0.2514,-0.162,188.3281
15:31:23:654,2.5703,2.9,7.3791,53.9851,0.2136,-0.5758,-0.011,188.8906
15:31:23:673,3.2491,2.9802,8.0722,55.411,-0.1121,-0.8301,-0.2004,189.1875
15:31:23:694,3.2407,2.6474,8.6923,55.1798,-0.2628,-0.8751,-0.5895,189.2656
15:31:23:718,3.2897,2.3577,7.6783,55.8259,-0.1324,-0.6826,-0.9538,189.6562
15:31:23:733,2.4015,2.0034,5.3883,53.6268,0.1566,-0.3864,-1.2332,190.4375
15:31:23:761,1.4319,1.9028,3.7291,54.041,0.2591,-0.1478,-1.4401,193.0781
15:31:23:773,0.2886,2.1961,3.4813,53.524,-0.2469,0.0141,-1.3554,194.625
15:31:23:800,-0.3004,2.2691,4.0176,53.5276,-0.4104,-0.1212,-1.219,196.2812
15:31:23:822,-0.2908,2.0213,5.1345,52.879,-0.3393,-0.2924,-0.9985,197.8594
15:31:23:842,-0.3722,1.9698,6.0203,54.2423,-0.0812,-0.506,-0.7554,199.3125
15:31:23:854,-0.4368,2.1721,6.7578,53.6255,0.2,-0.6517,-0.5218,200.4531
15:31:23:874,-0.2345,2.2931,7.9082,53.1474,0.3476,-0.2943,-0.3128,200.4531
15:31:23:894,0.3078,2.627,8.3224,52.5384,0.3734,0.1057,-0.1194,201.4062
15:31:23:920,1.0392,3.2388,8.545,52.5384,0.3547,0.3526,-0.0736,202.0625
15:31:23:938,1.0272,3.7368,8.9856,51.7818,0.3143,0.4874,-0.1559,202.4062
15:31:23:953,-0.0849,3.8696,9.207,52.6307,0.1566,0.6168,-0.1628,202.4844
15:31:23:973,-1.5166,3.6362,9.8666,52.7,-0.0562,0.7998,0.0494,202.4844
15:31:23:992,-2.4994,3.3142,10.8004,51.9909,-0.2003,0.9121,0.4215,202.5469
15:31:24:018,-2.7413,2.6833,11.035,51.9354,-0.22,0.7819,0.8921,202.625
15:31:24:035,-1.8901,3.5129,10.9045,51.8522,-0.183,0.3374,1.274,202.4531
15:31:24:055,0.7208,4.637,10.8554,50.7137,-0.2218,-0.3928,1.1254,201.8438
15:31:24:072,2.2231,5.0296,11.1284,51.1569,-0.5193,-1.0772,0.6138,200.7656
15:31:24:094,2.5056,4.0995,13.2915,51.6017,-0.8924,-0.8631,0.1432,198.0469
15:31:24:119,2.538,2.3385,14.9088,51.1072,-0.9883,0.1745,-0.1956,198.0469
15:31:24:138,0.971,1.5066,13.6782,51.5686,-0.894,1.0626,-0.3554,197.5781
15:31:24:152,-0.9743,1.3773,10.8363,51.9424,-0.8517,1.2381,-0.2803,197.7188
15:31:24:175,-1.592,1.2815,9.0813,51.9544,-0.8365,0.8085,-0.1184,198.0781
15:31:24:193,-1.3574,0.9571,9.0957,50.9595,-0.6602,0.0983,0.0587,198.375
15:31:24:218,-1.3466,0.8338,9.5877,50.6915,-0.3076,-0.4738,0.2753,198.5625
15:31:24:237,-1.1994,0.8481,9.2226,51.8532,-0.0122,-0.7316,0.528,198.6094
15:31:24:258,-0.8283,0.8901,8.733,50.9769,0.1659,-0.6842,0.7392,198.4844
15:31:24:272,-0.3351,1.2444,8.2577,51.3017,0.2498,-0.3646,0.8952,198.0781
15:31:24:297,0.1893,1.6406,7.5574,50.421,0.2839,-0.061,0.9533,197.3906
15:31:24:319,0.2886,1.9675,6.6835,52.6994,0.245,0.0562,0.9648,196.4688
15:31:24:333,0.3066,2.2296,6.6225,50.4112,0.2069,0.0589,0.9919,195.4375
15:31:24:352,0.3161,2.4199,7.2234,50.3788,0.2815,0.0626,1.0063,194.3125
15:31:24:373,0.2383,2.7611,7.549,52.4386,0.3755,0.0687,1.0098,193.1719
15:31:24:393,0.2886,3.0831,7.7561,50.64,0.403,0.016,0.976,192.0625
15:31:24:419,0.3138,3.4423,8.545,51.4853,0.4171,-0.0122,0.9291,190.8594
15:31:24:437,0.5879,3.6362,9.2286,52.3388,0.4208,-0.0618,0.8308,189.6875
15:31:24:452,0.6884,3.9187,9.7697,50.0409,0.3428,-0.0666,0.7139,188.6094
15:31:24:473,1.1182,4.1079,10.6914,51.351,0.1918,-0.028,0.5674,187.5469
15:31:24:493,1.6342,3.987,11.6874,51.4609,0.0621,-0.0194,0.3845,186.6406
15:31:24:518,2.0974,3.6925,12.5577,51.5249,-0.032,-0.0375,0.2031,186.2344
15:31:24:534,2.3728,3.1274,14.3941,50.712,0.0623,0.1667,0.0396,185.5938
15:31:24:554,1.9682,2.3792,14.3749,52.1401,0.2445,0.51,-0.0371,185.1562
15:31:24:572,0.7782,2.165,10.7417,50.6085,0.2836,0.7651,0.0167,184.8906
15:31:24:594,1.1733,2.4738,9.4668,50.8407,0.1686,0.7787,0.0902,184.8594
15:31:24:617,1.7168,2.3649,9.3339,49.0918,-0.0149,0.3737,0.0633,184.7969
15:31:24:636,2.3847,1.7316,10.5119,50.135,-0.1766,-0.2575,-0.0233,184.625
15:31:24:652,3.1174,1.0385,11.4025,49.7557,-0.1776,-0.5832,-0.0672,184.4531
15:31:24:671,3.2802,0.9774,10.8075,50.126,0.0021,-0.4743,-0.096,184.4375
15:31:24:692,2.9773,1.728,8.5833,49.8786,0.2021,-0.1001,-0.153,184.5625
15:31:24:718,2.7522,2.2655,6.8739,49.0054,0.1968,0.0637,-0.2726,184.7188
15:31:24:739,2.2303,2.402,6.1855,51.8007,0.0245,0.0511,-0.4512,184.8594
15:31:24:756,1.3959,2.3194,5.8599,51.2258,-0.1505,0.0647,-0.6076,185.0781
15:31:24:772,0.534,2.1829,5.4445,51.6282,-0.2442,0.1119,-0.6758,185.4688
15:31:24:792,-0.0334,2.2069,5.2039,50.6138,-0.2756,0.1108,-0.6278,186.0469
15:31:24:813,-0.1531,2.5421,5.4912,50.0754,-0.281,0.0416,-0.4904,186.8125
15:31:24:835,0.1976,2.876,6.0072,51.2657,-0.2125,-0.0751,-0.3594,187.5781
15:31:24:852,0.8058,3.2759,6.4082,51.792,-0.0304,-0.2575,-0.3133,188.2031
15:31:24:872,1.1948,3.5021,6.7913,50.2903,0.1883,-0.5025,-0.353,188.7031
15:31:24:893,0.1545,3.4961,7.5814,49.4078,0.3795,-0.8114,-0.4891,189.0938
15:31:24:920,-1.1443,3.2388,9.1484,49.7925,0.498,-1.1563,-0.5264,189.5
15:31:24:936,-1.0881,3.1526,10.9787,49.6865,0.5638,-1.2336,-0.3173,189.9844
15:31:24:954,-0.0969,3.7152,11.7449,51.1759,0.6317,-0.8445,0.0036,190.6719
15:31:24:978,0.8369,4.5257,11.12,50.1892,0.6799,-0.2447,0.2079,191.4375
15:31:24:991,1.1254,5.1864,10.4676,49.7393,0.6227,0.1425,0.2233,191.4531
15:31:25:012,1.1637,5.3517,10.7178,52.4001,0.4304,0.285,0.1522,191.1562
15:31:25:033,1.0069,5.3074,11.4169,50.2792,0.2101,0.3273,0.0755,190.8125
15:31:25:053,1.105,4.9375,12.1459,50.5156,0.0634,0.363,0.0249,190.5469
15:31:25:073,1.0081,4.8405,11.9472,51.7174,0.0368,0.4517,-0.0017,190.3906
15:31:25:094,0.8309,4.9781,11.3271,50.9429,0.0312,0.5555,0.0079,190.2969
15:31:25:119,0.771,5.1888,10.962,50.254,-0.024,0.5667,0.0572,190.2344
15:31:25:138,1.4007,5.0596,11.108,49.0176,-0.1185,0.4264,0.1277,190.1406
15:31:25:152,1.7706,4.1881,11.5749,48.9819,-0.1843,0.2562,0.0963,189.9844
15:31:25:178,1.0811,2.985,11.3055,50.8427,-0.1587,0.2506,-0.0752,189.7969
15:31:25:201,0.1438,2.056,9.6104,50.9234,-0.1302,0.5843,-0.1594,189.7344
15:31:25:214,-0.4452,1.6586,7.5502,50.5463,-0.3763,0.4014,-0.1138,189.875
15:31:25:234,-0.1687,1.8489,6.0335,49.0028,-0.7526,-0.1172,-0.108,189.9844
15:31:25:262,0.4323,2.4367,6.2849,51.7142,-1.0794,-0.7105,-0.1705,190.0938
15:31:25:277,1.1206,1.9531,8.3966,49.0144,-1.0426,-0.9779,-0.284,190.0938
15:31:25:292,0.6334,1.1726,10.1934,50.2062,-0.6967,-0.6935,-0.2678,190.2812
15:31:25:313,0.1174,0.7524,9.9648,49.1902,-0.2756,-0.1883,-0.0627,190.625
15:31:25:334,-0.0729,1.1391,8.4169,49.5303,0.033,0.122,0.189,191.1562
15:31:25:360,-0.0933,1.7208,7.1384,48.458,0.2181,0.1417,0.4119,191.6406
15:31:25:371,0.2467,2.0477,6.5303,48.9912,0.3255,0.1052,0.5879,191.6406
15:31:25:393,0.9937,2.5037,6.2657,48.3195,0.2991,0.1918,0.5858,191.2656
15:31:25:418,1.2164,2.7563,6.1736,48.4332,0.0575,0.4938,0.4923,190.6406
15:31:25:439,1.0272,2.9898,6.65,49.1511,-0.2429,0.7436,0.3996,189.8906
15:31:25:456,0.6825,3.1203,8.0674,48.7789,-0.3728,0.8352,0.3024,189.25
15:31:25:472,0.3126,3.0484,9.5781,48.1014,-0.2394,0.7521,0.2319,188.7031
15:31:25:492,0.3185,3.0329,10.3275,48.1873,0.0392,0.5614,0.1749,188.4531
15:31:25:513,0.4095,3.2112,9.8762,49.8129,0.253,0.0988,0.091,188.0625
15:31:25:535,0.4514,3.3417,9.6691,49.4359,0.2147,-0.3622,-0.0275,187.7656
15:31:25:553,0.6106,2.9503,10.7501,48.402,0.0815,-0.5609,-0.1399,187.5156
15:31:25:571,0.5855,2.2464,11.9352,48.6977,-0.0045,-0.3526,-0.1594,187.3906
15:31:25:591,0.455,1.722,11.8849,47.4384,-0.127,-0.001,-0.1026,187.4375
15:31:25:611,0.631,1.6023,11.2756,48.0211,-0.3007,0.1979,-0.0534,187.6406
15:31:25:632,1.1409,1.7005,10.7034,49.5613,-0.5396,0.1595,-0.1351,187.8594
15:31:25:696,1.1122,1.9232,10.8602,48.1148,-0.8282,-0.0743,-0.3245,187.9844
15:31:25:697,0.7651,1.236,12.4991,48.8656,-0.9577,-0.1984,-0.4105,188.0469
15:31:25:697,0.388,0.313,14.5449,45.6997,-0.734,-0.0026,-0.271,188.2188
15:31:25:715,0.3257,0.1921,14.7843,48.0373,-0.2474,0.2645,0.01,188.6562
15:31:25:737,0.8584,1.1905,12.93,47.6068,0.188,0.1377,0.1586,189.1875
15:31:25:754,1.7407,2.4523,10.9979,47.4551,0.3768,-0.2013,0.0308,189.5469
15:31:25:771,2.1908,2.791,10.0043,47.9928,0.3324,-0.2708,-0.255,189.5312
15:31:25:791,1.5348,2.554,9.5159,48.8145,0.2589,0.0115,-0.4526,189.2969
15:31:25:812,0.4323,2.1626,8.8778,46.7188,0.2986,0.3321,-0.4667,189.4062
15:31:25:835,-0.3243,1.8705,7.737,46.5893,0.4336,0.4746,-0.3399,189.8281
15:31:25:851,-0.4332,1.8848,6.6512,47.807,0.5968,0.4237,-0.1772,190.3125
15:31:25:877,-0.0538,2.1147,5.7534,47.6049,0.7598,0.2493,-0.0717,190.7344
15:31:25:891,0.4574,2.4271,5.0758,47.8528,0.8269,0.0871,-0.0707,190.9688
15:31:25:912,0.7351,2.7288,4.6772,45.5284,0.7494,-0.0021,-0.1306,191.0156
15:31:25:935,0.8201,3.064,4.937,47.2322,0.551,-0.0117,-0.2081,191.0156
15:31:25:952,0.6729,3.5105,8.5211,46.7426,0.4003,0.0077,-0.2976,191.0938
15:31:25:972,0.807,3.5345,9.2765,46.1654,0.4767,0.1904,-0.3676,191.25
15:31:25:994,0.6729,4.1294,9.3219,47.272,0.6205,0.3721,-0.4419,191.5
15:31:26:018,0.8453,4.6513,9.2286,47.944,0.563,0.8605,-0.4675,191.8438
15:31:26:037,0.0935,4.8668,8.903,47.8044,0.4048,1.3854,-0.5572,192.25
15:31:26:054,-1.7369,4.9961,9.0406,46.346,0.2432,1.3372,-0.6691,192.6562
15:31:26:072,-2.7424,4.4778,9.3746,46.346,0.142,1.0022,-0.5698,193.0312
15:31:26:095,-2.8191,4.212,10.2521,45.6745,0.0922,0.493,-0.2979,193.5469
15:31:26:117,-2.2385,4.3916,11.0422,48.9542,0.11,0.0562,0.03,194.0781
15:31:26:135,-1.9033,4.5245,11.3833,48.4153,0.1404,-0.1395,0.2356,194.4844
15:31:26:152,-2.1487,4.2635,11.8586,47.6999,0.0674,-0.1118,0.3208,194.5938
15:31:26:172,-2.6694,3.9558,12.5481,47.2595,-0.0101,-0.1819,0.3839,194.4219
15:31:26:191,-2.6742,3.477,13.1491,47.0095,0.0839,-0.6442,0.4795,194.1406
15:31:26:212,-2.0852,2.5385,12.6786,48.3268,0.2221,-0.6959,0.5445,193.5469
15:31:26:235,-1.9847,2.469,10.4065,47.9658,0.4099,-0.3742,0.5608,193.1094
15:31:26:254,-1.8351,2.7072,8.1751,48.731,0.2938,0.0559,0.5882,192.6094
15:31:26:271,-1.1958,2.9634,7.0187,47.9801,-0.0487,0.2344,0.626,192.0156
15:31:26:291,-0.5302,3.246,6.8284,48.4134,-0.3872,0.0908,0.5948,191.3281
15:31:26:314,0.8118,3.2579,7.1169,47.6701,-0.4857,-0.229,0.5166,190.6094
15:31:26:335,0.7543,2.3697,7.0702,49.0208,-0.2626,-0.6455,0.3387,189.9219
15:31:26:351,0.5292,2.4523,5.8551,48.8744,0.0605,-0.5904,0.1621,189.375
15:31:26:371,0.5161,2.5121,4.2522,48.7929,0.1212,-0.3063,0.2305,189.1094
15:31:26:392,-0.1244,2.8329,3.9194,50.1631,-0.135,-0.0714,0.1685,189
15:31:26:412,-0.4943,2.554,4.6999,50.8896,-0.5667,0.1068,0.1211,188.7812
15:31:26:434,-0.4644,2.384,5.648,50.5431,-0.8498,0.2738,0.2151,188.6094
15:31:26:450,-0.6391,2.5037,6.4345,49.8952,-0.8703,0.3068,0.2902,188.4844
15:31:26:473,-0.5446,2.5863,8.0183,51.5356,-0.7739,0.1846,0.3525,188.2344
15:31:26:492,0.1186,2.7863,8.6444,51.2431,-0.5577,0.3425,0.4518,187.8906
15:31:26:512,0.0588,3.1502,9.1735,50.0473,-0.2866,0.2107,0.4433,187.5
15:31:26:535,-0.5134,3.1454,9.6476,49.5066,-0.0194,-0.1015,0.3496,186.9688
15:31:26:552,-0.5386,3.0209,9.8331,53.1887,0.1816,-0.3739,0.3312,186.4375
15:31:26:573,0.3078,3.5273,10.0486,52.7157,0.2368,-0.4714,0.4175,186.2344
15:31:26:592,1.1817,4.1162,10.9225,54.2415,0.0743,-0.4551,0.3578,185.9062
15:31:26:613,1.263,4.1821,12.3506,51.821,-0.1984,-0.4248,0.0822,185.5156
15:31:26:635,0.4682,3.1609,13.5226,51.6332,-0.4269,-0.3079,-0.3074,185.0781
15:31:26:654,-0.7098,2.3912,13.6136,52.1366,-0.404,0.1108,-0.4763,184.9062
15:31:26:671,-0.9995,2.4463,12.9587,52.8539,-0.4378,0.0408,-0.3972,185.9531
15:31:26:692,-0.5961,2.7539,12.9671,53.0058,-0.6655,-0.1457,-0.4366,185.9531
15:31:26:716,-0.104,2.0058,14.8226,54.5488,-0.7835,-0.0807,-0.4928,186.4688
15:31:26:741,0.2024,0.6087,16.75,54.0086,-0.4716,0.407,-0.3889,186.9375
15:31:26:751,0.1055,0.0808,15.3254,53.7487,0.0461,0.7809,-0.1192,187.4844
15:31:26:771,0.461,0.7392,12.0609,54.451,0.3931,0.6472,0.1421,188.0625
15:31:26:790,1.7527,1.5975,9.3974,55.5147,0.5276,0.2227,0.1333,188.5
15:31:26:810,2.4769,2.1482,7.8818,55.2136,0.5217,-0.0556,-0.1064,188.5781
15:31:26:840,2.0747,2.0417,6.7506,53.583,0.4501,-0.0937,-0.333,188.3594
15:31:26:855,1.1553,1.7735,5.8168,55.9102,0.3385,0.008,-0.4267,188.1875
15:31:26:871,0.3521,1.673,5.1608,55.8957,0.2258,0.0831,-0.3959,188.2969
15:31:26:892,-0.0693,1.7268,5.022,56.2916,0.1449,0.1406,-0.2877,188.6719
15:31:26:912,-0.1974,1.9279,5.1967,55.6514,0.1281,0.1795,-0.1703,189.125
15:31:26:936,-0.1842,2.1949,5.5834,55.3519,0.1822,0.1643,-0.063,189.5781
15:31:26:955,0.1426,2.5025,5.9078,56.1139,0.2719,0.122,-0.0145,189.875
15:31:26:971,0.3233,2.9491,6.3855,56.2914,0.3425,0.0868,-0.0358,190.0469
15:31:26:991,0.2886,3.3166,6.8523,58.2224,0.3891,0.0666,-0.096,190.0938
15:31:27:011,-0.0729,3.6326,7.4413,56.2914,0.4,-0.0349,-0.1455,190.0938
15:31:27:036,-0.4943,3.6937,8.6576,56.0625,0.4639,-0.0975,-0.1351,190.125
15:31:27:055,-0.5482,3.8385,9.5769,58.1258,0.5987,-0.1118,-0.1263,190.2188
15:31:27:072,-0.6344,4.1629,9.4345,56.9213,0.6394,-0.0298,-0.153,190.4688
15:31:27:092,-1.1814,4.7699,8.7066,58.3115,0.4701,0.1057,-0.1556,190.6094
15:31:27:111,-1.5549,5.3074,8.9377,59.2812,0.2229,0.138,-0.1317,190.7656
15:31:27:135,-1.4328,5.5157,10.2425,59.3909,0.0807,0.1683,-0.1207,190.9219
15:31:27:152,-1.5262,5.5552,11.4408,57.8361,0.0794,0.2125,-0.1325,191.0625
15:31:27:171,-1.5765,5.3648,11.8526,60.6105,0.0914,0.248,-0.1476,191.1719
15:31:27:193,-1.8159,5.2666,11.5677,60.2528,-0.0312,0.2482,-0.1373,191.2812
15:31:27:210,-1.8542,5.0655,11.6311,58.3225,-0.2474,0.1731,-0.1117,191.4219
15:31:27:231,-1.9943,4.4095,12.4895,58.6773,-0.3475,0.098,-0.0417,191.5312
15:31:27:252,-2.0876,3.2807,13.665,58.4691,-0.1475,0.1931,0.0952,191.6406
15:31:27:272,-2.0182,2.1362,13.009,60.9629,0.1926,0.3808,0.2452,191.7344
15:31:27:292,-2.1966,1.7639,10.4041,59.8892,0.2975,0.3659,0.4175,191.6875
15:31:27:312,-1.8039,2.0429,8.3008,59.8928,0.1441,0.1401,0.5043,191.4531
15:31:27:335,-1.1096,2.4547,7.2019,60.9932,-0.1465,-0.1116,0.4582,191.0156
15:31:27:354,-0.2537,2.4235,7.3168,61.6107,-0.4453,-0.2756,0.3214,190.4375
15:31:27:370,-0.2609,2.0907,7.4569,62.2612,-0.5936,-0.2884,0.1898,189.8906
15:31:27:391,-0.5039,1.9435,7.148,62.7196,-0.5723,-0.2154,0.136,189.4688
15:31:27:410,-0.6631,1.9279,6.7159,61.3136,-0.4716,-0.1459,0.1695,189.2344
15:31:27:436,-0.9504,2.0369,6.5411,60.9517,-0.371,-0.0855,0.2505,189.0938
15:31:27:451,-1.0198,2.1458,6.5327,60.7763,-0.278,0.0104,0.3616,188.9531
15:31:27:479,-1.009,2.3469,6.3579,60.4267,-0.1603,0.1279,0.4822,188.7344
15:31:27:490,-0.9288,2.6426,6.31,60.3485,-0.0506,0.1864,0.5874,188.2031
15:31:27:510,-0.796,3.0975,6.3088,63.9381,0.0589,0.143,0.6662,187.625
15:31:27:536,-0.5984,3.5811,6.5997,61.4062,0.1529,-0.0951,0.671,186.9375
15:31:27:556,-0.4871,3.7487,7.8519,63.6935,0.1729,-0.4722,0.5935,186.1562
15:31:27:573,-0.6643,3.4614,9.3603,63.313,0.1726,-0.7339,0.471,185.4375
15:31:27:591,-0.6643,3.1945,10.3862,63.923,0.2037,-0.6906,0.3983,185.1094
15:31:27:611,-0.2058,3.3357,10.683,62.7312,0.2309,-0.4317,0.4023,184.5625
15:31:27:634,0.285,3.4973,10.8231,63.2979,0.1699,-0.1651,0.3621,184.1875
15:31:27:654,0.7722,3.5273,11.3079,63.3031,0.0216,-0.0256,0.263,183.7969
15:31:27:671,0.6801,3.3549,12.1734,62.4094,-0.1132,-0.0189,0.0936,183.375
15:31:27:696,0.224,2.6821,12.5314,63.3634,-0.1406,-0.0162,-0.0694,183.0156
15:31:27:766,0.0456,2.6007,11.5892,63.9832,-0.0493,0.1646,-0.096,182.8125
15:31:27:767,0.2838,3.1765,10.531,63.9224,-0.0059,0.293,-0.0408,182.8281
15:31:27:767,0.7854,3.4949,10.3814,64.9063,-0.0754,0.1412,-0.0741,182.9531
15:31:27:782,1.542,3.2495,11.1703,60.3572,-0.2272,-0.1459,-0.2017,182.9844
15:31:27:790,1.8317,2.5002,12.4799,63.3749,-0.3696,-0.4088,-0.3666,183
15:31:27:813,1.7539,1.643,13.3286,64.6633,-0.4013,-0.3782,-0.4648,183.1562
15:31:27:832,1.6342,1.3354,12.1255,64.3264,-0.2525,-0.0535,-0.4363,183.5312
15:31:27:850,1.7718,1.6765,9.7697,62.3732,-0.1052,0.2685,-0.3229,184.0625
15:31:27:871,1.876,2.0524,8.2481,63.3827,-0.1129,0.2623,-0.268,184.875
15:31:27:891,1.6162,2.1159,7.6652,62.1863,-0.2178,0.0714,-0.316,185.2031
15:31:27:911,1.1541,2.0285,7.567,63.646,-0.3111,-0.0107,-0.3679,185.4844
15:31:27:938,0.6178,1.9208,7.2869,61.3395,-0.2937,0.0701,-0.3655,185.8438
15:31:27:954,0.194,1.9303,6.6692,61.1323,-0.1414,0.1976,-0.3032,186.2812
15:31:27:972,0.0755,2.1961,5.8168,62.5291,0.085,0.2669,-0.1796,186.6875
15:31:27:990,0.2599,2.6055,5.0507,62.5291,0.3033,0.2085,-0.0606,187.0156
15:31:28:011,0.6478,3.204,4.3827,62.5424,0.4458,0.0498,-0.0033,187.1875
15:31:28:037,0.9231,3.8936,4.2091,62.4141,0.4458,-0.1105,-0.0443,187.2344
15:31:28:055,0.7734,4.4239,4.6975,63.0179,0.0474,-0.2431,-0.3687,187.2188
15:31:28:071,-0.1256,4.4778,6.2059,63.0213,-0.1526,-0.2272,-0.4393,187.2812
15:31:28:090,-1.0857,4.0324,8.7258,63.0696,-0.1473,0.0022,-0.3144,187.5
15:31:28:110,-1.5621,4.0408,10.7932,63.3068,0.1257,0.2205,-0.129,187.9375
15:31:28:130,-1.4843,4.6933,10.7836,62.1895,0.3643,0.2144,-0.0259,188.4688
15:31:28:154,-1.0222,5.3301,10.4317,61.7878,0.4019,0.061,-0.0289,188.8281
15:31:28:173,-0.9396,5.5037,10.7752,62.1009,0.3127,-0.1755,-0.0749,188.9375
15:31:28:189,-1.197,5.0129,12.1399,61.7922,0.2474,-0.2336,-0.0454,188.9375
15:31:28:210,-1.3909,4.3604,13.4053,62.2088,0.2511,0.0077,0.0865,188.9531
15:31:28:236,-1.5106,4.4718,13.6399,61.7406,0.2136,0.33,0.2255,189.0469
15:31:28:254,-1.0378,4.7639,13.1718,61.7406,0.0373,0.5577,0.2521,189.125
15:31:28:270,-0.8008,4.8465,13.1562,60.4633,-0.1177,0.5673,0.2297,189.0156
15:31:28:290,-0.705,4.5173,13.7536,62.7832,-0.0301,0.339,0.2153,188.7031
15:31:28:310,-0.4404,3.6518,13.8853,61.9847,0.2812,0.1643,0.1757,188.1875
15:31:28:331,-0.4392,2.6402,12.3482,63.0994,0.5547,0.1806,0.152,187.875
15:31:28:354,-0.5446,2.4355,10.0977,61.2415,0.5531,0.216,0.1634,187.6094
15:31:28:370,-0.3782,2.9742,8.059,61.3275,0.2485,0.0125,0.1115,187.4219
15:31:28:390,-0.1172,3.6853,7.7908,61.6551,-0.1348,-0.4322,-0.0302,187.2031
15:31:28:411,0.2946,3.653,9.1136,61.0894,-0.3119,-0.772,-0.1951,187
15:31:28:435,0.7148,3.2938,10.7118,61.021,-0.1598,-0.8296,-0.3631,186.9844
15:31:28:452,0.9494,3.0401,10.8387,61.1699,0.1324,-0.5483,-0.5434,187.2188
15:31:28:470,0.9099,3.0388,9.0777,59.86,0.1888,-0.1161,-0.6797,187.6562
15:31:28:490,0.9147,3.0149,7.3683,60.1261,-0.0064,0.4016,-0.7967,188.25
15:31:28:511,0.2156,2.7994,6.3184,62.5805,-0.2338,0.6996,-0.8465,189
15:31:28:536,-0.9935,2.2691,6.3412,59.8493,-0.2668,0.5633,-0.696,189.8281
15:31:28:553,-1.0809,1.7544,6.8296,60.0061,-0.0218,0.3151,-0.4313,190.6875
15:31:28:572,-0.7182,1.6263,6.9206,60.1743,0.3515,0.0376,-0.1783,191.4688
15:31:28:590,-0.4368,1.9052,6.3088,59.5362,0.6253,-0.3062,-0.015,192.0469
15:31:28:611,-0.9815,3.0233,6.5662,59.2512,0.7726,-0.4818,0.0974,192.25
15:31:28:634,-0.6846,3.6841,7.2366,60.3214,0.8994,-0.6333,0.1136,192.4375
15:31:28:652,-0.1124,4.0157,7.9333,60.4563,0.9715,-0.5534,0.005,192.5
15:31:28:671,-0.0849,4.4191,8.0734,57.6829,0.9249,-0.445,-0.1309,192.4688
15:31:28:690,-0.1411,4.7818,8.229,62.6899,0.7289,-0.5047,-0.2952,192.4375
15:31:28:711,-0.043,4.8608,8.9006,58.3531,0.4629,-0.576,-0.4867,192.5
15:31:28:736,-0.0598,4.5041,9.8247,61.4776,0.2432,-0.5989,-0.6007,192.8906
15:31:28:753,-0.383,3.8768,11.0182,58.6287,0.1036,-0.4687,-0.5746,193.4375
15:31:28:771,-0.5063,3.6147,10.9775,59.8336,0.0469,-0.338,-0.4297,194.1562
15:31:28:790,-0.1591,3.6111,10.288,60.2824,0.0019,-0.07,-0.2278,194.9531
15:31:28:809,0.5807,3.4327,9.9384,59.2118,-0.1265,0.0258,-0.0789,195.625
15:31:28:829,1.2128,3.1729,10.7333,60.6203,-0.3324,-0.2543,-0.0696,196.0312
15:31:28:856,1.5659,2.6318,11.0386,58.8985,-0.4583,-0.416,-0.116,196.1875
15:31:28:871,1.2307,2.4271,10.2353,60.1318,-0.4423,-0.2594,-0.1184,196.2812
15:31:28:889,1.3828,2.6749,9.0622,58.7635,-0.3363,0.044,-0.0201,196.4688
15:31:28:911,1.8233,3.0185,8.0135,57.913,-0.18,0.1286,0.0428,196.7188
15:31:28:935,2.1932,3.5129,7.4581,58.9947,-0.0996,-0.1201,0.0015,196.8438
15:31:28:954,2.2339,3.6697,7.1995,59.3841,-0.1249,-0.3116,-0.1687,196.8125
15:31:28:969,1.4642,3.3728,7.0307,60.1514,-0.2021,-0.2639,-0.4403,196.7812
15:31:28:990,0.4203,2.961,6.7147,59.8964,-0.2778,0.1191,-0.6086,196.8906
15:31:29:011,-0.3183,2.882,6.4238,58.6865,-0.3262,0.6107,-0.5828,197.3281
15:31:29:037,-0.7804,3.1334,6.2466,59.1041,-0.2967,0.9319,-0.4614,197.9531
15:31:29:054,-0.9288,3.4411,6.0383,59.5694,-0.1699,0.9886,-0.3413,198.5938
15:31:29:070,-1.2054,3.7092,5.8144,59.1455,0.0144,0.7438,-0.2795,199.0625
15:31:29:090,-1.4041,3.9415,6.2155,59.3472,0.1241,0.4333,-0.2558,199.3281
15:31:29:112,-0.9743,4.5101,7.4353,57.8937,0.1244,0.1683,-0.1485,199.5156
15:31:29:137,-0.28,4.6418,8.1572,59.0984,0.1689,0.1217,-0.0853,199.8281
15:31:29:152,-0.4045,5.1577,8.6599,58.1314,0.2205,0.187,-0.1599,199.9531
15:31:29:169,-0.7086,5.463,8.9389,58.7576,0.2618,0.2693,-0.2417,200.0312
15:31:29:193,-1.3371,5.5564,8.7078,58.5179,0.2919,0.3798,-0.3351,200.1875
15:31:29:210,-2.1511,5.6689,8.8263,59.7659,0.2669,0.4093,-0.3636,200.4062
15:31:29:230,-2.9208,5.5731,10.5717,56.975,0.1878,0.2615,-0.3002,200.7031
15:31:29:252,-2.7341,5.5516,11.691,59.6886,0.191,0.2866,-0.1232,201.0312
15:31:29:270,-2.2792,5.6114,11.5964,58.5398,0.2967,0.4181,0.0438,201.3281
15:31:29:295,-1.8781,5.7227,11.12,59.3223,0.3225,0.5292,0.1142,201.4219
15:31:29:309,-1.8662,5.8221,10.7082,57.4528,0.212,0.5619,0.096,201.2812
15:31:29:333,-2.0936,5.3552,10.3622,58.653,0.0224,0.535,-0.0158,201.0625
15:31:29:354,-2.3606,4.631,10.9476,58.3437,-0.1704,0.322,-0.1207,200.8438
15:31:29:370,-2.4575,3.7787,11.2864,57.9575,-0.2096,0.1188,-0.1602,200.75
15:31:29:390,-2.855,3.0568,10.4783,56.2308,-0.0652,0.0741,-0.178,200.8125
15:31:29:411,-3.0908,2.6929,9.1532,57.7562,0.0663,0.065,-0.1178,200.9688
15:31:29:438,-2.8466,2.6725,8.4301,56.1736,0.057,-0.0772,0.0161,200.9688
15:31:29:453,-2.0649,2.7467,8.162,56.8566,-0.2359,-0.4051,0.197,201.2656
15:31:29:470,-1.1539,2.742,8.2529,57.4935,-0.3521,-0.4181,0.1594,201.2656
15:31:29:490,-0.5685,2.6187,8.3343,55.0714,-0.364,-0.2429,0.0753,201.1562
15:31:29:511,-0.6451,2.3505,7.9333,57.1561,-0.298,0.089,0.0398,200.8906
15:31:29:537,-1.209,2.0548,6.8212,57.7393,-0.265,0.4083,0.1293,200.8438
15:31:29:555,-1.8626,1.8777,5.8563,57.7892,-0.2967,0.5659,0.3291,200.8125
15:31:29:571,-2.0577,1.8705,5.5199,57.7074,-0.2964,0.5388,0.5395,200.5312
15:31:29:589,-1.9284,1.9878,5.7594,57.2453,-0.1936,0.4735,0.7166,200.5312
15:31:29:609,-1.3957,2.171,6.0802,55.454,-0.0114,0.4418,0.8468,200.0312
15:31:29:629,-0.8379,2.5696,5.976,57.8709,0.1348,0.4466,0.8958,199.3281
15:31:29:652,-0.6942,3.1023,5.7677,56.648,0.1787,0.3758,0.8734,198.4219
15:31:29:670,-0.693,3.4782,6.0419,56.3474,0.134,0.2892,0.813,197.3594
15:31:29:690,-0.6272,3.8289,6.6009,57.2513,0.0586,0.2551,0.7118,196.3125
15:31:29:711,-0.5769,4.3964,7.0834,55.9843,-0.0719,0.2733,0.5445,195.25
15:31:29:736,-0.274,5.0332,7.5562,57.2261,-0.2935,0.2362,0.2585,194.2812
15:31:29:753,-0.1735,5.135,8.3822,55.8697,-0.5577,0.1579,-0.0992,193.4531
15:31:29:834,-0.8654,4.619,9.8582,57.5678,-0.7513,0.1742,-0.3487,192.7812
15:31:29:834,-1.6232,3.8493,11.2433,55.3976,-0.7872,0.2091,-0.4124,192.4219
15:31:29:835,-1.8937,2.9622,12.4739,57.7417,-0.6735,0.3366,-0.2962,192.4688
15:31:29:835,-1.5777,3.0652,13.0234,57.1552,-0.4772,0.4871,-0.1487,192.7656
15:31:29:860,-0.4572,3.7224,12.7157,56.0567,-0.3103,0.448,-0.248,193.1562
15:31:29:869,0.5077,4.297,11.5797,56.5649,-0.3092,-0.004,-0.6358,193.3906
15:31:29:889,1.0548,3.8313,11.0362,56.5881,-0.5273,-0.6351,-1.2097,193.4531
15:31:29:910,0.607,2.0165,11.9592,54.8994,-0.8541,-0.9385,-1.6009,194.3438
15:31:29:929,-0.3351,0.0018,13.9559,54.5757,-0.9297,-0.5816,-1.533,194.9688
15:31:29:954,-0.6882,-0.7931,14.8274,53.1153,-0.5585,0.1319,-1.1282,196.6094
15:31:29:969,0.0264,-0.2831,12.8354,54.4109,-0.0232,0.4663,-0.7322,198.5
15:31:29:990,2.0029,0.9942,10.1156,53.726,0.298,0.1406,-0.7029,200.0156
15:31:30:015,3.504,2.1111,8.569,54.3076,0.3667,-0.4759,-1.1115,200.9531
15:31:30:042,3.3915,2.5049,8.5295,53.7884,0.3265,-0.9385,-1.6574,201.6875
15:31:30:059,2.3129,1.7556,9.0227,52.7449,0.3199,-0.9079,-2.0113,202.7188
15:31:30:069,1.1374,1.0265,8.8682,52.4499,0.3728,-0.5784,-2.091,204.4219
15:31:30:089,0.3353,0.8841,7.8866,51.4545,0.4016,-0.3252,-2.0222,206.5938
15:31:30:112,0.0827,1.2264,7.0618,52.2009,0.3992,-0.3124,-1.9685,209.0781
15:31:30:136,-0.0442,1.4934,7.0415,50.5858,0.4621,-0.4884,-1.9693,211.5156
15:31:30:153,-0.5494,1.6706,7.051,52.4025,0.5587,-0.6298,-2.0105,213.7344
15:31:30:170,-1.1946,1.5736,7.2019,49.6075,0.584,-0.6951,-2.0529,216.0625
15:31:30:196,-1.8853,1.6442,7.6999,50.3537,0.5353,-0.6485,-2.0428,218.4375
15:31:30:208,-2.3749,1.8645,8.4588,49.4131,0.4698,-0.5236,-1.966,220.7656
15:31:30:229,-2.8454,2.0393,9.0203,48.3501,0.4408,-0.3768,-1.8803,223.2344
15:31:30:254,-3.5481,2.1494,9.395,48.8912,0.4237,-0.2106,-1.7972,225.6406
15:31:30:271,-4.009,2.1494,9.632,48.4553,0.4019,-0.033,-1.6704,227.9375
15:31:30:289,-4.2448,2.3828,9.9636,48.2437,0.3675,0.1233,-1.4917,230
15:31:30:309,-4.2053,2.6055,10.4185,46.3188,0.3345,0.2165,-1.3061,232.0312
15:31:30:328,-4.003,2.6845,10.8267,47.6842,0.3231,0.2088,-1.1602,234.7031
15:31:30:355,-3.7899,2.6893,11.0194,46.2419,0.3177,0.1513,-1.0526,236.125
15:31:30:370,-3.4583,2.7623,11.4683,45.6492,0.2551,0.0416,-0.9591,237.4375
15:31:30:389,-3.1758,2.6642,11.8921,45.3066,0.1473,-0.0224,-0.9122,238.6562
15:31:30:409,-3.1112,2.0967,12.8881,44.174,0.0256,-0.0964,-0.9072,239.7188
15:31:30:430,-2.8909,0.9571,14.1906,44.982,-0.008,-0.1638,-0.8638,240.7812
15:31:30:454,-2.5784,-0.0006,14.1307,44.982,0.1934,-0.0631,-0.7274,241.8281
15:31:30:470,-1.932,0.1622,11.7329,44.54,0.5936,0.1907,-0.48,242.7969
15:31:30:489,-0.3506,1.2193,9.2956,44.9808,0.8408,0.2123,-0.2627,243.6562
15:31:30:509,1.0332,2.0668,8.49,44.0034,0.7332,-0.163,-0.3501,244.2344
15:31:30:530,1.1589,1.6837,9.1532,42.7488,0.3742,-0.6501,-0.782,244.4219
15:31:30:553,0.133,0.5812,9.8151,44.0283,0.0051,-0.7923,-1.2555,244.7812
15:31:30:570,-1.0916,0.0664,9.2836,43.1208,-0.1832,-0.5166,-1.4486,245.5156
15:31:30:589,-1.8434,-0.0162,7.7825,42.7593,-0.1212,-0.1947,-1.3245,246.8594
15:31:30:609,-1.9739,0.4447,6.0838,41.8841,0.0498,-0.0644,-0.9983,248.5625
15:31:30:629,-1.4975,1.2229,4.9896,41.6977,0.1854,-0.1169,-0.6342,250.1406
15:31:30:654,-0.7134,2.1111,4.7718,41.9117,0.282,-0.4352,-0.3668,251.5
15:31:30:670,-0.4033,2.5684,5.0639,41.2935,0.3337,-0.845,-0.3026,252.4531
15:31:30:689,-0.6559,2.7551,5.5894,41.9797,0.3563,-1.1334,-0.3522,253.0312
15:31:30:709,-1.0605,2.9539,6.1843,41.6589,0.3707,-1.274,-0.3865,253.5156
15:31:30:730,-1.2197,3.2412,7.2414,41.2638,0.3907,-1.3465,-0.3903,254.0781
15:31:30:752,-1.27,3.4674,8.1811,42.1024,0.4043,-1.3196,-0.3903,255.0469
15:31:30:771,-1.8327,3.6326,9.2334,40.5995,0.3571,-1.126,-0.4212,255.75
15:31:30:791,-2.4061,3.6793,10.4676,40.0908,0.2605,-0.8575,-0.4427,256.4375
15:31:30:809,-2.6275,3.7032,11.0925,39.9208,0.228,-0.539,-0.415,257.0938
15:31:30:830,-2.2624,3.9702,11.2193,39.9447,0.2509,-0.2772,-0.3596,257.7656
15:31:30:854,-1.592,4.0899,11.3774,39.9639,0.2088,-0.3539,-0.4768,258.3438
15:31:30:871,-1.3023,3.5775,12.5505,39.1526,0.2386,-0.473,-0.5911,258.3438
15:31:30:889,-1.2856,2.7456,13.0904,39.1743,0.3276,-0.3846,-0.5631,258.8125
15:31:30:908,-1.015,2.1554,12.5326,39.0289,0.3492,-0.1893,-0.4688,259.8438
15:31:30:930,-0.541,2.1326,11.4456,37.9394,0.2261,-0.0498,-0.4315,260.6094
15:31:30:953,0.1785,2.2583,10.7285,37.3608,0.0155,-0.1262,-0.5109,261.2969
15:31:30:969,0.8082,2.2907,10.7585,37.6324,-0.1888,-0.5089,-0.7133,261.875
15:31:30:989,1.2152,1.7125,12.0406,37.7697,-0.2791,-0.7843,-0.9418,262.375
15:31:31:010,1.0967,0.422,13.4879,36.6954,-0.1222,-0.5302,-0.9876,262.9531
15:31:31:028,0.6047,-0.4004,12.9288,37.2877,0.2104,-0.0051,-0.7932,263.875
15:31:31:054,0.637,0.009,9.8726,36.1996,0.3662,0.2426,-0.5381,265.1094
15:31:31:072,1.6294,1.09,7.0355,37.6161,0.2325,-0.0828,-0.5072,266.3438
15:31:31:089,2.4027,2.2643,6.2657,36.0015,-0.0327,-0.5348,-0.7695,267.2031
15:31:31:113,2.3381,2.6019,6.8104,33.7363,-0.2509,-0.6533,-1.1351,267.7656
15:31:31:129,1.3265,2.0967,7.1636,33.8756,-0.3763,-0.4335,-1.3367,268.375
15:31:31:150,0.0588,1.6011,7.0151,34.6573,-0.4,-0.1257,-1.2875,270.75
15:31:31:178,-0.8941,1.4096,6.8858,33.3012,-0.3052,0.1017,-1.0632,271.5625
15:31:31:189,-1.1814,1.6789,6.6297,33.5736,-0.0913,0.032,-0.7935,273.7969
15:31:31:209,-0.875,2.3062,6.5423,34.7732,0.1508,-0.2338,-0.6318,274.4375
15:31:31:230,-0.4129,2.7934,6.5064,34.0204,0.3148,-0.494,-0.586,275.4688
15:31:31:257,-0.0825,3.0317,6.747,32.0053,0.3758,-0.5822,-0.5852,276.2812
15:31:31:273,0.0384,3.3561,6.996,32.5266,0.3446,-0.5153,-0.622,277.0156
15:31:31:289,-0.1124,3.6769,7.3527,32.0693,0.248,-0.4791,-0.663,277.7969
15:31:31:308,-0.1591,3.8613,8.4241,33.6462,0.187,-0.4152,-0.7027,278.5938
15:31:31:328,-0.3327,4.0097,9.5374,32.3294,0.2171,-0.3587,-0.7583,279.4375
15:31:31:352,-0.8774,4.03,10.628,31.3032,0.298,-0.2599,-0.7687,280.2656
15:31:31:368,-1.4424,3.9762,11.0984,30.9704,0.3678,-0.0394,-0.7037,281.1719
15:31:31:388,-2.017,3.9846,10.9093,31.7635,0.3428,0.1324,-0.5788,282.125
15:31:31:408,-2.3306,4.0516,10.8447,30.5744,0.2482,0.191,-0.4233,282.9688
15:31:31:429,-2.2876,4.0109,11.1535,30.797,0.1305,0.1936,-0.2771,283.7031
15:31:31:454,-2.0709,4.0791,11.4265,29.1276,-0.025,0.0839,-0.186,284.2344
15:31:31:470,-1.8362,4.2012,12.1279,29.285,-0.2064,-0.0993,-0.158,284.5781
15:31:31:488,-1.6758,3.8505,13.3825,29.4081,-0.2804,-0.2152,-0.1383,284.7969
15:31:31:508,-1.9392,3.0867,14.3857,30.6796,-0.1763,-0.3278,-0.047,284.9844
15:31:31:529,-2.0661,1.9267,15.1015,30.7616,0.146,-0.3957,0.1464,285.1875
15:31:31:554,-1.1982,0.4471,12.0884,29.6648,0.5755,-0.2775,0.3866,285.3594
15:31:31:576,-0.3087,0.9559,9.231,30.2416,0.7806,-0.1182,0.5789,285.4062
15:31:31:590,0.4718,1.5628,7.7561,30.4732,0.588,-0.1134,0.5903,285.1719
15:31:31:608,0.892,1.5868,7.6939,31.1525,0.1808,-0.2293,0.4188,284.6562
15:31:31:629,0.6286,1.3485,8.1105,33.6401,-0.1782,-0.3028,0.1924,283.9844
15:31:31:653,-0.1495,1.0301,7.9513,32.1251,-0.3201,-0.2338,0.0321,283.4219
15:31:31:673,-0.9396,0.6363,7.154,31.9373,-0.2727,-0.1017,0.0327,283.1562
15:31:31:689,-1.5861,0.5273,5.9485,30.3694,-0.1566,0.0613,0.1999,283.125
15:31:31:708,-1.5609,0.8446,5.0028,32.3647,-0.061,0.0693,0.5203,283.1562
15:31:31:729,-0.8259,1.4192,4.8927,32.9095,-0.0258,-0.0961,0.8558,283.0625
15:31:31:755,0.0576,1.9866,5.18,31.567,0.0083,-0.3172,1.0596,282.6562
15:31:31:770,0.461,2.4654,5.3835,34.2734,0.0605,-0.4786,1.0918,281.8594
15:31:31:788,0.6573,2.7539,5.6971,33.7748,0.0687,-0.5811,1.017,280.7812
15:31:31:809,0.8201,2.8353,6.2681,33.6026,-0.0112,-0.5885,0.9003,279.6875
15:31:31:830,0.6489,2.7623,7.6268,34.5667,-0.1949,-0.4783,0.7695,278.5938
15:31:31:852,0.4227,2.7527,9.3447,34.3667,-0.3907,-0.1995,0.6854,277.625
15:31:31:913,0.5185,2.8006,10.3323,34.7178,-0.4368,0.1268,0.638,276.8438
15:31:31:914,0.8345,2.9658,10.0067,34.3773,-0.3403,0.3361,0.5616,276.125
15:31:31:914,1.3911,3.1035,9.7876,36.3876,-0.2871,0.2538,0.4321,275.4062
15:31:31:930,1.6449,2.8904,10.5358,35.0654,-0.4234,-0.0538,0.2167,274.6875
15:31:31:955,1.6461,2.0261,12.4847,35.862,-0.6975,-0.3478,-0.0395,274.0938
15:31:31:970,1.7335,0.9822,14.2815,35.2925,-0.894,-0.3856,-0.2007,273.7188
15:31:31:996,1.9693,0.3047,14.2253,36.286,-0.8677,-0.1505,-0.2473,273.7188
15:31:32:019,2.4458,0.2005,12.8558,35.9356,-0.8376,-0.0772,-0.3751,274.5938
15:31:32:031,2.8708,-0.1012,12.8606,37.4945,-1.0533,-0.2623,-0.6198,274.9375
15:31:32:055,2.3081,-0.9846,14.4539,36.7201,-1.1084,0.033,-0.7378,275.4375
15:31:32:073,1.0847,-1.6071,15.347,35.4616,-0.7486,0.6192,-0.5538,276.2812
15:31:32:089,0.5508,-1.8106,13.5585,35.2918,-0.1422,0.9207,-0.1325,277.2188
15:31:32:110,1.2403,-1.145,10.3646,37.3405,0.3444,0.6333,0.2662,277.7969
15:31:32:133,2.8408,0.0401,7.7286,37.1795,0.5321,-0.0956,0.3328,277.8438
15:31:32:155,3.9398,1.4862,6.7458,37.9497,0.4645,-0.7212,0.0324,277.4375
15:31:32:172,4.0056,2.0907,6.8463,39.2531,0.2727,-0.902,-0.4092,277.0469
15:31:32:189,3.1952,1.7592,7.3228,37.2449,0.0871,-0.6218,-0.7341,277.0781
15:31:32:210,1.8975,1.3102,7.2294,37.0155,-0.0692,-0.188,-0.8337,277.6562
15:31:32:229,0.8441,1.1247,7.0187,39.1517,-0.1877,0.1758,-0.741,278.5781
15:31:32:253,0.4275,1.2659,7.1947,39.9333,-0.1987,0.404,-0.5716,278.5781
15:31:32:271,0.6645,1.5269,7.4748,40.144,-0.0607,0.4392,-0.4433,280.3594
15:31:32:288,0.9303,1.7711,7.5838,40.2187,0.1659,0.3484,-0.373,280.3594
15:31:32:308,1.0476,2.0644,7.324,40.5485,0.3625,0.2123,-0.3522,280.9688
15:31:32:327,1.1757,2.4128,6.8894,40.8653,0.4424,0.0275,-0.3825,281.3906
15:31:32:350,1.4725,2.8437,6.8092,41.3165,0.4027,-0.1486,-0.4957,281.7656
15:31:32:372,1.5049,3.2663,7.2318,41.2748,0.3073,-0.2442,-0.6811,282.1094
15:31:32:390,1.2008,3.3872,7.8627,41.655,0.1806,-0.237,-0.8614,282.5156
15:31:32:408,0.6705,3.3118,8.4469,42.3331,0.0232,-0.1467,-0.9599,283.8594
15:31:32:427,-0.1292,3.1849,9.207,42.5673,-0.0948,-0.1489,-0.9386,284.875
15:31:32:451,-0.6152,2.9598,10.4568,42.3364,-0.1177,-0.2234,-0.8007,285.4375
15:31:32:471,-0.5733,2.8377,11.8897,42.7859,-0.0676,-0.2479,-0.6478,286.5156
15:31:32:488,-0.3782,2.8437,12.9085,44.048,-0.0117,-0.1931,-0.5237,287.5469
15:31:32:514,-0.0095,2.8748,13.173,44.0742,-0.1015,-0.0293,-0.4398,288.4219
15:31:32:527,0.2455,3.0436,13.4855,44.2779,-0.3158,0.188,-0.4086,289.0938
15:31:32:548,-0.0418,3.1322,14.2169,46.5874,-0.4621,0.3963,-0.4094,289.6562
15:31:32:571,-0.6487,2.657,14.849,44.3247,-0.4469,0.4597,-0.3532,290.1406
15:31:32:589,-1.1252,1.6346,15.347,44.6484,-0.2559,0.3912,-0.2132,290.5625
15:31:32:608,-1.2676,0.4004,15.6462,46.194,0.1731,0.379,-0.0148,290.9531
15:31:32:629,-1.3371,-0.6315,14.4467,46.194,0.7034,0.4275,0.2239,291.2344
15:31:32:656,-1.4041,-0.8362,11.2996,45.1756,0.9609,0.2341,0.4827,291.3125
15:31:32:672,-0.6523,-0.3705,8.5367,45.3379,0.7739,-0.1132,0.5882,291.2656
15:31:32:692,0.2719,0.3466,7.5634,46.2544,0.3438,-0.3465,0.4681,290.9219
15:31:32:708,0.6047,0.6207,8.0877,46.4523,0.0077,-0.3417,0.2992,290.2969
15:31:32:729,0.4095,0.5704,8.8168,45.7225,-0.0242,-0.2035,0.1996,289.625
15:31:32:753,-0.1519,0.4196,8.6348,45.9005,0.1497,-0.0285,0.2396,289.1719
15:31:32:773,-0.6583,0.4136,7.6017,46.5858,0.3534,0.0922,0.4202,288.8906
15:31:32:788,-0.7469,0.6542,6.5243,46.0943,0.4898,0.0828,0.6188,288.7031
15:31:32:808,-0.4548,1.0433,5.6923,46.7932,0.5468,-0.0194,0.7349,288.4531
15:31:32:829,-0.1747,1.394,5.0567,47.2909,0.5068,-0.196,0.7845,287.5781
15:31:32:854,0.0971,1.6634,5.0184,47.4522,0.4368,-0.3766,0.801,286.7656
15:31:32:871,0.4323,1.8657,5.4362,47.4053,0.3763,-0.4783,0.7794,285.9219
15:31:32:888,0.7974,2.0165,5.9569,48.4484,0.3033,-0.5017,0.7243,285.0469
15:31:32:908,1.2439,2.1626,6.8404,50.4321,0.2059,-0.4298,0.6287,284.2031
15:31:32:928,1.2499,2.1674,7.9345,49.1419,0.1279,-0.3038,0.5269,283.4531
15:31:32:950,0.6501,2.1027,10.1456,47.6833,0.1151,-0.2557,0.4724,282.7656
15:31:32:971,0.807,2.0189,10.4783,49.269,0.1838,-0.2343,0.462,282.1875
15:31:32:987,1.4043,2.1674,10.4388,49.6879,0.2421,-0.2879,0.455,281.6875
15:31:33:007,2.1741,2.3314,11.0146,49.882,0.1412,-0.3867,0.3826,281.2031
15:31:33:028,2.5332,2.1123,11.8047,50.2209,-0.0791,-0.3505,0.2012,280.7031
15:31:33:047,2.1357,1.4718,11.9101,49.4306,-0.2754,-0.0951,-0.0305,280.2656
15:31:33:071,1.7371,1.3569,11.539,50.9083,-0.4109,0.2192,-0.1375,280.0156
15:31:33:088,1.9119,1.7065,11.2469,49.2403,-0.5132,0.3271,-0.1498,280
15:31:33:107,2.6816,1.7424,11.5318,50.5187,-0.6336,0.1321,-0.2353,280.1406
15:31:33:127,3.1521,1.309,12.9647,50.2676,-0.8338,-0.1579,-0.4387,280.2812
15:31:33:147,2.5559,0.5764,15.0034,49.3849,-1.0013,-0.1489,-0.6795,280.5
15:31:33:171,1.3971,-0.1766,14.2061,50.0385,-0.8107,0.3502,-0.7735,280.9531
15:31:33:190,0.7052,-0.1526,11.0877,49.7465,-0.3292,0.7992,-0.6001,281.6875
15:31:33:207,1.287,0.6267,8.2302,50.1162,0.0386,0.8093,-0.2257,282.6406
15:31:33:228,2.3045,1.7448,7.4916,49.3564,0.1542,0.1995,0.0042,283.4219
15:31:33:254,2.6529,2.2176,8.1631,48.1481,0.0959,-0.4501,-0.0875,283.7656
15:31:33:273,1.8736,1.8465,8.4457,49.387,0.0173,-0.5414,-0.3421,283.7188
15:31:33:288,0.5161,1.4742,7.6951,49.7744,0.0229,-0.1965,-0.4853,283.8906
15:31:33:308,-0.2082,1.5257,6.5578,48.523,0.0685,0.2192,-0.4004,284.375
15:31:33:328,-0.1268,1.8753,5.8336,48.4269,0.0972,0.44,-0.1905,284.9375
15:31:33:348,0.3245,2.3481,5.66,47.9381,0.1228,0.4195,-0.0121,285.3594
15:31:33:370,0.7926,2.7899,5.9306,47.862,0.1675,0.2221,0.0641,285.4844
15:31:33:389,1.1134,3.1047,6.4585,49.6035,0.2136,-0.0184,0.0313,285.4219
15:31:33:408,1.0224,3.1885,7.2462,47.1132,0.2163,-0.1608,-0.0861,285.2812
15:31:33:427,0.5388,3.1801,8.1392,48.4901,0.188,-0.172,-0.2036,285.2344
15:31:33:452,0.2,3.0508,9.067,48.9604,0.1976,-0.1281,-0.248,285.3438
15:31:33:473,0.1677,3.1741,9.3399,50.4437,0.2727,0.0144,-0.1996,285.5938
15:31:33:488,0.2156,3.4566,9.3471,49.0252,0.3521,0.1057,-0.1431,285.8906
15:31:33:509,0.2838,3.6985,9.5111,48.9058,0.3686,0.0802,-0.1327,286.0938
15:31:33:530,0.3748,3.811,9.978,50.2649,0.3084,0.0328,-0.1532,286.2031
15:31:33:555,0.2407,3.7104,10.7668,48.826,0.2,0.0029,-0.1833,286.3125
15:31:33:572,0.1115,3.404,11.8466,49.1965,0.0916,-0.0373,-0.1927,286.4688
15:31:33:587,0.2168,3.1693,12.4272,49.139,0.0301,0.0269,-0.1474,286.6562
15:31:33:607,0.5053,3.3525,12.4141,48.3123,-0.0317,0.192,-0.08,286.7656
15:31:33:628,0.692,3.4123,12.6367,48.9404,-0.1638,0.3262,-0.0779,286.875
15:31:33:654,0.2994,2.9311,12.8654,48.8598,-0.3337,0.3638,-0.1956,287.0625
15:31:33:672,-0.4919,2.299,13.0425,47.2679,-0.298,0.2208,-0.0992,287.2188
15:31:33:688,-0.8391,1.4539,13.5968,47.4731,-0.1201,0.1084,0.0665,287.2188
15:31:33:707,-0.7708,0.4399,13.5633,47.782,0.1787,0.2021,0.2739,287.3906
15:31:33:729,-0.5984,-0.1059,11.6192,47.7853,0.3345,0.2634,0.4782,287.4688
15:31:33:753,-0.1902,0.1897,9.4692,47.6937,0.1835,0.1313,0.5909,287.375
15:31:33:773,0.4861,0.4998,8.7306,46.6451,-0.11,0.0213,0.5472,287.0156
15:31:33:790,0.6513,0.6949,9.1567,46.8772,-0.2951,0.0567,0.4609,286.4219
15:31:33:807,0.4203,0.5776,9.6116,47.2263,-0.2338,0.1987,0.4233,285.7188
15:31:33:827,-0.0693,0.5692,8.9269,47.6064,-0.0392,0.2887,0.4846,285.0781
15:31:33:848,-0.4811,0.677,7.3467,47.7006,0.1167,0.249,0.6396,284.5625
15:31:33:872,-0.4763,0.9715,6.1448,47.3287,0.1766,0.0914,0.813,284.0781
15:31:33:889,0.0169,1.1594,5.6277,46.3711,0.208,-0.1382,0.9514,283.4688
15:31:33:908,0.6992,1.5927,5.8743,46.2127,0.2458,-0.3345,1.0013,282.6719
15:31:33:991,1.4426,2.1195,6.5423,46.9664,0.3036,-0.3771,0.9008,281.7656
15:31:33:992,1.718,2.4846,6.8152,46.062,0.3191,-0.2844,0.7219,280.6875
15:31:33:992,1.5827,2.572,6.7697,45.9913,0.2464,-0.1747,0.5741,279.5938
15:31:33:993,1.2954,2.6953,7.1253,47.1328,0.1393,-0.0903,0.4857,278.6719
15:31:34:013,1.0428,2.8377,7.9273,45.8623,0.1161,-0.0833,0.4287,277.875
15:31:34:026,0.8381,2.9167,8.7174,45.9191,0.1832,-0.1734,0.39,277.25
15:31:34:047,1.0248,3.0855,9.0789,46.1827,0.2251,-0.3073,0.3363,276.6875
15:31:34:071,1.5755,3.3178,9.4129,46.901,0.1705,-0.4711,0.2036,276.2344
15:31:34:088,2.3237,3.3034,10.2437,46.8352,0.0338,-0.5036,-0.007,275.8125
15:31:34:107,2.7798,3.1981,11.2924,46.4724,-0.1126,-0.3313,-0.2579,275.375
15:31:34:130,2.7235,2.7899,11.7568,45.3689,-0.2306,-0.0336,-0.484,275.3594
15:31:34:154,2.2339,2.25,11.3546,46.2276,-0.3819,0.1966,-0.6028,275.6094
15:31:34:172,2.0927,1.9854,10.853,44.3639,-0.5827,0.1907,-0.6891,276.1094
15:31:34:190,2.5978,1.8489,10.8315,44.2568,-0.8802,-0.0293,-0.8941,276.7188
15:31:34:208,3.346,1.2755,12.0106,45.2913,-1.1992,-0.1505,-1.2289,277.4531
15:31:34:227,2.9761,-0.0605,14.4336,43.3117,-1.2685,0.2317,-1.4728,278.3906
15:31:34:247,1.0308,-1.2647,15.742,43.5661,-0.93,0.9918,-1.3386,279.6406
15:31:34:267,-0.4536,-1.7891,14.175,43.2389,-0.3838,1.432,-0.8342,281.3438
15:31:34:288,-0.1088,-1.3916,10.7489,42.0178,-0.0016,1.085,-0.3149,283.0156
15:31:34:308,1.4965,-0.1431,8.7306,43.3278,0.159,0.224,-0.1775,284.1094
15:31:34:326,2.4266,1.078,8.8898,44.1245,0.2834,-0.3933,-0.4164,284.5
15:31:34:347,0.2671,0.647,7.8974,42.8386,0.3931,-0.433,-0.664,284.5938
15:31:34:370,-0.6332,0.732,6.5698,42.9938,0.3832,-0.1382,-0.6425,284.9219
15:31:34:387,-0.8869,1.0265,5.7666,43.1679,0.2613,0.1366,-0.4715,285.6094
15:31:34:411,-0.5063,1.4216,5.8611,42.8625,0.1148,0.2618,-0.2675,286.4375
15:31:34:429,0.0013,1.8884,6.243,43.0757,0.0562,0.2623,-0.1218,287.0625
15:31:34:452,0.2946,2.3266,6.5925,41.1702,0.1148,0.1279,-0.0835,287.4219
15:31:34:470,0.4478,2.5504,6.917,42.6609,0.1904,-0.0301,-0.1298,287.5781
15:31:34:486,0.3999,2.7073,7.239,42.2909,0.2336,-0.1278,-0.2156,287.6406
15:31:34:508,0.2359,2.9886,7.6292,42.9431,0.2053,-0.1377,-0.3101,287.8125
15:31:34:527,0.0959,3.1609,8.1979,39.6763,0.0962,-0.0349,-0.4086,288.0781
15:31:34:547,-0.2692,3.2543,8.8024,41.2317,-0.0349,0.1417,-0.5061,288.4688
15:31:34:572,-0.8618,3.125,9.6272,41.6263,-0.1302,0.3092,-0.5508,288.9062
15:31:34:588,-1.4472,2.9754,10.1791,40.7701,-0.1089,0.4338,-0.4917,289.4688
15:31:34:607,-1.5801,3.1849,9.9732,41.1113,0.0498,0.4512,-0.3186,290.0312
15:31:34:626,-1.3682,3.5548,10.0893,41.6608,0.159,0.2922,-0.1325,290.5156
15:31:34:649,-1.009,3.623,11.0829,41.7558,0.159,0.0464,-0.0126,290.7812
15:31:34:671,-0.4273,3.5632,12.0274,39.2585,0.1768,-0.1553,0.0457,290.875
15:31:34:687,0.2036,3.5943,12.256,39.9873,0.2301,-0.2439,0.0484,290.875
15:31:34:708,0.394,3.6961,12.2943,40.5817,0.1699,-0.2072,-0.0526,290.8594
15:31:34:726,0.218,3.2567,12.6427,40.583,-0.0645,-0.0668,-0.2457,290.8438
15:31:34:748,-0.6475,2.3565,13.5956,39.2074,-0.3675,0.1334,-0.4249,290.875
15:31:34:773,-1.4244,1.0744,14.6335,38.9548,-0.5047,0.2581,-0.4489,291.0781
15:31:34:789,-1.7656,-0.0186,14.6778,40.2777,-0.3294,0.2924,-0.2598,291.4375
15:31:34:806,-1.8171,-0.6171,12.8881,40.2777,0.0879,0.3316,0.0739,291.9375
15:31:34:827,-1.5741,-0.3226,10.203,37.2413,0.5074,0.2735,0.4489,292.3125
15:31:34:848,-0.79,0.264,8.4469,37.4569,0.6815,0.0069,0.7248,292.375
15:31:34:871,0.3473,0.6291,7.7286,38.1983,0.6179,-0.2879,0.8276,292.0156
15:31:34:889,0.8668,0.9272,7.5993,38.5196,0.4101,-0.4053,0.7312,291.2969
15:31:34:906,0.7016,1.0325,7.798,38.1749,0.1582,-0.3118,0.5211,290.4062
15:31:34:928,0.0624,0.6542,7.7322,38.667,-0.016,-0.1065,0.3184,289.6094
15:31:34:947,-0.7912,0.4316,7.1241,37.7866,-0.0618,0.139,0.2449,288.9688
15:31:34:973,-1.1958,0.6147,6.474,36.766,-0.0442,0.3161,0.3445,288.3906
15:31:34:990,-1.0677,1.0122,5.9784,37.9909,0.0104,0.3348,0.5264,288.0938
15:31:35:006,-0.6918,1.4826,5.6133,38.9485,0.0826,0.1774,0.6622,287.6406
15:31:35:027,-0.3483,1.9052,5.7462,37.5021,0.1049,-0.0522,0.708,286.9688
15:31:35:049,-0.1519,2.4247,6.3579,37.45,0.0064,-0.3172,0.6185,286.2031
15:31:35:071,0.1593,2.7719,6.9601,37.5125,-0.0607,-0.3206,0.4995,284.6719
15:31:35:089,0.3018,3.0796,7.8148,37.0461,-0.1377,-0.2336,0.344,284.6719
15:31:35:106,0.0695,3.2088,8.7988,36.0467,-0.1648,-0.1299,0.2031,284.0625
15:31:35:129,-0.4464,3.0951,9.7649,37.1963,-0.11,-0.012,0.1528,283.5625
15:31:35:146,-0.857,3.076,10.2114,36.2552,-0.0107,0.0019,0.1815,283.2188
15:31:35:167,-0.6499,3.0556,10.5346,35.8683,0.0807,-0.1055,0.2137,283.0156
15:31:35:193,-0.1567,3.1023,10.9991,36.0027,0.1151,-0.1561,0.197,282.8594
15:31:35:211,0.4035,3.1681,11.381,36.513,0.0916,-0.0751,0.1213,282.6562
15:31:35:226,0.7244,3.064,11.5078,35.3503,0.0128,0.0666,0.0228,282.4219
15:31:35:246,0.7842,2.8377,11.4396,34.5325,-0.0937,0.1753,-0.0542,282.25
15:31:35:273,0.8752,2.6725,11.1583,36.1415,-0.2487,0.0884,-0.1389,282.1094
15:31:35:290,1.129,2.323,11.509,36.4934,-0.425,-0.228,-0.2582,282.0781
15:31:35:308,1.5564,1.4204,13.1467,36.318,-0.5015,-0.4272,-0.3754,282.1094
15:31:35:330,1.4558,0.4316,14.9818,33.9428,-0.3728,-0.1675,-0.4025,282.25
15:31:35:345,1.1505,-0.4531,15.4583,34.2882,-0.0197,0.5273,-0.2374,282.6094
15:31:35:367,1.0883,-0.4603,12.7887,34.8897,0.3422,0.9835,0.0244,283.3906
15:31:35:388,2.0052,0.2364,9.2178,34.6225,0.5012,0.6983,0.1131,283.7656
15:31:35:406,3.1066,1.0792,6.8894,35.0369,0.4061,0.0653,-0.0704,283.7188
15:31:35:428,3.516,1.6227,6.3663,35.3834,0.1492,-0.3087,-0.4169,283.4062
15:31:35:446,2.9258,1.5473,6.7314,35.4563,-0.1129,-0.2216,-0.733,283.2656
15:31:35:472,1.5611,1.1905,6.9972,35.413,-0.2858,0.0714,-0.8587,283.5625
15:31:35:489,0.4646,0.9906,6.7949,34.8524,-0.3832,0.3241,-0.794,284.3125
15:31:35:507,-0.0968,1.2205,6.8092,35,-0.3606,0.4072,-0.6406,285.2188
15:31:35:528,-0.0154,1.6969,6.9804,35.6361,-0.1939,0.2378,-0.5383,286.1562
15:31:35:547,0.0576,2.2392,6.9194,34.8572,-0.0125,0.0277,-0.5098,286.9062
15:31:35:571,0.0145,2.6115,6.7111,35.478,0.0663,-0.1073,-0.5122,287.4688
15:31:35:588,0.0995,2.8413,6.7518,33.6834,0.0328,-0.1142,-0.5415,288.0312
15:31:35:606,0.0636,3.0855,7.0558,35.574,-0.0671,-0.054,-0.6036,288.625
15:31:35:627,-0.2261,3.2759,7.7609,34.2618,-0.1486,0.0027,-0.6513,289.25
15:31:35:646,-0.5865,3.1765,8.6611,34.3987,-0.1643,0.0522,-0.6462,289.8906
15:31:35:673,-0.9456,3.0939,9.4333,35.2805,-0.1228,0.0946,-0.5804,290.6094
15:31:35:689,-1.2808,3.1502,10.142,34.633,-0.0418,0.142,-0.447,291.3594
15:31:35:710,-1.4556,3.2424,10.7513,33.9128,0.0874,0.224,-0.2779,292.0156
15:31:35:726,-1.5777,3.5584,10.7812,34.1488,0.2179,0.2312,-0.1239,292.5938
15:31:35:746,-1.5106,3.5524,11.3379,35.5397,0.2823,0.1428,-0.0001,292.9688
15:31:35:768,-1.2461,3.5488,11.7533,36.6669,0.3204,0.0871,0.0995,293.1406
15:31:35:786,-1.0833,3.5871,11.9388,36.0869,0.327,0.0631,0.1251,293.1875
15:31:35:805,-1.282,3.6051,12.5242,35.1629,0.2192,0.0258,0.071,293.1094
15:31:35:825,-1.4496,3.1837,13.325,35.7169,0.0405,0.0155,0.0047,292.9531
15:31:35:845,-1.78,2.4654,14.2827,36.1131,-0.0748,-0.0493,-0.0289,292.8438
15:31:35:865,-1.7656,1.3461,15.0728,36.9506,-0.0431,-0.1355,0.0228,292.8125
15:31:35:896,-1.6399,0.3418,14.6826,34.9549,0.1657,-0.0945,0.1389,292.8281
15:31:35:905,-1.6447,0.0545,12.4835,36.6879,0.4754,0.1076,0.3096,292.8594
15:31:35:926,-1.0402,0.4364,9.978,36.7573,0.6703,0.2232,0.5048,292.8125
15:31:35:947,0.0995,0.6554,8.7102,35.9678,0.6437,0.1103,0.5829,292.5625
15:31:35:968,0.4502,0.744,7.9572,36.4542,0.5058,-0.0298,0.4622,292.0938
15:31:35:986,0.1294,0.8386,7.0427,38.0358,0.3329,0.0264,0.2697,291.4219
15:31:36:062,-0.0837,0.8661,6.3005,37.2107,0.1574,0.0983,0.1386,290.8125
15:31:36:062,-0.3279,0.8146,5.9461,38.74,0.0045,0.0637,0.054,290.4062
15:31:36:063,-0.6487,0.8039,6.2502,37.676,-0.1252,-0.0192,0.0425,290.1875
15:31:36:077,-0.7972,0.841,6.9146,38.3532,-0.2043,-0.0809,0.1067,290.0625
15:31:36:089,-0.9312,0.8601,7.4257,38.6619,-0.1659,-0.1276,0.1972,290.0156
15:31:36:108,-0.9791,0.8589,7.3874,39.8271,-0.0442,-0.0831,0.299,289.9531
15:31:36:125,-0.8139,1.388,6.7793,38.9981,0.0908,0.0309,0.4494,289.7969
15:31:36:146,-0.5494,2.1291,6.2095,37.9212,0.1766,0.0442,0.5557,289.5469
15:31:36:172,-0.4261,2.736,6.2849,39.715,0.155,-0.0479,0.5501,289.1562
15:31:36:187,-0.2178,3.0448,7.0475,38.7131,0.061,-0.1797,0.4787,288.5469
15:31:36:205,-0.3195,3.1801,8.0829,40.3439,-0.0221,-0.2519,0.357,287.9062
15:31:36:225,-0.5769,3.1705,8.9377,38.4699,-0.0591,-0.2352,0.2369,287.125
15:31:36:246,-0.9157,3.1873,9.2393,39.3384,-0.0591,-0.1009,0.164,286.7812
15:31:36:275,-0.9252,3.2376,9.2513,39.8833,-0.0565,0.0346,0.156,286.5625
15:31:36:288,-0.6236,3.2974,9.6727,39.1554,-0.0809,0.0237,0.1722,286.4062
15:31:36:307,-0.4129,3.2783,10.2748,40.7208,-0.1206,-0.0703,0.1544,286.2188
15:31:36:334,-0.2848,2.991,10.6914,40.2429,-0.1462,-0.1571,0.108,286.0312
15:31:36:345,-0.1004,2.7958,11.0937,39.3334,-0.1912,-0.1856,0.0963,285.8594
15:31:36:365,0.0612,2.7779,11.442,40.1127,-0.2596,-0.1348,0.1136,285.7812
15:31:36:387,0.2874,2.6941,11.3594,39.404,-0.2871,-0.09,0.1133,285.7188
15:31:36:405,0.5627,2.5337,11.4145,40.8953,-0.298,-0.2184,0.0633,285.625
15:31:36:425,1.0368,2.0692,12.687,41.4788,-0.3547,-0.5372,-0.0217,285.5156
15:31:36:445,0.9566,1.4647,14.2923,41.8778,-0.315,-0.1837,-0.2062,285.5156
15:31:36:470,0.7447,0.9343,14.3282,40.0639,-0.0053,0.5151,-0.1458,285.9688
15:31:36:487,0.5939,1.0134,11.4396,40.5393,0.2815,0.7596,-0.0414,285.9688
15:31:36:506,1.2571,1.4036,8.4385,40.6125,0.3468,0.3236,-0.0494,286.25
15:31:36:524,2.3452,1.8753,7.2378,41.7543,0.1939,-0.241,-0.2752,286.2969
15:31:36:545,2.7223,2.0548,7.7382,41.9706,-0.0434,-0.4101,-0.6273,286.1719
15:31:36:566,2.0747,1.57,8.4313,42.1868,-0.2591,-0.0543,-0.8883,286.1562
15:31:36:587,0.6717,1.169,8.2984,42.6645,-0.3941,0.4469,-0.9285,286.5312
15:31:36:605,-0.4596,1.0373,7.5682,42.5237,-0.4229,0.701,-0.8031,287.3281
15:31:36:624,-1.0749,1.151,6.9876,42.323,-0.3358,0.6309,-0.5916,288.3125
15:31:36:644,-1.1802,1.5018,6.5758,43.1286,-0.1925,0.3598,-0.3956,289.7031
15:31:36:664,-1.1084,1.8872,6.4046,40.4304,-0.0647,0.0099,-0.251,290.3438
15:31:36:686,-0.9504,2.2571,6.753,41.0494,0.0213,-0.2623,-0.1583,290.7812
15:31:36:708,-0.796,2.5265,7.4604,43.3719,0.0703,-0.3254,-0.1101,291.1094
15:31:36:728,-0.5194,2.6857,7.9572,42.6954,0.0756,-0.2104,-0.1074,291.3594
15:31:36:745,-0.3997,2.9993,8.0566,42.9946,0.0064,-0.0519,-0.1495,291.5781
15:31:36:765,-0.468,3.2304,8.2924,43.9561,-0.123,0.0743,-0.2145,291.7344
15:31:36:786,-0.9252,3.2388,9.207,44.3954,-0.1739,0.1579,-0.2238,291.9062
15:31:36:808,-1.4783,3.1442,10.1946,43.6044,-0.0698,0.2213,-0.133,292.1094
15:31:36:826,-1.8638,3.1023,10.6579,45.1663,0.1087,0.2549,0.0236,292.3438
15:31:36:845,-2.0266,3.2076,10.4364,43.4701,0.2141,0.2141,0.1828,292.5156
15:31:36:865,-1.9212,3.4123,10.4305,44.7151,0.2179,0.1087,0.3075,292.5312
15:31:36:889,-1.5609,3.392,11.0901,43.7293,0.2157,0.0562,0.3735,292.375
15:31:36:908,-1.1802,3.2424,11.5557,45.1983,0.2179,0.0807,0.3733,292.0625
15:31:36:926,-1.033,3.1741,11.5354,43.5247,0.1532,0.1742,0.3296,291.6562
15:31:36:945,-1.2556,3.2926,11.302,44.7319,-0.0178,0.2506,0.2668,291.2188
15:31:36:966,-1.6184,3.2292,11.4707,44.5631,-0.2328,0.1369,0.2337,291.0156
15:31:36:990,-1.9033,2.7144,12.6343,44.5631,-0.3305,-0.0325,0.275,290.6094
15:31:37:006,-2.0577,1.6765,14.1594,45.2758,-0.1614,-0.0972,0.3845,290.25
15:31:37:025,-1.8171,0.4902,14.8454,44.4253,0.2892,0.0658,0.5573,289.9375
15:31:37:045,-1.7943,-0.0557,12.4847,46.2709,0.6243,0.2165,0.7384,289.6406
15:31:37:065,-1.7393,0.2065,9.389,44.7639,0.6365,0.0685,0.8849,289.2188
15:31:37:086,-0.8438,0.6219,7.8507,44.5693,0.441,-0.16,0.8657,288.2031
15:31:37:105,0.1809,0.9571,7.6029,45.9248,0.1657,-0.2197,0.6489,287.2344
15:31:37:125,-0.5757,0.6877,7.8746,46.1858,-0.0884,-0.0474,0.4034,286.2188
15:31:37:149,-0.9133,0.7165,7.6975,45.4423,-0.2485,0.1891,0.3285,285.3906
15:31:37:171,-1.0869,0.8877,7.4269,46.1317,-0.2839,0.2773,0.3472,284.875
15:31:37:190,-1.0067,1.0924,7.1648,44.7205,-0.22,0.1627,0.414,284.4531
15:31:37:206,-1.0138,1.2468,7.1061,46.5145,-0.1273,-0.0149,0.4841,284.0156
15:31:37:225,-0.8798,1.2815,7.2737,45.9244,-0.0639,-0.1539,0.5466,283.5469
15:31:37:245,-0.5218,1.6813,7.4413,45.8497,-0.0274,-0.1718,0.6215,283.0156
15:31:37:265,-0.0705,2.1302,7.7442,46.8563,-0.0165,-0.1433,0.6412,282.4531
15:31:37:288,0.2312,2.4379,7.8663,46.8669,0.0144,-0.1185,0.5757,281.8125
15:31:37:307,0.1294,2.6402,7.7633,46.1476,0.0485,-0.0892,0.4431,281.1562
15:31:37:325,-0.122,2.6953,8.0111,45.91,0.0163,-0.057,0.308,280.4844
15:31:37:345,-0.4392,2.6534,8.6252,46.9377,-0.0567,0,0.2071,279.9062
15:31:37:365,-0.7612,2.7599,8.9664,47.5169,-0.0831,0.1388,0.161,279.5312
15:31:37:387,-0.7888,2.8712,8.9149,45.9487,-0.0394,0.2349,0.1637,279.25
15:31:37:406,-0.5948,2.9874,9.1328,45.8137,-0.0048,0.1444,0.1735,279.0312
15:31:37:425,-0.1136,2.8581,10.2916,48.0375,-0.0413,-0.0812,0.1714,278.8125
15:31:37:446,0.194,2.8222,11.2589,46.4605,-0.0631,-0.1731,0.1424,278.5781
15:31:37:464,0.4395,2.8473,11.4923,46.6926,-0.0336,-0.1065,0.1024,278.3594
15:31:37:487,0.6226,2.9263,11.2936,46.0305,-0.0114,-0.0397,0.0374,278.1719
15:31:37:507,0.7064,3.0496,11.1355,46.5958,-0.0418,-0.0559,-0.0715,278.0781
15:31:37:525,0.9662,2.7755,11.6946,46.3907,-0.1348,-0.2226,-0.239,278.0469
15:31:37:546,1.2798,1.9674,12.9132,47.4217,-0.2338,-0.4746,-0.435,278.1406
15:31:37:566,1.1314,1.1666,14.1546,48.1252,-0.2735,-0.568,-0.6044,278.4531
15:31:37:589,0.8297,0.4567,14.4288,45.6214,-0.1907,-0.2756,-0.6787,279.0469
15:31:37:607,0.7244,0.3693,11.9053,48.6197,0.0914,0.2914,-0.6124,279.875
15:31:37:628,1.1601,0.7811,8.6408,47.8862,0.3555,0.5718,-0.488,280.6719
15:31:37:645,1.8341,1.2432,7.5718,45.2625,0.3574,0.1987,-0.4614,281.3125
15:31:37:667,1.8269,1.3007,8.4157,46.765,0.1657,-0.3193,-0.6062,281.7344
15:31:37:688,1.0236,0.9774,9.0334,47.0969,-0.0352,-0.3992,-0.8129,282.1875
15:31:37:707,-0.1783,0.732,8.5067,47.1927,-0.1281,-0.0655,-0.9029,282.9531
15:31:37:726,-1.0342,0.9667,7.3012,46.007,-0.123,0.2778,-0.8063,283.9688
15:31:37:746,-1.3035,1.3916,6.3783,47.3855,-0.0916,0.3971,-0.6108,285.0156
15:31:37:772,-1.4424,1.746,6.0335,46.8147,-0.0602,0.2695,-0.439,285.8438
15:31:37:790,-1.4687,2.0381,6.4752,45.5023,-0.0453,0.0245,-0.308,286.4531
15:31:37:807,-1.5442,2.2344,7.0247,47.4381,-0.0341,-0.1262,-0.2161,286.9062
15:31:37:826,-1.5047,2.5193,7.0486,46.8385,-0.0655,0.0394,-0.0957,287.2188
15:31:37:845,-1.4448,2.8808,6.9936,46.8837,-0.1896,0.0978,-0.1026,287.5
15:31:37:866,-1.4053,3.1023,7.6268,47.2701,-0.3121,0.1513,-0.1386,287.6719
15:31:37:891,-1.5645,3.1502,8.6372,46.0495,-0.3467,0.2341,-0.1511,287.7656
15:31:37:908,-1.8398,3.0736,9.3914,47.8413,-0.3057,0.298,-0.0925,287.9844
15:31:37:925,-2.0709,3.0125,10.0342,47.9726,-0.2178,0.3537,0.0558,288.1094
15:31:37:944,-1.8889,3.058,10.6112,48.7401,-0.066,0.4077,0.2289,288.1406
15:31:37:964,-1.3239,3.2902,10.5981,48.056,0.081,0.3659,0.3221,288.0938
15:31:37:994,-0.9133,3.4854,10.5226,47.6158,0.1507,0.2504,0.3365,287.8594
15:31:38:010,-0.6212,3.3764,10.7214,47.2113,0.1712,0.204,0.3197,287.6562
15:31:38:025,-0.4129,3.2651,10.938,46.7462,0.1516,0.24,0.2859,287.25
15:31:38:045,-0.3578,3.1526,11.1224,46.1009,0.1063,0.2892,0.2303,286.8125
15:31:38:124,-0.7265,3.1035,11.3211,46.1977,0.0727,0.3436,0.1914,286.4062
15:31:38:125,-1.3083,3.0987,11.1894,47.2076,0.0192,0.298,0.222,286.0625
15:31:38:125,-1.5573,3.0915,11.2361,44.9185,-0.0807,0.0799,0.2673,285.7344
15:31:38:125,-1.2712,2.7587,11.9771,45.8194,-0.2096,-0.1643,0.2513,285.4531
15:31:38:146,-1.2844,1.7735,13.7967,47.114,-0.1478,-0.1899,0.2438,285.1406
15:31:38:171,-1.2054,0.2939,15.1746,45.2429,0.2975,0.1255,0.2976,284.8281
15:31:38:188,-1.7932,-0.6123,12.754,46.438,0.7063,0.4043,0.4516,284.5625
15:31:38:205,-2.1463,-0.3226,9.2202,45.7086,0.7207,0.2333,0.6463,284.3281
15:31:38:225,-1.2533,0.2017,7.9034,45.1436,0.5278,-0.1017,0.6582,283.9844
15:31:38:246,-0.3207,0.4938,8.1847,45.1271,0.318,-0.2506,0.4897,283.4062
15:31:38:266,0.0109,0.4136,8.8228,46.2722,0.1862,-0.1353,0.2859,282.6562
15:31:38:288,-0.3842,0.4268,8.8263,45.7516,0.1137,0.0469,0.169,281.9688
15:31:38:308,-0.8953,0.5824,8.2553,46.2508,0.0392,0.118,0.1661,281.4844
15:31:38:324,-1.0174,0.847,7.9142,46.2959,0.0072,0.1161,0.2162,281.1875
15:31:38:346,-0.9971,1.2372,7.5239,47.4081,0.033,0.0221,0.2715,280.9062
15:31:38:367,-0.766,1.5449,7.0199,42.7995,0.0583,-0.0983,0.3115,280.6562
15:31:38:388,-0.371,1.904,6.553,44.9444,0.049,-0.2144,0.3083,280.3594
15:31:38:404,0.0504,2.3553,6.2406,44.5387,-0.013,-0.3278,0.2311,280.0312
15:31:38:425,0.1521,2.6618,6.4274,45.8926,-0.1185,-0.3569,0.1168,279.7188
15:31:38:445,-0.0274,2.6582,7.1133,44.5665,-0.2011,-0.2631,0.0356,279.4688
15:31:38:464,-0.2357,2.6127,7.7334,45.4446,-0.2146,-0.1877,-0.0073,279.3594
15:31:38:486,-0.3435,2.7899,8.4397,44.655,-0.1446,-0.1595,-0.0555,279.3438
15:31:38:506,-0.438,2.961,8.7521,44.1807,-0.0506,-0.1185,-0.1349,279.3906
15:31:38:525,-1.276,3.1514,8.3535,43.3061,-0.016,-0.0479,-0.1889,279.4531
15:31:38:545,-1.5872,3.1143,8.4433,44.4823,-0.0322,-0.0469,-0.2022,279.5938
15:31:38:566,-1.6782,2.9946,9.0215,43.7896,-0.1009,-0.1747,-0.1868,279.7969
15:31:38:590,-1.3694,3.0305,10.1168,43.7221,-0.1997,-0.3265,-0.1269,280.0312
15:31:38:605,-0.9971,3.1681,11.5186,44.0824,-0.27,-0.4386,-0.0864,280.2969
15:31:38:624,-0.9252,2.9814,12.3973,42.0582,-0.2775,-0.4168,-0.105,280.5156
15:31:38:644,-1.3454,2.7647,12.1698,43.9611,-0.2312,-0.2365,-0.1271,280.7188
15:31:38:664,-1.3335,2.7659,11.5318,42.3093,-0.2053,-0.0327,-0.0728,280.9219
15:31:38:691,-0.7601,2.7288,11.5222,43.3787,-0.2392,-0.082,-0.014,281.125
15:31:38:707,0.0528,2.3182,12.6642,44.1947,-0.2841,-0.3742,-0.031,281.2812
15:31:38:725,0.4646,1.6969,14.0553,44.1328,-0.2714,-0.5702,-0.1037,281.3281
15:31:38:744,0.0971,1.1941,13.7416,43.328,-0.1151,-0.2298,-0.1769,281.4531
15:31:38:766,0.0504,1.0995,11.1284,43.6755,0.1739,0.3968,-0.1511,281.7031
15:31:38:790,0.5628,1.5353,8.7737,44.1946,0.399,0.7425,-0.0667,281.9531
15:31:38:809,1.196,1.7651,7.4293,43.9791,0.5031,0.604,-0.092,282.0312
15:31:38:827,1.6102,1.5485,7.3443,42.9927,0.4775,0.1348,-0.2611,281.9531
15:31:38:845,1.6174,1.1881,8.3523,42.6477,0.3089,-0.2562,-0.4824,281.9219
15:31:38:864,0.965,0.7727,8.9496,42.0241,0.1308,-0.2714,-0.6947,282.2031
15:31:38:892,0.0827,0.416,8.9066,41.2069,0.0005,-0.032,-0.8174,282.7812
15:31:38:907,-0.7672,0.5333,8.0889,42.0348,-0.0948,0.3127,-0.7849,283.6406
15:31:38:925,-1.1395,0.8841,7.6077,41.0734,-0.1774,0.4501,-0.6297,284.5781
15:31:38:950,-1.0246,1.3342,7.7573,42.6032,-0.1917,0.297,-0.4366,285.3594
15:31:38:964,-0.699,1.7244,7.6664,41.2688,-0.1071,0.081,-0.2829,285.9844
15:31:38:986,-0.4237,2.1087,7.081,41.5868,-0.0088,-0.0394,-0.2041,286.4062
15:31:39:008,-0.3423,2.335,6.9876,43.2628,-0.033,-0.0905,-0.1972,286.7031
15:31:39:025,-0.4751,2.4583,7.2641,41.4586,-0.1414,-0.0692,-0.2358,286.9375
15:31:39:053,-0.79,2.4954,7.6687,41.1325,-0.2381,-0.0274,-0.2829,287.0625
15:31:39:075,-1.1659,2.5672,7.992,41.3877,-0.3582,0.0245,-0.2824,287.6094
15:31:39:094,-1.4448,2.6127,8.5055,41.3688,-0.3649,-0.017,-0.2334,287.9375
15:31:39:109,-1.537,2.663,9.0406,41.0685,-0.3646,-0.0205,-0.1913,288.2656
15:31:39:125,-1.6663,2.6462,9.6188,41.0766,-0.3614,0.0434,-0.1391,288.5469
15:31:39:146,-1.8458,2.633,10.3036,40.5955,-0.2919,0.1734,-0.0672,288.7656
15:31:39:166,-2.096,2.5672,10.4724,40.5955,-0.1566,0.2874,0.0345,289.0156
15:31:39:189,-2.3211,2.5744,9.8858,42.1523,-0.0509,0.2959,0.1674,289.0469
15:31:39:207,-2.1427,2.7539,9.401,40.5695,-0.0168,0.1944,0.2654,288.9375
15:31:39:229,-1.7249,2.9527,9.5255,41.1371,-0.0296,0.1063,0.2785,288.9375
15:31:39:245,-1.5262,2.9311,10.051,41.3812,-0.0538,0.1183,0.243,288.6875
15:31:39:265,-1.5046,2.7324,10.7249,40.4415,-0.0498,0.2251,0.2247,288.3594
15:31:39:291,-1.5406,2.6378,10.8578,38.9701,-0.0413,0.2978,0.2063,287.7344
15:31:39:310,-1.7788,2.5863,10.9524,40.3141,-0.0527,0.3297,0.2007,287.7344
15:31:39:326,-2.0936,2.4559,11.0769,40.878,-0.0336,0.4077,0.2372,287.4219
15:31:39:347,-2.2863,2.4056,10.6364,40.878,-0.0146,0.3555,0.2934,287.1406
15:31:39:363,-2.1008,2.4152,10.2258,40.0967,-0.086,0.1191,0.303,286.8594
15:31:39:388,-1.8781,2.1087,10.8949,41.0681,-0.2301,-0.0977,0.2569,286.5
15:31:39:403,-2.0457,1.2193,12.7121,41.3712,-0.225,0.0149,0.2577,286.125
15:31:39:424,-2.7424,0.1179,13.58,41.5997,0.0107,0.3886,0.4462,285.75
15:31:39:444,-2.9483,-0.501,12.3027,41.168,0.3233,0.6631,0.7781,285.4531
15:31:39:464,-2.5018,-0.0676,9.8654,42.2885,0.4994,0.5374,1.0196,285.1562
15:31:39:489,-1.7524,0.2855,8.1452,40.3718,0.5108,0.122,1.103,284.5938
15:31:39:507,-0.845,0.513,7.6819,39.9256,0.3569,-0.2362,1.0446,283.5938
15:31:39:524,-0.1543,0.6973,8.3571,41.9562,0.1388,-0.3217,0.8822,282.3594
15:31:39:543,-0.0143,0.7775,9.4644,41.2325,-0.0016,-0.2213,0.6854,281.1562
15:31:39:563,-0.3303,0.6267,10.1515,41.0612,-0.0525,-0.0162,0.5477,280.0312
15:31:39:591,-1.0426,0.4232,10.1707,41.6399,-0.0162,0.1516,0.5426,278.7031
15:31:39:609,-1.5657,0.2987,9.4883,42.8569,0.069,0.2357,0.6449,278.0781
15:31:39:628,-1.6148,0.3885,8.3631,42.4371,0.135,0.1984,0.7674,277.4531
15:31:39:643,-1.355,0.7512,7.4425,41.9808,0.1494,0.1177,0.8257,276.7344
15:31:39:667,-1.112,1.0792,6.5459,40.8309,0.0677,0.0344,0.8231,275.9219
15:31:39:690,-1.0893,1.4216,5.9856,41.9926,-0.1084,-0.0708,0.7903,274.9688
15:31:39:708,-1.1491,1.655,6.2598,42.7285,-0.2826,-0.1574,0.7453,274
15:31:39:726,-1.3358,1.7053,7.1648,42.8644,-0.3582,-0.1869,0.7288,273.0938
15:31:39:750,-1.5765,1.8418,7.8663,42.5962,-0.3561,-0.1728,0.7458,272.2656
15:31:39:763,-1.6004,2.0812,8.2314,42.9384,-0.3204,-0.1875,0.7632,271.4688
15:31:39:785,-1.4795,2.317,8.3858,40.9221,-0.2732,-0.2375,0.7472,270.6562
15:31:39:808,-1.4927,2.4032,8.6001,41.5735,-0.2767,-0.2658,0.7261,269.8594
15:31:39:825,-1.4628,2.4187,9.207,41.6893,-0.2868,-0.1766,0.7264,269.0312
15:31:39:844,-1.2389,2.3661,9.6954,41.6981,-0.2655,-0.0442,0.7187,268.25
15:31:39:865,-0.9312,2.4319,9.7314,42.6366,-0.2557,0.0205,0.6931,267.5
15:31:39:890,-0.5889,2.6127,9.5374,42.5572,-0.2996,-0.1092,0.6167,266.7031
15:31:39:906,-0.2716,2.6294,10.0929,43.628,-0.3829,-0.2937,0.503,265.8906
15:31:39:923,-0.7529,1.825,12.1698,42.4765,-0.3963,-0.2738,0.4324,265.1406
15:31:39:944,-0.8163,1.6059,11.77,44.073,-0.2804,-0.0554,0.4958,264.5781
15:31:39:965,0.0061,2.0393,10.4712,44.3736,-0.0937,0.1089,0.6633,264.125
15:31:39:990,1.0452,2.475,9.7098,43.9139,0.0096,0.0333,0.7339,263.6562
15:31:40:006,2.0531,2.7252,9.5207,43.952,-0.0168,-0.1686,0.6356,262.6094
15:31:40:024,2.5918,2.7587,10.0151,43.431,-0.1651,-0.3329,0.3842,261.7656
15:31:40:043,2.8145,2.25,11.0326,44.4601,-0.3792,-0.4506,0.0481,261.0781
15:31:40:063,2.4039,1.5125,12.4727,43.9196,-0.5771,-0.4216,-0.2664,260.8281
15:31:40:084,1.7096,0.7237,13.3454,45.4244,-0.6232,-0.1939,-0.4664,260.6719
15:31:40:106,0.9961,0.2711,13.246,45.3689,-0.4245,0.0258,-0.5,260.9062
15:31:40:124,0.7052,0.1598,12.942,43.7324,-0.0927,0.0996,-0.3761,261.4375
15:31:40:190,1.3277,0.1215,11.5593,44.7171,0.3622,0.1199,-0.1639,262
15:31:40:190,2.0352,0.4399,9.1747,46.2434,0.8458,0.0195,-0.0172,262.5312
15:31:40:190,2.6002,0.9906,7.4569,45.1205,1.0882,-0.2751,-0.0195,262.8281
15:31:40:207,2.8516,1.3318,6.8894,44.7362,1.0165,-0.6091,-0.1807,262.875
15:31:40:224,2.429,1.3821,7.2091,44.665,0.7337,-0.7497,-0.4654,262.8281
15:31:40:246,1.7227,1.2576,8.0638,46.2693,0.3811,-0.662,-0.7285,262.9531
15:31:40:264,1.026,1.1019,8.8096,46.5245,0.0823,-0.3531,-0.8931,263.3906
15:31:40:289,0.5639,1.2935,8.7521,45.2911,-0.0722,0.0855,-0.9162,264.1562
15:31:40:308,0.4047,1.74,8.29,44.5982,-0.0589,0.3079,-0.8566,265.1875
15:31:40:323,0.3832,2.0261,8.0063,44.2806,0.0495,0.1739,-0.8073,266.2656
15:31:40:344,0.3425,2.2296,7.6221,44.5982,0.1712,-0.0517,-0.7812,267.2031
15:31:40:365,0.2084,2.4511,7.4868,44.8105,0.2045,-0.167,-0.7863,268.0938
15:31:40:390,0.0672,2.6127,7.6496,45.9922,0.122,-0.1321,-0.802,268.9844
15:31:40:408,-0.1471,2.7587,7.962,44.9032,0.0176,-0.0386,-0.8204,269.8438
15:31:40:425,-0.3147,2.8545,8.3774,44.8044,-0.0679,0.0184,-0.8302,271.25
15:31:40:444,-0.4117,2.9658,8.7485,44.6176,-0.1289,0.0799,-0.8161,272.2031
15:31:40:465,-0.6882,3.0089,9.0837,46.1276,-0.1411,0.0943,-0.794,273.0938
15:31:40:491,-1.0641,3.0053,9.2561,44.0672,-0.1206,0.1129,-0.7367,274.0312
15:31:40:508,-1.2592,3.1238,9.5255,44.9114,-0.0828,0.146,-0.6214,274.9219
15:31:40:525,-1.2724,3.2986,9.8858,44.1894,-0.0298,0.1832,-0.4765,275.75
15:31:40:549,-1.3143,3.3285,10.1575,44.6387,0.0434,0.2456,-0.365,276.3906
15:31:40:563,-1.4424,3.3094,10.4424,45.2195,0.1132,0.3204,-0.2784,276.9062
15:31:40:584,-1.6687,3.2579,10.5538,44.4729,0.1995,0.3721,-0.1969,277.2656
15:31:40:606,-1.792,3.1909,10.6136,45.6889,0.2964,0.3521,-0.1133,277.5
15:31:40:623,-1.8829,3.1993,10.4484,46.9017,0.3542,0.3678,0.0481,277.6406
15:31:40:644,-2.2863,3.2052,10.8075,45.6162,0.3675,0.3729,0.1352,277.7031
15:31:40:666,-2.7652,2.8593,11.6347,45.9687,0.4812,0.4847,0.3003,277.5156
15:31:40:692,-2.8454,2.6869,11.7485,46.6383,0.6559,0.7263,0.507,277.2812
15:31:40:708,-2.5521,3.1633,10.3467,46.9742,0.6306,0.8264,0.5932,277.2812
15:31:40:724,-2.1894,3.641,9.5362,46.5909,0.3686,0.6903,0.549,276.8438
15:31:40:743,-1.9033,3.483,10.3622,47.1632,0.126,0.4061,0.4537,276.1406
15:31:40:762,-2.0074,2.8461,11.782,46.8456,0.0442,0.2679,0.4034,275.2656
15:31:40:783,-2.3582,1.9615,12.8402,47.4329,0.135,0.3707,0.4833,274.4688
15:31:40:807,-2.3929,1.1762,13.2209,47.2539,0.3832,0.7084,0.7086,273.8906
15:31:40:824,-1.8734,1.0672,11.8359,47.261,0.6812,1.0456,0.9371,273.3594
15:31:40:843,-1.3694,1.4647,9.4871,47.6458,0.8203,1.0781,1.0196,272.2812
15:31:40:863,-1.0881,2.25,7.1815,47.593,0.7657,0.6498,0.9949,271.1562
15:31:40:884,-0.5434,3.2244,6.0108,48.9966,0.497,0.0501,0.7522,269.75
15:31:40:908,-0.5003,3.6386,6.5973,50.8344,0.2061,-0.2016,0.4146,268.3594
15:31:40:923,-0.2345,3.0053,7.7418,49.8171,-0.0232,-0.2474,0.136,267.3125
15:31:40:943,-1.1455,2.7575,8.8635,50.6519,-0.1126,0.123,0.1229,266.7031
15:31:40:964,-1.2173,2.1255,8.6516,50.8325,-0.164,0.4203,0.2478,266.4844
15:31:40:985,-1.3299,2.1793,8.4253,51.4773,-0.1659,0.5444,0.4116,266.4219
15:31:41:010,-1.4041,2.3349,7.6855,50.3006,-0.123,0.575,0.6119,266.125
15:31:41:029,-1.2401,2.7408,6.5411,50.7468,-0.2067,0.5113,0.7371,265.5938
15:31:41:044,-0.9013,3.2854,5.909,51.4709,-0.3944,0.2789,0.7453,264.8281
15:31:41:067,-0.4141,3.8182,6.4872,52.9712,-0.5073,0.0493,0.6175,263.9219
15:31:41:091,-0.1926,3.8696,7.5634,54.3883,-0.5404,0.1577,0.4156,263.4062
15:31:41:108,0.0875,3.5919,7.9668,53.2317,-0.478,0.1436,0.23,262.4531
15:31:41:124,-0.353,3.8182,8.6192,52.9825,-0.2458,0.3082,0.0995,261.7031
15:31:41:144,-0.9492,3.957,8.4038,55.3802,0.073,0.4959,0.1557,261.1875
15:31:41:165,-0.7589,3.8253,7.7334,53.5477,0.3625,0.5683,0.194,260.8594
15:31:41:185,-0.4416,3.9534,7.0702,56.651,0.5401,0.5649,0.189,260.6562
15:31:41:207,-0.4704,4.3389,6.3675,54.6686,0.5582,0.3968,0.1988,260.3594
15:31:41:224,-0.4668,4.7327,5.3823,55.9011,0.3345,-0.0226,0.1655,260
15:31:41:243,-0.2812,4.88,4.6568,55.9312,-0.106,-0.2399,0.0721,259.5
15:31:41:265,0.0049,4.892,4.6413,57.0181,-0.596,-0.2554,0.0327,259.2656
15:31:41:289,0.2467,4.8321,5.8683,55.8222,-1.0272,-0.1736,0.0747,259.2031
15:31:41:309,0.6274,4.4035,7.6484,56.3643,-1.3028,0.0882,0.1466,259.2031
15:31:41:324,-0.2202,4.0456,11.2948,56.7354,-1.3787,0.1073,0.1181,259.1719
15:31:41:346,-0.6296,3.7595,12.3602,57.6305,-1.2408,-0.2077,0.0111,258.9844
15:31:41:363,-0.2513,3.6577,13.0401,57.6305,-0.9249,-0.4844,-0.0211,258.6875
15:31:41:383,0.2946,3.5237,12.8426,57.202,-0.5049,-0.6088,-0.0483,258.5625
15:31:41:406,0.6669,3.4818,11.521,56.8275,-0.1041,-0.576,-0.1402,258.5938
15:31:41:424,0.9003,3.8553,11.1691,56.9313,0.1004,-0.7553,-0.3008,258.7188
15:31:41:443,1.6018,3.3788,12.6403,57.7803,0.0634,-1.2778,-0.5975,258.9219
15:31:41:462,1.4438,1.9878,14.3498,57.5003,-0.0575,-1.5265,-1.0603,259.2656
15:31:41:483,0.1258,0.592,14.673,56.2219,-0.065,-1.1947,-1.4446,259.9688
15:31:41:508,-0.8307,-0.1814,13.2676,57.4333,0.123,-0.5763,-1.4875,261.2188
15:31:41:524,-0.766,-0.1203,10.6328,59.0308,0.4051,0.1127,-1.2358,262.8906
15:31:41:543,-0.0598,0.5369,8.0363,55.9873,0.648,0.4346,-0.9517,264.8125
15:31:41:563,0.6394,1.4108,6.6811,56.6227,0.7279,0.1675,-0.8475,266.4531
15:31:41:582,0.6023,1.801,6.4585,57.2424,0.6075,-0.3667,-0.9711,267.625
15:31:41:611,0.0276,1.6562,6.911,55.176,0.379,-0.8237,-1.2089,268.5
15:31:41:626,-0.2668,1.3904,7.1013,56.1161,0.1579,-0.9657,-1.3567,269.5469
15:31:41:642,-0.523,1.3677,7.1061,55.2022,-0.0666,-0.7657,-1.3836,270.9531
15:31:41:663,-0.529,1.6837,7.3635,56.2656,-0.2511,-0.4602,-1.3045,273.5
15:31:41:685,-0.359,2.05,7.5466,55.5371,-0.2871,-0.2618,-1.2033,275.2656
15:31:41:707,-0.3722,2.4032,7.3036,54.2456,-0.1755,-0.1856,-1.141,276.8594
15:31:41:725,-0.5278,2.7276,7.0666,55.3875,-0.017,-0.1968,-1.1019,278.2344
15:31:41:743,-0.7229,3.1143,7.1013,55.7387,0.0762,-0.2181,-1.0744,279.5781
15:31:41:764,-1.0114,3.3728,7.3216,54.3587,0.0775,-0.1643,-1.0869,280.875
15:31:41:783,-1.1994,3.4926,7.7837,55.873,-0.0088,-0.028,-1.1133,282.0938
15:31:41:809,-1.4544,3.5943,8.4493,53.3371,-0.1036,0.1433,-1.1216,283.3906
15:31:41:825,-1.7991,3.6542,9.2118,54.1853,-0.1326,0.278,-1.112,284.6719
15:31:41:843,-2.0074,3.7882,9.5458,52.8863,-0.0746,0.3593,-1.0667,285.9219
15:31:41:863,-2.412,3.9235,9.4596,53.315,-0.0008,0.4243,-1.0055,287.0625
15:31:41:883,-2.7317,4.1234,9.6667,53.4293,0.0091,0.4064,-0.9035,288.1875
15:31:41:905,-2.685,4.3317,10.118,53.4563,-0.0104,0.253,-0.7714,289.25
15:31:41:924,-2.3546,4.3533,10.9859,52.0501,-0.0309,0.0101,-0.6726,290.1562
15:31:41:943,-2.0553,4.3676,11.6264,52.1863,-0.0506,-0.0865,-0.6331,290.9844
15:31:41:963,-2.181,4.4107,11.922,53.6774,-0.098,0.0005,-0.6499,291.7344
15:31:41:984,-2.6359,4.1438,12.1519,51.998,-0.1848,0.1356,-0.6784,292.4375
15:31:42:007,-3.2728,3.6194,12.3973,52.5161,-0.2437,0.1904,-0.6459,293.1875
15:31:42:025,-3.6379,3.1609,12.3291,50.9125,-0.1414,0.0677,-0.2539,293.9219
15:31:42:042,-3.4667,2.8246,12.4464,51.4629,-0.0205,-0.2109,-0.0483,293.9219
15:31:42:063,-3.1136,2.1243,12.9085,52.6904,0.2053,-0.4304,0.0864,294.5781
15:31:42:082,-2.6946,1.1546,13.337,51.0873,0.5454,-0.3795,0.2015,295.3281
15:31:42:105,-2.3271,0.2747,12.0561,53.9804,0.8078,-0.179,0.353,295.4219
15:31:42:122,-1.8063,0.5285,9.8822,50.2903,0.8197,-0.1039,0.4886,295.4219
15:31:42:142,-0.6763,1.3162,8.3319,51.093,0.6695,-0.281,0.3586,295.3281
15:31:42:162,-0.3327,1.6454,7.5981,51.5054,0.4538,-0.4913,0.1232,295.0312
15:31:42:184,-0.3985,1.4647,7.3994,51.5091,0.2852,-0.5627,-0.0219,294.5781
15:31:42:206,-0.602,1.2635,7.0905,49.7377,0.2309,-0.5316,-0.0771,294.2969
15:31:42:268,-0.8163,1.1462,6.2562,52.0447,0.2298,-0.4565,-0.0664,294.3125
15:31:42:269,-1.0486,1.0301,5.0615,50.3589,0.1707,-0.3856,0.0092,294.5
15:31:42:269,-1.3418,0.9188,4.2426,48.9902,0.0349,-0.3111,0.156,294.7344
15:31:42:286,-1.4472,1.0265,3.8955,50.0427,-0.118,-0.2892,0.3269,294.9219
15:31:42:308,-1.1838,1.2516,3.7746,49.0071,-0.2927,-0.3537,0.4476,295.0312
15:31:42:323,-0.9671,1.4946,4.0427,50.1149,-0.5073,-0.4037,0.5251,294.9375
15:31:42:343,-0.632,1.9231,4.9525,51.7228,-0.6836,-0.5073,0.5485,294.6406
15:31:42:362,-0.2836,2.5612,6.4836,49.6582,-0.7513,-0.6418,0.4452,294.2031
15:31:42:382,-0.347,2.8473,8.3834,49.7728,-0.7196,-0.6629,0.2936,293.6875
15:31:42:411,-0.7289,2.797,10.051,51.0877,-0.612,-0.5244,0.1967,293.1875
15:31:42:425,-1.3299,2.56,11.0003,49.5448,-0.4983,-0.2858,0.2097,292.8125
15:31:42:443,-1.4795,2.6283,11.0853,50.4369,-0.5033,-0.1348,0.2811,292.625
15:31:42:464,-0.9324,2.8365,11.6826,50.8355,-0.6117,-0.0892,0.2665,292.5156
15:31:42:482,-0.5386,2.8736,12.9456,49.646,-0.694,-0.0069,0.1658,292.3281
15:31:42:507,-0.6739,2.2954,14.1522,50.0057,-0.6629,0.2256,0.1299,291.8906
15:31:42:524,-1.039,1.4611,14.3486,48.4006,-0.5547,0.4991,0.247,291.5938
15:31:42:542,-0.9492,1.3857,13.8338,48.7777,-0.4447,0.5984,0.3762,291.5156
15:31:42:563,-0.1723,1.734,13.2365,48.6047,-0.3638,0.4546,0.3387,291.25
15:31:42:584,0.7303,1.7675,12.7959,49.3877,-0.3649,0.1004,0.1285,290.7969
15:31:42:608,1.1326,1.175,13.3837,49.4169,-0.3739,-0.1646,-0.1221,290.2656
15:31:42:622,0.6525,-0.0413,14.4994,48.4604,-0.2346,-0.0293,-0.1969,289.9375
15:31:42:642,0.0863,-1.0337,14.7089,48.3536,0.1401,0.4413,0.0034,289.9375
15:31:42:662,0.4071,-1.2097,12.4368,47.305,0.5651,0.6629,0.3128,290.1875
15:31:42:684,1.6222,-0.5513,9.1184,47.4689,0.7497,0.3034,0.4465,290.2969
15:31:42:707,2.7068,0.4088,7.0486,47.9286,0.6381,-0.2309,0.2872,290.0156
15:31:42:724,2.3309,1.0612,6.2921,46.3772,0.3926,-0.5105,-0.0246,289.5
15:31:42:743,1.445,0.9655,6.237,46.6828,0.1766,-0.4772,-0.2755,289.0469
15:31:42:767,0.6454,0.9906,5.824,46.972,0.0594,-0.2903,-0.3908,288.9844
15:31:42:781,0.2695,1.2025,5.2063,47.3665,0.0016,-0.1089,-0.3785,289.25
15:31:42:803,0.3736,1.6718,5.0244,47.1356,-0.0746,-0.0197,-0.2995,289.7188
15:31:42:824,0.6585,2.153,5.265,47.676,-0.1542,-0.0647,-0.243,290.2188
15:31:42:842,0.7627,2.4499,5.6301,47.3034,-0.1734,-0.1758,-0.2733,290.6094
15:31:42:862,0.868,2.4954,6.158,44.8957,-0.1702,-0.2996,-0.3487,290.9062
15:31:42:884,0.6609,2.4954,6.9074,46.0657,-0.1864,-0.3678,-0.4414,291.2031
15:31:42:908,-0.1926,2.6031,8.0793,44.8342,-0.2557,-0.2871,-0.5234,291.6094
15:31:42:925,-1.0557,2.5145,9.7589,45.0884,-0.3387,-0.1188,-0.5186,292.3906
15:31:42:942,-1.4903,2.6115,10.7752,45.7259,-0.2764,0.0482,-0.3988,293.0312
15:31:42:962,-1.3418,2.8066,11.035,45.7837,-0.0634,0.0474,-0.2262,293.6562
15:31:42:982,-0.8917,3.155,10.974,45.315,0.1553,-0.1177,-0.0747,294.0781
15:31:43:008,-0.1459,3.5512,11.6348,44.2018,0.2139,-0.2895,-0.014,294.3281
15:31:43:027,0.5005,3.5668,12.833,44.4182,0.151,-0.3236,-0.0888,294.4375
15:31:43:043,0.5161,3.0772,13.3406,45.7071,0.1004,-0.188,-0.3128,294.4844
15:31:43:062,-0.3064,2.6594,13.2879,43.0038,0.0088,0.0772,-0.5437,294.6406
15:31:43:082,-1.3383,2.0692,13.6638,45.2673,-0.1987,0.3494,-0.6848,295.0312
15:31:43:108,-2.1164,1.3629,14.1546,42.6603,-0.3539,0.5191,-0.6805,295.6094
15:31:43:124,-2.9483,0.6039,14.2301,43.6152,-0.3121,0.5113,-0.554,296.3438
15:31:43:142,-3.426,-0.185,14.0804,42.4101,-0.1031,0.297,-0.3117,297.0312
15:31:43:163,-2.8598,-0.8062,13.2556,43.1512,0.2061,0.0416,0.0324,297.3281
15:31:43:182,-1.8518,-0.847,11.6371,42.753,0.4991,-0.0895,0.3631,297.75
15:31:43:208,-0.8618,-0.4926,9.8331,42.8713,0.6389,-0.1587,0.5663,297.8906
15:31:43:224,-0.0226,0.0221,8.6575,41.9212,0.5601,-0.2775,0.6111,297.6719
15:31:43:242,0.1617,0.3382,8.2613,41.8601,0.3353,-0.3593,0.5083,297.1406
15:31:43:263,0.0289,0.4112,7.9309,40.3959,0.1297,-0.3403,0.381,296.5312
15:31:43:282,-0.3722,0.4364,7.3372,41.6519,0.0341,-0.2623,0.3373,295.9375
15:31:43:311,-0.687,0.3837,6.8248,39.4328,0.0402,-0.208,0.4079,295.5
15:31:43:327,-0.62,0.5357,6.5973,38.7917,0.1001,-0.1576,0.6002,295
15:31:43:343,-0.1735,0.8984,6.3005,41.1771,0.2035,-0.0818,0.8436,294.5781
15:31:43:362,0.2934,1.5078,5.921,38.6507,0.2983,-0.0168,1.0167,293.9219
15:31:43:384,0.7794,2.0058,5.6253,41.4979,0.363,-0.0144,1.0724,293.0156
15:31:43:408,0.941,2.4187,5.3978,39.8001,0.3854,-0.0884,1.0047,291.8594
15:31:43:424,0.5951,2.7013,5.4876,41.1461,0.1718,-0.2538,0.7179,290.625
15:31:43:442,0.1988,2.7396,6.4597,41.63,-0.0237,-0.3143,0.6398,290.625
15:31:43:462,-0.4297,2.6223,8.6049,38.8918,-0.1102,-0.2522,0.6705,288.5781
15:31:43:481,-0.4799,2.3828,10.8099,38.1875,0.0245,-0.0386,0.7637,287.7969
15:31:43:501,-0.0418,2.5636,11.5725,38.9153,0.2543,0.1489,0.8175,287.1406
15:31:43:525,0.813,2.9838,11.0434,38.3644,0.3715,0.1334,0.7352,286.4531
15:31:43:542,1.6856,3.483,10.3084,38.3644,0.2522,-0.0559,0.4604,285.5938
15:31:43:563,2.052,3.5476,10.452,36.9438,-0.0373,-0.1619,0.0992,284.6094
15:31:43:581,1.7132,2.8401,11.5366,37.1325,-0.2905,-0.0061,-0.1628,283.7656
15:31:43:609,1.2176,1.9016,12.2788,38.625,-0.3955,0.2938,-0.2419,283.2344
15:31:43:627,1.0368,1.3485,11.9867,37.6126,-0.4088,0.4115,-0.203,283.1562
15:31:43:642,1.4713,1.2995,11.3642,34.7335,-0.4168,0.2717,-0.2307,283.3438
15:31:43:661,1.8939,1.4599,11.0374,35.374,-0.5119,0.0155,-0.4014,283.5938
15:31:43:682,2.1238,1.169,11.4959,36.5348,-0.6562,-0.2008,-0.6129,283.7656
15:31:43:707,1.8676,0.3298,12.9432,36.9083,-0.6493,-0.1073,-0.7338,283.9844
15:31:43:727,1.2176,-0.4304,13.7201,33.9286,-0.383,0.2261,-0.6915,284.4531
15:31:43:742,0.9195,-0.8661,12.4344,35.5739,-0.0642,0.4581,-0.5106,286.1094
15:31:43:762,1.293,-0.6183,9.9265,34.2453,0.0605,0.2884,-0.3461,286.5156
15:31:43:782,2.107,0.1502,8.3487,34.0657,-0.028,-0.1177,-0.3921,287.3438
15:31:43:808,2.3201,0.7919,8.326,35.2869,-0.1425,-0.2527,-0.5796,287.5312
15:31:43:825,1.8018,0.8661,8.2158,34.7374,-0.1747,-0.0629,-0.7498,287.9062
15:31:43:844,0.7842,0.7763,7.3036,35.7146,-0.1784,0.1888,-0.7623,288.4688
15:31:43:861,-0.0909,0.7907,6.2215,34.8856,-0.1755,0.2722,-0.6145,289.2812
15:31:43:882,-0.4416,1.0493,5.5487,33.8606,-0.1486,0.1105,-0.4046,290.1562
15:31:43:911,-0.1028,1.5221,5.7247,34.7174,-0.0503,-0.1358,-0.2536,290.8906
15:31:43:931,0.3688,1.9866,5.976,33.0286,0.0698,-0.3148,-0.2156,291.4375
15:31:43:941,0.7627,2.4008,6.0551,34.0461,0.0724,-0.3521,-0.256,291.8125
15:31:43:962,0.8896,2.6606,6.5375,34.2669,-0.017,-0.2453,-0.3277,292.0938
15:31:43:983,0.4682,2.7695,7.5395,34.3255,-0.0818,-0.09,-0.3668,292.4062
15:31:44:008,0.0672,2.7264,8.7449,33.2591,-0.0631,0.1108,-0.3287,292.7812
15:31:44:025,-0.4129,2.8377,9.6308,32.3104,0.0413,0.24,-0.2478,293.2188
15:31:44:041,-0.6152,3.0628,10.2341,31.5381,0.1902,0.2149,-0.1698,293.6094
15:31:44:062,-0.6739,3.1945,10.5753,33.0429,0.2932,0.1476,-0.1221,293.9062
15:31:44:084,-0.7337,3.453,10.683,30.4735,0.2666,0.0717,-0.0933,294.1094
15:31:44:108,-0.5913,3.5763,11.1571,32.9058,0.1646,0.0266,-0.1216,294.2188
15:31:44:125,-0.2812,2.821,13.0497,34.2523,0.1177,0.0807,-0.178,294.3281
15:31:44:142,-0.5266,2.7264,12.7325,32.2627,0.1121,0.2626,-0.219,294.4375
15:31:44:161,-1.209,2.718,12.7492,33.1135,0.0445,0.3156,-0.2438,294.5938
15:31:44:181,-1.8434,2.1805,12.687,32.7308,0.0328,0.1119,-0.2361,294.6875
15:31:44:202,-2.4432,1.5293,12.6439,32.0986,0.0357,-0.1057,-0.2012,295.1094
15:31:44:226,-2.7604,0.6542,13.3502,33.6428,-0.0551,-0.1595,-0.0781,295.2188
15:31:44:243,-2.5174,-0.2592,13.4879,31.9308,-0.0809,-0.02,0.0968,295.4844
15:31:44:261,-1.5801,-0.8242,11.8706,33.1877,0.1095,0.1372,0.3235,295.6719
15:31:44:326,-0.4213,-0.6722,9.8606,32.2408,0.3036,0.1263,0.5381,295.6875
15:31:44:326,0.6525,-0.0066,8.2685,32.0602,0.3119,-0.0264,0.6739,295.4531
15:31:44:326,1.0991,0.6243,7.8615,32.7094,0.1342,-0.2386,0.6439,294.9219
15:31:44:345,0.9949,0.6279,8.3092,33.8702,-0.0897,-0.3614,0.5187,294.2031
15:31:44:360,0.6932,0.3502,8.575,33.4848,-0.1864,-0.2607,0.4577,293.4531
15:31:44:380,0.2539,0.4004,8.065,33.6098,-0.1108,0.0551,0.5285,292.875
15:31:44:402,0.3197,0.7931,6.7853,31.8023,0.0607,0.3614,0.7099,292.4062
15:31:44:424,0.5568,1.3689,5.66,32.8652,0.1939,0.4093,0.8716,291.8906
15:31:44:441,0.9482,1.9423,4.9034,32.1335,0.2344,0.3031,0.9445,291.1875
15:31:44:468,1.1326,2.481,4.9358,33.0645,0.1832,0.0599,0.9221,290.1875
15:31:44:488,0.9183,2.6534,5.6852,33.365,-0.0309,-0.3718,0.6734,287.9844
15:31:44:505,0.455,2.5648,6.8212,31.5115,-0.1047,-0.3161,0.6172,287
15:31:44:529,0.2012,2.4295,8.1165,32.8313,-0.0932,-0.1443,0.6335,286.2344
15:31:44:545,0.0564,2.4535,9.1041,34.8619,-0.0205,0.0762,0.6721,285.5781
15:31:44:575,-0.2561,2.7408,9.699,32.3091,0.0546,0.2101,0.7155,284.9375
15:31:44:591,0.0109,2.8916,9.9013,34.3018,0.1145,0.1268,0.7024,283.7969
15:31:44:604,0.4502,2.9826,9.9169,33.2642,0.0692,-0.1963,0.5906,282.9375
15:31:44:625,0.8501,2.9742,10.9895,31.5355,-0.0189,-0.4413,0.4127,282.1562
15:31:44:644,1.4163,2.5444,12.2477,31.8498,-0.1217,-0.3878,0.1626,281.5156
15:31:44:662,1.439,1.6382,12.7744,33.4492,-0.2996,-0.0493,-0.0273,281.125
15:31:44:689,1.2343,0.9164,12.6487,32.9035,-0.5302,0.3593,-0.1354,281.0156
15:31:44:702,1.2176,0.8003,12.1914,31.6682,-0.7683,0.4053,-0.2912,281.0781
15:31:44:728,0.9051,0.6961,12.4428,33.4696,-0.9539,0.0671,-0.5128,281.2031
15:31:44:744,0.1581,-0.4603,14.2755,32.4953,-0.8541,-0.118,-0.55,281.4844
15:31:44:761,-0.1771,-1.6322,15.5995,32.4132,-0.3694,0.1577,-0.3181,282.1094
15:31:44:781,0.2563,-1.6945,13.6638,32.5154,0.118,0.407,-0.0068,282.7969
15:31:44:802,1.6425,-0.6303,10.2748,33.0732,0.2224,0.2117,0.099,283.1562
15:31:44:823,3.1856,0.7105,8.5031,33.1236,0.0107,-0.1505,-0.1405,283.1562
15:31:44:841,3.6154,1.3821,8.6324,32.8658,-0.1617,-0.2921,-0.5575,282.9531
15:31:44:861,3.006,1.1486,8.6827,32.8864,-0.2016,-0.0714,-0.9176,283.1406
15:31:44:880,1.4211,0.6518,7.9034,31.4065,-0.1619,0.2482,-0.9967,283.1406
15:31:44:900,0.048,0.428,6.7841,33.6731,-0.0919,0.4456,-0.8153,283.7812
15:31:44:924,-0.4476,0.5992,5.7809,32.6076,-0.0168,0.396,-0.5298,284.8438
15:31:44:942,0.0289,1.1594,5.4038,32.8022,0.0717,0.1563,-0.321,285.9688
15:31:44:961,0.7818,1.6598,5.5511,34.5562,0.191,-0.0849,-0.2779,286.7969
15:31:44:984,1.0883,1.9507,5.7294,32.8785,0.269,-0.2101,-0.324,287.6875
15:31:45:008,0.856,2.0393,6.0443,32.4851,0.2746,-0.2338,-0.3626,287.6875
15:31:45:025,0.1881,1.9423,6.6955,33.3619,0.2269,-0.1619,-0.3064,288.3906
15:31:45:041,-0.2968,2.0907,7.9501,34.0661,0.2179,-0.0751,-0.1631,288.6094
15:31:45:067,-0.5254,2.3924,9.286,33.2281,0.2876,-0.0232,-0.0446,289.0469
15:31:45:080,-0.5925,2.8018,10.2688,34.5099,0.3952,-0.0634,0.0452,289.3281
15:31:45:101,-0.444,2.9527,11.1834,35.8734,0.502,-0.0698,0.1,289.4375
15:31:45:128,-0.4883,3.1813,11.7126,35.8975,0.5894,-0.0706,0.1192,289.4219
15:31:45:147,-0.4296,3.4028,11.9137,36.0637,0.5835,-0.0767,0.0612,289.3438
15:31:45:163,-0.4177,3.2723,12.2141,35.5957,0.4458,0.0908,-0.0478,289.2031
15:31:45:181,-0.6547,2.9563,12.6152,35.6037,0.2589,0.3832,-0.1708,289.0938
15:31:45:200,-1.209,2.6857,12.5709,35.806,0.032,0.5662,-0.2891,289.0625
15:31:45:224,-2.4551,2.232,12.7504,37.0676,-0.1734,0.2749,-0.2763,289.125
15:31:45:242,-3.4631,1.4072,14.1858,37.7748,-0.0991,-0.3824,-0.0984,289.2969
15:31:45:261,-3.8785,0.3645,16.0868,36.6384,0.2954,-0.7931,0.2052,289.5625
15:31:45:281,-3.2764,-0.7057,16.2101,39.1921,0.7521,-0.58,0.5245,289.6875
15:31:45:301,-1.9799,-0.8924,13.841,37.4447,1.0035,-0.1425,0.7325,289.875
15:31:45:325,-0.7098,-0.4711,10.3371,37.154,0.898,0.0618,0.7717,289.7812
15:31:45:342,-0.1004,0.3406,7.6903,39.8063,0.5342,-0.0644,0.7184,289.2656
15:31:45:360,0.315,0.9272,6.4154,39.0543,0.1159,-0.327,0.6508,288.4219
15:31:45:381,0.789,1.1235,6.3017,39.323,-0.1678,-0.539,0.6026,287.5469
15:31:45:401,1.1362,1.1031,6.7578,38.9405,-0.1981,-0.543,0.593,286.7031
15:31:45:426,1.3516,1.0205,6.9684,40.0566,-0.0328,-0.3089,0.6713,286.0312
15:31:45:443,1.5444,1.175,6.3519,40.1474,0.1382,0.04,0.7866,285.25
15:31:45:465,1.5575,1.6945,5.2219,39.097,0.1758,0.2812,0.858,284.6406
15:31:45:481,1.3876,2.4427,4.4426,40.8109,0.1028,0.3052,0.8337,283.8281
15:31:45:502,1.354,2.9682,4.0068,41.5145,-0.0666,0.1958,0.7222,282.875
15:31:45:527,1.4127,2.9838,5.5594,41.0624,-0.2828,0.0834,0.6217,281.7969
15:31:45:542,1.688,3.0424,7.0307,39.2645,-0.3686,-0.0357,0.5919,280.8438
15:31:45:561,1.8065,3.3908,8.4911,41.4522,-0.3286,-0.1062,0.5679,280.1094
15:31:45:581,1.7646,3.5093,10.0306,43.0887,-0.2503,-0.1268,0.5056,279.4375
15:31:45:600,1.5049,3.3238,11.1344,43.0193,-0.1238,-0.0509,0.4151,278.8281
15:31:45:624,1.1996,3.1131,11.612,41.8956,0.0211,0.1175,0.3546,278.2812
15:31:45:642,1.202,2.8689,12.2393,42.5531,0.1143,0.1361,0.3466,277.7812
15:31:45:660,1.3349,2.6211,12.9192,40.0077,0.1425,0.0541,0.3344,277.3594
15:31:45:683,1.4187,2.4247,13.7776,43.8054,0.1023,0.0666,0.2912,276.9219
15:31:45:706,1.7275,2.0848,13.987,43.5684,0.0498,0.2751,0.2167,276.5156
15:31:45:725,1.615,1.8154,12.924,43.5684,0.0325,0.6261,0.0851,276.1406
15:31:45:742,1.2978,1.8561,11.77,43.3285,-0.0506,0.8211,-0.0646,275.8125
15:31:45:766,1.5192,1.6598,12.3123,45.147,-0.2527,0.5089,-0.2403,275.5469
15:31:45:780,1.6126,0.5728,13.8793,44.8135,-0.4256,-0.0349,-0.5176,275.375
15:31:45:802,0.9997,-0.7021,13.8362,43.6554,-0.371,0.0357,-0.7565,275.3906
15:31:45:823,0.5388,-1.0612,11.2996,43.0364,-0.1177,0.624,-0.7306,275.7969
15:31:45:843,1.2247,-0.3549,8.2625,43.3776,0.0754,0.958,-0.4875,276.5625
15:31:45:860,2.1525,0.7751,6.8439,44.365,0.057,0.6482,-0.3397,277.7344
15:31:45:881,2.453,1.224,6.9493,43.7521,-0.0751,-0.012,-0.4587,278.0938
15:31:45:901,1.8245,1.0289,6.917,44.0094,-0.1547,-0.4439,-0.7261,278.3594
15:31:45:927,0.8776,0.7703,6.1664,44.0289,-0.1923,-0.4359,-0.9096,278.8906
15:31:45:943,0.3006,0.8063,5.5642,45.9204,-0.261,-0.2221,-0.9128,279.8125
15:31:45:962,0.1821,1.1774,5.4242,44.0145,-0.3467,-0.0687,-0.7751,280.8906
15:31:45:985,0.1282,1.7364,5.8324,44.2193,-0.3862,-0.0719,-0.6297,281.9844
15:31:46:000,-0.1256,2.0692,6.3519,46.0019,-0.3193,-0.1587,-0.537,282.8906
15:31:46:020,-0.1926,2.2117,6.5985,44.667,-0.1441,-0.2562,-0.4502,283.6094
15:31:46:042,-0.2956,2.4487,6.7266,45.6883,0.024,-0.3233,-0.3453,284.25
15:31:46:064,-0.3052,2.8485,7.4593,44.9068,0.0988,-0.371,-0.226,284.8281
15:31:46:081,-0.304,3.1753,8.8994,44.4446,0.0956,-0.4258,-0.1218,285.25
15:31:46:102,-0.1783,3.3297,10.2653,45.3048,0.1153,-0.3832,-0.0579,285.5781
15:31:46:125,0.1043,3.6542,11.0015,46.4941,0.1835,-0.2165,-0.015,285.7812
15:31:46:142,0.285,3.7918,11.4971,46.1018,0.2368,-0.1022,-0.0497,285.9219
15:31:46:160,0.03,3.5788,12.1674,46.6391,0.245,-0.0154,-0.1508,285.9531
15:31:46:181,-0.2273,3.0388,12.6511,46.5421,0.2471,0.1209,-0.2225,286.0156
15:31:46:201,-0.438,2.5947,12.7528,46.8307,0.245,0.3052,-0.2254,286.1875
15:31:46:226,-0.4931,2.4762,12.5517,47.5896,0.1449,0.6608,-0.1093,286.3906
15:31:46:244,-0.4297,2.56,12.0358,46.3672,0.0179,0.6522,-0.1317,286.3906
15:31:46:260,-0.7385,2.5672,11.3379,47.5285,-0.168,0.2711,-0.1937,286.6406
15:31:46:280,-1.1288,2.1147,11.9412,47.9089,-0.3419,-0.3196,-0.2102,286.6562
15:31:46:303,-1.5669,1.0756,13.9883,47.1017,-0.2791,-0.5648,-0.1029,286.6719
15:31:46:326,-1.6016,-0.179,15.4535,48.9827,0.1103,-0.2525,0.1395,286.9844
15:31:46:392,-1.2604,-0.7488,13.5549,47.9227,0.4301,0.1255,0.4191,287.1562
15:31:46:392,-0.7062,-0.1107,10.2617,47.9695,0.3694,0.1012,0.5775,287.375
15:31:46:393,0.3521,0.6734,8.4121,48.7704,0.0626,-0.1025,0.4958,287.25
15:31:46:405,0.8632,1.1199,8.0626,47.4783,-0.2197,-0.2178,0.3107,286.7344
15:31:46:426,0.8896,1.1151,8.223,48.7704,-0.3015,-0.1989,0.1706,286.0781
15:31:46:441,0.3533,1.0864,7.8758,49.1475,-0.2181,-0.1598,0.132,285.5312
15:31:46:460,-0.1507,1.0768,7.0319,49.9715,-0.106,-0.1821,0.2095,285.2344
15:31:46:480,-0.1938,1.0804,6.2358,48.8564,-0.058,-0.2519,0.3325,285.0781
15:31:46:500,0.06,1.3306,5.8695,49.9032,-0.0908,-0.3113,0.4287,284.9844
15:31:46:523,0.4071,1.6346,6.0491,49.9124,-0.1158,-0.3979,0.4729,284.7812
15:31:46:541,0.7675,1.7711,7.0355,50.4269,-0.062,-0.3393,0.459,284.4531
15:31:46:562,0.7962,1.6239,7.9129,49.9362,0.0802,-0.187,0.4665,284.0469
15:31:46:580,0.7088,1.5808,8.2481,49.278,0.1859,-0.0173,0.5016,283.5781
15:31:46:600,0.6908,1.5748,8.6288,50.9124,0.1947,0.1627,0.5373,283.125
15:31:46:627,0.5795,1.7017,9.4728,50.817,0.2514,0.3721,0.5725,282.6406
15:31:46:647,0.3245,1.7723,9.9397,49.4267,0.4378,0.4211,0.6002,282.0625
15:31:46:660,0.291,1.7915,9.8918,51.6345,0.685,0.3337,0.6577,281.4062
15:31:46:680,0.698,2.0931,9.0011,51.181,0.7723,0.1252,0.6617,280.3125
15:31:46:700,1.3313,2.7288,8.3307,50.1798,0.6101,-0.1957,0.524,279.4688
15:31:46:725,1.9669,3.1286,8.721,51.1199,0.2597,-0.4786,0.2438,278.6094
15:31:46:742,2.0627,2.9754,10.2533,52.1063,-0.1044,-0.4826,-0.0595,277.8594
15:31:46:760,1.5947,1.9172,12.2189,53.1085,-0.2863,-0.0935,-0.1905,277.4688
15:31:46:780,1.1015,1.1199,12.699,51.4175,-0.318,0.4112,-0.1567,277.4844
15:31:46:800,1.1003,1.1797,11.4683,52.7618,-0.3989,0.506,-0.1692,277.75
15:31:46:825,1.2403,1.3809,10.4736,53.2205,-0.6344,0.1609,-0.2909,277.9375
15:31:46:842,1.2224,0.7093,11.8275,51.7799,-0.8999,-0.1329,-0.4023,278.0156
15:31:46:860,0.4969,-0.4184,14.9208,51.7863,-0.7971,0.1971,-0.2981,278.2344
15:31:46:883,0.3604,-0.9774,16.1741,51.9192,-0.2525,0.8189,-0.0411,278.6875
15:31:46:901,0.9769,-0.8122,13.4639,51.358,0.274,1.0032,0.1951,279.1875
15:31:46:923,2.5511,1.3031,8.0087,52.0689,0.4586,0.5822,0.2303,279.3281
15:31:46:943,2.4171,1.746,7.2677,52.793,0.3539,0.09,0.0121,279.0625
15:31:46:959,1.5959,1.6526,6.9589,50.7487,0.1068,-0.0647,-0.2811,278.625
15:31:46:980,0.7782,1.6167,6.6752,52.4683,-0.1073,0.0466,-0.4401,278.375
15:31:47:000,0.3784,1.8011,6.2622,49.8874,-0.2016,0.1715,-0.4568,278.5312
15:31:47:027,0.2611,1.9794,6.0084,52.5924,-0.2077,0.1595,-0.4007,278.9531
15:31:47:043,-0.031,2.0069,6.073,51.6088,-0.1502,0.0384,-0.3178,279.4844
15:31:47:061,-0.4057,2.2057,6.1843,51.1183,-0.0269,-0.062,-0.1841,279.9375
15:31:47:080,-0.4045,2.5816,6.3699,53.3869,0.1199,-0.1419,0.0023,280.3281
15:31:47:100,0.0935,3.1107,6.7195,51.7339,0.2389,-0.2703,0.1637,280.7188
15:31:47:127,0.7375,3.4518,7.6364,51.714,0.2844,-0.4543,0.2276,280.7344
15:31:47:144,0.8991,3.6398,8.7437,52.8187,0.2993,-0.5646,0.1642,280.5938
15:31:47:162,0.8105,3.7559,9.632,51.5752,0.3252,-0.4836,0.0651,280.4219
15:31:47:183,0.6825,3.7942,10.0558,53.1518,0.3928,-0.3366,-0.0361,280.3281
15:31:47:199,0.5747,3.6865,10.4496,52.9645,0.445,-0.1885,-0.1173,280.3281
15:31:47:221,0.4598,3.6709,10.8423,51.0523,0.4634,-0.0128,-0.1602,280.4219
15:31:47:242,0.6872,3.8086,10.9931,51.0615,0.4727,0.1478,-0.1812,280.5625
15:31:47:265,0.7411,3.8206,11.126,53.7112,0.4333,0.2408,-0.2374,280.7188
15:31:47:281,0.6023,3.4542,11.5162,51.3116,0.3164,0.2685,-0.3213,280.8594
15:31:47:300,0.5915,3.1011,11.879,50.4457,0.1771,0.286,-0.3695,281.0625
15:31:47:325,0.3748,3.1035,11.7509,52.3507,0.0573,0.3654,-0.4084,281.3438
15:31:47:341,-0.0657,2.7336,11.3857,50.2137,-0.1209,0.4599,-0.4984,281.6719
15:31:47:359,-1.045,2.1781,11.3822,50.7709,-0.3763,0.5132,-0.603,281.8594
15:31:47:380,-2.0481,1.3438,12.7911,49.7847,-0.6674,0.3995,-0.6065,282.2812
15:31:47:400,-2.4372,0.0557,13.8673,51.1039,-0.7633,0.3819,-0.4552,282.7969
15:31:47:425,-2.697,-0.6363,12.7085,49.0477,-0.4575,0.4701,-0.1652,283.3906
15:31:47:444,-2.3342,-0.1586,10.0689,48.4164,-0.0636,0.5598,0.2356,283.9531
15:31:47:460,-1.2461,0.7979,8.1356,49.4267,0.0772,0.396,0.5951,284.2344
15:31:47:480,-0.4943,1.503,7.6544,50.3784,-0.0415,0.0083,0.687,284.1094
15:31:47:500,-0.4249,1.4299,8.0662,49.8174,-0.2282,-0.3198,0.5972,283.5
15:31:47:528,-0.8331,1.1271,8.2482,49.3931,-0.3089,-0.3923,0.5301,282.3125
15:31:47:545,-1.5597,0.9966,7.8782,48.2959,-0.204,-0.2959,0.6364,281.7188
15:31:47:561,-2.0445,1.1869,7.4521,48.0593,0.1659,-0.5113,0.9637,281.1875
15:31:47:580,-1.4316,1.552,6.5614,49.693,0.7859,-1.1606,1.4164,280.5312
15:31:47:600,-0.0633,2.1805,5.5199,49.4842,1.4605,-1.7537,1.9299,279.5156
15:31:47:627,1.6066,3.046,4.9322,49.213,1.1926,-1.2977,1.797,279.5156
15:31:47:645,2.9103,3.9163,4.7011,50.7502,0.697,-0.6983,1.4236,276.4219
15:31:47:660,3.5914,4.5616,5.0507,49.0941,0.1662,-0.1992,0.9336,274.4844
15:31:47:679,3.4322,4.6166,6.0096,48.1961,-0.2165,0.0828,0.4694,272.7031
15:31:47:700,2.9115,4.1474,7.142,47.8953,-0.42,0.2645,0.1288,271.1562
15:31:47:723,2.3392,3.3381,8.0195,47.8953,-0.6013,0.6392,-0.0664,270.1094
15:31:47:743,1.7239,3.1047,8.4337,47.536,-0.8655,0.9894,-0.1503,269.6094
15:31:47:759,1.5767,3.0568,9.2537,47.3901,-1.1228,1.0325,-0.2462,269.4531
15:31:47:779,1.4977,2.6223,10.9799,45.8036,-1.1795,0.6786,-0.3423,269.4688
15:31:47:799,1.0596,1.6143,13.252,46.1874,-0.9433,0.1681,-0.3138,269.5156
15:31:47:819,0.7495,0.665,14.8346,46.4315,-0.515,-0.0826,-0.1498,269.7031
15:31:47:841,0.9147,0.1071,14.4551,45.2334,-0.1566,-0.0336,0.0481,270.0781
15:31:47:861,1.4702,0.4591,12.7516,44.9422,-0.126,0.1191,0.1181,270.5
15:31:47:879,2.4793,1.1103,11.3091,46.6066,-0.3944,0.1366,-0.0635,270.7188
15:31:47:900,3.2024,1.3605,11.0398,46.6066,-0.7787,-0.0778,-0.4419,270.6875
15:31:47:925,2.7906,0.6123,12.8271,44.655,-0.9167,-0.1686,-0.7447,270.5469
15:31:47:943,1.9227,-0.6171,14.4288,45.2577,-0.6336,0.146,-0.7876,270.625
15:31:47:962,1.3708,-1.1498,13.1946,44.546,-0.1923,0.522,-0.6062,271.6875
15:31:47:979,1.4917,-0.5022,10.1994,43.4525,0.0565,0.4376,-0.4161,272.6875
15:31:47:999,2.7331,0.4998,7.8244,43.8808,0.0115,0.0626,-0.4776,273.4531
15:31:48:020,3.3364,1.2492,6.6045,42.8758,-0.2405,-0.2794,-0.7298,273.9375
15:31:48:041,2.9127,1.5173,6.8822,42.9764,-0.4621,-0.4258,-0.9708,274.3594
15:31:48:060,2.2351,1.1702,7.4808,44.8167,-0.5305,-0.3291,-1.1112,275.0625
15:31:48:084,1.2032,0.8649,7.6532,43.8557,-0.5079,-0.1071,-1.0683,276.0781
15:31:48:099,0.3305,0.7548,7.658,44.018,-0.4136,0.0932,-0.8731,277.3906
15:31:48:119,-0.0538,1.0924,7.7801,41.7105,-0.2229,0.2096,-0.6371,278.7344
15:31:48:149,0.2132,1.4898,7.5909,42.989,0.0197,0.1923,-0.472,279.8438
15:31:48:168,0.7567,1.8489,6.9876,41.8258,0.175,0.0783,-0.415,280.7031
15:31:48:180,1.2008,2.2416,6.6153,41.4234,0.2061,-0.0983,-0.4499,281.3125
15:31:48:201,1.2415,2.5229,6.7135,40.8908,0.1396,-0.2202,-0.5485,281.75
15:31:48:230,0.9758,2.6702,7.6233,41.1878,0.0591,-0.1587,-0.6185,282.2188
15:31:48:247,0.8201,2.6725,8.9317,43.1724,0.065,0.0495,-0.6758,282.8125
15:31:48:262,0.8644,2.6091,9.5781,41.6309,0.0365,0.4037,-0.7714,283.5
15:31:48:278,0.7172,2.7384,9.4417,40.4966,-0.27,0.9601,-0.9016,284.2188
15:31:48:300,0.0779,3.1274,10.6376,39.8649,-0.7843,1.5271,-1.1045,285
15:31:48:319,-0.9803,2.1841,12.8558,39.773,-1.1292,1.7604,-1.3344,285.8594
15:31:48:340,-2.0972,0.7284,14.2432,41.0033,-0.9997,1.5921,-1.4118,286.7812
15:31:48:358,-2.7628,-0.2963,14.0732,38.5297,-0.4897,1.0546,-1.2321,287.9844
15:31:48:379,-2.9244,-0.5536,14.0002,38.7146,-0.0463,0.2823,-0.9138,288.6719
15:31:48:447,-2.7329,-0.8709,14.7676,38.6471,0.0565,-0.2972,-0.6299,291.2969
15:31:48:447,-2.3761,-1.6394,15.8401,40.3432,-0.009,-0.4186,-0.4398,292.3125
15:31:48:447,-2.1511,-2.4846,15.2296,40.1654,0.069,-0.0809,-0.2483,292.7188
15:31:48:461,-2.3007,-2.6486,12.6834,39.0813,0.3433,0.3833,0.0055,293.375
15:31:48:478,-2.0158,-2.4307,9.4692,38.3008,0.6155,0.5034,0.32,293.7812
15:31:48:498,-1.7165,-1.667,7.2929,39.392,0.6701,0.1723,0.5869,293.9219
15:31:48:518,-1.1311,-0.8781,6.7757,39.7112,0.4706,-0.3457,0.748,293.7031
15:31:48:541,-0.4476,-0.5106,7.555,39.166,0.1569,-0.7513,0.7821,293.1875
15:31:48:561,-0.4045,-0.3238,8.241,38.1053,-0.0695,-0.8093,0.7107,292.4375
15:31:48:578,-0.8427,-0.2316,8.1787,37.7035,-0.1134,-0.6048,0.6492,291.6406
15:31:48:599,-1.1898,-0.1275,7.2953,38.0589,-0.0149,-0.347,0.6883,290.9219
15:31:48:619,-1.2928,0.1742,6.2705,38.717,0.097,-0.1728,0.8247,290.2344
15:31:48:640,-0.9779,0.5297,5.7809,39.9574,0.1566,-0.1584,1.0015,289.5469
15:31:48:662,-0.3243,0.9822,5.8839,38.747,0.191,-0.2799,1.1405,288.7188
15:31:48:678,0.0791,1.3773,6.1592,39.1723,0.224,-0.3832,1.1821,287.75
15:31:48:698,0.3114,1.6323,6.2861,38.5736,0.2706,-0.3968,1.1376,286.5469
15:31:48:718,0.3497,1.971,6.4776,40.1992,0.2751,-0.3699,1.0516,285.2344
15:31:48:738,0.4191,2.0872,7.2426,41.3822,0.2077,-0.3731,0.9373,284.0156
15:31:48:762,-0.0214,1.9543,8.6899,39.9846,0.1207,-0.4248,0.8023,282.7969
15:31:48:778,-0.5901,1.7986,9.9325,40.7713,0.1193,-0.3683,0.7248,281.7031
15:31:48:799,-0.5003,1.5844,10.476,41.111,0.2251,-0.2818,0.7493,280.3906
15:31:48:819,0.1689,1.6765,10.549,40.5576,0.3255,-0.2692,0.8095,279.5938
15:31:48:840,1.3217,1.9208,11.0326,40.2551,0.2826,-0.3398,0.7967,278.7656
15:31:48:859,2.0316,1.5305,12.1088,40.6724,0.1105,-0.4208,0.5906,277.9062
15:31:48:878,2.1417,0.8158,13.2113,39.4905,-0.1127,-0.3078,0.311,277.0312
15:31:48:899,2.0915,0.2652,13.349,40.1681,-0.2634,0.0466,0.1051,276.4062
15:31:48:919,1.8664,0.1431,12.6451,40.9852,-0.3409,0.4517,-0.0379,276.1094
15:31:48:942,1.7874,0.0976,11.9963,39.8314,-0.4005,0.5667,-0.166,276.0156
15:31:48:960,1.7371,-0.343,12.4141,38.9901,-0.4637,0.3212,-0.3152,276.0156
15:31:48:978,1.4582,-1.1726,13.179,40.94,-0.461,0.0573,-0.4459,276.1562
15:31:48:999,1.2224,-1.6777,12.7205,40.7037,-0.0354,0.3564,-0.2547,276.4844
15:31:49:019,1.6844,-1.3246,10.8255,39.8314,0.135,0.3787,-0.0725,277.0156
15:31:49:040,2.927,-0.6698,8.7054,39.2516,0.0921,0.1239,-0.1199,277.5
15:31:49:059,3.4561,0.1443,7.3563,40.7326,-0.1534,-0.1686,-0.3652,277.75
15:31:49:078,2.945,0.7464,7.2905,39.5103,-0.4173,-0.2519,-0.6488,277.7812
15:31:49:099,1.955,0.7069,7.5239,38.9319,-0.5457,-0.0993,-0.8206,277.9062
15:31:49:118,0.8465,0.5034,7.5143,39.3718,-0.5222,0.134,-0.782,278.3438
15:31:49:140,0.115,0.4771,7.3766,40.0911,-0.3611,0.2826,-0.5695,279.1094
15:31:49:158,0.0707,0.8302,7.251,40.2495,-0.0873,0.2517,-0.3333,280.0781
15:31:49:178,0.4658,1.3785,6.8308,38.5831,0.1747,0.0455,-0.2009,280.9844
15:31:49:197,0.9003,1.892,6.3675,40.7874,0.3031,-0.1569,-0.1724,281.9531
15:31:49:218,1.3361,2.1757,6.2957,38.5663,0.2538,-0.2298,-0.2209,282.0625
15:31:49:242,1.2774,2.238,6.8188,40.5105,0.0996,-0.1864,-0.2835,282.2656
15:31:49:263,0.8884,2.1554,8.0243,38.4919,-0.0152,-0.0876,-0.2939,282.4844
15:31:49:281,0.4526,2.1111,9.5925,38.3862,0.0165,0.024,-0.2574,282.7969
15:31:49:298,-0.1244,2.3326,11.1822,40.0355,0.2783,-0.0439,-0.2076,283.1562
15:31:49:319,-0.3363,2.1829,11.922,39.0677,0.6637,-0.163,-0.1389,283.4531
15:31:49:342,-0.4189,2.0249,11.1583,38.5325,0.8256,-0.2178,-0.0353,283.7188
15:31:49:359,-0.6344,2.3122,10.5334,38.5469,0.6956,-0.1883,0.0566,283.9219
15:31:49:378,-0.5937,2.5732,10.8746,37.6153,0.4461,-0.1033,0.0734,284.0156
15:31:49:399,-0.1016,2.2117,11.7137,38.6224,0.2155,0.0312,0.0502,283.9844
15:31:49:418,0.5699,1.8968,12.5876,37.8888,0.044,0.2053,0.006,283.9062
15:31:49:441,1.1769,1.9471,12.9551,39.258,-0.0871,0.1795,-0.1698,283.8281
15:31:49:458,1.0799,1.8896,13.1766,38.3732,-0.2155,-0.004,-0.4297,283.75
15:31:49:480,0.0743,1.2085,13.762,37.1956,-0.2645,-0.1001,-0.5548,283.7969
15:31:49:498,-1.1862,0.3729,14.4719,37.8095,-0.0892,0.0432,-0.4606,284.125
15:31:49:519,-1.7285,-0.6051,13.7728,36.7399,0.2218,0.2655,-0.2166,284.4219
15:31:49:541,-1.8063,-0.732,11.4324,37.5475,0.403,0.3105,0.0785,285.0469
15:31:49:561,-1.2126,-0.4423,8.9293,37.2153,0.334,0.0501,0.2628,285.5781
15:31:49:578,-0.2609,0.0401,7.5454,36.4933,0.0655,-0.2378,0.2726,285.7656
15:31:49:598,0.3233,0.4914,7.2246,37.2615,-0.2186,-0.4354,0.1786,285.625
15:31:49:618,0.5592,0.6207,7.4892,37.531,-0.3505,-0.5262,0.0643,285.3125
15:31:49:645,0.2922,0.3645,7.5119,36.5529,-0.3276,-0.502,0.0385,285.0312
15:31:49:662,-0.1531,0.07,7.1743,37.5479,-0.2306,-0.4067,0.1573,284.9062
15:31:49:682,-0.6344,-0.0233,6.6632,36.2968,-0.1329,-0.2652,0.4169,284.9688
15:31:49:698,-0.207,0.8601,6.176,36.0405,-0.0088,-0.1425,0.7184,284.9531
15:31:49:718,0.3652,1.4527,5.6887,37.1926,0.1318,-0.0948,0.9014,284.7031
15:31:49:742,0.7782,1.9064,5.757,36.2975,0.163,-0.1752,0.9277,284.1094
15:31:49:759,1.1505,1.9627,6.5638,36.353,0.094,-0.3238,0.8612,283.1719
15:31:49:777,1.0536,1.8765,8.0422,38.0816,-0.0186,-0.4602,0.7379,282.1094
15:31:49:798,0.5915,1.6131,9.8092,36.0327,-0.1087,-0.4229,0.642,281.1562
15:31:49:817,0.4395,1.4635,11.2469,36.4623,-0.1076,-0.2375,0.6311,280.2969
15:31:49:842,0.6609,1.4108,11.4959,35.003,0.0229,-0.0024,0.6718,279.5781
15:31:49:868,1.3995,1.2623,11.3259,36.6984,0.1571,0.0445,0.6867,278.9531
15:31:49:878,2.1465,1.0576,11.7556,36.5734,0.1614,-0.1084,0.6265,278.2344
15:31:49:898,2.2219,0.7141,12.9252,36.5115,0.0506,-0.2615,0.4606,277.4375
15:31:49:919,2.2088,0.0736,13.7835,36.0859,-0.0541,-0.1861,0.291,276.6562
15:31:49:941,2.1956,-0.392,12.8211,34.7784,-0.0509,0.1841,0.1839,276.0625
15:31:49:958,2.2554,-0.0197,11.2936,33.8942,-0.0698,0.4892,0.1277,275.6875
15:31:49:979,2.5619,0.2424,10.5777,34.2529,-0.2186,0.4333,0.009,275.4375
15:31:49:998,2.6278,-0.2053,11.5737,33.4387,-0.5009,0.0813,-0.2568,275.2188
15:31:50:021,2.1118,-1.1486,13.6531,32.9023,-0.7521,-0.278,-0.5439,275.0625
15:31:50:042,2.0316,-1.8549,14.0493,33.3146,-0.6469,-0.2596,-0.6443,275.4062
15:31:50:060,2.5392,-2.1326,12.5828,33.3105,-0.2021,-0.0146,-0.5511,276.1094
15:31:50:078,3.1221,-1.6526,9.5039,33.3105,0.2757,0.2687,-0.3748,276.9375
15:31:50:099,3.5902,-0.2975,6.9194,33.364,0.4256,0.3537,-0.2536,277.5938
15:31:50:118,3.5471,0.7763,6.4501,33.1239,0.1705,0.0932,-0.3825,277.9531
15:31:50:145,2.7977,0.9272,7.3324,33.7062,-0.2218,-0.1409,-0.7181,278.1562
15:31:50:161,1.7599,0.6243,7.5047,34.3709,-0.4514,-0.0157,-1.0073,278.5781
15:31:50:180,0.4766,0.5285,6.9445,31.5188,-0.4775,0.286,-1.1128,279.4375
15:31:50:198,-0.0933,0.7428,6.3795,32.143,-0.3915,0.4706,-0.9602,280.5781
15:31:50:219,0.3437,1.145,6.3567,30.7477,-0.2352,0.3603,-0.6369,281.8594
15:31:50:242,1.2846,1.661,6.6596,32.3936,-0.0229,0.1539,-0.3085,282.9219
15:31:50:260,2.265,2.311,6.4297,32.0993,0.2232,0.0597,-0.088,283.5938
15:31:50:279,3.0946,2.8306,6.5794,31.0122,0.3734,-0.0141,-0.06,283.9219
15:31:50:301,3.0312,2.9539,7.0067,30.5172,0.403,-0.0197,-0.2401,284
15:31:50:317,2.3177,2.9934,7.5023,31.2814,0.3183,0.0211,-0.4853,284.0469
15:31:50:338,1.7227,2.8856,8.7521,31.6031,0.1526,-0.0061,-0.6736,284.2969
15:31:50:360,1.0967,2.4762,10.4245,30.1766,0.0221,-0.1039,-0.8137,285.5938
15:31:50:379,0.2491,2.0788,11.9005,30.161,0.0192,-0.1704,-0.8736,286.5
15:31:50:399,-0.1651,1.6035,12.8809,31.3564,0.2615,-0.1433,-0.6347,287.5156
15:31:50:419,-0.1663,1.4264,13.0892,30.1171,0.334,-0.1017,-0.4869,288.4531
15:31:50:443,-0.1603,1.558,13.0892,28.7913,0.2826,0.0123,-0.4097,289.1406
15:31:50:460,-0.274,1.5149,12.9695,30.1806,0.1332,0.2293,-0.3636,289.1406
15:31:50:527,-0.5637,1.6191,12.6367,29.181,-0.0272,0.3161,-0.2782,289.7031
15:31:50:527,-0.5482,1.4706,12.6906,29.8946,-0.0652,0.1539,-0.1836,290.1562
15:31:50:527,-0.7648,1.3031,12.7504,29.5637,0.0895,-0.1478,-0.027,290.5
15:31:50:540,-0.6056,1.1786,12.5745,27.8701,0.346,-0.5057,0.1181,290.7812
15:31:50:557,0.0025,0.9954,12.3674,29.2643,0.5321,-0.6724,0.1749,290.9688
15:31:50:578,0.4263,0.7596,11.7461,28.7767,0.5401,-0.6048,0.1658,291.0156
15:31:50:597,0.7184,0.7835,11.0781,30.2133,0.3342,-0.498,0.1142,290.9375
15:31:50:617,0.9805,0.9176,11.0697,29.9606,0.0336,-0.4724,0.0018,290.8125
15:31:50:640,0.9973,0.7907,12.2513,29.572,-0.0626,-0.2506,-0.1202,290.6875
15:31:50:657,0.5436,0.3154,12.6631,29.6965,0.138,0.1782,-0.1863,290.625
15:31:50:681,-0.4021,-0.1454,11.2385,30.2195,0.4658,0.5675,-0.0851,290.7031
15:31:50:697,-1.0821,-0.3944,8.569,29.7947,0.7132,0.7359,0.1426,290.8906
15:31:50:717,-1.3131,-0.3262,6.0215,30.5272,0.8115,0.6538,0.4252,291.0469
15:31:50:742,-1.0605,0.1311,4.1924,30.6468,0.7699,0.3204,0.663,291
15:31:50:759,-0.3147,0.6901,3.4394,28.8775,0.6589,-0.1459,0.7656,290.6562
15:31:50:777,0.4299,1.0565,3.5854,31.0427,0.5002,-0.5814,0.7419,290
15:31:50:798,0.8058,1.2216,4.7777,31.2775,0.3444,-0.7574,0.6865,289.1719
15:31:50:817,1.1637,1.2911,6.2729,31.1354,0.2309,-0.6783,0.5959,288.2812
15:31:50:837,1.3277,1.3725,7.5694,31.8567,0.1601,-0.3806,0.4753,287.5156
15:31:50:857,1.2271,1.3533,8.3655,31.0601,0.0706,-0.0133,0.3813,286.8906
15:31:50:878,1.1577,1.3545,8.9185,32.421,-0.0197,0.2831,0.3307,286.0938
15:31:50:898,1.4929,1.3545,9.1998,31.3152,-0.1036,0.3606,0.2635,285.6406
15:31:50:918,1.9131,1.4228,9.462,31.5061,-0.2083,0.2954,0.1725,285.2188
15:31:50:943,2.0843,1.3402,9.8906,30.9515,-0.3052,0.1643,0.0947,284.8125
15:31:50:957,2.0448,1.1283,10.5298,30.1071,-0.3689,0.1143,0.0742,284.5
15:31:50:978,2.1657,1.1199,10.9476,30.6413,-0.4202,0.1801,0.0889,284.3438
15:31:50:997,2.6984,1.2815,10.3706,31.0552,-0.5816,0.1694,-0.0065,284.25
15:31:51:018,3.4322,1.4431,9.6093,30.0894,-0.9979,-0.1949,-0.2821,284.1562
15:31:51:042,4.2163,1.181,10.768,30.0288,-1.6067,-0.6304,-0.7322,284.1094
15:31:51:058,3.115,0.0485,14.6897,28.8499,-1.8506,-0.3614,-1.0073,284.2969
15:31:51:077,1.5001,-0.9966,17.1163,33.0184,-1.3963,0.2759,-0.9005,285.0781
15:31:51:097,1.9789,-1.2204,12.2153,29.537,-0.7222,0.6051,-0.517,286.3906
15:31:51:118,3.5747,-0.1359,9.7074,28.5008,-0.2226,0.5771,-0.047,287.6406
15:31:51:142,4.9908,1.1977,8.4481,30.7705,0.0083,0.2264,0.1496,288.5312
15:31:51:159,4.925,1.8729,8.1141,29.2764,0.0325,-0.1403,-0.1221,288.7969
15:31:51:178,3.6573,1.5556,8.0051,29.2027,-0.0418,-0.2533,-0.6353,288.6406
15:31:51:200,2.0986,0.8613,7.6304,30.3215,-0.1121,-0.0266,-1.0044,288.5625
15:31:51:216,0.9889,0.5944,7.0127,30.3711,-0.1015,0.3457,-1.0582,289.0156
15:31:51:237,0.7543,0.8817,6.4477,29.8143,0.0096,0.5928,-0.8489,290.0156
15:31:51:257,1.0476,1.4862,6.146,29.5289,0.1779,0.5713,-0.5908,291.1719
15:31:51:277,0.9841,1.8609,6.0922,29.3852,0.3537,0.3609,-0.4651,292.2344
15:31:51:297,0.5879,2.0596,6.8056,30.1172,0.4895,0.0067,-0.4393,292.9688
15:31:51:318,0.4993,2.0788,7.3575,30.4488,0.6552,-0.2876,-0.3828,293.4531
15:31:51:340,0.1761,2.4511,7.6233,29.7662,0.8046,-0.4823,-0.3253,294.1562
15:31:51:360,-0.371,2.8066,8.2314,29.8579,0.796,-0.6083,-0.3061,294.6094
15:31:51:378,-0.3913,2.8306,9.1292,28.5052,0.6575,-0.6197,-0.2635,295
15:31:51:399,-0.3842,2.3996,10.1443,30.369,0.4796,-0.4581,-0.214,295.3906
15:31:51:417,-0.5565,2.2823,10.7585,29.838,0.3252,-0.176,-0.1272,295.75
15:31:51:437,-0.5362,2.6091,11.2385,29.9646,0.2059,0.078,0.0308,296.0312
15:31:51:458,-0.4416,2.955,12.0597,29.397,0.1028,0.1904,0.1315,296.1875
15:31:51:477,-0.3267,2.7587,12.4787,29.3426,0.0328,0.2948,0.1315,296.125
15:31:51:497,-0.6344,2.6127,12.3398,29.838,-0.0498,0.4642,0.0841,295.9375
15:31:51:517,-0.7732,2.4738,12.359,28.3985,-0.2101,0.5867,0.0822,295.7344
15:31:51:537,-1.1623,2.2057,13.3286,28.5883,-0.3912,0.4155,0.0662,295.5625
15:31:51:558,-1.8099,1.3066,15.4846,28.677,-0.4679,-0.0157,0.0702,295.375
15:31:51:577,-1.9117,-0.094,16.5524,28.936,-0.2522,-0.2607,0.2119,295.25
15:31:51:597,-1.4424,-0.7608,14.9399,29.4983,0.2008,-0.0999,0.5115,295.1875
15:31:51:617,-0.2333,-0.416,12.2309,28.3065,0.5369,0.1577,0.8742,295.0156
15:31:51:637,1.3313,0.1742,10.4412,28.6873,0.53,0.2171,1.0806,294.7812
15:31:51:659,1.7838,0.4196,9.3878,28.418,0.3295,0.2706,0.9943,293.9844
15:31:51:677,1.0859,0.3166,8.7162,30.0331,0.1369,0.3555,0.7898,292.75
15:31:51:699,0.127,0.1395,7.8064,28.3995,0.0956,0.4693,0.703,291.4688
15:31:51:717,-0.2537,0.1275,6.7051,29.6277,0.2027,0.5012,0.8082,290.4219
15:31:51:736,0.0791,0.3035,5.8168,29.6297,0.3548,0.407,1.0039,289.5156
15:31:51:756,0.279,0.6686,5.338,29.1383,0.4738,0.2421,1.1584,288.5781
15:31:51:777,0.5412,1.011,6.1796,29.9778,0.5633,-0.0786,1.242,286.8594
15:31:51:797,1.1888,1.1726,7.5179,30.0738,1.049,-0.7321,1.2596,285.4531
15:31:51:817,1.3373,1.3055,7.8304,29.625,1.3311,-0.6514,1.164,284.0156
15:31:51:838,1.4235,1.5042,6.6847,30.5494,1.297,-0.2967,1.0462,282.5781
15:31:51:858,1.8844,1.983,5.3356,30.1262,0.8924,0.1156,0.8662,281.2812
15:31:51:876,2.3764,2.6306,4.8855,29.5069,0.306,0.4104,0.6124,279.9688
15:31:51:899,2.3596,3.1765,5.563,30.1097,-0.2053,0.4501,0.3493,278.7031
15:31:51:916,1.9143,3.319,7.5574,32.3973,-0.4051,0.2157,0.1895,277.6406
15:31:51:944,1.6988,2.9586,9.8606,29.1279,-0.2993,-0.1273,0.1759,276.7969
15:31:51:960,1.9526,2.8617,11.5078,32.0847,-0.0764,-0.343,0.234,276.3125
15:31:51:978,2.4302,2.9574,11.9615,31.3798,-0.0043,-0.3851,0.242,276.0938
15:31:52:002,2.9378,2.9479,12.1543,31.1361,-0.1222,-0.1771,0.2103,275.9531
15:31:52:016,3.7411,2.8952,12.1818,30.6955,-0.3225,0.1483,0.0766,275.7812
15:31:52:037,4.0068,2.9922,12.043,29.9951,-0.5651,0.2426,-0.1519,275.5938
15:31:52:059,4.0236,3.1203,12.7301,30.5465,-0.7808,-0.0434,-0.4225,275.4219
15:31:52:077,3.8751,2.3996,15.165,29.2397,-0.6922,-0.224,-0.6411,275.3438
15:31:52:097,3.2502,1.054,16.9547,30.3051,-0.1499,0.0541,-0.6755,275.5156
15:31:52:118,2.7558,0.2807,15.3541,31.7508,0.4954,0.4842,-0.5415,276.0781
15:31:52:142,3.1281,0.5166,11.5067,30.388,0.8621,0.5233,-0.4443,276.9375
15:31:52:160,4.1924,1.1319,8.0279,31.7115,0.8301,0.1505,-0.5879,277.7188
15:31:52:179,4.5311,1.7675,6.2167,31.3611,0.5468,-0.2602,-0.9013,278.3125
