Time,Acc_X,Acc_Y,Acc_Z,Meg,Gyr_X,Gyr_Y,Gyr_Z,Ore
17:14:59:734,-0.4165,3.0963,8.8347,58.0771,0.1214,0.0886,0.3432,199.5312
17:14:59:800,0.3413,3.5787,8.6659,59.7286,-0.0277,-0.6739,-0.0784,199
17:14:59:817,0.4347,3.6171,8.879,57.2273,-0.094,-0.6832,-0.1892,199
17:14:59:835,0.5089,3.5237,9.3962,56.1406,-0.1121,-0.549,-0.2808,198.5312
17:14:59:855,0.1893,3.3034,9.6607,56.925,-0.0714,-0.3772,-0.3348,198.8906
17:14:59:882,-0.3267,3.1598,9.8331,57.643,-0.0029,-0.2105,-0.2888,199.3438
17:14:59:896,-0.6068,3.0209,9.5709,58.2303,0.0501,-0.0907,-0.203,199.7812
17:14:59:914,-0.7385,3.046,9.1783,56.7643,0.0197,0.0092,-0.1005,200.1719
17:14:59:934,-0.529,3.1741,8.8491,58.2508,-0.069,0.0271,-0.0368,200.4062
17:14:59:956,-0.1998,3.4219,8.9317,56.9207,-0.1236,0.002,-0.0896,200.4062
17:14:59:980,-0.1471,3.3357,9.225,58.6496,-0.106,-0.0238,-0.1769,200.5625
17:15:00:004,-0.541,3.0101,9.6655,57.3049,-0.0053,0.0303,-0.1929,200.5625
17:15:00:022,-0.9049,2.9922,9.96,57.4526,0.183,0.161,-0.1575,200.6562
17:15:00:033,-1.3407,3.131,9.3567,57.4113,0.3103,0.267,-0.0648,200.8594
17:15:00:055,-2.193,2.9239,8.1452,58.0877,0.2402,0.2505,0.0923,201.0781
17:15:00:075,-1.9931,3.7092,7.6903,57.6959,0.0272,0.0723,0.2186,201.2188
17:15:00:098,-0.7816,3.6877,7.8507,57.0578,-0.1787,-0.2843,0.0569,201.2188
17:15:00:114,-0.8534,3.5859,8.7952,58.0417,-0.338,-0.4049,-0.0943,201.0469
17:15:00:135,-1.094,2.9503,9.723,58.457,-0.3774,-0.1777,-0.1713,200.7812
17:15:00:153,-1.8722,2.7276,10.3239,57.6278,-0.2922,0.246,-0.0664,200.7969
17:15:00:182,-1.8638,2.7923,9.6655,58.2812,-0.1625,0.2585,0.0705,200.9844
17:15:00:200,-1.7979,3.0005,9.0885,57.9398,-0.0626,0.0076,0.1318,201.25
17:15:00:218,-1.6698,3.0855,9.1172,58.2534,0.0093,-0.194,0.1547,201.2812
17:15:00:234,-1.3598,3.0005,9.45,57.1605,0.0346,-0.1855,0.1736,201.0781
17:15:00:255,-0.9181,2.985,9.3495,58.8519,-0.0027,-0.109,0.1853,200.9375
17:15:00:276,-0.5829,3.0065,9.2441,58.4819,-0.0722,-0.0848,0.1773,200.7969
17:15:00:295,-0.4572,3.0365,9.4081,58.0532,-0.0594,-0.182,0.1571,200.625
17:15:00:316,-0.4201,3.0377,9.5602,57.3203,0.032,-0.268,0.1291,200.4375
17:15:00:333,-0.4069,3.0161,9.3818,56.2608,0.1198,-0.2867,0.1105,200.2656
17:15:00:354,-0.2752,2.9718,8.97,57.8733,0.1489,-0.1852,0.0958,200.1562
17:15:00:377,-0.2848,2.9742,8.2817,58.3303,0.0855,-0.0507,0.0663,200.0781
17:15:00:394,-0.7301,3.0161,7.9165,57.6389,-0.0093,-0.0257,0.0734,200.0156
17:15:00:413,-0.9552,2.9886,7.8435,57.7196,-0.0573,-0.0656,0.1169,199.9375
17:15:00:433,-0.9552,3.1238,7.9357,57.2135,-0.0586,-0.1183,0.1405,199.875
17:15:00:453,-0.9396,3.3597,8.1847,56.9974,-0.0186,-0.1588,0.1158,199.7812
17:15:00:475,-1.1479,3.3597,8.1739,57.4149,0.0258,-0.1649,0.0686,199.6406
17:15:00:497,-1.5849,3.0963,7.9118,55.873,-0.0021,-0.1687,0.078,199.5312
17:15:00:513,-1.4316,3.1214,7.8543,58.1804,-0.0818,-0.2049,0.0985,199.4531
17:15:00:533,-1.1,3.4195,8.3164,58.7403,-0.1276,-0.2158,0.0679,199.4219
17:15:00:553,-1.3119,4.0145,8.7222,58.2373,-0.1132,-0.0941,0.0953,199.3594
17:15:00:575,-1.7034,4.3042,8.6157,58.6436,-0.1156,0.0276,0.1967,199.3125
17:15:00:594,-1.9344,4.2407,8.2242,58.2321,-0.2024,0.0404,0.3587,199.2812
17:15:00:614,-1.6016,3.9594,8.29,57.9923,-0.3273,-0.0496,0.4905,199.1406
17:15:00:633,-1.0976,3.9103,9.1615,57.134,-0.3912,-0.0408,0.5491,199
17:15:00:655,-0.7217,3.7427,10.1048,58.6319,-0.3973,0.1269,0.6173,198.6094
17:15:00:677,0.4514,3.4363,11.211,58.6213,-0.3816,0.4795,0.6849,197.7969
17:15:00:693,0.8836,2.7216,11.0362,60.0271,-0.3768,0.8103,0.6588,197.1719
17:15:00:713,0.3808,2.1279,10.7118,58.9258,-0.3838,0.8878,0.5613,196.4219
17:15:00:733,0.2276,1.8789,10.5801,58.8054,-0.3462,0.7126,0.5531,195.5469
17:15:00:753,0.4694,1.7388,10.7776,58.2993,-0.2471,0.438,0.5912,194.7188
17:15:00:775,0.8501,1.6538,10.6423,59.0009,-0.1041,0.3328,0.5762,194.0156
17:15:00:793,1.2092,1.582,9.96,59.583,-0.0131,0.3584,0.5233,193.2812
17:15:00:814,0.9698,1.5449,9.7757,58.3149,-0.0605,0.2548,0.4007,192.5625
17:15:00:833,1.038,1.2827,10.7872,58.515,-0.2144,-0.031,0.3379,191.9062
17:15:00:854,1.3481,1.0852,11.5258,58.196,-0.2778,-0.1729,0.3568,191.3125
17:15:00:874,1.281,1.3102,11.715,59.3793,-0.2434,-0.051,0.3896,190.8906
17:15:00:894,1.7347,1.7053,11.0541,58.8829,-0.1515,0.1781,0.445,190.5469
17:15:00:913,3.0886,2.7001,9.529,60.7809,-0.0527,0.2662,0.4362,190.1719
17:15:00:934,3.9793,3.6194,9.1292,58.1772,-0.0882,0.0074,0.1738,189.6875
17:15:00:954,3.1904,3.289,10.4185,60.292,-0.2216,-0.452,-0.3492,189.1406
17:15:00:982,1.876,2.1494,11.4827,58.2733,-0.2386,-0.6528,-0.7956,188.7344
17:15:00:995,0.9817,1.6466,10.9033,59.1626,-0.0895,-0.4566,-0.8773,188.8594
17:15:01:016,0.6825,1.8657,9.3662,60.5045,0.0698,-0.0049,-0.6688,189.6562
17:15:01:033,0.6705,2.3876,8.1524,59.2759,0.1372,0.2508,-0.4368,190.7188
17:15:01:055,0.9362,2.7563,7.4688,59.7701,0.1638,0.1906,-0.3125,191.6562
17:15:01:079,0.9219,2.8593,7.1313,59.8306,0.1862,0.0215,-0.317,192.25
17:15:01:099,0.7998,2.6773,7.2414,59.3799,0.1691,-0.1359,-0.3825,192.75
17:15:01:117,0.6202,2.5097,7.6292,58.8165,0.1561,-0.1514,-0.3785,193.5469
17:15:01:138,0.3245,2.4966,7.8064,58.9461,0.1654,-0.0326,-0.3157,194.0312
17:15:01:156,0.3856,2.6642,7.7202,59.3149,0.1103,0.0633,-0.2626,194.4531
17:15:01:176,0.5424,2.9359,7.8435,58.7881,0.0557,0.0617,-0.2462,194.8125
17:15:01:197,0.6382,3.0903,8.138,60.5776,0.0687,-0.0289,-0.2504,195.1094
17:15:01:217,0.5807,3.1502,8.326,58.5785,0.1073,-0.1266,-0.2523,195.3594
17:15:01:235,0.5472,3.155,8.5714,59.8112,0.0967,-0.0456,-0.2512,195.6406
17:15:01:256,0.3748,3.0233,8.788,58.1825,0.0005,0.1642,-0.252,195.9531
17:15:01:281,-0.2357,3.0329,8.9927,59.6723,-0.1427,0.4471,-0.1527,196.2188
17:15:01:299,-0.3004,3.0867,9.0933,58.0246,-0.2504,0.581,-0.0395,196.4844
17:15:01:315,-0.292,3.4662,9.0107,58.4937,-0.273,0.4545,0.0042,196.5938
17:15:01:334,-0.1208,3.8565,8.9844,58.4366,-0.2282,0.0891,-0.0539,196.5469
17:15:01:355,-0.2381,4.0241,9.4261,57.5546,-0.1904,-0.2518,-0.1884,196.4844
17:15:01:376,-0.608,3.7272,10.4544,58.1597,-0.1414,-0.3599,-0.2933,196.4844
17:15:01:400,-0.5709,3.0652,10.9237,59.6408,-0.1097,-0.3018,-0.3503,196.7969
17:15:01:412,-0.6044,2.967,11.0434,57.7329,-0.1736,-0.2861,-0.4429,196.7969
17:15:01:433,-0.632,2.8557,11.1224,59.0474,-0.3894,-0.3439,-0.5889,197.1719
17:15:01:454,-0.5937,2.4894,11.9328,58.2325,-0.6232,-0.4001,-0.7271,197.625
17:15:01:481,-0.6463,1.5341,13.5537,57.7421,-0.6256,-0.2861,-0.8107,198.1875
17:15:01:501,-1.3095,0.6339,14.4826,57.5565,-0.3268,-0.0235,-0.7327,199.7969
17:15:01:512,-1.9751,0.1143,13.4831,57.8529,0.0458,0.2454,-0.492,200.2969
17:15:01:532,-2.1642,0.2508,11.6156,59.3798,0.2922,0.2204,-0.2121,201.25
17:15:01:553,-1.8039,0.726,9.9672,56.6613,0.4093,-0.1586,-0.0246,201.9375
17:15:01:577,-1.282,1.0564,9.0155,56.6613,0.4014,-0.5551,0.0604,202.2812
17:15:01:593,-0.6212,1.3593,8.7569,57.8096,0.351,-0.778,0.0623,202.375
17:15:01:613,-0.0909,1.4754,8.897,58.2963,0.3515,-0.8057,-0.0272,202.375
17:15:01:632,-0.1328,1.1738,8.9544,57.7019,0.4714,-0.6006,-0.1135,202.375
17:15:01:653,-0.614,1.0253,8.047,56.3923,0.6357,-0.4813,-0.069,202.4531
17:15:01:675,-0.7816,1.0277,6.5028,56.9458,0.6725,-0.5301,0.0737,202.625
17:15:01:729,-0.8343,1.1367,5.745,59.1811,0.5659,-0.5668,0.2375,202.7344
17:15:01:729,-0.9516,1.3078,5.6564,57.9489,0.3798,-0.5202,0.4074,202.8281
17:15:01:732,-0.9899,1.4623,6.1125,58.7196,0.1832,-0.4153,0.5552,202.7812
17:15:01:754,-0.5218,1.3569,6.9241,56.5189,0.0826,-0.1642,0.6772,202.5625
17:15:01:775,-0.1819,1.4431,7.6771,56.6895,0.1145,0.1035,0.7858,202.1719
17:15:01:793,0.0384,1.9459,8.4301,56.6886,0.2415,0.2076,0.8961,201.5938
17:15:01:814,0.643,2.6546,8.4337,57.3817,0.3611,0.3296,0.9214,200.8438
17:15:01:832,1.0236,3.3405,7.7633,58.1996,0.3145,0.353,0.7991,199.9688
17:15:01:853,0.9602,3.7798,7.3611,56.9275,0.0578,0.2356,0.613,198.875
17:15:01:876,0.9063,3.7116,7.9106,55.8869,-0.3116,0.2984,0.4998,197.7188
17:15:01:892,1.056,3.4602,9.3303,57.1255,-0.6565,0.4188,0.4849,196.7031
17:15:01:913,1.293,3.5033,11.5892,56.0348,-0.8099,0.5086,0.5062,196
17:15:01:932,1.7515,3.4542,13.5836,56.4691,-0.6456,0.4265,0.5219,195.4062
17:15:01:954,2.5188,3.2687,14.2564,55.7919,-0.3105,0.3557,0.4748,194.5625
17:15:01:976,2.9606,2.9982,13.5657,55.2227,0.0056,0.4055,0.3193,193.9844
17:15:01:992,2.4614,2.9096,12.2812,56.6171,0.1158,0.3373,0.1139,193.3906
17:15:02:013,2.0962,2.5061,10.9045,55.0843,0.0032,0.0974,-0.015,192.875
17:15:02:032,2.0675,2.0896,10.6531,56.5863,-0.2466,-0.3801,-0.1287,192.5781
17:15:02:052,2.2231,1.6131,12.2824,54.7511,-0.392,-0.6284,-0.2467,192.4844
17:15:02:076,2.0651,0.4663,13.1754,55.5643,-0.2461,-0.4228,-0.3026,192.5938
17:15:02:093,2.1226,0.6806,11.0266,54.6149,0.0645,-0.0728,-0.2403,192.9219
17:15:02:113,2.5056,1.2731,8.897,55.6154,0.2812,-0.0004,-0.1841,193.3438
17:15:02:133,2.3728,1.716,7.9321,54.0412,0.2637,-0.2608,-0.2802,193.7188
17:15:02:152,1.7323,1.6634,8.1236,53.9499,0.0919,-0.5287,-0.476,193.9219
17:15:02:173,1.1481,1.4599,8.2314,54.5205,-0.078,-0.5192,-0.6014,194.1406
17:15:02:192,0.8596,1.588,7.8208,53.5709,-0.1598,-0.2923,-0.5956,194.6094
17:15:02:212,0.8417,1.9447,7.3659,53.2253,-0.192,-0.1048,-0.5157,195.3438
17:15:02:232,1.026,2.2835,7.4389,53.209,-0.1928,-0.0507,-0.4379,196.0781
17:15:02:252,1.3337,2.5732,7.2019,53.2187,-0.0993,-0.0217,-0.4057,196.7656
17:15:02:274,1.3624,2.8497,7.0917,53.3919,0.0383,0.0159,-0.4507,197.3438
17:15:02:292,1.202,2.955,7.1432,53.9306,0.1638,0.0201,-0.5266,197.8438
17:15:02:313,0.7806,2.9802,7.0247,52.5922,0.2919,0.0729,-0.595,198.2969
17:15:02:332,0.5544,3.1418,6.9194,53.1222,0.359,0.0798,-0.6158,198.8438
17:15:02:353,0.607,3.3309,7.2043,52.8903,0.3265,0.1078,-0.6131,199.4531
17:15:02:375,0.643,3.3262,7.8447,51.6955,0.2511,0.1171,-0.6552,200.0781
17:15:02:395,0.3533,3.155,8.7437,52.3272,0.1595,0.1967,-0.7391,200.7188
17:15:02:415,-0.2788,3.0125,9.6823,52.3139,0.1063,0.307,-0.7713,201.7656
17:15:02:432,-0.8857,2.6749,10.2964,53.0491,0.143,0.3301,-0.7503,202.5156
17:15:02:453,-1.2724,2.4523,10.531,50.7951,0.2139,0.2934,-0.6523,203.3281
17:15:02:475,-1.1192,2.572,10.8135,52.9794,0.2043,0.2231,-0.4829,204.125
17:15:02:492,-0.7768,2.4595,11.2289,51.2353,0.1265,0.1871,-0.3489,204.7812
17:15:02:514,-1.0641,2.1255,11.2589,51.5073,0.0583,0.2457,-0.3058,205.2656
17:15:02:532,-1.7058,1.8884,10.5801,50.2906,0.0237,0.3972,-0.2406,205.625
17:15:02:552,-2.1631,1.8717,10.221,51.3007,-0.1028,0.4457,-0.0768,205.9219
17:15:02:573,-1.8638,1.9256,10.2557,50.3415,-0.3164,0.3877,0.1422,206.1094
17:15:02:592,-1.112,1.9399,11.4432,49.286,-0.5481,0.1719,0.3091,206.125
17:15:02:615,-0.4763,1.6813,13.1718,50.1121,-0.6259,-0.1988,0.3738,205.9062
17:15:02:632,0.0121,1.4,13.4496,49.995,-0.3755,-0.3383,0.3922,205.5625
17:15:02:652,-0.3494,1.5353,11.4085,49.5694,0.0208,-0.0576,0.3669,205.1875
17:15:02:673,-0.4596,2.0357,8.9353,49.5392,0.2061,0.2449,0.3576,204.8125
17:15:02:695,0.1976,2.2703,8.1883,49.9102,0.0165,0.1421,0.3318,204.4219
17:15:02:713,0.4622,2.1063,8.9365,48.8607,-0.3009,-0.157,0.1829,203.9688
17:15:02:732,0.0887,1.6478,9.5207,48.2694,-0.4429,-0.2683,-0.0105,203.5625
17:15:02:754,0.1282,1.3294,8.958,47.8129,-0.3313,-0.0893,-0.0696,203.3906
17:15:02:775,0.7316,1.4647,7.6735,48.6121,-0.0083,0.1735,0.0013,203.4688
17:15:02:793,1.0667,2.1003,7.6173,50.9537,0.0639,0.0739,-0.0834,203.4688
17:15:02:814,0.7327,2.3002,8.314,47.1417,0.2762,0.0367,-0.2328,203.5938
17:15:02:832,0.0145,1.7879,8.6827,48.542,0.5625,0.2415,-0.2627,203.5625
17:15:02:852,-0.7122,1.2013,7.7489,47.8733,0.7622,0.544,-0.0648,203.6406
17:15:02:872,-1.0282,1.3198,6.2215,47.5855,0.739,0.5642,0.2412,203.8906
17:15:02:892,-0.8917,2.0034,5.6816,47.8754,0.5838,0.368,0.4716,204.1094
17:15:02:912,-0.3674,2.8509,6.0826,48.4434,0.4128,0.0462,0.4673,204.0625
17:15:02:931,-0.0334,3.0999,6.7961,48.1002,0.2477,-0.2859,0.3089,203.6562
17:15:02:952,0.0241,3.1298,7.8603,47.5255,0.0677,-0.4579,0.1523,203.0312
17:15:02:972,-0.0298,3.1095,9.3028,47.0954,-0.0879,-0.512,-0.0033,202.5
17:15:02:993,-0.1938,2.8198,10.8243,47.841,-0.1414,-0.4883,-0.1481,202.1875
17:15:03:014,-0.4237,2.1554,11.7233,47.9652,-0.1662,-0.4097,-0.2179,202.1094
17:15:03:032,-0.6356,1.4443,12.3015,47.3318,-0.1846,-0.222,-0.1676,202.2031
17:15:03:052,-0.6284,1.0624,12.1435,46.9296,-0.2218,0.0103,-0.0589,202.4844
17:15:03:072,-0.2645,1.2324,11.1499,47.0081,-0.3627,0.0633,0.0125,202.8125
17:15:03:092,0.5244,1.7005,10.5609,47.5331,-0.6506,-0.227,-0.097,203.0625
17:15:03:112,1.5899,1.5149,11.9436,48.464,-0.9103,-0.6867,-0.3921,203.125
17:15:03:132,1.2702,0.3717,14.7843,46.7559,-0.853,-0.6068,-0.55,203.125
17:15:03:153,0.291,-0.726,15.7839,47.191,-0.4384,0.0244,-0.3125,203.3281
17:15:03:174,-0.1436,-0.4782,12.948,47.9826,-0.0682,0.589,0.1888,203.9219
17:15:03:192,1.3361,0.9379,8.9377,46.8362,-0.1079,0.3858,0.3893,204.7031
17:15:03:221,3.1257,2.3553,6.7997,48.2746,-0.5057,-0.1719,0.0537,205.0938
17:15:03:231,2.9366,2.4343,7.7406,46.4953,-0.889,-0.3873,-0.3604,204.7812
17:15:03:252,1.3409,1.5676,9.9708,45.5622,-0.8764,-0.092,-0.4661,204.3125
17:15:03:272,0.0444,1.0193,10.616,47.3791,-0.5095,0.2825,-0.2675,204.5312
17:15:03:293,-0.1483,1.1929,9.5805,47.3754,-0.0679,0.4098,0.009,205.125
17:15:03:318,0.3976,1.801,8.0004,48.1948,0.2602,0.2476,0.1054,205.625
17:15:03:336,0.777,2.3457,6.5961,48.5572,0.4035,-0.0179,0.0487,205.7188
17:15:03:351,0.7268,2.5349,6.0802,47.3509,0.4184,-0.1927,-0.0363,205.5781
17:15:03:372,0.6717,2.4032,6.17,47.7829,0.3601,-0.15,-0.0933,205.4531
17:15:03:392,0.5496,2.402,6.5782,47.5916,0.2597,0.0225,-0.1292,205.4375
17:15:03:415,0.4131,2.4798,7.0858,48.7097,0.155,0.1472,-0.1721,205.5156
17:15:03:431,0.133,2.5708,8.15,47.4146,0.1451,0.1986,-0.2168,205.625
17:15:03:454,-0.8486,1.9531,9.9325,49.7059,0.286,0.2153,-0.2224,205.7812
17:15:03:475,-1.0797,2.1231,9.6727,48.8433,0.477,0.2545,-0.1101,205.9688
17:15:03:492,-1.0653,2.5301,9.1651,47.5135,0.6021,0.296,0.0505,206.1875
17:15:03:512,-0.9923,2.651,9.4141,49.0184,0.5558,0.1935,0.1192,206.3281
17:15:03:534,-0.9085,2.566,9.9732,49.69,0.4085,0.1371,0.1256,206.2812
17:15:03:551,-1.2054,2.2631,10.9392,49.3719,0.1859,0.1924,0.0822,206.1094
17:15:03:571,-1.7273,1.8094,11.199,51.0859,-0.0003,0.4111,0.0628,205.9219
17:15:03:598,-1.7489,1.7723,10.7142,49.7471,-0.1627,0.7054,0.1611,205.7656
17:15:03:616,-0.9899,2.2715,10.7597,50.0621,-0.4591,0.8231,0.3134,205.6406
17:15:03:632,-0.541,2.2655,12.2441,50.0621,-0.832,0.5948,0.2695,205.4531
17:15:03:651,-0.9037,1.1091,14.0337,49.7293,-0.9998,0.1464,0.0338,205.0469
17:15:03:672,-1.2928,0.0126,14.5042,53.0162,-0.8115,-0.1301,-0.0957,204.5625
17:15:03:696,-1.5729,-0.3621,12.6236,49.9982,-0.3593,-0.1104,-0.0158,204.3438
17:15:03:716,-1.13,0.0748,10.2653,50.2864,-0.0386,0.0135,0.237,204.5
17:15:03:768,0.3916,0.9942,8.8479,50.6101,-0.0527,0.0367,0.5067,204.5312
17:15:03:768,1.1026,1.7244,8.6264,50.759,-0.237,-0.0944,0.5187,204.2656
17:15:03:785,0.613,1.6239,9.3471,51.7124,-0.379,-0.321,0.3041,203.7031
17:15:03:797,-0.0621,1.2013,9.304,51.6961,-0.2738,-0.4523,0.1504,203.125
17:15:03:817,-0.511,0.9727,8.0291,51.5198,0.0293,-0.3977,0.177,202.8281
17:15:03:831,-0.3961,1.1498,6.5818,51.0226,0.2775,-0.3255,0.3113,202.7188
17:15:03:851,-0.2034,1.4455,5.6409,51.6692,0.3212,-0.3048,0.4079,202.5781
17:15:03:872,-0.5601,1.4659,5.8276,52.8537,0.1822,-0.3804,0.3757,202.2344
17:15:03:892,-0.7337,1.1965,6.9014,51.7916,0.025,-0.5306,0.3621,201.8125
17:15:03:915,-0.6798,0.9822,8.0387,51.2153,0.0397,-0.5847,0.4572,201.4219
17:15:03:931,-0.3758,1.1989,8.3475,51.416,0.2051,-0.4792,0.6207,201.0781
17:15:03:952,0.2539,1.5353,8.0841,53.4222,0.3539,-0.2622,0.7669,200.875
17:15:03:971,0.6897,2.0034,8.2541,53.055,0.3731,-0.1564,0.7741,200.3594
17:15:03:996,0.7088,2.3661,8.8371,52.407,0.3241,-0.1993,0.6497,199.5781
17:15:04:012,0.6035,2.2883,9.6954,51.35,0.2866,-0.2915,0.4657,199.5781
17:15:04:032,0.7687,2.062,10.2389,52.1436,0.2708,-0.3517,0.3035,197.8281
17:15:04:051,0.8237,1.9267,10.8889,52.5909,0.1939,-0.3248,0.1848,197.2344
17:15:04:072,0.8094,1.4922,12.0058,51.9376,0.021,-0.2539,0.0463,196.8281
17:15:04:096,0.4933,0.744,12.9887,51.9365,-0.1358,-0.1149,-0.0816,196.4844
17:15:04:113,0.3245,0.1311,13.1551,53.9357,-0.0202,0.3424,0.0854,196.6094
17:15:04:132,0.467,0.1407,11.9065,51.9376,-0.02,0.5807,0.2892,196.7031
17:15:04:152,0.953,0.7201,10.3335,53.7185,-0.29,0.5546,0.3472,196.5625
17:15:04:172,1.8125,1.2803,10.4843,51.8376,-0.5965,0.1251,0.1387,196.1562
17:15:04:192,2.0651,0.9332,12.7373,53.559,-0.5747,-0.2417,-0.1346,196.1562
17:15:04:211,1.8173,-0.2388,14.2097,50.8621,-0.2037,-0.1303,-0.186,195.7031
17:15:04:231,1.2247,-0.3585,12.7864,52.025,0.1286,0.2452,-0.0033,195.5781
17:15:04:252,1.7287,0.7632,9.7649,53.8485,0.1039,0.1235,0.0399,195.8125
17:15:04:272,2.787,1.8777,8.5271,51.3655,-0.1686,-0.2752,-0.2342,196.0625
17:15:04:291,3.1928,1.8705,8.9125,51.8748,-0.4253,-0.3192,-0.5972,196.0156
17:15:04:314,2.1764,1.2899,8.9544,51.5907,-0.5997,0.0553,-0.7924,195.9531
17:15:04:331,0.801,1.0014,8.7725,51.1649,-0.6219,0.5243,-0.7575,196.2812
17:15:04:351,-0.0262,1.0361,8.3128,51.4277,-0.4503,0.7645,-0.6022,197.0312
17:15:04:371,-0.2692,1.3497,7.3802,50.7821,-0.22,0.6111,-0.4491,197.9375
17:15:04:395,-0.2956,1.6466,6.984,51.6758,0.0309,0.2907,-0.33,198.7969
17:15:04:411,-0.0849,1.7807,6.674,52.4607,0.2639,-0.0094,-0.2467,199.4375
17:15:04:431,0.0324,2.0608,6.4693,50.6524,0.3965,-0.1961,-0.2054,199.8906
17:15:04:451,0.1689,2.1877,6.4178,51.9369,0.3784,-0.243,-0.1987,200.2344
17:15:04:472,0.2048,2.3421,6.8368,51.8145,0.233,-0.2457,-0.203,200.5
17:15:04:492,0.285,2.3565,8.0387,51.6729,0.1393,-0.1785,-0.1913,200.7344
17:15:04:511,0.3401,2.1698,9.1436,51.0347,0.192,-0.0105,-0.1732,200.9531
17:15:04:532,0.461,1.7975,9.608,50.2877,0.2831,0.2106,-0.1348,201.2031
17:15:04:551,-0.2393,1.971,9.5446,49.4293,0.3183,0.4889,-0.0456,201.6094
17:15:04:571,-0.4656,2.3553,9.1639,51.1268,0.2937,0.5898,0.09,201.6719
17:15:04:593,-0.5362,2.6869,9.1615,50.7903,0.285,0.5967,0.1461,201.7344
17:15:04:611,-1.0462,2.8449,8.946,49.7655,0.2112,0.4489,0.2346,201.6094
17:15:04:632,-1.4687,2.9131,9.7757,50.3507,0.1515,0.1376,0.3664,201.25
17:15:04:651,-1.3622,2.7228,11.436,51.4739,0.2562,-0.0938,0.4902,201.0938
17:15:04:672,-0.9396,2.3182,12.5936,48.5358,0.4128,0.0476,0.5579,200.7031
17:15:04:691,-0.93,2.4846,11.9639,50.5982,0.3089,0.4191,0.5794,200.2344
17:15:04:711,-0.6487,2.3637,10.9404,48.4652,-0.0855,0.5789,0.4814,199.625
17:15:04:731,-1.027,1.7053,11.1715,49.862,-0.4317,0.5256,0.4127,198.9062
17:15:04:751,-1.4711,1.0002,12.6822,48.4396,-0.3989,0.2329,0.438,198.2031
17:15:04:772,-1.6543,0.5082,14.2301,47.5331,0.0791,0.0233,0.4623,197.6719
17:15:04:791,-1.6555,0.3478,13.7524,46.9637,0.5907,-0.1114,0.4945,197.1406
17:15:04:814,-1.0617,0.7153,11.5773,47.6803,0.7364,-0.2446,0.4404,196.6094
17:15:04:831,-0.2776,1.4802,9.2657,46.2898,0.3766,-0.5575,0.2428,196.0938
17:15:04:851,0.0456,2.3266,9.2549,45.6444,-0.1196,-1.0004,-0.0435,195.5312
17:15:04:872,0.4383,2.4978,10.3167,46.4903,-0.3145,-1.2536,-0.3724,195.1562
17:15:04:896,1.0069,1.7376,10.0653,47.7511,-0.3257,-1.5583,-0.5929,195.1562
17:15:04:911,1.7431,1.3773,9.8606,45.6433,-0.2533,-1.679,-0.6448,195.5625
17:15:04:931,1.7575,1.4407,9.1615,45.3844,-0.138,-1.3929,-0.6824,196.3906
17:15:04:951,1.4259,1.2396,7.6257,44.2914,-0.089,-0.6696,-0.7029,197.375
17:15:04:971,0.3293,0.8314,6.2274,45.6616,-0.2096,0.2039,-0.6275,198.3438
17:15:04:992,-0.7193,0.6506,5.3045,44.2317,-0.453,0.8681,-0.4169,199.3125
17:15:05:010,-1.2712,1.0289,4.8161,46.3563,-0.6535,0.9893,-0.0341,200.4688
17:15:05:030,-1.0653,1.7603,6.1592,44.8317,-0.8003,0.198,0.4484,200.8438
17:15:05:051,0.8848,1.8693,7.6508,44.5829,-0.6456,-0.2827,0.9531,200.7969
17:15:05:071,1.87,2.3709,8.9257,43.2671,-0.2559,-0.4294,1.0513,200.3281
17:15:05:092,2.0867,2.6785,9.3519,43.2603,0.187,-0.1306,0.7206,199.3906
17:15:05:111,1.554,2.4247,9.3782,42.9977,0.5332,0.1389,0.1664,198.2656
17:15:05:130,0.6717,1.9938,9.7038,42.4298,0.7164,0.0122,-0.3279,197.7969
17:15:05:151,-0.0585,1.8429,10.6352,43.4405,0.8261,-0.3285,-0.5375,197.2188
17:15:05:172,0.0193,1.7137,11.8155,42.6935,0.9553,-0.7114,-0.5183,197.25
17:15:05:192,0.5783,1.4311,12.5302,41.4831,1.0618,-0.9088,-0.4826,197.7344
17:15:05:211,0.9458,1.1845,11.9855,42.3279,1.0471,-0.614,-0.4765,198.3281
17:15:05:231,0.874,1.5006,10.9297,42.7985,0.8852,-0.0853,-0.3689,198.875
17:15:05:251,1.2271,2.0069,10.0426,42.5838,0.6008,0.1717,-0.1455,199.4375
17:15:05:272,2.793,1.9351,10.8925,42.6036,0.1593,-0.0113,0.0045,199.875
17:15:05:292,3.2945,1.327,12.6774,41.096,-0.241,-0.3061,-0.1793,200.0625
17:15:05:311,2.0699,0.6375,13.3538,42.7326,-0.3646,-0.4542,-0.4571,200.0312
17:15:05:331,1.5659,0.3442,12.2524,41.1395,-0.2256,-0.4241,-0.484,200.1406
17:15:05:351,1.6713,0.9774,11.29,41.5974,-0.0008,-0.3575,-0.3005,200.6406
17:15:05:371,2.1357,1.7268,10.4628,41.6417,0.2397,-0.0155,-0.0826,201.3125
17:15:05:392,2.5033,2.1015,8.654,40.5658,0.4014,0.3086,0.0159,201.875
17:15:05:410,2.3955,2.3888,6.7913,41.738,0.3755,0.2114,-0.0427,202.1094
17:15:05:430,2.0615,2.4978,5.9976,40.4266,0.1635,0.0052,-0.1971,201.9844
17:15:05:450,1.5252,2.2883,5.9353,40.3329,-0.0554,0.0383,-0.3434,201.9375
17:15:05:470,0.7734,1.9998,6.4561,40.93,-0.2112,0.0454,-0.4541,202.1406
17:15:05:490,0.7076,1.9686,7.2522,41.1728,-0.2314,-0.0097,-0.443,202.5312
17:15:05:512,0.9889,2.1566,7.148,40.9158,-0.0378,0.054,-0.358,203.0469
17:15:05:532,1.2846,2.73,6.6357,40.201,0.2274,0.2761,-0.3125,203.9844
17:15:05:551,1.0153,3.2555,6.2993,40.3656,0.5838,0.801,-0.3431,204.25
17:15:05:572,0.3545,3.6889,5.9162,40.1165,0.5694,0.5376,-0.3077,204.25
17:15:05:591,0.0863,4.0145,6.2837,41.1918,0.4482,0.1229,-0.2664,204.4375
17:15:05:611,0.5472,4.0408,7.6987,39.9915,0.3145,0.1674,-0.2699,204.5938
17:15:05:630,0.8309,4.3664,8.8587,42.6697,0.2341,0.5695,-0.264,204.7656
17:15:05:650,0.5029,4.5771,9.3519,40.5234,0.1798,0.8955,-0.2049,205
17:15:05:671,0.2479,4.37,9.9349,40.0059,0.1542,0.883,-0.1327,205.2344
17:15:05:691,-0.2668,4.3209,10.6591,40.0059,0.1678,0.6819,-0.1013,205.3906
17:15:05:710,-0.6284,4.394,11.3259,41.1317,0.1792,0.4734,-0.072,205.3906
17:15:05:730,-0.4943,4.0253,11.8658,42.2219,0.1574,0.5336,-0.0166,205.3281
17:15:05:750,-0.3734,3.5141,12.2836,39.7356,0.0807,0.7869,0.0641,205.2656
17:15:05:806,-0.8965,3.4638,12.1962,41.5268,-0.0266,0.9211,0.1384,205.2188
17:15:05:806,-1.8243,3.3824,12.1399,41.6713,-0.0775,0.6036,0.2503,205.0938
17:15:05:810,-2.4324,2.9144,12.6271,41.1923,0.0583,0.2657,0.3829,204.8281
17:15:05:830,-2.3941,2.2356,12.8259,39.2698,0.3542,0.3368,0.5248,204.4531
17:15:05:850,-1.9045,1.9818,11.345,41.198,0.5518,0.6287,0.6633,203.5156
17:15:05:871,-1.4699,2.5432,9.0035,40.4614,0.4615,0.6305,0.723,203.2031
17:15:05:891,-1.1587,3.3525,7.8495,40.2742,0.2344,0.43,0.6886,202.4219
17:15:05:914,-0.7062,3.6482,7.7059,41.8041,0.0527,0.1919,0.5661,201.4375
17:15:05:930,-0.7565,3.3681,8.3212,40.0402,0.0826,0.0119,0.4545,200.4688
17:15:05:950,-1.015,2.8234,7.7908,39.7553,0.1984,-0.1093,0.4402,199.6719
17:15:05:972,-0.8941,2.5648,7.0534,39.465,0.212,-0.0779,0.5312,199.0938
17:15:05:991,-0.5948,2.5492,6.7649,39.541,0.1579,0.0872,0.6135,198.6094
17:15:06:010,-0.4069,3.0712,6.3364,40.6619,0.0908,0.3293,0.6106,198.0938
17:15:06:030,-0.1926,3.4147,5.5295,41.6092,-0.0091,0.5024,0.5174,197.4688
17:15:06:050,-0.5793,3.4662,4.8496,42.0908,-0.1257,0.4457,0.4423,196.6875
17:15:06:072,-0.8391,3.3333,5.1357,40.8613,-0.1561,0.1949,0.4449,195.9219
17:15:06:091,-0.6272,3.4602,5.7235,39.8007,-0.0772,-0.0938,0.474,195.2812
17:15:06:111,-0.347,3.9738,6.0981,39.693,-0.0075,-0.4664,0.4468,194.6875
17:15:06:132,-0.4057,4.388,7.0929,40.0113,0.0088,-0.6395,0.3499,194.1406
17:15:06:150,-0.2752,4.7112,7.7298,39.9287,-0.1001,-0.4699,0.2559,193.6875
17:15:06:170,-0.1603,4.8764,8.3451,39.5114,-0.3292,-0.357,0.1315,193.4062
17:15:06:193,0.0947,5.2379,9.5219,41.2133,-0.527,-0.3705,-0.0504,193.2031
17:15:06:210,0.2228,5.2056,10.8303,40.3411,-0.6517,-0.5559,-0.2866,193.1094
17:15:06:230,-0.0166,4.3281,12.3757,40.4796,-0.6983,-0.5911,-0.4249,193.0938
17:15:06:250,-0.371,3.289,13.1958,40.7146,-0.657,-0.3666,-0.3327,193.2812
17:15:06:271,-0.1783,2.8078,13.2389,41.7495,-0.5526,-0.0507,-0.1354,193.7812
17:15:06:290,0.3533,3.1825,12.019,39.0548,-0.555,0.1211,-0.0539,194.1094
17:15:06:310,2.1956,2.73,11.6874,39.9271,-0.742,-0.1695,-0.2193,195.0625
17:15:06:330,1.4965,1.9375,13.8195,41.9317,-1.0219,-0.5695,-0.607,195.1719
17:15:06:350,1.038,1.1702,15.0177,39.9603,-0.9667,-0.8739,-0.8054,195.3125
17:15:06:370,0.9746,0.9104,12.8163,40.2678,-0.4234,-0.5274,-0.7269,195.8906
17:15:06:390,0.9853,1.4311,8.9915,42.6905,0.0905,0.0154,-0.5002,196.9688
17:15:06:410,1.3385,2.0991,6.5243,40.4703,0.1454,-0.067,-0.3071,198.0781
17:15:06:430,1.5336,2.335,6.4094,41.0933,-0.2232,-0.5908,-0.3266,198.8125
17:15:06:450,1.6844,2.2835,6.8727,40.7791,-0.6024,-0.8209,-0.452,199.2188
17:15:06:470,1.7874,2.3062,7.7358,39.9946,-0.8506,-0.7676,-0.5729,199.625
17:15:06:491,1.6006,2.0883,8.4947,40.9689,-0.8743,-0.5154,-0.7026,200.2344
17:15:06:511,0.7148,1.6502,8.0602,40.8379,-0.6272,-0.1176,-0.8166,201
17:15:06:530,-0.2058,1.6322,6.8822,41.5786,-0.2852,0.1938,-0.7854,201.9375
17:15:06:549,-0.5314,1.9028,5.6983,40.9037,-0.0362,0.2465,-0.5892,202.9375
17:15:06:570,0.4035,2.8976,5.4828,40.4618,-0.0482,0.1128,-0.3876,203.875
17:15:06:589,1.0919,3.0903,6.7254,40.923,-0.3252,0.1624,-0.3884,204.6406
17:15:06:610,1.36,2.7803,7.476,41.4052,-0.5619,0.5946,-0.5756,205.1562
17:15:06:629,0.534,2.9108,8.2529,40.6569,-0.6836,0.8809,-0.7498,205.5625
17:15:06:650,-0.6954,2.7048,9.1974,41.5706,-0.7191,0.6705,-0.8121,206.0469
17:15:06:673,-1.8494,2.2536,10.4532,41.5189,-0.5968,0.1466,-0.7487,206.75
17:15:06:692,-2.5473,1.8106,12.2345,39.3957,-0.3286,-0.3048,-0.5202,207.5781
17:15:06:710,-1.9919,1.9986,13.2796,40.5666,0.0309,-0.2925,-0.1471,208.4062
17:15:06:731,-0.9049,2.1087,13.4831,41.266,0.3928,-0.1913,0.177,209.4844
17:15:06:750,-0.4727,2.0417,13.3801,41.422,0.6248,-0.2121,0.3105,209.6875
17:15:06:772,-0.1364,0.9128,13.5214,41.9767,0.7609,-0.451,0.4029,209.5
17:15:06:792,0.6418,0.0473,12.1315,42.3841,0.812,-0.701,0.4708,209.1406
17:15:06:810,0.6693,0.4627,11.1535,40.8039,0.6503,-0.6816,0.384,208.7031
17:15:06:830,-0.1064,0.8158,11.7185,42.6539,0.3313,-0.2598,0.2915,208.2344
17:15:06:850,-0.9348,0.2604,11.7724,42.3642,0.065,0.1437,0.291,207.875
17:15:06:870,-1.0378,-0.0341,11.017,41.7043,-0.0527,0.1975,0.4236,207.5469
17:15:06:891,-0.6595,0.2867,9.7673,41.4163,-0.0432,0.0071,0.5675,207.1875
17:15:06:911,0.0348,0.8769,8.9293,42.7527,-0.0272,-0.047,0.6061,206.7031
17:15:06:931,0.7926,1.1833,8.6204,43.2866,-0.02,-0.0326,0.5246,206.0469
17:15:06:949,1.2032,1.3809,8.3942,44.1688,-0.004,-0.1421,0.3512,205.375
17:15:06:971,0.5639,1.2959,7.8555,42.9195,0.0527,-0.3953,0.1475,204.8125
17:15:06:992,-0.0753,1.0696,7.4078,42.6792,0.1361,-0.6385,0.0423,204.4219
17:15:07:010,-0.3051,1.1091,7.6221,45.5209,0.3816,-0.2656,0.3073,204.3281
17:15:07:030,0.309,1.582,8.7725,44.9812,0.6192,0.1935,0.3874,204.3594
17:15:07:050,1.3385,2.0261,9.4093,43.5934,0.9345,0.3669,0.2977,204.3125
17:15:07:071,2.0172,1.673,8.2326,44.8484,1.1401,0.3775,0.0995,203.9531
17:15:07:091,1.2128,1.3258,6.4752,44.2219,1.0991,0.4524,-0.0272,202.9219
17:15:07:110,-0.383,1.8908,5.2566,45.1859,0.8607,0.4782,0.0593,202.75
17:15:07:130,-1.1335,2.4475,4.7873,44.9504,0.5089,0.2683,0.2897,202.5156
17:15:07:149,-0.5937,2.9826,5.3787,45.1324,0.0956,0.0771,0.536,202.3281
17:15:07:169,0.6537,3.4064,6.7266,46.1383,-0.2546,0.2071,0.5941,202
17:15:07:191,1.1841,3.8074,7.877,46.785,-0.5121,0.275,0.4721,201.75
17:15:07:213,0.8105,3.9079,9.0538,47.2237,-0.6783,0.2763,0.3451,201.125
17:15:07:229,0.7579,3.4926,10.355,47.8919,-0.7004,0.3403,0.2306,200.4531
17:15:07:249,0.6094,2.9048,11.4899,47.9884,-0.5744,0.2939,0.1738,199.8906
17:15:07:270,0.7639,2.4235,12.6882,47.7598,-0.3105,0.2372,0.1179,199.5156
17:15:07:291,0.9063,1.7687,13.1622,48.3427,-0.0575,0.263,0.0844,199.2344
17:15:07:312,0.4909,1.2648,12.4176,48.0403,0.0051,0.402,0.1485,199.0469
17:15:07:330,0.625,1.6095,10.8818,50.097,-0.2146,0.2779,0.1973,198.8906
17:15:07:350,1.4666,2.0058,10.8399,47.8432,-0.5987,-0.1413,0.005,198.75
17:15:07:370,1.882,1.4754,12.9922,50.0485,-0.7622,-0.2611,-0.2486,198.5312
17:15:07:391,1.6054,0.5764,14.169,50.0835,-0.5888,0.0907,-0.2816,198.2656
17:15:07:410,1.3038,0.6267,12.7863,49.3223,-0.3257,0.3696,-0.1415,198.3281
17:15:07:431,2.0508,1.2552,10.4197,49.0549,-0.1958,0.2524,-0.1042,198.7188
17:15:07:451,2.8971,1.8848,8.5893,49.9487,-0.3119,-0.1682,-0.3141,199.0469
17:15:07:470,2.3572,2.0369,8.5702,51.6094,-0.5215,-0.5208,-0.5806,199.1875
17:15:07:493,1.0021,1.4216,9.8714,49.785,-0.5494,-0.4435,-0.6379,199.2656
17:15:07:510,0.212,0.7691,10.0294,51.5785,-0.3489,-0.0241,-0.4469,199.6562
17:15:07:529,0.0803,1.1402,8.7078,50.5093,-0.1212,0.1978,-0.2219,200.875
17:15:07:549,0.8788,1.8166,7.9165,51.0348,0.0253,0.1506,-0.1617,201.5938
17:15:07:569,1.4534,2.4044,7.652,51.464,0.0479,0.2119,-0.3322,201.9375
17:15:07:592,0.6094,2.3709,7.3228,51.5331,-0.0314,0.3818,-0.4576,202.0938
17:15:07:609,-0.268,1.9028,7.5131,52.529,-0.0434,0.5826,-0.3585,202.3438
17:15:07:629,-0.4308,2.086,7.3898,51.5191,0.0224,0.5861,-0.2264,202.75
17:15:07:649,-0.2908,2.5349,7.3467,51.4842,0.1143,0.2846,-0.1881,203.1719
17:15:07:669,0.0348,2.7767,8.126,52.6848,0.2048,-0.0555,-0.2094,203.4062
17:15:07:690,0.1964,2.821,9.3615,54.7636,0.3417,-0.2222,-0.2664,203.5625
17:15:07:714,-0.4955,2.2751,11.1116,55.5587,0.4943,-0.2635,-0.3181,203.7656
17:15:07:730,-0.9791,2.147,10.8291,54.3715,0.6413,-0.06,-0.2722,204.0312
17:15:07:749,-0.8714,2.3517,10.4712,54.3715,0.7127,0.1568,-0.1204,204.3906
17:15:07:769,-0.4859,2.7611,10.2688,55.1518,0.7345,0.2058,0.0255,204.7344
17:15:07:791,0.0348,3.2807,9.5207,54.5578,0.7135,0.1363,0.079,204.9219
17:15:07:845,-0.1735,3.2819,10.2497,54.2853,0.5649,-0.1229,0.0215,204.9062
17:15:07:847,-0.5565,2.4738,12.9539,56.2038,0.4802,-0.5905,-0.0552,204.7656
17:15:07:849,-0.7972,2.2955,13.0856,56.0186,0.7755,-0.8196,-0.0168,204.6562
17:15:07:869,-0.8367,2.7863,10.8626,57.4918,1.0421,-0.3924,0.1185,204.7344
17:15:07:893,-0.9767,3.076,8.9975,56.0227,0.8498,0.1762,0.1834,204.9219
17:15:07:909,-1.2604,2.876,9.5446,57.3351,0.3087,0.406,0.2015,204.9375
17:15:07:930,-0.9815,2.5576,11.9196,57.188,-0.1276,0.3325,0.3086,204.7031
17:15:07:949,-0.6523,2.499,11.8861,55.8008,-0.0402,0.3413,0.4127,204.375
17:15:07:970,-0.3303,2.6342,9.4165,55.4148,0.2754,0.4263,0.4252,204.0312
17:15:07:992,-0.1028,2.9527,7.3072,56.7659,0.3254,0.4502,0.3968,203.5312
17:15:08:010,0.2419,3.1729,6.7697,55.4294,0.0629,0.3078,0.307,202.9531
17:15:08:029,0.947,3.1214,7.6783,54.8951,-0.3305,0.0984,0.1464,202.0938
17:15:08:050,1.6054,2.9946,8.4277,56.7541,-0.6834,0.1642,-0.068,201.6719
17:15:08:070,1.2331,2.9323,8.2996,57.1462,-0.9404,0.6111,-0.3633,201.5
17:15:08:091,-0.4261,2.5157,7.8316,57.7187,-1.0836,1.0718,-0.6786,201.5625
17:15:08:114,-1.446,1.6598,7.6628,55.2661,-1.0709,1.1461,-0.8017,201.875
17:15:08:129,-1.7644,1.4802,7.4006,57.7446,-0.8701,1.0023,-0.6075,202.4688
17:15:08:149,-1.6591,1.722,6.9912,58.5051,-0.5417,0.6793,-0.28,203.1719
17:15:08:169,-1.5872,2.1554,7.1684,58.2315,-0.241,0.3269,0.0085,203.6562
17:15:08:191,-1.4292,2.0177,7.834,58.995,-0.0381,0.0758,0.172,203.8594
17:15:08:209,-1.5573,2.0453,7.9477,58.4062,0.1212,0.1376,0.2865,203.7812
17:15:08:229,-1.4244,2.2464,7.8124,59.0367,0.2293,0.2249,0.3986,203.5938
17:15:08:254,-1.0976,2.7348,7.7645,59.0989,0.3001,0.1171,0.4511,203.2344
17:15:08:269,-1.2197,2.9072,8.6575,58.7693,0.3113,-0.1823,0.3717,202.75
17:15:08:290,-1.5262,2.6582,9.6847,58.4819,0.3124,-0.3287,0.2393,202.2188
17:15:08:312,-2.1104,2.2009,10.3371,58.1423,0.3268,-0.1841,0.1584,201.8438
17:15:08:333,-2.7005,2.0584,10.1479,57.4962,0.3555,0.0577,0.1845,201.6406
17:15:08:349,-2.2265,2.1291,9.857,59.8124,0.3249,0.1341,0.3147,201.5
17:15:08:369,-1.3335,1.922,10.7824,58.3294,0.2051,-0.0773,0.4047,201.2969
17:15:08:392,-0.6667,1.4934,12.0382,57.2798,0.1209,-0.3703,0.4026,200.9062
17:15:08:410,-0.2118,1.4084,11.8335,59.3941,0.0874,-0.1527,0.3778,200.4531
17:15:08:429,0.2575,1.8453,10.4807,56.4953,-0.1571,0.0026,0.2338,200.4531
17:15:08:448,0.291,2.2966,9.6787,59.3598,-0.587,-0.096,-0.0184,199.7188
17:15:08:469,0.2755,1.8298,11.2888,59.9511,-0.8634,-0.2379,-0.2416,199.3125
17:15:08:489,-0.4512,0.8577,13.2113,58.5953,-0.7555,-0.0728,-0.244,199.0469
17:15:08:508,-0.8474,0.3286,13.4627,57.9979,-0.3726,0.189,0.0071,199.0938
17:15:08:528,-0.1136,1.1151,10.9596,59.5615,-0.1041,0.1472,0.1866,199.4375
17:15:08:548,1.0212,2.1686,8.7844,59.2153,-0.1217,-0.223,0.0796,199.7344
17:15:08:569,1.372,2.4714,8.6348,57.337,-0.2216,-0.4118,-0.1505,199.7031
17:15:08:589,0.7387,2.1518,9.0885,58.216,-0.2338,-0.2281,-0.2917,199.4688
17:15:08:609,0.0276,1.965,8.6145,57.8825,-0.2037,0.0646,-0.2949,199.4062
17:15:08:629,-0.3327,2.0393,7.6041,58.9504,-0.1715,0.1842,-0.2355,199.6406
17:15:08:649,-0.3638,2.3457,7.0977,58.7081,-0.1132,0.0992,-0.1854,200.0156
17:15:08:669,-0.3698,2.5061,7.057,57.5184,0.0029,0.0303,-0.1354,200.3438
17:15:08:689,-0.268,2.7216,7.227,58.9504,0.1262,0.0127,-0.0957,200.5938
17:15:08:709,0.0157,2.8928,7.4664,59.3398,0.2581,0.1011,-0.1159,200.7812
17:15:08:730,-0.1986,3.1945,7.2581,59.5579,0.3185,0.0926,-0.1774,200.9219
17:15:08:749,-0.9444,3.2029,7.6089,58.0726,0.3414,0.0063,-0.1532,201.0312
17:15:08:769,-1.4843,3.07,8.6204,59.1189,0.4613,-0.1239,0.0223,201.1406
17:15:08:789,-1.1096,3.3309,9.723,59.5062,0.7177,-0.2944,0.1613,201.3125
17:15:08:808,-0.6248,3.7104,10.0546,58.7329,0.9848,-0.3796,0.1669,201.5
17:15:08:829,-0.5063,3.8696,9.3483,58.0571,1.028,-0.3165,0.1139,201.4844
17:15:08:849,-0.8953,3.787,8.6384,58.6199,0.8131,-0.1586,0.1158,201.3594
17:15:08:868,-1.3299,3.6482,8.964,57.5618,0.4956,-0.0086,0.1824,201.1875
17:15:08:889,-1.3813,3.3333,10.3431,58.5395,0.2988,0.1733,0.258,201.0938
17:15:08:914,-1.446,3.1574,11.5737,57.0585,0.2991,0.3674,0.3254,200.9375
17:15:08:929,-1.3502,3.3513,11.5976,58.2607,0.3633,0.6321,0.3485,200.6562
17:15:08:948,-1.6411,3.7535,10.3311,58.1896,0.2519,0.8545,0.3603,200.25
17:15:08:969,-1.9165,4.1222,9.2549,56.5667,-0.0559,0.8862,0.3616,199.7656
17:15:08:990,-2.3642,4.23,9.3938,58.1739,-0.3832,0.6865,0.3936,199.1719
17:15:09:014,-2.4204,3.7392,11.0709,57.2586,-0.4304,0.34,0.4484,198.5469
17:15:09:029,-2.096,2.9563,12.6331,58.1733,-0.1387,0.0822,0.4657,197.9688
17:15:09:048,-1.9188,2.3685,12.2057,57.9166,0.2072,-0.0099,0.4961,197.3438
17:15:09:070,-1.3538,2.5121,10.0019,56.6957,0.2317,-0.0393,0.4764,196.7812
17:15:09:093,-0.7086,2.9862,8.2146,56.98,-0.0338,-0.1101,0.3094,196.2344
17:15:09:111,-0.4799,3.0041,7.8471,56.5051,-0.2924,-0.1375,0.1355,195.6875
17:15:09:130,0.2228,2.3876,7.5514,56.6089,-0.429,-0.0419,-0.0259,195.25
17:15:09:149,-0.3231,1.9938,7.1995,55.9921,-0.4892,0.1695,-0.1458,195.0312
17:15:09:168,-0.9504,1.916,7.051,56.9209,-0.4733,0.3533,-0.1335,194.9844
17:15:09:189,-1.276,1.7244,7.5466,55.392,-0.3851,0.3237,-0.0262,195.0781
17:15:09:209,-1.1467,1.7184,7.9585,54.8807,-0.1824,0.1839,0.1651,195.2031
17:15:09:228,-0.8726,2.0536,7.2761,54.7084,0.1348,0.0641,0.3739,195.2344
17:15:09:248,-0.371,2.5887,6.0946,55.5444,0.4008,-0.0528,0.5097,195.1094
17:15:09:268,0.0384,3.046,5.253,56.5288,0.4341,-0.1599,0.5251,194.7656
17:15:09:288,-0.3219,3.1119,5.927,53.9385,0.2381,-0.2909,0.4407,194.25
17:15:09:313,-0.5721,3.0688,7.3659,55.8631,0.032,-0.3823,0.3885,193.6875
17:15:09:332,-0.286,3.2902,9.3435,54.244,-0.0461,-0.5077,0.3989,192.9844
17:15:09:349,-0.2225,3.4997,10.3491,53.9811,0.0562,-0.4702,0.3382,192.6094
17:15:09:369,-0.6451,3.5572,10.2796,53.8073,0.2032,-0.2808,0.2074,192.2969
17:15:09:393,-0.8834,3.4926,10.3096,52.0443,0.2501,-0.1812,0.0985,192
17:15:09:410,-0.9624,3.386,11.0266,53.7254,0.1798,-0.2773,0.0196,191.8281
17:15:09:432,-0.8235,2.9778,11.6994,51.7,0.0607,-0.2872,-0.0525,191.75
17:15:09:448,-0.6954,2.6318,11.1475,54.1541,-0.0615,-0.068,-0.1133,191.7812
17:15:09:470,-0.7409,2.985,9.5973,52.6381,-0.2386,0.2622,-0.1093,191.9062
17:15:09:489,-0.7313,3.4327,9.6488,52.6062,-0.5694,0.2417,-0.1093,192.0469
17:15:09:511,-0.0729,2.6642,13.1024,51.6484,-0.931,-0.411,-0.1921,192.125
17:15:09:535,0.0001,1.2133,16.1622,52.3865,-0.9324,-0.8736,-0.3151,192.5469
17:15:09:560,0.1162,0.7715,15.1003,52.3226,-0.013,0.1693,-0.0139,193.0938
17:15:09:573,0.8896,1.7915,10.5322,52.3588,0.0501,0.405,0.0916,193.5156
17:15:09:594,1.9634,3.0137,7.2558,53.6425,-0.2935,0.0657,-0.1484,193.5625
17:15:09:615,1.87,3.0125,7.2378,53.0819,-0.6575,-0.3066,-0.4472,193.3906
17:15:09:632,1.0153,2.1542,9.0263,52.3126,-0.6924,-0.3397,-0.5457,193.3438
17:15:09:650,0.0624,1.5999,9.6847,52.249,-0.4581,-0.1764,-0.4579,193.75
17:15:09:673,-0.0023,1.7795,8.879,53.4483,-0.1965,-0.0089,-0.3436,194.4531
17:15:09:699,0.2994,2.3948,7.8016,52.3141,-0.0296,0.0425,-0.3639,195.0781
17:15:09:713,0.042,2.5145,7.1791,52.8232,0.074,0.0369,-0.4216,195.5625
17:15:09:732,-0.3064,2.2631,6.9325,53.1086,0.1635,0.1312,-0.3681,195.9375
17:15:09:750,-0.456,2.3421,6.4537,53.1086,0.2264,0.2071,-0.2714,196.6094
17:15:09:780,-0.3087,2.7611,6.0191,53.6519,0.2469,0.1482,-0.2198,197
17:15:09:790,0.1174,3.2184,6.0443,52.8391,0.2298,-0.0001,-0.2744,197.2656
17:15:09:811,0.3688,3.477,6.7637,52.3897,0.2189,-0.1708,-0.3902,197.4844
17:15:09:832,0.2599,3.3956,8.0363,52.658,0.269,-0.2539,-0.4752,197.4844
17:15:09:897,-0.3554,3.2495,9.1627,53.0743,0.3795,-0.2507,-0.4762,197.7812
17:15:09:898,-0.7457,3.21,9.6607,55.5622,0.4418,-0.1034,-0.4219,198.8438
17:15:09:898,-1.0103,3.4219,9.4836,51.7701,0.3244,0.0324,-0.3617,198.8438
17:15:09:914,-1.1072,3.5057,10.0641,52.3825,0.1145,0.0889,-0.3079,199.3906
17:15:09:931,-1.0557,3.2376,11.6587,54.0398,0.0503,0.209,-0.2421,199.875
17:15:09:948,-1.0019,2.8605,12.3865,52.5189,0.0882,0.4263,-0.1726,200.2656
17:15:09:968,-1.2856,2.8689,11.6311,52.2173,0.0027,0.6633,-0.0712,200.5938
17:15:09:989,-1.5597,3.295,10.7309,52.8046,-0.2317,0.695,0.0535,200.8125
17:15:10:014,-1.2521,3.6709,10.8315,54.9835,-0.4397,0.4875,0.0852,200.9219
17:15:10:028,-0.9061,3.8517,12.0549,52.8308,-0.4999,0.1517,-0.0054,200.8906
17:15:10:048,-0.8379,2.9778,13.9404,53.5085,-0.3308,0.0385,-0.1079,200.6875
17:15:10:068,-1.5417,1.5329,14.6814,53.791,0.0381,0.2476,-0.0392,200.4844
17:15:10:089,-2.0996,0.6231,12.9444,53.7865,0.3353,0.5136,0.1882,200.4688
17:15:10:109,-1.592,0.926,10.0246,53.7826,0.3137,0.4673,0.3555,200.5781
17:15:10:130,-0.4105,1.6502,8.4157,54.1096,0.1241,0.0833,0.2567,200.5781
17:15:10:148,-0.0645,2.074,8.6851,51.8156,-0.0061,-0.3876,0.0199,200.2656
17:15:10:168,-0.1974,1.4898,9.8618,52.8149,0.0168,-0.4837,-0.1433,199.7969
17:15:10:189,-0.6032,1.0397,9.8163,53.9222,0.0959,-0.2486,-0.1479,199.5
17:15:10:208,-0.7146,0.9403,8.6372,54.2889,0.1451,0.091,-0.0834,199.7969
17:15:10:231,-0.7541,1.2276,7.0223,53.7291,0.1148,0.2774,-0.0155,199.9219
17:15:10:248,-0.7493,1.4048,6.0766,55.5008,0.0756,0.1871,0.0463,200.0625
17:15:10:268,-1.0629,1.3007,6.1353,51.879,0.118,-0.0619,0.1669,200.0781
17:15:10:288,-1.215,1.0361,6.5555,54.6436,0.2575,-0.2403,0.3789,200.0156
17:15:10:309,-0.9276,1.1845,6.6536,53.4325,0.3891,-0.2789,0.5816,199.8906
17:15:10:328,-0.2752,1.8082,6.2729,54.2764,0.4293,-0.2401,0.6551,199.625
17:15:10:348,0.3365,2.5097,5.6576,53.8789,0.3406,-0.2494,0.5701,199.125
17:15:10:369,0.5639,3.2029,5.6456,54.2514,0.1486,-0.3122,0.38,198.4844
17:15:10:389,0.133,3.483,6.3902,54.0164,-0.0477,-0.3903,0.1925,197.7969
17:15:10:409,-0.529,3.4004,7.8088,53.2805,-0.1329,-0.3639,0.103,197.3125
17:15:10:429,-0.869,3.4614,9.0179,54.0956,-0.1145,-0.3255,0.079,197.0781
17:15:10:448,-0.6679,3.7547,9.8152,53.5029,-0.0671,-0.4038,0.0244,197.0156
17:15:10:468,-0.2621,3.9774,10.2916,53.2301,-0.1017,-0.5405,-0.1189,196.9844
17:15:10:489,-0.1591,3.6542,10.9596,55.2899,-0.2357,-0.5764,-0.2613,196.9844
17:15:10:508,-0.0107,3.046,11.8981,55.0353,-0.4013,-0.3721,-0.3383,197.1406
17:15:10:531,0.4466,2.6342,12.3626,53.6069,-0.6256,-0.0297,-0.4312,197.4844
17:15:10:548,0.139,1.971,13.9176,55.3642,-0.8725,0.0689,-0.5774,197.9531
17:15:10:568,-0.3961,0.8242,15.663,53.7145,-0.8855,-0.051,-0.6893,198.4219
17:15:10:587,-0.8881,-0.2448,15.8402,53.6764,-0.5955,-0.0116,-0.6536,199.0312
17:15:10:609,-0.4512,-0.234,13.1706,54.4572,-0.1164,0.3243,-0.3961,199.7969
17:15:10:631,1.2068,1.0098,9.3447,54.7946,0.2804,0.6183,-0.0334,200.6094
17:15:10:647,2.7283,2.3362,7.2498,56.0441,0.3699,0.3325,0.0601,201.375
17:15:10:667,3.2646,2.4918,8.2936,54.0778,0.1675,-0.3628,-0.2054,201.2812
17:15:10:688,2.7211,1.6598,10.0211,56.1005,-0.0668,-0.7399,-0.5985,201.1562
17:15:10:708,1.5192,1.1235,10.4652,55.5603,-0.1446,-0.4401,-0.8587,201.4531
17:15:10:728,0.6633,0.9942,9.1532,54.3075,-0.0663,0.1014,-0.9133,202.2812
17:15:10:748,0.3616,1.2827,7.3695,55.8693,0.0322,0.4713,-0.8462,203.3438
17:15:10:767,0.2886,1.6263,6.8116,54.358,0.0687,0.4058,-0.7548,203.8281
17:15:10:789,0.1462,1.6346,7.0427,53.9976,0.1337,0.0777,-0.7194,204.7812
17:15:10:808,0.0779,1.6143,7.2653,53.3355,0.2559,-0.1892,-0.6898,205.5938
17:15:10:828,0.1581,1.7496,7.0953,53.4352,0.3459,-0.211,-0.6352,206.3906
17:15:10:848,0.3389,2.1446,6.6165,54.0295,0.3523,-0.051,-0.5934,207.1719
17:15:10:868,0.5005,2.5444,6.2765,54.8996,0.2828,0.0745,-0.6089,207.9688
17:15:10:889,0.3724,2.791,6.583,54.1644,0.1651,0.062,-0.6922,208.7031
17:15:10:909,-0.0059,2.6869,7.5419,53.9425,0.0423,-0.0262,-0.8006,209.3281
17:15:10:928,-0.5745,2.566,8.7066,54.3907,-0.0322,-0.0643,-0.8648,210.0469
17:15:10:947,-1.1767,2.4367,9.8487,54.6807,-0.0442,-0.0049,-0.8491,210.8906
17:15:10:969,-1.3502,2.469,10.2952,53.1427,0.029,0.1229,-0.7423,211.8281
17:15:10:994,-1.2018,2.9155,9.9193,53.8241,0.1526,0.2305,-0.5657,212.8281
17:15:11:011,-0.6356,3.3238,10.0258,53.4052,0.1923,0.1451,-0.4179,213.7344
17:15:11:031,0.0588,3.5225,10.7369,52.4862,0.1382,0.0135,-0.342,214.4531
17:15:11:047,0.4754,3.5883,11.1655,54.5593,0.0815,0.001,-0.3604,214.9375
17:15:11:068,0.5328,3.6123,11.448,55.0312,0.0016,0.0809,-0.4374,215.5469
17:15:11:088,0.1162,3.459,11.7054,53.9591,-0.1252,0.1882,-0.5529,215.9531
17:15:11:108,-0.3291,3.1334,12.1818,53.6173,-0.2402,0.2092,-0.6198,216.4219
17:15:11:130,-0.456,2.3876,13.3658,52.3987,-0.245,-0.0198,-0.6355,217.0156
17:15:11:148,-0.517,1.4958,13.9918,54.8304,-0.0349,-0.2941,-0.636,217.6719
17:15:11:168,-0.3435,0.8541,12.5158,52.3792,0.3534,-0.2678,-0.5881,218.3594
17:15:11:190,-0.0095,0.9667,9.6739,52.6543,0.6546,-0.0763,-0.5188,219.1406
17:15:11:209,0.7172,1.4515,8.3236,53.4893,0.6115,-0.0654,-0.5042,219.875
17:15:11:228,1.2798,1.3677,8.7964,52.2783,0.1244,-0.4318,-0.8989,220.4844
17:15:11:248,1.1038,0.8505,9.6045,51.3479,0.0325,-0.4449,-1.133,220.4844
17:15:11:267,0.279,0.3693,9.8678,52.6756,0.0088,-0.3183,-1.2193,221.0938
17:15:11:288,-0.4356,0.1035,9.4788,51.0137,0.0298,-0.1855,-1.1537,223.0156
17:15:11:308,-0.7397,0.1634,8.733,50.6028,0.0655,-0.1247,-1.0147,224.3438
17:15:11:331,-0.7409,0.4603,7.7705,51.3161,0.0818,-0.2014,-0.8994,225.8125
17:15:11:347,-0.8953,0.7308,7.2486,50.8664,0.0858,-0.3783,-0.7873,227.1719
17:15:11:367,-0.8498,0.9068,7.1301,51.2831,0.0948,-0.4859,-0.68,228.3125
17:15:11:389,-0.8355,1.2492,7.0678,51.0909,0.073,-0.5383,-0.5988,229.3906
17:15:11:409,-0.6595,1.4611,7.172,50.5901,0.0479,-0.521,-0.5519,230.375
17:15:11:427,-0.4799,1.7364,7.1707,49.6776,0.0123,-0.4904,-0.5372,231.2656
17:15:11:449,-0.3051,2.068,7.3611,50.4998,-0.0272,-0.4803,-0.5527,232.0312
17:15:11:467,-0.2429,2.3577,7.7573,50.0437,-0.0495,-0.4893,-0.6043,232.7812
17:15:11:491,-0.3028,2.4834,8.2709,49.4399,-0.0309,-0.4542,-0.6523,234.2031
17:15:11:510,-0.4117,2.5432,8.5378,50.3112,0.0091,-0.3847,-0.6802,235
17:15:11:527,-0.6188,2.6235,8.5905,50.8919,0.02,-0.3681,-0.6898,235.4219
17:15:11:547,-0.772,2.7264,8.733,48.3206,-0.0317,-0.4209,-0.6952,236.2656
17:15:11:567,-0.7828,2.7659,9.2585,48.4785,-0.1201,-0.5237,-0.7197,237.0938
17:15:11:588,-0.8414,2.5552,10.2066,48.2739,-0.1867,-0.5213,-0.7319,237.9688
17:15:11:608,-0.8738,2.2907,11.0565,48.7472,-0.2519,-0.4225,-0.7098,238.875
17:15:11:627,-0.5518,2.0931,11.8047,48.8111,-0.3225,-0.2971,-0.7186,239.7812
17:15:11:647,-0.1567,2.1339,11.9604,49.0788,-0.514,-0.3772,-0.778,240.7031
17:15:11:667,0.4814,1.8501,13.1718,47.6631,-0.7441,-0.5903,-0.8776,241.5781
17:15:11:687,1.3337,0.513,15.4954,47.3211,-0.7396,-0.5908,-0.9793,242.4844
17:15:11:707,1.6557,-0.8793,17.4957,48.1226,-0.4317,-0.1042,-0.9993,243.4688
17:15:11:727,1.5097,-1.6334,16.6183,48.1921,0.1207,0.8066,-0.851,244.6406
17:15:11:748,1.9634,-1.3773,11.7126,46.7145,0.5124,1.2452,-0.6653,245.875
17:15:11:767,3.4789,-0.3525,6.9062,47.8125,0.4879,0.8883,-0.7253,246.8438
17:15:11:791,4.5599,0.847,4.5766,48.0641,0.167,0.0343,-1.0912,247.5
17:15:11:809,4.4665,1.1163,5.5427,48.0641,-0.1185,-0.7578,-1.5255,248.0625
17:15:11:827,3.7267,0.5094,8.0303,46.0957,-0.172,-0.9093,-1.8022,248.9375
17:15:11:848,2.8301,0.0892,9.1232,47.2844,-0.1105,-0.5788,-1.8677,250.5156
17:15:11:867,1.8664,0.1921,8.8215,45.9793,-0.0919,-0.2126,-1.7964,252.625
17:15:11:887,1.3121,0.6973,8.1404,46.2613,-0.1361,-0.146,-1.7242,254.8906
17:15:11:908,1.1026,1.1163,8.4804,46.1718,-0.0977,-0.2488,-1.7042,256.9375
17:15:11:958,0.795,1.2839,8.9149,46.5628,0.0687,-0.2973,-1.7138,257.9688
17:15:11:958,0.5352,1.3689,8.3475,47.4319,0.2434,-0.2766,-1.7125,260.9531
17:15:11:973,0.4071,1.5149,8.041,47.5403,0.3137,-0.2704,-1.6933,262.8594
17:15:11:994,0.394,1.7197,7.9585,46.8298,0.29,-0.2137,-1.6728,264.8906
17:15:12:018,0.1414,1.9303,8.2697,47.9595,0.2218,-0.1551,-1.6915,266.8906
17:15:12:034,-0.4392,1.8908,8.8958,46.2434,0.1537,-0.1128,-1.713,268.8906
17:15:12:049,-1.1228,1.8908,9.3303,45.8463,0.1462,-0.0411,-1.6704,270.7656
17:15:12:067,-1.5849,2.0883,9.6727,46.7476,0.1971,0.0188,-1.5295,272.75
17:15:12:090,-1.8207,2.4774,9.2848,46.1835,0.2916,0.0979,-1.3306,274.7188
17:15:12:111,-1.9212,2.8365,9.0071,45.3045,0.3081,0.091,-1.1354,276.4844
17:15:12:133,-1.8135,2.9072,9.7014,47.2657,0.1904,-0.0744,-0.9908,278.1406
17:15:12:147,-1.5777,2.6594,11.5186,45.8987,-0.0141,-0.268,-0.8925,279.5625
17:15:12:167,-1.6232,2.0321,13.7572,45.7889,-0.1963,-0.2542,-0.8099,280.7344
17:15:12:189,-2.005,1.7627,14.5102,45.8521,-0.1902,0.0758,-0.6784,281.8438
17:15:12:217,-2.0601,1.898,13.5561,46.0654,-0.0149,0.4529,-0.4603,282.8594
17:15:12:238,-1.4807,2.0261,12.0944,44.8046,0.1726,0.5759,-0.2472,283.7188
17:15:12:247,-1.1647,1.9543,11.2098,43.3748,0.2575,0.4034,-0.1862,284.2969
17:15:12:267,-1.2892,1.0086,11.8371,44.5657,0.2109,0.0239,-0.2834,284.6094
17:15:12:288,-1.5322,-0.2628,12.505,45.036,0.2085,-0.1743,-0.3444,284.7656
17:15:12:316,-1.78,-0.9846,11.296,44.1649,0.3792,0.0127,-0.2904,285
17:15:12:339,-1.5753,-0.6554,9.0047,42.5647,0.5167,0.3035,-0.1156,285.4219
17:15:12:347,-0.9648,0.0868,8.077,43.1912,0.4554,0.2502,0.0412,285.8594
17:15:12:367,-0.268,0.4483,8.5331,42.5351,0.3236,-0.101,0.0577,286.125
17:15:12:388,-0.0238,0.4866,9.0251,44.8041,0.2764,-0.411,-0.0288,286.125
17:15:12:411,-0.3147,0.4423,8.8048,42.5508,0.2951,-0.4465,-0.1159,286.125
17:15:12:430,-0.5374,0.4926,7.986,43.7322,0.3257,-0.288,-0.1146,286.5156
17:15:12:454,-0.3459,0.8625,6.802,42.7672,0.3284,-0.0683,-0.0352,286.75
17:15:12:470,0.048,1.3653,6.1257,40.2563,0.0716,0.0691,0.0181,286.8438
17:15:12:489,-0.0071,1.6251,6.2047,42.1386,-0.0599,-0.0153,-0.0475,286.8125
17:15:12:509,-0.4584,1.5221,6.8092,41.9525,-0.0977,-0.0997,-0.035,286.7812
17:15:12:528,-0.7984,1.4072,7.5514,40.9077,-0.0365,-0.0872,0.0625,286.8438
17:15:12:548,-0.9528,1.5437,7.8052,41.503,0.0756,-0.0278,0.2191,286.875
17:15:12:568,-0.5099,2.1698,7.4006,40.8466,0.1273,-0.0699,0.2918,286.8281
17:15:12:588,0.1126,2.8234,7.3611,39.6143,0.1249,-0.2273,0.2322,286.5781
17:15:12:609,0.4706,3.1765,7.652,40.7405,0.0874,-0.4092,0.0993,286.2969
17:15:12:631,0.4598,3.143,8.3092,40.8803,0.0202,-0.4481,-0.0216,286.0938
17:15:12:648,0.1402,2.9144,8.9161,39.8208,-0.0503,-0.3748,-0.0744,286.0781
17:15:12:666,-0.1076,2.566,9.4752,39.8801,-0.1049,-0.3202,-0.0576,286.0781
17:15:12:688,0.3161,2.2883,9.7757,37.9346,-0.1691,-0.3248,-0.081,286.1875
17:15:12:712,0.643,2.1374,10.1635,38.3098,-0.2807,-0.3594,-0.2006,286.3438
17:15:12:726,0.3233,1.564,10.8638,37.5306,-0.3665,-0.2715,-0.2653,286.4688
17:15:12:748,-0.371,1.0217,11.2565,36.9443,-0.388,-0.0936,-0.1553,286.8594
17:15:12:766,-1.0952,0.9882,11.0494,37.9536,-0.3728,-0.1748,0.1576,286.8594
17:15:12:788,-0.3195,1.6754,10.9452,37.2833,-0.3907,-0.6073,0.5038,287.3594
17:15:12:809,2.0699,2.8952,11.922,37.0024,-0.4051,-1.2044,0.3723,287.1719
17:15:12:832,3.4777,2.8641,13.944,36.8269,-0.3156,-1.3642,-0.2184,286.9688
17:15:12:847,2.6194,1.2779,15.1327,36.7385,-0.188,-0.6542,-0.6797,286.5
17:15:12:866,0.9482,-0.2005,13.416,36.6087,-0.1358,0.3134,-0.7047,286.6094
17:15:12:886,0.4335,0.0592,10.0558,38.2792,-0.2746,0.6186,-0.5764,287.3281
17:15:12:909,1.0452,0.8266,8.2469,35.2088,-0.5294,0.189,-0.6973,288.1875
17:15:12:927,1.3756,0.9559,9.0825,35.4062,-0.6354,-0.2813,-0.9093,288.7969
17:15:12:946,0.7447,0.5453,10.3969,35.6807,-0.5036,-0.3804,-0.9924,289.3906
17:15:12:967,-0.2728,0.3226,10.288,36.3744,-0.2799,-0.1618,-0.8789,290.25
17:15:12:987,-0.9097,0.3502,8.8742,35.8941,-0.1156,0.0489,-0.6448,291.3906
17:15:13:008,-0.8151,0.568,7.4401,36.0308,-0.0333,0.0513,-0.4075,292.5
17:15:13:027,-0.353,0.9343,6.8858,35.8075,0.0458,-0.0845,-0.2714,293.3438
17:15:13:047,-0.0382,1.1774,6.7637,35.8783,0.142,-0.2036,-0.2182,293.6719
17:15:13:067,0.0516,1.2073,6.6261,36.9449,0.176,-0.2126,-0.1953,294.125
17:15:13:087,0.0384,1.1869,6.4202,35.2597,0.1156,-0.1399,-0.1673,294.4531
17:15:13:109,0.2359,1.5485,6.4166,36.0038,0,-0.1636,-0.175,294.7188
17:15:13:127,0.6226,2.0093,7.0247,37.5418,-0.1209,-0.2768,-0.2342,294.9844
17:15:13:146,0.9614,2.1709,8.2458,34.9945,-0.1944,-0.3487,-0.3412,295.2031
17:15:13:166,0.7986,2.153,9.8307,37.7983,-0.1843,-0.2717,-0.436,295.4219
17:15:13:186,0.1964,1.9555,11.4516,35.6858,-0.0093,-0.0006,-0.4304,295.7188
17:15:13:209,-0.3315,1.6239,11.7784,35.4014,0.2362,0.3253,-0.2935,296.1406
17:15:13:226,-0.5494,1.8094,10.8123,35.0619,0.3473,0.4138,-0.1021,296.6562
17:15:13:247,-0.0657,2.1195,10.3874,37.1586,0.3228,0.2873,-0.0198,297.3125
17:15:13:267,0.4179,2.2152,10.8566,38.2716,0.2431,0.1437,-0.0509,297.5
17:15:13:286,0.6202,1.9459,11.8706,37.5211,0.1784,0.0902,-0.1167,297.5156
17:15:13:309,0.3449,1.5078,12.9911,37.3575,0.1742,0.1717,-0.1055,297.5312
17:15:13:327,0.0887,1.3055,13.3514,37.8125,0.1752,0.3392,-0.0448,297.625
17:15:13:347,0.4323,1.3749,12.4907,38.251,0.0914,0.4244,0.0399,297.7656
17:15:13:366,0.4766,1.0181,12.9384,39.7349,-0.0418,0.3181,0.0362,297.8281
17:15:13:386,-0.0813,0.1754,12.5421,39.0922,-0.0144,0.2638,-0.0443,297.7812
17:15:13:409,-0.4105,-0.3765,10.7393,39.9105,0.1662,0.2766,-0.011,297.6562
17:15:13:426,-0.3231,-0.4339,8.9724,40.109,0.2378,0.2561,0.0657,297.625
17:15:13:447,0.1031,-0.4423,8.4337,39.7858,0.0919,0.1125,0.0905,297.625
17:15:13:466,0.1378,-0.3501,8.7761,40.2635,-0.0935,-0.1466,0.0127,297.5781
17:15:13:486,-0.0873,-0.2161,8.7617,42.3494,-0.1718,-0.3367,-0.0925,297.4531
17:15:13:507,-0.4308,-0.0772,8.065,40.8427,-0.176,-0.3346,-0.1588,297.3906
17:15:13:527,-0.5302,0.149,7.4018,41.6726,-0.1931,-0.2728,-0.1274,297.4688
17:15:13:546,-0.4189,0.4842,7.2988,40.8176,-0.2195,-0.2534,-0.0262,297.6562
17:15:13:566,-0.3004,0.6411,7.8735,43.4772,-0.192,-0.3269,0.0679,297.8594
17:15:13:586,-0.3159,0.6075,8.3236,42.9069,-0.0695,-0.4014,0.1512,297.9844
17:15:13:608,-0.4081,0.6327,7.9405,44.6025,0.1044,-0.2558,0.2551,297.9688
17:15:13:627,-0.3387,1.0588,6.9768,43.0046,0.2354,0.0119,0.3904,297.8906
17:15:13:649,-0.2273,1.4695,6.3196,45.4255,0.2578,0.1719,0.4716,297.7344
17:15:13:666,-0.3889,1.7831,5.9126,44.7767,0.1894,0.1799,0.4577,297.3906
17:15:13:686,-0.462,1.8896,6.9026,44.8466,-0.0037,0.0228,0.4202,296.5938
17:15:13:709,-0.3064,1.8394,9.0298,44.6729,-0.1654,-0.2132,0.4034,296.0938
17:15:13:726,0.0779,1.6969,10.4951,47.5634,-0.0866,-0.394,0.3778,295.6094
17:15:13:746,0.3712,1.7017,10.4771,45.8381,0.1156,-0.3996,0.299,295.1562
17:15:13:766,0.4658,1.6634,10.2784,45.4632,0.1515,-0.264,0.1667,294.8125
17:15:13:786,0.2383,1.3509,10.8913,48.6572,-0.0402,-0.146,-0.0278,294.5312
17:15:13:808,-0.432,0.8338,12.1028,47.194,-0.2898,-0.0273,-0.1964,294.3906
17:15:13:830,-0.6786,0.3274,12.8235,47.194,-0.404,0.1408,-0.2286,294.4375
17:15:13:848,-0.5482,0.167,12.2022,46.7068,-0.3151,0.2723,-0.0408,294.875
17:15:13:868,-0.5984,0.1012,11.2577,47.7969,-0.4477,-0.0933,0.1408,294.9688
17:15:13:888,-0.0226,0.2819,11.9544,48.1019,-0.693,-0.5732,0.335,294.9688
17:15:13:909,1.2858,0.1873,15.1674,50.065,-0.6765,-0.5772,0.3624,294.7969
17:15:13:927,1.8568,-0.7093,17.801,49.319,-0.1718,0.0502,0.3493,294.4531
17:15:13:947,1.6246,-0.9858,16.0149,49.3649,0.5071,0.7911,0.5113,294.1094
17:15:14:001,2.2854,-0.2472,10.9069,50.1917,0.82,0.8481,0.5909,294.1094
17:15:14:001,3.6381,0.7871,6.972,49.3018,0.7015,0.3088,0.3517,293.0312
17:15:14:015,4.2546,1.4611,5.5594,51.0071,0.2839,-0.3199,-0.0786,292.2812
17:15:14:027,3.8548,1.1247,7.0127,51.355,-0.1222,-0.4169,-0.4667,291.9062
17:15:14:046,2.7104,0.258,8.5498,49.4849,-0.3097,0.0241,-0.6318,292.0469
17:15:14:066,1.3241,0.0365,8.7832,51.0418,-0.3089,0.5195,-0.5854,292.0469
17:15:14:087,0.6418,0.0365,7.9129,50.8308,-0.2051,0.6702,-0.4299,292.6406
17:15:14:109,0.5197,0.4088,7.1947,51.9302,-0.012,0.4305,-0.2584,292.9531
17:15:14:127,0.7148,0.8925,6.9277,51.5756,0.2346,0.0627,-0.1825,293.8906
17:15:14:148,0.7363,1.2288,6.5973,52.7722,0.3949,-0.133,-0.1668,294.2812
17:15:14:166,0.5855,1.5616,6.2993,50.2844,0.3577,-0.0323,-0.1575,294.5156
17:15:14:185,0.6226,2.086,6.0527,51.5784,0.0887,0.3115,-0.1796,294.7188
17:15:14:206,0.7052,2.7851,6.3938,52.6809,-0.3246,0.7869,-0.2613,294.9688
17:15:14:229,0.9315,3.246,7.7262,54.8735,-0.6831,1.291,-0.4206,295.1719
17:15:14:246,0.6442,3.2507,9.5027,52.2206,-0.7305,1.4934,-0.5881,295.3281
17:15:14:265,-0.019,2.985,11.3247,55.0738,-0.3595,1.2404,-0.7018,295.5
17:15:14:287,-0.6523,2.4247,12.6762,53.1819,0.2618,0.8263,-0.7442,295.7344
17:15:14:311,-1.6603,1.6023,12.1686,53.4343,0.7806,0.4337,-0.6544,296.125
17:15:14:327,-2.3773,1.1905,10.9919,54.6562,0.9497,0.0271,-0.4648,296.7344
17:15:14:349,-2.2995,0.8625,10.5466,54.8875,0.7883,-0.1176,-0.2914,297.5312
17:15:14:368,-2.2325,0.6602,11.0601,55.106,0.5308,0.0148,-0.1066,298.2969
17:15:14:386,-2.0793,0.6051,11.4468,55.0509,0.3593,0.1991,0.038,298.9688
17:15:14:410,-2.2157,0.8661,11.3905,55.2973,0.2546,0.2439,0.1581,299.4531
17:15:14:431,-2.2397,1.1115,11.1846,55.4754,0.159,0.1237,0.2431,299.6406
17:15:14:451,-1.9164,1.151,11.3055,56.942,0.0924,-0.186,0.2548,299.625
17:15:14:466,-1.8255,0.404,12.3123,54.8943,0.1968,-0.4345,0.2433,299.4375
17:15:14:491,-2.0553,-0.3789,12.6583,54.9416,0.4216,-0.378,0.3272,299.1719
17:15:14:508,-1.5777,-0.7787,11.2648,54.9479,0.535,-0.1455,0.3954,298.9375
17:15:14:528,-0.7744,-0.2029,8.6851,54.3383,0.2935,-0.0267,0.3086,298.6406
17:15:14:545,-0.0179,0.5237,7.3731,55.4374,-0.1808,-0.0544,0.0516,298.3438
17:15:14:565,0.3233,0.6626,7.6616,52.4347,-0.6432,0.046,-0.2682,298
17:15:14:587,0.0396,0.2592,8.2888,54.5182,-0.9766,0.4396,-0.4944,297.7969
17:15:14:608,-0.9935,-0.1143,8.0961,54.8828,-1.1768,0.9547,-0.5093,297.875
17:15:14:630,-1.9153,-0.0257,7.1995,55.6733,-1.244,1.1903,-0.3623,298.1562
17:15:14:653,-2.2756,0.2496,6.6069,54.541,-1.1082,1.0234,-0.1822,298.5
17:15:14:665,-2.8514,0.5908,6.8954,54.5615,-0.7723,0.3789,0.0444,298.6562
17:15:14:687,-2.7353,0.2376,8.1512,56.498,-0.2738,-0.2611,0.3608,298.6094
17:15:14:710,-2.1044,0.3549,8.5498,55.5343,0.1494,-0.5993,0.6479,298.4375
17:15:14:731,-1.428,0.8829,8.5235,56.6656,0.375,-0.6246,0.8117,298.1094
17:15:14:747,0.3437,1.886,8.0638,54.7039,0.4405,-0.5061,0.7736,297.5625
17:15:14:765,0.1186,2.1721,8.2266,55.551,0.3806,-0.3799,0.5467,296.8594
17:15:14:786,-0.6858,1.9351,9.0227,54.1809,0.244,-0.292,0.2705,296.0625
17:15:14:810,-1.6854,1.582,9.8427,54.3041,0.1289,-0.146,0.0753,295.4062
17:15:14:828,-2.0828,1.4443,9.6895,54.3439,0.1321,0.063,0.0471,295.0312
17:15:14:846,-1.9117,1.4862,9.6224,54.3512,0.1324,0.0936,0.083,294.9219
17:15:14:866,-1.5681,1.2157,10.6268,56.1596,0.0876,-0.1618,0.0697,294.9062
17:15:14:888,-1.7704,0.6111,12.177,55.1279,0.0607,-0.4345,-0.0161,294.8281
17:15:14:916,-1.8686,-0.1826,13.2029,54.8236,0.0818,-0.4438,-0.0363,294.75
17:15:14:929,-1.8578,-0.3442,12.2584,54.3342,0.228,-0.1668,0.0766,294.7812
17:15:14:958,-1.3526,0.1562,10.6256,55.9042,0.3177,0.0585,0.2274,294.9062
17:15:14:965,-0.456,0.4926,9.8223,55.5106,0.1808,0.0478,0.266,294.9062
17:15:14:985,0.2623,0.5465,10.8435,55.2928,-0.106,-0.2193,0.1491,294.6875
17:15:15:008,-0.1124,-0.2652,13.1395,55.5467,-0.3862,-0.5343,-0.0973,294.4062
17:15:15:033,-0.5386,-0.9822,13.8709,55.9849,-0.3425,-0.414,-0.1974,294.25
17:15:15:051,0.0312,-0.8446,11.3175,52.9622,0.0341,0.009,-0.0435,294.3906
17:15:15:068,1.5288,0.2197,8.2733,55.6213,0.3332,0.2196,0.172,294.625
17:15:15:085,2.5344,1.0505,6.8954,54.6266,0.2866,-0.0235,0.119,294.6875
17:15:15:109,2.0136,1.0002,7.5,55.0846,0.0157,-0.4126,-0.224,294.5
17:15:15:129,0.7591,0.5441,8.3906,54.426,-0.2115,-0.5626,-0.5402,294.4062
17:15:15:149,-0.7026,0.313,8.4995,54.6641,-0.2551,-0.3532,-0.627,294.7344
17:15:15:166,-1.2521,0.2209,7.9118,53.6901,-0.1683,-0.0441,-0.4869,295.375
17:15:15:188,-1.1431,0.6363,7.2043,53.9933,-0.025,0.0787,-0.2129,296.1094
17:15:15:218,-1.1826,1.3653,7.4581,53.3628,0.2149,-0.2771,0.07,296.6562
17:15:15:233,-0.5972,2.0608,8.0027,52.7485,0.6876,-1.1626,0.3185,296.8594
17:15:15:248,0.1162,2.3218,7.2893,53.6918,1.1329,-1.5772,0.4929,296.7344
17:15:15:268,0.9075,2.7108,6.5135,52.9322,0.6812,-1.1059,0.5089,296.5938
17:15:15:292,1.7024,3.4722,7.0546,52.1735,0.179,-0.6446,0.3927,296.5156
17:15:15:307,2.4566,3.981,9.1711,51.8132,0.0032,-0.3032,0.1232,296.2188
17:15:15:327,2.4027,3.8014,10.9213,51.5455,0.1609,-0.0941,-0.1548,295.8594
17:15:15:346,1.5216,3.2914,11.46,50.9277,0.4309,-0.0017,-0.2677,295.625
17:15:15:366,0.6908,2.7767,10.9069,52.0923,0.6197,-0.0417,-0.2256,295.7031
17:15:15:388,-0.1064,2.7252,10.3227,52.2264,0.6402,-0.2717,-0.0888,295.9844
17:15:15:406,0.1115,2.7013,10.8327,50.5924,0.5851,-0.3937,0.021,296.4375
17:15:15:426,0.8429,2.5792,11.2972,50.1029,0.4613,-0.2158,0.0207,296.6094
17:15:15:447,1.1769,2.5109,11.2828,49.7542,0.2021,0.132,-0.0664,296.6875
17:15:15:466,1.0548,2.4331,11.1332,51.5684,-0.1236,0.4617,-0.1798,296.6875
17:15:15:485,0.6286,2.074,10.9009,50.8977,-0.3819,0.5056,-0.2469,296.7188
17:15:15:506,-0.2034,1.6418,11.2469,52.1512,-0.4549,0.1725,-0.1822,296.7656
17:15:15:527,-0.6355,0.987,12.4799,49.8018,-0.2671,-0.1554,-0.0158,296.8594
17:15:15:549,-0.7936,0.495,13.033,52.6902,0.1262,-0.1604,0.2255,297.0312
17:15:15:565,-0.1603,0.3346,11.0757,51.9248,0.3838,-0.0835,0.4026,297.1719
17:15:15:585,0.6609,0.8266,8.2194,49.474,0.2165,-0.1445,0.4263,297.2188
17:15:15:605,1.5001,1.4551,6.8308,49.1551,-0.221,-0.2462,0.278,296.9844
17:15:15:626,1.949,1.3809,7.148,50.3713,-0.6245,-0.218,0.0604,296.5625
17:15:15:645,1.7108,1.0265,7.9225,49.8171,-0.861,-0.1298,-0.0965,296.1406
17:15:15:665,0.7112,0.647,8.8934,50.9266,-0.8746,-0.0076,-0.0813,295.8281
17:15:15:685,0.0241,0.3705,9.8439,48.0229,-0.6,0.12,0.0883,295.8281
17:15:15:706,0.0157,0.258,9.4632,51.0453,-0.1846,0.1626,0.2884,295.9375
17:15:15:727,0.139,0.5561,7.9165,49.5293,0.0887,0.0912,0.4623,296
17:15:15:745,0.3964,1.0445,6.5016,48.6718,0.1683,-0.0829,0.5384,295.8594
17:15:15:765,0.619,1.4383,6.0168,49.2717,0.1284,-0.1663,0.5384,295.5156
17:15:15:785,0.6142,1.6418,6.0574,49.3577,0.0045,-0.1056,0.5243,294.9844
17:15:15:805,0.7447,2.0321,6.4321,49.3961,-0.2309,0.1035,0.466,294.375
17:15:15:825,1.0069,2.3757,7.1755,49.6351,-0.5329,0.4476,0.3216,293.5312
17:15:15:845,1.0871,2.5899,8.1248,48.0643,-0.8386,0.8617,0.124,292.9531
17:15:15:865,1.0955,2.6187,9.3112,48.0643,-0.9899,1.071,-0.0927,292.4531
17:15:15:885,0.5604,2.3781,10.5466,48.8702,-0.9052,0.8798,-0.2733,292.0625
17:15:15:906,-0.3171,1.7029,11.9639,48.8728,-0.5856,0.381,-0.3194,291.8594
17:15:15:926,-1.1204,0.8506,12.8797,49.6836,-0.2109,-0.1327,-0.2177,291.8906
17:15:15:945,-1.3287,0.1203,13.3777,49.0728,0.0477,-0.3642,-0.0017,292.125
17:15:15:965,-0.7696,-0.3549,13.076,50.5051,0.0908,-0.2632,0.2135,292.4062
17:15:15:985,0.388,-0.3621,12.2584,48.6384,-0.0985,0.0068,0.3142,292.5625
17:15:16:045,1.4031,-0.1646,11.6611,46.6343,-0.3499,0.1653,0.2338,292.4844
17:15:16:045,1.6964,-0.1179,11.2026,47.6956,-0.5934,0.058,0.0505,292.1875
17:15:16:047,1.3169,-0.398,11.7832,48.2969,-0.7886,-0.2299,-0.0978,291.8438
17:15:16:066,0.4179,-1.0217,14.2037,49.9337,-0.6514,-0.3032,-0.0645,291.625
17:15:16:085,-0.128,-1.5999,15.8198,47.7959,-0.0706,0.062,0.1925,291.6406
17:15:16:105,0.5436,-1.3401,13.5094,47.5116,0.527,0.4819,0.4809,291.7656
17:15:16:126,2.2387,-0.1754,9.0143,47.5994,0.6496,0.3799,0.5043,291.7188
17:15:16:145,3.783,1.06,6.249,47.6007,0.3593,-0.0752,0.1746,291.2969
17:15:16:165,3.1533,0.9655,7.9836,47.8769,-0.0474,-0.4134,-0.3154,290.6875
17:15:16:185,1.6018,0.343,9.0909,47.4517,-0.2732,-0.341,-0.6699,290.2656
17:15:16:206,0.5101,0.0341,9.1148,47.3941,-0.2716,-0.006,-0.7607,290.3906
17:15:16:226,0.2168,0.0521,8.3044,45.9707,-0.1454,0.3205,-0.6605,291.0312
17:15:16:249,0.2731,0.4028,7.1624,48.1042,0.0165,0.4724,-0.4957,291.8438
17:15:16:266,0.4849,0.8027,6.753,46.6793,0.1292,0.3597,-0.3583,292.6406
17:15:16:284,0.5652,1.0277,6.5554,46.6425,0.2613,0.1232,-0.2818,293.4688
17:15:16:304,0.5412,1.151,6.1592,45.0567,0.3925,-0.0342,-0.2392,293.8438
17:15:16:325,0.8058,1.4659,5.6445,46.7542,0.4589,-0.1167,-0.1631,294.1719
17:15:16:347,1.2978,2.0117,5.3919,47.8671,0.4285,-0.2259,-0.1226,294.4688
17:15:16:365,1.7395,2.3876,6.225,47.2932,0.2469,-0.3775,-0.1854,294.7031
17:15:16:385,1.8029,2.414,8.071,45.3063,0.0069,-0.4957,-0.3242,294.8906
17:15:16:406,1.1745,1.9267,10.2138,44.4173,-0.1513,-0.5096,-0.5002,295.1719
17:15:16:427,0.5137,1.3593,11.9628,45.6555,-0.1776,-0.4137,-0.5857,295.5781
17:15:16:445,-0.0262,1.1438,12.9935,44.1106,-0.1225,-0.2233,-0.5306,296.2031
17:15:16:466,-0.1603,1.066,13.8901,44.7564,-0.0637,-0.0845,-0.3838,296.5781
17:15:16:485,0.2766,0.9643,14.1906,43.2226,0.0202,0.0167,-0.2206,297.2656
17:15:16:506,0.558,0.8781,13.3382,42.7853,0.1574,0.0651,-0.1244,297.7812
17:15:16:525,0.522,0.8924,12.5924,43.666,0.1838,0.01,-0.0951,298.125
17:15:16:548,0.3174,0.7727,12.6164,45.1089,0.0562,-0.1373,-0.1079,298.3125
17:15:16:565,0.0923,0.2831,13.4699,43.5562,-0.1111,-0.3615,-0.1228,298.4375
17:15:16:585,-0.2764,-0.3083,14.6826,42.7428,-0.1681,-0.5442,-0.0919,298.5469
17:15:16:606,-0.0598,-0.9128,14.7783,41.4363,0.0021,-0.4635,0.0135,298.7188
17:15:16:625,0.3114,-0.9834,11.5055,41.6108,0.384,0.0148,0.1658,298.8906
17:15:16:644,0.7339,-0.3346,8.205,42.6689,0.535,0.4055,0.2862,299.0156
17:15:16:664,1.3409,0.1311,7.1265,43.1919,0.3121,0.2649,0.3067,298.9531
17:15:16:685,1.3265,0.2496,8.1679,43.3863,-0.0359,-0.0861,0.196,298.6562
17:15:16:705,1.0021,-0.0078,9.2477,43.1031,-0.2085,-0.3319,0.0777,298.2812
17:15:16:726,0.2156,-0.0844,9.0538,41.4827,-0.1286,-0.2883,0.025,297.8906
17:15:16:744,-0.0741,0.0712,8.035,42.6348,0.0024,-0.0917,0.1219,297.8438
17:15:16:765,0.1713,0.5058,6.7769,42.6861,0.0858,0.0846,0.2857,297.8594
17:15:16:784,0.4646,0.9906,6.0957,42.8431,0.0708,0.1427,0.3962,297.7188
17:15:16:805,0.5987,1.2695,6.2741,42.4274,-0.0048,0.0875,0.4356,297.3906
17:15:16:826,0.6561,1.1965,7.2749,42.2767,-0.0671,-0.0262,0.4316,296.9219
17:15:16:844,0.8656,1.3007,8.1931,44.7894,-0.0045,-0.1176,0.4625,296.4375
17:15:16:865,1.0033,1.5389,8.387,41.9879,0.3052,-0.1578,0.4596,295.9375
17:15:16:885,1.1565,1.7747,8.375,41.9613,0.3507,-0.1562,0.4117,295.9375
17:15:16:905,1.208,1.983,8.6911,43.3417,0.3345,-0.1197,0.323,295.4219
17:15:16:924,0.9638,2.1949,9.2932,43.6897,0.3254,-0.043,0.2327,294.4219
17:15:16:944,1.0236,2.1685,9.4919,43.5626,0.3007,0.0446,0.1259,293.9844
17:15:16:964,0.9494,2.2476,9.3591,42.3643,0.196,0.0116,0.0247,293.6562
17:15:16:984,0.9853,2.0345,9.6799,42.1466,0.0565,-0.1013,-0.0829,293.3906
17:15:17:005,0.9422,1.5042,10.5609,40.882,-0.0432,-0.203,-0.1407,293.25
17:15:17:025,1.0057,0.6806,11.703,43.0028,-0.0333,-0.1804,-0.1013,293.2188
17:15:17:044,1.2547,-0.0233,11.9747,42.0007,0.0112,-0.0385,0.0106,293.3281
17:15:17:065,1.6964,-0.0365,11.0913,42.9092,-0.0642,0.0196,0.0649,293.5156
17:15:17:084,2.0938,0.3502,10.4209,44.6207,-0.2661,-0.0933,-0.0176,293.6719
17:15:17:105,2.4398,0.5357,10.9404,42.7887,-0.5004,-0.2598,-0.203,293.6562
17:15:17:125,2.4171,0.0592,12.62,42.2541,-0.5997,-0.1753,-0.3567,293.5781
17:15:17:149,1.9286,-0.4926,13.938,43.9818,-0.4658,0.2281,-0.3404,293.875
17:15:17:165,1.8065,-0.7548,13.3729,43.6891,-0.1896,0.5648,-0.1998,294.2969
17:15:17:184,2.4721,-0.4962,11.0709,45.608,-0.0293,0.511,-0.0957,294.5
17:15:17:204,3.2251,0.252,9.14,42.7363,-0.0775,0.1687,-0.175,294.7656
17:15:17:232,3.2419,0.811,8.9927,45.1992,-0.1486,-0.1426,-0.3748,294.8281
17:15:17:250,2.6122,0.6458,9.6224,44.1419,-0.1182,-0.1199,-0.521,294.9062
17:15:17:266,1.1649,0.4028,9.6428,44.9318,-0.0075,0.1538,-0.4584,295.2031
17:15:17:284,0.3952,0.4148,8.8,44.605,0.1414,0.3813,-0.2661,295.7656
17:15:17:304,0.4382,0.817,7.4509,45.8326,0.2248,0.451,-0.1141,296.3281
17:15:17:331,0.8225,1.3198,6.6524,47.9092,0.2722,0.3528,-0.0496,296.7031
17:15:17:345,1.2726,1.6382,6.5279,45.3184,0.3262,0.2138,-0.0749,296.8594
17:15:17:365,1.2044,1.8513,6.6752,47.7091,0.3499,0.1477,-0.1085,296.8906
17:15:17:384,0.7974,1.9722,6.9194,45.5188,0.3481,0.1333,-0.0824,296.9219
17:15:17:405,0.6849,2.0776,7.3347,46.36,0.3856,0.1613,0.0015,297.0312
17:15:17:427,0.8034,2.3565,7.4509,45.032,0.4272,0.1411,0.1136,297.1406
17:15:17:448,1.275,2.7923,7.5586,45.3101,0.4312,0.0481,0.2314,297.1719
17:15:17:464,2.2291,3.3393,8.0446,47.1599,0.4192,-0.068,0.1989,297.1094
17:15:17:484,2.5499,3.8792,8.8323,48.5305,0.44,-0.2574,-0.0051,296.9062
17:15:17:504,1.9861,3.8804,10.0378,46.6975,0.5752,-0.5863,-0.1995,296.6719
17:15:17:524,1.1062,3.1885,11.1571,47.5635,0.783,-0.8094,-0.2384,296.5781
17:15:17:548,0.2539,2.736,11.2684,47.5933,0.788,-0.8228,-0.1114,296.8125
17:15:17:565,1.1972,2.7504,12.1974,47.472,0.5348,-0.5224,-0.0126,297.2188
17:15:17:584,1.135,2.803,12.8007,48.9936,0.1561,0.0111,-0.0816,297.625
17:15:17:604,0.4119,2.6306,13.2903,48.4306,-0.1955,0.4984,-0.2091,297.75
17:15:17:626,-0.5709,2.2727,13.8087,50.0181,-0.3899,0.6644,-0.2704,297.9219
17:15:17:652,-1.124,1.649,15.3194,50.8836,-0.4136,0.4018,-0.1846,298.0312
17:15:17:663,-1.1431,0.9439,15.8713,48.924,-0.0993,0.0731,0.0527,298.1719
17:15:17:684,-0.7984,0.7428,13.489,49.5196,0.5417,-0.002,0.332,298.3281
17:15:17:704,-0.0358,1.2624,10.0689,49.6483,1.0304,0.0931,0.5741,298.375
17:15:17:726,0.7842,1.8729,7.7813,49.8044,1.094,0.0265,0.6822,298.1562
17:15:17:744,1.4163,2.3469,7.3683,50.248,0.8165,-0.211,0.6298,297.6562
17:15:17:764,2.0663,2.2488,8.3463,49.1231,0.4565,-0.4438,0.4772,296.9531
17:15:17:784,2.1645,2.0273,8.5642,51.2399,0.2562,-0.4203,0.2436,296.2344
17:15:17:805,1.7706,1.8094,8.0327,49.5965,0.171,-0.1618,0.0095,295.6875
17:15:17:825,1.287,1.5544,7.148,50.2968,0.1297,0.1528,-0.1298,295.3906
17:15:17:843,0.6406,1.5413,6.7494,52.0554,0.1068,0.315,-0.17,295.3281
17:15:17:864,0.1354,1.5616,6.8236,51.7146,0.1427,0.2854,-0.1133,295.4219
17:15:17:883,0.0348,1.5939,6.8152,50.165,0.2714,0.1448,0.0119,295.5312
17:15:17:904,0.1186,1.8226,7.1157,50.1649,0.441,-0.08,0.1808,295.6406
17:15:17:924,0.7914,2.3781,7.3922,50.8106,0.6264,-0.2667,0.3794,295.6406
17:15:17:944,1.9155,3.0257,6.8463,51.5191,0.772,-0.2776,0.5137,295.5469
17:15:17:964,2.4757,3.6134,6.6009,52.3833,0.7145,-0.1072,0.437,295.2812
17:15:17:984,2.0352,3.823,6.99,52.4228,0.4735,0.1027,0.1933,294.8594
17:15:18:004,0.8584,3.5273,8.0638,52.6861,0.2141,0.2433,-0.0704,294.3438
17:15:18:025,0.3413,3.2328,8.8682,52.8608,0.0767,0.303,-0.1391,293.8906
17:15:18:044,0.6789,3.3178,9.2753,52.8643,0.0695,0.2974,-0.0435,293.9062
17:15:18:106,1.3325,3.5177,9.6248,53.8393,0.0639,0.2042,0.034,293.9688
17:15:18:107,1.2762,3.3453,10.1719,53.1698,0.0186,0.0841,-0.0304,293.9375
17:15:18:107,0.7447,2.6414,10.9943,54.7826,-0.0445,-0.0334,-0.1244,293.8438
17:15:18:130,0.5963,2.0069,10.9177,54.1813,-0.0706,0.0446,-0.084,293.8594
17:15:18:148,0.7974,2.1291,10.2377,53.984,-0.1124,0.2505,0.0567,294
17:15:18:163,1.7168,2.3014,9.7553,54.5565,-0.2314,0.3528,0.1696,294.0781
17:15:18:184,2.2997,2.3529,10.2688,53.1819,-0.3963,0.2324,0.1126,293.9531
17:15:18:204,2.1118,1.7268,11.8107,55.3098,-0.5326,-0.0382,-0.0826,293.6406
17:15:18:234,1.3145,1.1821,12.0729,55.1523,-0.4895,-0.0584,-0.22,293.4375
17:15:18:244,1.0967,1.2743,10.5442,54.6171,-0.3278,0.1315,-0.142,293.5312
17:15:18:264,1.8915,2.0931,8.5354,54.8716,-0.3403,0.0191,0.099,293.7812
17:15:18:284,2.5547,2.7923,8.15,55.2185,-0.5364,-0.2065,-0.0749,293.8906
17:15:18:305,2.2626,2.8282,8.8718,56.4328,-0.5713,-0.1764,-0.2187,293.6406
17:15:18:325,1.0739,2.7575,8.9808,55.4946,-0.3167,-0.2401,-0.1103,293.6406
17:15:18:344,0.2455,2.9694,8.557,56.3224,0.1808,-0.659,0.1483,293.7656
17:15:18:364,0.8501,3.2041,7.5909,54.4691,0.551,-1.0808,0.3334,294.0156
17:15:18:383,1.7874,3.8337,7.1911,54.2649,0.6104,-1.0659,0.3448,294.2031
17:15:18:403,2.52,4.1545,7.1492,55.6882,0.4959,-0.6861,0.2007,294.1875
17:15:18:426,2.8097,4.2551,6.9744,54.803,0.2775,-0.1442,-0.0134,294.0938
17:15:18:444,2.5464,4.2419,6.8427,56.0518,0.0354,0.3458,-0.2041,293.9219
17:15:18:463,1.8856,4.1186,7.1863,56.2918,-0.0594,0.5586,-0.3071,293.9688
17:15:18:483,1.1972,3.8924,7.9094,57.6697,0.0511,0.4697,-0.2906,294.0312
17:15:18:504,0.8728,3.7763,8.4301,55.0054,0.2197,0.3336,-0.2275,294.2031
17:15:18:528,1.0033,3.7643,8.5438,56.1191,0.282,0.3248,-0.1817,294.4062
17:15:18:549,1.214,4.0815,8.4205,56.2396,0.1792,0.4726,-0.2267,294.5938
17:15:18:563,1.1924,4.2898,8.3415,57.982,-0.0698,0.6723,-0.3415,294.7344
17:15:18:583,0.3628,4.1174,9.219,56.5765,-0.314,0.8106,-0.3567,294.8594
17:15:18:604,-0.207,3.7284,10.6962,57.3852,-0.322,0.7531,-0.2573,295.0156
17:15:18:625,-0.4452,3.3046,11.9867,59.4603,-0.0748,0.5682,-0.1367,295.2188
17:15:18:644,-0.359,2.9706,11.7293,58.5573,0.1342,0.4159,-0.0406,295.3438
17:15:18:665,-0.1723,3.2998,11.4564,57.9457,0.1547,0.4758,0.005,295.375
17:15:18:683,-0.0585,3.5225,10.4472,57.852,-0.065,0.5703,-0.0294,295.3438
17:15:18:703,-0.5913,3.5045,9.565,59.9463,-0.5095,0.4151,0.0047,295.25
17:15:18:725,-0.7768,3.0879,11.1523,58.6132,-0.7265,0.1256,0.0886,295.1875
17:15:18:743,-0.4536,2.4499,13.3095,57.9235,-0.4461,-0.0472,0.1557,295.0625
17:15:18:764,-0.0993,1.989,13.076,58.2723,-0.0586,-0.0459,0.2082,294.9062
17:15:18:784,0.1545,2.1614,10.5238,58.5651,0.0024,-0.1335,0.2223,294.7188
17:15:18:803,0.7471,2.2296,8.8994,58.5997,-0.1678,-0.2675,0.1243,294.5312
17:15:18:824,1.0751,2.056,8.132,58.8405,-0.453,-0.317,-0.0461,294.2969
17:15:18:843,0.856,1.7173,8.5522,57.5598,-0.645,-0.1676,-0.1489,294.0938
17:15:18:863,0.5137,1.4695,9.0753,58.3274,-0.5393,0.0012,-0.1543,294
17:15:18:883,0.0205,1.4623,8.8611,58.2548,-0.2133,-0.0456,-0.109,294.0938
17:15:18:904,-0.286,1.2612,8.0877,58.1564,0.1451,-0.1791,0.0069,294.3438
17:15:18:925,-0.5003,1.2408,6.82,59.4397,0.3199,-0.2742,0.1667,294.4688
17:15:18:944,-0.4931,1.4108,5.9533,57.6682,0.2932,-0.2981,0.3062,294.5625
17:15:18:963,-0.3961,1.6598,5.6552,58.6363,0.1651,-0.3591,0.4133,294.5469
17:15:18:984,0.2204,2.0919,7.6149,60.1554,0.0818,-0.369,0.494,294.3438
17:15:19:005,0.5652,2.25,8.4325,59.0086,0.1183,-0.2691,0.5336,294.0312
17:15:19:027,0.4335,2.4606,8.5079,59.806,0.2197,-0.0992,0.532,293.5938
17:15:19:050,0.1773,2.9598,8.6588,59.3553,0.2501,0.0124,0.5376,293.1094
17:15:19:064,0.2994,3.216,8.818,58.4175,0.2365,0.0076,0.5376,292.5469
17:15:19:083,0.7423,3.3537,9.1065,61.1814,0.1835,-0.1192,0.5014,291.9531
17:15:19:103,1.196,3.3645,9.8163,59.7113,0.0493,-0.2291,0.4186,291.3594
17:15:19:125,1.4917,2.9335,11.114,58.7651,-0.1425,-0.2571,0.2868,290.7812
17:15:19:146,1.5599,2.0943,12.3961,59.2257,-0.2794,-0.2097,0.177,290.2969
17:15:19:165,1.4163,1.6143,12.1926,59.1864,-0.2594,-0.0105,0.1547,289.9688
17:15:19:185,1.3014,1.6993,10.9524,59.0511,-0.2386,0.2079,0.1571,289.7656
17:15:19:206,1.3648,1.7508,9.9361,59.0877,-0.3635,0.242,0.144,289.625
17:15:19:226,1.6689,1.6418,10.6663,58.4268,-0.6527,0.0494,0.0913,289.4219
17:15:19:244,1.8413,1.4264,13.264,58.9963,-0.9705,-0.2345,0.0383,289.1875
17:15:19:263,1.8867,1.242,14.2061,57.9025,-0.9428,-0.0835,0.0513,289
17:15:19:283,2.1717,1.7328,11.8323,58.9167,-0.5585,0.3821,0.1824,288.9531
17:15:19:305,3.0491,2.7623,8.1943,58.3787,-0.2144,0.7086,0.3408,288.9531
17:15:19:332,3.8464,3.4674,6.984,57.3214,-0.2701,0.3999,0.2705,288.7969
17:15:19:346,3.6417,3.1514,8.4241,59.1298,-0.5827,-0.129,-0.0539,288.0781
17:15:19:363,2.289,2.3768,10.033,59.8557,-0.7848,-0.329,-0.4105,287.7031
17:15:19:383,1.0188,1.9782,10.5969,58.1928,-0.7766,0.0124,-0.5527,287.7656
17:15:19:403,0.6262,1.8166,9.644,57.847,-0.5537,0.4798,-0.489,288.2812
17:15:19:428,0.7244,2.0943,8.2553,56.9063,-0.2256,0.7056,-0.3734,288.9062
17:15:19:444,1.226,2.2835,7.1145,57.9533,0.0237,0.647,-0.2901,289.3438
17:15:19:467,1.2511,2.4116,6.3208,56.9147,0.2091,0.4444,-0.3058,289.6562
17:15:19:483,1.1385,2.4104,6.4693,57.4594,0.2916,0.1464,-0.3628,289.6562
17:15:19:504,0.8752,2.1829,7.0965,57.7563,0.2985,-0.0595,-0.4278,290.1562
17:15:19:527,0.5496,2.1554,7.8399,54.7527,0.2365,-0.0057,-0.4605,290.5625
17:15:19:544,0.2479,2.1183,8.8539,55.2773,0.1276,0.1887,-0.456,291.0781
17:15:19:563,0.1725,2.0022,9.7062,55.8053,0.0796,0.3783,-0.4184,291.5938
17:15:19:583,-0.1112,2.1877,9.7433,55.5614,0.1726,0.5152,-0.3543,292.0781
17:15:19:603,-0.5901,2.2847,9.2573,54.7633,0.3265,0.4694,-0.2991,292.5
17:15:19:624,-0.8869,2.2775,9.2681,55.7679,0.3832,0.267,-0.2115,292.8281
17:15:19:643,-0.6894,1.9914,10.1563,55.0497,0.3031,0.0311,-0.0914,293.0938
17:15:19:663,-0.4129,1.7173,11.351,55.0253,0.1875,-0.2049,-0.0062,293.3125
17:15:19:683,0.042,1.6023,12.2141,54.4918,-0.2972,-0.3085,0.0101,293.4375
17:15:19:703,0.5747,1.5018,13.926,52.4254,-0.6203,-0.3365,-0.0762,293.5
17:15:19:724,0.3724,1.0876,16.3022,52.9484,-0.5867,-0.129,-0.1503,293.5312
17:15:19:744,-0.6224,0.3729,17.0564,53.0367,-0.1475,0.2207,-0.0837,293.5469
17:15:19:763,-1.3897,-0.1275,14.3115,52.7798,0.2874,0.4822,0.1608,293.8125
17:15:19:783,-1.4639,0.3921,10.4245,51.1177,0.3936,0.3517,0.4223,293.8594
17:15:19:803,-0.7589,1.157,7.8627,50.8374,0.2392,-0.1112,0.5217,293.7656
17:15:19:824,0.0719,1.7603,7.3276,52.3131,-0.0043,-0.5652,0.4359,293.3906
17:15:19:846,0.4754,1.7651,8.5067,50.6909,-0.1443,-0.6853,0.3043,293.1094
17:15:19:862,0.6035,1.5652,9.2753,48.4934,-0.1473,-0.4944,0.2079,292.5625
17:15:19:883,0.2383,1.4108,9.2381,50.2739,-0.0668,-0.2552,0.1802,291.9375
17:15:19:902,-0.0909,1.3605,8.5965,50.3308,0.0522,-0.092,0.2396,291.9375
17:15:19:926,0.0576,1.5197,7.6029,50.5073,0.1646,-0.076,0.3033,291.7812
17:15:19:945,0.2407,1.7819,6.8128,49.5687,0.2655,-0.2267,0.3137,291.625
17:15:19:965,0.2168,1.8837,6.5243,49.5687,0.3529,-0.4366,0.3094,291.3594
17:15:19:982,0.3473,1.7544,6.6177,47.4041,0.4192,-0.5093,0.3177,291.0625
17:15:20:003,0.4371,1.7951,6.5854,47.725,0.4392,-0.4744,0.3182,290.75
17:15:20:025,0.631,1.9435,6.5267,48.2985,0.3981,-0.4022,0.3067,290.4844
17:15:20:043,1.1984,2.1841,6.6344,48.9461,0.3065,-0.3647,0.2287,290.25
17:15:20:064,1.5587,2.463,7.4473,47.1155,0.2397,-0.337,0.0652,290
17:15:20:083,1.2834,2.5085,8.3762,47.2042,0.2424,-0.3173,-0.1079,289.7344
17:15:20:103,0.4203,2.1542,8.958,47.9365,0.2131,-0.3511,-0.154,289.5625
17:15:20:125,0.0205,1.6562,9.8642,46.6228,0.1449,-0.3676,-0.077,289.5625
17:15:20:166,0.3461,1.4156,11.0793,48.0426,0.0703,-0.3109,-0.0177,289.8906
17:15:20:167,0.9793,1.2073,12.1543,47.3925,0.028,-0.1319,-0.028,290.0938
17:15:20:183,1.3756,1.0672,12.432,46.5906,-0.0453,0.0889,-0.0653,290.2031
17:15:20:203,1.8855,1.0816,11.9807,47.9008,-0.1989,0.2186,-0.1476,290.2812
17:15:20:226,2.5212,1.1821,11.0637,47.3621,-0.514,0.0177,-0.3465,290.3438
17:15:20:242,2.702,1.1343,11.7317,47.2991,-0.9196,-0.4361,-0.6216,290.4062
17:15:20:266,2.0543,0.1107,15.1901,47.3119,-0.897,-0.3229,-0.7434,290.625
17:15:20:282,0.9746,-1.0469,16.6111,46.5213,-0.404,0.242,-0.5583,291.2344
17:15:20:303,0.7435,-1.1031,13.5369,49.2706,0.0442,0.6785,-0.1404,292.0938
17:15:20:325,1.8915,-0.015,8.8742,48.3768,0.0631,0.4388,0.1509,292.9062
17:15:20:343,3.4573,1.2073,6.4321,46.8641,-0.2506,-0.2236,0.0833,293.2188
17:15:20:363,4.1014,2.1063,7.3814,48.7473,-0.5494,-0.5359,-0.186,293.0625
17:15:20:383,2.4829,1.7197,8.1069,46.4984,-0.595,-0.1511,-0.4701,292.8594
17:15:20:403,1.3421,1.6646,7.0211,46.4049,-0.5955,0.4311,-0.5764,292.9844
17:15:20:426,0.7938,1.7113,6.7482,46.5948,-0.5838,0.7206,-0.5351,293.4375
17:15:20:443,0.5436,1.9172,6.8571,45.8987,-0.4695,0.6963,-0.4539,294.0156
17:15:20:462,0.6394,2.0201,7.215,48.3718,-0.2565,0.4662,-0.3665,294.5469
17:15:20:482,0.7064,2.1458,7.543,48.1047,0.0157,0.2012,-0.2933,295
17:15:20:502,0.5209,2.3481,7.8435,46.7026,0.2645,-0.0241,-0.2451,295.3438
17:15:20:523,0.5436,2.5133,8.0267,48.462,0.4397,-0.1452,-0.1934,295.6719
17:15:20:542,0.6717,2.718,8.5534,47.2882,0.4972,-0.161,-0.1385,295.9688
17:15:20:562,1.0344,3.0233,9.2178,48.893,0.5079,-0.1189,-0.0887,296.25
17:15:20:582,1.3397,3.2807,9.6918,48.621,0.5345,-0.0369,-0.081,296.4688
17:15:20:603,0.9386,3.2795,10.0989,47.6723,0.5619,0.0156,-0.1428,296.7031
17:15:20:622,0.2838,2.9886,10.6004,47.899,0.5912,0.018,-0.186,296.8125
17:15:20:643,-0.0717,2.7695,11.1547,47.0395,0.603,0.0228,-0.1063,296.9844
17:15:20:662,0.4023,2.7695,11.2301,47.2423,0.5989,0.092,0.0633,297.2188
17:15:20:682,1.1062,2.7456,11.0937,47.108,0.5398,0.1549,0.1741,297.375
17:15:20:703,1.0667,2.7061,11.1487,45.7674,0.3689,0.1938,0.1363,297.3125
17:15:20:722,0.8489,2.5959,11.3522,48.1899,0.0767,0.2782,0.0585,297.0938
17:15:20:743,0.9087,2.4439,11.9053,47.6911,-0.2538,0.3075,0.0159,296.9219
17:15:20:763,0.7699,1.8908,13.9032,48.8812,-0.5084,-0.0443,-0.0384,296.7969
17:15:20:782,0.3174,0.8817,15.396,46.7233,-0.4727,-0.4081,-0.1005,296.7031
17:15:20:803,-0.2776,0.1347,13.9427,47.9143,-0.1076,-0.2584,-0.0861,296.7344
17:15:20:826,-0.5003,0.2376,10.6819,47.064,0.244,0.1924,0.083,296.9062
17:15:20:845,0.3377,0.9032,8.0087,49.1735,0.3009,0.455,0.3312,297.0469
17:15:20:862,1.4295,1.667,6.7003,47.8924,0.0935,0.3517,0.4378,297.0312
17:15:20:883,1.6389,2.1494,6.8858,47.8729,-0.2021,0.0835,0.3421,296.7188
17:15:20:903,0.9458,1.6035,8.3559,48.7305,-0.3936,-0.3037,0.1304,296.2031
17:15:20:926,0.1067,1.0888,8.9879,48.5164,-0.2993,-0.5423,0.0356,295.6719
17:15:20:943,-0.0154,0.9284,8.5702,47.689,-0.0466,-0.4944,0.1565,295.4062
17:15:20:962,0.1869,1.3162,7.5083,47.6913,0.1971,-0.3594,0.3509,295.4219
17:15:20:982,0.4251,1.6646,7.2785,47.9575,0.3049,-0.3458,0.4764,295.4375
17:15:21:002,0.5999,1.6897,7.5514,48.4755,0.3603,-0.4089,0.5123,295.2188
17:15:21:023,0.5173,1.716,7.7226,47.8301,0.4365,-0.3921,0.5075,294.5625
17:15:21:042,0.5209,1.7472,7.6759,46.827,0.53,-0.3109,0.5334,294.0938
17:15:21:062,0.5963,2.0776,7.3779,47.9152,0.5846,-0.2081,0.5893,293.6094
17:15:21:082,1.2152,2.5097,7.5191,48.8432,0.4602,-0.1873,0.638,293.0625
17:15:21:102,1.7886,2.8653,8.0063,48.3932,0.4067,-0.1546,0.5137,292.4688
17:15:21:122,2.0172,3.3178,8.2852,49.8135,0.3452,-0.0568,0.3208,291.7656
17:15:21:143,2.0017,3.4459,8.2362,48.475,0.2157,-0.0105,0.0769,291.0625
17:15:21:166,1.1589,3.1753,8.3703,47.6344,0.0083,-0.1543,-0.0464,290.1719
17:15:21:181,0.7148,2.4726,9.8834,48.5992,-0.1289,-0.2976,0.0061,290.1719
17:15:21:201,0.9339,1.9734,11.6587,49.8886,-0.082,-0.3314,0.1169,290.0781
17:15:21:222,1.4295,1.6239,12.3506,49.2288,0.0312,-0.235,0.2095,290.1719
17:15:21:242,2.0232,1.3737,11.6383,50.639,0.0021,-0.0041,0.2748,290.2344
17:15:21:262,2.6373,1.7807,10.1408,47.0698,-0.2924,0.0899,0.2197,290.1875
17:15:21:282,3.291,2.1183,9.6069,48.7736,-0.6999,-0.2193,0.0071,290
17:15:21:302,3.4107,1.9722,11.515,47.1166,-0.9188,-0.5642,-0.2653,289.7031
17:15:21:322,2.7247,1.0086,13.8901,48.2914,-0.7462,-0.4465,-0.3721,289.4375
17:15:21:343,1.846,0.2448,14.4036,48.8684,-0.2671,-0.0499,-0.1942,289.5156
17:15:21:362,1.8305,0.2544,12.0034,47.3538,0.1286,0.2705,0.1286,289.9688
17:15:21:382,2.8157,1.1426,8.4014,48.4697,0.0908,0.0939,0.3073,290.5
17:15:21:402,3.9278,2.2751,6.8571,49.6345,-0.245,-0.3495,0.2018,290.7344
17:15:21:423,4.6317,2.7671,7.9465,48.7514,-0.5199,-0.4014,-0.1082,290.5312
17:15:21:442,3.9134,2.4164,8.7653,47.629,-0.6067,-0.0374,-0.3697,290.1719
17:15:21:466,2.6301,2.159,8.6396,48.5218,-0.5513,0.3823,-0.4187,290.0938
17:15:21:482,2.1094,2.0237,7.8687,48.1321,-0.392,0.5448,-0.3774,290.4688
17:15:21:502,1.937,2.2619,7.1468,50.3129,-0.2045,0.3682,-0.3468,290.9219
17:15:21:523,1.8616,2.3864,7.063,49.7409,0.0051,0.0388,-0.3503,291.2969
17:15:21:542,1.7311,2.2141,7.2665,48.579,0.1918,-0.1143,-0.3247,291.625
17:15:21:566,1.4187,2.1817,6.9146,48.3873,0.2314,-0.0907,-0.2512,291.9688
17:15:21:582,1.2786,2.3098,6.7578,48.7814,0.1174,-0.0259,-0.1308,292.375
17:15:21:602,1.5839,2.5756,7.3156,48.1706,-0.008,0.079,-0.0046,292.7188
17:15:21:621,2.1932,2.9993,8.4433,49.0277,-0.0184,0.16,0.0396,292.9531
17:15:21:642,2.4518,3.4351,9.7337,49.5562,0.1667,0.1613,-0.0081,293.0156
17:15:21:662,2.2986,3.4147,10.2641,47.93,0.4232,0.0747,-0.052,292.9531
17:15:21:681,1.8185,3.1633,9.8822,48.8372,0.5297,-0.0379,-0.0115,292.8906
17:15:21:702,1.5803,3.0448,10.0366,49.8459,0.4828,-0.1535,0.0788,292.9062
17:15:21:722,1.7455,2.9144,11.0218,47.1575,0.4107,-0.1207,0.1035,292.9375
17:15:21:742,1.9059,2.5792,12.0382,49.8107,0.3638,0.0438,0.0431,292.9062
17:15:21:763,1.7048,1.7005,12.3865,46.7384,0.3057,0.2865,0.0034,292.8281
17:15:21:784,0.8908,1.2205,11.9556,47.9044,0.155,0.5664,0.0532,292.7344
17:15:21:802,-0.7744,0.9415,11.7724,49.0879,-0.0338,0.6809,0.1592,292.6719
17:15:21:823,-0.5386,0.7967,11.9663,49.2479,-0.1172,0.5544,0.3499,292.5469
17:15:21:844,0.0516,0.9559,12.3578,48.385,-0.0866,0.2508,0.5488,292.3125
17:15:21:873,0.6346,1.0098,11.8837,49.3448,0.0634,0.0295,0.6436,291.875
17:15:21:882,0.6992,1.2635,9.9923,49.2968,0.229,0.0843,0.6127,291.2656
17:15:21:905,1.0811,1.6071,8.5151,46.9607,0.1808,0.1245,0.5997,290.2031
17:15:21:925,1.8915,1.9519,8.4205,49.0747,-0.0546,0.0023,0.6111,289.4844
17:15:21:946,2.4362,2.0836,8.6743,48.7826,-0.2541,-0.113,0.5185,288.7656
17:15:21:967,2.5799,2.1494,8.0339,48.872,-0.286,-0.0427,0.3483,288.1094
17:15:21:981,2.2806,2.2919,7.087,49.1068,-0.2653,0.1514,0.1754,287.5312
17:15:22:002,1.5025,2.1219,6.5507,49.1067,-0.2716,0.3253,0.0053,287.3281
17:15:22:025,0.8812,1.7987,7.0415,47.0973,-0.2897,0.2753,-0.0501,287.0156
17:15:22:044,0.7363,1.7879,7.5849,49.6255,-0.2064,0.1528,0.0625,286.875
17:15:22:066,1.0727,2.074,7.7956,47.8243,-0.0261,0.0601,0.2234,286.875
17:15:22:083,1.5719,2.3613,7.7322,49.1326,0.1534,0.0052,0.3208,286.8281
17:15:22:101,1.6701,2.5145,7.5203,48.0188,0.2605,0.0271,0.3142,286.6562
17:15:22:122,1.4714,2.5696,7.5299,49.5298,0.2754,0.0665,0.2801,286.3281
17:15:22:142,1.2224,2.6007,8.308,47.8589,0.2306,0.0406,0.2955,285.9531
17:15:22:161,1.3696,2.7731,9.2884,48.8099,0.2314,-0.0472,0.3746,285.5938
17:15:22:272,1.8377,3.2471,9.3578,46.7895,0.3159,-0.0534,0.4471,285.2812
17:15:22:272,2.4769,3.544,9.371,47.4521,0.3137,-0.0478,0.4114,284.9062
17:15:22:272,2.5906,3.3657,10.3479,48.2979,0.1417,-0.1165,0.2489,284.4375
17:15:22:272,2.0783,2.4882,12.0214,47.8424,-0.0573,-0.2041,0.0532,283.9531
17:15:22:272,1.5575,1.4766,13.2221,47.8398,-0.1076,-0.2518,-0.0072,283.5625
17:15:22:281,1.8472,1.1726,12.6463,49.2456,0.0157,-0.0867,0.1363,283.4375
17:15:22:305,2.5918,1.7184,10.7214,47.4622,0.1092,0.1056,0.2873,283.5
17:15:22:325,3.2502,2.4008,9.5398,46.2353,-0.0522,0.0678,0.2228,283.3906
17:15:22:348,3.8081,2.1997,11.381,47.167,-0.4594,-0.3303,-0.0634,282.7656
17:15:22:363,3.109,1.0457,14.3198,46.1331,-0.5571,-0.4462,-0.7253,282.9219
17:15:22:382,2.0938,0.0042,14.4084,46.651,-0.0919,0.1962,-0.6797,283.6406
17:15:22:404,1.931,0.0317,10.7429,46.9054,0.1196,0.5807,-0.4813,284.5938
17:15:22:423,2.6146,1.0684,6.8643,46.387,-0.1156,0.2159,-0.4286,285.2969
17:15:22:447,3.692,2.1003,5.9294,46.5567,-0.5182,-0.3492,-0.6608,285.7188
17:15:22:466,4.0858,2.3206,7.1707,46.2033,-0.7723,-0.599,-1.0416,286.1719
17:15:22:485,3.2395,1.637,8.4756,46.5331,-0.8192,-0.3317,-1.3005,286.9531
17:15:22:505,1.5743,0.9691,8.3679,44.6816,-0.8048,0.1538,-1.2667,288.2812
17:15:22:531,0.3844,0.7284,7.5514,45.161,-0.7803,0.4785,-1.0318,288.2812
17:15:22:550,0.1258,0.9631,7.4066,45.4062,-0.6828,0.5703,-0.7732,291.2969
17:15:22:561,0.3724,1.3988,7.5885,45.0933,-0.474,0.5416,-0.599,291.2969
17:15:22:581,0.9626,1.7172,7.251,45.7492,-0.2906,0.3869,-0.5439,292.3594
17:15:22:602,1.2655,1.9052,6.9529,43.9825,-0.2272,0.2177,-0.5447,293.1562
17:15:22:622,1.4905,1.9806,6.8535,44.4892,-0.2754,0.0343,-0.5729,293.75
17:15:22:643,1.7706,2.0704,7.6939,44.0553,-0.3361,-0.0526,-0.6139,294.2812
17:15:22:664,1.518,2.2284,9.3423,44.1775,-0.2325,0.0071,-0.6752,294.875
17:15:22:681,0.5771,2.0453,11.2182,42.4864,0.0799,0.058,-0.6584,295.5156
17:15:22:701,0.0887,1.2193,11.8047,40.4021,0.4642,0.2502,-0.4688,296.1875
17:15:22:722,-0.1208,1.2935,10.4747,42.1148,0.603,0.3158,-0.2379,296.9531
17:15:22:742,0.0552,1.7771,9.6236,41.4286,0.4368,0.2146,-0.1375,297.7031
17:15:22:766,-0.0741,1.6945,10.5681,42.3314,0.2453,0.1658,-0.0797,298.3438
17:15:22:781,-0.1531,0.9655,12.1483,40.9418,0.2123,0.2012,0.0231,298.5156
17:15:22:801,-0.5434,0.5142,12.9133,40.8366,0.2578,0.1778,0.2037,298.625
17:15:22:821,-0.4404,0.5237,12.9288,41.2117,0.232,0.1727,0.3832,298.6562
17:15:22:843,0.1809,0.8853,12.6092,40.3171,0.1153,0.1086,0.4439,298.5156
17:15:22:861,1.0655,1.1019,12.687,40.3313,-0.0325,-0.0867,0.3603,298.1562
17:15:22:881,1.3995,0.9308,13.853,40.7631,-0.0072,-0.1538,0.1951,297.6406
17:15:22:901,0.6753,0.1658,14.0481,41.016,0.2354,0.1112,0.1528,297.1875
17:15:22:922,0.0097,-0.1454,12.0453,39.9783,0.4157,0.3853,0.2934,296.8906
17:15:22:941,0.121,0.2029,8.9724,40.7221,0.3132,0.2635,0.43,296.7344
17:15:22:961,0.8381,0.7668,7.4557,39.5618,0.0362,-0.1032,0.4564,296.4844
17:15:22:981,1.7359,1.1809,7.8507,38.9832,-0.1587,-0.3668,0.3459,296
17:15:23:001,1.8987,1.2803,8.9975,40.1264,-0.1406,-0.3319,0.168,295.4688
17:15:23:021,0.935,0.9571,9.0382,39.3026,-0.0447,-0.1413,0.1424,295.0312
17:15:23:041,0.2731,0.7668,8.3176,40.9708,0.024,-0.0105,0.2673,294.8281
17:15:23:065,0.1497,0.9954,7.6652,38.8518,0.0772,-0.0251,0.401,294.7188
17:15:23:081,0.4107,1.315,7.4641,40.1307,0.1875,-0.1242,0.4671,294.5
17:15:23:102,0.9075,1.5221,7.1947,39.3885,0.2975,-0.186,0.441,294.3281
17:15:23:122,1.1026,1.5892,6.7865,39.9611,0.3377,-0.1748,0.3826,293.8906
17:15:23:142,1.0536,1.6059,6.3795,39.7321,0.2674,-0.1277,0.3246,293.3906
17:15:23:161,0.698,1.5928,6.4704,41.2308,0.1443,-0.1255,0.3201,292.9219
17:15:23:182,0.4251,1.5425,7.5335,39.0747,0.1414,-0.2164,0.3992,292.3594
17:15:23:202,1.117,2.0093,9.4476,38.695,0.3127,-0.3546,0.4721,292.0312
17:15:23:223,1.4833,2.5397,8.9676,38.6913,0.5137,-0.3468,0.4636,291.6719
17:15:23:242,1.4259,2.6857,8.4828,38.8226,0.506,-0.2331,0.3366,291.2344
17:15:23:274,0.9458,2.4499,9.3411,39.7918,0.2288,-0.1602,0.1627,290.7656
17:15:23:281,0.3209,1.7017,11.7401,37.4587,-0.0919,-0.1751,0.0639,290.3438
17:15:23:300,0.2084,0.9751,13.4783,37.8709,-0.1497,-0.1682,0.1259,290.1094
17:15:23:322,0.8297,0.6806,13.5693,37.4489,0.0743,-0.0614,0.3483,290.0312
17:15:23:343,1.7467,1.0337,11.4684,39.5357,0.3931,0.1142,0.5459,289.9844
17:15:23:361,2.5224,1.6466,8.958,39.4599,0.4602,0.2087,0.5794,289.7656
17:15:23:380,3.1066,1.9172,7.9596,38.2539,0.1151,0.0899,0.3994,289.25
17:15:23:401,3.4358,1.2659,10.7225,37.5317,-0.5361,-0.3391,0.0761,288.5312
17:15:23:424,2.8073,0.337,14.2552,38.0468,-1.004,-0.5519,-0.2406,287.8906
17:15:23:443,2.6589,0.076,14.8238,38.7852,-0.8796,-0.1615,-0.3444,287.6406
17:15:23:472,3.0683,0.3693,10.8016,38.3946,-0.3252,0.4279,-0.2765,287.8906
17:15:23:480,3.7925,1.1797,7.3479,37.8193,-0.0101,0.4241,-0.2342,288.3594
17:15:23:501,4.4797,1.6885,7.0917,38.6836,-0.1872,-0.1381,-0.3335,288.7031
17:15:23:522,3.765,1.4383,8.6683,39.7012,-0.5372,-0.5431,-0.6355,288.8906
17:15:23:541,1.9837,0.817,10.2162,39.4193,-0.7422,-0.3983,-0.9026,289.1562
17:15:23:564,0.619,0.4459,10.0115,39.2889,-0.6919,0.1717,-0.881,289.7656
17:15:23:581,0.3126,0.6554,8.5893,38.5877,-0.4522,0.5975,-0.6235,290.7344
17:15:23:600,0.6226,1.1774,7.7753,40.8867,-0.2152,0.5608,-0.3372,291.8438
17:15:23:621,1.1577,1.5975,7.6065,39.5648,-0.025,0.2942,-0.1508,292.9219
17:15:23:643,1.4043,1.8142,7.2127,39.2936,0.1723,0.0665,-0.0954,293.2031
17:15:23:660,1.4211,2.056,6.8655,40.847,0.2799,-0.0459,-0.1007,293.3438
17:15:23:681,1.5121,2.2152,7.1959,40.7669,0.2232,-0.0358,-0.1119,293.4375
17:15:23:701,1.7251,2.3864,7.986,37.624,0.1121,0.0279,-0.1266,293.5469
17:15:23:721,1.8401,2.5133,8.2158,39.1418,0.0698,0.1765,-0.17,293.6875
17:15:23:743,1.7407,2.5205,7.9932,40.0047,0.0953,0.2849,-0.2531,293.8281
17:15:23:760,1.445,2.5038,7.7765,40.173,0.1108,0.2691,-0.3391,293.9844
17:15:23:781,1.0332,2.5971,8.065,40.0992,0.0815,0.1536,-0.3769,294.2188
17:15:23:800,0.6729,2.6845,9.1819,39.9569,0.0346,0.005,-0.3689,294.5625
17:15:23:822,0.3999,2.6318,10.6974,39.7198,0.036,-0.0723,-0.326,294.9688
17:15:23:844,0.2252,2.3362,11.43,39.646,0.1409,-0.0145,-0.2501,295.375
17:15:23:861,0.3305,2.0668,11.6252,38.9987,0.2629,0.0263,-0.1364,295.75
17:15:23:881,0.8524,1.9052,11.3307,40.4259,0.3366,0.0074,-0.0161,296.0469
17:15:23:901,1.5671,1.7603,11.0362,38.9583,0.0165,-0.0989,-0.0371,296.2031
17:15:23:921,1.8448,1.7448,11.4887,39.167,-0.3795,0.0558,-0.1535,296.2188
17:15:23:943,1.4163,1.412,12.6978,40.2937,-0.5728,0.2146,-0.2318,296.2344
17:15:23:961,0.7028,0.7416,13.4555,40.8321,-0.498,0.2052,-0.1881,296.2812
17:15:23:980,0.1857,0.2292,13.7452,39.6682,-0.2088,0.1741,-0.0251,296.4375
17:15:24:000,-0.0047,-0.1239,12.8103,41.3306,0.1545,0.1655,0.1712,296.6562
17:15:24:022,0.0731,0.0916,10.2617,39.9214,0.2655,0.0276,0.3307,296.8125
17:15:24:042,0.6454,0.4974,8.4193,39.9214,0.0634,-0.2648,0.3864,296.7344
17:15:24:060,1.4965,0.8051,8.6109,39.2459,-0.2013,-0.4068,0.3254,296.4219
17:15:24:081,2.0089,0.8338,9.4105,41.2087,-0.3377,-0.2883,0.1965,296.0156
17:15:24:100,1.3085,0.8146,9.8259,40.4916,-0.3076,-0.0747,0.1504,295.6719
17:15:24:122,0.552,0.6423,9.401,40.8726,-0.1491,0.0729,0.2519,295.4375
17:15:24:142,0.4478,0.6171,8.1057,40.0981,-0.0205,0.083,0.3989,295.2812
17:15:24:163,1.062,0.9355,6.911,40.9538,-0.0282,-0.0419,0.4593,295.1875
17:15:24:180,1.5432,1.3426,6.808,41.1165,-0.0858,-0.1785,0.393,294.9062
17:15:24:200,1.3385,1.4431,7.8531,41.2215,-0.0077,-0.2728,0.3653,294.4375
17:15:24:220,1.0955,1.4886,8.7162,42.3135,0.192,-0.2132,0.4007,293.9219
17:15:24:240,1.0548,1.7089,8.5534,40.7372,0.3606,-0.0968,0.429,293.5156
17:15:24:264,1.1014,2.0237,7.962,42.4635,0.4267,-0.0377,0.4047,293.1406
17:15:24:329,0.9542,2.2931,7.5107,41.8216,0.3838,-0.0571,0.3568,292.7188
17:15:24:330,0.9255,2.4978,7.6388,39.5956,0.2807,-0.1306,0.3027,292.2656
17:15:24:330,1.1661,2.7204,8.6252,42.1272,0.2341,-0.1716,0.2031,291.7969
17:15:24:347,1.4953,2.73,9.6176,38.9583,0.2831,-0.1218,0.0665,291.4062
17:15:24:363,1.4618,2.4942,9.4836,41.8229,0.2762,-0.0401,-0.0613,291.0781
17:15:24:381,0.9985,2.0848,9.0095,40.8735,0.0865,-0.0677,-0.0981,290.8906
17:15:24:400,0.959,1.4706,9.7481,42.1173,-0.1454,-0.1522,-0.04,290.8281
17:15:24:422,1.0775,0.8446,11.6922,42.1028,-0.2053,-0.1684,0.067,290.9062
17:15:24:444,1.0799,0.1945,12.9982,42.9658,-0.0245,-0.0816,0.2556,291.0625
17:15:24:460,1.3864,-0.1167,12.3303,41.3631,0.1404,0.0044,0.4569,291.0938
17:15:24:480,2.0328,0.1263,10.7477,43.9447,0.1167,-0.0483,0.5398,290.9531
17:15:24:500,2.9438,0.562,9.4871,43.2211,-0.1417,-0.2033,0.4149,290.5625
17:15:24:523,3.4262,0.653,9.0885,41.1176,-0.6501,-0.3916,0.1664,289.9688
17:15:24:547,3.2622,0.1395,11.3774,43.334,-1.077,-0.4241,-0.0275,289.4062
17:15:24:561,2.708,-0.4112,15.2057,42.6559,-0.8634,0.0667,-0.04,289.125
17:15:24:580,2.4027,-0.4818,15.8761,44.7801,-0.1111,0.6678,0.079,289.1875
17:15:24:601,2.9845,-0.0018,11.2289,43.2437,0.327,0.6614,0.1515,289.3281
17:15:24:620,4.8412,1.4371,7.0379,43.8288,0.1443,0.0825,-0.0171,289.2656
17:15:24:644,4.0571,0.9092,9.4069,43.5786,-0.2708,-0.4033,-0.4091,289
17:15:24:659,2.277,0.3669,10.1192,45.5063,-0.4591,-0.2116,-0.7354,288.8125
17:15:24:680,0.8261,0.2089,9.0011,44.4122,-0.4168,0.3213,-0.7865,289.0781
17:15:24:701,0.4478,0.3454,7.4497,44.5418,-0.2988,0.6665,-0.5993,289.7969
17:15:24:720,0.88,0.9439,6.9888,45.6629,-0.1928,0.5975,-0.3276,290.7031
17:15:24:746,1.6162,1.5927,7.0151,45.102,-0.0107,0.2287,-0.1484,291.4531
17:15:24:774,1.8077,1.9902,6.8631,45.0821,0.2471,-0.1572,-0.1444,291.8906
17:15:24:779,1.7599,2.135,7.1588,45.2401,0.3702,-0.3711,-0.2041,292.0781
17:15:24:805,1.779,2.1494,7.9537,44.7212,0.327,-0.3479,-0.2486,292.2188
17:15:24:819,1.8628,2.3182,8.8275,45.2493,0.2394,-0.1269,-0.2611,292.4531
17:15:24:840,2.1202,2.6689,8.897,44.9585,0.2511,0.1778,-0.2491,292.75
17:15:24:860,2.1705,2.9622,8.6599,44.719,0.3337,0.3381,-0.2893,293.0938
17:15:24:880,1.7838,2.912,8.7617,44.719,0.3896,0.3376,-0.3854,293.375
17:15:24:899,0.9566,2.6007,9.5626,46.4541,0.4264,0.2087,-0.4563,293.7656
17:15:24:927,0.4873,2.2691,9.948,45.9083,0.5577,0.0188,-0.411,294.1406
17:15:24:944,0.2599,2.3924,9.6284,46.2937,0.7129,-0.0947,-0.2688,294.6406
17:15:24:963,0.4706,2.4547,9.8391,47.0008,0.6756,-0.1586,-0.1111,295.0781
17:15:24:984,1.105,2.4128,10.5945,46.8221,0.4794,-0.1245,0.0255,295.4219
17:15:25:002,1.7072,2.5157,10.5968,47.5356,0.2868,0.0779,0.0796,295.5781
17:15:25:029,1.8173,2.5528,10.3048,46.4777,0.0676,0.2702,0.0034,295.5781
17:15:25:045,1.4606,2.2404,10.7848,47.9911,-0.2264,0.3336,-0.1378,295.4844
17:15:25:063,1.0129,1.6263,11.6982,47.9597,-0.4671,0.2894,-0.2493,295.4219
17:15:25:080,0.3952,1.1714,12.7061,47.8015,-0.5342,0.1024,-0.3023,295.5156
17:15:25:100,-0.1962,0.5728,13.7321,48.8812,-0.4549,-0.1317,-0.2722,295.7188
17:15:25:124,-0.4991,0.0521,13.2891,48.6623,-0.2234,-0.0622,-0.1292,296.3594
17:15:25:143,-0.1783,0.3502,10.7345,48.3594,0.0831,0.25,0.1248,296.5156
17:15:25:166,0.6106,0.9332,8.4265,47.7149,0.0179,0.0396,0.3701,296.3281
17:15:25:182,1.5312,1.2384,7.8926,46.8015,-0.286,-0.2358,0.2527,295.8906
17:15:25:205,1.7694,1.2312,8.9173,47.0549,-0.4456,-0.2949,0.0836,295.4531
17:15:25:224,0.9925,0.8493,9.7852,48.6426,-0.3635,-0.1556,0.0314,295.2188
17:15:25:245,0.2862,0.6087,9.5626,49.0642,-0.1507,0.0367,0.1499,295.1719
17:15:25:264,0.1964,0.5932,8.2481,48.3546,0.041,0.0723,0.3291,295.1562
17:15:25:285,0.4742,1.1247,6.9277,47.3706,0.0703,-0.1442,0.4447,294.9844
17:15:25:300,0.9997,1.6215,7.081,48.2795,0.077,-0.2949,0.4394,294.5938
17:15:25:323,0.9207,1.6131,7.8651,49.3527,0.1675,-0.3114,0.426,294.5938
17:15:25:342,0.6106,1.4491,8.3068,48.0927,0.2985,-0.1932,0.5041,293.875
17:15:25:367,0.6334,1.5533,7.9477,49.2535,0.363,-0.0433,0.5925,293.875
17:15:25:380,0.8776,2.0273,7.2318,49.1152,0.3143,-0.0891,0.6162,293.25
17:15:25:400,1.3935,2.4834,7.3647,49.9039,0.1851,-0.1956,0.5374,292.7031
17:15:25:419,1.7551,2.7288,8.5714,49.035,0.1422,-0.2241,0.4191,292.0312
17:15:25:441,1.8245,2.7515,9.7433,49.3617,0.232,-0.1261,0.2756,291.375
17:15:25:459,1.5444,2.6402,9.7254,49.3919,0.2754,-0.0624,0.1637,290.7969
17:15:25:479,1.1721,2.3505,9.5518,48.9427,0.1776,-0.093,0.1307,290.3594
17:15:25:499,1.1086,2.135,10.0234,50.4211,-0.0053,-0.2627,0.1414,290.0781
17:15:25:520,1.3983,1.5868,11.8538,48.9427,-0.0631,-0.358,0.1837,289.8906
17:15:25:541,1.7431,1.0014,13.3729,49.3966,0.0929,-0.2137,0.2966,289.7656
17:15:25:560,2.3799,0.7512,13.1934,50.3134,0.3087,0.01,0.3773,289.6562
17:15:25:580,3.0647,1.0684,11.0099,49.5392,0.3036,0.1229,0.3153,289.5156
17:15:25:599,3.7446,1.4874,9.055,50.7787,0.0306,-0.0358,0.0668,289.2188
17:15:25:621,4.0128,1.4479,8.5175,48.862,-0.3803,-0.3594,-0.2448,288.7812
17:15:25:641,3.9206,0.9786,10.5598,50.6291,-0.6951,-0.5011,-0.4747,288.3906
17:15:25:660,3.3628,0.3107,13.2341,52.1428,-0.5926,-0.1636,-0.5546,288.3281
17:15:25:680,2.5009,-0.2304,13.6327,51.4844,-0.1893,0.2814,-0.4272,288.6875
17:15:25:699,2.5464,-0.1802,10.6543,50.8015,0.0149,0.4508,-0.2283,289.3281
17:15:25:720,3.0922,0.6279,7.8663,50.2053,-0.1177,0.1605,-0.1676,290.0156
17:15:25:747,3.5771,1.321,7.2103,49.8099,-0.3609,-0.1711,-0.3063,290.4531
17:15:25:760,3.2538,1.4814,8.4241,52.2276,-0.4727,-0.113,-0.4682,290.6406
17:15:25:779,2.259,1.3378,8.9425,52.1545,-0.404,0.2044,-0.5021,290.7969
17:15:25:799,1.4235,1.3294,8.2888,50.1907,-0.2831,0.3549,-0.4155,291.4688
17:15:25:820,1.2331,1.509,7.749,51.2286,-0.1497,0.2987,-0.2973,292.0312
17:15:25:844,1.4259,1.8382,7.7897,50.9524,0.0429,0.1701,-0.2344,292.5
17:15:25:860,1.7718,2.1159,7.5862,51.6466,0.2248,0.0185,-0.2528,292.8594
17:15:25:881,1.9454,2.402,7.4257,51.5773,0.3124,-0.048,-0.3223,293.1094
17:15:25:900,1.9119,2.4858,7.3922,52.5324,0.3153,-0.0451,-0.3998,293.3438
17:15:25:922,1.7934,2.5265,7.5478,53.7202,0.2509,0.0657,-0.4435,293.6719
17:15:25:943,1.8077,2.6558,7.6556,51.8462,0.146,0.1584,-0.4954,294.0938
17:15:25:960,1.6737,2.7731,8.1272,52.9006,0.0474,0.1831,-0.549,294.5781
17:15:25:982,1.524,2.5899,9.067,53.9685,0.0277,0.2321,-0.5529,295.0625
17:15:26:000,1.0081,2.4894,10.0857,53.9412,0.1143,0.271,-0.5066,295.6406
17:15:26:021,0.1976,2.1243,10.3933,52.4822,0.2668,0.2601,-0.3812,296.25
17:15:26:044,0.2527,2.1506,10.5574,51.9474,0.3318,0.1509,-0.1966,296.7812
17:15:26:061,0.6789,2.068,11.0865,52.6214,0.319,0.0034,-0.0275,297.25
17:15:26:085,0.8333,1.9471,11.3558,54.1614,0.2871,-0.0547,0.0684,297.5625
17:15:26:101,1.038,2.0464,11.4564,54.1614,0.1875,-0.0092,0.1179,297.6719
17:15:26:120,1.5204,2.1901,11.3965,54.8213,0.0101,0.1203,0.1491,297.6406
17:15:26:142,1.6162,2.1099,11.5486,54.5839,-0.2186,0.263,0.0705,297.5469
17:15:26:160,0.9853,1.5616,12.6858,55.1013,-0.4,0.1994,-0.0616,297.375
17:15:26:180,0.0803,0.7991,13.3729,55.9962,-0.3657,0.0926,-0.1183,297.1562
17:15:26:199,-0.3925,0.2436,12.2692,55.207,-0.1009,0.1855,0.0013,297.1719
17:15:26:221,0.0995,0.519,9.7122,55.1203,0.2075,0.344,0.2655,297.2812
17:15:26:243,1.2116,1.0959,7.8435,55.4746,0.2892,0.2476,0.4798,297.25
17:15:26:262,2.0555,1.5844,7.4425,54.7019,0.106,-0.06,0.4758,296.8906
17:15:26:279,2.1609,1.4647,8.9173,55.9192,-0.2541,-0.3058,0.3081,296.2969
17:15:26:300,1.372,1.0457,10.0378,55.8557,-0.4461,-0.2941,0.1089,295.7969
17:15:26:321,0.522,0.8063,9.6368,55.4895,-0.3569,-0.0595,0.0399,295.5
17:15:26:343,0.4335,0.9667,8.1428,55.6388,-0.1486,0.1594,0.1472,295.4219
17:15:26:417,0.7962,1.3892,6.8368,55.6019,0.0093,0.168,0.3017,295.4062
17:15:26:417,1.0105,1.7496,6.6368,55.3634,0.0503,-0.014,0.3541,295.3125
17:15:26:417,0.9686,1.7053,7.1205,55.8923,0.0442,-0.157,0.3296,295.0156
17:15:26:432,0.7663,1.5928,7.6161,55.3942,0.0687,-0.174,0.3139,294.6094
17:15:26:449,0.631,1.673,7.7609,54.9846,0.1198,-0.0954,0.3552,294.25
17:15:26:467,0.8979,2.0524,7.2677,54.7818,0.1854,0.0034,0.4178,293.9219
17:15:26:479,1.3097,2.3972,7.2569,57.5794,0.1377,0.0036,0.4103,293.5625
17:15:26:500,1.2427,2.2931,8.1201,56.1301,-0.0109,-0.0539,0.3062,293.125
17:15:26:519,0.2826,1.9962,9.7864,55.6392,-0.135,-0.1242,0.1816,292.6719
17:15:26:549,-0.1759,1.6598,11.1188,56.2105,-0.0844,-0.1607,0.1973,292.25
17:15:26:560,0.1737,1.6059,11.2517,58.786,0.1161,-0.1935,0.3222,292
17:15:26:583,0.7519,1.6837,11.1272,56.3414,0.2482,-0.2238,0.4173,291.8438
17:15:26:601,1.4187,1.4922,11.7221,55.7846,0.032,-0.0606,0.3989,290.9531
17:15:26:622,2.0519,1.1187,12.3482,56.543,-0.0312,0.2329,0.3765,290.5312
17:15:26:642,2.4362,0.926,11.7868,56.965,-0.0304,0.353,0.3256,290.0781
17:15:26:664,2.842,1.0529,10.3909,56.7773,-0.1398,0.2095,0.218,289.6094
17:15:26:682,3.352,1.3007,9.5554,57.2097,-0.4503,-0.1916,-0.0363,289.6094
17:15:26:699,3.5938,1.0708,11.1774,57.0977,-0.7737,-0.5256,-0.3439,288.9062
17:15:26:721,2.933,0.0497,14.5198,55.6417,-0.7193,-0.0877,-0.4704,288.9062
17:15:26:745,1.6976,-0.6853,15.3266,54.9528,-0.2783,0.7011,-0.2872,288.9844
17:15:26:761,1.6401,-0.4292,11.5306,57.7379,0.0591,0.9491,-0.0035,289.4844
17:15:26:782,2.7271,0.671,7.816,55.4483,0.0546,0.4202,0.0817,290.0156
17:15:26:798,4.02,1.4886,6.6093,56.1147,-0.1148,-0.2765,-0.1415,290.2344
17:15:26:818,3.9374,1.8022,7.9094,54.8754,-0.245,-0.5096,-0.4504,290.0781
17:15:26:841,2.9653,1.3509,9.1136,57.2779,-0.204,-0.1974,-0.6291,289.9219
17:15:26:860,1.5145,0.975,8.5953,55.8064,-0.1569,0.1988,-0.5737,290.125
17:15:26:880,0.7387,0.9427,7.5203,55.3893,-0.1611,0.3408,-0.3766,290.7188
17:15:26:899,0.856,1.3617,7.3455,57.2773,-0.0668,0.1975,-0.211,291.4375
17:15:26:919,1.4594,1.7412,7.3814,55.9601,0.1294,-0.048,-0.1607,292.0625
17:15:26:942,1.7084,2.1015,7.0008,55.1846,0.2131,-0.2259,-0.171,292.4375
17:15:26:960,1.7838,2.2643,6.9673,57.1047,0.1835,-0.2635,-0.1977,292.6562
17:15:26:981,1.7419,2.4463,7.7789,56.1291,0.1731,-0.1482,-0.236,292.8281
17:15:27:001,1.7108,2.5564,8.6875,56.364,0.2961,-0.0259,-0.2738,293.0781
17:15:27:019,1.7239,2.651,8.6635,57.5505,0.3949,0.0034,-0.3058,293.4844
17:15:27:039,1.6485,2.7575,8.545,55.5815,0.3928,-0.0166,-0.341,293.7656
17:15:27:059,1.463,2.8018,9.0993,56.5075,0.3768,-0.0393,-0.3729,294.1094
17:15:27:080,1.2331,2.6977,9.6811,56.1238,0.371,0.0321,-0.3865,294.4844
17:15:27:099,0.5999,2.4128,9.9289,54.751,0.3332,0.0958,-0.3029,294.8906
17:15:27:118,0.2671,2.141,10.3455,56.0408,0.2735,0.0891,-0.1159,295.3281
17:15:27:145,0.6932,2.1315,11.0063,55.1927,0.2304,0.0425,0.0292,295.7344
17:15:27:161,1.4271,2.2739,11.5354,56.0178,0.1918,0.0723,0.0434,295.9688
17:15:27:179,1.7599,2.3326,11.3343,55.3326,0.0498,0.1656,-0.0419,295.9844
17:15:27:198,1.8389,2.3314,10.9177,54.2414,-0.2357,0.2244,-0.1652,295.9219
17:15:27:219,1.8484,2.1865,11.181,55.0103,-0.5326,0.0308,-0.3188,295.8906
17:15:27:242,1.3361,1.5269,12.9635,54.4566,-0.5835,-0.1554,-0.424,295.9688
17:15:27:259,0.212,0.5405,14.4515,54.1471,-0.3063,-0.0392,-0.3492,296.2031
17:15:27:280,-0.4045,-0.3909,13.7177,53.6213,0.0751,0.2588,-0.0994,296.6406
17:15:27:299,-0.4057,-0.1059,10.6064,54.7902,0.1779,0.34,0.1629,297.1094
17:15:27:319,0.552,0.489,7.9285,53.1761,-0.0927,0.079,0.2292,297.3594
17:15:27:340,1.4438,0.8936,7.5371,53.9184,-0.4969,-0.1426,0.1371,297.25
17:15:27:361,1.688,0.8697,8.9556,52.3845,-0.644,-0.166,0.0071,296.9531
17:15:27:383,0.7986,0.6159,9.966,57.1096,-0.4735,-0.0555,-0.0051,296.75
17:15:27:398,-0.1172,0.4304,9.5003,52.3098,-0.1928,0.0401,0.1704,296.6719
17:15:27:420,0.1845,0.853,6.8056,52.9859,0.0091,-0.0204,0.3714,296.7031
17:15:27:443,0.5257,1.2133,6.3974,52.5565,0.0666,-0.1591,0.4974,296.625
17:15:27:461,0.8501,1.4024,6.3591,52.0567,0.0743,-0.2715,0.5491,296.2969
17:15:27:481,0.8656,1.5676,6.7135,52.0004,0.0666,-0.316,0.5509,296.0625
17:15:27:498,0.8932,1.6981,7.5802,51.2946,0.0354,-0.2776,0.5605,295.2656
17:15:27:518,1.135,1.8884,7.986,52.3233,0.0621,-0.2073,0.5733,294.6719
17:15:27:539,1.0248,2.0991,8.1823,52.0246,0.0884,-0.1452,0.532,294.0938
17:15:27:558,1.1876,2.153,8.9844,52.4312,0.0453,-0.1607,0.4897,293.4844
17:15:27:578,1.4295,2.384,9.6607,51.7467,0.0101,-0.1168,0.4511,292.8906
17:15:27:599,1.5683,2.3828,9.8319,51.7732,0.0168,-0.0901,0.3443,292.3438
17:15:27:621,1.5815,2.0824,10.1049,51.1461,-0.0583,-0.0805,0.1959,291.8125
17:15:27:641,1.2535,1.5556,11.9915,50.2622,-0.2866,-0.1285,0.0596,291.3906
17:15:27:659,0.9482,0.756,14.6119,48.1287,-0.433,-0.1434,0.0071,291.0938
17:15:27:678,1.4127,0.1467,14.8023,51.3839,-0.2314,0.0164,0.1011,290.9688
17:15:27:698,2.6744,0.2173,12.274,49.1275,0.135,0.2263,0.2585,290.9844
17:15:27:718,3.8105,0.6015,9.8056,50.2663,0.2815,0.2585,0.2924,290.9531
17:15:27:742,3.7794,0.7775,8.6994,47.8387,0.1233,0.0809,0.0761,290.7188
17:15:27:759,2.8732,0.1694,10.4364,48.7075,-0.297,-0.1849,-0.2592,290.3281
17:15:27:783,2.0041,-0.6554,13.5645,49.3324,-0.7111,-0.256,-0.4619,290.0781
17:15:27:800,1.2726,-1.066,14.3821,48.8789,-0.6762,0.1664,-0.4408,290.1875
17:15:27:818,1.0739,-0.7679,11.5533,48.1983,-0.2221,0.6297,-0.2443,290.6875
17:15:27:839,1.8042,-0.1754,8.2589,46.9938,0.1992,0.5751,-0.0033,291.2188
17:15:27:861,2.5882,0.5656,7.6508,49.0268,0.2402,-0.0646,0.1057,291.5781
17:15:27:887,2.9198,1.0026,9.0825,48.9535,0.0317,-0.5564,0.0495,291.4531
17:15:27:902,2.5655,0.9834,9.5183,47.1605,-0.1055,-0.0073,-0.2653,291.4844
17:15:27:928,1.7503,0.8889,8.2948,49.1253,-0.127,0.3128,-0.2792,291.6719
17:15:27:945,1.3253,1.0959,7.2713,48.5283,-0.1633,0.361,-0.1985,291.9688
17:15:27:962,1.5611,1.4563,7.4604,47.7086,-0.0389,0.2217,-0.1758,291.9688
17:15:27:983,1.7311,1.6837,7.5167,48.0526,0.1896,0.0998,-0.211,292.4219
17:15:28:003,1.6533,1.7783,7.0666,46.9458,0.3241,0.022,-0.2328,292.5781
17:15:28:023,1.4342,1.8968,7.0307,47.8061,0.3427,0.0156,-0.231,292.8125
17:15:28:048,1.378,1.9986,7.2162,47.5832,0.318,0.0971,-0.2126,293.0781
17:15:28:061,1.5635,2.2787,7.4198,47.1934,0.2639,0.1733,-0.227,293.3438
17:15:28:085,1.8556,2.4475,7.7023,46.1288,0.2043,0.1064,-0.2959,293.3438
17:15:28:099,1.8053,2.4487,8.6599,47.502,0.1774,-0.0108,-0.3758,293.7969
17:15:28:119,1.5192,2.3362,10.1372,48.132,0.2522,0.05,-0.4158,294.125
17:15:28:139,1.0069,2.0393,10.701,45.3564,0.2868,0.3283,-0.4083,294.5625
17:15:28:166,0.5065,1.7795,10.3179,45.3564,0.0935,0.6721,-0.3327,294.5625
17:15:28:179,0.1102,1.6311,10.7549,45.1335,-0.146,0.8207,-0.2235,295.4375
17:15:28:205,-0.104,1.1606,12.2943,46.3419,-0.0538,0.7192,-0.0989,295.7188
17:15:28:218,-0.4045,0.8146,13.0581,45.7353,0.2969,0.4558,0.0513,295.7188
17:15:28:239,-0.2692,0.993,12.4212,45.1015,0.518,0.2026,0.1371,295.8281
17:15:28:269,0.5352,1.2599,11.0278,45.3945,0.3478,0.0441,0.0756,295.8281
17:15:28:277,0.5999,0.9523,9.9097,45.2172,-0.2056,-0.2153,-0.0302,295.7031
17:15:28:299,-0.116,0.5309,12.3793,44.8587,-0.4693,-0.1508,-0.0025,295.5469
17:15:28:318,-0.3614,-0.0652,13.6806,44.8463,-0.2368,0.16,0.0577,295.5156
17:15:28:339,-0.7026,-0.2807,11.9424,45.3651,0.0352,0.3352,0.2053,295.5625
17:15:28:361,-0.7349,-0.0293,8.6312,44.706,-0.0317,-0.0518,0.377,295.5156
17:15:28:384,0.0109,0.3537,7.6939,45.4605,-0.2077,-0.7362,0.4519,295.3281
17:15:28:399,0.9231,0.5573,8.7892,44.9467,-0.1443,-1.2499,0.4221,294.5156
17:15:28:480,1.8975,1.0241,9.6284,45.7535,0.0865,-1.5152,0.3168,294.5156
17:15:28:480,2.793,1.6598,9.5602,45.6914,0.2322,-1.313,0.022,294.1719
17:15:28:480,2.5009,1.6478,8.3295,44.8241,0.0847,-0.811,-0.2664,293.9531
17:15:28:482,1.1817,1.3114,7.6807,44.6474,-0.1164,-0.374,-0.309,293.9844
17:15:28:499,0.2527,1.0026,7.8004,45.1015,-0.0983,-0.1093,-0.1828,294.2969
17:15:28:518,-0.3459,0.9296,7.5622,43.632,0.074,-0.0305,0.0428,294.7656
17:15:28:539,-0.4213,0.9284,7.0235,43.4957,0.2479,-0.1216,0.2971,295.0938
17:15:28:559,0.0767,1.0122,6.6608,45.1295,0.322,-0.2475,0.4985,295.1875
17:15:28:586,0.8321,1.4252,6.753,44.3199,0.2796,-0.3349,0.5677,295
17:15:28:597,1.5109,1.6945,7.4617,43.1331,0.192,-0.3687,0.5049,294.5625
17:15:28:618,1.9095,1.8322,8.8647,45.0912,0.1436,-0.2771,0.3927,294.2656
17:15:28:638,1.9693,1.8394,10.3682,42.8128,0.1949,-0.0406,0.2945,293.7031
17:15:28:659,1.7575,1.9184,11.0386,42.9199,0.2839,0.2675,0.2114,293.1719
17:15:28:677,1.3193,1.9423,10.4364,44.3841,0.2541,0.4556,0.1581,292.7812
17:15:28:701,0.9889,1.8705,9.8989,45.3415,0.0668,0.4702,0.1587,292.4375
17:15:28:718,0.856,1.6011,10.519,43.8576,-0.0847,0.3815,0.2074,292.1562
17:15:28:739,0.9063,1.2253,11.8287,43.8886,-0.0107,0.299,0.3062,291.8906
17:15:28:761,1.2654,0.8482,12.262,45.0156,0.1782,0.2348,0.4114,291.6094
17:15:28:781,1.6401,0.6985,11.5126,43.4751,0.2661,0.291,0.4884,291.1406
17:15:28:798,2.3021,1.0852,9.6835,42.2756,0.0186,0.3743,0.4229,290.6719
17:15:28:818,3.1724,1.4994,8.2769,42.0377,-0.6077,0.2042,0.1792,290.1094
17:15:28:840,3.1736,0.1622,14.4443,42.4884,-1.1726,-0.1343,-0.2011,289.5156
17:15:28:858,1.8999,-0.8529,16.1514,42.5045,-1.09,-0.0323,-0.4358,289.0938
17:15:28:881,1.3241,-1.0517,12.6379,43.1282,-0.4626,0.5541,-0.3444,289.1094
17:15:28:897,2.1561,-0.2424,8.454,43.4418,-0.0155,0.8215,-0.0661,289.5312
17:15:28:917,3.2706,0.6207,6.8787,42.7519,-0.086,0.5754,0.0668,289.9844
17:15:28:937,3.4585,0.6937,7.6616,42.6385,-0.3979,0.1368,-0.1117,290.125
17:15:28:960,2.4745,0.5058,8.8599,43.6047,-0.5992,-0.0694,-0.374,289.9531
17:15:28:977,1.4175,0.4268,8.8718,41.9222,-0.555,0.0433,-0.4986,289.9062
17:15:28:998,0.8704,0.4136,8.0985,43.6145,-0.3755,0.2439,-0.464,290.1875
17:15:29:017,0.9351,0.6602,7.4185,44.082,-0.2021,0.3344,-0.3308,290.7031
17:15:29:038,1.2942,1.0385,7.0486,43.0416,-0.0623,0.2838,-0.203,291.2344
17:15:29:058,1.39,1.3928,6.8236,42.3705,0.0703,0.1618,-0.1676,291.6406
17:15:29:077,1.3074,1.6478,6.9816,43.0372,0.1483,0.0359,-0.1908,291.9062
17:15:29:098,1.2152,1.8106,7.4425,44.1106,0.1827,-0.0315,-0.2097,292.0625
17:15:29:117,0.9458,1.8992,8.5821,43.5562,0.1779,-0.0725,-0.2121,292.25
17:15:29:138,1.3145,2.0177,9.6212,42.1277,0.2631,-0.1064,-0.1556,292.5
17:15:29:164,1.3684,2.3697,9.5494,41.9487,0.4666,-0.0885,-0.1468,292.75
17:15:29:181,1.056,2.4355,9.1927,43.4625,0.5939,-0.0614,-0.2352,292.9688
17:15:29:198,0.4766,2.1937,9.2884,42.2113,0.5332,0.0172,-0.317,293.25
17:15:29:217,0.0061,2.0333,9.5506,42.3707,0.4069,0.1389,-0.3178,293.5469
17:15:29:239,-0.1723,2.0022,10.2617,41.0426,0.2842,0.1855,-0.228,293.9062
17:15:29:260,-0.0789,1.9208,11.4265,42.0324,0.1824,0.1283,-0.114,294.2656
17:15:29:278,0.5256,1.6143,12.3111,42.7116,0.183,0.0518,0.0037,294.5
17:15:29:297,0.9769,1.5114,12.0573,41.0716,0.2858,0.0004,0.0772,294.6094
17:15:29:317,1.269,1.5509,11.2541,40.6637,0.3337,-0.0433,0.0798,294.6094
17:15:29:338,1.2152,1.582,10.9811,42.0529,0.1531,-0.0733,-0.0025,294.5312
17:15:29:363,0.9063,1.2588,11.952,41.1132,-0.2421,-0.0536,-0.1149,294.4688
17:15:29:378,0.1797,0.6004,13.7776,40.4662,-0.6136,0.0191,-0.1857,294.4844
17:15:29:397,-0.3686,-0.1981,14.2396,40.4758,-0.6253,0.2532,-0.1412,294.625
17:15:29:420,-0.5039,-0.592,12.1268,40.7975,-0.2645,0.4771,0.0239,294.7969
17:15:29:443,-0.1459,-0.1754,9.1244,40.6712,0.1105,0.4353,0.2508,294.8906
17:15:29:463,0.9386,0.3932,7.3611,40.6958,0.1726,0.054,0.4284,294.7812
17:15:29:482,1.8784,0.7739,7.6711,39.2923,-0.0455,-0.4614,0.4109,294.4375
17:15:29:499,2.1513,0.7428,8.5654,39.4464,-0.3031,-0.6978,0.2324,293.9688
17:15:29:517,1.3528,0.5369,8.7473,38.3242,-0.4293,-0.5077,0.0079,293.5781
17:15:29:537,0.4873,0.4411,8.3068,39.5375,-0.3041,0.1509,-0.0275,293.4062
17:15:29:560,0.1342,0.4423,7.0882,38.5614,-0.1776,0.1187,0.0974,293.4531
17:15:29:577,-0.2561,0.981,6.395,37.891,-0.1172,-0.1242,0.2609,293.5469
17:15:29:601,-0.2082,1.5353,6.7625,39.026,-0.0317,-0.4254,0.3898,293.5469
17:15:29:617,0.3772,1.8226,7.9513,39.3445,0.1268,-0.4441,0.4186,293.4219
17:15:29:640,0.692,1.9028,8.4157,40.2038,0.2663,-0.248,0.3741,292.9688
17:15:29:661,0.7028,2.1721,8.3331,38.1633,0.3318,-0.0217,0.2939,292.5469
17:15:29:679,0.6897,2.2787,8.1679,37.8489,0.3305,0.0201,0.185,292.1406
17:15:29:698,0.6645,2.1398,8.5941,37.6263,0.3372,-0.1607,0.1011,291.5156
17:15:29:718,0.6071,2.0249,9.5242,37.8937,0.3782,-0.3226,0.0561,291.5156
17:15:29:738,0.7303,2.0345,10.4329,36.1243,0.4112,-0.3114,0.0029,291.4219
17:15:29:761,0.8369,1.8214,10.7537,36.3855,0.3667,-0.1727,-0.0406,291.3438
17:15:29:778,1.0787,1.388,10.695,37.1282,0.1718,-0.0443,-0.043,291.3281
17:15:29:805,1.3205,0.9451,11.3403,35.2077,-0.0554,0.0763,-0.0107,291.375
17:15:29:817,1.196,0.2412,12.8486,38.0231,-0.0719,0.2601,0.1054,291.4531
17:15:29:838,1.2164,-0.5764,13.586,35.7011,0.1204,0.4162,0.2934,291.5
17:15:29:862,1.4809,-0.902,12.6176,36.8104,0.2469,0.4803,0.4495,291.5
17:15:29:878,2.2423,-0.677,10.616,36.2851,0.0405,0.4878,0.4143,291.3438
17:15:29:899,2.86,-0.1012,9.1316,35.9924,-0.4786,0.3608,0.1957,290.9375
17:15:29:917,2.9893,0.2747,10.543,35.874,-0.8248,0.1482,-0.0973,290.375
17:15:29:944,2.4793,-0.1981,13.1515,36.7585,-0.5912,0.2119,-0.3127,289.8125
17:15:29:958,1.6868,-0.6602,12.353,36.7568,-0.1949,0.4111,-0.3226,289.5312
17:15:29:977,1.5312,-0.4459,9.377,35.8365,-0.1057,0.3339,-0.2541,289.5938
17:15:30:000,1.8221,0.0437,7.148,36.57,-0.3542,-0.0787,-0.2331,289.9219
17:15:30:018,2.1369,0.5513,7.986,36.518,-0.6322,-0.4113,-0.2627,290.2188
17:15:30:037,2.2028,0.75,10.0522,35.1557,-0.5681,-0.3061,-0.3298,290.7188
17:15:30:063,1.5923,0.7703,10.4113,33.9205,-0.2943,-0.0118,-0.3101,291.0469
17:15:30:080,1.0596,0.8889,8.8132,36.5534,-0.0551,0.246,-0.1865,291.25
17:15:30:097,1.05,1.2779,6.6787,32.8153,0.0035,0.1879,-0.0912,291.625
17:15:30:117,1.3672,1.7472,5.9246,34.965,-0.0261,-0.0068,-0.0656,291.8906
17:15:30:138,1.8951,2.0967,6.3472,34.2288,-0.0176,-0.092,-0.1319,292.0156
17:15:30:164,1.9801,2.2955,7.069,34.6171,0.0298,-0.0337,-0.2477,292.0781
17:15:30:178,1.6641,2.402,7.5849,34.6171,0.0778,0.1046,-0.3279,292.1719
17:15:30:197,1.0811,2.5253,8.0506,34.0284,0.1372,0.2319,-0.3516,292.4062
17:15:30:217,0.4275,2.5516,8.551,35.8198,0.1976,0.2622,-0.2904,292.7344
17:15:30:239,0.4945,2.7611,9.9863,35.8446,0.2935,0.1839,-0.2118,293.0938
17:15:30:264,0.5747,2.7767,10.4101,33.6968,0.4298,0.0212,-0.2219,293.4531
17:15:30:284,0.4778,2.5444,10.9656,33.6838,0.4868,-0.068,-0.2837,293.7188
17:15:30:305,0.5807,1.9004,11.7952,34.5194,0.4605,-0.0606,-0.305,293.9375
17:15:30:316,0.546,1.1869,12.2896,34.0649,0.429,0.0159,-0.3015,294.25
17:15:30:337,0.394,0.5788,12.3985,33.4902,0.3707,0.1725,-0.2613,294.625
17:15:30:366,-0.1567,0.3681,11.9939,31.9776,0.2674,0.377,-0.1798,295
17:15:30:387,-0.4691,0.6363,11.515,35.4091,0.1127,0.5477,-0.0264,295.3125
17:15:30:396,-0.2956,0.987,11.9161,33.1784,-0.1073,0.519,0.1669,295.5469
17:15:30:417,-0.2489,1.0241,13.1515,33.0975,-0.2575,0.3243,0.2737,295.625
17:15:30:438,-0.2477,0.5441,13.8613,34.377,-0.1441,0.0915,0.3177,295.4531
17:15:30:458,-0.1591,0.234,12.0358,31.4646,0.2471,0.0225,0.3848,295.1094
17:15:30:481,0.3796,0.398,8.9437,33.1973,0.5941,-0.0204,0.4527,294.7344
17:15:30:561,1.3157,0.6901,7.4604,33.4612,0.5231,-0.2891,0.4348,294.125
17:15:30:562,1.6533,0.9751,8.1787,32.9195,0.13,-0.6275,0.2665,293.6562
17:15:30:562,1.5444,0.6674,9.9373,32.6083,-0.2863,-0.8502,0.0183,293.2344
17:15:30:562,1.0224,0.1837,10.0785,32.226,-0.4037,-0.6643,-0.1681,293.0469
17:15:30:577,0.285,0.0521,8.4708,34.6181,-0.2999,-0.2385,-0.2046,293.1562
17:15:30:602,0.3114,0.1287,6.5303,33.5715,-0.1923,0.1365,-0.0573,293.7031
17:15:30:628,0.6071,0.4591,5.7031,33.0338,-0.2927,-0.0963,0.233,293.7344
17:15:30:642,0.959,0.9212,6.4944,34.6775,-0.2988,-0.2789,0.2828,293.5625
17:15:30:664,0.9362,1.0648,7.8387,35.3004,-0.0972,-0.3415,0.2633,293.3125
17:15:30:681,0.5807,0.8553,8.2936,33.7948,0.155,-0.255,0.2934,293.0312
17:15:30:700,0.5005,0.732,7.8615,35.0193,0.2708,-0.0568,0.3789,292.7812
17:15:30:728,0.6789,1.1378,7.3443,34.8361,0.1752,0.0859,0.4322,292.4844
17:15:30:740,1.0476,1.801,7.8447,33.438,0.07,0.0998,0.3991,292.0625
17:15:30:765,1.2427,2.396,8.8814,31.8552,0.1302,-0.0805,0.2537,291.5781
17:15:30:783,0.7782,2.2895,10.1276,34.3932,0.3412,-0.2835,0.139,291.1094
17:15:30:798,0.5676,1.7364,10.2641,33.3553,0.4959,-0.2587,0.1166,290.8438
17:15:30:818,0.6908,1.6574,9.3567,33.6968,0.3531,-0.2736,0.0721,290.7812
17:15:30:840,1.1481,1.3821,10.0055,35.2839,0.0703,-0.2691,-0.0323,290.6875
17:15:30:862,1.1673,0.9116,11.8634,32.9427,-0.0775,-0.1202,-0.1218,290.625
17:15:30:879,1.0392,0.1885,12.9994,34.0202,-0.0434,0.1671,-0.0949,290.6406
17:15:30:901,0.9542,-0.3525,12.0872,35.0996,-0.0413,0.4103,0.0069,290.7656
17:15:30:917,1.1625,-0.2688,10.1515,33.0362,-0.2871,0.3794,0.0572,290.7656
17:15:30:940,1.1757,0.1155,9.2106,34.6043,-0.7737,-0.0656,0.0157,290.8594
17:15:30:961,1.3947,-0.2077,11.758,33.9691,-1.0927,-0.5413,-0.0347,290.8594
17:15:30:977,1.4175,-0.8493,15.979,36.0462,-0.7356,-0.2544,0.0476,290.7344
17:15:30:997,1.7108,-0.9619,15.5995,33.7386,-0.0802,0.348,0.2053,290.7031
17:15:31:016,2.4985,-0.0892,11.5438,33.6665,0.2123,0.4646,0.2758,290.8125
17:15:31:037,3.7506,0.6853,8.3212,35.61,0.0951,0.2095,0.046,290.7969
17:15:31:057,3.826,0.9487,6.802,35.3658,-0.3036,-0.0883,-0.2752,290.5156
17:15:31:078,3.0671,0.9511,7.7513,33.1404,-0.6043,-0.117,-0.4379,290.1406
17:15:31:105,2.5212,0.7703,9.0706,34.44,-0.5726,0.1181,-0.5151,290.0625
17:15:31:116,1.7036,0.9284,8.6994,35.3321,-0.4139,0.3168,-0.5037,290.3906
17:15:31:138,1.281,1.072,7.6723,34.1672,-0.2591,0.3315,-0.4161,290.8906
17:15:31:166,1.2523,1.3689,6.8308,37.619,-0.1313,0.1288,-0.3423,291.4531
17:15:31:177,1.1685,1.7663,6.7494,35.8723,0.0016,-0.0821,-0.297,291.9531
17:15:31:200,1.1852,1.8932,7.1564,35.1493,0.1491,-0.1969,-0.2549,292.3906
17:15:31:221,1.3253,2.062,7.3635,36.3182,0.2309,-0.1562,-0.2262,293.0938
17:15:31:245,1.3361,2.3769,7.6185,35.1147,0.225,-0.1487,-0.2288,293.0938
17:15:31:264,1.4869,2.4187,8.5414,36.4089,0.2341,-0.0997,-0.28,293.4062
17:15:31:284,1.1984,2.3397,9.5398,36.9277,0.2956,-0.0491,-0.3146,293.6875
17:15:31:303,0.7459,2.0704,10.6711,34.9842,0.4509,-0.0198,-0.2978,293.9844
17:15:31:316,0.3904,1.7364,11.3259,35.5539,0.6498,0.0095,-0.22,294.6719
17:15:31:337,0.1773,1.6131,11.0446,35.7931,0.7441,0.047,-0.1103,295.0312
17:15:31:373,0.2994,1.6131,10.458,34.8286,0.624,0.0726,-0.0307,295.1562
17:15:31:376,0.5879,1.4551,10.6184,36.5242,0.3766,0.1086,-0.0006,295.4219
17:15:31:396,0.9159,1.1163,11.5438,34.6607,0.1859,0.2159,-0.0033,295.4531
17:15:31:417,0.7687,0.9703,12.2788,35.2268,0.1073,0.3147,-0.0296,295.4531
17:15:31:438,0.1174,0.8625,12.1363,36.7246,0.0091,0.3552,0.0226,295.4375
17:15:31:462,-0.0825,0.8673,11.6587,36.1527,-0.1947,0.1818,0.1113,295.4219
17:15:31:482,0.0576,0.7727,12.6008,35.4105,-0.2996,-0.1916,0.1911,295.3906
17:15:31:503,0.2383,0.3693,14.6562,34.2031,-0.0658,-0.1913,0.2591,295.2656
17:15:31:516,0.3473,-0.0868,14.5078,34.9413,0.3771,0.1522,0.3509,295.0938
17:15:31:536,0.2204,-0.1083,10.8435,34.1472,0.4863,0.3035,0.4713,294.8594
17:15:31:561,0.6238,0.5261,7.8387,33.9006,0.2045,0.0135,0.5272,294.5312
17:15:31:578,1.5815,1.1522,7.2977,35.1127,-0.1382,-0.3658,0.417,294.0625
17:15:31:596,2.4254,1.4228,8.4301,35.1088,-0.2999,-0.5045,0.1725,293.4375
17:15:31:616,2.0735,1.2444,8.9257,35.9933,-0.2679,-0.3351,-0.0363,292.9062
17:15:31:638,1.1398,1.0313,8.2314,36.8695,-0.1984,-0.0632,-0.0714,292.6406
17:15:31:660,0.5735,0.92,6.1125,34.1252,-0.184,0.0974,0.0268,292.6562
17:15:31:683,1.2367,1.4503,6.6979,35.8121,-0.2091,0.0239,0.1517,292.7656
17:15:31:696,1.6246,1.5796,8.7593,34.2607,-0.1942,-0.1769,0.1232,292.7969
17:15:31:716,1.1805,1.2157,9.7589,33.6362,0.0434,-0.1277,0.0066,292.6562
17:15:31:736,0.3185,1.0289,9.3363,34.4456,0.3939,0.1014,-0.0195,292.4844
17:15:31:761,0.0504,0.9056,7.7992,35.5365,0.6725,0.3275,0.1025,292.4375
17:15:31:780,0.145,1.1091,6.4585,35.2205,0.7329,0.4265,0.2652,292.4688
17:15:31:796,0.4418,1.8681,6.3196,34.9256,0.5025,0.4215,0.4074,292.3125
17:15:31:818,0.8034,2.2332,8.0458,36.6482,0.1641,0.2468,0.4181,291.9531
17:15:31:838,0.6465,1.8968,9.7744,35.4212,0.0253,-0.0148,0.275,291.4531
17:15:31:867,0.2419,1.3904,10.464,35.3713,0.1345,-0.1948,0.1579,290.9375
17:15:31:887,0.3353,0.8948,10.9596,35.3632,0.2109,-0.3434,0.1533,290.75
17:15:31:896,1.0871,0.5573,11.6563,36.3686,0.1321,-0.3295,0.2109,290.75
17:15:31:917,2.2148,0.1574,12.432,34.0767,-0.0053,-0.2702,0.2404,290.4375
17:15:31:937,2.9007,0.1945,11.8323,36.3798,-0.0762,-0.0614,0.2013,290.3125
17:15:31:965,3.0024,0.4447,10.5801,34.7706,-0.1712,0.0896,0.0351,290.0938
17:15:31:976,2.4183,0.3777,11.0063,33.8338,-0.4749,0.009,-0.2597,289.875
17:15:31:996,1.4749,-0.5979,14.1594,34.823,-0.8746,-0.2736,-0.5484,289.7188
17:15:32:019,0.3185,-1.2647,15.5014,34.9256,-0.8935,-0.1069,-0.59,289.8125
17:15:32:035,0.5161,-0.9738,12.7576,34.2594,-0.4056,0.3949,-0.2912,290.2656
17:15:32:056,2.0328,0.2939,8.806,35.5214,0.1121,0.5666,0.1358,291
17:15:32:079,3.9122,1.4515,6.9984,35.6599,0.2418,0.0801,0.3185,291.5156
17:15:32:096,4.5694,2.1267,7.8687,35.6565,0.0381,-0.6241,0.1211,291.5156
17:15:32:116,3.7099,1.6071,9.3052,35.009,-0.2298,-0.8654,-0.3127,291.1562
17:15:32:137,2.0136,1.1606,9.2561,34.6947,-0.355,-0.422,-0.6557,290.9062
17:15:32:157,0.8537,1.078,7.9369,34.3972,-0.3734,0.2377,-0.7234,291.1406
17:15:32:177,0.4766,1.1163,6.7865,34.6947,-0.3699,0.6332,-0.6355,292.2188
17:15:32:199,0.7136,1.3605,6.7901,34.5615,-0.343,0.5751,-0.4768,293
17:15:32:216,0.8824,1.5712,6.8547,35.2568,-0.2027,0.3568,-0.3601,293.6406
17:15:32:237,0.801,1.6801,6.9649,35.2568,0.0256,0.0654,-0.3141,294.0781
17:15:32:265,0.7303,1.7352,6.7997,36.8524,0.2109,-0.1085,-0.2682,294.0781
17:15:32:277,0.8848,2.0069,6.984,34.7171,0.2639,-0.1056,-0.2099,294.7812
17:15:32:296,0.9291,2.2583,7.4269,35.9389,0.1803,-0.0108,-0.1886,295.0938
17:15:32:316,0.6226,2.2356,8.9915,34.9235,0.0405,0.0452,-0.2174,295.3594
17:15:32:338,0.1521,1.8238,10.9261,36.7167,0.028,-0.0028,-0.22,295.5781
17:15:32:361,-0.1519,1.479,11.9903,36.8588,0.5776,0.0042,0.0521,295.8281
17:15:32:393,0.0324,1.4886,11.4073,36.5457,0.7662,-0.0068,0.2045,296.0625
17:15:32:396,0.3676,1.7891,10.3754,35.5527,0.6642,-0.1114,0.2721,296.2344
17:15:32:416,1.1697,1.9962,10.3479,34.5691,0.4133,-0.1753,0.2253,296.1875
17:15:32:437,1.6222,1.6801,11.1739,34.5961,0.1976,-0.1436,0.0974,296
17:15:32:464,1.5049,1.3354,11.9113,36.2599,0.0272,0.0452,0.0295,295.7188
17:15:32:482,1.6653,1.394,11.8897,36.8244,-0.2306,0.3882,-0.0685,295.4219
