Time,Acc_X,Acc_Y,Acc_Z,Meg,Gyr_X,Gyr_Y,Gyr_Z,Ore
20:19:19:541,-3.098,1.9998,9.9672,54.2875,0.0695,0.4056,0.3946,192.7969
20:19:19:590,-1.604,3.0676,8.9389,53.8136,-0.0727,-1.0605,0.3232,191.5
20:19:19:604,-0.79,3.2854,9.4512,53.4347,-0.1465,-1.257,0.2513,191.5
20:19:19:622,0.2024,3.2926,10.1025,55.688,-0.1691,-1.6173,0.0556,191.5
20:19:19:643,1.1493,2.967,10.3479,54.7994,-0.1241,-1.8429,-0.329,162.3906
20:19:19:661,1.117,1.9148,11.5701,54.1357,-0.0935,-1.9175,-0.7751,162.4531
20:19:19:691,0.5759,0.5872,12.5733,54.0502,-0.0927,-1.3414,-0.9751,162.875
20:19:19:709,-0.5721,0.3526,12.45,54.3542,-0.0325,-0.6389,-0.8688,163.8594
20:19:19:720,-1.2161,0.75,11.6503,54.477,0.1036,0.0336,-0.5309,165.2188
20:19:19:743,-0.7517,1.3665,10.4221,54.2218,0.2504,0.5819,-0.157,166.4219
20:19:19:760,-0.0071,2.3134,8.9437,53.8885,0.3249,0.7462,0.0761,167.2969
20:19:19:793,0.7782,2.821,7.737,55.5649,0.24,0.195,0.0729,167.625
20:19:19:809,1.3097,2.6642,7.9668,54.4487,-0.0019,-0.5742,-0.169,167.5312
20:19:19:826,1.2619,2.1542,8.9293,54.8933,-0.2352,-0.7161,-0.4281,167.3125
20:19:19:839,0.8129,1.8429,9.5398,53.4,-0.3417,-0.6309,-0.5309,167.3906
20:19:19:859,0.4335,1.6921,9.3986,54.6627,-0.2519,-0.534,-0.4758,168.1875
20:19:19:886,0.4897,1.7472,9.0011,52.7181,-0.021,-0.482,-0.3586,168.8906
20:19:19:901,1.2463,1.9052,8.5869,54.2465,0.229,-0.3297,-0.3261,169.5312
20:19:19:917,1.196,2.2021,7.9788,53.2045,0.4386,0.0232,-0.4108,170.0312
20:19:19:939,0.8716,2.3397,7.5395,54.4289,0.6171,0.5084,-0.4784,170.4375
20:19:19:957,0.3473,2.2811,7.1157,53.7358,0.7473,0.939,-0.5072,170.9062
20:19:19:977,-0.4787,2.5959,6.1664,53.3556,0.7755,0.8056,-0.4278,171.375
20:19:19:997,-0.9983,2.7192,5.7881,53.477,0.6591,0.22,-0.2646,171.7656
20:19:20:022,-1.191,2.5528,5.757,56.1413,0.4559,-0.0048,-0.1192,172.125
20:19:20:040,-1.1084,2.5157,6.2657,54.4353,0.1947,0.0919,-0.0033,172.2812
20:19:20:057,-1.0737,2.4726,6.9625,53.6967,-0.0626,0.5356,0.1059,172.5
20:19:20:075,-1.3394,2.4798,7.2438,52.9361,-0.2807,1.0805,0.2236,172.5781
20:19:20:105,-1.7201,3.1729,7.4185,56.1297,-0.4258,1.3194,0.3096,172.4531
20:19:20:115,-1.713,3.6745,7.6616,54.0606,-0.4684,1.1143,0.2814,172.0781
20:19:20:138,-2.5964,3.6877,8.2182,52.9922,-0.4101,0.5635,0.1128,171.5
20:19:20:157,-3.742,3.9594,9.3483,53.8672,-0.2586,0.0301,0.087,170.5625
20:19:20:174,-3.3266,3.7535,10.2449,53.8571,-0.0898,-0.2799,0.1781,170.2656
20:19:20:196,-2.7903,3.9044,10.2401,52.0773,-0.0804,-0.2405,0.1304,170.1562
20:19:20:223,-2.916,4.2132,9.5219,54.4106,-0.3076,-0.0562,-0.014,170
20:19:20:234,-3.1243,4.0217,9.0562,53.5863,-0.7297,0.0035,-0.141,169.8906
20:19:20:259,-3.1602,3.2735,9.8044,54.0972,-1.1545,-0.3143,-0.222,169.8906
20:19:20:275,-2.9543,2.4822,12.0477,52.3811,-1.3931,-0.8506,-0.2592,169.8906
20:19:20:295,-2.4599,1.5485,14.4108,55.2279,-1.3734,-1.0083,-0.2702,169.9844
20:19:20:318,-2.1666,0.8553,15.1446,53.758,-1.1872,-0.4418,-0.2361,170.2031
20:19:20:340,-2.1834,0.8434,13.7536,54.7783,-0.9193,0.3769,-0.149,170.8906
20:19:20:358,-2.0733,1.1594,11.096,54.91,-0.7063,0.8709,-0.0912,170.8906
20:19:20:374,-2.1343,1.3833,8.7473,53.1173,-0.6852,0.8442,-0.1114,171.1562
20:19:20:391,-2.7688,1.1917,7.8663,51.6539,-0.8003,0.3508,-0.1202,171.2188
20:19:20:414,-2.6359,0.2879,8.5702,52.553,-0.8288,-0.3185,0.0289,171.1562
20:19:20:440,-2.5641,-0.4232,9.1089,52.2946,-0.6107,-0.8288,0.3195,171.1875
20:19:20:457,-2.6599,-0.2352,8.9592,52.0172,-0.2589,-1.1585,0.7347,171.1875
20:19:20:475,-2.0829,0.4519,8.7258,53.0103,0.0626,-1.241,1.1272,170.7969
20:19:20:492,-0.8044,1.0325,8.1081,52.5136,0.2863,-1.131,1.3632,170.4688
20:19:20:512,0.5316,1.485,7.494,52.2232,0.3036,-0.9491,1.3506,169.4688
20:19:20:540,0.8848,1.7723,7.3719,52.1913,0.1539,-0.6439,1.149,168.8281
20:19:20:558,0.6681,1.7903,7.6041,54.2944,0.0093,-0.3891,0.9139,167.4375
20:19:20:572,0.2527,1.5844,8.1093,53.0146,-0.0336,-0.3012,0.7086,165.9844
20:19:20:592,-0.5577,1.327,8.4109,53.1798,-0.0035,-0.3462,0.5749,164.7188
20:19:20:612,-1.1096,1.1642,8.9329,52.91,-0.004,-0.4506,0.5672,163.75
20:19:20:639,-1.2197,0.9188,9.8295,51.3979,-0.012,-0.5438,0.5988,162.9688
20:19:20:660,-1.1216,0.7584,10.5765,52.0399,-0.0072,-0.584,0.6194,162.3438
20:19:20:681,-0.7074,0.4088,11.4815,50.4812,-0.0362,-0.6104,0.6265,161.125
20:19:20:691,-0.1902,0.015,12.5793,52.0083,-0.0599,-0.5473,0.6268,160.7969
20:19:20:711,0.3557,-0.3154,13.2544,50.6157,-0.033,-0.413,0.617,160.1406
20:19:20:733,0.9015,-0.6099,13.2257,51.4181,0.0037,-0.2538,0.598,159.5156
20:19:20:764,1.6258,-0.7272,12.7409,52.5717,0.0133,-0.1012,0.565,158.8438
20:19:20:770,2.4219,-0.6422,11.7449,51.0809,-0.0373,0.0043,0.4545,158.1719
20:19:20:791,2.7965,-0.2029,10.7345,51.0781,-0.1912,-0.0258,0.1991,157.5156
20:19:20:811,2.617,0.1,10.7022,53.9654,-0.4732,-0.2391,-0.1658,156.9531
20:19:20:831,2.0938,-0.4782,12.1854,51.9234,-0.7915,-0.3039,-0.5391,156.5625
20:19:20:856,1.2212,-1.5951,13.9835,52.0438,-0.9188,0.1265,-0.7165,156.5625
20:19:20:871,0.7627,-2.2619,14.0589,50.8253,-0.685,0.7606,-0.5783,157
20:19:20:891,1.0991,-1.977,12.2189,51.0441,-0.2293,1.0429,-0.2614,157.8281
20:19:20:912,2.2351,-1.2192,9.966,51.0339,0.1643,0.7502,-0.0592,158.6406
20:19:20:936,2.8564,-0.489,8.5773,51.8726,0.3286,0.2442,-0.1213,159.1094
20:19:20:956,2.6685,-0.1838,8.0351,50.3504,0.3105,0.0163,-0.3224,159.2031
20:19:20:972,1.8963,-0.234,7.3659,50.199,0.2067,0.1939,-0.5074,159.2031
20:19:20:992,0.9853,-0.1083,6.4274,50.8818,0.0597,0.5074,-0.5732,159.4688
20:19:21:012,0.2898,0.2233,5.7666,50.1066,-0.0751,0.6703,-0.529,159.9219
20:19:21:040,-0.2058,0.5992,5.6576,51.1425,-0.1289,0.5926,-0.4243,160.5312
20:19:21:055,-0.3004,0.8936,5.8671,50.6861,-0.0788,0.3705,-0.2907,161.1406
20:19:21:074,-0.2369,1.2743,6.1999,50.7082,0.032,0.1393,-0.1964,161.625
20:19:21:091,-0.0286,1.5413,6.5159,50.125,0.1284,-0.0189,-0.161,162.0156
20:19:21:114,-0.0071,1.6741,6.966,50.2904,0.1731,-0.0913,-0.1732,162.2656
20:19:21:141,-0.1723,1.7975,7.4928,50.4964,0.1449,-0.1217,-0.2041,162.4531
20:19:21:159,-0.3925,1.9112,8.6611,48.6492,0.036,-0.102,-0.226,162.6406
20:19:21:181,-0.2908,1.7986,10.033,48.6492,-0.0828,0.1119,-0.2587,162.8594
20:19:21:192,-0.3518,1.6215,11.2852,50.3497,-0.1518,0.4695,-0.3042,163.125
20:19:21:214,-0.5075,1.3521,12.1004,48.4106,-0.1009,0.7223,-0.3202,163.375
20:19:21:245,-0.8546,1.1295,12.5386,47.2824,0.0413,0.6975,-0.3056,163.6875
20:19:21:261,-1.0474,0.8721,13.0473,48.061,0.2274,0.4868,-0.2353,164.0156
20:19:21:275,-0.9827,0.677,13.1838,48.2365,0.4179,0.4179,-0.1477,164.4688
20:19:21:291,-0.7828,0.5668,12.3099,48.2094,0.5524,0.5508,-0.0939,164.7031
20:19:21:311,-0.9384,0.8865,11.0027,48.5352,0.5428,0.6658,-0.0848,164.8594
20:19:21:331,-1.3514,1.2635,10.2605,46.5458,0.3766,0.6197,-0.1024,164.9531
20:19:21:356,-1.5801,1.1797,10.4999,45.9389,0.1784,0.441,-0.1311,165.0156
20:19:21:375,-1.9799,0.8757,10.9668,47.1746,0.0762,0.1801,-0.137,165.1094
20:19:21:392,-2.3067,0.3956,11.691,46.7303,0.0836,-0.1334,-0.0595,165.2188
20:19:21:412,-2.2493,-0.2376,12.1734,46.4184,0.2243,-0.2722,0.0798,165.3594
20:19:21:439,-1.8793,-0.7416,11.284,46.5749,0.4482,-0.2844,0.2329,165.4531
20:19:21:456,-1.2209,-0.6602,9.7122,46.041,0.4884,-0.3316,0.3301,165.4375
20:19:21:474,-0.681,-0.2592,9.0131,45.8829,0.2626,-0.4309,0.2739,165.3125
20:19:21:562,-0.3961,-0.0772,9.4034,45.1533,-0.0202,-0.4578,0.128,165.0312
20:19:21:562,-0.1483,-0.252,9.8187,47.2325,-0.1603,-0.3113,-0.007,164.7188
20:19:21:563,-0.5158,-0.2891,9.3004,46.6194,-0.1182,-0.0666,-0.0973,164.5469
20:19:21:570,-1.0462,-0.2065,8.1069,45.6507,0.0037,0.1342,-0.0353,164.5156
20:19:21:585,-0.845,-0.2077,6.9254,45.8044,0.1364,0.2115,0.1496,164.6562
20:19:21:591,-0.3506,0.0461,5.7965,45.0168,0.2309,0.1577,0.3205,164.6875
20:19:21:611,-0.019,0.4735,5.1177,46.6779,0.2365,-0.0082,0.4116,164.5156
20:19:21:639,0.1952,0.8314,4.9298,45.4044,0.1782,-0.1806,0.4332,164.1406
20:19:21:655,0.2551,1.4144,5.842,46.8053,-0.0546,-0.5084,0.3506,163.6719
20:19:21:673,0.2036,1.6047,6.8918,46.4752,-0.1374,-0.6812,0.2761,163.2344
20:19:21:697,-0.2968,1.6059,8.1955,44.4758,-0.1617,-0.7894,0.1898,162.4688
20:19:21:711,-0.6212,1.5137,9.3064,45.4179,-0.1404,-0.7316,0.1661,162.4688
20:19:21:731,-0.4799,1.4754,9.7661,44.3228,-0.1111,-0.5534,0.1381,162.2344
20:19:21:756,-0.2142,1.3761,9.9612,45.7943,-0.1806,-0.4442,0.0446,162.1094
20:19:21:777,0.0265,0.7452,10.95,44.954,-0.3699,-0.4807,-0.0744,161.9844
20:19:21:796,0.1893,-0.3166,13.1096,44.4459,-0.5286,-0.4988,-0.1274,161.8906
20:19:21:811,0.5137,-1.5078,14.9016,43.9301,-0.4724,-0.2975,-0.027,162.0312
20:19:21:833,1.275,-2.0405,14.6431,44.9966,-0.2578,0.1071,0.1999,162.125
20:19:21:854,2.2004,-1.3509,12.2752,44.8195,-0.1174,0.4408,0.3307,162.2344
20:19:21:871,2.5847,-0.2795,9.8163,43.9231,-0.2426,0.2834,0.1285,162.2188
20:19:21:894,1.9706,0.1454,9.4608,44.3223,-0.6703,-0.3177,-0.3208,162.0625
20:19:21:911,0.7292,-0.8146,11.9951,46.5798,-1.1052,-0.9097,-0.6744,161.6562
20:19:21:931,-0.0166,-1.989,15.2009,45.3446,-1.0884,-0.829,-0.6853,161.5
20:19:21:955,0.5328,-2.141,14.928,43.8084,-0.5105,-0.2871,-0.4358,161.9062
20:19:21:973,1.5983,-1.224,12.037,44.4139,0.1055,-0.122,-0.2385,162.7656
20:19:21:996,2.3704,0.0796,9.4369,45.3317,0.3896,-0.3656,-0.2939,163.625
20:19:22:010,2.4099,0.6219,8.1727,45.194,0.3681,-0.6495,-0.6252,164.125
20:19:22:032,1.5707,0.1538,7.6795,45.4041,0.2016,-0.5941,-0.9594,164.4062
20:19:22:059,0.4682,-0.2699,7.0953,45.4617,0.0069,-0.1742,-1.0792,164.7344
20:19:22:081,-0.3303,-0.2065,6.4417,44.8926,-0.179,0.2972,-1.0054,165.4219
20:19:22:091,-0.45,0.173,6.3064,46.5394,-0.3113,0.5558,-0.8465,166.5469
20:19:22:112,-0.189,0.5249,6.8607,46.3074,-0.3103,0.6024,-0.7074,168.3906
20:19:22:140,0.1318,0.7488,7.1013,44.0673,-0.1071,0.5662,-0.6097,169.3906
20:19:22:159,0.3305,0.9786,6.5435,45.6721,0.1345,0.424,-0.5567,170.25
20:19:22:180,0.4275,1.2719,6.0144,45.8616,0.1992,0.2117,-0.5319,170.9844
20:19:22:190,0.5651,1.5233,6.4274,44.9142,0.0757,-0.0303,-0.5311,171.5781
20:19:22:213,0.4778,1.5221,7.6999,45.5423,-0.0778,-0.2069,-0.5484,172.1719
20:19:22:243,0.0097,1.3749,9.316,46.5389,-0.1337,-0.2778,-0.541,172.7656
20:19:22:259,-0.4991,1.0289,10.6795,46.621,-0.0503,-0.2021,-0.4409,173.4062
20:19:22:275,-0.766,0.6183,11.0266,47.4615,0.1199,-0.0751,-0.2126,174.0156
20:19:22:290,-0.4727,0.6351,10.7872,47.089,0.229,-0.0953,0.1083,174.6094
20:19:22:311,0.552,0.9655,11.0027,48.8623,0.2405,-0.3102,0.381,175.0156
20:19:22:334,2.0292,1.1187,11.6311,47.7059,0.2192,-0.6288,0.4904,175.0625
20:19:22:356,3.3065,1.1486,12.1232,46.8101,0.1973,-0.9441,0.4023,174.7656
20:19:22:373,3.7267,1.1235,12.3997,49.9858,0.098,-1.1254,0.1408,174.2656
20:19:22:395,3.589,0.7213,12.705,49.8413,-0.1095,-1.0647,-0.1623,174
20:19:22:412,2.8947,0.0377,12.7983,49.0336,-0.3406,-0.8213,-0.3897,173.5156
20:19:22:438,2.0843,-0.4675,13.0665,49.0262,-0.5039,-0.6176,-0.459,173.6094
20:19:22:456,1.7658,-0.8015,13.6064,49.3428,-0.5196,-0.3947,-0.4307,174.0312
20:19:22:475,1.7,-1.072,13.6973,51.3216,-0.3361,-0.1108,-0.4052,174.5781
20:19:22:491,1.4989,-1.6011,12.4176,50.1565,-0.0336,-0.0053,-0.4081,175.1719
20:19:22:511,0.9327,-1.8657,10.6926,47.6634,0.159,-0.1108,-0.3682,175.7188
20:19:22:531,0.1773,-1.6071,9.5111,51.9161,0.147,-0.2229,-0.2233,176.1719
20:19:22:560,0.0719,-1.3773,9.0729,51.5425,0.0682,-0.2937,-0.0174,176.625
20:19:22:574,0.0408,-1.0576,8.8766,51.0841,0.0282,-0.2599,0.1331,176.9688
20:19:22:590,-0.0047,-0.641,8.4924,50.215,0.0525,-0.1241,0.2713,177.1094
20:19:22:611,0.1833,-0.2999,7.7035,52.169,0.1281,-0.02,0.3887,177.0469
20:19:22:630,0.3377,-0.0509,6.7398,50.7616,0.1984,-0.0176,0.4577,176.8281
20:19:22:655,0.4119,0.0652,6.097,51.5269,0.1952,-0.09,0.5014,176.4375
20:19:22:674,0.4059,0.0138,5.9593,51.8382,0.1207,-0.1252,0.5514,175.6719
20:19:22:692,0.5424,-0.1299,6.2083,54.038,0.0189,-0.1337,0.6271,175.0781
20:19:22:711,1.0129,-0.0688,7.0319,51.8358,-0.0514,-0.1851,0.687,174.4375
20:19:22:731,1.7,-0.088,8.1225,52.147,-0.0333,-0.2858,0.6667,173.7656
20:19:22:758,2.1549,0.0102,9.2393,53.2969,0.0373,-0.3217,0.5517,172.9844
20:19:22:775,2.0651,-0.0509,10.1994,53.2274,0.098,-0.1592,0.3653,172.25
20:19:22:791,1.3397,-0.1538,11.1044,52.919,0.0663,0.2892,0.1573,171.6562
20:19:22:815,1.0224,-0.3023,11.8993,53.2555,-0.1025,1.057,-0.0238,171.2344
20:19:22:841,1.0045,-0.8278,11.9232,53.0309,-0.4352,1.8464,-0.2081,171.0312
20:19:22:859,0.4095,-1.2683,12.9061,52.3592,-0.6988,2.1947,-0.2638,171
20:19:22:876,-0.0154,-2.0381,14.1475,52.717,-0.5643,1.9343,-0.1588,171.0938
20:19:22:892,-0.3339,-2.6294,14.5449,52.717,-0.1153,1.3548,0.0979,171.3438
20:19:22:912,0.6322,-2.6318,13.8374,53.9113,0.3492,0.8067,0.4183,171.5781
20:19:22:939,1.7838,-1.9387,12.8378,53.4957,0.5116,0.4434,0.4641,171.5938
20:19:22:958,1.6904,-1.4108,13.2197,53.2822,0.2541,0.3295,0.1616,171.25
20:19:22:975,0.3066,-2.135,15.2189,53.4899,-0.134,0.8016,-0.1951,170.4062
20:19:22:991,-0.6044,-3.3489,15.5062,54.8361,-0.184,1.7484,-0.1772,170.2031
20:19:23:010,-0.2046,-3.2914,13.1766,53.8084,0.1665,2.2925,0.1498,170.3906
20:19:23:032,0.7986,-2.0393,9.6033,51.5159,0.5193,2.1819,0.3946,170.5156
20:19:23:057,1.1374,0.3681,5.8408,51.9903,0.42,1.2445,0.1288,170.2812
20:19:23:071,0.7615,0.7021,5.5104,51.6961,0.1947,1.0126,-0.1309,170.2812
20:19:23:091,0.5209,0.6937,5.174,51.5464,0.0578,0.8919,-0.3008,169.2969
20:19:23:110,0.206,0.5716,4.8939,50.7079,0.0418,0.7279,-0.3453,169.2969
20:19:23:130,-0.2022,0.6028,4.6927,52.195,0.0946,0.563,-0.2291,169.2188
20:19:23:157,-0.1471,0.9882,4.749,51.2106,0.1571,0.384,-0.0449,169.2188
20:19:23:174,0.2814,1.4311,4.9705,51.3806,0.2115,0.2213,0.0353,169.5156
20:19:23:191,0.5496,1.7197,5.1871,51.702,0.2202,0.0804,-0.0073,170.0938
20:19:23:215,0.4347,1.6909,6.0563,51.0639,0.1721,0.0171,-0.0845,170.1094
20:19:23:229,-0.207,1.5305,7.1851,51.5338,0.1467,0.1071,-0.1335,170.125
20:19:23:251,-1.343,1.6358,8.0183,51.3529,0.2,0.2168,-0.0744,170.1406
20:19:23:272,-1.7943,1.6394,8.4373,51.5465,0.3396,0.2259,0.0769,170.4375
20:19:23:291,-2.5354,1.7484,8.3918,51.6521,0.4701,0.0956,0.23,170.5
20:19:23:311,-3.2823,1.8956,8.1979,51.6521,0.478,-0.1561,0.4462,170.5156
20:19:23:331,-3.4811,2.2655,8.7306,49.6906,0.3295,-0.5672,0.6564,170.4688
20:19:23:357,-3.1495,2.5636,10.282,51.7145,0.1185,-0.9595,0.7464,170.2812
20:19:23:377,-2.6646,2.3864,12.456,51.198,-0.0647,-1.0575,0.7086,169.8438
20:19:23:392,-2.1595,2.1338,14.2013,49.7242,-0.1521,-0.7859,0.6409,169.2344
20:19:23:410,-1.7896,2.2691,14.5665,49.5571,-0.0935,-0.4999,0.5309,168.4844
20:19:23:431,-1.6339,2.3553,13.6638,49.8439,-0.0013,-0.5859,0.3232,167.7656
20:19:23:454,-2.1906,1.9471,13.094,49.6038,-0.0527,-1.0613,0.0673,167.0938
20:19:23:471,-2.6587,0.9176,14.181,48.6043,-0.1345,-1.5976,-0.0619,166.5625
20:19:23:490,-2.5509,-0.5046,15.6343,48.8097,0.0413,-1.718,-0.0251,166.25
20:19:23:511,-2.1331,-1.1223,14.7843,48.2026,0.4847,-1.2511,0.1597,166.3594
20:19:23:530,-1.2892,-0.8182,11.5078,47.9358,0.8248,-0.6679,0.3381,166.6094
20:19:23:558,-0.5158,-0.0437,8.2745,47.6925,0.7484,-0.3856,0.3626,166.7031
20:19:23:572,-0.0933,0.5489,6.9206,47.5771,0.3643,-0.3667,0.2774,166.5156
20:19:23:639,0.0851,0.7236,7.2869,48.0534,-0.0053,-0.4155,0.1597,166.1719
20:19:23:639,-0.0585,0.5836,7.9177,46.4535,-0.1502,-0.3166,0.058,165.8594
20:19:23:640,-0.4285,0.4256,7.7322,47.9094,-0.0953,-0.0927,0.0279,165.6562
20:19:23:656,-0.6415,0.3837,6.8679,45.008,0.028,0.1073,0.0883,165.5781
20:19:23:672,-0.5625,0.4579,5.8515,45.9927,0.1177,0.1888,0.1868,165.5781
20:19:23:690,-0.3267,0.7308,5.1225,43.9024,0.1337,0.1547,0.2646,165.5156
20:19:23:715,-0.0418,0.9918,4.8999,44.6968,0.0855,-0.0213,0.2774,165.3438
20:19:23:739,0.1043,1.0936,5.2925,44.1112,-0.0229,-0.2186,0.2231,165.0625
20:19:23:758,0.1378,0.987,6.3256,45.1093,-0.1387,-0.3326,0.1445,164.7344
20:19:23:774,-0.0035,0.8853,7.3922,44.2245,-0.1837,-0.3571,0.088,164.4531
20:19:23:791,-0.0609,0.9906,8.2805,43.9021,-0.1864,-0.388,0.0417,164.3594
20:19:23:811,-0.2728,1.1857,9.3303,43.4082,-0.221,-0.3499,-0.0462,164.2031
20:19:23:831,-0.6882,1.0948,10.3862,42.0886,-0.2359,-0.1997,-0.1663,164.1875
20:19:23:857,-1.0114,0.6937,10.8878,41.2312,-0.2389,-0.0045,-0.2728,164.2188
20:19:23:875,-1.6435,0.2412,11.4839,41.6795,-0.3084,0.1758,-0.3088,164.3906
20:19:23:895,-1.9775,-0.422,12.5002,41.6729,-0.3414,0.2602,-0.2547,164.6562
20:19:23:909,-2.0816,-1.0576,13.0952,41.479,-0.2937,0.2964,-0.1287,165
20:19:23:930,-1.6375,-1.3509,12.863,39.5054,-0.2415,0.3409,0.0686,165.2969
20:19:23:955,-0.699,-1.1438,12.1208,39.9606,-0.2559,0.3164,0.2113,165.5
20:19:23:974,0.0456,-0.6111,11.515,40.6241,-0.3539,0.1241,0.2015,165.5156
20:19:23:989,0.3916,-0.0078,12.0956,40.6116,-0.5212,-0.2133,0.0265,165.3125
20:19:24:010,0.303,-0.4268,13.7859,39.5222,-0.641,-0.3973,-0.2315,165.0312
20:19:24:030,0.2,-1.4036,14.6191,40.1433,-0.5795,-0.1185,-0.3418,164.875
20:19:24:055,0.5304,-1.8202,13.2592,39.5325,-0.3902,0.4022,-0.2014,165.0156
20:19:24:074,1.3433,-1.3222,11.1344,39.1127,-0.2645,0.8221,0.0526,165.6094
20:19:24:090,2.0424,-0.422,9.3399,38.9812,-0.2258,0.9817,0.1807,165.8125
20:19:24:110,2.0903,0.4435,8.1524,38.3989,-0.1768,0.7707,0.0659,165.7031
20:19:24:131,1.2631,0.7632,7.3731,40.7702,-0.0991,0.4402,-0.1578,165.4375
20:19:24:157,0.3425,0.6075,6.7278,38.0146,-0.0373,0.1936,-0.284,165.3125
20:19:24:172,-0.3339,0.4591,6.1903,39.2837,-0.0298,0.1207,-0.2614,165.4531
20:19:24:192,-0.6296,0.5106,5.8719,38.2171,-0.0551,0.1476,-0.1383,165.75
20:19:24:211,-0.4787,0.8877,5.9282,39.7193,-0.069,0.1539,-0.015,166.0469
20:19:24:231,-0.0442,1.2671,6.1664,38.6059,-0.0083,0.1505,0.0252,166.2031
20:19:24:260,0.291,1.5042,6.1676,38.4008,0.0754,0.11,-0.0393,166.2031
20:19:24:275,0.3353,1.6801,6.2262,39.4326,0.0985,0.0456,-0.1378,166.1875
20:19:24:291,0.0504,1.7113,6.7685,39.0344,0.0336,-0.1241,-0.2339,166.1719
20:19:24:315,-0.7385,1.4958,8.557,36.6478,-0.0565,-0.3555,-0.2435,166.2656
20:19:24:337,-2.4815,0.404,13.5645,37.2903,0.4141,-0.6972,0.2281,166.625
20:19:24:353,-1.8135,0.2927,13.7285,36.728,0.9223,-0.5188,0.5847,167.0781
20:19:24:374,-0.9145,0.8793,12.0442,37.4684,1.1683,-0.1121,0.802,166.875
20:19:24:391,-0.4045,1.5604,10.8506,36.6367,0.9944,0.2224,0.8313,166.25
20:19:24:411,-0.201,1.5377,11.0841,37.8256,0.6722,0.3966,0.7602,165.3594
20:19:24:432,0.1928,1.1606,11.5797,38.084,0.4682,0.4903,0.6593,164.4375
20:19:24:458,0.2826,1.3533,11.4324,38.5558,0.3295,0.5324,0.5304,164.4375
20:19:24:476,0.3257,1.5772,11.2277,37.5786,0.126,0.5156,0.3394,162.7344
20:19:24:494,-0.1004,1.6047,11.1547,38.3114,-0.1078,0.4123,0.0854,162.7344
20:19:24:511,-0.9719,1.2995,11.5689,37.1876,-0.2783,0.086,-0.1277,161.6719
20:19:24:534,-1.6878,0.4172,12.4308,37.2179,-0.2818,-0.1853,-0.2286,161.6719
20:19:24:562,-1.762,-0.5166,11.9077,38.0874,-0.1089,-0.1188,-0.2009,161.5156
20:19:24:578,-1.6674,-0.5872,9.5566,39.0684,-0.041,0.0181,-0.1168,161.6406
20:19:24:592,-1.4484,-0.0341,7.6532,39.7413,-0.2461,-0.1102,-0.039,161.9062
20:19:24:612,-1.4232,0.2867,7.2402,37.4417,-0.5494,-0.466,-0.0374,162.1406
20:19:24:628,-1.2808,0.2352,7.895,38.0136,-0.7262,-0.7931,0.002,162.2656
20:19:24:650,-0.8271,-0.0197,8.6564,38.1482,-0.7326,-0.8844,0.0862,162.3125
20:19:24:675,-0.4644,0.1215,8.9496,39.2222,-0.625,-0.6703,0.1725,162.4219
20:19:24:691,-0.1316,0.4471,8.7868,39.4861,-0.4692,-0.3241,0.2058,162.4531
20:19:24:709,0.1019,0.5992,8.32,38.867,-0.2724,-0.0482,0.1778,162.4219
20:19:24:729,0.194,0.4543,7.5969,39.0343,-0.082,0.0887,0.1232,162.2812
20:19:24:750,-0.0334,0.1981,7.0379,38.6171,0.0397,0.1513,0.0995,162.0625
20:19:24:773,-0.274,-0.1012,6.7661,37.3968,0.1044,0.1305,0.156,161.8594
20:19:24:790,-0.2393,-0.0904,6.7961,38.621,0.1366,0.0117,0.2385,161.7344
20:19:24:809,-0.219,0.0856,7.3252,39.059,0.1254,-0.2317,0.2707,161.6094
20:19:24:830,-0.5793,0.2041,8.8958,38.0081,0.0701,-0.5081,0.2931,161.4219
20:19:24:855,-1.4197,0.1059,11.5366,39.322,0.1388,-0.6426,0.3943,161.1562
20:19:24:876,-1.1838,-0.1,13.8578,38.1697,0.506,-0.5704,0.6359,160.875
20:19:24:891,0.2276,0.331,13.7656,39.7885,0.9678,-0.2711,0.785,160.5625
20:19:24:909,1.0117,1.5676,12.0106,37.6017,1.0424,0.1321,0.613,159.875
20:19:24:931,0.9003,2.0584,11.0829,39.4026,0.6376,0.5026,0.2167,159.0469
20:19:24:958,-0.1495,1.1989,12.1806,39.8712,0.1401,0.7406,-0.0912,158.1719
20:19:24:976,-0.7265,-0.1131,13.6938,39.83,0.0168,0.9372,-0.0414,157.6406
20:19:24:994,-0.4991,-0.7452,13.2149,40.4957,0.2671,1.0003,0.2097,157.5312
20:19:25:010,-0.2836,-0.2065,11.3319,39.5147,0.5207,0.7566,0.4327,157.5625
20:19:25:030,-0.037,0.6937,9.7757,37.8843,0.5345,0.3068,0.4817,157.3594
20:19:25:058,0.3353,1.0481,9.5278,39.9465,0.3281,-0.1782,0.3363,156.9062
20:19:25:076,0.9195,0.5441,10.525,40.4611,0.0559,-0.4599,0.0827,156.2812
20:19:25:092,1.3265,-0.1933,11.0565,39.4545,-0.115,-0.4,-0.1724,155.7969
20:19:25:110,1.4319,-0.5201,10.962,38.8043,-0.1816,-0.2383,-0.3085,155.6094
20:19:25:130,1.6713,-0.064,10.3347,38.6083,-0.1595,-0.188,-0.3711,155.7344
20:19:25:157,1.7922,0.7452,9.6691,39.2623,-0.1097,-0.33,-0.5208,156.0625
20:19:25:179,1.4043,1.2623,9.1316,39.6713,-0.07,-0.4514,-0.7578,156.4531
20:19:25:194,0.8369,1.3162,8.5151,39.0932,-0.0413,-0.3784,-0.9594,156.6875
20:19:25:209,0.3209,1.2264,7.5826,40.7443,-0.0322,-0.1142,-1.059,157.75
20:19:25:229,-0.0873,1.4168,6.8954,38.6106,-0.049,0.1263,-1.0417,158.8125
20:19:25:250,-0.2393,1.6658,6.8906,40.3557,-0.0075,0.1963,-0.9732,159.9531
20:19:25:273,-0.2848,1.892,7.3755,38.3347,0.1598,0.143,-0.8851,161.1719
20:19:25:291,0.1282,2.1602,7.5478,39.6058,0.4125,0.0461,-0.7772,162.2969
20:19:25:312,0.37,2.6091,7.1612,40.7555,0.6163,-0.0213,-0.7538,163.2969
20:19:25:329,0.4442,3.0101,6.5686,39.7383,0.6568,-0.0487,-0.8169,164.2344
20:19:25:351,0.2359,3.1909,6.5351,39.1487,0.518,-0.0479,-0.9173,165.0938
20:19:25:374,-0.2812,3.2495,7.2486,38.6175,0.2871,-0.0011,-0.9807,165.9531
20:19:25:390,-0.705,2.9634,8.885,40.3733,0.1223,0.0477,-0.9602,166.9531
20:19:25:409,-1.2844,2.6163,10.5526,39.5589,0.1848,0.0746,-0.8598,168.0625
20:19:25:429,-2.0266,2.3062,11.3953,38.5328,0.3992,0.0773,-0.6603,169.1875
20:19:25:450,-2.2983,2.2081,11.7928,38.5329,0.5992,0.1191,-0.354,170.1875
20:19:25:476,-1.6902,2.1734,11.7509,39.398,0.7366,0.1667,-0.0688,171.4062
20:19:25:497,-0.9241,2.1171,11.1272,39.8822,0.7798,0.1801,0.0681,171.8125
20:19:25:509,-0.7936,2.2416,10.3024,38.6405,0.6037,0.1239,0.0641,171.875
20:19:25:530,-0.7361,2.3314,10.3251,40.2639,0.1923,0.0607,0.0042,171.7812
20:19:25:560,-0.7672,2.1231,11.4169,39.5009,-0.3057,-0.0266,-0.1112,171.7031
20:19:25:577,-1.3251,1.1007,13.7333,41.1019,-0.616,-0.1752,-0.1929,171.7031
20:19:25:594,-1.9919,-0.2089,15.2428,40.0414,-0.4442,-0.11,-0.1239,171.8125
20:19:25:610,-2.4539,-0.9403,13.4687,39.5133,0.0069,0.1942,0.1096,172.0469
20:19:25:629,-2.6311,-0.6805,10.1372,40.4309,0.2288,0.3505,0.4433,172.1875
20:19:25:706,-2.0661,0.0616,7.992,42.2368,0.1252,0.1332,0.7368,172.1562
20:19:25:707,-1.2975,0.683,7.4772,42.2125,-0.0873,-0.3108,0.858,171.7969
20:19:25:707,-0.541,0.993,8.0267,41.9,-0.2296,-0.6748,0.8716,171.0625
20:19:25:709,0.0145,1.145,8.4265,42.4681,-0.2205,-0.7057,0.854,170.1875
20:19:25:730,0.4837,1.3378,7.8842,39.5408,-0.1361,-0.5297,0.8138,169.2812
20:19:25:761,0.6501,1.5856,6.8835,41.5002,-0.1055,-0.2775,0.7408,168.4219
20:19:25:774,0.6837,1.8334,5.9665,41.4059,-0.1547,-0.062,0.6612,167.1875
20:19:25:788,0.6442,2.1003,5.4445,41.6249,-0.2368,0.0368,0.5669,166.3906
20:19:25:810,0.4873,2.2488,5.192,41.399,-0.2889,-0.004,0.4654,165.6406
20:19:25:829,0.2084,2.2643,5.3404,42.909,-0.3228,-0.1686,0.3834,165.0312
20:19:25:851,-0.0562,1.9315,7.0068,42.714,-0.2953,-0.4477,0.3677,164.5
20:19:25:875,0.0157,2.0584,7.968,43.109,-0.2288,-0.4232,0.3988,164.0938
20:19:25:893,0.3437,2.2272,8.7964,42.4893,-0.1489,-0.3829,0.3656,163.75
20:19:25:910,0.206,2.1793,9.1879,43.0873,-0.119,-0.306,0.2239,163.4219
20:19:25:929,-0.3411,1.7101,9.5374,43.5,-0.2386,-0.2221,0.0763,163.0312
20:19:25:951,-0.8414,0.9691,10.8219,44.9985,-0.5084,-0.1281,0.0409,162.6719
20:19:25:975,-1.0545,0.2795,13.4412,44.0771,-0.7084,-0.0346,0.1347,162.4844
20:19:25:992,-0.5254,-0.228,15.3086,44.8406,-0.5587,0.1779,0.291,162.4375
20:19:26:009,0.3161,-0.5417,14.7568,45.082,-0.2437,0.4836,0.3927,162.4375
20:19:26:029,0.7028,-0.4711,12.5457,44.7058,-0.1233,0.8293,0.3943,162.1875
20:19:26:050,0.5771,0.0245,10.4101,44.2042,-0.3635,1.0014,0.2622,161.7656
20:19:26:075,-0.0274,0.2699,10.1946,44.5434,-0.8748,0.7737,0.026,161.2344
20:19:26:093,-1.1862,-0.349,13.1203,45.6097,-1.2357,0.2791,-0.1442,160.9531
20:19:26:110,-1.3658,-1.6095,16.2172,45.9105,-0.9505,0.0309,-0.0049,160.5781
20:19:26:132,-0.1232,-1.9746,15.3625,48.263,-0.1806,0.1742,0.3536,160.4688
20:19:26:157,1.3923,-0.8529,11.5749,45.7316,0.4232,0.2844,0.621,160.625
20:19:26:177,2.7163,0.6267,8.0542,45.9993,0.4978,0.1273,0.5099,160.6406
20:19:26:193,2.8779,1.4754,6.5231,46.5263,0.1422,-0.1156,0.0574,160.2188
20:19:26:208,2.2662,1.3725,6.6752,46.4573,-0.3201,-0.1667,-0.4182,159.4844
20:19:26:229,1.366,0.8242,7.2941,48.5292,-0.6285,0.0219,-0.7325,158.8906
20:19:26:248,0.2288,0.6842,7.9668,48.2295,-0.7121,0.3172,-0.8355,158.8438
20:19:26:273,-0.4608,0.6243,8.3607,48.1785,-0.5638,0.5518,-0.7522,159.3438
20:19:26:292,-0.693,0.5836,8.1931,47.3818,-0.2498,0.6109,-0.5775,160.1875
20:19:26:308,-0.687,0.7368,7.4928,48.7019,0.0762,0.6032,-0.3506,161.5156
20:19:26:329,-0.2968,1.0409,6.7494,48.4002,0.3217,0.5816,-0.129,162.2344
20:19:26:349,0.2551,1.3797,6.0347,48.1914,0.4727,0.5311,0.001,162.7344
20:19:26:374,0.7854,1.7915,5.5188,49.066,0.5028,0.3819,0.0374,162.9531
20:19:26:392,1.0787,2.1877,5.7402,49.4655,0.3883,0.1755,0.0148,162.9844
20:19:26:416,1.4055,2.3002,7.1779,50.3493,0.2221,-0.0303,-0.0369,162.9375
20:19:26:429,1.2044,2.2655,9.201,49.7784,0.1278,-0.0826,-0.1423,162.8906
20:19:26:454,0.1785,2.1099,11.1822,49.7879,0.1595,0.0205,-0.2299,162.9062
20:19:26:474,-1.0785,2.0716,12.1315,49.1185,0.2773,0.2695,-0.2227,163.0156
20:19:26:490,-2.1044,1.6442,12.432,51.669,0.3468,0.4618,-0.1232,163.25
20:19:26:510,-2.8957,1.0541,12.918,52.1234,0.2924,0.6717,0.1083,163.5
20:19:26:530,-3.0477,0.8769,13.4304,49.6741,0.1856,0.8703,0.4204,163.7031
20:19:26:559,-2.527,1.3833,13.6997,51.571,0.1124,0.8669,0.6212,163.6875
20:19:26:574,-2.1331,1.6454,13.5082,53.0119,0.0786,0.6181,0.5956,163.5781
20:19:26:590,-2.1762,1.1702,13.0162,51.8368,0.0064,0.2389,0.4572,162.2188
20:19:26:608,-2.6347,0.3789,13.1586,52.9346,-0.0735,-0.1201,0.3493,161.8438
20:19:26:633,-2.758,-0.3968,13.4112,53.7123,0.0413,-0.4114,0.3155,161.2188
20:19:26:647,-2.2516,-0.9307,12.6247,50.5264,0.3135,-0.4794,0.2902,160.7656
20:19:26:669,-1.4448,-1.0121,10.3083,53.2124,0.4336,-0.2937,0.2204,160.4062
20:19:26:691,-0.8917,-0.8769,8.5426,53.0295,0.2437,-0.1819,0.0915,160.125
20:19:26:708,-1.0869,-0.4064,8.1308,52.7277,-0.0503,-0.225,-0.0353,159.9062
20:19:26:732,-1.2329,-0.1443,8.2924,52.9368,-0.208,-0.3667,-0.1114,159.7656
20:19:26:748,-1.2712,-0.331,8.1308,54.0227,-0.2298,-0.4421,-0.1082,159.7656
20:19:26:768,-1.2772,-0.2855,7.5239,51.8574,-0.212,-0.3574,0.0039,159.875
20:19:26:792,-1.2126,0.0808,6.9996,53.7417,-0.1489,-0.2479,0.148,160.0625
20:19:26:809,-0.9432,0.2759,6.3555,54.6891,-0.0351,-0.2378,0.2654,160.1562
20:19:26:829,-0.6966,0.41,5.7031,53.7417,0.0485,-0.2575,0.3602,160.1094
20:19:26:849,-0.4727,0.5561,5.2662,54.2987,0.0722,-0.3329,0.4396,159.875
20:19:26:873,-0.1627,0.6602,5.2937,53.5505,0.0458,-0.4394,0.5078,159.3438
20:19:26:891,-0.0011,0.7524,5.836,53.8532,-0.0144,-0.5177,0.5424,158.9062
20:19:26:914,0.1761,0.9032,6.6728,54.1318,-0.0589,-0.5236,0.5557,158.375
20:19:26:929,0.1665,0.8817,7.9297,55.2519,-0.0911,-0.4514,0.5347,157.8125
20:19:26:949,-0.304,0.8553,9.1723,53.9071,-0.1302,-0.0905,0.5373,157.25
20:19:26:974,-0.5003,1.588,9.9588,53.5349,-0.1521,0.3931,0.5663,156.7031
20:19:26:992,0.0348,2.4678,10.0402,54.0093,-0.0815,0.5031,0.4271,156.0938
20:19:27:012,0.054,2.6929,10.124,55.1313,-0.02,0.1028,0.0795,155.3906
20:19:27:033,-0.6164,1.8322,11.7066,53.1278,-0.0501,-0.3555,-0.2387,154.8906
20:19:27:059,-1.5489,0.5345,13.5657,54.117,-0.0714,-0.4149,-0.3594,154.7812
20:19:27:074,-1.9787,-0.513,14.4395,54.825,-0.0407,-0.1193,-0.2257,154.9062
20:19:27:092,-1.4615,-0.5776,13.5693,54.2789,-0.0629,0.3494,0.0311,155.3281
20:19:27:109,-0.4177,0.349,12.1052,56.7733,-0.2727,0.4967,0.1253,155.7031
20:19:27:128,-0.1663,1.2623,12.2321,53.6038,-0.6328,0.1084,-0.0808,155.7969
20:19:27:149,-0.9731,0.562,14.9232,55.7227,-0.9025,-0.4335,-0.3756,155.625
20:19:27:177,-2.2181,-1.2312,17.9638,53.7612,-0.727,-0.4104,-0.3889,155.6094
20:19:27:188,-2.1343,-2.2847,16.6685,55.7407,-0.1414,0.2421,-0.0004,156.0625
20:19:27:209,-0.5482,-1.6406,12.7073,55.0097,0.3902,0.6834,0.5269,156.5312
20:19:27:233,2.1788,1.3306,7.1037,54.7014,0.501,-0.119,0.5205,156.5
20:19:27:258,2.0256,1.588,6.9397,53.19,0.3028,-0.6154,0.0998,154.9688
20:19:27:278,1.6222,1.3031,7.4688,53.8166,0.1175,-0.6216,-0.2523,154.9688
20:19:27:294,0.9937,0.8206,8.059,55.3698,0.0671,-0.2831,-0.4853,154.4219
20:19:27:310,0.2204,0.4292,8.0494,54.2965,0.1958,0.1406,-0.5684,154.3594
20:19:27:328,-0.2692,0.1191,7.3838,53.4278,0.4163,0.4679,-0.5008,154.7188
20:19:27:349,-0.2094,0.1442,6.073,53.7138,0.624,0.6325,-0.3365,155.2969
20:19:27:374,0.0145,0.6279,4.9657,55.39,0.7119,0.5747,-0.2038,155.9062
20:19:27:391,0.2419,1.1618,4.4282,54.7763,0.6805,0.3891,-0.1604,156.7656
20:19:27:408,0.6178,1.4958,4.6724,53.7297,0.5635,0.1422,-0.1735,156.9375
20:19:27:429,0.807,1.9543,5.6456,53.8789,0.4128,-0.0732,-0.2486,157
20:19:27:448,0.8141,2.2093,7.0965,54.0274,0.3095,-0.1574,-0.377,157.1719
20:19:27:475,0.6011,2.2356,8.2912,52.6986,0.2866,-0.1313,-0.5242,157.4219
20:19:27:493,-0.0765,2.1446,9.1795,53.3388,0.2991,-0.0383,-0.6366,157.7969
20:19:27:510,-0.8115,1.9914,9.7182,53.5836,0.3172,0.1984,-0.6672,158.0312
20:19:27:528,-1.3634,1.9375,9.4979,52.7905,0.2935,0.4741,-0.6292,158.6719
20:19:27:548,-1.9643,2.1159,9.3315,53.5742,0.1622,0.5526,-0.5572,159.4062
20:19:27:576,-2.6503,2.0536,10.3503,53.5742,0.0149,0.436,-0.4283,160.1094
20:19:27:595,-2.8945,1.8334,11.4947,54.133,0.0032,0.3281,-0.2241,160.7812
20:19:27:610,-2.527,1.9124,11.8969,53.0185,0.0887,0.2221,-0.0273,161.3438
20:19:27:629,-2.0014,2.3326,11.6443,52.8025,0.0706,0.1055,0.062,161.75
20:19:27:648,-1.5501,2.6426,11.9496,53.6057,-0.1443,-0.0442,-0.014,161.9531
20:19:27:676,-1.8865,2.4798,13.5417,53.0807,-0.3776,-0.2615,-0.1967,161.875
20:19:27:694,-2.776,1.3665,15.5181,52.8621,-0.3515,-0.3174,-0.2904,161.8906
20:19:27:712,-3.1626,0.1227,15.6151,51.7633,0.004,0.0695,-0.1485,161.9844
20:19:27:778,-2.7927,-0.0377,12.3362,52.1727,0.4285,0.6568,0.1048,162.3125
20:19:27:778,-2.1583,0.7308,8.1691,51.4669,0.5018,0.8085,0.2271,162.5938
20:19:27:778,-1.6794,1.2863,6.0598,51.6863,0.1737,0.4884,0.1256,162.5781
20:19:27:792,-1.7932,1.2025,6.1592,52.24,-0.2503,0.0101,-0.0499,162.2812
20:19:27:809,-2.1631,1.0612,7.2198,52.2941,-0.4772,-0.3494,-0.1149,161.9844
20:19:27:828,-2.2409,1.2552,7.6412,52.9521,-0.4232,-0.5465,-0.0486,161.8906
20:19:27:848,-1.9428,1.4551,7.2785,52.3527,-0.232,-0.6823,0.091,162.0156
20:19:27:875,-1.4556,1.7556,6.5794,50.9496,-0.0743,-0.734,0.2617,162.1562
20:19:27:893,-0.4847,1.9854,6.4716,51.6283,-0.0312,-0.7398,0.3759,162.2031
20:19:27:910,0.1976,2.0943,6.7542,50.3892,-0.0386,-0.6511,0.3251,162.0938
20:19:27:928,0.1905,2.0285,7.221,51.6945,-0.0429,-0.4599,0.1578,161.7969
20:19:27:949,-0.0909,1.6897,7.6652,49.9331,-0.0375,-0.196,0.0095,161.5
20:19:27:975,-0.3267,1.0457,8.0542,51.6365,-0.0133,0.0328,-0.0776,161.2812
20:19:27:992,-0.7541,0.6111,8.3547,50.6101,0.0229,0.2101,-0.0885,161.25
20:19:28:009,-1.0976,0.155,8.6145,51.3613,0.0727,0.3042,-0.0371,161.2969
20:19:28:027,-1.4843,-0.0114,8.5989,50.7687,0.0842,0.334,0.0622,161.3906
20:19:28:049,-1.6663,0.0437,8.7773,51.869,0.0365,0.2003,0.1664,161.4219
20:19:28:075,-1.9129,-0.0916,9.1543,50.4793,-0.0554,-0.0775,0.2343,161.375
20:19:28:094,-2.0541,-0.3573,10.2701,51.6714,-0.1933,-0.3491,0.3248,161.2188
20:19:28:111,-1.7285,-0.5285,11.8454,50.0659,-0.266,-0.465,0.4225,160.9688
20:19:28:127,-1.1611,-0.8601,13.0605,51.4165,-0.2402,-0.4032,0.4766,160.6875
20:19:28:148,-0.4321,-1.242,12.2943,51.2418,-0.2338,-0.0892,0.4982,160.2969
20:19:28:173,-0.1208,-0.5908,10.4352,51.5011,-0.5321,0.2011,0.4124,159.8594
20:19:28:190,-0.3231,0.2675,10.5023,48.8865,-1.0916,0.0384,0.1613,159.3281
20:19:28:209,-0.9923,0.1407,14.2744,50.043,-1.4565,-0.4149,-0.1447,158.7656
20:19:28:228,-1.5717,-0.9439,17.8597,48.4028,-1.1776,-0.4306,-0.2331,158.3906
20:19:28:249,-1.44,-1.2779,17.3976,48.1913,-0.4575,0.004,-0.0427,158.3906
20:19:28:275,-0.4045,-0.6255,13.6459,48.7976,0.0756,0.3968,0.1738,158.7969
20:19:28:291,0.6825,0.3777,11.0482,50.4013,0.1539,0.3587,0.1472,158.8438
20:19:28:310,1.2499,0.6889,10.5442,48.9398,0.053,0.1883,-0.0664,158.6094
20:19:28:327,1.1481,0.5573,10.2892,51.1551,0.0567,0.2847,-0.2768,158.4219
20:19:28:347,0.5628,0.5537,8.9089,51.0858,0.1468,0.5374,-0.3799,158.4844
20:19:28:368,0.0097,0.5848,7.3395,49.7932,0.1982,0.7212,-0.3386,158.7812
20:19:28:394,-0.3854,0.7105,6.3064,50.5881,0.2053,0.8277,-0.1833,159.1719
20:19:28:410,-0.5984,1.1139,5.7725,50.5893,0.2322,0.8469,0.0199,159.5
20:19:28:427,-0.3004,1.5963,5.332,48.9827,0.3185,0.7401,0.21,159.6406
20:19:28:450,0.3269,2.0381,5.0231,49.7235,0.4021,0.4767,0.279,159.5625
20:19:28:476,0.4766,2.3326,5.1488,49.2836,0.4234,0.2104,0.2228,159.4375
20:19:28:495,0.1534,2.4702,5.824,50.7502,0.3654,0.1252,0.1288,159.1094
20:19:28:511,-0.2908,2.882,6.814,49.2289,0.3113,0.1081,0.0042,158.8125
20:19:28:528,-0.5649,3.3633,8.2709,50.1732,0.3422,0.0336,-0.1996,158.625
20:19:28:550,-0.942,2.9586,9.3076,49.6181,0.4701,0.0741,-0.4435,158.5625
20:19:28:575,-1.3131,1.9267,11.3115,50.6805,0.4823,0.7071,-0.5796,158.8438
20:19:28:590,-2.8993,2.2332,8.9484,50.5074,0.4171,1.2666,-0.5892,159.375
20:19:28:607,-5.3833,1.5832,8.3487,51.2854,0.3585,0.7809,-0.415,159.9688
20:19:28:628,-6.6749,1.2576,13.7117,51.735,0.55,-0.2612,0.6731,160.5156
20:19:28:650,-5.2935,1.1319,11.8358,50.6711,0.832,-0.7979,1.1448,160.5156
20:19:28:672,-4.1778,1.6754,9.5087,51.4851,0.5044,-1.0096,1.3786,160.9375
20:19:28:689,-3.3625,2.3804,10.7345,53.0183,0.195,-1.5073,1.577,160.8438
20:19:28:706,-2.0565,2.5349,14.0301,50.6345,-0.0112,-1.4511,1.6915,160.1875
20:19:28:730,-0.8678,2.1985,15.1411,51.3722,-0.1699,-0.7076,1.6087,159.0938
20:19:28:747,0.7998,2.3146,13.7716,52.0988,-0.0607,-0.4298,1.4409,157.7188
20:19:28:767,2.2351,1.0564,13.0797,50.571,0.2016,-0.6527,1.1224,156.25
20:19:28:791,3.7494,1.0193,10.9464,52.1868,0.4227,-0.3707,0.4755,151.25
20:19:28:808,1.5216,0.7213,8.9042,51.8071,0.2107,-0.6154,-0.1817,150.1406
20:19:28:828,0.0265,0.8362,7.8962,51.8036,-0.2605,-0.673,-0.2888,149.7812
20:19:28:848,-0.7217,0.5489,8.7258,52.2571,-0.7473,-0.828,0.0521,149.7656
20:19:28:874,-0.5075,0.2209,9.7661,51.0939,-0.9137,-0.9316,0.4076,150.2031
20:19:28:894,0.7184,0.0437,9.1699,51.6322,-0.6208,-0.9598,0.6582,150.4062
20:19:28:910,1.6246,-0.161,7.7681,53.0383,-0.294,-1.089,0.7304,150.4844
20:19:28:927,2.1226,-0.0497,5.8515,52.3089,-0.0679,-1.1678,0.5608,150.2031
20:19:28:947,2.1214,0.4459,4.7083,52.4515,-0.0245,-1.1755,0.3802,149.6406
20:19:28:968,1.7,1.2456,4.5814,52.7201,-0.1169,-1.0011,0.2702,148.9688
20:19:28:992,0.9805,1.6131,4.6425,52.7084,-0.1803,-0.8306,0.2265,148.5
20:19:29:008,0.6765,1.7795,4.2929,50.5393,-0.2304,-0.6583,0.2606,148.2344
20:19:29:027,0.7734,1.9256,3.9326,52.1764,-0.4202,-0.4256,0.3616,148.0938
20:19:29:046,1.2307,2.0488,4.4821,51.3009,-0.6967,-0.062,0.4129,147.9688
20:19:29:068,1.5683,1.8693,6.1245,52.6309,-0.935,0.2711,0.4108,147.7812
20:19:29:091,1.9825,1.418,7.5646,53.3861,-1.0437,0.6613,0.3573,147.2969
20:19:29:108,1.5983,0.5884,7.6185,52.3774,-1.192,0.5649,0.1426,146.9062
20:19:29:133,1.9155,0.2185,12.5266,52.7398,-1.3092,1.1596,-0.1399,146.5156
20:19:29:146,1.7108,0.6351,13.7452,52.7196,-0.8959,1.5681,-0.3548,146.2812
20:19:29:168,1.1278,0.0473,14.6431,51.7844,-0.2791,0.9505,-0.3932,146.3594
20:19:29:193,1.785,-0.3274,14.1199,52.3109,0.1651,0.0954,-0.708,146.6719
20:19:29:210,2.1322,-0.3298,13.7907,52.6931,0.6221,0.6751,-0.7285,147.0312
20:19:29:228,1.876,-0.5429,12.8295,53.2513,0.5401,1.159,-0.8166,147.6562
20:19:29:247,1.5252,-0.8709,13.2018,53.7795,0.1611,1.6088,-0.8486,148.4531
20:19:29:274,1.3014,-1.4132,13.4962,51.6235,-0.1774,1.6166,-0.9394,149.2344
20:19:29:294,1.39,-1.7735,12.9767,52.8429,-0.2959,1.2232,-1.1578,150.0312
20:19:29:309,1.633,-1.9603,11.2014,53.1416,-0.2676,0.5183,-1.4739,150.9219
20:19:29:328,1.6892,-2.0225,10.1312,53.2944,-0.2788,-0.2594,-1.7871,151.9844
20:19:29:348,1.6258,-1.1761,10.4604,52.4278,-0.2935,-0.1076,-2.0486,153.3594
20:19:29:375,1.4689,-0.8194,9.7278,51.7324,-0.3145,0.5699,-2.1626,155.2188
20:19:29:394,1.1565,-1.4419,9.0418,51.1387,-0.4325,0.8903,-2.027,158.6406
20:19:29:410,1.1589,-1.9866,9.0382,52.4965,-0.5475,1.0474,-1.9586,159.75
20:19:29:427,0.9877,-1.8645,8.982,51.943,-0.5116,1.1532,-1.9839,162.1094
20:19:29:447,0.619,-1.6837,8.7485,51.9317,-0.3521,0.9865,-1.9807,164.3125
20:19:29:468,0.7686,-1.7926,8.6959,51.3667,-0.0493,0.6948,-1.9706,166.4844
20:19:29:491,0.7471,-1.4371,8.7042,53.1987,0.3737,0.2008,-2.0561,168.5938
20:19:29:509,1.1469,-1.1402,9.2118,50.1893,0.8946,-0.2258,-2.1589,170.7969
20:19:29:527,0.6322,-1.0816,8.9329,51.604,1.3859,-0.3425,-2.2478,173.1094
20:19:29:547,-0.0143,-0.7979,8.4995,50.354,1.7465,-0.2908,-2.1229,175.4531
20:19:29:569,-0.3722,-0.392,8.4696,52.1601,1.9292,-0.0256,-1.7916,178.1094
20:19:29:591,-0.4189,-0.2711,8.0482,51.9204,1.8642,0.1971,-1.4105,180.8125
20:19:29:607,0.23,-0.021,7.6041,50.9717,1.4485,0.3388,-1.1748,183.1406
20:19:29:627,0.7124,0.0186,7.9165,52.043,0.783,0.1388,-1.1892,185.1406
20:19:29:647,0.0648,0.1454,9.4105,50.4027,0.1918,-0.1766,-1.3589,186.7344
20:19:29:666,-1.5825,-0.1502,10.8411,49.0291,-0.1862,-0.2722,-1.3269,188.7969
20:19:29:693,-1.95,-0.4962,11.9544,48.2738,-0.2823,-0.2336,-1.0305,190.3906
20:19:29:709,-1.1108,-0.5716,11.9304,48.2738,-0.1214,-0.1217,-0.7825,191.9219
20:19:29:728,-1.1132,-0.6494,11.9304,49.2934,0.1409,0.0267,-0.7687,193.0938
20:19:29:746,-1.4903,-0.4495,11.1583,50.3174,0.359,0.5739,-0.8047,193.9375
20:19:29:770,-0.9312,0.6866,10.452,49.7174,0.4578,1.0794,-0.7961,194.8281
20:19:29:796,-1.543,1.3617,10.1108,48.05,0.3452,1.5905,-0.9381,195.75
20:19:29:871,-3.5062,0.398,10.2868,48.6298,0.1201,1.6887,-1.0513,196.5625
20:19:29:872,-3.9144,-0.9475,10.9787,48.6548,-0.2269,1.4472,-0.9801,197.5312
20:19:29:872,-2.8023,-1.5592,11.5605,47.9263,-0.3822,0.9279,-1.1272,198.5781
20:19:29:873,-2.7628,-1.7723,10.7238,48.0446,-0.2032,0.4522,-1.4371,199.0625
20:19:29:889,-3.3602,-1.8106,9.4093,47.657,0.1249,0.1255,-1.5685,199.9844
20:19:29:910,-4.2628,-1.904,8.5426,46.5487,0.3904,0.0562,-1.3578,201.3281
20:19:29:930,-4.3825,-0.5537,8.5893,47.5542,0.5337,0.2741,-0.8355,203.0625
20:19:29:947,-3.5493,0.252,8.2852,48.0105,0.5992,0.5236,-0.3501,204.7656
20:19:29:968,-2.205,0.1443,7.7657,47.0158,0.5641,0.4323,-0.0781,206.5781
20:19:29:998,-0.6583,0.3657,7.5263,46.6102,0.5116,0.2743,-0.0936,207.0781
20:19:30:007,-0.6727,0.6387,7.075,47.0912,0.4919,0.1686,-0.3154,207.25
20:19:30:028,-0.4835,1.2432,5.6947,46.4701,0.3321,-0.119,-0.5455,207.4531
20:19:30:049,0.1078,1.4072,5.6947,45.4599,0.0562,0.2101,-0.55,207.4531
20:19:30:078,0.0779,1.4695,6.5662,45.6239,-0.1696,0.7931,-0.5809,208.5312
20:19:30:095,-0.5565,0.7392,7.403,46.3771,-0.2842,1.4248,-0.6499,208.5312
20:19:30:113,-2.4587,0.4866,8.6109,46.4121,-0.2626,1.7516,-0.631,210.4062
20:19:30:130,-3.0704,0.8865,9.5518,45.0938,-0.0253,1.7074,-0.5485,210.4062
20:19:30:146,-3.4823,1.4407,9.942,45.348,0.3436,0.9284,-0.4765,210.9219
20:19:30:166,-3.6319,1.0277,9.7194,47.0884,0.6168,0.1369,-0.4912,211.4375
20:19:30:192,-3.3769,1.3174,9.8954,46.7755,0.82,-0.5971,-0.4286,211.9219
20:19:30:209,-2.9747,0.8338,10.0594,44.7157,0.9683,-0.9356,-0.3586,213.2344
20:19:30:227,-2.685,0.9092,10.3838,46.6406,1.0141,-0.7792,-0.3229,213.6406
20:19:30:247,-2.5162,1.2157,10.4257,46.0151,1.0424,-0.6336,-0.3461,214.4531
20:19:30:267,-3.0812,1.2588,10.4963,44.1205,1.0245,-0.7457,-0.3817,215.2031
20:19:30:293,-3.5457,1.3234,11.1906,43.7961,0.9007,-1.1169,-0.3397,215.9531
20:19:30:311,-3.1447,0.8517,11.2182,43.3837,0.5124,-1.3023,-0.431,216.7656
20:19:30:327,-1.598,0.3813,12.2812,44.4374,-0.1246,-1.3425,-0.6289,217.1875
20:19:30:346,-1.0126,-0.3274,14.9651,43.5735,-0.567,-1.461,-0.9407,217.9219
20:19:30:368,-1.361,-1.1582,16.805,40.9439,-0.3651,-1.3561,-1.1815,218.7344
20:19:30:392,-1.106,-1.3473,15.5816,43.8296,0.2794,-1.1316,-1.272,219.5938
20:19:30:413,-0.6152,-1.0014,12.6451,42.0516,0.8024,-0.9704,-1.34,220.6406
20:19:30:427,-0.4751,-0.5489,10.0222,42.1779,0.8365,-0.734,-1.3873,222.0469
20:19:30:445,-0.3483,-0.2532,8.8766,39.861,0.5606,-0.4892,-1.43,223.6875
20:19:30:468,-0.4452,-0.2101,8.6121,42.4399,0.3068,-0.3092,-1.5021,225.3906
20:19:30:491,-0.8199,-0.2256,8.5354,41.4108,0.2152,-0.16,-1.5525,227.2188
20:19:30:509,-0.9935,-0.1909,8.15,41.3204,0.2924,-0.0847,-1.5676,229.9375
20:19:30:527,-1.0869,-0.1658,7.3264,40.8037,0.4485,-0.0655,-1.5791,231.6719
20:19:30:546,-1.0892,-0.2005,6.7637,40.6615,0.5862,-0.0759,-1.5692,233.5156
20:19:30:569,-0.8055,-0.3992,6.4178,41.9432,0.7151,-0.1814,-1.618,235.4062
20:19:30:594,-0.3255,-0.4914,5.8132,39.7994,0.8256,-0.4642,-1.8137,237.3125
20:19:30:610,-0.3051,-0.2783,5.0555,39.1554,0.8094,-0.7827,-2.0936,239.1719
20:19:30:633,-0.796,0.422,5.1608,38.2438,0.6259,-0.7947,-2.2683,240.2031
20:19:30:646,-1.7094,0.5309,5.8049,38.6172,0.4117,-0.4352,-2.4023,242.5
20:19:30:667,-3.0968,0.4076,6.6416,36.6552,0.3201,-0.0698,-2.0156,245.1406
20:19:30:692,-3.1195,0.574,7.8148,39.2493,0.2978,0.1686,-1.3911,247.7969
20:19:30:709,-2.2241,0.9834,8.5474,37.7257,0.3079,0.2512,-1.0574,251.9688
20:19:30:727,-1.8039,1.4216,9.4824,37.9074,0.2288,0.3409,-0.9628,253.8594
20:19:30:750,-2.4456,1.2169,10.1731,36.3351,0.0732,0.3326,-0.8997,255.25
20:19:30:766,-3.183,1.3928,11.5318,38.4385,-0.1196,0.3518,-0.8241,256.4219
20:19:30:786,-4.3789,1.3055,12.8761,38.4293,-0.2096,0.4293,-0.7146,257.5
20:19:30:808,-5.3701,0.9667,13.361,37.4811,-0.1662,0.3958,-0.4899,258.4062
20:19:30:827,-5.5485,0.6063,12.8043,37.4289,-0.1025,0.183,-0.2094,259.2344
20:19:30:846,-4.4758,0.1179,10.9847,35.7124,-0.1941,-0.1984,0.0308,259.8594
20:19:30:866,-3.523,-0.1826,10.47,36.1489,-0.5023,-0.3933,0.0982,260.2031
20:19:30:893,-3.8761,-0.7823,11.3941,35.8574,-0.7872,-0.2381,0.1504,260.2656
20:19:30:909,-4.5836,-1.2767,13.2018,35.5685,-0.7838,0.1015,0.3245,260.1094
20:19:30:926,-4.6494,-1.8657,13.44,36.5187,-0.4069,0.1912,0.5544,259.8438
20:19:30:946,-3.7217,-1.6897,11.0961,34.3829,0.0823,-0.1031,0.614,259.4219
20:19:30:966,-3.5122,-1.0014,8.217,33.8599,0.2301,-0.3257,0.4684,258.7656
20:19:30:994,-4.1526,-0.3394,7.1648,35.1162,-0.0405,-0.2221,0.4324,258.0156
20:19:31:010,-4.3154,0.1215,7.6508,35.3401,-0.3616,-0.0248,0.6215,257.2656
20:19:31:027,-3.4691,0.1718,8.0243,34.4926,-0.4727,-0.0112,0.8441,256.7656
20:19:31:046,-2.2145,0.246,7.646,35.2849,-0.4309,-0.2234,0.9403,255.9844
20:19:31:068,-1.2688,0.4435,7.0654,33.5012,-0.3537,-0.5177,0.8676,254.9531
20:19:31:092,-1.0713,0.8218,6.6548,32.8045,-0.2506,-0.6381,0.7714,253.7969
20:19:31:109,-0.9671,1.2013,6.8104,34.0849,-0.0636,-0.543,0.7797,252.75
20:19:31:127,-0.9743,1.2097,6.5806,33.3378,0.2346,-0.2237,0.8452,251.8906
20:19:31:146,-0.2297,1.4383,5.8109,33.6374,0.4852,-0.1273,0.883,251.0156
20:19:31:166,-0.4177,1.5209,5.599,34.5527,0.5289,-0.0626,0.8542,250.5625
20:19:31:197,-0.5158,1.5221,6.5758,33.1814,0.4442,0.0485,0.8865,249.6406
20:19:31:209,-0.043,1.8729,7.2964,33.9786,0.3963,-0.0202,0.871,248.7969
20:19:31:226,0.0899,2.2392,7.3814,32.7211,0.2711,-0.2232,0.7584,247.8906
20:19:31:246,-0.0909,2.3876,8.2505,33.555,-0.0074,-0.3326,0.6638,246.9531
20:19:31:267,-0.0621,2.4606,9.6655,32.5795,-0.232,-0.4434,0.6087,246.125
20:19:31:293,-0.7217,1.7077,11.5497,31.648,-0.3161,-0.5688,0.5623,245.0156
20:19:31:310,-0.4907,1.8573,13.5369,33.2187,-0.1672,-0.4056,0.6423,244.3125
20:19:31:333,-0.4907,1.5987,13.9823,34.7833,0.1819,-0.3204,0.4913,243.7031
20:19:31:345,-0.4141,1.3964,13.6447,33.1926,0.5215,-0.4352,0.3046,242.9844
20:19:31:366,-0.0993,1.3976,12.9659,32.7601,0.6072,-0.5166,0.1956,242.4844
20:19:31:396,0.5651,1.7412,12.8462,31.947,0.4032,-0.3142,0.075,242.2656
20:19:31:411,0.7722,1.7041,13.592,31.356,0.0842,0.0498,-0.0773,242.1719
20:19:31:427,0.1629,-0.1215,14.8956,34.9343,-0.0035,0.4064,-0.3069,242.1875
20:19:31:446,0.0121,-0.2209,13.4723,32.7221,0.3878,0.1502,-0.4891,242.1875
20:19:31:467,0.0791,0.0413,11.3295,35.4023,0.6077,-0.0378,-0.6398,242.2812
20:19:31:494,0.0995,0.6255,9.6679,34.9652,0.535,0.0908,-0.7682,242.4219
20:19:31:510,-0.3279,0.9044,8.7174,35.8652,0.2682,0.339,-0.8188,243.3281
20:19:31:526,-0.6691,0.6171,8.636,33.5961,0.029,0.4389,-0.831,244.1094
20:19:31:547,-0.7014,0.4615,8.4492,36.378,0.0069,0.3108,-0.8728,246
20:19:31:566,-0.4656,0.4962,7.8256,35.2104,0.1454,0.085,-0.9386,246
20:19:31:587,-0.1627,0.562,7.5095,35.1901,0.3361,0.0437,-1.01,246.8594
20:19:31:611,-0.0526,0.7823,7.3611,34.3336,0.6168,0.2045,-1.0917,247.8125
20:19:31:627,-0.3315,1.1079,6.7135,35.6618,0.9694,0.3771,-1.1581,248.9062
20:19:31:645,-0.8031,1.5353,5.8037,37.5423,1.2213,0.5073,-1.117,250.125
20:19:31:665,-1.7668,1.9543,5.0734,37.0882,1.2434,0.5747,-0.9298,251.3906
20:19:31:692,-2.0194,2.2775,4.8927,37.3657,1.0296,0.5401,-0.6166,252.8594
20:19:31:711,-1.6208,2.2871,4.9932,38.4929,0.6637,0.2962,-0.3423,254.3125
20:19:31:725,-1.2844,2.25,5.9725,37.4947,0.2637,-0.0168,-0.2369,255.4844
20:19:31:749,-1.4771,2.3338,7.2414,38.6625,-0.0322,-0.2024,-0.219,256.3281
20:19:31:765,-2.0984,2.2835,8.5678,39.3769,-0.2061,-0.1624,-0.1594,256.8281
20:19:31:785,-2.43,1.9495,9.8654,39.8038,-0.2634,-0.0202,-0.0417,257.1562
20:19:31:813,-2.5653,1.4479,11.2421,41.6673,-0.2493,0.1265,0.0028,257.4219
20:19:31:829,-2.849,1.0517,12.2153,41.302,-0.1459,0.3577,-0.0475,257.5781
20:19:31:845,-3.6187,0.9224,12.2572,41.302,0.0501,0.4674,-0.1543,257.5312
20:19:31:868,-4.5417,0.7332,11.0972,40.2004,0.1483,0.4291,-0.2044,257.4688
20:19:31:896,-4.8074,0.671,10.2473,39.7247,-0.0748,0.3108,-0.1626,257.5
20:19:31:962,-4.5489,0.3621,10.768,41.7134,-0.5276,0.3167,-0.108,257.6875
20:19:31:963,-4.7272,-0.3059,12.669,42.6197,-0.8844,0.2948,-0.0957,257.8594
20:19:31:963,-5.0241,-0.756,14.0541,42.626,-0.8149,0.1039,-0.0811,257.8906
20:19:31:977,-4.9547,-0.6985,13.0629,40.7424,-0.3851,-0.2812,-0.0102,257.7656
20:19:31:993,-4.3693,-0.0736,10.5693,43.3269,-0.0253,-0.5651,0.1176,257.625
20:19:32:011,-3.6894,0.5513,8.3571,44.0854,-0.0602,-0.4578,0.3032,257.5469
20:19:32:029,-3.1076,0.7703,7.7346,43.1415,-0.3915,-0.1824,0.5048,257.5
20:19:32:045,-2.4946,0.5668,8.0387,44.7927,-0.67,-0.1052,0.6383,257.3438
20:19:32:066,-1.7955,0.7093,8.5869,44.4463,-0.7633,-0.262,0.6476,256.875
20:19:32:091,-0.8235,0.7416,8.3212,43.8944,-0.6304,-0.4194,0.5397,256.0938
20:19:32:109,-0.0789,0.9571,7.4892,44.6622,-0.4464,-0.4682,0.3501,255.6562
20:19:32:127,-0.766,1.3725,6.6644,44.7256,-0.3039,-0.3489,0.1882,254.8125
20:19:32:150,-1.3167,1.6346,6.9098,44.3247,-0.1579,-0.1238,0.1919,253.8438
20:19:32:165,-1.1611,1.746,6.4908,44.9855,0.0511,-0.2128,0.2175,253.5156
20:19:32:185,-1.3969,2.1159,5.9389,46.5632,0.1816,-0.5126,0.2793,253.3125
20:19:32:209,-1.0677,2.6606,5.8767,45.6365,0.1979,-0.5686,0.3235,253.0625
20:19:32:229,-1.4436,2.6977,5.8204,45.6284,0.2237,-0.6048,0.353,252.8594
20:19:32:246,-1.8327,2.8234,6.1939,46.7005,0.1321,-0.2903,0.5384,252.5938
20:19:32:266,-1.173,2.9215,7.1779,46.6886,-0.0029,0.0924,0.7267,252.3438
20:19:32:295,-1.0019,2.6534,8.5127,45.9445,-0.0775,0.2227,0.8476,251.9375
20:19:32:313,-0.7301,2.5157,9.6499,47.0096,-0.0636,0.1633,0.8449,251.2188
20:19:32:331,-0.7337,2.5708,10.4604,47.8301,-0.0109,-0.0176,0.7285,250.3281
20:19:32:345,-0.942,2.6474,11.1344,46.9504,0,-0.1606,0.613,249.2969
20:19:32:365,-1.0976,2.6019,11.8323,48.8093,-0.0245,-0.2549,0.5304,248.3594
20:19:32:385,-1.0988,2.4176,12.3482,48.0198,-0.0405,-0.4053,0.4502,247.6562
20:19:32:408,-0.8307,2.414,12.4919,49.6714,-0.077,-0.5382,0.3602,247.0156
20:19:32:428,-0.5913,2.3912,12.6188,48.5738,-0.18,-0.5829,0.2569,246.2812
20:19:32:446,-0.6344,2.135,12.997,49.414,-0.3539,-0.5537,0.1893,245.9375
20:19:32:465,-0.5673,1.4754,14.0912,47.8,-0.5699,-0.4184,0.1621,245.6875
20:19:32:489,-0.4943,0.5213,15.9874,49.317,-0.5641,-0.3198,0.1581,245.4844
20:19:32:510,0.0193,-0.0138,16.0688,49.0088,-0.1241,-0.4506,0.0537,245.2812
20:19:32:526,0.2934,-0.0437,13.7309,48.8611,0.4099,-0.636,-0.1711,245.0781
20:19:32:545,0.1809,0.2328,10.853,50.3816,0.6144,-0.6003,-0.3413,245.0469
20:19:32:566,0.0839,0.3885,9.0586,51.1419,0.4951,-0.4011,-0.3935,245.3594
20:19:32:592,0.0528,0.3741,8.3271,50.1134,0.2951,-0.2383,-0.4097,245.5781
20:19:32:609,0.0779,0.3514,7.7956,49.6133,0.1697,-0.1931,-0.4558,246.1406
20:19:32:626,0.2742,0.4447,7.2869,49.7324,0.1092,-0.2341,-0.5181,246.6719
20:19:32:645,0.3389,0.6087,6.8033,49.8745,0.0927,-0.2327,-0.6036,247.2188
20:19:32:665,0.2455,0.7739,6.4381,51.4437,0.1132,-0.2066,-0.6491,247.7812
20:19:32:687,0.1905,0.9918,6.2825,48.2082,0.1787,-0.1694,-0.6488,248.4688
20:19:32:713,0.2072,1.1223,6.2047,51.4943,0.3017,-0.1345,-0.6044,249.2188
20:19:32:729,0.2168,1.1355,5.8767,51.1745,0.4227,-0.1294,-0.5381,250.3594
20:19:32:747,0.2395,1.4383,5.7007,51.6578,0.4637,-0.0913,-0.516,251.1094
20:19:32:765,0.1881,1.6287,5.8049,50.0014,0.4219,-0.1252,-0.4891,251.7812
20:19:32:793,0.3413,1.9722,6.1939,48.2964,0.3033,-0.1651,-0.4299,252.3906
20:19:32:810,0.3604,2.2655,7.0762,51.0636,0.1321,-0.0541,-0.3783,253.0156
20:19:32:826,-0.4692,2.4271,10.3419,48.7345,0.0354,0.1984,-0.2182,253.5625
20:19:32:846,-0.8127,2.5289,10.8614,51.2759,0.1159,0.2051,-0.1242,253.5625
20:19:32:866,-0.8008,2.5313,10.8147,49.2448,0.0708,0.1412,-0.0273,254
20:19:32:893,-0.6631,2.3469,11.2577,51.2563,-0.0959,0.044,0.0201,254.3281
20:19:32:909,-0.766,2.0141,12.0477,49.5129,-0.2093,-0.0474,-0.0323,254.6719
20:19:32:926,-1.2772,1.6203,12.6906,50.2486,-0.2043,-0.0698,-0.1037,254.6875
20:19:32:945,-2.1008,1.2516,12.9444,50.1,-0.1129,0.0298,-0.0907,254.6875
20:19:32:965,-2.43,0.7644,12.3207,49.7577,-0.0237,0.1374,0.0353,254.6719
20:19:32:986,-2.5653,0.6087,11.3714,50.0048,-0.1467,0.3223,0.1797,254.8281
20:19:33:010,-3.1974,-0.2819,11.7113,50.9646,-0.4772,0.457,0.3797,254.8438
20:19:33:029,-2.7748,-0.8697,12.9276,48.4582,-0.628,0.1795,0.5384,254.7969
20:19:33:045,-2.1882,-0.7488,12.5505,48.5593,-0.4115,-0.212,0.4564,254.3125
20:19:33:065,-2.0888,0.0162,10.5023,49.8457,-0.175,-0.3651,0.3184,254
20:19:33:085,-2.017,0.6159,8.7641,49.9568,-0.2077,-0.1904,0.3174,253.2812
20:19:33:110,-1.6818,1.0493,8.2481,49.4487,-0.3774,0.0988,0.3757,252.7344
20:19:33:128,-1.6627,1.2492,8.0829,49.4955,-0.4908,0.1697,0.3938,252.4062
20:19:33:145,-1.6842,1.3605,8.1356,49.6354,-0.4913,0.0458,0.4268,252.0469
20:19:33:165,-1.3873,1.4623,7.7801,49.6183,-0.3486,-0.1275,0.4878,251.5625
20:19:33:185,-0.7385,1.5592,7.0846,50.2096,-0.1459,-0.2343,0.5496,251.0625
20:19:33:209,-0.0382,1.7759,6.3124,49.6409,0.0264,-0.1816,0.5735,250.5312
20:19:33:226,0.315,1.9591,5.8599,49.6782,0.1252,-0.0612,0.5578,249.9375
20:19:33:245,0.3521,2.1135,5.6337,48.2186,0.1476,0.0394,0.5421,248.7188
20:19:33:265,0.3401,2.238,6.1987,48.2796,0.1209,0.0903,0.5474,248.0938
20:19:33:286,0.4131,2.3445,6.8475,48.8352,0.1497,0.1324,0.5341,247.7969
20:19:33:310,0.4897,2.6546,7.5778,50.1901,0.2016,0.0988,0.4995,247.2031
20:19:33:327,0.5987,3.1119,8.2481,47.9726,0.2413,0.086,0.4713,246.2812
20:19:33:345,0.5388,3.3082,9.1627,49.5142,0.2248,0.1004,0.4689,245.9844
20:19:33:365,0.6095,3.2974,10.2988,49.0248,0.1779,0.065,0.4782,245.4531
20:19:33:386,0.6525,3.0544,11.3618,49.6006,0.1305,0.029,0.4154,244.9531
20:19:33:410,-0.1926,2.5959,12.4452,47.6898,0.0847,0.086,0.2806,244.4219
20:19:33:426,-1.4029,1.8884,13.3454,50.2148,0.089,0.1145,0.2156,243.9062
20:19:33:444,-1.6196,1.2707,12.8953,47.9914,0.1752,-0.208,0.2404,243.5312
20:19:33:466,-1.3418,1.7532,13.683,47.6562,0.2045,-0.4908,0.3421,243.25
20:19:33:488,-0.3339,1.6742,12.4823,48.6218,0.0338,-0.2799,0.2002,243
20:19:33:512,0.4131,0.9882,12.9767,48.9104,-0.2202,-0.1241,0.0774,242.7656
20:19:33:525,1.2152,0.8146,13.7117,47.5682,-0.3041,-0.0002,-0.0787,242.4844
20:19:33:545,1.3385,0.6207,13.5645,47.6482,-0.1475,-0.0165,-0.222,242.3594
20:19:33:568,1.3971,0.8697,12.8881,47.2217,0.2019,0.0216,-0.3775,242.3281
20:19:33:594,1.36,1.3162,11.1822,47.9456,0.4805,0.2719,-0.4529,242.4844
20:19:33:610,0.8165,1.5389,9.2405,46.8072,0.3678,0.534,-0.4049,242.8281
20:19:33:627,0.0612,1.3426,9.0658,47.8004,-0.0221,0.6783,-0.3229,243.3438
20:19:33:645,-0.4787,0.8948,9.5638,48.3404,-0.265,0.4362,-0.2728,243.8125
20:19:33:665,-0.3578,0.6877,9.0191,47.6195,-0.2431,-0.0961,-0.2494,244.1562
20:19:33:684,0.2084,0.7332,7.9896,46.2181,-0.0668,-0.669,-0.2805,244.375
20:19:33:710,0.7112,0.8613,6.9337,45.9825,0.1428,-0.9358,-0.3442,244.625
20:19:33:725,1.1709,1.1402,6.3256,46.1313,0.3348,-0.7963,-0.4108,244.9375
20:19:33:750,1.3887,1.3402,6.0766,46.85,0.538,-0.4245,-0.492,245.4062
20:19:33:764,0.8692,1.4216,5.8276,46.3552,0.7201,-0.0402,-0.5626,245.9844
20:19:33:785,0.5879,1.5904,5.4721,46.3071,0.8064,0.2354,-0.566,246.5781
20:19:33:811,0.2036,1.9136,5.2207,44.7208,0.7569,0.3683,-0.5311,247.2812
20:19:33:831,-0.1902,2.1674,5.1381,44.7069,0.5348,0.4077,-0.4662,247.9844
20:19:33:847,-0.6212,2.2655,5.429,45.1158,0.1627,0.1926,-0.3788,248.9062
20:19:33:866,-0.7289,2.3888,6.4178,45.1489,-0.2581,-0.1196,-0.2491,249.4219
20:19:33:893,-0.693,2.3589,8.2517,44.1226,-0.5787,-0.2083,-0.1375,249.8438
20:19:33:910,-0.8893,2.1279,10.0091,44.6714,-0.6863,-0.0746,-0.0251,250.1094
20:19:33:927,-1.2557,1.7436,11.5378,44.9695,-0.6216,0.2453,0.1376,250.25
20:19:33:944,-1.2173,1.2336,12.7193,45.9037,-0.4527,0.5366,0.3032,250.2031
20:19:34:027,-0.6344,1.0397,13.2221,45.8777,-0.2389,0.5505,0.3032,249.9688
20:19:34:027,-0.304,1.1929,12.7253,45.8777,-0.1201,0.3548,0.1008,249.5
20:19:34:027,-0.5446,1.3845,12.0202,44.1128,-0.2386,0.1998,-0.1327,249.0469
20:19:34:027,-1.2054,1.4898,12.4416,44.1128,-0.5566,0.2211,-0.248,248.875
20:19:34:047,-2.5473,0.683,13.7428,44.5991,-0.8557,0.3433,-0.186,248.9688
20:19:34:066,-2.8239,-0.5213,15.724,43.7769,-0.8799,0.343,0.0082,249.0625
20:19:34:085,-2.0182,-0.9463,16.064,43.1503,-0.4317,0.0655,0.0361,249.2188
20:19:34:110,-1.6806,-0.4771,13.9763,44.7821,0.2538,-0.3124,-0.1538,249.1562
20:19:34:129,-2.339,0.4411,10.9584,43.985,0.6978,-0.3481,-0.248,248.9844
20:19:34:148,-2.8622,1.1809,8.4876,44.559,0.7159,-0.1193,-0.0289,249.0312
20:19:34:167,-2.0828,1.5066,6.9912,44.4698,0.4184,0.0517,0.3631,249.5938
20:19:34:193,-0.8331,1.5114,6.3795,43.4516,0,-0.0213,0.6156,249.7344
20:19:34:209,-0.0166,1.2432,6.1628,44.6052,-0.3728,-0.3688,0.6351,249.3438
20:19:34:225,0.874,1.2755,6.5195,42.2659,-0.5894,-0.9121,0.4177,248.6562
20:19:34:245,0.8393,1.2528,6.905,44.2663,-0.376,-0.841,0.3107,248.6562
20:19:34:269,0.6825,1.3461,6.8775,42.2162,0.0005,-0.6351,0.2396,247.9688
20:19:34:284,0.467,1.5497,6.4202,43.2807,0.3734,-0.3843,0.2321,246.9375
20:19:34:304,0.4071,1.8142,5.6816,43.1533,0.5931,-0.1891,0.2745,246.6562
20:19:34:328,0.4682,2.2152,5.3667,41.9465,0.5782,-0.0833,0.3165,246.4531
20:19:34:344,0.382,2.5696,5.8863,41.8099,0.4003,-0.0357,0.3416,246.25
20:19:34:364,0.218,2.7252,7.233,42.6266,0.1707,-0.0072,0.3687,246.0156
20:19:34:384,0.0552,2.6737,9.128,42.6341,-0.0064,0.0083,0.3898,245.7031
20:19:34:408,-0.1292,2.5337,10.9356,43.3732,-0.0437,0.0048,0.3935,244.9375
20:19:34:426,0.0336,2.3421,12.1411,42.6333,0.024,-0.0072,0.3791,244.7344
20:19:34:444,0.4945,2.1889,12.7911,40.3283,0.1068,-0.0506,0.2843,244.2812
20:19:34:464,0.9243,2.1015,13.1467,42.363,0.2051,-0.1877,0.0907,243.625
20:19:34:484,1.3576,2.1709,12.9348,40.2646,0.3039,-0.2865,-0.1199,243.4531
20:19:34:510,1.6557,2.4798,12.5002,41.8249,0.3156,-0.2341,-0.3035,243.2656
20:19:34:529,1.7754,2.6474,12.523,40.7062,0.2418,-0.0636,-0.4547,243.3281
20:19:34:553,1.4989,2.5253,12.9719,40.3227,0.1944,0.1707,-0.5647,243.4531
20:19:34:563,1.0248,1.9172,13.3442,41.1178,0.2541,0.4328,-0.6337,243.8594
20:19:34:584,0.613,1.4144,13.2018,38.5343,0.4943,0.5585,-0.6683,244.375
20:19:34:611,0.7746,1.3653,11.6934,40.5911,0.7998,0.481,-0.6643,245
20:19:34:625,0.8896,1.728,9.4141,38.9796,0.8099,0.4642,-0.6257,245.6719
20:19:34:647,0.4514,1.886,7.9273,39.4478,0.3324,0.5987,-0.5056,246.3594
20:19:34:665,0.1294,1.4252,8.4804,38.9247,-0.3609,0.6751,-0.3072,247.0938
20:19:34:684,-0.1304,0.665,10.2808,38.8624,-0.7878,0.5944,-0.1844,247.8125
20:19:34:712,-0.0573,0.2233,11.108,38.8638,-0.7406,0.3894,-0.1604,248.4219
20:19:34:729,0.2096,0.2304,10.476,38.2424,-0.3896,0.1044,-0.2387,248.5
20:19:34:746,0.3976,0.4998,8.9185,39.274,-0.0336,-0.151,-0.3564,248.5156
20:19:34:768,0.4706,0.8003,7.2462,38.0748,0.1729,-0.3217,-0.456,248.6094
20:19:34:783,0.4861,1.0553,6.2262,39.2861,0.2352,-0.3457,-0.5162,248.9219
20:19:34:805,0.4047,1.1714,5.9868,37.7971,0.2621,-0.245,-0.5479,249.4531
20:19:34:826,0.2695,1.2671,5.9473,36.5846,0.3257,-0.1305,-0.578,250.0938
20:19:34:844,0.0612,1.5245,5.7941,38.2379,0.4037,-0.0442,-0.5913,250.7344
20:19:34:864,-0.2285,1.8585,5.6744,38.5694,0.4136,0.0352,-0.5564,251.4375
20:19:34:885,-0.5434,2.3026,5.7845,36.7223,0.3004,0.1412,-0.4563,252.1719
20:19:34:910,-0.5518,2.4523,6.4214,37.6739,0.0589,0.2229,-0.301,252.8594
20:19:34:927,-0.3483,2.4738,7.6556,37.6993,-0.1949,0.2059,-0.1881,253.4688
20:19:34:945,-0.2716,2.5014,8.9125,36.6773,-0.359,0.1321,-0.1469,253.9062
20:19:34:969,-0.3925,2.4978,9.9289,38.7977,-0.4541,0.1071,-0.1122,254.1094
20:19:34:983,-0.4308,2.3589,10.9272,38.0991,-0.5092,0.1468,-0.0691,254.2344
20:19:35:005,-0.4608,2.1446,11.8622,37.585,-0.5199,0.2344,-0.0473,254.2812
20:19:35:029,-0.4871,1.8429,12.6164,36.764,-0.4597,0.2333,-0.0888,254.3281
20:19:35:045,-0.675,1.7436,12.748,37.1406,-0.3627,0.1864,-0.2089,254.2969
20:19:35:066,-1.4484,1.4838,12.5864,36.428,-0.3638,0.2043,-0.2859,254.2656
20:19:35:084,-2.0074,1.1474,12.6511,38.0611,-0.4815,0.265,-0.2515,254.3438
20:19:35:116,-2.5569,0.5932,13.3813,36.1736,-0.6157,0.3446,-0.1769,254.5625
20:19:35:126,-2.8155,-0.2161,14.4084,37.1017,-0.6003,0.3092,-0.0486,254.7969
20:19:35:151,-2.4539,-0.58,14.4228,36.6456,-0.2666,0.0056,-0.0318,254.9219
20:19:35:165,-2.3043,-0.2029,12.4967,39.2874,0.2586,-0.3294,-0.1178,254.9219
20:19:35:185,-2.4168,0.6063,9.7278,38.9431,0.5446,-0.3017,-0.0981,254.8438
20:19:35:211,-2.6874,1.163,7.9584,39.3001,0.4032,0.0607,0.0667,254.9531
20:19:35:227,-2.8693,1.1977,7.5203,38.2455,0.0373,0.334,0.3152,255.2031
20:19:35:245,-2.0397,0.8972,7.8435,37.4348,-0.281,0.2607,0.5424,255.3281
20:19:35:264,-1.1072,0.8553,7.974,39.1521,-0.4005,-0.0573,0.5597,255.125
20:19:35:285,-0.5386,0.9355,7.6328,37.6619,-0.3505,-0.3704,0.4718,254.5469
20:19:35:311,-0.1998,1.1989,7.1995,38.6912,-0.2056,-0.5153,0.3703,253.5312
20:19:35:328,-0.0885,1.5006,6.9289,38.0253,0.0189,-0.4293,0.2952,252.9688
20:19:35:345,-0.2908,1.7568,6.5746,38.8642,0.2986,-0.2109,0.267,252.5781
20:19:35:364,-0.4716,2.0872,5.9892,38.0917,0.5609,-0.0186,0.2952,252.3125
20:19:35:384,-0.6786,2.4595,5.2135,39.183,0.6826,0.1076,0.3762,252.0625
20:19:35:411,-0.6212,2.7539,4.6808,38.6845,0.5609,0.1393,0.5126,251.7969
20:19:35:429,-0.274,2.8808,5.1656,39.2648,0.2527,0.114,0.6263,251.4531
20:19:35:446,-0.2704,2.7922,6.8703,40.1521,-0.0791,0.0797,0.6462,250.9219
20:19:35:464,-0.5661,2.5708,9.0047,38.4765,-0.2466,-0.0058,0.6351,250.2188
20:19:35:485,-0.5625,2.3134,10.4101,39.0942,-0.2024,-0.1888,0.6401,249.4688
20:19:35:511,0.0372,2.2547,10.8339,38.6903,-0.0988,-0.4485,0.602,248.75
20:19:35:529,0.7399,2.2248,11.2445,39.0376,-0.1134,-0.6969,0.4436,248.0156
20:19:35:544,0.9386,2.4738,12.256,38.381,-0.2003,-0.7332,0.2505,247.6719
20:19:35:564,0.7399,2.2655,13.2424,39.1189,-0.2037,-0.6397,0.1331,247.1562
20:19:35:585,1.0871,2.165,13.4891,38.5004,-0.13,-0.5651,0.0574,246.8594
20:19:35:613,1.4151,2.3302,13.2796,38.1803,-0.1334,-0.4916,-0.0499,246.6875
20:19:35:631,1.8879,2.0548,13.8554,37.0331,-0.4663,-0.3073,-0.21,246.6875
20:19:35:646,1.8484,1.1642,15.0979,39.1419,-0.4155,-0.119,-0.309,246.7969
20:19:35:664,1.943,0.6099,14.9352,39.1956,-0.0176,0.0107,-0.4363,247
20:19:35:684,1.9777,0.6818,12.7816,40.0476,0.4312,0.1028,-0.603,247
20:19:35:710,1.6832,1.0888,10.4245,41.9697,0.5462,0.3271,-0.7064,247.5625
20:19:35:727,1.1398,1.1019,9.2645,41.4552,0.3697,0.5571,-0.7253,248.7812
20:19:35:744,0.7004,0.8218,8.794,41.1303,0.1449,0.6237,-0.7114,248.7812
20:19:35:763,0.6465,0.5764,8.4552,41.9143,0.0266,0.526,-0.7354,249.5469
20:19:35:783,0.6609,0.4495,8.0734,41.7006,0.0378,0.3377,-0.8355,250.3281
20:19:35:812,0.7806,0.5764,7.9285,41.2276,0.1681,0.1486,-1.01,251.0781
20:19:35:827,0.3185,1.1127,7.9345,41.1412,0.4061,0.1169,-1.2686,251.8125
20:19:35:844,-1.1012,1.4826,7.3467,43.799,0.6634,0.0767,-1.4414,252.7344
20:19:35:863,-1.7094,1.6861,6.5147,42.718,0.8376,-0.115,-1.3554,255.375
20:19:35:885,-1.6112,2.0656,5.7833,41.6089,0.8853,-0.298,-1.1543,256.1406
20:19:35:910,-1.4196,2.311,5.1896,42.2054,0.8104,-0.4144,-0.8909,257.8594
20:19:35:928,-0.954,2.5049,5.2398,43.8394,0.6581,-0.4011,-0.6017,259.4531
20:19:35:944,-0.286,2.566,5.4996,42.8422,0.4895,-0.2399,-0.3634,260.7969
20:19:35:964,-0.0202,2.5433,6.1736,42.4362,0.2847,0.0261,-0.1988,261.75
20:19:35:987,-0.1208,2.3026,7.2749,42.277,0.0796,0.2637,-0.0457,262.4062
20:19:36:010,-0.1507,2.0153,8.648,43.5431,-0.0471,0.314,0.059,262.6406
20:19:36:028,-0.3111,1.9124,9.5925,44.3441,-0.0826,0.2551,0.0918,262.875
20:19:36:085,-0.5925,1.8334,9.8319,43.6296,-0.1832,0.2096,0.136,262.9062
20:19:36:086,-0.7229,1.3821,10.5574,46.2984,-0.412,0.1606,0.2023,262.7812
20:19:36:086,-0.5374,0.9355,11.8909,43.3157,-0.584,0.0149,0.169,262.6094
20:19:36:108,-0.9695,0.6985,12.7241,45.2381,-0.5947,-0.1443,0.0404,262.4219
20:19:36:127,-1.8674,0.6399,12.7397,45.2381,-0.5561,-0.2053,0.0068,262.1094
20:19:36:145,-2.0362,0.5333,12.4428,44.5379,-0.5782,-0.2189,0.1322,261.75
20:19:36:163,-1.4448,0.4747,12.3961,43.0022,-0.7417,-0.1755,0.3091,261.7031
20:19:36:184,-0.863,-0.2831,13.3167,42.9821,-0.9675,-0.2194,0.4039,261.6094
20:19:36:210,-0.4141,-0.6817,14.4695,44.0739,-0.8661,-0.4807,0.2753,261.2969
20:19:36:227,-0.851,-0.0245,13.659,44.2698,-0.3667,-0.6597,0.0156,260.8125
20:19:36:244,-1.8135,0.8458,11.2696,45.7869,0.0762,-0.5334,-0.0222,260.3125
20:19:36:263,-1.9296,1.4371,9.1448,45.0218,0.135,-0.2157,0.2191,260.1406
20:19:36:285,-0.9516,1.6466,8.0111,44.6098,-0.1004,-0.0383,0.471,260.25
20:19:36:309,-0.2309,1.6143,7.6472,45.9803,-0.3979,-0.1393,0.5355,260.2188
20:19:36:326,0.1234,1.5269,7.5814,46.2837,-0.5643,-0.3891,0.4953,259.8125
20:19:36:344,0.3497,1.5975,7.7274,46.9674,-0.5278,-0.5233,0.4172,259.1875
20:19:36:363,0.23,1.7843,7.7609,48.1836,-0.2844,-0.4453,0.3427,258.6094
20:19:36:384,-0.0418,2.0093,7.4964,44.9029,0.0972,-0.2253,0.3384,258.0781
20:19:36:410,-0.1627,2.2344,6.7793,45.5282,0.4791,0.0088,0.3954,257.6562
20:19:36:428,0.0684,2.4463,5.9772,48.0922,0.7172,0.1918,0.4742,257.3281
20:19:36:444,0.4227,2.6797,5.4373,45.5307,0.7609,0.2714,0.5126,256.7188
20:19:36:463,0.4933,3.0077,5.5355,46.3736,0.6352,0.2956,0.4944,256.2031
20:19:36:484,0.2455,3.295,6.4693,47.5419,0.4035,0.3723,0.4904,255.6875
20:19:36:513,-0.0023,3.2998,8.2601,45.1426,0.1976,0.4586,0.5181,255.125
20:19:36:531,-0.2597,3.1466,10.0953,48.3917,0.1393,0.4887,0.5349,254.8438
20:19:36:548,-0.1088,2.9395,11.594,46.4942,0.249,0.3558,0.5264,254.2344
20:19:36:564,0.4586,3.0329,12.1974,45.7667,0.4607,0.1542,0.4396,253.6094
20:19:36:583,0.6825,3.2711,12.0836,48.3925,0.588,0.036,0.283,252.9531
20:19:36:604,0.5125,3.2926,12.2453,48.2538,0.5436,0.0264,0.1842,252.375
20:19:36:628,0.4347,3.0843,12.4572,46.3386,0.4749,-0.065,0.1402,252.0312
20:19:36:647,0.7615,3.216,11.8119,47.5157,0.3832,-0.2666,0.1147,251.8125
20:19:36:663,1.4127,3.3968,11.1344,46.8736,0.1007,-0.4738,0.0803,251.6719
20:19:36:683,1.7072,3.1047,11.6754,46.3384,-0.2775,-0.551,-0.0116,251.5938
20:19:36:709,1.5228,2.487,13.0437,46.7059,-0.4155,-0.5068,-0.1253,251.5781
20:19:36:726,1.4618,1.9914,13.2532,46.8893,-0.2011,-0.4272,-0.1932,251.6562
20:19:36:743,1.6066,1.8824,11.8239,49.0932,0.1063,-0.3015,-0.2025,251.8438
20:19:36:765,1.4905,1.8334,9.6499,48.8338,0.119,-0.0426,-0.129,252.125
20:19:36:783,1.214,1.6167,8.5199,47.9119,-0.294,0.2954,0.0071,252.4062
20:19:36:804,0.7591,1.0409,9.2058,48.0558,-0.8064,0.4653,0.1152,252.5781
20:19:36:828,0.2491,0.5034,9.8738,48.9454,-0.9753,0.3731,0.1086,252.5
20:19:36:846,0.0875,0.3071,9.7026,47.714,-0.8248,0.1417,0.0558,252.2344
20:19:36:869,0.3233,0.4112,9.2645,48.0943,-0.5105,-0.1153,-0.0408,252
20:19:36:882,0.4873,0.5716,8.9736,46.9413,-0.1025,-0.2298,-0.19,251.8594
20:19:36:905,0.4203,0.6578,8.557,49.6278,0.3593,-0.1616,-0.3365,251.875
20:19:36:927,0.1186,0.902,7.8184,49.6431,0.8014,0.0317,-0.4276,252.1094
20:19:36:944,-0.3027,1.1702,6.7601,46.7967,1.1215,0.1816,-0.4206,252.5312
20:19:36:963,-0.3638,1.485,5.7654,47.7133,1.2269,0.2298,-0.3397,253.0625
20:19:36:984,-0.1112,1.837,5.1644,49.9245,1.1026,0.2112,-0.2313,253.5938
20:19:37:005,0.3712,2.3278,6.2645,49.2904,0.4906,0.2546,-0.0643,253.8438
20:19:37:028,0.2587,2.3613,7.5071,49.9251,0.2562,0.3332,0.0079,254.3594
20:19:37:044,0.1833,2.3122,8.5402,47.4335,0.0999,0.3934,0.0902,254.5469
20:19:37:063,0.1306,2.1398,9.4859,48.7164,-0.032,0.4418,0.1482,254.5469
20:19:37:083,-0.0849,1.7292,10.5801,48.5354,-0.167,0.5004,0.1802,254.5625
20:19:37:104,-0.0717,1.2839,11.8023,48.4872,-0.22,0.4136,0.145,254.5625
20:19:37:129,0.1067,1.1857,12.5888,48.6023,-0.1134,0.1601,-0.0483,254.1406
20:19:37:146,-0.4297,1.5461,12.2824,47.99,0.0757,-0.005,-0.3072,253.8438
20:19:37:164,-1.531,1.7915,11.4336,49.0464,0.1334,0.0788,-0.3897,253.5625
20:19:37:182,-2.3271,2.1027,10.774,49.4248,-0.0314,0.2368,-0.2009,253.5781
20:19:37:204,-2.3821,2.0022,10.6938,47.4338,-0.4117,0.3257,0.1315,253.9531
20:19:37:227,-2.1343,1.1857,11.7173,47.9876,-0.8213,0.2373,0.3837,254.375
20:19:37:242,-1.8841,0.574,13.0844,48.5018,-0.922,-0.0335,0.4249,254.5469
20:19:37:262,-1.8638,0.6482,13.076,47.8539,-0.6344,-0.2399,0.3269,254.2969
20:19:37:282,-2.1978,1.169,11.4504,49.3714,-0.2674,-0.1835,0.2974,253.7344
20:19:37:304,-2.6108,1.6634,9.377,48.7126,-0.143,0.0717,0.4183,252.9219
20:19:37:329,-2.0924,1.6203,7.64,47.9824,-0.2916,0.1108,0.6878,252.5781
20:19:37:346,-0.8929,1.6514,6.5555,48.7564,-0.5758,-0.0967,0.8055,252.1875
20:19:37:364,-0.1627,1.4814,6.2562,47.8838,-0.812,-0.4056,0.7839,251.5312
20:19:37:385,0.5448,1.5904,6.8164,46.8824,-0.8525,-0.5276,0.6894,250.5781
20:19:37:411,0.5496,1.6933,7.5119,47.4996,-0.6293,-0.3611,0.5501,249.6875
20:19:37:428,0.2024,1.9004,7.6508,49.6951,-0.22,-0.1044,0.4875,248.8125
20:19:37:444,0.1474,2.1063,6.8822,47.1477,0.1934,0.0384,0.5272,248.0938
20:19:37:463,0.5149,2.3768,5.8049,48.7241,0.3702,0.0717,0.6145,247.7812
20:19:37:483,1.0919,2.5995,5.6373,48.0421,0.2639,0.0527,0.683,247.25
20:19:37:504,1.6761,2.6558,6.5507,47.6416,0.0631,-0.0208,0.6742,246.6562
20:19:37:526,1.9646,2.7899,7.9704,48.5003,-0.0615,-0.078,0.605,245.9688
20:19:37:542,1.8676,2.9563,9.3782,47.4783,-0.0501,-0.0458,0.5221,245.2031
20:19:37:562,1.6653,2.9335,10.525,47.4424,0.0522,0.0669,0.4795,244.4844
20:19:37:583,1.5683,2.8186,11.5473,48.3059,0.1614,0.2181,0.454,243.4844
20:19:37:603,1.6114,2.5995,12.5026,48.4318,0.208,0.3899,0.4002,242.9531
20:19:37:628,1.4319,2.2571,13.3765,47.8792,0.208,0.4139,0.2774,242.4062
20:19:37:645,1.6832,2.1326,13.8015,47.2318,0.2597,0.1739,0.1067,241.875
20:19:37:664,1.6557,2.3804,13.3406,46.0925,0.306,-0.1382,-0.1176,241.4375
20:19:37:683,1.5983,2.7527,12.5122,47.1718,0.1691,-0.3976,-0.2121,241.2031
20:19:37:703,1.8784,2.6965,12.3087,47.4676,-0.216,-0.4194,-0.1745,241.2188
20:19:37:728,2.2459,1.6083,13.8266,47.0863,-0.6559,-0.1752,-0.1418,241.5156
20:19:37:746,1.9478,0.1718,16.398,46.9172,-0.6434,0.0368,-0.2073,241.7969
20:19:37:763,1.9562,-0.3202,16.1155,47.4596,-0.041,0.0344,-0.3831,241.9844
20:19:37:782,1.8077,-0.0473,12.9156,47.1476,0.6091,-0.1592,-0.6326,242.125
20:19:37:803,1.5264,0.3885,9.4345,46.8071,0.7686,-0.2583,-0.8206,242.3906
20:19:37:829,0.9386,0.7308,7.6029,45.7266,0.5183,-0.1678,-0.9343,242.9844
20:19:37:844,0.0731,0.5477,7.0223,45.2469,0.1987,0.0107,-0.9551,243.9219
20:19:37:862,-0.4177,0.3885,7.3024,45.8136,0.0288,0.0701,-0.9088,245.5312
20:19:37:883,-0.7062,0.3549,7.828,45.0055,0.0772,0.0157,-0.847,246.6562
20:19:37:904,-1.598,0.5285,7.7202,46.5419,0.2874,-0.1446,-0.7258,247.6719
20:19:37:928,-2.0852,1.084,7.5682,45.4646,0.51,-0.1398,-0.3783,248.6562
20:19:37:946,-0.5518,1.3258,7.5957,45.0344,0.7761,0.1476,0.0369,249.0781
20:19:37:962,1.3049,1.4312,7.0175,45.1553,1.0591,0.4184,0.1229,249.7969
20:19:37:983,1.8844,1.8022,5.909,46.358,1.163,0.4139,-0.1319,250.0312
20:19:38:003,1.4223,2.4379,5.186,45.2965,0.9777,0.1934,-0.4243,249.9062
20:19:38:029,0.6154,3.0412,5.2422,45.3386,0.6019,-0.0549,-0.5905,249.9062
20:19:38:047,-0.1483,3.398,6.3328,45.0979,0.229,-0.172,-0.5905,250.2969
20:19:38:067,-0.6499,3.5548,7.7238,43.4966,0.0197,-0.1308,-0.4779,250.9688
20:19:38:083,-0.7972,3.5788,8.8611,44.3459,-0.0202,-0.0463,-0.3418,251.7031
20:19:38:141,-0.784,3.5943,9.3626,45.9226,0.0109,0.0269,-0.231,252.375
20:19:38:141,-0.9205,3.5692,9.7733,44.3126,-0.0085,0.1508,-0.1618,252.8438
20:19:38:141,-1.2401,3.2052,10.4245,45.7725,-0.0748,0.2096,-0.1192,253.2656
20:19:38:165,-1.1671,2.8952,11.023,44.9342,-0.0959,0.0906,-0.1373,253.4219
20:19:38:182,-1.2604,2.6462,11.4504,45.073,-0.0256,-0.049,-0.2489,253.5156
20:19:38:204,-1.6543,2.4068,11.4695,45.3109,0.0562,0.028,-0.3154,253.625
20:19:38:228,-2.4671,2.1769,11.2481,45.12,0.0514,0.229,-0.271,253.9062
20:19:38:243,-3.3206,2.0333,10.9847,45.422,-0.204,0.4615,-0.0603,254.2812
20:19:38:270,-4.3789,0.993,11.9256,45.5388,-0.702,0.6102,0.2532,254.5469
20:19:38:281,-3.5397,0.0174,13.8326,45.5388,-0.8834,0.1212,0.4036,254.5
20:19:38:303,-2.7448,0.2903,13.2975,46.3223,-0.5382,-0.4876,0.303,253.9844
20:19:38:329,-2.0457,1.4455,9.699,45.0073,-0.1973,-0.4972,0.291,253.3906
20:19:38:346,-1.9045,2.4128,6.753,46.0135,-0.3635,0.0336,0.3919,253.0781
20:19:38:363,-2.041,2.0536,6.7709,44.4045,-0.723,0.5326,0.561,252.8125
20:19:38:383,-1.3347,1.7939,7.8974,46.4261,-0.8589,0.4709,0.7006,252.3125
20:19:38:406,-0.1471,1.7567,7.3515,45.9091,-0.5036,-0.0754,0.5996,251.5469
20:19:38:430,0.5173,2.0141,6.9433,45.7645,-0.3254,-0.1515,0.5333,251.0469
20:19:38:449,0.807,2.1578,6.7003,45.1373,-0.1289,-0.0972,0.4438,249.6875
20:19:38:464,0.7112,2.4152,6.2143,45.8824,0.0511,-0.0397,0.3773,248.9375
20:19:38:486,0.6944,2.5612,5.6037,45.9535,0.0924,-0.057,0.3765,247.8438
20:19:38:506,0.8979,2.633,5.7618,45.244,-0.0194,-0.176,0.3911,247.4219
20:19:38:529,1.2152,2.645,6.6763,45.7521,-0.1563,-0.2913,0.3759,247.4219
20:19:38:547,1.1086,2.724,7.8615,46.0579,-0.2184,-0.3177,0.3229,247.0312
20:19:38:563,0.8405,2.8497,8.8251,46.9129,-0.2176,-0.2913,0.3168,246.6094
20:19:38:587,0.795,2.8653,9.6416,45.8638,-0.1981,-0.3023,0.3283,246.2031
20:19:38:600,0.9351,2.8389,10.6376,46.4339,-0.176,-0.3683,0.3304,245.875
20:19:38:622,0.9111,2.6761,11.6958,45.949,-0.1502,-0.3864,0.2707,245.5469
20:19:38:647,0.7315,2.4391,12.8366,46.2997,-0.1188,-0.3909,0.1501,245.2031
20:19:38:665,0.3473,2.0345,13.7237,46.3133,-0.0072,-0.4402,-0.0169,244.8438
20:19:38:682,0.4107,2.056,13.3957,47.1411,0.2011,-0.5292,-0.1437,244.5938
20:19:38:703,0.8884,2.475,12.0082,44.5711,0.2618,-0.4716,-0.2148,244.5
20:19:38:729,1.3947,2.645,11.1008,44.987,-0.0003,-0.3324,-0.2595,244.6719
20:19:38:747,1.8999,2.3553,11.7928,46.1002,-0.4178,-0.1846,-0.3154,244.9531
20:19:38:765,1.8006,1.5221,13.6327,46.1474,-0.6748,0.0032,-0.4374,245.2969
20:19:38:782,1.4857,0.7057,15.1889,45.735,-0.5635,0.0972,-0.5727,245.6562
20:19:38:803,1.2104,0.3585,15.068,46.4364,-0.1332,0.1284,-0.7032,246.0312
20:19:38:826,0.9015,0.5297,13.1778,44.7143,0.2762,0.2714,-0.7783,246.5625
20:19:38:843,0.5915,0.7943,11.0984,46.7322,0.4104,0.4964,-0.7722,247.2656
20:19:38:864,0.3832,0.7332,9.7541,48.3985,0.3281,0.6027,-0.7325,247.6719
20:19:38:882,0.2551,0.6794,8.9616,45.0753,0.2093,0.5124,-0.7088,248.5
20:19:38:902,0.1234,0.7093,8.0159,46.8522,0.1566,0.3193,-0.696,249.3594
20:19:38:929,0.2336,0.8625,6.99,46.4365,0.1425,0.1555,-0.6877,250.1406
20:19:38:946,0.3509,0.9774,6.2777,46.4899,0.1492,0.0863,-0.7077,250.8594
20:19:38:962,0.3784,1.0397,6.0802,45.97,0.1824,0.0834,-0.7572,251.625
20:19:38:985,-0.0526,1.06,6.3029,46.195,0.294,0.0565,-0.8118,252.8125
20:19:39:000,-0.9468,1.1391,6.6416,44.4375,0.5124,-0.0498,-0.7626,253.6094
20:19:39:021,-1.0474,1.339,6.7302,45.2995,0.7731,-0.0988,-0.5815,254.5312
20:19:39:046,-0.4045,1.5712,6.3639,46.3591,0.9723,-0.0841,-0.4249,255.5
20:19:39:063,0.3688,1.813,5.7414,45.3073,1.0229,-0.0415,-0.3759,256.3125
20:19:39:083,0.5376,2.1111,4.9382,45.9704,0.8309,-0.0996,-0.4337,256.9844
20:19:39:103,0.4873,3.0903,5.3943,43.1037,0.3947,-0.1323,-0.5343,257.5625
20:19:39:129,-1.3251,3.7332,6.911,45.7574,-0.0621,-0.0772,-0.5674,258.125
20:19:39:147,-1.8901,4.0803,8.9341,44.3308,-0.3667,0.2056,-0.456,258.75
20:19:39:164,-2.582,3.6434,10.4724,43.9632,-0.5742,0.2733,-0.1599,259.4375
20:19:39:184,-2.4061,3.2783,11.8215,46.5877,-0.6863,0.2208,0.0987,260.0156
20:19:39:205,-2.2588,2.8605,12.857,44.0094,-0.7127,0.1089,0.2193,260.2656
20:19:39:228,-2.1236,2.5528,13.2448,46.6858,-0.6402,0.0264,0.254,260.1562
20:19:39:245,-2.2576,2.4283,13.0365,44.1543,-0.5822,0.1406,0.2742,259.8438
20:19:39:262,-2.776,1.9064,13.0102,45.6902,-0.6642,0.3417,0.3757,259.3125
20:19:39:287,-3.0645,1.0624,13.5633,44.4051,-0.8855,0.485,0.5493,258.8906
20:19:39:301,-2.7556,-0.556,14.8693,44.6675,-1.0357,0.298,0.6915,258.3438
20:19:39:322,-1.768,-1.5449,15.2931,45.8971,-0.779,-0.2517,0.61,257.5781
20:19:39:346,-1.1132,-1.1223,13.2855,43.3102,-0.2019,-0.6935,0.3517,257.0938
20:19:39:364,-1.2042,-0.3226,10.1527,45.7582,0.241,-0.5891,0.2252,256.1719
20:19:39:385,-1.2844,0.5405,8.0877,45.1774,0.3015,-0.0506,0.312,255.6094
20:19:39:401,-1.2724,0.9631,7.4401,44.1599,0.1148,0.4072,0.4782,255.4062
20:19:39:423,-1.1778,0.8278,7.482,45.4789,-0.1326,0.4573,0.6156,255.2031
20:19:39:445,-0.7277,1.0565,7.4365,44.8079,-0.3009,0.188,0.6473,254.75
20:19:39:462,-0.596,1.1259,7.1193,45.7309,-0.3718,-0.1992,0.5967,254.0938
20:19:39:481,-0.1938,1.3318,7.1755,44.6486,-0.3393,-0.4381,0.5666,253.2812
20:19:39:503,0.1198,1.4826,7.1289,45.65,-0.171,-0.4623,0.5104,252.5312
20:19:39:527,0.0193,1.6777,6.6309,45.2225,0.0346,-0.4626,0.4164,251.8594
20:19:39:542,0.0169,1.886,6.0898,45.6227,0.1915,-0.4546,0.3136,251.0156
20:19:39:561,-0.298,2.1039,5.6947,44.2272,0.2959,-0.5316,0.3315,250.5938
20:19:39:581,0.4598,1.8394,4.5359,43.7203,0.1752,-0.6024,0.4838,250.3125
20:19:39:602,0.7315,2.7144,5.6947,45.3892,-0.1784,-0.559,0.4904,250.0312
20:19:39:630,0.5173,2.2344,7.4976,45.1962,-0.3963,-0.5012,0.5802,249.5625
20:19:39:648,0.2216,2.4619,9.614,44.4645,-0.3188,-0.4684,0.6204,249.0625
20:19:39:665,0.4514,2.2643,10.2856,43.2739,-0.0431,-0.6367,0.7728,248.4531
20:19:39:681,1.6665,2.3302,9.7577,44.2566,0.02,-0.625,0.8303,247.7812
20:19:39:702,2.2782,2.2691,10.8315,45.3686,-0.11,-0.3992,0.6963,246.9531
20:19:39:727,2.1441,1.9028,12.8055,45.2201,-0.1204,-0.1816,0.6034,246.125
20:19:39:743,2.119,1.5042,14.4886,44.7142,0.1297,-0.0668,0.5181,245.375
20:19:39:762,2.7128,1.5377,14.0361,43.6915,0.4969,-0.1486,0.3197,244.6875
20:19:39:782,3.5052,1.4982,12.098,44.7316,0.5305,-0.2048,-0.0228,244.1094
20:19:39:804,1.1864,1.2504,15.2751,45.559,-0.4583,0.0895,-0.2856,243.7969
20:19:39:828,1.6449,-0.0916,17.9626,45.7261,-0.2581,0.1752,-0.0885,243.7812
20:19:39:845,2.4278,-0.5752,16.0329,44.2771,0.4586,0.0216,-0.2334,243.7812
20:19:39:862,2.7439,-0.3035,12.2201,44.7126,0.9478,-0.1438,-0.6622,244.2812
20:19:39:881,1.6042,0.3118,9.8343,44.6179,0.8943,0.0333,-0.9027,244.6562
20:19:39:901,0.1929,0.6925,9.3615,45.1929,0.6053,0.4554,-0.6576,244.9219
20:19:39:923,0.3305,0.3992,9.2142,43.6882,0.4868,0.6253,-0.3322,246.7344
20:19:39:945,1.3373,0.0796,7.5311,45.6439,0.5049,0.4368,-0.2736,246.7344
20:19:39:963,1.1493,0.41,5.3943,44.0198,0.3734,0.0485,-0.4062,247.4375
20:19:39:980,1.0596,0.8122,4.0834,42.6936,0.0733,-0.2168,-0.6534,247.75
20:19:40:001,0.5005,1.1797,4.4054,42.8246,-0.2338,-0.5108,-0.7303,248.0156
20:19:40:022,0.4359,1.5916,5.2279,43.6254,-0.3981,-0.5845,-0.5879,248.4844
20:19:40:046,0.7902,1.6011,5.8779,43.6157,-0.3696,-0.5257,-0.4478,249.2812
20:19:40:063,0.8908,1.6646,6.6979,41.9867,-0.2181,-0.2708,-0.3594,250.1406
20:19:40:081,0.8261,1.8011,7.2845,43.3271,0.0602,0.02,-0.3,251.4531
20:19:40:101,0.6465,1.8334,7.7238,41.686,0.3686,0.2719,-0.2598,251.6875
20:19:40:121,0.625,2.0141,7.7908,42.5951,0.5862,0.453,-0.1991,252.0625
20:19:40:146,0.3281,2.1745,8.0375,43.7355,0.6245,0.579,-0.1397,252.375
20:19:40:214,0.0193,2.3984,8.454,42.2813,0.5316,0.6144,-0.0994,252.5938
20:19:40:215,-0.2202,2.481,8.6935,42.4686,0.3721,0.497,-0.0611,252.7344
20:19:40:215,-0.3411,2.5061,9.0813,41.3066,0.1358,0.4578,-0.0137,252.7969
20:19:40:231,-0.6188,2.42,10.1982,43.2311,-0.0999,0.5369,0.0412,252.8281
20:19:40:243,-0.4308,2.2739,11.2816,41.8202,-0.188,0.6003,0.0734,252.8125
20:19:40:265,-0.1854,2.1901,11.6766,41.2962,-0.1712,0.5864,-0.0116,252.7812
20:19:40:283,-0.6152,2.1338,11.9999,40.5087,-0.138,0.6568,-0.1479,252.625
20:19:40:300,-1.5011,2.2547,12.2393,41.0658,-0.0948,0.693,-0.2204,252.4219
20:19:40:322,-2.278,2.22,13.1407,41.8504,-0.221,0.9122,-0.0542,252.3125
20:19:40:346,-3.9192,2.0596,15.9563,39.048,-0.4189,1.1569,0.1546,252.3594
20:19:40:360,-4.2424,1.7113,16.7739,40.3054,-0.0823,0.8908,0.4915,252.4844
20:19:40:381,-2.5437,1.7592,13.4208,41.4431,0.3928,0.5223,0.5416,252.2188
20:19:40:402,-2.0613,1.7496,9.9768,40.0998,0.5806,0.4195,0.3208,251.6406
20:19:40:429,-2.5533,2.0022,8.0004,40.0998,0.432,0.6035,0.2641,250.8906
20:19:40:446,-2.831,1.9088,6.8032,39.8723,0.0376,0.8426,0.519,250.3906
20:19:40:463,-2.5497,1.3641,7.3108,40.8591,-0.4288,0.8994,0.8921,250.1094
20:19:40:481,-1.2736,0.7177,7.8435,39.1333,-0.727,0.2733,1.0785,249.6094
20:19:40:502,0.1115,0.4591,7.5323,39.6613,-0.8794,-0.3758,1.0247,248.5781
20:19:40:529,0.5233,0.9296,7.0175,38.4905,-0.7917,-0.5097,0.8833,247.2812
20:19:40:548,0.6705,1.4503,6.3711,39.5681,-0.5004,-0.2748,0.7496,245.9219
20:19:40:561,0.3963,1.813,5.8252,40.1225,-0.2035,-0.0935,0.5656,244.7812
20:19:40:581,-0.0095,2.2416,4.9765,40.4603,-0.0354,-0.1422,0.4196,243.8125
20:19:40:600,-0.1076,2.4487,4.5527,39.8894,-0.139,-0.3755,0.3815,243.0781
20:19:40:623,-0.2381,2.5181,5.2746,39.2614,-0.3614,-0.4812,0.4071,242.5156
20:19:40:645,-0.2238,2.4954,6.5602,40.511,-0.5308,-0.6098,0.4162,242.1094
20:19:40:663,-0.2022,2.4654,8.1859,39.5013,-0.5766,-0.6565,0.414,241.5
20:19:40:682,0.1414,2.5169,9.4405,38.7169,-0.4413,-0.6376,0.3972,241.0625
20:19:40:701,0.4634,2.5947,10.464,37.4423,-0.221,-0.58,0.3046,240.6094
20:19:40:722,0.3461,2.7958,11.0015,37.6684,-0.0163,-0.3989,0.1967,240.2344
20:19:40:745,0.0815,2.8629,11.8442,39.2942,0.086,-0.2636,0.1562,239.9375
20:19:40:763,0.2048,2.7635,12.6738,36.8121,0.1324,-0.1989,0.194,239.8438
20:19:40:781,0.8058,2.463,13.2113,38.2132,0.2038,-0.224,0.1847,239.7031
20:19:40:801,1.3876,2.3613,12.7038,37.3675,0.2482,-0.3078,0.0641,239.5625
20:19:40:821,2.0172,2.1171,12.0286,35.937,0.1263,-0.2386,-0.0984,239.3594
20:19:40:846,2.0807,1.5185,11.8323,36.1504,-0.1142,-0.0032,-0.215,239.2656
20:19:40:862,1.4965,0.9882,12.5553,35.7878,-0.3798,0.3795,-0.2001,239.3438
20:19:40:881,1.4582,0.1718,13.3885,36.5832,-0.4437,0.7694,-0.0957,239.5625
20:19:40:902,1.8125,-0.5357,12.7828,36.4392,-0.3188,1.0634,-0.1381,239.7812
20:19:40:929,2.113,-0.7117,12.7097,37.1915,-0.0559,0.775,-0.3799,239.8281
20:19:40:946,1.4402,-0.2927,11.2241,36.8914,0.0147,0.6141,-0.9277,239.75
20:19:40:964,0.6286,-0.2771,10.7776,36.8543,0.1995,0.473,-1.0819,240.0938
20:19:40:981,-0.1076,-0.1862,9.3902,35.7982,0.3505,0.7454,-1.0007,241.0312
20:19:41:001,0.1893,-0.1155,7.494,36.4693,0.1974,0.4959,-0.8987,242.2344
20:19:41:022,0.4347,-0.0365,6.7075,36.4949,-0.176,0.0075,-0.9876,243.3281
20:19:41:046,-0.3303,0.1275,6.3579,35.5665,-0.3973,-0.2538,-1.1221,244.3125
20:19:41:063,-0.5817,1.2504,7.579,36.0772,-0.3108,-0.3731,-1.0702,245.3594
20:19:41:081,-0.9049,1.0277,6.8619,36.693,-0.1888,-0.1899,-1.0118,246.625
20:19:41:102,-0.1759,0.9403,6.2322,37.2014,-0.0485,-0.2322,-0.9144,247.8438
20:19:41:121,0.3233,1.3342,6.1879,36.1206,0.0946,-0.1204,-0.9144,248.9375
20:19:41:147,0.7758,1.7412,6.6776,34.099,0.3308,0.1279,-0.9714,250
20:19:41:164,-1.5525,2.2811,5.8851,35.5223,0.8275,-0.0032,-0.6654,251.0781
20:19:41:182,-1.4556,2.6857,6.1101,36.3456,0.7068,-0.719,-0.6116,253.1562
20:19:41:211,-1.1288,2.8318,7.6915,34.3604,0.6069,-1.3752,-0.6073,254.0469
20:19:41:223,-0.5637,2.7623,10.1288,35.913,0.571,-2.0426,-0.6449,254.9375
20:19:41:248,-1.0378,2.9323,11.8382,35.7385,0.7606,-1.8506,-0.7003,254.9375
20:19:41:264,-1.1599,2.578,12.0789,35.1161,0.8986,-1.0589,-0.6132,255.8438
20:19:41:281,-1.6208,2.6079,11.3151,35.4608,0.8788,-0.2418,-0.5354,256.9219
20:19:41:301,-2.5832,2.8174,10.6483,35.5204,0.4456,-0.2293,-0.2323,258.9375
20:19:41:322,-2.4288,2.7539,11.5078,34.2743,-0.1273,-0.33,0.1064,258.9375
20:19:41:347,-1.7836,2.4882,12.845,35.4903,-0.53,-0.0564,0.3354,259.6562
20:19:41:363,-0.857,2.4619,13.7632,36.9929,-0.7105,0.318,0.4612,260
20:19:41:380,-0.1914,2.1015,14.0517,33.1907,-0.7467,0.453,0.438,259.9219
20:19:41:399,-0.0047,1.6861,14.8885,34.2936,-0.6735,0.0964,0.3264,259.5156
20:19:41:421,-0.0681,1.1953,15.1626,34.3711,-0.29,0.02,0.1562,258.875
20:19:41:446,-0.8235,0.6123,13.2161,34.4454,0.2464,0.3484,0.0928,258.2656
20:19:41:464,-1.6172,0.6099,10.3634,34.3498,0.6365,0.588,0.2542,257.8438
20:19:41:480,-1.9416,0.9535,7.8016,36.2073,0.6882,0.241,0.5661,257.6406
20:19:41:501,-1.0605,1.0995,6.9493,34.603,0.441,-0.3462,0.8052,257.5
20:19:41:519,-0.2106,1.1402,7.5083,34.4974,0.1894,-0.7049,0.8167,256.5938
20:19:41:546,-0.1998,1.0864,8.5055,35.0669,0.0892,-0.8445,0.7522,256.1875
20:19:41:563,-0.3363,0.8517,9.3423,37.1719,0.2301,-0.6983,0.8087,255.3438
20:19:41:580,-0.134,0.7057,8.721,36.2688,0.5896,-0.2884,0.9938,254.625
20:19:41:601,0.4478,1.181,6.7039,36.883,0.7785,0.2485,1.1237,253.8906
20:19:41:620,0.8465,1.9064,5.2793,36.2239,0.6442,0.5622,1.115,252.9844
20:19:41:646,1.0739,2.3218,5.4493,34.2853,0.3353,0.6208,1.0239,251.8438
20:19:41:663,1.0787,2.2739,6.48,36.8932,0.1225,0.6757,0.9008,250.5
20:19:41:681,0.7351,2.2966,7.1372,35.9327,0.0578,0.7867,0.7901,249.1719
20:19:41:703,0.3377,2.6809,7.5179,34.6761,0.102,0.7303,0.7613,247.9531
20:19:41:728,0.6441,3.3094,7.9453,36.1857,0.2261,0.4408,0.8255,247.4531
20:19:41:742,1.6042,3.9044,8.2769,37.2624,0.4248,0.0533,0.8217,246.3906
20:19:41:760,2.2267,4.4742,8.0746,35.8866,0.5675,-0.1814,0.6505,245.3906
20:19:41:784,2.119,4.8022,7.6664,35.7779,0.449,-0.2919,0.385,244.3594
20:19:41:800,1.6772,4.5843,8.3714,35.033,0.0935,-0.4386,0.1248,243.4844
20:19:41:820,1.3277,3.8289,10.1743,36.9288,-0.2695,-0.5316,-0.0483,242.8125
20:19:41:848,1.3564,2.9263,12.0142,35.2176,-0.4575,-0.477,-0.116,242.4219
20:19:41:860,1.4797,2.2751,12.6906,36.0704,-0.4945,-0.2652,-0.1394,242.5
20:19:41:880,1.4342,1.9303,12.5146,36.0659,-0.5065,-0.0455,-0.1559,242.7031
20:19:41:901,1.3205,1.5209,11.94,36.8804,-0.5561,0.0136,-0.1852,242.9219
20:19:41:921,1.0727,1.1343,12.5146,37.402,-0.6336,-0.2834,-0.2489,243.0938
20:19:41:946,0.7734,0.3633,14.3474,37.8392,-0.6218,-0.6024,-0.361,243.25
20:19:41:963,0.6382,-0.8266,15.0632,35.4973,-0.4234,-0.2554,-0.378,243.4844
20:19:41:980,0.6214,-0.9056,12.6259,36.9665,-0.1513,0.576,-0.2185,243.8906
20:19:42:000,1.3121,0.0664,8.873,38.2942,-0.0394,0.9971,-0.0595,244.4219
20:19:42:020,2.4637,1.1726,6.3076,37.146,-0.1885,0.8072,-0.1271,244.7344
20:19:42:045,2.7295,1.8896,5.6528,36.5716,-0.4746,0.2261,-0.4198,244.7188
20:19:42:061,2.1118,1.8465,6.7123,36.6995,-0.6882,-0.327,-0.737,244.6094
20:19:42:082,1.4414,1.412,7.7837,37.6288,-0.7294,-0.5079,-0.9264,244.7969
20:19:42:100,0.8608,1.2899,8.229,36.5237,-0.7052,-0.3126,-0.9929,245.875
20:19:42:121,0.3293,1.4467,8.1847,38.6177,-0.649,0.0293,-0.9714,246.9688
20:19:42:146,-0.2046,1.5688,7.6089,38.0048,-0.535,0.3422,-0.8694,248.1094
20:19:42:164,-0.5853,1.7771,6.9852,37.1066,-0.4144,0.4173,-0.7045,249.1875
20:19:42:182,-1.215,1.922,6.6596,38.397,-0.269,0.2466,-0.5186,249.625
20:19:42:204,-1.2844,1.8082,6.9086,37.2502,-0.0983,-0.1968,-0.2616,250.4375
20:19:42:219,-0.6643,1.9423,7.5131,36.9822,0.106,-0.6336,0.0058,251.0781
20:19:42:290,-0.1687,2.584,8.0003,38.3185,0.2626,-0.9579,0.1528,251.5
20:19:42:290,0.4347,3.1274,8.879,37.8543,0.282,-1.2024,0.1666,251.6875
20:19:42:290,0.892,3.2364,10.2437,37.3188,0.1835,-1.0578,0.0702,251.6719
20:19:42:299,0.6777,3.1765,11.5067,38.8358,0.0437,-0.5995,-0.0078,251.625
20:19:42:321,0.6537,2.9563,12.3458,38.6974,-0.0005,-0.0453,-0.0126,251.625
20:19:42:347,0.6478,3.0915,12.6882,38.6065,0.0645,0.3526,0.0188,251.7188
20:19:42:363,0.7782,3.4267,12.7349,40.7057,0.2176,0.5598,0.0561,251.7812
20:19:42:379,0.7902,3.4985,12.1028,41.2276,0.3593,0.6544,0.0201,251.7188
20:19:42:401,0.2264,3.4411,11.3714,40.4125,0.342,0.6658,-0.0318,251.5938
20:19:42:423,-0.2668,3.0915,11.2744,41.0991,0.1736,0.6317,-0.0081,251.5
20:19:42:445,-0.2632,2.7085,11.6419,40.5815,-0.0439,0.5164,0.0878,251.4531
20:19:42:463,0.2192,2.3014,13.1826,40.5132,-0.1939,0.1001,0.1767,251.3906
20:19:42:485,0.5879,1.4874,15.0477,40.5717,-0.0469,-0.2514,0.2385,251.2188
20:19:42:502,0.795,0.586,14.8729,41.0435,0.403,-0.2556,0.3008,251.2188
20:19:42:519,0.9578,0.331,12.1052,41.4102,0.8317,-0.0687,0.3767,250.7656
20:19:42:540,1.2858,0.7117,8.7461,41.5505,0.8914,-0.021,0.3954,250.4688
20:19:42:562,1.6737,1.3629,7.0714,41.5505,0.5422,-0.2471,0.2891,250.0938
20:19:42:580,1.9394,1.564,7.5502,41.4662,0.0336,-0.4868,0.0572,249.7031
20:19:42:601,1.0081,0.8889,9.0191,42.5059,-0.3342,-0.4607,-0.2225,249.4531
20:19:42:622,0.2407,0.6494,8.399,42.4636,-0.4581,-0.1568,-0.4065,249.4688
20:19:42:646,-0.2956,0.6506,7.3144,42.4636,-0.3957,0.1984,-0.4134,249.7656
20:19:42:662,-0.444,0.8063,6.419,42.4254,-0.0871,0.3225,-0.1096,250
20:19:42:679,-0.2944,0.9559,6.1257,40.3549,0.0551,0.1569,0.0587,250.6719
20:19:42:705,-0.055,1.1558,6.0551,41.7468,0.1699,0.0296,0.1909,250.9219
20:19:42:719,0.1402,1.4204,5.9772,42.5322,0.2381,-0.0589,0.2912,250.9844
20:19:42:741,0.358,1.7556,6.1424,42.0821,0.2405,-0.1811,0.3394,250.9062
20:19:42:762,0.3174,1.904,6.9756,42.5231,0.1625,-0.266,0.3501,250.6875
20:19:42:781,0.2814,2.2057,8.2709,43.3715,0.0621,-0.2096,0.393,250.3906
20:19:42:800,0.7615,2.566,9.3339,42.4582,0.028,-0.1297,0.3727,250.0469
20:19:42:821,1.226,2.7001,10.021,44.2846,0.0184,-0.0359,0.2329,249.6875
20:19:42:846,1.3325,2.6833,10.6471,42.3012,-0.045,0.097,0.0542,249.2969
20:19:42:864,1.0703,2.2787,11.3055,43.4435,-0.1172,0.1617,-0.0939,248.8906
20:19:42:880,0.6166,1.74,12.0334,44.3543,-0.1515,0.1473,-0.1346,248.6406
20:19:42:899,0.7303,1.066,12.6702,44.629,-0.1305,0.1364,-0.0571,248.5625
20:19:42:920,1.384,0.683,12.4189,44.7716,-0.0783,0.228,0.0627,248.7969
20:19:42:947,2.0927,1.1319,11.3163,44.5807,-0.1126,0.2988,0.1139,248.7969
20:19:42:966,2.5128,1.7544,10.6531,43.4907,-0.2732,0.1598,0.0004,248.7656
20:19:42:980,2.5631,1.4311,11.0458,44.5556,-0.477,-0.224,-0.2579,248.5938
20:19:43:000,2.1022,0.5273,12.681,45.2905,-0.6107,-0.5052,-0.4584,248.4531
20:19:43:020,1.4043,-0.2197,13.6878,43.9763,-0.5545,-0.3015,-0.464,248.5781
20:19:43:046,1.1206,-0.3059,12.7983,44.8894,-0.3553,0.1574,-0.2944,249.0156
20:19:43:067,1.3756,0.4196,10.8303,44.0278,-0.1656,0.3779,-0.1199,249.625
20:19:43:085,1.6856,1.3066,9.1891,43.6891,-0.0439,0.2277,-0.088,250.0625
20:19:43:102,1.7646,1.8394,7.9956,45.1475,0.0242,-0.021,-0.1964,250.2344
20:19:43:129,1.5707,2.1243,7.1025,42.0679,0.0104,-0.1622,-0.3801,250.2656
20:19:43:146,1.3157,2.2595,6.6249,43.6517,-0.0818,-0.1758,-0.5799,250.4062
20:19:43:162,1.0967,2.1865,6.5626,45.4254,-0.204,-0.1419,-0.758,250.5469
20:19:43:180,0.8943,1.9651,6.7338,44.2714,-0.3041,-0.1148,-0.8909,250.9688
20:19:43:200,0.5975,1.6478,7.2234,44.94,-0.3385,-0.0567,-0.9607,251.6562
20:19:43:220,0.3724,1.2564,7.5694,45.8807,-0.2714,0.0815,-0.9293,252.5312
20:19:43:246,0.3497,1.1031,7.6029,42.497,-0.1278,0.2868,-0.7831,253.5
20:19:43:264,0.8537,1.3809,7.2031,45.0092,0.0245,0.4458,-0.5823,255.125
20:19:43:281,1.5156,2.0536,6.8403,43.6022,0.1249,0.4014,-0.4973,256.0938
20:19:43:299,1.5156,2.578,7.3396,42.5941,0.1193,0.1263,-0.5698,256.7969
20:19:43:320,1.2643,2.6713,8.7892,43.1124,0.0762,-0.094,-0.6648,257.3438
20:19:43:347,0.5161,2.4726,10.1862,44.0932,0.0778,-0.1497,-0.7439,257.9219
20:19:43:363,-0.4572,2.0632,11.3139,43.4959,0.1025,-0.0066,-0.7061,258.6406
20:19:43:382,-1.2161,1.8537,12.092,44.6227,0.1041,0.2504,-0.5144,259.4375
20:19:43:401,-1.5094,1.8046,12.7648,44.6227,0.1238,0.4719,-0.2302,260.2969
20:19:43:426,-1.3837,1.8513,13.1515,43.1215,0.2394,0.5782,0.0529,261.0156
20:19:43:443,-0.8858,1.8956,12.5685,43.4024,0.4083,0.5478,0.2476,261.3906
20:19:43:459,-0.5051,2.1207,11.4025,44.7833,0.4384,0.4424,0.2942,261.4375
20:19:43:478,-0.4763,2.3421,10.4807,44.5825,0.2277,0.3281,0.1805,261.2188
20:19:43:498,-1.0258,2.0213,10.4113,44.3704,-0.1403,0.1436,0.01,260.8906
20:19:43:518,-1.6375,1.1869,11.7592,44.5826,-0.4522,-0.1355,-0.0233,260.5
20:19:43:538,-1.7393,0.3454,13.355,44.356,-0.4346,-0.31,0.099,260.4531
20:19:43:559,-1.1443,0.0233,12.7109,44.1428,-0.1025,-0.3459,0.2918,260.4531
20:19:43:581,-0.2441,0.2688,10.5765,43.0529,0.1526,-0.486,0.4585,260.3281
20:19:43:600,0.8022,0.8481,9.4165,43.6627,0.1065,-0.7561,0.5669,260.0156
20:19:43:618,1.8377,1.4228,9.4764,43.5182,-0.1193,-0.9286,0.5341,259.8125
20:19:43:638,2.3788,1.5197,9.6942,43.4504,-0.3262,-0.8679,0.3666,259.3125
20:19:43:661,1.9957,1.4347,9.8163,42.8741,-0.3989,-0.5731,0.1613,258.7656
20:19:43:680,1.2966,1.1618,9.4405,42.9469,-0.3084,-0.1537,0.0332,258.3281
20:19:43:699,0.7387,0.8278,8.4684,43.1727,-0.0951,0.212,0.0161,258.1094
20:19:43:722,0.3245,0.7201,7.0798,42.0232,0.1289,0.318,0.0907,258.0312
20:19:43:747,-0.1136,0.8996,6.1987,43.4951,0.2754,0.1883,0.2249,258
20:19:43:763,-0.0885,1.0948,6.0323,43.9064,0.3936,-0.0748,0.3853,257.8438
20:19:43:780,0.1605,1.3078,6.1089,43.5434,0.4932,-0.3475,0.5144,257.5781
20:19:43:799,0.7603,1.6442,6.486,44.6933,0.5324,-0.5222,0.5919,257.1719
20:19:43:818,1.3792,2.0788,7.0678,43.9081,0.4629,-0.5497,0.5416,256.6562
20:19:43:838,1.3828,2.3565,7.974,44.5532,0.2986,-0.4711,0.385,256.0938
20:19:43:861,1.0284,2.4008,9.6296,42.7102,0.1523,-0.3276,0.2188,255.5625
20:19:43:879,0.5364,2.1231,10.8746,45.107,0.159,-0.0895,0.0942,255.2031
20:19:43:898,0.1102,1.9303,10.9524,44.8923,0.2597,0.0469,0.0494,255
20:19:43:919,0.0588,1.7268,10.8315,43.5171,0.306,-0.066,0.0585,254.9062
20:19:43:938,0.2826,1.333,11.4659,45.9171,0.2783,-0.2905,0.0798,254.8594
20:19:43:964,0.528,0.8661,12.3949,43.9922,0.248,-0.3739,0.1219,254.8125
20:19:43:982,0.7495,0.4806,12.748,45.2128,0.2543,-0.2301,0.2167,254.7656
20:19:44:002,2.2004,0.8422,10.61,43.2124,0.13,0.1497,0.3203,254.6875
20:19:44:019,2.9091,1.0086,9.723,45.1791,-0.1909,0.016,0.1211,254.4844
20:19:44:044,3.0623,0.7775,10.7405,44.7055,-0.6163,-0.3124,-0.2065,254.3281
20:19:44:065,2.4254,-0.1969,13.1263,45.4558,-0.873,-0.3132,-0.4792,253.7344
20:19:44:083,1.8508,-0.9882,13.9464,44.9629,-0.7441,0.2139,-0.4923,253.5938
20:19:44:099,1.9981,-0.9296,11.7999,45.7397,-0.3843,0.6911,-0.2979,253.8594
20:19:44:118,2.5547,0.1694,9.1567,45.7828,-0.1755,0.6378,-0.1237,254.4531
20:19:44:138,3.1485,1.1498,8.2469,45.1167,-0.1784,0.237,-0.178,254.9688
20:19:44:166,2.8085,1.3102,8.3032,46.1554,-0.1912,0.0525,-0.398,255.2188
20:19:44:182,1.7455,1.1307,7.7083,44.3612,-0.1531,0.2437,-0.529,255.2812
20:19:44:198,0.9746,1.2288,6.5291,42.8194,-0.1174,0.5484,-0.4792,255.4375
20:19:44:218,0.7136,1.6311,5.6073,44.4741,-0.1249,0.64,-0.3692,255.8906
20:19:44:238,0.6873,2.1219,5.4709,45.0719,-0.1111,0.5398,-0.2837,256.4219
20:19:44:263,0.783,2.5038,5.6816,44.8066,-0.0261,0.3691,-0.2337,256.9062
20:19:44:281,0.953,2.8581,5.8659,44.0064,0.073,0.2072,-0.2369,257.25
20:19:44:299,0.9422,3.2304,6.0503,44.4768,0.0823,0.0597,-0.2933,257.5
20:19:44:346,0.6741,3.5237,7.2869,45.9279,-0.0402,-0.0644,-0.3578,257.7188
20:19:44:347,0.5029,3.4997,9.5075,45.0375,-0.0834,-0.0564,-0.3964,258.125
20:19:44:358,0.4897,3.143,10.8255,45.6286,0.0762,0.0253,-0.435,258.4844
20:19:44:380,0.139,2.8665,10.9704,46.6247,0.2775,0.0261,-0.4584,258.9219
20:19:44:398,-0.0813,2.6007,10.9727,46.7796,0.3537,0.0453,-0.4225,259.4062
20:19:44:418,-0.0933,2.402,10.9715,46.8484,0.322,0.1579,-0.3759,259.9062
20:19:44:438,-0.195,2.2931,10.944,47.2635,0.2051,0.249,-0.3634,260.4375
20:19:44:461,-0.1483,2.4523,11.5545,47.1784,0.0586,0.3092,-0.3626,260.8906
20:19:44:479,0.2312,2.3769,12.043,46.0434,0.0205,0.4392,-0.4467,261.3125
20:19:44:499,-0.5051,2.0177,11.2852,48.1076,0.0021,0.51,-0.5999,261.6719
20:19:44:519,-1.9751,1.8118,11.0529,46.445,-0.1643,0.3723,-0.5498,262.0781
20:19:44:540,-2.2648,1.673,12.0537,47.4099,-0.3523,0.1377,-0.2574,262.625
20:19:44:563,-1.0869,1.6275,13.1862,47.3181,-0.4599,-0.1092,0.034,262.9531
20:19:44:579,0.2324,1.412,14.6526,46.4456,-0.4581,-0.3899,0.1102,263.4844
20:19:44:602,0.6394,0.6842,15.5217,45.6992,-0.1875,-0.4362,0.0212,263.7344
20:19:44:618,0.2802,-0.3082,13.8793,47.5986,0.3015,-0.2575,-0.0265,263.6562
20:19:44:639,-0.5805,-0.5992,10.628,46.5551,0.6272,-0.0727,0.1205,263.5156
20:19:44:661,-0.7636,-0.3083,8.1464,45.8854,0.6197,-0.1156,0.4015,263.5938
20:19:44:680,-0.3135,0.0557,6.9409,46.8534,0.4216,-0.2956,0.5972,263.625
20:19:44:699,-0.0394,0.4196,6.8152,44.0581,0.2091,-0.4674,0.691,263.4062
20:19:44:720,0.2108,0.5776,7.0043,44.5653,0.081,-0.4565,0.7759,262.875
20:19:44:747,0.5376,0.7512,7.081,44.5653,0.057,-0.3148,0.8529,262.2031
20:19:44:764,0.6166,1.0648,6.8571,46.1639,0.1281,-0.1867,0.8902,261.4844
20:19:44:782,0.625,1.2719,6.3639,47.4854,0.2498,-0.1286,0.8952,260.5938
20:19:44:799,0.7052,1.4228,5.6863,45.543,0.3524,-0.1281,0.8905,259.625
20:19:44:818,0.8381,1.7017,5.1034,46.4398,0.3739,-0.1528,0.8524,258.6875
20:19:44:839,0.9159,2.1518,4.7251,45.6418,0.2735,-0.2003,0.7589,257.6875
20:19:44:864,0.7782,2.6091,5.0088,46.6795,0.0341,-0.326,0.6225,256.7188
20:19:44:881,0.6011,2.8401,6.492,44.7289,-0.2506,-0.485,0.4913,255.8281
20:19:44:898,0.6657,2.8198,8.8263,46.4821,-0.4035,-0.5561,0.3962,255.125
20:19:44:918,0.6861,2.7958,10.8949,44.0646,-0.3611,-0.4479,0.311,254.3125
20:19:44:938,0.8177,2.7025,12.0034,44.9537,-0.1819,-0.2048,0.2292,253.9375
20:19:44:965,1.0967,2.4511,11.9484,45.8292,-0.0021,-0.0732,0.1416,253.6562
20:19:44:979,1.2439,2.2392,11.8155,43.318,0.0498,-0.1212,0.0614,253.4219
20:19:44:999,1.4905,1.7448,12.2165,45.1129,0.0011,-0.1816,0.009,253.2656
20:19:45:020,1.8293,1.1163,12.529,44.5238,-0.0463,-0.1193,0.0236,253.2344
20:19:45:049,2.3859,0.8673,12.1806,43.4801,-0.0905,0.0306,0.0763,253.2344
20:19:45:068,2.9294,1.1139,11.3163,43.0745,-0.2061,0.1572,0.0428,253.25
20:19:45:085,3.0982,1.2863,10.853,44.3296,-0.4192,0.0671,-0.1269,253.1875
20:19:45:098,2.8253,0.8158,11.545,41.747,-0.5963,-0.2692,-0.3714,253.0938
20:19:45:119,2.192,-0.0281,12.6439,44.4197,-0.5768,-0.4695,-0.52,253.1094
20:19:45:138,1.9909,-0.7572,12.5625,42.309,-0.3361,-0.3254,-0.4781,253.3906
20:19:45:161,2.0041,-0.7871,10.6483,43.0229,-0.0109,-0.0682,-0.3346,253.9531
20:19:45:182,2.2626,-0.4339,8.1787,44.1231,0.0852,-0.0423,-0.1887,254.875
20:19:45:201,2.4817,0.3849,7.251,42.5506,-0.1542,-0.1688,-0.1359,255.2656
20:19:45:219,2.6481,0.9296,8.1296,40.7146,-0.4991,-0.187,-0.2323,255.4688
20:19:45:239,2.0615,0.8757,9.2944,43.6828,-0.6698,0.0943,-0.402,255.6406
20:19:45:266,1.1134,0.8266,9.5697,41.7448,-0.6056,0.4996,-0.452,255.9375
20:19:45:283,0.6441,0.9296,8.8982,42.0824,-0.4218,0.7649,-0.3764,256.3594
20:19:45:298,0.3916,1.1522,8.1596,41.0792,-0.2013,0.7931,-0.2638,256.8281
20:19:45:319,0.4383,1.3533,7.4473,41.6909,0.0655,0.6544,-0.1341,257.1875
20:19:45:338,0.7519,1.7197,6.5818,41.1699,0.3084,0.4349,-0.043,257.4219
20:19:45:365,1.299,2.1338,5.9425,41.9767,0.4168,0.2208,-0.0358,257.5156
20:19:45:383,1.7227,2.3936,5.6097,40.0109,0.3587,0.1145,-0.1402,257.5312
20:19:45:400,1.3301,2.4535,6.4489,41.9445,0.1819,0.1452,-0.3026,257.5625
20:19:45:421,0.7471,2.2344,6.826,41.1829,-0.1835,0.5308,-0.5791,257.7188
20:19:45:438,-0.1603,2.0309,6.8942,42.6306,-0.3332,0.6826,-0.623,257.7188
20:19:45:460,-0.7385,1.9339,7.0451,40.8401,-0.5268,0.6168,-0.5945,258.2812
20:19:45:484,-1.2616,1.5951,8.4193,41.0341,-0.8192,0.3545,-0.5447,259.125
20:19:45:501,-1.7106,0.9427,10.9057,38.5137,-1.0549,0.1824,-0.4028,260.3438
20:19:45:517,-2.1439,0.422,13.4879,40.5206,-1.0794,0.2243,-0.1594,260.3438
20:19:45:540,-1.8051,-0.0664,14.8035,39.664,-0.8804,0.351,0.1578,260.875
20:19:45:565,-0.8953,-0.1035,14.5736,40.6404,-0.6237,0.2916,0.4401,261.2188
20:19:45:581,0.0013,0.1814,14.3246,41.5118,-0.6226,0.0996,0.5741,261.3125
20:19:45:600,0.4502,0.1299,15.8725,40.0589,-0.861,0.0261,0.5482,261.0469
20:19:45:618,0.6645,-0.4699,18.0692,39.0244,-0.8383,0.1822,0.4633,260.5
20:19:45:638,0.6035,-1.0636,17.7926,39.064,-0.3164,0.4027,0.3916,259.7969
20:19:45:664,0.5616,-1.3761,14.4886,37.7529,0.2938,0.4368,0.3842,259.0938
20:19:45:682,0.7962,-1.4778,11.2014,39.6394,0.5121,0.2453,0.3184,258.4844
20:19:45:700,0.3928,-1.5377,9.3962,39.2756,0.4011,0.0365,0.1805,258.0312
20:19:45:717,-0.4033,-1.649,8.7737,39.0218,0.2429,-0.1294,0.1408,257.6094
20:19:45:738,-0.8474,-1.825,8.5989,39.2642,0.2589,-0.2605,0.2886,257.2031
20:19:45:763,-0.942,-1.4204,7.9273,40.4862,0.4253,-0.4256,0.5251,257.0781
20:19:45:782,-0.5386,-0.8924,7.0678,38.3589,0.5526,-0.5028,0.7355,256.8906
20:19:45:799,0.1138,-0.4675,6.1987,38.5773,0.5766,-0.3917,0.8633,256.4688
20:19:45:819,0.6908,-0.07,5.3152,38.6242,0.5361,-0.2687,0.8961,255.8281
20:19:45:839,0.9159,0.3741,4.7323,37.8449,0.4464,-0.2482,0.8473,254.9688
20:19:45:865,0.9255,0.5956,4.5958,37.6916,0.342,-0.338,0.7618,254.0156
20:19:45:881,0.7782,0.671,5.0088,38.0249,0.2437,-0.4128,0.6756,253.0938
20:19:45:900,0.8201,0.7464,5.2327,40.3115,0.1305,-0.4099,0.6103,252.2188
20:19:45:918,0.9614,1.157,5.6456,37.3065,-0.0538,-0.4021,0.5312,251.4375
20:19:45:941,0.9758,1.5796,6.8044,38.0251,-0.3121,-0.478,0.3909,250.7969
20:19:45:964,0.6537,1.7388,8.903,38.3656,-0.563,-0.518,0.2279,250.1562
20:19:45:981,0.5125,1.5784,11.4193,39.2269,-0.6551,-0.4421,0.1123,249.8906
20:19:45:999,0.5927,1.3438,13.3406,38.1264,-0.5388,-0.3076,0.0201,249.4531
20:19:46:018,0.7782,0.8625,14.1906,37.9133,-0.3031,-0.2138,-0.067,249.2188
20:19:46:038,0.8237,0.2843,14.5485,39.3228,-0.1174,-0.0983,-0.1042,249.0938
20:19:46:064,1.1362,-0.1466,14.4671,36.8702,0.0266,0.1004,-0.0664,249.1094
20:19:46:081,1.8065,-0.4004,13.5741,37.5045,0.1603,0.2788,-0.0113,249.2031
20:19:46:101,2.5188,-0.3525,12.1255,38.6367,0.2045,0.3097,-0.0169,249.3125
20:19:46:118,2.7056,-0.4028,11.3391,38.2347,0.0639,0.1428,-0.1026,249.3438
20:19:46:139,2.6709,-0.7524,12.3039,36.6277,-0.2266,-0.1617,-0.2297,249.3438
20:19:46:165,2.1369,-1.6239,14.7496,37.863,-0.372,-0.3345,-0.3503,249.3906
20:19:46:179,1.3433,-2.7072,15.9407,38.7236,-0.1206,-0.0234,-0.2752,249.5781
20:19:46:199,1.1122,-2.821,13.5908,38.7593,0.375,0.5646,0.0329,249.9219
20:19:46:218,1.8101,-2.0584,9.7493,37.9443,0.7318,0.7825,0.3613,250.2969
20:19:46:238,2.8444,-0.9427,6.9792,39.495,0.824,0.4701,0.4987,250.4531
20:19:46:262,3.4729,0.0245,5.6253,38.3229,0.7217,-0.0383,0.3964,250.2031
20:19:46:278,3.5759,0.6351,5.1525,38.6365,0.4983,-0.4202,0.1176,249.7031
20:19:46:297,3.1808,0.9535,5.2901,37.7409,0.2306,-0.5342,-0.2132,249.1719
20:19:46:318,2.4338,0.7751,5.818,37.6813,0.029,-0.4043,-0.5016,248.9219
20:19:46:338,1.4941,0.5417,6.249,38.5306,-0.062,-0.0796,-0.6683,249.2031
20:19:46:366,0.8405,0.6423,6.0491,38.7499,-0.0501,0.2722,-0.725,249.8125
20:19:46:427,0.3425,0.9248,5.3236,37.8794,-0.057,0.494,-0.737,250.5781
20:19:46:428,0.1426,1.1127,5.0902,38.1158,-0.1593,0.5065,-0.6907,251.3438
20:19:46:428,0.0348,1.2264,5.8049,37.4387,-0.2913,0.3167,-0.6254,252.1562
20:19:46:444,-0.0813,1.4264,7.3132,36.931,-0.3297,0.0895,-0.5287,252.8906
20:19:46:466,0.0013,1.6861,8.8754,38.0634,-0.2375,-0.0751,-0.4236,253.2344
20:19:46:482,0.1773,2.1578,10.3203,39.2269,-0.0724,-0.1646,-0.3607,253.8438
20:19:46:498,0.382,2.5121,11.3438,37.1041,0.1601,-0.1475,-0.381,254.3594
20:19:46:523,0.1198,2.5313,11.1643,37.0305,0.334,0.0133,-0.4558,254.7969
20:19:46:537,-0.3973,2.3493,10.6806,36.3782,0.2823,0.2666,-0.4771,255.2188
20:19:46:557,-0.8486,2.1075,10.8279,36.4049,0.0557,0.4802,-0.4094,255.7031
20:19:46:584,-0.9444,1.667,11.6048,36.7048,-0.1539,0.5398,-0.259,256.2656
20:19:46:600,-0.4261,1.078,12.6283,35.4007,-0.2565,0.3896,-0.0896,256.7656
20:19:46:621,0.4311,0.8242,13.6004,36.1918,-0.3244,0.1052,0.0223,257.1875
20:19:46:636,0.8369,0.7332,15.086,35.9572,-0.4301,-0.2855,-0.006,257.25
20:19:46:657,0.3473,-0.0485,17.4814,37.3514,-0.3784,-0.4812,-0.0606,257.1875
20:19:46:681,-0.1124,-1.1498,18.3086,34.9377,0.0903,-0.2929,0.0369,257.1875
20:19:46:699,-0.2728,-1.4455,15.3769,37.3419,0.7566,0.1683,0.2779,257.25
20:19:46:717,0.5448,-1.1199,10.6687,36.4964,1.0831,0.5164,0.4646,257.2344
20:19:46:740,1.1374,-0.6003,7.0846,36.4087,0.8938,0.4727,0.4529,256.9688
20:19:46:765,1.026,-0.1562,5.7498,33.5846,0.3904,0.0735,0.3576,256.4688
20:19:46:781,0.7052,-0.0796,6.5602,36.2975,-0.0953,-0.4357,0.2801,255.9844
20:19:46:799,0.8225,0.0676,8.4457,35.489,-0.1654,-0.8647,0.2305,255.6094
20:19:46:818,0.856,0.0712,7.5574,36.4779,0.0304,-0.7784,0.197,255.6094
20:19:46:843,0.5376,-0.0485,6.4453,35.5046,0.1175,-0.6317,0.2023,254.9062
20:19:46:864,0.0276,-0.0892,5.8348,35.5046,0.0948,-0.4637,0.319,254.7656
20:19:46:882,-0.1411,-0.0138,5.6432,34.4638,0.0346,-0.3222,0.5221,254.7656
20:19:46:898,0.1677,0.2065,5.7701,35.2997,-0.0176,-0.2551,0.7296,254.5938
20:19:46:918,0.8405,0.6434,6.3448,35.1607,-0.0482,-0.2365,0.8814,254.2812
20:19:46:938,1.6066,1.3043,6.9804,35.3767,-0.0391,-0.2575,0.9006,253.7344
20:19:46:964,2.1513,1.8765,7.7765,34.3251,-0.0013,-0.3329,0.7709,252.9219
20:19:46:984,2.2818,2.2188,8.7138,33.5646,0.0346,-0.3638,0.5469,251.9375
20:19:47:000,2.0364,2.2883,9.401,33.9387,0.0669,-0.2498,0.3051,250.9219
20:19:47:017,1.5707,2.0213,9.5997,34.2372,0.0687,-0.0865,0.1054,250.125
20:19:47:037,1.3205,1.6335,9.5314,34.79,-0.016,0.0099,-0.006,249.5312
20:19:47:057,1.378,1.1103,9.893,34.1963,-0.1656,-0.0365,-0.0608,249.2031
20:19:47:079,1.5575,0.3657,10.6819,33.9809,-0.3217,-0.184,-0.075,249.0938
20:19:47:096,1.9119,-0.3226,11.9149,35.0609,-0.429,-0.2831,-0.0174,249.1094
20:19:47:117,2.6385,-0.665,12.5721,33.0882,-0.4391,-0.2139,0.0438,249.1719
20:19:47:137,3.5639,-0.562,12.3458,30.8914,-0.4064,-0.1124,-0.0009,249.2812
20:19:47:157,4.403,-0.4208,11.5126,33.2519,-0.4469,-0.1755,-0.2358,249.2812
20:19:47:183,4.0703,-0.4675,11.7257,33.4385,-0.6802,-0.477,-0.6507,249.2812
20:19:47:200,2.7187,-1.1905,14.0134,31.5532,-0.9476,-0.5377,-0.9791,249.3906
20:19:47:216,1.8281,-2.214,15.7348,33.0652,-0.8562,-0.0072,-1.0209,249.9062
20:19:47:237,1.6533,-2.2823,13.8135,31.2342,-0.4149,0.6448,-0.8515,250.9219
20:19:47:263,2.2973,-1.7316,10.1958,32.6933,-0.0863,0.8256,-0.6374,252.1562
20:19:47:282,3.0838,-0.914,7.6711,30.545,-0.0924,0.5465,-0.5655,253.1875
20:19:47:298,3.2012,-0.1945,7.0127,30.2742,-0.3007,0.1156,-0.6869,254
20:19:47:317,2.3405,-0.0269,7.7537,30.1536,-0.5017,-0.0626,-0.863,254.625
20:19:47:338,1.2367,-0.0736,8.2948,30.3538,-0.5185,0.0932,-0.9184,255.2812
20:19:47:364,0.4598,-0.0629,7.9417,30.0014,-0.3912,0.3497,-0.8334,256.1719
20:19:47:378,0.1198,0.1897,7.3479,29.3715,-0.22,0.4402,-0.6467,257.2031
20:19:47:396,0.1306,0.5106,6.8631,30.5583,-0.0317,0.3726,-0.4329,258.1719
20:19:47:417,0.4718,0.9128,6.5985,30.1008,0.1457,0.1982,-0.2422,258.625
20:19:47:437,1.1517,1.4599,6.3759,30.6453,0.2541,0.0354,-0.1213,259.3594
20:19:47:456,1.9035,1.892,6.4489,29.3595,0.2234,-0.1379,-0.1346,259.6406
20:19:47:480,2.4171,2.074,7.506,29.9577,0.0613,-0.257,-0.2742,260.2031
20:19:47:498,2.2219,2.0058,9.5243,29.1258,-0.0969,-0.1931,-0.4427,260.3281
20:19:47:516,1.8568,1.5724,11.7485,29.2573,-0.0258,0.0144,-0.5461,260.5625
20:19:47:538,1.2714,1.0732,12.353,29.497,0.2701,0.2906,-0.5586,260.9531
20:19:47:565,0.8129,0.9068,11.3917,27.697,0.4954,0.5087,-0.459,261.5312
20:19:47:581,0.6346,1.0157,10.519,25.9693,0.4882,0.6325,-0.3359,262.1719
20:19:47:598,0.5939,1.2707,10.3239,27.7616,0.3124,0.6275,-0.2536,262.7344
20:19:47:617,0.5939,1.0277,11.0889,27.7889,0.1079,0.4866,-0.2273,263.2031
20:19:47:636,0.2671,0.2352,12.6319,27.9512,0.036,0.3287,-0.1764,263.5156
20:19:47:657,-0.1567,-0.3226,13.3909,27.3241,0.1467,0.3587,0.0028,263.7812
20:19:47:685,-0.1819,-0.0868,12.7241,28.2322,0.2946,0.4275,0.2513,264
20:19:47:699,0.2826,0.4603,11.6419,27.9849,0.3124,0.4671,0.3903,264.1094
20:19:47:717,0.528,0.8003,10.7896,27.691,0.1766,0.4746,0.3682,263.9531
20:19:47:739,0.3126,0.7608,10.4508,26.5482,0.0301,0.3212,0.2755,263.5781
20:19:47:764,0.1019,0.3585,10.4197,28.9149,-0.0362,-0.0463,0.1959,262.9219
20:19:47:781,0.297,-0.3765,10.7513,27.5832,-0.0527,-0.4828,0.1602,262.5938
20:19:47:798,0.6944,-0.8853,11.0649,26.9391,-0.0511,-0.8551,0.1157,262.375
20:19:47:816,0.9638,-1.0253,11.3355,28.6992,-0.0908,-1.0091,0.0561,262.2188
20:19:47:837,1.038,-1.0948,11.3486,28.6615,-0.1419,-0.8029,-0.0142,262.125
20:19:47:857,0.631,-1.06,10.8411,26.7663,-0.167,-0.3278,-0.0382,262.0938
20:19:47:879,0.2048,-0.8733,9.9337,29.4793,-0.0929,0.1151,0.0313,262.1406
20:19:47:902,0.0899,-0.5812,8.9748,29.4746,0.0991,0.3313,0.1714,262.1719
20:19:47:917,0.2264,-0.3382,8.1572,28.1152,0.3872,0.3614,0.324,262.2031
20:19:47:937,0.1677,-0.1766,7.1564,28.6798,0.7132,0.2621,0.4702,262.0781
20:19:47:958,-0.2178,0.0245,5.7953,27.5848,0.9385,0.0839,0.6303,261.7969
20:19:47:981,-0.2597,0.5202,5.004,29.2842,0.9729,-0.0871,0.8212,261.3438
20:19:47:999,0.631,1.1307,4.9633,29.6692,0.8528,-0.163,0.9131,260.75
20:19:48:017,1.5671,1.3007,5.1668,28.0801,0.632,-0.184,0.7964,260
20:19:48:038,1.9873,1.3569,5.3978,30.3215,0.3247,-0.1158,0.5975,258.5312
20:19:48:066,1.8472,1.5928,5.9473,28.5929,-0.0218,-0.0405,0.3874,257.7031
20:19:48:083,1.2918,1.7496,6.9744,28.6933,-0.3342,-0.0578,0.1892,257.0312
20:19:48:100,0.9303,1.5808,8.5223,28.1112,-0.5555,-0.1084,0.0532,256.5938
20:19:48:117,0.9674,1.1881,9.887,28.3061,-0.6831,-0.1526,-0.0254,256.375
20:19:48:137,0.9698,0.6662,11.3379,29.7477,-0.7502,-0.2525,-0.0534,256.3125
20:19:48:157,1.2631,0.1395,12.7253,28.0084,-0.6935,-0.3571,-0.0185,256.3438
20:19:48:181,1.5791,-0.2975,13.5034,29.078,-0.5571,-0.4237,0.0191,256.4062
20:19:48:198,2.6685,-0.6674,12.6367,29.659,-0.4786,-0.1299,0.0691,256.4219
20:19:48:218,2.927,-0.4818,12.2357,29.1607,-0.6962,-0.1883,-0.0576,256.4219
20:19:48:237,2.9294,-0.8769,13.9811,28.1059,-1.0112,-0.4328,-0.2856,256.2812
20:19:48:265,1.797,-1.7867,17.1378,28.2323,-1.0051,-0.3491,-0.4036,256.3438
20:19:48:282,1.1841,-2.724,17.5795,30.1194,-0.4501,0.1659,-0.2347,256.6719
20:19:48:299,1.5156,-2.7683,14.1977,27.713,0.293,0.6357,0.1727,257.1406
20:19:48:318,2.6756,-1.6813,9.9193,29.4858,0.739,0.6333,0.545,257.3125
20:19:48:337,3.771,-0.2951,7.2522,29.1615,0.8035,0.2219,0.5826,257.3906
20:19:48:364,4.0128,0.6315,6.2238,29.1277,0.6392,-0.1395,0.3179,257.1875
20:19:48:383,3.5782,0.9164,5.7618,31.3035,0.3934,-0.1502,-0.047,256.5625
20:19:48:399,2.872,0.9786,5.3667,29.8979,0.1249,0.1497,-0.3663,255.9219
20:19:48:417,2.0627,0.9104,4.919,28.0629,-0.1808,0.6301,-0.6129,255.5781
20:19:48:496,1.1541,0.8015,4.8532,30.9968,-0.5316,1.1862,-0.7511,255.6562
20:19:48:496,0.2096,0.6853,5.6026,29.4426,-0.837,1.7361,-0.7562,256.0625
20:19:48:497,-0.444,0.6626,7.0534,29.8269,-0.886,2.0496,-0.6273,256.7031
20:19:48:497,-1.0905,0.7129,8.3667,31.6954,-0.571,1.9172,-0.4334,257.5
20:19:48:521,-1.1348,0.8134,9.0083,31.2684,0.0336,1.3271,-0.1516,258.25
20:19:48:536,-0.3231,1.1127,8.6935,29.3664,0.6866,0.4434,0.0974,258.8281
20:19:48:557,0.4538,1.7663,7.9644,32.1916,1.0514,-0.4352,0.149,259.2344
20:19:48:582,0.9961,2.2033,8.1428,30.7762,0.9694,-0.9702,0.0036,259.3906
20:19:48:600,0.8836,1.9447,9.8271,30.8499,0.6373,-0.9587,-0.2281,259.3594
20:19:48:618,0.3006,1.394,11.4001,31.2942,0.3508,-0.482,-0.3687,259.375
20:19:48:639,-0.3447,1.1127,12.347,30.6249,0.2216,0.0413,-0.3461,259.6406
20:19:48:664,-0.6092,0.9451,12.59,31.1172,0.2597,0.3699,-0.218,260.0625
20:19:48:683,-0.3913,0.8601,11.9185,31.5171,0.3691,0.44,-0.0968,260.5312
20:19:48:699,-0.3985,0.9188,10.7621,31.6411,0.3523,0.3121,-0.0587,260.875
20:19:48:716,-0.7888,1.2181,10.3981,30.9986,0.1374,0.0879,-0.0158,261.0469
20:19:48:737,-0.5398,1.3354,11.0601,30.428,-0.1563,-0.0852,0.0428,261.1406
20:19:48:757,-0.2429,1.2528,12.0442,31.2564,-0.3656,-0.2434,-0.0028,261.2031
20:19:48:781,-0.4704,0.6794,13.2891,30.3615,-0.3768,-0.535,-0.1176,261.1719
20:19:48:801,-0.9348,-0.4459,14.0361,28.9786,-0.1465,-0.719,-0.1793,261.125
20:19:48:817,-1.0653,-1.236,12.9551,30.2198,0.1209,-0.6261,-0.1178,261.1719
20:19:48:837,-0.7577,-1.0181,10.9775,28.3792,0.1292,-0.4109,-0.0158,261.3594
20:19:48:858,-0.1423,-0.7464,9.8259,29.8355,-0.0842,-0.2889,-0.0294,261.5781
20:19:48:883,-0.1735,-0.6913,9.8199,30.6897,-0.3092,-0.2724,-0.1098,261.6562
20:19:48:901,-0.3087,-0.671,10.6531,31.8107,-0.3414,-0.2716,-0.0401,261.7031
20:19:48:917,-0.0681,-0.4818,10.9751,30.0271,-0.0426,-0.2272,0.1432,261.7969
20:19:48:938,0.0229,-0.3621,9.8068,29.6578,0.4453,-0.1177,0.3174,261.9062
20:19:48:963,0.0755,-0.1921,7.4796,29.6578,0.8235,0.1081,0.4862,261.8438
20:19:48:980,0.1474,0.161,5.2554,29.6578,0.9066,0.3028,0.6044,261.5938
20:19:48:999,0.1964,0.5213,4.0116,30.688,0.7523,0.371,0.662,261.2031
20:19:49:016,0.3652,0.8027,3.5926,28.4139,0.4967,0.2879,0.6926,260.6094
20:19:49:036,0.6082,1.2216,4.0523,30.6319,0.2149,0.0714,0.6827,259.9062
20:19:49:057,0.9865,1.4946,5.2638,30.688,0.0109,-0.2352,0.6063,259.1875
20:19:49:081,1.123,1.5544,6.8092,30.9796,-0.0698,-0.5875,0.451,258.4062
20:19:49:099,0.8776,1.4742,8.2637,30.6453,-0.0591,-0.8341,0.291,257.6562
20:19:49:116,0.7124,1.4012,9.3555,29.0787,-0.0272,-0.9188,0.1664,257.0781
20:19:49:136,0.7327,1.2755,9.966,29.3509,-0.0636,-0.8751,0.0414,256.75
20:19:49:157,0.947,0.902,10.8219,28.9507,-0.2194,-0.8061,-0.0949,256.5781
20:19:49:181,1.2092,0.264,12.1722,29.9928,-0.3979,-0.6727,-0.211,256.5312
20:19:49:199,1.2104,-0.4914,13.3035,31.5227,-0.4876,-0.4679,-0.2752,256.75
20:19:49:216,1.2343,-1.175,13.6686,29.5279,-0.4666,-0.1734,-0.2393,257.0469
20:19:49:236,1.6114,-1.3988,12.8797,30.7432,-0.4346,0.0988,-0.1461,257.3906
20:19:49:256,2.2171,-1.1043,12.0465,29.7717,-0.5161,0.1342,-0.129,257.6562
20:19:49:281,2.69,-0.8936,12.2345,30.1616,-0.7518,-0.0194,-0.2888,257.8125
20:19:49:301,2.1932,-1.3366,14.1487,28.9775,-0.9196,-0.1009,-0.5024,257.9375
20:19:49:317,1.208,-2.1314,15.2763,30.2166,-0.7044,0.2152,-0.5053,258.25
20:19:49:337,1.044,-2.3337,13.4507,29.7144,-0.2066,0.6919,-0.2201,258.8125
20:19:49:357,2.1346,-1.6694,9.9552,30.8665,0.1771,0.8269,0.1118,259.375
20:19:49:382,3.5663,-0.4447,7.3719,28.6618,0.2277,0.4679,0.1434,259.5469
20:19:49:398,3.7123,0.6111,6.7733,29.368,0.0165,-0.0849,-0.1879,259.5625
20:19:49:415,2.842,0.6219,7.5323,29.8591,-0.2429,-0.2932,-0.6028,259.3281
20:19:49:436,1.5707,0.0664,8.1212,30.251,-0.4011,-0.0008,-0.8577,259.3281
20:19:49:456,0.2778,-0.228,7.9237,28.9628,-0.4375,0.5271,-0.8633,259.7656
20:19:49:484,-0.6296,-0.0006,7.2976,29.8826,-0.3803,0.8943,-0.6712,260.625
20:19:49:496,-0.6739,0.4352,6.8356,31.8667,-0.2248,0.9207,-0.4036,262.0938
20:19:49:517,-0.2345,0.8757,6.4118,30.9109,-0.0032,0.7276,-0.2022,262.7812
20:19:49:536,0.1976,1.3916,5.9796,29.7657,0.1824,0.4594,-0.0909,263.2188
20:19:49:556,0.6454,1.8549,5.8312,30.0829,0.2541,0.1715,-0.0811,263.4375
20:19:49:583,0.7675,2.238,6.1927,29.0935,0.2075,-0.0983,-0.1772,263.5469
20:19:49:599,0.3126,1.9662,9.0215,29.5869,0.0474,-0.4969,-0.3785,263.6406
20:19:49:616,-0.0993,1.7208,10.7417,28.9142,0.0866,-0.5041,-0.3807,263.8594
20:19:49:635,-0.1423,1.5305,11.8813,29.1546,0.1907,-0.3598,-0.3202,263.8594
20:19:49:655,0.0588,1.2911,12.262,29.5851,0.2623,-0.1305,-0.2715,264.2344
20:19:49:681,0.1246,1.0864,12.4045,28.4061,0.2243,0.1089,-0.2246,265.1094
20:19:49:699,0.2814,0.7632,12.6894,30.584,0.1345,0.273,-0.1607,265.1094
20:19:49:718,0.5544,0.4447,12.9946,30.4641,0.0567,0.3864,-0.1152,265.8125
20:19:49:735,0.704,0.2508,13.0126,30.4641,-0.0162,0.4312,-0.1173,266.0781
20:19:49:755,0.3904,0.2316,12.8115,29.8581,-0.1124,0.4389,-0.1378,266.25
20:19:49:782,-0.1795,-0.0042,12.942,30.0142,-0.2213,0.3119,-0.1421,266.375
20:19:49:801,-0.9324,-0.3669,13.7464,30.1207,-0.2557,0.0474,-0.0646,266.4844
20:19:49:816,-1.5717,-1.0457,14.8537,29.4674,-0.0684,-0.1963,0.1243,266.625
20:19:49:836,-1.3909,-1.9818,14.424,29.4681,0.3508,-0.1848,0.4185,266.7656
20:19:49:856,-0.7972,-2.0728,11.8119,29.7728,0.6975,-0.0303,0.7139,266.8125
20:19:49:881,-0.0023,-1.3186,9.1998,30.3915,0.6762,-0.0447,0.8596,266.6719
20:19:49:899,0.3604,-0.6566,8.1308,28.8794,0.3558,-0.1928,0.8087,266.2188
20:19:49:917,0.297,-0.519,8.7497,29.1417,0.0386,-0.2881,0.7048,265.5
20:19:49:935,-0.2285,-0.4711,9.4632,27.7529,-0.021,-0.1582,0.6747,264.5625
20:19:49:955,-0.6032,-0.3633,8.9628,28.2436,0.1305,0.0991,0.7735,263.2656
20:19:49:980,-0.6487,-0.1,7.6101,28.3759,0.3388,0.278,0.9549,262.5469
20:19:49:999,-0.602,0.3226,6.2035,28.4665,0.5076,0.1814,1.1488,261.75
20:19:50:015,-0.1244,0.6231,5.5331,30.764,0.6179,-0.1217,1.3512,260.7656
20:19:50:035,0.8537,0.926,5.496,28.2187,0.7004,-0.4186,1.5254,259.5625
20:19:50:056,2.0136,1.4276,5.6061,29.9333,0.7529,-0.6187,1.5461,258.2344
20:19:50:081,2.781,2.0512,5.7941,28.8101,0.7212,-0.7041,1.3661,256.6406
20:19:50:099,3.1305,2.414,6.407,28.7059,0.5883,-0.673,1.0447,254.9375
20:19:50:116,2.9055,2.3924,7.2498,29.1981,0.4048,-0.5305,0.6755,253.4219
20:19:50:136,2.3979,2.22,8.2242,29.3625,0.2431,-0.3039,0.3647,252.1406
20:19:50:158,2.0938,2.1111,8.6659,28.411,0.1523,-0.1156,0.1157,251.2344
20:19:50:180,1.7335,1.9291,8.7641,29.9079,0.0509,-0.0591,-0.1258,250.7344
20:19:50:199,1.2834,1.643,9.1196,29.3719,-0.1281,-0.0919,-0.3173,250.4844
20:19:50:216,0.9231,1.2564,9.9588,29.5227,-0.3334,-0.2336,-0.4638,250.4688
20:19:50:236,0.4814,0.4531,11.5761,30.4387,-0.5057,-0.4264,-0.5399,250.6094
20:19:50:256,0.5005,-0.6183,13.4938,30.9138,-0.5505,-0.4405,-0.455,250.9688
20:19:50:282,1.3564,-1.3904,14.1367,30.4682,-0.4511,-0.2402,-0.2789,251.8438
20:19:50:298,2.6828,-1.2911,13.4412,29.8885,-0.3776,-0.0578,-0.178,252.4844
20:19:50:316,3.9027,-0.9655,12.5445,31.65,-0.4836,0.0456,-0.3165,252.9219
20:19:50:340,3.923,-1.1965,12.9695,29.7514,-0.702,0.1201,-0.6462,253.1719
20:19:50:355,3.0623,-2.1398,13.7237,30.6002,-0.7619,0.4637,-0.8771,253.4219
20:19:50:375,2.1872,-2.7671,12.432,30.567,-0.5987,1.0373,-0.8518,253.9219
20:19:50:401,1.8293,-2.4128,9.4859,31.1248,-0.4543,1.4253,-0.6337,254.7969
20:19:50:418,2.0352,-1.3533,7.1348,30.7005,-0.5047,1.2714,-0.4459,255.7656
20:19:50:434,2.21,-0.4699,6.5375,30.9552,-0.6642,0.7028,-0.4347,256.5312
20:19:50:456,1.7826,-0.0365,7.4832,31.1028,-0.7441,0.1926,-0.512,256.9844
20:19:50:485,1.1266,0.0401,7.9991,31.3447,-0.6314,0.0927,-0.5194,257.375
20:19:50:498,0.5616,0.3154,7.3324,31.7959,-0.4597,0.2554,-0.4371,257.8594
20:19:50:559,0.4131,0.7656,6.3112,31.0463,-0.3694,0.3846,-0.3226,258.375
20:19:50:567,0.4395,1.2528,5.8372,33.0063,-0.3467,0.3984,-0.2528,258.8906
20:19:50:567,0.4814,1.7328,5.6456,32.2933,-0.3454,0.3516,-0.2457,259.2969
20:19:50:587,0.4215,2.1147,5.8168,32.1702,-0.367,0.2557,-0.2931,259.6875
20:19:50:600,0.358,2.2045,6.5938,30.58,-0.4072,0.098,-0.3735,259.9375
20:19:50:617,-0.0298,2.0896,7.9728,32.1921,-0.4184,-0.0391,-0.4529,260.2344
20:19:50:635,-0.5697,1.9399,9.3997,32.7287,-0.3515,-0.1675,-0.4752,260.5938
20:19:50:656,-0.9372,1.6335,10.962,31.7065,-0.2157,-0.347,-0.4398,260.8281
20:19:50:684,-1.118,1.2348,12.6415,32.4393,-0.0402,-0.4264,-0.3495,261.3438
20:19:50:700,-1.1048,0.9332,13.7991,32.1391,0.1926,-0.2919,-0.2177,261.8438
20:19:50:717,-0.8055,0.7883,13.653,32.7593,0.4189,-0.0554,-0.1034,262.2656
20:19:50:735,-0.6535,0.7703,13.0952,33.3273,0.4858,0.1031,-0.0371,262.5938
20:19:50:756,-0.4991,0.5884,13.1539,33.7412,0.4392,0.1729,-0.0036,262.7969
20:19:50:783,-0.2968,0.1251,13.3262,32.5586,0.3827,0.2338,-0.0036,262.9375
20:19:50:799,-0.5302,-0.0066,13.1718,31.5997,0.2746,0.2847,0.0028,262.9688
20:19:50:816,-0.5793,0.1131,13.5968,31.1005,0.0882,0.2458,0.0372,263
20:19:50:835,-0.4548,-0.1024,14.9292,32.705,-0.0149,0.0746,0.0337,263.0156
20:19:50:856,-1.0677,-0.6686,16.4974,33.4867,0.1745,-0.0972,0.0383,262.9844
20:19:50:882,-1.6363,-1.4766,16.1538,32.2452,0.6714,0.0147,0.2004,262.9375
20:19:50:898,-1.4364,-1.6418,13.0126,32.7953,1.1337,0.2914,0.4859,262.9062
20:19:50:915,-0.9528,-0.89,9.389,33.1229,1.216,0.2533,0.6819,262.75
20:19:50:939,-0.6667,0.0976,7.9477,32.7227,0.9265,-0.1944,0.7224,262.2812
20:19:50:964,0.3963,0.3238,10.1204,30.7303,0.4887,-0.7326,0.5637,260.8906
20:19:50:977,0.7016,0.4016,9.7266,32.1072,0.6378,-0.5968,0.4633,260.8906
20:19:51:001,0.6082,0.3346,8.205,32.0997,0.8115,-0.3558,0.3858,260.2344
20:19:51:018,0.3712,0.2903,6.4704,30.2606,0.8834,-0.0828,0.4146,259.25
20:19:51:037,0.37,0.4627,5.2398,31.625,0.8639,0.0658,0.5461,259.0625
20:19:51:057,0.8453,0.8841,4.5742,30.6418,0.8011,0.0424,0.6918,259.0625
20:19:51:082,1.5731,1.5437,4.6904,28.8393,0.7028,-0.0756,0.7182,258.4688
20:19:51:099,2.125,2.0788,5.3308,30.5998,0.5995,-0.221,0.5621,257.8906
20:19:51:116,2.0496,2.2069,6.5686,30.7075,0.4772,-0.3326,0.2963,257.1719
20:19:51:135,1.3947,1.8633,8.4864,30.7075,0.4061,-0.3092,0.0856,256.3906
20:19:51:160,0.6441,1.5556,10.1958,32.2881,0.4639,-0.11,0.0129,255.5469
20:19:51:182,0.1438,1.5101,10.7992,30.4777,0.6432,0.2061,0.0553,255.5469
20:19:51:201,0.3401,1.667,9.9851,30.2198,0.8171,0.384,0.1432,255.5156
20:19:51:217,0.8848,2.1266,9.134,29.6997,0.8152,0.2552,0.1669,255.5469
20:19:51:234,1.5252,2.6235,9.6332,29.8997,0.6836,-0.1582,0.0649,255.4688
20:19:51:255,2.0017,2.4882,11.0266,29.3565,0.5721,-0.4879,-0.1548,255.2812
20:19:51:282,2.028,1.7089,11.8407,28.8423,0.5537,-0.5262,-0.3508,255.0938
20:19:51:300,1.6677,0.9607,11.2984,29.4059,0.5209,-0.3409,-0.4225,255.0781
20:19:51:315,1.8951,0.7751,10.0139,28.8877,0.3127,-0.0959,-0.3804,255.3594
20:19:51:334,2.5021,0.9631,9.146,29.4762,-0.1446,0.0085,-0.4108,256.1875
20:19:51:355,2.8313,1.1139,10.4089,29.1545,-0.7606,-0.065,-0.5903,256.7031
20:19:51:374,2.2016,0.4268,13.3071,29.0727,-1.1838,0.1095,-0.8161,257.125
20:19:51:399,1.0691,-0.2783,14.6467,28.8586,-1.0796,0.6152,-0.8569,257.6719
20:19:51:419,0.6118,-0.4495,12.3027,28.77,-0.6469,1.1084,-0.6483,258.4531
20:19:51:436,1.0655,0.0964,8.9161,28.2646,-0.3867,1.1068,-0.3551,259.2969
20:19:51:455,1.8963,1.0205,7.2126,29.6038,-0.3515,0.6075,-0.214,259.9844
20:19:51:483,2.271,1.7819,7.166,30.617,-0.3513,-0.0253,-0.3144,260.3125
20:19:51:500,1.9993,1.837,7.5227,29.5266,-0.2581,-0.3491,-0.5242,260.4219
20:19:51:517,1.2523,1.5688,6.9098,30.2738,-0.1374,-0.2695,-0.6811,260.625
20:19:51:536,0.4406,1.4599,5.9449,28.6395,-0.0959,-0.0487,-0.7104,261.1094
20:19:51:555,-0.1004,1.6071,5.3871,30.7086,-0.1169,0.0906,-0.6403,261.8438
20:19:51:581,-0.2273,1.9483,5.2781,28.3519,-0.1126,0.11,-0.5399,262.6406
20:19:51:599,-0.0921,2.317,5.2566,27.8746,-0.0895,0.0626,-0.4955,263.4062
20:19:51:615,-0.1304,2.7204,5.429,29.0358,-0.0996,-0.0021,-0.5154,263.75
20:19:51:636,-0.4117,2.8784,6.1101,28.9658,-0.1758,-0.054,-0.5583,264.3438
20:19:51:655,-0.8127,2.9934,7.1265,29.3387,-0.225,-0.0652,-0.5413,265.1406
20:19:51:675,-0.8427,3.0795,7.9249,28.7844,-0.2037,-0.0402,-0.4725,265.75
20:19:51:700,-0.7146,3.222,8.6336,29.1983,-0.1933,-0.0138,-0.4142,266.3594
20:19:51:716,-0.6391,3.3046,9.4165,29.8742,-0.2139,0.0296,-0.3801,266.9219
20:19:51:735,-0.8893,3.2867,9.9959,29.1227,-0.2458,0.127,-0.3602,267.4062
20:19:51:755,-1.379,2.9754,10.4305,27.0492,-0.2964,0.2032,-0.2792,267.8438
20:19:51:775,-1.4687,2.6797,11.1056,29.3502,-0.3369,0.1691,-0.0976,268.2188
20:19:51:799,-1.0593,2.5002,12.0202,28.702,-0.3209,0.028,0.1078,268.5469
20:19:51:817,-0.1519,2.1446,12.5613,26.7437,-0.2453,-0.139,0.2409,268.7188
20:19:51:835,0.7746,1.8441,12.8043,29.8707,-0.2013,-0.3715,0.2468,268.6719
20:19:51:854,1.1852,1.7041,13.4866,28.4384,-0.1513,-0.7023,0.1624,268.4375
20:19:51:874,0.7076,1.4706,14.3725,28.0824,0.0538,-1.281,0.0513,268.1406
20:19:51:899,-0.3447,1.0433,15.3517,29.1254,0.4149,-1.8948,0.0494,267.9219
20:19:51:916,-0.62,0.7272,15.5169,27.5693,0.7156,-1.8613,0.206,267.9062
20:19:51:939,-0.1806,0.8015,14.1666,26.8024,0.7574,-1.0708,0.3927,268.0625
20:19:51:954,0.3569,1.2492,11.9149,27.5363,0.5294,-0.1811,0.5051,268.1406
20:19:51:980,0.6214,1.6131,10.3682,29.8257,0.1739,0.1843,0.5251,267.8281
20:19:52:007,0.9362,1.7089,10.3203,27.9906,-0.1047,0.0772,0.5157,267.2969
20:19:52:015,0.9841,1.7831,11.1367,28.5678,-0.1353,-0.0301,0.5019,266.6719
20:19:52:037,0.5915,1.7615,10.7405,27.5999,0.094,0.1489,0.5291,266.0938
20:19:52:055,0.7351,1.8992,9.0682,27.7354,0.3246,0.5622,0.7032,265.5312
20:19:52:074,2.1525,2.5097,7.4617,28.5091,0.3401,1.1968,0.9064,264.9062
20:19:52:100,4.0942,3.4411,6.3376,28.2679,0.208,1.8983,0.8529,264.5
