Time,Acc_X,Acc_Y,Acc_Z,Meg,Gyr_X,Gyr_Y,Gyr_Z,Ore
12:46:19:885,-3.2704,0.8063,8.6097,53.6999,0.3036,-0.0374,-0.0738,173.0781
12:46:19:896,-3.2692,0.8685,8.3152,55.1837,0.1726,0.0361,-0.0667,173.0781
12:46:19:919,-3.3769,0.8673,8.211,54.8184,0.028,0.0617,-0.0746,181.8438
12:46:19:936,-3.6032,0.8493,8.5761,54.7696,-0.0985,0.0601,-0.0587,181.9688
12:46:19:966,-3.578,0.8134,8.7665,54.3545,-0.1619,0.0111,-0.0222,182.0625
12:46:19:983,-3.4679,0.8074,8.6073,56.4868,-0.1699,-0.2291,-0.0408,182.125
12:46:19:997,-3.5876,0.7739,8.454,54.7543,-0.192,-0.4755,-0.0517,182.125
12:46:20:017,-3.3446,0.8529,8.6923,54.6456,-0.2589,-0.5069,-0.0318,182.1562
12:46:20:035,-3.08,0.6865,9.3627,56.0091,-0.3081,-0.1836,-0.0182,182.2031
12:46:20:054,-3.1399,0.5273,9.5195,56.0073,-0.2996,0.1328,0.0138,182.2031
12:46:20:082,-3.3075,0.5656,9.3842,56.3544,-0.2224,0.1733,0.062,182.1719
12:46:20:093,-3.2141,0.6207,9.0849,55.2146,-0.0967,0.009,0.0657,182.0938
12:46:20:121,-3.0585,0.7225,8.97,55.9463,0.0413,-0.2558,0.0316,181.9688
12:46:20:132,-2.7664,0.7632,9.1747,55.1694,0.1696,-0.366,-0.0232,181.875
12:46:20:159,-2.5892,0.7153,9.4776,56.8549,0.2751,-0.3101,-0.0728,181.8594
12:46:20:184,-2.5892,0.6063,9.5997,57.3149,0.3574,-0.1729,-0.0978,181.9375
12:46:20:192,-2.6994,0.5237,9.4429,56.6184,0.3952,-0.0302,-0.0768,182.0781
12:46:20:217,-2.8143,0.5692,9.1304,56.3546,0.3691,0.0289,-0.0347,182.25
12:46:20:234,-2.8406,0.6877,8.7605,54.3541,0.2967,-0.0036,0.0183,182.4219
12:46:20:257,-2.7832,0.841,8.5175,54.593,0.2032,-0.0635,0.0561,182.4844
12:46:20:280,-2.6599,1.0553,8.4971,55.6121,0.1185,-0.1178,0.0553,182.5469
12:46:20:294,-2.5437,1.1845,8.6037,55.9778,0.0687,-0.1317,0.0239,182.5469
12:46:20:313,-2.4923,1.2468,8.6827,54.7859,0.0445,-0.112,-0.0251,182.5
12:46:20:332,-2.3797,1.3066,8.4564,54.4825,0.0091,-0.1524,-0.0856,182.5
12:46:20:357,-2.4168,1.3438,8.2733,56.4055,-0.0487,-0.2763,-0.1535,182.5312
12:46:20:370,-2.7101,1.1271,8.3487,55.19,-0.089,-0.3735,-0.1553,182.5312
12:46:20:393,-2.8765,0.8625,8.4241,55.0717,-0.1129,-0.418,-0.0872,182.6406
12:46:20:415,-2.667,0.7991,8.393,53.5666,-0.1694,-0.4121,-0.0243,182.8281
12:46:20:432,-2.3761,0.8434,8.7294,55.1543,-0.2613,-0.3956,-0.0161,183
12:46:20:450,-2.2169,0.8111,9.474,54.8122,-0.3228,-0.2986,-0.0509,183.0938
12:46:20:470,-2.2277,0.6267,9.9684,56.1222,-0.3063,-0.1346,-0.072,183.125
12:46:20:490,-2.3678,0.5525,10.0785,55.2459,-0.2312,-0.0219,-0.0541,183.1094
12:46:20:514,-2.4635,0.6219,9.8978,55.6918,-0.1374,0.0159,-0.0232,183.1406
12:46:20:531,-2.4767,0.7907,9.4919,55.1911,-0.0583,0.0167,-0.0137,183.1719
12:46:20:549,-2.4444,0.9715,9.1149,54.8054,-0.0234,-0.002,-0.0216,183.2031
12:46:20:570,-2.3977,1.1091,8.8263,56.0295,-0.0498,-0.0294,-0.0509,183.2188
12:46:20:590,-2.5318,1.1163,8.8228,53.3578,-0.1025,-0.0486,-0.0637,183.2344
12:46:20:613,-2.7939,1.072,9.0179,55.616,-0.1222,-0.0294,-0.0339,183.25
12:46:20:630,-3.0166,1.0361,9.1998,52.8169,-0.0972,-0.0539,0.009,183.3125
12:46:20:650,-3.1267,1.0074,9.3507,53.4036,-0.0448,-0.1359,0.0306,183.3594
12:46:20:672,-3.1291,0.8817,9.5566,53.6542,0.0242,-0.2515,0.0258,183.3594
12:46:20:698,-3.2189,0.7859,9.7469,53.8345,0.1161,-0.3642,0.0375,183.3125
12:46:20:715,-3.2919,0.8158,9.9133,53.0055,0.24,-0.415,0.0798,183.2969
12:46:20:730,-3.0417,0.9798,9.7948,54.2141,0.3481,-0.4212,0.0982,183.2812
12:46:20:751,-2.6958,1.1402,9.4836,54.9,0.4008,-0.4345,0.0692,183.2656
12:46:20:772,-2.4216,1.3485,9.3686,53.581,0.4429,-0.4787,0.0197,183.2344
12:46:20:796,-2.0757,1.6885,9.6128,54.9759,0.5766,-0.4624,-0.0722,183.1875
12:46:20:814,-1.9284,1.9447,9.3243,55.1314,0.7484,-0.4286,-0.2406,183.1719
12:46:20:830,-2.4264,1.8178,8.7641,56.283,0.8493,-0.455,-0.3463,183.2188
12:46:20:851,-2.8131,1.576,8.3918,55.1703,0.841,-0.4989,-0.3335,183.3906
12:46:20:869,-2.8933,1.4862,8.0877,54.5434,0.7105,-0.4944,-0.2669,184.0469
12:46:20:892,-2.8478,1.5197,8.0829,53.0569,0.4914,-0.4781,-0.1905,184.5469
12:46:20:914,-2.7005,1.5856,8.1883,54.733,0.2509,-0.4267,-0.1276,185.0156
12:46:20:932,-2.4994,1.5927,8.3535,54.5873,0.0346,-0.4169,-0.0954,185.375
12:46:20:950,-2.3666,1.582,8.5546,54.9391,-0.1214,-0.4126,-0.0677,185.6094
12:46:20:970,-2.2385,1.5377,8.7473,57.2796,-0.1973,-0.4297,-0.0435,185.7812
12:46:20:991,-2.1331,1.4982,8.9628,57.2796,-0.1867,-0.4656,-0.0347,185.9219
12:46:21:012,-2.0613,1.4778,9.0215,55.2971,-0.1353,-0.4824,-0.027,186
12:46:21:030,-2.2373,1.5305,8.9053,54.9125,-0.0882,-0.4795,-0.0011,186.0781
12:46:21:051,-2.3019,1.4838,9.0442,54.9125,-0.0599,-0.513,0.0439,186.1406
12:46:21:070,-2.1882,1.4778,9.7421,54.056,-0.0557,-0.6177,0.1121,186.1875
12:46:21:091,-1.8745,1.5461,10.4891,54.9883,-0.0432,-0.6552,0.2055,186.2031
12:46:21:115,-1.2748,1.7508,10.8506,55.285,-0.0027,-0.5487,0.3011,186.1719
12:46:21:132,-0.6463,1.9579,10.9273,55.099,0.0432,-0.3754,0.3336,186.0469
12:46:21:157,-0.1926,2.0812,11.6743,53.5275,0.0802,-0.1948,0.2966,185.7969
12:46:21:169,0.0755,2.1398,12.1208,55.5618,0.2288,-0.0243,0.2367,185.3125
12:46:21:190,0.2132,2.3768,9.9684,55.75,0.5702,0.266,0.1717,184.9844
12:46:21:213,-0.0442,2.4786,7.8399,55.0735,0.6983,0.283,0.0356,184.7344
12:46:21:233,-0.4608,2.1937,7.385,56.1024,0.4432,0.0819,-0.1202,184.5312
12:46:21:250,-0.4584,1.8322,8.2266,56.5745,0.0325,0.0039,-0.1593,184.4844
12:46:21:273,-0.1531,1.4946,9.6942,55.2852,-0.29,0.0121,-0.0869,184.5312
12:46:21:298,0.1162,1.3497,10.3646,56.5944,-0.3723,0.0292,0.0127,184.7031
12:46:21:314,0.145,1.3749,9.7864,55.7539,-0.2764,0.1118,0.1009,184.8594
12:46:21:331,0.2898,1.4802,9.1077,57.1048,-0.2029,0.1189,0.1893,184.875
12:46:21:349,0.6753,1.6897,9.1711,54.8821,-0.2325,0.0574,0.2652,184.7969
12:46:21:370,0.9626,1.8741,9.4895,57.0881,-0.2964,-0.0004,0.2742,184.625
12:46:21:394,0.9039,1.8441,9.7673,54.3917,-0.3382,0.038,0.2143,184.3438
12:46:21:413,0.6968,1.6945,9.9995,56.8317,-0.3377,0.1006,0.1568,184.0156
12:46:21:431,0.3557,1.5293,10.0007,55.4098,-0.2684,0.164,0.1387,183.7344
12:46:21:450,0.2156,1.5185,9.6356,56.8107,-0.1686,0.2186,0.1691,183.5
12:46:21:470,0.4167,1.6873,9.0502,56.7614,-0.0892,0.2881,0.2327,183.2344
12:46:21:490,0.5448,1.8262,8.5773,56.4745,-0.0554,0.3165,0.2548,183.0156
12:46:21:514,0.3197,1.8824,8.2733,55.803,-0.0879,0.3413,0.222,182.7188
12:46:21:529,-0.3638,1.5269,8.8359,56.1204,-0.2221,0.4122,0.1845,182.4062
12:46:21:549,-0.8127,1.1702,9.8499,57.4252,-0.3979,0.6146,0.2426,182.1406
12:46:21:572,-0.5158,1.3485,10.8542,54.9398,-0.4969,0.8529,0.4348,181.8906
12:46:21:589,0.0827,1.9615,11.0099,57.4442,-0.4261,1.0393,0.6284,181.5469
12:46:21:611,0.4239,2.5732,9.6883,56.4824,-0.159,1.1538,0.675,180.9688
12:46:21:631,0.3952,2.8748,8.2697,56.3103,0.1129,1.0497,0.5411,180.1875
12:46:21:656,0.0923,2.8473,7.0858,55.8568,0.322,0.8313,0.3517,179.3281
12:46:21:668,-0.4991,2.7587,6.1915,58.4414,0.3872,0.6351,0.2031,178.6562
12:46:21:692,0.2934,2.6306,5.8396,57.5401,0.0594,0.4697,-0.1849,178.25
12:46:21:721,-2.4827,2.9431,6.4896,55.6088,-0.1894,0.5008,-0.3212,178.0156
12:46:21:741,-3.906,2.6642,7.1468,55.8847,-0.4573,0.4809,0.0361,177.9375
12:46:21:750,-3.2787,2.1015,8.3319,55.851,-0.6149,0.3301,0.2306,177.9375
12:46:21:828,-3.3625,2.4571,9.9109,56.2342,-0.6208,0.2324,0.348,178.375
12:46:21:829,-3.3769,2.4678,10.9524,57.373,-0.5028,0.3155,0.4423,177.8594
12:46:21:829,-3.6343,2.5241,11.0422,56.7896,-0.3534,0.4625,0.593,177.8594
12:46:21:830,-3.7097,2.663,10.8075,58.3413,-0.1979,0.4433,0.7693,177.3906
12:46:21:852,-3.3494,2.9227,10.6292,56.3666,-0.0541,0.3477,0.8766,176.7812
12:46:21:868,-2.8741,3.0017,10.4484,55.8139,0.0112,0.2414,0.8769,176.0312
12:46:21:889,-2.618,2.8437,10.44,57.5045,-0.0003,0.0923,0.8335,175.1406
12:46:21:909,-2.4935,2.6079,11.2624,55.7398,0.0527,-0.1261,0.8162,174.1094
12:46:21:932,-2.4923,2.5421,12.4715,56.7292,0.2693,-0.4012,0.7712,173.1094
12:46:21:950,-2.3714,2.4846,13.076,56.4863,0.4482,-0.464,0.6647,172.1406
12:46:21:969,-2.084,2.4571,12.9492,57.8344,0.3989,-0.1508,0.5065,171.2656
12:46:21:989,-1.9823,2.153,12.5098,55.4158,0.29,0.2968,0.3693,170.4531
12:46:22:015,-1.8542,1.7244,11.6539,56.9046,0.3028,0.6311,0.2726,169.7969
12:46:22:033,-1.7908,1.3246,10.1408,58.2353,0.4131,0.6652,0.2077,169.0938
12:46:22:050,-1.8542,1.1235,8.3056,56.5262,0.5017,0.4297,0.1704,168.7344
12:46:22:070,-1.7812,1.066,6.6428,58.1705,0.452,0.0558,0.1232,168.4688
12:46:22:090,-1.6459,1.2372,5.7797,57.1507,0.2509,-0.2965,0.0045,168.2812
12:46:22:114,-1.7177,1.3186,5.9054,57.9615,0.0045,-0.5383,-0.1463,168.1719
12:46:22:132,-2.0218,1.0062,6.8272,58.6294,-0.1838,-0.5415,-0.211,168.1562
12:46:22:150,-2.4707,0.6566,7.5754,57.982,-0.2402,-0.3711,-0.1362,168.2969
12:46:22:171,-2.9064,0.5202,7.6819,56.4952,-0.1859,-0.1764,0.0705,168.5781
12:46:22:191,-2.8275,0.7859,7.0403,57.9615,-0.1121,-0.0816,0.3038,168.8125
12:46:22:215,-2.3941,1.327,6.1233,56.7504,-0.118,-0.1461,0.4519,168.8438
12:46:22:232,-1.8063,1.8681,5.7594,55.4592,-0.1835,-0.2856,0.4828,168.625
12:46:22:249,-1.3993,2.1949,6.1077,55.3974,-0.224,-0.3642,0.4215,168.1719
12:46:22:270,-1.5729,2.3397,6.4597,58.0547,-0.2535,-0.3921,0.3507,167.9062
12:46:22:291,-2.0493,2.3661,6.6512,57.0314,-0.3254,-0.3479,0.3443,167.375
12:46:22:315,-2.5341,2.3864,6.8619,56.4567,-0.4503,-0.3008,0.4175,166.9062
12:46:22:332,-2.7281,2.6318,7.5323,57.6625,-0.5345,-0.2646,0.5179,166.5
12:46:22:349,-2.8215,2.9742,8.5773,55.2302,-0.5113,-0.2382,0.5904,166.1094
12:46:22:369,-2.8777,3.38,9.5362,56.3813,-0.42,-0.1924,0.6466,165.3125
12:46:22:389,-2.8251,3.7523,9.808,56.9948,-0.392,-0.1924,0.6447,164.6406
12:46:22:410,-2.8729,3.9522,10.634,56.9792,-0.4021,-0.403,0.5845,163.8906
12:46:22:430,-2.8454,2.0429,14.2648,57.0493,-0.2823,-0.6334,0.5477,163.1406
12:46:22:450,-1.7477,0.9403,14.9411,58.359,-0.0716,-0.6659,0.6814,162.4219
12:46:22:470,0.2551,0.7859,14.4467,58.0805,0.1622,-0.5282,0.9265,161.7812
12:46:22:490,2.2207,1.4216,13.1311,57.6356,0.3164,-0.3186,0.9925,161.1719
12:46:22:515,3.2538,2.0836,11.776,57.0499,0.2666,-0.0446,0.7206,160.2969
12:46:22:535,2.8768,1.9016,11.1355,56.3175,0.0394,0.1189,0.1286,159.1875
12:46:22:552,1.5839,0.5764,11.9843,57.6304,-0.2586,0.0771,-0.529,158.25
12:46:22:576,0.1929,-1.0672,13.082,57.4446,-0.4032,-0.0235,-0.9498,157.7344
12:46:22:588,-0.5589,-2.0069,12.3386,57.8666,-0.236,0.0036,-0.9852,157.9531
12:46:22:610,-0.2381,-1.7974,10.0558,56.5814,0.061,0.0995,-0.705,158.8281
12:46:22:632,0.7782,-0.9116,8.46,56.8686,0.2269,-0.023,-0.387,159.9062
12:46:22:648,1.5037,0.0976,7.9213,57.3748,0.2607,-0.325,-0.2733,161.25
12:46:22:669,1.4426,0.7452,7.7633,55.2795,0.2482,-0.5538,-0.3798,161.7188
12:46:22:690,0.9614,0.9319,7.1133,54.933,0.2663,-0.5873,-0.5737,162.0469
12:46:22:717,0.3437,0.9715,6.3723,57.5028,0.2583,-0.4808,-0.7324,162.5469
12:46:22:733,-0.1435,1.017,6.0072,56.8613,0.1949,-0.3556,-0.7953,162.875
12:46:22:751,-0.4105,1.1726,6.1269,55.8591,0.1057,-0.3024,-0.7697,163.6875
12:46:22:773,-0.4057,1.4072,6.5794,56.6057,0.0304,-0.276,-0.6901,164.5781
12:46:22:788,-0.1759,1.734,6.9936,55.6508,0.0027,-0.1942,-0.6086,165.5156
12:46:22:809,0.1115,2.2164,7.1277,56.8888,0.0317,-0.0992,-0.5679,166.375
12:46:22:831,0.3389,2.5983,7.4281,58.0346,0.0634,-0.0496,-0.5942,167.1094
12:46:22:851,0.3712,2.8737,7.6915,55.724,0.0927,-0.0515,-0.6768,167.7812
12:46:22:869,0.1246,3.0604,7.9333,57.1059,0.1044,-0.0736,-0.8017,168.4375
12:46:22:887,-0.4464,3.052,8.7701,56.4526,0.0248,-0.0986,-0.9207,169.5469
12:46:22:908,-0.8678,2.8808,10.2904,55.9883,-0.0645,-0.1096,-0.9692,170.4688
12:46:22:930,-1.1551,2.6342,11.4612,54.4825,-0.0522,-0.0099,-0.93,171.5312
12:46:22:956,-1.5358,2.7013,11.5354,56.7778,0.0858,0.202,-0.8323,172.5938
12:46:22:968,-1.6052,2.9024,10.9177,55.5694,0.2155,0.3509,-0.681,173.6562
12:46:22:990,-1.7728,2.9574,10.9715,55.7373,0.2027,0.2843,-0.5625,174.5938
12:46:23:014,-1.7812,2.657,12.365,55.7373,0.0732,0.0944,-0.4731,175.375
12:46:23:032,-1.95,2.2667,13.2831,53.3892,0.0072,0.0167,-0.3838,175.9688
12:46:23:049,-2.3151,2.3038,13.3454,53.6145,0.02,0.1392,-0.2685,176.5156
12:46:23:070,-2.5198,2.1853,13.27,54.4723,0.025,0.2705,-0.1465,176.9375
12:46:23:088,-2.5605,1.5796,13.5262,54.3422,0.0402,0.2814,-0.0741,177.2344
12:46:23:110,-3.1267,0.6817,13.0868,54.362,0.1883,0.2044,-0.0344,177.375
12:46:23:131,-3.5002,0.0054,11.685,52.6945,0.6245,-0.1213,0.3869,177.4375
12:46:23:150,-2.8909,-0.0497,10.0965,53.049,0.6029,-0.3602,0.6585,177.4375
12:46:23:170,-1.7285,0.5489,9.2214,52.7664,0.4642,-0.6188,0.7209,177.4062
12:46:23:189,-0.9971,1.1091,9.0634,53.201,0.3332,-0.7943,0.6157,177.4062
12:46:23:215,-0.8175,1.1247,8.9053,51.118,0.2312,-0.8339,0.5347,176.3438
12:46:23:233,-0.7636,0.9308,8.6599,52.8375,0.1963,-0.7112,0.5456,175.6562
12:46:23:249,-0.8187,1.0469,8.0817,52.0675,0.2517,-0.4939,0.6351,175.0625
12:46:23:268,-0.444,1.2659,7.0151,52.8425,0.2953,-0.2781,0.7067,174.5469
12:46:23:288,0.1078,1.6514,6.0634,50.7528,0.2429,-0.109,0.695,174.0312
12:46:23:309,0.5819,2.0201,5.7402,49.6046,0.1545,0.0231,0.5989,173.375
12:46:23:330,0.5675,2.2727,5.7271,50.3947,0.0858,0.1123,0.4812,172.6094
12:46:23:348,0.3724,2.4606,5.8085,51.3164,0.0386,0.1597,0.3933,171.875
12:46:23:368,0.315,2.6366,6.1161,49.2073,-0.013,0.1869,0.3227,171.1875
12:46:23:389,0.443,2.8078,6.5507,49.8731,-0.0469,0.164,0.2388,170.625
12:46:23:410,0.5687,3.0784,7.0582,49.9941,-0.0463,0.0271,0.1158,170.1562
12:46:23:433,0.54,3.2807,7.7897,50.8147,0.0266,-0.141,-0.0166,169.7812
12:46:23:449,0.2575,3.1131,8.3271,48.8021,0.1039,-0.2454,-0.0302,169.4844
12:46:23:469,0.552,2.9179,8.375,48.0978,0.0415,-0.1865,0.0668,169.3438
12:46:23:489,1.366,3.1909,8.4337,48.884,-0.172,-0.2153,0.091,169.4219
12:46:23:515,1.9669,3.4961,10.2341,49.7963,-0.2429,-0.4278,-0.04,169.4375
12:46:23:534,1.633,3.2376,12.5146,47.3389,-0.0629,-0.6198,-0.1942,169.3438
12:46:23:550,0.8632,2.3577,13.8099,47.8122,0.1856,-0.492,-0.1724,169.3438
12:46:23:569,0.7615,1.552,13.2879,47.0822,0.265,-0.1495,-0.0499,169.5625
12:46:23:590,1.6306,1.5784,11.8682,47.1748,0.1065,0.0774,-0.097,169.875
12:46:23:616,2.8887,2.0058,10.8183,47.3,-0.2237,0.0667,-0.5085,170.0312
12:46:23:632,3.1617,2.0417,11.2565,47.2678,-0.4764,-0.1176,-1.1719,170.0781
12:46:23:649,2.1453,0.6363,12.5362,45.925,-0.4285,-0.2161,-1.7066,170.3438
12:46:23:669,0.3365,-1.2013,12.9719,49.3681,-0.1643,-0.0864,-1.7831,170.7188
12:46:23:689,-0.9504,-2.1662,11.4827,46.0102,0.07,0.1107,-1.4613,172
12:46:23:715,-0.9791,-1.7268,8.8682,46.6057,0.0559,0.0604,-1.0789,173.9844
12:46:23:734,0.0193,-0.6794,6.82,45.716,-0.2253,-0.256,-0.9591,176.0312
12:46:23:750,1.0033,0.155,6.7781,48.1144,-0.5518,-0.545,-1.0723,177.7031
12:46:23:769,1.3217,0.4004,7.8004,47.5191,-0.7172,-0.5458,-1.2462,179.4219
12:46:23:793,0.8728,0.5908,8.3894,46.6037,-0.7369,-0.3285,-1.3498,180.5938
12:46:23:817,0.2886,0.6818,8.5654,45.7038,-0.6336,0.0036,-1.3586,181.9219
12:46:23:833,-0.9504,0.6506,6.893,46.7766,-0.5372,0.3,-1.2528,183.4531
12:46:23:894,-0.9959,1.0792,6.0527,45.5519,-0.4943,0.512,-1.0259,185.0312
12:46:23:901,-0.638,1.7412,5.2267,47.1376,-0.47,0.6092,-0.7937,186.5312
12:46:23:901,-0.189,2.4654,5.3739,45.8524,-0.5039,0.4801,-0.6547,187.75
12:46:23:913,0.0205,2.8796,6.3591,45.9618,-0.5249,0.1861,-0.6408,188.7188
12:46:23:932,-0.3542,3.0245,7.4868,45.7549,-0.4434,-0.1817,-0.7215,189.4844
12:46:23:950,-1.2509,2.8353,8.9269,44.3698,-0.3308,-0.4888,-0.803,190.1406
12:46:23:968,-2.1583,2.3278,10.707,45.7425,-0.257,-0.6505,-0.7881,190.8906
12:46:23:988,-2.7401,1.9662,12.2896,46.0792,-0.1939,-0.5173,-0.6126,191.7812
12:46:24:008,-2.9651,2.1793,12.699,45.1166,-0.1233,-0.0707,-0.3119,192.7188
12:46:24:032,-2.4587,2.5229,12.6822,44.8481,-0.1257,0.4518,-0.0163,193.5312
12:46:24:054,-1.9452,2.3745,12.8977,45.661,-0.1798,0.6902,0.1416,194.0781
12:46:24:073,-1.5501,1.7101,13.2233,44.5767,-0.2123,0.5706,0.1874,194.2344
12:46:24:088,-1.3718,1.0337,13.7548,45.4474,-0.2466,0.2502,0.213,194.125
12:46:24:109,-1.4711,0.4292,15.1985,45.2681,-0.3084,-0.1823,0.2569,193.9062
12:46:24:131,-1.4424,-0.4136,16.635,45.227,-0.261,-0.5186,0.3339,193.5156
12:46:24:147,-1.2221,-0.8721,16.5668,45.7831,-0.0621,-0.4512,0.4497,193.2344
12:46:24:168,-0.7529,-0.8745,14.5138,46.5312,0.1387,0.006,0.5869,192.8594
12:46:24:189,-0.7517,-0.4304,11.952,45.2612,0.2139,0.3805,0.6631,192.3438
12:46:24:217,-0.6703,-0.1335,10.7573,45.9935,0.1198,0.3608,0.6734,191.7188
12:46:24:230,-0.638,-0.0018,10.6543,46.5348,0.024,0.0745,0.6652,190.9531
12:46:24:249,-0.8522,0.1131,9.8882,46.6534,0.1268,-0.2246,0.6636,190.1719
12:46:24:274,-0.8989,0.3274,8.3284,46.2363,0.3097,-0.3476,0.7251,188.6875
12:46:24:297,-0.9276,0.592,6.8104,47.7868,0.4258,-0.2528,0.9206,187.8906
12:46:24:311,-0.8163,0.7931,5.6241,46.7695,0.4202,-0.2116,1.0303,187.4375
12:46:24:332,-0.5134,0.9547,4.8472,46.9814,0.4101,-0.1953,1.1142,186.5156
12:46:24:351,-0.1555,1.1199,4.4102,46.44,0.4131,-0.2345,1.1515,185.4219
12:46:24:375,0.0983,1.2659,4.4569,47.6997,0.4445,-0.3501,1.1502,184.2031
12:46:24:400,0.2563,1.4288,5.095,47.7518,0.5201,-0.4779,1.1041,182.9219
12:46:24:411,0.3808,1.5688,5.848,45.9097,0.5721,-0.4507,1.0127,181.0312
12:46:24:434,0.7375,1.473,5.9796,47.4417,0.4261,-0.2936,0.8873,179.7969
12:46:24:452,1.0392,1.6861,6.1329,47.7284,-0.0083,-0.0944,0.7219,178.6719
12:46:24:470,1.3636,2.0776,8.0111,46.2711,-0.3926,0.0952,0.4631,177.7344
12:46:24:491,1.4414,2.0153,10.6771,48.8632,-0.4376,0.291,0.1382,176.9062
12:46:24:516,1.123,1.333,11.9975,47.8835,-0.29,0.519,-0.0991,176.3906
12:46:24:534,0.6609,0.5561,11.7257,47.8309,-0.1936,0.6463,-0.1766,176.2188
12:46:24:550,0.5747,0.2388,10.9572,49.3372,-0.1931,0.5285,-0.2113,176.2188
12:46:24:568,0.5735,0.1838,10.5909,49.9078,-0.2402,0.2252,-0.2919,176.2969
12:46:24:589,0.4718,-0.0245,10.9285,48.8008,-0.2677,-0.0081,-0.3604,176.4531
12:46:24:617,0.5771,-0.4375,10.9141,50.8701,-0.3412,-0.0222,-0.3979,176.6562
12:46:24:633,0.7136,-0.4423,10.6112,50.8522,-0.5289,0.0015,-0.4635,176.9688
12:46:24:652,0.7423,-0.2364,11.0266,50.5438,-0.6956,-0.0768,-0.5974,177.375
12:46:24:668,0.807,-0.3561,12.1866,50.9424,-0.7579,-0.2265,-0.7809,177.8281
12:46:24:688,0.1881,-0.9176,13.8997,50.4471,-0.6456,-0.1266,-0.8483,179.0156
12:46:24:709,-0.5362,-1.7759,14.4611,51.159,-0.3984,0.2372,-0.6677,179.9219
12:46:24:732,-0.6691,-2.1458,12.9216,49.4005,-0.2647,0.5256,-0.3351,180.4062
12:46:24:751,0.0588,-1.7148,11.0853,51.8568,-0.2557,0.5384,-0.072,181.5938
12:46:24:768,1.0392,-0.8781,10.0689,52.634,-0.2477,0.4534,-0.0467,181.8281
12:46:24:789,1.8353,-0.3669,9.0454,51.1914,-0.2687,0.4811,-0.2254,182.0156
12:46:24:815,1.9179,-0.1778,7.7921,50.7091,-0.3955,0.6484,-0.4635,182.0469
12:46:24:833,1.5276,-0.003,6.8463,51.7399,-0.5595,0.8215,-0.6683,182.0781
12:46:24:849,0.9901,0.149,6.5902,50.9265,-0.5941,0.9078,-0.8017,182.3281
12:46:24:870,0.4275,0.1239,6.3627,50.4602,-0.4685,0.851,-0.828,182.8281
12:46:24:888,-0.0382,0.0221,5.8252,51.2041,-0.289,0.6542,-0.7308,183.5312
12:46:24:908,-0.3016,0.1682,5.3272,53.0427,-0.118,0.3632,-0.5617,184.4219
12:46:24:932,-0.1507,0.5345,5.089,51.8204,0.0173,0.0449,-0.4043,185.3594
12:46:24:949,0.212,1.0744,5.2698,51.0114,0.1076,-0.252,-0.3271,186.1406
12:46:24:968,0.4466,1.5784,5.5571,52.6713,0.1233,-0.4632,-0.3471,186.7969
12:46:24:989,0.4347,2.0285,6.1197,52.9196,0.0328,-0.6552,-0.4509,187.625
12:46:25:008,-0.383,2.1123,7.6316,50.6373,-0.0668,-0.8025,-0.55,187.8125
12:46:25:032,-1.0749,1.8741,9.6763,50.6373,-0.0583,-0.8717,-0.578,188.25
12:46:25:051,-2.1271,1.6921,11.6096,52.1009,0.0359,-0.9442,-0.5647,188.8125
12:46:25:068,-3.8569,1.2085,14.2468,52.8045,0.2589,-0.8603,-0.3479,189.4062
12:46:25:088,-4.3585,0.7009,15.3589,50.8385,0.3941,-0.3298,-0.0001,190.0469
12:46:25:108,-4.2005,1.1115,14.7328,53.4162,0.2349,0.2316,0.2753,190.5938
12:46:25:133,-3.8917,1.4706,14.7161,51.6003,0.0493,0.5834,0.4359,190.7812
12:46:25:151,-3.6714,1.151,15.0788,53.3527,0.0985,0.9072,0.5675,190.6094
12:46:25:170,-3.5649,0.8805,13.677,53.0892,0.1238,1.1784,0.7326,190.2031
12:46:25:193,-3.4966,1.5293,11.6898,51.0408,-0.0945,1.05,0.8308,189.6562
12:46:25:207,-3.28,1.8597,12.1938,50.9981,-0.2272,0.3504,0.7874,188.9688
12:46:25:229,-3.0812,0.5058,14.6754,52.0172,0.1036,-0.3112,0.7693,188.0625
12:46:25:251,-3.0046,-2.3254,13.8482,50.9316,0.6418,-0.4776,0.9912,187.125
12:46:25:269,-2.0601,-2.0177,11.3546,50.4878,0.9505,-0.2297,1.3491,186.2344
12:46:25:289,-1.2964,-1.0457,9.5997,51.3251,0.9526,0.0225,1.5685,185.3281
12:46:25:311,-0.5793,-0.4232,9.0957,50.6801,0.8578,-0.096,1.597,184.0469
12:46:25:332,-0.1615,-0.1383,8.739,49.3231,0.8416,-0.3418,1.5099,182.4062
12:46:25:351,-0.0621,-0.0365,8.0961,48.7161,0.8639,-0.5082,1.3536,180.7031
12:46:25:368,0.1833,0.0257,7.4964,49.9704,0.8312,-0.5277,1.2218,178.9688
12:46:25:388,0.3832,0.1886,6.9864,50.3014,0.7382,-0.4193,1.0857,177.3906
12:46:25:408,0.6537,0.3693,6.6009,48.6224,0.6208,-0.2662,0.9302,176.0469
12:46:25:431,0.8788,0.5453,6.6081,48.649,0.4591,-0.072,0.7432,174.7812
12:46:25:452,1.0141,0.5166,7.0415,48.4053,0.2701,0.2598,0.5227,173.6719
12:46:25:467,0.7663,0.2316,7.1468,48.0619,0.1696,0.7062,0.3129,172.7344
12:46:25:488,0.3844,0.0844,6.5997,48.8192,0.2237,1.1158,0.226,172.0469
12:46:25:507,0.5316,0.4388,5.7701,48.1221,0.2906,1.3768,0.2884,171.5312
12:46:25:532,0.8297,1.0648,5.3643,49.682,0.2083,1.5144,0.3504,171.1719
12:46:25:549,0.8249,1.6322,5.763,46.9909,0.0368,1.4079,0.3054,170.8125
12:46:25:573,0.722,1.8334,6.638,48.3462,-0.0447,1.0625,0.1768,170.0156
12:46:25:586,0.3748,1.3893,7.6927,45.4467,-0.0157,0.5967,-0.0009,169.5312
12:46:25:609,-0.2166,0.7608,8.6659,46.1203,0.0471,0.2385,-0.1404,169.2344
12:46:25:634,-0.3973,0.3035,9.4584,45.6726,0.1143,0.0092,-0.1351,169.1719
12:46:25:652,-0.4129,0.2424,10.446,45.5795,0.1337,-0.2057,-0.0693,169.3125
12:46:25:671,-0.049,0.1071,11.4576,46.8357,0.1529,-0.468,-0.0033,169.4688
12:46:25:688,0.7411,-0.1311,11.4636,45.0496,0.2378,-0.6353,0.0668,169.5781
12:46:25:709,1.4342,0.2664,10.1108,45.3343,0.2836,-0.5082,0.063,169.6406
12:46:25:732,1.8065,1.1857,8.2996,45.6805,0.0951,-0.2259,-0.1295,169.6719
12:46:25:752,1.8975,1.728,8.0506,45.1233,-0.3979,-0.1306,-0.5732,169.6875
12:46:25:767,1.4821,0.7488,10.5334,44.6939,-0.9944,-0.5447,-1.2467,169.8594
12:46:25:796,-0.5853,-1.4204,14.8382,45.9045,-1.3992,-1.1554,-1.9258,170.1094
12:46:25:815,-2.3977,-2.9514,16.0736,46.1429,-1.302,-1.1937,-2.137,171.0938
12:46:25:832,-2.7101,-2.6366,13.009,44.9465,-0.8541,-0.5591,-1.7628,172.8281
12:46:25:849,-1.6327,-1.3054,9.6906,45.4045,-0.588,-0.015,-1.1748,175.25
12:46:25:873,-0.3267,-0.003,7.822,44.8505,-0.5792,0.1586,-0.7988,178.3438
12:46:25:886,0.5209,0.8087,7.1636,43.5878,-0.6091,0.0329,-0.7335,179.6719
12:46:25:962,0.7806,1.0852,6.8787,43.6153,-0.5435,-0.178,-0.8507,180.5469
12:46:25:962,0.5891,1.1702,6.6117,43.0654,-0.3153,-0.4864,-1.1117,181.3438
12:46:25:963,0.2479,1.1043,6.5267,44.8039,-0.2634,-0.4587,-1.1447,181.3438
12:46:25:967,-0.0609,1.1762,6.6536,43.4969,-0.228,-0.2981,-1.0866,182.2344
12:46:26:000,-0.0286,1.3976,6.7733,42.3773,-0.1811,-0.0893,-1.0097,183.3594
12:46:26:007,0.1629,1.8645,6.4621,43.8922,-0.1675,-0.0057,-1.0102,184.625
12:46:26:027,0.0624,2.4116,6.4309,41.4035,-0.1984,-0.194,-1.0997,187.0938
12:46:26:049,-0.6415,2.4283,7.4581,41.2244,-0.1848,-0.5181,-1.1716,189.3906
12:46:26:067,-1.7237,1.9243,9.2298,42.3176,-0.0666,-0.7652,-1.0864,189.3906
12:46:26:087,-2.6658,1.3426,10.7369,41.7809,0.1076,-0.8281,-0.8294,190.5781
12:46:26:108,-3.2787,1.3198,11.7401,42.5986,0.2208,-0.7538,-0.5023,191.9062
12:46:26:134,-2.9388,1.4443,12.3578,40.8822,0.1651,-0.5575,-0.2557,194.0156
12:46:26:153,-2.5341,1.6538,13.1323,42.5181,-0.028,-0.321,-0.1292,194.3594
12:46:26:167,-2.2804,1.6143,14.8765,39.7821,-0.1412,-0.064,-0.1034,194.7656
12:46:26:188,-2.2947,1.0193,16.4363,40.1008,-0.0919,0.3461,-0.0512,194.9688
12:46:26:208,-2.5844,0.75,16.4471,40.2634,-0.0245,0.654,0.0657,195.1406
12:46:26:231,-2.8035,0.6219,15.997,40.6203,-0.0109,0.5725,0.1917,195.1875
12:46:26:252,-2.7736,-0.1,16.7356,42.6725,0.1683,0.2303,0.3738,195.2031
12:46:26:268,-2.1092,-1.3162,17.6741,39.2492,0.6871,0.0601,0.633,195.1406
12:46:26:289,-0.8391,-2.2906,15.7085,41.3118,1.1792,0.2497,0.8434,194.9375
12:46:26:315,0.358,-2.1254,11.5785,39.7882,1.2112,0.4319,0.9014,194.5
12:46:26:332,1.694,-1.4012,8.1584,42.2631,0.7838,0.3333,0.6524,193.7969
12:46:26:351,2.101,-0.8038,7.0451,40.0214,0.2296,0.083,0.209,192.9062
12:46:26:367,1.3289,-0.975,7.9525,42.6788,-0.0855,0.022,-0.125,191.8906
12:46:26:388,0.0887,-1.558,8.539,41.471,-0.1033,0.1996,-0.1676,191.1562
12:46:26:407,-0.9707,-1.9902,7.8196,39.9281,-0.0157,0.4977,0.0729,190.9219
12:46:26:432,-1.4615,-1.7232,6.2179,42.2966,0.0179,0.7475,0.4593,191.1719
12:46:26:449,-1.3981,-1.0684,4.5922,40.6446,-0.0511,0.7943,0.8021,191.25
12:46:26:468,-0.8486,-0.3789,3.929,40.9322,-0.1747,0.6303,1.0173,190.9531
12:46:26:488,-0.3315,0.2556,4.8831,41.4056,-0.1222,0.3227,1.0516,190.1875
12:46:26:507,-0.3387,0.6901,5.7247,41.6884,0.0674,0.0963,1.1257,189.0938
12:46:26:533,0.23,0.8853,5.654,41.6633,0.2128,-0.1373,1.1134,187.8594
12:46:26:548,0.382,1.3569,5.3105,39.9804,0.2216,-0.419,1.0037,186.6719
12:46:26:568,0.5304,1.7017,5.429,40.8608,0.1334,-0.8007,0.8343,185.375
12:46:26:587,0.6082,1.8968,6.2657,40.8019,0.024,-1.2244,0.5965,184.1875
12:46:26:608,0.2323,1.7592,8.1392,39.9057,-0.0085,-1.4398,0.3832,183.2031
12:46:26:634,-0.2752,0.9595,10.9297,41.1093,0.0221,-1.3237,0.262,182.4375
12:46:26:651,-0.1112,0.7284,11.6934,38.4139,0.0037,-1.0835,0.2053,181.9375
12:46:26:668,0.2802,0.4435,12.7385,40.0118,-0.1233,-0.7953,0.1453,181.6719
12:46:26:687,0.4239,0.0102,14.1247,38.9792,-0.2924,-0.5173,0.0423,181.4688
12:46:26:708,0.7495,-0.5249,14.582,40.2113,-0.3537,-0.1157,-0.0451,181.3125
12:46:26:733,1.056,-0.4124,13.2915,38.7377,-0.3073,0.4327,-0.1023,181.2344
12:46:26:751,1.287,0.1814,12.5493,39.6058,-0.3356,0.7445,-0.1844,181.2656
12:46:26:769,1.3217,-0.2113,13.5333,39.6295,-0.4117,0.5831,-0.407,181.3594
12:46:26:787,0.8201,-1.5065,14.0002,40.5772,-0.3156,0.3192,-0.7074,181.5
12:46:26:806,0.2862,-2.3182,12.7684,39.3004,-0.1065,0.414,-0.8083,181.7656
12:46:26:827,0.4849,-2.305,10.871,41.0161,-0.0144,0.7285,-0.6424,182.4062
12:46:26:849,0.8632,-1.6718,9.4357,41.6236,-0.0591,0.8375,-0.4283,183.3125
12:46:26:867,1.2451,-0.9272,8.4576,42.5033,-0.1427,0.7317,-0.3013,184.1562
12:46:26:887,1.3229,-0.1838,7.9381,42.4348,-0.2253,0.5368,-0.285,184.7031
12:46:26:907,1.1841,0.1814,7.4329,40.5291,-0.2581,0.3829,-0.3604,185.0938
12:46:26:932,1.038,0.4914,6.9457,39.7121,-0.245,0.3309,-0.4472,185.3906
12:46:26:951,1.1912,0.9008,6.5902,40.7201,-0.1997,0.3504,-0.4965,185.7188
12:46:26:968,1.2032,1.2264,5.9653,41.9696,-0.0764,0.3174,-0.5748,186.4375
12:46:26:987,1.0248,1.418,5.241,41.6288,0.0762,0.2276,-0.696,186.9844
12:46:27:008,0.6082,1.4599,4.8508,40.7627,0.163,0.0963,-0.8115,187.6094
12:46:27:033,0.0684,1.4647,4.737,40.7627,0.1723,0.0593,-0.8781,188.4062
12:46:27:052,-0.2549,1.8489,5.0782,41.2422,0.0993,0.0822,-0.8563,189.3438
12:46:27:069,-0.851,2.1769,5.8168,42.6392,0.0107,0.0265,-0.8083,190.3125
12:46:27:093,-2.1475,2.2739,7.0475,41.8129,-0.057,-0.1484,-0.7825,191.2969
12:46:27:106,-2.9627,1.9196,8.6157,40.6326,-0.0826,-0.3721,-0.6398,192.2188
12:46:27:127,-3.3613,2.05,9.9229,40.7794,-0.0437,-0.561,-0.4027,193.0625
12:46:27:150,-3.1064,2.6067,10.6268,41.5589,-0.0304,-0.5261,-0.1721,193.7969
12:46:27:171,-2.594,2.9251,11.855,40.4038,-0.1933,-0.3524,-0.1111,194.2656
12:46:27:190,-2.6491,2.3541,14.424,40.9742,-0.4802,-0.2403,-0.2472,194.3906
12:46:27:206,-3.6127,0.7464,17.625,41.5719,-0.6309,-0.2739,-0.415,194.5156
12:46:27:228,-4.811,-0.8182,18.6115,40.2071,-0.4306,-0.1703,-0.3604,194.6719
12:46:27:252,-5.0098,-1.3414,17.3689,40.7947,-0.0466,0.1051,0.062,195.0469
12:46:27:279,-3.687,-1.1187,16.1765,41.9911,0.233,0.2279,0.6833,195.6719
12:46:27:288,-2.1631,-1.0756,16.2663,39.0876,0.3776,0.0401,1.1203,195.6094
12:46:27:308,-0.9743,-1.242,14.5856,40.5595,0.7127,-0.0512,1.3219,194.8281
12:46:27:333,-0.025,-1.2552,11.047,41.0874,1.0527,0.1501,1.3249,193.5625
12:46:27:350,0.5556,-1.0469,8.7042,41.0155,0.6634,-0.1801,1.1717,193.5625
12:46:27:367,0.5867,-0.7847,8.9568,40.4294,0.3103,-0.5873,1.0178,190.5781
12:46:27:387,0.5663,-0.9236,10.5059,41.3036,0.3214,-0.7298,0.8833,190.5781
12:46:27:408,0.2623,-1.1486,10.3083,40.6569,0.5393,-0.6238,0.837,189.0938
12:46:27:433,-0.055,-1.1917,8.6468,41.2075,0.6924,-0.4505,0.9052,187.8438
12:46:27:454,0.0157,-1.1355,6.7374,41.0869,0.7412,-0.2656,1.0071,185.7344
12:46:27:473,0.2264,-0.9631,5.0148,40.6787,0.6714,-0.1202,1.091,184.8594
12:46:27:486,0.5663,-0.7763,3.7183,41.8792,0.4895,-0.072,1.1334,183.8594
12:46:27:506,1.0823,-0.4064,3.2526,41.9128,0.2485,-0.1442,1.0892,181.4688
12:46:27:528,1.6569,-0.0126,3.5878,39.7575,0.0463,-0.2656,0.9451,179.6094
12:46:27:550,1.8915,0.4016,4.603,42.9363,-0.0389,-0.39,0.7597,179.6094
12:46:27:568,1.9071,0.7656,5.7821,40.8213,0.0101,-0.5655,0.5858,178.4375
12:46:27:587,1.8341,1.0205,7.142,40.031,0.1617,-0.8214,0.4489,177.4844
12:46:27:608,1.7419,1.0612,8.6228,41.7435,0.3766,-0.8739,0.3717,177.1406
12:46:27:633,1.6234,1.169,9.2346,39.8084,0.4671,-0.5373,0.343,176.5156
12:46:27:650,1.8915,2.1135,8.2541,40.8337,0.2346,-0.0891,0.2393,176.0625
12:46:27:667,3.1724,3.1358,7.3659,40.9574,-0.2056,0.2044,-0.1641,175.6875
12:46:27:686,3.5196,3.1825,7.5514,41.7161,-0.5966,0.3956,-0.7639,175.3438
12:46:27:707,1.9298,2.2464,8.6061,41.5051,-0.8533,0.4425,-1.1442,175.0625
12:46:27:732,-0.3016,1.3414,9.7888,41.5103,-1.0488,0.3461,-1.1378,175.2344
12:46:27:751,-1.1623,0.7907,11.788,41.9833,-1.1462,0.1456,-0.9538,176.0781
12:46:27:768,-0.2668,0.2125,14.5138,42.9435,-1.0461,-0.0542,-0.8643,177.3906
12:46:27:786,0.3736,-0.4064,16.6255,43.0096,-0.7803,-0.108,-0.8486,178.7031
12:46:27:806,0.4107,-1.169,17.1677,42.2614,-0.5491,-0.0845,-0.7798,180.2969
12:46:27:826,-0.0286,-1.7508,17.285,42.2288,-0.428,0.0774,-0.5812,181.3125
12:46:27:849,0.2958,-2.2559,17.133,43.8624,-0.2346,0.5229,-0.2714,182.2812
12:46:27:866,1.2164,-2.147,15.0417,43.795,-0.0285,0.8976,0.0098,183.0625
12:46:27:887,2.3464,-1.3713,12.0142,44.1152,0.0463,0.817,0.1605,183.5625
12:46:27:906,3.4837,-0.3406,9.9408,43.5207,-0.0016,0.442,0.0212,183.6875
12:46:27:928,3.674,0.4459,9.3555,43.5955,-0.0083,0.1022,-0.3519,183.5625
12:46:27:949,2.7846,0.5752,9.0203,45.7491,0.0668,0.0686,-0.6459,183.3906
12:46:27:967,1.6796,0.4423,8.0363,45.2402,0.1316,0.2662,-0.7479,183.5625
12:46:28:024,0.8548,0.4196,6.7135,44.4946,0.1774,0.4428,-0.7103,184.1719
12:46:28:025,0.4873,0.6015,5.5559,46.4245,0.2099,0.4508,-0.6057,184.9375
12:46:28:041,0.8501,1.0948,4.1852,45.3739,0.1907,0.3096,-0.5524,185.7812
12:46:28:047,0.7627,1.2923,4.415,45.5395,0.0959,0.092,-0.582,186.5312
12:46:28:068,0.5412,1.479,5.3236,46.8983,0,-0.158,-0.6137,187.1406
12:46:28:086,-0.043,1.6514,7.5371,46.2055,-0.041,-0.4113,-0.6539,187.7812
12:46:28:111,-0.4512,1.4276,9.626,46.9262,0.1103,-0.5567,-0.6358,188.4688
12:46:28:125,-0.7182,1.3234,10.4281,48.8442,0.4485,-0.4281,-0.5,189.1562
12:46:28:146,-0.9312,1.7855,9.9432,47.2474,0.751,-0.0843,-0.2757,189.9219
12:46:28:168,-0.6691,2.4343,9.6487,47.6356,0.8235,0.1818,-0.0906,190.6094
12:46:28:187,-0.7648,2.6713,10.3586,48.4602,0.6828,0.2745,-0.118,191.0781
12:46:28:210,-1.0905,2.5792,11.3558,48.1949,0.543,0.2668,-0.239,191.25
12:46:28:233,-1.1671,2.1482,12.444,49.0423,0.4983,0.168,-0.2603,191.3281
12:46:28:253,-1.1455,1.8142,12.9013,48.4033,0.5614,0.0849,-0.2089,191.5156
12:46:28:268,-0.8546,1.673,12.3039,50.1947,0.6549,0.1544,-0.1034,191.7969
12:46:28:286,-0.5434,1.8489,11.284,50.2297,0.5891,0.3754,-0.007,192.0781
12:46:28:309,-0.3291,2.0357,10.6567,50.549,0.3065,0.6042,0.0303,192.25
12:46:28:331,-0.3339,1.8777,11.782,50.0086,-0.0602,0.4596,-0.0246,192.2969
12:46:28:349,-0.875,1.339,13.6267,51.7196,-0.2045,-0.0073,-0.1276,192.1875
12:46:28:368,-1.5585,0.422,13.6064,50.0816,0.0402,-0.2989,-0.1676,192.1719
12:46:28:388,-2.0074,-0.1969,11.436,51.8885,0.3981,-0.1945,-0.0472,192.3125
12:46:28:406,-1.8171,-0.1335,9.3291,51.3248,0.4948,0.0076,0.2319,192.5156
12:46:28:426,-1.2389,0.252,8.727,52.0524,0.3084,-0.0401,0.4841,192.6094
12:46:28:452,-0.6619,0.4866,9.298,53.6007,0.0921,-0.2726,0.5773,192.3594
12:46:28:468,-0.4572,0.3825,9.2226,52.6455,0.0431,-0.3514,0.5797,191.8438
12:46:28:486,-0.2752,0.4304,8.2218,50.8457,0.085,-0.1546,0.6135,191.2188
12:46:28:506,-0.0202,0.7691,6.6692,50.5807,0.0993,0.2036,0.6809,190.5781
12:46:28:529,0.2982,1.236,5.4421,51.3814,0.0477,0.4779,0.7115,190.2656
12:46:28:549,0.6597,1.5329,4.8148,50.9978,-0.0463,0.5885,0.6737,189.5469
12:46:28:567,0.862,1.6933,4.5383,53.3599,-0.1068,0.5078,0.5762,188.7031
12:46:28:587,0.8369,1.6957,4.8508,50.576,-0.1313,0.1919,0.4489,187.8438
12:46:28:606,0.7351,1.6347,5.5355,52.8172,-0.1121,-0.2049,0.331,187.0781
12:46:28:626,0.5687,1.491,6.3029,54.214,-0.0698,-0.4765,0.2455,186.4531
12:46:28:649,0.6178,1.5161,6.486,52.0184,-0.0197,-0.4837,0.2074,185.8594
12:46:28:668,0.8668,1.8777,6.3759,53.183,-0.0408,-0.2891,0.1983,185.625
12:46:28:686,0.8369,2.3014,6.5806,53.4118,-0.1526,-0.1239,0.1395,185.4375
12:46:28:706,0.5843,2.5025,7.3012,53.6536,-0.281,-0.1197,0.005,185.25
12:46:28:726,0.2898,2.3601,8.3152,51.9535,-0.3891,-0.2369,-0.1521,185.1094
12:46:28:752,-0.128,2.0848,9.9397,53.4229,-0.7433,-0.4347,-0.4248,185.1094
12:46:28:767,-0.3051,1.3988,12.0884,53.6454,-0.8972,-0.3423,-0.5074,185.1094
12:46:28:786,-0.4057,0.3969,13.8673,53.7187,-0.9369,-0.0209,-0.4544,185.3125
12:46:28:806,-0.274,-0.3454,13.9906,55.5542,-0.9553,0.2974,-0.2792,185.6875
12:46:28:827,0.4885,-0.24,13.2556,54.5534,-1.0416,0.4063,-0.1921,186.7969
12:46:28:852,1.6186,0.1526,12.8091,54.9213,-1.147,0.2739,-0.3979,187.3281
12:46:28:874,1.6665,0.0413,13.2484,54.4117,-1.1755,0.0295,-0.7577,187.625
12:46:28:886,0.4574,-0.9451,14.2372,54.8645,-0.9867,-0.003,-0.8707,188
12:46:28:906,-0.7565,-1.5473,14.3593,55.4496,-0.6373,0.3368,-0.644,188.6562
12:46:28:926,-0.7852,-1.3186,12.541,53.2169,-0.3406,0.6691,-0.3151,189.5938
12:46:28:948,0.9147,-0.6446,9.7876,55.8243,-0.2988,0.5791,-0.2246,190.4844
12:46:28:968,2.7331,0.1873,8.381,55.8987,-0.4277,0.0423,-0.5247,190.8125
12:46:28:987,3.0815,0.5609,8.9832,54.4981,-0.4655,-0.4875,-1.0073,191.1719
12:46:29:006,2.2459,0.0281,9.5997,56.2804,-0.4072,-0.6339,-1.3652,191.4219
12:46:29:027,0.8584,-0.5728,9.4967,56.137,-0.3246,-0.3213,-1.4291,192
12:46:29:051,-0.3423,-0.6889,8.5127,54.9564,-0.2474,0.108,-1.228,193.1406
12:46:29:068,-0.7182,-0.3561,7.1803,54.9564,-0.1973,0.368,-0.9695,194.6094
12:46:29:085,-0.3638,0.1933,6.2825,57.1841,-0.1665,0.3829,-0.8075,196.2344
12:46:29:106,0.151,0.6734,6.0874,54.9494,-0.1015,0.2148,-0.774,197.6406
12:46:29:127,0.3341,0.9523,6.5351,54.9772,0.0535,-0.0204,-0.8251,198.7656
12:46:29:149,0.1749,0.9284,7.0929,56.6869,0.2482,-0.1868,-0.8688,199.6562
12:46:29:165,-0.2728,0.5968,7.5778,57.3408,0.3923,-0.3085,-0.8323,200.5469
12:46:29:186,-0.6655,0.3645,8.5558,56.7897,0.5361,-0.2891,-0.7066,201.9375
12:46:29:206,-1.2796,0.2759,8.9233,57.7797,0.6535,-0.2353,-0.5223,202.9219
12:46:29:226,-1.5573,0.5692,9.1951,58.4987,0.6647,-0.244,-0.3402,203.7969
12:46:29:250,-1.0845,1.1271,9.614,58.4087,0.5763,-0.1524,-0.3324,204.5
12:46:29:267,-1.1683,1.4096,9.7816,57.6981,0.3308,-0.0195,-0.4445,204.9531
12:46:29:286,-1.9763,1.0493,10.5873,58.0744,0.0184,0.03,-0.4374,205.3125
12:46:29:307,-2.5162,0.2927,12.6427,57.6305,-0.119,0.1203,-0.2464,205.75
12:46:29:333,-2.6419,-0.264,14.351,59.9662,-0.0336,0.2212,0.041,206.25
12:46:29:349,-2.1032,-0.3226,14.831,58.3582,0.0378,0.3205,0.2524,206.6719
12:46:29:366,-1.7094,0.0066,14.6862,58.2365,-0.0282,0.4119,0.3328,206.7812
12:46:29:385,-1.5908,0.1897,14.5401,58.9927,-0.1308,0.3786,0.3118,206.6094
12:46:29:406,-1.8698,-0.1095,14.7472,59.5004,-0.1289,0.2963,0.3187,206.2656
12:46:29:426,-2.4109,-0.6877,15.0489,59.7345,0.0458,0.2609,0.4585,205.8906
12:46:29:448,-1.9739,-1.8262,13.1359,58.8848,0.3321,0.2947,0.6961,205.5469
12:46:29:466,-1.1886,-1.716,11.6323,59.0757,0.5366,0.25,0.9315,205.375
12:46:29:486,-0.6691,-1.2695,10.4376,58.3743,0.6405,0.0356,1.0687,204.4844
12:46:29:505,-0.4476,-0.9667,9.5266,58.5332,0.7302,-0.2856,1.082,203.5625
12:46:29:525,-0.1675,-0.9702,8.8132,56.9948,0.788,-0.4933,1.0569,202.4688
12:46:29:552,-0.1854,-0.9559,7.9453,57.145,0.8176,-0.3961,1.0607,201.25
12:46:29:571,-0.1423,-0.7213,6.6596,56.899,0.8458,-0.0715,1.1382,200.0469
12:46:29:584,0.2491,-0.2065,5.326,57.1525,0.8384,0.2529,1.2764,198.8594
12:46:29:611,0.7734,0.3071,4.6102,56.4219,0.7699,0.3538,1.3459,197.7031
12:46:29:634,0.874,0.5034,4.7263,56.2043,0.6615,0.2697,1.2793,196.3125
12:46:29:651,0.5783,0.6662,6.0586,58.5921,0.5366,0.2225,1.1486,194.7812
12:46:29:666,0.4012,0.7069,8.0003,56.4922,0.4956,0.3267,1.0175,193.3281
12:46:29:685,0.3353,0.2352,7.7561,56.2124,0.6056,0.5855,0.8444,191.9219
12:46:29:707,-0.0286,0.2292,6.6237,57.6372,0.5923,0.9536,0.7022,190.6719
12:46:29:724,-0.0789,0.6937,6.4896,56.1149,0.3223,1.1927,0.6956,189.625
12:46:29:747,0.1462,1.3007,6.8906,56.3437,0.0453,1.2265,0.7158,188.6875
12:46:29:767,0.5747,1.7795,7.2342,55.4276,-0.0509,0.9903,0.6703,187.3438
12:46:29:787,1.2247,2.1015,7.7166,56.3163,-0.0759,0.5925,0.5153,186.4375
12:46:29:805,1.457,2.0955,8.5678,55.5507,-0.1396,0.1844,0.237,185.5469
12:46:29:825,1.038,1.5365,9.7182,55.0661,-0.2051,-0.1634,-0.1125,184.8906
12:46:29:850,0.2467,0.4759,11.0709,56.8426,-0.2735,-0.4132,-0.3854,184.5938
12:46:29:867,-0.2932,-0.4016,12.183,56.4422,-0.3084,-0.4491,-0.395,184.7188
12:46:29:886,-0.0765,-0.2915,11.2301,55.5098,-0.225,-0.1482,-0.1569,185.1875
12:46:29:907,0.8979,0.9703,9.3303,57.0541,-0.2503,0.2638,0.066,185.6719
12:46:29:927,2.0723,2.068,9.2106,54.4709,-0.5966,0.4092,-0.0648,185.8438
12:46:29:950,2.131,1.497,11.4767,55.0693,-1.0727,0.05,-0.643,185.8125
12:46:29:970,0.3066,-0.2364,14.5329,55.1909,-1.3172,-0.4715,-1.334,185.6719
12:46:29:986,-1.6303,-1.8597,15.7564,55.4301,-1.1918,-0.6166,-1.6273,185.9531
12:46:30:006,-2.1199,-2.1207,13.8925,56.1564,-0.8346,-0.256,-1.3732,187
12:46:30:086,-0.9719,-1.1546,11.6778,55.3382,-0.6088,-0.0329,-0.8467,188.7188
12:46:30:087,0.3018,-0.0054,10.8578,55.2552,-0.5233,-0.2566,-0.5047,192.0469
12:46:30:087,0.8381,0.7536,10.5298,55.0063,-0.3614,-0.5351,-0.4776,192.5938
12:46:30:087,0.8381,0.7691,9.1867,56.8036,0.2767,-0.288,-0.6613,193.1406
12:46:30:107,0.546,0.7356,6.9158,55.8059,0.4514,-0.0821,-0.6485,193.7656
12:46:30:128,0.2611,0.9691,4.6832,57.0869,0.4125,-0.0267,-0.5937,194.5469
12:46:30:148,0.2084,1.4,3.5376,54.9372,0.2799,-0.1285,-0.5828,195.3125
12:46:30:165,0.2204,1.7879,3.4047,55.7491,0.159,-0.2995,-0.6371,195.3125
12:46:30:184,-0.0585,2.0596,4.0954,56.6737,0.11,-0.4784,-0.689,195.9688
12:46:30:205,-0.6822,2.0321,5.338,55.8231,0.1824,-0.6534,-0.6499,196.6562
12:46:30:224,-1.6651,1.8657,6.4345,56.5045,0.3015,-0.8185,-0.4659,197.3906
12:46:30:251,-2.4791,1.6754,7.6855,54.7248,0.4226,-0.9727,-0.1266,198.2031
12:46:30:272,-2.4432,1.7568,8.8802,55.1761,0.5025,-1.0028,0.2061,198.9219
12:46:30:290,-1.6698,2.4319,9.3734,55.0548,0.3217,-0.9189,0.3011,199.4844
12:46:30:306,-0.7948,2.979,10.6316,55.6463,-0.0823,-0.7495,0.1722,199.6719
12:46:30:326,-0.2968,2.5804,13.1814,55.3608,-0.3792,-0.4981,0.0005,199.3125
12:46:30:351,-0.8211,1.6322,15.9551,54.9565,-0.3348,-0.2443,0.0276,199.0625
12:46:30:368,-1.5501,0.9152,17.4443,55.9019,-0.0005,0.0827,0.3065,199.0156
12:46:30:387,-1.3861,0.8446,16.0688,55.4768,0.0876,0.2436,0.6351,199.0625
12:46:30:405,-0.2992,1.1953,15.1243,54.9706,-0.1768,0.0569,0.8093,199.0312
12:46:30:425,0.789,1.1594,17.0145,55.3731,-0.2439,-0.2422,0.8237,198.6719
12:46:30:450,0.9781,0.4878,19.4171,56.0564,0.2565,-0.1833,0.8591,197.9375
12:46:30:469,1.0691,-0.4974,17.9052,54.7615,0.9907,0.3248,1.0194,197.0625
12:46:30:486,1.1122,-0.556,12.4045,54.9567,1.2687,0.7253,1.1986,196.125
12:46:30:509,1.6126,0.2436,7.3994,54.083,0.9665,0.5115,1.1954,195.1406
12:46:30:524,2.0687,1.1546,5.4206,55.9135,0.4543,-0.1397,0.9816,194
12:46:30:546,2.1417,1.6071,6.6919,53.8172,0.1731,-0.7221,0.6814,192.5469
12:46:30:567,1.8856,1.3557,8.4217,54.6556,0.1976,-0.8832,0.4058,191.125
12:46:30:586,1.0153,1.011,9.1041,53.7626,0.3457,-0.6574,0.2641,190
12:46:30:605,0.1749,0.5321,8.557,54.8669,0.4602,-0.3066,0.2804,189.0625
12:46:30:626,-0.3483,0.2604,7.7202,53.9958,0.518,-0.0584,0.4119,188.7656
12:46:30:652,-0.5625,0.1323,7.6508,54.4717,0.677,0.0084,0.6026,188.4844
12:46:30:671,-0.4883,-0.0353,7.7932,55.5545,0.9864,-0.0608,0.8047,188.0938
12:46:30:688,-0.2285,-0.1646,7.3252,53.7985,1.3225,-0.1365,1.009,187.4844
12:46:30:705,0.2324,-0.1275,6.4597,53.4041,1.5433,-0.1969,1.1755,186.625
12:46:30:726,0.7459,0.1897,5.3416,53.805,1.5462,-0.2142,1.2423,185.5938
12:46:30:751,1.263,0.853,4.1852,54.1211,1.2293,-0.0994,1.1757,184.25
12:46:30:766,1.9753,1.509,3.8727,52.8903,0.6591,0.2036,0.9574,182.7656
12:46:30:785,2.6014,1.8621,4.3372,54.1074,0.0157,0.6039,0.662,181.3438
12:46:30:805,2.4195,1.9363,5.9318,52.7515,-0.4424,0.8739,0.5017,180.0156
12:46:30:826,2.3764,2.0417,7.6975,54.1711,-0.5894,0.8132,0.4798,179
12:46:30:851,5.0196,2.8892,10.8064,52.1861,-0.5846,0.5403,0.328,178.25
12:46:30:870,5.6708,2.5911,11.8694,51.6306,-0.5175,0.2319,-0.0914,177.625
12:46:30:885,5.0638,1.5353,12.183,53.7681,-0.5023,0.1357,-0.6456,177.3125
12:46:30:912,4.3863,0.5237,11.6479,52.7373,-0.6117,0.3898,-1.0265,176.8594
12:46:30:924,4.1158,0.5549,11.296,53.9009,-0.8717,0.724,-1.1948,177.2656
12:46:30:944,3.9685,0.5321,12.3506,52.6464,-1.2016,0.7482,-1.4038,178.25
12:46:30:969,2.781,-0.7679,14.4144,51.7981,-1.3651,0.3115,-1.7982,179.5
12:46:30:986,0.5675,-2.6294,15.3051,53.4113,-1.1862,-0.0997,-2.0901,180.8281
12:46:31:003,-1.1383,-3.3501,13.7069,53.5706,-0.8139,0.0311,-1.9325,182.6094
12:46:31:025,-0.6595,-2.6139,10.5202,52.6789,-0.49,0.3608,-1.3362,184.9062
12:46:31:052,1.0248,-1.1438,8.2529,52.3782,-0.4,0.3022,-0.7801,187.3125
12:46:31:069,2.1884,-0.0437,7.8435,53.479,-0.526,-0.1234,-0.6235,189.1094
12:46:31:090,2.5092,0.5106,8.1117,53.4789,-0.6479,-0.5005,-0.7729,190.25
12:46:31:104,2.1621,0.7045,7.895,50.9807,-0.6405,-0.5674,-1.0291,190.9844
12:46:31:124,1.5911,0.6997,7.1073,52.332,-0.5867,-0.3777,-1.2677,191.7344
12:46:31:152,0.9746,0.7021,6.1903,50.5027,-0.5678,-0.0736,-1.431,192.7969
12:46:31:169,0.4047,0.6866,5.6804,52.3313,-0.576,0.1395,-1.5109,194.1406
12:46:31:184,0.036,0.7907,5.3021,51.0889,-0.5619,0.2638,-1.5152,196.4844
12:46:31:205,-0.122,1.0038,5.1931,51.5489,-0.526,0.3099,-1.4584,198.2188
12:46:31:225,-0.0813,1.2803,5.4421,51.2818,-0.5286,0.3112,-1.398,199.9531
12:46:31:250,-0.0514,1.5604,6.2418,49.9759,-0.5814,0.2867,-1.3735,201.5312
12:46:31:268,0.0336,1.5987,7.7944,51.3605,-0.6546,0.1714,-1.3841,203.1406
12:46:31:284,-0.1914,1.4623,9.9708,51.4078,-0.718,0.0545,-1.4153,204.7031
12:46:31:308,-0.936,1.1127,12.7468,51.7488,-0.7547,0.0484,-1.4653,206.2969
12:46:31:324,-2.0062,0.1909,14.4527,50.5593,-0.6381,0.2162,-1.4653,207.8281
12:46:31:344,-2.9699,-0.5189,14.3127,51.0166,-0.3859,0.507,-1.2901,209.5
12:46:31:371,-3.0357,-0.7751,13.5381,49.6372,-0.1971,0.7504,-0.884,210.3594
12:46:31:385,-2.3666,-0.6937,13.1622,51.746,-0.1332,0.7898,-0.3942,211.9688
12:46:31:414,-1.0653,-0.5082,12.8522,51.0659,-0.0983,0.626,-0.0054,213.2031
12:46:31:434,0.297,-0.2304,13.1144,49.8957,-0.2461,-0.3913,0.0931,214.1875
12:46:31:447,0.807,-0.4711,15.3446,50.0945,-0.2642,-0.8931,-0.1263,213.9688
12:46:31:466,0.4442,-1.5389,18.3505,49.4007,0.0503,-0.7668,-0.2272,213.8281
12:46:31:486,0.0827,-2.5887,19.0616,49.8052,0.6666,0.0417,-0.0903,213.9219
12:46:31:505,0.4406,-3.1921,15.2392,49.5141,1.1406,0.911,0.1579,214.1406
12:46:31:525,1.1158,-2.7132,9.8547,46.8668,1.1465,1.0303,0.3177,214.25
12:46:31:552,2.0531,-1.8465,6.6835,47.9448,0.8613,0.4023,0.2055,214.25
12:46:31:569,2.4362,-1.2049,6.3005,46.9176,0.5654,-0.4355,-0.1207,214.125
12:46:31:588,2.3165,-1.1127,7.7489,46.6278,0.4218,-0.7879,-0.4517,213.8281
12:46:31:604,2.0316,-1.2695,8.3271,47.8488,0.3004,-0.6363,-0.7162,213.625
12:46:31:627,1.299,-1.5137,8.162,46.1175,0.1545,-0.3026,-0.8456,213.7969
12:46:31:653,0.2647,-1.7172,7.8423,46.4533,0.0482,0.0369,-0.7636,214.3281
12:46:31:669,-0.4787,-1.6299,7.5,46.7831,0.0011,0.3304,-0.5114,215.125
12:46:31:684,-0.6535,-1.2552,7.0905,46.6192,-0.0155,0.5293,-0.2001,216.9688
12:46:31:707,-0.1759,-0.8553,6.7877,46.4844,0.0168,0.6122,0.0527,217.5312
12:46:31:725,0.5244,-0.2269,6.4178,45.7813,0.0791,0.5869,0.1717,217.6875
12:46:31:750,1.305,0.3394,6.0479,45.336,0.1457,0.4652,0.1203,217.75
12:46:31:768,1.7958,0.8134,5.9054,45.0915,0.2037,0.2936,-0.0709,217.5938
12:46:31:785,2.0711,1.2025,5.7426,42.4713,0.175,0.1645,-0.3615,217.4062
12:46:31:804,2.0627,1.3749,5.7965,43.7572,0.0368,0.079,-0.7114,217.3594
12:46:31:825,1.4678,1.224,6.5782,45.0067,-0.1236,0.0436,-1.0131,217.4375
12:46:31:851,0.382,0.7632,7.9465,44.5904,-0.2037,0.0771,-1.1468,217.8594
12:46:31:869,-0.7169,-0.0748,9.7349,42.8082,-0.1262,0.0987,-1.0589,218.6406
12:46:31:885,-1.2233,-0.5788,10.9512,44.4296,0.0623,0.0612,-0.8475,219.7969
12:46:31:909,-0.7648,-0.7296,11.1367,43.3953,0.1316,-0.1285,-0.733,221.0938
12:46:31:923,-0.0981,-0.7799,12.0717,44.2443,0.1031,-0.3508,-0.7633,222.25
12:46:31:946,0.0839,-1.2767,13.5669,44.3623,0.1744,-0.2757,-0.7567,223.2188
12:46:31:970,0.151,-1.6825,13.5034,42.4677,0.2738,0.0598,-0.5977,224.9062
12:46:31:983,0.6729,-1.2755,11.6395,42.4085,0.1744,0.2923,-0.5069,225.3594
12:46:32:005,1.8221,-0.3298,9.7876,43.5891,-0.2051,0.1088,-0.7684,226.1562
12:46:32:025,2.6792,0.064,10.203,42.7594,-0.6091,-0.467,-1.3245,226.7656
12:46:32:051,2.544,-1.066,13.0964,42.6965,-0.673,-0.8331,-1.7919,227.4062
12:46:32:069,1.627,-2.5349,15.6283,41.4862,-0.2445,-0.6025,-1.8014,228.5469
12:46:32:088,2.0747,-2.961,13.9368,40.4632,0.2623,-0.2121,-1.5554,230.3594
12:46:32:153,3.0934,-2.6857,10.3515,40.7382,0.3388,0.1866,-1.4275,232.4531
12:46:32:153,3.5411,-1.7172,8.4481,39.5037,0.1827,0.3797,-1.5892,234.2812
12:46:32:153,3.4801,-1.1917,7.6233,39.3527,-0.0921,0.3696,-1.9988,235.9688
12:46:32:168,2.1824,-1.3785,7.8938,40.1027,-0.2903,0.5504,-2.2763,237.6562
12:46:32:185,0.5783,-1.9064,8.3583,39.0547,-0.2559,0.8172,-2.2188,239.5938
12:46:32:204,-0.5745,-2.0764,8.0542,39.2851,-0.0434,1.0122,-1.9149,242.0781
12:46:32:224,-1.2796,-1.661,7.057,40.0185,0.2189,1.0244,-1.509,244.7031
12:46:32:250,-1.0079,-0.3083,4.9334,39.7697,0.4317,0.8564,-1.1535,246.9844
12:46:32:267,-0.8869,0.3741,4.3827,38.1443,0.5196,0.5877,-0.9671,248.0312
12:46:32:285,-1.3837,0.9128,4.7335,39.2831,0.4607,0.2963,-0.9298,250.5312
12:46:32:304,-1.9787,1.2683,5.5966,38.7628,0.3428,0.0777,-0.9314,251.7656
12:46:32:325,-2.5904,1.7532,6.7398,39.0049,0.253,-0.0424,-0.8802,252.8281
12:46:32:351,-3.3542,2.2344,7.9429,37.0391,0.2008,-0.0584,-0.798,253.9375
12:46:32:369,-4.1371,2.5504,9.043,37.2782,0.1401,0.0484,-0.7079,255.0156
12:46:32:387,-4.9966,2.4415,10.1001,36.7498,0.028,0.2151,-0.6246,255.9531
12:46:32:404,-5.3174,2.1865,11.2912,36.4042,-0.1254,0.4098,-0.4834,256.8281
12:46:32:424,-5.1031,1.5533,13.513,36.8681,-0.3212,0.466,-0.2888,257.6094
12:46:32:451,-5.1283,0.7787,16.1969,37.947,-0.4104,0.336,-0.1226,258.25
12:46:32:470,-5.139,0.3142,17.7244,37.2376,-0.2557,0.2108,0.0881,258.6406
12:46:32:486,-4.2688,-0.088,16.7835,37.6214,0.1441,0.1485,0.4021,258.8438
12:46:32:504,-2.9926,-0.4483,14.6682,37.2805,0.555,0.0066,0.7009,258.8281
12:46:32:523,-1.8985,-0.9296,14.1451,38.6019,0.7127,-0.341,0.8506,258.5781
12:46:32:544,-0.7888,-1.3078,14.1666,36.4983,0.7409,-0.5927,0.8748,257.5781
12:46:32:570,0.5819,-1.2336,12.3662,35.9943,0.8999,-0.5535,0.849,256.6875
12:46:32:585,1.1254,-1.1917,9.8367,35.7527,1.0208,-0.4459,0.6934,255.8125
12:46:32:603,0.3353,-1.3449,8.8311,36.8166,0.8701,-0.4723,0.4492,254.9375
12:46:32:626,-0.7924,-1.6646,9.3327,35.8389,0.6184,-0.6728,0.3254,254.25
12:46:32:650,-0.6008,-1.8393,9.8535,36.5152,0.5435,-0.8771,0.47,253.8594
12:46:32:666,0.133,-1.5616,9.3411,36.3342,0.6314,-0.7626,0.7211,253.5781
12:46:32:684,0.7687,-1.1833,7.7633,36.4997,0.6725,-0.2582,0.9129,253.125
12:46:32:705,1.0129,-0.5968,6.1041,36.9947,0.5974,0.2335,1.0154,252.375
12:46:32:724,1.0655,-0.0269,5.1429,37.6604,0.4677,0.3922,1.0151,251.4375
12:46:32:746,1.0883,0.3322,4.9226,38.3213,0.3547,0.2721,0.9371,250.875
12:46:32:768,1.1852,0.6231,5.2327,36.4221,0.2953,0.0952,0.8322,249.7031
12:46:32:786,1.3385,0.8613,5.2135,38.4984,0.294,0.0659,0.731,248.625
12:46:32:804,1.3038,1.2983,5.0052,37.2704,0.2365,0.2156,0.6093,247.6094
12:46:32:824,1.4893,1.8358,5.2638,38.2713,0.0674,0.3496,0.4708,246.7344
12:46:32:844,1.5659,2.3541,6.4776,39.0073,-0.135,0.2787,0.2817,245.9531
12:46:32:869,1.2164,2.4128,8.071,38.6297,-0.2157,0.0137,0.0146,245.0781
12:46:32:887,0.7483,2.0895,9.4393,37.9006,-0.1694,-0.2797,-0.2589,244.7188
12:46:32:903,0.4993,1.7448,10.0665,37.5912,-0.1124,-0.3223,-0.4632,244.6875
12:46:32:927,0.1007,1.3617,10.4879,38.5487,-0.1915,-0.0816,-0.6371,244.9844
12:46:32:951,-0.468,1.0122,11.1008,39.8363,-0.5143,0.3658,-0.8451,245.5469
12:46:32:967,-0.7601,0.5034,11.7317,38.4603,-0.5071,0.2982,-0.8584,245.5469
12:46:32:985,-0.6715,0.0592,11.9173,39.8183,-0.4208,0.2481,-0.8083,246.2812
12:46:33:009,0.042,0.1933,10.8027,40.8588,-0.4927,0.2713,-0.8592,247.0625
12:46:33:022,0.546,0.8601,9.5709,41.2503,-0.8607,0.1687,-1.1652,247.9688
12:46:33:044,0.2743,0.5573,10.6435,41.192,-1.2314,-0.2459,-1.6334,249.7188
12:46:33:069,-1.7106,-1.5018,14.7352,41.7049,-1.0874,-0.7682,-1.7926,250.6562
12:46:33:085,-4.0377,-3.3788,17.6873,41.4112,-0.4,-0.6355,-1.2725,251.8906
12:46:33:103,-4.0341,-3.4806,15.6331,41.4112,0.1688,-0.0097,-0.4251,253.6719
12:46:33:123,-1.7524,-1.9483,11.2612,42.3109,0.2141,0.3088,0.038,255.5625
12:46:33:144,1.0476,-0.2041,8.4912,41.4339,-0.1127,0.1357,-0.1734,257
12:46:33:169,2.2567,0.8506,8.7653,41.1371,-0.38,-0.0038,-0.6986,257.5
12:46:33:187,1.7874,0.6363,10.2066,42.281,-0.302,0.1272,-1.1159,257.4688
12:46:33:203,0.5795,0.2125,10.2497,42.4684,-0.0245,0.4146,-1.2733,257.6562
12:46:33:223,-0.1615,-0.0736,8.9173,43.9852,0.2815,0.6034,-1.2336,258.4219
12:46:33:243,-0.2908,-0.1909,7.1468,42.5252,0.5041,0.5496,-1.1117,259.6719
12:46:33:268,-0.274,0.0545,5.836,44.1827,0.6245,0.34,-0.9868,261.0625
12:46:33:286,-0.0957,0.3526,5.1848,45.427,0.6722,0.1301,-0.9007,263.8125
12:46:33:303,0.2659,0.5656,4.9908,45.9984,0.6456,0.0108,-0.8699,264.9375
12:46:33:323,0.461,0.7763,5.1153,45.0942,0.5276,-0.0398,-0.8992,265.4844
12:46:33:343,0.1737,0.999,5.7989,44.302,0.3941,-0.0694,-0.9399,266.5625
12:46:33:367,-0.3626,1.1127,6.8846,46.5684,0.3007,-0.1029,-0.9527,267.625
12:46:33:385,-1.1084,1.2109,8.4636,46.0089,0.3041,-0.1351,-0.9151,268.6875
12:46:33:403,-1.7608,1.2803,9.6057,46.709,0.3659,-0.0462,-0.8531,269.8125
12:46:33:424,-2.8179,1.3138,9.717,47.4459,0.281,0.0683,-0.7455,270.9219
12:46:33:444,-3.9084,1.2264,10.0354,47.0597,0.1145,0.0185,-0.5479,271.9219
12:46:33:469,-4.4148,0.671,11.12,47.0218,0.0093,-0.2425,-0.2973,272.8906
12:46:33:484,-4.4603,0.0688,12.8725,47.5597,0.028,-0.5389,0.0295,273.6406
12:46:33:504,-3.493,-0.3633,14.096,49.5139,0.1007,-0.6158,0.3568,274.1562
12:46:33:524,-2.7748,-0.1107,14.2755,49.2755,0.1739,-0.5461,0.642,274.3125
12:46:33:543,-2.2397,0.4519,13.6267,49.3258,0.1465,-0.5839,0.8031,274.125
12:46:33:564,-1.5872,0.3909,13.835,49.6301,0.1465,-0.6544,0.8679,273.8906
12:46:33:584,-0.9372,0.1059,13.9427,49.1446,0.2293,-0.4539,0.8921,273.2344
12:46:33:604,-0.5542,0.1742,12.8247,50.4952,0.2533,-0.1945,0.8428,272.3594
12:46:33:624,-0.462,0.4316,11.43,51.1762,0.2,-0.105,0.7158,270.9062
12:46:33:645,-0.5278,0.4974,9.5302,49.8185,0.1483,-0.121,0.5517,269.9844
12:46:33:668,-0.9276,0.5393,8.7138,50.7099,0.0847,-0.1279,0.3869,269.0938
12:46:33:687,-1.4053,0.4687,8.3284,51.4431,-0.016,-0.1072,0.2466,268.3906
12:46:33:704,-1.6387,0.3873,8.0147,50.6771,-0.0823,-0.0302,0.1818,267.8594
12:46:33:723,-1.5011,0.5656,7.6676,51.0375,-0.0671,0.0654,0.2026,267.5469
12:46:33:742,-1.173,0.7512,7.2605,50.5186,0.0088,0.1448,0.2324,267.3125
12:46:33:768,-1.1072,0.8134,6.9325,51.6812,0.1292,0.1996,0.218,267.0938
12:46:33:787,-1.3574,0.7213,6.8499,52.7125,0.2591,0.2018,0.1933,266.8438
12:46:33:802,-1.1826,0.8362,6.4094,52.0628,0.4021,0.2415,0.2479,266.5781
12:46:33:822,-0.6535,1.3581,6.0251,53.4074,0.478,0.3586,0.3334,266.3438
12:46:33:843,-0.3638,1.8274,5.8647,52.2784,0.4101,0.5083,0.3059,266.1094
12:46:33:868,-0.5709,1.831,6.5016,52.7479,0.2482,0.5831,0.1531,265.7812
12:46:33:886,-1.197,1.3258,8.3272,52.6668,0.0724,0.5237,-0.0224,265.3906
12:46:33:904,-1.8219,0.6195,9.9863,53.0733,0.0397,0.4103,-0.0826,265.0156
12:46:33:922,-1.9715,0.3214,10.8207,53.118,0.1342,0.3078,0.0188,265
12:46:33:943,-1.3251,0.4699,11.3654,54.0029,0.2061,0.2199,0.1864,265.0625
12:46:33:970,-0.5673,0.5609,11.867,53.1254,0.2336,0.1027,0.2569,265.0156
12:46:33:987,-0.4775,0.4064,12.0525,55.4631,0.24,0.059,0.1978,264.8125
12:46:34:004,-0.7828,-0.0377,12.1555,53.6144,0.2077,0.1301,0.1454,264.5312
12:46:34:023,-0.4416,-0.3298,11.8059,54.1125,0.2091,0.2023,0.2359,264.3281
12:46:34:044,0.6801,0.1263,10.221,55.1011,0.2674,0.3107,0.4066,264.2344
12:46:34:068,1.19,1.1163,9.0969,54.0572,0.1633,0.3051,0.3813,264.0625
12:46:34:084,1.1888,1.4563,9.6511,56.1116,-0.1092,0.128,0.0796,263.6719
12:46:34:104,0.4718,0.6578,11.5761,54.5182,-0.3763,-0.1301,-0.3798,263.1719
12:46:34:123,-0.6224,-0.3657,12.8773,55.1905,-0.4354,-0.1833,-0.7418,262.8594
12:46:34:143,-0.7648,-0.5872,12.517,54.9578,-0.2384,-0.043,-0.8025,263.0156
12:46:34:168,0.3545,0.3897,11.509,54.6546,0.0602,0.0074,-0.6736,263.6562
12:46:34:242,1.2044,1.236,10.8782,54.1708,0.2985,-0.2329,-0.7146,264.9688
12:46:34:242,1.0105,1.3474,10.3706,52.6109,0.3989,-0.362,-1.0043,265.75
12:46:34:243,0.5472,1.1738,9.4464,55.0919,0.4003,-0.1351,-1.2864,266.6094
12:46:34:243,0.2886,1.315,8.1021,54.1985,0.3619,0.3307,-1.4305,267.7656
12:46:34:270,0.0683,1.497,6.3759,54.3936,0.3348,0.7506,-1.4861,270.9375
12:46:34:288,-0.2082,1.6634,4.8185,52.2318,0.3257,0.3333,-1.4454,272.5938
12:46:34:309,-0.8702,1.6011,4.5323,52.5043,0.2338,-0.3402,-1.3418,274.1719
12:46:34:324,-1.1012,1.3378,5.9772,54.4211,0.2005,-0.7921,-1.1569,275.8281
12:46:34:344,-0.8965,0.9583,7.889,53.3518,0.3428,-0.7982,-0.958,275.8281
12:46:34:371,-0.2645,1.0672,8.2984,54.9832,0.5278,-0.4494,-0.7937,277.4375
12:46:34:387,0.4418,1.8717,6.6704,53.0904,0.4519,-0.1117,-0.8161,278.7969
12:46:34:404,0.2359,2.9455,5.1381,55.2663,0.1089,-0.0478,-0.9956,280.0156
12:46:34:425,-1.0964,3.3716,5.7271,52.8226,-0.179,-0.239,-1.1064,281.0312
12:46:34:443,-2.2696,3.2579,8.0758,52.6187,-0.1513,-0.4891,-1.0632,281.9844
12:46:34:472,-2.7879,3.3956,11.0913,53.3513,0.2368,-0.7964,-1.0099,283.1406
12:46:34:487,-3.9695,3.4662,13.4208,52.8462,0.853,-1.0273,-0.9639,284.4062
12:46:34:503,-5.6299,2.985,13.4017,51.8337,1.2011,-0.8648,-0.7817,285.6562
12:46:34:522,-6.4846,2.7539,11.6012,52.0448,0.8674,-0.1729,-0.4733,287.5156
12:46:34:543,-5.916,3.0029,10.7585,52.2578,0.2376,0.557,-0.2195,288.1562
12:46:34:570,-5.0888,3.2448,10.6639,50.5093,-0.1955,0.6348,-0.1167,289.2656
12:46:34:589,-4.9451,3.064,11.5964,53.5176,-0.2623,0.0154,-0.0584,289.8594
12:46:34:604,-4.92,2.4355,13.3837,51.7395,-0.0559,-0.6217,0.0167,290.0625
12:46:34:622,-4.7572,1.6035,14.0876,52.2464,0.146,-0.7719,0.132,290.0938
12:46:34:643,-4.9475,1.1199,13.0521,51.712,0.0413,-0.6371,0.3446,290.125
12:46:34:670,-4.7691,0.9942,12.4045,52.4787,-0.3132,-0.6861,0.6149,290.1875
12:46:34:686,-2.9077,0.683,13.6674,50.9764,-0.4882,-0.9586,0.7885,290.1406
12:46:34:705,-0.9025,0.5082,15.9587,50.5714,-0.2043,-0.8422,0.8069,289.8438
12:46:34:722,-0.7648,0.4004,15.9874,51.2896,0.3406,0.0627,0.8412,289.2188
12:46:34:742,-1.8267,0.1981,12.6355,50.588,0.673,1.3363,1.1091,288.4062
12:46:34:763,-1.7201,0.4627,8.4265,51.5296,0.628,2.3627,1.4687,287.125
12:46:34:788,-0.2836,1.2264,6.0371,50.8029,0.4203,2.951,1.5507,286.0469
12:46:34:803,0.8393,1.7544,5.0746,50.6869,0.3321,3.1107,1.3752,284.3281
12:46:34:823,0.8824,1.7867,3.6633,52.7519,0.2815,2.7011,1.1941,282.2031
12:46:34:847,-0.013,1.7903,3.3664,51.5188,0.2565,2.0423,1.1083,280.2031
12:46:34:870,-1.197,1.6227,3.7291,51.1252,0.2975,1.2998,1.1182,278.2969
12:46:34:885,-2.0338,1.1331,4.7442,51.8244,0.4245,0.7445,1.2383,276.6562
12:46:34:903,-2.0936,0.7117,5.4026,51.727,0.5508,0.4966,1.4431,275.2188
12:46:34:922,-1.1778,1.0624,5.4026,51.8337,0.4597,0.5658,1.5267,273.7812
12:46:34:943,0.0588,2.0955,5.2039,50.8647,0.1084,0.8465,1.294,272.2344
12:46:34:968,0.8908,3.5416,5.4266,51.2004,-0.4035,1.0628,0.731,270.5
12:46:34:986,1.1769,4.3102,7.2043,50.6453,-0.812,1.1656,-0.0485,268.8438
12:46:35:004,0.0133,3.8241,9.8942,51.1886,-0.763,1.0239,-0.7351,268.0469
12:46:35:023,-2.1116,2.408,11.1308,52.0806,-0.4067,0.6239,-1.044,267.3906
12:46:35:047,-4.6853,0.6075,10.9069,50.276,-0.1095,0.1296,-0.8709,266.5156
12:46:35:069,-3.6032,1.2839,10.9775,51.89,0.0272,-0.2555,-0.4693,267.4219
12:46:35:086,-2.7496,1.9986,11.1978,51.6054,-0.0296,-0.3759,-0.3319,268.4531
12:46:35:103,-3.165,1.5975,11.7832,50.5606,-0.2581,-0.293,-0.575,269.1875
12:46:35:126,-3.8617,0.4543,11.7509,50.5606,-0.4597,-0.1402,-0.8097,269.6562
12:46:35:141,-4.0485,-0.0401,10.7956,51.6852,-0.5017,-0.0174,-0.7428,270.1719
12:46:35:164,-3.3039,0.1921,9.6416,50.2185,-0.4413,-0.0632,-0.4384,270.9531
12:46:35:186,-2.5162,1.1402,8.8467,50.8203,-0.3467,-0.2214,-0.1543,271.7344
12:46:35:205,-2.102,2.2871,7.6209,51.5347,-0.2474,-0.296,-0.0816,272.2969
12:46:35:222,-1.7548,3.1645,6.4501,50.1798,-0.285,-0.2803,-0.2392,272.5469
12:46:35:246,-1.3658,3.4111,6.5028,51.8446,-0.6117,-0.1799,-0.522,272.6094
12:46:35:268,-1.859,3.2627,7.7322,51.3005,-1.0277,0.0223,-0.8539,272.75
12:46:35:287,-3.025,2.8294,9.6595,51.7388,-1.1484,0.0689,-1.0938,273.0938
12:46:35:302,-4.1383,2.3314,10.8351,51.5295,-0.7265,-0.104,-1.0973,273.7031
12:46:35:326,-4.1766,1.6993,9.9839,51.2289,0.0991,-0.4688,-0.8536,275.0156
12:46:35:341,-3.3386,1.3473,9.1711,47.0111,0.8706,-0.8955,-0.5151,276.0938
12:46:35:362,-2.3055,1.3497,8.7785,49.0819,1.4051,-0.8398,-0.2209,277.0938
12:46:35:386,-1.9883,1.6083,8.0829,51.3774,1.8251,-0.5932,-0.1244,277.9688
12:46:35:405,-1.8746,2.0081,7.1779,48.5772,2.0669,-0.4627,-0.1958,278.625
12:46:35:422,-1.6208,2.1494,6.6057,49.1997,2.0679,-0.4627,-0.3678,279.2344
12:46:35:443,-1.5885,2.1123,6.4525,48.3985,1.8855,-0.4688,-0.6046,279.9375
12:46:35:468,-2.1726,2.0273,6.5099,48.7004,1.6544,-0.4507,-0.8435,280.875
12:46:35:486,-3.1411,1.7208,6.6979,48.4479,1.4054,-0.4885,-1.0001,281.4219
12:46:35:502,-4.1838,1.3102,7.0678,49.2382,1.118,-0.5881,-1.0035,282.7188
12:46:35:522,-4.9726,1.3138,7.7705,47.6186,0.8006,-0.6957,-0.7841,284.1406
12:46:35:543,-4.7308,1.9962,8.0853,47.3328,0.5145,-0.5511,-0.3745,285.6875
12:46:35:567,-3.5266,3.0029,7.4018,47.4347,0.2669,-0.2081,0.0559,287.0938
12:46:35:586,-2.3019,4.0217,6.5483,45.8647,-0.1031,0.1616,0.1696,288.0156
12:46:35:602,-2.0002,4.5484,6.4693,47.8478,-0.7055,0.3773,-0.1487,288.2812
12:46:35:622,-3.7121,3.5644,8.1596,47.7169,-1.4599,0.3016,-0.6768,288.0312
12:46:35:644,-6.1314,1.7544,12.2776,45.9916,-2.0022,-0.2923,-1.1825,287.9844
12:46:35:668,-6.3661,-0.0461,15.821,45.1967,-1.893,-1.1879,-1.2648,288.4062
12:46:35:686,-6.3194,-0.8984,14.9124,47.0606,-1.2365,-1.2017,-1.0123,289.3906
12:46:35:703,-5.9207,-0.4292,11.9903,45.9175,-0.6402,-0.5927,-0.5327,290.5781
12:46:35:722,-4.6399,0.3334,9.5542,45.2603,-0.367,-0.0973,0.0263,291.6719
12:46:35:745,-3.2572,0.9499,7.6616,44.7681,-0.2807,-0.2757,0.4726,292.2344
12:46:35:771,-2.0577,0.7787,7.5023,46.3618,-0.338,-0.3026,0.4274,292.2344
12:46:35:790,-2.1618,0.3873,7.5383,45.0991,-0.4139,0.1357,0.5374,292.1562
12:46:35:805,-3.2117,0.647,5.7917,43.4479,-0.6128,0.3924,0.8354,291.7188
12:46:35:821,-3.6235,1.2276,4.8735,45.5545,-0.8858,0.1725,1.241,290.6562
12:46:35:842,-3.1267,1.7029,5.7917,45.0699,-0.9912,-0.0374,1.4639,289.9844
12:46:35:862,-2.1295,1.491,7.1073,46.3759,-0.7883,-0.3714,1.4932,288.8906
12:46:35:887,-1.7177,1.1115,8.0111,44.775,-0.4519,-0.5314,1.6016,285.5469
12:46:35:905,-1.1335,0.9619,8.1655,45.3652,-0.2682,-0.463,1.7542,285.5469
12:46:35:922,-0.2956,1.4467,8.0961,44.2472,-0.2807,-0.2182,1.7619,283.7344
12:46:35:942,0.4873,2.0297,7.9034,43.4572,-0.3212,-0.2227,1.5126,280.8906
12:46:35:963,0.5699,2.1422,8.0111,44.826,-0.334,-0.3668,1.1512,279.875
12:46:35:986,0.3281,1.8932,8.2302,43.9691,-0.384,-0.5011,0.8239,277.9375
12:46:36:002,0.1043,1.5341,8.7952,45.0179,-0.5111,-0.6145,0.5992,276.1875
12:46:36:022,0.3006,1.3018,10.1312,43.8583,-0.6219,-0.6347,0.3864,274.8594
12:46:36:041,0.5783,1.0696,11.5509,44.4741,-0.6205,-0.6505,0.1667,273.9531
12:46:36:062,0.455,0.41,11.9987,41.9196,-0.5409,-0.8369,0.0455,273.2656
12:46:36:084,0.0217,-0.4567,13.1862,43.5387,-0.2376,-1.1101,0.1781,272.8125
12:46:36:102,-0.1112,-1.0229,15.888,41.8745,0.4876,-0.8864,0.4327,272.6094
12:46:36:128,0.4766,-0.4603,15.5493,43.5246,1.0205,-0.0957,0.3957,272.5625
12:46:36:141,1.0057,1.2408,11.7772,44.1969,0.6512,0.5901,-0.0504,272.4219
12:46:36:161,1.2822,1.9387,8.6659,43.9926,-0.2906,1.0361,-0.6174,272
12:46:36:187,1.2906,0.7931,8.2266,42.5314,-1.135,1.2162,-1.0054,271.5938
12:46:36:202,0.8572,-0.4723,8.879,42.5598,-1.5039,0.9259,-1.1524,271.9219
12:46:36:223,0.637,-1.2192,10.1803,43.0385,-1.3936,0.3003,-1.1215,272.7344
12:46:36:242,0.5304,-1.6119,11.8969,42.7797,-0.8085,-0.1849,-1.0957,273.75
12:46:36:306,-0.0502,-1.3605,11.6718,43.4571,-0.188,-0.5319,-1.1135,274.875
12:46:36:307,-0.7589,-1.0816,9.9313,42.9518,0.0706,-0.6294,-1.1133,276
12:46:36:307,-1.6292,-0.9403,8.2841,42.3189,-0.0072,-0.5152,-1.003,277.1562
12:46:36:321,-2.1583,-0.8062,7.5562,42.6081,-0.1214,-0.3426,-0.7609,278.4531
12:46:36:342,-2.0757,-0.4112,7.1803,41.6212,-0.0959,-0.3338,-0.4983,279.7031
12:46:36:371,-1.4137,0.2771,6.838,43.5333,-0.0032,-0.4933,-0.3521,280.6719
12:46:36:389,-0.9684,0.5956,6.0814,42.7803,-0.0109,-0.6244,-0.2866,281.375
12:46:36:404,-1.2245,0.7955,5.1895,41.1812,-0.1763,-0.8209,-0.1631,281.8438
12:46:36:428,-1.7632,1.1869,5.7055,41.8022,-0.3313,-1.0198,0.0226,282.2188
12:46:36:441,-1.6746,1.394,7.6999,42.3485,-0.2706,-1.1181,0.1832,282.4688
12:46:36:463,0.5556,1.6849,11.0913,41.5352,-0.0554,-1.0624,0.1632,282.5312
12:46:36:484,0.4359,1.8645,11.7137,41.0343,0.1313,-0.7045,-0.0778,282.4062
12:46:36:503,-0.5685,1.5927,11.521,42.0373,0.2714,-0.2731,-0.3977,282.1719
12:46:36:522,-1.5238,0.7787,11.2433,43.7072,0.3124,-0.0054,-0.6241,282.0938
12:46:36:544,-2.0553,0.3729,11.4013,42.5714,0.2035,0.1991,-0.6171,282.375
12:46:36:567,-1.7668,0.1407,12.0118,44.1811,0.0394,0.2577,-0.4278,282.9844
12:46:36:586,-0.9911,-0.2592,12.2201,40.894,-0.0083,0.1631,-0.2073,283.7031
12:46:36:603,-0.438,-0.2688,11.9232,42.2612,0.0293,0.0372,-0.0435,284.3125
12:46:36:621,-0.1064,-0.0245,11.9041,43.4734,0.0306,-0.1591,0.0734,284.6562
12:46:36:642,-0.2537,0.1526,12.614,41.1236,-0.0019,-0.5514,0.1073,284.7969
12:46:36:661,-0.5374,-0.1933,14.2061,42.1686,-0.0706,-0.8235,0.1115,284.7656
12:46:36:685,-0.1304,-1.0684,14.8298,42.2843,-0.057,-0.5197,0.1656,284.6562
12:46:36:703,0.303,-1.4622,12.4871,44.0259,0.1153,0.2689,0.2492,284.5469
12:46:36:722,0.6274,-1.3569,8.6181,42.5802,0.2328,0.9392,0.3246,284.3906
12:46:36:747,0.8537,-1.2647,6.1724,43.52,0.0567,1.0806,0.3627,284
12:46:36:769,0.6154,-1.1283,5.8671,44.779,-0.2754,0.7991,0.3438,283.6562
12:46:36:787,0.6142,-1.1331,6.9864,45.2874,-0.4749,0.238,0.3762,283.2188
12:46:36:803,0.1306,-1.0792,7.5275,44.5844,-0.388,-0.3327,0.434,282.8125
12:46:36:821,-0.2645,-1.054,7.6604,44.4181,-0.2578,-0.7168,0.5222,282.3594
12:46:36:842,-0.5673,-0.9655,8.0985,44.8874,-0.2495,-0.7839,0.6537,281.875
12:46:36:862,-0.1088,-0.653,8.3906,44.3689,-0.237,-0.6374,0.8162,281.2656
12:46:36:886,0.856,-0.0593,7.9489,46.8918,-0.1039,-0.4648,0.9163,280.5156
12:46:36:904,1.281,0.2568,7.2749,44.1483,0.0296,-0.3705,0.809,279.625
12:46:36:922,0.7986,-0.0233,6.9876,44.8659,0.0514,-0.3897,0.5677,279.0938
12:46:36:942,-0.2106,-0.5189,7.7023,46.9703,-0.0786,-0.4214,0.3869,278.0781
12:46:36:962,-0.2417,-0.8649,9.5326,45.8132,-0.2269,-0.4044,0.4362,277.2656
12:46:36:986,0.6501,-0.3238,11.5031,44.3205,-0.1864,-0.3714,0.6023,276.7656
12:46:37:003,1.3277,0.1526,11.8275,45.3156,0.0932,-0.3698,0.6045,276.3281
12:46:37:021,1.3121,-0.1311,11.1116,47.1308,0.351,-0.4289,0.3704,275.7344
12:46:37:042,1.1793,-0.7643,11.2696,46.6976,0.2892,-0.4749,0.0998,275.375
12:46:37:064,1.2331,-1.078,12.371,46.8897,0.045,-0.406,-0.0488,274.2656
12:46:37:086,1.5647,-1.0313,13.5501,46.5574,-0.1252,-0.223,-0.1095,274.1406
12:46:37:104,2.441,-1.1067,13.2748,46.578,-0.07,0.0593,-0.1753,274.2031
12:46:37:121,2.9127,-1.2204,11.2816,46.578,0.0376,0.4244,-0.3247,274.3281
12:46:37:148,2.4051,-1.169,9.2992,46.9595,-0.0565,0.7344,-0.562,274.5312
12:46:37:170,1.3768,-0.9846,9.1723,46.3559,-0.6786,0.561,-0.9916,274.8906
12:46:37:189,-0.0382,-1.1941,11.29,46.3559,-0.7095,0.349,-1.0219,275.5312
12:46:37:204,-0.4285,-2.2966,13.3562,48.1434,-0.4887,0.4992,-0.7929,277.6094
12:46:37:223,0.2826,-3.119,13.1838,47.1153,-0.2157,0.809,-0.4478,278.7344
12:46:37:241,2.0364,-3.0233,11.4875,47.4949,-0.0234,0.8849,-0.264,278.7344
12:46:37:263,3.0731,-2.1518,9.2705,49.5279,-0.057,0.7086,-0.4001,279.6719
12:46:37:286,2.8229,-1.2863,7.8794,48.4299,-0.2474,0.5136,-0.7146,280.2031
12:46:37:304,1.925,-1.0457,7.9094,48.2248,-0.3904,0.4889,-0.979,280.5156
12:46:37:321,1.0763,-1.2061,8.0506,48.2974,-0.4016,0.6705,-1.0965,281.375
12:46:37:340,0.3281,-1.0732,7.3431,49.805,-0.4133,0.8186,-1.1021,282.3594
12:46:37:361,-0.1471,-0.6913,7.0355,49.4004,-0.3603,0.7935,-1.0771,283.5312
12:46:37:384,-0.438,-0.4782,6.9505,48.9014,-0.2109,0.6058,-1.0166,284.8125
12:46:37:405,-0.4596,-0.3142,6.9265,48.8044,0.0298,0.2905,-0.8938,285.4531
12:46:37:421,-0.4368,-0.0485,6.5782,49.9967,0.2948,-0.1471,-0.742,286.7188
12:46:37:441,-0.4979,0.0652,6.5483,50.6292,0.4354,-0.4403,-0.5772,287.8438
12:46:37:463,-1.1671,0.0856,7.5167,50.2886,0.5774,-0.4707,-0.3569,289.75
12:46:37:488,-1.203,0.0557,8.0363,51.7427,0.7223,-0.3708,-0.1196,289.75
12:46:37:503,-0.6439,0.3909,7.4988,51.6849,0.6826,-0.3615,-0.0163,290.375
12:46:37:522,-0.4512,1.0529,7.6975,50.1916,0.5276,-0.5511,-0.0805,290.7812
12:46:37:541,-0.3794,1.0289,9.3638,50.2969,0.4466,-0.6518,-0.2126,290.9375
12:46:37:561,-1.0581,0.5812,10.555,49.4637,0.331,-0.5812,-0.2446,291.0625
12:46:37:586,-1.6387,0.1,12.1208,51.249,0.2053,-0.3951,-0.1165,291.2969
12:46:37:604,-1.5034,-0.1143,13.9104,51.4259,0.2309,-0.1008,0.07,291.5781
12:46:37:620,-0.7301,-0.1969,14.4192,50.5519,0.3491,0.2441,0.1789,291.6562
12:46:37:641,0.0887,-0.1933,13.0569,49.3019,0.3513,0.4364,0.16,291.6875
12:46:37:662,0.3999,-0.0329,11.1344,52.3556,0.139,0.3355,0.0553,291.5312
12:46:37:686,0.2036,0.1203,10.5298,51.1995,-0.1712,-0.0696,-0.0848,291.3281
12:46:37:702,-0.2728,0.0377,12.5912,52.1259,-0.2844,-0.3783,-0.186,291.2188
12:46:37:721,-1.4101,-0.7727,14.6766,52.8321,-0.0197,-0.2587,-0.0946,291.2344
12:46:37:741,-1.9751,-1.7472,13.78,51.5708,0.2847,0.058,0.2338,291.3906
12:46:37:762,-1.2329,-2.1721,10.9452,51.6599,0.3457,0.2119,0.5706,291.5781
12:46:37:786,-0.0993,-1.8573,8.1033,54.2746,0.1598,0.1525,0.7137,291.5156
12:46:37:803,1.0093,-1.4395,6.1688,51.5282,-0.2573,0.01,0.6255,291.0469
12:46:37:821,1.6354,-1.2935,5.6863,53.2956,-0.8029,-0.0411,0.4268,290.2812
12:46:37:841,1.1374,-1.1307,7.324,54.2106,-1.1414,0.0239,0.3123,289.5312
12:46:37:861,0.2144,-1.1079,10.8578,54.7441,-0.9417,0.1395,0.3166,288.9219
12:46:37:887,-0.3435,-1.0337,9.0861,51.9167,-0.4029,0.2348,0.4069,288.6875
12:46:37:907,-0.3494,-0.7823,7.6664,53.5799,-0.0376,0.2055,0.5656,288.1406
12:46:37:922,0.1162,-0.5608,7.002,53.8916,0.1095,0.0987,0.6977,287.7188
12:46:37:945,0.3126,-0.4375,6.8799,53.6562,0.1835,-0.0331,0.7086,287.1719
12:46:37:959,0.3389,-0.5309,6.8954,53.8783,0.2418,-0.1293,0.6569,286.4844
12:46:37:982,0.3066,-0.6889,7.3647,53.3044,0.2637,-0.231,0.593,285.6719
12:46:38:002,0.1486,-1.0157,7.7681,54.7222,0.3036,-0.2813,0.5504,284.8906
12:46:38:021,0.0731,-1.1223,7.7573,54.1001,0.3422,-0.1924,0.5555,284.1719
12:46:38:040,0.5891,-1.1187,7.1827,53.9762,0.3494,-0.0366,0.5786,283.5625
12:46:38:061,1.214,-1.0481,6.972,55.4513,0.2602,-0.0411,0.4692,282.9375
12:46:38:087,1.3181,-1.3509,8.8204,54.2543,0.0043,-0.3556,0.1962,282.2812
12:46:38:104,0.9231,-2.0165,12.2225,54.6356,-0.2256,-0.8643,-0.1303,281.7031
12:46:38:121,0.3987,-2.5995,14.7867,53.2463,-0.2453,-1.1463,-0.3138,281.2969
12:46:38:140,0.6729,-2.7839,15.6797,53.8562,-0.1313,-0.8979,-0.313,281.2656
12:46:38:162,1.6461,-2.4367,13.8171,55.2254,-0.0195,-0.1405,-0.2464,281.5
12:46:38:186,2.1932,-1.7172,11.2325,54.0722,-0.1015,0.6332,-0.3415,282.0156
12:46:38:203,1.7898,-1.3725,10.2437,55.3523,-0.4048,0.8764,-0.6198,282.2969
12:46:38:221,0.2407,-1.3653,11.2505,54.5247,-0.7241,0.6481,-0.9442,282.6875
12:46:38:244,-1.355,-2.4786,13.6076,55.9249,-0.8528,0.2396,-1.0997,283.4219
12:46:38:260,-1.1503,-3.5368,14.5676,53.9316,-0.6045,-0.0246,-0.8808,284.5156
12:46:38:280,0.3293,-3.3549,13.0186,54.1543,-0.1928,0.0979,-0.3916,285.7812
12:46:38:305,1.9035,-2.0644,10.8423,52.4992,0.0927,0.2207,0.0274,286.7188
12:46:38:323,2.356,-0.8529,9.3435,55.8925,0.1742,0.1757,0.0724,287.1719
12:46:38:404,1.925,-0.4507,8.4516,54.1703,0.1505,0.1339,-0.166,287.1562
12:46:38:405,1.3253,-0.2915,7.4916,56.9373,0.1105,0.2819,-0.3985,287.0938
12:46:38:405,0.8309,-0.082,6.2981,54.1354,0.114,0.491,-0.5098,287.1406
12:46:38:406,0.4933,0.1071,5.2303,54.6473,0.1454,0.5469,-0.5234,287.4844
12:46:38:422,0.145,0.1035,5.0591,53.3404,0.1433,0.3296,-0.5045,288.0469
12:46:38:440,-0.0633,0.0341,5.514,53.3527,0.1103,-0.0145,-0.4571,288.6562
12:46:38:464,-0.6631,-0.1395,6.6512,55.0301,0.0429,-0.3535,-0.4075,289.2656
12:46:38:486,-1.604,-0.1658,8.9532,54.6874,0.0099,-0.5927,-0.2906,290.0781
12:46:38:503,-1.3011,0.2245,10.3574,54.3343,0.2474,-0.5242,0.0199,290.5156
12:46:38:521,-0.5482,0.9176,9.4488,54.2437,0.7641,-0.3934,0.3187,290.8125
12:46:38:541,-0.6451,1.2564,8.9592,53.7416,1.1385,-0.6116,0.3619,290.7812
12:46:38:562,-1.1503,1.2552,10.6699,53.1822,1.2725,-1.153,0.3493,290.4375
12:46:38:586,-1.1491,1.1247,12.0334,53.478,1.2988,-0.6861,0.4407,290.0156
12:46:38:603,-0.4344,1.1438,11.5474,54.5507,1.0613,0.0135,0.491,289.6406
12:46:38:621,0.6753,1.4766,11.0745,54.5126,0.6615,0.6617,0.4335,289.2188
12:46:38:639,1.6797,1.6347,11.0158,52.5222,0.3569,1.0636,0.2535,288.7188
12:46:38:660,1.7407,1.4108,10.5729,53.873,0.1579,1.1038,0.0902,288.125
12:46:38:685,1.2176,0.9511,9.6009,52.8606,-0.0397,0.7988,0.0537,287.5938
12:46:38:704,1.056,0.7751,8.9437,54.3691,-0.4072,0.0436,0.0601,287.2656
12:46:38:720,0.9566,0.7129,12.3315,53.7271,-0.5193,-0.549,0.0399,287.0156
12:46:38:741,0.2515,-0.2484,16.3393,52.8025,0.0043,-0.3737,0.1603,286.9688
12:46:38:760,0.3209,-1.6155,15.2057,52.7323,0.5955,0.132,0.4015,286.9219
12:46:38:785,0.5041,-1.9136,10.0689,54.1452,0.5697,0.214,0.6306,286.8594
12:46:38:803,0.8237,-1.3605,7.0953,53.135,0.1348,-0.2443,0.6998,286.5469
12:46:38:820,0.9063,-0.8733,7.8076,53.3235,-0.1574,-0.7615,0.6857,286.2812
12:46:38:840,0.8273,-0.6422,9.8116,53.3235,-0.126,-0.9724,0.7272,285.5781
12:46:38:860,1.0392,-0.3741,10.8075,52.6598,0.1318,-1.0169,0.7912,284.7969
12:46:38:886,1.3684,0.0652,10.5573,52.4417,0.4013,-1.0038,0.8005,284.0469
12:46:38:906,1.2295,0.1682,10.1934,54.2695,0.6274,-0.7072,0.8375,283.2969
12:46:38:922,1.038,0.2424,9.1735,50.3824,0.8147,-0.2638,0.947,282.4375
12:46:38:939,1.3923,0.4986,7.6544,52.2274,0.9124,0.0928,0.9856,281.5625
12:46:38:960,1.9382,0.8709,6.0132,52.6298,0.8717,0.2625,0.8724,280.6562
12:46:38:986,2.2973,1.0828,4.7478,52.2591,0.7116,0.2159,0.675,279.5469
12:46:39:004,2.5009,1.1618,4.2091,54.606,0.4474,0.0039,0.4495,278.3594
12:46:39:021,2.4793,1.4264,4.9968,52.2671,0.1997,-0.2201,0.2047,276.8906
12:46:39:040,2.4338,1.5221,6.2562,52.2208,0.0248,-0.3101,-0.0557,276.2031
12:46:39:061,2.0747,1.4168,7.3216,52.5644,-0.1606,-0.2235,-0.2776,275.8125
12:46:39:091,1.6282,1.224,8.387,52.9826,-0.3838,0.0263,-0.431,275.75
12:46:39:105,1.4881,1.1402,9.4799,52.5719,-0.6205,0.2681,-0.5487,275.9844
12:46:39:122,1.8161,1.0972,11.3618,53.4666,-0.7212,0.3565,-0.701,276.4219
12:46:39:146,1.6174,0.7236,13.3502,53.4666,-0.555,0.3413,-0.8041,277
12:46:39:159,1.4785,-0.1275,13.7105,51.6339,-0.3004,0.3256,-0.7705,277.6875
12:46:39:180,1.6844,-0.5836,12.2333,51.2672,-0.2778,0.311,-0.7159,278.5625
12:46:39:205,1.9813,-0.3118,10.5322,52.5838,-0.6043,0.1818,-0.8097,279.4844
12:46:39:220,1.8209,0.325,11.0781,51.9069,-1.0517,-0.0917,-1.0528,280.2656
12:46:39:240,0.5927,0.0605,15.4643,52.6301,-0.9713,-0.0646,-1.158,281.1094
12:46:39:261,-0.0933,-2.3218,14.0864,52.0428,-0.3768,0.5461,-0.8515,282.2031
12:46:39:287,1.8963,-1.9064,10.9835,52.3633,-0.0714,1.2276,-0.2909,283.5625
12:46:39:304,4.2534,-0.9487,7.2258,51.5954,0.1816,1.621,0.1171,284.7031
12:46:39:320,4.4809,0.1251,4.5922,51.9171,0.1838,1.2124,-0.0624,285.3594
12:46:39:345,3.8476,0.3681,5.3643,51.6281,-0.2463,0.4185,-0.5202,285.3281
12:46:39:359,2.4266,0.0126,7.7944,53.5742,-0.637,-0.2251,-1.0179,285.1719
12:46:39:379,1.1026,-0.8984,9.0478,52.8245,-0.6208,-0.4856,-1.3135,285.4375
12:46:39:408,-0.2872,-1.3928,9.2489,53.3449,-0.3723,-0.427,-1.3452,286.3281
12:46:39:422,-0.9085,-1.0864,8.5905,52.0055,-0.1305,0.0697,-1.0643,287.7031
12:46:39:439,-0.693,0.0521,6.917,51.747,0.0605,0.7072,-0.68,289.1875
12:46:39:463,-0.5015,1.3713,5.2566,51.6587,0.1278,1.1203,-0.5066,290.6094
12:46:39:488,-0.6128,2.2308,6.158,53.9538,-0.0645,1.0388,-0.5617,291.5781
12:46:39:502,-1.2545,1.9267,9.462,52.4613,-0.3257,0.7357,-0.729,292.1875
12:46:39:520,-2.2804,1.0553,12.0872,51.8416,-0.2229,0.4558,-0.7988,292.75
12:46:39:539,-2.9388,0.8805,13.349,52.528,0.1659,0.3184,-0.6304,293.4531
12:46:39:561,-2.9579,1.0457,13.7644,52.28,0.5398,0.3144,-0.2443,294.2969
12:46:39:589,-2.9208,1.4778,13.1311,53.005,0.9539,0.3248,0.0977,295.1406
12:46:39:607,-2.4671,2.0381,10.5609,52.4465,1.3968,0.3797,0.3427,295.6719
12:46:39:626,-2.1726,2.8006,8.727,53.4832,1.3806,0.5184,0.5097,295.7344
12:46:39:640,-2.6682,3.1825,7.9632,52.4283,1.0522,0.6676,0.5744,295.4219
12:46:39:660,-2.8023,2.6055,9.1292,51.4892,0.7124,0.4604,0.601,294.9219
12:46:39:691,-2.0457,2.0034,10.8016,51.9094,0.5481,0.0127,0.7627,294.3438
12:46:39:702,-1.0258,2.1003,10.9428,52.8672,0.5481,-0.2781,1.0069,293.6875
12:46:39:720,-0.0502,2.2224,10.3598,51.96,0.4599,-0.4792,1.1051,292.8594
12:46:39:740,0.6849,1.7759,12.3315,52.7041,0.0908,-0.6768,0.9454,291.7812
12:46:39:761,0.5304,0.9188,14.3617,52.5902,-0.2037,-0.5762,0.6934,290.6562
12:46:39:786,-0.0969,0.1933,13.3167,52.9367,-0.0794,-0.0496,0.5248,289.6562
12:46:39:803,-0.0454,-0.2472,9.6811,53.0528,0.2003,0.5517,0.5134,288.9062
12:46:39:820,0.8537,-0.2604,7.2306,54.2226,0.2474,0.7211,0.577,288.6094
12:46:39:840,1.5061,-0.0832,6.4154,51.5911,0.1145,0.4066,0.5368,288.0312
12:46:39:860,1.3708,0.1658,5.8408,53.3698,-0.0091,0.0116,0.3459,287.3438
12:46:39:881,0.7818,0.246,5.2482,53.7697,-0.1702,-0.1833,0.095,286.625
12:46:39:904,-0.128,0.2819,5.1584,51.7391,-0.4312,-0.2195,-0.166,286.125
12:46:39:919,-1.373,0.1945,6.2885,52.1323,-0.7422,-0.2014,-0.3471,285.8594
12:46:39:940,-2.3414,0.0198,7.7621,53.2089,-0.8842,-0.1783,-0.3428,286.0312
12:46:39:960,-2.4288,0.2256,8.314,53.2975,-0.5356,-0.0648,0.1882,286.3906
12:46:39:987,-1.8398,0.8458,7.9692,51.8005,-0.395,-0.0683,0.3683,286.3906
12:46:40:006,-0.936,1.5305,7.6687,52.9648,-0.3899,-0.113,0.3752,286.7344
12:46:40:022,-0.2381,1.9279,8.2469,53.9387,-0.3899,-0.2196,0.2513,286.8281
12:46:40:039,-0.3889,1.9914,9.5099,54.6446,-0.2956,-0.333,0.1408,286.5938
12:46:40:060,-0.79,1.6394,11.126,51.7628,-0.0706,-0.3618,0.1121,285.7031
12:46:40:080,-1.0521,1.1151,12.3674,51.3691,0.269,-0.1048,0.1909,285.4062
12:46:40:106,-0.4859,0.926,11.3582,52.2322,0.4485,0.2489,0.2351,285.2656
12:46:40:124,0.1917,1.242,9.5231,51.6135,0.3388,0.2513,0.086,285.1562
12:46:40:139,0.3197,1.2013,9.8511,54.4343,0.1971,-0.0491,-0.1127,284.9531
12:46:40:163,-0.0753,0.4447,11.7078,52.7074,0.2458,-0.1929,-0.1559,284.6094
12:46:40:186,-0.2728,-0.41,12.1483,53.08,0.3675,-0.1346,-0.0347,284.75
12:46:40:203,0.4167,-0.8122,11.0769,53.602,0.3768,-0.1397,0.0742,284.8594
12:46:40:220,1.9298,-0.2328,9.8475,53.2219,0.187,-0.2443,-0.1375,285
12:46:40:243,2.5823,0.574,9.5099,52.5813,-0.2032,-0.4542,-0.7529,284.9844
12:46:40:263,1.4893,0.0233,11.3283,52.2398,-0.5284,-0.4249,-1.3487,284.9844
12:46:40:283,-1.4615,-1.9974,13.5956,51.8704,-0.5952,0.0087,-1.3394,285.4531
12:46:40:301,-3.3853,-3.0963,14.2073,51.5807,-0.4192,0.5839,-0.6603,286.7188
12:46:40:319,-2.5545,-1.8621,12.5266,51.9949,-0.1667,0.7195,0.0679,288.375
12:46:40:340,-0.0741,0.3166,10.4029,52.1047,0.1193,0.3778,0.2939,289.0625
12:46:40:359,1.8089,1.7208,7.3168,51.2994,0.0586,0.0036,0.0223,289.75
12:46:40:379,2.3309,2.0153,5.1249,51.6733,-0.4589,-0.0978,-0.432,289.6094
12:46:40:401,1.7587,1.8597,5.0196,51.7466,-1.0171,-0.06,-0.8374,289.2656
12:46:40:419,0.8477,1.5688,6.2777,52.399,-1.2421,-0.1143,-1.08,289.2344
12:46:40:478,-0.3973,1.2408,8.2888,52.0957,-0.9769,-0.2097,-1.0898,289.7031
12:46:40:479,-1.2197,1.1414,9.638,52.0115,-0.3654,-0.1306,-0.8962,290.5938
12:46:40:479,-1.2724,1.5748,8.6695,52.7579,0.1539,0.1762,-0.684,292.3125
12:46:40:499,-0.9265,2.3469,6.3304,52.7286,0.3049,0.4843,-0.5766,293.4219
12:46:40:519,-0.7253,2.8329,4.6042,51.6669,0.142,0.6247,-0.6382,294.3281
12:46:40:539,-2.2816,2.9155,5.2829,51.5567,0.0471,0.5765,-0.5958,295.0312
12:46:40:560,-4.0904,2.1159,7.828,53.1644,0.3417,0.3972,-0.2496,295.6875
12:46:40:580,-5.2037,0.8458,10.2605,51.9929,0.9457,0.2505,0.3416,296.4219
12:46:40:603,-5.2001,-0.0748,10.4939,51.5955,1.4362,0.1624,1.0063,296.9531
12:46:40:621,-3.9767,-0.003,9.0011,52.3865,1.3659,0.0692,1.4348,296.9844
12:46:40:640,-1.9655,0.5728,8.9449,52.712,0.922,-0.0923,1.4966,296.2969
12:46:40:660,0.2922,1.339,12.8594,53.056,0.6743,-0.0792,1.2892,294.9688
12:46:40:679,-0.1555,1.254,11.7473,51.8141,0.6943,0.1384,0.9685,293.3438
12:46:40:704,-0.7696,1.0696,10.1791,53.4194,0.526,0.5195,0.682,291.875
12:46:40:722,-1.4209,0.6195,9.3112,53.136,0.0682,0.8287,0.4846,290.625
12:46:40:740,-1.543,-0.0808,10.7609,53.5127,-0.4456,0.5698,0.3983,289.7188
12:46:40:759,-1.4029,-0.732,14.157,50.7746,-0.73,-0.2827,0.4497,289.0469
12:46:40:779,-0.8163,-1.0241,14.3641,51.5541,-0.4493,-0.9306,0.6074,288.1875
12:46:40:803,-0.0394,-0.5992,11.3714,51.7315,-0.0506,-1.0033,0.7605,287.9219
12:46:40:820,0.3604,0.0162,8.8587,52.915,-0.0807,-0.7591,0.735,287.3594
12:46:40:846,0.6537,0.3717,7.6687,51.7845,-0.3521,-0.5551,0.5366,286.6406
12:46:40:858,0.7244,0.8422,7.6005,51.4465,-0.5779,-0.5367,0.3493,285.8281
12:46:40:879,0.5161,1.2324,7.4533,52.9505,-0.6203,-0.6552,0.2822,285.1406
12:46:40:903,0.0264,1.1905,8.0027,51.7704,-0.5457,-0.9421,0.3272,284.6875
12:46:40:923,-0.3291,0.9978,9.2717,51.409,-0.4368,-1.1591,0.4718,284.3594
12:46:40:939,-0.1376,0.7775,9.6428,51.1136,-0.2208,-1.0664,0.7017,284.0625
12:46:40:959,0.5113,0.8278,8.3978,51.2683,0.1052,-0.7759,0.9187,283.7031
12:46:40:979,1.2247,1.0816,7.5682,50.1455,0.2874,-0.578,1.0202,283.1094
12:46:41:002,1.3636,1.0385,8.1512,52.2168,0.282,-0.5948,0.9387,282.2188
12:46:41:021,0.9578,0.4603,8.5845,52.5304,0.3055,-0.6137,0.7376,281.1875
12:46:41:039,0.4586,-0.3262,8.3595,52.2582,0.3513,-0.5311,0.5816,280.0625
12:46:41:059,0.2778,-0.6566,8.4852,51.5026,0.2738,-0.472,0.5286,278.7656
12:46:41:080,0.9159,-0.3681,10.0378,50.0577,0.0802,-0.5991,0.5629,278.1562
12:46:41:105,1.8999,0.1766,11.5761,49.3688,-0.0093,-0.8361,0.5264,277.5781
12:46:41:121,2.2746,0.495,12.0346,49.0045,0.0373,-0.9663,0.2758,276.9688
12:46:41:138,1.8245,0.173,12.1124,49.0045,-0.0075,-0.8443,-0.1346,276.4375
12:46:41:159,1.1613,-0.4459,12.1339,47.5109,-0.1928,-0.4512,-0.4882,276.2031
12:46:41:179,0.8537,-0.8218,11.8179,50.0223,-0.387,0.0534,-0.6496,276.4219
12:46:41:203,1.1888,-1.0134,11.0649,49.825,-0.5212,0.434,-0.6528,277.0312
12:46:41:218,1.6617,-0.9319,10.4652,50.6789,-0.6064,0.5616,-0.6155,277.7656
12:46:41:239,1.4163,-0.8996,10.3874,50.7014,-0.7108,0.4263,-0.6563,278.5312
12:46:41:260,0.9973,-1.1785,11.4109,48.7391,-0.8741,0.1757,-0.7189,279.25
12:46:41:279,0.6238,-1.4694,13.1886,48.7392,-1.0607,0.0889,-0.684,279.9844
12:46:41:303,0.6262,-1.3186,14.3426,49.5645,-1.0853,0.307,-0.5237,280.4062
12:46:41:321,1.882,-0.9619,14.4395,49.399,-0.9015,0.6859,-0.2552,280.8594
12:46:41:339,3.4669,-0.6841,12.2357,48.9568,-0.5185,1.0199,-0.056,282.3594
12:46:41:360,4.1181,-0.3873,9.7637,50.4987,-0.225,1.0425,-0.084,282.6719
12:46:41:380,3.6477,-0.228,8.0291,48.3867,-0.249,0.5746,-0.5559,282.75
12:46:41:406,2.3871,-0.1395,7.2534,47.2021,-0.3651,0.4244,-0.689,282.8438
12:46:41:424,1.1409,-0.1885,7.4257,45.544,-0.3502,0.4018,-0.6336,283.1719
12:46:41:440,0.5125,-0.0509,7.409,49.1051,-0.2003,0.4084,-0.4632,283.8125
12:46:41:458,0.6358,0.2711,6.8272,47.2789,-0.0245,0.3163,-0.3311,284.5938
12:46:41:480,1.0536,0.7117,6.1353,49.1936,0.0796,0.1355,-0.3362,285.2969
12:46:41:505,1.1888,0.9703,5.8599,47.0223,0.1007,-0.0076,-0.4408,285.8281
12:46:41:522,0.7459,1.0145,5.8863,48.0315,0.0522,-0.0369,-0.5378,286.2031
12:46:41:538,-0.0214,0.9439,6.2131,47.8698,-0.0421,0.0018,-0.5247,286.5938
12:46:41:557,-0.4823,1.0157,7.075,47.6996,-0.0996,0.043,-0.4278,287.0781
12:46:41:578,-0.608,1.2899,8.4337,45.337,0.0168,0.0702,-0.3505,287.6875
12:46:41:606,-0.8905,1.4168,9.1496,45.7158,0.2245,0.0905,-0.3178,288.2969
12:46:41:621,-1.4592,1.4084,9.0047,45.1785,0.2927,0.2681,-0.2765,288.9688
12:46:41:639,-1.7034,1.4036,8.405,47.5204,0.1217,0.4968,-0.2656,289.3438
12:46:41:659,-1.9081,1.2348,8.8383,44.6189,-0.1665,0.61,-0.2861,289.6875
12:46:41:679,-2.4563,0.9032,10.5813,45.1465,-0.3305,0.5235,-0.2065,289.9844
12:46:41:703,-2.6383,0.5872,13.2436,44.7212,-0.2211,0.3219,-0.0725,290.2969
12:46:41:721,-2.2648,-0.0449,15.4786,45.4495,0.1329,0.3134,0.0703,290.5938
12:46:41:739,-1.6303,-0.7775,14.8729,43.9428,0.3145,0.503,0.2005,290.75
12:46:41:759,-0.954,-0.7799,13.1012,42.3885,0.1236,0.6295,0.2495,290.7656
12:46:41:779,-0.2656,-0.5908,12.614,43.6378,-0.1478,0.5656,0.1286,290.6875
12:46:41:803,-0.4512,-0.6841,13.2736,43.695,-0.2535,0.3738,-0.0009,290.4688
12:46:41:821,-1.343,-1.3258,14.4276,42.9353,-0.0905,0.324,0.0545,290.2031
12:46:41:838,-2.0386,-2.2571,13.9463,41.7825,0.1997,0.487,0.3674,290.0625
12:46:41:858,-1.6818,-2.5492,11.6216,41.7521,0.3776,0.4937,0.7496,290.0469
12:46:41:878,-0.3878,-2.1566,9.2669,41.6208,0.38,0.1506,0.9315,289.9844
12:46:41:901,0.7052,-1.3533,7.7142,42.7009,0.192,-0.3809,0.8657,289.2188
12:46:41:917,0.9961,-0.7464,7.9848,41.0757,0.0032,-0.7274,0.6897,288.25
12:46:41:938,0.7555,-0.6243,8.8335,42.059,-0.0029,-0.7032,0.5347,287.2656
12:46:41:958,-0.0538,-0.5573,8.3858,42.1195,0.0216,-0.4483,0.5153,286.3906
12:46:41:979,-0.6858,-0.5213,7.549,41.8884,0.0437,-0.1644,0.6301,285.7031
12:46:42:003,-0.6918,-0.404,6.6189,40.4897,0.0935,-0.0403,0.7882,285.1406
12:46:42:021,-0.2225,-0.0964,5.7043,38.695,0.1412,-0.1682,0.8806,284.5312
12:46:42:039,0.0935,0.1921,5.4182,40.2016,0.1936,-0.4353,0.8956,283.7188
12:46:42:059,0.3042,0.2532,6.067,40.7859,0.2272,-0.6278,0.8476,282.75
12:46:42:079,0.0468,0.1957,6.9768,40.1544,0.1696,-0.6592,0.7621,281.7969
12:46:42:100,-0.3889,0.1024,7.7765,40.5399,0.0914,-0.5184,0.6732,280.8125
12:46:42:120,-0.6272,0.1562,8.3667,38.76,0.057,-0.3551,0.6324,279.9062
12:46:42:139,-0.6116,0.3106,9.2022,38.5427,0.0224,-0.3136,0.5989,279.0938
12:46:42:159,-0.2645,0.3801,9.9827,38.5078,0.0088,-0.3501,0.5326,278.4062
12:46:42:180,0.1067,0.1359,11.1272,40.4768,-0.0282,-0.4595,0.4002,277.375
12:46:42:205,0.3652,-0.3549,12.5649,37.5287,-0.1095,-0.5104,0.2449,276.7812
12:46:42:224,0.6238,-0.6494,13.7081,39.2251,-0.208,-0.3367,0.1275,276.5625
12:46:42:238,1.1469,-0.726,13.6171,38.4551,-0.2557,0.0883,0.0465,276.2031
12:46:42:258,1.761,-0.6746,12.0418,39.1313,-0.2354,0.5229,-0.0504,276.0156
12:46:42:279,1.8975,-0.4124,10.7405,37.6171,-0.306,0.6715,-0.2374,275.9219
12:46:42:305,1.4738,-0.2963,10.8566,38.6286,-0.4983,0.4984,-0.5143,275.9219
12:46:42:321,0.0648,-0.8841,13.0629,39.5243,-0.6709,0.1493,-0.811,276.0469
12:46:42:338,-0.9588,-2.1015,14.6634,38.8146,-0.5033,-0.1066,-0.8723,276.4688
12:46:42:362,-0.8714,-2.548,12.8462,38.5684,0.0107,0.0676,-0.529,277.1875
12:46:42:377,0.9386,-1.7807,9.6045,39,0.4727,0.3408,0.0311,278.2031
12:46:42:399,3.1162,-0.7009,6.9613,38.1198,0.6392,0.242,0.3421,279.0469
12:46:42:421,3.698,-0.0533,5.9377,38.8491,0.4189,-0.0656,0.1211,279.3438
12:46:42:441,3.0479,-0.0377,7.2438,39.4621,-0.098,-0.2723,-0.3346,279.0625
12:46:42:459,1.7886,-0.5429,8.2218,39.1249,-0.5025,-0.1636,-0.7599,278.7344
12:46:42:477,0.3916,-0.8338,8.3451,38.3563,-0.6786,0.1666,-1.0014,279.1094
12:46:42:535,-0.3758,-0.756,8.7509,39.461,-0.7713,0.4715,-1.0105,279.9688
12:46:42:535,-1.2185,-0.3633,9.4045,39.2834,-0.7356,0.6612,-0.9066,281.1094
12:46:42:537,-1.8542,-0.3406,10.0713,38.5414,-0.535,0.7986,-0.7596,282.2031
12:46:42:559,-1.9248,-0.4543,9.3591,39.8721,-0.1204,0.9634,-0.4904,283.2188
12:46:42:581,-0.9779,-0.3011,7.8687,38.9868,0.3694,0.9408,-0.1159,284.0938
12:46:42:606,-0.3267,0.4447,5.909,39.8198,0.7955,0.6292,0.1672,284.6719
12:46:42:621,0.0097,1.1391,4.7287,39.599,0.9374,0.1432,0.2532,284.8438
12:46:42:639,0.279,1.5137,5.4601,39.8721,0.7156,-0.2528,0.1674,284.7188
12:46:42:658,0.0073,1.6215,8.3499,38.2585,0.3121,-0.4664,-0.0128,284.4844
12:46:42:679,-0.7684,1.2863,11.1535,39.0315,0.086,-0.4342,-0.1828,284.3594
12:46:42:706,-1.8482,0.8242,13.0018,39.5227,0.1329,-0.2648,-0.2368,284.3906
12:46:42:723,-2.0098,0.5441,13.2389,39.9861,0.347,-0.0496,-0.0949,284.3906
12:46:42:738,-1.2688,0.495,12.1387,41.5886,0.535,0.1389,0.1368,284.875
12:46:42:767,-0.2513,0.7668,11.5174,39.5683,0.3068,0.2542,0.2679,284.9688
12:46:42:778,0.443,1.0122,11.6958,40.898,0.1859,0.2577,0.071,284.875
12:46:42:799,0.394,1.0445,11.5366,41.2424,0.0658,0.3067,-0.1495,284.875
12:46:42:819,-0.0154,0.914,10.9979,41.6073,-0.1409,0.3871,-0.3157,284.2812
12:46:42:839,-0.5242,1.1283,10.7477,39.2422,-0.4147,0.2923,-0.436,284.2031
12:46:42:864,-1.2245,1.0876,11.9723,41.147,-0.5292,0.01,-0.481,284.375
12:46:42:877,-1.7932,0.5393,14.5676,39.2463,-0.1851,0.0204,-0.3165,284.6875
12:46:42:897,-1.1635,0.1287,14.1379,41.4566,0.2743,0.2888,-0.1425,285.1406
12:46:42:920,-0.4249,0.2233,10.7178,40.2904,0.3286,0.3341,-0.1282,285.6562
12:46:42:938,0.3497,0.2915,8.5857,42.0967,0.0701,0.1469,-0.3082,286.0156
12:46:42:958,0.4287,0.0605,8.6779,39.5683,-0.1217,0.035,-0.4991,286.1875
12:46:42:979,-0.2393,-0.4172,8.9892,40.1364,-0.1238,0.0745,-0.5415,286.3438
12:46:43:003,-1.276,-0.8122,8.6791,39.7333,-0.0104,0.1826,-0.3401,286.6875
12:46:43:024,-1.6974,-0.8589,7.6987,40.0259,0.1478,0.2236,0.0095,287.2344
12:46:43:038,-1.5561,-0.5405,6.401,40.1731,0.2775,0.0798,0.3318,287.8438
12:46:43:057,-0.9109,-0.2604,5.6205,40.6794,0.3539,-0.2148,0.5267,288.2812
12:46:43:078,-0.535,-0.082,5.2781,39.9372,0.3846,-0.5517,0.6101,288.0938
12:46:43:104,-0.6487,-0.149,5.6037,40.2537,0.4205,-0.8534,0.6825,287.6094
12:46:43:121,-0.6451,-0.337,6.0359,41.7382,0.4453,-1.0249,0.7637,286.9844
12:46:43:139,-0.5254,-0.3801,6.3244,39.3294,0.4389,-1.2369,0.8162,286.3438
12:46:43:158,-0.9145,-0.4196,7.2713,39.3294,0.5771,-1.6577,0.932,285.5781
12:46:43:179,-1.1946,-0.2795,8.1895,41.8218,0.8128,-1.9892,1.0825,284.75
12:46:43:204,-1.0378,0.1706,8.2098,41.9525,0.8932,-2.071,1.1534,283.8438
12:46:43:221,-0.1196,0.7799,7.907,39.7539,0.6341,-1.9131,0.9747,282.8594
12:46:43:237,0.6059,1.181,8.7761,40.9637,0.1148,-1.6065,0.576,281.7031
12:46:43:259,0.9027,0.7931,11.9256,40.4725,-0.3254,-1.063,0.1584,281.1094
12:46:43:278,1.3516,-0.2328,15.8354,39.4973,-0.4027,-0.1855,-0.0658,280.1562
12:46:43:302,1.6258,-1.1235,16.8218,40.3418,-0.2602,0.6638,-0.0579,279.6406
12:46:43:321,2.0555,-1.0265,15.894,41.5882,-0.0487,1.1863,0.0963,279.5625
12:46:43:337,3.4166,-0.5309,13.6746,39.85,0.1217,1.2918,0.0796,279.6875
12:46:43:358,4.3923,0.2101,10.713,41.0897,-0.045,1.014,-0.2038,279.7188
12:46:43:378,4.5168,0.5381,9.2693,42.5084,-0.5582,0.4825,-0.6395,279.4062
12:46:43:404,3.5244,-0.021,11.8371,41.9778,-0.8346,0.0761,-0.9111,279.3594
12:46:43:421,1.8197,-1.2887,14.9711,40.6062,-0.5694,0.0673,-0.7482,279.7812
12:46:43:438,1.2164,-1.831,15.0537,42.8879,-0.0961,0.2217,-0.2789,280.7188
12:46:43:462,2.2674,0.0509,10.1791,42.6717,0.176,0.1754,0.1139,281.75
12:46:43:477,2.4015,1.2815,8.9676,42.7949,0.2541,-0.0291,0.2228,282.3438
12:46:43:500,2.2578,1.8166,7.8555,44.2271,0.2788,-0.0635,0.1014,282.3906
12:46:43:521,1.7682,1.9878,6.8116,43.9246,0.249,0.1373,-0.0994,282.1406
12:46:43:539,1.305,1.9806,6.0347,42.4083,0.2016,0.3866,-0.2714,281.9375
12:46:43:557,0.8956,1.9231,5.7211,43.1805,0.1867,0.5019,-0.3878,281.9219
12:46:43:582,0.5819,1.7244,5.8551,43.2447,0.2093,0.4271,-0.4445,282.125
12:46:43:606,0.1677,1.6837,6.6907,44.1897,0.225,0.2694,-0.424,282.4844
12:46:43:622,0.1773,2.1027,8.4181,43.9772,0.2296,0.2494,-0.3135,282.9219
12:46:43:639,0.9362,2.572,9.723,43.8557,0.3443,0.4899,-0.1631,283.3906
12:46:43:658,1.682,2.9191,9.1316,46.0294,0.6413,0.8732,-0.1351,283.9531
12:46:43:678,1.7646,3.0197,6.8631,45.3877,0.8954,1.0998,-0.2722,284.0938
12:46:43:700,0.4909,3.1131,6.4728,44.287,0.8056,0.9325,-0.5218,284.1875
12:46:43:722,-1.4999,2.6019,8.721,44.3336,0.4823,0.4324,-0.7106,284.4219
12:46:43:738,-2.6539,1.8214,11.4983,45.9687,0.3473,0.0015,-0.6248,284.625
12:46:43:758,-2.7005,1.394,11.7233,45.8635,0.5193,0.0817,-0.2214,285.3125
12:46:43:777,-1.5621,1.7316,11.205,46.8989,0.6962,0.2982,0.2782,286.1406
12:46:43:798,-0.0909,2.5241,10.3658,46.3003,0.8112,0.458,0.6782,286.6719
12:46:43:821,0.8896,3.1023,9.9816,48.2973,0.7942,0.3496,0.7203,286.6562
12:46:43:838,1.0907,3.052,10.0737,45.8568,0.6442,0.234,0.4884,286.0469
12:46:43:860,0.5496,2.4211,10.5585,47.8696,0.3393,0.2417,0.1573,285.1875
12:46:43:878,-0.3638,1.8238,11.3893,47.2071,-0.0136,0.2596,-0.0746,284.5
12:46:43:897,-1.2604,1.4407,12.9456,48.2043,-0.2858,0.2143,-0.1503,284.125
12:46:43:920,-1.6136,0.7428,12.8869,47.1964,-0.2431,0.2961,-0.0925,284.0781
12:46:43:938,-1.6711,0.7548,10.5238,48.5267,0.0661,0.5072,0.0567,284.2188
12:46:43:957,-1.1527,1.5101,8.5055,45.6914,0.2202,0.4409,0.2359,284.2656
12:46:43:978,-0.6499,1.9758,8.3188,47.5555,0.0985,-0.0528,0.2955,284.1406
12:46:43:999,-0.7732,1.7113,9.9061,47.2969,-0.1364,-0.7112,0.1994,283.8125
12:46:44:021,-1.094,1.0002,11.0769,48.6184,-0.2008,-0.9229,0.1579,283.5156
12:46:44:040,-1.185,0.5704,10.4077,49.2955,-0.0453,-0.5804,0.2804,283.375
12:46:44:066,-0.6966,0.7835,8.1631,49.7957,0.2416,-0.0528,0.5302,283.1094
12:46:44:078,-0.0119,1.4048,6.1724,49.2481,0.5228,0.1714,0.8215,282.5156
12:46:44:101,0.5388,1.7711,5.1716,49.3172,0.542,-0.0803,0.776,281.6562
12:46:44:122,0.4478,1.971,4.2115,49.1682,0.4818,-0.3069,0.6668,280.7656
12:46:44:139,0.1976,2.1733,3.4131,49.8018,0.1582,-0.61,0.5688,279.9062
12:46:44:160,0.3808,2.171,4.9346,50.6322,-0.2168,-0.423,0.5483,279.5469
12:46:44:178,0.856,2.0752,7.2797,50.5266,-0.3348,0.0116,0.5121,279.5469
12:46:44:201,0.9626,2.6977,8.1667,50.5859,-0.2085,0.3554,0.4135,278.6875
12:46:44:218,0.8716,3.5237,7.6268,50.1473,-0.0895,0.3174,0.2575,278.1562
12:46:44:236,0.8692,4.0289,7.0475,49.1877,-0.0751,0.0154,0.0612,277.5625
12:46:44:256,0.4071,3.9199,7.087,51.9729,-0.1784,-0.4137,-0.1189,277.0156
12:46:44:277,-0.5027,3.3704,8.7366,50.4927,-0.2778,-0.7431,-0.1322,276.6875
12:46:44:299,-0.6463,2.4319,11.1727,51.0822,-0.2461,-0.729,-0.0075,276.6094
12:46:44:322,0.1486,2.068,12.1471,51.4571,-0.2799,-0.4936,0.1366,276.8125
12:46:44:336,1.2044,2.1183,12.6164,51.1956,-0.4125,-0.2121,0.1736,277.0781
12:46:44:356,2.2938,2.0393,12.6008,50.663,-0.429,0.013,0.0274,277.2031
12:46:44:377,1.931,2.3338,11.3522,51.3743,-0.4397,-0.1413,-0.1961,277.125
12:46:44:396,0.941,2.3373,10.7513,51.3211,-0.4562,-0.5088,-0.3101,276.9531
12:46:44:417,0.4921,1.6909,11.3247,51.3435,-0.3686,-0.5517,-0.3053,276.9219
12:46:44:436,0.5292,0.8793,11.0589,52.3051,-0.2394,-0.2092,-0.2302,277.6094
12:46:44:455,0.9578,0.3825,9.0418,52.4375,-0.294,0.0614,-0.1236,278.0156
12:46:44:477,1.8341,0.2879,6.7015,53.2332,-0.7366,-0.2638,-0.0973,278.1875
12:46:44:496,2.4961,0.6327,6.9984,51.3659,-1.3769,-0.8193,-0.1977,278.3906
12:46:44:516,2.8899,0.4986,9.3818,53.0136,-1.7918,-0.9903,-0.4001,278.5
12:46:44:572,2.4865,0.0712,11.4911,52.4458,-1.7841,-0.6483,-0.6038,278.7188
12:46:44:573,1.0488,0.1167,12.262,51.459,-1.3793,-0.1562,-0.6363,279.2031
12:46:44:577,0.0695,0.1431,11.1104,52.8459,-0.8282,0.2252,-0.4808,279.9219
12:46:44:597,0.0588,0.2221,8.903,53.3596,-0.4645,0.3437,-0.2824,280.7188
12:46:44:616,-0.128,0.6207,7.397,52.0101,-0.3223,0.3613,-0.1127,281.0938
12:46:44:637,-0.3447,0.8278,7.0127,52.3715,-0.2115,0.4167,0.0401,281.6562
12:46:44:657,-0.274,0.8517,7.057,54.3434,-0.131,0.5296,0.1821,281.9844
12:46:44:677,0.1414,1.3342,7.0606,55.0209,-0.0679,0.5621,0.2511,282.1094
12:46:44:697,0.5759,1.9184,7.3383,54.0791,0.021,0.3243,0.1904,282.0469
12:46:44:724,0.6801,2.396,8.1057,53.6962,0.1542,0.0137,0.0689,281.8281
12:46:44:742,0.4023,2.4068,8.8479,54.3535,0.2679,-0.3879,-0.0264,281.5156
12:46:44:757,0.2336,2.1542,10.0845,54.2442,0.2961,-0.5444,-0.0776,281.25
12:46:44:777,0.5867,1.989,11.284,54.9484,0.184,-0.2736,-0.1516,281.2344
12:46:44:800,0.8548,1.825,12.4033,55.0703,0.0226,0.2215,-0.2696,281.3125
12:46:44:824,0.6226,1.7711,13.5429,56.1821,-0.016,0.6481,-0.3553,281.4375
12:46:44:839,0.1474,1.3509,14.3629,56.2502,0.1494,0.8806,-0.3487,281.6875
12:46:44:861,0.042,0.6075,12.0645,55.1185,0.3867,0.9272,-0.2517,282.0312
12:46:44:879,0.0169,0.9319,10.6938,56.1195,0.4242,0.7387,-0.1564,282.4062
12:46:44:902,0.1198,1.0684,11.1487,57.2432,0.2341,0.2862,-0.1071,282.7031
12:46:44:920,-0.3447,0.6542,13.1994,55.9149,0.0703,-0.3085,-0.1428,282.9062
12:46:44:938,-0.5063,-0.1933,13.5142,56.039,0.2133,-0.5953,-0.1074,283.0156
12:46:44:957,-0.7169,-0.6482,10.9919,58.4803,0.4844,-0.3152,0.0167,283.1562
12:46:44:977,-0.6858,-0.5788,8.3415,57.4528,0.4927,0.0705,0.1925,283.3438
12:46:44:999,-0.189,-0.4914,7.2665,57.0681,0.229,0.1176,0.36,283.4375
12:46:45:020,0.5532,-0.3693,7.3276,56.4352,-0.0652,-0.1192,0.4873,283.3438
12:46:45:038,1.1398,-0.1526,7.6723,57.6922,-0.2434,-0.4353,0.5475,282.7812
12:46:45:057,1.5444,0.1897,8.4169,57.3755,-0.319,-0.7202,0.5435,282.2656
12:46:45:077,2.1513,0.4866,9.4871,59.2804,-0.3073,-0.8526,0.5057,281.6719
12:46:45:098,2.4542,0.9032,10.64,58.4099,-0.1475,-0.8347,0.3922,281.0938
12:46:45:125,2.2722,1.1774,10.3167,57.1926,0.1715,-0.6427,0.229,280.5625
12:46:45:143,1.7646,1.0768,8.3846,57.8416,0.502,-0.3287,0.0394,280.375
12:46:45:157,1.4295,0.7464,6.3352,56.8908,0.5947,-0.0363,-0.1122,280.0625
12:46:45:177,1.0763,0.2328,5.1668,56.8908,0.4061,0.1003,-0.1716,279.9219
12:46:45:197,1.2152,0.0629,4.2774,57.59,0.1228,0.0683,-0.0653,279.9688
12:46:45:222,1.8592,1.1211,4.8675,56.8778,-0.1236,-0.309,0.1456,280.1094
12:46:45:241,3.0431,1.9591,8.2793,57.3755,-0.3523,-0.9977,0.1366,280.2656
12:46:45:257,2.2507,1.8405,12.3279,57.1255,-0.4157,-1.3509,-0.2376,280.2031
12:46:45:277,0.7687,0.647,13.4017,58.7894,-0.2189,-0.8832,-0.6035,280.0625
12:46:45:298,0.5771,-0.0281,11.4205,57.2058,0.0621,-0.0843,-0.6584,280.2031
12:46:45:322,1.4678,0.4783,10.3706,57.4513,0.0277,0.4409,-0.5332,280.8281
12:46:45:338,2.4398,0.8134,11.5114,57.5241,-0.2328,0.4465,-0.5644,281.9531
12:46:45:357,2.2818,0.3454,13.0377,58.4168,-0.3486,0.1717,-0.7937,282.5312
12:46:45:377,2.0388,-0.246,13.1215,57.4546,-0.2746,0.1019,-0.9436,283.1562
12:46:45:398,1.9274,-0.3645,11.6515,56.5861,-0.1763,0.3195,-0.9474,284.0156
12:46:45:421,1.5623,-0.0365,10.0797,57.2411,-0.2328,0.5509,-0.9356,285.1094
12:46:45:439,0.9626,0.2747,9.8223,57.2414,-0.4378,0.5357,-0.9804,286.1875
12:46:45:463,0.5041,0.064,11.2205,55.53,-0.6514,0.3893,-1.0182,287.2344
12:46:45:477,0.4083,-0.4818,11.363,56.365,-0.5822,0.352,-0.9689,288.2812
12:46:45:497,0.8213,-0.8015,9.8175,55.1398,-0.3494,0.3935,-0.8224,289.4531
12:46:45:522,1.5492,-1.0289,8.4971,55.6644,-0.3025,0.2305,-0.6749,290.5625
12:46:45:541,1.4941,-0.9212,9.4919,56.596,-0.5428,-0.1258,-0.627,291.4531
12:46:45:563,0.9339,-0.6973,10.8028,56.5364,-0.6618,-0.0377,-0.5766,292.2344
12:46:45:577,0.2611,-0.3645,10.3503,55.2579,-0.4655,0.3826,-0.4611,292.2344
12:46:45:599,0.297,-0.1407,8.4911,54.9363,-0.2884,0.6271,-0.3295,293.6562
12:46:45:623,0.783,0.0664,6.5255,54.5048,-0.1992,0.4462,-0.2539,294
12:46:45:641,0.8213,0.6423,5.9665,56.231,-0.1329,0.0231,-0.1937,294
12:46:45:657,0.959,1.242,6.316,53.9539,-0.0735,-0.3176,-0.1947,295.2344
12:46:45:678,0.7507,1.6394,7.4593,55.3167,0.0392,-0.2654,-0.2802,295.7344
12:46:45:696,0.291,1.5916,7.6795,54.44,0.1598,0.0116,-0.3777,295.7344
12:46:45:722,0.1294,1.6083,7.3072,53.8609,0.2373,0.0755,-0.481,295.9531
12:46:45:740,0.8297,2.3517,8.6492,55.58,0.4227,-0.2603,-0.7292,296.2656
12:46:45:756,1.9801,2.9263,10.8854,53.7787,0.571,-0.2925,-1.2848,296.6875
12:46:45:776,0.3892,2.3122,11.7018,52.9323,0.375,0.3123,-1.7388,297.2344
12:46:45:796,-1.7513,0.9966,12.6726,52.5998,0.1577,1.1674,-1.7079,298.0156
12:46:45:822,-2.3067,-0.1586,13.0246,53.5065,0.2109,1.7805,-1.297,299.4844
12:46:45:840,-1.8757,-0.2005,12.1136,53.4081,0.4312,1.6697,-0.7953,301.4688
12:46:45:856,-0.9731,0.4711,11.0948,50.8948,0.7148,0.8899,-0.5439,303.3906
12:46:45:876,-0.2106,0.8685,10.5047,51.593,0.8378,0.0755,-0.5495,305.625
12:46:45:896,-0.2058,0.3729,10.6531,52.0288,0.7177,-0.2374,-0.5479,306.2344
12:46:45:916,-0.3123,-0.0988,10.8973,53.1657,0.4623,-0.1857,-0.4717,306.5625
12:46:45:940,0.1414,-0.2137,11.1188,50.6657,0.0951,-0.0377,-0.4659,307.5469
12:46:45:957,0.6478,-0.1466,12.2345,51.1275,-0.2306,0.0114,-0.5713,307.8594
12:46:45:976,0.3533,-0.4794,14.4348,49.6133,-0.2091,0.2193,-0.6752,308.3906
12:46:45:996,-1.3957,-1.3258,14.7316,51.7037,0.1044,0.6154,-0.4728,308.9375
12:46:46:020,-2.3522,-1.8166,12.1591,51.6452,0.3057,0.8162,0.0164,309.6562
12:46:46:037,-2.3606,-1.1355,9.4668,50.2419,0.3342,0.5605,0.4591,310.3438
12:46:46:056,-1.7022,-0.2616,8.126,49.2105,0.3196,0.0904,0.6599,310.5938
12:46:46:078,-1.1252,0.2903,7.4341,49.5759,0.2397,-0.259,0.7054,310.2656
12:46:46:101,-0.8391,0.5573,7.0211,50.5258,0.0732,-0.361,0.731,309.5938
12:46:46:123,-0.7277,0.7524,6.9792,48.3793,-0.0677,-0.3282,0.7941,308.8281
12:46:46:140,-0.6008,0.9535,6.7362,48.7994,-0.1369,-0.309,0.8836,308.4844
12:46:46:156,-0.4548,1.0181,6.3651,49.907,-0.1864,-0.3959,0.9906,307.6719
12:46:46:177,-0.1459,1.0576,6.7733,46.8933,-0.1276,-0.5247,1.0791,306.7812
12:46:46:197,-0.0286,1.0241,7.5634,48.4473,0.0996,-0.6148,1.1419,305.7969
12:46:46:221,0.0073,0.8218,7.907,47.3962,0.4056,-0.5876,1.2231,304.7344
12:46:46:240,0.1821,0.6674,7.1528,48.0735,0.5755,-0.5104,1.2886,302.9062
12:46:46:256,0.4562,0.7703,6.2837,48.6256,0.5177,-0.5088,1.2948,301.6094
12:46:46:277,0.9339,1.1702,7.5191,46.8442,0.3369,-0.5876,1.1976,300.2969
12:46:46:297,0.3664,1.0612,8.727,46.0186,0.176,-0.5823,1.0695,298.8594
12:46:46:320,0.6861,0.8158,9.3375,47.4899,0.1297,-0.48,1.0218,297.4688
12:46:46:338,1.7383,0.4926,9.4608,45.4449,0.1252,-0.4574,0.9608,296.3125
12:46:46:356,2.3979,0.3083,10.2138,45.4422,0.0288,-0.603,0.8141,295.1719
12:46:46:376,2.2722,0.3549,11.7209,45.3505,-0.1569,-0.7916,0.6378,294.0781
12:46:46:398,2.3955,0.1873,12.9779,46.013,-0.2716,-0.8979,0.5224,293.1406
12:46:46:423,3.0252,-0.094,12.4404,44.124,-0.3071,-0.6984,0.4482,292.3906
12:46:46:439,2.9558,0.2292,10.871,45.9124,-0.453,-0.2733,0.3126,291.8438
12:46:46:456,2.3033,0.7859,11.8143,43.9529,-0.8666,-0.0238,0.0966,291.375
12:46:46:476,1.4905,0.5177,14.3342,44.756,-1.1763,-0.0155,-0.089,291.0156
12:46:46:496,1.0991,0.0126,15.8557,43.488,-1.0533,-0.0148,-0.0672,290.8281
12:46:46:523,1.9119,-0.4723,14.8777,43.7323,-0.6208,0.1427,0.2162,291.0156
12:46:46:541,3.4454,-0.0856,12.256,43.8237,-0.1491,0.3648,0.5797,291.1406
12:46:46:557,5.4637,1.2049,10.4005,43.5018,0.0999,0.4409,0.7624,290.9219
12:46:46:624,6.2717,2.2955,9.0741,43.4359,0.2426,0.2729,0.4908,290.25
12:46:46:624,4.3815,1.9076,7.6592,43.7495,0.3992,-0.0432,-0.1713,289.3906
12:46:46:625,1.6521,0.9595,6.6692,44.2667,0.392,-0.1639,-0.725,289.0312
12:46:46:640,0.3066,0.4914,6.2238,44.3421,0.2181,0.0694,-0.8334,288.7969
12:46:46:656,0.0324,0.732,5.8144,43.6744,0.081,0.3746,-0.6616,289.3594
12:46:46:676,0.151,1.2229,5.5379,45.0743,0.082,0.4122,-0.4432,290.25
12:46:46:697,0.5735,1.6634,6.0538,43.6447,0.171,0.14,-0.2653,291.1094
12:46:46:722,0.9662,1.7855,6.0718,44.0898,0.3238,-0.1197,-0.1513,291.7031
12:46:46:740,1.0344,2.0692,6.9098,45.5201,0.3984,-0.3199,-0.0653,292.0625
12:46:46:757,2.0268,2.5492,8.5678,43.2406,0.4384,-0.4353,0.0977,292.2812
12:46:46:776,3.7506,2.9563,9.2693,43.6799,0.673,-0.4909,0.2894,292.4375
12:46:46:795,3.6489,3.4758,8.7198,43.0237,0.9292,-0.4451,0.1709,292.3438
12:46:46:816,2.2291,3.4303,8.8204,44.2084,0.901,-0.3389,-0.2057,292.0156
12:46:46:837,1.2595,2.3769,10.3072,42.0201,0.6322,-0.1559,-0.5466,291.8125
12:46:46:855,0.7232,1.6765,11.211,42.5528,0.4298,0.2353,-0.6169,292.0156
12:46:46:876,0.8489,1.3497,10.8902,43.2731,0.3518,0.621,-0.4731,292.6094
12:46:46:895,1.1745,1.1295,10.1994,42.917,0.2607,0.7368,-0.3295,293.2656
12:46:46:917,1.0452,0.8517,10.2533,41.7171,0.0165,0.6015,-0.2885,293.7188
12:46:46:941,0.8572,0.7296,11.3331,42.3624,-0.3238,0.3349,-0.2512,293.9688
12:46:46:959,0.6406,0.8302,13.2628,40.1944,-0.6485,0.0601,-0.1673,294.2188
12:46:46:983,-0.1256,0.586,15.9431,41.2281,-0.5491,-0.321,0.1565,294.4844
12:46:46:995,-0.0454,-0.0341,16.7104,43.2694,0.0469,-0.0081,0.4559,294.4844
12:46:47:017,0.5556,-0.2101,12.9312,43.9092,0.3225,0.3038,0.6894,294.6719
12:46:47:039,1.287,0.3502,8.8383,42.1894,0.1262,0.2574,0.7456,294.7969
12:46:47:056,2.0316,0.7799,6.7937,43.1257,-0.2261,0.0055,0.5965,294.1562
12:46:47:076,2.21,0.8709,6.4166,42.1915,-0.5494,-0.2275,0.4087,294.1562
12:46:47:098,1.8018,0.7033,7.0391,43.1288,-0.7289,-0.2853,0.2838,292.4688
12:46:47:123,0.9638,0.4364,7.3467,42.997,-0.8325,-0.1575,0.2915,291.7969
12:46:47:140,0.3928,0.3382,7.3659,43.4172,-0.9012,-0.0142,0.3981,291.3906
12:46:47:156,0.2359,0.4663,7.8447,44.2667,-0.8506,0.0745,0.5273,291.125
12:46:47:175,0.4047,0.7416,8.5498,44.8781,-0.6125,0.1717,0.6292,290.8438
12:46:47:197,0.6059,0.9607,8.2673,44.8781,-0.3286,0.2422,0.7115,290.4531
12:46:47:222,0.9925,1.1151,7.1504,42.6877,-0.2245,0.2572,0.7549,289.875
12:46:47:240,1.6006,1.412,6.911,43.0582,-0.2415,0.2665,0.6639,289.1719
12:46:47:256,1.7347,1.5592,7.3048,41.6844,-0.2242,0.2449,0.4892,288.3594
12:46:47:275,1.1445,1.3509,7.7837,42.5824,-0.1766,0.0667,0.3624,287.5312
12:46:47:295,0.3138,0.8218,8.9245,42.8076,-0.0738,-0.1833,0.385,286.7812
12:46:47:316,-0.0873,0.5429,10.4041,43.6248,0.1257,-0.3335,0.487,286.2188
12:46:47:338,0.1222,0.4747,11.1763,42.8005,0.3326,-0.325,0.5491,285.8281
12:46:47:357,0.941,0.5764,10.6663,42.6297,0.3132,-0.2869,0.4687,285.125
12:46:47:377,1.8185,0.5465,10.7405,42.6688,0.1145,-0.3,0.2463,284.5312
12:46:47:399,2.2279,0.2233,12.1818,44.1237,-0.0429,-0.2374,0.0378,283.9531
12:46:47:422,2.5583,-0.2245,13.7428,43.2626,-0.0069,-0.0478,-0.0957,283.5312
12:46:47:439,2.9725,-0.5896,13.519,42.6885,0.0879,0.1789,-0.1963,283.375
12:46:47:458,3.4178,-0.4268,11.2505,41.827,-0.1185,0.2681,-0.3993,283.4375
12:46:47:476,2.9414,0.4483,10.1587,44.3261,-0.5526,0.1078,-0.7218,283.5781
12:46:47:497,1.882,0.489,12.7169,42.3957,-0.6442,-0.0086,-0.9892,283.8906
12:46:47:523,0.2814,-0.811,14.928,42.2798,-0.3465,0.2652,-0.8906,284.5312
12:46:47:540,-0.456,-2.1626,14.3378,42.0736,-0.0179,0.6564,-0.4153,285.5312
12:46:47:556,0.4909,-2.3589,11.849,42.5477,0.0583,0.5757,0.1158,286.6875
12:46:47:577,1.688,-1.3018,10.9704,41.6447,0.1151,0.1658,0.3888,287.4688
12:46:47:596,1.9622,-0.2951,11.2756,41.56,0.4258,-0.0696,0.4186,287.6094
12:46:47:621,1.779,0.021,10.1779,42.8604,0.7276,0.0939,0.3754,287.4688
12:46:47:639,1.6306,0.064,7.7047,42.5166,0.7665,0.4175,0.3238,287.0156
12:46:47:656,1.4342,0.2388,5.3883,40.8309,0.5862,0.6657,0.2673,286.3125
12:46:47:678,1.1948,0.7213,3.5196,41.0941,0.2772,0.6423,0.2396,285.8906
12:46:47:697,1.2044,0.9319,4.5551,41.4276,0.0301,0.3938,0.1877,285.5
12:46:47:723,1.1481,1.0888,5.3284,41.0335,-0.0016,0.1501,0.1323,285.1719
12:46:47:740,1.1553,1.2935,6.012,41.6649,0.0663,-0.0512,0.0817,284.9062
12:46:47:756,1.2559,1.5544,6.3878,41.2965,0.1268,-0.1242,0.0314,284.7031
12:46:47:776,1.3229,1.9483,7.0666,41.2975,0.0868,-0.1138,-0.0366,284.5938
12:46:47:794,0.9518,2.25,8.3607,41.1768,-0.0043,-0.1138,-0.1471,284.5312
12:46:47:814,0.4622,2.2272,10.0809,39.1956,-0.0322,-0.1524,-0.2648,284.5312
12:46:47:841,0.03,1.8944,11.4157,38.9356,0.0818,-0.1903,-0.3268,284.6406
12:46:47:860,-0.2657,1.6406,11.4121,40.4744,0.2695,-0.1253,-0.3047,284.875
12:46:47:875,-0.0981,1.6011,11.1128,39.5955,0.3547,-0.0113,-0.2246,285.2344
12:46:47:899,0.3353,1.655,11.776,40.0147,0.237,0.1283,-0.1455,285.6094
12:46:47:923,0.5735,1.3461,12.4332,38.8491,0.1254,0.2734,-0.1183,285.9219
12:46:47:942,0.5161,0.8506,11.545,39.1046,0.1244,0.4734,-0.1191,286.1094
12:46:47:956,0.3281,0.7835,10.5202,40.1109,-0.0024,0.7067,-0.0938,286.2969
12:46:47:976,0.3473,0.9284,10.5059,38.2967,-0.2975,0.7355,-0.0547,286.3906
12:46:47:997,0.2228,1.0026,12.5793,38.6055,-0.5721,0.349,-0.0435,286.4375
12:46:48:023,-0.3447,0.3538,14.6071,36.8898,-0.5531,-0.2739,-0.032,286.4531
12:46:48:040,-0.6786,-0.6159,14.4479,38.7082,-0.2083,-0.5327,0.0732,286.4531
12:46:48:056,-0.2345,-0.9355,11.4576,37.1897,0.1377,-0.251,0.2966,286.5
12:46:48:075,0.6166,-0.6506,8.8407,37.2239,0.1454,0.0665,0.5254,286.4531
12:46:48:097,1.3181,-0.3382,7.3802,37.1452,-0.0503,0.026,0.6021,286.3281
12:46:48:123,1.7299,-0.155,7.3407,36.0854,-0.2674,-0.264,0.5448,285.8438
12:46:48:143,1.5839,0.0808,8.3355,37.2374,-0.4056,-0.6451,0.4362,285.2031
12:46:48:159,1.1805,0.1754,8.8419,38.1953,-0.4003,-0.8268,0.3496,284.5469
12:46:48:175,0.5795,0.2388,8.6899,35.6483,-0.3457,-0.6419,0.3198,284
12:46:48:196,0.5244,0.41,8.4157,35.8575,-0.3108,-0.2371,0.3664,283.625
12:46:48:216,0.7902,0.5716,7.2306,35.6925,-0.1814,0.1173,0.4119,283.125
12:46:48:239,1.1266,0.7081,6.474,34.8224,-0.0967,0.2556,0.4074,282.7188
12:46:48:256,1.22,0.7871,6.2909,35.0417,-0.0953,0.2265,0.3576,282.2656
12:46:48:276,0.886,0.7488,6.6213,34.0952,-0.078,0.0393,0.2732,281.7969
12:46:48:299,-0.0478,0.4388,7.8938,36.0735,-0.0349,-0.3737,0.205,281.0781
12:46:48:326,-0.3471,0.0425,9.6523,34.5499,0.3726,-1.0696,0.4788,280.8594
12:46:48:338,0.3437,0.2723,10.2605,35.0394,0.4325,-0.6422,0.5691,280.5781
12:46:48:366,1.4845,1.2911,9.5961,34.7598,0.0751,0.1405,0.3014,280.0469
12:46:48:377,2.4817,2.0776,9.4716,35.0974,-0.5278,0.9554,-0.293,280.0469
12:46:48:398,2.4602,1.9291,10.5957,36.0448,-0.9539,1.4263,-0.9356,279.0781
12:46:48:423,0.8764,0.6075,12.3398,35.4783,-0.975,1.3352,-1.2598,279.0781
12:46:48:441,-0.7744,-1.2516,14.0565,35.3887,-0.6535,0.9754,-1.0901,279.3906
12:46:48:460,-0.9648,-2.6594,14.8765,33.7976,-0.1105,0.769,-0.5998,281.8281
12:46:48:476,0.4275,-2.815,13.0294,33.9557,0.2421,0.7751,-0.1841,281.8281
12:46:48:494,1.3409,-1.6502,9.4069,34.9314,0.0461,0.7208,-0.0927,283.4688
12:46:48:515,1.6282,-0.5273,7.5179,34.124,-0.4908,0.2497,-0.2107,283.7344
12:46:48:540,1.5599,-0.6123,9.723,34.1837,-0.6938,-0.3247,-0.3087,283.9219
12:46:48:556,1.1266,-1.4539,12.4847,34.1952,-0.3635,-0.5437,-0.187,284.1094
12:46:48:575,1.2678,-2.1865,12.1926,35.2454,-0.0511,-0.5208,0.0907,284.25
12:46:48:594,2.3632,-1.8693,10.2581,32.8252,-0.1696,-0.4678,0.2143,284.5781
12:46:48:618,3.4083,-0.653,9.4057,32.6042,-0.4818,-0.5088,-0.0512,284.6562
12:46:48:641,3.528,0.1371,9.869,33.0287,-0.612,-0.4529,-0.5798,284.6562
12:46:48:705,2.2315,0.0904,9.6559,34.7988,-0.5824,-0.2193,-1.0153,284.4688
12:46:48:705,0.3389,-0.3669,8.812,33.8097,-0.5348,0.1019,-1.1511,284.4688
12:46:48:706,-1.1455,-0.5309,7.8136,32.8184,-0.4679,0.3696,-1.015,285.125
12:46:48:719,-1.5836,-0.2723,7.0546,33.9481,-0.3457,0.3887,-0.7801,286.2812
12:46:48:740,-0.9624,0.1299,6.6021,35.3515,-0.1707,0.1568,-0.6134,287.5469
12:46:48:756,-0.3064,0.5237,6.6799,32.5746,0.028,-0.2193,-0.545,288.7188
12:46:48:775,0.0133,0.6662,7.2162,34.1957,0.2959,-0.5144,-0.517,289.625
12:46:48:795,-0.2046,0.3011,7.3898,33.1454,0.4597,-0.4997,-0.4254,290.625
12:46:48:815,-0.6595,-0.1311,7.6496,32.432,0.4312,-0.1698,-0.1588,291.2031
12:46:48:841,-0.6918,0.0688,8.235,35.1354,0.3542,0.0084,0.1174,291.75
12:46:48:856,-0.2956,0.5405,9.5578,33.615,0.4101,-0.1152,0.2433,292.0625
12:46:48:874,-0.0681,0.7452,10.8602,35.7811,0.5926,-0.2204,0.2796,292.0625
12:46:48:894,-0.3626,0.7464,11.011,36.2935,0.6978,-0.1093,0.3198,291.8281
12:46:48:916,-0.4141,0.6099,10.2066,33.8067,0.5433,0.2082,0.3533,291.5312
12:46:48:940,-0.5877,0.3526,9.7314,34.2426,0.1736,0.6199,0.4359,291.1719
12:46:48:957,-0.7206,-0.1311,10.0175,34.6096,-0.1811,0.9943,0.637,290.7812
12:46:48:976,0.8668,0.0054,10.8363,35.3676,-0.3079,0.9,0.6348,290.3438
12:46:48:995,1.7958,0.167,10.5813,35.5754,-0.5103,0.1432,0.3392,289.7656
12:46:49:016,1.4917,-0.4304,12.9575,34.6153,-0.6671,-0.6472,0.18,288.9688
12:46:49:039,1.3014,-1.4934,17.0265,34.8482,-0.4269,-1.0217,0.1102,288.4062
12:46:49:056,0.218,-2.3002,19.1525,35.2589,0.089,-0.6353,0.2117,288.1406
12:46:49:076,-0.2166,-3.0544,13.0976,34.9635,0.5878,0.2409,0.418,288.0469
12:46:49:096,0.0839,-2.7001,9.0813,35.6898,0.6322,0.8598,0.5584,287.7812
12:46:49:116,-0.1028,-2.153,7.9908,35.2737,0.297,0.7698,0.613,287.4375
12:46:49:142,-0.4668,-1.819,9.1532,34.9139,-0.0202,0.1978,0.6745,286.875
12:46:49:160,-0.6619,-1.4252,9.5674,34.56,0.0618,-0.4489,0.8447,286.2031
12:46:49:177,0.0025,-1.0445,8.4888,36.0071,0.4101,-0.8816,1.0974,285.4844
12:46:49:194,0.6645,-0.5225,6.9577,34.6583,0.6631,-0.9961,1.2977,284.6719
12:46:49:214,1.4139,0.1,5.9892,34.6583,0.7063,-0.8923,1.3861,283.5469
12:46:49:239,1.949,0.7907,5.8336,35.4141,0.5966,-0.6789,1.3182,282.1719
12:46:49:258,2.1573,1.0098,6.0311,35.238,0.4839,-0.4768,1.099,280.6875
12:46:49:274,1.7263,0.7117,5.9114,34.6323,0.4336,-0.28,0.8053,279.1094
12:46:49:295,1.1541,0.3286,5.9174,34.3412,0.3561,-0.0795,0.589,277.7031
12:46:49:315,1.0631,0.1981,6.097,34.111,0.2775,0.0497,0.5062,276.6094
12:46:49:341,1.3708,0.3526,7.0319,34.2178,0.22,-0.0377,0.4705,275.8594
12:46:49:359,1.6749,0.6123,8.2194,35.6046,0.228,-0.2824,0.3912,274.9531
12:46:49:374,1.7455,0.6554,9.0957,34.1574,0.297,-0.4795,0.2612,274.4219
12:46:49:399,1.9682,0.7512,9.808,34.9668,0.3113,-0.476,0.1275,273.9844
12:46:49:414,2.6349,0.7907,10.3718,34.5071,0.2546,-0.2827,-0.0304,273.6875
12:46:49:435,3.5771,0.829,11.5342,35.1887,0.1012,-0.0358,-0.2491,273.5469
12:46:49:456,3.6716,0.8302,12.9982,35.2497,-0.1116,0.2897,-0.5463,273.5781
12:46:49:475,3.0623,0.2771,13.8602,34.1747,-0.1875,0.5794,-0.8443,273.8594
12:46:49:500,2.7139,-0.3705,12.4871,33.7822,-0.0557,0.813,-0.9708,274.4844
12:46:49:514,2.3416,-0.2747,10.5478,34.6482,0.0192,0.964,-0.9569,274.9219
12:46:49:535,1.7024,0.0473,9.3447,34.0414,-0.0623,0.7701,-0.9719,275.9219
12:46:49:558,0.9027,-0.1945,10.1695,34.754,-0.2639,0.2891,-1.0392,276.9844
12:46:49:576,0.3868,-1.4599,12.0992,33.3294,-0.4,-0.2273,-1.0542,278.0312
12:46:49:594,-0.043,-2.4942,12.6798,33.6232,-0.327,-0.4299,-0.905,279.0938
12:46:49:615,0.358,-2.5528,11.7772,34.168,-0.2005,-0.3375,-0.5503,280.3125
12:46:49:641,1.2391,-1.6251,10.3299,35.9732,-0.1297,-0.2544,-0.1702,281.9844
12:46:49:656,1.8209,-0.5788,9.4632,34.7339,-0.1411,-0.2832,-0.0006,282.6094
12:46:49:676,1.9993,0.1203,8.5175,34.7339,-0.1569,-0.2534,-0.0645,282.8125
12:46:49:697,1.9011,0.483,7.555,34.3654,-0.179,-0.0536,-0.2384,282.9062
12:46:49:716,1.5108,0.7332,6.6584,35.0428,-0.1989,0.1818,-0.3995,283.1875
12:46:49:742,0.6082,0.8254,5.8204,33.9629,-0.1784,0.2327,-0.5071,283.6406
12:46:49:760,0.0767,0.9032,5.7821,34.227,-0.1497,0.1416,-0.4043,284.2188
12:46:49:778,0.0241,1.0062,6.2179,33.548,-0.0309,0.1645,-0.2624,284.7656
12:46:49:795,0.5053,1.2336,6.0622,33.6525,0.0312,0.1743,-0.194,284.7656
12:46:49:814,1.0895,1.752,6.3759,34.2144,0.061,0.0572,-0.2544,285.2344
12:46:49:841,1.3217,2.1231,6.9816,33.8684,0.1076,-0.0619,-0.4249,285.5312
12:46:49:862,1.1493,2.0046,7.1181,35.264,0.0091,-0.1162,-0.5956,285.7344
12:46:49:875,0.2755,1.6562,8.0913,34.1339,-0.1774,-0.0899,-0.6131,286.5156
12:46:49:899,-0.8546,1.2516,10.6292,35.0142,-0.1537,-0.0211,-0.4291,286.5156
12:46:49:913,-1.5202,0.6375,13.0952,34.8002,0.1752,0.0718,-0.0374,287.5156
12:46:49:936,-0.5601,0.4088,13.5633,34.1111,0.535,0.0886,0.3086,288.3594
12:46:49:960,1.3397,0.9978,13.513,34.7539,0.7888,-0.0084,0.3182,288.3594
12:46:49:974,2.2698,1.4539,12.6259,33.2488,0.7505,-0.0374,0.0015,288.3906
12:46:49:998,2.4278,1.1977,12.0765,35.6725,0.4202,0.1703,-0.3761,288.0469
12:46:50:013,2.0855,0.847,11.6527,34.5564,-0.0469,0.4838,-0.6763,287.6719
12:46:50:034,1.384,0.5561,11.7233,33.891,-0.465,0.4598,-0.8486,287.6562
12:46:50:058,0.7088,0.2412,13.5034,35.3186,-0.5457,0.2715,-0.9047,288.0469
12:46:50:074,-0.1447,-0.7021,15.3457,34.0588,-0.1571,0.3552,-0.8057,288.7969
12:46:50:094,-0.9372,-1.9028,13.61,35.8575,0.2043,0.6875,-0.4951,289.75
12:46:50:114,-1.3347,-1.8681,9.9816,35.4351,0.1601,0.7709,-0.1215,290.7656
12:46:50:140,-0.7134,-1.2396,7.5993,34.9662,-0.1236,0.5091,0.0788,291.625
12:46:50:157,0.1402,-0.7332,6.8403,34.7329,-0.4304,0.1757,0.1222,292.1719
12:46:50:173,0.5376,-0.2747,7.0259,34.4737,-0.6514,-0.1045,0.1006,292.2656
12:46:50:194,0.5412,0.1514,7.9225,32.2396,-0.6756,-0.2496,0.0623,292.0781
12:46:50:217,0.4538,0.4663,7.871,35.4238,-0.7039,-0.1695,-0.0177,291.9375
12:46:50:240,0.2455,0.5393,7.7382,34.8822,-0.8416,0.1339,-0.0949,291.8281
12:46:50:256,-0.4452,0.4723,8.3619,34.3681,-0.8498,0.406,-0.0499,291.7812
12:46:50:275,-1.0174,0.3298,9.3507,36.0488,-0.5289,0.4124,0.1248,291.8438
12:46:50:302,-1.1539,0.1179,9.2669,34.3959,-0.0373,0.1935,0.3794,291.9219
12:46:50:313,-1.0402,0.0401,8.0961,35.5396,0.3041,-0.0741,0.6157,291.875
12:46:50:335,-0.4967,0.0569,7.1552,34.9522,0.4075,-0.2611,0.7323,291.5938
12:46:50:356,0.2575,0.2963,7.2007,36.6798,0.3369,-0.3461,0.6548,291.0156
12:46:50:374,0.4155,0.3083,8.0698,36.151,0.2019,-0.3239,0.4716,290.2344
12:46:50:394,-0.2645,-0.0688,9.7314,35.6015,0.1531,-0.2267,0.356,289.4688
12:46:50:416,-1.0138,-0.6758,11.4995,35.8583,0.2967,0.0481,0.4133,288.8281
12:46:50:441,-0.6667,-0.8757,11.3331,35.2561,0.4261,0.2542,0.4721,288.3906
12:46:50:457,0.03,-0.7284,10.4544,35.4174,0.3971,0.1384,0.3829,288.2031
12:46:50:475,0.8249,-1.2097,11.612,35.0322,0.2937,-0.1194,0.2244,287.7344
12:46:50:496,0.8584,-1.503,12.4224,35.2417,0.2453,-0.3064,0.099,286.9688
12:46:50:515,0.8656,-1.74,12.3698,35.3871,0.2253,-0.3008,0.0271,286.6406
12:46:50:541,1.3014,-1.2432,11.1834,36.8481,0.1502,0.0313,-0.0131,286.4688
12:46:50:558,1.3564,-0.4603,10.5466,36.1457,-0.1009,0.4012,-0.1537,286.4219
12:46:50:576,0.789,-0.5549,11.5007,36.3216,-0.4053,0.5309,-0.4555,286.4375
12:46:50:593,-0.1914,-1.3282,12.0813,37.8329,-0.4647,0.5152,-0.6778,286.4844
12:46:50:613,-0.5901,-1.7567,11.4001,34.7414,-0.2325,0.458,-0.5734,286.7969
12:46:50:633,0.3102,-1.5078,9.5997,35.9737,0.0956,0.2521,-0.2262,287.4688
12:46:50:657,1.4091,-0.4268,7.488,34.7515,0.286,-0.055,0.0583,288.1719
12:46:50:677,1.5767,0.4866,7.0798,33.7821,0.155,-0.4249,0.0332,288.625
12:46:50:693,1.1972,0.6949,7.3144,34.5212,-0.0328,-0.6947,-0.1921,288.7031
12:46:50:768,0.7088,0.4962,6.5267,33.5251,-0.1174,-0.6494,-0.4049,288.625
12:46:50:768,0.4694,0.4088,5.4505,35.8674,-0.257,-0.3857,-0.5034,288.7188
12:46:50:769,0.455,0.6411,5.2925,35.6931,-0.5145,-0.1258,-0.5322,289.0781
12:46:50:773,-0.0179,0.7308,6.6488,36.0625,-0.747,-0.101,-0.5956,289.8906
12:46:50:800,-0.6415,0.562,8.4852,34.5072,-0.7124,-0.2792,-0.5937,290.5
12:46:50:813,-1.4041,0.3238,9.9827,35.1553,-0.4176,-0.3857,-0.4616,291.1562
12:46:50:834,-1.1802,0.0976,9.863,37.0704,0.0165,-0.2188,-0.1841,291.8281
12:46:50:858,-0.2513,0.6375,8.8168,35.6873,0.3364,0.1717,0.1296,292.3125
12:46:50:874,0.8824,1.4766,9.1783,37.4677,0.3686,0.3448,0.3046,292.5312
12:46:50:893,0.783,2.068,10.2437,36.5845,0.3031,0.3051,0.2082,292.375
12:46:50:914,-0.4321,1.892,11.4576,36.6089,0.3023,0.2297,-0.0632,292.2188
12:46:50:935,-1.2616,1.072,11.8095,36.2889,0.4032,0.2545,-0.2331,291.9062
12:46:50:955,-1.6339,0.6866,11.5378,35.4537,0.4842,0.4398,-0.1702,291.8281
12:46:50:975,-1.434,0.5537,11.5306,35.5519,0.4855,0.5512,0.0151,292.0312
12:46:50:999,-0.7409,0.313,11.8562,36.2504,0.4602,0.4295,0.1605,292.2812
12:46:51:012,-0.3219,-0.2376,12.0453,36.3293,0.4171,0.2612,0.1975,292.3906
12:46:51:035,-0.2178,-0.5249,11.606,35.8795,0.2935,0.2646,0.1896,292.2812
12:46:51:058,-0.4368,-0.4926,11.1631,37.6577,0.0402,0.3837,0.1528,291.9688
12:46:51:073,-0.8582,-0.5405,12.5829,36.6625,-0.2988,0.259,0.0934,291.7656
12:46:51:094,-1.5825,-0.9307,15.2165,35.8824,-0.4621,-0.1658,0.0971,291.5781
12:46:51:115,-1.039,-1.3234,16.4399,35.9088,-0.2461,-0.3932,0.3182,291.4531
12:46:51:140,0.388,-1.1809,12.6523,36.7423,0.2799,0.0193,0.6343,291.3125
12:46:51:158,1.3876,-0.3466,8.1691,34.5458,0.4884,0.5056,0.7549,290.9531
12:46:51:175,1.8113,0.2364,6.4716,35.5001,-0.2397,0.091,0.2223,290.2344
12:46:51:198,1.3062,0.1826,7.1384,36.8338,-0.4645,-0.1982,-0.0517,290.2344
12:46:51:213,0.0193,-0.3944,8.0853,36.919,-0.4807,-0.1839,-0.0435,289.4219
12:46:51:235,-1.2616,-0.6267,8.1835,36.919,-0.3992,0.0377,0.2346,288.75
12:46:51:257,-1.4005,-0.3873,7.3563,37.3123,-0.2743,0.1719,0.5517,288.5312
12:46:51:274,-0.5984,0.179,6.2621,37.7345,-0.1827,0.0739,0.7326,288.5469
12:46:51:294,0.2862,0.8242,5.8085,37.6,-0.09,-0.2094,0.719,288.2656
12:46:51:318,0.5855,1.175,6.0706,37.2964,0.0258,-0.484,0.5984,286.7969
12:46:51:339,0.3928,1.0457,6.5064,36.3239,0.1523,-0.598,0.4849,286.375
12:46:51:357,-0.5099,0.6327,6.6991,37.2445,0.1952,-0.6659,0.4764,285.9844
12:46:51:374,-1.039,0.1407,7.7178,37.8441,0.2669,-0.7407,0.5829,285.0469
12:46:51:393,-1.1635,-0.0173,8.7545,37.9494,0.4615,-0.9943,0.7113,284.7812
12:46:51:416,-1.4484,0.2233,10.0749,37.1203,0.7827,-1.3772,0.8282,284.2656
12:46:51:441,-1.1348,0.4124,10.5442,37.8643,0.9345,-1.288,0.8186,283.6094
12:46:51:458,-0.1687,0.4986,9.9061,36.1189,0.6498,-0.7905,0.6338,282.875
12:46:51:474,0.5616,0.4759,10.1168,36.9907,0.1478,-0.3144,0.3496,281.9688
12:46:51:493,0.8441,-0.0102,11.8885,38.465,-0.1553,-0.0779,0.1355,281.0781
12:46:51:519,1.0775,-0.4818,13.8111,38.1545,-0.1643,0.013,0.0564,280.4219
12:46:51:542,1.6425,-0.7967,14.4408,37.7497,-0.0621,0.1592,-0.02,280.0156
12:46:51:558,2.0998,-0.8936,13.3861,36.4826,-0.0892,0.3751,-0.1473,279.875
12:46:51:577,2.3752,-0.5142,11.9939,37.1292,-0.2757,0.4673,-0.3742,279.8281
12:46:51:594,1.8844,-0.0269,11.4755,37.0406,-0.4653,0.3943,-0.6443,279.9844
12:46:51:613,0.8141,-0.3956,12.7193,39.1268,-0.3585,0.4271,-0.7431,280.1562
12:46:51:641,0.0492,-1.4659,12.4164,34.4168,-0.1121,0.6428,-0.5135,280.7344
12:46:51:656,0.4287,-1.9136,10.3754,36.5485,0.0048,0.7251,-0.1409,281.5156
12:46:51:673,1.4881,-1.3509,8.1703,35.0632,-0.0602,0.4558,0.074,282.2656
12:46:51:693,2.4446,-0.3645,6.802,35.4008,-0.2474,-0.0291,-0.0041,282.6094
12:46:51:714,2.4937,0.4531,7.1612,37.3373,-0.3641,-0.3234,-0.2608,282.5781
12:46:51:734,1.9514,0.41,7.2498,35.7678,-0.4482,-0.1974,-0.4837,282.4844
12:46:51:760,0.9758,0.1454,6.826,36.3255,-0.5529,0.1355,-0.5319,282.6406
12:46:51:776,0.2144,0.0461,6.4968,37.0697,-0.5739,0.3445,-0.4432,283.6719
12:46:51:793,0.2707,0.3717,6.2729,36.8987,-0.5265,0.2529,-0.3492,283.6719
12:46:51:814,0.4814,0.841,6.6859,35.7224,-0.387,-0.0129,-0.3234,284.2344
12:46:51:834,0.2527,1.1426,7.4329,34.4038,-0.1755,-0.2126,-0.3007,284.6719
12:46:51:858,0.0025,1.2252,7.8603,35.3857,0.0096,-0.1498,-0.2331,285.0156
12:46:51:875,-0.1052,1.4874,8.2529,37.2443,0.0415,0.0289,-0.1207,285.375
12:46:51:893,0.4155,1.6754,9.3375,34.4673,0.0567,0.0905,0.0034,285.5469
12:46:51:914,0.5376,1.8549,10.2688,33.5619,0.179,0.0084,0.0601,285.8906
12:46:51:941,0.4287,2.0872,10.9632,34.327,0.359,-0.1586,0.0804,285.9531
12:46:51:958,-0.2501,1.8908,11.5725,34.6865,0.5063,-0.3668,0.05,285.9062
12:46:51:974,-1.3658,1.066,13.0856,33.7038,0.5545,-0.5394,0.0561,285.8281
12:46:51:992,-1.4592,0.149,14.1235,33.3635,0.6027,-0.4829,0.3043,285.75
12:46:52:013,-0.1268,0.1431,13.5657,35.5036,0.6911,-0.1812,0.7288,285.7188
12:46:52:032,1.4546,0.501,12.28,33.333,0.6756,0.0889,0.9467,285.5625
12:46:52:059,1.8856,0.7165,11.8335,32.3112,0.448,0.1469,0.8122,285
12:46:52:075,1.3911,0.5381,12.9563,33.3708,0.1252,-0.023,0.5645,283.9844
12:46:52:093,0.8477,-0.0138,14.6838,34.7649,-0.0179,-0.4747,0.4239,282.9219
12:46:52:113,1.1637,-0.7727,15.0237,31.5541,0.1601,-0.7809,0.441,282.1719
12:46:52:133,1.4127,-1.2492,13.1455,32.4439,0.4296,-0.5354,0.4487,281.6406
12:46:52:158,1.6102,-1.236,9.5817,33.0068,0.5332,0.0452,0.3933,281.1875
12:46:52:174,1.5001,-0.9104,7.8459,32.1172,0.2687,0.3925,0.2649,280.4688
12:46:52:192,1.3624,-0.6027,7.713,32.8193,-0.086,0.3352,0.144,280
12:46:52:213,0.9698,-0.4088,7.573,31.7046,-0.245,0.1397,0.0545,279.6719
12:46:52:234,0.3257,-0.2963,6.9218,33.6562,-0.2495,0.0146,0.0295,279.5
12:46:52:257,0.0121,-0.1,6.6596,31.5911,-0.265,-0.0193,0.111,279.4219
12:46:52:272,0.2611,0.264,6.5531,32.499,-0.2503,-0.0369,0.2745,279.3906
12:46:52:293,0.7399,0.6913,6.4022,33.0234,-0.1736,-0.1056,0.4045,279.2812
12:46:52:314,1.0057,0.9343,6.413,32.4728,-0.0818,-0.2419,0.4367,278.9844
12:46:52:332,1.0787,1.0098,6.5123,32.3971,-0.0013,-0.3474,0.3917,278.5312
12:46:52:357,1.0153,0.9068,6.6249,33.4023,0.0288,-0.3383,0.3123,278.2969
