Time,Acc_X,Acc_Y,Acc_Z,Meg,Gyr_X,Gyr_Y,Gyr_Z,Ore
16:53:33:717,-0.6963,3.8812,7.1187,64.1084,0.959,-0.9625,0.2537,0.12
16:53:33:719,-1.4836,4.2568,7.9609,65.0855,0.959,-0.9625,0.2537,0.1131
16:53:33:720,-1.4094,4.0606,9.0784,64.1979,-0.7746,0.0014,0.3111,0.0935
16:53:33:721,-1.3831,3.7256,10.2796,65.4935,-0.8161,-0.0914,0.2696,0.0756
16:53:33:722,-1.474,3.5127,10.8586,65.9132,-0.6377,-0.1953,0.2256,0.0624
16:53:33:723,-1.4501,3.5486,10.459,65.5958,-0.2932,-0.2295,0.2256,0.0565
16:53:33:723,-1.3591,3.685,9.6239,65.2456,0.0122,-0.2136,0.25,0.056
16:53:33:739,-1.084,3.7113,9.332,64.7457,0.0843,-0.2832,0.2427,0.0585
16:53:33:757,-0.9906,3.5438,9.2841,65.0855,-0.0476,-0.3541,0.1706,0.0604
16:53:33:777,-0.9547,3.3452,9.131,65.5649,-0.2065,-0.2661,0.1364,0.0604
16:53:33:798,-0.8925,3.405,8.7936,65.878,-0.3188,-0.0365,0.1841,0.0592
16:53:33:815,-0.6724,3.5438,8.9587,66.0073,-0.4594,0.1639,0.2402,0.0574
16:53:33:835,-0.3063,3.5653,9.9135,64.5564,-0.6023,0.2005,0.2317,0.0554
16:53:33:854,-0.3517,3.3165,10.3179,66.4764,-0.5803,0.0943,0.1132,0.0531
16:53:33:874,-0.6915,3.192,10.1504,66.3055,-0.3824,-0.0316,-0.0126,0.0513
16:53:33:894,-0.8734,3.0604,9.5569,65.3424,-0.171,-0.1305,-0.0847,0.0508
16:53:33:916,-0.9356,2.9503,9.0138,65.1638,-0.0782,-0.1452,-0.1214,0.0507
16:53:33:938,-1.017,2.8331,9.1478,66.9691,-0.1441,-0.1085,-0.1421,0.0495
16:53:33:954,-1.1438,2.6584,9.1382,65.8205,-0.2627,-0.1024,-0.1678,0.0473
16:53:33:973,-0.9595,2.5029,8.8223,63.8988,-0.3335,-0.0792,-0.1629,0.045
16:53:33:994,-0.7178,2.3857,8.7793,66.396,-0.4459,-0.0694,-0.1617,0.0422
16:53:34:017,-0.6724,2.1607,9.7244,66.785,-0.6267,-0.1049,-0.2167,0.0389
16:53:34:044,-0.8471,1.9645,10.3753,65.265,-0.6842,-0.144,-0.2912,0.035
16:53:34:055,-0.6796,1.7611,10.8347,66.0507,-0.4838,-0.1073,-0.2912,0.032
16:53:34:076,-0.5791,1.7946,10.6648,68.4973,-0.1625,-0.1391,-0.2826,0.0312
16:53:34:096,-0.6461,1.8042,10.1839,66.3852,0.1051,-0.2271,-0.3242,0.0324
16:53:34:116,-0.7801,1.7922,9.7484,66.4848,0.2309,-0.3077,-0.3278,0.0346
16:53:34:136,-0.7849,1.931,9.2865,67.3781,0.27,-0.2771,-0.2509,0.0372
16:53:34:158,-0.5791,2.1823,8.9731,66.8798,0.2456,-0.1501,-0.1519,0.0393
16:53:34:175,-0.3446,2.3641,9.0927,65.8867,0.16,-0.0499,-0.0969,0.0408
16:53:34:195,-0.2082,2.4383,9.3177,66.3151,0.0489,-0.0523,-0.1458,0.0419
16:53:34:214,-0.1699,2.1918,9.2889,66.8585,-0.0159,-0.1012,-0.2545,0.0427
16:53:34:235,-0.0861,1.9262,9.5976,67.0012,-0.0073,-0.1085,-0.351,0.0433
16:53:34:257,-0.3517,1.7492,9.7484,66.1677,0.0538,-0.1134,-0.4195,0.0435
16:53:34:275,-0.8734,1.7707,9.7627,67.2767,0.1124,-0.1098,-0.4488,0.0433
16:53:34:294,-0.9691,1.7204,9.7364,65.265,0.1405,-0.1037,-0.3853,0.0432
16:53:34:315,0.055,1.7444,9.789,66.2968,0.1332,-0.1183,-0.1519,0.044
16:53:34:338,0.213,1.6869,9.7867,66.7297,0.0696,-0.1085,-0.169,0.0464
16:53:34:359,0.0502,1.5314,9.9972,65.3207,-0.0122,-0.0548,-0.2448,0.0463
16:53:34:374,-0.1507,1.4285,9.9254,65.9335,-0.0599,0.0442,-0.2765,0.0448
16:53:34:397,-0.1603,1.6822,9.7651,66.9333,-0.0403,0.203,-0.1849,0.0427
16:53:34:419,-0.0335,1.9789,9.5617,65.4729,-0.0171,0.308,-0.0933,0.0403
16:53:34:441,0.0311,2.0506,9.3631,67.1742,-0.0623,0.2555,-0.0652,0.0383
16:53:34:455,-0.0838,2.0937,9.5043,66.3219,-0.1393,0.1223,-0.0542,0.037
16:53:34:474,-0.1699,2.0148,9.4852,66.3219,-0.1808,0.0356,-0.0395,0.036
16:53:34:493,-0.5432,2.2086,9.4564,66.4589,-0.1881,0.0576,0.0216,0.0347
16:53:34:517,-0.6197,2.2947,9.3392,68.0273,-0.1967,0.1431,0.1144,0.0328
16:53:34:535,-0.5456,2.077,9.5593,65.7083,-0.226,0.1358,0.1853,0.0309
16:53:34:555,-0.3613,1.6893,9.801,66.4652,-0.2908,-0.0707,0.1596,0.03
16:53:34:577,-0.3757,1.4022,10.081,65.9334,-0.3298,-0.2613,0.0985,0.0302
16:53:34:598,-0.7489,1.5003,10.1264,66.785,-0.2419,-0.1831,0.0863,0.03
16:53:34:616,-0.9858,1.5577,9.935,66.063,-0.0965,0.0393,0.1608,0.0287
16:53:34:633,-0.871,1.6343,9.8441,67.1742,0.0061,0.1321,0.2806,0.0275
16:53:34:654,-0.469,1.6606,9.6957,65.7724,0.0696,0.0735,0.3624,0.0275
16:53:34:676,-0.1675,1.797,9.2698,67.157,0.1344,0.0564,0.371,0.0284
16:53:34:695,0.055,1.8497,8.9731,66.385,0.1417,0.038,0.3221,0.0295
16:53:34:719,0.0383,1.7827,9.0975,66.1555,0.0599,-0.0059,0.239,0.0305
16:53:34:738,-0.3087,1.6558,9.5498,67.0811,-0.0696,-0.0682,0.1572,0.0308
16:53:34:756,-0.2943,1.7803,9.6933,65.9797,-0.0659,0.0173,0.2048,0.0306
16:53:34:781,-0.2345,1.9669,9.5689,66.6217,-0.022,0.0527,0.2402,0.0305
16:53:34:798,-0.1196,2.0387,9.5665,67.0485,-0.0147,-0.0096,0.217,0.0309
16:53:34:813,-0.122,2.0483,9.5139,66.7633,-0.0134,-0.0902,0.162,0.032
16:53:34:832,-0.2608,2.0961,9.3153,65.3938,-0.0037,-0.0743,0.1217,0.0329
16:53:34:853,-0.4164,2.0578,9.2411,66.4545,-0.0305,-0.0291,0.1046,0.0331
16:53:34:875,-0.4427,2.053,9.332,66.8177,-0.0953,-0.0132,0.1022,0.0329
16:53:34:895,-0.4331,2.0578,9.4947,68.1657,-0.1625,-0.0059,0.1059,0.0323
16:53:34:921,-0.3996,2.0626,9.4756,68.2895,-0.215,-0.0023,0.1083,0.0315
16:53:34:939,-0.3015,2.0124,9.5115,67.4272,-0.248,0.021,0.1156,0.0303
16:53:34:953,-0.1029,1.8999,9.7819,68.0774,-0.2602,0.0344,0.1266,0.0291
16:53:34:974,-0.0455,1.809,10.1121,67.7377,-0.204,0.0246,0.112,0.0283
16:53:34:996,-0.2345,1.7157,10.1121,65.5545,-0.1087,-0.0414,0.0594,0.0282
16:53:35:020,-0.2847,1.7324,9.7819,65.8311,-0.0037,-0.0878,0.0362,0.0289
16:53:35:038,-0.079,1.8855,9.3966,66.3435,0.0709,-0.0499,0.0546,0.03
16:53:35:062,0.0502,1.9454,9.2913,67.654,0.0525,-0.0059,0.0411,0.0306
16:53:35:073,0.0168,1.9071,9.4158,66.3199,-0.0403,0.0002,-0.0102,0.0307
16:53:35:093,-0.2369,1.8712,9.5378,66.9701,-0.1209,0.0112,-0.075,0.0301
16:53:35:113,-0.3565,1.8521,9.5186,67.1794,-0.1539,0.0417,-0.0994,0.029
16:53:35:140,-0.3422,1.8281,9.6766,66.6654,-0.1759,0.0612,-0.0908,0.0276
16:53:35:154,-0.4044,1.7922,10.1264,66.0691,-0.1857,0.0552,-0.0982,0.0262
16:53:35:173,-0.524,1.7204,10.2676,67.95,-0.1014,0.0112,-0.114,0.0254
16:53:35:197,-0.5504,1.7659,9.9278,66.4545,0.0635,-0.0316,-0.1079,0.0258
16:53:35:219,-0.5456,1.8688,9.6526,66.9088,0.1723,-0.0548,-0.0884,0.027
16:53:35:238,-0.3302,1.9262,9.3296,68.0174,0.0928,-0.001,-0.0542,0.0287
16:53:35:257,-0.4881,1.9119,9.4301,67.1794,0.0085,0.0356,-0.0762,0.0284
16:53:35:277,-0.7537,1.864,9.5976,66.7881,-0.0623,0.0429,-0.0957,0.0275
16:53:35:301,-0.6413,1.785,9.7077,68.3364,-0.0818,0.0429,-0.0701,0.0266
16:53:35:315,-0.5599,1.7827,9.8321,67.5626,-0.0745,0.0307,-0.0493,0.0259
16:53:35:334,-0.5934,1.7037,9.8848,66.4605,-0.0599,-0.0096,-0.0566,0.0256
16:53:35:354,-0.6245,1.7324,9.8632,68.3364,-0.0085,-0.0267,-0.0529,0.0257
16:53:35:376,-0.6006,1.7539,9.7005,66.6426,0.0403,-0.0304,-0.0371,0.026
16:53:35:395,-0.5264,1.8592,9.5186,67.8989,0.0586,-0.0071,-0.009,0.0264
16:53:35:418,-0.5623,1.9573,9.3966,69.0557,0.0257,0.038,0.002,0.0262
16:53:35:436,-0.5958,1.9334,9.5186,68.4107,-0.0305,0.0881,0.002,0.0254
16:53:35:457,-0.6843,1.8353,9.5928,67.5089,-0.0659,0.0686,-0.0102,0.0244
16:53:35:480,-0.6939,1.7731,9.7125,66.1949,-0.0574,0.0185,-0.0163,0.0239
16:53:35:495,-0.7849,1.7348,9.7268,67.899,-0.0318,-0.0096,-0.0126,0.0237
16:53:35:514,-0.8159,1.7133,9.6024,68.0775,0.0098,0.0075,0.0093,0.0235
16:53:35:534,-0.6437,1.6893,9.5928,67.6593,0.0354,0.0038,0.0472,0.0236
16:53:35:555,-0.7178,1.6678,9.6048,66.9061,0.0134,-0.0426,0.0472,0.024
16:53:35:576,-0.8136,1.663,9.6814,67.9694,-0.0171,-0.0389,0.0558,0.0241
16:53:35:597,-0.7585,1.7228,9.7484,68.5357,-0.0281,0.0136,0.1034,0.0237
16:53:35:751,-0.5767,1.8018,9.6431,67.8999,-0.0269,0.0417,0.1486,0.0234
16:53:35:752,-0.402,1.8568,9.5426,66.9087,-0.0244,0.0612,0.1682,0.023
16:53:35:754,-0.3541,1.8544,9.4564,67.2346,-0.0513,0.0625,0.1425,0.0224
16:53:35:755,-0.6652,1.8281,9.4301,66.3151,-0.1051,0.0466,0.09,0.0216
16:53:35:755,-0.6796,1.6534,9.6048,66.8871,-0.1918,0.0161,0.1059,0.0206
16:53:35:756,-0.5647,1.6008,9.6981,67.3226,-0.1979,0.0686,0.1547,0.0181
16:53:35:758,-0.3541,1.584,9.8417,66.0192,-0.1747,0.0894,0.1877,0.0168
16:53:35:759,-0.3302,1.5577,9.8919,66.7125,-0.1136,0.0148,0.1779,0.0163
16:53:35:773,-0.4618,1.5194,9.6598,67.488,-0.0244,-0.0585,0.1547,0.0168
16:53:35:795,-0.5838,1.4261,9.3512,66.4544,0.0342,-0.0511,0.1865,0.0175
16:53:35:813,-0.4044,1.6247,9.399,67.4552,0.0049,0.0222,0.2586,0.0176
16:53:35:837,-0.28,1.6822,9.5569,66.5877,-0.0928,0.0955,0.272,0.0167
16:53:35:855,-0.1795,1.6008,9.8201,66.2717,-0.1796,0.0881,0.239,0.0154
16:53:35:874,-0.0885,1.5697,10.0714,66.5455,-0.1771,0.0564,0.2121,0.0144
16:53:35:896,0.0909,1.8712,10.0235,68.8057,-0.0953,-0.0316,0.162,0.0147
16:53:35:916,0.055,1.7922,10.2867,66.5279,0.0232,-0.1916,0.0497,0.0166
16:53:35:938,-0.0407,1.6391,10.3011,67.2346,0.1771,-0.3566,-0.0652,0.0205
16:53:35:960,-0.201,1.7109,9.8943,67.3787,0.3286,-0.4616,-0.1544,0.0259
16:53:35:979,-0.335,1.7133,9.5856,67.1374,0.4056,-0.5203,-0.1959,0.032
16:53:35:996,-0.3948,1.7587,9.4086,67.5475,0.3922,-0.5508,-0.2045,0.0381
16:53:36:014,-0.3996,1.7085,9.478,65.9295,0.3335,-0.508,-0.1641,0.0437
16:53:36:035,-0.3183,1.7731,9.667,66.5455,0.2517,-0.4066,-0.092,0.048
16:53:36:058,-0.2082,1.809,9.7005,67.3223,0.1894,-0.2784,-0.031,0.0511
16:53:36:078,-0.1029,1.9262,9.4828,67.8458,0.1576,-0.122,0.0387,0.0528
16:53:36:098,0.0502,2.1679,9.3942,65.1645,0.1075,0.0234,0.1144,0.0533
16:53:36:118,0.0742,2.2158,9.6694,67.0668,0.0501,0.0979,0.1364,0.0529
16:53:36:135,-0.0694,2.0913,9.8728,64.4591,0.0696,-0.0071,0.0704,0.0526
16:53:36:154,0.1651,2.1129,9.7197,67.4921,0.1332,-0.0597,0.0741,0.053
16:53:36:177,0.3326,2.0794,9.5474,66.8005,0.1906,-0.0756,0.0643,0.0559
16:53:36:194,0.213,2.0028,9.6646,67.7512,0.1869,-0.0963,0.024,0.0576
16:53:36:213,-0.0359,1.9813,9.789,66.9096,0.1442,-0.0865,0.0032,0.0589
16:53:36:235,-0.1555,2.0028,9.746,66.8811,0.1454,-0.0523,0.0191,0.0599
16:53:36:258,-0.0526,2.1009,9.5474,65.913,0.1979,-0.0328,0.0716,0.0611
16:53:36:278,0.323,2.1224,9.4062,64.9524,0.226,-0.0646,0.1181,0.0629
16:53:36:297,0.4164,2.2205,9.5043,65.4656,0.1881,-0.1012,0.1193,0.0648
16:53:36:313,0.323,2.12,9.4397,65.9808,0.1356,-0.0963,0.0729,0.0663
16:53:36:332,0.2106,2.199,9.2148,65.5746,0.1234,0.0026,0.079,0.067
16:53:36:354,0.2393,2.2827,9.0401,65.5609,0.11,0.1138,0.1193,0.0667
16:53:36:374,0.3302,2.3474,9.1262,65.5609,0.0635,0.1431,0.123,0.066
16:53:36:397,0.2967,2.199,9.5976,64.8726,-0.0244,0.0588,0.0643,0.0655
16:53:36:416,0.0933,2.0315,9.7771,66.5148,-0.0721,-0.056,-0.0139,0.0655
16:53:36:433,-0.0957,2.1559,9.7555,65.1368,-0.0183,-0.0389,-0.0053,0.0656
16:53:36:454,-0.0263,2.2684,9.3846,65.3716,0.0733,0.0527,0.0619,0.0655
16:53:36:475,0.1149,2.3402,9.2004,65.9459,0.1234,0.0967,0.1169,0.0654
16:53:36:497,0.122,2.3641,9.2937,67.9668,0.0831,0.0527,0.1071,0.0654
16:53:36:518,0.0622,2.2612,9.4588,65.1695,0.0024,0.0148,0.0619,0.0653
16:53:36:537,0.0598,2.2875,9.6383,67.6884,-0.0537,0.0478,0.068,0.0647
16:53:36:557,0.1579,2.3258,9.6598,69.0503,-0.0721,0.1077,0.1046,0.0636
16:53:36:575,0.2632,2.2804,9.7507,67.4526,-0.0623,0.1284,0.1254,0.0624
16:53:36:596,0.1196,2.2445,9.4612,66.4873,0.0342,0.0552,0.1059,0.0616
16:53:36:613,0.0598,2.2827,9.1741,65.6964,0.0696,0.0478,0.1095,0.0614
16:53:36:633,0.2058,2.3306,9.1765,66.3817,0.0586,0.0637,0.1291,0.0613
16:53:36:653,0.2058,2.3378,9.4182,66.3353,0.0024,0.0503,0.1169,0.061
16:53:36:677,0.1077,2.2588,9.5498,66.3817,-0.044,0.0124,0.0765,0.0608
16:53:36:696,0.0909,2.254,9.6335,67.1721,-0.0379,0.0124,0.0668,0.0606
16:53:36:717,0.0168,2.2851,9.6335,66.8977,-0.0171,0.0136,0.068,0.0604
16:53:36:734,-0.0215,2.2995,9.6048,66.6583,-0.0012,0.0075,0.0741,0.0603
16:53:36:756,0.0455,2.3163,9.6191,65.737,0.0085,0.0038,0.0863,0.0604
16:53:36:798,0.1507,2.3043,9.6072,67.8833,0.0098,0.0136,0.1022,0.0606
16:53:36:804,0.5097,2.3497,9.6,67.4526,-0.011,0.0124,0.1095,0.0607
16:53:36:823,0.4379,2.3689,9.6814,65.737,-0.0195,0.049,0.0851,0.0603
16:53:36:840,0.2369,2.345,9.7579,67.0965,-0.022,0.0417,0.0509,0.06
16:53:36:859,0.0718,2.3569,9.6383,66.0169,0.0122,0.0307,0.0399,0.0598
16:53:36:879,0.0479,2.3426,9.4205,67.057,0.0586,0.0368,0.0521,0.0599
16:53:36:904,0.0933,2.3426,9.332,66.5357,0.0513,0.0234,0.0582,0.06
16:53:36:920,0.1053,2.3809,9.4014,66.1484,0.0159,0.0173,0.057,0.06
16:53:36:938,-0.0168,2.2899,9.6311,67.3385,-0.0159,0.0026,0.0374,0.0599
16:53:36:960,-0.0766,2.2181,9.7795,66.2252,-0.0208,-0.0401,0.0338,0.0602
16:53:36:977,-0.0694,2.1607,9.7388,67.9668,0.0159,-0.0487,0.0533,0.0606
16:53:36:995,0.0838,2.2325,9.4947,66.3029,0.0538,-0.0255,0.0875,0.0612
16:53:37:014,0.3278,2.321,9.4205,67.3385,0.0562,-0.0047,0.1095,0.0616
16:53:37:034,0.1866,2.3378,9.4756,65.5019,0.0232,-0.0023,0.0814,0.0619
16:53:37:058,0.0814,2.3163,9.5019,67.6884,-0,0.0038,0.0521,0.0619
16:53:37:077,0.0933,2.3904,9.4397,66.8516,-0.0037,0.0234,0.0619,0.0617
16:53:37:097,0.2489,2.4766,9.5641,66.8195,-0.011,0.0503,0.079,0.0614
16:53:37:115,0.2656,2.4431,9.6885,67.002,-0.022,0.0356,0.0631,0.0612
16:53:37:134,0.1412,2.3713,9.6646,67.8839,-0.0049,0.0161,0.0301,0.0611
16:53:37:153,0.0574,2.3258,9.521,66.6196,0.0232,0.01,0.0167,0.0611
16:53:37:176,0.0407,2.3091,9.4253,66.1094,0.0354,0.0197,0.0325,0.0611
16:53:37:194,0.0479,2.3593,9.4516,66.7815,0.0171,0.0161,0.0484,0.0611
16:53:37:218,0.1603,2.3569,9.5474,66.9588,-0.0098,0.021,0.0655,0.0611
16:53:37:233,0.1077,2.3976,9.5234,65.1146,-0.0147,0.0295,0.068,0.0609
16:53:37:254,0.0502,2.4215,9.4995,66.8516,0.0037,0.0307,0.0607,0.0608
16:53:37:283,0.0598,2.3569,9.4086,67.1076,0.0037,0.0271,0.046,0.0608
16:53:37:305,0.0096,2.2851,9.5569,65.737,-0.0244,0.0283,0.035,0.0607
16:53:37:319,-0.0335,2.321,9.6981,67.4526,-0.0342,0.0197,0.0362,0.0602
16:53:37:338,0.0311,2.3976,9.6957,67.2768,-0.0171,0.0038,0.0521,0.0597
16:53:37:358,0.0933,2.4526,9.6072,67.3385,0.0134,0.0038,0.0741,0.0599
16:53:37:380,0.1029,2.4885,9.5186,67.3548,0.0293,0.0148,0.0753,0.0601
16:53:37:400,0.1005,2.4981,9.387,65.8696,0.0244,0.0112,0.0619,0.0603
16:53:37:423,0.1149,2.4837,9.4229,67.2265,0.0085,0.0148,0.0484,0.0605
16:53:37:441,0.1699,2.4407,9.4277,66.258,-0.0159,0.01,0.035,0.0606
16:53:37:457,0.1364,2.3857,9.679,66.8853,-0.0367,0.0002,0.0277,0.0606
16:53:37:473,0.146,2.345,9.8369,66.5756,-0.0452,-0.0352,0.0252,0.0607
16:53:37:492,0.1388,2.3521,9.8249,67.412,-0.0098,-0.0377,0.035,0.061
16:53:37:513,0.1101,2.3665,9.5641,66.8343,0.0525,-0.012,0.0448,0.0614
16:53:37:535,0.2943,2.388,9.2841,66.3045,0.0916,-0.0023,0.0546,0.0619
16:53:37:560,0.3326,2.4861,9.2722,67.4845,0.0611,-0.012,0.0399,0.0624
16:53:37:573,0.0933,2.4167,9.4875,66.7762,-0.0049,-0.0047,-0.0017,0.0624
16:53:37:592,0.0263,2.3928,9.6072,66.375,-0.0342,0.0136,-0.0114,0.0621
16:53:37:614,0.1412,2.3761,9.655,65.0927,-0.0171,0.0307,0.0216,0.0618
16:53:37:635,0.1675,2.4144,9.5713,67.9667,0.0012,0.0112,0.0252,0.0618
16:53:37:657,0.1172,2.4263,9.4828,66.5625,0.0122,-0.0071,0.0142,0.0619
16:53:37:791,0.1316,2.4335,9.3823,67.3704,0.0134,-0.0084,0.0142,0.0621
16:53:37:793,0.2417,2.4574,9.3224,67.9406,-0,0.0124,0.0252,0.0621
16:53:37:793,0.2249,2.4239,9.5785,69.9007,-0.0318,0.0063,0.013,0.062
16:53:37:794,0.1029,2.3474,9.801,68.7314,-0.0537,-0.034,-0.0139,0.062
16:53:37:795,-0.0694,2.2708,9.8895,68.9907,-0.0257,-0.0365,-0.0224,0.0621
16:53:37:795,-0.0335,2.2445,9.7484,66.5756,0.0379,-0.0096,0.0057,0.0623
16:53:37:796,0.0718,2.3497,9.5569,66.8977,0.0916,0.0014,0.0423,0.0627
16:53:37:813,0.0431,2.3904,9.4158,66.5625,0.1002,-0.012,0.0374,0.0633
16:53:37:833,0.0263,2.3976,9.2674,65.7839,0.0733,0.0026,0.0362,0.0637
16:53:37:853,0.1747,2.412,9.2339,67.2148,0.0354,0.038,0.0619,0.0636
16:53:37:873,0.2082,2.467,9.5378,66.8344,-0.0147,0.0442,0.0631,0.0632
16:53:37:893,0.0861,2.4215,9.7029,66.6273,-0.0464,0.021,0.0399,0.0629
16:53:37:915,0.0239,2.4742,9.7412,66.8276,-0.0134,0.0173,0.0362,0.0627
16:53:37:934,0.0718,2.5125,9.5498,67.8385,0.0342,0.0063,0.0558,0.0629
16:53:37:953,0.3206,2.4766,9.2961,67.0965,0.0709,0.0051,0.0741,0.0633
16:53:37:975,0.2177,2.4981,9.3583,66.8852,0.0171,-0.0108,0.0362,0.064
16:53:37:992,0.1579,2.5292,9.5306,66.9588,-0.0061,0.0038,0.0252,0.064
16:53:38:014,0.1962,2.4766,9.655,67.7424,-0.0183,-0.0059,0.0216,0.064
16:53:38:033,0.1723,2.5077,9.7029,67.9406,-0.0037,-0.0267,0.0191,0.0643
16:53:38:061,0.1651,2.4909,9.6574,66.8276,0.0269,-0.0218,0.024,0.0646
16:53:38:073,0.1795,2.5364,9.4493,66.5625,0.0476,-0.0157,0.035,0.0651
16:53:38:095,0.3254,2.5196,9.3105,67.7389,0.0501,0.0075,0.0411,0.0654
16:53:38:112,0.2465,2.5627,9.4469,65.1364,0.0208,0.0161,0.024,0.0654
16:53:38:135,0.0407,2.467,9.6263,68.5435,-0.0195,-0.0071,-0.0053,0.0654
16:53:38:154,0.0359,2.3857,9.6096,68.2625,-0.0037,-0.001,0.0081,0.0653
16:53:38:178,0.1101,2.4072,9.4875,67.5682,0.0281,0.021,0.0374,0.0653
16:53:38:192,0.1507,2.4311,9.3823,67.7389,0.0232,0.0197,0.0472,0.0653
16:53:38:214,0.1316,2.4957,9.3248,68.2649,-0,0.0405,0.0509,0.0651
16:53:38:232,0.0981,2.5053,9.5019,66.6273,-0.0281,0.0478,0.0448,0.0646
16:53:38:252,0.1962,2.4957,9.6766,66.3626,-0.0342,0.0136,0.0448,0.0645
16:53:38:273,0.4068,2.534,9.6072,69.3727,0.0049,-0.0181,0.0497,0.0648
16:53:38:294,0.4642,2.6082,9.3751,68.0682,0.0538,-0.0047,0.0411,0.0652
16:53:38:313,0.4164,2.5627,9.2937,67.4767,0.0586,0.0136,0.0167,0.0655
16:53:38:335,0.3517,2.5172,9.399,68.0125,0.0208,-0.0157,-0.02,0.0657
16:53:38:354,0.0981,2.3641,9.6742,68.6769,-0.0134,-0.0487,-0.0603,0.066
16:53:38:373,-0.201,2.3234,9.6526,68.4956,-0.0085,-0.0304,-0.0603,0.066
16:53:38:393,-0.1364,2.4048,9.4493,66.9587,0.0305,0.0234,-0.0114,0.0658
16:53:38:415,0.0239,2.4455,9.2818,68.3408,0.0489,0.049,0.0387,0.0657
16:53:38:434,0.0455,2.4598,9.4445,67.8153,-0.0257,0.0283,0.0203,0.065
16:53:38:452,0.0885,2.4503,9.5234,67.7658,-0.0464,0.0002,0.0264,0.0648
16:53:38:471,0.1795,2.4072,9.5354,68.8558,-0.0208,0.0063,0.0411,0.0647
16:53:38:493,0.146,2.4335,9.5617,68.0682,0.0037,0.0173,0.0399,0.0646
16:53:38:512,0.1651,2.4909,9.5426,67.5682,0.0171,0.0063,0.0423,0.0647
16:53:38:535,0.2034,2.5196,9.2722,67.4845,0.0452,0.0136,0.0497,0.0648
16:53:38:553,0.3183,2.5508,9.1621,66.9058,0.0599,0.0332,0.0607,0.065
16:53:38:573,0.3924,2.6297,9.3559,67.5467,0.0183,0.0258,0.0484,0.065
16:53:38:591,0.2441,2.5292,9.6574,66.9048,-0.0562,-0.023,-0.0102,0.0649
16:53:38:615,0.0431,2.5029,9.746,66.7077,-0.0623,-0.0059,-0.0297,0.0646
16:53:38:635,0.079,2.5029,9.5833,67.5682,-0.011,0.0283,-0.0029,0.0643
16:53:38:655,0.0814,2.4694,9.3751,67.1438,0.0183,0.021,0.0093,0.0642
16:53:38:673,0.0335,2.4359,9.3344,69.1596,0.0085,0.0222,0.0057,0.064
16:53:38:692,-0.012,2.3928,9.5019,67.2358,-0.0293,0.0246,0.0081,0.0636
16:53:38:711,0.0287,2.3641,9.6263,66.9583,-0.0452,0.01,0.0203,0.0633
16:53:38:734,0.1699,2.4048,9.5019,68.0125,-0.022,0.0185,0.0423,0.0631
16:53:38:753,0.2297,2.5244,9.3009,67.4385,0.0049,0.049,0.0546,0.0629
16:53:38:771,0.2153,2.5484,9.399,67.4313,-0.0159,0.0417,0.0374,0.0625
16:53:38:792,0.0718,2.4885,9.6239,66.8739,-0.0659,0.0124,0.002,0.0621
16:53:38:814,-0.1244,2.4311,9.7699,67.4385,-0.0745,0.0173,-0.0102,0.0616
16:53:38:840,-0.1531,2.4311,9.7484,67.0552,-0.0305,0.0222,0.0118,0.0612
16:53:38:863,0.2369,2.5268,9.5569,66.6613,0.0428,0.0197,0.0619,0.0613
16:53:38:872,0.1819,2.5149,9.6263,66.4628,0.022,0.0283,0.0399,0.0612
16:53:38:891,0.1627,2.4598,9.6574,67.4956,0.0134,0.0161,0.0203,0.0612
16:53:38:910,0.2273,2.4718,9.5976,67.3267,0.0403,0.0136,0.0301,0.0613
16:53:38:931,0.3589,2.4957,9.4014,68.537,0.0745,0.0124,0.0411,0.0616
16:53:38:952,0.2919,2.5292,9.2961,67.5916,0.0794,-0.001,0.0289,0.0621
16:53:38:977,0.1819,2.5053,9.2698,68.5435,0.0476,-0.0047,-0.0017,0.0624
16:53:38:993,0.1866,2.5819,9.2219,69.1597,0.0073,0.0429,0.002,0.0621
16:53:39:013,0.1603,2.5962,9.3392,67.5682,-0.0318,0.082,0.0057,0.0614
16:53:39:033,0.0455,2.4957,9.5569,68.0682,-0.0635,0.0625,-0.0273,0.0605
16:53:39:053,-0.1172,2.455,9.6096,66.8852,-0.0501,0.0161,-0.0505,0.0601
16:53:39:073,-0.1172,2.5077,9.4182,66.9562,0.0061,-0.0023,-0.0346,0.0601
16:53:39:096,-0.0048,2.5508,9.2315,67.5247,0.0367,0.0258,-0.0126,0.06
16:53:39:113,-0.0168,2.5436,9.3703,68.2742,0.0024,0.0344,-0.0163,0.0597
16:53:39:134,-0.0526,2.4191,9.7244,70.4731,-0.0476,-0.0096,-0.0371,0.0595
16:53:39:154,-0.1507,2.3904,9.8608,68.6798,-0.044,-0.0414,-0.0383,0.0596
16:53:39:174,-0.1436,2.3521,9.7388,66.0935,0.0183,-0.0096,-0.0041,0.0596
16:53:39:194,0.0359,2.4311,9.5091,68.5831,0.0709,0.0234,0.0387,0.0598
16:53:39:213,0.1819,2.5149,9.4397,68.9055,0.0721,0.0136,0.0546,0.0601
16:53:39:233,0.1747,2.5603,9.3583,67.9036,0.0574,0.0063,0.0374,0.0604
16:53:39:253,0.0885,2.5819,9.3823,68.9055,0.0489,0.0234,0.0216,0.0605
16:53:39:273,0.1364,2.5579,9.3703,66.7526,0.0367,0.0222,0.013,0.0605
16:53:39:293,0.1101,2.5723,9.3512,67.4897,0.0232,0.0283,0.0081,0.0604
16:53:39:318,0.0838,2.5531,9.4516,68.5129,0.0085,0.021,-0.0053,0.0603
16:53:39:338,0.079,2.5938,9.5043,70.3368,0.0122,0.0161,-0.0102,0.0601
16:53:39:351,0.0455,2.5723,9.454,69.8938,0.0208,0.0063,-0.0212,0.0602
16:53:39:373,0.0407,2.601,9.4277,68.3864,0.0183,0.0038,-0.0224,0.0603
16:53:39:396,0.0263,2.5866,9.5474,66.8018,0.0012,0.0185,-0.0224,0.0602
16:53:39:414,-0.0311,2.5149,9.6814,67.5682,-0.0098,0.0136,-0.0285,0.0599
16:53:39:431,-0.0742,2.5172,9.6191,67.7658,0.0232,0.0038,-0.0249,0.0598
16:53:39:453,0.0335,2.5531,9.3775,68.3709,0.0635,-0.0108,-0.0139,0.0602
16:53:39:473,-0.0215,2.5842,9.3392,68.0596,0.0684,0.0051,-0.0126,0.0605
16:53:39:495,-0.0574,2.5795,9.4493,66.8018,0.0391,0.0136,-0.0187,0.0605
16:53:39:517,-0.1125,2.5675,9.4229,67.2358,0.0195,-0.012,-0.0273,0.0605
16:53:39:534,-0.0957,2.601,9.2841,68.2987,0.0257,0.0051,-0.0126,0.0605
16:53:39:553,0.012,2.6967,9.1956,68.2987,0.0147,0.0442,0.0032,0.0604
16:53:39:576,-0.0191,2.6249,9.4636,68.3864,-0.033,0.049,-0.0078,0.0599
16:53:39:592,-0.1364,2.4981,9.6981,67.4385,-0.0659,0.0246,-0.0322,0.0591
16:53:39:612,-0.2106,2.4574,9.7507,68.4431,-0.044,0.0148,-0.0249,0.0587
16:53:39:636,-0.1364,2.5077,9.4995,68.2645,0.0183,0.0185,0.013,0.0587
16:53:39:654,0.0479,2.6225,9.2243,67.4845,0.0599,0.0271,0.0423,0.0587
16:53:39:672,0.134,2.6345,9.1669,67.4385,0.0281,0.0197,0.0289,0.0588
16:53:39:693,0.0718,2.6369,9.2985,67.2918,-0.0367,0.0258,-0.0029,0.0585
16:53:39:822,-0.0048,2.6058,9.4923,67.7389,-0.0757,0.0478,-0.0212,0.0578
16:53:39:823,-0.0694,2.6154,9.6981,65.7839,-0.0806,0.0429,-0.0212,0.057
16:53:39:824,-0.0263,2.589,9.7149,67.6867,-0.0464,0.0258,-0.0151,0.0566
16:53:39:825,-0.2273,2.5555,9.3846,65.8425,0.022,0.0344,-0.0346,0.0561
16:53:39:826,-0.3517,2.5603,9.411,66.1026,-0,0.0429,-0.0322,0.0557
16:53:39:827,-0.3733,2.5268,9.6311,67.4767,-0.0293,0.0466,-0.0163,0.0551
16:53:39:836,-0.2871,2.5125,9.734,67.2148,-0.022,0.0307,0.0093,0.0547
16:53:39:853,-0.2177,2.5866,9.6168,65.8425,0.0269,0.0197,0.0362,0.0547
16:53:39:875,-0.0814,2.6201,9.3775,67.1721,0.0647,0.0197,0.046,0.0549
16:53:39:892,0.0526,2.68,9.2794,66.7762,0.0562,0.0271,0.0484,0.0551
16:53:39:913,0.0479,2.6704,9.3272,66.3817,0.0159,0.0295,0.0325,0.055
16:53:39:932,-0.0646,2.6465,9.4899,68.2001,-0.0159,0.0185,0.0069,0.0549
16:53:39:951,-0.1507,2.6273,9.4947,68.1097,-0.0147,0.0124,-0.0029,0.0547
16:53:39:973,-0.1531,2.6154,9.4349,67.9668,0.0037,0.021,0.002,0.0547
16:53:39:991,-0.2297,2.5531,9.4804,67.1721,-0.0012,0.0051,-0.0017,0.0546
16:53:40:011,-0.2943,2.5914,9.4828,65.737,-0.0061,0.0002,0.002,0.0546
16:53:40:033,-0.1316,2.6178,9.2865,68.1486,0.0147,0.0295,0.0289,0.0545
16:53:40:053,-0.0335,2.7111,9.2722,67.8839,0.0147,0.0393,0.0362,0.0544
16:53:40:075,-0.1196,2.6273,9.4325,65.7902,-0.0195,0.01,0.0032,0.0543
16:53:40:095,-0.3733,2.5603,9.6239,66.3045,-0.0428,-0.0071,-0.02,0.0541
16:53:40:115,-0.3565,2.5292,9.5665,69.1082,-0.0232,0.01,0.0045,0.0539
16:53:40:133,-0.1268,2.5651,9.4301,67.5724,0.0085,0.0295,0.0448,0.0538
16:53:40:153,-0.0766,2.6225,9.5306,66.5625,0.0049,0.0148,0.0399,0.054
16:53:40:175,-0.2106,2.5723,9.5952,68.1486,-0.0085,-0.012,0.0142,0.0539
16:53:40:196,-0.1244,2.6178,9.5474,68.5887,0.0122,0.0026,0.0228,0.0541
16:53:40:213,0.0287,2.6919,9.2698,67.9387,0.0379,0.0173,0.0546,0.0543
16:53:40:233,0.0718,2.7565,9.2004,67.1488,0.0415,0.0405,0.0448,0.0543
16:53:40:254,-0.3637,2.5866,9.5522,67.2357,-0.0464,0.0026,-0.0395,0.0541
16:53:40:273,-0.39,2.5842,9.6718,68.4183,-0.044,-0.0059,-0.0249,0.0535
16:53:40:295,-0.2201,2.6201,9.5689,67.057,0.0037,0.0026,0.0216,0.0536
16:53:40:312,-0.1029,2.5962,9.4732,68.2001,0.0428,0.0002,0.0411,0.0539
16:53:40:331,-0.213,2.546,9.3559,66.8977,0.0391,0.0075,0.024,0.0541
16:53:40:353,-0.3039,2.5819,9.399,67.6504,0.0122,0.0319,0.0081,0.0538
16:53:40:375,-0.2369,2.5938,9.5737,66.6283,-0.0073,0.0271,0.0264,0.0537
16:53:40:392,-0.2153,2.6656,9.5737,67.2918,-0.0012,0.0136,0.035,0.0536
16:53:40:414,-0.4786,2.6178,9.3703,67.623,0.0171,0.1004,0.0374,0.0528
16:53:40:434,-0.8925,2.5938,8.8702,68.5229,-0.011,0.2445,0.0484,0.0506
16:53:40:451,-0.7155,2.5603,9.0018,69.1082,-0.0977,0.4339,0.1169,0.0466
16:53:40:473,-0.5695,2.6154,9.7651,68.4632,-0.2272,0.4094,0.1963,0.0423
16:53:40:492,-0.8758,2.4718,9.8632,68.7313,-0.2492,0.2482,0.1755,0.0393
16:53:40:515,-0.8112,2.3234,9.734,67.4526,-0.1222,0.1883,0.1792,0.0372
16:53:40:533,-0.9093,2.4407,9.6024,69.0071,-0.0085,0.1724,0.1975,0.0359
16:53:40:552,-1.0576,2.5077,9.5856,68.64,0.0232,0.126,0.1963,0.035
16:53:40:574,-0.8614,2.4574,9.4588,70.2212,0.0195,0.082,0.2219,0.0346
16:53:40:593,-0.469,2.4526,9.5139,68.6684,0.0244,0.0918,0.2659,0.0342
16:53:40:615,0.0096,2.5244,9.5569,67.3704,0.0183,0.0173,0.294,0.0347
16:53:40:632,0.7226,2.5723,9.7149,67.6216,0.0428,-0.0988,0.2977,0.0364
16:53:40:652,1.0361,2.7517,9.746,67.8618,0.077,-0.1147,0.2293,0.0384
16:53:40:676,0.7633,2.802,9.5617,65.6221,0.0941,-0.0291,0.0814,0.0395
16:53:40:695,-0.0861,2.4861,9.3751,66.2037,0.0806,0.0943,-0.0823,0.0391
16:53:40:713,-0.9308,2.3904,8.9396,65.7658,0.055,0.0564,-0.136,0.0375
16:53:40:733,-0.5743,2.601,8.8391,67.4216,0.0806,-0.0242,-0.0688,0.038
16:53:40:750,0.1484,2.8427,8.6429,64.4431,0.0733,-0.1501,-0.0017,0.0399
16:53:40:773,0.4187,2.8594,8.8534,66.4016,0.0061,-0.1623,-0.0578,0.0415
16:53:40:792,0.3637,2.7541,9.4349,64.8745,-0.1185,-0.1061,-0.1666,0.042
16:53:40:813,0.3757,2.6919,9.7053,65.8756,-0.2065,-0.0682,-0.224,0.0417
16:53:40:832,0.1149,2.6082,10.0235,67.2016,-0.2272,0.0197,-0.2631,0.0405
16:53:40:853,-0.3183,2.3952,10.014,65.7198,-0.2077,-0.0047,-0.351,0.0393
16:53:40:875,-0.7801,2.2397,9.7149,67.0151,-0.1051,-0.1024,-0.4011,0.0391
16:53:40:906,-0.9882,2.2684,9.1525,66.6816,0.0367,-0.144,-0.3706,0.0401
16:53:40:922,-1.2586,2.3497,8.394,65.8756,-0.0904,0.2128,-0.2838,0.0374
16:53:40:939,-1.3807,2.2732,8.863,67.4976,-0.3323,0.3679,-0.2093,0.0324
16:53:40:957,-1.5721,2.1894,9.3918,67.8402,-0.4936,0.3642,-0.1397,0.0268
16:53:40:977,-1.4812,2.1942,9.5354,65.8958,-0.496,0.3227,-0.0652,0.0216
16:53:40:996,-0.9787,2.3545,9.4828,68.3452,-0.4093,0.2482,0.0472,0.0177
16:53:41:019,-0.4044,2.6488,9.8082,67.7377,-0.3519,0.0894,0.1107,0.0157
16:53:41:036,-0.2704,2.5771,9.8608,68.2895,-0.2859,-0.0694,0.0533,0.0153
16:53:41:055,-0.4857,2.6297,9.88,68.9753,-0.1478,-0.1672,-0.0701,0.0161
16:53:41:076,-0.2345,2.6991,10.0738,68.6713,-0.0281,-0.3431,-0.1336,0.019
16:53:41:092,0.1268,2.8762,9.6407,67.7377,0.0733,-0.5691,-0.0945,0.0243
16:53:41:113,-0.0622,3.1944,8.8032,68.4268,0.1894,-0.4799,-0.0456,0.0294
16:53:41:131,-0.3398,3.149,8.1787,67.6131,0.1869,-0.3566,-0.1116,0.0334
16:53:41:153,-0.8327,2.9551,8.4371,67.6972,0.0208,-0.2503,-0.2081,0.0354
16:53:41:177,-1.1438,2.7589,9.4708,67.6131,-0.1942,-0.2759,-0.2619,0.0366
16:53:41:196,-1.3065,2.5268,10.0858,65.1864,-0.2541,-0.4176,-0.3058,0.0384
16:53:41:213,-1.3615,2.455,10.1049,66.8004,-0.1295,-0.425,-0.3254,0.0408
16:53:41:231,-1.5793,2.3234,9.8345,66.3028,-0.0122,-0.2539,-0.312,0.0423
16:53:41:252,-1.8401,2.1918,9.9709,67.3999,-0.0208,-0.0731,-0.2435,0.0422
16:53:41:274,-1.7898,2.0315,9.9828,66.5106,-0.0843,-0.0401,-0.1385,0.0416
16:53:41:296,-1.5553,2.0602,9.9302,67.1874,-0.055,-0.0609,-0.0163,0.0415
16:53:41:314,-1.0002,2.1823,9.4516,66.0829,0.0476,-0.0914,0.1022,0.0423
16:53:41:331,-0.548,2.3282,8.6812,64.654,0.1173,-0.056,0.1694,0.0435
16:53:41:354,0.0191,2.3593,8.8487,66.6196,0.0672,-0.0206,0.1816,0.0442
16:53:41:373,0.3039,2.4503,9.4469,64.8779,-0.0782,-0.1098,0.0814,0.045
16:53:41:391,0.1651,2.1894,10.1312,65.1458,-0.1759,-0.2014,-0.1104,0.0458
16:53:41:410,-0.1723,2.0124,10.3083,66.4369,-0.1454,-0.2588,-0.2814,0.047
16:53:41:435,-0.5695,1.9645,9.6981,64.7885,-0.033,-0.2539,-0.3376,0.0485
16:53:41:451,-0.6915,2.1129,9.0712,65.0621,0.0403,-0.1134,-0.2484,0.0493
16:53:41:474,-0.1364,2.2612,8.3964,66.9674,0.0428,0.0429,-0.0688,0.0491
16:53:41:491,0.3685,2.4861,8.3725,66.4477,-0.0672,0.1517,0.0338,0.0478
16:53:41:513,0.3948,2.6871,9.2554,65.0921,-0.2443,0.1284,0.0179,0.0458
16:53:41:530,0.1005,2.936,9.7914,65.3396,-0.2932,0.0332,-0.0371,0.0443
16:53:41:553,0.1125,3.1466,9.4038,64.5697,-0.1099,0.0405,-0.0053,0.0437
16:53:41:571,0.335,3.259,8.6764,64.8667,0.0452,0.0796,0.0374,0.0436
16:53:41:590,0.4164,3.1394,8.5137,65.6292,-0.0818,0.0674,0.002,0.043
16:53:41:613,-0.6532,2.4479,10.3681,65.1727,-0.5901,-0.0523,-0.1348,0.0409
16:53:41:632,-0.9619,2.3258,10.4997,63.9947,-0.5082,-0.0878,-0.0664,0.0384
16:53:41:659,-0.725,2.5675,9.923,65.103,-0.27,-0.023,0.1071,0.0356
16:53:41:676,-0.1172,2.9599,8.9228,63.9829,-0.0586,0.0649,0.2806,0.0351
16:53:41:692,0.5264,3.0844,8.1308,64.8043,0.0183,0.1223,0.3355,0.0348
16:53:41:711,0.8016,3.0724,8.3749,65.5478,-0.0525,0.0918,0.2512,0.0345
16:53:41:732,0.3302,3.0365,9.2961,65.0528,-0.1784,-0.0475,0.0716,0.0344
16:53:41:859,0.0933,2.991,9.655,63.66,-0.1503,-0.0951,-0.0065,0.0347
16:53:41:860,0.3278,3.1681,9.454,66.4054,0.022,0.0063,0.0362,0.035
16:53:41:861,0.7801,3.2327,8.9755,64.4912,0.1711,0.1419,0.1034,0.0352
16:53:41:862,0.6939,3.4505,8.9683,65.6292,0.2003,0.2274,0.0716,0.0348
16:53:41:863,0.2608,3.6562,9.2985,63.1868,0.1552,0.2238,-0.0065,0.0341
16:53:41:863,0.067,3.7137,9.4995,63.3233,0.1747,0.1944,-0.0273,0.0337
16:53:41:872,0.0455,3.8453,9.5163,61.8425,0.27,0.1749,-0.0078,0.0339
16:53:41:890,0.2321,3.6921,9.7579,62.1235,0.3238,0.1065,-0.0029,0.0349
16:53:41:909,0.201,3.6634,10.6863,63.0189,0.2798,-0.012,-0.0566,0.0367
16:53:41:930,-0.0909,3.46,11.6267,61.3047,0.2077,-0.0865,-0.1373,0.0385
16:53:41:952,-0.591,3.5318,11.7631,61.3047,0.259,0.0466,-0.1531,0.0393
16:53:41:972,-0.9523,3.7113,11.1027,62.2049,0.4252,0.3642,-0.0603,0.0383
16:53:41:991,-1.0146,3.8166,10.5763,60.1971,0.5217,0.6135,0.0521,0.0359
16:53:42:012,-0.8901,3.6802,10.727,61.3164,0.4655,0.6758,0.0997,0.0328
16:53:42:031,-1.2419,3.6754,11.1075,60.38,0.347,0.5536,0.0301,0.03
16:53:42:052,-1.2227,3.2423,11.2606,59.754,0.2993,0.4094,-0.0517,0.0279
16:53:42:072,-1.2706,1.9813,10.4877,60.8768,0.3103,0.2824,-0.1776,0.0256
16:53:42:091,-1.8042,1.541,10.3203,59.8929,0.2077,0.2958,-0.1873,0.0238
16:53:42:111,-2.3043,1.2754,9.9996,59.9045,0.1515,0.3349,-0.0945,0.0211
16:53:42:134,-2.6728,1.3161,9.5545,59.5661,0.2346,0.3789,0.0887,0.0186
16:53:42:152,-2.6967,1.4237,8.9755,60.3379,0.3347,0.3093,0.2647,0.0174
16:53:42:173,-2.1296,1.3472,8.473,59.232,0.3787,0.1199,0.4088,0.0183
16:53:42:190,-1.8592,1.3759,8.0112,57.4623,0.3262,-0.056,0.4443,0.0205
16:53:42:210,-1.5888,1.2873,7.7695,60.0155,0.1784,-0.122,0.4174,0.0225
16:53:42:233,-1.2586,1.1653,7.7958,59.0707,-0.0159,-0.1317,0.4003,0.0238
16:53:42:253,-0.9667,1.1222,8.059,58.7227,-0.2028,-0.1733,0.3807,0.0246
16:53:42:271,-0.8231,1.0672,8.0638,58.7636,-0.3311,-0.2759,0.3563,0.0257
16:53:42:291,-0.5886,1.1629,7.7647,57.6376,-0.3775,-0.3223,0.3465,0.027
16:53:42:311,-0.3422,1.3113,7.0684,58.3156,-0.3763,-0.2759,0.3661,0.0281
16:53:42:331,-0.4355,1.6199,6.9631,59.769,-0.4178,-0.0804,0.36,0.0273
16:53:42:353,-0.4857,1.5003,6.786,58.559,-0.5754,0.0943,0.3294,0.0244
16:53:42:369,-0.524,1.3615,6.877,59.3723,-0.7343,0.2506,0.3478,0.0194
16:53:42:391,-0.4164,1.4357,7.0708,58.6997,-0.8442,0.3423,0.3746,0.0133
16:53:42:411,-0.3589,1.5338,7.5589,58.739,-0.9273,0.3105,0.3441,0.007
16:53:42:430,-0.3733,1.5697,8.3175,59.0294,-1.0067,0.2128,0.2525,0.0012
16:53:42:455,-0.3996,1.3161,9.1597,58.9993,-0.9994,0.1321,0.1242,-0.004
16:53:42:471,-0.6389,1.2802,9.5163,61.712,-0.8418,0.1028,0.0142,-0.0084
16:53:42:489,-0.9284,1.4836,9.6,60.1037,-0.5852,0.0881,-0.0444,-0.0117
16:53:42:511,-1.2993,1.8425,9.7125,60.7147,-0.3934,-0.0181,-0.0811,-0.0133
16:53:42:531,-1.0528,2.053,10.4662,58.4471,-0.1991,-0.3126,-0.1238,-0.0131
16:53:42:558,-0.8877,2.0961,10.6887,59.246,-0.1429,-0.3162,-0.1507,-0.0092
16:53:42:572,-1.0074,2.3163,10.9496,57.8995,-0.1552,-0.2112,-0.1935,-0.0082
16:53:42:590,-1.3065,2.5603,11.3492,59.3285,-0.2345,-0.0328,-0.2142,-0.009
16:53:42:613,-1.651,2.6895,11.7368,60.7089,-0.2773,0.2457,-0.1824,-0.0124
16:53:42:630,-1.9908,2.936,12.079,58.4496,-0.2492,0.4815,-0.1226,-0.0176
16:53:42:652,-1.9286,3.0891,12.457,59.4526,-0.1991,0.4436,-0.075,-0.0222
16:53:42:672,-0.7657,2.4933,12.7418,59.5956,-0.116,0.1468,-0.0969,-0.0237
16:53:42:691,0.1866,1.5458,12.4618,59.5762,-0.0464,-0.2307,-0.2948,-0.0217
16:53:42:713,0.067,0.8064,12.5264,60.1426,-0.1368,-0.4482,-0.6577,-0.0187
16:53:42:730,-0.7322,-0.0718,12.8925,58.9517,-0.4129,-0.4152,-0.968,-0.0177
16:53:42:749,-1.7109,-0.9476,13.4189,60.5366,-0.5852,-0.1843,-1.0047,-0.0198
16:53:42:773,-1.9645,-1.3735,13.4907,60.5911,-0.4154,0.0881,-0.6846,-0.0233
16:53:42:792,-0.9356,-1.3639,12.4044,61.1638,0.0855,0.2641,-0.1629,-0.0254
16:53:42:814,0.4451,-1.1533,10.66,62.4541,0.65,0.3141,0.1853,-0.0248
16:53:42:832,1.3711,-1.017,9.1047,59.5956,0.9798,0.2689,0.2109,-0.0222
16:53:42:853,1.2849,-0.7633,7.7862,59.6297,0.9468,0.115,-0.0639,-0.0185
16:53:42:871,0.4259,-0.7274,7.0181,59.5883,0.6609,0.0222,-0.4085,-0.0159
16:53:42:890,-0.3685,-0.5982,6.6879,60.7212,0.3128,0.1126,-0.5502,-0.0159
16:53:42:914,-0.8279,-0.213,6.6832,58.6701,0.0305,0.2225,-0.4806,-0.0182
16:53:42:934,-1.0672,0.2273,6.7238,60.2284,-0.1393,0.2042,-0.3205,-0.0209
16:53:42:949,-0.8877,0.6174,6.542,60.7545,-0.1771,0.0869,-0.1409,-0.0227
16:53:42:968,-0.3805,1.0552,6.1232,61.1123,-0.1368,-0.0426,0.0167,-0.0228
16:53:42:988,0.5025,1.7276,5.8576,60.5967,-0.2639,-0.1855,-0.0187,-0.022
16:53:43:008,0.4403,1.7683,6.6832,61.673,-0.4862,-0.2393,-0.2057,-0.0213
16:53:43:033,0.189,1.5673,8.1476,60.3054,-0.6719,-0.3504,-0.4268,-0.0216
16:53:43:049,-0.4881,1.4836,9.119,62.2772,-0.7061,-0.4836,-0.6162,-0.0211
16:53:43:070,-1.0074,1.4859,9.7675,62.6315,-0.5412,-0.4653,-0.6626,-0.0202
16:53:43:089,-1.1462,1.529,10.1169,61.4691,-0.3188,-0.3944,-0.5771,-0.0187
16:53:43:112,-1.0504,1.4357,10.8921,61.9092,-0.1686,-0.3676,-0.4476,-0.0167
16:53:43:131,-1.3424,1.5003,12.1268,61.7147,-0.0953,-0.4189,-0.3535,-0.0139
16:53:43:152,-1.5888,1.6534,12.6102,63.1615,0.0843,-0.5032,-0.2191,-0.0095
16:53:43:171,-1.194,1.9334,11.8684,61.8095,0.4765,-0.4409,-0.0175,-0.0035
16:53:43:189,-0.9834,2.3306,11.0118,62.7498,0.7733,-0.1305,0.1266,0.0016
16:53:43:211,-0.5504,2.2349,11.5573,62.2648,0.6609,0.2079,0.2036,0.0035
16:53:43:232,-0.7585,2.0387,12.8901,61.1098,0.3409,0.3423,0.1853,0.0026
16:53:43:253,-1.0576,2.0913,13.5673,61.4197,0.2602,0.3276,0.1877,0.0014
16:53:43:274,-1.3089,2.5196,12.8662,59.9732,0.5107,0.3227,0.305,0.0015
16:53:43:294,-1.4022,2.8331,11.6842,59.5762,0.8076,0.4473,0.4418,0.0022
16:53:43:316,-1.2873,2.3976,11.074,60.1426,0.7917,0.4999,0.4699,0.0023
16:53:43:330,-1.4189,1.4907,11.5932,59.6389,0.4887,0.2934,0.3539,0.0024
16:53:43:350,-1.8616,0.7298,12.0383,59.0605,0.2443,0.0124,0.2146,0.0033
16:53:43:371,-2.7996,0.5527,11.4951,60.2845,0.3274,-0.0267,0.173,0.0045
16:53:43:391,-3.0748,0.4546,9.9111,59.3304,0.6341,0.159,0.2744,0.0057
16:53:43:411,-2.6058,0.3996,8.485,58.8306,0.788,0.2714,0.3807,0.0069
16:53:43:434,-1.9717,-0.4211,9.3775,58.0052,0.0403,-0.0597,0.1547,0.0078
16:53:43:452,-2.1918,-1.1031,10.4255,57.7741,-0.4093,-0.4738,-0.0676,0.0089
16:53:43:471,-2.1966,-1.1844,10.9472,59.4865,-0.4361,-0.6461,-0.0517,0.0113
16:53:43:494,-1.6152,-0.8925,10.0379,59.9626,-0.0977,-0.563,0.2109,0.015
16:53:43:517,-1.0409,-0.2991,8.1452,57.2139,0.336,-0.2723,0.5054,0.0189
16:53:43:533,-0.3613,0.2656,6.2094,58.0617,0.5669,0.0747,0.6874,0.0213
16:53:43:551,-0.0287,0.725,5.2211,58.2919,0.485,0.3288,0.7522,0.0214
16:53:43:569,-0.2297,1.2467,5.2164,58.1378,0.1759,0.3215,0.7265,0.0202
16:53:43:590,-0.3374,1.541,5.6806,58.1916,-0.1344,0.1614,0.6984,0.019
16:53:43:611,0.067,1.9214,6.0873,55.9004,-0.2773,0.1529,0.7228,0.0174
16:53:43:632,0.615,2.0172,6.6521,56.0744,-0.3714,0.2934,0.6935,0.0144
16:53:43:655,0.859,1.9334,8.2265,57.622,-0.5437,0.3728,0.531,0.0098
16:53:43:670,0.2823,1.7659,9.9206,57.7741,-0.6609,0.1956,0.2696,0.0059
16:53:43:695,-0.2656,1.6989,10.5858,57.562,-0.4667,-0.0817,0.046,0.0048
16:53:43:710,-0.4259,1.7396,10.0068,55.1811,-0.022,-0.1696,-0.0542,0.0062
16:53:43:734,-0.4977,2.0267,9.6861,57.622,0.2651,-0.0328,-0.1091,0.0075
16:53:43:751,-0.8925,2.0483,10.2556,57.7741,0.1943,0.1309,-0.1776,0.007
16:53:43:771,-1.0648,2.1751,11.1984,57.208,0.0171,0.1847,-0.2032,0.0053
16:53:43:792,-1.1318,2.4311,11.5932,57.6893,0.0049,0.1187,-0.1788,0.0041
16:53:43:924,-1.1342,2.6441,11.3276,56.8524,0.1075,0.0515,-0.1605,0.004
16:53:43:924,-1.1127,2.8738,11.0931,57.6893,0.1503,0.0857,-0.136,0.0038
16:53:43:925,-1.1246,2.9049,10.9591,58.9928,0.0623,0.1199,-0.1189,0.003
16:53:43:926,-0.9332,2.6488,11.0405,57.3251,-0.0818,0.148,-0.1421,-0.0002
16:53:43:927,-0.2656,1.2658,12.0096,58.1879,-0.3885,-0.1513,-0.3767,-0.0009
16:53:43:928,-0.725,0.4307,12.6796,58.7492,-0.4557,-0.37,-0.5746,-0.0001
16:53:43:929,-1.5362,0.2441,12.6844,59.2462,-0.3201,-0.348,-0.5966,0.0006
16:53:43:948,-1.6128,0.256,11.8421,57.9101,-0.0061,-0.0511,-0.3681,0.0003
16:53:43:971,-0.469,-0.0335,10.7581,58.7052,0.2737,0.2018,-0.0969,-0.0004
16:53:43:990,0.8471,-0.2656,10.2102,59.3211,0.2932,0.1981,-0.0017,-0.0007
16:53:44:013,1.3208,-0.0598,9.8369,60.4352,0.0464,0.1089,-0.0896,-0.0012
16:53:44:031,0.5504,0.1819,10.1264,58.5067,-0.2016,0.1798,-0.2362,-0.0036
16:53:44:048,-0.2895,0.3326,9.7675,56.9739,-0.2175,0.2677,-0.2985,-0.0071
16:53:44:069,-0.4355,0.8662,8.8463,58.541,0.0562,0.3386,-0.1482,-0.0098
16:53:44:091,0.1172,1.4118,7.4058,60.2147,0.4056,0.2946,0.0387,-0.0101
16:53:44:116,0.7322,1.9956,5.8002,58.0592,0.6365,0.1492,0.1059,-0.0079
16:53:44:131,0.7011,2.467,4.934,59.4362,0.6182,-0.0255,-0.0004,-0.0044
16:53:44:152,0.055,2.5795,4.9579,59.3762,0.3641,-0.1953,-0.2118,-0.0009
16:53:44:170,-0.3278,2.5172,5.3886,58.3803,0.0941,-0.26,-0.3376,0.0017
16:53:44:193,-0.4618,2.6273,5.8528,62.0281,-0.0843,-0.205,-0.3401,0.003
16:53:44:213,-0.9547,2.5986,6.4558,57.7974,-0.2395,-0.0988,-0.3633,0.0025
16:53:44:229,-1.5123,2.3521,7.2861,58.8675,-0.3641,-0.0035,-0.3999,0.0004
16:53:44:250,-1.651,2.1751,8.2289,60.586,-0.3958,-0.0279,-0.3889,-0.0016
16:53:44:269,-1.3424,2.1631,9.1525,58.8753,-0.3531,-0.2332,-0.3181,-0.0016
16:53:44:290,-0.9595,2.0052,9.7316,62.3256,-0.2785,-0.4934,-0.2643,0.001
16:53:44:312,-0.9715,2.1033,10.459,61.2016,-0.1478,-0.4836,-0.2423,0.0042
16:53:44:332,-1.2179,2.4359,11.3468,60.1979,0.0415,-0.3175,-0.1812,0.0106
16:53:44:352,-0.6532,3.0006,10.8586,61.2295,0.6121,-0.1916,0.0435,0.0153
16:53:44:373,-0.8375,3.5438,9.9111,59.4097,0.8124,0.0173,0.0716,0.0193
16:53:44:392,-1.0241,3.9793,9.5545,59.8975,0.8063,0.2799,0.0802,0.0213
16:53:44:414,-1.0433,4.1228,9.8273,59.7257,0.6084,0.3752,0.0313,0.0215
16:53:44:430,-1.2897,3.7376,10.9831,59.9383,0.3042,0.2091,-0.1275,0.0212
16:53:44:452,-2.1679,3.8692,12.055,59.4465,0.0672,-0.0096,-0.2778,0.0213
16:53:44:468,-2.0435,3.728,12.2919,57.9704,0.0757,-0.0878,-0.202,0.0221
16:53:44:491,-1.0409,3.606,12.2704,60.7129,0.2138,-0.0914,-0.0774,0.024
16:53:44:510,-0.0191,2.5292,12.8183,60.9692,0.1637,-0.1672,-0.1446,0.0262
16:53:44:529,0.8231,1.1055,13.6367,59.786,-0.0464,-0.3016,-0.3547,0.0282
16:53:44:549,0.0909,0.3206,14.3833,60.9737,-0.2052,-0.4311,-0.6626,0.0297
16:53:44:569,-1.1677,-0.3661,14.0985,61.1267,-0.1869,-0.4054,-0.8923,0.0305
16:53:44:593,-2.1607,-0.6317,12.4523,60.28,0.0452,-0.056,-0.8202,0.0295
16:53:44:610,-2.4,-0.4307,10.4471,60.676,0.2407,0.451,-0.516,0.0258
16:53:44:628,-2.3593,-0.2273,9.5617,60.4864,0.1784,0.7906,-0.1898,0.0195
16:53:44:649,-2.8092,-0.0072,9.7723,60.4479,-0.0916,0.7601,-0.0273,0.0122
16:53:44:669,-2.735,-0.2704,10.27,61.1157,-0.2113,0.3276,0.1156,0.0078
16:53:44:693,-2.3258,-0.0144,10.0116,61.5737,0.044,-0.1611,0.4113,0.0092
16:53:44:713,-1.5745,0.3757,8.6548,61.3767,0.5229,-0.425,0.7399,0.0157
16:53:44:731,-1.0289,0.9332,7.1785,60.6057,0.8906,-0.3761,0.9818,0.0242
16:53:44:750,0.1938,1.4118,6.0682,60.6059,0.9627,-0.1391,1.17,0.0317
16:53:44:773,1.584,2.0818,5.5992,60.5992,0.7807,-0.0096,1.2042,0.0377
16:53:44:794,2.2564,2.4383,5.9892,58.5468,0.4508,-0.1134,0.9488,0.0429
16:53:44:813,0.5384,1.9023,6.9583,59.0601,-0.0379,-0.2344,0.0411,0.049
16:53:44:831,-0.347,1.8664,6.9727,61.6866,-0.022,0.0246,-0.1091,0.0488
16:53:44:848,-0.6772,1.8425,7.2646,59.9493,0.0122,0.2396,-0.0713,0.0468
16:53:44:872,-1.1151,1.864,7.4369,57.1879,-0.0269,0.2384,-0.0566,0.0445
16:53:44:889,-1.1557,2.0315,7.3603,59.5331,-0.0476,0.2421,-0.0273,0.0421
16:53:44:911,-1.1797,2.4407,7.1354,59.1533,-0.0904,0.3313,-0.0017,0.0389
16:53:44:929,-1.1438,2.6441,7.8652,57.9588,-0.2504,0.3887,-0.0725,0.0344
16:53:44:949,-1.4357,2.5938,9.1549,58.6398,-0.419,0.2873,-0.2179,0.0297
16:53:44:979,-2.053,2.7757,9.7651,58.1085,-0.3922,0.1211,-0.323,0.0262
16:53:44:988,-2.3019,3.2758,10.0307,58.8257,-0.1441,0.0246,-0.301,0.0247
16:53:45:007,-2.3186,4.0152,9.9326,58.0106,0.1429,0.0564,-0.2081,0.0246
16:53:45:026,-2.4072,4.8192,9.8776,56.9984,0.3115,0.1199,-0.1311,0.025
16:53:45:046,-1.9238,5.135,9.7771,57.5955,0.3347,0.1077,-0.0676,0.0259
16:53:45:067,-1.1797,5.1063,10.124,57.1226,0.1759,-0.0328,-0.1079,0.0272
16:53:45:090,-0.5575,4.7378,10.9424,56.0622,-0.127,-0.2539,-0.2594,0.0288
16:53:45:111,-0.7059,4.3765,11.9833,56.9875,-0.4239,-0.3578,-0.4488,0.0293
16:53:45:129,-0.9452,3.6993,12.871,56.8768,-0.5999,-0.348,-0.5795,0.0285
16:53:45:150,-0.7202,2.4814,13.6989,58.3968,-0.6365,-0.3651,-0.5978,0.0275
16:53:45:172,-0.2752,1.4189,14.4527,58.3968,-0.5827,-0.4763,-0.5392,0.0278
16:53:45:196,0.2393,0.6485,14.4957,57.6049,-0.4032,-0.4726,-0.3914,0.0289
16:53:45:210,1.2754,0.2919,13.3185,57.9627,-0.044,-0.1501,-0.1336,0.0298
16:53:45:229,2.0195,0.2297,11.9043,55.9908,0.3714,0.3362,0.0778,0.0293
16:53:45:252,2.0076,0.2201,10.3298,56.1638,0.617,0.5365,0.0252,0.0284
16:53:45:274,0.6054,0.6772,7.7169,56.597,0.6646,0.3838,-0.4146,0.028
16:53:45:289,-0.1436,1.0624,6.8746,55.864,0.5473,0.3435,-0.5062,0.0274
16:53:45:315,-0.6174,1.2251,6.4176,54.0371,0.3958,0.2885,-0.516,0.0263
16:53:45:328,-0.7011,1.5362,6.1711,55.0766,0.248,0.137,-0.4451,0.0259
16:53:45:348,-0.3972,1.9621,5.9629,56.4148,0.1148,0.0051,-0.3205,0.0261
16:53:45:371,-0.4259,2.4503,5.7739,55.1587,-0.0171,-0.0585,-0.2423,0.0263
16:53:45:390,-0.4881,2.8475,5.6064,55.1577,-0.1393,-0.0841,-0.2032,0.0262
16:53:45:411,-0.6987,3.0891,5.7141,55.3213,-0.2908,-0.1574,-0.1947,0.026
16:53:45:429,-0.7561,3.0628,6.1352,55.3642,-0.4679,-0.3309,-0.1971,0.0261
16:53:45:449,-0.8829,3.0293,6.5444,55.1415,-0.6512,-0.5655,-0.2228,0.027
16:53:45:471,-0.7657,3.0269,7.602,54.8679,-0.81,-0.7475,-0.257,0.0284
16:53:45:492,-0.3781,2.9743,8.8917,55.0639,-0.8674,-0.7719,-0.2875,0.0297
16:53:45:509,-0.6724,3.0054,10.1121,55.4115,-0.7147,-0.541,-0.3474,0.0298
16:53:45:528,-1.5601,3.0173,10.3442,55.1488,-0.3604,-0.2661,-0.4036,0.0295
16:53:45:547,-1.7994,3.149,10.2221,54.9891,0.0501,-0.1525,-0.3596,0.0305
16:53:45:568,-1.5697,3.4768,10.1982,55.3669,0.2798,-0.216,-0.2423,0.0336
16:53:45:593,-1.1749,3.6467,10.3944,53.8279,0.3054,-0.2026,-0.1666,0.0368
16:53:45:609,-1.1653,3.7017,10.526,53.7547,0.2224,0.0307,-0.1971,0.0377
16:53:45:626,-1.6989,3.4241,10.8778,55.4114,0.0782,0.3703,-0.2875,0.0349
16:53:45:647,-2.522,3.192,11.6291,55.0409,-0.0855,0.6049,-0.351,0.0291
16:53:45:670,-3.3236,3.2136,12.2871,54.3636,-0.1283,0.6379,-0.2887,0.0228
16:53:45:690,-3.6395,3.5079,12.3326,52.7243,0.0415,0.5964,-0.0786,0.018
16:53:45:712,-2.1942,3.2231,11.4473,52.8886,0.4081,0.3887,0.3746,0.0155
16:53:45:729,-1.5482,2.4096,12.0144,52.9227,0.2663,0.225,0.371,0.0152
16:53:45:754,-1.7492,1.5936,12.6365,52.7712,0.077,0.0234,0.2243,0.0155
16:53:45:770,-2.6967,1.3256,12.2249,52.6816,0.1319,-0.0963,0.1071,0.0165
16:53:45:792,-3.1274,1.2802,10.7605,53.1494,0.4447,0.0466,0.206,0.0182
16:53:45:809,-2.7159,1.395,9.064,52.2898,0.6854,0.1993,0.3844,0.0203
16:53:45:954,-1.9573,1.5506,8.1978,51.6644,0.5559,0.1761,0.443,0.0223
16:53:45:955,-1.2012,1.5912,7.9992,51.5395,0.1747,0.126,0.4015,0.0227
16:53:45:955,-1.1414,1.328,8.3844,50.3714,-0.1906,0.1248,0.2439,0.0208
16:53:45:956,-1.6989,1.017,8.8343,52.028,-0.3885,0.0967,0.0509,0.0177
16:53:45:957,-1.8042,0.8064,8.8654,51.2168,-0.4215,-0.0548,0.0252,0.0155
16:53:45:958,-1.3615,0.7489,8.7123,52.6455,-0.3519,-0.2918,0.1572,0.0158
16:53:45:959,-0.8016,0.8925,8.9396,51.5864,-0.2309,-0.5337,0.3343,0.0191
16:53:45:967,-0.2823,1.0576,8.6333,51.676,-0.0269,-0.7414,0.4748,0.0254
16:53:45:988,-0.0598,1.4285,7.4345,51.9856,0.3152,-0.6131,0.5897,0.0327
16:53:46:009,0.28,1.7109,6.1711,51.3073,0.584,-0.21,0.6862,0.0384
16:53:46:027,0.6724,1.7587,5.8648,50.8106,0.5058,0.0759,0.6568,0.0416
16:53:46:048,0.067,1.7994,6.9368,51.3129,0.1405,0.0674,0.437,0.0425
16:53:46:069,-1.1964,1.8185,7.9514,52.0666,-0.1808,-0.1708,0.1559,0.043
16:53:46:089,-1.8831,2.2014,8.4275,50.6155,-0.1051,-0.2454,0.1535,0.0443
16:53:46:109,-1.2945,2.4526,8.0279,50.7782,0.1747,-0.1635,0.3441,0.0468
16:53:46:130,-0.7418,2.5842,7.8652,51.8125,0.2859,-0.0646,0.4614,0.0494
16:53:46:148,-0.6772,2.7326,9.2961,50.8711,0.1466,-0.0633,0.4247,0.0512
16:53:46:173,-1.2586,3.2471,10.4662,50.4622,0.1319,-0.3566,0.1181,0.0539
16:53:46:196,-1.1174,3.618,10.0953,49.6939,0.2761,-0.2625,0.0631,0.0608
16:53:46:209,-0.7107,4.0104,10.3729,51.5538,0.2639,-0.0609,0.0546,0.0628
16:53:46:229,-0.615,4.3095,11.2343,52.5918,0.0501,0.0417,0.0191,0.0629
16:53:46:256,-0.2943,4.1324,12.0598,52.0164,-0.1564,-0.0304,-0.0407,0.0625
16:53:46:272,0.0335,3.8333,12.2608,49.8134,-0.1258,-0.0523,-0.0823,0.0624
16:53:46:287,0.3757,3.3356,11.3922,52.3359,0.0342,-0.0401,-0.1531,0.0629
16:53:46:307,0.5647,2.79,10.9735,52.2987,0.0635,-0.0352,-0.2936,0.0633
16:53:46:329,0.2034,2.1512,11.2678,52.3668,-0.0965,-0.0487,-0.4305,0.0626
16:53:46:350,-0.7801,2.2899,11.1888,51.3186,-0.138,0.0784,-0.4195,0.0606
16:53:46:382,-1.0146,2.589,10.2245,53.5702,0.0916,0.429,-0.1714,0.0573
16:53:46:389,-0.3924,2.4431,8.9707,52.3797,0.3262,0.6733,0.0936,0.0538
16:53:46:408,0.5312,1.8042,8.2146,50.7992,0.3115,0.5487,0.1816,0.0514
16:53:46:429,0.8925,1.5577,8.4203,52.2987,0.0232,0.1101,0.0582,0.051
16:53:46:450,0.4834,1.5697,8.8463,53.2393,-0.3702,-0.2551,-0.1116,0.0512
16:53:46:471,-0.1316,1.7085,9.4421,52.5844,-0.628,-0.3114,-0.1641,0.0502
16:53:46:489,-0.4618,1.7061,9.4445,52.3853,-0.6316,-0.2234,-0.0713,0.0487
16:53:46:509,-0.122,1.718,8.7793,52.1646,-0.3897,-0.1098,0.1278,0.0478
16:53:46:528,0.3278,2.12,7.9274,52.0493,-0.1038,-0.0585,0.2635,0.0482
16:53:46:548,0.3757,2.4407,7.4225,53.6656,0.0391,-0.1427,0.2121,0.0502
16:53:46:571,0.0526,2.6584,7.1785,52.7184,0.0806,-0.2307,0.0741,0.0528
16:53:46:590,-0.2704,2.8762,6.9631,53.9036,0.0843,-0.1867,0.0045,0.0562
16:53:46:609,0.0263,3.3188,6.6329,52.4044,0.0367,0.1126,0.0765,0.056
16:53:46:630,0.2536,3.527,7.1737,52.7203,-0.0965,0.1871,0.0802,0.0545
16:53:46:653,0.0168,3.5677,7.8748,54.5149,-0.2309,0.1553,0.0106,0.0526
16:53:46:667,-0.2847,3.4457,8.2911,53.2685,-0.2455,0.0857,-0.0811,0.0509
16:53:46:688,-0.1172,3.5103,8.7721,55.3866,-0.1527,0.0332,-0.0811,0.0501
16:53:46:709,0.2895,3.6156,9.7077,55.3866,-0.0647,-0.0365,-0.0322,0.0505
16:53:46:729,-0.0694,3.7448,10.5787,53.0783,0.0208,-0.1171,-0.0554,0.0518
16:53:46:749,-0.3733,3.7041,11.1458,53.0147,0.138,-0.1794,-0.103,0.0541
16:53:46:771,-0.335,3.7687,11.0836,53.1575,0.3005,-0.1867,-0.0701,0.0573
16:53:46:792,0.0072,3.6754,10.7964,53.4735,0.4423,-0.0731,-0.0273,0.0605
16:53:46:806,-0.0861,3.5294,10.9424,52.2141,0.4154,0.0393,-0.0859,0.0625
16:53:46:828,-0.7178,3.4839,11.3468,53.6564,0.2675,0.126,-0.1812,0.0627
16:53:46:851,-1.3041,3.5605,11.4568,53.7047,0.193,0.3031,-0.1812,0.0611
16:53:46:871,-1.1964,3.3858,11.1314,53.4342,0.2052,0.4962,-0.075,0.0582
16:53:46:887,-1.1294,3.0915,10.9304,54.4447,0.1527,0.5353,-0.0456,0.0547
16:53:46:907,-1.1964,2.7996,11.1506,54.8566,0.0159,0.4094,-0.0945,0.0514
16:53:46:928,-0.8877,2.4574,11.2463,55.8212,-0.0659,0.2384,-0.1116,0.049
16:53:46:950,-1.34,2.1416,10.6576,56.6292,-0.0367,0.1712,-0.1873,0.047
16:53:46:969,-2.1894,2.1129,9.9781,56.2297,0.0147,0.1981,-0.29,0.0448
16:53:46:999,-2.6345,1.9501,9.2889,55.3351,-0.0025,0.2201,-0.2643,0.0423
16:53:47:019,-2.6824,1.7731,8.8941,55.0376,-0.0794,0.2164,-0.1385,0.0396
16:53:47:030,-2.4766,1.6439,8.7864,55.44,-0.2003,0.1223,0.0106,0.0372
16:53:47:047,-1.9023,1.4118,8.6046,56.3853,-0.3176,-0.034,0.1486,0.0357
16:53:47:066,-1.3878,1.1486,8.3605,57.5191,-0.4056,-0.1037,0.2256,0.0344
16:53:47:087,-1.0146,0.8662,8.5089,59.4059,-0.6866,-0.1733,0.2769,0.0328
16:53:47:109,-1.0433,0.9021,9.0233,57.0837,-0.7465,-0.2026,0.3612,0.0285
16:53:47:130,-0.6628,0.9284,8.8606,57.9001,-0.6182,-0.3309,0.4895,0.0283
16:53:47:151,-0.2153,1.2012,8.2863,58.3351,-0.325,-0.3639,0.6324,0.0303
16:53:47:169,0.1914,1.5147,7.2359,58.627,-0.0647,-0.2246,0.7082,0.0327
16:53:47:189,0.2943,1.718,6.5683,56.5634,-0.0049,0.0038,0.6398,0.0337
16:53:47:212,-0.0622,1.6271,6.7525,58.0731,-0.1661,0.1321,0.4504,0.0324
16:53:47:230,-0.5336,1.3854,7.2885,60.4007,-0.4056,0.0295,0.2207,0.0304
16:53:47:251,-0.9476,1.3759,7.8867,59.9737,-0.5143,-0.1232,0.0924,0.0288
16:53:47:268,-0.9021,1.3735,8.3438,59.7349,-0.518,-0.1806,0.0484,0.0276
16:53:47:288,-0.7657,1.2514,9.0497,59.8754,-0.4789,-0.0426,0.0558,0.0255
16:53:47:308,-1.2562,1.3352,9.9541,61.4271,-0.4532,0.1737,0.024,0.0217
16:53:47:328,-1.8018,1.6463,10.8586,61.1423,-0.3543,0.2054,0.0338,0.0181
16:53:47:350,-2.1392,2.2445,10.6672,61.6202,-0.1038,0.0759,0.0997,0.0168
16:53:47:369,-1.8209,2.9121,10.2748,63.1359,0.1674,0.0173,0.1938,0.0178
16:53:47:388,-0.8734,3.3093,10.4662,61.1652,0.1857,0.0283,0.2512,0.019
16:53:47:412,-0.4259,3.5318,11.0812,61.8255,-0.0428,0.0283,0.1315,0.0191
16:53:47:433,-0.8207,3.8213,12.0359,62.319,-0.2944,0.0564,-0.0884,0.0175
16:53:47:449,-0.9834,4.0104,12.5216,62.9234,-0.3665,0.1272,-0.191,0.0148
16:53:47:466,-0.2393,3.5797,12.2297,63.6108,-0.2712,0.2311,-0.158,0.012
16:53:47:489,0.8327,2.6488,11.9665,64.4222,-0.2455,0.2103,-0.2215,0.0094
16:53:47:509,1.1031,1.4955,12.6796,65.223,-0.474,-0.0084,-0.5514,0.0071
16:53:47:533,0.4331,0.2345,14.01,66.0363,-0.7465,-0.2796,-0.9338,0.0048
16:53:47:552,-0.9834,-1.0337,13.9813,65.7722,-0.1173,-0.607,-0.8874,0.0071
16:53:47:568,0.0861,-1.0002,11.8253,64.9891,0.6646,-0.4384,-0.3926,0.0137
16:53:47:590,1.1533,-0.8542,9.612,66.3543,1.0861,-0.0951,-0.0737,0.0205
16:53:47:610,1.1486,-0.5958,8.138,64.454,0.981,0.2983,-0.075,0.0237
16:53:47:632,0.3852,-0.1125,7.5206,66.935,0.5986,0.5548,-0.2203,0.0225
16:53:47:646,-0.067,0.3613,7.1665,66.9094,0.2346,0.6,-0.3071,0.019
16:53:47:668,-0.3589,0.8327,6.9894,67.2898,0.0073,0.5243,-0.312,0.0148
16:53:47:688,-0.268,1.1174,6.6688,67.7273,-0.1099,0.3838,-0.2838,0.0112
16:53:47:711,-0.3589,1.4261,6.4319,68.2318,-0.1515,0.2628,-0.2582,0.0083
16:53:47:730,-0.5862,1.7659,6.4893,66.8951,-0.1454,0.1529,-0.2277,0.0063
16:53:47:748,-0.6317,2.0124,6.6497,67.0499,-0.116,-0.0426,-0.1873,0.0061
16:53:47:769,-0.6269,2.2971,6.6401,70.0241,-0.0452,-0.2319,-0.1458,0.0078
16:53:47:788,-0.6293,2.5914,6.4534,68.8246,0.0147,-0.3004,-0.1238,0.0105
16:53:47:809,-0.4211,2.7517,6.4917,68.7342,-0.0122,-0.2307,-0.1226,0.0125
16:53:47:829,-0.3709,2.747,7.0923,71.1534,-0.1564,-0.0939,-0.1727,0.0126
16:53:47:847,-0.7992,2.7159,8.5783,71.4557,-0.3494,-0.0548,-0.301,0.0111
16:53:47:970,-1.4046,2.5627,9.8895,73.3254,-0.4325,-0.2319,-0.439,0.0102
16:53:47:971,-1.8185,2.5244,10.3585,71.3106,-0.259,-0.4213,-0.4622,0.0115
16:53:47:972,-1.7563,2.5819,10.1719,72.1623,0.0476,-0.4213,-0.3352,0.0148
16:53:47:972,-1.3854,2.8355,10.0211,71.8768,0.2639,-0.2637,-0.1226,0.0184
16:53:47:973,-1.0122,2.924,10.2604,73.1069,0.3421,-0.0914,0.0362,0.0215
16:53:47:974,-0.6867,2.7637,10.7127,73.5623,0.3555,-0.0157,0.0533,0.0241
16:53:47:987,-0.7944,2.7039,11.0022,71.9933,0.3787,-0.0023,-0.0444,0.0266
16:53:48:005,-1.4429,2.5388,11.2391,73.6785,0.4093,0.0124,-0.2729,0.029
16:53:48:026,-1.6989,2.4096,11.3348,74.7825,0.3677,0.0649,-0.2912,0.0312
16:53:48:048,-1.5362,2.5412,11.0596,73.9315,0.2981,0.1895,-0.2069,0.0326
16:53:48:067,-1.3208,2.5364,11.0692,76.1079,0.099,0.396,-0.1226,0.0306
16:53:48:089,-0.7513,2.1751,11.9665,74.3549,-0.2541,0.4827,-0.0701,0.0257
16:53:48:110,-0.3781,1.474,12.8183,76.6123,-0.5632,0.3581,-0.0798,0.0196
16:53:48:131,-0.5384,0.9165,12.9906,75.7593,-0.595,0.2286,-0.1714,0.0142
16:53:48:149,-1.3902,0.8949,12.2608,76.311,-0.3885,0.2103,-0.2558,0.0099
16:53:48:168,-2.1679,1.0265,10.7294,76.6021,-0.0501,0.3508,-0.1763,0.0066
16:53:48:192,-2.6225,1.0983,9.3823,76.7675,0.2334,0.4852,-0.0383,0.0043
16:53:48:210,-2.8929,0.8423,8.4395,77.0263,0.2981,0.4461,0.0472,0.0025
16:53:48:230,-2.8738,0.5312,7.9131,78.5852,0.1735,0.2738,0.1169,0.0013
16:53:48:249,-2.4598,0.3302,7.9681,78.6549,-0.0232,0.0552,0.1975,0.0006
16:53:48:268,-2.1009,0.2082,8.2529,78.3875,-0.2419,-0.1647,0.2243,0.0002
16:53:48:292,-1.8784,0.1196,8.5591,79.5087,-0.4166,-0.2539,0.228,-0.0006
16:53:48:310,-1.7157,0.0838,9.0329,80.5072,-0.5143,-0.1525,0.2806,-0.0027
16:53:48:330,-1.5936,0.1579,9.4134,79.8581,-0.4948,-0.0475,0.3881,-0.0053
16:53:48:348,-1.2084,0.3183,9.1861,80.0044,-0.3018,-0.0621,0.5212,-0.0063
16:53:48:366,-0.4905,0.6891,8.5567,80.5051,0.0134,-0.023,0.6788,-0.0054
16:53:48:386,-0.0072,1.0457,7.9514,79.8581,0.2504,0.0405,0.7106,-0.0033
16:53:48:408,-0.0359,1.3376,7.346,80.6797,0.3433,0.1052,0.5897,-0.0012
16:53:48:432,-0.2728,1.6391,7.1378,81.4427,0.3445,0.1566,0.4186,0.0016
16:53:48:450,-1.0863,1.8664,7.5709,80.6653,0.1478,-0.0035,0.079,0.0027
16:53:48:464,-1.3065,1.7468,8.1141,81.2277,0.0061,-0.045,-0.0322,0.0031
16:53:48:489,-1.785,1.7037,8.7266,82.5607,-0.1368,0.1712,-0.0884,0.001
16:53:48:507,-1.919,1.4477,9.5809,83.3148,-0.2724,0.4791,-0.0419,-0.0042
16:53:48:526,-2.0028,1.5577,10.8945,82.8136,-0.3616,0.5243,0.0411,-0.0103
16:53:48:545,-2.0339,1.8712,11.9545,82.2057,-0.2871,0.2115,0.0546,-0.0135
16:53:48:567,-1.4405,2.1607,12.122,82.4674,0.0085,-0.3065,0.0032,-0.0109
16:53:48:590,-0.8423,2.4048,11.6148,84.9501,0.3262,-0.7341,-0.1263,-0.0033
16:53:48:611,-0.7777,2.6824,11.2319,83.7321,0.4142,-0.8953,-0.3095,0.0059
16:53:48:629,-1.0385,3.1131,11.0166,85.8036,0.3042,-0.7878,-0.4085,0.0135
16:53:48:646,-1.0648,3.2662,10.7222,85.045,0.1674,-0.4958,-0.3816,0.0181
16:53:48:668,-0.5623,2.9145,10.3394,85.7032,0.0305,-0.216,-0.3413,0.0199
16:53:48:691,-0.0957,2.1033,10.4901,84.9273,-0.1857,-0.1037,-0.4207,0.0195
16:53:48:710,-0.3685,1.3256,11.4784,84.9501,-0.4483,-0.1281,-0.6125,0.0172
16:53:48:725,-0.4116,0.5815,12.7011,85.6839,-0.551,-0.199,-0.676,0.0145
16:53:48:745,0.146,-0.2273,13.1414,87.5247,-0.3885,-0.293,-0.5844,0.0136
16:53:48:765,0.792,-0.6963,12.5767,89.5728,-0.0537,-0.2234,-0.461,0.0144
16:53:48:787,1.1868,-0.7872,11.4233,87.641,0.237,0.0649,-0.3523,0.0152
16:53:48:810,0.7489,-0.4259,10.5858,88.1902,0.3323,0.4082,-0.2997,0.0141
16:53:48:832,0.1579,-0.1699,9.856,87.8538,0.3457,0.5732,-0.2875,0.0119
16:53:48:846,-0.0311,0.1436,9.0329,88.068,0.4606,0.5768,-0.2215,0.0105
16:53:48:868,-0.0526,0.4786,7.7575,87.4534,0.6487,0.5157,-0.1482,0.0108
16:53:48:890,-0.3183,0.9978,6.4845,86.9948,0.7672,0.3985,-0.1544,0.016
16:53:48:914,-1.0433,1.8831,5.1446,86.64,0.5925,0.021,-0.2057,0.0195
16:53:48:928,-1.1844,2.2301,4.9675,85.6003,0.4019,-0.0914,-0.158,0.0227
16:53:48:945,-1.0433,2.4909,4.9292,87.9117,0.2382,-0.1403,-0.0786,0.0253
16:53:48:967,-0.6748,2.7685,5.0058,87.2734,0.0647,-0.2197,-0.0432,0.0276
16:53:48:987,-0.469,2.9575,5.5202,86.9329,-0.1661,-0.3223,-0.0957,0.0291
16:53:49:011,-0.6197,3.003,6.4726,87.1516,-0.4349,-0.4054,-0.2374,0.0293
16:53:49:049,-1.1031,2.9145,7.5805,87.9542,-0.6304,-0.4897,-0.3914,0.0284
16:53:49:055,-1.273,2.8499,8.5591,88.7131,-0.6597,-0.5423,-0.4574,0.0276
16:53:49:064,-1.1533,2.8355,9.2913,90.1009,-0.5437,-0.5007,-0.4097,0.0273
16:53:49:086,-0.9811,2.7589,9.9996,90.7391,-0.3787,-0.3932,-0.3315,0.0274
16:53:49:104,-0.9763,2.6895,11.3061,90.2444,-0.2712,-0.3309,-0.3071,0.0278
16:53:49:125,-1.0935,2.3378,12.2776,91.6968,-0.1307,-0.3065,-0.3291,0.0288
16:53:49:146,-1.3807,2.2229,12.4929,91.4459,0.1063,-0.293,-0.373,0.0312
16:53:49:168,-1.5864,2.3378,12.134,90.3201,0.3115,-0.2295,-0.3865,0.0345
16:53:49:188,-1.9047,2.3545,12.0479,91.541,0.3714,-0.0633,-0.3669,0.037
16:53:49:210,-2.5388,2.589,12.5623,92.3515,0.3091,0.1187,-0.279,0.0378
16:53:49:228,-2.7278,3.1011,13.139,92.1722,0.314,0.2335,-0.0114,0.0382
16:53:49:250,-2.3186,3.5964,12.7418,93.8427,0.5143,0.2897,0.3807,0.0401
16:53:49:270,-1.4237,3.9099,11.4784,92.7022,0.8051,0.385,0.7241,0.0439
16:53:49:295,-0.7657,3.8692,10.538,91.9566,0.9016,0.4803,0.8536,0.0509
16:53:49:312,-1.2467,2.991,10.1408,91.3879,0.7257,0.4278,0.7399,0.0532
16:53:49:325,-2.0219,2.4742,9.4445,91.3041,0.4704,0.0894,0.1559,0.0556
16:53:49:347,-1.6869,1.6989,8.3486,93.2716,0.463,-0.0218,-0.0847,0.0584
16:53:49:370,-1.5075,1.017,8.4275,91.2526,0.1319,-0.0988,-0.3144,0.0591
16:53:49:392,-2.0172,0.3565,8.9827,92.0864,-0.4679,-0.1147,-0.5429,0.0557
16:53:49:409,-2.8187,0.1819,9.0712,91.3721,-0.8747,0.0894,-0.5636,0.0478
16:53:49:427,-3.1035,0.268,9.0736,91.9589,-0.9664,0.4717,-0.2594,0.0371
16:53:49:447,-2.8116,0.5097,9.4349,90.6211,-0.9529,0.611,0.1914,0.0262
16:53:49:468,-1.4596,0.2153,9.9589,91.6497,-0.8528,0.3264,0.6055,0.0186
16:53:49:487,-0.1436,0.4546,9.8776,90.6256,-0.5913,-0.1134,0.8682,0.0164
16:53:49:509,0.5838,0.8495,9.3177,91.3531,-0.2113,-0.348,0.9244,0.0185
16:53:49:525,0.682,1.1868,8.3246,91.1512,0.1356,-0.326,0.8132,0.0227
16:53:49:544,0.3709,1.4094,7.0373,92.469,0.3531,-0.177,0.6312,0.027
16:53:49:564,0.1412,1.5338,6.0778,89.8127,0.4117,0.0429,0.4724,0.03
16:53:49:586,0.0694,1.5051,5.884,91.1794,0.2859,0.1773,0.3258,0.031
16:53:49:608,-0.3637,1.4142,6.451,89.5033,0.0195,0.1052,0.1083,0.0306
16:53:49:627,-0.8806,1.1127,7.0158,89.5819,-0.2077,-0.0365,-0.1226,0.0292
16:53:49:645,-1.4142,0.9954,7.2215,90.7255,-0.2639,-0.0438,-0.2521,0.0272
16:53:49:669,-2.077,1.1605,7.4728,89.7876,-0.2492,0.0747,-0.2765,0.0245
16:53:49:690,-2.6943,1.4477,8.0853,90.0443,-0.2492,0.137,-0.235,0.0212
16:53:49:708,-2.668,1.9214,9.0377,88.0696,-0.2492,-0.0206,-0.1311,0.0194
16:53:49:725,-1.9406,2.4861,10.1097,90.8298,-0.2712,-0.3346,-0.0078,0.0199
16:53:49:745,-1.2251,2.8499,10.7366,90.1605,-0.3128,-0.5606,0.0325,0.0221
16:53:49:767,-0.8758,3.0891,11.3013,89.334,-0.3689,-0.5337,-0.0371,0.0238
16:53:49:788,-0.6652,3.2136,12.4642,87.7177,-0.4887,-0.447,-0.1299,0.024
16:53:49:808,-0.3087,3.6538,13.7611,89.6218,-0.5815,-0.2442,-0.1409,0.0215
16:53:49:825,0.213,2.7709,14.1009,87.8638,-0.5876,-0.2038,-0.2558,0.0194
16:53:49:844,-0.1795,1.1653,15.4026,88.4516,-0.7135,-0.2234,-0.6003,0.0159
16:53:49:867,-1.6893,0.134,16.4674,89.2006,-0.7746,-0.2735,-0.8752,0.0119
16:53:49:893,-2.5914,-0.603,16.0104,87.738,-0.3958,-0.2075,-0.6907,0.0096
16:53:50:011,-1.4596,-1.0648,14.1272,89.1176,0.4019,-0.0181,-0.0359,0.0117
16:53:50:012,0.9739,-1.1988,11.519,85.8766,1.0873,0.1798,0.5921,0.0175
16:53:50:012,2.0913,-1.0457,9.5258,87.2211,1.2572,0.4473,0.7729,0.0227
16:53:50:013,1.3878,-0.4187,8.3964,84.9922,0.981,0.7454,0.5738,0.0239
16:53:50:014,0.1819,-0.0191,7.6594,82.6687,0.6597,0.9226,0.3514,0.0214
16:53:50:014,-0.5097,0.3541,6.8578,82.5622,0.551,0.9763,0.2916,0.0178
16:53:50:026,-0.6748,0.737,6.006,80.3445,0.6035,0.9189,0.36,0.015
16:53:50:045,-0.6341,1.1366,5.257,80.2242,0.6377,0.7332,0.4247,0.0137
16:53:50:065,-0.3685,1.3831,4.4865,79.736,0.5913,0.4925,0.4088,0.0142
16:53:50:085,-0.3876,1.6917,4.2162,79.3531,0.4704,0.3117,0.316,0.0151
16:53:50:106,-0.5551,2.1009,4.0893,77.7665,0.2566,0.1333,0.1865,0.016
16:53:50:126,-0.4594,2.2277,4.1228,78.4482,0.0293,0.0234,0.0949,0.0162
16:53:50:153,-0.4403,2.5292,4.2975,77.703,-0.1576,0.0161,0.0179,0.0153
16:53:50:166,-0.6221,2.9384,4.7545,77.8518,-0.3274,0.0466,-0.1018,0.0131
16:53:50:188,-0.5336,2.9408,5.5298,77.3366,-0.5314,0.0552,-0.257,0.0095
16:53:50:209,-0.5815,3.0221,6.5994,78.1837,-0.7159,0.0344,-0.395,0.0047
16:53:50:227,-0.7992,3.1154,8.1212,76.3324,-0.8772,-0.1073,-0.5319,-0.0001
16:53:50:249,-1.2012,2.9671,9.9637,77.8378,-0.9981,-0.348,-0.6296,-0.0041
16:53:50:278,-1.2108,2.6417,11.9689,76.0091,-1.0214,-0.6449,-0.6455,-0.0062
16:53:50:285,-0.7442,2.3785,14.2732,75.8049,-0.6744,-0.7561,-0.45,-0.0045
16:53:50:314,-0.8542,2.2205,14.881,76.1875,-0.3372,-0.3761,-0.3437,-0.004
16:53:50:324,-0.7681,2.0602,14.0865,76.4232,0.0745,-0.0719,-0.3022,-0.0031
16:53:50:346,-0.7489,2.2995,13.0528,75.1841,0.347,0.1236,-0.3156,-0.0019
16:53:50:364,-1.1151,2.4718,12.4211,76.2541,0.3335,0.3716,-0.3901,-0.0027
16:53:50:387,-1.6822,2.3282,12.6341,73.6397,0.1539,0.655,-0.483,-0.0069
16:53:50:405,-1.7731,1.6893,13.1749,74.9822,0.0134,0.732,-0.5844,-0.0126
16:53:50:425,-1.5912,0.5192,13.3591,73.2869,-0.0647,0.5035,-0.7359,-0.0176
16:53:50:447,-2.0387,-0.2919,13.4453,74.5719,-0.1441,0.258,-0.9021,-0.0217
16:53:50:466,-3.0652,-0.7059,13.2084,71.9586,-0.1393,0.2189,-0.9729,-0.0258
16:53:50:491,-4.0175,-0.8159,11.8158,72.327,0.0892,0.396,-0.8031,-0.0297
16:53:50:509,-4.3717,-0.2273,9.7938,72.9522,0.4691,0.6965,-0.4048,-0.0328
16:53:50:526,-3.9482,0.0072,7.8006,70.4906,0.65,0.8004,-0.0261,-0.0351
16:53:50:547,-3.7041,0.1196,7.2909,69.1517,0.496,0.6758,0.162,-0.0373
16:53:50:569,-3.929,-0.1699,7.7336,69.1291,0.1918,0.3386,0.1743,-0.0391
16:53:50:589,-3.807,-0.5312,8.2624,68.3889,-0.0049,-0.1562,0.2537,-0.0387
16:53:50:608,-2.9839,-0.524,8.4491,68.0711,-0.0843,-0.5508,0.4785,-0.0355
16:53:50:631,-2.12,-0.4546,8.3533,67.7255,-0.1063,-0.6046,0.7069,-0.0316
16:53:50:650,-1.462,-0.1268,8.3007,67.3842,-0.1063,-0.392,0.8572,-0.0289
16:53:50:665,-1.1557,0.3805,8.1595,66.7881,-0.0684,-0.1452,0.9354,-0.0276
16:53:50:686,-0.6365,0.8925,7.6355,65.347,0.0428,-0.0462,0.9721,-0.026
16:53:50:707,0.0742,1.3161,6.9368,66.9701,0.1527,-0.0682,0.9623,-0.0233
16:53:50:732,0.7872,1.5649,6.4606,64.6365,0.0977,-0.0071,0.5506,-0.0188
16:53:50:747,0.3493,1.4285,7.1641,65.4249,-0.0318,0.0735,0.1914,-0.0189
16:53:50:771,-0.2943,1.1964,7.8796,64.1778,-0.1014,0.0796,-0.1568,-0.0202
16:53:50:787,-0.95,1.0217,8.1236,64.6684,-0.0476,0.0185,-0.3816,-0.0211
16:53:50:806,-1.2012,0.8064,7.8437,64.4566,0.0379,-0.0841,-0.5099,-0.0209
16:53:50:828,-1.5147,0.9045,8.2696,63.8918,0.0183,-0.1281,-0.5514,-0.0206
16:53:50:847,-2.0172,1.2203,9.0927,62.7523,-0.0415,-0.1024,-0.5539,-0.0209
16:53:50:866,-2.3139,1.6654,9.6574,61.4475,-0.0208,-0.1024,-0.5062,-0.021
16:53:50:885,-2.0052,2.1344,9.6598,62.634,0.066,-0.1098,-0.406,-0.0202
16:53:50:907,-1.584,2.5484,9.5306,62.9198,0.0806,-0.1537,-0.3694,-0.0188
16:53:50:925,-1.1366,2.5771,9.2913,62.4474,-0.0659,-0.2906,-0.4622,-0.0173
16:53:50:950,-0.8782,2.467,10.4136,62.997,-0.4435,-0.4616,-0.6675,-0.017
16:53:50:967,-1.2419,2.5101,12.7729,62.2471,-0.8882,-0.5166,-0.8752,-0.0192
16:53:50:987,-1.7683,2.4,14.8331,63.4523,-1.0348,-0.5142,-0.9729,-0.0224
16:53:51:008,-1.4501,1.474,15.618,63.5957,-0.8662,-0.6473,-0.9766,-0.0238
16:53:51:029,-1.0409,0.5456,16.1085,64.0619,-0.628,-0.7915,-0.9546,-0.0226
16:53:51:049,-1.2251,-0.1316,16.1348,62.2148,-0.3714,-0.6864,-0.9338,-0.0207
16:53:51:080,-0.95,-1.261,14.8977,63.2674,-0.0403,-0.3969,-0.8043,-0.0189
16:53:51:085,-0.1651,-1.9143,13.5673,62.9485,0.3103,-0.0279,-0.5245,-0.0173
16:53:51:103,0.8734,-1.9908,11.7655,61.9642,0.6109,0.2861,-0.1727,-0.0156
16:53:51:124,1.7563,-1.3974,9.9757,62.5089,0.7978,0.4986,0.09,-0.0139
16:53:51:146,1.8831,-0.6126,8.4371,60.7378,0.8454,0.644,0.1217,-0.0127
16:53:51:165,1.3854,0.134,7.5494,61.0673,0.7355,0.699,-0.0322,-0.0127
16:53:51:186,0.2201,0.7489,6.9033,61.9646,0.485,0.2971,-0.3388,-0.0132
16:53:51:204,0.5527,1.0002,6.3218,61.8714,0.4398,-0.001,-0.3181,-0.0095
16:53:51:225,0.7513,1.2538,6.0849,60.2828,0.3714,-0.1073,-0.3058,-0.0063
16:53:51:245,0.6748,1.4285,5.817,60.4296,0.2981,-0.0536,-0.3425,-0.004
16:53:51:272,0.3972,1.742,5.6375,60.9029,0.2236,0.0136,-0.3987,-0.0026
16:53:51:287,-0.0239,2.0698,5.5849,60.0486,0.1429,0.0087,-0.461,-0.0018
16:53:51:304,-0.2895,2.3545,5.202,60.5166,0.0745,-0.067,-0.5319,-0.001
16:53:51:327,-0.4857,2.6058,5.4963,60.2564,-0.0647,-0.155,-0.6088,-0.0005
16:53:51:345,-0.5575,2.6393,6.3386,60.1732,-0.2834,-0.2747,-0.709,-0.0008
16:53:51:367,-0.4666,2.5986,7.48,59.5322,-0.4557,-0.3908,-0.8055,-0.0015
16:53:51:386,-0.6532,2.6225,8.7505,62.2798,-0.529,-0.4213,-0.9191,-0.0026
16:53:51:410,-1.2921,2.6465,9.5737,59.5009,-0.5131,-0.37,-1.0474,-0.0042
16:53:51:426,-2.0937,2.4526,10.7055,60.9678,-0.4924,-0.2258,-1.144,-0.0068
16:53:51:445,-2.4263,2.3258,11.2247,60.3593,-0.3836,-0.0633,-1.0658,-0.0098
16:53:51:465,-2.5101,2.4407,11.4138,59.8008,-0.1747,0.071,-0.8141,-0.0119
16:53:51:486,-2.2588,2.5412,11.6961,60.1897,-0.0367,0.2176,-0.5697,-0.0138
16:53:51:506,-1.5218,2.077,12.4235,58.8706,-0.0281,0.2812,-0.4683,-0.0159
16:53:51:525,-0.9643,1.6582,13.4405,57.9898,-0.0709,0.2311,-0.4537,-0.0179
16:53:51:548,-0.7657,1.7587,13.9573,59.2718,-0.0073,0.1908,-0.439,-0.0192
16:53:51:568,-0.5168,1.9167,13.5362,57.3618,0.2517,0.2812,-0.4011,-0.0191
16:53:51:586,0.055,1.6391,12.9954,58.6854,0.485,0.3716,-0.4574,-0.0179
16:53:51:606,0.3374,0.4475,13.4166,59.3685,0.4362,0.3154,-0.6907,-0.0171
16:53:51:629,-0.2153,-0.4187,14.0219,58.1415,0.3042,0.1504,-0.9924,-0.0168
16:53:51:649,-1.6845,-0.6293,11.0716,57.8499,0.9346,0.3789,-1.0719,-0.0124
16:53:51:669,-1.6845,-0.6604,9.2124,58.1722,1.1252,0.4449,-1.0364,-0.0082
16:53:51:684,-2.1535,-0.7226,8.5759,57.7575,0.865,0.3826,-1.0963,-0.0058
16:53:51:704,-3.4792,-0.6174,9.6598,58.6728,0.347,0.2677,-1.1916,-0.0069
16:53:51:728,-4.2233,-0.5982,10.3681,57.2841,0.0085,0.0075,-1.111,-0.0091
16:53:51:747,-4.1874,-0.3254,10.3705,59.2084,0.0855,-0.1953,-0.7994,-0.009
16:53:51:765,-3.3595,0.0479,9.722,58.8148,0.3494,-0.3223,-0.3657,-0.0055
16:53:51:785,-2.2181,0.5312,8.7577,58.7145,0.5461,-0.3602,0.0325,0.0005
16:53:51:805,-1.1342,1.1988,8.138,58.7145,0.606,-0.3223,0.316,0.0073
16:53:51:824,-0.0215,1.6989,7.5326,59.5594,0.6121,-0.2955,0.4931,0.0145
16:53:51:847,0.7801,2.053,6.7741,59.1136,0.6573,-0.2258,0.5139,0.0218
16:53:51:866,1.0337,2.3665,5.9797,58.6996,0.6939,-0.0902,0.3478,0.0286
16:53:51:885,0.7896,2.4239,5.3862,58.1695,0.606,0.0527,0.0106,0.0335
16:53:51:904,-0.0359,2.0865,5.3862,59.1089,0.3665,0.1382,-0.4537,0.0352
16:53:51:924,-0.9404,1.2251,5.7356,57.2347,0.0806,0.1944,-0.8935,0.0335
16:53:52:050,-2.0842,0.6006,6.6592,59.1055,-0.1515,0.192,-1.1672,0.0294
16:53:52:051,-3.003,0.3015,7.6379,58.7768,-0.2993,-0.0157,-1.2832,0.0249
16:53:52:052,-3.2901,0.323,8.2385,60.045,-0.2211,-0.3541,-1.1892,0.0229
16:53:52:052,-3.0604,0.8495,8.2146,58.212,0.0318,-0.5691,-0.9534,0.0245
16:53:52:053,-2.6488,1.7707,7.6929,57.8916,0.2614,-0.4494,-0.6919,0.0279
16:53:52:054,-2.3713,2.7302,7.8652,57.4948,0.3054,-0.1342,-0.4964,0.0306
16:53:52:066,-1.6056,3.5605,8.8822,58.9111,0.1393,0.021,-0.4109,0.0315
16:53:52:084,-0.3541,3.5557,10.2867,58.851,-0.1527,-0.1391,-0.5514,0.0309
16:53:52:104,-0.9356,2.589,14.8355,59.0786,-0.7269,-0.7475,-1.5447,0.0286
16:53:52:127,-1.8927,2.2636,16.0176,58.6445,-0.7196,-0.9369,-1.8526,0.0218
16:53:52:146,-2.9384,2.2397,15.7687,59.6952,-0.3457,-0.8452,-1.8892,0.0211
16:53:52:164,-2.9982,2.1775,14.4144,60.8627,0.1087,-0.7255,-1.6742,0.0237
16:53:52:185,-2.8068,1.9286,13.6726,60.3575,0.2675,-0.7023,-1.4518,0.0277
16:53:52:208,-2.5771,1.0433,13.3902,61.6705,0.2052,-0.6082,-1.3358,0.0307
16:53:52:227,-2.1751,0.1196,13.3472,60.5909,0.2175,-0.4225,-1.1916,0.0329
16:53:52:246,-1.6104,-0.5504,12.4786,61.8836,0.3763,-0.3089,-0.9851,0.036
16:53:52:264,-0.9069,-0.7035,10.8299,62.173,0.6536,-0.1537,-0.6736,0.0411
16:53:52:285,0.2728,-0.2823,8.9539,61.4224,0.8906,-0.0242,-0.3327,0.0483
16:53:52:304,0.8949,0.3183,7.7288,61.1169,0.9248,0.038,-0.1873,0.0558
16:53:52:327,0.9236,0.6939,7.2215,61.934,0.7868,0.0466,-0.2277,0.0622
16:53:52:347,0.5216,0.8519,6.8052,59.9285,0.6866,0.0124,-0.2973,0.0677
16:53:52:364,0.1627,1.06,5.9916,62.8455,0.7648,0.0075,-0.3058,0.074
16:53:52:384,-0.1555,1.4285,5.0082,60.964,0.9138,0.0759,-0.257,0.0814
16:53:52:407,-0.3206,1.7683,4.1611,61.0973,0.942,0.1162,-0.1861,0.0891
16:53:52:426,-0.5456,2.1631,3.7208,61.6933,0.7929,0.0808,-0.1605,0.0957
16:53:52:449,-0.8351,2.7111,3.661,60.5123,0.485,0.0014,-0.2558,0.1
16:53:52:472,-0.9787,3.0987,3.9577,61.666,0.1552,-0.089,-0.3877,0.1017
16:53:52:484,-1.2921,3.5342,4.5488,62.4566,-0.1796,-0.2393,-0.5355,0.101
16:53:52:510,-1.3615,3.6778,5.3312,59.9659,-0.5094,-0.403,-0.6614,0.0979
16:53:52:529,-1.5529,3.7759,6.8483,62.2846,-0.8149,-0.5313,-0.7554,0.0924
16:53:52:545,-1.8401,3.7567,8.0423,61.1619,-1.0067,-0.6449,-0.8092,0.0855
16:53:52:567,-1.6415,3.6371,10.6552,62.6631,-0.9407,-0.7805,-0.7579,0.0728
16:53:52:582,-1.3472,3.3763,11.9904,61.5378,-0.8137,-0.9198,-0.7103,0.0684
16:53:52:604,-1.2658,3.3093,12.9763,63.0636,-0.5974,-0.9418,-0.665,0.0661
16:53:52:625,-1.0504,3.1729,12.9954,61.6567,-0.2162,-0.7096,-0.5563,0.0664
16:53:52:646,-0.993,3.2303,12.4857,62.3285,0.2126,-0.2808,-0.4256,0.0693
16:53:52:666,-1.0816,3.2327,11.9139,63.9013,0.4288,0.0417,-0.4048,0.073
16:53:52:684,-1.2491,3.2566,11.732,61.6931,0.4227,0.2262,-0.4732,0.0761
16:53:52:705,-1.4357,3.4839,11.8708,61.7265,0.3824,0.3105,-0.5087,0.0786
16:53:52:725,-1.5506,3.9123,11.3468,60.9763,0.4239,0.3239,-0.4622,0.0815
16:53:52:748,-0.9428,4.1013,10.3274,62.9819,0.5107,0.495,-0.384,0.0848
16:53:52:768,0.3278,3.1896,9.7555,62.5649,0.3751,0.6868,-0.4879,0.0861
16:53:52:786,0.0861,1.4788,11.3827,63.66,-0.1771,0.633,-1.0022,0.0817
16:53:52:807,-1.8353,0.2656,13.864,63.0892,-0.8295,0.2445,-1.7023,0.0715
16:53:52:825,-3.7089,-0.8231,14.5579,62.9745,-0.9175,-0.1916,-2.07,0.0611
16:53:52:845,-4.9555,-1.0576,13.3448,61.5138,-0.3079,-0.1843,-1.8122,0.0564
16:53:52:865,-4.8838,-0.5934,11.0022,63.8182,0.3897,0.1297,-1.0682,0.0582
16:53:52:889,-3.874,-0.1053,9.009,64.2585,0.551,0.451,-0.2399,0.0615
16:53:52:907,-3.3332,0.1053,9.2794,63.9821,0.1539,0.7271,0.3197,0.0611
16:53:52:925,-3.3643,-0.2177,10.1958,63.4299,-0.4056,0.6623,0.5457,0.0557
16:53:52:943,-2.7517,-0.5001,11.2056,65.4145,-0.5913,0.3985,0.7717,0.0496
16:53:52:964,-1.6582,-0.2608,11.3372,66.0696,-0.3347,0.0307,1.0735,0.047
16:53:52:988,-0.3685,0.0239,10.459,64.5671,0.1894,-0.2674,1.3129,0.0503
16:53:53:009,1.2921,1.1773,7.0708,66.0547,1.0885,-0.2295,1.4314,0.0709
16:53:53:026,1.8138,1.8066,5.2738,65.975,1.2572,0.0185,1.3361,0.0834
16:53:53:045,1.651,2.3833,4.0247,66.6826,1.1667,0.2848,1.0527,0.0946
16:53:53:064,1.0911,2.4287,3.6156,65.8323,0.8442,0.4827,0.6434,0.1017
16:53:53:085,-0.1005,2.3402,4.3884,67.4156,0.3751,0.4204,0.1804,0.1043
16:53:53:120,-0.9595,2.1655,5.2475,65.7619,-0.077,0.0503,-0.1702,0.1035
16:53:53:122,-0.9476,2.187,6.4247,65.401,-0.3885,-0.2026,-0.2655,0.1005
16:53:53:144,-0.7466,2.1894,7.9896,66.264,-0.6487,-0.3309,-0.2509,0.0956
16:53:53:166,-0.5336,2.199,9.9039,65.0715,-0.8124,-0.3981,-0.2643,0.0893
16:53:53:183,-0.8566,2.4215,11.086,66.5547,-0.7171,-0.3321,-0.3034,0.0837
16:53:53:205,-1.2203,2.8522,11.3204,67.0577,-0.314,-0.0426,-0.2753,0.0808
16:53:53:226,-1.2179,3.4529,10.9926,66.2228,0.121,0.1578,-0.2167,0.0816
16:53:53:245,-1.0026,3.8501,10.8826,67.3783,0.2993,0.0625,-0.2484,0.0843
16:53:53:264,-0.8351,3.9147,11.0883,68.5463,0.2199,-0.166,-0.4133,0.0868
16:53:53:286,-1.0457,3.3595,11.6842,67.7599,-0.0183,-0.3956,-0.6736,0.0874
16:53:53:307,-1.5218,2.9767,12.1914,68.633,-0.2272,-0.5423,-0.8666,0.0862
16:53:53:329,-1.4692,2.5962,12.1675,69.2173,-0.2993,-0.5215,-0.8581,0.0842
16:53:53:343,-0.7609,1.9119,12.1316,69.7217,-0.3653,-0.3981,-0.7884,0.0812
16:53:53:364,-0.5599,0.9356,12.5408,69.288,-0.5547,-0.2332,-0.8483,0.0758
16:53:53:385,-0.8686,0.0311,13.7731,69.9694,-0.7599,-0.0841,-0.9546,0.0678
16:53:53:408,-0.8159,-1.0265,14.8164,69.3635,-0.7465,-0.1672,-0.9326,0.0599
16:53:53:425,-0.268,-1.7683,14.4096,70.3474,-0.3164,-0.3786,-0.7298,0.0565
16:53:53:449,0.4618,-1.7492,12.3422,69.9462,0.4423,-0.3077,-0.3681,0.0603
16:53:53:466,1.1916,-0.1196,7.4034,71.0445,1.295,0.4009,0.1865,0.0805
16:53:53:487,0.9763,0.6078,5.6399,71.2345,1.1558,0.7063,0.2183,0.0892
16:53:53:507,0.6963,1.3376,4.7665,70.7758,0.799,0.8383,0.1437,0.0948
16:53:53:525,0.4283,1.9669,4.4124,70.7758,0.3262,0.6294,-0.0285,0.0966
16:53:53:542,0.1986,2.2349,4.7043,70.945,-0.1026,0.2262,-0.2582,0.0952
16:53:53:570,-0.1364,2.4048,5.1757,71.5668,-0.3714,-0.1379,-0.4574,0.092
16:53:53:587,-0.6269,2.6967,5.817,72.3556,-0.485,-0.3248,-0.5477,0.0882
16:53:53:607,-1.0528,2.6225,6.3147,71.6037,-0.4874,-0.3517,-0.5587,0.0844
16:53:53:623,-1.3711,2.5364,6.6688,71.3454,-0.3922,-0.3566,-0.5539,0.0814
16:53:53:644,-1.7157,2.6297,6.8076,72.1138,-0.2846,-0.4457,-0.5441,0.0796
16:53:53:663,-1.6798,2.7159,7.1402,73.3948,-0.2529,-0.5533,-0.494,0.0784
16:53:53:684,-1.5888,2.7637,8.0806,72.6809,-0.3225,-0.6156,-0.4512,0.0767
16:53:53:706,-1.4716,2.5244,9.2435,72.574,-0.4093,-0.6302,-0.4464,0.074
16:53:53:725,-1.3759,2.3474,10.617,73.8842,-0.3983,-0.5545,-0.4415,0.0713
16:53:53:745,-1.541,2.3115,11.4425,73.8362,-0.215,-0.4152,-0.4085,0.07
16:53:53:770,-1.8903,2.5986,11.8875,72.6123,0.1148,-0.2429,-0.3376,0.0715
16:53:53:788,-1.9454,2.8857,11.8038,73.8317,0.4068,-0.1696,-0.2643,0.0756
16:53:53:803,-1.7659,2.9767,11.5095,73.7557,0.573,-0.1305,-0.224,0.0813
16:53:53:823,-2.077,3.015,11.6148,74.8232,0.5791,-0.0279,-0.2423,0.0868
16:53:53:843,-2.869,2.9432,12.2991,75.58,0.4838,0.0527,-0.2533,0.0912
16:53:53:863,-3.5246,3.082,12.2871,74.3677,0.496,0.0918,-0.1336,0.0956
16:53:53:885,-3.6897,3.6132,11.5334,74.9563,0.6671,0.2335,0.1645,0.1017
16:53:53:903,-3.3284,4.0223,10.6265,76.3414,0.7489,0.4608,0.4944,0.1085
16:53:53:924,-1.9813,3.1131,10.6074,75.4998,0.204,0.5988,0.5848,0.115
16:53:53:943,-1.8281,2.2205,11.8421,76.5735,-0.2101,0.4119,0.3441,0.1126
16:53:53:964,-2.2229,1.7348,13.2347,75.6415,-0.4386,0.1236,0.1401,0.1081
16:53:54:063,-2.3091,1.1055,13.1605,76.3357,-0.2065,-0.0401,0.1059,0.1058
16:53:54:064,-2.1583,0.9595,11.653,74.8069,0.3592,0.0747,0.1938,0.1086
16:53:54:065,-1.9167,0.8638,9.8919,76.841,0.7135,0.2201,0.2402,0.1146
16:53:54:066,-1.8114,0.6724,9.344,77.1247,0.5913,0.2079,0.2207,0.1194
16:53:54:067,-1.4788,0.4618,9.277,75.8051,0.2272,0.0527,0.2354,0.121
16:53:54:083,-1.2156,0.4594,9.1789,75.2754,0.0159,0.0527,0.36,0.1209
16:53:54:104,-0.95,0.6724,8.4562,76.7423,0.033,0.1847,0.5249,0.1209
16:53:54:125,-0.39,0.7968,7.5135,75.3881,0.1319,0.308,0.6617,0.1218
16:53:54:143,-0.1819,1.1031,7.0134,75.9409,0.1368,0.3154,0.7069,0.1228
16:53:54:164,-0.2704,1.3328,7.3651,75.629,0.0134,0.071,0.6532,0.1232
16:53:54:186,-0.5551,1.4213,7.5781,76.2907,-0.0647,-0.2943,0.5542,0.1236
16:53:54:207,-0.5073,1.7157,7.1689,77.6095,0.0464,-0.3786,0.5811,0.1254
16:53:54:223,-0.3637,2.0195,6.3314,77.3043,0.1833,-0.2344,0.6398,0.1282
16:53:54:242,-0.4594,2.254,6.1926,76.7438,0.1723,-0.0316,0.6153,0.1305
16:53:54:264,-0.7513,2.3665,6.5755,75.9409,-0.011,-0.0438,0.5286,0.131
16:53:54:285,-0.7609,2.4287,6.9607,76.6657,-0.171,-0.1122,0.454,0.1302
16:53:54:304,-0.7011,2.6728,7.3986,75.8373,-0.2737,-0.089,0.4076,0.1284
16:53:54:326,-0.7107,2.9886,8.662,76.6657,-0.3836,-0.1024,0.3624,0.1256
16:53:54:344,-0.8566,3.1442,9.6622,77.7506,-0.3653,-0.1647,0.2989,0.123
16:53:54:367,-1.2658,3.2925,10.1097,78.3166,-0.171,-0.1721,0.2195,0.1231
16:53:54:387,-1.3161,3.9865,10.1767,77.8162,0.1075,-0.2319,0.2024,0.1249
16:53:54:409,-0.7705,4.2856,10.2461,79.5019,0.0904,-0.1758,0.2293,0.1267
16:53:54:424,-0.7202,4.4243,10.9256,76.9535,-0.0501,-0.0731,0.1425,0.1268
16:53:54:442,-0.8638,4.1946,12.0646,78.8998,-0.2126,-0.0841,-0.02,0.1253
16:53:54:467,-1.1749,3.9362,12.7777,78.613,-0.2382,-0.1818,-0.1739,0.1236
16:53:54:490,-0.9117,3.2136,12.213,78.3495,-0.0733,-0.1415,-0.2325,0.1231
16:53:54:505,-0.1914,2.5005,11.6363,78.34,0.0696,-0.0658,-0.2606,0.1236
16:53:54:526,-0.2513,1.7659,12.2776,78.3237,-0.0831,-0.0768,-0.4036,0.1224
16:53:54:543,-0.7107,1.3208,13.1677,77.5555,-0.281,-0.1574,-0.4634,0.1194
16:53:54:565,-1.1773,1.2897,12.6389,78.9178,-0.1014,-0.0572,-0.3498,0.1179
16:53:54:584,-0.8375,1.3161,10.9496,77.8076,0.3604,0.2091,-0.0884,0.1202
16:53:54:604,-0.0407,1.3543,9.0736,77.8115,0.6316,0.2824,0.0875,0.1251
16:53:54:623,0.3159,1.2514,7.9681,77.4661,0.507,0.203,0.0655,0.1291
16:53:54:646,0.0694,1.1844,7.8724,76.9249,0.1454,0.0967,-0.0603,0.1299
16:53:54:664,-0.3972,1.2634,8.2313,77.8115,-0.171,0.0271,-0.1104,0.1279
16:53:54:688,-0.5671,1.5147,8.083,78.0348,-0.2395,0.0344,-0.0273,0.1254
16:53:54:704,-0.1962,1.8257,7.1665,77.2487,-0.1063,0.0784,0.1034,0.1243
16:53:54:726,0.201,2.0674,6.3625,75.7895,0.0183,0.0967,0.1486,0.1244
16:53:54:749,0.1986,2.4167,6.2213,77.7823,-0.0171,0.0307,0.0839,0.1244
16:53:54:769,-0.0311,2.6393,6.5539,77.4988,-0.1393,-0.111,-0.0334,0.1236
16:53:54:783,-0.0455,2.7206,6.8243,75.5197,-0.1808,-0.1855,-0.1104,0.1226
16:53:54:805,0.0048,2.9169,7.0158,76.6169,-0.1625,-0.166,-0.1446,0.1217
16:53:54:825,0.0359,2.8522,7.3914,76.7226,-0.1735,-0.0597,-0.1959,0.1203
16:53:54:846,-0.9476,3.0437,8.8822,76.6613,-0.1503,0.0014,-0.3058,0.1169
16:53:54:865,-0.6867,3.3715,8.8678,75.7971,0.0757,-0.0267,-0.2093,0.1177
16:53:54:885,-0.414,3.594,8.7171,76.1924,0.2358,-0.0927,-0.1153,0.1203
16:53:54:905,-0.3565,3.7902,9.1143,76.9348,0.2395,-0.1269,-0.0872,0.1231
16:53:54:923,-0.6389,3.9625,9.7843,76.3831,0.1894,-0.1159,-0.1079,0.1253
16:53:54:946,-0.8231,3.9673,9.9924,76.145,0.2175,-0.0719,-0.147,0.1277
16:53:54:969,-1.0433,3.8883,10.4423,75.2553,0.2504,-0.0572,-0.2069,0.1302
16:53:54:987,-1.2993,3.6012,11.2774,75.3462,0.1918,-0.1293,-0.2704,0.1321
16:53:55:002,-1.5912,3.2279,12.0598,76.145,0.1711,-0.1965,-0.3193,0.1338
16:53:55:024,-2.0698,3.1657,11.9282,77.2876,0.3005,-0.1293,-0.3083,0.1365
16:53:55:044,-2.479,3.3476,10.8299,75.8825,0.4911,0.1602,-0.1605,0.1404
16:53:55:065,-2.0865,3.2231,9.6981,75.8713,0.5229,0.5377,0.0716,0.144
16:53:55:084,-1.6439,2.802,9.935,75.3043,0.2419,0.7369,0.2011,0.1446
16:53:55:103,-1.7252,2.2445,11.4425,74.9874,-0.2309,0.5145,0.1034,0.141
16:53:55:124,-1.9717,1.6917,12.3565,75.5605,-0.4679,0.0845,-0.0639,0.1358
16:53:55:168,-2.0913,1.2275,12.0215,74.135,-0.2724,-0.1183,-0.1336,0.1328
16:53:55:171,-2.3306,1.048,10.9735,75.6367,0.0037,-0.0988,-0.1873,0.1323
16:53:55:182,-2.8283,0.8423,10.1216,70.8778,0.0195,-0.0414,-0.2057,0.1317
16:53:55:201,-3.3165,0.9691,9.7867,74.1403,-0.1576,0.0442,-0.0945,0.1295
16:53:55:222,-3.0963,1.1892,9.3918,76.3545,-0.2627,0.2286,0.1865,0.1262
16:53:55:242,-2.4144,1.3878,8.8726,74.1103,-0.2614,0.451,0.5286,0.1229
16:53:55:265,-1.6822,1.4859,8.7769,73.6649,-0.281,0.5744,0.7839,0.1194
16:53:55:287,-0.6365,1.1318,8.8846,73.6649,-0.3311,0.1443,0.7839,0.1125
16:53:55:302,-0.6461,1.3687,8.272,74.7704,-0.1515,-0.0572,0.7131,0.1115
16:53:55:323,-0.6724,1.6917,7.4154,74.1728,0.044,-0.0756,0.6886,0.1125
16:53:55:346,-0.469,1.7874,6.932,75.1008,0.1161,0.0283,0.6886,0.1141
16:53:55:365,-0.3972,1.8975,7.279,73.9621,-0.0025,0.0955,0.641,0.1143
16:53:55:384,-0.4379,1.9286,7.9848,73.4064,-0.1771,-0.001,0.5188,0.1131
16:53:55:404,-0.6508,1.943,8.4227,74.4771,-0.1918,-0.1208,0.3502,0.1119
16:53:55:423,-1.0457,1.8233,8.5926,73.3538,-0.088,-0.1134,0.1657,0.1115
16:53:55:443,-1.4429,2.0506,8.6261,74.135,0.0269,-0.1061,0.068,0.112
16:53:55:464,-1.2562,2.4024,8.8726,73.6562,0.0977,-0.1733,0.0887,0.1134
16:53:55:485,-1.1701,2.6488,9.2698,75.2928,0.1051,-0.2576,0.1095,0.1152
16:53:55:503,-1.139,2.8451,9.399,74.1681,0.1124,-0.2283,0.1034,0.117
16:53:55:524,-1.2179,3.1011,9.3918,74.7757,0.1246,-0.0071,0.0802,0.1183
16:53:55:546,-1.3161,3.1848,9.7555,72.8065,0.0806,0.2995,0.057,0.1182
16:53:55:564,-1.5338,3.0891,10.6385,73.0535,-0.0147,0.3728,-0.0053,0.117
16:53:55:582,-1.8185,3.0126,11.3181,72.9236,-0.0599,0.1101,-0.1531,0.1159
16:53:55:603,-1.8784,3.1083,11.5047,73.6649,0.0379,-0.1904,-0.2631,0.1165
16:53:55:623,-1.8592,3.393,11.2534,74.4675,0.1808,-0.3004,-0.2936,0.1188
16:53:55:645,-1.6582,3.5725,10.6911,72.496,0.2431,-0.2038,-0.2692,0.1214
16:53:55:663,-0.9308,3.2853,10.2963,73.6649,0.1943,-0.0511,-0.2387,0.1232
16:53:55:684,-0.5168,2.8857,10.3968,73.1163,-0.0159,-0.0047,-0.3413,0.1227
16:53:55:705,-0.5384,2.2181,11.208,73.5868,-0.3225,-0.0414,-0.5074,0.1193
16:53:55:728,-0.7825,2.0602,11.7583,71.7534,-0.474,-0.0389,-0.5563,0.1144
16:53:55:747,-0.8136,1.7635,11.0668,71.9702,-0.0647,0.2616,-0.3291,0.1103
16:53:55:767,-0.4379,1.2299,9.9661,73.1621,0.1686,0.2066,-0.2594,0.109
16:53:55:782,-0.2034,0.9212,8.9827,72.6737,0.2993,0.1004,-0.2521,0.1109
16:53:55:802,-0.5192,1.0146,8.4108,73.3543,0.2529,-0.0071,-0.2936,0.1126
16:53:55:827,-1.1557,1.2945,8.205,71.3442,0.0721,-0.0609,-0.2973,0.1129
16:53:55:846,-1.3113,1.6199,8.0088,72.3081,-0.0623,-0.0194,-0.1605,0.1121
16:53:55:866,-0.8471,1.9334,7.8221,71.5407,-0.1075,0.0417,0.0423,0.111
16:53:55:883,-0.3924,2.2397,7.5159,72.3837,-0.1026,0.038,0.1682,0.1102
16:53:55:902,-0.0718,2.4861,7.1019,71.5334,-0.0586,0.0063,0.173,0.1099
16:53:55:923,-0.2417,2.6154,7.0564,70.6402,-0.0391,-0.0658,0.0668,0.11
16:53:55:944,-0.5719,2.7278,7.1019,71.6651,-0.0525,-0.1965,-0.0542,0.1102
16:53:55:966,-0.7131,2.8092,7.0588,71.1755,-0.0489,-0.2442,-0.1067,0.1105
16:53:55:983,-0.8375,2.9743,7.1833,71.71,-0.0709,-0.1794,-0.1189,0.1104
16:53:56:004,-0.7418,2.9934,7.3603,70.0595,-0.1429,-0.122,-0.1201,0.1096
16:53:56:027,-0.7609,2.9647,7.9083,71.775,-0.2297,-0.1024,-0.1446,0.1079
16:53:56:129,-1.017,2.9719,8.4586,71.811,-0.3188,-0.1415,-0.1971,0.1053
16:53:56:130,-1.0744,2.9503,9.0736,72.3378,-0.347,-0.1586,-0.2057,0.1026
16:53:56:131,-0.9787,2.9695,9.6526,70.3583,-0.2761,-0.0878,-0.1458,0.1003
16:53:56:132,-0.7681,2.9623,9.9159,69.7544,-0.1209,0.0319,-0.0639,0.0992
16:53:56:132,-0.737,3.0748,10.1145,70.4632,0.0782,0.126,-0.0017,0.0997
16:53:56:146,-0.5168,3.0939,10.0379,69.6236,0.2541,0.1517,0.0264,0.1019
16:53:56:163,-0.4259,3.0197,10.1432,70.1451,0.3213,0.1639,-0.0029,0.1045
16:53:56:181,-0.9595,2.9982,10.6696,69.9441,0.2431,0.2128,-0.103,0.1062
16:53:56:203,-2.3282,2.9623,11.2104,71.5969,0.0916,0.3899,-0.1617,0.1063
16:53:56:228,-2.2181,3.2423,10.9376,68.9118,0.1784,0.5866,0.024,0.1062
16:53:56:247,-1.5242,3.3715,10.8993,69.6236,0.2162,0.6477,0.2219,0.1069
16:53:56:264,-1.1366,3.4457,11.0118,68.9123,0.1234,0.55,0.228,0.107
16:53:56:284,-1.2993,3.0317,11.3085,69.2237,0.0049,0.4657,0.057,0.1059
16:53:56:303,-1.7994,2.4144,11.2893,69.0459,-0.0709,0.3496,-0.1947,0.104
16:53:56:325,-2.8379,1.9501,10.8921,68.5431,-0.0916,0.2311,-0.4073,0.1018
16:53:56:347,-3.9553,1.7874,10.2245,69.0508,-0.0733,0.2421,-0.4696,0.0997
16:53:56:368,-4.2018,1.675,9.3846,68.3678,-0.0073,0.319,-0.2912,0.0982
16:53:56:383,-3.8548,1.8281,8.6788,68.8884,0.0073,0.3508,-0.0407,0.0972
16:53:56:403,-3.2997,1.6726,8.2481,68.2387,-0.0916,0.3569,0.1156,0.0954
16:53:56:423,-2.936,1.3519,7.9681,68.5617,-0.2663,0.3752,0.145,0.092
16:53:56:445,-2.8331,0.8112,8.3605,67.4416,-0.4874,0.3154,0.0729,0.0866
16:53:56:467,-2.9025,0.2249,9.1334,68.2605,-0.7049,0.021,-0.0236,0.0795
16:53:56:484,-2.9456,0.1651,9.5785,67.207,-0.755,-0.3162,-0.02,0.0728
16:53:56:506,-2.5938,0.3135,9.3679,67.4423,-0.5779,-0.436,0.1413,0.0684
16:53:56:523,-1.9908,0.7059,8.6692,66.9685,-0.2492,-0.3065,0.4455,0.0671
16:53:56:543,-1.0768,1.1677,7.8891,68.4887,0.0403,-0.0975,0.7106,0.0684
16:53:56:562,-0.3637,1.4836,7.4608,65.814,0.149,0.0063,0.7815,0.0707
16:53:56:582,-0.2728,1.6726,7.5685,67.6683,0.1038,0.0173,0.6446,0.0724
16:53:56:601,-0.7011,1.8042,7.6618,67.2438,0.0195,-0.0328,0.3844,0.0732
16:53:56:622,-1.3208,1.8497,7.8365,67.6683,0.0049,0.0234,0.1657,0.0734
16:53:56:643,-1.9884,2.0219,8.1906,65.4591,0.0012,0.0869,0.0362,0.0732
16:53:56:662,-2.1488,2.1081,9.2818,68.5049,0.0415,0.0527,0.0155,0.0731
16:53:56:683,-1.8544,2.3976,10.3801,67.4607,0.0782,-0.1195,0.0582,0.0733
16:53:56:705,-2.0148,2.991,10.7749,66.7472,0.2504,-0.2319,0.0423,0.0776
16:53:56:724,-2.5412,3.5964,10.1216,66.2921,0.5082,-0.1257,-0.0017,0.0828
16:53:56:746,-2.7422,3.9529,9.5904,66.5017,0.6109,0.0906,0.013,0.0885
16:53:56:763,-2.5555,4.0798,9.6503,67.7919,0.4728,0.2018,0.0374,0.0926
16:53:56:781,-2.144,3.9075,10.0953,65.8406,0.2089,0.1346,-0.0078,0.0945
16:53:56:803,-1.8544,3.6538,10.6457,67.2057,-0.0428,0.0002,-0.1397,0.0942
16:53:56:824,-1.9573,3.0126,10.8778,66.5813,-0.2003,-0.0377,-0.3303,0.0921
16:53:56:845,-2.01,2.467,10.8084,69.1034,-0.2443,-0.0475,-0.5074,0.0894
16:53:56:861,-1.5218,1.6582,10.7031,67.1122,-0.2846,-0.1012,-0.6027,0.0861
16:53:56:882,-1.5601,1.1821,10.6505,65.5846,-0.3775,-0.1195,-0.6687,0.0819
16:53:56:904,-1.9382,0.9834,11.019,66.3722,-0.4606,-0.0059,-0.6785,0.0766
16:53:56:923,-1.7635,0.4307,11.5023,67.2102,-0.4874,0.0735,-0.5991,0.0708
16:53:56:944,-1.1581,-0.4187,11.476,66.3255,-0.3983,0.0124,-0.5197,0.0659
16:53:56:968,-0.7968,-0.8207,11.0429,68.3855,-0.2431,-0.0939,-0.4769,0.0626
16:53:56:983,-0.6796,-0.6365,10.4854,67.2517,-0.1503,-0.1586,-0.4231,0.0606
16:53:57:003,-0.4881,-0.2728,9.8273,68.6451,-0.1295,-0.216,-0.3291,0.0591
16:53:57:025,-0.4116,0.1531,9.4397,67.5548,-0.0635,-0.26,-0.2325,0.0585
16:53:57:042,-0.3972,0.5838,8.5831,67.2517,0.0965,-0.2979,-0.1641,0.0597
16:53:57:064,-0.4164,1.3711,7.3555,68.1915,0.2969,-0.2002,-0.0872,0.0629
16:53:57:085,-0.2991,1.8138,6.2046,68.2043,0.3995,-0.056,-0.0053,0.0669
16:53:57:107,-0.2393,2.1081,5.7021,69.9577,0.314,0.0368,0.0008,0.07
16:53:57:127,-0.9547,2.5005,6.4845,69.3125,-0.1625,-0.1232,-0.2668,0.0698
16:53:57:141,-1.3663,2.4144,6.9942,68.5499,-0.2859,-0.3358,-0.4195,0.0677
16:53:57:162,-1.7109,2.3186,7.3508,69.2052,-0.3018,-0.4629,-0.5221,0.0657
16:53:57:182,-2.1296,2.3282,7.6451,68.2841,-0.3128,-0.4091,-0.5392,0.0634
16:53:57:220,-2.5914,2.4215,8.1236,67.8496,-0.336,-0.2491,-0.4598,0.0606
16:53:57:221,-2.6728,2.4096,8.7027,68.8744,-0.3445,-0.1427,-0.3266,0.0576
16:53:57:240,-2.8475,2.4311,9.3799,66.2976,-0.3641,-0.1012,-0.2167,0.0545
16:53:57:260,-2.8044,2.4144,10.0188,68.4366,-0.3726,-0.0475,-0.0969,0.0512
16:53:57:281,-2.656,2.4933,10.7892,68.6044,-0.3188,-0.0047,0.0423,0.0485
16:53:57:302,-2.5149,2.6991,11.1673,68.0573,-0.1649,0.0063,0.1669,0.0474
16:53:57:323,-2.3785,2.9599,11.0692,69.6166,0.099,0.0747,0.2952,0.0488
16:53:57:343,-2.0961,3.0891,10.6122,69.9206,0.3531,0.2384,0.393,0.0523
16:53:57:362,-1.6391,2.8187,10.416,68.1737,0.4508,0.4033,0.3771,0.0563
16:53:57:381,-1.663,2.254,11.0405,66.7179,0.3457,0.4339,0.1559,0.0588
16:53:57:404,-3.0006,1.9119,11.854,68.3277,0.1051,0.2311,-0.2496,0.059
16:53:57:426,-4.1492,1.9358,12.2297,68.3043,0.0171,0.0649,-0.4353,0.0585
16:53:57:445,-4.142,2.2445,11.8899,69.4541,0.1576,0.0576,-0.1996,0.0596
16:53:57:461,-3.0126,2.0315,10.9783,69.9207,0.3128,0.2421,0.1706,0.0622
16:53:57:482,-2.6752,1.4213,10.672,69.8976,0.2224,0.5451,0.2806,0.0634
16:53:57:505,-3.2758,1.2036,11.0261,69.6397,-0,0.6501,0.2146,0.062
16:53:57:524,-3.539,1.3472,11.0429,71.2257,-0.033,0.4717,0.2354,0.0608
16:53:57:543,-3.3643,1.4859,10.1527,69.8976,0.138,0.2775,0.2952,0.0618
16:53:57:565,-2.8522,1.1151,8.3414,70.1994,0.2187,0.2482,0.2928,0.0659
16:53:57:585,-2.8738,0.5504,8.327,71.2296,-0.0244,0.2347,0.1816,0.0653
16:53:57:607,-3.3499,0.067,9.0281,69.3685,-0.3409,0.0368,0.0179,0.0616
16:53:57:624,-3.4552,-0.323,9.411,71.1138,-0.5094,-0.2918,-0.0444,0.057
16:53:57:642,-3.1466,-0.5001,9.4325,71.2576,-0.4594,-0.4946,0.0704,0.0534
16:53:57:666,-2.4048,-0.2847,9.0449,71.1497,-0.3164,-0.5801,0.3404,0.0517
16:53:57:681,-1.5147,0.2225,8.5831,69.9817,-0.1405,-0.5142,0.6666,0.0521
16:53:57:703,-0.4259,0.7442,7.7073,70.0305,0.0244,-0.3272,0.9049,0.054
16:53:57:724,0.2058,1.2514,6.9799,72.5918,0.127,-0.0658,0.9537,0.0565
16:53:57:744,0.28,1.5649,6.5922,70.4419,0.1014,0.1492,0.7949,0.0581
16:53:57:765,0.1914,1.6415,6.6999,70.2229,-0.0037,0.1944,0.5383,0.0583
16:53:57:785,-0.3326,1.7157,7.2742,71.9359,-0.1417,0.049,0.2036,0.0573
16:53:57:811,-0.8949,1.5218,7.7551,71.6158,-0.2309,-0.1721,-0.114,0.0556
16:53:57:823,-1.34,1.3854,8.1212,70.9786,-0.2175,-0.2271,-0.3083,0.054
16:53:57:843,-1.8975,1.2658,8.4658,71.3254,-0.1881,-0.1745,-0.3963,0.0523
16:53:57:862,-2.4766,1.2969,8.9731,71.2023,-0.1698,-0.1281,-0.395,0.0506
16:53:57:883,-2.7039,1.3232,9.5306,71.3784,-0.1246,-0.166,-0.2887,0.0495
16:53:57:905,-2.589,1.5577,9.9685,71.5608,-0.0147,-0.2124,-0.1287,0.0498
16:53:57:925,-2.2181,2.0937,10.416,72.4953,0.1002,-0.1758,0.0106,0.0513
16:53:57:943,-2.0124,2.613,10.6002,70.7852,0.1588,-0.0523,0.0741,0.0532
16:53:57:963,-1.7827,2.9097,10.7629,72.6274,0.1747,0.0979,0.0558,0.0549
16:53:57:988,-1.7037,3.0221,11.129,72.999,0.1051,0.1016,-0.0554,0.0559
16:53:58:003,-2.0435,3.192,12.0048,73.1466,-0.0647,-0.144,-0.2692,0.0558
16:53:58:022,-0.7872,2.187,12.8255,74.3265,-0.127,-0.5435,-0.4842,0.0549
16:53:58:043,-0.4044,1.1773,13.1988,75.4391,-0.1099,-0.5435,-0.687,0.0547
16:53:58:061,-0.7585,0.1723,13.6176,72.7805,-0.1552,-0.5838,-0.9961,0.0534
16:53:58:083,-1.8879,-0.0694,13.5147,73.0566,-0.0831,-0.563,-1.1464,0.0524
16:53:58:181,-2.9934,0.1986,12.3805,72.5846,0.2504,-0.2393,-0.8911,0.0542
16:53:58:182,-2.4526,0.4283,10.1958,73.768,0.7061,0.2201,-0.301,0.0598
16:53:58:183,-1.1414,0.4427,8.1859,72.4435,0.9297,0.4803,0.1755,0.0674
16:53:58:185,-0.5336,0.926,7.0636,73.9687,0.7404,0.3667,0.2928,0.0738
16:53:58:186,-0.3015,1.2825,6.6544,74.9318,0.2798,-0.0902,0.162,0.0767
16:53:58:201,-0.1388,1.4165,6.8818,75.1137,-0.1588,-0.4983,0.0106,0.0763
16:53:58:221,0.5408,1.2849,7.1833,76.5457,-0.4044,-0.6168,-0.0554,0.0738
16:53:58:242,0.6748,1.1414,7.7982,74.2284,-0.4887,-0.4702,-0.1666,0.0701
16:53:58:263,0.0215,0.7131,8.3079,75.7576,-0.5168,-0.3639,-0.406,0.0656
16:53:58:283,-0.8877,0.5288,8.6453,73.9069,-0.4398,-0.4702,-0.6186,0.0618
16:53:58:302,-1.5816,0.5719,8.7505,73.9687,-0.2602,-0.5972,-0.6614,0.0599
16:53:58:322,-2.0052,0.95,8.5519,73.793,-0.0428,-0.5569,-0.4916,0.0601
16:53:58:342,-1.7994,1.3232,7.9322,74.6685,0.2113,-0.2967,-0.1617,0.0625
16:53:58:363,-1.3926,1.7085,7.657,76.6234,0.3482,0.0283,0.1242,0.0658
16:53:58:385,-1.005,1.9023,7.6211,75.982,0.2944,0.2323,0.2903,0.0685
16:53:58:403,-0.7801,2.2373,8.0351,76.2297,0.1576,0.3496,0.3343,0.0698
16:53:58:422,-0.9571,2.5555,8.5448,75.7201,0.0195,0.3508,0.2598,0.0697
16:53:58:449,-1.3161,2.7159,8.7697,74.8131,-0.0073,0.3105,0.1523,0.0695
16:53:58:465,-1.7874,2.6728,8.6309,77.1101,0.0134,0.3557,0.0741,0.0693
16:53:58:483,-2.187,2.7589,10.1719,76.4825,-0.2345,0.6917,0.3099,0.0678
16:53:58:504,-1.6247,2.9862,11.1123,77.1664,-0.2052,0.5414,0.4699,0.0624
16:53:58:520,-1.1821,3.082,11.6004,77.7294,0.0195,0.2922,0.4296,0.0627
16:53:58:541,-1.0696,2.5986,11.5645,77.8469,0.2431,0.0894,0.2305,0.0652
16:53:58:562,-1.8257,2.2995,11.7703,77.1786,0.314,0.0173,0.0081,0.0681
16:53:58:583,-2.9216,2.3426,12.0287,77.5154,0.2798,0.0661,-0.0481,0.0706
16:53:58:605,-3.0724,2.2349,12.0407,79.3974,0.3286,0.1492,0.1951,0.0735
16:53:58:623,-2.7039,2.3067,11.5573,78.7001,0.452,0.1993,0.5017,0.0777
16:53:58:640,-2.333,1.9119,11.0333,79.2327,0.4838,0.2861,0.6568,0.0821
16:53:58:664,-2.3234,1.7468,10.995,78.8273,0.3922,0.363,0.7143,0.0854
16:53:58:682,-2.3282,1.5147,10.8921,77.6532,0.3262,0.3031,0.7118,0.0882
16:53:58:701,-2.2014,1.4261,10.2796,79.3104,0.3653,0.1443,0.6312,0.0916
16:53:58:721,-1.6845,1.0816,9.5856,77.5334,0.3799,0.0051,0.5017,0.0953
16:53:58:742,-1.3161,0.8279,9.2171,77.737,0.2089,-0.0377,0.3319,0.0973
16:53:58:770,-1.4189,0.5886,9.2889,78.4926,-0.0928,0.0161,0.151,0.0962
16:53:58:787,-1.8257,0.402,9.6,77.9844,-0.3298,0.0869,0.0289,0.0925
16:53:58:802,-1.9693,0.4355,9.478,79.6935,-0.3934,0.0612,0.0167,0.0883
16:53:58:821,-1.5218,0.5001,8.7721,78.8993,-0.2859,-0.0328,0.1193,0.0856
16:53:58:842,-0.9834,0.8255,7.87,79.8749,-0.1344,-0.0975,0.2622,0.0846
16:53:58:864,-0.3374,0.993,7.4848,78.9686,-0.1014,-0.1,0.3771,0.0842
16:53:58:885,-0.2752,1.2156,7.7623,79.6073,-0.2052,-0.0768,0.4101,0.0829
16:53:58:902,-0.3541,1.517,7.9872,78.3173,-0.2944,-0.0523,0.3795,0.0807
16:53:58:922,-0.4283,1.8018,7.9083,78.7515,-0.237,-0.0462,0.327,0.079
16:53:58:952,-0.7155,1.9932,7.9537,78.4981,-0.0367,-0.2075,0.0961,0.0786
16:53:58:963,-1.0337,1.919,8.1715,78.8544,-0.0599,-0.2979,-0.0566,0.0793
16:53:58:983,-1.5242,1.8425,8.4778,81.1588,-0.1026,-0.2613,-0.1568,0.0789
16:53:59:000,-1.8592,1.7755,8.9683,79.6317,-0.1002,-0.1635,-0.147,0.0783
16:53:59:020,-2.0435,1.9143,9.4469,78.4337,-0.0305,-0.1195,-0.0468,0.0782
16:53:59:041,-1.9645,2.0961,9.5689,79.6073,0.1038,-0.0646,0.0741,0.0794
16:53:59:063,-2.2469,2.5268,9.3942,79.0971,0.2578,0.049,0.1572,0.0819
16:53:59:082,-2.1559,2.7182,9.1047,80.0465,0.3396,0.126,0.1999,0.0849
16:53:59:101,-2.0291,3.0461,9.2315,81.3626,0.3066,0.1566,0.2207,0.0878
16:53:59:121,-1.9119,3.2638,9.8991,81.1575,0.1417,0.1333,0.1865,0.0891
16:53:59:141,-1.6152,3.125,10.7773,81.077,-0.0599,0.0075,0.1022,0.0888
16:53:59:162,-1.584,3.0293,11.9833,78.658,-0.1979,-0.1452,-0.0078,0.0874
16:53:59:182,-1.2682,2.924,12.8495,79.3209,-0.1906,-0.3199,-0.0407,0.0865
16:53:59:202,-0.7681,2.723,13.0241,81.1305,0.0012,-0.3786,-0.0151,0.0875
16:53:59:221,0.0383,2.3713,12.3254,80.85,0.2065,-0.3407,-0.0432,0.0903
16:53:59:242,0.6078,1.7827,11.9665,79.1844,0.2211,-0.2613,-0.1556,0.0927
16:53:59:263,0.0431,1.4189,12.0957,78.5463,0.0538,-0.1611,-0.3523,0.0931
16:53:59:284,-1.017,1.4883,11.8971,80.2841,0.0318,0.0845,-0.4219,0.0926
16:53:59:299,-1.3041,1.5864,10.6457,79.906,0.2834,0.3972,-0.312,0.0937
16:53:59:318,-0.9523,1.4142,9.0568,78.8824,0.551,0.5915,-0.1727,0.097
16:53:59:339,-0.3278,0.7896,7.7432,78.7896,0.584,0.5524,-0.1641,0.1006
16:53:59:359,-0.6341,0.3493,7.5302,81.7325,0.3225,0.3178,-0.3718,0.1021
16:53:59:379,-1.4692,0.1077,8.004,79.5673,-0.0965,-0.0597,-0.5991,0.1003
16:53:59:401,-2.2397,0.9332,7.5709,79.3571,-0.2101,-0.2209,-0.3058,0.095
16:53:59:419,-1.7109,1.675,6.5994,80.4858,-0.0025,-0.0291,0.0619,0.0951
16:53:59:439,-0.8614,2.2636,5.6542,81.4105,0.1002,0.0674,0.3038,0.0963
16:53:59:459,-0.2441,2.7302,5.3264,81.4868,0.0476,0.049,0.3258,0.0973
16:53:59:481,-0.1747,3.0724,5.5202,81.2047,-0.1344,-0.1391,0.1315,0.097
16:53:59:501,-0.5671,3.1442,6.0634,80.1218,-0.3506,-0.4103,-0.1714,0.095
16:53:59:520,-0.9954,3.0293,6.6209,80.576,-0.4862,-0.4873,-0.384,0.0917
16:53:59:542,-1.3663,2.9671,7.267,80.0231,-0.5913,-0.3431,-0.4708,0.087
16:53:59:561,-1.5099,2.5723,8.4299,79.1345,-0.711,-0.1867,-0.472,0.0807
16:53:59:580,-2.0578,2.2923,9.7507,78.6425,-0.7843,-0.1745,-0.5111,0.0735
16:53:59:599,-2.5053,2.1535,10.6289,79.7667,-0.6658,-0.2332,-0.4952,0.0675
16:53:59:621,-2.3115,2.1009,10.9232,78.1405,-0.3799,-0.2515,-0.3278,0.0643
16:53:59:641,-1.9095,2.2038,10.9831,77.6052,-0.0941,-0.1708,-0.1018,0.0638
16:53:59:663,-1.5769,2.1512,11.1003,78.5463,0.0916,-0.0255,0.0607,0.0648
16:53:59:681,-1.4644,2.1296,11.476,78.3348,0.2211,0.0771,0.1193,0.0668
16:53:59:700,-1.6893,2.3091,11.6076,77.8861,0.3555,0.1407,0.0997,0.0699
16:53:59:722,-1.8808,2.3976,11.1697,76.902,0.5131,0.2018,0.0582,0.0743
16:53:59:745,-1.9262,2.5627,10.538,76.6663,0.5901,0.3154,0.0362,0.0792
16:53:59:762,-2.0435,2.6728,10.1025,76.0536,0.4838,0.4595,0.0411,0.0828
16:53:59:780,-2.2612,2.79,10.4255,77.6859,0.2248,0.6049,0.0594,0.0838
16:53:59:800,-2.3186,2.6848,10.9854,78.2114,-0.0403,0.6171,0.0509,0.0821
16:53:59:822,-2.4574,2.5938,11.6339,75.0832,-0.1735,0.5475,-0.0017,0.0793
16:53:59:846,-2.321,2.3474,11.4975,76.7801,-0.1393,0.17,-0.0407,0.0768
16:53:59:866,-2.3163,2.1081,10.9208,75.0833,-0.0892,0.1504,-0.0688,0.0738
16:53:59:883,-2.8522,1.8855,10.404,73.648,-0.1246,0.1517,-0.158,0.072
16:53:59:903,-3.3236,1.4812,10.0259,75.9928,-0.2223,0.1614,-0.235,0.0692
16:53:59:922,-3.7926,1.0552,9.8967,73.6526,-0.3433,0.1566,-0.235,0.0652
16:53:59:942,-4.0295,0.7202,9.856,72.9442,-0.4288,0.0833,-0.1446,0.0605
16:53:59:963,-3.6969,0.5719,9.5234,72.7391,-0.3812,-0.0157,0.0619,0.0567
16:53:59:983,-2.9767,0.4642,8.7769,71.694,-0.2113,-0.0988,0.2806,0.055
16:54:00:005,-2.2038,0.2393,8.4897,71.7743,-0.0928,-0.1965,0.4003,0.0546
16:54:00:029,-1.6941,-0.0742,8.5639,71.923,-0.127,-0.4091,0.4015,0.0544
16:54:00:040,-1.474,-0.2919,9.0066,71.8511,-0.1967,-0.6449,0.3307,0.0539
16:54:00:059,-1.3089,-0.2991,9.0186,72.7665,-0.1503,-0.7695,0.305,0.0541
16:54:00:081,-1.6104,0.0933,8.6501,71.6798,-0.0367,-0.6351,0.316,0.0551
16:54:00:099,-1.7635,0.5288,7.8724,71.276,0.0782,-0.2613,0.4553,0.0566
16:54:00:219,-1.4644,1.0313,7.2048,71.654,0.1711,0.1688,0.6911,0.0582
16:54:00:220,-0.9236,1.4596,7.0588,72.1867,0.1747,0.3948,0.8536,0.0596
16:54:00:220,-0.3733,1.608,7.188,71.5307,0.1014,0.3936,0.8352,0.0604
16:54:00:221,-0.603,2.0435,7.6905,70.2889,0.0024,0.2873,0.5958,0.0604
16:54:00:222,-1.2754,1.9693,8.0184,71.3298,-0.0391,0.1944,0.272,0.0599
16:54:00:228,-2.0722,2.0052,8.1906,69.8604,0.0134,0.1724,0.0692,0.0598
16:54:00:239,-2.2493,1.9525,8.327,71.5755,0.0525,0.1639,0.0546,0.06
16:54:00:260,-1.9693,2.0698,8.997,70.6091,0.0122,0.1138,0.1327,0.06
16:54:00:281,-1.5864,2.2516,9.9159,71.0232,-0.127,-0.0145,0.1486,0.0592
16:54:00:302,-1.5458,2.3043,11.6219,70.0424,-0.2614,-0.1513,-0.0652,0.0574
16:54:00:325,-1.6271,2.3809,11.9402,70.7886,-0.1784,-0.1537,-0.1666,0.0555
16:54:00:347,-1.6654,2.5579,12.1651,72.8217,-0.088,-0.1758,-0.2069,0.054
16:54:00:363,-1.5362,2.6106,11.9809,70.5263,-0.0281,-0.21,-0.1898,0.0543
16:54:00:381,-0.8159,2.2899,11.4951,71.734,0.0281,-0.1647,-0.1531,0.0551
16:54:00:400,-0.1484,1.608,11.1697,72.5599,-0.0318,-0.0963,-0.2435,0.0549
16:54:00:422,-0.2249,0.5719,11.6004,70.2948,-0.2822,-0.0658,-0.4866,0.0519
16:54:00:441,-1.151,0.0096,12.5623,72.0751,-0.5302,-0.0658,-0.6919,0.0463
16:54:00:462,-1.5984,-0.591,12.9045,70.1258,-0.474,-0.0536,-0.654,0.041
16:54:00:481,-1.084,-1.2251,12.1986,71.4625,-0.1185,-0.0682,-0.4415,0.0391
16:54:00:502,-0.3087,-1.2921,10.8323,70.3082,0.2529,-0.0694,-0.2057,0.0409
16:54:00:522,0.1866,-0.8423,9.6742,71.2201,0.3629,0.0478,-0.0297,0.0437
16:54:00:543,0.3589,-0.3159,9.0784,71.9785,0.2395,0.2518,0.079,0.0451
16:54:00:561,0.323,0.067,8.9204,71.336,0.0916,0.3691,0.1107,0.045
16:54:00:580,0.4929,0.3374,8.5759,71.2106,0.0696,0.3068,0.1034,0.0449
16:54:00:600,0.5432,0.7609,8.0638,72.7626,0.1711,0.1859,0.057,0.0461
16:54:00:621,0.4498,1.2203,7.3149,72.7388,0.2688,0.0649,-0.0517,0.0485
16:54:00:641,0.1723,1.7396,6.5994,72.1147,0.3103,-0.0169,-0.1617,0.0516
16:54:00:664,-0.1412,2.1631,6.0562,74.0195,0.2993,-0.0169,-0.2313,0.0545
16:54:00:680,-0.4427,2.5412,5.6758,73.255,0.2517,0.0087,-0.2716,0.0571
16:54:00:702,-0.4714,2.6345,5.7212,71.5986,0.1661,-0.0145,-0.3132,0.0589
16:54:00:721,-0.7753,2.5842,6.4343,72.802,-0.0159,-0.1855,-0.4439,0.0592
16:54:00:744,-1.4644,2.3497,7.5709,71.9552,-0.2455,-0.4311,-0.621,0.0577
16:54:00:761,-2.455,2.3067,8.9252,74.0003,-0.3323,-0.5716,-0.5771,0.0531
16:54:00:780,-2.2684,2.3497,9.332,72.2554,-0.2236,-0.4396,-0.3327,0.0519
16:54:00:799,-1.8281,2.3282,9.9159,72.7798,-0.1515,-0.2845,-0.0969,0.0512
16:54:00:822,-1.7061,2.3426,10.9831,71.6537,-0.0953,-0.1708,0.0167,0.0509
16:54:00:844,-1.7013,2.4239,11.586,71.8056,0.044,-0.1611,0.0264,0.0519
16:54:00:862,-1.6774,2.7589,11.464,74.2095,0.2834,-0.1073,0.0264,0.0551
16:54:00:881,-1.6128,2.881,11.0572,73.0438,0.4704,0.0881,0.0313,0.0596
16:54:00:901,-1.6199,2.7589,10.5547,73.0438,0.5119,0.363,0.0118,0.064
16:54:00:923,-2.1033,2.6441,10.5835,75.1143,0.4154,0.5964,-0.0578,0.0669
16:54:00:942,-2.7422,2.6895,10.8586,74.6517,0.2089,0.6294,-0.1605,0.0676
16:54:00:960,-2.522,2.5005,11.1673,75.4931,0.0195,0.5206,-0.1544,0.0668
16:54:00:979,-1.9454,2.0267,11.5932,74.1613,-0.1515,0.407,-0.1348,0.0645
16:54:01:001,-2.0483,1.3783,11.8875,72.5435,-0.3372,0.3264,-0.2423,0.0605
16:54:01:023,-3.0532,0.9787,11.9976,71.5209,-0.4056,0.374,-0.3645,0.0554
16:54:01:042,-3.9458,0.6556,11.3803,73.4855,-0.2541,0.4339,-0.3584,0.0516
16:54:01:060,-3.7783,0.4475,10.3131,73.2476,-0.0208,0.3166,-0.2215,0.0503
16:54:01:081,-3.472,0.0215,9.6072,72.9236,-0.0085,0.1272,-0.1556,0.0495
16:54:01:102,-3.5677,-0.5623,9.6263,73.0969,-0.2749,0.0136,-0.1837,0.0463
16:54:01:119,-4.0032,-0.9643,10.3681,72.9729,-0.5681,-0.0389,-0.1336,0.0403
16:54:01:140,-4.2329,-1.1844,10.4279,74.0142,-0.6072,-0.1672,0.0607,0.0344
16:54:01:162,-3.5198,-1.0002,10.0044,73.3063,-0.3702,-0.3016,0.4663,0.0314
16:54:01:183,-1.7276,-0.5862,9.2028,73.6711,-0.0782,-0.4738,0.9537,0.0321
16:54:01:202,0.0239,-0.0239,8.3175,72.2398,0.0977,-0.5361,1.2494,0.035
16:54:01:223,1.0457,0.8495,7.5446,72.924,0.0635,-0.1513,1.0735,0.04
16:54:01:241,0.1699,1.0792,7.401,74.6427,0.0232,0.0332,0.7912,0.0409
16:54:01:260,-0.3589,1.2538,7.0827,74.8496,0.0928,0.0393,0.5665,0.0423
16:54:01:293,-0.2321,1.2825,6.6736,74.3679,0.1869,-0.1073,0.4296,0.0448
16:54:01:306,-0.3876,1.2778,6.8076,72.2202,0.1588,-0.2295,0.2622,0.0471
16:54:01:320,-1.0935,1.273,7.4943,73.1817,-0.0012,-0.2661,0.0753,0.0479
16:54:01:338,-1.797,1.3185,8.2648,72.7773,-0.1332,-0.2209,-0.0236,0.0472
16:54:01:359,-2.1105,1.3017,8.6883,74.8517,-0.16,-0.1232,-0.0029,0.0461
16:54:01:382,-1.9549,1.1462,9.1765,73.503,-0.1625,0.0075,0.0839,0.0446
16:54:01:402,-2.0794,1.1533,10.0786,74.3111,-0.1845,0.1382,0.1828,0.0427
16:54:01:424,-2.1799,1.462,10.9759,74.19,-0.1441,0.137,0.2574,0.0412
16:54:01:449,-2.0219,2.1607,11.3324,73.4139,0.044,0.06,0.3343,0.0419
16:54:01:459,-1.4883,2.6225,10.861,73.152,0.2969,0.0637,0.4137,0.0451
16:54:01:479,-0.7705,2.7135,10.2772,75.6174,0.4203,0.1663,0.4137,0.0493
16:54:01:500,-0.1316,2.7541,10.4255,74.0715,0.2859,0.1993,0.2708,0.052
16:54:01:523,-0.2177,2.7924,11.6483,76.4096,-0.0428,0.0442,-0.0249,0.0519
16:54:01:541,-0.7083,2.7398,12.3829,74.384,-0.2663,-0.2112,-0.3376,0.05
16:54:01:561,-0.2225,2.3067,12.1675,75.0829,-0.1686,-0.2564,-0.4696,0.049
16:54:01:580,0.2417,1.5649,11.5836,74.1306,-0.088,-0.2234,-0.6198,0.0484
16:54:01:602,0.1555,0.3326,11.8493,75.1382,-0.2627,-0.1892,-0.8752,0.0456
16:54:01:622,-0.8542,-0.1627,12.7585,73.619,-0.4716,-0.155,-1.0706,0.0405
16:54:01:641,-1.6917,-0.4044,12.816,73.6413,-0.3751,-0.067,-1.0022,0.036
16:54:01:660,-1.3185,-0.6389,11.5095,73.6413,0.088,0.1993,-0.621,0.0389
16:54:01:681,0.7896,-0.9715,8.9659,73.3536,0.5461,0.5536,-0.1776,0.0423
16:54:01:705,0.0694,-0.7226,9.277,74.4721,0.1735,0.3423,-0.4109,0.0425
16:54:01:724,-0.8207,-0.5791,9.5234,74.937,-0.0599,0.0674,-0.5966,0.041
16:54:01:741,-1.0983,-0.0574,8.9252,76.2109,0.0928,0.0222,-0.4842,0.0411
16:54:01:761,-0.8782,0.6102,7.7073,72.8033,0.3714,0.049,-0.246,0.0442
16:54:01:786,-0.5719,1.2586,6.7119,74.6865,0.518,0.1138,-0.0884,0.0489
16:54:01:803,-0.2106,1.7276,6.3482,73.6055,0.4728,0.1101,-0.0334,0.0533
16:54:01:825,-0.2465,2.2062,6.53,73.9153,0.303,-0.0939,-0.1409,0.0566
16:54:01:842,-0.6006,2.4072,6.7813,74.9413,0.1295,-0.3578,-0.3694,0.0585
16:54:01:858,-0.9045,2.5603,6.9799,76.0521,0.0586,-0.4372,-0.5172,0.0598
16:54:01:877,-1.1892,2.6608,7.0995,74.9413,0.011,-0.4054,-0.5807,0.0606
16:54:01:898,-1.273,2.5795,7.1258,76.0669,-0.0733,-0.3346,-0.6259,0.0603
16:54:01:918,-1.2467,2.522,7.2933,73.865,-0.2309,-0.2429,-0.7151,0.0584
16:54:01:937,-1.7324,2.4215,8.1165,73.0106,-0.5021,-0.2625,-0.8886,0.0538
16:54:01:958,-2.5292,2.1799,9.2602,73.3768,-0.7012,-0.37,-1.0267,0.0473
16:54:01:978,-3.2064,1.9884,10.2341,74.2914,-0.6157,-0.3969,-0.9888,0.0415
16:54:02:000,-3.5055,1.864,10.6194,72.9968,-0.2908,-0.3321,-0.7738,0.0389
16:54:02:022,-3.4863,1.7755,10.6505,73.7541,0.0831,-0.2026,-0.4622,0.0398
16:54:02:040,-3.2255,1.7444,10.3849,73.9677,0.3506,-0.0304,-0.1714,0.0432
16:54:02:060,-2.7135,1.541,10.0881,73.0255,0.474,0.1737,0.0289,0.0476
16:54:02:079,-2.0698,1.2012,10.3011,73.3768,0.4032,0.3239,0.0997,0.0511
16:54:02:099,-2.077,1.084,11.2152,71.9653,0.1747,0.4424,0.0399,0.0521
16:54:02:124,-3.6706,2.1823,12.2728,71.6271,0.055,0.7857,0.1364,0.0512
16:54:02:237,-3.2279,2.7805,11.7057,72.53,0.2749,0.881,0.4724,0.0533
16:54:02:238,-2.1057,2.6369,11.3372,73.6163,0.3836,0.8676,0.7082,0.0568
16:54:02:239,-1.4381,2.266,11.3037,74.1316,0.2614,0.7796,0.619,0.059
16:54:02:239,-2.2445,1.6869,11.6411,73.3714,0.0806,0.6452,0.2243,0.0591
16:54:02:240,-3.3571,1.151,11.4497,74.251,0.0855,0.4107,-0.1275,0.059
16:54:02:240,-4.0415,0.9212,10.4566,73.2393,0.2957,0.2066,-0.2215,0.0611
16:54:02:262,-3.6419,0.3637,9.1549,72.4606,0.4398,0.1065,-0.1385,0.0646
16:54:02:280,-3.4146,0.1196,8.5496,73.6073,0.259,0.1052,-0.0798,0.0664
16:54:02:299,-3.3619,-0.0431,8.3366,72.7614,-0.1503,0.1517,-0.0529,0.0644
16:54:02:321,-3.1681,-0.0718,8.3486,72.3686,-0.4936,0.2115,0.0228,0.0591
16:54:02:339,-2.7829,-0.3254,8.7195,72.4884,-0.6952,0.1504,0.1327,0.0522
16:54:02:361,-2.3019,-0.5623,9.7149,71.0856,-0.81,-0.1,0.2109,0.0445
16:54:02:384,-1.6295,-0.7394,10.4518,73.1904,-0.7794,-0.4274,0.2854,0.0376
16:54:02:401,-1.1438,-0.5647,10.7031,72.7613,-0.4899,-0.6119,0.4259,0.034
16:54:02:422,-0.6508,-0.2513,9.734,72.6863,0.022,-0.5752,0.652,0.0354
16:54:02:439,-0.3278,0.5097,7.8556,71.4585,0.5742,-0.3382,0.8878,0.0422
16:54:02:460,0.0479,0.8447,5.9821,73.1403,0.8577,0.0124,1.0087,0.0512
16:54:02:482,-0.1244,1.3137,5.3121,72.2435,0.7208,0.3313,0.9635,0.0586
16:54:02:502,-0.658,1.5936,5.4676,72.1797,0.3103,0.3838,0.7522,0.0618
16:54:02:522,-1.4237,1.6295,6.0754,73.6126,-0.0513,0.2824,0.4614,0.0614
16:54:02:541,-2.2301,1.529,6.9057,71.97,-0.2627,0.159,0.2243,0.059
16:54:02:560,-2.5316,1.2993,7.8652,74.1588,-0.3519,-0.0511,0.1388,0.056
16:54:02:580,-2.7206,1.2897,8.7673,72.4557,-0.3286,-0.2613,0.1425,0.0535
16:54:02:603,-2.9169,1.7683,9.8632,71.331,-0.0257,-0.4421,0.2525,0.0524
16:54:02:624,-2.5723,2.4431,10.1073,70.2053,0.1527,-0.4018,0.3612,0.0561
16:54:02:640,-1.8425,3.0341,10.4901,72.7901,0.1894,-0.359,0.4577,0.0593
16:54:02:660,-0.8471,3.3093,10.9783,71.6596,0.121,-0.2918,0.4712,0.0619
16:54:02:683,-0.4451,3.5294,11.6411,72.1851,-0.0171,-0.2185,0.2903,0.0629
16:54:02:700,-0.9165,3.7304,12.3709,71.8888,-0.1698,-0.2185,-0.0664,0.0622
16:54:02:720,-1.3352,3.3045,12.335,70.7775,-0.2138,-0.2038,-0.3987,0.0606
16:54:02:739,-1.3065,2.5914,11.8086,71.3299,-0.1527,-0.1623,-0.5966,0.0592
16:54:02:760,-1.0146,1.3663,11.8205,71.3622,-0.1967,-0.2136,-0.7896,0.057
16:54:02:779,-1.3495,0.3613,12.6389,70.8432,-0.3995,-0.3798,-1.0169,0.0528
16:54:02:800,-1.9932,-0.134,13.2969,70.302,-0.5046,-0.5007,-1.1073,0.0476
16:54:02:819,-2.4311,-0.457,13.0241,70.8089,-0.2956,-0.3199,-0.8898,0.0442
16:54:02:840,-1.6295,-0.6652,11.4832,71.1666,0.1063,0.1028,-0.3938,0.0442
16:54:02:860,-0.3757,-0.7896,10.2006,69.8512,0.3323,0.4571,0.0203,0.0461
16:54:02:881,0.0694,-0.7178,9.6383,70.5958,0.2113,0.5438,0.0997,0.0468
16:54:02:900,-0.2417,-0.548,9.4325,70.071,0.0147,0.4876,0.0118,0.0457
16:54:02:919,-0.6245,-0.2106,9.0999,69.9527,-0.0098,0.3936,-0.0224,0.0445
16:54:02:943,-0.7298,0.2177,8.6022,68.8959,0.1332,0.2482,0.0484,0.0452
16:54:02:964,-0.3805,0.804,7.7934,68.9356,0.3115,0.0894,0.1608,0.048
16:54:02:982,0.2321,1.2802,7.0181,70.8869,0.4325,0.0442,0.2549,0.0523
16:54:03:000,0.4522,1.8616,6.6592,70.5675,0.4142,0.0429,0.217,0.0565
16:54:03:020,0.1268,2.2827,6.6305,68.3969,0.3164,-0.0365,0.0435,0.0599
16:54:03:041,-0.4953,2.8331,6.5061,70.2938,0.3616,-0.337,-0.2729,0.0633
16:54:03:060,-0.6221,2.9958,6.4104,70.5071,0.3372,-0.3883,-0.3535,0.0714
16:54:03:080,-0.9212,2.9097,6.9464,69.5335,0.2003,-0.3358,-0.4268,0.0739
16:54:03:103,-1.5625,2.7039,8.016,69.1608,0.022,-0.3162,-0.5258,0.0744
16:54:03:120,-2.1894,2.5149,8.7458,69.0026,-0.0134,-0.4066,-0.571,0.0746
16:54:03:138,-2.5771,2.6848,8.8941,68.3063,0.1564,-0.4934,-0.5099,0.0767
16:54:03:160,-2.5819,2.8714,8.5974,68.6065,0.3494,-0.5007,-0.3804,0.0807
16:54:03:181,-2.388,3.1896,8.8558,69.051,0.3848,-0.447,-0.2325,0.0851
16:54:03:200,-2.3186,3.2782,9.5354,68.6618,0.2578,-0.3321,-0.1226,0.0882
16:54:03:219,-2.3354,3.3763,10.2796,66.4304,0.1405,-0.1415,-0.0517,0.0899
16:54:03:238,-2.266,3.3404,10.6146,68.3623,0.1393,0.038,-0.0212,0.0914
16:54:03:258,-2.2205,3.3021,10.6098,68.6618,0.2016,0.1956,-0.0554,0.0932
16:54:03:279,-2.5244,3.4935,10.6935,68.3974,0.1711,0.308,-0.1458,0.0945
16:54:03:301,-2.6752,3.4433,10.8538,67.3764,0.044,0.44,-0.2264,0.0943
16:54:03:320,-2.5484,2.9456,11.1793,66.4583,-0.1258,0.5854,-0.2838,0.0922
16:54:03:340,-2.6201,2.0937,12.0215,66.84,-0.3641,0.6318,-0.4048,0.0874
16:54:03:357,-3.0724,1.1844,13.0193,67.2629,-0.5913,0.5133,-0.5587,0.0803
16:54:03:379,-3.606,0.5886,13.3256,66.2178,-0.6218,0.3484,-0.6101,0.0729
16:54:03:399,-4.0558,0.213,12.4714,67.5428,-0.3836,0.3276,-0.472,0.0679
16:54:03:419,-4.3693,0.1268,10.6194,67.0815,-0.0379,0.5597,-0.1898,0.0662
16:54:03:442,-4.7593,-0.0622,8.9587,66.3006,0.1136,0.8676,0.0607,0.0659
16:54:03:462,-5.5896,-0.4546,8.2265,64.8308,-0.0611,1.0545,0.1608,0.0637
16:54:03:482,-6.2764,-0.7681,8.3414,67.1285,-0.3677,0.8981,0.2574,0.0589
16:54:03:500,-4.2712,-0.7681,8.662,65.3205,-0.5363,-0.2881,0.966,0.0495
16:54:03:519,-2.7063,-0.6389,8.6835,65.7544,-0.4496,-0.6131,1.2579,0.0473
16:54:03:540,-1.3998,-0.4546,8.7075,65.2473,-0.4361,-0.64,1.3923,0.0454
16:54:03:561,-0.2513,-0.1268,8.863,66.5015,-0.4471,-0.5337,1.451,0.0435
16:54:03:581,0.4355,0.4116,9.2794,64.8477,-0.3824,-0.4286,1.451,0.0422
16:54:03:598,0.8782,0.8734,9.0425,67.3025,-0.1552,-0.3786,1.407,0.043
16:54:03:618,0.8662,1.3615,8.3533,65.2207,0.1906,-0.2405,1.297,0.0467
16:54:03:639,0.6867,1.5266,7.3005,65.2207,0.4227,-0.0621,1.1003,0.052
16:54:03:662,0.201,1.5027,6.6616,65.9059,0.4313,0.1187,0.8352,0.0566
16:54:03:680,-0.8064,1.5003,6.7621,65.8847,0.259,0.1834,0.5237,0.0592
16:54:03:705,-1.9478,1.5673,7.2096,64.937,0.0867,0.021,0.2561,0.0602
16:54:03:721,-2.5172,1.8712,7.5757,65.0692,0.0684,-0.2185,0.206,0.0617
16:54:03:739,-2.455,2.2229,7.7623,65.7729,0.149,-0.3321,0.3123,0.0643
16:54:03:762,-2.1464,2.5125,8.004,66.0547,0.193,-0.3639,0.4101,0.0676
16:54:03:793,-1.8808,2.8187,8.4826,65.0692,0.1258,-0.2832,0.4675,0.0714
16:54:03:803,-2.0842,3.3523,9.667,66.7305,-0.022,0.1614,0.4259,0.0715
16:54:03:825,-1.8257,3.2495,10.2485,65.0784,-0.0452,0.2372,0.305,0.0711
16:54:03:844,-1.6893,3.0485,10.8467,65.7217,-0.0941,0.1236,0.0411,0.0702
16:54:03:862,-2.0148,2.5723,11.5669,64.7458,-0.2223,-0.111,-0.3413,0.0682
16:54:03:884,-2.6656,2.0267,12.2465,65.5567,-0.3506,-0.3297,-0.6443,0.0651
16:54:03:902,-3.125,1.4907,12.682,64.7491,-0.3567,-0.3981,-0.698,0.062
16:54:03:919,-2.7254,0.859,12.7657,64.7991,-0.303,-0.2124,-0.4866,0.0589
16:54:03:942,-1.9047,0.1077,13.0816,65.5736,-0.3494,0.1052,-0.2118,0.0547
16:54:03:960,-1.6439,-0.2249,14.2158,68.607,-0.4789,0.374,-0.0676,0.0488
16:54:03:980,-1.5434,-0.3948,14.6919,66.6307,-0.4313,0.4681,-0.0041,0.0431
16:54:04:001,-0.9954,-0.5862,13.7707,64.1061,-0.0244,0.4217,0.0435,0.0413
16:54:04:019,-0.2177,-0.7513,11.9282,64.138,0.4765,0.2335,0.0435,0.0446
16:54:04:041,-0.1603,-0.6628,10.4327,65.5567,0.6951,0.0393,-0.0236,0.0504
16:54:04:064,-0.201,-0.1077,9.2841,66.8078,0.5999,0.0148,-0.0456,0.0555
16:54:04:080,-0.1579,0.6843,8.4443,66.4111,0.4093,0.0576,0.0081,0.059
16:54:04:099,0.1627,1.2802,7.6881,66.0705,0.2932,0.0271,0.1242,0.0617
16:54:04:119,0.6532,1.8114,6.9559,64.8916,0.2724,-0.0255,0.2744,0.0648
16:54:04:143,1.2825,2.1344,6.0658,66.7408,0.281,0.0185,0.349,0.068
16:54:04:160,1.4046,2.5196,5.4628,66.3792,0.2113,0.115,0.2354,0.0704
16:54:04:298,1.3448,2.7709,5.336,66.4164,0.0415,0.1016,-0.0212,0.071
16:54:04:300,0.9045,2.7517,6.006,68.0729,-0.1441,-0.0096,-0.3315,0.0699
16:54:04:303,0.347,2.7182,6.786,67.0101,-0.2651,-0.188,-0.6064,0.0677
16:54:04:305,-0.2776,2.7805,7.5422,66.9984,-0.2395,-0.3602,-0.7933,0.0661
16:54:04:307,-1.0337,3.0006,7.9418,66.2036,-0.0928,-0.425,-0.9057,0.0658
16:54:04:308,-1.5147,2.9958,7.8556,65.7703,0.0599,-0.4262,-0.9204,0.0668
16:54:04:310,-1.8544,2.9001,7.9514,67.4992,0.099,-0.3908,-0.8605,0.0682
16:54:04:325,-2.2469,2.802,8.8295,67.2673,-0.0134,-0.3761,-0.7872,0.0684
16:54:04:342,-2.3713,2.6034,9.7197,67.2673,-0.1393,-0.4262,-0.687,0.0676
16:54:04:360,-2.4239,2.589,10.5404,66.7676,-0.1087,-0.4335,-0.5539,0.0672
16:54:04:379,-2.2636,2.7398,10.94,67.6684,0.0354,-0.4176,-0.4256,0.0682
16:54:04:398,-1.8855,2.6178,11.1434,67.0284,0.3054,-0.1061,-0.3352,0.0706
16:54:04:419,-2.0267,2.1799,11.0357,67.7753,0.3372,0.0967,-0.4305,0.0762
16:54:04:442,-2.9216,1.8927,11.129,67.6684,0.2883,0.2152,-0.5771,0.078
16:54:04:463,-4.0582,1.9717,11.1075,68.1508,0.2089,0.2885,-0.632,0.0788
16:54:04:480,-4.0582,2.1392,10.7175,67.2704,0.1955,0.4339,-0.4146,0.0795
16:54:04:498,-3.1131,2.0722,10.3633,66.4228,0.1527,0.6013,-0.136,0.0798
16:54:04:518,-2.3426,1.4429,10.7653,67.9398,-0.0623,0.644,-0.0969,0.0778
16:54:04:540,-2.8092,1.0002,11.677,67.7727,-0.3237,0.5231,-0.2826,0.0733
16:54:04:560,-3.7878,0.8183,11.6913,69.6989,-0.3421,0.3887,-0.4512,0.0686
16:54:04:580,-4.3597,0.6748,11.0333,66.5426,-0.1002,0.3508,-0.4048,0.0663
16:54:04:598,-4.4411,0.7418,10.0666,68.4229,0.1234,0.4192,-0.2045,0.0663
16:54:04:618,-4.5583,0.7155,9.2961,67.8124,0.1258,0.55,-0.0139,0.0663
16:54:04:640,-4.6325,0.603,8.7051,66.2281,0.0012,0.6648,0.1425,0.0652
16:54:04:660,-4.2832,0.3278,8.1189,68.0236,-0.1466,0.5878,0.2806,0.0629
16:54:04:678,-4.0702,0.0885,8.2193,67.1035,-0.3409,0.3019,0.3575,0.0594
16:54:04:697,-3.4768,-0.1747,8.9372,69.9104,-0.5791,-0.1379,0.4736,0.0544
16:54:04:718,-2.4263,-0.0909,9.3559,68.0431,-0.6988,-0.5203,0.6935,0.0493
16:54:04:739,-0.8447,0.1555,9.2507,67.5025,-0.6011,-0.6119,0.9721,0.0457
16:54:04:762,0.3135,0.6652,8.7171,69.1564,-0.3726,-0.4201,1.1407,0.0443
16:54:04:778,0.3541,1.2825,8.0351,67.6809,-0.138,-0.0536,1.0845,0.0444
16:54:04:800,0.1866,1.3448,7.5087,67.3031,0.0318,0.1419,0.8658,0.0455
16:54:04:818,-0.0694,1.4979,7.1354,68.465,0.1112,-0.0267,0.5884,0.0474
16:54:04:843,-0.2536,1.6798,6.9583,68.5841,0.1588,-0.2649,0.3795,0.0501
16:54:04:860,-1.1174,1.9071,6.8483,70.0275,0.1368,-0.0939,0.151,0.0528
16:54:04:879,-1.5482,1.73,7.4225,69.1476,0.0672,0.038,0.0582,0.0547
16:54:04:898,-2.077,1.474,8.2385,69.2304,-0.0244,-0.0499,-0.0786,0.0555
16:54:04:918,-2.479,1.261,9.1741,69.3709,-0.0806,-0.2038,-0.1935,0.0548
16:54:04:941,-3.082,1.4955,9.8967,69.0394,-0.1051,-0.3223,-0.268,0.0542
16:54:04:958,-3.4026,1.8831,10.3657,67.7152,-0.0452,-0.282,-0.2045,0.0542
16:54:04:979,-3.1346,2.3689,10.3896,69.3081,0.0953,-0.0475,-0.0102,0.0553
16:54:04:998,-2.5364,2.6512,10.5164,68.3133,0.1503,0.1187,0.1242,0.0568
16:54:05:018,-2.0291,2.7159,11.0309,70.2094,0.0525,0.0661,0.09,0.0575
16:54:05:039,-1.8831,2.9599,11.9163,70.9639,-0.1429,-0.2075,-0.1067,0.0568
16:54:05:060,-1.5386,2.7039,12.3159,70.703,-0.2749,-0.4176,-0.2753,0.0551
16:54:05:081,-1.3328,2.5196,12.2752,70.196,-0.2651,-0.3272,-0.3584,0.0533
16:54:05:099,-0.9093,1.6989,11.9833,71.7213,-0.2956,-0.1831,-0.4598,0.0505
16:54:05:121,-1.2538,0.9858,12.3326,71.6084,-0.4337,-0.0768,-0.6027,0.046
16:54:05:139,-1.7659,0.6078,12.6915,71.4763,-0.5241,0.0173,-0.6235,0.0403
16:54:05:160,-1.3185,-0.0694,12.2752,71.7428,-0.358,0.1981,-0.4036,0.0359
16:54:05:179,-0.0718,-0.9523,11.2487,70.842,-0.0415,0.3166,-0.1727,0.0342
16:54:05:199,0.5504,-1.4213,10.593,70.842,0.121,0.2238,-0.1446,0.0342
16:54:05:221,0.3446,-1.2251,10.5404,70.9923,0.0538,0.038,-0.2643,0.0339
16:54:05:238,-0.2201,-0.9834,10.3322,71.6349,-0,-0.0316,-0.3474,0.0332
16:54:05:258,-0.7849,-0.5192,9.5737,71.7906,0.1197,0.0576,-0.3058,0.0335
16:54:05:279,-0.8853,0.1938,8.3677,71.6421,0.3347,0.1517,-0.1409,0.0361
16:54:05:300,-0.6365,0.9284,7.2239,72.3067,0.5119,0.1859,0.0155,0.0459
16:54:05:320,-0.5192,2.0052,6.0395,72.7806,0.4972,-0.0487,-0.0725,0.0508
16:54:05:346,-1.0744,2.254,5.872,72.0463,0.3995,-0.2588,-0.2484,0.055
16:54:05:363,-1.7348,2.5986,5.5442,71.8676,0.3543,-0.3309,-0.3364,0.059
16:54:05:375,-1.8616,2.8379,5.1302,72.501,0.2993,-0.2405,-0.3046,0.0625
16:54:05:395,-1.8951,2.9767,5.4341,71.2066,0.1246,-0.1293,-0.2594,0.0641
16:54:05:416,-1.8425,2.7924,6.4319,72.8808,-0.171,-0.1623,-0.3034,0.0629
16:54:05:437,-1.9956,2.4909,7.681,72.9572,-0.43,-0.271,-0.3901,0.0593
16:54:05:457,-2.5149,2.3234,9.0449,73.5837,-0.5339,-0.3272,-0.4574,0.0547
16:54:05:478,-2.6824,2.0889,10.0307,73.581,-0.4826,-0.3798,-0.4512,0.0506
16:54:05:503,-2.3426,1.8425,10.8562,75.2366,-0.2956,-0.3908,-0.3572,0.0482
16:54:05:520,-2.2086,1.8592,11.2893,74.4985,-0.0501,-0.2747,-0.2399,0.0481
16:54:05:538,-2.4359,2.0291,11.4425,73.2048,0.1698,-0.0743,-0.1397,0.0498
16:54:05:558,-2.4215,2.1918,11.3276,74.4682,0.3189,0.0674,-0.0493,0.0528
16:54:05:581,-2.3809,2.3163,11.2917,73.3814,0.3958,0.1602,0.0252,0.0565
16:54:05:600,-2.2827,2.3593,11.0142,74.1298,0.4154,0.2885,0.0851,0.0603
16:54:05:623,-2.3545,2.5723,10.6241,75.0825,0.4093,0.5011,0.1559,0.0638
16:54:05:640,-2.6608,3.0413,10.4542,74.524,0.3384,0.7308,0.2341,0.0665
16:54:05:658,-2.6417,3.2184,10.4447,74.937,0.2089,0.8884,0.3319,0.0678
16:54:05:677,-2.2038,2.8379,10.9496,76.404,0.0305,0.8041,0.3221,0.0675
16:54:05:698,-1.6487,1.9167,11.8612,75.8404,-0.1955,0.3251,0.0875,0.0653
16:54:05:719,-1.7659,1.3807,12.7274,74.8064,-0.3702,-0.2271,-0.2472,0.0617
16:54:05:740,-2.5484,1.1629,12.4283,74.7383,-0.3286,-0.2967,-0.4879,0.0584
16:54:05:759,-3.3667,0.8231,11.2463,76.8203,-0.0904,0.181,-0.5245,0.0565
16:54:05:780,-4.6828,-0.1316,9.7795,77.0963,-0.116,0.6782,-0.4292,0.0522
16:54:05:801,-5.2331,-0.6174,10.2437,76.8203,-0.3738,0.3997,-0.3303,0.0474
16:54:05:823,-5.1637,-0.9141,10.2843,75.6325,-0.4496,-0.0389,-0.0444,0.0426
16:54:05:837,-4.3693,-0.8255,9.9541,76.0508,-0.2419,-0.282,0.4259,0.0408
16:54:05:857,-2.5795,-0.5862,9.0162,78.0692,0.0305,-0.4482,0.9354,0.0424
16:54:05:878,-0.603,-0.0646,8.2074,75.9749,0.2236,-0.5899,1.2909,0.0466
16:54:05:901,0.8136,0.5336,7.5709,78.1787,0.2957,-0.7023,1.3545,0.052
16:54:05:919,0.9715,1.1701,7.0373,78.4259,0.3054,-0.6485,1.148,0.0572
16:54:05:938,0.5049,1.5218,6.3482,76.8248,0.3005,-0.4128,0.8731,0.0618
16:54:05:959,0.2297,1.5912,5.9821,76.0704,0.2675,-0.1049,0.7118,0.0654
16:54:05:977,0.1507,1.7061,5.7619,77.558,0.1771,0.0637,0.5603,0.0677
16:54:05:997,-0.5982,1.6798,6.3051,79.2313,0.0232,0.1297,0.3001,0.0681
16:54:06:018,-1.6558,1.5936,6.987,76.329,-0.1515,0.0784,0.0008,0.0667
16:54:06:040,-2.6752,1.6487,7.5972,78.5324,-0.1942,0.0087,-0.1482,0.0648
16:54:06:058,-3.1418,1.6271,7.8221,79.4679,-0.1393,-0.0694,-0.1654,0.0635
16:54:06:078,-3.3547,1.7515,8.3246,76.7157,-0.1185,-0.0865,-0.0994,0.0626
16:54:06:100,-3.2662,1.9119,9.1047,79.374,-0.1674,-0.0597,0.0301,0.0613
16:54:06:122,-3.1848,2.278,10.1982,81.312,-0.2223,-0.0096,0.1669,0.0595
16:54:06:139,-2.7494,2.7135,11.1171,81.4269,-0.182,0.0515,0.2989,0.0583
16:54:06:158,-2.3737,3.3595,11.4305,79.8171,-0.0159,0.1761,0.3844,0.0586
16:54:06:178,-1.8927,3.5246,11.1697,78.1323,0.1784,0.2958,0.3979,0.0606
16:54:06:200,-1.3519,3.6562,11.074,79.569,0.2138,0.2128,0.2842,0.0629
16:54:06:333,-0.7681,3.3141,11.5789,79.951,0.0208,-0.0511,0.035,0.0637
16:54:06:335,-0.6604,2.3354,12.6245,80.4706,-0.3274,-0.4237,-0.4696,0.0595
16:54:06:336,-0.1364,1.4213,12.4546,79.9184,-0.2846,-0.3712,-0.5783,0.057
16:54:06:337,-0.2632,0.3254,12.5456,82.9123,-0.3188,-0.2698,-0.7652,0.0535
16:54:06:338,-1.1916,-0.2895,12.8112,78.6829,-0.3262,-0.1489,-0.8727,0.0496
16:54:06:339,-1.6726,-0.7537,12.4379,78.7507,-0.0953,-0.0401,-0.7127,0.0476
16:54:06:339,-0.8853,-1.3113,10.8515,80.5301,0.3409,0.0319,-0.3559,0.0498
16:54:06:356,0.2417,-1.2419,9.2243,81.6833,0.617,0.1223,-0.0639,0.0547
16:54:06:376,0.4953,-0.7633,8.4562,78.8322,0.4178,0.1859,-0.0273,0.0578
16:54:06:399,-0.2417,-0.2991,8.5328,81.8785,-0.0208,0.2665,-0.1434,0.0567
16:54:06:418,-1.0002,0.1196,8.6285,80.703,-0.2896,0.3117,-0.1983,0.0531
16:54:06:439,-1.1055,0.6413,8.126,81.1428,-0.2382,0.2946,-0.1104,0.0502
16:54:06:457,-0.9021,1.1725,7.2191,80.8252,-0.0244,0.2054,0.0032,0.0497
16:54:06:481,-0.8495,1.6247,6.6281,81.49,0.1454,0.049,0.0484,0.0512
16:54:06:498,-0.9093,1.9214,6.2166,80.6022,0.1845,-0.1611,0.0216,0.0535
16:54:06:520,-0.9906,2.211,6.0419,80.703,0.1283,-0.3175,-0.0285,0.0556
16:54:06:537,-0.9595,2.4479,6.1591,80.4146,0.0061,-0.3566,-0.0701,0.0566
16:54:06:558,-1.2227,2.7206,6.4439,81.2954,-0.1185,-0.293,-0.1165,0.0563
16:54:06:578,-1.34,2.7996,6.8387,81.8785,-0.2162,-0.2063,-0.1788,0.0549
16:54:06:597,-1.4285,2.6608,7.6618,80.9339,-0.3237,-0.2038,-0.2448,0.0524
16:54:06:619,-1.9047,2.3378,8.6022,81.3929,-0.4081,-0.3248,-0.3474,0.0491
16:54:06:639,-2.4072,2.1416,9.1669,80.242,-0.3873,-0.491,-0.4121,0.0461
16:54:06:659,-2.6441,2.0435,9.7029,80.7126,-0.2932,-0.519,-0.3523,0.0441
16:54:06:677,-2.5723,1.9214,10.215,80.8997,-0.1735,-0.3602,-0.1592,0.043
16:54:06:702,-2.0506,2.0172,10.8921,83.753,0.1576,0.0002,0.2207,0.0451
16:54:06:718,-1.6582,1.9119,10.8179,82.2746,0.2969,0.0539,0.2256,0.0481
16:54:06:741,-1.5529,1.8879,10.9065,80.9069,0.3213,0.1113,0.1144,0.0512
16:54:06:759,-1.8042,1.7109,11.2845,81.7912,0.2321,0.2128,-0.02,0.0531
16:54:06:776,-2.589,2.0076,11.8804,81.8785,0.1442,0.3349,-0.0652,0.054
16:54:06:799,-2.9886,2.8235,11.945,81.7837,0.1735,0.4241,0.1217,0.0554
16:54:06:819,-2.3976,3.3069,11.3181,82.6967,0.3482,0.5353,0.4406,0.0587
16:54:06:838,-1.2706,2.9503,10.8945,83.675,0.4117,0.6159,0.5628,0.0624
16:54:06:857,-0.7872,2.0889,11.1673,83.675,0.182,0.5243,0.3148,0.0637
16:54:06:877,-1.8138,1.4189,11.9258,83.7761,-0.16,0.2934,-0.1849,0.0614
