Time,Acc_X,Acc_Y,Acc_Z,Meg,Gyr_X,Gyr_Y,Gyr_Z,Ore
13:58:09:519,0.4546,2.5819,10.3968,64.9752,-0.1406,-0.3027,-0.061,198.483
13:58:09:533,-2.5651,2.8475,9.5354,63.7338,-0.3373,-0.9294,-0.546,97.7019
13:58:09:550,-2.5651,2.8475,9.5354,64.5191,-0.3373,-0.9294,-0.546,98.1541
13:58:09:573,-2.601,2.4598,9.2818,63.8269,-0.3373,-0.9294,-0.546,99.2939
13:58:09:590,-2.924,2.2899,9.4493,62.2318,-0.3898,-0.1842,-0.0427,99.6602
13:58:09:609,-3.1035,2.3163,9.2148,64.6406,-0.3007,-0.2111,0.0514,99.5918
13:58:09:628,-3.0987,2.4239,8.9109,63.7338,-0.1516,-0.1414,0.2005,99.0946
13:58:09:648,-3.0413,2.5388,8.5759,64.3274,-0.0441,-0.062,0.3251,98.3631
13:58:09:668,-2.8331,2.7589,8.4586,64.9357,-0.0233,-0.0596,0.4033,97.4442
13:58:09:688,-2.5029,2.9336,8.6859,63.6605,-0.0893,-0.1133,0.4436,96.5656
13:58:09:715,-2.3354,3.0437,9.2435,62.4153,-0.1858,-0.1805,0.4387,95.8021
13:58:09:728,-2.1392,2.9767,9.6861,63.2783,-0.2432,-0.2282,0.3849,95.3089
13:58:09:748,-2.1918,2.8738,9.9278,63.0938,-0.231,-0.2098,0.3031,95.0159
13:58:09:768,-2.3617,2.747,10.1001,64.2824,-0.1797,-0.1646,0.2237,94.8493
13:58:09:798,-2.5531,2.6752,10.1073,63.881,-0.1076,-0.1451,0.1833,94.7521
13:58:09:818,-2.7159,2.7541,9.9326,64.9719,-0.0136,-0.1158,0.1931,94.5501
13:58:09:829,-2.7278,2.9767,9.6909,64.9263,0.0915,-0.0425,0.2542,94.1679
13:58:09:848,-2.1559,3.0628,9.4995,65.57,0.1685,0.004,0.3458,93.6422
13:58:09:868,-1.5266,3.1226,9.679,64.5868,0.1892,-0.0327,0.3984,93.1195
13:58:09:900,-1.2132,3.1466,9.8345,63.881,0.166,-0.0816,0.3434,92.7062
13:58:09:923,-1.084,3.0341,9.8871,63.9787,0.1501,-0.0791,0.2224,92.4988
13:58:09:930,-1.0026,3.0341,9.746,63.9855,0.1477,-0.0302,0.1271,92.3453
13:58:09:952,-0.4929,3.0341,9.7699,64.9596,0.1269,-0.029,0.0978,92.2475
13:58:09:969,0.0359,2.8714,9.8871,63.881,0.0719,-0.106,0.0758,92.304
13:58:09:989,0.1125,2.8499,9.9374,61.8736,0.0402,-0.1671,0.016,92.4287
13:58:10:022,-0.0287,2.8618,9.9254,62.9705,0.0451,-0.1903,-0.0463,92.628
13:58:10:030,-0.0861,2.8068,10.0499,63.3141,0.0439,-0.2392,-0.0879,92.9121
13:58:10:053,0.0239,2.8068,10.057,62.1142,0.0439,-0.288,-0.1025,93.2217
13:58:10:069,0.1531,2.869,9.5761,64.0103,0.1782,-0.1377,-0.0757,93.5179
13:58:10:091,0.0144,3.0269,9.0329,64.7874,0.2943,-0.0864,-0.0744,93.7679
13:58:10:119,-0.2369,3.1346,8.3366,63.6799,0.4165,-0.0754,-0.0866,93.8251
13:58:10:129,-0.3637,3.1154,7.815,62.7673,0.5057,-0.0938,-0.1147,93.8905
13:58:10:150,-0.5097,3.1322,7.4919,61.7162,0.4849,-0.1463,-0.1538,93.9942
13:58:10:170,-0.682,3.1633,7.5182,61.4561,0.3407,-0.1793,-0.1795,94.1513
13:58:10:200,-0.7561,3.2088,7.9705,62.1142,0.1208,-0.1915,-0.1648,94.3423
13:58:10:213,-0.6054,3.2734,8.6764,62.6946,-0.0918,-0.2392,-0.1306,94.5341
13:58:10:238,-0.536,3.2184,9.2865,62.8464,-0.2176,-0.2697,-0.1221,94.781
13:58:10:249,-0.5862,3.2136,9.5641,64.3426,-0.2286,-0.2978,-0.1453,95.0534
13:58:10:269,-0.8734,3.3404,9.6215,63.7311,-0.1614,-0.3051,-0.1563,95.3275
13:58:10:306,-1.0935,3.618,9.3272,62.7608,-0.0685,-0.2575,-0.1086,95.4829
13:58:10:308,-0.9667,3.728,8.9563,63.4181,0.0341,-0.139,-0.0011,95.4418
13:58:10:338,-0.7059,3.8716,8.5854,60.9684,0.122,-0.0217,0.0954,95.2123
13:58:10:349,-0.5001,4.0869,8.1691,64.4885,0.1709,0.0223,0.1271,94.9047
13:58:10:369,-0.5743,4.2784,8.059,62.8474,0.1807,-0.0022,0.1186,94.6031
13:58:10:391,-0.5886,4.2856,8.0949,63.2168,0.1562,-0.0864,0.099,94.3635
13:58:10:412,-0.8901,4.197,8.3533,62.745,0.1184,-0.1976,0.0783,94.2212
13:58:10:430,-0.95,3.9745,8.6812,63.2632,0.0829,-0.2734,0.0844,94.1402
13:58:10:448,-0.859,3.862,8.9779,63.2314,0.0976,-0.222,0.0807,94.0776
13:58:10:470,-0.9571,3.7113,9.0449,62.8947,0.1514,-0.1048,0.06,94.0337
13:58:10:491,-1.0863,3.4887,9.1143,63.0379,0.177,0.0052,0.0416,93.986
13:58:10:513,-2.0339,3.6395,9.1478,63.1237,0.1196,0.0711,0.0355,93.8745
13:58:10:533,-2.6369,4.0702,8.8271,62.1162,0.0988,0.2886,0.1394,93.5178
13:58:10:548,-2.4263,4.0199,8.6596,61.2072,0.039,0.5965,0.3458,92.856
13:58:10:568,-1.8855,3.8189,8.7386,62.9549,-0.1174,0.7749,0.4937,92.0013
13:58:10:589,-1.73,3.5581,9.3942,63.1265,-0.3617,0.6796,0.435,91.3264
13:58:10:607,-1.8185,3.1107,10.1504,62.3007,-0.5328,0.4291,0.2652,90.9911
13:58:10:627,-2.0387,2.6824,10.6648,63.6799,-0.5597,0.2752,0.154,90.8839
13:58:10:647,-2.2827,2.5244,10.4471,62.9753,-0.4216,0.3167,0.2408,90.6584
13:58:10:670,-2.12,2.7374,9.8441,63.956,-0.1907,0.5232,0.4753,90.066
13:58:10:689,-1.4907,2.8857,9.4086,64.2083,0.0096,0.6857,0.6757,89.1918
13:58:10:709,-1.0409,2.8594,8.985,61.8736,0.1074,0.6258,0.672,88.3087
13:58:10:728,-1.1103,2.7135,8.7027,62.4285,0.1257,0.4462,0.4998,87.6816
13:58:10:749,-1.6654,2.4574,8.461,62.7919,0.0732,0.2984,0.3067,87.3341
13:58:10:769,-2.1248,2.3234,8.3031,63.661,-0.0319,0.2312,0.2322,87.0902
13:58:10:790,-2.4909,2.4694,8.3486,62.7919,-0.1528,0.2336,0.286,86.7953
13:58:10:809,-2.589,2.7781,8.2313,61.8736,-0.2298,0.2727,0.4106,86.3013
13:58:10:828,-2.412,2.9767,8.1117,62.3854,-0.2323,0.3326,0.5389,85.6402
13:58:10:848,-2.2684,3.1083,8.3533,63.0248,-0.2066,0.368,0.5816,84.9051
13:58:10:868,-2.3378,3.07,8.7577,61.9159,-0.1846,0.2984,0.534,84.2698
13:58:10:894,-2.3545,2.7613,8.9516,61.681,-0.1272,0.197,0.4643,83.7699
13:58:10:913,-2.2923,2.4981,8.8798,63.7198,-0.027,0.1738,0.4228,83.3241
13:58:10:932,-2.2277,2.3641,8.8822,61.4178,0.0451,0.1713,0.3959,82.9464
13:58:10:949,-2.1918,2.3091,8.9348,63.0579,0.0377,0.1359,0.3764,82.6051
13:58:10:973,-1.6391,1.9286,10.1599,61.4354,-0.1455,0.1335,0.3727,82.0006
13:58:10:994,-1.194,1.7587,10.9902,62.9932,-0.2261,0.076,0.3263,81.8274
13:58:11:010,-0.8949,2.0435,11.4568,62.4924,-0.231,0.0516,0.2518,81.7433
13:58:11:028,-0.8159,2.5005,11.2845,62.443,-0.1699,0.1322,0.1968,81.6318
13:58:11:052,-0.7849,2.7135,10.4686,63.6387,-0.093,0.2911,0.1589,81.4268
13:58:11:068,-0.6245,2.6225,9.868,62.3195,-0.0881,0.3815,0.1064,81.2487
13:58:11:090,-0.3637,2.3043,9.8417,61.7601,-0.2029,0.2483,-0.0219,81.2854
13:58:11:111,-0.6963,2.144,10.1288,62.2117,-0.3508,0.0015,-0.2039,81.5925
13:58:11:130,-1.1797,2.4263,10.3035,61.3416,-0.4143,-0.139,-0.2467,81.9788
13:58:11:149,-1.0911,2.8092,9.8871,60.3077,-0.3153,-0.117,-0.0512,82.0884
13:58:11:168,-0.6006,3.1992,8.8989,60.2385,-0.1125,0.0052,0.2237,81.8149
13:58:11:190,-0.055,3.4792,8.0112,61.7601,0.0182,0.1212,0.4228,81.2436
13:58:11:209,0.2273,3.5773,7.9155,61.0713,0.0047,0.0883,0.4924,80.5946
13:58:11:229,0.5145,3.6897,7.9705,61.2659,-0.0588,-0.1243,0.4362,80.0679
13:58:11:248,0.7394,3.7304,7.9705,60.8154,-0.0771,-0.2734,0.308,79.7188
13:58:11:267,0.8853,3.7759,8.1069,61.0175,-0.1015,-0.3125,0.1723,79.5203
13:58:11:288,1.0026,3.7137,8.5472,62.8439,-0.1931,-0.3589,0.0379,79.5042
13:58:11:312,0.9595,3.6012,9.2028,63.42,-0.2946,-0.3736,-0.1062,79.6657
13:58:11:329,0.7513,3.4169,9.8369,61.3524,-0.3349,-0.3357,-0.2479,79.9907
13:58:11:350,0.347,3.2207,10.0259,60.8826,-0.2493,-0.288,-0.3554,80.4369
13:58:11:372,0.0718,3.2016,9.5593,58.1786,-0.0527,-0.2355,-0.3847,80.8856
13:58:11:389,0.201,3.3906,8.8487,60.3443,0.1342,-0.1854,-0.3371,81.2581
13:58:11:409,0.4355,3.6108,8.3198,60.9135,0.2015,-0.1634,-0.2919,81.5476
13:58:11:429,0.1364,3.8764,8.0064,58.3825,0.0952,-0.095,-0.3163,81.8033
13:58:11:448,-0.0933,3.8189,8.2983,60.0019,0.0316,-0.128,-0.3689,82.3908
13:58:11:468,-0.5121,3.7878,8.5017,60.392,0.0133,-0.1817,-0.4409,82.8399
13:58:11:488,-1.0816,3.8955,8.5041,60.392,0.0487,-0.1512,-0.4776,83.3401
13:58:11:660,-1.4644,3.9386,8.4658,60.7434,0.0756,-0.0571,-0.4568,83.7863
13:58:11:661,-1.7731,3.8189,8.7147,58.5755,0.039,-0.0022,-0.4324,84.214
13:58:11:661,-1.8808,3.4863,9.1214,59.8816,-0.0429,-0.0376,-0.4336,84.6925
13:58:11:661,-2.2421,3.1992,9.6072,61.6754,-0.1028,-0.0767,-0.4434,85.2035
13:58:11:662,-2.9408,3.1681,9.8082,59.0763,-0.1113,-0.0608,-0.4189,85.7575
13:58:11:662,-3.5916,3.5366,9.4493,59.3326,-0.0807,0.0785,-0.309,86.0906
13:58:11:662,-3.6969,3.7376,8.8487,58.8336,-0.0734,0.3668,-0.1037,86.1234
13:58:11:662,-3.7041,3.6634,8.9204,61.0481,-0.2078,0.5904,0.077,85.8333
13:58:11:671,-3.3643,2.9073,10.1408,57.8223,-0.4705,0.5806,0.1418,85.5511
13:58:11:690,-3.4768,1.8209,11.9761,59.0763,-0.6782,0.3595,0.0795,85.4922
13:58:11:710,-4.3956,1.4381,13.1868,58.978,-0.6244,0.131,0.0269,85.6141
13:58:11:728,-4.6158,1.4572,12.5719,59.8737,-0.2616,0.1225,0.2273,85.4981
13:58:11:748,-3.9147,1.5793,10.4925,57.8697,0.2332,0.4377,0.6146,84.842
13:58:11:769,-2.8259,1.6056,8.9396,59.1518,0.4849,0.6356,0.8907,83.8194
13:58:11:791,-2.1296,1.6032,8.6883,59.1518,0.3701,0.4706,0.9017,82.8187
13:58:11:809,-2.345,1.6965,8.9707,58.3769,0.1416,0.1982,0.6989,82.1152
13:58:11:829,-2.6225,1.3519,8.9539,58.0341,0.0597,0.1286,0.5242,81.6697
13:58:11:848,-2.802,1.3759,8.4347,56.4824,0.1135,0.23,0.5401,81.1322
13:58:11:868,-2.4766,1.5984,7.6929,60.9867,0.177,0.2959,0.6842,80.4174
13:58:11:892,-1.3759,2.4191,7.1163,58.9781,0.0463,0.2068,0.8846,78.4879
13:58:11:908,-1.1533,2.6441,7.5613,58.6677,-0.0759,0.1102,0.8284,77.6054
13:58:11:929,-1.2825,2.7063,7.8963,57.7562,-0.1052,0.0394,0.7197,76.8713
13:58:11:947,-1.4142,2.723,7.9633,57.6527,-0.0295,-0.0205,0.6219,76.2575
13:58:11:967,-1.2706,2.6178,7.8748,57.9518,0.0573,-0.0412,0.5609,75.7343
13:58:11:988,-1.2347,2.5866,8.0973,56.439,0.0548,-0.0681,0.4863,75.3148
13:58:12:010,-1.084,2.3665,8.7864,55.7186,-0.0062,-0.161,0.3874,75.0476
13:58:12:029,-1.127,2.1655,9.4301,57.8223,-0.0221,-0.2563,0.2689,74.9672
13:58:12:050,-1.1414,2.0818,9.6168,57.8223,0.0329,-0.2428,0.1785,74.9883
13:58:12:068,-0.8255,1.9956,9.6718,56.6746,0.0768,-0.15,0.154,75.0054
13:58:12:087,-0.2728,1.8688,9.9159,57.0041,0.0255,-0.1487,0.1296,75.054
13:58:12:107,0.2297,1.6582,10.6074,56.1779,-0.0905,-0.2294,0.049,75.23
13:58:12:129,0.536,1.4285,11.4521,56.6746,-0.1992,-0.3308,-0.0634,75.5661
13:58:12:149,0.1723,1.6152,11.4544,57.167,-0.2408,-0.3491,-0.1636,76.0109
13:58:12:168,0.4259,1.596,10.5763,57.9054,-0.2066,-0.1353,-0.1465,76.3476
13:58:12:187,0.7705,1.4883,10.5428,55.437,-0.2469,-0.0107,-0.116,76.6153
13:58:12:208,0.6078,1.6032,11.2319,56.5015,-0.4277,-0.244,-0.2137,77.0451
13:58:12:228,0.189,1.7468,11.8564,57.9996,-0.5413,-0.3943,-0.2785,77.5918
13:58:12:248,0.1795,2.0148,11.8469,56.9131,-0.4729,-0.266,-0.1758,77.9811
13:58:12:268,0.6508,2.0459,11.141,56.7812,-0.2897,-0.095,0.0099,78.0903
13:58:12:288,1.1414,2.1081,10.1192,56.2647,-0.0844,-0.051,0.1198,78.0578
13:58:12:312,1.34,2.3474,9.21,55.6633,0.0231,-0.1145,0.1308,78.011
13:58:12:327,1.6319,2.6297,8.8128,56.9151,-0.0233,-0.1561,0.0954,78.0797
13:58:12:347,1.5721,2.7972,9.5043,56.5754,-0.2457,-0.2025,-0.16,78.2537
13:58:12:366,1.3495,2.7278,9.6526,54.4057,-0.2078,-0.2257,-0.3286,78.7097
13:58:12:389,0.8495,2.5603,9.2913,56.7449,-0.0405,-0.1329,-0.48,79.3133
13:58:12:409,0.1627,2.5292,9.009,55.1366,0.1404,-0.0156,-0.6059,80.043
13:58:12:429,-0.3206,2.4048,8.7266,54.0473,0.2564,-0.0144,-0.6853,80.8487
13:58:12:452,-0.7059,2.388,8.3677,54.6025,0.3407,-0.0327,-0.7134,81.6982
13:58:12:467,-0.9667,2.4861,7.8867,55.7724,0.3859,-0.007,-0.6853,82.4968
13:58:12:488,-0.9667,2.5627,7.882,55.2145,0.3505,0.0309,-0.5973,83.2074
13:58:12:511,-1.34,2.7757,8.2816,55.6597,0.2809,0.0553,-0.4837,83.7745
13:58:12:528,-1.5027,3.1537,8.5232,55.3501,0.2699,0.0284,-0.3493,84.1999
13:58:12:547,-1.273,3.4169,8.4132,56.2285,0.3468,-0.0302,-0.2039,84.4791
13:58:12:568,-1.3352,3.8405,8.3557,54.9758,0.4202,-0.0351,-0.1013,84.6281
13:58:12:592,-1.474,3.9529,8.485,54.0698,0.3884,0.0663,-0.0072,84.6576
13:58:12:607,-1.651,3.7424,9.2028,54.8554,0.2858,0.324,0.1345,84.4964
13:58:12:627,-1.663,3.4409,9.947,53.4971,0.2198,0.511,0.2408,84.2024
13:58:12:647,-1.7611,3.0652,10.3729,54.2822,0.2821,0.6075,0.2505,83.8924
13:58:12:667,-2.5196,3.0245,10.6863,54.8112,0.4152,0.7602,0.2408,83.529
13:58:12:690,-3.3715,3.5294,10.7222,55.3945,0.5667,0.9997,0.3092,82.9683
13:58:12:708,-4.0845,3.7256,9.7053,55.0313,0.7085,1.1939,0.369,82.2736
13:58:12:726,-4.2329,4.1587,8.5089,55.4547,0.7488,1.415,0.4045,81.3948
13:58:12:746,-3.5127,3.7807,8.3151,54.7741,0.6156,1.5678,0.5254,80.3419
13:58:12:766,-3.3763,3.3308,9.332,53.9193,0.3187,1.1695,0.5547,79.4144
13:58:12:786,-4.2281,2.9623,10.4638,57.0726,0.0854,0.4767,0.4888,78.8885
13:58:12:806,-4.3765,2.9671,8.6309,55.3463,0.4165,0.4413,0.7881,77.4943
13:58:12:828,-3.9553,2.9527,7.267,56.8464,0.5118,0.9117,1.0447,76.1513
13:58:12:847,-3.7328,2.9169,6.9918,55.1761,0.232,1.1585,1.2084,74.5303
13:58:12:867,-3.2423,2.4694,7.6451,54.575,-0.1907,1.2929,1.333,72.7308
13:58:12:886,-3.4959,1.9047,8.875,53.9594,-0.5401,1.1634,1.2523,71.1295
13:58:12:907,-3.941,1.9836,9.7531,55.1476,-0.6562,0.6869,1.0837,69.9373
13:58:12:926,-4.1779,2.0387,8.8798,53.9442,-0.4033,0.0895,1.0153,69.0914
13:58:12:945,-2.7063,2.5196,7.803,54.435,-0.2066,0.0431,1.1546,68.0564
13:58:12:966,-1.5912,2.9503,7.2,56.1284,-0.2139,0.1799,1.201,66.883
13:58:12:987,-1.7444,3.2782,7.1761,55.3231,-0.3288,0.2361,0.953,65.9245
13:58:13:005,-2.2421,3.4959,7.0708,54.8527,-0.3324,0.0724,0.6256,65.3755
13:58:13:047,-2.5627,3.4241,7.1019,56.1775,-0.2811,-0.3137,0.3605,65.294
13:58:13:047,-2.6369,3.0915,7.2024,55.2838,-0.2481,-0.701,0.209,65.5708
13:58:13:073,-2.924,3.2064,7.4943,54.5366,-0.2151,-0.7498,0.1504,65.9418
13:58:13:093,-3.1202,3.3021,7.8197,53.4262,-0.2127,-0.5226,0.1674,66.1781
13:58:13:111,-3.0341,3.1154,8.5089,54.7904,-0.2897,-0.3149,0.2029,66.2886
13:58:13:130,-3.4241,3.0532,8.93,54.6012,-0.4033,-0.3968,0.2615,66.3971
13:58:13:146,-2.8786,3.1753,9.2913,52.2632,-0.4912,-0.536,0.3507,66.45
13:58:13:166,-2.0985,2.6728,10.1384,52.6242,-0.5242,-0.4579,0.4093,66.425
13:58:13:186,-1.8449,2.7948,10.7414,52.2502,-0.5621,-0.5202,0.4521,66.3614
13:58:13:213,-1.4429,2.9695,11.05,51.239,-0.5853,-0.6375,0.4753,66.3293
13:58:13:226,-0.9787,3.1083,10.8586,53.5316,-0.512,-0.6545,0.4875,66.2384
13:58:13:246,-0.5551,3.941,9.4516,54.1528,-0.2274,-0.2013,0.501,66.0699
13:58:13:265,-0.3589,3.8692,9.1932,53.0884,-0.2054,-0.0278,0.4888,65.2242
13:58:13:287,-0.5192,3.6586,9.5952,53.5779,-0.3019,-0.2367,0.3544,65.0954
13:58:13:316,-0.8423,3.07,10.6433,53.6523,-0.457,-0.734,0.1577,65.3704
13:58:13:326,-0.8016,2.4335,12.3087,52.6318,-0.5523,-1.1066,0.0343,65.9059
13:58:13:346,-0.3709,2.0985,12.7059,52.0377,-0.3923,-1.0907,0.0685,66.4196
13:58:13:366,0.347,1.8664,11.5119,53.0802,0.0267,-0.6399,0.2151,66.5933
13:58:13:386,0.5551,1.7252,10.081,53.6675,0.4434,0.0455,0.3776,66.374
13:58:13:413,0.4331,2.065,8.9659,51.3498,0.6058,0.445,0.4875,65.9048
13:58:13:427,0.6341,2.2205,8.1212,52.8055,0.5093,0.4731,0.5279,65.3546
13:58:13:445,0.5168,2.2445,8.0447,53.2704,0.2919,0.4047,0.479,64.8722
13:58:13:465,0.2273,2.2684,7.9274,52.708,0.0854,0.3717,0.3923,64.5072
13:58:13:486,-0.0646,2.1607,7.882,52.2617,-0.0307,0.3961,0.3532,64.1838
13:58:13:516,-0.3015,2.0698,7.9825,52.0867,-0.1101,0.3766,0.3568,63.8767
13:58:13:527,-0.3805,2.144,8.3318,52.9937,-0.2164,0.2312,0.3837,63.5778
13:58:13:546,-0.0622,2.3474,8.3964,52.2855,-0.308,0.087,0.4289,63.274
13:58:13:566,0.0574,2.4407,8.2552,54.2943,-0.3214,0.1664,0.4619,62.9099
13:58:13:587,-0.0742,2.6345,7.7336,52.1052,-0.2603,0.3558,0.4729,62.47
13:58:13:606,-0.3135,2.7709,7.1306,53.9326,-0.1687,0.4877,0.4827,61.9493
13:58:13:634,-0.5336,2.8857,6.5515,53.2086,-0.0966,0.4963,0.501,61.4072
13:58:13:646,-0.8016,2.9839,6.0969,52.2271,-0.0771,0.4034,0.5303,60.8527
13:58:13:678,-1.0193,2.9551,5.9222,55.5787,-0.1186,0.3045,0.5816,60.2998
13:58:13:770,-1.1892,3.0724,6.3362,53.8362,-0.2225,0.2116,0.6684,58.9546
13:58:13:771,-1.2132,3.6108,7.3699,54.3851,-0.4986,0.0773,0.9371,57.9112
13:58:13:772,-1.0672,3.8022,8.1787,53.8975,-0.6024,0.1701,1.041,56.893
13:58:13:772,-1.2443,4.1085,9.2889,53.0835,-0.7283,0.1786,1.0532,55.8951
13:58:13:772,-1.0074,4.1037,10.5571,51.5576,-0.8248,0.0614,0.9933,54.9701
13:58:13:786,-0.3326,3.8094,12.0957,52.4626,-0.8199,-0.0852,0.8871,54.2044
13:58:13:805,0.0766,3.5462,13.9238,51.4854,-0.705,-0.2575,0.7282,53.6516
13:58:13:827,0.2034,3.1274,15.0844,52.5959,-0.4961,-0.4603,0.5389,53.3786
13:58:13:846,0.2608,2.5508,15.1585,52.9169,-0.1394,-0.4542,0.3923,53.2573
13:58:13:867,-0.5312,2.4837,13.7492,54.089,0.3383,-0.0388,0.3177,53.1336
13:58:13:906,-1.7731,2.9791,11.7416,52.6181,0.6816,0.6038,0.3776,52.7926
13:58:13:908,-1.6415,2.8905,10.7868,52.8511,0.6523,1.0314,0.5926,52.0914
13:58:13:930,-0.938,2.2349,11.5454,54.4206,0.3126,0.8237,0.6989,51.3369
13:58:13:948,-1.0504,1.7946,12.4594,53.5338,-0.0014,0.2373,0.5389,50.921
13:58:13:967,-2.4479,1.7037,11.8038,51.753,0.0719,0.0834,0.2762,50.8741
13:58:13:993,-3.74,1.5601,10.0666,49.7439,0.4861,0.5843,0.2628,50.7003
13:58:14:007,-4.008,1.3256,8.1667,51.9877,0.8661,1.1609,0.5535,50.0402
13:58:14:026,-3.8596,1.1557,7.1067,51.724,0.9088,1.2538,0.9054,48.9543
13:58:14:046,-3.3811,1.1366,7.2407,53.0193,0.5912,0.7626,1.1387,47.7737
13:58:14:066,-2.6871,1.2012,8.0662,51.3377,0.1306,0.0626,1.2303,46.7221
13:58:14:086,-1.9789,0.9643,9.2219,51.627,-0.2188,-0.299,1.1998,45.8462
13:58:14:107,-1.9047,0.6508,10.124,51.8714,-0.3447,-0.2514,1.1021,45.0676
13:58:14:126,-2.1272,0.4929,10.4423,51.0442,-0.2591,-0.0583,1.0422,44.2915
13:58:14:146,-2.1703,0.4834,10.057,53.7316,-0.0502,0.1359,1.1143,43.3551
13:58:14:167,-1.6128,0.9787,8.327,50.8875,0.3468,0.39,1.471,40.5683
13:58:14:185,-1.1988,1.3615,7.5996,51.2969,0.3761,0.4364,1.5761,39.0155
13:58:14:208,-0.8806,1.6176,7.2191,51.7679,0.309,0.5317,1.6054,37.3711
13:58:14:226,-0.9284,1.8784,7.0588,50.2623,0.2039,0.6673,1.6018,35.6642
13:58:14:247,-1.084,2.1823,6.9583,50.4908,0.0939,0.7358,1.625,33.9053
13:58:14:265,-1.0768,2.4407,7.0684,53.1999,-0.0001,0.7296,1.6812,32.0866
13:58:14:289,-0.9811,2.6106,7.255,50.3827,-0.0795,0.6771,1.73,30.2339
13:58:14:306,-0.8853,2.7876,7.6283,52.2812,-0.1589,0.5855,1.7496,28.379
13:58:14:329,-0.8255,2.9719,8.083,52.0686,-0.2591,0.4755,1.7496,26.5647
13:58:14:347,-0.4594,3.082,8.6716,51.6992,-0.3508,0.4083,1.7361,24.7859
13:58:14:367,0.2106,3.0963,9.2818,50.4823,-0.4082,0.3656,1.6934,23.0465
13:58:14:388,0.8686,3.0532,9.9015,51.0171,-0.4436,0.2691,1.581,21.4141
13:58:14:406,1.2371,2.9695,10.4662,51.3994,-0.4583,0.0492,1.3953,20.0413
13:58:14:427,1.072,2.9049,10.7151,49.8695,-0.479,-0.2257,1.1827,19.0188
13:58:14:449,1.151,2.8116,10.9878,50.7198,-0.5303,-0.4188,1.0667,18.1673
13:58:14:468,1.7898,2.3426,11.5071,51.0284,-0.6146,-0.5006,1.0837,17.301
13:58:14:492,2.534,1.9262,12.3039,50.8881,-0.7344,-0.5703,1.0544,16.4808
13:58:14:507,2.7685,1.4237,13.2251,50.5866,-0.8114,-0.547,0.8858,15.8076
13:58:14:525,2.5842,1.0074,13.6822,51.9552,-0.7723,-0.4444,0.6977,15.3028
13:58:14:546,2.5555,0.6413,13.2347,51.013,-0.5804,-0.2819,0.661,14.7812
13:58:14:567,2.7565,0.4857,12.2058,51.4269,-0.2933,-0.0693,0.7905,14.0539
13:58:14:590,3.0604,0.5815,10.8036,51.5107,-0.0209,0.109,0.9347,13.1091
13:58:14:607,3.3284,0.7561,9.4564,50.4171,0.1611,0.2947,1.0031,12.0212
13:58:14:629,3.0867,1.3089,7.8054,50.3608,0.0988,0.5562,0.7612,9.8694
13:58:14:649,2.4646,1.5003,7.5063,50.2698,-0.0331,0.5623,0.4961,9.2686
13:58:14:667,1.7228,1.5386,7.2885,51.8909,-0.0685,0.5464,0.2456,8.9567
13:58:14:690,1.1198,1.4931,6.8148,50.8238,0.0182,0.5342,0.0868,8.8396
13:58:14:713,0.7298,1.5888,6.3434,51.6438,0.1538,0.533,0.0502,8.7585
13:58:14:730,0.5001,1.8831,5.9031,50.8237,0.2479,0.5672,0.077,8.6364
13:58:14:745,0.4044,2.2229,5.7188,51.0372,0.2479,0.6441,0.1113,8.467
13:58:14:766,0.3015,2.3474,5.7619,50.4081,0.1477,0.6844,0.0954,8.3137
13:58:14:787,0.1053,2.5771,6.0108,52.2624,-0.027,0.6576,0.005,8.2626
13:58:14:809,-0.2297,2.8355,6.4534,51.4371,-0.231,0.5843,-0.1086,8.3587
13:58:14:832,-0.658,2.9001,7.5996,51.8477,-0.446,0.434,-0.2027,8.6183
13:58:14:855,-0.993,2.8451,8.7099,49.7902,-0.6256,0.1017,-0.2601,9.0515
13:58:14:865,-1.1821,2.7565,9.8082,51.4479,-0.7075,-0.222,-0.2369,9.5395
13:58:14:886,-1.1581,2.8594,10.7845,52.1115,-0.7002,-0.4627,-0.0744,9.9019
13:58:14:905,-0.8112,3.1537,11.476,52.3279,-0.6391,-0.6081,0.1955,10.0013
13:58:14:925,-0.012,3.3141,12.0694,51.1279,-0.534,-0.5812,0.49,9.7471
13:58:14:945,0.5432,3.3811,12.5504,52.6876,-0.4167,-0.4469,0.6549,9.2618
13:58:14:965,0.6174,3.3117,12.7968,50.7049,-0.3239,-0.42,0.6268,8.8033
13:58:14:987,0.3685,3.2471,12.5336,51.8279,-0.198,-0.5128,0.479,8.5255
13:58:15:005,-0.0359,3.192,12.0957,51.2433,-0.0356,-0.4859,0.3202,8.4467
13:58:15:057,-0.1603,2.8929,11.811,53.1744,0.0805,-0.3222,0.2395,8.4407
13:58:15:058,0.0718,2.3497,12.1436,49.7777,0.0927,-0.2551,0.2127,8.4318
13:58:15:071,0.4331,1.6893,12.95,51.0884,0.028,-0.5202,0.1455,8.9415
13:58:15:090,-0.6508,1.072,12.5815,50.9118,0.2137,-1.1591,-0.177,9.4246
13:58:15:108,-1.4668,0.9858,11.1721,51.3552,0.5374,-0.8476,-0.1257,9.9834
13:58:15:125,-1.6104,0.7442,9.7149,51.9488,0.7732,-0.2734,0.1833,10.0996
13:58:15:146,-1.34,0.7346,8.7769,51.4849,0.7354,0.1958,0.5743,9.6966
13:58:15:166,-1.0002,0.8734,8.7601,51.9483,0.4653,0.3937,0.8712,8.9163
13:58:15:187,-0.5288,0.8877,9.1502,53.1762,0.1685,0.3338,1.0337,7.9491
13:58:15:205,-0.2895,0.9691,9.3846,50.6586,0.0292,0.1994,1.0605,6.974
13:58:15:226,-0.3135,1.0289,9.2004,52.8088,0.0927,0.1432,1.0214,6.0431
13:58:15:246,-0.4666,1.1892,8.473,51.8279,0.2625,0.1713,1.0043,5.1412
13:58:15:265,-0.5145,1.3448,7.6738,51.1674,0.4018,0.2642,1.0508,4.1495
13:58:15:288,-0.323,1.4668,7.133,52.3905,0.4238,0.3534,1.1412,3.0375
13:58:15:306,-0.0072,1.6534,6.9679,51.8445,0.3285,0.3864,1.2133,1.8006
13:58:15:325,0.2321,1.9789,7.1497,49.2518,0.166,0.3668,1.234,0.5703
13:58:15:346,0.603,2.2134,7.5087,51.3938,0.0365,0.3619,1.2243,359.3292
13:58:15:365,1.0433,2.2732,7.7647,51.3937,0.0023,0.3925,1.1656,358.1176
13:58:15:386,1.3519,2.3976,8.0207,49.3092,0.0255,0.401,1.0251,357.049
13:58:15:407,1.4285,2.4981,8.4203,50.4326,0.0487,0.3155,0.8223,356.1911
13:58:15:425,1.3591,2.6345,8.7864,48.8229,0.0634,0.1237,0.5951,355.6412
13:58:15:446,1.2491,2.6273,8.9659,50.2732,0.1123,-0.0449,0.3825,355.3596
13:58:15:465,1.1462,2.5914,8.9037,48.9514,0.1721,-0.0657,0.2053,355.2823
13:58:15:488,1.139,2.3665,8.6812,50.2732,0.1758,0.0223,0.0673,355.3351
13:58:15:508,1.3328,1.7659,8.6333,50.5629,0.0976,0.076,-0.0561,355.4854
13:58:15:526,1.2491,1.261,9.1693,49.4902,-0.0942,-0.0938,-0.2284,355.8729
13:58:15:545,1.0911,0.6078,10.873,49.0356,-0.5841,-0.7462,-0.4385,356.5878
13:58:15:566,1.7109,-0.1268,12.0407,49.4864,-0.6684,-0.7963,-0.298,357.8626
13:58:15:586,2.1846,-0.3374,13.3137,52.5853,-0.7099,-0.8317,-0.1074,358.2688
13:58:15:605,2.2923,-0.2991,14.1775,50.2185,-0.705,-0.8512,0.0502,358.5215
13:58:15:626,2.199,-0.3972,14.0913,49.7777,-0.5108,-0.6521,0.187,358.5824
13:58:15:648,2.211,-0.4905,13.0122,48.6128,-0.1443,-0.2233,0.3727,358.3579
13:58:15:666,2.6512,-0.4235,11.7416,49.3811,0.1489,0.1652,0.6342,357.7157
13:58:15:684,3.3308,-0.1149,10.9208,50.0626,0.2418,0.3057,0.8981,356.7414
13:58:15:706,3.7615,0.2321,10.27,47.3133,0.2418,0.2642,1.0202,355.6176
13:58:15:727,3.8931,0.591,9.5545,47.9418,0.2833,0.2581,0.9604,354.5523
13:58:15:745,3.7208,0.9093,8.4634,48.3665,0.3823,0.3448,0.7832,353.6468
13:58:15:765,3.3356,1.1318,7.3029,47.6511,0.4776,0.4914,0.556,352.9713
13:58:15:884,2.869,1.3017,6.2979,48.5981,0.5093,0.6441,0.347,352.5159
13:58:15:885,2.4263,1.4405,5.5777,48.6303,0.4727,0.7749,0.1772,352.2267
13:58:15:886,1.9789,1.6845,5.1852,48.9514,0.3835,0.864,0.0318,352.0745
13:58:15:887,1.8138,1.9382,5.1541,44.9513,0.2589,0.8934,-0.0915,352.0723
13:58:15:887,1.8544,2.1799,5.3384,46.5952,0.1,0.8836,-0.2076,352.1454
13:58:15:888,1.8592,2.4191,5.9151,46.843,-0.0771,0.7932,-0.3579,352.4272
13:58:15:904,1.6319,2.6058,6.8124,47.7299,-0.2542,0.5488,-0.5546,352.9792
13:58:15:924,1.1868,2.8499,7.8389,47.6492,-0.3996,0.1335,-0.7806,353.8917
13:58:15:946,0.6843,3.0341,8.6189,46.4217,-0.4864,-0.2111,-0.9492,355.0993
13:58:15:965,0.5192,3.0293,9.6981,48.7015,-0.5597,-0.3381,-0.9577,356.3584
13:58:15:986,0.6245,3.003,11.2822,44.7141,-0.6672,-0.4737,-0.8563,357.5329
13:58:16:009,0.6843,2.522,14.5268,47.0296,-0.5194,-0.8573,-0.6816,359.5425
13:58:16:025,0.6939,2.2134,14.8475,47.2319,-0.0991,-0.949,-0.5888,0.5236
13:58:16:046,0.9188,1.9884,14.0267,46.8724,0.4311,-0.8341,-0.3982,1.2737
13:58:16:065,1.2419,1.9597,12.6437,47.1694,0.8734,-0.4701,-0.1037,1.6365
13:58:16:084,1.474,2.3521,11.1912,47.241,1.0432,-0.0302,0.198,1.5612
13:58:16:109,1.4788,2.7182,10.1049,45.9418,0.9296,0.4706,0.3727,1.176
13:58:16:127,1.1198,2.8307,9.7507,46.1831,0.6767,0.9593,0.3593,0.6849
13:58:16:146,0.6317,2.9216,9.7723,45.2711,0.4055,1.233,0.2444,0.2604
13:58:16:166,0.4331,2.5077,10.2485,44.457,0.1905,1.1573,0.1186,359.9877
13:58:16:188,0.0048,2.0459,10.5069,44.0981,0.0768,0.693,-0.0292,359.9923
13:58:16:209,-0.8016,1.9813,9.9661,44.3202,0.1428,0.2556,-0.1404,0.2497
13:58:16:226,-1.1653,1.8473,8.7218,43.837,0.3627,0.2287,-0.1086,0.4915
13:58:16:245,-1.0409,1.7874,7.5398,46.33,0.4934,0.4877,0.0196,0.5311
13:58:16:266,-0.6437,1.8616,7.2144,43.4086,0.3163,0.616,0.1223,0.4061
13:58:16:285,-0.1484,1.7635,8.0255,41.8314,-0.1235,0.4816,0.0893,0.2981
13:58:16:305,0.2369,1.1486,9.2698,41.0034,-0.5377,0.1786,-0.083,0.4652
13:58:16:324,0.0335,0.8782,10.0283,39.9576,-0.7344,-0.1744,-0.331,0.973
13:58:16:346,-0.3159,0.8471,10.1575,38.7766,-0.7197,-0.3577,-0.5301,1.7506
13:58:16:365,-0.7561,0.7466,9.5976,41.795,-0.5511,-0.2111,-0.6059,2.6027
13:58:16:387,-0.9332,0.8423,8.5519,43.5656,-0.3202,0.1652,-0.5436,3.3328
13:58:16:406,-1.0672,1.1773,7.7408,41.8619,-0.1638,0.5635,-0.3713,3.7812
13:58:16:425,-1.2514,1.8305,7.3531,40.8887,-0.1382,0.8078,-0.1477,3.956
13:58:16:446,-1.1366,2.2205,7.3747,39.9183,-0.1931,0.8225,0.0428,3.8885
13:58:16:463,-0.402,2.4263,8.3438,40.7936,-0.2616,0.3363,0.2261,3.4062
13:58:16:488,-0.0191,2.4861,8.8247,40.0272,-0.1907,0.1677,0.2469,3.2211
13:58:16:512,0.1579,2.3617,9.1334,40.2705,-0.0746,0.1591,0.2017,3.0731
13:58:16:527,-0.1196,2.278,9.3129,42.129,0.017,0.1933,0.0917,3.0583
13:58:16:547,-0.548,2.3163,9.6885,39.6043,0.0353,0.2129,-0.0097,3.1559
13:58:16:564,-0.737,2.1894,10.002,40.7297,0.017,0.1835,-0.0524,3.3045
13:58:16:585,-0.6772,2.0865,10.3131,39.1954,-0.0123,0.1151,-0.0634,3.4864
13:58:16:606,-0.3302,1.7922,10.8227,40.2705,-0.0576,0.0113,-0.0879,3.6854
13:58:16:625,0.0574,1.3161,11.1817,38.9935,-0.0807,-0.117,-0.1404,3.9787
13:58:16:645,0.1244,1.1294,11.3204,39.4867,-0.0832,-0.2721,-0.2137,4.3626
13:58:16:665,0.2895,1.1055,11.2774,38.4395,-0.115,-0.3687,-0.2528,4.824
13:58:16:684,0.8399,0.7274,11.2176,38.2043,-0.2103,-0.3235,-0.2601,5.2552
13:58:16:707,1.194,0.2345,11.4401,39.1146,-0.3825,-0.2282,-0.3249,5.7379
13:58:16:724,0.8255,-0.0885,12.201,37.4166,-0.5682,-0.1585,-0.4409,6.3579
13:58:16:745,0.1077,-0.189,12.6365,38.085,-0.6403,-0.1659,-0.5106,7.0595
13:58:16:766,-0.0933,-0.4451,12.2225,37.1565,-0.4815,-0.128,-0.4385,7.6998
13:58:16:788,0.0909,-0.5073,11.2869,37.3904,-0.1773,-0.0095,-0.2393,8.1177
13:58:16:808,0.6317,-0.256,10.1456,36.513,0.0842,0.0663,-0.0085,8.2118
13:58:16:829,1.0959,0.1484,9.2076,37.2947,0.1953,0.0687,0.1076,8.1941
13:58:16:844,1.2825,0.4881,8.6261,36.7509,0.1685,0.076,0.0807,8.1696
13:58:16:864,1.2419,0.6772,8.3701,36.3641,0.0891,0.1053,-0.0195,8.2535
13:58:16:886,1.0146,0.7657,8.059,38.3657,0.0426,0.1396,-0.1514,8.468
13:58:16:907,0.1962,1.1366,6.8985,36.0384,0.1355,0.2556,-0.3188,9.1207
13:58:16:925,0.0814,1.2849,6.2931,35.6406,0.188,0.3155,-0.2968,9.4958
13:58:16:947,0.0239,1.5027,6.0275,34.7724,0.166,0.3607,-0.2785,9.8505
13:58:16:967,0.0861,1.7707,6.1687,34.1879,0.0463,0.3143,-0.3212,10.2487
13:58:16:985,0.1053,1.7779,6.5396,34.2424,-0.1211,0.186,-0.4446,10.802
13:58:17:007,-0.335,1.5721,7.054,35.3032,-0.2726,0.0601,-0.6181,11.5869
13:58:17:023,-0.9715,1.3783,8.0088,36.8587,-0.4143,-0.051,-0.7281,12.5382
13:58:17:042,-1.2849,1.1127,8.9898,35.2596,-0.5255,-0.1866,-0.6987,13.4968
13:58:17:064,-1.6726,1.0624,9.9494,35.197,-0.556,-0.2783,-0.5851,14.3334
13:58:17:084,-2.0052,1.2586,10.8299,35.0576,-0.5389,-0.3357,-0.4092,14.9897
13:58:17:106,-2.0889,1.4668,11.8014,32.9101,-0.4888,-0.3271,-0.1428,15.3833
13:58:17:123,-1.5864,1.6223,12.6556,32.1328,-0.3935,-0.2941,0.1736,15.3656
13:58:17:143,-0.4738,1.6678,13.3232,33.4723,-0.2359,-0.1891,0.457,14.9848
13:58:17:164,0.5432,1.5123,13.474,34.1606,-0.0343,0.0223,0.5853,14.4348
13:58:17:184,0.4762,1.4788,13.127,32.5107,0.1526,0.2287,0.4582,13.9763
13:58:17:203,-0.3781,1.4237,12.3733,33.0873,0.2638,0.335,0.1858,13.8299
13:58:17:225,-1.1868,1.1988,11.7751,31.7952,0.2735,0.4108,-0.0146,13.9404
13:58:17:245,-1.5099,0.7466,11.8971,31.8855,0.1843,0.3778,-0.0744,14.144
13:58:17:264,-1.5194,0.146,12.4355,31.4995,0.0891,0.1762,-0.0744,14.3574
13:58:17:286,-1.986,-0.0024,12.335,31.8855,0.1318,-0.0217,-0.0708,14.6262
13:58:17:305,-2.5914,0.189,10.9711,29.4262,0.3603,0.0479,0.0306,14.781
13:58:17:327,-2.4024,0.3159,9.2746,31.2536,0.6327,0.3045,0.2798,14.6155
13:58:17:346,-1.9119,0.469,7.9896,32.2582,0.7036,0.4315,0.5059,14.1861
13:58:17:364,-0.8614,0.6939,7.949,31.4156,0.2027,0.0883,0.5767,12.9596
13:58:17:383,-0.7059,0.67,8.4802,31.2092,-0.0649,-0.0522,0.4851,12.5551
13:58:17:403,-0.8183,0.548,8.7912,31.7423,-0.1773,-0.0498,0.3813,12.2628
13:58:17:424,-1.0337,0.5384,8.7793,31.8855,-0.1626,-0.0351,0.319,12.0518
13:58:17:446,-1.0433,0.6365,8.7649,32.1571,-0.1137,-0.0828,0.3458,11.834
13:58:17:465,-0.8303,0.8734,8.6453,30.6958,-0.049,-0.1402,0.4387,11.4861
13:58:17:484,-0.6269,1.1318,8.193,30.1764,0.0536,-0.106,0.5303,11.0272
13:58:17:504,-0.414,1.4501,7.6451,31.1945,0.1465,0.0015,0.5706,10.4733
13:58:17:524,-0.134,1.6367,7.3125,27.7938,0.1721,0.0626,0.556,9.9106
13:58:17:544,-0.067,1.7372,7.3316,29.9304,0.1282,0.0162,0.4631,9.4644
13:58:17:564,-0.1603,1.797,7.4321,27.8131,0.0695,-0.0596,0.3312,9.1763
13:58:17:584,-0.3422,1.8473,7.5685,28.646,0.0231,-0.1011,0.2224,9.0062
13:58:17:604,-0.3541,1.7444,7.8317,29.3402,-0.0282,-0.0828,0.1564,8.912
13:58:17:627,-0.5838,1.8831,8.3797,28.0862,-0.1137,-0.0412,0.0905,8.9251
13:58:17:644,-0.8806,1.931,9.0186,29.3244,-0.1907,-0.0412,0.0257,8.9821
13:58:17:664,-0.8901,1.8281,9.3727,28.646,-0.2078,-0.1573,-0.0256,9.1311
13:58:17:684,-0.3613,1.3759,9.8225,24.9891,-0.2298,-0.365,-0.0708,9.3284
13:58:17:712,0.4259,0.8136,10.6505,28.0629,-0.3495,-0.5458,-0.1428,9.6018
13:58:17:726,1.0337,0.0766,12.1292,26.2629,-0.5487,-0.6411,-0.2858,10.0407
13:58:17:746,0.7298,-0.2034,13.5434,27.8901,-0.7258,-0.6509,-0.4825,10.6969
13:58:17:767,0.1914,-0.4116,14.4766,27.5714,-0.7344,-0.4493,-0.5729,11.4467
13:58:17:792,0.1699,-0.9332,14.3402,26.5312,-0.5181,-0.161,-0.4788,12.0728
13:58:17:805,0.3613,-0.9787,13.5673,27.2506,-0.198,0.004,-0.3298,12.5284
13:58:17:826,0.7657,-0.7346,11.4425,26.3092,0.2198,0.1786,-0.0989,12.8201
13:58:17:845,1.1677,-0.5432,10.4184,27.7024,0.3151,0.3314,0.0441,12.8107
13:58:17:865,1.6798,-0.4235,9.7555,27.6506,0.3542,0.3534,0.1271,12.6411
13:58:17:883,2.1344,-0.2177,9.3703,26.984,0.3236,0.1884,0.1027,12.4714
13:58:17:976,2.3091,0.0263,8.9516,27.0922,0.265,0.0064,-0.0243,12.4594
13:58:17:977,1.9071,0.2943,8.418,28.0285,0.2161,-0.0131,-0.2186,12.6613
13:58:17:977,1.2012,0.5145,7.9777,27.3686,0.1611,0.0699,-0.4043,13.0777
13:58:17:978,0.7083,0.7825,7.7815,27.6204,0.0915,0.1273,-0.5069,13.6281
13:58:17:994,0.5719,0.9141,7.8437,27.3686,0.0292,0.1139,-0.5301,14.1937
13:58:18:007,0.6939,1.0146,8.0566,25.9209,0.0011,0.0455,-0.5411,14.7837
13:58:18:026,0.6891,1.1007,8.1835,28.0728,0.0096,0.0052,-0.5863,15.4012
13:58:18:044,0.6221,1.2251,8.2026,27.7593,0.0512,0.0406,-0.6315,16.0759
13:58:18:064,0.6413,1.34,8.0997,27.4276,0.0964,0.12,-0.6621,16.8007
13:58:18:085,0.7322,1.261,8.1045,27.3669,0.1159,0.1835,-0.6938,17.5041
13:58:18:104,0.6963,1.2467,8.2552,27.299,0.0878,0.1738,-0.7391,18.3006
13:58:18:125,0.4857,1.3089,8.4012,26.0582,0.0475,0.1102,-0.772,19.1208
13:58:18:145,0.189,1.517,8.5878,27.8967,0.0096,0.0357,-0.7598,19.9224
13:58:18:165,-0.256,1.9406,9.0377,26.1449,-0.0453,-0.0449,-0.6987,20.6929
13:58:18:187,-0.7322,2.2995,9.478,26.8815,-0.0697,-0.0608,-0.5851,21.3574
13:58:18:212,-0.8829,2.3976,9.7555,27.2506,-0.038,0.0089,-0.4189,21.8418
13:58:18:227,-0.9212,2.5795,10.2389,25.6587,-0.0221,0.0101,-0.2479,22.1682
13:58:18:248,-0.5982,2.6584,11.0166,28.6567,-0.049,-0.1182,-0.1221,22.2868
13:58:18:266,-0.1603,2.4287,11.8517,26.3075,-0.0576,-0.2624,-0.1013,22.3897
13:58:18:292,-0.9954,1.9956,11.9737,27.5957,0.0463,-0.0583,-0.309,22.9427
13:58:18:308,-1.5482,1.6247,11.8349,27.4084,0.0047,0.1713,-0.3383,23.333
13:58:18:326,-1.8066,1.0911,12.0981,25.9973,-0.0966,0.302,-0.3102,23.6817
13:58:18:345,-1.9765,0.3733,12.8782,27.851,-0.1846,0.2129,-0.3273,24.0744
13:58:18:365,-2.747,0.0479,13.1222,28.7611,-0.1406,-0.04,-0.3737,24.5717
13:58:18:383,-3.7639,0.0096,11.8756,26.7192,0.1636,-0.0412,-0.3102,25.025
13:58:18:404,-4.1611,-0.1436,9.7197,27.8431,0.6413,0.3338,-0.0207,25.1392
13:58:18:425,-4.0439,-0.0479,7.8939,29.1919,0.9406,0.6502,0.3532,24.7656
13:58:18:445,-3.5605,-0.1795,7.1904,29.1497,0.8587,0.6331,0.5999,24.0933
13:58:18:464,-3.5916,-0.2177,7.5565,28.1368,0.5387,0.3326,0.6244,23.4365
13:58:18:488,-4.276,-0.0933,8.2911,30.0381,0.232,-0.0449,0.512,22.989
13:58:18:506,-4.252,-0.0933,8.7601,28.0826,0.0866,-0.2514,0.5193,22.6014
13:58:18:525,-3.8405,0.2752,9.0257,29.9523,0.0231,-0.2526,0.6794,21.9833
13:58:18:546,-2.5723,0.7107,9.2626,28.1368,-0.0466,-0.0547,0.9139,21.0216
13:58:18:564,-1.273,1.273,9.2913,28.9944,-0.1308,0.2947,1.0947,19.7655
13:58:18:583,-0.8375,1.8281,9.2219,26.8086,-0.2188,0.6893,1.1118,18.3905
13:58:18:605,-0.6221,2.132,9.0951,28.2586,-0.2567,0.9642,1.0324,17.0046
13:58:18:624,-0.4164,2.5914,8.8654,27.9565,-0.209,1.051,0.9494,15.6908
13:58:18:646,-0.28,3.3428,8.5065,26.4435,-0.0905,1.073,0.9151,14.3997
13:58:18:664,-0.2584,4.1348,8.2648,27.3697,0.0341,1.0693,0.8883,13.1111
13:58:18:692,0.2177,4.2951,8.3653,28.9108,0.1159,0.9459,0.8321,10.7844
13:58:18:704,0.9715,3.1107,9.0856,27.1481,0.287,0.3998,0.4704,10.0201
13:58:18:724,1.0361,2.7972,8.9994,28.4532,0.5313,0.1115,0.347,9.4537
13:58:18:745,1.1462,2.8977,8.8774,28.8138,0.7903,-0.2269,0.3642,8.9915
13:58:18:764,1.7013,2.9145,8.9204,29.5504,0.9137,-0.5556,0.4069,8.5068
13:58:18:785,2.2229,2.6249,9.0449,28.243,0.849,-0.69,0.358,8.1417
13:58:18:808,2.4287,2.1344,9.2913,27.1541,0.6107,-0.6203,0.1943,7.9378
13:58:18:824,1.9717,1.785,9.7053,28.8718,0.2491,-0.4786,-0.0072,7.9284
13:58:18:844,1.1605,1.8592,9.9852,28.5092,-0.0918,-0.3479,-0.0891,7.9883
13:58:18:865,0.9236,1.6893,10.1312,28.4055,-0.2872,-0.2147,0.0111,7.8888
13:58:18:884,1.2825,1.0911,9.8871,28.9167,-0.3275,-0.1353,0.154,7.6159
13:58:18:904,1.4213,0.4475,9.7029,28.4055,-0.3214,-0.0583,0.1442,7.3214
13:58:18:926,1.2227,0.0957,9.8417,29.1738,-0.3911,-0.0791,-0.0133,7.2233
13:58:18:945,0.9452,-0.0048,10.325,28.2748,-0.534,-0.277,-0.1404,7.3038
13:58:18:965,1.0241,-0.0909,10.6313,30.2895,-0.5963,-0.4603,-0.1734,7.4738
13:58:18:987,1.2179,-0.0694,10.6528,28.611,-0.5316,-0.4994,-0.166,7.6206
13:58:19:006,1.3615,0.1388,10.459,28.0076,-0.4521,-0.5299,-0.1856,7.801
13:58:19:024,1.5051,0.1125,10.3131,27.9414,-0.4314,-0.6069,-0.2956,8.1155
13:58:19:046,1.3854,0.0287,9.9446,28.619,-0.4925,-0.6387,-0.4959,8.6472
13:58:19:066,0.9691,0.0335,9.6503,29.1446,-0.5939,-0.5483,-0.7036,9.3738
13:58:19:100,0.4259,0.1149,9.4445,28.842,-0.6928,-0.3711,-0.8246,10.1932
13:58:19:105,-0.1005,0.0694,9.4995,29.3505,-0.7393,-0.2379,-0.8441,11.0648
13:58:19:122,-0.4929,0.0933,9.5498,30.6649,-0.6867,-0.2709,-0.8172,11.9046
13:58:19:143,-0.5623,0.0335,9.3823,31.1861,-0.5047,-0.3821,-0.772,12.7309
13:58:19:163,-0.7035,-0.0598,8.6261,28.7496,-0.2493,-0.4481,-0.7525,13.5281
13:58:19:184,-1.1629,0.0431,7.3627,29.7517,-0.0209,-0.4065,-0.7476,14.3373
13:58:19:211,-1.6367,0.5312,5.4891,30.2072,-0.0649,-0.1133,-0.579,15.7448
13:58:19:225,-1.8042,0.7849,5.8385,28.8085,-0.4448,-0.0009,-0.5387,16.2715
13:58:19:245,-2.2373,1.2825,6.7478,30.8248,-0.9396,0.1078,-0.5717,16.8367
13:58:19:264,-3.0556,2.0794,8.0925,31.1586,-1.344,0.3338,-0.5851,17.4099
13:58:19:283,-3.3811,2.9982,9.7579,30.3634,-1.5175,0.6258,-0.48,17.8805
13:58:19:306,-3.3069,3.6658,11.7823,30.6667,-1.498,0.7419,-0.3286,18.1769
13:58:19:325,-3.6036,3.8405,13.6247,29.0961,-1.3379,0.605,-0.2919,18.4276
13:58:19:344,-3.8572,3.5653,14.5651,31.0578,-0.9848,0.4059,-0.3847,18.761
13:58:19:365,-3.3643,3.1083,15.1537,29.3333,-0.4485,0.2629,-0.4153,19.1376
13:58:19:384,-2.8427,2.5771,14.9551,30.8841,0.1245,0.2019,-0.2528,19.2882
13:58:19:404,-3.5007,3.0437,14.8834,31.2949,0.5716,0.3375,0.0123,19.1841
13:58:19:425,-2.7781,3.7663,15.1514,31.2949,0.8001,0.4877,0.4216,18.5862
13:58:19:446,0.1412,2.6058,14.5962,31.4872,1.0823,0.6124,0.986,17.2879
13:58:19:464,1.1294,1.6415,13.005,29.7045,1.4464,0.6637,1.129,15.779
13:58:19:482,-0.2369,1.2108,11.8301,29.5465,1.5844,0.4144,0.5999,14.8759
13:58:19:505,-2.0411,0.6724,11.72,29.8475,1.4403,-0.095,-0.1551,14.8987
13:58:19:526,-2.9025,-0.0598,11.3635,30.1336,1.3303,-0.3956,-0.5814,15.4518
13:58:19:545,-3.5222,0.3757,10.2533,33.1175,1.4085,-0.2135,-0.48,15.9537
13:58:19:566,-3.8213,1.7611,9.7531,31.1758,1.5246,0.131,0.1064,15.7306
13:58:19:593,-1.6869,1.3639,9.7484,32.0697,1.505,-0.0022,0.8247,14.7047
13:58:19:610,-0.1053,0.481,9.8919,31.9032,1.3694,-0.4114,1.0556,13.4686
13:58:19:625,-0.5982,0.3206,10.0953,31.5932,1.1373,-0.6814,0.6061,12.8626
13:58:19:645,-1.6678,0.3661,9.5904,32.5646,0.8551,-0.4542,0.2689,12.7797
13:58:19:663,-0.6772,0.5671,8.8199,33.0625,0.8844,-0.1377,0.7722,12.6772
13:58:19:683,0.548,0.9715,8.1954,32.0351,0.8697,0.0785,1.2841,10.1794
13:58:19:704,1.4788,1.4094,7.9753,31.8465,0.7867,0.219,1.5004,8.3329
13:58:19:730,1.6989,1.8353,7.1665,32.1882,0.7586,0.4389,1.3977,6.5049
13:58:19:744,1.1318,2.4479,6.1328,32.3583,0.827,0.7235,1.19,4.8072
13:58:19:763,0.8877,2.7661,5.1015,33.1896,0.8404,0.7944,1.0605,3.1837
13:58:19:784,0.8088,3.0126,4.4913,33.8339,0.7133,0.649,0.964,1.7032
13:58:19:808,0.6939,3.2495,4.2496,32.9574,0.4922,0.4816,0.8382,0.4431
13:58:19:827,0.3685,3.5821,4.6516,32.2875,0.2283,0.3472,0.6879,359.4099
13:58:19:844,0.5623,3.7759,5.4173,34.0255,-0.0356,0.2055,0.545,358.5613
13:58:19:864,0.9117,3.8046,6.3386,33.1193,-0.2481,0.0968,0.4228,357.882
13:58:19:885,1.0074,4.0965,7.0277,33.6629,-0.4094,0.0125,0.308,357.3426
13:58:19:908,1.1127,4.1539,7.7193,33.6638,-0.534,-0.1011,0.2005,356.9498
13:58:19:925,1.4668,3.8189,8.4203,33.1896,-0.6586,-0.2734,0.0233,356.7885
13:58:19:944,1.742,3.4816,9.4852,32.9454,-0.8321,-0.4579,-0.2406,356.9978
13:58:19:964,1.6893,3.2112,10.3274,33.2041,-1.0337,-0.5312,-0.5265,357.5101
13:58:20:085,1.3304,2.814,11.1338,33.35,-1.1998,-0.4016,-0.7537,358.2012
13:58:20:086,1.1007,2.2827,12.1532,33.4528,-1.3355,-0.2685,-0.8991,359.0259
13:58:20:087,1.1079,1.6199,13.2467,34.2472,-1.4308,-0.2685,-1.0103,359.9427
13:58:20:088,1.0863,1.0002,14.1129,33.5174,-1.3929,-0.3528,-1.0897,0.9698
13:58:20:089,0.682,0.8853,14.2445,32.7989,-1.2072,-0.442,-1.1129,2.0603
13:58:20:090,0.2919,0.9715,13.596,34.1227,-0.881,-0.3381,-0.9748,2.9899
13:58:20:110,1.1127,1.0528,11.4855,33.0129,-0.2347,0.0528,-0.3701,3.8394
13:58:20:126,1.6678,0.9452,10.2604,33.89,-0.071,0.1725,-0.2919,3.8822
13:58:20:144,1.6463,0.9045,9.2052,32.9551,-0.0429,0.3106,-0.4251,4.0217
13:58:20:164,1.139,0.9715,8.5543,34.588,-0.1589,0.3949,-0.6535,4.4087
13:58:20:185,0.3422,1.005,8.2696,33.7033,-0.3007,0.4181,-0.8527,5.0424
13:58:20:206,-0.5264,1.1629,8.0686,34.5692,-0.3569,0.3998,-0.9687,5.8544
13:58:20:225,-1.2036,1.4213,7.7193,33.6801,-0.2872,0.3754,-0.9761,6.6744
13:58:20:243,-1.3352,1.5362,7.2981,34.1942,-0.1479,0.368,-0.8905,7.4055
13:58:20:263,-1.1294,1.462,6.9535,33.233,-0.0282,0.3705,-0.7989,8.0468
13:58:20:284,-1.0576,1.3137,6.6879,33.0709,0.0316,0.3815,-0.7806,8.6684
13:58:20:309,-1.4692,1.3759,6.7908,32.95,0.0133,0.3472,-0.8185,9.3521
13:58:20:325,-1.9119,1.4596,7.1067,33.1317,-0.0673,0.186,-0.8576,10.1214
13:58:20:343,-1.7946,1.1222,7.346,34.6086,-0.1174,0.0174,-0.8185,10.8585
13:58:20:363,-1.5529,0.7537,7.6211,35.4225,-0.1418,-0.0571,-0.7195,11.512
13:58:20:383,-1.6534,0.7825,8.2552,33.5657,-0.2457,-0.0987,-0.6144,12.0322
13:58:20:405,-2.2038,1.1127,9.3966,34.325,-0.4167,-0.1109,-0.4727,12.4326
13:58:20:424,-2.4263,1.3831,10.3681,35.764,-0.5022,-0.1634,-0.2748,12.6016
13:58:20:444,-2.2325,1.4118,10.9639,33.6817,-0.3825,-0.1805,-0.0231,12.4798
13:58:20:463,-2.1727,1.9023,11.0716,34.3951,-0.1773,-0.1255,0.2249,12.0668
13:58:20:483,-1.7276,2.4718,11.3228,34.4451,-0.0563,-0.0241,0.4668,11.3478
13:58:20:505,-0.7561,2.7039,12.079,33.9246,-0.0661,0.0907,0.6366,10.3972
13:58:20:525,0.1412,2.4574,12.7968,34.8497,-0.0807,0.2019,0.6207,9.4338
13:58:20:543,0.1531,2.1751,12.7609,36.7668,0.0304,0.2984,0.4118,8.6987
13:58:20:565,-1.7731,2.1583,10.6552,35.5629,0.2784,0.4877,-0.028,8.2597
13:58:20:587,-2.4742,1.9645,10.2939,35.9008,0.1599,0.5256,-0.0976,8.104
13:58:20:605,-2.3043,1.3878,11.1458,35.9008,-0.1125,0.3045,-0.1184,8.0146
13:58:20:630,-1.8353,0.6365,12.0287,33.728,-0.3202,-0.0583,-0.0866,7.9275
13:58:20:642,-1.986,0.4235,11.9665,34.8529,-0.2481,-0.1854,-0.0072,7.7883
13:58:20:662,-2.1607,0.3589,10.8156,36.398,0.0719,-0.0302,0.1846,7.4203
13:58:20:684,-1.9621,0.4307,9.5713,36.2893,0.4055,0.1127,0.4741,6.7178
13:58:20:705,-1.3041,0.6963,8.8176,35.6598,0.5325,-0.0022,0.6842,5.7817
13:58:20:724,-0.6006,1.0504,8.6764,34.1667,0.4262,-0.1805,0.7307,4.8118
13:58:20:743,0.0646,1.0816,8.9563,34.3082,0.1941,-0.222,0.6305,3.9504
13:58:20:763,0.3063,0.8614,9.3559,35.3021,-0.038,-0.1365,0.4033,3.3071
13:58:20:784,-0.1077,0.615,9.7244,35.9276,-0.1748,-0.0498,0.1137,2.9779
13:58:20:804,-1.0026,0.6724,9.7053,36.0544,-0.1651,-0.0131,-0.0964,2.8799
13:58:20:825,-1.6223,0.7896,9.2291,38.5382,-0.0295,0.0052,-0.1367,2.8544
13:58:20:844,-1.8209,0.8542,8.3844,36.864,0.1795,0.0687,-0.039,2.732
13:58:20:863,-1.8425,1.0744,7.5589,35.6968,0.3554,0.1347,0.0893,2.4581
13:58:20:885,-1.7468,1.2802,7.0301,35.1609,0.4202,0.1444,0.1895,2.076
13:58:20:905,-1.675,1.4357,6.9081,35.9341,0.3884,0.0821,0.242,1.6333
13:58:20:923,-1.5745,1.6271,6.9703,38.2218,0.3322,-0.0095,0.2395,1.2121
13:58:20:944,-1.5529,1.7898,6.8985,37.1141,0.3065,-0.073,0.2041,0.8265
13:58:20:964,-1.5099,1.9095,6.8626,36.3334,0.276,-0.0779,0.1674,0.5109
13:58:20:986,-1.6582,2.2373,7.1761,36.0172,0.1611,-0.0583,0.1284,0.2303
13:58:21:004,-1.9143,2.5412,7.8174,36.685,-0.0001,-0.0351,0.088,0.0061
13:58:21:025,-1.8544,2.345,9.7173,38.2477,-0.1516,-0.3039,-0.0011,359.8482
13:58:21:046,-1.3591,2.0363,10.1145,36.449,-0.1455,-0.5434,-0.0549,359.9235
13:58:21:063,-0.7944,1.7755,10.4973,36.6031,-0.1406,-0.6594,-0.0842,359.9507
13:58:21:082,-0.5838,1.6774,10.8897,35.9827,-0.1968,-0.6717,-0.1319,0.0464
13:58:21:103,-0.7992,1.7563,11.2774,35.8749,-0.3068,-0.5874,-0.2088,0.2198
13:58:21:125,-0.8806,1.6702,11.6004,36.643,-0.4302,-0.4224,-0.2235,0.3775
13:58:21:147,-0.6437,1.3926,11.9306,37.4715,-0.5291,-0.2746,-0.1428,0.4093
13:58:21:163,-0.4618,1.4907,12.4187,38.4189,-0.5585,-0.161,-0.0256,0.2687
13:58:21:185,0.1268,1.4333,12.4379,37.8795,-0.457,-0.0315,0.1308,359.9505
13:58:21:206,0.737,1.2514,11.9378,36.9664,-0.2493,0.0943,0.2371,359.4876
13:58:21:221,1.072,1.0696,11.5071,38.4623,-0.0893,0.1554,0.1943,359.059
13:58:21:241,1.3687,0.6915,11.3946,37.1458,-0.0697,0.065,0.06,358.7784
13:58:21:262,1.328,0.3422,11.5932,38.4189,-0.1418,-0.0706,-0.0976,358.6988
13:58:21:282,0.9476,0.2536,11.5836,38.2755,-0.1785,-0.1194,-0.1844,358.7323
13:58:21:303,0.7896,0.3422,10.952,38.8022,-0.0905,-0.0254,-0.1465,358.7387
13:58:21:323,1.0241,0.4905,9.923,38.2483,0.0768,0.1603,-0.0231,358.5531
13:58:21:343,1.1151,0.8447,9.1119,38.0519,0.2063,0.2984,0.088,358.2375
13:58:21:363,0.8638,1.462,8.4419,38.9614,0.2784,0.3595,0.132,357.8756
13:58:21:383,0.5025,1.8209,7.8054,40.2759,0.3701,0.4108,0.1235,357.528
13:58:21:407,0.3493,1.8903,6.9176,37.5517,0.5228,0.4829,0.1039,357.1796
13:58:21:423,0.2441,1.919,6.0849,38.1231,0.6694,0.5427,0.0685,356.87
13:58:21:443,0.189,1.9454,5.4078,38.2297,0.7158,0.544,0.0135,356.63
13:58:21:463,0.1436,2.0267,5.068,39.1259,0.6156,0.434,-0.0854,356.4756
13:58:21:483,-0.0526,2.0148,6.2261,39.0848,0.0439,-0.0144,-0.4532,356.5427
13:58:21:503,-0.4283,1.7085,7.2215,39.0448,-0.2151,-0.2037,-0.6535,357.6685
13:58:21:521,-1.1677,1.6343,8.3844,39.036,-0.4241,-0.3393,-0.7745,358.4695
13:58:21:543,-1.742,1.6917,9.9398,39.6718,-0.6073,-0.4982,-0.7818,359.3347
13:58:21:563,-2.1368,1.8927,11.3874,42.1506,-0.6721,-0.6558,-0.678,0.131
13:58:21:586,-2.278,2.1081,12.4618,41.2808,-0.5536,-0.6216,-0.4593,0.648
13:58:21:613,-1.8784,2.2301,12.9476,41.4547,-0.3129,-0.3662,-0.1184,0.7434
13:58:21:624,-0.95,2.1033,13.0265,40.5238,-0.0612,-0.0144,0.2701,0.3442
13:58:21:644,-0.1172,2.1535,12.67,40.2975,0.1294,0.2397,0.5205,359.6196
13:58:21:662,-0.2177,2.3139,11.8947,41.5815,0.2479,0.368,0.4802,358.9189
13:58:21:682,-1.2371,2.5196,10.7151,41.3874,0.2894,0.5134,0.2481,358.4751
13:58:21:703,-2.0243,2.3426,10.0666,39.5689,0.2051,0.6319,0.0538,358.2335
13:58:21:722,-2.2421,1.7874,10.5308,39.5836,-0.0001,0.5183,-0.0414,358.1175
13:58:21:743,-1.9023,1.1557,11.6985,41.9048,-0.2237,0.1102,-0.0695,358.1082
13:58:21:764,-1.8138,0.6676,12.2513,41.1552,-0.2701,-0.2502,-0.0854,358.1461
13:58:21:793,-2.2684,0.3685,11.4879,41.5358,-0.0588,-0.2416,-0.0537,358.1623
13:58:21:810,-2.4526,0.2201,10.2054,40.9937,0.2564,-0.0473,0.1491,357.9449
13:58:21:824,-1.9478,0.402,8.9539,41.1652,0.4177,0.0504,0.4704,357.3416
13:58:21:841,-1.0887,0.5982,8.3701,41.5273,0.3236,0.0382,0.7355,356.4308
13:58:21:861,-0.0718,0.6843,8.5496,41.5549,0.0512,0.0223,0.8235,355.4
13:58:21:882,0.4164,0.6174,9.1119,39.9155,-0.2481,0.0333,0.7136,354.4772
13:58:21:904,0.1101,0.5575,9.5426,42.3376,-0.4216,0.0382,0.4778,353.8198
13:58:21:923,-0.6843,0.6341,9.4852,41.7933,-0.3972,0.0125,0.2628,353.4126
13:58:21:944,-1.395,1.005,8.2816,42.4757,-0.0307,0.0553,0.3336,353.069
13:58:21:964,-1.2156,1.3089,7.8796,39.5623,0.1062,0.0785,0.4802,352.0865
13:58:21:992,-0.871,1.5912,7.7743,40.9815,0.1611,0.0357,0.5706,351.3757
13:58:22:008,-0.5623,1.7444,7.748,43.4539,0.1843,-0.0266,0.5694,350.6881
13:58:22:023,-0.4283,1.8066,7.5087,41.9119,0.2234,-0.0559,0.4827,350.0748
13:58:22:043,-0.5121,1.8831,7.0995,41.8339,0.2747,-0.0376,0.3507,349.5978
13:58:22:062,-0.7418,1.943,6.7884,42.7409,0.287,0.0076,0.2151,349.2918
13:58:22:085,-1.0983,2.1081,6.8004,41.5468,0.2161,-0.0217,0.1064,349.123
13:58:22:182,-1.3113,2.2708,7.334,43.2661,0.0829,-0.1243,0.0355,349.0338
13:58:22:183,-1.3519,2.4191,7.9394,43.0495,-0.0441,-0.2367,0.0037,349.0241
13:58:22:184,-0.9476,2.2923,8.6477,42.1498,-0.1455,-0.3332,0.0086,349.0147
13:58:22:184,-0.2034,2.0435,9.6694,44.1766,-0.2823,-0.4847,-0.0109,349.0313
13:58:22:185,0.4307,1.7539,10.7318,45.3803,-0.4473,-0.624,-0.1245,349.1811
13:58:22:202,0.5862,1.2897,11.6554,42.5485,-0.5682,-0.624,-0.342,349.5659
13:58:22:223,-0.0239,1.139,12.1268,43.5363,-0.6501,-0.5568,-0.5692,350.1729
13:58:22:242,-0.4068,0.8303,12.6221,44.8466,-0.7234,-0.5177,-0.6486,350.8856
13:58:22:262,-0.3111,0.3446,13.2347,44.6854,-0.7649,-0.5092,-0.5399,351.4796
13:58:22:282,-0.3446,0.0502,13.5912,44.2299,-0.6892,-0.4236,-0.3432,351.8298
13:58:22:303,-0.5719,0.0957,13.3352,45.6598,-0.468,-0.2257,-0.1086,351.9196
13:58:22:323,-0.5336,0.5097,12.5073,45.9969,-0.1712,0.0272,0.1736,351.6713
13:58:22:343,0.4905,0.3829,11.7823,43.3948,0.0719,0.2092,0.4924,351.0404
13:58:22:362,1.8903,0.3135,11.4018,44.4663,0.1819,0.1762,0.7099,350.1269
13:58:22:382,3.0126,0.2752,11.0836,45.5581,0.2088,-0.007,0.7185,349.2156
13:58:22:404,2.8594,0.3422,9.5641,44.6844,0.188,-0.0217,0.1821,348.5361
13:58:22:424,2.0291,0.4738,8.8941,45.547,0.1184,0.1151,-0.0598,348.2717
13:58:22:443,1.1892,0.8829,8.4802,44.3489,0.0304,0.1615,-0.1502,348.2819
13:58:22:467,0.4977,1.4644,8.1499,45.4312,0.0133,0.1603,-0.1245,348.3538
13:58:22:481,0.4355,1.7922,7.8485,47.2168,0.0988,0.2055,-0.0305,348.3142
13:58:22:504,0.7322,1.8401,7.4393,47.0548,0.221,0.2666,0.0563,348.1788
13:58:22:523,1.0696,2.01,7.1426,45.9413,0.3016,0.3094,0.0807,348.0141
13:58:22:542,1.3017,2.0172,6.9392,46.2831,0.3102,0.3253,0.0441,347.8723
13:58:22:562,1.1438,1.9693,6.8554,47.2446,0.2747,0.2862,-0.0793,347.8648
13:58:22:582,0.682,1.9884,6.8866,46.8887,0.2222,0.1884,-0.2834,348.1043
13:58:22:604,0.1675,1.7539,7.0732,48.1372,0.1599,0.0382,-0.491,348.5955
13:58:22:625,-0.2871,1.4572,7.3771,46.6605,0.0732,-0.1084,-0.6047,349.2457
13:58:22:642,-0.8614,1.462,7.7839,47.7504,-0.0282,-0.2025,-0.5924,349.8982
13:58:22:663,-1.3328,1.6845,8.3557,48.6326,-0.1455,-0.2025,-0.452,350.3782
13:58:22:681,-1.2467,1.5864,9.2459,47.627,-0.2567,-0.2123,-0.2308,350.6441
13:58:22:704,-1.0313,1.8497,10.3011,49.1745,-0.3703,-0.2819,-0.0268,350.7171
13:58:22:723,-0.4977,2.0172,11.6339,48.6775,-0.4534,-0.2514,0.1479,350.5681
13:58:22:742,0.2201,1.8497,12.7394,50.0214,-0.4424,-0.0645,0.2652,350.2614
13:58:22:762,0.4307,1.7468,13.1868,49.9747,-0.3373,0.1554,0.2505,349.9237
13:58:22:782,0.0861,1.596,12.9978,49.2105,-0.2359,0.3192,0.1223,349.7451
13:58:22:805,0.1292,0.792,13.4907,50.9653,-0.2811,0.3094,-0.0329,349.713
13:58:22:825,0.2991,0.1436,14.5699,50.6235,-0.468,-0.0779,-0.2027,349.9231
13:58:22:844,0.0479,-0.402,15.1801,49.517,-0.5206,-0.4969,-0.3725,350.3503
13:58:22:863,-2.4407,-0.5145,11.4999,50.9838,0.3273,0.1127,-0.1624,350.8486
13:58:22:881,-2.9121,-0.1484,9.2435,52.0336,0.783,0.6099,0.3642,350.6576
13:58:22:907,-2.2325,0.2608,7.7384,52.4827,0.9088,0.6588,0.8981,349.6448
13:58:22:921,-0.871,0.7059,7.121,50.7424,0.7647,0.4877,1.2829,348.192
13:58:22:943,0.5073,1.0457,7.1258,50.382,0.48,0.4059,1.4405,346.5384
13:58:22:962,1.2849,1.3017,7.389,52.2928,0.1599,0.4438,1.2927,345.0255
13:58:22:981,1.1892,1.3185,7.7791,50.5408,-0.1198,0.445,0.8834,343.9679
13:58:23:004,0.4307,1.1629,8.2457,51.8512,-0.3043,0.2715,0.3849,343.4854
13:58:23:022,-0.5456,1.0193,8.6429,51.6565,-0.363,0.0235,0.0062,343.4757
13:58:23:044,-1.2156,0.9045,8.7529,52.3462,-0.308,-0.1622,-0.0952,343.6032
13:58:23:062,-1.2467,0.8495,8.7769,52.7727,-0.1712,-0.2098,0.0404,343.589
13:58:23:081,-0.8638,1.0768,8.4658,52.3858,0.0072,-0.1292,0.2762,343.2935
13:58:23:104,-0.4714,1.5769,7.8317,52.0644,0.155,-0.007,0.468,342.7644
13:58:23:122,-0.1005,2.0435,7.6211,53.6893,0.1843,0.0956,0.5169,342.1983
13:58:23:144,0.2297,2.4814,8.0925,55.2917,0.0988,0.131,0.4753,341.6557
13:58:23:162,0.7418,2.5914,8.7529,53.3547,0.0231,0.1188,0.3947,341.1873
13:58:23:180,1.0624,2.6297,9.0999,55.3224,0.0732,0.1298,0.2652,340.8636
13:58:23:201,0.9619,2.8714,9.2076,53.4495,0.1929,0.1481,0.0856,340.7178
13:58:23:224,0.7872,3.1442,9.7268,54.5719,0.2638,0.1005,-0.0781,340.7842
13:58:23:254,1.1773,2.9623,10.3849,54.836,0.2894,-0.0608,-0.1783,340.9695
13:58:23:274,2.0746,2.5412,10.8299,53.5825,0.3273,-0.266,-0.2724,341.8029
13:58:23:290,2.2205,1.5529,11.8277,55.5244,0.2381,-0.5861,-0.8172,342.7488
13:58:23:305,1.5673,0.8471,12.5336,55.6782,0.0768,-0.7254,-1.2082,344.1384
13:58:23:322,0.8471,0.1196,13.005,57.3776,-0.0673,-0.7963,-1.4782,345.848
13:58:23:340,-0.0598,-0.2417,13.3304,57.9276,-0.1736,-0.7523,-1.5771,347.6741
13:58:23:360,-0.993,-0.5073,13.4501,59.4412,-0.2237,-0.5886,-1.499,349.4109
13:58:23:380,-1.7204,-0.4427,13.0672,56.9434,-0.1223,-0.2941,-1.2131,350.8256
13:58:23:405,-1.9789,0.0502,12.0072,56.8088,0.1428,0.142,-0.6877,351.5944
13:58:23:423,-1.0887,0.3374,10.8132,58.3577,0.4421,0.5244,-0.0451,351.5892
13:58:23:445,0.1316,0.6987,9.8895,58.3215,0.5777,0.5757,0.4057,351.0558
13:58:23:460,1.5099,0.7872,9.1741,58.8655,0.5509,0.3986,0.5645,350.3574
13:58:23:481,2.6393,0.8686,8.7745,57.9052,0.4336,0.2104,0.4387,349.8057
13:58:23:504,2.8618,1.06,8.7147,58.9808,0.2296,0.0626,0.0978,349.65
13:58:23:524,1.9717,1.1486,8.985,58.3897,-0.0185,-0.0681,-0.3053,349.9678
13:58:23:543,0.6556,1.3854,8.985,59.1802,-0.1589,-0.1121,-0.5924,350.6333
13:58:23:561,-0.2991,1.7707,8.595,57.748,-0.0856,-0.0131,-0.6242,351.3447
13:58:23:581,-0.4355,2.1583,7.9442,58.7954,0.1269,0.175,-0.4129,351.7842
13:58:23:604,0.2201,2.3761,7.3412,60.1381,0.3309,0.3069,-0.1355,351.8773
13:58:23:624,0.8231,2.8403,7.0277,59.4221,0.4226,0.3204,0.0074,351.8222
13:58:23:643,1.2203,3.1274,6.9057,58.5417,0.4152,0.2739,-0.0036,351.7516
13:58:23:662,1.3089,3.192,6.9392,60.6564,0.3578,0.219,-0.1245,351.861
13:58:23:692,1.0002,3.2327,7.0875,60.9937,0.2906,0.153,-0.3029,352.1696
13:58:23:707,0.6269,3.1274,7.4536,60.6769,0.2393,0.0919,-0.4495,352.6679
13:58:23:721,0.2201,3.0508,7.9753,59.6898,0.2002,0.0003,-0.5204,353.2579
13:58:23:741,-0.1579,3.0365,8.3844,60.7892,0.1831,-0.0706,-0.5191,353.8574
13:58:23:762,-0.7346,3.4002,9.1669,60.6769,0.2088,0.0834,-0.3102,354.3877
13:58:23:782,-0.7705,3.5414,9.8201,57.1614,0.2015,0.1335,-0.1856,354.8932
13:58:23:806,-0.5504,3.6347,10.4782,60.3434,0.2063,0.0992,-0.1172,354.999
13:58:23:825,-0.3589,3.5844,10.8802,59.8849,0.2491,0.0943,-0.1306,355.1318
13:58:23:841,-0.7394,3.7448,10.8993,60.6985,0.2796,0.1811,-0.232,355.3821
13:58:23:861,-1.5075,3.9984,10.6194,61.0101,0.2625,0.3387,-0.3469,355.7032
13:58:23:880,-2.0124,3.752,10.2604,62.2141,0.199,0.4792,-0.4067,356.049
13:58:23:904,-1.8353,3.2566,10.8467,61.177,0.0329,0.3876,-0.4532,356.4734
13:58:23:922,-0.7418,1.6558,12.4451,60.0988,-0.2151,-0.0131,-0.5436,357.1014
13:58:23:942,-0.9356,0.7466,13.6367,60.4125,-0.407,-0.5764,-0.7623,358.1086
13:58:23:961,-2.7541,1.0385,13.3735,59.9801,-0.3508,-0.7682,-0.9602,359.4202
13:58:23:982,-3.8859,0.7585,11.5214,61.0987,0.0341,-0.3369,-0.8001,0.4711
13:58:24:006,-3.9601,0.658,9.5665,60.7136,0.4641,0.1579,-0.3261,0.885
13:58:24:022,-3.2973,1.2514,8.3964,59.995,0.5521,0.2862,0.1785,0.7166
13:58:24:042,-1.7755,1.4261,8.3725,60.7603,0.2992,0.1554,0.5315,0.1632
13:58:24:061,-0.9523,1.4309,8.741,59.9804,-0.0246,0.0748,0.5853,359.5491
13:58:24:082,-1.3017,1.596,8.8534,58.2775,-0.1687,0.1493,0.4179,359.1007
13:58:24:103,-1.5529,1.6463,8.4251,59.8355,-0.1015,0.2336,0.3275,358.7357
13:58:24:125,-1.4501,1.6845,7.8197,59.8356,0.039,0.2251,0.3898,358.3029
13:58:24:142,-1.1581,1.8927,7.5063,60.7726,0.1208,0.1273,0.4729,357.8061
13:58:24:162,-0.859,2.0291,7.3244,60.8419,0.1269,0.0223,0.4827,357.3087
13:58:24:182,-0.9236,2.1535,7.4058,61.8316,0.1074,-0.0046,0.4081,356.9375
13:58:24:202,-1.1844,2.2851,7.3292,60.582,0.0976,-0.0156,0.3128,356.6644
13:58:24:323,-1.1151,2.3713,6.9799,61.6285,0.1416,0.004,0.3092,356.088
13:58:24:324,-0.9212,2.5436,7.1497,61.2207,0.1062,-0.0254,0.3177,355.8084
13:58:24:325,-1.0074,2.8427,7.4824,60.2086,0.0353,-0.0596,0.2786,355.5768
13:58:24:325,-1.2443,3.1968,7.9059,59.7313,-0.0246,-0.0657,0.2005,355.4472
13:58:24:326,-1.3902,3.405,8.4395,59.4781,-0.0685,-0.0412,0.1308,355.4027
13:58:24:327,-1.194,3.5031,8.863,60.5173,-0.0979,-0.0266,0.1235,355.3191
13:58:24:340,-0.792,3.283,9.2554,60.2086,-0.1101,-0.062,0.1332,355.2937
13:58:24:360,-0.6963,3.0915,9.6335,61.5379,-0.1382,-0.1402,0.0575,355.3802
13:58:24:382,-0.6987,2.9719,10.3035,61.2207,-0.2103,-0.2306,-0.0598,355.5412
13:58:24:406,-0.4475,2.8929,11.33,59.739,-0.3056,-0.3296,-0.1306,355.8015
13:58:24:422,-0.2632,2.9671,12.2943,58.7952,-0.385,-0.3345,-0.1453,356.0726
13:58:24:444,-0.2608,2.8953,13.0768,59.0855,-0.3996,-0.2551,-0.1306,356.2987
13:58:24:462,-0.2608,3.0102,13.34,60.7511,-0.3116,-0.2074,-0.1037,356.4727
13:58:24:480,0.1172,2.9145,12.7561,60.8463,-0.1125,-0.106,-0.0292,356.5644
13:58:24:503,0.6102,2.7422,11.7129,60.1335,0.1269,0.0663,0.0746,356.4641
13:58:24:522,0.725,2.9264,10.5141,60.1941,0.287,0.2092,0.143,356.265
13:58:24:541,0.6389,2.9432,9.4612,59.9167,0.3749,0.3717,0.1833,355.9697
13:58:24:561,0.615,2.6058,8.6548,57.7244,0.4091,0.4511,0.1833,355.6474
13:58:24:581,0.5815,2.3474,8.193,59.6697,0.3322,0.2776,0.0941,355.4771
13:58:24:607,0.6724,1.9167,8.0758,58.6066,0.1526,0.0076,-0.0243,355.5013
13:58:24:625,0.8231,1.7396,8.3725,59.3484,-0.1015,-0.1292,-0.0781,355.6367
13:58:24:643,0.9906,1.8066,8.8582,57.7244,-0.3544,-0.0718,-0.0243,355.6788
13:58:24:662,1.1964,1.864,9.2626,59.2046,-0.4974,0.0821,0.0221,355.6264
13:58:24:686,0.28,2.2588,8.9037,59.625,-0.3483,0.1958,-0.1367,355.7107
13:58:24:705,-0.0838,2.4191,8.1835,57.7681,-0.1382,0.208,-0.1477,355.8357
13:58:24:724,-0.1507,2.5388,7.4608,57.768,0.0475,0.2006,-0.1147,355.934
13:58:24:743,-0.2513,2.7278,6.9488,59.3484,0.1379,0.175,-0.1062,356.0322
13:58:24:762,-0.5838,3.0437,6.5946,59.5853,0.1391,0.1921,-0.1208,356.1438
13:58:24:781,-0.5815,3.2279,6.53,57.4383,0.0585,0.2483,-0.1343,356.2612
13:58:24:804,-0.3948,3.0461,6.8985,59.2254,-0.0807,0.2544,-0.1783,356.4169
13:58:24:822,-0.737,2.9719,7.4393,58.5166,-0.2164,0.175,-0.3249,356.7684
13:58:24:844,-1.5194,2.9743,8.0423,57.4089,-0.2921,0.0589,-0.4935,357.3187
13:58:24:861,-1.8784,2.8953,8.4993,56.7972,-0.3116,-0.029,-0.5081,357.9323
13:58:24:883,-2.0243,2.7541,9.0832,59.1854,-0.3104,-0.0767,-0.3664,358.4079
13:58:24:904,-1.9621,2.6943,9.7436,56.4219,-0.319,-0.1439,-0.1978,358.7285
13:58:24:923,-1.8425,2.747,10.6552,59.2458,-0.3349,-0.2123,-0.0622,358.9065
13:58:24:941,-1.4309,2.9791,11.7607,57.3357,-0.3361,-0.2392,0.06,358.9386
13:58:24:960,-0.5192,2.8235,12.7849,58.961,-0.2799,-0.1451,0.187,358.8057
13:58:24:979,0.0933,2.5053,13.1964,57.1029,-0.1382,0.0504,0.2359,358.5512
13:58:25:000,-0.1531,2.3091,12.7322,57.3735,0.0707,0.2397,0.1479,358.3524
13:58:25:023,-1.1127,2.2469,11.3779,55.8149,0.2833,0.3998,0.0086,358.2915
13:58:25:041,-2.4024,2.522,9.7962,58.8898,0.3933,0.5391,-0.0414,358.2946
13:58:25:060,-3.2303,3.0724,8.8295,56.8349,0.3322,0.6368,0.0807,358.1572
13:58:25:080,-2.9073,3.125,8.93,56.8827,0.1098,0.6026,0.3067,357.7527
13:58:25:104,-1.7707,2.4,10.1791,58.1342,-0.2029,0.3485,0.4362,357.2389
13:58:25:124,-1.6487,1.7611,11.6387,56.2648,-0.4265,0.0247,0.3458,356.7301
13:58:25:143,-2.8475,1.4118,10.8586,57.5272,-0.0136,0.0724,0.3507,356.3603
13:58:25:165,-2.4431,1.3113,9.4349,55.5802,0.3652,0.324,0.6757,355.6263
13:58:25:179,-1.5793,1.4859,8.3773,54.2505,0.4751,0.3363,0.9836,354.5197
13:58:25:201,-0.725,1.8042,8.1117,56.4005,0.3126,0.1884,1.1131,353.299
13:58:25:226,-0.1244,2.0195,8.4921,55.6143,0.0157,0.065,1.0178,352.1864
13:58:25:245,0.134,1.8305,9.1382,55.7013,-0.2603,0.0479,0.7746,351.3496
13:58:25:261,-0.3541,1.5984,9.5186,55.7936,-0.385,0.098,0.5022,350.803
13:58:25:280,-1.1486,1.6845,9.2531,56.0003,-0.3398,0.1481,0.3556,350.4187
13:58:25:304,-1.4046,1.8975,8.5759,57.2298,-0.1785,0.1786,0.4033,349.9937
13:58:25:322,-1.2323,2.0722,7.8197,54.5857,0.0035,0.2348,0.5462,349.4031
13:58:25:341,-0.8255,2.345,7.2861,54.2511,0.1013,0.2642,0.6512,348.6761
13:58:25:361,-0.2776,2.5555,7.2263,56.5518,0.0817,0.2068,0.6965,347.8731
13:58:25:389,-0.0024,2.8259,7.6403,53.9371,-0.0062,0.1017,0.6488,347.1572
13:58:25:404,0.0694,2.9934,7.9825,54.0773,-0.0527,0.0089,0.512,346.6015
13:58:25:419,-0.0622,3.0365,8.0853,55.1426,-0.0026,-0.0449,0.3238,346.2638
13:58:25:439,-0.3374,3.0054,7.9011,54.8897,0.0866,-0.0767,0.1394,346.1516
13:58:25:460,-0.737,2.9145,7.9825,54.7099,0.1,-0.1207,-0.0085,346.2323
13:58:25:480,-1.1725,2.9288,8.4754,53.9781,0.0267,-0.1976,-0.1037,346.4364
13:58:25:502,-1.5577,3.0772,8.9707,55.5242,-0.0405,-0.2416,-0.1367,346.6983
13:58:25:521,-1.5697,3.0891,9.2483,56.19,-0.0466,-0.2404,-0.1074,346.9276
13:58:25:540,-1.2467,2.9384,9.5737,55.1763,-0.0356,-0.2697,-0.0671,347.126
13:58:25:561,-0.8782,2.7422,9.9135,54.873,-0.0771,-0.3589,-0.0928,347.3666
13:58:25:580,-0.7322,2.6106,10.6098,55.0837,-0.1968,-0.4298,-0.177,347.7065
13:58:25:603,-0.7131,2.4191,12.067,55.2238,-0.468,-0.4481,-0.2858,348.1457
13:58:25:623,0.0144,1.8568,12.8279,55.509,-0.5218,-0.3943,-0.2479,348.926
13:58:25:644,0.4881,1.4142,13.4548,56.0764,-0.5316,-0.3931,-0.2479,349.2925
13:58:25:661,0.4427,1.0816,13.7492,53.9742,-0.4558,-0.3699,-0.309,349.7116
13:58:25:680,0.0168,0.8806,13.2012,54.4188,-0.2359,-0.2074,-0.3224,350.1159
13:58:25:704,-0.012,0.8495,12.1842,53.8066,0.0768,0.0492,-0.1783,350.3248
13:58:25:720,0.7489,0.8327,11.1673,55.916,0.3297,0.1945,0.0941,350.1898
13:58:25:743,1.9095,0.9428,10.6552,53.7175,0.4226,0.1554,0.3055,349.7935
13:58:25:760,2.7326,1.0672,10.1886,51.1129,0.4006,0.0504,0.3055,349.3975
13:58:25:781,2.6369,1.2275,9.5115,54.1675,0.3529,0.0724,0.0795,349.2552
13:58:25:801,1.6845,1.5099,8.6094,52.5423,0.3187,0.2006,-0.2296,349.4211
13:58:25:824,0.8231,1.7109,7.748,53.0055,0.2943,0.3118,-0.4299,349.7822
13:58:25:840,0.2225,1.8855,7.0851,54.1926,0.2882,0.3143,-0.4849,350.2527
13:58:25:860,-0.055,2.1176,6.597,52.5699,0.3053,0.2116,-0.4605,350.7337
13:58:25:879,-0.0933,2.4096,6.2285,53.9288,0.3163,0.1066,-0.4275,351.2097
13:58:25:900,-0.1579,2.5627,5.9366,52.6559,0.3102,0.0846,-0.4422,351.6946
13:58:25:922,-0.3493,2.6488,5.7165,54.7605,0.2784,0.1053,-0.5179,352.2624
13:58:25:942,-0.4666,2.6106,5.6973,53.5695,0.1953,0.0528,-0.6157,352.9579
13:58:25:961,-0.5647,2.5316,6.0897,52.312,0.028,-0.1096,-0.7146,353.7936
13:58:25:979,-0.7442,2.3689,7.0588,52.4398,-0.2103,-0.3002,-0.8099,354.7829
13:58:26:003,-1.0768,2.2325,7.9418,53.6305,-0.4241,-0.4151,-0.8637,355.8795
13:58:26:022,-1.5816,2.2493,8.8606,53.3388,-0.5572,-0.3833,-0.8551,356.972
13:58:26:046,-2.1727,2.4574,9.7555,53.9353,-0.6122,-0.3112,-0.7256,357.9053
13:58:26:061,-1.6487,3.0341,11.9904,54.2548,-0.4705,-0.3894,-0.0989,358.5559
13:58:26:079,-0.2991,3.2853,12.7011,50.8509,-0.242,-0.365,0.2432,358.7512
13:58:26:103,0.7561,3.4935,12.6676,53.3866,0.0194,-0.1365,0.413,358.1699
13:58:26:124,1.084,3.4098,12.4283,53.3866,0.2039,0.1127,0.2933,357.8272
13:58:26:140,0.5384,3.1944,12.079,51.8515,0.2686,0.175,-0.0573,357.868
13:58:26:160,-0.7394,3.1681,11.3468,51.8562,0.2967,0.2397,-0.4153,358.3006
13:58:26:181,-1.9813,3.1537,10.3537,50.9339,0.3309,0.4572,-0.5546,358.886
13:58:26:203,-2.4359,3.1083,9.8369,51.7833,0.3041,0.5904,-0.4752,359.3678
13:58:26:222,-2.0961,2.3857,10.4423,50.8524,0.1501,0.3912,-0.375,359.7653
13:58:26:240,-2.053,1.6606,11.3659,52.4453,-0.0453,-0.0095,-0.4226,0.2923
13:58:26:259,-3.0796,1.4812,11.3372,52.7978,-0.0405,-0.1622,-0.4947,0.9651
13:58:26:279,-3.7615,1.1677,10.337,52.57,0.2161,0.0345,-0.3554,1.472
13:58:26:303,-3.728,0.8806,9.1119,51.7906,0.5044,0.2703,0.0355,1.5281
13:58:26:321,-3.1298,1.151,8.2385,53.332,0.5985,0.3118,0.5169,1.0197
13:58:26:422,-2.0124,1.5625,8.0853,54.2569,0.4385,0.2019,0.9127,0.0845
13:58:26:423,-0.9069,1.7635,8.5041,51.7955,0.1685,0.1762,1.0886,358.9286
13:58:26:424,-0.3781,1.7109,8.9468,52.0888,-0.0612,0.2238,0.986,357.8351
13:58:26:425,-0.6652,1.5697,9.2746,52.1789,-0.1834,0.2104,0.7013,357.0693
13:58:26:425,-1.4836,1.5673,9.0712,51.3603,-0.1846,0.1567,0.457,356.5929
13:58:26:441,-2.1296,1.6558,8.2122,50.7756,-0.0795,0.2202,0.4411,356.1322
13:58:26:459,-2.132,1.8521,7.2215,53.1027,0.0634,0.3754,0.5951,355.4565
13:58:26:483,-1.8927,1.9095,6.5348,53.3089,0.1294,0.4804,0.7392,354.6126
13:58:26:500,-1.4381,2.4742,6.6281,52.1152,-0.0918,0.2385,0.7942,353.6968
13:58:26:522,-1.3472,2.6752,7.0636,52.0014,-0.2371,0.1591,0.7221,352.0244
13:58:26:538,-1.3448,2.7685,7.2981,52.4416,-0.2897,0.2104,0.6085,351.3574
13:58:26:559,-1.4381,2.9025,7.468,50.9094,-0.2884,0.2703,0.4961,350.8162
13:58:26:578,-1.5338,3.0915,7.882,53.0419,-0.3239,0.2593,0.4106,350.3506
13:58:26:604,-1.6415,3.1753,8.4419,52.196,-0.3837,0.208,0.3422,350.0029
13:58:26:622,-1.8305,3.2231,8.9013,52.3764,-0.385,0.1554,0.297,349.7014
13:58:26:639,-1.7779,3.0508,9.0257,51.7135,-0.3116,0.1102,0.2701,349.4557
13:58:26:659,-1.6869,2.79,8.9228,51.1626,-0.2396,0.0748,0.2383,349.2317
13:58:26:680,-1.7611,2.6824,8.9922,51.135,-0.275,0.0235,0.2005,349.0773
13:58:26:703,-1.6654,2.4455,9.5186,51.5825,-0.4253,-0.0559,0.1772,348.9498
13:58:26:721,-1.3304,2.187,10.5164,51.4864,-0.6317,-0.1964,0.1662,348.8619
13:58:26:741,-0.9428,2.01,11.653,53.1678,-0.804,-0.3345,0.1748,348.7831
13:58:26:760,-0.4331,1.7994,12.7107,52.5262,-0.8822,-0.4041,0.2078,348.6561
13:58:26:785,0.0933,1.7659,13.7731,51.8677,-0.8822,-0.4383,0.2163,348.5056
13:58:26:804,0.5264,1.6295,14.4718,52.1159,-0.7759,-0.3503,0.2212,348.3133
13:58:26:823,0.6269,1.1605,14.1105,52.2985,-0.5218,-0.0754,0.2322,348.0609
13:58:26:839,0.1364,1.1342,12.9476,54.4148,-0.1822,0.2275,0.2285,347.7878
13:58:26:859,0.0359,1.1414,11.5645,50.5453,0.1184,0.4254,0.2872,347.4286
13:58:26:880,0.5551,0.8949,10.7845,51.754,0.2906,0.4939,0.4142,346.8539
13:58:26:901,1.4022,0.7346,10.7964,49.7665,0.254,0.2862,0.4411,346.2702
13:58:26:920,2.3857,0.3517,11.5549,53.1354,0.0781,-0.0999,0.2823,345.8927
13:58:26:939,2.4455,0.0718,11.8517,52.3956,-0.0172,-0.3283,-0.0036,345.8998
13:58:26:960,0.8877,0.134,9.7675,54.4114,0.2576,0.0284,-0.3799,346.1992
13:58:26:982,0.4235,0.5647,8.5256,53.5949,0.3761,0.1872,-0.3469,346.9207
13:58:27:001,0.1077,1.0552,7.5278,53.0356,0.4311,0.2495,-0.243,347.1597
13:58:27:021,-0.079,1.4812,6.7095,54.8531,0.4861,0.2947,-0.1612,347.3237
13:58:27:039,-0.2321,1.8616,5.927,55.4777,0.5423,0.3411,-0.1294,347.433
13:58:27:061,-0.2943,2.12,5.3408,54.9198,0.5606,0.3705,-0.1257,347.5469
13:58:27:085,-0.347,2.3306,5.0536,55.2801,0.4995,0.313,-0.1648,347.7136
13:58:27:102,-0.4475,2.6154,5.2427,53.716,0.3334,0.1493,-0.2638,348.0179
13:58:27:121,-0.4738,2.6943,6.0084,56.3562,0.0842,-0.0632,-0.397,348.5201
13:58:27:140,-0.5504,2.4909,6.8483,54.9857,-0.1516,-0.222,-0.5326,349.2129
13:58:27:160,-0.8758,2.2349,7.614,55.3149,-0.3214,-0.2783,-0.6389,350.0304
13:58:27:180,-1.2275,2.0626,8.5878,54.989,-0.49,-0.3161,-0.7012,350.9267
13:58:27:202,-1.6822,2.0913,9.7986,56.2807,-0.6452,-0.3784,-0.667,351.8146
13:58:27:220,-2.0411,2.2756,10.9711,56.1857,-0.6818,-0.4383,-0.5155,352.5548
13:58:27:241,-1.943,2.4909,11.8325,56.5546,-0.5499,-0.3968,-0.2516,352.9809
13:58:27:261,-1.3591,2.7254,12.3206,55.7634,-0.3104,-0.2453,0.0783,353.0104
13:58:27:279,-0.201,2.936,12.4116,56.1857,-0.049,-0.0131,0.3751,352.6179
13:58:27:301,0.6341,3.0173,12.1842,56.7923,0.1685,0.2043,0.4753,352.0778
13:58:27:320,0.4642,3.2638,11.6507,57.6905,0.309,0.3216,0.2896,351.7115
13:58:27:339,-0.4498,3.4313,10.8873,57.2915,0.3664,0.3656,-0.0524,351.74
13:58:27:360,-1.3807,3.271,10.3131,58.165,0.3151,0.3888,-0.3762,352.1544
13:58:27:380,-1.9143,2.7709,10.4806,58.6925,0.1306,0.335,-0.5998,352.8351
13:58:27:403,-1.7037,1.6558,11.6028,59.5318,-0.1638,0.1225,-0.7451,354.8264
13:58:27:422,-3.3643,0.4977,13.1031,59.8818,-0.3898,-0.4224,-1.0433,356.0773
13:58:27:440,-4.6421,0.3254,11.6722,58.9595,0.0145,-0.1842,-0.8221,357.1695
13:58:27:458,-4.8168,0.2345,9.667,59.1611,0.6095,0.2581,-0.188,357.5106
13:58:27:478,-4.0774,0.5121,7.9083,58.9062,1.0005,0.4206,0.5315,357.0151
13:58:27:510,-2.7733,0.9619,6.9105,59.3663,0.9809,0.2385,1.0434,355.9201
13:58:27:519,-1.273,1.3854,7.0277,58.1276,0.6071,-0.0009,1.2731,354.6089
13:58:27:539,-0.067,1.3567,7.9394,57.9343,0.0988,-0.0767,1.1937,353.3588
13:58:27:558,0.134,1.1629,9.1023,59.6391,-0.2933,-0.0718,0.8321,352.4919
13:58:27:578,-0.6508,1.0744,9.7555,60.192,-0.4436,-0.1182,0.3935,352.1466
13:58:27:600,-1.4979,1.0504,9.6814,59.7616,-0.3508,-0.128,0.1662,352.0745
13:58:27:620,-1.7827,1.0887,9.064,58.0569,-0.1284,-0.0913,0.1955,351.9582
13:58:27:640,-1.7013,1.2538,8.1978,60.6157,0.0915,0.0015,0.3373,351.6712
13:58:27:660,-1.4931,1.4596,7.4297,61.4149,0.2124,0.0943,0.4448,351.2339
13:58:27:679,-1.3831,1.6774,6.9224,60.0586,0.2234,0.1542,0.4912,350.7354
13:58:27:702,-1.3711,2.0626,6.8148,61.1753,0.155,0.1506,0.4863,350.2447
13:58:27:725,-1.1151,2.2636,7.0014,61.8207,0.0463,0.0968,0.4509,349.803
13:58:27:740,-0.8136,2.3139,7.4082,60.6351,-0.0514,0.0259,0.3678,349.4578
13:58:27:758,-0.8088,2.4526,7.8532,61.2592,-0.1198,-0.0315,0.22,349.2774
13:58:27:779,-1.0576,2.5388,8.2792,62.2111,-0.1541,-0.0425,0.06,349.2869
13:58:27:799,-1.5625,2.6178,8.4945,62.7731,-0.1577,-0.0131,-0.0561,349.4294
13:58:27:821,-1.8688,2.5723,8.6261,61.5881,-0.1614,-0.0156,-0.1037,349.6316
13:58:27:841,-1.6582,2.3593,8.9587,62.5432,-0.2176,-0.117,-0.0964,349.8313
13:58:27:859,-1.2132,2.0028,9.5306,61.7474,-0.33,-0.2587,-0.0879,350.0385
13:58:27:880,-1.0361,1.5003,11.019,62.113,-0.6794,-0.4884,-0.2284,350.6657
13:58:27:907,-1.2227,1.6391,12.067,62.6086,-0.859,-0.5666,-0.2614,351.1017
13:58:27:919,-1.1773,1.7659,13.218,63.773,-0.9433,-0.5226,-0.16,351.438
13:58:27:940,-0.5934,1.73,14.0483,61.6423,-0.8627,-0.3772,0.0514,351.4816
13:58:27:960,0.2632,1.4788,14.2349,64.1008,-0.6146,-0.1793,0.2591,351.2398
13:58:27:979,0.7968,1.1749,13.6798,63.2931,-0.2884,0.0199,0.3336,350.8831
13:58:28:001,0.6485,1.0744,12.682,62.6666,0.0072,0.142,0.2713,350.5823
13:58:28:020,0.5288,0.9739,11.5645,63.256,0.2491,0.1872,0.2371,350.3205
13:58:28:040,0.8327,0.8686,10.6074,62.9668,0.436,0.1945,0.2884,349.9922
13:58:28:060,1.4907,0.7466,9.9541,62.7356,0.5374,0.1677,0.3324,349.5913
13:58:28:079,2.1583,0.6604,9.6191,62.7356,0.5289,0.1176,0.2896,349.2231
13:58:28:100,2.5292,0.524,9.3344,64.8383,0.425,0.0883,0.1394,349.016
13:58:28:120,2.1703,0.5527,9.0664,64.8645,0.2772,0.0907,-0.0842,349.0731
13:58:28:139,1.4189,0.7657,8.8104,62.9237,0.1648,0.1457,-0.287,349.351
13:58:28:159,0.8231,0.95,8.4969,64.3617,0.1172,0.1982,-0.3921,349.7568
13:58:28:179,0.3637,1.2227,8.1619,62.7987,0.1391,0.2031,-0.4153,350.2073
13:58:28:203,0.0766,1.395,7.7527,62.4482,0.21,0.1909,-0.4165,350.6631
13:58:28:222,-0.2345,1.6582,7.2526,64.3617,0.2943,0.1921,-0.4251,351.135
13:58:28:244,-0.4331,1.8257,6.731,63.1159,0.3627,0.208,-0.4238,351.6082
13:58:28:259,-0.4379,2.0028,6.384,62.6234,0.3664,0.2141,-0.4006,352.0564
13:58:28:279,-0.3015,2.2205,6.4487,64.7703,0.2674,0.197,-0.3713,352.4608
13:58:28:302,-0.1555,2.3043,6.9751,63.8176,0.0707,0.1444,-0.3823,352.8947
13:58:28:319,-0.1962,2.2062,7.6403,64.0083,-0.1394,0.0809,-0.4874,353.4514
13:58:28:338,-1.1246,2.1942,8.7051,63.569,-0.3532,0.0101,-0.634,354.1573
13:58:28:359,-1.6439,2.5388,9.1119,65.8658,-0.3886,0.0113,-0.5118,355.4673
13:58:28:379,-1.7611,2.9815,9.2961,66.3136,-0.3373,0.0883,-0.2748,355.8184
13:58:28:402,-1.3065,3.2806,9.3535,65.5455,-0.2115,0.175,-0.0011,355.8344
13:58:28:422,-0.7753,3.5964,9.8154,65.4322,-0.1321,0.1481,0.176,355.6686
13:58:28:564,-0.0311,3.5797,10.7127,67.8708,-0.1418,0.0345,0.1955,355.4653
13:58:28:565,0.5288,3.192,11.6028,65.4785,-0.1333,-0.0351,0.0538,355.4232
13:58:28:566,0.4666,2.68,11.988,63.8769,-0.038,-0.0034,-0.2113,355.653
13:58:28:578,-0.2704,2.1823,12.0096,61.78,0.0768,0.0309,-0.5265,356.2296
13:58:28:578,-1.4692,2.065,11.6866,65.7792,0.1159,0.0406,-0.7598,357.0862
13:58:28:578,-2.5508,1.9717,11.3372,66.6997,0.0671,0.1774,-0.7916,358.0107
13:58:28:579,-3.2638,1.9693,11.4473,66.1215,-0.038,0.3778,-0.6425,358.7612
13:58:28:579,-3.2662,1.73,12.1005,67.047,-0.1247,0.4034,-0.4006,359.2375
13:58:28:601,-2.9097,1.139,12.6269,65.2923,-0.093,0.1896,-0.2186,359.5432
13:58:28:620,-3.2518,1.0911,11.9282,66.0418,0.1342,-0.007,-0.1294,359.7661
13:58:28:639,-3.7041,1.2012,10.3657,64.7384,0.4898,0.0675,0.0318,359.8245
13:58:28:659,-3.5557,1.2203,8.7793,66.075,0.7671,0.1958,0.2994,359.5666
13:58:28:678,-2.9312,1.084,7.6977,65.9299,0.7915,0.1701,0.5279,359.0358
13:58:28:701,-2.3115,1.206,7.6499,65.6542,0.5154,-0.0473,0.6403,358.4179
13:58:28:722,-1.6271,1.2514,8.7075,65.6733,0.0622,-0.2966,0.6256,357.8454
13:58:28:738,-1.2108,0.8542,9.935,65.0776,-0.297,-0.3711,0.5144,357.4028
13:58:28:759,-1.2706,0.6269,10.5404,65.8786,-0.3984,-0.3027,0.3703,357.1021
13:58:28:779,-1.6654,0.6963,10.3729,64.9957,-0.2909,-0.1597,0.3043,356.8624
13:58:28:804,-1.9214,1.1797,8.3103,63.7951,0.21,0.0992,0.5242,355.9297
13:58:28:819,-1.8353,1.517,7.3747,65.1838,0.3591,0.131,0.6293,355.2886
13:58:28:838,-1.596,1.7898,6.6425,64.2097,0.3896,0.1457,0.6867,354.5649
13:58:28:859,-1.5458,2.077,6.2572,63.9731,0.3432,0.1896,0.6965,353.8255
13:58:28:878,-1.4572,2.3474,6.1519,64.5241,0.232,0.186,0.6684,353.1123
13:58:28:907,-1.3567,2.5795,6.4558,63.7678,0.0768,0.1176,0.6012,352.4976
13:58:28:923,-1.273,2.8092,7.0301,64.2798,-0.0783,0.0162,0.4888,352.0141
13:58:28:940,-1.3137,2.8905,7.6379,62.9262,-0.1773,-0.0449,0.3434,351.7123
13:58:28:958,-1.5649,2.991,8.1308,64.2437,-0.2103,-0.0583,0.2017,351.5582
13:58:28:978,-1.8066,2.9719,8.4203,63.3183,-0.2078,-0.0754,0.0905,351.5316
13:58:29:001,-2.0339,2.8546,8.6979,64.0621,-0.2164,-0.106,0.0123,351.6
13:58:29:018,-2.0004,2.589,9.1693,64.7527,-0.286,-0.1793,-0.05,351.7624
13:58:29:038,-1.6487,2.1631,9.8632,63.9731,-0.4106,-0.2941,-0.1037,351.9891
13:58:29:057,-1.0648,1.5434,10.9017,63.5186,-0.5597,-0.442,-0.1746,352.3092
13:58:29:078,-0.9811,1.3113,12.1292,63.6786,-0.7295,-0.5898,-0.2724,352.7603
13:58:29:103,-1.4596,1.3878,13.4405,63.5157,-0.859,-0.6179,-0.3347,353.2661
13:58:29:123,-1.6678,1.1773,14.2253,63.9228,-0.804,-0.4407,-0.2223,353.6273
13:58:29:140,-1.3639,1.0385,14.3785,63.8528,-0.5523,-0.2196,0.0685,353.6078
13:58:29:158,-0.2513,0.8877,14.1057,65.2345,-0.2567,-0.1096,0.4106,353.1772
13:58:29:179,0.7872,0.7035,13.8664,64.2498,-0.0429,-0.0791,0.5999,352.5291
13:58:29:202,1.0863,0.7178,13.3926,62.924,0.1196,0.0052,0.5987,351.8347
13:58:29:219,0.993,0.7825,12.39,61.9125,0.3578,0.1921,0.5865,351.1419
13:58:29:238,1.3878,0.7466,11.0883,63.6867,0.6694,0.346,0.6464,350.3337
13:58:29:257,2.8307,0.7872,8.8128,64.103,0.9858,0.2837,0.6525,349.4573
13:58:29:279,3.192,0.804,8.0255,62.1099,0.8832,0.1909,0.4484,347.9898
13:58:29:301,2.7015,1.0026,7.4058,62.1099,0.6767,0.1689,0.1088,347.7737
13:58:29:321,1.675,1.2275,6.9153,62.4755,0.458,0.2031,-0.2443,347.9618
13:58:29:337,0.8614,1.3137,6.597,62.1099,0.2821,0.2226,-0.4874,348.4305
13:58:29:357,0.1962,1.4596,6.4989,61.8431,0.1477,0.1542,-0.6157,349.0713
13:58:29:379,-0.2943,1.6032,6.5659,62.6523,0.0426,0.0394,-0.6645,349.8051
13:58:29:398,-0.548,1.7922,6.5731,61.2417,-0.0075,-0.0254,-0.6608,350.5617
13:58:29:419,-0.6197,1.9167,6.3577,59.9528,-0.0111,0.0113,-0.6315,351.2749
13:58:29:438,-0.6915,2.0626,6.2166,61.4133,-0.038,0.0724,-0.6181,351.9494
13:58:29:459,-0.6604,2.2421,6.5276,61.4954,-0.1516,0.0369,-0.6218,352.6474
13:58:29:479,-0.6126,2.2421,7.2096,61.8622,-0.3166,-0.062,-0.6242,353.3576
13:58:29:501,-0.6652,2.1488,7.8724,61.4349,-0.4326,-0.1158,-0.645,354.1121
13:58:29:520,-1.0289,2.2181,8.3294,61.7163,-0.4754,-0.1109,-0.6608,354.8914
13:58:29:538,-1.3424,2.2588,8.8008,60.5902,-0.4925,-0.1145,-0.6205,355.6317
13:58:29:558,-1.5984,2.4096,9.387,61.8321,-0.5071,-0.1622,-0.5106,356.2835
13:58:29:577,-1.7348,2.6441,9.9828,61.2609,-0.512,-0.2269,-0.353,356.7671
13:58:29:599,-1.5673,2.8355,10.7868,62.7307,-0.5059,-0.277,-0.177,357.0457
13:58:29:633,-1.1462,3.0221,11.6746,61.7884,-0.4754,-0.2819,-0.0207,357.1402
13:58:29:637,-0.4187,3.082,12.4546,61.2455,-0.3813,-0.1964,0.0893,357.0792
13:58:29:657,0.3039,2.8355,12.9045,59.6697,-0.2041,-0.0205,0.1137,356.928
13:58:29:677,0.2919,2.6178,12.8303,60.5417,0.0023,0.1225,-0.0195,356.9084
13:58:29:698,-0.7657,2.6225,12.1675,61.464,0.1624,0.1848,-0.2662,357.1907
13:58:29:721,-2.5196,2.455,10.5117,60.4685,0.2564,0.3888,-0.4263,357.6831
13:58:29:741,-2.4335,2.0267,10.8036,61.5965,0.122,0.3387,-0.331,358.4745
13:58:29:757,-1.9454,1.2562,11.9761,59.9239,-0.0832,0.0443,-0.309,358.8489
13:58:29:777,-2.2349,0.7442,12.5695,59.9617,-0.1431,-0.2721,-0.3909,359.3874
13:58:29:800,-3.3978,0.6532,11.7918,61.0691,0.0878,-0.2734,-0.4067,359.9715
13:58:29:822,-3.8764,0.5958,10.1886,59.2958,0.5166,-0.0046,-0.1221,0.2386
13:58:29:840,-3.3691,0.6891,8.5687,60.004,0.8551,0.2092,0.3678,359.9283
13:58:29:858,-2.254,0.8303,7.6786,59.4814,0.8771,0.1762,0.76,359.1445
13:58:29:877,-1.1366,1.2179,7.7695,60.1225,0.5912,0.004,0.9176,358.1959
13:58:29:899,-0.2847,1.3687,8.5543,59.9524,0.1856,-0.0803,0.8565,357.2776
13:58:29:920,-0.1172,1.2251,9.3535,58.6674,-0.0942,-0.0315,0.6329,356.6075
13:58:29:939,-0.5145,1.2443,9.7484,59.9524,-0.176,0.0052,0.3788,356.2156
13:58:29:959,-0.7346,1.273,9.7484,59.642,-0.1223,0.0186,0.2725,355.9469
13:58:29:978,-0.804,1.5123,9.2076,60.0035,0.006,0.0504,0.3104,355.6158
13:58:29:999,-0.8447,1.7348,8.4012,58.4216,0.1721,0.1102,0.3715,355.224
13:58:30:017,-0.8447,1.9932,7.5853,57.9939,0.3004,0.1958,0.4033,354.7616
13:58:30:038,-0.9141,2.2253,7.0708,59.1452,0.3383,0.2458,0.4081,354.3071
13:58:30:058,-0.9428,2.4215,6.7454,58.9958,0.3041,0.2397,0.3849,353.8587
13:58:30:078,-0.8136,2.5436,6.5683,56.4776,0.2393,0.1567,0.3299,353.5023
13:58:30:104,-0.7849,2.6871,6.7525,57.0402,0.133,0.0369,0.2322,353.2517
13:58:30:122,-0.7753,2.668,7.0995,57.6704,0.0047,-0.0535,0.1076,353.1404
13:58:30:144,-1.0528,2.534,7.5757,57.391,-0.0856,-0.0962,-0.0292,353.452
13:58:30:160,-2.0483,2.6895,8.1978,58.2864,-0.1333,-0.2123,-0.1844,353.7324
13:58:30:179,-1.7133,2.4718,8.6955,58.2864,-0.1883,-0.3076,-0.1612,354.0458
13:58:30:200,-1.0648,2.0459,9.5426,58.2864,-0.3324,-0.42,-0.1746,354.3738
13:58:30:222,-0.402,1.4931,10.6863,58.2864,-0.5487,-0.525,-0.2772,354.8048
13:58:30:237,-0.28,1.2467,12.2273,58.2864,-0.7869,-0.6289,-0.4361,355.4111
13:58:30:258,-0.8638,1.2945,13.5386,58.2864,-0.9237,-0.6032,-0.5546,356.1393
13:58:30:277,-1.5864,1.34,13.8233,58.2864,-0.7942,-0.3455,-0.5069,356.778
13:58:30:297,-1.4716,1.1797,13.2227,58.2864,-0.4399,-0.0412,-0.2308,357.055
13:58:30:319,-0.6317,1.4309,12.3446,58.2864,-0.1235,0.0431,0.1308,356.8976
13:58:30:338,0.2632,1.5553,11.8421,59.5581,0.0023,0.0516,0.3544,356.4681
13:58:30:357,0.658,1.4309,11.3324,57.1947,0.0267,0.1396,0.3959,356.0213
13:58:30:377,0.3924,1.5864,10.7557,58.9561,0.0646,0.2006,0.3458,355.6045
13:58:30:397,0.4977,1.5912,10.1192,58.8411,0.1501,0.2092,0.3642,355.1809
13:58:30:419,1.1438,1.541,9.6837,59.7766,0.2332,0.1322,0.4558,354.6394
13:58:30:438,1.8903,1.5506,9.3535,56.6477,0.243,0.0235,0.5034,354.0386
13:58:30:458,2.3306,1.6869,9.1358,59.236,0.1673,-0.0144,0.4314,353.5032
13:58:30:477,2.077,1.8042,8.8367,57.698,0.0805,0.0492,0.2481,353.1633
13:58:30:499,1.4692,1.8544,8.4419,57.2789,0.0377,0.1102,0.0172,353.084
13:58:30:517,0.8662,1.8736,8.0207,57.3331,0.0426,0.1029,-0.1844,353.2531
13:58:30:538,0.3254,1.8114,7.6355,58.8782,0.0658,0.0699,-0.3371,353.6056
13:58:30:558,-0.1962,1.7755,7.3125,58.6013,0.0829,0.0345,-0.4446,354.1132
13:58:30:666,-0.5575,1.7324,7.2072,58.1459,0.0719,0.0089,-0.502,354.684
13:58:30:667,-0.7202,1.7898,7.2981,58.4094,0.028,0.0174,-0.513,355.3026
13:58:30:668,-0.7059,1.8927,7.6235,59.2296,-0.0771,0.1066,-0.4532,355.8848
13:58:30:668,-0.6437,2.077,7.8532,59.2296,-0.1198,0.1176,-0.4153,356.3547
13:58:30:668,-0.5001,2.2684,8.4108,57.3841,-0.1992,0.0565,-0.3652,357.239
13:58:30:680,-0.1579,2.3952,9.1095,57.1611,-0.2787,-0.0266,-0.2931,357.5596
13:58:30:701,-0.1268,2.5244,9.6909,59.1395,-0.3031,-0.0547,-0.2443,357.8463
13:58:30:721,-0.4068,2.7781,10.203,59.9481,-0.2701,-0.0498,-0.2174,358.0968
13:58:30:737,-0.7681,3.1178,10.7797,60.2758,-0.2005,-0.0351,-0.1538,358.304
13:58:30:756,-0.6437,3.1968,11.3946,59.6843,-0.1125,-0.0131,-0.0439,358.3668
13:58:30:776,-0.134,3.1848,12.1005,58.3482,-0.0319,-0.0302,0.0465,358.3268
13:58:30:797,0.615,2.9408,12.536,59.2965,0.0842,-0.0217,0.0673,358.2279
13:58:30:816,0.9547,2.479,12.4331,59.3366,0.2662,0.0711,-0.0305,358.2053
13:58:30:837,0.1507,2.5627,11.7727,60.6969,0.3969,0.1347,-0.2638,358.4621
13:58:30:858,-0.7107,2.455,11.1314,61.2073,0.3945,0.208,-0.4813,358.9878
13:58:30:876,-0.9236,1.8233,11.3587,60.3072,0.2576,0.1872,-0.6169,359.6685
13:58:30:895,-1.0457,1.1055,12.3302,61.3283,0.0145,-0.0754,-0.7684,0.5628
13:58:30:917,-2.0219,0.7011,12.883,59.1486,-0.1296,-0.3149,-0.9309,1.7232
13:58:30:936,-3.8237,0.7801,11.7344,59.2846,0.0487,-0.2013,-0.9296,2.912
13:58:30:956,-4.6828,0.7896,9.5809,59.7913,0.5374,0.2898,-0.5729,3.664
13:58:30:976,-4.6421,0.9308,7.401,61.5102,0.9589,0.6454,-0.0182,3.7392
13:58:30:995,-3.8261,0.9882,6.274,61.1265,0.943,0.4963,0.4191,3.3257
13:58:31:016,-2.6082,1.1653,6.6161,60.3973,0.491,0.0125,0.65,2.7102
13:58:31:038,-1.8185,1.2036,8.0399,61.7173,-0.1113,-0.3051,0.6732,2.1395
13:58:31:058,-1.7659,0.938,9.2913,59.7886,-0.4619,-0.1842,0.5841,1.6282
13:58:31:078,-2.3497,0.8423,9.4708,62.3945,-0.3153,0.0504,0.5718,1.1454
13:58:31:103,-2.065,1.0911,8.7601,61.2977,-0.1003,-0.0022,0.7563,359.832
13:58:31:121,-1.7228,1.4501,7.8963,61.7816,0.0671,-0.0034,0.9371,358.8983
13:58:31:139,-1.2682,1.7874,7.3077,62.4393,0.1282,0.087,1.0483,357.8012
13:58:31:157,-0.8758,1.943,6.9846,62.0015,0.0952,0.2043,1.085,356.6346
13:58:31:176,-0.6772,2.2205,6.7478,61.8558,0.0377,0.2923,1.0495,355.4837
13:58:31:199,-0.5791,2.4383,6.7334,61.1497,-0.0417,0.2984,0.9542,354.4264
13:58:31:220,-0.5815,2.5986,6.877,61.7377,-0.1284,0.2055,0.7905,353.5509
13:58:31:237,-0.6867,2.5842,7.2383,61.2168,-0.2176,0.0492,0.5584,352.9589
13:58:31:259,-0.9188,2.3378,7.8365,63.7747,-0.3031,-0.0889,0.3128,352.6778
13:58:31:277,-1.4524,2.2971,8.3246,63.3917,-0.3654,-0.1427,0.1223,352.6428
13:58:31:297,-1.7468,2.2229,8.8511,63.543,-0.4033,-0.1365,0.0441,352.6908
13:58:31:321,-1.5123,1.9095,9.4397,63.0312,-0.4521,-0.1084,0.0477,352.7231
13:58:31:336,-1.2849,1.5936,10.2796,63.5847,-0.556,-0.1317,0.0318,352.749
13:58:31:357,-1.1916,1.3902,11.4066,63.7647,-0.6965,-0.2025,-0.017,352.8454
13:58:31:377,-1.1844,1.1174,12.4379,62.2302,-0.7881,-0.2624,-0.0634,352.9932
13:58:31:397,-1.1773,0.9188,13.1174,63.5252,-0.7747,-0.2636,-0.0573,353.1176
13:58:31:418,-1.0313,0.7609,13.3041,65.0369,-0.6501,-0.1683,0.0526,353.1117
13:58:31:438,-0.5097,0.6221,13.3687,63.5783,-0.5328,-0.0938,0.242,352.8563
13:58:31:460,0.2967,0.6245,13.7516,64.5063,-0.4815,-0.1207,0.4203,352.3678
13:58:31:476,1.1318,0.5288,14.2876,64.5734,-0.4277,-0.1329,0.5205,351.7559
13:58:31:496,1.4692,0.6532,14.3737,64.9122,-0.275,-0.0168,0.556,351.0757
13:58:31:518,1.8209,0.804,13.4333,63.5783,0.0231,0.2727,0.6561,350.2647
13:58:31:539,4.2257,0.6963,11.3013,65.2724,0.7109,0.6148,0.9445,349.1689
13:58:31:559,5.202,0.6796,10.191,65.1264,0.8649,0.4242,0.8101,346.74
13:58:31:578,5.0465,0.6963,8.9874,64.4642,0.8807,0.2397,0.3837,346.0979
13:58:31:606,3.7974,0.7537,7.8126,63.2693,0.794,0.1493,-0.1905,346.144
13:58:31:620,2.2349,0.7681,6.9344,66.0406,0.6376,0.142,-0.6474,346.7384
13:58:31:638,1.0074,0.9069,6.4223,66.5197,0.4629,0.1652,-0.8197,347.5555
13:58:31:656,0.5025,1.2012,6.2524,63.703,0.3016,0.1591,-0.761,348.3362
13:58:31:676,0.5336,1.3735,6.317,64.2379,0.177,0.0846,-0.656,348.999
13:58:31:697,0.591,1.4524,6.408,63.7752,0.1013,-0.0046,-0.6499,349.6891
13:58:31:717,0.28,1.5769,6.5563,64.3613,0.0585,-0.0486,-0.7476,350.4889
13:58:31:743,-0.1555,1.6654,6.6114,63.4179,0.0329,-0.0681,-0.86,351.4191
13:58:31:757,-0.5001,1.675,6.5707,62.9196,-0.0075,-0.0816,-0.9162,352.4283
13:58:31:775,-0.6485,1.7779,6.6161,64.6437,-0.0734,-0.1268,-0.8954,353.4366
13:58:31:796,-0.7561,1.8831,7.0517,64.9124,-0.1895,-0.216,-0.8417,354.4189
13:58:31:816,-0.7226,1.9143,8.0184,64.7666,-0.3679,-0.3039,-0.8014,355.3593
13:58:31:837,-0.7585,1.8521,9.064,63.9849,-0.5487,-0.3821,-0.7708,356.2833
13:58:31:857,-1.1294,2.144,10.0188,65.2933,-0.6562,-0.4163,-0.7268,357.1766
13:58:31:877,-1.4405,2.6178,11.129,65.3496,-0.6696,-0.3699,-0.5924,357.906
13:58:31:896,-1.1151,2.9097,12.0909,64.7918,-0.5743,-0.2795,-0.3652,358.368
13:58:31:916,-0.4475,3.0293,12.7705,65.1359,-0.3715,-0.1512,-0.1673,358.5486
13:58:31:937,-0.0838,3.0676,12.8925,65.3958,-0.1247,-0.0107,-0.1062,358.6426
13:58:31:959,-0.0455,2.8977,12.3805,66.461,0.1294,0.0907,-0.1746,359.126
13:58:31:977,-1.462,2.7254,10.7821,65.1861,0.3554,0.2263,-0.4397,359.6067
13:58:31:997,-2.2134,2.7111,10.5212,66.3077,0.2699,0.3106,-0.469,0.1158
13:58:32:019,-2.8211,2.6871,10.7342,67.2161,0.1526,0.3631,-0.4275,0.6134
13:58:32:037,-2.8044,2.4239,11.2845,65.3141,0.0891,0.3179,-0.3408,1.0278
13:58:32:056,-2.2038,1.6487,12.0072,66.2011,0.1062,0.1347,-0.2577,1.3383
13:58:32:076,-2.211,1.0624,12.2919,64.9081,0.1831,-0.0987,-0.2638,1.7081
13:58:32:096,-2.9647,0.8877,11.6961,65.7051,0.3383,-0.1219,-0.276,2.1186
13:58:32:116,-3.4648,0.6891,10.5978,65.328,0.5472,0.1115,-0.1355,2.3696
13:58:32:137,-3.2662,0.5695,9.6048,64.9047,0.6926,0.2959,0.1406,2.2903
13:58:32:156,-2.6369,0.5527,9.3368,64.7758,0.6376,0.2116,0.3861,1.9294
13:58:32:176,-1.6247,0.5743,9.9541,64.9695,0.3994,-0.0315,0.534,1.3923
13:58:32:198,-0.9954,0.5527,10.8395,66.568,0.1562,-0.1243,0.5743,0.7966
13:58:32:217,-0.9428,0.67,11.019,64.5885,0.0988,-0.0168,0.5401,0.2252
13:58:32:239,-1.0361,0.9643,10.2341,64.4158,0.2406,0.1359,0.5266,359.6326
13:58:32:256,-1.0074,1.2993,9.1262,65.2078,0.436,0.2788,0.5853,358.9579
13:58:32:276,-0.6939,1.7683,7.9896,63.5599,0.557,0.3692,0.6818,358.1497
13:58:32:299,-0.3733,2.0722,7.054,62.7202,0.6144,0.4328,0.7441,357.2362
13:58:32:317,-0.2608,2.4574,6.2022,64.3095,0.6327,0.456,0.7197,356.3476
13:58:32:341,-0.2273,2.9193,5.5513,64.7129,0.5887,0.4242,0.6366,355.5348
13:58:32:358,-0.2177,3.1346,5.1685,64.1045,0.4629,0.3582,0.5144,354.8826
13:58:32:377,-0.3709,3.2662,5.2786,63.2948,0.2845,0.2434,0.3214,354.4642
13:58:32:397,-0.7992,3.2806,5.6973,63.6656,0.0976,0.0601,0.0758,354.3869
13:58:32:418,-1.3615,3.0844,6.2883,62.698,-0.0527,-0.1268,-0.1538,354.6126
13:58:32:439,-1.998,3.0437,6.8602,63.4216,-0.1492,-0.2587,-0.2931,355.0627
13:58:32:458,-2.1559,2.8786,8.4156,63.4216,-0.2787,-0.3968,-0.2443,355.9763
13:58:32:476,-1.8808,2.4885,9.332,61.9624,-0.3776,-0.4188,-0.2101,356.3528
13:58:32:496,-1.9813,2.3115,10.2126,63.3453,-0.5096,-0.4798,-0.2284,356.7646
13:58:32:519,-2.0961,2.0315,11.1601,63.1973,-0.6012,-0.5153,-0.2271,357.1855
13:58:32:538,-2.0889,1.7037,11.7512,62.6397,-0.5743,-0.4689,-0.1575,357.5228
13:58:32:556,-2.2277,1.9119,11.9689,62.5091,-0.4888,-0.3809,-0.0158,357.6882
13:58:32:577,-1.7922,2.1272,11.8253,61.7566,-0.4045,-0.2184,0.2322,357.5164
13:58:32:600,-0.7394,2.1559,11.6578,62.4417,-0.3679,-0.0754,0.4851,356.9979
13:58:32:620,0.2489,1.9884,11.9665,62.456,-0.4387,-0.0315,0.5621,356.349
13:58:32:637,0.8375,1.5745,12.8662,62.9925,-0.5511,-0.0608,0.4875,355.7428
13:58:32:657,1.017,1.5266,13.6534,60.9692,-0.5853,-0.095,0.3861,355.279
13:58:32:765,1.206,1.4812,13.5841,62.6398,-0.4118,0.0101,0.3935,354.7683
13:58:32:766,1.7013,1.3854,12.5121,63.4062,-0.0612,0.2214,0.5315,354.0302
13:58:32:767,2.7661,1.3137,11.1553,61.1372,0.3163,0.3204,0.7221,353.0272
13:58:32:769,3.74,1.4453,9.7316,59.7698,0.5533,0.2996,0.7881,351.9248
13:58:32:770,3.8189,1.6845,8.339,59.7145,0.5961,0.2666,0.5987,351.0227
13:58:32:783,2.9121,2.0554,7.3388,60.2852,0.4727,0.2507,0.2065,350.5947
13:58:32:796,1.8233,2.2875,6.9512,61.1226,0.2576,0.208,-0.1856,350.6504
13:58:32:815,1.1007,2.2325,6.8937,60.3539,0.0854,0.1603,-0.4287,350.9987
13:58:32:839,0.5934,2.199,6.9009,59.6729,0.0109,0.1298,-0.5338,351.5055
13:58:32:858,0.1053,2.321,6.9966,60.9969,0.0096,0.0821,-0.5827,352.0882
13:58:32:878,-0.2058,2.4,7.0397,59.6448,0.0487,-0.0046,-0.623,352.7468
13:58:32:896,-0.3159,2.4215,6.7789,58.3324,0.1391,-0.0926,-0.6548,353.4832
13:58:32:919,-0.481,2.455,5.9366,57.5387,0.1428,-0.0547,-0.7219,354.235
13:58:32:937,-0.6676,2.4455,6.3984,60.2386,-0.1052,-0.0535,-0.7561,355.8504
13:58:32:958,-0.7753,2.211,7.4895,58.1154,-0.4155,-0.1096,-0.7672,356.7116
13:58:32:977,-0.9236,1.9956,8.6118,59.5378,-0.6159,-0.216,-0.7525,357.5831
13:58:32:999,-1.2443,1.9741,9.6885,58.1066,-0.677,-0.3271,-0.7097,358.4493
13:58:33:016,-1.809,2.2684,10.459,59.5378,-0.6452,-0.3821,-0.5741,359.1973
13:58:33:037,-2.0794,2.589,11.1984,58.3278,-0.5365,-0.2941,-0.3041,359.632
13:58:33:055,-1.5218,2.8355,11.8397,55.9919,-0.3727,-0.1561,0.0404,359.6223
13:58:33:076,-0.4738,2.857,12.3613,56.3363,-0.1834,-0.0596,0.2835,359.2987
13:58:33:097,0.3517,2.9121,12.4068,56.7851,0.0047,0.0333,0.3116,358.8654
13:58:33:119,0.5504,2.7733,11.945,58.0252,0.1843,0.186,0.1674,358.5821
13:58:33:138,-0.0742,2.7087,11.208,56.717,0.2906,0.3106,-0.0805,358.5995
13:58:33:158,-1.1342,2.7278,10.5691,55.9886,0.2589,0.3912,-0.3114,358.8743
13:58:33:176,-2.01,2.7135,10.3681,55.3552,0.1159,0.4804,-0.4092,359.2811
13:58:33:195,-2.388,2.5388,10.9448,55.373,-0.0942,0.4902,-0.4104,359.7101
13:58:33:222,-2.2134,1.9932,12.2297,54.1906,-0.3019,0.3179,-0.408,0.1491
13:58:33:241,-2.1583,1.151,13.5745,53.3776,-0.3984,0.0125,-0.4617,0.6691
13:58:33:258,-3.2136,0.9667,13.8281,51.0032,-0.2555,-0.1561,-0.5106,1.3361
13:58:33:275,-4.1587,0.7418,12.2584,51.6027,0.1978,0.0309,-0.3273,1.7929
13:58:33:295,-3.9817,0.6317,10.0092,50.124,0.7622,0.3778,0.1479,1.6795
13:58:33:320,-3.082,0.7513,8.272,53.4601,1.0408,0.4767,0.6415,0.9744
13:58:33:338,-1.8161,0.9739,7.4608,49.7986,0.9113,0.3033,0.9213,359.9514
13:58:33:357,-0.8231,1.2036,7.7934,50.7196,0.513,0.0736,0.9506,358.9124
13:58:33:378,-0.6102,1.005,8.8415,50.8058,-0.0722,-0.007,0.5401,357.4066
13:58:33:396,-0.9882,1.0744,8.5663,51.3207,-0.0502,0.0406,0.4118,356.9364
13:58:33:420,-0.9356,1.2778,7.9466,50.5046,0.0341,0.0748,0.4497,356.4366
13:58:33:436,-0.7442,1.4955,7.3005,52.0057,0.0866,0.1151,0.523,355.8594
13:58:33:456,-0.6915,1.7276,6.9703,49.968,0.0781,0.175,0.523,355.2533
13:58:33:476,-0.6389,1.8664,6.865,49.1836,0.0145,0.1811,0.4594,354.7098
13:58:33:498,-0.7083,1.9884,6.9416,49.9957,-0.0624,0.1005,0.3556,354.3098
13:58:33:517,-0.7849,2.1057,7.0517,47.2107,-0.1088,-0.0205,0.2603,354.04
13:58:33:536,-0.8519,2.3569,7.1163,47.8326,-0.1162,-0.0693,0.2065,353.8377
13:58:33:556,-0.7657,2.5244,7.2311,49.1317,-0.1137,-0.0547,0.1772,353.6675
13:58:33:576,-0.7418,2.5101,7.5517,47.351,-0.1431,-0.029,0.1039,353.5783
13:58:33:597,-1.1246,2.6201,8.071,46.3858,-0.1968,-0.0571,-0.0195,353.6141
13:58:33:622,-1.7276,2.8833,8.5376,47.0509,-0.2151,-0.139,-0.1062,353.817
13:58:33:639,-1.7492,2.8092,8.8606,47.2305,-0.1675,-0.216,-0.0976,354.0284
13:58:33:656,-1.2682,2.4167,9.0425,45.6104,-0.1235,-0.3027,-0.0512,354.1619
13:58:33:675,-0.9811,2.1512,9.2698,44.9443,-0.1663,-0.4114,-0.0402,354.3133
13:58:33:695,-0.7585,1.8568,9.612,44.8503,-0.275,-0.4835,-0.05,354.4714
13:58:33:718,-0.4451,1.7755,10.1862,43.3508,-0.4241,-0.536,-0.028,354.6013
13:58:33:734,-0.0287,2.0483,10.9137,44.7321,-0.5975,-0.5984,0.0587,354.6401
13:58:33:756,0.6987,2.1368,11.6267,44.1282,-0.7417,-0.5935,0.132,354.548
13:58:33:777,1.3543,1.8281,12.4977,43.4228,-0.8456,-0.5727,0.0636,354.4579
13:58:33:797,1.3998,1.0959,13.6702,44.0456,-0.9176,-0.5898,-0.1514,354.6057
13:58:33:820,0.2728,0.2847,14.0602,41.255,-0.6733,-0.4896,-0.4605,355.5481
13:58:33:857,0.3565,0.0694,13.0552,43.3742,-0.3019,-0.172,-0.2736,355.8385
13:58:33:858,1.2754,0.0407,11.6028,42.1758,0.0487,0.1298,0.0783,355.6541
13:58:33:874,2.5675,0.0191,10.4327,40.0269,0.2039,0.2532,0.3251,355.1159
13:58:33:894,2.9862,0.079,9.3368,39.3506,0.1917,0.2984,0.2762,354.6118
13:58:33:916,2.187,0.3781,8.3198,40.594,0.0939,0.3472,-0.0072,354.4523
13:58:33:940,1.1198,0.6221,7.5326,40.8969,-0.0233,0.3839,-0.287,354.6501
13:58:33:955,0.3398,0.7729,6.9751,42.8833,-0.1198,0.3509,-0.4031,355.0108
13:58:33:977,0.146,0.9069,6.81,40.7579,-0.1956,0.2666,-0.3713,355.3825
13:58:33:995,0.2584,1.0122,7.1115,39.2867,-0.275,0.1701,-0.3212,355.6794
13:58:34:022,0.2417,1.0361,7.6762,39.3726,-0.3495,0.0589,-0.3542,356.0509
13:58:34:040,0.1388,0.938,7.949,37.9969,-0.3312,-0.0461,-0.4348,356.5144
13:58:34:057,-0.0215,0.993,7.7958,38.7625,-0.2139,-0.0681,-0.4862,357.044
13:58:34:075,0.0526,1.0074,7.5446,37.459,-0.1235,-0.0339,-0.4837,357.5636
13:58:34:095,0.2513,1.0744,7.5709,37.2424,-0.1479,-0.0205,-0.4507,358.0418
13:58:34:118,0.3876,1.2108,8.1476,38.7617,-0.2713,-0.0461,-0.4275,358.4731
13:58:34:135,0.4929,1.1677,8.8606,36.3081,-0.3813,-0.084,-0.4189,358.8688
13:58:34:157,0.2465,1.2873,9.4205,36.7611,-0.4082,-0.1292,-0.4202,359.2756
13:58:34:178,-0.0479,1.6367,9.8465,36.0182,-0.3947,-0.1549,-0.3725,359.6864
13:58:34:195,-0.3876,2.2205,10.3394,36.034,-0.3837,-0.1035,-0.2381,359.9417
13:58:34:220,-0.1986,2.656,11.0692,33.5821,-0.3679,-0.0156,-0.0439,359.9424
13:58:34:239,0.2656,2.991,11.9665,33.8129,-0.3141,0.0113,0.1235,359.7666
13:58:34:257,0.9093,2.8881,12.8519,36.074,-0.1968,-0.0241,0.1772,359.461
13:58:34:276,1.1701,2.0865,12.8447,34.4007,0.2198,0.0089,-0.1111,359.2589
13:58:34:296,0.2225,1.7468,11.8995,35.943,0.3823,0.1444,-0.353,359.2654
13:58:34:319,-0.859,1.7061,11.2391,33.2521,0.3713,0.2593,-0.5289,0.201
13:58:34:338,-1.4692,1.5362,11.2893,33.3818,0.2051,0.3485,-0.557,0.8528
13:58:34:361,-1.3711,1.1892,12.1866,32.0624,0.0084,0.3375,-0.4935,1.4134
13:58:34:375,-0.993,0.4379,13.3424,30.2494,-0.0881,0.1701,-0.4617,1.9076
13:58:34:396,-1.3448,0.012,13.596,32.4679,0.0219,-0.0559,-0.5143,2.4991
13:58:34:421,-2.3354,-0.1268,12.4977,31.7967,0.3554,-0.0889,-0.5069,3.1397
13:58:34:438,-2.7135,-0.2728,10.6002,31.6446,0.7879,0.0943,-0.2919,3.5652
13:58:34:456,-2.5125,-0.1436,8.9348,32.1403,1.0701,0.2336,0.0587,3.5875
13:58:34:475,-1.5506,0.0455,8.0877,30.8753,1.0224,0.1628,0.3678,3.2306
13:58:34:493,-0.2943,0.1172,8.1906,29.3977,0.6853,-0.0119,0.534,2.6531
13:58:34:516,0.323,0.2297,8.9013,29.9088,0.2699,-0.0803,0.4912,2.0785
13:58:34:535,0.3517,0.1101,9.4062,29.7381,0.0292,-0.04,0.2957,1.6917
13:58:34:556,0.0359,-0.0191,9.3512,31.551,0.0072,-0.0156,0.088,1.5562
13:58:34:576,-0.5049,0.0622,9.064,31.0478,0.0585,-0.0168,0.0001,1.5773
13:58:34:596,-0.7513,0.3087,8.6931,31.551,0.1147,-0.0559,0.0502,1.552
13:58:34:620,-0.7729,0.591,8.0064,31.551,0.221,-0.0535,0.1601,1.4228
13:58:34:638,-0.7298,1.0074,7.2598,29.6775,0.3529,0.0174,0.2676,1.1655
13:58:34:656,-0.4857,1.1892,6.597,31.0478,0.414,0.0626,0.3324,0.8272
13:58:34:681,-0.1771,1.3854,6.5157,31.0219,0.3529,0.0357,0.3373,0.1346
13:58:34:705,0.2871,1.8831,7.1713,29.9285,0.0952,-0.1121,0.2102,359.9002
13:58:34:716,0.2728,1.9095,7.3986,31.4149,0.0536,-0.1158,0.0709,359.8207
13:58:34:740,-0.2656,2.0124,7.6163,30.3485,0.0573,-0.1524,-0.1245,359.9622
13:58:34:756,-0.9954,2.1368,7.8748,29.4047,0.0634,-0.2318,-0.2662,0.3547
13:58:34:852,-1.3448,2.3091,8.0207,28.8748,0.0597,-0.3235,-0.2675,0.8071
13:58:34:853,-1.0792,2.388,8.1954,28.742,0.0231,-0.3613,-0.1746,1.1452
13:58:34:854,-0.5336,2.2588,8.7075,27.9168,-0.1052,-0.3711,-0.1074,1.3741
13:58:34:854,-0.0502,2.0794,9.6455,26.9489,-0.3312,-0.4175,-0.1453,1.63
13:58:34:855,0.3422,1.7779,10.9089,27.5279,-0.5731,-0.4603,-0.2601,2.0016
13:58:34:876,0.3159,1.7037,12.213,28.9607,-0.7527,-0.4957,-0.3957,2.4979
13:58:34:895,0.0455,1.6008,13.2658,28.3774,-0.8321,-0.4798,-0.4788,3.1371
13:58:34:915,-0.1747,1.34,13.9478,28.0995,-0.8016,-0.398,-0.4678,3.7367
13:58:34:937,-0.0718,1.0672,14.3545,27.145,-0.6794,-0.3259,-0.3566,4.2187
13:58:34:955,0.3326,0.9165,14.2086,28.3428,-0.4766,-0.2819,-0.1685,4.4536
13:58:34:975,0.658,0.9045,13.3041,25.4906,-0.1858,-0.1769,0.0221,4.4587
13:58:34:994,0.8255,0.95,11.933,27.4392,0.1135,-0.0046,0.1394,4.3098
13:58:35:016,1.127,0.7896,10.6217,25.7415,0.3248,0.1371,0.209,4.066
13:58:35:038,1.6487,0.5288,9.7627,28.8716,0.392,0.1493,0.2444,3.7292
13:58:35:056,2.053,0.3948,9.454,27.9265,0.3004,0.0443,0.187,3.4509
13:58:35:081,2.2516,0.2776,9.3153,28.7912,0.1294,-0.0168,0.0636,3.3022
13:58:35:095,2.0291,0.2106,9.3224,26.3236,-0.0197,0.0382,-0.072,3.336
13:58:35:121,1.6415,0.3159,9.2698,26.7115,-0.1113,0.1053,-0.1795,3.4673
13:58:35:136,1.0217,0.5073,9.1645,28.7274,-0.1345,0.1457,-0.2406,3.709
13:58:35:161,0.4857,0.7418,8.8702,26.4426,-0.0869,0.1835,-0.2345,3.9952
13:58:35:177,0.2106,1.0433,8.193,28.0154,0.0377,0.252,-0.1575,4.1793
13:58:35:194,0.5121,1.4668,6.5085,28.7441,0.3371,0.3998,0.0025,4.2551
13:58:35:216,0.7537,1.797,6.2285,26.7796,0.3114,0.4096,-0.0133,4.1591
13:58:35:239,0.6365,2.12,6.6592,29.2423,0.1232,0.3472,-0.1074,4.2794
13:58:35:255,0.2417,2.2062,7.4154,29.1553,-0.1003,0.252,-0.2662,4.5759
13:58:35:273,-0.1914,2.0985,8.1763,26.3159,-0.2054,0.1738,-0.4165,5.0606
13:58:35:293,-0.6006,2.0052,8.741,28.2657,-0.2213,0.0931,-0.4874,5.6754
13:58:35:313,-0.6724,1.8616,9.5139,28.4258,-0.2371,-0.007,-0.452,6.2717
13:58:35:336,-0.6485,1.8736,10.3107,30.1798,-0.2701,-0.0547,-0.3371,6.7314
13:58:35:354,-0.7825,2.0746,11.2343,27.4856,-0.2823,0.0186,-0.1978,7.0446
13:58:35:373,-0.9571,2.2875,12.0862,30.0471,-0.2151,0.1689,-0.0537,7.2005
13:58:35:393,-0.8064,2.3234,12.536,29.7731,-0.0514,0.3045,0.1113,7.1065
13:58:35:413,0,2.1727,12.4929,30.96,0.1856,0.3961,0.3067,6.7721
13:58:35:434,0.9236,2.0435,12.134,30.2434,0.414,0.4401,0.4314,6.2453
13:58:35:453,1.0935,1.9167,11.5717,29.1061,0.5228,0.4022,0.3202,5.8272
13:58:35:474,-0.0718,1.8808,10.8682,30.0008,0.4922,0.3937,0.0269,5.776
13:58:35:493,-1.6032,1.8521,10.1121,29.2401,0.3835,0.4645,-0.1929,6.0573
13:58:35:514,-2.4598,1.9047,9.7579,29.3347,0.2515,0.4865,-0.1697,6.3282
13:58:35:536,-2.2134,1.5673,10.1527,30.2575,0.1037,0.3643,0.005,6.3908
13:58:35:555,-1.7492,1.0768,10.8515,30.5155,-0.0356,0.1066,0.1271,6.3586
13:58:35:574,-2.0937,0.8877,11.0692,30.1394,-0.0478,-0.0816,0.132,6.3756
13:58:35:594,-2.6465,0.7561,10.5595,30.2575,0.1037,-0.106,0.1613,6.4009
13:58:35:615,-2.5986,0.4762,9.7316,32.0185,0.2772,-0.0962,0.3104,6.2608
13:58:35:637,-2.0172,0.3972,9.119,31.1935,0.3187,-0.1109,0.5071,5.8833
13:58:35:656,-0.5743,0.402,9.6168,30.3499,-0.0588,0.0052,0.7282,5.3005
13:58:35:674,-0.146,0.3876,10.0499,28.9025,-0.2115,0.0663,0.7111,3.7705
13:58:35:699,-0.3111,0.5671,9.8417,29.8519,-0.1907,0.1261,0.6207,3.1036
13:58:35:718,-0.8136,0.8542,8.9061,30.2851,-0.0246,0.2263,0.5633,2.5176
13:58:35:737,-0.9619,1.1868,7.7025,30.6258,0.1709,0.3375,0.6195,1.88
13:58:35:760,-0.7729,1.4189,6.7454,30.8014,0.2821,0.4218,0.7404,1.078
13:58:35:774,-0.4738,1.7468,6.353,30.6473,0.2613,0.379,0.8064,0.202
13:58:35:795,-0.2943,2.2134,6.4558,31.2347,0.1526,0.2483,0.7918,359.3586
13:58:35:816,-0.055,2.4048,6.6449,30.7432,0.0536,0.1347,0.7136,358.6225
13:58:35:842,-0.0168,2.3713,6.9416,30.4382,0.0206,0.0638,0.5718,358.0195
13:58:35:872,-0.1675,2.4048,7.1976,31.0556,-0.0062,-0.0742,0.3788,357.6258
13:58:35:874,-0.4068,2.3067,7.6116,32.267,-0.0637,-0.1805,0.2224,357.5128
13:58:35:893,-0.6628,2.2804,8.1356,31.1512,-0.1223,-0.2502,0.1467,357.4738
13:58:35:914,-0.8423,2.3857,8.7793,31.3383,-0.1638,-0.3406,0.0929,357.5254
13:58:35:938,-0.6485,2.2971,9.3894,31.696,-0.187,-0.4212,0.0612,357.6136
13:58:35:954,0.0526,1.8831,9.9852,31.8291,-0.2335,-0.5006,0.0233,357.7043
13:58:35:975,0.8112,1.3735,10.9878,31.7408,-0.3495,-0.5592,-0.0928,357.8943
13:58:35:994,1.1964,0.8973,12.1914,32.0894,-0.512,-0.5641,-0.2785,358.2808
13:58:36:016,0.7298,0.6126,13.072,30.4128,-0.6305,-0.4969,-0.4837,358.9104
13:58:36:036,-0.201,0.615,13.5147,32.3896,-0.6476,-0.3601,-0.5973,359.6725
13:58:36:054,-0.4451,0.4498,13.5242,32.1118,-0.5157,-0.1585,-0.452,0.2676
13:58:36:075,0.1125,0.5121,12.9835,31.9346,-0.2848,-0.018,-0.1208,0.4866
13:58:36:094,0.8566,0.6006,12.658,30.7304,-0.0869,-0.0034,0.1271,0.3691
13:58:36:115,1.2371,0.6891,11.3468,33.216,0.1465,0.1273,0.1406,359.8749
13:58:36:137,1.2156,0.6006,10.404,32.3339,0.2638,0.2642,0.1161,359.7044
13:58:36:155,1.5051,0.5767,9.6766,32.2895,0.3126,0.2275,0.1223,359.5191
13:58:36:175,2.0172,0.6293,9.2267,32.1752,0.2552,0.0711,0.0929,359.3483
13:58:36:194,2.3665,0.7202,9.1334,32.2524,0.1135,-0.0266,-0.0195,359.3057
13:58:36:213,2.2253,0.8327,9.0688,32.7716,-0.038,0.0186,-0.1954,359.4589
13:58:36:237,1.7874,0.9069,8.9157,33.3352,-0.115,0.1225,-0.364,359.8047
13:58:36:256,1.2132,1.0624,8.4586,32.6655,-0.0881,0.1799,-0.4764,0.3181
13:58:36:275,0.7322,1.2706,7.791,34.4791,0.0243,0.208,-0.5179,0.8693
13:58:36:294,0.5073,1.4979,7.0397,34.5557,0.1624,0.2495,-0.5106,1.4438
13:58:36:315,0.4642,1.6989,6.463,32.9948,0.2442,0.2898,-0.4959,2.0053
13:58:36:338,0.4786,1.9549,6.1974,32.2524,0.2344,0.2629,-0.4996,2.5758
13:58:36:357,0.5791,2.0961,6.2883,35.5037,0.1538,0.1713,-0.5423,3.1468
13:58:36:374,0.402,2.1799,6.6544,32.9044,0.0377,0.0455,-0.6621,3.9252
13:58:36:394,-0.134,2.2349,7.5757,34.6347,-0.1198,-0.0779,-0.8405,4.9096
13:58:36:415,-0.6269,2.199,8.6381,31.0908,-0.2689,-0.216,-0.9455,6.0656
13:58:36:436,-0.6843,1.8999,9.813,32.4576,-0.3508,-0.3736,-0.9602,7.2367
13:58:36:455,-0.9093,1.7659,10.7222,30.3269,-0.3336,-0.4469,-0.9052,8.3419
13:58:36:475,-1.6152,2.077,11.2726,34.039,-0.2652,-0.3809,-0.8026,9.3788
13:58:36:493,-2.1368,2.2899,11.665,33.301,-0.1663,-0.1927,-0.6047,10.22
13:58:36:517,-1.9621,2.4574,12.1651,33.7203,-0.0624,0.0052,-0.3151,10.7192
13:58:36:542,-1.3711,2.68,12.749,35.1236,0.0487,0.1163,-0.0109,10.7041
13:58:36:554,-0.2513,2.6273,12.5216,33.1077,0.447,0.197,0.2127,10.5011
13:58:36:574,-0.4738,2.6154,11.7057,36.3325,0.5716,0.2324,0.0929,10.3406
13:58:36:594,-0.8566,2.4574,11.1888,35.9354,0.524,0.2849,-0.0451,10.4535
13:58:36:614,-0.9523,1.9717,11.5836,34.485,0.3114,0.2483,-0.1697,10.6863
13:58:36:640,-0.7322,1.0887,12.8519,34.4159,0.0536,0.0504,-0.2931,11.0791
13:58:36:655,-1.0002,0.3183,13.675,34.3149,-0.0551,-0.2245,-0.4397,11.6886
13:58:36:676,-2.4431,0.2584,12.6365,35.4613,0.1196,-0.2954,-0.4886,12.4785
13:58:36:694,-3.6036,0.481,10.3513,34.2857,0.5826,0.0174,-0.1734,12.9082
13:58:36:714,-3.283,0.7466,7.8317,33.3427,1.0664,0.4291,0.4265,12.5833
13:58:36:735,-2.3402,1.1222,6.0371,35.1417,1.1959,0.544,0.9139,11.6806
13:58:36:754,-1.3113,1.6654,5.3719,34.2857,0.8709,0.3509,1.1228,10.5108
13:58:36:774,-0.3541,1.8712,5.9988,34.4571,0.2613,0.0968,1.0874,9.408
13:58:36:795,-0.146,1.8329,7.3172,35.2496,-0.3116,-0.0486,0.8296,8.6148
13:58:36:814,-0.5743,1.596,8.3653,33.7999,-0.5927,-0.0938,0.4875,8.2186
13:58:36:838,-0.9811,1.3831,8.7553,34.8647,-0.5755,-0.1072,0.2823,8.0334
13:58:36:855,-1.127,1.3041,8.9444,33.5488,-0.4412,-0.1255,0.2896,7.8602
13:58:36:972,-1.1055,1.4333,8.9683,36.7411,-0.2958,-0.1133,0.3947,7.5813
13:58:36:973,-0.9595,1.5147,8.6333,34.0693,-0.1247,-0.0498,0.4888,7.2032
13:58:36:973,-0.9093,1.6271,7.949,35.6582,0.0695,0.0272,0.5242,6.7598
13:58:36:974,-0.8877,1.7755,7.3172,34.4159,0.1966,0.0638,0.5193,6.3206
13:58:36:975,-0.7202,1.9023,6.9607,33.8413,0.21,-0.0034,0.5095,5.8884
13:58:36:976,-0.4331,2.01,6.999,36.234,0.1416,-0.106,0.468,5.5033
13:58:36:996,-0.1364,2.0818,7.3531,35.4229,0.0365,-0.1317,0.402,5.1815
13:58:37:014,-0.1149,2.1488,7.7073,35.3852,-0.0551,-0.095,0.319,4.9575
13:58:37:034,-0.3517,1.8736,8.284,34.9014,-0.1724,-0.1377,0.0978,4.8388
13:58:37:055,-0.2369,1.584,8.8965,34.2275,-0.2958,-0.2416,0.0062,4.8613
13:58:37:073,0.3422,0.9117,9.7699,35.5037,-0.4607,-0.3687,-0.0671,5.0719
13:58:37:094,0.7489,0.3541,10.9854,35.354,-0.644,-0.5153,-0.1709,5.388
13:58:37:114,0.3326,0.2728,12.1723,35.0032,-0.8065,-0.5507,-0.254,5.8414
13:58:37:142,-0.1125,0.4977,12.9332,34.8286,-0.8761,-0.4126,-0.1905,6.2201
13:58:37:155,0.4092,0.5121,13.2778,35.6412,-0.804,-0.2233,0.0538,6.2617
13:58:37:176,1.4309,0.4905,13.5027,34.7229,-0.6782,-0.1659,0.2921,5.9784
13:58:37:195,2.1703,0.469,13.7252,34.6973,-0.5731,-0.1756,0.3678,5.5826
13:58:37:215,2.1296,0.6078,13.4405,36.5632,-0.4338,-0.0669,0.3312,5.2214
13:58:37:237,1.9454,0.6963,12.5767,35.2811,-0.1748,0.1774,0.3226,4.8853
13:58:37:259,2.3785,0.8519,11.5741,34.1562,0.1,0.2862,0.4008,4.4071
13:58:37:276,3.2495,0.8806,10.8419,33.0595,0.2369,0.2605,0.4607,3.8239
13:58:37:295,4.1468,0.8542,10.3298,35.5262,0.2308,0.2471,0.3788,3.2899
13:58:37:316,4.276,0.8638,9.8297,33.288,0.1416,0.2801,0.1039,3.0607
13:58:37:337,3.4026,1.0146,9.332,34.6973,0.0194,0.3363,-0.287,3.2474
13:58:37:354,2.1344,1.1964,9.0353,34.8616,-0.0576,0.3949,-0.6328,3.9101
13:58:37:374,1.1653,1.3089,8.5687,33.3354,-0.0185,0.4132,-0.7965,4.7498
13:58:37:394,0.6867,1.34,7.7934,35.3072,0.1575,0.4181,-0.7904,5.6287
13:58:37:413,0.4762,1.4165,6.9105,32.9822,0.3871,0.3619,-0.7158,6.4407
13:58:37:439,0.402,1.6534,6.1591,35.2961,0.535,0.2361,-0.6633,7.2046
13:58:37:456,0.3829,1.8185,5.7787,35.5972,0.5276,0.1396,-0.6548,7.9605
13:58:37:476,-0.0861,1.7396,5.8816,35.6473,0.2124,0.0773,-0.7916,8.7775
13:58:37:498,-0.859,1.8401,6.4726,33.5848,0.0133,0.0199,-0.8905,10.6884
13:58:37:513,-1.3878,1.9525,7.681,35.6833,-0.2432,-0.1194,-0.9003,11.7947
13:58:37:538,-1.6391,2.0028,9.1789,34.7558,-0.4802,-0.3088,-0.8062,12.8616
13:58:37:558,-1.9813,2.2588,10.7509,36.1036,-0.5951,-0.3882,-0.6389,13.7425
13:58:37:577,-2.1918,2.6752,11.8588,34.4787,-0.5132,-0.2868,-0.3847,14.3277
13:58:37:596,-1.943,2.7565,12.3853,34.8328,-0.2665,0.0003,-0.0708,14.5367
13:58:37:615,-1.5697,3.1394,12.5695,34.7344,-0.0331,0.2226,0.2017,14.368
13:58:37:637,-0.9093,3.3811,12.6963,34.5661,0.1196,0.3643,0.391,13.9744
13:58:37:654,-0.6341,3.2255,12.67,34.9374,0.2491,0.4535,0.4057,13.5327
13:58:37:675,-0.9691,2.8044,12.347,36.1036,0.3847,0.4328,0.2114,13.3501
13:58:37:693,-1.5864,2.0913,12.0072,35.0096,0.4886,0.3338,-0.0451,13.4723
13:58:37:713,-1.6989,1.2778,12.3853,35.2066,0.4641,0.142,-0.1966,13.7825
13:58:37:739,-1.2514,0.5838,13.4405,36.6561,0.3309,-0.0987,-0.1856,14.1194
13:58:37:755,-1.1581,0.2393,14.1655,34.3975,0.2552,-0.1659,-0.0744,14.3444
13:58:37:776,-1.6606,0.3183,13.2491,35.9827,0.4189,0.0663,0.1051,14.3362
13:58:37:794,-1.7228,0.3972,11.0285,37.0679,0.8258,0.4462,0.3861,13.971
13:58:37:815,-1.261,0.4235,8.8295,36.3325,1.1483,0.6148,0.6427,13.2809
13:58:37:836,-0.5791,0.7178,7.2909,35.2396,1.1458,0.4939,0.7905,12.4081
13:58:37:854,0.1244,1.1103,6.6927,35.932,0.8172,0.2666,0.7979,11.5346
13:58:37:874,0.5336,1.1055,6.9727,35.506,0.3371,0.1713,0.6342,10.8672
13:58:37:894,-0.0479,1.0552,7.5111,34.5662,-0.0588,0.186,0.3018,10.5476
13:58:37:913,-0.993,0.9069,7.6618,35.1055,-0.2225,0.2104,-0.0109,10.5979
13:58:37:938,-2.1129,1.2538,7.2479,36.589,-0.1479,0.2116,0.0783,10.6769
13:58:37:957,-1.7252,1.4022,7.4321,36.8545,-0.1064,0.175,0.3299,10.3908
13:58:37:975,-1.2395,1.6271,7.6163,34.9988,-0.0405,0.0943,0.4814,9.9636
13:58:37:994,-1.1462,1.8138,7.3914,36.0461,0.0854,0.0406,0.5022,9.5275
13:58:38:013,-1.3376,2.0842,6.8842,35.506,0.2149,0.0235,0.4521,9.1357
13:58:38:039,-1.6463,2.5484,6.3721,34.7417,0.2467,0.0199,0.4057,8.8037
13:58:38:061,-1.8521,2.8738,6.1974,35.2789,0.1685,0.0321,0.3776,8.4856
13:58:38:074,-1.7611,3.0006,6.7525,37.4146,-0.0099,0.0101,0.3165,8.2358
13:58:38:094,-1.718,3.015,7.8174,34.4435,-0.2286,-0.15,0.1955,8.1664
13:58:38:113,-1.797,2.8833,8.9779,33.9035,-0.3727,-0.31,0.0282,8.3185
13:58:38:138,-1.9573,2.5412,9.7603,35.3852,-0.396,-0.3772,-0.1099,8.6144
13:58:38:161,-2.1679,2.1966,10.0594,36.7125,-0.3398,-0.3662,-0.1624,9.0005
13:58:38:176,-2.3928,1.9836,10.1049,37.392,-0.2774,-0.2941,-0.0879,9.3143
13:58:38:193,-1.8879,1.9645,10.2843,35.6522,-0.2921,-0.2477,0.099,9.405
13:58:38:212,-0.9906,1.9573,10.9161,37.1371,-0.4228,-0.2697,0.2798,9.2448
13:58:38:232,-0.1364,1.9501,11.7535,37.5112,-0.6122,-0.266,0.3825,8.94
13:58:38:252,0.5384,1.6104,12.8447,34.7017,-0.782,-0.2282,0.4216,8.566
13:58:38:273,1.1198,1.2993,14.0842,38.579,-0.8932,-0.1988,0.413,8.1791
13:58:38:294,1.4453,1.0122,15.0509,37.1603,-0.8969,-0.1255,0.3959,7.7922
13:58:38:315,1.4596,1.0385,15.4433,38.3109,-0.7148,-0.0217,0.3776,7.3781
13:58:38:337,1.5984,1.0792,14.6441,37.0695,-0.3214,0.1139,0.4106,6.8929
13:58:38:355,2.1942,0.9787,13.084,36.0138,0.1721,0.2275,0.5047,6.2922
13:58:38:374,3.0748,0.9882,11.6267,37.3187,0.5044,0.2006,0.5609,5.5923
13:58:38:394,3.661,0.7825,9.6503,37.623,0.5154,0.109,0.1455,4.6852
13:58:38:415,2.7278,0.8016,8.7266,36.6396,0.3957,0.1481,-0.2345,4.8841
13:58:38:443,1.608,0.9834,8.0279,35.4979,0.2955,0.1933,-0.513,5.4231
13:58:38:460,1.0361,1.2825,7.3412,36.9199,0.2601,0.2141,-0.5778,6.0377
13:58:38:476,1.0217,1.4524,6.731,37.5266,0.2906,0.2214,-0.5143,6.5843
13:58:38:492,1.0648,1.4859,6.2883,36.6393,0.3407,0.2104,-0.4996,7.1292
13:58:38:512,0.8112,1.5506,5.9821,40.1084,0.3285,0.1261,-0.6108,7.8087
13:58:38:535,0.28,1.5458,6.0921,35.7837,0.232,-0.0254,-0.8014,8.7271
13:58:38:556,-0.0383,1.3065,6.2524,37.4402,0.1282,-0.1707,-0.9516,9.87
13:58:38:579,-0.3446,1.1031,6.3577,37.5266,0.0439,-0.1842,-1.0139,11.0882
13:58:38:598,-1.017,1.2323,6.6999,37.8769,-0.0905,-0.1756,-1.0237,12.3133
13:58:38:613,-1.6176,1.4213,7.2048,38.0439,-0.2628,-0.1964,-0.9565,13.4818
13:58:38:634,-1.9406,1.6032,7.7456,37.2629,-0.3886,-0.2367,-0.7952,14.5308
13:58:38:660,-2.1703,1.9382,8.3031,38.0439,-0.4644,-0.2941,-0.5949,15.3228
13:58:38:674,-2.5484,2.4431,9.0497,40.2691,-0.5279,-0.3662,-0.3872,15.9402
13:58:38:697,-2.3186,2.7829,9.8225,38.4109,-0.5585,-0.4701,-0.1135,16.24
13:58:38:713,-1.3185,3.0437,10.66,39.1669,-0.5255,-0.5153,0.2456,16.124
13:58:38:733,0.2823,3.2758,11.5262,38.6341,-0.4375,-0.4261,0.5706,15.5716
13:58:38:753,1.7324,3.2901,12.335,40.0879,-0.3129,-0.2514,0.6622,14.8578
13:58:38:773,2.0578,3.1202,12.6987,38.4109,-0.1553,-0.1072,0.3813,14.4269
13:58:38:794,1.0624,2.5196,12.5838,39.7038,0.0047,-0.0351,-0.1416,14.6064
13:58:38:814,-0.5025,2.3282,12.3015,39.3499,0.0573,-0.0486,-0.6059,15.3377
13:58:38:838,-1.7898,2.1703,12.1579,39.1982,-0.0221,0.0186,-0.7586,16.2606
13:58:38:855,-2.187,1.3328,12.6963,39.1362,-0.1308,0.3521,-0.3823,17.4477
13:58:38:876,-2.1129,0.926,12.8327,40.2152,-0.0551,0.2471,-0.1832,17.7465
13:58:38:893,-2.5149,0.9523,11.9043,38.4207,0.1538,0.1567,-0.028,17.8988
13:58:38:913,-2.5172,0.9428,10.191,39.6788,0.4849,0.2679,0.2322,17.7427
13:58:38:933,-2.1512,0.871,8.6859,39.7038,0.7231,0.346,0.5413,17.2314
13:58:38:956,-1.5769,0.8519,7.7599,41.8687,0.6987,0.2263,0.7612,16.4667
13:58:39:100,-1.0696,1.0146,7.6546,42.2464,0.4128,-0.0119,0.8883,15.6124
13:58:39:100,-0.4905,0.8495,8.595,41.191,0.0011,-0.2453,0.9078,14.7494
13:58:39:101,-0.1842,0.5815,9.8489,42.1038,-0.3398,-0.4175,0.8186,14.0101
13:58:39:101,-0.3159,0.6078,10.6816,40.9158,-0.4668,-0.3894,0.76,13.3333
13:58:39:102,-0.5456,0.8231,10.9161,38.4439,-0.3837,-0.2477,0.8333,12.527
13:58:39:104,-0.1579,0.8997,10.349,36.8263,-0.1113,-0.139,1.0043,11.4992
13:58:39:104,0.5982,0.9356,9.4421,38.4341,0.2638,-0.0632,1.1827,10.2161
13:58:39:119,0.9069,1.3424,8.4203,37.0821,0.5631,-0.0791,1.2804,8.8207
13:58:39:138,0.9212,1.9262,7.523,38.3626,0.6999,-0.1536,1.2621,7.4712
13:58:39:155,1.0385,2.4167,6.8435,38.3626,0.7085,-0.1451,1.1852,6.2206
13:58:39:173,1.3304,2.5268,6.3099,38.365,0.6706,-0.0302,1.0715,5.0697
13:58:39:193,1.3041,2.7494,5.805,39.0052,0.5985,0.0601,0.8699,4.1064
13:58:39:212,0.7705,3.2877,5.5537,38.5696,0.4409,0.0773,0.5938,3.4677
13:58:39:233,0.1244,3.6036,6.006,35.2856,0.21,0.12,0.3214,3.1277
13:58:39:255,-0.5073,3.5892,6.9488,38.9917,-0.0026,0.1444,0.1027,3.0221
13:58:39:277,-1.0504,3.7232,8.0471,36.5491,-0.1369,0.1066,-0.0268,3.0905
13:58:39:295,-1.0648,3.5773,9.1023,38.2831,-0.198,-0.0034,-0.0634,3.2437
13:58:39:313,0.3206,2.2899,10.5021,38.74,-0.1748,-0.2025,-0.0451,3.4105
13:58:39:334,0.7322,1.7898,10.8849,39.2855,-0.187,-0.1793,-0.0133,3.5579
13:58:39:364,0.7896,1.8784,11.2247,38.5696,-0.2836,-0.1622,0.0587,3.5285
13:58:39:372,1.3687,1.7444,11.2965,38.1049,-0.4021,-0.0962,0.1846,3.3483
13:58:39:399,2.1488,1.4812,11.5645,39.0464,-0.5523,0.0125,0.2847,2.994
13:58:39:411,2.6178,1.1007,12.3709,37.9921,-0.7613,0.0492,0.264,2.6418
13:58:39:433,2.5149,0.6197,13.2299,38.7449,-0.9189,0.0174,0.1357,2.4597
13:58:39:453,1.9573,0.4116,13.5649,40.2588,-0.892,0.0687,0.0294,2.4029
13:58:39:473,1.7707,0.4259,13.3663,39.5942,-0.6281,0.2495,0.0929,2.2575
13:58:39:493,3.0772,0.1555,12.524,39.8774,-0.2371,0.3949,0.3703,1.7341
13:58:39:512,4.6708,-0.0933,11.5813,38.8759,0.1098,0.3998,0.5902,0.9315
13:58:39:534,5.5035,-0.0646,10.4614,39.3936,0.3236,0.2947,0.4973,0.214
13:58:39:552,5.269,0.2369,9.2507,38.4639,0.4275,0.2019,0.1003,359.9424
13:58:39:574,4.1707,0.7489,7.8987,36.8828,0.4434,0.1628,-0.3786,0.2438
13:58:39:593,3.4169,0.8471,7.0469,36.9969,0.3676,0.1872,-0.7378,0.9229
13:58:39:612,2.668,0.9308,6.6544,37.2277,0.2198,0.2043,-0.998,1.8727
13:58:39:632,1.718,1.1055,6.7406,38.2599,0.0817,0.1872,-1.1935,3.0901
13:58:39:657,0.9117,1.3495,6.7765,38.2126,0.0536,0.142,-1.301,4.4756
13:58:39:677,0.4881,1.5553,6.5707,40.3973,0.1294,0.0711,-1.3145,5.9152
13:58:39:694,0.0933,1.7946,6.4367,40.5961,0.199,-0.0022,-1.2754,7.3387
13:58:39:713,-0.1579,2.0459,6.743,40.647,0.1856,-0.1109,-1.2302,8.7312
13:58:39:732,-0.1053,2.0315,7.1785,40.6808,0.1232,-0.2343,-1.1825,10.1019
13:58:39:757,-0.4068,2.1823,7.6379,40.7603,0.0524,-0.3088,-1.1715,11.4603
13:58:39:775,-1.3543,2.1823,8.6572,40.7603,-0.0685,-0.2563,-1.1422,12.8696
13:58:39:795,-1.8377,2.132,9.9039,38.5025,-0.2115,-0.2587,-1.0677,15.4666
13:58:39:813,-2.6034,2.3713,11.0931,42.67,-0.319,-0.2526,-0.9174,16.6028
13:58:39:833,-3.204,2.6656,11.9545,41.701,-0.3214,-0.1683,-0.6499,17.448
13:58:39:855,-3.1824,2.869,12.5791,41.7481,-0.2286,0.0259,-0.254,17.8484
13:58:39:873,-2.6536,3.2279,12.938,41.8467,-0.0856,0.2324,0.1931,17.6863
13:58:39:893,-1.6941,3.472,12.7035,40.3598,0.0695,0.3888,0.5327,17.0784
13:58:39:911,-0.5838,3.0341,12.5862,40.9915,0.1611,0.467,0.6012,16.3934
13:58:39:932,0.122,1.9884,13.005,41.6839,0.1477,0.2874,0.4045,15.9071
13:58:39:954,-0.0168,1.3519,14.2588,41.1148,0.0341,-0.2526,0.0502,15.9193
13:58:39:975,-0.6389,0.8207,14.8953,40.4702,0.0243,-0.6362,-0.2626,16.3598
13:58:39:993,-1.5745,0.2345,14.2564,41.3889,0.2601,-0.4359,-0.4104,16.9792
13:58:40:012,-2.3617,-0.3685,12.4451,43.8189,0.6046,0.0528,-0.3139,17.4331
13:58:40:032,-2.455,-0.4331,10.8275,41.5203,0.8148,0.4108,0.0037,17.483
13:58:40:052,-1.8209,-0.3015,9.7436,42.0092,0.8074,0.4829,0.3947,17.055
13:58:40:077,-1.0863,-0.2919,8.9444,42.3107,0.7317,0.467,0.6574,16.3204
13:58:40:093,-1.127,-0.0598,7.7647,41.2956,0.7329,0.5122,0.7417,15.4737
13:58:40:113,-1.5123,0.2489,6.5061,43.0937,0.7805,0.5672,0.7844,14.5445
13:58:40:135,-1.8879,0.7298,5.281,40.3787,0.7647,0.5256,0.8956,13.5395
13:58:40:156,-1.9167,1.4237,4.4698,41.2494,0.612,0.4157,1.0837,12.3393
13:58:40:175,-1.3687,1.9693,4.5033,40.4234,0.3151,0.3033,1.2634,9.5755
13:58:40:195,-0.3135,2.7039,6.5851,41.7495,-0.3398,0.0809,1.1534,8.3418
13:58:40:214,-0.4475,2.8163,7.5039,41.2494,-0.4754,0.0003,0.9274,7.3982
13:58:40:232,-0.3183,2.881,8.1069,42.5517,-0.4754,0.0137,0.7698,6.5618
13:58:40:255,-0.0766,3.0054,8.3988,41.4128,-0.3691,0.054,0.6684,5.8343
13:58:40:277,0.2177,2.9456,8.6213,42.4523,-0.2298,0.0321,0.5413,5.2638
13:58:40:304,0.3039,2.9216,9.0544,42.9424,-0.1528,-0.0706,0.3678,4.9222
13:58:40:311,0.1842,2.9216,9.722,42.7127,-0.1357,-0.1329,0.1931,4.77
13:58:40:332,0.1125,2.7924,9.8513,42.8997,-0.093,-0.0974,0.049,4.7786
13:58:40:353,-0.0646,2.6967,9.6981,43.8217,-0.027,0.0467,-0.0268,4.8131
13:58:40:371,0.1436,2.5914,9.4493,42.3287,-0.0148,0.1896,-0.0207,4.799
13:58:40:391,0.3829,2.5292,9.5474,42.6307,-0.1186,0.2458,-0.039,4.7927
13:58:40:413,-0.079,2.5412,9.947,42.5872,-0.2726,0.2043,-0.1477,4.9278
13:58:40:432,-0.7753,2.656,10.3729,43.0079,-0.4118,0.0724,-0.2027,5.1686
13:58:40:454,-0.7609,2.7805,10.8395,41.4696,-0.523,-0.0718,-0.0585,5.3014
13:58:40:472,-0.1172,3.082,11.3587,41.4562,-0.611,-0.1817,0.2127,5.1509
13:58:40:493,0.9643,3.1968,12.0287,41.7839,-0.677,-0.2111,0.4534,4.6949
13:58:40:512,1.742,3.0652,12.5599,41.974,-0.7002,-0.1585,0.534,4.1269
13:58:40:532,2.2158,2.9551,12.9308,42.74,-0.6427,-0.0583,0.4497,3.6002
13:58:40:553,2.3785,2.7589,13.0552,42.5585,-0.4974,0.0614,0.3018,3.2144
13:58:40:574,2.3617,2.2612,12.859,42.5807,-0.2579,0.0992,0.0954,3.0591
13:58:40:594,2.467,1.541,12.213,42.3528,0.0255,0.0003,-0.1233,3.1345
13:58:40:613,2.5172,0.8638,11.2439,42.291,0.2564,-0.1268,-0.3041,3.4377
13:58:40:632,2.2708,0.4594,10.2437,42.511,0.3676,-0.1231,-0.4568,3.9149
13:58:40:653,1.9741,0.1938,9.2985,42.3344,0.3823,0.0333,-0.568,4.5179
13:58:40:673,1.6893,0.0861,8.3653,42.291,0.3505,0.2312,-0.6279,5.1361
13:58:40:692,0.8159,0.4235,6.7884,41.974,0.3102,0.3643,-0.6462,5.749
13:58:40:712,0.5575,0.6341,6.0921,43.6058,0.3187,0.2397,-0.6376,6.9857
13:58:40:733,0.4068,0.8136,5.4317,41.7677,0.2955,0.1139,-0.6425,7.6796
13:58:40:755,0.347,0.9811,5.214,42.4523,0.1868,0.0492,-0.6657,8.4122
13:58:40:771,0.1842,1.2754,5.6112,43.1296,-0.0038,-0.0229,-0.6865,9.1855
13:58:40:793,0.0431,1.6415,6.3912,40.9192,-0.1931,-0.1317,-0.6914,9.9942
13:58:40:811,-0.0359,1.8975,6.7789,42.9031,-0.2713,-0.2074,-0.667,10.7815
13:58:40:832,-0.3852,2.4072,7.1163,43.2041,-0.308,-0.2697,-0.6511,11.5804
13:58:40:854,-0.6987,2.9456,7.9155,41.5997,-0.4106,-0.3992,-0.6425,12.4181
13:58:40:874,-1.0002,3.1777,8.875,41.8844,-0.5291,-0.5666,-0.6205,13.2487
13:58:40:894,-1.4596,3.2614,9.8106,42.4318,-0.6085,-0.6191,-0.5949,14.063
13:58:40:913,-1.596,3.4074,10.9878,43.1144,-0.6562,-0.5446,-0.4935,14.7608
13:58:40:933,-1.0241,3.5031,12.3972,42.29,-0.6403,-0.3906,-0.2662,15.1365
13:58:40:954,-0.1149,3.4576,13.6176,41.0607,-0.4998,-0.1842,-0.0048,15.1918
13:58:40:972,0.4666,3.4122,14.1129,42.0932,-0.2323,0.0272,0.1039,15.0876
13:58:40:992,0.3924,3.1226,13.8186,42.5776,0.0964,0.2263,-0.0036,15.0922
13:58:41:012,-0.4116,3.0173,13.1103,42.8489,0.3163,0.3204,-0.2149,15.3397
13:58:41:031,-1.4142,3.1585,12.1771,43.1559,0.3823,0.3839,-0.3188,15.719
13:58:41:055,-1.7324,2.9862,11.1745,40.7992,0.3933,0.5537,-0.2381,15.9718
13:58:41:074,-1.5266,2.5484,10.7222,45.9766,0.3554,0.6111,-0.1428,16.089
13:58:41:093,-1.4285,1.7324,11.2917,44.937,0.2308,0.3741,-0.1856,16.3374
13:58:41:244,-1.9334,1.1821,11.7344,45.691,0.1391,-0.0046,-0.3004,16.8035
13:58:41:245,-3.7137,0.8231,9.7627,45.1452,0.601,-0.0168,-0.0964,17.5528
13:58:41:246,-3.3236,0.7968,8.6548,45.7377,0.8184,0.153,0.3642,17.3093
13:58:41:247,-2.0554,0.8973,8.339,42.8904,0.7439,0.0895,0.8162,16.5642
13:58:41:248,-0.6054,0.9715,8.9133,42.964,0.4666,-0.0559,1.0312,15.56
13:58:41:249,0.2656,0.7322,9.8034,42.2003,0.1807,-0.1048,0.9506,14.5991
13:58:41:250,0.0455,0.3996,10.4064,41.9609,0.0047,-0.0913,0.6732,13.9611
13:58:41:252,-0.6508,0.201,10.191,42.5855,0.0035,-0.0388,0.4839,13.5219
13:58:41:273,-0.9547,0.3302,9.3751,39.4488,0.1416,0.0309,0.5376,13.0201
13:58:41:295,-1.0026,0.6437,8.1859,42.5093,0.3212,0.1176,0.7368,12.2786
13:58:41:313,-0.8207,1.0361,7.1282,41.3409,0.458,0.1909,0.9408,11.2983
13:58:41:331,-0.4642,1.3639,6.4176,42.3202,0.5069,0.2324,1.0899,10.1382
13:58:41:357,-0.067,1.8831,5.9533,41.3339,0.458,0.2385,1.1619,8.9197
13:58:41:375,0.5168,2.3354,5.9533,42.4303,0.3383,0.1909,1.1668,7.6363
13:58:41:392,1.0696,2.8235,6.2692,42.7399,0.2063,0.142,1.0911,6.4482
13:58:41:412,1.3974,3.2734,6.597,42.183,0.0939,0.1176,0.9054,5.4266
13:58:41:431,1.6008,3.4193,7.0421,41.8783,-0.0026,0.1212,0.6134,4.7067
13:58:41:457,1.3567,3.5222,7.5182,41.9902,-0.0844,0.0846,0.2603,4.4278
13:58:41:476,0.6604,3.4887,8.0279,42.117,-0.1565,-0.04,-0.094,4.5496
13:58:41:494,0.1962,3.3404,8.406,43.1121,-0.2261,-0.1659,-0.3298,4.9914
13:58:41:514,0.1077,3.0844,8.7218,41.1545,-0.3153,-0.2514,-0.4422,5.6004
13:58:41:532,0.1986,2.6608,9.2746,42.4433,-0.4656,-0.2795,-0.5265,6.2847
13:58:41:554,0.2034,2.2708,9.9781,40.9668,-0.6635,-0.2721,-0.6218,7.0981
13:58:41:573,-0.0574,2.0794,10.8897,42.2003,-0.8663,-0.2575,-0.7036,7.9802
13:58:41:593,-0.213,1.5482,12.1842,41.5078,-1.0423,-0.0852,-0.5704,8.8845
13:58:41:613,0.3446,1.2754,12.8806,41.6948,-1.0178,-0.0596,-0.364,9.9572
13:58:41:633,0.8327,1.2299,13.4883,40.4873,-0.9518,-0.1707,-0.166,10.2009
13:58:41:657,1.0552,1.194,13.5601,40.4716,-0.7894,-0.2673,-0.0488,10.3203
13:58:41:674,1.1677,1.1964,12.9667,40.3342,-0.501,-0.2037,0.0331,10.3507
13:58:41:692,1.608,1.1414,11.933,41.2455,-0.1907,-0.1011,0.1491,10.217
13:58:41:711,2.4359,1.1127,11.2008,41.8362,0.0084,-0.0693,0.264,9.9254
13:58:41:732,3.3667,1.0313,10.7438,41.8362,0.0671,-0.0913,0.2896,9.5806
13:58:41:756,3.9505,0.7681,10.2891,41.0607,0.0695,-0.0913,0.1174,9.4069
13:58:41:777,3.4816,0.6174,9.6024,40.3058,0.0475,-0.0461,-0.2284,9.6316
13:58:41:795,2.3737,0.5527,8.9779,39.8854,-0.0026,0.0504,-0.5704,10.2635
13:58:41:811,1.3161,0.5671,8.2672,41.4927,-0.0136,0.1738,-0.7623,11.1077
13:58:41:831,0.5767,0.7083,7.4273,41.7958,0.0609,0.2715,-0.8075,12.02
13:58:41:851,0.3111,0.7872,6.6855,40.7517,0.1452,0.2764,-0.7818,12.9037
13:58:41:871,0.3446,0.9069,6.2572,40.7548,0.1587,0.197,-0.7586,13.7612
13:58:41:892,0.3996,0.9739,6.1783,40.7548,0.0915,0.1286,-0.7782,14.6601
13:58:41:912,0.1819,1.1964,6.4654,40.774,-0.027,0.0992,-0.8514,15.6442
13:58:41:932,-0.1675,1.3831,7.0181,40.507,-0.1406,0.0956,-0.9272,16.7082
13:58:41:957,-0.28,1.4501,7.5087,39.4867,-0.2115,0.0614,-0.9528,17.8277
13:58:41:974,-0.2441,1.5075,7.9059,39.9387,-0.2701,0.004,-0.9345,18.9259
13:58:41:994,-0.3039,1.6534,8.3725,40.0228,-0.3581,-0.0583,-0.9272,20.0299
13:58:42:013,-0.7202,1.7587,9.2076,39.9111,-0.4827,-0.0596,-0.9406,21.1563
13:58:42:032,-1.6223,1.931,9.9924,40.918,-0.567,-0.0131,-0.9077,22.2431
13:58:42:054,-2.5412,2.9695,11.5502,39.7337,-0.4852,-0.0877,-0.3505,23.5753
13:58:42:072,-1.4859,3.0389,12.2752,39.785,-0.3226,-0.1512,0.0978,23.5533
13:58:42:091,-0.39,3.0078,12.4834,40.2455,-0.0697,-0.1353,0.3861,23.173
13:58:42:111,0.079,2.9193,12.2345,40.3173,0.166,-0.0974,0.3825,22.7989
13:58:42:130,0.0526,2.7398,12.1244,40.5189,0.265,-0.0608,0.2224,22.5957
13:58:42:152,-0.5647,2.7948,12.1986,39.5834,0.2369,0.0333,0.0551,22.6005
13:58:42:173,-0.9165,2.5555,12.2991,41.2287,0.1697,0.2092,-0.0243,22.665
13:58:42:192,-1.2347,2.1966,12.1484,39.8209,0.1648,0.3876,-0.0512,22.7994
13:58:42:212,-1.4788,1.6582,12.256,39.944,0.188,0.3973,-0.1074,22.9763
13:58:42:233,-1.7324,1.0241,12.6198,40.2321,0.1978,0.1725,-0.1734,23.2748
13:58:42:254,-2.5819,0.6221,12.0957,40.5547,0.2967,-0.0364,-0.1978,23.6561
13:58:42:274,-3.4265,0.4355,10.7821,38.9496,0.5399,0.0137,-0.0537,23.8885
13:58:42:292,-3.3643,0.4116,9.3081,39.3447,0.8233,0.1677,0.3312,23.6788
13:58:42:311,-2.668,0.524,8.2887,38.4052,0.8942,0.1481,0.7331,23.0024
13:58:42:332,-1.4859,0.4953,8.4251,39.6685,0.6376,0.0015,0.9506,22.0941
13:58:42:354,-0.5216,0.146,9.6526,37.7558,0.2173,-0.1194,0.9469,21.1795
13:58:42:373,-0.5958,-0.1938,10.6146,38.6811,-0.1076,-0.1145,0.7954,20.437
13:58:42:394,-1.3185,-0.1723,10.8538,39.4477,-0.1785,-0.0302,0.7075,19.7783
13:58:42:417,-1.7683,-0.0144,10.3179,36.6336,-0.016,0.0492,0.8101,19.0183
13:58:42:443,-1.5386,0.1412,9.2148,39.9387,0.2515,0.076,1.0605,17.9808
