Time,Acc_X,Acc_Y,Acc_Z,Meg,Gyr_X,Gyr_Y,Gyr_Z,Ore
19:37:47:951,-4.4675,-1.1271,9.2585,52.5911,0.4995,0.7004,-0.2444,195.0156
19:37:47:994,-4.6698,1.5892,5.435,51.4807,-0.5823,-1.3582,0.7702,195.6094
19:37:48:021,-4.6255,0.9738,7.2785,51.2065,-0.7165,-2.7934,0.7457,195.6094
19:37:48:042,-3.9527,0.6135,10.057,51.3707,-0.7871,-3.6347,0.7505,200.1875
19:37:48:052,-2.3354,-0.5261,14.6897,50.6303,-0.7085,-2.6754,0.8419,199.3906
19:37:48:071,-0.7541,-0.987,14.0828,51.2117,-0.7311,-1.8344,0.9402,198.7969
19:37:48:092,-0.2022,-0.2508,12.8163,52.5148,-0.7572,-0.612,0.8616,198.1719
19:37:48:121,-0.0981,0.1227,11.5055,49.9312,-0.6635,0.5281,0.68,197.25
19:37:48:138,-0.3327,0.009,10.3742,51.2099,-0.4547,0.9987,0.5274,196.1719
19:37:48:153,-1.0342,0.1167,9.3303,51.4458,-0.1503,0.8424,0.4395,195.1562
19:37:48:170,-1.44,0.2999,8.7521,51.1658,0.1749,0.2698,0.395,194.2031
19:37:48:202,-1.3442,0.3777,8.7126,51.4874,0.4348,-0.2535,0.3575,193.4375
19:37:48:215,-1.0246,0.3849,9.037,51.4874,0.5869,-0.3212,0.2917,192.9219
19:37:48:229,-0.8319,0.5213,9.6452,50.8119,0.6582,-0.1065,0.2222,192.5781
19:37:48:260,-0.7433,0.6255,10.2162,51.4946,0.6625,0.0602,0.1439,192.4062
19:37:48:269,-0.7337,0.7153,10.1635,51.4946,0.6138,0.0879,0.0706,192.3281
19:37:48:300,-0.778,1.0098,9.7002,51.3398,0.5333,0.2005,-0.0077,192.2969
19:37:48:315,-0.7241,1.1223,9.1591,51.1298,0.4662,0.3129,-0.0849,192.3438
19:37:48:333,-1.0797,1.175,8.2625,51.9012,0.3696,0.2346,-0.0724,192.4531
19:37:48:347,-1.4592,1.4024,7.0989,51.2837,0.1562,-0.1806,-0.0037,192.5938
19:37:48:367,-0.9552,1.388,6.9936,53.4622,-0.1002,-0.6314,-0.0418,192.75
19:37:48:386,0.2802,1.2396,7.9034,50.8504,-0.2672,-0.8131,-0.2343,192.8594
19:37:48:418,0.9315,1.3342,9.1125,51.6826,-0.2781,-0.7763,-0.4037,192.9531
19:37:48:433,0.6334,0.9727,9.7457,53.3997,-0.1716,-0.7654,-0.4298,193.3906
19:37:48:446,0.0779,0.6722,10.2988,53.6828,-0.0531,-0.7324,-0.2743,193.9219
19:37:48:473,-0.2166,0.7416,10.8231,50.3173,-0.0515,-0.5247,0.0501,194.4688
19:37:48:485,0.1917,1.0541,10.6483,51.9414,-0.211,-0.1526,0.4525,194.9062
19:37:48:505,1.0476,1.3761,9.7014,51.6967,-0.4164,0.0389,0.7204,194.9219
19:37:48:531,1.8987,1.5018,9.0107,50.4055,-0.5996,-0.1955,0.7524,194.4219
19:37:48:545,1.955,1.7807,9.6368,52.1086,-0.7407,-0.5649,0.6914,193.4844
19:37:48:568,1.7215,2.1422,11.0482,49.9054,-0.7719,-0.4922,0.5817,192.5156
19:37:48:589,1.6294,2.0584,11.6084,51.1155,-0.6459,-0.1816,0.4512,191.6562
19:37:48:605,1.5001,2.1781,11.3642,50.019,-0.3998,0.1611,0.2919,190.9375
19:37:48:625,1.6868,2.7563,10.5514,51.1513,-0.2046,0.1372,0.0296,190.3125
19:37:48:646,2.0927,3.0831,9.7804,50.5411,-0.2017,-0.273,-0.3581,189.875
19:37:48:667,2.2255,2.809,9.8116,50.7549,-0.2976,-0.4898,-0.7707,189.7812
19:37:48:683,1.6162,2.1063,10.4747,49.3389,-0.4147,-0.2788,-1.0594,190.1875
19:37:48:703,0.7746,1.2851,11.0649,50.5902,-0.4637,0.3925,-1.1488,191.0781
19:37:48:721,0.2096,0.8625,10.7848,50.4051,-0.4006,1.0911,-1.1358,192.1875
19:37:48:741,-0.2657,0.8841,9.8535,49.3061,-0.2302,1.4344,-1.1078,193.3594
19:37:48:768,-0.596,1.2097,8.6923,48.9009,-0.0664,1.5167,-1.1017,194.4375
19:37:48:785,-1.0486,1.4659,7.6077,50.421,0.1014,1.5036,-1.1041,195.4531
19:37:48:803,-1.9392,1.5341,6.4154,48.3515,0.2202,1.2229,-0.9922,196.5469
19:37:48:820,-2.7365,1.7304,5.4864,50.0034,0.2455,0.7241,-0.7518,197.7031
19:37:48:845,-2.594,2.1302,5.3835,49.9889,0.1914,0.1798,-0.5342,198.7969
19:37:48:866,-1.9212,2.736,6.1149,48.0618,0.0747,-0.2501,-0.5086,199.625
19:37:48:883,-1.5621,3.0879,7.5119,49.6166,-0.0709,-0.4394,-0.6348,199.9688
19:37:48:899,-1.926,2.7108,9.28,48.37,-0.1847,-0.2812,-0.7235,200.5781
19:37:48:924,-2.5102,1.9794,10.6555,49.4504,-0.2765,0.2458,-0.6623,200.5781
19:37:48:940,-3.4056,1.7101,10.8459,48.526,-0.3474,0.5795,-0.4596,201.6094
19:37:48:965,-4.0605,1.6023,11.0278,46.6931,-0.3442,0.478,-0.1808,202.4062
19:37:48:987,-4.0018,1.2504,11.5665,47.2315,-0.227,0.1912,0.1439,203.4375
19:37:49:002,-3.4787,1.2205,12.2932,46.3001,-0.0491,-0.0642,0.4336,203.4375
19:37:49:018,-2.8047,1.588,12.839,48.7423,0.1059,-0.3462,0.5769,203.5
19:37:49:039,-2.0685,1.8741,13.7045,47.9396,0.1866,-0.6314,0.5423,203.25
19:37:49:059,-1.5872,1.7149,14.9711,47.8958,0.2463,-0.6661,0.4264,202.75
19:37:49:083,-2.1439,1.3282,15.7791,47.5443,0.385,-0.4344,0.4733,202.1719
19:37:49:100,-1.9021,0.5872,15.4272,47.2147,0.5981,-0.2586,0.5678,201.6406
19:37:49:118,-1.6698,0.2424,14.2468,46.6932,0.8556,-0.2498,0.6973,201.2812
19:37:49:138,-1.2185,0.1239,12.5362,47.0559,1.0905,-0.3968,0.8014,200.9062
19:37:49:159,-0.863,0.0293,10.6747,46.5811,1.2148,-0.6173,0.8488,200.4531
19:37:49:183,-0.8055,0.3011,9.1603,46.2489,1.1746,-0.844,0.8866,199.9219
19:37:49:199,-0.6296,0.7596,8.1081,47.3425,0.9935,-1.0094,0.8528,199.3594
19:37:49:219,-0.3291,0.8482,7.4473,47.1548,0.6993,-1.1207,0.729,198.8438
19:37:49:239,-0.2585,0.9499,7.3766,46.445,0.4079,-1.0464,0.6333,198.25
19:37:49:258,-0.1459,0.9379,7.3922,45.7925,0.1989,-0.7942,0.5923,197.6875
19:37:49:282,-0.14,0.8254,7.4808,45.8248,0.0902,-0.3918,0.5817,197.2344
19:37:49:300,-0.3399,0.6303,7.6053,45.0391,0.1056,0.1595,0.6379,196.7969
19:37:49:319,-0.5278,0.5249,7.4748,46.4868,0.2361,0.6959,0.7729,196.3125
19:37:49:339,-0.7744,0.744,6.6333,46.1131,0.3863,0.9598,0.9242,195.7656
19:37:49:359,-0.5733,1.1941,5.7306,47.6269,0.4731,0.9012,0.9998,194.5625
19:37:49:383,-0.0885,1.5796,4.8759,46.7823,0.4646,0.6368,0.9481,193.4844
19:37:49:400,0.0791,1.9854,4.6916,45.2748,0.3909,0.1497,0.8576,192.3281
19:37:49:420,0.1976,2.2344,5.5116,46.2059,0.2931,-0.3001,0.7311,191.125
19:37:49:439,0.376,2.305,6.9038,45.6223,0.1917,-0.5087,0.5678,190.0938
19:37:49:460,0.607,2.1698,8.3738,45.5398,0.0585,-0.4248,0.3934,189.3125
19:37:49:482,0.7806,2.0524,9.5207,44.3012,-0.1154,-0.1534,0.2419,188.7344
19:37:49:499,1.0141,2.0764,10.4436,46.2915,-0.2933,-0.0378,0.0816,188.3281
19:37:49:518,1.4965,1.9962,11.3774,44.486,-0.4203,-0.1217,-0.1318,188.0312
19:37:49:542,1.7371,1.3821,12.3925,45.234,-0.4627,-0.1369,-0.3182,187.8281
19:37:49:566,1.7491,0.5525,12.8414,45.7086,-0.4672,0.0362,-0.3558,187.7969
19:37:49:582,1.7563,-0.1622,12.7061,44.8536,-0.4454,0.4117,-0.2407,188.0156
19:37:49:601,1.8281,-0.1981,11.6335,44.2221,-0.4283,0.6666,-0.0599,188.3281
19:37:49:619,2.7044,1.1714,9.7984,43.5748,-0.5029,0.4834,0.0278,188.5625
19:37:49:638,3.0815,1.5724,10.8782,43.3974,-0.6608,-0.1356,-0.0689,188.5
19:37:49:660,3.0384,1.5449,12.6295,43.352,-0.7799,-0.8434,-0.3145,188.2812
19:37:49:684,3.0958,1.4682,13.8278,43.2616,-0.7929,-1.1702,-0.5558,188.1094
19:37:49:699,2.8755,1.5449,14.0062,43.1954,-0.782,-0.873,-0.7584,188.2656
19:37:49:718,1.785,1.8801,13.2688,43.0304,-0.7141,-0.4117,-0.9539,188.8125
19:37:49:738,0.7818,1.9531,12.3291,41.5574,-0.5761,-0.22,-1.0972,189.5781
19:37:49:758,0.0217,1.752,11.2553,40.8381,-0.378,-0.2349,-1.1816,190.5312
19:37:49:783,-0.5542,1.5832,9.8906,43.3925,-0.1452,-0.2125,-1.1789,192.2344
19:37:49:802,-0.9959,1.5461,8.4014,41.8561,0.0942,-0.1214,-1.0985,193.4844
19:37:49:818,-1.1096,1.5808,6.8308,43.0991,0.3203,-0.0437,-0.9595,194.8438
19:37:49:838,-0.9252,1.7855,5.4864,41.0452,0.4902,-0.0085,-0.8165,196.125
19:37:49:862,-0.365,2.1302,4.5623,41.7341,0.5485,0.032,-0.7267,197.25
19:37:49:884,0.2707,2.5816,4.0547,43.5194,0.4521,0.1483,-0.7717,198.2656
19:37:49:903,0.5185,2.8784,4.2343,41.7978,0.1142,0.4426,-1.0037,199.2031
19:37:49:968,0.0049,2.6965,5.4972,42.0798,-0.4174,0.9321,-1.3297,200.1094
19:37:49:969,-0.8642,2.3014,7.2354,41.5088,-0.8438,1.3742,-1.5385,201.2188
19:37:49:976,-1.4651,1.9543,8.958,43.2673,-0.8979,1.3476,-1.5409,202.5312
19:37:49:988,-1.683,1.2216,10.0055,42.9065,-0.6049,0.8799,-1.3978,203.9375
19:37:50:001,-2.0397,0.8003,10.7776,42.6779,-0.2017,0.3041,-1.1808,205.2812
19:37:50:020,-2.0625,0.5177,11.1655,41.8455,0.1248,-0.0421,-0.866,206.6562
19:37:50:039,-1.8722,0.6865,11.3067,42.1312,0.242,-0.0474,-0.5113,207.3125
19:37:50:059,-1.4651,1.1055,11.4252,43.0287,0.1757,0.1774,-0.1973,208.4219
19:37:50:083,-0.9312,1.4024,11.4109,41.1232,0.0684,0.3113,0.0038,209.2812
19:37:50:100,-0.5051,1.4922,11.2349,42.3461,-0.0089,0.2637,0.0765,209.7344
19:37:50:118,-0.3854,1.6969,11.3498,42.1769,-0.1207,0.0927,0.0632,209.8438
19:37:50:140,-0.6367,2.1326,12.2141,43.8622,-0.3018,-0.2341,-0.0189,209.7656
19:37:50:159,-1.3275,1.6694,14.2935,44.6879,-0.5394,-0.7044,-0.1933,209.6562
19:37:50:184,-2.2014,0.1407,16.2819,43.9641,-0.6422,-0.8647,-0.3424,209.5625
19:37:50:200,-2.7089,-1.0397,15.7121,43.7499,-0.4198,-0.506,-0.229,209.5781
19:37:50:220,-2.5509,-0.9726,12.9252,44.4444,-0.0086,0.0466,0.1303,209.9219
19:37:50:244,-1.7584,-0.6015,10.051,43.5077,0.2993,0.2341,0.4855,210.0938
19:37:50:257,-0.8714,-0.2867,8.9544,45.0622,0.3317,-0.0863,0.6701,210.0938
19:37:50:278,-0.3614,-0.173,8.9473,46.6919,0.2114,-0.4749,0.681,209.4688
19:37:50:302,-0.3028,-0.2209,8.9892,46.0624,0.1035,-0.6597,0.6219,208.7812
19:37:50:320,-0.377,-0.3454,8.5606,44.7919,0.0233,-0.4322,0.6086,207.4844
19:37:50:339,-0.4356,-0.1981,7.7597,44.5955,-0.0478,-0.2953,0.6696,207.4844
19:37:50:358,-0.1591,0.1048,7.33,45.4941,-0.1314,-0.2642,0.6848,206.8594
19:37:50:382,0.0253,0.4208,7.5814,45.0689,-0.1255,-0.2565,0.6451,206.2031
19:37:50:402,0.024,0.4794,7.8124,46.2328,-0.0352,-0.2306,0.6065,204.6875
19:37:50:417,-0.11,0.3083,7.8387,47.1182,0.0822,-0.119,0.6368,204.6875
19:37:50:438,-0.3076,0.1407,7.7633,47.4081,0.2119,0.0511,0.7487,203.9375
19:37:50:458,-0.3626,0.1802,7.3024,46.2608,0.2985,0.0951,0.8802,203.2969
19:37:50:484,0.0695,0.2999,6.9421,46.8046,0.3341,-0.0208,0.9742,202.5938
19:37:50:503,0.6549,0.6111,6.8296,48.8782,0.3139,-0.3273,0.9607,201.7656
19:37:50:518,1.3468,1.0145,7.3994,47.2632,0.2423,-0.6687,0.8129,200.8594
19:37:50:538,1.8293,1.1965,8.4277,49.0757,0.1373,-0.8195,0.5468,199.8125
19:37:50:558,1.9442,0.981,9.7158,47.8305,-0.0065,-0.7052,0.2581,198.8281
19:37:50:583,1.8113,0.4483,11.1966,48.355,-0.1689,-0.3547,0.0485,198.0156
19:37:50:601,1.4714,0.1024,12.1639,49.4178,-0.2968,0.0165,-0.0601,197.5312
19:37:50:618,1.4031,0.0006,12.3925,50.0653,-0.3724,0.1547,-0.152,197.3281
19:37:50:643,1.4833,-0.3418,12.4548,48.463,-0.4046,0.1111,-0.238,197.2812
19:37:50:657,1.8951,-0.9834,12.3255,48.463,-0.4222,0.0711,-0.2639,197.3281
19:37:50:678,2.2459,-0.8841,11.4959,49.6143,-0.5658,-0.0274,-0.3502,197.4688
19:37:50:700,2.362,-0.2017,11.758,51.4106,-0.8262,-0.2706,-0.6333,197.6875
19:37:50:719,2.0663,-0.6997,13.6926,49.5007,-0.9852,-0.2972,-0.9408,197.9219
19:37:50:738,1.0308,-1.8777,15.2081,49.6503,-0.9362,-0.0405,-0.968,198.3438
19:37:50:760,0.6226,-2.736,14.7233,49.4351,-0.729,0.2293,-0.6402,199.125
19:37:50:783,0.7842,-2.6306,12.5242,49.6495,-0.6102,0.1739,-0.1382,200.0625
19:37:50:800,1.1852,-1.3665,11.1092,50.1556,-0.541,0.1204,0.3271,200.875
19:37:50:818,2.1585,-0.1,10.7668,49.4351,-0.3207,0.1673,0.4962,201.2031
19:37:50:838,2.921,0.5513,10.0294,49.2611,-0.0361,0.1017,0.3436,200.9688
19:37:50:858,2.8839,0.7763,9.0478,50.0826,0.2287,0.2005,0.1279,200.3906
19:37:50:882,2.2483,0.6039,7.6747,51.0262,0.4324,0.3276,0.0334,199.8438
19:37:50:902,1.518,0.5668,6.2993,51.0733,0.5445,0.3183,0.0784,199.5938
19:37:50:922,1.2511,0.5908,5.5642,49.9524,0.573,0.2157,0.1926,199.5781
19:37:50:939,1.4175,0.6722,5.5343,49.366,0.5751,0.2075,0.3159,199.6094
19:37:50:958,1.7527,0.7775,5.8216,50.7204,0.5962,0.2176,0.395,199.5625
19:37:50:984,2.113,1.1139,6.2945,50.9182,0.6449,0.2437,0.4046,199.375
19:37:51:000,2.2842,1.6251,6.4537,51.1712,0.6708,0.1619,0.3676,199.0625
19:37:51:018,3.2323,2.7695,6.9864,51.939,0.6226,-0.0509,0.1692,198.7031
19:37:51:039,2.7846,2.7575,7.4688,52.0008,0.4689,-0.2594,-0.2226,198.375
19:37:51:057,1.8437,2.1985,8.6528,50.6763,0.2071,-0.3462,-0.6082,198.1719
19:37:51:083,0.6657,1.6945,9.9744,50.5153,-0.0792,-0.2003,-0.8242,198.3125
19:37:51:102,-0.2956,1.3246,11.5007,51.5449,-0.284,0.0442,-0.8468,198.9062
19:37:51:118,-0.8295,1.1127,12.3291,52.1052,-0.3034,0.33,-0.6937,200.2344
19:37:51:138,-0.9025,1.2588,12.0837,51.7851,-0.1785,0.5808,-0.4423,201.1406
19:37:51:157,-0.4057,1.0924,11.6659,50.9216,-0.0765,0.5691,-0.2234,201.8594
19:37:51:177,0.3233,0.7117,10.8123,51.8831,-0.0736,0.4786,-0.1206,202.25
19:37:51:202,0.1234,0.4938,9.9157,52.11,-0.2821,0.3843,-0.1504,202.4375
19:37:51:220,-0.7792,0.0186,12.0501,52.3973,-0.7205,-0.2714,-0.1848,202.5312
19:37:51:245,-0.5889,-0.9882,16.1358,51.462,-0.9823,-1.2285,-0.0591,202.6094
19:37:51:257,-0.1783,-1.9746,17.9052,52.736,-0.6467,-1.6051,0.1095,202.6875
19:37:51:278,-0.3027,-2.2775,14.6862,51.251,0.0942,-1.0085,0.2757,202.5938
19:37:51:300,-0.292,-1.734,10.5394,51.2571,0.4881,-0.2221,0.4312,202.5156
19:37:51:319,0.0875,-1.5221,8.8072,49.6374,0.2502,0.0469,0.5537,202.3125
19:37:51:338,0.443,-1.5125,9.1639,50.9417,-0.1471,-0.0831,0.652,201.9844
19:37:51:358,0.4335,-1.2576,9.5374,48.4785,-0.3152,-0.2988,0.7524,201.5
19:37:51:384,0.5041,-0.8841,9.219,49.9088,-0.2222,-0.478,0.8714,200.8438
19:37:51:400,0.7878,-0.3286,8.302,48.9566,-0.0472,-0.5617,0.9913,200.0
19:37:51:419,1.1445,0.2544,7.3623,49.8695,0.0156,-0.474,1.0445,199.0469
19:37:51:444,1.3636,0.6877,6.6596,49.358,-0.0387,-0.2431,1.007,196.9062
19:37:51:466,1.445,0.9427,6.3256,49.1589,-0.1833,-0.0131,0.7804,195.7344
19:37:51:481,1.3062,1.157,6.3855,48.7954,-0.1966,-0.0828,0.6645,194.625
19:37:51:500,1.0236,1.1355,6.9457,47.1982,-0.146,-0.1571,0.582,193.6875
19:37:51:520,0.8321,0.987,7.5419,47.6623,-0.0568,-0.1958,0.5369,192.8438
19:37:51:543,0.6908,0.8649,8.2529,48.7821,0.0641,-0.1649,0.5053,192.125
19:37:51:567,0.5939,0.7392,8.8263,48.3986,0.2324,-0.1049,0.4709,191.5156
19:37:51:579,0.5161,0.7236,8.8108,47.8008,0.3504,-0.0815,0.4033,190.6562
19:37:51:602,0.3305,0.7452,8.7593,48.4009,0.3517,-0.0304,0.329,190.1562
19:37:51:620,0.4766,0.6734,9.1113,46.0379,0.2556,0.0796,0.2291,189.7656
19:37:51:639,0.6813,0.4543,9.9792,47.0764,0.1136,0.3454,0.105,189.4375
19:37:51:668,0.643,0.1514,10.8219,46.1283,-0.0094,0.6674,0.0105,189.2031
19:37:51:678,0.5891,-0.3681,11.6695,46.3784,-0.0608,0.9289,-0.0396,189.0625
19:37:51:699,0.3341,-1.0181,12.7014,46.095,-0.0339,1.233,0.0198,189.0625
19:37:51:719,-0.0166,-1.4611,13.3789,45.3027,0.0827,1.5105,0.2192,189.0
19:37:51:738,0.7686,-1.661,13.2197,46.1302,0.3344,1.4797,0.3476,188.9531
19:37:51:757,2.2387,-1.5341,11.515,46.0364,0.4143,1.1401,0.1929,188.8281
19:37:51:777,2.7235,-0.7584,10.0103,45.401,0.0862,0.5278,-0.2234,188.4688
19:37:51:801,1.8149,-0.6207,11.1607,44.6507,-0.3242,-0.1521,-0.6817,188.0156
19:37:51:817,0.54,-2.3074,14.3881,47.0917,-0.3514,-0.2131,-0.8162,187.7656
19:37:51:837,0.3197,-3.8684,15.402,45.8824,-0.1,0.2628,-0.5816,187.9688
19:37:51:858,0.9027,-3.2938,13.4831,45.3675,0.1632,0.4413,-0.2849,188.6875
19:37:51:877,1.8808,-1.5281,10.8387,44.6301,0.2684,0.0988,-0.2977,189.5781
19:37:51:901,2.1154,0.1323,9.1927,42.4809,0.2231,-0.2794,-0.6218,190.2031
19:37:51:917,1.8867,0.671,8.3655,44.2089,0.1214,-0.3393,-1.0042,190.5
19:37:51:937,1.4211,0.3047,7.6053,44.8703,-0.0094,-0.0464,-1.2636,190.8906
19:37:51:958,0.2551,-0.2137,6.6488,44.3183,-0.1612,0.3888,-1.253,191.6875
19:37:51:982,-0.9001,-0.0233,5.8659,43.1555,-0.2664,0.5886,-0.9992,192.8281
19:37:52:043,-1.0569,0.4771,5.9629,44.1891,-0.2368,0.4607,-0.6924,194.2812
19:37:52:044,-0.5075,1.0804,6.9469,43.4023,-0.019,0.2557,-0.4641,195.6562
19:37:52:045,0.1881,1.5544,7.3443,43.0941,0.2681,0.0562,-0.3683,197.3594
19:37:52:059,0.6106,1.8741,7.3288,43.9597,0.4444,-0.0679,-0.3872,197.875
19:37:52:084,0.358,1.8705,7.4329,43.0646,0.4548,-0.0501,-0.4101,198.1094
19:37:52:096,-0.0406,1.7651,8.0087,44.0796,0.3645,0.0802,-0.3555,198.6094
19:37:52:127,-0.2501,1.6239,9.1053,41.0405,0.2689,0.2325,-0.282,199.1875
19:37:52:137,-0.6834,1.661,10.5298,41.9305,0.2827,0.3209,-0.1928,199.7344
19:37:52:158,-0.9887,1.3078,11.4097,41.0587,0.4012,0.2519,-0.0775,200.1406
19:37:52:180,-1.4496,0.902,11.6994,42.1278,0.519,0.0961,0.1055,200.4688
19:37:52:205,-1.7728,0.5285,11.9065,40.2132,0.5983,-0.0863,0.3465,200.7031
19:37:52:224,-1.7046,0.1335,12.1064,41.1743,0.6415,-0.1587,0.5654,200.8125
19:37:52:238,-1.3646,0.0676,11.5294,40.6542,0.581,-0.1207,0.7005,200.7031
19:37:52:258,-0.9911,0.483,10.2509,40.3603,0.283,-0.2594,0.6933,200.3438
19:37:52:287,-1.0043,0.9786,10.4161,40.2924,-0.1338,-0.596,0.6155,199.7656
19:37:52:306,-1.0043,0.7105,12.5745,39.6233,-0.2928,-0.7103,0.5369,199.125
19:37:52:319,-1.0869,0.0317,14.1834,40.5359,-0.1274,-0.4525,0.5106,198.4375
19:37:52:344,-1.1012,-0.5764,13.2101,40.2397,0.017,-0.1041,0.5391,197.7969
19:37:52:356,-0.9528,-0.7057,10.8985,40.7777,-0.0928,-0.0101,0.5721,197.2344
19:37:52:377,-0.3411,-0.5273,9.4799,39.9738,-0.3338,-0.1358,0.4983,196.6719
19:37:52:400,0.3257,-0.0126,9.122,38.2777,-0.5508,-0.2679,0.3338,196.0312
19:37:52:418,0.0875,0.1826,8.9939,40.759,-0.6771,-0.3017,0.1479,195.3594
19:37:52:437,-0.0969,0.319,8.7437,40.5194,-0.7194,-0.2778,0.015,194.8125
19:37:52:457,-0.2621,0.264,8.3762,39.3054,-0.7,-0.2251,-0.0383,194.4531
19:37:52:477,-0.2824,0.2388,8.1332,39.4491,-0.6105,-0.1947,0.0331,194.25
19:37:52:500,0.1821,0.4399,8.1452,38.9176,-0.4369,-0.2088,0.2581,194.1094
19:37:52:518,0.9039,0.89,8.0985,39.4187,-0.1767,-0.1995,0.517,193.9531
19:37:52:537,1.5671,1.3497,7.8543,38.2315,0.1248,-0.1976,0.6405,193.5938
19:37:52:560,1.9059,1.4156,7.2845,39.3566,0.393,-0.212,0.5572,193.0156
19:37:52:586,1.6078,0.9391,7.4185,39.5342,0.4838,-0.2253,0.3218,192.3281
19:37:52:602,0.8956,0.1538,8.3726,39.2697,0.3965,-0.1119,0.0943,192.0156
19:37:52:619,0.066,-0.3729,9.7505,36.8066,0.2654,0.1534,-0.0149,191.6094
19:37:52:637,-0.8235,-1.0337,10.695,38.1453,0.2487,0.372,-0.0359,191.5
19:37:52:656,-1.9129,-1.5281,10.7692,38.996,0.3195,0.5459,0.0224,191.5312
19:37:52:677,-2.0206,-1.576,10.5562,37.4544,0.3256,0.6232,0.2331,191.5781
19:37:52:702,-1.4963,-1.5078,10.9285,38.6221,0.2798,0.4024,0.4592,191.6094
19:37:52:717,-1.0713,-1.4347,10.9692,40.3474,0.2747,0.1084,0.5694,191.4844
19:37:52:737,-0.5901,-1.3653,10.3455,40.495,0.2654,0.032,0.5985,191.0781
19:37:52:758,0.0983,-1.3186,9.2836,40.1202,0.1291,0.1353,0.5559,190.5156
19:37:52:785,0.2276,-0.5142,8.7126,38.8181,-0.1828,0.2495,0.4224,189.9219
19:37:52:802,0.4227,0.1682,9.134,38.658,-0.6422,0.2157,0.2001,189.2812
19:37:52:821,0.291,0.0557,11.4348,37.8528,-1.1269,0.004,-0.1262,188.6719
19:37:52:838,-0.0166,-0.8781,14.5377,39.744,-1.3929,-0.2085,-0.4229,188.2188
19:37:52:858,-0.2249,-1.4395,15.6774,38.8398,-1.2262,-0.1686,-0.5051,187.9531
19:37:52:876,0.3341,-1.2875,14.4743,39.1423,-0.8049,0.1545,-0.3555,188.0312
19:37:52:897,1.1493,-0.7931,12.122,38.767,-0.4267,0.4064,-0.1683,188.3125
19:37:52:917,1.1996,-0.0437,10.6723,38.1498,-0.2938,0.4967,-0.1387,188.7031
19:37:52:937,0.8393,0.2077,10.2138,38.2551,-0.288,0.5044,-0.2332,188.7812
19:37:52:957,0.4382,0.0329,9.456,39.3337,-0.2289,0.5744,-0.3579,188.8438
19:37:52:978,-0.1136,-0.0832,8.1608,39.7591,-0.1359,0.7047,-0.4468,189.0156
19:37:53:001,-0.5422,-0.0629,7.2522,39.0,-0.0933,0.7534,-0.4436,189.3594
19:37:53:018,-0.705,0.0533,7.1588,38.6916,-0.0723,0.6325,-0.3584,189.7812
19:37:53:037,-0.632,0.1203,7.3779,40.1701,0.0047,0.421,-0.2386,190.2344
19:37:53:057,-0.4045,0.2927,7.306,40.0129,0.1472,0.2631,-0.1083,190.5938
19:37:53:079,-0.0873,0.6399,6.972,40.9405,0.3014,0.1824,0.0144,190.8594
19:37:53:103,0.3365,0.9032,6.9026,40.5754,0.4577,0.0144,0.1039,191.0
19:37:53:119,0.7854,1.2049,7.1241,41.1453,0.4774,-0.1558,0.023,191.0
19:37:53:137,0.7675,1.2612,7.9345,41.1453,0.5003,-0.3441,-0.107,191.0625
19:37:53:156,-0.0657,1.0517,9.1723,39.3546,0.5507,-0.5286,-0.1709,191.0625
19:37:53:180,-1.3215,0.3597,10.9237,40.2359,0.7432,-0.6519,-0.038,191.4531
19:37:53:201,-1.6818,-0.1335,12.2441,38.645,1.0473,-0.6583,0.199,191.4531
19:37:53:218,-1.4089,-0.0533,11.5821,39.8165,1.1405,-0.5164,0.3503,191.7969
19:37:53:236,-0.7361,0.3478,10.61,40.415,0.9049,-0.2639,0.3511,192.0781
19:37:53:258,-0.2573,0.6075,10.1623,41.0211,0.5259,0.0399,0.2251,192.1719
19:37:53:275,-0.0502,0.428,10.0091,39.7383,0.1504,0.318,0.0664,192.0938
19:37:53:296,-0.4835,0.5549,9.3315,40.0591,-0.2962,0.302,-0.0623,191.7969
19:37:53:317,-1.1216,0.6399,9.7792,39.2621,-0.7508,-0.1177,-0.1017,191.7188
19:37:53:337,-1.5765,0.1478,12.7852,41.805,-0.7801,-0.5044,-0.0652,191.7031
19:37:53:357,-1.9847,-1.0672,14.831,41.4414,-0.3985,-0.4663,0.0922,191.6719
19:37:53:376,-1.9643,-1.898,13.7309,38.8731,-0.04,-0.0924,0.374,191.6094
19:37:53:401,-1.367,-1.333,10.2808,39.1122,-0.0946,-0.0663,0.5676,191.5312
19:37:53:418,-0.4093,-0.5118,8.3343,39.7591,-0.4198,-0.4378,0.514,191.2656
19:37:53:437,0.2371,-0.2771,8.6851,38.6372,-0.7444,-0.7486,0.3122,190.6875
19:37:53:457,0.2072,-0.574,9.9001,39.5908,-0.8675,-0.8275,0.1575,190.0
19:37:53:477,-0.0645,-0.6638,10.7214,38.8243,-0.7761,-0.8482,0.1077,189.4844
19:37:53:500,-0.14,-0.5381,10.9991,39.8906,-0.5658,-0.8376,0.1287,189.125
19:37:53:520,0.2515,-0.1718,10.8483,39.024,-0.3072,-0.8149,0.1487,188.875
19:37:53:538,0.5412,0.0748,10.3981,38.2583,-0.0094,-0.7771,0.1428,188.6875
19:37:53:558,0.382,-0.0078,9.7673,38.5518,0.2614,-0.6575,0.1817,188.5
19:37:53:575,0.3401,-0.0808,8.897,38.9792,0.4308,-0.3795,0.2357,188.4219
19:37:53:596,0.4897,-0.0317,7.8962,37.9426,0.4886,-0.0445,0.2086,188.3125
19:37:53:618,0.7399,0.0054,7.2342,41.1562,0.5192,0.1965,0.0933,188.1875
19:37:53:637,0.977,-0.1095,6.6943,39.499,0.5328,0.3792,-0.1166,188.0156
19:37:53:657,0.8932,-0.3178,6.0072,40.5382,0.4202,0.4527,-0.3493,187.8438
19:37:53:679,0.6346,-0.392,6.0491,41.7292,0.213,0.388,-0.5587,187.8125
19:37:53:702,0.3976,-0.7763,7.3347,40.0804,-0.007,0.1864,-0.7193,187.9844
19:37:53:718,-0.0071,-1.3114,9.802,40.8735,-0.1447,0.0831,-0.7707,188.7031
19:37:53:737,-0.4704,-1.8034,12.7935,40.7831,-0.068,0.2189,-0.6522,189.4375
19:37:53:756,-0.5637,-2.1626,14.6407,40.2874,0.1584,0.6131,-0.3874,190.2344
19:37:53:778,0.1928,-2.0081,14.4994,38.9132,0.4196,1.0165,-0.147,191.0469
19:37:53:800,2.9139,-1.2731,9.1005,39.8865,0.5373,1.1012,-0.1366,191.625
19:37:53:818,2.8672,-0.1227,7.087,40.1126,0.2857,0.8149,-0.396,191.875
19:37:53:836,1.2786,-0.0425,9.2058,40.8285,-0.472,0.0242,-0.9371,192.0
19:37:53:856,-1.4232,-2.7491,15.1051,41.3013,-1.3825,-0.5268,-1.4769,192.2812
19:37:53:878,-2.9543,-4.558,17.9674,40.102,-1.6795,-0.0461,-1.3694,192.9062
19:37:53:900,-1.379,-4.3976,13.8338,41.8071,-1.1732,0.9574,-0.4854,194.1562
19:37:53:917,0.8465,-2.3816,10.9153,40.668,-0.6105,1.0061,0.5037,195.5781
19:37:53:937,3.7171,-0.7296,8.5714,42.2942,-0.0664,0.6898,1.0773,196.375
19:37:53:956,4.342,0.5297,7.1025,43.3501,0.3038,-0.3566,0.8166,196.1094
19:37:53:975,3.686,0.0916,6.5686,43.3987,0.2215,-0.9864,0.1417,195.0
19:37:54:000,2.3225,-0.5369,6.9194,40.6455,-0.1655,-0.8109,-0.4346,193.8438
19:37:54:019,1.032,-0.7883,7.172,42.8093,-0.5303,-0.1515,-0.7488,193.4219
19:37:54:036,0.0971,-0.6015,7.6017,43.0954,-0.6627,0.4317,-0.8418,193.6719
19:37:54:109,-0.3447,-0.1179,8.6216,42.8268,-0.5319,0.6227,-0.7784,194.3125
19:37:54:109,-0.2489,-0.2041,8.8599,41.5217,-0.1157,0.4748,-0.6647,195.0625
19:37:54:110,-0.4057,-0.2101,7.798,43.1258,0.3893,0.1942,-0.5563,195.8594
19:37:54:124,-0.6655,-0.0521,6.6799,44.7321,0.6537,-0.0101,-0.4247,196.6094
19:37:54:135,-0.7385,0.2364,6.4477,44.8671,0.6393,-0.1915,-0.2831,197.3438
19:37:54:156,-0.4021,0.5489,7.0546,44.3047,0.4974,-0.4208,-0.1688,198.0
19:37:54:176,0.0085,0.7823,8.1919,43.8896,0.3371,-0.5915,-0.1225,198.7812
19:37:54:196,0.1809,0.9284,9.972,44.7921,0.205,-0.6413,-0.1446,199.1094
19:37:54:217,-0.0466,0.823,11.2493,43.3832,0.2313,-0.5212,-0.1834,199.3125
19:37:54:237,-0.5123,0.7512,11.0673,46.1466,0.4305,-0.2927,-0.1874,199.5469
19:37:54:256,-0.6308,0.7883,10.6531,45.9697,0.5853,-0.0722,-0.1118,199.8125
19:37:54:279,-0.5829,0.9978,10.8782,45.6152,0.5469,0.1459,-0.0127,200.1094
19:37:54:301,-0.6056,1.1259,11.4073,48.0291,0.3762,0.412,0.0592,200.3594
19:37:54:318,-0.104,0.8637,12.0286,45.6902,0.1951,0.6035,0.1194,200.4844
19:37:54:343,0.5328,0.3945,11.8383,47.2056,0.0705,0.6882,0.1114,200.4844
19:37:54:355,0.5041,0.6399,11.8933,48.0979,-0.1935,0.6991,-0.0002,200.3594
19:37:54:376,0.2623,0.5465,14.1319,47.0378,-0.7277,0.6128,-0.1834,200.2188
19:37:54:400,-1.0869,-0.6614,17.0528,48.301,-1.1516,0.7023,-0.4442,200.1406
19:37:54:418,-2.3893,-2.2823,17.2025,47.2772,-1.0049,0.9249,-0.5827,200.1562
19:37:54:436,-3.1279,-2.7288,14.2791,48.2931,-0.5208,1.334,-0.389,200.3438
19:37:54:461,-2.5797,-2.1817,10.6172,48.4926,-0.0981,1.5345,0.0339,200.75
19:37:54:484,-1.7393,-1.3844,8.3631,49.5365,0.0553,0.485,0.4661,201.0156
19:37:54:501,-0.9695,-1.0134,7.9237,48.1197,0.0329,-0.172,0.4635,200.5781
19:37:54:518,-0.6439,-0.8314,8.3714,47.0135,0.0907,-0.5049,0.4272,200.0781
19:37:54:535,-0.7265,-0.8625,8.6252,49.4064,0.2122,-0.4855,0.444,200.0781
19:37:54:556,-0.9408,-0.8505,8.0015,50.0678,0.3128,-0.2834,0.5255,199.5625
19:37:54:575,-0.9767,-0.7057,6.802,50.3666,0.3541,-0.1151,0.6379,198.6719
19:37:54:597,-0.7229,-0.3513,5.5343,47.3692,0.299,-0.1433,0.6951,197.9062
19:37:54:618,-0.4069,0.0676,5.0591,51.3548,0.2023,-0.319,0.6808,197.9062
19:37:54:640,-0.1016,0.3059,5.4397,51.2429,0.1512,-0.5412,0.6038,197.2344
19:37:54:655,-0.2297,0.2759,6.2634,51.6323,0.1536,-0.6661,0.5268,196.5469
19:37:54:674,-0.6774,0.1239,7.081,50.1532,0.1624,-0.6181,0.5162,195.875
19:37:54:696,-0.6679,-0.0485,7.9153,50.5818,0.1834,-0.4487,0.5303,195.3125
19:37:54:716,-0.5853,-0.0856,8.4457,51.2314,0.172,-0.2642,0.517,194.8125
19:37:54:735,-0.6595,0.0401,8.8539,51.3161,0.108,-0.122,0.4816,194.3125
19:37:54:755,-0.8103,0.3118,9.4644,52.5328,0.0473,-0.0767,0.4059,194.0469
19:37:54:774,-1.0067,0.4759,10.0235,52.1328,0.0183,-0.1175,0.2999,193.5156
19:37:54:796,-1.191,0.3705,10.3335,53.4352,-0.0398,-0.1947,0.2014,193.0
19:37:54:816,-1.2952,0.0892,10.8722,50.2663,-0.1106,-0.2591,0.1388,192.5781
19:37:54:836,-1.2437,-0.2604,11.4576,51.4719,-0.174,-0.33,0.1005,192.25
19:37:54:856,-1.0234,-0.7464,12.2465,53.6445,-0.2163,-0.3723,0.105,192.0156
19:37:54:875,-0.6272,-1.2923,13.0306,52.6366,-0.1985,-0.2474,0.1809,191.8594
19:37:54:898,0.1091,-1.7867,13.0509,52.7973,-0.1359,-0.0218,0.2661,191.7344
19:37:54:917,1.0907,-1.418,11.7054,54.1562,-0.1881,0.0791,0.2107,191.5781
19:37:54:935,1.7587,-0.5824,10.6423,53.9947,-0.3841,-0.1318,-0.1091,191.3594
19:37:54:956,1.4342,-0.5213,11.7437,53.1084,-0.488,-0.371,-0.4972,191.0312
19:37:54:976,0.382,-1.4898,13.422,52.9033,-0.3721,-0.2296,-0.6639,190.7344
19:37:55:000,-0.6439,-2.4547,13.5537,53.05,-0.1676,0.1308,-0.5051,190.9375
19:37:55:021,-0.3758,-2.4355,12.0226,54.5076,-0.0137,0.2876,-0.2572,191.5781
19:37:55:036,0.6968,-1.4611,9.9887,53.9781,-0.0355,0.1542,-0.2082,192.2188
19:37:55:056,1.4738,-0.4136,8.8742,54.3496,-0.1389,0.0013,-0.3741,192.6094
19:37:55:076,1.5037,0.1957,8.4564,54.5859,-0.2054,-0.0519,-0.6231,192.8281
19:37:55:101,0.8608,0.0652,8.1452,55.4299,-0.2379,0.0586,-0.7797,193.1094
19:37:55:118,-0.0789,-0.3777,7.8399,54.2218,-0.2408,0.2565,-0.743,193.6406
19:37:55:135,-0.8462,-0.4842,7.8459,55.1381,-0.1239,0.3603,-0.5632,194.375
19:37:55:156,-1.0881,-0.4687,8.0123,54.8676,0.1195,0.3387,-0.3571,195.2188
19:37:55:176,-0.7912,0.1538,7.5299,55.9241,0.3775,0.3036,-0.176,195.9219
19:37:55:197,-0.5111,0.3801,6.6871,55.3165,0.5794,0.2836,-0.0796,196.4062
19:37:55:220,-0.468,0.562,6.0371,57.0647,0.6468,0.2527,-0.087,196.7656
19:37:55:235,-0.5482,0.6746,6.3268,56.7221,0.5349,0.1712,-0.1446,197.0156
19:37:55:256,-0.8905,0.7284,7.8854,56.3014,0.3176,0.0783,-0.2111,197.25
19:37:55:276,-1.0019,0.6949,9.8523,56.1235,0.2079,0.004,-0.2428,197.5156
19:37:55:296,-1.3502,0.5058,10.6603,56.9013,0.3291,-0.0389,-0.2569,197.8281
19:37:55:317,-1.9823,0.3047,10.0773,55.8604,0.499,0.0269,-0.2463,198.1562
19:37:55:335,-2.1307,0.24,9.8798,57.5164,0.4644,0.1633,-0.1376,198.5
19:37:55:355,-2.1355,0.3071,10.3395,56.4797,0.259,0.3268,0.0035,198.9062
19:37:55:375,-1.6794,0.1814,11.0793,56.5984,0.0239,0.4386,0.1252,199.2656
19:37:55:395,-1.1707,0.0102,11.4121,57.1397,-0.1474,0.5055,0.1516,199.4219
19:37:55:415,-0.9624,0.1251,11.8359,56.4722,-0.3378,0.4304,0.0789,199.3594
19:37:55:434,-1.4927,0.0102,14.6083,57.2298,-0.631,0.0402,-0.0364,199.1406
19:37:55:454,-2.6383,-1.0014,17.2755,58.2864,-0.7008,-0.3454,-0.0924,198.9219
19:37:55:475,-3.4631,-2.1398,16.8625,58.7974,-0.2723,-0.3888,0.0541,198.6719
19:37:55:495,-2.9304,-2.4618,13.7261,56.9778,0.2915,-0.119,0.5018,198.5938
19:37:55:518,-1.2832,-1.6741,9.693,59.7131,0.629,0.1334,1.0078,198.4688
19:37:55:535,0.133,-0.641,6.984,57.5183,0.5789,0.0882,1.2129,197.9844
19:37:55:560,0.5244,-0.2592,6.6021,58.1057,0.2356,-0.3614,1.0738,197.0
19:37:55:574,0.2527,-0.4411,8.1667,57.7133,-0.15,-0.9502,0.8374,195.7656
19:37:55:598,-0.1914,-0.6195,9.213,56.5498,-0.3045,-1.2791,0.6765,194.6875
19:37:55:619,-0.5015,-0.6243,9.2705,56.5498,-0.2552,-1.2653,0.6328,193.7656
19:37:55:637,-0.5565,-0.4758,8.4361,56.2199,-0.133,-0.9641,0.6765,193.0156
19:37:55:665,-0.5529,-0.2221,7.2306,56.6367,-0.0584,-0.5401,0.7423,191.625
19:37:55:684,-0.3854,0.1179,6.2526,57.1931,-0.0558,-0.2376,0.8411,190.8125
19:37:55:698,-0.2764,0.3454,5.8587,58.3231,-0.0656,-0.3254,0.8259,189.9375
19:37:55:718,-0.2273,0.2807,5.9006,59.0141,-0.0685,-0.437,0.82,188.9844
19:37:55:736,-0.2261,0.228,6.5578,55.5992,-0.0334,-0.5377,0.8352,188.0469
19:37:55:757,-0.1842,0.1718,7.4796,57.8606,0.0646,-0.5896,0.8451,187.1406
19:37:55:775,-0.0801,0.2137,8.2721,57.5003,0.1512,-0.608,0.8131,186.2656
19:37:55:796,-0.2728,0.3047,8.9748,57.1572,0.2156,-0.5004,0.7764,185.375
19:37:55:817,-0.201,0.3885,8.9544,56.8591,0.1837,-0.4005,0.7037,184.5156
19:37:55:835,0.0516,0.5656,8.9461,58.0343,0.0183,-0.3265,0.5622,183.75
19:37:55:855,0.4095,0.7033,9.632,58.2927,-0.1727,-0.2586,0.3447,183.0312
19:37:55:876,0.8201,0.4208,10.938,57.9791,-0.2768,-0.2487,0.0626,183.0312
19:37:55:901,0.8908,-0.4292,12.2141,56.5022,-0.3434,-0.2333,-0.1581,182.4219
19:37:55:920,0.5568,-1.0469,13.7991,57.6646,-0.3343,0.0245,-0.2133,181.9688
19:37:55:938,0.2539,-1.2779,14.6323,55.862,-0.1649,0.5182,-0.164,181.9688
19:37:55:958,0.552,-1.4263,13.5824,57.5501,0.0319,0.923,-0.1376,182.125
19:37:55:974,0.9099,-1.1307,11.4959,57.2956,0.0406,0.9971,-0.193,182.3125
19:37:55:997,0.9039,-0.4519,10.3526,56.1762,-0.1053,0.7321,-0.3419,182.4219
19:37:56:019,1.2786,-0.5333,10.798,55.8092,-0.2448,0.3044,-0.5818,182.5
19:37:56:035,1.2176,-1.3605,12.2189,55.7807,-0.3205,0.0823,-0.7603,182.625
19:37:56:055,0.6286,-2.4403,13.5489,54.2188,-0.3372,0.2778,-0.7073,182.9219
19:37:56:075,-0.1926,-2.5145,13.7357,53.9542,-0.2677,0.7356,-0.4647,183.5156
19:37:56:094,-0.4632,-1.8345,12.3159,55.5432,-0.1807,1.0442,-0.2303,184.3125
19:37:56:117,-0.4907,-1.0612,10.2258,53.6646,-0.1945,1.1595,-0.0442,185.0
19:37:56:183,-0.3207,-0.6003,9.0837,54.0167,-0.1681,1.1105,0.1037,185.4375
19:37:56:183,-0.1627,-0.2855,8.1967,55.0687,-0.0403,0.8679,0.2158,185.5781
19:37:56:184,0.0803,0.0293,7.4233,52.689,0.0928,0.5491,0.2829,185.5156
19:37:56:198,0.613,0.2364,7.2605,51.734,0.2364,0.2224,0.272,185.2969
19:37:56:220,1.2415,0.3921,7.7597,53.081,0.4465,-0.0123,0.1516,184.9844
19:37:56:235,1.4426,0.4483,7.9632,52.8791,0.662,-0.0274,-0.0623,184.6406
19:37:56:255,1.0236,0.325,7.1408,52.0266,0.6878,0.221,-0.2583,184.375
19:37:56:274,0.4598,0.3154,6.1652,53.329,0.4939,0.4256,-0.3744,184.3281
19:37:56:295,-0.0729,0.6051,5.9928,53.3237,0.2015,0.3582,-0.4088,184.5625
19:37:56:318,-0.5254,0.8637,7.5658,52.1126,0.0399,0.1579,-0.3493,184.9844
19:37:56:337,-0.7481,1.0732,9.5674,51.3916,0.1405,0.0123,-0.2042,185.75
19:37:56:355,-0.4847,1.309,10.7633,50.3208,0.4335,-0.1007,-0.0279,186.2031
19:37:56:377,-0.134,1.2731,10.2186,51.396,0.6604,-0.2416,0.1415,186.5156
19:37:56:403,0.0708,1.5784,9.7002,52.1799,0.6534,-0.4786,0.2445,186.7344
19:37:56:419,0.2024,1.6526,10.9404,50.4636,0.6585,-0.6392,0.2565,186.8281
19:37:56:436,-0.128,1.1929,12.4236,51.2998,0.7877,-0.6352,0.2832,186.8125
19:37:56:455,-0.3722,0.6099,12.8378,52.7299,0.8854,-0.4014,0.3782,186.7656
19:37:56:475,0.376,0.3897,11.9101,53.354,0.7435,-0.0165,0.3228,186.7344
19:37:56:495,0.8788,0.6794,10.476,51.9701,0.2766,0.1997,0.0344,186.625
19:37:56:518,0.1809,1.1223,10.1336,52.0433,-0.3575,0.0804,-0.2684,186.4375
19:37:56:535,-1.3586,1.0146,12.7229,51.4297,-0.6078,-0.2003,-0.4378,186.3125
19:37:56:555,-2.667,0.2017,15.2727,51.8684,-0.3098,-0.2479,-0.3957,186.4219
19:37:56:575,-3.6115,-0.3992,12.8821,50.4857,0.1642,0.11,-0.1414,186.7031
19:37:56:595,-2.934,-0.1179,10.373,50.4607,0.413,0.486,0.1338,187.1406
19:37:56:616,-2.2433,0.0126,8.8287,50.6718,0.4021,0.6472,0.2301,187.4688
19:37:56:636,-1.6339,-0.2256,8.1141,50.8487,0.2412,0.633,0.1753,187.4844
19:37:56:654,-1.3622,-0.1814,7.6472,51.0488,0.0409,0.58,0.0805,187.2812
19:37:56:674,-1.3562,0.1526,7.3719,50.3949,-0.1506,0.5004,-0.0093,187.0312
19:37:56:694,-1.4412,0.349,7.4688,49.4233,-0.309,0.3262,-0.103,186.8125
19:37:56:718,-1.5801,0.1706,7.8196,51.1121,-0.4171,0.1308,-0.189,186.6875
19:37:56:735,-1.9176,0.0018,7.9956,51.4004,-0.4528,0.049,-0.2056,186.6094
19:37:56:753,-2.3953,-0.1957,8.0387,51.8437,-0.4193,0.0655,-0.1075,186.6562
19:37:56:774,-2.5629,-0.3274,7.8244,50.304,-0.3117,0.1329,0.1361,186.7969
19:37:56:794,-2.0793,-0.1203,7.306,49.7371,-0.1426,0.2099,0.4949,186.7969
19:37:56:817,-1.1826,0.4208,6.8499,50.7688,0.0172,0.1859,0.8246,186.5312
19:37:56:835,-0.1759,0.7775,7.3838,50.2971,0.0979,0.0115,0.9963,185.9375
19:37:56:854,0.4227,0.8805,8.3307,49.7295,0.1791,-0.2559,0.9921,184.9688
19:37:56:874,0.0384,0.6554,9.3578,50.7162,0.2524,-0.4834,0.828,183.8594
19:37:56:894,-0.6691,0.2185,10.4771,52.7443,0.23,-0.498,0.644,182.8594
19:37:56:919,-1.1994,0.0988,10.9704,51.1042,0.149,-0.2274,0.5553,182.0625
19:37:56:936,-1.3813,0.3154,11.1763,50.7103,0.0822,0.0631,0.5527,181.4531
19:37:56:956,-1.0905,0.5082,12.1016,49.9117,0.05,0.0927,0.5574,180.9062
19:37:56:975,-0.6499,0.173,12.9456,51.6305,0.132,-0.0647,0.5311,180.3125
19:37:56:995,-0.3542,-0.2161,13.0102,51.3995,0.3144,-0.135,0.5061,179.6719
19:37:57:018,0.7172,-0.4723,11.9699,50.896,0.5086,-0.1145,0.525,179.0938
19:37:57:035,1.8305,-0.2245,10.5538,51.6532,0.5728,-0.0447,0.4445,178.6562
19:37:57:054,2.1154,0.4016,9.6607,51.3551,0.3813,0.0679,0.1337,178.4219
19:37:57:075,1.6078,0.4783,10.1384,49.9989,0.0183,0.1329,-0.36,177.9844
19:37:57:095,0.643,-0.2795,11.2828,51.7435,-0.313,0.1582,-0.8775,177.75
19:37:57:116,-0.213,-1.315,11.6455,51.5653,-0.4627,0.3305,-1.192,177.875
19:37:57:137,-0.5565,-1.9207,11.3391,51.8447,-0.4661,0.4898,-1.1944,178.5469
19:37:57:155,-0.2118,-1.3797,10.6244,51.6999,-0.366,0.4503,-0.9693,179.6094
19:37:57:175,0.5939,-0.1718,9.3986,51.6885,-0.2486,0.315,-0.7539,180.7656
19:37:57:194,0.8524,0.683,8.4397,51.2685,-0.2246,0.2064,-0.7896,182.25
19:37:57:218,0.5137,0.7428,8.0303,51.6868,-0.2962,0.1752,-1.0168,183.0
19:37:57:235,-0.1723,0.6291,8.5737,51.0287,-0.3969,0.2442,-1.2189,183.7656
19:37:57:254,-0.7732,0.5656,8.7078,53.6788,-0.3311,0.3689,-1.278,184.8125
19:37:57:275,-1.13,0.6303,7.5239,51.5469,0.1277,0.5976,-1.0679,186.0625
19:37:57:297,-0.8917,1.0648,6.1784,52.5693,0.2087,0.5582,-0.9555,187.375
19:37:57:319,-0.3806,1.6754,5.4541,51.1624,0.2092,0.3545,-0.9928,188.6094
19:37:57:335,-0.3279,2.1973,5.6732,53.2633,0.1778,0.0988,-1.1379,189.8125
19:37:57:354,-0.632,2.2428,6.6847,53.7972,0.1754,-0.0461,-1.2815,190.9219
19:37:57:377,-1.0102,2.1733,7.7944,53.6574,0.2044,-0.0115,-1.3691,192.0312
19:37:57:401,-1.5872,2.1662,8.8479,53.1989,0.2526,0.1193,-1.3984,193.3906
19:37:57:419,-2.3151,2.1123,9.6069,53.7327,0.3171,0.2442,-1.3299,194.9219
19:37:57:435,-2.6203,2.1171,10.2162,54.2358,0.3938,0.2993,-1.1938,196.4688
19:37:57:453,-2.7413,2.1398,10.4855,54.0898,0.4425,0.2498,-1.0871,198.1562
19:37:57:474,-3.3266,1.9291,10.6411,54.9909,0.3807,0.0402,-0.9195,199.7656
19:37:57:495,-3.6403,1.3186,11.7461,54.9579,0.3022,-0.2892,-0.6226,201.25
19:37:57:519,-3.0812,0.2975,13.6926,54.5196,0.3501,-0.4919,-0.2143,202.5781
19:37:57:537,-1.604,-0.5932,14.6155,54.481,0.4218,-0.3422,0.1415,203.7656
19:37:57:554,-0.1795,-0.1945,13.9212,56.1546,0.3296,-0.1164,0.2046,204.6094
19:37:57:574,0.2299,0.8039,13.2089,56.4936,0.189,-0.0842,-0.0466,204.9844
19:37:57:594,-0.3937,0.9224,13.2377,55.5517,0.2385,-0.1979,-0.3677,205.0
19:37:57:618,-1.5549,0.0605,12.7564,56.6144,0.3624,-0.2573,-0.4801,204.8906
19:37:57:635,-2.0098,-1.0792,11.867,55.6366,0.4345,-0.147,-0.3856,205.2031
19:37:57:653,-2.199,-1.4922,10.7058,54.4486,0.4534,-0.1284,-0.2263,206.2188
19:37:57:674,-2.0086,-1.479,9.7625,55.3995,0.4018,-0.3366,-0.1174,206.5312
19:37:57:702,-1.4077,-1.1654,9.5853,56.2395,0.2886,-0.5191,-0.1547,207.2188
19:37:57:716,-0.9707,-0.8853,9.6918,54.364,0.1365,-0.494,-0.3264,207.375
19:37:57:737,-1.0845,-0.7883,9.5817,54.8682,-0.0307,-0.331,-0.5113,207.6562
19:37:57:754,-1.78,-0.8326,9.4656,53.9952,-0.1327,-0.2469,-0.5563,208.0156
19:37:57:775,-2.266,-0.8625,9.4189,53.1083,-0.1279,-0.2019,-0.445,208.5469
19:37:57:794,-2.1355,-0.6638,9.0406,52.9586,-0.0853,-0.1262,-0.3025,209.1875
19:37:57:819,-1.859,-0.3896,8.4588,54.1887,-0.0262,-0.0306,-0.1992,209.75
19:37:57:834,-1.5825,-0.2735,7.4736,53.0265,0.0074,0.0389,-0.0894,210.1094
19:37:57:854,-1.1683,-0.0581,6.4525,52.8205,-0.0259,0.0067,-0.0117,210.3906
19:37:57:874,-0.7481,0.2077,5.9353,53.4999,-0.0968,-0.09,0.0096,210.5625
19:37:57:895,-0.7146,0.1538,5.9461,52.8938,-0.1759,-0.1481,0.0264,210.5938
19:37:57:918,-0.9229,0.1742,6.2837,52.4605,-0.2161,-0.225,0.093,210.5781
19:37:57:936,-0.8235,0.3669,6.7757,52.7286,-0.1916,-0.3489,0.1548,210.5156
19:37:57:954,-0.055,1.181,7.4868,53.0992,-0.1548,-0.4978,0.1191,210.4062
19:37:57:975,0.066,1.5473,8.1871,53.8714,-0.1727,-0.603,-0.0157,210.2188
19:37:57:994,-0.0382,1.558,9.298,52.287,-0.2483,-0.6101,-0.2247,210.0156
19:37:58:020,-0.5996,1.2348,10.2174,52.0565,-0.3245,-0.4482,-0.4609,209.9375
19:37:58:036,-1.0881,0.9152,11.1176,54.071,-0.414,-0.1457,-0.6319,210.0312
19:37:58:054,-1.294,0.7117,11.873,51.0428,-0.4566,0.1161,-0.7121,210.375
19:37:58:075,-1.4221,0.4184,13.003,53.2021,-0.4153,0.0879,-0.7701,211.2344
19:37:58:095,-1.6016,-0.4543,14.4791,53.2021,-0.3008,-0.1084,-0.8114,211.875
19:37:58:119,-0.9564,-1.4323,14.8214,53.8349,-0.0938,-0.0482,-0.7326,212.6406
19:37:58:138,0.3221,-1.4299,13.0701,52.1752,0.0968,0.4871,-0.5587,213.4844
19:37:58:155,1.7886,-0.3561,11.211,51.4656,0.0971,1.0392,-0.462,214.25
19:37:58:174,2.5643,0.3346,10.5274,52.2964,-0.0504,1.1127,-0.6364,214.9219
19:37:58:248,1.6773,-0.2245,11.788,50.2511,-0.2725,0.7883,-1.0839,215.2031
19:37:58:248,0.212,-1.7639,13.6662,51.0125,-0.3522,0.3792,-1.4902,215.7969
19:37:58:249,-0.0334,-2.876,14.2325,50.6649,-0.1697,0.2708,-1.5302,216.6719
19:37:58:253,1.2583,-2.1458,13.3861,51.3449,0.1781,0.4522,-1.2498,218.0781
19:37:58:274,3.4035,-0.4471,11.5031,51.4738,0.5839,0.5619,-1.0687,219.7812
19:37:58:293,5.0291,1.0349,10.634,49.8706,0.8886,0.3289,-1.3824,221.3281
19:37:58:320,5.7666,1.2049,10.6411,49.9894,1.1184,-0.1119,-2.18,222.75
19:37:58:336,5.2781,0.0485,9.644,49.5007,1.3238,-0.4136,-3.2189,224.3594
19:37:58:353,3.771,-1.394,8.314,50.0263,1.364,-0.5015,-4.1651,226.7031
19:37:58:373,2.0927,-2.4427,6.8631,49.3773,1.2431,-0.5619,-4.7532,230.0156
19:37:58:394,0.546,-2.742,6.0215,48.8435,1.042,-0.6559,-4.9084,234.7188
19:37:58:417,0.0025,-2.5576,7.0762,49.0727,0.8287,-0.6458,-4.747,240.2812
19:37:58:434,-1.5226,-1.9363,6.7314,50.0944,0.9336,-0.3507,-4.5015,245.8906
19:37:58:453,-2.1858,-1.327,6.8128,49.1195,0.9786,-0.6703,-3.9992,251.625
19:37:58:473,-2.0158,-0.9619,7.379,48.862,0.9227,-1.1622,-3.3254,257.125
19:37:58:494,-1.7273,-0.653,7.4401,47.2008,0.8881,-1.2525,-2.6434,261.9844
19:37:58:520,-1.7381,-0.1957,7.1301,48.8465,0.8649,-0.939,-2.0711,268.0938
19:37:58:536,-1.8231,0.6051,7.0905,48.2912,0.7818,-0.6727,-1.6335,271.1094
19:37:58:554,-1.5334,1.4168,7.4796,47.515,0.6047,-0.7984,-1.3241,273.3906
19:37:58:574,-0.6152,1.892,8.6156,47.4025,0.3536,-1.032,-1.1014,275.2969
19:37:58:594,0.03,2.1039,9.5051,46.0551,0.1134,-0.9516,-1.0162,276.7969
19:37:58:620,0.3413,2.0273,9.9193,47.3303,-0.0773,-0.7332,-1.0463,277.9062
19:37:58:637,0.6813,1.5137,10.2258,45.8642,-0.2302,-0.6083,-1.1235,278.9688
19:37:58:655,1.0811,1.0337,10.8758,47.5021,-0.4749,-0.8421,-1.143,280.0469
19:37:58:674,1.5025,0.8398,12.171,46.9139,-0.508,-1.0301,-1.0807,281.2344
19:37:58:694,1.8568,0.5058,13.3095,47.7799,-0.5319,-1.0104,-1.0759,282.375
19:37:58:722,1.2595,-0.2771,14.0182,47.0744,-0.5575,-0.7582,-1.0013,283.5156
19:37:58:739,0.054,-1.0636,14.1582,49.216,-0.5476,-0.3087,-0.7331,284.5625
19:37:58:754,-0.8008,-1.1438,13.4699,46.6629,-0.4811,0.2645,-0.2892,285.5312
19:37:58:780,-0.365,-0.7859,12.3698,46.6731,-0.406,0.7939,0.0746,286.5312
19:37:58:792,0.5077,-0.0592,11.6311,46.8274,-0.3911,0.9787,0.1652,287.2969
19:37:58:814,1.9023,0.2041,10.9883,45.6991,-0.4733,0.7065,-0.0921,287.6406
19:37:58:837,1.8281,-0.0976,10.5681,43.0705,-0.6209,0.4759,-0.5139,287.7031
19:37:58:855,-0.0693,-0.7045,10.1839,46.5051,-0.7274,0.281,-0.6974,287.6875
19:37:58:873,-1.9512,-1.1618,9.4405,43.0152,-0.765,0.0248,-0.4173,287.9219
19:37:58:894,-2.6,-1.3258,8.8024,43.1702,-0.7471,-0.1089,0.0914,288.5469
19:37:58:921,-2.1451,-1.2228,8.8814,43.9407,-0.6978,-0.0868,0.5505,289.3594
19:37:58:939,-1.5286,-1.0361,9.0658,43.4415,-0.6198,0.1609,0.8784,289.7812
19:37:58:957,-0.6655,-0.5596,8.9329,43.471,-0.4017,0.5529,0.9985,289.6406
19:37:58:973,0.3712,-0.0401,8.6719,43.1773,0.0502,0.8285,0.8384,288.4531
19:37:58:993,0.5783,0.4148,8.1081,42.4909,0.6023,0.6607,0.5276,287.3906
19:37:59:013,0.133,0.6578,6.2753,42.4484,0.8774,0.1057,0.2746,286.5312
19:37:59:036,-0.0418,0.562,5.1285,42.6214,0.7483,-0.3627,0.106,285.9844
19:37:59:052,-0.2884,0.404,5.6085,42.6942,0.3935,-0.5715,-0.0186,285.7188
19:37:59:073,-0.9935,0.228,7.172,40.8716,0.0332,-0.5385,-0.0455,285.5625
19:37:59:093,-1.4376,-0.0592,9.377,41.3601,-0.1266,-0.3356,0.0262,285.4688
19:37:59:113,-1.2018,-0.2209,10.9321,42.7205,-0.1024,-0.1483,0.1268,285.4062
19:37:59:139,-0.772,-0.0485,11.879,38.9883,0.0516,-0.0117,0.1931,285.3281
19:37:59:154,0.0636,0.0461,11.9149,41.1657,0.1877,-0.0048,0.1396,285.1719
19:37:59:173,0.7399,0.0102,11.7652,39.9662,0.1648,-0.0711,-0.0149,284.9688
19:37:59:194,0.9542,-0.2939,12.5374,39.4393,0.1237,0.0565,-0.1637,284.7656
19:37:59:220,1.1122,-0.9655,13.1443,39.5275,0.1211,0.3675,-0.238,284.7031
19:37:59:237,1.4738,-1.4682,12.7744,39.275,0.0513,0.6511,-0.2897,284.8125
19:37:59:255,1.8915,-1.3521,12.2273,39.3643,-0.1626,0.5593,-0.4985,285.0938
19:37:59:273,1.7778,-1.5233,12.9863,39.2691,-0.451,0.3254,-0.8833,285.5
19:37:59:294,0.1055,-2.5576,15.3027,38.5824,-0.4675,0.4549,-0.9677,286.0625
19:37:59:318,-0.9707,-3.8792,16.3633,38.0692,-0.166,0.9715,-0.4839,286.9062
19:37:59:338,-0.5913,-3.72,14.4527,40.1036,0.1847,1.4301,0.2374,288.0781
19:37:59:354,1.7204,-0.6662,10.549,36.5024,0.4825,1.3566,0.7255,289.0469
19:37:59:373,1.9358,0.173,9.0023,38.7896,0.7035,1.0349,0.7495,289.5
19:37:59:394,1.2188,0.4938,7.7298,39.8902,0.7507,0.8791,0.4946,289.4531
19:37:59:422,0.4873,0.6243,6.7003,40.4287,0.6566,0.8855,0.2826,288.5156
19:37:59:432,0.0576,0.8517,5.7809,38.9636,0.5283,0.9691,0.1857,288.3594
19:37:59:454,-0.2285,1.0361,4.7766,38.0421,0.4068,1.0871,0.1511,288.2344
19:37:59:474,-0.1914,1.1989,4.4761,37.8785,0.2835,1.0658,0.1617,288.2656
19:37:59:493,0.0037,1.3976,4.8831,39.6372,0.2225,0.8133,0.1737,288.375
19:37:59:514,0.0899,1.6083,5.2518,38.9295,0.3072,0.485,0.1473,288.4844
19:37:59:536,-0.1651,1.8872,5.6732,39.1181,0.4556,0.0938,0.0882,288.5156
19:37:59:555,-0.3997,2.299,6.4441,37.2541,0.5821,-0.2549,0.0341,288.5
19:37:59:573,-0.4009,2.6857,7.5395,37.9774,0.6779,-0.6317,-0.0189,288.5156
19:37:59:595,-0.45,2.8617,7.9824,37.7332,0.7032,-0.755,-0.1462,288.5469
19:37:59:618,-0.9265,3.0305,8.7222,35.7884,0.5264,-0.5499,-0.3342,288.5938
19:37:59:637,-1.3215,2.7827,9.8978,36.6957,0.2375,-0.2796,-0.5052,288.7031
19:37:59:652,-1.9404,2.3493,11.1212,36.734,0.0433,0.0208,-0.6189,289.0
19:37:59:674,-2.9555,2.0788,11.4803,35.9578,0.0231,0.2535,-0.6191,289.4844
19:37:59:693,-3.7229,1.8645,11.3606,35.6769,0.0803,0.3483,-0.433,290.1406
19:37:59:718,-3.736,1.7436,11.1786,36.4697,0.173,0.2234,-0.0979,290.8906
19:37:59:743,-2.691,1.819,11.0553,36.5671,0.2862,-0.1257,0.2701,291.5781
19:37:59:757,-1.6627,2.1769,10.6028,35.1274,0.3357,-0.4267,0.4869,291.9531
19:37:59:774,-1.6172,2.8629,10.938,35.6428,0.1807,-0.6344,0.4808,291.9062
19:37:59:794,-1.8781,2.6606,12.7564,34.3562,-0.052,-0.9683,0.3817,291.4531
19:37:59:819,-2.3845,1.6454,13.9559,35.3457,-0.076,-1.3414,0.277,290.5781
19:37:59:835,-2.2816,0.8374,13.4914,32.9023,0.1206,-1.4163,0.3125,290.0
19:37:59:855,-1.5418,0.6758,12.025,33.4234,0.2409,-1.0485,0.4456,289.4844
19:37:59:873,-0.7792,0.9068,10.7441,32.3847,0.1336,-0.5175,0.5079,288.9688
19:37:59:894,-0.511,1.1881,10.0318,30.7821,-0.0355,-0.2352,0.4163,288.3594
19:37:59:921,-0.2668,1.1845,9.784,31.9349,-0.1114,-0.3971,0.2435,287.7188
19:37:59:937,-0.1052,1.0193,9.4931,32.009,-0.0645,-0.7305,0.0451,287.2344
19:37:59:954,-0.2489,0.6399,8.715,30.7155,-0.0025,-0.9316,-0.1371,286.9062
19:37:59:973,-0.4979,0.4818,7.3683,32.0521,-0.0654,-0.7798,-0.246,286.75
19:37:59:993,-0.7158,0.4495,6.2274,31.3431,-0.3341,-0.5201,-0.242,286.7812
19:38:00:018,-0.8199,0.4842,5.903,32.3508,-0.6843,-0.3199,-0.1675,286.9531
19:38:00:038,-0.772,0.7153,6.8751,31.1971,-0.9082,-0.2341,-0.0668,287.125
19:38:00:053,-0.6068,0.7835,8.7557,30.7755,-0.5391,-0.1982,0.0722,287.1719
19:38:00:073,-0.304,0.4962,9.1915,31.7396,-0.1474,0.1622,0.1439,287.1719
19:38:00:093,-0.0741,0.4902,8.0303,30.6349,0.0348,0.3915,0.2288,287.0312
19:38:00:114,0.0971,0.8996,6.8368,31.5985,-0.0033,0.4093,0.1971,286.875
19:38:00:136,-0.2297,1.1331,6.5674,31.1978,-0.101,0.151,0.0626,286.7188
19:38:00:154,-0.9241,0.8134,7.5263,32.3932,-0.1572,-0.1928,-0.0015,286.5312
19:38:00:172,-1.264,0.3358,9.0598,31.8845,-0.1317,-0.3574,0.0467,286.375
19:38:00:193,-1.4089,-0.0102,10.3467,32.1869,-0.0733,-0.3388,0.1324,286.3281
19:38:00:213,-1.3203,-0.0545,11.0027,33.5525,-0.0435,-0.2112,0.1921,286.2812
19:38:00:236,-0.766,-0.1706,11.0027,31.2218,-0.1253,-0.1353,0.1788,285.9375
19:38:00:307,-0.1531,-0.4088,11.3833,32.8693,-0.2994,-0.1302,0.1346,285.6875
19:38:00:308,0.5029,-0.6913,12.2848,33.1503,-0.4576,-0.1289,0.0709,285.5625
19:38:00:308,1.2666,-1.0002,13.258,32.6655,-0.4976,-0.123,-0.0199,285.3438
19:38:00:322,1.9957,-1.2731,13.094,34.6777,-0.5173,-0.0858,-0.193,285.1719
19:38:00:337,1.9394,-1.1402,12.3829,33.551,-0.7016,-0.0796,-0.4607,285.0781
19:38:00:355,0.935,-0.9655,12.9372,33.9969,-0.8765,-0.0876,-0.7187,285.125
19:38:00:373,0.1354,-1.5844,14.3713,35.4355,-0.876,0.0775,-0.842,285.4219
19:38:00:394,-0.4656,-2.6737,15.0034,36.3635,-0.7319,0.4445,-0.6807,285.9844
19:38:00:420,-0.3758,-3.0352,14.0242,36.869,-0.4869,0.6229,-0.2782,286.8438
19:38:00:438,0.8082,-2.4559,12.3506,38.1076,-0.1942,0.4029,0.0784,287.75
19:38:00:453,2.0891,-1.2588,10.8698,37.2241,0.1043,0.1073,0.1343,288.4219
19:38:00:473,2.8313,-0.1802,9.1077,36.5639,0.2263,-0.1135,-0.1925,288.5938
19:38:00:494,2.4829,0.3645,7.719,35.6701,0.1261,-0.0125,-0.6386,288.4219
19:38:00:519,1.4606,0.0772,6.6823,37.7423,-0.101,0.2695,-0.9164,288.4219
19:38:00:537,0.3485,-0.2795,6.1341,37.7423,-0.308,0.489,-0.9699,288.625
19:38:00:554,-0.4895,-0.3142,6.1915,37.1248,-0.402,0.5073,-0.8519,289.3594
19:38:00:574,-0.7936,-0.0545,7.2522,38.3735,-0.252,0.3851,-0.6681,290.4688
19:38:00:594,-0.6834,0.1419,8.0614,42.12,0.1224,0.2935,-0.5243,291.6719
19:38:00:620,-0.5601,0.3502,7.8088,40.4209,0.4572,0.2551,-0.3856,292.6875
19:38:00:636,-0.1878,0.6004,6.9649,40.6615,0.5919,0.2722,-0.2857,293.5312
19:38:00:655,0.1713,0.9535,6.5099,40.8339,0.5594,0.2599,-0.2852,294.2188
19:38:00:674,0.0803,1.4096,6.7637,41.3104,0.4311,0.155,-0.294,294.9688
19:38:00:693,-0.1112,1.752,8.0327,39.7975,0.377,-0.0173,-0.1992,295.4062
19:38:00:719,0.4814,1.9615,9.7457,42.5077,0.4745,-0.1729,-0.1501,295.8438
19:38:00:737,0.698,1.9698,11.4695,42.4735,0.6633,-0.1622,-0.3086,296.1719
19:38:00:752,-0.5565,1.2157,11.2744,42.4805,0.7847,-0.0442,-0.5608,296.3438
19:38:00:772,-1.8578,0.3969,11.6132,42.8775,0.716,0.1499,-0.6596,296.5938
19:38:00:793,-2.0876,-0.2484,11.9615,43.4581,0.5432,0.4043,-0.4838,297.0938
19:38:00:814,-1.1,-0.5429,11.958,42.1374,0.3246,0.6743,-0.1901,297.8906
19:38:00:836,-0.7253,-0.2723,11.5509,44.295,0.083,0.8615,-0.0873,298.6875
19:38:00:851,-1.519,0.1012,12.1687,43.9289,-0.2052,0.6533,-0.2178,299.2031
19:38:00:872,-2.351,-0.3944,13.7129,45.8726,-0.3841,0.1105,-0.3976,299.4844
19:38:00:892,-3.1052,-1.2552,14.3055,46.06,-0.2803,-0.3049,-0.4814,299.7969
19:38:00:913,-3.2392,-1.9387,13.5106,47.5696,-0.0012,-0.4104,-0.3786,300.2031
19:38:00:937,-2.8298,-1.8202,11.4384,44.8964,0.2939,-0.2394,-0.1281,300.6406
19:38:00:952,-2.205,-1.2336,9.237,46.016,0.4135,-0.024,0.1015,301.0625
19:38:00:978,-1.7572,-0.7476,8.0063,45.7836,0.2867,-0.0258,0.1955,301.2969
19:38:00:992,-1.4939,-0.5369,7.8926,46.2648,0.0279,-0.3007,0.1846,301.3125
19:38:01:014,-1.5669,-0.6985,8.1069,43.9484,-0.1575,-0.6834,0.163,301.1562
19:38:01:038,-1.6351,-0.7512,8.4588,46.9593,-0.2163,-0.9982,0.2182,300.9219
19:38:01:055,-1.3323,-0.8793,8.302,46.3847,-0.194,-1.032,0.3716,300.6094
19:38:01:074,-1.124,-0.7871,7.7633,45.8361,-0.1551,-0.7713,0.5385,300.25
19:38:01:094,-0.8642,-0.5405,7.2773,46.4426,-0.1178,-0.5625,0.6973,299.3438
19:38:01:112,-0.4308,-0.2245,7.0774,46.7745,-0.0717,-0.5071,0.8168,298.5781
19:38:01:138,-0.0382,0.064,7.1899,47.9202,-0.0014,-0.6021,0.8414,297.7031
19:38:01:152,0.2419,0.2759,7.2534,47.0034,0.0811,-0.7388,0.7756,296.6562
19:38:01:173,0.3461,0.3621,8.0123,46.4233,0.1741,-0.8493,0.6712,295.5781
19:38:01:193,0.9351,0.0988,8.29,48.3284,0.3472,-0.7811,0.6094,294.5938
19:38:01:213,1.4139,-0.1203,8.5833,47.1906,0.4851,-0.4762,0.5191,293.6562
19:38:01:238,1.3564,-0.0497,8.5151,48.1614,0.5184,-0.0858,0.4142,292.8125
19:38:01:254,0.5927,0.4818,8.5079,47.6327,0.361,0.1246,0.3527,292.1719
19:38:01:272,0.4227,0.8865,9.1316,47.7504,0.062,0.3199,0.412,291.6875
19:38:01:293,0.6944,1.0002,9.7673,49.3695,-0.1881,0.6418,0.4661,291.3125
19:38:01:313,0.443,1.0313,10.2006,48.4768,-0.2776,0.629,0.3266,290.9219
19:38:01:334,0.2755,1.0289,10.5585,48.9921,-0.2606,0.3068,0.1114,290.5
19:38:01:353,0.4335,0.5776,11.4851,48.6247,-0.37,-0.6301,-0.2175,290.1406
19:38:01:373,0.6573,-0.3358,13.3502,50.747,-0.3708,-0.8019,-0.2458,290.1719
19:38:01:394,0.9398,-1.2827,14.3486,50.3386,-0.2752,-0.4799,-0.1331,290.2969
19:38:01:419,0.5304,-1.3449,14.0122,51.3404,-0.2395,0.1007,0.0469,290.4062
19:38:01:435,0.0767,-0.7907,13.3669,50.25,-0.2504,0.3422,0.1404,290.4062
19:38:01:453,0.2455,-0.7416,13.3071,50.8147,-0.1639,0.3153,0.1255,290.4531
19:38:01:474,0.874,-1.3629,12.869,49.9187,-0.0108,0.2527,0.1098,290.4219
19:38:01:492,1.3804,-1.6167,11.9783,49.5481,0.0747,0.0407,0.1646,290.3125
19:38:01:514,2.0914,-1.1259,11.9675,51.1661,0.1312,-0.1617,0.1804,290.1562
19:38:01:538,3.0072,-0.6231,11.7844,50.5746,0.1941,-0.0301,0.0155,290.0938
19:38:01:555,2.9893,0.064,10.2892,51.8793,0.164,0.2469,-0.2673,289.8594
19:38:01:574,2.1561,0.4687,8.6635,51.3242,0.0439,0.4229,-0.531,289.7031
19:38:01:591,1.1841,0.3933,7.2115,50.8805,-0.0986,0.4551,-0.6639,289.7344
19:38:01:611,0.3006,0.4555,6.5626,50.9028,-0.1841,0.44,-0.6311,290.0938
19:38:01:638,0.0384,0.4651,6.17,54.246,-0.2062,0.375,-0.5238,290.7969
19:38:01:654,0.0061,0.732,6.0024,51.599,-0.2209,0.2692,-0.4514,291.5938
19:38:01:674,0.0863,1.0948,6.1963,53.7598,-0.186,0.2277,-0.445,292.4062
19:38:01:691,0.0887,1.2635,6.5279,54.0836,-0.1066,0.1957,-0.4777,293.0625
19:38:01:714,-0.1555,1.1391,6.8751,52.5123,0.0116,0.2746,-0.4799,293.625
19:38:01:737,-0.5158,1.0301,6.9337,51.4423,0.1062,0.3137,-0.4277,294.1562
19:38:01:755,-0.9276,1.0888,7.2653,51.4942,0.1405,0.3284,-0.3541,294.7344
19:38:01:772,-1.1288,1.1379,8.0231,52.0989,0.1687,0.3894,-0.2684,295.3438
19:38:01:793,-0.9684,1.0529,8.879,52.1359,0.213,0.5031,-0.1858,295.8906
19:38:01:811,-0.4476,1.1402,9.4812,51.292,0.2132,0.522,-0.2095,296.3594
19:38:01:837,-0.104,1.345,9.9875,52.0828,0.103,0.363,-0.4207,296.7656
19:38:01:856,-0.4691,1.0445,11.4097,50.3024,-0.0515,0.1364,-0.6697,297.0781
19:38:01:874,-1.343,-0.1838,13.3011,50.7025,-0.1005,0.1574,-0.7028,297.4375
19:38:01:894,-2.1307,-1.4874,14.509,51.2615,0.0146,0.4961,-0.4295,298.0
19:38:01:912,-1.7429,-2.2248,13.7261,51.3367,0.1568,0.9462,-0.0298,298.7969
19:38:01:938,-0.8893,-1.4443,11.2241,50.9749,0.0265,0.9838,0.1439,299.5781
19:38:01:958,-0.5613,-0.0401,9.9875,52.8934,-0.293,0.5361,0.0041,300.3438
19:38:01:973,-0.7493,0.3346,11.0027,52.4668,-0.4933,-0.0234,-0.2982,300.4531
19:38:01:992,-2.005,-0.5261,12.6882,50.2252,-0.4102,-0.2977,-0.4088,300.4844
19:38:02:014,-3.0178,-1.9255,13.1251,50.6643,-0.182,-0.2115,-0.1211,300.6562
19:38:02:036,-3.0741,-2.6797,12.1615,49.6777,0.0526,0.0051,0.4137,301.0312
19:38:02:052,-2.1367,-2.1973,9.8702,50.1257,0.0657,-0.1236,0.8371,301.2812
19:38:02:074,-0.8175,-1.1319,8.5965,50.7295,-0.0946,-0.5643,0.8936,301.0938
19:38:02:092,-0.0813,-0.2843,8.8778,50.4593,-0.2587,-0.9332,0.7231,300.3438
19:38:02:112,0.1426,-0.015,9.608,48.5136,-0.3146,-0.9366,0.5412,299.2812
19:38:02:138,-0.6164,-0.0688,9.2645,48.5948,-0.2291,-0.7428,0.4626,298.1562
19:38:02:154,-0.7265,-0.0317,8.1021,48.7643,-0.0749,-0.5212,0.5108,297.2031
19:38:02:173,-0.4644,0.1514,7.0427,48.2406,0.0391,-0.3651,0.6331,296.4219
19:38:02:191,0.0253,0.5106,6.6009,48.6808,0.0966,-0.327,0.7463,295.7656
19:38:02:211,0.3521,0.677,6.4669,48.6297,0.1309,-0.3894,0.762,295.0156
19:38:02:231,0.455,0.5561,6.735,46.9458,0.1576,-0.437,0.6869,294.1562
19:38:02:254,0.3305,0.2137,7.1971,46.5783,0.1605,-0.3835,0.587,293.2344
19:38:02:272,-0.0993,-0.0952,7.895,45.3059,0.1224,-0.2309,0.5101,292.3281
19:38:02:293,-0.4895,-0.094,8.6707,47.1008,0.0601,-0.0168,0.5047,291.5156
19:38:02:388,-0.5003,0.1275,9.3555,47.7431,0.0375,0.081,0.5479,290.8594
19:38:02:388,-0.2585,0.5393,9.4752,47.8021,0.1088,0.0288,0.558,289.9844
19:38:02:388,-0.2118,0.6542,9.7733,46.6896,0.2175,-0.2583,0.4549,289.375
19:38:02:389,-0.5386,0.0664,10.5274,46.6968,0.3027,-0.6514,0.2871,288.7812
19:38:02:391,-0.6391,-0.6159,11.6048,46.7459,0.3035,-0.926,0.2128,288.2188
19:38:02:413,-0.0442,-0.9056,12.8881,46.8287,0.185,-0.9532,0.2531,287.7812
19:38:02:439,1.3732,-1.2073,13.3274,44.9552,0.0098,-0.6517,0.3061,287.3906
19:38:02:454,2.4374,-1.2264,12.699,45.9323,-0.1466,-0.1864,0.2363,286.9062
19:38:02:471,2.2279,-0.6877,11.9101,46.0243,-0.3263,0.2099,-0.0013,286.4375
19:38:02:492,1.19,-0.5537,12.8678,46.1816,-0.5772,0.3723,-0.3566,286.125
19:38:02:515,0.2719,-1.6682,14.3426,44.9555,-0.7429,0.4152,-0.6924,286.1562
19:38:02:536,-0.189,-2.7671,14.594,47.1619,-0.7317,0.6607,-0.7898,286.625
19:38:02:553,0.2431,-2.8712,13.5908,45.039,-0.5993,0.9763,-0.5382,287.4688
19:38:02:572,1.6054,-1.9243,12.1962,46.658,-0.3423,0.9422,-0.1281,288.4531
19:38:02:592,2.3584,-0.6363,10.7489,46.6567,-0.0496,0.5891,0.0807,289.25
19:38:02:613,2.3584,0.2556,9.2669,47.1201,0.185,0.1933,-0.038,289.4844
19:38:02:637,1.858,0.2903,7.9513,47.2798,0.2606,-0.0136,-0.3629,289.6562
19:38:02:653,1.0177,-0.0269,6.9529,45.9573,0.1557,0.0573,-0.6767,289.6719
19:38:02:673,0.2874,-0.41,6.5112,47.4573,-0.0195,0.2631,-0.8423,289.9219
19:38:02:692,-0.438,-0.422,6.8631,48.3618,-0.1287,0.3974,-0.846,290.5469
19:38:02:716,-0.5529,-0.1837,6.9421,46.9669,-0.0233,0.4344,-0.6908,291.4375
19:38:02:738,0.0037,0.0629,6.4597,47.6376,0.2372,0.4123,-0.5073,292.5
19:38:02:757,0.4574,0.2328,5.6552,46.2997,0.495,0.3486,-0.438,293.9062
19:38:02:773,0.2946,0.3813,5.3212,46.4747,0.5704,0.2663,-0.5222,294.5781
19:38:02:792,-0.5254,0.4232,6.0155,46.0511,0.434,0.1694,-0.6554,295.1875
19:38:02:812,-1.2999,0.4328,7.8327,47.2089,0.2055,0.0597,-0.649,296.6719
19:38:02:836,-1.0114,0.5968,10.4616,46.8557,0.1328,-0.2264,-0.1035,296.6719
19:38:02:855,0.206,0.8422,12.7445,46.4938,0.4266,-0.1558,0.0248,297.4375
19:38:02:872,0.8908,1.0648,13.1443,46.5587,0.7344,0.0037,-0.03,297.8906
19:38:02:894,0.2635,0.993,11.7832,45.1484,0.7608,0.1819,-0.0375,297.9688
19:38:02:910,-0.9097,0.9571,10.634,44.6608,0.5381,0.3372,0.1428,297.9375
19:38:02:931,-1.1228,0.8889,10.5609,45.3957,0.3144,0.3704,0.3897,298.0156
19:38:02:955,-0.5529,0.6434,10.9883,44.0814,0.2055,0.285,0.5276,298.1406
19:38:02:973,0.0983,0.5166,11.1691,45.6891,0.1168,0.1774,0.534,298.0781
19:38:02:991,0.1186,0.6937,11.029,45.6891,-0.0281,0.0003,0.4219,297.7188
19:38:03:012,-0.535,0.9116,11.2792,43.7369,-0.2046,-0.2551,0.2618,297.1875
19:38:03:037,-1.282,0.2819,12.6678,45.2664,-0.2105,-0.4088,0.1668,296.6406
19:38:03:054,-1.9583,-0.6099,13.3071,46.3446,-0.0669,-0.3686,0.2363,296.1562
19:38:03:071,-2.199,-1.3282,12.778,44.8912,0.083,-0.1918,0.4235,295.7969
19:38:03:091,-1.9117,-1.4778,11.0027,43.7362,0.0899,-0.1736,0.6099,295.5156
19:38:03:112,-1.1551,-1.1091,9.6057,42.7202,-0.0611,-0.3619,0.6592,295.1875
19:38:03:135,-0.4907,-0.7991,9.4476,41.3476,-0.2142,-0.5662,0.5953,294.6719
19:38:03:156,-0.2094,-0.6458,9.5925,43.6518,-0.2901,-0.5926,0.4975,293.9531
19:38:03:172,-0.1902,-0.6327,9.1627,43.0715,-0.3375,-0.4032,0.4232,292.3594
19:38:03:191,-0.3901,-0.5764,8.1679,41.5486,-0.4281,-0.1193,0.4147,292.0
19:38:03:212,-0.4488,-0.3047,7.0678,41.475,-0.5793,0.11,0.427,291.3594
19:38:03:237,-0.1962,-0.1035,6.7135,40.8647,-0.6627,0.1902,0.4373,290.8438
19:38:03:255,-0.0765,0.0317,6.7925,41.4141,-0.5732,0.0573,0.4642,290.3438
19:38:03:273,-0.037,0.0066,6.802,39.8476,-0.3727,-0.2144,0.522,289.8438
19:38:03:291,-0.0418,-0.1227,6.7314,40.4814,-0.1895,-0.4818,0.6062,289.3438
19:38:03:312,-0.1244,-0.3909,6.9625,40.5622,-0.0715,-0.5891,0.7255,288.7344
19:38:03:343,-0.1004,-0.4615,7.391,40.3099,0.0039,-0.5454,0.8685,288.0
19:38:03:352,0.4418,-0.3477,7.5538,40.0652,-0.0076,-0.4623,0.9183,287.1094
19:38:03:371,0.9219,-0.0736,7.7717,39.1657,-0.1242,-0.3808,0.8363,286.125
19:38:03:393,1.1876,0.2699,8.4373,39.7644,-0.2456,-0.4128,0.66,284.9688
19:38:03:411,1.1481,0.2723,9.6978,37.8368,-0.2757,-0.4365,0.4443,283.8594
19:38:03:431,0.6226,0.0018,10.695,38.1319,-0.2475,-0.4005,0.3066,282.9375
19:38:03:453,0.5041,-0.4076,11.1463,38.0186,-0.263,-0.351,0.2528,282.2031
19:38:03:471,0.7914,-0.6913,11.4288,37.7238,-0.3926,-0.3928,0.2139,281.6719
19:38:03:491,1.4414,-0.9008,12.7959,37.3109,-0.521,-0.3712,0.1449,281.2969
19:38:03:512,2.2698,-1.3246,14.0589,36.8225,-0.5277,-0.2075,0.032,280.9219
19:38:03:538,2.4637,-1.5377,13.1383,36.6834,-0.5183,-0.0314,-0.135,280.5938
19:38:03:556,1.5839,-1.2432,13.2867,39.1778,-0.6065,0.0365,-0.3459,280.3906
19:38:03:573,0.8489,-1.6969,14.5006,37.5826,-0.7168,0.0407,-0.5241,280.4062
19:38:03:592,0.3616,-2.305,15.0992,37.5622,-0.6715,0.1696,-0.5512,280.6562
19:38:03:610,0.8764,-2.578,14.2803,36.6464,-0.3825,0.3425,-0.3621,281.1406
19:38:03:630,1.9693,-2.1829,12.3745,39.2702,0.0766,0.3534,-0.0705,282.0781
19:38:03:654,3.0,-1.218,10.2126,38.2957,0.4822,0.1161,0.1164,282.5781
19:38:03:675,3.3987,-0.4052,8.7928,36.1378,0.6423,-0.1526,0.027,282.7656
19:38:03:690,2.9534,-0.2747,8.0374,38.2957,0.5829,-0.2325,-0.339,282.6875
19:38:03:711,1.9263,-0.6674,7.4437,37.3428,0.3893,-0.024,-0.7299,282.625
19:38:03:735,0.698,-0.9212,6.9014,39.2366,0.1797,0.3449,-0.9427,282.9844
19:38:03:757,-0.1842,-0.987,6.65,40.6142,0.0556,0.6,-0.9334,283.3438
19:38:03:773,-0.5302,-0.9679,6.6452,39.1943,0.0902,0.6035,-0.78,284.3438
19:38:03:791,-0.3267,-0.9978,6.5471,38.6597,0.242,0.4687,-0.5747,285.5781
19:38:03:811,0.0073,-0.8266,6.3627,40.4954,0.4119,0.3678,-0.3677,286.7344
19:38:03:830,0.4562,-0.4555,6.6237,39.5165,0.5104,0.2988,-0.1818,287.6094
19:38:03:853,1.1445,-0.1215,7.5993,40.312,0.5198,0.2549,-0.034,288.25
19:38:03:872,1.6425,0.2472,8.3607,39.3074,0.5424,0.3167,0.0222,288.6562
19:38:03:891,1.7491,0.6794,8.812,40.1241,0.6279,0.2959,-0.0258,288.8594
19:38:03:911,1.621,0.8901,9.1591,39.5597,0.6995,0.1409,-0.1419,288.9375
19:38:03:931,1.3516,0.9583,9.62,37.3537,0.7158,-0.0221,-0.2724,289.0156
19:38:03:954,0.8237,0.7572,10.2114,38.5004,0.6729,-0.0698,-0.4048,289.2031
19:38:03:970,0.2695,0.5501,10.2138,39.5574,0.6095,0.1063,-0.4846,289.4688
19:38:03:991,-0.0442,0.7464,9.9408,37.151,0.4923,0.384,-0.4631,289.875
19:38:04:011,-0.1807,0.8889,10.1611,40.0888,0.2945,0.5595,-0.3933,290.4375
19:38:04:032,-0.3518,0.6399,11.2792,39.5438,0.1216,0.5222,-0.3299,291.3438
19:38:04:056,-0.0023,-0.331,12.0418,39.4137,0.1163,0.3137,-0.2476,291.9062
19:38:04:072,0.6106,-0.8876,11.381,41.2816,0.2172,0.0884,-0.184,292.375
19:38:04:092,0.7507,-0.1419,11.0194,41.2782,0.0694,0.0192,-0.2231,292.7188
19:38:04:112,0.4682,0.5082,12.3518,41.4712,-0.4009,0.073,-0.4583,292.9531
19:38:04:137,-0.2645,-0.2616,14.5976,43.0098,-0.8622,0.278,-0.8588,293.2188
19:38:04:154,-2.0697,-1.6981,14.2744,41.7859,-0.8965,0.7451,-1.2224,293.6875
19:38:04:173,-3.8402,-2.5648,11.7102,42.3674,-0.6896,1.2437,-1.2591,294.6875
19:38:04:191,-4.252,-2.3745,9.1879,42.1878,-0.5801,1.4139,-0.8817,296.1719
19:38:04:211,-3.2883,-1.6741,8.0925,42.959,-0.6371,0.4301,0.0648,297.75
19:38:04:231,-2.017,-0.7967,8.1129,40.3823,-0.5628,-0.2455,0.2722,299.0156
19:38:04:254,-1.1072,-0.2125,8.2517,43.5226,-0.44,-0.6847,0.3127,299.5781
19:38:04:271,-1.0426,0.0401,8.2146,42.0146,-0.3564,-0.7204,0.3404,299.1719
19:38:04:290,-1.3382,-0.1359,8.1141,42.6874,-0.3029,-0.4043,0.4733,299.1719
19:38:04:310,-1.6327,-0.24,7.5658,42.9984,-0.248,-0.0229,0.7188,298.5938
19:38:04:329,-1.537,-0.0401,6.6428,45.338,-0.21,0.0932,0.9503,298.0
19:38:04:356,-1.1671,0.3011,6.2215,43.7631,-0.1791,-0.0677,1.0901,297.3594
19:38:04:375,-0.766,0.5573,6.6548,42.6537,-0.0656,-0.3947,1.1335,296.5156
19:38:04:392,-0.4069,0.4723,7.4904,43.4971,0.1046,-0.6615,1.1202,295.4375
19:38:04:467,-0.3626,0.2376,8.1835,42.9156,0.217,-0.7225,1.1005,294.1406
19:38:04:468,-0.3901,0.0521,8.7916,44.6919,0.2391,-0.5414,1.0712,291.3594
19:38:04:468,-0.3279,-0.0126,8.9855,44.8903,0.164,-0.2772,0.9964,289.9375
19:38:04:480,-0.1711,0.2496,9.1795,44.0809,0.002,-0.0671,0.8368,289.3281
19:38:04:489,0.2563,0.5333,9.6116,44.3266,-0.2542,0.1965,0.5148,288.0625
19:38:04:509,0.3126,0.6207,10.5298,43.8071,-0.5716,0.5694,0.097,286.9531
19:38:04:529,-0.0909,0.3023,12.1615,46.2851,-0.6704,0.8402,-0.2545,286.1562
19:38:04:551,-0.6846,-0.4938,13.2556,45.9158,-0.488,0.7766,-0.4609,285.875
19:38:04:570,-1.4735,-1.382,13.5345,47.6381,-0.1623,0.5137,-0.4351,286.0938
19:38:04:589,-1.4268,-2.3637,12.9587,46.4172,0.0857,0.1523,-0.2703,286.6719
19:38:04:610,-0.4428,-2.8425,12.2788,46.9339,0.1653,-0.0882,-0.1555,287.3125
19:38:04:630,0.4395,-2.6929,11.5174,46.3087,0.0841,-0.1531,-0.2495,287.8125
19:38:04:652,-0.0298,-2.3996,11.4671,46.7658,-0.0837,-0.1422,-0.4836,288.0625
19:38:04:673,-1.3382,-3.2675,12.4476,47.3432,-0.1724,-0.0125,-0.5352,288.2188
19:38:04:689,-2.0637,-4.7052,13.0665,46.2794,-0.1226,0.1414,-0.2239,288.6094
19:38:04:710,-1.1874,-5.2906,12.7038,48.1763,0.0351,0.0474,0.2826,289.1875
19:38:04:730,0.6765,-4.3868,11.8586,46.0806,0.2242,-0.2346,0.6182,289.6719
19:38:04:754,2.356,-2.4211,10.7405,48.1032,0.3019,-0.3963,0.4874,289.6719
19:38:04:770,2.8456,-0.8541,9.529,47.8832,0.2524,-0.3065,-0.0146,289.0938
19:38:04:790,1.9334,-0.4734,8.3571,49.6943,0.1155,-0.0527,-0.4633,288.3281
19:38:04:810,0.7806,-0.6051,7.3383,50.1198,-0.0163,0.2194,-0.6567,287.9844
19:38:04:831,-0.0909,-0.6482,6.7661,49.6165,-0.0323,0.3497,-0.638,288.2656
19:38:04:852,-0.687,-0.4328,6.2394,49.0786,0.0787,0.2392,-0.4982,288.9688
19:38:04:869,-0.6775,0.0605,5.7534,50.1958,0.1658,-0.0136,-0.3683,289.3906
19:38:04:890,-0.3303,0.4148,5.8456,49.3437,0.2023,-0.1878,-0.3198,290.1562
19:38:04:910,0.048,0.6243,7.3228,49.3201,0.2537,-0.2282,-0.3161,291.0469
19:38:04:931,-0.1507,0.598,7.9249,48.8428,0.3698,-0.2115,-0.3366,291.4219
19:38:04:954,-0.3171,0.6662,8.49,49.7173,0.5056,-0.2322,-0.3006,291.7188
19:38:04:972,-0.0538,0.7871,9.0095,50.6624,0.6239,-0.274,-0.2071,292.0781
19:38:04:988,0.1593,0.9559,9.4129,50.1999,0.7232,-0.3236,-0.1605,292.4375
19:38:05:009,-0.0621,1.0792,9.6799,50.1682,0.7525,-0.3065,-0.2085,292.7188
19:38:05:029,-0.8008,0.8374,9.9827,48.531,0.6508,-0.1702,-0.3014,292.9062
19:38:05:052,-1.5609,0.5956,10.6759,51.3131,0.4521,0.0423,-0.3177,293.0938
19:38:05:072,-1.8446,0.4507,11.5378,50.2637,0.2833,0.217,-0.1856,293.375
19:38:05:089,-1.7728,0.2005,11.9735,48.8788,0.2681,0.2551,0.0262,293.7812
19:38:05:108,-1.0605,0.0664,11.4887,51.2925,0.3573,0.2232,0.2589,294.1406
19:38:05:129,0.0133,0.1886,10.3455,54.2805,0.3778,0.2003,0.3998,294.2969
19:38:05:151,0.2359,0.7596,9.7397,51.9178,0.1363,0.1702,0.3202,294.2188
19:38:05:172,-0.2022,0.8577,11.4971,53.411,-0.333,-0.0908,0.0975,293.8906
19:38:05:189,-1.1216,-0.1957,13.9559,53.0101,-0.6459,-0.4967,-0.1592,293.5156
19:38:05:209,-2.2002,-1.4371,14.7711,52.6175,-0.5218,-0.6514,-0.2609,293.2812
19:38:05:229,-2.3809,-2.0704,12.7241,52.9262,-0.1386,-0.3547,-0.0772,293.2031
19:38:05:256,-1.9117,-1.7974,9.4931,54.7612,0.0726,0.0772,0.2001,293.3125
19:38:05:272,-1.1743,-1.418,8.1464,53.0707,-0.108,0.1486,0.3867,293.375
19:38:05:290,-0.4332,-1.2133,8.5043,52.959,-0.4318,-0.1095,0.4342,293.2812
19:38:05:309,0.2048,-0.8948,9.0873,52.5454,-0.6342,-0.3707,0.4126,292.9688
19:38:05:329,0.4694,-0.6255,9.1017,51.7907,-0.6398,-0.5393,0.333,292.4688
19:38:05:353,0.1641,-0.5297,8.7581,53.1426,-0.5676,-0.5681,0.2081,291.9062
19:38:05:370,-0.1747,-0.4926,8.5235,54.0947,-0.5362,-0.4189,0.1401,291.0625
19:38:05:390,-0.377,-0.5345,8.0853,53.6961,-0.4944,-0.1936,0.163,290.6562
19:38:05:410,-0.4691,-0.489,7.6173,53.2872,-0.4049,-0.0373,0.2493,290.375
19:38:05:429,-0.4715,-0.4914,7.4449,53.2872,-0.2848,-0.0495,0.3758,290.1094
19:38:05:452,-0.5015,-0.7524,7.4042,52.8066,-0.1317,-0.1281,0.5058,289.7812
19:38:05:469,-0.4835,-0.7392,7.4042,52.5695,0.0028,-0.1539,0.6496,289.3438
19:38:05:490,0.1115,-0.416,7.3216,52.3822,0.0678,-0.1278,0.795,288.7344
19:38:05:509,1.0141,-0.1682,7.1324,55.0414,0.0971,-0.1641,0.8206,287.9531
19:38:05:529,1.4163,-0.1466,7.4054,53.2784,0.0596,-0.3132,0.6549,287.0625
19:38:05:558,1.2678,-0.4004,8.7773,54.0753,-0.0638,-0.5753,0.3907,286.0781
19:38:05:575,0.7316,-0.7356,10.3622,52.9309,-0.1639,-0.8024,0.1455,285.2656
19:38:05:590,0.2096,-1.0768,11.7856,54.6392,-0.2012,-0.837,-0.0306,284.6719
19:38:05:610,0.1246,-1.3342,12.0968,54.0255,-0.2371,-0.2977,-0.0764,284.3125
19:38:05:632,0.4287,-1.2109,12.4799,54.9643,-0.3492,-0.0764,-0.0836,284.125
19:38:05:654,0.4778,-1.4216,13.6231,55.3071,-0.3604,0.2426,-0.0854,284.0625
19:38:05:669,0.0217,-1.7292,14.1427,54.945,-0.2984,0.7153,0.015,284.0625
19:38:05:689,0.0396,-1.5054,13.0629,55.0384,-0.3692,1.1241,0.1037,284.125
19:38:05:709,0.7256,-0.1191,12.1004,55.6283,-0.7274,1.4719,-0.1059,284.2812
19:38:05:728,1.1972,0.8769,12.8701,56.204,-1.0787,1.6922,-0.6029,284.4219
19:38:05:749,0.9339,-0.2137,14.4467,55.4938,-1.0635,1.7002,-1.0338,284.5938
19:38:05:772,-0.2645,-1.9004,14.983,56.6629,-0.7959,1.4517,-1.0173,285.0625
19:38:05:789,-0.5254,-2.785,14.9818,56.528,-0.337,0.992,-0.7083,287.6719
19:38:05:811,-0.0478,-2.5373,14.3354,54.2124,0.2508,0.3635,-0.5094,289.2188
19:38:05:828,0.1904,-1.8286,12.754,56.2023,0.6995,-0.1433,-0.5195,289.8281
19:38:05:849,0.0336,-1.6682,10.7585,54.9619,0.8921,-0.3116,-0.572,290.7031
19:38:05:878,-0.4476,-1.7855,8.897,56.2742,0.931,-0.379,-0.5086,291.3281
19:38:05:889,-0.9671,-1.8286,7.5778,56.6188,0.9895,-0.5417,-0.2689,291.9688
19:38:05:909,-1.3263,-1.8609,6.6021,55.1149,1.1118,-0.7508,0.1026,292.6094
19:38:05:929,-1.2724,-1.8681,5.6109,53.0122,1.2335,-0.9215,0.5274,293.0156
19:38:05:954,-0.8594,-1.4611,5.2494,54.158,1.3182,-1.0533,0.8754,293.0312
19:38:05:974,0.1438,-0.9343,5.4553,53.326,1.3682,-0.9686,0.9995,292.5312
19:38:05:990,1.1481,-0.6087,5.3452,54.8832,1.3437,-0.7316,0.9018,291.6094
19:38:06:011,1.7287,-0.4292,5.0495,52.3736,1.2481,-0.478,0.6858,290.3281
19:38:06:031,1.7072,-0.3717,4.822,53.6894,1.0601,-0.3252,0.4706,289.1094
19:38:06:055,1.2978,-0.1347,5.162,52.0037,0.834,-0.3382,0.3625,288.1406
19:38:06:073,1.1984,0.4268,6.2945,52.8783,0.6308,-0.4618,0.3132,287.5156
19:38:06:089,1.4187,0.9272,8.0123,51.8744,0.499,-0.4597,0.1939,287.0469
19:38:06:111,1.4965,1.0313,9.8139,50.8727,0.4548,-0.2946,0.0158,286.625
19:38:06:132,1.0404,0.8146,11.0254,52.07,0.4164,-0.0008,-0.1038,286.2969
19:38:06:156,0.3293,0.4076,11.8526,53.2258,0.3834,0.3659,-0.0428,286.125
19:38:06:172,-0.3171,0.422,11.9065,52.2494,0.3376,0.6408,0.1329,286.1875
19:38:06:190,0.1486,0.4723,11.436,51.096,0.2076,0.8163,0.223,286.2812
19:38:06:211,1.0093,0.4639,10.2353,50.658,-0.1415,0.922,0.1436,286.375
19:38:06:230,0.6322,1.175,9.3531,51.2597,-0.6347,0.6107,0.0533,286.3438
19:38:06:255,0.0205,1.716,11.1846,52.1117,-0.852,-0.0376,-0.0535,286.2031
19:38:06:272,0.0492,0.7033,13.7273,51.5,-0.6012,-0.412,-0.2316,286.1719
19:38:06:289,-0.4596,-0.8876,13.3681,50.7346,-0.4257,-0.3239,-0.2505,286.125
19:38:06:316,-0.8702,-1.3354,10.5933,50.8636,-0.5751,-0.0578,-0.0732,286.1875
19:38:06:329,0.1557,-0.9942,10.1467,50.2158,-0.8979,0.1404,0.0696,286.3906
19:38:06:349,0.4706,-0.6662,9.9863,50.4913,-1.1335,0.1702,0.0128,286.5156
19:38:06:376,0.2886,-0.5704,9.4165,49.4441,-1.2004,0.0985,-0.103,286.4531
19:38:06:400,-0.0095,-0.6099,8.5702,49.2492,-1.1844,0.0743,-0.1672,286.3438
19:38:06:409,-0.3375,-0.6411,8.0015,50.2802,-1.1671,0.0985,-0.1605,286.3438
19:38:06:430,-0.1148,-0.5106,8.4505,48.9534,-1.117,0.0977,-0.0553,286.4375
19:38:06:454,0.1258,-0.3657,9.0514,49.6377,-0.8712,0.0314,0.0941,286.5781
19:38:06:471,0.151,-0.1634,8.8036,48.015,-0.414,-0.0652,0.2144,286.6406
19:38:06:533,-0.0394,-0.1598,8.0758,49.4456,0.0231,-0.1678,0.297,286.5625
19:38:06:533,-0.2896,-0.2328,7.7801,47.5658,0.2614,-0.2274,0.3689,286.3281
19:38:06:533,-0.0598,-0.5094,7.5814,48.2705,0.3632,-0.2141,0.4342,286.0
19:38:06:554,0.2731,-0.6973,7.5215,46.1998,0.3259,-0.085,0.465,285.5781
19:38:06:574,0.5663,-0.483,7.6951,44.9835,0.1938,0.0722,0.4512,285.0781
19:38:06:590,0.5699,-0.2448,8.3679,46.4427,0.0399,0.0176,0.3513,284.5625
19:38:06:609,0.1462,-0.3226,9.7529,45.3728,-0.0757,-0.2061,0.1804,284.0625
19:38:06:629,-0.5326,-0.5285,11.0733,44.1388,-0.0912,-0.4269,0.0557,283.6094
19:38:06:649,-1.0928,-0.5644,11.7126,44.8266,-0.0379,-0.4842,0.032,283.2812
19:38:06:673,-1.1288,-0.6841,12.4021,44.6805,-0.0435,-0.4647,0.0906,283.0781
19:38:06:689,-0.7193,-0.9236,13.1084,44.7287,-0.092,-0.4144,0.1758,282.9219
19:38:06:710,0.1007,-1.1941,13.7452,44.4757,-0.1096,-0.3902,0.2704,282.625
19:38:06:730,1.0248,-1.4479,13.4747,44.0585,-0.0043,-0.4959,0.3393,282.3281
19:38:06:756,1.1828,-1.0014,12.5757,43.9307,0.1147,-0.6456,0.3159,281.9062
19:38:06:775,1.123,-0.3705,13.0808,44.0015,0.0308,-0.743,0.2025,281.3906
19:38:06:793,1.141,-0.9786,14.6083,42.6507,-0.1183,-0.759,0.012,280.9062
19:38:06:813,1.2331,-1.9662,14.8597,43.6205,-0.0659,-0.547,-0.139,280.4844
19:38:06:836,1.9346,-2.6115,13.1562,43.4415,0.3677,0.0176,0.1548,280.2812
19:38:06:851,2.8815,-2.22,11.266,43.4211,0.4708,-0.0376,0.3066,280.3281
19:38:06:876,3.4992,-0.9475,9.784,42.4262,0.4502,-0.2202,0.1543,280.1719
19:38:06:894,3.2814,0.1167,8.9113,42.0579,0.3413,-0.3212,-0.2247,279.8281
19:38:06:912,2.5978,-0.0197,8.2912,43.3718,0.1525,-0.1595,-0.5307,279.625
19:38:06:930,1.5097,-0.5728,7.8244,44.5542,-0.0145,0.1611,-0.5957,279.8125
19:38:06:956,0.6142,-0.7967,7.3946,43.8587,-0.0632,0.3454,-0.4668,280.3906
19:38:06:973,0.303,-0.7871,7.2558,42.7451,0.0316,0.3268,-0.2782,281.0625
19:38:06:990,0.4802,-0.7021,7.6903,44.6961,0.2875,0.2336,-0.1296,281.0625
19:38:07:009,0.9207,-0.4483,7.7921,44.7153,0.6702,0.184,-0.0804,281.6875
19:38:07:032,1.1721,-0.246,6.5399,43.8491,0.9014,0.1427,-0.1416,282.2812
19:38:07:057,1.1948,0.0736,5.2075,43.6042,0.8425,0.1313,-0.2633,282.4219
19:38:07:074,0.9303,0.3777,4.7885,44.064,0.5602,0.1766,-0.384,282.6406
19:38:07:092,0.5568,0.4519,5.569,44.3321,0.2415,0.2306,-0.405,282.6406
19:38:07:109,0.461,0.7284,7.5263,43.3084,0.0923,0.2162,-0.385,283.4531
19:38:07:129,0.8764,0.9738,9.5937,41.2848,0.1863,0.2197,-0.4271,283.7188
19:38:07:151,1.6988,1.1953,11.1786,43.4085,0.4529,0.1689,-0.5667,284.2188
19:38:07:172,1.8042,1.5101,11.3187,42.318,0.6963,0.1467,-0.7776,284.6875
19:38:07:190,0.6406,1.5305,10.3969,43.8343,0.7176,-0.0448,-0.8764,285.2812
19:38:07:209,-0.9959,1.2576,10.4137,43.945,0.6047,-0.3095,-0.6812,286.1094
19:38:07:229,-1.7117,0.6518,12.0011,44.397,0.5717,-0.3691,-0.2442,287.1094
19:38:07:250,-0.8702,-0.1682,12.8402,43.3044,0.5421,-0.1553,0.1937,287.9844
19:38:07:273,0.2443,0.0521,12.2692,43.895,0.3365,0.0152,0.4706,288.4844
19:38:07:290,0.8153,1.1127,11.6204,45.589,-0.0392,-0.1875,0.5218,288.4688
19:38:07:309,1.1445,1.4407,13.7452,44.6334,-0.2294,-0.273,0.4294,288.2969
19:38:07:331,1.3492,0.3202,15.5062,43.421,0.0002,0.0455,0.3652,287.7969
19:38:07:356,0.9949,-0.5944,13.9392,45.2252,0.2681,0.4274,0.4176,287.1719
19:38:07:374,0.8321,-0.7129,10.3969,42.4166,0.2444,0.4498,0.4789,286.625
19:38:07:389,1.1374,-0.5896,7.828,43.4329,-0.072,0.2642,0.4067,286.2344
19:38:07:409,1.1828,-0.4052,6.893,42.5987,-0.497,0.0533,0.2818,285.8281
19:38:07:429,0.7447,-0.2783,7.4054,42.2027,-0.8246,-0.0463,0.195,285.3438
19:38:07:450,0.2563,-0.2352,8.375,42.7146,-0.9461,0.016,0.1843,284.9375
19:38:07:473,-0.14,-0.4076,8.7126,43.982,-0.9197,0.2,0.2722,284.6094
19:38:07:491,-0.2214,-0.2879,8.6181,42.774,-0.8009,0.3329,0.4232,284.3594
19:38:07:510,0.0492,0.1012,8.4804,44.7061,-0.5538,0.2967,0.5284,284.1094
19:38:07:529,0.1569,0.3801,7.9932,45.7165,-0.2592,0.0844,0.5644,283.8281
19:38:07:549,0.145,0.4447,7.5203,42.3669,-0.0283,-0.1116,0.599,283.3594
19:38:07:570,0.1917,0.2927,7.2294,44.7279,0.0809,-0.1646,0.6342,282.5156
19:38:07:593,0.2276,0.173,7.33,43.4137,0.0851,-0.0535,0.6677,281.8438
19:38:07:609,0.5795,0.0425,7.7717,43.8918,0.0415,0.0581,0.6469,281.1094
19:38:07:630,0.8141,0.0006,8.3499,42.8274,-0.039,0.1782,0.5638,280.3438
19:38:07:656,0.9207,0.0353,9.1998,44.1957,-0.0981,0.2746,0.4536,279.6094
19:38:07:674,0.9889,-0.0629,9.7948,44.2606,-0.1151,0.282,0.3037,278.9375
19:38:07:693,0.3916,-0.2041,10.5238,42.09,-0.2028,0.2264,0.174,278.3906
19:38:07:709,0.2611,-0.6195,11.7066,44.3642,-0.3269,0.0522,0.1143,278.0156
19:38:07:729,0.4239,-0.9499,13.1096,43.0508,-0.3841,-0.1598,0.1367,277.7969
19:38:07:750,0.9698,-1.248,14.1247,43.6997,-0.35,-0.3044,0.223,277.6562
19:38:07:773,1.8784,-1.7603,13.7979,43.2439,-0.2068,-0.2458,0.3162,277.4844
19:38:07:789,2.6337,-1.3617,11.8131,44.5528,-0.0219,-0.0967,0.3255,277.2188
19:38:07:808,3.036,-0.2089,10.2976,45.3921,-0.0896,0.085,0.1521,276.8281
19:38:07:828,2.921,0.313,10.7465,44.9531,-0.4523,0.172,-0.2737,276.3906
19:38:07:850,2.5906,-0.5405,12.6487,44.5046,-0.8398,0.1473,-0.8061,276.1094
19:38:07:871,1.8568,-1.6358,13.9906,44.9232,-0.9666,0.1838,-1.1891,276.1562
19:38:07:891,1.4319,-2.2739,13.6435,44.9232,-0.806,0.3342,-1.2508,276.7656
19:38:07:909,1.1828,-2.0788,12.1698,45.2845,-0.4603,0.4503,-1.0828,277.8594
19:38:07:929,0.9291,-1.3916,9.8355,46.3424,-0.0848,0.4631,-0.8572,279.2969
19:38:07:952,0.941,-0.6638,8.0351,45.8891,0.136,0.3308,-0.6886,280.7031
19:38:07:972,0.9865,-0.1885,7.227,45.8845,0.1477,0.1539,-0.6482,281.9219
19:38:07:988,0.771,-0.0772,7.5035,46.4857,0.0353,0.0003,-0.7086,282.8438
19:38:08:008,0.3557,-0.2292,8.0147,45.5624,-0.0249,-0.0543,-0.7661,284.0625
19:38:08:029,-0.2429,-0.4268,8.1727,45.9933,0.0431,-0.0322,-0.7502,284.8281
19:38:08:049,-0.6068,-0.6351,8.0004,45.8972,0.2199,0.0304,-0.6213,285.6875
19:38:08:071,-0.4297,-0.6901,7.3324,46.714,0.4614,0.0599,-0.385,286.5469
19:38:08:092,0.127,-0.4052,6.7422,46.1512,0.6841,-0.0077,-0.151,287.2812
19:38:08:113,0.5113,-0.0437,6.7649,46.4604,0.7914,-0.1942,-0.0287,287.9219
19:38:08:138,0.8405,0.2269,7.8184,47.36,0.7118,-0.4631,-0.0508,287.9531
19:38:08:153,0.9135,0.1861,9.0801,46.8003,0.6356,-0.2245,-0.1105,287.9062
19:38:08:173,0.7339,0.2388,9.9528,45.8391,0.5823,0.1656,-0.1403,287.875
19:38:08:191,0.6358,0.4519,10.0246,45.2622,0.5304,0.4634,-0.18,287.9844
19:38:08:210,0.3928,0.6063,9.6655,44.9153,0.4202,0.6463,-0.2207,288.1875
19:38:08:232,-0.116,0.7332,9.4656,44.7295,0.2726,0.665,-0.1803,288.5
19:38:08:257,-0.3303,0.744,9.9444,43.3144,0.1717,0.595,-0.099,288.8906
19:38:08:273,-0.4153,0.5573,10.7214,45.0631,0.1789,0.453,-0.0093,289.2344
19:38:08:291,-0.1591,-0.0688,10.8878,45.9418,0.1578,0.3105,0.0698,289.4531
19:38:08:309,0.3449,-0.568,10.4831,46.2749,-0.0584,0.1542,0.0943,289.5625
19:38:08:333,0.5663,-0.2364,10.2281,46.7703,-0.4811,-0.1475,0.0128,289.5469
19:38:08:355,0.3209,0.2759,12.2836,46.7376,-0.8033,-0.5196,-0.152,289.4688
19:38:08:371,-0.772,-0.3561,15.5361,46.3507,-0.5972,-0.5617,-0.1946,289.3906
19:38:08:390,-2.2074,-1.5784,16.2962,46.3181,-0.0954,-0.1302,0.1063,289.3906
19:38:08:409,-2.4827,-2.1721,13.4986,45.5548,0.2399,0.3388,0.6326,289.4219
19:38:08:429,-1.4951,-1.5042,9.7972,46.0279,0.1797,0.3707,1.003,289.3438
19:38:08:449,-0.0909,-0.5608,7.8304,45.8762,-0.0507,0.057,1.0512,289.3438
19:38:08:472,0.6944,0.0712,7.5909,45.3717,-0.2094,-0.2658,0.9335,288.7031
19:38:08:491,0.8261,0.3573,7.9357,45.4463,-0.2188,-0.4522,0.8001,287.6406
19:38:08:508,0.874,0.5118,7.6484,44.2637,-0.2877,-0.3683,0.6512,286.5
19:38:08:528,1.0416,0.6662,7.2821,45.1443,-0.521,0.0144,0.456,285.3594
19:38:08:607,1.1841,0.8386,7.5059,45.8646,-0.7492,0.3971,0.2086,284.3438
19:38:08:607,0.801,0.8027,8.369,45.6682,-0.6883,0.5558,-0.0045,283.5312
19:38:08:608,-0.2824,0.4615,8.6599,45.9866,-0.3458,0.4269,-0.0356,282.9844
19:38:08:609,-1.0833,-0.0533,8.0075,46.9585,0.0154,0.229,0.1351,282.7812
19:38:08:629,-1.1539,-0.2173,7.1767,45.4221,0.1991,0.0306,0.3625,282.8438
19:38:08:649,-0.6727,-0.0592,6.9505,45.4426,0.2676,-0.0948,0.5082,282.9531
19:38:08:674,0.0959,0.1502,6.8272,46.4214,0.217,-0.2599,0.4853,282.8594
19:38:08:689,0.3772,0.4711,7.5826,44.5739,0.0729,-0.3976,0.3431,282.4688
19:38:08:708,0.4478,0.4914,9.2322,45.437,0.017,-0.4298,0.1702,281.9219
19:38:08:729,0.1869,0.2795,10.9584,44.7085,0.1104,-0.339,0.0187,281.3281
19:38:08:749,-0.3219,-0.1742,11.5952,45.4549,0.2178,-0.253,-0.0324,280.8438
19:38:08:773,-0.4392,-0.6578,11.6299,45.9341,0.2106,-0.2178,0.0043,280.5781
19:38:08:790,-0.2788,-0.9798,11.8394,44.1353,0.1464,-0.2655,0.0682,280.4844
19:38:08:807,0.212,-1.1558,12.5505,46.2012,0.1288,-0.2839,0.1311,280.4844
19:38:08:828,1.1852,-1.3629,13.3322,45.9499,0.2321,-0.1611,0.1018,280.4531
19:38:08:848,2.7331,-1.9363,12.4763,44.9566,0.2436,0.0418,-0.143,280.3281
19:38:08:874,3.5591,-1.8465,10.4747,46.186,-0.133,0.22,-0.621,280.0469
19:38:08:890,3.3269,-1.1534,9.7912,44.8598,-0.8414,0.2338,-1.2791,280.0312
19:38:08:908,2.5188,-2.0141,12.1028,46.3858,-1.459,0.5206,-1.8993,280.4844
19:38:08:929,0.7184,-3.9977,14.7855,46.7305,-1.6001,1.2333,-2.0788,281.5625
19:38:08:948,-0.7241,-4.8716,14.3055,44.719,-1.3239,1.7087,-1.772,283.4062
19:38:08:971,-0.8678,-4.7124,12.104,45.8568,-0.8664,1.4861,-1.2351,285.75
19:38:08:990,-0.7241,-3.5919,10.0605,45.6809,-0.4062,0.6927,-0.7089,288.3125
19:38:09:008,-0.6272,-1.9315,8.9389,46.1783,-0.0171,-0.2224,-0.3709,290.4375
19:38:09:027,-0.0777,-0.732,8.4828,47.2022,0.2321,-0.7465,-0.2884,291.75
19:38:09:049,0.2623,-0.3011,8.2015,46.3245,0.344,-0.7137,-0.3395,292.375
19:38:09:073,0.0049,-0.3466,7.7777,45.9724,0.3741,-0.3534,-0.348,292.5625
19:38:09:090,-0.383,-0.0449,6.5363,45.7278,0.3618,0.0788,-0.2231,292.6875
19:38:09:108,-0.0777,0.2999,6.1975,47.5779,0.3435,0.3758,-0.0876,292.9688
19:38:09:131,0.1186,0.3466,6.3819,46.2179,0.3347,0.4181,-0.0516,293.2969
19:38:09:147,-0.2273,0.2987,7.4365,46.5967,0.2961,0.3289,-0.1009,293.5625
19:38:09:168,-0.7002,0.173,8.4337,46.1502,0.3088,0.265,-0.1323,293.75
19:38:09:189,-1.2197,0.2245,8.9963,47.8674,0.4124,0.2431,-0.1001,293.9531
19:38:09:207,-1.3442,0.4316,9.1113,46.1686,0.5547,0.1917,0.0083,294.1875
19:38:09:228,-1.3227,0.762,9.5027,45.6445,0.629,0.0285,0.125,294.4219
19:38:09:247,-1.3442,0.8913,10.2102,44.1589,0.6361,-0.1952,0.1774,294.5781
19:38:09:273,-1.5334,0.8553,10.7393,45.0605,0.6388,-0.3473,0.1777,294.5625
19:38:09:290,-1.701,0.7835,11.2864,43.9379,0.5791,-0.3196,0.1899,294.4219
19:38:09:308,-1.3167,0.4807,12.104,42.3729,0.4572,-0.1795,0.2837,294.0625
19:38:09:328,-0.541,-0.0054,12.4655,43.4669,0.3855,-0.0226,0.4051,293.8281
19:38:09:350,0.5508,-0.3526,11.6443,44.4859,0.3927,0.0306,0.4933,293.5
19:38:09:374,1.1948,0.0868,11.187,43.875,0.2843,-0.0485,0.4586,293.0625
19:38:09:391,1.1314,0.5609,12.2572,43.3376,0.0409,-0.2597,0.2792,292.5312
19:38:09:408,0.6837,0.3178,14.0194,43.9605,-0.1037,-0.5558,0.0453,292.0156
19:38:09:427,0.1246,-0.6099,14.1882,43.3602,0.0715,-0.6317,-0.1171,291.6719
19:38:09:448,-0.1795,-1.5999,11.6587,42.1429,0.4092,-0.3079,-0.1605,291.5
19:38:09:472,-0.2657,-1.7927,8.4169,41.0748,0.5347,0.1672,-0.0804,291.5
19:38:09:490,-0.0262,-1.4287,6.9134,40.5703,0.2785,0.2469,0.0536,291.6406
19:38:09:508,0.3138,-1.0241,7.8148,40.1229,-0.1602,-0.1862,0.1292,291.7969
19:38:09:527,0.6765,-0.908,9.1759,40.2206,-0.4667,-0.5971,0.1423,291.7969
19:38:09:547,0.5484,-0.8374,9.4584,39.4485,-0.5109,-0.7127,0.1332,291.6094
19:38:09:568,0.2635,-0.7835,8.9939,39.1349,-0.4691,-0.5641,0.1636,291.3125
19:38:09:591,0.194,-0.4854,8.211,38.6384,-0.4486,-0.2232,0.2637,290.9844
19:38:09:610,0.4514,-0.0353,7.8268,39.2244,-0.4736,0.0575,0.3796,290.6719
19:38:09:628,0.5424,0.1909,7.7166,38.1119,-0.4613,0.1284,0.4272,290.5156
19:38:09:650,0.2443,0.1048,7.4401,37.37,-0.3223,0.0293,0.4099,290.1094
19:38:09:674,-0.1268,-0.1095,6.9948,37.0148,-0.1106,-0.176,0.4278,289.6406
19:38:09:690,0.0408,-0.2604,6.7733,38.2075,0.0758,-0.3657,0.5215,289.1875
19:38:09:708,0.5604,-0.2221,6.7506,38.1823,0.1807,-0.5204,0.6216,288.7031
19:38:09:731,0.9027,0.0233,6.8954,36.3543,0.197,-0.6192,0.627,288.0938
19:38:09:747,0.8908,0.1814,7.5035,35.2998,0.1216,-0.6765,0.5223,286.9688
19:38:09:769,0.5388,-0.0413,8.8647,34.4452,0.0263,-0.7489,0.3593,286.1094
19:38:09:793,0.1438,-0.5596,10.3096,33.3966,0.0404,-0.5167,0.2285,285.375
19:38:09:808,-0.0825,-0.8266,10.9883,36.1036,0.0193,-0.3675,0.3175,284.7969
19:38:09:835,0.3916,-0.8146,11.8849,33.2952,-0.0608,-0.4115,0.3423,284.0156
19:38:09:846,1.2583,-1.1331,13.3801,32.897,-0.1751,-0.5555,0.2794,284.0156
19:38:09:868,2.1489,-1.9279,15.7085,34.5662,-0.1306,-0.3297,0.2954,283.5781
19:38:09:894,3.358,-2.8473,15.9347,34.0775,0.0697,-0.0546,0.3521,283.1094
19:38:09:906,4.2331,-3.0197,14.406,33.5957,0.1693,0.0882,0.3567,282.6719
19:38:09:927,3.8775,-1.7998,12.7492,34.359,0.01,0.3113,0.1878,282.2656
19:38:09:948,2.6493,-0.8781,12.0657,34.4376,-0.2558,0.5585,-0.1246,281.875
19:38:09:974,1.1242,-1.2695,12.0777,35.8679,-0.3423,0.9361,-0.2253,281.4844
19:38:09:990,0.71,-1.6083,11.1212,33.8451,-0.2803,1.0573,-0.034,281.3281
19:38:10:007,1.4953,-1.7232,9.5554,34.1487,-0.2323,0.6962,0.2048,281.5938
19:38:10:027,2.0747,-0.8086,8.8228,34.6619,-0.2193,0.0663,0.3814,282.0312
19:38:10:047,2.945,0.5716,9.4057,34.9901,-0.0888,-0.5915,0.1881,282.3125
19:38:10:075,3.4382,1.1582,10.051,34.0248,0.1179,-0.8176,-0.3462,282.2188
19:38:10:093,2.7906,0.8601,9.6954,35.5501,0.2175,-0.5039,-0.8301,281.8125
19:38:10:109,1.8209,0.2316,8.5654,35.0525,0.1839,0.1156,-1.0913,281.4531
19:38:10:127,0.9398,-0.1287,6.9852,36.2337,0.0724,0.6163,-1.1784,282.4531
19:38:10:148,0.3604,-0.0126,5.9509,35.8588,-0.0366,0.7169,-1.1486,283.0625
19:38:10:171,0.2683,0.2508,6.1831,36.3638,-0.0158,0.5465,-1.099,284.4688
19:38:10:189,0.4227,0.3777,6.6776,36.7101,0.1304,0.3356,-1.0854,285.9844
19:38:10:207,0.4622,0.2041,6.9014,38.2143,0.2771,0.2013,-1.0532,287.3438
19:38:10:228,0.3844,-0.0796,7.1971,36.5967,0.3522,0.2093,-0.9286,288.6875
19:38:10:247,0.2084,-0.1,7.7106,36.5169,0.3696,0.2122,-0.7086,289.9844
19:38:10:274,0.0265,0.2592,8.7066,35.1555,0.418,0.0639,-0.4641,291.1875
19:38:10:289,-0.2872,0.4543,9.9732,36.0004,0.5538,-0.1715,-0.2253,292.1406
19:38:10:307,-0.936,0.2628,11.1236,35.2983,0.7978,-0.412,0.1497,292.8438
19:38:10:327,-0.2836,0.2376,11.6707,35.2983,1.0665,-0.3846,0.5524,293.2344
19:38:10:348,0.8501,0.9595,10.9596,34.7124,1.0918,-0.2075,0.6491,293.25
19:38:10:373,1.4474,1.722,10.3072,34.9195,0.8196,-0.0165,0.4571,292.7344
19:38:10:392,1.1122,1.7819,10.2832,35.6226,0.4188,0.1931,0.2962,291.9375
19:38:10:408,0.8129,1.1666,11.3331,36.05,0.1589,0.4152,0.3164,291.2969
19:38:10:427,1.1876,0.7141,11.9412,36.1824,0.0556,0.5894,0.3628,290.9062
19:38:10:448,1.366,0.7668,11.3774,36.703,-0.0978,0.5489,0.37,290.625
19:38:10:473,0.892,1.5293,13.1239,37.2822,-0.2526,0.1209,0.4009,290.3125
19:38:10:490,1.1469,1.1702,14.1283,35.8757,-0.1676,-0.3241,0.3921,290.0156
19:38:10:508,1.2307,0.6446,13.2796,36.1042,0.0987,-0.4019,0.2933,289.625
19:38:10:527,1.1673,0.343,11.6096,35.8551,0.262,-0.1595,0.183,289.125
19:38:10:546,1.299,0.3789,10.4125,37.2074,0.206,0.069,0.1316,288.6875
19:38:10:567,1.3911,0.3011,10.355,36.3458,-0.002,0.0213,0.0855,288.375
19:38:10:588,0.7926,0.1957,11.0925,37.1479,-0.203,-0.1478,0.011,288.1406
19:38:10:606,0.0684,0.0976,11.1763,36.4394,-0.2637,-0.139,-0.0071,288.0469
19:38:10:676,-0.3387,-0.1646,10.2844,37.3991,-0.1777,0.1422,0.0906,288.0156
19:38:10:677,-0.6774,-0.3238,8.2553,35.4091,-0.0233,0.6658,0.2176,287.9844
19:38:10:677,-0.5099,0.2269,6.4621,36.2401,0.0982,1.0115,0.3748,287.9062
19:38:10:692,-0.0885,0.6602,5.1393,34.8308,0.1251,1.0743,0.6102,287.7656
19:38:10:708,0.1581,1.1786,4.9394,37.5843,0.1229,0.7808,0.7005,287.6719
19:38:10:727,-0.0657,1.3809,5.5188,36.1916,0.1214,0.2525,0.6688,287.2812
19:38:10:747,-0.1292,1.1989,6.3699,36.2192,0.1549,-0.1982,0.6352,286.6875
19:38:10:773,-0.1675,1.1151,7.0367,36.4441,0.2513,-0.5819,0.6184,286.0
19:38:10:789,-0.1819,0.9858,8.2709,35.2326,0.3477,-0.9942,0.6469,285.2656
19:38:10:812,0.1031,0.732,9.8032,35.5207,0.4218,-1.1364,0.6853,284.5469
19:38:10:827,1.026,1.224,9.3136,36.9465,0.4734,-0.4104,0.7681,283.7344
19:38:10:848,2.0112,1.9962,8.7617,36.632,0.3794,0.1092,0.7676,282.8281
19:38:10:874,2.2327,2.3517,8.3966,35.2084,0.1919,0.372,0.4752,281.9062
19:38:10:892,1.682,1.9758,8.7366,35.7872,-0.0414,0.3726,0.0142,281.0469
19:38:10:914,1.3373,0.8709,10.0713,35.9451,-0.3032,0.1491,-0.3526,280.3438
19:38:10:928,1.105,-0.0401,11.6348,36.7736,-0.4563,-0.1294,-0.4996,280.1094
19:38:10:957,1.4714,-0.7907,12.9073,37.9674,-0.4805,-0.2937,-0.4463,280.3438
19:38:10:973,1.9286,-1.1019,12.7576,37.268,-0.3636,-0.2085,-0.3304,280.8438
19:38:10:990,1.3217,-0.6889,12.0465,36.6472,-0.2512,-0.0741,-0.3035,281.3438
19:38:11:009,0.4275,-0.3597,12.8917,37.2475,-0.3258,-0.1382,-0.3693,281.7188
19:38:11:026,0.5915,-0.7165,14.521,36.5119,-0.4483,-0.2746,-0.3952,282.1875
19:38:11:046,1.4642,-1.0038,14.8154,36.4294,-0.3799,-0.2328,-0.3286,282.5781
19:38:11:066,2.4003,-0.9056,13.2903,37.164,-0.1732,-0.1641,-0.2492,282.9531
19:38:11:087,2.9151,-0.3178,11.3917,37.0869,-0.0312,-0.2434,-0.2,283.2812
19:38:11:106,2.8384,0.4591,9.8702,37.7493,-0.0438,-0.3332,-0.2255,283.5312
19:38:11:127,2.362,0.7931,8.8634,36.7161,-0.1865,-0.3167,-0.3981,283.7031
19:38:11:146,1.6641,0.6506,8.4924,37.1361,-0.3961,-0.1723,-0.6439,283.9062
19:38:11:166,1.1374,0.5908,8.9879,35.9409,-0.5152,0.1422,-0.8106,284.3125
19:38:11:188,0.8417,0.7392,9.8535,38.7285,-0.1692,0.2178,-0.751,285.0156
19:38:11:206,0.5484,1.09,9.9181,40.4691,0.3586,0.1891,-0.7065,286.8281
19:38:11:225,0.0779,1.1678,8.703,39.8325,0.7879,0.0863,-0.645,286.8281
19:38:11:245,-0.1459,1.0361,7.1468,40.7287,0.957,0.1774,-0.4884,287.7188
19:38:11:266,0.2707,1.0983,5.745,39.3918,0.9432,0.208,-0.3094,288.5312
19:38:11:288,0.8824,1.5401,4.9465,41.0384,0.7805,0.1686,-0.2671,289.2969
19:38:11:306,1.3696,1.807,4.682,39.7317,0.5387,0.012,-0.3446,289.8906
19:38:11:326,1.1326,1.8609,5.7139,40.2347,0.2801,-0.1523,-0.3872,290.2969
19:38:11:346,0.7854,1.6754,8.2122,39.9116,0.1634,-0.0104,-0.3454,290.6094
19:38:11:367,0.4287,1.4168,10.4257,40.1116,0.213,0.4879,-0.2359,291.0156
19:38:11:394,0.1486,1.5269,10.8195,39.8574,0.2921,0.9212,-0.1065,291.4375
19:38:11:409,-0.0669,1.9028,10.0677,40.8947,0.2889,1.0,-0.0268,291.8125
19:38:11:426,-0.4033,2.2272,9.5314,42.2256,0.2138,0.6722,0.0618,292.1562
19:38:11:446,-0.4692,2.0453,10.2988,42.6552,0.1664,0.216,0.1971,292.5625
19:38:11:468,-0.1411,1.5473,11.5797,40.1116,0.2007,-0.11,0.3364,292.5938
19:38:11:495,0.4071,1.1127,11.9604,42.9248,0.1387,-0.298,0.4134,292.3906
19:38:11:506,0.8441,1.2887,12.1148,42.0002,-0.1173,-0.3848,0.407,292.2188
19:38:11:527,0.9542,1.5604,13.2029,42.0313,-0.3381,-0.4184,0.3021,291.7812
19:38:11:545,0.3976,0.9511,14.7843,42.99,-0.2377,-0.2743,0.1875,291.2656
19:38:11:566,-0.772,0.0545,14.3701,43.828,0.0082,0.1534,0.248,290.7812
19:38:11:589,-1.3191,-0.4136,11.594,44.249,0.0124,0.478,0.4661,290.4688
19:38:11:612,-1.3251,-0.0688,9.3375,43.0498,-0.2294,0.4309,0.7045,290.25
19:38:11:627,-0.4596,0.3729,9.1089,43.7052,-0.4241,0.0597,0.8126,289.8906
19:38:11:647,0.3054,0.6734,10.1503,42.769,-0.3519,-0.4107,0.819,289.2656
19:38:11:673,0.6465,0.9008,10.7692,42.1482,-0.1016,-0.681,0.7982,288.4375
19:38:11:691,1.1302,1.0385,9.9373,44.1408,0.0897,-0.5793,0.7146,287.4531
19:38:11:708,1.4163,1.3342,8.0674,43.5149,0.063,-0.2826,0.566,286.4375
19:38:11:733,1.4869,1.4479,6.4034,42.1068,-0.1271,-0.028,0.3828,285.5156
19:38:11:746,1.2834,1.4838,5.769,42.5032,-0.312,0.1092,0.2459,284.7188
19:38:11:769,1.1817,1.4754,5.7007,44.3818,-0.3897,0.0932,0.138,284.1562
19:38:11:797,1.0488,1.4048,5.8611,44.9082,-0.3823,0.0099,0.048,283.8281
19:38:11:810,0.868,1.1534,6.2011,43.7423,-0.3463,-0.0144,-0.0015,283.6094
19:38:11:826,0.4335,0.8302,6.7793,44.6291,-0.3439,0.0842,0.0115,283.5
19:38:11:847,-0.2824,0.6482,7.6711,45.4391,-0.3402,0.2567,0.1332,283.4531
19:38:11:867,-0.2321,0.9296,8.5977,46.3641,-0.2797,0.289,0.2845,283.4531
19:38:11:889,0.1857,1.2983,8.7689,45.5211,-0.2046,0.1036,0.3468,283.4062
19:38:11:908,0.8596,1.4168,9.3902,44.1657,-0.1865,-0.1888,0.2906,283.1875
19:38:11:926,1.0835,1.0181,10.859,44.965,-0.2576,-0.4472,0.1013,282.6406
19:38:11:946,0.9087,0.2209,12.863,46.865,-0.4012,-0.4581,-0.1033,282.4531
19:38:11:966,0.6585,-0.6087,14.4348,46.8756,-0.4917,-0.1987,-0.1965,282.1406
19:38:11:994,0.9554,-1.1175,14.6646,45.7062,-0.4369,0.1819,-0.1427,282.0625
19:38:12:008,2.186,-1.224,12.7421,45.3437,-0.2139,0.5228,0.0009,282.1719
19:38:12:026,2.8229,-0.8457,10.6531,46.2687,-0.0851,0.4754,-0.0173,282.375
19:38:12:046,2.3369,-0.665,10.9297,47.1019,-0.2659,0.073,-0.2404,282.5
19:38:12:067,1.3409,-1.2911,13.2736,47.3039,-0.5522,-0.4346,-0.5259,282.5781
19:38:12:093,0.3784,-2.4283,14.9004,47.4501,-0.6297,-0.5827,-0.6953,282.7344
19:38:12:108,0.607,-2.9239,14.3103,47.1655,-0.4776,-0.2229,-0.5395,283.125
19:38:12:126,1.6916,-2.0476,12.0489,47.7483,-0.178,0.2301,-0.1779,283.6875
19:38:12:147,2.5739,-0.5273,9.8571,46.0984,0.063,0.1337,0.061,284.3438
19:38:12:166,2.848,0.5166,8.7557,46.0865,0.0625,-0.2581,-0.0125,284.75
19:38:12:191,2.3871,0.6123,8.4852,48.3552,-0.1354,-0.4493,-0.3339,284.8281
19:38:12:206,1.4869,0.2891,8.6372,47.7386,-0.3951,-0.2839,-0.6394,284.75
19:38:12:226,0.4562,0.1227,8.3607,48.5944,-0.5239,0.1009,-0.7741,284.8438
19:38:12:247,-0.0849,0.2999,7.9213,49.5566,-0.4749,0.3875,-0.7158,285.3281
19:38:12:266,0.1557,0.7021,7.8543,47.5911,-0.3,0.432,-0.5347,286.0938
19:38:12:289,0.5699,1.0373,7.8387,49.1174,-0.0379,0.3177,-0.3819,287.0312
19:38:12:309,1.0512,1.2121,7.233,48.3911,0.2708,0.2003,-0.3161,287.8438
19:38:12:326,1.2607,1.2803,6.5542,49.154,0.4771,0.1513,-0.3347,288.4062
19:38:12:349,1.0105,1.2612,6.1891,48.2783,0.5206,0.1981,-0.4141,289.0625
19:38:12:365,0.5173,1.2145,6.9936,49.234,0.4287,0.1569,-0.4756,289.4844
19:38:12:387,0.2264,1.1307,8.3547,49.6767,0.3475,0.1001,-0.433,289.9844
19:38:12:406,0.0552,1.1223,9.444,48.5481,0.3634,0.0858,-0.3416,290.5781
19:38:12:425,0.0193,1.1115,10.0474,49.5406,0.463,0.1089,-0.2229,291.1094
19:38:12:447,0.0576,1.1786,10.2593,47.9185,0.568,0.1164,-0.1182,291.5
19:38:12:466,0.0001,1.1797,10.2174,49.5463,0.6074,0.1134,-0.05,291.7812
19:38:12:489,-0.1411,1.0876,10.5813,49.4098,0.5009,0.159,0.003,291.9531
19:38:12:507,-0.2309,0.8972,11.697,50.1079,0.2769,0.233,0.0834,292.0469
19:38:12:526,0.0911,0.5752,12.9144,50.5355,0.0827,0.3081,0.1971,292.0781
19:38:12:546,0.7902,0.3921,12.9695,51.1228,0.0044,0.3862,0.2938,292.0312
19:38:12:568,0.9147,0.7596,12.8714,50.3249,-0.3066,0.1577,0.187,291.6094
19:38:12:590,0.3114,0.6746,14.1427,50.7617,-0.2832,-0.1111,0.0999,291.6094
19:38:12:607,-0.62,-0.1909,14.9232,51.3533,0.0436,-0.1398,0.1532,291.3594
19:38:12:626,-1.1503,-1.1019,13.2293,52.0013,0.315,0.0716,0.3716,291.1562
19:38:12:646,-1.0246,-1.1642,10.1922,51.0298,0.2585,0.1212,0.5833,291.0156
19:38:12:665,-0.4787,-0.8194,8.2649,51.1597,-0.006,-0.1145,0.6666,290.8125
19:38:12:690,-0.0298,-0.513,8.1165,50.6029,-0.2334,-0.4618,0.6698,290.4219
19:38:12:749,0.2419,-0.4112,8.6863,50.8231,-0.2805,-0.7129,0.6517,289.0312
19:38:12:750,0.2731,-0.3909,8.7497,51.7843,-0.2353,-0.7412,0.6552,289.0312
19:38:12:750,0.2695,-0.3897,8.32,50.6662,-0.1924,-0.5297,0.6991,288.1875
19:38:12:771,0.2922,-0.2125,7.4485,50.8592,-0.198,-0.2677,0.7612,286.4531
19:38:12:793,0.5149,0.1514,6.6416,50.8592,-0.2323,-0.163,0.7854,286.0
19:38:12:808,0.9291,0.513,6.4597,52.5787,-0.2286,-0.2099,0.7327,285.0938
19:38:12:825,1.0596,0.6411,6.6955,51.623,-0.1402,-0.2724,0.6477,284.1562
19:38:12:845,1.0871,0.5393,6.5614,53.0267,-0.0459,-0.3009,0.587,283.2812
19:38:12:866,1.1876,0.4998,6.3723,52.0909,-0.0169,-0.3558,0.5242,282.4375
19:38:12:889,1.3696,0.4711,6.753,51.2785,-0.0012,-0.44,0.4347,281.6719
19:38:12:908,1.4534,0.3992,7.4126,52.1582,-0.0182,-0.4874,0.3338,281.0156
19:38:12:926,1.2295,0.2927,8.4265,52.8344,-0.0957,-0.4035,0.2363,280.3906
19:38:12:950,0.6669,0.1478,9.5961,52.1092,-0.1849,-0.1992,0.1899,279.8594
19:38:12:966,0.4598,0.1059,10.549,53.6403,-0.2499,-0.0602,0.1692,279.4375
19:38:12:987,0.7088,0.1478,11.2493,54.6739,-0.2848,-0.0943,0.1071,279.1562
19:38:13:009,1.2643,-0.1,12.0046,53.388,-0.317,-0.2578,0.015,278.9375
19:38:13:026,1.9167,-0.4806,13.1263,52.7186,-0.3415,-0.2773,-0.0761,278.75
19:38:13:046,2.3261,-0.5333,14.0194,53.8183,-0.2789,-0.0778,-0.2093,278.6562
19:38:13:066,2.6218,-1.0804,13.3981,54.3108,-0.2744,0.2149,-0.3755,278.6094
19:38:13:097,2.5248,-1.2372,12.0154,54.1514,-0.4915,0.3715,-0.5126,278.7188
19:38:13:108,2.1381,-0.7045,12.1411,53.8568,-0.7279,0.2234,-0.6748,278.8594
19:38:13:126,1.5743,-0.823,14.4455,53.0035,-0.6608,0.0064,-0.8261,279.3125
19:38:13:146,0.7076,-2.2081,16.5081,53.1393,-0.2906,0.1435,-0.7012,279.9844
19:38:13:165,0.5244,-3.3968,16.0688,54.5816,0.14,0.4051,-0.2266,280.7969
19:38:13:192,1.7886,-3.1334,13.9164,54.6137,0.4332,0.3169,0.2552,281.6875
19:38:13:211,3.4861,-1.4718,11.9053,54.2297,0.5395,0.0003,0.3532,282.5156
19:38:13:225,4.3851,0.2256,10.865,54.7415,0.5967,-0.1659,-0.0242,282.8281
19:38:13:245,2.5918,0.252,8.2278,52.93,0.5768,-0.0093,-0.4974,282.4688
19:38:13:269,1.4378,-0.1239,6.9361,53.4725,0.4518,0.3856,-0.7443,282.2031
19:38:13:290,0.3772,-0.2197,6.0096,51.6885,0.3264,0.7579,-0.7739,282.5156
19:38:13:307,-0.0849,-0.1718,5.1644,55.2649,0.327,0.8772,-0.6418,283.25
19:38:13:324,0.048,0.0078,4.2762,52.4207,0.4271,0.7244,-0.433,284.2812
19:38:13:345,0.552,0.2592,4.1505,52.4596,0.4977,0.4016,-0.2327,285.2812
19:38:13:365,1.1912,0.4364,4.6832,53.3896,0.5107,0.061,-0.1206,286.0781
19:38:13:389,1.4725,0.5429,5.4625,54.0346,0.4998,-0.1571,-0.1288,286.5469
19:38:13:406,1.3169,0.4938,6.4549,52.9984,0.4385,-0.1968,-0.2061,286.7969
19:38:13:425,0.9817,0.5082,7.7035,52.8398,0.3344,-0.0618,-0.2287,286.9219
19:38:13:445,0.7746,0.6423,8.7856,51.6755,0.2905,0.0836,-0.1384,287.0938
19:38:13:465,0.8872,0.9296,9.5434,51.8216,0.3427,0.0629,-0.0023,287.3438
19:38:13:494,1.2655,1.2037,9.7026,52.9775,0.4465,-0.0506,0.0847,287.5781
19:38:13:512,1.287,1.3857,10.0103,52.6145,0.4332,-0.1617,0.0642,287.6719
19:38:13:527,0.7734,1.3641,11.2612,52.1972,0.2233,-0.074,0.0272,287.625
19:38:13:545,0.1378,1.09,12.8282,52.8205,-0.0038,0.2011,0.0834,287.5312
19:38:13:565,-0.0645,0.6446,13.1551,53.6023,-0.0193,0.4533,0.2541,287.4688
19:38:13:589,0.5628,0.4352,11.7293,51.1657,0.0838,0.5896,0.4858,287.4375
19:38:13:610,0.7615,1.2827,10.4724,51.1866,-0.0081,0.6013,0.6227,287.3125
19:38:13:625,1.0464,2.0093,11.3714,52.2175,-0.337,0.3044,0.6283,286.9531
19:38:13:645,1.0141,1.5305,14.1091,52.8503,-0.6062,-0.3481,0.4879,286.1094
19:38:13:665,0.5616,0.3478,15.3302,52.1954,-0.4811,-0.7808,0.3071,285.4062
19:38:13:689,0.4634,-0.6422,14.1032,51.1657,-0.1141,-0.7545,0.2989,284.7656
19:38:13:708,0.8596,-0.6398,10.7609,51.4082,0.1815,-0.384,0.4041,284.2969
19:38:13:725,1.5037,-0.1131,8.3439,49.9522,0.1019,-0.1334,0.4477,283.8281
19:38:13:745,1.7575,0.2412,7.2282,48.7324,-0.2328,-0.0802,0.3015,283.2969
19:38:13:765,1.7575,0.3346,7.476,48.9248,-0.6334,-0.1097,0.0523,282.7969
19:38:13:791,1.4342,0.1347,7.9285,47.8083,-0.917,-0.041,-0.2069,282.4375
19:38:13:806,0.8884,-0.1897,7.743,48.537,-0.9964,0.106,-0.4069,282.3281
19:38:13:824,0.2288,-0.3322,7.5311,48.8256,-0.9932,0.2652,-0.4934,282.5312
19:38:13:845,-0.2238,-0.3226,7.4257,47.9863,-0.9285,0.3662,-0.4532,282.9531
19:38:13:865,-0.4823,-0.2891,7.4736,48.4702,-0.7913,0.3055,-0.3342,283.5469
19:38:13:892,-0.4704,-0.2652,7.4533,46.1312,-0.5927,0.159,-0.1677,284.1094
19:38:13:910,-0.2273,-0.2448,7.4054,47.5706,-0.3756,-0.0216,0.0166,284.5
19:38:13:925,0.0911,-0.1814,7.5011,47.214,-0.1958,-0.2434,0.1761,284.7031
19:38:13:946,0.2946,0.003,8.2996,46.3997,-0.0584,-0.4791,0.3196,284.6719
19:38:13:966,0.2096,-0.0126,9.4393,46.3219,-0.0179,-0.3728,0.3345,284.4062
19:38:13:994,-0.2345,-0.2568,10.8291,47.7944,0.0782,-0.2434,0.4469,283.5
19:38:14:014,-0.0945,-0.3561,11.8754,46.0847,0.2327,-0.1928,0.6011,283.5
19:38:14:027,0.5448,0.173,12.2955,44.6267,0.3403,-0.1838,0.6003,283.0312
19:38:14:045,1.2152,0.8003,12.4991,45.5857,0.3464,-0.183,0.4224,282.4844
19:38:14:065,1.9155,0.7464,13.1587,44.2131,0.3357,-0.0961,0.1266,281.0469
19:38:14:085,1.6808,0.1131,13.8937,43.7837,0.344,0.0762,-0.0628,280.4375
19:38:14:108,1.8832,-0.823,14.4276,42.8628,0.4074,0.2879,-0.111,280.4375
19:38:14:125,2.9498,-1.8034,13.6076,43.7155,0.4052,0.6037,-0.2047,280.4375
19:38:14:145,3.5782,-1.6442,11.381,42.9174,0.1086,0.8085,-0.4532,280.5938
19:38:14:164,2.8253,-0.7835,10.361,42.8522,-0.3024,0.7374,-0.821,280.8594
19:38:14:187,1.4067,-1.1007,11.6252,42.2164,-0.4384,0.5942,-1.0764,281.3594
19:38:14:206,-0.1136,-2.4104,12.4141,41.5421,-0.2986,0.6277,-0.9632,281.75
19:38:14:229,-0.6296,-3.465,11.3091,42.5009,-0.1562,0.6575,-0.5113,282.8281
19:38:14:249,0.0719,-3.4339,9.5697,43.0166,-0.125,0.3699,-0.0229,284.1094
19:38:14:264,1.1996,-2.0417,8.4193,43.9485,-0.194,-0.2021,0.2041,285.3281
19:38:14:286,2.04,-0.264,8.7174,42.2994,-0.1916,-0.6402,0.0547,286.0625
19:38:14:308,2.1896,0.5142,9.1149,42.4074,-0.1242,-0.6975,-0.2825,286.1406
19:38:14:324,1.7191,0.3059,8.9281,43.7872,-0.0962,-0.3681,-0.5419,285.8594
19:38:14:344,0.9279,-0.0054,8.2673,41.2038,-0.1133,0.1025,-0.6303,285.6406
19:38:14:364,0.1821,0.0976,7.221,42.3633,-0.134,0.3665,-0.6173,285.7812
19:38:14:384,-0.1507,0.3071,6.4932,41.2142,-0.108,0.3174,-0.5906,286.3125
19:38:14:404,-0.2465,0.2987,6.4884,43.7872,0.0532,0.0839,-0.5376,287.0469
19:38:14:425,-0.0454,0.3202,6.5902,43.3549,0.2907,-0.1513,-0.5012,287.8281
19:38:14:445,0.2084,0.3837,6.2179,43.5071,0.4252,-0.2924,-0.5169,288.5469
19:38:14:465,0.3784,0.319,5.8803,43.516,0.3597,-0.2897,-0.54,289.1719
19:38:14:490,0.1917,0.4232,6.4633,43.9615,0.1722,-0.2309,-0.487,289.7344
19:38:14:508,0.0827,0.6734,8.4493,40.6043,0.1181,-0.131,-0.3853,290.5156
19:38:14:525,0.3281,0.823,10.6483,40.1984,0.275,-0.0099,-0.3507,291.0781
19:38:14:545,0.1174,0.6482,12.0645,40.3848,0.4463,0.229,-0.3342,291.5312
19:38:14:566,0.1126,0.507,13.0928,38.8608,0.5102,0.6317,-0.3163,291.8906
19:38:14:591,0.2024,0.1754,13.7764,40.076,0.5317,1.0735,-0.332,292.3281
19:38:14:609,-0.0538,-0.2855,13.1706,41.3785,0.4396,1.4205,-0.2428,292.7812
19:38:14:625,0.0396,-0.4878,12.0058,39.4802,0.263,1.5763,-0.1286,293.3281
19:38:14:644,0.0312,-0.6363,10.5047,40.7505,0.013,1.298,-0.0434,293.9375
19:38:14:665,-0.9336,-0.1083,10.9225,42.0114,-0.2851,0.6357,0.0941,294.4688
19:38:14:690,-1.3035,-0.0916,13.1167,41.6563,-0.4334,-0.1875,0.2254,294.875
19:38:14:708,-1.1431,-0.75,13.9427,40.733,-0.2861,-0.7494,0.3444,295.0156
19:38:14:725,-0.9252,-1.1462,12.9767,40.7349,-0.0289,-0.7279,0.4837,294.8438
19:38:14:745,-0.468,-1.0876,10.6507,39.7514,0.136,-0.4005,0.6475,294.375
19:38:14:828,-0.0837,-0.6973,8.9532,39.8241,0.0657,-0.2709,0.7226,293.7656
19:38:14:829,0.1545,-0.4232,8.6085,38.707,-0.1743,-0.4898,0.6893,293.0
19:38:14:829,0.4047,-0.4004,9.2693,37.7204,-0.4166,-0.8932,0.5915,292.1406
19:38:14:829,0.6454,-0.6398,9.802,37.6975,-0.5037,-1.1401,0.4816,291.2969
19:38:14:846,0.3616,-0.811,9.699,38.5022,-0.4323,-1.057,0.3955,290.4062
19:38:14:864,0.0636,-0.6339,9.055,38.4877,-0.3042,-0.6791,0.3979,289.5469
19:38:14:884,0.1917,-0.2125,7.992,36.6796,-0.2009,-0.2671,0.4829,288.7812
19:38:14:905,0.3509,0.1454,7.4964,38.1217,-0.1841,-0.02,0.5063,288.1719
19:38:14:924,0.4167,0.1873,7.5718,36.2227,-0.186,0.0605,0.4552,287.25
19:38:14:944,0.4227,0.1071,7.2641,37.5099,-0.0922,0.0895,0.4139,286.6875
19:38:14:964,0.5065,-0.021,6.8523,37.3731,0.0423,0.0623,0.4022,286.1719
19:38:14:984,0.6334,-0.1083,6.7637,37.4434,0.1597,-0.037,0.3899,285.7188
19:38:15:006,0.7818,-0.0928,7.0355,36.4171,0.2223,-0.1518,0.363,285.2656
19:38:15:023,0.7435,-0.1502,7.7753,35.8909,0.2018,-0.2227,0.2879,284.8438
19:38:15:044,0.4694,-0.1167,8.8922,37.3459,0.0918,-0.1782,0.1844,284.4062
19:38:15:063,0.2551,-0.2029,9.7481,36.8709,-0.0137,0.0,0.1007,284.0312
19:38:15:084,0.1785,-0.24,10.2138,36.5822,-0.0661,0.1742,0.0349,283.8125
19:38:15:105,0.1557,-0.3454,10.5166,37.2488,-0.0978,0.2325,-0.0191,283.6875
19:38:15:124,-0.0514,-0.5285,11.1523,36.7638,-0.1364,0.1143,-0.0711,283.6875
19:38:15:144,-0.043,-0.8853,12.4392,36.6334,-0.1985,-0.1057,-0.0801,283.75
19:38:15:164,0.3437,-1.4335,13.8697,36.6034,-0.2368,-0.2453,-0.0071,283.8438
19:38:15:185,0.971,-1.9722,13.7249,36.809,-0.1458,-0.1499,0.1292,283.9062
19:38:15:207,1.2786,-1.6454,12.3015,37.1167,-0.0182,0.0075,0.2464,283.8438
19:38:15:224,0.8393,-0.75,11.6383,34.5391,-0.0656,0.0434,0.2752,283.6719
19:38:15:244,0.7818,-0.7153,12.7469,34.5391,-0.231,-0.0898,0.219,283.3906
19:38:15:264,1.3528,-1.4838,13.1622,36.701,-0.2281,-0.1681,0.1401,283.0781
19:38:15:285,1.9861,-2.0716,12.28,37.3051,-0.0821,-0.0863,0.1215,282.8125
19:38:15:309,2.8899,-1.9243,10.9572,37.3057,0.0537,-0.0458,0.199,282.6094
19:38:15:325,3.4071,-0.9667,9.8941,36.0358,-0.0012,-0.293,-0.0055,282.4375
19:38:15:344,3.1389,-0.1287,9.2645,37.5465,-0.2012,-0.1782,-0.4165,281.9375
19:38:15:364,2.2459,-0.2448,9.0263,37.6134,-0.4249,0.2186,-0.7664,281.9375
19:38:15:384,1.1074,-0.7045,8.9975,37.8611,-0.5181,0.6666,-0.9025,282.3125
19:38:15:405,0.06,-0.8793,8.5809,37.6404,-0.4371,0.8964,-0.8311,282.3125
19:38:15:423,-0.5733,-0.7943,7.8148,36.6373,-0.2547,0.8629,-0.6458,283.1719
19:38:15:443,-0.7229,-0.5896,7.1696,38.6268,-0.035,0.6005,-0.4428,284.3594
19:38:15:463,-0.6236,-0.3226,6.8822,38.2133,0.1994,0.2637,-0.2695,285.5156
19:38:15:483,-0.2836,-0.1347,6.8667,38.5835,0.4292,0.02,-0.1486,286.4219
19:38:15:506,0.3138,0.0664,6.5878,37.9854,0.5317,-0.0748,-0.1203,287.0781
19:38:15:525,0.9889,0.483,6.5758,38.9854,0.4154,0.0469,-0.2157,287.4688
19:38:15:547,1.7383,1.0576,7.2976,38.1336,0.1102,0.4437,-0.4631,287.6562
19:38:15:563,2.0495,1.3198,8.4373,38.9805,-0.1932,1.1068,-0.7795,287.7969
19:38:15:585,1.5911,1.2264,9.3303,38.7223,-0.2994,1.5425,-1.0604,288.0781
19:38:15:606,0.2479,0.7739,9.9373,38.6667,-0.1681,1.4543,-1.1821,288.7188
19:38:15:623,-1.4412,0.0269,10.1396,37.884,0.1019,1.0248,-1.0104,289.8125
19:38:15:643,-2.8394,-0.6458,10.3694,37.3707,0.3499,0.4751,-0.5893,291.3906
19:38:15:663,-3.165,-0.896,10.932,36.9785,0.4819,0.0674,-0.1105,293.0938
19:38:15:684,-2.3785,-0.9284,11.7233,38.2881,0.5182,-0.1686,0.2219,294.4531
19:38:15:705,-0.942,-1.0157,12.2165,37.9958,0.4692,-0.2487,0.3231,295.2812
19:38:15:723,0.1378,-0.9822,12.1902,38.1005,0.2391,-0.2192,0.2099,295.4688
19:38:15:744,-0.1759,-0.7021,12.4931,38.8846,-0.0874,-0.233,0.077,295.2344
19:38:15:764,-0.8726,-0.7368,13.9667,39.9447,-0.2241,-0.0802,-0.0109,294.8594
19:38:15:785,-1.3287,-1.2384,14.849,38.3921,-0.1061,0.2218,-0.042,294.5938
19:38:15:805,-1.598,-1.9196,13.9272,36.7962,0.013,0.5569,0.0083,294.4375
19:38:15:824,-1.7106,-2.0692,11.879,36.8874,-0.0917,0.8663,0.0573,294.4531
19:38:15:844,-1.9009,-1.8046,10.1084,37.5107,-0.3647,0.9566,0.0602,294.5625
19:38:15:863,-2.0793,-1.6478,9.4584,36.4563,-0.6022,0.8397,0.023,294.6875
19:38:15:884,-2.2085,-1.7256,9.5099,36.1554,-0.6699,0.6131,0.0152,294.8125
19:38:15:908,-2.1678,-1.6885,9.5494,33.9703,-0.557,0.384,0.0613,294.9219
19:38:15:924,-2.2684,-1.3533,9.0334,34.8907,-0.3402,0.1603,0.1433,295.0156
19:38:15:943,-2.497,-1.0552,8.0015,35.1743,-0.1255,-0.1209,0.2925,295.0156
19:38:15:963,-2.6383,-0.7117,7.0774,34.937,0.0628,-0.5087,0.5276,294.9062
19:38:15:984,-2.3582,-0.3753,6.9972,35.3349,0.2854,-0.8495,0.7868,294.6562
19:38:16:006,-2.029,-0.1945,7.0462,33.0925,0.5421,-1.0472,1.0547,294.1406
19:38:16:023,-1.2676,-0.3561,6.7721,32.9562,0.7704,-1.065,1.3258,293.2344
19:38:16:043,0.7028,0.507,5.8683,33.5381,0.8668,-1.0349,1.4941,291.9844
19:38:16:063,1.536,1.011,5.9784,33.9404,0.8372,-1.0099,1.4459,290.4219
19:38:16:084,1.7826,1.0876,6.5507,34.4121,0.6985,-0.9867,1.17,288.7344
19:38:16:105,1.4259,0.9008,7.2737,32.8877,0.507,-0.8163,0.8336,286.8906
19:38:16:124,0.9027,0.811,8.1991,33.8773,0.2974,-0.604,0.5553,285.2344
19:38:16:144,0.5556,0.7213,9.2346,31.0427,0.108,-0.4578,0.3396,284.0312
19:38:16:162,-0.0202,0.5429,10.5777,31.0445,-0.0579,-0.3782,0.1346,283.1562
19:38:16:183,-0.3351,-0.0545,12.0106,29.4922,-0.1564,-0.3728,-0.0364,282.5625
19:38:16:204,-0.4476,-0.9176,13.0796,30.4955,-0.1506,-0.444,-0.1296,282.2344
19:38:16:223,-0.3075,-1.4048,14.1534,29.1471,-0.1157,-0.4671,-0.0913,282.1094
19:38:16:244,0.7327,-1.9459,14.3067,30.3414,-0.019,-0.3502,0.0573,282.1406
19:38:16:264,1.3708,-1.7412,12.9384,30.6834,0.1277,-0.1891,0.142,282.1875
19:38:16:283,0.9243,-0.9367,11.7736,28.5787,0.1504,-0.119,0.0943,282.0469
19:38:16:307,0.5137,-0.8577,12.1698,28.9807,0.0564,-0.2799,-0.013,281.8438
19:38:16:324,0.7543,-1.4958,12.6283,29.1623,0.0076,-0.4072,-0.0924,281.7344
19:38:16:344,1.3516,-2.0165,11.6707,29.2941,0.0289,-0.2527,-0.0998,281.7031
19:38:16:363,2.0364,-1.9004,10.136,29.4823,-0.0283,-0.0165,-0.0668,281.7344
19:38:16:384,2.1932,-1.09,9.5685,30.0831,-0.2462,-0.0362,-0.0854,281.7969
19:38:16:408,1.9825,-0.4148,10.5621,29.4716,-0.525,-0.2738,-0.1917,281.875
19:38:16:425,1.4546,-0.1335,10.9057,27.4188,-0.6044,-0.3601,-0.3472,281.9531
19:38:16:443,1.0117,0.0126,10.385,29.634,-0.497,-0.2027,-0.4596,282.0938
19:38:16:464,0.5831,0.0928,8.8647,29.3055,-0.2717,0.073,-0.4913,282.375
19:38:16:483,0.2096,0.3945,7.0594,30.077,-0.0446,0.285,-0.4458,282.8438
19:38:16:510,0.2228,0.7847,5.9294,29.3814,0.103,0.2953,-0.3403,283.4062
19:38:16:526,0.2946,1.0349,5.6289,28.4011,0.1922,0.1654,-0.2575,283.9688
19:38:16:543,0.4083,1.1929,5.672,29.5901,0.2598,0.0157,-0.2194,284.4062
19:38:16:563,0.5987,1.4491,5.7785,29.5888,0.3155,-0.0471,-0.2058,284.75
19:38:16:584,0.6334,1.8082,6.2885,29.3054,0.2915,-0.0575,-0.2487,285.0156
19:38:16:608,0.6861,2.0584,7.1277,29.8918,0.2412,-0.0565,-0.3267,285.2344
19:38:16:624,0.5161,2.1817,8.0542,29.8333,0.2154,-0.0895,-0.4207,285.3594
19:38:16:644,0.2635,2.1973,9.0071,28.518,0.2074,-0.0602,-0.4751,285.6875
19:38:16:664,0.0289,2.2619,9.6918,27.5062,0.1965,0.0618,-0.4695,286.1094
19:38:16:685,-0.3423,2.0417,10.4233,28.3781,0.157,0.2077,-0.4521,286.5938
19:38:16:707,-0.8139,1.4563,11.5198,28.2717,0.0886,0.3017,-0.405,286.875
19:38:16:725,-1.027,0.9284,12.6678,28.4528,0.099,0.3995,0.0187,287.9844
19:38:16:744,-0.693,0.5106,13.3885,29.4975,0.2343,0.2759,0.2786,288.4844
19:38:16:764,0.0456,0.1861,13.5537,27.6224,0.3379,0.172,0.4437,288.8281
19:38:16:786,0.9351,0.0676,12.8079,27.9697,0.2367,0.1321,0.4413,288.8906
19:38:16:809,0.8572,0.3897,12.5002,28.4157,-0.0169,0.0642,0.37,288.6406
19:38:16:827,0.3233,0.5034,13.5405,30.8097,-0.129,0.045,0.3172,288.1719
19:38:16:915,-0.1088,-0.1239,14.4228,30.5003,0.0207,0.1593,0.3135,287.7031
19:38:16:915,-0.6894,-0.8541,13.5956,30.0389,0.1914,0.2783,0.4533,287.3125
19:38:16:916,-0.6152,-1.3078,12.0681,28.6806,0.2359,0.1766,0.6464,286.9531
19:38:16:916,0.1486,-1.3222,11.0542,28.5336,0.1991,-0.118,0.73,286.625
19:38:16:928,0.9446,-1.1259,10.6232,30.0039,0.1589,-0.3459,0.6688,286.1562
19:38:16:943,1.2068,-0.7943,9.9157,29.2658,0.0875,-0.3223,0.5306,285.5
19:38:16:962,0.9662,-0.513,8.9101,29.803,-0.0374,-0.1193,0.4089,284.6562
19:38:16:983,0.5436,-0.3142,7.8316,29.7658,-0.1522,0.0748,0.3764,283.8438
19:38:17:004,0.3126,0.0054,7.1504,30.3655,-0.1892,0.1036,0.4168,283.2188
19:38:17:024,0.3952,0.4974,7.0379,29.0744,-0.0893,-0.0748,0.4834,282.7344
19:38:17:042,0.4514,0.9679,6.911,31.1848,0.103,-0.3249,0.5572,282.2969
19:38:17:063,0.4251,1.0876,6.7326,29.7339,0.2953,-0.5111,0.6752,281.8594
19:38:17:083,0.5436,1.1211,6.5483,27.6048,0.4103,-0.5883,0.8161,281.2812
19:38:17:112,0.8764,1.1774,6.6344,27.7249,0.4798,-0.6296,0.9117,279.7656
19:38:17:127,1.4163,1.169,7.0546,27.2084,0.5307,-0.673,0.8869,278.8125
19:38:17:143,1.8173,1.2444,7.4042,28.4904,0.5091,-0.6336,0.7444,278.25
19:38:17:163,2.1118,1.2863,7.8148,28.6998,0.3357,-0.4892,0.5172,277.1406
19:38:17:184,2.0615,1.315,8.8251,28.322,0.1043,-0.2056,0.2823,276.125
19:38:17:207,1.858,1.2468,9.954,28.1795,0.0074,0.0559,0.0797,275.375
19:38:17:223,1.6294,1.2145,10.5598,28.5599,0.0665,0.0945,-0.0964,274.8906
19:38:17:243,1.2954,0.9655,10.3227,28.6998,0.0771,-0.1097,-0.2045,274.6719
19:38:17:264,1.3468,0.3178,10.622,27.6559,-0.031,-0.3137,-0.2508,274.7031
19:38:17:282,1.5551,-0.4184,11.6467,27.9821,-0.1748,-0.3017,-0.2407,274.8906
19:38:17:307,2.3548,-1.4599,12.3638,29.2187,-0.3293,-0.1649,-0.2311,275.1406
19:38:17:322,2.933,-1.977,12.2776,27.9872,-0.5847,0.0096,-0.278,275.3594
19:38:17:343,2.4757,-1.1283,12.4224,30.0389,-0.8512,0.1505,-0.429,275.5938
19:38:17:363,1.6928,-0.9152,13.7955,29.0478,-0.8233,0.2434,-0.6109,275.8594
19:38:17:383,0.8393,-1.6454,14.2121,29.6328,-0.5942,0.375,-0.6114,276.2344
19:38:17:406,0.7196,-2.5085,13.0162,30.9825,-0.4433,0.4091,-0.389,276.8125
19:38:17:424,2.1513,-1.4347,10.8327,29.4931,-0.4403,0.2051,-0.1517,277.5781
19:38:17:446,2.5691,-0.082,10.7082,30.6677,-0.4771,-0.0954,-0.1014,278.2344
19:38:17:463,2.4985,0.5609,10.112,30.9021,-0.452,-0.2256,-0.295,278.5469
19:38:17:482,1.7934,0.744,8.8479,31.4493,-0.431,-0.0229,-0.6026,278.6562
19:38:17:503,1.0428,0.7823,7.6424,29.6297,-0.4829,0.3593,-0.7834,278.7969
19:38:17:524,0.2419,1.1067,6.82,30.5885,-0.5053,0.6024,-0.8165,279.2344
19:38:17:543,0.1617,1.4096,6.249,29.6832,-0.4174,0.5747,-0.7235,280.0781
19:38:17:563,0.3054,1.7125,5.8982,31.2108,-0.2771,0.42,-0.6213,281.1094
19:38:17:583,0.3892,1.9483,5.9102,31.2771,-0.1793,0.294,-0.5973,282.5
19:38:17:608,0.4143,1.9519,6.1963,31.191,-0.1053,0.2791,-0.6279,283.2969
19:38:17:625,0.2515,1.8382,6.3795,30.1377,-0.0251,0.331,-0.6849,284.0469
19:38:17:643,-0.2214,1.8657,6.8858,32.2555,0.0058,0.4517,-0.7222,284.7812
19:38:17:663,-0.4045,2.0261,7.8639,31.5288,-0.0076,0.5143,-0.6801,285.6406
19:38:17:683,-0.0741,2.2284,9.1627,30.6518,0.0542,0.3827,-0.5749,286.5625
19:38:17:711,0.2898,2.2129,10.3981,30.6518,0.1959,0.1337,-0.4892,287.4531
19:38:17:728,0.2515,1.801,10.9751,31.0336,0.3424,0.0594,-0.4671,288.1562
19:38:17:744,-0.3746,1.2683,11.3594,28.276,0.3917,0.2242,-0.4466,288.7656
19:38:17:762,-0.954,0.9176,12.1387,30.0392,0.3235,0.4767,-0.3177,289.3125
19:38:17:783,-0.7601,0.7536,12.535,29.1589,0.2833,0.6546,-0.0737,289.8594
19:38:17:802,-0.3375,0.5285,12.5733,29.2135,0.3421,0.5776,0.146,290.3438
19:38:17:826,0.5627,-0.1167,11.8466,29.6867,0.4457,0.3238,0.2847,290.5
19:38:17:843,1.0033,-0.1083,11.193,31.9384,0.381,0.0461,0.2965,290.5938
19:38:17:863,0.382,0.0365,13.4867,29.1042,-0.0012,-0.3705,0.1758,290.4531
19:38:17:883,-0.3554,-1.157,16.1299,31.7682,-0.2624,-0.7987,0.0922,290.1562
19:38:17:907,-1.0881,-2.2487,15.9216,31.952,-0.0427,-0.7625,0.1654,289.875
19:38:17:924,-0.9252,-2.4331,12.7911,31.3745,0.2931,-0.2112,0.4429,289.6094
19:38:17:947,-0.2573,-1.9638,10.4269,30.5399,0.2987,0.2314,0.7372,289.3281
19:38:17:962,0.4203,-1.6035,10.3419,31.0842,0.043,0.1704,0.8704,288.9062
19:38:17:983,0.5951,-1.1582,10.847,29.9122,-0.1391,-0.0668,0.8384,288.2344
19:38:18:008,0.4047,-0.7955,10.4987,30.1722,-0.1596,-0.1337,0.7377,287.3906
19:38:18:024,0.0803,-0.6183,9.5362,29.6186,-0.1293,-0.0557,0.6379,286.4062
19:38:18:043,-0.1938,-0.4543,8.4983,28.4628,-0.1138,0.0916,0.5947,285.0781
19:38:18:063,-0.1543,-0.2652,7.5071,29.5289,-0.0944,0.2423,0.6227,284.3281
19:38:18:083,-0.1208,-0.07,6.4238,30.8617,-0.0632,0.3883,0.6682,283.6562
19:38:18:103,-0.1316,0.0377,5.6253,28.5461,-0.0406,0.4818,0.7226,282.9844
19:38:18:125,-0.0023,0.1131,5.3883,29.2814,0.0963,0.1417,0.8871,282.3281
19:38:18:145,0.2228,0.1886,5.6026,28.4283,0.2345,-0.1518,0.9375,280.7344
19:38:18:162,0.6226,0.2508,5.8803,30.4114,0.344,-0.3878,0.9247,279.8125
19:38:18:183,1.1709,0.4304,6.3316,30.7261,0.3352,-0.4962,0.7998,279.8125
19:38:18:202,1.5468,0.5752,7.1073,27.5313,0.2151,-0.4392,0.5929,278.7344
19:38:18:226,1.6557,0.568,8.0279,29.1139,0.0361,-0.278,0.3713,277.6406
19:38:18:243,1.5587,0.5345,8.9353,30.2808,-0.1157,-0.1617,0.1713,276.6719
19:38:18:263,1.6138,0.5249,9.6512,29.0761,-0.2307,-0.2171,-0.0063,275.9844
19:38:18:282,1.9777,0.1778,10.4879,30.5813,-0.3354,-0.4021,-0.1842,275.5156
19:38:18:302,2.2171,-0.1107,11.9496,29.2533,-0.3628,-0.5848,-0.3523,275.2812
19:38:18:346,2.2207,-0.2831,13.4986,29.4219,-0.26,-0.5766,-0.536,275.2344
19:38:18:346,2.1393,-0.7727,13.6842,29.6785,-0.1498,-0.3912,-0.6934,275.3438
19:38:18:364,2.3608,-1.3976,12.6199,30.0859,-0.2345,-0.1601,-0.8442,275.625
19:38:18:384,2.2291,-1.2109,11.624,29.8674,-0.5461,-0.0791,-1.0665,276.0938
19:38:18:409,1.4618,-0.7189,12.0825,29.9422,-0.8765,-0.2834,-1.3089,276.8125
19:38:18:425,0.8333,-1.2767,14.7472,30.0817,-0.9399,-0.2653,-1.4839,277.7344
19:38:18:444,-0.4476,-2.633,16.3633,30.6301,-0.737,0.2871,-1.3257,278.9062
19:38:18:462,-1.1503,-3.0724,14.8921,31.2407,-0.4366,0.7582,-0.8114,280.25
19:38:18:482,-0.116,-2.5444,12.0214,29.8324,-0.1977,0.62,-0.3158,281.8594
19:38:18:504,0.9327,-1.2659,9.9277,32.7522,-0.0656,0.1047,-0.0833,283.4219
19:38:18:527,1.6378,0.1119,8.9485,32.603,0.0058,-0.3702,-0.1414,284.4375
19:38:18:545,1.9358,0.811,8.5702,32.3336,0.0036,-0.4384,-0.3842,285.0312
19:38:18:563,1.6521,0.683,8.1512,33.8458,-0.0605,-0.1097,-0.5962,285.0781
19:38:18:584,0.9877,0.398,7.7633,32.751,-0.0656,0.3009,-0.6639,285.25
19:38:18:609,0.297,0.3765,6.9828,31.5689,0.006,0.5265,-0.6082,285.7656
19:38:18:626,-0.031,0.4747,6.5255,32.4303,0.1501,0.5579,-0.4929,286.5312
19:38:18:643,0.1366,0.5585,6.0862,32.8148,0.3264,0.5015,-0.3928,287.3281
19:38:18:663,0.4011,0.7524,5.417,34.3998,0.4167,0.3712,-0.3558,288.0938
19:38:18:683,0.7315,0.9092,5.2722,34.0895,0.4047,0.2269,-0.3986,288.7344
19:38:18:709,0.7746,0.9116,6.012,33.697,0.3275,0.1555,-0.4865,289.2344
19:38:18:727,0.3233,0.896,7.2665,34.6726,0.25,0.2605,-0.5123,289.7344
19:38:18:743,-0.3123,0.9559,8.6791,32.8149,0.2814,0.379,-0.4458,290.2969
19:38:18:763,-0.7493,1.0229,9.5314,35.5949,0.3975,0.4194,-0.3334,290.9375
19:38:18:784,-0.7589,0.9858,9.6176,33.3161,0.434,0.4,-0.2322,291.5469
19:38:18:808,-0.7864,0.7979,9.8355,33.016,0.3682,0.3547,-0.1318,292.0938
19:38:18:827,-0.9671,0.4531,11.0877,34.5167,0.27,0.2394,-0.0074,292.5156
19:38:18:844,-0.377,0.3789,12.3075,35.3257,0.1751,0.0474,0.0824,292.8125
19:38:18:862,0.5903,0.0461,12.9923,35.7654,0.006,0.1305,0.0341,292.9688
19:38:18:882,0.6106,-0.1191,12.9563,34.7826,-0.3349,0.6463,-0.1928,292.9531
19:38:18:903,-0.7361,0.1598,13.4938,35.3103,-0.7985,1.257,-0.4596,292.875
19:38:18:926,-2.1128,-0.6758,14.6431,36.0032,-1.0544,1.4152,-0.605,293.0
19:38:19:003,-2.9711,-2.1039,14.09,35.6966,-0.8582,1.2551,-0.5608,293.5469
19:38:19:003,-2.9603,-2.8449,11.855,35.1942,-0.4454,1.0597,-0.2367,294.3906
19:38:19:003,-2.1355,-2.5696,9.6978,36.0423,-0.1527,0.6546,0.2059,295.2656
19:38:19:015,-1.0102,-1.9878,9.0945,36.0396,-0.1282,-0.0701,0.5218,295.9688
19:38:19:026,-0.3506,-1.5772,10.0833,36.5616,-0.2566,-0.7864,0.5812,296.1719
19:38:19:042,-0.1723,-1.4419,10.7441,33.1863,-0.3431,-1.0477,0.5202,295.4531
19:38:19:061,-0.3925,-1.2803,10.2329,34.3528,-0.3088,-0.8171,0.4696,294.5625
19:38:19:081,-0.5302,-1.005,8.7785,34.2437,-0.1892,-0.4333,0.4903,293.6719
19:38:19:102,-0.3375,-0.5644,7.0834,33.3584,-0.0696,-0.1193,0.5583,292.9375
19:38:19:123,-0.2034,-0.1299,6.1077,33.9605,-0.0414,0.0226,0.5963,292.25
19:38:19:143,-0.1555,0.1287,5.9162,33.6073,-0.0257,-0.0506,0.5883,291.5781
19:38:19:162,0.0193,0.246,6.0443,35.0215,0.0769,-0.3047,0.5761,290.9375
19:38:19:182,0.1354,0.1945,6.5686,33.5794,0.2218,-0.6464,0.5484,290.2344
19:38:19:203,0.1713,-0.1467,7.6149,32.8503,0.36,-0.9404,0.4922,289.5156
19:38:19:221,0.2611,-0.4699,8.2685,34.0352,0.487,-1.0173,0.4448,288.75
19:38:19:243,0.1486,-0.5824,8.5307,33.9573,0.5251,-0.8408,0.3998,288.0469
19:38:19:262,0.127,-0.2951,8.8407,33.3327,0.3949,-0.5087,0.3532,287.3438
19:38:19:284,0.5436,0.1778,9.2334,34.5312,0.1733,-0.1902,0.281,286.7344
19:38:19:307,1.226,0.4196,9.863,32.9572,-0.0347,-0.069,0.1087,286.2656
19:38:19:323,1.518,0.3322,10.9069,34.3732,-0.2004,-0.1489,-0.1709,285.9219
19:38:19:344,1.2152,-0.2269,12.3925,32.7661,-0.2994,-0.2823,-0.4793,285.7656
19:38:19:362,0.3461,-0.7536,13.7189,35.4041,-0.3114,-0.3313,-0.6902,285.9219
19:38:19:382,-0.3004,-1.1151,14.424,34.7322,-0.2289,-0.1968,-0.711,286.375
19:38:19:402,-0.0885,-1.3078,13.4496,33.7153,-0.0376,0.1001,-0.5592,287.0781
19:38:19:422,0.8285,-1.0157,11.011,34.4521,0.1552,0.355,-0.3763,287.8438
19:38:19:442,1.5875,-0.2161,9.4417,33.8468,0.0825,0.3433,-0.3496,288.4688
19:38:19:462,2.6972,-0.5596,11.5653,34.3134,-0.3194,-0.2495,-0.5339,288.9844
19:38:19:481,3.2203,-2.3397,16.1203,35.4281,-0.7399,-1.0602,-0.8535,289.4688
19:38:19:503,1.8329,-4.285,18.1051,36.4747,-0.4917,-0.0591,-0.9933,289.9688
19:38:19:524,-0.62,-4.0037,15.2859,34.7853,-0.1886,1.1673,-0.4074,290.6719
19:38:19:543,-1.112,-2.1793,10.6064,34.7801,-0.1879,1.4083,0.1716,291.6562
19:38:19:562,-0.1795,-0.1586,8.0782,35.633,-0.3021,0.9561,0.3298,292.7188
19:38:19:586,0.3138,1.2612,7.8806,35.0694,-0.1705,0.3337,0.1143,293.4844
19:38:19:607,-0.2573,1.1606,8.0374,35.1805,0.1903,-0.2882,-0.0964,293.6562
19:38:19:625,-1.0761,0.0964,7.7932,34.5453,0.4748,-0.51,0.019,293.5156
19:38:19:641,-1.4316,-0.3861,7.2964,36.7196,0.659,-0.2615,0.3367,293.4688
19:38:19:661,-0.9181,0.0138,6.3029,37.2509,0.8119,-0.0679,0.5489,293.5156
19:38:19:681,-0.0538,0.5956,5.2075,36.0649,0.8953,-0.0778,0.5186,293.375
19:38:19:703,0.5879,0.9475,4.3995,34.7178,0.8329,-0.155,0.301,292.9688
19:38:19:725,0.6657,0.8493,4.3228,37.0262,0.6234,-0.1784,0.0293,292.3594
19:38:19:741,-0.0681,0.3202,5.3224,34.9359,0.4042,-0.1081,-0.1086,291.7969
19:38:19:762,-0.9528,-0.1514,6.7087,36.0277,0.2793,-0.0405,-0.0503,291.4688
19:38:19:782,-1.5525,-0.4064,8.4708,33.7986,0.3166,-0.0831,0.2027,291.4219
19:38:19:801,-0.9552,-0.3454,10.282,35.1131,0.5674,-0.0924,0.4914,291.5312
19:38:19:822,0.4849,0.3932,10.8854,36.3551,0.8519,-0.1047,0.5191,291.5938
19:38:19:841,1.1876,1.1965,10.0258,34.9668,0.9022,-0.1332,0.2863,291.3594
19:38:19:862,0.6035,1.406,9.4201,34.9763,0.6596,-0.0882,0.0696,290.8125
19:38:19:882,-0.2321,0.8218,9.9492,32.8488,0.3033,0.155,0.0773,290.2344
19:38:19:901,-0.7337,0.1263,11.3714,37.3735,0.1208,0.3856,0.2949,289.9219
19:38:19:922,-0.4129,-0.1634,12.3386,34.1588,0.1368,0.489,0.5766,289.8594
19:38:19:941,0.4155,-0.3035,12.1471,35.5353,0.1714,0.4922,0.7646,289.8125
19:38:19:962,1.2631,-0.015,10.701,37.1214,-0.0408,0.3403,0.7708,289.5469
19:38:19:981,1.3732,1.0265,10.5454,36.3735,-0.4299,-0.167,0.6323,288.9844
19:38:20:002,1.3504,1.4467,13.5405,36.374,-0.5538,-0.7047,0.379,288.1875
19:38:20:022,1.0572,0.5405,16.7332,35.8443,-0.2283,-0.661,0.1468,287.3594
19:38:20:040,0.6035,-0.8781,16.8421,33.9872,0.1895,0.0594,0.0965,286.2969
19:38:20:061,0.4873,-1.1797,13.0784,35.5795,0.2303,0.6344,0.1186,285.8594
19:38:20:082,0.8022,-0.4435,9.6619,35.3942,-0.0571,0.7739,-0.0207,285.6875
19:38:20:101,0.7447,0.0521,7.8244,34.9361,-0.3855,0.6509,-0.2862,285.6406
19:38:20:124,-0.0119,0.0401,7.3048,34.4148,-0.569,0.5286,-0.441,285.6719
19:38:20:142,-0.8379,-0.2688,7.0151,34.4148,-0.5729,0.429,-0.4063,285.9531
19:38:20:164,-1.2545,-0.4723,6.1819,35.1729,-0.525,0.2903,-0.2338,286.4375
19:38:20:182,-1.3359,-0.3442,5.162,33.6786,-0.5338,0.0088,0.0033,286.9844
19:38:20:202,-0.2597,0.6028,6.0778,32.9592,-0.5346,-0.4517,0.2762,287.375
19:38:20:225,0.5759,0.9942,7.579,32.3275,-0.4001,-0.9563,0.4608,287.5
19:38:20:242,0.8812,0.7943,8.5714,32.531,-0.1452,-1.1707,0.4373,287.25
19:38:20:261,0.279,0.5656,8.3822,32.6136,0.0665,-0.8442,0.3191,286.625
19:38:20:281,-0.0346,0.6303,8.5163,31.4543,0.0686,-0.3332,0.281,285.8281
19:38:20:301,-0.0214,0.5213,9.2932,32.5444,-0.056,0.0352,0.244,285.2188
19:38:20:324,-0.3423,0.2855,9.9552,31.62,-0.1234,0.221,0.1684,284.7812
19:38:20:342,-0.6355,-0.0341,10.4556,31.4933,-0.1149,0.2021,0.1353,284.4375
19:38:20:361,-0.8067,-0.7608,11.4252,30.5873,-0.0763,-0.0812,0.1601,284.2344
19:38:20:381,-0.1292,-1.4838,13.1826,32.0863,-0.039,-0.5606,0.2858,284.1094
