Time,Acc_X,Acc_Y,Acc_Z,Meg,Gyr_X,Gyr_Y,Gyr_Z,Ore
19:23:03:129,-2.8226,1.3078,10.4771,51.2421,-0.1697,0.1625,0.15,173.4688
19:23:03:182,-1.7106,1.8226,8.6815,50.2531,0.4953,-0.8935,-0.2,173
19:23:03:192,-1.5765,1.6011,8.6887,51.924,0.4013,-1.0264,-0.2474,173
19:23:03:212,-1.531,1.4264,8.7497,51.6655,0.2934,-1.0927,-0.2543,191.0938
19:23:03:234,-1.1862,1.26,8.5977,51.4577,0.1887,-1.245,-0.2503,191.4844
19:23:03:251,-0.7469,1.4299,8.6492,51.6103,0.1259,-1.4845,-0.2817,191.9531
19:23:03:281,-0.6906,1.825,9.5554,51.3041,0.1293,-1.3028,-0.2671,192.4062
19:23:03:294,-0.4081,1.7496,9.7661,52.1924,0.1925,-0.8168,-0.2138,192.875
19:23:03:313,-0.0825,1.485,9.5195,51.5738,0.214,-0.1132,-0.237,193.4062
19:23:03:331,-0.1531,1.4084,9.1939,51.8328,0.2178,0.5156,-0.27,193.8281
19:23:03:349,-0.6044,1.6502,8.6276,51.6856,0.1794,0.7872,-0.2617,194.1406
19:23:03:382,-1.2856,2.0883,7.7956,52.5245,0.0542,0.3704,-0.1579,194.3906
19:23:03:389,-1.6411,2.3649,7.4413,51.9037,-0.1085,-0.1989,-0.026,194.6094
19:23:03:420,-1.3454,2.2272,8.1117,52.7147,-0.2017,-0.4314,0.0339,194.7812
19:23:03:428,-1.0497,2.068,8.9006,51.7083,-0.2448,-0.5726,0.0293,194.8594
19:23:03:456,-1.0198,2.0093,9.693,51.8457,-0.2371,-0.5784,0.0272,194.8906
19:23:03:468,-0.9037,1.9052,10.0055,50.8224,-0.198,-0.4655,0.0472,194.9062
19:23:03:487,-0.6966,1.9064,10.13,51.1533,-0.1293,-0.3763,0.0754,194.9531
19:23:03:513,-0.4871,1.9974,9.9061,50.9692,-0.0382,-0.3044,0.0943,194.9844
19:23:03:529,-0.3878,2.2021,9.6727,50.0446,0.0271,-0.2261,0.0965,194.9375
19:23:03:548,-0.3602,2.311,9.1735,52.2237,0.0196,-0.1691,0.0927,194.875
19:23:03:566,-0.4608,2.4451,8.642,51.5314,-0.0611,-0.1702,0.1114,194.7969
19:23:03:587,-0.4584,2.5744,8.3882,51.3868,-0.1676,-0.2397,0.1465,194.7188
19:23:03:611,-0.274,2.7168,8.7629,52.5759,-0.2424,-0.2871,0.1684,194.6094
19:23:03:628,-0.0418,2.736,9.0562,52.229,-0.2824,-0.2027,0.1652,194.4688
19:23:03:647,0.0767,2.7539,9.2597,51.2188,-0.2984,-0.0682,0.1346,194.4688
19:23:03:671,0.0863,2.6929,9.3423,51.0035,-0.3178,0.0173,0.097,194.1562
19:23:03:685,-0.0322,2.6318,9.2753,51.1612,-0.353,0.0423,0.0807,194.1562
19:23:03:707,-0.1388,2.633,9.2441,52.5736,-0.395,0.0405,0.0866,194.0156
19:23:03:728,-0.2022,2.6665,9.2465,52.5736,-0.4342,0.024,0.0922,193.9062
19:23:03:745,-0.2633,2.5947,9.28,51.8984,-0.443,-0.0027,0.1068,193.8125
19:23:03:765,-0.2872,2.4954,9.4824,51.089,-0.4203,-0.0253,0.1335,193.7188
19:23:03:785,-0.2345,2.5193,9.6871,52.3842,-0.3871,-0.0229,0.1676,193.6094
19:23:03:811,-0.0394,2.5636,9.7912,50.1534,-0.3578,-0.0043,0.1718,193.4844
19:23:03:829,0.0923,2.5301,9.7242,52.0084,-0.333,0.0421,0.1298,193.3438
19:23:03:847,0.0109,2.5971,9.6033,50.9842,-0.301,0.0341,0.0786,193.1562
19:23:03:864,-0.2824,2.5887,9.3674,50.9556,-0.2813,-0.1358,0.0509,192.9688
19:23:03:886,-0.4979,2.4714,9.5075,51.7715,-0.2619,-0.4525,0.0736,192.8281
19:23:03:912,-0.1902,2.0644,10.4652,51.0034,-0.2179,-0.6538,0.1306,192.7344
19:23:03:927,0.7687,1.2755,11.8454,51.8007,-0.1269,-0.5854,0.1377,192.6875
19:23:03:947,1.3792,0.7656,12.7193,51.5549,-0.0312,-0.3806,0.0509,192.6406
19:23:03:971,1.3493,0.5513,12.7624,50.2579,0.0468,-0.077,-0.0095,192.5469
19:23:03:985,1.3301,0.5273,11.928,51.5501,0.0793,0.3481,-0.0026,192.4219
19:23:04:006,1.4833,1.0421,10.5119,50.2129,-0.0371,0.6373,-0.0125,192.4062
19:23:04:028,1.9107,1.5963,9.5159,51.3472,-0.3631,0.5435,-0.1161,192.4062
19:23:04:046,2.5392,1.4862,9.966,52.193,-0.7469,0.2557,-0.3297,192.3594
19:23:04:066,2.7175,0.9463,11.8347,49.6965,-0.9604,0.0626,-0.5946,192.375
19:23:04:086,2.2495,0.2556,13.9212,49.7491,-0.843,0.1582,-0.8098,192.5938
19:23:04:111,1.6102,-0.5692,14.2899,48.7669,-0.4813,0.5055,-0.8609,193.125
19:23:04:128,1.0224,-0.8434,12.9432,50.6272,-0.1127,0.8978,-0.7374,193.9531
19:23:04:150,1.1984,-0.7129,11.0099,50.6292,0.1472,1.0192,-0.604,194.875
19:23:04:170,1.9155,-0.4998,9.1675,48.6147,0.2159,0.6743,-0.6514,195.7969
19:23:04:185,2.0196,-0.2364,8.0937,50.34,0.1237,0.1981,-0.8306,196.5156
19:23:04:206,0.868,-0.228,8.0853,49.232,-0.0137,-0.1766,-0.9105,197.1719
19:23:04:227,-0.268,-0.1909,9.0275,48.7521,-0.0728,-0.2815,-0.7776,197.9844
19:23:04:245,-0.2561,-0.428,9.6871,48.8844,0.0047,-0.0695,-0.5933,199.0156
19:23:04:268,-0.1208,-0.5022,9.1041,48.4623,0.1198,0.2021,-0.4561,200
19:23:04:286,-0.3889,-0.155,8.1823,48.7316,0.2047,0.327,-0.3438,200.75
19:23:04:314,-0.468,0.1646,7.4138,48.8822,0.2436,0.2631,-0.2612,201.3438
19:23:04:330,-0.3327,0.3358,7.1001,49.0628,0.2798,0.1587,-0.2098,201.7969
19:23:04:345,0.0911,0.8493,6.7601,47.7382,0.3192,0.0415,-0.1858,202.125
19:23:04:365,0.315,1.2169,6.8559,50.0385,0.3144,-0.1177,-0.2247,202.3906
19:23:04:385,0.4251,1.3402,7.2581,49.0894,0.234,-0.2642,-0.3419,202.6094
19:23:04:410,0.2372,1.3378,7.8986,47.1045,0.1067,-0.3486,-0.532,202.8438
19:23:04:427,-0.4895,1.0469,8.8443,48.0312,-0.1064,-0.3129,-0.752,203.3906
19:23:04:444,-1.5058,0.8972,9.5961,48.2598,-0.3346,-0.0679,-0.8639,204.0312
19:23:04:468,-2.1236,0.7668,10.3491,47.2211,-0.5128,0.232,-0.7941,204.8594
19:23:04:484,-2.3845,0.7931,10.8506,47.921,-0.5575,0.4138,-0.5861,205.8281
19:23:04:505,-2.2876,1.0002,11.4324,46.5566,-0.4978,0.4277,-0.3257,206.2969
19:23:04:528,-1.7991,0.9056,12.1064,48.4211,-0.3391,0.2415,-0.1115,207.0781
19:23:04:546,-1.2209,0.6375,12.7684,46.2899,-0.1183,-0.0642,0.0222,207.5469
19:23:04:564,-0.7026,0.4495,12.5816,46.7988,0.0907,-0.1414,0.0839,207.75
19:23:04:585,-0.6751,0.5249,12.1531,46.7985,0.1528,-0.1057,0.0666,207.7812
19:23:04:611,-0.9827,0.4878,12.2106,45.2105,0.0316,-0.1678,-0.0034,207.7188
19:23:04:628,-1.1371,0.0772,12.5793,44.8834,-0.1511,-0.3507,-0.0559,207.625
19:23:04:649,-1.2604,-0.5728,12.6738,45.0424,-0.2683,-0.4187,-0.0532,207.5938
19:23:04:665,-1.4137,-1.0576,11.9388,45.8808,-0.2395,-0.3153,0.0318,207.6406
19:23:04:685,-1.44,-1.2384,10.9787,44.3805,-0.1423,-0.13,0.2019,207.7031
19:23:04:712,-1.0318,-1.4144,10.3383,43.7782,-0.0832,0.0365,0.4142,207.7344
19:23:04:731,-0.6786,-1.5365,9.9863,44.8688,-0.0483,0.0189,0.5567,207.6094
19:23:04:748,-0.5613,-1.564,9.9289,43.6214,-0.0137,-0.1374,0.6248,207.2656
19:23:04:764,-0.4165,-1.5592,9.8199,43.5275,0.0385,-0.2701,0.6816,206.7031
19:23:04:785,-0.3698,-1.2803,9.5614,44.384,0.0942,-0.2717,0.7377,206.0156
19:23:04:806,-0.3782,-0.8912,9.2214,42.7427,0.1312,-0.2397,0.7857,205.2812
19:23:04:829,-0.2549,-0.5884,8.8946,42.6912,0.136,-0.2083,0.8262,204.5
19:23:04:854,-0.1411,-0.325,8.3403,43.0465,0.1411,-0.077,0.8587,203.6406
19:23:04:864,-0.1268,0.0126,7.6927,43.9856,0.149,0.1172,0.8802,203.6406
19:23:04:885,-0.0969,0.3346,6.9924,43.9672,0.1626,0.2565,0.9018,201.3125
19:23:04:913,0.0743,0.6518,6.5542,43.4265,0.173,0.282,0.9053,200.2969
19:23:04:930,0.0324,0.8027,6.6823,43.217,0.1743,0.1366,0.8491,199.2656
19:23:04:948,-0.0298,0.8194,7.3264,42.6133,0.1999,-0.1137,0.7769,198.2812
19:23:04:966,0.048,0.7344,8.0662,42.7227,0.2859,-0.3313,0.726,197.3125
19:23:04:986,0.1126,0.6123,8.4301,43.4767,0.401,-0.3854,0.6789,196.4219
19:23:05:010,0.1091,0.6458,8.5175,41.8027,0.4742,-0.2469,0.6382,195.6406
19:23:05:027,0.0971,0.9751,8.7605,42.9368,0.4255,-0.0735,0.5931,194.1719
19:23:05:045,0.0456,1.1869,9.286,41.4146,0.1102,0.1036,0.4152,194.1719
19:23:05:065,-0.0322,1.1642,10.1108,42.9049,-0.044,0.1411,0.2871,192.9375
19:23:05:139,-0.0717,1.0385,11.0266,42.7268,-0.1396,0.0762,0.159,192.9375
19:23:05:139,0.1677,0.6949,11.8849,41.4091,-0.2062,-0.0024,0.0227,192.4531
19:23:05:139,0.4323,0.2424,12.9683,41.4791,-0.2206,0.0117,-0.0791,192.1094
19:23:05:150,0.4706,-0.3466,13.7716,42.1635,-0.0837,0.3252,-0.0865,191.9375
19:23:05:166,0.5304,-0.7536,13.0952,42.7569,0.0878,0.7388,-0.0388,191.9062
19:23:05:183,0.7399,-0.5345,11.017,40.6859,0.0433,0.8746,-0.0668,192
19:23:05:206,1.1134,0.1203,9.3794,41.0587,-0.2899,0.4029,-0.3302,192.0781
19:23:05:227,1.1362,0.2556,10.5633,41.7561,-0.6185,-0.4088,-0.7909,192.0938
19:23:05:246,0.1701,-1.1618,13.7368,41.3788,-0.5705,-0.7744,-1.0697,192.125
19:23:05:265,-0.8953,-3.0113,15.7599,40.2388,-0.2137,-0.3446,-0.8785,192.4688
19:23:05:284,-1.0845,-3.6853,14.5317,41.7112,0.1962,0.4083,-0.351,193.3281
19:23:05:305,-0.3602,-2.6857,11.1272,40.6267,0.3416,0.6543,0.1335,195.1406
19:23:05:330,1.1733,-1.0325,8.4924,41.8763,0.2449,0.4059,0.1766,195.8281
19:23:05:347,2.0101,0.2903,7.2498,41.1737,0.0779,0.0237,-0.147,195.9062
19:23:05:365,1.7766,0.6866,7.1588,40.8595,-0.0472,-0.1896,-0.4878,195.6562
19:23:05:385,1.1326,0.4088,7.1803,41.9542,-0.1069,-0.1222,-0.6748,195.6094
19:23:05:405,0.4395,0.2269,7.0391,42.4237,-0.1175,0.0282,-0.7182,195.9844
19:23:05:426,-0.1519,0.149,6.8643,42.1693,-0.0816,0.122,-0.6593,196.6719
19:23:05:445,-0.4931,0.2053,6.9325,39.5289,0.0055,0.1755,-0.5411,197.4844
19:23:05:469,-0.4356,0.416,7.0139,40.4131,0.1395,0.1382,-0.446,198.2344
19:23:05:484,-0.28,0.6387,7.1013,40.9446,0.2718,0.0802,-0.4247,198.9219
19:23:05:507,-0.2788,0.7979,7.1516,42.8588,0.3669,0.0229,-0.4287,199.4688
19:23:05:531,-0.213,0.8661,7.1492,40.3171,0.369,-0.0405,-0.434,199.9375
19:23:05:549,-0.1364,1.0804,7.6029,41.3559,0.3003,-0.1214,-0.4564,200.4531
19:23:05:566,-0.1064,1.2635,8.8371,40.1389,0.2771,-0.2107,-0.5094,200.9531
19:23:05:585,-0.954,1.1331,10.4987,40.4038,0.3866,-0.3683,-0.4841,201.4688
19:23:05:605,-1.6926,0.6698,12.1687,40.9004,0.6013,-0.3494,-0.2732,202.0156
19:23:05:628,-1.6603,0.4304,12.5278,41.1983,0.6985,-0.0661,0.0091,202.6406
19:23:05:645,-1.3407,1.0313,11.8442,42.9578,0.5075,0.2719,0.211,203.1406
19:23:05:665,-0.8534,1.7029,11.6072,41.8848,0.2031,0.5356,0.2816,203.2969
19:23:05:688,-0.6775,1.7795,12.0968,42.115,0.051,0.6791,0.2461,203.1719
19:23:05:710,-1.0294,1.5712,11.673,43.0532,-0.0454,0.547,0.2427,202.8594
19:23:05:727,-1.6651,1.7592,12.5625,42.6138,-0.2342,0.0357,0.2895,202.6719
19:23:05:744,-1.5094,1.1055,14.8573,43.6308,-0.3658,-0.6488,0.3063,202.3594
19:23:05:769,-1.9248,-0.1095,15.2476,42.838,-0.1455,-0.8991,0.2608,201.875
19:23:05:784,-2.3163,-0.8015,12.7708,44.2204,0.3554,-0.6509,0.3388,201.5312
19:23:05:807,-1.8183,-0.5285,9.462,43.9821,0.6716,-0.0269,0.6123,201.2656
19:23:05:826,-0.8355,0.0198,7.5742,43.4767,0.5576,0.2437,0.8182,201.0156
19:23:05:844,-0.2477,0.4208,7.0798,43.537,0.2239,0.1449,0.7857,200.5312
19:23:05:864,-0.0873,0.4471,7.4485,44.131,-0.0901,-0.1124,0.5947,199.7188
19:23:05:884,-0.043,0.2759,7.7298,44.171,-0.2763,-0.3332,0.3804,198.7656
19:23:05:904,0.1043,0.2771,7.5107,43.9435,-0.374,-0.3236,0.2496,197.9531
19:23:05:928,0.1091,0.337,7.1708,44.5665,-0.4472,-0.1673,0.1516,197.4531
19:23:05:945,-0.0047,0.2999,7.0917,45.2832,-0.5045,-0.0261,0.0592,197.125
19:23:05:964,-0.1926,0.264,7.2653,44.4574,-0.5391,0.0783,0.0179,196.9062
19:23:05:983,-0.6308,0.2185,7.4509,44.5487,-0.5381,0.2029,0.0144,196.7969
19:23:06:005,-1.203,0.1443,7.5634,45.3182,-0.4608,0.2921,0.0736,196.75
19:23:06:029,-1.2353,0.1634,7.4688,46.862,-0.301,0.2325,0.2323,196.7188
19:23:06:046,-0.8881,0.4519,7.2809,45.4639,-0.1175,0.0684,0.4291,196.6562
19:23:06:064,-0.523,0.8517,7.7705,46.7192,-0.0307,-0.1603,0.5449,196.4844
19:23:06:084,-0.2262,1.1522,9.073,46.6306,-0.0411,-0.359,0.5425,196.0938
19:23:06:104,-0.1411,1.096,10.6208,46.9941,-0.0771,-0.3494,0.4363,195.5156
19:23:06:132,-0.5781,0.7201,11.8861,48.2325,-0.0803,-0.1025,0.2866,194.9219
19:23:06:147,-1.1012,0.2209,12.766,48.241,-0.0296,0.2581,0.2059,194.3594
19:23:06:164,-1.1767,-0.167,13.3071,47.7918,0.0899,0.5182,0.2374,193.9688
19:23:06:184,-0.7385,-0.2999,13.1587,47.7917,0.2606,0.6048,0.3393,193.5781
19:23:06:205,-0.0454,-0.3944,12.6319,48.2861,0.4162,0.527,0.4198,193.2812
19:23:06:226,0.6202,-0.6195,12.2285,47.3429,0.474,0.4035,0.4046,192.875
19:23:06:245,1.1003,-0.7189,11.0972,47.2998,0.4457,0.4309,0.3034,192.375
19:23:06:264,0.3245,-0.0616,9.8547,47.6409,0.2689,0.5657,0.0965,191.9375
19:23:06:284,-0.7864,-0.1275,10.7405,48.3016,-0.0989,0.3433,-0.2173,191.5781
19:23:06:307,-1.4927,-1.4275,13.0928,49.0528,-0.4177,-0.2067,-0.494,191.4375
19:23:06:329,-1.9727,-2.7779,14.2755,49.9899,-0.4307,-0.5377,-0.5179,191.6406
19:23:06:344,-1.5298,-2.9658,13.6746,48.0008,-0.2068,-0.5076,-0.1877,192.2031
19:23:06:366,-0.2884,-1.6945,11.6108,49.0723,0.0742,-0.2751,0.3412,192.8125
19:23:06:385,1.1697,0.0616,9.8451,49.6558,0.2039,-0.232,0.7175,193.0312
19:23:06:404,1.9658,1.2133,8.8479,48.1833,0.1717,-0.4176,0.6746,192.6719
19:23:06:431,1.445,1.321,8.0327,50.134,-0.1918,-0.391,-0.1019,191.8594
19:23:06:449,0.8141,0.9188,7.8495,48.0035,-0.4118,-0.0402,-0.2466,191.125
19:23:06:464,0.6418,0.7057,7.9118,50.007,-0.4382,0.302,-0.2524,191
19:23:06:484,0.5544,0.9523,7.6005,48.9777,-0.2893,0.4453,-0.2319,191
19:23:06:506,0.534,1.4599,7.4796,49.4233,-0.0241,0.3968,-0.2623,191.2812
19:23:06:532,0.4825,1.7053,7.4617,48.2725,0.2713,0.2519,-0.3313,191.5312
19:23:06:546,0.528,1.5173,7.1049,48.2058,0.4763,0.1712,-0.3624,191.7656
19:23:06:564,0.5819,1.4383,6.595,48.8244,0.5099,0.168,-0.3446,192.0625
19:23:06:584,0.6382,1.5975,6.5207,50.4312,0.4276,0.1414,-0.343,192.4062
19:23:06:604,0.6884,1.8549,7.1492,50.1863,0.323,0.0328,-0.4029,192.8281
19:23:06:628,0.3988,1.8645,8.5151,49.6581,0.295,-0.0663,-0.4921,193.2344
19:23:06:646,-0.4775,1.4252,10.0546,50.3513,0.3773,-0.0567,-0.4737,193.625
19:23:06:664,-1.2856,0.8098,10.8027,48.7023,0.4537,0.1055,-0.3009,194.3594
19:23:06:684,-1.7908,0.3358,10.8423,49.4453,0.385,0.2716,-0.0378,194.9531
19:23:06:704,-2.0481,0.1706,11.2205,49.2411,0.2447,0.3092,0.2262,195.4375
19:23:06:728,-2.096,0.0257,12.019,49.5197,0.1304,0.2658,0.4512,195.625
19:23:06:749,-2.1259,-0.3142,12.669,50.3207,0.0364,0.3183,0.6717,195.5
19:23:06:764,-1.7632,-0.4004,12.4069,49.7582,-0.1471,0.3443,0.8557,195.0781
19:23:06:783,-1.5046,0.3154,11.9783,50.2945,-0.3956,-0.1164,0.888,194.4531
19:23:06:803,-1.5777,0.6327,13.3933,48.8426,-0.3932,-0.7678,0.8147,193.5312
19:23:06:824,-1.4125,0.0521,14.9723,50.0502,0.0106,-0.9561,0.7761,192.4688
19:23:06:846,-1.1359,-0.5118,13.9571,48.1545,0.4186,-0.5108,0.799,191.5625
19:23:06:865,-0.8822,-0.2688,10.6699,48.824,0.3794,0.0152,0.799,190.7344
19:23:06:884,-0.3159,0.3693,8.0937,49.7945,0.0127,0.1766,0.7143,189.9062
19:23:06:906,0.4442,0.9343,7.4772,49.4878,-0.3356,0.0402,0.5391,189
19:23:06:929,0.965,1.1139,7.7633,48.6266,-0.4936,-0.2192,0.2523,188.1562
19:23:06:945,0.4849,0.9619,8.3511,47.959,-0.5008,-0.4442,0.0355,187.4219
19:23:06:964,-0.1711,0.6267,8.8467,48.5861,-0.4126,-0.4453,0.0072,186.9531
19:23:06:984,-0.4165,0.4794,8.788,47.3143,-0.3037,-0.294,0.0826,186.8438
19:23:07:004,-0.1735,0.7608,8.1608,47.8519,-0.2401,-0.1246,0.1436,186.875
19:23:07:027,0.4706,1.1989,7.4437,48.1786,-0.2608,0.0024,0.0818,186.8594
19:23:07:044,0.8668,1.5928,6.8918,46.7708,-0.3271,0.0639,-0.0993,186.7344
19:23:07:064,0.6322,1.6562,6.747,48.5716,-0.3583,0.0176,-0.2934,186.5938
19:23:07:085,-0.0992,1.3066,6.9014,48.7739,-0.3,-0.0919,-0.348,186.5781
19:23:07:105,-0.3973,1.0313,6.9421,49.121,-0.2025,-0.212,-0.2591,186.8125
19:23:07:129,-0.2106,1.1307,7.2821,46.3681,-0.0965,-0.236,-0.143,187.1875
19:23:07:145,-0.5529,1.1223,7.6364,46.9076,-0.0227,-0.2117,-0.0881,187.3906
19:23:07:218,-1.1264,0.835,8.229,47.4596,-0.0012,-0.2192,-0.0812,187.7969
19:23:07:219,-1.3969,0.507,9.2393,47.5714,-0.0382,-0.2309,-0.017,187.9219
19:23:07:219,-1.2628,0.4447,10.7058,46.8717,-0.1178,-0.1598,0.1417,188.0312
19:23:07:223,-0.7301,0.3741,12.1698,47.8681,-0.1668,-0.0668,0.3029,188.1094
19:23:07:253,-0.3147,-0.1083,13.4292,46.4272,-0.1221,0.0221,0.3524,188.0625
19:23:07:264,-0.0909,-0.7907,14.0924,46.9336,0.0108,0.0954,0.3335,187.8125
19:23:07:284,0.3293,-1.1486,13.5441,45.3715,0.1909,0.2863,0.3859,187.4219
19:23:07:307,0.716,-0.8924,12.171,46.1239,0.2556,0.5614,0.44,187.0312
19:23:07:329,0.2276,-0.2891,11.4408,44.4282,0.0601,0.7353,0.338,186.6406
19:23:07:345,-0.5206,-0.7584,13.1754,45.2778,-0.3301,0.461,0.0594,186.125
19:23:07:364,-0.8606,-2.3493,15.0369,45.0729,-0.4845,-0.1502,-0.2151,185.625
19:23:07:384,-0.5254,-3.4913,15.8246,45.7313,-0.3226,-0.6072,-0.2221,185.3438
19:23:07:405,0.1366,-2.9072,14.9411,44.6859,-0.0374,-0.5326,0.0557,185.4375
19:23:07:429,1.2415,-1.151,13.1263,44.3573,0.1994,-0.1936,0.428,185.7656
19:23:07:446,2.4386,0.1981,10.9668,46.8852,0.3304,0.1025,0.5567,185.9062
19:23:07:464,2.5164,0.9415,8.5402,45.2217,0.3954,0.3252,0.2978,185.6406
19:23:07:484,1.8161,1.0301,6.4357,43.8081,0.3906,0.4991,-0.1065,185.0156
19:23:07:504,1.1505,0.8254,4.9848,45.1316,0.3251,0.5739,-0.3992,184.4688
19:23:07:529,0.6944,0.659,4.2438,45.6706,0.2572,0.5366,-0.5345,184.3594
19:23:07:545,0.1905,0.6913,4.0427,44.4768,0.2082,0.3869,-0.5909,184.6406
19:23:07:563,-0.2225,0.6865,4.591,42.726,0.1802,0.0858,-0.5992,185.1719
19:23:07:586,-0.1459,0.4064,5.6995,43.3089,0.1994,-0.2221,-0.5408,185.75
19:23:07:604,-0.1711,0.5273,6.8332,43.7389,0.258,-0.3742,-0.4399,186.4375
19:23:07:628,0.0672,0.9116,8.0123,42.9355,0.3179,-0.3452,-0.3006,187.1094
19:23:07:645,0.4526,1.2923,8.739,41.686,0.413,-0.2309,-0.2005,187.6719
19:23:07:663,0.5041,1.5233,9.0514,42.9824,0.4417,-0.0128,-0.2242,188.2969
19:23:07:684,0.2084,1.6119,9.5434,42.3742,0.3344,0.2935,-0.2897,188.5469
19:23:07:705,-0.4404,1.473,9.9277,42.2148,0.1866,0.6139,-0.3379,188.7969
19:23:07:728,-1.0054,1.3749,10.1156,41.4515,0.0793,0.8261,-0.3099,189.1094
19:23:07:745,-1.4867,1.4156,10.3874,42.5585,0.0047,0.8144,-0.1904,189.4375
19:23:07:764,-1.7489,1.4299,11.1068,41.5832,-0.0528,0.5864,-0.0204,189.7188
19:23:07:785,-1.4448,1.157,12.1339,41.0987,-0.0747,0.2482,0.1569,189.8594
19:23:07:804,-1.2652,0.6411,12.414,40.0267,-0.084,0.061,0.2959,189.8281
19:23:07:825,-1.2281,0.5573,12.0453,40.7789,-0.4161,0.1433,0.4981,189.625
19:23:07:845,-1.1778,1.0768,12.7038,39.34,-0.6017,-0.0959,0.513,189.2969
19:23:07:864,-1.185,0.9786,14.3294,40.1674,-0.4062,-0.2764,0.4286,189.2969
19:23:07:884,-1.1467,0.2604,14.4252,39.5228,0.0255,-0.0884,0.329,188.8125
19:23:07:904,-1.0916,-0.2472,11.8215,38.8854,0.198,0.1577,0.24,187.6406
19:23:07:929,-0.9971,-0.2304,9.1184,40.3368,-0.0438,0.1398,0.1444,187.1406
19:23:07:947,-0.5063,0.0401,8.296,39.0712,-0.4062,-0.0506,-0.0535,186.7812
19:23:07:963,-0.2214,0.1873,8.7366,40.2897,-0.6334,-0.281,-0.3206,186.5
19:23:07:986,-0.6212,-0.0916,9.4297,38.1492,-0.668,-0.4687,-0.491,186.3281
19:23:08:002,-1.0557,-0.4567,9.8499,40.0048,-0.5684,-0.514,-0.4761,186.375
19:23:08:024,-1.0186,-0.5561,9.7613,38.9041,-0.3878,-0.4176,-0.3637,186.7344
19:23:08:047,-0.7193,-0.3454,9.3184,38.9961,-0.1609,-0.2362,-0.2423,187.2656
19:23:08:067,-0.3854,0.0257,8.5235,38.4926,0.0167,-0.1009,-0.1749,187.8125
19:23:08:083,-0.3782,0.1107,7.5897,39.7261,0.0819,-0.0125,-0.1243,188.2188
19:23:08:103,-0.7852,0.0246,7.0115,41.3958,0.0761,-0.0093,0.0102,188.5
19:23:08:128,-1.0342,-0.0114,7.1731,42.0905,0.0766,-0.0754,0.2128,188.8438
19:23:08:149,-0.8822,0.1574,7.7346,39.6134,0.119,-0.1233,0.37,188.875
19:23:08:163,-0.9839,0.3669,8.3319,40.0975,0.2074,-0.1079,0.4693,188.75
19:23:08:184,-1.6818,0.5501,8.4876,39.1733,0.3307,-0.1859,0.6065,188.4062
19:23:08:203,-2.035,0.6818,8.4062,39.4284,0.4074,-0.3864,0.75,187.6719
19:23:08:230,-1.3909,0.8146,7.3407,38.6835,0.1509,-0.4216,0.7646,187.3438
19:23:08:248,-1.1707,1.3306,7.1049,37.624,-0.4672,-0.4575,0.7393,186.6094
19:23:08:266,-0.9923,1.4539,9.9145,40.1501,-0.8949,-0.5675,0.7255,185.3438
19:23:08:284,-0.1842,1.0038,13.774,37.8152,-0.7785,-0.6506,0.6195,184.9219
19:23:08:303,0.9243,-0.0353,15.1877,39.8918,-0.4499,-0.6187,0.4624,184.1406
19:23:08:323,1.0691,-0.5369,15.0393,39.8884,-0.2257,-0.1856,0.4475,183.3906
19:23:08:346,1.5815,-0.6853,14.4755,40.7469,0.0329,0.5305,0.46,182.7969
19:23:08:363,1.4725,-0.1048,13.3753,37.8644,0.2984,0.9041,0.3415,182.3438
19:23:08:384,1.3983,0.4136,12.0274,39.5967,0.3882,0.6759,0.0349,181.8125
19:23:08:404,1.3504,0.009,11.4947,39.8203,0.3541,0.3036,-0.3816,181.3125
19:23:08:433,0.7375,-1.3138,11.5067,39.3853,0.3403,-0.0274,-0.6303,181.0312
19:23:08:449,-0.0992,-2.6163,11.6012,40.7121,0.336,-0.2573,-0.5355,181.2188
19:23:08:467,-0.7397,-2.8509,11.5198,40.5184,0.3307,-0.318,-0.1922,181.8438
19:23:08:484,-0.6547,-1.9866,11.205,39.1493,0.3373,-0.2352,0.1114,182.5625
19:23:08:504,0.7675,-0.0473,9.5614,39.2506,0.3813,-0.0594,0.1737,182.9844
19:23:08:531,0.9386,0.4316,8.1392,38.4697,0.4516,0.138,0.0642,183.0312
19:23:08:549,0.8836,0.6447,6.6249,41.215,0.4937,0.3268,-0.0974,182.8281
19:23:08:568,0.9243,0.8086,5.3679,39.7089,0.4574,0.461,-0.2551,182.6875
19:23:08:584,0.625,0.8757,4.9238,39.9737,0.3227,0.4639,-0.4141,182.6875
19:23:08:602,-0.0574,0.7775,5.2805,39.3632,0.1568,0.3918,-0.5502,182.8594
19:23:08:622,-0.7277,0.7177,6.1017,39.1233,0.0745,0.3049,-0.5832,183.2031
19:23:08:645,-1.0043,0.8889,6.9948,39.1233,0.0891,0.228,-0.4822,183.7344
19:23:08:664,-1.0234,1.224,8.0039,39.3871,0.1703,0.212,-0.315,184.375
19:23:08:682,-1.0557,1.5509,8.7605,39.4654,0.2718,0.2786,-0.1661,184.9844
19:23:08:703,-1.0713,2.0069,8.9353,40.4461,0.3871,0.4256,-0.0311,185.5625
19:23:08:731,-0.8642,2.4942,9.2381,42.4256,0.4321,0.4724,0.076,185.7344
19:23:08:751,-0.5278,2.7396,9.7757,39.724,0.4119,0.4338,0.1119,185.75
19:23:08:766,-0.6954,2.6594,10.4053,38.665,0.3885,0.3864,0.0509,185.6406
19:23:08:784,-0.9767,2.42,10.9225,39.6216,0.3839,0.3699,-0.0194,185.4844
19:23:08:802,-1.0797,1.8573,11.6431,41.1924,0.4074,0.2948,-0.029,185.4062
19:23:08:823,-1.1192,1.2863,12.3147,39.6397,0.4905,0.1646,0.0318,185.4219
19:23:08:848,-0.5948,1.1043,11.606,40.2129,0.618,0.1936,0.1606,185.4531
19:23:08:867,-0.4404,1.7747,9.784,39.8233,0.5957,0.5286,0.2219,185.4219
19:23:08:883,-0.9719,2.5169,9.7002,40.935,0.2305,0.5974,0.1292,185.2656
19:23:08:904,-1.513,1.5963,12.6786,41.6329,-0.2507,-0.143,-0.0817,184.9844
19:23:08:930,-2.2169,-0.2089,14.3917,41.6961,-0.2861,-0.8639,-0.34,184.7812
19:23:08:946,-2.6754,-1.3485,13.5776,39.6153,0.026,-0.9923,-0.3656,184.8594
19:23:08:963,-2.6946,-1.1845,11.1284,38.9105,0.2359,-0.5675,-0.1118,185.3281
19:23:08:982,-1.7501,-0.4962,9.1484,42.6788,0.1006,-0.1926,0.1985,185.8594
19:23:09:004,-0.863,0.0676,8.2362,40.948,-0.2195,-0.0977,0.289,186.0781
19:23:09:029,-0.6008,0.4232,8.6623,40.5194,-0.5524,-0.2466,0.1841,185.8906
19:23:09:046,-0.2549,0.5046,8.8299,41.0834,-0.7106,-0.3734,0.0608,185.5625
19:23:09:063,-0.3483,0.5992,8.3295,40.5628,-0.6944,-0.3337,-0.0569,185.3594
19:23:09:084,-0.699,0.5142,7.8483,40.0761,-0.6587,-0.155,-0.1328,185.3125
19:23:09:102,-0.8522,0.4747,7.4772,40.4968,-0.602,0.0397,-0.1014,185.3906
19:23:09:125,-0.778,0.6087,7.2019,40.6122,-0.5178,0.2072,0.0043,185.4531
19:23:09:145,-0.6272,0.8446,7.3443,41.4816,-0.3322,0.237,0.1638,185.625
19:23:09:165,-0.5362,0.9834,7.5167,40.8909,-0.1516,0.1513,0.1835,185.5781
19:23:09:188,-0.681,1.0193,7.3587,41.6124,-0.011,0.0493,0.2365,185.2031
19:23:09:202,-0.4297,1.2276,7.4964,40.5696,0.0332,-0.0005,0.2768,185.2031
19:23:09:288,0.1701,1.6538,8.15,40.1297,0.0348,0.0234,0.179,184.9844
19:23:09:289,0.1929,1.8082,9.0837,41.4673,0.0518,0.065,-0.0197,184.7031
19:23:09:289,-0.3542,1.7735,10.1587,42.0237,0.1328,0.0605,-0.1747,184.3906
19:23:09:289,-0.5745,1.7699,11.2756,42.731,0.2862,-0.0503,-0.3257,184.2188
19:23:09:302,-0.5733,1.4611,11.5845,41.789,0.3512,-0.1816,-0.483,184.2188
19:23:09:330,-0.7409,0.9858,12.037,42.0348,0.2657,-0.2059,-0.5757,184.4219
19:23:09:344,-0.8953,0.4974,13.1096,41.178,0.1946,-0.1478,-0.5858,184.8125
19:23:09:363,-0.5733,-0.0413,13.9116,42.2831,0.2175,0.033,-0.5675,185.3594
19:23:09:383,-0.2585,-0.258,13.3538,43.091,0.136,0.3635,-0.5683,186.0469
19:23:09:402,-0.468,0.2544,12.2536,43.509,-0.0957,0.5736,-0.6287,186.7344
19:23:09:423,-1.0905,0.5273,12.1423,44.0954,-0.2448,0.5657,-0.7217,187.3594
19:23:09:446,-1.7991,0.0856,12.5421,42.5143,-0.1775,0.4892,-0.7563,187.9844
19:23:09:463,-2.7029,-0.835,11.8466,44.1025,-0.0773,0.3654,-0.5808,188.6562
19:23:09:483,-3.1459,-1.6574,10.719,42.891,-0.1008,0.1989,-0.1922,189.4219
19:23:09:505,-2.5617,-1.6873,9.9672,43.7113,-0.2401,0.0333,0.2182,190.1875
19:23:09:530,-1.209,-0.7236,9.6488,43.7113,-0.3452,-0.081,0.3945,190.8281
19:23:09:548,0.0229,0.422,9.2106,44.5169,-0.3887,-0.1073,0.2477,191.0156
19:23:09:567,0.4359,1.0445,8.8671,44.1555,-0.3713,-0.0415,-0.0508,190.75
19:23:09:582,0.1617,1.0409,8.6456,44.8875,-0.2648,0.1097,-0.2732,190.2812
19:23:09:604,-0.3722,0.6626,7.9453,44.5921,-0.146,0.2948,-0.3336,189.9844
19:23:09:629,-0.9791,0.501,7.1169,44.6439,-0.0568,0.3941,-0.2631,190
19:23:09:647,-1.288,0.6351,6.6931,43.7335,0.0465,0.327,-0.1446,190.2969
19:23:09:664,-1.2449,0.7763,6.7338,45.8567,0.2071,0.164,-0.0396,190.6562
19:23:09:683,-0.8163,0.9798,7.0929,46.5169,0.3983,0.0354,0.016,190.9062
19:23:09:704,-0.3195,1.2252,7.0594,46.3037,0.5195,-0.0421,-0.0165,191.0625
19:23:09:729,0.0229,1.5209,7.1444,47.2334,0.515,-0.0874,-0.1139,191.125
19:23:09:749,0.3365,1.7639,7.7178,47.553,0.4476,-0.0802,-0.2529,191.1406
19:23:09:763,0.3712,1.9327,8.6336,46.8597,0.3741,0.025,-0.3965,191.2656
19:23:09:784,0.0947,2.1183,9.3734,47.0473,0.3323,0.1502,-0.4937,191.5156
19:23:09:803,-0.541,2.0165,9.6583,48.1424,0.3227,0.1782,-0.4942,191.9375
19:23:09:830,-1.1802,2.0141,9.7302,46.9863,0.2934,0.0674,-0.3645,192.4531
19:23:09:846,-1.2844,2.2104,10.0833,48.185,0.2524,-0.1172,-0.2178,193.0469
19:23:09:862,-1.3131,2.3948,10.8937,47.7374,0.2441,-0.2839,-0.1374,193.5781
19:23:09:882,-1.8111,1.9854,12.0609,48.3832,0.3445,-0.3939,-0.0404,193.9062
19:23:09:904,-1.6375,1.2001,11.4492,50.8046,0.4383,-0.294,0.1079,194.1406
19:23:09:928,-1.6651,1.7041,11.3259,49.9841,0.2175,-0.1614,0.1601,194.3125
19:23:09:947,-2.2552,1.1869,14.0158,51.5817,-0.2041,-0.4549,0.0304,194.3438
19:23:09:963,-3.2009,-0.3585,15.1243,49.8932,-0.2265,-0.7534,-0.1288,194.2188
19:23:09:983,-3.6439,-1.3545,12.7504,49.8871,0.1645,-0.657,-0.0452,194.125
19:23:10:002,-3.7444,-1.1534,9.6679,49.6095,0.4143,-0.4083,0.3005,194.25
19:23:10:022,-3.11,-0.5824,8.5678,49.8641,0.3033,-0.5151,0.688,194.4531
19:23:10:046,-1.853,-0.2077,9.3279,51.0868,0.0361,-0.8384,0.9282,194.4062
19:23:10:065,-0.9695,0.0102,9.9672,51.699,-0.1572,-0.8906,1.0155,193.8906
19:23:10:082,-0.4296,0.2269,9.4656,52.1555,-0.1974,-0.6147,1.0246,193.0781
19:23:10:102,0.0899,0.4782,8.3978,49.7052,-0.2054,-0.2032,1.0006,192.0469
19:23:10:124,0.5939,0.7668,7.3587,51.0287,-0.2328,0.1859,0.9452,190.9531
19:23:10:147,0.9255,1.1438,6.8176,51.8589,-0.248,0.3566,0.8448,189.9062
19:23:10:162,1.0153,1.3952,6.9289,52.6405,-0.2238,0.2791,0.6965,188.7812
19:23:10:184,0.6214,1.2504,7.0798,51.2246,-0.138,0.1249,0.5063,187.7031
19:23:10:203,0.0264,1.078,6.911,51.6758,-0.0158,0.0466,0.3572,186.7812
19:23:10:224,-0.4261,1.0792,7.1827,53.0046,0.0199,0.0759,0.325,185.8438
19:23:10:246,-0.7529,1.254,7.4042,53.4583,0.0015,0.2519,0.3716,185.4219
19:23:10:266,-0.6463,1.6586,7.7705,50.593,-0.0326,0.3955,0.4571,185.0469
19:23:10:282,-0.1938,2.2128,7.9022,53.5016,-0.0656,0.4852,0.5385,184.6094
19:23:10:303,0.2635,2.6306,8.5175,53.3183,-0.1117,0.3963,0.5473,184.0469
19:23:10:322,0.388,3.1777,9.2908,54.9576,-0.1197,0.1598,0.4848,183.375
19:23:10:348,0.3257,3.1657,10.361,54.1185,-0.1282,-0.0333,0.3218,182.7344
19:23:10:363,-0.1208,2.4954,11.7688,53.461,-0.1828,-0.1752,0.068,182.1719
19:23:10:382,-0.6751,1.5269,12.9851,54.5989,-0.2302,-0.168,-0.1275,181.7969
19:23:10:404,-0.6715,0.6434,13.756,54.9912,-0.2515,-0.0975,-0.1739,181.7344
19:23:10:421,0.0695,0.0916,13.8135,54.801,-0.2619,0.0554,-0.1198,181.8906
19:23:10:443,0.1234,0.3238,12.9336,54.1895,-0.2872,0.339,-0.1435,182.0938
19:23:10:462,-0.881,0.6351,13.003,54.0604,-0.4041,0.5348,-0.2857,182.2188
19:23:10:483,-1.6627,-0.1658,14.0661,55.2832,-0.4294,0.3489,-0.4303,182.3438
19:23:10:503,-1.7644,-1.2336,13.8721,56.1138,-0.1665,0.0597,-0.4255,182.6094
19:23:10:523,-1.0701,-1.6574,12.3111,56.5443,0.1309,-0.0131,-0.262,183.0625
19:23:10:547,0.1282,-1.2157,10.7513,55.0861,0.2348,0.0035,-0.0742,183.5156
19:23:10:564,1.0967,-0.3238,9.8547,56.2041,0.1277,-0.033,-0.0197,183.8125
19:23:10:584,1.1613,0.4435,9.5362,55.6441,-0.0616,-0.0663,-0.2058,183.9062
19:23:10:604,0.5041,0.2999,9.3842,56.6799,-0.2065,0.0285,-0.7933,183.9375
19:23:10:621,-0.535,-0.1335,8.7845,57.3022,-0.1583,0.1521,-0.8205,184.1719
19:23:10:643,-1.1659,-0.3777,7.9381,57.0675,-0.0592,0.1883,-0.6657,184.7969
19:23:10:665,-1.379,-0.3262,7.0103,56.8486,0.0553,0.0578,-0.4434,185.6875
19:23:10:681,-1.2197,0.0066,6.3555,55.4763,0.1517,-0.1806,-0.2396,186.5625
19:23:10:701,-0.7517,0.3346,6.1436,56.3716,0.2404,-0.392,-0.1113,187.3125
19:23:10:722,-0.1747,0.6387,6.0778,57.123,0.2977,-0.4879,-0.0473,188.0938
19:23:10:746,0.3569,0.9068,6.3412,56.1371,0.3286,-0.4631,-0.0439,188.3125
19:23:10:763,0.777,1.2049,7.0965,56.3451,0.3991,-0.408,-0.0942,188.3125
19:23:10:782,0.9662,1.5748,7.8004,57.2435,0.4521,-0.2794,-0.2205,188.4062
19:23:10:802,0.4442,1.8406,8.0734,56.5077,0.3927,-0.0775,-0.3368,188.5156
19:23:10:821,-0.4955,1.9483,8.4828,57.4808,0.2662,0.1254,-0.3174,188.7188
19:23:10:845,-1.0653,1.9507,8.8658,56.4458,0.1216,0.2415,-0.1933,189.0781
19:23:10:864,-1.3514,2.0596,9.4776,58.235,0.0122,0.164,-0.0506,189.4688
19:23:10:881,-1.7046,1.8549,10.5729,55.7489,-0.0049,0.017,0.1013,189.75
19:23:10:902,-1.9452,1.3976,11.8179,57.1278,0.0801,-0.074,0.3252,189.8281
19:23:10:922,-1.8099,0.9343,12.8618,55.8095,0.2138,0.0727,0.6073,189.875
19:23:10:951,-1.1946,0.8805,12.9994,58.0392,0.2862,0.4021,0.8006,189.7656
19:23:10:967,-0.4632,1.2935,11.8754,58.2257,0.1602,0.6498,0.7218,189.3906
19:23:10:983,-0.6547,1.9231,10.683,57.4274,-0.1732,0.4328,0.4957,188.7031
19:23:11:001,-1.4424,2.1422,11.7173,56.5628,-0.3719,-0.0642,0.3404,187.7969
19:23:11:021,-1.8195,1.1905,13.7596,57.9601,-0.1564,-0.3827,0.3106,186.9062
19:23:11:044,-1.9272,0.1586,13.8326,57.6265,0.2076,-0.3832,0.4488,186.2969
19:23:11:061,-1.5741,-0.1191,12.025,57.6046,0.3179,-0.2053,0.6342,185.8906
19:23:11:081,-0.523,0.2771,10.2114,57.591,0.1376,-0.1385,0.6597,185.5938
19:23:11:101,0.303,0.987,9.3674,57.591,-0.134,-0.2858,0.4632,185.125
19:23:11:122,0.6394,1.0995,9.6332,57.6753,-0.2941,-0.3894,0.1684,184.4219
19:23:11:145,0.4323,0.7536,9.8918,56.5653,-0.313,-0.3249,-0.0543,183.7188
19:23:11:164,0.0324,0.3454,9.4369,55.8206,-0.28,-0.1196,-0.1275,183.2188
19:23:11:182,-0.1435,0.1203,8.6384,56.7098,-0.256,0.1206,-0.0945,183.0625
19:23:11:200,-0.201,0.2723,7.7705,58.5206,-0.2576,0.2874,-0.0306,183.1406
19:23:11:220,0.0468,0.6159,7.1372,57.3999,-0.2757,0.3188,-0.022,183.2969
19:23:11:247,0.3221,0.9954,6.747,55.5121,-0.2797,0.3723,-0.1006,183.4062
19:23:11:266,0.2575,1.1091,6.4166,57.5041,-0.3247,0.4123,-0.192,183.3906
19:23:11:283,0.042,0.9355,6.5363,56.1534,-0.4158,0.5273,-0.2332,183.4062
19:23:11:352,-0.4332,0.6674,6.9876,55.5619,-0.5556,0.7521,-0.1877,183.5469
19:23:11:352,-0.7373,1.0409,8.2039,55.7352,-0.6744,0.7542,-0.1091,183.75
19:23:11:353,-0.7361,1.2384,9.1783,55.1279,-0.6017,0.5862,-0.1211,183.9219
19:23:11:363,-1.2245,1.0912,9.4704,56.2718,-0.3527,0.3566,-0.3131,184.0156
19:23:11:381,-1.9284,0.7272,9.3686,54.336,-0.1026,0.1007,-0.523,184.0469
19:23:11:401,-2.1571,0.4771,9.6212,55.5034,0.0124,-0.0972,-0.5398,184.2031
19:23:11:422,-1.7812,0.4423,10.4604,54.5985,-0.0281,-0.323,-0.4058,184.6719
19:23:11:449,-1.2269,0.4651,11.7592,55.3764,-0.1508,-0.5622,-0.2721,185.3125
19:23:11:466,-0.693,0.2807,13.768,52.985,-0.2398,-0.8642,-0.2082,185.8438
19:23:11:480,0.0959,-0.161,14.4695,53.652,-0.142,-1.0088,-0.1792,186.25
19:23:11:501,0.8501,-0.155,13.422,53.5177,0.1067,-0.6488,-0.1443,186.5312
19:23:11:522,0.7435,0.5166,12.2608,53.7315,0.27,-0.146,-0.1323,186.7812
19:23:11:547,0.6011,0.5321,11.8969,53.784,0.2236,0.0692,-0.217,187
19:23:11:564,0.2431,-0.7129,12.1998,52.2986,0.0492,-0.0762,-0.4428,187.1719
19:23:11:583,-0.541,-1.6718,12.6511,52.2443,-0.117,-0.1611,-0.642,187.3594
19:23:11:602,-0.7313,-1.8358,12.5984,50.7174,-0.1386,-0.2402,-0.5672,187.7031
19:23:11:622,-0.365,-1.503,11.8538,52.4259,-0.0147,-0.3856,-0.3478,188.3594
19:23:11:647,-0.0681,-0.9403,10.3933,53.197,0.1474,-0.441,-0.1704,189.0938
19:23:11:664,-0.0621,-0.2221,8.9832,51.5585,0.2175,-0.4679,-0.0782,189.6094
19:23:11:682,0.0289,0.2101,8.0997,51.3463,0.1586,-0.5193,-0.0687,189.9062
19:23:11:701,0.1521,0.3657,7.488,51.7607,0.0654,-0.506,-0.103,190.0625
19:23:11:722,0.2575,0.5429,7.324,50.8136,0.0231,-0.4863,-0.1382,190.1719
19:23:11:747,0.4119,0.659,7.4868,52.6908,0.0329,-0.5241,-0.1837,190.2812
19:23:11:763,0.4203,0.6135,7.573,51.7128,0.0838,-0.4783,-0.2673,190.5469
19:23:11:783,0.3066,0.4914,7.6197,51.1042,0.1781,-0.3223,-0.3382,190.7656
19:23:11:804,0.2539,0.5297,7.5323,50.9951,0.3341,-0.0599,-0.3177,191.0938
19:23:11:820,0.1869,0.8111,7.2115,50.7142,0.5168,0.2778,-0.2034,191.5
19:23:11:843,0.0336,1.0493,7.0343,51.4057,0.6708,0.5302,-0.0239,191.8594
19:23:11:864,-0.3159,1.2863,6.8655,52.1719,0.7245,0.6346,0.1713,192.0469
19:23:11:884,-0.6391,1.564,7.0977,51.0192,0.6367,0.5832,0.3825,192.0312
19:23:11:901,-0.4548,1.4934,7.4844,50.5924,0.5171,0.5255,0.5846,191.7812
19:23:11:925,-0.0394,1.4922,8.241,51.1529,0.4588,0.3015,0.6834,191.3125
19:23:11:945,0.2778,1.7915,9.0538,51.2605,0.3951,-0.021,0.685,190.6094
19:23:11:963,0.3832,1.8837,11.0123,50.6862,0.2108,-0.4195,0.6555,189.7969
19:23:11:981,0.9183,1.3198,13.7225,52.6753,-0.0142,-0.7284,0.5138,189.0469
19:23:12:002,1.6569,0.7332,15.0285,51.0167,0.03,-0.2735,0.4089,189.0469
19:23:12:021,1.7646,0.7799,14.5341,50.2048,-0.1106,0.1302,0.2698,188.3438
19:23:12:047,1.0715,1.2588,14.0948,51.351,-0.3665,0.2288,0.1045,187.2344
19:23:12:065,0.6166,1.0146,14.6215,51.8938,-0.4433,0.2274,-0.0884,186.8281
19:23:12:080,-0.0035,0.1993,14.6754,51.1597,-0.2752,0.3467,-0.1888,186.3594
19:23:12:100,-0.6212,-0.4507,13.349,51.703,-0.0435,0.6072,-0.1147,186.3594
19:23:12:120,-0.7529,-0.586,11.3391,52.5693,0.0684,0.6682,-0.0031,186.4531
19:23:12:143,-0.705,-0.2532,9.6595,51.0672,0.0034,0.4229,0.0318,186.625
19:23:12:164,-0.2992,0.1526,8.9473,50.1962,-0.1546,0.1342,-0.0729,186.7188
19:23:12:180,-0.1064,0.3011,8.8958,50.6337,-0.293,-0.0226,-0.2529,186.6562
19:23:12:200,-0.3889,0.1227,9.1268,50.9069,-0.3311,-0.0117,-0.3595,186.5781
19:23:12:222,-0.7864,-0.3047,9.0406,51.1999,-0.2709,0.1558,-0.3177,186.7656
19:23:12:246,-1.0462,-0.5094,8.3415,52.4736,-0.1852,0.3449,-0.1571,187.125
19:23:12:263,-1.0019,-0.3669,7.3228,50.667,-0.1167,0.4296,0.0358,187.5312
19:23:12:281,-0.6547,-0.0329,6.5662,50.9974,-0.0518,0.416,0.1894,187.7812
19:23:12:303,-0.0574,0.3849,5.9102,50.3516,-0.0004,0.3566,0.2608,187.8125
19:23:12:322,0.4957,0.9164,5.4242,50.9974,0.0007,0.1814,0.2267,187.6562
19:23:12:349,0.9877,1.4287,5.4757,50.93,-0.0361,-0.0764,0.0754,187.3438
19:23:12:364,1.0596,1.6742,6.2059,51.8542,-0.0779,-0.3891,-0.1446,187.0312
19:23:12:381,0.4742,1.5892,7.6891,50.5226,-0.0307,-0.6898,-0.3097,186.8438
19:23:12:400,-0.0514,1.2851,9.0634,50.1948,0.0689,-0.8445,-0.3872,186.9062
19:23:12:421,-0.3267,1.2827,9.9995,51.9849,0.128,-0.7609,-0.3922,187.2188
19:23:12:447,-0.2609,1.4503,10.5442,51.5483,0.1184,-0.4445,-0.3518,187.6562
19:23:12:463,0.0348,1.7867,10.5945,51.7345,0.0132,-0.0863,-0.3517,188.1875
19:23:12:480,0.1078,2.0464,10.5705,52.1269,-0.1876,0.0301,-0.4399,188.6562
19:23:12:500,0.1162,1.8537,11.1763,52.5072,-0.3871,-0.1545,-0.5688,189.0625
19:23:12:522,0.2383,1.1714,12.4404,51.7455,-0.4757,-0.3971,-0.6468,189.4844
19:23:12:549,0.7052,0.2388,13.8566,52.8571,-0.39,-0.5566,-0.6567,190.0781
19:23:12:564,1.1924,-0.5992,14.6048,52.6929,-0.1303,-0.3151,-0.6266,190.7969
19:23:12:582,0.7794,-0.8757,14.2037,53.3572,0.1405,0.1337,-0.5233,191.5469
19:23:12:600,-0.3973,-0.2843,13.3837,52.8478,0.2484,0.1007,-0.3406,192.3281
19:23:12:621,-0.8786,-0.1395,12.7469,51.5248,0.2079,-0.3417,-0.1872,193
19:23:12:648,-0.0095,-0.7691,12.7876,51.7455,0.2172,-0.6322,-0.0937,193.4688
19:23:12:665,1.0236,-0.9056,12.7887,51.1896,0.3645,-0.7689,-0.0309,193.7656
19:23:12:682,2.7175,0.076,11.4384,53.3414,0.5685,-0.771,-0.0641,193.9531
19:23:12:705,2.6589,0.3226,10.1288,52.8705,0.7208,-0.6519,-0.2897,194.0625
19:23:12:732,2.0531,0.2568,8.7545,52.3613,0.7592,-0.5225,-0.6364,194.125
19:23:12:747,1.3325,-0.0437,7.5658,53.339,0.7003,-0.4775,-0.9344,194.5625
19:23:12:765,0.7699,-0.2508,6.5926,50.7541,0.5863,-0.4794,-1.0583,194.875
19:23:12:783,0.4071,-0.0138,5.9521,52.092,0.4218,-0.5073,-0.9909,195.7656
19:23:12:800,0.3736,0.5453,5.903,51.9659,0.2087,-0.5353,-0.7923,196.9375
19:23:12:820,0.892,0.9116,6.2873,51.0158,-0.0246,-0.7036,-0.6024,198.1719
19:23:12:839,1.4582,0.9236,6.8272,52.5206,-0.2046,-0.8701,-0.4886,199.1875
19:23:12:864,1.9693,0.9631,7.1504,51.5136,-0.2832,-0.7569,-0.4261,200.0469
19:23:12:880,2.3632,1.2599,7.1552,51.4226,-0.3074,-0.2602,-0.4458,200.7812
19:23:12:900,2.2363,1.6682,6.984,52.287,-0.3732,0.3851,-0.5768,201.4219
19:23:12:921,2.3129,1.8046,6.996,52.5582,-0.5135,0.8754,-0.7012,201.9688
19:23:12:943,1.7587,2.0548,7.6316,51.3256,-0.6731,0.9739,-0.8386,202.5625
19:23:12:965,1.2451,1.8717,8.326,52.507,-0.7666,0.8261,-0.9765,203.2656
19:23:12:981,1.1314,1.5892,8.8395,51.8349,-0.7924,0.6272,-1.0748,204.0312
19:23:13:000,1.0811,1.3031,9.4536,52.691,-0.802,0.4802,-1.1294,205.0312
19:23:13:020,1.0368,1.2372,10.5945,50.2334,-0.8201,0.3987,-1.131,206.1719
19:23:13:041,1.4893,0.7823,11.8957,50.7424,-0.7809,0.225,-1.0817,207.3594
19:23:13:064,2.5499,-0.07,13.0413,50.2286,-0.6696,-0.0879,-1.0468,208.6562
19:23:13:084,3.9146,-0.7296,13.4364,50.6772,-0.4824,-0.4613,-1.0942,209.9219
19:23:13:100,5.0962,-0.7667,13.2221,51.6366,-0.2544,-0.8269,-1.2388,211.1562
19:23:13:121,5.7989,-0.5525,13.9727,51.4956,-0.1154,-0.82,-1.5688,212.3281
19:23:13:142,5.5008,-1.479,15.1327,50.7852,-0.0725,-0.3225,-2.1308,213.6875
19:23:13:163,4.3025,-2.4966,14.922,51.3358,0.017,0.2751,-2.662,215.3125
19:23:13:180,3.1461,-2.6115,13.0725,49.9837,0.2015,0.914,-2.9012,218.6406
19:23:13:200,2.7391,-2.1805,10.6495,51.6813,0.4127,1.6586,-2.8703,221.6875
19:23:13:220,2.4195,-1.552,9.3603,50.4692,0.5831,2.3731,-2.7563,224.9531
19:23:13:240,1.9753,-1.0923,9.4824,50.5523,0.7238,2.9612,-2.6607,227.9688
19:23:13:265,1.1062,-0.7548,9.5063,50.3773,0.891,3.3566,-2.6298,230.9844
19:23:13:281,-0.3099,-0.0928,7.6029,49.8524,1.03,3.2048,-2.6091,233.8594
19:23:13:300,-0.5374,-0.7069,7.1552,50.4623,0.8923,1.3457,-2.5547,236.5469
19:23:13:321,0.704,-1.1774,7.2139,50.9952,0.7349,0.1329,-2.6096,236.5469
19:23:13:341,0.5544,-1.0133,7.2964,49.4154,0.5911,0.0993,-2.8671,245.4531
19:23:13:364,-1.7189,-0.3466,7.7932,49.332,0.6066,0.2224,-2.9574,248.6562
19:23:13:418,-5.2863,0.507,8.0375,49.9018,0.8044,-0.2709,-2.2615,248.6562
19:23:13:419,-3.6175,0.3035,7.9177,48.9047,0.9389,-0.093,-1.5768,252.2344
19:23:13:431,-2.8191,0.4088,7.6819,48.9523,0.9472,0.2067,-1.1241,255.7344
19:23:13:448,-2.029,0.6339,6.9648,48.9765,0.8183,0.0413,-0.9853,258.3438
19:23:13:464,-1.4723,0.9751,6.4776,49.0124,0.5794,-0.3736,-1.086,260.3438
19:23:13:479,-1.8171,1.3102,6.5088,47.4929,0.3046,-0.469,-1.1736,261.8125
19:23:13:500,-2.861,1.4563,6.6524,48.3936,0.0425,-0.3526,-1.135,263.0312
19:23:13:520,-3.4619,1.3557,7.5383,49.2191,-0.0981,-0.4772,-0.9954,264.4375
19:23:13:540,-3.0729,1.309,8.8862,49.2191,-0.0329,-0.5491,-0.9355,265.875
19:23:13:564,-3.2907,1.5616,9.5853,48.2708,0.164,-0.4818,-0.8359,267.2188
19:23:13:582,-2.9603,1.7627,9.8678,47.5196,0.3981,-0.6061,-0.7867,268.3281
19:23:13:600,-2.3594,1.8202,10.0246,49.2817,0.4561,-0.8477,-0.7832,269.4375
19:23:13:620,-1.7704,1.8896,10.6459,48.4511,0.3035,-0.8943,-0.7872,270.4531
19:23:13:640,-1.0617,2.0512,11.4085,47.5353,0.0497,-0.6322,-0.7821,271.4219
19:23:13:662,-0.2357,2.0201,12.2896,46.7213,-0.138,-0.0557,-0.7475,272.4688
19:23:13:680,0.443,1.9914,12.262,45.6352,-0.1287,0.3342,-0.8311,273.4844
19:23:13:700,0.3461,2.0955,12.1519,45.4968,0.0588,0.0865,-1.0663,274.4062
19:23:13:722,-0.0717,1.5556,12.7409,46.1297,0.2377,-0.7723,-1.4218,275.2344
19:23:13:745,-0.4081,0.5788,13.926,47.2512,0.185,-1.3034,-1.5321,276.7031
19:23:13:764,0.0767,-0.0054,14.9363,45.3855,0.0481,-0.6828,-1.3134,278.0938
19:23:13:781,0.6406,0.4292,14.1451,45.9688,0.0998,0.0882,-0.8673,279.9688
19:23:13:800,0.9745,1.2013,11.8897,44.4836,0.2915,0.6458,-0.523,281.7031
19:23:13:821,0.7316,1.7879,10.0127,45.9942,0.5259,0.6711,-0.5001,282.9375
19:23:13:847,0.5388,1.8465,8.964,45.5066,0.7134,0.1678,-0.7608,283.7031
19:23:13:863,0.8453,1.3641,8.132,43.3152,0.7245,-0.5848,-1.1454,284.25
19:23:13:882,0.4849,0.9571,7.5862,45.534,0.4979,-1.1153,-1.352,285.0156
19:23:13:900,-0.5362,0.9691,7.5023,43.3786,0.1733,-1.0333,-1.2828,286.1875
19:23:13:920,-0.8606,1.0624,7.1875,43.5558,-0.0907,-0.7225,-1.0807,287.8281
19:23:13:943,-0.6786,1.248,7.0882,44.3146,-0.2115,-0.6322,-0.8807,289.5
19:23:13:964,-0.456,1.6526,7.3312,42.6744,-0.2123,-0.6767,-0.7848,290.8594
19:23:13:982,-0.1184,1.7364,7.4054,43.0513,-0.1809,-0.5875,-0.7552,292
19:23:14:000,0.3126,1.4742,7.5454,43.0419,-0.1511,-0.4804,-0.797,292.9531
19:23:14:021,0.4849,1.2228,7.7118,41.7282,-0.15,-0.4554,-0.9113,293.7969
19:23:14:048,-0.0813,1.0529,8.0973,42.263,-0.1817,-0.433,-0.9832,294.6875
19:23:14:063,-1.0689,0.9966,8.8407,41.9835,-0.2017,-0.4405,-0.8988,295.6719
19:23:14:079,-1.8901,0.9583,10.0917,42.6719,-0.1628,-0.3068,-0.6668,296.7812
19:23:14:103,-1.8554,1.0696,10.1683,40.3035,-0.0781,0.0517,-0.3968,297.8281
19:23:14:120,-1.7441,1.2109,9.9516,41.6182,-0.0025,0.4514,-0.1928,298.7344
19:23:14:139,-1.8015,1.3857,9.7038,41.7693,-0.0123,0.7699,-0.0609,299.3438
19:23:14:166,-1.9991,1.5125,9.6631,41.5816,-0.0835,0.8365,-0.0071,299.6406
19:23:14:184,-2.187,1.6873,9.8618,39.9597,-0.154,0.5414,0.0152,299.75
19:23:14:203,-2.2612,1.5389,10.0845,40.8209,-0.2273,0.2408,0.0906,299.7344
19:23:14:218,-2.0086,1.1941,10.446,40.6311,-0.3663,0.1872,0.269,299.6719
19:23:14:239,-1.6112,0.8972,10.8004,40.9347,-0.5428,0.1979,0.4773,299.5312
19:23:14:261,-1.4831,0.659,11.2253,40.2034,-0.7178,0.2202,0.5974,299.1719
19:23:14:280,-1.5465,-0.0102,12.6642,39.7672,-0.8425,0.1814,0.6062,298.5781
19:23:14:299,-1.8518,-0.8661,13.9966,39.9344,-0.827,-0.3766,0.5532,297.8125
19:23:14:319,-1.8362,-1.5054,14.187,38.6332,-0.6515,-1.0591,0.5827,297
19:23:14:340,-0.8786,-1.8801,13.2592,40.4802,-0.4313,-1.0469,0.8243,296.2656
19:23:14:363,0.0827,-1.7915,12.116,39.5058,-0.252,-0.5657,1.0965,295.5469
19:23:14:382,0.5903,-1.4563,11.3522,38.6802,-0.1199,0.0306,1.2214,294.5625
19:23:14:404,0.8429,-1.0648,10.7788,39.0548,-0.0203,0.5372,1.1806,293.9375
19:23:14:420,0.3461,-0.4794,9.9516,40.0915,0.0947,0.6642,0.9995,292.5625
19:23:14:444,-0.3638,0.1275,8.9832,39.3025,0.2106,0.6772,0.7841,291.2344
19:23:14:465,-0.4141,0.1443,7.9668,35.8412,0.308,0.833,0.6416,289.9844
19:23:14:483,-0.6248,0.2795,7.0941,37.1822,0.3858,0.8155,0.5314,288.9844
19:23:14:500,-0.7601,0.5058,6.48,36.481,0.4428,0.7167,0.4613,288.25
19:23:14:519,-0.8055,0.8003,6.1532,35.674,0.4785,0.5925,0.4397,287.6094
19:23:14:541,-0.62,0.9008,6.0646,35.9547,0.4998,0.4535,0.412,287.1094
19:23:14:563,-0.5733,0.8434,6.243,36.3832,0.491,0.2684,0.2863,286.6719
19:23:14:582,-0.9181,0.8146,6.6177,34.6973,0.4415,0.0423,0.0871,286.2344
19:23:14:600,-1.4053,0.8074,7.0343,34.8755,0.3424,-0.0778,-0.0287,285.875
19:23:14:620,-1.5382,0.8374,7.4976,35.9785,0.1994,-0.0852,-0.0242,285.7344
19:23:14:644,-1.6244,0.9092,8.2122,34.6357,0.0186,-0.0455,0.0341,285.7812
19:23:14:665,-1.7034,1.0337,9.3626,33.4663,-0.1689,0.0309,0.1263,285.8906
19:23:14:682,-1.9176,1.2216,10.3491,33.7087,-0.2763,0.1656,0.2195,285.8594
19:23:14:699,-2.0984,1.3521,11.0841,34.502,-0.2757,0.3241,0.293,285.6875
19:23:14:723,-2.0038,1.3916,11.5521,34.3924,-0.1916,0.4016,0.317,285.3906
19:23:14:739,-1.8159,1.2576,11.8526,33.2142,-0.0723,0.3579,0.248,285
19:23:14:761,-1.9679,1.0313,11.8897,32.4359,0.1264,0.0242,0.0158,284.6094
19:23:14:780,-1.7991,0.7859,11.7281,31.7261,0.1552,-0.0762,0.0278,284.2969
19:23:14:799,-1.3371,0.7141,11.2421,31.3406,0.0857,-0.008,0.0331,284.1719
19:23:14:826,-1.7453,0.9822,10.6998,32.6978,-0.0741,-0.0698,0.011,284.1719
19:23:14:838,-2.2301,1.1582,10.9165,32.5407,-0.2081,-0.4211,-0.0601,284.1719
19:23:14:860,-2.1547,0.7823,12.0202,31.6543,-0.1961,-0.73,-0.1715,284.1562
19:23:14:880,-1.7429,0.167,12.7684,32.7227,-0.0712,-0.7819,-0.2372,284.125
19:23:14:899,-0.9121,-0.1981,12.7445,31.4811,0.0335,-0.6623,-0.2482,284.1875
19:23:14:918,0.0133,-0.2508,11.7868,32.2314,0.017,-0.5808,-0.3179,284.375
19:23:14:939,0.5256,-0.0401,10.5717,31.998,-0.1263,-0.5558,-0.5302,284.6719
19:23:14:959,0.5879,0.0652,9.4081,30.6641,-0.3559,-0.5686,-0.8431,284.9688
19:23:14:983,0.0672,-0.2592,8.7042,31.4147,-0.5956,-0.5342,-1.0849,285.3594
19:23:15:004,-0.8115,-0.726,8.3499,31.1349,-0.7458,-0.4301,-1.0812,285.9688
19:23:15:019,-1.5789,-1.0756,8.3068,30.9901,-0.7556,-0.237,-0.8247,286.8594
19:23:15:039,-1.9368,-1.1151,8.3499,29.7105,-0.5929,-0.0586,-0.4332,288.0469
19:23:15:065,-1.8542,-0.7512,8.1272,31.6027,-0.3205,0.0301,-0.0404,290.0625
19:23:15:081,-1.1431,-0.0569,8.1153,29.929,0.0412,0.1401,0.195,290.3125
19:23:15:099,-0.3889,0.4974,7.901,31.0801,0.4372,0.2847,0.2163,290.5156
19:23:15:119,0.2515,0.9391,7.2809,32.0112,0.7315,0.3992,0.0552,290.3906
19:23:15:139,0.2276,1.181,6.3256,31.8622,0.7698,0.3284,-0.1254,290.1562
19:23:15:165,-0.5685,1.2863,6.2298,32.8396,0.5629,0.0991,-0.1549,290.0625
19:23:15:183,-1.2868,1.2384,7.148,31.2026,0.3293,-0.1159,-0.0575,290.2031
19:23:15:204,-1.6878,0.9762,8.703,31.9798,0.2321,-0.2685,0.0509,290.4688
19:23:15:223,-1.762,0.8206,10.2545,32.2495,0.2449,-0.1547,0.1271,290.6406
19:23:15:238,-1.8183,0.6794,11.3199,32.204,0.275,0.1952,0.1902,290.6875
19:23:15:260,-2.0278,0.7081,11.9101,33.0205,0.283,0.592,0.269,290.6094
19:23:15:283,-2.1128,0.653,11.8921,33.7594,0.2676,0.8472,0.3742,290.4688
19:23:15:300,-1.9488,0.6554,11.4695,33.513,0.2439,0.8783,0.4605,290.2344
19:23:15:319,-1.203,0.5381,11.0972,33.8165,0.2052,0.7081,0.4312,289.875
19:23:15:342,-0.6655,0.7105,10.7716,35.0677,0.0942,0.2301,0.252,289.4219
19:23:15:367,-1.027,1.0146,11.0841,35.3529,-0.1245,-0.4988,0.0059,288.875
19:23:15:381,-2.0529,0.428,12.2991,34.3305,-0.3197,-0.9862,-0.1616,288.4688
19:23:15:400,-3.1327,-0.9691,13.4555,34.6731,-0.3346,-0.943,-0.0742,288.3281
19:23:15:485,-3.5517,-1.971,13.1431,35.3197,-0.2206,-0.3406,0.2664,288.4375
19:23:15:485,-3.323,-1.7304,11.3905,33.8163,-0.1226,0.1848,0.6453,288.625
19:23:15:485,-1.5166,-0.5273,8.1859,35.1659,-0.1258,0.1281,0.8041,288.5312
19:23:15:486,-1.1323,-0.416,8.0698,36.421,-0.2094,-0.3563,0.7841,288
19:23:15:504,-0.9911,-0.5321,8.63,37.2451,-0.292,-0.8402,0.7455,287.5781
19:23:15:519,-0.9492,-0.6578,9.1807,37.2463,-0.3064,-1.0762,0.7713,286.1719
19:23:15:539,-0.8498,-0.6123,9.1915,37.521,-0.2496,-0.9382,0.8573,285.3281
19:23:15:563,-0.5158,-0.2316,8.6935,35.2006,-0.1644,-0.5987,0.9726,284.4688
19:23:15:579,-0.0466,0.2233,8.0255,37.7734,-0.0901,-0.278,1.0427,283.5625
19:23:15:598,0.218,0.5561,7.4844,37.4721,-0.0355,-0.1063,1.0083,282.5156
19:23:15:618,0.3485,0.7189,7.1121,40.0221,0.0018,-0.0272,0.9039,281.4219
19:23:15:639,0.3257,0.7548,6.8643,38.9045,0.0199,0.0157,0.7617,280.2344
19:23:15:667,0.2491,0.8111,6.8523,37.6318,-0.003,-0.0048,0.624,279.125
19:23:15:684,0.2312,0.8278,7.2115,39.1672,-0.064,-0.0469,0.5052,278.2188
19:23:15:702,0.1462,1.0433,7.8878,38.9501,-0.1266,-0.0906,0.3969,277.4219
19:23:15:719,0.3592,1.4706,8.9341,40.2977,-0.15,-0.179,0.2989,276.7812
19:23:15:739,0.6046,2.1123,10.4532,40.005,-0.093,-0.3223,0.1734,276.2812
19:23:15:765,0.3544,2.0931,11.8287,40.718,0.1288,-0.5997,-0.0002,275.875
19:23:15:784,0.1294,1.2851,12.4308,42.2248,0.4915,-0.8101,-0.2612,275.6094
19:23:15:800,-0.377,0.4184,12.7109,39.6497,0.7648,-0.9127,-0.5467,275.5156
19:23:15:818,0.0133,-0.1131,12.8115,41.1813,0.6891,-0.5867,-0.596,275.6875
19:23:15:839,0.6465,-0.1143,12.6631,42.2521,0.2902,0.0373,-0.4982,276.2344
19:23:15:866,1.2068,-0.0138,12.523,43.2191,-0.191,0.5795,-0.3976,277
19:23:15:882,1.2714,0.155,12.523,44.1168,-0.5082,0.8117,-0.3893,277.6406
19:23:15:900,0.1749,0.331,12.62,42.6123,-0.5708,0.7356,-0.5043,278.125
19:23:15:919,-1.0545,-0.0102,13.2879,44.8473,-0.4635,0.3526,-0.609,278.5
19:23:15:940,-1.4771,-0.9032,13.7488,44.7462,-0.2499,-0.0253,-0.5509,279.1875
19:23:15:967,-0.8187,-1.4694,13.4436,44.5594,-0.0121,-0.1009,-0.2961,279.8281
19:23:15:984,0.5077,-1.1402,12.4847,44.7223,0.2273,0.0197,0.0483,280.4531
19:23:16:003,1.7599,-0.1,11.2732,44.7223,0.4164,0.1039,0.2698,280.7812
19:23:16:019,2.1657,0.8661,9.9947,44.1203,0.425,0.1715,0.1657,280.7344
19:23:16:039,1.5911,1.0732,8.8946,43.6924,0.2225,0.2953,-0.233,280.4531
19:23:16:066,0.4442,0.6842,8.2194,44.6713,-0.0779,0.4852,-0.6753,280.2812
19:23:16:081,-0.5542,0.3238,7.5766,44.9849,-0.3112,0.6879,-0.9033,280.5469
19:23:16:100,-0.7469,0.3669,6.9936,45.2692,-0.3743,0.8269,-0.8753,280.5469
19:23:16:119,-0.62,0.6925,7.1492,46.8789,-0.2704,0.7153,-0.7126,282.2656
19:23:16:139,-0.6224,0.7009,7.2665,47.6374,0.0367,0.4147,-0.5214,283.1406
19:23:16:167,-0.8235,0.3909,6.5052,45.9245,0.7866,-0.0341,-0.2751,283.9062
19:23:16:183,-1.2808,0.2053,5.6085,46.5979,0.87,-0.273,-0.0476,284.5
19:23:16:199,-0.9959,0.5549,5.2135,46.9222,0.7395,-0.4669,0.2067,284.9688
19:23:16:224,0.036,1.3976,5.909,48.6746,0.5363,-0.5406,0.2845,285.375
19:23:16:238,1.0524,2.1925,7.2019,47.4228,0.3525,-0.4565,0.0922,285.5312
19:23:16:259,1.2451,2.4906,8.6348,46.8915,0.2281,-0.2112,-0.2953,285.4062
19:23:16:280,0.5137,2.3326,9.4093,47.3522,0.1064,0.1198,-0.6191,285.1875
19:23:16:298,-0.5817,1.9112,9.5123,48.6172,-0.0779,0.4871,-0.7025,285.1406
19:23:16:318,-1.5477,1.4419,9.2669,47.8872,-0.3013,0.754,-0.5411,285.5156
19:23:16:338,-2.2696,1.321,9.2381,48.2781,-0.4435,0.6962,-0.2034,286.9531
19:23:16:359,-2.4408,1.2468,9.9899,48.7609,-0.3942,0.363,0.1212,287.4844
19:23:16:384,-1.7584,1.078,11.0889,48.2705,-0.1823,0.09,0.2645,287.6094
19:23:16:398,-0.9683,0.9691,11.6802,50.1624,0.0348,0.0589,0.2099,287.5469
19:23:16:418,-0.9803,1.1139,11.4803,49.3319,0.0508,-0.1209,0.0725,287.25
19:23:16:440,-1.4687,1.2815,11.9699,51.3741,-0.1159,-0.6472,-0.0527,286.9375
19:23:16:462,-2.5378,0.6782,13.4579,50.4433,-0.284,-1.0171,-0.1043,286.7812
19:23:16:485,-3.153,-0.5704,14.8166,49.0798,-0.2712,-0.702,0.0363,286.7969
19:23:16:500,-2.8993,-1.3198,14.0289,50.7779,-0.1886,0.0591,0.3063,286.9375
19:23:16:518,-2.4528,-1.1774,11.7964,50.2795,-0.1719,0.4187,0.5436,287.0312
19:23:16:539,-1.7967,-0.6913,9.9696,51.1887,-0.2195,0.1465,0.6562,286.8281
19:23:16:559,-0.8762,-0.4004,9.3818,50.6292,-0.2592,-0.2674,0.6349,286.2969
19:23:16:581,-0.3135,-0.1622,9.4201,49.5542,-0.247,-0.5252,0.566,285.5469
19:23:16:599,-0.1388,-0.0892,9.6236,50.1814,-0.1953,-0.5108,0.4978,284.8281
19:23:16:622,-0.0801,-0.0437,9.3183,50.1899,-0.1349,-0.3135,0.4555,284.1406
19:23:16:637,-0.0789,0.0952,8.5354,51.3807,-0.0685,-0.1164,0.4586,283.5312
19:23:16:660,0.0229,0.2544,7.6352,49.701,0.0031,-0.0724,0.4794,283.25
19:23:16:682,0.0193,0.4352,7.0211,50.0765,0.0819,-0.1646,0.5002,282.7656
19:23:16:699,0.1486,0.6817,6.8703,49.7639,0.1762,-0.3689,0.489,282.2344
19:23:16:718,0.2407,0.7799,7.3048,49.4362,0.2846,-0.5212,0.4179,281.6875
19:23:16:739,0.1234,0.6937,7.9572,48.8234,0.373,-0.5332,0.3135,281.1562
19:23:16:758,-0.3028,0.6004,8.5618,50.2506,0.385,-0.326,0.2464,280.625
19:23:16:778,-0.6631,0.756,8.9042,48.6789,0.311,0.0354,0.236,280.1875
19:23:16:801,-0.4895,1.2061,9.0765,51.7329,0.1709,0.4128,0.1881,279.9062
19:23:16:819,-0.0274,1.7556,8.8671,49.7946,-0.0406,0.682,0.04,279.5312
19:23:16:840,0.121,2.3098,8.7916,49.6674,-0.2608,0.6756,-0.1898,279.2656
19:23:16:866,0.1497,1.5928,10.6974,49.6588,-0.4209,0.4815,-0.4628,279.1094
19:23:16:883,-0.3183,0.4495,12.2345,49.2815,-0.4827,0.3169,-0.6815,279.125
19:23:16:899,-0.9073,-0.5776,13.258,49.7111,-0.4451,0.2999,-0.7201,279.4375
19:23:16:917,-0.8498,-0.8457,13.015,51.7096,-0.3109,0.4373,-0.5318,280.0469
19:23:16:939,-0.0154,-0.6865,11.9041,49.9477,-0.1317,0.641,-0.2356,280.7969
19:23:16:958,0.4012,-0.2735,10.4688,49.2837,-0.0512,0.8602,-0.0908,281.4844
19:23:16:984,-0.1292,-0.2388,10.1827,48.7717,-0.1844,0.7047,-0.225,281.875
19:23:16:999,-1.2652,-1.2516,11.126,50.9921,-0.4361,0.2218,-0.4996,281.9844
19:23:17:024,-1.6435,-2.3289,12.3255,49.3605,-0.5647,-0.2413,-0.5765,282.0781
19:23:17:038,-0.371,-2.4116,12.5613,49.1376,-0.4318,-0.493,-0.2569,282.4531
19:23:17:058,0.8644,-1.163,12.2058,49.4628,-0.1106,-0.5537,0.1865,283.0312
19:23:17:083,2.0089,0.0748,11.2182,49.6566,0.2625,-0.4301,0.4198,283.5
19:23:17:098,2.2926,0.8398,9.808,49.2807,0.5355,-0.4469,0.1353,283.5156
19:23:17:118,1.2822,0.7931,8.3978,47.486,0.5744,-0.482,-0.5667,283.125
19:23:17:138,-0.013,0.3322,7.2677,46.5359,0.3693,-0.3257,-1.1201,282.7969
19:23:17:157,-0.8127,-0.0269,6.6404,48.4373,0.0311,-0.0274,-1.2724,283.0781
19:23:17:180,-1.0725,0.0892,6.4776,46.6785,-0.2366,0.2261,-1.1563,284.1562
19:23:17:199,-0.8774,0.5477,6.8284,47.0224,-0.3306,0.2557,-0.9297,285.5312
19:23:17:218,-0.4823,0.9104,7.4461,46.9177,-0.2459,0.0605,-0.7408,286.9375
19:23:17:242,-0.1196,1.1079,8.1248,48.0266,-0.0238,-0.2195,-0.678,288.5938
19:23:17:266,0.1605,1.2025,8.4373,47.5973,0.271,-0.4189,-0.6993,289.375
19:23:17:282,0.3006,1.0948,8.5714,47.1233,0.528,-0.3673,-0.7576,290.1406
19:23:17:299,0.206,0.8757,8.7749,46.7556,0.6657,-0.114,-0.8181,290.9688
19:23:17:318,-0.5158,0.9894,8.8156,46.6857,0.6875,0.1582,-0.8362,291.8438
19:23:17:339,-1.2497,1.1103,8.7282,46.5163,0.5866,0.3923,-0.7917,292.8438
19:23:17:366,-1.5513,1.0505,8.6492,45.4862,0.3925,0.547,-0.6799,293.8594
19:23:17:382,-1.8937,0.9308,8.9592,45.8474,0.1544,0.5595,-0.5539,294.7969
19:23:17:401,-2.26,0.8027,9.808,46.126,-0.0707,0.3949,-0.3984,295.5469
19:23:17:419,-2.0924,0.5058,11.035,47.2823,-0.1996,0.1358,-0.1669,296.1719
19:23:17:438,-1.4448,0.3633,11.8849,47.773,-0.2078,-0.0027,0.0855,296.6094
19:23:17:458,-0.5398,0.5393,12.1615,46.9602,-0.1482,0.0354,0.2565,296.75
19:23:17:481,0.0229,0.9475,12.3267,45.8371,-0.1167,0.0163,0.2208,296.75
19:23:17:499,-0.4081,0.7907,13.2018,45.6826,-0.1865,-0.3981,-0.025,296.3281
19:23:17:563,-1.5142,-0.4711,14.3426,46.7691,-0.3066,-0.9156,-0.3147,296.0625
19:23:17:563,-2.4312,-1.752,14.2432,46.1104,-0.3495,-0.8884,-0.3906,296.0625
19:23:17:564,-2.284,-1.91,12.6822,48.158,-0.1548,0.4996,0.252,296.0938
19:23:17:578,-1.6208,-1.2719,10.634,45.6608,-0.0661,0.5236,0.4224,296.8906
19:23:17:599,-1.0294,-0.7272,9.3315,45.4226,-0.0416,0.0367,0.3542,296.8906
19:23:17:617,-0.796,-0.653,8.812,46.036,-0.0366,-0.4863,0.2096,296.9844
19:23:17:637,-0.9947,-0.7943,8.8263,45.0633,-0.0195,-0.7052,0.1721,296.1719
19:23:17:657,-1.2126,-0.8386,8.6671,45.5868,-0.0083,-0.6477,0.2605,295.7812
19:23:17:682,-1.4687,-0.7548,8.4301,45.6729,-0.0092,-0.5191,0.4406,295.5469
19:23:17:702,-1.4508,-0.5728,8.2912,45.6234,0.0071,-0.408,0.6911,295.375
19:23:17:717,-0.9528,-0.0461,8.1895,44.134,0.0652,-0.2658,0.9186,295.0938
19:23:17:737,-0.219,0.4471,7.8423,45.5585,0.152,-0.1167,1.0208,294.25
19:23:17:757,0.3772,0.8134,7.3132,44.1896,0.2329,-0.0093,0.9987,293.3281
19:23:17:785,0.7758,1.1247,7.0044,44.5685,0.2899,0.0357,0.8707,292.2656
19:23:17:801,0.8118,1.2935,6.9385,43.8051,0.3067,0.028,0.664,291.1094
19:23:17:819,0.6142,1.3845,6.966,44.0484,0.2668,-0.0336,0.4355,290.0312
19:23:17:838,0.2168,1.3952,7.0702,44.2528,0.1677,-0.131,0.2336,289.2031
19:23:17:857,-0.1292,1.2576,7.5347,44.6776,0.0255,-0.2346,0.1074,288.5938
19:23:17:883,-0.5661,1.1438,8.4469,43.2345,-0.1327,-0.3113,0.0882,288.2344
19:23:17:898,-0.9923,1.1187,9.626,43.3239,-0.2677,-0.3481,0.1508,288.0625
19:23:17:918,-0.9073,0.9511,11.0134,43.3625,-0.3559,-0.347,0.2115,287.9844
19:23:17:939,-0.3494,0.4926,12.4703,43.2214,-0.3833,-0.3348,0.1963,287.8594
19:23:17:959,0.2228,-0.1634,13.7309,43.3743,-0.3471,-0.236,0.1415,287.6406
19:23:17:982,0.6154,-0.7847,14.6095,42.7819,-0.2531,-0.0549,0.1231,287.4062
19:23:17:998,1.0236,-1.2169,15.0537,43.1288,-0.1037,0.2575,0.1178,287.2188
19:23:18:019,0.6621,-1.1738,14.7699,41.7496,0.046,0.5763,0.0943,287.0625
19:23:18:038,-0.4261,-0.8326,13.8183,43.1912,0.1256,0.5766,0.0821,286.9219
19:23:18:058,-1.2161,-1.0349,12.9719,42.4281,0.1523,0.4322,0.1492,286.7812
19:23:18:080,-0.8953,-1.5101,12.2728,42.2572,0.1874,0.3475,0.3351,286.6875
19:23:18:101,0.4801,-1.4431,11.5737,42.6774,0.2614,0.2495,0.5476,286.5625
19:23:18:118,1.8592,-0.7619,10.8135,40.302,0.3682,0.1209,0.5828,286.2969
19:23:18:137,2.8025,0.021,9.9325,42.3817,0.4566,-0.0479,0.2975,285.7969
19:23:18:159,2.6828,0.3537,9.0897,40.6515,0.4476,-0.1907,-0.2072,285.4531
19:23:18:182,1.7371,0.1287,8.4146,41.2699,0.3168,-0.1023,-0.6106,284.8125
19:23:18:200,0.54,-0.2664,7.8818,41.3877,0.1131,0.2354,-0.7222,284.5156
19:23:18:218,-0.3435,-0.3932,7.3755,41.9255,-0.0917,0.5622,-0.6287,284.7969
19:23:18:238,-0.9037,0.2723,6.9014,41.344,-0.247,0.7294,-0.4559,285.8906
19:23:18:259,-0.7577,0.5441,6.9445,42.487,-0.2978,0.7244,-0.3057,286.6719
19:23:18:283,-0.4919,0.7632,7.087,41.0018,-0.2328,0.6104,-0.1994,287.2344
19:23:18:300,-0.183,1.0098,7.0834,42.0744,-0.0645,0.5292,-0.1355,287.6094
19:23:18:316,0.0528,1.412,7.0678,40.8189,0.14,0.4301,-0.1219,287.8281
19:23:18:339,0.1545,1.6849,7.1588,41.7045,0.3035,0.2613,-0.1797,287.9844
19:23:18:356,-0.0621,1.7651,7.5,41.0061,0.368,0.0487,-0.3137,288.0938
19:23:18:376,-0.8211,1.6215,8.0315,40.2012,0.3184,-0.0895,-0.4591,288.25
19:23:18:400,-1.701,1.4814,8.9125,39.5626,0.1949,-0.1513,-0.499,288.5625
19:23:18:417,-1.9572,1.4084,10.0127,39.9211,0.091,-0.1846,-0.3643,289.0469
19:23:18:437,-1.6878,1.5353,10.871,39.4392,0.0644,-0.1185,-0.1254,289.6562
19:23:18:458,-1.2377,1.8022,11.4181,39.4392,0.0931,0.0445,0.1018,290.1562
19:23:18:483,-0.7361,1.9555,11.8981,39.2003,0.1357,0.1297,0.2517,290.4688
19:23:18:501,-0.2597,1.8094,12.1399,39.2002,0.1956,0.1529,0.3116,290.4844
19:23:18:517,0.2371,1.5497,11.7784,40.1813,0.2662,0.2482,0.3058,290.2812
19:23:18:537,0.0636,1.5149,10.9464,37.8532,0.2809,0.4037,0.2088,289.9531
19:23:18:558,-0.9695,1.7065,10.847,39.2607,0.1456,0.2948,0.0251,289.6094
19:23:18:582,-1.786,1.1666,12.0633,40.1768,-0.1018,-0.127,-0.1347,289.3281
19:23:18:600,-2.4336,-0.0988,13.4472,39.3184,-0.2776,-0.5116,-0.2186,289.1875
19:23:18:618,-2.8586,-1.0912,13.5836,38.3226,-0.2416,-0.543,-0.1685,289.25
19:23:18:638,-2.776,-1.2947,12.4775,40.1169,-0.0808,-0.2541,0.0597,289.4531
19:23:18:657,-2.1152,-0.9691,11.2301,38.454,0.0561,0.0498,0.3772,289.7031
19:23:18:682,-1.4149,-0.6123,10.1563,39.1182,0.1552,0.0389,0.5686,289.7969
19:23:18:700,-1.1767,-0.4435,9.4045,38.5623,0.1887,-0.192,0.5828,289.5469
19:23:18:722,-1.094,-0.319,8.7413,38.0911,0.1629,-0.3657,0.5375,288.6719
19:23:18:740,-0.8283,-0.0772,8.0398,38.1002,0.0819,-0.3569,0.5295,288.0469
19:23:18:756,-0.5422,0.1897,7.3599,37.8103,-0.0507,-0.2061,0.5465,287.4688
19:23:18:780,-0.3842,0.5692,6.8212,37.2177,-0.21,-0.0469,0.5601,286.9219
19:23:18:801,-0.1507,0.8913,6.6309,37.4361,-0.3362,-0.0032,0.563,286.3125
19:23:18:819,0.0001,1.0744,6.8224,39.7625,-0.3839,-0.0988,0.5276,285.6562
19:23:18:837,0.0217,1.1786,7.1708,39.1706,-0.3466,-0.2309,0.4563,285.0156
19:23:18:858,0.0468,1.1762,7.4928,40.4294,-0.239,-0.2871,0.4078,284.3906
19:23:18:882,-0.013,1.1391,7.555,39.3743,-0.1117,-0.2218,0.3577,283.8594
19:23:18:900,-0.2489,1.157,7.6316,38.5601,-0.0387,-0.0964,0.2829,283.4062
19:23:18:917,-0.5565,1.1893,7.8663,38.3211,-0.0661,0.0027,0.1974,283
19:23:18:938,-0.7445,1.1905,8.2984,38.0947,-0.338,0.0975,0.0355,282.6875
19:23:18:958,-1.1012,1.2037,9.0179,39.2333,-0.4632,0.1153,0.0251,282.4531
19:23:18:984,-1.5238,1.3916,10.0354,38.1216,-0.4805,0.0586,0.1015,282.25
19:23:19:002,-1.3478,1.8178,11.3606,37.9156,-0.3849,0.0562,0.1644,282.25
19:23:19:019,-0.2501,1.9579,12.7265,38.8509,-0.2685,0.0743,0.0267,282.1875
19:23:19:036,0.1641,1.5904,13.987,38.1601,-0.1498,-0.0527,-0.2335,282.0312
19:23:19:057,-0.2609,0.659,15.068,39.2131,-0.0161,-0.1388,-0.3845,281.8281
19:23:19:080,-0.2285,-0.416,15.2596,38.8601,0.1016,0.0429,-0.3105,281.7656
19:23:19:096,0.5017,-0.823,14.3426,39.5832,0.157,0.5792,-0.1248,282.0156
19:23:19:117,0.9758,-0.428,13.0365,39.431,0.16,0.8799,-0.0732,282.4531
19:23:19:136,0.6956,-0.1251,12.0094,39.2499,0.1496,0.6434,-0.2335,282.8125
19:23:19:157,0.5939,-0.8027,11.5964,40.5483,0.1538,0.3513,-0.4341,282.9531
19:23:19:180,0.6537,-1.6658,11.2828,41.6116,0.1767,0.1337,-0.4548,283.1094
19:23:19:198,1.0105,-1.8405,10.7597,40.7311,0.2209,-0.0823,-0.3243,283.5
19:23:19:217,1.5875,-1.2707,10.4831,41.1972,0.304,-0.2762,-0.278,284.0469
19:23:19:237,1.87,-0.5501,10.2413,41.1506,0.3959,-0.2658,-0.4234,284.5
19:23:19:258,1.9873,-0.2197,9.5566,42.5328,0.4423,-0.0322,-0.7283,284.8438
19:23:19:282,1.5755,-0.3023,8.4133,40.4174,0.418,0.2581,-1.0506,285.2812
19:23:19:300,0.4311,-0.3071,7.0666,40.7508,0.32,0.4559,-1.1784,285.9375
19:23:19:316,-0.5242,-0.1885,5.8444,40.4182,0.1677,0.4341,-1.0876,287
19:23:19:337,-1.2161,-0.1155,5.2686,41.6578,0.017,0.2682,-0.8809,288.3281
19:23:19:358,-1.4221,0.0497,5.3404,41.973,-0.0584,0.1057,-0.6498,289.5938
19:23:19:382,-1.0378,0.258,5.7103,41.5341,-0.0499,0.0277,-0.494,290.7188
19:23:19:400,-0.5661,0.5369,6.3376,42.1756,0.0324,0.0184,-0.4564,291.5781
19:23:19:416,-0.3818,0.8613,6.9756,42.7074,0.1581,0.0144,-0.5118,292.2031
19:23:19:437,-0.6918,0.9188,7.4688,43.4984,0.2612,-0.0759,-0.588,292.7031
19:23:19:457,-1.5549,0.732,8.1248,43.9277,0.2947,-0.2163,-0.5488,293.25
19:23:19:483,-2.3031,0.6614,8.8551,42.6296,0.2899,-0.2322,-0.3619,293.9219
19:23:19:500,-2.4408,0.7751,9.3279,45.0906,0.279,-0.0658,-0.1525,294.5938
19:23:19:517,-2.3366,1.1738,9.3938,43.2192,0.2383,0.138,-0.0122,294.9219
19:23:19:539,-2.2361,1.7005,9.2082,43.0217,0.1347,0.2448,0.0352,295.3906
19:23:19:556,-2.2253,2.0453,9.28,43.2221,-0.0384,0.1782,0.0235,295.5938
19:23:19:579,-2.5617,2.062,9.8463,44.2893,-0.2102,0.037,0.0698,295.625
19:23:19:646,-2.7544,1.9351,10.6292,45.029,-0.3194,-0.1656,0.2405,295.5938
19:23:19:647,-1.786,1.8669,11.5545,43.8669,-0.3317,-0.4109,0.3841,295.5
19:23:19:647,0.5137,2.1458,13.5836,45.0694,-0.2829,-0.6663,0.3234,295.3125
19:23:19:662,-0.0119,1.819,14.8154,45.55,-0.2398,-0.9931,0.0528,294.9062
19:23:19:686,-1.1982,0.5956,15.6378,45.2939,-0.2006,-1.1859,-0.2705,294.4688
19:23:19:697,-2.1475,-0.5788,14.5904,44.9272,-0.0904,-0.8298,-0.3813,294.25
19:23:19:716,-2.5294,-0.6075,12.7923,45.0597,-0.0121,-0.0661,-0.1685,294.4219
19:23:19:743,-2.0242,-0.2221,11.3031,46.641,-0.0081,0.49,0.2011,294.875
19:23:19:756,-1.0486,-0.0197,11.108,47.7297,-0.0435,0.188,0.4187,295.2344
19:23:19:778,-0.4452,0.0449,11.4276,46.3752,-0.0222,-0.4024,0.4054,295.2031
19:23:19:801,-0.3542,0.24,11.0925,44.8502,0.1083,-0.8141,0.3298,294.7812
19:23:19:823,0.0097,0.4112,10.0235,46.344,0.2745,-0.8674,0.2863,294.2812
19:23:19:835,0.4191,0.4627,8.636,45.545,0.3858,-0.644,0.2581,293.9219
19:23:19:856,0.4502,0.4555,7.2737,44.952,0.3994,-0.3638,0.2355,293.625
19:23:19:876,0.1881,0.7871,6.6237,46.2129,0.3325,-0.2309,0.2573,293.375
19:23:19:898,0.5233,0.9355,6.6237,45.7431,0.2409,-0.2778,0.314,293.1406
19:23:19:916,1.0045,0.8625,6.7925,44.963,0.1842,-0.334,0.3037,292.9062
19:23:19:937,0.7543,0.58,6.996,45.3853,0.1736,-0.3228,0.1878,292.6094
19:23:19:957,0.0707,0.2771,7.0558,47.0253,0.1866,-0.1774,0.0877,292.2812
19:23:19:982,-0.2537,0.1586,6.9206,47.2048,0.2029,0.0722,0.1196,292.0156
19:23:20:001,-0.4225,0.3286,6.9804,47.014,0.1951,0.2988,0.2312,291.9062
19:23:20:016,-0.608,0.6662,7.4377,47.816,0.1586,0.359,0.3508,291.8125
19:23:20:037,-0.4787,1.0157,8.0817,45.4959,0.1299,0.3699,0.4861,291.6094
19:23:20:056,-0.2381,1.2504,8.4732,47.0334,0.1464,0.4101,0.5857,291.0312
19:23:20:077,-0.3518,1.5664,8.6061,46.8341,0.1703,0.4035,0.5913,290.4844
19:23:20:100,-0.3219,1.7089,8.9221,47.1314,0.1389,0.2027,0.5425,289.7812
19:23:20:117,0.127,1.6215,9.9923,47.9109,0.0327,-0.2189,0.4432,289.0781
19:23:20:137,0.5675,1.26,11.8215,49.2045,-0.1218,-0.6631,0.2917,288.4531
19:23:20:161,0.9973,0.6973,13.3023,46.2668,-0.2246,-0.7729,0.1926,287.9844
19:23:20:183,1.5336,0.2939,13.6602,49.2985,-0.203,-0.5065,0.2009,287.7188
19:23:20:201,2.0304,0.5393,12.8821,48.3432,-0.1093,-0.1004,0.2658,287.5469
19:23:20:217,2.3752,0.7452,12.3865,45.8281,-0.0893,0.1052,0.2081,287.375
19:23:20:236,2.2411,-0.0293,12.6595,49.5914,-0.1793,-0.0482,-0.078,287.0781
19:23:20:257,1.5001,-0.9738,12.8199,48.4728,-0.2422,-0.1265,-0.3515,286.8125
19:23:20:283,1.2738,-1.5437,12.4631,47.6937,-0.2004,-0.1252,-0.3454,286.9062
19:23:20:299,1.6761,-1.1893,11.9879,50.1879,-0.0941,-0.1683,-0.0806,287.7031
19:23:20:316,2.5236,-0.1035,11.3295,48.7822,0.1198,-0.1579,0.289,287.8125
19:23:20:342,3.0563,0.8003,10.1527,50.3174,0.12,0.0035,0.1026,287.8125
19:23:20:356,2.8971,1.2145,8.7354,49.9529,0.0042,0.1414,-0.172,287.5781
19:23:20:377,2.1884,1.3557,7.6819,49.936,-0.1681,0.1835,-0.3603,287.2656
19:23:20:399,1.3493,1.2767,7.415,49.3732,-0.2685,0.1808,-0.4082,287.1562
19:23:20:416,0.7758,1.1438,7.5754,49.1634,-0.2198,0.1846,-0.3467,287.3125
19:23:20:435,0.4814,1.2336,7.6687,48.7956,-0.059,0.2498,-0.221,287.7188
19:23:20:456,0.6118,1.5568,7.5454,49.7084,0.1413,0.3332,-0.1257,288.1719
19:23:20:476,0.9734,1.8753,7.1576,49.4909,0.3115,0.4136,-0.1206,288.7656
19:23:20:500,1.2224,2.1721,6.5854,49.0143,0.3893,0.383,-0.1925,288.8281
19:23:20:517,1.1864,2.3685,6.4022,48.8298,0.3618,0.2589,-0.3025,288.9531
19:23:20:536,0.9662,2.4726,6.7218,50.4744,0.2553,0.1249,-0.4205,289.0938
19:23:20:555,0.692,2.56,7.4329,50.5151,0.107,0.0559,-0.5174,289.3594
19:23:20:577,0.3533,2.5827,8.4301,49.0144,-0.006,0.0551,-0.5677,289.7812
19:23:20:600,0.0241,2.3912,9.4788,50.8251,-0.0608,0.1734,-0.5464,290.3125
19:23:20:617,-0.292,2.3158,10.2557,49.9421,-0.0707,0.334,-0.4612,290.9062
19:23:20:636,-0.4715,2.2308,10.6627,51.8648,-0.0603,0.4575,-0.3637,291.5469
19:23:20:656,-0.7193,2.2176,10.865,50.4811,-0.0414,0.433,-0.2551,292.1094
19:23:20:677,-0.7612,2.1566,11.1499,52.0948,-0.0068,0.2908,-0.1563,292.3438
19:23:20:700,-0.7122,1.9088,11.539,51.0502,0.0146,0.2554,-0.0689,292.7031
19:23:20:720,-0.4979,1.5257,11.5114,53.2612,-0.0398,0.3145,0.0166,292.9531
19:23:20:736,-0.3051,1.4335,11.2469,50.8285,-0.1956,0.142,0.0539,293.1094
19:23:20:756,-0.5039,1.5844,11.9915,52.0829,-0.3181,-0.229,0.0216,293.1719
19:23:20:776,-0.863,1.163,13.4519,52.3306,-0.2555,-0.3654,-0.0407,293.125
19:23:20:799,-1.3897,0.2508,13.8613,51.6944,-0.0805,-0.2205,-0.0194,293.0469
19:23:20:818,-1.8865,-0.4782,13.1156,52.5223,0.0646,-0.085,0.1407,293.0156
19:23:20:836,-1.8315,-0.5596,11.9328,52.3811,0.1003,-0.2296,0.3306,293.0625
19:23:20:858,-1.1766,-0.3789,11.3857,51.064,0.0689,-0.4663,0.4275,293.0938
19:23:20:883,-0.4177,-0.1143,11.3606,51.4622,0.0686,-0.5244,0.4291,292.9375
19:23:20:902,-0.1244,0.0593,11.0158,51.7844,0.1461,-0.3894,0.4184,292.5938
19:23:20:917,-0.1232,0.2113,9.9995,51.7844,0.2146,-0.1489,0.4355,291.9219
19:23:20:936,0.0408,0.3992,8.6516,51.4455,0.1842,0.1848,0.4517,291.5
19:23:20:956,0.2012,0.58,7.251,50.6285,0.0913,0.4597,0.472,291.0469
19:23:20:976,0.3138,0.8721,6.1568,52.2312,0.0023,0.486,0.485,290.5469
19:23:20:999,0.3413,1.1355,5.6301,51.2694,-0.0305,0.3012,0.4983,290
19:23:21:021,0.4742,1.2588,5.5607,52.0496,0.002,0.0053,0.4997,289.4375
19:23:21:037,0.4502,1.3845,6.5471,49.7213,0.0529,-0.2599,0.4749,288.8438
19:23:21:058,0.2383,1.2767,7.0786,50.0568,0.0961,-0.3814,0.4342,288.25
19:23:21:083,-0.0681,1.3366,7.573,50.7658,0.0873,-0.3465,0.4134,287.7344
19:23:21:099,-0.2034,1.6394,8.2458,51.0865,-0.0041,-0.2253,0.427,287.2344
19:23:21:117,-0.0669,1.9579,8.8335,50.3102,-0.0877,-0.0328,0.4392,286.7969
19:23:21:135,0.0456,2.305,8.9844,50.4048,-0.1026,0.147,0.4011,286.3438
19:23:21:156,0.1174,2.5037,9.0334,49.6189,-0.1317,0.2069,0.2808,285.875
19:23:21:176,0.1067,2.0991,10.1084,50.1524,-0.2321,0.0237,0.0949,285.375
19:23:21:200,-0.1759,1.2025,12.0154,50.9921,-0.3322,-0.2935,-0.0798,284.9531
19:23:21:218,-0.5925,0.3873,14.1546,50.784,-0.3165,-0.6184,-0.1131,284.7344
19:23:21:236,0.1893,-0.2041,15.1973,50.5791,-0.1514,-0.6416,0.0632,284.7344
19:23:21:260,1.5779,-0.0162,14.1115,49.8885,0.1104,-0.2157,0.3167,284.8906
19:23:21:283,2.5882,0.9152,12.5948,49.0297,0.2806,0.0296,0.3364,284.9844
19:23:21:300,3.4298,0.677,12.766,49.7827,0.2095,-0.224,-0.0244,284.7969
19:23:21:316,2.5559,-1.2947,14.2181,49.0985,-0.0446,-0.5475,-0.6431,284.375
19:23:21:336,0.4718,-2.7408,14.8286,49.3705,-0.2227,-0.4346,-1.0101,284.1562
19:23:21:356,-0.0825,-2.7467,13.4088,48.833,-0.1796,0.0738,-0.7547,284.5469
19:23:21:375,0.9063,-1.5999,10.8518,48.9084,-0.0624,0.669,-0.173,286.2188
19:23:21:400,2.0711,-0.0628,8.8515,48.9167,-0.0083,0.7952,0.2267,287.0312
19:23:21:416,2.3165,1.2504,8.0722,47.9465,-0.0744,0.5004,0.1897,287.1875
19:23:21:443,1.6701,1.5939,8.4852,48.3908,-0.1833,0.1273,-0.1211,286.875
19:23:21:454,0.7256,1.339,8.6575,48.2733,-0.1524,-0.0423,-0.4037,286.6094
19:23:21:476,-0.0825,1.248,8.0315,46.894,-0.0166,0.0842,-0.4748,286.7344
19:23:21:502,-0.2537,1.485,7.1743,48.7609,0.1064,0.3007,-0.3475,287.1875
19:23:21:518,0.0971,1.7843,6.5291,46.9197,0.1874,0.4184,-0.1906,287.7344
19:23:21:536,0.303,2.129,6.2861,47.8797,0.254,0.3798,-0.123,288.0938
19:23:21:558,0.3437,2.3218,6.2442,47.699,0.319,0.2538,-0.1368,288.2969
19:23:21:575,0.2276,2.384,6.5447,48.6569,0.3602,0.0924,-0.1906,288.4219
19:23:21:596,0.0504,2.3852,7.1863,46.663,0.3581,-0.0272,-0.2498,288.5625
19:23:21:617,-0.1639,2.299,8.047,46.3728,0.3142,-0.0346,-0.2729,288.7969
19:23:21:645,-0.2297,2.3002,8.9628,44.642,0.255,0.0341,-0.2545,289.0938
19:23:21:656,-0.3351,2.2835,9.6847,44.8276,0.2452,0.2658,-0.1627,289.7188
19:23:21:732,-0.5338,2.3673,9.9624,45.69,0.2697,0.3696,-0.1091,289.9531
19:23:21:733,-0.5745,2.3362,9.7876,45.3701,0.2492,0.335,-0.0817,290.1406
19:23:21:733,-0.6391,2.2404,9.8247,44.6249,0.1648,0.1886,-0.0476,290.1406
19:23:21:736,-0.6691,2.0632,10.5274,45.6801,0.0721,0.0405,0.0025,290.2344
19:23:21:756,-0.6451,1.7879,11.5079,43.8124,0.034,0.0482,0.0443,290.3125
19:23:21:778,-0.3698,1.4754,11.3989,43.1579,-0.0614,0.061,0.0443,290.3594
19:23:21:799,-0.2968,1.3569,11.1667,44.5064,-0.2997,-0.167,0.0126,290.3594
19:23:21:817,-0.4404,1.2204,12.5374,42.5036,-0.4728,-0.3649,-0.0473,290.2812
19:23:21:835,-0.8738,0.4447,13.9427,43.427,-0.4153,-0.3097,-0.0908,290.2344
19:23:21:855,-1.9164,-0.4363,14.0433,41.1826,-0.2217,-0.0381,0.061,290.25
19:23:21:875,-2.1104,-0.744,12.8055,44.2402,-0.0443,0.0767,0.3306,290.2812
19:23:21:897,-1.4292,-0.4016,11.1212,42.0446,-0.0006,-0.1412,0.4925,290.3906
19:23:21:917,-0.4129,0.1646,10.3215,42.7793,-0.0302,-0.4429,0.4581,290.3125
19:23:21:935,0.1222,0.4364,10.2844,41.8261,-0.0283,-0.5771,0.3258,289.9531
19:23:21:955,0.1162,0.3382,10.124,41.8013,0.0289,-0.4024,0.2629,289.3906
19:23:21:976,-0.1986,0.1766,9.1472,41.0351,0.0977,-0.0685,0.3508,288.9062
19:23:22:001,-0.2154,0.349,7.5826,43.0793,0.1102,0.2325,0.4784,288.5938
19:23:22:017,0.3449,0.7464,5.9892,40.9396,0.021,0.327,0.4925,288.3281
19:23:22:035,0.777,1.2145,4.9609,42.8109,-0.1378,0.138,0.3777,287.9375
19:23:22:059,0.7722,1.4706,5.0435,43.3858,-0.2539,-0.1931,0.219,287.375
19:23:22:080,0.6681,1.3509,6.0754,42.9203,-0.2478,-0.4424,0.0911,286.8125
19:23:22:099,0.4766,1.0553,6.9218,41.7873,-0.207,-0.4495,0.0445,286.3594
19:23:22:118,0.2611,0.9703,7.2833,40.5953,-0.2145,-0.2906,0.0624,286.1094
19:23:22:135,0.3257,1.1367,7.3443,41.5477,-0.2885,-0.0993,0.0738,286.0469
19:23:22:155,0.4957,1.5137,7.3982,41.0556,-0.4046,0.0056,0.0224,286.0312
19:23:22:174,0.7998,1.8944,7.6436,42.4932,-0.5386,0.017,-0.1153,285.9688
19:23:22:199,0.9566,2.1937,8.2242,43.7615,-0.6779,-0.0506,-0.3342,285.8906
19:23:22:215,0.7196,2.2152,9.292,42.6592,-0.7628,-0.1476,-0.5635,285.8594
19:23:22:235,0.2623,1.7639,10.4939,42.8849,-0.7727,-0.2485,-0.7326,286.125
19:23:22:256,0.0312,1.1343,11.5557,41.3384,-0.7673,-0.3121,-0.8311,286.5938
19:23:22:276,0.4335,0.6028,12.5948,43.6656,-0.7732,-0.3385,-0.9084,287.3281
19:23:22:300,1.2355,0.1,13.4555,40.6183,-0.7735,-0.2759,-0.9917,288.2344
19:23:22:317,2.0567,-0.811,13.8673,41.7645,-0.7602,0.0176,-1.0383,289.2188
19:23:22:335,1.9107,-1.6945,14.0038,42.4783,-0.7759,0.4234,-1.0125,290.25
19:23:22:355,0.5077,-1.6825,14.2576,40.6943,-0.7926,0.5017,-0.9251,291.4062
19:23:22:376,-0.4727,-2.1302,15.1267,41.8767,-0.7069,0.3696,-0.8564,292.5781
19:23:22:400,-0.8786,-2.8581,15.7444,43.4432,-0.4664,0.3619,-0.6905,293.625
19:23:22:417,0.6765,-2.5935,14.3725,41.6117,-0.0851,0.4048,-0.3422,294.625
19:23:22:437,1.8808,-1.5963,13.0222,44.3324,0.356,0.4112,-0.0101,295.5312
19:23:22:455,2.3309,-0.5381,11.539,43.1437,0.7142,0.4091,0.1031,296.1094
19:23:22:474,1.9741,0.0102,9.8906,42.1765,0.9594,0.4064,-0.0415,296.3125
19:23:22:499,1.2104,0.0832,8.1895,41.9454,1.0572,0.4051,-0.3464,296.2656
19:23:22:515,0.473,0.167,6.8703,41.6749,1.0092,0.4306,-0.5874,296.2344
19:23:22:534,0.194,0.2699,5.9234,43.7788,0.8798,0.466,-0.6362,296.5
19:23:22:555,0.115,0.4316,5.3476,42.7093,0.715,0.4376,-0.5656,297.1094
19:23:22:575,0.2611,0.6387,5.2877,42.1108,0.54,0.3068,-0.4841,297.8906
19:23:22:600,0.5747,0.7512,5.4254,42.2767,0.3898,0.163,-0.4452,298.5938
19:23:22:616,0.7315,0.7919,5.7498,42.9639,0.2849,0.0663,-0.4639,299.2188
19:23:22:635,0.7483,0.9152,6.2262,41.7855,0.2298,0.0109,-0.5163,299.7812
19:23:22:662,0.5687,1.0086,6.8188,42.7746,0.2039,-0.0517,-0.5805,300.2812
19:23:22:674,0.0085,0.9415,7.494,41.91,0.1767,-0.1121,-0.6466,301.1719
19:23:22:695,-0.4045,0.3992,8.5187,42.8405,0.1256,-0.0778,-0.6066,301.8594
19:23:22:716,-1.179,0.4687,9.2992,41.9473,0.062,0.0067,-0.4551,302.5781
19:23:22:735,-1.5394,0.8984,9.5985,41.3621,0.0124,0.4005,-0.2271,303.2812
19:23:22:755,-1.6004,1.2635,9.8978,42.4519,-0.0275,0.6682,-0.0202,303.8125
19:23:22:775,-1.7955,1.5114,10.6076,41.9856,-0.0811,0.5582,0.0765,304.0625
19:23:22:800,-1.9512,1.4671,11.5138,42.35,-0.1271,0.2495,0.0983,304.0312
19:23:22:817,-1.9715,1.0385,12.2285,42.2889,-0.1178,-0.0663,0.1716,303.9219
19:23:22:836,-1.9404,0.7236,12.1926,43.0076,-0.0653,-0.2064,0.3316,303.7812
19:23:22:854,-1.616,0.4172,11.9364,41.5198,-0.0547,-0.0975,0.5449,303.5938
19:23:22:876,-1.4795,0.1395,12.42,41.3438,-0.1862,0.0969,0.6144,303.2188
19:23:22:899,-1.7764,-0.7201,12.9911,42.3765,-0.3921,-0.18,0.4882,302.5781
19:23:22:915,-2.7377,-0.9152,13.0533,41.4471,-0.5359,-0.8181,0.3844,301.8906
19:23:22:935,-2.2097,-0.926,12.3123,41.8796,-0.5402,-1.0139,0.5883,301.3125
19:23:22:955,-0.8091,-0.9104,11.3534,42.0468,-0.4827,-0.8426,0.9564,300.8438
19:23:22:975,0.0241,-0.7991,10.6519,41.159,-0.4563,-0.4389,1.129,300.1719
19:23:23:000,0.3138,-0.7799,10.4436,42.8985,-0.4427,0.0445,1.0613,299.1094
19:23:23:016,0.279,-0.9499,10.1037,42.8985,-0.3844,0.3063,0.8251,297.7969
19:23:23:035,-0.0011,-0.9439,9.1472,41.8466,-0.2605,0.2778,0.542,296.5625
19:23:23:055,-0.207,-0.5884,8.1787,41.402,-0.1048,0.2317,0.3335,295.6406
19:23:23:077,-0.3123,0.0269,7.725,43.0759,0.0446,0.4027,0.2248,295
19:23:23:101,-0.456,0.5525,7.8806,43.5649,0.2146,0.7028,0.1804,294.6094
19:23:23:117,-0.7864,0.6087,7.8004,41.3182,0.7088,0.8133,0.1591,294.4688
19:23:23:138,-1.0378,0.4064,6.996,41.2633,0.8431,0.2458,0.227,294.4688
19:23:23:154,-1.1503,0.5285,6.2969,42.2054,0.8204,-0.2842,0.3417,294.1719
19:23:23:174,-0.6978,0.8111,6.2346,41.1445,0.7315,-0.2972,0.4089,293.875
19:23:23:201,-0.2872,1.0098,6.2203,41.1657,0.5698,-0.2908,0.3678,293.7031
19:23:23:216,-0.2836,1.1319,6.6105,43.8891,0.3514,-0.4093,0.2515,293.4062
19:23:23:234,-0.4991,1.1797,7.6292,41.1623,0.1799,-0.3707,0.1521,293.0156
19:23:23:254,-0.6415,1.151,8.8802,42.9789,0.1333,-0.2642,0.1226,292.6875
19:23:23:274,-0.93,1.254,9.8116,41.382,0.1863,-0.2868,0.1297,292.4531
19:23:23:302,-1.2592,1.3007,10.476,41.7998,0.2628,-0.5286,0.1774,292.3281
19:23:23:317,-1.0617,1.3198,10.9835,40.7466,0.2899,-0.8147,0.2296,292.2188
19:23:23:335,-0.1136,1.2695,11.5186,40.922,0.2175,-0.8871,0.1678,292.0938
19:23:23:361,0.6465,0.9727,12.2632,39.6923,0.0495,-0.689,0.0166,291.9531
19:23:23:374,0.9231,0.586,12.7804,41.6906,-0.1093,-0.2567,-0.0926,291.7812
19:23:23:396,0.4658,0.3753,12.3949,41.6906,-0.2504,0.1028,-0.1129,291.6719
19:23:23:418,-0.1388,0.6039,12.1327,41.5868,-0.4201,0.1598,-0.1206,291.7188
19:23:23:435,0.054,0.519,12.7121,41.8379,-0.5809,0.1454,-0.2098,291.8438
19:23:23:455,0.7651,-0.2484,13.185,40.9051,-0.6259,0.2109,-0.3217,291.9531
19:23:23:475,1.1781,-0.7943,13.0282,42.701,-0.5828,0.3441,-0.3201,292.0469
19:23:23:499,1.6246,-0.8948,12.189,42.4649,-0.5258,0.4642,-0.2439,292.2656
19:23:23:518,2.1106,-0.6949,10.9787,43.4804,-0.4992,0.5428,-0.2356,292.5781
19:23:23:536,2.204,-0.3442,9.9109,43.362,-0.509,0.5204,-0.3619,292.8906
19:23:23:555,1.5444,-0.1478,9.4692,43.4633,-0.489,0.441,-0.5126,293.125
19:23:23:576,0.6465,-0.2999,9.2118,42.8696,-0.3945,0.3902,-0.5331,293.4688
19:23:23:603,-0.1244,-0.3717,8.7785,41.5047,-0.2752,0.3803,-0.4061,293.9375
19:23:23:617,-0.4668,-0.161,8.3906,42.8672,-0.158,0.3894,-0.2367,294.5156
19:23:23:635,-0.4572,0.2688,8.1021,41.8725,-0.0121,0.3545,-0.1067,295.0156
19:23:23:655,-0.4009,0.7739,7.8435,41.0701,0.165,0.2248,-0.0383,295.3438
19:23:23:675,-0.3016,1.09,7.5849,42.5681,0.353,0.0775,0.0046,295.5156
19:23:23:699,-0.0502,1.1402,6.9074,42.8987,0.4652,-0.1057,0.0304,295.5938
19:23:23:718,0.0875,1.1283,6.1436,41.7357,0.4297,-0.4663,0.0451,295.625
19:23:23:803,-0.3889,1.497,6.644,41.788,0.4274,-0.905,0.0925,295.6406
19:23:23:804,-0.7229,1.904,8.126,41.1945,0.5901,-1.1231,0.1505,295.6562
19:23:23:804,-0.3075,2.2619,9.2729,41.9829,0.777,-0.9295,0.1156,295.6406
19:23:23:804,0.3688,2.5959,9.4345,40.7746,0.8036,-0.4631,-0.0663,295.5781
19:23:23:825,-0.3554,2.6187,8.6875,40.0323,0.6039,-0.0125,-0.307,295.5
19:23:23:835,-1.1647,2.4942,9.1951,40.4018,0.2697,0.2394,-0.4455,295.5312
19:23:23:855,-1.2509,2.2966,10.7585,40.6472,-0.0579,0.3065,-0.4391,295.7969
19:23:23:874,-1.2736,1.8801,12.2644,41.2783,-0.1897,0.293,-0.3811,296.25
19:23:23:902,-1.2329,1.4898,12.9922,41.68,-0.1226,0.3004,-0.2985,296.7656
19:23:23:917,-0.7289,1.4084,12.0801,40.4616,0.018,0.4629,-0.1611,297.1875
19:23:23:933,-0.4297,1.8609,10.7561,40.6347,-0.0147,0.6392,-0.115,297.5469
19:23:23:954,-0.5589,2.1578,11.4133,42.4905,-0.3391,0.5699,-0.2468,297.7812
19:23:23:974,-1.0785,1.1989,13.6112,41.3927,-0.6789,0.2684,-0.4519,297.8906
19:23:24:000,-2.096,-0.2544,14.4384,40.2309,-0.6464,0.1161,-0.5944,298.0156
19:23:24:017,-2.6742,-1.1055,13.1024,39.9244,-0.3066,0.3167,-0.4615,298.5938
19:23:24:035,-2.5976,-0.9475,10.5861,40.4591,0.0388,0.5715,-0.1118,299.1719
19:23:24:054,-1.6711,-0.4806,9.0227,40.5816,0.1168,0.5143,0.2328,299.6562
19:23:24:074,-0.9348,-0.1335,8.8527,40.0659,-0.0275,0.217,0.3567,299.7656
19:23:24:100,-0.9408,0.0054,9.0993,41.5857,-0.17,-0.0708,0.3143,299.5156
19:23:24:118,-0.9731,0.0401,8.8958,39.7694,-0.203,-0.1758,0.2765,299.0938
19:23:24:139,-1.0055,0.0341,8.3248,40.5921,-0.2222,-0.0301,0.2906,298.7188
19:23:24:154,-1.1491,0.2041,7.7059,41.5609,-0.2875,0.2937,0.3455,298.3906
19:23:24:174,-1.1719,0.5154,7.1241,40.5746,-0.329,0.5822,0.4645,298.0469
19:23:24:199,-1.0641,0.9379,6.6333,40.9786,-0.264,0.6341,0.6057,297.6094
19:23:24:220,-0.7409,1.2683,6.4549,41.3394,-0.1082,0.3987,0.7082,297.0156
19:23:24:237,-0.4715,1.321,6.7326,42.0029,0.0846,-0.0053,0.7255,296.3125
19:23:24:254,-0.6487,1.2336,7.0115,40.9956,0.2782,-0.3808,0.6826,295.4844
19:23:24:275,-1.0857,1.2348,7.4545,40.5353,0.3837,-0.6211,0.6243,294.6562
19:23:24:302,-1.2556,1.1893,7.9728,39.9684,0.3767,-0.6509,0.586,294.2812
19:23:24:318,-1.4137,1.2731,8.4576,39.0044,0.2993,-0.5161,0.5255,293.625
19:23:24:336,-1.258,1.3342,8.9269,39.5639,0.1709,-0.3334,0.4565,293.0156
19:23:24:354,-1.1419,1.3629,9.3459,38.6441,0.022,-0.1625,0.3596,292.4375
19:23:24:374,-1.1204,1.2276,10.2569,39.903,-0.1274,-0.1286,0.2166,291.9531
19:23:24:398,-1.0892,0.5968,11.4516,39.4541,-0.2504,-0.2615,0.0544,291.5
19:23:24:415,-1.2868,-0.0221,12.7887,37.1039,-0.3615,-0.3678,-0.0705,291.1719
19:23:24:434,-1.1539,-0.6171,14.1858,37.6495,-0.4504,-0.2895,-0.0844,291
19:23:24:454,-0.3842,-1.0708,14.1822,38.7506,-0.3788,-0.017,0.0086,291.0625
19:23:24:474,-0.2573,-0.5884,12.4655,38.3701,-0.1961,0.3377,0.0943,291.1406
19:23:24:495,-0.5769,-0.2113,11.8837,37.1669,-0.2898,0.2461,-0.1579,291.1094
19:23:24:518,-0.8618,-1.1534,13.094,37.5489,-0.2909,0.1481,-0.2202,291.1094
19:23:24:533,-0.2884,-2.4942,13.9823,38.6912,-0.1404,0.1534,-0.0263,290.9688
19:23:24:554,1.2008,-2.742,13.7668,36.8239,0.0436,0.1475,0.2104,291.0469
19:23:24:578,2.7822,-1.7148,12.5457,36.0097,0.1032,0.1361,0.1742,291.25
19:23:24:601,3.5268,-0.4028,11.1152,36.708,0.0257,0.1031,-0.2719,291.2656
19:23:24:618,2.8779,0.1478,10.0821,37.3574,-0.1143,0.1667,-0.8263,291.0312
19:23:24:634,1.3373,-0.2819,9.535,36.3739,-0.2326,0.4138,-1.1198,290.8438
19:23:24:653,-0.3878,-0.7931,8.9724,37.4087,-0.2496,0.7148,-1.05,291.1562
19:23:24:674,-1.6495,-0.7524,8.0554,36.7623,-0.1668,0.8394,-0.7289,292.0781
19:23:24:694,-1.8913,-0.2939,7.1696,36.9722,-0.0318,0.7012,-0.3739,293.2656
19:23:24:716,-1.4711,0.337,6.8188,36.9255,0.1621,0.4056,-0.136,294.4219
19:23:24:736,-1.0186,0.7943,6.8619,36.3375,0.4178,0.1422,-0.0138,295.2344
19:23:24:754,-0.5194,1.0457,6.5016,36.2576,0.5877,0.0168,-0.0106,295.6406
19:23:24:774,-0.1723,1.2456,5.994,38.2135,0.5802,-0.0205,-0.099,295.7969
19:23:24:794,-0.286,1.3342,6.1006,36.0735,0.4508,-0.021,-0.2202,295.875
19:23:24:817,-0.7936,1.2372,6.9625,35.8903,0.3466,0.0447,-0.2585,295.9688
19:23:24:834,-0.954,1.3569,7.8244,35.5072,0.3128,0.1015,-0.2538,296.1406
19:23:24:854,-0.6475,1.6143,8.3631,36.4295,0.2375,0.2019,-0.3422,296.4688
19:23:24:874,-0.6798,1.7603,8.8587,34.7356,0.0886,0.3665,-0.5043,296.9531
19:23:24:894,-1.4113,1.5832,9.5781,34.3401,-0.0363,0.5673,-0.5835,297.2969
19:23:24:916,-2.5629,1.3545,9.9384,34.1975,-0.1119,0.6416,-0.4937,297.7969
19:23:24:935,-3.1183,1.321,10.2473,35.6047,-0.1468,0.5044,-0.3089,298.4219
19:23:24:954,-2.8873,1.2923,10.7202,35.6913,-0.141,0.2631,-0.1653,299
19:23:24:975,-2.2744,1.1678,11.1475,35.0155,-0.1271,0.1286,-0.1126,299.4062
19:23:25:001,-1.5382,0.9954,10.8638,34.3279,-0.2182,0.0871,-0.1936,299.625
19:23:25:018,-1.6914,1.1067,10.4664,36.3249,-0.4725,-0.1766,-0.3731,299.7344
19:23:25:034,-2.2876,0.7943,11.7317,34.6519,-0.7434,-0.6016,-0.5781,299.8594
19:23:25:053,-3.3625,-0.5656,14.4264,34.7946,-0.6864,-0.6077,-0.5981,300.125
19:23:25:073,-4.2807,-2.0644,15.1961,37.0633,-0.3535,-0.1734,-0.2716,300.5781
19:23:25:094,-4.2508,-2.4247,13.2113,34.48,-0.0699,0.1827,0.232,301.1406
19:23:25:119,-3.5038,-1.6514,10.7034,33.5804,-0.0094,0.0636,0.5945,301.5938
19:23:25:143,-2.0709,-0.908,9.456,33.2036,-0.0664,-0.3569,0.616,301.6094
19:23:25:153,-1.2209,-0.5441,9.3207,34.1651,-0.0941,-0.7571,0.4533,301.1094
19:23:25:175,-1.2162,-0.495,9.6284,32.8199,-0.048,-0.882,0.3306,300.375
19:23:25:195,-1.4532,-0.4734,8.9951,35.375,0.0114,-0.7446,0.3138,299.7344
19:23:25:218,-1.3478,-0.1897,8.3798,36.1819,0.0079,-0.4487,0.3801,299.2969
19:23:25:235,-1.3287,0.185,7.962,34.8712,-0.0254,-0.176,0.4696,298.9688
19:23:25:254,-1.3909,0.3789,7.5981,35.5625,0.0244,-0.0365,0.5401,298.5781
19:23:25:273,-1.1551,0.4771,7.1995,34.7166,0.1861,-0.081,0.6094,298.0938
19:23:25:293,-0.5937,0.6447,6.6476,36.136,0.3709,-0.212,0.6824,297.5469
19:23:25:317,-0.0382,0.8781,6.2669,34.2391,0.4865,-0.3262,0.689,296.5469
19:23:25:336,0.0372,1.0445,6.3064,36.3725,0.4684,-0.3918,0.5652,295.8125
19:23:25:353,-0.7038,0.9643,7.0271,35.0522,0.3134,-0.44,0.3047,295.125
19:23:25:374,-1.6076,0.6171,8.1177,34.6676,0.0987,-0.396,0.0618,294.5469
19:23:25:395,-1.8015,0.398,8.9844,34.6033,-0.0334,-0.2487,-0.0103,294.2344
19:23:25:418,-1.8159,0.5261,9.4129,32.7747,-0.036,-0.0796,0.0405,294.2031
19:23:25:435,-1.4747,0.8063,9.7457,35.6921,0.0257,0.029,0.1138,294.2031
19:23:25:454,-0.7433,0.8829,10.1432,34.5104,0.0638,0.0304,0.1196,294.2031
19:23:25:474,-0.1531,0.5369,11.0781,34.7044,0.0327,-0.0977,-0.0165,294.1094
19:23:25:493,-0.3889,0.1107,12.4344,35.4355,-0.0291,-0.2908,-0.2298,293.9688
19:23:25:518,-1.021,-0.3166,13.2389,34.9278,-0.0257,-0.2772,-0.3797,293.8906
19:23:25:534,-0.9755,-0.6434,13.0078,35.1334,0.0108,-0.025,-0.3776,294.0469
19:23:25:554,-0.8762,-0.4004,12.0477,35.2496,-0.0118,0.2951,-0.3169,294.3906
19:23:25:574,-1.4328,0.0198,12.1627,36.1231,-0.1897,0.3878,-0.352,294.8594
19:23:25:594,-2.248,-0.5764,14.1523,34.9894,-0.3998,0.1353,-0.4665,295.25
19:23:25:616,-2.4264,-1.4982,14.9268,36.0069,-0.2997,0.0261,-0.4551,295.5938
19:23:25:635,-1.4149,-1.8417,14.1906,37.8994,0.0444,0.1252,-0.164,296
19:23:25:653,0.2814,-1.1797,12.8271,35.5598,0.4132,0.2029,0.2275,296.5312
19:23:25:674,1.7012,-0.2903,11.2445,36.7358,0.6319,0.225,0.4371,296.8906
19:23:25:693,1.4247,0.3969,9.8463,36.2114,0.6281,0.2666,0.2323,296.875
19:23:25:717,0.0528,0.1993,8.9975,37.7637,0.425,0.3521,-0.2636,296.5
19:23:25:735,-1.4663,-0.3813,8.5127,35.9196,0.1842,0.5412,-0.6064,296.0625
19:23:25:754,-2.5222,-0.6422,8.0075,39.171,0.006,0.832,-0.5856,296.3906
19:23:25:774,-2.6958,-0.3226,7.5969,36.362,-0.0952,1.1289,-0.2828,297.0781
19:23:25:794,-2.2313,0.4352,7.6388,37.3364,-0.1125,1.212,0.1172,297.7188
19:23:25:818,-1.5418,1.0768,7.6328,39.3386,0.0412,1.0485,0.3439,297.9688
19:23:25:886,-1.3335,1.3677,7.0127,38.2526,0.3594,0.7737,0.3204,297.7656
19:23:25:886,-1.3454,1.3055,5.9461,38.2526,0.6433,0.4932,0.1998,297.3281
19:23:25:887,-1.6076,1.2312,5.423,37.3411,0.675,0.3955,0.1164,296.9844
19:23:25:900,-2.1954,1.3857,5.6145,39.2299,0.377,0.3656,0.0901,296.8594
19:23:25:921,-2.2636,1.6119,6.1029,39.2299,0.2939,0.2083,0.1292,296.8594
19:23:25:934,-2.1176,1.8405,6.5842,38.6012,0.2558,-0.0163,0.1143,296.8125
19:23:25:953,-2.1343,1.9926,7.2545,39.0042,0.2258,-0.2256,0.0658,296.8125
19:23:25:973,-2.345,1.9064,8.0734,38.7817,0.2092,-0.3292,0.0325,296.6406
19:23:25:994,-2.77,1.6358,8.7976,37.171,0.1991,-0.3598,0.069,296.5625
19:23:26:017,-3.2177,1.3162,9.3866,38.2055,0.1696,-0.302,0.2054,296.5469
19:23:26:035,-3.3673,1.1774,9.7349,38.862,0.1166,-0.2671,0.3905,296.5938
19:23:26:052,-3.1351,1.2408,10.1288,39.8317,0.0894,-0.3026,0.5271,296.5781
19:23:26:074,-2.7245,1.169,10.0893,37.4424,0.0332,-0.2988,0.5559,296.0156
19:23:26:093,-2.248,0.981,9.4021,38.0287,-0.2049,-0.4288,0.4813,295.4531
19:23:26:116,-2.2169,1.1067,9.4417,40.6193,-0.6158,-1.0045,0.3199,295.4531
19:23:26:134,-3.0393,0.8111,11.849,39.6741,-0.9074,-1.5052,0.1335,294.8594
19:23:26:153,-3.9994,-0.7464,14.2708,38.9013,-0.8441,-1.3417,0.1276,294.3438
19:23:26:174,-4.7296,-2.0201,14.6718,40.4817,-0.4981,-0.7425,0.4065,293.7812
19:23:26:193,-4.7033,-2.2679,14.0457,39.1623,0.0388,-0.0064,0.828,293.7812
19:23:26:217,-4.8362,-1.7328,12.8163,39.6436,0.4822,0.3236,1.2459,293.5156
19:23:26:235,-4.9116,-1.1965,11.3846,39.8567,0.7078,0.021,1.5402,292.8125
19:23:26:253,-4.7979,-0.9978,9.7984,39.3465,0.6606,-0.6389,1.717,291.6406
19:23:26:274,-4.6614,-0.8505,9.4991,37.6262,0.5024,-1.0504,1.909,290.1562
19:23:26:293,-4.0102,-1.005,10.1252,40.3621,0.4372,-1.0916,2.1721,288.375
19:23:26:318,-3.3949,-1.2516,10.8806,38.8204,0.4851,-0.8006,2.4661,286.4531
19:23:26:336,-2.7939,-1.3701,11.193,38.8246,0.6186,-0.2397,2.7847,284.2812
19:23:26:353,-2.7436,-0.9164,10.6519,41.7666,0.7967,0.2242,3.1578,281.9062
19:23:26:373,-2.369,-1.3222,9.3339,38.3806,0.8082,0.6005,3.4712,279
19:23:26:394,-1.4891,-1.6705,7.9872,39.5367,0.5349,0.9167,3.705,275.625
19:23:26:416,-1.4795,-1.7424,7.1133,39.8542,-0.059,1.3792,4.0262,271.9531
19:23:26:435,-1.5286,-1.4802,6.4764,39.3952,-0.8542,1.9377,4.3977,269.8906
19:23:26:453,-1.1431,-1.1402,6.3914,40.0924,-1.6337,2.2805,4.6827,265.5
19:23:26:474,-0.2225,-1.2073,6.6632,39.8031,-2.2057,1.8144,4.7493,260.6562
19:23:26:495,0.5927,-1.1917,6.7985,39.5422,-2.4957,0.6013,4.6134,255.5312
19:23:26:517,0.3437,-0.9571,7.4018,40.4418,-2.6297,0.0591,4.5376,249.75
19:23:26:534,1.0464,-1.1654,8.976,40.6726,-2.5373,-0.1489,4.4377,243.9531
19:23:26:554,1.6952,-1.1809,10.5909,40.0687,-2.1775,-0.1851,4.2172,236.0625
19:23:26:574,1.615,-1.2228,12.1387,38.9867,-1.6273,0.0708,3.9714,230.7969
19:23:26:595,1.1517,-1.388,13.7752,40.3194,-0.9216,0.2152,3.7389,225.75
19:23:26:617,1.032,-0.7919,12.9899,39.5841,-0.15,0.3923,3.4198,221.25
19:23:26:635,1.0991,0.3478,11.5761,39.2258,0.4923,0.4775,2.9916,216.7969
19:23:26:654,1.275,2.1494,10.6016,40.5583,0.8119,0.3465,2.5069,212.6562
19:23:26:672,0.6873,4.0037,8.9149,39.732,0.7038,0.2248,1.881,209.1562
19:23:26:693,-0.4404,2.3793,11.3031,39.4385,-0.1069,-0.4831,1.015,206.0156
19:23:26:718,-1.7967,-0.6482,13.0306,40.6521,-0.6973,-0.0788,0.2879,203.5
19:23:26:734,-2.7113,-1.7615,11.9532,39.5163,-0.5112,0.4935,0.1721,201.8438
19:23:26:753,-2.5904,-1.7831,9.8846,39.2864,0.0545,0.6325,0.5788,201.2031
19:23:26:775,-1.5334,-0.4902,8.211,39.7129,0.475,0.5718,1.088,200.9844
19:23:26:793,-0.6559,1.2492,7.4042,39.7656,0.4899,0.168,1.3101,200.5938
19:23:26:817,-0.6583,1.5616,9.0777,39.5554,0.0617,-0.269,0.9106,199.6719
19:23:26:835,-1.288,0.4902,10.9799,38.4403,-0.2645,-0.3542,0.3638,198.2344
19:23:26:853,-1.2461,-0.0066,11.4791,39.956,-0.1977,-0.2277,0.2499,196.8906
19:23:26:873,-0.9983,-0.2975,10.1396,40.7061,0.0931,0.1214,0.2895,196.25
19:23:26:894,-0.7505,-0.2867,8.3056,40.0912,0.3197,0.4048,0.3625,195.9375
19:23:26:918,-0.5278,-0.0916,7.3156,39.6553,0.3387,0.4602,0.4366,195.6406
19:23:26:937,-0.304,0.0162,7.2713,40.137,0.2369,0.3704,0.4784,195.2656
19:23:26:953,-0.0957,0.2065,7.2629,39.7725,0.1714,0.2623,0.5018,194.8281
19:23:26:973,0.2276,0.4723,7.2905,38.9049,0.1533,0.1369,0.5231,194.2969
19:23:26:994,0.443,0.6159,7.4485,38.3127,0.1331,0.0314,0.4816,193.4688
19:23:27:019,0.3221,0.7177,7.7669,40.176,0.1325,-0.0663,0.3758,192.8906
19:23:27:035,0.2479,0.8302,8.1811,40.4324,0.1411,-0.13,0.2776,192.3281
19:23:27:053,0.1581,0.9212,8.6192,40.1225,0.1477,-0.1838,0.1969,191.9219
19:23:27:073,-0.1292,0.8685,8.9939,40.4561,0.1184,-0.1601,0.1271,191.6406
19:23:27:093,-0.5494,0.9703,9.5877,39.3904,0.0755,-0.0189,0.1015,191.4219
19:23:27:119,-0.8474,1.3258,10.0043,41.3962,0.0633,0.1369,0.1388,191.2969
19:23:27:135,-0.9851,2.0548,10.5442,40.2891,0.1027,0.2735,0.2057,191.1875
19:23:27:153,-1.3813,2.4666,11.7233,39.4082,0.1477,0.1853,0.1782,191.0312
19:23:27:173,-2.035,2.1434,12.5505,41.5379,0.2787,-0.0013,0.044,190.7812
19:23:27:193,-2.3821,1.8286,12.1124,43.5242,0.4894,0.1212,0.0288,190.5781
19:23:27:217,-2.5437,2.2152,10.2389,43.0562,0.6279,0.6591,0.187,190.5469
19:23:27:235,-2.5378,2.8904,8.8802,41.1693,0.4921,0.9348,0.3851,190.5469
19:23:27:253,-2.4827,2.9826,8.9532,43.3757,0.1536,0.9052,0.4459,190.3125
19:23:27:273,-3.0262,2.4271,9.7733,41.4813,-0.2411,0.1875,0.236,189.8438
19:23:27:294,-3.3733,1.5748,10.3227,42.2258,-0.2539,-0.2456,0.1929,189.8438
19:23:27:319,-3.3135,1.1367,10.8459,41.1617,-0.2853,-0.6205,0.113,188.8438
19:23:27:335,-2.9136,0.9284,12.0561,41.528,-0.2267,-0.804,-0.0508,188.5469
19:23:27:351,-2.7053,0.6925,12.6164,43.0248,-0.0478,-0.8181,-0.2484,188.3125
19:23:27:372,-2.5988,0.3801,12.1327,41.251,0.1685,-0.6639,-0.4103,188.2188
19:23:27:391,-2.4827,0.0688,10.7848,39.9278,0.328,-0.5894,-0.4561,188.6562
19:23:27:412,-2.4001,0.4028,9.4249,41.2444,0.3688,-0.6416,-0.3483,189.1875
19:23:27:435,-1.9631,0.8745,8.0853,40.7383,0.2593,-0.6765,-0.2447,189.4844
19:23:27:454,-1.7668,0.5417,7.2845,41.6612,0.0766,-0.5273,-0.2194,190
19:23:27:472,-2.1199,-0.0401,7.2234,42.1109,-0.0203,-0.3119,-0.0455,190.4062
19:23:27:495,-2.2121,-0.313,7.4784,40.8938,0.018,-0.1481,0.2887,190.9531
19:23:27:517,-1.9021,-0.1287,7.3611,40.7989,0.0793,0.0197,0.6057,190.9531
19:23:27:536,-1.4065,0.3585,6.8751,40.3314,0.0793,0.061,0.8073,190.8438
19:23:27:552,-0.9468,0.9906,6.7554,42.9436,0.0572,-0.0905,0.8576,190.3281
19:23:27:573,-0.5458,1.4192,6.8092,42.1253,0.0284,-0.3364,0.7955,189.5
19:23:27:593,-0.1771,1.7783,7.1504,39.2727,-0.0552,-0.5574,0.6544,189.0156
19:23:27:619,0.1593,1.9974,7.9333,38.9732,-0.1737,-0.6176,0.4661,188.0938
19:23:27:638,0.2755,1.9626,8.8754,40.7439,-0.2558,-0.4908,0.2808,187.2188
19:23:27:657,0.2563,2.0069,9.6643,40.3795,-0.2912,-0.3156,0.142,186.5156
19:23:27:673,0.3305,2.1901,9.9827,40.6578,-0.3466,-0.3143,-0.021,186.0625
19:23:27:694,0.5819,2.25,10.6495,39.885,-0.4076,-0.4562,-0.2625,185.7812
19:23:27:718,0.631,1.7975,11.612,39.5095,-0.4185,-0.5681,-0.4942,185.6562
19:23:27:735,0.5663,0.9487,12.5601,39.2197,-0.3287,-0.5566,-0.6231,185.7031
19:23:27:752,0.6884,0.0569,13.094,40.6228,-0.1242,-0.5255,-0.629,186.0469
19:23:27:773,0.9075,-0.1478,12.7301,38.7235,0.0321,-0.4099,-0.5741,186.6562
19:23:27:793,1.1817,0.4411,12.0466,39.6227,-0.0448,-0.2477,-0.6364,187.4062
19:23:27:818,1.2463,0.7739,11.4743,40.5028,-0.3479,-0.2533,-0.8495,188.125
19:23:27:838,1.1493,0.0868,12.3123,40.2162,-0.5554,-0.0887,-1.1073,188.8125
19:23:27:856,0.6011,-0.9702,13.2269,38.4989,-0.4667,0.1752,-1.1848,189.9844
19:23:27:873,0.4047,-2.0847,12.7876,40.3029,-0.2576,0.3553,-1.0213,191.1406
19:23:27:958,0.4598,-2.232,11.7389,40.759,-0.1069,0.3124,-0.7294,192.5
19:23:27:959,0.6549,-1.333,11.1906,39.4855,-0.0685,-0.0488,-0.4317,193.7969
19:23:27:959,1.0356,-0.4555,11.0972,39.6557,-0.0797,-0.2477,-0.2769,194.7344
19:23:27:959,1.3002,-0.1024,11.2361,41.1676,-0.0017,0.0746,-0.3283,195.3906
19:23:27:972,-0.1352,-0.2699,8.7366,41.0032,0.091,0.4533,-0.2817,195.7656
19:23:27:993,-0.1016,0.167,7.4964,39.187,0.1791,0.702,-0.0532,196.0938
19:23:28:019,0.619,0.8601,7.0798,40.5591,0.2606,0.6128,0.191,196.4531
19:23:28:034,1.4091,1.3665,7.2462,39.5731,0.36,0.2618,0.281,196.625
19:23:28:052,1.7515,1.4922,7.3228,38.775,0.4835,-0.0652,0.1881,196.5156
19:23:28:071,1.6796,1.3557,7.1504,40.3658,0.593,-0.2368,0.0269,196.1875
19:23:28:092,1.3564,1.2851,6.8032,39.398,0.622,-0.2147,-0.1075,195.8906
19:23:28:117,1.0655,1.4946,6.7769,40.2828,0.5227,-0.0048,-0.1768,195.7812
19:23:28:136,0.9135,1.8597,7.3731,39.8681,0.3419,0.2328,-0.2008,195.8438
19:23:28:151,0.522,2.2907,8.0399,40.5152,0.2191,0.3872,-0.2194,196.0312
19:23:28:172,-0.031,2.7061,8.7569,39.4339,0.1869,0.3968,-0.2079,196.2344
19:23:28:193,-0.213,2.9287,9.5626,41.2864,0.1975,0.339,-0.1398,196.4375
19:23:28:219,-0.1184,3.0209,10.373,41.205,0.2191,0.2708,-0.0189,196.6406
19:23:28:235,-0.2417,2.6761,11.5031,40.9995,0.2423,0.1188,0.0626,196.8281
19:23:28:253,-0.4584,1.922,12.3219,40.4718,0.3227,-0.0554,0.0981,196.875
19:23:28:274,-0.5446,1.4048,11.7245,39.1239,0.451,-0.0157,0.195,196.8281
19:23:28:293,-0.4835,1.5724,10.3706,42.5157,0.4292,0.2818,0.3412,196.6875
19:23:28:318,-0.6056,1.8777,10.6878,42.5157,0.1208,0.3558,0.3479,196.4844
19:23:28:337,-0.62,1.2648,12.9647,39.4134,-0.2222,-0.0589,0.1806,196.0625
19:23:28:351,-1.2078,-0.0592,14.6024,40.3053,-0.2973,-0.5007,-0.0543,195.625
19:23:28:373,-1.9416,-1.0098,14.5724,40.1034,-0.1269,-0.5476,-0.1297,195.4219
19:23:28:392,-2.0876,-1.1761,12.9611,41.2559,0.0673,-0.2205,0.0344,195.5312
19:23:28:418,-1.6687,-0.6207,11.0314,41.1112,0.1168,0.1513,0.2797,195.75
19:23:28:436,-0.9384,0.0892,9.8152,39.6908,0.014,0.3308,0.416,195.7344
19:23:28:456,-0.4763,0.5213,9.0251,39.5678,-0.0952,0.3662,0.4001,195.4062
19:23:28:472,-0.4943,0.6794,8.1177,41.7473,-0.1652,0.3944,0.2906,194.8906
19:23:28:492,-0.8199,0.5644,7.4018,39.8594,-0.2195,0.4115,0.1873,194.4062
19:23:28:520,-1.1359,0.4974,6.9098,41.499,-0.2741,0.3896,0.1708,194.0312
19:23:28:535,-1.1778,0.6004,6.5914,39.2837,-0.3125,0.3712,0.2565,193.7812
19:23:28:553,-1.1108,0.8314,6.4968,40.4746,-0.3149,0.3063,0.3875,193.5312
19:23:28:573,-0.9109,1.072,6.5722,40.5256,-0.2914,0.1862,0.5204,193.1875
19:23:28:592,-0.6643,1.2384,6.9433,41.3298,-0.2331,0.0346,0.623,192.7344
19:23:28:619,-0.4524,1.4024,7.3264,39.9202,-0.1226,-0.1483,0.6856,192.1094
19:23:28:638,-0.1998,1.5449,7.7035,39.813,-0.0012,-0.297,0.718,191.3906
19:23:28:655,0.0959,1.7567,8.1117,39.8455,0.0692,-0.3404,0.7306,190.6562
19:23:28:673,0.5604,2.0943,8.6001,40.402,0.0433,-0.1577,0.6307,189.8594
19:23:28:695,0.9255,2.396,8.9101,39.5107,-0.0352,0.049,0.4845,189.8594
19:23:28:716,0.8728,2.6306,9.213,39.35,-0.0944,0.1209,0.3218,187.2969
19:23:28:734,0.7543,2.7504,9.7218,38.6888,-0.1413,-0.0131,0.1415,187.2969
19:23:28:752,0.6813,2.5408,10.7597,40.3068,-0.153,-0.1742,-0.0511,187.0469
19:23:28:771,0.443,1.9878,11.8179,39.9323,-0.1689,-0.2541,-0.1864,186.6562
19:23:28:791,0.0432,1.1546,12.9228,40.591,-0.1516,-0.2269,-0.2013,186.5156
19:23:28:811,-0.1124,0.2089,13.9404,39.694,0.0103,-0.089,-0.038,186.5781
19:23:28:834,0.303,-0.0581,13.5381,39.4626,0.2191,0.0831,0.1828,186.8125
19:23:28:851,1.1098,0.4711,11.9436,39.589,0.1978,0.0413,0.1726,187.0469
19:23:28:871,1.8616,1.0337,11.2146,39.4024,-0.0326,-0.1467,-0.1443,187.1094
19:23:28:893,2.1669,0.6434,11.7592,40.6691,-0.3112,-0.2671,-0.5757,186.8906
19:23:28:918,1.4031,-0.7009,13.0629,40.9087,-0.4584,-0.1167,-0.8293,186.7031
19:23:28:935,-0.0585,-1.9794,14.0493,40.1432,-0.3255,0.1547,-0.7246,186.875
19:23:28:954,-0.772,-2.2847,13.3035,41.5908,-0.0283,0.3063,-0.3717,187.5625
19:23:28:971,-0.1795,-1.3976,11.1032,41.2943,0.1789,0.1912,-0.0966,188.5156
19:23:28:992,0.8058,-0.1718,9.2417,42.1469,0.2271,-0.0192,-0.0988,189.2969
19:23:29:011,1.3193,0.6853,8.0985,40.9577,0.1973,-0.0855,-0.2721,189.6875
19:23:29:033,1.3073,0.8889,7.1767,38.8556,0.128,-0.0074,-0.4458,189.7812
19:23:29:054,0.9674,0.9104,6.4956,42.4112,0.0337,0.1337,-0.5763,189.8906
19:23:29:083,0.4299,0.8505,6.0191,42.1057,-0.0534,0.2288,-0.6335,190.2188
19:23:29:091,-0.0466,0.8577,5.9796,41.603,-0.0765,0.2186,-0.6026,190.7188
19:23:29:112,-0.2381,1.1031,6.1329,41.3487,-0.0334,0.1619,-0.5387,191.3438
19:23:29:136,-0.2728,1.5245,6.0359,41.577,-0.0361,0.0676,-0.5142,192.0469
19:23:29:153,-0.3806,1.9208,6.4704,42.7096,-0.1048,0.0037,-0.5355,193.0312
19:23:29:172,-0.6104,2.0728,7.6412,41.7098,-0.0952,0.0322,-0.5422,193.5781
19:23:29:193,-1.1671,2.056,8.4385,43.8875,-0.035,0.0791,-0.4705,194.1719
19:23:29:219,-1.5442,2.1087,9.5087,42.9154,0.104,0.1103,-0.3193,194.7969
19:23:29:235,-1.6363,2.3122,10.5155,43.6497,0.3448,0.1198,-0.1507,195.375
19:23:29:253,-1.7022,2.481,10.3538,43.531,0.4766,0.1422,-0.005,195.8125
19:23:29:271,-1.6076,2.6258,10.1192,43.461,0.4332,0.1491,0.1071,196.0781
19:23:29:292,-1.3299,2.4415,10.4245,44.0261,0.3325,0.1609,0.1894,196.1562
19:23:29:311,-1.0809,1.9291,11.0709,43.9616,0.2806,0.2253,0.2704,196.0938
19:23:29:336,-1.2485,1.4072,11.5665,44.4269,0.316,0.3132,0.3963,195.9375
19:23:29:351,-1.5094,1.2719,11.1535,45.2897,0.2913,0.5063,0.5412,195.6562
19:23:29:372,-1.5561,1.9854,10.1779,45.0974,0.002,0.5627,0.5718,195.2969
19:23:29:392,-1.4999,1.8118,11.8574,45.1792,-0.3658,0.3486,0.4661,194.7188
19:23:29:411,-2.0984,0.6351,13.2999,46.2704,-0.5394,0.0045,0.2587,194
19:23:29:432,-2.8765,-0.7871,13.9894,46.0461,-0.4709,-0.3393,0.1415,193.3281
19:23:29:455,-2.91,-1.74,13.8242,45.5276,-0.2893,-0.5132,0.2709,192.8906
19:23:29:471,-2.0661,-1.7496,12.3734,44.7332,-0.0867,-0.4663,0.5574,192.6875
19:23:29:491,-0.8199,-0.9798,10.4281,45.4627,0.0076,-0.3398,0.8171,192.5156
19:23:29:512,0.1402,-0.3585,9.3172,46.6868,-0.0992,-0.2866,0.8557,192.1094
19:23:29:536,0.2982,-0.0664,8.8862,43.9029,-0.276,-0.1771,0.6991,191.3281
19:23:29:552,0.1174,-0.0437,8.5007,46.1839,-0.3996,-0.0053,0.5258,190.3594
19:23:29:582,-0.2094,0.0533,7.8016,45.0134,-0.4238,0.1846,0.435,189.1562
19:23:29:590,-0.4548,0.1742,6.9912,43.8721,-0.3863,0.3079,0.4376,188.5469
19:23:29:613,-0.4572,0.4375,6.6704,44.2796,-0.325,0.2487,0.5122,188.0156
19:23:29:634,-0.2022,0.7572,7.0331,46.0012,-0.2195,-0.0264,0.5979,187.5156
19:23:29:653,0.1976,1.0301,7.6891,46.1138,-0.0515,-0.4053,0.6312,186.9062
19:23:29:672,0.4778,1.2612,7.8723,43.9699,0.1485,-0.6567,0.6062,186.2188
19:23:29:691,0.6657,1.388,8.0267,43.9745,0.2495,-0.6906,0.5327,185.5469
19:23:29:712,0.9195,1.4946,8.2302,45.6783,0.2162,-0.4772,0.4291,184.9062
19:23:29:737,0.9853,1.4682,8.138,45.0249,0.1333,-0.0844,0.3282,184.3438
19:23:29:754,1.0703,1.6155,8.3092,45.3605,0.0082,0.2959,0.2014,183.8906
19:23:29:773,1.0583,1.7304,8.4708,47.0076,-0.0518,0.6099,0.085,183.5469
19:23:29:792,0.6035,1.7831,8.8084,45.8678,-0.0605,0.4842,-0.0386,183.2969
19:23:29:812,0.1725,1.4503,9.2848,45.7228,-0.0565,0.1563,-0.1747,183.1562
19:23:29:833,0.024,0.9715,10.3814,45.9992,-0.059,-0.0778,-0.3499,183.1406
19:23:29:850,0.1126,0.2664,12.4871,46.3809,-0.0712,-0.2152,-0.5142,183.2188
19:23:29:873,0.1581,-0.1634,14.0457,46.7563,-0.0062,-0.2051,-0.6064,183.5156
19:23:29:892,0.37,-0.1239,13.6459,47.7371,0.1696,0.0277,-0.5733,184.0156
19:23:29:911,0.4873,0.2951,12.5386,46.4826,0.2029,0.269,-0.519,184.6562
19:23:29:934,0.364,0.6255,12.6224,46.4428,-0.056,0.2839,-0.5898,185.3594
19:23:29:954,-0.1232,-0.24,14.0289,46.2133,-0.4363,0.1902,-0.7933,185.9688
19:23:30:038,-1.3047,-1.3988,15.1231,46.1192,-0.5988,0.1827,-0.9414,186.5312
19:23:30:039,-2.0733,-1.9435,14.1558,45.8013,-0.3546,0.3334,-0.845,187.7656
19:23:30:039,-1.4855,-1.5796,11.8873,44.8083,0.058,0.2453,-0.4775,188.8125
19:23:30:039,-0.1519,-0.4603,9.8487,44.3456,0.361,-0.0176,-0.0649,189.7031
19:23:30:060,1.1852,0.6997,9.1196,45.2067,0.3986,-0.3944,0.0986,190.3281
19:23:30:071,1.6988,1.2875,8.63,43.7036,0.1341,-0.4203,-0.4263,190.3281
19:23:30:094,1.378,1.3126,8.2146,44.5012,-0.0078,-0.1143,-0.6926,190.25
19:23:30:120,0.6561,1.011,7.6939,45.4792,-0.0912,0.1369,-0.8205,190.4062
19:23:30:130,-0.1196,0.6602,7.3455,44.3443,-0.0893,0.2264,-0.8183,190.9219
19:23:30:152,-0.7792,0.5549,7.1049,44.5738,-0.0076,0.1483,-0.7102,192.6094
19:23:30:171,-0.9564,0.7332,7.1779,45.7044,0.1094,0.0437,-0.5856,192.6094
19:23:30:190,-0.6643,1.0325,7.0846,43.5317,0.1829,0.0149,-0.5097,193.5312
19:23:30:211,-0.377,1.4299,7.0714,44.327,0.1866,0.0509,-0.4953,194.3281
19:23:30:236,-0.2632,1.7855,7.2964,44.0354,0.1624,0.1113,-0.5366,194.9688
19:23:30:254,-0.4308,1.9627,7.6975,43.7526,0.1261,0.1768,-0.5813,195.5625
19:23:30:274,-0.7744,1.9866,8.2553,44.3442,0.0984,0.2836,-0.5653,196.125
19:23:30:291,-1.1754,2.0046,8.8084,45.73,0.0889,0.3888,-0.5041,196.7344
19:23:30:312,-1.7716,1.8046,9.4297,44.023,0.144,0.4535,-0.372,197.3594
19:23:30:336,-2.2923,1.5281,9.7996,44.0725,0.2612,0.4298,-0.1387,197.9844
19:23:30:354,-2.3426,1.4611,10.106,42.9077,0.3932,0.2908,0.1082,198.5312
19:23:30:372,-1.8338,1.4922,10.4831,43.3496,0.4785,0.1571,0.265,198.9062
19:23:30:394,-1.4388,1.3426,11.0063,43.7648,0.4548,0.1694,0.3191,199.0469
19:23:30:410,-1.5657,1.0337,11.3187,43.5452,0.3738,0.3595,0.3921,198.9219
19:23:30:430,-1.5825,1.0337,10.9069,43.1904,0.1805,0.5151,0.4603,198.6406
19:23:30:452,-1.5956,1.3198,10.4807,42.2318,-0.1066,0.4466,0.4147,198.0781
19:23:30:470,-1.7309,1.4671,10.877,43.0615,-0.3426,0.1707,0.2563,197.5469
19:23:30:491,-2.0673,1.0086,11.8706,44.1181,-0.3964,-0.2887,0.1015,197.0156
19:23:30:511,-2.533,0.1766,12.8534,42.6342,-0.2946,-0.6855,0.0922,196.5625
19:23:30:535,-2.6706,-0.4483,13.2101,40.6395,-0.1514,-0.9303,0.2019,196.3438
19:23:30:556,-1.7656,-0.3861,12.8989,41.3971,-0.0504,-1.0738,0.2658,196.2812
19:23:30:572,0.1953,0.4783,12.2381,39.747,-0.0403,-1.0911,0.0706,196.1875
19:23:30:591,1.4809,1.1726,11.7556,40.9936,-0.1018,-0.7947,-0.3304,195.9844
19:23:30:612,1.0536,0.9703,11.1775,41.7602,-0.1506,-0.2474,-0.6492,195.8594
19:23:30:635,0.2324,0.2915,9.863,40.8311,-0.1599,0.3486,-0.7179,196.0781
19:23:30:653,-0.8462,-0.0221,8.2326,41.6607,-0.1428,0.7499,-0.5552,196.7188
19:23:30:672,-1.7836,-0.0449,7.0259,41.4562,-0.0677,0.7803,-0.2466,197.5312
19:23:30:692,-2.0421,0.2436,6.3914,40.2883,0.0596,0.4389,0.0858,198.2031
19:23:30:711,-1.6363,0.5992,6.091,39.3703,0.1842,-0.1001,0.2914,198.5938
19:23:30:736,-1.1359,0.9164,6.1808,39.8505,0.2601,-0.5822,0.329,198.625
19:23:30:753,-0.4967,0.6686,7.7741,41.3974,0.2873,-0.8368,0.3082,198.3906
19:23:30:771,-0.4883,0.3657,8.2805,40.9523,0.291,-0.661,0.2677,198.0625
19:23:30:790,-0.353,0.1814,8.0734,40.6505,0.2492,-0.0266,0.2776,197.7656
19:23:30:810,-0.2633,0.3154,7.6592,40.6505,0.1336,0.6799,0.3409,197.5312
19:23:30:838,-0.1328,0.8841,7.3934,40.3602,-0.0571,1.0586,0.4371,197.2812
19:23:30:854,0.0995,1.3222,7.7956,40.3713,-0.2757,1.0693,0.4813,196.9062
19:23:30:872,0.0791,1.5473,8.1165,40.0144,-0.3583,0.9686,0.3335,196.0469
19:23:30:890,-0.456,1.096,10.1192,40.2821,-0.3487,0.3489,0.0589,195.4062
19:23:30:912,-0.7517,0.3071,11.5521,39.2315,-0.2422,-0.1598,-0.1483,194.9062
19:23:30:935,-0.8846,-0.0856,12.7732,41.6848,-0.0941,-0.3894,-0.1595,194.7969
19:23:30:953,-0.0717,-0.1323,12.8103,39.8383,0.0396,-0.5007,-0.0849,194.9531
19:23:30:970,0.6968,0.2735,12.207,39.7706,0.0851,-0.4232,-0.0884,195.1562
19:23:30:991,0.5843,0.5225,12.8163,40.6029,-0.0544,-0.5358,-0.2487,195.2344
19:23:31:010,-0.5661,-0.6351,14.7269,40.5045,-0.2851,-0.8424,-0.5411,195.3594
19:23:31:030,-1.932,-1.9902,16.5105,41.2655,-0.3729,-0.8631,-0.6839,195.5625
19:23:31:054,-1.7776,-2.4654,15.3182,39.712,-0.1,-0.4024,-0.3981,196.0625
19:23:31:070,-0.7277,-1.3425,12.3674,39.9112,0.27,-0.1904,0.1242,196.8906
19:23:31:090,0.9578,0.2125,9.9911,40.1943,0.4018,-0.2448,0.5511,197.5781
19:23:31:111,2.1405,1.3438,9.0466,39.1576,0.2556,-0.3542,0.5702,197.7656
19:23:31:138,2.01,1.7568,8.6983,39.4822,0.0457,-0.4035,0.2421,197.3594
19:23:31:155,1.4678,1.6526,8.2003,38.9138,-0.1141,-0.2511,-0.0769,196.6719
19:23:31:175,0.9566,1.6526,7.6987,38.6652,-0.1948,-0.004,-0.2324,196.25
19:23:31:190,0.5257,2.0022,7.5167,38.7688,-0.1815,0.1254,-0.2617,196.2188
19:23:31:211,0.4454,2.1566,7.6759,39.8692,-0.0605,0.0149,-0.234,196.4219
19:23:31:235,0.5005,2.3673,7.7202,38.1416,0.1701,-0.2328,-0.2282,196.7031
19:23:31:252,0.7327,2.5313,7.4102,40.8272,0.4178,-0.3811,-0.2676,196.9688
19:23:31:270,0.7423,2.5516,7.318,41.0036,0.5142,-0.3995,-0.3731,197.2344
19:23:31:291,0.3485,2.3924,7.6173,39.3585,0.4601,-0.2037,-0.4964,197.5312
19:23:31:310,-0.1699,2.2883,8.405,41.108,0.3533,-0.0213,-0.56,198.1719
19:23:31:336,-0.0538,2.2619,9.2118,39.8148,0.3198,0.02,-0.5294,198.75
19:23:31:352,0.2862,2.3972,9.5027,41.4735,0.364,0.0703,-0.4524,199.3594
19:23:31:370,0.3688,2.5361,9.1627,41.5325,0.4276,0.1862,-0.397,199.9688
19:23:31:391,0.2707,2.5409,8.7665,41.7546,0.4585,0.2269,-0.3563,200.4688
19:23:31:411,0.066,2.5229,8.733,40.5016,0.4329,0.1502,-0.328,200.8906
19:23:31:436,-0.0166,2.4894,9.1376,41.1001,0.3448,0.0738,-0.2822,201.2656
19:23:31:454,-0.1974,2.3362,9.8678,41.1887,0.1086,0.2075,-0.1691,201.625
19:23:31:473,-0.2561,2.1698,10.5729,41.7799,0.0859,0.2831,-0.0524,201.9375
19:23:31:490,-0.2848,2.1614,10.9931,41.1697,0.153,0.3638,0.0621,202.1875
19:23:31:510,-0.3985,2.3374,10.1192,41.8214,0.1443,0.319,0.1463,202.3438
19:23:31:537,-0.2034,2.3529,9.1388,41.6984,-0.1261,0.0346,0.1327,202.2656
19:23:31:558,0.0683,2.0872,10.1707,43.5449,-0.4523,-0.3278,0.0083,202.2656
19:23:31:574,-0.2513,1.1678,12.8893,43.8335,-0.4299,-0.5755,-0.0982,202.0469
19:23:31:591,-1.2425,0.1287,14.351,42.1136,-0.1096,-0.5822,0.0142,201.8906
19:23:31:609,-1.6184,-0.5501,13.7009,44.1155,0.2095,-0.339,0.2451,201.9062
19:23:31:631,-1.3347,-0.3107,11.3582,43.7757,0.2194,-0.2309,0.4184,202.0938
19:23:31:653,-0.5075,0.2245,9.6416,43.3131,-0.0382,-0.2282,0.4323,202.1562
19:23:31:672,0.1605,0.4507,9.304,44.9557,-0.2797,-0.2884,0.3199,201.9219
19:23:31:694,0.1581,0.4304,9.7218,44.2004,-0.366,-0.2796,0.2283,201.4844
19:23:31:709,0.0312,0.2819,9.6859,45.2987,-0.3389,-0.0852,0.2419,201.0312
19:23:31:730,-0.1028,0.4316,8.9018,43.8734,-0.2883,0.1513,0.3196,200.7031
19:23:31:755,-0.0645,0.7524,8.0829,45.375,-0.2286,0.241,0.3873,200.375
19:23:31:778,0.0241,1.1223,7.3898,46.885,-0.1676,0.2357,0.4219,200.0625
19:23:31:789,0.1929,1.4503,6.7973,46.2878,-0.1341,0.1526,0.407,199.625
19:23:31:810,0.2623,1.7041,6.6811,46.1367,-0.1237,0.0173,0.3495,199.1562
19:23:31:830,0.1474,1.7125,7.3228,45.7307,-0.0605,-0.1462,0.3015,198.6562
19:23:31:854,-0.0657,1.4898,8.1225,46.5267,0.0979,-0.2056,0.3282,198.2031
19:23:31:873,-0.043,1.4718,8.1153,46.8612,0.2103,-0.1819,0.3814,197.8594
19:23:31:890,0.3018,1.8501,7.731,47.5624,0.1618,-0.1436,0.3686,197.5312
19:23:31:911,0.6741,2.2883,8.0219,48.487,0.0172,-0.0796,0.2549,196.7188
19:23:31:936,0.8465,2.5971,8.8898,49.1605,-0.1151,0.0506,0.0677,196.7188
19:23:31:954,0.4287,2.5863,9.6308,49.0638,-0.1934,0.2024,-0.0934,196.375
19:23:31:972,-0.2238,2.1817,10.3515,49.5385,-0.19,0.2048,-0.1456,196.1875
19:23:31:990,-0.699,1.6789,11.1224,50.3186,-0.1359,0.0336,-0.0841,196.2031
19:23:32:011,-0.4955,1.2552,12.189,49.8636,-0.0707,-0.1707,0.0176,196.3281
19:23:32:036,0.0432,0.8338,13.3011,49.1487,0.0646,-0.2096,0.1396,196.4688
19:23:32:054,0.7842,0.665,13.1922,52.4389,0.1951,-0.0842,0.2523,196.5156
19:23:32:122,1.5683,0.6111,11.6994,52.4299,0.1248,-0.0741,0.2214,196.4531
19:23:32:123,1.9466,0.829,10.8016,52.8557,-0.1879,-0.3103,0.0336,196.2344
19:23:32:123,2.1226,0.647,12.3829,51.8726,-0.4531,-0.4711,-0.2205,195.9375
19:23:32:132,1.4977,-0.258,14.6502,51.2735,-0.3863,-0.2743,-0.3251,195.7969
19:23:32:151,1.0392,-1.1582,13.2508,52.7954,-0.06,0.0506,-0.1264,195.9531
19:23:32:169,2.1357,-0.1119,10.5969,51.3638,0.2225,0.2724,0.199,196.1562
19:23:32:190,3.2431,1.1929,9.5075,53.0372,0.2455,0.1212,0.3098,196.6875
19:23:32:210,3.3903,1.6813,9.1077,53.5898,0.1373,-0.1273,0.0493,196.625
19:23:32:232,2.429,1.4563,8.5845,53.0207,-0.0118,-0.0754,-0.3544,196.25
19:23:32:253,1.1422,1.0888,8.132,53.4071,-0.1807,0.22,-0.6149,195.9844
19:23:32:272,0.206,0.9691,7.7777,53.3462,-0.2792,0.5545,-0.6383,196.1719
19:23:32:289,-0.1172,1.1295,7.2545,53.7104,-0.2392,0.6823,-0.4937,196.75
19:23:32:309,0.1079,1.5269,7.0451,54.3166,-0.0882,0.4967,-0.2996,197.4688
19:23:32:329,0.625,1.9411,7.0187,54.902,0.1168,0.2272,-0.1757,198.0781
19:23:32:353,0.9877,2.3541,7.0702,56.1725,0.3038,0.0314,-0.1906,198.4531
19:23:32:371,0.8979,2.5121,7.2318,55.2867,0.4092,-0.0282,-0.3185,198.6719
19:23:32:390,0.3341,2.3553,7.2869,55.8308,0.4308,0.024,-0.4721,198.8438
19:23:32:410,-0.4727,2.1685,7.3324,54.8021,0.3717,0.1664,-0.5464,199.1094
19:23:32:430,-0.6008,2.2033,7.8878,56.9478,0.2518,0.2802,-0.4729,199.5625
19:23:32:453,-0.4668,2.3816,8.7366,55.7358,0.1634,0.327,-0.3387,200.1562
19:23:32:474,-0.468,2.4128,9.5075,57.3618,0.1863,0.2677,-0.242,200.7031
19:23:32:493,-0.7469,2.3002,9.9564,58.3271,0.3008,0.1723,-0.1728,201.125
19:23:32:510,-1.1838,2.1279,10.4305,58.0351,0.3877,0.1196,-0.0766,201.4219
19:23:32:531,-1.2796,2.0752,10.6459,57.1231,0.4119,0.1023,0.0784,201.625
19:23:32:552,-1.0641,2.3002,10.871,58.0796,0.3522,0.1417,0.256,201.7656
19:23:32:574,-0.6523,2.5265,10.3742,58.5882,0.2518,0.2977,0.3817,201.7656
19:23:32:590,-0.11,2.6258,9.9468,58.4703,0.0787,0.3294,0.3942,201.5625
19:23:32:610,-0.0633,2.469,11.4456,56.707,-0.2086,0.0186,0.2594,201.1719
19:23:32:631,-0.8462,1.3055,14.1858,58.8612,-0.4723,-0.4048,0.0211,200.6719
19:23:32:654,-1.9224,0.0425,15.6031,57.4653,-0.4558,-0.4602,-0.0964,200.125
19:23:32:672,-2.448,-0.6339,14.2325,59.1047,-0.1902,-0.0778,0.0597,200.1562
19:23:32:690,-2.0397,-0.1622,11.5102,57.5798,0.0564,0.314,0.4025,200.3125
19:23:32:713,-0.7804,0.4651,10.2018,57.7943,0.0684,0.3055,0.6701,200.2656
19:23:32:738,-0.0334,0.7201,9.9899,56.8721,-0.0094,-0.0139,0.6589,198.9844
19:23:32:754,-0.0059,0.562,10.1228,56.5935,-0.06,-0.2277,0.4256,198.2344
19:23:32:772,-0.213,0.4627,9.5889,57.8175,-0.0574,0.0325,0.4275,197.6719
19:23:32:790,-0.3099,0.6004,8.5354,57.7631,-0.0803,0.2948,0.4661,197.2344
19:23:32:810,-0.1675,0.8589,7.4593,56.7556,-0.1087,0.4216,0.4872,196.75
19:23:32:830,-0.0693,1.175,6.674,57.1848,-0.1119,0.3385,0.4682,196.75
19:23:32:855,-0.0214,1.3785,6.328,56.6184,-0.0803,0.0607,0.4248,196.1719
19:23:32:873,0.0073,1.4419,6.5483,56.1371,-0.0033,-0.2706,0.3926,195.5938
19:23:32:889,0.0887,1.4611,7.1229,54.4895,0.0894,-0.4967,0.3758,195.0156
19:23:32:909,0.279,1.4922,7.6245,54.7629,0.1464,-0.4935,0.3503,194.5156
19:23:32:930,0.5005,1.564,7.98,55.4605,0.1517,-0.3092,0.3212,194.125
19:23:32:952,0.5639,1.7855,8.0004,57.1757,0.1115,-0.1268,0.2714,193.75
19:23:32:970,0.5759,2.1374,8.041,54.8239,0.0372,-0.0533,0.1859,193.4219
19:23:32:989,0.473,2.4858,8.3284,53.2339,-0.0323,-0.0554,0.081,193.0938
19:23:33:009,0.2527,2.6438,8.8563,52.8559,-0.0792,-0.0722,-0.026,192.8125
19:23:33:030,-0.0909,2.6606,9.389,53.8747,-0.1082,-0.1529,-0.1121,192.6094
19:23:33:052,-0.2417,2.4487,10.2952,54.1296,-0.1444,-0.2322,-0.1765,192.5156
19:23:33:071,-0.4332,1.922,11.3415,52.861,-0.1657,-0.277,-0.184,192.5625
19:23:33:089,-0.5386,1.2624,12.5996,52.1356,-0.1191,-0.3063,-0.0812,192.7031
19:23:33:112,-0.0609,0.8051,13.4148,51.2453,0.0095,-0.2362,0.0736,193.0625
19:23:33:138,0.7842,0.7093,12.5206,53.2632,0.0071,-0.1942,0.1207,193.2656
19:23:33:154,1.3732,1.0493,11.6838,50.2767,-0.2046,-0.2927,0.0112,193.2969
19:23:33:171,1.8341,0.993,12.4787,51.383,-0.4166,-0.3249,-0.2229,193.1875
19:23:33:190,1.4426,0.0712,13.6339,51.6542,-0.4946,-0.146,-0.4229,193.125
19:23:33:209,0.3987,-1.0636,13.9894,49.9732,-0.4355,0.1409,-0.3813,193.2812
19:23:33:230,0.0863,-1.6861,12.942,50.5659,-0.3279,0.3481,-0.1512,193.7188
19:23:33:253,0.5807,-1.4407,11.1451,49.6278,-0.243,0.3483,0.1284,194.2344
19:23:33:275,1.5719,-0.4004,9.8247,48.7939,-0.1543,0.1731,0.277,194.5156
19:23:33:293,2.5104,0.8087,9.0071,48.7939,-0.043,-0.0027,0.1708,194.5
19:23:33:309,2.781,1.4886,8.0925,49.2106,0.0063,0.008,-0.0657,194.2188
19:23:33:332,2.5428,1.6215,7.0115,49.9786,-0.0483,0.2027,-0.2788,193.9375
19:23:33:351,2.0914,1.6287,6.1413,48.1362,-0.1596,0.4341,-0.437,193.875
19:23:33:369,1.5372,1.7208,5.8001,48.4248,-0.2499,0.5153,-0.5446,194.0625
19:23:33:392,1.1398,1.8992,6.0658,46.7374,-0.2478,0.4091,-0.5992,194.4375
19:23:33:409,0.9159,2.0704,6.583,48.1055,-0.1705,0.2469,-0.6556,194.9688
19:23:33:431,0.6837,2.0836,7.1959,47.0102,-0.0861,0.0804,-0.7121,195.5781
19:23:33:455,0.2826,1.9555,7.9058,47.5689,-0.0334,0.0671,-0.7238,196.2656
19:23:33:472,0.024,1.8298,8.624,47.5447,0.0004,0.1822,-0.6892,197
19:23:33:492,-0.4033,1.7999,9.1567,46.9244,0.0279,0.3587,-0.6284,197.8281
19:23:33:510,-0.8833,1.6909,9.4728,47.3242,0.058,0.5148,-0.5134,198.625
19:23:33:531,-1.5765,1.8154,9.5721,46.9456,0.1174,0.5814,-0.3552,198.9688
19:23:33:554,-1.6232,1.9806,9.5458,46.3269,0.1839,0.5278,-0.1829,199.6562
19:23:33:569,-1.519,2.1674,9.9648,45.0374,0.2225,0.383,-0.0343,200.4062
19:23:33:589,-1.2952,2.22,10.3874,46.011,0.2558,0.2045,0.076,200.6562
19:23:33:609,-1.1204,2.1662,10.8913,44.6522,0.2668,0.0258,0.1393,200.7344
19:23:33:629,-0.9588,2.0943,11.0745,45.2206,0.2263,-0.1249,0.1633,200.6875
19:23:33:657,-0.6954,2.0022,11.5821,42.9471,0.0399,-0.2349,0.1332,200.5625
19:23:33:676,-0.6703,1.5078,14.4767,43.1238,-0.3178,-0.5835,0.0336,200.4062
19:23:33:691,-1.2078,0.3645,17.3485,44.0017,-0.5085,-0.8349,-0.0961,200.25
19:23:33:709,-2.2995,-0.7775,17.8681,44.0904,-0.2824,-0.6765,-0.1057,200.1875
19:23:33:728,-2.9208,-1.175,14.6838,42.1821,0.242,-0.1787,0.1668,200.2812
19:23:33:753,-2.272,-0.6243,10.5549,43.2944,0.61,0.3481,0.656,200.4844
19:23:33:770,-0.9863,0.3047,8.5857,43.0395,0.5602,0.4501,1.015,200.5469
19:23:33:789,-0.365,0.8098,9.0047,42.4811,0.3104,0.1539,1.0288,200.1094
19:23:33:809,-0.2477,0.6877,9.8918,40.6509,0.1847,-0.1768,0.8842,199.0625
19:23:33:831,-0.3662,0.428,9.6045,39.7243,0.2585,-0.2964,0.783,197.8281
19:23:33:854,-0.304,0.4292,8.3152,40.5567,0.3826,-0.1814,0.7868,196.7344
19:23:33:872,0.1258,0.7189,6.9002,41.1134,0.4295,-0.0205,0.8342,195.875
19:23:33:889,0.5568,1.1391,5.7881,39.2862,0.3759,0.0948,0.8267,195.0156
19:23:33:909,0.7926,1.4479,5.1824,38.3671,0.2588,0.1417,0.7204,194.1094
19:23:33:929,0.7603,1.5341,5.0172,39.4569,0.1131,0.1063,0.5383,193.1875
19:23:33:952,0.4179,1.3497,5.4302,39.1161,-0.0222,-0.0285,0.3415,192.2812
19:23:33:970,0.1737,1.218,6.2298,38.4885,-0.0952,-0.261,0.2224,191.2344
19:23:33:989,0.3042,1.2205,7.0941,38.9501,-0.0925,-0.4975,0.1865,190.875
19:23:34:009,0.5244,1.4479,7.7502,38.5909,-0.0331,-0.6533,0.175,190.6562
19:23:34:029,0.6873,1.7807,8.539,38.8286,-0.0145,-0.5931,0.1636,190.5
19:23:34:056,0.473,2.1183,9.3303,37.3628,-0.0728,-0.3073,0.1146,190.4062
19:23:34:069,0.0324,2.4954,9.9875,38.2447,-0.1396,0.0642,0.0546,190.2969
19:23:34:089,-0.219,2.712,10.3048,36.2854,-0.1354,0.2658,0.0304,190.2031
19:23:34:109,0.03,2.8413,11.0266,36.0132,-0.0936,0.1654,0.0187,190.1406
19:23:34:187,0.4454,2.6282,12.5242,37.0957,-0.0635,-0.1585,-0.045,190.0781
19:23:34:188,0.625,1.9734,13.7692,36.9459,0.0204,-0.4306,-0.1478,190.0312
19:23:34:188,0.9362,1.3294,14.1091,36.2922,0.1179,-0.4413,-0.1688,190.1094
19:23:34:189,1.4115,1.2061,13.1778,36.0345,0.217,-0.2365,-0.0905,190.3281
19:23:34:209,1.4821,1.5485,12.3147,36.2796,0.1933,-0.0091,-0.0711,190.5625
19:23:34:231,1.457,1.2432,12.7002,34.3117,0.0273,0.0685,-0.3499,190.6875
19:23:34:253,0.7806,0.3178,12.3877,35.07,0.0534,0.1153,-0.4037,190.7656
19:23:34:273,0.0372,-0.5321,11.375,34.5732,0.0036,0.0397,-0.2436,190.7656
19:23:34:289,0.0348,-0.7536,10.792,33.2852,-0.0805,-0.1686,0.0214,191.3594
19:23:34:308,0.8788,-0.1454,10.5681,35.6297,-0.1317,-0.2796,0.1785,191.7812
19:23:34:328,1.9286,0.8901,10.0474,35.9387,-0.1657,-0.2434,0.1127,192.0469
19:23:34:355,2.3261,1.5365,9.122,34.0533,-0.2326,-0.114,-0.0844,192.0469
19:23:34:374,2.0711,1.7197,8.2529,34.2766,-0.3381,0.061,-0.2647,191.8906
19:23:34:388,1.4738,1.6598,7.7418,34.2541,-0.3937,0.2309,-0.347,191.8125
19:23:34:416,0.8608,1.5221,7.7334,33.566,-0.3112,0.269,-0.3438,191.9219
19:23:34:428,0.4754,1.3833,7.7932,33.8501,-0.0805,0.2602,-0.2758,192.4219
19:23:34:448,0.3808,1.5018,7.2115,35.2727,0.1621,0.2064,-0.1813,192.7969
19:23:34:471,0.6142,1.9136,6.6776,33.2713,0.3126,0.1105,-0.1462,193.125
19:23:34:489,0.9925,2.5013,6.1544,32.7438,0.2865,0.0048,-0.225,193.3594
19:23:34:514,1.0596,2.9419,6.4693,32.4564,0.1594,-0.0362,-0.3637,193.5
19:23:34:528,0.9291,3.0867,7.4401,33.8239,0.0385,-0.0298,-0.4894,193.6875
19:23:34:549,0.3987,2.906,8.6647,34.3226,-0.0169,0.0423,-0.5265,194.0156
19:23:34:572,0.0516,2.6642,9.7768,33.3822,0.0135,0.1497,-0.4258,194.4844
19:23:34:589,-0.0562,2.7324,10.8877,33.359,0.1584,0.2794,-0.283,195.0781
19:23:34:609,-0.2058,2.9215,11.0805,32.2889,0.332,0.3582,-0.1544,195.6406
19:23:34:629,-0.2788,2.961,10.4939,33.9403,0.4084,0.2634,-0.0404,196.0156
19:23:34:654,-0.2046,3.0365,10.4867,32.7181,0.4303,0.0804,0.0363,196.2031
19:23:34:671,0.066,2.9167,11.2948,33.2106,0.479,-0.0642,0.0696,196.25
19:23:34:689,0.2599,2.6689,11.6886,31.8745,0.4883,0.0679,0.076,196.25
19:23:34:709,0.37,2.3661,10.8818,33.4985,0.2721,0.2051,0.0302,196.2031
19:23:34:729,0.4502,2.2152,10.6447,32.8547,-0.1247,-0.0011,-0.0455,196.125
19:23:34:754,0.5867,1.9591,13.1251,34.1896,-0.2867,-0.2168,-0.193,196.0312
19:23:34:773,0.0217,0.9343,15.329,34.1835,-0.0246,-0.1057,-0.2631,195.9688
19:23:34:789,-1.1036,-0.1035,14.3438,33.9849,0.3246,0.2778,-0.0921,196.0156
19:23:34:809,-1.6914,-0.5177,10.8494,33.171,0.3469,0.4996,0.195,196.2656
19:23:34:829,-1.44,-0.003,8.1033,34.1296,0.0753,0.3619,0.3724,196.5938
19:23:34:853,-0.9516,0.6063,7.5538,34.1995,-0.2089,-0.0069,0.3923,196.5469
19:23:34:870,-0.4428,0.8278,8.5079,33.0241,-0.2795,-0.2935,0.3497,196.1094
19:23:34:890,-0.2776,0.8098,9.0215,31.9049,-0.2086,-0.3239,0.3511,195.625
19:23:34:908,-0.1639,0.896,8.5941,33.6093,-0.1263,-0.1907,0.4001,195.25
19:23:34:935,0.5041,1.655,6.7159,33.5393,-0.1298,-0.0916,0.4163,194.9062
19:23:34:954,0.546,1.7939,6.9876,33.9881,-0.2265,-0.0671,0.3367,194.5312
19:23:34:968,0.3161,1.7017,7.1911,33.161,-0.2587,-0.0495,0.2301,194.0938
19:23:34:987,0.151,1.6203,7.1743,34.7132,-0.1996,-0.0996,0.1852,193.6562
19:23:35:008,0.1797,1.6287,7.2402,32.3796,-0.1439,-0.1859,0.1921,193.3594
19:23:35:028,0.3963,1.7855,7.3443,32.4217,-0.1032,-0.2195,0.2224,193.1406
19:23:35:052,0.7303,2.1458,7.555,33.2117,-0.0909,-0.2136,0.2347,192.9531
19:23:35:072,0.8165,2.4247,7.7094,33.0017,-0.121,-0.1366,0.1734,192.75
19:23:35:088,0.5532,2.584,8.1727,32.7887,-0.1751,-0.0463,0.0666,192.5156
19:23:35:108,0.0827,2.5636,8.7785,33.6044,-0.2214,0.0083,-0.0199,192.3125
19:23:35:128,-0.3147,2.5097,9.5207,33.8083,-0.239,0.0192,-0.0418,192.1875
19:23:35:152,-0.3602,2.6019,10.7716,32.2923,-0.2661,-0.0376,-0.0191,192.1719
19:23:35:172,-0.0262,2.4882,11.8742,32.9196,-0.2483,-0.1979,-0.0242,192.2188
19:23:35:188,0.2946,2.0477,12.9695,33.953,-0.1972,-0.3891,-0.0804,192.2656
19:23:35:208,0.7088,1.2564,14.1798,32.3026,-0.1817,-0.4677,-0.1387,192.2969
19:23:35:228,1.275,0.2053,13.5525,32.0782,-0.1207,-0.2514,-0.1326,192.3906
19:23:35:252,1.354,0.2592,12.0489,33.4222,-0.1375,0.1196,-0.0506,192.5781
19:23:35:270,1.9514,0.5609,13.0581,33.7986,-0.3594,0.1212,0.0072,192.875
19:23:35:288,2.1729,-0.0748,15.1051,32.3042,-0.4829,-0.1838,-0.1201,192.9219
19:23:35:308,1.2092,-0.8122,14.6287,33.3124,-0.2816,-0.1374,-0.2753,192.9219
19:23:35:328,0.874,-0.8697,12.2584,32.6489,-0.0195,0.1981,-0.1848,193.0938
19:23:35:355,1.7958,-0.2711,10.4472,33.9445,0.0763,0.3321,0.0475,193.4375
19:23:35:372,2.5799,0.6399,9.9636,33.1347,0.0521,0.1134,0.1236,193.6094
19:23:35:388,2.6254,1.0289,10.2748,34.1652,0.0287,-0.2258,-0.0367,193.5156
19:23:35:408,1.9969,0.902,10.294,34.2519,0.0492,-0.3204,-0.2575,193.3594
19:23:35:429,1.1074,0.8553,9.5338,34.2557,0.1043,-0.077,-0.3571,193.4219
19:23:35:454,0.6609,1.1175,8.3762,33.9513,0.2084,0.1936,-0.2876,193.75
19:23:35:472,0.6944,1.4862,7.2581,34.1413,0.3539,0.3004,-0.1395,194.1562
19:23:35:488,1.1242,1.9064,6.6297,35.1775,0.5062,0.2064,-0.0026,194.4688
19:23:35:508,1.712,2.238,5.9473,34.7987,0.6375,0.0671,0.0666,194.5625
19:23:35:528,2.0328,2.5073,5.314,35.5747,0.6934,0.0128,0.0208,194.5312
19:23:35:554,2.028,2.5804,5.0339,35.2406,0.6316,0.0312,-0.1485,194.4375
19:23:35:572,1.8209,2.5792,5.0986,34.168,0.4835,0.1268,-0.3707,194.3906
19:23:35:594,1.4067,2.639,5.8958,36.3052,0.2638,0.1867,-0.5789,194.9219
19:23:35:608,0.9087,2.493,7.0439,34.4041,-0.0289,0.2455,-0.8375,195.5156
19:23:35:629,0.3664,2.4247,8.2182,35.9736,-0.0651,0.3233,-0.8458,195.5156
