Time,Acc_X,Acc_Y,Acc_Z,Meg,Gyr_X,Gyr_Y,Gyr_Z,Ore
19:26:39:057,-1.1587,0.6327,9.8906,50.0049,-0.7309,0.1425,-0.0838,188.6094
19:26:39:102,-0.8546,-0.2891,11.3833,51.3366,-0.0376,-1.6602,-0.5187,189.1719
19:26:39:110,-0.0753,-0.4771,10.112,50.6825,-0.0217,-1.2323,-0.4356,189.1719
19:26:39:135,0.3221,0.3226,9.1819,50.6456,-0.1002,-0.7534,-0.3795,178.5
19:26:39:153,0.7651,1.157,9.9875,51.92,-0.194,-0.1201,-0.3608,178.9688
19:26:39:169,1.1194,1.2971,10.5214,50.4922,-0.1602,0.3553,-0.3933,179.3906
19:26:39:188,0.7699,1.0553,11.0015,50.5027,-0.1138,0.367,-0.4527,179.7812
19:26:39:209,0.6406,0.8673,10.7357,50.4947,-0.1127,0.3742,-0.4846,180.25
19:26:39:240,0.4167,0.8697,9.8427,49.4336,-0.1985,0.5505,-0.4905,180.7656
19:26:39:250,0.0037,0.9116,9.3267,49.9949,-0.3697,0.4221,-0.441,181.0312
19:26:39:267,-0.0538,0.8266,9.7409,50.819,-0.4664,0.09,-0.3581,181.5781
19:26:39:287,0.1497,0.7332,10.2545,49.3258,-0.407,-0.1188,-0.3201,181.8594
19:26:39:309,-0.0047,0.5968,10.4951,48.5659,-0.2952,-0.3015,-0.3051,182.7656
19:26:39:331,0.0492,0.8182,11.035,49.3258,-0.2006,-0.4514,-0.2575,183.0938
19:26:39:348,0.5604,0.89,10.9919,48.7671,-0.0624,-0.4421,-0.233,183.4219
19:26:39:367,1.044,1.0205,10.2928,49.9695,0.0806,-0.3566,-0.2596,183.4219
19:26:39:388,1.3097,1.0948,9.1783,47.9326,0.1866,-0.281,-0.2993,183.6875
19:26:39:406,1.4905,1.4216,8.2613,49.0123,0.2281,-0.2032,-0.3435,183.9219
19:26:39:427,1.5707,1.5185,7.5323,48.637,0.2012,-0.1396,-0.4239,184.2031
19:26:39:447,1.4474,1.3629,7.0977,49.5652,0.1331,-0.1689,-0.5342,184.5469
19:26:39:467,1.3301,1.2743,7.2162,48.9529,0.0998,-0.2663,-0.6231,184.9219
19:26:39:487,1.9741,1.0277,7.4497,46.1378,0.1845,-0.2983,-0.7246,185.3906
19:26:39:508,2.3177,1.3461,7.4485,48.4684,0.3775,-0.1574,-0.9355,186
19:26:39:531,1.3193,1.8801,7.3288,48.1842,0.5293,0.0754,-1.1555,186.7031
19:26:39:548,0.0205,1.9686,7.3515,48.4278,0.6021,0.0296,-1.152,187.4688
19:26:39:566,-0.3099,2.3098,7.3156,48.2961,0.5696,-0.1055,-1.0138,188.5312
19:26:39:587,-0.6236,2.9491,7.6747,46.837,0.3525,0.1547,-0.9004,189.8594
19:26:39:608,-1.8566,3.1681,8.2625,48.8751,-0.0523,0.5081,-0.6977,191.1094
19:26:39:629,-2.5138,2.7491,9.7218,47.9936,-0.5231,0.3649,-0.3073,192.2656
19:26:39:649,-1.6974,1.7101,11.6743,47.4553,-0.7969,0.1864,-0.0055,193.2969
19:26:39:667,-0.802,1.2085,12.8235,46.5329,-0.8821,0.383,0.1284,194.1094
19:26:39:687,-0.2333,1.181,12.7457,46.9092,-0.8944,0.8259,0.105,194.4375
19:26:39:708,-1.009,1.3665,12.8965,46.4059,-0.8976,0.7223,0.008,194.4375
19:26:39:732,-2.6335,0.7165,14.4455,44.8389,-0.8156,0.0549,0.0232,194.2969
19:26:39:749,-3.3638,-0.4076,15.4786,44.9961,-0.4968,-0.3225,0.2738,194.2031
19:26:39:767,-2.7784,-0.8457,15.0668,45.0495,-0.0459,-0.0839,0.6331,194.2031
19:26:39:787,-1.9739,-0.6817,13.1503,45.5017,0.3368,0.5137,0.9484,194.0312
19:26:39:807,-1.3885,-0.2149,10.6447,45.521,0.4716,0.7611,1.0557,193.5156
19:26:39:834,-1.1934,0.3214,9.1436,43.5988,0.361,0.4517,0.9987,192.5938
19:26:39:852,-0.9671,0.5393,8.8419,45.0563,0.168,0.0381,0.8475,191.4844
19:26:39:866,-0.8702,0.4423,9.3088,45.7867,0.026,-0.2543,0.6954,190.3906
19:26:39:887,-0.7996,0.2436,9.4859,44.7777,0.0084,-0.2405,0.6017,189.3438
19:26:39:907,-0.6727,0.1443,8.6492,43.9783,0.0529,-0.0027,0.5423,188.4688
19:26:39:930,-0.6942,0.1742,7.1971,43.7065,0.0492,0.2399,0.5077,187.75
19:26:39:947,-0.8917,0.3741,6.0862,43.8873,-0.0174,0.2818,0.5183,187.1094
19:26:39:967,-0.9468,0.5704,5.7438,41.9021,-0.0848,0.135,0.5638,186.5156
19:26:39:987,-0.9396,0.6877,5.812,43.375,-0.1056,-0.1348,0.5844,185.9531
19:26:40:007,-0.7888,0.7093,6.1077,43.4703,-0.0952,-0.4559,0.5668,185.375
19:26:40:033,-0.7936,0.6123,6.389,42.9839,-0.1058,-0.6408,0.541,184.7031
19:26:40:049,-0.8139,0.6961,7.0678,42.2202,-0.1594,-0.6892,0.5439,184.0156
19:26:40:072,-0.6607,0.6877,7.7693,42.1917,-0.2044,-0.5385,0.546,183.3906
19:26:40:086,-0.5937,0.7811,8.539,42.2962,-0.2265,-0.2583,0.5045,182.7344
19:26:40:107,-0.6439,0.9236,9.2262,41.4899,-0.1918,-0.012,0.4179,182.0781
19:26:40:128,-0.8474,0.9415,9.1807,41.9216,-0.1418,0.127,0.2906,181.4688
19:26:40:149,-1.1108,0.9284,9.5171,40.3087,-0.1956,0.1454,0.1566,180.9219
19:26:40:167,-1.0689,1.1438,10.9201,42.6578,-0.3642,0.0455,-0.0074,180.5156
19:26:40:187,-0.9348,0.5764,13.1251,40.6962,-0.5721,-0.0844,-0.2615,180.2656
19:26:40:207,-1.1958,-0.6255,15.2117,41.1691,-0.6449,-0.0634,-0.4644,180.1719
19:26:40:232,-1.2856,-1.6466,15.5912,42.4257,-0.5135,0.1803,-0.396,180.2969
19:26:40:249,-0.8546,-2.0177,14.5269,41.077,-0.301,0.4421,-0.1435,180.9844
19:26:40:266,-0.5218,-1.5748,13.1527,39.1955,-0.1298,0.3997,0.0315,181.4062
19:26:40:287,-0.4129,-1.3042,12.9587,40.6206,-0.0616,0.0581,-0.0183,181.5938
19:26:40:308,-0.5709,-1.9579,13.3717,40.8288,-0.0574,-0.0674,-0.2045,181.5938
19:26:40:332,-1.1335,-2.9179,12.924,39.5778,-0.0741,0.2445,-0.2077,181.625
19:26:40:349,-1.2137,-3.3992,11.5162,39.4396,-0.0965,0.5886,0.1212,181.8438
19:26:40:367,-0.6044,-2.815,10.2449,41.0569,-0.1034,0.4408,0.6184,182.0938
19:26:40:387,0.4119,-1.3976,9.9744,40.8085,-0.0896,-0.0866,0.9604,182.0156
19:26:40:408,1.123,-0.1311,10.3239,41.5405,0.0034,-0.5137,0.9929,181.3438
19:26:40:433,1.4043,0.5022,9.893,40.9106,0.1618,-0.5489,0.7822,180.2344
19:26:40:453,1.1242,0.6494,8.7294,39.9811,0.2542,-0.3795,0.5242,179.0469
19:26:40:468,0.7495,0.6279,7.9441,40.8337,0.2657,-0.2069,0.3721,178.1562
19:26:40:487,0.5568,0.5764,7.6173,40.1532,0.3022,-0.1393,0.3306,177.5469
19:26:40:509,0.5328,0.6853,7.3491,41.6111,0.417,-0.1569,0.3564,177.1094
19:26:40:532,0.7986,1.0385,7.1217,41.0019,0.5562,-0.2163,0.3612,176.75
19:26:40:551,1.1565,1.3893,7.0211,41.6303,0.6223,-0.212,0.2443,176.3438
19:26:40:567,1.2032,1.4659,6.8248,41.2911,0.5791,-0.0985,0.0262,175.9375
19:26:40:597,0.5855,1.406,6.838,40.4338,0.4404,-0.0035,-0.1749,175.7812
19:26:40:606,-0.031,1.1845,7.4185,39.9109,0.3011,0.0471,-0.2423,175.6406
19:26:40:627,-0.3087,1.0696,8.1296,39.6519,0.2383,0.053,-0.2101,175.7656
19:26:40:649,-0.3219,1.1738,8.9089,38.5018,0.2588,0.0394,-0.1619,176.0312
19:26:40:667,-0.3806,1.2432,9.4105,38.4539,0.2838,0.0783,-0.1422,176.2969
19:26:40:687,-0.8103,1.175,10.5442,39.9976,0.2646,0.134,-0.0388,176.6094
19:26:40:707,-0.8175,1.0816,10.8806,38.1918,0.3017,0.1039,0.1026,176.7812
19:26:40:733,-0.6631,0.9619,11.3462,39.6431,0.3349,0.017,0.2467,176.9688
19:26:40:749,-0.4668,0.6219,11.5964,40.2698,0.3395,0.0237,0.3609,176.9688
19:26:40:766,0.2048,0.6482,11.4037,38.7971,0.2449,0.0354,0.4472,176.875
19:26:40:785,0.9111,1.1414,11.357,38.7528,0.0132,-0.1252,0.3905,176.625
19:26:40:806,0.6573,1.0804,12.3722,40.9343,-0.2885,-0.3984,0.1066,176.2188
19:26:40:833,-0.5865,-0.0581,13.4795,41.9283,-0.4243,-0.342,-0.2018,175.7188
19:26:40:852,-2.2445,-1.0612,12.7947,40.9036,-0.3594,0.0197,-0.2833,175.2656
19:26:40:866,-3.3087,-1.5544,10.9751,40.9297,-0.3426,0.4232,-0.0828,175.1406
19:26:40:885,-3.0142,-1.1043,9.4548,42.0476,-0.4563,0.5294,0.2682,175.3594
19:26:40:906,-1.7489,-0.4148,8.9449,40.8713,-0.6294,0.334,0.469,175.6719
19:26:40:934,-0.7134,0.1622,9.237,41.3192,-0.7511,0.0362,0.4235,175.7656
19:26:40:949,-0.5218,0.3346,9.444,41.9063,-0.7554,-0.1782,0.2698,175.4531
19:26:40:966,-0.7122,0.228,9.1783,41.3806,-0.6944,-0.1795,0.1825,174.9062
19:26:40:986,-1.179,0.1048,8.6994,40.8468,-0.6126,-0.0405,0.2057,174.4062
19:26:41:006,-1.4975,0.1526,8.3714,41.2963,-0.496,0.1023,0.3473,174.0625
19:26:41:069,-1.446,0.2412,8.0626,42.4283,-0.3277,0.1723,0.5434,173.8125
19:26:41:070,-1.1551,0.4807,7.6041,43.2242,-0.1146,0.1369,0.7391,173.5469
19:26:41:078,-0.6331,0.8027,7.2569,42.9044,0.1032,-0.0197,0.8765,173.1562
19:26:41:093,-0.0933,1.0325,6.8882,42.903,0.2771,-0.2005,0.8872,172.125
19:26:41:105,0.1019,1.0481,6.7039,42.903,0.2899,-0.2874,0.7873,171.2031
19:26:41:126,0.066,0.8434,7.5921,41.8469,0.1823,-0.2871,0.6778,170.2188
19:26:41:154,0.3221,0.4639,8.9042,42.92,0.1424,-0.2149,0.5961,169.25
19:26:41:166,0.4167,0.4615,9.8176,43.1457,0.1709,-0.1819,0.4943,168.4062
19:26:41:192,0.388,0.2939,10.7561,43.7767,0.1879,-0.1675,0.3471,167.7031
19:26:41:206,0.145,-0.0006,11.5174,43.5106,0.1525,-0.0258,0.1907,167.0625
19:26:41:227,-0.025,-0.6303,12.2094,43.8895,0.0862,0.0839,0.0717,166.5781
19:26:41:250,0.133,-1.5078,12.748,44.6645,0.0415,0.1028,0.0555,166.2969
19:26:41:270,0.3461,-1.8896,12.8306,44.8865,0.0612,0.1673,0.1457,166.1562
19:26:41:286,0.6609,-1.9387,12.2189,44.4625,0.1032,0.18,0.1987,166.1094
19:26:41:306,0.8896,-1.5473,10.9967,45.7319,0.0122,0.1308,0.1556,166.0156
19:26:41:332,0.7399,-0.7368,11.0781,44.5643,-0.2542,-0.1678,-0.0375,165.8281
19:26:41:347,0.4035,-0.7655,13.0593,45.8889,-0.4637,-0.6136,-0.3611,165.625
19:26:41:365,-0.0777,-1.7771,14.8095,46.134,-0.4302,-0.6543,-0.543,165.5156
19:26:41:386,-0.2537,-2.457,14.8011,45.3328,-0.2073,-0.2061,-0.4239,165.7031
19:26:41:406,0.3664,-2.2511,13.0449,45.8889,0.0894,0.2011,-0.1352,166.1875
19:26:41:429,1.3002,-0.9822,10.8207,46.6384,0.3275,0.1587,0.0536,166.75
19:26:41:452,1.7575,0.0198,9.225,45.8655,0.4124,-0.135,-0.058,167.0625
19:26:41:470,1.3696,0.2364,8.0901,46.4357,0.3533,-0.232,-0.3006,167.0938
19:26:41:485,0.7926,0.2652,7.1707,45.756,0.1775,-0.0344,-0.4846,167.0625
19:26:41:505,0.3389,0.3358,6.6967,46.6588,-0.0108,0.2762,-0.5901,167.2812
19:26:41:525,0.0133,0.4747,6.5818,46.7298,-0.1151,0.4642,-0.6197,168.0156
19:26:41:546,-0.1806,0.6889,6.8475,44.7843,-0.0779,0.4173,-0.5802,168.7031
19:26:41:567,-0.207,0.7775,7.1337,46.9033,0.0923,0.2357,-0.5038,169.4062
19:26:41:585,-0.0861,0.8398,7.239,46.6476,0.303,0.0754,-0.4074,170.0938
19:26:41:605,0.2144,0.8182,7.2414,47.4963,0.4518,0.0359,-0.311,170.6875
19:26:41:626,0.3988,0.8338,7.0355,47.1415,0.5019,0.0951,-0.2143,171.1719
19:26:41:648,0.6597,0.9906,7.2498,47.5003,0.4556,0.0423,-0.1075,171.5156
19:26:41:666,1.2547,1.1426,7.9716,47.8077,0.3927,-0.1436,-0.0311,171.7969
19:26:41:686,1.7826,1.5173,8.8587,50.0544,0.365,-0.2844,-0.0364,171.875
19:26:41:706,1.9191,1.916,9.5171,49.0248,0.3589,-0.2533,-0.1821,171.9688
19:26:41:734,1.384,2.068,9.5171,47.5183,0.2963,-0.0434,-0.409,171.9844
19:26:41:753,0.4562,2.0991,9.4656,48.6066,0.0556,0.2495,-0.5851,172.0938
19:26:41:772,-0.8522,1.8082,10.7034,49.5066,-0.2797,0.4067,-0.6447,172.4375
19:26:41:785,-1.9368,1.254,12.7983,48.828,-0.4736,0.4589,-0.536,173.0156
19:26:41:806,-2.521,0.6973,14.169,48.3059,-0.4198,0.5257,-0.2489,173.7344
19:26:41:831,-2.3139,0.6051,13.9966,48.3505,-0.1881,0.7015,0.117,174.4375
19:26:41:849,-1.9045,1.2384,12.924,48.3083,0.0263,0.5992,0.3433,174.8906
19:26:41:866,-1.7249,1.4467,12.9084,50.1531,0.1469,0.0213,0.3798,174.9688
19:26:41:886,-1.2916,0.6674,13.1203,49.6082,0.3163,-0.2575,0.3492,174.7031
19:26:41:906,-0.9336,-0.015,11.782,49.244,0.4867,-0.0562,0.3308,174.2812
19:26:41:930,-0.6523,-0.1167,9.6691,48.0041,0.4745,0.2157,0.3223,173.8906
19:26:41:947,-0.3351,0.2376,8.4133,49.663,0.2684,0.0762,0.2443,173.3594
19:26:41:971,-0.1387,0.4028,8.551,50.5839,0.0055,-0.359,0.0523,173.0469
19:26:41:986,-0.28,0.0928,9.4584,48.7355,-0.2182,-0.6253,-0.1952,172.7812
19:26:42:006,-0.7672,-0.483,9.9205,49.7713,-0.3564,-0.4725,-0.3539,172.7031
19:26:42:031,-1.4496,-0.8553,9.5973,49.5955,-0.4214,-0.0701,-0.3166,172.9062
19:26:42:051,-1.6268,-0.8051,8.6623,49.0749,-0.4262,0.3739,-0.0868,173.2656
19:26:42:065,-0.9181,-0.2292,7.7454,49.9848,-0.386,0.5726,0.1796,173.6094
19:26:42:086,-0.1364,0.823,7.3802,49.1759,-0.0952,0.009,0.2017,173.7031
19:26:42:110,-0.0621,0.75,7.4652,49.94,0.0798,-0.3337,0.0975,173.5
19:26:42:134,-0.28,0.1215,7.7932,51.4191,0.0446,-0.1723,0.052,172.9531
19:26:42:152,-0.7074,-0.1431,8.1871,49.9696,-0.0669,0.2754,0.1633,172.9531
19:26:42:168,-0.4907,0.0233,8.2422,50.1837,-0.1077,0.5702,0.2847,172.8438
19:26:42:185,0.0971,1.2444,8.4385,49.5829,-0.1133,0.4884,0.1987,172.7812
19:26:42:205,-0.1759,1.3366,8.7162,50.4733,-0.0669,0.1145,-0.0599,172.5938
19:26:42:225,-0.8331,0.8111,9.4788,50.0096,-0.0155,-0.4133,-0.3451,172.2812
19:26:42:252,-1.3095,-0.0664,10.4724,48.9346,0.0332,-0.7723,-0.4737,172.0938
19:26:42:270,-1.44,-0.8577,11.1667,48.7088,0.0108,-0.9151,-0.453,172.1562
19:26:42:288,-1.5801,-1.4491,12.8115,48.8593,-0.1112,-0.939,-0.327,172.5312
19:26:42:305,-1.112,-1.7292,13.6495,47.5666,-0.1114,-0.2791,-0.0266,173.0156
19:26:42:326,0.0516,-1.3126,12.5853,47.6682,0.0412,0.192,0.2517,173.4844
19:26:42:350,1.2595,-0.5944,10.6184,49.4421,0.1296,0.3641,0.284,173.8125
19:26:42:367,1.3612,0.2771,10.4221,49.6175,-0.0286,-0.0184,-0.021,173.8281
19:26:42:386,0.6454,-0.6087,13.0928,49.6262,-0.2654,-0.5931,-0.5632,173.5469
19:26:42:406,-0.511,-2.7144,14.9842,46.6113,-0.2052,-0.5436,-0.8322,173.2031
19:26:42:430,-0.4931,-3.7392,13.5956,47.0262,0.0617,0.0469,-0.5486,173.4844
19:26:42:449,0.1258,-2.8401,10.2569,47.2452,0.2276,0.4695,-0.0585,174.3125
19:26:42:468,0.8465,-1.0612,7.798,46.9113,0.0982,0.2948,0.1756,175.1562
19:26:42:485,1.1936,0.0748,7.0834,47.155,-0.2368,-0.1004,-0.0149,175.5156
19:26:42:507,0.8046,0.2328,7.7442,47.7715,-0.5697,-0.2248,-0.3475,175.4219
19:26:42:531,0.1354,0.0581,8.2481,46.9885,-0.7458,-0.0293,-0.486,175.2812
19:26:42:548,-0.1914,0.1347,8.3906,46.9025,-0.7559,0.2479,-0.4021,175.4688
19:26:42:566,-0.1555,0.5549,8.15,46.1744,-0.6361,0.3941,-0.2769,175.9375
19:26:42:585,-0.1591,0.8829,7.7609,46.0471,-0.4486,0.3313,-0.225,176.4375
19:26:42:605,-0.3051,0.9858,7.6388,46.2248,-0.2374,0.155,-0.177,176.8281
19:26:42:626,-0.2106,0.8984,7.4305,46.077,-0.0099,0.0123,-0.0977,177.0938
19:26:42:647,0.0528,1.0157,7.081,45.3469,0.1773,-0.0911,-0.0146,177.3281
19:26:42:666,0.4035,1.2576,7.1205,45.0627,0.2561,-0.2131,0.0104,177.5
19:26:42:686,0.6741,1.418,7.6735,45.6182,0.2649,-0.2804,-0.049,177.5625
19:26:42:706,0.6441,1.4072,8.4924,46.783,0.2308,-0.2866,-0.1499,177.5469
19:26:42:733,0.2551,1.2396,9.7074,46.854,0.1717,-0.2629,-0.2391,177.5469
19:26:42:751,-0.1519,0.8829,11.1727,48.4381,0.1648,-0.1638,-0.2612,177.6406
19:26:42:767,-0.3878,0.5992,12.3638,45.8342,0.2601,0.0509,-0.2037,177.8438
19:26:42:785,-0.3459,0.4316,12.5242,46.2131,0.4303,0.2961,-0.0993,178.125
19:26:42:805,-0.1806,0.3538,11.758,45.9607,0.5538,0.4168,0.0065,178.4062
19:26:42:832,0.0073,0.1945,11.1248,45.7593,0.5501,0.3121,0.0522,178.6562
19:26:42:848,0.2312,-0.2675,11.0099,43.9223,0.4492,0.0458,0.0288,178.6875
19:26:42:865,0.1797,-0.3406,11.1798,44.731,0.2572,-0.3012,-0.0479,178.6875
19:26:42:885,-0.2285,0.0066,12.7732,44.9378,-0.0379,-0.763,-0.2007,178.6719
19:26:42:905,-0.9624,-0.5872,15.2608,44.4711,-0.1895,-1.0179,-0.3901,178.6875
19:26:42:925,-1.9236,-1.6885,15.8186,42.5101,-0.0691,-0.6911,-0.3976,178.7969
19:26:42:947,-2.5964,-2.0632,13.7105,43.522,0.1195,0.0924,-0.1062,179.0781
19:26:42:965,-2.3295,-1.3952,10.5849,43.9964,0.1371,0.5835,0.2922,179.5
19:26:42:985,-1.4867,-0.4986,8.6767,43.9227,0.0052,0.4799,0.5431,179.8125
19:26:43:005,-0.6978,0.1227,8.4816,43.19,-0.0707,-0.025,0.6043,179.7188
19:26:43:025,-0.0681,0.2089,9.1603,43.7152,-0.0092,-0.4914,0.5644,179.2656
19:26:43:048,0.1809,0.1179,9.3495,44.2882,0.0915,-0.5414,0.5082,178.6094
19:26:43:065,0.0995,0.1167,8.7797,43.906,0.1059,-0.2711,0.4879,177.9062
19:26:43:145,0.1378,0.3298,8.0255,43.4549,0.0329,0.0128,0.4866,177.2656
19:26:43:146,0.2742,0.6039,7.7394,43.3723,-0.0376,0.1422,0.456,176.7188
19:26:43:146,0.2719,0.6279,7.5167,43.193,-0.0105,0.1798,0.3857,176.1562
19:26:43:146,0.1964,0.5333,7.0678,41.3053,0.0801,0.1308,0.3266,175.6094
19:26:43:172,0.0444,0.4004,6.5818,42.6512,0.1344,0.0695,0.2954,175.1562
19:26:43:185,-0.2034,0.3932,6.3723,41.3246,0.1158,0.0163,0.297,174.7656
19:26:43:211,-0.1555,0.5596,6.6752,41.9203,0.0692,-0.0746,0.3287,174.1094
19:26:43:235,0.0851,0.7907,7.4006,41.4211,0.0465,-0.1811,0.3311,173.5625
19:26:43:249,0.2635,0.7715,9.8331,40.6367,0.1011,-0.2416,0.2059,173.1719
19:26:43:269,0.0408,0.5549,10.3646,40.4693,0.172,-0.0205,0.1588,172.8594
19:26:43:299,-0.1543,0.3011,10.385,40.0307,0.1725,0.1422,0.1638,172.6094
19:26:43:306,0.0684,0.1083,10.5873,40.8425,0.1392,0.1414,0.2136,172.4375
19:26:43:326,0.4442,0.1598,11.029,41.1039,0.1142,0.0173,0.2376,172.25
19:26:43:349,0.5711,0.2352,11.8119,39.7062,0.1022,-0.1585,0.1833,172.0312
19:26:43:366,0.9279,-0.1263,12.0657,41.7112,0.1078,-0.1521,0.0997,171.7656
19:26:43:385,1.208,-0.6003,11.4061,39.7542,0.0385,-0.0157,0.011,171.5469
19:26:43:405,1.0919,-0.7021,11.0063,39.4418,-0.1301,0.012,-0.0812,171.4375
19:26:43:426,0.9781,-0.8805,11.7485,38.1861,-0.3263,-0.1686,-0.1981,171.4219
19:26:43:452,0.631,-1.5245,13.2185,38.5092,-0.4353,-0.2626,-0.3289,171.5156
19:26:43:470,-0.1519,-2.2607,13.7716,39.401,-0.4158,-0.1033,-0.3243,171.7188
19:26:43:489,-0.4392,-2.5049,13.1287,37.9657,-0.3125,0.1313,-0.0841,171.7188
19:26:43:505,0.4981,-1.8417,11.7137,39.1233,-0.1743,0.2125,0.24,172.0781
19:26:43:526,1.7263,-0.5584,10.1372,38.2895,-0.0363,0.0642,0.3686,172.4531
19:26:43:553,2.4901,0.5333,8.7497,39.702,-0.0206,-0.1116,0.1987,172.5469
19:26:43:568,2.2698,0.9535,8.0195,39.702,-0.1836,-0.1124,-0.1563,172.2969
19:26:43:585,1.3624,0.8182,8.0734,39.1855,-0.4081,0.0386,-0.478,171.875
19:26:43:604,0.3473,0.4447,8.2362,39.8171,-0.5223,0.2434,-0.6309,171.6406
19:26:43:626,-0.28,0.337,7.9896,37.7759,-0.4851,0.3694,-0.6,171.8125
19:26:43:651,-0.3698,0.4483,7.6233,38.9579,-0.3655,0.4107,-0.4756,172.3594
19:26:43:669,-0.1412,0.7045,7.1947,38.7955,-0.2076,0.4072,-0.3395,173.0781
19:26:43:684,0.1857,1.1331,6.9373,38.298,-0.0395,0.3582,-0.2332,174.0625
19:26:43:704,0.5304,1.4874,6.6979,40.3276,0.1198,0.2727,-0.2056,174.5469
19:26:43:724,0.7351,1.6981,6.7159,37.0533,0.238,0.1534,-0.2362,174.9062
19:26:43:754,0.6789,1.746,6.8787,38.373,0.2977,0.0634,-0.3217,175.1562
19:26:43:770,0.2731,1.6861,7.3659,39.2111,0.2513,-0.0192,-0.3962,175.4219
19:26:43:786,-0.2848,1.5101,8.7282,38.4323,0.1017,-0.0671,-0.3874,175.75
19:26:43:805,-0.784,1.1498,10.8746,39.2017,0.0188,0.0599,-0.2671,176.1562
19:26:43:824,-1.0641,0.8434,12.4416,38.7742,0.1498,0.2682,-0.0695,176.625
19:26:43:849,-1.0701,0.756,12.5589,40.0393,0.4084,0.3989,0.1561,177.0156
19:26:43:868,-0.7241,0.7428,12.2189,38.7813,0.6172,0.2815,0.3338,177.2344
19:26:43:884,-0.1184,0.6063,12.1662,39.7333,0.7003,0.1121,0.407,177.2031
19:26:43:905,0.0253,0.4531,11.5689,38.9674,0.6532,0.176,0.3785,176.9531
19:26:43:925,-0.1675,0.4771,10.3,39.6599,0.393,0.3574,0.2938,176.5469
19:26:43:949,-0.8355,0.6566,10.2222,39.0143,-0.1085,0.1824,0.1681,176.1406
19:26:43:966,-1.5729,0.2221,13.1359,41.6337,-0.5141,-0.2988,0.1071,175.7812
19:26:43:984,-2.2133,-0.7787,15.6462,39.6128,-0.4587,-0.5169,0.1788,175.5312
19:26:44:004,-2.2576,-1.4072,15.8545,37.8713,-0.0781,-0.3084,0.4603,175.4531
19:26:44:024,-1.4161,-1.1175,13.6207,38.6119,0.3184,-0.0711,0.7636,175.2969
19:26:44:050,-0.1028,-0.404,11.3846,39.2969,0.442,-0.2181,0.8608,175.0625
19:26:44:070,0.9183,-0.0102,10.5155,38.3746,0.3792,-0.4645,0.68,174.5156
19:26:44:084,0.8884,0.0808,10.0594,40.2382,0.2337,-0.4693,0.3684,173.7031
19:26:44:104,0.3365,-0.1215,9.4381,39.2267,0.0721,-0.2269,0.1186,172.7188
19:26:44:124,-0.1268,-0.2472,8.3571,39.6443,-0.0654,0.1342,0.016,171.6719
19:26:44:152,-0.365,0.0126,7.0331,39.6113,-0.1695,0.4248,0.0421,171.4219
19:26:44:168,-0.3339,0.4459,6.328,37.9045,-0.1964,0.4346,0.1127,171.3594
19:26:44:186,-0.1699,0.7644,6.1353,40.4652,-0.1146,0.228,0.1596,171.3438
19:26:44:210,-0.1256,0.8984,6.1568,40.0583,0.0052,-0.0357,0.1844,171.2656
19:26:44:223,-0.2202,0.8326,6.3579,39.0792,0.0811,-0.2032,0.2126,171.125
19:26:44:245,-0.122,0.8745,6.6847,39.4728,0.1118,-0.2309,0.2693,170.9219
19:26:44:266,0.2874,1.09,7.1241,39.0079,0.1288,-0.1883,0.3037,170.7031
19:26:44:285,0.692,1.4252,7.5299,39.0207,0.1373,-0.1931,0.2339,170.4219
19:26:44:305,0.6537,1.4874,8.4205,40.6098,0.0982,-0.289,0.0632,170.0938
19:26:44:324,0.2144,1.2169,9.942,39.8171,0.0598,-0.3199,-0.1033,169.7656
19:26:44:349,-0.3806,0.7009,11.284,39.6303,0.0814,-0.1859,-0.1797,169.5938
19:26:44:365,-0.5996,0.2137,11.7664,38.8291,0.1709,-0.0005,-0.1363,169.625
19:26:44:390,-0.3698,0.0748,11.509,38.8678,0.246,0.0724,-0.0364,169.7969
19:26:44:404,0.145,0.0652,11.6192,40.089,0.2481,-0.0173,0.0214,169.9844
19:26:44:425,1.0105,-0.2412,11.9196,39.1888,0.246,-0.1257,0.0115,170.0781
19:26:44:450,1.8137,-0.5596,11.2134,39.3213,0.1773,-0.1443,-0.0735,170.0781
19:26:44:468,2.0783,-0.2723,11.0003,38.823,-0.0856,-0.2543,-0.2588,170.0625
19:26:44:485,1.8496,-0.5979,12.6966,40.9472,-0.4174,-0.4373,-0.5739,170.0781
19:26:44:504,0.5125,-1.6909,14.655,39.3974,-0.61,-0.3055,-0.8343,170.25
19:26:44:524,-1.0486,-2.8401,15.2392,42.2418,-0.5756,0.0788,-0.7321,170.7031
19:26:44:550,-0.9109,-2.9586,13.7943,39.7107,-0.3309,0.4003,-0.2559,171.5
19:26:44:566,0.4311,-1.6741,11.5629,39.9173,-0.0179,0.3542,0.2283,172.4531
19:26:44:584,2.0184,0.0844,9.6368,39.6499,0.2377,-0.0306,0.3857,173.0625
19:26:44:604,2.8791,1.163,8.4062,38.7281,0.2724,-0.3305,0.1375,173.0625
19:26:44:624,2.599,1.3821,7.9429,38.9472,0.095,-0.3215,-0.2929,172.6562
19:26:44:649,1.6832,1.0026,7.8735,40.9036,-0.1383,-0.0743,-0.6452,172.3125
19:26:44:666,0.6717,0.5489,7.7358,39.4422,-0.2914,0.2261,-0.8338,172.5938
19:26:44:683,-0.3076,0.2233,7.4688,38.6983,-0.2965,0.4221,-0.8474,173.3125
19:26:44:704,-0.9169,0.2053,6.838,41.3739,-0.1823,0.477,-0.6791,174.2812
19:26:44:724,-0.8259,0.5501,6.2023,42.269,-0.0379,0.3941,-0.4479,175.2656
19:26:44:749,-0.4177,1.0265,5.7821,40.363,0.0542,0.2676,-0.2743,176.0156
19:26:44:765,0.0648,1.485,5.8408,42.5158,0.0883,0.1659,-0.2,176.5469
19:26:44:784,0.1857,1.7687,6.0515,41.5762,0.0702,0.131,-0.2322,176.875
19:26:44:805,-0.0119,1.9196,6.7039,41.2279,0.0039,0.07,-0.282,177.0938
19:26:44:824,-0.1387,1.8789,7.9501,42.2085,-0.0592,-0.0051,-0.2921,177.375
19:26:44:853,-0.347,1.7951,9.5841,42.5746,-0.0558,0.0253,-0.2639,177.6875
19:26:44:868,-1.0509,1.4982,11.0553,41.5475,0.1288,0.2088,-0.1142,177.6875
19:26:44:884,-1.3622,1.0864,11.5725,43.6065,0.2143,0.2077,0.0176,178.0156
19:26:44:904,-1.4352,0.6626,12.11,42.586,0.2795,0.1483,0.1902,178.5469
19:26:44:924,-1.1958,0.3107,12.5062,43.0552,0.3576,0.0629,0.3633,178.6875
19:26:44:949,-0.8139,0.2496,11.8299,42.6694,0.3626,0.1108,0.4786,178.6719
19:26:44:966,-0.8283,0.5776,11.2505,45.682,0.136,0.0639,0.4776,178.0781
19:26:44:983,-0.9492,0.6494,12.4943,44.6606,-0.2374,-0.1822,0.4211,178.0781
19:26:45:004,-1.3107,0.0545,14.7747,43.7878,-0.443,-0.3175,0.3907,177.5625
19:26:45:024,-1.8374,-0.6279,16.0963,43.5481,-0.3154,-0.2594,0.4882,177.0312
19:26:45:048,-1.4747,-0.9667,15.4319,42.9048,0.0284,0.0274,0.733,176.5312
19:26:45:066,-0.8283,-0.5142,13.0665,43.3765,0.3429,0.1883,0.9511,176.0781
19:26:45:084,0.1605,0.1502,10.9656,45.4469,0.4521,0.0029,0.9937,175.5156
19:26:45:104,0.8489,0.6099,9.8463,44.1559,0.3933,-0.1907,0.8219,174.1562
19:26:45:123,0.8381,0.7237,9.0514,46.1865,0.2452,-0.1862,0.5583,173.0781
19:26:45:150,0.5089,0.5992,8.4253,45.2016,0.0798,-0.0091,0.3298,172.0312
19:26:45:249,0.1067,0.4016,7.8184,44.8966,-0.0363,0.2519,0.191,171.25
19:26:45:252,-0.365,0.2759,7.0894,46.4265,-0.0768,0.4535,0.1732,170.75
19:26:45:253,-0.5278,0.3717,6.3878,46.3394,-0.0448,0.4639,0.252,170.4844
19:26:45:253,-0.4261,0.5728,6.0587,46.9389,0.0454,0.265,0.3654,170.2969
19:26:45:254,-0.2896,0.7009,5.9509,46.6576,0.1682,-0.0179,0.457,170.0781
19:26:45:275,-0.0166,0.7919,5.9569,47.0933,0.2558,-0.2629,0.5276,169.7344
19:26:45:283,0.3233,0.9056,6.5291,47.261,0.2755,-0.4144,0.5556,169.2656
19:26:45:304,0.5592,0.9475,7.3336,48.8704,0.2755,-0.4437,0.5351,168.7188
19:26:45:324,0.6478,1.0529,8.0063,47.4569,0.2473,-0.3814,0.4842,168.125
19:26:45:350,0.5843,1.3066,9.1292,47.7079,0.1637,-0.297,0.4126,167.5
19:26:45:368,0.5592,1.5975,10.4831,48.7296,0.1136,-0.1241,0.3055,166.9219
19:26:45:384,0.4574,1.8465,11.5246,49.2621,0.1275,0.1265,0.1188,166.4219
19:26:45:404,0.279,1.752,11.5797,50.9984,0.1693,0.42,-0.1272,166.0156
19:26:45:424,-0.0813,1.5437,11.0805,50.2579,0.1528,0.5957,-0.3225,165.7656
19:26:45:450,-0.304,1.3797,10.9069,49.3649,0.0729,0.5721,-0.4423,165.7344
19:26:45:467,-0.2285,1.0337,11.3379,50.2237,-0.0329,0.4045,-0.5339,165.875
19:26:45:486,0.0935,0.4028,11.9855,50.6413,-0.1056,0.2597,-0.5725,166.25
19:26:45:505,0.1282,-0.0497,11.7892,48.959,-0.1543,0.2727,-0.5435,166.75
19:26:45:524,-0.5099,0.0557,11.5234,51.3627,-0.2621,0.2338,-0.4628,167.0312
19:26:45:549,-0.7062,-0.258,12.505,51.4185,-0.3295,-0.0005,-0.352,168.2812
19:26:45:566,-0.5158,-1.0325,13.0916,50.6801,-0.1894,-0.2272,-0.1797,168.8438
19:26:45:585,-0.0861,-1.2875,12.3219,51.5716,0.0582,-0.3412,0.1071,169.2969
19:26:45:604,0.9805,-0.647,10.8315,50.76,0.2388,-0.4719,0.428,169.5781
19:26:45:625,2.5523,0.4866,9.5997,53.0679,0.2681,-0.6967,0.5108,169.6406
19:26:45:650,3.2072,1.4814,9.1172,52.3324,0.1512,-0.9398,0.2041,169.3281
19:26:45:668,2.6972,1.5808,9.1663,52.4109,-0.0638,-0.9579,-0.2932,168.7656
19:26:45:685,1.5276,0.9439,9.1412,51.5744,-0.3117,-0.5859,-0.6812,168.3281
19:26:45:703,0.2371,0.3478,8.8084,52.898,-0.5208,-0.0312,-0.804,168.3906
19:26:45:724,-0.468,0.2688,8.0434,51.5422,-0.5948,0.3537,-0.6916,168.9375
19:26:45:749,-0.4404,0.5094,7.4569,53.6993,-0.5279,0.3566,-0.5115,169.8281
19:26:45:765,-0.1675,0.811,7.4808,52.5554,-0.3452,0.0932,-0.396,170.7031
19:26:45:784,0.0456,1.0349,7.6651,53.976,-0.0781,-0.1393,-0.3435,171.3906
19:26:45:804,0.3473,1.2193,7.579,52.8693,0.1893,-0.1571,-0.3336,171.8594
19:26:45:825,0.5101,1.3677,6.7841,52.8916,0.3509,0.0011,-0.3632,172.2812
19:26:45:850,0.4035,1.5916,6.1544,55.1746,0.3144,0.1625,-0.4072,172.6562
19:26:45:871,0.1019,1.8944,6.4333,54.0079,0.1458,0.2008,-0.4383,173.0312
19:26:45:885,-0.1004,2.1087,7.7777,53.7697,-0.0363,0.2474,-0.4876,173.4844
19:26:45:905,-0.5745,2.1291,9.1412,55.2358,-0.1578,0.4519,-0.5635,173.9688
19:26:45:925,-1.2341,1.9447,10.1779,53.9922,-0.2717,0.795,-0.6183,174.4688
19:26:45:950,-2.2097,1.5209,10.8171,56.3656,-0.3271,1.0975,-0.5773,175.0781
19:26:45:967,-3.1076,1.1702,11.4001,54.681,-0.2976,1.1233,-0.3752,176.125
19:26:45:984,-3.4296,1.0134,12.2967,54.6534,-0.1543,0.8791,-0.0596,176.75
19:26:46:003,-2.8286,0.9942,12.4895,55.8358,0.1134,0.5225,0.2437,177.2031
19:26:46:024,-1.4987,0.9906,11.5019,55.8358,0.2814,0.2277,0.3939,177.2812
19:26:46:050,-0.6092,1.3138,10.7728,55.1508,0.1666,-0.1332,0.3473,177.0312
19:26:46:069,-0.632,1.2731,12.3087,56.1859,-0.1455,-0.8834,0.1425,176.625
19:26:46:084,-1.2688,0.0952,15.3613,57.255,-0.2699,-1.326,-0.0276,176.2344
19:26:46:104,-1.6459,-1.1319,16.2771,56.8593,-0.0299,-1.0775,0.0371,176.0469
19:26:46:123,-1.4388,-1.5221,13.9595,56.7767,0.2979,-0.2663,0.3103,176.0312
19:26:46:150,-0.9516,-0.981,10.306,56.3834,0.3365,0.3718,0.5844,175.9531
19:26:46:167,-0.3614,-0.1131,8.2218,57.0358,0.0439,0.273,0.6959,175.6094
19:26:46:188,0.3485,0.4028,8.5486,56.1556,-0.2611,-0.2024,0.648,175
19:26:46:206,0.4526,0.6039,9.705,56.1667,-0.3048,-0.6485,0.4951,174.2031
19:26:46:226,0.1162,0.4423,9.9361,56.8283,-0.1562,-0.7614,0.3625,173.4531
19:26:46:252,-0.4704,0.1514,8.2122,57.6104,0.0452,-0.1625,0.4712,172.8594
19:26:46:269,-0.3925,0.5321,7.0044,56.9382,0.0223,0.0557,0.6208,172.4531
19:26:46:285,-0.025,0.9607,6.6141,57.3859,-0.0017,0.0152,0.697,172.0312
19:26:46:305,0.364,1.1594,6.559,56.7064,0.0391,-0.1081,0.6504,171.4844
19:26:46:324,0.2491,1.236,6.6273,55.1472,0.1352,-0.2722,0.5553,170.8125
19:26:46:349,0.2838,1.054,6.5938,56.4279,0.2582,-0.4192,0.5069,170.0156
19:26:46:367,0.3245,0.914,6.638,57.1165,0.3232,-0.4826,0.4855,169.2656
19:26:46:383,0.4287,0.9547,6.9732,58.6914,0.2971,-0.4354,0.5095,168.0781
19:26:46:402,0.7854,1.2671,7.5311,57.5351,0.1989,-0.3321,0.521,167.5156
19:26:46:423,1.2403,1.6071,8.3008,60.2497,0.0729,-0.2216,0.4251,167.2344
19:26:46:443,1.3062,1.7579,9.1543,58.344,-0.0965,-0.0871,0.2264,166.6562
19:26:46:467,0.9578,1.6586,10.2748,57.5187,-0.2544,-0.0346,0.0075,166.0938
19:26:46:485,0.4682,1.1678,11.7341,57.5985,-0.3167,-0.1201,-0.1576,165.7188
19:26:46:504,0.2,0.3873,13.167,58.9587,-0.2744,-0.2218,-0.1885,165.5938
19:26:46:523,0.3233,-0.1574,14.6407,58.1503,-0.1628,-0.2599,-0.0742,165.6875
19:26:46:544,0.8524,-0.3262,15.2548,58.5028,0.0638,-0.0437,0.1367,165.9062
19:26:46:567,1.9933,-0.1957,13.8027,59.2136,0.3107,0.3318,0.3013,166.0625
19:26:46:584,2.6062,0.4986,12.0382,57.5359,0.3312,0.3883,0.2496,166.0312
19:26:46:604,2.9282,0.647,11.788,57.6371,0.1821,0.0477,-0.0242,165.9219
19:26:46:624,2.8037,-0.3478,12.2632,57.54,0.0942,-0.1814,-0.4141,165.5781
19:26:46:649,1.8784,-1.2899,11.9795,58.2112,0.0657,-0.1236,-0.6633,165.2969
19:26:46:667,1.1326,-1.7005,11.1044,57.0861,0.0321,0.0274,-0.6484,165.3281
19:26:46:684,0.9985,-1.3557,10.2437,57.4897,-0.0352,0.0197,-0.5004,165.7969
19:26:46:704,1.1984,-0.5824,9.9349,59.2983,-0.1258,-0.1329,-0.4088,166.5625
19:26:46:723,1.19,0.1802,10.1096,57.5774,-0.1484,-0.2442,-0.4617,167.2656
19:26:46:745,0.6489,0.3478,9.8559,56.9407,-0.0952,-0.1806,-0.5816,167.8438
19:26:46:766,0.0241,0.234,8.9927,58.0985,-0.0448,0.0855,-0.6104,168.3125
19:26:46:783,-0.438,0.4986,7.8423,57.0424,-0.0651,0.372,-0.5235,168.8125
19:26:46:802,-0.5374,0.9248,7.5071,56.821,-0.104,0.432,-0.4111,169.4688
19:26:46:823,-0.3483,1.1989,7.5143,56.299,-0.0302,0.3563,-0.3435,170.1719
19:26:46:846,-0.2285,1.3557,7.5598,56.3034,0.1131,0.2597,-0.2857,171
19:26:46:867,0.0875,1.3845,7.251,56.1556,0.2598,0.2759,-0.2098,171.4375
19:26:46:883,0.194,1.4156,6.6141,56.5957,0.3232,0.3294,-0.1451,171.7969
19:26:46:903,0.3377,1.576,6.2262,56.4361,0.2486,0.4671,-0.0838,172.0781
19:26:46:924,0.4059,1.8872,6.5147,55.342,0.1408,0.4855,-0.0042,172.2812
19:26:46:946,0.7591,2.3218,7.3587,55.1281,0.1365,0.351,0.0496,172.4219
19:26:46:967,0.9853,2.5385,8.2374,54.5162,0.2265,0.1595,-0.001,172.4688
19:26:46:983,0.7782,2.4187,9.0382,55.3653,0.2689,0.168,-0.1078,172.4375
19:26:47:003,0.309,2.4606,9.8199,55.2535,0.1831,0.4447,-0.1568,172.4062
19:26:47:024,-0.0023,2.6019,10.7417,55.8909,0.0561,0.6205,-0.1603,172.4844
19:26:47:051,0.0827,2.5397,11.4205,54.7377,0.0186,0.6722,-0.2053,172.625
19:26:47:069,-0.3052,2.3936,11.8418,55.0057,0.0202,0.6458,-0.2913,172.8125
19:26:47:083,-0.7936,1.9267,12.1794,53.5215,0.0361,0.6272,-0.2969,173
19:26:47:103,-0.9037,1.315,11.6587,53.9061,0.0676,0.6144,-0.2423,173.2656
19:26:47:123,-0.8678,1.1917,11.1499,52.3965,0.0071,0.3246,-0.1957,173.625
19:26:47:143,-1.0246,1.0122,12.5577,53.7669,-0.1378,-0.2264,-0.2234,173.9219
19:26:47:168,-1.513,0.3466,14.4599,53.1575,-0.1087,-0.4093,-0.295,174.1719
19:26:47:184,-1.9153,-0.3214,13.6686,53.4911,0.0774,0.0024,-0.2519,174.375
19:26:47:203,-2.2397,-0.258,11.0218,52.3045,0.1533,0.4306,-0.0487,174.6719
19:26:47:223,-2.187,0.2987,9.0694,52.9566,0.0321,0.2871,0.1705,175.0156
19:26:47:245,-1.5298,0.7165,9.3746,51.611,-0.1455,-0.261,0.2262,175.2031
19:26:47:269,-0.9971,0.8063,10.616,52.4605,-0.1865,-0.6876,0.1215,175.125
19:26:47:330,-0.8163,0.6051,10.9141,51.6293,-0.1311,-0.7108,-0.0146,174.8594
19:26:47:330,-0.9037,0.4028,10.1599,51.1299,-0.0787,-0.3574,-0.0756,174.5938
19:26:47:330,-0.9695,0.4028,8.7126,51.4802,-0.068,0.0458,-0.0327,174.6094
19:26:47:342,-0.8989,0.6973,7.3958,53.2874,-0.1234,0.2599,0.0496,174.6875
19:26:47:368,-0.6559,0.9727,6.9194,52.6864,-0.1753,0.2501,0.0869,174.7188
19:26:47:384,-0.6236,1.0864,7.0103,53.0958,-0.149,0.1129,0.0568,174.6562
19:26:47:408,-0.7026,0.9583,7.3683,51.4233,-0.0574,-0.008,0.0352,174.4844
19:26:47:425,-0.5625,1.0229,7.0846,52.127,0.1498,0.0051,0.0901,174.4375
19:26:47:445,-0.4057,1.2229,6.8918,51.4892,0.1203,0.0272,0.0845,174.375
19:26:47:470,-0.2225,1.418,7.1755,50.315,0.0372,0.0224,0.044,174.2812
19:26:47:485,-0.0837,1.5664,7.7322,50.9044,-0.007,-0.0019,-0.0356,174.1875
19:26:47:505,-0.183,1.6526,8.3655,50.7213,-0.0145,-0.078,-0.1422,174.1406
19:26:47:524,-0.438,1.6047,9.0298,51.6301,-0.0267,-0.1566,-0.2569,174.1875
19:26:47:545,-0.9097,1.3976,10.0953,51.1609,-0.0454,-0.2165,-0.344,174.3438
19:26:47:568,-1.0928,1.0732,11.114,51.1131,-0.0323,-0.1694,-0.3454,174.625
19:26:47:584,-0.9743,0.9188,11.6276,51.135,-0.0177,-0.0706,-0.2993,175.0156
19:26:47:603,-0.5039,0.8673,12.0884,50.5958,-0.0339,-0.0668,-0.2641,175.4062
19:26:47:625,0.2096,0.5201,12.6607,51.4871,-0.0448,-0.1196,-0.2607,175.4062
19:26:47:650,0.5879,0.3633,12.8462,51.2733,-0.0323,-0.179,-0.2993,175.7344
19:26:47:667,0.4227,0.3118,13.823,50.8004,-0.0845,-0.3361,-0.4141,176.3281
19:26:47:686,-0.1651,-0.5944,15.7097,49.4612,-0.0795,-0.4029,-0.5246,176.3281
19:26:47:702,-0.7936,-1.6095,16.3046,50.2979,0.1397,-0.122,-0.4074,176.6562
19:26:47:724,-0.5075,-1.7328,14.3115,51.5729,0.4548,0.289,-0.0506,178
19:26:47:743,0.5687,-0.495,11.4324,51.7977,0.6044,0.3931,0.2621,178.2656
19:26:47:765,1.6737,1.0385,9.6176,50.3748,0.5203,0.1041,0.2829,178.2656
19:26:47:781,2.0986,1.9088,9.2788,51.3284,0.3331,-0.2099,-0.0005,178.1406
19:26:47:802,1.7168,1.8022,9.1903,51.9783,0.1536,-0.2205,-0.3765,177.7969
19:26:47:822,0.7782,1.3833,8.4038,51.3094,-0.0105,0.0756,-0.6247,177.625
19:26:47:842,-0.0382,1.1271,7.5502,50.4959,-0.1679,0.3318,-0.6969,177.875
19:26:47:868,-0.3411,1.2037,7.3108,50.1201,-0.2582,0.3606,-0.6836,178.1406
19:26:47:885,-0.5889,1.2839,7.5849,50.1257,-0.2219,0.2184,-0.6602,178.8438
19:26:47:902,-0.7852,1.2049,7.5095,51.0518,-0.0693,0.0703,-0.6162,179.5938
19:26:47:924,-0.8391,1.1043,6.9301,50.8986,0.0835,-0.0029,-0.5419,180.3594
19:26:47:944,-0.6667,1.1582,6.6476,50.4558,0.1538,-0.0099,-0.4729,181.1094
19:26:47:967,-0.4919,1.3797,6.9852,50.5826,0.222,0.0083,-0.4322,181.7656
19:26:47:985,-0.2621,1.4407,6.8344,51.5497,0.3155,0.1238,-0.4407,182.3906
19:26:48:002,-0.511,1.5137,6.5902,52.3132,0.3123,0.1217,-0.5067,182.9375
19:26:48:025,-1.0007,1.5257,6.8619,51.0974,0.1975,0.049,-0.5363,183.4531
19:26:48:041,-1.4185,1.4778,7.5023,51.1449,0.0569,0.0852,-0.4873,183.9531
19:26:48:062,-1.7704,1.4575,8.3487,50.2487,-0.0502,0.1553,-0.3834,184.5469
19:26:48:084,-2.0374,1.5616,9.3662,52.125,-0.0827,0.1782,-0.246,185.1719
19:26:48:104,-2.029,1.643,10.2497,52.0973,-0.0664,0.1784,-0.1107,185.6875
19:26:48:123,-1.7979,1.7113,11.278,50.6714,-0.0219,0.1635,0.0017,186.125
19:26:48:142,-1.4723,1.6454,11.8323,51.4311,0.0593,0.2431,0.0744,186.4844
19:26:48:167,-0.9995,1.7352,11.3534,50.2777,0.0966,0.4629,0.0893,186.5312
19:26:48:186,-0.6391,2.1518,10.7034,51.7851,-0.0563,0.4671,0.0022,186.4844
19:26:48:202,-0.7098,2.3745,11.7102,52.4154,-0.3862,0.0059,-0.209,186.375
19:26:48:223,-1.4352,1.242,14.6287,50.1385,-0.5759,-0.5247,-0.4396,186.2969
19:26:48:244,-1.8614,-0.3669,15.9994,50.6556,-0.3926,-0.5294,-0.4463,186.375
19:26:48:267,-1.8135,-0.8637,14.9352,50.6379,-0.0118,0.0067,-0.1781,186.7344
19:26:48:284,-0.7098,-0.2747,13.0234,50.3625,0.3182,0.3518,0.0898,187.2344
19:26:48:302,0.036,0.6411,11.4767,50.9685,0.4311,0.1079,0.0331,187.5938
19:26:48:322,0.1079,0.7775,11.0709,51.6844,0.3839,-0.3441,-0.1648,187.625
19:26:48:342,-0.2178,0.3454,10.9895,52.2488,0.3475,-0.465,-0.3499,187.5312
19:26:48:368,-0.614,-0.1814,10.142,51.1657,0.3656,-0.1164,-0.4018,187.6406
19:26:48:385,-1.015,-0.1155,8.5797,50.2603,0.3733,0.3803,-0.3081,187.9688
19:26:48:402,-0.9947,0.4615,7.1516,50.8392,0.3227,0.5963,-0.1573,188.4531
19:26:48:423,-0.474,1.0205,6.3866,50.9365,0.2425,0.4535,-0.1057,188.875
19:26:48:445,0.0408,1.4383,6.3974,50.0126,0.1996,0.1489,-0.1901,189.1562
19:26:48:469,0.3377,1.5604,6.6536,50.4051,0.2255,-0.1129,-0.3651,189.2812
19:26:48:484,0.2611,1.3138,6.638,51.0762,0.2574,-0.2511,-0.5802,189.4531
19:26:48:502,-0.0035,1.1043,6.4034,51.0762,0.2202,-0.2517,-0.7406,189.7656
19:26:48:523,0.0109,1.0026,6.468,51.3551,0.1312,-0.1952,-0.8269,190.3281
19:26:48:543,0.0097,0.8589,6.5076,50.7823,0.0886,-0.1968,-0.8679,191.125
19:26:48:568,-0.2321,0.762,6.4645,50.1787,0.099,-0.2743,-0.9329,192
19:26:48:588,-0.5781,0.5201,6.097,49.9473,0.1115,-0.4037,-0.9997,193.5
19:26:48:602,-0.7385,0.4759,6.0742,50.7718,0.0684,-0.6533,-0.9912,194.5938
19:26:48:624,-0.7397,0.4878,7.7142,50.5257,-0.0696,-1.1777,-0.9813,195.7031
19:26:48:643,0.115,0.0856,9.9995,49.4705,-0.2968,-1.1619,-0.9606,196.8594
19:26:48:665,0.8094,-0.0197,12.6487,50.0669,-0.5175,-0.7894,-0.9693,198.0156
19:26:48:681,1.4019,0.088,14.3103,50.7253,-0.6409,-0.3127,-1.0149,199.0938
19:26:48:703,2.2686,0.0533,14.5006,50.7025,-0.6443,0.0589,-1.1097,200.2031
19:26:48:722,2.2878,0.1035,14.6036,49.1286,-0.6563,0.249,-1.3771,201.3594
19:26:48:742,0.4766,-0.5249,15.6115,49.2576,-0.7122,0.1497,-1.714,202.5469
19:26:48:767,-1.2772,-1.6957,16.1813,50.3317,-0.6342,0.2858,-1.6423,204.1094
19:26:48:785,-1.1563,-1.8884,14.151,49.2587,-0.3426,0.6293,-1.0828,206.0469
19:26:48:801,1.2032,-0.7572,11.5881,50.3138,-0.0454,0.6631,-0.4982,207.9062
19:26:48:822,3.0168,0.9355,10.6136,50.2038,0.2124,0.2703,-0.4633,209.0781
19:26:48:842,3.6118,1.6191,10.6651,48.4491,0.3978,-0.3971,-0.8846,209.6719
19:26:48:867,3.4011,0.9272,10.774,49.0255,0.4742,-0.8056,-1.4527,210.2188
19:26:48:886,1.7096,0.4052,10.3383,50.7462,0.4601,-0.6402,-1.8074,211.1875
19:26:48:903,0.2012,0.0736,8.9999,48.5582,0.421,-0.2669,-1.6136,212.8594
19:26:48:924,1.287,-0.7213,7.5419,47.2472,0.3011,-0.0155,-1.3121,214.9219
19:26:48:942,2.3464,-0.7703,7.4748,48.9008,0.0974,-0.0253,-1.3811,216.7812
19:26:48:968,1.6593,-0.2616,8.3571,49.0689,-0.0062,-0.2354,-1.6703,218.2188
19:26:48:985,0.4993,0.0293,8.6444,47.5543,0.0439,-0.2988,-1.7547,219.7969
19:26:49:002,0.0348,0.0868,8.3655,48.1566,0.1296,-0.2048,-1.6258,221.7031
19:26:49:022,0.139,-0.2424,8.0099,46.7478,0.1504,0.204,-1.4093,223.625
19:26:49:042,-0.1747,0.2233,8.3391,45.9855,0.1538,0.3161,-1.4186,223.625
19:26:49:067,-0.4739,1.0493,8.7797,46.5893,0.2164,0.322,-1.3805,227.1719
19:26:49:084,-0.2561,1.5437,9.3698,46.5978,0.3259,0.2541,-1.323,227.1719
19:26:49:101,-0.134,1.6538,9.7984,47.8402,0.4811,0.1595,-1.3411,230.3281
19:26:49:122,-0.3447,1.6849,9.8199,47.2905,0.6588,0.2514,-1.3987,231.9219
19:26:49:140,-0.6056,1.9459,9.5685,45.8024,0.7685,0.2565,-1.405,233.3594
19:26:49:162,-0.4859,2.2093,9.5925,47.3323,0.7728,0.0149,-1.3707,235.7188
19:26:49:183,-0.219,2.1207,9.9684,46.8805,0.655,-0.1462,-1.372,237.3438
19:26:49:202,-0.0813,1.8717,10.7609,47.3786,0.4918,-0.2016,-1.3739,238.8906
19:26:49:222,-0.0035,1.6167,10.9332,46.4491,0.4018,-0.0549,-1.3608,240.4688
19:26:49:241,-0.1232,1.491,10.0701,46.3361,0.3453,0.1547,-1.3374,242.0781
19:26:49:262,-0.0202,1.3821,9.723,46.1018,0.1528,-0.098,-1.3789,243.6562
19:26:49:285,-0.5158,0.7045,11.5043,46.3242,-0.1402,-0.8298,-1.5403,245.1406
19:26:49:302,-1.61,-0.3226,13.0796,45.306,-0.1876,-0.9718,-1.503,246.6719
19:26:49:323,-1.7177,-0.6494,12.2896,44.9016,0.0351,-0.4402,-1.0471,248.375
19:26:49:403,-0.8486,-0.3609,10.9117,43.8549,0.2692,0.3057,-0.5946,249.2031
19:26:49:403,-0.3243,0.9056,9.9229,44.1244,0.3949,0.5941,-0.4239,250.9688
19:26:49:403,0.1557,1.7962,9.5745,42.7406,0.3357,-0.13,-0.4452,252.1875
19:26:49:405,0.9865,1.9447,10.3227,44.7932,0.2103,-1.048,-0.6247,252.8594
19:26:49:421,1.2152,1.5975,11.3019,43.9702,0.1126,-1.4778,-0.8471,253.2969
19:26:49:442,0.9135,1.0014,11.9628,41.3775,0.0729,-1.3252,-0.9334,253.8281
19:26:49:468,0.3377,0.6842,11.126,42.855,0.1088,-0.7071,-0.8088,254.6094
19:26:49:483,0.2755,0.9308,9.316,41.6857,0.156,-0.1177,-0.6135,255.6094
19:26:49:502,0.2395,1.6526,7.324,42.1207,0.1277,0.2178,-0.5286,256.7656
19:26:49:524,0.0839,2.0177,6.1053,41.599,-0.0299,0.1926,-0.5009,257.7344
19:26:49:542,0.0276,2.0034,6.5531,41.7231,-0.2038,0.0325,-0.3984,258.4062
19:26:49:568,0.2647,1.6837,7.0307,40.7075,-0.3077,0.0996,-0.4037,259
19:26:49:586,-0.2944,1.6646,7.9393,41.3972,-0.3008,0.0453,-0.4167,259.5625
19:26:49:601,-1.0689,1.2599,7.9561,40.8839,-0.2619,-0.0413,-0.3179,260.0156
19:26:49:622,-1.4496,1.4479,8.6025,39.7425,-0.3522,-0.0455,-0.1017,260.7031
19:26:49:642,-1.0905,1.2887,8.7809,40.0479,-0.4089,0.0285,-0.0665,261.1406
19:26:49:668,-1.2856,1.2061,9.292,40.6782,-0.4914,-0.327,-0.2034,261.3906
19:26:49:684,-1.2329,0.8039,10.0031,38.813,-0.5705,-0.5896,-0.3142,261.4375
19:26:49:702,-0.9971,0.5716,10.4783,38.8871,-0.607,-0.4788,-0.3566,261.5938
19:26:49:723,-0.7636,0.4783,11.1439,38.0924,-0.5876,-0.306,-0.3661,261.9375
19:26:49:742,-0.4715,0.2807,11.8215,38.0795,-0.4584,-0.342,-0.3448,262.3281
19:26:49:766,-0.0083,-0.1287,12.0082,37.6339,-0.2401,-0.2953,-0.336,262.7812
19:26:49:784,0.4071,-0.3118,11.8813,37.5349,-0.006,-0.3108,-0.3656,263.2031
19:26:49:802,0.8441,-0.4627,11.6467,36.6216,0.2095,-0.4631,-0.3826,263.5938
19:26:49:824,1.0631,-0.4663,11.4911,35.4918,0.3778,-0.4951,-0.3225,264
19:26:49:842,1.1098,0.1,11.6359,35.9492,0.4961,-0.5784,-0.2053,264.4375
19:26:49:866,1.4127,0.3382,11.4911,36.1785,0.5275,-0.6045,-0.2282,264.8438
19:26:49:886,1.1805,0.2592,11.2361,35.1244,0.4127,-0.4384,-0.3528,265.125
19:26:49:905,0.7256,0.0736,10.9716,34.8597,0.2771,-0.102,-0.3438,265.3125
19:26:49:921,0.9422,-0.021,10.2952,35.2972,0.2383,0.1638,-0.2143,265.6406
19:26:49:943,1.5647,0.0341,9.45,35.1917,0.2175,0.1523,-0.1696,266.0469
19:26:49:968,1.6078,0.3023,9.1101,34.5807,0.1102,-0.0743,-0.2948,266.3438
19:26:49:984,1.117,0.4986,9.7888,33.3723,-0.0424,-0.4163,-0.4665,266.5156
19:26:50:003,0.6094,0.3681,10.7142,32.6689,-0.0776,-0.5031,-0.5278,266.7344
19:26:50:021,0.3329,0.3502,10.6627,33.479,0.0116,-0.2474,-0.4402,267.1719
19:26:50:042,0.4023,0.6399,10.1503,32.4697,0.1429,0.0533,-0.278,268.1094
19:26:50:067,0.6406,0.9104,9.4213,32.6544,0.2657,0.3571,-0.1651,268.6094
19:26:50:084,0.5041,1.1546,8.6611,31.0704,0.3453,0.5358,-0.107,268.9062
19:26:50:102,0.2886,1.3174,8.1296,31.7682,0.3866,0.5734,-0.0593,269.0625
19:26:50:121,0.1521,1.4144,7.5502,32.3903,0.4103,0.5574,0.0168,269.125
19:26:50:143,0.1019,1.6203,7.221,31.4598,0.3986,0.493,0.1172,269.1406
19:26:50:170,0.2814,2.0141,7.2378,30.1715,0.3461,0.3734,0.1817,269.0625
19:26:50:188,0.546,2.3733,7.5263,29.5583,0.2907,0.228,0.1367,268.875
19:26:50:204,0.5819,2.5097,7.7837,30.0209,0.2588,0.1164,0.0152,268.625
19:26:50:221,0.3389,2.4451,8.0865,28.6803,0.2351,0.0498,-0.0945,268.4375
19:26:50:243,-0.0059,2.3457,8.4983,28.798,0.2047,0.0264,-0.1251,268.4062
19:26:50:266,-0.1591,2.22,8.7509,26.011,0.177,0.0751,-0.0687,268.5
19:26:50:282,0.0193,2.2416,8.9077,29.6611,0.14,0.1987,0.052,268.625
19:26:50:303,0.3042,2.6019,9.6464,26.8772,0.1094,0.2011,0.1322,268.6875
19:26:50:321,0.3844,2.8377,10.6531,26.7063,0.1453,0.0908,0.0419,268.6875
19:26:50:342,-0.0933,2.3757,11.351,25.7367,0.2273,-0.0732,-0.193,268.4375
19:26:50:369,-1.0054,1.5425,11.685,25.464,0.3192,-0.1798,-0.2351,268.375
19:26:50:387,-1.0378,1.3845,10.9476,24.3431,0.3485,0.1047,0.0078,268.5938
19:26:50:406,-0.4009,2.0572,10.0091,24.8736,0.1938,0.4109,0.2248,268.8594
19:26:50:421,0.4179,2.5708,10.9045,22.6004,-0.206,0.0383,-0.0258,268.8281
19:26:50:441,0.1162,1.6335,11.5533,22.782,-0.2395,-0.2943,-0.2844,268.8281
19:26:50:468,-0.6703,0.6937,11.6862,22.9613,-0.2355,-0.2927,-0.3685,268.3594
19:26:50:486,-1.3945,0.3059,11.3582,23.2089,-0.2337,0.0333,-0.2351,268.6562
19:26:50:501,-1.5142,0.6387,10.5621,22.6256,-0.2203,0.3015,-0.0293,268.6562
19:26:50:521,-1.3383,1.0553,9.7768,24.0387,-0.1988,0.204,0.0507,269.125
19:26:50:542,-1.3801,1.1402,9.2765,22.8583,-0.1993,-0.0674,0.0344,269.375
19:26:50:567,-1.4615,0.8685,9.2848,22.2847,-0.2363,-0.2626,0.0365,269.3906
19:26:50:585,-1.3849,0.6842,9.3399,22.7834,-0.2371,-0.2738,0.1343,269.3125
19:26:50:602,-1.0378,0.7296,9.1376,23.9591,-0.1836,-0.1896,0.2749,269.2969
19:26:50:620,-0.4464,1.0648,8.642,23.1695,-0.0997,-0.1068,0.3939,269.2812
19:26:50:640,0.1438,1.4467,8.0746,22.5675,-0.0374,-0.1076,0.4059,269.1562
19:26:50:662,0.4059,1.7496,7.7597,22.8849,-0.0305,-0.1886,0.3069,268.8906
19:26:50:686,0.4323,1.734,7.889,22.7776,-0.0776,-0.2732,0.1385,268.4531
19:26:50:705,0.0983,1.4383,8.3355,22.6688,-0.109,-0.2903,-0.0111,267.9844
19:26:50:722,-0.2285,1.1426,8.5139,21.78,-0.0944,-0.2336,-0.0543,267.6562
19:26:50:742,-0.3064,1.078,8.5869,23.6545,-0.0638,-0.1886,-0.0412,267.5312
19:26:50:768,-0.2405,1.169,8.6635,23.484,-0.0376,-0.1702,-0.0577,267.5625
19:26:50:786,-0.3506,1.2947,8.6971,24.933,-0.0345,-0.1838,-0.094,267.6562
19:26:50:801,-0.3075,1.4204,9.0813,24.9128,-0.0398,-0.2309,-0.1001,267.7188
19:26:50:820,-0.11,1.6215,9.5566,25.014,-0.0038,-0.2357,-0.0836,267.7969
19:26:50:840,0.1557,1.8992,9.6104,28.1709,0.0369,-0.1963,-0.0958,267.9219
19:26:50:861,0.3832,1.9172,9.6847,27.21,-0.0161,-0.1686,-0.1962,268.0469
19:26:50:884,0.2359,1.6526,10.2437,28.1009,-0.1466,-0.1936,-0.343,268.2812
19:26:50:902,-0.1783,1.0576,11.3295,27.6458,-0.2512,-0.302,-0.433,268.5156
19:26:50:920,-0.0813,0.1227,12.6666,28.7062,-0.2334,-0.3902,-0.4271,268.6875
19:26:50:941,-0.1639,-0.3502,12.8342,30.9897,-0.1146,-0.1718,-0.3499,269.1719
19:26:50:962,-0.5589,0.2855,12.1543,31.361,-0.0981,0.0607,-0.2005,269.7188
19:26:50:985,-0.2716,0.6159,12.8163,31.3611,-0.1231,0.0138,-0.0996,270.1875
19:26:51:003,0.0636,0.5118,13.2484,30.7814,0.0553,-0.0067,-0.005,270.5156
19:26:51:021,0.71,0.349,11.8526,30.8865,0.3371,0.1675,0.1047,270.6719
19:26:51:041,1.4007,0.2364,9.7158,31.0791,0.405,0.196,0.0853,270.75
19:26:51:063,1.4079,0.3346,8.5738,33.5439,0.1379,0.172,-0.0788,270.6719
19:26:51:084,0.7567,0.3633,9.1256,33.661,-0.2773,0.1364,-0.2713,270.5
19:26:51:100,-0.1615,0.1167,10.4532,32.056,-0.501,0.1494,-0.351,270.4531
19:26:51:123,-0.8989,-0.0916,11.1152,32.3104,-0.4486,0.179,-0.249,270.625
19:26:51:140,-1.1012,0.0724,10.6112,36.7918,-0.2283,0.2091,-0.0125,271.0312
19:26:51:161,-0.6655,0.5908,9.5949,33.9929,-0.0337,0.2226,0.2017,271.4062
19:26:51:184,-0.1711,1.0612,8.7282,34.6945,0.0699,0.1103,0.2573,271.5781
19:26:51:203,0.139,1.3066,8.636,35.3473,0.1118,-0.0514,0.215,271.4531
19:26:51:220,0.3066,1.3761,8.7126,35.9091,0.1741,-0.0815,0.1585,271.1562
19:26:51:241,0.3616,1.4036,8.3607,37.3604,0.2265,-0.0136,0.1053,270.875
19:26:51:261,0.2599,1.4168,8.0793,36.4985,0.2279,0.0762,0.0531,270.6719
19:26:51:287,0.1917,1.4922,8.0877,35.6317,0.2364,0.1281,0.0341,270.5
19:26:51:305,0.1521,1.6562,8.0075,37.8496,0.2676,0.1233,0.019,270.4062
19:26:51:325,0.0935,1.8214,7.9297,38.1889,0.2886,0.0815,-0.0117,270.3438
19:26:51:340,-0.0083,1.9854,7.7705,38.5305,0.2604,0.0546,-0.0529,270.2656
19:26:51:361,-0.0621,2.1937,8.0734,39.6964,0.1999,0.008,-0.0793,270.25
19:26:51:384,-0.0454,2.3134,8.6156,38.7033,0.1786,-0.0807,-0.0964,270.2969
19:26:51:402,0.0444,2.2512,8.9053,38.1832,0.1946,-0.1454,-0.1262,270.375
19:26:51:467,0.0947,2.2248,9.1328,39.543,0.197,-0.147,-0.14,270.4844
19:26:51:467,0.3353,2.3338,9.6033,40.3919,0.152,-0.1033,-0.156,270.625
19:26:51:467,0.5556,2.2691,10.3179,40.8122,0.0897,0.0237,-0.2482,270.7812
19:26:51:479,0.5855,2.0345,10.8447,39.1569,0.038,0.2146,-0.3763,270.9688
19:26:51:506,0.5029,1.7615,10.64,42.5918,0.0004,0.4927,-0.4697,271.2344
19:26:51:520,0.1031,1.8429,9.5805,41.6367,-0.1279,0.6834,-0.5443,271.625
19:26:51:540,-0.5913,1.8214,9.5302,41.3892,-0.4267,0.485,-0.6447,272.125
19:26:51:561,-1.3957,1.2169,11.2864,41.049,-0.6768,0.074,-0.7219,272.6875
19:26:51:587,-1.8147,0.3226,13.0425,41.9568,-0.6414,-0.2527,-0.6894,273.3594
19:26:51:602,-1.7082,-0.149,13.5693,41.8243,-0.3631,-0.3159,-0.5371,274.2031
19:26:51:621,-1.3155,0.1502,12.7696,43.0708,-0.0153,-0.1531,-0.3238,275.0156
19:26:51:640,-0.5242,1.2193,10.956,42.8347,0.1962,-0.1928,-0.2077,275.6406
19:26:51:661,0.1545,1.8513,10.0785,42.846,0.164,-0.6818,-0.3629,275.875
19:26:51:685,0.1952,1.3533,10.5382,43.0111,0.0803,-1.0277,-0.691,276.1406
19:26:51:701,-0.6188,0.1514,10.8447,43.6535,0.0665,-0.8131,-0.9094,276.4531
19:26:51:720,-1.6124,-0.489,10.5095,43.0844,0.1099,-0.3824,-0.7656,277.0781
19:26:51:741,-2.1116,-0.3202,9.468,43.3566,0.1727,-0.033,-0.2524,278.1094
19:26:51:760,-1.44,0.3214,8.0889,42.9947,0.1799,0.2173,0.3734,279.1719
19:26:51:786,-0.1615,1.0756,6.9397,43.9769,0.0598,0.3332,0.7199,279.8438
19:26:51:802,0.7459,1.6107,7.2964,44.774,-0.1961,-0.0304,0.5151,278.5312
19:26:51:822,0.6884,1.3461,7.5646,45.2793,-0.206,-0.1167,0.3753,277.75
19:26:51:841,0.6178,1.1941,7.9249,44.2227,-0.1889,-0.1031,0.2911,277.75
19:26:51:862,0.637,1.4299,8.818,43.7119,-0.1364,-0.1462,0.2347,277.1719
19:26:51:886,0.6274,1.8633,10.0654,44.4385,-0.0539,-0.1934,0.0882,276.7656
19:26:51:903,0.127,1.6801,11.1463,44.2406,0.0548,-0.1569,-0.1534,276.4531
19:26:51:919,-0.4991,1.339,11.5581,43.9633,0.2122,0.0503,-0.2721,276.2188
19:26:51:940,-0.8786,1.1738,11.3833,45.6601,0.3863,0.3526,-0.2266,276.1406
19:26:51:960,-0.7852,1.3677,10.768,46.3532,0.5184,0.5683,-0.0937,276.3281
19:26:51:985,-0.134,1.8429,10.1288,45.1802,0.5613,0.6269,-0.0013,276.5938
19:26:52:003,0.2683,1.8872,9.7888,45.5305,0.4875,0.4141,-0.0412,276.8125
19:26:52:020,0.2934,1.3414,10.4568,45.7962,0.373,-0.1151,-0.0804,276.8281
19:26:52:040,0.5496,0.7344,11.0529,45.1451,0.3733,-0.3446,0.0104,276.75
19:26:52:060,0.3114,1.254,10.8997,46.1119,0.3789,0.0216,0.1638,276.7344
19:26:52:086,0.2264,1.5054,10.4341,46.1948,0.1786,0.1497,0.223,276.8125
19:26:52:105,0.115,0.7895,10.8147,45.3994,-0.1839,0.1409,0.126,276.8281
19:26:52:120,-0.0609,-0.3047,10.9452,45.0286,-0.4672,0.4384,0.0584,276.625
19:26:52:140,0.1126,-0.7248,10.452,45.7782,-0.6161,0.6469,0.1327,276.3438
19:26:52:161,0.6861,-0.3262,10.3874,46.3447,-0.676,0.4866,0.2421,276.1094
19:26:52:184,1.3864,0.2652,10.7405,46.7074,-0.5998,0.2162,0.3204,275.9062
19:26:52:201,2.2387,0.7201,10.4628,46.9236,-0.4054,0.0317,0.3734,275.7656
19:26:52:219,2.793,1.3198,9.8906,46.9236,-0.2227,-0.1023,0.338,275.4375
19:26:52:240,2.866,1.5724,9.5207,48.3426,-0.1857,-0.2067,0.1646,275.0625
19:26:52:261,2.3189,1.2324,9.7517,48.3903,-0.2664,-0.1593,-0.066,274.6406
19:26:52:284,1.1026,0.6506,9.7744,49.7242,-0.3354,0.1577,-0.147,274.3594
19:26:52:301,0.3042,0.422,9.3902,47.6998,-0.2869,0.4168,0.0038,274.3281
19:26:52:320,0.3616,0.7895,8.8263,48.3082,-0.0885,0.3958,0.2685,274.5
19:26:52:340,0.9973,1.4156,8.2865,48.4436,0.1717,0.2272,0.4485,274.5938
19:26:52:362,1.548,1.9196,7.8783,49.4641,0.3901,0.0245,0.4294,274.4219
19:26:52:384,1.5204,2.2033,7.4114,47.5543,0.5229,-0.0935,0.2978,273.9844
19:26:52:400,1.1984,2.3014,7.2545,47.9818,0.5555,-0.1321,0.1721,273.4375
19:26:52:420,0.7531,2.3026,7.3982,47.5645,0.5016,-0.0711,0.0608,273.0156
19:26:52:440,0.0971,2.2775,7.4712,47.4228,0.3786,0.1593,0.0128,272.75
19:26:52:460,-0.4117,2.4104,7.5933,48.4514,0.2146,0.3702,0.0523,272.625
19:26:52:486,-0.7349,2.4295,8.065,48.3531,0.0705,0.4466,0.1079,272.5781
19:26:52:504,-1.1503,2.3421,8.6683,49.1005,-0.0052,0.3835,0.1593,272.5156
19:26:52:520,-1.3622,2.2188,9.462,48.9608,-0.0459,0.2216,0.2288,272.375
19:26:52:540,-1.3059,2.1674,10.6759,49.0399,-0.0616,-0.0439,0.285,272.1875
19:26:52:560,-1.0569,1.831,12.4835,48.6937,0.0122,-0.3574,0.2927,271.9531
19:26:52:585,-0.8355,1.4311,13.3634,48.9761,0.2178,-0.3617,0.3372,271.6562
19:26:52:604,-0.3243,1.4706,12.2884,48.5468,0.4492,-0.0924,0.4621,271.3438
19:26:52:621,0.0396,2.3589,10.5621,47.5648,0.4582,0.0256,0.5191,270.8594
19:26:52:644,0.5233,3.1909,10.4364,48.7038,0.1347,-0.1198,0.3609,270.3281
19:26:52:659,0.7172,2.6665,11.6323,47.72,-0.2923,-0.1174,-0.0546,269.7188
19:26:52:680,-0.4919,1.1618,12.6307,48.7255,-0.558,0.1664,-0.425,269.3125
19:26:52:703,-1.7752,-0.0796,12.4787,48.6771,-0.6081,0.5199,-0.4314,269.3906
19:26:52:721,-2.2648,-0.2891,11.5306,47.0887,-0.5343,0.5401,-0.1824,269.6094
19:26:52:740,-1.7991,0.1263,10.9895,47.7394,-0.4459,0.1132,0.0911,270.1406
19:26:52:760,-0.7457,0.5704,10.8183,47.063,-0.3058,-0.3324,0.2286,270.4688
19:26:52:786,-0.1459,0.9643,10.0498,47.0638,-0.1522,-0.506,0.2254,270.4844
19:26:52:801,-0.1747,1.1391,9.1436,47.9049,-0.0949,-0.5518,0.1564,270.2812
19:26:52:819,-0.9636,0.7835,8.8982,47.6892,-0.0896,-0.6112,0.1457,270.0469
19:26:52:840,-1.5011,0.3669,9.4225,46.1272,0.0345,-0.7673,0.3969,269.875
19:26:52:860,-0.8762,0.4627,9.9672,47.0681,0.3925,-0.8543,0.8187,269.7812
19:26:52:885,0.4275,1.1283,9.3722,44.9796,0.8596,-0.7484,1.1244,269.5625
19:26:52:905,1.4941,1.7915,7.804,46.9405,1.1549,-0.5779,1.1489,268.9531
19:26:52:920,2.0029,2.3529,6.322,46.8625,1.1589,-0.3462,0.9721,267.8281
19:26:52:940,2.0974,2.6498,5.271,46.1871,0.8934,-0.0652,0.6898,266.4844
19:26:52:960,1.5994,2.7264,5.0327,45.4565,0.4657,0.1648,0.3897,265.2031
19:26:52:987,0.7555,2.548,6.1915,44.8554,0.0372,0.2168,0.1596,264.2344
19:26:53:005,0.2647,2.3373,8.2505,47.9298,-0.1942,0.1531,0.0509,263.5625
19:26:53:022,0.121,2.4511,10.2413,46.8585,-0.1593,0.094,-0.0141,263.2188
19:26:53:040,-0.0873,2.4714,10.9368,44.6647,0.0457,0.1606,-0.0924,263.0938
19:26:53:060,-0.2225,2.3445,10.6088,46.2281,0.1549,0.2234,-0.1675,263.0938
19:26:53:086,-0.1938,2.0381,10.4628,44.8922,0.0995,0.1878,-0.2452,263.1875
19:26:53:103,-0.2752,1.3019,11.0649,44.1492,-0.0182,0.0085,-0.2902,263.3281
19:26:53:120,-0.2321,0.4364,12.4009,43.943,-0.0448,-0.1499,-0.2154,263.5781
19:26:53:140,-0.0346,0.5668,12.2668,44.0519,0.0455,0.0658,-0.045,263.9062
19:26:53:159,0.0312,1.2803,10.9225,44.6523,-0.0459,0.326,0.0006,264.1719
19:26:53:185,0.1833,1.2564,11.4839,44.3905,-0.3327,0.2037,-0.152,264.2031
19:26:53:203,-0.4093,-0.9954,13.1419,45.1932,-0.4028,0.1036,-0.282,264.1719
19:26:53:220,0.0097,-1.4527,12.6271,44.7126,-0.2502,0.1198,-0.0229,264.1719
19:26:53:240,0.9482,-0.6339,11.205,45.1144,-0.121,0.1158,0.2557,265.0469
19:26:53:262,1.961,0.8027,9.729,44.4172,-0.1191,0.0775,0.313,265.0469
19:26:53:287,2.2973,1.7173,8.952,45.9067,-0.2137,0.0314,0.1343,265.0781
19:26:53:304,1.9191,1.8836,8.3475,44.009,-0.2859,0.0594,-0.0974,264.7812
19:26:53:320,1.2918,1.8298,7.6149,44.4373,-0.3034,0.1174,-0.2301,264.4375
19:26:53:339,0.8979,1.9076,6.8523,44.5417,-0.2933,0.1031,-0.2745,264.2812
19:26:53:359,0.6118,2.0776,6.1616,45.7126,-0.3428,0.0493,-0.2926,264.4062
19:26:53:379,0.5065,2.1614,6.4106,45.1508,-0.4765,-0.0056,-0.2828,264.6719
19:26:53:399,0.5628,2.1219,7.3527,44.4264,-0.4811,-0.0016,-0.2309,264.9844
19:26:53:420,0.2228,2.1446,7.7466,44.4669,-0.2837,-0.0218,-0.1185,265.3281
19:26:53:442,0.2491,2.0943,8.7485,45.3122,0.0359,-0.2855,0.0778,265.6719
19:26:53:463,0.9961,2.1817,9.2429,42.9014,0.4529,-0.3358,0.2661,265.9531
19:26:53:485,1.7706,2.8677,8.205,44.7975,0.7038,-0.1068,0.3223,266.0938
19:26:53:548,2.125,3.6099,7.4784,44.7975,0.5927,-0.0157,0.1617,265.9062
19:26:53:548,2.3297,3.9199,8.0135,44.7564,0.2873,0.0085,-0.1526,265.5312
19:26:53:548,1.925,3.6075,9.1412,43.3089,0.0271,0.0823,-0.4988,265.1875
19:26:53:559,0.7938,2.9982,10.5011,43.1569,-0.0997,0.1473,-0.7222,265.1406
19:26:53:589,-0.3722,2.4415,11.6886,42.8167,-0.0949,0.1651,-0.7305,265.5
19:26:53:604,-1.1647,1.9315,12.7504,43.8045,0.002,0.1281,-0.5797,266.2344
19:26:53:621,-1.367,1.5712,13.2843,43.2741,0.1938,0.1374,-0.3089,267.0312
19:26:53:639,-1.0174,1.6215,12.7576,44.5349,0.4534,0.1739,-0.0125,267.7969
19:26:53:659,-0.4727,1.9208,11.0925,42.7215,0.5879,0.2168,0.1622,268.2969
19:26:53:680,-0.6391,2.4882,9.6571,42.6589,0.4023,0.1944,0.1902,268.4531
19:26:53:702,-0.6631,2.5708,10.0965,43.1882,-0.0006,-0.1055,0.1487,268.2812
19:26:53:720,-0.7876,1.6299,12.195,43.9029,-0.264,-0.4487,0.0381,268.0312
19:26:53:742,-1.4615,0.5154,13.6147,43.4586,-0.1988,-0.5734,0.0256,267.7969
19:26:53:760,-1.7692,-0.4064,13.2712,42.7729,0.0178,-0.3345,0.1809,267.75
19:26:53:780,-1.592,-0.5297,11.2541,44.6088,0.1416,0.0264,0.4533,267.8125
19:26:53:803,-0.7349,0.07,9.3303,42.6922,0.0481,0.135,0.6752,267.7656
19:26:53:823,0.2,0.6818,8.5498,42.774,-0.1239,-0.0972,0.7204,267.4375
19:26:53:839,0.8309,1.0493,8.5139,40.1974,-0.2328,-0.4498,0.6328,266.75
19:26:53:860,1.4019,1.2133,8.7102,42.6762,-0.3034,-0.6208,0.4736,265.9375
19:26:53:889,1.694,1.254,8.6743,40.992,-0.3737,-0.4432,0.2661,265.2188
19:26:53:905,1.366,1.0529,8.2362,42.5929,-0.4603,-0.0125,0.0773,264.6562
19:26:53:920,0.7806,0.9248,7.7549,40.2459,-0.5354,0.4229,0.0046,264.2344
19:26:53:939,0.4418,1.0804,7.5538,41.2992,-0.5375,0.6208,0.0139,264.1875
19:26:53:960,0.2719,1.2432,7.494,42.1217,-0.4307,0.5819,0.0432,264.1719
19:26:53:980,0.194,1.3354,7.4401,42.2062,-0.248,0.4056,0.0754,264.1719
19:26:54:001,0.1534,1.4108,7.2761,39.4289,-0.0499,0.1798,0.1194,264.125
19:26:54:020,0.2479,1.5784,7.4784,40.1036,0.0883,-0.0701,0.1596,264.0469
19:26:54:044,0.5376,1.7101,8.0458,42.5625,0.1911,-0.2535,0.1614,263.9219
19:26:54:058,1.0763,2.1482,8.7773,40.9461,0.2857,-0.2916,0.1156,263.7656
19:26:54:081,1.8508,2.7061,9.2118,39.2045,0.368,-0.1414,-0.0356,263.5781
19:26:54:104,2.4183,3.489,9.3519,38.6771,0.4021,0.078,-0.3422,263.4219
19:26:54:119,1.6689,3.538,8.5163,39.3985,0.307,0.2099,-0.7536,263.3594
19:26:54:139,0.3952,3.0592,8.302,38.1231,-0.0896,0.0746,-1.0378,263.5156
19:26:54:161,-0.462,2.086,10.6507,37.4978,-0.5921,-0.0642,-1.1046,264.0781
19:26:54:187,-1.1455,0.9619,13.6375,38.6067,-0.7737,-0.074,-0.9518,265.1094
19:26:54:204,-1.1671,0.2939,15.6211,38.2257,-0.5381,-0.0983,-0.601,266.3906
19:26:54:220,-0.4261,0.1143,14.9759,38.559,-0.0744,0.0072,-0.2487,267.5938
19:26:54:239,-0.304,0.8625,12.9252,37.1821,0.1453,0.0184,-0.0908,268.5469
19:26:54:259,-0.3459,1.224,12.8462,38.5747,0.0108,-0.1223,-0.1515,269.0312
19:26:54:280,-0.6068,0.1239,14.3773,38.2915,-0.0763,-0.2296,-0.2724,269.1875
19:26:54:303,-0.8486,-1.1295,14.7843,37.555,0.0995,-0.0541,-0.1264,269.2969
19:26:54:320,-0.1064,-1.3066,13.0413,38.1076,0.3967,0.1542,0.2403,269.5781
19:26:54:339,1.4199,-0.507,10.4915,37.7375,0.5853,0.0463,0.4967,269.8906
19:26:54:359,2.5907,0.5094,8.5845,38.8679,0.5488,-0.2168,0.4286,269.5781
19:26:54:383,2.7439,1.0301,7.4162,36.8971,0.3275,-0.335,0.1287,268.9688
19:26:54:405,2.2183,1.1007,6.9625,39.0602,0.0297,-0.2586,-0.1909,268.4688
19:26:54:420,1.6605,1.1187,6.802,36.9755,-0.2486,-0.033,-0.425,268.3281
19:26:54:439,1.1769,1.1378,6.8751,37.2507,-0.463,0.184,-0.5827,268.5781
19:26:54:459,0.789,1.1881,7.3479,39.0396,-0.5405,0.2852,-0.6663,269.0781
19:26:54:480,0.6262,1.2887,8.156,37.8521,-0.4065,0.221,-0.6969,269.7344
19:26:54:504,0.4155,1.2623,8.1955,38.1762,-0.0968,0.1273,-0.6857,270.5
19:26:54:522,0.2359,1.2564,7.5694,38.1894,0.189,0.0594,-0.6024,271.3125
19:26:54:540,0.4454,1.4718,7.2079,38.5423,0.3443,-0.0136,-0.4894,272.0469
19:26:54:561,0.8165,1.8585,7.1061,39.8325,0.3901,-0.0751,-0.4436,272.7188
19:26:54:587,0.9841,2.3385,8.2254,39.5348,0.161,-0.0344,-0.585,273.2656
19:26:54:603,0.5197,2.2655,9.4165,38.6593,0.0428,0.1451,-0.6482,273.7656
19:26:54:620,-0.1196,1.9878,10.4257,37.0261,0.051,0.3705,-0.6226,274.2969
19:26:54:639,-0.6942,1.91,10.683,37.7945,0.1557,0.5148,-0.4945,274.9531
19:26:54:658,-1.1204,2.1087,10.4963,37.8007,0.2119,0.5095,-0.3286,275.6875
19:26:54:679,-1.3215,2.3481,10.8506,38.7487,0.2135,0.3031,-0.1834,276.3281
19:26:54:702,-1.2449,2.2954,11.5725,40.2981,0.2489,0.0397,-0.0782,276.8281
19:26:54:719,-0.875,1.9399,11.8718,37.9514,0.3211,-0.041,0.0134,277.1406
19:26:54:738,-0.4476,1.7172,11.0673,40.4625,0.3506,0.0421,0.0957,277.3906
19:26:54:758,-0.2214,2.0153,10.0091,40.8173,0.2092,0.0676,0.117,277.375
19:26:54:778,-0.2465,2.408,10.2844,38.7916,-0.0856,-0.078,0.0594,277.3125
19:26:54:802,-0.4452,2.0225,12.2979,40.8125,-0.2406,-0.3068,-0.0564,277.1719
19:26:54:820,-0.9564,1.0062,13.0437,39.8368,-0.0965,-0.2983,-0.1217,277.0625
19:26:54:839,-1.525,0.2903,11.6683,40.1364,0.0729,0.009,-0.0348,277.0781
19:26:54:858,-1.6279,0.2999,9.6499,40.5357,0.0428,0.2735,0.142,277.2344
19:26:54:879,-1.0845,0.7512,8.4169,41.0784,-0.1551,0.1939,0.2419,277.375
19:26:54:903,-0.5781,1.1893,8.8228,40.2563,-0.4068,-0.2029,0.1865,277.2969
19:26:54:922,-0.3997,1.0792,10.045,40.0322,-0.5215,-0.5689,0.0355,277.0156
19:26:54:939,-0.5398,0.8972,10.519,40.8277,-0.5117,-0.5292,-0.0772,276.7656
19:26:54:959,-0.8558,0.9475,10.0007,41.0954,-0.4912,-0.1412,-0.0985,276.7031
19:26:54:980,-0.9288,1.1223,9.1735,41.1698,-0.4403,0.2213,-0.0452,276.8125
19:26:55:003,-0.7074,1.3617,8.0817,40.7168,-0.3412,0.4115,0.0235,276.9062
19:26:55:023,-0.4799,1.7927,7.2426,41.1551,-0.2646,0.367,0.056,277.0469
19:26:55:039,-0.6954,1.8334,7.3635,43.1179,-0.1812,0.1185,0.04,277.0938
19:26:55:060,-1.021,1.4838,7.9189,42.228,-0.0052,-0.1417,0.0839,277.0469
19:26:55:085,-1.173,1.1905,8.0434,43.6341,0.1938,-0.1872,0.2211,276.9688
19:26:55:102,-0.9001,1.2635,7.9034,43.4382,0.2905,-0.0264,0.3993,276.9219
19:26:55:120,-0.3542,1.5951,7.8327,42.5303,0.259,0.1585,0.4946,276.8438
19:26:55:138,0.0791,2.0393,8.4002,43.0733,0.1895,0.2056,0.4541,276.6094
19:26:55:159,-0.013,2.2128,9.2549,43.1419,0.202,0.1273,0.3111,276.1406
19:26:55:179,-0.5458,1.6981,9.5051,43.2878,0.2843,0.1281,0.1985,275.5469
19:26:55:202,-1.0916,1.3461,9.122,42.426,0.3059,0.2277,0.2552,274.8125
19:26:55:222,-0.9372,1.2695,8.8299,45.3033,0.2401,0.1859,0.3894,274.5312
19:26:55:240,-0.5565,1.3617,9.1268,44.689,0.1174,-0.0924,0.4866,274.2656
19:26:55:258,-0.0166,1.3821,10.3347,44.0042,-0.0398,-0.5047,0.4994,273.8594
19:26:55:279,0.5807,0.7823,12.3303,42.7714,-0.1418,-0.8211,0.4347,273.375
19:26:55:303,1.0141,-0.1885,13.4603,43.4122,-0.1415,-0.7356,0.3457,272.8281
19:26:55:320,0.4466,0.0257,12.7097,42.9352,-0.1916,-0.2754,0.2842,272.3438
19:26:55:345,-0.013,0.6973,12.5182,46.1727,-0.3889,-0.0421,0.2126,272
19:26:55:357,0.0217,0.2795,14.0014,45.6761,-0.4424,-0.1406,0.1069,271.7188
19:26:55:379,0.2635,-0.6231,14.4814,45.5155,-0.2366,-0.2578,0.0909,271.4375
19:26:55:404,1.1781,-1.1486,13.7129,46.2396,0.0172,-0.3689,0.1774,271.2969
19:26:55:419,2.2375,-0.6231,12.0633,45.054,0.1027,-0.4091,0.2248,271.25
19:26:55:438,3.0587,0.2951,10.798,47.2192,-0.0728,-0.3025,0.072,271.1406
19:26:55:459,3.1078,0.7799,9.8798,47.4086,-0.3514,0.0011,-0.2902,270.9219
19:26:55:479,2.2459,0.8374,8.8766,47.6076,-0.6142,0.4229,-0.6452,270.7344
19:26:55:502,1.19,0.8506,8.5546,47.6962,-0.7863,0.7484,-0.8564,270.875
19:26:55:522,0.2336,0.6004,8.3607,46.4324,-0.7687,0.9073,-0.9249,271.4531
19:26:55:538,-0.4787,0.4926,7.7573,46.2219,-0.6222,0.8991,-0.8266,272.3125
19:26:55:618,-0.7948,0.6422,7.4521,46.7716,-0.4342,0.6756,-0.6138,273.3438
19:26:55:619,-0.7565,0.8649,7.9046,48.7319,-0.1642,0.3177,-0.3749,274.3594
19:26:55:619,-0.2836,0.9894,8.0889,48.6526,0.238,0.0144,-0.1739,275.1406
19:26:55:621,0.1713,1.23,7.2905,46.7936,0.561,-0.0876,-0.0532,275.7031
19:26:55:646,0.5903,1.5173,6.4657,47.2001,0.6412,-0.0077,-0.0295,276.0625
19:26:55:657,0.8213,1.8645,6.4118,48.6403,0.5312,0.053,-0.1012,276.1094
19:26:55:678,0.7172,2.0572,7.2426,48.0871,0.401,0.0591,-0.2266,276.125
19:26:55:707,0.0779,1.9591,8.3188,48.1566,0.3448,0.077,-0.3273,276.2188
19:26:55:717,-0.2908,1.722,9.1544,48.594,0.3698,0.1252,-0.3275,276.4531
19:26:55:738,-0.4608,1.6466,9.632,47.8308,0.3855,0.2453,-0.2932,276.8125
19:26:55:762,-0.4823,1.6706,9.9947,49.6494,0.3043,0.4541,-0.2639,277.1719
19:26:55:787,-0.693,1.7591,10.2916,50.4077,0.1661,0.5904,-0.2623,277.4688
19:26:55:803,-1.0881,1.5305,11.1164,50.5729,0.0428,0.5641,-0.2657,277.7188
19:26:55:820,-1.0845,1.2264,12.0202,51.0555,0.0305,0.551,-0.2226,277.9688
19:26:55:843,-0.8127,1.2671,11.673,50.2637,0.0798,0.632,-0.1904,278.2188
19:26:55:857,-1.0354,1.7077,10.3048,51.5724,-0.0358,0.6227,-0.2151,278.4219
19:26:55:878,-1.258,1.8741,10.3323,51.1107,-0.3692,0.3028,-0.3091,278.5781
19:26:55:903,-1.7524,1.1402,12.4967,51.1521,-0.6438,-0.029,-0.4458,278.7656
19:26:55:920,-2.6287,-0.2699,13.9044,51.2043,-0.5636,-0.0482,-0.4125,279.0625
19:26:55:938,-3.0298,-0.92,13.0916,51.6916,-0.2603,0.1326,-0.1177,279.5625
19:26:55:959,-2.4599,-0.5046,10.7513,49.7074,-0.0427,0.1089,0.2533,280.0312
19:26:55:978,-0.6463,0.665,9.1448,51.2646,-0.0752,-0.2946,0.3955,280.1406
19:26:56:003,-0.7888,0.3334,9.5877,51.2396,-0.3855,-0.8591,0.0669,279.8594
19:26:56:022,-1.3586,0.003,9.4297,51.2396,-0.4707,-0.5449,-0.0018,279.4219
19:26:56:038,-1.9009,-0.1778,8.6839,50.0703,-0.4883,-0.1393,0.0898,279.1406
19:26:56:058,-1.9176,-0.0245,7.8555,50.8717,-0.4377,0.081,0.2863,279.1406
19:26:56:078,-1.4795,0.3873,7.4353,51.2696,-0.3176,0.0032,0.4704,279.1719
19:26:56:104,-0.9588,0.7572,7.4916,51.6883,-0.1298,-0.2897,0.5724,278.9531
19:26:56:122,-0.5111,0.9355,7.6556,51.2926,0.1096,-0.5574,0.6027,278.5312
19:26:56:140,-0.1411,1.0193,7.4138,51.8412,0.3112,-0.6466,0.5822,278.2344
19:26:56:158,-0.0346,1.0553,7.0798,51.5064,0.361,-0.5473,0.5183,277.5938
19:26:56:178,-0.0154,1.0912,7.1456,51.6004,0.2865,-0.4045,0.4336,276.9219
19:26:56:202,-0.1148,1.175,7.7908,51.3901,0.1589,-0.2975,0.3268,276.3125
19:26:56:220,-0.5422,1.0732,8.7378,52.3004,0.0819,-0.2354,0.2059,275.7344
19:26:56:237,-1.2664,0.8446,9.3363,52.1587,0.0668,-0.159,0.1481,275.25
19:26:56:258,-1.6232,0.9224,9.7337,53.0551,0.0617,-0.1209,0.207,274.9062
19:26:56:278,-1.3251,1.0936,10.2281,50.8548,0.0436,-0.2504,0.2656,274.6719
19:26:56:303,-0.6918,1.1702,11.4013,51.6991,0.0359,-0.5412,0.2461,274.5
19:26:56:321,-0.371,0.9559,12.912,52.3811,0.0644,-0.7595,0.1481,274.2812
19:26:56:338,-0.5135,0.1981,14.3091,53.0084,0.1195,-0.7321,0.1167,274
19:26:56:358,-0.0657,-0.5154,14.4132,54.787,0.2063,-0.371,0.2483,273.7344
19:26:56:379,0.728,-0.398,12.6846,53.4349,0.2108,0.1417,0.3748,273.6094
19:26:56:404,0.7651,0.3897,10.8147,52.396,-0.0161,0.3987,0.333,273.5
19:26:56:420,0.7687,0.4304,11.4887,54.335,-0.3205,0.1941,0.1897,273.2188
19:26:56:437,0.5508,-0.5201,12.8881,53.786,-0.3418,-0.0575,0.0485,272.7812
19:26:56:458,0.4011,-1.3294,12.7732,52.7242,-0.1751,-0.1012,0.1353,272.3906
19:26:56:478,1.3504,-1.4024,12.037,52.5424,0.0034,-0.1529,0.378,272.1562
19:26:56:504,2.6876,-0.4854,10.8231,53.5592,0.1267,-0.2581,0.4863,272.125
19:26:56:519,3.3556,0.5477,9.7637,53.601,0.0915,-0.3587,0.2682,271.8438
19:26:56:537,3.0204,0.8853,9.1484,53.3677,-0.1048,-0.2141,-0.1264,271.3125
19:26:56:558,1.9693,0.6303,8.9568,52.7493,-0.3676,0.2051,-0.4636,270.8438
19:26:56:578,0.6226,0.264,8.9473,51.5656,-0.5298,0.7004,-0.5962,270.7656
19:26:56:602,-0.3806,0.1873,8.6707,52.4658,-0.4917,0.991,-0.5198,271.1562
19:26:56:620,-0.9636,0.349,8.1284,53.733,-0.2872,0.9542,-0.3169,271.8125
19:26:56:637,-0.7648,0.6279,7.7011,52.9471,0.009,0.6605,-0.0575,272.4844
19:26:56:659,0.0851,1.1678,7.2342,52.3856,0.2686,0.4061,0.1226,272.9375
19:26:56:678,1.0524,1.7053,6.6871,53.9455,0.2785,0.5396,0.1228,273.125
19:26:56:702,1.694,2.0512,6.255,53.1026,0.1176,0.9236,-0.0284,273.0469
19:26:56:719,1.5432,2.2667,6.1604,51.8671,-0.056,1.0527,-0.2716,272.8594
19:26:56:740,0.5089,1.892,6.9732,53.3843,-0.1602,0.8621,-0.5012,272.7656
19:26:56:758,-0.7062,1.1175,7.9561,54.7193,-0.1213,0.5859,-0.551,272.8906
19:26:56:778,-1.7309,0.6746,8.6133,53.9254,-0.0038,0.3672,-0.3936,273.2812
19:26:56:801,-2.3546,0.3502,9.1472,55.0157,0.1355,0.1904,-0.1177,273.8906
19:26:56:820,-2.3043,0.2999,9.1855,52.6423,0.2391,0.0514,0.2171,274.4375
19:26:56:837,-1.6255,0.6698,9.7062,53.119,0.2383,-0.1649,0.5042,274.7188
19:26:56:860,-0.9241,0.9475,11.1798,52.3631,0.238,-0.4589,0.6323,274.6719
19:26:56:879,-0.6882,0.7883,12.784,52.5235,0.3251,-0.6141,0.6645,274.25
19:26:56:904,-0.5613,0.4411,12.9552,52.7848,0.4681,-0.4216,0.7124,273.5781
19:26:56:919,-0.1651,0.8218,10.968,52.5559,0.3941,0.0202,0.7218,272.5312
19:26:56:937,0.1318,1.7567,9.3028,53.5418,-0.1458,0.3928,0.5867,271.75
19:26:56:958,0.4395,2.2356,11.3905,52.2377,-0.8805,0.2682,0.2967,270.9219
19:26:56:979,-0.2381,1.1007,15.068,51.9023,-1.1263,0.0959,-0.0993,270.25
19:26:57:002,-1.513,-0.6698,16.3046,53.4903,-0.7692,0.1257,-0.2154,269.9062
19:26:57:023,-2.1116,-1.1462,13.6447,52.3726,-0.2544,0.522,0.0046,270.0156
19:26:57:040,-1.7369,-0.2783,9.8822,51.9972,-0.0933,0.5944,0.2597,270.2344
19:26:57:058,-1.039,0.483,7.9177,51.9023,-0.2108,0.1806,0.2613,270.2188
19:26:57:077,-0.7409,0.6997,8.0231,50.6047,-0.3636,-0.363,0.113,269.9062
19:26:57:104,-0.6739,0.5022,9.1125,51.1469,-0.3958,-0.6751,-0.0189,269.6094
19:26:57:121,-0.8929,0.3992,9.7242,50.7672,-0.3024,-0.645,-0.0854,269.4844
19:26:57:137,-1.3933,0.1826,9.6883,51.7305,-0.142,-0.4021,-0.0663,269.5156
19:26:57:162,-1.7728,0.0509,9.1376,49.64,0.0476,-0.1071,0.0757,269.6094
19:26:57:177,-1.6064,0.2604,8.2793,49.6384,0.2356,0.061,0.2744,269.6875
19:26:57:197,-1.1623,0.5692,7.7142,51.4031,0.4052,0.0157,0.3979,269.5938
19:26:57:217,-0.7385,0.6866,7.3276,48.6978,0.5501,-0.1476,0.432,269.2812
19:26:57:237,-0.3483,0.7799,7.1696,48.0387,0.6423,-0.3342,0.3849,268.8594
19:26:57:262,-0.1184,0.6877,7.2019,49,0.6348,-0.4309,0.244,268.3594
19:26:57:276,-0.207,0.5202,7.561,47.4797,0.4881,-0.3899,0.0576,267.9219
19:26:57:297,-0.6703,0.2628,8.4349,46.4539,0.2684,-0.2485,-0.1208,267.75
19:26:57:321,-1.258,-0.0413,9.377,48.4192,0.1062,-0.0932,-0.2077,267.5938
19:26:57:338,-1.4292,-0.1622,10.1683,48.598,0.058,0.0194,-0.1656,267.6406
19:26:57:358,-0.8977,0.2592,10.124,45.4477,0.0902,-0.0298,-0.1824,267.9688
19:26:57:380,-1.0545,0.0449,10.5262,46.3268,-0.0177,-0.1963,-0.3049,268.2812
19:26:57:403,-1.3371,-0.4926,11.7485,45.7786,-0.149,-0.2583,-0.3467,268.2812
19:26:57:420,-1.2389,-0.9259,12.8833,46.4574,-0.1777,-0.1001,-0.2404,268.4844
19:26:57:436,-0.5745,-0.9475,12.3219,43.7141,-0.0909,0.1941,-0.0631,268.8281
19:26:57:456,-0.0873,-0.0688,10.5035,42.6126,-0.1266,0.3007,-0.0239,269.2344
19:26:57:476,-0.1795,0.4627,10.4376,43.3195,-0.3812,0.1036,-0.1936,269.5156
19:26:57:496,-0.511,-0.519,12.3889,44.0095,-0.6313,-0.1089,-0.4359,269.5938
19:26:57:518,-1.1371,-1.8717,13.8242,41.6323,-0.6712,-0.0448,-0.4487,269.6094
19:26:57:536,-0.869,-2.1865,14.0074,43.6798,-0.5439,0.0426,-0.2042,269.8281
19:26:57:556,0.2611,-1.4718,13.4555,42.7213,-0.3799,-0.0043,0.0334,270.3594
19:26:57:576,1.1864,-0.4878,12.9396,44.1664,-0.2129,-0.0397,0.0664,270.8438
19:26:57:596,1.2666,0.0449,11.703,42.5355,-0.0132,0.065,-0.0559,271.0938
19:26:57:618,0.7064,0.246,9.7613,41.7568,0.1224,0.2732,-0.1371,271.0625
19:26:57:708,0.3317,0.4292,8.0602,42.6583,0.1847,0.4746,-0.1328,271
19:26:57:709,0.1869,0.6494,6.6644,43.516,0.2313,0.5108,-0.1059,271.0625
19:26:57:709,0.1222,0.8374,5.8599,43.2442,0.2548,0.3912,-0.1041,271.2031
19:26:57:709,0.0109,1.0134,5.7091,43.7668,0.2625,0.2431,-0.1179,271.3594
19:26:57:724,-0.2238,1.0756,5.909,42.8813,0.2787,0.1555,-0.1368,271.4531
19:26:57:737,-0.4727,1.0002,6.2274,41.8467,0.3147,0.1318,-0.1075,271.5781
19:26:57:757,-0.6559,0.9523,6.559,41.6647,0.3871,0.1007,-0.0452,271.8438
19:26:57:778,-0.8427,1.078,7.148,42.5465,0.516,-0.0226,0.0299,271.9688
19:26:57:802,-0.8714,1.0995,7.3479,42.0885,0.6718,-0.2461,0.1079,272
19:26:57:820,-0.7517,1.2647,7.6831,42.2897,0.7525,-0.469,0.1617,272.0156
19:26:57:837,-0.5362,1.5185,8.126,43.4812,0.7299,-0.5662,0.1404,271.9375
19:26:57:857,-0.7397,1.5101,8.6659,41.5548,0.5621,-0.4056,0.0728,271.7969
19:26:57:877,-0.9564,1.4862,9.2274,39.4613,0.3408,-0.0463,0.0491,271.6406
19:26:57:904,-0.9468,1.5892,9.4919,41.4295,0.1389,0.2754,0.0485,271.5469
19:26:57:920,-0.7038,1.4359,9.8343,40.7691,-0.0408,0.432,-0.0183,271.5
19:26:57:937,-0.8103,1.0409,10.0115,42.5407,-0.2355,0.5151,-0.1888,271.4219
19:26:57:957,-1.4843,0.4794,10.3096,42.2515,-0.4662,0.5547,-0.352,271.3594
19:26:57:977,-2.0314,0.0293,10.3359,41.8695,-0.7335,0.5888,-0.3917,271.4375
19:26:57:997,-2.5509,0.1143,10.7645,42.8422,-1.0867,0.4413,-0.3563,271.7188
19:26:58:020,-2.5856,-0.2699,13.6698,44.0138,-1.3362,0.0298,-0.3145,272.125
19:26:58:037,-2.4264,-1.1163,16.4639,43.1302,-1.0976,-0.1689,-0.213,272.4844
19:26:58:057,-2.5713,-1.4922,15.262,43.7531,-0.4784,0.0394,-0.0141,272.8438
19:26:58:078,-2.4683,-1.3533,11.2098,41.9873,-0.1106,0.1598,0.2898,273.1406
19:26:58:104,-1.1886,-0.5704,8.8479,42.6117,-0.2094,-0.0264,0.5082,273.2656
19:26:58:120,0.1976,0.1658,9.0598,43.6279,-0.4795,-0.3894,0.4128,273.125
19:26:58:137,0.4359,0.0102,10.7106,41.2477,-0.6345,-0.6328,0.0874,272.625
19:26:58:157,-0.3219,-0.6686,11.8598,43.2253,-0.5852,-0.5393,-0.1464,272.0469
19:26:58:177,-1.4065,-1.0672,11.6563,40.7082,-0.4092,-0.143,-0.151,271.7656
19:26:58:198,-1.9344,-1.1139,10.3898,43.5825,-0.1705,0.2272,0.0294,271.9219
19:26:58:220,-1.6926,-0.8098,8.7449,42.4767,0.0686,0.3678,0.2616,272.0781
19:26:58:237,-1.1084,-0.2017,7.5443,42.6062,0.2372,0.2535,0.4102,272.0625
19:26:58:256,-0.79,0.2149,7.0187,42.0695,0.3475,0.0461,0.4331,271.7656
19:26:58:276,-0.7253,0.24,6.7027,42.9866,0.4255,-0.1169,0.4272,271.2969
19:26:58:297,-0.6463,0.3657,6.6931,44.5079,0.4574,-0.2115,0.4416,270.8281
19:26:58:320,-0.5601,0.5896,6.9696,42.774,0.4716,-0.2509,0.4427,270.3438
19:26:58:337,-0.5206,0.7991,7.148,43.583,0.4673,-0.2482,0.4091,269.8438
19:26:58:356,-0.5781,1.0157,7.6268,42.982,0.4018,-0.2296,0.3588,269.3594
19:26:58:377,-0.5925,1.1797,8.2422,43.4818,0.3339,-0.2077,0.3045,268.8906
19:26:58:396,-0.62,1.1762,8.8658,42.912,0.2889,-0.2269,0.2493,268.4844
19:26:58:419,-0.7852,1.1414,9.5913,43.1877,0.238,-0.2658,0.2011,268.1562
19:26:58:437,-0.9839,1.1283,10.361,42.9008,0.1847,-0.338,0.1649,268.0156
19:26:58:457,-1.1108,0.9355,11.2169,42.8016,0.1448,-0.4472,0.138,267.7656
19:26:58:478,-1.0234,0.5704,12.2201,42.3293,0.0947,-0.5484,0.1521,267.5469
19:26:58:503,-0.6571,0.2388,13.4531,42.3293,0.075,-0.5931,0.215,267.4062
19:26:58:523,-0.0214,-0.1646,14.0661,41.2335,0.1613,-0.5207,0.2762,267.25
19:26:58:541,0.716,-0.1095,13.1934,41.7155,0.2034,-0.3401,0.2618,267.0625
19:26:58:557,0.7292,0.6111,12.4284,41.3284,0.0068,-0.1622,0.0722,266.7969
19:26:58:577,0.0588,0.3621,13.616,42.6711,-0.2731,-0.1382,-0.2335,266.4844
19:26:58:596,-1.4508,-1.0169,15.0213,41.7223,-0.2827,0.028,-0.3984,266.2656
19:26:58:620,-2.3043,-2.2583,14.5018,42.2668,-0.0315,0.4077,-0.1629,266.375
19:26:58:638,-1.9356,-2.0333,12.1423,43.6088,0.2854,0.591,0.3148,267.0156
19:26:58:656,-0.3614,-0.8577,9.8152,43.3179,0.4564,0.3049,0.6682,267.1875
19:26:58:676,0.8345,0.2556,8.8263,43.0398,0.4742,-0.1654,0.6669,266.7969
19:26:58:698,1.2846,0.7368,8.375,42.5311,0.3823,-0.3441,0.4291,266.0469
19:26:58:721,0.8943,0.8158,7.8878,43.0705,0.2172,-0.1563,0.1556,265.2656
19:26:58:739,0.2755,0.738,7.3108,42.4389,0.0657,0.1438,-0.0263,264.7812
19:26:58:757,-0.5733,0.7811,6.4669,42.8387,0.0042,0.2876,-0.0295,264.6094
19:26:58:778,-0.4249,0.8781,6.3771,42.0658,0.0825,0.1257,0.0427,264.6094
19:26:58:803,-0.0502,1.0517,6.3352,42.2421,0.1621,-0.0234,0.0829,264.7031
19:26:58:820,0.3748,1.1019,6.334,43.338,0.2026,-0.0509,0.0584,264.7188
19:26:58:837,0.5855,1.1462,6.3112,43.2189,0.1778,-0.0003,-0.0205,264.6719
19:26:58:856,0.6561,1.2324,6.6081,42.3139,0.0827,-0.0011,-0.1225,264.5625
19:26:58:876,0.7675,1.2612,7.7897,43.1541,-0.0153,-0.0423,-0.2498,264.5
19:26:58:899,0.3688,1.0708,8.9101,42.7432,-0.0526,0.0019,-0.3933,264.5156
19:26:58:920,-0.371,0.9439,9.5494,42.06,-0.043,0.1127,-0.4498,264.6562
19:26:58:936,-1.0713,0.8326,10.3107,42.5117,0.0092,0.183,-0.3976,264.9375
19:26:58:958,-1.5573,0.75,10.7202,43.2456,0.1384,0.2365,-0.2378,265.375
19:26:58:975,-1.4843,1.1079,10.4736,43.1541,0.2489,0.2543,-0.0226,265.875
19:26:58:996,-1.191,1.7125,10.3479,41.3974,0.2907,0.1526,0.1218,266.3281
19:26:59:020,-0.79,1.9962,10.7692,40.0845,0.3083,-0.0439,0.171,266.5781
19:26:59:039,-0.3842,1.8621,11.0912,42.3513,0.3166,-0.1452,0.1468,266.5781
19:26:59:056,-0.049,1.6957,10.7956,44.4373,0.2188,-0.0762,0.0871,266.4219
19:26:59:076,-0.025,2.0848,10.4364,41.9949,-0.092,0.0623,-0.0045,266.0625
19:26:59:096,0.0683,2.3517,11.6575,44.3623,-0.5215,0.0149,-0.1387,266
19:26:59:120,0.0576,1.4084,14.1858,43.5177,-0.692,-0.0328,-0.3376,265.9531
19:26:59:139,-0.9839,-0.0808,14.8502,44.8471,-0.4451,0.0607,-0.445,266.0312
19:26:59:156,-2.041,-0.9678,12.8079,41.6172,-0.0851,0.2176,-0.2873,266.2969
19:26:59:176,-2.1044,-0.8027,10.203,42.1556,-0.0025,0.2586,0.0658,266.7969
19:26:59:197,-1.1587,-0.2927,8.9125,43.3456,-0.1396,0.045,0.2784,267.25
19:26:59:220,-0.8953,-0.0389,8.9018,43.1321,-0.3527,-0.2104,0.1934,267.3594
19:26:59:238,-1.4915,-0.4411,9.4991,42.7861,-0.5141,-0.3342,0.1007,267.1094
19:26:59:255,-1.7596,-0.6087,9.7733,43.8203,-0.5721,-0.2895,0.1801,266.8281
19:26:59:277,-1.7309,-0.4172,9.5338,42.9599,-0.5562,-0.0866,0.3351,266.7031
19:26:59:296,-1.4077,-0.0485,9.0131,42.1849,-0.4827,0.0999,0.4973,266.5938
19:26:59:319,-0.9576,0.185,8.3727,45.4766,-0.3412,0.1398,0.6195,266.3281
19:26:59:337,-0.6822,0.3921,7.8399,43.4157,-0.1617,0.0285,0.7093,265.8438
19:26:59:356,-0.4991,0.5369,7.1504,42.4112,0.0313,-0.1305,0.7782,265.2344
19:26:59:376,-0.377,0.6889,6.5878,41.8636,0.1637,-0.3108,0.8238,264.4844
19:26:59:397,-0.134,0.7536,6.3412,44.2659,0.2092,-0.4176,0.8366,263.625
19:26:59:421,0.1294,0.9152,6.3651,43.1535,0.1557,-0.4112,0.795,262.75
19:26:59:438,0.2886,1.1606,6.6093,42.9593,0.0566,-0.3691,0.6874,261.7969
19:26:59:457,-0.025,1.1055,7.4341,43.6437,-0.0656,-0.4045,0.5292,260.8594
19:26:59:476,-0.4883,0.8805,9.2022,45.0605,-0.1514,-0.4061,0.4371,260.0469
19:26:59:495,-0.7732,0.8158,10.719,42.5856,-0.0707,-0.351,0.4078,259.3594
19:26:59:523,-1.1072,0.9152,11.0972,42.8498,0.063,-0.2975,0.3947,258.5938
19:26:59:536,-0.8666,0.8936,11.0565,44.2352,0.0979,-0.2852,0.3859,258.1562
19:26:59:556,-0.0885,0.8003,11.5689,43.479,0.0074,-0.3734,0.322,257.7031
19:26:59:577,0.5412,0.6099,13.082,45.0699,-0.1061,-0.4666,0.2038,257.4844
19:26:59:596,0.5855,0.2065,14.4755,44.2498,-0.096,-0.3121,0.113,257.0625
19:26:59:622,0.5005,-0.2987,14.57,44.1052,0.0617,0.1193,0.0861,256.7969
19:26:59:639,0.7447,-0.501,12.839,44.6251,0.2292,0.5931,0.1159,256.6406
19:26:59:656,0.7794,0.4256,10.7106,44.7994,0.2143,0.8091,0.0967,256.5312
19:26:59:676,0.8153,1.2097,10.8123,44.9965,0.0649,0.4719,-0.0612,256.4219
19:26:59:696,1.0727,0.9104,12.3925,43.8864,0.0273,0.0221,-0.3411,256.25
19:26:59:721,0.9446,-0.3262,13.3322,44.0735,0.1032,-0.1531,-0.5584,256.1875
19:26:59:780,0.8477,-1.406,13.3885,43.4495,0.1498,0.0088,-0.5653,256.4062
19:26:59:780,0.8453,-1.412,12.7971,45.2936,0.1752,0.2858,-0.4202,256.9219
19:26:59:781,1.0979,-0.6973,11.3474,42.9979,0.2345,0.4559,-0.3243,257.5781
19:26:59:803,1.0212,-0.0796,9.6763,44.1808,0.2542,0.4187,-0.3869,258.1406
19:26:59:822,0.5256,0.1371,8.4983,44.0033,0.1831,0.4133,-0.4849,258.5
19:26:59:837,-0.1651,0.24,7.8675,44.3131,0.0835,0.5478,-0.5091,258.8594
19:26:59:856,-0.8103,0.4256,7.1372,44.0805,0.063,0.6978,-0.4239,259.3438
19:26:59:876,-0.9719,0.6949,6.3651,43.8891,0.1392,0.6823,-0.2596,259.8906
19:26:59:898,-0.9408,1.0205,5.5702,43.9749,0.2407,0.4695,-0.1225,260.4062
19:26:59:922,-0.7337,1.2707,5.5056,44.7042,0.2913,0.1867,-0.0149,260.7656
19:26:59:938,-0.4428,1.4503,5.9413,43.2205,0.3371,-0.0522,0.0232,260.9688
19:26:59:955,-0.3291,1.5963,6.4752,45.2834,0.3445,-0.1492,-0.0165,261.0156
19:26:59:976,-0.8187,1.5796,7.2222,45.7867,0.2875,-0.098,-0.0932,260.9844
19:26:59:996,-1.5046,1.4036,8.1787,44.8798,0.2284,0.0218,-0.0873,261
19:27:00:021,-1.9021,1.3461,9.4285,43.7024,0.2388,0.0882,0.0491,261.1094
19:27:00:038,-1.4843,1.5676,10.3431,43.5037,0.3845,0.0578,0.2496,261.2031
19:27:00:057,-0.7864,2.1817,10.6675,44.3039,0.5749,-0.0392,0.3604,261.1406
19:27:00:075,-0.3135,2.6606,10.5765,43.2235,0.6678,-0.0373,0.3204,260.8594
19:27:00:095,-0.2249,2.8509,10.3263,42.7592,0.6218,0.1409,0.2038,260.4375
19:27:00:121,-0.5817,2.8198,10.5226,43.1911,0.4843,0.3273,0.0999,260.0625
19:27:00:140,-0.9181,2.1207,11.3283,43.2787,0.3805,0.4826,0.1172,259.8281
19:27:00:155,-0.7038,2.0165,10.3981,44.0257,0.3488,0.437,0.1593,259.6875
19:27:00:176,-0.7708,2.5361,9.4213,42.3831,0.1142,0.3156,0.1543,259.5469
19:27:00:195,-0.7553,2.8916,10.5286,44.9214,-0.2771,-0.0357,0.109,259.375
19:27:00:221,-0.9049,1.995,13.0234,42.672,-0.4267,-0.3135,-0.0506,259.1562
19:27:00:238,-1.9643,0.5046,13.6926,43.5976,-0.2337,-0.3553,-0.1041,258.9531
19:27:00:255,-2.4767,-0.5285,11.8323,42.1837,-0.0579,0.0109,0.0757,258.8281
19:27:00:275,-2.4025,-0.246,9.28,43.0026,-0.1836,0.384,0.326,258.9219
19:27:00:295,-2.0457,0.4926,8.1871,42.0097,-0.4531,0.3095,0.436,259.0625
19:27:00:317,-1.7429,0.6506,8.6791,41.7493,-0.6683,-0.0948,0.3889,258.9844
19:27:00:337,-1.5765,0.3849,9.7457,41.6171,-0.7234,-0.4125,0.3644,258.5938
19:27:00:357,-1.3478,0.4902,10.2712,42.0494,-0.648,-0.4661,0.407,258.0625
19:27:00:375,-1.1431,0.7261,9.9456,41.9392,-0.4792,-0.3641,0.4392,257.6094
19:27:00:395,-1.0138,0.8254,8.9006,40.7449,-0.3226,-0.1907,0.4605,257.0312
19:27:00:422,-0.8893,0.9727,7.6711,40.5427,-0.239,-0.0221,0.5045,256.5781
19:27:00:438,-0.6834,1.2731,6.8595,41.1888,-0.2065,0.0405,0.5415,256.0781
19:27:00:455,-0.4871,1.4838,6.5578,41.0387,-0.1343,-0.0826,0.5468,255.5781
19:27:00:476,-0.286,1.6335,6.2622,42.4144,-0.0488,-0.3353,0.5061,254.9688
19:27:00:497,-0.2836,1.6251,6.2442,38.2383,-0.0347,-0.5284,0.4062,254.3438
19:27:00:521,-0.4201,1.5018,6.5147,39.8509,-0.0861,-0.612,0.2959,253.7344
19:27:00:539,-0.6858,1.3725,7.2641,39.474,-0.1508,-0.6932,0.1987,253.2656
19:27:00:554,-0.9217,1.1175,8.3487,40.4183,-0.1804,-0.7428,0.1351,252.8906
19:27:00:576,-1.2628,0.8817,9.2537,39.4996,-0.1895,-0.6671,0.1183,252.6406
19:27:00:596,-1.6651,0.7967,9.9001,39.7977,-0.2206,-0.489,0.1535,252.5156
19:27:00:620,-1.9176,0.5776,10.4915,38.8382,-0.3056,-0.2714,0.2256,252.4062
19:27:00:638,-1.6962,0.3681,11.5222,39.4382,-0.4089,-0.1174,0.3279,252.2969
19:27:00:656,-1.179,0.088,12.523,38.6874,-0.4558,-0.0296,0.423,252.125
19:27:00:675,-0.6727,-0.1442,13.5298,38.264,-0.4811,0.0551,0.4978,251.8438
19:27:00:695,-0.2704,-0.6458,14.6754,38.5168,-0.4507,0.3614,0.5756,251.4375
19:27:00:721,-0.1411,-0.7715,14.2325,39.2262,-0.3519,0.8392,0.6547,251.2031
19:27:00:739,-0.2094,0.0174,12.857,37.5838,-0.325,1.1068,0.6408,250.6875
19:27:00:756,-0.7924,0.6207,12.42,36.9556,-0.3327,0.9095,0.4139,250.0469
19:27:00:774,-1.6758,-0.3968,13.1311,38.2108,-0.2379,0.6208,0.2027,249.3125
19:27:00:795,-1.8255,-1.6873,12.5948,37.908,-0.0038,0.608,0.3058,248.625
19:27:00:815,-1.0737,-1.8944,10.6435,38.3866,0.1429,0.6024,0.5902,248.0312
19:27:00:837,0.1665,-0.9822,9.3782,38.7111,0.0167,0.2953,0.7583,247.7969
19:27:00:856,1.0045,0.0006,10.4173,37.8182,-0.2129,-0.1486,0.6416,247.3281
19:27:00:875,1.2271,0.1646,11.7604,38.1249,-0.198,-0.3577,0.3537,246.5156
19:27:00:895,0.9183,-0.1059,11.2684,37.908,-0.0219,-0.1481,0.0658,245.6719
19:27:00:922,-0.037,-0.3154,9.1053,37.8925,0.0636,0.3523,-0.0814,245.0938
19:27:00:938,-0.7744,-0.0114,7.1277,37.5607,0.0233,0.6685,-0.0569,244.875
19:27:00:955,-0.948,0.4196,6.0096,38.009,-0.0131,0.6381,0.0349,244.9219
19:27:00:975,-0.784,0.7727,5.8037,38.4018,0.0146,0.3222,0.109,245.0156
19:27:00:995,-0.6463,0.8338,6.2179,38.4018,0.0793,0.0658,0.1391,245.0312
19:27:01:020,-0.6367,0.7859,6.4226,37.3381,0.1451,0.0495,0.171,244.9531
19:27:01:039,-0.5649,0.8027,6.31,39.2138,0.1658,0.1372,0.1931,244.8125
19:27:01:059,-0.7541,0.6447,6.3412,38.0752,0.0915,0.3286,0.1875,244.6406
19:27:01:074,-1.1156,0.7177,6.5866,37.6284,-0.0749,0.5739,0.2179,244.4375
19:27:01:096,-1.0809,1.1283,7.5694,37.5691,-0.244,0.58,0.2483,244.2188
19:27:01:120,-1.0007,1.1498,9.4333,36.598,-0.2744,0.3603,0.2238,243.9844
19:27:01:143,-0.9947,1.151,11.4983,37.6219,-0.1138,0.2623,0.2214,243.7344
19:27:01:154,-1.0749,1.2336,11.8095,37.6047,0.168,0.4333,0.2312,243.4531
19:27:01:175,-1.4304,1.3869,10.695,38.2403,0.3283,0.5838,0.2374,243.1875
19:27:01:195,-1.7584,1.6646,10.021,37.7954,0.2897,0.5332,0.2493,242.9531
19:27:01:215,-2.0062,1.6993,10.64,36.8,0.2207,0.2184,0.2421,242.7031
19:27:01:237,-2.1451,1.2899,11.9113,36.3124,0.2747,-0.1776,0.2499,242.4375
19:27:01:257,-1.9991,0.7081,12.6978,37.234,0.4692,-0.3771,0.3034,242.0469
19:27:01:275,-1.4867,0.568,11.3881,38.0576,0.6052,-0.2706,0.3188,241.7812
19:27:01:295,-1.4975,1.3186,9.4393,36.2322,0.3501,0.0061,0.2001,241.4531
19:27:01:315,-1.7776,1.6215,9.541,37.7954,-0.1753,0.1105,0.0089,241.1406
19:27:01:338,-2.2876,0.8769,11.6348,36.752,-0.4528,-0.0751,-0.1595,240.9375
19:27:01:355,-2.861,-0.234,12.3554,36.6111,-0.3093,-0.3097,-0.173,240.9219
19:27:01:376,-3.1231,-0.908,11.4456,36.6771,-0.1002,-0.338,-0.0372,241.0781
19:27:01:396,-2.9783,-0.8613,9.7828,37.2796,-0.0619,-0.2168,0.134,241.25
19:27:01:424,-2.7245,-0.489,8.5187,36.9551,-0.1799,-0.2133,0.2184,241.2969
19:27:01:440,-2.4132,-0.24,8.1153,37.3334,-0.3389,-0.387,0.2304,241.1406
19:27:01:457,-2.1032,-0.1861,8.2015,36.2904,-0.4491,-0.547,0.2416,240.9062
19:27:01:475,-1.7919,-0.0545,8.2625,37.4937,-0.4875,-0.6376,0.2813,240.625
19:27:01:495,-1.6483,0.313,8.63,35.9364,-0.5378,-0.6091,0.3324,240.3438
19:27:01:520,-1.4544,0.683,9.4788,37.3211,-0.5189,-0.4416,0.3612,240.0156
19:27:01:542,-2.0445,0.3957,9.6835,37.2889,-0.1921,0.29,0.4879,240.0156
19:27:01:557,-1.9368,0.5704,9.4189,37.882,-0.0704,0.6732,0.6552,239.6406
19:27:01:574,-1.6184,0.896,9.231,35.0347,0.0103,0.9483,0.7521,239.2031
19:27:01:595,-1.2173,1.3306,9.122,36.0972,0.1618,0.9302,0.7223,238.25
19:27:01:617,-1.1994,1.3174,8.7844,37.7451,0.3909,0.6338,0.5649,237.5156
19:27:01:638,-1.7165,0.9068,8.241,36.0377,0.5248,0.302,0.3974,236.6719
19:27:01:654,-2.5186,0.4316,8.4229,35.9017,0.4913,0.0935,0.3473,235.9062
19:27:01:675,-2.7568,0.1873,9.1244,36.9252,0.4321,0.0234,0.4291,235.2969
19:27:01:693,-2.5365,0.185,9.3734,36.9926,0.4127,0.0157,0.5529,234.8594
19:27:01:714,-1.8351,0.5118,9.2465,36.9318,0.3616,0.0146,0.6176,234.2969
19:27:01:739,-1.3119,0.9403,9.2262,35.3136,0.2476,-0.0008,0.5457,233.75
19:27:01:758,-0.9588,0.908,9.3363,36.3424,0.1267,-0.1113,0.3798,233.0781
19:27:01:774,-1.4759,0.7021,9.796,36.1936,-0.0118,-0.314,0.2065,232.4531
19:27:01:854,-1.9727,0.021,11.0661,36.8653,-0.0891,-0.5377,0.1777,231.9219
19:27:01:854,-1.4963,-0.5704,11.6084,33.614,-0.048,-0.5822,0.2664,231.5938
19:27:01:855,-0.8558,0.082,10.6866,34.6688,-0.0547,-0.391,0.2706,231.4219
19:27:01:855,-1.0019,1.3162,9.9265,35.1709,-0.2715,-0.2887,0.0408,231.1875
19:27:01:877,-1.5932,1.0277,11.6958,34.1979,-0.5655,-0.3819,-0.3065,230.8438
19:27:01:898,-2.4563,-0.8038,14.0086,35.5542,-0.5881,-0.2948,-0.4916,230.6406
19:27:01:923,-2.4863,-2.2308,14.2229,35.2024,-0.3764,0.1004,-0.327,230.7812
19:27:01:939,-1.3754,-2.2416,12.037,35.3551,-0.1871,0.4447,0.0041,231.2812
19:27:01:956,0.1366,-0.8182,9.9696,33.4292,-0.2387,0.5438,0.1694,231.5469
19:27:01:975,0.7986,0.5405,9.3052,35.3556,-0.3609,0.4053,-0.0356,231.9219
19:27:01:994,0.2312,0.7787,9.5362,36.3259,-0.3665,0.1577,-0.4476,231.9219
19:27:02:015,-1.4472,-0.0221,9.6942,36.7577,-0.3151,0.1752,-0.6934,231.7188
19:27:02:039,-2.8622,-0.5812,9.4728,34.9733,-0.2382,0.5286,-0.5701,231.75
19:27:02:058,-3.3099,-0.4184,8.5367,36.1526,-0.0904,0.8104,-0.2122,232.2344
19:27:02:074,-2.7616,0.2185,7.3288,34.8693,0.0968,0.7606,0.187,233.0156
19:27:02:096,-1.4903,0.9403,6.7111,34.568,0.2622,0.4557,0.4256,233.6719
19:27:02:115,-0.5458,1.406,6.4022,35.3111,0.3871,0.1704,0.4288,233.9375
19:27:02:138,-0.2884,1.4503,6.4501,35.1457,0.4194,-0.0469,0.2752,233.5312
19:27:02:156,-0.7553,1.315,7.2366,34.9974,0.3413,-0.1041,0.0869,233.0312
19:27:02:174,-1.6782,0.8972,8.7569,35.8166,0.2495,0.0061,-0.0122,232.6719
19:27:02:195,-2.4013,0.5704,9.8786,35.5407,0.2993,0.1957,0.0586,232.4844
19:27:02:215,-2.2995,0.8122,9.6811,34.9472,0.4649,0.355,0.2381,232.4844
19:27:02:240,-1.9631,1.4539,8.6971,36.5295,0.5536,0.3814,0.3378,232.5
19:27:02:258,-1.9009,1.8525,8.2613,35.7795,0.5147,0.2277,0.3324,232.3594
19:27:02:274,-2.2433,1.9351,8.6444,33.9889,0.4284,-0.0032,0.2917,232.0625
19:27:02:294,-2.7472,1.8513,9.6823,35.6366,0.3578,-0.2133,0.2898,231.7031
19:27:02:315,-2.9376,1.6909,10.768,34.5025,0.3344,-0.2674,0.3345,231.3906
19:27:02:339,-2.6527,1.5377,11.1463,35.2358,0.3134,-0.1348,0.3793,231.1094
19:27:02:355,-2.1978,1.3952,10.7046,35.2508,0.2551,0.0072,0.3796,230.7812
19:27:02:375,-1.8027,1.5509,9.9277,34.771,0.0881,-0.0067,0.3061,230.4219
19:27:02:395,-1.7943,1.7951,10.1372,34.6316,-0.2108,-0.2551,0.1444,230
19:27:02:415,-2.448,1.6191,12.2441,34.4597,-0.488,-0.6932,-0.0631,229.6094
19:27:02:440,-3.4032,0.4483,14.758,34.9095,-0.4893,-0.9686,-0.1739,229.3438
19:27:02:457,-3.9551,-0.8446,15.2404,36.1412,-0.1905,-0.7531,-0.0695,229.2969
19:27:02:474,-3.8821,-1.1498,12.5505,34.8683,0.0913,-0.1244,0.223,229.4531
19:27:02:494,-3.5649,-0.4663,9.4488,34.6733,0.0476,0.3196,0.5292,229.625
19:27:02:515,-3.098,0.5357,8.0566,34.5765,-0.1988,0.2642,0.6959,229.5625
19:27:02:538,-2.8502,0.7931,8.6372,33.5852,-0.3703,-0.1441,0.7164,229.125
19:27:02:556,-3.2919,0.434,9.7098,34.4643,-0.3466,-0.4645,0.7604,228.3906
19:27:02:575,-3.6008,0.0736,10.2245,34.3321,-0.2102,-0.4384,0.9372,227.1719
19:27:02:595,-3.3482,0.1514,9.9277,34.6334,-0.0432,-0.1736,1.1748,226.2969
19:27:02:614,-2.6036,0.4723,9.2429,34.1314,0.1211,0.1209,1.3753,225.2188
19:27:02:639,-1.8458,1.1654,8.2278,33.904,0.2811,0.2716,1.5016,223.9531
19:27:02:656,-1.4568,1.6335,6.9672,35.9616,0.4036,0.1742,1.4549,222.375
19:27:02:681,-1.5178,1.7101,5.8743,35.1234,0.4047,-0.0666,1.3354,220.6562
19:27:02:704,-1.5849,1.8801,5.2949,34.99,-0.0515,-0.6051,1.1577,217.5781
19:27:02:718,-1.1324,1.7496,6.595,35.206,-0.2472,-0.9939,1.0318,216.1562
19:27:02:740,-0.9719,1.5018,8.3224,36.1799,-0.2294,-1.3646,0.9053,214.8594
19:27:02:757,-0.9899,0.8949,9.9504,35.0013,-0.1442,-1.1481,0.8235,213.7656
19:27:02:776,-0.9372,0.4806,10.5861,32.8877,-0.04,-0.6277,0.8685,212.7656
19:27:02:795,-0.7481,0.4878,10.4053,34.6774,0.0143,-0.1856,1.0121,211.8594
19:27:02:816,-0.359,0.9643,9.8331,34.9328,-0.0081,0.2264,1.1527,210.9375
19:27:02:841,0.3461,1.5592,9.4045,35.4149,-0.076,0.2943,1.1364,209.7812
19:27:02:855,0.7974,1.7352,9.8427,36.1056,-0.1175,0.016,0.921,208.4531
19:27:02:876,0.8656,1.4826,10.4017,36.7054,-0.0877,-0.3896,0.6943,207.2188
19:27:02:895,1.1074,1.0325,11.2816,34.9119,-0.0787,-0.7366,0.5556,206.1562
19:27:02:915,1.5935,0.343,11.8071,36.4348,-0.0803,-0.7593,0.4738,206.1562
19:27:02:940,1.542,0.5632,12.3195,33.7911,-0.1388,-0.3558,0.4158,205.375
19:27:02:958,1.0572,0.7452,12.2453,36.7819,-0.219,0.1124,0.3244,204.7656
19:27:02:975,0.4347,0.7955,12.7229,35.456,-0.243,0.2178,0.2363,204.2656
19:27:02:994,0.4239,0.1167,12.863,35.312,-0.1111,0.1638,0.2017,203.7969
19:27:03:014,0.5747,-0.5465,11.7377,36.9001,0.0862,0.0879,0.2509,203.2969
19:27:03:040,0.5735,-0.2939,10.5358,35.8534,0.1237,-0.1585,0.346,203.0781
19:27:03:061,0.7076,0.2544,10.4221,37.3645,-0.0121,-0.4589,0.3684,202.8281
19:27:03:074,0.8189,0.7548,10.5119,36.7643,-0.1748,-0.4911,0.2874,202.4844
19:27:03:094,0.9267,1.0864,10.0318,36.2535,-0.2683,-0.2767,0.1971,202.0781
19:27:03:114,0.9482,1.2647,9.0119,36.8196,-0.2579,-0.028,0.1529,201.8906
19:27:03:140,0.953,1.424,7.7537,37.2351,-0.195,0.1204,0.158,201.3594
19:27:03:155,1.0524,1.7113,6.7793,37.8473,-0.1303,0.0778,0.1777,201.3594
19:27:03:174,1.3121,1.8657,6.6153,36.2979,-0.0976,-0.0562,0.1407,201.2031
19:27:03:194,1.378,1.74,6.9481,36.8229,-0.0669,-0.0389,0.072,201.0312
19:27:03:214,1.1649,1.5425,7.2115,36.8684,-0.0081,0.1601,0.0424,200.8438
19:27:03:238,0.9913,1.4838,7.3455,37.8391,0.0699,0.3808,0.0709,200.7031
19:27:03:258,1.0428,1.5509,7.2869,35.378,0.1437,0.5563,0.113,200.625
19:27:03:274,1.2271,1.7939,7.0666,38.2431,0.1956,0.5755,0.1231,200.5781
19:27:03:294,1.5564,2.1638,7.2402,37.4244,0.1994,0.396,0.0475,200.5
19:27:03:314,1.5719,2.2847,8.0087,36.3034,0.1544,0.151,-0.1297,200.3594
19:27:03:339,1.3385,1.9519,8.9437,38.2157,0.0923,0.0615,-0.2945,200.2031
19:27:03:356,0.8477,1.6155,9.6224,36.0372,0.0199,0.212,-0.3664,200.1406
19:27:03:375,-0.0286,1.4695,10.2461,37.212,-0.0384,0.4373,-0.3355,200.2812
19:27:03:394,-0.7265,1.4036,10.8147,37.6025,-0.0246,0.5507,-0.209,200.6094
19:27:03:414,-1.0892,1.3833,11.2146,37.7234,0.0646,0.4924,-0.046,201.0312
19:27:03:439,-1.1994,1.4587,11.4899,37.86,0.1759,0.3225,0.1084,201.3906
19:27:03:455,-1.0833,1.3078,11.4552,38.8375,0.2675,0.2141,0.2344,201.6719
19:27:03:474,-0.7265,1.1666,10.6136,38.8189,0.2457,0.2629,0.317,201.625
19:27:03:493,-0.6332,1.4623,9.6476,38.8188,-0.0257,0.3209,0.3109,201.4375
19:27:03:514,-1.0869,1.9986,10.4484,38.7992,-0.4661,0.0759,0.2323,201.1094
19:27:03:537,-1.6256,1.3354,12.9552,39.0951,-0.6909,-0.3225,0.114,200.7344
19:27:03:559,-2.4982,0.1071,14.3653,38.856,-0.5181,-0.4892,0.1375,200.4219
19:27:03:575,-2.9412,-0.6901,13.6902,39.4354,-0.2054,-0.2189,0.4094,200.2344
19:27:03:602,-2.673,-0.4292,11.2888,37.1347,-0.0544,0.1158,0.7716,200.125
19:27:03:613,-1.6016,0.2245,9.6021,40.2686,-0.1591,0.1076,0.9868,199.8438
19:27:03:634,-0.5709,0.5513,9.45,39.4608,-0.3415,-0.1752,0.9899,199.2031
19:27:03:655,-0.0346,0.6279,10.1372,39.598,-0.4038,-0.4669,0.8904,198.1562
19:27:03:674,0.2395,0.5381,10.1312,38.5083,-0.321,-0.5611,0.7686,197.0156
19:27:03:694,0.3736,0.5381,9.2094,39.6428,-0.2582,-0.387,0.6568,195.9844
19:27:03:714,0.3365,0.5561,8.3212,39.9841,-0.2845,-0.1175,0.5569,195.0312
19:27:03:739,0.0528,0.5716,7.8579,40.3759,-0.3229,0.1129,0.497,194.2031
19:27:03:757,-0.1854,0.5632,7.5167,39.4646,-0.2899,0.2077,0.5013,193.5469
19:27:03:774,-0.1172,0.7105,7.306,40.9389,-0.2142,0.1475,0.5399,192.9531
19:27:03:793,-0.049,0.7931,7.3898,38.7889,-0.1269,0.0176,0.5604,192.4062
19:27:03:815,-0.1376,0.6722,7.6939,41.0138,0.0071,-0.1377,0.5724,191.8281
19:27:03:841,-0.2968,0.507,7.7226,40.931,0.1405,-0.2392,0.5961,191.2344
19:27:03:858,-0.4189,0.4088,7.7274,41.9265,0.1549,-0.2218,0.6366,190.5938
19:27:03:935,0.0612,0.7057,8.3212,42.416,0.0652,-0.1526,0.6834,189.9062
19:27:03:935,0.7639,1.1977,9.3902,40.8903,-0.0241,-0.126,0.5846,188.8594
19:27:03:936,0.7124,1.0924,10.7417,42.208,-0.0563,-0.0408,0.3399,188.0625
19:27:03:936,-0.1292,0.3873,11.3558,41.1305,-0.0302,0.1901,0.1668,187.3906
19:27:03:954,-0.6703,-0.3178,11.6132,42.5996,-0.0073,0.3425,0.2054,187.0312
19:27:03:975,-0.1651,-0.428,11.879,42.6175,0.0071,0.2767,0.358,186.8438
19:27:03:995,0.5783,-0.1095,12.7373,42.0154,0.0308,0.0602,0.4238,186.625
19:27:04:013,1.2056,-0.2304,13.5681,43.3778,0.1573,-0.1246,0.3591,186.25
19:27:04:037,1.7323,-0.6458,12.511,42.399,0.2758,0.0107,0.2344,185.7656
19:27:04:053,1.4342,-0.173,10.5861,43.1924,0.1096,0.2511,0.0752,185.3438
19:27:04:073,0.6956,0.5082,10.6184,43.2277,-0.3157,0.2471,-0.1275,185.0781
19:27:04:093,0.2719,0.082,12.9384,44.2393,-0.618,0.0988,-0.3566,185
19:27:04:114,-0.6535,-1.1821,14.406,42.1463,-0.5317,0.0549,-0.4386,185.1562
19:27:04:138,-0.8929,-1.9327,14.0433,42.8308,-0.2302,0.1276,-0.1818,185.5781
19:27:04:158,0.0707,-1.3761,12.3338,44.3398,0.0734,0.1063,0.2003,186.0625
19:27:04:174,1.6042,-0.1275,10.5717,43.507,0.234,-0.0719,0.3801,186.2812
19:27:04:194,2.4314,0.8086,9.1819,45.3474,0.2825,-0.2442,0.2387,186.0469
19:27:04:214,2.5859,1.1163,7.9752,43.2738,0.2154,-0.2077,-0.0524,185.6406
19:27:04:239,2.107,1.0038,7.1169,44.4439,0.0926,0.0035,-0.3336,185.3906
19:27:04:257,1.0248,0.6458,6.164,44.8648,-0.0547,0.253,-0.5217,185.7812
19:27:04:274,0.546,0.7416,6.468,46.1301,-0.019,0.146,-0.527,186.3125
19:27:04:294,0.3305,0.6973,6.9684,44.9147,0.0982,0.009,-0.4982,186.9219
19:27:04:317,0.1067,0.7979,7.4593,45.6765,0.2433,-0.0219,-0.4495,187.5312
19:27:04:340,-0.1316,0.8972,7.7071,46.2368,0.3664,0.0716,-0.3558,187.5312
19:27:04:356,-0.0933,1.2468,7.6975,45.1818,0.4042,0.2053,-0.2484,188.0625
19:27:04:374,0.1881,1.6119,8.235,46.0236,0.3477,0.2629,-0.2133,188.5781
19:27:04:394,0.1007,1.9351,8.8479,45.604,0.2913,0.3529,-0.2383,188.9844
19:27:04:414,-0.2872,2.1877,9.3411,46.1371,0.2636,0.4583,-0.2711,189.2656
19:27:04:442,-0.6834,2.0728,9.5135,43.8935,0.2774,0.584,-0.2828,189.5156
19:27:04:460,-1.3275,2.0117,9.2501,45.5161,0.2923,0.6687,-0.2322,189.7969
19:27:04:478,-2.1379,1.989,9.2537,46.0818,0.262,0.5803,-0.1041,190.1094
19:27:04:493,-2.7329,1.8477,9.9337,45.3077,0.2233,0.3787,0.0736,190.4375
19:27:04:513,-2.9483,1.6275,10.865,45.6558,0.2074,0.2189,0.2523,190.7188
19:27:04:540,-2.6742,1.2983,11.7904,47.6791,0.1901,0.2141,0.4067,190.8438
19:27:04:558,-2.0637,0.9116,11.8945,48.0997,0.2005,0.3984,0.4983,190.7656
19:27:04:574,-2.0805,1.1163,10.786,47.8862,0.1014,0.6117,0.5007,190.4844
19:27:04:594,-1.932,1.643,10.3922,46.3099,-0.1655,0.5238,0.4744,190.0312
19:27:04:614,-1.6782,1.3378,11.8131,45.9472,-0.4313,0.1603,0.3247,189.4844
19:27:04:638,-2.2421,0.1766,13.4208,48.158,-0.4342,-0.1747,0.2275,188.9219
19:27:04:657,-2.3031,-0.7081,13.7692,46.1884,-0.2643,-0.2133,0.3369,188.375
19:27:04:675,-1.8506,-0.7224,12.4978,46.6626,-0.1498,0.004,0.4997,187.9844
19:27:04:693,-1.0031,-0.3358,11.102,46.0038,-0.2065,0.1142,0.5673,187.7031
19:27:04:713,-0.5158,-0.0413,10.3191,46.6679,-0.3109,0.0602,0.5108,187.3125
19:27:04:739,-0.4536,-0.0629,10.2617,46.8613,-0.382,-0.0487,0.4315,186.0938
19:27:04:760,-0.7481,-0.3633,10.2976,46.1338,-0.3293,-0.0541,0.4224,185.7969
19:27:04:777,-1.0378,-0.4974,9.4464,45.8214,-0.1799,0.0852,0.5465,185.2344
19:27:04:793,-0.9588,-0.3573,8.0147,44.7349,-0.0278,0.269,0.7697,184.75
19:27:04:814,-0.5027,0.1179,6.5614,46.3911,0.1014,0.2924,1.0134,184.2188
19:27:04:839,0.3569,0.8027,5.6995,46.4617,0.2055,-0.0056,1.1644,183.4844
19:27:04:857,1.1697,1.4072,5.5559,45.9587,0.2481,-0.4131,1.1415,182.4688
19:27:04:874,1.5396,1.6239,6.2083,44.175,0.2287,-0.7193,0.9527,181.2812
19:27:04:893,1.3361,1.3294,7.5071,46.1753,0.1743,-0.7468,0.6925,179.9375
19:27:04:914,0.5137,0.8877,8.229,45.2415,0.1011,-0.4362,0.4925,178.7188
19:27:04:940,-0.1352,0.7189,8.5785,44.451,-0.0294,-0.0192,0.3961,177.8281
19:27:04:956,-0.3566,0.9523,8.7509,44.1142,-0.108,0.2149,0.3646,177.1562
19:27:04:976,-0.3075,1.4204,8.6444,46.9358,-0.1008,0.1393,0.3023,176.6719
19:27:04:996,-0.3746,1.6442,8.6061,43.4711,-0.1032,-0.0996,0.1777,176.2344
19:27:05:013,-0.5099,1.4467,9.0538,45.3457,-0.2001,-0.2898,0.0485,175.8594
19:27:05:033,-0.6427,0.9379,10.2329,44.3579,-0.3708,-0.3515,-0.0447,175.5781
19:27:05:056,-0.7529,0.5812,12.0058,44.5634,-0.4864,-0.3254,-0.0689,175.4375
19:27:05:074,-0.7182,0.3765,13.4388,44.0709,-0.4409,-0.2695,-0.0367,175.4375
19:27:05:094,-0.189,-0.1419,14.1056,44.5045,-0.2432,-0.176,0.0219,175.4844
19:27:05:114,0.4993,-0.3968,12.8366,43.9763,-0.002,0.032,0.0661,175.5312
19:27:05:143,0.7495,0.3992,11.0805,44.1215,0.0622,0.0522,0.0171,175.5312
19:27:05:157,0.9805,0.9607,11.0841,42.7581,-0.0432,-0.2812,-0.192,175.4688
19:27:05:175,0.9123,0.4364,12.5445,42.6077,-0.2033,-0.5936,-0.5366,175.4062
19:27:05:193,0.2958,-0.8876,14.0266,43.9413,-0.3,-0.4844,-0.7898,175.6094
19:27:05:213,-0.4093,-2.1865,14.4384,43.1531,-0.3045,0.017,-0.7752,176.2031
19:27:05:240,-0.9025,-2.3122,13.1371,43.4623,-0.2134,0.4578,-0.506,177.0938
19:27:05:255,-0.6272,-1.3425,11.0374,42.4864,-0.092,0.5076,-0.177,177.9844
19:27:05:275,-0.0921,-0.2927,9.201,43.2828,-0.0408,0.3265,-0.0149,178.5469
19:27:05:292,0.0276,0.4232,7.9417,43.7175,-0.0792,0.1744,0.0062,178.7656
19:27:05:312,0.0648,0.8889,7.4425,41.6069,-0.1769,0.114,-0.0205,178.7969
19:27:05:334,0.036,1.1869,7.5323,42.2064,-0.2355,0.1435,-0.0695,178.7969
19:27:05:358,-0.0478,1.3509,8.0015,42.6596,-0.1436,0.0996,-0.1147,178.8125
19:27:05:373,-0.2728,1.181,7.9644,41.1099,0.0894,0.0288,-0.1249,178.9062
19:27:05:393,-0.2633,1.145,7.543,41.201,0.324,0.0136,-0.0468,179.0312
19:27:05:413,0.1593,1.3055,6.632,41.704,0.4668,0.0828,0.0594,179.1719
19:27:05:440,0.7471,1.8525,5.9916,41.588,0.4761,0.0762,0.089,179.2188
19:27:05:461,1.287,2.329,6.1125,41.2869,0.3815,-0.0935,-0.0162,179.2188
19:27:05:477,1.524,2.4307,7.1528,40.8594,0.2569,-0.3047,-0.1952,179.1406
19:27:05:493,1.4881,2.2392,8.7533,41.3645,0.1677,-0.3665,-0.3693,179.0938
19:27:05:513,0.9243,1.8968,10.458,41.1686,0.1674,-0.1888,-0.4988,179.2031
19:27:05:532,0.0444,1.3581,11.3079,39.9248,0.2755,0.2125,-0.5062,179.5156
19:27:05:559,-0.6703,1.236,11.0637,40.111,0.3991,0.6578,-0.3483,180.0156
19:27:05:578,-0.8965,1.5664,10.2102,40.8801,0.4673,0.8333,-0.1443,180.6094
19:27:05:600,-0.9923,1.8465,9.9516,40.5571,0.4572,0.567,-0.0074,180.6094
19:27:05:612,-0.8917,1.558,10.6567,40.6848,0.4377,0.1116,0.0688,181.4844
19:27:05:634,-0.6427,0.9798,11.2146,40.1051,0.4063,-0.1183,0.1449,181.5156
19:27:05:657,-0.4464,0.993,10.944,39.7565,0.2676,-0.147,0.1756,181.4531
19:27:05:673,-0.535,1.5999,11.1679,41.7217,-0.0933,-0.3372,0.1204,181.3125
19:27:05:693,-1.1539,0.2065,16.7416,40.5008,-0.3463,-0.8879,-0.0322,181.125
19:27:05:714,-1.3634,-1.005,15.8773,39.9816,0.1128,-0.3659,0.0861,181.125
19:27:05:738,-1.4508,-0.8613,11.6311,40.678,0.3845,0.3795,0.3513,180.9531
19:27:05:759,-0.875,0.0808,8.0913,40.0147,0.2071,0.5739,0.546,180.9531
19:27:05:774,-0.3937,0.7991,7.3479,38.987,-0.1684,0.1489,0.5585,180.8906
19:27:05:793,0.0588,0.7823,8.4935,40.3411,-0.3934,-0.3614,0.4757,180.5156
19:27:05:813,0.1593,0.5632,9.225,39.0091,-0.3889,-0.6016,0.3809,179.8906
19:27:05:833,0.2383,0.6446,8.8263,40.0428,-0.3167,-0.4887,0.3231,179.25
19:27:05:855,0.2527,0.7608,7.6963,40.249,-0.2752,-0.2786,0.2781,178.6875
19:27:05:872,0.1653,0.8781,6.6285,39.6841,-0.2771,-0.172,0.2677,178.2812
19:27:05:893,0.2036,1.1199,6.1137,39.4876,-0.2989,-0.2541,0.2895,177.8906
19:27:05:912,0.3545,1.3581,6.6009,38.9389,-0.2717,-0.4916,0.2792,177.5781
19:27:05:932,0.2826,1.2372,7.1468,39.8126,-0.1479,-0.6626,0.2368,177.2812
19:27:05:956,-0.128,1.0361,7.5718,39.8545,-0.0494,-0.6602,0.2286,176.9375
19:27:06:018,-0.3051,0.8517,8.1416,39.7144,-0.0286,-0.5238,0.2688,176.6094
19:27:06:018,-0.2573,0.7679,8.9604,39.7144,-0.0395,-0.327,0.301,176.3438
19:27:06:018,-0.1675,0.9056,9.9373,40.3199,-0.0462,-0.1039,0.3047,176.0625
19:27:06:032,0.1545,1.1714,10.5825,40.6254,-0.0174,0.0631,0.2413,175.3906
19:27:06:057,0.1749,1.1378,10.7645,39.2933,-0.0052,0.1638,0.0933,175.2344
19:27:06:073,-0.1004,0.993,10.7585,40.4957,-0.0217,0.2807,0.0035,174.7812
19:27:06:092,-0.0777,0.9511,10.853,40.3411,-0.0265,0.3363,0.008,174.7188
19:27:06:113,0.4335,0.6039,11.1463,39.9104,0.0066,0.2144,0.0187,174.6875
19:27:06:133,1.0224,0.1371,11.7676,40.7309,0.0268,0.0397,0.0163,174.6875
19:27:06:155,1.5815,-0.2688,12.4895,40.9923,0.0124,-0.0488,0.0254,174.6875
19:27:06:176,2.0807,-0.4974,12.766,40.4962,0.0092,0.061,0.0509,174.6719
19:27:06:194,2.2997,-0.3729,11.6144,42.4772,0.0095,0.4466,0.0597,174.6406
19:27:06:213,1.5815,0.5166,9.4788,40.7056,-0.1111,0.8053,-0.0095,174.6094
19:27:06:233,0.6094,1.0864,8.5786,42.3033,-0.3623,0.7356,-0.1097,174.5469
19:27:06:258,-0.0502,0.5932,9.6583,41.4669,-0.517,0.2162,-0.1901,174.5156
19:27:06:276,-0.6332,-0.5644,11.4432,42.2139,-0.41,-0.493,-0.1331,174.6094
19:27:06:293,-0.2872,-1.3042,12.9132,43.2473,-0.2009,-0.9412,0.0941,174.8125
19:27:06:312,0.8896,-1.2145,13.4292,41.6031,-0.0246,-0.8983,0.3047,175.0156
19:27:06:332,1.9394,-0.4878,12.6379,41.7515,0.0276,-0.5025,0.3279,175.0156
19:27:06:356,2.599,0.3334,11.6922,42.6391,-0.0081,-0.0698,0.0874,174.7188
19:27:06:372,2.429,0.513,10.4783,40.2263,-0.0076,0.3055,-0.3131,174.2969
19:27:06:392,1.5132,0.3729,8.9233,42.9846,0.0273,0.5651,-0.6399,174.0156
19:27:06:413,0.54,0.173,7.4832,42.6477,0.047,0.6466,-0.7675,174.1406
19:27:06:432,0.1078,0.167,6.6285,43.3646,0.0692,0.5204,-0.7275,174.75
19:27:06:457,0.2144,0.3621,6.3244,43.5762,0.115,0.2786,-0.6277,175.5625
19:27:06:473,0.5304,0.665,6.4465,43.006,0.1783,0.0439,-0.5637,176.4531
19:27:06:491,0.8908,0.8362,6.6177,44.1041,0.2244,-0.0946,-0.5558,177.6094
19:27:06:512,1.1817,0.8386,7.2282,43.63,0.2508,-0.1095,-0.5858,178.2188
19:27:06:532,1.1757,0.8098,7.9513,43.8661,0.2777,-0.0288,-0.6095,178.8438
19:27:06:556,0.9219,1.0002,8.7773,44.8237,0.2899,0.0815,-0.6008,179.5156
19:27:06:574,0.4335,1.0936,9.7098,45.2436,0.3046,0.2349,-0.5818,180.1719
19:27:06:593,0.1438,1.3222,10.0857,46.3592,0.3554,0.4682,-0.5129,180.5156
19:27:06:613,0.0815,1.752,9.8044,45.6758,0.393,0.6266,-0.4516,181.2031
19:27:06:635,-0.268,2.0943,9.4165,46.1105,0.3845,0.6266,-0.4199,181.8438
19:27:06:657,-0.7337,2.2356,9.3902,46.6018,0.3246,0.4514,-0.3848,182.375
19:27:06:675,-1.2461,2.0776,10.1204,46.2556,0.2351,0.2269,-0.307,182.8906
19:27:06:693,-1.7812,2.0081,11.4588,47.5045,0.202,0.0626,-0.1587,183.3594
19:27:06:714,-1.8063,1.8034,12.3315,47.5424,0.3064,-0.009,0.0339,183.7812
19:27:06:733,-1.4017,1.6047,11.381,49.3128,0.4447,0.0514,0.1979,184.0469
19:27:06:758,-1.0557,1.9387,9.4512,49.4901,0.3293,0.1529,0.2536,184.125
19:27:06:773,-1.0462,2.5157,9.0777,49.8297,-0.0893,-0.0618,0.2107,183.9844
19:27:06:792,-1.0426,2.1602,11.7437,50.8145,-0.4885,-0.5119,0.1055,183.7344
19:27:06:812,-1.4939,0.7883,14.4324,50.0606,-0.4651,-0.6821,0.0187,183.4688
19:27:06:832,-1.9368,-0.5752,14.8035,50.3258,-0.1367,-0.3076,0.1175,183.2656
19:27:06:857,-1.8913,-0.7344,11.9149,50.8353,0.1051,0.3217,0.3926,183.2031
19:27:06:873,-1.1431,0.0006,9.0478,52.2984,-0.0105,0.489,0.6216,183.1562
19:27:06:892,-0.189,0.5058,8.4457,52.1968,-0.2598,0.1515,0.6395,182.875
19:27:06:913,0.3963,0.5824,9.3184,52.3722,-0.3873,-0.2117,0.5409,181.9375
19:27:06:933,0.473,0.5812,9.8283,52.7023,-0.3279,-0.338,0.4445,181.2031
19:27:06:957,0.4347,0.5573,9.3064,51.5618,-0.2169,-0.2623,0.3828,180.5781
19:27:06:975,0.3748,0.4938,8.4696,53.1058,-0.157,-0.0722,0.3705,180.0781
19:27:06:992,0.4299,0.6039,7.7693,53.0527,-0.1245,0.0802,0.3979,179.6406
19:27:07:012,0.6873,0.7117,7.3096,53.4504,-0.0723,0.1268,0.4182,179.2188
19:27:07:033,0.8453,0.8757,6.8942,54.2707,0.0023,0.0692,0.4003,178.75
19:27:07:058,1.0488,1.0541,6.5997,53.9779,0.0625,-0.0589,0.3378,178.2969
19:27:07:072,1.0799,1.1941,6.5159,54.4543,0.0566,-0.1518,0.2163,177.8438
19:27:07:093,0.6047,0.9774,7.6316,53.0373,-0.0885,-0.1742,-0.066,177.4531
19:27:07:112,0.2862,0.8972,8.3631,56.8387,-0.1649,-0.1084,-0.1773,177.2188
19:27:07:132,-0.0729,0.8972,9.3818,57.0492,-0.2459,-0.033,-0.2681,177.1406
19:27:07:155,-0.6056,0.8625,10.6579,57.2336,-0.251,0.0197,-0.3344,177.2188
19:27:07:175,-1.0019,0.6865,11.3127,57.2746,-0.1671,0.0359,-0.3493,177.4062
19:27:07:191,-1.1719,0.5297,11.6096,58.6663,-0.0925,-0.0365,-0.3145,177.7031
19:27:07:214,-1.2533,0.252,12.0573,57.1632,-0.0858,-0.1499,-0.2689,178.0938
19:27:07:230,-1.3825,-0.1467,12.8618,58.5298,-0.0944,-0.2061,-0.1587,178.4844
19:27:07:253,-0.62,-0.5034,13.3957,57.5722,-0.0046,-0.2139,0.0285,178.8281
19:27:07:277,0.2946,-0.234,12.4823,57.8738,0.1064,-0.1329,0.1242,179.125
19:27:07:303,0.6118,0.6219,11.3798,57.9585,0.0295,-0.0831,0.0427,179.2969
19:27:07:311,0.4873,0.7308,12.256,58.8676,-0.1695,-0.135,-0.1821,179.2656
19:27:07:335,0.0169,-0.3837,13.6339,57.9521,-0.1998,-0.0626,-0.372,179.1406
19:27:07:360,-0.1819,-1.6095,13.8458,58.0866,-0.0739,0.1494,-0.3448,179.1406
19:27:07:384,0.3102,-2.1649,12.8426,59.5222,0.0841,0.2756,-0.1408,179.4531
19:27:07:391,1.1841,-1.6023,11.5653,59.0674,0.164,0.2384,0.0954,179.9062
19:27:07:412,2.0663,-0.3262,10.4077,59.6027,0.1818,0.1451,0.1772,180.2031
19:27:07:432,2.4781,0.6806,9.5853,59.1429,0.1315,0.0764,-0.0093,180.2344
19:27:07:457,2.0855,0.8122,9.0047,58.0996,0.0361,0.1337,-0.3009,180.0469
19:27:07:475,1.3157,0.6997,8.5726,58.7706,-0.06,0.3036,-0.4862,179.9219
19:27:07:491,0.6525,0.6626,8.0243,59.5493,-0.0917,0.4746,-0.5254,180.1094
19:27:07:512,0.1905,0.756,7.3443,58.7107,-0.0414,0.5257,-0.4524,180.5625
19:27:07:535,0.1306,1.0553,6.7147,58.3749,0.0577,0.4413,-0.3193,181.1719
19:27:07:557,0.315,1.4311,6.4333,57.9058,0.1794,0.2695,-0.2146,181.7656
19:27:07:575,0.5472,1.7448,6.2897,56.5679,0.2934,0.0783,-0.1944,182.2031
19:27:07:592,0.613,1.8884,6.4633,57.2265,0.3214,-0.008,-0.2596,182.5156
19:27:07:612,0.291,1.8214,6.9337,58.8581,0.2937,0.0567,-0.3589,182.75
19:27:07:632,-0.2417,1.6323,7.403,56.7336,0.2593,0.1931,-0.4162,182.9844
19:27:07:657,-0.7732,1.5353,7.9752,58.8574,0.2343,0.2783,-0.3672,183.3438
19:27:07:674,-0.8283,1.5999,8.4995,58.3412,0.238,0.3249,-0.2343,183.8125
19:27:07:692,-0.5937,1.8753,9.0646,57.2299,0.255,0.3385,-0.1068,184.2812
19:27:07:711,-0.2225,2.3505,9.1962,55.6239,0.2857,0.339,-0.0492,184.625
19:27:07:732,-0.3171,2.6438,9.134,57.3442,0.2468,0.2655,-0.103,184.75
19:27:07:757,-0.6679,2.469,9.7565,56.4279,0.1277,0.1547,-0.1816,184.8906
19:27:07:775,-1.0426,1.9962,10.8267,58.0724,0.0324,0.1055,-0.1882,184.9531
19:27:07:793,-1.4807,1.5796,11.5473,56.6439,0.0263,0.0882,-0.1081,185.1875
19:27:07:811,-1.4592,1.2276,11.2972,56.5979,0.0479,0.0336,0.0182,185.4062
19:27:07:832,-0.9719,1.3869,10.4508,55.553,-0.0819,-0.1041,0.0839,185.5781
19:27:07:857,-0.9588,1.7879,11.3175,54.7961,-0.4353,-0.5252,0.0131,185.6406
19:27:07:874,-1.3502,1.1259,14.3342,56.9567,-0.6422,-0.9612,-0.0948,185.5625
19:27:07:891,-1.9751,-0.1754,16.3573,52.8051,-0.4797,-0.9188,-0.0673,185.4688
19:27:07:912,-2.1128,-0.9439,15.1913,54.2468,-0.1226,-0.3119,0.171,185.5
19:27:07:932,-1.6674,-0.6195,11.3618,53.4152,0.0489,0.2783,0.4475,185.5938
19:27:07:955,-1.0222,0.1562,8.7366,54.1249,-0.1141,0.2282,0.5662,185.5312
19:27:07:975,-0.3099,0.5573,8.8311,54.6066,-0.3689,-0.2778,0.5031,185.1875
19:27:07:996,0.0659,0.6135,9.8403,54.9224,-0.464,-0.6274,0.3452,184.5938
19:27:08:012,-0.1543,0.562,9.7481,53.9007,-0.4283,-0.6405,0.183,183.9531
19:27:08:081,-0.5781,0.331,8.9604,54.5367,-0.3833,-0.391,0.1156,183.4531
19:27:08:089,-0.9755,0.2831,7.9453,52.298,-0.3769,-0.0735,0.1828,183.1406
19:27:08:089,-0.9564,0.4148,7.4808,51.7589,-0.3439,0.065,0.3383,182.9688
19:27:08:102,-0.5805,0.6327,7.3707,52.1315,-0.2012,-0.02,0.4848,182.7969
19:27:08:111,-0.0681,0.8949,7.0163,49.9548,-0.0038,-0.2242,0.5684,182.5156
19:27:08:131,0.2611,1.017,6.808,49.3836,0.124,-0.4357,0.5737,182.0469
19:27:08:156,0.5568,0.7823,7.1923,50.857,0.1871,-0.5774,0.5314,181.4219
19:27:08:177,0.6046,0.4483,7.6448,49.1196,0.1991,-0.514,0.4669,180.7812
19:27:08:191,0.6406,0.319,7.9153,50.427,0.1251,-0.2631,0.4214,180.1094
19:27:08:214,0.6406,0.3992,8.4516,49.9896,-0.0089,0.0024,0.3487,179.25
19:27:08:233,0.479,0.6171,9.1101,48.4511,-0.1087,0.1558,0.2363,178.7812
19:27:08:259,0.279,0.6291,9.5901,49.0767,-0.1354,0.1148,0.0994,178.375
19:27:08:276,-0.0681,0.2699,10.1599,48.9434,-0.1239,-0.0985,0.0147,178.1094
19:27:08:293,0.0013,-0.0832,11.0529,48.7246,-0.0896,-0.3553,0.0469,178.0156
19:27:08:311,0.2994,-0.0401,11.7161,47.0792,-0.0677,-0.4554,0.0802,177.9844
19:27:08:333,0.4766,0.1311,12.3219,45.857,-0.1282,-0.4267,0.0509,177.9219
19:27:08:357,0.9817,-0.4028,13.2041,45.8902,-0.2004,-0.248,-0.0093,177.8125
19:27:08:374,1.5025,-1.0181,12.7349,47.0805,-0.1724,0.0232,-0.0498,177.7344
19:27:08:392,1.5564,-0.4387,11.2253,46.0524,-0.2209,0.1622,-0.1275,177.75
19:27:08:412,1.4642,0.0629,11.2182,45.8749,-0.431,-0.0661,-0.3507,177.8125
19:27:08:433,1.1218,-0.6686,13.2772,45.4415,-0.5998,-0.2927,-0.6226,177.9688
19:27:08:459,0.0947,-1.7148,14.6347,44.0498,-0.5277,-0.1265,-0.686,178.375
19:27:08:475,0.6501,-2.2978,12.086,44.3201,0.0622,0.3577,-0.1078,179.0781
19:27:08:495,1.5803,-1.23,9.9133,44.8552,0.2596,0.2392,0.1726,179.8438
19:27:08:510,2.6146,-0.1466,8.1344,44.8552,0.3163,0.0218,0.1859,180.3906
19:27:08:531,2.7666,0.507,6.7817,42.7666,0.2039,-0.1177,-0.0753,180.5312
19:27:08:552,2.2626,0.6183,6.3388,43.2223,-0.0507,-0.1334,-0.3787,180.3438
19:27:08:575,1.4833,0.4866,6.8811,42.8654,-0.3066,-0.0458,-0.6101,180.1406
19:27:08:590,0.552,0.2795,7.822,42.6344,-0.4302,0.1236,-0.7222,180.2031
19:27:08:612,-0.1842,0.0688,8.5809,42.3516,-0.3567,0.2703,-0.6623,180.6406
19:27:08:630,-0.4452,0.1107,8.8946,42.1034,-0.0835,0.3675,-0.4458,181.3125
19:27:08:650,-0.0705,0.5441,7.9465,40.5625,0.283,0.3931,-0.2013,182.5781
19:27:08:674,0.5448,1.1642,6.6871,40.0043,0.5088,0.2288,-0.0769,183.2656
19:27:08:692,1.0236,1.6358,6.1736,41.6398,0.523,0.0123,-0.1187,183.625
19:27:08:711,1.1098,1.7184,6.6835,40.1289,0.3781,-0.1545,-0.2439,183.7812
19:27:08:732,0.6753,1.722,7.9656,39.5707,0.2313,-0.1478,-0.3358,183.8594
19:27:08:757,0.3233,1.7232,9.0634,39.0411,0.1778,-0.0035,-0.3297,184.0469
19:27:08:777,-0.1926,1.8729,9.9935,39.7848,0.1991,0.1505,-0.2545,184.375
19:27:08:794,-0.2764,2.0225,11.3067,39.2698,0.3911,0,-0.0953,184.75
19:27:08:811,0.3784,2.3757,11.8323,39.4843,0.8143,-0.4655,0.0437,185.0938
19:27:08:832,0.7758,2.7491,10.9105,37.9506,1.0796,-0.9577,0.0227,185.2969
19:27:08:857,1.1625,2.6881,11.1331,38.4726,0.9315,-1.1673,-0.1043,185.2812
19:27:08:875,1.1422,1.995,12.2357,38.1398,0.6084,-0.8751,-0.2356,185.1719
19:27:08:893,0.8704,1.3593,12.6092,35.9511,0.2969,-0.2061,-0.3169,185.1406
19:27:08:910,-0.1687,1.5568,11.9053,35.5352,-0.0872,0.3827,-0.3225,185.2031
19:27:08:931,-0.7517,1.7041,13.5848,35.8919,-0.4659,0.3601,-0.205,185.4219
19:27:08:952,-0.8941,0.8302,16.3334,35.3755,-0.3141,0.1422,-0.0439,185.7656
19:27:08:974,-0.8498,-0.5321,15.7971,35.4582,0.2841,0.2583,0.1993,186.1094
19:27:08:993,-0.4859,-0.9655,11.958,35.5825,0.7246,0.5435,0.53,186.3906
19:27:09:010,0.3976,-0.5477,8.7282,36.7732,0.6702,0.4887,0.7897,186.4531
19:27:09:032,1.1218,0.2688,7.6352,34.4186,0.3168,0.1419,0.8302,186.2344
19:27:09:058,1.3445,0.4818,8.3714,35.0984,-0.0635,-0.1771,0.6765,185.5938
19:27:09:074,0.9494,0.228,9.4321,33.1213,-0.267,-0.232,0.5061,184.1562
19:27:09:093,0.4825,-0.009,9.7134,35.1222,-0.3074,-0.0096,0.4475,183.3281
19:27:09:111,0.1462,0.1299,9.2645,33.3753,-0.227,0.298,0.4744,182.6719
19:27:09:131,0.0324,0.3094,8.1129,33.342,-0.0867,0.5033,0.5085,182.1562
19:27:09:152,0.115,0.489,6.7625,35.422,0.0047,0.583,0.5497,181.6719
19:27:09:174,0.2934,0.817,5.8384,33.1362,0.0108,0.53,0.5532,181.125
19:27:09:199,0.2479,1.078,5.7642,34.0592,-0.0446,0.3412,0.4975,180.5156
19:27:09:210,0.2551,0.9379,6.5064,35.3538,-0.0568,0.1441,0.4448,179.875
19:27:09:231,0.1007,0.8482,6.9589,33.1285,0.009,0.0458,0.4102,179.3125
19:27:09:259,-0.0418,0.7476,7.2725,34.2516,0.0649,-0.065,0.3963,178.7812
19:27:09:275,0.1019,0.7512,8.0961,32.7429,0.0942,-0.1686,0.4208,178.2969
19:27:09:293,0.637,1.0888,8.8994,32.6156,0.1395,-0.2232,0.4128,177.8594
19:27:09:310,1.1769,1.3976,9.6523,32.5003,0.1477,-0.2317,0.2802,177.3906
19:27:09:332,1.3864,1.5365,10.5214,32.4966,0.0566,-0.192,0.04,176.8906
19:27:09:357,1.1194,1.1486,11.7485,31.7146,-0.121,-0.1153,-0.221,176.5
19:27:09:375,0.3569,0.349,13.3466,31.7233,-0.2619,0.0245,-0.3576,176.2969
19:27:09:392,-0.1088,-0.2221,14.3306,32.7799,-0.2214,0.1443,-0.2655,176.4062
19:27:09:414,0.4825,-0.3693,13.6722,33.295,-0.0462,0.2213,-0.0191,176.7656
19:27:09:431,1.3373,0.3118,12.104,32.2303,0.0351,0.1614,0.1066,177.1406
19:27:09:456,1.1266,1.2851,11.5486,33.1972,-0.092,-0.0192,0.0046,177.3125
19:27:09:474,0.7579,0.9032,12.6247,31.9144,-0.2614,-0.1119,-0.1448,177.2344
19:27:09:490,0.0887,-0.264,13.2401,32.4217,-0.259,0.0072,-0.1443,177.1562
19:27:09:514,-0.1124,-1.1007,12.9168,31.0527,-0.1037,0.0349,0.126,177.3438
19:27:09:532,0.8537,-1.0325,11.9101,30.1717,0.1216,-0.1486,0.5263,177.5156
19:27:09:556,2.3081,-0.0497,10.9548,33.0722,0.2777,-0.5071,0.7585,177.375
19:27:09:575,3.291,0.987,10.3191,32.1137,0.287,-0.7966,0.6397,176.7656
19:27:09:590,3.7339,1.5281,10.0641,31.5446,0.185,-0.7239,0.3074,175.8906
19:27:09:610,3.4621,1.5269,10.0055,31.7498,0.1001,-0.3015,-0.0878,175.1719
19:27:09:630,2.6792,1.1594,9.468,31.592,0.1072,0.2639,-0.3914,174.8125
19:27:09:651,1.785,0.9116,8.1608,32.056,0.1701,0.7044,-0.527,174.8906
19:27:09:671,1.19,0.8972,6.9792,31.3526,0.2502,0.7984,-0.5297,175.3125
19:27:09:690,1.0332,0.9942,6.3088,34.6055,0.3499,0.6362,-0.4929,175.9219
19:27:09:710,1.0201,1.0529,5.7438,31.1725,0.4044,0.4386,-0.479,176.5156
19:27:09:730,0.971,1.2276,5.6002,32.5897,0.3576,0.2703,-0.4716,177.0625
19:27:09:751,1.0452,1.4611,6.1017,31.8258,0.2561,0.1491,-0.4737,177.5781
19:27:09:773,0.9889,1.6622,6.8032,33.4044,0.1509,0.0967,-0.4945,178.1094
19:27:09:791,0.9362,1.8058,7.8519,32.4977,0.0737,0.1087,-0.4988,178.6562
19:27:09:810,1.1146,2.2033,9.1699,32.3978,0.1291,0.1619,-0.4649,179.1875
19:27:09:831,1.3289,2.6618,9.966,33.2711,0.3395,0.2834,-0.4894,179.75
19:27:09:858,0.9781,3.0795,10.0462,31.0422,0.5773,0.339,-0.6,180.2812
19:27:09:876,-0.784,2.8234,9.2669,32.4212,0.5938,0.4248,-0.666,180.8125
19:27:09:894,-1.4544,2.7839,9.8978,32.3306,0.4223,0.445,-0.4583,182.2656
19:27:09:912,-1.5298,2.8569,10.9967,33.2556,0.3038,0.4328,-0.2183,182.6562
19:27:09:930,-1.0653,2.7647,11.9544,33.3251,0.3158,0.4823,-0.0713,182.6562
19:27:09:950,-1.0521,2.7372,11.5354,32.6453,0.3142,0.4815,-0.0444,183.7344
19:27:09:973,-1.8315,2.9766,11.3726,33.1459,0.0652,0.1707,-0.0231,183.7344
19:27:09:991,-1.9536,2.5588,13.0665,32.5524,-0.2491,-0.2733,0.0403,183.7969
19:27:10:013,-1.859,1.3809,14.8597,34.5615,-0.2155,-0.2093,0.1156,183.8281
19:27:10:029,-1.8997,0.762,13.2353,31.766,0.1011,0.2826,0.2991,183.8438
19:27:10:049,-1.8566,0.9679,9.772,33.193,0.2433,0.4946,0.4903,183.8125
19:27:10:069,-1.6064,1.3677,7.7525,33.2898,0.0369,0.2538,0.6208,183.6875
19:27:10:126,-1.1276,1.5377,7.834,32.5283,-0.2928,-0.139,0.6752,183.3438
19:27:10:126,-1.0486,1.254,8.7581,34.7688,-0.4635,-0.4045,0.6893,182.75
19:27:10:134,-0.9456,0.9738,9.1939,34.0201,-0.3958,-0.4525,0.7798,182.0312
19:27:10:150,-0.3746,1.181,8.211,33.1532,-0.2219,-0.2682,0.8922,181.2969
19:27:10:171,0.1952,1.5904,6.753,34.0626,-0.1631,-0.0698,0.909,180.5156
19:27:10:189,0.6035,1.9878,5.9318,33.5013,-0.1916,-0.0266,0.8307,179.625
19:27:10:211,0.6046,2.2332,5.733,34.4601,-0.2201,-0.1515,0.6805,178.6719
19:27:10:229,0.4407,2.1183,5.9581,33.7124,-0.2329,-0.3635,0.5284,177.625
19:27:10:249,0.2647,2.0141,6.5004,32.3208,-0.239,-0.5513,0.4376,176.6719
19:27:10:270,0.3221,1.8418,7.4641,34.0386,-0.2177,-0.6826,0.3873,175.9375
19:27:10:289,0.5975,1.7184,8.2793,33.4302,-0.1519,-0.6661,0.338,175.3438
19:27:10:309,0.8596,1.6047,8.5642,33.9333,-0.0946,-0.4639,0.2549,174.8594
19:27:10:330,0.7962,1.5197,8.5378,34.5235,-0.1117,-0.1704,0.1495,174.4375
19:27:10:350,0.552,1.6335,8.5343,33.5875,-0.203,0.049,0.0666,174.0938
19:27:10:370,0.5987,1.7591,8.8072,34.767,-0.3159,0.0605,-0.005,173.6562
19:27:10:389,0.9458,1.6131,9.638,33.8124,-0.4283,-0.1526,-0.1129,173.5781
19:27:10:411,1.3564,1.1163,11.1487,34.767,-0.5144,-0.4187,-0.2271,173.5781
19:27:10:430,1.4091,0.5549,12.9946,34.2633,-0.5519,-0.5286,-0.2884,173.6406
19:27:10:449,2.028,0.0293,14.2001,33.3161,-0.4819,-0.3318,-0.2865,173.8438
19:27:10:469,2.6122,-0.2185,12.9922,35.1481,-0.3868,0.0394,-0.3587,174.1719
19:27:10:489,1.8999,0.1826,11.521,35.2096,-0.4965,0.1241,-0.5238,174.5156
19:27:10:509,0.9877,0.0808,12.0202,34.1531,-0.7061,-0.0703,-0.6732,174.875
19:27:10:534,0.2731,-1.0361,13.3107,34.9279,-0.7482,-0.2029,-0.7249,175.3594
19:27:10:549,-0.5027,-1.8848,13.7249,36.2297,-0.635,-0.1939,-0.5483,176.0781
19:27:10:571,-0.2417,-2.0249,13.4831,35.4688,-0.4691,-0.2019,-0.1608,176.9219
19:27:10:592,0.9566,-1.2492,12.76,34.9015,-0.2936,-0.2887,0.2158,177.7031
19:27:10:613,2.18,0.1012,11.6575,35.079,-0.1721,-0.3199,0.3527,178.1094
19:27:10:629,2.9366,1.1594,10.4101,35.6787,-0.1631,-0.1848,0.2107,178.0625
19:27:10:649,2.9785,1.5006,9.2346,35.2213,-0.2414,0.1028,-0.0918,177.7031
19:27:10:669,2.5176,1.5317,8.3224,35.4138,-0.3154,0.4202,-0.3661,177.3594
19:27:10:691,1.8389,1.4204,7.6053,37.9026,-0.3141,0.6176,-0.5531,177.2812
19:27:10:713,0.9183,1.2815,7.2318,35.5997,-0.2579,0.6261,-0.6359,177.5781
19:27:10:730,0.4095,1.1091,7.4904,36.0409,-0.1287,0.5033,-0.5816,178.125
19:27:10:753,0.5244,0.9367,7.6448,34.7192,0.0963,0.3997,-0.4623,178.875
19:27:10:775,0.8477,1.0493,7.0427,36.1035,0.3083,0.3715,-0.3624,179.625
19:27:10:791,1.1469,1.2444,6.4776,36.3901,0.4047,0.3233,-0.3318,180.25
19:27:10:819,1.3229,1.4072,6.1472,36.457,0.3925,0.2146,-0.3571,181.2969
19:27:10:842,1.39,1.7328,7.9824,37.6237,0.2881,0.0352,-0.3962,181.7031
19:27:10:854,1.0464,1.6167,9.6499,37.5076,0.1474,-0.2959,-0.4548,182.1406
19:27:10:875,0.3616,1.2851,11.2864,36.4457,0.2305,-0.3148,-0.3882,182.625
19:27:10:894,0.0887,1.1738,12.1459,37.917,0.3986,-0.187,-0.2183,183.1406
19:27:10:914,0.2216,1.2731,11.8766,37.0744,0.5421,-0.0274,-0.05,183.5469
19:27:10:943,0.3437,1.5137,11.515,39.4893,0.5658,0.037,0.0562,183.7812
19:27:10:953,0.6753,1.582,11.5473,38.8232,0.5272,0.0621,0.0855,183.8281
19:27:10:975,1.1433,1.3725,10.9955,38.8232,0.4431,0.134,0.0049,183.75
19:27:10:994,0.8572,1.4455,10.0534,38.6043,0.1751,0.1483,-0.1352,183.6406
19:27:11:013,0.3102,1.7951,10.8566,38.165,-0.2787,-0.1803,-0.213,183.625
19:27:11:033,-0.2297,1.169,13.8003,38.1268,-0.5109,-0.5574,-0.2593,183.7812
19:27:11:058,-0.8582,0.2089,15.4152,39.2039,-0.2685,-0.539,-0.1896,184.0156
19:27:11:072,-1.1144,-0.4304,13.6267,37.2491,0.1637,-0.1143,-0.001,184.3281
19:27:11:093,-1.0426,-0.1658,10.2617,37.3459,0.2473,0.1907,0.2017,184.5469
19:27:11:112,-0.7852,0.2999,8.7844,39.4818,-0.0132,0.0525,0.3103,184.5312
19:27:11:130,-0.45,0.3717,9.5123,39.3319,-0.2813,-0.2706,0.3311,184.2969
19:27:11:154,-0.2884,0.3298,10.4592,38.3631,-0.3247,-0.3611,0.3543,183.9375
19:27:11:173,-0.1639,0.4184,9.9959,40.1597,-0.2115,-0.1774,0.4131,183.5938
19:27:11:190,-0.055,0.6758,8.6863,38.5163,-0.0941,0.0692,0.4973,183.3906
19:27:11:211,0.3185,0.999,7.4509,38.588,-0.0209,0.1973,0.5732,182.9688
19:27:11:233,0.7004,1.3761,6.759,38.5908,0.0329,0.1627,0.5889,182.9688
19:27:11:249,0.9829,1.637,6.3675,40.9314,0.0931,0.0421,0.5306,182.1875
19:27:11:273,0.9626,1.6335,6.3974,37.481,0.1176,-0.073,0.4137,181.5312
19:27:11:290,0.6478,1.479,6.7015,38.9965,0.1184,-0.1268,0.3178,180.8594
19:27:11:311,0.2946,1.4,7.2701,39.9649,0.1328,-0.228,0.2872,180.2656
19:27:11:332,0.1713,1.2253,8.3295,38.52,0.1706,-0.4117,0.2901,179.7969
19:27:11:350,0.0444,0.8865,9.7182,38.4118,0.2529,-0.4424,0.3087,179.4375
19:27:11:375,0.0983,0.6482,10.4005,38.6241,0.3586,-0.1657,0.3612,179.0938
19:27:11:393,0.3868,0.7021,9.7445,39.1006,0.3786,0.2482,0.3931,178.7656
19:27:11:413,0.6932,0.8254,8.9532,37.4153,0.2657,0.4224,0.3452,177.9688
19:27:11:429,0.977,0.6123,8.8239,39.6437,0.0748,0.217,0.2547,177.9688
19:27:11:450,1.3038,0.0928,9.9157,38.3219,-0.1231,-0.2109,0.1891,177.5
19:27:11:474,1.4366,-0.2891,11.5354,39.2856,-0.2326,-0.5462,0.17,177.1094
19:27:11:492,1.8437,-0.5836,12.4416,39.7686,-0.2518,-0.5489,0.158,176.8125
19:27:11:509,2.3931,-0.7584,11.5905,38.1461,-0.3072,-0.2767,0.0682,176.6094
19:27:11:533,1.9933,-0.1706,10.2509,37.3437,-0.603,-0.0613,-0.1097,176.4375
19:27:11:548,1.3217,0.1167,11.3283,37.3889,-0.9924,-0.2956,-0.3113,176.2656
19:27:11:569,0.449,-0.5968,13.9631,37.0541,-1.08,-0.628,-0.4498,176.2031
19:27:11:593,-0.1675,-1.7711,15.2057,37.5111,-0.8249,-0.6013,-0.3539,176.3438
