Time,Acc_X,Acc_Y,Acc_Z,Meg,Gyr_X,Gyr_Y,Gyr_Z,Ore
20:29:55:819,2.5188,3.8756,9.2082,53.7799,-0.1159,0.3927,-0.1564,219.6406
20:29:55:843,2.1142,3.8972,9.444,54.6579,-0.0674,0.3882,-0.1953,219.6406
20:29:55:867,1.7646,3.8062,9.1328,52.1234,0.0045,0.3112,-0.2113,170
20:29:55:887,1.4977,3.7224,8.7521,54.1752,0.0256,0.2055,-0.1772,170.1406
20:29:55:904,1.5061,3.9307,8.5295,55.7489,0.0264,0.0928,-0.1122,170.3125
20:29:55:916,1.5767,3.9917,8.3894,53.7458,-0.0093,0.0771,-0.0485,170.4531
20:29:55:939,1.8927,4.0396,8.5558,55.3824,-0.0485,0.132,-0.028,170.5625
20:29:55:957,2.028,3.9953,8.648,54.9487,-0.0453,0.1839,-0.0469,170.5938
20:29:55:976,1.7766,4.0193,8.5534,55.0057,-0.0471,0.2295,-0.0661,170.6094
20:29:56:001,1.6713,4.1905,8.7425,57.0566,-0.0631,0.2545,-0.0595,170.6094
20:29:56:015,1.3816,3.8948,8.703,54.6958,-0.0642,0.1826,-0.0464,170.6406
20:29:56:039,1.3959,3.9079,8.7545,53.8699,-0.0661,0.0814,0.0228,170.6562
20:29:56:057,1.5671,4.0636,8.7916,54.2178,-0.0655,0.0569,0.0516,170.6875
20:29:56:074,1.4833,4.0013,8.8108,54.1513,-0.0823,0.1386,0.0686,170.6719
20:29:56:105,1.4283,3.9379,8.8862,54.2266,-0.0714,0.1887,0.0963,170.6094
20:29:56:116,1.4486,3.8541,8.7725,54.2389,-0.0586,0.1645,0.1137,170.4844
20:29:56:135,1.5779,3.7703,8.8395,54.5181,-0.078,0.1048,0.1035,170.3438
20:29:56:153,1.5516,3.7918,9.1304,53.7783,-0.0844,0.1216,0.074,170.1875
20:29:56:173,1.4474,3.8265,9.0634,52.8431,-0.0511,0.1717,0.0724,170.0625
20:29:56:200,1.39,3.8217,8.8994,54.2206,-0.0298,0.1978,0.0782,169.9531
20:29:56:212,1.2511,3.7894,9.0035,54.8195,-0.0224,0.2042,0.0947,169.8438
20:29:56:235,1.19,3.8577,9.1448,54.1546,0.008,0.2215,0.124,169.7188
20:29:56:252,1.2523,3.8409,9.134,54.2908,0.0445,0.222,0.1621,169.5781
20:29:56:271,1.6006,3.7798,9.3555,56.456,0.0706,0.1522,0.1821,169.375
20:29:56:292,1.8987,3.8218,9.8391,54.9629,0.1119,0.1919,0.136,169.1406
20:29:56:313,1.8341,3.8864,9.8762,55.1555,0.1931,0.1698,0.0516,168.9062
20:29:56:337,1.4342,3.9307,9.2214,55.5092,0.2634,0.0409,-0.0118,168.9062
20:29:56:351,1.3265,4.2072,8.727,55.3119,0.2392,-0.0361,0.0157,168.7031
20:29:56:372,1.1362,4.2743,8.2757,54.9943,0.1619,-0.0448,0.058,168.5781
20:29:56:390,1.1637,4.2072,7.9632,54.2178,0.0365,-0.08,0.1195,168.5312
20:29:56:412,1.293,4.0181,7.9956,55.6354,-0.102,-0.1306,0.1584,168.4531
20:29:56:434,1.3002,3.8098,8.3415,54.2389,-0.2264,-0.063,0.1371,168.4531
20:29:56:451,1.2224,3.4698,8.9844,55.2236,-0.2756,0.0239,0.0793,168.3281
20:29:56:470,0.8692,3.4375,9.3818,53.7258,-0.1944,0.0127,-0.0115,168.2031
20:29:56:491,0.5556,3.5069,9.2657,54.3236,-0.0573,-0.0228,-0.0603,168.0781
20:29:56:509,0.388,3.5392,8.8467,54.0251,0.0541,-0.1098,-0.0627,168.0156
20:29:56:534,0.704,3.8253,8.7653,53.4236,0.1004,-0.1362,-0.052,168.0469
20:29:56:551,0.9207,3.8397,8.8826,57.1433,0.1348,-0.0419,-0.084,168.125
20:29:56:569,1.0871,3.8469,9.2513,54.9078,0.1915,0.087,-0.1258,168.2188
20:29:56:589,1.3421,3.8948,9.9361,54.1358,0.3316,0.2308,-0.1721,168.2969
20:29:56:609,1.2008,4.0312,9.3279,55.7741,0.5739,0.1717,-0.2352,168.375
20:29:56:633,0.7914,4.4802,8.1105,54.8888,0.6831,-0.0845,-0.1865,168.4844
20:29:56:652,0.7256,4.7435,7.9764,56.5856,0.5697,-0.2595,-0.0267,168.5938
20:29:56:676,0.6202,4.631,8.7449,54.5079,0.4077,-0.1847,0.1552,168.75
20:29:56:688,1.0967,4.3976,8.6911,55.5926,0.3249,-0.1716,0.2988,168.9062
20:29:56:710,2.3141,4.2671,8.1787,56.2611,0.1417,-0.1314,0.2692,168.8906
20:29:56:735,2.7139,4.2,8.1033,55.4254,-0.1393,-0.0888,-0.0078,168.625
20:29:56:753,1.8018,3.6566,8.3726,56.5046,-0.3124,-0.1847,-0.3673,168.2812
20:29:56:770,1.1541,3.714,8.8072,55.676,-0.2341,-0.3389,-0.5367,168.125
20:29:56:792,0.8429,3.8481,8.5211,54.893,0.0378,-0.3836,-0.5069,168.3906
20:29:56:809,1.4582,4.5687,7.8579,54.9132,0.2906,-0.3381,-0.3487,169.0469
20:29:56:830,1.9023,4.9015,7.2653,55.511,0.3989,-0.0749,-0.1772,169.7656
20:29:56:850,2.0184,5.1769,6.7494,55.1679,0.2607,0.3554,-0.0368,170.3281
20:29:56:871,2.3548,6.3273,7.3874,54.5778,-0.0354,0.5203,0.0306,170.6406
20:29:56:890,0.9135,5.6761,8.2829,55.4829,-0.3009,0.4233,0.0127,170.6719
20:29:56:910,0.1019,5.1302,8.8611,56.3558,-0.4629,0.2002,0.1738,170.6094
20:29:56:934,0.23,4.5424,9.1496,56.0688,-0.4394,-0.2472,0.3837,170.4375
20:29:56:952,1.0931,4.3772,9.3615,55.2557,-0.2764,-0.4976,0.5866,170.3438
20:29:56:971,2.1884,4.4023,9.219,55.8312,-0.0557,-0.4212,0.6924,170.1406
20:29:56:989,2.7558,4.364,8.5845,55.528,0.1177,-0.1383,0.6601,169.6094
20:29:57:011,2.9198,4.467,8.223,55.9891,0.1324,0.1751,0.5672,169
20:29:57:034,2.7439,4.3389,7.9632,55.7571,0.0359,0.4196,0.4098,168.2812
20:29:57:051,2.271,4.3269,7.9692,56.1753,-0.0855,0.4204,0.2915,167.5781
20:29:57:069,1.6653,3.8505,7.9967,56.6375,-0.1268,0.2311,0.2742,166.9219
20:29:57:089,2.0879,4.1725,8.3475,55.5429,-0.1145,0.1299,0.3334,166.4375
20:29:57:109,2.3512,4.1031,8.296,55.8563,-0.0301,0.0673,0.3608,166.0625
20:29:57:133,2.8384,4.2575,7.8447,56.3273,-0.0093,0.0598,0.3296,165.7031
20:29:57:152,3.03,4.2084,7.3826,55.8636,-0.1313,0.1139,0.2537,165.2969
20:29:57:169,3.1257,4.0815,6.9565,56.3451,-0.3952,0.1863,0.1696,164.875
20:29:57:189,3.0264,3.8529,6.7206,55.7684,-0.7191,0.1165,0.0998,164.5312
20:29:57:209,2.8193,3.5871,7.0103,57.785,-1.0333,-0.0624,0.0705,164.2969
20:29:57:232,2.7403,3.1298,7.5634,56.1133,-1.2514,-0.2302,0.0367,164.1719
20:29:57:249,2.4901,3.1334,7.3455,56.9817,-1.3516,-0.5333,-0.0573,164.1875
20:29:57:269,2.8768,3.2543,7.0666,56.7606,-1.4458,-1.1317,-0.1609,164.3906
20:29:57:289,3.3783,3.4614,7.5849,55.4325,-1.5966,-1.6052,-0.2603,164.7344
20:29:57:309,4.1433,3.6182,8.2469,57.7101,-1.8682,-1.1533,-0.2656,165.2812
20:29:57:334,5.6181,4.4047,10.3922,57.1258,-1.8275,-0.7951,-0.4003,166.0625
20:29:57:352,5.2147,3.8301,11.363,56.6514,-1.2546,-1.0294,-0.7769,166.8438
20:29:57:369,3.4561,2.2655,10.7178,55.5275,-0.5657,-1.137,-0.986,167.7188
20:29:57:390,3.4154,2.3733,9.9444,56.547,-0.155,-0.0795,-1.1008,168.2344
20:29:57:409,2.1848,2.548,9.0873,56.547,0.0583,1.2503,-1.1058,169.5781
20:29:57:433,0.6082,3.5464,9.4321,55.4548,0.3223,1.8394,-0.8627,170.9062
20:29:57:452,-0.3064,3.8756,10.3694,55.8244,0.5859,1.9853,-0.3117,172.1406
20:29:57:471,-0.3207,3.404,9.9803,54.9383,0.7737,2.1033,0.4231,173.0469
20:29:57:497,0.643,2.8437,8.0207,54.1138,0.7148,1.8324,1.0482,173.4844
20:29:57:517,2.0675,2.8665,7.6687,56.4667,0.302,0.9914,1.254,173.0938
20:29:57:535,3.2957,3.8732,7.5,57.0096,-0.1521,0.4601,1.0362,171.9375
20:29:57:551,3.6429,4.3784,7.3144,56.3918,-0.5832,0.1522,0.5587,169.5312
20:29:57:569,3,4.704,6.9445,57.1799,-0.8882,-0.1698,0.1837,168.2969
20:29:57:588,1.8377,4.7639,6.8655,55.5388,-1.1771,-0.1535,0.0854,167.7344
20:29:57:610,0.795,3.89,8.5079,56.7958,-1.3425,0.1964,0.2111,167.625
20:29:57:631,0.9183,3.0772,10.391,55.9664,-1.1795,0.6247,0.3485,167.6562
20:29:57:652,1.3325,2.8832,11.6096,57.0603,-0.7747,0.956,0.3752,167.5156
20:29:57:670,2.0125,2.9814,12.0082,56.2778,-0.24,1.0729,0.2628,167.1719
20:29:57:690,2.1717,3.3956,11.6623,56.275,0.236,0.9752,0.0457,166.75
20:29:57:711,1.3708,3.1586,10.9656,56.6168,0.4882,0.9826,-0.1284,166.4062
20:29:57:735,0.8441,3.3585,12.4164,56.6373,0.6354,1.3293,-0.2944,166.2969
20:29:57:799,0.5005,3.2184,13.1539,56.0863,0.8195,1.2409,-0.4129,166.2969
20:29:57:799,0.1833,2.979,12.505,55.3118,0.9835,0.8596,-0.5415,166.375
20:29:57:799,-0.711,2.7647,11.5497,55.0988,0.8999,0.4718,-0.6794,166.5
20:29:57:808,-2.6096,2.5516,10.847,55.2107,0.486,0.4087,-0.6581,166.7188
20:29:57:828,-3.5577,1.3857,11.7784,55.6912,-0.0498,0.3672,-0.3127,167.3438
20:29:57:851,-2.4025,0.0257,13.3574,54.3414,-0.1401,0.0601,-0.0208,168.3594
20:29:57:868,-0.8522,-0.8051,12.6451,56.0977,0.2858,-0.3594,0.0601,169.0781
20:29:57:888,0.3126,-0.1802,10.1515,56.0676,0.8024,-0.701,-0.0635,169.3906
20:29:57:908,-0.019,0.6399,7.0918,57.8885,0.909,-0.5746,-0.2326,169.4062
20:29:57:933,-0.3566,1.2767,6.14,55.6775,0.5827,-0.0134,-0.2427,169.375
20:29:57:951,-0.7409,1.3294,7.1755,55.1001,0.1923,0.5381,-0.2107,169.5625
20:29:57:970,-0.9193,1.1762,8.8742,55.3814,0.0061,0.7554,-0.2142,169.9219
20:29:57:988,-0.9827,1.181,9.6727,55.5276,0.0722,0.6508,-0.2741,170.1875
20:29:58:008,-1.0869,1.6023,9.237,56.8379,0.2349,0.3578,-0.374,170.3594
20:29:58:029,-1.3383,2.2332,8.3176,55.6355,0.2884,0.0433,-0.4382,170.5
20:29:58:052,-1.689,2.6223,7.907,56.8806,0.2618,-0.2206,-0.4158,170.7031
20:29:58:069,-1.4855,2.8521,7.1995,55.374,0.1827,-0.5165,-0.3508,171.0938
20:29:58:088,-0.9755,2.8725,6.7757,54.9647,-0.0045,-0.9596,-0.3804,172.125
20:29:58:109,-1.0869,3.0161,7.6448,53.6679,-0.2442,-1.0606,-0.4198,172.5938
20:29:58:135,-1.8099,2.7252,8.7581,55.4038,-0.2961,-0.8052,-0.3916,172.8594
20:29:58:152,-2.527,2.8976,9.7553,54.2935,-0.1675,-0.2976,-0.19,173.4844
20:29:58:170,-3.2847,2.3936,9.5183,55.0728,0.0453,0.2164,0.0939,174.0938
20:29:58:188,-2.9567,2.1171,8.891,55.635,0.1334,0.3725,0.3674,174.5156
20:29:58:208,-2.8406,1.7173,8.5163,56.5294,0.0674,0.0303,0.4703,174.5781
20:29:58:228,-2.9148,1.3629,8.9341,53.5656,-0.0189,-0.4691,0.515,174.2344
20:29:58:251,-2.7329,1.1295,9.3567,54.6389,0.0517,-0.8547,0.5379,173.7344
20:29:58:269,-2.4468,1.3414,9.1543,55.614,0.2738,-0.9429,0.5384,173.2031
20:29:58:294,-2.2947,2.2787,8.3044,55.1451,0.5694,-0.827,0.5294,172.6875
20:29:58:308,-1.9045,3.3633,6.6404,54.3366,0.7622,-0.4827,0.6268,172.2344
20:29:58:330,-1.1635,4.3102,5.0291,56.918,0.5814,0.0673,0.7829,171.75
20:29:58:352,-0.802,4.0899,4.6568,54.5598,0.0261,0.5195,0.907,171.2031
20:29:58:368,-0.0598,3.6613,7.1037,54.8149,-0.5281,0.5709,0.9398,170.8438
20:29:58:389,-0.0035,2.475,9.5709,53.965,-0.6322,0.3128,0.8676,169.9688
20:29:58:409,0.9674,2.9586,10.4556,54.2275,-0.2719,-0.0441,0.7717,168.8281
20:29:58:434,1.2176,3.6613,9.2812,55.5647,0.0807,0.0297,0.6375,167.1562
20:29:58:452,1.9358,4.8501,9.3746,53.6065,0.1664,0.406,0.5584,166.2344
20:29:58:469,2.1705,4.8537,9.5829,54.3832,0.1883,0.6428,0.4388,165.4531
20:29:58:492,2.4877,4.8106,9.8403,54.1784,0.1462,0.5056,0.344,164.7344
20:29:58:507,3.4609,5.7455,10.5609,55.9646,0.0993,0.104,0.1706,164.0938
20:29:58:530,2.9246,5.9191,10.859,55.0286,0.0229,-0.0821,-0.0062,163.5469
20:29:58:550,1.949,4.5939,12.1028,54.1763,-0.2852,0.3152,0.0423,163.1875
20:29:58:570,1.3516,2.7743,14.1774,51.9946,-0.4581,0.6846,0.131,163.125
20:29:58:589,1.7754,1.2923,14.9423,52.413,-0.184,0.4782,0.1816,163.125
20:29:58:609,2.7858,1.6921,12.9779,53.1533,0.5103,-0.2579,-0.113,162.9375
20:29:58:632,2.2686,2.6857,9.6499,54.8192,0.9979,-0.7319,-0.4792,162.6406
20:29:58:648,2.3644,3.5656,6.9445,53.74,1.0005,-0.5322,-0.673,162.5312
20:29:58:668,1.6306,4.1773,5.4685,53.4323,0.6192,0.0617,-0.8555,162.9844
20:29:58:688,-0.1435,3.5943,5.5068,51.7436,0.1225,0.3011,-0.7159,163.75
20:29:58:708,-0.614,2.991,6.5447,54.0963,-0.298,0.2825,-0.4211,164.6719
20:29:58:728,-0.0406,2.3876,7.5514,52.39,-0.5297,0.1373,-0.3018,165.8594
20:29:58:751,0.3557,2.0081,8.563,51.6708,-0.579,-0.0763,-0.3444,166.2969
20:29:58:769,0.4778,2.0776,9.2429,50.7515,-0.4229,-0.2323,-0.4776,166.5938
20:29:58:788,-0.116,2.2859,8.9892,51.867,-0.1121,-0.3397,-0.5921,167
20:29:58:808,-0.4536,2.5408,8.0602,52.2536,0.2016,-0.3548,-0.5868,167.5938
20:29:58:828,-0.3782,2.9359,6.9708,51.2857,0.3529,-0.3631,-0.4688,168.3281
20:29:58:849,0.036,3.24,6.3507,52.5857,0.3537,-0.3125,-0.3242,169.0156
20:29:58:868,0.5257,3.4159,6.0383,49.9697,0.2836,-0.2717,-0.2853,169.6094
20:29:58:888,0.3616,3.6398,6.1185,49.3096,0.1422,-0.2571,-0.3101,170.0312
20:29:58:910,0.3353,4.3999,6.8332,49.677,-0.041,-0.1895,-0.3053,170.375
20:29:58:935,-0.3698,4.2036,8.2266,50.9381,-0.2093,0.0617,-0.2549,170.7812
20:29:58:952,-0.4249,3.9822,9.6045,50.7857,-0.2416,0.3978,-0.1495,170.9844
20:29:58:969,-0.195,3.7308,10.6423,49.0717,-0.1398,0.561,-0.1085,171.3281
20:29:58:988,0.2551,3.8277,10.7932,48.5851,0.045,0.5264,-0.1596,171.5156
20:29:59:011,0.3437,4.2491,10.3024,49.2586,0.1734,0.5157,-0.2893,171.5625
20:29:59:034,-0.2393,4.4742,9.9468,49.0214,0.1886,0.6044,-0.4115,171.6094
20:29:59:051,-1.0402,4.3652,10.367,51.2343,0.1228,0.8388,-0.4288,171.9062
20:29:59:075,-1.6255,3.5883,10.7225,49.4574,0.0775,1.1176,-0.3591,172.2656
20:29:59:089,-1.3023,2.9969,11.1846,49.2274,0.057,1.2862,-0.3228,172.625
20:29:59:110,-1.2018,2.4044,10.847,48.3547,0.0184,1.3885,-0.4001,172.8281
20:29:59:134,-3.1303,1.5772,11.175,49.2649,-0.567,1.0433,-0.5668,172.9688
20:29:59:152,-3.6822,1.0972,12.6607,47.3597,-0.6328,0.3397,-0.4669,172.9688
20:29:59:169,-3.2464,1.4623,12.6152,47.1763,-0.3246,-0.2217,-0.3143,173.1719
20:29:59:189,-3.0788,2.3541,10.5741,47.1195,-0.0149,-0.2643,-0.1458,173.9062
20:29:59:209,-3.1315,2.8186,8.3858,46.7537,-0.0197,-0.0228,0.074,174.3125
20:29:59:236,-2.5162,2.8198,7.5071,47.3107,-0.2922,0.2241,0.2934,174.6719
20:29:59:253,-2.2241,2.6965,8.1093,46.8022,-0.5641,0.3331,0.3901,174.7969
20:29:59:270,-1.9907,2.1949,7.7609,45.1736,-0.6552,0.1008,0.4151,174.7969
20:29:59:288,-1.7297,2.2224,7.5203,45.9301,-0.7207,-0.2906,0.4013,173.8594
20:29:59:308,-1.9248,2.2931,7.7154,46.0074,-0.7153,-0.521,0.4061,173.5781
20:29:59:337,-2.1295,2.2176,8.0925,45.6928,-0.5625,-0.4992,0.5355,173.0469
20:29:59:354,-1.5849,2.1434,7.8806,45.3923,-0.2834,-0.3967,0.7067,172.5781
20:29:59:368,-0.8127,2.2751,6.583,44.7309,-0.0506,-0.357,0.7946,172.0781
20:29:59:388,-0.1747,2.5325,5.5223,46.2565,-0.0173,-0.3495,0.7925,171.75
20:29:59:409,0.1366,2.6618,5.5918,44.5372,-0.0855,-0.3471,0.7366,170.9688
20:29:59:434,0.4311,2.7204,6.3292,44.0927,-0.0932,-0.3106,0.6689,170.0938
20:29:59:453,0.8908,2.6031,7.1791,44.0927,0.0216,-0.2137,0.5536,169.2656
20:29:59:468,0.8034,2.663,7.4054,45.0128,0.1854,-0.0694,0.3669,168.4688
20:29:59:494,0.37,2.9131,7.233,44.3258,0.2559,0.1184,0.2002,167.7188
20:29:59:507,-0.5637,3.3034,7.6472,43.2767,0.1465,0.3323,0.1083,167.1406
20:29:59:527,-1.1192,3.4722,9.0502,45.4812,0.0213,0.4119,0.1163,166.75
20:29:59:551,-0.9791,3.5787,10.2868,42.6913,-0.0008,0.234,0.0908,166.5156
20:29:59:568,-0.9109,3.7284,11.12,44.8263,-0.0149,-0.1935,-0.0307,166.3594
20:29:59:592,-1.1718,3.9223,12.0813,42.8096,-0.0509,-0.5839,-0.1662,166.0469
20:29:59:607,-1.1623,4.0121,13.2592,44.3991,-0.0245,-0.6236,-0.2413,166.0469
20:29:59:629,-0.8762,4.0001,14.0409,42.4598,0.1443,-0.4963,-0.3111,166.2188
20:29:59:650,-0.6104,4.0684,13.1096,43.0289,0.3811,-0.4313,-0.3942,166.5312
20:29:59:671,-0.0035,4.0336,11.6886,42.5172,0.445,-0.3042,-0.4395,166.9219
20:29:59:695,0.5747,3.8349,10.5454,43.8598,0.3175,-0.2129,-0.5471,167.3906
20:29:59:707,0.4885,3.319,10.3646,43.2362,0.0834,-0.264,-0.6784,167.9062
20:29:59:729,0.6166,2.9431,10.7573,43.615,-0.0181,-0.3658,-0.7817,168.5156
20:29:59:752,0.5209,2.8868,10.0486,42.2406,0.0514,-0.4116,-0.8645,169.25
20:29:59:768,0.2276,3.1059,8.3403,43.7207,0.0288,-0.2017,-0.8701,170.0938
20:29:59:789,-0.1328,3.0784,7.3036,43.3098,-0.294,0.2806,-0.8102,171.0938
20:29:59:814,-0.6439,2.5049,7.5802,43.6622,-0.7731,0.6926,-0.7612,172.1562
20:29:59:869,-0.9097,1.7256,8.49,42.0126,-1.1031,0.8319,-0.754,173.1094
20:29:59:869,-1.7321,1.0217,9.8295,41.3465,-1.0842,0.9131,-0.7798,173.875
20:29:59:869,-3.1866,0.8398,10.9261,41.5807,-0.6405,1.006,-0.6624,174.5938
20:29:59:888,-3.9216,0.5082,9.2633,42.2392,-0.0056,0.9941,-0.3761,174.9375
20:29:59:908,-2.3163,1.1606,7.3934,42.5347,0.3585,0.9333,-0.1103,175.9531
20:29:59:929,-1.8362,1.1079,6.0084,43.175,0.444,0.7826,-0.1205,176.4531
20:29:59:952,-1.8997,1.4192,6.0155,42.1994,0.429,0.4114,-0.1964,176.6406
20:29:59:970,-2.6563,1.5568,6.5518,43.1424,0.4368,0.0084,-0.1945,176.7031
20:29:59:987,-2.4779,1.8154,6.5028,41.6022,0.4724,-0.2808,-0.0584,176.875
20:30:00:008,-2.0374,2.0069,6.14,43.4573,0.4203,-0.4608,0.0399,177.1562
20:30:00:028,-1.7465,2.2117,6.8775,42.8219,0.2565,-0.553,0.1563,177.375
20:30:00:052,-1.5226,2.1099,8.0626,43.6634,0.1558,-0.5903,0.1951,177.4688
20:30:00:068,-1.4999,1.922,8.8084,44.3942,0.1148,-0.5953,0.2338,177.4688
20:30:00:088,-0.9049,2.5492,9.4417,42.527,0.0639,-0.5596,0.2463,177.3438
20:30:00:108,-0.9276,2.2691,9.5231,45.0428,-0.0676,-0.4329,0.2266,177.1875
20:30:00:136,-1.0509,2.1793,10.3981,42.7125,-0.2874,-0.2118,0.1837,176.9844
20:30:00:155,-1.6902,1.3976,11.9903,42.7139,-0.4911,0.0169,0.1581,176.7812
20:30:00:172,-2.0158,1.1726,13.9846,43.4463,-0.461,0.0422,0.0764,176.5625
20:30:00:188,-3.0166,0.5297,13.7141,43.989,-0.229,0.0321,0.045,176.25
20:30:00:209,-2.588,0.5225,12.3351,42.9272,-0.0756,0.1589,0.0932,176.125
20:30:00:235,-2.4109,0.8182,11.0218,42.0248,-0.1398,0.4026,0.0607,176.0469
20:30:00:251,-3.0848,0.6506,11.4193,44.0423,-0.3009,0.5,0.0002,175.9375
20:30:00:268,-3.3458,0.4687,11.9568,44.4027,-0.2035,0.3738,-0.0118,175.8125
20:30:00:288,-3.1195,0.8517,10.5358,44.4473,0.0517,0.1448,-0.0043,175.7344
20:30:00:309,-2.8909,1.3055,8.0387,44.3626,0.0679,-0.0102,0.0029,175.6875
20:30:00:328,-3.3817,1.4431,6.9481,45.0515,-0.278,0.0489,0.0719,175.6875
20:30:00:349,-3.4427,0.8649,7.9956,44.6777,-0.739,0.1703,0.2505,175.6875
20:30:00:371,-2.503,0.5872,10.4604,43.7515,-0.8967,-0.0201,0.3262,175.5781
20:30:00:388,-1.6519,0.4124,11.2888,44.2984,-0.6306,-0.4036,0.2822,175.2031
20:30:00:409,-1.179,0.853,10.1815,44.7648,-0.1531,-0.5764,0.1483,174.75
20:30:00:429,-1.3921,1.3964,8.3164,44.0871,0.2565,-0.3974,0.0963,174.3906
20:30:00:454,-1.4675,1.8214,6.5267,44.8475,0.5063,-0.1003,0.1461,174.3125
20:30:00:472,-1.4005,2.0644,5.3081,44.5818,0.5654,0.067,0.2101,174.2344
20:30:00:489,-1.4113,2.1793,4.9046,46.6329,0.4948,0.0207,0.2519,174.1562
20:30:00:509,-1.586,2.3996,4.9046,46.4429,0.4011,-0.1575,0.2905,173.8906
20:30:00:530,-1.871,2.9742,5.7821,45.1467,0.1294,-0.3844,0.4862,173.6406
20:30:00:553,-1.7177,2.961,7.0953,46.5188,0.0602,-0.3671,0.584,173.0156
20:30:00:571,-1.6124,3.1669,8.3236,45.5445,0.0676,-0.3072,0.6346,173.0156
20:30:00:588,-1.8398,3.3776,9.547,45.5821,0.1406,-0.3359,0.6492,172.5156
20:30:00:610,-1.7656,3.4483,10.3503,45.8401,0.2378,-0.4371,0.6905,171.8906
20:30:00:635,-0.9612,3.5392,11.0685,45.989,0.2919,-0.5921,0.6668,171.1875
20:30:00:654,-0.5613,3.7308,11.6958,47.9803,0.3137,-0.7386,0.5448,170.5312
20:30:00:672,-0.286,3.7942,12.5206,46.1383,0.3444,-0.721,0.4348,169.7969
20:30:00:687,0.1857,3.6482,13.161,46.8862,0.448,-0.5165,0.3427,169.125
20:30:00:707,1.0895,3.6302,12.7002,48.4814,0.5864,-0.4201,0.2066,168.625
20:30:00:727,1.8257,3.9391,11.4743,48.1194,0.531,-0.3927,0.0021,168.2188
20:30:00:755,1.5695,3.8038,11.7628,47.8457,0.2519,-0.2387,-0.179,167.7344
20:30:00:770,1.2595,3.052,12.6702,48.4417,0.09,-0.0454,-0.243,167.7969
20:30:00:788,2.0196,2.3709,12.7433,46.7151,0.1838,-0.0222,-0.3172,167.9062
20:30:00:809,2.7415,2.5492,10.8099,48.2775,0.376,-0.0941,-0.5066,168.1719
20:30:00:828,2.6026,3.1825,8.2865,48.0661,0.3164,-0.0057,-0.7061,168.4688
20:30:00:853,1.6473,3.4423,6.9062,48.9357,0.0189,0.3669,-0.7948,168.9375
20:30:00:869,0.3353,3.1789,6.7637,48.0862,-0.3824,0.908,-0.7862,169.2656
20:30:00:888,-1.0114,2.4714,7.6903,47.6021,-0.7145,1.1733,-0.7077,170.0781
20:30:00:912,-1.762,1.8908,9.2082,47.6049,-0.7553,0.9147,-0.6411,170.8906
20:30:00:933,-2.0122,1.746,9.2202,48.5978,-0.4722,0.3565,-0.6195,171.6406
20:30:00:952,-2.0864,2.0464,8.0602,47.1964,-0.1752,-0.0997,-0.5966,172.25
20:30:00:969,-2.4109,2.4235,7.2605,46.5937,-0.0037,-0.2182,-0.5167,172.7969
20:30:00:987,-2.5737,2.6725,7.136,48.3598,0.1009,-0.1306,-0.3316,173.4219
20:30:01:007,-2.2145,2.5708,7.3898,49.0778,0.2511,-0.0558,-0.1127,174.1094
20:30:01:028,-1.5896,2.4583,7.3623,46.5917,0.4447,-0.1218,0.0431,174.7344
20:30:01:051,-1.1455,2.4379,7.0379,48.2463,0.5713,-0.2893,0.1139,175.2188
20:30:01:070,-1.1012,2.657,7.3599,46.6769,0.6181,-0.4134,0.1712,175.2656
20:30:01:088,-1.0988,2.7815,7.6137,49.152,0.6293,-0.3967,0.2404,175.2344
20:30:01:107,-0.9636,2.8138,7.8866,49.4539,0.5558,-0.2981,0.3182,175.1562
20:30:01:127,-0.5506,2.748,8.5151,47.144,0.3728,-0.2856,0.3326,175.0156
20:30:01:151,-0.5769,2.742,9.5326,48.1663,0.1776,-0.2877,0.2955,174.7656
20:30:01:168,-0.6212,2.5983,10.3945,48.2374,0.0458,-0.2531,0.2766,174.4688
20:30:01:187,-0.3411,2.651,10.6531,48.8664,-0.0514,-0.1378,0.2601,174.1562
20:30:01:207,-0.2477,2.5433,10.9201,46.43,-0.1989,0.0289,0.2298,173.8906
20:30:01:228,-0.1387,2.2021,11.2756,49.3709,-0.3129,0.0979,0.14,173.625
20:30:01:253,-0.8367,1.7999,10.859,47.8412,-0.4037,0.2127,0.009,173.3594
20:30:01:270,-2.254,1.2935,10.5083,49.3258,-0.6019,0.462,0.0138,173.1094
20:30:01:287,-2.6024,0.4735,10.7477,48.1044,-0.8594,0.5157,0.1613,173
20:30:01:308,-1.9272,-0.2855,11.8502,48.7495,-1.0059,0.2316,0.2426,172.9531
20:30:01:328,-1.0067,-0.3442,12.5577,47.5212,-0.8485,-0.2283,0.1725,172.5781
20:30:01:353,-0.6068,0.3561,11.4875,47.7186,-0.4645,-0.5045,0.0266,172.2344
20:30:01:369,-0.7888,1.0672,9.2968,47.0262,-0.167,-0.308,-0.0328,172.0469
20:30:01:387,-0.8079,1.4635,7.5443,48.9906,-0.1377,0.0974,0.017,172.0312
20:30:01:408,-0.9552,1.8358,6.9349,45.9942,-0.3143,0.3746,0.087,172.1094
20:30:01:429,-0.9791,1.6849,6.9696,46.1256,-0.5894,0.3717,0.1515,172.125
20:30:01:452,-0.6535,1.4635,7.5203,47.6504,-0.8424,0.1544,0.1754,172.0312
20:30:01:470,-0.2968,1.2528,8.2362,47.7293,-0.9795,-0.1101,0.1517,171.8438
20:30:01:487,0.0288,1.2923,8.9844,46.589,-0.9292,-0.251,0.0918,171.5938
20:30:01:511,-0.128,1.5018,9.2992,46.589,-0.6751,-0.1871,0.0223,171.375
20:30:01:527,-0.4033,1.7208,8.8096,46.3796,-0.3081,0.0553,0.0029,171.2188
20:30:01:547,-0.4739,1.9842,7.5107,44.7046,-0.0565,0.2422,0.0141,171.1562
20:30:01:570,-0.6224,2.1135,6.6045,47.2576,-0.0602,0.1368,-0.0057,171.125
20:30:01:588,-1.1096,2.2033,6.9768,46.4589,-0.1659,-0.1737,-0.0142,171.1094
20:30:01:607,-1.5609,2.3781,7.7454,46.6254,-0.1406,-0.3655,0.0545,171.0938
20:30:01:628,-1.592,2.4523,7.8028,45.2394,-0.0213,-0.3493,0.1935,171.1094
20:30:01:653,-1.106,2.6737,7.6221,46.2129,0.0589,-0.2899,0.3326,171.0625
20:30:01:670,-0.7445,2.7635,7.9692,46.5128,0.0493,-0.2355,0.4143,170.8594
20:30:01:687,-0.7493,2.7264,8.7952,45.2858,0.0615,-0.198,0.4458,170.5
20:30:01:707,-0.6691,2.7875,9.79,46.1859,0.0844,-0.2257,0.4615,170.0625
20:30:01:727,-0.687,2.8282,11.0877,45.3201,0.1356,-0.3104,0.4535,169.5625
20:30:01:753,-0.4464,2.8186,11.9125,45.3841,0.2415,-0.3761,0.4375,169.0469
20:30:01:770,-0.1555,2.7587,12.754,44.7979,0.3462,-0.4041,0.3821,168.5781
20:30:01:789,0.0468,2.6007,13.6052,45.084,0.4932,-0.3636,0.3009,168.0938
20:30:01:809,1.1038,2.6211,13.3753,45.2011,0.6362,-0.297,0.2162,167.6875
20:30:01:829,2.3811,2.8078,11.9496,45.4035,0.5574,-0.2017,0.0282,167.375
20:30:01:852,2.5715,2.2979,12.3746,45.5526,0.1696,0.0856,-0.2342,167.25
20:30:01:924,1.5564,1.145,14.6969,44.1737,-0.0575,0.4431,-0.4731,167.1094
20:30:01:925,0.6011,0.5178,16.4267,44.3564,0.2802,0.6311,-0.5527,167.2188
20:30:01:925,0.8345,1.0493,13.7704,43.3516,0.9556,0.6814,-0.5423,167.875
20:30:01:940,0.868,2.5073,6.4669,44.5087,0.628,0.5512,-0.6962,168.4375
20:30:01:953,-0.3614,2.5277,6.9182,44.7832,-0.0088,0.5336,-0.7412,168.4375
20:30:01:968,-1.3275,2.1291,7.7861,44.1316,-0.3691,0.4492,-0.7034,169.6094
20:30:01:986,-1.586,1.7232,7.9501,44.8344,-0.4637,0.2489,-0.6091,169.6094
20:30:02:006,-1.2999,1.4323,7.9285,43.9142,-0.3974,-0.0025,-0.5324,170.3594
20:30:02:028,-1.0473,1.3773,7.628,43.0411,-0.2146,-0.112,-0.513,171.1406
20:30:02:052,-1.0725,1.406,6.9601,42.4838,-0.0048,0.006,-0.4906,171.8438
20:30:02:069,-1.0737,1.4491,6.486,43.6083,0.1736,0.1919,-0.428,173.0938
20:30:02:086,-0.9947,1.424,6.2897,43.2813,0.314,0.2635,-0.3665,173.6719
20:30:02:106,-0.9743,1.5137,6.1113,44.4096,0.3958,0.1935,-0.3226,174.2031
20:30:02:126,-0.8654,1.6442,5.982,44.1446,0.3771,0.0161,-0.2935,174.6875
20:30:02:153,-0.7301,1.8094,6.474,42.5996,0.2948,-0.1748,-0.2746,175.0938
20:30:02:171,-0.5733,1.9483,7.2749,42.6967,0.2554,-0.251,-0.2648,175.4375
20:30:02:187,-0.5565,2.2045,8.15,44.2319,0.2775,-0.1612,-0.2435,175.9844
20:30:02:207,-0.6798,2.4008,8.5295,42.9489,0.2985,0.095,-0.1846,176.3281
20:30:02:227,-0.687,2.5432,8.9305,42.9698,0.2173,0.3653,-0.1007,176.6406
20:30:02:252,-0.8953,2.2799,9.8032,43.1039,0.0341,0.499,-0.0416,176.9219
20:30:02:272,-1.288,1.8753,11.442,43.7629,-0.1611,0.4255,-0.0166,177.0625
20:30:02:288,-1.4843,1.3485,12.8917,42.3948,-0.2471,0.1943,-0.0363,177.0938
20:30:02:311,-1.7728,0.8829,13.6866,44.3119,-0.192,-0.0299,-0.1156,177.0781
20:30:02:326,-2.3761,0.6135,13.094,42.2963,-0.0362,-0.1034,-0.1828,177.0312
20:30:02:346,-2.7592,0.5429,11.4241,42.0432,0.0597,-0.0752,-0.1625,177.0312
20:30:02:369,-2.8179,0.6267,9.5458,42.7176,-0.0567,-0.0246,-0.089,177.1406
20:30:02:390,-2.7676,0.5166,8.6204,42.48,-0.4202,-0.043,0.0212,177.3594
20:30:02:406,-2.4719,0.0269,9.7912,42.9304,-0.816,-0.2017,0.0846,177.5625
20:30:02:427,-2.6407,-0.0066,11.7245,43.4312,-0.8613,-0.4209,0.0513,177.6562
20:30:02:453,-3.2033,0.3956,11.6767,43.1975,-0.5255,-0.3501,0.078,177.5469
20:30:02:471,-3.0848,0.9894,9.4812,42.6644,-0.2724,-0.0057,0.1989,177.4375
20:30:02:487,-3.0657,1.2683,7.7693,42.4132,-0.4048,0.2566,0.344,177.375
20:30:02:507,-2.6084,1.1881,7.9561,42.8462,-0.7369,0.1837,0.4708,177.2188
20:30:02:526,-1.9308,1.09,8.8156,43.4185,-0.9097,-0.1447,0.5004,176.875
20:30:02:552,-1.3299,1.1869,8.8515,43.1248,-0.8328,-0.4659,0.4766,176.3438
20:30:02:571,-0.8582,1.4335,8.2493,43.4608,-0.6136,-0.5391,0.4476,175.75
20:30:02:588,-0.5625,1.6765,7.5407,42.2341,-0.3459,-0.345,0.4343,175.1562
20:30:02:606,-0.5158,1.8908,6.7625,41.3532,-0.0985,-0.0619,0.4215,174.625
20:30:02:629,-0.7361,2.0979,6.3328,44.6448,0.0543,0.1064,0.421,174.1562
20:30:02:652,-0.8391,2.2272,6.1604,44.2358,0.1321,0.039,0.4431,173.6719
20:30:02:671,-0.93,2.3278,6.3136,41.963,0.1486,-0.1016,0.4732,173.1875
20:30:02:688,-0.8582,2.5768,6.5961,41.6619,0.1318,-0.1705,0.5368,172.7188
20:30:02:714,-0.6224,2.7432,7.0738,41.8755,0.0732,-0.1855,0.6007,172.2031
20:30:02:726,-0.3207,2.6642,7.6747,43.6944,-0.0242,-0.2744,0.6284,171.3281
20:30:02:747,0.0528,2.6007,8.0817,41.8138,-0.1603,-0.4691,0.6005,170.6875
20:30:02:771,0.1462,2.7491,9.0849,41.231,-0.3787,-0.7181,0.4966,170.3438
20:30:02:788,-0.1316,2.882,11.1104,42.2873,-0.5292,-0.8707,0.4183,169.3125
20:30:02:810,-0.0693,2.6845,13.9044,42.2569,-0.4136,-0.7967,0.3589,169.0312
20:30:02:825,-0.1064,2.2404,15.2632,42.6602,0.0176,-0.517,0.2966,168.5781
20:30:02:847,0.2276,1.9483,15.0273,42.7838,0.4759,-0.1665,0.2018,168.1562
20:30:02:868,0.7591,2.2715,13.9296,42.1166,0.7776,-0.0124,0.0026,167.8125
20:30:02:888,0.54,2.9179,12.0609,41.5938,0.788,-0.0707,-0.2294,167.5312
20:30:02:907,0.3964,2.6689,11.7904,42.964,0.493,-0.1745,-0.3077,167.4062
20:30:02:927,0.6573,1.8932,13.0641,41.6987,0.3012,-0.244,-0.3625,167.5312
20:30:02:953,0.9758,1.1797,13.4938,42.2986,0.4157,-0.2355,-0.4749,167.8594
20:30:02:971,1.2247,1.0493,12.3051,43.7389,0.7041,-0.1104,-0.6041,168.2344
20:30:02:988,1.1206,1.5066,10.0701,44.126,0.8666,0.1727,-0.7002,168.7188
20:30:03:007,0.5137,2.0417,8.1835,44.2873,0.742,0.5802,-0.7023,169.7031
20:30:03:027,-0.3566,2.2571,6.9589,44.1532,0.3561,0.9789,-0.603,170.4375
20:30:03:053,-0.9121,1.8896,7.0415,43.2773,-0.2021,1.1475,-0.4653,171.1719
20:30:03:072,-1.3371,1.2887,8.162,43.2423,-0.6173,0.9067,-0.3785,171.75
20:30:03:089,-1.4089,0.8601,8.575,44.111,-0.7137,0.4585,-0.317,172.1406
20:30:03:106,-1.0246,0.6997,8.9329,43.3157,-0.5587,0.0939,-0.2613,172.4688
20:30:03:126,-0.5039,0.7979,8.3224,41.928,-0.2178,0.0617,-0.2504,172.7656
20:30:03:147,-0.3075,0.914,7.4916,42.8025,0.0807,0.2715,-0.2746,173.0156
20:30:03:169,-0.4859,1.1079,7.4772,43.4478,0.3382,0.4718,-0.2981,173.2969
20:30:03:188,-0.7984,1.3055,7.3419,43.4972,0.6264,0.5807,-0.2965,173.5938
20:30:03:208,-0.9528,1.5868,6.5914,43.6568,0.8229,0.5317,-0.2632,173.9062
20:30:03:228,-1.3023,2.0189,5.9174,40.7523,0.8165,0.4335,-0.1854,174.2031
20:30:03:253,-1.5034,2.2523,5.9988,42.8118,0.6088,0.3307,-0.0525,174.3594
20:30:03:272,-1.367,2.1853,7.6245,42.311,0.3609,0.1259,0.0883,174.625
20:30:03:288,-0.9468,2.1159,9.3734,41.8401,0.3036,-0.1514,0.1706,174.7812
20:30:03:307,-0.5075,2.232,10.0773,42.8943,0.3574,-0.3136,0.1872,174.7031
20:30:03:329,-0.7253,2.5408,9.8319,43.4528,0.1704,-0.0907,0.1693,174.5469
20:30:03:353,-0.881,2.1769,10.9548,42.9243,-0.0613,0.0726,0.2109,174.5469
20:30:03:371,-0.7349,1.8034,12.3111,41.8695,-0.1944,-0.0044,0.1637,174.3906
20:30:03:387,-0.9588,1.5951,12.8893,41.8075,-0.1318,-0.2371,0.0327,174.2812
20:30:03:406,-1.4615,1.6813,11.2996,41.2285,-0.0645,-0.3069,-0.0491,173.8438
20:30:03:427,-2.096,1.6406,9.8307,42.7013,-0.3452,-0.068,0.0133,173.6562
20:30:03:452,-2.2169,0.8948,10.446,43.098,-0.8248,0.0747,0.1656,173.6406
20:30:03:470,-1.7333,-0.2664,12.6642,42.2894,-1.0826,-0.235,0.2242,173.7344
20:30:03:485,-0.711,-0.4926,13.829,42.2551,-0.8147,-0.7676,0.087,173.7188
20:30:03:505,-0.4213,0.2568,11.8837,42.3685,-0.2621,-0.863,-0.1226,173.4844
20:30:03:525,-1.1778,1.1391,8.709,43.0417,0.0804,-0.3319,-0.2187,173.1875
20:30:03:547,-2.5006,1.6406,6.6093,43.0417,-0.0514,0.438,-0.0746,173.125
20:30:03:569,-2.6563,1.5365,7.1205,44.2295,-0.469,0.8838,0.1991,173.4844
20:30:03:588,-2.448,1.0984,8.375,42.8783,-0.7851,0.6076,0.3634,173.6875
20:30:03:606,-1.8159,0.8493,9.0861,42.6702,-0.8565,-0.0851,0.4271,173.5312
20:30:03:637,-0.8438,0.908,8.8515,42.3133,-0.7398,-0.6507,0.4303,173.1094
20:30:03:654,-0.183,1.0936,8.1919,42.6336,-0.527,-0.7178,0.3933,172.5625
20:30:03:672,0.1091,1.2767,7.5909,42.8718,-0.2946,-0.4299,0.3552,172.3125
20:30:03:687,0.127,1.4108,7.3539,42.9452,-0.0413,-0.0965,0.3121,171.8438
20:30:03:706,-0.0478,1.6346,6.6536,43.0744,0.1976,0.0894,0.2748,171.4219
20:30:03:726,-0.1184,2.05,5.9138,44.6409,0.3209,0.0992,0.2402,171.0312
20:30:03:746,-0.5386,2.475,5.6073,41.6065,0.2993,0.0425,0.2125,170.6875
20:30:03:771,-1.0079,2.7815,6.012,42.8958,0.1968,0.0185,0.254,170.375
20:30:03:796,-1.1371,2.8725,7.1624,45.2738,0.0663,-0.002,0.3376,170.1094
20:30:03:818,-1.0438,2.7085,9.2238,42.9452,0.0179,-0.1013,0.3848,169.875
20:30:03:826,-0.7122,2.6989,11.2301,43.1024,0.1475,-0.2355,0.3576,169.6094
20:30:03:846,-0.3602,2.9539,12.0561,44.4264,0.3563,-0.3405,0.2617,169
20:30:03:869,-0.1675,3.1418,12.1579,44.3731,0.4735,-0.4052,0.1358,168.5781
20:30:03:887,-0.3315,3.3238,12.456,44.9158,0.4898,-0.423,0.0386,168.2656
20:30:03:905,-0.359,3.2448,12.578,44.5022,0.477,-0.3415,-0.0054,168.0625
20:30:03:983,0.3269,3.0784,12.3889,43.4399,0.4229,-0.3149,-0.0576,168.0156
20:30:03:984,1.0823,3.1143,11.3618,43.3852,0.2533,-0.4765,-0.2089,168.0469
20:30:03:984,0.7495,2.9718,11.2385,45.223,-0.0959,-0.5493,-0.3585,168.0938
20:30:03:985,0.1198,2.2715,12.754,45.2209,-0.3822,-0.3556,-0.3244,168.2656
20:30:04:007,0.6657,1.1965,14.2384,43.8629,-0.3233,-0.1282,-0.2336,168.6562
20:30:04:029,1.6773,0.8948,13.264,47.1018,0.057,-0.1927,-0.3005,169.1094
20:30:04:053,2.1142,1.5772,10.118,44.7325,0.3009,-0.2209,-0.4592,169.4375
20:30:04:070,0.8501,2.2093,7.8351,47.5961,0.135,0.12,-0.5287,169.7344
20:30:04:088,-0.3243,2.1686,7.6436,46.8967,-0.2628,0.7227,-0.3758,170.1562
20:30:04:105,-0.5242,1.3605,8.788,47.8454,-0.5878,1.0138,-0.2179,170.75
20:30:04:126,-0.5589,0.6722,10.2114,46.6652,-0.6205,0.7032,-0.2022,171.25
20:30:04:147,-0.4787,0.5261,10.4592,46.1708,-0.339,0.1893,-0.2483,171.5469
20:30:04:170,-0.3051,0.732,9.1603,47.6923,0.0522,-0.1138,-0.276,171.7188
20:30:04:188,0.1318,0.9822,7.4485,47.9908,0.3571,-0.0606,-0.2733,171.9844
20:30:04:206,0.4814,1.2037,5.988,46.6749,0.5004,0.1781,-0.2954,172.2969
20:30:04:231,0.3437,1.3246,5.5499,47.9541,0.5446,0.3871,-0.3247,172.4531
20:30:04:253,0.1929,1.4311,5.5678,47.8785,0.5787,0.4361,-0.3418,172.7812
20:30:04:272,-0.1447,1.6694,5.4314,47.4241,0.5824,0.3797,-0.3303,173.125
20:30:04:289,-0.4859,2.0213,5.5056,51.2369,0.5145,0.356,-0.2581,173.4688
20:30:04:305,-0.7122,2.2727,6.0287,50.5635,0.4037,0.3677,-0.1407,173.8281
20:30:04:326,-1.1132,2.3804,6.7817,50.1766,0.2884,0.3432,0.0087,174.1562
20:30:04:347,-1.3813,2.5181,7.8004,50.2193,0.1369,0.213,0.1962,174.375
20:30:04:370,-0.9791,2.712,8.8455,51.717,-0.0179,0.1003,0.3789,174.4219
20:30:04:389,-0.3949,2.7049,9.0873,51.0798,-0.282,0.0313,0.4521,174.2812
20:30:04:405,-0.2381,2.2523,10.8782,51.4007,-0.6653,-0.0989,0.4327,173.9219
20:30:04:429,-0.2752,1.5604,13.5465,50.2213,-0.853,-0.2864,0.3717,173.4375
20:30:04:453,-0.0585,0.9834,15.2775,52.3812,-0.7188,-0.4177,0.2599,172.6562
20:30:04:471,-0.5673,0.6399,15.0944,51.7581,-0.3968,-0.3434,0.0897,172.2188
20:30:04:488,-1.9392,0.5309,13.5166,51.8046,-0.159,0.0353,0.0354,171.9531
20:30:04:507,-2.8083,0.3202,11.7533,51.6375,-0.2051,0.495,0.1499,171.875
20:30:04:530,-2.825,-0.2807,11.3343,54.0395,-0.5231,0.4907,0.2838,171.8281
20:30:04:554,-2.096,-1.0253,12.8701,51.9395,-0.7103,-0.0656,0.278,171.625
20:30:04:573,-1.592,-0.9643,13.5154,52.7213,-0.3923,-0.6409,0.1155,171.2344
20:30:04:588,-1.5453,-0.0676,11.0769,54.05,0.1784,-0.55,-0.0009,170.8906
20:30:04:606,-1.7692,0.677,7.7047,52.4549,0.4373,0.1613,0.0159,170.7812
20:30:04:626,-2.2768,0.9966,6,52.8175,0.1915,0.8034,0.1264,170.8281
20:30:04:647,-2.5701,0.8374,6.7386,52.9863,-0.2876,0.8226,0.2511,170.8125
20:30:04:669,-2.5162,0.6375,8.8239,54.2342,-0.5827,0.3456,0.3334,170.6094
20:30:04:686,-1.8853,0.6985,9.9768,54.179,-0.5007,-0.2512,0.3928,170.2656
20:30:04:706,-0.845,0.9296,9.4333,54.5999,-0.2085,-0.4813,0.4159,170.0625
20:30:04:728,0.0791,1.4228,7.4185,54.3124,0.3412,-0.0379,0.3445,169.6094
20:30:04:758,-0.0968,1.6562,6.334,54.2421,0.4863,0.1131,0.2884,169.6094
20:30:04:770,-0.3662,1.9662,5.6361,53.4463,0.4969,0.1315,0.2612,168.9375
20:30:04:793,-0.766,2.3433,5.7857,53.3666,0.4511,0.1197,0.2761,168.5156
20:30:04:807,-1.0342,2.6821,6.3136,53.9616,0.4258,0.1554,0.336,167.8125
20:30:04:824,-1.1922,2.8653,6.8846,54.7435,0.3771,0.2087,0.4181,167.8125
20:30:04:845,-1.0785,2.9048,7.737,55.6469,0.2762,0.165,0.4751,167.5469
20:30:04:872,-0.9983,3.0005,8.7916,54.8229,0.1683,0.0018,0.4902,167.2344
20:30:04:891,-1.0414,3.0257,9.978,55.8754,0.1377,-0.1833,0.4796,166.8594
20:30:04:908,-0.6966,3.0664,10.5897,54.2401,0.2011,-0.3461,0.4668,165.5625
20:30:04:924,-0.0669,3.0831,10.774,54.5272,0.2613,-0.4651,0.3882,165.0312
20:30:04:947,0.1222,3.1897,11.4636,54.7328,0.3153,-0.4792,0.2524,164.7969
20:30:04:972,0.1533,3.1358,11.9807,56.6308,0.416,-0.3572,0.1318,164.0938
20:30:04:992,0.279,3.143,12.2632,56.2234,0.5182,-0.2073,0.0242,163.9219
20:30:05:009,0.6071,3.3441,11.5186,56.6308,0.5326,-0.1708,-0.0656,163.6875
20:30:05:025,0.9362,3.5548,10.8638,57.1249,0.3348,-0.2315,-0.1492,163.5938
20:30:05:045,0.7136,3.3501,11.4923,56.5411,0.0045,-0.1703,-0.2001,163.5938
20:30:05:069,0.3916,2.5804,12.9743,57.1047,-0.2027,0.0079,-0.203,163.7031
20:30:05:089,0.7459,1.916,13.8518,56.9303,-0.0985,-0.0155,-0.2097,163.8906
20:30:05:105,1.6509,1.9411,12.286,54.2736,0.1734,-0.2307,-0.3194,164.1406
20:30:05:125,1.7,2.4271,9.5099,57.9802,0.2099,-0.2997,-0.4914,164.375
20:30:05:145,1.2247,2.6043,7.8423,56.1849,-0.0559,-0.1434,-0.5873,164.5938
20:30:05:165,0.5675,2.3709,7.336,55.6328,-0.3971,0.157,-0.6206,165.5938
20:30:05:188,-0.1028,1.7723,7.4198,57.3989,-0.6583,0.3877,-0.632,165.9375
20:30:05:206,-0.6248,1.1714,8.9077,56.5124,-0.6879,0.4167,-0.6422,166.5938
20:30:05:231,-0.8474,0.9319,9.2393,56.5751,-0.4021,0.3328,-0.6579,167.2812
20:30:05:244,-0.6511,0.9092,8.7557,56.8078,-0.0602,0.2931,-0.6832,167.9375
20:30:05:265,-0.45,1.0146,8.0135,56.1176,0.2216,0.2295,-0.7444,168.625
20:30:05:288,-0.4907,1.2288,7.2988,56.6379,0.4325,0.1565,-0.7995,169.3281
20:30:05:308,-0.5374,1.5042,6.5016,58.3878,0.5848,0.1248,-0.8089,170.1094
20:30:05:325,-0.6212,1.7603,5.7725,56.993,0.6453,0.124,-0.7828,171
20:30:05:345,-0.8678,2.0141,5.1728,56.8622,0.5942,0.164,-0.7103,171.875
20:30:05:371,-0.8881,2.1087,5.4421,56.1689,0.4626,0.2441,-0.5886,172.8125
20:30:05:386,-0.6858,2.0931,6.2047,56.5022,0.3174,0.291,-0.4938,173.6875
20:30:05:404,-0.7565,2.1279,7.3719,58.0624,0.1891,0.2723,-0.4496,174.4062
20:30:05:426,-0.9432,2.3014,8.6623,57.7793,0.0991,0.1594,-0.4126,175
20:30:05:446,-1.1132,2.7072,9.4453,57.7508,0.045,0.0031,-0.3636,175.5156
20:30:05:469,-1.0318,2.9215,9.6404,57.1751,-0.041,-0.0896,-0.2816,175.75
20:30:05:486,-1.0569,3.0807,9.778,56.6401,-0.2461,-0.1538,-0.2203,176.4062
20:30:05:504,-1.4628,2.9167,11.4504,56.294,-0.5452,-0.2342,-0.1724,176.7812
20:30:05:524,-1.7321,2.4032,14.1726,57.4392,-0.6072,-0.3671,-0.1308,177.0625
20:30:05:544,-2.0302,1.8765,15.2967,57.3449,-0.2879,-0.4651,-0.1434,177.2812
20:30:05:568,-2.3905,1.6777,13.7273,56.2804,0.1308,-0.4124,-0.1524,177.4531
20:30:05:586,-2.5521,1.7879,11.5186,56.2804,0.2834,-0.2803,-0.0813,177.625
20:30:05:605,-2.3295,2.0213,9.9983,57.6819,0.1907,-0.2395,0.0071,177.8438
20:30:05:625,-2.5916,1.8585,9.6152,56.6381,-0.0439,-0.2411,0.1059,178.0312
20:30:05:645,-2.6431,1.637,10.373,55.8643,-0.2147,-0.2475,0.2087,178.1094
20:30:05:666,-2.7424,1.5245,10.8291,56.8898,-0.1768,-0.2811,0.2732,178.0781
20:30:05:688,-2.5114,1.6586,9.608,57.3317,-0.0495,-0.2646,0.3299,177.9219
20:30:05:705,-2.5078,1.746,7.9357,56.1576,-0.1028,-0.1141,0.4069,177.6719
20:30:05:725,-2.4994,1.6562,7.397,58.5102,-0.412,0.0771,0.5355,177.3594
20:30:05:745,-2.0517,1.3007,8.466,58.6353,-0.7047,0.0348,0.6316,176.9844
20:30:05:770,-1.44,1.0325,9.055,56.1624,-0.7425,-0.2446,0.6282,176.4375
20:30:05:791,-0.8582,1.0816,8.7437,56.4272,-0.5936,-0.5002,0.5746,175.3594
20:30:05:808,-0.4225,1.1965,8.1464,57.4688,-0.3633,-0.5431,0.5161,174.6719
20:30:05:825,0.0755,1.4431,7.5742,54.9839,-0.094,-0.3631,0.4716,174.0469
20:30:05:845,0.2407,1.6873,6.7625,55.6625,0.1643,-0.0779,0.413,173.5
20:30:05:872,0.2264,1.9004,5.9377,57.2172,0.3225,0.1493,0.3808,173.0156
20:30:05:889,0.133,2.0644,5.3057,54.2175,0.3513,0.2042,0.3824,172.5469
20:30:05:905,0.1869,2.317,5.0004,56.1961,0.2336,0.1264,0.401,172.1094
20:30:05:926,0.2252,2.4846,5.5918,55.4432,0.0234,0.0132,0.4199,171.6562
20:30:05:946,0.2467,2.4858,7.0091,55.6565,-0.1467,-0.1096,0.4418,171.2031
20:30:05:970,0.3317,2.4259,8.7521,55.5064,-0.1896,-0.2616,0.4402,170.9688
20:30:05:988,0.6968,2.5169,9.9337,55.7471,-0.1025,-0.414,0.3997,170.4688
20:30:06:059,0.8273,2.7372,10.6052,55.7443,0.0229,-0.4987,0.3145,169.9844
20:30:06:060,1.0967,3.0209,10.7645,54.7021,0.1153,-0.5596,0.2268,169.5469
20:30:06:060,1.4929,3.2328,11.5689,55.183,0.1105,-0.6169,0.1185,169.1875
20:30:06:075,1.7299,3.3381,13.3035,55.0136,0.179,-0.6358,-0.0312,168.8281
20:30:06:089,1.4211,3.477,14.0936,55.411,0.4147,-0.5405,-0.1812,168.7656
20:30:06:106,1.3876,3.7439,13.5357,53.3301,0.6445,-0.3482,-0.277,168.8438
20:30:06:126,1.4043,4.2719,12.1088,55.6073,0.3531,-0.1317,-0.3969,169.0938
20:30:06:149,1.3313,3.4686,13.835,54.4328,0.1305,0.0257,-0.4424,169.0938
20:30:06:170,1.1673,2.4583,14.9423,53.9441,0.3071,0.0982,-0.5218,169.8125
20:30:06:188,1.1278,2.3912,13.1874,53.9877,0.7569,0.0723,-0.5926,169.8125
20:30:06:204,0.947,3.0807,9.383,55.6035,0.9167,0.1418,-0.5788,170.7344
20:30:06:225,0.6214,3.5512,6.8595,54.2162,0.551,0.41,-0.4491,170.7344
20:30:06:245,0.2347,3.1957,7.0894,53.7029,-0.1462,0.7278,-0.2794,171.9375
20:30:06:271,-0.2034,2.159,8.8563,54.2384,-0.6996,0.6785,-0.1947,172.5625
20:30:06:288,-0.6032,1.3162,10.1563,53.5961,-0.8589,0.312,-0.1974,172.9688
20:30:06:306,-0.8091,1.1163,10.3131,53.2942,-0.6658,-0.0097,-0.2275,173.1719
20:30:06:324,-0.9241,1.2336,9.2118,54.8373,-0.2932,-0.0182,-0.2496,173.4844
20:30:06:345,-1.1707,1.4754,7.5514,53.6807,0.0405,0.2297,-0.252,173.6094
20:30:06:370,-1.6627,1.7244,6.4788,53.3038,0.2338,0.5741,-0.2283,173.9062
20:30:06:391,-2.3139,1.8202,5.9186,52.9495,0.4053,0.7608,-0.1383,174.1719
20:30:06:407,-2.5856,1.8573,5.1488,54.7103,0.5417,0.7475,0.0029,174.4062
20:30:06:427,-2.4408,1.9016,4.6999,52.7054,0.596,0.5911,0.1832,174.5312
20:30:06:444,-1.6818,1.8729,4.36,51.3906,0.5824,0.3988,0.3206,174.5312
20:30:06:465,-1.0773,1.977,4.2139,54.3955,0.4722,0.3331,0.4039,174.4531
20:30:06:487,-1.0043,1.801,5.6492,54.4351,0.2639,0.4279,0.4764,174.1875
20:30:06:505,-0.6966,1.2971,10.1934,54.3274,0.2128,0.4843,0.5858,173.7812
20:30:06:524,0.5639,1.3952,12.869,52.9511,0.6277,0.4649,0.5355,173.2812
20:30:06:545,1.1996,1.8346,11.7688,53.2207,1.0147,0.3983,0.3222,172.7031
20:30:06:570,0.7052,2.8054,10.0821,53.6151,0.8738,0.3799,0.1145,171.9688
20:30:06:587,-0.2046,3.3609,10.2569,53.5524,0.408,0.2955,0.1195,171.3125
20:30:06:607,-0.2238,3.374,11.1774,54.1928,0.0333,0.0617,0.173,170.9375
20:30:06:624,-0.5482,3.1753,11.5725,53.3837,-0.1595,-0.1961,0.1552,170.7031
20:30:06:644,-1.039,3.2065,10.8878,53.3549,-0.2791,-0.2936,0.1629,170.4844
20:30:06:665,-1.3993,3.1681,10.2294,54.2411,-0.5193,-0.3224,0.2396,170.3125
20:30:06:687,-1.2114,2.5325,10.634,54.1265,-0.8525,-0.5074,0.3477,170.1875
20:30:06:704,-0.3171,1.4276,12.4943,53.8464,-1.0464,-0.8177,0.3419,170
20:30:06:729,0.2024,0.8865,14.6909,54.4814,-0.772,-1.0478,0.1331,169.7188
20:30:06:743,-0.4045,1.5006,14.0876,52.4465,-0.1254,-0.8249,-0.1284,169.3906
20:30:06:765,-1.3766,2.1853,11.0314,53.1508,0.3483,-0.1106,-0.1825,169.2344
20:30:06:789,-1.7453,2.2883,8.1787,53.6249,0.2908,0.5056,-0.064,169.3906
20:30:06:815,-1.4352,2.0177,7.1504,53.5485,-0.138,0.5107,0.021,169.6719
20:30:06:824,-1.2556,1.6969,7.6077,54.4851,-0.4988,0.1147,-0.015,169.7812
20:30:06:844,-1.2461,1.8082,7.2079,53.3737,-0.5675,-0.2254,-0.0552,169.6875
20:30:06:866,-1.0761,1.9662,5.9784,53.4889,-0.5105,-0.2544,-0.0158,169.6094
20:30:06:886,-0.7589,2.001,5.4146,54.1658,-0.4735,-0.055,0.0607,169.6719
20:30:06:904,-0.3291,1.9567,5.271,53.6601,-0.4218,0.1024,0.1083,169.7656
20:30:06:929,0.0288,2.0034,5.4613,52.9197,-0.3587,0.112,0.0886,169.75
20:30:06:944,0.0049,2.3086,5.8815,53.8177,-0.2314,0.0457,0.0183,169.6406
20:30:06:965,-0.3626,2.8713,6.1748,54.298,-0.0605,0.0955,-0.0102,169.5
20:30:06:989,-0.7816,3.2926,6.8368,52.7967,0.1185,0.3237,0.0561,169.4219
20:30:07:007,-0.7182,3.8804,7.6676,53.3332,0.3193,0.6638,0.1379,169.4219
20:30:07:031,-0.7409,4.3197,9.383,53.2402,0.5052,1.0351,0.1312,169.3906
20:30:07:043,-1.349,4.8776,12.2656,53.1046,0.8879,1.3437,-0.0003,169.2031
20:30:07:064,-3.0669,5.5803,12.9001,54.3689,1.4839,1.532,-0.0997,168.9531
20:30:07:087,-4.5692,6.4542,11.5881,53.4124,1.8972,1.6143,0.0932,168.7188
20:30:07:107,-4.4507,7.1186,9.7301,53.0005,1.8674,1.376,0.4109,168.6562
20:30:07:124,-3.7133,7.3245,9.2417,53.9663,1.4765,0.7924,0.6082,168.5625
20:30:07:144,-2.5258,7.1234,10.2688,55.5147,1.0826,0.0185,0.6026,168.1719
20:30:07:165,-1.9105,6.9258,11.5126,53.3604,0.9454,-0.5599,0.4513,167.5
20:30:07:188,-1.1539,7.0982,11.3965,53.0176,1.0229,-0.7157,0.339,166.5625
20:30:07:204,-0.1615,7.261,10.6926,54.7281,1.0184,-0.4129,0.2527,166.2969
20:30:07:224,0.4382,6.8361,10.6771,54.3779,0.8722,0.0329,0.12,166.1875
20:30:07:244,0.4454,5.8867,10.8135,52.8282,0.7302,0.1935,-0.0656,166.0938
20:30:07:265,0.6813,5.0883,11.1523,54.1718,0.6879,0.0007,-0.2195,166.0156
20:30:07:288,1.2379,4.959,10.2365,53.3294,0.7223,-0.2925,-0.4043,166.0938
20:30:07:307,1.4714,5.1649,8.5654,54.109,0.6101,-0.5032,-0.5583,166.4062
20:30:07:324,1.6377,5.0607,7.4521,53.1834,0.3225,-0.5133,-0.6741,167
20:30:07:344,1.3612,4.8848,6.6704,53.2387,-0.0226,-0.3596,-0.7801,167.8438
20:30:07:364,0.2204,4.2922,5.0722,52.7899,-0.4282,-0.2246,-0.8355,168.7969
20:30:07:388,-0.3554,3.1825,6.3986,52.462,-0.8682,-0.2611,-0.7213,169.8125
20:30:07:404,-0.3435,2.6007,7.7334,52.5758,-0.898,-0.4651,-0.7378,170.75
20:30:07:425,-0.8738,2.6151,7.8399,52.3216,-0.6288,-0.5061,-0.7929,171.5781
20:30:07:444,-1.5034,2.8306,7.4413,51.5682,-0.2282,-0.2504,-0.7913,172.0156
20:30:07:464,-1.9859,3.0197,6.9972,52.4799,0.1912,0.1597,-0.692,172.9844
20:30:07:490,-2.2038,3.1861,6.6009,51.7859,0.5486,0.5584,-0.5327,173.9219
20:30:07:509,-2.4851,3.2926,6.3292,53.2029,0.8053,0.7525,-0.3109,175.1562
20:30:07:525,-1.6495,3.6147,5.2171,52.4588,0.7079,0.0468,0.075,175.6406
20:30:07:547,-1.2377,3.7451,5.7211,51.6516,0.3832,-0.528,0.1738,175.8594
20:30:07:574,-0.8654,3.7595,6.5686,51.1565,0.0826,-0.8845,0.2596,175.8906
20:30:07:587,-0.0861,3.7559,7.7166,52.4911,-0.0746,-0.9229,0.3405,175.8906
20:30:07:609,0.3999,3.8038,8.3104,52.8551,-0.0631,-0.7101,0.3539,175.875
20:30:07:626,0.7495,4.0636,8.2865,54.0277,-0.0149,-0.3998,0.3339,175.875
20:30:07:643,1.0631,4.4012,7.6484,54.0278,-0.0637,-0.1279,0.3006,175.7812
20:30:07:666,1.2271,4.5352,7.5478,51.2224,-0.2914,0.0257,0.2404,175.6094
20:30:07:688,1.2762,4.6118,8.1488,52.4545,-0.6091,-0.0297,0.1299,175.3438
20:30:07:705,0.9853,4.7902,9.2142,50.6652,-0.865,-0.271,-0.0177,175.0312
20:30:07:723,0.6418,5.0308,9.0203,51.5608,-1.0485,-0.5495,-0.0957,174.7344
20:30:07:744,0.6394,4.9339,8.1009,49.6975,-1.4509,-0.7141,-0.0709,174.6094
20:30:07:764,1.1374,3.7272,9.8379,51.7306,-2.0512,-0.8055,-0.0667,174.7031
20:30:07:789,1.8676,2.5253,13.9882,50.2246,-2.1513,-0.9911,-0.2728,174.8906
20:30:07:808,1.1098,2.7671,16.0688,50.4328,-1.4256,-1.0707,-0.75,175.0625
20:30:07:823,-1.8207,4.0887,14.0541,50.049,-0.3236,-0.7077,-1.0283,175.1719
20:30:07:843,-3.6403,5.3636,9.535,49.0087,0.3587,-0.1788,-0.8097,175.6094
20:30:07:863,-3.6475,5.384,5.7402,50.5898,0.1689,0.3126,-0.3314,176.5938
20:30:07:887,-2.3019,4.2348,5.6337,51.0617,-0.645,0.2798,0.0569,177.8906
20:30:07:906,-1.6124,2.4415,8.6252,50.4392,-1.3318,-0.3016,0.2167,179.1094
20:30:07:923,0.1581,1.3222,11.3642,50.4906,-1.436,-1.0076,0.2572,179.1406
20:30:07:944,1.9298,0.8266,11.7736,49.0023,-1.04,-1.4001,0.1062,178.9375
20:30:07:963,2.9869,0.8434,10.798,49.4954,-0.482,-1.2145,-0.137,178.7188
20:30:07:988,3.6022,1.1738,9.2118,48.0216,0.0599,-0.6049,-0.3956,178.6719
20:30:08:005,3.5663,1.4754,7.5993,47.8392,0.4408,0.1429,-0.6461,178.875
20:30:08:022,2.7187,1.649,6.5662,48.7496,0.6216,0.6702,-0.836,179.3281
20:30:08:043,1.8197,1.9615,6.2394,47.9009,0.6487,0.8348,-0.929,179.9531
20:30:08:126,0.856,2.1662,6.3926,49.0756,0.5819,0.7999,-0.9668,180.7031
20:30:08:126,-0.1603,2.3481,7.1001,47.9769,0.49,0.7099,-0.9173,181.5938
20:30:08:127,-0.8774,2.5037,8.0003,47.3918,0.4583,0.6308,-0.7926,182.5625
20:30:08:127,-1.4196,2.6809,8.4768,46.4365,0.4546,0.5099,-0.6467,183.4844
20:30:08:146,-1.689,2.809,8.9329,46.6563,0.4357,0.2731,-0.4981,183.9375
20:30:08:162,-1.5837,2.9131,9.4417,48.0373,0.4442,-0.0161,-0.3673,184.75
20:30:08:183,-1.0007,3.052,9.5829,47.6446,0.5113,-0.1964,-0.2786,185.4219
20:30:08:205,-0.444,3.2807,9.4824,46.9458,0.5984,-0.1287,-0.2334,186.1719
20:30:08:224,-0.0813,3.4351,9.4919,46.5787,0.6472,0.1261,-0.2046,186.5781
20:30:08:245,0.2587,3.5704,9.7828,45.1731,0.6629,0.3253,-0.2046,186.9375
20:30:08:264,0.6346,3.793,9.6918,47.045,0.6749,0.3493,-0.276,187.2031
20:30:08:287,0.5927,4.1294,9.128,45.5853,0.5646,0.1815,-0.391,187.4062
20:30:08:304,0.7339,4.5197,8.7545,45.2236,0.2844,-0.1777,-0.4965,187.6406
20:30:08:323,1.1793,4.7842,8.6037,45.8671,-0.1707,-0.5751,-0.595,187.9688
20:30:08:343,1.6533,4.6406,9.8918,45.2163,-0.6828,-0.8172,-0.693,188.5
20:30:08:363,1.6461,3.9032,12.3183,43.2747,-0.93,-0.7679,-0.8011,189.2344
20:30:08:390,1.9586,3.1657,14.1068,43.3132,-0.7587,-0.6116,-0.9354,190.1094
20:30:08:405,2.2507,2.912,13.8566,44.6491,-0.2956,-0.5074,-1.1761,191.0469
20:30:08:427,1.8712,3.1669,11.8251,43.6885,0.0905,-0.3317,-1.4179,192.125
20:30:08:443,1.3445,3.4818,9.6404,42.8185,0.1513,-0.0963,-1.5439,193.4062
20:30:08:464,0.6358,3.3333,8.6564,43.6029,-0.1052,0.0865,-1.5905,194.9062
20:30:08:487,-0.0083,2.7013,9.2429,44.1174,-0.4724,0.0907,-1.5878,196.6719
20:30:08:505,-0.6475,2.0309,10.543,42.8431,-0.653,-0.108,-1.6121,199.375
20:30:08:523,-0.8319,1.5987,10.8662,41.4917,-0.551,-0.3644,-1.611,201.0625
20:30:08:543,-0.7397,1.3988,9.808,43.9956,-0.3337,-0.5639,-1.6193,202.875
20:30:08:563,-0.5925,1.2899,8.6839,42.2818,-0.1491,-0.6606,-1.6289,204.75
20:30:08:590,-0.687,1.1115,8.0039,41.298,0.0392,-0.6129,-1.6259,206.5625
20:30:08:603,-0.6774,0.9691,8.1979,42.2777,0.2804,-0.3855,-1.5679,208.5312
20:30:08:623,-0.4404,0.9164,7.7932,40.0986,0.6362,-0.1343,-1.5343,210.4844
20:30:08:644,-0.3447,1.0157,6.8966,41.5583,0.9337,0.0183,-1.5245,211.4375
20:30:08:663,-0.5146,1.2588,6.0179,41.6354,1.0546,0.0393,-1.4968,213.1875
20:30:08:686,-0.6691,1.5449,5.6636,40.3274,1.0045,-0.0062,-1.4035,215.0156
20:30:08:707,-0.5829,1.7831,6.1113,40.4258,0.844,-0.055,-1.2669,216.8125
20:30:08:723,-0.2202,1.825,7.4641,41.3162,0.6615,-0.1189,-1.1609,218.5781
20:30:08:743,-0.3889,1.9902,8.9568,39.741,0.5558,-0.1618,-1.1284,220.1094
20:30:08:764,-1.0067,2.1482,10.2078,39.4055,0.4682,-0.1636,-1.0669,221.5781
20:30:08:788,-1.5573,2.4595,11.1068,39.186,0.3697,-0.1391,-0.9311,223.5938
20:30:08:808,-1.9631,2.4128,11.5773,40.2857,0.2149,-0.1394,-0.7625,224.8906
20:30:08:823,-2.0948,2.3014,12.0513,39.443,0.0394,-0.2965,-0.6499,226.0312
20:30:08:842,-2.3785,2.2416,12.3973,37.2695,-0.0549,-0.6126,-0.6065,226.9531
20:30:08:863,-2.9436,2.4511,12.1866,38.9447,-0.0671,-0.811,-0.5756,227.7188
20:30:08:886,-3.9156,2.5612,11.9628,37.3208,-0.1129,-0.8403,-0.4805,228.5469
20:30:08:905,-4.1263,2.335,11.8107,37.5045,-0.1167,-0.9407,-0.317,229.3594
20:30:08:923,-3.6163,1.734,10.7453,38.1825,-0.0815,-1.0909,-0.1926,230.0469
20:30:08:944,-2.5114,1.0146,9.8319,38.2964,-0.1382,-1.1599,-0.1889,230.5938
20:30:08:964,-2.4085,1.1343,10.0402,36.9581,-0.1049,-0.8129,-0.374,231.0156
20:30:08:989,-2.1714,1.5497,8.897,37.0835,0.0722,-0.406,-0.4126,231.0156
20:30:09:007,-1.8937,1.9232,7.1516,36.6145,0.0647,0.0159,-0.4049,231.9688
20:30:09:025,-1.537,2.159,6.1664,36.937,-0.2088,0.2952,-0.3631,233.0938
20:30:09:043,-0.954,1.9519,6.6512,36.2937,-0.5827,0.2881,-0.3292,233.0938
20:30:09:062,-0.2285,1.7077,7.8878,35.8082,-0.779,0.0593,-0.3679,233.5469
20:30:09:089,0.3114,1.6837,8.7713,35.4042,-0.6788,-0.1445,-0.4717,233.8906
20:30:09:106,0.7208,1.8693,8.6001,36.6059,-0.3523,-0.1269,-0.5894,234.1875
20:30:09:122,0.7579,2.2595,7.883,35.7098,0.0176,0.1003,-0.7002,234.5312
20:30:09:146,0.2946,2.7324,7.0271,35.1257,0.3348,0.4071,-0.7306,235.0625
20:30:09:162,0.03,3.1897,6.1113,35.6816,0.5089,0.5996,-0.673,235.75
20:30:09:182,-0.2178,3.6326,5.5726,35.6912,0.5079,0.5874,-0.5852,236.5312
20:30:09:206,-0.353,4.0755,5.5008,35.3492,0.3438,0.4558,-0.4632,237.2812
20:30:09:225,-0.5948,4.3688,6.5542,35.1411,0.0647,0.2654,-0.3564,237.9844
20:30:09:250,-0.9157,4.2922,8.9018,35.8749,-0.1526,0.1022,-0.2517,238.5938
20:30:09:262,-1.1707,4.0995,10.8878,35.3919,-0.1374,-0.0611,-0.1612,239.2344
20:30:09:283,-1.0414,4.0085,11.7113,32.9104,0.0469,-0.2906,-0.0776,239.5469
20:30:09:308,-0.517,4.0193,11.4348,35.789,0.2099,-0.6022,-0.0539,239.75
20:30:09:328,0.2671,3.9666,10.4161,34.4053,0.1734,-0.9045,-0.0802,239.9062
20:30:09:346,0.71,3.6613,10.2461,33.6665,-0.0834,-1.1277,-0.175,240.0625
20:30:09:364,1.3205,3.1454,11.6539,34.0736,-0.3625,-1.3061,-0.2613,240.2812
20:30:09:388,1.7371,2.5911,13.9703,34.9998,-0.3622,-1.3354,-0.4054,240.5938
20:30:09:405,1.779,2.2152,14.8825,33.3647,-0.0687,-1.1794,-0.5274,241.0469
20:30:09:423,1.7215,2.2332,14.6095,33.2897,0.2112,-0.8209,-0.6531,241.625
20:30:09:446,1.129,1.9495,14.5126,34.2841,0.3412,-0.414,-0.7772,242.375
20:30:09:462,0.5448,1.8202,14.6431,31.819,0.5092,-0.2177,-0.8376,242.75
20:30:09:483,0.9111,2.1805,12.8247,33.8673,0.7651,-0.3647,-0.8898,243.6406
20:30:09:506,1.3457,2.6103,9.7709,34.6458,0.7894,-0.5287,-0.9727,244.6094
20:30:09:527,1.2451,2.8653,7.8016,33.4248,0.5111,-0.4774,-1.0488,245.5625
20:30:09:543,0.6298,2.6725,7.0953,33.5521,0.0882,-0.244,-1.0542,246.6562
20:30:09:563,0.0767,2.317,7.0486,33.5312,-0.326,-0.1516,-1.0078,248.5312
20:30:09:588,-0.3782,1.904,6.3232,35.8851,-0.735,-0.4526,-0.9756,249.7656
20:30:09:605,-0.626,1.4192,6.8439,35.3538,-1.1489,-0.9775,-0.9013,250.9688
20:30:09:624,-0.0657,0.9403,7.8794,35.3478,-1.2906,-1.4361,-0.8342,252.1406
20:30:09:643,0.5975,0.7081,9.1855,35.4873,-1.082,-1.4928,-0.8235,253.3594
20:30:09:663,0.5316,0.6961,9.9169,34.6337,-0.5076,-1.0265,-0.8387,254.5
20:30:09:688,0.1905,0.6722,9.5781,34.6337,0.2336,-0.2369,-0.7836,255.7031
20:30:09:709,0.2982,0.7811,8.1919,35.4818,0.8895,0.4489,-0.6555,256.875
20:30:09:729,0.8058,0.7991,6.5387,37.1045,1.2424,0.7283,-0.5692,257.8594
20:30:09:743,0.9075,0.9355,5.4673,36.7649,1.2312,0.5877,-0.5726,258.6406
20:30:09:763,0.6238,1.1905,5.7307,36.8453,0.9729,0.2127,-0.5519,259.2031
20:30:09:786,0.6322,1.5497,6.5854,37.1224,0.6509,-0.1354,-0.485,259.6719
20:30:09:804,0.7196,1.7352,7.8675,37.5406,0.3302,-0.2688,-0.3801,260.25
20:30:09:823,1.0763,1.6765,9.5326,38.0013,0.1366,-0.2936,-0.2605,261.125
20:30:09:843,1.3265,1.7029,10.2593,37.5572,0.1457,-0.264,-0.1974,261.5938
20:30:09:863,1.4402,1.7568,9.4943,38.4039,0.1228,-0.1807,-0.1327,261.9531
20:30:09:891,1.8317,1.892,8.5402,37.5553,-0.1537,-0.1668,-0.0784,262.2344
20:30:09:904,2.1274,1.7113,8.6635,38.0893,-0.6245,-0.4094,-0.0595,262.3438
20:30:09:922,2.3967,1.3402,8.7533,39.3693,-1.1097,-0.7921,-0.0677,262.4844
20:30:09:942,2.0663,0.4878,9.3483,38.9729,-1.6365,-0.9426,-0.0853,262.6094
20:30:09:963,1.3397,-0.6458,11.3462,38.2605,-2.0925,-0.7346,-0.0845,262.8125
20:30:09:988,1.141,-1.8513,15.2117,39.2461,-2.1976,-0.5418,-0.1111,263.1094
20:30:10:008,1.7407,-1.8836,18.2918,40.9058,-1.5737,-0.705,-0.3977,263.4219
20:30:10:023,0.2982,-0.592,16.8421,41.164,-0.4288,-0.7735,-0.811,263.6875
20:30:10:047,-1.5956,0.744,12.3494,42.2276,0.4232,-0.1615,-0.8278,264.0938
20:30:10:062,-2.7077,1.4347,8.3786,40.6839,0.5159,0.6801,-0.4637,264.9219
20:30:10:082,-1.8279,1.3461,7.0918,41.4579,-0.0075,1.0034,-0.0451,266.4062
20:30:10:110,-1.2988,0.8362,8.3918,40.982,-0.6525,0.5118,0.0647,266.8281
20:30:10:125,-1.4699,0.659,10.5526,42.6993,-0.9609,-0.3258,0.0716,266.7656
20:30:10:204,-1.1623,0.671,11.8993,40.5248,-0.7998,-0.8214,0.1861,266.6562
20:30:10:204,-0.0382,0.7847,11.5569,42.5027,-0.2799,-0.7445,0.3017,266.6406
20:30:10:205,0.9542,0.9978,9.7589,43.627,0.2727,-0.3391,0.3131,266.5469
20:30:10:221,1.2271,1.2923,8.0195,43.8251,0.6527,0.0423,0.2343,266.2812
20:30:10:222,0.8908,1.5461,6.8799,42.3314,0.8661,0.2822,0.1576,265.9375
20:30:10:242,0.5915,1.8322,6.2227,43.8251,0.9824,0.4212,0.1392,265.6406
20:30:10:262,0.3904,2.1339,5.8587,43.7692,1.0416,0.5387,0.1499,265.375
20:30:10:287,0.1115,2.4451,5.7845,45.4399,1.0317,0.6612,0.2007,265.1094
20:30:10:303,0.1126,2.5983,6.0946,43.815,0.9193,0.7877,0.2961,264.8281
20:30:10:329,0.607,2.6163,8.2398,45.4399,0.6005,0.7815,0.4314,264.4844
20:30:10:343,0.7471,2.6785,9.1567,43.8789,0.4232,0.6383,0.4111,264.25
20:30:10:366,0.8417,2.5684,10.2054,45.814,0.2171,0.4478,0.3685,263.3906
20:30:10:392,1.3157,2.4547,12.177,45.1082,0.0386,0.23,0.328,262.7812
20:30:10:411,2.1669,2.5504,13.3119,46.7288,0.1172,-0.0257,0.1677,261.7031
20:30:10:432,2.2303,2.6211,12.9025,45.8228,0.3318,-0.1652,-0.0411,261.7031
20:30:10:442,2.1118,2.955,12.1794,46.164,0.4839,-0.2158,-0.1966,261.3125
20:30:10:461,1.9586,3.5608,11.1284,47.2003,0.5808,-0.2848,-0.2896,261.125
20:30:10:483,1.8879,4.1617,9.4644,47.8589,0.4719,-0.2494,-0.2968,261.2031
20:30:10:510,2.0962,4.1569,9.0837,46.9605,0.0679,-0.1226,-0.2443,261.4531
20:30:10:525,2.0879,3.2926,10.1898,46.2475,-0.3521,-0.0305,-0.243,261.8125
20:30:10:542,2.0388,2.2272,12.2728,47.2097,-0.5582,0.0175,-0.3029,262.1875
20:30:10:562,2.4398,1.8549,13.9631,48.3721,-0.3513,-0.0832,-0.4395,262.5
20:30:10:582,2.4015,2.0309,13.1215,48.4196,0.1875,-0.2677,-0.6635,262.7656
20:30:10:605,1.3421,2.5229,10.5621,48.0731,0.5305,-0.096,-0.7711,263.125
20:30:10:625,0.4993,2.6941,8.5857,47.8418,0.4125,0.3493,-0.6555,264.0156
20:30:10:642,0.5268,2.2308,8.1572,49.0865,0.0463,0.5754,-0.4954,264.8594
20:30:10:661,0.5508,1.6131,8.3128,48.7551,-0.2107,0.3751,-0.4959,265.6719
20:30:10:682,0.4179,1.2504,8.0853,49.3918,-0.2551,0.0596,-0.5641,266.2031
20:30:10:707,-0.0179,1.1546,7.7669,49.0167,-0.1678,-0.1394,-0.6374,266.6406
20:30:10:723,-0.3722,1.2851,7.2162,48.9412,-0.0013,-0.1165,-0.664,267.2031
20:30:10:742,-0.4308,1.5413,6.814,48.2508,0.1832,0.0737,-0.6427,267.8906
20:30:10:764,-0.0633,1.9124,6.808,48.7426,0.424,0.1839,-0.6153,268.6875
20:30:10:789,0.066,2.2176,6.4429,48.7426,0.7236,0.1568,-0.6363,269.4062
20:30:10:812,-0.5553,2.2931,5.733,49.3698,0.8631,0.1959,-0.5963,269.75
20:30:10:832,-0.468,2.2931,6.3819,49.1068,0.8248,0.198,-0.4416,270.4375
20:30:10:841,0.1031,2.4463,7.8818,48.6307,0.9065,0.0766,-0.3418,271.1406
20:30:10:863,0.1031,2.712,7.6185,49.3996,1.0725,-0.0875,-0.3268,271.7812
20:30:10:888,-0.1004,3.2902,6.7015,48.4311,1.0045,-0.076,-0.2701,272.2656
20:30:10:904,-0.3674,3.6996,6.4429,50.0779,0.6298,0.0713,-0.1527,272.6719
20:30:10:925,-0.681,3.6697,7.7382,49.6743,0.1316,0.1349,-0.0208,272.8594
20:30:10:944,-0.8726,3.2328,9.2417,51.0222,-0.2474,0.0851,0.0479,273.5625
20:30:10:961,-1.1012,2.6917,10.5717,50.2581,-0.4858,-0.0057,0.0649,273.6406
20:30:10:982,-1.2533,2.3649,11.8335,48.721,-0.5073,-0.109,0.0181,273.5781
20:30:11:005,-2.1032,2.3421,12.1291,50.9031,-0.3212,-0.0504,-0.0445,273.4844
20:30:11:027,-2.6682,2.4176,10.7764,50.6593,-0.1374,0.1882,0.0415,273.4219
20:30:11:042,-2.3785,2.3266,9.1903,50.0539,-0.2551,0.4327,0.222,273.4531
20:30:11:061,-2.0302,1.8657,8.8479,52.3113,-0.6738,0.4231,0.3621,273.4531
20:30:11:081,-1.7405,1.1618,10.1886,52.4849,-1.143,0.1645,0.4596,273.2188
20:30:11:105,-1.2808,0.7787,12.3015,50.3319,-1.3169,-0.1381,0.4931,272.75
20:30:11:121,-1.027,1.0146,13.0318,52.3885,-1.1273,-0.305,0.4708,272.1875
20:30:11:143,-1.1204,1.4671,11.9029,51.3577,-0.8946,-0.1418,0.4953,271.5625
20:30:11:161,-1.2042,1.4659,10.8782,50.8203,-0.9148,0.2851,0.5773,271
20:30:11:181,-1.0809,1.1067,10.4221,51.2735,-1.0757,0.5901,0.6151,270.5156
20:30:11:204,-0.8367,0.7943,9.9492,51.6159,-1.2069,0.6071,0.5504,269.4688
20:30:11:222,-0.8151,0.6015,9.5302,51.0899,-1.2235,0.4553,0.4484,268.625
20:30:11:244,-0.6786,0.6135,9.3195,51.2343,-1.0562,0.3091,0.3856,267.8906
20:30:11:261,-0.7289,0.7045,8.8922,50.2473,-0.7132,0.2987,0.3259,267.25
20:30:11:282,-1.0773,0.8673,8.5642,51.7097,-0.2804,0.4574,0.2958,266.9688
20:30:11:306,-1.4125,1.1474,8.472,50.8428,0.24,0.6881,0.3376,266.4844
20:30:11:322,-1.586,1.5556,7.3886,50.6498,0.7654,0.8606,0.4101,266.0938
20:30:11:346,-1.5825,1.9459,5.7318,50.7474,1.086,0.8899,0.5267,265.6719
20:30:11:361,-1.3119,2.4044,4.4402,50.6118,1.1145,0.7749,0.6793,265.1875
20:30:11:382,-0.8558,2.8569,4.0284,51.1361,0.8895,0.5413,0.7909,264.6406
20:30:11:406,-0.5158,3.2112,5.5176,50.3872,0.5438,0.2353,0.874,263.9375
20:30:11:428,-0.1759,3.4363,7.3084,51.5537,0.3281,-0.0845,0.866,263.0781
20:30:11:442,0.2096,3.8457,8.5857,51.3649,0.1971,-0.3751,0.8101,262.1562
20:30:11:461,0.3664,4.4287,9.9528,50.7439,0.082,-0.615,0.7272,261.1875
20:30:11:483,0.5687,4.6059,10.9189,52.1933,-0.0024,-0.8347,0.6631,259.875
20:30:11:505,1.0691,4.625,11.8861,52.1656,-0.0884,-1.0497,0.5904,259.2031
20:30:11:523,1.3397,4.2862,12.8175,50.9739,-0.1545,-1.1687,0.4386,258.5938
20:30:11:542,1.4941,4.1043,13.8111,51.646,-0.1609,-1.1367,0.2521,258.1094
20:30:11:562,1.3133,4.1773,14.0301,51.8503,-0.0852,-1.0454,0.0995,257.7969
20:30:11:581,1.2774,4.1713,13.3945,49.7136,-0.0706,-0.8782,0.0385,257.7188
20:30:11:607,1.4725,3.635,12.9719,49.7501,-0.2162,-0.6904,0.0247,257.7969
20:30:11:626,1.6725,2.5792,13.9883,51.6999,-0.3452,-0.5314,-0.0014,257.9062
20:30:11:641,2.3285,1.6526,14.898,49.1761,-0.1513,-0.406,-0.1018,258
20:30:11:665,2.623,1.4431,13.7189,48.9442,0.2935,-0.3093,-0.3396,258.1094
20:30:11:689,2.1824,1.746,11.011,49.5171,0.5758,-0.0504,-0.5615,258.2969
20:30:11:708,1.3588,1.9255,8.8108,48.8827,0.49,0.3397,-0.6525,258.7031
20:30:11:724,0.4275,1.6801,6.2634,49.4707,0.2,0.6718,-0.6517,259.3438
20:30:11:742,-0.2345,1.339,5.8587,47.6398,-0.1609,0.8702,-0.6645,260.0156
20:30:11:766,-0.6535,1.0134,5.5714,47.6398,-0.6589,1.0018,-0.6616,260.3281
20:30:11:789,-0.9229,0.6099,5.4637,48.3694,-0.7723,1.0212,-0.6432,260.3281
20:30:11:810,-1.0126,0.3921,6.067,47.1898,-0.7502,1.0031,-0.611,261.2031
20:30:11:825,-1.1168,0.3166,6.7099,48.7538,-0.5135,1.0135,-0.6078,262.3438
20:30:11:841,-1.6052,0.2747,7.2366,46.8727,-0.1198,1.0974,-0.5734,262.8594
20:30:11:860,-1.9763,0.3645,7.0666,46.4375,0.3297,1.2274,-0.4842,263.3594
20:30:11:882,-2.345,0.3597,6.3711,47.5639,0.5974,1.2492,-0.3625,263.8594
20:30:11:910,-2.3534,0.3681,6.6285,48.0182,0.6852,1.0471,-0.207,264.3594
20:30:11:928,-1.9045,0.5573,6.8595,47.106,0.7159,0.7014,-0.1058,264.7344
20:30:11:946,-1.6842,0.7141,6.8835,45.9285,0.5976,0.2457,-0.1085,265.0312
20:30:11:961,-2.0709,1.1319,8.0853,47.3659,0.3763,-0.1655,-0.1127,265.1719
20:30:11:981,-2.3259,1.6143,8.8431,46.8666,0.1984,-0.3327,-0.0336,265.2656
20:30:12:006,-2.1008,2.086,8.7545,46.9336,-0.0876,-0.2803,0.0836,265.4375
20:30:12:024,-2.0912,2.159,9.6775,47.6133,-0.4898,-0.2254,0.1856,265.6562
20:30:12:040,-2.3869,2.1267,11.2756,47.3497,-0.7715,-0.2768,0.2543,265.7188
20:30:12:060,-2.9064,2.0883,12.0908,47.1103,-0.8706,-0.3357,0.3275,265.4844
20:30:12:082,-2.5689,1.8011,11.3343,48.4645,-0.9776,-0.3213,0.4271,265.3125
20:30:12:107,-2.3031,1.1977,10.6423,47.5382,-1.33,-0.301,0.4258,264.7344
20:30:12:123,-2.6215,0.0676,10.3718,45.2988,-1.8653,-0.5295,0.352,264.4688
20:30:12:141,-2.746,-1.5425,12.3111,47.0363,-2.387,-1.2523,0.2801,263.875
20:30:12:166,-1.6854,-2.3673,13.9787,45.8951,-2.3886,-1.9911,0.1733,263.3281
20:30:12:180,-1.1623,-2.3361,15.4008,46.465,-1.8264,-2.0422,0.0093,262.8438
20:30:12:202,-1.6076,-1.8932,14.4192,47.3174,-0.8235,-1.1554,-0.1172,262.5156
20:30:12:224,-2.6084,-1.4072,11.5641,45.972,0.0237,0.3379,-0.0342,262.4062
20:30:12:301,-2.4671,-0.9702,8.9796,45.0623,0.392,1.7131,0.1824,262.4844
20:30:12:301,-1.9212,-0.6626,7.4724,46.6726,0.3633,2.3155,0.3113,262.6094
20:30:12:302,-1.6375,-0.5022,7.4748,46.3516,0.1675,2.0942,0.3334,262.5
20:30:12:302,-1.446,-0.2053,7.3479,45.3916,0.0445,1.3453,0.2905,262.3438
20:30:12:323,-1.4496,0.1059,6.7434,45.8763,-0.0378,0.5419,0.2532,261.9375
20:30:12:342,-1.6914,0.3753,6.1329,45.4949,-0.159,-0.0824,0.2806,261.4844
20:30:12:362,-1.5645,0.6028,6.4525,44.8316,-0.2578,-0.4731,0.4117,261.0938
20:30:12:381,-1.0821,0.6303,6.8475,45.9145,-0.1859,-0.6787,0.5347,260.6406
20:30:12:405,-0.9612,0.7691,6.5507,45.0035,-0.0085,-0.7117,0.6087,260.2344
20:30:12:423,-1.0569,0.9786,6.3759,44.3041,0.1217,-0.6305,0.7155,259.6875
20:30:12:444,-1.0282,1.0529,6.9816,45.1518,0.1486,-0.5634,0.8559,259.0781
20:30:12:461,-0.7732,1.2025,8.1177,43.7804,0.1502,-0.5626,0.956,258.3594
20:30:12:481,-0.7744,1.3485,9.9516,45.1656,0.1856,-0.6409,1.0157,257.5
20:30:12:506,-0.4692,1.5473,10.9476,44.4152,0.3036,-0.7615,1.0205,256.5469
20:30:12:525,0.0109,1.8968,10.8913,43.5922,0.327,-0.9493,0.9834,255.4531
20:30:12:541,0.5963,1.9698,11.6467,42.9664,0.2402,-1.1205,0.9006,254.3438
20:30:12:561,1.2116,1.9938,12.6511,43.463,0.2637,-1.1557,0.7355,253.25
20:30:12:581,1.5911,1.9974,13.3741,43.9929,0.4107,-0.9778,0.49,252.2969
20:30:12:609,1.8161,2.0788,13.3909,43.2895,0.6099,-0.6992,0.2159,251.4375
20:30:12:626,1.8616,2.3781,13.0497,41.7682,0.7446,-0.4928,-0.0342,250.8125
20:30:12:644,1.7431,2.5205,12.1746,42.3683,0.7294,-0.3306,-0.2336,250.4844
20:30:12:664,1.2523,2.4475,11.685,41.4202,0.4756,-0.1602,-0.3175,250.5
20:30:12:680,1.2535,1.9375,12.584,42.4313,0.1902,0.0311,-0.2784,250.7969
20:30:12:701,1.8401,1.4,13.1491,41.3901,0.1734,0.0801,-0.2728,251.1562
20:30:12:723,2.3297,1.1977,12.3781,42.0272,0.3156,0.0393,-0.3718,251.4688
20:30:12:744,2.2662,0.9762,10.6184,41.2674,0.3475,0.1046,-0.4957,251.7656
20:30:12:762,1.9777,0.8565,9.4201,40.0061,0.2466,0.3264,-0.6054,252.1562
20:30:12:781,1.3744,0.7931,7.9381,41.1682,0.122,0.5573,-0.7066,252.7188
20:30:12:807,0.728,0.7464,6.8583,39.1484,-0.0852,0.7112,-0.7412,253.0312
20:30:12:826,0.4179,0.5477,6.5531,40.5725,-0.2951,0.7381,-0.733,253.7344
20:30:12:841,0.1557,0.3358,6.8439,40.0049,-0.4139,0.7269,-0.7242,254.4531
20:30:12:861,0.0612,0.0784,7.7908,39.9022,-0.388,0.7797,-0.7159,255.2031
20:30:12:881,-0.1064,-0.1921,8.9365,40.1679,-0.1073,0.8449,-0.7497,255.9531
20:30:12:908,-0.4727,-0.41,9.6667,40.3373,0.3955,0.9032,-0.7737,256.6406
20:30:12:924,-0.8079,-0.6015,10.0079,40.7076,1.0051,0.8998,-0.7687,257.375
20:30:12:942,-0.7169,-0.5165,9.3615,41.9382,1.6008,0.8513,-0.7412,258.1719
20:30:12:966,-0.5553,-0.0281,6.9744,39.8257,1.9694,0.6684,-0.7689,259.3906
20:30:12:980,-0.8558,0.5812,5.0363,39.7597,1.9066,0.4079,-0.7969,260.2656
20:30:13:002,-1.3442,1.3294,4.4545,40.591,1.5513,0.0713,-0.7316,261.25
20:30:13:027,-1.5382,2.08,4.0415,39.6378,1.0565,-0.1801,-0.636,262.2969
20:30:13:046,-2.0206,2.6151,5.1872,39.1118,0.4024,-0.1951,-0.4757,263.25
20:30:13:062,-2.26,2.6761,7.4856,39.0536,-0.1537,-0.0992,-0.2957,264.1406
20:30:13:081,-2.2061,2.329,10.2234,37.5286,-0.4661,0.0052,-0.1372,264.7656
20:30:13:105,-2.1607,2.0321,12.1698,39.453,-0.4575,-0.0294,-0.1077,265.0938
20:30:13:122,-2.7245,1.9758,12.0382,40.1572,-0.4227,-0.3639,-0.191,265.1875
20:30:13:141,-2.9064,2.1135,12.0609,39.1615,-0.5191,-0.5245,-0.1993,265.1875
20:30:13:161,-3.7193,1.728,11.5761,39.294,-0.7079,-0.5903,-0.1394,265.2656
20:30:13:181,-3.5182,0.7751,11.7066,39.4014,-1.0724,-0.6606,0.0679,265.4375
20:30:13:208,-1.8757,-0.5632,14.5724,39.0491,-1.2386,-0.9157,0.1493,265.6719
20:30:13:223,-0.9252,-0.6411,15.754,38.8959,-0.682,-1.1732,-0.1034,265.9375
20:30:13:242,-1.4999,0.4495,12.936,39.7055,0.1997,-0.8819,-0.3583,266.125
20:30:13:261,-2.8226,1.4611,8.4229,39.9778,0.6698,0.1171,-0.305,266.125
20:30:13:281,-3.1638,1.9998,5.4888,39.0193,0.4258,1.2513,0.0199,266.1406
20:30:13:306,-2.5246,1.576,5.405,39.9045,-0.2485,1.7054,0.3065,266.6562
20:30:13:323,-2.0625,0.8769,7.1253,39.8065,-0.8573,1.1874,0.339,267.0156
20:30:13:340,-2.0984,0.6566,8.812,40.0084,-1.1049,0.2404,0.2766,266.8438
20:30:13:362,-1.877,0.6973,9.3148,38.9091,-1.004,-0.492,0.3075,266.25
20:30:13:379,-1.0462,0.92,8.9652,39.4129,-0.6828,-0.704,0.3744,265.6094
20:30:13:400,-0.1435,1.1797,7.834,39.7388,-0.2956,-0.4718,0.3805,265.1406
20:30:13:427,0.0001,1.3426,6.4824,40.2631,-0.0152,-0.0401,0.295,264.75
20:30:13:443,-0.7349,1.4311,5.921,39.9939,0.1167,0.3344,0.2268,264.3438
20:30:13:460,-1.3299,1.5389,6.6297,41.0383,0.2317,0.5192,0.2372,263.9375
20:30:13:480,-1.8255,1.661,7.0259,39.4498,0.4882,0.532,0.2982,263.5938
20:30:13:507,-2.1954,1.9315,6.3519,40.3992,0.6844,0.4646,0.4031,263.3281
20:30:13:530,-2.333,2.1805,5.9425,39.9864,0.6109,0.2806,0.5206,262.8594
20:30:13:541,-2.1966,2.2045,7.0989,39.7124,0.3308,0.001,0.6066,262.4688
20:30:13:570,-1.7608,2.305,9.4129,39.5323,0.1241,-0.419,0.6178,261.9844
20:30:13:579,-1.4855,2.6522,11.108,39.438,0.0948,-0.8193,0.5296,261.3594
20:30:13:601,-1.5238,2.7408,11.9939,40.2043,0.1294,-0.9668,0.4498,260.6875
20:30:13:623,-1.0988,2.8114,12.9336,40.5967,0.1387,-0.8949,0.3936,260.1406
20:30:13:641,-0.5913,2.7839,14.1427,40.6962,0.2322,-0.8025,0.2932,259.7344
20:30:13:660,-0.1783,3.0879,14.0541,39.3259,0.4498,-0.7575,0.1352,259.4062
20:30:13:682,-0.1387,3.3369,12.4476,39.6499,0.5132,-0.7535,0.0404,259.125
20:30:13:707,0.6657,3.0065,11.1763,41.8445,0.1734,-0.8041,0.0609,259.0156
20:30:13:724,1.9442,2.0189,11.7712,40.4455,-0.2815,-0.9074,0.0226,259.0781
20:30:13:746,2.848,1.1977,13.0341,40.8152,-0.4639,-1.0065,-0.1351,259.1719
20:30:13:760,3.431,1.1235,12.8043,41.7435,-0.3012,-0.9378,-0.3628,259.2344
20:30:13:781,3.0396,1.4443,10.8518,41.7435,-0.0977,-0.5418,-0.5849,259.3125
20:30:13:806,2.2602,1.6466,8.9568,42.1804,-0.1385,0.1592,-0.688,259.6094
20:30:13:826,1.3648,1.5963,8.4074,41.6649,-0.3571,0.9032,-0.726,260.1719
20:30:13:844,0.3856,1.1905,8.1488,42.7587,-0.5249,1.3118,-0.7804,261.2656
20:30:13:861,-0.5374,0.8134,8.4409,42.7587,-0.5473,1.3389,-0.8334,262
20:30:13:881,-1.2664,0.6279,8.618,43.2632,-0.3505,1.1062,-0.8408,262.6875
20:30:13:908,-1.5058,0.6147,8.3858,43.3442,0.0032,0.7624,-0.7964,263.375
20:30:13:923,-1.513,0.6004,7.5035,43.9519,0.3907,0.4646,-0.7383,264.1719
20:30:13:940,-1.1431,0.683,6.6368,43.5147,0.6887,0.2801,-0.6677,264.9844
20:30:13:960,-0.8187,0.7272,6.6464,43.9557,0.9393,0.2476,-0.6278,265.7656
20:30:13:981,-0.6619,0.9439,6.3064,42.4036,1.2221,0.3083,-0.5806,266.5625
20:30:14:006,-0.5075,1.3246,4.9825,44.0415,1.3542,0.4244,-0.5375,267.3281
20:30:14:024,-0.9109,1.892,4.239,46.3694,1.1505,0.5536,-0.4976,268.0781
20:30:14:041,-1.7034,2.3529,5.0351,45.0751,0.7473,0.5885,-0.3892,268.7344
20:30:14:060,-2.3306,2.5456,6.9864,45.0141,0.319,0.5317,-0.2155,269.375
20:30:14:080,-2.8514,2.6486,9.3339,45.0137,0.0333,0.34,-0.0746,269.8906
20:30:14:100,-3.9898,2.8329,11.4863,45.2377,-0.0674,0.1656,0.0394,270.1719
20:30:14:125,-5.2504,3.0101,12.7971,47.024,-0.0298,0.2215,0.2596,270.25
20:30:14:142,-5.2803,2.8545,13.2616,44.5734,0.0197,0.3094,0.6015,270.1719
20:30:14:160,-4.0904,2.4906,12.7313,47.3123,0.0165,0.0747,0.8636,269.8281
20:30:14:180,-2.7065,1.9256,12.1363,44.1042,-0.0575,-0.4438,0.9344,269.0938
20:30:14:206,-1.8602,1.5533,11.2301,45.6455,-0.1401,-0.7977,0.8596,268.0781
20:30:14:223,-1.294,1.5736,10.3395,46.8228,-0.2788,-0.7732,0.7667,267.1562
20:30:14:241,-0.6655,1.2731,10.6639,44.7234,-0.494,-0.6398,0.6703,266.3125
20:30:14:260,-0.031,0.6135,11.6754,46.8271,-0.5065,-0.6515,0.4886,265.5625
20:30:14:281,0.1737,0.422,11.6635,45.6129,-0.2613,-0.6369,0.2138,265.2031
20:30:14:309,-0.4392,1.0983,10.0282,47.0642,0.0509,-0.3442,-0.0318,264.625
20:30:14:383,-1.4628,1.8418,7.8375,45.9854,0.0839,0.2047,-0.0696,264.3125
20:30:14:384,-2.3031,2.0836,6.6704,47.1264,-0.273,0.7022,0.1022,264.3281
20:30:14:384,-2.0565,1.552,7.4545,46.6701,-0.7787,0.7493,0.3256,264.4375
20:30:14:385,-2.1642,1.3833,8.3547,45.9554,-1.1851,-0.5823,0.3563,263.9062
20:30:14:403,-2.339,1.7196,8.6121,47.6409,-0.9984,-1.1325,0.5251,263.0938
20:30:14:424,-1.6327,1.7436,7.8052,47.2936,-0.5997,-1.4526,0.6974,262.6875
20:30:14:443,-0.7469,1.8214,6.7314,47.9221,-0.183,-1.4787,0.7491,262.1875
20:30:14:461,-0.189,1.8573,5.599,47.7826,0.1249,-1.19,0.7464,261.5469
20:30:14:481,0.1306,1.9184,5.1584,47.8377,0.2336,-0.7556,0.7525,260.9219
20:30:14:506,0.4957,1.9651,5.5044,46.6653,0.2152,-0.4236,0.7829,260.2188
20:30:14:524,0.6573,1.8789,6.7326,48.394,0.1459,-0.2976,0.7826,260.2188
20:30:14:540,0.5771,1.8226,7.8842,47.894,0.0703,-0.2893,0.7896,259.4688
20:30:14:559,1.0631,1.673,9.4788,48.0005,-0.0413,-0.3615,0.7952,258.6719
20:30:14:580,1.9729,1.5054,11.1128,48.1969,-0.0381,-0.6656,0.6897,257.8125
20:30:14:602,2.4602,1.6825,11.606,47.7621,0.1057,-0.8971,0.4814,256.125
20:30:14:623,2.6888,2.1674,11.1834,47.9596,0.2375,-0.835,0.307,256.125
20:30:14:642,3.1533,2.5756,10.9871,48.9959,0.2623,-0.619,0.1906,255.4375
20:30:14:661,3.6106,2.7659,11.8407,47.2918,0.2471,-0.3508,0.0641,255.0156
20:30:14:681,4.032,2.7156,12.918,47.6077,0.2956,-0.0835,-0.1085,254.625
20:30:14:706,4.075,2.6893,13.2831,48.4589,0.4,0.0327,-0.3292,254.5938
20:30:14:725,4.1253,3.0125,12.5661,48.0188,0.4205,0.0273,-0.5151,254.5938
20:30:14:741,4.2474,3.1071,12.1196,48.1316,0.1992,-0.0113,-0.6541,254.8438
20:30:14:759,3.85,2.4092,13.3993,48.1098,-0.0533,-0.0105,-0.7948,255.0312
20:30:14:779,3.3293,1.6047,14.9244,49.5524,0.0146,0.0627,-0.9364,255.5781
20:30:14:801,3.1724,1.5281,14.2672,48.7677,0.4093,0.1323,-1.0824,256.3281
20:30:14:825,2.6972,2.001,11.0338,46.7006,0.7404,0.2425,-1.2126,257.1875
20:30:14:841,1.7371,2.5768,7.6771,48.4585,0.6261,0.45,-1.2328,258.25
20:30:14:859,0.777,2.6689,6.5052,49.9084,0.1065,0.6913,-1.104,259.4375
20:30:14:880,0.1797,2.1063,6.9241,48.8429,-0.4288,0.7682,-0.9335,260.75
20:30:14:900,-0.2764,1.3665,7.9991,49.727,-0.6964,0.6161,-0.8038,261.9844
20:30:14:925,-0.2932,0.9284,9.2357,49.565,-0.5774,0.345,-0.734,263.1094
20:30:14:941,-0.2465,0.9559,9.5614,48.2633,-0.1401,0.1664,-0.7471,264.0312
20:30:14:959,-0.7984,1.1953,8.6887,48.9106,0.3995,0.1773,-0.7516,265.2031
20:30:14:980,-1.0294,1.3868,7.2725,49.6668,0.8112,0.3368,-0.6592,266
20:30:14:999,-0.7912,1.5568,5.842,51.194,1.0224,0.4321,-0.5617,266.8438
20:30:15:023,-0.8139,1.6358,5.3308,49.7986,1.0493,0.3562,-0.4893,267.5938
20:30:15:042,-0.711,1.9243,4.9166,49.9953,1.0272,0.1453,-0.424,268.2188
20:30:15:068,-0.6511,2.2332,4.4162,49.822,0.8709,0.0199,-0.3535,268.7656
20:30:15:079,-0.705,2.4606,5.0148,50.2048,0.5798,0.0585,-0.2448,269.2344
20:30:15:100,-1.0126,2.3984,6.8224,49.5536,0.2922,0.1312,-0.0906,269.7031
20:30:15:127,-0.7002,2.4152,8.3954,50.2398,0.18,0.1096,0.0785,270.0781
20:30:15:144,-0.0382,2.4595,8.6899,49.7449,0.1068,-0.0124,0.1451,270.2656
20:30:15:163,0.1091,2.5301,8.9879,50.1836,-0.0636,-0.1205,0.1392,270.2344
20:30:15:179,-0.3219,2.4235,9.7517,49.7503,-0.2711,-0.0867,0.1515,270.0781
20:30:15:200,-0.9193,2.1626,10.8195,50.4855,-0.4509,0.0252,0.2047,269.9375
20:30:15:223,-1.215,1.6263,11.855,49.5561,-0.5364,0.0417,0.2636,269.8125
20:30:15:240,-1.1132,1.2468,11.9304,49.0165,-0.5076,-0.0731,0.2652,269.6094
20:30:15:261,-0.863,1.4228,11.181,50.1286,-0.5231,-0.1615,0.2484,269.4688
20:30:15:281,-0.8139,1.716,10.3383,51.2134,-0.7329,-0.2012,0.2665,268.9688
20:30:15:305,-0.6152,1.3797,10.8925,49.5482,-1.0943,-0.2819,0.3251,268.7031
20:30:15:324,-0.3878,0.8709,12.8929,49.4956,-1.2586,-0.3959,0.2953,268.4531
20:30:15:341,-0.4883,0.9547,14.1151,49.1397,-0.9742,-0.3732,0.173,268.1406
20:30:15:363,-1.033,1.6502,12.5194,49.7455,-0.4727,-0.0574,0.0886,267.8125
20:30:15:380,-1.5825,2.2631,9.6476,50.7456,-0.2754,0.446,0.1661,267.6094
20:30:15:401,-1.5645,2.2955,8.0255,49.9137,-0.4666,0.724,0.3517,267.5156
20:30:15:425,-1.209,1.9818,7.4389,50.9797,-0.776,0.6303,0.4665,267.3594
20:30:15:440,-0.8893,1.6335,7.385,51.273,-1.0038,0.3344,0.5235,266.9688
20:30:15:459,-0.0909,1.3641,7.7214,49.8022,-1.0264,0.0729,0.5083,266.3594
20:30:15:483,-0.0322,1.3126,8.1991,49.7732,-0.8392,-0.0254,0.4314,265.6875
20:30:15:507,-0.0681,1.4515,8.6671,49.7321,-0.4924,0.0095,0.3874,265.0625
20:30:15:525,-0.1675,1.7855,8.484,48.1292,-0.0349,0.0766,0.3568,264.5
20:30:15:540,-0.1663,2.0357,7.6939,50.686,0.3816,0.1442,0.3605,264.0156
20:30:15:567,-0.2214,2.3385,6.9876,50.8394,0.6285,0.1717,0.3885,263.3906
20:30:15:579,-0.2549,2.6091,6.7625,50.9917,0.7095,0.1267,0.4524,262.9844
20:30:15:600,-0.1124,2.8138,7.3407,51.0052,0.6503,0.0734,0.5193,262.5312
20:30:15:625,0.1785,2.9993,8.2338,49.2696,0.5166,-0.0558,0.5509,262.0469
20:30:15:641,0.2551,3.2411,9.2753,50.3101,0.3864,-0.2387,0.5312,261.4531
20:30:15:661,0.1426,3.392,10.4819,49.4338,0.2746,-0.4443,0.5105,260.8438
20:30:15:679,0.4909,3.3297,11.5174,49.4308,0.2165,-0.6401,0.5001,260.3125
20:30:15:700,0.9207,3.0017,12.596,49.2746,0.1952,-0.7224,0.4284,259.7969
20:30:15:725,1.0009,2.657,13.6459,50.0229,0.2594,-0.6712,0.3049,259.3281
20:30:15:741,1.0153,2.4032,13.944,48.5374,0.4234,-0.6065,0.1643,258.9531
20:30:15:759,0.9398,2.724,12.8019,48.5896,0.5579,-0.5855,0.0434,258.8281
20:30:15:779,1.2116,3.1885,11.4384,49.8906,0.4456,-0.5671,0.0263,258.6562
20:30:15:804,1.4354,3.1909,11.1176,50.4648,0.1084,-0.4094,0.0607,258.6406
20:30:15:824,1.5312,1.9351,12.7133,50.4647,-0.2288,-0.1141,0.14,258.6875
20:30:15:839,2.793,0.6291,14.2708,48.7968,-0.1635,-0.0574,0.079,258.7344
20:30:15:860,3.5256,0.5884,13.3298,49.8419,0.2479,-0.1719,-0.243,258.5938
20:30:15:880,2.9067,1.1259,10.3263,51.1937,0.5409,-0.0957,-0.5623,258.5156
20:30:15:899,1.8987,1.576,7.482,48.8513,0.38,0.2026,-0.6856,258.8125
20:30:15:926,0.2683,1.3007,7.968,49.4431,-0.4956,0.6167,-0.5276,259.4531
20:30:15:946,0.1988,0.7165,9.0059,49.8574,-0.5811,0.4689,-0.4547,260.1875
20:30:15:961,0.5484,0.5884,9.1113,50.4248,-0.3918,0.2175,-0.472,260.1875
20:30:15:981,0.6777,0.756,8.1907,49.9595,-0.1097,0.0702,-0.5649,261.2969
20:30:16:001,0.3197,1.145,7.2929,49.357,0.1137,0.194,-0.6334,261.75
20:30:16:028,-0.2082,1.4012,6.9313,50.2425,0.2943,0.4694,-0.6219,262.8594
20:30:16:044,-0.8415,1.497,6.9828,49.5459,0.4914,0.622,-0.5532,262.8594
20:30:16:060,-0.9025,1.6239,6.8212,50.322,0.7076,0.5922,-0.4576,263.5625
20:30:16:079,-0.7888,1.9327,6.17,51.0756,0.8418,0.455,-0.399,264.1562
20:30:16:100,-0.6954,2.3685,5.6468,49.448,0.8285,0.3576,-0.3418,264.9062
20:30:16:128,-0.6918,2.8054,5.3571,50.4886,0.6666,0.36,-0.2571,265.3125
20:30:16:145,-0.4596,3.1693,5.8839,50.345,0.4139,0.4183,-0.1465,265.6719
20:30:16:160,-0.3542,3.1203,6.9672,50.7366,0.1401,0.39,-0.0696,265.9688
20:30:16:179,-0.0621,3.2268,8.6755,50.6995,-0.0898,0.1751,-0.0488,266.0781
20:30:16:199,0.127,3.2914,9.9492,51.7783,-0.2717,-0.1082,-0.068,266.1719
20:30:16:226,0.121,3.4507,10.9835,50.5728,-0.4176,-0.2931,-0.0925,266.1719
20:30:16:243,-0.3315,3.4842,11.7652,50.7818,-0.5151,-0.2443,-0.0706,266.1875
20:30:16:259,-0.9612,3.0365,12.6307,51.8534,-0.5169,-0.063,0.0503,266.2656
20:30:16:278,-0.7038,2.4032,12.8582,50.1501,-0.4194,0.0135,0.1616,266.4219
20:30:16:299,-0.9109,1.9698,12.0513,49.8596,-0.4112,0.0137,0.213,266.5156
20:30:16:324,-1.015,1.5149,11.6228,51.6198,-0.6384,-0.0241,0.3059,266.4531
20:30:16:343,-1.0725,0.3861,12.9336,52.4925,-0.9587,-0.1796,0.4018,266.2344
20:30:16:359,-0.1459,-0.6398,14.8956,50.7306,-0.8623,-0.6012,0.3616,265.9844
20:30:16:380,0.3664,-0.5465,14.1702,51.3174,-0.2698,-0.9591,0.09,265.3906
20:30:16:458,-0.1364,0.4328,10.9105,51.3671,0.3174,-0.717,-0.1492,264.9375
20:30:16:459,-1.3347,1.26,7.5754,50.0733,0.4586,0.0244,-0.1662,264.7969
20:30:16:459,-1.8386,1.5329,6.2741,53.0154,0.1204,0.6971,0.0497,265
20:30:16:459,-1.4017,1.3414,6.9876,52.0732,-0.3289,0.7576,0.2162,265.2812
20:30:16:482,-1.282,1.2145,8.0925,52.9636,-0.5529,0.3067,0.2372,265.3125
20:30:16:498,-1.0246,1.3904,8.3236,52.7029,-0.4882,-0.2454,0.2306,264.9844
20:30:16:519,-0.4967,1.7556,7.6352,53.0478,-0.3076,-0.4864,0.2314,264.6094
20:30:16:540,-0.3578,2.0393,7.0534,51.671,-0.1318,-0.3319,0.2418,264.3438
20:30:16:559,-0.5961,2.2404,6.7901,51.3757,0.0349,-0.011,0.2985,264.125
20:30:16:579,-0.6727,2.2895,6.6009,51.833,0.1803,0.1946,0.3893,263.9219
20:30:16:600,-0.6547,2.2715,6.5327,51.9981,0.2717,0.2215,0.4649,263.6406
20:30:16:623,-0.6236,2.4008,6.4226,52.355,0.314,0.136,0.5158,263.2656
20:30:16:642,-0.6032,2.6665,6.2729,52.2915,0.2647,0.0159,0.5624,262.7344
20:30:16:660,-0.511,2.8317,6.583,52.9761,0.1316,-0.1077,0.6008,262.1562
20:30:16:680,-0.5565,3.0041,7.2869,53.3049,-0.0421,-0.2092,0.6359,261.2344
20:30:16:699,-0.3949,3.0029,8.5331,53.5469,-0.2067,-0.3109,0.6758,260.8906
20:30:16:724,-0.0382,2.9311,9.8978,52.5336,-0.3167,-0.4108,0.6878,260.2188
20:30:16:740,0.3353,2.7647,11.679,52.7423,-0.3675,-0.4648,0.6556,259.5
20:30:16:759,0.7316,2.6019,13.9404,53.0434,-0.2402,-0.5026,0.5557,258.8125
20:30:16:779,0.8034,2.5684,14.8681,54.4543,0.1065,-0.4907,0.4016,258.1094
20:30:16:799,0.9542,2.7875,14.187,53.545,0.429,-0.4214,0.2817,257.4844
20:30:16:824,1.5911,3.2184,12.8642,52.5672,0.5489,-0.4022,0.197,257.0469
20:30:16:840,2.2938,3.6362,11.7425,53.0793,0.3939,-0.3596,0.111,256.7188
20:30:16:858,2.6912,3.222,12.3315,53.976,0.0775,-0.1367,0.0455,256.5
20:30:16:879,2.8265,2.1961,14.2684,55.1308,-0.02,0.1847,-0.0272,256.375
20:30:16:898,3.4382,1.4659,14.8154,52.6255,0.3401,0.3437,-0.1702,256.3281
20:30:16:923,3.759,1.722,12.0597,52.2909,0.8197,0.369,-0.4238,256.3125
20:30:16:942,3.5196,2.4858,8.5773,53.0897,0.8349,0.4742,-0.6411,256.4219
20:30:16:959,2.5068,2.9191,7.0894,54.2732,0.3947,0.7072,-0.7452,256.8125
20:30:16:978,1.3995,2.6761,7.7681,52.2615,-0.1569,0.928,-0.7178,257.4531
20:30:16:999,0.6956,1.8597,9.3315,53.0156,-0.4479,0.9927,-0.6547,258.1094
20:30:17:024,0.3102,1.224,10.2258,51.6423,-0.3627,0.8854,-0.6704,258.75
20:30:17:041,0.0743,1.1666,9.0706,53.3658,-0.0581,0.6257,-0.7529,259.3125
20:30:17:059,-0.4129,1.2073,7.6735,53.8488,0.1404,0.3956,-0.8198,259.9062
20:30:17:081,-0.5649,1.1654,8.2948,52.1366,0.3164,0.3637,-0.8014,260.6094
20:30:17:099,-0.5817,0.9978,8.4169,53.5164,0.6927,0.4596,-0.7884,261.4844
20:30:17:123,-0.2728,0.908,7.7298,51.7642,1.1385,0.5821,-0.7945,261.9219
20:30:17:142,-0.3411,1.1474,5.9461,52.156,1.4568,0.6236,-0.84,262.7812
20:30:17:158,-0.6356,1.588,4.4198,53.6429,1.4927,0.5656,-0.8382,263.5781
20:30:17:179,-0.8271,2.165,3.6178,51.0354,1.2882,0.402,-0.7702,264.4844
20:30:17:199,-0.6739,2.8473,3.6106,51.5197,0.9569,0.2284,-0.6845,265.4375
20:30:17:223,-1.1132,3.2879,4.2618,53.8428,0.5342,0.2018,-0.6129,266.3281
20:30:17:240,-1.7584,3.4518,6.2741,53.3127,0.1257,0.2625,-0.4573,267.5938
20:30:17:258,-2.1702,3.3441,8.9329,53.6042,-0.073,0.1898,-0.2685,268.2969
20:30:17:279,-1.7094,3.4207,11.4779,52.0573,0.0024,-0.011,-0.1082,268.7344
20:30:17:299,-1.1359,3.817,11.1667,52.4324,0.1702,-0.3066,-0.1111,268.9844
20:30:17:323,-2.0194,4.5352,11.3295,51.7381,-0.2503,-0.3887,-0.1753,269.1094
20:30:17:340,-3.0764,4.1713,12.2405,52.412,-0.3651,-0.0939,-0.122,269.3281
20:30:17:359,-4.0928,3.7811,11.7078,54.0071,-0.42,0.1128,-0.0094,269.9375
20:30:17:379,-4.3094,3.313,10.288,52.9525,-0.6533,-0.0446,0.1925,270.0625
20:30:17:400,-3.2668,2.2799,9.8068,52.2855,-1.1348,-0.4909,0.4226,270
20:30:17:421,-1.5418,0.6518,11.952,52.2016,-1.4868,-1.0249,0.4836,270
20:30:17:440,-0.2764,-0.1347,13.5657,51.2965,-1.256,-1.3298,0.2868,269.7188
20:30:17:458,-0.4153,0.4028,12.8055,51.8423,-0.5931,-1.08,-0.0136,269.2344
20:30:17:479,-1.5681,1.418,9.9373,53.0387,-0.028,-0.3274,-0.1098,268.7969
20:30:17:500,-2.0314,2.0548,7.2653,51.5702,0.0085,0.4351,0.0529,268.8438
20:30:17:524,-1.7309,2.0488,6.4262,51.0707,-0.371,0.5858,0.2348,268.9688
20:30:17:542,-1.1719,1.7927,7.3228,51.7122,-0.7587,0.1307,0.279,269.0312
20:30:17:559,-0.9252,1.8453,8.229,52.0417,-0.8394,-0.399,0.2399,268.6875
20:30:17:578,-0.5661,2.311,8.1619,52.9123,-0.641,-0.5703,0.1962,268.4688
20:30:17:601,-1.2317,2.9311,7.8938,51.6338,-0.3233,-0.3399,0.1145,268.0781
20:30:17:628,-2.266,3.2914,7.8723,51.4612,0.0298,0.0284,0.1888,267.8438
20:30:17:644,-1.8913,3.398,7.4401,50.2775,0.4187,0.2686,0.4117,267.6719
20:30:17:661,-1.1335,3.3238,5.8743,50.3865,0.6461,0.2817,0.5326,267.5781
20:30:17:678,-0.8881,3.3178,5.3069,50.8419,0.5997,0.1128,0.5728,267.375
20:30:17:698,-0.7912,3.2424,5.8001,51.0086,0.4607,-0.0249,0.617,266.8906
20:30:17:725,-0.7409,3.1705,7.0905,51.8175,0.3483,-0.0499,0.662,266.25
20:30:17:742,-0.6248,3.1155,8.2086,50.3807,0.3475,-0.0315,0.6905,265.6094
20:30:17:761,-0.6571,3.1657,8.721,51.7841,0.3766,0.0287,0.7091,264.2344
20:30:17:778,-0.4704,3.1131,9.3459,51.5437,0.351,0.0942,0.74,263.8594
20:30:17:802,-0.0095,3.1047,10.0486,50.3449,0.3095,0.0409,0.7262,263.1094
20:30:17:823,0.443,3.2448,10.616,50.5078,0.2581,-0.0707,0.6569,262.2812
20:30:17:840,0.6549,3.4435,11.4348,51.4453,0.1923,-0.0829,0.5608,261.4219
20:30:17:858,0.9542,3.4135,12.4679,50.6461,0.1819,-0.0166,0.4724,260.6406
20:30:17:878,1.5803,3.3728,13.1419,50.6461,0.2802,-0.0163,0.3387,260
20:30:17:899,2.1657,3.7188,12.2525,51.4659,0.4301,-0.0558,0.1419,259.4375
20:30:17:923,2.4195,4.309,10.8674,50.475,0.3342,-0.0209,-0.0541,258.9688
20:30:17:941,2.277,4.2348,11.1535,49.5534,0.0112,0.0327,-0.2065,258.7188
20:30:17:957,1.8185,3.6805,12.6427,50.0497,-0.167,0.0774,-0.3455,258.6875
20:30:17:978,1.5252,3.3944,13.0401,50.4099,-0.0248,0.1128,-0.4624,258.8438
20:30:17:999,1.378,3.4554,11.1667,50.1425,0.179,0.1325,-0.5695,259.125
20:30:18:028,0.8106,3.6302,8.9389,49.3589,0.1052,0.1964,-0.6517,259.5625
20:30:18:044,-0.0166,3.6027,7.8316,49.4372,-0.2218,0.2992,-0.6286,260.1406
20:30:18:058,-0.8594,2.9886,7.1672,49.4705,-0.6099,0.3094,-0.545,260.8125
20:30:18:079,-1.0857,2.0991,7.8447,48.5955,-0.9212,0.164,-0.4142,261.125
20:30:18:099,-0.6523,1.3366,8.5941,49.6996,-0.9263,-0.0941,-0.3769,262.0469
20:30:18:126,-0.4392,1.0373,8.5594,48.6339,-0.698,-0.2811,-0.443,262.5
20:30:18:139,-0.5362,0.9774,8.1021,46.0731,-0.3654,-0.271,-0.5228,262.8438
20:30:18:158,-0.76,0.9858,7.6376,48.0045,-0.0237,-0.0728,-0.5537,263.3125
20:30:18:178,-0.8115,1.0469,7.5131,46.0669,0.3372,0.1911,-0.5862,263.8906
20:30:18:199,-1.4077,1.3102,6.9541,46.5393,0.6892,0.324,-0.6403,264.5469
20:30:18:224,-2.2672,1.7388,6.2202,45.4609,0.9191,0.3144,-0.6227,265.1562
20:30:18:240,-2.8586,2.226,5.3667,46.8605,0.9598,0.2758,-0.4531,265.8281
20:30:18:258,-2.9472,2.5504,4.9561,47.5252,0.8037,0.279,-0.1881,266.5625
20:30:18:278,-2.6084,2.827,5.6265,44.1338,0.5377,0.3496,0.0916,267.1719
20:30:18:298,-2.0254,2.9287,6.3998,44.9929,0.2618,0.397,0.3219,267.5625
20:30:18:317,-1.27,2.9742,7.6735,45.8733,-0.0578,0.3392,0.4852,267.5938
20:30:18:339,-0.7086,3.0891,9.3674,45.6048,-0.3571,0.2276,0.543,267.3125
20:30:18:360,-0.3901,3.0807,11.3558,45.9482,-0.5321,0.1418,0.5443,266.4219
20:30:18:378,-0.1364,3.0077,12.2788,46.2295,-0.5489,0.1184,0.4756,265.7031
20:30:18:398,-0.1555,2.9108,12.3829,43.8262,-0.5715,0.12,0.3544,265.0469
20:30:18:425,-0.6344,2.7037,12.0705,44.1781,-0.644,0.0976,0.2058,264.4219
20:30:18:441,-1.4867,2.4726,11.4444,42.0555,-0.8056,0.0907,0.1145,263.9375
20:30:18:458,-1.7943,2.056,11.3187,43.8247,-1.0741,0.0401,0.1368,263.6406
20:30:18:524,-1.5453,1.1953,12.274,43.669,-1.3082,-0.108,0.1517,263.4219
20:30:18:524,-1.598,0.4735,13.4376,42.7447,-1.224,-0.2688,0.0348,263.1719
20:30:18:524,-2.5425,0.7045,13.501,42.5966,-0.7856,-0.2446,-0.0773,262.9062
20:30:18:539,-3.833,1.3473,11.1763,43.0655,-0.2554,0.103,0.0215,262.8125
20:30:18:560,-4.1347,1.7089,7.9285,42.2013,-0.2128,0.5922,0.3499,262.8438
20:30:18:583,-3.171,1.2516,7.3946,43.0926,-0.6615,0.7371,0.6767,262.8906
20:30:18:597,-1.9991,0.5225,9.0933,42.0325,-1.0333,0.3232,0.7792,262.6406
20:30:18:618,-1.3921,0.3178,10.2246,41.2299,-0.992,-0.28,0.7142,261.9062
20:30:18:640,-1.3358,0.7057,9.7062,41.7916,-0.6589,-0.6164,0.6743,260.8906
20:30:18:658,-1.0402,0.914,8.4457,43.1711,-0.2977,-0.4904,0.7187,259.5
20:30:18:683,-0.4524,1.1558,7.1875,41.4773,-0.0266,-0.112,0.7834,258.7969
20:30:18:697,0.0564,1.0708,6.7159,41.5832,0.1569,0.1261,0.7568,258
20:30:18:720,-0.5146,1.3402,5.8492,40.7728,0.465,0.0926,0.5214,257.1094
20:30:18:743,-1.5837,1.6706,5.6193,39.8107,0.5337,0.2026,0.4868,255.5625
20:30:18:759,-2.679,2.2452,5.7271,39.8924,0.5169,0.418,0.5507,255.5625
20:30:18:788,-3.2787,2.3326,6.9182,40.8799,0.4285,0.5325,0.7206,254.9844
20:30:18:802,-3.3278,2.5085,8.296,39.6249,0.3971,0.4694,0.8804,253.8125
20:30:18:819,-2.6491,2.7228,9.3387,41.43,0.3531,0.1373,1.0452,253.8125
20:30:18:841,-0.772,3.0688,9.4381,39.5961,0.2229,-0.4358,1.1006,251.8906
20:30:18:857,0.8141,3.2627,10.0246,39.5294,-0.021,-1.0065,0.9592,251.8906
20:30:18:878,1.4666,3.1633,11.4456,39.5052,-0.2208,-1.3053,0.7334,250.7656
20:30:18:899,2.2938,3.0412,12.9025,38.813,-0.2005,-1.251,0.5603,248.6562
20:30:18:925,3.4717,2.7982,13.2233,38.8441,-0.0429,-0.9322,0.3669,248.3438
20:30:18:943,4.4509,2.7791,13.0425,37.5816,0.0948,-0.6334,0.0713,247.8125
20:30:18:960,4.2043,3.0281,12.2644,39.0686,0.0948,-0.4116,-0.2749,247.4375
20:30:18:977,3.2431,2.9383,12.8055,36.7834,-0.0871,-0.0813,-0.4967,247.2969
20:30:19:007,2.5188,2.3457,14.4228,37.4863,-0.1358,0.2891,-0.5908,247.3438
20:30:19:024,2.1022,1.8824,15.1817,37.0709,0.1473,0.4694,-0.7021,247.7188
20:30:19:042,1.2307,2.2392,13.0557,37.0709,0.5832,0.455,-0.8533,248.3125
20:30:19:060,-0.0873,2.8485,9.4812,37.803,0.6772,0.4438,-0.9215,248.9375
20:30:19:077,-2.041,3.2867,7.0079,37.1394,0.3097,0.4604,-0.8331,249.6406
20:30:19:105,-3.335,3.119,6.2071,38.3041,-0.3092,0.4034,-0.4962,250.5469
20:30:19:125,-2.7927,2.0417,7.2186,38.8839,-0.8836,0.0827,-0.0738,251.5469
20:30:19:143,-1.009,0.8817,9.4584,37.096,-1.0639,-0.4595,0.1355,252.3906
20:30:19:159,0.6394,0.3645,10.1276,38.1418,-0.7577,-0.8339,0.0639,252.875
20:30:19:176,1.3887,0.5142,9.1196,37.4853,-0.2975,-0.7884,-0.1625,252.9062
20:30:19:197,1.117,0.7668,8.1512,37.9812,0.0764,-0.3349,-0.358,252.7656
20:30:19:219,0.5304,0.9918,7.8375,38.308,0.4386,0.2731,-0.4224,252.9219
20:30:19:241,0.3293,1.0373,7.0546,37.3659,0.8192,0.7078,-0.4158,253.3125
20:30:19:260,0.4107,1.0648,6.0694,37.4931,1.0613,0.8654,-0.4331,253.7656
20:30:19:277,0.1665,1.2564,5.4409,37.6264,1.089,0.773,-0.4874,254.1719
20:30:19:297,-0.4225,1.5377,5.8192,38.0023,0.9806,0.5389,-0.5303,254.5625
20:30:19:317,-1.0737,1.8525,6.747,37.3455,0.8557,0.3035,-0.5045,254.9844
20:30:19:342,-1.2999,1.9938,7.9333,36.2666,0.7689,0.1584,-0.4086,255.4844
20:30:19:358,-1.0438,2.1458,8.7665,38.1996,0.7057,0.0492,-0.3122,256.0781
20:30:19:378,-0.6595,2.384,9.5458,38.311,0.6179,-0.0044,-0.2573,256.6094
20:30:19:398,-0.5314,2.5229,9.5123,37.6078,0.5031,-0.0073,-0.2682,257.0312
20:30:19:420,-0.8019,2.4678,9.6763,35.4885,0.2722,0.067,-0.2952,257.3906
20:30:19:443,-1.2054,2.0883,10.2473,37.3539,0.0099,0.14,-0.3194,257.7188
20:30:19:459,-1.8279,1.6023,11.3127,37.2168,-0.1249,0.1757,-0.4001,258.0469
20:30:19:477,-2.831,1.5652,11.0158,39.7322,-0.0858,0.1424,-0.4826,258.3906
20:30:19:499,-3.5385,1.8944,9.1783,38.1278,-0.2,0.0582,-0.4368,258.5625
20:30:19:525,-3.8414,1.8789,8.1141,37.0815,-0.6855,-0.0289,-0.2472,259.2188
20:30:19:543,-3.3973,0.9152,9.8726,36.76,-1.2634,-0.1756,-0.0155,259.7031
20:30:19:559,-2.6634,-0.0449,13.2185,37.2181,-1.3604,-0.3458,0.0396,260.0781
20:30:19:577,-2.5952,0.0413,13.9308,37.0433,-0.8253,-0.3391,-0.068,260.1406
20:30:19:598,-3.5074,0.7943,10.6016,36.1033,-0.2919,0.0585,-0.088,260.0469
20:30:19:618,-4.1239,1.3964,7.7645,37.492,-0.3878,0.5685,0.1272,260.0156
20:30:19:644,-3.669,1.2216,7.9453,37.4565,-0.8645,0.6321,0.3978,260.1406
20:30:19:659,-2.922,0.8936,9.1699,37.2582,-1.139,0.2146,0.5187,260.0625
20:30:19:677,-1.9691,1.0385,9.4608,36.3165,-1.048,-0.3386,0.5286,259.5938
20:30:19:697,-1.197,1.558,8.4576,36.7115,-0.7534,-0.635,0.4862,258.8906
20:30:19:717,-1.0054,1.8956,7.4114,37.9416,-0.4642,-0.5477,0.4596,258.1875
20:30:19:742,-1.0198,2.2476,7.0259,37.9482,-0.2205,-0.207,0.5043,257.625
20:30:19:762,-1.0043,2.3373,6.6117,37.4012,0.0141,0.0833,0.5802,257.125
20:30:19:777,-0.5996,2.3673,6.2107,35.7411,0.1673,0.0809,0.6319,256.3125
20:30:19:796,-0.365,2.6594,5.909,36.4726,0.2037,-0.0744,0.6071,255.6719
20:30:19:817,-0.5135,2.7456,6.5195,37.5853,0.1188,-0.1961,0.6023,254.9531
20:30:19:838,-0.5099,2.7527,7.9836,38.1872,0.0796,-0.222,0.6157,254.2812
20:30:19:856,-0.6607,2.7827,9.1532,38.494,0.1656,-0.1991,0.6279,253.6562
20:30:19:878,-0.5027,2.9084,9.2884,37.6312,0.2621,-0.2137,0.6543,252.9844
20:30:19:899,-0.0071,3.0891,9.547,39.254,0.2298,-0.3005,0.6468,252.2969
20:30:19:927,0.3449,3.0843,10.4436,38.4864,0.1329,-0.4552,0.5677,251.5781
20:30:19:944,0.5292,3.0125,12.0441,38.4864,0.0895,-0.5434,0.458,250.9219
20:30:19:961,0.6956,2.7815,13.5704,38.8393,0.192,-0.5298,0.3168,250.625
20:30:19:979,0.5663,2.6007,14.4743,37.461,0.4061,-0.4323,0.1576,250.1094
20:30:19:998,0.6454,2.7097,13.9296,37.6022,0.6607,-0.39,0.0223,249.7656
20:30:20:017,0.9614,3.1765,11.9975,38.364,0.7268,-0.4393,-0.0922,249.5781
20:30:20:042,1.1266,3.5548,10.7585,39.0391,0.4416,-0.4033,-0.1521,249.5312
20:30:20:061,1.4031,3.0628,11.1188,37.8913,-0.0453,-0.3748,-0.1495,249.75
20:30:20:077,1.7,2.2751,12.7732,38.0864,-0.3491,-0.6457,-0.2248,249.9844
20:30:20:098,1.6473,1.9974,13.0294,36.7226,-0.3174,-0.9823,-0.3234,250.2344
20:30:20:118,1.7658,1.813,9.8834,39.3737,-0.2706,-1.124,-0.3684,250.5938
20:30:20:142,1.3828,1.3318,10.9931,40.1698,-0.7033,-0.4883,-0.3503,251.0938
20:30:20:157,1.3313,0.6949,12.0573,38.8012,-0.5499,0.0886,-0.3042,251.7031
20:30:20:178,1.202,0.4459,11.1379,38.1689,-0.1158,0.4665,-0.345,252.3125
20:30:20:198,0.8357,0.5202,8.9077,39.9117,0.2818,0.5224,-0.4355,253.1562
20:30:20:217,0.4909,0.7967,6.8906,39.3674,0.5057,0.3847,-0.5114,253.1562
20:30:20:243,0.0791,1.0289,5.4613,39.6583,0.5806,0.1999,-0.5447,253.4844
20:30:20:257,-0.0011,1.1067,5.5104,40.0222,0.5611,0.0737,-0.5215,253.8906
20:30:20:278,-0.0394,1.0924,6.2502,40.4268,0.6538,0.0545,-0.4973,254.4062
20:30:20:297,0.0348,1.1522,6.2861,38.8195,0.8506,0.104,-0.4608,255.5625
20:30:20:319,0.2563,1.3773,6.0108,40.3342,0.9734,0.1666,-0.4182,256.0781
20:30:20:345,0.3461,1.503,5.976,40.137,0.983,0.2367,-0.3854,256.3438
20:30:20:361,0.3365,1.6873,5.9856,41.7097,0.8485,0.3469,-0.3497,257.0156
20:30:20:379,0.2144,1.7699,6.984,41.8885,0.6322,0.4111,-0.2975,257.2188
20:30:20:397,0.3437,1.9076,7.9165,41.2009,0.5023,0.3837,-0.264,257.5625
20:30:20:417,0.1665,2.3266,7.8651,41.8077,0.3902,0.328,-0.2733,257.7188
20:30:20:444,-0.1567,2.7324,7.5598,41.9967,0.1486,0.3168,-0.2302,257.9688
20:30:20:460,-0.304,2.8521,7.9872,41.4615,-0.1926,0.3219,-0.1324,258.1875
20:30:20:478,-0.0083,2.6965,8.9712,42.6891,-0.5276,0.352,-0.0701,258.4375
20:30:20:497,-0.2249,2.2607,10.8878,42.4607,-0.7739,0.3802,-0.122,258.625
20:30:20:517,-1.1671,1.9064,12.0956,44.0645,-0.7798,0.3512,-0.1942,258.7031
20:30:20:543,-1.4675,1.6406,11.3905,43.3616,-0.7987,0.3371,-0.1564,258.6875
20:30:20:608,-1.4532,1.2755,11.0422,43.7374,-1.0386,0.2681,-0.1098,258.7188
20:30:20:609,-1.5573,0.6482,12.5661,43.6943,-1.347,0.1102,-0.0592,258.8281
20:30:20:609,-1.1946,-0.0413,14.922,45.5369,-1.3055,-0.0904,-0.0618,258.9062
20:30:20:622,-1.3658,0.1263,15.3338,43.2566,-0.7982,-0.203,-0.1966,258.9219
20:30:20:643,-2.3366,1.0241,12.2189,45.7265,-0.2413,0.0012,-0.256,258.9062
20:30:20:658,-3.2943,1.7436,8.8515,45.3117,-0.2115,0.4257,-0.0967,259
20:30:20:676,-3.1794,1.7208,7.7154,48.1159,-0.6061,0.5695,0.1704,259.2969
20:30:20:697,-2.5737,1.4527,7.8004,46.1298,-1.0109,0.2502,0.3416,259.4844
20:30:20:717,-1.8602,1.333,8.2852,46.5157,-1.1963,-0.2387,0.4151,259.3594
20:30:20:741,-1.3478,1.3509,8.5762,45.1208,-1.0879,-0.4757,0.4268,258.9375
20:30:20:758,-1.2425,1.4874,8.3164,45.0697,-0.751,-0.2776,0.4559,258.4219
20:30:20:776,-1.4604,1.558,7.8986,47.5564,-0.4093,0.2153,0.5161,257.9219
20:30:20:798,-1.8494,1.4371,8.1883,46.258,-0.1217,0.5504,0.5986,257.4375
20:30:20:818,-1.6962,1.3258,8.6288,46.3137,0.2072,0.5126,0.6868,256.8594
20:30:20:843,-1.2102,1.3869,7.8806,47.1028,0.5401,0.2082,0.6974,256.1875
20:30:20:858,-1.1,1.6993,6.3902,46.6835,0.6714,-0.1066,0.6753,255.4375
20:30:20:876,-0.9528,2.1195,5.9569,47.3364,0.5875,-0.2129,0.6822,254.625
20:30:20:897,-1.3083,2.3924,6.7003,48.24,0.4464,-0.1178,0.7142,254.2344
20:30:20:917,-1.6411,2.2583,8.4133,47.6929,0.3577,0.0436,0.8221,253.1875
20:30:20:942,-1.2437,2.0464,10.2485,48.4435,0.3963,0.0596,0.9288,252.4375
20:30:20:959,-0.201,2.0776,10.95,47.9661,0.5196,-0.1668,0.9246,251.5938
20:30:20:976,0.4837,2.3158,10.4879,48.0231,0.5422,-0.5141,0.785,250.5938
20:30:20:997,0.7148,2.5504,10.9081,48.2167,0.3949,-0.696,0.645,249.5781
20:30:21:017,0.8118,2.6606,12.2117,48.6669,0.3292,-0.6355,0.5435,248.6562
20:30:21:042,0.9315,2.6893,12.9623,48.667,0.4085,-0.4725,0.4484,247.9531
20:30:21:060,0.9015,2.9898,12.529,47.9903,0.5175,-0.4307,0.3278,247.4219
20:30:21:076,0.5424,3.1023,11.8837,48.1478,0.4424,-0.3879,0.2665,246.9375
20:30:21:096,0.2515,2.9898,12.1567,48.5952,0.2381,-0.2749,0.2716,246.5625
20:30:21:117,0.3018,2.4786,13.0258,48.9556,0.0746,-0.2084,0.2894,246.2969
20:30:21:142,0.637,2.0273,13.5836,49.2987,0.0927,-0.3098,0.2503,246.0625
20:30:21:159,1.1098,1.8908,12.6726,50.1259,0.2591,-0.4331,0.1754,245.7812
20:30:21:176,1.3959,1.9902,10.5119,50.2528,0.3225,-0.3514,0.0868,245.5
20:30:21:197,1.1781,2.0022,8.7234,48.2731,0.0594,-0.121,0.0162,245.2656
20:30:21:217,0.6501,1.5425,9.0765,48.7532,-0.3888,0.1152,0.005,245.2188
20:30:21:244,0.5843,1.0672,10.3526,47.9854,-0.5872,0.1855,-0.031,245.2188
20:30:21:262,0.4526,0.9715,10.604,49.8862,-0.4267,0.1538,-0.1308,245.2031
20:30:21:278,0.3461,1.181,9.6128,49.1615,-0.0764,0.1629,-0.2222,245.2188
20:30:21:296,0.2108,1.5101,7.8555,48.5036,0.2304,0.2934,-0.2749,245.3594
20:30:21:317,0.145,1.7208,6.595,49.0179,0.3529,0.4398,-0.268,245.5781
20:30:21:342,0.2144,1.922,6.6823,51.2297,0.4157,0.5014,-0.252,245.8438
20:30:21:360,0.0588,2.0417,6.4142,49.9125,0.5265,0.4577,-0.2334,246.0781
20:30:21:377,0.1354,2.1877,6.0551,50.1327,0.547,0.3416,-0.1753,246.2812
20:30:21:396,0.3664,2.2081,6.1472,49.8651,0.4447,0.1605,-0.1191,246.4688
20:30:21:417,0.8333,2.0608,7.7777,50.7723,0.3681,-0.023,-0.0853,246.5469
20:30:21:446,1.1589,2.1326,8.5702,51.5102,0.4967,-0.1021,-0.1295,246.6719
20:30:21:461,1.1242,2.3936,8.9066,49.6943,0.599,0.03,-0.1543,246.7656
20:30:21:476,0.8141,2.4367,9.6679,50.6061,0.6147,0.2244,-0.1348,246.8906
20:30:21:496,0.5005,2.7312,10.5538,51.3457,0.6519,0.328,-0.0834,247.1719
20:30:21:519,-1.3299,2.9,9.1232,52.4507,0.7025,0.4505,0.2018,247.2812
20:30:21:543,-1.4137,2.8868,8.2613,51.2804,0.4871,0.6066,0.4806,247.3281
20:30:21:559,-0.5134,2.6115,7.5778,52.0261,0.1153,0.5323,0.5975,247.25
20:30:21:576,-0.4464,2.4846,8.4026,52.2094,-0.3289,0.0849,0.4641,246.9375
20:30:21:597,-1.6112,2.3637,9.6691,51.6403,-0.6378,-0.203,0.3552,245.4844
20:30:21:616,-2.4899,2.2248,10.3706,51.9938,-0.784,-0.0928,0.4063,244.9219
20:30:21:641,-3.0477,1.5101,10.7477,51.867,-0.9137,0.1922,0.5451,244.9219
20:30:21:661,-2.2983,0.8386,11.7772,51.1394,-0.9848,0.2372,0.6284,244.5469
20:30:21:676,-1.4831,0.6662,12.3853,52.6713,-0.8346,-0.0137,0.5011,244.0781
20:30:21:695,-0.936,1.011,11.6371,52.4035,-0.5252,-0.1663,0.295,243.3906
20:30:21:717,-1.1204,1.4754,10.0462,53.5904,-0.2306,0.1027,0.1083,242.6406
20:30:21:738,-1.9476,2.007,8.4732,51.9347,-0.1052,0.56,0.0487,241.8594
20:30:21:760,-2.5533,2.3182,7.4796,53.7409,-0.1734,0.8471,0.1547,241.6406
20:30:21:779,-2.1403,2.3098,6.8978,52.4479,-0.3843,0.7504,0.3248,241.5156
20:30:21:800,-1.1659,2.0069,7.3587,51.9085,-0.6112,0.3349,0.4106,241.2812
20:30:21:815,-0.4727,1.7496,8.2841,50.9054,-0.6221,-0.0494,0.3933,240.8438
20:30:21:836,-0.1699,1.649,8.6336,53.3935,-0.3822,-0.0963,0.3536,240.2812
20:30:21:858,-0.2405,1.6382,8.2242,51.6567,-0.0546,0.136,0.3446,240.0312
20:30:21:878,0.0648,1.6981,7.2988,52.6607,0.2061,0.3112,0.3677,239.5625
20:30:21:896,0.6501,1.8058,6.2789,54.4594,0.3356,0.2585,0.3421,239.1562
20:30:21:916,1.1194,2.0895,5.405,52.9882,0.3518,0.1283,0.2383,238.7656
20:30:21:937,1.2176,2.5947,5.0244,52.7192,0.2717,0.0798,0.103,238.2969
20:30:21:961,0.6442,3.2112,5.4529,52.6989,0.1145,0.2132,-0.0155,237.875
20:30:21:978,-0.2525,3.6889,6.9134,53.4187,-0.0639,0.4146,-0.0437,237.6094
20:30:21:996,-0.7361,3.8876,9.3495,53.4187,-0.1545,0.5206,0.0159,237.4844
20:30:22:017,-0.6032,3.8529,11.3762,52.2655,-0.0932,0.3501,0.0436,237.4844
20:30:22:044,-0.365,3.8744,12.3518,51.205,-0.0003,-0.0289,-0.0163,237.4062
20:30:22:062,-0.2585,4.0193,13.2808,54.0048,0.0613,-0.3671,-0.1114,237.2812
20:30:22:083,-0.2178,4.0492,14.2157,52.7138,0.2594,-0.5245,-0.1937,237.2188
20:30:22:097,-0.2788,4.036,14.1546,54.5619,0.5878,-0.4478,-0.2448,237.3281
20:30:22:124,-0.3315,4.2372,12.9037,53.2922,0.8168,-0.3279,-0.2422,237.5781
20:30:22:136,0.291,4.2455,10.8878,51.5796,0.6815,-0.3721,-0.1657,237.9531
20:30:22:160,1.0512,3.7164,10.7752,52.2177,0.1768,-0.4643,-0.1809,238.3594
20:30:22:179,0.4849,2.7863,13.0784,52.7308,-0.1952,-0.517,-0.3311,238.6719
20:30:22:197,0.1318,2.3661,14.6227,51.4581,-0.0165,-0.5469,-0.4509,238.9531
20:30:22:215,0.4742,2.6175,12.7253,51.7751,0.4687,-0.484,-0.5348,239.3281
20:30:22:237,0.7375,2.9539,9.2836,51.5216,0.6938,-0.2608,-0.5886,239.8906
20:30:22:260,0.4658,2.8485,6.7266,52.9726,0.4764,0.0532,-0.603,240.5312
20:30:22:286,-0.0358,2.3733,6.0598,51.9916,-0.0514,0.3014,-0.5697,241.2812
20:30:22:295,-0.025,1.7448,6.3531,51.2595,-0.5814,0.2137,-0.5407,241.6562
20:30:22:317,0.0241,1.2612,7.3192,51.178,-0.9334,-0.1053,-0.5833,242.625
20:30:22:337,-0.0657,1.0696,8.5474,52.3164,-0.9571,-0.361,-0.6438,243.1719
20:30:22:361,-0.1986,1.0708,8.9042,51.6742,-0.7156,-0.3133,-0.6789,243.75
20:30:22:377,-0.3638,1.0864,9.2034,50.8871,-0.3947,0.0622,-0.6691,244.4219
20:30:22:402,-0.3985,1.0481,9.7888,51.9535,0.0309,0.4148,-0.6669,245.2188
20:30:22:415,-0.6978,1.1247,9.3016,51.6084,0.5044,0.4755,-0.7061,246.0156
20:30:22:437,-1.1826,1.5066,8.1787,50.6336,0.861,0.34,-0.7173,246.7031
20:30:22:458,-1.2353,2.0273,6.6632,50.3741,0.984,0.1581,-0.6539,247.3906
20:30:22:475,-1.1862,2.548,5.8204,51.0872,0.8456,-0.0126,-0.5655,248.1875
20:30:22:496,-1.0821,2.9096,6.2346,49.5226,0.6011,-0.1868,-0.4677,249
20:30:22:517,-1.1144,3.0173,7.4221,49.9812,0.4256,-0.2576,-0.3777,249.7188
20:30:22:541,-1.0629,2.9311,8.6073,51.0092,0.3878,-0.1775,-0.2893,250.375
20:30:22:560,-1.1694,2.8665,9.5003,50.1255,0.4309,-0.0174,-0.2254,250.9375
20:30:22:576,-1.5166,2.6294,9.7924,48.1836,0.474,0.1493,-0.1711,251.5625
20:30:22:596,-1.8063,2.4571,9.6727,49.551,0.4083,0.2436,-0.1167,251.8594
20:30:22:687,-1.9943,2.3218,9.6871,49.9961,0.2306,0.226,-0.0898,252.0469
20:30:22:688,-2.2385,2.311,10.4341,49.1572,0.0277,0.1469,-0.1077,252.1562
20:30:22:688,-2.8622,2.4271,11.193,49.1211,-0.0139,0.1142,-0.1399,252.2188
20:30:22:688,-3.7157,2.5528,10.5562,48.727,0.0085,0.2409,-0.0816,252.3125
20:30:22:694,-3.8785,2.39,9.304,48.6225,-0.1734,0.4082,0.1147,252.4531
20:30:22:716,-3.3566,1.4778,9.4488,47.6953,-0.5665,0.3235,0.2854,252.4844
20:30:22:735,-2.4312,0.8829,11.3008,47.3736,-0.7689,-0.0973,0.2774,252.2344
20:30:22:758,-2.3282,1.0241,11.8311,48.9168,-0.5388,-0.3951,0.1472,251.7812
20:30:22:776,-2.7424,1.5808,10.1527,47.7675,-0.2067,-0.194,0.1118,251.5781
20:30:22:802,-3.2093,1.9603,7.8172,48.6253,-0.1534,0.3051,0.2066,251.3438
20:30:22:815,-3.4427,1.9208,6.814,47.7901,-0.4948,0.6236,0.3544,251.2656
20:30:22:836,-3.335,1.7113,7.8268,48.3301,-0.9127,0.451,0.4641,251.0781
20:30:22:858,-2.8334,1.5461,9.067,47.1606,-1.0775,-0.0331,0.5203,250.6562
20:30:22:876,-1.9811,1.6155,9.4656,47.5867,-0.9404,-0.4153,0.5352,249.625
20:30:22:895,-1.2461,1.7699,9.0095,46.0103,-0.6224,-0.3857,0.523,248.9375
20:30:22:917,-0.5398,2.1614,7.221,47.0576,0.0527,0.1395,0.4569,248.3438
20:30:22:942,-0.5051,2.4223,6.3986,48.7352,0.2594,0.2199,0.4244,248.3438
20:30:22:960,-0.4045,2.7312,5.5271,46.8046,0.3188,0.1565,0.4236,247.7656
20:30:22:976,-0.2225,3.0784,5.4206,46.89,0.2136,0.0127,0.4471,247.1875
20:30:22:996,-0.1759,3.4327,6.5938,47.5168,0.0551,-0.1176,0.4737,246.6719
20:30:23:015,-0.0753,3.714,8.1201,47.1168,0.029,-0.1841,0.5137,245.6875
20:30:23:037,0.0719,3.9211,8.9856,46.5167,0.0802,-0.1753,0.5201,245.1875
20:30:23:062,0.206,4.0779,10.1408,47.6521,0.1127,-0.153,0.4998,244.7031
20:30:23:077,0.3736,4.2204,10.8554,46.2814,0.1598,-0.2773,0.4354,244.1406
20:30:23:096,0.4766,4.279,11.7305,45.8891,0.216,-0.4534,0.3475,243.5938
20:30:23:119,0.4993,4.1737,12.6511,46.1898,0.3763,-0.5618,0.2495,243.0781
20:30:23:142,0.777,3.9941,12.7732,47.4329,0.6243,-0.6036,0.1294,242.4688
20:30:23:161,0.9817,3.9953,12.444,47.3618,0.8575,-0.5879,-0.043,242.2344
20:30:23:177,0.7926,4.2695,11.7892,44.8325,1.033,-0.5317,-0.195,242.1562
20:30:23:195,0.8177,4.4502,10.4652,46.8999,1.0597,-0.4662,-0.2419,242.25
20:30:23:216,1.4474,4.3186,9.723,46.8577,0.8013,-0.4172,-0.2467,242.375
20:30:23:237,1.949,3.7308,10.3036,45.9956,0.4408,-0.4084,-0.3061,242.7344
20:30:23:261,2.4925,3.0305,11.4145,46.0621,0.2626,-0.414,-0.424,243.125
20:30:23:279,2.8911,2.8353,11.4013,44.9447,0.3223,-0.3977,-0.6315,243.5312
20:30:23:295,2.3895,3.125,10.0881,45.1858,0.3774,-0.3117,-0.8163,243.9844
20:30:23:318,1.6342,3.5321,8.782,45.074,0.188,-0.1394,-0.8589,244.5312
20:30:23:343,0.874,3.4614,8.3284,44.7735,-0.1912,0.0486,-0.7977,245.3594
20:30:23:362,0.4215,2.8665,9.1771,42.6437,-0.5459,0.132,-0.7098,246.3906
20:30:23:379,0.0767,2.317,9.7912,44.4645,-0.6216,0.0172,-0.6613,247.3594
20:30:23:396,-0.2776,2.1159,9.0717,44.6853,-0.4772,-0.2086,-0.6291,248.2656
20:30:23:419,-0.304,2.1063,7.8938,43.5908,-0.3252,-0.3967,-0.5905,249.3906
20:30:23:443,-0.4979,2.2452,7.3252,44.7918,-0.2269,-0.3959,-0.6105,250.0938
20:30:23:461,-1.2413,2.3828,7.2941,44.1968,-0.0874,-0.2571,-0.6142,250.8594
20:30:23:477,-1.6711,2.4032,7.0977,42.5954,0.1198,-0.1314,-0.5473,251.625
20:30:23:502,-1.586,2.4894,6.9409,44.1582,0.3305,-0.1373,-0.4541,252.4062
20:30:23:514,-1.3251,2.5756,6.4716,45.1976,0.4402,-0.2648,-0.4059,253.0938
20:30:23:538,-0.8738,2.5923,6.8547,43.9306,0.4232,-0.4739,-0.3862,253.6875
20:30:23:561,-0.3889,2.5504,7.4545,45.958,0.4693,-0.6294,-0.4264,254.2344
20:30:23:578,-0.1088,2.7599,7.0486,43.8987,0.5558,-0.5703,-0.4778,254.75
20:30:23:595,0.1102,3.2639,6.2119,43.8821,0.4743,-0.2853,-0.4912,255.3594
20:30:23:615,-0.2513,3.5356,6.7961,43.1694,0.1798,0.1264,-0.4802,256.0469
20:30:23:637,-0.7517,3.635,8.9221,45.2692,-0.0439,0.3592,-0.4097,256.6875
20:30:23:660,-0.3291,3.7104,10.4053,42.1179,-0.0631,0.3019,-0.3907,257.2812
20:30:23:676,-0.274,3.7631,10.6124,44.6947,-0.0495,0.1749,-0.4651,257.7188
20:30:23:695,-1.0474,3.6566,10.7453,42.9574,-0.1411,0.2665,-0.476,257.8906
20:30:23:715,-1.604,3.2926,10.5693,43.3477,-0.306,0.4883,-0.3452,258.4688
20:30:23:738,-1.7369,2.8557,9.881,41.8446,-0.6224,0.6023,-0.1878,258.9844
20:30:23:761,-2.0386,1.989,10.2377,44.3691,-1.126,0.4577,-0.0131,259.3594
20:30:23:777,-1.847,0.8134,12.1232,43.1379,-1.5446,0.0558,0.1469,259.5
20:30:23:803,-1.0342,-0.0844,14.4228,42.6348,-1.493,-0.3929,0.1696,259.4219
20:30:23:814,-0.5889,0.1502,14.1582,42.4572,-0.9273,-0.5546,0.0215,259.2031
20:30:23:835,-1.1096,0.9116,11.1978,43.0012,-0.3619,-0.1687,-0.0856,258.9531
20:30:23:860,-1.9105,1.4635,8.0626,42.6003,-0.2578,0.4119,-0.0152,258.875
20:30:23:877,-1.944,1.4958,6.7661,42.9433,-0.584,0.6473,0.1488,258.9844
20:30:23:895,-1.6962,1.3198,6.759,42.2742,-0.9854,0.3661,0.2338,259.0312
20:30:23:919,-0.9348,1.2336,7.476,43.1424,-1.1923,-0.1929,0.2649,258.8281
20:30:23:934,0.0827,1.2659,7.7454,42.2794,-1.0836,-0.6129,0.209,258.4531
20:30:23:955,0.4191,1.5688,6.9241,42.2773,-0.7744,-0.5897,0.1089,258.0781
20:30:23:975,-0.1316,1.8765,5.6528,42.1213,-0.5712,-0.1231,0.1067,257.7344
20:30:24:001,-0.1806,1.7113,5.3895,42.2581,-0.6139,0.2582,0.2253,257.6406
20:30:24:014,0.1713,1.4838,6.759,42.6271,-0.7281,0.198,0.2836,257.5156
20:30:24:035,0.3485,1.2803,8.5175,41.6714,-0.6464,-0.1255,0.2218,257.2188
20:30:24:062,0.3497,1.4264,9.3507,43.3675,-0.3143,-0.4086,0.1491,256.8438
20:30:24:078,0.3521,1.898,8.5546,43.3675,0.053,-0.3636,0.131,256.5781
20:30:24:094,0.4299,2.4187,7.6831,42.7922,0.2112,-0.1314,0.1632,256.4375
20:30:24:120,0.1773,2.7515,8.0662,44.4941,0.1587,0.0121,0.1986,256.3281
20:30:24:141,0.0468,2.6689,9.717,43.6863,0.0586,-0.0635,0.2457,256.1562
20:30:24:160,0.1115,2.5995,11.6766,43.1534,0.0738,-0.1908,0.2535,255.9375
20:30:24:175,0.1091,2.5923,12.7038,44.1281,0.1918,-0.2648,0.2362,255.8125
20:30:24:194,0.1414,2.4283,12.8845,42.0806,0.2871,-0.308,0.2106,255.5312
20:30:24:215,0.3257,2.3409,12.918,41.1627,0.3372,-0.3495,0.1525,255.2812
20:30:24:234,0.3964,2.1494,12.5852,42.0175,0.3428,-0.3642,0.0657,255.0625
20:30:24:256,0.7232,2.2907,12.092,42.4588,0.2434,-0.3855,-0.0216,254.8906
20:30:24:274,0.7543,2.4654,12.0633,41.6727,-0.0314,-0.3817,-0.101,254.8125
20:30:24:294,0.2276,1.9004,13.6411,41.793,-0.3705,-0.2105,-0.093,254.8906
20:30:24:316,1.22,-0.3909,16.5788,42.4791,-0.1843,-0.1479,-0.1351,255.0469
20:30:24:335,2.0867,-0.1287,13.944,42.5484,0.2762,-0.3634,-0.374,255.0469
20:30:24:359,1.8879,0.6016,10.8866,41.1253,0.387,-0.1476,-0.5836,255.1719
20:30:24:375,1.1409,0.9032,9.6021,40.4666,0.1846,0.3006,-0.6728,255.2344
20:30:24:395,0.6286,1.0217,9.5434,40.4669,-0.0197,0.5256,-0.7127,255.3906
20:30:24:414,-0.0286,1.1187,9.0311,41.3429,-0.0993,0.467,-0.7681,255.875
20:30:24:435,-0.7565,1.2779,8.2398,41.0795,-0.0714,0.394,-0.7711,256.5469
20:30:24:461,-1.0964,1.3497,7.409,40.1183,0.0085,0.4114,-0.6981,258
20:30:24:480,-1.0809,1.3174,6.8164,41.9517,0.1353,0.4814,-0.6161,258.8281
20:30:24:498,-1.027,1.2612,6.4453,41.1738,0.2629,0.532,-0.5585,259.6562
20:30:24:514,-0.9624,1.1774,6.5243,41.3186,0.3997,0.5038,-0.5157,261.0312
20:30:24:535,-0.9025,1.2145,6.8176,40.2691,0.6,0.3962,-0.4736,261.3281
20:30:24:561,-0.5793,1.2635,6.5159,41.137,0.8059,0.262,-0.4533,261.8906
20:30:24:579,-0.298,1.3701,6.2358,41.3044,0.9025,0.1349,-0.4531,262.4062
20:30:24:595,-0.268,1.509,5.988,39.7176,0.9068,0.1059,-0.4451,262.9219
20:30:24:615,-0.1998,1.7172,6.7554,40.8121,0.8325,0.1956,-0.4081,263.1875
20:30:24:636,-0.4739,1.8633,7.7621,39.8423,0.7918,0.389,-0.3764,263.7188
20:30:24:659,-0.8798,1.9627,8.7617,39.2064,0.7087,0.5517,-0.3069,264.2656
20:30:24:676,-1.3119,2.0201,9.7517,40.2566,0.5428,0.5365,-0.2147,264.75
20:30:24:757,-1.5442,1.9148,10.8674,40.2663,0.3305,0.2665,-0.1463,265.1719
20:30:24:758,-1.5956,1.649,11.5976,38.5008,0.1414,-0.1202,-0.1018,265.4531
20:30:24:758,-1.2808,1.1977,11.8335,38.5411,0.0048,-0.5527,-0.1314,265.6562
20:30:24:758,-1.3634,0.8278,12.2369,38.1964,-0.069,-0.8158,-0.2081,265.7969
20:30:24:781,-2.0242,0.7249,12.2692,38.8074,0.0554,-0.6936,-0.2254,266.2031
20:30:24:793,-2.5557,0.8972,10.9308,37.5844,0.1976,-0.2768,-0.0853,266.375
20:30:24:819,-2.3881,0.9367,9.3375,38.1475,0.0621,-0.035,0.1533,266.7969
20:30:24:833,-1.7596,0.513,9.0203,37.9582,-0.4029,-0.267,0.339,267.0781
20:30:24:855,-1.2102,0.0329,10.5574,36.3753,-0.8019,-0.7977,0.3725,267.0781
20:30:24:877,-0.8199,0.003,11.4288,35.8004,-0.7883,-1.092,0.323,266.7812
20:30:24:895,-0.7098,0.4603,10.4795,36.6554,-0.5372,-0.8763,0.2596,266.4375
20:30:24:913,-0.9564,1.1211,8.4888,38.2649,-0.3984,-0.2691,0.2495,266.1719
20:30:24:935,-1.379,1.4012,7.3108,36.6353,-0.5268,0.2774,0.3275,266
20:30:24:961,-1.2221,1.327,7.0295,37.9323,-0.7497,0.3573,0.4229,265.8125
20:30:24:975,-0.8103,1.1989,6.9792,35.2596,-0.9004,0.0686,0.4306,265.4844
20:30:24:994,-0.4117,1.2384,7.0163,37.1679,-0.9425,-0.271,0.3829,264.9844
20:30:25:014,-0.7589,1.4347,7.555,35.9381,-0.8669,-0.3066,0.3315,264.4219
20:30:25:036,-1.1898,1.643,8.4421,36.7078,-0.6373,-0.0861,0.3656,263.9688
20:30:25:060,-1.2569,1.813,8.733,35.8103,-0.2471,0.112,0.4205,263.5938
20:30:25:078,-1.173,2.0046,8.0434,35.1294,0.1691,0.1208,0.4527,263.2188
20:30:25:094,-0.7948,2.3529,6.7709,36.6438,0.449,0.0353,0.4716,262.5156
20:30:25:114,-0.529,2.7037,5.7725,34.5893,0.5177,-0.0355,0.466,262.25
20:30:25:134,-0.6272,3.1023,5.4565,35.0902,0.3854,-0.0315,0.5075,261.7188
20:30:25:160,-0.2273,3.2029,6.5626,35.0513,0.1803,-0.0198,0.5952,261.1875
20:30:25:178,0.364,3.2735,7.822,34.3861,0.0538,-0.0566,0.605,260.6875
20:30:25:195,0.7603,3.4662,8.8012,33.8963,-0.0671,-0.1298,0.5531,260.0469
20:30:25:213,1.2295,3.6242,10.136,33.9635,-0.2591,-0.1857,0.4828,259.3594
20:30:25:236,2.0675,3.3573,12.1806,35.3944,-0.4613,-0.2513,0.4122,258.7344
20:30:25:257,3.1054,2.5768,14.9938,35.7178,-0.5366,-0.3546,0.23,258.1562
20:30:25:276,3.3089,1.825,17.7328,33.3273,-0.3188,-0.4699,-0.1375,257.6719
20:30:25:297,1.9706,1.8322,18.147,36.109,0.2274,-0.4784,-0.5093,257.3125
20:30:25:315,0.449,2.2847,15.1339,35.3941,0.5744,-0.1365,-0.5769,257.2969
20:30:25:334,0.2467,2.1745,13.9236,34.3426,0.3984,0.2425,-0.4001,257.75
20:30:25:360,0.7399,1.2121,14.1439,34.1525,0.1702,0.1839,-0.2587,258.4531
20:30:25:378,1.6545,0.659,13.0401,34.532,0.1433,-0.2494,-0.2677,259.1562
20:30:25:395,1.9011,0.7177,10.5657,34.6408,0.1281,-0.5711,-0.379,259.4375
20:30:25:415,1.5336,0.8087,8.7952,34.8782,-0.0266,-0.4843,-0.4054,259.7656
20:30:25:436,1.4426,0.7177,8.1033,34.3827,-0.2522,-0.1285,-0.3497,260.25
20:30:25:463,1.463,0.4926,8.0782,33.2899,-0.4362,0.2225,-0.35,260.7656
20:30:25:479,1.1254,0.258,8.3655,33.669,-0.4858,0.3695,-0.4073,261.2031
20:30:25:496,0.8465,0.2005,8.2924,34.6,-0.3702,0.3522,-0.485,261.5625
20:30:25:514,0.6346,0.2795,8.1416,34.1545,-0.1545,0.3112,-0.5647,261.9844
20:30:25:535,0.4634,0.4962,7.5323,34.5284,0.1297,0.3533,-0.6323,262.5
20:30:25:560,0.2012,0.7739,6.8499,33.6227,0.339,0.5,-0.6635,263.0781
20:30:25:579,-0.0274,1.0122,7.0642,34.1898,0.4946,0.5845,-0.6699,263.7656
20:30:25:593,-0.0717,1.2109,7.3467,34.6535,0.7049,0.4811,-0.6422,264.125
20:30:25:615,0.7387,1.242,6.923,32.8304,0.8796,0.2668,-0.583,264.8281
20:30:25:637,1.9933,1.1402,6.5195,33.09,0.9044,0.0947,-0.6227,265.4844
20:30:25:662,2.1429,1.1091,7.1983,33.6003,0.8472,0.1144,-0.8179,266.1562
20:30:25:680,0.862,0.9918,9.5913,33.1801,0.8783,0.3541,-0.9596,267.2188
20:30:25:695,-0.1926,0.9643,11.63,32.721,1.1499,0.6654,-0.9556,268.1094
20:30:25:718,-0.7972,1.388,11.6276,32.4053,1.4639,0.7536,-0.8938,269.1875
20:30:25:734,-2.175,2.9694,8.7198,32.9785,1.1753,0.2649,-0.6877,270.2344
20:30:25:755,-2.9699,3.3645,8.3942,33.3736,0.6522,-0.0219,-0.5362,270.2344
20:30:25:776,-3.7181,3.2675,9.2812,32.8378,0.1675,-0.2108,-0.3495,271.1562
20:30:25:797,-4.1467,2.6761,10.2102,33.5722,-0.0578,-0.3719,-0.1311,273.5781
20:30:25:813,-3.8893,2.2248,9.7385,33.0293,-0.1907,-0.4438,0.1027,273.5781
20:30:25:835,-3.0717,1.74,9.7984,33.6889,-0.5108,-0.4228,0.3382,274.25
20:30:25:861,-2.2313,1.0696,10.7956,32.855,-0.9204,-0.5218,0.4686,274.2188
20:30:25:880,-1.4316,0.0533,12.6834,33.7752,-1.1609,-0.8662,0.4924,274.2188
20:30:25:900,-0.6164,-0.0449,13.5058,32.8076,-0.9675,-1.255,0.3608,273.1719
20:30:25:914,-0.468,0.726,11.8909,33.5574,-0.522,-1.2153,0.2018,272.9688
20:30:25:935,-0.8044,1.6849,8.7497,33.6471,-0.2293,-0.7232,0.1829,272.8281
20:30:25:959,-1.1288,2.1267,5.9006,33.3717,-0.4085,-0.0182,0.3216,272.75
20:30:25:979,-1.0833,1.9746,5.0794,33.3092,-0.9587,0.4398,0.5118,272.7344
20:30:25:995,-0.8486,1.3354,6.3005,33.3204,-1.4618,0.4393,0.6162,272.5156
20:30:26:014,-0.4177,1.0134,8.041,32.8011,-1.5761,0.201,0.6287,272.2969
20:30:26:034,-0.0741,1.1738,8.5534,33.1132,-1.3116,0.0324,0.5517,271.6562
20:30:26:053,-0.1483,1.5928,8.0578,33.8532,-0.9007,0.132,0.4513,270.8594
20:30:26:077,-0.881,2.0153,7.1959,32.1813,-0.5169,0.5078,0.4101,270.0781
20:30:26:094,-2.1259,2.2571,7.0606,33.4976,-0.2381,0.9363,0.5227,269.4688
20:30:26:113,-2.2325,2.2069,7.1288,33.4976,0.0056,1.0596,0.76,268.9219
20:30:26:134,-1.2413,2.0716,7.1229,33.1164,0.1555,0.7717,0.9142,268.3906
20:30:26:154,-0.5506,2.0991,7.2749,32.6289,0.1872,0.304,0.8703,267.6875
20:30:26:176,-0.7469,2.1949,7.8866,32.6041,0.1286,-0.0614,0.825,266.7656
20:30:26:195,-0.377,2.25,9.1065,31.6608,0.0791,-0.1716,0.8705,265.125
20:30:26:213,0.2814,2.2248,9.9923,32.1171,0.0954,-0.2009,0.8892,264.1562
20:30:26:234,0.9566,2.2332,10.7357,31.9332,0.0993,-0.2385,0.8452,263.2656
20:30:26:260,1.3085,2.0644,11.4348,32.6173,0.0791,-0.264,0.7443,262.2656
20:30:26:280,1.6042,1.9256,12.5158,32.9338,0.0511,-0.2664,0.6221,261.2969
20:30:26:295,1.6509,1.6203,13.4974,32.7221,0.0716,-0.2675,0.4663,260.4531
20:30:26:318,1.554,1.3725,14.5269,32.3394,0.1915,-0.3138,0.282,259.7031
20:30:26:333,1.6006,1.6095,14.1439,33.6028,0.432,-0.4563,0.0982,259.1094
20:30:26:353,1.6342,2.0105,12.1459,31.7539,0.481,-0.5354,-0.019,258.7344
20:30:26:375,1.8784,2.1386,11.5988,31.7362,0.1838,-0.4667,-0.0685,258.5625
20:30:26:394,2.2495,1.7029,12.9324,31.9326,-0.1111,-0.5027,-0.1386,258.6094
20:30:26:414,2.6361,1.3593,13.9894,31.0923,-0.0719,-0.5796,-0.285,258.7188
20:30:26:434,2.6768,1.5269,13.4148,31.822,0.2112,-0.4478,-0.4904,258.875
20:30:26:460,1.7658,2.1135,11.8778,34.0625,0.4887,0.0532,-0.6571,259.1875
20:30:26:477,0.1306,2.5421,10.191,32.5165,0.5864,0.7206,-0.6613,259.6875
20:30:26:494,-0.6164,2.4475,9.1053,33.085,0.437,1.2186,-0.5157,260.0312
20:30:26:513,-1.0067,1.9088,8.9209,31.6115,0.18,1.3056,-0.4193,261.0781
20:30:26:533,-1.4675,1.4096,8.9903,32.5481,-0.0003,1.0119,-0.4027,261.6094
20:30:26:553,-1.7788,1.0325,9.2753,33.605,0.0352,0.6188,-0.3987,261.9375
20:30:26:575,-1.9368,1.0397,8.982,32.366,0.3119,0.3112,-0.3774,262.2188
20:30:26:592,-1.8231,1.2336,7.6987,31.7279,0.6759,0.2146,-0.3122,262.5469
20:30:26:613,-1.422,1.4946,6.4118,31.3874,0.923,0.3051,-0.2312,262.9531
20:30:26:633,-0.9935,1.6777,5.66,29.8222,1.0562,0.4015,-0.1503,263.3125
20:30:26:653,-0.5649,1.6885,5.3535,31.0498,1.1047,0.402,-0.0914,263.6406
20:30:26:675,-0.0909,1.7173,5.3416,32.1883,1.1066,0.3472,-0.0704,263.8594
20:30:26:694,-0.0382,1.6945,5.6935,31.3712,1.0416,0.2638,-0.0746,263.9844
20:30:26:713,-0.1376,1.813,6.4561,32.6701,0.9566,0.205,-0.0619,264.0625
20:30:26:735,-0.359,2.0058,7.3551,32.7108,0.861,0.2063,-0.0296,264.1719
20:30:26:762,-0.6236,2.2248,7.6855,33.1114,0.7358,0.2819,0.0303,264.2812
20:30:26:831,-0.7648,2.3733,8.0231,31.6128,0.4783,0.3174,0.1105,264.3906
20:30:26:841,-0.9444,2.2129,8.7844,34.068,0.1766,0.2409,0.1768,264.3438
20:30:26:842,-1.0653,2.0022,9.6535,31.4696,-0.0913,0.035,0.2204,264.1875
20:30:26:842,-0.7421,1.6658,10.3526,31.205,-0.3108,-0.2201,0.238,263.9375
20:30:26:856,-0.3638,1.4144,11.2756,31.8832,-0.4586,-0.4648,0.1712,263.6719
20:30:26:877,-0.3842,1.649,10.7992,32.9188,-0.5238,-0.6286,0.0583,263.4375
20:30:26:893,-0.8474,1.9172,9.7361,33.167,-0.7689,-0.529,0.0388,263.3125
20:30:26:913,-1.4089,1.655,10.3371,31.9213,-1.2498,-0.3144,0.1576,263.3594
20:30:26:933,-1.1994,0.5513,13.1874,31.953,-1.5691,-0.4664,0.2607,263.3906
20:30:26:957,-0.2704,0.2783,15.3278,32.2994,-1.2778,-0.9258,0.1722,263.2188
20:30:26:977,-0.0789,0.9643,13.1191,33.748,-0.612,-1.1477,-0.044,262.9219
20:30:26:995,-0.8247,1.8789,9.0538,30.9324,-0.2791,-0.7298,-0.1516,262.8281
20:30:27:013,-1.6375,2.1709,7.1995,31.4956,-0.5065,-0.0022,0.0007,262.9219
20:30:27:033,-1.6459,1.6837,7.4904,32.4854,-0.8623,0.3629,0.193,263.2188
20:30:27:053,-1.2473,1.3509,7.5335,33.0289,-1.0416,0.1741,0.2511,263.3906
20:30:27:078,-1.1072,1.3821,7.4916,31.3212,-1.0722,-0.1865,0.2402,263.1875
20:30:27:094,-0.8822,1.509,7.2031,33.4858,-0.9483,-0.337,0.2404,262.6875
20:30:27:118,-0.6703,1.5018,7.1636,32.702,-0.8091,-0.1969,0.254,262.4062
20:30:27:134,-0.104,1.5006,8.2613,32.9214,-0.2184,0.0034,0.1544,262.1562
20:30:27:153,-0.037,1.8477,7.4796,32.6687,0.146,-0.0725,0.0931,262.1562
20:30:27:176,0.1342,2.2799,6.838,32.4139,0.3438,-0.0475,0.0556,261.8906
20:30:27:194,0.042,2.6354,6.8068,31.988,0.3782,0.0465,0.0263,261.6094
20:30:27:213,-0.2968,3.0448,7.6041,32.8715,0.2956,0.096,0.0359,261.3281
20:30:27:233,-0.6774,3.2256,8.782,34.6377,0.1736,0.0566,0.0985,261.3281
20:30:27:253,-0.6763,3.1789,10.4724,33.1359,0.0967,-0.0752,0.1861,261.2812
20:30:27:278,-0.4297,3.1825,11.7975,33.4242,0.1281,-0.2518,0.2157,261.2031
20:30:27:296,-0.207,3.1933,12.6451,31.7767,0.2043,-0.3599,0.2183,261.0938
20:30:27:313,0.0755,3.131,13.0976,33.906,0.3036,-0.4558,0.1885,260.6719
20:30:27:333,0.3161,2.9969,13.3705,33.8571,0.429,-0.5181,0.1392,260.4844
20:30:27:353,0.6513,2.9443,13.0928,32.0468,0.5673,-0.4781,0.0806,260.4062
20:30:27:377,1.1709,3.0185,11.8634,33.4929,0.5811,-0.3889,0.041,260.25
20:30:27:395,1.5025,2.9263,11.1715,35.314,0.3183,-0.2819,0.005,260.2188
20:30:27:413,1.609,2.2679,12.0717,33.7202,-0.0378,-0.1293,0.0114,260.2188
20:30:27:434,2.1178,1.06,13.5238,32.8433,-0.159,-0.0369,-0.0171,260.25
20:30:27:453,2.9869,0.647,13.422,33.4782,0.0586,-0.1279,-0.1631,260.2656
20:30:27:478,3.1545,1.0002,10.7082,34.0792,0.2863,-0.2198,-0.3923,260.2656
20:30:27:497,2.5104,1.5401,8.2601,35.2199,0.1611,-0.0094,-0.5362,260.2969
20:30:27:513,1.3301,1.6287,7.7035,33.4287,-0.2671,0.4153,-0.5463,260.5
20:30:27:533,0.2874,1.2935,8.5007,33.5097,-0.6884,0.6875,-0.4962,260.9844
20:30:27:554,-0.7074,0.7272,9.5793,33.4595,-0.9025,0.6223,-0.4448,261.5625
20:30:27:577,-0.9839,0.3956,10.6292,33.8573,-0.7734,0.3501,-0.3995,262.125
20:30:27:594,-0.6978,0.3897,10.355,34.0395,-0.3827,0.0769,-0.4169,262.5938
20:30:27:613,-0.8762,0.6063,9.5159,34.6815,0.0794,0.0311,-0.4834,263.1875
20:30:27:633,-1.4005,0.8087,8.7018,34.2353,0.4962,0.2465,-0.4725,263.6094
20:30:27:653,-1.543,1.0074,7.6664,33.8456,0.8293,0.4076,-0.3926,264.125
20:30:27:678,-1.3562,1.1558,6.3807,34.4016,0.9958,0.3208,-0.305,264.6406
20:30:27:698,-0.9839,1.2552,5.5559,35.7179,0.951,0.0782,-0.2264,265.1094
20:30:27:713,-0.4129,1.3222,5.6085,32.151,0.7923,-0.1405,-0.1596,265.4844
20:30:27:733,-0.0478,1.2444,6.7554,34.2942,0.6741,-0.2254,-0.1385,265.7812
20:30:27:755,0.0588,1.1989,7.7597,36.3316,0.7012,-0.1796,-0.1364,266.0312
20:30:27:780,0.4083,1.4216,8.1009,34.2515,0.7774,-0.007,-0.1162,266.25
20:30:27:797,0.6214,1.7125,7.974,34.0941,0.7065,0.1805,-0.1263,266.4531
20:30:27:812,0.5137,1.977,8.8563,35.1557,0.4727,0.3011,-0.1255,266.625
20:30:27:834,0.522,2.165,9.8882,33.447,0.2394,0.2619,-0.1111,266.7812
20:30:27:854,0.5496,2.1051,10.8279,33.2595,0.0525,0.0918,-0.1292,266.8906
20:30:27:877,0.4921,2.0129,11.5605,33.8951,-0.0048,-0.0427,-0.1993,266.9688
20:30:27:897,0.03,1.7963,11.5426,34.6447,0.0344,0.01,-0.2682,267.0625
20:30:27:912,-0.1064,1.8405,10.7872,34.6355,0.0413,0.1075,-0.2901,267.1406
20:30:27:932,-0.7457,1.8669,10.1443,34.7178,-0.1577,0.1759,-0.2837,267.5312
20:30:27:953,-1.3706,1.558,10.6555,34.5394,-0.481,0.0726,-0.1678,267.8125
20:30:27:977,-1.4592,1.0924,12.007,34.8568,-0.7396,-0.162,-0.0134,268.125
20:30:27:995,-0.5984,0.5836,13.3107,34.5971,-0.7193,-0.5343,0.0346,268.3594
20:30:28:012,-0.1591,1.0002,12.8271,34.0841,-0.3894,-0.7503,-0.0901,268.4219
20:30:28:032,-0.8055,1.9004,10.4927,35.2975,-0.0629,-0.508,-0.1575,268.4219
20:30:28:053,-1.7082,2.6151,7.804,34.2159,-0.1286,0.067,0.0015,268.5469
20:30:28:077,-1.8075,2.5205,7.1887,33.9778,-0.621,0.4287,0.2836,268.8281
20:30:28:094,-1.3502,1.6789,8.7928,35.5774,-1.0709,0.1666,0.4535,268.9844
20:30:28:112,-0.6308,1.2851,9.9229,35.3283,-1.106,-0.4363,0.466,268.75
20:30:28:132,0.0324,1.479,9.1819,35.067,-0.8282,-0.7929,0.409,268.2031
20:30:28:153,0.2802,1.922,7.6819,35.218,-0.5087,-0.6587,0.3523,267.6719
20:30:28:177,0.1318,2.141,6.7614,35.218,-0.3092,-0.2318,0.3424,267.25
20:30:28:195,-0.1268,2.25,6.5387,34.5348,-0.1563,0.1165,0.3616,266.7656
20:30:28:212,-0.2728,2.2392,6.589,35.218,-0.0107,0.1879,0.385,266.4062
20:30:28:233,-0.1591,2.3326,6.6404,33.5814,0.134,0.0116,0.376,265.9844
20:30:28:253,-0.4835,2.6558,6.6297,34.1414,0.2059,-0.1189,0.3645,265.5156
20:30:28:279,-0.9288,2.9024,7.1516,34.3551,0.179,-0.0446,0.4625,265.1094
20:30:28:295,-0.8055,2.8856,8.1895,35.0331,0.1068,0.0319,0.6247,264.7031
20:30:28:313,-0.1842,2.7108,9.5003,34.9061,0.119,-0.0952,0.699,264.1875
20:30:28:333,0.4227,2.6294,10.2401,34.5621,0.2005,-0.3543,0.649,263.4688
20:30:28:353,0.8177,2.803,10.3335,34.2149,0.2754,-0.5623,0.543,262.7188
20:30:28:378,1.0667,3.0388,10.4257,34.8243,0.2538,-0.5082,0.4647,262.0156
20:30:28:395,1.3385,2.9706,11.4767,33.344,0.1859,-0.309,0.4029,261.4688
20:30:28:414,1.3612,2.6402,12.5026,34.8539,0.2168,-0.1466,0.307,261.2344
