Time,Acc_X,Acc_Y,Acc_Z,Meg,Gyr_X,Gyr_Y,Gyr_Z,Ore
21:36:04:885,-2.2648,-0.0042,9.3519,56.6756,-0.8197,-0.8672,0.3371,200.5469
21:36:04:928,-0.8199,0.2723,8.3152,56.5581,-0.1055,-1.8028,0.5054,199
21:36:04:950,-0.2549,0.568,9.9947,57.5094,-0.0599,-1.8009,0.5158,199
21:36:04:977,1.36,0.5836,11.6587,56.7251,0.1103,-1.0664,0.3627,198.5938
21:36:04:993,1.8269,0.6159,11.2301,57.163,0.2413,-0.4718,0.1422,198.0625
21:36:05:009,1.5204,0.8302,10.4712,57.4429,0.2828,-0.1791,0.0154,197.6562
21:36:05:042,1.2714,1.0098,10.1408,56.8133,0.289,-0.1066,-0.0464,197.5
21:36:05:050,0.9997,1.1774,10.0402,56.1128,0.3079,-0.0752,-0.0584,197.5
21:36:05:076,0.8824,1.3569,9.7888,57.4926,0.3236,0.0116,-0.0416,197.5156
21:36:05:093,1.0739,1.503,9.638,56.1696,0.294,0.1317,-0.0797,197.5156
21:36:05:109,1.2164,1.6382,9.3255,56.2205,0.2139,0.1887,-0.1854,197.6094
21:36:05:128,1.1254,1.6083,9.146,57.2157,0.1129,0.132,-0.3103,197.75
21:36:05:147,0.8537,1.5245,9.2896,57.3169,0.0597,0.0598,-0.3937,197.75
21:36:05:176,0.6059,1.4766,9.535,57.7269,0.0575,0.047,-0.427,197.9531
21:36:05:194,0.552,1.327,9.8618,57.6527,0.0961,0.0593,-0.4294,198.2969
21:36:05:211,0.607,1.2324,10.057,55.2935,0.1795,0.0699,-0.4525,198.7344
21:36:05:227,0.7675,1.3354,10.0809,57.2204,0.2924,0.0707,-0.522,199.2188
21:36:05:246,0.7722,1.4072,9.9097,56.0377,0.3851,0.0763,-0.6129,199.7031
21:36:05:276,0.5735,1.5748,9.863,56.9549,0.4216,0.1253,-0.6645,200.2188
21:36:05:295,0.2527,1.6035,9.4883,56.1149,0.3947,0.2058,-0.6621,200.7969
21:36:05:310,-0.0238,1.5245,9.2717,55.329,0.331,0.2494,-0.6203,201.5
21:36:05:326,-0.2094,1.4407,9.1855,57.0919,0.2967,0.2675,-0.5748,202.25
21:36:05:346,-0.3207,1.5149,9.2657,57.8196,0.2836,0.2369,-0.5407,202.9688
21:36:05:378,-0.4129,1.582,9.2357,55.9476,0.2818,0.1802,-0.53,204
21:36:05:397,-0.4955,1.5963,9.2932,55.6332,0.2983,0.153,-0.5223,204.625
21:36:05:406,-0.5937,1.7065,9.1998,57.2391,0.3228,0.1371,-0.5157,205.2031
21:36:05:428,-0.6894,1.8214,9.0478,56.4151,0.338,0.0726,-0.529,205.8125
21:36:05:446,-0.9133,1.8358,8.9377,56.8223,0.3302,0.0106,-0.5444,206.4062
21:36:05:478,-1.215,1.7376,8.9281,56.5222,0.3057,-0.0214,-0.5122,206.9688
21:36:05:493,-1.4831,1.6622,9.0777,55.8427,0.2764,-0.0065,-0.4296,207.5938
21:36:05:512,-1.9739,1.9986,9.5745,56.9339,0.2903,0.1165,-0.2651,208.2188
21:36:05:547,-2.351,2.0477,9.7397,56.6112,0.3462,0.1735,-0.0392,208.7812
21:36:05:547,-2.4791,1.819,9.6643,57.0873,0.4317,0.2076,0.2053,209.1875
21:36:05:575,-2.6383,1.7603,9.2717,55.9837,0.534,0.218,0.4465,209.3594
21:36:05:591,-2.6754,2.1302,8.7246,58.4294,0.6088,0.2196,0.6402,209.3438
21:36:05:611,-2.3115,2.6127,7.7561,56.3219,0.5835,0.1445,0.6865,209.1094
21:36:05:628,-1.8817,3.2112,7.1528,56.5715,0.4405,0.0454,0.5608,208.625
21:36:05:646,-1.8722,3.3992,7.1528,56.3889,0.2091,-0.002,0.4029,207.9062
21:36:05:677,-2.3498,3.1621,7.3132,58.042,-0.0788,-0.0821,0.3355,207.125
21:36:05:695,-3.1004,2.8796,7.7083,56.9953,-0.3696,-0.0954,0.3936,206.2969
21:36:05:711,-3.2297,2.7815,8.1464,57.1462,-0.6043,0.0883,0.5161,205.8906
21:36:05:727,-2.9017,2.5887,8.5199,56.5021,-0.7281,0.4276,0.6098,205.5
21:36:05:748,-2.6335,3.1526,7.8854,56.9003,-0.7808,0.6508,0.6479,204.9844
21:36:05:777,-2.6371,3.5572,7.5921,56.7214,-0.8344,0.6886,0.6149,204.2812
21:36:05:797,-2.8286,3.4543,8.053,56.8493,-0.9297,0.5056,0.5001,203.4375
21:36:05:806,-3.0645,2.888,9.1555,57.7664,-1.0208,0.2082,0.3992,202.625
21:36:05:829,-3.2153,2.2308,9.8941,56.2401,-1.0389,0.0321,0.413,201.875
21:36:05:846,-3.2105,2.0836,10.203,57.6865,-1.0064,0.0718,0.5438,201.2812
21:36:05:868,-2.5665,2.1434,9.8331,55.4799,-0.9076,0.3719,0.7422,200.7812
21:36:05:891,-1.8027,2.4966,9.304,56.8953,-0.7598,0.7078,0.8599,200.1719
21:36:05:909,-1.094,2.876,8.5989,56.705,-0.5816,0.912,0.8079,199.375
21:36:05:926,-1.0629,2.9251,7.8076,55.129,-0.4424,0.8755,0.5795,198.3438
21:36:05:947,-1.6663,2.6809,7.6951,56.0418,-0.4277,0.7184,0.2878,197.3438
21:36:05:971,-2.3857,2.1374,8.1715,57.6289,-0.502,0.5107,0.0897,196.125
21:36:05:988,-2.9699,1.4323,9.0047,56.8595,-0.5742,0.3253,0.0207,195.7344
21:36:06:008,-3.2823,1.0493,9.6057,55.762,-0.5822,0.2399,0.0873,195.5781
21:36:06:027,-2.9615,0.914,9.7433,55.6819,-0.5121,0.1986,0.2492,195.4844
21:36:06:047,-2.6383,1.0265,9.4668,55.89,-0.4133,0.1669,0.3925,195.4219
21:36:06:072,-2.3534,1.224,9.0502,56.3396,-0.3436,0.1461,0.495,195.1719
21:36:06:089,-2.0529,1.3797,8.8216,56.2174,-0.3244,0.0766,0.5549,194.7656
21:36:06:107,-1.5849,1.6526,8.727,57.4379,-0.3254,0.0028,0.5904,194.2031
21:36:06:127,-1.124,1.9339,8.7102,54.235,-0.3116,-0.0845,0.6055,193.5469
21:36:06:146,-1.0641,2.3338,8.7605,55.1634,-0.2858,-0.2499,0.5725,192.8906
21:36:06:170,-1.0473,2.6318,9.2154,57.3815,-0.2562,-0.4968,0.5238,192.1562
21:36:06:189,-0.7529,2.5923,10.0211,56.2013,-0.2091,-0.7533,0.4703,191.4375
21:36:06:212,-0.4991,2.5361,10.5693,56.6654,-0.1651,-0.8787,0.3818,189.9219
21:36:06:236,-0.4153,2.1266,11.709,58.0016,-0.2032,-0.9658,0.0913,189.4531
21:36:06:250,-0.6727,1.4335,12.6595,57.3885,-0.0988,-0.815,0.0505,189.1562
21:36:06:275,-0.8618,1.066,12.7468,55.2028,0.061,-0.6126,0.1041,189.0156
21:36:06:292,-0.2681,1.3509,12.116,56.048,0.1222,-0.4803,0.0441,188.9375
21:36:06:309,0.5652,1.6251,11.5701,56.2915,0.0692,-0.4941,-0.1993,188.8125
21:36:06:328,1.1864,1.327,11.8035,56.2239,0.0306,-0.6848,-0.5521,188.75
21:36:06:350,1.0464,0.3753,12.4703,56.1204,0.0447,-0.8973,-0.8251,188.9844
21:36:06:372,0.376,-0.7823,13.4531,57.5805,0.1507,-0.9261,-0.8486,189.5938
21:36:06:388,0.0468,-1.6969,13.8338,57.5112,0.3744,-0.7594,-0.6424,190.4844
21:36:06:408,0.4622,-2.1865,12.8929,57.5112,0.5822,-0.4824,-0.3841,191.4375
21:36:06:432,1.2679,-2.0632,11.3127,57.6878,0.7095,-0.2829,-0.2099,192.1719
21:36:06:453,1.7994,-1.6275,9.4644,57.6005,0.6751,-0.2164,-0.1561,192.1719
21:36:06:473,1.7132,-0.9834,8.0793,57.6005,0.5404,-0.157,-0.1391,192.5938
21:36:06:489,1.3421,-0.5094,6.99,56.1498,0.3918,-0.1117,-0.1263,192.8281
21:36:06:506,0.9758,-0.0413,6.2681,56.6738,0.2668,-0.0797,-0.081,193.0156
21:36:06:527,0.8776,0.4627,5.6145,58.4076,0.1696,-0.1535,-0.0419,193.1719
21:36:06:547,1.0739,1.0588,5.2937,57.0633,0.0615,-0.3421,-0.0658,193.3125
21:36:06:572,1.3911,1.6203,5.8827,57.3764,-0.0163,-0.4435,-0.1812,193.4062
21:36:06:589,1.6701,1.9698,6.9002,57.6299,0.0064,-0.362,-0.3841,193.4531
21:36:06:607,1.4845,2.0441,7.3599,54.527,0.0815,-0.1743,-0.5979,193.5312
21:36:06:626,1.1014,2.0991,7.1025,55.967,0.0799,0.0414,-0.7644,193.75
21:36:06:646,1.281,2.402,6.911,54.3212,-0.0448,0.2321,-0.9822,194.2031
21:36:06:672,1.2247,2.6127,7.0894,56.0485,-0.2581,0.4135,-1.2704,194.8438
21:36:06:690,0.5939,2.3421,7.6101,55.9443,-0.5127,0.5299,-1.5266,195.7188
21:36:06:707,-0.529,2.1243,8.3343,56.4003,-0.7169,0.6891,-1.6494,196.8438
21:36:06:726,-1.179,1.9387,9.3483,56.2071,-0.7846,0.8433,-1.6611,198.2812
21:36:06:746,-1.7896,1.9028,10.0785,55.7639,-0.7012,0.9206,-1.6001,199.9375
21:36:06:771,-2.6407,1.8621,10.4065,56.5561,-0.5382,0.8217,-1.4318,201.8281
21:36:06:789,-3.6139,1.8585,10.7273,56.8803,-0.3505,0.5192,-1.1327,205.4531
21:36:06:806,-4.3861,1.9507,11.5138,55.5001,-0.1606,0.1006,-0.6776,206.2969
21:36:06:892,-4.6303,2.086,12.4679,57.4373,-0.0668,-0.3133,-0.1106,207.7812
21:36:06:892,-4.2975,2.3014,14.0792,56.5249,-0.0306,-0.6592,0.5366,208.8438
21:36:06:893,-2.7029,2.3505,15.7731,55.2283,0.1079,-0.6718,1.0476,209.2656
21:36:06:893,-0.7385,2.2751,15.5708,55.0515,0.2932,-0.7626,1.2005,209.0156
21:36:06:914,0.9386,2.05,14.7616,58.2303,0.4943,-0.9532,0.9518,208.0469
21:36:06:925,0.6142,1.4599,14.3055,56.5262,0.7502,-1.0976,0.6466,206.7656
21:36:06:947,-0.3494,0.5992,14.2468,54.5747,1.061,-0.8829,0.5627,205.4844
21:36:06:973,-0.541,-0.0856,13.0581,56.1491,1.2549,-0.4068,0.5728,204.5781
21:36:06:986,-0.5075,-0.1742,10.9919,55.4437,1.1726,0.128,0.5315,203.8906
21:36:07:013,-0.4763,-0.2915,8.8527,55.5671,0.8855,0.4454,0.4689,203.2656
21:36:07:025,-0.6918,-0.2424,7.2737,54.6667,0.5135,0.3706,0.458,202.9219
21:36:07:046,-0.681,0.1131,6.9277,54.6516,0.1646,0.0654,0.4828,202.2812
21:36:07:066,-0.0382,0.3645,7.7537,53.9487,-0.0072,-0.1567,0.3893,201.7031
21:36:07:088,0.0851,0.4316,8.6767,55.1535,0.0378,-0.1985,0.2412,201.1875
21:36:07:109,-0.28,0.325,8.9137,54.8813,0.2059,-0.0643,0.1688,200.375
21:36:07:126,-0.7134,0.1706,8.15,53.1352,0.3806,0.0814,0.2103,200.0469
21:36:07:146,-0.6236,0.0988,5.7043,55.7804,0.4812,0.084,0.3334,199.8438
21:36:07:170,-0.292,0.3346,5.0136,54.0694,0.4818,-0.0361,0.4537,199.625
21:36:07:189,0.0791,0.5644,4.8448,54.1924,0.3939,-0.1903,0.5275,199.2969
21:36:07:206,0.3652,0.8278,5.2674,54.0509,0.2519,-0.3117,0.5427,198.8594
21:36:07:229,0.5233,1.0612,5.7043,52.4075,0.1129,-0.3186,0.499,198.2812
21:36:07:245,0.528,1.2288,6.1831,52.8716,-0.0226,-0.2803,0.4061,197.6875
21:36:07:267,0.2168,1.2803,6.7781,54.1718,-0.1625,-0.2326,0.3145,197.125
21:36:07:291,0.0516,1.3964,7.5287,52.6818,-0.2897,-0.1849,0.2953,196.625
21:36:07:311,0.2623,1.5257,8.2027,54.2702,-0.3689,-0.1631,0.3408,196.25
21:36:07:325,0.5831,1.7807,8.6432,53.8544,-0.4288,-0.1237,0.3677,195.9219
21:36:07:345,1.1481,2.0237,9.4069,52.1932,-0.5262,-0.1594,0.3246,195.6094
21:36:07:366,1.4606,2.0596,11.1056,53.6123,-0.6868,-0.3458,0.1792,195.2188
21:36:07:391,1.2283,1.5688,13.5728,51.8941,-0.8562,-0.4987,-0.027,194.7031
21:36:07:406,1.0691,0.6159,15.1937,51.1523,-0.8938,-0.3317,-0.154,194.5625
21:36:07:426,1.633,-0.0533,14.3917,52.5105,-0.7635,0.1759,-0.0975,194.6562
21:36:07:446,2.2088,0.1598,12.7576,51.8177,-0.6293,0.4724,0.0223,194.8906
21:36:07:471,2.4386,0.4184,12.1064,51.3507,-0.5963,0.2867,0.0314,195.0469
21:36:07:488,1.9789,0.173,13.1239,51.3028,-0.6333,-0.1721,-0.1212,195.0625
21:36:07:506,1.2942,-0.6997,14.1918,50.5877,-0.6037,-0.3346,-0.2437,195.0312
21:36:07:526,0.9027,-1.2049,13.7045,51.7893,-0.4194,0.0068,-0.1793,195.0938
21:36:07:545,1.9873,-1.1019,11.8311,50.3754,-0.1566,0.5086,0.0881,195.3438
21:36:07:565,3.6309,-0.5716,9.5913,51.4135,0.0719,0.6476,0.3057,195.6562
21:36:07:588,4.3839,0.24,8.5953,49.678,0.0935,0.2814,0.2306,195.7344
21:36:07:606,3.8799,0.6566,8.8754,49.1492,-0.0455,-0.1879,-0.0864,195.5
21:36:07:626,2.6649,0.4124,9.14,49.2946,-0.18,-0.3112,-0.4722,195.1562
21:36:07:647,1.4091,0.1562,8.3379,48.9246,-0.2091,-0.0182,-0.7183,195.1562
21:36:07:674,0.479,0.3514,6.9289,48.9867,-0.2053,0.3866,-0.7588,195.6719
21:36:07:688,0.1234,0.7272,6.2454,45.9934,-0.2418,0.5823,-0.6611,196.5
21:36:07:707,0.2862,1.0732,6.2215,46.7978,-0.2144,0.4867,-0.513,197.3906
21:36:07:726,0.5532,1.412,6.1269,46.587,-0.0517,0.2614,-0.4014,198.125
21:36:07:746,0.8812,1.6993,5.848,46.8524,0.1345,0.0409,-0.3609,198.7344
21:36:07:766,1.0596,1.9327,5.8156,47.4418,0.2288,-0.1165,-0.4062,199.2031
21:36:07:789,1.0368,2.0824,6.1257,46.1971,0.1976,-0.1708,-0.5322,199.5938
21:36:07:805,0.8417,2.0955,6.966,46.9376,0.0645,-0.1484,-0.6675,200.0469
21:36:07:825,0.2946,2.0093,8.314,44.6182,-0.1143,-0.0797,-0.7897,200.6406
21:36:07:846,-0.4165,1.9184,9.705,45.8206,-0.2714,0.1027,-0.7993,201.4062
21:36:07:866,-1.2437,1.7137,11.2002,46.4793,-0.1505,0.103,-0.6435,201.4062
21:36:07:887,-1.7082,1.4695,12.3398,44.9609,0.0964,0.0308,-0.3708,202.2656
21:36:07:912,-1.6375,1.4623,12.9563,42.6483,0.3055,-0.0414,-0.0901,204.1562
21:36:07:924,-1.2317,1.6885,13.1718,44.3104,0.3925,-0.0406,0.0902,204.1562
21:36:07:945,-0.6583,1.5341,13.525,44.3382,0.3976,0.0883,0.1757,205.2969
21:36:07:966,-0.2609,1.157,13.762,41.341,0.3452,0.4572,0.2316,205.3906
21:36:07:987,-0.1268,1.1151,12.7588,41.9089,0.1579,0.7706,0.2686,205.2656
21:36:08:004,-0.3076,1.5616,11.9209,42.4241,-0.126,0.7118,0.2894,205.0625
21:36:08:025,-0.2034,1.345,12.8354,42.7006,-0.1491,0.6233,0.2034,204.7969
21:36:08:044,-0.9456,0.3011,13.1515,40.8491,0.1758,0.5837,0.2242,204.4844
21:36:08:065,-1.7129,-0.4926,11.5641,41.6492,0.4376,0.4265,0.4585,204.1719
21:36:08:090,-1.3323,-0.7177,9.8918,40.4674,0.4693,-0.0227,0.634,203.9375
21:36:08:108,-0.3135,-0.9128,9.3579,41.4415,0.3406,-0.6438,0.6572,203.2031
21:36:08:126,0.631,-1.0888,10.0893,41.0049,0.1047,-1.0385,0.5624,202.8438
21:36:08:145,0.6669,-0.89,11.7185,41.2637,-0.0594,-0.8531,0.434,202.0938
21:36:08:166,0.3066,-0.7009,12.7301,39.2734,0.0237,-0.2662,0.3547,200.8594
21:36:08:189,0.0528,-0.7141,11.9951,39.0988,0.3012,0.3174,0.3499,200.8594
21:36:08:206,-0.189,-0.6159,9.5434,39.9152,0.5454,0.6558,0.4436,200.4219
21:36:08:225,-0.3027,-0.1993,6.838,41.6351,0.6458,0.5951,0.6007,200.0312
21:36:08:246,0.1138,0.2604,5.0339,40.0618,0.6229,0.2292,0.69,199.5781
21:36:08:265,0.4538,0.8146,4.3755,38.3051,0.5276,-0.1828,0.6796,198.9844
21:36:08:288,0.8153,1.1594,4.5491,38.3414,0.4125,-0.5138,0.5853,198.6094
21:36:08:309,0.9506,1.2815,5.2889,37.6103,0.3252,-0.6478,0.4668,197.8125
21:36:08:325,0.9877,1.169,6,39.2807,0.2533,-0.5604,0.3619,197.0781
21:36:08:346,0.8967,1.1091,6.3878,39.1211,0.1531,-0.3876,0.29,196.4219
21:36:08:366,0.7291,1.09,6.7721,37.6455,0.0157,-0.2172,0.2668,195.9219
21:36:08:389,0.7136,1.1797,7.2689,36.2548,-0.1049,-0.1469,0.2644,195.5156
21:36:08:407,0.9267,1.3258,7.9896,36.3662,-0.172,-0.1506,0.2186,195.0781
21:36:08:425,1.1146,1.5317,8.6839,36.6513,-0.1723,-0.15,0.1203,194.7812
21:36:08:446,1.3564,1.6346,8.8922,38.5503,-0.2024,-0.1945,-0.0541,194.5156
21:36:08:466,1.5061,1.6083,9.0311,38.1209,-0.3643,-0.3351,-0.2616,194.3281
21:36:08:489,1.4366,1.3294,10.1886,38.1209,-0.5907,-0.4518,-0.4363,194.2969
21:36:08:506,0.8153,0.6602,12.3602,36.5791,-0.6828,-0.3375,-0.484,194.5
21:36:08:526,0.1031,-0.185,14.0972,37.4841,-0.5601,0.0697,-0.3223,194.9219
21:36:08:546,1.6449,-0.2831,11.4923,35.9604,-0.4336,0.3695,-0.1665,195.5312
21:36:08:566,1.451,0.5704,11.6671,35.9604,-0.6072,0.1903,-0.2286,196.0469
21:36:08:588,0.8465,0.1299,14.8669,37.1141,-0.902,-0.2728,-0.4083,196.3125
21:36:08:608,0.2958,-1.0972,16.4004,36.8085,-0.7646,-0.3213,-0.5085,196.5312
21:36:08:625,0.2539,-1.3749,13.9571,39.1845,-0.2232,0.1552,-0.3628,196.9375
21:36:08:645,1.214,-0.6937,10.3431,36.727,0.2059,0.516,-0.0483,197.5312
21:36:08:668,2.2854,0.2328,8.6899,37.5774,0.2264,0.266,0.1139,198.0625
21:36:08:690,2.3464,0.8458,9.2932,39.1278,-0.0264,-0.2177,-0.0025,198.2812
21:36:08:706,1.9095,0.7512,9.8738,39.1484,-0.1864,-0.3876,-0.2137,198.1406
21:36:08:726,1.2068,0.3777,8.7042,39.5686,-0.0802,-0.1394,-0.3825,198.1562
21:36:08:746,0.394,0.4399,6.638,37.8745,0.0988,0.2164,-0.4089,198.4062
21:36:08:767,0.03,1.0002,5.2865,38.1797,0.139,0.3938,-0.2832,198.6094
21:36:08:790,0.1797,1.4192,5.1465,37.3988,0.0778,0.2739,-0.1444,199.0781
21:36:08:808,0.4502,1.5688,5.6708,39.3809,0.053,0.0327,-0.0989,199.4688
21:36:08:831,0.8153,1.6023,5.9545,38.131,0.1084,-0.0654,-0.1079,199.7031
21:36:08:845,0.9171,1.7759,5.9018,38.2457,0.1681,0.0108,-0.1721,199.8125
21:36:08:866,0.8141,2.0536,6.0431,39.3741,0.1422,0.1134,-0.2845,199.9219
21:36:08:893,0.8165,2.1853,6.7458,40.3349,0.0208,0.1743,-0.4017,200.0625
21:36:08:910,0.5771,2.2141,8.071,40.0253,-0.1212,0.1831,-0.5125,200.3125
21:36:08:982,0.2048,2.0045,9.6595,38.3817,-0.2024,0.1387,-0.6041,200.6875
21:36:08:983,-0.9947,1.7029,11.2864,42.2707,-0.1864,0.0566,-0.64,201.2188
21:36:08:983,-2.4336,1.1486,12.8342,40.6563,-0.0826,-0.0001,-0.5378,201.8594
21:36:09:000,-2.2385,0.9188,13.3382,40.8392,0.175,-0.0188,-0.1436,202.9219
21:36:09:005,-1.1048,1.4395,12.6918,41.4429,0.5065,-0.055,0.3352,203.5469
21:36:09:026,0.3233,1.9555,12.2668,41.6212,0.6578,-0.1074,0.6359,203.7031
21:36:09:046,1.6569,1.9698,11.8885,41.953,0.5792,-0.051,0.6636,203.3281
21:36:09:066,1.864,1.9746,11.6707,43.6146,0.2671,0.1831,0.4692,202.5781
21:36:09:088,1.5671,2.0453,12.9085,42.1736,-0.2264,0.3027,0.2625,201.7969
21:36:09:105,0.9386,1.2025,14.7209,44.9505,-0.595,0.364,0.0822,201.2344
21:36:09:128,-0.7217,-0.0605,14.5904,45.1701,-0.49,0.5608,-0.1191,200.875
21:36:09:147,-1.4328,-0.9044,12.2333,44.0806,0.2977,0.6921,0.2466,201.0156
21:36:09:167,-1.015,-1.0612,9.3794,45.8081,0.282,0.2798,0.4157,201.0625
21:36:09:191,-0.2214,-1.145,7.9417,45.2434,-0.0005,-0.3117,0.4367,200.7656
21:36:09:209,-0.0166,-1.005,8.2852,44.6589,-0.2621,-0.7604,0.4079,200.2969
21:36:09:228,-0.1316,-0.7272,9.1675,44.9706,-0.3225,-0.9136,0.3904,200.2969
21:36:09:249,-0.1316,-0.4363,9.4165,45.9957,-0.2384,-0.8081,0.3938,199.7969
21:36:09:272,-0.049,-0.1766,8.9209,46.1752,-0.1158,-0.5684,0.4268,199.3594
21:36:09:289,0.0157,0.0341,7.9704,47.0328,-0.0463,-0.3562,0.4985,198.9219
21:36:09:305,0.1067,0.3274,7.2653,45.5228,-0.0322,-0.1889,0.5821,198.4844
21:36:09:324,0.2455,0.7081,6.7817,46.0441,-0.013,-0.0912,0.6231,198.0312
21:36:09:345,0.2946,0.9475,6.5183,46.91,0.0546,-0.0917,0.6178,197.4688
21:36:09:365,0.1246,1.0193,6.2801,46.4509,0.1478,-0.1516,0.637,196.7969
21:36:09:388,0.2575,0.9547,5.9796,47.7271,0.1928,-0.2398,0.67,196.125
21:36:09:407,0.5412,1.2372,5.9749,48.4005,0.1949,-0.369,0.65,195.4062
21:36:09:424,0.959,1.5952,6.0574,47.4793,0.1116,-0.5341,0.5169,194.6719
21:36:09:445,1.0548,1.8334,6.8918,47.6588,-0.0533,-0.5884,0.3099,193.8906
21:36:09:465,0.6454,1.4982,8.4768,50.4851,-0.1744,-0.4158,0.1677,193.1875
21:36:09:488,-0.0502,1.06,9.9001,48.1491,-0.187,-0.1588,0.1653,192.5781
21:36:09:506,-0.3698,0.8003,10.6615,48.9188,-0.1454,-0.056,0.234,192.2344
21:36:09:524,0.3401,0.738,10.9644,49.2375,-0.1859,-0.2451,0.2202,192.0625
21:36:09:544,1.3337,0.6602,12.2022,48.4953,-0.286,-0.4707,0.0652,191.8906
21:36:09:565,1.846,0.0784,14.2121,50.8251,-0.2815,-0.3125,-0.1156,191.6406
21:36:09:589,2.1609,-0.8422,14.8442,50.5506,-0.1824,0.1576,-0.1915,191.3438
21:36:09:608,3.0479,-1.4096,13.2867,51.7843,-0.2176,0.4122,-0.2291,191.4062
21:36:09:625,3.4753,-0.9523,11.758,50.0114,-0.4051,0.2004,-0.3375,191.625
21:36:09:646,2.9665,-0.319,12.3279,50.1232,-0.4495,-0.0667,-0.5327,191.8594
21:36:09:665,2.0232,-0.9715,13.2831,49.6537,-0.1992,0.0649,-0.5833,192.2031
21:36:09:690,1.2882,-1.8645,12.183,50.485,0.0892,0.3506,-0.3774,192.7344
21:36:09:707,1.2762,-1.9387,9.7984,50.9084,0.1358,0.2662,-0.0746,193.4375
21:36:09:725,2.5799,-1.6251,8.3655,49.7935,-0.1177,-0.2422,0.0628,194
21:36:09:746,3.8177,-0.8601,9.134,51.5169,-0.4709,-0.705,-0.0485,194.25
21:36:09:765,3.9913,-0.1071,11.4935,50.2685,-0.5446,-0.602,-0.3359,194.2188
21:36:09:791,2.8755,0.0796,12.5182,49.5794,-0.2985,0.0135,-0.615,194.1875
21:36:09:810,1.062,-0.0964,10.7214,50.3947,-0.024,0.6585,-0.6331,194.25
21:36:09:826,-0.0059,-0.1035,7.8723,49.3389,0.134,0.9749,-0.4371,194.6719
21:36:09:845,-0.2716,0.2759,5.4792,50.331,0.1824,0.866,-0.2323,195.4062
21:36:09:865,0.0899,0.6698,4.1912,51.6766,0.163,0.4646,-0.1079,196.1094
21:36:09:889,0.6753,0.9966,4.081,49.2347,0.1481,0.0177,-0.0922,196.8125
21:36:09:907,1.2295,1.2169,4.6808,48.9771,0.1665,-0.3157,-0.1838,197
21:36:09:925,1.3876,1.2229,5.423,50.1952,0.1928,-0.4648,-0.341,197.0938
21:36:09:946,0.6214,0.8458,6.5602,50.0036,0.1531,-0.4632,-0.4691,197.2188
21:36:09:965,0.1653,0.7033,7.6879,49.3837,0.0053,-0.3346,-0.5018,197.5
21:36:09:990,-0.1998,0.665,8.8491,48.0375,-0.135,-0.1128,-0.4382,197.9219
21:36:10:008,-0.7313,0.7967,9.9851,50.4496,-0.1875,0.0614,-0.313,198.4688
21:36:10:027,-0.6858,0.981,11.3678,50.9844,-0.1348,0.0526,-0.1127,198.75
21:36:10:045,-0.3734,1.4994,11.9843,50.0238,0.0565,0.0191,0.1187,199.4531
21:36:10:066,-0.3459,2.0907,11.8502,49.815,0.2549,0.0297,0.2521,199.7188
21:36:10:093,0.0839,2.3182,12.3949,50.1938,0.2448,0.1147,0.3416,199.7188
21:36:10:109,0.9374,2.2979,13.4675,50.79,0.0743,0.3736,0.4492,199.4688
21:36:10:126,2.3632,2.1147,13.8087,50.2468,-0.0272,0.6889,0.5075,199.1406
21:36:10:149,3.4214,2.2404,14.0541,48.8812,-0.1422,0.8026,0.4897,198.6719
21:36:10:163,3.3376,2.1638,15.833,49.3903,-0.3667,0.4854,0.3773,198.125
21:36:10:185,2.2614,0.8781,17.3557,49.3338,-0.4112,0.3863,0.1179,197.5938
21:36:10:205,0.6813,-0.6434,15.6474,48.076,0.0202,0.6955,-0.0922,197.1094
21:36:10:225,0.1402,-1.1654,11.8634,48.8225,0.5574,1.0729,0.0836,196.8438
21:36:10:244,0.4299,-1.0361,8.8599,48.9793,0.7784,1.0569,0.3909,196.8906
21:36:10:266,1.3014,-1.0828,8.0877,48.03,0.6613,0.3861,0.5286,196.9531
21:36:10:291,1.6006,-0.9224,8.9137,48.3658,0.3984,-0.4784,0.5134,196.6719
21:36:10:306,0.9255,-0.6422,9.6655,46.2849,0.2615,-1.1415,0.3776,196.125
21:36:10:326,0.3365,-0.4016,9.8571,47.7551,0.2645,-1.3988,0.2524,195.25
21:36:10:344,0.2587,-0.2412,9.0921,46.4268,0.2993,-1.1359,0.2372,194.8125
21:36:10:366,0.0899,0.0928,7.6556,46.6067,0.3073,-0.6145,0.2745,194.5156
21:36:10:390,-0.031,0.4388,5.9976,46.1526,0.3031,-0.1687,0.3446,194.25
21:36:10:408,0.0456,0.7775,5.0603,44.5899,0.2599,-0.0001,0.4367,193.9219
21:36:10:424,0.2288,1.0481,4.84,46.3132,0.2152,-0.0622,0.524,193.5
21:36:10:449,0.4167,1.3234,4.9884,45.3958,0.1899,-0.1974,0.5669,193.0156
21:36:10:463,0.6358,1.4802,5.3619,43.7012,0.1734,-0.317,0.5581,192.4062
21:36:10:485,0.7842,1.5114,6.0287,44.4879,0.1595,-0.4094,0.5083,191.75
21:36:10:515,0.8668,1.4024,6.8308,44.6538,0.1561,-0.4646,0.4383,191.0938
21:36:10:525,0.8046,1.2312,7.488,44.7971,0.1968,-0.4781,0.3725,190.5312
21:36:10:544,0.8848,1.2097,7.7502,44.4334,0.2621,-0.4632,0.3376,190.0312
21:36:10:565,1.1086,1.3414,8.3475,43.2901,0.2415,-0.4371,0.3017,189.8125
21:36:10:587,1.3888,1.5161,9.3938,43.2901,0.1276,-0.3266,0.2186,189.4219
21:36:10:608,1.5145,0.9128,10.7441,44.5785,-0.041,-0.1937,0.0503,189.0312
21:36:10:626,1.7335,-0.4016,12.7241,43.9717,-0.2812,-0.1908,-0.1292,188.6094
21:36:10:645,2.1872,-1.4263,14.9471,41.6543,-0.5947,-0.0161,-0.154,188.5625
21:36:10:665,2.4183,-1.8669,15.4535,43.0086,-0.5582,1.2476,0.1123,188.75
21:36:10:690,2.9581,-1.9399,13.7081,42.8034,-0.3294,1.4974,0.1389,188.75
21:36:10:706,3.5555,-1.4635,10.7752,41.919,-0.3907,1.3096,-0.0099,188.9844
21:36:10:724,2.9318,-0.3011,9.4895,42.1,-0.6384,0.7924,-0.2584,189.0781
21:36:10:745,2.3081,-0.0329,10.6244,43.1698,-0.6767,0.3924,-0.4989,188.8594
21:36:10:767,2.3895,-0.7308,11.8275,41.5245,-0.4783,0.259,-0.6595,188.9062
21:36:10:789,2.7271,-1.1283,11.7988,40.8182,-0.3012,0.1877,-0.7575,189.2344
21:36:10:807,2.9713,-1.0086,10.9883,41.6737,-0.3294,-0.1285,-0.9135,189.8281
21:36:10:824,2.7271,-0.5668,10.9799,41.7831,-0.5537,-0.4142,-1.186,190.6094
21:36:10:843,1.6126,-0.4315,12.256,40.1688,-0.6421,-0.1884,-1.4214,191.4531
21:36:10:866,0.206,-0.8517,12.5302,41.5336,-0.4493,0.3738,-1.4129,192.5
21:36:10:889,-0.9875,-0.9248,10.628,39.6401,-0.1656,0.8529,-1.137,194.6719
21:36:10:908,-1.4592,-0.5034,8.0099,40.1982,0.0977,0.972,-0.7498,197.8125
21:36:10:924,-1.197,0.0377,5.6552,40.2199,0.2906,0.7019,-0.3942,197.8125
21:36:10:944,-0.6739,0.58,4.178,40.2815,0.3968,0.2058,-0.1242,198.9375
21:36:10:964,-0.0538,0.8889,3.2383,39.4673,0.3808,-0.3477,0.0543,199.625
21:36:11:047,0.4311,1.5796,2.9821,40.3046,0.2192,-0.8401,0.1097,199.9062
21:36:11:048,1.226,2.4714,4.1181,40.3678,0.0056,-1.1764,-0.0437,199.9219
21:36:11:048,1.8197,2.8174,6.4836,39.2316,-0.0999,-1.2134,-0.2941,199.7812
21:36:11:048,2.101,2.7384,8.6959,40.2324,-0.0719,-1.0065,-0.5157,199.7188
21:36:11:066,2.2722,2.384,10.7154,40.0743,0.0402,-0.5298,-0.6595,199.7344
21:36:11:086,2.1034,2.2176,12.2668,39.5098,0.1909,0.2846,-0.7455,200.0312
21:36:11:107,1.2236,2.4008,12.5098,40.3093,0.3446,0.9474,-0.8355,200.5938
21:36:11:125,0.2599,2.2308,11.7113,39.0984,0.395,1.258,-0.8872,201.2969
21:36:11:144,-0.6559,1.6742,10.9332,38.8646,0.2985,1.2833,-0.7636,202.1406
21:36:11:164,-1.1922,0.9882,10.7178,38.8811,0.1558,1.0308,-0.5066,203.0938
21:36:11:190,-1.5082,0.4591,11.5581,39.0949,0.0581,0.6079,-0.215,204.5312
21:36:11:207,-1.5789,-0.0808,13.2484,38.6176,0.1095,0.442,0.0995,205.2812
21:36:11:224,-1.537,-0.0772,13.5944,37.8927,0.1973,0.3922,0.3656,205.7031
21:36:11:244,-1.6411,0.4783,13.4184,39.4971,0.2131,0.3094,0.5589,205.7812
21:36:11:266,-1.2245,0.0772,13.6459,40.0165,0.3409,0.3211,0.6277,205.5
21:36:11:289,-1.3957,-0.416,12.5577,37.9043,0.4836,0.2918,0.6924,204.9531
21:36:11:308,-1.3179,-0.313,10.792,38.1064,0.3928,0.1227,0.7603,204.2969
21:36:11:324,-0.4751,-0.0162,9.8582,39.5708,0.1324,-0.263,0.6591,203.5625
21:36:11:344,-0.8283,0.07,11.1236,38.4691,-0.0732,-0.7208,0.4415,202.7188
21:36:11:364,-1.3239,-0.2568,11.1427,39.0244,-0.0972,-0.9429,0.3046,201.875
21:36:11:389,-1.2018,-0.4902,9.9061,39.1921,0.029,-0.8363,0.3648,201.2812
21:36:11:407,-0.869,-0.3729,8.3128,39.5228,0.1997,-0.6212,0.5557,200.8906
21:36:11:424,-0.3135,0.1059,6.9912,39.6026,0.3566,-0.4286,0.7802,200.5469
21:36:11:444,0.467,0.507,5.7701,39.1531,0.4815,-0.2808,0.9339,200.0625
21:36:11:464,0.9805,0.7763,5.0052,40.413,0.5164,-0.2449,0.9491,199.2969
21:36:11:483,1.1469,0.8314,4.858,38.9008,0.4586,-0.2816,0.8878,197.7188
21:36:11:507,1.0344,0.7823,5.0088,40.6559,0.3646,-0.2813,0.8133,197.2188
21:36:11:524,0.9231,0.7859,5.2458,39.2512,0.2759,-0.2491,0.7741,195.6406
21:36:11:543,0.9135,0.8158,5.6049,40.5404,0.2075,-0.2198,0.7608,195.1719
21:36:11:563,0.9339,1.0876,6.3424,40.0825,0.1087,-0.2531,0.7499,194.25
21:36:11:584,1.1577,1.2935,7.5993,38.9158,-0.0176,-0.329,0.7153,193.4219
21:36:11:608,1.1733,1.327,8.8263,38.1505,-0.0959,-0.3383,0.6135,192.5469
21:36:11:625,1.2283,1.2923,9.5745,39.6343,-0.106,-0.2781,0.482,191.7188
21:36:11:648,1.354,1.2372,10.1827,40.5732,-0.118,-0.1844,0.3533,191
21:36:11:663,1.6701,1.0385,11.3414,39.5989,-0.2338,-0.1213,0.2114,190.3906
21:36:11:685,1.9562,0.592,12.8761,39.5214,-0.4333,-0.007,0.0231,189.9219
21:36:11:709,1.9538,-0.2364,14.1427,40.141,-0.571,0.1664,-0.1716,189.6094
21:36:11:726,2.1956,-1.0313,13.8805,39.8595,-0.5308,0.4103,-0.2714,189.5156
21:36:11:744,2.5918,-0.9439,12.3638,40.3592,-0.4144,0.6801,-0.2576,189.6406
21:36:11:764,2.4829,-0.1742,11.5653,38.8285,-0.4487,0.666,-0.2848,190.1094
21:36:11:790,2.0005,-0.1287,12.6834,38.5998,-0.5976,0.3373,-0.4392,190.4219
21:36:11:807,1.5192,-1.1594,13.8937,38.2644,-0.5814,0.0433,-0.6222,190.7812
21:36:11:825,0.9722,-1.8549,13.3634,39.0292,-0.3366,0.0657,-0.6563,191.3125
21:36:11:844,1.3696,-1.9076,11.9197,38.8785,-0.0839,0.1874,-0.4621,192.0156
21:36:11:864,2.5164,-1.3138,10.9823,38.3535,0.0389,0.0228,-0.2043,192.7812
21:36:11:889,3.2323,-0.4088,10.6651,38.9166,0.0658,-0.2986,-0.105,193.3125
21:36:11:910,3.1245,0.1658,9.608,38.2574,0.1366,-0.3852,-0.223,193.5469
21:36:11:925,2.4302,0.3753,7.7741,37.0961,0.2431,-0.2406,-0.4483,193.6562
21:36:11:944,1.6808,0.4567,5.842,37.6809,0.2554,-0.0038,-0.6043,193.8906
21:36:11:965,1.1793,0.8649,4.5766,39.0497,0.1212,0.2271,-0.6347,194.3906
21:36:11:990,0.9638,1.3474,4.4952,39.3517,-0.0914,0.2995,-0.6081,195.0312
21:36:12:006,0.9758,1.4695,5.1093,38.0701,-0.236,0.1978,-0.6019,195.7656
21:36:12:024,1.0703,1.6023,5.5439,37.6293,-0.2301,0.0912,-0.6139,196.1094
21:36:12:044,1.0991,1.7675,5.654,37.8779,-0.1561,0.0462,-0.6499,196.7812
21:36:12:065,0.8943,1.9639,5.8958,37.8998,-0.1526,-0.0201,-0.7724,197.8438
21:36:12:084,0.613,2.0907,6.7589,35.9611,-0.1665,-0.0635,-0.811,197.8438
21:36:12:106,0.2551,2.0345,7.9585,37.3151,-0.1515,-0.0699,-0.7926,199.375
21:36:12:124,-0.116,1.9974,9.1424,37.5516,-0.1326,-0.0784,-0.693,200.2656
21:36:12:142,0.0205,1.8274,10.5286,37.6013,-0.1039,-0.0664,-0.5838,201.2031
21:36:12:166,0.3174,1.637,11.7341,35.1017,-0.1132,0.042,-0.5274,202.125
21:36:12:190,-0.0059,1.4874,12.6762,37.4858,-0.1947,0.197,-0.4651,202.875
21:36:12:207,-1.033,1.0588,13.8183,35.5029,-0.1942,0.2923,-0.2741,203.5469
21:36:12:224,-1.9572,0.3597,14.7352,36.3446,0.0064,0.2124,0.0995,204.1562
21:36:12:250,-1.8614,-0.0437,14.4575,37.2149,0.2173,-0.1221,0.5595,204.6719
21:36:12:262,-1.0593,0.489,14.1822,36.4207,0.2969,-0.6734,0.9147,205
21:36:12:284,0.0492,0.8589,15.0285,36.1589,0.371,-0.9727,1.041,204.9062
21:36:12:307,0.7794,0.6458,15.645,36.0114,0.6112,-0.8025,1.0279,204.2812
21:36:12:325,1.2774,0.1694,14.5401,36.5376,0.8517,-0.2531,0.964,202.6094
21:36:12:342,1.5204,-0.064,11.5737,34.5229,0.8216,0.1751,0.8641,201.375
21:36:12:364,1.5324,-0.0102,8.7366,34.9187,0.4764,0.0779,0.7493,200.2188
21:36:12:385,1.4486,0.155,7.7968,37.7764,0.0442,-0.2824,0.683,199.1094
21:36:12:408,1.4235,0.2532,8.5953,36.5096,-0.1936,-0.4907,0.6151,198.1406
21:36:12:426,1.1841,0.1646,9.5721,36.1986,-0.1507,-0.3626,0.5491,197.3125
21:36:12:446,0.5532,0.07,9.5841,37.7971,0.0735,-0.027,0.5925,196.6094
21:36:12:463,0.2359,0.1035,8.1452,37.0046,0.2426,0.2196,0.7163,195.9688
21:36:12:484,0.1988,0.41,6.5722,36.1986,0.2384,0.2739,0.8511,195.6719
21:36:12:507,0.5663,0.9762,6.1365,38.8749,0.1611,0.2681,0.9009,195.0156
21:36:12:526,1.2224,1.4467,6.9026,37.9646,0.1798,0.2667,0.8,194.1719
21:36:12:543,1.7718,1.4527,7.6029,40.1828,0.3097,0.2532,0.6274,193.1719
21:36:12:562,2.0232,1.4898,8.0339,39.1886,0.4461,0.357,0.4782,192.125
21:36:12:583,1.9717,1.5437,7.9034,40.1702,0.4988,0.5357,0.3563,191.25
21:36:12:606,1.6401,1.5628,7.3994,39.0633,0.4509,0.5632,0.2615,190.1875
21:36:12:622,1.3864,1.6263,7.4353,39.2379,0.3494,0.4798,0.1712,189.6719
21:36:12:644,1.5156,1.5676,8.2182,38.8592,0.3063,0.4138,0.0401,189.2969
21:36:12:664,1.6378,1.3198,9.0586,38.8592,0.3595,0.4537,-0.133,189.0156
21:36:12:684,1.3744,1.0517,9.0334,39.3363,0.3827,0.4702,-0.2949,188.8594
21:36:12:704,0.8129,0.7919,8.8048,40.0552,0.2794,0.3349,-0.3929,188.875
21:36:12:722,0.2778,0.6518,9.2034,41.6264,0.0961,0.0622,-0.4155,189.0938
21:36:12:743,0.4442,-0.2352,11.6575,40.5352,-0.0399,-0.1269,-0.4219,189.4531
21:36:12:764,1.0201,-0.8876,11.9352,40.8905,-0.1601,-0.0052,-0.3953,189.8906
21:36:12:784,1.9574,-0.7009,11.4935,43.3237,-0.3928,0.3224,-0.3481,190.375
21:36:12:808,2.4733,0.4519,12.3195,43.1861,-0.8607,0.5459,-0.4296,190.8594
21:36:12:825,1.8963,0.6099,15.2392,42.3321,-1.4261,0.5834,-0.7162,191.2812
21:36:12:842,0.5412,-0.6339,17.048,41.3529,-1.5127,0.667,-1.0312,191.6719
21:36:12:862,-0.292,-1.2851,14.9878,43.7434,-0.9734,0.9791,-0.9961,192.2969
21:36:12:883,0.7136,-0.987,11.2026,44.5408,-0.3124,1.116,-0.5479,193.3281
21:36:12:908,2.3991,0.1407,8.6504,43.6715,0.0916,0.5363,-0.1383,195.0469
21:36:12:924,3.6549,1.4204,8.0973,44.5241,0.245,-0.5519,-0.0866,195.4375
21:36:12:943,3.6764,1.5006,8.5259,45.5848,0.3204,-1.5407,-0.3857,195.8438
21:36:12:966,2.3692,0.9511,9.1603,45.4325,0.3755,-1.8467,-0.8174,195.9375
21:36:12:991,1.1493,0.2759,9.1771,46.8734,0.448,-1.4118,-1.0744,196.0938
21:36:13:008,0.5867,0.2987,7.5239,46.2789,0.5611,-0.4512,-1.0976,196.7812
21:36:13:025,0.5951,0.6171,5.1752,47.1937,0.6354,0.401,-1.048,197.9062
21:36:13:043,0.2826,0.8254,3.5076,46.2558,0.5912,0.744,-1.0842,199.0938
21:36:13:126,-0.2333,0.8481,3.0419,45.6342,0.4376,0.6167,-1.157,200.2812
21:36:13:126,-0.7888,0.6889,3.5316,46.3727,0.2626,0.2899,-1.1852,201.4531
21:36:13:126,-1.3598,0.5082,4.5108,48.5806,0.1249,-0.0241,-1.157,202.6406
21:36:13:127,-1.7536,0.5381,6.0203,48.1799,0.0165,-0.3109,-1.0493,203.9688
21:36:13:144,-1.6746,0.823,8.0087,46.6137,-0.0618,-0.5588,-0.8877,205.3125
21:36:13:163,-1.543,1.3318,9.9624,47.9764,-0.0527,-0.6965,-0.7362,206.5938
21:36:13:184,-1.3801,1.7759,11.6707,49.7617,0.0887,-0.8291,-0.6248,207.6562
21:36:13:207,-0.5889,1.9782,12.5146,49.5198,0.3294,-0.8752,-0.492,209.0312
21:36:13:226,0.0133,2.2368,12.4751,49.6472,0.5151,-0.7272,-0.3729,209.7344
21:36:13:242,-0.1555,2.5313,12.1292,49.3638,0.5004,-0.3562,-0.3117,210.3281
21:36:13:265,-0.4668,2.5648,11.9125,49.9594,0.2871,0.1094,-0.2496,210.75
21:36:13:282,-0.3315,2.3242,11.6898,50.7651,-0.0021,0.5477,-0.1263,211.0938
21:36:13:309,-0.3518,2.39,11.5043,51.496,-0.2711,0.7735,0.0295,211.3438
21:36:13:325,-0.0166,2.7228,13.4496,51.0209,-0.5249,0.4028,0.2146,211.4688
21:36:13:343,0.2958,2.2895,16.7009,50.7063,-0.6011,-0.3205,0.3302,211.3906
21:36:13:364,-0.1388,1.1283,17.6035,52.5484,-0.232,-0.5359,0.3081,211.1719
21:36:13:385,-0.6451,0.0964,14.4491,52.9161,0.4218,-0.1013,0.3411,210.8125
21:36:13:409,-0.7409,0.0772,10.2521,51.6588,0.8131,0.5,0.5352,210.5
21:36:13:424,-0.7325,0.5788,7.7298,52.8053,0.6935,0.642,0.7046,210.0938
21:36:13:452,-0.7768,0.7967,7.6209,51.1945,-0.1297,-0.2113,0.7858,208.5781
21:36:13:463,-0.6296,0.5585,9.0694,52.7957,-0.2253,-0.3572,0.8396,208.5781
21:36:13:483,-0.3782,0.2316,9.7266,52.243,-0.0509,-0.1745,0.9097,207.6875
21:36:13:508,-0.3626,0.2556,8.6695,51.029,0.1542,0.0931,1.025,206.8438
21:36:13:524,-0.2285,0.5417,6.8404,51.9155,0.2149,0.1261,1.1528,205.9219
21:36:13:542,0.0276,0.9212,5.8647,50.924,0.1691,-0.0185,1.2356,204.8906
21:36:13:562,0.3999,1.1546,5.8922,52.2609,0.118,-0.1221,1.2687,203.7656
21:36:13:582,0.6813,1.1438,6.5985,53.3265,0.127,-0.003,1.2876,202.4219
21:36:13:606,0.9147,1.2229,6.8966,55.0188,0.1803,0.1951,1.3097,201
21:36:13:625,1.3876,1.5592,6.6093,53.0274,0.2152,0.2436,1.2487,199.5469
21:36:13:649,1.8604,1.9232,6.4034,53.2004,0.1918,0.104,1.0751,198.1406
21:36:13:662,2.1118,2.22,6.7362,52.0767,0.1531,-0.1394,0.834,196.6094
21:36:13:682,2.0208,2.22,7.4976,52.5432,0.1254,-0.3109,0.5784,195.1562
21:36:13:707,1.548,1.8837,8.5175,53.5093,0.1233,-0.3303,0.3986,193.9688
21:36:13:727,1.3876,1.4958,9.28,54.0757,0.1207,-0.1652,0.2982,193.0156
21:36:13:742,1.712,1.2659,9.3579,52.7803,-0.0019,-0.0949,0.2058,192.375
21:36:13:768,2.3273,0.993,9.8882,54.1048,-0.2176,-0.2427,0.0881,191.6094
21:36:13:781,3.1138,0.3585,11.3247,54.3059,-0.404,-0.3833,-0.0536,191.4688
21:36:13:804,3.6968,-0.3286,12.7409,53.8173,-0.5079,-0.2353,-0.1439,191.3125
21:36:13:824,4.3815,-1.2767,12.833,54.5585,-0.5824,0.1365,-0.1524,191.3281
21:36:13:843,4.6497,-1.0995,11.3462,52.9915,-0.804,0.409,-0.1705,191.5156
21:36:13:862,4.4988,0.094,10.1922,55.1359,-1.1438,0.279,-0.3916,191.7344
21:36:13:882,3.6944,0.7416,10.9392,52.8648,-1.2815,-0.0318,-0.7561,192.0625
21:36:13:908,2.5368,0.082,12.584,52.8289,-1.0546,-0.157,-0.9535,192.2812
21:36:13:924,1.5564,-1.1271,12.9049,55.5145,-0.6647,-0.0052,-0.7849,193.0156
21:36:13:942,1.3552,-1.3653,11.5605,54.0304,-0.3872,0.1006,-0.4043,194.1406
21:36:13:964,2.447,-0.252,10.0043,52.8193,-0.3225,-0.1991,-0.2563,195.1875
21:36:13:983,3.4214,1.3509,9.7254,55.7122,-0.3473,-0.5753,-0.5436,195.6094
21:36:14:005,3.2371,1.7388,9.9995,54.0668,-0.3553,-0.562,-0.9862,196.0938
21:36:14:022,2.423,1.2013,9.7744,54.0811,-0.3492,-0.1008,-1.2957,196.4219
21:36:14:042,1.5336,0.7596,8.6623,55.6584,-0.322,0.3949,-1.4209,197.0312
21:36:14:063,0.8537,0.6506,7.0762,54.6679,-0.2967,0.5192,-1.464,198.1719
21:36:14:083,0.2407,0.6602,6.146,53.0435,-0.289,0.3083,-1.4459,199.6875
21:36:14:107,-0.1579,0.507,6.4321,55.3641,-0.1992,0.0564,-1.3506,202.125
21:36:14:125,-0.3087,0.3729,7.2139,54.1971,0.0314,-0.0177,-1.2206,203.8438
21:36:14:144,-0.116,0.3059,6.4693,55.4664,0.3039,0.0968,-1.1024,205.4688
21:36:14:162,-0.0442,0.6841,5.5894,55.625,0.3806,0.2313,-1.0246,206.875
21:36:14:182,0.2012,1.1666,6.0574,56.2626,0.1902,0.2454,-1.0067,208.1875
21:36:14:207,0.4371,1.5473,8.3283,55.5057,-0.1289,0.1336,-1.0653,209.375
21:36:14:224,0.1426,1.3988,11.1595,56.3899,-0.3443,0.1584,-1.2105,210.4531
21:36:14:242,-0.6439,0.6291,12.5613,57.016,-0.3585,0.5032,-1.3516,211.625
21:36:14:262,-1.4987,0.2472,12.0825,57.3906,-0.2839,1.1288,-1.309,212.9375
21:36:14:282,-1.7776,0.6147,11.0422,55.2461,-0.3119,1.6889,-1.0462,214.4531
21:36:14:306,-1.9224,1.09,10.9691,57.6938,-0.4669,1.8372,-0.7577,215.9531
21:36:14:326,-2.3235,0.9296,12.286,56.8159,-0.5875,1.4266,-0.5521,217.3594
21:36:14:341,-2.418,0.2927,14.1175,56.0938,-0.5268,0.7983,-0.2461,218.4219
21:36:14:361,-2.1307,0.6399,14.3366,55.6994,-0.229,0.4649,0.2836,219.1562
21:36:14:382,-1.4053,2.1015,13.4412,57.845,0.1185,0.2689,0.8279,219.7656
21:36:14:401,-0.1543,1.8585,13.7764,56.3038,0.2879,-0.0038,1.049,219.4531
21:36:14:425,-0.3854,0.5417,12.1172,56.4795,0.5771,0.0598,0.8844,218.5625
21:36:14:442,-0.5625,0.3442,8.5211,57.0441,0.8898,0.3802,0.7853,217.3594
21:36:14:466,0.0432,0.8098,6.4932,53.9463,0.7238,0.3805,0.7627,216.3594
21:36:14:481,0.5639,0.5656,7.5526,55.0181,0.1081,-0.2715,0.5134,215.9375
21:36:14:503,-0.4129,-0.7141,12.0047,55.5191,-0.6879,-1.1479,0.0809,215.1094
21:36:14:522,-1.5441,-2.1027,16.2699,54.2196,-1.1132,-1.3365,-0.1604,214.3438
21:36:14:543,-2.3067,-2.5804,15.6857,54.7857,-0.7694,-0.7098,-0.0459,214
21:36:14:562,-2.7293,-2.0907,12.3351,53.8437,-0.0799,-0.0076,0.291,214.0625
21:36:14:582,-1.9129,-1.637,8.7845,53.0968,0.4991,0.3269,0.7592,214.1875
21:36:14:608,-1.0462,-1.0708,6.1005,53.4903,0.8626,0.258,1.1182,214.0625
21:36:14:625,-0.3028,-0.5752,4.7454,53.4346,0.9931,0.0004,1.3081,213.4688
21:36:14:641,0.4155,-0.1873,4.3372,52.6018,0.9561,-0.2688,1.3669,212.4219
21:36:14:662,0.8249,0.0569,4.3061,53.2218,0.8501,-0.4249,1.3118,210.25
21:36:14:683,1.1014,0.258,4.3456,54.0409,0.7065,-0.427,1.1984,208.7656
21:36:14:708,1.4378,0.683,4.7478,52.4429,0.5129,-0.3626,1.0599,207.2656
21:36:14:726,1.6114,0.9966,5.6696,52.1851,0.2961,-0.3727,0.8457,205.9062
21:36:14:743,1.2882,1.0098,6.7757,52.2845,0.1121,-0.4273,0.5526,204.6875
21:36:14:762,0.7854,0.9379,7.9668,52.2845,-0.025,-0.3737,0.2886,203.7812
21:36:14:782,0.2934,0.8087,8.6971,51.6608,-0.1055,-0.1873,0.1139,203.1562
21:36:14:807,-0.0083,0.8027,9.2154,50.9579,-0.1633,-0.0062,0.0194,202.8281
21:36:14:824,-0.122,0.6818,10.0079,50.6414,-0.2346,0.0473,-0.0304,202.7188
21:36:14:842,0.1462,0.3945,10.8794,50.6648,-0.3558,-0.1527,-0.0784,202.7031
21:36:14:862,0.5831,-0.0664,11.8598,51.5637,-0.3824,-0.2768,-0.1005,202.75
21:36:14:883,1.5013,-0.7141,12.1387,50.6011,-0.4746,-0.3045,-0.1415,202.8125
21:36:14:907,2.3955,-0.6973,11.8957,51.0391,-0.7681,-0.472,-0.2997,202.9062
21:36:14:925,2.6361,-0.3633,13.0114,50.2353,-1.1401,-0.8563,-0.5729,203.0469
21:36:14:942,1.9358,-0.8362,16.9642,50.4257,-1.0413,-0.8568,-0.7495,203.2344
21:36:14:966,0.8165,-2.2739,19.8959,50.2684,-0.2919,-0.121,-0.5631,203.5938
21:36:14:981,0.4191,-3.0257,16.7523,49.9412,0.3776,0.6425,-0.0246,204.2969
21:36:15:001,1.6054,-2.5121,11.7137,50.2005,0.5207,0.6985,0.4705,205.2031
21:36:15:024,3.2897,-0.9451,8.5067,50.4208,0.2748,0.1381,0.5701,205.8438
21:36:15:041,3.9601,0.8493,8.5462,52.2608,0.106,-0.3061,0.336,205.8594
21:36:15:065,4.0667,1.3186,9.1436,49.1858,0.1907,-0.2025,-0.0406,205.3125
21:36:15:080,3.4071,1.2216,8.2457,50.7172,0.3047,0.1887,-0.3359,204.6406
21:36:15:102,2.7391,1.2121,6.1867,50.8025,0.2413,0.5765,-0.5457,204.2656
21:36:15:127,2.1333,1.3354,4.5898,51.5565,0.029,0.7384,-0.734,204.3125
21:36:15:206,1.2535,1.4168,4.202,50.8423,-0.1268,0.7118,-0.8504,204.6719
21:36:15:206,0.6046,1.2815,4.5575,50.6923,-0.1252,0.5834,-0.8824,205.2656
21:36:15:207,0.2012,1.1019,5.089,51.5275,-0.0178,0.4287,-0.8611,206.0938
21:36:15:207,-0.1543,1.2216,5.5044,50.2301,0.114,0.2694,-0.8259,208.0469
21:36:15:225,-0.3889,1.3318,5.6002,51.3016,0.1702,0.0247,-0.8057,208.5469
21:36:15:245,-0.5721,1.4419,6.1807,51.6701,0.1196,-0.2949,-0.8081,209.5
21:36:15:268,-0.6655,1.4874,7.5443,51.9135,0.0405,-0.5154,-0.8211,210.4375
21:36:15:280,-0.9648,1.3904,9.1484,52.8737,-0.0091,-0.6531,-0.7934,211.3125
21:36:15:301,-1.4196,1.1486,11.1188,51.3654,0.0551,-0.5903,-0.6435,212.2344
21:36:15:322,-1.3239,1.0002,12.4129,51.0471,0.1989,-0.2779,-0.4366,213.1875
21:36:15:341,-0.9803,1.4036,12.2489,51.496,0.2288,0.1048,-0.2832,214.0312
21:36:15:362,-0.4129,2.2093,11.6276,49.8992,0.0908,0.3384,-0.276,214.5938
21:36:15:382,0.4335,2.6342,11.454,52.1898,-0.0791,0.4729,-0.4555,214.9844
21:36:15:401,0.6825,2.4499,11.3307,51.8772,-0.2594,0.5712,-0.696,215.2812
21:36:15:422,-0.1531,1.7603,11.1571,51.328,-0.587,0.557,-0.7218,215.6406
21:36:15:444,-1.2952,1.5197,12.6607,51.9699,-0.9159,0.3216,-0.4821,216.3125
21:36:15:463,-1.7716,1.0983,15.9826,52.0924,-0.8637,0.1687,-0.2688,217.1719
21:36:15:481,-2.2385,-0.4112,18.9502,51.9201,-0.1217,0.2678,-0.0083,217.8594
21:36:15:504,-2.7796,-1.9734,17.1701,51.6736,0.6988,0.5331,0.4548,218.1094
21:36:15:521,-2.6443,-2.5217,13.0749,50.9654,1.012,0.5956,0.9515,218.4219
21:36:15:542,-1.2042,-1.8202,8.4672,51.9797,0.8421,0.2361,1.1845,218.2656
21:36:15:563,-1.0749,-0.993,9.3615,52.6188,0.4304,-0.2702,1.2937,217.4844
21:36:15:582,-0.383,-0.7619,10.3922,51.1302,0.1664,-0.566,1.3848,216.2188
21:36:15:608,0.1881,-0.6243,10.0342,51.601,0.1859,-0.5066,1.4117,214.7969
21:36:15:626,0.2323,-0.3071,8.5522,52.6874,0.3278,-0.2837,1.4042,213.3438
21:36:15:643,0.2838,0.1251,7.0199,51.7652,0.453,-0.1213,1.4308,211.7344
21:36:15:661,0.6765,0.5225,6.255,51.9808,0.5023,-0.1226,1.4913,210.1406
21:36:15:681,1.202,0.8458,6.1987,51.511,0.535,-0.271,1.5022,208.6094
21:36:15:701,1.6665,0.9463,6.2729,50.6162,0.6101,-0.4355,1.4418,206.9219
21:36:15:726,1.785,1.0193,6.073,49.6634,0.7161,-0.508,1.3174,205.1875
21:36:15:742,1.8461,1.0828,5.5235,51.0363,0.779,-0.4473,1.1739,203.5
21:36:15:761,1.9382,1.1414,4.9609,50.4836,0.7409,-0.357,1.0178,201.9844
21:36:15:781,1.9993,1.2935,4.9358,50.8872,0.5774,-0.3314,0.8439,200.5625
21:36:15:801,2.028,1.4647,5.6995,51.0845,0.3377,-0.3812,0.6481,199.2969
21:36:15:827,1.9646,1.4527,6.8104,49.5811,0.119,-0.4643,0.4087,197.8125
21:36:15:844,1.7371,1.2983,7.8447,51.6664,-0.0362,-0.4411,0.1475,197.0781
21:36:15:861,1.5504,1.0181,8.484,50.926,-0.1324,-0.2904,-0.0903,196.625
21:36:15:882,1.4546,0.8865,8.8431,50.683,-0.2405,-0.0986,-0.2826,196.5
21:36:15:902,1.597,0.7668,9.863,50.1265,-0.4312,-0.1069,-0.452,196.6406
21:36:15:924,1.6796,0.2843,11.8682,50.9138,-0.6815,-0.2896,-0.6592,196.9844
21:36:15:943,2.0843,-0.6794,13.2413,51.2979,-0.8602,-0.2424,-0.8424,197.2344
21:36:15:962,2.2483,-0.8829,13.3993,51.6136,-1.0019,0.0974,-0.9695,197.875
21:36:15:982,2.2555,-0.4423,13.9044,51.8043,-1.2141,0.394,-1.0544,198.8281
21:36:16:001,1.4905,-0.3717,15.408,52.7413,-1.404,0.4921,-1.2126,199.9531
21:36:16:025,0.1557,-1.1151,16.2759,51.0325,-1.3151,0.6585,-1.3671,201.1094
21:36:16:043,-0.6044,-1.9483,14.9591,51.822,-0.9393,1.0202,-1.2571,203.25
21:36:16:062,-0.3279,-2.0441,12.4009,50.9865,-0.5164,1.3395,-0.856,204.8906
21:36:16:081,0.8237,-1.6191,10.2832,51.1251,-0.2288,1.213,-0.3892,206.3125
21:36:16:101,2.0867,-0.6542,9.9349,51.5922,-0.0834,0.5903,-0.0416,207.3125
21:36:16:125,3.3101,0.2508,10.1228,50.6095,0.0932,-0.1271,0.1094,207.7812
21:36:16:141,3.9494,0.9044,9.0406,51.5922,0.3979,-0.5546,-0.0168,207.8438
21:36:16:169,3.8811,1.1905,7.172,50.0858,0.6266,-0.6124,-0.3223,207.7188
21:36:16:180,3.5663,1.2121,5.5056,51.0974,0.6408,-0.4733,-0.6534,207.7344
21:36:16:202,2.9977,1.1187,4.5539,49.6728,0.461,-0.2906,-0.9652,208.0781
21:36:16:227,2.2543,0.9463,4.3552,50.0614,0.1689,-0.0861,-1.2009,208.7812
21:36:16:245,1.6318,0.8158,4.8831,49.1085,-0.3273,0.3123,-1.3388,209.875
21:36:16:262,1.2786,0.7739,5.6492,48.9193,-0.3297,0.3845,-1.3223,209.875
21:36:16:282,1.044,0.7069,6.2993,49.6657,-0.2333,0.3695,-1.3061,211.25
21:36:16:301,0.5616,0.7177,6.5554,48.98,-0.1798,0.3224,-1.2653,212.6719
21:36:16:323,0.2,0.8709,6.7625,49.372,-0.2429,0.1682,-1.2382,215.7344
21:36:16:343,-0.1208,1.005,7.7226,48.6975,-0.3294,-0.0084,-1.243,217.2344
21:36:16:361,-0.2202,1.0301,9.5602,49.6201,-0.2863,-0.0656,-1.2565,218.6094
21:36:16:380,-0.3842,0.9475,10.7513,48.8911,-0.1665,0.0966,-1.2776,220.0312
21:36:16:400,-0.9468,0.9954,10.6519,49.4638,-0.1617,0.2638,-1.2525,221.4688
21:36:16:425,-1.3383,1.1941,10.5322,49.6942,-0.2767,0.4239,-1.1974,222.8281
21:36:16:442,-1.8099,1.2492,10.5394,49.7659,-0.4511,0.5352,-1.1117,224.2969
21:36:16:461,-2.3474,1.2372,10.8997,49.2848,-0.6085,0.4407,-0.941,225.7344
21:36:16:481,-2.187,0.9224,11.867,50.7257,-0.7097,0.1751,-0.7303,227.0469
21:36:16:503,-1.264,0.5836,13.1275,48.9295,-0.8064,-0.3785,-0.5623,228.3281
21:36:16:526,-0.6834,0.4148,15.7947,48.6759,-0.8155,-1.0092,-0.4451,229.4219
21:36:16:544,-0.6679,0.021,20.1593,47.9285,-0.4107,-1.0054,-0.3087,230.25
21:36:16:561,-0.8546,-0.8254,22.6277,47.3233,0.5819,-0.3282,-0.0352,230.8438
21:36:16:581,-0.4644,-1.7615,19.2902,47.1637,1.5412,0.5171,0.3467,231.5
21:36:16:602,1.0404,-1.9866,13.0066,47.2917,1.8754,0.8574,0.576,231.6719
21:36:16:625,2.9557,-1.9196,8.0399,47.6507,1.6477,0.4601,0.5371,231.4688
21:36:16:642,4.1912,-1.005,6.0419,45.9237,1.1135,-0.3263,0.2721,230.8906
21:36:16:661,4.5946,0.0377,6.9158,46.5839,0.5768,-0.9354,-0.2328,230.2188
21:36:16:682,3.8129,-0.1048,9.116,46.8643,0.3137,-1.0014,-0.7215,229.7344
21:36:16:701,2.5559,-0.9619,10.0522,46.3261,0.2701,-0.554,-0.9322,229.7031
21:36:16:726,1.3493,-1.491,9.6619,45.7274,0.306,0.0497,-0.8928,230.2969
21:36:16:743,0.3844,-1.2767,8.4876,44.1913,0.3941,0.4532,-0.7181,231.25
21:36:16:761,0.1617,-0.8254,6.8451,44.2432,0.4179,0.454,-0.5529,232.3281
21:36:16:783,0.3185,-0.3394,5.915,44.9556,0.3441,0.2604,-0.4707,233.2344
21:36:16:800,0.4801,0.0198,5.8599,44.5134,0.285,0.0705,-0.4251,233.9062
21:36:16:823,0.6753,0.1993,6.1724,43.9372,0.2991,-0.0891,-0.3985,234.1719
21:36:16:842,0.7447,0.4471,6.3639,43.9372,0.3611,-0.2193,-0.3905,234.6875
21:36:16:860,0.886,0.6818,6.1831,43.4067,0.396,-0.3466,-0.4187,235.1562
21:36:16:885,1.1445,0.9367,6.0718,45.1848,0.3521,-0.4475,-0.5005,235.625
21:36:16:909,1.3504,1.1103,6.1712,43.2629,0.2695,-0.4989,-0.6312,236.2969
21:36:16:926,1.5887,1.3773,6.2669,42.7434,0.1561,-0.5389,-0.839,236.8281
21:36:16:941,1.0967,1.3629,6.7518,43.5898,-0.0128,-0.5407,-1.088,237.4531
21:36:16:962,0.6214,1.1343,7.3862,43.2646,-0.2362,-0.4475,-1.2872,238.3125
21:36:16:981,0.1797,0.4866,8.4469,43.5624,-0.4778,-0.3375,-1.4139,239.4688
21:36:17:003,-0.371,-0.0856,9.8834,42.5512,-0.7153,-0.2166,-1.447,240.875
21:36:17:024,-0.3746,-0.4771,11.5797,42.2727,-0.9159,-0.1359,-1.3442,242.4062
21:36:17:042,-0.0358,-0.7643,13.6997,42.705,-1.0115,-0.1977,-1.1974,244.1094
21:36:17:066,1.0548,-1.1522,14.5617,40.6446,-0.9204,-0.1642,-1.0427,245.7812
21:36:17:079,1.706,-0.999,13.4232,42.1959,-0.6999,0.0284,-0.9508,247.2188
21:36:17:100,1.3684,-0.343,13.2927,43.0256,-0.6671,-0.0441,-0.9809,248.5625
21:36:17:125,1.0296,-0.6482,15.1147,41.7637,-0.7784,-0.3173,-1.0842,249.7188
21:36:17:142,0.3856,-1.582,16.0485,41.3031,-0.6969,-0.2749,-1.1716,250.8438
21:36:17:162,0.0648,-2.0871,14.4731,40.88,-0.3681,0.2441,-1.0312,252
21:36:17:186,0.9937,-1.7077,11.4396,40.3673,0.0152,0.7128,-0.6565,254.0469
21:36:17:199,2.5368,-0.9355,9.1927,41.2525,0.2402,0.6447,-0.3407,255.1875
21:36:17:275,3.2443,0.0126,8.6456,41.0505,0.2615,0.1227,-0.3127,255.9375
21:36:17:276,3.1964,0.4112,8.7773,40.041,0.2178,-0.358,-0.4928,256.2969
21:36:17:276,2.5392,0.3956,8.2206,40.2622,0.2464,-0.4576,-0.7607,256.6562
21:36:17:279,1.8018,0.3897,6.7841,40.2161,0.3116,-0.2451,-0.9495,257.1875
21:36:17:302,1.3062,0.6434,5.2578,40.6773,0.2655,0.0889,-1.0336,257.5938
21:36:17:324,0.947,0.9631,4.6197,39.7842,0.0772,0.2819,-1.0795,258.5781
21:36:17:342,0.7722,1.1151,5.0663,39.4948,-0.1302,0.2683,-1.1218,259.7188
21:36:17:367,0.7028,1.0373,5.8324,39.3203,-0.2272,0.1344,-1.1543,260.8438
21:36:17:379,0.6011,1.1642,6.4657,37.9541,-0.212,0.0308,-1.1748,262.1094
21:36:17:400,0.637,1.4383,7.1803,40.3104,-0.176,-0.003,-1.1846,263.4062
21:36:17:425,0.7651,1.6083,7.8016,38.4131,-0.1422,0.0271,-1.2211,264.6875
21:36:17:444,0.4742,1.6777,8.2553,38.4082,-0.1284,0.0987,-1.3064,266.0469
21:36:17:460,-0.0933,1.6849,8.9604,38.2541,-0.151,0.1778,-1.3769,268.125
21:36:17:481,-1.015,1.6466,9.8151,38.2273,-0.1744,0.2881,-1.3878,269.5469
21:36:17:501,-2.2444,1.4467,10.4664,38.3467,-0.1369,0.3914,-1.3151,271.125
21:36:17:526,-2.6132,1.1905,10.9823,37.8533,-0.0469,0.3842,-1.0832,272.7188
21:36:17:541,-2.3187,1.5257,11.3558,38.5228,0.0306,0.3461,-0.7428,274.1406
21:36:17:560,-1.8099,1.9639,12.7648,36.3202,-0.0056,0.1914,-0.4957,275.3906
21:36:17:581,-1.1455,1.6765,14.3462,37.4472,-0.0786,0.1397,-0.3979,276.2344
21:36:17:601,-0.9935,1.0397,14.4216,37.1431,-0.0623,0.3837,-0.4033,276.7812
21:36:17:626,-1.3754,1.0289,13.7871,37.4419,-0.073,0.7078,-0.3724,277.2188
21:36:17:645,-1.1575,0.6734,15.0489,37.4251,-0.1694,0.4457,-0.1508,277.6719
21:36:17:664,-1.4891,-0.5213,16.6709,37.6681,0.3803,0.4004,0.0103,278.0781
21:36:17:681,-1.4975,-1.7639,15.1806,35.2189,0.9766,0.549,0.3323,278.3125
21:36:17:702,-0.456,-2.2128,11.533,36.4919,1.1047,0.4297,0.5765,278.4844
21:36:17:725,1.3109,-2.1338,8.8407,37.2761,0.7649,-0.1623,0.5089,278.1406
21:36:17:740,1.9837,-1.6346,8.9161,36.4801,0.2248,-0.8142,0.2585,277.8281
21:36:17:764,1.4151,-1.3342,11.2289,35.8858,-0.0956,-0.8529,0.0511,277.4844
21:36:17:780,0.4706,-1.5137,12.9827,36.141,-0.0216,-0.3572,0.0271,276.9375
21:36:17:803,-0.3925,-1.6777,12.1854,36.7001,0.2762,0.2372,0.2417,276.7031
21:36:17:825,-0.7948,-1.406,9.3662,36.2682,0.5148,0.4918,0.5898,276.6875
21:36:17:842,-0.7744,-0.6829,6.668,36.6577,0.6298,0.3552,0.9326,276.6719
21:36:17:859,-0.2142,0.1682,5.0531,36.4919,0.6772,-0.0169,1.1733,276.3906
21:36:17:879,0.7675,0.8853,4.6066,35.4951,0.7231,-0.4225,1.2514,275.7188
21:36:17:900,1.6078,1.5796,4.7215,36.2011,0.7862,-0.7285,1.1651,274.6406
21:36:17:926,2.4123,2.1937,4.9453,36.2692,0.8019,-0.8768,0.9206,273.3125
21:36:17:942,2.8755,2.5648,5.2602,35.8168,0.7563,-0.8193,0.5528,271.9844
21:36:17:962,2.8193,2.6031,5.2865,37.0987,0.6144,-0.6784,0.131,270.7344
21:36:17:986,1.5587,2.0453,5.6181,37.7423,0.3542,-0.533,-0.2563,269.2031
21:36:18:008,0.8956,1.6418,6.8978,37.868,0.0288,-0.423,-0.5061,269.2031
21:36:18:024,0.5903,1.3964,8.3475,35.8168,-0.2298,-0.2965,-0.6214,269.25
21:36:18:044,0.6729,1.2205,9.5398,35.5524,-0.3433,-0.2286,-0.6688,269.7656
21:36:18:063,1.0057,0.914,10.4125,37.4401,-0.3492,-0.2813,-0.7298,270.4375
21:36:18:083,1.0512,0.3932,11.612,38.4517,-0.3657,-0.4707,-0.8491,271.2188
21:36:18:105,0.7986,-0.4663,12.8151,38.3229,-0.4458,-0.5186,-0.9538,272.0625
21:36:18:126,1.1685,-1.3366,12.5876,38.7199,-0.5172,-0.2369,-0.9301,273.0156
21:36:18:142,1.7251,-1.6215,11.6635,39.3454,-0.6274,0.0526,-0.8224,274.0781
21:36:18:162,2.0232,-1.4168,11.9711,38.9162,-0.8954,-0.0036,-0.7564,275.25
21:36:18:181,1.5348,-1.3114,14.4695,38.8439,-1.2376,-0.2992,-0.8163,276.2812
21:36:18:202,0.388,-1.8693,17.2396,39.9894,-1.3579,-0.3381,-0.9061,277.1719
21:36:18:225,-0.4787,-2.3026,17.0277,39.6766,-1.0104,0.1727,-0.8177,278.1094
21:36:18:244,0.5125,-2.0632,13.2784,40.5486,-0.3641,0.8614,-0.4427,278.6406
21:36:18:260,2.5296,-1.1223,10.0522,40.9161,0.0719,0.9528,-0.032,279.7656
21:36:18:281,3.8991,0.094,9.2585,40.4489,0.2029,0.3187,0.0865,280.7031
21:36:18:303,4.0272,0.647,9.8511,39.5569,0.2586,-0.4736,-0.1567,281.1875
21:36:18:327,3.097,0.398,9.3578,41.3894,0.4208,-0.758,-0.5676,281.0938
21:36:18:345,2.107,0.161,7.646,42.3334,0.5867,-0.5469,-0.8419,281.0938
21:36:18:361,1.5037,0.3597,5.5702,42.5932,0.5904,-0.072,-0.9175,281.5469
21:36:18:380,1.1661,0.835,4.2798,41.2264,0.3875,0.3067,-0.9191,282.4062
21:36:18:400,0.9362,1.2588,4.2211,42.4147,0.0751,0.4249,-0.9474,283.375
21:36:18:426,0.8477,1.3102,5.004,44.3378,-0.1646,0.3469,-0.9972,284.3906
21:36:18:448,0.7316,1.2839,5.5487,42.0802,-0.2016,0.247,-1.0504,285.4219
21:36:18:462,0.4897,1.3198,5.8887,42.5561,-0.1151,0.1594,-1.0768,286.5
21:36:18:479,0.0779,1.4347,6.4094,45.1211,-0.0378,0.0249,-1.0677,287.5938
21:36:18:499,-0.0597,1.5161,7.3252,44.7621,0.0051,-0.1439,-1.002,288.8125
21:36:18:520,0.2671,1.6933,8.0542,44.1715,0.0732,-0.3061,-0.84,290.0312
21:36:18:541,1.3002,2.2727,8.9927,45.1316,0.1782,-0.5607,-0.6081,291.1719
21:36:18:561,2.4362,3.0137,9.8391,45.4525,0.2834,-0.8009,-0.4872,292.2656
21:36:18:580,1.9706,3.3728,10.6507,44.5945,0.3177,-0.8699,-0.6864,293.4688
21:36:18:601,0.2743,3.0257,11.4959,44.9946,0.2282,-0.7112,-0.9892,294.0469
21:36:18:627,-1.039,2.572,12.2632,47.2328,0.0543,-0.3192,-1.0043,294.8906
21:36:18:644,-1.1754,2.639,12.4524,48.6502,-0.1076,0.2316,-0.7109,296.0781
21:36:18:662,-0.274,2.8748,12.2943,47.3257,-0.2538,0.6454,-0.411,297.2031
21:36:18:679,0.2659,2.8605,13.0533,46.8088,-0.4557,0.597,-0.3793,298
21:36:18:700,-0.4943,2.1195,16.0233,48.008,-0.7223,0.0271,-0.595,298.2344
21:36:18:726,-2.5641,0.1167,19.6972,47.0503,-0.7409,-0.6419,-0.7751,298.5938
21:36:18:743,-4.2664,-1.5413,20.1976,50.2176,-0.1342,-0.8803,-0.5636,299.0938
21:36:18:760,-3.8222,-1.722,16.7248,45.9483,0.7816,-0.5477,0.1171,299.9531
21:36:18:781,-1.4879,-1.0289,12.3207,49.8343,1.3801,0.0145,0.8716,300.875
21:36:18:800,0.364,-0.1371,9.4704,50.2785,1.4706,0.095,1.2348,301.2031
21:36:18:827,1.0703,0.58,8.6755,50.5102,1.2719,-0.3112,1.217,300.5938
21:36:18:844,1.542,0.6782,8.6264,50.4326,1.0725,-0.6734,1.0676,299.2344
21:36:18:862,1.6318,0.5644,8.0303,48.585,1.0224,-0.778,0.883,297.1094
21:36:18:880,1.3181,0.4699,6.8763,50.8931,1.0256,-0.6459,0.7355,295.9062
21:36:18:901,0.9638,0.4794,5.6205,48.1736,0.9292,-0.3445,0.6916,294.9219
21:36:18:927,0.8189,0.7021,4.8113,48.1736,0.6988,-0.0539,0.7243,294.0781
21:36:18:943,0.9063,0.9092,4.7059,50.3465,0.4256,0.0891,0.7478,293.2969
21:36:18:962,0.9518,0.9798,5.0914,48.9506,0.2285,0.1046,0.7294,292.4062
21:36:18:979,1.0117,0.8865,5.417,52.822,0.1707,0.0865,0.6889,291.4844
21:36:19:000,0.9542,0.829,5.3967,52.8552,0.1891,0.1536,0.6514,290.6562
21:36:19:026,1.0739,0.8936,5.0555,50.8889,0.1928,0.287,0.6484,289.8438
21:36:19:045,1.4702,1.2264,4.858,52.6681,0.012,0.2239,0.6172,289.0469
21:36:19:063,2.1693,1.7831,5.4493,53.6323,-0.1238,0.0753,0.4151,288.2344
21:36:19:080,2.6361,2.1039,5.927,52.2355,-0.3462,0.0715,0.0394,287.4531
21:36:19:103,2.289,1.8836,6.7338,52.1375,-0.6788,0.2625,-0.3085,286.7031
21:36:19:126,1.5504,1.4276,7.883,53.2005,-1.0163,0.5107,-0.5103,286.2344
21:36:19:143,1.044,1.2085,9.0849,55.1322,-1.322,0.4875,-0.6541,286.2188
21:36:19:159,0.4622,1.0397,11.1918,54.4851,-1.4594,0.3576,-0.7732,286.5938
21:36:19:179,0.2778,0.5393,13.4962,56.0433,-1.3817,0.2502,-0.8515,287.1875
21:36:19:199,0.4825,-0.2484,15.317,55.0152,-1.1998,0.315,-0.8704,287.9375
21:36:19:219,1.3672,-1.0397,15.8126,54.8288,-1.0573,0.4939,-0.8832,288.8906
21:36:19:242,2.4805,-0.7787,15.8162,56.2619,-0.9974,0.5978,-1.027,289.9375
21:36:19:263,2.9043,-0.2376,16.1574,55.0082,-0.8488,0.7363,-1.3671,290.9844
21:36:19:344,1.5635,-0.756,15.4619,57.8532,-0.6203,1.0415,-1.5431,291.9844
21:36:19:344,-0.0502,-1.9567,13.2963,57.0237,-0.441,1.2977,-1.2302,293.1562
21:36:19:344,-1.045,-2.4295,11.0829,57.3506,-0.3121,1.2207,-0.5042,294.7188
21:36:19:345,-0.3064,-2.0536,9.7373,57.7134,-0.1286,0.7035,0.2889,296.3594
21:36:19:365,1.9909,-1.2228,8.788,56.5602,0.085,-0.0899,0.6865,297.7031
21:36:19:380,3.6692,-0.1454,8.2206,55.8124,0.1851,-0.6558,0.6255,298.2188
21:36:19:399,3.8069,0.5177,7.8435,55.7252,0.1728,-0.5202,0.3603,297.5156
21:36:19:420,2.9498,0.4687,6.5076,56.4338,0.033,0.1099,0.1352,296.7344
21:36:19:443,1.6689,0.3178,4.4857,56.0136,-0.2434,0.7123,0.0894,296.1875
21:36:19:461,0.9111,0.3669,2.8325,56.1768,-0.5688,0.8873,0.1837,295.9531
21:36:19:479,1.305,0.8649,2.3177,57.2333,-0.918,0.4233,0.1728,295.8281
21:36:19:500,1.9873,1.5508,4.3935,58.0089,-1.0764,-0.3048,-0.0672,295.6406
21:36:19:520,2.0256,1.8465,8.6216,57.9269,-0.7614,-0.7058,-0.4275,295.3594
21:36:19:542,1.1122,1.3366,11.9735,57.7137,-0.0453,-0.5181,-0.6901,295.25
21:36:19:562,-0.7169,0.3837,11.6467,57.7621,0.5276,-0.1274,-0.6192,295.5312
21:36:19:580,-1.7105,0.2281,9.7301,58.2924,0.6767,0.0156,-0.3295,296.2031
21:36:19:600,-1.3323,0.8589,8.7497,56.3773,0.5731,-0.1879,-0.1836,296.9688
21:36:19:625,-0.699,1.6131,9.4117,58.495,0.4495,-0.5034,-0.2693,297.5156
21:36:19:642,-0.6439,1.6873,10.9704,55.5535,0.4352,-0.6286,-0.4107,297.7812
21:36:19:660,-1.1288,1.2492,12.2644,58.981,0.5308,-0.5093,-0.4118,297.8906
21:36:19:679,-1.7548,0.9224,12.6559,58.5855,0.6432,-0.3189,-0.2387,298.2031
21:36:19:701,-1.9536,0.8541,12.5134,56.1685,0.702,-0.1817,0.0204,298.6875
21:36:19:726,-1.3682,1.0289,12.0442,58.337,0.674,-0.0712,0.1829,299.3438
21:36:19:745,-0.3806,1.3042,10.4664,56.1972,0.4943,0.05,0.2021,299.4531
21:36:19:764,-0.0406,1.6131,11.1535,58.2376,0.1254,0.0255,0.1914,299.3125
21:36:19:780,0.3078,1.3797,13.6722,55.0346,-0.2717,-0.2395,0.1267,299.0625
21:36:19:799,-0.1771,0.2628,15.7133,56.5953,-0.416,-0.2331,-0.0267,298.8281
21:36:19:819,-1.0138,-1.1977,14.6299,55.3496,-0.212,0.2731,-0.1007,298.6406
21:36:19:842,-0.9827,-2.0141,10.9464,56.1237,0.0402,1.0399,0.0934,298.6094
21:36:19:860,-0.2249,-2.0237,7.749,56.0287,0.0013,1.3677,0.4098,298.7188
21:36:19:879,0.2994,-1.1486,6.7206,56.5769,-0.265,0.9616,0.6149,298.7188
21:36:19:899,0.2946,-0.3597,8.2242,56.5891,-0.5918,0.0827,0.5778,298.3438
21:36:19:919,-0.0298,-0.4723,10.4089,54.4297,-0.7718,-0.5474,0.4327,297.6406
21:36:19:942,-0.8295,-0.8853,11.4348,54.584,-0.6866,-0.5927,0.3547,296.9375
21:36:19:959,-1.5298,-0.9631,10.355,53.766,-0.3787,-0.166,0.4846,296.3594
21:36:19:979,-1.3179,-0.6207,8.211,54.1282,-0.0442,0.3046,0.7999,295.9688
21:36:19:999,-0.4368,-0.0221,6.2813,53.7278,0.1811,0.5224,1.1086,295.25
21:36:20:019,0.5759,0.5728,5.3284,55.0811,0.2565,0.4558,1.2506,294.3281
21:36:20:042,1.354,0.9691,4.9968,54.5398,0.2272,0.3152,1.1853,293.0312
21:36:20:061,1.5994,1.0924,4.9358,54.6769,0.0794,0.364,0.9336,291.6562
21:36:20:079,1.4833,1.06,5.3787,53.5661,-0.1981,0.556,0.6013,290.2969
21:36:20:099,0.5017,0.7045,6.5662,55.5853,-0.5238,0.715,0.2484,289.7031
21:36:20:119,-1.1371,-0.0269,8.3702,53.9804,-0.7025,0.6753,-0.0089,288.7969
21:36:20:143,-1.8889,-0.8589,9.7577,53.4422,-0.5316,0.3714,-0.0014,288.3125
21:36:20:160,-1.677,-1.1438,9.9361,52.1867,-0.0514,-0.1253,0.2165,288.1562
21:36:20:179,-0.9205,-0.8517,9.31,53.4113,0.4234,-0.6387,0.434,288.1719
21:36:20:199,-0.0298,-0.6195,9.7733,54.4375,0.5222,-1.0515,0.4604,288.0469
21:36:20:220,0.6178,-1.0672,11.3355,53.3351,0.3012,-1.1956,0.2742,287.6875
21:36:20:242,0.8141,-1.7388,12.7911,52.8219,-0.0144,-0.9088,0.0159,287.1719
21:36:20:262,1.3708,-2.3445,13.1515,53.5202,-0.3087,-0.272,-0.1529,286.6875
21:36:20:280,2.0316,-2.4116,12.4931,51.9189,-0.5145,0.2779,-0.2581,286.7031
21:36:20:299,1.8999,-1.922,12.9109,53.002,-0.7231,0.3147,-0.4315,286.8906
21:36:20:319,0.6382,-2.0907,14.813,52.4745,-0.889,-0.0262,-0.7111,287.1719
21:36:20:344,-1.1383,-3.3453,16.4399,52.8481,-0.8163,-0.1623,-0.9559,287.6562
21:36:20:359,-1.5884,-4.1007,15.0812,52.1315,-0.4565,0.3062,-0.7953,288.4688
21:36:20:379,0.0923,-3.1945,11.6515,52.2107,-0.0732,1.0103,-0.2885,289.5781
21:36:20:399,2.4901,-1.6777,9.3363,52.4595,0.012,1.1586,0.0745,290.4375
21:36:20:419,3.2167,-0.5297,9.2154,50.545,-0.1028,0.6846,-0.0696,290.7656
21:36:20:443,2.0867,-0.3382,9.7852,52.0574,0.0554,-0.0547,-0.873,290.6875
21:36:20:460,0.8656,-0.7189,9.043,51.3613,0.3132,0.1988,-0.9308,290.7656
21:36:20:479,0.0229,-0.8841,6.826,52.9445,0.4027,0.5688,-0.7713,291.3594
21:36:20:499,-0.3997,-0.3657,4.8304,50.9223,0.3441,0.7597,-0.5644,292.3594
21:36:20:521,-0.1866,0.3059,3.5352,50.8329,0.2543,0.6396,-0.492,294.6406
21:36:20:542,-0.0681,0.7967,3.0707,50.2211,0.1649,0.2982,-0.5242,294.9531
21:36:20:560,-0.1411,1.0433,3.2897,50.8364,0.0807,-0.0928,-0.5979,294.9531
21:36:20:579,-0.4883,1.005,4.512,51.7565,0.0447,-0.4203,-0.6592,295.5312
21:36:20:598,-1.3239,0.5585,6.3651,49.6339,0.1039,-0.6076,-0.6155,296.1094
21:36:20:620,-2.4911,0.1311,8.5091,52.0463,0.3119,-0.68,-0.3668,296.7969
21:36:20:644,-2.442,-0.003,9.9289,49.5549,0.6432,-0.6829,-0.0682,297.5625
21:36:20:660,-1.6531,0.5261,9.8151,47.9463,0.7973,-0.724,0.0327,298.2344
21:36:20:678,-1.0474,1.2887,9.8271,49.5704,0.6852,-0.7101,-0.0728,298.6719
21:36:20:699,-0.6224,1.3617,10.6304,51.1814,0.4693,-0.4409,-0.2768,298.7812
21:36:20:719,-0.9169,0.9547,11.3558,48.7344,0.2621,-0.0518,-0.3718,298.7812
21:36:20:743,-1.4903,0.6482,11.9556,50.1646,0.102,0.2039,-0.2986,298.8906
21:36:20:760,-1.7632,0.4603,12.8007,48.6284,0.0724,0.3054,-0.1247,299.2344
21:36:20:778,-1.44,0.2065,13.088,48.8933,0.1201,0.3147,0.0585,299.6562
21:36:20:798,-0.7217,0.2173,12.2704,49.1956,-0.0045,0.1347,0.156,299.9844
21:36:20:820,-0.2836,0.6339,12.3063,49.4567,-0.2953,-0.305,0.1419,300.0312
21:36:20:842,-0.1292,0.7727,14.4527,47.9339,-0.3819,-0.5133,0.0463,299.8594
21:36:20:860,-0.9851,0.0592,16.5417,46.9419,-0.0099,-0.3807,0.0484,299.7656
21:36:20:890,-2.2361,-0.9116,16.0317,45.8374,0.5659,-0.0342,0.3192,299.6719
21:36:20:901,-2.1607,-1.4347,12.7457,48.4741,0.8139,0.3227,0.6524,299.6719
21:36:20:919,-1.3407,-1.3473,9.3064,46.9206,0.6623,0.3331,0.8269,299.5156
21:36:20:942,-0.717,-1.0553,7.2067,46.6475,0.293,-0.0385,0.8556,298.9375
21:36:20:961,-0.8606,-0.4806,7.0259,46.9745,-0.0639,-0.5458,0.8383,298.0469
21:36:20:978,-0.9037,-0.24,8.2769,45.9088,-0.1699,-0.8241,0.8423,297.0781
21:36:21:000,-0.5254,-0.3537,8.9556,46.0003,-0.0719,-0.7908,0.853,296.1719
21:36:21:019,-0.5374,-0.2747,8.3427,45.3964,0.0469,-0.5727,0.9251,295.25
21:36:21:044,-0.7182,-0.1203,7.172,45.3964,0.0786,-0.4361,1.0529,294.3438
21:36:21:060,-0.5601,0.24,6.3579,45.2383,0.0549,-0.447,1.1749,293.4219
21:36:21:078,-0.2118,0.5285,6.4776,43.8376,0.0868,-0.5439,1.2524,292.3281
21:36:21:100,0.1486,0.6195,7.1001,44.4962,0.2445,-0.5831,1.3062,291.7188
21:36:21:119,0.5077,0.6889,7.3575,44.1058,0.445,-0.5439,1.3137,290.3906
21:36:21:144,1.3433,1.2791,7.0211,43.6403,0.5537,-0.5072,1.2516,288.3281
21:36:21:162,1.5887,1.4838,7.063,44.1723,0.576,-0.472,1.1004,286.8281
21:36:21:183,1.5145,1.4802,7.6005,42.8633,0.5041,-0.4864,0.8703,285.3594
21:36:21:198,1.3313,1.2288,8.5354,43.358,0.3864,-0.4667,0.621,284.0625
21:36:21:219,1.1385,0.7632,9.6116,42.7185,0.2743,-0.3759,0.4122,282.9219
21:36:21:244,1.1781,0.3502,10.2605,43.2088,0.1766,-0.2049,0.2684,282.0625
21:36:21:260,1.627,-0.0664,11.1619,42.9707,0.0495,-0.105,0.1688,281.5156
21:36:21:278,2.016,-0.5082,12.5565,41.7917,-0.0908,-0.121,0.0612,281.1406
21:36:21:298,2.3931,-1.0852,13.0425,42.3717,-0.1292,-0.0424,-0.0517,280.8906
21:36:21:318,2.8217,-1.7843,12.3901,42.3189,-0.1012,0.1168,-0.1521,280.7812
21:36:21:342,3.2478,-1.6406,11.2672,40.6248,-0.1787,0.254,-0.2371,280.7969
21:36:21:359,3.0228,-0.8422,11.4899,39.6702,-0.4317,0.1829,-0.3734,280.9219
21:36:21:423,2.0711,-0.9475,13.4543,42.852,-0.7087,-0.0755,-0.6656,281.1406
21:36:21:424,0.8189,-2.2224,14.3988,41.2197,-0.702,-0.063,-0.9157,281.4531
21:36:21:424,0.1438,-2.9694,12.8127,40.7295,-0.4248,0.34,-0.8387,282.0938
21:36:21:439,0.6537,-2.5432,10.13,42.7729,-0.151,0.6622,-0.4304,283.6719
21:36:21:461,1.6677,-1.4826,8.7964,42.178,-0.0602,0.3818,-0.0118,284.5938
21:36:21:478,1.9502,-0.3226,9.559,41.6854,-0.1092,-0.2901,0.1627,285.0625
21:36:21:498,1.9358,0.0964,10.6376,42.323,-0.1129,-0.6403,0.1712,285.0469
21:36:21:518,1.6928,0.2819,9.7637,43.5361,0.0493,-0.3229,0.127,284.8906
21:36:21:542,1.5013,0.6614,7.6436,41.6312,0.2195,0.2372,0.103,284.75
21:36:21:560,1.4402,1.1558,5.733,41.2674,0.2375,0.6604,0.0748,284.625
21:36:21:579,1.3756,1.497,4.9705,41.9338,0.0908,0.7754,-0.0003,284.4688
21:36:21:599,1.2008,1.6574,5.3152,42.5274,-0.0719,0.6636,-0.1029,284.3281
21:36:21:619,1.0308,1.57,5.933,41.6544,-0.1081,0.4734,-0.2025,284.2969
21:36:21:643,0.777,1.5305,6.0203,40.4416,-0.0056,0.3903,-0.2736,284.2969
21:36:21:662,0.546,1.6382,5.739,41.976,0.0985,0.3821,-0.3098,284.4375
21:36:21:681,0.3485,1.7388,5.8528,41.9501,0.1025,0.3549,-0.3282,284.7031
21:36:21:698,-0.0981,1.5987,6.9062,40.1962,-0.0213,0.3112,-0.333,285.0156
21:36:21:719,-0.4668,1.9483,8.3655,42.3247,-0.1918,0.4193,-0.2749,285.3438
21:36:21:744,-0.1052,2.2452,9.4417,41.2764,-0.2256,0.5027,-0.2318,285.6875
21:36:21:762,0.1797,2.3338,9.7517,40.4012,-0.1033,0.4239,-0.3143,286.1719
21:36:21:785,0.1713,2.2033,9.6655,42.1762,-0.0224,0.3104,-0.4749,286.3906
21:36:21:797,-0.0957,1.7484,10.7752,42.0545,-0.171,0.1264,-0.6334,286.3906
21:36:21:818,-0.602,0.8637,13.1718,40.2528,-0.4434,-0.0574,-0.7247,287.25
21:36:21:843,-1.215,0.0844,14.5712,42.719,-0.4661,0.1818,-0.485,287.9844
21:36:21:861,-1.6112,-0.082,14.5126,40.4301,-0.384,0.3123,-0.17,287.9844
21:36:21:879,-1.3035,0.4328,14.2564,41.7856,-0.3824,0.3557,0.0495,288.7812
21:36:21:902,-0.9648,0.4771,14.6083,40.8582,-0.3422,0.4548,0.1145,289.5625
21:36:21:917,-1.4101,-0.1682,14.6754,41.0033,-0.1073,0.5826,0.2695,290.125
21:36:21:939,-1.6471,-0.8326,13.5585,42.1508,0.1633,0.5829,0.5102,290.2344
21:36:21:960,-1.2556,-1.3342,11.4684,41.8924,0.2349,0.2897,0.723,290.0938
21:36:21:979,-0.5721,-1.4455,10.2677,42.2501,0.0626,-0.3194,0.8537,289.1875
21:36:21:999,-0.2106,-1.3114,10.9572,41.884,-0.077,-0.9099,0.8798,288.3594
21:36:22:021,-0.3614,-1.1761,12.4344,44.4762,0.0546,-1.0936,0.9219,287.8906
21:36:22:044,-0.3985,-1.1462,11.9256,42.8308,0.3545,-0.8696,1.0229,286.9531
21:36:22:063,-0.3351,-0.7548,9.4704,43.4167,0.534,-0.6244,1.1448,285.9688
21:36:22:078,0.0456,-0.2137,6.9182,42.1273,0.5057,-0.4963,1.2021,285.4531
21:36:22:097,0.3293,0.3011,5.186,43.1623,0.3372,-0.5386,1.2135,284.2969
21:36:22:117,0.7244,0.6291,4.7095,42.4177,0.1542,-0.6592,1.1795,283.0625
21:36:22:138,0.9734,0.92,5.7247,43.4004,0.0999,-0.6275,1.1004,281.6875
21:36:22:159,0.947,0.847,7.0486,43.9485,0.2261,-0.4193,1.0314,280.3125
21:36:22:178,0.9674,0.8242,7.5215,43.8676,0.4099,-0.1335,0.9797,278.9844
21:36:22:205,1.0703,1.0193,7.081,42.2031,0.4993,0.1091,0.8852,277.8125
21:36:22:217,1.0883,1.0409,6.4908,43.8264,0.4416,0.1749,0.7667,276.6406
21:36:22:238,0.9039,1.3186,6.5016,44.2386,0.3257,0.0452,0.6308,275.5
21:36:22:261,1.0512,1.3605,7.3204,45.1281,0.2775,-0.2283,0.4354,274.5
21:36:22:278,1.1314,1.2228,8.4971,45.4092,0.3121,-0.4353,0.2194,273.5781
21:36:22:297,1.1673,0.8326,9.4357,44.3871,0.3337,-0.4678,0.0274,272.5469
21:36:22:321,1.4606,0.4064,9.8128,43.1812,0.2426,-0.4278,-0.1524,272.1875
21:36:22:345,1.9035,-0.0688,10.4137,43.937,0.053,-0.3833,-0.3452,272.0625
21:36:22:357,2.0448,-0.5549,11.3905,45.5711,-0.1369,-0.2267,-0.5013,272.1406
21:36:22:380,2.35,-1.139,12.2656,43.8912,-0.2482,0.0276,-0.6097,272.4375
21:36:22:404,3.0994,-1.7807,11.715,43.4788,-0.428,0.1871,-0.7489,272.9531
21:36:22:417,3.4621,-1.7747,10.6352,45.9062,-0.8472,0.0798,-0.9556,273.6094
21:36:22:437,2.8516,-1.3964,11.4875,44.2583,-1.3156,-0.0885,-1.2041,274.4062
21:36:22:460,1.4821,-2.0859,14.2779,45.3991,-1.3004,0.0835,-1.2571,275.3594
21:36:22:480,0.6142,-3.3573,15.511,44.1876,-0.7779,0.5581,-0.9772,276.7031
21:36:22:505,0.3401,-3.9319,13.2137,45.8112,-0.319,0.9309,-0.3934,278.2812
21:36:22:516,1.2439,-3.3202,9.9037,44.9755,-0.229,0.8388,0.1816,279.625
21:36:22:539,3.2945,-0.1119,8.3822,46.7683,-0.4392,0.2404,0.3163,280.4531
21:36:22:560,2.8349,0.5585,10.5334,46.9678,-0.6421,-0.3418,0.0593,280.5156
21:36:22:579,2.1956,0.3609,11.0793,47.1956,-0.5017,-0.2899,-0.2576,280.1719
21:36:22:598,1.4402,0.4567,8.8539,44.2923,-0.1089,0.2633,-0.4629,279.9688
21:36:22:618,0.8752,0.7584,6.2023,47.1459,0.1635,0.777,-0.5404,280.125
21:36:22:645,0.5496,1.0157,4.7382,47.2102,0.2067,0.8977,-0.5804,280.5938
21:36:22:662,0.3341,1.2049,4.3707,47.0965,0.1582,0.7264,-0.6376,281.1406
21:36:22:679,0.3018,1.2875,4.7275,47.4173,0.1073,0.4686,-0.7103,281.75
21:36:22:697,0.2515,1.2336,5.338,48.361,0.0767,0.2814,-0.8153,282.4375
21:36:22:717,0.1043,1.0349,6.0563,47.792,0.0376,0.1906,-0.9588,283.1406
21:36:22:737,-0.183,0.8996,7.0343,47.5029,-0.036,0.185,-1.092,284
21:36:22:760,-0.4883,0.9583,9.0131,46.9438,-0.1396,0.1528,-1.1729,285.0156
21:36:22:779,-0.766,0.7237,11.6024,47.561,-0.1577,0.1312,-1.2057,286.1875
21:36:22:797,-1.4161,0.0042,13.7117,49.9809,0.0181,0.2186,-1.1913,287.4375
21:36:22:817,-2.1343,-0.823,13.9655,50.3482,0.3726,0.4859,-1.0329,288.7969
21:36:22:843,-2.0194,-1.0086,12.5278,49.8571,0.7164,0.843,-0.6451,290.1875
21:36:22:863,-1.4699,-0.149,11.017,48.1902,0.8328,1.0811,-0.2155,291.9531
21:36:22:877,-0.8319,0.8146,10.2629,48.7211,0.6749,1.0923,0.0132,292.6719
21:36:22:898,-0.6116,1.0995,9.8774,49.293,0.3396,1.0505,0.0098,292.8906
21:36:22:917,-1.3622,1.2193,10.0582,48.5389,-0.077,0.964,-0.1053,292.8438
21:36:22:938,-2.199,1.2899,11.7209,51.1022,-0.5238,0.6838,-0.1431,292.7969
21:36:22:962,-2.6239,0.7488,15.2823,47.7843,-0.8402,0.1605,-0.0499,292.8594
21:36:22:979,-3.1614,-0.4483,16.9535,49.9099,-0.6253,-0.1396,0.1046,292.9688
21:36:22:998,-3.1363,-1.0612,14.2995,49.9469,0.1116,0.1251,0.4229,292.9531
21:36:23:018,-2.1176,-0.6794,10.0091,50.1512,0.6823,0.5152,0.8838,292.7969
21:36:23:045,-0.802,0.1598,7.6735,51.1817,0.6914,0.2984,1.1632,292.3438
21:36:23:061,-0.3734,0.6662,8.7318,50.4769,0.2951,-0.52,1.0881,291.9219
21:36:23:077,-0.3447,0.1275,11.0817,49.7323,-0.0788,-1.1759,0.8513,290.7344
21:36:23:100,-0.6439,-0.6327,12.0058,49.7323,-0.1196,-1.1501,0.6649,289.4375
21:36:23:117,-1.4005,-0.7608,10.3419,50.5643,0.0679,-0.5663,0.6247,288.4219
21:36:23:138,-1.7153,-0.562,7.4856,49.4232,0.2591,0.1003,0.7608,287.625
21:36:23:161,-1.8913,-0.2879,5.5942,48.4368,0.2874,0.3264,0.9512,286.6094
21:36:23:179,-1.5178,-0.1335,5.2793,50.9329,0.2376,0.1091,1.1736,285.7812
21:36:23:197,-0.8295,-0.0401,5.5834,51.7889,0.2461,-0.3138,1.3621,284.6875
21:36:23:220,-0.359,0.0114,6.3232,49.0104,0.3385,-0.7551,1.4396,283.3438
21:36:23:244,0.121,-0.2269,7.2593,50.3492,0.5422,-0.7176,1.4247,281.8906
21:36:23:262,0.4682,-0.1431,7.5191,48.4952,0.5249,-0.1237,1.3773,280.2969
21:36:23:278,0.8608,0.5142,6.8739,50.1941,0.3736,0.2393,1.2034,280.2969
21:36:23:297,1.2487,1.2097,6.5375,49.9602,0.1393,0.3134,0.8513,278.7188
21:36:23:317,1.0392,1.4934,6.7925,50.911,-0.1158,0.1685,0.4876,275.6406
21:36:23:339,0.5723,1.3952,8.1584,50.7102,-0.2605,-0.0467,0.2806,274.2344
21:36:23:362,0.6537,0.9595,9.9971,50.4336,-0.2394,-0.1413,0.177,273.2344
21:36:23:379,1.0332,0.6794,11.302,51.1675,-0.1539,-0.1519,0.0681,272.6875
21:36:23:398,1.5324,0.4328,12.0047,51.545,-0.114,-0.1516,-0.0946,272.1875
21:36:23:417,1.7,0.1478,12.5589,49.5451,-0.1465,-0.1245,-0.2342,272.1406
21:36:23:497,1.8472,-0.2412,13.1299,51.1151,-0.1308,0.0292,-0.2999,272.1562
21:36:23:497,2.5128,-0.6614,12.6092,50.0609,-0.1188,0.2862,-0.3963,272.375
21:36:23:497,2.6864,-0.2269,11.2912,49.6002,-0.2666,0.3381,-0.5934,272.6875
21:36:23:498,1.937,0.4052,11.3091,50.7305,-0.4021,0.2188,-0.8331,272.8594
21:36:23:516,1.0021,0.1862,12.4153,51.0335,-0.2908,0.2526,-1.0054,273.2812
21:36:23:547,0.6262,-0.7248,12.1734,52.3168,-0.0575,0.3882,-1.0036,273.9375
21:36:23:562,0.5209,-1.1654,10.4448,51.0065,0.0389,0.3195,-0.872,274.875
21:36:23:582,0.9099,-0.9475,8.7832,51.676,-0.1326,-0.2307,-0.8129,275.9531
21:36:23:596,1.4773,-0.2819,9.5889,51.5924,-0.4011,-0.8212,-0.9468,277.0781
21:36:23:616,1.4558,-0.2412,12.0765,49.6817,-0.3601,-0.6686,-1.1388,278.0469
21:36:23:637,0.8153,-0.5154,12.754,52.1218,-0.0868,0.0886,-1.2145,278.9844
21:36:23:660,0.1593,-0.4531,10.2688,50.7725,0.119,0.8068,-1.1559,280.0781
21:36:23:679,-0.0681,-0.1024,7.1133,51.5819,0.1678,1.0859,-1.0704,281.4219
21:36:23:705,-0.2632,0.3238,4.9585,51.5966,0.1646,0.9387,-0.9998,283.4531
21:36:23:716,-0.4009,0.6255,3.9505,52.448,0.159,0.5581,-0.9442,284.6094
21:36:23:736,-0.6535,0.8637,3.7411,52.4865,0.1534,0.1477,-0.881,285.7344
21:36:23:760,-0.8391,1.0421,4.2055,51.8995,0.1249,-0.1873,-0.8161,286.8125
21:36:23:778,-0.7984,1.2061,5.0734,53.5686,0.069,-0.3482,-0.7892,287.7812
21:36:23:797,-0.9827,1.491,6.2933,52.4034,0.0016,-0.3828,-0.8059,288.7656
21:36:23:822,-1.3885,1.6658,7.9297,50.4044,0.0226,-0.3325,-0.7428,289.7031
21:36:23:844,-1.5047,1.7508,9.456,53.9822,0.1893,-0.4124,-0.5838,290.5938
21:36:23:861,-1.8446,1.8872,11.0326,52.0949,0.5177,-0.6763,-0.4067,291.5156
21:36:23:877,-2.1822,1.8489,12.1447,52.8906,0.8512,-0.75,-0.2563,292.3125
21:36:23:897,-2.2983,1.7603,11.8131,51.4216,0.9034,-0.4294,-0.1239,292.9219
21:36:23:917,-2.4875,1.8968,11.108,51.6232,0.6413,0.0026,0.0207,293.3438
21:36:23:940,-1.8554,2.1769,12.3099,50.8415,0.3249,0.2452,0.1398,293.625
21:36:23:961,-1.3502,1.8418,13.0174,52.948,0.1875,0.3573,0.1861,293.7188
21:36:23:979,-1.0809,1.6287,12.098,51.5711,0.179,0.5376,0.2,293.6875
21:36:23:998,-1.3323,1.9267,11.4671,51.8297,0.037,0.5999,0.2213,293.375
21:36:24:017,-1.2209,1.819,12.9492,52.4186,-0.2312,0.2795,0.2766,293.125
21:36:24:036,-1.2569,0.9918,14.1702,52.1507,-0.2831,-0.0619,0.2817,292.8438
21:36:24:062,-1.6782,0.2077,13.4388,52.3872,-0.0573,-0.0875,0.3006,292.5
21:36:24:080,-1.379,0.1957,11.5031,50.9788,0.1422,0.0747,0.4671,292.1562
21:36:24:096,-0.1747,0.422,10.2377,51.6683,0.1436,-0.0092,0.6234,291.8438
21:36:24:117,0.2252,0.5273,10.6591,52.634,-0.0035,-0.4238,0.5552,291.4375
21:36:24:136,-0.1244,0.2891,11.4612,52.2323,-0.1396,-0.6297,0.3786,290.7812
21:36:24:161,-0.5553,-0.0676,10.9536,52.2807,-0.1324,-0.3487,0.2822,290.1094
21:36:24:180,-0.7948,-0.2436,9.0179,52.7653,-0.008,0.144,0.3089,289.6562
21:36:24:196,-0.8055,-0.0054,6.674,52.6845,0.1148,0.4947,0.4495,289.3438
21:36:24:217,-0.5374,0.4124,5.0016,51.3954,0.135,0.5941,0.6215,289.0312
21:36:24:236,-0.2501,0.7308,4.3288,51.2015,0.0714,0.4633,0.7451,288.6094
21:36:24:260,-0.1124,0.7668,4.5527,51.6978,-0.0029,0.2263,0.8079,287.9375
21:36:24:280,0.0133,0.7452,5.2554,51.112,-0.0399,0.0172,0.8612,286.625
21:36:24:297,0.2575,0.9032,5.9521,52.28,-0.0176,-0.1162,0.9107,285.7188
21:36:24:317,0.364,1.1187,6.3555,53.029,0.0224,-0.1879,0.8926,284.7344
21:36:24:337,0.4083,1.2839,7.1312,51.7579,-0.0053,-0.2574,0.7944,283.7031
21:36:24:361,0.3808,1.3402,8.1464,53.2683,-0.0708,-0.2763,0.6442,282.7031
21:36:24:378,0.2395,1.2815,8.7713,52.1975,-0.0927,-0.2355,0.4601,281.8594
21:36:24:397,0.3628,1.1474,8.9868,51.5342,-0.0759,-0.1868,0.3017,281.1562
21:36:24:418,0.7986,1.0995,9.1101,51.4388,-0.0916,-0.1942,0.1573,280.6562
21:36:24:437,1.2427,0.8422,10.0809,52.052,-0.2053,-0.362,-0.0395,280.3438
21:36:24:461,1.4785,0.2221,11.9628,51.1398,-0.3712,-0.6374,-0.2869,280.1875
21:36:24:479,1.3349,-0.7033,13.9942,50.603,-0.5007,-0.7431,-0.5284,280.1875
21:36:24:498,1.7599,-1.564,14.2265,50.833,-0.5095,-0.4393,-0.6531,280.4219
21:36:24:516,2.3357,-1.5341,12.3446,51.3629,-0.4647,0.0697,-0.6728,280.9531
21:36:24:536,1.8161,-0.835,12.201,51.9501,-0.6445,0.1978,-0.7886,281.7188
21:36:24:561,1.0392,-1.2432,14.1726,51.2043,-0.8546,-0.06,-0.9796,282.5
21:36:24:578,-0.1016,-2.1314,14.5233,51.7772,-0.7619,0.0105,-1.1218,283.75
21:36:24:597,-0.6415,-2.4331,12.1244,50.7999,-0.4583,0.5341,-0.9905,284.8906
21:36:24:616,-0.0801,-1.7136,9.1855,51.5664,-0.2578,0.8774,-0.644,286.1875
21:36:24:638,0.9087,-0.5405,8.0937,49.3697,-0.286,0.6047,-0.3742,287.25
21:36:24:662,1.1062,0.2245,9.5242,52.176,-0.4575,-0.6265,-0.5668,287.9375
21:36:24:678,0.6274,0.2245,11.2086,50.7842,-0.2599,-0.4374,-0.7063,288.3438
21:36:24:697,0.1929,0.2484,10.5418,51.1485,-0.0285,0.1128,-0.7511,289.4375
21:36:24:719,0.1785,0.7739,8.0087,50.117,0.0258,0.4377,-0.8134,289.4375
21:36:24:736,0.2336,1.3114,6.0802,50.7397,-0.0586,0.4271,-0.9154,290.25
21:36:24:757,0.1569,1.4946,5.5846,51.4495,-0.0903,0.2084,-0.9996,291.1094
21:36:24:778,-0.1028,1.2216,6.1317,49.9951,0.0277,-0.0315,-1.0291,291.9844
21:36:24:805,-0.5206,0.8362,7.0127,51.1924,0.2498,-0.0837,-0.9434,293.0156
21:36:24:815,-0.8702,0.7308,7.0391,51.5059,0.4064,0.0239,-0.7519,294.1562
21:36:24:836,-0.711,1.0768,6.7518,51.0378,0.4447,0.062,-0.6062,295.2812
21:36:24:862,-0.1914,1.5221,6.8152,50.6669,0.4048,-0.0033,-0.6073,296.8281
21:36:24:880,-0.019,1.7256,7.3946,50.1525,0.3175,-0.0694,-0.7031,297.5938
21:36:24:903,-0.2752,1.6945,8.3727,51.4019,0.2309,-0.0973,-0.7913,298.2344
21:36:24:916,-0.9193,1.424,9.5255,51.7571,0.1782,-0.0813,-0.7924,298.9844
21:36:24:937,-1.5777,1.1821,10.4975,51.0256,0.1779,-0.0105,-0.6909,299.8594
21:36:24:961,-1.932,1.0157,10.8961,51.298,0.1513,0.0023,-0.5202,300.3281
21:36:24:979,-1.8638,0.8733,11.3534,52.5027,0.0621,-0.0683,-0.3388,301.1875
21:36:24:996,-1.5813,0.5764,12.1794,52.4273,-0.0602,-0.1492,-0.1993,301.9844
21:36:25:016,-1.2281,0.0928,12.9695,53.5841,-0.232,-0.3234,-0.0848,302.5781
21:36:25:036,-1.0881,-0.2245,14.8322,53.1762,-0.3185,-0.5751,0.0726,302.9531
21:36:25:060,-0.9767,-0.4866,17.1917,54.2822,-0.0932,-0.6374,0.2633,303.2031
21:36:25:078,-1.1898,-0.8027,18.384,51.0458,0.5164,-0.4845,0.5331,303.3125
21:36:25:096,-1.124,-1.0684,16.41,51.5206,1.1587,-0.2249,0.8479,303.25
21:36:25:117,-0.4488,-0.9403,12.1208,52.3918,1.3287,-0.0614,1.0117,302.75
21:36:25:138,0.382,-0.3956,8.4983,52.261,0.9561,-0.1157,0.9432,301.9531
21:36:25:163,0.6573,0.1311,6.9517,52.3478,0.2924,-0.3812,0.7552,300.9062
21:36:25:179,0.2623,0.3334,8.0734,52.3478,-0.2072,-0.5756,0.6439,299.75
21:36:25:197,-0.2166,0.1802,9.887,52.9507,-0.2748,-0.5871,0.6521,298.7812
21:36:25:216,-0.2357,0.0688,10.8459,50.825,0.0413,-0.3993,0.7446,298.0469
21:36:25:236,-0.0849,0.0844,9.5841,51.1706,0.3846,-0.2302,0.8444,297.4219
21:36:25:262,-0.2465,0.2424,7.3946,51.4899,0.5326,-0.1618,0.9621,296.6719
21:36:25:278,-0.1579,0.3849,5.8312,51.3642,0.5292,-0.1807,1.0759,295.7812
21:36:25:296,0.1426,0.5213,5.0507,50.6837,0.493,-0.2401,1.1515,294.7969
21:36:25:320,0.5101,0.6171,4.749,52.05,0.4722,-0.3181,1.1925,293.6094
21:36:25:344,1.3564,0.9727,4.7323,52.1196,0.4533,-0.4403,1.1922,292.3281
21:36:25:363,1.6461,1.0457,5.3907,50.4228,0.4117,-0.6188,1.1099,290.9844
21:36:25:376,1.6006,0.9044,6.2322,51.5427,0.331,-0.7237,0.9664,289.6875
21:36:25:403,1.4929,0.7344,7.1013,52.33,0.212,-0.6797,0.8503,288.375
21:36:25:416,1.633,0.8314,7.9908,51.5501,0.0519,-0.549,0.7693,287.2344
21:36:25:437,1.9969,0.9966,8.9305,52.0294,-0.1302,-0.3879,0.6687,286.3125
21:36:25:464,2.4015,1.0744,9.7804,52.5246,-0.2804,-0.2595,0.4812,285.4531
21:36:25:486,2.4997,0.8685,10.5957,52.9074,-0.3965,-0.2307,0.189,284.6719
21:36:25:495,2.2315,0.1215,11.6324,52.4972,-0.5175,-0.1847,-0.13,284.0938
21:36:25:572,1.6533,-0.6087,12.0394,53.4353,-0.6112,-0.0041,-0.3425,283.7656
21:36:25:573,1.8185,-1.0517,11.8263,54.2169,-0.6962,0.2276,-0.3689,283.8281
21:36:25:573,3.2826,-1.1127,11.9149,51.8632,-0.8434,0.2715,-0.273,284.2031
21:36:25:575,5.0543,-0.4734,14.3127,52.7118,-1.1119,-0.0635,-0.3045,284.6875
21:36:25:602,6.2035,0.149,18.3972,53.1973,-1.261,-0.4116,-0.5804,285.1094
21:36:25:615,4.7035,-0.0616,19.2148,54.4293,-0.906,-0.0877,-1.138,285.5156
21:36:25:642,2.5044,-1.0074,14.2516,51.2011,-0.11,0.8739,-1.5958,286.125
21:36:25:664,1.1876,-1.3054,8.9808,52.2226,0.3475,1.5855,-1.5538,287.2344
21:36:25:680,1.1673,-0.7248,6.1987,52.2133,0.2554,1.6124,-1.1165,288.9062
21:36:25:697,1.5204,0.1467,5.9282,52.1896,-0.1036,1.0218,-0.7111,290.6094
21:36:25:716,1.6042,0.5549,7.7813,52.8497,-0.4586,0.1645,-0.5495,292.5469
21:36:25:735,1.6389,0.4244,9.7637,53.0013,-0.5872,-0.3186,-0.4717,293.3125
21:36:25:761,1.0691,0.3394,9.8475,53.4209,-0.4019,-0.207,-0.3897,293.9219
21:36:25:779,0.4418,0.4842,8.3032,53.7526,-0.073,0.2042,-0.2587,294.5156
21:36:25:795,0.2563,0.6423,6.4585,53.9789,0.1848,0.4622,-0.0549,295
21:36:25:821,0.1509,1.0385,5.2865,50.8819,0.2778,0.5333,0.1283,295.3125
21:36:25:846,0.4801,1.2672,4.9082,53.4243,0.2602,0.1453,0.3214,295.125
21:36:25:860,0.7998,1.4778,4.8723,52.3697,0.2261,-0.0283,0.2844,294.7656
21:36:25:882,1.0404,1.6406,5.1584,52.4102,0.147,-0.112,0.1871,294.4062
21:36:25:902,1.2188,1.8298,5.757,53.5439,0.0426,-0.1266,0.0434,294.2344
21:36:25:929,1.3624,1.9686,6.7266,52.2654,-0.0708,-0.1682,-0.1396,293.9531
21:36:25:950,1.2283,1.9603,8.0782,53.0256,-0.1742,-0.1964,-0.3021,293.8125
21:36:25:960,1.0703,1.7867,9.8726,50.8491,-0.1984,-0.2254,-0.4099,293.875
21:36:25:979,0.8381,1.3306,11.7521,53.2735,-0.1119,-0.2204,-0.448,294.3594
21:36:25:997,0.6059,0.8182,13.2353,54.0383,0.0666,-0.1562,-0.3665,294.8438
21:36:26:019,0.9362,0.5178,13.7141,53.1952,0.2232,-0.1607,-0.2525,295.3594
21:36:26:038,1.3157,0.5788,13.8985,54.3314,0.2834,-0.256,-0.1761,295.7812
21:36:26:062,1.8568,0.5058,14.2744,52.8395,0.3121,-0.252,-0.1599,295.7812
21:36:26:079,2.8372,0.0928,13.5082,52.4875,0.2003,-0.1452,-0.2603,296.0625
21:36:26:098,2.7032,0.1167,12.0645,54.0771,-0.1646,-0.0845,-0.4006,296.25
21:36:26:116,2.0591,0.1861,11.7245,51.761,-0.5688,-0.0813,-0.5343,296.4375
21:36:26:135,1.1649,-0.2903,12.9695,53.2468,-0.6021,0.2162,-0.6557,296.7188
21:36:26:155,-0.4332,-0.9248,13.015,52.7649,-0.2605,0.6676,-0.5476,297.1719
21:36:26:179,-1.1575,-1.6059,10.6567,53.133,0.0181,0.8923,-0.2078,297.8281
21:36:26:195,-1.0785,-1.8166,7.7298,52.7939,0,0.5469,0.1888,298.6094
21:36:26:216,0.0468,-1.9806,6.1197,53.2717,-0.3204,-0.3849,0.4348,299.2188
21:36:26:236,0.7292,-1.6789,7.8052,52.8976,-0.6775,-1.1351,0.547,299.1406
21:36:26:262,0.5101,-1.2935,11.4288,52.0281,-0.583,-1.1644,0.675,298.6719
21:36:26:278,0.1857,-0.9427,13.5082,51.1754,-0.0458,-0.6334,0.8231,298.4219
21:36:26:296,0.0564,-0.7069,11.8933,52.3439,0.4844,-0.0789,0.9813,297.4688
21:36:26:315,0.054,-0.2723,8.3212,51.9181,0.628,0.1509,1.1169,297.0469
21:36:26:335,0.2312,0.3083,5.9533,52.534,0.4786,0.0889,1.1954,296
21:36:26:356,0.4694,0.908,5.429,52.143,0.3108,-0.0542,1.1992,294.8125
21:36:26:382,0.8704,1.2181,5.9018,52.9268,0.2804,-0.2022,1.1355,293.4219
21:36:26:398,1.2439,1.3653,6.2191,52.6507,0.3132,-0.3423,1.0316,292.7188
21:36:26:414,1.5839,1.5592,6.4022,51.9836,0.2983,-0.5303,0.8921,291.3281
21:36:26:435,1.8844,1.4922,7.1301,50.5452,0.2597,-0.6614,0.7222,290.0781
21:36:26:456,1.9059,1.2504,8.4121,52.0728,0.2634,-0.614,0.5762,288.875
21:36:26:477,1.8089,0.9296,9.535,52.521,0.2836,-0.3202,0.4583,287.8594
21:36:26:497,1.5061,0.7057,10.0833,51.7602,0.2668,0.1597,0.3983,287.0781
21:36:26:515,1.2786,0.5154,10.2162,52.4504,0.2197,0.621,0.4013,286.4375
21:36:26:544,1.3373,0.9104,10.3694,51.9648,0.179,0.7128,0.3754,285.3906
21:36:26:562,2.2614,1.4659,10.6232,51.1872,0.093,0.2814,0.1323,284.9062
21:36:26:578,2.9809,1.5652,11.8083,51.317,-0.0685,-0.3375,-0.2475,284.6406
21:36:26:597,3.3604,0.5573,14.3653,50.6564,-0.0439,-0.4347,-0.55,284.25
21:36:26:624,3.5172,-1.0648,15.0609,50.8881,0.0509,0.0729,-0.668,284.3281
21:36:26:635,3.753,-2.0309,13.1946,51.7448,-0.0863,0.5903,-0.6107,284.8281
21:36:26:655,3.9709,-1.4,11.0194,50.3437,-0.4804,0.7243,-0.6262,285.5625
21:36:26:679,3.9817,-0.5453,11.0925,50.8055,-0.7793,0.6449,-0.8573,286.2812
21:36:26:695,3.4226,-0.993,12.1303,51.1583,-0.7273,0.8196,-1.0893,286.9062
21:36:26:715,2.6709,-2.0788,11.4408,50.6699,-0.5473,1.0569,-1.0789,287.7344
21:36:26:738,2.6134,-2.7048,10.2114,50.9963,-0.3318,1.0047,-0.8989,288.9062
21:36:26:762,2.8564,-2.3254,7.2378,50.3204,-0.1452,0.6436,-0.7508,290.1094
21:36:26:780,2.4637,-1.4982,6.8787,47.8226,-0.1617,0.0585,-0.6946,291.2344
21:36:26:797,2.0496,-0.8386,7.4976,49.557,-0.3167,-0.3506,-0.6967,292.1406
21:36:26:817,1.7012,-0.5932,7.7298,48.0246,-0.395,-0.4443,-0.7569,292.9531
21:36:26:836,1.1457,-0.3585,7.0486,48.1892,-0.3758,-0.3066,-0.8493,293.7188
21:36:26:865,0.4083,-0.0281,6.2358,48.4219,-0.3739,-0.1783,-0.9114,294.5625
21:36:26:880,-0.1783,0.41,6.31,48.4039,-0.4685,-0.1705,-0.9122,295.5156
21:36:26:901,-0.2704,0.8661,7.3503,49.291,-0.6264,-0.218,-0.8547,296.5
21:36:26:915,-0.0238,1.7603,8.8012,47.3741,-0.7883,-0.0715,-0.8461,297.5781
21:36:26:935,-0.3686,2.7168,9.9983,46.2739,-1.0309,0.6239,-1.0363,298.625
21:36:26:955,-1.446,2.9802,10.0605,48.6076,-1.2578,1.8766,-1.349,299.5781
21:36:26:978,-3.3111,2.6378,8.6432,47.5617,-1.1787,2.9057,-1.5676,300.6562
21:36:26:997,-5.5413,1.8765,7.6017,47.4136,-0.8059,2.9696,-1.5157,302.0781
21:36:27:015,-6.8712,0.6434,7.9034,47.2121,-0.2117,1.9794,-1.1093,303.8438
21:36:27:035,-7.1095,-0.6985,9.0825,46.6671,0.5582,0.3834,-0.472,305.6562
21:36:27:055,-5.9004,-1.5987,9.6882,45.8886,1.2866,-0.8414,0.291,307.2812
21:36:27:078,-3.5912,-1.8657,9.9061,45.6946,1.6059,-1.1037,1.0167,308.2812
21:36:27:096,-0.9719,-1.2576,10.033,44.5974,1.3795,-0.5809,1.4799,308.4375
21:36:27:116,1.0212,-0.6686,10.9476,44.0255,0.693,0.2012,1.4993,307.7344
21:36:27:135,1.937,-0.9272,12.9468,43.6975,-0.0818,0.7624,1.0966,305.4531
21:36:27:161,0.8357,-1.588,14.6215,45.7978,-0.5017,0.9863,0.511,303.8594
21:36:27:179,-1.3957,-2.3182,15.4427,44.7484,-0.4786,0.8644,0.0753,302.5781
21:36:27:196,-2.6982,-3.5045,15.1949,44.2293,-0.1595,0.6058,0.0274,301.9375
21:36:27:215,-2.9064,-4.2323,13.7273,43.3606,0.2794,0.4209,0.3246,301.8125
21:36:27:235,-1.5896,-4.0025,10.8411,44.679,0.6988,0.3674,0.849,301.7656
21:36:27:256,0.0384,-2.8712,8.296,44.679,0.8242,0.168,1.2095,301.4219
21:36:27:280,1.1589,-1.8693,7.5766,43.9441,0.5627,-0.2789,1.1962,300.5
21:36:27:297,1.1829,-1.4862,8.3702,44.0727,0.1396,-0.7692,0.8908,299.25
21:36:27:316,0.0959,-1.7903,9.5015,41.5213,-0.1942,-0.9967,0.5318,297.9375
21:36:27:335,-1.2556,-1.9674,9.9277,41.6727,-0.3238,-0.8795,0.3943,296.9531
21:36:27:356,-1.8183,-1.7939,9.055,41.6026,-0.2578,-0.5005,0.5651,296.625
21:36:27:379,-1.3969,-1.2755,7.6161,41.2623,-0.1159,-0.0821,0.9012,296.1875
21:36:27:397,-0.3698,-0.428,6.7386,41.9447,-0.0221,0.1562,1.2061,295.6875
21:36:27:416,0.5113,0.416,6.5291,41.3043,0.0711,0.1142,1.3664,294.3594
21:36:27:436,0.6382,1.0241,6.3591,42.6543,0.2381,-0.0941,1.3017,292.9688
21:36:27:457,0.2467,1.1702,5.7438,40.3642,0.5167,-0.378,0.9691,291.4062
21:36:27:479,0.0911,1.0995,5.1081,40.1749,0.3984,-0.3572,0.9129,289.9219
21:36:27:499,0.133,1.3833,5.101,40.1362,0.1742,-0.362,0.8457,288.75
21:36:27:516,0.2587,1.5951,5.9114,41.4696,-0.0163,-0.451,0.7043,287.6875
21:36:27:534,0.2288,1.7975,7.4377,39.3251,-0.0687,-0.5141,0.5224,286.6719
21:36:27:557,0.1019,1.6454,8.7234,39.1604,-0.004,-0.5295,0.3454,285.7656
21:36:27:581,0.2359,1.3485,9.31,37.6898,0.0485,-0.5687,0.1818,285
21:36:27:657,0.5891,1.0816,9.456,39.7478,-0.0463,-0.6632,-0.0041,284.4219
21:36:27:657,1.1445,0.6614,10.1922,39.0787,-0.3108,-0.7929,-0.219,284.0781
21:36:27:658,1.4689,0.0664,12.2668,37.3434,-0.5465,-0.6534,-0.4038,283.9062
21:36:27:658,1.2068,-0.568,14.1032,38.0097,-0.6059,-0.2752,-0.476,283.9531
21:36:27:675,0.8082,-0.9834,14.6838,37.2426,-0.4895,0.0936,-0.4123,284.75
21:36:27:696,1.1517,-1.2204,13.3406,37.1717,-0.4378,0.1397,-0.3404,285.3281
21:36:27:715,1.1996,-0.9954,12.4823,37.2782,-0.4826,-0.1157,-0.3228,285.5781
21:36:27:735,0.9817,-0.811,13.2616,38.1229,-0.4104,-0.3341,-0.371,286
21:36:27:755,0.5029,-1.2827,14.3426,37.7971,-0.1198,-0.1226,-0.325,286.375
21:36:27:780,0.4383,-1.752,13.5717,37.1902,0.2336,0.3014,-0.1138,286.7812
21:36:27:797,1.5551,-1.552,10.9512,38.3946,0.4099,0.3424,-0.0246,287.2344
21:36:27:815,2.6924,-1.1163,8.5857,37.8838,0.3345,-0.0888,-0.1908,287.4688
21:36:27:835,2.9845,-0.7632,7.6687,36.8476,0.0679,-0.6446,-0.5188,287.5
21:36:27:857,2.0759,-0.7069,8.5714,36.9931,-0.1566,-0.8736,-0.7926,287.5156
21:36:27:878,0.8465,-0.987,9.7218,36.915,-0.1417,-0.7458,-0.8565,287.7188
21:36:27:901,-0.2249,-1.1331,9.8367,35.3811,0.0522,-0.3543,-0.7165,288.2969
21:36:27:916,-0.7289,-0.841,8.4397,38.3747,0.1792,0.0164,-0.4882,289.2344
21:36:27:936,-0.6032,-0.3047,6.6823,37.0115,0.146,0.243,-0.3218,290.2656
21:36:27:954,-0.3842,0.2675,5.654,36.0571,0.0586,0.2787,-0.2256,291.0469
21:36:27:979,0.0264,0.6542,5.4757,38.9961,0.0205,0.2108,-0.1937,291.7969
21:36:27:998,0.3916,0.896,5.6097,39.4512,0.0405,0.1216,-0.2243,292.0781
21:36:28:015,0.6106,1.0924,5.7019,39.951,0.0546,-0.0028,-0.2965,292.2812
21:36:28:035,0.6897,1.3138,5.8839,37.9838,-0.0115,-0.1631,-0.4059,292.5156
21:36:28:055,0.6621,1.424,6.8296,39.3805,-0.1188,-0.2054,-0.5119,292.7969
21:36:28:079,0.6561,1.3461,8.1392,39.2401,-0.1883,-0.1338,-0.5977,293.2031
21:36:28:097,0.4933,1.2779,9.3686,38.4326,-0.1827,-0.0225,-0.6395,293.7188
21:36:28:119,0.224,1.2372,10.2664,37.4212,-0.127,0.0659,-0.6461,294.3594
21:36:28:134,0.0779,1.0924,10.6579,38.0448,-0.1425,0.0912,-0.6525,295.0938
21:36:28:157,-0.4919,0.592,12.1004,38.096,-0.274,0.0726,-0.6254,295.7969
21:36:28:178,-0.6882,0.179,13.4902,38.8349,-0.4125,0.0255,-0.5234,296.5469
21:36:28:195,-0.3291,-0.4543,14.3246,38.7532,-0.4392,-0.0118,-0.362,297.2969
21:36:28:223,-0.286,-0.6961,14.5138,38.5659,-0.4115,-0.0148,-0.1806,297.9375
21:36:28:234,-0.4919,-0.6147,15.5457,39.7355,-0.4605,-0.1932,0.0489,298.4688
21:36:28:254,-0.4727,-0.8326,16.7559,37.5566,-0.432,-0.3242,0.3267,298.7969
21:36:28:278,-0.8163,-1.254,16.2867,40.1528,-0.1206,-0.2062,0.5818,298.9062
21:36:28:298,-0.6032,-1.4706,13.1108,38.5703,0.4986,0.0484,0.8905,298.7188
21:36:28:316,0.3269,-1.2923,8.9808,39.4799,0.9928,0.2438,1.2223,298.2188
21:36:28:334,1.0153,-0.8218,6.146,39.5491,1.0208,0.1323,1.3904,297.3906
21:36:28:354,0.8513,-0.3454,6.2119,40.7721,0.6288,-0.4307,1.3222,296.1875
21:36:28:379,0.4466,-0.4699,8.4672,38.5411,0.139,-1.0387,1.1965,294.5938
21:36:28:398,-0.1172,-0.7296,10.385,40.7278,-0.0663,-1.2129,1.1568,292.9844
21:36:28:416,-0.3315,-0.7153,10.5238,40.0816,0.0905,-0.9692,1.2591,291.6406
21:36:28:434,0.0205,-0.5213,8.8922,39.7306,0.4048,-0.4957,1.4458,290.3594
21:36:28:455,0.2958,-0.0616,6.9433,38.6101,0.6069,-0.1021,1.5763,289.0469
21:36:28:479,0.7136,0.3478,5.7282,41.328,0.6088,0.0596,1.6295,287.5
21:36:28:498,1.2882,0.7201,5.3224,39.9801,0.5095,0.0255,1.5989,285.7969
21:36:28:522,1.7251,1.0576,5.7271,39.1076,0.3867,-0.1389,1.4623,283.8906
21:36:28:534,1.9993,1.1438,6.5375,40.2857,0.3084,-0.3458,1.2428,281.0469
21:36:28:557,2.1238,1.1019,7.5191,40.679,0.2991,-0.5655,0.9805,279.4219
21:36:28:579,1.8712,0.7991,8.7868,40.1739,0.3108,-0.758,0.7065,277.9844
21:36:28:597,1.5647,0.4615,10.1168,38.8975,0.2937,-0.6869,0.4671,276.8594
21:36:28:615,1.6413,0.2927,10.476,40.5884,0.2722,-0.2507,0.3251,276.0938
21:36:28:635,2.2088,0.228,9.7098,40.8654,0.2567,0.2526,0.2071,275.5625
21:36:28:654,2.5368,0.2352,9.1723,40.2857,0.167,0.4867,0.0324,275.1562
21:36:28:679,2.7247,-0.1442,9.5458,40.0124,0.0117,0.4138,-0.171,274.8906
21:36:28:697,2.7894,-0.7488,10.6112,39.5245,-0.1135,0.1911,-0.3447,274.7969
21:36:28:716,2.593,-1.242,11.3055,40.1874,-0.172,0.0742,-0.4491,274.9688
21:36:28:735,2.8744,-1.7124,11.1631,40.9717,-0.2032,0.1142,-0.4387,275.3594
21:36:28:755,3.4813,-1.6825,10.2006,41.3867,-0.2591,0.1655,-0.3705,275.5938
21:36:28:778,3.9709,-1.084,10.1252,40.3344,-0.4756,0.0367,-0.3782,276.1406
21:36:28:798,3.4909,-0.7931,12.0645,42.6415,-0.8831,-0.1908,-0.57,276.6094
21:36:28:815,1.9813,-1.3042,14.904,40.8336,-1.2088,-0.1367,-0.8294,277.2969
21:36:28:836,0.6801,-2.0548,15.2883,41.4096,-1.1281,0.357,-0.8653,278.0625
21:36:28:856,0.5963,-2.2164,13.1215,43.2397,-0.3185,0.9203,-0.0445,279.1562
21:36:28:880,1.7275,-1.6801,11.0362,43.7045,-0.0154,0.2955,0.3099,280.2188
21:36:28:900,2.763,-0.7368,10.2329,42.5985,0.2349,-0.3301,0.3781,280.8906
21:36:28:914,3.115,0.094,9.8762,42.2025,0.4511,-0.4861,0.2258,280.8906
21:36:28:934,3.1186,0.3418,8.9053,42.7477,0.5246,-0.1958,-0.0118,280.9688
21:36:28:954,2.6565,0.3094,7.4377,42.0118,0.4317,0.2814,-0.2062,280.1875
21:36:28:980,2.0855,0.4723,6.0431,43.1345,0.2487,0.6271,-0.3484,279.8906
21:36:28:996,1.6904,0.6806,5.235,41.4575,0.1097,0.6963,-0.4778,279.8594
21:36:29:020,1.4067,0.8757,5.0866,42.4422,0.0642,0.5379,-0.6035,280.375
21:36:29:033,1.1625,0.8278,5.2398,44.2195,0.073,0.4207,-0.6901,280.375
21:36:29:056,0.8357,0.7488,5.338,43.0279,0.0394,0.3831,-0.7018,281.5625
21:36:29:079,0.6046,0.8482,5.9533,45.1195,0.0141,0.3562,-0.6659,281.5625
21:36:29:098,0.5628,1.1091,6.978,45.8355,0.0889,0.3189,-0.6134,283.0781
21:36:29:114,0.7591,1.4024,7.7059,42.1156,0.2234,0.2875,-0.6067,283.8281
21:36:29:134,0.7327,1.5389,7.7047,45.2288,0.2613,0.2241,-0.6243,284.1406
21:36:29:154,0.6298,1.4647,7.5251,44.8063,0.089,0.1237,-0.6232,284.7969
21:36:29:178,0.3054,1.1702,8.2709,45.6815,-0.2149,0.0414,-0.5511,285.4844
21:36:29:198,-0.2728,0.6602,10.051,46.6142,-0.5097,0.0636,-0.3188,286.1875
21:36:29:215,-0.2441,0.5166,12.1603,47.2492,-0.6623,0.0004,-0.0224,286.8438
21:36:29:234,0.4275,0.7991,14.7161,46.7179,-0.4876,-0.125,0.1765,287.375
21:36:29:255,1.354,0.8015,16.3262,47.4098,-0.0652,-0.1602,0.2159,287.5312
21:36:29:280,1.8317,0.7033,15.6821,47.181,0.1867,-0.1447,0.1744,287.5781
21:36:29:297,1.8113,0.9284,14.7257,46.508,0.1673,-0.2262,0.0644,287.4062
21:36:29:315,1.5923,0.6973,15.1494,47.8087,0.2085,-0.2401,-0.0858,287.1719
21:36:29:336,1.0787,-0.1179,15.3074,47.2771,0.4892,-0.0305,-0.1324,286.9688
21:36:29:354,0.6609,-0.738,13.5238,47.2771,0.7766,0.2153,-0.1007,286.9062
21:36:29:379,0.6286,-0.9331,10.5837,48.3036,0.808,0.2684,-0.1021,287
21:36:29:396,0.473,-0.8098,8.0818,46.9656,0.5606,0.0518,-0.1527,287.1562
21:36:29:415,-0.0095,-0.5525,6.9708,49.5105,0.1784,-0.3612,-0.2017,287.2031
21:36:29:436,-0.626,-0.5094,7.5885,48.817,-0.1063,-0.7098,-0.1529,287.2969
21:36:29:456,-1.0773,-0.8122,9.0682,46.0447,-0.1079,-0.762,0.0471,287.5
21:36:29:480,-1.3478,-0.8446,9.6404,47.8618,0.1225,-0.6374,0.3475,287.75
21:36:29:504,-1.2413,-0.4794,8.7988,49.2785,0.3582,-0.5093,0.662,287.8906
21:36:29:513,-0.6846,0.1107,7.3048,48.804,0.4413,-0.4984,0.9225,287.7188
21:36:29:536,0.0779,0.7129,6.4956,47.834,0.445,-0.5647,1.0846,287.1562
21:36:29:555,1.463,1.1594,6.4465,48.3034,0.4887,-0.6294,1.1174,286.2812
21:36:29:580,1.7311,1.1666,6.5112,48.2122,0.5651,-0.639,1.0596,285.1094
21:36:29:596,1.7718,0.9679,6.2634,48.9398,0.6077,-0.5029,0.9611,283.8281
21:36:29:613,1.5851,0.6758,6.3519,49.5299,0.5257,-0.2656,0.8633,282.625
21:36:29:634,1.4761,0.6602,6.6548,48.4471,0.3582,0.0193,0.8069,281.4531
21:36:29:656,1.7299,0.9284,6.9457,47.205,0.2133,0.1924,0.7683,280.375
21:36:29:678,2.0879,1.2109,7.4461,47.7301,0.127,0.0902,0.654,279.4219
21:36:29:741,2.3788,1.1355,8.4109,50.6879,0.0312,-0.2393,0.4354,278.0156
21:36:29:741,2.6409,0.2484,10.2653,49.0413,-0.171,-0.5716,0.1552,277.25
21:36:29:741,2.3608,-0.8709,12.3207,49.7073,-0.4328,-0.5522,-0.0848,276.7812
21:36:29:761,2.0448,-1.2947,13.6746,49.6234,-0.6767,-0.1418,-0.1535,276.6875
21:36:29:780,2.8265,-1.4455,13.7955,49.5999,-0.7944,0.3011,-0.0722,276.7656
21:36:29:797,3.1664,-0.7548,13.2604,51.724,-0.8799,0.5048,-0.0864,277.0469
21:36:29:814,2.453,-0.1694,15.396,50.11,-1.1097,0.197,-0.1891,277.2656
21:36:29:835,1.5803,-0.4292,17.6382,50.0064,-1.0786,-0.1455,-0.2099,277.4219
21:36:29:854,1.3887,-1.1498,16.9451,49.4969,-0.534,0.0857,-0.0757,277.7031
21:36:29:879,2.429,-1.2899,13.8817,49.3828,0.1864,0.6076,0.2516,278.0781
21:36:29:896,4.1193,-1.1486,10.1276,51.752,0.735,0.9254,0.5877,278.3906
21:36:29:914,4.9705,-0.3825,7.0965,50.64,0.9095,0.8739,0.6838,278.3281
21:36:29:933,4.8041,0.8721,5.666,48.0129,0.6914,0.5685,0.5179,277.7344
21:36:29:954,4.427,1.3366,5.9413,51.5115,0.2405,0.25,0.1762,276.8594
21:36:29:979,3.6058,0.829,7.1432,49.3094,-0.1734,0.1498,-0.276,275.7031
21:36:29:998,2.3632,0.3035,7.8938,49.5002,-0.3705,0.3725,-0.6531,275.4688
21:36:30:014,1.2212,0.0461,7.8615,50.3007,-0.3228,0.6976,-0.8227,275.7812
21:36:30:033,0.3293,-0.0449,7.1971,51.4622,-0.0738,0.8247,-0.8163,276.5469
21:36:30:054,-0.0334,0.1095,6.3483,51.3555,0.2538,0.6883,-0.693,277.4844
21:36:30:079,0.1976,0.1993,5.7821,50.9557,0.5305,0.389,-0.4744,278.3281
21:36:30:096,0.5759,0.5513,5.1453,52.1551,0.6978,0.1485,-0.2808,279.0781
21:36:30:114,0.8381,0.9631,4.6568,51.7644,0.6794,0.0516,-0.1694,279.5625
21:36:30:134,0.8656,1.4778,4.7382,51.3505,0.4852,0.0199,-0.1556,279.8125
21:36:30:155,0.9554,2.0417,5.9533,52.4839,0.1899,-0.0307,-0.1955,279.9688
21:36:30:179,1.2295,2.4247,7.6149,53.3364,-0.0562,-0.0952,-0.2725,280.1094
21:36:30:196,1.4594,2.5935,9.6727,52.6514,-0.1987,-0.1152,-0.3993,280.2031
21:36:30:214,1.463,2.5121,11.0458,53.0692,-0.2155,0.0207,-0.5673,280.3281
21:36:30:234,0.9554,2.1865,11.4145,54.594,-0.179,0.2931,-0.7346,281.1094
21:36:30:254,0.358,1.8669,11.9436,54.2407,-0.3097,0.7118,-0.7348,281.7812
21:36:30:274,0.0971,1.6239,12.7385,52.7417,-0.3382,0.813,-0.6331,281.7812
21:36:30:297,0.4395,1.3569,12.8821,54.3644,-0.4277,0.7917,-0.6347,283.4531
21:36:30:314,0.4107,1.4156,12.8175,54.4696,-0.718,0.4023,-0.7612,283.4531
21:36:30:333,-0.79,1.2348,15.0489,52.7019,-0.8,-0.0939,-0.8517,284.8906
21:36:30:353,-2.4097,-0.2628,18.2104,53.8251,-0.3076,-0.1378,-0.6331,285.5781
21:36:30:372,-3.3661,-1.6275,17.8106,56.1431,0.4152,0.3019,-0.0776,286.4219
21:36:30:394,-2.7281,-1.7424,13.6926,54.9099,0.7899,0.5682,0.438,287.4219
21:36:30:415,-1.2054,-1.1139,9.3758,56.5762,0.6168,0.2931,0.6311,288.1094
21:36:30:432,-0.4596,-0.3597,7.6484,54.8891,0.1827,-0.3005,0.621,288.1719
21:36:30:452,-0.2968,0.1048,8.5522,54.3052,-0.0778,-0.7519,0.5773,287.6406
21:36:30:472,0.0935,0.1778,9.9744,57.0111,0.0493,-0.9983,0.5121,286.9375
21:36:30:495,0.3521,-0.0652,10.4113,54.4443,0.4037,-0.9117,0.491,286.25
21:36:30:513,0.0827,-0.1933,9.4297,57.3797,0.6799,-0.5045,0.6335,285.3594
21:36:30:533,0.0324,-0.0461,8.0183,57.5732,0.7792,-0.0454,0.8692,284.8906
21:36:30:554,0.2802,0.3334,6.5878,56.1581,0.7278,0.2295,1.0415,284.3125
21:36:30:580,0.4179,1.0277,5.6133,56.6667,0.6013,0.258,1.1091,283.4375
21:36:30:596,0.6633,1.5149,5.411,55.2837,0.4743,0.177,1.0913,282.3438
21:36:30:612,1.0093,1.6861,5.6528,55.6097,0.4043,0.0795,1.0205,281.0469
21:36:30:636,1.2056,1.6119,6.1915,56.0902,0.4014,0.002,0.9342,279.7188
21:36:30:653,1.2822,1.6694,6.8212,54.9148,0.449,-0.1042,0.8383,278.4688
21:36:30:673,1.5372,1.6849,7.4413,55.7461,0.4716,-0.2158,0.6905,277.9531
21:36:30:700,1.5145,1.6047,8.1165,56.6802,0.4296,-0.1916,0.5616,276.8594
21:36:30:720,1.6354,1.6765,8.5259,55.8306,0.2831,-0.0781,0.4202,275.8906
21:36:30:733,1.9669,1.831,8.9616,55.8508,0.09,0.054,0.2063,275.0938
21:36:30:753,2.2243,1.8022,9.5626,55.2035,-0.0924,0.0561,-0.0403,274.4844
21:36:30:775,2.4877,1.3234,10.4269,54.5705,-0.2131,-0.0307,-0.2496,273.8438
21:36:30:795,2.6505,0.5369,11.3211,56.3484,-0.3119,-0.1319,-0.3721,273.7344
21:36:30:814,2.696,-0.2544,12.4081,54.7963,-0.3502,-0.0685,-0.3729,273.9219
21:36:30:833,3.2024,-0.8146,12.3949,55.3766,-0.3965,0.0881,-0.3556,274.3281
21:36:30:854,3.4406,-0.2388,11.4695,55.9021,-0.5872,0.1109,-0.4467,274.7969
21:36:30:874,2.8336,0.7213,11.8047,56.3043,-0.7454,-0.0779,-0.6584,275.2031
21:36:30:895,1.8532,0.3849,13.519,55.2609,-0.5731,-0.1484,-0.7796,275.6562
21:36:30:913,1.3469,-0.75,13.7847,55.8078,-0.2218,0.0409,-0.6344,276.3281
21:36:30:933,1.6689,-1.1402,11.867,55.9251,-0.0099,0.1373,-0.3705,277.1875
21:36:30:954,3.3867,0.9631,8.2649,55.4737,-0.0783,-0.1879,-0.3122,278.0625
21:36:30:979,2.8013,1.3378,9.7469,54.521,-0.3534,-0.7831,-0.5804,278.625
21:36:30:996,1.6294,0.7392,10.7836,54.9971,-0.4336,-0.978,-0.9154,278.9375
21:36:31:013,0.4514,0.3717,9.6092,54.0454,-0.2471,-0.6073,-1.0653,279.4844
21:36:31:032,-0.0574,0.5297,7.221,55.0759,-0.0397,0.0167,-1.0033,280.4688
21:36:31:053,-0.1795,1.0385,5.3033,53.5116,-0.0003,0.4404,-0.8786,281.7344
21:36:31:072,-0.3387,1.479,4.7993,52.8842,-0.0775,0.4628,-0.7998,283.4688
21:36:31:096,-0.3351,1.6514,5.5211,54.3016,-0.1467,0.1975,-0.7551,283.9688
21:36:31:113,-0.1316,1.6406,6.304,53.8488,-0.0996,-0.0363,-0.7109,284.875
21:36:31:135,0.0959,1.9363,6.2358,53.7486,0.0389,-0.0925,-0.6696,286.125
21:36:31:153,0.528,2.3409,6.2957,52.9041,0.1129,-0.1122,-0.6515,286.5312
21:36:31:173,0.6837,2.6534,7.1301,55.0497,0.0623,-0.1687,-0.7157,287.3281
21:36:31:195,0.6968,2.6785,9.1172,53.2966,-0.0458,-0.252,-0.8163,288.0781
21:36:31:215,0.6837,2.5349,11.102,52.102,-0.0522,-0.2552,-0.8661,288.8281
21:36:31:236,0.5005,2.2188,11.6958,52.6272,0.0778,-0.0611,-0.8744,289.7344
21:36:31:253,0.0731,2.1398,11.4037,53.6186,0.1369,0.312,-0.8163,290.7344
21:36:31:273,-0.0897,2.1841,11.7042,52.5794,0.0333,0.5901,-0.6651,291.7031
21:36:31:293,-0.037,2.0285,12.5062,53.446,-0.0538,0.6063,-0.4885,292.6562
21:36:31:314,0.1641,1.7125,12.9013,51.7489,-0.0173,0.4646,-0.3332,293.4688
21:36:31:332,0.607,1.5987,12.6116,52.6501,0.0682,0.3115,-0.1894,294.0312
21:36:31:353,0.7543,1.9543,12.8115,52.7528,0.0256,0.1304,-0.114,294.5938
21:36:31:372,0.4287,1.9794,14.849,51.8015,-0.1358,-0.2411,-0.1149,294.7812
21:36:31:395,-0.286,1.2001,16.4662,52.2344,-0.0884,-0.4542,-0.1439,294.8906
21:36:31:414,-0.6379,0.2556,14.8777,51.8705,0.2788,-0.1466,-0.06,295.0469
21:36:31:432,-0.5398,0.2185,11.1332,51.8705,0.6245,0.426,0.139,295.2656
21:36:31:455,-0.1819,0.3609,8.6839,51.0805,0.5997,0.5725,0.3049,295.3281
21:36:31:480,-0.1591,0.3178,8.8275,50.0411,0.3206,0.1381,0.3648,295.1094
21:36:31:498,-0.353,0.1538,10.4424,51.1809,0.0621,-0.4686,0.3848,294.6875
21:36:31:513,-0.4464,-0.1694,10.9943,47.9768,0.0298,-0.6531,0.4442,294.25
21:36:31:539,-0.5218,-0.1897,9.6356,50.4613,0.1595,-0.3759,0.5464,293.875
21:36:31:552,-0.2297,0.1933,7.6041,50.3256,0.2615,0.0521,0.694,293.4531
21:36:31:574,0.7363,1.2229,7.0834,48.9741,0.2594,0.2516,0.8141,292.8594
21:36:31:596,2.4793,2.5457,8.5271,48.6088,0.3254,0.1355,0.7781,292.0938
21:36:31:614,3.1234,2.9383,8.8383,48.6352,0.6786,-0.0113,0.4303,291.6094
21:36:31:640,1.9993,2.2512,7.1815,48.7775,1.1787,-0.0153,-0.077,290.625
21:36:31:653,0.54,1.5592,5.0806,47.1105,1.3699,0.2015,-0.3604,289.6719
21:36:31:675,0.0791,1.7831,3.6704,48.5187,0.6711,0.7815,-0.1718,289.7031
21:36:31:698,0.0731,2.3733,3.3101,48.6216,0.18,0.6268,-0.1599,289.7031
21:36:31:712,0.0121,2.5648,4.1134,46.7812,-0.2061,0.2635,-0.2155,290.0312
21:36:31:734,-0.3937,2.1853,5.7869,46.0972,-0.4205,-0.0749,-0.2304,290.2188
21:36:31:816,-0.9288,1.6275,7.6687,48.4515,-0.4738,-0.271,-0.1218,290.2969
21:36:31:816,-1.2461,1.3749,9.2956,48.0399,-0.428,-0.4201,0.0764,290.5
21:36:31:817,-0.8774,1.3318,11.1439,47.3358,-0.2405,-0.512,0.2878,290.7656
21:36:31:817,0.1126,1.327,12.3638,45.5405,-0.004,-0.5293,0.4023,290.9688
21:36:31:835,1.2116,1.4814,12.5266,45.6834,0.0788,-0.4829,0.3669,290.9688
21:36:31:851,1.8939,1.23,12.4536,46.1967,-0.0109,-0.2981,0.2681,290.7344
21:36:31:873,2.4925,0.5513,11.8777,45.8538,-0.2293,-0.052,0.1973,290.375
21:36:31:897,2.8109,0.7129,11.266,44.1057,-0.5353,-0.0222,0.0918,290.0312
21:36:31:913,2.9474,1.4347,12.1962,46.5206,-0.7294,-0.1341,-0.1939,289.7812
21:36:31:932,2.8744,1.2851,14.0948,44.7837,-0.763,0.2002,-0.5828,289.5156
21:36:31:956,2.7666,0.4567,14.6742,44.026,-0.7374,1.0979,-0.8459,289.5938
21:36:31:971,3.006,-0.1526,12.5685,43.1138,-0.7622,1.8223,-1.0145,290.0938
21:36:31:994,3.0515,-0.1694,9.4309,44.2626,-0.8935,1.6756,-1.1921,290.4688
21:36:32:016,2.4626,0.0952,8.1631,45.4964,-0.9982,0.9344,-1.3855,291.2656
21:36:32:032,1.3792,0.0928,8.8228,43.7712,-0.8922,0.2505,-1.5135,292.2031
21:36:32:052,0.2324,-0.4459,9.4201,44.3236,-0.6264,-0.0092,-1.4712,293.3594
21:36:32:073,-1.0414,-0.7895,8.9999,44.4747,-0.3507,0.0665,-1.1897,294.75
21:36:32:097,-1.95,-0.6411,7.6652,44.1012,-0.1526,0.214,-0.7631,297.2812
21:36:32:114,-1.8877,0.1035,6.0168,45.099,-0.0618,0.1898,-0.3966,298.8281
21:36:32:133,-1.1635,0.9391,4.9298,44.6035,-0.0413,-0.0155,-0.2264,299.875
21:36:32:152,-0.62,1.4934,4.6413,44.3119,-0.0439,-0.2409,-0.2083,300.4844
21:36:32:173,-0.2956,1.8166,4.9262,43.1591,-0.0666,-0.3767,-0.2581,300.8125
21:36:32:196,-0.2776,2.0896,5.5331,44.3065,-0.0876,-0.4023,-0.3268,301.0469
21:36:32:214,-0.383,2.2141,6.3268,42.9896,-0.1174,-0.3213,-0.3902,301.3125
21:36:32:233,-0.523,2.384,6.8631,43.3918,-0.2037,-0.218,-0.4672,301.6875
21:36:32:252,-0.6655,2.4535,7.9094,45.3538,-0.3641,-0.0313,-0.5673,302.125
21:36:32:274,-0.4811,2.4942,9.116,41.842,-0.6583,0.2494,-0.778,302.5938
21:36:32:298,-0.9384,2.3062,10.9859,42.3312,-1.0884,0.7818,-1.0707,303.1875
21:36:32:314,-2.8981,1.2145,13.7213,44.1351,-1.3209,1.4521,-1.1008,303.9219
21:36:32:332,-5.1355,-0.1658,16.1514,43.2539,-0.9904,1.826,-0.636,304.875
21:36:32:353,-4.8182,-0.8912,14.3593,44.3043,-0.2589,1.6963,0.1259,306.0781
21:36:32:374,-2.6599,-0.3142,11.5294,43.1063,0.4282,1.1344,0.8135,307.0156
21:36:32:397,-1.3227,0.7129,9.5554,44.3733,0.7318,0.3461,1.046,307.25
21:36:32:417,-1.2628,1.0325,10.555,43.8806,0.531,-0.5572,0.8484,306.6562
21:36:32:432,-2.0505,-0.252,14.2444,42.5292,0.1225,-1.2856,0.4692,305.5625
21:36:32:451,-3.0956,-2.3589,16.6793,41.1724,0.0562,-1.251,0.2396,304.5781
21:36:32:472,-3.2117,-3.1202,14.1941,42.909,0.4091,-0.2664,0.417,303.8906
21:36:32:498,-1.8482,-1.9782,9.535,42.5622,0.6863,0.8156,0.894,303.5781
21:36:32:514,-0.3016,-0.3334,6.8763,41.4017,0.5707,0.8849,1.1645,303.3281
21:36:32:531,-0.2489,0.5764,7.7681,43.4964,0.2229,0.0324,0.9661,302.6562
21:36:32:552,-0.6655,-0.1179,9.9504,42.7508,-0.0266,-0.806,0.5941,301.4062
21:36:32:572,-1.3011,-0.6279,10.4927,43.0805,0.0104,-0.9117,0.3957,300.125
21:36:32:597,-1.4723,-0.3753,9.1041,42.273,0.1515,-0.4313,0.4458,299.3125
21:36:32:615,-0.8283,0.1778,7.3168,43.6707,0.2141,0.1365,0.5904,298.8594
21:36:32:633,-0.5613,0.7236,6.3891,43.4282,0.1678,0.4162,0.6298,298.4531
21:36:32:651,-1.0857,0.8505,6.6572,43.322,0.1529,0.3102,0.5661,297.5625
21:36:32:672,-1.4867,0.5561,7.3946,40.8066,0.2647,-0.0139,0.5299,296.8125
21:36:32:697,-1.5813,0.2723,7.3946,41.3491,0.4669,-0.1727,0.6005,296.1562
21:36:32:713,-1.5537,0.3454,6.4992,41.758,0.6461,-0.0627,0.7296,295.5625
21:36:32:732,-0.9348,0.835,5.5463,40.9256,0.6983,0.1046,0.8865,294.9531
21:36:32:752,-0.292,1.4347,4.9106,42.8623,0.6264,0.152,0.9672,294.1719
21:36:32:772,-0.0789,1.9076,5.3488,43.0986,0.4791,-0.0563,0.9001,293.1875
21:36:32:797,-0.1028,2.0105,6.4034,42.807,0.3454,-0.3674,0.7589,292.1562
21:36:32:814,-0.2656,1.9722,7.4952,40.6801,0.282,-0.6228,0.6071,291.1719
21:36:32:832,-0.3734,1.9064,8.2098,41.0694,0.2717,-0.7642,0.4703,290.375
21:36:32:852,-0.359,1.7376,9.0586,41.3459,0.1995,-0.8233,0.3446,290.0469
21:36:32:872,0.0588,1.4216,10.3766,39.3007,0.0165,-0.8201,0.238,289.5625
21:36:32:898,0.5077,1.0433,12.1902,41.2211,-0.2237,-0.761,0.1371,289.2188
21:36:32:915,1.099,0.5836,13.7871,40.8736,-0.3875,-0.6294,0.0311,289.0156
21:36:32:931,2.0891,0.0617,13.41,41.3413,-0.4014,-0.3205,-0.0741,288.9062
21:36:32:952,2.04,0.4316,12.505,41.6949,-0.4764,-0.052,-0.2363,288.9375
21:36:32:973,1.5108,0.5321,13.7464,41.1675,-0.7422,-0.1644,-0.4483,289.0625
21:36:32:997,1.0021,-0.0796,15.7324,39.9313,-0.931,-0.2912,-0.6877,289.3281
21:36:33:013,1.0859,-1.0325,14.6754,41.2327,-0.7121,0.0406,-0.8185,289.8594
21:36:33:031,1.1984,-1.3689,10.9536,41.1262,-0.3159,0.5845,-0.8339,290.6875
21:36:33:052,1.8053,-1.0983,7.4652,41.5765,-0.4469,0.4628,-0.8142,291.5781
21:36:33:072,1.8891,-0.4914,6.595,40.262,-0.8386,-0.1655,-0.9785,291.5781
21:36:33:096,1.0703,-0.4435,8.5857,40.3304,-0.9643,-0.435,-1.0645,292.4688
21:36:33:113,0.0636,-0.6937,10.8674,41.6437,-0.6461,-0.1378,-0.9583,293.2812
21:36:33:132,-0.365,-0.5094,10.4197,40.5827,-0.163,0.324,-0.7796,295.2344
21:36:33:151,-0.2752,0.0988,7.5766,40.5957,0.094,0.495,-0.668,296.4531
21:36:33:174,-0.304,0.7751,5.1908,39.0048,0.0732,0.3456,-0.6416,297.5469
21:36:33:199,-0.456,1.163,4.3612,41.1209,-0.0589,0.1112,-0.6541,298.375
21:36:33:216,-0.4296,1.2671,4.8172,38.9924,-0.168,0.0071,-0.6861,299.8438
21:36:33:232,-0.4727,1.2528,5.7163,41.8697,-0.22,0.0377,-0.7162,300.5469
21:36:33:257,-0.6643,1.3294,6.4716,40.9303,-0.2075,0.1,-0.741,300.9219
21:36:33:272,-0.9791,1.3785,7.1049,40.1303,-0.1664,0.0662,-0.7631,301.7188
21:36:33:292,-1.3526,1.3605,7.8495,40.0024,-0.1172,0.0023,-0.7492,302.5469
21:36:33:315,-1.707,1.2683,8.642,39.8474,-0.078,-0.08,-0.7058,302.9688
21:36:33:334,-2.1355,1.1187,9.6727,40.8107,-0.0495,-0.2323,-0.6376,303.7969
21:36:33:353,-2.4073,0.7835,11.4205,38.7933,0.0514,-0.5008,-0.5468,304.6406
21:36:33:373,-3.0477,0.2005,13.5693,39.0233,0.2847,-0.8166,-0.4027,305.4531
21:36:33:397,-4.507,-0.3777,14.9004,39.3237,0.5452,-0.9495,-0.0421,306.1406
21:36:33:415,-5.06,-0.5309,15.3422,38.4971,0.7236,-0.806,0.5059,306.7969
21:36:33:431,-3.6451,-0.2017,15.1925,36.9442,0.8488,-0.4041,0.9712,307.2969
21:36:33:452,-1.3275,0.4986,13.4388,37.5132,0.7888,0.0513,1.1113,307.3906
21:36:33:472,-0.0909,1.6466,11.3702,36.9885,0.4597,0.2284,1.0183,306.875
21:36:33:498,0.3473,2.0596,11.4408,37.6268,0.1571,0.1932,0.8892,304.5156
21:36:33:515,0.5268,1.6682,13.0653,38.3428,0.2322,0.222,0.8516,303.4062
21:36:33:534,0.7327,1.1355,13.4424,38.3428,0.6208,0.3941,0.8719,302.875
21:36:33:551,1.1457,0.7679,11.3307,37.6114,0.9034,0.4673,0.8306,301.875
21:36:33:573,1.7275,0.7272,8.3667,36.7135,0.7883,0.198,0.6724,300.8594
21:36:33:599,2.0567,0.9894,6.504,36.9742,0.2719,-0.4246,0.3557,299.8906
21:36:33:614,1.2391,1.0972,7.8375,35.5882,-0.3254,-0.8648,0.0202,298.9688
21:36:33:632,0.0743,-0.1275,11.448,35.8679,-0.5305,-0.5162,-0.0994,298.375
21:36:33:652,-1.4687,-0.9523,13.276,35.8093,-0.274,0.3405,0.1065,298.2656
21:36:33:672,-2.205,-0.8398,11.4671,37.3979,0.1151,0.8995,0.491,298.4375
21:36:33:698,-1.7584,-0.3968,8.1105,35.9675,0.3358,0.854,0.8122,298.5
21:36:33:715,-1.1874,0.1921,6.0574,35.9621,0.428,0.4343,1.005,298.0938
21:36:33:732,-0.614,0.4507,5.5092,35.1702,0.5459,-0.0504,1.1169,297.2656
21:36:33:752,0.0971,0.8206,6.4477,35.4136,0.7452,-0.5271,1.1518,296.1406
21:36:33:772,0.0923,0.8446,7.0451,34.6331,1.0496,-0.9943,1.1486,294.9062
21:36:33:800,0.2695,0.8541,6.9517,35.3535,1.3747,-1.369,1.1246,294.3281
21:36:33:815,0.5149,1.0959,6.3136,35.1453,1.4378,-1.2779,1.0223,292.4688
21:36:33:832,0.9339,1.5413,5.8192,33.9169,0.9939,-0.5314,0.8553,291.3125
21:36:33:899,1.1266,2.0656,6.0598,34.1397,0.2453,0.4185,0.6545,290.2969
21:36:33:899,1.2571,2.4499,6.9996,33.2604,-0.3292,0.8718,0.4569,289.3125
21:36:33:910,1.3038,2.6749,8.071,33.1644,-0.4826,0.6462,0.2641,288.4219
21:36:33:924,1.1422,2.6582,8.8623,33.9389,-0.3907,0.0931,0.0761,287.6562
21:36:33:933,1.3097,2.2428,10.5322,33.1613,-0.3973,-0.4664,-0.0637,287.1562
21:36:33:951,1.6186,1.5868,12.9827,31.4376,-0.5393,-0.7069,-0.1423,286.9062
21:36:33:974,2.7427,1.0349,14.5186,32.1869,-0.6298,-0.4611,-0.1508,286.9688
21:36:33:996,4.2247,0.9595,13.3945,32.7076,-0.5238,0.035,-0.1631,287.2031
21:36:34:015,4.1684,1.8346,12.0106,31.3766,-0.4623,0.197,-0.354,287.5156
21:36:34:043,2.7498,1.8729,13.0533,31.353,-0.6128,-0.1668,-0.7079,287.9844
21:36:34:062,1.0524,0.4627,15.1746,32.819,-0.5249,0.1195,-0.9825,289.1094
21:36:34:077,0.0396,-0.8637,14.3749,32.6519,-0.0743,0.7557,-0.6003,290.3594
21:36:34:098,0.1833,-0.9164,10.8818,32.445,0.2362,0.6457,-0.1479,291.4375
21:36:34:118,1.2128,-0.1407,7.877,32.3428,0.2186,-0.2366,0.0537,292.0469
21:36:34:136,2.0687,0.8505,7.5885,32.1649,-0.0919,-1.0124,-0.0299,292.125
21:36:34:155,2.1932,1.0876,9.7529,32.1724,-0.3305,-0.7956,-0.1924,292.0938
21:36:34:178,2.18,0.7536,10.7453,32.572,-0.327,0.0992,-0.3404,292.25
21:36:34:194,1.6904,0.8637,8.8048,31.425,-0.249,0.8596,-0.4451,292.5781
21:36:34:216,1.1014,1.1247,6.0515,32.748,-0.2368,1.0484,-0.5077,292.9844
21:36:34:236,0.7818,1.412,4.36,31.6964,-0.2818,0.9051,-0.5585,293.3906
21:36:34:255,0.7435,1.5712,3.7279,31.6462,-0.3627,0.7941,-0.6552,293.8594
21:36:34:276,0.7399,1.5712,3.4789,32.4869,-0.5004,0.8636,-0.782,294.4062
21:36:34:298,0.552,1.3438,3.1509,30.638,-0.6634,0.9144,-0.8576,294.7188
21:36:34:314,-0.0071,0.8242,2.3955,32.3774,-0.8578,0.6337,-0.8264,295.4219
21:36:34:334,-1.1407,1.2025,2.4242,32.078,-1.1049,-0.0677,-0.7335,296.2812
21:36:34:353,-1.7932,1.5161,5.6241,33.6393,-1.1585,-0.7588,-0.7298,297.1875
21:36:34:375,-2.4887,0.9164,10.2892,31.9955,-0.9816,-0.9301,-0.7079,297.9844
21:36:34:401,-3.2668,0.2185,13.75,31.8346,-0.7659,-0.4206,-0.4709,299.25
21:36:34:416,-3.2584,0.4699,15.4738,32.8725,-0.5561,0.214,-0.1343,300.0938
21:36:34:434,-2.266,1.3354,15.9383,31.8198,-0.2903,0.5938,0.0503,300.625
21:36:34:452,-1.3191,2.0393,15.2009,31.83,-0.0658,0.7166,0.0793,300.625
21:36:34:472,-0.7577,2.4044,14.4443,31.0157,0.0565,0.6843,0.0479,300.7812
21:36:34:499,-0.5182,2.3314,14.2157,32.6362,0.1382,0.654,0.021,300.7031
21:36:34:517,-0.1687,2.0141,13.4496,32.5555,0.0991,0.4761,0.0308,300.5938
21:36:34:534,-0.1663,2.2212,13.8039,32.6726,0.0024,0.0705,0.0338,300.5156
21:36:34:550,-0.0562,1.643,15.9934,31.5823,0.163,0.0087,-0.0685,300.4844
21:36:34:574,-0.9827,-0.1526,16.2663,32.1841,0.6179,0.3424,0.0162,300.4531
21:36:34:599,-1.8087,-1.3629,13.1263,33.1619,0.9617,0.5424,0.3821,300.4062
21:36:34:616,-1.3909,-1.3078,9.3207,31.6432,0.943,0.1786,0.6258,300.4844
21:36:34:634,-0.4991,-1.1618,7.5035,32.2758,0.6525,-0.5506,0.548,300.4844
21:36:34:651,-0.7493,-1.3473,8.2481,32.6328,0.3244,-1.0366,0.4455,299.4219
21:36:34:671,-1.3777,-1.6837,9.9612,32.9294,0.1827,-0.9487,0.5134,299.1094
21:36:34:692,-1.6962,-1.6382,10.6447,33.4001,0.2458,-0.5309,0.7185,298.6406
21:36:34:715,-1.5142,-1.4156,9.6033,33.7901,0.3851,-0.1642,0.9496,298.2188
21:36:34:732,-1.258,-0.999,7.81,33.7807,0.4621,-0.0789,1.1419,297.5938
21:36:34:752,-1.0378,-0.5632,6.5507,32.8391,0.4634,-0.1253,1.2628,296.6562
21:36:34:774,-0.9241,-0.3454,6.0718,34.1175,0.4677,-0.1447,1.3592,295.5156
21:36:34:799,-0.681,-0.155,5.5283,34.6471,0.445,-0.1535,1.4175,294.8438
21:36:34:815,-0.219,0.1443,5.2314,33.1347,0.3856,-0.1586,1.4135,293.4219
21:36:34:834,0.3138,0.4208,5.1393,33.5706,0.3105,-0.1948,1.319,291.875
21:36:34:850,0.6729,0.7895,5.1237,34.5341,0.188,-0.317,1.1446,290.3438
21:36:34:871,0.704,1.1187,5.8096,33.4485,0.0426,-0.3945,0.9403,288.75
21:36:34:891,0.7471,1.2588,6.7877,33.6499,-0.0557,-0.411,0.727,287.25
21:36:34:913,0.9327,1.2911,7.7801,34.6439,-0.1209,-0.4132,0.4956,285.9688
21:36:34:931,1.0715,1.181,8.6851,32.01,-0.1846,-0.3546,0.2628,285
21:36:34:951,1.2858,0.8936,9.4321,33.848,-0.2703,-0.2906,0.0199,283.9062
21:36:34:972,1.6306,0.4136,10.227,34.5334,-0.4019,-0.2358,-0.2049,283.5469
21:36:34:996,1.8245,-0.2113,11.1774,32.1245,-0.5545,-0.1956,-0.3721,283.4219
21:36:35:018,1.8089,-0.6482,12.4069,35.3509,-0.6546,-0.1234,-0.4595,283.5781
21:36:35:032,2.3129,-0.9499,13.7333,33.77,-0.6085,0.0518,-0.5218,283.9688
21:36:35:051,3.1916,-1.0469,13.7644,32.1815,-0.5364,0.1384,-0.688,284.4688
21:36:35:072,2.7726,-0.2807,13.8673,34.2013,-0.4804,0.0393,-0.9479,285.0625
21:36:35:091,1.7048,-0.3992,14.2396,33.929,-0.4085,0.1054,-1.1759,285.75
21:36:35:116,0.5244,-1.2743,13.9032,34.2698,-0.3705,0.4047,-1.1074,286.6562
21:36:35:132,-0.0969,-1.6514,12.5613,33.7014,-0.3689,0.5126,-0.7926,287.9062
21:36:35:152,0.546,-0.7404,11.0661,34.7115,-0.3441,0.1695,-0.4581,289.2656
21:36:35:172,1.0811,-0.2424,11.3905,34.1085,-0.2799,-0.3098,-0.2469,290.3594
21:36:35:191,1.3887,-0.0461,11.1619,34.9805,-0.1414,-0.4872,-0.133,291.0156
21:36:35:216,1.1757,0.2448,9.8858,34.0229,0.0192,-0.1905,-0.0629,291.2344
21:36:35:231,1.0739,0.6889,7.7621,33.9379,0.1406,0.3022,0.0143,291.6406
21:36:35:251,0.965,1.0397,5.9736,34.2596,0.1984,0.5823,0.0338,291.7656
21:36:35:270,0.7423,1.254,5.0303,34.2811,0.1822,0.5877,0.0162,291.7812
21:36:35:290,0.6011,1.4,4.5695,34.3457,0.1579,0.4833,0.0074,291.7188
21:36:35:316,0.7531,1.5317,4.3193,32.0306,0.1569,0.3536,0.0082,291.6562
21:36:35:333,0.9925,1.6837,4.2031,34.1063,0.1566,0.2204,-0.0203,291.6094
21:36:35:351,1.1194,1.9591,4.4354,35.4723,0.1089,0.0968,-0.1021,291.5781
21:36:35:371,1.1038,2.0836,5.4086,34.7742,-0.0096,-0.0696,-0.2411,291.5469
21:36:35:390,0.9231,2.1267,6.838,32.6223,-0.1673,-0.1924,-0.4304,291.5938
21:36:35:414,0.6645,1.8705,8.569,33.7851,-0.3204,-0.1527,-0.6214,291.7812
21:36:35:431,0.2719,1.497,10.5657,33.3891,-0.4157,-0.0361,-0.7828,292.1719
21:36:35:450,0.449,1.2707,12.3746,34.0193,-0.3838,0.1328,-0.864,292.7656
21:36:35:470,0.4251,1.1199,13.5154,34.0035,-0.1856,0.2012,-0.9087,293.5938
21:36:35:492,-0.7708,0.7237,13.0641,34.9488,0.1244,0.2055,-0.9756,294.5469
21:36:35:513,-1.8877,0.5058,12.766,34.6648,0.2519,0.2018,-0.8898,296.0312
21:36:35:532,-1.9189,0.3537,13.276,33.6763,0.155,0.2683,-0.6009,297.1406
21:36:35:558,-1.197,0.2771,12.8857,34.2506,0.0567,0.4236,-0.2997,298.1406
21:36:35:569,-0.9947,0.8039,12.7085,35.395,-0.0788,0.4353,-0.1181,298.7812
21:36:35:591,-0.9983,0.6782,15.1183,34.4048,-0.3071,0.0484,-0.0432,299.1094
21:36:35:615,-1.8147,-0.4399,17.3581,34.4048,-0.2762,-0.2193,-0.0427,299.2188
21:36:35:630,-2.1846,-1.6358,15.6618,35.1153,0.2306,-0.0022,0.1283,299.2656
21:36:35:654,-1.3825,-1.6035,11.2648,34.3741,0.8085,0.3592,0.5387,299.3125
21:36:35:670,-0.2681,-0.9427,8.1775,35.954,0.9361,0.2462,0.8567,299.1719
21:36:35:692,0.0049,-0.3621,8.0243,32.1381,0.6357,-0.3173,0.8993,298.5469
21:36:35:715,-0.5925,-0.3741,9.5829,35.1484,0.2498,-0.7844,0.8008,297.6094
21:36:35:732,-0.9791,-0.7967,9.9947,34.2157,0.1438,-0.7937,0.7928,296.6094
21:36:35:751,-1.0749,-0.8338,8.405,34.2611,0.2919,-0.4792,0.9595,296.1719
21:36:35:771,-0.3925,-0.2137,6.0754,34.1208,0.4466,-0.1045,1.2314,295.3594
21:36:35:793,0.7076,0.6913,4.937,33.7178,0.4104,0.0044,1.3872,294.4688
21:36:35:815,1.2403,1.2468,4.7754,36.4429,0.2727,-0.0904,1.303,293.2344
21:36:35:833,1.0464,1.26,5.2494,34.9427,0.1425,-0.2393,1.058,290.8906
21:36:35:851,0.6609,0.8889,5.8707,34.9791,0.0921,-0.2009,0.7265,289.4844
21:36:35:870,0.4359,0.756,6.0096,34.307,0.0751,-0.0638,0.7038,289.4844
21:36:35:890,0.5532,1.1019,5.915,34.2351,0.0005,-0.1042,0.6657,288.2969
21:36:35:916,1.1517,1.5509,6.4369,32.6453,-0.1057,-0.26,0.5035,287.3594
21:36:35:982,1.457,1.7735,7.494,34.2545,-0.1947,-0.3556,0.2702,285.7812
21:36:35:983,1.4474,1.7376,8.6252,33.7499,-0.2578,-0.3501,0.0348,285.0312
21:36:35:983,1.463,1.5556,9.7349,34.2511,-0.2778,-0.28,-0.1894,284.5156
21:36:35:995,1.5156,1.1774,10.7585,35.891,-0.2738,-0.239,-0.3833,284.25
21:36:36:015,1.6485,0.7296,11.8047,34.5142,-0.286,-0.1974,-0.5482,284.25
21:36:36:031,1.5959,0.0629,13.1203,36.05,-0.2916,-0.0672,-0.627,284.5
21:36:36:049,1.4199,-0.4328,14.2731,34.6539,-0.1808,0.1948,-0.5865,284.9688
21:36:36:070,1.9634,-0.744,13.8135,35.691,-0.0013,0.3181,-0.5106,286.3594
21:36:36:090,3.1593,-0.732,12.007,33.6045,-0.0192,0.0529,-0.5926,286.7188
21:36:36:114,3.2838,-0.07,11.6419,34.4634,-0.2317,-0.2744,-0.8406,287.2812
21:36:36:134,2.0412,-0.0892,13.4172,34.0816,-0.3036,-0.1205,-1.0419,288.6875
21:36:36:151,0.7292,-1.1366,14.266,35.3158,-0.1127,0.4401,-0.9383,288.6875
21:36:36:170,0.5711,-1.7795,12.2632,34.2684,0.0581,0.6974,-0.6387,289.7812
21:36:36:193,1.1026,-1.485,10.0713,36.1167,0.0487,0.2047,-0.4075,291.8125
21:36:36:216,1.9346,-1.0062,9.8259,32.889,-0.1065,-0.504,-0.3955,291.8125
21:36:36:232,1.9574,-0.7165,11.9927,34.4754,-0.1545,-0.5053,-0.4568,292.3281
21:36:36:250,1.4414,-0.7919,12.8749,34.4284,0.0266,0.2279,-0.443,292.5312
21:36:36:269,0.7854,-0.4375,10.3658,35.3797,0.2562,0.8622,-0.3492,293.0312
21:36:36:290,0.5496,0.1107,6.9349,35.8881,0.3742,0.9794,-0.2688,293.6094
21:36:36:316,0.558,0.5704,4.342,34.1489,0.3734,0.6822,-0.2392,294.0625
21:36:36:331,0.3904,1.0397,3.0862,34.9109,0.2748,0.2215,-0.2568,294.3906
21:36:36:358,0.2563,1.2576,3.0575,35.1213,0.122,-0.1572,-0.3013,294.6094
21:36:36:369,0.1701,1.3461,3.8656,34.6567,-0.0213,-0.3106,-0.3676,294.8281
21:36:36:394,0.3545,1.509,4.6999,36.5369,-0.2389,-0.264,-0.5202,295.25
21:36:36:418,0.3209,1.7783,6.073,35.5729,-0.5782,0.1083,-0.7631,295.6562
21:36:36:438,-0.3231,1.7962,8.2218,35.4984,-0.841,0.7293,-0.9604,296.1406
21:36:36:452,-0.9432,1.3174,9.8391,36.637,-0.901,1.319,-0.9841,296.8906
21:36:36:470,-1.4735,1.2671,10.3012,36.687,-0.8333,1.5528,-0.8568,297.875
21:36:36:492,-1.6938,1.4587,10.6028,35.9587,-0.6141,1.3376,-0.684,298.9375
21:36:36:515,-1.4699,1.5269,11.1595,36.0218,-0.2165,0.8534,-0.5223,299.8438
21:36:36:532,-1.2928,1.5413,11.4217,37.4509,0.2264,0.3765,-0.3615,300.625
21:36:36:550,-1.045,1.8645,10.5885,35.4692,0.4946,-0.0526,-0.2536,301.25
21:36:36:572,-1.0186,1.7448,10.8004,36.1503,0.5039,-0.3889,-0.2584,301.7031
21:36:36:591,-0.7756,1.479,10.9261,37.0147,0.3007,-0.4883,-0.3354,302.0625
21:36:36:614,-1.604,1.3701,12.4332,38.0166,-0.1374,-0.5743,-0.5101,302.375
21:36:36:631,-3.1195,0.3873,17.0887,36.6261,-0.698,-0.8262,-0.6693,302.7344
21:36:36:655,-3.9922,-1.224,19.8828,36.5231,-0.7271,-0.5311,-0.545,303.2344
21:36:36:671,-3.438,-1.7376,16.0341,36.6904,0.069,0.4036,-0.0195,304.3594
21:36:36:691,-2.2947,-0.9774,9.0861,37.4705,0.9356,1.2066,0.6018,304.9531
21:36:36:718,-1.5705,0.1227,5.3141,37.5701,1.0256,0.8753,0.899,304.9531
21:36:36:734,-1.4113,0.1837,6.5016,36.3864,0.4922,-0.2438,0.8295,304.25
21:36:36:751,-1.4173,-0.7033,10.3203,36.3202,-0.0812,-1.2337,0.6508,303.75
21:36:36:770,-1.586,-1.1079,12.4811,37.2574,-0.2511,-1.4286,0.5952,302.7969
21:36:36:790,-1.3514,-0.9547,11.2864,36.5753,-0.0413,-0.9735,0.7014,302.0312
21:36:36:816,-0.8462,-0.6746,8.8623,36.6919,0.2266,-0.4725,0.8692,301.4375
21:36:36:835,-0.4644,-0.0664,7.1049,36.4632,0.3326,-0.2331,1.0215,300.7969
21:36:36:851,0.0265,0.3669,6.2993,36.9351,0.3033,-0.1852,1.1339,299.9844
21:36:36:869,0.3904,0.5812,5.8934,36.7904,0.2796,-0.2318,1.1523,298.9219
21:36:36:889,0.5149,0.7656,5.4804,35.5551,0.3023,-0.3053,1.1001,297.6875
21:36:36:909,0.5771,0.8709,5.5738,34.9269,0.3049,-0.3871,1.0338,296.4375
21:36:36:931,0.5867,1.0696,6.3412,36.2944,0.2703,-0.4339,0.9739,295.1719
21:36:36:950,0.6801,1.1163,7.0953,34.573,0.2477,-0.3977,0.8985,293.4062
21:36:36:970,0.6501,1.1307,7.8639,38.6381,0.2328,-0.3479,0.7792,292.375
21:36:36:991,0.4586,1.0457,8.709,36.0969,0.2005,-0.2531,0.653,291.375
21:36:37:015,0.6023,0.8601,9.4141,37.8581,0.2,-0.1634,0.5533,290.5156
21:36:37:032,1.1098,0.4771,9.7074,37.1994,0.2791,-0.1189,0.446,289.8125
21:36:37:050,1.6138,0.1227,9.6787,36.9261,0.3649,-0.1194,0.3025,289.4844
21:36:37:069,1.8748,-0.2496,9.9887,37.7307,0.3465,-0.186,0.1459,288.9062
21:36:37:090,2.0172,-0.7524,10.8818,36.8438,0.2168,-0.2475,-0.003,288.4844
21:36:37:116,2.2124,-1.1474,11.4576,37.1718,0.0549,-0.1381,-0.0943,288.2344
21:36:37:133,3.4011,-1.6909,10.4352,35.8525,-0.028,0.1637,-0.0954,288.1719
21:36:37:152,3.9458,-1.2001,9.0203,37.9947,-0.1968,0.3695,-0.1721,288.25
21:36:37:170,2.8396,-0.2269,9.7373,36.4621,-0.6519,0.2553,-0.4054,288.4062
21:36:37:191,1.2918,-0.5477,11.8993,36.601,-1.1188,0.1189,-0.7279,288.5625
21:36:37:215,0.2312,-1.8777,12.6726,38.0344,-1.1971,0.2801,-0.9535,289.0312
21:36:37:234,-0.1567,-2.572,11.6778,36.7533,-0.9963,0.5155,-0.8707,289.8438
21:36:37:251,0.6908,-2.3912,10.9584,37.0823,-0.9036,0.0114,-0.2216,290.9688
21:36:37:270,1.5252,-1.3545,12.2872,36.3177,-0.8466,-0.3911,-0.2091,290.9688
21:36:37:292,1.4366,-0.6363,13.6818,37.0285,-0.5425,-0.2542,-0.3223,292.5312
21:36:37:315,1.0727,-0.4627,12.9779,37.1581,-0.168,0.3086,-0.3889,292.7812
21:36:37:334,0.6465,-0.3011,9.893,36.4042,0.0213,0.7858,-0.3694,293.0625
21:36:37:352,0.3281,0.2041,6.9337,37.3066,0.0341,0.8705,-0.3324,293.4531
21:36:37:369,0.2228,0.6303,5.2159,36.8947,-0.0037,0.6755,-0.3324,293.875
21:36:37:389,0.1138,0.914,4.4258,38.7651,-0.0354,0.3802,-0.3524,294.2656
21:36:37:409,0.1761,1.0385,4.3647,39.1722,-0.0583,0.1131,-0.3753,294.625
21:36:37:431,0.1761,1.1067,4.8053,36.8784,-0.0575,-0.0254,-0.4017,295.1562
