Time,Acc_X,Acc_Y,Acc_Z,Meg,Gyr_X,Gyr_Y,Gyr_Z,Ore
18:52:09:516,-4.0293,1.0708,8.308,52.2052,0.0679,-0.3386,-0.0128,206.4219
18:52:09:587,-3.3326,2.2919,7.81,51.8337,0.2679,-0.2696,0.7115,206.4062
18:52:09:605,-2.6203,3.0855,7.4006,53.5382,0.0639,-0.6781,0.6034,206.4062
18:52:09:616,-1.9356,3.4423,7.5371,52.7366,-0.0413,-1.1205,0.2724,186.8438
18:52:09:638,-1.9536,3.1143,7.7777,52.3652,-0.1795,-1.3506,-0.0067,186.1406
18:52:09:656,-2.4887,2.5516,7.7741,52.1205,-0.4248,-1.2585,-0.0808,185.7812
18:52:09:688,-2.9472,2.1817,8.0243,51.6116,-0.7238,-0.8702,0.0204,185.8281
18:52:09:705,-2.8837,2.1434,8.466,51.7385,-0.902,-0.3929,0.1805,186.0469
18:52:09:716,-2.5425,2.4487,8.8108,53.2664,-0.9297,-0.1279,0.2873,186.1094
18:52:09:739,-2.1559,2.6259,8.9401,52.8487,-0.824,-0.1197,0.2884,185.8125
18:52:09:761,-2.1595,2.6163,8.8658,53.8886,-0.6456,-0.292,0.271,185.3438
18:52:09:774,-2.1798,2.4499,8.7665,54.0877,-0.4738,-0.599,0.2724,184.9219
18:52:09:808,-2.1607,1.9854,9.3782,53.8474,-0.3396,-0.6254,0.3131,184.5469
18:52:09:814,-1.8243,1.9255,9.7577,54.4034,-0.2546,-0.4092,0.3989,184.2188
18:52:09:833,-1.4496,2.0117,9.8582,53.3134,-0.24,-0.1474,0.4585,183.9062
18:52:09:853,-1.2975,2.0656,9.6164,52.9858,-0.2615,0.0838,0.5059,183.4375
18:52:09:872,-1.519,2.0752,9.3578,53.6187,-0.2868,0.202,0.5752,182.9062
18:52:09:899,-1.7189,2.0836,8.9544,52.0606,-0.3201,0.3131,0.686,182.2812
18:52:09:912,-2.1164,1.9794,8.3774,53.9442,-0.3513,0.3813,0.8942,181.6094
18:52:09:935,-2.3522,1.7639,7.974,55.0741,-0.371,0.3088,1.1637,180.75
18:52:09:953,-2.1379,1.8597,8.0375,51.5919,-0.3958,0.2097,1.3763,180.2344
18:52:09:973,-1.7429,2.4271,8.551,54.8935,-0.4306,0.1621,1.4562,178.9844
18:52:09:994,-0.6487,2.9658,9.2453,53.0829,-0.4514,0.0806,1.3038,177.5156
18:52:10:018,0.8261,3.1442,10.2916,53.4164,-0.3989,-0.1812,0.8958,174.9219
18:52:10:035,1.1577,3.3094,11.618,54.3147,-0.2677,-0.6763,0.4133,173.4375
18:52:10:053,0.9722,2.7156,12.9085,55.0548,-0.0858,-1.2715,-0.015,172.375
18:52:10:076,0.6382,1.3042,13.8841,53.9675,0.1249,-1.423,-0.231,171.9219
18:52:10:090,1.1577,0.2364,13.9427,53.2333,0.3334,-0.8872,-0.2099,171.9219
18:52:10:112,1.7515,0.2424,13.0294,54.7105,0.5121,0.0167,-0.1138,172.0156
18:52:10:133,1.36,1.3426,11.0565,54.5678,0.5697,0.4774,0.0111,172.7188
18:52:10:154,0.9805,2.4176,9.1292,53.8326,0.4163,0.0622,-0.0155,172.7188
18:52:10:170,1.1505,2.4942,8.5474,54.388,0.1598,-0.574,-0.3663,172.8906
18:52:10:190,1.1326,2.0812,8.8539,54.9481,-0.0932,-1.0542,-0.8257,172.875
18:52:10:209,1.4055,1.2635,10.1647,52.987,-0.3188,-1.5501,-1.1825,172.9375
18:52:10:235,1.706,-0.3334,13.252,53.1024,-0.3473,-1.3029,-1.3519,173.4062
18:52:10:253,1.2379,-1.0457,14.4012,53.1525,-0.0096,-0.5154,-1.2997,174.4531
18:52:10:269,0.7292,-0.3633,12.8259,54.1286,0.278,0.3696,-1.1221,175.8594
18:52:10:293,0.5831,0.8625,10.5873,52.8273,0.44,1.3541,-0.9484,179.0156
18:52:10:309,0.4598,1.5904,8.812,52.7697,0.4485,1.8244,-0.8336,180.2188
18:52:10:330,0.3449,1.4216,6.5315,53.5435,0.171,0.6375,-0.7476,180.75
18:52:10:351,0.2491,0.9367,5.9413,53.4183,-0.1957,-0.3591,-0.6936,181.6406
18:52:10:376,1.3409,0.3442,7.0199,52.0788,-0.3755,-0.3375,-0.6816,182.4531
18:52:10:389,2.5894,-0.0293,8.2817,52.8861,-0.3324,-0.1562,-0.7817,183.2344
18:52:10:412,2.508,0.8063,8.7725,52.9082,-0.0834,0.1304,-0.8627,184
18:52:10:445,1.8867,2.0955,8.7198,53.6274,0.2916,0.5664,-0.8834,184.8281
18:52:10:450,1.5216,2.6474,8.2254,53.1961,0.6978,1.1509,-0.934,185.7188
18:52:10:473,0.6322,3.1729,7.7837,51.2675,1.0397,1.7584,-0.9575,186.2031
18:52:10:495,-1.5082,3.6745,6.1185,52.1389,1.0594,0.9674,-0.7404,187.2031
18:52:10:509,-2.4324,3.0784,5.0447,52.1389,0.731,0.1664,-0.4709,188.25
18:52:10:529,-1.7034,2.5337,5.5331,52.2062,0.3297,0.0982,-0.3924,189.2812
18:52:10:551,-1.9667,3.0377,6.8044,50.706,-0.0229,-0.1168,-0.3593,190.1719
18:52:10:572,-2.2552,3.3262,8.4469,50.6911,-0.2192,-0.1658,-0.3444,191.0625
18:52:10:590,-2.685,2.9239,9.7445,51.0747,-0.2804,-0.1322,-0.2912,191.5
18:52:10:610,-3.5134,2.5576,10.3431,51.9674,-0.2716,0.1094,-0.0709,191.8906
18:52:10:635,-3.8342,2.4355,10.3838,49.6085,-0.221,0.2937,0.2524,192.25
18:52:10:652,-3.42,2.3613,10.5933,50.6672,-0.1515,0.2225,0.5129,192.4375
18:52:10:669,-2.837,2.3098,11.4025,51.3258,-0.0597,0.1682,0.5834,192.2656
18:52:10:689,-2.3091,2.2895,11.9125,50.968,-0.0003,0.2287,0.5121,191.75
18:52:10:710,-2.09,2.5612,11.63,49.5915,-0.1073,0.1362,0.4119,191.1094
18:52:10:735,-1.8183,1.9519,12.8773,50.2717,-0.2932,-0.0699,0.3035,190.4375
18:52:10:753,-1.6926,1.1486,13.5477,50.8637,-0.3409,-0.1466,0.2151,189.8906
18:52:10:771,-1.6674,0.7823,13.7237,51.1835,-0.2727,-0.0414,0.1544,189.4375
18:52:10:795,-1.1647,0.3214,12.7636,50.102,-0.1686,0.291,0.1206,189.125
18:52:10:818,-0.6703,0.2005,10.871,49.9041,-0.0756,0.6284,0.0907,188.8906
18:52:10:835,-0.7313,0.4172,8.7461,48.2216,-0.0642,0.7264,0.0125,188.6875
18:52:10:852,-1.2509,0.6698,7.8998,48.0572,-0.2216,0.4438,-0.1409,188.5
18:52:10:871,-1.5489,0.4567,8.472,49.1575,-0.4178,-0.0741,-0.3031,188.375
18:52:10:889,-1.6507,0.0114,8.8072,49.5487,-0.4458,-0.4579,-0.3588,188.3594
18:52:10:911,-1.7525,-0.0964,8.4433,49.2183,-0.3297,-0.5391,-0.2952,188.5312
18:52:10:937,-1.598,0.0365,7.6747,49.0553,-0.2075,-0.4065,-0.1577,188.875
18:52:10:952,-1.4232,0.2688,6.893,48.8329,-0.155,-0.2433,-0.0235,189.2344
18:52:10:970,-1.5166,0.4364,6.6656,47.0021,-0.1654,-0.198,0.0604,189.4844
18:52:10:989,-1.598,0.3705,6.8679,49.6713,-0.1878,-0.2544,0.1299,189.5625
18:52:11:010,-1.5932,0.4136,7.0702,49.5249,-0.1827,-0.2755,0.2194,189.5312
18:52:11:033,-1.507,0.7153,7.2067,48.1199,-0.1521,-0.227,0.3296,189.4062
18:52:11:051,-1.3359,1.0241,7.5897,47.3667,-0.1012,-0.2464,0.4055,189.2188
18:52:11:071,-1.1742,1.2264,8.2098,46.4271,-0.0242,-0.3737,0.3986,188.8906
18:52:11:089,-1.3658,1.2013,9.1148,47.5121,0.0663,-0.5184,0.3336,188.2188
18:52:11:111,-1.7105,1.1462,9.972,47.5797,0.1305,-0.5634,0.2806,187.7969
18:52:11:134,-2.0505,1.0433,10.9093,47.4549,0.1396,-0.4353,0.3075,187.4688
18:52:11:151,-2.0733,1.3569,11.205,47.655,0.151,-0.1101,0.4548,187.2031
18:52:11:169,-1.4891,1.9375,11.1966,46.4083,0.2075,0.1664,0.6545,186.9062
18:52:11:189,-1.033,2.5468,11.2517,46.3552,0.2844,0.209,0.7187,186.4062
18:52:11:210,-0.6056,2.7144,11.442,48.4337,0.3254,0.0177,0.637,185.6719
18:52:11:235,-0.1759,2.3014,11.9711,46.7802,0.3036,-0.2627,0.4758,184.875
18:52:11:252,0.1486,1.6047,12.0549,46.7562,0.2565,-0.3716,0.3166,184.2188
18:52:11:270,0.3593,1.2492,11.5701,46.6082,0.1686,-0.2752,0.2588,183.7344
18:52:11:289,-0.2417,1.1797,11.6814,45.4656,-0.0466,-0.2065,0.222,183.4375
18:52:11:310,-1.1156,0.7081,12.8498,45.8542,-0.3678,-0.2592,0.1786,183.2969
18:52:11:335,-1.0354,-0.021,13.9032,46.8468,-0.5571,-0.3522,0.1794,183.0625
18:52:11:352,-0.3207,-0.6638,13.8314,44.9795,-0.5342,-0.2555,0.2106,182.8438
18:52:11:372,0.4442,-0.9487,12.8821,45.1313,-0.3308,-0.0161,0.286,182.625
18:52:11:392,1.1206,-0.805,11.5438,46.0926,-0.0764,0.2457,0.3882,182.2344
18:52:11:409,1.1098,-0.3801,10.2186,44.4284,0.1499,0.2689,0.3475,182.2344
18:52:11:431,0.9817,-0.1646,8.8563,46.2379,0.2679,0.1456,0.0359,181.0312
18:52:11:454,0.7459,0.0916,7.7681,45.7768,0.1726,0.3416,-0.0887,180.8125
18:52:11:524,0.4203,0.4854,6.6045,44.7045,0.0863,0.5104,-0.1583,180.8125
18:52:11:525,0.4502,0.8649,5.417,43.3094,0.0051,0.4806,-0.2339,180.875
18:52:11:525,0.6011,1.2456,4.5551,45.4869,-0.1039,0.3501,-0.3519,180.875
18:52:11:538,0.6214,1.5257,4.2594,44.4562,-0.2069,0.2518,-0.4781,181.0156
18:52:11:549,0.4897,1.6694,4.5228,44.2083,-0.2439,0.1994,-0.5676,181.25
18:52:11:570,0.2288,1.6299,4.8592,43.1462,-0.2221,0.1554,-0.5934,181.5938
18:52:11:592,-0.2022,1.5975,5.2997,43.0348,-0.1856,0.1333,-0.5372,182.0938
18:52:11:608,-0.5769,1.722,6.2442,45.6986,-0.1174,0.0918,-0.4411,182.7031
18:52:11:629,-0.9444,1.8573,7.6891,42.876,0.008,0.0564,-0.3532,183.3281
18:52:11:650,-1.4388,1.8525,9.2405,43.2384,0.1649,0.0657,-0.2347,184.1406
18:52:11:677,-1.6208,1.91,10.2377,41.4819,0.2591,0.1219,-0.1199,184.5781
18:52:11:688,-1.5465,2.0273,10.9883,41.5977,0.2181,0.194,-0.0645,184.9219
18:52:11:710,-1.9296,2.1793,11.8203,42.1198,0.134,0.4124,0.033,185.1406
18:52:11:733,-2.3474,2.129,12.2884,42.4915,0.1161,0.6851,0.2681,185.2656
18:52:11:754,-2.3067,2.2188,12.171,43.0096,0.1755,0.8004,0.5605,185.2969
18:52:11:777,-1.5082,2.4068,11.6132,43.2975,0.233,0.7728,0.698,185.125
18:52:11:788,-0.6248,2.469,10.5849,41.3561,0.134,0.5762,0.5789,184.9219
18:52:11:809,-0.4608,2.7755,9.9744,41.793,-0.1558,0.0231,0.2849,184.2344
18:52:11:830,-0.3327,2.5492,10.9249,42.2504,-0.4932,-0.7043,-0.1532,183.4219
18:52:11:852,-0.5853,1.0074,13.1467,41.1689,-0.6679,-1.1136,-0.537,182.7656
18:52:11:873,-1.7405,-0.8805,15.0034,42.8199,-0.6024,-1.0041,-0.6166,182.4062
18:52:11:891,-2.9783,-2.1757,15.3936,40.3567,-0.3672,-0.4907,-0.3303,182.5625
18:52:11:912,-3.487,-2.2943,13.9751,41.8405,-0.1015,0.1181,0.1975,183.1094
18:52:11:934,-2.8358,-1.5556,11.3762,41.2902,0.0527,0.4132,0.6149,183.7969
18:52:11:950,-1.8267,-0.4555,9.0418,40.712,0.0541,0.1003,0.6828,184.1094
18:52:11:969,-0.8307,0.4411,7.8208,41.2958,-0.029,-0.3498,0.5054,183.6094
18:52:11:989,-0.2836,0.8673,7.4317,42.006,-0.1443,-0.5133,0.275,182.8125
18:52:12:010,-0.1902,0.8577,7.0127,42.4625,-0.2783,-0.3873,0.0654,182.125
18:52:12:032,-0.474,0.7536,6.4645,42.6369,-0.4205,-0.1753,-0.0637,181.7188
18:52:12:052,-0.9624,0.7584,6.2741,42.104,-0.4943,-0.0851,-0.0983,181.5312
18:52:12:072,-1.6794,0.6255,6.7063,42.2496,-0.3981,-0.1314,-0.0022,181.5156
18:52:12:088,-1.9943,0.4926,7.1779,41.5823,-0.1598,-0.1921,0.1834,181.5625
18:52:12:109,-1.7548,0.4591,7.3288,42.3283,0.1092,-0.2877,0.3581,181.5938
18:52:12:129,-0.8977,1.181,7.8818,42.1049,0.2996,-0.4041,0.466,181.4531
18:52:12:150,-0.4656,1.3988,8.7114,45.2698,0.3659,-0.455,0.4489,181.1562
18:52:12:169,-0.5542,1.1833,9.8247,42.9787,0.3406,-0.4137,0.3158,180.7344
18:52:12:192,-1.0928,0.9032,10.7656,42.6481,0.2892,-0.2001,0.1989,180.25
18:52:12:210,-1.3442,0.9727,10.9883,43.2016,0.2727,0.161,0.2255,179.8594
18:52:12:229,-0.9731,1.3605,10.7166,45.4604,0.3047,0.4625,0.3414,179.6406
18:52:12:251,-0.5398,1.734,10.3347,43.3366,0.3302,0.5229,0.3544,179.4531
18:52:12:268,-0.5805,1.6634,10.4041,42.8222,0.306,0.3288,0.1911,179.1406
18:52:12:293,-0.9408,1.0385,11.3438,42.7155,0.2325,-0.064,-0.0126,178.7031
18:52:12:307,-0.845,0.1574,12.4548,43.1469,0.1744,-0.3895,-0.08,178.4062
18:52:12:328,-0.5494,-0.1287,12.5816,45.2059,0.1742,-0.4012,0.0236,178.3281
18:52:12:360,0.1282,0.4842,11.4324,43.5139,0.1952,-0.1405,0.2143,178.4531
18:52:12:368,0.8955,1.1019,10.9763,45.4112,0.0682,-0.0534,0.2346,178.5469
18:52:12:389,0.9686,0.9427,12.0202,45.6925,-0.1561,-0.37,-0.064,178.4688
18:52:12:410,0.4347,-0.0748,13.4914,45.5142,-0.2967,-0.6992,-0.4994,178.1875
18:52:12:440,0.1198,-1.7041,13.8123,46.0171,-0.2253,-0.7405,-0.7186,178.0625
18:52:12:452,0.1785,-2.1973,12.098,45.5503,-0.0136,-0.4635,-0.5929,178.4062
18:52:12:468,0.6346,-1.1331,10.5023,45.7545,0.0048,-0.0523,-0.3207,179.1875
18:52:12:488,1.597,-0.3526,8.9688,45.3156,-0.0562,0.1594,-0.1183,180.0312
18:52:12:508,1.8568,0.2532,7.9046,45.7795,-0.1417,0.1405,-0.1748,180.5469
18:52:12:528,1.5671,0.6219,6.8152,45.0025,-0.2189,0.1109,-0.375,180.7969
18:52:12:548,0.7758,0.9044,6.1173,47.316,-0.2945,0.0454,-0.5932,180.9844
18:52:12:568,0.1234,0.8134,6.4405,45.3226,-0.3896,-0.0728,-0.7292,181.125
18:52:12:588,-0.5182,0.6877,7.4509,46.1594,-0.4048,-0.1953,-0.7388,181.6562
18:52:12:608,-1.0892,0.6135,7.6029,47.5562,-0.2248,-0.1799,-0.6416,182.4062
18:52:12:636,-1.2018,0.7356,7.0056,46.865,0.0248,0.002,-0.4227,183.2344
18:52:12:653,-0.9205,1.3497,5.9856,48.3742,0.2043,0.2635,-0.1508,183.9844
18:52:12:668,-0.3483,2.0069,5.4445,46.8868,0.2525,0.3509,0.0026,184.6094
18:52:12:688,0.0636,2.6019,6,48.5803,0.1782,0.2079,-0.0395,184.9375
18:52:12:707,0.2922,2.7587,7.4976,47.2742,0.078,-0.0451,-0.1897,184.9844
18:52:12:727,0.1079,2.4415,8.8096,46.366,0.0844,-0.2164,-0.3484,185.0312
18:52:12:748,-0.8893,1.5999,9.9983,49.573,0.1382,-0.207,-0.4738,185.2656
18:52:12:768,-2.0745,1.0157,11.266,50.3867,0.1364,0.0343,-0.4065,185.6562
18:52:12:788,-2.3486,1.09,11.8562,50.3867,0.1337,0.4252,-0.0768,186.2188
18:52:12:808,-1.7333,1.4276,11.9149,47.1379,0.1707,0.687,0.3168,186.7031
18:52:12:829,-0.8917,1.7568,12.1016,48.1985,0.2176,0.304,0.6005,186.7812
18:52:12:852,-0.6212,1.576,12.596,48.889,0.2397,0.0998,0.5744,186.7812
18:52:12:870,-0.6966,1.2085,12.4105,48.889,0.1872,0.1991,0.6295,186.3906
18:52:12:888,-0.6176,1.4276,11.7413,48.1967,-0.0248,0.3128,0.7198,185.7344
18:52:12:908,-0.2788,1.9148,11.6766,47.8253,-0.2815,0.2058,0.6545,185.0781
18:52:12:929,-0.0466,1.716,13.082,49.4471,-0.2661,0.075,0.486,183.7344
18:52:12:948,0.194,0.8697,14.0218,50.4076,0.1036,0.2036,0.2873,182.875
18:52:12:968,0.0875,0.0521,12.5026,49.093,0.4059,0.4782,0.0881,182.1094
18:52:12:990,-0.0274,-0.2508,9.4417,49.7121,0.2559,0.4196,-0.1117,181.3281
18:52:13:009,0.1474,-0.2831,7.8483,49.8566,-0.2701,-0.0635,-0.4022,181.125
18:52:13:029,-0.2022,-0.6937,8.8239,49.038,-0.746,-0.5716,-0.6587,181.1406
18:52:13:053,-0.7636,-1.2324,10.6232,47.7224,-0.906,-0.566,-0.7412,181.2344
18:52:13:068,-1.2724,-1.3964,11.1439,48.7182,-0.8011,-0.1812,-0.6254,181.6562
18:52:13:088,-1.5226,-1.2204,10.3191,48.0442,-0.5332,0.2753,-0.3756,182.3281
18:52:13:108,-1.4951,-0.847,8.5438,48.1505,-0.2338,0.5245,-0.0672,183.1094
18:52:13:129,-1.1048,-0.3765,6.6105,46.8947,-0.0107,0.4465,0.2354,183.7344
18:52:13:154,-0.3878,0.3478,5.3631,50.7245,0.1143,0.1959,0.4247,184.0938
18:52:13:168,0.4418,1.0433,4.6832,48.9484,0.1585,-0.1301,0.4202,184.1094
18:52:13:188,0.9506,1.7244,4.8185,48.8946,0.1353,-0.4361,0.2346,183.8125
18:52:13:207,0.9219,2.1889,5.5642,48.1337,0.0818,-0.6321,-0.0358,183.3438
18:52:13:228,0.3006,2.1925,6.7817,49.0758,0.0221,-0.7945,-0.2608,182.9062
18:52:13:250,-0.6523,1.8753,8.7856,48.3362,0.0357,-0.8158,-0.305,182.6719
18:52:13:269,-1.2126,1.4683,10.7788,48.727,0.1406,-0.4523,-0.1761,182.9062
18:52:13:288,-1.6256,1.3629,11.7928,50.3571,0.2655,0.1493,0.0516,183.2812
18:52:13:308,-1.6639,1.7603,11.5641,48.9705,0.3436,0.5954,0.2343,183.625
18:52:13:328,-1.4041,2.2727,10.786,48.8271,0.3896,0.6537,0.2647,183.7188
18:52:13:350,-1.1096,2.5708,9.7146,48.511,0.335,0.311,0.1512,183.5625
18:52:13:370,-1.1359,2.4451,9.2489,48.4406,0.1494,-0.2768,0.0058,183.25
18:52:13:388,-0.9648,1.8932,10.2641,49.5824,-0.0314,-0.6329,-0.0781,183.0156
18:52:13:408,-0.7098,1.0469,11.4564,48.5363,-0.0738,-0.6491,-0.0512,182.9531
18:52:13:429,-0.6535,0.4723,11.7209,48.009,-0.0591,-0.4102,0.1166,183.0469
18:52:13:454,-0.1208,0.7237,10.7237,47.3472,-0.2024,-0.3373,0.2242,183.1875
18:52:13:471,0.6501,1.1199,10.6711,48.4837,-0.4408,-0.912,0.0561,183.1875
18:52:13:488,0.8872,0.3921,13.2652,47.2392,-0.4392,-1.4371,-0.2885,182.9844
18:52:13:508,0.0755,-1.1797,15.9611,46.3791,-0.1555,-1.3682,-0.4467,182.7812
18:52:13:578,0.3174,-2.5696,14.6036,47.2577,0.1633,-0.6513,-0.305,182.9531
18:52:13:589,0.6286,-2.1195,11.9005,46.6248,0.2165,0.1938,-0.1316,183.4531
18:52:13:589,0.7375,-1.1594,9.7014,46.9088,0.0418,0.6763,0.0053,183.7344
18:52:13:590,0.8165,-0.5776,8.8826,47.0869,-0.2064,0.6817,0.026,184.2188
18:52:13:607,0.7387,-0.088,8.2374,45.7284,-0.3499,0.5839,-0.06,184.2656
18:52:13:627,0.6406,0.1873,7.33,45.5904,-0.3502,0.5203,-0.1292,184.1875
18:52:13:649,0.5053,0.2484,6.3483,47.2002,-0.2927,0.4028,-0.1782,184.1562
18:52:13:667,0.2814,0.2448,5.7953,45.5208,-0.2599,0.2558,-0.1929,184.2031
18:52:13:687,0.0899,0.41,5.8013,43.1845,-0.257,0.0865,-0.1553,184.3438
18:52:13:708,0.1031,0.6853,5.9904,45.1287,-0.2168,-0.0249,-0.0837,184.5156
18:52:13:729,0.2946,0.8793,5.9928,45.4662,-0.1204,-0.0654,-0.0424,184.7031
18:52:13:753,0.3604,1.09,5.8898,43.9142,-0.0261,-0.0406,-0.0595,184.8281
18:52:13:771,0.6214,1.4072,6.2238,43.7568,-0.0107,-0.0089,-0.0837,184.875
18:52:13:788,0.8177,1.807,7.0834,45.5705,-0.0455,-0.059,-0.0887,184.9219
18:52:13:810,1.0428,2.1446,8.6348,44.6085,-0.0293,-0.2315,-0.1045,185
18:52:13:827,1.032,2.2523,9.5721,42.963,0.0898,-0.2012,-0.1516,185.0938
18:52:13:848,0.5735,2.1506,10.8087,44.1749,0.208,-0.071,-0.2083,185.2656
18:52:13:871,0.4921,2.0034,12.0597,41.7875,0.3529,0.0071,-0.1647,185.4531
18:52:13:898,0.5496,1.831,11.9891,40.8791,0.6008,0.0934,-0.0674,185.6875
18:52:13:907,0.6956,1.7651,11.5462,42.2505,0.7372,0.1362,-0.0352,185.9062
18:52:13:928,0.9291,1.6023,11.861,43.0455,0.5843,0.1845,-0.0706,186.0312
18:52:13:951,0.704,1.1666,12.3326,41.163,0.2309,0.3815,-0.2144,186.1094
18:52:13:973,0.1354,0.7021,12.5685,42.2252,-0.1302,0.6255,-0.3798,186.2188
18:52:13:989,-0.7457,0.1921,13.5717,42.6625,-0.4208,0.5695,-0.5146,186.4688
18:52:14:009,-2.2863,-0.829,14.9328,42.5217,-0.5553,0.2675,-0.623,186.8281
18:52:14:028,-3.5924,-1.9974,15.062,40.4629,-0.412,0.1118,-0.5625,187.3438
18:52:14:053,-3.7887,-2.4535,13.2915,41.5207,-0.0293,0.2534,-0.1931,187.6562
18:52:14:069,-2.8957,-1.9375,10.2365,40.6234,0.384,0.4484,0.3491,188.3125
18:52:14:094,-1.5274,-0.9331,7.8507,38.5366,0.5886,0.2617,0.7653,188.75
18:52:14:107,-0.4536,0.1,7.1612,39.2065,0.494,-0.3149,0.883,188.6719
18:52:14:132,0.3808,0.7404,7.6604,40.2143,0.2056,-0.8747,0.7738,188.0312
18:52:14:152,0.8453,0.9523,8.144,40.7096,-0.1055,-0.9993,0.5675,187.1094
18:52:14:168,0.7854,1.0265,7.9153,40.9809,-0.3012,-0.7074,0.3379,185.875
18:52:14:188,0.3916,0.9415,7.0307,41.1362,-0.3771,-0.2693,0.1411,185.2812
18:52:14:209,0.0588,0.744,5.9258,41.3114,-0.3856,0.0753,0.0436,184.9375
18:52:14:228,-0.1387,0.6734,5.3883,40.252,-0.3816,-0.1021,0.0716,184.7656
18:52:14:252,-0.2657,0.6674,5.7917,40.54,-0.3233,-0.358,0.1075,184.6094
18:52:14:269,-0.2896,0.5884,6.5662,40.8683,-0.2085,-0.5053,0.1438,184.6094
18:52:14:288,-0.2237,0.4807,7.4341,39.0735,-0.0645,-0.5247,0.2015,184.375
18:52:14:308,0.1007,0.4926,8.2649,38.7022,0.0631,-0.4379,0.2311,184.375
18:52:14:328,0.7088,0.568,8.9305,39.3027,0.1151,-0.317,0.1667,184.2188
18:52:14:353,1.1445,0.9535,10.0139,38.3634,0.0932,-0.116,0.0039,184.0156
18:52:14:370,1.3828,1.3916,12.0813,39.1525,0.1539,0.3171,-0.2533,183.7656
18:52:14:387,1.6485,1.4299,13.5238,37.6989,0.3792,0.9275,-0.5548,183.5938
18:52:14:408,1.7862,0.9631,12.4404,38.954,0.5119,1.4348,-0.8185,183.875
18:52:14:428,0.5855,1.1127,10.2126,39.4427,0.3526,1.4212,-0.9596,184.1406
18:52:14:452,-0.8846,1.3186,9.1831,39.0751,0.0549,0.7871,-0.9764,184.9219
18:52:14:471,-1.8518,1.0936,10.5538,38.383,-0.0796,0.0215,-0.8209,185.875
18:52:14:489,-1.7513,0.5237,13.015,39.1858,0.1113,-0.3335,-0.5173,186.9531
18:52:14:509,-1.1802,0.313,13.5238,38.7926,0.3529,-0.3383,-0.2318,187.9844
18:52:14:527,-0.6104,1.1019,12.5745,38.5413,0.2631,-0.5985,-0.187,188.4219
18:52:14:552,-0.2525,1.2133,13.5226,38.4634,0.029,-0.8893,-0.379,189.0156
18:52:14:571,-1.173,-0.1658,15.4463,38.6105,0.1382,-0.5911,-0.3324,189.3281
18:52:14:587,-1.9236,-1.315,14.831,38.0504,0.5097,-0.161,0.0756,189.6094
18:52:14:608,-1.0234,-1.503,11.9113,38.2404,0.7502,-0.1282,0.5251,190.0625
18:52:14:627,0.1007,-0.9691,9.0191,39.7653,0.7148,-0.4995,0.7936,190.4844
18:52:14:647,0.9674,-0.4699,7.3707,38.8338,0.5089,-0.8899,0.7829,190.4531
18:52:14:669,1.4223,0.2005,6.8918,39.4405,0.2304,-1.0049,0.5536,189.9062
18:52:14:688,1.5516,0.4124,7.2019,39.9463,-0.0253,-0.7173,0.283,188.3438
18:52:14:707,1.4127,0.2508,7.2091,40.2209,-0.1909,-0.2449,0.0657,187.7969
18:52:14:728,0.9243,0.0952,6.7853,40.3194,-0.274,0.1173,-0.0552,187.6406
18:52:14:753,0.522,0.1287,6.3352,39.4418,-0.2858,0.2755,-0.0749,187.5
18:52:14:769,0.3473,0.2484,6.1688,40.8421,-0.2067,0.3123,-0.0552,187.5156
18:52:14:792,0.2491,0.4459,6.1281,39.6695,-0.0402,0.304,-0.0168,187.5625
18:52:14:809,0.3999,0.7165,5.8252,38.7161,0.1167,0.3032,0.0367,187.6094
18:52:14:835,0.6082,1.2971,5.4182,39.2341,0.1513,0.2417,0.0894,187.6094
18:52:14:854,0.9458,2.2248,5.5954,38.759,0.0368,0.0273,0.0505,187.5938
18:52:14:869,1.0967,3.2232,6.9648,39.6655,-0.1174,-0.1117,-0.1162,187.5
18:52:14:887,1.0655,3.7906,9.1903,38.5004,-0.1838,0.0462,-0.391,187.3906
18:52:14:908,0.558,3.5692,11.4229,39.4178,-0.0956,0.491,-0.648,187.4219
18:52:14:929,-1.5358,2.499,11.6216,39.295,0.0493,1.161,-0.729,187.7031
18:52:14:950,-2.1355,2.1889,10.7513,39.9302,0.0724,1.6481,-0.6043,188.25
18:52:14:969,-2.0445,1.9555,10.7944,39.407,0.0099,1.6404,-0.3628,189.0156
18:52:14:987,-1.7046,1.3414,11.7616,38.9506,-0.0157,1.1539,-0.1535,189.375
18:52:15:008,-1.5801,0.6482,11.8071,39.2572,0.0562,0.5847,-0.0177,190.125
18:52:15:029,-1.7237,0.483,11.6335,38.3689,-0.0085,0.3424,0.1584,190.2969
18:52:15:052,-1.6483,0.5321,12.9156,37.8465,-0.3587,0.238,0.4234,190.3125
18:52:15:068,-0.8678,0.3633,14.813,38.8034,-0.6312,0.1781,0.633,190.2344
18:52:15:087,-0.4189,-0.0844,14.819,38.8035,-0.4426,0.1328,0.5912,189.875
18:52:15:107,-0.5218,-0.4615,12.2572,39.2105,0.0338,0.0574,0.4074,189.1562
18:52:15:126,-0.3566,-0.3861,10.2162,39.6486,0.2091,-0.222,0.3003,188.3281
18:52:15:147,-0.0334,-0.0652,9.8128,39.4745,-0.0365,-0.4981,0.197,187.75
18:52:15:169,0.2898,0.0832,10.3048,38.7179,-0.3894,-0.566,0.0029,187.3906
18:52:15:188,0.3078,0.2915,11.2625,39.1001,-0.599,-0.4883,-0.2291,187.1406
18:52:15:207,-0.0837,0.4471,11.509,39.0341,-0.5068,-0.247,-0.3979,187.0156
18:52:15:227,-0.5266,0.0533,9.8056,38.9733,-0.1465,0.1288,-0.4528,187.125
18:52:15:247,-1.2425,-0.0269,6.7494,39.7839,0.2096,0.5509,-0.3513,187.4531
18:52:15:272,-1.6196,0.3717,4.925,39.001,0.2794,0.7706,-0.0696,188.1406
18:52:15:288,-1.2652,0.987,4.4485,39.7175,0.1417,0.7778,0.2955,188.5469
18:52:15:307,-0.8654,1.5353,4.8137,37.4224,0.0101,0.6731,0.5315,188.625
18:52:15:327,-0.3219,1.995,5.3763,38.4424,-0.0085,0.4441,0.5997,188.2812
18:52:15:347,0.0875,2.3673,6.1305,40.4762,0.0354,0.1187,0.543,187.6406
18:52:15:371,0.0097,2.5959,7.7932,40.5839,0.0354,-0.2986,0.3701,186.9219
18:52:15:387,-0.0765,2.2775,10.3323,38.4103,0.0322,-0.6507,0.1501,186.2969
18:52:15:408,-0.3411,1.6394,12.2117,39.119,0.1859,-0.7394,-0.0491,185.9219
18:52:15:431,-0.9085,1.2743,12.5194,39.843,0.4352,-0.4667,-0.1953,185.7969
18:52:15:456,-1.185,1.2683,11.5438,40.0199,0.6053,0.0433,-0.252,185.9219
18:52:15:474,-1.3813,1.3701,10.6938,39.1518,0.5918,0.4031,-0.3015,186.3906
18:52:15:490,-1.7776,1.2779,10.5095,39.0666,0.3651,0.2961,-0.4824,186.7656
18:52:15:510,-2.084,0.8158,11.041,39.6183,0.3673,0.1331,-0.4235,187.2031
18:52:15:530,-1.6112,0.3992,10.9332,39.1447,0.3638,0.0651,-0.3143,187.7188
18:52:15:553,-0.7337,0.6614,9.954,38.2232,0.1422,-0.2387,-0.3862,188.2969
18:52:15:569,-0.3746,0.9427,10.2904,39.262,-0.2389,-0.6129,-0.6861,188.9375
18:52:15:630,-0.9408,-0.1622,12.1076,38.5407,-0.4887,-0.5618,-0.9162,189.4062
18:52:15:631,-2.1403,-1.8238,13.2293,40.1236,-0.5023,-0.1607,-0.7455,190.2188
18:52:15:631,-2.8598,-2.8449,12.5745,40.5987,-0.3404,0.0161,-0.1732,190.2188
18:52:15:656,-1.8674,-2.8353,11.2732,40.8423,-0.0839,-0.2201,0.4327,191.25
18:52:15:670,0.0612,-1.7137,10.2222,40.1126,0.1257,-0.5889,0.7334,192.0156
18:52:15:687,1.7443,-0.2951,9.1819,41.2485,0.1031,-0.7818,0.5933,192.1562
18:52:15:707,2.5691,0.6818,8.4756,40.3215,-0.1015,-0.6057,0.1294,191.6719
18:52:15:726,2.289,0.8398,7.6472,40.3655,-0.3553,-0.1783,-0.3271,190.9375
18:52:15:747,1.3181,0.6961,6.7147,40.352,-0.5593,0.1903,-0.5857,190.3281
18:52:15:769,0.23,0.6051,5.976,40.0872,-0.6775,0.3307,-0.6478,190.2031
18:52:15:786,-0.6463,0.5896,5.6959,39.4991,-0.685,0.3445,-0.5844,190.5469
18:52:15:806,-1.428,0.677,5.7199,40.7324,-0.5808,0.3099,-0.4264,191.125
18:52:15:826,-1.7285,0.7883,5.8384,40.5645,-0.3949,0.2319,-0.187,192.3438
18:52:15:848,-1.78,1.0576,5.8444,41.0089,-0.2117,0.054,0.0559,192.7344
18:52:15:869,-1.6483,1.5485,6.1879,42.1947,-0.0967,-0.2686,0.2356,192.8438
18:52:15:888,-1.0282,2.1219,7.5155,40.9168,-0.008,-0.5074,0.2721,192.7969
18:52:15:908,-0.5709,2.5516,9.213,41.5319,0.0932,-0.4808,0.1571,192.6719
18:52:15:927,-0.7529,2.7204,10.2138,42.6789,0.1366,-0.2576,0.0055,192.375
18:52:15:951,-1.4759,2.8054,10.6579,42.7084,0.0764,-0.1218,-0.0262,192.1406
18:52:15:972,-1.8722,2.6917,11.454,41.7915,-0.0165,-0.223,0.0535,192.0781
18:52:15:986,-1.8279,2.4475,13.1718,42.3222,0.0482,-0.4198,0.1837,192.125
18:52:16:007,-1.3071,1.9806,14.7544,42.0119,0.3555,-0.4499,0.3256,192.1406
18:52:16:027,-0.6739,1.4192,14.8669,44.0498,0.7119,-0.2166,0.4308,192.0938
18:52:16:053,-0.2657,1.3126,13.4208,43.6284,0.8144,0.0572,0.4865,191.9062
18:52:16:071,0.036,1.5868,11.9005,43.8661,0.5728,0.0612,0.4055,191.5938
18:52:16:086,0.2527,1.5413,11.9209,46.1156,0.2157,-0.1018,0.1871,191.1719
18:52:16:107,0.0935,0.677,13.3825,45.4323,0.1297,-0.1599,-0.0246,190.6875
18:52:16:126,-0.5937,-0.5836,13.7811,46.0643,0.3206,-0.0326,-0.0709,190.2812
18:52:16:148,-1.2868,-1.3737,12.5374,46.4286,0.5023,0.1357,0.0668,190.1094
18:52:16:168,-1.4999,-1.5796,10.3934,45.5348,0.4581,0.0348,0.2657,190.2188
18:52:16:186,-1.4963,-1.3868,8.8946,48.0759,0.2003,-0.4142,0.4306,190.2656
18:52:16:210,-1.2485,-1.1905,8.885,47.575,-0.0314,-0.7692,0.5901,190.1094
18:52:16:227,-0.5661,-1.1414,9.28,46.5351,-0.0629,-0.8257,0.7629,189.75
18:52:16:247,-0.0442,-0.8709,9.0334,45.7349,0.0253,-0.6028,0.9193,189.2188
18:52:16:269,0.5436,-0.3837,8.1452,48.0713,0.0591,-0.2204,1.0018,188.5469
18:52:16:288,1.0931,0.2496,7.0151,47.9482,-0.0053,0.0806,0.9763,187.6406
18:52:16:307,1.3062,1.3354,6.1975,48.7838,-0.0706,0.1978,0.8732,186.5781
18:52:16:327,1.4498,1.5185,6.0682,48.6572,-0.0607,0.1996,0.7193,185.4844
18:52:16:347,1.4977,1.5437,5.8875,47.8875,-0.0128,0.1272,0.523,184.4062
18:52:16:370,1.0488,1.5449,5.9353,49.2429,-0.0226,-0.0355,0.2998,183.4688
18:52:16:388,0.6729,1.5377,6.5207,50.5321,-0.1092,-0.1823,0.148,182.7656
18:52:16:413,0.716,1.5987,7.5095,48.9899,-0.1979,-0.2542,0.0916,182.2812
18:52:16:427,0.6525,1.965,8.4205,49.7217,-0.22,-0.219,0.0628,182.1562
18:52:16:447,0.5604,2.4008,8.97,52.6436,-0.2043,-0.1263,0.0101,181.9062
18:52:16:471,0.3126,2.5911,9.4141,50.8461,-0.1736,-0.0438,-0.0773,181.875
18:52:16:494,0.2395,2.5325,10.2617,51.5978,-0.1851,-0.1367,-0.1969,181.8281
18:52:16:507,0.4107,2.0129,11.2517,52.7778,-0.2482,-0.3112,-0.3298,181.8594
18:52:16:529,0.4754,1.163,12.7935,52.485,-0.3819,-0.4718,-0.46,182
18:52:16:551,0.4957,0.2161,14.503,52.6853,-0.5084,-0.5264,-0.5026,182.3125
18:52:16:569,0.8848,-0.4268,14.837,52.0881,-0.4967,-0.3325,-0.3689,182.7812
18:52:16:586,1.7419,-0.1251,13.6495,51.5265,-0.3555,-0.0267,-0.0914,183.3438
18:52:16:609,2.9174,0.568,12.1076,54.1977,-0.2354,0.0731,0.0934,183.8906
18:52:16:626,3.0408,0.4447,12.0968,52.8061,-0.2708,-0.1919,-0.0941,184.1719
18:52:16:648,1.9574,-0.6279,13.0689,54.13,-0.3183,-0.492,-0.5122,184.1094
18:52:16:668,1.0021,-1.91,13.2784,53.7374,-0.2011,-0.4688,-0.7213,184.0625
18:52:16:686,1.0236,-2.2535,12.1986,52.6326,0.0522,-0.2177,-0.5378,184.4219
18:52:16:706,1.9298,-1.4204,10.203,53.6147,0.278,0.0356,-0.1513,185.625
18:52:16:727,2.3333,-0.4004,8.9736,53.5145,0.2834,0.059,0.0452,186.2031
18:52:16:751,1.9155,0.1897,9.0155,52.1743,0.0823,-0.0891,-0.0669,186.375
18:52:16:770,1.2619,0.1993,8.9951,54.5757,-0.1105,0.0228,-0.2597,186.3281
18:52:16:786,0.4227,0.1706,8.0686,53.5798,-0.1731,0.3858,-0.3476,186.4062
18:52:16:806,-0.3734,0.2628,6.8188,53.7645,-0.1225,0.6404,-0.26,186.7031
18:52:16:828,-0.4009,0.3693,6.1736,54.5585,-0.0205,0.5429,-0.0592,187.0781
18:52:16:853,0.2204,0.6123,6.091,54.5277,0.1153,0.2952,0.1592,187.3281
18:52:16:873,0.8812,0.896,5.9341,54.5771,0.2671,0.1807,0.29,187.375
18:52:16:889,1.1852,1.2731,5.4912,54.6393,0.388,0.259,0.2753,187.1719
18:52:16:909,1.1745,1.6083,5.2386,53.9827,0.4024,0.3624,0.1584,186.8438
18:52:16:927,1.3205,1.7915,5.8049,54.9358,0.326,0.3589,-0.011,186.5469
18:52:16:947,1.5085,1.7891,6.9313,54.8332,0.216,0.2596,-0.1689,186.3594
18:52:16:969,1.2738,1.8405,8.2098,55.9402,0.1158,0.2838,-0.3085,186.3594
18:52:16:994,0.971,1.9016,9.1759,54.1876,0.0442,0.5669,-0.3892,186.4375
18:52:17:006,0.5783,1.9662,10.549,55.0602,-0.0317,0.9112,-0.4105,186.7031
18:52:17:029,0.4287,2.3768,11.3642,53.9843,0.0011,1.6596,-0.313,187.2812
18:52:17:055,-0.4799,2.8916,10.6507,53.2069,-0.0506,1.4385,-0.3617,188
18:52:17:072,-1.944,3.131,10.6675,55.5286,-0.1441,0.5506,-0.3431,188
18:52:17:088,-1.4831,2.3888,12.1196,53.9615,-0.184,-0.0997,-0.2155,188.5625
18:52:17:106,-0.4536,1.9196,13.1754,54.6388,-0.298,-0.3716,-0.1796,188.5625
18:52:17:125,-0.6894,2.0165,14.1666,54.7242,-0.4583,-0.7082,-0.235,188.8906
18:52:17:148,-0.6523,1.1774,16.1789,53.665,-0.351,-0.8723,-0.2949,189.125
18:52:17:170,-0.6727,-0.1467,16.817,54.5334,0.0248,-0.4832,-0.2696,189.3125
18:52:17:187,-1.2628,-0.8098,15.1698,56.8072,0.42,0.1498,-0.0648,189.5469
18:52:17:205,-1.2652,-0.9164,12.2501,55.2507,0.6421,0.4225,0.1613,189.8906
18:52:17:225,-0.535,-0.8793,9.3327,55.5359,0.5867,0.1,0.1941,190.2188
18:52:17:247,-0.462,-0.6063,7.6268,54.9805,0.3342,-0.5184,0.1065,190.3281
18:52:17:268,-1.118,-0.0796,7.3455,56.1596,0.0216,-1.0369,0.0838,190.1875
18:52:17:288,-1.045,-0.1203,7.9357,54.8287,-0.2368,-1.0523,0.0793,189.9844
18:52:17:306,-0.9803,-0.3849,8.0746,57.0657,-0.4344,-0.6888,0.1328,189.9688
18:52:17:326,-1.0641,-0.2149,7.8363,55.2202,-0.5454,-0.2209,0.2846,189.9375
18:52:17:345,-0.6774,0.2664,7.6316,54.6507,-0.5332,0.0737,0.3693,189.8594
18:52:17:367,-0.3171,0.8098,7.9225,53.8426,-0.3507,0.2449,0.3075,189.625
18:52:17:389,-0.4548,0.9762,7.719,55.5789,-0.0754,0.3703,0.1989,189.2188
18:52:17:408,-0.8726,0.6626,6.8691,55.5789,0.1382,0.3634,0.1967,188.7656
18:52:17:427,-1.1491,0.398,6.073,54.3514,0.2338,0.2532,0.3456,188.4531
18:52:17:454,-0.9001,0.5644,5.739,53.9103,0.2317,-0.0086,0.494,188.3438
18:52:17:472,-0.1651,1.1127,6.0682,53.752,0.1923,-0.3572,0.4785,188.125
18:52:17:493,0.5388,1.6119,7.057,55.084,0.1252,-0.615,0.2641,187.7344
18:52:17:506,0.8094,1.649,8.3032,54.9599,0.0027,-0.6297,-0.0358,187.1875
18:52:17:525,0.4382,1.3246,9.5781,55.9542,-0.1409,-0.4289,-0.2632,186.7031
18:52:17:545,-0.1435,0.908,10.8375,53.9705,-0.2365,-0.1492,-0.3212,186.4531
18:52:17:568,-0.8055,0.5752,11.436,54.0721,-0.3249,-0.2137,-0.2528,186.6562
18:52:17:587,-1.1395,0.161,12.7313,53.9848,-0.3313,-0.6853,-0.0869,187
18:52:17:605,-0.4093,-0.3861,14.0589,53.5179,-0.2514,-0.9674,0.1113,187.3438
18:52:17:626,-0.0011,-0.4747,14.6035,53.3295,-0.1846,-0.5322,0.3536,187.5625
18:52:17:681,0.2898,-0.1383,14.1774,53.3903,-0.1476,0.4388,0.6812,187.5625
18:52:17:682,0.8477,0.8314,13.0102,52.6052,-0.1571,1.1584,0.8926,187.3438
18:52:17:685,1.4342,1.807,12.4224,52.6106,-0.1731,0.952,0.7225,186.75
18:52:17:708,2.0927,0.8841,13.2939,51.6404,0.0037,0.4122,0.2127,185.8281
18:52:17:730,2.5643,-0.2544,12.3542,52.3168,0.3254,0.0183,-0.2193,184.7812
18:52:17:752,3.3113,-1.4611,11.0087,52.648,0.5023,-0.1176,-0.3961,184.2031
18:52:17:769,2.4494,-1.8872,9.6739,53.1257,0.4293,0.1267,-0.5095,184.2344
18:52:17:785,1.3445,-1.4371,8.1751,50.4527,0.3076,0.5709,-0.5037,184.625
18:52:17:804,1.0105,-0.8254,6.6596,53.3718,0.1638,0.891,-0.3743,185.1875
18:52:17:826,1.3828,-0.5992,5.3093,51.7573,0.0269,0.9648,-0.2797,185.7969
18:52:17:845,1.3923,-0.3322,4.6401,51.1395,-0.1462,0.6998,-0.3434,186.25
18:52:17:872,0.9578,-0.1155,5.0686,53.0462,-0.3715,0.2164,-0.489,186.6875
18:52:17:890,0.2407,-0.234,6.6763,51.3265,-0.6155,-0.2867,-0.6078,187.0312
18:52:17:905,-0.2345,-0.2688,8.0746,49.1726,-0.7001,-0.4406,-0.5958,187.5312
18:52:17:925,-0.2716,-0.0796,8.241,50.5467,-0.5452,-0.1556,-0.4605,187.8438
18:52:17:945,-0.1591,0.4771,7.4305,49.3042,-0.2597,0.341,-0.3013,188.5
18:52:17:969,-0.1256,0.92,6.4034,49.7264,0.0032,0.602,-0.2315,189.0625
18:52:17:988,-0.6499,1.315,6.4585,48.6514,0.1196,0.3735,-0.3133,189.4375
18:52:18:005,-1.4927,1.3366,7.725,50.2381,0.0788,-0.0558,-0.4504,189.7031
18:52:18:025,-2.1511,0.8817,9.6128,50.4515,-0.0019,-0.3516,-0.4962,190
18:52:18:046,-3.4811,0.5477,11.3869,49.1913,-0.0056,-0.39,-0.3793,190.4219
18:52:18:073,-4.2436,0.4902,12.3303,48.6632,0.1385,-0.1993,-0.0288,190.9844
18:52:18:101,-3.5553,0.6195,12.2908,49.3421,0.3776,0.0516,0.515,191.5312
18:52:18:105,-2.4516,0.8936,12.2106,49.5088,0.5744,0.124,1.0191,191.7969
18:52:18:124,-1.0689,1.1247,13.2197,50.0324,0.6727,-0.1096,1.343,191.2031
18:52:18:145,0.7016,1.3629,14.236,47.6948,0.7824,-0.3351,1.4934,190.0781
18:52:18:169,1.4749,1.9148,14.2875,48.6656,0.901,-0.2651,1.4095,188.6875
18:52:18:184,1.2307,2.1362,14.0469,49.2199,0.8328,-0.1698,1.1094,187.0625
18:52:18:207,1.1134,1.2612,14.2791,48.6058,0.5955,-0.1721,0.7525,185.5469
18:52:18:225,1.0093,0.0317,13.41,49.2463,0.465,0.0177,0.4679,184.3594
18:52:18:245,0.8129,-0.4926,11.4731,50.0371,0.4562,0.3607,0.2708,183.5938
18:52:18:268,0.6382,-0.0592,9.4548,50.8581,0.4075,0.4305,0.2484,183.0938
18:52:18:287,2.1884,-0.1586,8.4313,49.4904,0.0906,0.3275,0.5086,182.7969
18:52:18:308,1.2966,0.9056,9.3195,50.309,-0.3547,-0.2148,0.2966,182.5156
18:52:18:326,0.8848,0.9619,9.1795,50.6567,-0.3481,-0.7897,-0.0885,181.9062
18:52:18:346,1.1805,0.5788,8.7306,50.8798,-0.3015,-1.1178,-0.2661,181.5625
18:52:18:368,1.105,0.2304,8.2745,51.5325,-0.2892,-1.141,-0.4163,181.5781
18:52:18:386,0.6693,0.0533,7.6245,49.9732,-0.2232,-0.8678,-0.5135,181.875
18:52:18:406,0.2838,0.082,6.82,50.135,-0.1063,-0.4555,-0.439,182.6406
18:52:18:426,0.2467,0.2652,6.0311,49.9615,0.0053,-0.0222,-0.1678,183.2969
18:52:18:447,0.54,0.7751,5.4481,51.4963,0.1518,0.6356,0.446,183.8125
18:52:18:470,1.1039,1.3294,5.1548,50.6804,0.1656,0.6966,0.478,184
18:52:18:487,1.5564,1.8896,5.1644,50.6469,0.1118,0.4811,0.2838,183.7656
18:52:18:506,1.6557,2.5133,5.6337,49.542,-0.0354,-0.0763,-0.0909,183.2344
18:52:18:524,1.36,2.7587,7.1923,49.712,-0.1795,-0.59,-0.4893,182.625
18:52:18:545,0.5699,2.4343,9.3411,48.9038,-0.237,-0.7479,-0.7767,182.2656
18:52:18:574,-0.5386,1.8944,11.0793,51.5041,-0.2464,-0.5346,-0.877,182.3594
18:52:18:591,-1.3921,1.3162,11.6252,50.2866,-0.2892,-0.2363,-0.7471,182.9688
18:52:18:605,-1.6687,1.2492,11.776,51.9583,-0.3718,0.1376,-0.4951,183.9062
18:52:18:625,-0.9145,1.254,11.9891,49.5434,-0.4413,0.2502,-0.4304,184.9531
18:52:18:646,0.3018,0.993,12.5733,51.6592,-0.4762,0.1216,-0.5924,185.7656
18:52:18:671,1.1852,0.2161,13.0174,51.9174,-0.4847,0.2329,-0.7713,186.2969
18:52:18:689,1.4678,-0.5908,12.6008,51.16,-0.5255,0.4132,-0.8233,187.0469
18:52:18:706,1.0967,-0.6506,12.1411,51.4313,-0.5742,0.3736,-0.7676,187.7812
18:52:18:726,1.111,-0.7703,12.2513,51.3646,-0.5651,0.1056,-0.7647,188.6719
18:52:18:746,1.6928,-1.1977,12.7181,50.0455,-0.4626,-0.0528,-0.8656,189.5312
18:52:18:771,2.0531,-1.7795,12.7002,51.993,-0.3715,-0.0523,-0.9857,190.2969
18:52:18:790,2.4613,-2.1793,11.9675,51.837,-0.3641,0.005,-0.9937,191.1875
18:52:18:806,2.4027,-2.3553,10.9991,49.7798,-0.3867,0.1187,-0.8201,192.2344
18:52:18:826,2.4111,-1.7843,9.8092,51.0119,-0.4099,0.1024,-0.6826,193.3125
18:52:18:848,2.4063,-0.9331,8.9724,50.6732,-0.4384,0.0215,-0.7476,194.3438
18:52:18:871,1.8137,-0.3932,8.4529,51.2679,-0.4029,-0.0153,-0.9149,195.1562
18:52:18:888,0.6214,-0.1119,8.1248,51.3347,-0.2498,-0.0206,-0.9774,195.5156
18:52:18:905,-0.2549,-0.1969,7.6592,51.3061,-0.0525,-0.0438,-0.8853,196.3125
18:52:18:926,-0.4691,-0.246,7.2833,51.2716,0.1262,0.0247,-0.7236,197.3281
18:52:18:946,-0.4021,-0.0652,6.8356,51.3871,0.2424,0.2196,-0.5782,198.4219
18:52:18:970,-0.4668,0.3358,6.3304,49.7948,0.2871,0.4321,-0.4627,199.4375
18:52:18:988,-0.4775,0.7476,5.9988,49.5618,0.2647,0.512,-0.4073,200.2344
18:52:19:005,-0.0945,1.1055,5.9796,49.1345,0.2008,0.4247,-0.4584,201.2031
18:52:19:025,0.1581,1.4707,6.644,51.2854,0.1289,0.1541,-0.6105,201.6875
18:52:19:049,0.4071,1.5544,7.8818,50.0679,0.0674,-0.0627,-0.8312,202.1875
18:52:19:072,0.5257,1.4551,9.4692,49.4268,0.0005,-0.0076,-1.0744,202.7969
18:52:19:088,0.1091,0.8721,10.7238,50.217,-0.0892,0.3469,-1.2115,203.625
18:52:19:105,-2.8586,0.3526,11.594,48.3325,-0.1862,0.8116,-1.0222,204.6719
18:52:19:125,-3.0812,0.7763,11.2289,49.8609,-0.2378,1.2503,-0.4941,206.0156
18:52:19:145,-1.9967,1.1438,11.1906,51.0082,-0.2405,1.3219,0.1115,207.3281
18:52:19:170,-0.462,1.1043,11.5497,49.7477,-0.1747,1.0702,0.5075,208.2031
18:52:19:188,0.6944,0.7141,11.9173,49.6403,-0.0194,0.8431,0.5794,208.3906
18:52:19:205,1.1936,0.2101,12.2908,50.1356,0.2029,0.6127,0.4111,207.9844
18:52:19:225,0.6525,-0.2256,12.7947,48.5926,0.3907,0.1733,0.095,207.3594
18:52:19:245,-0.3327,-1.1594,13.6147,50.8268,0.4429,-0.4957,-0.2587,206.7812
18:52:19:270,-0.5721,-2.4187,14.1331,48.2697,0.5201,-0.8574,-0.4259,206.5625
18:52:19:288,-0.2345,-2.8497,14.2624,48.4932,0.71,-0.7549,-0.346,206.9062
18:52:19:305,0.8836,-2.3972,13.5956,49.096,0.9348,-0.4614,-0.121,207.4688
18:52:19:331,2.2902,-1.3234,12.3207,48.5722,1.0237,-0.3058,0.1105,207.9688
18:52:19:344,3.2742,-0.252,10.7369,49.3146,0.8783,-0.2073,0.173,208.1406
18:52:19:366,3.2538,0.4543,9.699,46.9768,0.5284,-0.1524,-0.0712,208.2656
18:52:19:391,2.4218,0.4232,8.5498,47.9168,0.1529,-0.003,-0.5095,208.2031
18:52:19:415,1.3385,0.0976,7.2617,46.6693,-0.1649,0.1775,-0.8816,208.1875
18:52:19:424,0.6609,-0.1,6.5123,47.4179,-0.4341,0.2729,-0.9822,208.5625
18:52:19:444,0.3473,0.0688,6.3687,45.3901,-0.5987,0.1893,-0.8659,209.3438
18:52:19:464,0.2108,0.2652,5.9425,46.6992,-0.6203,0.0137,-0.7029,210.4062
18:52:19:486,0.4059,0.4555,6,47.1291,-0.6035,-0.2507,-0.5724,211.4062
18:52:19:505,0.7878,0.5585,6.2262,45.4246,-0.5329,-0.2547,-0.5085,212.1719
18:52:19:525,0.8932,0.8506,6.5566,44.4659,-0.4099,-0.272,-0.5591,212.8125
18:52:19:545,1.0153,1.0098,6.8942,47.1795,-0.244,-0.2433,-0.6912,213.6094
18:52:19:572,0.7375,0.7548,6.9744,45.6438,-0.0759,-0.1287,-0.913,214.1562
18:52:19:588,-0.213,0.3825,7.0534,45.9193,0.0165,-0.1157,-1.1977,214.9219
18:52:19:605,-1.3359,-0.2688,7.2905,45.1675,0.0045,-0.105,-1.3657,215.9531
18:52:19:625,-2.6311,-0.7416,7.4664,45.4767,-0.0807,0.1275,-1.3189,217.25
18:52:19:647,-3.4595,-0.9427,7.731,45.4155,-0.1843,0.3994,-1.0962,218.8281
18:52:19:673,-3.4104,-1.315,8.2924,45.492,-0.2349,0.3189,-0.889,220.3281
18:52:19:689,-3.5637,-1.6873,9.2477,45.492,-0.2229,-0.0877,-0.8382,221.5156
18:52:19:747,-3.5696,-1.9459,11.9412,45.3766,-0.2546,-0.8387,-0.8344,222.5156
18:52:19:748,-3.2213,-2.1231,14.8861,45.0354,-0.297,-1.3176,-0.6877,223.4375
18:52:19:748,-2.2528,-2.001,16.0987,45.4412,-0.2256,-1.1437,-0.378,223.8906
18:52:19:771,-0.7876,-1.3066,14.9435,43.9635,-0.0242,-0.516,0.0231,224.6875
18:52:19:790,0.6106,-0.0197,13.7093,43.7863,0.073,-0.0552,0.3137,225.2188
18:52:19:807,1.961,1.4,14.4551,44.6259,-0.3273,0.0489,-0.0374,225.2969
18:52:19:827,4.0451,2.2847,16.1263,44.0626,0.0274,0.1565,-0.5982,224.6094
18:52:19:845,2.6493,-0.3382,14.928,44.8496,0.4445,0.5139,-0.6989,224.6094
18:52:19:866,1.9801,-0.9391,12.8869,44.1209,0.7494,0.7054,-0.3884,224.6406
18:52:19:887,3.9099,-1.1283,11.1475,43.2001,0.9044,0.3858,-0.284,225.2812
18:52:19:906,5.7426,-1.2863,10.0246,43.3242,0.8522,0.0239,-0.5916,226.1406
18:52:19:924,5.6995,-1.5078,9.2118,42.0707,0.7044,-0.0813,-1.0571,226.6875
18:52:19:946,3.9996,-1.7184,8.1799,42.6877,0.5625,0.0308,-1.2957,227.1094
18:52:19:972,2.2195,-1.6239,6.7482,40.7398,0.4027,0.2431,-1.2131,227.8438
18:52:19:989,1.3109,-1.1259,5.3571,41.4364,0.2016,0.3586,-1.0464,229.125
18:52:20:008,0.6202,-0.4974,4.2738,41.9031,-0.07,0.3144,-0.8997,230.6562
18:52:20:024,0.1845,0.1442,4.1433,40.9976,-0.2871,0.1637,-0.79,232.0156
18:52:20:044,0.2084,0.6015,4.6748,41.8786,-0.3561,0.0353,-0.7689,233.25
18:52:20:064,0.4466,0.8302,5.1596,41.3325,-0.318,-0.0419,-0.8358,234.7188
18:52:20:089,0.3724,1.0708,5.5092,40.38,-0.2469,-0.121,-0.9346,235.5156
18:52:20:106,0.1677,1.1235,6.0251,41.0316,-0.188,-0.2326,-1.0411,236.3906
18:52:20:125,-0.2405,0.9774,6.8607,39.0306,-0.1795,-0.2797,-1.1415,237.375
18:52:20:145,-0.7158,0.6554,8.1835,41.4519,-0.1949,-0.2084,-1.1775,238.4219
18:52:20:171,-1.0905,0.4148,9.8966,39.7479,-0.1816,0.0721,-1.149,239.6562
18:52:20:188,-1.4568,0.4699,11.0338,39.7285,-0.1827,0.413,-1.1277,240.9531
18:52:20:206,-1.7955,0.5393,11.7628,39.3431,-0.228,0.7725,-1.1157,241.625
18:52:20:228,-2.1834,0.4902,12.0633,39.1233,-0.2743,1.0564,-1.0771,242.8594
18:52:20:244,-2.6898,0.2053,12.2369,38.292,-0.3337,1.1696,-0.9772,244.1562
18:52:20:267,-3.1088,-0.4136,12.6786,37.7221,-0.3912,1.1738,-0.8174,245.4531
18:52:20:288,-3.28,-1.072,13.3358,38.0442,-0.4136,1.2298,-0.6222,246.7188
18:52:20:306,-3.335,-1.1235,13.3167,38.9783,-0.3968,1.442,-0.2509,247.8281
18:52:20:324,-2.5581,-0.149,11.8394,38.5136,-0.5172,1.4436,0.0772,249.5469
18:52:20:345,-0.9719,1.1977,11.0458,36.263,-0.7108,1.0915,-0.0137,249.75
18:52:20:365,-0.0143,1.7125,11.9651,36.997,-0.6661,0.6676,-0.4784,249.875
18:52:20:391,-0.1507,1.0828,12.8809,35.396,-0.306,0.2849,-0.8105,249.7812
18:52:20:406,-0.7122,-0.8015,13.0006,36.5226,0.1198,0.213,-0.7742,249.9844
18:52:20:424,-0.9444,-1.9363,12.2656,36.3176,0.5073,0.3022,-0.5119,250.6875
18:52:20:445,0.4861,-2.3254,10.5562,35.7731,0.7478,0.0686,-0.4853,251.6562
18:52:20:471,2.3764,-2.3158,9.0502,35.576,0.7398,-0.5799,-0.9077,252.5
18:52:20:489,0.5173,-3.1789,9.1747,35.3161,0.4549,-1.0907,-1.5341,253.1406
18:52:20:505,-1.5322,-3.4303,8.9341,34.5336,0.0613,-0.9599,-1.8363,254.0156
18:52:20:524,-2.5138,-3.1789,8.3571,33.5829,-0.2125,-0.561,-1.6611,255.4375
18:52:20:544,-2.9064,-2.5492,7.7226,34.6754,-0.2543,-0.3255,-1.2065,257.2812
18:52:20:564,-2.6982,-1.722,7.1253,34.2536,-0.0631,-0.3698,-0.6579,259.2344
18:52:20:586,-2.078,-1.0277,6.723,34.4949,0.2376,-0.6765,-0.2073,260.8125
18:52:20:605,-1.3682,-0.6375,6.498,35.4807,0.5292,-1.0204,0.0553,261.8125
18:52:20:625,-0.8235,-0.258,6.3783,32.771,0.7388,-1.2739,0.185,262.2031
18:52:20:645,-0.3854,0.1957,6.3519,32.9585,0.8344,-1.3415,0.2308,262.1094
18:52:20:665,0.1665,0.5764,6.6057,32.9713,0.7931,-1.304,0.205,261.8438
18:52:20:688,0.625,0.8613,7.2294,33.3065,0.6293,-1.1732,0.0774,261.5469
18:52:20:703,0.7902,0.896,8.4505,32.3707,0.3606,-0.9799,-0.1798,261.3906
18:52:20:723,0.1055,0.4711,10.1731,31.3903,0.0823,-0.733,-0.5103,261.1406
18:52:20:743,-1.1108,-0.3118,12.1244,31.3255,-0.0668,-0.5037,-0.7751,261.1406
18:52:20:764,-1.707,-0.6913,13.0018,31.1764,0.0226,-0.2726,-0.791,261.4688
18:52:20:788,-1.5801,-0.6865,12.5445,32.5665,0.31,-0.0701,-0.6472,262.1719
18:52:20:806,-0.8343,-0.4794,12.1016,32.0758,0.5302,-0.1436,-0.5663,263.0781
18:52:20:824,0.1246,-0.7584,12.5804,31.1068,0.5329,-0.365,-0.639,263.8594
18:52:20:844,0.4478,-1.4228,13.0916,31.8969,0.4288,-0.3873,-0.8099,264.5469
18:52:20:864,0.7375,-1.7891,11.9903,31.7297,0.355,0.026,-0.8661,265.2031
18:52:20:886,1.0787,-1.3234,10.5083,30.421,0.2171,0.409,-0.794,265.9844
18:52:20:905,0.9554,-0.8601,11.2086,30.6056,-0.134,0.3546,-0.8006,267.4531
18:52:20:924,0.6956,-1.497,12.4548,30.1192,-0.3875,0.2028,-0.9263,268.3906
18:52:20:943,0.5041,-2.4618,11.9196,31.2226,-0.3459,0.3038,-0.9511,269.2812
18:52:20:963,0.9422,-2.8485,10.5765,31.6443,-0.2195,0.4199,-0.6946,270.3438
18:52:20:989,2.2112,-2.3014,9.6954,31.0392,-0.1854,0.2116,-0.2648,271.4375
18:52:21:004,3.5112,-1.394,9.6583,31.0442,-0.261,-0.1724,0.0639,272.2344
18:52:21:026,3.9936,-0.6746,9.711,30.961,-0.2842,-0.4813,0.1371,272.5469
18:52:21:044,3.5723,-0.3585,8.9592,32.7325,-0.1792,-0.5602,-0.0547,272.4375
18:52:21:064,2.7534,-0.1814,7.7489,31.6319,-0.0535,-0.377,-0.2938,272.2344
18:52:21:088,1.9263,0.0437,6.3807,31.4607,-0.0045,-0.1261,-0.4304,272.25
18:52:21:109,1.3301,0.2364,5.9629,32.0407,-0.0839,0.002,-0.4448,272.5625
18:52:21:125,0.9913,0.4519,6.3017,31.556,-0.1979,-0.0313,-0.4382,273.0469
18:52:21:144,0.6944,0.6662,6.3914,32.3447,-0.1936,0.0321,-0.4462,273.5156
18:52:21:165,0.6681,0.7105,6.1999,31.2967,-0.1089,0.1807,-0.419,274.0156
18:52:21:188,0.4239,0.8996,6.0347,32.5411,0.004,0.3096,-0.3191,274.2812
18:52:21:205,-0.432,1.3521,6.4226,33.1282,0.0205,0.1357,-0.0483,275
18:52:21:225,-0.5374,1.9806,7.6628,33.3076,0.179,-0.2241,0.426,275.4531
18:52:21:245,1.4606,2.6941,9.2681,33.0179,0.4911,-0.5157,0.6655,275.9219
18:52:21:265,3.9051,3.2711,10.5119,33.0902,0.7659,-0.7735,0.3454,275.9219
18:52:21:287,4.3995,3.4447,11.594,33.1596,0.901,-0.9439,-0.2986,275.4375
18:52:21:307,3.2203,2.5576,12.7504,32.6847,0.7854,-0.6515,-0.7668,274.6406
18:52:21:325,1.3457,0.9487,13.7464,35.0879,0.5233,0.2063,-0.7524,274.1875
18:52:21:343,0.0348,-0.337,14.1834,35.4311,0.3015,1.2239,-0.3923,274.4531
18:52:21:363,-0.523,-0.5321,13.5549,35.0761,0.1462,1.7291,-0.0632,275.2812
18:52:21:386,-0.2285,0.0078,12.3315,34.3785,0.0626,1.3693,-0.0355,276.1406
18:52:21:404,-0.4117,0.4292,11.5976,36.2582,-0.0027,0.2702,-0.2467,276.625
18:52:21:423,-1.0486,0.1071,12.7744,36.9833,-0.004,-0.8012,-0.3852,276.7812
18:52:21:443,-0.7636,-0.9655,14.2253,36.9451,0.0668,-1.3541,-0.4328,276.8906
18:52:21:463,-0.3889,-1.971,15.0118,37.8785,0.1952,-1.2968,-0.4302,277.5625
18:52:21:487,-0.0597,-2.4523,14.1798,38.5332,0.3443,-0.7993,-0.3769,277.7812
18:52:21:504,0.3497,-2.4451,11.7784,40.0884,0.3848,-0.4062,-0.3543,278.2188
18:52:21:523,0.7627,-2.2523,9.3758,39.3677,0.24,-0.3263,-0.3854,278.6406
18:52:21:543,0.5951,-1.8597,7.9106,39.7449,-0.0373,-0.4329,-0.3764,279
18:52:21:562,0.3281,-1.3773,7.4377,40.237,-0.3404,-0.4201,-0.3071,279.4219
18:52:21:586,0.0684,-1.0672,7.4748,41.8407,-0.6027,-0.2209,-0.1971,279.8438
18:52:21:606,-0.3447,-0.8386,7.7382,40.3729,-0.7491,0.0729,-0.04,280.2188
18:52:21:628,-0.699,-0.7105,7.7154,40.6955,-0.734,0.3357,0.1685,280.5156
18:52:21:643,-0.8019,-0.5309,7.3743,41.3154,-0.6056,0.4087,0.4074,280.6719
18:52:21:665,-0.6523,-0.1921,6.9445,42.0244,-0.4266,0.3522,0.6282,280.6875
18:52:21:687,-0.1854,0.1024,6.6488,41.9378,-0.2045,0.2577,0.7746,280.5312
18:52:21:704,0.2862,0.3753,6.5483,41.5955,0.0581,0.0825,0.8154,280.1094
18:52:21:723,0.522,0.6698,6.5938,41.6762,0.2719,-0.1354,0.7845,279.4219
18:52:21:745,0.7555,0.9439,6.9062,43.6244,0.3758,-0.3114,0.7059,278.5938
18:52:21:795,1.2032,1.1498,7.47,43.3307,0.3625,-0.4206,0.5336,277.6719
18:52:21:796,1.3062,1.1055,8.4445,42.677,0.2522,-0.3959,0.2926,276.3281
18:52:21:806,0.9147,0.6842,9.6535,44.7709,0.11,-0.0954,0.1398,275.6094
18:52:21:827,0.4646,0.4316,10.4544,45.8953,0,0.2606,0.1443,275.1094
18:52:21:844,0.692,0.4244,10.6747,46.5269,-0.0538,0.3134,0.2244,274.8594
18:52:21:863,2.0855,0.4495,10.9033,44.5616,-0.0597,0.0143,0.2383,274.7188
18:52:21:889,4.5635,0.3609,12.2848,47.0635,-0.0405,-0.3229,0.066,274.5312
18:52:21:904,3.5531,0.1514,12.6236,46.6956,-0.0186,-0.5407,-0.2491,274.2656
18:52:21:938,2.4159,-0.5201,12.6391,47.6991,0.0109,-0.6353,-0.4698,274.0469
18:52:21:943,1.6006,-0.6758,12.1064,47.3964,0.0301,-0.4989,-0.4533,274.125
18:52:21:964,1.2355,-0.0018,11.7892,48.6346,-0.0525,-0.2446,-0.2557,274.5312
18:52:21:991,2.1214,-0.0724,13.094,48.6345,-0.245,-0.2933,-0.0936,275.0625
18:52:22:007,2.4194,-0.9283,14.8645,48.7483,-0.3241,-0.5098,-0.2344,275.4375
18:52:22:022,2.0843,-1.983,14.8178,50.3581,-0.1057,-0.4752,-0.5071,275.6094
18:52:22:043,2.4637,-2.3194,12.6607,49.2382,0.2535,-0.0552,-0.5394,275.7344
18:52:22:063,2.4314,-2.1925,9.9337,50.6216,0.5113,0.4271,-0.3985,276.4219
18:52:22:087,2.046,-1.74,8.3284,49.8928,0.5475,0.6316,-0.2102,277.0312
18:52:22:106,2.2411,-1.2863,7.7897,50.3597,0.4567,0.463,-0.0637,277.4688
18:52:22:123,2.3428,-1.0205,6.9684,51.4709,0.4035,0.2393,-0.0957,277.7188
18:52:22:144,2.0603,-0.7165,5.4373,51.0519,0.3819,0.2231,-0.1924,277.7656
18:52:22:163,1.9047,-0.2245,4.6425,49.2881,0.2461,0.0492,-0.24,277.8281
18:52:22:189,1.7623,0.4172,4.9908,51.2647,0.0144,-0.3032,-0.2549,277.9844
18:52:22:211,1.7503,0.9308,6.4142,52.0662,-0.1944,-0.5913,-0.2778,278.2344
18:52:22:224,1.8808,1.1007,7.7908,50.401,-0.2264,-0.6768,-0.3556,278.5
18:52:22:243,1.5635,1.0229,8.1081,52.0512,-0.0626,-0.4193,-0.5117,278.7969
18:52:22:263,0.7316,0.9691,7.4688,51.9439,0.0844,0.1134,-0.6725,279.125
18:52:22:287,0.1605,1.1881,7.1181,53.7451,0.0834,0.5432,-0.7079,279.5781
18:52:22:304,0.0504,1.3402,7.47,53.5385,0.0045,0.6902,-0.6549,280.2656
18:52:22:323,0.042,1.5904,8.1871,53.2707,-0.016,0.609,-0.6062,281.0781
18:52:22:343,0.0097,1.9495,9.0322,54.0279,0.0461,0.3932,-0.5697,282.2188
18:52:22:363,0.3114,2.3338,10.0989,53.3408,0.1023,0.2036,-0.5468,282.9375
18:52:22:387,0.6537,2.4415,11.4887,55.1558,0.1167,0.1626,-0.5798,283.5938
18:52:22:405,0.6896,2.2835,12.4751,55.2767,0.1627,0.279,-0.6507,284.2031
18:52:22:423,0.8273,1.7173,12.851,54.9066,0.2482,0.3235,-0.6667,284.8594
18:52:22:445,0.7411,1.1438,13.1802,53.843,0.2967,0.4438,-0.6025,285.6094
18:52:22:463,0.0504,1.0445,13.1599,54.991,0.2677,0.589,-0.4709,286.3281
18:52:22:489,-0.3566,1.4359,12.7804,55.8933,0.1982,0.7054,-0.1953,287.0312
18:52:22:505,-0.049,2.1362,12.5206,55.7204,0.1225,0.7578,0.1706,287.5781
18:52:22:523,1.0596,1.7544,12.8151,56.9448,0.004,0.4867,0.3853,287.7969
18:52:22:547,1.5288,0.3729,12.8869,56.3957,-0.0394,0.2034,0.2854,287.6094
18:52:22:562,1.0607,-0.5261,11.9017,54.2565,0.1228,0.0468,0.0045,287.1719
18:52:22:585,1.2583,-1.248,10.2234,55.5661,0.3926,-0.019,-0.1652,286.8438
18:52:22:606,1.7204,-1.9734,8.6695,54.8599,0.2757,-0.333,-0.2826,287.0156
18:52:22:626,1.1242,-2.141,7.9776,54.8376,-0.0144,-0.8574,-0.4336,287.0938
18:52:22:644,-0.2381,-1.7352,8.3954,54.8732,-0.3425,-1.1551,-0.4139,287.0938
18:52:22:666,-0.7828,-1.4515,8.9089,55.2535,-0.5547,-0.9762,-0.2155,287.5156
18:52:22:693,-0.857,-1.2576,8.5809,54.9336,-0.6461,-0.5714,0.075,288
18:52:22:708,-0.8534,-0.8434,7.7573,54.4166,-0.6522,-0.2169,0.429,288.4844
18:52:22:725,-0.4859,-0.1957,7.0846,54.753,-0.5694,-0.1093,0.7627,288.7344
18:52:22:742,0.1904,0.519,6.9445,55.1676,-0.4104,-0.1719,0.9616,288.6562
18:52:22:763,0.9566,1.163,7.0618,55.1789,-0.2027,-0.1583,0.9672,288.1875
18:52:22:787,1.5647,1.6634,7.1959,54.6039,0.0027,-0.101,0.8093,287.3281
18:52:22:803,1.8652,2.0776,7.2881,55.0952,0.1742,-0.1253,0.5581,286.2812
18:52:22:822,1.9765,2.3721,7.5634,54.7837,0.2919,-0.288,0.2953,285.1875
18:52:22:842,2.0017,2.4367,8.1225,53.057,0.3617,-0.5447,0.0431,284.25
18:52:22:863,1.8413,2.2715,9.0586,54.7507,0.3981,-0.7242,-0.2035,283.6406
18:52:22:882,1.7682,1.746,9.9001,56.1714,0.4189,-0.6795,-0.4171,283.1875
18:52:22:905,1.4127,1.0553,10.6998,53.998,0.4149,-0.341,-0.5284,283.375
18:52:22:923,0.7423,0.6399,11.369,53.7608,0.3412,0.1389,-0.4667,283.5469
18:52:22:942,0.3844,0.5297,11.7138,54.3243,0.1942,0.4827,-0.2933,284.0781
18:52:22:964,0.4969,0.3621,11.9747,53.6972,-0.004,0.5341,-0.134,284.6406
18:52:22:986,0.6765,-0.0054,12.2967,54.7339,-0.1846,0.4337,-0.0395,285.0469
18:52:23:005,0.6729,-0.3406,12.6128,54.7469,-0.2637,0.3733,0.1009,285.2812
18:52:23:026,1.0404,-0.5154,12.596,54.4783,-0.2479,0.4726,0.3461,285.3906
18:52:23:044,2.046,-0.2652,12.0633,52.2074,-0.2362,0.618,0.47,285.3906
18:52:23:063,3.0467,0.4687,11.7987,53.2372,-0.269,0.4734,0.2468,285.1562
18:52:23:086,3.2909,0.6949,12.0214,53.6187,-0.2605,0.3253,-0.2336,284.6719
18:52:23:106,2.7547,-0.0317,12.1998,53.6877,-0.1169,0.2375,-0.6456,284.2344
18:52:23:123,2.2339,-1.2061,11.2996,52.1872,0.0277,0.1943,-0.7596,284.2188
18:52:23:143,2.1034,-1.9196,9.7888,53.1854,-0.0762,-0.0009,-0.6563,284.4375
18:52:23:163,1.9897,-1.7113,9.0598,51.4605,-0.4064,-0.1823,-0.5242,285.1719
18:52:23:190,1.8293,-1.382,9.1184,52.2369,-0.7057,-0.1644,-0.4632,286.0469
18:52:23:207,1.1026,-1.2061,9.1795,51.1252,-0.7894,-0.0203,-0.3801,286.7656
18:52:23:224,0.1845,-1.0038,8.6252,51.2571,-0.6799,0.0612,-0.1535,287.6406
18:52:23:243,-0.5123,-0.7416,7.2282,50.7841,-0.5657,0.0534,0.2111,288.1562
18:52:23:264,-0.2872,-0.3537,6.6596,50.8467,-0.3811,0.0114,0.5009,288.4844
18:52:23:288,0.6968,0.5549,6.8308,50.5443,-0.1387,-0.1996,0.6013,288.4844
18:52:23:306,1.0069,0.908,6.9565,51.4763,0.1127,-0.2867,0.5437,288.0625
18:52:23:323,1.2738,1.1283,6.8416,49.7655,0.3111,-0.2108,0.4194,287.4375
18:52:23:342,1.6749,1.309,6.917,50.0524,0.412,-0.0355,0.2702,286.75
18:52:23:362,1.6713,1.3976,7.3216,51.8339,0.4107,0.1171,0.0694,286.1719
18:52:23:382,0.9458,1.4886,8.2936,50.5257,0.2645,0.2593,-0.1884,285.7656
18:52:23:406,-0.037,1.4659,9.7589,50.8017,0.0088,0.545,-0.3945,285.5625
18:52:23:422,-0.7217,1.1498,11.114,50.5664,-0.1843,0.8918,-0.4568,285.625
18:52:23:445,-1.3011,0.7979,12.0645,49.2127,-0.172,0.9682,-0.3889,285.9844
18:52:23:461,-1.3921,0.6075,12.5649,49.4154,0.0517,0.7666,-0.1796,286.5156
18:52:23:482,-0.5194,0.507,12.9551,51.0856,0.3529,0.3789,0.1682,287.0781
18:52:23:508,0.5436,0.6171,13.6854,47.8882,0.5555,-0.0259,0.5009,287.5469
18:52:23:525,1.3337,0.7859,13.999,48.0513,0.6384,-0.227,0.7177,287.3906
18:52:23:548,1.6868,1.5078,13.1599,49.1733,0.6743,-0.0448,0.8577,286.8281
18:52:23:562,2.4673,2.396,12.5469,48.464,0.5475,0.1956,0.9305,286
18:52:23:584,3.0659,2.3529,12.7876,48.2584,0.216,0.2785,0.7472,285.0625
18:52:23:604,2.1549,1.3007,12.9085,49.2051,-0.0474,0.4071,0.2338,284.5469
18:52:23:622,0.9901,-0.1059,12.0322,46.3201,-0.0061,0.438,-0.2419,283.5469
18:52:23:642,0.6813,-1.2073,10.4293,49.0402,0.2178,0.4074,-0.4224,282.9531
18:52:23:663,1.1362,-1.892,8.6109,46.7557,0.4101,0.2518,-0.428,283
18:52:23:689,1.2822,-1.9088,7.5502,46.6453,0.4029,-0.1745,-0.4784,283.4375
18:52:23:705,0.7986,-1.5556,7.7094,47.236,0.1494,-0.7509,-0.6376,283.9531
18:52:23:725,0.3138,-1.3581,8.3451,47.2382,-0.212,-1.0987,-0.8025,284.4531
18:52:23:742,-0.0406,-1.4455,8.6025,46.4172,-0.5081,-1.0475,-0.8954,285.0781
18:52:23:762,-0.6547,-1.5269,8.2374,47.1137,-0.6458,-0.7327,-0.8744,286.375
18:52:23:784,-1.2904,-1.3868,7.4569,45.2843,-0.6448,-0.3879,-0.6744,287.3281
18:52:23:806,-1.6244,-0.9355,6.8739,47.0859,-0.5491,-0.1753,-0.2842,288.3125
18:52:23:875,-1.2569,-0.1706,6.4489,47.1184,-0.4075,-0.1724,0.1848,289.0938
18:52:23:875,-0.3878,0.5776,6.6141,44.2635,-0.2826,-0.2534,0.5632,289.4062
18:52:23:875,0.5568,1.0816,7.1001,47.0239,-0.1515,-0.2126,0.7054,289.1875
18:52:23:885,1.0955,1.4419,7.6807,46.5946,0.0136,-0.1748,0.5794,288.5312
18:52:23:904,1.0009,1.5401,8.4026,47.2713,0.1547,-0.2238,0.2915,287.7188
18:52:23:922,0.6884,1.2803,9.5027,44.7275,0.249,-0.3258,0.0095,287.0938
18:52:23:942,0.145,0.89,10.7776,46.1313,0.3161,-0.3618,-0.1921,286.7344
18:52:23:962,-0.4536,0.507,11.4061,44.4931,0.3814,-0.2089,-0.2725,286.7031
18:52:23:986,-0.7169,0.3849,11.2744,45.7324,0.3475,0.589,-0.0437,286.8906
18:52:24:004,-0.5529,0.6075,10.7597,43.4226,0.1971,0.7837,0.0415,287.3906
18:52:24:025,0.036,0.7368,10.5645,44.3294,0.028,0.6556,-0.0288,287.4375
18:52:24:044,0.4694,0.4232,10.7465,44.0911,-0.1207,0.3834,-0.2062,287.4062
18:52:24:062,0.1521,-0.1993,11.1535,45.0576,-0.2557,0.1432,-0.2499,287.4062
18:52:24:084,-0.1076,-0.8865,11.6,43.1306,-0.3622,0.1285,-0.0006,287.4531
18:52:24:104,0.0348,-0.8446,11.7329,43.4575,-0.5052,0.1381,0.3648,287.7031
18:52:24:122,1.1733,0.167,12.4883,44.3059,-0.7539,0.2116,0.4436,287.9844
18:52:24:142,2.781,1.3102,14.1068,42.5076,-1.0392,0.5727,0.0111,288
18:52:24:163,3.6573,0.9619,15.9335,40.1307,-1.0874,1.1765,-0.7463,287.5781
18:52:24:182,3.0144,-1.0205,15.882,43.5538,-0.8139,1.8034,-1.2462,287.1094
18:52:24:202,1.3337,-2.317,13.428,41.1637,-0.4043,2.0045,-1.1862,287.125
18:52:24:221,0.1102,-2.5708,10.4592,42.3477,-0.0442,1.515,-0.8438,288.0469
18:52:24:242,-0.5254,-2.5887,8.7605,40.1952,0.2698,0.5869,-0.521,289.5
18:52:24:261,-0.7098,-2.4475,8.2254,41.5745,0.5593,-0.1447,-0.2331,291.0156
18:52:24:281,-0.4237,-2.0608,7.5514,41.7532,0.7457,-0.4305,0.0183,292.1094
18:52:24:302,0.0468,-1.3641,6.3364,41.7532,0.759,-0.4771,0.177,292.7812
18:52:24:323,0.3042,-0.653,4.9657,40.8175,0.5577,-0.5138,0.1861,293.0625
18:52:24:341,0.0743,0.0257,4.3109,41.3364,0.2258,-0.6315,0.123,292.9844
18:52:24:361,-0.4093,0.3657,4.5623,40.0365,-0.0724,-0.6494,0.1017,292.7656
18:52:24:382,-0.6439,0.4986,5.0507,40.962,-0.2551,-0.549,0.1443,292.5938
18:52:24:405,-0.6355,0.6578,5.5726,39.6899,-0.3209,-0.3964,0.196,292.4375
18:52:24:424,-0.4165,0.9104,6.1101,41.9819,-0.2727,-0.2883,0.2037,292.2656
18:52:24:443,-0.3016,1.1678,6.7494,39.4324,-0.1595,-0.2984,0.1145,292.0469
18:52:24:461,-0.6799,1.388,7.8902,40.6502,-0.0077,-0.2837,-0.0278,291.7656
18:52:24:483,-1.0402,1.1151,8.9065,39.1902,0.1593,-0.1213,-0.1204,291.5469
18:52:24:504,-1.4328,0.6758,9.3591,39.6049,0.2288,0.03,-0.1495,291.4844
18:52:24:522,-2.1355,0.3645,10.3706,39.1438,0.168,0.1549,-0.1125,291.5625
18:52:24:542,-2.8789,0.1945,11.8658,41.5725,0.1294,0.4178,0.0394,291.7344
18:52:24:561,-2.9567,0.1239,12.8019,40.1645,0.1675,0.5962,0.2258,291.9062
18:52:24:582,-2.6587,0.2628,13.0629,39.0289,0.1862,0.6822,0.3864,291.9531
18:52:24:603,-2.0421,0.5537,13.009,40.0485,0.0402,0.7733,0.4702,291.9375
18:52:24:622,-1.1623,0.9236,12.9408,38.6538,-0.2487,0.9866,0.4612,291.7188
18:52:24:642,-0.6715,1.5389,12.6595,39.3831,-0.6194,0.8721,0.3954,291.1094
18:52:24:661,-0.4476,2.0117,13.926,39.1341,-0.7726,0.4558,0.2332,290.5938
18:52:24:682,-0.7469,1.1606,15.6558,37.6746,-0.436,0.0636,-0.0158,290.125
18:52:24:706,-1.0725,-2.1039,13.9021,39.9658,0.1918,-0.092,0.022,289.75
18:52:24:722,-0.0406,-2.7264,11.0589,39.2184,0.738,0.0934,0.3435,289.5938
18:52:24:741,0.9758,-2.6318,8.4086,38.196,0.9803,0.2111,0.6287,289.6406
18:52:24:761,0.8692,-1.9818,6.8236,39.7871,0.9193,-0.1048,0.6255,289.4844
18:52:24:781,0.3772,-1.2815,6.6835,38.8738,0.6394,-0.7311,0.4367,289.0156
18:52:24:807,0.3521,-1.1366,7.3467,38.011,0.2802,-1.2214,0.2735,288.3438
18:52:24:826,0.3844,-0.9499,7.8663,40.1898,-0.0455,-1.3469,0.1762,287.7812
18:52:24:845,0.1869,-0.8146,7.7502,41.9011,-0.2586,-1.1144,0.124,287.4062
18:52:24:861,-0.1316,-0.6171,7.1612,40.6926,-0.3406,-0.7519,0.1398,287.125
18:52:24:881,-0.359,-0.3346,6.4381,40.9238,-0.3025,-0.4283,0.2689,286.9062
18:52:24:903,-0.2752,0.0952,5.769,40.1334,-0.1981,-0.2164,0.4596,286.7344
18:52:24:920,-0.0729,0.5082,5.3045,40.1322,-0.0796,-0.1482,0.6181,286.5
18:52:24:941,0.0181,0.8374,5.3404,40.5678,-0.0168,-0.2198,0.6623,285.7656
18:52:24:961,-0.1436,0.9774,6.0898,39.9977,-0.0226,-0.3908,0.6151,285.0938
18:52:24:981,0.0504,0.8649,7.0271,40.7664,-0.0053,-0.5407,0.5704,284.3281
18:52:25:008,0.364,0.9355,8.1631,40.8102,0.0117,-0.5953,0.5387,283.6094
18:52:25:023,0.7184,1.2588,9.3339,38.9997,-0.0037,-0.5988,0.4772,282.9375
18:52:25:041,0.7938,1.3641,10.6052,41.0318,-0.045,-0.5469,0.3152,282.3281
18:52:25:061,0.2719,1.2659,11.6575,40.7384,-0.0935,-0.4212,0.0399,282.0312
18:52:25:081,-0.3231,0.7296,11.9699,41.9996,-0.114,-0.1452,-0.2214,281.5312
18:52:25:105,-0.6559,0.0652,11.77,40.281,-0.1449,0.0625,-0.3649,281.2969
18:52:25:122,-0.5051,-0.4363,12.1938,41.6779,-0.2498,-0.0211,-0.3412,281.3906
18:52:25:141,0.3197,-0.9152,13.4843,39.7237,-0.3971,-0.3021,-0.2062,281.75
18:52:25:161,1.2786,-1.1055,14.4611,41.4596,-0.4445,-0.4004,-0.0259,282.1875
18:52:25:182,2.3811,-0.9307,13.7572,42.4724,-0.3119,-0.1535,0.1736,282.4844
18:52:25:207,2.8396,-0.2364,12.4153,39.9697,-0.1579,0.0598,0.2428,282.5938
18:52:25:225,2.4697,0.3286,12.4057,41.6509,-0.2282,-0.0654,0.0148,282.3906
18:52:25:241,2.5356,-0.4842,13.5585,41.4334,-0.44,-0.0912,-0.3391,282.1406
18:52:25:262,2.2662,-1.4826,13.0964,40.8098,-0.4429,0.3498,-0.6219,282.1094
18:52:25:285,2.3668,-1.9734,10.883,41.9127,-0.2272,0.7941,-0.6459,282.5156
18:52:25:309,2.9426,-1.9926,8.9042,42.6082,-0.1257,0.8287,-0.488,283.2188
18:52:25:322,3.1102,-1.6813,8.399,42.5717,-0.2714,0.5618,-0.411,284.0312
18:52:25:341,2.2962,-1.588,8.575,44.3635,-0.441,0.1943,-0.5378,284.6562
18:52:25:362,1.0105,-1.6071,8.2888,42.8904,-0.4232,-0.0627,-0.6978,285.1406
18:52:25:383,-0.1124,-1.4694,7.5179,43.782,-0.3467,0.0121,-0.472,285.7812
18:52:25:406,-0.5637,-1.1402,6.6763,42.2398,-0.274,0.0066,-0.1812,286.5781
18:52:25:424,-0.3087,-0.6434,6.322,44.2211,-0.2072,-0.1413,0.0141,287.375
18:52:25:442,0.0013,-0.0485,6.5818,43.9404,-0.098,-0.2475,0.0681,287.8906
18:52:25:461,0.1115,0.2652,7.0103,45.5057,0.078,-0.1785,0.0537,288.0938
18:52:25:481,0.2108,0.2735,6.978,43.9591,0.2546,-0.0052,0.0543,288.0625
18:52:25:505,0.0576,0.574,6.571,44.8641,0.3244,0.0561,0.1589,287.9688
18:52:25:524,0.2132,1.2013,6.9385,44.3451,0.281,-0.0811,0.381,287.8906
18:52:25:541,1.5875,1.6275,8.9053,46.409,0.2642,-0.0848,0.5453,287.8281
18:52:25:560,3.267,1.7855,11.272,45.4888,0.4455,0.2433,0.3637,287.6406
18:52:25:580,3.3747,1.8872,12.0047,45.8311,0.739,0.5349,-0.1785,287.2188
18:52:25:601,1.4965,1.5628,11.0039,45.321,0.9252,0.5307,-0.6587,286.5781
18:52:25:624,-0.9743,0.7668,9.6691,47.9289,0.8165,0.3762,-0.6675,286.1875
18:52:25:641,-2.582,0.2855,9.3818,45.4889,0.5052,0.1434,-0.2427,286.4375
18:52:25:667,-2.5557,0.1395,10.689,46.4486,0.2945,-0.0829,0.2796,287.2344
18:52:25:681,-1.1383,-0.0269,12.4009,45.5723,0.3254,-0.2033,0.5195,288.0156
18:52:25:701,-0.2321,0.0868,13.0653,47.8509,0.4,-0.2752,0.5169,288.2969
18:52:25:724,0.1905,0.2664,13.106,48.2672,0.3044,-0.3359,0.4194,287.6875
18:52:25:748,0.5687,0.0569,13.4543,45.7542,0.0911,-0.3301,0.2282,287.0781
18:52:25:760,0.2742,-0.5692,14.1702,47.2549,-0.0266,-0.2363,0.0663,286.5312
18:52:25:783,-0.4967,-1.4407,14.6969,46.9916,0.1321,0.0143,0.1142,286.1406
18:52:25:809,-1.0055,-2.2392,13.7428,47.254,0.5057,0.3807,0.393,285.9844
18:52:25:825,-0.7672,-2.3697,11.0781,47.7197,0.7681,0.4396,0.7627,285.9219
18:52:25:846,0.2372,-1.8142,8.4229,46.9219,0.6775,0.0449,0.968,285.6562
18:52:25:861,1.1936,-0.7751,7.2785,47.997,0.3161,-0.4845,0.8972,285.0156
18:52:25:933,1.9346,-0.009,7.8184,48.0807,-0.0101,-0.6678,0.6596,283.9844
18:52:25:934,2.5248,-0.0868,8.2577,48.5561,-0.1481,-0.4928,0.3669,282.9375
18:52:25:934,2.5009,-0.1945,7.713,47.9401,-0.1891,-0.1775,0.1214,282.0312
18:52:25:943,1.9993,-0.1359,6.474,48.8536,-0.2658,0.0369,-0.0086,281.4375
18:52:25:961,1.5228,0.0473,5.5056,48.7058,-0.3854,0.1131,-0.0374,281.1719
18:52:25:981,1.1422,0.2257,5.0962,47.1981,-0.4719,0.0926,-0.0161,281.125
18:52:26:007,0.8465,0.4208,5.0435,48.7034,-0.4951,0.0215,0.0111,281.1406
18:52:26:026,0.7926,0.6746,5.2267,47.3857,-0.5089,-0.0789,-0.0009,281.1875
18:52:26:043,0.9793,0.8039,5.5858,49.8231,-0.5662,-0.1623,-0.0736,281.2188
18:52:26:061,0.1497,0.5537,8.958,50.3969,-0.616,-0.2638,-0.1583,281.2188
18:52:26:081,-0.4177,0.3178,11.2828,50.1102,-0.4754,-0.2747,-0.1364,281.25
18:52:26:104,-0.0657,0.4794,12.4021,48.634,-0.0594,-0.2726,0.0569,281.375
18:52:26:122,0.5484,1.0804,11.922,51.1756,0.4402,-0.0949,0.2676,281.5625
18:52:26:140,1.2044,1.7005,10.5789,51.1453,0.6956,0.0904,0.286,281.625
18:52:26:160,1.931,1.5904,9.9025,50.8003,0.5294,0.1546,0.0508,281.4219
18:52:26:181,2.113,0.9715,10.2545,50.5376,0.0621,0.2204,-0.3218,281.0469
18:52:26:206,1.5947,0.0832,11.8682,50.2189,-0.4908,0.2894,-0.6685,280.8125
18:52:26:220,1.1541,-0.9571,13.2628,50.8839,-0.8914,0.4007,-0.8475,280.9531
18:52:26:241,0.4873,-1.2552,14.1678,49.8715,-1.0575,0.5197,-0.8259,281.5469
18:52:26:260,-0.2118,-0.8936,15.3062,49.5026,-1.0208,0.4553,-0.689,282.4688
18:52:26:281,-0.1759,-1.1402,16.2496,48.6436,-0.7984,0.2462,-0.521,283.4844
18:52:26:309,0.4395,-1.837,15.0656,51.1251,-0.3425,0.3288,-0.3745,284.375
18:52:26:323,1.1781,-1.8908,12.3614,50.7091,0.1667,0.6071,-0.2403,285.375
18:52:26:342,2.6732,-1.1785,9.7816,49.7763,0.4368,0.6755,-0.0738,285.8281
18:52:26:360,3.9984,-1.0157,8.2924,51.7645,0.3705,0.3887,-0.0991,286.1406
18:52:26:381,3.3484,-1.1666,8.15,51.7183,0.0967,-0.0691,-0.472,286.2969
18:52:26:403,2.0771,-1.5389,8.2433,51.5045,-0.1478,-0.4398,-0.8819,286.4375
18:52:26:422,0.8417,-1.8932,7.725,50.6227,-0.2336,-0.4888,-1.0488,286.9688
18:52:26:441,-0.2656,-1.7615,6.808,51.0845,-0.2341,-0.2683,-0.9255,287.9375
18:52:26:461,-0.6152,-1.2947,5.9844,53.3838,-0.1973,-0.0968,-0.5564,289.0938
18:52:26:481,-0.2812,-0.6602,5.739,52.9268,-0.1723,-0.1543,-0.1553,289.6406
18:52:26:508,0.1641,0.1838,6.2729,51.2967,-0.1699,-0.3229,0.067,290.4531
18:52:26:523,0.467,0.726,6.826,51.1281,-0.1435,-0.2773,0.1075,290.8438
18:52:26:540,0.5328,0.8015,7.087,52.3827,-0.0871,-0.0009,0.0106,290.8438
18:52:26:560,0.2599,0.9355,7.1432,51.6644,0.0045,0.2825,-0.1141,290.6875
18:52:26:580,-0.3686,1.0732,7.7154,51.0706,0.0738,0.3714,-0.1985,290.5938
18:52:26:600,-1.3023,1.0983,9.4608,51.0706,0.074,0.2505,-0.2483,290.7812
18:52:26:622,-1.3179,0.8482,12.3255,50.5359,0.1811,0.0825,-0.1702,291.0156
18:52:26:644,-1.3323,0.7979,14.0481,52.107,0.5622,0.0793,-0.0198,291.3281
18:52:26:661,-1.3059,0.7895,13.0701,51.5224,1.0954,0.3661,0.116,291.5312
18:52:26:680,-0.5697,0.6686,11.1463,51.4719,1.3766,0.5965,0.2367,291.5625
18:52:26:700,0.2288,0.5537,10.1216,50.879,1.208,0.5802,0.2958,291.4531
18:52:26:720,-0.0107,0.6746,11.2971,52.4097,0.7012,0.4202,0.2689,291.2344
18:52:26:740,-0.4584,0.6949,12.9935,52.3805,0.1995,0.4367,0.3043,290.9531
18:52:26:761,-0.4045,1.57,12.3674,51.0723,0.036,0.9123,0.7121,290.6875
18:52:26:781,0.6992,2.2691,11.3893,50.359,-0.1417,0.504,0.5257,290.6875
18:52:26:806,1.4043,1.3773,12.7109,50.8017,-0.073,0.0524,0.0945,290.3594
18:52:26:829,0.7986,-0.4363,12.9875,51.9638,0.2293,-0.0944,-0.1804,289.7969
18:52:26:840,0.1078,-1.8956,11.6096,52.0622,0.4434,-0.1002,-0.1868,289.0469
18:52:26:861,0.1689,-2.8952,9.5638,51.6725,0.4155,-0.2182,-0.0584,288.4531
18:52:26:882,0.2264,-2.9072,7.7968,51.9205,0.1276,-0.6068,0.0766,288.7812
18:52:26:915,-0.3985,-1.8537,7.5466,51.686,-0.2075,-0.9623,0.2415,288.8594
18:52:26:921,-0.3483,-0.8122,8.0949,49.2072,-0.3318,-1.0347,0.4593,288.8438
18:52:26:942,0.5999,-0.0664,8.1512,50.7245,-0.2463,-0.9437,0.5981,288.4844
18:52:26:959,1.6605,0.5836,7.8627,51.5945,-0.0474,-0.8238,0.5789,288.2344
18:52:26:980,2.6182,1.0397,7.2641,49.9703,0.09,-0.7341,0.3773,287.9219
18:52:27:000,2.5679,1.2169,6.7182,50.0774,0.0756,-0.6414,0.099,287.2031
18:52:27:023,1.621,1.0349,6.4513,50.8274,-0.0202,-0.5399,-0.072,286.5625
18:52:27:040,0.6897,0.6327,6.8056,49.5994,-0.1033,-0.4369,-0.0682,286.0938
18:52:27:060,0.364,0.3226,7.4868,49.1479,-0.114,-0.2515,0.0364,285.9688
18:52:27:081,0.4825,0.3358,7.8986,47.6237,-0.0999,-0.1375,0.1049,286.0312
18:52:27:103,0.8513,0.4244,8.4038,49.1879,-0.1153,-0.0944,0.0745,286.0938
18:52:27:124,0.953,0.4986,9.1172,49.7415,-0.1316,-0.1429,-0.0288,286.0625
18:52:27:140,0.6657,0.4399,10.367,48.5006,-0.0549,-0.3218,-0.1444,285.9375
18:52:27:160,0.1426,0.2221,12.3051,48.9667,0.2381,-0.2393,-0.1732,285.8594
18:52:27:180,-0.2046,-0.0856,12.6678,48.9393,0.5784,0.0822,-0.1535,285.8906
18:52:27:199,-0.0621,0.1155,11.46,47.5918,0.6051,0.1056,-0.1958,286.2188
18:52:27:221,0.4694,0.3502,10.9249,47.2684,0.3153,0.0372,-0.3732,286.2969
18:52:27:244,0.8357,0.0186,11.1367,49.1685,-0.0852,0.2055,-0.632,286.5781
18:52:27:261,0.7052,-0.9367,10.9344,48.8403,-0.4783,0.5293,-0.7737,286.75
18:52:27:279,-0.2477,-1.2324,10.0258,49.9622,-0.9041,0.5991,-0.6941,287.2812
18:52:27:300,-1.2186,-1.224,9.9181,48.1124,-1.3028,0.2873,-0.4414,288.1406
18:52:27:322,-1.6423,-1.2133,11.3929,47.6473,-1.489,-0.0912,-0.0504,289.0469
18:52:27:347,-0.8091,-1.3258,13.6315,47.1975,-1.2778,-0.0608,0.3683,289.7188
18:52:27:361,0.947,-1.1187,14.2037,47.4216,-0.7643,0.0241,0.6031,290.0469
18:52:27:380,3.1329,-0.92,12.9264,44.7835,-0.3095,-0.031,0.5914,289.875
18:52:27:400,4.0906,-0.732,11.2397,47.101,-0.0956,-0.1436,0.3813,289.2969
18:52:27:420,4.1277,-0.6195,9.8678,48.406,-0.098,-0.2715,0.0298,288.6406
18:52:27:440,3.5842,-0.8422,9.0311,45.6119,-0.2202,-0.2036,-0.3013,288.0469
18:52:27:461,1.4354,-1.3605,7.4844,47.7598,-0.3686,0.0787,-0.4427,287.7812
18:52:27:481,0.9303,-1.1175,7.0067,47.2211,-0.5148,0.2987,-0.4083,287.9219
18:52:27:504,0.7291,-0.8685,7.0079,46.7956,-0.6277,0.3197,-0.3439,288.375
18:52:27:524,0.2288,-0.6351,7.4437,47.1089,-0.6621,0.2689,-0.3356,288.9062
18:52:27:544,-0.1687,-0.5165,7.6556,46.3515,-0.5294,0.2793,-0.2858,289.3594
18:52:27:560,-0.1232,-0.2185,7.3527,47.5075,-0.225,0.3823,-0.1601,289.7969
18:52:27:580,0.1138,0.3322,6.9816,48.1433,0.0903,0.3714,-0.0445,290.2031
18:52:27:601,0.4766,0.8793,6.9289,47.3563,0.3052,0.2377,-0.0174,290.5156
18:52:27:623,0.224,1.1031,7.5718,46.762,0.3529,0.0295,-0.142,290.6562
18:52:27:642,-0.5853,0.7428,8.7761,48.4423,0.2631,-0.1053,-0.3306,290.7188
18:52:27:660,-1.458,-0.1119,10.5502,46.8537,0.1356,-0.1178,-0.3852,290.7969
18:52:27:681,-2.0888,-0.5596,12.3494,48.1804,0.0269,0.0103,-0.1934,291.0469
18:52:27:702,-1.4161,-0.5201,13.3933,46.9881,0.0208,0.2659,0.2343,291.4688
18:52:27:723,-0.1675,-0.0772,13.9021,47.0673,0.1177,0.4673,0.6223,291.9062
18:52:27:742,0.528,0.252,14.0385,47.7703,0.286,0.5022,0.7462,291.6875
18:52:27:760,1.032,0.0437,13.1742,48.6845,0.5188,0.4889,0.683,291.0156
18:52:27:781,1.8365,0.0198,11.7736,47.6405,0.7049,0.434,0.6202,290.2188
18:52:27:800,2.9091,0.1371,11.4911,47.34,0.6306,0.2588,0.5033,289.5312
18:52:27:824,3.2706,-0.3825,12.8474,47.0397,0.2541,-0.105,0.0862,288.875
18:52:27:841,1.8856,-2.1314,13.7105,48.5493,-0.0842,-0.2488,-0.5394,288.3438
18:52:27:868,0.2563,-3.6972,12.778,48.6531,-0.1473,0.051,-0.8808,288.2344
18:52:27:880,0.024,-4.0624,10.6292,48.8216,0.0069,0.4689,-0.6384,288.2344
18:52:27:901,0.7268,-2.979,8.4708,48.777,0.232,0.5954,-0.0869,289.2969
18:52:27:923,1.6904,-1.2504,7.555,47.6186,0.3036,0.287,0.3067,290.2656
18:52:27:941,1.7144,-0.0724,7.5443,49.7944,0.2091,-0.3048,0.1861,290.75
18:52:28:008,1.1924,0.0102,7.8459,48.9277,0.0498,-0.8371,-0.2411,290.6094
18:52:28:009,0.2862,-0.5465,8.1584,49.4678,-0.1499,-0.9863,-0.6408,290.2656
18:52:28:009,-0.8486,-0.9906,8.0602,47.7299,-0.3239,-0.6728,-0.8142,290.25
18:52:28:019,-1.6842,-1.1055,7.7849,49.0043,-0.3925,-0.2904,-0.7146,291.0469
18:52:28:040,-1.8327,-0.9619,7.3743,49.5219,-0.3012,-0.0528,-0.4107,291.9219
18:52:28:059,-1.6028,-0.5297,7.1336,47.7464,-0.0914,-0.0294,-0.0603,292.7188
18:52:28:080,-0.9719,-0.0664,6.8751,49.7349,0.1731,-0.1381,0.2143,293.1562
18:52:28:101,-0.4883,0.2831,6.662,49.8527,0.4125,-0.2824,0.3296,293.2188
18:52:28:130,-0.5553,0.3478,7.1301,49.0768,0.4996,-0.4864,0.2854,292.9531
18:52:28:139,-0.8582,-0.0796,8.3487,50.0399,0.4349,-0.6382,0.1624,292.5781
18:52:28:160,-0.8917,-0.6578,9.8499,48.8204,0.1582,-0.1311,0.0857,292.2031
18:52:28:180,-1.0725,-0.6494,11.12,49.6483,-0.0163,0.524,0.0721,292.2031
18:52:28:200,-1.0593,-0.2436,11.5833,49.3099,-0.2684,1.2481,-0.0951,291.9531
18:52:28:221,-1.1252,-0.2017,11.0015,49.3195,-0.6551,1.6556,-0.4089,291.8125
18:52:28:239,-1.7477,-0.6889,10.8878,50.7856,-0.9361,1.4772,-0.5298,291.7031
18:52:28:259,-1.4783,-1.7041,11.7556,50.1203,-0.9193,0.7584,-0.4057,291.6562
18:52:28:280,-0.9564,-2.4451,13.7129,50.6158,-0.5553,0.1091,-0.1125,293.1406
18:52:28:300,-0.14,-2.5396,14.5605,50.9845,-0.078,-0.0318,0.2274,293.4375
18:52:28:322,1.3445,-2.0979,13.5214,48.6473,0.1494,-0.035,0.2873,293.6562
18:52:28:339,2.186,-1.631,12.3734,49.0608,0.0948,-0.0235,0.0015,293.6719
18:52:28:359,1.4809,-1.7939,11.7952,50.9485,-0.0421,0.1259,-0.2195,293.5156
18:52:28:379,0.7591,-2.3445,11.1092,49.4104,-0.1004,0.2979,-0.0946,293.1875
18:52:28:399,1.1134,-1.8896,10.3048,50.0774,0.0117,0.2087,0.1765,293.1719
18:52:28:421,2.5475,-0.9439,9.6152,50.3332,0.2482,-0.1956,0.2223,293.4375
18:52:28:442,3.7422,-0.1562,9.2824,51.4314,0.42,-0.5892,-0.1178,293.5625
18:52:28:459,3.4502,-0.1107,8.6815,50.6216,0.4384,-0.7016,-0.5615,293.3906
18:52:28:479,2.1609,-0.5776,7.8687,50.3446,0.3843,-0.6097,-0.7806,293.1406
18:52:28:499,0.9769,-1.0552,6.7434,49.6111,0.3108,-0.4776,-0.7532,293.2344
18:52:28:522,0.1581,-1.2037,5.66,50.9868,0.1893,-0.4092,-0.5828,293.8125
18:52:28:544,-0.2417,-0.9966,5.0375,49.3313,-0.0075,-0.3548,-0.4014,294.6094
18:52:28:559,-0.3207,-0.665,5.2722,50.6937,-0.1862,-0.1599,-0.2632,295.4375
18:52:28:579,-0.195,-0.3657,5.7785,50.4092,-0.2599,0.0745,-0.1758,296.5
18:52:28:599,0.054,-0.1,6.231,50.8084,-0.2171,0.1586,-0.1479,296.6406
18:52:28:620,0.2515,0.1012,6.5447,51.7513,-0.146,-0.027,-0.1889,296.8906
18:52:28:639,0.0324,0.2771,7.7573,50.3229,-0.1025,-0.3173,-0.264,297.0781
18:52:28:659,-0.535,0.2113,10.1934,52.1868,0.0144,-0.3887,-0.2736,297.25
18:52:28:679,-0.4165,-0.3621,12.2034,51.2892,0.2168,-0.1463,-0.2451,297.5
18:52:28:699,-0.4488,-0.6602,12.5828,51.592,0.3185,0.1781,-0.1918,297.7812
18:52:28:721,-0.8642,-0.2735,12.3745,51.7283,0.2613,0.4561,-0.0911,298.0469
18:52:28:741,-0.8929,0.149,12.1926,53.0017,0.1867,0.7427,-0.0201,298.2969
18:52:28:760,-1.179,0.5166,11.758,51.2063,0.1715,0.9166,0.0314,298.4844
18:52:28:780,-1.6244,0.8709,11.2301,50.1737,0.1907,0.7416,0.1326,298.5781
18:52:28:800,-1.926,1.066,11.4659,50.9089,0.212,0.3698,0.2511,298.6562
18:52:28:822,-1.8554,0.8074,12.4009,51.0559,0.2783,0.1751,0.4042,298.6562
18:52:28:841,-1.434,0.58,12.4452,51.4083,0.2727,0.1344,0.5808,298.5781
18:52:28:860,0.4167,0.1562,13.4615,51.6461,0.122,0.0047,0.556,298.1562
18:52:28:880,-0.0992,-1.1271,13.6543,51.2333,0.1222,-0.0225,0.3267,297.5938
18:52:28:901,-0.8594,-2.141,12.0274,51.6291,0.3976,0.0835,0.2109,296.9062
18:52:28:929,-0.3662,-2.6642,9.7529,51.6291,0.6517,0.1887,0.3619,296.3906
18:52:28:940,0.4071,-2.3349,7.9369,51.4546,0.6685,0.111,0.5611,296.1562
18:52:28:959,0.6059,-1.2611,7.2785,51.0315,0.4269,-0.1639,0.6314,295.875
18:52:28:979,0.5292,-0.7464,7.8902,52.2225,0.0479,-0.4254,0.5507,295.375
18:52:28:998,0.3616,-0.9403,8.4062,51.1564,-0.2543,-0.4827,0.3983,294.7188
18:52:29:024,0.1689,-0.9762,8.2038,51.3106,-0.3819,-0.3184,0.332,294.0156
18:52:29:039,0.1821,-0.9152,7.7118,52.164,-0.4032,-0.1125,0.3832,293.4531
18:52:29:058,0.2611,-0.7057,7.6556,51.9987,-0.3766,-0.0877,0.4588,293.0312
18:52:29:078,0.2647,-0.5285,8.1225,50.9172,-0.2908,-0.1772,0.5017,292.6406
18:52:29:099,0.2755,-0.4734,7.9165,50.98,-0.0828,-0.1476,0.5339,292.1406
18:52:29:121,0.2994,-0.2771,6.9433,51.2098,0.1593,0.0039,0.5691,291.5781
18:52:29:138,0.5508,0.1371,6.0191,51.5169,0.2961,0.104,0.6106,290.6875
18:52:29:159,0.7136,0.5405,5.8982,51.8236,0.2581,0.0383,0.6021,290.0312
18:52:29:179,0.8967,0.7703,6.7853,52.5973,0.1196,-0.1578,0.5161,289.3438
18:52:29:199,0.7256,0.7596,8.5414,51.3596,-0.0163,-0.3745,0.3659,288.7031
18:52:29:222,0.3413,0.6028,10.9021,51.8853,-0.0804,-0.5029,0.2023,288.0938
18:52:29:240,0.0863,0.6339,12.6571,51.3065,-0.0075,-0.4339,0.1099,287.6719
18:52:29:259,0.0528,0.6782,13.4974,51.0042,0.1174,-0.248,0.0535,287.4219
18:52:29:279,0.0708,0.2879,13.2999,50.3141,0.2333,-0.0315,-0.0227,287.3281
18:52:29:299,-0.2381,-0.088,12.2656,51.3201,0.2783,0.2239,-0.0634,287.2188
18:52:29:323,-0.0334,-0.3442,11.3283,50.4571,0.2128,0.3733,0.0527,287.2031
18:52:29:341,0.4502,-0.2867,10.7764,49.4607,0.1068,0.3251,0.2481,287.2656
18:52:29:363,1.1014,0.0868,9.796,51.9078,0.0426,0.2132,0.4026,287.1562
18:52:29:390,1.4953,0.9679,8.8287,51.473,-0.2445,-0.3373,0.2383,286.5625
18:52:29:403,2.1106,1.4168,9.3974,51.6732,-0.4703,-0.7676,-0.2022,286.0625
18:52:29:429,2.3859,0.3334,11.46,50.6937,-0.5199,-0.7775,-0.6528,285.7812
18:52:29:442,1.8712,-1.3916,12.8714,50.3009,-0.4205,-0.2947,-0.7532,285.7812
18:52:29:461,1.8472,-2.4642,12.1878,50.4109,-0.367,0.4295,-0.5468,286.6562
18:52:29:480,2.2567,-2.3505,9.6691,50.4676,-0.6306,0.7003,-0.4722,287.5156
18:52:29:500,2.1812,-1.7232,8.466,50.1256,-1.0815,0.5046,-0.6906,288.1562
18:52:29:523,0.9841,-1.7735,9.4752,49.1318,-1.2818,0.2931,-0.852,288.7188
18:52:29:540,-0.6774,-2.2128,10.4616,49.0931,-1.0813,0.1765,-0.6659,289.5469
18:52:29:560,-1.5034,-2.0201,10.1659,49.6754,-0.6147,0.0939,-0.2336,289.5469
18:52:29:581,-1.2437,-1.4527,8.7282,50.1098,-0.1105,-0.153,0.164,290.5469
18:52:29:600,-0.3985,-0.7895,7.3826,48.5521,0.2487,-0.5088,0.3768,291.5312
18:52:29:624,0.3987,-0.0269,6.8906,47.4692,0.4242,-0.6837,0.3821,291.5312
18:52:29:640,0.7615,0.4364,7.0187,49.1479,0.4996,-0.4933,0.2806,291.3281
18:52:29:661,0.8776,0.5297,6.8248,46.7476,0.4714,-0.0968,0.1461,290.875
18:52:29:680,0.6968,0.6758,6.504,48.0336,0.298,0.1496,0.0271,290.3594
18:52:29:700,0.4215,0.9308,7.1803,47.0466,0.0751,0.21,-0.0829,289.9844
18:52:29:725,0.0109,0.7536,9.2705,47.4267,0.0429,0.3197,-0.1516,289.7969
18:52:29:745,-0.711,0.5776,11.1379,47.3572,0.2394,0.5155,-0.1021,289.8281
18:52:29:759,-1.5274,0.5309,11.6216,49.1563,0.5052,0.5943,0.0266,289.8906
18:52:29:779,-1.7955,0.4447,11.1188,46.2746,0.6304,0.5184,0.1813,290.0938
18:52:29:799,-1.4556,0.5381,10.7609,46.5918,0.5401,0.353,0.303,290.25
18:52:29:825,-0.4656,0.3358,11.2301,46.0631,0.3297,0.2162,0.3174,290.2812
18:52:29:840,0.0875,0.0832,12.5397,44.8019,0.1553,0.2723,0.2918,290.125
18:52:29:859,0.4478,-0.4483,13.4962,45.4154,0.1387,0.5152,0.3275,289.8281
18:52:29:879,0.631,-0.3501,12.7337,43.349,0.0802,0.5879,0.3509,289.4844
18:52:29:899,0.8082,0.3466,12.1136,44.9898,-0.1475,0.3174,0.1874,289.1719
18:52:29:922,0.892,0.0533,13.6459,43.532,-0.1619,0.1381,-0.0882,288.8438
18:52:29:942,-0.1435,-1.2528,14.2001,42.5093,0.1718,0.1237,-0.1636,288.4844
18:52:29:959,-1.2293,-2.3804,12.6152,42.6604,0.5364,0.2036,0.1288,288.3125
18:52:29:979,-0.9372,-2.5528,10.0019,42.1782,0.6623,0.103,0.5539,288.5156
18:52:29:999,0.4897,-1.6993,7.5526,41.1469,0.4328,-0.3876,0.6921,288.5938
18:52:30:024,1.4223,-0.2975,7.0678,42.8403,-0.0477,-1.1037,0.4026,288.2344
18:52:30:083,1.1709,0.2915,8.9066,41.4408,-0.3494,-1.3698,0.0415,287.4844
18:52:30:083,0.9398,-0.2508,10.2102,40.6995,-0.3313,-1.2134,-0.1647,286.8281
18:52:30:084,0.6789,-0.8422,9.9229,41.453,-0.1646,-0.7631,-0.1931,286.5312
18:52:30:098,0.1055,-1.1007,8.6851,39.7499,-0.0341,-0.3029,-0.0421,286.5469
18:52:30:118,-0.3231,-0.9595,7.2665,40.4896,-0.0352,-0.0694,0.2141,286.7188
18:52:30:139,-0.3195,-0.5106,6.8631,39.7234,-0.0368,0.0239,0.4346,286.8438
18:52:30:162,0.1761,-0.1395,7.0199,40.191,0.0927,0.1347,0.5376,286.75
18:52:30:179,0.6082,0.0892,6.7338,38.5167,0.2844,0.2159,0.532,286.3594
18:52:30:199,0.8465,0.3897,6.1664,39.2747,0.3798,0.1552,0.454,285.8125
18:52:30:221,0.9829,0.756,6.1209,37.8811,0.3348,-0.0249,0.2958,285.2031
18:52:30:238,0.6166,1.2013,7.1612,39.628,0.233,-0.2089,0.1211,284.6406
18:52:30:263,0.4945,1.2947,11.0123,37.5531,0.2298,-0.2321,-0.0033,284.4219
18:52:30:279,0.4562,1.2049,12.3422,38.7713,0.3473,-0.1799,-0.1484,283.9844
18:52:30:298,0.2348,0.8398,12.0753,38.2753,0.5484,0.0058,-0.3141,283.9062
18:52:30:324,0.0707,0.5992,11.4324,37.3524,0.6229,0.1818,-0.4965,283.9688
18:52:30:340,0.121,0.234,11.5474,36.41,0.4418,0.2737,-0.6456,284.2344
18:52:30:359,0.3042,-0.6315,12.1543,36.5945,0.1595,0.2516,-0.7292,284.7031
18:52:30:383,0.0504,-1.2576,12.2225,36.1976,-0.0493,0.2311,-0.6917,285.3594
18:52:30:398,-0.2621,-1.2061,11.7126,36.0165,-0.1694,0.2172,-0.4829,286.125
18:52:30:420,-0.2381,-0.5932,11.594,36.7836,-0.2754,0.0633,-0.1868,286.9688
18:52:30:446,0.0217,-0.1215,12.4727,34.7202,-0.3851,-0.1684,0.005,287.6562
18:52:30:460,0.3473,-0.4016,13.2209,35.0162,-0.3779,-0.284,0.009,288.0156
18:52:30:478,0.3221,-0.7488,12.2441,36.1286,-0.1875,-0.0576,-0.0421,288.0938
18:52:30:499,0.9638,-0.665,10.0199,36.6024,0.0695,0.2713,0.0798,288.0625
18:52:30:522,2.5092,-0.0904,7.828,35.6469,0.257,0.2513,0.2726,288.0781
18:52:30:538,3.2431,0.4974,6.9768,35.8903,0.2314,-0.1927,0.1986,288.0938
18:52:30:558,2.4578,0.2556,7.4641,35.5163,-0.0072,-0.6481,-0.2057,287.7188
18:52:30:579,1.0452,-0.665,7.7717,36.4979,-0.2874,-0.6752,-0.6009,287.5
18:52:30:598,-0.347,-1.1175,7.4174,36.5249,-0.5071,-0.3197,-0.6914,287.7188
18:52:30:620,-1.0545,-0.8326,6.9098,36.4695,-0.6629,0.1,-0.4584,288.375
18:52:30:639,-0.699,-0.2508,7.3395,36.3475,-0.738,0.2098,-0.0877,288.7812
18:52:30:659,-0.1148,0.4663,8.1667,35.99,-0.6583,0.0851,0.1714,289.4531
18:52:30:678,0.3569,0.9391,8.6635,37.1969,-0.3856,0.0068,0.274,289.7812
18:52:30:699,0.5855,1.1881,8.1847,37.143,-0.0024,0.0574,0.2876,289.7188
18:52:30:723,0.4885,1.4647,7.5586,38.2795,0.2977,0.1797,0.2537,289.4688
18:52:30:744,0.5292,1.801,7.4688,36.2356,0.3899,0.312,0.2215,289.1406
18:52:30:759,0.7531,2.4762,8.1596,36.961,0.2996,0.4196,0.1475,288.8438
18:52:30:778,0.7579,3.3262,9.4979,37.5932,0.1478,0.4867,-0.0262,288.5781
18:52:30:798,0.8836,4.0145,10.5274,38.3904,0.0914,0.5821,-0.2552,288.3281
18:52:30:818,1.2906,4.1581,11.4384,36.5524,0.1425,0.5909,-0.5191,288.3906
18:52:30:840,1.1948,3.544,12.2692,36.5187,0.2346,0.503,-0.8715,288.7031
18:52:30:858,-0.2776,1.6718,12.6343,38.3278,0.3028,0.5118,-1.2922,289.2969
18:52:30:882,-2.6706,-0.7272,12.9659,38.7016,0.3084,0.6039,-1.5047,290.3281
18:52:30:905,-3.9659,-2.5061,12.772,38.2985,0.3148,0.6694,-0.3396,293.5
18:52:30:919,-3.7791,-2.0847,11.9699,37.2285,0.2453,0.6452,0.6314,294.875
18:52:30:940,-1.4663,-0.2688,11.2577,39.0901,0.0605,0.2385,1.078,294.875
18:52:30:959,1.135,1.0038,12.8151,39.2161,0.0844,-0.182,0.7691,295.2969
18:52:30:978,1.7443,0.5632,13.92,38.6112,0.4043,-0.1642,0.2005,294.6562
18:52:30:998,0.5101,-0.5357,12.3159,39.4468,0.6376,0.0385,-0.0863,293.4375
18:52:31:019,-0.1124,-1.4994,9.7673,38.4387,0.5798,0.1123,-0.0978,292.5469
18:52:31:040,-0.0179,-1.9124,7.6245,38.1922,0.2525,-0.1287,-0.043,292.3438
18:52:31:062,0.0911,-1.5161,6.9613,36.1788,-0.2288,-0.6323,-0.0323,292.6562
18:52:31:078,0.0851,-0.9942,8.3547,39.1599,-0.5598,-0.8433,-0.0629,292.6562
18:52:31:102,0.309,-1.0756,9.3255,37.5245,-0.6256,-0.6222,-0.1252,292.6719
18:52:31:126,-0.1028,-1.2719,8.8551,37.8502,-0.5446,-0.2603,-0.0589,292.7031
18:52:31:142,-0.7816,-1.2216,7.4509,39.9091,-0.4309,-0.0664,0.2175,292.7344
18:52:31:158,-1.0186,-0.9559,6.2155,39.9091,-0.3513,-0.2494,0.5717,292.8438
18:52:31:178,-0.8762,-0.2328,6.2981,39.1179,-0.2517,-0.4901,0.8567,292.8906
18:52:31:198,-0.2728,0.4926,6.7673,41.7446,-0.1127,-0.4339,0.972,292.625
18:52:31:218,0.4454,1.0529,6.723,39.1367,-0.0583,-0.272,0.9089,291.9531
18:52:31:241,1.0164,1.5856,6.5746,37.7749,-0.1193,-0.157,0.723,290.9531
18:52:31:259,1.3433,2.1063,6.9265,39.5316,-0.2434,-0.1767,0.4295,289.875
18:52:31:278,1.2032,2.5073,8.3619,37.9878,-0.2858,-0.2614,0.0756,288.8281
18:52:31:297,0.4526,2.1506,10.4747,38.7054,-0.0985,-0.2254,-0.211,287.9844
18:52:31:318,-0.766,1.1522,11.6623,38.7119,0.1915,-0.0315,-0.2619,287.5156
18:52:31:340,-1.5657,0.6315,11.8706,38.3688,0.3939,0.2052,-0.089,287.5
18:52:31:358,-1.6339,0.6363,11.3474,38.6713,0.4091,0.1988,0.0926,287.8125
18:52:31:378,-0.9229,0.7655,11.1882,39.2354,0.2642,-0.0582,0.1613,288.0156
18:52:31:397,0.115,0.6889,11.9544,38.2869,0.0562,-0.271,0.1621,288.0156
18:52:31:417,1.1685,0.3921,12.9767,38.7888,-0.0828,-0.2499,0.1967,287.8594
18:52:31:439,2.204,0.4747,13.3131,39.324,-0.1534,-0.1205,0.1754,287.6875
18:52:31:458,2.9881,1.3031,13.3155,40.396,-0.2224,-0.2164,-0.1393,287.4688
18:52:31:478,2.8935,1.3605,14.5389,39.4962,-0.187,-0.2941,-0.6624,287.2344
18:52:31:499,1.9777,-0.0976,15.5122,40.7706,0.0336,0.0614,-0.8986,287.1562
18:52:31:530,1.3576,-1.6574,14.1319,39.9867,0.2967,0.5682,-0.7282,287.5938
18:52:31:541,1.5959,-2.3733,11.0948,41.2657,0.4328,0.6239,-0.3963,288.5469
18:52:31:559,2.3823,-2.4271,8.1177,40.6862,0.2586,0.0585,-0.2358,289.5312
18:52:31:579,2.1513,-1.8693,7.3802,40.3569,-0.1167,-0.509,-0.256,290.1562
18:52:31:599,1.3109,-1.5113,8.2027,40.9224,-0.3675,-0.5532,-0.2424,290.3594
18:52:31:620,0.5388,-1.2755,8.3667,40.1751,-0.4128,-0.3034,-0.1388,290.5
18:52:31:640,-0.1543,-0.2963,6.9696,42.7497,-0.3135,-0.0986,0.0391,291.0312
18:52:31:660,0.0109,0.1407,6.3998,42.5116,-0.1526,-0.1546,0.1898,291.25
18:52:31:679,-0.0406,0.5369,6.2382,41.3673,-0.0139,-0.3487,0.2476,291.3125
18:52:31:699,0.0552,0.7141,5.9689,42.7554,0.0818,-0.361,0.254,291.1562
18:52:31:718,0.121,0.8637,5.6552,41.7706,0.1052,-0.1868,0.2231,290.9062
18:52:31:741,0.2096,1.1355,5.6373,42.3093,0.024,0.0478,0.1579,290.5938
18:52:31:758,0.1689,1.6011,6.7338,41.8598,-0.1638,0.1682,0.0487,290.2969
18:52:31:777,0.1126,1.977,9.2944,42.7281,-0.3278,0.1863,-0.1026,290.0938
18:52:31:798,-0.4536,1.6765,11.6204,44.4909,-0.2557,0.1661,-0.2637,289.9688
18:52:31:817,-1.4604,1.2037,12.6487,45.5964,0.0671,0.2609,-0.3572,290.0156
18:52:31:842,-1.4256,1.2707,12.9791,45.967,0.404,0.3749,-0.1612,290.2188
18:52:31:859,-0.2728,1.6454,12.8713,45.3415,0.6232,0.56,0.2141,290.6094
18:52:31:877,0.9925,1.9339,12.3602,44.7185,0.6956,0.6985,0.4069,290.9688
18:52:31:899,1.2092,1.5293,11.5725,43.7345,0.6306,0.8143,0.2857,290.9531
18:52:31:923,0.1893,0.7524,11.1248,45.9944,0.4061,0.8534,0.0178,290.375
18:52:31:941,-0.7253,0.2221,10.9153,44.9261,0.1281,0.8407,-0.0302,290.0625
18:52:31:960,-0.5613,0.3909,11.4408,45.6499,-0.1143,0.6279,0.1792,290.0625
18:52:31:978,0.3796,0.1742,12.7349,46.5353,-0.2429,0.2598,0.3501,290.1094
18:52:31:999,0.1354,-0.6195,13.1239,46.5407,-0.1475,-0.052,0.2268,289.9219
18:52:32:026,-0.4057,-1.552,12.0334,46.6846,0.0794,-0.1317,0.083,289.5156
18:52:32:043,-0.2178,-2.1554,10.0965,49.1584,0.2362,-0.019,0.1326,289.2656
18:52:32:060,0.3173,-2.0812,8.2433,45.7693,0.2213,-0.011,0.27,289.1719
18:52:32:079,0.2383,-1.3078,7.6939,47.4333,0.0008,-0.3373,0.331,289.1094
18:52:32:153,0.2144,-0.7715,8.3116,47.4651,-0.334,-0.823,0.315,288.8906
18:52:32:153,0.4418,-0.6195,8.5139,47.2802,-0.5822,-0.9535,0.2623,288.5625
18:52:32:153,0.449,-0.6075,8.2613,49.3124,-0.6988,-0.8369,0.2061,288.1719
18:52:32:157,0.4095,-0.5692,7.8016,48.9659,-0.6969,-0.6534,0.2292,287.7969
18:52:32:178,0.5436,-0.2472,7.7023,49.2918,-0.6317,-0.5567,0.3358,287.5156
18:52:32:197,0.8153,0.2915,8.0889,49.3176,-0.5505,-0.5314,0.4727,287.25
18:52:32:217,1.111,0.8266,8.551,50.5203,-0.4155,-0.4156,0.5557,286.6875
18:52:32:237,1.281,1.0361,8.2781,49.2878,-0.1699,-0.1359,0.5177,286.1562
18:52:32:257,1.1996,1.0325,7.1779,49.37,0.1193,0.149,0.3597,285.5
18:52:32:277,1.0404,1.236,6.2765,50.5165,0.2626,0.2923,0.1874,284.8906
18:52:32:297,0.7196,1.3138,6.7147,49.2953,0.1856,0.1645,0.0306,284.5
18:52:32:318,-0.0214,0.8889,8.9796,49.7401,0.0152,-0.2065,-0.1524,284.3125
18:52:32:341,-0.7708,0.4459,11.7569,50.0534,0.1294,-0.3088,-0.1149,284.2812
18:52:32:359,-1.1383,0.4004,13.009,48.1311,0.4429,0.1829,0.1816,284.4375
18:52:32:377,-0.6786,1.0959,12.2896,50.1819,0.6512,0.4582,0.434,284.6875
18:52:32:397,0.801,1.7867,11.2744,51.2093,0.6402,0.3791,0.3613,284.7812
18:52:32:417,1.9598,1.9615,10.7285,51.5353,0.4442,0.0683,-0.0387,284.5781
18:52:32:446,1.451,1.6921,11.2852,51.3092,0.1454,-0.1729,-0.3977,284.125
18:52:32:458,0.7136,0.4974,12.6631,50.5048,-0.0834,-0.1032,-0.4398,283.7344
18:52:32:478,0.6884,-0.6171,13.2927,50.5574,-0.1989,0.0651,-0.2983,283.7656
18:52:32:497,0.6454,-0.2735,13.2281,50.6869,-0.2341,-0.0448,-0.1836,284.4531
18:52:32:518,0.6298,0.0796,13.9368,51.6287,-0.0818,-0.2662,-0.244,284.7031
18:52:32:540,0.5316,-0.8206,14.0768,51.7455,0.2253,-0.1958,-0.3199,285.1562
18:52:32:557,0.3389,-1.7484,12.3662,52.5474,0.4133,-0.023,-0.1953,285.25
18:52:32:577,0.5292,-2.0345,10.203,51.8492,0.387,-0.1873,0.0188,285.5
18:52:32:597,0.953,-1.467,8.9125,52.6653,0.2069,-0.5503,0.1445,285.875
18:52:32:618,1.3445,-0.6841,8.8204,51.1274,-0.0051,-0.7487,0.1107,286.0781
18:52:32:639,1.4606,-0.4711,9.0119,51.8633,-0.1358,-0.623,-0.0081,286.0625
18:52:32:656,0.9877,-0.4627,8.8898,51.3669,-0.1614,-0.2339,-0.0424,285.875
18:52:32:677,0.2156,-0.4435,8.0243,51.4396,-0.1198,0.181,0.0857,285.7344
18:52:32:697,-0.201,-0.1634,6.8523,53.2414,-0.0408,0.4281,0.282,285.75
18:52:32:717,-0.116,0.2101,5.6397,53.5149,0.0341,0.4534,0.4141,285.7969
18:52:32:740,0.1115,0.5716,4.7466,51.8253,0.0983,0.3474,0.4668,285.7031
18:52:32:758,0.8824,1.0433,4.5539,52.3648,0.1782,0.1674,0.433,285.3906
18:52:32:778,2.0747,1.5006,4.8448,53.1494,0.3156,-0.0392,0.2553,284.6875
18:52:32:798,1.8412,2.0979,4.9214,53.2037,0.4605,-0.2757,0.0077,284.1562
18:52:32:818,-0.0119,2.3122,5.2937,51.9129,0.5934,-0.7394,-0.0206,283.7344
18:52:32:839,-0.8893,2.0464,6.8392,53.7547,0.8133,-1.0342,0.2969,283.5938
18:52:32:860,-0.0238,1.9746,8.0111,52.8279,0.8818,-0.92,0.5946,283.6406
18:52:32:878,2.0615,2.6474,9.0598,53.7241,0.5707,-0.4598,0.6247,283.4844
18:52:32:897,4.4462,3.4842,10.4472,54.4236,0.0274,0.1456,0.2948,282.9375
18:52:32:919,5.7749,3.307,11.9735,53.9782,-0.4144,0.61,-0.2994,282.1562
18:52:32:942,5.1417,2.0429,13.0844,55.3512,-0.6402,0.8774,-0.8461,281.5625
18:52:32:959,3.0575,0.7213,13.6279,53.2352,-0.7452,0.9829,-1.0704,281.5469
18:52:32:978,1.3828,-0.4232,14.1235,55.8423,-0.7318,1.0183,-1.0307,282.25
18:52:32:997,0.37,-0.9391,13.9715,53.3477,-0.6408,1.1232,-0.9237,283.4219
18:52:33:019,-1.9165,-0.7057,12.4679,56.2471,-0.6061,0.8508,-0.8174,284.6719
18:52:33:040,-2.2983,-1.1833,12.5804,55.3711,-0.5523,0.4092,-0.656,285.75
18:52:33:064,-2.1535,-1.4479,12.0382,55.4819,-0.3665,0.1014,-0.4041,286.7656
18:52:33:078,-1.5537,-1.2049,10.6615,55.3312,-0.1441,-0.0201,-0.097,287.6406
18:52:33:097,-0.0562,-0.7895,9.8487,57.4671,-0.0676,-0.3056,0.1422,288.2188
18:52:33:117,1.5288,-0.0341,11.1595,55.3705,-0.2714,-0.8742,0.1837,288.5156
18:52:33:138,2.3261,0.1131,12.3614,58.0158,-0.5406,-1.1871,0.0497,288.4531
18:52:33:159,1.4187,0.0449,11.6311,56.7411,-0.6493,-0.7032,-0.2041,288.2344
18:52:33:182,-0.0226,-0.2137,9.7218,57.1742,-0.6373,0.067,-0.3266,288.0312
18:52:33:196,-0.681,-0.3406,7.7609,55.3844,-0.5497,0.5783,-0.1343,288.0781
18:52:33:217,-0.6116,-0.1383,6.3842,56.3845,-0.3795,0.7182,0.2692,288.4219
18:52:33:253,-0.6547,0.0461,6.0874,56.8992,-0.1851,0.4894,0.6436,288.75
18:52:33:256,-0.5542,0.0964,6.747,56.3796,-0.0463,-0.0539,0.8921,288.7344
18:52:33:277,-0.0837,0.2352,7.5873,56.221,0.0746,-0.3887,1.1091,288.25
18:52:33:297,0.6849,0.6638,8.0889,55.6777,0.2245,-0.3144,1.2809,287.4062
18:52:33:318,1.3421,1.2013,8.0794,56.6696,0.4088,0.014,1.2886,286.25
18:52:33:349,1.202,1.224,7.4006,56.5558,0.5782,0.3245,1.0407,284.8281
18:52:33:361,0.37,0.7883,7.0834,57.0905,0.6283,0.2745,0.6588,282.6719
18:52:33:376,-0.4009,0.349,7.5682,56.0964,0.5888,-0.0206,0.4364,281.5
18:52:33:396,-0.3842,0.3813,8.3451,56.9586,0.5233,-0.1839,0.4583,280.7656
18:52:33:416,0.358,0.2891,9.474,56.229,0.4434,-0.1508,0.5267,280.2812
18:52:33:439,0.8249,0.0246,11.3989,56.3046,0.3175,0.009,0.4647,279.75
18:52:33:456,0.7782,-0.0497,12.912,56.3046,0.1646,0.3733,0.3571,279.1406
18:52:33:478,0.5149,0.1754,13.9966,55.7615,0.0541,0.7528,0.2487,278.6094
18:52:33:496,0.8141,0.0222,13.3909,53.5198,0.0844,0.9837,0.0886,278.2344
18:52:33:517,0.7088,0.3825,11.8718,55.4395,0.1617,1.0428,-0.1127,277.9844
18:52:33:539,0.042,0.7679,11.8454,54.6584,0.0722,0.6433,-0.3042,277.9062
18:52:33:556,-0.4596,0.3011,13.7129,54.4138,-0.0557,-0.1152,-0.46,277.9375
18:52:33:578,-0.2309,-0.6123,14.6838,55.1929,0.0463,-0.5655,-0.4946,278.2031
18:52:33:601,0.552,-1.1007,13.671,53.398,0.2594,-0.4483,-0.4027,278.6719
18:52:33:623,1.3624,-0.9104,12.7026,54.6538,0.2397,-0.301,-0.2733,279.2188
18:52:33:641,1.779,-0.5381,12.5433,53.7031,-0.0003,-0.2744,-0.1343,279.7188
18:52:33:656,1.6545,-0.2759,12.2117,54.2326,-0.1787,-0.1208,-0.048,280.2344
18:52:33:676,1.4103,-0.2472,10.6148,51.544,-0.1071,0.2425,-0.02,280.3906
18:52:33:696,0.8524,-0.0952,8.4505,52.7145,0.0844,0.5632,-0.0288,280.4219
18:52:33:716,0.461,0.1035,6.4166,54.8499,0.2804,0.6889,0.0154,280.4531
18:52:33:740,0.4095,0.2783,4.9334,53.7151,0.4733,0.1573,0.2157,280.5
18:52:33:758,0.4778,0.519,4.1181,52.039,0.4466,-0.1964,0.2708,280.5
18:52:33:778,0.6094,0.7691,4.032,51.5452,0.3976,-0.3863,0.2889,280.5
18:52:33:798,0.807,0.8697,4.3576,51.6828,0.3547,-0.3911,0.2604,280.3906
18:52:33:816,0.8082,0.9786,4.7514,49.4125,0.2972,-0.2017,0.2202,280.1719
18:52:33:842,0.6442,1.3414,5.0172,51.5169,0.1933,0.0244,0.1773,279.5938
18:52:33:860,0.6561,1.6909,5.6277,50.0641,0.0501,0.198,0.083,279.2969
18:52:33:877,0.6274,2.0943,6.7195,51.1141,-0.0826,0.3118,-0.0432,279.0625
18:52:33:897,0.2072,2.5277,8.1679,49.5803,-0.1702,0.3184,-0.1676,278.875
18:52:33:920,-0.6703,2.7875,9.8116,49.2834,-0.1454,0.2092,-0.232,278.8906
18:52:33:945,-1.1563,2.7264,11.3115,49.616,-0.0072,0.1147,-0.2198,278.8906
18:52:33:969,-1.2461,2.3924,12.3207,49.4264,0.1273,0.1424,-0.1191,279.125
18:52:33:979,-0.9037,2.1997,12.8366,48.6653,0.1917,0.2649,-0.0062,279.5
18:52:33:998,0.1294,2.5349,13.3059,47.8364,0.1686,0.2793,-0.0523,279.5938
18:52:34:017,2.1214,3.3573,14.3162,46.9071,0.0945,0.177,-0.4264,279.6562
18:52:34:041,3.3077,3.8361,15.3984,47.9976,-0.1659,0.1243,-1.1332,279.6562
18:52:34:059,1.7694,3.0676,16.4902,46.6798,-0.5635,0.4987,-1.7657,279.7188
18:52:34:077,-0.9468,1.1367,16.7356,47.1364,-0.6434,0.8734,-1.8936,280.2031
18:52:34:098,-2.7101,-0.8206,15.6714,46.7657,-0.2186,1.0156,-1.4978,281.4375
18:52:34:118,-3.2117,-1.7065,12.93,44.5246,0.3502,0.8002,-0.798,283.4219
18:52:34:144,-2.3989,-1.5484,10.1994,46.101,0.7204,0.1323,-0.1511,285.5625
18:52:34:163,-0.9707,-0.5022,8.8335,43.8893,0.8464,-0.6262,0.095,287.1875
18:52:34:222,0.1605,0.6554,8.1236,46.101,0.7305,-1.1138,-0.0959,288.1406
18:52:34:223,0.4754,0.9236,7.7442,43.78,0.4429,-1.1381,-0.4256,288.3594
18:52:34:223,0.0145,0.3526,7.5706,44.5377,0.1316,-0.7263,-0.5873,288.5312
18:52:34:236,-0.8343,-0.3944,7.0331,45.1583,-0.1326,-0.1407,-0.493,288.7656
18:52:34:261,-1.9105,-0.6734,6.4812,45.0826,-0.2916,0.2649,-0.1519,289.7812
18:52:34:276,-2.424,-0.6446,6.0515,44.4869,-0.3039,0.3858,0.2929,290.0625
18:52:34:296,-2.1367,-0.4663,5.6265,43.6045,-0.187,0.3144,0.6798,290.4375
18:52:34:317,-1.2281,-0.1921,5.3548,44.6112,0.0061,0.1639,0.9003,290.3438
18:52:34:342,-0.2525,0.2185,5.3021,43.7864,0.2229,-0.0366,0.9043,289.75
18:52:34:360,0.4418,0.7404,5.2171,44.5901,0.3348,-0.3658,0.7193,288.8438
18:52:34:377,0.6873,1.0098,5.4912,43.9801,0.286,-0.6313,0.446,287.7812
18:52:34:400,0.5065,0.8745,6.5088,42.4466,0.1656,-0.7474,0.1967,286.8594
18:52:34:418,-0.207,0.7009,8.0626,42.8221,0.0724,-0.761,0.0516,286.25
18:52:34:443,0.4442,2.384,12.9037,42.3724,0.0309,-0.4949,-0.0573,285.9219
18:52:34:460,1.791,2.493,12.705,42.188,0.0597,0.3576,-0.3263,285.8125
18:52:34:477,0.9434,1.9842,10.9009,41.3011,-0.086,1.5009,-0.8693,285.8281
18:52:34:498,-1.7955,1.3042,10.0055,40.0953,-0.4626,2.0979,-1.3404,286.0156
18:52:34:518,-3.6906,0.7045,10.5598,41.0115,-0.7883,1.8274,-1.3447,286.25
18:52:34:542,-3.0776,0.4962,11.8347,41.6772,-0.7665,0.956,-0.8989,287.9062
18:52:34:560,-1.6136,0.7967,12.195,40.0812,-0.3728,0.1307,-0.424,289.3438
18:52:34:577,-0.7146,1.0936,12.274,39.7202,0.0573,-0.5029,-0.3109,290.5781
18:52:34:596,-0.7517,0.0964,13.519,40.6483,0.1923,-1.1676,-0.5567,291.2344
18:52:34:616,-1.9153,-1.2204,14.9064,41.6127,0.1286,-1.3162,-0.8043,291.5625
18:52:34:645,-2.193,-1.9818,14.5341,40.8977,0.1324,-0.8196,-0.676,292.0312
18:52:34:663,-0.8223,-1.5832,12.1268,41.5093,0.3116,-0.0219,-0.1058,292.8594
18:52:34:680,1.0679,-0.6099,9.3291,39.9935,0.5111,0.5453,0.5541,293.7344
18:52:34:696,1.8544,0.3358,7.4162,40.5722,0.5587,0.4241,0.8127,294.2344
18:52:34:716,1.4941,0.7907,6.2574,39.4605,0.465,-0.0611,0.5733,293.9844
18:52:34:743,0.6202,0.5154,5.3165,39.3801,0.3161,-0.3887,0.209,293.1562
18:52:34:759,-0.1819,0.4794,4.6269,40.085,0.127,-0.5309,0.0396,292.3906
18:52:34:778,-0.3064,0.7775,4.591,38.7277,-0.1489,-0.5759,0.0665,292
18:52:34:797,-0.4081,1.321,6.097,39.2211,-0.555,-0.6156,0.0921,291.9062
18:52:34:819,-0.2824,1.3689,8.0794,38.8345,-0.845,-0.52,0.0569,291.8438
18:52:34:844,-0.3411,1.2384,8.7785,38.9206,-0.7928,-0.2118,0.0085,291.7188
18:52:34:861,-0.7816,1.3378,8.235,37.9609,-0.4967,0.1874,0.0042,291.6094
18:52:34:881,-1.0533,1.5329,7.3743,38.2163,-0.1398,0.4388,0.0732,291.5781
18:52:34:897,-1.1695,1.7232,7.0594,38.9063,0.1095,0.3461,0.1376,291.5469
18:52:34:916,-1.1898,1.9339,7.6987,38.571,0.1646,0.0612,0.1392,291.4688
18:52:34:944,-1.537,1.9615,9.1903,38.2203,0.0453,-0.186,0.0734,291.3281
18:52:34:963,-2.1236,1.5844,11.0482,38.2071,-0.1119,-0.137,-0.0137,291.1719
18:52:34:980,-2.7365,1.2995,12.3386,37.1463,-0.1499,0.1762,0.0135,291.0938
18:52:34:998,-2.8801,1.1355,12.377,39.1975,-0.037,0.6178,0.1978,291.1094
18:52:35:017,-2.5318,1.1738,11.7497,38.484,0.0719,0.8838,0.4399,291.0781
18:52:35:044,-1.9416,1.3138,11.4911,37.7341,0.0852,0.8614,0.6322,291
18:52:35:063,-1.3778,1.4575,11.4791,36.9663,0.0101,0.6665,0.6769,290.6406
18:52:35:078,-1.1898,1.6969,11.77,37.7761,-0.1364,0.4478,0.5885,290.0312
18:52:35:097,-0.8367,1.5844,12.948,37.5455,-0.3334,0.1853,0.4548,288.9219
18:52:35:119,-0.6547,0.8242,13.9595,37.3587,-0.4581,0.0265,0.2822,288.2344
18:52:35:140,-1.1204,-0.1742,14.0768,36.1408,-0.1686,0.1016,0.0987,287.7031
18:52:35:157,-1.1144,-1.2145,13.0341,37.201,0.1236,0.1671,0.2162,287.7031
18:52:35:176,-0.5721,-1.6574,11.1403,37.6111,0.298,0.0508,0.3392,287.3438
18:52:35:196,0.2635,-1.424,9.0861,37.4032,0.2107,-0.2587,0.3219,287.1719
18:52:35:217,0.7926,-0.7284,7.8411,37.6249,-0.1198,-0.5847,0.0995,287.0469
18:52:35:241,0.7926,-0.088,7.5443,37.3271,-0.5092,-0.6933,-0.22,286.4688
18:52:35:260,0.2443,0.0102,7.6436,38.3121,-0.7779,-0.6204,-0.4525,285.9844
18:52:35:278,-0.5709,-0.2197,7.5814,38.2094,-0.8629,-0.4976,-0.4802,285.9844
18:52:35:297,-1.0916,-0.4028,7.251,37.5546,-0.8101,-0.5229,-0.3476,286.1875
18:52:35:315,-1.2329,-0.3274,7.3431,38.4689,-0.6778,-0.6664,-0.1689,286.625
18:52:35:338,-1.4496,-0.0257,7.9812,36.761,-0.4607,-0.6859,0.0274,287.0781
18:52:35:359,-1.677,-0.0186,8.49,38.1093,-0.1249,-0.5575,0.2668,287.4062
18:52:35:377,-1.5011,-0.1311,8.3116,36.7926,0.2402,-0.41,0.539,287.5
18:52:35:396,-1.1204,0.1802,7.6508,37.2419,0.4996,-0.2912,0.7589,287.3125
18:52:35:417,-0.6176,0.7225,6.9409,38.2203,0.571,-0.3452,0.8223,286.8281
18:52:35:444,-0.116,1.2899,6.7901,35.8647,0.4903,-0.5466,0.6929,286.0625
18:52:35:462,0.3233,1.5221,7.306,36.2549,0.3334,-0.7405,0.4324,285.125
18:52:35:483,0.6454,1.3809,8.4409,37.8422,0.1396,-0.7184,0.1262,284.2812
18:52:35:496,0.2383,0.5393,10.3167,38.6836,-0.0788,-0.2552,-0.0531,283.625
18:52:35:517,-1.2952,-0.3741,12.0011,37.2614,-0.2602,0.6082,0.1358,283.3906
18:52:35:543,-2.4037,-0.3968,12.4895,38.6194,-0.3822,1.2212,0.5605,283.2344
18:52:35:560,-1.622,0.0605,12.3686,37.4575,-0.3779,1.0617,0.7531,283.2812
18:52:35:577,0.1019,0.7141,12.924,37.9413,-0.1305,0.3829,0.5075,283.1562
18:52:35:600,0.7088,0.6099,13.2544,36.7713,0.1332,-0.1602,0.1714,282.5469
18:52:35:615,0.4263,-0.0174,12.6427,36.7118,0.1121,-0.3202,0.0945,281.75
18:52:35:637,0.5927,0.1071,12.5721,36.2592,-0.1233,-0.316,0.0881,281.1875
18:52:35:657,1.1924,0.495,13.823,35.9125,-0.3041,-0.2435,-0.1492,280.9375
18:52:35:676,1.1062,0.2185,15.6965,37.9413,-0.2218,0.0811,-0.4464,280.8125
18:52:35:696,0.892,-0.902,15.8438,37.0936,0.0842,0.6449,-0.5263,280.7812
18:52:35:717,1.1134,-1.3557,13.7955,36.9966,0.4716,1.0052,-0.371,281.125
18:52:35:743,1.9706,-1.3342,10.6471,36.9966,0.693,0.818,-0.2507,281.7188
18:52:35:759,2.4506,-1.054,8.2505,36.7816,0.6219,0.3456,-0.3599,282.2969
18:52:35:778,1.9933,-0.8182,7.3551,37.3657,0.3944,0.0108,-0.5953,282.7031
18:52:35:796,1.226,-0.9128,7.2103,36.324,0.196,0.0191,-0.7327,283.0625
18:52:35:817,-0.3674,-0.6794,5.5511,35.7376,0.0389,0.1498,-0.6728,283.6406
18:52:35:842,-0.7852,-0.1838,5.1429,36.2244,-0.0879,0.0841,-0.5117,284.4531
18:52:35:859,-0.9133,0.1335,5.5283,36.1396,-0.172,-0.1767,-0.3492,285.2812
18:52:35:877,-0.9971,0.3059,5.9605,35.1133,-0.1699,-0.3642,-0.1942,285.9375
18:52:35:898,-0.8606,0.5273,6.395,36.6596,-0.1089,-0.4052,-0.0331,286.4219
18:52:35:917,-0.6164,0.7428,6.2837,35.0229,-0.0104,-0.2342,0.1006,286.7031
18:52:35:935,-0.4991,0.8434,5.8396,34.7282,0.0724,-0.0467,0.1664,286.8125
18:52:35:956,-0.7828,1.0948,5.7139,36.7138,0.0362,0.0739,0.1584,286.75
18:52:35:976,-0.7612,1.4467,6.2502,34.9597,-0.1433,0.1408,0.1549,286.5781
18:52:36:000,-0.4704,1.643,7.561,34.7276,-0.3795,0.1357,0.1296,286.4062
18:52:36:015,-0.3973,1.9088,9.9816,36.4993,-0.6293,0.1011,-0.0022,286.2344
18:52:36:036,-0.9408,1.8118,13.1838,36.8103,-0.8051,0.2558,-0.2134,286.0469
18:52:36:058,-2.0912,1.0983,14.9459,34.0288,-0.6818,0.61,-0.386,285.9375
18:52:36:075,-3.2476,0.92,14.412,34.8173,-0.2226,0.9474,-0.3247,286.0156
18:52:36:096,-3.2536,1.066,13.0485,34.4509,0.273,0.9498,-0.0174,286.3438
18:52:36:116,-2.4228,0.9643,12.4835,31.7337,0.518,0.6114,0.2798,286.8125
18:52:36:137,-1.8291,1.0912,12.1639,33.2936,0.5284,0.3304,0.4274,287.0938
18:52:36:161,-1.1671,1.8262,12.1603,32.6955,0.3894,0.2175,0.5523,287
18:52:36:178,0.0121,1.8956,13.2784,32.5877,0.1435,0.0633,0.5408,286.6719
18:52:36:196,0.279,0.5082,14.6467,32.383,-0.0077,-0.0571,0.1848,286.1719
18:52:36:218,-0.9109,-1.3354,14.1319,31.3654,0.1398,0.0015,-0.2685,285.5625
18:52:36:244,-1.8303,-2.5887,12.1914,33.7222,0.4525,0.1983,-0.4185,285.0625
18:52:36:294,-1.6423,-3.0748,9.553,32.1575,0.6746,0.3882,-0.2629,285.375
18:52:36:295,-1.3287,-2.7204,7.4413,30.7699,0.6021,0.3328,-0.1037,285.9062
18:52:36:307,-1.4651,-2.1063,6.9672,30.9444,0.2634,-0.0422,-0.0576,286.2969
18:52:36:315,-1.6327,-1.8621,8.3954,32.7789,-0.1702,-0.6326,-0.1042,286.4844
18:52:36:338,-1.7429,-1.8142,9.48,30.3748,-0.4123,-0.9181,-0.1039,286.5781
18:52:36:359,-1.7165,-1.4383,8.9389,33.2397,-0.334,-0.7951,0.0351,286.6562
18:52:36:378,-1.4436,-0.9008,7.0486,31.0384,-0.0983,-0.4483,0.266,286.7188
18:52:36:397,-0.9887,-0.2089,5.2997,31.1158,0.025,-0.2041,0.502,286.6406
18:52:36:421,-0.4105,0.5812,4.6006,30.004,-0.0501,-0.2185,0.6708,286.2969
18:52:36:444,0.194,1.0876,4.8017,29.2184,-0.3212,-0.3921,0.6527,284.9844
18:52:36:460,0.5711,1.2863,5.2207,28.9859,-0.3428,-0.4449,0.5147,284.1406
18:52:36:478,0.7196,1.3509,5.6469,31.1939,-0.3481,-0.4795,0.3541,283.3594
18:52:36:499,0.631,1.333,6.1712,30.1393,-0.4336,-0.5128,0.1757,283.0156
18:52:36:519,0.2599,1.2516,7.1301,28.1284,-0.6192,-0.5519,-0.0142,282.3125
18:52:36:543,-0.2812,1.2384,8.9784,30.4005,-0.7838,-0.4286,-0.1772,282.3125
18:52:36:561,-0.8618,1.1139,11.041,30.179,-0.7491,-0.1511,-0.3311,282.0625
18:52:36:576,-1.2999,0.9056,12.4105,29.9098,-0.461,0.0745,-0.4675,282.0312
18:52:36:595,-1.3742,0.4998,12.2153,27.5193,-0.1806,0.0771,-0.5506,282.1562
18:52:36:616,-1.3167,0.185,11.6934,30.141,-0.1332,0.0521,-0.5468,282.5
18:52:36:638,-1.2054,0.0449,12.0382,28.6698,-0.2581,0.0359,-0.5284,283.6094
18:52:36:660,-1.3119,-0.0245,13.3681,29.4125,-0.38,0.1376,-0.4858,283.6094
18:52:36:677,-1.0928,-0.4292,14.7017,27.4291,-0.3763,0.3341,-0.3907,284.2344
18:52:36:695,-0.4895,-0.8709,14.9591,28.934,-0.2847,0.3432,-0.3279,284.8438
18:52:36:715,-0.4847,-0.7284,15.0381,28.0971,-0.1358,0.2476,-0.3173,285.3906
18:52:36:735,-0.9695,-0.6901,15.4104,29.2367,0.1601,0.3427,-0.3255,286.2188
18:52:36:761,-1.1766,-1.394,14.7795,28.5412,0.5435,0.6297,-0.2619,286.5938
18:52:36:779,-0.942,-2.226,12.4548,30.0291,0.8101,0.7645,-0.064,286.7969
18:52:36:797,0.3066,-2.5109,9.7697,28.6631,0.8064,0.3877,0.0921,287.1875
18:52:36:815,1.4295,-2.6282,8.369,28.8453,0.5462,-0.1788,0.0812,287.5
18:52:36:836,1.2954,-2.3816,8.3906,29.7905,0.2224,-0.5074,0.0029,287.5781
18:52:36:860,0.6669,-2.1243,8.9927,29.7041,0.0778,-0.5016,-0.0344,287.5156
18:52:36:878,0.0133,-1.8238,8.4636,27.7381,0.0687,-0.3037,0.0447,287.4688
18:52:36:896,-0.3327,-1.3832,7.2091,28.9348,0.0716,-0.1644,0.201,287.4688
18:52:36:917,-0.3399,-0.8386,6.0898,27.1048,0.0397,-0.2204,0.3299,287.4844
18:52:36:935,-0.2154,-0.2556,5.6085,29.2177,-0.0133,-0.3687,0.3754,287.4219
18:52:36:960,-0.0945,0.2029,5.7534,29.3552,-0.0181,-0.3719,0.3635,287.1875
18:52:36:977,-0.0394,0.3825,5.8839,27.2801,0.0357,-0.1884,0.3456,286.7969
18:52:36:995,0.0576,0.5573,5.8132,28.7952,0.1196,0.0484,0.3251,286.375
18:52:37:016,0.2611,0.9391,5.4373,30.849,0.1515,0.1671,0.2386,285.9219
18:52:37:036,0.4861,1.412,5.1225,29.334,0.0514,0.0377,0.0529,285.5312
18:52:37:062,0.455,1.7149,5.6804,28.2142,-0.2013,-0.1855,-0.183,285.0312
18:52:37:077,0.115,1.9387,7.8447,29.3197,-0.44,-0.1402,-0.3705,284.8594
18:52:37:096,-0.3506,1.7173,10.8542,29.1024,-0.4328,0.1964,-0.4621,284.9219
18:52:37:116,-1.1084,1.5185,13.2532,29.0665,-0.114,0.6414,-0.4611,285.2031
18:52:37:136,-2.4097,1.0505,13.4507,30.6931,0.293,0.8931,-0.293,285.6875
18:52:37:163,-3.7708,0.683,12.4033,29.1074,0.5486,0.6891,0.1312,286.2344
18:52:37:177,-3.3602,0.507,11.7904,29.091,0.6349,0.2582,0.6015,286.7656
18:52:37:196,-1.7704,0.4184,12.2584,29.5556,0.6165,-0.0235,0.849,286.9531
18:52:37:216,0.1354,1.2719,12.3159,30.9592,0.5244,-0.0102,0.9142,286.5781
18:52:37:237,1.1769,1.7005,13.0521,29.3012,0.2642,-0.0832,0.8338,285.7656
18:52:37:261,1.6868,0.7069,14.9328,29.6356,-0.0501,-0.2377,0.47,284.8281
18:52:37:280,0.5759,-0.993,15.0118,29.2067,-0.0309,-0.243,-0.0201,283.8281
18:52:37:296,-0.5111,-2.2751,13.1551,28.4499,0.2647,-0.1295,-0.2674,283.0469
18:52:37:315,-0.6308,-2.7779,10.2485,27.8936,0.5164,0.108,-0.1753,282.7812
18:52:37:337,-0.2884,-2.3697,7.5742,27.6239,0.5265,0.1576,0.0322,283
18:52:37:360,-0.3602,-1.2468,6.3328,29.0978,0.2583,-0.0896,0.1525,283.4062
18:52:37:376,-0.383,-0.6219,6.425,30.5129,-0.13,-0.4651,0.1496,283.4219
18:52:37:396,-0.3758,-0.4938,7.0307,30.5526,-0.4506,-0.7607,0.0756,283.25
18:52:37:415,-0.4153,-0.2568,7.3467,30.9441,-0.6477,-0.8526,0.0401,283.1562
18:52:37:435,-0.2609,-0.0341,7.5359,29.147,-0.735,-0.7802,0.0553,283
18:52:37:461,-0.2513,-0.0688,7.9752,29.4919,-0.7345,-0.6725,0.0641,282.9062
18:52:37:478,-0.3566,-0.064,8.2984,29.9366,-0.6219,-0.4888,0.103,282.7969
18:52:37:495,-0.5111,-0.1861,8.1751,28.8703,-0.4093,-0.2209,0.2197,282.6719
18:52:37:521,-0.5913,0.0652,7.3443,28.2399,-0.1451,0.0955,0.3864,282.5469
18:52:37:543,-0.0968,0.3933,6.3615,29.347,0.0788,0.2641,0.5283,282.3594
18:52:37:560,0.3425,0.7739,6.0012,28.1143,0.1417,0.2249,0.524,282
18:52:37:577,0.4071,0.8745,6.8655,28.1864,0.0269,-0.0006,0.356,281.4688
18:52:37:595,-0.0274,0.6518,9.626,30.0396,-0.1427,-0.3604,0.1243,280.8906
18:52:37:616,-0.6152,0.3178,12.3877,28.7562,-0.134,-0.554,-0.0121,280.3906
18:52:37:636,-1.0246,0.228,13.1467,28.927,0.1712,-0.3953,0.029,280.0469
18:52:37:660,-0.5841,0.6063,11.7485,29.3116,0.576,-0.0379,0.1842,280.0156
18:52:37:680,0.4418,1.3294,10.5705,28.8703,0.7087,0.181,0.2367,279.9688
18:52:37:696,1.0572,1.5173,10.8459,29.3722,0.4549,0.1176,0.0383,279.7656
18:52:37:715,0.4406,0.6542,12.754,29.1207,0.0186,-0.0363,-0.3471,279.5312
18:52:37:736,-0.0981,-0.7691,14.2325,29.4646,-0.2213,-0.0731,-0.5615,279.5
18:52:37:759,-0.1627,-1.0265,13.7033,27.5719,-0.1462,0.1687,-0.4019,279.8906
18:52:37:776,0.3916,-0.3525,12.426,27.989,0.0152,0.3592,-0.1002,280.5
18:52:37:795,0.9362,-0.1957,12.8701,28.3215,0.0463,0.0489,-0.0374,280.9688
18:52:37:817,0.7555,-1.1163,13.762,28.5833,0.0578,-0.2677,-0.2499,281.0938
18:52:37:835,0.9207,-1.8082,12.596,29.7971,0.2122,-0.1301,-0.3471,281.1406
18:52:37:860,1.4534,-1.655,10.2916,28.7953,0.3614,0.14,-0.2209,281.2344
18:52:37:876,1.9203,-1.2288,8.4086,30.2081,0.3204,0.1775,-0.0302,281.4062
18:52:37:895,1.7946,-0.4567,8.4098,28.9321,0.0453,-0.109,0.0737,281.9531
18:52:37:916,1.5923,0.0533,8.4181,30.2344,-0.1691,-0.3463,-0.0113,282.1094
18:52:37:936,1.0751,0.0868,7.5263,27.6297,-0.3068,-0.0174,-0.362,282.0312
18:52:37:960,0.2264,0.0916,6.3926,28.7827,-0.3965,0.1456,-0.3476,282.0312
18:52:37:976,-0.4632,0.1778,5.7211,28.9925,-0.4597,0.1,-0.2286,282.0312
18:52:37:994,-0.6894,0.3573,5.7977,28.5233,-0.4296,-0.0374,-0.1013,282.25
18:52:38:022,-0.7457,0.4807,6.4489,28.5233,-0.2735,-0.0464,0.0266,282.6562
18:52:38:034,-0.7505,0.5489,7.0522,29.0292,-0.0482,0.152,0.1485,283.3125
18:52:38:055,-0.8367,0.5273,7.3719,28.6479,0.1411,0.4806,0.2982,283.4219
18:52:38:077,-0.5745,1.0696,6.8439,27.9942,0.2091,0.6827,0.3842,283.375
18:52:38:094,0.3892,1.886,6.5602,28.3792,0.1736,0.5453,0.2295,283.2188
18:52:38:114,1.1577,2.5361,6.9696,29.4844,0.1124,0.2146,-0.1481,282.9219
18:52:38:134,1.1649,2.6402,7.9656,28.6586,-0.0003,-0.1008,-0.5865,282.5312
18:52:38:154,0.2671,2.1111,9.553,28.5226,-0.1483,-0.0944,-0.8547,282.2969
18:52:38:177,-0.5542,1.2384,11.2756,28.5427,-0.2653,0.2366,-0.8888,282.7344
18:52:38:195,-1.2305,0.9631,12.365,28.1396,-0.33,0.6297,-0.7423,283.5938
18:52:38:215,-1.5669,0.7488,12.7983,30.1803,-0.3249,0.7698,-0.4957,284.6094
18:52:38:235,-1.4939,0.1407,13.2293,29.6411,-0.2519,0.6343,-0.1969,285.5312
18:52:38:261,-1.1563,-0.5549,13.5788,27.5248,-0.1361,0.4803,0.1467,286.2812
18:52:38:277,-0.8379,-0.3741,13.2317,29.2395,-0.0836,0.2156,0.4695,286.7188
18:52:38:297,0.1917,0.3418,13.2628,27.8692,-0.1489,-0.2574,0.5139,286.7656
18:52:38:366,1.2595,0.3118,15.1351,29.052,-0.0746,-0.459,0.2231,286.6562
18:52:38:367,0.8824,-0.9834,16.3046,29.827,0.3124,-0.2369,-0.052,286.125
18:52:38:367,-0.4189,-2.3278,14.4503,30.2678,0.6786,0.1248,-0.0243,285.5156
18:52:38:380,-0.8044,-2.9527,11.4384,28.716,0.7249,0.2183,0.1429,285.2188
18:52:38:393,-0.4273,-2.8988,8.9437,28.9589,0.4554,-0.0523,0.2141,285.2969
18:52:38:422,-0.4237,-2.1805,7.9896,31.4668,0.0463,-0.4579,0.2074,285.3594
18:52:38:434,-0.5925,-1.4754,8.8718,27.9142,-0.2304,-0.6363,0.1752,285.25
18:52:38:457,-0.5948,-1.412,9.5997,30.1167,-0.2661,-0.4872,0.1797,284.9062
18:52:38:476,-0.7768,-1.0349,9.0885,29.9487,-0.1928,-0.2217,0.3113,284.6562
18:52:38:496,-0.4177,-0.5273,7.8244,30.3727,-0.168,-0.0632,0.4513,284.4375
18:52:38:514,0.1115,0.0784,6.9241,31.3928,-0.1675,-0.0704,0.494,284.1562
18:52:38:538,0.6382,0.4471,6.7961,29.7906,-0.0615,-0.0899,0.4639,283.7031
18:52:38:560,0.9398,0.5692,6.6644,30.0395,0.1377,-0.0909,0.3848,283.125
18:52:38:577,0.9566,0.6123,6.4262,31.7043,0.3467,-0.093,0.2881,282.5938
18:52:38:595,0.7555,0.6363,6.0646,30.154,0.4589,-0.1189,0.1824,282.0938
18:52:38:615,-0.2501,0.3765,6.5112,31.2772,0.4136,-0.1738,0.1222,281.7188
18:52:38:635,-0.6116,0.4435,8.3236,32.1498,0.2581,-0.2622,0.1232,281.4688
18:52:38:661,-0.5087,0.7871,10.6938,30.9965,0.1473,-0.3064,0.1475,281.3281
18:52:38:678,-0.5386,1.0457,11.7437,31.6492,0.2402,-0.1815,0.1312,281.1875
18:52:38:695,-0.5099,1.4467,11.1487,29.8738,0.4767,0.0713,0.037,281.0312
18:52:38:715,-0.2633,1.7927,10.282,30.8454,0.5955,0.2675,-0.0975,280.8594
18:52:38:736,-0.183,2.0907,10.2497,30.7007,0.4911,0.2737,-0.2467,280.7656
18:52:38:760,-0.3889,2.001,11.0793,32.3772,0.2591,0.1269,-0.4158,280.9062
18:52:38:775,-0.1842,1.0624,12.2536,31.2301,0.0501,-0.0342,-0.558,281.0156
18:52:38:794,0.4287,0.2903,11.764,31.6794,-0.0219,0.0558,-0.5756,281.6719
18:52:38:814,0.7531,0.3932,10.4927,32.3438,-0.0839,0.2193,-0.4986,281.9844
18:52:38:837,0.7208,0.4531,11.3833,32.5345,-0.2727,-0.0158,-0.5074,282.625
18:52:38:863,0.2383,-0.5453,13.1982,31.6839,-0.3755,-0.4598,-0.648,283.2344
18:52:38:879,-0.2369,-1.5676,13.3454,32.9765,-0.2176,-0.553,-0.6762,283.7812
18:52:38:897,0.2323,-1.8956,11.6072,32.01,0.0144,-0.2979,-0.4533,284.4219
18:52:38:918,1.1924,-1.6095,9.7242,31.6211,0.0967,-0.1639,-0.1274,285.1562
18:52:38:933,1.9897,-1.0553,9.2346,32.8595,-0.0658,-0.3857,0.0902,285.8281
18:52:38:958,2.2303,-0.653,9.6224,33.2298,-0.3161,-0.6459,0.0718,286.1562
18:52:38:978,1.5001,-0.5944,9.8283,33.5995,-0.4594,-0.6377,-0.1527,286.1562
18:52:38:995,0.4191,-0.7009,9.0334,33.4938,-0.4397,-0.3138,-0.3308,286
18:52:39:014,-0.4225,-0.592,7.6245,33.9872,-0.3425,0.1147,-0.3157,286.125
18:52:39:038,-0.7265,-0.0916,6.395,34.3409,-0.2655,0.3767,-0.1716,286.4844
18:52:39:060,-0.7229,0.4316,6.1209,34.2737,-0.2565,0.3637,-0.0533,286.8594
18:52:39:079,-0.6763,0.7548,6.2167,32.8005,-0.2213,0.2992,-0.0211,287.0625
18:52:39:095,-0.7397,0.9176,5.6935,34.1291,-0.119,0.3496,-0.0643,287.125
18:52:39:114,-1.0629,1.248,5.2195,33.6056,-0.1057,0.5006,-0.1489,287.1719
18:52:39:136,-1.2317,1.4886,5.6564,33.0724,-0.2493,0.6383,-0.2054,287.25
18:52:39:162,-1.531,1.722,7.251,32.6658,-0.3899,0.5925,-0.2422,287.4531
18:52:39:177,-1.3359,1.7316,9.6033,34.027,-0.3462,0.2628,-0.2504,287.7031
18:52:39:196,-1.2604,1.5353,11.9639,34.3778,-0.0839,-0.1322,-0.2587,288
18:52:39:220,-1.9727,1.0409,13.2712,33.0454,0.2352,-0.2166,-0.297,288.2812
18:52:39:234,-2.6239,0.6255,13.1802,33.9024,0.4314,0.209,-0.2059,288.5625
18:52:39:257,-2.0326,0.4507,12.0202,33.7438,0.4767,0.8212,0.0676,288.8906
18:52:39:278,-1.106,0.5213,11.3546,33.7531,0.351,1.1158,0.3352,289.1562
18:52:39:296,-0.6631,0.3418,11.958,32.934,0.1547,0.9866,0.466,289.1875
18:52:39:315,-0.6212,0.1885,12.2261,34.5564,0.0701,0.7517,0.5334,288.8281
18:52:39:337,-0.456,0.8242,11.5533,34.2051,-0.0437,0.1975,0.7289,288.3438
18:52:39:361,0.3856,0.993,12.578,35.5113,-0.1577,-0.198,0.5078,287.7656
18:52:39:377,0.7172,-0.0832,14.3234,34.0571,0.0423,-0.3306,0.2074,287.0625
18:52:39:394,0.1234,-1.4778,13.8937,35.3684,0.3004,-0.2073,0.078,286.2188
18:52:39:413,-0.1771,-2.5121,12.031,33.7677,0.3505,-0.0909,0.1099,285.625
18:52:39:434,-0.043,-2.8581,9.9205,34.6746,0.1758,-0.227,0.1472,285.3906
18:52:39:455,-0.2525,-2.463,8.6911,34.2925,-0.1151,-0.5178,0.1595,285.3281
18:52:39:479,-0.45,-1.8741,8.6228,34.8023,-0.331,-0.6441,0.1664,285.2188
18:52:39:496,-0.5051,-1.4718,8.4361,34.5611,-0.4261,-0.5556,0.2007,285.0625
18:52:39:514,-0.681,-1.0636,7.7083,33.7546,-0.4759,-0.4337,0.2953,284.8594
18:52:39:533,-0.4536,-0.7224,6.9948,34.3,-0.5127,-0.4068,0.4069,284.625
18:52:39:554,0.0396,-0.3118,6.8152,34.9894,-0.486,-0.4875,0.4678,284.3594
18:52:39:577,0.315,0.1718,7.16,34.0931,-0.3478,-0.5229,0.4809,283.9844
18:52:39:595,0.4933,0.3597,7.2988,36.2212,-0.1467,-0.4124,0.4708,283.2031
18:52:39:614,0.552,0.4471,7.0642,34.9086,0.0421,-0.2528,0.4609,282.6094
18:52:39:636,0.5101,0.6267,6.5902,35.0849,0.1491,-0.1476,0.4356,281.5
18:52:39:661,0.5783,1.0445,6.2861,35.0502,0.1204,-0.2363,0.3368,281.5
18:52:39:678,0.6094,1.4503,7.0259,36.3503,0.0533,-0.4837,0.1618,281.2344
18:52:39:694,0.2359,1.5317,8.97,35.549,0.0844,-0.6619,-0.0112,280.7344
18:52:39:714,-0.0729,1.3701,10.8135,36.6572,0.1846,-0.5269,-0.1159,280.3594
18:52:39:734,-0.4716,1.4252,11.776,34.9249,0.2317,-0.1642,-0.138,280.1406
18:52:39:755,-0.541,1.9998,12.1088,35.7043,0.1867,-0.0438,-0.1548,280.125
18:52:39:777,0.4299,2.4858,12.7983,35.993,0.0692,-0.6459,-0.374,280.2188
18:52:39:793,1.3074,2.2368,16.0808,36.9904,0.0533,-1.2854,-0.7146,280.4531
18:52:39:814,1.1625,0.8625,19.6601,35.9275,0.3787,-0.9828,-0.7735,280.7031
18:52:39:835,1.1649,-0.5165,19.0891,35.1776,0.8852,0.1112,-0.4597,281.2656
18:52:39:860,1.8688,-0.5309,14.5497,35.3357,1.1196,0.7701,-0.0893,282.1094
18:52:39:879,2.4997,0.5776,10.5957,35.4763,0.9872,0.5437,-0.0624,282.8281
18:52:39:894,2.4721,1.0349,9.553,34.5681,0.816,0.0899,-0.3633,283.0938
18:52:39:913,1.8987,-0.2412,10.44,33.0036,0.8666,-0.1413,-0.5809,283.1094
18:52:39:936,1.3361,-2.0728,10.7297,33.7167,1.0099,0.0473,-0.4675,283.3125
18:52:39:962,0.9398,-3.0041,9.8762,33.3839,1.0733,0.4169,-0.0547,283.8438
18:52:39:979,1.2523,-2.4786,8.2386,34.439,0.9641,0.561,0.3661,284.4844
18:52:39:998,2.2674,-1.0864,6.4932,32.252,0.6189,0.2838,0.4236,284.7969
18:52:40:015,2.1322,0.7177,6.2681,33.1854,0.0815,-0.2052,0.0961,284.5625
18:52:40:034,1.4247,0.4531,7.4138,32.3799,-0.4128,-0.3884,-0.2933,284.0469
18:52:40:054,0.5843,0.3873,7.6209,30.9136,-0.6637,-0.1096,-0.5324,283.7031
18:52:40:078,-0.2896,0.6901,6.6093,32.7984,-0.6543,0.3895,-0.6003,283.7188
18:52:40:095,-0.6858,1.0948,4.9956,31.6165,-0.4804,0.7533,-0.5316,284.3438
18:52:40:114,-0.6775,1.4192,3.4921,32.2165,-0.3228,0.8066,-0.4504,285.0156
18:52:40:133,-0.6571,1.6933,2.7594,32.8158,-0.3313,0.6313,-0.436,285.6562
18:52:40:153,-0.6822,1.7579,3.2072,31.0316,-0.4996,0.345,-0.4856,286.1719
18:52:40:178,-0.8343,1.722,4.9094,32.9016,-0.7254,0.0159,-0.566,286.625
18:52:40:195,-1.616,1.7711,7.7418,30.8182,-0.8615,-0.3218,-0.6131,287.1406
18:52:40:213,-2.5665,1.5832,10.95,32.4224,-0.8123,-0.4297,-0.5782,287.7188
18:52:40:234,-2.9077,1.3474,12.9671,31.9513,-0.4687,-0.2132,-0.39,288.3438
18:52:40:254,-2.4372,1.6358,12.6954,30.7587,0.0261,0.2441,-0.0674,289.0156
18:52:40:277,-1.2161,2.4882,11.6886,30.2817,0.3388,0.6135,0.2407,289.5781
18:52:40:296,-0.3135,3.2041,11.5557,30.2817,0.3137,0.7088,0.295,289.8438
18:52:40:315,-0.608,2.8772,13.0605,28.341,0.0626,0.5648,0.0577,289.7344
18:52:40:334,-0.6894,1.5628,14.5353,29.0077,-0.1462,0.5227,-0.1756,289.4062
18:52:40:353,-0.6008,0.3741,14.6862,30.3235,-0.1601,0.6713,-0.2568,289.2031
18:52:40:377,-0.5146,-0.2999,14.6347,30.0796,-0.1196,0.5837,-0.2352,289.3906
18:52:40:444,-0.93,-0.9259,15.4607,30.4334,-0.1598,0.2271,-0.2158,289.6875
18:52:40:444,-1.6471,-2.068,15.3924,29.6604,-0.1326,0.091,-0.1604,289.9531
18:52:40:444,-2.2277,-2.6163,13.5082,29.5475,0.0455,0.3336,0.0937,290.1875
18:52:40:457,-1.5765,-1.9674,10.604,28.6055,0.2442,0.7048,0.6282,290.3594
18:52:40:481,0.3868,-0.835,7.9585,30.5356,0.3276,0.748,1.1808,290.2656
18:52:40:502,1.3804,0.2137,6.4693,29.2261,0.2139,0.3136,1.2812,288.2812
18:52:40:516,0.8082,0.5393,6.6213,28.622,-0.4413,-0.7903,0.6215,286.8281
18:52:40:538,0.206,0.0629,7.2414,29.5577,-0.6746,-0.8619,0.4721,285.7969
18:52:40:560,-0.2944,-0.2161,7.3922,29.4889,-0.7798,-0.7189,0.4756,285.375
18:52:40:575,-0.5422,-0.0988,7.1636,30.3631,-0.7318,-0.5383,0.5608,284.7344
18:52:40:596,-0.4488,0.234,6.9936,29.4477,-0.5321,-0.4169,0.6319,284.1562
18:52:40:617,-0.1387,0.5644,6.583,28.8175,-0.2935,-0.4086,0.6338,283.5312
18:52:40:635,0.1665,0.8326,6.1113,29.7844,-0.1332,-0.4425,0.573,282.4062
18:52:40:659,0.3245,0.9906,6.0096,28.8039,-0.0631,-0.4217,0.4668,281.6562
18:52:40:680,0.1929,0.9751,6.3196,30.0346,-0.0735,-0.3184,0.3613,281.0156
18:52:40:696,-0.1017,0.9224,7.251,29.9566,-0.0807,-0.154,0.3145,280.4688
18:52:40:714,-0.2106,1.0421,8.4552,29.5237,-0.0064,-0.0209,0.2817,280.4688
18:52:40:734,-0.2884,1.4012,9.055,29.1659,0.0868,-0.0691,0.1469,280.0312
18:52:40:755,-0.3506,1.5329,9.1735,29.9406,0.0844,-0.2017,-0.0603,279.6875
18:52:40:779,-0.3878,1.309,9.4081,29.9682,-0.0373,-0.227,-0.2017,279.1875
18:52:40:795,-0.2848,1.151,9.8116,30.0641,-0.2131,-0.2105,-0.3183,279.1875
18:52:40:814,-0.1854,0.9523,10.2964,31.3813,-0.4069,-0.3421,-0.4549,279.25
18:52:40:832,-0.3506,0.4459,11.5031,28.8912,-0.6344,-0.573,-0.5125,279.4688
18:52:40:852,-0.5889,0.0365,14.7783,29.7684,-0.6184,-0.4768,-0.4001,279.8281
18:52:40:878,0.1294,-0.8505,16.4088,30.7782,-0.347,-0.0675,-0.2017,280.3281
18:52:40:895,0.3425,-0.7931,15.1602,30.3461,-0.1758,0.1197,-0.0105,281.2656
18:52:40:913,0.4215,-0.3047,14.2995,28.4221,-0.1316,-0.0654,0.046,281.5
18:52:40:933,0.7543,-0.829,15.0561,30.041,0.0136,-0.0816,-0.007,281.5312
18:52:40:953,0.8716,-1.916,14.8861,30.9572,0.2301,0.0912,0.0569,281.4844
18:52:40:978,1.7682,-2.6653,13.5932,29.4162,0.3678,0.16,0.1877,281.4531
18:52:40:996,2.3524,-2.8473,12.1519,32.2437,0.3739,0.0843,0.3355,281.4531
18:52:41:014,2.5775,-2.0668,11.0434,31.9742,0.3199,-0.0467,0.3579,281.3281
18:52:41:033,2.5236,-1.1534,10.4915,31.4541,0.3316,-0.0821,0.1496,281.2031
18:52:41:057,2.1573,-0.7763,9.5087,32.4346,0.392,0.0835,-0.1372,280.8281
18:52:41:078,1.3624,-0.7619,7.725,31.3113,0.4056,0.3088,-0.2866,280.4219
18:52:41:093,0.607,-0.6806,5.7677,33.2747,0.3523,0.3869,-0.2935,280.2656
18:52:41:113,0.1258,-0.5249,4.2786,32.8124,0.249,0.2833,-0.2275,280.4219
18:52:41:133,-0.2788,-0.3094,3.5364,33.006,0.1145,0.0686,-0.1351,280.7656
18:52:41:153,-0.4273,-0.0186,3.4657,33.0353,-0.021,-0.1277,-0.0323,281.1094
18:52:41:178,-0.2728,0.1311,3.7447,32.8344,-0.1561,-0.2446,0.0295,281.375
18:52:41:193,-0.1507,0.331,4.4629,31.3499,-0.2844,-0.2704,0.0615,281.5312
18:52:41:213,0.0444,0.5513,5.9042,32.168,-0.3223,-0.1991,0.0764,281.5469
18:52:41:238,0.2443,0.7368,7.7633,31.0445,-0.2285,-0.1008,0.0649,281.4844
18:52:41:252,0.3042,1.2049,9.6978,31.6601,-0.0426,0.0116,0.0284,281.3906
18:52:41:274,0.449,1.8094,11.1523,33.0954,0.1771,0.1213,-0.0853,281.3125
18:52:41:296,0.5017,2.147,11.5964,34.0943,0.2924,0.2553,-0.2778,281.25
18:52:41:315,0.2719,2.2488,11.5701,31.2017,0.2173,0.5754,-0.4491,281.2656
18:52:41:338,-0.0346,2.0907,11.2589,32.4617,0.0021,0.9858,-0.5266,281.4688
18:52:41:352,-0.614,1.9387,11.2541,32.3167,-0.1973,1.2074,-0.4824,281.9062
18:52:41:374,-1.1024,1.5963,11.8071,31.9498,-0.2181,1.0609,-0.3372,282.5
18:52:41:394,-1.209,0.3621,12.5793,31.1236,-0.1097,0.6883,-0.1069,283.1406
18:52:41:419,-0.626,0.398,12.7229,31.7094,-0.0434,0.2947,0.1592,283.625
18:52:41:432,0.1174,0.2245,14.236,32.9918,-0.1071,-0.1234,0.3208,283.9219
18:52:41:453,0.0684,-0.5381,15.5684,31.2909,-0.0703,-0.3993,0.2793,283.9062
18:52:41:481,-0.4931,-1.5628,14.7005,31.3134,0.2455,-0.3554,0.1904,283.625
18:52:41:493,-0.4859,-2.1973,11.9604,29.479,0.6237,-0.0446,0.2274,283.4219
18:52:41:512,-0.0849,-2.1817,9.3351,28.534,0.7191,0.1576,0.3246,282.9688
18:52:41:537,-0.1376,-1.5856,7.6867,29.0599,0.5073,0.0731,0.3509,282.75
18:52:41:551,-0.7541,-1.0469,7.5383,29.4623,0.1292,-0.2675,0.2849,282.5
18:52:41:575,-0.8379,-1.1402,8.2625,29.0177,-0.2253,-0.6595,0.237,282.125
18:52:41:594,-0.5793,-1.1761,8.3319,29.5166,-0.3675,-0.7945,0.3027,281.7812
18:52:41:612,-0.2058,-0.9236,7.9321,28.5409,-0.3286,-0.7642,0.4532,281.5
18:52:41:633,0.1737,-0.6051,7.7454,28.8598,-0.2077,-0.6771,0.5973,281.1719
18:52:41:653,0.218,-0.0916,7.8339,30.8632,-0.0402,-0.6438,0.6958,280.7188
18:52:41:677,0.4035,0.1478,7.7106,29.1328,0.2152,-0.6422,0.776,280.0781
18:52:41:696,0.7112,0.2269,7.172,29.0584,0.4991,-0.6374,0.8143,279.3438
18:52:41:720,1.0643,0.598,6.3543,29.3336,0.6429,-0.4507,0.804,278.0312
18:52:41:731,1.5887,1.1546,5.5762,29.9484,0.5603,-0.1439,0.7302,277.125
18:52:41:752,1.7479,1.6765,5.4074,26.8666,0.2882,0.0614,0.5299,276.1875
18:52:41:776,1.5384,1.9842,6.5638,27.8565,-0.0634,-0.0073,0.2242,275.3594
18:52:41:797,1.3121,1.9088,8.7904,28.0002,-0.3483,-0.2473,-0.0746,274.75
18:52:41:814,1.1302,1.7616,11.0901,28.9729,-0.437,-0.3562,-0.3127,274.5156
18:52:41:835,0.7746,1.6335,12.1268,28.2023,-0.3121,-0.1167,-0.484,274.5938
18:52:41:854,0.3497,1.6969,11.5976,29.0555,-0.0916,0.3035,-0.6028,274.9531
18:52:41:879,0.0073,1.6035,10.9392,27.1718,-0.0064,0.5251,-0.6877,275.2031
18:52:41:896,-0.1304,1.1762,11.0996,26.3424,-0.0759,0.4724,-0.7415,275.8125
18:52:41:912,-0.0645,0.2197,12.4033,26.2242,-0.1848,0.1829,-0.7561,276.5625
18:52:41:936,0.8513,-0.9248,12.8127,27.2318,-0.1627,0.0119,-0.5868,277.3906
18:52:41:952,1.6593,-0.9655,11.9783,26.8358,-0.0961,0.0292,-0.2888,278.2344
18:52:41:974,1.8855,-0.1095,11.3714,26.4721,-0.1292,-0.002,-0.0629,279.0312
18:52:42:004,1.9502,0.3873,11.9089,24.7888,-0.2426,-0.198,-0.0203,279.6562
