Time,Acc_X,Acc_Y,Acc_Z,Meg,Gyr_X,Gyr_Y,Gyr_Z,Ore
20:23:02:076,-0.4931,4.7914,9.1819,56.9362,0.1643,-0.1333,-0.0683,157.8125
20:23:02:133,-0.9659,4.546,8.6192,56.5142,-0.1182,-0.2164,0.9073,158.2344
20:23:02:150,-0.6116,4.4466,8.4648,56.1758,-0.1566,-0.1458,0.9597,158.2344
20:23:02:166,-0.1687,4.1593,8.3415,57.0344,-0.2232,-0.0954,0.9557,158.2344
20:23:02:186,0.4897,4.5699,8.4397,55.9935,-0.2591,-0.2353,0.9225,195.3281
20:23:02:216,0.862,4.7052,8.3319,56.7786,-0.3057,-0.3967,0.8535,194.25
20:23:02:229,0.6142,4.3413,8.5474,57.4168,-0.3523,-0.3564,0.8447,193.25
20:23:02:250,0.7327,4.2312,8.8407,55.8904,-0.3196,-0.3564,0.8641,192.3125
20:23:02:264,0.8441,4.1174,8.8802,57.0375,-0.2935,-0.3706,0.8663,191.4531
20:23:02:284,0.8872,4.036,8.794,57.0914,-0.2908,-0.3871,0.8591,190.5938
20:23:02:307,0.9781,3.9355,8.7832,57.5873,-0.2541,-0.3759,0.8418,189.25
20:23:02:334,0.8106,3.6697,8.7473,55.4735,-0.159,-0.3117,0.8865,188.375
20:23:02:350,0.9841,3.234,7.9824,57.4257,-0.127,-0.4512,0.948,187.5469
20:23:02:363,1.4666,2.9359,6.7913,56.6429,-0.2786,-0.7333,0.8876,186.625
20:23:02:387,1.9095,2.8569,6.6584,57.2388,-0.5537,-0.6755,0.6985,185.6562
20:23:02:403,2.2255,2.8653,7.9165,56.2712,-0.7582,-0.3138,0.5427,184.875
20:23:02:421,2.5787,2.8461,9.7697,56.3069,-0.6735,-0.2108,0.4415,184.2656
20:23:02:450,2.447,2.9179,10.8243,55.9076,-0.3065,-0.3639,0.4423,183.7656
20:23:02:461,1.8496,3.0257,10.622,57.0643,0.0277,-0.1863,0.5922,183.5469
20:23:02:482,1.7192,3.0137,10.0211,56.9998,0.1087,0.336,0.7797,183.1719
20:23:02:500,2.2423,2.815,9.7804,56.181,0.0543,0.5815,0.8468,182.6875
20:23:02:520,2.9019,2.6809,9.7301,57.4959,-0.0061,0.4063,0.7661,181.8594
20:23:02:547,3.1676,2.6199,9.4141,55.3574,-0.0415,0.1112,0.6173,180.7969
20:23:02:561,2.9785,2.9048,8.9006,56.0581,-0.0948,-0.0233,0.5153,179.7812
20:23:02:580,2.8169,3.2914,8.6971,54.371,-0.2027,0.0348,0.4649,178.6094
20:23:02:600,2.8133,3.4315,8.7569,56.2142,-0.2882,0.1096,0.4631,178.0469
20:23:02:620,3.1221,3.3872,8.9341,57.6025,-0.2993,0.046,0.4423,177.5312
20:23:02:638,3.3017,3.3621,9.1986,57.1292,-0.1947,-0.0036,0.3552,177
20:23:02:659,2.763,3.3309,9.4273,56.5135,0.0392,0.0998,0.3193,176.5
20:23:02:680,2.1788,3.2112,8.7641,56.8654,0.1891,0.352,0.3637,176.1406
20:23:02:698,2.3333,3.5093,7.8447,57.2618,0.1169,0.3333,0.396,175.75
20:23:02:722,3.1473,3.9235,8.0243,56.0416,0.0035,0.1496,0.2966,175.25
20:23:02:738,3.1162,3.9546,8.6983,55.9817,-0.0743,0.054,0.2074,174.7344
20:23:02:761,2.7068,3.9774,9.5159,56.2397,-0.0029,-0.014,0.1965,174.7344
20:23:02:780,2.4051,3.9331,9.7984,56.6234,0.1902,-0.055,0.135,174.375
20:23:02:799,2.2291,4.2527,9.8546,56.1207,0.3808,0.1125,0.1006,174.1406
20:23:02:817,1.8772,4.3844,10.1467,56.1207,0.6123,0.4433,0.2319,173.9219
20:23:02:836,1.7455,4.2431,9.5614,58.1546,0.6969,0.561,0.4332,173.7656
20:23:02:856,2.2267,4.1079,8.5462,56.0219,0.547,0.2236,0.4308,173.5938
20:23:02:880,2.8241,4.0732,8.0171,57.4084,0.3606,-0.4177,0.2306,172.5625
20:23:02:897,2.9725,4.4119,7.9201,56.4953,0.2661,-0.9322,0.0785,172.2344
20:23:02:918,2.684,4.534,8.4253,55.8636,0.2573,-0.655,0.1011,171.9844
20:23:02:937,2.7798,4.6753,8.3475,57.0209,0.2778,-0.092,0.1555,171.8281
20:23:02:957,3.0946,4.9171,8.3511,55.6557,0.2599,0.2635,0.1278,171.8906
20:23:02:980,3,4.7914,8.7785,56.1778,0.2099,0.4428,0.0865,171.9062
20:23:02:998,2.7163,4.6394,9.3267,57.392,0.1819,0.3951,0.0583,171.7188
20:23:03:017,2.6242,4.6059,10.2772,57.2144,0.2173,0.4377,0.009,171.4844
20:23:03:036,2.3093,4.7016,11.1834,55.8462,0.2328,0.8391,-0.0741,171.2812
20:23:03:055,1.5204,4.1773,11.7784,57.1865,0.2921,1.2111,-0.0264,171.0938
20:23:03:076,0.9207,3.2112,12.3374,58.0251,0.531,1.2457,0.1725,170.9531
20:23:03:101,0.5807,2.7025,11.9987,56.822,0.7827,0.976,0.417,170.8281
20:23:03:118,0.7866,2.8892,11.3391,56.6284,0.9713,0.4718,0.5552,170.5312
20:23:03:136,0.6765,3.1179,10.4807,55.6886,0.9619,-0.0504,0.5161,169.9844
20:23:03:156,-0.0992,3.2328,9.7768,57.4135,0.6669,-0.2475,0.5296,169.25
20:23:03:176,-0.2393,2.7551,9.5518,57.121,0.2815,-0.1642,0.6484,168.125
20:23:03:196,0.5089,2.3014,9.5063,55.9268,0.0075,-0.2513,0.715,167.5781
20:23:03:217,0.941,1.8968,9.4895,56.1152,-0.085,-0.4142,0.7342,166.9844
20:23:03:236,1.2786,1.7831,9.2693,57.0551,-0.0533,-0.3389,0.6996,166.2344
20:23:03:256,1.9717,2.1111,8.5331,55.9375,-0.0517,-0.1682,0.4236,165.5156
20:23:03:278,1.4235,2.1362,7.2797,56.594,-0.0679,-0.1226,0.3408,164.8281
20:23:03:296,1.1912,2.4499,6.5878,56.2629,-0.1614,-0.0883,0.4527,164.2656
20:23:03:317,1.1302,2.6342,6.5183,55.9743,-0.2682,0.0921,0.6471,163.9062
20:23:03:337,1.4247,2.6761,6.7254,56.4296,-0.396,0.3722,0.7565,163.5156
20:23:03:356,2.0005,2.4571,6.2849,55.6729,-0.6101,0.4444,0.666,162.9375
20:23:03:382,2.6397,2.3553,6.0563,56.4125,-0.7958,0.1309,0.3477,162.0625
20:23:03:397,3.5782,2.2356,6.6763,57.216,-0.7934,0.0287,-0.2259,161.125
20:23:03:417,2.7151,1.9279,6.0694,56.0307,-0.7923,-0.2022,-0.4334,160.5312
20:23:03:439,1.0272,2.9586,8.1548,54.5966,-0.6546,-0.0992,-0.2035,160.5
20:23:03:457,0.9781,2.9275,9.1496,56.219,-0.2256,0.3581,0.1121,161.0469
20:23:03:482,1.4738,2.6043,8.9832,56.5919,0.3542,0.863,0.4061,161.5625
20:23:03:498,2.4386,2.657,7.0714,56.3888,0.8991,1.2479,0.5997,161.6094
20:23:03:516,3.2263,3.6434,4.3276,55.3657,1.1864,1.3184,0.5723,161.1562
20:23:03:536,3.3376,4.285,3.8141,57.0875,0.6221,0.7935,0.4511,160.25
20:23:03:555,2.9318,3.8613,7.8232,55.931,-0.408,-0.2603,0.2186,159.2188
20:23:03:576,3.0791,4.5304,9.9851,56.7053,-0.5838,-1.108,-0.1015,158.2812
20:23:03:598,2.6744,4.7986,9.7649,55.685,-0.4466,-0.9988,-0.3223,157.7812
20:23:03:616,2.0735,3.6566,8.3798,55.1854,-0.5292,0.43,-0.3138,157.9219
20:23:03:638,1.6533,4.6968,11.43,56.5684,-0.8296,1.4636,-0.232,158.5469
20:23:03:656,1.117,4.7842,14.5557,55.5864,-0.8282,1.6481,-0.2459,159.0625
20:23:03:676,1.7263,4.6286,14.6155,55.3106,-0.3095,1.5072,-0.1055,159.125
20:23:03:698,2.69,5.1458,12.7026,55.7015,0.3835,1.2569,0.1336,159.0625
20:23:03:717,4.2367,6.1166,10.8866,56.1861,0.7444,1.3395,0.2979,158.9531
20:23:03:736,5.5128,5.712,9.2214,55.241,0.6283,1.4226,0.152,158.625
20:23:03:756,3.1234,3.9151,8.4038,55.731,0.1734,1.1208,-0.42,157.7656
20:23:03:776,0.3868,2.9479,9.9109,55.4636,-0.4906,0.4681,-0.8826,157.2656
20:23:03:798,-0.517,2.9586,12.4871,53.3022,-0.8858,-0.1993,-0.9098,157.4688
20:23:03:817,-0.9241,2.8736,13.2197,56.2083,-0.7737,-0.3066,-0.7364,158.3125
20:23:03:837,-1.1479,2.4822,11.8083,54.8082,-0.376,0.0063,-0.5119,159.3438
20:23:03:857,-0.7373,3.2208,10.7202,53.7275,-0.1374,0.4327,-0.224,160.2188
20:23:03:883,0.4622,3.2304,9.8499,53.1341,-0.033,0.6292,0.0101,160.75
20:23:03:900,1.9382,3.0185,8.6839,53.895,-0.0407,0.6116,0.0463,160.9062
20:23:03:917,1.0272,2.8174,7.907,52.5669,-0.1036,0.3919,-0.2461,160.7656
20:23:03:942,-0.9588,2.3625,8.4397,53.8848,-0.2195,0.2289,-0.5511,160.5781
20:23:03:956,-1.8147,2.2248,9.3926,55.6313,-0.2019,0.1722,-0.4624,160.6094
20:23:03:976,-1.2329,2.4164,8.8886,53.053,0.1108,0.222,-0.1729,161.0312
20:23:03:999,-0.1208,2.1542,7.6891,51.6097,0.4586,0.2441,0.0204,161.6094
20:23:04:016,1.0799,2.0764,6.9888,53.2956,0.5795,0.3219,0.0396,161.9219
20:23:04:100,0.9374,2.3314,6.8667,52.0839,0.604,0.1198,-0.1764,161.9688
20:23:04:101,-0.2393,2.6725,6.8547,52.1745,0.6674,-0.15,-0.4224,161.9375
20:23:04:101,-1.0414,3.0185,6.5866,49.8048,0.7526,-0.2054,-0.477,162.1094
20:23:04:110,-1.1922,3.3884,6.5806,52.0651,0.7699,-0.1255,-0.3495,162.6875
20:23:04:121,-1.2616,3.3429,7.0822,50.4259,0.6892,0.0268,-0.1854,163.3594
20:23:04:135,-0.8079,3.2639,8.454,50.4265,0.5449,0.0332,-0.0504,163.875
20:23:04:156,-0.2238,3.325,9.6883,50.1512,0.4879,-0.2829,-0.0861,164.1406
20:23:04:177,-0.5529,3.2962,10.5382,48.0245,0.6115,-0.2326,-0.1537,164.2344
20:23:04:197,-1.2772,3.6961,10.1671,51.2324,0.6067,0.0316,-0.0954,164.3281
20:23:04:215,-1.5717,3.4985,9.4105,49.0613,0.3481,0.3195,-0.0224,164.5312
20:23:04:235,-1.7225,2.9802,9.8092,49.0124,0.0983,0.2944,-0.1308,164.8281
20:23:04:255,-2.8645,2.5636,11.1164,48.437,0.0969,0.0723,-0.2693,165
20:23:04:278,-4.4256,2.8521,10.7716,47.4375,0.1151,0.0883,-0.1665,164.9688
20:23:04:296,-4.5884,3.9917,9.5255,47.5812,-0.1539,0.4162,0.1232,165.0469
20:23:04:316,-4.0533,3.4554,9.2142,47.4266,-0.6136,0.6505,0.351,165.5156
20:23:04:336,-3.6187,2.6654,11.2457,48.0402,-0.7755,0.5355,0.3571,165.4531
20:23:04:355,-4.1814,1.8034,12.6762,47.9786,-0.5566,0.1908,0.3752,164.9375
20:23:04:376,-4.2065,1.9447,12.0944,45.4907,-0.2647,-0.0491,0.4601,164.25
20:23:04:396,-3.839,2.4654,9.8559,47.947,-0.2852,0.1211,0.658,163.6406
20:23:04:416,-3.0728,2.4403,8.4636,46.479,-0.5452,0.4612,0.8524,163.1562
20:23:04:435,-1.8734,2.0393,8.0434,46.1556,-0.775,0.5757,0.9067,162.5
20:23:04:455,-0.8103,1.7975,7.5083,48.6127,-0.9047,0.4449,0.8021,162.0469
20:23:04:475,-0.5206,1.8262,7.4485,45.0415,-0.8756,0.2755,0.6788,160.9375
20:23:04:498,-0.5889,2.0441,7.4174,45.0591,-0.7111,0.3131,0.6258,159.6562
20:23:04:515,-0.8414,2.2344,7.3168,47.484,-0.5092,0.5616,0.6673,158.5156
20:23:04:535,-0.9839,2.2308,7.6149,46.3887,-0.2477,0.7477,0.7691,157.5625
20:23:04:555,-0.6679,2.3206,7.6412,46.291,0.0575,0.7088,0.8561,156.7344
20:23:04:575,0.2096,2.3996,6.741,45.9589,0.2557,0.4739,0.826,155.7812
20:23:04:599,0.8106,2.7264,6.1484,44.8252,0.3233,0.2074,0.7608,154.6875
20:23:04:618,1.1601,3.0317,6.34,46.3486,0.388,0.1461,0.6849,153.6094
20:23:04:635,1.2331,3.2519,6.1891,44.8221,0.4005,0.2122,0.6431,152.1406
20:23:04:655,1.8173,4.3413,6.4094,44.7471,0.3811,0.2135,0.5294,151.3125
20:23:04:676,1.6138,4.7735,6.1556,46.7757,0.2189,0.1602,0.4242,150.6094
20:23:04:698,1.1852,5.141,6.6811,46.6511,-0.012,0.0673,0.3512,149.9219
20:23:04:715,0.5687,5.2092,7.646,43.0368,-0.2152,-0.1048,0.3131,149.375
20:23:04:735,-0.0286,5.1026,8.8419,44.0056,-0.3603,-0.3042,0.3272,148.9375
20:23:04:756,-0.055,4.7639,10.0366,42.9229,-0.3971,-0.4859,0.3251,148.5469
20:23:04:777,0.3748,4.4814,10.5454,43.0554,-0.4163,-0.5381,0.2119,148.2188
20:23:04:798,0.364,4.0887,10.9823,42.7992,-0.4911,-0.4787,0.0471,147.875
20:23:04:815,-0.0035,3.6374,12.1986,43.2797,-0.425,-0.4947,-0.1202,147.6719
20:23:04:836,-0.2836,3.8601,12.7468,44.0394,-0.2621,-0.5285,-0.2126,147.5938
20:23:04:856,-0.2022,4.2395,11.8203,43.1334,-0.2495,-0.4725,-0.2501,147.7031
20:23:04:877,-0.4715,3.4471,12.5697,41.7053,-0.4208,-0.3349,-0.2699,147.9844
20:23:04:897,-0.4213,2.5923,13.5836,43.2991,-0.5191,-0.2763,-0.276,148.3438
20:23:04:916,0.194,2.2404,13.5238,43.2991,-0.3984,-0.4084,-0.3548,148.7188
20:23:04:935,0.1569,2.4355,12.0741,41.3024,-0.1422,-0.6134,-0.5588,149.0469
20:23:04:956,-0.3997,2.6259,10.2389,43.2854,-0.0178,-0.6217,-0.7295,149.4062
20:23:04:975,-0.2668,2.4044,9.3399,42.7899,-0.167,-0.4467,-0.7402,150
20:23:04:998,-0.037,2.0429,9.3387,43.1894,-0.3907,-0.3271,-0.7311,150.9062
20:23:05:016,-0.1292,1.7125,9.292,42.1177,-0.4743,-0.312,-0.7862,151.8125
20:23:05:035,-0.3387,1.6023,8.6767,42.0943,-0.3715,-0.3421,-0.851,152.7031
20:23:05:055,-0.5003,1.5449,7.9249,41.507,-0.2075,-0.3024,-0.8837,153.6094
20:23:05:077,-0.371,1.4623,7.6795,42.6458,-0.09,-0.1612,-0.8632,154.5312
20:23:05:100,-0.1352,1.3677,7.5574,43.1914,0.0133,-0.0648,-0.8523,155.5625
20:23:05:115,-0.3925,1.3988,7.1636,42.7146,0.1691,-0.093,-0.9034,156.6094
20:23:05:138,-0.8762,1.5664,7.1097,41.6608,0.3135,-0.1223,-0.9402,157.5938
20:23:05:158,-1.3921,1.752,7.415,43.9342,0.4461,-0.0765,-0.913,158.5625
20:23:05:175,-1.6567,2.0417,7.2043,42.6607,0.621,-0.0203,-0.8025,159.6719
20:23:05:196,-1.4101,2.1997,7.0187,42.398,0.7249,0.058,-0.615,160.7969
20:23:05:217,-1.2245,2.2416,7.154,42.537,0.6959,0.1317,-0.4627,162.25
20:23:05:236,-1.3083,2.414,8.0734,43.4753,0.5393,0.1341,-0.3913,163
20:23:05:255,-1.8554,2.5109,9.4045,42.0999,0.3641,0.0393,-0.3623,163.5625
20:23:05:275,-2.114,2.6103,10.2581,42.4354,0.2751,-0.0861,-0.2778,164.0156
20:23:05:297,-1.7094,2.736,10.1372,44.9438,0.2802,-0.1724,-0.1242,164.4531
20:23:05:315,-1.2688,2.6653,10.112,44.22,0.228,-0.1295,-0.0102,164.8125
20:23:05:335,-1.1419,2.2392,10.5753,43.7496,0.0722,0.0154,0.0186,165.0156
20:23:05:355,-1.8087,1.7208,11.1595,43.6488,-0.0615,0.1541,-0.0608,165.0781
20:23:05:376,-2.3773,1.5664,11.2672,42.5914,-0.114,0.1956,-0.1351,165.0625
20:23:05:399,-2.7963,1.7244,10.8901,41.2919,-0.151,0.1842,-0.1455,165.0781
20:23:05:416,-2.9005,1.8082,10.3862,42.9686,-0.2527,0.1698,-0.0669,165.1875
20:23:05:441,-2.3318,1.4503,10.7764,41.7234,-0.4623,0.1671,0.0985,165.2812
20:23:05:455,-2.0936,1.0876,11.6276,43.911,-0.6043,0.091,0.1816,165.3125
20:23:05:476,-2.5509,1.333,11.3103,44.3548,-0.477,-0.0366,0.1645,165.2344
20:23:05:503,-2.9292,1.7197,9.4812,42.7961,-0.2272,-0.0145,0.2204,164.5938
20:23:05:523,-3.0322,1.8202,7.828,43.0384,-0.4772,0.3916,0.6061,164.3438
20:23:05:540,-2.2397,1.5185,7.8256,43.4798,-0.8024,0.2654,0.7376,164.3438
20:23:05:559,-1.3837,1.0672,8.6599,44.4957,-0.9001,-0.0531,0.7299,163.8438
20:23:05:580,-0.5721,0.8757,9.0909,44.0686,-0.7579,-0.3146,0.6205,163.0156
20:23:05:595,-0.1088,1.0397,8.7258,43.8678,-0.5143,-0.3495,0.4764,162.0312
20:23:05:615,-0.025,1.2911,8.0063,43.8857,-0.2831,-0.1751,0.3685,161.1719
20:23:05:635,-0.2309,1.4443,8.0195,43.5381,0.0352,0.1267,0.3334,160.4375
20:23:05:655,-0.1806,1.5544,7.7454,45.6417,0.4133,0.4596,0.3137,159.9062
20:23:05:675,0.0995,1.9555,6.747,45.2128,0.6615,0.7765,0.2937,159.5156
20:23:05:699,0.1881,2.42,5.3535,44.4017,0.6104,0.8734,0.2511,159.1094
20:23:05:716,0.0624,2.8569,4.5838,44.9485,0.2794,0.6982,0.2039,158.7188
20:23:05:735,-0.6427,3.1179,5.9796,44.6632,-0.0128,0.45,0.2213,158.3281
20:23:05:755,-1.288,3.1346,8.0087,45.382,-0.0618,0.2036,0.2939,157.9375
20:23:05:775,-1.2197,3.21,9.2238,46.1656,-0.008,-0.0337,0.336,157.4375
20:23:05:800,-1.1084,3.5488,9.7709,45.2273,0.0322,-0.2693,0.3443,157.0938
20:23:05:819,-0.9504,3.9295,10.2389,47.5666,0.0413,-0.4145,0.3581,156.7031
20:23:05:836,-0.4847,4.139,10.6615,47.9898,0.0306,-0.4481,0.3235,156.3438
20:23:05:860,-0.1064,4.2802,11.3115,47.047,0.0312,-0.3791,0.2442,156.0156
20:23:05:875,-0.0023,4.1557,12.189,43.7751,0.0884,-0.2414,0.1501,155.875
20:23:05:896,-0.0035,3.866,12.9384,46.9002,0.2107,-0.2243,0.033,155.5938
20:23:05:919,0.1031,3.805,13.0581,47.0897,0.326,-0.3775,-0.1111,155.3906
20:23:05:937,0.0923,3.896,12.0346,47.1652,0.2317,-0.4643,-0.2384,155.2656
20:23:05:955,-0.0514,3.726,11.8311,48.9486,0.0349,-0.3974,-0.3077,155.2969
20:23:05:976,-0.0729,3.0915,12.7397,47.1638,0.0373,-0.3357,-0.3604,155.5312
20:23:06:001,0.2012,2.7037,12.9755,48.4856,0.2645,-0.321,-0.4531,155.9219
20:23:06:019,0.2419,2.7444,11.7173,47.9159,0.4607,-0.2382,-0.5093,156.3281
20:23:06:035,0.1964,2.9622,9.559,46.9711,0.3846,-0.1274,-0.5204,156.8281
20:23:06:058,0.0288,3.155,7.8866,47.5924,-0.0085,0.0428,-0.4773,157.75
20:23:06:074,-0.1028,2.7946,7.7921,48.702,-0.4567,0.1315,-0.4161,158.3906
20:23:06:099,-0.1938,2.0273,9.6751,48.5967,-0.4943,0.0524,-0.424,159
20:23:06:116,-0.3866,1.4407,10.4963,47.7869,-0.1739,-0.0928,-0.4581,159.4688
20:23:06:185,-0.5673,1.4287,9.6368,47.6234,0.2059,-0.1825,-0.4821,159.8438
20:23:06:185,-0.7098,1.7137,7.7645,47.3709,0.3502,-0.116,-0.444,160.3125
20:23:06:185,-0.693,1.8693,6.7769,46.7885,0.3438,0.0137,-0.3753,160.9062
20:23:06:195,-0.6451,1.9124,6.9277,47.9133,0.3774,0.0521,-0.3034,161.4688
20:23:06:214,-0.5422,1.8693,6.9409,48.1812,0.4272,-0.0441,-0.2432,161.9844
20:23:06:236,-0.4859,1.7256,7.5682,48.1455,0.5326,-0.1607,-0.1886,162.3906
20:23:06:254,-0.3027,2.001,8.1763,48.9647,0.7145,-0.2094,-0.1612,162.7344
20:23:06:275,-0.0681,2.3385,7.6328,48.4675,0.8386,-0.1665,-0.1127,163.0156
20:23:06:297,0.0612,2.7001,7.1193,48.7146,0.8298,-0.1034,-0.0768,163.3125
20:23:06:315,-0.043,3.1095,7.3012,47.9897,0.6666,-0.0518,-0.0608,163.5938
20:23:06:340,-0.438,3.3465,8.0817,47.8184,0.4392,-0.0259,-0.0571,163.7812
20:23:06:357,-0.8319,3.4842,9.0574,48.5597,0.2181,0.0084,-0.0227,164.0156
20:23:06:374,-0.8606,3.5033,9.5829,47.042,0.0509,-0.0166,0.0468,164.0781
20:23:06:395,-0.6894,3.2914,10.2832,49.5676,-0.1494,-0.1357,0.1014,164.1562
20:23:06:419,-0.614,2.9874,10.9356,47.5152,-0.3364,-0.3189,0.0966,164.1406
20:23:06:434,-1.021,2.6689,10.64,47.6264,-0.4029,-0.4273,0.0173,164.0781
20:23:06:455,-1.2987,2.2009,10.0354,47.6309,-0.4602,-0.2909,-0.0107,163.9844
20:23:06:474,-1.2425,1.4934,10.1647,46.7442,-0.6314,-0.1117,0.0268,163.9844
20:23:06:502,-0.7325,0.7919,11.0649,48.5886,-0.8232,-0.0848,0.0545,164.0625
20:23:06:519,-0.5601,0.234,12.2584,47.1095,-0.8519,-0.1466,-0.0155,164.0781
20:23:06:535,-1.3263,0.562,12.5158,49.0681,-0.576,-0.1791,-0.1947,164
20:23:06:554,-2.1595,1.57,10.5131,46.4306,-0.0685,-0.0323,-0.3058,163.9062
20:23:06:574,-2.3737,2.3888,7.9932,49.4121,0.2221,0.2476,-0.2057,164.0156
20:23:06:598,-2.029,2.6115,6.9601,47.6789,0.0354,0.4175,0.0018,164.3438
20:23:06:614,-1.8183,2.2476,7.8723,47.1185,-0.4352,0.3456,0.1539,164.6875
20:23:06:634,-1.8051,1.7256,9.5733,48.3831,-0.8306,0.1387,0.229,164.5938
20:23:06:655,-1.258,1.4814,10.8087,47.2711,-0.9305,-0.1162,0.3017,164.3281
20:23:06:674,-0.5458,1.564,10.6471,45.29,-0.7414,-0.3072,0.3262,163.9844
20:23:06:699,-0.2381,1.9064,9.3615,45.9717,-0.4208,-0.3311,0.2719,163.5781
20:23:06:716,-0.2405,2.2512,7.9561,47.4261,-0.1843,-0.2281,0.2164,163.2188
20:23:06:734,-0.2477,2.4379,7.1277,45.4046,-0.1044,-0.1178,0.1965,162.9531
20:23:06:754,-0.0909,2.4331,6.923,46.9072,-0.1041,-0.0885,0.2005,162.7344
20:23:06:775,-0.1004,2.3792,7.2653,47.5774,-0.0999,-0.1303,0.1893,162.5312
20:23:06:800,-0.1292,2.4822,7.324,45.5986,-0.0043,-0.146,0.173,162.3125
20:23:06:815,-0.0286,2.7085,6.9624,45.7859,0.1233,-0.0907,0.1877,162.1094
20:23:06:835,0.0312,2.9299,6.5626,47.1126,0.2,-0.043,0.1986,162.0312
20:23:06:854,0.1222,3.0688,6.7554,45.0145,0.1515,-0.0094,0.2063,161.8438
20:23:06:874,0.1557,3.0843,7.5,46.1142,0.0421,-0.006,0.188,161.6562
20:23:06:898,0.2096,3.1406,8.2709,46.4911,-0.0149,-0.0619,0.148,161.4375
20:23:06:915,0.1462,3.3537,8.8946,46.4911,0.0248,-0.1604,0.0897,161.1094
20:23:06:934,0.1881,3.702,8.8431,46.4536,0.1441,-0.1729,0.0588,160.9531
20:23:06:955,0.3676,3.9965,8.4971,45.2496,0.0794,0.1363,0.0979,160.8906
20:23:06:974,0.5807,3.8912,8.8922,45.2496,-0.2232,0.2726,0.0913,160.8594
20:23:06:998,0.7699,3.143,10.8279,46.49,-0.4658,0.2644,0.0199,160.7969
20:23:07:015,0.8752,2.4319,14.0972,44.0944,-0.3089,0.116,-0.1013,160.6562
20:23:07:034,0.7686,2.0931,15.5241,46.6664,0.131,0.0018,-0.2046,160.5
20:23:07:054,0.7507,2.311,13.8051,44.1838,0.2541,-0.0542,-0.2395,160.4062
20:23:07:073,1.1565,2.3661,12.5517,44.6103,0.0392,-0.0134,-0.2901,160.4844
20:23:07:094,0.9829,1.8956,12.9671,45.2253,-0.1108,0.0401,-0.3681,160.7188
20:23:07:118,0.4215,1.4084,13.5214,45.5101,-0.0381,0.0417,-0.4118,161.0156
20:23:07:133,0.1785,1.4048,12.8163,46.1974,0.0945,-0.0355,-0.4209,161.3438
20:23:07:153,0.2503,1.6586,11.1607,43.9187,0.1028,-0.0566,-0.4097,162.2031
20:23:07:174,0.2671,1.7639,9.8523,43.9692,-0.0053,0.0313,-0.3886,162.4531
20:23:07:198,0.2575,1.5844,9.1364,43.304,-0.1151,0.1189,-0.3718,163.1562
20:23:07:213,0.3138,1.3641,8.7761,45.1223,-0.1523,0.1296,-0.391,163.3906
20:23:07:236,0.2719,1.1618,8.6312,44.8012,-0.089,0.0894,-0.4299,163.8125
20:23:07:253,0.2036,1.078,8.5139,42.9922,0.0655,0.0694,-0.4664,164.1719
20:23:07:274,0.1797,1.1462,8.1093,42.6957,0.2304,0.1197,-0.5074,164.3906
20:23:07:296,-0.1184,1.2073,7.6855,44.8176,0.3814,0.1552,-0.5069,164.8594
20:23:07:314,-0.2429,1.327,7.3635,43.9446,0.5297,0.1243,-0.485,165.3906
20:23:07:335,-0.3087,1.4623,6.7182,44.4327,0.6051,0.0585,-0.4371,165.9375
20:23:07:354,-0.1483,1.6035,6.3675,43.4477,0.5992,0.0004,-0.3777,166.5156
20:23:07:374,0.0636,1.8082,6.2095,44.2615,0.5457,-0.0017,-0.325,167.0938
20:23:07:397,0.2671,2.0369,6.5626,45.0397,0.4719,0.0862,-0.2888,167.6094
20:23:07:415,0.2084,2.1997,7.5323,43.6845,0.4621,0.181,-0.2741,168.0938
20:23:07:433,-0.1543,2.5433,8.2841,43.6579,0.4903,0.2233,-0.2203,168.8594
20:23:07:454,-0.2656,3.0484,8.1045,41.2271,0.4165,0.2196,-0.1559,169.0156
20:23:07:475,-0.0801,3.477,7.8304,44.1975,0.1412,0.1496,-0.1183,169.2969
20:23:07:496,0.4407,3.398,8.2254,43.0472,-0.179,-0.0337,-0.2043,169.5156
20:23:07:513,0.3928,3.1729,9.389,41.2673,-0.391,-0.2563,-0.338,169.6406
20:23:07:534,-0.3351,3.0532,10.531,42.1398,-0.4213,-0.3865,-0.3359,169.7812
20:23:07:553,-0.7648,2.7934,11.3031,44.3554,-0.3507,-0.3192,-0.2893,170.1094
20:23:07:574,-1.112,2.3637,11.2182,42.8732,-0.2959,-0.1932,-0.2568,170.5469
20:23:07:597,-1.5358,1.7831,11.035,41.5387,-0.2937,-0.0414,-0.2102,170.9219
20:23:07:616,-2.1666,1.3557,10.8818,41.0212,-0.3209,0.1118,-0.1638,171.25
20:23:07:637,-2.77,1.1618,10.865,42.2152,-0.4314,0.2305,-0.1234,171.5156
20:23:07:659,-2.8538,0.7404,12.1291,42.5514,-0.6669,0.2529,-0.0184,171.6875
20:23:07:682,-2.7532,0.6746,13.3382,40.8494,-0.7087,-0.0638,0.0404,171.7812
20:23:07:699,-2.916,1.1295,12.4428,41.9255,-0.3918,-0.4057,0.0476,171.7656
20:23:07:716,-3.0728,1.6514,10.4496,42.4994,-0.0021,-0.3642,0.1405,171.6406
20:23:07:733,-3.3206,1.7891,8.4983,43.9344,0.1491,-0.0259,0.3179,171.6094
20:23:07:754,-2.4815,1.7208,7.4437,41.9543,0.004,0.2268,0.5858,171.5469
20:23:07:774,-1.3035,1.4263,7.5119,42.7146,-0.3004,0.1695,0.7773,171.3438
20:23:07:794,-0.4716,1.3282,8.1548,43.5826,-0.5103,-0.1234,0.7813,170.8594
20:23:07:815,-0.3399,1.3833,8.6192,41.7615,-0.4788,-0.3439,0.6721,170
20:23:07:834,0.0348,1.7975,7.9417,42.6051,-0.208,-0.3053,0.5912,169.0312
20:23:07:854,-0.0765,2.1853,6.9194,43.1344,0.1103,-0.0654,0.4979,168.1875
20:23:07:874,-0.2142,2.5624,6.1808,41.7338,0.3137,0.1285,0.4447,167.5469
20:23:07:898,-0.11,2.803,5.8982,43.0054,0.3981,0.2044,0.4316,166.9531
20:23:07:916,-0.049,2.9802,6.0682,42.6243,0.4083,0.2281,0.4378,166.4219
20:23:07:934,0.0935,3.1801,6.4944,44.0426,0.3758,0.2582,0.4553,165.9531
20:23:07:954,0.3305,3.2962,7.4772,41.0587,0.3047,0.32,0.4716,165.4531
20:23:07:974,0.2731,3.3549,8.4133,42.5905,0.2541,0.4036,0.4503,164.9219
20:23:07:993,0.1641,3.4171,8.9556,41.9612,0.2748,0.4854,0.4039,164.3906
20:23:08:015,0.2228,3.5871,9.3088,42.4698,0.3009,0.5259,0.3629,163.5312
20:23:08:034,0.3197,3.8158,9.8642,41.2538,0.2892,0.4644,0.315,163
20:23:08:056,0.3018,3.8062,10.5801,43.0954,0.2365,0.3656,0.2473,162.5312
20:23:08:073,0.1294,3.7308,11.2014,42.3827,0.1678,0.1946,0.1643,162.1094
20:23:08:095,0.1857,3.4255,12.1974,43.2871,0.0858,-0.0733,0.0686,161.7656
20:23:08:115,0.3497,3.3489,13.0413,41.7885,0.0722,-0.3021,-0.0381,161.5625
20:23:08:137,0.4993,3.5105,12.6678,45.0221,0.1891,-0.4856,-0.1623,161.5156
20:23:08:153,0.6968,3.8062,11.8263,42.4047,0.2575,-0.554,-0.2555,161.625
20:23:08:174,0.8644,3.5644,11.4767,42.5707,0.1579,-0.5562,-0.3197,161.9219
20:23:08:198,1.0835,2.9395,12.0358,43.1846,-0.0402,-0.4995,-0.3985,162.3438
20:23:08:259,1.1206,2.4918,12.4308,42.3002,-0.11,-0.4691,-0.5202,162.8438
20:23:08:259,0.874,2.4307,12.0382,43.1931,-0.0045,-0.4369,-0.6674,163.4062
20:23:08:259,0.3736,2.4822,10.6196,41.8246,0.1603,-0.3516,-0.7889,163.7188
20:23:08:278,-0.116,2.4882,9.3124,41.9955,0.1662,-0.2504,-0.8147,164.4531
20:23:08:299,-0.7756,2.2452,9.3974,43.3397,-0.0498,-0.1399,-0.7945,165.3906
20:23:08:314,-0.8702,1.7436,10.2545,44.1085,-0.2945,-0.1354,-0.6991,166.3906
20:23:08:335,-0.7062,1.5137,10.0067,43.0241,-0.277,-0.312,-0.6416,167.7812
20:23:08:355,-0.6116,1.7208,8.7234,42.9252,-0.0791,-0.512,-0.6387,168.5781
20:23:08:374,-0.7696,1.9471,7.2737,43.8539,0.168,-0.407,-0.5806,169.3594
20:23:08:394,-0.9564,2.0261,6.6835,43.5563,0.1784,-0.1836,-0.4517,169.3594
20:23:08:414,-0.8486,1.9639,6.9098,42.8761,0.2927,-0.1263,-0.3668,170.1406
20:23:08:436,-0.8067,1.9507,6.6368,43.4452,0.3787,-0.1652,-0.3204,171.75
20:23:08:453,-0.8355,2.0728,6.6572,43.9958,0.457,-0.2062,-0.2797,172.2812
20:23:08:473,-1.0402,2.3026,6.5866,43.8165,0.4836,-0.1471,-0.186,172.75
20:23:08:493,-0.9779,2.5145,6.5183,43.7156,0.4416,-0.108,-0.0592,173.1719
20:23:08:513,-0.5601,2.5624,6.6548,42.3191,0.343,-0.1311,0.026,173.5625
20:23:08:533,-0.1591,2.5983,7.1169,41.8259,0.2469,-0.1396,0.0612,173.8281
20:23:08:552,0.0001,2.7504,7.7346,41.6021,0.1814,-0.1024,0.0694,173.9375
20:23:08:573,-0.1819,3.0592,8.4145,43.4752,0.1651,-0.0078,0.1022,173.9375
20:23:08:593,-0.4716,3.2316,8.5486,43.0036,0.0815,0.1165,0.1725,173.9219
20:23:08:614,-0.5877,3.2735,8.7318,43.7312,-0.142,0.2044,0.2388,173.8594
20:23:08:633,-0.7936,2.8329,9.5207,42.9916,-0.4264,0.2444,0.2838,173.6875
20:23:08:653,-0.8977,2.2775,11.1786,42.4236,-0.5957,0.1874,0.2692,173.4375
20:23:08:674,-1.2473,1.7603,12.5517,43.6996,-0.5694,0.1357,0.2615,173.0469
20:23:08:695,-1.6746,1.5832,12.5302,42.9869,-0.5358,0.2635,0.3603,172.6406
20:23:08:717,-1.4735,1.0553,11.5498,42.9,-0.6895,0.3648,0.4695,172.2969
20:23:08:738,-0.9923,0.3538,11.7664,44.8025,-0.8253,0.2146,0.4897,172.125
20:23:08:755,-0.2992,0.0329,12.5122,43.0133,-0.6839,-0.0875,0.3805,171.625
20:23:08:773,-0.2453,0.6015,11.8167,42.942,-0.4559,-0.1809,0.2788,170.9688
20:23:08:793,-0.8702,1.5365,10.0689,43.5924,-0.4389,0.1069,0.2964,170.3438
20:23:08:814,-2.1774,1.7041,9.1089,43.8695,-0.665,0.4886,0.5299,169.8906
20:23:08:833,-2.5294,1.2671,9.772,42.926,-0.8384,0.4939,0.801,169.5625
20:23:08:853,-1.7249,0.6578,10.4688,42.8328,-0.8011,0.1211,0.9158,169.2031
20:23:08:873,-0.5745,0.5537,10.3275,42.413,-0.592,-0.2917,0.8692,167.9688
20:23:08:893,0.1605,0.7787,9.3662,41.7261,-0.3132,-0.4379,0.7821,166.8594
20:23:08:916,0.5185,1.23,8.1129,43.0014,-0.0722,-0.2739,0.7131,165.8438
20:23:08:934,0.625,1.5101,7.3874,42.0954,0.143,0.026,0.6716,164.9375
20:23:08:953,0.6956,1.6945,7.0654,42.0954,0.3779,0.2518,0.6218,164.125
20:23:08:974,0.704,1.9794,6.3795,42.152,0.5137,0.3669,0.5723,163.3594
20:23:09:001,0.8094,2.3002,5.9306,45.204,0.4993,0.4042,0.5201,162.6406
20:23:09:016,0.7734,2.5576,6.2394,41.3523,0.4192,0.4433,0.4801,161.9375
20:23:09:034,0.4993,2.8234,7.172,43.2513,0.4016,0.4582,0.4676,161.2656
20:23:09:054,-0.207,3.2878,8.3882,42.143,0.3742,0.4162,0.5035,160.6875
20:23:09:075,-0.2477,3.4315,8.879,43.958,0.2879,0.3102,0.5408,160.0938
20:23:09:103,-0.0107,3.4985,9.8403,42.9452,0.1539,0.1008,0.5552,159.4844
20:23:09:114,0.4359,3.6182,10.3694,44.6025,0.1087,-0.1122,0.5416,158.875
20:23:09:133,1.1326,3.6949,10.877,43.0368,0.1326,-0.1551,0.5017,158.2031
20:23:09:153,1.6198,3.6111,11.6467,42.7248,0.1561,-0.06,0.4135,157.5938
20:23:09:173,1.7227,3.5237,12.4559,43.4932,0.2234,0.083,0.2625,157.0312
20:23:09:192,1.8185,3.6913,12.3626,42.989,0.3443,0.2119,0.1038,156.5469
20:23:09:216,1.6054,3.8684,11.6395,44.4527,0.3758,0.1805,-0.0547,156.1562
20:23:09:233,0.8596,3.5847,11.2684,43.4832,0.1518,0.1216,-0.1644,155.9219
20:23:09:253,0.6525,2.5744,12.5026,44.3591,-0.3009,0.092,-0.1521,155.8906
20:23:09:272,0.9805,1.2288,14.6718,43.2719,-0.6834,0.0414,-0.0959,156
20:23:09:293,1.8269,0.7081,15.341,44.7416,-0.5963,-0.174,-0.1476,156.1875
20:23:09:317,1.9239,1.1331,13.1958,43.9917,-0.1041,-0.5042,-0.3737,156.2656
20:23:09:335,1.6402,1.7675,9.9708,45.4177,0.298,-0.6193,-0.6054,156.3594
20:23:09:353,1.5791,1.9627,8.6121,45.5538,0.2581,-0.3847,-0.6968,156.6719
20:23:09:373,1.1529,1.819,8.5151,44.9085,0.017,-0.0571,-0.7588,157.375
20:23:09:393,0.5795,1.6035,8.1201,44.4784,-0.0812,0.0497,-0.8544,158.2031
20:23:09:414,0.121,1.5365,7.6448,45.7533,-0.0652,-0.011,-0.9175,159.0781
20:23:09:434,-0.0669,1.485,7.5227,45.9795,-0.0091,-0.1069,-0.9173,160
20:23:09:453,0.0241,1.5664,7.4006,45.3062,0.0916,-0.1439,-0.8728,161.4844
20:23:09:473,0.2012,1.661,6.8858,46.2421,0.2349,-0.116,-0.8174,162.5469
20:23:09:493,0.1078,1.7603,6.4561,45.2207,0.3326,-0.0957,-0.7841,163.5938
20:23:09:519,-0.0681,1.9459,6.3076,46.2482,0.3523,-0.1309,-0.7511,164.5
20:23:09:536,-0.2645,2.0848,6.8643,46.3126,0.3161,-0.1836,-0.6981,165.4375
20:23:09:553,-0.6296,2.3194,7.4808,46.8635,0.3183,-0.1682,-0.6427,166.3594
20:23:09:573,-0.8438,2.6079,7.6233,46.8432,0.3981,-0.113,-0.5636,167.1719
20:23:09:593,-0.8044,2.7994,7.8531,46.1122,0.4328,-0.0419,-0.4323,167.9531
20:23:09:618,-0.7565,2.8521,8.4002,46.937,0.3747,0.0289,-0.2842,168.6562
20:23:09:634,-0.4153,2.7695,9.4189,47.073,0.2748,0.0151,-0.15,169.1875
20:23:09:653,-0.2178,2.7994,10.1443,46.8468,0.2477,-0.1141,-0.0749,169.5
20:23:09:683,-0.4129,2.9778,10.3706,48.6619,0.2922,-0.2382,-0.0608,169.7031
20:23:09:699,-0.4536,3.1717,10.0845,48.6736,0.2162,-0.154,0.0655,169.9531
20:23:09:717,-0.6667,3.1047,9.7625,48.3836,0.0354,-0.0382,0.1677,170
20:23:09:736,-0.778,2.8521,10.1587,49.0989,-0.1377,0.0926,0.2388,170
20:23:09:756,-1.0366,2.311,10.1994,49.5859,-0.3193,0.1698,0.2979,169.8281
20:23:09:774,-1.2293,1.8394,10.0618,49.045,-0.5704,0.1743,0.352,169.8281
20:23:09:794,-1.4352,1.1319,10.0701,52.5339,-0.8922,0.0737,0.4282,169.5312
20:23:09:815,-1.1551,0.3094,11.3917,49.4868,-1.0469,-0.0792,0.4644,169.125
20:23:09:835,-0.3303,-0.3897,13.3346,49.3444,-0.771,-0.2057,0.3222,168.6562
20:23:09:853,-0.2166,-0.1754,13.3849,49.7418,-0.2578,-0.1567,0.1296,168.125
20:23:09:873,-1.2006,0.6267,11.1188,51.2615,0.017,0.1307,0.143,167.5469
20:23:09:893,-2.114,0.9738,8.7007,50.4075,-0.1425,0.4169,0.3421,167.1719
20:23:09:917,-1.9141,0.8841,7.8543,52.4087,-0.5129,0.3251,0.5291,167.0469
20:23:09:934,-1.0845,0.7213,8.6396,50.6637,-0.7047,-0.056,0.5419,166.8594
20:23:09:954,-0.541,0.7524,9.638,50.6843,-0.5555,-0.2773,0.5001,166.375
20:23:09:973,-0.1364,1.1558,9.4512,52.7129,-0.2272,-0.1679,0.4601,165.6875
20:23:09:993,-0.0813,1.5832,8.1775,51.7916,0.0072,0.1014,0.4631,164.5156
20:23:10:017,0.0264,1.898,6.9972,53.906,0.0772,0.2356,0.4652,164
20:23:10:037,0.0288,2.068,6.4046,50.7904,0.0599,0.1733,0.45,163.7656
20:23:10:054,-0.1292,2.1829,6.2203,51.1112,-0.0013,0.0476,0.4729,163.2031
20:23:10:073,0.0205,2.2535,6.6524,50.4189,-0.0296,-0.0201,0.5195,162.6406
20:23:10:093,0.3269,2.329,7.3527,51.2083,0.0352,0.0217,0.5328,161.8594
20:23:10:116,0.4239,2.5169,7.7801,51.6898,0.0948,0.1578,0.5299,161.8594
20:23:10:132,0.3952,2.6965,8.2278,54.0908,0.1555,0.3051,0.5099,161.2656
20:23:10:153,0.2719,2.8725,8.4888,52.3858,0.1696,0.4372,0.4916,160.6562
20:23:10:172,0.0348,2.979,8.8623,52.1035,0.1281,0.4652,0.4884,160.0156
20:23:10:194,-0.2429,3.046,9.5422,53.5613,0.0847,0.2859,0.5174,159.1094
20:23:10:219,-0.1615,3.1969,10.2389,53.8722,0.1121,-0.0158,0.5539,158.4844
20:23:10:235,0.3676,3.2495,10.6268,52.7605,0.1617,-0.1029,0.5808,157.875
20:23:10:253,1.3193,3.2938,10.8985,53.609,0.2077,0.0156,0.5288,157.2344
20:23:10:318,1.9706,3.2172,11.0637,54.7817,0.2056,0.2316,0.4098,156.6094
20:23:10:318,2.1776,3.0269,11.9843,54.0114,0.2661,0.3445,0.2492,155.9844
20:23:10:318,2.3692,3.2148,12.4931,53.6409,0.4072,0.1964,0.0513,155.4531
20:23:10:335,2.3309,3.4375,11.7257,53.8178,0.3659,-0.0353,-0.125,155.0312
20:23:10:353,1.961,3.6099,11.1643,54.2674,0.1076,-0.3074,-0.2347,154.8125
20:23:10:375,1.5707,3.1454,11.2397,54.5514,-0.2091,-0.4531,-0.2856,154.8594
20:23:10:392,1.6928,2.3792,12.4643,55.0772,-0.2977,-0.5128,-0.3876,155.125
20:23:10:414,1.87,1.8597,13.361,55.5852,-0.0631,-0.5879,-0.579,155.5156
20:23:10:436,1.3672,2.0081,12.4643,55.3912,0.2128,-0.5913,-0.7194,155.9531
20:23:10:455,0.8189,2.5624,8.8072,55.1618,0.2269,-0.4893,-0.7269,156.5625
20:23:10:474,0.9506,2.2715,8.46,55.0629,-0.0242,-0.3743,-0.6896,156.9844
20:23:10:494,0.965,1.7484,9.0741,55.1878,-0.3265,-0.3221,-0.692,158.4062
20:23:10:519,0.6621,1.3893,9.2812,54.9096,-0.4155,-0.3708,-0.7628,159.2656
20:23:10:538,0.2755,1.254,9.0861,54.3719,-0.2887,-0.3847,-0.8315,160.0938
20:23:10:553,-0.0298,1.3018,8.4768,55.4286,-0.053,-0.2457,-0.8613,160.9844
20:23:10:575,-0.2956,1.4515,7.6807,55.5334,0.1723,-0.0153,-0.8517,161.9062
20:23:10:592,-0.6367,1.6789,7.0738,54.3518,0.3369,0.144,-0.8315,162.9375
20:23:10:613,-1.0378,1.8872,6.9469,54.1235,0.4394,0.1935,-0.7873,163.9531
20:23:10:637,-0.966,1.995,6.9732,56.1383,0.5036,0.2271,-0.6765,164.9062
20:23:10:656,-0.7457,2.0656,6.9732,56.2673,0.5574,0.2428,-0.5511,165.7812
20:23:10:674,-0.4691,2.1614,7.1372,56.6674,0.5571,0.2044,-0.4395,166.6094
20:23:10:693,-0.1866,2.2272,7.5359,56.7375,0.5129,0.1395,-0.3556,167.2812
20:23:10:718,-0.0693,2.4056,7.8806,56.1153,0.4807,0.124,-0.2877,167.7969
20:23:10:735,-0.0574,2.7575,7.9189,56.0748,0.4535,0.1333,-0.2312,168.25
20:23:10:759,-0.3004,2.9742,8.0901,55.683,0.3361,0.1149,-0.1628,168.7656
20:23:10:771,-0.5506,2.9036,8.7785,55.9992,0.1241,0.0763,-0.068,169.0156
20:23:10:793,-0.5625,2.56,9.9887,56.4299,-0.1097,0.0486,0.0457,169.2031
20:23:10:819,-0.6942,2.0548,11.2636,57.1795,-0.2312,0.0787,0.128,169.2656
20:23:10:836,-0.9684,1.6047,11.5665,55.2454,-0.2064,0.2098,0.1613,169.2031
20:23:10:854,-1.5717,1.5401,10.9692,56.2328,-0.1726,0.2774,0.1595,169.0312
20:23:10:873,-1.7692,1.4838,10.8064,55.9064,-0.2948,0.2359,0.1967,168.7812
20:23:10:898,-1.8039,1.0493,11.4001,55.1543,-0.51,0.1,0.2543,168.5312
20:23:10:918,-1.4137,0.75,11.6659,55.6508,-0.5838,-0.0414,0.3073,168.25
20:23:10:937,-0.9061,0.8709,11.205,56.625,-0.4791,-0.1072,0.3185,168.0781
20:23:10:953,-0.9288,1.4048,10.4077,55.9918,-0.3337,-0.1402,0.2524,167.7031
20:23:10:973,-1.264,1.9471,9.2884,55.6508,-0.2181,-0.1109,0.2085,167.3438
20:23:10:994,-1.6399,2.0093,8.2793,55.0807,-0.2431,0.0614,0.27,167
20:23:11:018,-1.6423,1.5676,8.4684,55.3398,-0.4772,0.2675,0.4013,166.7656
20:23:11:038,-1.3957,1.0732,9.6799,55.3398,-0.7742,0.3104,0.511,166.5
20:23:11:054,-0.8977,0.9607,10.3874,55.5889,-0.8533,0.1357,0.5472,165.7969
20:23:11:073,-0.5194,1.2037,9.6356,56.2768,-0.6679,-0.1343,0.5033,165.0938
20:23:11:094,-0.1352,1.5413,8.4205,54.74,-0.4288,-0.2491,0.4612,164.3906
20:23:11:117,0.1534,1.6658,8.0039,56.0017,-0.2924,-0.1378,0.4423,163.8281
20:23:11:134,0.1342,1.7831,7.8603,55.9891,-0.1814,0.0145,0.4069,163.3125
20:23:11:153,-0.0382,1.9471,7.7334,56.4266,-0.0155,0.0582,0.3528,162.8125
20:23:11:173,0.0947,2.1805,7.1396,56.4459,0.1699,0.0335,0.3366,162.3594
20:23:11:194,0.1186,2.5133,6.7099,55.5722,0.2828,-0.0177,0.332,161.9531
20:23:11:221,0.2096,2.7659,6.9421,57.6677,0.2296,0.0199,0.3885,161.75
20:23:11:236,0.3593,2.8784,7.403,56.8235,0.1963,0.035,0.3957,161.2188
20:23:11:256,0.3305,2.9215,7.9848,55.1402,0.1649,0.0284,0.3933,160.8281
20:23:11:272,0.2814,2.9275,8.5031,56.088,0.1465,-0.0185,0.3928,160.3906
20:23:11:292,0.3688,2.9527,8.9784,56.1446,0.127,-0.096,0.385,159.9375
20:23:11:311,0.643,3.1945,9.3255,55.1231,0.1089,-0.227,0.356,159.5156
20:23:11:336,0.9135,3.4267,9.5685,54.3879,0.0461,-0.2781,0.3358,159.0781
20:23:11:356,1.2738,3.4913,9.9911,56.8805,-0.086,-0.1831,0.3054,158.3125
20:23:11:372,1.4833,3.076,11.29,55.3674,-0.1497,-0.08,0.258,158.3125
20:23:11:392,1.925,2.4918,12.8929,55.0628,-0.008,-0.0891,0.0985,157.9844
20:23:11:416,2.2207,2.3972,13.9727,55.2969,0.3633,-0.2204,-0.1652,157.6562
20:23:11:433,1.5983,2.961,12.863,54.7858,0.64,-0.2076,-0.3002,157.375
20:23:11:452,1.2176,3.7571,10.7082,56.4628,0.4591,-0.0294,-0.2547,157.2812
20:23:11:472,1.4342,3.8457,10.0594,54.6688,0.0578,0.0018,-0.1865,157.5156
20:23:11:495,1.8987,3.1633,11.193,55.1688,-0.1566,-0.0925,-0.264,158.0938
20:23:11:518,2.2243,2.6702,12.3638,55.4272,-0.078,-0.2206,-0.4824,158.3281
20:23:11:536,1.6174,2.6283,12.0466,55.0655,0.0535,-0.2433,-0.6312,158.5625
20:23:11:553,1.0751,2.6989,10.968,56.3415,0.0668,-0.1373,-0.6464,159
20:23:11:572,0.7291,2.5397,9.772,54.8757,-0.0842,0.005,-0.6067,159.6719
20:23:11:593,0.5819,2.1039,9.31,52.991,-0.3089,0.0502,-0.5681,160.4688
20:23:11:618,0.7531,1.5939,10.0929,53.0394,-0.3113,-0.0843,-0.6139,161.1875
20:23:11:637,0.6884,1.3198,10.118,54.292,-0.0791,-0.2491,-0.7031,161.8125
20:23:11:659,0.5544,1.3976,8.8084,54.7118,0.1321,-0.2395,-0.7604,162.4688
20:23:11:672,0.388,1.509,7.3874,52.8569,0.1848,-0.0403,-0.7756,163.25
20:23:11:694,0.1917,1.6382,6.6871,54.1256,0.1854,0.1522,-0.7609,163.6875
20:23:11:719,-0.0813,1.6921,6.2274,54.12,0.1739,0.2404,-0.7125,164.5625
20:23:11:740,-0.3913,1.5269,6.9924,54.4762,0.2677,0.2233,-0.6363,165.4531
20:23:11:759,-0.5278,1.5497,7.16,53.9914,0.4005,0.1773,-0.5575,166.3125
20:23:11:772,-0.4404,1.8693,6.7853,54.2708,0.4285,0.1323,-0.4888,167.0469
20:23:11:793,-0.4967,2.1231,6.5638,54.8318,0.3276,0.0987,-0.4033,168.0781
20:23:11:823,-1.0797,1.9399,6.7841,53.3706,0.1955,0.039,-0.2355,168.6562
20:23:11:839,-0.2249,2.5301,8.0674,54.3034,0.1569,-0.1061,-0.142,169.1562
20:23:11:856,0.3593,1.971,8.7114,52.4843,0.1361,-0.1197,-0.2286,169.5312
20:23:11:872,0.364,2.5373,10.3107,54.2616,0.0112,-0.0518,-0.243,169.7344
20:23:11:893,-0.5398,2.1709,11.5473,55.8576,-0.0743,0.0872,-0.2757,169.9844
20:23:11:918,-1.9069,1.2025,11.934,52.9585,-0.0959,0.3059,-0.2571,170.25
20:23:11:938,-2.5665,1.1091,11.8359,54.5167,-0.1065,0.3482,-0.1481,170.5469
20:23:11:954,-2.9088,1.5832,10.8494,52.1034,-0.1366,0.2979,-0.0272,170.8281
20:23:11:971,-3.6139,1.3976,9.9325,54.0793,-0.3579,0.3672,0.091,170.9688
20:23:11:992,-3.6523,0.2628,10.4281,52.6722,-0.8322,0.4361,0.3017,171
20:23:12:011,-1.8722,-0.2951,11.9975,53.0113,-1.2299,0.2004,0.5496,170.8906
20:23:12:035,-0.2692,-0.8793,12.195,52.5919,-1.1683,-0.2656,0.535,170.5781
20:23:12:052,-0.8295,-0.3932,11.2469,53.6934,-0.7734,-0.5937,0.1661,169.9219
20:23:12:072,-2.3462,1.0313,10.0641,52.5258,-0.326,-0.6467,-0.0661,168.8594
20:23:12:092,-3.6187,1.1462,8.5845,53.2675,-0.1289,-0.1274,0.1043,168.7031
20:23:12:112,-2.363,1.0648,8.1033,54.664,-0.2559,0.4715,0.6266,168.8594
20:23:12:136,-0.6906,0.7225,8.5343,54.0561,-0.5044,0.6308,0.9848,168.875
20:23:12:154,0.1761,0.4256,8.6228,52.9872,-0.6234,0.3107,1.0178,168.4375
20:23:12:172,0.6717,0.8482,8.4277,52.9818,-0.5886,-0.2291,0.8833,167.4062
20:23:12:192,1.2619,1.6526,8.3236,53.2289,-0.4823,-0.5519,0.7134,166.1094
20:23:12:212,0.868,1.4802,8.1081,53.9555,-0.3401,-0.4592,0.5328,164.9531
20:23:12:232,-0.0981,0.9774,7.5443,53.5979,-0.1497,-0.2076,0.3632,164.125
20:23:12:252,0.3197,1.922,7.4593,51.8591,-0.0125,0.0031,0.4346,163.1875
20:23:12:272,0.1701,2.1626,7.3982,52.9679,0.1095,0.1192,0.4625,162.7812
20:23:12:293,-0.2788,2.2859,7.9225,52.144,0.1675,0.1522,0.4527,162.3125
20:23:12:319,0.0648,2.7336,9.1077,53.837,0.1846,0.2106,0.54,161.7656
20:23:12:371,0.5963,2.7899,10.118,53.7083,0.2714,0.356,0.5938,161.2344
20:23:12:371,0.479,2.2104,10.0605,53.1194,0.4575,0.5871,0.5339,160.6094
20:23:12:372,0.3389,1.8992,9.8151,52.8111,0.6139,0.7195,0.4886,159.9219
20:23:12:392,1.1625,2.5229,9.8199,53.0868,0.5854,0.7456,0.5294,159.2656
20:23:12:413,1.5276,3.1693,10.4508,53.4248,0.4639,0.5986,0.4423,158.6406
20:23:12:437,1.0895,3.2603,10.9871,52.3132,0.4802,0.2846,0.229,158
20:23:12:454,1.0799,3.3908,12.11,53.1216,0.4863,0.1083,0.0993,157.4375
20:23:12:474,1.354,3.3704,13.4184,52.9408,0.4847,0.3123,-0.0033,157.1719
20:23:12:491,1.1122,3.2411,13.2029,53.6589,0.6597,0.6108,-0.1292,157.0781
20:23:12:513,0.7627,3.6039,12.1208,53.6052,0.8573,0.7453,-0.232,157.0625
20:23:12:538,0.2,3.5177,11.4432,54.002,0.7223,0.8223,-0.3252,157.0938
20:23:12:556,-0.0071,2.6139,11.7748,52.5086,0.065,0.43,-0.55,157.375
20:23:12:573,0.6573,2.4858,13.009,52.6231,0.11,0.1083,-0.9047,157.6406
20:23:12:592,0.9554,1.8753,12.8366,53.4989,0.4953,-0.2049,-1.301,158.0312
20:23:12:611,0.2946,1.1833,10.4221,54.611,0.7308,-0.3591,-1.3245,158.5781
20:23:12:636,-0.0921,1.6957,8.5271,51.7563,0.6828,-0.3242,-1.1157,161.1406
20:23:12:654,-0.1854,2.0201,7.6257,53.2308,0.2959,0.1376,-0.8877,162.8281
20:23:12:671,0.2539,1.7903,7.804,52.1073,-0.0804,0.3858,-0.8699,162.8281
20:23:12:691,0.856,1.6023,8.2625,51.6876,-0.2027,0.1229,-1.1271,164.2031
20:23:12:711,0.4335,0.8745,8.1727,54.0604,-0.175,-0.296,-1.3756,165.2344
20:23:12:735,-0.2297,0.6758,7.9692,53.1853,-0.0804,-0.5948,-1.4667,166.125
20:23:12:753,-0.9049,0.7476,7.8723,54.1892,0.0373,-0.6584,-1.3839,167.375
20:23:12:771,-1.2736,0.9391,7.7717,53.7753,0.2011,-0.6057,-1.2206,168.8906
20:23:12:791,-1.3335,1.2384,7.4329,50.9538,0.3902,-0.5418,-1.0273,170.6719
20:23:12:813,-1.3801,1.4527,7.3671,52.0554,0.5276,-0.3378,-0.8083,173.1875
20:23:12:837,-1.0845,1.4599,7.5023,52.3179,0.5875,0.0289,-0.6182,174.5625
20:23:12:853,-1.0198,1.4982,7.6987,51.9946,0.7159,0.1959,-0.5077,175.7656
20:23:12:871,-1.853,1.7376,8.041,52.8922,0.9108,0.1181,-0.3753,176.6875
20:23:12:893,-2.3558,1.7651,7.9297,52.5123,1.0248,0.0577,-0.1844,177.3594
20:23:12:914,-2.169,2.2009,7.7837,52.1789,1.0083,0.0875,0.0002,177.9688
20:23:12:936,-1.4975,2.7563,7.3264,51.6021,0.8394,0.0343,0.1139,178.4375
20:23:12:955,-1.1335,3.2507,7.1348,52.0253,0.486,-0.0249,0.1597,178.5938
20:23:12:971,-1.7297,3.6374,7.5478,52.762,0.0969,-0.0683,0.2953,178.7188
20:23:12:992,-1.5789,3.1969,8.0853,51.3028,-0.2461,-0.2638,0.3619,178.7188
20:23:13:012,-1.0126,2.9084,9.4165,52.8088,-0.4879,-0.3109,0.2042,178.625
20:23:13:037,-1.2437,2.663,10.5765,51.291,-0.546,-0.3386,0.0191,178.3438
20:23:13:054,-1.5441,2.742,11.0314,53.5523,-0.5835,-0.1192,-0.1724,177.9531
20:23:13:071,-2.0816,2.2128,10.8075,53.5523,-0.7161,0.2875,-0.2286,177.7188
20:23:13:091,-2.4444,1.2444,10.4448,51.8962,-0.9382,0.5179,-0.1987,177.75
20:23:13:115,-1.8985,0.0485,11.3965,51.4677,-1.0919,0.4154,-0.2808,177.8906
20:23:13:133,-0.4919,-0.6865,13.0964,51.72,-0.7619,-0.2057,-0.6701,177.9219
20:23:13:151,-0.5972,0.0377,13.1874,50.9996,-0.1145,-0.4667,-1.1237,177.875
20:23:13:177,-2.8693,1.1618,11.5366,50.6236,0.3132,0.0918,-1.1375,178.1875
20:23:13:191,-4.6997,1.8382,9.7744,51.7597,0.3934,1.0172,-0.7079,179.2656
20:23:13:213,-4.7632,2.1099,8.9173,51.5538,0.2599,1.5866,-0.2286,180.7188
20:23:13:237,-3.5182,1.6861,8.788,52.0594,0.1233,1.4487,0.0042,181.7188
20:23:13:256,-1.5549,1.5963,8.2206,51.226,0.1265,0.8191,-0.0344,181.9531
20:23:13:271,-1.8351,1.673,7.3802,51.225,0.1694,0.1829,-0.1924,181.8594
20:23:13:292,-1.5274,2.2955,6.8787,50.2024,0.164,-0.0824,-0.2254,181.6562
20:23:13:311,-1.2904,2.6965,6.6249,49.8399,0.1846,-0.0395,-0.1844,181.7188
20:23:13:336,-1.3718,2.9,6.7601,49.3962,0.2101,0.218,-0.1465,182.0312
20:23:13:353,-1.0905,2.8078,6.4549,51.0784,0.2703,0.5094,-0.0629,182.3125
20:23:13:374,-0.9217,2.8641,6.2669,50.5205,0.3257,0.6566,-0.0275,182.5312
20:23:13:391,-0.7888,3.0664,6.2442,51.2241,0.3284,0.6183,-0.0541,182.625
20:23:13:411,-0.7229,3.5332,6.2262,48.8707,0.2613,0.4761,-0.1394,182.625
20:23:13:435,-0.8031,3.9606,6.3208,50.7122,0.1081,0.3773,-0.2286,182.6094
20:23:13:454,-1.1252,3.6518,7.1193,50.1013,-0.1286,0.5573,-0.3364,182.6719
20:23:13:471,-1.6327,2.9946,8.3307,49.4901,-0.3366,0.9871,-0.4624,182.8438
20:23:13:492,-2.4228,2.7072,9.6452,49.8405,-0.3444,1.2718,-0.6078,183.0781
20:23:13:511,-3.2309,2.5648,10.4353,50.4027,-0.1233,1.2883,-0.7388,183.2969
20:23:13:538,-3.7265,2.7815,10.713,52.302,0.2,1.005,-0.8214,183.5625
20:23:13:555,-4.3897,3.1969,10.3814,49.0808,0.4868,0.6135,-0.8816,184.2812
20:23:13:573,-6.2535,3.076,10.1827,49.8152,0.62,0.2111,-0.8723,185.0938
20:23:13:591,-7.1538,3.5764,11.2337,47.8253,0.6173,-0.268,-0.5564,186.1562
20:23:13:612,-5.0768,4.868,11.8538,49.6903,0.6426,-0.627,-0.0272,187.3281
20:23:13:638,-2.6718,5.8221,11.0649,50.5624,0.6173,-0.6899,-0.0528,188.1875
20:23:13:656,-4.1359,3.6733,9.9899,48.4754,0.3137,-0.6318,-0.6467,188.5625
20:23:13:672,-4.2412,3.0556,10.3634,49.9317,0.0389,-1.2119,-0.7937,188.9688
20:23:13:692,-3.5409,2.7851,11.1535,48.7842,-0.2437,-1.5027,-0.7809,189.9062
20:23:13:711,-2.916,2.1949,11.545,47.9107,-0.2796,-1.5383,-0.7745,191.0781
20:23:13:737,-2.1894,2.1219,11.1631,48.8019,-0.1436,-1.4611,-0.7878,191.625
20:23:13:752,-1.7321,2.2033,10.1264,48.0136,0.0309,-1.2963,-0.8129,192.7188
20:23:13:770,-1.2018,2.0129,9.4117,47.0104,0.0498,-1.0025,-0.8368,193.7656
20:23:13:791,-0.6799,1.6538,9.8594,47.4576,-0.1063,-0.6382,-0.8712,194.9062
20:23:13:811,-0.4105,1.0804,10.7345,46.1717,-0.1987,-0.3285,-0.9508,196.0625
20:23:13:834,-0.3279,0.7823,10.8351,46.1426,-0.0312,-0.1642,-1.0672,197.1094
20:23:13:852,-0.3016,0.7404,10.1456,46.0901,0.3087,-0.1556,-1.1804,198.7344
20:23:13:871,-0.535,0.8182,9.0406,46.7642,0.6365,-0.1508,-1.2808,199.9688
20:23:13:890,-0.881,0.9583,8.1847,45.5352,0.8538,-0.1346,-1.309,201.3438
20:23:13:911,-1.1276,0.8984,7.9118,44.658,0.9558,-0.1921,-1.2539,203
20:23:13:937,-1.0928,0.8865,7.6903,45.2813,1.0549,-0.26,-1.134,204.7344
20:23:13:954,-1.0845,1.0876,7.2234,43.568,1.1068,-0.3042,-0.8584,206.3594
20:23:13:975,-1.027,1.2755,7.0726,43.925,0.9792,-0.3237,-0.7135,207.9844
20:23:13:990,-0.7636,1.4491,7.1815,44.2526,0.8274,-0.3634,-0.6376,209.4688
20:23:14:013,-1.1515,1.4982,7.6328,44.5818,0.6823,-0.4265,-0.5633,211.8594
20:23:14:033,-1.7692,1.5796,8.2469,43.6928,0.5816,-0.4968,-0.4374,211.8594
20:23:14:050,-2.2073,1.7041,8.4481,41.1196,0.4935,-0.6094,-0.2627,212.875
20:23:14:070,-2.114,1.6203,8.2398,43.5209,0.3443,-0.7687,-0.0856,213.7656
20:23:14:090,-1.4544,1.6981,8.5929,43.7291,0.1768,-0.7778,0.0002,214.4844
20:23:14:113,-1.343,1.6502,9.3579,42.3505,0.0964,-0.5913,-0.0118,215.4531
20:23:14:135,-2.2361,1.4455,10.2724,43.0873,0.1926,-0.4403,0.0745,215.6094
20:23:14:152,-3.5984,0.6446,10.7094,41.471,0.547,-0.5879,0.4173,215.6094
20:23:14:172,-2.0828,2.1183,10.525,41.1232,0.7191,-0.0574,0.4002,215.7344
20:23:14:190,-1.0821,2.7779,8.9293,41.4581,0.4527,0.7975,-0.0688,215.6406
20:23:14:210,-2.6156,1.9579,8.2541,42.4586,0.1918,0.8769,-0.391,215.4844
20:23:14:233,-4.9607,2.0752,8.4564,41.5937,-0.1169,0.6287,-0.4006,215.2031
20:23:14:254,-5.5664,1.7879,8.9006,41.4039,-0.3633,-0.0054,-0.219,215.2031
20:23:14:272,-4.732,1.1989,9.456,41.4451,-0.5531,-0.5559,-0.0864,215.5
20:23:14:291,-3.4547,0.9403,10.4939,41.7533,-0.4474,-0.9935,-0.1497,215.7812
20:23:14:311,-2.6658,1.3892,10.5873,41.998,-0.142,-1.0236,-0.2818,215.9531
20:23:14:335,-2.3749,2.3074,9.3016,39.7345,0.0053,-0.5197,-0.3207,216.0312
20:23:14:353,-2.5689,2.8401,8.0626,41.0965,-0.0954,0.2737,-0.2171,216.3125
20:23:14:370,-2.2528,2.8389,7.646,41.6315,-0.298,0.8231,-0.1111,216.7812
20:23:14:434,-1.6292,2.4355,7.5323,38.9049,-0.4916,0.8875,-0.1569,217.4219
20:23:14:434,-1.3526,1.9483,7.9632,39.0254,-0.5728,0.5807,-0.2776,217.3281
20:23:14:434,-1.0916,1.8394,8.5438,39.9891,-0.4884,0.2071,-0.4121,217.2656
20:23:14:451,-0.9612,2.1518,8.9125,37.6725,-0.2661,0.1421,-0.4991,217.2344
20:23:14:470,-1.0342,2.4918,8.8215,40.2855,0.0152,0.4135,-0.5061,217.4375
20:23:14:491,-1.2341,2.6821,8.2948,39.6542,0.2799,0.6473,-0.4629,217.8281
20:23:14:511,-1.6411,2.6378,7.3288,39.3797,0.4157,0.5773,-0.386,218.3438
20:23:14:536,-1.4915,2.7156,6.4525,39.9212,0.4011,0.2737,-0.3444,218.8438
20:23:14:555,-1.428,2.9323,6.2406,38.0425,0.3076,-0.0009,-0.3396,219.2969
20:23:14:571,-1.5908,3.3022,6.4453,38.1428,0.2091,-0.1508,-0.3364,219.75
20:23:14:591,-2.0769,3.562,6.7961,39.1854,0.1015,-0.2193,-0.2856,220.2188
20:23:14:611,-2.5916,3.5033,7.5047,38.365,0.0397,-0.2941,-0.1484,220.6719
20:23:14:636,-2.5617,3.4913,8.3367,37.1893,0.0309,-0.3479,-0.0302,221.1094
20:23:14:653,-2.0613,3.6506,9.4021,38.1033,0.1207,-0.4206,0.0005,221.4375
20:23:14:672,-2.6491,3.5668,9.401,37.2903,0.1904,-0.7623,-0.0267,221.5781
20:23:14:691,-2.2732,3.7763,9.7481,36.938,0.1129,-1.2955,-0.0017,221.6719
20:23:14:711,-1.3897,3.817,10.719,37.7984,-0.0535,-1.7661,0.0359,221.8125
20:23:14:739,-0.7732,3.465,12.4105,36.3127,-0.2005,-1.912,-0.0198,222.0625
20:23:14:760,0.0348,3.5093,13.4855,36.5384,-0.123,-1.8196,-0.0821,222.2969
20:23:14:771,0.3616,3.8134,12.772,35.0739,0.2013,-1.6518,-0.2222,222.5781
20:23:14:790,1.1481,4.0863,11.4265,34.7772,0.4288,-1.3866,-0.288,222.9062
20:23:14:811,2.1513,3.7834,10.7225,34.7309,0.3457,-1.0702,-0.3188,223.375
20:23:14:838,2.6194,2.9742,11.5976,34.9579,0.0293,-0.8371,-0.4611,223.9531
20:23:14:854,2.4542,2.1949,12.7229,34.9736,-0.1798,-0.7314,-0.7135,224.5625
20:23:14:871,1.779,1.9303,13.0665,33.7082,-0.1121,-0.61,-0.9727,225.1875
20:23:14:890,1.0236,2.1219,11.7137,34.0652,0.1478,-0.4355,-1.1388,225.9375
20:23:14:910,0.6418,2.2679,9.8427,35.2113,0.3116,-0.1884,-1.1756,227
20:23:14:937,0.3401,2.2224,8.8491,34.6647,0.1936,0.0129,-1.1364,228.3125
20:23:14:954,0.2132,1.9196,8.3068,33.6079,-0.0743,0.009,-1.0906,229.6719
20:23:14:970,0.0827,1.4695,8.3918,34.0508,-0.286,-0.1556,-1.0731,231.0312
20:23:14:990,0.2216,1.1474,8.5606,33.7886,-0.3316,-0.2928,-1.0632,232.9219
20:23:15:012,-0.0801,0.9595,8.4864,33.6679,-0.2176,-0.3045,-1.0976,234.0781
20:23:15:036,-0.2465,0.7835,8.8479,34.6971,-0.0471,-0.1564,-1.0989,235.2969
20:23:15:055,-0.4632,0.7069,9.0502,35.3294,0.2384,0.0177,-1.0515,236.5781
20:23:15:071,-0.7672,0.8661,8.5055,35.3956,0.6466,0.1094,-1.0195,237.8438
20:23:15:090,-1.0701,1.2899,7.6771,35.647,0.9769,0.1213,-0.9585,239.0156
20:23:15:110,-0.9947,1.5868,6.8092,34.7388,1.1369,0.0598,-0.851,240.25
20:23:15:133,-0.9181,1.8645,6.3819,35.1915,1.0863,-0.0443,-0.7269,241.4688
20:23:15:150,-0.9624,2.0883,6.7482,35.7314,0.8549,-0.1562,-0.5982,242.5312
20:23:15:172,-0.7289,2.1614,7.4688,35.7314,0.608,-0.2555,-0.4603,243.5312
20:23:15:191,-0.5649,2.3457,8.1631,34.3533,0.4442,-0.3514,-0.3609,244.3594
20:23:15:211,-0.8618,2.6606,8.7605,33.7745,0.3601,-0.3865,-0.3282,244.7188
20:23:15:235,-1.0952,2.876,9.0322,35.07,0.3228,-0.3093,-0.2661,245.2812
20:23:15:251,-0.9971,2.9155,8.9855,36.3191,0.2639,-0.1546,-0.1569,245.7969
20:23:15:270,-0.8319,2.7827,8.9221,35.2868,0.1044,-0.0289,-0.0757,246.2656
20:23:15:293,-1.0402,2.5887,9.5781,35.0796,-0.1643,0.0098,-0.0744,246.6719
20:23:15:309,-1.756,2.4439,9.8259,36.5732,-0.3936,-0.0286,-0.1473,246.7812
20:23:15:330,-2.5593,2.0812,9.7385,36.4001,-0.6301,0.0359,-0.1543,246.8438
20:23:15:353,-2.0038,0.9882,10.057,36.915,-0.9699,0.1008,-0.0145,246.9531
20:23:15:373,-0.4548,-0.1059,11.3115,36.6451,-1.3468,-0.402,-0.0195,247.0312
20:23:15:391,0.5831,-0.5106,12.3626,36.8156,-0.9944,-0.6001,-0.3468,247.0312
20:23:15:410,0.0264,0.1478,12.0178,37.2488,-0.4916,-0.3066,-0.6192,246.9062
20:23:15:436,-2.3426,1.1067,10.464,37.0594,-0.1976,0.3786,-0.5178,246.6406
20:23:15:455,-4.1862,1.6442,8.6947,38.2378,-0.3167,0.871,-0.0794,246.8906
20:23:15:470,-3.7372,1.3964,7.8196,38.9813,-0.7049,0.6452,0.27,247.5781
20:23:15:490,-2.5078,0.9571,8.1201,38.3079,-1.0128,-0.1897,0.3382,248.0625
20:23:15:510,-1.689,0.8278,8.5091,38.5978,-1.0967,-0.9578,0.3201,248.0156
20:23:15:530,-0.9157,1.2037,8.4289,39.8031,-0.999,-1.1634,0.3392,247.0469
20:23:15:555,-0.4189,1.2252,8.0171,39.2798,-0.8288,-0.8965,0.3821,246.625
20:23:15:570,0.3353,1.6095,8.2781,38.7678,-0.5555,-0.5402,0.3315,246.4219
20:23:15:589,0.1091,1.558,8.2074,40.611,-0.2234,-0.3072,0.2721,245.9844
20:23:15:610,0.1198,1.9136,7.8004,40.9148,0.0621,-0.1793,0.2332,245.5625
20:23:15:630,0.0875,2.2392,7.0534,40.1034,0.18,-0.0627,0.2399,245.2031
20:23:15:655,-0.1878,2.3996,6.468,39.9096,0.1308,0.0295,0.2873,244.9375
20:23:15:671,0.2347,2.7934,7.2067,40.7789,0.0341,0.1173,0.3195,244.6875
20:23:15:691,0.0217,2.6199,8.077,41.3667,-0.0413,0.2534,0.3363,244.5625
20:23:15:711,0.0432,2.627,9.6787,40.4948,-0.0155,0.3831,0.3552,244.25
20:23:15:736,0.224,2.4894,11.1008,39.3961,0.1462,0.4521,0.3217,243.875
20:23:15:754,0.2563,2.5612,11.8514,41.7777,0.3396,0.466,0.2473,243.5
20:23:15:770,0.2299,2.8102,12.0813,41.0623,0.4754,0.4462,0.1667,243.0625
20:23:15:795,0.0157,2.7958,12.0298,42.2298,0.5028,0.4082,0.1057,242.6719
20:23:15:809,0.212,3.1909,12.6355,42.4279,0.5675,0.3616,0.0117,242.3906
20:23:15:830,-0.1938,2.9108,12.8725,41.5473,0.6171,0.3805,-0.0203,242.2344
20:23:15:852,0.0791,3.0867,12.8402,43.8522,0.644,0.3235,-0.1143,242.125
20:23:15:870,0.1701,3.2459,12.1112,44.834,0.4788,0.2598,-0.2643,242.1719
20:23:15:890,-0.4105,3.2005,12.0741,44.5942,0.2131,0.2452,-0.3918,242.2812
20:23:15:912,-1.4173,2.8401,12.7061,44.5499,0.0581,0.2872,-0.4038,242.5469
20:23:15:935,-1.6148,2.1745,13.2784,44.1153,0.1284,0.258,-0.3623,242.9531
20:23:15:952,-1.0569,1.8382,12.9192,45.8336,0.3444,0.0867,-0.3862,243.375
20:23:15:969,-0.3937,2.0596,11.3415,45.2841,0.4703,-0.1154,-0.4595,243.7812
20:23:15:990,0.1055,2.4511,9.6009,44.3895,0.4043,-0.1647,-0.5279,244.2188
20:23:16:010,0.2755,2.6486,8.8012,45.3222,0.2724,-0.0417,-0.5521,244.7344
20:23:16:038,0.4215,2.6139,8.6994,46.4346,0.1992,0.092,-0.5551,245.3906
20:23:16:054,0.4143,2.0824,8.5163,45.8149,0.2117,0.1573,-0.5737,246.0781
20:23:16:072,0.3868,1.8573,8.4648,46.9441,0.285,0.1418,-0.5953,246.7188
20:23:16:093,0.218,1.661,8.1129,46.3905,0.4077,0.0883,-0.6198,247.375
20:23:16:111,0.3401,1.5413,7.5,46.3347,0.534,0.0161,-0.6081,248.0469
20:23:16:136,0.5041,1.6119,7.1133,46.6498,0.6259,-0.1104,-0.5948,248.7969
20:23:16:154,0.1474,1.4204,6.5614,47.1888,0.7172,-0.2243,-0.631,249.5312
20:23:16:170,0.3652,1.7412,6.4669,46.3005,0.7276,-0.3596,-0.6073,250.3125
20:23:16:189,0.0659,1.5844,6.261,47.1702,0.7049,-0.533,-0.6067,251.1406
20:23:16:210,0.4778,2.1255,6.4297,48.1683,0.6506,-0.5844,-0.5479,251.9688
20:23:16:229,-0.0059,2.2141,6.3388,48.3371,0.5835,-0.5575,-0.513,252.8594
20:23:16:253,-0.0729,2.9072,6.559,48.4347,0.4852,-0.4891,-0.4544,253.7188
20:23:16:271,-0.9193,2.9622,6.6297,47.6251,0.3316,-0.4483,-0.3737,254.5
20:23:16:289,-1.0605,3.155,7.3216,49.4795,0.0719,-0.4595,-0.232,255.2031
20:23:16:310,-1.185,2.9275,8.5989,49.5153,-0.2168,-0.5575,-0.0824,255.7969
20:23:16:332,-1.5669,2.5385,10.0486,48.1553,-0.4061,-0.5847,0.0188,256.2656
20:23:16:353,-1.6088,2.0405,11.0446,48.5541,-0.4458,-0.5298,0.1408,256.5
20:23:16:370,-1.4256,1.6658,11.4827,50.7993,-0.3832,-0.5048,0.1933,256.6094
20:23:16:395,-1.8937,1.4659,11.6204,50.4697,-0.2993,-0.4619,0.1315,256.5469
20:23:16:408,-2.9771,1.5293,11.1236,49.9318,-0.2152,-0.3386,0.0279,256.2969
20:23:16:429,-3.2524,1.7029,10.2844,50.0279,-0.216,-0.0656,0.0947,256.1875
20:23:16:452,-2.91,1.2456,9.8714,49.8301,-0.4333,0.2002,0.2673,256.1875
20:23:16:514,-1.944,0.252,11.4815,49.6277,-0.8629,0.2036,0.4183,256.0781
20:23:16:515,-1.1982,-0.331,13.4986,50.4317,-1.0775,-0.2001,0.3653,255.6875
20:23:16:515,-1.4987,0.2903,13.3394,50.2397,-0.7726,-0.5626,0.1398,255.1094
20:23:16:529,-2.3594,1.2396,11.2265,49.6993,-0.2293,-0.3349,0.0106,254.625
20:23:16:555,-3.1387,1.6706,8.8168,50.3217,0.1196,0.3938,0.1145,254.4531
20:23:16:570,-2.8562,1.6047,7.4832,52.6355,0.0575,0.9762,0.3906,254.4688
20:23:16:590,-1.9392,1.248,6.9696,53.4333,-0.2637,0.8905,0.6242,254.2969
20:23:16:611,-0.9288,1.1103,7.0091,51.3504,-0.6037,0.2428,0.6977,253.7656
20:23:16:638,-0.0921,1.23,7.1097,52.7958,-0.7744,-0.3825,0.6671,252.9219
20:23:16:654,0.4754,1.5161,7.0858,50.0931,-0.7433,-0.5628,0.6231,252.4688
20:23:16:674,0.5975,1.7903,7.1504,50.0931,-0.575,-0.3146,0.5744,251.6094
20:23:16:689,0.4035,1.9698,7.3264,52.4018,-0.3348,0.0992,0.5326,250.8906
20:23:16:710,0.0791,2.1195,7.2222,53.5016,-0.0607,0.4545,0.5089,249.8438
20:23:16:730,0.127,2.3661,6.9529,52.3163,0.1577,0.6337,0.5408,249.2031
20:23:16:756,0.473,2.6091,6.6871,52.6637,0.147,0.434,0.5784,248.6094
20:23:16:774,0.7579,2.8341,7.3132,52.0407,0.0208,0.2439,0.5291,247.9375
20:23:16:791,0.8153,3.1155,8.3152,51.3165,-0.0623,0.1277,0.4668,247.9375
20:23:16:809,0.6394,3.289,9.5518,53.1604,-0.0477,0.1043,0.4239,247.25
20:23:16:829,0.6813,3.3932,10.5502,51.9414,0.0645,0.1208,0.3824,246.5938
20:23:16:854,0.9554,3.5847,10.695,53.0308,0.1326,0.1866,0.2979,245.4219
20:23:16:871,0.8764,3.5476,11.1439,53.2182,0.1462,0.2771,0.172,244.9375
20:23:16:888,0.6537,3.5249,11.9484,53.2182,0.1678,0.3504,0.037,244.5
20:23:16:909,0.2599,3.4447,12.6631,53.4245,0.2069,0.3898,-0.0842,244.1562
20:23:16:929,0.0588,3.4159,13.1718,52.2937,0.2815,0.2633,-0.1921,243.9375
20:23:16:954,-0.1124,3.6099,12.5613,52.7738,0.2221,0.0231,-0.2453,243.8906
20:23:16:971,0.0181,3.6039,11.7844,53.4423,-0.0724,-0.2733,-0.2781,244.2031
20:23:16:988,0.5687,2.9072,12.3602,52.6026,-0.3185,-0.5405,-0.3862,244.3281
20:23:17:009,0.8956,2.0716,13.9104,52.5944,-0.2005,-0.6931,-0.5535,244.6562
20:23:17:030,1.0572,1.9746,14.1247,52.7942,0.179,-0.6462,-0.7253,245.0469
20:23:17:054,0.8441,2.4894,12.3075,52.8156,0.4061,-0.3181,-0.7841,245.6094
20:23:17:071,0.5233,2.8222,10.2772,51.1747,0.2791,0.1528,-0.7572,246.375
20:23:17:090,-0.1304,2.5684,9.6332,52.5569,-0.0176,0.3432,-0.6818,247.3594
20:23:17:112,-0.3973,2.1255,9.5123,49.6953,-0.2314,0.145,-0.648,247.8438
20:23:17:128,-0.541,1.7687,8.9712,51.6234,-0.3441,-0.2291,-0.6318,248.7188
20:23:17:149,-0.5565,1.394,8.7629,49.9584,-0.3076,-0.5133,-0.6094,249.4219
20:23:17:172,-0.3854,1.1343,8.7773,50.5482,-0.094,-0.504,-0.6123,250.125
20:23:17:189,-0.3985,1.163,8.223,50.5482,0.1372,-0.2598,-0.6081,250.8281
20:23:17:213,-0.4919,1.1762,7.8399,50.9613,0.3614,-0.0185,-0.5881,251.5
20:23:17:228,-0.7158,1.1654,7.8782,49.7059,0.6317,0.0931,-0.549,252.2344
20:23:17:250,-0.9252,1.1726,7.7118,49.9898,0.9052,0.054,-0.5018,253.3281
20:23:17:271,-0.9384,1.3641,6.8966,50.8689,1.0139,-0.0297,-0.4262,254
20:23:17:291,-0.881,1.5928,6.3567,48.7867,0.9526,-0.0789,-0.3324,254.6719
20:23:17:310,-0.881,1.7472,6.3531,50.3208,0.7675,-0.0584,-0.199,255.3281
20:23:17:329,-0.7529,1.7915,7.0965,49.8677,0.5633,-0.0377,-0.0816,255.8594
20:23:17:354,-0.8283,1.6442,8.3188,48.764,0.4496,-0.0632,-0.0067,256.2656
20:23:17:371,-1.0905,1.5101,9.3423,49.8868,0.4325,-0.1426,0.0615,256.5156
20:23:17:389,-1.2078,1.5808,9.6512,48.1343,0.4312,-0.2275,0.1323,256.6094
20:23:17:409,-1.124,1.7328,9.2022,49.8486,0.3305,-0.2598,0.2215,256.6406
20:23:17:429,-0.8881,1.8298,8.7497,47.1449,0.082,-0.267,0.2998,256.625
20:23:17:455,-0.2788,1.0888,10.1132,49.2488,-0.1915,-0.3024,0.3057,256.5
20:23:17:473,-1.0629,0.7895,10.6483,49.0931,-0.3433,-0.2843,0.1733,256.2812
20:23:17:492,-2.1391,0.9044,10.0845,48.8408,-0.376,-0.076,0.079,255.9531
20:23:17:510,-2.5198,0.7811,9.705,48.683,-0.5316,0.2399,0.1672,255.6875
20:23:17:530,-1.8961,0.2783,10.5621,49.8478,-0.8597,0.3158,0.3243,255.5625
20:23:17:554,-1.6208,0.0269,12.0394,46.7554,-1.0807,0.0145,0.3312,255.4062
20:23:17:571,-1.7309,0.6063,12.0226,48.673,-0.939,-0.3564,0.2284,255
20:23:17:588,-2.0816,1.4276,10.0582,47.7702,-0.5638,-0.3261,0.1898,254.4688
20:23:17:609,-2.7448,1.8214,8.0865,49.0169,-0.3643,0.1325,0.2878,254.0938
20:23:17:629,-2.9017,1.6287,7.6161,49.2239,-0.5302,0.6423,0.5139,253.8438
20:23:17:652,-2.1008,1.0469,8.5941,46.5102,-0.898,0.7336,0.7539,253.5625
20:23:17:672,-1.1048,0.7284,9.4381,46.6509,-1.1137,0.2979,0.8375,253.0781
20:23:17:689,-0.1292,0.896,9.3291,48.1772,-1.0549,-0.2435,0.8047,252.1875
20:23:17:709,0.4574,1.2324,8.8587,46.5674,-0.8346,-0.4164,0.7299,251.0938
20:23:17:730,0.6753,1.4934,8.3966,47.452,-0.5537,-0.2206,0.6527,250.0312
20:23:17:754,0.6478,1.7101,7.7106,46.8004,-0.2285,0.0912,0.5765,249.1406
20:23:17:775,0.4514,2.0333,6.9026,48.2877,0.0692,0.3506,0.5086,248.2969
20:23:17:789,0.1737,2.4104,6.304,45.6165,0.2599,0.5011,0.4761,247.5625
20:23:17:810,0.1593,2.7611,6.3867,46.9325,0.3039,0.5269,0.4932,246.9531
20:23:17:836,0.0372,2.888,7.5909,47.8958,0.228,0.5594,0.5211,246.125
20:23:17:855,-0.0286,2.8892,8.976,47.5777,0.1787,0.5791,0.5509,245.5469
20:23:17:873,0.1557,2.9958,9.8726,47.6672,0.2205,0.496,0.5589,244.9688
20:23:17:890,0.2611,3.0676,10.3802,47.0517,0.2866,0.3347,0.5217,244.3125
20:23:17:909,0.4167,3.3788,10.932,45.8588,0.3103,0.1336,0.458,243.6562
20:23:17:930,0.5987,3.4614,11.5162,48.2679,0.3049,0.0185,0.4111,243.1094
20:23:17:954,1.0476,3.4387,12.1866,47.1415,0.2858,-0.0001,0.3667,242.6094
20:23:17:973,1.0703,3.1957,12.7061,47.5472,0.2887,0.002,0.2583,242.1719
20:23:17:989,0.7435,3.0532,13.2879,45.7659,0.3292,0.0327,0.0979,241.7812
20:23:18:010,0.3652,3.2076,13.1491,46.8295,0.4069,0.0335,-0.0525,241.5469
20:23:18:030,-0.0562,3.3226,12.2896,45.9966,0.4349,-0.0241,-0.1532,241.4688
20:23:18:052,-0.2944,2.9563,11.8023,48.5264,0.2445,-0.1117,-0.1758,241.5781
20:23:18:068,-0.0478,1.9794,12.7923,47.8554,-0.1033,-0.1871,-0.158,241.6719
20:23:18:088,0.4071,1.1474,13.8434,47.2528,-0.2924,-0.3807,-0.2049,241.9219
20:23:18:109,0.9626,1.1031,13.2173,44.4591,-0.1124,-0.6814,-0.3378,242.1406
20:23:18:132,0.9159,1.5305,11.351,44.1239,0.2162,-0.7802,-0.5258,242.4531
20:23:18:153,0.5807,2.0129,9.4189,46.2636,0.3563,-0.1554,-0.6861,242.9062
20:23:18:170,0.0372,2.1099,8.8982,45.7789,0.2069,0.1517,-0.636,242.9062
20:23:18:189,-0.4189,1.8405,9.1795,43.1294,0.1502,0.1325,-0.578,244.4688
20:23:18:209,-0.4835,1.5676,9.0466,45.04,0.1723,-0.1354,-0.5801,244.4688
20:23:18:230,-0.547,1.5078,8.5367,42.5754,0.2272,-0.4414,-0.611,246
20:23:18:255,-0.6511,1.6059,7.7047,45.7881,0.2474,-0.5855,-0.6017,246.6562
20:23:18:271,-0.6463,1.6861,7.154,42.5032,0.297,-0.537,-0.5346,247.3281
20:23:18:288,-0.3339,1.7735,6.6943,44.4182,0.3758,-0.3511,-0.489,248.0938
20:23:18:308,-0.3494,1.8082,6.559,42.2188,0.4858,-0.0635,-0.484,248.875
20:23:18:328,-1.0545,1.8777,6.7482,41.8998,0.6655,0.1442,-0.4291,249.5469
20:23:18:354,-1.7106,2.0608,6.5997,42.5032,0.8429,0.2598,-0.2965,250.1875
20:23:18:371,-1.7764,2.2512,6.0455,43.2116,0.8887,0.2987,-0.126,250.7969
20:23:18:389,-1.3287,2.4271,5.5822,42.6278,0.7622,0.2798,0.0138,251.5156
20:23:18:408,-0.772,2.5361,5.7713,43.5574,0.5268,0.2598,0.1288,251.7969
20:23:18:429,-0.1747,2.6259,6.3615,43.2776,0.2162,0.2497,0.1749,251.9062
20:23:18:453,-0.0741,2.6223,7.8028,42.0578,-0.057,0.2146,0.1898,251.8281
20:23:18:474,-0.3411,2.5349,9.5219,41.8527,-0.1947,0.2276,0.2188,251.6562
20:23:18:489,-0.7409,2.2763,10.9727,43.5505,-0.2229,0.2753,0.2825,251.4062
20:23:18:509,-0.6679,1.7484,11.7796,41.556,-0.2013,0.2071,0.2985,251.2812
20:23:18:585,-0.0645,1.3749,11.9029,40.4442,-0.1792,0.0316,0.1789,250.9844
20:23:18:585,0.054,1.2827,11.6874,41.3471,-0.1462,-0.0257,0.0037,250.5781
20:23:18:586,-0.511,1.5676,10.871,40.7407,-0.2077,0.2169,-0.0528,250.1875
20:23:18:588,-1.0617,1.6646,10.3491,42.2961,-0.4181,0.5032,0.0167,249.9531
20:23:18:611,-1.2245,1.2121,10.3335,41.0588,-0.6818,0.4817,0.1078,249.9375
20:23:18:629,-0.6415,0.3992,11.132,41.3932,-0.7968,0.1219,0.041,249.9375
20:23:18:655,-0.3135,0.1514,12.013,41.9789,-0.5843,-0.2845,-0.1596,249.7969
20:23:18:671,-0.7134,0.896,11.1595,40.8148,-0.2471,-0.3226,-0.26,249.4062
20:23:18:689,-1.1778,2.0512,8.8898,40.9698,-0.1771,0.0039,-0.1607,249.3906
20:23:18:713,-1.2449,2.6725,7.0187,40.5298,-0.4762,0.3118,0.0199,249.6562
20:23:18:728,-1.0593,2.4403,6.9589,39.4742,-0.9047,0.3147,0.1129,249.9219
20:23:18:749,-1.1982,1.904,8.4229,40.2153,-1.1241,0.0414,0.1403,249.9375
20:23:18:771,-1.3275,1.6299,9.978,41.3631,-1.0237,-0.2696,0.1592,249.7188
20:23:18:788,-1.3562,1.6897,10.355,40.9971,-0.7108,-0.4046,0.1981,249.4219
20:23:18:815,-1.1168,1.9447,9.7158,41.8096,-0.3862,-0.3298,0.2572,249.125
20:23:18:828,-0.8654,2.1015,8.8407,40.2962,-0.1246,-0.2238,0.3041,248.8438
20:23:18:850,-0.2848,2.5875,7.1109,39.7449,0.053,-0.2158,0.2924,248.5469
20:23:18:878,-0.2357,2.9096,6.7123,39.6168,0.1529,-0.2821,0.2623,248.25
20:23:18:890,-0.2178,3.1957,6.6057,39.8246,0.2077,-0.2406,0.2655,247.9062
20:23:18:908,-0.0633,3.2639,7.0977,38.513,0.2035,-0.0776,0.3187,247.625
20:23:18:929,0.1282,3.1119,8.2433,39.5096,0.1587,0.0825,0.3624,247.3906
20:23:18:954,0.139,3.0496,9.3722,38.3266,0.1521,0.1504,0.3624,247.25
20:23:18:973,0.0241,3.0628,10.4556,39.3371,0.2125,0.1267,0.3201,246.7188
20:23:18:991,-0.1268,3.1418,10.95,39.5083,0.3507,0.1051,0.2849,246.3125
20:23:19:008,0.0875,3.2495,10.9584,39.6346,0.5063,0.1067,0.2782,245.9219
20:23:19:028,0.2766,3.1574,11.2229,38.4029,0.5848,0.1466,0.2729,245.6094
20:23:19:048,0.4694,2.9862,11.4624,37.7596,0.6208,0.1893,0.2399,245.3125
20:23:19:072,0.5568,2.8904,11.5462,39.0959,0.644,0.2478,0.1829,245.0469
20:23:19:090,0.6849,2.7815,11.6802,39.3163,0.6139,0.2934,0.1046,244.7969
20:23:19:108,0.9123,3.0772,11.0039,39.6615,0.6013,0.2023,0.0111,244.5938
20:23:19:128,0.8297,3.7284,9.7876,39.5999,0.5345,0.091,-0.1021,244.4688
20:23:19:148,-0.0418,4.0133,9.6512,39.1201,0.2666,0.0763,-0.2326,244.4375
20:23:19:171,-0.9181,3.5009,10.7369,37.7784,-0.0959,0.107,-0.2648,244.5156
20:23:19:189,-1.2724,2.7049,12.0489,39.4689,-0.2876,0.1552,-0.2091,244.7656
20:23:19:209,-1.094,2.3218,12.1208,37.9977,-0.2146,0.0577,-0.1559,245.0469
20:23:19:229,-0.3159,2.4774,10.209,38.0343,0.0013,-0.2145,-0.1471,245.2812
20:23:19:254,0.2204,2.6306,8.3331,38.0343,0.0301,-0.3716,-0.1726,245.5
20:23:19:272,0.1486,2.2667,8.2158,39.2553,-0.2506,-0.3096,-0.2158,245.6875
20:23:19:297,0.0863,1.8741,9.3734,39.7729,-0.5758,-0.141,-0.2238,245.9375
20:23:19:308,-0.3363,1.5042,9.9839,38.566,-0.6304,0.0747,-0.2435,246.2031
20:23:19:332,-0.31,1.2755,10.1946,39.5875,-0.4389,0.267,-0.236,246.4062
20:23:19:352,-0.1711,1.333,9.0334,39.2105,-0.0868,0.303,-0.2579,246.6094
20:23:19:367,-0.2429,1.5449,7.7286,37.9412,0.1744,0.1719,-0.3332,246.7812
20:23:19:388,-0.5146,1.661,7.2569,39.3828,0.2178,-0.0068,-0.3678,247.0156
20:23:19:413,-0.517,1.643,7.6316,39.1461,0.1923,-0.1143,-0.3258,247.8594
20:23:19:435,-0.0729,1.5066,8.0853,42.6589,0.3941,-0.064,-0.1924,248.25
20:23:19:450,0.3054,1.4671,7.9824,39.836,0.5659,-0.0355,-0.1993,248.4062
20:23:19:473,0.5316,1.5736,7.5215,40.7477,0.6581,-0.0515,-0.2336,248.7031
20:23:19:491,0.5963,1.7723,7.0355,39.7931,0.6437,-0.0885,-0.2792,248.9844
20:23:19:511,0.3293,2.1769,6.8368,39.1743,0.5113,-0.0907,-0.2866,249.4844
20:23:19:533,-0.14,2.4451,7.4473,40.3048,0.3569,-0.1138,-0.2374,249.8906
20:23:19:555,-0.4596,2.5241,8.5367,40.897,0.2767,-0.2273,-0.154,249.8906
20:23:19:571,-0.377,2.3709,9.0801,39.5447,0.196,-0.3839,-0.109,250.2969
20:23:19:589,-0.2309,1.977,9.1555,41.7046,-0.016,-0.4563,-0.1127,250.625
20:23:19:608,0.1749,1.5951,10.0534,41.0948,-0.2051,-0.4523,-0.2235,250.8594
20:23:19:628,-0.3147,1.3785,11.4791,40.6702,-0.1989,-0.3303,-0.3809,251.0781
20:23:19:648,-1.4137,1.3426,12.5014,40.1962,0.0077,-0.0899,-0.4744,251.5625
20:23:19:669,-2.9627,1.661,11.3582,41.21,0.0943,0.2838,-0.3636,251.5625
20:23:19:690,-3.8462,2.0117,9.2405,40.9124,-0.2559,0.4934,-0.0358,252.0312
20:23:19:708,-3.0333,1.4455,8.5187,41.7488,-0.8831,0.2409,0.2231,252.5938
20:23:19:727,-1.2353,0.2113,10.531,41.699,-1.2304,-0.4228,0.1821,252.9531
20:23:19:748,0.0911,-0.3753,13.0126,40.0524,-0.9257,-0.8827,-0.0877,252.875
20:23:19:772,-0.2381,0.4388,12.8247,42.492,-0.3204,-0.6592,-0.2443,252.4844
20:23:19:789,-1.0067,1.4491,10.1599,41.5779,0.0141,0.0034,-0.1729,252.2031
20:23:19:807,-1.6363,2.0117,7.2438,40.8169,-0.1843,0.5616,0.0138,252.4688
20:23:19:828,-1.8482,2.0644,6.3603,42.8526,-0.6623,0.663,0.1752,252.7656
20:23:19:853,-1.926,1.7184,7.5107,42.0622,-0.9854,0.319,0.2503,252.8281
20:23:19:871,-2.1487,1.5161,8.8658,39.9125,-0.9971,-0.1644,0.3398,252.5781
20:23:19:888,-1.6411,1.5628,9.2453,40.8712,-0.788,-0.3897,0.4114,252.1875
20:23:19:908,-1.0318,1.7986,8.6588,41.4497,-0.5249,-0.2755,0.4423,251.9688
20:23:19:929,-0.9121,1.9399,7.98,42.7114,-0.2748,-0.0014,0.4354,251.5
20:23:19:952,-1.4053,1.9878,7.4317,42.5595,-0.0229,0.2604,0.4583,250.9688
20:23:19:972,-1.7979,2.2248,6.4262,41.7675,0.0871,0.3916,0.5877,250.4375
20:23:19:991,-1.3263,2.4535,5.8156,42.8033,-0.0248,0.401,0.7086,249.9375
20:23:20:009,-0.5003,2.3685,6.6644,42.8459,-0.1763,0.2668,0.7195,249.3906
20:23:20:028,0.2479,2.1386,8.6923,42.0777,-0.1025,0.1032,0.6125,247.8594
20:23:20:055,0.394,2.3505,9.8762,43.1356,0.1539,0.1371,0.5033,247.0312
20:23:20:071,0.5975,2.6749,9.7433,41.0935,0.3515,0.3296,0.4191,246.6562
20:23:20:091,0.692,2.9491,9.6907,41.9681,0.4194,0.5112,0.3419,245.75
20:23:20:107,0.8201,3.1873,9.9588,41.9033,0.3989,0.5879,0.254,245.5
20:23:20:128,0.6573,3.3082,10.4795,43.5061,0.3009,0.6161,0.1744,245.1094
20:23:20:148,0.4778,3.234,11.606,44.366,0.2131,0.5584,0.116,244.7656
20:23:20:174,0.4095,2.9048,12.8115,41.6543,0.229,0.4305,0.0141,244.5156
20:23:20:188,0.3521,2.6354,13.859,43.9405,0.3965,0.2332,-0.1162,244.3281
20:23:20:208,0.2264,2.8246,13.5226,42.8434,0.5957,-0.0121,-0.1987,244.2188
20:23:20:229,0.4694,3.4171,11.5916,43.21,0.478,-0.2379,-0.223,244.2969
20:23:20:255,1.1517,3.3154,11.2457,42.9888,0.1292,-0.402,-0.2142,244.5312
20:23:20:273,1.6366,2.5133,12.0453,43.7893,-0.1638,-0.4904,-0.2342,244.8906
20:23:20:288,2.0101,1.8298,12.687,42.9906,-0.269,-0.4925,-0.3489,245.2188
20:23:20:307,2.2447,1.5784,12.2417,43.4485,-0.1545,-0.4446,-0.5423,245.5156
20:23:20:329,1.6413,1.8441,10.8878,46.643,0.0245,-0.3426,-0.795,245.8438
20:23:20:355,0.0408,2.2943,9.4345,44.5234,0.082,-0.0424,-0.9892,246.0781
20:23:20:373,-1.4687,2.827,8.6827,46.0138,-0.0631,0.4939,-0.9961,247.1562
20:23:20:393,-2.6419,3.1897,8.1883,46.1328,-0.2868,1.1174,-0.8922,248.1875
20:23:20:407,-3.5912,2.7324,7.9046,44.692,-0.4948,1.4729,-0.7761,249.3281
20:23:20:427,-3.9467,1.9818,9.1376,46.3513,-0.7079,1.2412,-0.6424,250.3125
20:23:20:448,-3.7049,1.4323,10.4412,44.1384,-0.674,0.5637,-0.4813,251.0469
20:23:20:470,-3.0609,1.1378,11.4157,45.7032,-0.3028,-0.1016,-0.3202,251.6406
20:23:20:490,-2.0434,1.1678,10.3251,45.7631,0.3832,-0.4515,-0.1926,252.0781
20:23:20:507,-1.3107,1.2647,8.0542,47.2809,1.0458,-0.4092,-0.1372,252.4062
20:23:20:527,-0.8151,1.3497,6.2059,45.1409,1.3726,-0.1655,-0.1146,252.7031
20:23:20:547,-0.6727,1.3545,5.6875,45.6317,1.3398,0.058,-0.1031,253.0625
20:23:20:571,-0.772,1.1929,6.2765,47.0668,1.1457,0.1488,-0.0792,253.4531
20:23:20:590,-0.954,1.1714,6.9565,47.6031,1.0176,0.1086,-0.0461,253.8125
20:23:20:661,-1.2113,1.2121,6.9613,48.123,0.9902,0.0766,-0.0035,254.125
20:23:20:662,-1.2269,1.2288,6.9625,46.5351,0.9191,0.0542,0.0596,254.5
20:23:20:663,-1.5453,1.3102,7.1947,46.5779,0.7734,0.0164,0.1014,254.6562
20:23:20:680,-1.9021,1.2528,7.3395,46.643,0.6011,-0.0683,0.1342,254.7656
20:23:20:687,-2.4013,1.0948,7.6316,46.7956,0.3609,-0.1943,0.1754,254.7812
20:23:20:707,-2.424,0.9751,8.1979,47.9849,0.0277,-0.3168,0.2396,254.7656
20:23:20:728,-2.3426,0.501,9.638,47.4863,-0.3574,-0.4603,0.2577,254.6562
20:23:20:749,-2.5797,0.3729,11.1535,46.1861,-0.5614,-0.541,0.1834,254.4531
20:23:20:773,-3.3985,0.7703,11.0865,49.071,-0.4474,-0.3932,0.0937,254.1719
20:23:20:789,-3.9826,0.9738,10.3251,48.6696,-0.2772,0.0412,0.1198,253.9688
20:23:20:807,-4.1012,1.1642,9.207,47.0575,-0.2221,0.4327,0.258,253.8438
20:23:20:829,-3.0812,1.017,8.9125,47.9872,-0.3952,0.4196,0.4306,253.6562
20:23:20:846,-1.9751,0.896,9.5674,48.1381,-0.6754,0.0137,0.4809,253.2812
20:23:20:868,-1.8135,1.1378,9.711,47.3764,-0.7739,-0.3223,0.3813,252.9844
20:23:20:890,-1.6914,1.5808,8.9748,47.5996,-0.7412,-0.2001,0.352,252.3125
20:23:20:910,-1.7225,1.667,8.6552,49.0939,-0.8242,0.2806,0.4066,251.7188
20:23:20:930,-1.7644,1.4934,9.5626,47.5257,-1.0477,0.5773,0.4604,251
20:23:20:955,-2.0098,1.4695,10.5825,48.823,-0.9081,0.2489,0.4324,250.3594
20:23:20:971,-1.8374,1.7208,10.0163,49.4568,-0.5784,0.0798,0.4407,248.8906
20:23:20:988,-1.2461,2.0105,8.4457,47.817,-0.3593,0.0665,0.429,248.8906
20:23:21:007,-0.8642,2.2069,7.312,48.4415,-0.2461,0.1994,0.4061,248.2188
20:23:21:031,-0.7948,2.1183,7.5023,49.8422,-0.0517,0.3746,0.4279,247.5938
20:23:21:055,-0.5039,1.8968,8.1392,48.9997,0.3148,0.4761,0.4399,247.0781
20:23:21:074,-0.0717,2.165,7.4305,50.6891,0.5997,0.4854,0.4362,246.5469
20:23:21:088,0.3868,2.6414,6.3723,50.3917,0.6509,0.4263,0.4053,246.0156
20:23:21:106,0.856,3.21,5.7606,50.2096,0.494,0.3195,0.3653,245.5469
20:23:21:127,1.2738,3.7679,6.158,49.9228,0.232,0.2422,0.2719,244.7344
20:23:21:148,1.1745,3.9953,7.8651,50.3022,0.0786,0.2316,0.1097,244.7344
20:23:21:172,0.1222,4.0217,9.8978,49.896,0.1036,0.2441,0.0122,244.375
20:23:21:188,-0.784,4.1055,11.2325,49.3815,0.1995,0.1402,-0.0296,243.9531
20:23:21:207,-1.7405,4.1354,11.5019,49.2526,0.1574,-0.0859,0.0015,243.9375
20:23:21:227,-2.2504,3.8421,11.7365,50.1128,-0.0035,-0.4092,0.0876,243.9531
20:23:21:248,-2.0218,3.4111,12.6032,50.91,-0.122,-0.7509,0.1113,244.0156
20:23:21:273,-1.4508,2.9694,13.8362,50.2973,-0.0048,-1.0843,0.0364,244.0156
20:23:21:291,-1.0282,3.0712,14.0732,50.329,0.3081,-1.2462,-0.0475,243.9375
20:23:21:307,-0.7217,3.6805,12.2333,50.329,0.3827,-1.0928,-0.0131,243.9531
20:23:21:329,0.1845,3.9199,10.6567,50.5863,0.1244,-0.8547,0.0202,244.1406
20:23:21:356,0.8405,3.4159,11.1188,51.2166,-0.1489,-0.6574,-0.0877,244.4062
20:23:21:371,0.7004,2.566,12.772,52.4332,-0.0983,-0.5697,-0.2461,244.5
20:23:21:389,0.4538,2.2523,13.1203,52.6784,0.1795,-0.6366,-0.3846,244.5938
20:23:21:406,0.315,2.3948,11.3714,51.7157,0.2996,-0.7197,-0.4398,244.7656
20:23:21:427,0.5376,2.7336,9.0514,51.3502,0.0208,-0.6814,-0.4515,245.1094
20:23:21:447,0.8141,2.4978,8.1284,52.2006,-0.4906,-0.6126,-0.5199,245.625
20:23:21:472,0.6059,1.977,9.4716,50.3181,-0.7446,-0.5682,-0.6193,246.25
20:23:21:492,-0.0562,1.4156,11.0529,51.1228,-0.5601,-0.5053,-0.6936,247.1719
20:23:21:509,-0.4955,1.2001,11.3726,50.5382,-0.1276,-0.4084,-0.7447,247.7969
20:23:21:528,-0.7924,1.1247,10.8099,50.5508,0.3571,-0.2219,-0.7817,248.5312
20:23:21:547,-1.0713,1.2384,9.4644,51.3101,0.7356,-0.0057,-0.7609,249.375
20:23:21:580,-1.2389,1.3569,7.9596,49.938,0.9697,0.0537,-0.6944,250.25
20:23:21:586,-1.3371,1.5078,6.5985,50.5717,1.0527,-0.0169,-0.5745,251.2188
20:23:21:606,-1.1072,1.5544,5.508,51.443,0.9891,-0.1389,-0.4467,252.125
20:23:21:626,-0.6475,1.6131,5.0627,51.0211,0.8362,-0.1809,-0.358,252.9531
20:23:21:647,-0.3494,1.7759,5.3631,50.7808,0.6639,-0.0696,-0.2672,253.6094
20:23:21:671,-0.2465,1.7975,5.9198,52.4275,0.4887,0.0662,-0.179,254.1719
20:23:21:690,-0.0562,1.9698,6.9325,50.5572,0.3121,0.1128,-0.1271,254.625
20:23:21:708,0.0683,2.2272,7.6652,51.777,0.2096,0.103,-0.1231,254.9219
20:23:21:726,-0.4153,2.4714,7.7789,51.7876,0.1563,0.1789,-0.1569,255.1094
20:23:21:748,-1.3035,2.463,8.478,52.2484,-0.028,0.3706,-0.1662,255.25
20:23:21:773,-1.8147,1.9974,10.2281,51.4137,-0.3406,0.5126,-0.0967,255.4062
20:23:21:791,-2.3259,1.5269,12.4045,51.5627,-0.5835,0.4926,-0.0688,255.5938
20:23:21:808,-3.4272,1.4156,13.4041,51.4884,-0.5627,0.2721,-0.1425,255.6094
20:23:21:826,-4.1886,1.7448,11.4899,52.4043,-0.273,0.1661,-0.1495,255.5156
20:23:21:848,-4.3262,1.7615,8.6791,52.2694,-0.1729,0.394,0.046,255.5312
20:23:21:870,-3.0465,0.8757,8.1847,53.4953,-0.5721,0.5616,0.3824,255.6406
20:23:21:888,-1.2556,-0.398,11.0338,51.0148,-1.2333,0.2987,0.6223,255.6562
20:23:21:907,-0.2249,-0.92,13.3442,53.6387,-1.4163,-0.2574,0.5339,255.3438
20:23:21:933,-0.8223,-0.2328,12.6834,52.1391,-0.9609,-0.4989,0.2636,254.5312
20:23:21:946,-1.6782,0.5285,9.8331,51.489,-0.3537,-0.116,0.1334,253.6406
20:23:21:968,-1.8614,0.9032,7.4042,52.797,-0.1207,0.4689,0.2455,253.0625
20:23:21:994,-1.774,0.9056,6.7506,53.5987,-0.3481,0.6167,0.372,252.8594
20:23:22:010,-1.4807,0.896,7.4593,52.8932,-0.7278,0.2753,0.4439,252.625
20:23:22:030,-1.1192,0.9715,8.3499,52.0064,-0.9372,-0.1916,0.4516,252.1719
20:23:22:046,-0.6607,1.2061,8.7126,53.2806,-0.8892,-0.414,0.4535,251.6094
20:23:22:068,-0.2764,1.4455,8.5211,53.0213,-0.6879,-0.3317,0.458,250.6562
20:23:22:087,-0.1411,1.643,8.1141,53.032,-0.4394,-0.1487,0.4404,250.0625
20:23:22:112,-0.1771,1.886,7.5203,54.1966,-0.2205,-0.023,0.4109,249.5
20:23:22:128,-0.201,2.1626,6.9732,54.2575,-0.0804,0.0505,0.3952,248.9531
20:23:22:147,-0.1902,2.3385,7.1612,52.1638,-0.0549,0.1019,0.4109,248.4688
20:23:22:171,-0.1172,2.4176,7.5814,54.5645,-0.0754,0.112,0.429,248.0156
20:23:22:187,0.1665,2.5038,8.3367,55.7938,-0.1063,0.0891,0.4423,247.5312
20:23:22:207,0.3353,2.6378,9.1867,54.4166,-0.1089,0.059,0.4151,247.0312
20:23:22:227,0.3269,2.7994,9.9636,55.3512,-0.0453,0.0606,0.3523,246.5
20:23:22:247,0.449,2.9395,10.4305,54.3104,0.0802,0.1277,0.2953,246.0469
20:23:22:270,0.6789,3.0939,10.7429,54.6617,0.2016,0.2388,0.2383,245.8281
20:23:22:287,0.6717,3.1155,11.436,55.6757,0.2498,0.3797,0.1414,245.4531
20:23:22:307,0.546,3.1047,12.0106,56.0088,0.3015,0.5014,0.0151,245.1562
20:23:22:328,0.1964,3.0029,12.4368,54.9387,0.3675,0.5922,-0.1143,244.8906
20:23:22:351,-0.4141,3.0053,12.7636,57.1798,0.4016,0.6092,-0.2296,244.875
20:23:22:373,-0.5242,3.0748,12.2381,57.101,0.1854,0.1629,-0.2954,245
20:23:22:389,-0.432,3.058,12.0813,55.7268,-0.188,-0.1556,-0.317,245
20:23:22:407,-0.3147,2.3397,13.3083,55.8825,-0.4365,-0.3554,-0.3348,245.6094
20:23:22:427,0.0061,1.2683,14.9986,55.9567,-0.314,-0.4201,-0.4086,245.6094
20:23:22:446,0.4442,0.7021,15.6019,57.2173,0.1358,-0.455,-0.5633,245.9688
20:23:22:473,0.4945,0.8398,13.8937,57.6942,0.5481,-0.3479,-0.7274,246.6406
20:23:22:489,0.0229,1.4886,10.9416,56.4574,0.6123,-0.1263,-0.7569,247.0781
20:23:22:506,-0.3614,1.7556,8.9197,55.6642,0.3803,-0.0217,-0.6824,247.75
20:23:22:526,-0.1926,1.5772,8.2984,55.3126,0.0961,-0.1772,-0.6368,248.6875
20:23:22:546,0.0241,1.2264,8.3188,55.3454,-0.0469,-0.4206,-0.6627,249.6406
20:23:22:567,0.2575,1.005,8.3271,56.7962,-0.0314,-0.5628,-0.7484,251.2031
20:23:22:588,-0.0968,0.8877,8.2493,55.4872,0.0794,-0.5106,-0.782,251.5938
20:23:22:607,-0.1615,0.9212,8.3008,56.3586,0.2575,-0.3474,-0.774,252.4219
20:23:22:630,-0.2908,0.9523,8.5019,55.7913,0.5255,-0.1527,-0.7612,253.3125
20:23:22:645,-0.3207,1.0888,8.2541,55.8036,0.8125,-0.0259,-0.77,254.25
20:23:22:724,-0.79,1.3102,7.5059,56.0202,0.9742,0.0574,-0.7181,255.2031
20:23:22:724,-1.2126,1.5556,6.972,54.7652,1.0152,0.0822,-0.5974,256.1719
20:23:22:725,-1.2018,1.6586,6.6201,54.4473,0.9441,0.0316,-0.4539,256.6094
20:23:22:726,-0.9288,1.734,6.5961,54.8794,0.8235,-0.0893,-0.3601,257.5469
20:23:22:750,-0.9612,1.7508,6.7637,55.1085,0.6522,-0.1764,-0.2648,258.3594
20:23:22:774,-0.9911,1.6969,7.4126,55.1492,0.4852,-0.1892,-0.1481,258.9688
20:23:22:791,-0.784,1.655,8.624,55.6857,0.4253,-0.1692,-0.0861,259.5
20:23:22:806,-0.93,1.6382,9.547,55.9434,0.4844,-0.129,-0.0432,259.8906
20:23:22:826,-1.282,1.6526,9.565,54.4156,0.5052,-0.0888,0.0524,260.1562
20:23:22:845,-1.1922,1.7412,8.727,55.4272,0.3483,-0.1287,0.1366,260.3281
20:23:22:867,-0.8271,1.6526,8.2158,54.0615,0.0253,-0.2198,0.1392,260.4844
20:23:22:890,-0.8031,1.4754,8.6288,54.6488,-0.2493,-0.2627,0.0702,260.4375
20:23:22:908,-1.4041,1.3617,9.3303,55.2344,-0.4016,-0.0699,0.0423,260.3281
20:23:22:926,-2.1223,1.4814,9.6272,55.1447,-0.5508,0.271,0.1299,260.2188
20:23:22:947,-2.6323,1.4635,9.6464,54.9238,-0.7851,0.4036,0.2995,260.1719
20:23:22:972,-2.1236,0.9176,9.869,55.2672,-1.0834,0.1807,0.397,260.0156
20:23:22:988,-1.1814,0.2388,11.2648,52.6605,-1.1335,-0.1865,0.3185,259.6562
20:23:23:007,-0.5937,0.0904,12.256,55.6484,-0.8525,-0.2907,0.1424,259.0625
20:23:23:026,-1.1395,0.762,11.3965,54.9046,-0.5268,0.0095,0.0479,258.5312
20:23:23:047,-2.8837,1.5185,8.1296,54.4501,-0.5316,0.4343,0.1672,258.1719
20:23:23:072,-2.3965,1.1702,8.7497,54.6938,-0.8141,0.5501,0.3805,258.0312
20:23:23:090,-1.871,1.0193,9.4357,53.9112,-1.003,0.2401,0.4711,257.8594
20:23:23:107,-1.1599,1.2647,9.3363,53.8671,-0.9414,-0.1729,0.4841,257.4219
20:23:23:125,-0.6332,1.667,8.2912,55.826,-0.7047,-0.3274,0.4702,256.7656
20:23:23:147,-0.3506,1.9794,7.3228,55.1801,-0.494,-0.1716,0.4673,256.4219
20:23:23:173,-0.353,2.1374,7.2785,55.843,-0.3792,0.063,0.4577,255.4844
20:23:23:190,-0.5937,2.1745,7.3563,55.6445,-0.257,0.1797,0.4402,254.8906
20:23:23:207,-0.6344,2.323,7.1241,53.7768,-0.0959,0.1743,0.4447,254.3125
20:23:23:226,-0.5134,2.5013,6.9074,54.4646,-0.0021,0.108,0.4737,253.7812
20:23:23:246,-0.3411,2.5217,7.5502,55.7294,-0.0192,0.0396,0.5062,253.25
20:23:23:273,-0.0789,2.3745,8.9975,54.7742,-0.0703,-0.0046,0.5185,252.7188
20:23:23:290,0.3341,2.3338,10.1013,55.0248,-0.0011,-0.0938,0.4822,252.1562
20:23:23:307,0.5424,2.4846,10.5849,54.0258,0.1625,-0.2126,0.3893,251.5938
20:23:23:326,0.3078,2.8342,10.9057,55.7354,0.3225,-0.2294,0.2886,251
20:23:23:346,0.376,3.0999,10.9129,54.479,0.4453,-0.0456,0.2679,250.5156
20:23:23:366,0.716,3.2196,10.944,54.479,0.4764,0.2007,0.3022,250.1875
20:23:23:390,0.789,2.9108,11.2816,53.4131,0.4147,0.3736,0.2689,249.9375
20:23:23:406,0.3197,2.5145,11.9711,55.2553,0.3262,0.4337,0.1664,249.6562
20:23:23:426,-0.1806,2.5684,12.4751,55.0736,0.2783,0.3967,0.0724,249.2344
20:23:23:446,-0.3937,2.7755,11.958,56.1887,0.286,0.2766,0.0412,249.0469
20:23:23:466,-0.2202,2.9131,11.5521,55.4553,0.1691,0.0388,0.0455,248.9688
20:23:23:492,0.1893,2.3086,11.9604,54.6726,-0.1103,-0.2912,0.0463,248.9375
20:23:23:511,0.6549,1.5568,13.1586,53.2154,-0.3712,-0.5764,-0.0017,248.9062
20:23:23:527,1.0871,1.1283,13.5776,54.3683,-0.3518,-0.7058,-0.1284,248.8594
20:23:23:546,1.2439,1.1678,12.4835,55.3177,-0.0876,-0.6576,-0.309,248.8594
20:23:23:567,0.6214,1.2432,10.8902,53.7596,0.1294,-0.4478,-0.501,249.0156
20:23:23:589,-0.1962,1.1965,9.8152,53.6439,0.1475,-0.158,-0.5913,249.4219
20:23:23:607,-0.4069,1.1103,9.3435,52.9057,0.0115,0.0636,-0.554,250.0469
20:23:23:627,-0.1663,1.0062,8.9101,52.9692,-0.1308,0.0737,-0.488,250.7031
20:23:23:648,0.0037,0.8386,8.8168,52.5177,-0.2,-0.0699,-0.4874,251.3438
20:23:23:672,0.1007,0.8805,8.6516,54.2379,-0.1252,-0.1471,-0.5383,251.875
20:23:23:690,-0.1471,1.0804,8.4672,52.6935,0.057,-0.0028,-0.5942,252.1406
20:23:23:706,-0.1998,1.2097,8.0997,51.873,0.2732,0.3315,-0.6043,252.6875
20:23:23:726,-0.2106,1.0361,7.9704,51.7843,0.502,0.6122,-0.571,253.6875
20:23:23:751,-0.517,1.0181,7.8327,51.7634,0.7313,0.699,-0.5734,254.3906
20:23:23:774,-1.027,1.2659,7.4604,51.5456,1.0733,0.6034,-0.5154,255.0156
20:23:23:790,-1.4256,1.5987,6.7709,52.2372,1.0903,0.5011,-0.3961,255.7031
20:23:23:806,-1.5034,1.9639,5.8204,52.6528,0.8927,0.2763,-0.2643,256.4219
20:23:23:825,-1.4364,2.2811,5.6205,51.4908,0.5369,0.0827,-0.1311,257.0781
20:23:23:848,-1.2628,2.3385,6.674,51.2709,0.2474,0.0063,-0.0291,258.0312
20:23:23:872,-1.2545,2.165,8.3367,49.226,0.1404,-0.0371,0.0375,258.0312
20:23:23:889,-1.3418,2.0536,9.4859,52.3597,0.146,-0.0872,0.0966,258.25
20:23:23:905,-1.543,1.9375,9.6691,51.1147,0.1087,-0.1333,0.1704,258.3281
20:23:23:924,-1.4699,1.7496,9.456,52.8008,-0.0959,-0.1884,0.2447,258.3125
20:23:23:944,-1.1527,1.2624,10.0067,50.2103,-0.3265,-0.3061,0.2125,258.2344
20:23:23:966,-0.9923,0.9942,11.3055,51.9781,-0.3705,-0.3463,0.0692,258.0781
20:23:23:989,-1.8171,0.8685,11.9196,52.2523,-0.2104,-0.1106,-0.0163,257.8125
20:23:24:006,-2.8514,1.0181,10.6112,51.4656,-0.2684,0.2798,0.1033,257.5
20:23:24:029,-3.3039,1.0098,9.444,50.4888,-0.6605,0.368,0.3459,257.4844
20:23:24:045,-2.2792,0.1802,9.9492,49.6435,-1.0078,0.0023,0.4194,257.4219
20:23:24:065,-1.288,-0.2831,11.2229,51.2007,-0.9934,-0.4025,0.2825,257.0625
20:23:24:089,-1.1072,0.2245,11.3043,50.7676,-0.7257,-0.3761,0.1725,256.4688
20:23:24:107,-1.44,1.1127,9.8475,49.22,-0.5209,0.0055,0.2098,255.9219
20:23:24:125,-1.677,1.4108,8.0829,49.704,-0.5912,0.3986,0.3185,255.7344
20:23:24:147,-1.7572,1.2803,7.9548,50.2364,-0.7769,0.5072,0.4063,255.4844
20:23:24:170,-1.5992,1.084,8.903,51.0256,-0.7843,0.2635,0.4252,255.1875
20:23:24:188,-1.1276,1.2791,9.231,50.6803,-0.6298,-0.1205,0.3781,254.7188
20:23:24:208,-0.8307,1.6227,8.4205,51.1031,-0.4999,-0.2917,0.343,254.1094
20:23:24:225,-0.7601,1.9016,7.719,49.4365,-0.4527,-0.2046,0.3762,253.5156
20:23:24:245,-0.7553,1.9507,7.8998,49.9569,-0.3579,-0.1213,0.4189,253
20:23:24:265,-0.6308,1.8585,7.9345,49.8323,-0.196,-0.1367,0.441,252.5469
20:23:24:288,-0.383,1.8418,7.4102,50.4684,-0.0852,-0.1689,0.4351,251.8438
20:23:24:307,-0.2273,1.9423,6.9876,48.4253,-0.0506,-0.1458,0.4207,251.3125
20:23:24:325,-0.3818,2.062,7.0726,49.7868,-0.0613,-0.0643,0.426,250.7969
20:23:24:347,-0.5218,2.1159,7.4856,48.0905,-0.0905,-0.015,0.4364,250.3125
20:23:24:364,-0.7265,2.1219,8.1895,49.2771,-0.1009,-0.0539,0.4556,249.8438
20:23:24:386,-0.7289,1.9998,8.9832,49.0192,-0.0799,-0.1298,0.4641,249.3438
20:23:24:412,-0.4344,2.0225,9.8965,48.0842,0.0152,-0.2116,0.4412,248.8281
20:23:24:425,0.0085,2.074,10.3347,48.3319,0.1529,-0.2374,0.3805,248.3125
20:23:24:446,0.4454,2.2392,10.9033,48.2078,0.2069,-0.1397,0.3137,247.7969
20:23:24:469,0.4766,2.0548,11.7485,47.3219,0.2011,-0.0017,0.2508,247.3438
20:23:24:490,0.534,1.7771,12.5314,48.627,0.2091,0.0982,0.1757,247
20:23:24:505,0.5412,1.7855,12.5852,47.5703,0.2615,0.1086,0.0663,246.7031
20:23:24:525,0.3269,2.0848,11.8347,45.3816,0.2759,0.0303,-0.0656,246.4688
20:23:24:550,-0.0047,2.0596,11.3163,46.306,0.0655,0.0351,-0.117,246.3594
20:23:24:573,0.133,1.1426,12.7289,46.4146,-0.4075,0.1149,-0.0738,246.4531
20:23:24:591,0.5556,-0.0305,15.3122,43.6024,-0.7787,0.0148,-0.0589,246.5938
20:23:24:608,1.3708,-0.3262,15.7767,43.7179,-0.6083,-0.3077,-0.1801,246.625
20:23:24:634,1.3816,0.2532,13.3634,46.2772,-0.0738,-0.5,-0.4304,246.5938
20:23:24:644,0.4921,0.9116,10.3658,43.8113,0.3212,-0.2968,-0.6278,246.625
20:23:24:667,-0.0538,0.999,9.0382,42.6758,0.3055,0.1533,-0.6281,246.9531
20:23:24:692,-0.2369,0.7739,9.055,42.7896,0.0583,0.385,-0.5346,247.5781
20:23:24:708,-0.3602,0.5321,9.6499,43.4429,-0.1438,0.2247,-0.492,248.375
20:23:24:728,-0.049,0.3346,9.5446,42.5809,-0.1244,-0.0574,-0.4858,249.0312
20:23:24:802,-0.0095,0.5046,8.818,42.0225,0.0746,-0.2294,-0.5271,249.5938
20:23:24:803,-0.2369,0.671,8.2936,41.0106,0.2855,-0.1556,-0.579,250.0938
20:23:24:803,-0.4392,0.7572,7.7765,42.0013,0.4751,0.0044,-0.5777,250.6719
20:23:24:819,-0.4093,0.7428,7.4844,41.7658,0.629,0.0822,-0.5426,251.3438
20:23:24:824,-0.2992,0.7847,7.1767,41.7299,0.743,0.039,-0.5143,252.0156
20:23:24:844,-0.6583,0.9583,7.1133,42.1254,0.804,-0.0275,-0.5199,252.7344
20:23:24:866,-1.0545,1.1319,7.391,42.2352,0.8101,-0.014,-0.4832,253.75
20:23:24:888,-1.367,1.2324,7.6137,41.4581,0.788,0.035,-0.391,254.4062
20:23:24:904,-1.3287,1.3031,8.1189,40.0837,0.7265,0.0145,-0.2587,255.0469
20:23:24:925,-0.9492,1.3677,8.8694,40.5645,0.6344,-0.0917,-0.1404,255.5938
20:23:24:949,-0.8079,1.5066,9.4309,40.1255,0.5832,-0.2188,-0.0824,255.9531
20:23:24:965,-0.8019,1.661,9.4297,39.5194,0.5712,-0.2659,-0.0414,256.2031
20:23:24:984,-0.8151,1.7915,9.2453,39.8493,0.5289,-0.231,0.0143,256.375
20:23:25:007,-1.0162,1.5963,9.9277,39.9658,0.3643,-0.1338,0.0705,256.5156
20:23:25:027,-0.9743,1.254,10.616,39.6548,0.2115,-0.0963,0.115,256.5781
20:23:25:053,-1.0593,1.0624,10.9213,39.0004,0.1561,-0.1223,0.0836,256.5625
20:23:25:073,-1.7812,1.2707,10.2952,38.5658,0.1856,-0.1165,-0.0121,256.4688
20:23:25:093,-2.758,1.6035,9.2046,39.6882,0.1712,0.079,-0.0054,256.4062
20:23:25:108,-3.493,1.6646,8.2194,37.3975,-0.0442,0.3283,0.2031,256.4531
20:23:25:125,-2.5401,1.1007,8.2457,38.8633,-0.4709,0.4745,0.5784,256.4688
20:23:25:147,-0.7277,0.1466,9.8726,38.495,-0.9254,0.2649,0.837,256.375
20:23:25:173,0.036,0.1071,11.2756,39.1192,-0.8551,-0.61,0.5419,255.4375
20:23:25:190,-0.1711,0.6782,10.7513,37.1195,-0.5547,-0.3418,0.4761,254.3281
20:23:25:207,-0.4548,0.9738,9.1496,38.7598,-0.531,0.1932,0.5368,252.7812
20:23:25:224,-0.7253,0.7117,8.7366,38.818,-0.6884,0.3738,0.5821,252.7812
20:23:25:244,-0.7852,0.4232,9.2896,37.7704,-0.7963,0.1789,0.5826,252.2188
20:23:25:264,-0.292,0.3394,9.8427,37.511,-0.7049,-0.1767,0.5086,251.5312
20:23:25:293,0.3784,0.7141,9.5422,37.988,-0.466,-0.378,0.3653,250.8125
20:23:25:308,0.4873,1.3342,8.3044,38.767,-0.2373,-0.2965,0.2766,250.0312
20:23:25:325,0.5532,1.8501,7.0846,37.6251,-0.1023,-0.0757,0.2396,249.4062
20:23:25:344,0.5436,2.1638,6.401,37.6837,-0.057,0.1107,0.2111,248.9688
20:23:25:364,0.3449,2.3661,6.3304,37.3114,-0.0562,0.1602,0.1983,248.6562
20:23:25:388,0.1426,2.5181,6.7063,37.7311,-0.0479,0.1091,0.1978,248.375
20:23:25:404,0.0396,2.6259,7.4425,37.3649,0.013,0.039,0.201,248.125
20:23:25:424,-0.0538,2.7252,7.7262,37.3649,0.0597,0.0154,0.2162,247.8906
20:23:25:444,-0.1783,2.8294,8.1859,37.2797,0.0562,-0.0046,0.254,247.5469
20:23:25:467,-0.2262,2.8162,8.8587,37.6238,0.0455,-0.0393,0.3035,247.3125
20:23:25:486,0.0073,2.6977,9.7936,37.5727,0.0589,-0.0954,0.3288,247.0625
20:23:25:505,0.3676,2.6019,10.9392,37.1161,0.1851,-0.1905,0.2977,246.75
20:23:25:524,0.6561,2.5887,11.1224,36.577,0.2855,-0.1713,0.2391,246.3906
20:23:25:545,0.7148,2.5492,11.1643,37.4268,0.2748,-0.0877,0.1949,246.0625
20:23:25:565,0.7734,2.2787,11.606,37.3994,0.2157,-0.0174,0.135,245.7812
20:23:25:588,0.8477,1.892,12.3662,36.4973,0.1936,-0.0257,0.0327,245.5781
20:23:25:606,0.7914,1.7915,12.6367,36.3553,0.2509,-0.0912,-0.0669,245.4062
20:23:25:625,0.7675,2.1183,11.6347,37.6133,0.1507,-0.0933,-0.088,245.3594
20:23:25:646,0.9039,2.3936,10.792,38.1667,-0.2005,-0.0947,-0.056,245.3281
20:23:25:665,1.4103,1.7915,11.5186,37.2255,-0.5523,-0.1399,-0.0909,245.4375
20:23:25:690,1.5611,0.7284,13.6387,38.229,-0.5127,-0.3029,-0.2299,245.5625
20:23:25:709,1.9023,0.3154,14.5425,36.6809,-0.0898,-0.4108,-0.4398,245.6094
20:23:25:725,1.943,0.8218,12.7217,36.7134,0.2727,-0.1972,-0.6025,245.6875
20:23:25:745,1.5432,1.5137,9.9073,35.2222,0.2597,0.193,-0.6256,246.125
20:23:25:765,1.2463,1.5616,8.3703,36.5411,-0.0381,0.4492,-0.6033,246.7656
20:23:25:788,0.8321,1.2755,8.63,37.5521,-0.302,0.381,-0.6059,247.5156
20:23:25:807,0.5735,1.0146,9.5386,37.7602,-0.322,0.2026,-0.6262,248.2031
20:23:25:824,0.4012,0.6997,10.0641,37.325,-0.1127,0.0673,-0.6472,248.8125
20:23:25:845,0.2527,0.9032,8.6252,36.3293,0.1673,0.0356,-0.7383,249.4688
20:23:25:865,-0.1615,1.1079,7.9225,37.807,0.3798,0.0846,-0.7737,250.1562
20:23:25:888,-0.2537,1.1355,7.8088,36.786,0.5084,0.1509,-0.7346,250.9219
20:23:25:907,-0.3542,1.2133,7.6292,38.5891,0.6408,0.1376,-0.6864,251.8125
20:23:25:925,-0.7636,1.4156,7.2665,35.7221,0.7798,0.0976,-0.647,252.7188
20:23:25:944,-1.0007,1.6346,7.1061,37.2574,0.8597,0.0944,-0.5708,253.5312
20:23:25:964,-1.1754,1.7244,7.251,37.0602,0.8551,0.1362,-0.4504,254.3594
20:23:25:990,-1.2066,1.7867,7.4652,38.4037,0.7782,0.1173,-0.3199,255.1406
20:23:26:009,-1.0845,1.661,8.3092,37.0108,0.6283,0.0228,-0.1881,255.8125
20:23:26:024,-0.9851,1.576,9.292,38.1311,0.4911,-0.0848,-0.0936,256.5
20:23:26:044,-0.8558,1.5999,9.6464,36.1103,0.4551,-0.1524,-0.0219,256.7812
20:23:26:066,-0.9312,1.6215,9.2836,37.832,0.4578,-0.1389,0.025,256.9375
20:23:26:091,-1.0294,1.5497,9.4177,37.2765,0.3518,-0.0534,0.0692,257.0312
20:23:26:106,-1.1407,1.2599,9.8738,37.8875,0.1752,0.022,0.1001,257.0625
20:23:26:125,-1.6088,0.9487,10.2078,37.703,0.0059,0.0723,0.0846,257.0625
20:23:26:144,-2.3031,0.8805,9.6512,36.7428,-0.1164,0.1546,0.0686,257
20:23:26:165,-2.4743,0.7225,9.0322,38.5388,-0.3433,0.2833,0.148,256.8906
20:23:26:189,-1.7752,0.1179,9.3914,36.9214,-0.7441,0.2566,0.2886,256.7188
20:23:26:208,-0.8008,-0.6375,11.0661,37.9404,-1.1521,-0.0832,0.3613,256.5
20:23:26:224,-0.0274,-0.7943,12.2261,37.975,-1.237,-0.5732,0.2945,256.0469
20:23:26:245,-0.4033,-0.2556,11.4468,37.4218,-0.9593,-0.7165,0.1464,255.5156
20:23:26:264,-1.6962,0.1957,9.8343,37.9361,-0.6474,-0.2909,0.0814,255.1094
20:23:26:289,-2.8035,0.1802,8.8551,38.4208,-0.6016,0.3637,0.2047,254.9219
20:23:26:308,-2.5784,-0.0377,9.2717,38.0032,-0.8477,0.6116,0.4497,254.7969
20:23:26:325,-1.9799,-0.0449,10.0234,38.8224,-1.0701,0.2675,0.581,254.4844
20:23:26:344,-1.2509,0.4136,10.3562,37.687,-1.0253,-0.3,0.5746,253.875
20:23:26:366,-0.8103,1.1067,9.4357,38.3913,-0.7137,-0.5261,0.5224,253.4844
20:23:26:390,-0.3949,1.5951,8.0841,38.8742,-0.334,-0.3018,0.5126,252.7031
20:23:26:406,-0.2621,1.9986,7.0499,40.223,-0.0549,0.0481,0.507,252.0156
20:23:26:424,-0.541,2.2907,6.4848,38.6044,0.0943,0.2806,0.4751,251.4219
20:23:26:444,-0.6619,2.4942,6.4669,40.3848,0.1579,0.3472,0.4764,250.8281
20:23:26:464,-0.5601,2.6235,6.9206,38.8742,0.1848,0.3552,0.5227,250.25
20:23:26:490,-0.4536,2.6055,7.7968,38.7288,0.1926,0.4287,0.5856,249.4688
20:23:26:508,-0.0717,2.4619,8.794,39.8432,0.1942,0.4465,0.6428,248.8906
20:23:26:524,0.2479,2.4331,9.6607,38.9772,0.2091,0.3203,0.6338,248.2188
20:23:26:550,0.1869,2.5145,10.1456,38.666,0.3513,-0.1397,0.4825,247.5156
20:23:26:563,0.3676,2.7408,10.3155,39.6688,0.4288,-0.2435,0.4303,247.5156
20:23:26:585,0.7459,2.9527,10.1731,39.6989,0.4405,-0.1524,0.3723,246.7969
20:23:26:610,0.8644,2.9754,10.6615,40.3331,0.4144,0.0268,0.3062,246.1875
20:23:26:628,0.9841,2.821,11.6371,39.7563,0.4549,0.1456,0.2013,245.7031
20:23:26:652,0.8285,2.5899,12.1902,41.3076,0.5063,0.1591,0.0694,244.9062
20:23:26:665,0.4454,2.6486,12.0142,41.0764,0.4884,0.001,-0.0464,244.5938
20:23:26:685,0.0755,3.0544,10.8339,41.3295,0.2242,-0.1753,-0.0611,244.4062
20:23:26:709,0.1426,3.2783,10.5598,40.2277,-0.1949,-0.2486,-0.0123,244.4844
20:23:26:729,0.4239,2.6881,11.2696,41.7234,-0.5997,-0.2124,0.0404,244.5781
20:23:26:744,0.8513,1.3952,13.3514,40.2063,-0.69,-0.2009,0.0101,244.6094
20:23:26:768,1.5887,0.5046,15.1662,42.3035,-0.3206,-0.2558,-0.1585,244.5625
20:23:26:790,2.1118,0.2628,14.3581,43.1564,0.1318,-0.231,-0.4283,244.4688
20:23:26:808,2.0065,0.7392,11.6228,42.164,0.2919,-0.015,-0.6328,244.5
20:23:26:878,1.3301,1.1618,9.5398,43.35,0.1656,0.2822,-0.6904,244.8438
20:23:26:878,0.8094,1.2432,8.6599,43.724,-0.0205,0.4095,-0.6773,245.1406
20:23:26:879,0.5496,1.1139,8.2063,43.8196,-0.1555,0.3371,-0.6768,245.8906
20:23:26:895,0.2108,0.7691,8.7198,43.177,-0.119,0.2108,-0.6797,246.6406
20:23:26:912,0.1725,0.6123,8.7617,44.5523,0.0424,0.0902,-0.7109,247.375
20:23:26:925,0.0217,0.5345,8.132,43.5367,0.1563,0.0239,-0.701,248.1094
20:23:26:944,0.3329,0.58,7.9285,46.1059,0.2565,-0.0278,-0.7135,248.8281
20:23:26:964,0.4694,0.4747,7.9692,43.9195,0.3995,-0.0891,-0.7428,249.6406
20:23:26:984,0.6394,0.5261,7.8842,45.0729,0.567,-0.1168,-0.8046,250.4531
20:23:27:006,0.5113,0.8063,7.6161,45.6232,0.686,-0.0443,-0.8573,252.1719
20:23:27:024,-0.1819,1.0972,7.5909,45.0873,0.7462,0.1147,-0.8363,253.1562
20:23:27:044,-1.1611,1.4778,7.7561,43.1479,0.8024,0.2292,-0.7085,253.6875
20:23:27:066,-1.7764,1.8777,7.4569,43.7275,0.767,0.1653,-0.5367,254.7031
20:23:27:090,-2.1966,2.2224,6.8535,46.8462,0.567,-0.0747,-0.3425,255.6719
20:23:27:108,-2.3474,2.384,6.808,46.4101,0.2477,-0.2997,-0.1263,256.4688
20:23:27:125,-2.023,2.2404,7.9836,48.1718,0.004,-0.386,0.0354,257.0469
20:23:27:150,-1.8602,1.7053,9.8235,46.3756,-0.0256,-0.3343,0.1563,257.375
20:23:27:163,-1.4101,1.3964,10.9644,47.6492,0.0802,-0.2579,0.2146,257.4688
20:23:27:184,-0.8642,1.2252,10.9979,45.5814,0.1704,-0.1953,0.1533,257.3906
20:23:27:209,-1.0007,1.2599,10.4604,44.185,0.135,-0.0725,0.0862,257.2031
20:23:27:229,-1.2832,1.1702,10.197,46.7218,0.0522,0.0774,0.0335,257.0312
20:23:27:246,-2.6551,1.0217,9.2238,45.8058,-0.0711,0.2193,0.0399,256.9219
20:23:27:265,-2.576,0.7177,8.9101,46.1917,-0.3206,0.3336,0.2071,256.875
20:23:27:290,-1.95,0.0509,10.1348,48.5896,-0.6898,0.3581,0.4063,256.8281
20:23:27:308,-1.9117,-0.2735,11.7233,46.3591,-0.9308,0.1919,0.4591,256.7812
20:23:27:324,-1.7656,0.1203,11.3319,48.0155,-0.8203,-0.0688,0.454,256.2031
20:23:27:343,-1.2353,0.5968,9.5027,47.1435,-0.6136,-0.1298,0.5011,255.5781
20:23:27:364,-1.021,0.671,8.5187,47.8576,-0.6368,0.0289,0.5723,254.9531
20:23:27:390,-0.8786,0.4675,9.067,49.1336,-0.8605,0.1581,0.6191,254.3438
20:23:27:408,-0.6739,0.3969,9.9456,48.2133,-1.0008,0.1157,0.6303,253.7031
20:23:27:425,-0.3913,0.7213,9.6787,47.5085,-0.8783,-0.0009,0.5864,252.9219
20:23:27:443,-0.0741,1.1857,8.4133,47.1205,-0.6349,-0.0891,0.5387,252.0781
20:23:27:463,0.2276,1.5269,7.6927,48.0129,-0.4887,-0.0683,0.5086,251.2656
20:23:27:491,0.1581,1.7735,7.476,48.0129,-0.4136,-0.0339,0.4617,250.5781
20:23:27:507,-0.049,1.8034,7.7681,49.9047,-0.3081,-0.0028,0.4231,249.9219
20:23:27:526,-0.0406,1.9291,7.8052,49.1999,-0.131,0.0145,0.4234,249.3125
20:23:27:543,-0.0011,2.0896,7.4928,49.5479,0.0517,-0.0017,0.421,248.7969
20:23:27:564,0.0085,2.3014,7.4748,47.589,0.1265,0.0106,0.4367,248.2969
20:23:27:591,-0.0921,2.3948,8.1811,48.588,0.0983,0.022,0.4415,247.5781
20:23:27:609,-0.1423,2.3433,9.0311,49.866,0.0938,-0.007,0.4484,247.1094
20:23:27:627,0.1282,2.22,9.796,49.2388,0.1473,-0.0499,0.4583,246.6094
20:23:27:643,0.4945,2.2476,10.3658,49.0688,0.2304,-0.1098,0.43,246.1094
20:23:27:663,0.7842,2.4942,10.4951,50.9094,0.3236,-0.2097,0.3488,245.625
20:23:27:684,0.9255,2.572,10.6268,50.3922,0.3686,-0.2651,0.2535,245.1719
20:23:27:708,1.3457,2.5971,11.3151,49.04,0.3353,-0.1969,0.1848,244.8125
20:23:27:724,1.2271,2.4044,12.1244,49.7737,0.3087,-0.0691,0.0793,244.5781
20:23:27:744,0.7292,2.1913,12.9384,50.1518,0.3124,0.0665,-0.0563,244.4219
20:23:27:765,0.2922,2.323,12.772,50.4831,0.3497,0.1272,-0.1489,244.3594
20:23:27:790,0.1091,2.4187,12.2644,50.3647,0.2847,0.0659,-0.1732,244.4531
20:23:27:808,0.3557,1.9591,12.3925,50.8243,0.0226,-0.0984,-0.1383,244.5312
20:23:27:824,1.1158,0.9463,13.6674,51.1172,-0.2882,-0.3085,-0.1047,244.75
20:23:27:849,2.198,0.428,14.6167,51.4642,-0.3406,-0.5088,-0.1798,244.9531
20:23:27:862,2.4661,0.58,13.3634,51.7896,0.0064,-0.5996,-0.4054,245.0938
20:23:27:883,2.0172,1.2216,10.7872,51.2587,0.4016,-0.349,-0.6459,245.2188
20:23:27:910,1.4091,1.5473,9.0334,50.9809,0.4884,0.1267,-0.7543,245.8438
20:23:27:928,0.6597,1.4204,9.0131,53.2756,0.2757,0.5016,-0.7652,246.6406
20:23:27:945,0.1007,1.1271,9.2202,50.6414,-0.0621,0.2462,-0.6954,247.4844
20:23:27:963,0.3808,0.9332,8.8694,51.9259,-0.0402,-0.0411,-0.7173,248.3594
20:23:27:983,0.3964,0.8326,8.4229,50.1251,0.0658,-0.1421,-0.7721,249.1719
20:23:28:008,0.2216,0.8254,8.211,50.7735,0.2442,-0.0443,-0.787,249.9062
20:23:28:025,-0.0358,0.9236,7.9585,51.5964,0.4666,0.1022,-0.7732,250.7188
20:23:28:044,-0.3183,1.0529,7.4198,50.2854,0.6594,0.1488,-0.7194,251.625
20:23:28:063,-0.3183,1.1031,6.9852,52.5813,0.7649,0.0899,-0.6667,252.5
20:23:28:085,-0.1998,1.2576,6.7757,51.4362,0.7944,0.0209,-0.6411,253.4375
20:23:28:107,-0.4524,1.4,6.9134,52.2083,0.7998,0.018,-0.5921,254.3125
20:23:28:125,-0.8714,1.6873,7.2833,53.2066,0.8016,0.1118,-0.476,255.1562
20:23:28:143,-1.2221,1.9962,7.3455,52.997,0.7209,0.2113,-0.3063,256.6875
20:23:28:164,-1.3083,2.0776,7.7382,51.8737,0.5848,0.2052,-0.1431,257.0312
20:23:28:192,-1.258,1.9686,8.5199,51.1482,0.4922,0.079,-0.0235,257.5312
20:23:28:210,-1.0043,1.8813,9.0933,53.3144,0.4517,-0.0555,0.046,257.8281
20:23:28:227,-0.8079,1.9974,8.909,51.7563,0.3356,-0.0986,0.0982,257.9531
20:23:28:243,-0.4692,2.232,8.5594,54.0108,0.0977,-0.1104,0.1443,258
20:23:28:265,0.0205,2.1506,8.7437,53.8287,-0.1736,-0.1698,0.1422,257.9688
20:23:28:282,0.7854,2.062,9.7098,53.2181,-0.3119,-0.2243,0.0159,257.9375
20:23:28:303,0.7842,1.9962,10.2174,52.1639,-0.367,-0.0137,-0.1729,257.7969
20:23:28:324,-0.5254,1.8453,10.1719,53.33,-0.5515,0.4867,-0.2104,257.6406
20:23:28:343,-2.1295,1.06,11.0386,53.4761,-0.8069,0.7349,-0.1151,257.625
20:23:28:366,-2.9531,-0.2197,12.7217,53.4443,-0.8916,0.3789,-0.0445,257.7812
20:23:28:382,-2.7987,-1.2659,14.0182,54.2053,-0.6501,-0.3969,-0.0943,257.8906
20:23:28:403,-2.4743,-0.8757,13.1108,53.2984,-0.2693,-0.7381,-0.1596,257.8438
20:23:28:428,-2.7029,0.2747,10.5202,53.919,-0.0722,-0.4334,-0.0382,257.7344
20:23:28:443,-2.7293,1.0277,8.2972,52.486,-0.1473,0.0649,0.1901,257.9062
20:23:28:466,-2.5318,1.1726,6.9337,53.6476,-0.4362,0.1999,0.4037,258.0781
20:23:28:491,-1.7189,0.9619,6.8966,52.1627,-0.7241,-0.0744,0.4748,258.0156
20:23:28:509,-1.1754,0.9798,7.5909,53.3104,-0.8096,-0.3428,0.4796,257.6094
20:23:28:527,-0.7289,1.066,8.0626,52.3529,-0.6879,-0.3442,0.487,257.0469
20:23:28:543,-0.286,1.254,7.8699,53.2881,-0.5073,-0.1357,0.4764,256.4219
20:23:28:563,-0.0717,1.4527,7.6137,52.3736,-0.3443,0.0303,0.4447,255.8125
20:23:28:584,-0.1806,1.6335,7.2605,53.1009,-0.212,0.0319,0.4093,255.2188
20:23:28:609,-0.3758,1.8669,6.7111,53.0272,-0.1665,-0.0379,0.421,254.6719
20:23:28:626,-0.1447,2.0991,6.5411,53.2525,-0.2037,-0.0725,0.4354,254.1562
20:23:28:644,0.2371,2.4259,8.2721,52.3659,-0.2413,-0.0539,0.4356,253.6719
20:23:28:663,0.7399,2.6091,9.1029,51.1546,-0.1902,-0.0859,0.4042,253.1875
20:23:28:683,1.0703,3.0436,9.5757,50.5278,-0.0629,-0.1173,0.2985,252.6719
20:23:28:708,0.7316,3.5045,9.8008,53.4016,0.082,-0.0486,0.1323,252.1562
20:23:28:724,0.0971,3.8744,10.3862,51.7825,0.1545,0.1331,0.0093,251.9375
20:23:28:743,-0.2992,3.7739,11.7197,52.355,0.138,0.3006,-0.0216,251.5156
20:23:28:763,-0.5314,3.3166,13.3274,52.0088,0.1246,0.3578,-0.0161,251.4531
20:23:28:783,-1.0198,2.7743,14.3737,52.1632,0.2213,0.254,-0.0371,251.4844
20:23:28:809,-1.258,2.396,14.5437,52.6901,0.4085,0.1341,-0.0355,251.4844
20:23:28:826,-1.1671,2.3661,13.5645,51.5206,0.5976,0.0537,0.0063,251.5156
20:23:28:842,-0.699,2.6642,12.3566,51.0909,0.6533,0.0039,0.0865,251.5781
20:23:28:863,-0.1854,2.3697,12.3877,52.3135,0.448,0.0505,0.192,251.6562
20:23:28:947,0.1869,1.1833,13.1898,50.5366,0.1678,0.088,0.2649,251.6719
20:23:28:947,0.5316,0.1682,14.1965,51.0907,0.0202,0.0819,0.2687,251.5781
20:23:28:948,0.6465,-0.2101,13.3298,51.245,0.183,-0.0174,0.1874,251.3438
20:23:28:948,0.8429,0.1945,10.6567,50.6556,0.4322,-0.0835,0.0838,251.0312
20:23:28:964,1.2068,0.5944,8.4804,49.7394,0.4096,-0.1114,0.0367,250.7656
20:23:28:984,1.287,0.6051,7.9991,51.0073,0.1087,-0.1109,-0.0081,250.6562
20:23:29:008,1.2152,0.6746,8.3152,49.8067,-0.1699,-0.105,-0.1079,250.6562
20:23:29:026,0.5005,0.7225,8.2733,48.8864,-0.2085,-0.0291,-0.2675,250.7031
20:23:29:043,0.1079,1.1103,7.7645,51.0362,-0.0304,0.0918,-0.3734,250.8125
20:23:29:063,-0.2214,1.4527,6.2825,48.7459,0.2511,0.2071,-0.4246,251.0938
20:23:29:082,-0.28,1.6933,5.2602,49.1924,0.4091,0.2332,-0.436,251.5
20:23:29:107,-0.274,1.916,5.174,49.1909,0.3627,0.153,-0.4288,252
20:23:29:124,-0.4608,2.0572,5.8863,49.0443,0.2727,0.0398,-0.4249,252.4844
20:23:29:143,-0.6451,2.0165,6.9624,49.3432,0.2282,0.022,-0.3921,253
20:23:29:163,-0.62,1.9579,7.7047,49.9559,0.2871,0.0082,-0.3276,253.5156
20:23:29:182,-0.4847,2.0321,7.8519,49.1924,0.3984,0.0079,-0.2715,254
20:23:29:206,-0.4404,2.2631,7.7777,48.6742,0.473,0.0473,-0.2248,254.375
20:23:29:222,-0.5482,2.4619,7.7023,47.3754,0.4661,0.1224,-0.1809,254.5625
20:23:29:244,-0.8175,2.5612,7.9991,47.9857,0.3912,0.1647,-0.1298,254.9062
20:23:29:262,-1.0234,2.663,8.6145,49.2258,0.2743,0.1493,-0.0603,255.1719
20:23:29:284,-1.0055,2.6702,8.9892,48.7441,0.172,0.0659,0.0385,255.375
20:23:29:306,-0.8474,2.5911,9.2381,48.1008,0.0626,0.01,0.1288,255.5156
20:23:29:326,-0.7708,2.2117,10.0079,47.588,-0.143,0.0036,0.2029,255.5156
20:23:29:342,-0.7098,1.5149,11.1272,48.0096,-0.343,-0.0313,0.2292,255.375
20:23:29:364,-1.0916,1.0457,11.8682,47.0681,-0.3443,-0.0371,0.0633,255.125
20:23:29:383,-2.2433,0.9224,11.3439,47.1332,-0.3539,0.1908,0.1216,254.8438
20:23:29:408,-2.6383,0.7943,10.5981,47.9191,-0.5678,0.3275,0.2979,254.6094
20:23:29:425,-1.9583,0.1347,10.4604,45.5844,-0.8804,0.1522,0.3922,254.5
20:23:29:442,-0.9839,-0.5441,11.6946,45.5924,-0.9422,-0.2387,0.2862,254.2812
20:23:29:462,-0.6032,-0.5501,12.5002,46.4234,-0.644,-0.496,0.0772,253.8594
20:23:29:484,-1.0414,0.4423,11.3714,46.7504,-0.2863,-0.3333,0.0042,253.2812
20:23:29:510,-1.6279,1.2408,8.9844,46.3296,-0.2312,0.083,0.1113,252.8594
20:23:29:526,-1.8674,1.485,7.1684,47.5003,-0.5457,0.3663,0.278,252.7344
20:23:29:545,-1.6232,1.0038,7.3383,46.6764,-0.9473,0.2609,0.3624,252.7188
20:23:29:563,-1.2999,0.5058,8.8299,46.3566,-1.0892,-0.0891,0.3597,252.1562
20:23:29:584,-0.7828,0.4519,9.9696,46.3566,-0.9217,-0.3823,0.3019,251.9062
20:23:29:609,-0.4249,0.7632,9.8894,46.5219,-0.5979,-0.3543,0.2505,251.3438
20:23:29:627,-0.3447,1.1654,8.8862,45.8838,-0.3321,-0.1418,0.2596,250.8594
20:23:29:643,-0.0813,1.4084,7.907,46.4902,-0.1521,-0.035,0.2615,250.4688
20:23:29:664,0.0779,1.5664,7.1863,46.4427,-0.041,-0.0395,0.2314,250.1562
20:23:29:685,0.0037,1.831,6.5243,46.7371,-0.0186,-0.0765,0.2396,249.8281
20:23:29:707,0.0492,2.0129,6.2358,44.3487,-0.0796,-0.0947,0.274,249.5312
20:23:29:727,0.1869,2.135,6.5028,46.1169,-0.1699,-0.0827,0.2982,249.4219
20:23:29:745,0.0504,2.1913,7.6448,45.2834,-0.2021,-0.0355,0.3166,249.1562
20:23:29:762,-0.2381,2.1674,9.2142,46.0204,-0.0919,0.0031,0.3304,248.8281
20:23:29:783,-0.5589,2.2368,9.8451,43.8097,0.0219,-0.0044,0.3683,248.4688
20:23:29:808,-0.4919,2.3074,10.2126,44.2133,0.0714,-0.08,0.3914,248.1094
20:23:29:825,-0.3016,2.3218,10.6244,45.9155,0.0927,-0.215,0.3906,247.7188
20:23:29:844,0.0241,2.3122,11.0901,46.0913,0.0908,-0.2614,0.3757,247.3125
20:23:29:863,0.3521,2.1542,12.0082,46.2653,0.1052,-0.215,0.3451,246.6719
20:23:29:883,0.6454,1.9028,12.7792,45.2462,0.1726,-0.1346,0.2655,246.25
20:23:29:909,0.8177,1.7568,13.1203,44.6085,0.2376,-0.0161,0.1701,245.8438
20:23:29:925,0.801,1.7951,13.003,45.6878,0.241,0.0867,0.0734,245.5312
20:23:29:944,0.5795,1.8549,12.4631,44.8902,0.0634,0.2295,0.03,245.2969
20:23:29:962,0.2551,1.4994,12.5553,44.2639,-0.2471,0.3384,0.0348,245.1875
20:23:29:983,0.0253,0.2915,14.0397,44.0324,-0.3835,0.2169,0.0141,245.1562
20:23:30:010,0.4718,-0.7213,15.8366,43.8534,-0.0506,-0.1919,-0.1385,245.0938
20:23:30:025,1.1972,-0.6985,14.7879,43.5452,0.4607,-0.4406,-0.4065,245.0156
20:23:30:047,0.552,0.8326,9.0454,44.2502,0.6618,-0.2398,-0.5426,245.0312
20:23:30:063,0.3772,0.92,8.3954,42.0783,0.5055,0.1512,-0.5295,245.3594
20:23:30:086,0.3928,0.6422,8.7461,43.2483,0.2455,0.2883,-0.4845,246.0156
20:23:30:108,0.5328,0.5501,9.0263,43.1419,0.0935,0.0817,-0.5103,246.7031
20:23:30:125,0.6633,0.5369,8.9808,43.964,0.0969,-0.1516,-0.5713,247.2656
20:23:30:141,0.5915,0.7428,8.5163,44.9144,0.2264,-0.1908,-0.6398,247.5469
20:23:30:170,0.3832,0.9248,7.9333,43.4271,0.3854,-0.0638,-0.6802,248.4531
20:23:30:181,0.1641,0.9655,7.2186,43.3547,0.5497,0.1011,-0.677,249.1406
20:23:30:202,0.3772,1.0481,6.5614,42.8739,0.6573,0.1656,-0.6374,249.9375
20:23:30:229,0.2024,1.2528,6.2981,43.1902,0.6876,0.1195,-0.6499,250.7656
20:23:30:245,-0.2453,1.5461,6.4609,43.1776,0.6722,0.0846,-0.6605,251.5781
20:23:30:262,-0.7888,1.7508,6.6991,43.4448,0.6666,0.1157,-0.6254,252.3281
20:23:30:283,-0.9468,1.8477,6.9589,43.7577,0.678,0.168,-0.521,253.1406
20:23:30:311,-0.699,1.9662,7.0522,43.4314,0.694,0.1749,-0.3884,253.9531
20:23:30:326,-0.541,1.892,7.8268,43.0555,0.6322,0.1618,-0.281,254.6562
20:23:30:343,-0.3075,1.8501,8.8647,42.95,0.5308,0.1434,-0.2041,255.2344
20:23:30:367,-0.3662,1.8932,9.4752,43.5571,0.4754,0.0715,-0.182,255.6719
20:23:30:382,-0.6643,1.8848,9.6045,43.8071,0.4581,0.026,-0.1844,255.9844
20:23:30:402,-1.0689,1.8932,9.2872,42.1736,0.4171,0.0835,-0.1588,256.2344
20:23:30:429,-1.4675,1.6849,9.3219,44.8027,0.2637,0.1786,-0.1146,256.5
20:23:30:445,-1.8195,1.236,10.0211,43.5934,0.0285,0.1829,-0.0752,256.8438
20:23:30:463,-2.3558,0.6482,10.5418,43.5341,-0.1127,0.0947,-0.0946,256.9844
20:23:30:483,-2.8849,0.1454,10.5107,43.5753,-0.1321,0.1541,-0.1236,257.0469
20:23:30:509,-3.3374,-0.2065,9.1125,43.3258,-0.0802,0.3333,-0.1356,257.1406
20:23:30:524,-3.2249,-0.0509,8.0817,42.5826,-0.1963,0.3978,-0.0794,257.2344
20:23:30:542,-1.7955,0.4064,7.9692,42.3296,-0.4671,0.1935,0.0407,257.3281
20:23:30:562,-0.4213,0.4998,8.9844,42.2173,-0.7587,-0.1069,0.0665,257.3438
20:23:30:584,-0.608,0.7428,9.9492,42.0208,-0.8589,-0.2686,-0.0877,257.2188
20:23:30:601,-1.8063,1.1965,10.2688,43.629,-0.8053,-0.0475,-0.2046,257.0469
20:23:30:622,-2.7568,1.2013,10.3958,42.9429,-0.8051,0.4348,-0.0954,257.0469
20:23:30:643,-2.8035,0.8326,10.6878,41.8299,-0.9127,0.6833,0.131,257.1719
20:23:30:667,-2.2085,0.5644,11.0242,42.4172,-1.0176,0.385,0.3054,257.125
20:23:30:690,-1.015,0.817,10.7944,41.7874,-0.833,-0.5751,0.3515,256.25
20:23:30:705,-0.3351,1.4766,9.8822,41.7634,-0.5784,-0.5301,0.2921,255.9844
20:23:30:725,-0.4225,2.1326,8.5678,43.0579,-0.3683,-0.2816,0.3019,255.4375
20:23:30:743,-0.7325,2.5325,7.2749,42.7849,-0.3007,-0.0555,0.3946,255.4375
20:23:30:763,-0.7445,2.4415,6.5542,40.5064,-0.339,0.0012,0.4687,254.7969
20:23:30:784,-0.5865,2.3864,6.9421,42.3063,-0.3425,-0.0723,0.4761,253.9531
20:23:30:810,-0.7026,2.1769,7.8316,41.7447,-0.2205,-0.1815,0.4804,253.3594
20:23:30:824,-0.7086,2.2452,8.3068,41.7532,-0.0682,-0.2105,0.5043,253.3594
20:23:30:842,-0.5853,2.3338,8.4361,42.0898,0.0224,-0.1298,0.5217,252.8125
20:23:30:861,-0.6032,2.3984,8.8215,43.1834,0.0458,-0.0598,0.5334,252.2344
20:23:30:881,-0.535,2.3745,9.5733,42.3664,0.0612,-0.1229,0.5257,251.6562
20:23:30:902,-0.3854,2.3493,10.3119,42.8818,0.0959,-0.3389,0.4934,251.0625
20:23:30:925,-0.128,2.6642,10.6447,43.2086,0.069,-0.5439,0.4628,250.4844
20:23:30:941,0.2778,2.6498,11.7137,43.0652,0.0013,-0.6441,0.4431,249.8906
20:23:31:021,0.9494,2.1626,13.9823,42.2131,0.126,-0.5775,0.3331,249.3594
20:23:31:022,1.2008,1.5365,15.8928,42.3699,0.5468,-0.3295,0.1496,248.875
20:23:31:022,0.9279,1.5509,15.1578,43.054,0.9422,-0.1,-0.0041,248.4062
20:23:31:022,0.6789,2.2009,12.6092,42.6404,0.9015,0.0678,-0.0525,247.9688
20:23:31:050,0.479,2.4978,10.9201,42.8487,0.4794,0.16,-0.0352,247.9844
20:23:31:061,0.4562,1.9842,11.3211,40.0474,0.066,0.1155,-0.0472,248.125
20:23:31:087,0.443,0.981,12.6942,40.6248,-0.0352,-0.0587,-0.1055,248.2344
20:23:31:109,0.9746,0.331,13.6507,41.4849,0.2333,-0.2251,-0.2813,248.2812
20:23:31:121,1.3121,0.5585,12.1878,42.3843,0.4794,-0.2057,-0.4738,248.3594
20:23:31:144,1.3552,1.1295,9.8283,42.3708,0.4485,-0.0393,-0.5985,248.5781
20:23:31:162,1.1445,1.5844,8.1871,41.7527,0.228,0.177,-0.6525,249.0625
20:23:31:182,0.625,1.6382,7.2881,43.1286,-0.0538,0.3349,-0.6382,249.3594
20:23:31:208,0.0552,1.3737,8.0937,40.4713,-0.1531,0.4247,-0.5961,250.0938
20:23:31:225,-0.3459,0.8446,9.2645,41.3343,0.0498,0.4026,-0.5657,250.8594
20:23:31:242,-0.3135,0.6602,9.1256,40.5289,0.3249,0.2345,-0.5841,251.5469
20:23:31:261,-0.0981,0.7703,8.0494,39.7766,0.4855,0.0154,-0.6427,252.1406
20:23:31:282,-0.1256,0.9104,7.8076,42.8473,0.6088,-0.0851,-0.6861,252.7656
20:23:31:310,-0.1627,1.0385,7.8471,40.4632,0.8264,-0.0342,-0.7157,253.7969
20:23:31:330,-0.45,1.321,7.2067,42.5072,1.0085,0.1205,-0.6967,254.625
20:23:31:344,-0.8151,1.6969,6.425,39.8944,1.0594,0.2601,-0.6142,255.5312
20:23:31:366,-1.2173,2.0369,5.9138,40.3445,0.9683,0.3163,-0.4709,256.4531
20:23:31:381,-1.373,2.3469,5.769,39.9112,0.7646,0.2486,-0.3021,257.2812
20:23:31:403,-1.2509,2.4618,6.091,40.5126,0.4956,0.0718,-0.1625,258
20:23:31:428,-0.8546,2.4247,7.2821,41.9477,0.3001,-0.1298,-0.0973,258.5156
20:23:31:443,-0.7325,2.4535,9.7062,40.6119,0.253,-0.194,-0.0611,258.8281
20:23:31:467,-0.8151,2.5612,9.6033,38.4195,0.3196,-0.0707,-0.0038,259.0156
20:23:31:480,-1.1886,2.6151,9.5482,39.65,0.2948,0.144,0.0641,259.1719
20:23:31:502,-1.3347,2.1255,10.3072,39.8729,0.0932,0.2233,0.1528,259.2656
20:23:31:525,-1.5501,1.4587,11.6814,37.4388,-0.1246,0.0662,0.1757,259.2812
20:23:31:544,-2.2061,1.4395,11.6,39.2477,-0.114,-0.1532,0.0846,259.1562
20:23:31:561,-2.8909,1.7783,10.4963,39.101,0.0037,-0.0744,0.0537,258.9219
20:23:31:582,-3.2189,2.0058,8.8359,37.7925,-0.0306,0.1749,0.1909,258.75
20:23:31:601,-2.5222,1.5401,8.6899,39.1943,-0.3574,0.2833,0.4535,258.6875
20:23:31:625,-1.6842,0.7596,10.452,36.716,-0.8056,0.1256,0.6306,258.4375
20:23:31:642,-1.0821,0.653,11.6228,37.6601,-0.9177,-0.1948,0.5919,257.8438
20:23:31:661,-0.7134,1.2396,10.1348,37.6601,-0.6437,-0.3192,0.4697,257
20:23:31:683,-0.9935,1.7891,7.8591,38.3145,-0.4155,-0.0526,0.3659,256.5938
20:23:31:710,-1.3849,1.6598,7.7573,36.6546,-0.5862,0.4068,0.3672,255.9062
20:23:31:727,-1.5777,1.3366,9.2034,37.4554,-0.9284,0.6052,0.4186,255.4375
20:23:31:745,-1.519,1.1558,9.9373,38.4932,-1.0338,0.4433,0.4135,254.9531
20:23:31:761,-1.2365,1.3928,9.3758,37.0489,-0.8836,0.1144,0.3624,254.3281
20:23:31:781,-0.9456,1.8046,8.3535,38.2681,-0.6477,-0.1287,0.3081,253.6875
20:23:31:802,-0.7696,2.0919,7.9369,35.4035,-0.4551,-0.1442,0.2945,253.0625
20:23:31:825,-0.4739,2.1925,7.5335,37.0677,-0.2527,-0.0177,0.3232,252.5781
20:23:31:841,-0.0753,2.3481,6.8116,36.2228,-0.0421,0.0686,0.3408,252.2031
20:23:31:866,0.0707,2.5444,6.3675,36.9603,0.0828,0.0798,0.3262,251.8125
20:23:31:880,-0.0214,2.7575,6.6177,37.06,0.1044,0.0433,0.3081,251.4062
20:23:31:900,-0.0083,2.7563,7.6292,35.5674,0.0668,0.0207,0.319,250.8594
20:23:31:935,-0.122,2.7946,8.405,36.8996,0.0716,0.0119,0.3211,250.5156
20:23:31:940,-0.3913,2.7288,9.5446,35.439,0.0535,-0.0073,0.3177,250.1562
20:23:31:960,-0.5577,2.6474,10.5585,37.91,0.0815,-0.0848,0.3272,249.7969
20:23:31:980,-0.3794,2.809,10.6615,36.5369,0.1942,-0.2118,0.3379,249.4531
20:23:32:003,-0.0538,3.1023,10.2138,35.9745,0.2988,-0.3764,0.3288,249.1094
20:23:32:024,0.2108,3.3836,10.2353,34.9181,0.2956,-0.4409,0.3107,248.7656
20:23:32:044,0.5113,3.2867,10.9189,35.1332,0.2064,-0.3855,0.3051,248.4688
20:23:32:061,0.6358,2.9658,11.9723,36.0123,0.1433,-0.305,0.2633,248.2031
20:23:32:081,0.8501,2.7456,12.681,35.0894,0.188,-0.2536,0.1752,247.9219
20:23:32:103,1.0572,2.9419,11.788,35.4191,0.3721,-0.267,0.0255,247.6719
20:23:32:126,0.862,3.562,10.7513,35.9745,0.4645,-0.2049,-0.1359,247.5156
20:23:32:140,0.5568,3.708,10.2401,34.278,-0.0842,0.0257,-0.1689,247.5625
20:23:32:162,0.8034,3.0951,11.2864,34.9955,-0.4416,-0.0118,-0.17,247.6562
20:23:32:182,1.0655,1.9279,13.0737,34.278,-0.5233,-0.182,-0.2781,247.6562
20:23:32:206,1.4702,1.1283,14.6251,34.3623,-0.236,-0.3426,-0.488,248.2188
20:23:32:224,1.5647,1.0864,13.7704,34.6235,0.1457,-0.259,-0.6967,248.375
20:23:32:241,1.1409,1.6167,11.4241,35.5506,0.2796,-0.002,-0.7955,248.6406
20:23:32:261,0.6011,1.746,9.6823,34.5829,0.2093,0.0934,-0.8102,249.2188
20:23:32:280,0.3066,1.7137,8.8491,34.4567,0.0977,-0.0129,-0.8313,250.0469
20:23:32:300,-0.1028,1.6275,8.1356,35.0844,-0.0027,-0.1293,-0.7982,250.9375
20:23:32:328,-0.2645,1.4264,8.2003,33.4252,0.0027,-0.1029,-0.7633,251.875
20:23:32:345,-0.3363,1.1929,8.5821,34.3423,0.1878,0.0105,-0.7482,252.8438
20:23:32:362,-0.3913,1.1917,8.1775,32.6147,0.4163,0.0859,-0.7484,253.7812
20:23:32:380,-0.5039,1.4204,7.4281,33.779,0.5667,0.0553,-0.7306,254.6094
20:23:32:401,-0.6751,1.6718,6.978,33.1297,0.633,-0.0177,-0.673,255.5
20:23:32:427,-0.675,1.8358,6.8978,33.806,0.6586,-0.0614,-0.5886,256.8281
20:23:32:442,-0.6188,1.9315,7.0894,35.9073,0.69,-0.0667,-0.5023,257.6562
20:23:32:460,-0.7217,2.0177,7.1911,33.0662,0.7105,-0.0347,-0.3982,258.4531
20:23:32:480,-0.705,2.1494,7.0044,35.3182,0.6666,-0.0496,-0.284,259.1719
20:23:32:501,-0.7241,2.4176,6.6536,33.1919,0.4924,-0.1255,-0.1766,259.75
20:23:32:526,-0.7253,2.6199,7.0726,34.3282,0.2751,-0.202,-0.0704,260.2188
20:23:32:543,-0.869,2.6654,8.3906,33.2918,0.1862,-0.2267,0.034,260.5625
20:23:32:565,-1.0306,2.6354,9.4369,33.5979,0.1963,-0.2219,0.164,260.7656
20:23:32:581,-0.8211,2.5827,9.954,33.0612,0.1926,-0.2004,0.2572,260.8125
20:23:32:601,-0.6954,2.3948,10.1276,34.1614,0.1156,-0.1602,0.3049,260.8438
20:23:32:625,-0.8271,2.0967,10.4939,34.2417,0.0027,-0.1548,0.3107,260.7031
20:23:32:643,-1.1647,1.8777,11.187,33.4159,-0.0013,-0.1367,0.282,260.4688
20:23:32:660,-1.6663,1.9148,10.8207,33.9389,0.0045,0.0087,0.2836,260.1562
20:23:32:681,-2.0469,2.2703,9.6308,33.7122,-0.2021,0.2268,0.3627,259.8281
20:23:32:702,-2.497,2.2787,9.1328,33.4102,-0.5926,0.3059,0.5272,259.5312
20:23:32:726,-2.2457,1.4323,10.2892,33.0605,-0.882,0.1256,0.6431,259.0156
20:23:32:743,-1.2916,0.6051,11.8921,35.1192,-0.8112,-0.206,0.5603,258.4375
20:23:32:760,-0.4177,0.5776,12.365,33.4974,-0.4386,-0.263,0.3584,257.6562
20:23:32:786,-0.6679,1.2899,10.4029,34.3859,-0.1744,0.1272,0.2609,256.8594
20:23:32:800,-1.2988,1.8214,7.9656,31.745,-0.2762,0.6151,0.3137,256.3125
20:23:32:822,-2.0098,1.9327,7.1707,34.8217,-0.5899,0.8079,0.4663,255.9688
20:23:32:844,-1.3454,1.4443,8.8515,35.5048,-0.7806,0.5858,0.5629,255.6094
20:23:32:862,-0.7469,1.57,8.8575,35.3331,-0.7377,0.2337,0.585,255.0312
20:23:32:881,-0.274,1.8585,8.3319,31.8718,-0.5521,0.0212,0.5603,254.2656
20:23:32:901,0.0169,2.1326,7.7154,33.5897,-0.3417,0.051,0.5432,253.5
20:23:32:926,0.1605,2.2643,7.2055,32.8935,-0.1499,0.2074,0.5432,252.7656
20:23:32:943,0.1737,2.4319,6.7913,33.4868,-0.0109,0.3408,0.5453,252.0938
20:23:32:961,0.1737,2.5672,6.5291,33.9571,0.069,0.3762,0.5467,251.4375
20:23:32:981,0.1474,2.6809,6.5614,31.6355,0.0634,0.3296,0.5557,250.7969
20:23:33:001,0.1761,2.7695,7.2534,32.6515,-0.0133,0.2167,0.5539,249.8125
20:23:33:024,0.0887,2.8282,8.2326,32.7084,-0.0783,0.1208,0.5352,249.1875
20:23:33:086,0.1067,2.8521,9.1567,33.776,-0.0743,0.0769,0.5187,248.5312
20:23:33:086,0.3856,3.0041,9.808,32.615,-0.0037,0.0692,0.5025,248.2031
20:23:33:101,0.6465,3.3178,9.7757,33.3262,0.1268,0.0436,0.4415,247.5938
20:23:33:101,0.7447,3.7308,9.2741,32.4645,0.2234,-0.0057,0.3597,247.0156
20:23:33:124,1.0691,4.0636,9.4417,34.361,0.151,-0.0749,0.3046,246.4688
20:23:33:142,1.2104,3.8457,10.8782,34.8711,-0.0551,-0.1668,0.2433,246.0312
20:23:33:164,1.2882,3.3034,12.687,32.6844,-0.1862,-0.2009,0.14,245.6875
20:23:33:181,0.9985,3.2029,13.4914,31.3383,-0.0863,-0.1956,-0.0294,245.3906
20:23:33:200,0.3317,3.4494,12.3482,33.3731,0.172,-0.1977,-0.2153,245.1719
20:23:33:224,0.1701,4.2611,11.284,32.2124,0.2245,-0.1402,-0.2557,245.1562
20:23:33:242,0.5412,4.0456,11.3175,32.3775,-0.0328,-0.1183,-0.1758,245.4531
20:23:33:261,1.4845,3.1873,12.4452,34.1006,-0.3776,-0.1881,-0.0736,245.7812
20:23:33:281,2.2495,2.3338,13.1622,32.5635,-0.5169,-0.3658,-0.1473,245.9844
20:23:33:301,2.2662,1.995,13.185,30.7931,-0.4288,-0.5325,-0.3929,246.0469
20:23:33:324,1.6689,2.0333,12.2177,32.1609,-0.1995,-0.509,-0.6648,246.2031
20:23:33:341,0.9255,1.9854,11.1284,31.7778,-0.0269,-0.3141,-0.8382,246.6719
20:23:33:366,0.2192,1.6322,10.8494,34.0411,-0.004,-0.1298,-0.9021,247.4219
20:23:33:380,-0.0095,1.3581,10.5358,30.7447,0.0048,-0.1112,-0.9039,248.4062
20:23:33:401,-0.2872,1.3533,9.565,32.1729,0.1252,-0.2925,-0.9348,248.9219
20:23:33:428,-0.7768,1.4491,8.624,31.2943,0.3001,-0.3921,-0.9756,249.9844
20:23:33:447,-1.0665,1.5018,7.8076,31.1933,0.4868,-0.2369,-0.9226,250.9844
20:23:33:463,-0.9516,1.4587,7.2115,32.0607,0.6269,-0.0275,-0.8123,252.1562
20:23:33:483,-0.6619,1.4455,6.8164,30.9709,0.7183,-0.0121,-0.7098,253.3125
20:23:33:500,-0.5984,1.5904,6.2681,32.4001,0.7768,-0.1522,-0.6645,254.7969
20:23:33:521,-0.6727,1.7376,6.4345,31.8495,0.7414,-0.297,-0.6291,255.6719
20:23:33:543,-0.6739,1.831,6.9206,30.9767,0.6999,-0.1298,-0.4509,256.5156
20:23:33:561,-0.7481,1.9794,7.1396,31.7735,0.7097,0.0289,-0.3346,257.2969
20:23:33:587,-0.7636,2.1781,7.1277,31.9291,0.641,0.1296,-0.2243,258.6094
20:23:33:601,-1.0737,2.2859,7.2689,31.04,0.4394,0.2577,-0.0613,258.6094
20:23:33:624,-1.6351,2.244,8.4014,30.9613,0.1872,0.3693,0.1951,259.0469
20:23:33:645,-0.9923,2.0177,10.0594,31.4054,0.0429,0.2028,0.3475,259.3281
20:23:33:660,-0.3447,1.9375,10.7992,30.5417,-0.0245,-0.1253,0.3568,259.3906
20:23:33:679,-0.0585,1.8453,10.7549,32.4557,-0.1105,-0.288,0.3344,259.125
20:23:33:700,0.1928,1.8178,10.6459,31.7482,-0.1792,-0.2574,0.2436,258.7188
20:23:33:725,-0.3135,1.8669,10.458,31.7482,-0.1981,-0.0997,0.1866,258.3281
20:23:33:742,-0.9791,1.8106,9.3471,31.6572,-0.3542,0.1272,0.2665,257.75
20:23:33:759,-0.7589,1.5987,8.6767,32.8404,-0.6887,0.1498,0.3102,257.5312
20:23:33:780,-0.7086,0.9751,9.213,31.2686,-1.0014,-0.0424,0.2447,257.375
20:23:33:800,-1.1623,0.4962,10.9572,32.6398,-1.0346,-0.2726,0.172,256.9688
20:23:33:825,-1.3646,0.7356,12.0286,31.8408,-0.787,-0.3074,0.1169,256.5781
20:23:33:843,-1.6327,1.2779,11.2193,32.8332,-0.5609,-0.1093,0.1688,256.2656
20:23:33:860,-1.2952,1.734,9.5518,33.5995,-0.5776,0.1863,0.2063,256.0781
20:23:33:881,-1.7692,1.9363,8.7892,32.8447,-0.7899,0.3626,0.279,256.0156
20:23:33:905,-1.756,1.6813,9.8594,33.135,-0.8413,0.2564,0.323,255.7969
20:23:33:927,-1.5011,1.5353,10.5849,32.3449,-0.5942,0.0215,0.3171,255.5
20:23:33:943,-1.0473,1.8405,9.462,32.7029,-0.2828,-0.0741,0.3139,255.0781
20:23:33:960,-0.5434,2.1458,7.3922,31.9291,-0.1822,0.013,0.3459,254.6406
20:23:33:980,0.0085,2.3577,6.5088,33.0162,-0.1742,0.0912,0.3475,254.2344
20:23:34:001,0.4083,2.3074,6.5566,31.9412,-0.0983,0.1192,0.2961,253.8594
20:23:34:026,0.5699,2.3517,6.8152,32.4041,0.0652,0.1666,0.2332,253.0625
20:23:34:042,0.5544,2.4966,7.1516,31.5291,0.2605,0.2641,0.1858,252.875
20:23:34:060,0.4251,2.6642,7.4808,32.3412,0.424,0.3938,0.1762,252.5625
20:23:34:080,0.3054,3.052,7.3,31.713,0.4442,0.5032,0.1746,252.3281
20:23:34:100,-0.1232,3.4554,7.4593,33.3008,0.3425,0.5299,0.1866,252.125
20:23:34:125,-0.7253,3.6637,8.1967,33.4544,0.233,0.5419,0.2575,251.9375
20:23:34:143,-1.118,3.5656,9.4381,31.6186,0.2005,0.5043,0.3603,251.7188
20:23:34:159,-1.2497,3.5165,10.7154,34.0236,0.2666,0.3935,0.4724,251.4688
20:23:34:180,-0.5506,3.4626,11.0158,32.676,0.3057,0.1687,0.4844,251.0781
20:23:34:201,0.1641,3.5129,10.8255,33.2554,0.2237,-0.1082,0.385,250.5781
20:23:34:225,0.5663,3.41,11.1415,32.4221,0.1582,-0.2848,0.2447,250.0469
20:23:34:243,1.0931,3.1107,12.2908,32.9803,0.1731,-0.214,0.1459,249.5625
20:23:34:268,1.3504,3.2029,11.6742,32.2445,0.2546,-0.0558,0.0599,249.25
20:23:34:279,1.5551,3.3597,10.8016,32.1182,0.1896,0.0513,-0.0014,249.0781
20:23:34:301,1.7096,2.7982,11.6838,32.6316,-0.1601,0.0643,-0.0584,249.0156
20:23:34:323,1.7886,1.667,14.2384,34.0079,-0.5222,-0.0254,-0.1556,249
20:23:34:340,1.9945,1.2133,15.2572,33.8564,-0.4163,-0.1903,-0.3255,249.0312
20:23:34:360,1.9885,1.7699,12.5374,32.7618,0.1372,-0.2595,-0.5511,249.1719
20:23:34:380,1.712,2.4331,9.5973,33.3968,0.4783,-0.1112,-0.7223,249.3125
20:23:34:399,0.9889,2.5756,8.5151,33.267,0.3667,0.1677,-0.8163,250.2031
20:23:34:420,-0.0346,2.1961,9.5901,33.8107,0.0048,0.4106,-0.8438,250.5938
20:23:34:441,-0.5793,1.5281,10.7345,33.9183,-0.1891,0.4353,-0.8185,251.5312
20:23:34:460,-0.6763,1.3007,10.4329,33.8683,-0.0716,0.2782,-0.7929,252.4688
20:23:34:480,-0.7325,1.4084,8.6528,34.7229,0.2181,0.0255,-0.8137,253.3594
20:23:34:501,-0.7098,1.7244,7.0295,33.9308,0.4115,-0.157,-0.8294,254.1719
20:23:34:524,-0.9276,1.8753,6.2107,33.1055,0.4575,-0.1341,-0.8091,255.0781
20:23:34:545,-0.9588,1.9495,6.3723,33.9431,0.4509,0.0204,-0.734,256.0781
20:23:34:561,-1.1,1.8896,6.832,33.9909,0.5209,0.2076,-0.6667,257.0469
20:23:34:580,-1.3897,2.0417,6.9218,34.7668,0.7063,0.3983,-0.6259,258
20:23:34:602,-1.7979,2.3362,6.2406,35.0409,0.9254,0.5437,-0.5716,258.8438
20:23:34:625,-1.92,2.6893,5.5008,35.4163,0.9787,0.6652,-0.4456,259.9688
20:23:34:644,-2.199,2.9814,5.9533,35.1343,0.7904,0.6862,-0.3031,260.6875
20:23:34:662,-2.3953,2.9108,7.4485,34.0167,0.4818,0.6028,-0.1292,261.25
20:23:34:679,-2.1607,2.7288,8.4086,35.7469,0.2831,0.43,0.0537,261.6094
20:23:34:702,-1.8614,2.6534,8.8994,33.1147,0.1553,0.202,0.1871,261.7344
20:23:34:724,-1.8039,2.554,9.0538,34.5613,0.0389,-0.0089,0.2668,261.6562
20:23:34:740,-1.7644,2.3338,9.6835,34.6567,-0.1443,-0.1266,0.3451,261.4375
