Time,Acc_X,Acc_Y,Acc_Z,Meg,Gyr_X,Gyr_Y,Gyr_Z,Ore
20:50:04:674,-1.8698,1.6598,10.124,60.2238,0.3995,-1.2047,0.083,192.2031
20:50:04:702,-1.6782,1.752,9.9995,59.4799,0.531,-1.1383,0.0956,192.2031
20:50:04:713,-1.4628,1.8334,9.3124,60.4896,0.4892,-0.7873,0.0758,192.2031
20:50:04:734,-1.4699,1.9734,8.8012,59.4676,0.2171,-0.3684,0.0516,189.0156
20:50:04:761,-1.4915,2.1075,8.9173,57.8046,-0.0866,-0.0968,0.0271,189.0625
20:50:04:775,-1.5789,2.1398,9.2944,60.8448,-0.2269,-0.0869,-0.0011,189.0781
20:50:04:798,-1.6459,2.1374,9.8954,60.1291,-0.1547,-0.3021,-0.0081,189.0469
20:50:04:815,-1.4663,2.0512,10.021,59.1335,0.0522,-0.4696,0.0066,189.0469
20:50:04:831,-1.27,2.0955,9.9025,58.9709,0.2178,-0.5335,0.0226,189.0469
20:50:04:851,-1.0402,2.1183,9.5985,58.5517,0.2631,-0.4124,0.021,189.0781
20:50:04:873,-1.0246,2.1374,9.0753,60.1893,0.1899,-0.2076,0.0167,189.125
20:50:04:901,-1.0964,2.1745,8.8527,60.1893,0.0517,-0.0941,0.0186,189.1719
20:50:04:910,-1.1575,2.1231,9.1436,58.9348,-0.0426,-0.1205,0.0316,189.2031
20:50:04:934,-1.1072,2.0357,9.4883,58.8466,-0.0168,-0.2134,0.0564,189.2031
20:50:04:975,-1.0689,1.9926,9.5374,59.0592,0.0831,-0.3253,0.0764,189.2031
20:50:04:976,-0.7529,2.0967,9.5039,58.0339,0.1696,-0.4049,0.0857,189.1875
20:50:04:999,-0.3279,2.1003,9.5973,58.4288,0.2269,-0.4065,0.0356,189.1406
20:50:05:016,0.3425,1.7568,9.7421,59.3447,0.2671,-0.4443,-0.1087,189.1094
20:50:05:030,0.5424,1.4228,10.1731,60.1928,0.3782,-0.5024,-0.3436,189.0625
20:50:05:051,0.4323,1.3629,10.306,58.2413,0.5678,-0.5588,-0.5932,189.25
20:50:05:073,-0.292,2.0117,10.2353,59.0102,0.8006,-0.4667,-0.7628,189.4375
20:50:05:091,-0.9372,2.7013,10.1312,59.0885,1.032,-0.1365,-0.7948,190.0469
20:50:05:112,-1.2952,2.8234,9.7864,60.3734,1.2054,0.4646,-0.664,191.4219
20:50:05:131,-1.4915,3.234,8.6348,60.4598,1.2195,1.0034,-0.4509,191.8594
20:50:05:156,-1.9823,3.7655,6.5088,59.8168,0.9135,0.3501,-0.1884,192.7031
20:50:05:176,-1.5717,3.6853,6.802,59.3077,0.4069,-0.3303,-0.0091,193.25
20:50:05:194,-1.1359,3.5189,7.4497,58.6899,0.02,-0.0467,0.0497,193.5
20:50:05:219,-1.1946,3.6027,8.1703,60.7759,-0.2402,0.0042,0.1387,193.5781
20:50:05:230,-0.9767,3.4626,8.7665,59.072,-0.3318,0.0247,0.2002,193.6719
20:50:05:251,-0.875,3.2783,9.0466,61.38,-0.3113,-0.0214,0.2215,193.625
20:50:05:279,-0.8582,3.295,9.1663,59.6512,-0.2642,-0.0632,0.2319,193.4531
20:50:05:296,-0.8391,3.3645,9.3327,58.6914,-0.229,-0.0576,0.2439,193.2188
20:50:05:313,-0.7577,3.3704,9.3016,59.025,-0.1973,-0.0214,0.2537,192.9531
20:50:05:340,-0.6535,3.3345,9.1771,61.1342,-0.1808,0.0074,0.2423,192.7031
20:50:05:350,-0.62,3.2603,9.1005,59.5334,-0.196,0.0223,0.2095,192.1406
20:50:05:371,-0.6224,3.2459,9.1328,58.6943,-0.2272,0.0518,0.1717,192
20:50:05:394,-0.6918,3.2065,9.316,57.9985,-0.2453,0.079,0.1453,191.7344
20:50:05:415,-0.7505,3.1466,9.3782,58.2337,-0.2186,0.1109,0.1328,191.5156
20:50:05:431,-0.8666,3.0987,9.3998,59.1038,-0.1569,0.0857,0.1392,191.3125
20:50:05:453,-0.9121,3.0508,9.2633,59.6778,-0.0791,0.0273,0.1523,191.1406
20:50:05:476,-0.9013,3.0891,9.1184,58.3615,-0.0325,-0.0286,0.1717,190.2969
20:50:05:494,-0.7864,3.1753,9.0801,59.6137,-0.0221,-0.0736,0.1832,190.1094
20:50:05:512,-0.6619,3.2292,9.1496,58.3861,-0.0133,-0.0859,0.1685,189.9375
20:50:05:531,-0.5865,3.2483,9.2298,58.7486,0.017,-0.1029,0.1336,189.7344
20:50:05:552,-0.6272,3.1933,9.1472,58.9573,0.0567,-0.1106,0.1001,189.5469
20:50:05:580,-0.7014,3.2352,9.0334,58.863,0.0767,-0.1343,0.0849,189.3906
20:50:05:596,-0.6559,3.2519,9.0574,57.866,0.0868,-0.1642,0.0812,189.2812
20:50:05:616,-0.5733,3.2938,9.0466,59.3592,0.0975,-0.1586,0.0724,189.2031
20:50:05:632,-0.4799,3.3286,8.8838,59.9913,0.1012,-0.1447,0.0447,189.1406
20:50:05:651,-0.4201,3.3908,8.6683,58.8583,0.073,-0.1487,0.0061,189.0781
20:50:05:677,-0.4739,3.3549,8.7366,59.8232,0.0218,-0.1452,-0.0323,189.0312
20:50:05:694,-0.5889,3.2471,8.9377,60.5893,-0.0029,-0.116,-0.0488,188.7188
20:50:05:710,-0.7098,3.1957,8.8228,58.9696,-0.0083,-0.0659,-0.0461,188.7969
20:50:05:731,-0.857,3.2388,8.7066,60.2076,-0.045,-0.0598,-0.0267,188.8594
20:50:05:751,-0.8271,3.2471,8.7737,59.0173,-0.1079,-0.0254,0.0061,188.9062
20:50:05:776,-0.7158,3.2471,8.9269,59.8278,-0.1694,0.0311,0.0236,188.9531
20:50:05:793,-0.6403,3.3429,9.3471,58.502,-0.2043,0.1043,0.0244,188.9688
20:50:05:810,-0.5302,3.1741,9.5231,60.19,-0.1787,0.2659,0.0234,188.9531
20:50:05:831,-0.5948,2.985,9.1543,58.214,-0.1673,0.5498,0.0463,188.9062
20:50:05:851,-0.7373,3.0987,8.5821,59.3521,-0.2386,0.8266,0.0923,188.8438
20:50:05:879,-0.614,3.1837,8.1452,59.2517,-0.3665,1.0313,0.1078,188.7344
20:50:05:897,-0.1004,3.5225,8.0327,61.1923,-0.5409,1.2918,0.0367,188.5156
20:50:05:913,-0.0598,3.6697,8.1308,59.1663,-0.6999,1.4625,-0.1449,188.2188
20:50:05:930,-0.4344,3.5165,8.6923,59.5674,-0.7143,1.2873,-0.3521,187.8906
20:50:05:951,-0.8211,3.234,9.2477,59.8024,-0.5388,0.9616,-0.4965,187.6406
20:50:05:969,-1.1072,2.9024,9.389,61.2596,-0.2634,0.5642,-0.5782,187.7656
20:50:05:990,-1.4161,2.42,9.2896,60.364,-0.0056,0.1256,-0.6121,188.125
20:50:06:010,-1.8829,1.8681,9.9839,59.341,0.1656,0.0116,-0.5426,188.6562
20:50:06:030,-1.5322,2.05,9.4824,61.1604,0.2682,0.341,-0.3234,189.3438
20:50:06:051,-0.6427,2.827,8.5977,61.7477,0.2405,0.4534,-0.1878,189.9688
20:50:06:080,0.1773,3.4267,7.6604,61.6659,0.1084,0.3312,-0.2576,190.3125
20:50:06:097,0.2623,3.6901,7.6245,60.8786,-0.085,-0.0081,-0.4424,190.5
20:50:06:113,-0.1435,3.629,8.4732,59.9765,-0.249,-0.3421,-0.5591,190.75
20:50:06:130,-0.3866,3.5285,9.3447,60.1867,-0.3084,-0.5037,-0.5551,191.2188
20:50:06:151,-0.3327,3.7044,9.5278,60.853,-0.2975,-0.488,-0.5263,191.875
20:50:06:177,-0.541,3.9175,9.1256,60.9315,-0.278,-0.3698,-0.5458,192.5469
20:50:06:194,-0.7888,3.7966,8.3379,60.6212,-0.2711,-0.2611,-0.5841,193.1719
20:50:06:210,-1.1874,3.4686,7.4844,60.4332,-0.2719,-0.2435,-0.6214,193.7812
20:50:06:232,-2.5784,3.064,6.7434,60.358,-0.2645,-0.3674,-0.4597,194.1094
20:50:06:253,-2.7018,3.1598,6.6584,59.5569,-0.2202,-0.4848,-0.3047,195.1562
20:50:06:276,-2.6132,3.1346,7.0319,60.9698,-0.1806,-0.6606,-0.2294,195.7969
20:50:06:295,-2.8083,3.1909,7.2581,59.6096,-0.1364,-0.7924,-0.2187,196.3438
20:50:06:310,-3.08,3.2867,7.6484,58.8204,-0.1808,-0.9293,-0.2041,196.7188
20:50:06:331,-2.9412,3.1011,8.9305,59.3661,-0.2964,-0.9818,-0.1921,197.0312
20:50:06:350,-3.001,2.7611,10.0294,60.2465,-0.3745,-0.8124,-0.1838,197.3281
20:50:06:372,-3.3554,2.6163,10.944,60.8518,-0.4336,-0.622,-0.1215,197.6406
20:50:06:395,-3.2883,2.3984,11.7401,59.6934,-0.453,-0.4302,0.0154,197.9375
20:50:06:411,-2.8622,2.2308,12.517,59.061,-0.3862,-0.2478,0.188,198.1875
20:50:06:429,-2.0266,2.226,12.6499,58.0849,-0.2195,-0.0478,0.3454,198.3594
20:50:06:450,-1.1431,2.487,12.098,59.0786,-0.0748,0.0982,0.4045,198.3438
20:50:06:470,-0.6176,2.6055,11.6216,58.7522,-0.0506,0.1165,0.3411,198.1406
20:50:06:493,-0.7253,2.6235,11.4863,59.2038,-0.114,0.0332,0.2114,197.2656
20:50:06:511,-1.1599,2.4559,11.8694,61.2455,-0.232,-0.1841,0.0726,197.0469
20:50:06:530,-1.6627,1.7903,12.6774,58.5505,-0.3374,-0.3879,-0.0043,196.7344
20:50:06:549,-2.254,0.8266,13.525,58.8573,-0.3587,-0.4286,0.0806,196.5781
20:50:06:569,-2.4791,-0.0904,14.4515,57.3608,-0.2559,-0.3234,0.3648,196.5625
20:50:06:593,-2.3055,-0.6578,14.7867,60.4803,0.0277,-0.0134,0.7621,196.5625
20:50:06:649,-2.023,-0.337,13.422,58.4208,0.4229,0.3448,1.1592,196.3438
20:50:06:650,-1.3359,0.3011,10.8961,56.7321,0.7507,0.3637,1.4074,195.7188
20:50:06:663,-0.681,1.248,8.7258,59.4767,0.8847,0.0169,1.442,194.6094
20:50:06:672,-0.5063,1.5688,7.5454,58.4595,0.8437,-0.4915,1.2847,193.1719
20:50:06:690,-0.4811,1.5006,7.561,57.9662,0.7566,-0.905,1.1566,192.3438
20:50:06:710,-0.0873,1.4635,7.5766,56.2118,0.7201,-1.002,1.0759,190.7344
20:50:06:731,0.2455,1.5892,7.2366,56.3307,0.6842,-0.8912,0.9416,189.3281
20:50:06:750,0.3844,1.6885,6.7051,57.3541,0.6053,-0.6933,0.7653,188.1719
20:50:06:770,0.3604,1.7723,6.1879,55.4519,0.494,-0.4944,0.5824,187.0625
20:50:06:793,0.1929,1.497,6.2059,55.7724,0.3859,-0.3594,0.4279,186.0938
20:50:06:810,0.0025,1.1391,6.4585,56.285,0.376,-0.231,0.2969,185.3281
20:50:06:829,-0.5039,1.3078,6.7123,56.5994,0.4461,-0.0542,0.2663,184.4844
20:50:06:850,-0.3518,1.6957,6.5602,56.1987,0.5364,0.103,0.323,184.0938
20:50:06:875,0.9087,1.9746,6.2418,56.8555,0.5659,0.1203,0.3097,183.8125
20:50:06:894,1.6054,2.5421,6.5818,56.2201,0.522,-0.0134,0.0029,183.4531
20:50:06:911,1.1697,3.125,7.0367,56.2201,0.4543,0.0713,-0.3825,183.0312
20:50:06:931,0.0432,3.659,6.9792,55.5533,0.3284,0.1245,-0.5908,182.7969
20:50:06:951,-0.9743,3.5656,6.814,54.7965,0.0762,0.047,-0.5308,183
20:50:06:978,-1.5286,2.8557,7.4078,54.7965,-0.2748,-0.1101,-0.2376,183.5625
20:50:06:994,-0.8115,2.2488,8.6647,56.4822,-0.5625,-0.2273,0.1083,184.2188
20:50:07:010,0.0288,2.3062,10.5837,54.6213,-0.7028,-0.4403,0.3382,184.6719
20:50:07:029,0.7675,2.4702,12.4272,56.5311,-0.6831,-0.6656,0.4873,184.7656
20:50:07:050,1.4031,2.0872,12.7852,56.4824,-0.6027,-0.6859,0.5997,184.5625
20:50:07:071,1.4917,1.8298,12.2728,55.3277,-0.5278,-0.7021,0.7416,184.2344
20:50:07:094,1.9861,2.1099,12.2979,55.4879,-0.4581,-0.8702,0.9057,183.7344
20:50:07:110,2.8504,2.7192,12.9204,54.2784,-0.4615,-1.019,0.8815,183.1094
20:50:07:135,3.4538,2.9144,13.7093,53.8568,-0.5452,-0.925,0.6471,181.8906
20:50:07:149,3.8308,2.5121,14.2899,52.956,-0.5665,-0.5053,0.3661,181.0469
20:50:07:169,4.0008,1.9196,13.4879,54.7993,-0.4317,0.058,0.0985,180.4688
20:50:07:194,3.8308,1.4838,11.4588,53.8487,-0.236,0.3922,-0.1444,180.1719
20:50:07:212,3.4717,1.3725,9.5542,55.0555,-0.127,0.3517,-0.3415,180.1094
20:50:07:230,3.0731,1.3785,8.5307,54.3016,-0.1206,0.1072,-0.5122,180.1562
20:50:07:249,2.6517,1.23,7.828,54.7719,-0.1534,-0.0965,-0.6784,180.4062
20:50:07:270,2.1453,1.0385,7.1384,54.197,-0.2024,-0.1708,-0.8384,180.8594
20:50:07:295,1.4235,0.9571,6.5064,54.3781,-0.3135,-0.1279,-0.9572,181.5625
20:50:07:312,0.7375,1.0517,6.1113,54.8375,-0.4653,0.0039,-0.9708,182.4531
20:50:07:329,0.3533,1.2947,6.0407,53.5355,-0.5678,0.1216,-0.8965,183.5469
20:50:07:350,0.0983,1.5544,6.1329,52.9747,-0.5329,0.1666,-0.786,184.6406
20:50:07:371,0.0037,1.6466,6.0227,55.292,-0.3843,0.1722,-0.6738,185.7656
20:50:07:395,-0.1663,1.6909,5.9342,52.8947,-0.245,0.1464,-0.57,186.7656
20:50:07:412,-0.3207,1.8441,5.9772,54.2814,-0.1689,0.1094,-0.4352,187.9688
20:50:07:430,-0.1974,2.0764,6.4597,53.3493,-0.1595,0.0329,-0.2935,188.625
20:50:07:450,-0.0035,2.2272,7.4114,52.0077,-0.1646,-0.0121,-0.1964,189.125
20:50:07:470,-0.0262,2.135,8.6983,52.8199,-0.1731,0.034,-0.126,189.4531
20:50:07:495,0.1653,2.1195,9.8666,51.5987,-0.175,0.218,-0.0384,189.6875
20:50:07:511,0.6573,2.147,10.5526,52.8039,-0.1635,0.4135,-0.0099,189.8438
20:50:07:529,0.8357,2.3002,11.0613,51.9547,-0.1891,0.5126,-0.0706,189.8906
20:50:07:549,0.7172,2.4271,11.8442,54.0402,-0.2562,0.4763,-0.1692,189.8906
20:50:07:570,0.4203,2.2428,12.8666,50.6539,-0.3127,0.3602,-0.2773,189.9375
20:50:07:594,0.218,1.8346,13.5501,50.9534,-0.3119,0.2793,-0.326,190.1094
20:50:07:611,0.1402,1.4335,13.6662,52.3813,-0.2882,0.2739,-0.2904,190.4219
20:50:07:630,0.1545,1.3749,14.2672,50.876,-0.302,0.1895,-0.1681,190.7812
20:50:07:652,0.4179,0.9595,15.578,51.1197,-0.339,-0.2965,0.1405,191.1094
20:50:07:676,0.795,0.0497,16.5117,49.4105,-0.1273,-0.2981,0.2745,191.3281
20:50:07:695,1.3133,-0.8386,15.4308,50.0381,0.2562,0.005,0.4529,191.3281
20:50:07:711,1.791,-1.0098,12.7133,49.9468,0.5593,0.2721,0.6149,191.3281
20:50:07:729,2.1333,-0.811,10.1264,48.3971,0.6405,0.1778,0.6481,191.1875
20:50:07:749,1.6844,-0.4782,8.4385,49.7751,0.5308,-0.1309,0.5693,190.3906
20:50:07:769,1.0775,-0.1921,7.7537,50.1017,0.3441,-0.4036,0.5568,189.6406
20:50:07:794,1.1254,-0.1933,7.7729,50.1585,0.2016,-0.5594,0.5992,188.8594
20:50:07:812,0.9913,-0.2388,7.7298,48.0471,0.1694,-0.5242,0.593,188.2188
20:50:07:831,0.5795,-0.1634,7.2462,47.1755,0.1912,-0.3285,0.6127,187.5938
20:50:07:849,0.4969,-0.0377,6.4178,46.6883,0.2,-0.0606,0.6908,186.9375
20:50:07:872,0.7603,0.088,5.6133,47.5795,0.1989,0.1181,0.7552,186.2969
20:50:07:894,0.9566,0.2831,4.9944,47.1342,0.1819,0.1213,0.7573,185.6094
20:50:07:911,1.0117,0.5261,4.7897,47.2264,0.1465,0.0473,0.7336,184.8125
20:50:07:928,1.208,0.7691,4.8268,48.0728,0.1116,-0.0566,0.6977,183.9219
20:50:07:949,1.4881,1.0134,5.0231,47.5761,0.0759,-0.1935,0.6223,183.0781
20:50:07:968,1.6796,1.3342,5.4601,46.2236,0.0237,-0.3397,0.5238,181.8125
20:50:07:993,1.8113,1.5305,6.3053,45.9126,-0.0578,-0.4931,0.4223,181.0938
20:50:08:012,1.8736,1.6035,7.7358,45.1273,-0.1561,-0.5628,0.3475,180.4531
20:50:08:028,1.9382,1.6718,9.3818,44.571,-0.2394,-0.4057,0.2825,179.9375
20:50:08:049,2.1669,2.0872,11.0601,44.587,-0.2953,-0.1815,0.1906,179.5469
20:50:08:069,2.5847,2.56,12.6571,45.2534,-0.3119,-0.1093,-0.036,179.2656
20:50:08:093,2.6182,2.566,14.0732,45.2685,-0.335,-0.2206,-0.4464,179.0312
20:50:08:111,1.949,1.6131,15.3206,44.3963,-0.3734,-0.1452,-0.8017,178.9531
20:50:08:129,1.2631,0.5166,15.4918,43.4982,-0.3436,0.3632,-0.8313,179.2344
20:50:08:150,1.4654,0.0425,13.7021,44.6007,-0.2378,0.9533,-0.6358,180.0312
20:50:08:171,1.281,0.6015,11.4636,44.6758,-0.196,1.0455,-0.484,181.0625
20:50:08:195,0.953,1.2983,10.3778,44.6339,-0.2748,0.6004,-0.419,181.9062
20:50:08:210,0.9997,1.388,11.0984,43.9795,-0.4298,-0.1058,-0.4129,182.1875
20:50:08:229,1.3409,0.489,12.8031,44.653,-0.4778,-0.5831,-0.4003,182.7031
20:50:08:249,1.7407,-0.7715,13.5645,44.4086,-0.3483,-0.5493,-0.2834,183.1719
20:50:08:270,2.3464,-1.2516,12.924,42.828,-0.1617,-0.2366,-0.0256,183.6719
20:50:08:295,3.1904,-1.0481,11.6527,44.448,0.0306,0.0414,0.2071,184.4062
20:50:08:311,3.6369,-0.4998,10.1396,43.1219,0.1933,0.1078,0.2026,184.625
20:50:08:330,3.2335,-0.0892,8.7401,43.3681,0.2591,0.1181,0.0228,184.5156
20:50:08:350,2.3991,0.009,7.5347,44.2928,0.2187,0.1882,-0.1255,184.2344
20:50:08:370,1.5216,0.0868,6.6752,45.8267,0.1409,0.2787,-0.1684,184.0781
20:50:08:398,1.0392,0.1694,5.9713,45.0546,0.1172,0.361,-0.1172,184.1094
20:50:08:410,0.807,0.2699,5.247,45.7835,0.1614,0.3613,-0.0336,184.2656
20:50:08:430,0.7782,0.5393,4.5216,45.378,0.2365,0.2649,0.0537,184.4219
20:50:08:448,1.0464,0.8386,4.0272,45.248,0.2703,0.0537,0.1001,184.4844
20:50:08:469,1.2798,1.1881,4.0655,45.0912,0.2176,-0.1964,0.0718,184.4375
20:50:08:496,1.3804,1.4599,4.7742,44.5707,0.0938,-0.3756,0.0042,184.3125
20:50:08:513,1.5492,1.5856,5.988,44.6414,-0.0631,-0.4142,-0.0725,184.1875
20:50:08:531,1.4402,1.6227,7.7071,43.73,-0.2245,-0.256,-0.1354,184.1562
20:50:08:549,1.2511,1.8489,9.4428,43.0259,-0.298,0.0124,-0.134,184.2812
20:50:08:570,1.1601,2.0955,10.7465,43.9757,-0.2711,0.2598,-0.1647,184.4688
20:50:08:595,1.1445,2.4331,11.5007,45.6312,-0.1992,0.3922,-0.2909,184.6406
20:50:08:611,0.7088,2.5588,12.1974,44.595,-0.1742,0.406,-0.5047,184.8281
20:50:08:628,0.0456,2.0728,13.161,44.7096,-0.1696,0.3456,-0.6461,185.1719
20:50:08:649,-0.031,1.1558,14.1175,47.1956,-0.1284,0.304,-0.6155,185.4219
20:50:08:703,0.2623,0.5525,14.4647,45.131,-0.0887,0.3501,-0.4584,186.0625
20:50:08:704,0.7351,0.6794,14.4695,45.9266,-0.139,0.2779,-0.2991,186.7969
20:50:08:716,0.9434,1.0361,15.0872,46.9038,-0.2519,0.0124,-0.198,187.4219
20:50:08:729,0.771,0.7296,16.3681,46.6801,-0.2426,-0.1434,-0.1135,187.8125
20:50:08:751,0.7699,-0.2771,16.4399,45.983,0.0903,0.087,0.0175,188.0938
20:50:08:768,1.0919,-0.8853,13.7452,46.5004,0.5899,0.4138,0.1725,188.2969
20:50:08:790,1.4881,-0.7632,10.361,47.6883,0.8352,0.2841,0.2902,188.375
20:50:08:811,1.8772,-0.3765,8.6336,49.3988,0.7257,-0.317,0.294,188.2344
20:50:08:829,1.6892,-0.149,8.903,47.8088,0.4503,-0.9005,0.218,187.7031
20:50:08:849,1.3516,-0.167,9.7505,47.7162,0.2346,-0.9559,0.2175,187.3438
20:50:08:869,1.3409,-0.2879,9.6835,48.8526,0.1686,-0.5498,0.2689,187.1406
20:50:08:895,1.0284,-0.1957,8.5941,48.7506,0.2155,-0.0422,0.3099,186.9375
20:50:08:912,0.6897,-0.0221,7.0056,48.5617,0.3041,0.3051,0.3845,186.6562
20:50:08:928,0.7184,0.088,5.6337,48.2514,0.3878,0.3853,0.4961,186.2969
20:50:08:949,1.1338,0.2221,4.7239,47.3725,0.4314,0.283,0.577,185.8125
20:50:08:970,1.4031,0.4052,4.2929,47.3725,0.4229,0.112,0.5946,185.2031
20:50:08:996,1.6533,0.5836,4.4629,49.9204,0.4014,-0.0691,0.568,184.4844
20:50:09:012,2.0962,0.6746,4.8436,49.2975,0.4035,-0.194,0.4761,183.7969
20:50:09:029,1.9023,0.6674,5.1931,50.6046,0.2296,-0.1258,0.2191,183.125
20:50:09:050,1.7766,0.8865,5.9198,50.6046,0.0344,-0.1327,0.1784,183.125
20:50:09:070,1.7982,1.4682,7.1803,49.3808,-0.1483,-0.2206,0.1408,182.5625
20:50:09:095,1.9993,2.056,8.7007,51.0997,-0.2626,-0.3769,0.0119,181.9531
20:50:09:113,1.9753,2.1745,10.0641,49.7905,-0.3353,-0.5477,-0.2565,181.8438
20:50:09:129,1.6054,1.6801,11.6635,49.0186,-0.4799,-0.6028,-0.5138,181.6406
20:50:09:149,1.275,1.1438,13.3885,49.4446,-0.706,-0.418,-0.5894,181.6875
20:50:09:169,1.463,0.6159,14.8681,52.0816,-0.8994,-0.0837,-0.5199,182.0469
20:50:09:196,2.1154,0.2292,15.232,52.447,-0.9257,0.2657,-0.3987,183.4844
20:50:09:213,2.3309,0.5225,14.5688,52.5201,-0.8203,0.3581,-0.3165,183.4844
20:50:09:231,2.1393,0.987,13.9523,52.7902,-0.6852,0.1363,-0.3441,184.1875
20:50:09:248,1.7395,0.8721,13.993,52.3591,-0.5726,-0.1543,-0.4507,184.7188
20:50:09:267,1.2367,0.1107,13.9655,53.423,-0.444,-0.1498,-0.5007,185.125
20:50:09:289,1.3696,-0.5656,13.0689,54.3016,-0.2874,0.039,-0.3569,185.5781
20:50:09:311,2.356,-0.6027,11.5521,53.82,-0.1566,0.0875,-0.1596,186.1562
20:50:09:328,2.9773,-0.252,10.2772,53.8048,-0.0791,-0.0656,-0.1042,186.75
20:50:09:354,2.9079,0.0616,9.2597,55.4506,-0.0208,-0.1918,-0.1492,187.1875
20:50:09:367,2.7307,0.1323,8.1512,54.6238,0.0362,-0.1705,-0.2536,187.375
20:50:09:388,2.1369,0.1467,6.9948,53.708,0.0426,-0.0542,-0.3684,187.5781
20:50:09:412,1.5109,0.1921,6.0443,54.2014,-0.0136,0.104,-0.4073,187.7969
20:50:09:429,1.1852,0.2101,5.417,53.6433,-0.1031,0.2039,-0.3734,188.1719
20:50:09:448,1.0775,0.3107,5.4146,53.856,-0.1569,0.2138,-0.3199,188.625
20:50:09:469,1.0512,0.4316,5.6564,52.8558,-0.1172,0.1738,-0.2738,189.0469
20:50:09:490,1.0428,0.6231,6.0347,55.6843,-0.0101,0.1485,-0.2413,189.4531
20:50:09:510,1.0153,0.8853,6.3639,54.9246,0.1145,0.1927,-0.2091,189.7969
20:50:09:528,1.0368,1.1845,6.7925,55.0838,0.2197,0.2305,-0.1553,190.0781
20:50:09:549,1.7299,1.3833,7.2977,54.8293,0.2975,0.1384,-0.0837,190.3281
20:50:09:569,2.4194,1.9028,8.2601,54.5182,0.3188,-0.0363,-0.0152,190.5156
20:50:09:589,3.1401,2.3625,9.9229,55.1518,0.3492,-0.2766,0.0404,190.5781
20:50:09:610,3.8189,2.4978,11.5869,54.9943,0.4927,-0.4004,-0.0381,190.6406
20:50:09:631,3.7614,2.2272,11.9735,55.3502,0.6653,-0.3125,-0.3202,190.625
20:50:09:649,2.52,1.8274,11.5222,55.1061,0.6128,-0.1303,-0.647,190.5625
20:50:09:669,0.2695,0.987,11.6958,55.3862,0.31,0.1456,-0.7735,190.5781
20:50:09:695,-1.8195,-0.0449,12.6283,54.9176,-0.0069,0.4391,-0.5034,191.2031
20:50:09:712,-1.2102,-1.0481,13.1599,54.9211,-0.1593,0.8481,0.0218,192.0156
20:50:09:729,0.1869,-0.7213,11.7413,53.4949,-0.3289,1.1914,0.3608,192.7344
20:50:09:749,-0.2441,1.2276,10.9811,53.8793,-0.7111,0.6159,0.5624,192.9844
20:50:09:769,-0.2249,1.74,14.4491,54.8441,-0.9659,-0.7271,0.7842,192.6562
20:50:09:789,1.876,0.4878,17.6286,54.0255,-0.4993,-1.283,0.8298,192.125
20:50:09:811,2.6601,-0.5812,16.3178,54.3918,0.2866,-0.851,0.6463,191.4062
20:50:09:828,2.2662,-0.3789,12.3207,55.0014,0.6898,0.103,0.547,190.5469
20:50:09:848,2.5116,0.3011,9.073,53.8065,0.5518,0.4313,0.5334,189.75
20:50:09:869,3.1257,0.6351,8.1464,53.7631,0.2187,0.2668,0.4423,189.0938
20:50:09:895,3.2874,0.5932,8.4924,52.6371,0.0181,0.0564,0.294,188.375
20:50:09:911,2.9031,0.4699,8.7521,52.5876,0.0458,-0.0315,0.1475,187.7656
20:50:09:929,2.4362,0.343,8.2122,53.6313,0.187,0.0159,0.0505,187.3438
20:50:09:948,1.9753,0.2292,7.1899,53.6565,0.29,0.1299,0.0031,187.0938
20:50:09:968,1.5276,0.1431,6.2514,53.1947,0.3156,0.1978,-0.0025,186.9375
20:50:09:989,1.1649,0.149,5.648,51.1077,0.2871,0.2124,0.0255,186.9062
20:50:10:011,0.9243,0.2053,5.4122,50.4518,0.221,0.1626,0.0684,186.875
20:50:10:031,0.8177,0.173,5.3631,50.2087,0.1518,0.1522,0.1216,186.8125
20:50:10:048,0.8692,0.2316,5.3799,51.8002,0.1079,0.1759,0.193,186.7656
20:50:10:068,1.0464,0.4316,5.3284,52.4617,0.1052,0.19,0.262,186.6406
20:50:10:089,1.3205,0.8805,5.2147,51.4382,0.1204,0.1016,0.2902,186.4375
20:50:10:112,1.5911,1.2971,5.4493,50.6363,0.1334,-0.1181,0.254,186.1562
20:50:10:131,1.6114,1.6083,6.0802,49.7193,0.1111,-0.3897,0.1688,185.8281
20:50:10:148,1.3241,1.9136,7.1265,49.821,0.041,-0.5943,0.086,185.5
20:50:10:168,0.9734,1.7807,8.794,50.0896,-0.0546,-0.6478,0.0351,185.2656
20:50:10:188,0.6837,1.8717,10.4185,50.8822,-0.1372,-0.4113,0.0268,185.1406
20:50:10:212,0.9853,2.0704,11.3678,49.0622,-0.2836,-0.0486,-0.0118,185.1406
20:50:10:228,1.2714,2.2607,12.3434,49.6135,-0.5348,0.2175,-0.1998,185.1719
20:50:10:248,0.6944,1.801,14.2205,51.2069,-0.775,0.3653,-0.4451,185.2031
20:50:10:268,0.5161,0.24,16.325,49.1762,-0.7292,0.5695,-0.5002,185.4688
20:50:10:289,1.7084,-1.2157,16.5177,48.6306,-0.3414,0.8745,-0.333,186.0312
20:50:10:311,3.0515,-1.0552,14.0266,48.9005,0.0477,1.0178,-0.1809,186.625
20:50:10:328,2.8313,0.5716,11.8095,49.3633,0.0538,0.6843,-0.3279,186.9688
20:50:10:348,0.874,1.3893,12.0549,48.3465,-0.2003,0.1632,-0.6454,187.125
20:50:10:368,0.3485,-0.0796,13.3119,48.4954,-0.3217,0.0795,-0.6802,187.4688
20:50:10:388,1.3265,-0.9738,12.9156,47.9633,-0.2093,0.4162,-0.4467,188.1719
20:50:10:411,2.3919,-0.7823,10.786,49.2191,0.0213,0.5155,-0.2222,188.9531
20:50:10:429,3.0575,0.9463,7.8292,48.5119,-0.0434,-0.3426,-0.1415,189.4688
20:50:10:448,2.9378,1.0181,7.8016,48.248,-0.1118,-0.6795,-0.3497,189.7031
20:50:10:478,2.5069,0.4914,7.4233,47.4081,-0.1044,-0.6387,-0.5889,189.9688
20:50:10:490,1.5085,0.1431,6.6991,47.2495,-0.0759,-0.2968,-0.7085,189.9688
20:50:10:512,0.4897,0.2987,5.4745,46.744,-0.0554,0.1035,-0.6339,190.4062
20:50:10:531,0.1677,0.6434,4.5778,47.3854,-0.0735,0.2175,-0.476,191.0781
20:50:10:547,0.2635,1.0972,4.4988,46.3561,-0.1041,0.0641,-0.3466,191.9062
20:50:10:567,0.619,1.4204,5.2123,47.3854,-0.1092,-0.1831,-0.2704,192.625
20:50:10:587,1.2152,1.6897,6.1628,47.7316,-0.0676,-0.3522,-0.268,193.1406
20:50:10:613,1.4582,1.8681,7.081,47.3288,-0.0253,-0.4725,-0.3687,193.5469
20:50:10:631,1.1134,1.8525,8.4301,46.7156,-0.0069,-0.5072,-0.4656,193.8594
20:50:10:647,0.4778,1.8166,10.1084,44.7416,0.024,-0.41,-0.4656,194.1875
20:50:10:670,0.0229,1.637,11.4803,46.4205,0.1212,-0.2275,-0.395,194.6094
20:50:10:687,-0.4057,1.3042,12.5948,45.8555,0.2506,-0.112,-0.301,195.1719
20:50:10:756,-1.0988,1.0098,13.3526,44.7198,0.3539,-0.1074,-0.125,195.7188
20:50:10:756,-1.543,0.7548,14.5772,43.564,0.4546,-0.1679,0.2077,196.1406
20:50:10:756,-0.6846,0.4447,15.2895,45.0004,0.6623,-0.0677,0.5893,196.4688
20:50:10:766,0.3401,0.6387,14.242,43.5865,0.8479,0.1573,0.7882,196.5938
20:50:10:788,0.8752,1.1522,12.505,43.8678,0.7489,0.3197,0.793,196.0469
20:50:10:814,0.9087,1.3402,11.7114,45.3265,0.3454,0.3687,0.7086,195.1562
20:50:10:827,0.4107,1.1893,12.3985,42.5958,-0.0671,0.3554,0.6956,194.1406
20:50:10:856,0.5316,0.58,13.343,43.3454,-0.151,0.3853,0.7762,193.25
20:50:10:866,1.0284,0.0257,12.8055,41.9898,0.1276,0.4681,0.7906,192.4375
20:50:10:891,1.1062,-0.0664,10.6495,42.2259,0.3896,0.3549,0.7438,191.5781
20:50:10:914,1.3325,0.1598,8.958,43.2979,0.2847,0.0215,0.6881,190.625
20:50:10:934,1.5109,0.155,9.0035,43.2124,-0.1039,-0.349,0.6045,189.75
20:50:10:951,1.1721,-0.0652,10.1024,41.7118,-0.4224,-0.4414,0.544,188.875
20:50:10:969,0.8309,-0.2879,11.0027,41.6286,-0.4224,-0.2377,0.5954,188.1406
20:50:10:990,0.8105,-0.3286,10.604,42.673,-0.1294,0.1048,0.7323,187.5781
20:50:11:012,1.2152,-0.2197,8.9772,42.6365,0.2759,0.3746,0.8838,187
20:50:11:030,1.5408,0.1215,6.8703,42.6365,0.5923,0.5062,0.9861,186.6719
20:50:11:047,1.9071,0.5118,5.0351,42.3158,0.7515,0.4718,1.0205,185.8281
20:50:11:067,2.2423,0.9439,3.7854,41.0826,0.7449,0.2787,0.9515,184.8281
20:50:11:089,2.4506,1.3246,3.3652,41.5368,0.5931,-0.0124,0.796,183.625
20:50:11:113,2.4733,1.4826,3.8117,41.0531,0.3582,-0.3165,0.5973,181.7656
20:50:11:130,2.4434,1.4084,5.1093,41.611,0.127,-0.4955,0.4226,180.75
20:50:11:149,2.4961,1.3833,6.3388,41.3623,-0.028,-0.5311,0.2929,179.9375
20:50:11:168,2.3871,1.5413,7.5718,41.3772,-0.106,-0.5338,0.18,179.3906
20:50:11:188,2.1477,1.6634,8.557,40.6511,-0.142,-0.4547,0.1043,179.0469
20:50:11:213,2.0555,1.6897,9.3459,41.1287,-0.1704,-0.3636,0.0444,178.8438
20:50:11:228,2.1573,1.5078,9.9061,42.5781,-0.2293,-0.2909,-0.0448,178.7344
20:50:11:247,2.1633,1.4108,10.8243,42.3323,-0.3569,-0.28,-0.1274,178.7031
20:50:11:268,2.0747,1.473,12.1914,41.5383,-0.4826,-0.3428,-0.1694,178.75
20:50:11:287,1.9155,1.1965,13.8135,40.4414,-0.498,-0.4081,-0.1729,178.9062
20:50:11:313,2.5643,0.4591,14.4288,41.5682,-0.3909,-0.2246,-0.1516,179.1562
20:50:11:329,3.0168,0.2005,13.4017,41.6759,-0.326,0.0928,-0.2216,179.4219
20:50:11:347,2.4901,0.6506,11.9795,41.4627,-0.4735,0.209,-0.3535,179.6875
20:50:11:368,1.5647,1.163,12.1064,40.5921,-0.7678,0.0399,-0.4832,179.9375
20:50:11:388,1.0859,0.7799,13.9679,41.5012,-0.8525,-0.2424,-0.5481,180.5
20:50:11:412,1.4965,-0.3226,15.1686,40.6519,-0.5156,-0.3106,-0.5237,181.1406
20:50:11:430,2.2004,-0.9212,13.7009,39.2553,0.0152,-0.2195,-0.4392,181.875
20:50:11:447,2.8516,-0.6123,10.9967,41.6803,0.3457,-0.2837,-0.3479,182.5156
20:50:11:468,3.3053,-0.1335,8.9484,39.5694,0.3824,-0.4526,-0.3551,183.0312
20:50:11:488,3.3963,0.2161,7.8327,41.6884,0.2748,-0.5335,-0.477,183.4062
20:50:11:512,3.1425,0.2185,7.063,40.7439,0.163,-0.3945,-0.6347,183.5781
20:50:11:530,2.6026,0.0533,6.1245,40.9791,0.0884,-0.0233,-0.7151,184
20:50:11:549,2.0819,0.1694,4.9322,40.4156,0.0069,0.4055,-0.6928,184.6406
20:50:11:568,1.943,0.4926,3.7435,42.2066,-0.1127,0.6343,-0.6443,185.4375
20:50:11:593,1.9646,0.9248,3.358,43.2405,-0.265,0.5597,-0.644,186.1875
20:50:11:614,2.1369,1.2791,3.8308,42.0806,-0.4051,0.3245,-0.701,186.9219
20:50:11:630,2.1429,1.491,5.1477,41.3794,-0.4932,0.0257,-0.7844,187.625
20:50:11:647,1.8101,1.6323,7.0259,42.0385,-0.4719,-0.2081,-0.8227,188.3906
20:50:11:667,1.6497,1.8202,8.654,42.0135,-0.3297,-0.2326,-0.8006,189.7344
20:50:11:687,1.542,2.1841,9.5063,41.3887,-0.1981,-0.0536,-0.787,190.7344
20:50:11:711,1.4295,2.6821,9.9456,43.4988,-0.1707,0.2146,-0.791,191.7031
20:50:11:731,1.226,3.0448,10.3275,42.6179,-0.2152,0.4329,-0.8637,192.5781
20:50:11:748,0.473,3.0532,10.9249,43.033,-0.29,0.5424,-0.9612,193.5
20:50:11:767,-0.7074,2.7228,11.9927,42.8426,-0.3531,0.5861,-0.9295,194.4844
20:50:11:788,-1.3347,2.2009,13.1515,43.6218,-0.3143,0.5552,-0.7005,195.5312
20:50:11:813,-0.7876,1.6801,13.8087,42.2667,-0.1529,0.4518,-0.3929,196.5938
20:50:11:830,0.1091,1.5784,13.8853,42.7747,-0.0061,0.2577,-0.1974,197.4062
20:50:11:848,0.3185,1.2995,14.5162,42.728,-0.0117,-0.1689,-0.1713,197.8281
20:50:11:867,-0.1208,0.3621,14.5557,44.3446,0.0903,-0.1189,-0.1583,197.8281
20:50:11:888,-0.1447,-0.6303,13.3777,43.3619,0.2464,0.1293,-0.1109,198.0312
20:50:11:913,-0.1866,-1.0864,11.4947,41.9511,0.2402,0.4034,-0.0789,198.2031
20:50:11:930,-0.0214,-1.4443,9.6978,43.4702,0.0256,0.5877,-0.0547,198.5781
20:50:11:947,0.1126,-1.4754,8.4529,43.9272,-0.347,0.6167,-0.0496,198.6406
20:50:11:974,-0.0957,-1.4108,8.296,42.6972,-0.7337,0.5416,-0.0307,198.7344
20:50:11:987,-0.6403,-1.485,8.8658,42.4142,-0.9137,0.4329,0.0916,198.7656
20:50:12:007,-0.9875,-1.4311,9.2681,44.0976,-0.7854,0.3014,0.3624,198.8125
20:50:12:033,-0.711,-1.2671,9.055,41.8957,-0.4013,0.1616,0.7099,198.8594
20:50:12:052,-0.2309,-1.0337,8.0985,41.9089,0.0727,0.0742,1.0319,198.7812
20:50:12:067,0.2407,-0.6446,6.6584,43.0381,0.4546,-0.0124,1.2769,198.4062
20:50:12:086,0.8405,-0.1885,5.4146,43.5463,0.644,-0.1072,1.4053,197.6094
20:50:12:107,1.4737,0.3346,4.6592,44.6301,0.5862,-0.2041,1.3669,196.4062
20:50:12:130,1.7239,0.9523,4.8807,44.1038,0.3116,-0.3106,1.2029,195
20:50:12:147,1.6797,1.3042,6.2179,43.2525,-0.0298,-0.4209,0.9669,193.375
20:50:12:167,1.2978,1.4024,8.478,42.4047,-0.2623,-0.3527,0.6988,191.7812
20:50:12:187,0.9219,1.2432,10.2126,41.7912,-0.2977,0.0023,0.4396,190.4688
20:50:12:213,0.5711,1.0948,10.5897,42.5494,-0.2527,0.4726,0.2255,188.6094
20:50:12:232,0.3245,0.8757,10.2641,42.8024,-0.253,0.7341,0.0593,188.3281
20:50:12:253,-0.1016,0.2616,10.209,43.1394,-0.2964,0.5706,-0.0541,187.9844
20:50:12:267,-0.3698,-0.6051,11.3091,43.5941,-0.2996,0.0907,-0.0222,187.8281
20:50:12:287,0.1067,-1.2312,12.8929,44.7758,-0.2075,-0.2536,0.1136,187.8281
20:50:12:313,0.9817,-1.4072,13.5094,43.4508,-0.0599,-0.2289,0.1933,187.9062
20:50:12:329,1.8856,-1.3054,12.7133,45.0351,-0.0069,-0.048,0.0942,187.875
20:50:12:346,1.8029,-1.0912,11.6886,44.8841,-0.1774,0.0297,-0.1617,187.6875
20:50:12:366,0.5843,-0.9068,12.3063,44.6937,-0.4671,-0.0339,-0.3932,187.4844
20:50:12:387,-0.3423,-1.5688,13.944,44.3515,-0.543,0.0305,-0.4392,187.5312
20:50:12:413,-0.0442,-2.554,14.1056,44.5546,-0.2589,0.2881,-0.2762,187.875
20:50:12:429,1.129,-2.8006,12.2704,46.1378,0.1095,0.398,-0.0272,188.4062
20:50:12:448,2.3369,-2.0907,10.1264,46.0658,0.2309,0.2348,0.1001,188.6562
20:50:12:467,2.8073,-1.0481,9.1316,46.3897,0.0879,-0.0361,-0.0171,188.9688
20:50:12:487,2.4554,-0.6195,9.3531,47.1889,-0.0812,-0.2148,-0.2635,189
20:50:12:516,1.2331,-0.7679,9.4668,47.4993,-0.1182,-0.1085,-0.4605,188.875
20:50:12:531,0.1366,-0.744,8.6049,48.1064,-0.0354,0.1315,-0.4318,189
20:50:12:548,-0.0226,-0.483,7.3072,48.3349,0.0746,0.2936,-0.2605,189.4375
20:50:12:567,0.0193,-0.0509,6.3651,49.2842,0.1611,0.312,-0.0994,190
20:50:12:587,0.121,0.313,5.812,49.3816,0.274,0.1823,0.0133,190.375
20:50:12:607,0.473,0.5968,5.3847,47.31,0.4053,-0.0179,0.0737,190.5625
20:50:12:629,0.7052,0.9439,5.1824,50.5436,0.4394,-0.2041,0.0718,190.6094
20:50:12:647,0.7591,1.2671,5.5116,48.6708,0.379,-0.3093,0.0188,190.5469
20:50:12:667,0.8477,1.4263,6.34,49.2482,0.2477,-0.3311,-0.0619,190.4375
20:50:12:691,1.0416,1.6538,7.6017,50.304,0.0554,-0.1908,-0.1905,190.375
20:50:12:712,0.783,1.8872,9.1544,49.2513,-0.1848,0.1853,-0.3588,190.3906
20:50:12:730,0.4885,1.7448,10.5645,50.0851,-0.3313,0.7011,-0.4733,190.5156
20:50:12:746,0.3497,1.1474,11.0254,50.1641,-0.2399,1.0247,-0.5085,190.8438
20:50:12:829,-0.2597,0.9403,10.6998,52.6914,-0.0141,0.8934,-0.4608,191.3281
20:50:12:829,-1.0486,0.914,11.023,51.6077,0.2107,0.3149,-0.3047,191.8594
20:50:12:830,-1.3873,0.5393,12.2548,53.0544,0.4173,-0.2273,-0.1021,192.6719
20:50:12:830,-1.0294,0.0952,13.0186,51.8947,0.6061,-0.3524,0.1222,193.0156
20:50:12:854,-0.0981,0.1478,12.0765,53.4984,0.6839,-0.0696,0.2705,193.125
20:50:12:866,0.4538,0.9032,10.1216,53.6019,0.4666,0.1426,0.2362,192.9844
20:50:12:892,0.4143,1.6299,9.3722,54.3824,-0.021,-0.1431,0.128,192.6719
20:50:12:916,-0.219,1.5999,11.539,52.9851,-0.4541,-0.8116,0.1049,192.4062
20:50:12:932,-0.2525,0.8996,14.7328,55.3452,-0.4125,-1.1341,0.2018,192.2656
20:50:12:948,0.631,-0.0976,15.639,56.0709,0.1353,-0.9354,0.2806,192.1875
20:50:12:967,1.2391,-0.6877,13.5202,56.5776,0.6906,-0.4837,0.2748,192.1094
20:50:12:989,1.6856,-0.8062,10.1456,55.1852,0.8184,-0.0888,0.213,191.875
20:50:13:014,1.9957,-0.7524,7.7645,56.416,0.4706,0.0731,0.0753,191.5469
20:50:13:031,1.7371,-0.5944,7.1253,55.7465,-0.0653,0.0319,-0.0712,191.2344
20:50:13:047,1.2535,-0.5405,8.0506,56.7032,-0.4527,-0.1021,-0.1447,191.0312
20:50:13:067,0.9554,-0.6015,9.1927,56.9163,-0.5084,-0.1466,-0.1335,191.0156
20:50:13:086,0.789,-0.4687,9.3076,56.9163,-0.282,-0.0198,-0.0525,191.1719
20:50:13:107,0.7878,-0.2819,8.1189,56.7134,0.045,0.1304,0.046,191.4375
20:50:13:129,0.8153,-0.088,6.595,57.1854,0.3004,0.1629,0.1342,191.5156
20:50:13:150,0.9913,0.1071,5.3428,56.7538,0.4245,0.0521,0.2045,191.4688
20:50:13:172,1.1984,0.234,4.5838,59.0249,0.3939,-0.1647,0.2311,191.2812
20:50:13:186,1.3564,0.3418,4.6365,57.0614,0.2312,-0.4108,0.2362,191.0469
20:50:13:206,1.554,0.4447,5.6265,58.0695,0.0381,-0.5969,0.2338,190.7656
20:50:13:230,1.876,0.3992,6.7937,58.1069,-0.0903,-0.6696,0.1635,190.5
20:50:13:248,2.1944,0.2209,8.9473,57.5618,-0.3412,-0.5674,-0.2259,190.2812
20:50:13:268,2.0448,0.0485,10.3526,57.3866,-0.5265,-0.4129,-0.4536,190.1406
20:50:13:292,1.603,-0.4519,11.8215,59.1902,-0.7254,-0.3319,-0.6691,190.1875
20:50:13:315,0.6789,-0.8769,14.2001,59.5936,-0.8589,-0.2315,-0.7537,191.0625
20:50:13:331,-0.2405,-1.3833,16.3789,58.5392,-0.6922,0.0798,-0.5721,191.9062
20:50:13:347,0.3233,-1.9375,15.7695,59.3439,-0.2402,0.5379,-0.2525,192.8438
20:50:13:366,0.8201,-1.6718,12.8821,58.2196,0.0724,0.7805,-0.0451,192.8438
20:50:13:386,0.7004,-0.7763,10.6471,58.3674,0.0088,0.6108,0.0447,193.5312
20:50:13:408,0.2934,-0.1131,10.8219,60.3272,-0.2224,0.1352,0.0716,193.8281
20:50:13:427,0.8369,-0.5297,12.1363,60.3574,-0.3084,-0.32,0.1179,193.8594
20:50:13:446,2.0077,-0.9918,12.8223,58.7738,-0.2796,-0.5431,0.188,193.7656
20:50:13:466,3.3161,-0.8853,13.0174,59.3077,-0.237,-0.5964,0.2266,193.7344
20:50:13:486,4.4462,-0.4256,12.6678,61.1228,-0.1249,-0.5895,0.0772,193.625
20:50:13:506,4.512,-0.0425,11.3833,58.8401,0.049,-0.5466,-0.28,193.4375
20:50:13:528,3.5256,0.0545,9.644,60.2386,0.1638,-0.4451,-0.6272,193.2031
20:50:13:547,2.1908,-0.0796,8.0614,58.3116,0.1656,-0.2513,-0.7822,193.1406
20:50:13:573,1.0248,-0.2352,7.081,58.1645,0.1297,0.0289,-0.664,193.4531
20:50:13:585,0.5029,-0.1443,6.5076,60.6042,0.1806,0.3488,-0.3165,194.125
20:50:13:609,0.6059,0.3011,5.9749,60.8513,0.3401,0.5272,0.0934,195
20:50:13:633,1.1026,0.9894,5.3883,59.8503,0.5582,0.4422,0.3858,195.75
20:50:13:647,1.6653,1.5544,4.9537,58.5543,0.7385,0.246,0.4588,196.0781
20:50:13:666,1.9825,2.0668,4.6772,60.1863,0.7795,0.05,0.3643,195.9219
20:50:13:687,2.046,2.3793,4.9442,58.8559,0.6288,-0.0329,0.1805,195.125
20:50:13:710,2.0136,2.335,5.7594,59.5659,0.3305,0.0281,-0.0267,194.5781
20:50:13:726,1.864,2.0584,7.0271,61.7511,-0.0141,0.1285,-0.2035,194.2031
20:50:13:746,1.5492,1.6754,8.9844,59.7112,-0.294,0.1794,-0.3274,194.0781
20:50:13:766,1.19,1.1426,10.9129,59.4477,-0.404,0.222,-0.3854,194.1875
20:50:13:787,0.6346,0.3657,12.5517,60.4991,-0.3467,0.2638,-0.3481,194.5
20:50:13:812,-0.0083,-0.0652,13.5884,60.0909,-0.1896,0.3589,-0.1279,194.9375
20:50:13:831,0.2084,-0.1359,13.8937,60.8892,0.0282,0.4644,0.2359,195.3906
20:50:13:852,1.2786,-0.0449,13.3813,60.15,0.2514,0.5187,0.5155,195.7031
20:50:13:871,2.0986,0.4268,12.2094,60.0246,0.3705,0.4859,0.5906,195.625
20:50:13:886,2.2734,1.0852,11.3654,60.9836,0.2818,0.3461,0.4902,195.4375
20:50:13:908,1.9753,1.2683,11.2648,60.5039,0.04,0.2635,0.2923,194.7969
20:50:13:929,0.9985,1.1558,11.4839,60.5761,-0.1982,0.3253,0.1169,194.4688
20:50:13:947,0.3293,0.5094,11.4229,60.0254,-0.2799,0.4889,0.0812,193.3125
20:50:13:966,0.03,0.1514,10.7525,61.0141,-0.2173,0.5445,0.1288,193.0938
20:50:13:990,0.0995,0.0186,9.8798,61.2173,-0.1523,0.3171,0.1872,193
20:50:14:014,0.2994,-0.1227,9.6871,59.6959,-0.2088,-0.2148,0.1989,192.875
20:50:14:031,0.0755,-0.4495,10.6292,60.527,-0.3092,-0.6377,0.2399,192.6719
20:50:14:045,-0.1771,-0.7105,11.2206,60.013,-0.2597,-0.7024,0.3765,192.4688
20:50:14:066,0.1258,-0.6925,10.9249,60.6337,-0.0325,-0.5663,0.5414,192.25
20:50:14:086,0.7064,-0.4208,9.5997,58.827,0.2397,-0.3674,0.6625,191.9375
20:50:14:111,1.3947,0.1095,8.2242,59.1078,0.395,-0.2454,0.6665,191.4375
20:50:14:131,1.8987,0.5046,7.2809,57.072,0.4344,-0.1692,0.5536,190.7812
20:50:14:147,2.0723,0.5429,6.6464,58.892,0.4432,-0.1303,0.3704,189.9844
20:50:14:165,1.8891,0.3262,6.1891,59.0656,0.4426,-0.1061,0.1965,189.25
20:50:14:186,1.7227,0.1502,5.7642,59.077,0.3888,-0.0797,0.1115,188.7344
20:50:14:206,1.6593,0.2077,5.8384,58.6157,0.2794,-0.1295,0.0923,188.3906
20:50:14:230,1.791,0.3837,6.6093,58.6054,0.1942,-0.2544,0.082,188.2031
20:50:14:248,1.882,0.4627,7.5849,58.4048,0.168,-0.3213,0.0548,188.0156
20:50:14:272,1.9215,0.5596,8.2254,57.5408,0.1811,-0.2339,0.0234,187.9219
20:50:14:285,2.1573,0.4735,8.2565,58.3843,0.2152,0.0265,-0.0222,187.875
20:50:14:307,2.6804,0.6303,7.5,56.8576,0.1976,0.3038,-0.1125,187.8438
20:50:14:332,3.1257,1.0098,6.6129,57.2606,0.0197,0.4327,-0.3452,187.8438
20:50:14:347,3.3496,1.1618,6.4381,56.4893,-0.4519,0.2156,-0.7615,187.9375
20:50:14:366,2.3416,1.017,8.8575,57.7135,-1.155,-0.1586,-1.1705,188.2969
20:50:14:386,1.2403,-0.2604,13.8326,56.9482,-1.5987,-0.3642,-1.2619,189.1562
20:50:14:407,1.4869,-2.0572,17.6681,55.9988,-1.3638,-0.296,-1.0582,189.8281
20:50:14:429,1.797,-2.4211,17.5664,57.6855,-0.7425,-0.0113,-0.815,191.3906
20:50:14:450,1.3313,-1.1259,15.1327,57.9034,-0.3721,0.1453,-0.6089,192.7969
20:50:14:466,1.1422,-0.021,13.9775,56.6223,-0.3627,-0.015,-0.5569,193.9531
20:50:14:487,0.9973,-0.0341,14.8346,56.1616,-0.3854,-0.2044,-0.6488,194.7969
20:50:14:507,1.4546,-0.7787,15.1039,56.988,-0.1545,-0.104,-0.6888,195.4531
20:50:14:530,2.1058,-1.0098,13.6746,56.3978,0.2077,0.0803,-0.7037,196.1406
20:50:14:545,2.5104,-0.8457,11.2912,56.8342,0.4727,0.1304,-0.7934,197.3281
20:50:14:573,2.3105,-0.6937,9.0969,56.1442,0.5353,0.0545,-0.9729,198.125
20:50:14:585,1.6006,-0.7021,7.6017,56.7633,0.4453,-0.0206,-1.1284,198.9531
20:50:14:610,0.6298,-0.7045,6.6763,57.1467,0.3252,-0.0145,-1.1362,200.0312
20:50:14:632,-0.1771,-0.6219,5.9485,56.1892,0.2621,0.0697,-0.9703,201.2812
20:50:14:648,-0.2896,0.2472,4.4797,55.8675,0.3025,0.1746,-0.3708,202.5
20:50:14:675,0.4071,0.8482,4.2223,55.6814,0.3353,0.0388,-0.1764,202.5
20:50:14:688,0.9985,1.333,4.3755,56.3125,0.3345,-0.1636,-0.17,203.5938
20:50:14:706,1.1218,1.7005,5.065,56.195,0.2474,-0.3146,-0.301,204.7188
20:50:14:729,0.7627,1.752,6.1951,56.9783,0.1108,-0.3221,-0.448,204.7188
20:50:14:747,0.1964,1.4671,7.4497,56.3641,-0.0362,-0.2246,-0.5316,204.9062
20:50:14:773,-0.5829,1.3198,9.0921,56.1085,-0.1891,-0.0624,-0.476,205.9219
20:50:14:785,-1.0246,1.2947,10.9536,57.0056,-0.2408,0.1701,-0.2909,205.9219
20:50:14:807,-0.6763,1.0816,12.0214,57.8726,-0.0788,0.3474,-0.1127,206.5469
20:50:14:831,-0.2704,1.2923,11.7712,56.7848,0.1193,0.3496,-0.0203,207.1094
20:50:14:900,-0.0621,1.6777,11.5881,56.1074,0.1313,0.193,0.0148,207.4375
20:50:14:901,0.1761,1.5556,12.3805,56.6413,0.004,-0.002,0.0127,207.5469
20:50:14:901,0.6585,1.1941,13.4112,57.5299,-0.1353,-0.0238,0.0061,207.5469
20:50:14:917,1.0177,1.3138,13.9643,57.0083,-0.2847,0.0803,-0.0107,207.5156
20:50:14:932,0.9722,1.6035,14.5497,57.1785,-0.4227,0.2699,-0.0331,207.5
20:50:14:944,0.7423,1.4599,14.8466,58.08,-0.4093,0.504,-0.0653,207.5
20:50:14:976,0.4742,0.6458,13.9894,56.9364,-0.2069,0.662,-0.0837,207.5312
20:50:14:984,0.2671,-0.2927,12.0801,56.8469,0.0005,0.5807,-0.0049,207.5781
20:50:15:006,0.4586,-0.835,10.4089,57.0687,0.0024,0.2164,0.1752,207.6562
20:50:15:033,0.6609,-0.8697,10.106,58.0058,-0.1878,-0.3434,0.392,207.7344
20:50:15:050,0.716,-0.5321,11.2098,57.4754,-0.3734,-0.7703,0.6426,207.7188
20:50:15:065,1.0727,-0.3956,12.2668,56.1496,-0.2679,-0.8102,0.8607,207.3281
20:50:15:085,1.4618,-0.7608,11.4719,55.1654,0.1558,-0.5897,1.0197,206.7656
20:50:15:110,1.4175,-1.1115,8.2374,56.0519,0.592,-0.3373,1.2082,205.9844
20:50:15:131,0.692,-0.4088,5.4038,53.7953,0.7151,-0.3064,1.5174,204.9375
20:50:15:148,0.8297,0.1048,4.5754,53.7953,0.6125,-0.4366,1.8333,203.6562
20:50:15:165,1.3792,0.4974,5.1512,55.105,0.4916,-0.4374,1.9707,202.0781
20:50:15:186,2.5511,0.8517,5.7761,56.5767,0.4826,-0.3255,1.8926,200.1875
20:50:15:205,3.4442,1.0684,6.0251,55.1239,0.5875,-0.1447,1.5475,197.9688
20:50:15:229,3.2993,1.157,5.5702,54.679,0.702,-0.0294,1.1009,195.6875
20:50:15:249,2.6266,1.1367,5.2075,55.6242,0.682,-0.0779,0.7238,193.75
20:50:15:267,1.9562,0.9511,5.5295,53.7978,0.5079,-0.2275,0.4303,192.1719
20:50:15:287,1.6282,0.5537,6.6871,55.8151,0.2477,-0.3674,0.225,191.0781
20:50:15:306,1.7814,0.2197,8.3104,55.0453,0.02,-0.4566,0.0732,190.4062
20:50:15:329,2.101,-0.1012,10.0641,55.4391,-0.1137,-0.512,-0.0986,190.1719
20:50:15:346,2.4051,-0.3729,11.6946,53.936,-0.1547,-0.4574,-0.2965,189.9219
20:50:15:367,2.5224,-0.7392,12.5996,55.9675,-0.1659,-0.2542,-0.5063,189.9219
20:50:15:389,2.5667,-1.2288,12.7804,54.6232,-0.233,0.0912,-0.6805,190.1875
20:50:15:404,3.1772,-1.6538,12.4548,54.9419,-0.388,0.4588,-0.8131,190.6875
20:50:15:425,3.4861,-1.2324,11.873,55.973,-0.6261,0.7384,-1.0233,191.4062
20:50:15:446,3.0013,-0.4591,12.086,54.7503,-0.9236,0.6401,-1.3133,192.25
20:50:15:465,2.1477,-0.8481,14.1271,56.323,-1.0773,0.3144,-1.5815,193.2969
20:50:15:485,1.761,-2.2511,15.5864,57.7389,-0.9143,0.3096,-1.6629,194.6719
20:50:15:507,2.8301,-2.1506,14.485,56.028,-0.6088,0.5011,-1.5391,196.3281
20:50:15:531,5.0507,-1.2384,12.2345,56.1063,-0.4602,0.4747,-1.5173,198.3125
20:50:15:547,6.4154,-0.9236,10.9045,56.882,-0.5787,0.487,-1.7125,200.2188
20:50:15:566,5.9713,-1.0959,10.1707,56.0448,-0.8623,1.1136,-1.9263,201.9531
20:50:15:585,3.8859,-0.8386,8.9221,58.2872,-1.1015,2.3336,-1.9591,203.7188
20:50:15:611,2.0256,-0.2963,7.2019,57.2613,-1.1356,3.0569,-1.8464,205.8438
20:50:15:631,0.9889,0.003,5.9437,59.03,-0.9089,2.9203,-1.7008,208.125
20:50:15:646,0.1929,0.1059,5.0962,59.0688,-0.4943,2.2524,-1.5564,211.2656
20:50:15:667,-0.7265,0.0748,4.8292,59.4128,0.0101,1.2154,-1.3556,213.2344
20:50:15:685,-1.373,-0.0569,4.901,59.5804,0.5281,0.1458,-1.0454,215.0312
20:50:15:705,-1.5238,-0.2532,5.1512,57.476,0.9063,-0.6566,-0.6797,216.5312
20:50:15:727,-1.2233,-0.0844,5.5595,59.1947,1.056,-1.0273,-0.3367,217.7656
20:50:15:747,-0.3459,0.4603,5.9461,57.9932,0.9814,-1.0387,-0.1492,218.5938
20:50:15:765,0.4167,0.9128,6.3483,58.5576,0.7076,-0.8403,-0.2392,218.875
20:50:15:786,0.297,1.0301,6.9373,57.9032,0.2988,-0.5173,-0.4797,219.1562
20:50:15:807,-0.3099,0.7392,8.0458,58.7193,-0.0999,-0.2587,-0.6821,219.3906
20:50:15:832,-1.1192,0.1993,9.5159,58.6133,-0.3585,-0.1205,-0.7487,219.8281
20:50:15:848,-2.0098,-0.1143,11.0242,57.7606,-0.4141,-0.1469,-0.6315,220.4844
20:50:15:864,-2.5832,-0.2592,12.28,58.5489,-0.289,-0.333,-0.3724,221.3125
20:50:15:884,-2.5928,-0.3861,13.1167,57.8671,-0.0615,-0.476,-0.0328,222.125
20:50:15:907,-1.6136,-0.4232,13.106,59.7233,0.1526,-0.4949,0.3041,222.8594
20:50:15:930,-0.3004,-0.2173,12.4248,59.4724,0.2133,-0.484,0.4841,222.9062
20:50:15:947,0.4969,0.3609,12.2716,58.7083,0.037,-0.5527,0.5161,222.5625
20:50:15:969,0.9231,1.1247,14.0876,57.3139,-0.2903,-0.7269,0.4279,222.0469
20:50:15:985,0.7675,1.3294,17.5089,57.9183,-0.4517,-0.5793,0.2822,221.4531
20:50:16:005,1.2092,0.0006,19.5344,57.5008,-0.0778,0.0798,0.2058,220.9844
20:50:16:030,2.2351,-1.1857,17.3593,56.4919,0.616,0.8092,0.2255,220.6719
20:50:16:046,4.2857,-1.3928,10.5502,55.7475,1.2573,0.626,0.3006,220.4375
20:50:16:066,4.5838,-1.0888,8.8108,56.249,1.1662,0.2745,0.1416,220.1719
20:50:16:092,4.2343,-0.8757,7.8088,57.0543,0.9936,0.0881,-0.1167,219.8125
20:50:16:104,3.5172,-0.9726,7.0223,56.0601,0.8426,0.0761,-0.366,219.4688
20:50:16:127,2.8061,-1.1941,6.1173,56.1604,0.746,0.1291,-0.5194,219.4531
20:50:16:148,2.4207,-1.2516,5.0244,56.2151,0.6583,0.173,-0.5625,219.8594
20:50:16:166,2.5056,-1.1785,4.0332,56.1206,0.4818,0.0297,-0.575,219.8594
20:50:16:184,2.508,-0.8685,4.0703,54.7936,0.1872,-0.2052,-0.6065,220.7812
20:50:16:205,2.3895,-0.6398,5.01,54.6229,-0.0975,-0.3687,-0.6512,221.0938
20:50:16:230,2.18,-0.5656,6.1508,55.7166,-0.2455,-0.2979,-0.692,221.7656
20:50:16:248,2.4793,-0.2101,6.6045,54.203,-0.2578,-0.125,-0.7047,222.4531
20:50:16:264,2.9953,0.3035,6.6285,54.0122,-0.233,0.0098,-0.7822,223.2188
20:50:16:284,3.0048,0.8697,6.3292,54.8249,-0.2482,-0.0081,-0.9564,224.0469
20:50:16:305,2.5511,1.2157,6.2083,57.368,-0.3206,-0.203,-1.1583,224.8125
20:50:16:330,1.6605,1.3916,6.7063,53.8982,-0.4543,-0.4704,-1.3229,225.7031
20:50:16:348,0.8094,1.2995,7.7214,56.1752,-0.5651,-0.6638,-1.4028,226.7969
20:50:16:364,0.1486,1.1666,8.7521,53.5899,-0.6464,-0.7397,-1.4097,228.125
20:50:16:385,-0.4464,1.1103,9.7936,53.6232,-0.7486,-0.8499,-1.366,229.5938
20:50:16:404,-1.0378,0.9978,11.4037,51.741,-0.9049,-1.0502,-1.2946,231.25
20:50:16:425,-1.3466,0.4423,14.1379,54.2024,-1.0208,-1.2017,-1.1516,232.9062
20:50:16:446,-0.6846,-0.6135,16.829,51.2731,-0.8858,-1.096,-0.8781,234.4219
20:50:16:465,1.0177,-1.2923,17.5855,51.5232,-0.4562,-0.8182,-0.5551,236.6875
20:50:16:484,3.0419,-1.3378,16.0161,52.2672,0.0091,-0.6382,-0.4193,237.9219
20:50:16:505,4.2881,-1.0636,14.1906,51.187,0.1361,-0.627,-0.6624,238.75
20:50:16:528,4.0104,-0.8074,13.8889,50.889,-0.123,-0.5461,-1.1226,239.2656
20:50:16:548,2.7654,-1.2444,14.983,50.9421,-0.4091,-0.2326,-1.4906,239.8438
20:50:16:565,1.6689,-2.6725,15.9072,49.9854,-0.3473,0.2486,-1.5966,240.8125
20:50:16:584,1.3253,-3.6206,14.4036,50.7569,0.0602,0.7349,-1.3876,242.3594
20:50:16:605,1.4223,-3.7415,11.5557,49.589,0.4903,0.8377,-0.9798,244.2031
20:50:16:630,1.518,-2.8856,9.0322,49.1526,0.7545,0.5453,-0.5324,245.9531
20:50:16:648,1.4941,-1.4754,7.6173,51.4066,0.8456,0.0971,-0.2326,247.2188
20:50:16:665,1.6964,-0.3537,6.8894,50.5348,0.8136,-0.0939,-0.1665,248.0312
20:50:16:685,1.9334,0.3514,6.1341,50.6888,0.6775,0.1283,-0.2997,248.3906
20:50:16:704,1.8951,0.7428,5.1967,48.6237,0.5076,0.5283,-0.5066,248.4844
20:50:16:724,1.6413,0.9248,4.3181,49.0763,0.3984,0.7775,-0.6946,248.6406
20:50:16:748,1.4247,0.9164,3.8237,50.7532,0.3792,0.7421,-0.832,248.9531
20:50:16:766,1.1469,1.0265,3.5854,49.0331,0.4128,0.4513,-0.8949,249.7812
20:50:16:792,1.2188,1.1762,3.51,48.2453,0.3995,0.0361,-0.9175,250.5938
20:50:16:804,1.3433,1.424,3.9015,49.8354,0.2533,-0.292,-0.954,251.5469
20:50:16:825,1.4893,1.892,4.8616,47.9406,-0.0376,-0.4126,-1.0227,252.5625
20:50:16:857,1.8065,2.165,6.1448,49.8595,-0.3862,-0.3413,-1.1756,253.5781
20:50:16:864,1.3085,2.2571,7.9525,47.9208,-0.718,-0.1516,-1.4123,254.7344
20:50:16:884,0.0923,2.1721,10.2198,47.1843,-0.885,0.1112,-1.5551,256.0156
20:50:16:963,-0.875,1.7436,12.086,48.0998,-0.7603,0.3815,-1.5021,257.4531
20:50:16:963,-1.4161,1.4587,12.6379,47.5334,-0.4346,0.4649,-1.3055,259.1875
20:50:16:963,-1.6722,1.3366,12.6894,46.566,-0.1816,0.3562,-1.0177,260.9688
20:50:16:964,-1.2413,1.2097,13.0258,46.9624,-0.089,0.243,-0.6741,262.4844
20:50:16:985,0.036,0.9236,13.6028,47.1663,-0.0692,0.116,-0.4051,263.8125
20:50:17:005,1.1338,0.7799,14.0313,47.4583,-0.0642,0.0042,-0.2595,264.7656
20:50:17:032,1.9658,0.7117,14.3474,48.2908,-0.0376,-0.1623,-0.1945,265.3438
20:50:17:047,2.034,0.8769,15.0872,46.2866,0.0349,-0.399,-0.186,265.8281
20:50:17:065,2.1142,0.513,16.0951,46.9017,0.2583,-0.5114,-0.1647,266.0469
20:50:17:085,2.3859,-0.4328,15.3685,46.6793,0.6863,-0.2499,-0.1513,266.2812
20:50:17:104,2.4278,-0.9355,12.0669,44.7442,1.0661,0.0979,-0.1636,266.4844
20:50:17:125,2.2363,-0.7775,8.5438,44.085,1.0797,0.0601,-0.1713,266.6719
20:50:17:146,1.7419,-0.0629,6.8511,43.5058,0.7302,-0.3599,-0.1559,266.8438
20:50:17:165,1.5396,0.4064,7.1229,45.4877,0.2964,-0.786,-0.1346,267.0312
20:50:17:184,1.5707,0.5369,7.8998,44.3564,0.029,-0.9317,-0.1449,267.2344
20:50:17:208,1.281,0.4268,8.3475,44.3564,-0.0498,-0.802,-0.1545,267.3438
20:50:17:232,0.9063,0.507,8.2817,44.0304,-0.0226,-0.455,-0.0672,267.5781
20:50:17:249,1.1709,0.8158,7.6795,43.9661,0.0525,-0.093,0.0607,267.8281
20:50:17:264,1.6234,1.2121,6.814,44.0514,0.1103,0.1437,0.0889,268.0312
20:50:17:284,1.8425,1.5652,6.1448,44.9639,0.1004,0.1895,0.0181,268.0625
20:50:17:305,1.9119,1.5951,5.8264,42.9415,0.0711,0.0875,-0.0967,267.9531
20:50:17:331,1.8149,1.4599,5.8515,43.9205,0.0573,-0.097,-0.2395,267.8594
20:50:17:349,1.5911,1.3198,6.0311,41.8737,0.0408,-0.297,-0.3521,267.9531
20:50:17:367,1.384,1.2013,6.468,43.9579,-0.0099,-0.5098,-0.4163,268.2188
20:50:17:384,1.1469,1.1355,7.3659,42.8563,-0.0719,-0.6446,-0.4672,268.6406
20:50:17:406,1.0093,0.9104,8.4756,42.5883,-0.1071,-0.5857,-0.5213,269.1719
20:50:17:432,0.9674,0.5609,9.2082,41.4433,-0.131,-0.3687,-0.5852,269.7656
20:50:17:448,1.062,0.2209,10.7106,42.2015,-0.2,-0.207,-0.632,270.4062
20:50:17:465,1.293,0.0796,12.9144,44.2508,-0.4906,-0.4848,-0.7327,271.1094
20:50:17:484,1.4702,-0.6267,15.6857,44.9083,-0.4581,-0.4638,-0.7391,271.8594
20:50:17:504,1.8377,-1.7053,15.9072,42.9002,-0.1614,-0.0305,-0.6451,272.6562
20:50:17:524,2.2267,-1.7005,13.4711,44.4381,0.0599,0.3965,-0.4949,273.5625
20:50:17:547,2.4254,-0.8553,11.0901,43.4905,-0.0674,0.3736,-0.4232,274.4844
20:50:17:565,1.961,0.0988,11.0111,43.3477,-0.4956,0.0774,-0.5074,275.2031
20:50:17:585,1.536,-0.1467,13.0078,42.7742,-0.9292,0.0771,-0.6113,275.7188
20:50:17:604,1.8149,-1.0193,14.2372,43.5223,-1.0362,0.503,-0.5324,276.4531
20:50:17:624,2.7295,-1.0947,13.3502,44.8343,-0.7918,0.8028,-0.3343,276.7812
20:50:17:647,3.425,-0.5656,11.29,44.7974,-0.4277,0.6082,-0.1769,277.5
20:50:17:666,3.4885,0.1454,9.3112,43.5793,-0.1396,0.1807,-0.1449,278.3438
20:50:17:685,2.9881,0.6195,7.7825,45.451,-0.0013,-0.1069,-0.2448,278.5
20:50:17:705,2.2351,0.6028,6.6189,47.1246,-0.0099,-0.1192,-0.3758,278.6719
20:50:17:730,1.4414,0.4591,5.8863,44.5206,-0.1286,0.1168,-0.399,278.8438
20:50:17:749,1.0524,0.7177,5.6325,46.2735,-0.2202,0.3528,-0.2717,279.125
20:50:17:765,1.2655,1.0972,5.7318,46.9426,-0.1073,0.3331,-0.1242,279.5469
20:50:17:783,1.6126,1.4108,5.6097,46.9688,0.2013,-0.0089,-0.109,280
20:50:17:804,1.6198,1.6083,5.2267,45.395,0.4743,-0.4073,-0.2038,280.2969
20:50:17:826,1.3983,1.473,5.2123,44.2862,0.526,-0.577,-0.3042,280.4375
20:50:17:846,1.2271,1.4551,5.7151,46.6215,0.3649,-0.455,-0.3306,280.5469
20:50:17:865,0.9865,1.6466,6.674,47.1322,0.0754,-0.1977,-0.2725,280.7812
20:50:17:884,1.0404,1.9196,8.5283,47.9833,-0.1835,-0.0076,-0.1348,281.3438
20:50:17:905,1.7527,2.4714,10.7621,46.8457,-0.2155,0.0966,-0.0184,281.6875
20:50:17:925,2.5368,2.8533,12.4188,48.3939,0.0612,0.0936,-0.0986,281.9375
20:50:17:947,2.4745,2.6773,12.3925,48.8458,0.4471,0.0105,-0.3439,282.0156
20:50:17:968,1.117,2.0764,12.0022,48.5337,0.6096,-0.093,-0.4784,282.0469
20:50:17:985,-0.772,1.3126,12.6966,49.7741,0.555,-0.1836,-0.2605,282.2812
20:50:18:004,-0.7241,0.5489,14.5245,48.7599,0.6187,-0.3996,0.2828,282.7656
20:50:18:024,1.5994,0.0664,14.849,50.5241,0.9052,-0.5437,0.7563,283.2188
20:50:18:047,2.6553,0.9164,13.2604,50.866,0.999,-0.7516,0.9004,283.2344
20:50:18:066,2.8708,2.0381,13.1874,51.7076,0.7715,-1.1991,0.9246,282.5938
20:50:18:083,3.5747,2.0991,14.5341,50.9649,0.6173,-1.3629,0.8127,281.625
20:50:18:108,4.1026,1.2264,14.3055,52.1983,0.735,-0.8182,0.5014,280.6562
20:50:18:131,3.9386,0.5752,11.6862,51.2918,0.8661,0.0713,0.115,279.7188
20:50:18:149,3.1162,0.4004,8.4492,52.7042,0.6732,0.6359,-0.186,279.0156
20:50:18:165,2.538,0.3083,6.8499,51.8112,0.183,0.6095,-0.2757,278.6406
20:50:18:187,2.1848,0.2891,7.0139,51.9879,-0.3361,0.3967,-0.2307,278.625
20:50:18:204,1.7347,0.3262,7.8723,53.2225,-0.6181,0.2963,-0.1617,278.7344
20:50:18:232,1.2499,0.4591,8.2266,53.6229,-0.6003,0.2891,-0.0717,278.9531
20:50:18:251,1.0404,0.6542,7.7609,54.0537,-0.4194,0.2862,0.054,279.1719
20:50:18:267,1.1637,0.8541,6.9481,53.2865,-0.2748,0.2351,0.181,279.3281
20:50:18:284,1.4474,1.1331,6.2765,53.2273,-0.2242,0.1469,0.2894,279.3438
20:50:18:303,1.7323,1.4311,5.909,54.8082,-0.2442,0.0068,0.3272,279.2031
20:50:18:326,1.8508,1.5461,6.0443,56.3611,-0.2815,-0.1386,0.2926,278.9219
20:50:18:348,1.8042,1.2444,6.5518,54.725,-0.2703,-0.166,0.2615,278.5625
20:50:18:366,1.6772,0.9224,6.9708,55.4694,-0.2091,-0.076,0.2963,278.25
20:50:18:383,1.7527,0.8673,7.47,56.0156,-0.1324,0.0343,0.3738,277.9844
20:50:18:403,1.8161,0.92,7.9668,56.691,-0.086,0.1293,0.4058,277.7031
20:50:18:423,1.712,1.0397,8.7749,56.369,-0.1047,0.2335,0.3914,277.3281
20:50:18:448,1.536,1.0038,9.8283,58.2088,-0.1499,0.4873,0.3587,276.8906
20:50:18:465,1.4187,1.0134,10.3993,59.5107,-0.1779,0.8271,0.311,276.1875
20:50:18:488,1.6521,1.1905,10.7321,58.2682,-0.2045,0.9328,0.2146,275.7812
20:50:18:503,1.6653,0.9954,11.788,60.2921,-0.2288,0.7405,0.083,275.3594
20:50:18:523,1.6425,0.2173,13.2736,59.9567,-0.2352,0.5807,0.0628,275.0469
20:50:18:548,2.2531,-1.0828,14.2432,61.0048,-0.1633,0.5197,0.1802,274.8906
20:50:18:567,3.2083,-1.5688,13.8051,60.9587,-0.0543,0.617,0.3605,274.7969
20:50:18:584,3.8177,-1.0469,12.5924,59.8419,-0.0631,0.6992,0.4516,274.5469
20:50:18:604,3.7961,0.1826,11.521,61.3645,-0.1587,0.5842,0.3296,274.0938
20:50:18:624,3.2419,1.011,11.2912,61.8592,-0.2168,0.2558,-0.0134,273.5469
20:50:18:648,2.7475,0.598,11.1116,61.5144,-0.1417,-0.1003,-0.4232,273.3125
20:50:18:664,2.6517,-0.3011,10.3766,60.7705,-0.0085,-0.3628,-0.7402,273.0781
20:50:18:685,2.4901,-0.744,9.2944,62.3953,0.036,-0.5407,-0.9426,273.3281
20:50:18:707,2.18,-0.4866,8.5426,60.5331,0.0032,-0.8473,-1.0805,273.9844
20:50:18:723,2.016,-0.2029,8.1751,62.5322,-0.0139,-1.1873,-1.2115,274.9844
20:50:18:744,1.7467,-0.3394,7.8675,60.5439,-0.0059,-1.3277,-1.3343,276.2031
20:50:18:764,1.2679,-0.4782,7.2198,61.2399,-0.0583,-1.1173,-1.3705,278.2812
20:50:18:782,0.9051,-0.3992,6.413,60.9697,-0.1944,-0.7021,-1.2941,279.9062
20:50:18:804,0.6178,-0.1071,5.836,59.5938,-0.379,-0.3205,-1.1732,281.5469
20:50:18:823,0.394,0.3645,5.8396,61.6884,-0.5326,-0.1101,-1.0379,283.0156
20:50:18:847,0.5771,0.6901,6.3448,60.3943,-0.5659,-0.067,-0.9135,284.4062
20:50:18:867,0.9901,1.1462,7.0534,61.8679,-0.3049,0.017,-0.7998,285.6406
20:50:18:885,1.0464,1.2983,6.9768,61.2229,-0.1973,0.0787,-0.7386,285.6406
20:50:18:904,0.9997,1.5652,7.1971,62.3416,-0.2003,0.0177,-0.6597,287.6719
20:50:18:923,0.789,1.7508,8.3834,62.5494,-0.2863,-0.1394,-0.5766,287.6719
20:50:18:948,0.5233,1.6849,10.0665,59.9875,-0.3454,-0.1631,-0.4688,288.6094
20:50:18:963,0.0241,1.5628,11.3989,62.5348,-0.3121,-0.0515,-0.3511,289.4531
20:50:19:013,-0.6427,1.2815,12.4164,60.8019,-0.1814,-0.0025,-0.1937,290.875
20:50:19:014,-0.6846,0.9068,12.9013,64.1271,-0.0794,0.0231,0.0428,291.6719
20:50:19:027,-0.4787,0.6746,13.683,64.252,-0.1329,0.1653,0.3379,291.8438
20:50:19:048,0.4406,0.5908,14.6838,63.5776,-0.2144,0.2785,0.6207,292.0781
20:50:19:063,1.3014,0.6063,15.2548,64.0334,-0.2205,0.2052,0.731,292.0312
20:50:19:082,1.4283,0.9643,15.9455,64.0111,-0.179,0.0596,0.7328,291.6406
20:50:19:102,1.3828,0.92,16.7009,62.3832,-0.0053,0.0492,0.7504,290.9688
20:50:19:123,1.4091,0.2304,16.1646,64.4198,0.3947,0.2566,0.7986,290.1406
20:50:19:147,1.8688,-0.6387,13.4292,63.3072,0.8266,0.6196,0.8639,289.3125
20:50:19:169,2.3261,-0.8182,9.8487,61.6627,0.9449,0.7983,0.879,288.5
20:50:19:188,2.2638,-0.3657,7.6975,61.8124,0.6711,0.4913,0.8577,287.5469
20:50:19:203,2.131,0.1742,7.5742,62.2526,0.244,-0.063,0.8133,286.5
20:50:19:223,2.1932,0.0281,8.9125,62.9835,-0.0389,-0.4166,0.7291,285.4219
20:50:19:246,1.8832,-0.331,9.5865,62.1785,-0.0772,-0.2691,0.6154,284.4375
20:50:19:265,1.1721,-0.3932,8.8682,63.5968,0.0085,0.1741,0.576,283.5
20:50:19:283,0.8429,-0.3813,7.2797,63.5968,0.0903,0.5613,0.6351,282.0312
20:50:19:303,0.8967,-0.3011,5.8096,64.6311,0.1217,0.7083,0.7254,281.7188
20:50:19:323,1.2702,0.0784,5.0124,62.1142,0.0975,0.6609,0.7989,280.6094
20:50:19:348,1.888,0.2256,4.9848,61.5791,0.0402,0.5746,0.793,280.1875
20:50:19:364,2.2243,0.2544,5.065,61.163,-0.0458,0.5666,0.7209,279.2969
20:50:19:382,2.0831,0.4256,5.5211,62.0213,-0.1547,0.4952,0.6324,278.3438
20:50:19:406,2.0388,0.422,6.3831,63.0415,-0.2016,0.267,0.5137,277.4375
20:50:19:422,1.7204,0.2364,7.4892,61.7507,-0.1832,-0.0124,0.3765,276.6719
20:50:19:443,1.1721,0.2041,8.7976,60.8973,-0.1278,-0.1918,0.2953,275.9844
20:50:19:465,0.8644,0.0676,10.0869,63.0378,-0.0061,-0.2334,0.2593,275.4844
20:50:19:484,0.9183,-0.2999,10.5885,62.4777,0.1547,-0.1788,0.1954,275.1094
20:50:19:503,1.1697,-0.4579,10.5119,61.194,0.204,-0.1652,0.0969,274.8281
20:50:19:523,1.4498,-0.5884,10.7405,61.0081,0.0461,-0.2068,-0.0168,274.5625
20:50:19:547,1.5516,-0.7057,12.0382,60.4554,-0.2229,-0.2579,-0.1415,274.4062
20:50:19:564,2.1346,-1.4335,13.2903,59.5406,-0.3899,-0.2007,-0.2853,274.3594
20:50:19:584,2.7319,-1.9866,13.4567,61.4006,-0.4799,0.0108,-0.4744,274.4062
20:50:19:603,2.0328,-1.4096,12.9503,59.7082,-0.6954,0.2119,-0.7231,274.7344
20:50:19:623,0.5197,-1.169,13.8314,59.7793,-0.9755,0.2958,-0.966,275.1406
20:50:19:649,-0.693,-2.311,15.3206,58.6897,-1.0767,0.5975,-1.0691,275.8281
20:50:19:670,-0.4141,-3.6386,15.0561,58.9925,-0.9159,1.2417,-0.8925,276.8125
20:50:19:683,0.6837,-3.6206,12.4811,59.7024,-0.6772,1.614,-0.5641,278.0156
20:50:19:702,1.5324,-2.323,10.0833,60.1296,-0.4634,1.2287,-0.2991,279.125
20:50:19:722,1.6413,-0.9966,8.9257,61.0701,-0.2626,0.4803,-0.2435,279.9531
20:50:19:746,1.4941,-0.3238,8.4576,60.5072,-0.0647,-0.0462,-0.2944,280.4219
20:50:19:765,1.5348,-0.0245,7.7753,58.8917,0.1124,-0.1948,-0.3404,280.6875
20:50:19:783,1.5168,0.2364,6.7111,59.8663,0.2466,-0.0936,-0.3308,280.9844
20:50:19:803,1.542,0.5345,5.5487,60.0136,0.3334,0.0092,-0.2906,281.3594
20:50:19:823,1.5372,0.8577,4.6437,57.7171,0.3782,-0.0188,-0.2675,281.7344
20:50:19:848,1.5276,1.315,4.3516,59.1317,0.3515,-0.1421,-0.3111,282.0938
20:50:19:867,1.5803,1.5377,4.688,58.7764,0.2668,-0.2164,-0.4453,282.5938
20:50:19:882,1.4091,1.4647,5.3967,58.5581,0.1537,-0.1202,-0.6232,282.9375
20:50:19:903,0.6861,1.2492,6.2238,56.3318,0.045,0.0793,-0.7351,283.4531
20:50:19:924,-0.2202,0.9834,7.5083,58.1964,-0.0407,0.2281,-0.6861,284.1719
20:50:19:948,-1.1527,1.0193,9.1651,59.902,-0.0365,0.3264,-0.4677,285.0156
20:50:19:965,-1.2556,1.0146,10.5047,57.5329,0.1324,0.2835,-0.2315,285.7656
20:50:19:983,-1.1407,0.9655,11.2098,57.7716,0.3742,0.0939,-0.0919,286.2969
20:50:20:004,-0.8726,0.8242,11.515,57.0343,0.5004,-0.1492,-0.0243,286.5625
20:50:20:023,-0.6834,0.6303,12.2034,57.319,0.44,-0.3791,-0.0201,286.6875
20:50:20:047,-0.4811,0.2316,13.6207,57.5619,0.3161,-0.5013,-0.043,286.7188
20:50:20:068,0.1342,-0.3154,14.7292,54.9206,0.2317,-0.382,-0.0789,286.75
20:50:20:085,0.5436,-0.4926,14.8873,55.2942,0.1329,-0.0616,-0.1678,286.8125
20:50:20:106,0.3102,-0.2819,14.3797,57.4045,-0.0221,0.213,-0.293,286.875
20:50:20:122,-0.6008,-0.1885,14.1307,56.6268,-0.1782,0.247,-0.4022,287.0312
20:50:20:143,-1.7309,-0.7667,14.5976,55.8543,-0.1838,0.1837,-0.3657,287.2969
20:50:20:166,-1.7261,-1.8094,14.266,55.3917,0.0929,0.2494,-0.1503,287.9062
20:50:20:185,-1.2173,-2.238,11.9927,55.1353,0.4567,0.3088,0.1147,288.3125
20:50:20:201,-0.7265,-1.8908,9.2705,55.8441,0.6187,0.103,0.339,288.4844
20:50:20:223,-0.1986,-1.1474,7.4593,52.498,0.5164,-0.2851,0.4529,288.375
20:50:20:249,0.0971,-0.5094,7.0235,52.6248,0.2703,-0.6315,0.4404,288
20:50:20:265,0.2719,-0.0162,7.5419,54.0265,0.0008,-0.7908,0.4079,287.5156
20:50:20:283,0.5173,0.0293,7.4377,52.1147,0.0602,-0.6688,0.474,287.0625
20:50:20:302,0.8129,0.0724,6.9313,50.9144,0.1683,-0.4512,0.5526,286.6406
20:50:20:331,0.8656,0.1143,6.4297,51.205,0.2557,-0.2222,0.6261,285.6875
20:50:20:343,0.7675,0.3047,6.1317,49.6508,0.3092,-0.0518,0.6945,285.1094
20:50:20:362,0.6741,0.2616,6.2825,52.2975,0.334,-0.0022,0.7278,285.1094
20:50:20:382,0.5233,0.1203,6.8763,51.4334,0.3244,0.14,0.7853,284.4062
20:50:20:403,0.7866,0.5716,7.5335,50.6566,0.3438,0.2742,0.8756,282.8281
20:50:20:423,1.4737,1.0529,7.3838,51.2391,0.461,0.2082,0.8103,281.9062
20:50:20:450,1.6294,1.418,6.7182,51.698,0.5348,-0.1897,0.5331,281.4062
20:50:20:467,1.3804,1.224,6.7314,49.5753,0.4202,-0.6608,0.2324,280.3906
20:50:20:485,1.0488,0.489,7.9345,50.7558,0.1452,-0.9333,0.0394,279.625
20:50:20:507,0.8979,-0.2185,9.9612,48.2744,-0.1297,-0.9884,-0.0267,279.3906
20:50:20:522,1.0416,-0.9774,12.4272,47.2722,-0.2916,-0.8523,-0.0065,279.1719
20:50:20:542,1.2942,-1.3006,14.1714,48.4059,-0.3473,-0.5093,0.0806,279.2031
20:50:20:567,2.1262,-1.3749,14.6909,49.0716,-0.3419,-0.1,0.1619,279.2969
20:50:20:587,3.3987,-1.5161,14.0373,48.9011,-0.3396,0.2122,0.0604,279.3906
20:50:20:603,3.279,-1.0959,12.7074,48.1981,-0.4437,0.3363,-0.2491,279.3438
20:50:20:625,1.3504,-0.4004,12.5673,48.5594,-0.6669,0.2255,-0.5561,279.2031
20:50:20:648,0.0109,-1.0026,13.61,48.0499,-0.7401,0.0936,-0.644,279.1406
20:50:20:665,0.1857,-2.4331,14.2492,48.8477,-0.5361,0.132,-0.448,279.4219
20:50:20:681,1.0308,-2.876,13.2149,48.1691,-0.2317,0.2662,-0.0347,280.0625
20:50:20:701,1.9897,-1.7663,11.5426,48.2439,-0.0463,0.2153,0.3587,280.7812
20:50:20:722,2.684,-0.331,10.5562,47.9926,0.0149,0.0193,0.487,281.4062
20:50:20:742,3.0048,0.3885,9.8571,49.3411,0.0578,0.0225,0.3475,281.1875
20:50:20:765,2.927,0.5549,8.6169,48.7735,0.0519,0.3381,0.0982,280.6875
20:50:20:783,2.4398,0.665,6.9541,48.643,-0.0149,0.7578,-0.1189,280.1719
20:50:20:802,1.7634,0.7512,5.4098,49.42,-0.0871,0.9842,-0.2467,279.9062
20:50:20:825,1.2427,0.896,4.4725,49.4486,-0.1212,0.9051,-0.2829,279.9219
20:50:20:850,0.941,0.9978,4.2762,48.2103,-0.0948,0.6606,-0.2645,280.1094
20:50:20:868,0.9913,1.2037,4.4234,48.7074,0.0176,0.3682,-0.2331,280.3906
20:50:20:883,1.1158,1.4323,4.6748,48.6925,0.1414,0.0827,-0.2472,280.5312
20:50:20:902,1.1074,1.6634,4.998,49.8568,0.1944,-0.0827,-0.2858,280.7969
20:50:20:922,1.1841,1.8681,5.7318,47.6947,0.1324,-0.158,-0.3279,281.0469
20:50:20:943,1.1625,2.0524,6.905,47.2472,0.02,-0.1636,-0.3657,281.5
20:50:20:963,1.0548,2.1291,8.466,48.5907,-0.0559,-0.1857,-0.4003,281.8438
20:50:20:983,0.704,2.165,10.2964,48.8358,-0.0264,-0.2576,-0.4456,282.2344
20:50:21:002,0.2778,1.8489,11.788,48.257,0.1209,-0.3218,-0.5066,282.6875
20:50:21:022,-0.4332,1.151,12.766,47.9027,0.2431,-0.2773,-0.4944,283.1562
20:50:21:080,-0.4715,0.6255,13.1886,48.3946,0.2602,-0.1133,-0.3332,283.7031
20:50:21:080,0.1474,0.5178,13.3227,48.142,0.1965,-0.0094,-0.1942,284.3125
20:50:21:092,0.8417,0.4986,13.5704,48.57,0.045,-0.0211,-0.2043,284.7812
20:50:21:101,0.8979,0.5154,14.1247,47.4935,-0.1577,-0.0606,-0.333,285.0781
20:50:21:122,0.1078,0.3873,14.9459,48.5202,-0.3055,-0.1596,-0.4384,285.2812
20:50:21:143,-1.0067,-0.1311,15.9623,47.6353,-0.2445,-0.2281,-0.3684,285.5781
20:50:21:165,-1.2233,-1.0768,16.0245,49.995,0.1073,-0.0941,-0.1162,286.0156
20:50:21:184,-0.5087,-1.5796,13.58,49.1756,0.5468,0.2162,0.1571,286.5156
20:50:21:201,0.2084,-1.2145,10.1827,48.903,0.7076,0.2947,0.3107,286.8281
20:50:21:222,0.9446,-0.6602,7.8172,48.5365,0.4911,0.1022,0.3102,286.7969
20:50:21:244,1.2451,-0.2269,6.9984,49.6747,0.049,-0.1325,0.1816,286.2969
20:50:21:267,0.8728,-0.2987,7.5119,51.5902,-0.38,-0.239,0.0567,285.9375
20:50:21:285,0.1438,-0.5692,8.3679,49.502,-0.6354,-0.1548,0.0905,285.75
20:50:21:303,-0.4021,-0.5549,8.9125,49.7487,-0.6147,0.0268,0.2905,285.7031
20:50:21:327,-0.3147,-0.3382,8.7449,50.9112,-0.3236,0.1597,0.548,285.6094
20:50:21:349,0.2336,-0.0018,8.0147,51.5377,0.1127,0.1568,0.7491,285.2969
20:50:21:366,0.7651,0.3705,6.4764,51.5377,0.4812,0.0979,0.8463,284.6719
20:50:21:382,1.2511,0.6913,5.1584,50.9343,0.6176,-0.047,0.8596,283.7969
20:50:21:402,1.5192,0.829,4.6892,51.6972,0.5329,-0.2275,0.7904,283.3125
20:50:21:423,1.3085,0.9355,5.1632,50.4296,0.3105,-0.3634,0.6777,282.375
20:50:21:442,1.2188,0.8302,6.5303,50.3086,0.0959,-0.4638,0.6034,281.4219
20:50:21:465,1.3169,0.7045,8.2865,51.0932,0.0173,-0.4595,0.5326,280.5938
20:50:21:489,1.4881,0.6662,9.3866,51.6308,0.1012,-0.3194,0.4335,279.2969
20:50:21:506,1.7359,0.1981,9.1208,52.1369,0.2072,-0.1631,0.0255,278.5469
20:50:21:526,1.445,-0.3549,9.4237,51.1054,-0.013,-0.2089,-0.1402,278.25
20:50:21:550,1.6114,-1.1235,10.7094,52.346,-0.3108,-0.2662,-0.1977,278.2344
20:50:21:570,2.0819,-1.8836,12.6044,52.0639,-0.5204,-0.1929,-0.2011,278.4062
20:50:21:586,2.9103,-2.3457,13.2592,53.5929,-0.5926,0.026,-0.2406,278.6562
20:50:21:603,3.0132,-1.7268,12.6391,53.0395,-0.7406,0.1139,-0.4587,278.9062
20:50:21:623,1.6605,-0.9559,13.4663,52.8535,-1.0722,-0.1168,-0.7884,279.2031
20:50:21:643,-0.3518,-1.7424,16.1466,53.3938,-1.2189,-0.1418,-0.9495,279.75
20:50:21:667,-1.2389,-3.222,17.23,54.1467,-0.8653,0.3373,-0.6728,279.75
20:50:21:690,0.2743,-3.532,14.5748,53.6821,-0.241,0.8116,-0.0906,280.6406
20:50:21:703,2.4841,-2.6522,10.689,53.314,0.1942,0.7853,0.3549,281.7812
20:50:21:728,3.5699,-0.8912,7.9225,55.0641,0.2911,0.3863,0.4415,282.6875
20:50:21:751,3.7494,0.4244,6.6464,54.4931,0.1811,-0.0235,0.189,282.2812
20:50:21:768,3.2694,0.5501,6.3675,54.1153,0.0085,-0.1839,-0.2421,281.7812
20:50:21:785,2.3392,0.1526,6.2957,55.0301,-0.1755,0.0374,-0.586,281.7812
20:50:21:802,1.2918,-0.0389,6.0132,55.5609,-0.3228,0.4223,-0.7063,281.6094
20:50:21:822,0.5292,0.0533,5.5559,57.0115,-0.3585,0.613,-0.6754,281.8281
20:50:21:844,0.1055,0.1909,5.3236,55.5943,-0.274,0.5003,-0.5812,282.5
20:50:21:866,-0.0023,0.398,5.271,54.1273,-0.1342,0.2308,-0.4584,283.3125
20:50:21:886,0.2024,0.5968,5.7067,54.6743,-0.0139,0.0135,-0.3519,284.0469
20:50:21:903,0.6262,0.744,6.1963,54.171,0.0668,-0.0755,-0.2983,284.7031
20:50:21:921,0.9674,0.8661,6.6907,56.0009,0.0983,-0.1612,-0.3117,285.2344
20:50:21:942,0.9386,0.9188,7.6783,55.4648,0.0692,-0.2925,-0.3561,285.6406
20:50:21:966,0.6382,0.9284,9.1053,55.5801,-0.0032,-0.366,-0.3697,285.9531
20:50:21:985,0.3329,0.9595,10.8219,56.3641,-0.0399,-0.2928,-0.3436,286.3125
20:50:22:001,0.3437,0.8517,12.1938,55.9813,0.0357,-0.0297,-0.3223,286.7188
20:50:22:021,0.6513,0.738,12.177,57.1816,0.1337,0.3163,-0.3394,287.125
20:50:22:041,0.9375,0.7284,11.6228,55.9333,0.053,0.565,-0.4006,287.5156
20:50:22:064,1.3229,0.592,11.9424,56.3792,-0.2583,0.7009,-0.4893,287.8906
20:50:22:084,1.9921,0.2412,13.1431,56.0732,-0.6458,0.7869,-0.6198,288.2656
20:50:22:101,2.5212,-0.0173,14.576,56.7678,-0.9816,0.9296,-0.7873,288.9688
20:50:22:122,2.2471,0.0437,15.8557,56.0669,-1.1273,0.9994,-0.9298,289.5938
20:50:22:142,1.2511,-0.3358,17.0385,56.7006,-0.9396,0.8891,-1.0249,290.3438
20:50:22:166,0.0169,-1.1857,17.236,55.3614,-0.4051,0.7432,-0.9721,291.3125
20:50:22:182,-0.2489,-2.2224,15.56,57.5532,0.2802,0.5562,-0.7356,292.4375
20:50:22:202,0.3341,-2.5528,12.6642,56.4322,0.7902,0.1869,-0.4834,293.6094
20:50:22:232,0.8429,-2.1111,10.2712,56.272,0.9358,-0.3546,-0.3743,294.5781
20:50:22:251,0.6322,-1.4491,9.3447,57.7681,0.8037,-0.8297,-0.4352,295.3125
20:50:22:269,-0.0358,-1.4826,9.2657,56.2357,0.6362,-0.9487,-0.5284,295.8438
20:50:22:286,-0.9157,-1.9255,8.9293,56.5786,0.5483,-0.6734,-0.4866,296.2969
20:50:22:300,-1.6244,-2.0441,7.9142,56.9902,0.5558,-0.2297,-0.231,296.875
20:50:22:322,-1.8374,-1.7591,6.3459,56.7847,0.6288,0.0979,0.14,297.5
20:50:22:341,-1.5322,-1.2791,4.7526,56.4415,0.6916,0.1006,0.4825,297.9375
20:50:22:366,-0.9049,-0.8278,3.8703,58.8806,0.6842,-0.2049,0.7121,298
20:50:22:382,-0.3339,-0.4627,4.0044,59.8699,0.6277,-0.5871,0.8082,297.875
20:50:22:408,0.0241,-0.3035,4.7095,57.7033,0.5662,-0.86,0.8066,296.9844
20:50:22:420,0.2419,-0.2532,5.7306,57.7572,0.5161,-0.9839,0.7573,296.1562
20:50:22:442,0.5891,-0.2245,6.6021,58.0831,0.5039,-0.965,0.6908,295.25
20:50:22:467,0.9506,-0.1311,6.996,59.0549,0.5108,-0.8694,0.5813,294.4062
20:50:22:486,1.2702,0.1802,6.9433,58.7286,0.4695,-0.7634,0.4455,293.6562
20:50:22:501,1.6389,0.5082,7.1755,57.4965,0.3382,-0.6811,0.2593,292.9688
20:50:22:522,1.9346,0.671,8.2242,57.4479,0.1651,-0.6603,0.0042,292.4062
20:50:22:542,2.3357,0.2352,9.7637,56.9988,-0.0021,-0.6401,-0.3175,292.0156
20:50:22:564,2.2195,-0.5632,11.6575,57.5648,-0.2136,-0.5498,-0.6368,291.9062
20:50:22:584,1.3636,-1.2612,13.9966,57.477,-0.4362,-0.2515,-0.8241,292.1094
20:50:22:601,0.4311,-2.086,15.7228,56.722,-0.4855,0.3107,-0.737,292.7188
20:50:22:626,1.0153,-2.6701,15.1698,56.9221,-0.3127,0.9917,-0.4171,293.5781
20:50:22:649,1.8305,-2.2667,13.0282,56.4469,-0.1385,1.3405,-0.1458,294.5469
20:50:22:668,1.9777,-1.2133,10.8902,58.0216,-0.1593,1.2082,-0.056,295.375
20:50:22:681,1.5109,-0.4028,10.3191,59.2902,-0.4096,0.7839,-0.1447,295.4688
20:50:22:700,1.5384,-0.7368,11.3319,58.4771,-0.6964,0.4076,-0.244,295.4844
20:50:22:722,2.1118,-1.2492,12.6331,58.2251,-0.8522,0.311,-0.243,295.6094
20:50:22:741,3.1796,-0.9667,13.3837,56.0844,-0.8685,0.3701,-0.1854,295.8594
20:50:22:766,4.1134,-0.1179,13.5956,56.5046,-0.6964,0.496,-0.2821,296.125
20:50:22:781,3.4969,0.4842,12.4476,57.1784,-0.3523,0.7123,-0.6621,296.3281
20:50:22:801,1.6832,0.2999,10.0103,56.7309,-0.0389,0.9032,-1.0603,296.6406
20:50:22:823,0.2228,-0.4064,7.6424,56.9262,0.0751,1.0481,-1.1918,297.3594
20:50:22:848,-0.9432,-0.738,5.988,56.375,0.0362,1.1267,-1.0329,298.5625
20:50:22:868,-1.5011,-0.6794,5.0172,57.5182,0.0021,1.071,-0.6557,299.25
20:50:22:883,-1.276,-0.3681,4.409,56.341,0.0605,0.8734,-0.2259,300.5
20:50:22:901,-0.5757,0.094,3.7878,57.1743,0.168,0.5831,0.1033,301.4844
20:50:22:921,0.0588,0.6303,3.2886,58.5697,0.2085,0.2263,0.2804,301.9844
20:50:22:942,0.5652,1.0995,3.2275,56.6253,0.1441,-0.1487,0.3137,302.0312
20:50:22:965,0.7531,1.3569,3.9697,56.3032,-0.0093,-0.5146,0.2199,301.8125
20:50:22:982,0.4861,1.2995,5.6085,56.6316,-0.1752,-0.774,0.083,301.2969
20:50:23:001,-0.3901,0.841,7.8854,58.4565,-0.2823,-0.8606,0.0564,301.0625
20:50:23:024,-1.6926,0.5261,10.537,57.0571,-0.2719,-0.7085,0.2354,300.9688
20:50:23:049,-2.6694,0.6446,12.4883,57.3431,-0.0711,-0.3796,0.58,300.8906
20:50:23:067,-0.9576,0.7009,12.8977,57.1438,0.5265,-0.4459,1.0617,300.6094
20:50:23:082,0.1246,0.9798,13.0988,58.6274,0.5398,-0.7381,1.1153,300.6094
20:50:23:147,1.0631,0.9846,14.2372,57.3468,0.3902,-0.962,1.0639,299.9688
20:50:23:148,1.8855,0.7835,15.2655,57.3649,0.2732,-0.8161,0.9675,297.7656
20:50:23:149,1.9622,1.0684,15.062,57.9412,0.2328,-0.5405,0.846,297.7656
20:50:23:162,0.9997,1.6622,14.8202,57.7136,0.1971,-0.5586,0.7768,295.3906
20:50:23:185,0.6861,1.3581,15.7372,57.6239,0.3041,-0.6616,0.8383,294.3125
20:50:23:201,1.6892,0.3693,15.2763,56.5461,0.7129,-0.4787,0.9089,293.3594
20:50:23:221,2.4829,-0.1802,12.4619,56.8899,1.0908,-0.2041,0.8591,292.0781
20:50:23:240,2.6816,-0.1443,9.626,56.9592,1.0618,-0.3335,0.7632,291.5938
20:50:23:265,2.6206,0.1191,8.9341,57.7478,0.6914,-0.7682,0.674,290.5625
20:50:23:284,2.271,0.0437,10.1994,55.7821,0.33,-0.9871,0.609,289.6094
20:50:23:301,1.7204,-0.234,11.1308,56.8003,0.2868,-0.7312,0.5999,288.7344
20:50:23:321,1.1733,-0.1802,10.3419,55.1077,0.5366,-0.2249,0.633,288
20:50:23:342,1.0344,-0.0784,7.9716,55.4988,0.8043,0.2311,0.6841,287.3594
20:50:23:367,1.1637,0.1155,5.6325,55.0764,0.8852,0.4761,0.7312,286.75
20:50:23:384,1.4821,0.3238,3.9937,56.6962,0.7883,0.4367,0.7507,286.0156
20:50:23:401,1.8999,0.6542,3.2407,56.6962,0.5409,0.1482,0.7046,285.1562
20:50:23:425,1.87,1.1869,3.8644,56.7942,0.228,-0.3314,0.6391,284.2812
20:50:23:439,1.8712,1.3988,5.6552,56.7536,0.0381,-0.8577,0.6231,283.3281
20:50:23:462,1.943,1.2719,8.4672,56.1548,0.0722,-1.247,0.6476,282.4688
20:50:23:483,1.8808,1.5928,11.6431,57.1489,0.4245,-1.2539,0.7169,281.7969
20:50:23:503,2.423,2.2655,12.6283,56.1771,0.9785,-0.6979,0.7046,280.8906
20:50:23:522,3.0132,2.6689,10.8399,56.1373,1.301,0.1109,0.4508,280.2656
20:50:23:541,3.4226,2.6582,8.2015,56.2275,1.1572,0.7815,0.0354,279.5156
20:50:23:566,3.2945,2.5456,6.4716,57.5358,0.6,1.0409,-0.3916,278.7344
20:50:23:582,2.8768,1.9722,6.8595,56.9179,-0.1483,0.9006,-0.6864,278.2344
20:50:23:600,2.3943,0.7045,9.2178,55.1861,-0.7875,0.651,-0.8105,278.1875
20:50:23:621,1.9765,-0.5992,11.9939,56.0995,-1.0251,0.5163,-0.7396,278.6406
20:50:23:641,2.2064,-1.2384,13.3107,57.0641,-0.8048,0.6002,-0.542,279.4375
20:50:23:666,2.435,-0.8613,12.007,57.0956,-0.4272,0.7288,-0.4339,280.3281
20:50:23:683,2.0184,0.1203,10.1683,55.237,-0.3284,0.6287,-0.5418,281
20:50:23:703,1.2822,0.2424,9.6703,56.6702,-0.5286,0.4058,-0.7665,281.4688
20:50:23:721,0.8943,-0.8996,10.1408,55.5743,-0.7305,0.3075,-0.8656,281.9062
20:50:23:741,1.2283,-1.8226,10.0354,56.9345,-0.8378,0.3661,-0.7471,282.5625
20:50:23:761,1.9454,-1.5903,9.1939,58.1348,-0.873,0.3932,-0.5388,283.5156
20:50:23:783,2.7175,-0.7596,7.895,55.4998,-0.901,0.2883,-0.4475,284.4375
20:50:23:801,2.6792,-0.0868,6.996,57.0244,-0.9785,0.1325,-0.5452,284.8281
20:50:23:821,1.882,0.1059,6.5243,56.4147,-1.0578,0.0726,-0.656,285.625
20:50:23:841,1.1122,0.0162,6.1951,57.3184,-1.048,0.0297,-0.6395,286.1562
20:50:23:866,0.8309,0.0317,5.8049,55.7539,-0.9449,-0.1106,-0.5021,286.8594
20:50:23:883,1.1505,0.5632,5.6804,56.4806,-0.8922,-0.4076,-0.3857,287.5781
20:50:23:900,1.4318,1.1091,6.6776,58.723,-0.9422,-0.7029,-0.4174,288.25
20:50:23:920,1.1362,1.2133,8.229,58.4626,-0.9244,-0.7474,-0.542,288.75
20:50:23:941,0.4897,1.0265,9.4237,56.4176,-0.7555,-0.4627,-0.6278,289.1875
20:50:23:965,-0.0238,0.8625,9.3842,57.0229,-0.5172,0.002,-0.6179,289.7656
20:50:23:988,-0.0334,0.9846,8.794,57.8631,-0.3558,0.2883,-0.5284,290.4688
20:50:24:005,0.3784,1.4012,8.8,56.6799,-0.3443,0.262,-0.4693,291.2188
20:50:24:029,0.5628,1.588,9.9839,57.6131,-0.3944,-0.0241,-0.5338,292.4062
20:50:24:047,-0.7026,0.4926,13.829,58.373,-0.241,-0.1149,-0.6509,292.9844
20:50:24:067,-1.0007,0.0676,14.4779,56.9418,-0.0906,0.2159,-0.4533,294.0156
20:50:24:087,-0.5182,-0.0138,14.5269,57.0082,0.0157,0.4745,-0.2155,294.7656
20:50:24:106,0.4299,-0.1502,14.6778,56.665,0.0924,0.6007,-0.0469,295.2969
20:50:24:128,1.6952,-0.568,14.2923,57.934,0.2011,0.6657,-0.0014,295.5312
20:50:24:147,2.3333,-0.7667,13.3251,56.9687,0.233,0.5807,-0.1026,295.5938
20:50:24:170,2.119,-0.7727,12.948,56.873,0.0956,0.3421,-0.252,295.6094
20:50:24:185,1.2379,-0.9595,13.8171,58.4064,-0.0815,0.0705,-0.3599,295.7188
20:50:24:204,0.1378,-1.5832,15.1387,58.7309,-0.045,0.0604,-0.305,296.0156
20:50:24:234,-0.116,-2.4535,14.6802,57.3039,0.3065,0.3658,-0.0656,296.4375
20:50:24:250,0.3772,-2.815,11.9592,59.2086,0.6714,0.626,0.1914,296.625
20:50:24:263,0.8884,-2.6689,9.055,58.2032,0.7398,0.5229,0.3837,296.8594
20:50:24:283,0.9315,-1.9866,7.4796,59.4367,0.4876,0.1885,0.4535,296.7812
20:50:24:303,0.5137,-1.1558,7.4748,57.9553,0.0908,-0.051,0.4356,296.4688
20:50:24:324,0.139,-0.8422,8.1979,57.9937,-0.2304,0.0513,0.3557,295.9844
20:50:24:342,-0.3554,-0.9858,8.2793,57.4384,-0.3851,0.4462,0.2798,295.75
20:50:24:366,-0.9265,-1.1666,7.7621,59.3228,-0.3963,0.8505,0.3667,294.8438
20:50:24:385,-1.0964,-1.1486,6.7171,60.0622,-0.2711,1.058,0.6237,294.5156
20:50:24:402,-0.863,-0.7272,5.7773,58.5273,-0.0772,0.9405,0.8857,294.0781
20:50:24:421,-0.4141,-0.2304,5.2171,58.8381,0.1001,0.6361,1.0418,293.3594
20:50:24:444,0.0205,0.088,4.9848,59.6828,0.2093,0.3115,1.0724,292.3438
20:50:24:469,0.3616,0.3334,5.022,61.1183,0.2147,0.0228,1.0026,292.3438
20:50:24:485,0.4873,0.3526,5.6193,60.8218,0.1185,-0.2299,0.871,290
20:50:24:502,0.4347,0.4136,6.9218,60.4681,-0.0013,-0.4062,0.7635,290
20:50:24:521,0.5053,0.4052,8.5666,61.2611,-0.029,-0.5309,0.6537,288.875
20:50:24:542,0.4454,0.3825,10.0019,60.2292,0.0919,-0.504,0.4934,287.0625
20:50:24:568,0.4694,0.2316,10.2844,61.7802,0.2839,-0.3341,0.3142,287.0625
20:50:24:585,0.5723,0.015,9.8403,60.562,0.3297,-0.1612,0.0889,286.3125
20:50:24:602,0.2862,-0.2316,9.711,60.9349,0.134,-0.1141,-0.1455,285.7969
20:50:24:621,-0.3219,-0.7703,10.7836,61.6885,-0.2205,-0.1953,-0.3071,285.4531
20:50:24:641,-0.7373,-1.4826,13.1275,60.3252,-0.5329,-0.1612,-0.3221,285.4375
20:50:24:668,0.1893,-2.5576,14.849,60.5499,-0.6546,0.1629,-0.2451,285.6875
20:50:24:684,1.0835,-2.6246,14.6012,61.4361,-0.6898,0.6769,-0.2278,286.0625
20:50:24:703,1.2188,-1.8238,13.434,61.3343,-0.7963,1.0066,-0.3663,286.2188
20:50:24:720,0.2742,-1.5484,13.2843,61.6852,-0.8919,0.985,-0.6062,286.4688
20:50:24:739,-0.948,-2.5097,13.762,61.6455,-0.735,0.8167,-0.6528,286.6875
20:50:24:762,-0.9863,-3.2447,13.0677,63.2808,-0.3212,0.5895,-0.342,287.0625
20:50:24:787,0.467,-2.9658,11.527,60.9905,0.1222,0.1219,0.0806,287.7031
20:50:24:801,1.8784,-1.7723,10.2521,61.9151,0.4131,-0.4883,0.2292,288.4062
20:50:24:820,2.1788,-0.6446,9.5805,60.4558,0.51,-0.9202,0.0287,288.7656
20:50:24:840,1.8772,-0.2484,8.9664,60.7913,0.4818,-0.8893,-0.3292,288.6875
20:50:24:861,1.0835,-0.4184,8.0674,60.923,0.3806,-0.4592,-0.6097,288.4531
20:50:24:883,0.1976,-0.4459,6.6632,60.3563,0.2589,0.1024,-0.689,288.4375
20:50:24:902,-0.3231,-0.2137,5.2841,60.7405,0.1497,0.4287,-0.6304,288.8281
20:50:24:919,-0.6739,0.1586,4.3815,59.7335,0.0836,0.4247,-0.5367,290.3125
20:50:24:940,-0.8822,0.5046,4.1983,61.3105,0.0836,0.1589,-0.4291,290.7031
20:50:24:960,-0.7744,0.6722,4.6401,60.0029,0.1558,-0.2078,-0.3308,291.375
20:50:24:985,-0.705,0.7584,5.2686,60.625,0.2493,-0.5106,-0.2765,291.9375
20:50:25:001,-0.7265,0.7608,6.1819,59.9001,0.3057,-0.6928,-0.2318,292.3594
20:50:25:021,-0.5889,0.8589,7.3348,60.1785,0.298,-0.7176,-0.2059,292.7031
20:50:25:044,-0.3889,0.8146,9.0275,60.7007,0.2309,-0.6233,-0.2555,293.0156
20:50:25:067,-0.4716,0.2747,10.6866,58.9494,0.1638,-0.2835,-0.3212,293.2812
20:50:25:083,-0.9109,-0.3154,11.4767,61.7846,0.1385,0.1805,-0.2754,293.5312
20:50:25:101,-1.0473,-0.5261,11.3331,60.3101,0.1356,0.5197,-0.0856,293.875
20:50:25:120,-0.766,-0.4734,11.126,60.6371,0.0855,0.5706,0.1517,294.2344
20:50:25:140,-0.6092,-0.0988,11.6096,62.1564,0.0344,0.3538,0.3565,294.4531
20:50:25:205,-0.1938,-0.0066,12.8893,63.0296,0.086,0.018,0.4844,294.4219
20:50:25:206,0.4335,-0.2508,13.4579,62.0207,0.2599,-0.1485,0.5326,294.125
20:50:25:206,0.6166,-0.0988,12.8235,60.7041,0.3912,-0.1841,0.4931,293.8906
20:50:25:221,0.1988,0.2843,12.0178,60.3639,0.3518,-0.2134,0.3994,293.0781
20:50:25:239,-0.3602,0.434,11.9268,60.075,0.1902,-0.4203,0.2686,292.5
20:50:25:261,-0.9695,-0.0186,13.1239,60.4419,0.094,-0.7306,0.1789,292
20:50:25:281,-0.875,-0.8876,13.8745,60.5623,0.253,-0.7578,0.2244,291.6562
20:50:25:299,-0.3171,-1.3749,12.3183,59.2127,0.5337,-0.5258,0.3049,291.4375
20:50:25:319,0.0037,-1.2528,9.6476,60.6694,0.5995,-0.3679,0.332,291.25
20:50:25:340,0.2623,-1.0181,7.6412,60.0781,0.3665,-0.3767,0.2705,290.9844
20:50:25:360,0.2946,-0.8015,6.9002,60.6116,-0.0482,-0.3983,0.1302,290.6406
20:50:25:381,-0.0238,-0.6554,7.1887,57.3443,-0.4349,-0.3445,0.009,290.3125
20:50:25:400,-0.1088,-0.6255,7.5275,58.9564,-0.5952,-0.2638,-0.0381,290.1094
20:50:25:420,-0.116,-0.6195,7.5981,58.5994,-0.5332,-0.235,-0.0451,290.0469
20:50:25:440,-0.2633,-0.7655,7.6041,58.647,-0.3832,-0.1615,0.0093,290.0781
20:50:25:460,-0.383,-0.7057,7.5275,59.1308,-0.2325,0.0044,0.1842,290.1406
20:50:25:482,0.1486,-0.4866,7.3707,59.1308,-0.0799,0.0811,0.3555,290.1719
20:50:25:499,0.5663,-0.3083,7.4784,60.1856,0.0591,0.0857,0.3997,289.9531
20:50:25:519,0.7998,0.0246,7.6843,59.8455,0.172,0.0633,0.4055,289.5469
20:50:25:540,1.3241,0.3513,8.3284,60.8183,0.302,-0.0315,0.3677,289.1094
20:50:25:562,1.3648,0.3945,8.46,60.5918,0.4605,-0.1423,0.2511,288.6406
20:50:25:582,0.7603,0.3382,8.0219,60.0197,0.4658,-0.2062,0.1312,288.2188
20:50:25:601,0.4107,0.228,8.4469,58.7891,0.2333,-0.1855,0.1467,287.9531
20:50:25:627,0.8752,0.0581,9.717,59.5982,-0.0543,-0.0661,0.2236,287.8125
20:50:25:649,1.2092,-0.2843,12.7852,57.974,-0.2368,0.009,0.2149,287.5312
20:50:25:663,0.9518,-0.7177,14.2552,58.3242,-0.338,0.0998,0.1842,287.2812
20:50:25:685,1.3385,-1.2348,15.0201,59.2196,-0.2762,0.2937,0.2844,287.0625
20:50:25:705,2.3788,-1.6957,14.5569,59.7419,-0.1712,0.5499,0.3832,286.875
20:50:25:723,2.9594,-1.3138,13.1036,59.4666,-0.1281,0.655,0.3347,286.625
20:50:25:744,2.1776,-0.4771,11.9879,58.7017,-0.2157,0.499,0.1073,286.2188
20:50:25:766,0.941,-0.252,11.9292,59.4185,-0.3587,0.2731,-0.1468,285.5781
20:50:25:785,0.7028,-1.1797,12.3003,58.2423,-0.3755,0.1733,-0.2419,285.4531
20:50:25:802,1.2726,-2.0764,11.679,57.976,-0.2317,0.1823,-0.1415,285.6094
20:50:25:821,2.1645,-1.9794,10.306,59.2608,-0.0631,0.0164,0.0415,285.875
20:50:25:841,2.8947,-1.0145,9.1771,57.2765,-0.0133,-0.4137,0.09,286.0312
20:50:25:861,2.9869,-0.1646,8.715,56.7077,-0.0716,-0.7738,-0.1154,286.0312
20:50:25:883,2.684,0.0066,8.2613,56.239,-0.1385,-0.7871,-0.4398,285.9844
20:50:25:901,2.1669,-0.3645,7.8986,57.1372,-0.139,-0.5258,-0.688,285.8906
20:50:25:920,1.2583,-0.5979,7.1253,55.7882,-0.0589,-0.0683,-0.7436,286.0156
20:50:25:939,0.382,-0.4878,5.976,54.3681,0.0533,0.3405,-0.591,286.5
20:50:25:963,0.0336,-0.1514,4.7777,54.4564,0.1587,0.4612,-0.3396,287.2969
20:50:25:984,0.3233,0.3142,4.1134,54.6413,0.2325,0.2524,-0.1226,288.7969
20:50:26:001,0.8632,0.7907,4.2283,52.4876,0.2719,-0.1413,-0.0328,288.7969
20:50:26:021,1.4019,1.1103,5.1058,52.4389,0.3007,-0.4851,-0.0632,289.3438
20:50:26:040,1.6593,1.1343,6.2634,52.493,0.3175,-0.7082,-0.1753,289.3438
20:50:26:060,1.2367,1.0612,7.7298,53.8699,0.2799,-0.778,-0.3037,289.3594
20:50:26:083,0.3724,0.908,9.6009,51.9797,0.1667,-0.6257,-0.326,289.5156
20:50:26:102,-0.025,0.9894,11.4839,52.0311,0.0868,-0.2225,-0.216,289.6562
20:50:26:119,0.2742,1.0014,12.4955,51.6845,0.1481,0.296,-0.1369,290.0156
20:50:26:139,0.3916,0.9152,11.9592,51.0717,0.2487,0.6582,-0.1865,290.375
20:50:26:160,-0.1627,0.987,11.5198,53.1095,0.2013,0.6865,-0.2219,290.6094
20:50:26:184,-0.4201,0.7584,12.2189,52.516,0.0775,0.4646,-0.142,290.7656
20:50:26:201,0.127,0.1658,13.4376,50.6302,0.0501,0.1943,-0.0547,290.9531
20:50:26:221,0.6549,-0.2831,14.0337,50.4943,0.1193,0.0769,-0.0272,291.1875
20:50:26:239,0.9698,-0.161,13.5405,49.8842,0.1121,0.0651,-0.0211,291.3281
20:50:26:260,0.9614,0.2568,13.4208,49.6216,-0.0642,-0.1005,-0.0919,291.375
20:50:26:284,0.2659,0.0353,14.2803,48.8134,-0.2466,-0.3192,-0.1931,291.4062
20:50:26:303,-0.3411,-0.9966,15.2811,48.7441,-0.1486,-0.2012,-0.1479,291.5312
20:50:26:318,0.0241,-1.9447,13.5238,47.4589,0.2376,0.2726,0.0529,291.6406
20:50:26:339,0.2742,-1.9064,9.8942,48.3577,0.448,0.5317,0.254,291.8594
20:50:26:359,0.4406,-1.5054,7.5371,49.7205,0.3031,0.2311,0.4236,291.9219
20:50:26:385,0.4766,-1.2707,7.2881,46.983,-0.0003,-0.2385,0.5483,291.7344
20:50:26:401,0.4311,-1.1642,8.0207,46.2008,-0.2021,-0.4963,0.6825,291.3438
20:50:26:419,0.4945,-0.9966,8.6204,47.245,-0.2266,-0.5051,0.8245,290.7969
20:50:26:443,0.6513,-0.7871,8.5247,47.1545,-0.1308,-0.3543,0.9454,290.1094
20:50:26:466,0.9303,-0.5537,7.8351,46.4997,0.0075,-0.1639,1.03,289.3125
20:50:26:484,1.1984,-0.2628,6.8523,46.209,0.1113,-0.0486,1.0554,288.2969
20:50:26:501,1.1912,-0.2113,6.2693,47.3355,0.1494,-0.0174,1.0338,287.1719
20:50:26:519,0.971,-0.2388,6.1101,46.0887,0.1585,0.01,1.0423,285.9688
20:50:26:540,0.795,-0.0042,6.0503,45.2077,0.1811,-0.006,1.1142,284.8438
20:50:26:560,1.2978,0.2388,6.091,47.1735,0.2498,-0.1458,1.1661,283.6562
20:50:26:582,2.0579,0.6004,6.2969,46.9866,0.3148,-0.3503,1.0956,282.4219
20:50:26:600,2.4769,1.0816,6.7997,45.3901,0.3148,-0.5197,0.9251,281.7656
20:50:26:628,2.6433,1.5173,7.5443,44.7769,0.2463,-0.577,0.6924,279.8594
20:50:26:638,2.6948,1.5149,8.5115,45.5868,0.1308,-0.5197,0.3962,278.7031
20:50:26:662,2.2818,1.0481,9.6464,45.3644,-0.025,-0.3133,0.1142,277.8281
20:50:26:685,1.7251,0.5884,10.8447,44.263,-0.1859,-0.0102,-0.0168,277.2188
20:50:26:701,1.6366,0.4567,12.0406,44.4392,-0.3084,0.092,-0.0395,276.9531
20:50:26:719,1.8329,0.3142,13.5405,44.8784,-0.3223,0.0201,-0.0922,276.9375
20:50:26:739,2.3488,-0.2508,14.6383,44.5958,-0.2509,-0.0038,-0.1615,276.9844
20:50:26:760,3.1629,-0.9104,14.7161,43.949,-0.1704,0.1584,-0.2275,277.0625
20:50:26:783,3.3699,-0.8601,13.8685,43.2108,-0.1651,0.3283,-0.3487,277.2188
20:50:26:801,2.4015,-0.404,13.4064,45.1464,-0.24,0.2769,-0.5399,277.4375
20:50:26:821,1.0464,-0.5501,13.9811,45.8115,-0.2469,0.1397,-0.6896,277.75
20:50:26:840,0.7208,-1.6957,14.0553,44.7952,-0.0621,0.2518,-0.652,278.25
20:50:26:859,1.3014,-2.4451,12.4488,45.7432,0.2128,0.5014,-0.4334,278.9844
20:50:26:885,2.2447,-2.2487,10.0845,46.533,0.3979,0.4958,-0.1857,280.0938
20:50:26:901,2.8971,-1.4275,8.3499,44.1826,0.3992,0.153,-0.0991,280.5625
20:50:26:919,2.7139,-0.58,7.7825,45.5093,0.3041,-0.2126,-0.2046,280.75
20:50:26:939,2.3297,-0.3322,7.5443,45.0938,0.2147,-0.2496,-0.3657,280.8438
20:50:26:960,1.8808,-0.3693,6.966,44.8323,0.1707,-0.0004,-0.4773,281.0781
20:50:26:985,1.4965,-0.2197,5.6624,45.2821,0.1382,0.3184,-0.5226,281.5
20:50:27:001,0.9662,0.0928,4.3743,45.4594,0.0487,0.4396,-0.5282,282.0156
20:50:27:020,0.558,0.4004,3.7758,43.9564,-0.0703,0.3096,-0.4861,282.5938
20:50:27:039,0.5352,0.683,3.9841,46.2084,-0.168,0.0047,-0.4235,283.1875
20:50:27:059,0.5891,0.9846,4.7598,45.6528,-0.2096,-0.2707,-0.3748,283.4531
20:50:27:085,0.8405,1.2731,5.6959,44.785,-0.1816,-0.4566,-0.3396,283.9375
20:50:27:100,1.3349,1.3234,6.7733,45.5404,-0.1065,-0.5687,-0.334,284.4062
20:50:27:119,1.4702,1.4359,7.7681,47.0833,-0.0309,-0.578,-0.3497,284.8281
20:50:27:142,1.1529,1.4946,8.7844,45.7621,-0.0352,-0.5082,-0.3679,285.2188
20:50:27:159,0.467,1.716,10.0115,45.2797,-0.1033,-0.3607,-0.342,285.6406
20:50:27:179,0.303,1.8298,11.4061,44.8502,-0.1252,-0.2121,-0.2888,286.2969
20:50:27:203,0.4921,1.6227,12.2764,45.3047,-0.0554,-0.0446,-0.2999,286.6875
20:50:27:220,0.5185,1.2743,12.5242,44.6992,-0.0181,0.1541,-0.3018,287.0312
20:50:27:284,0.5999,0.9942,12.754,44.9353,-0.0842,0.3514,-0.2259,287.375
20:50:27:285,1.5707,0.3969,13.3993,44.2811,-0.2937,0.4582,-0.203,287.7031
20:50:27:285,1.1565,0.4639,14.0732,45.3064,-0.424,0.1522,-0.2358,287.9531
20:50:27:299,0.3964,0.1802,15.5122,44.3237,-0.4557,-0.2313,-0.1801,288.125
20:50:27:321,-0.1004,-0.5417,16.8721,44.9239,-0.204,-0.3215,0.0148,288.6094
20:50:27:339,0.4502,-1.3126,15.979,44.7651,0.3009,-0.023,0.258,288.6094
20:50:27:360,1.05,-1.479,12.4907,44.2002,0.653,0.4185,0.393,288.8281
20:50:27:385,1.1517,-1.242,9.3148,44.6955,0.5851,0.5586,0.4154,288.8281
20:50:27:404,0.9506,-1.1091,7.7047,45.8835,0.2067,0.4337,0.3778,288.5312
20:50:27:419,0.558,-0.9583,7.6951,45.5851,-0.2538,0.2433,0.388,287.5469
20:50:27:438,0.5987,-0.817,8.7282,46.6241,-0.5065,0.0814,0.4846,287.3125
20:50:27:460,0.7387,-0.58,9.4201,45.3915,-0.3981,-0.0744,0.5731,287.1094
20:50:27:484,0.5424,-0.228,8.9532,44.2811,-0.0575,-0.2528,0.6505,286.4062
20:50:27:502,0.3928,0.0652,7.9944,45.3724,0.2908,-0.4259,0.7773,286.1094
20:50:27:518,0.7208,0.3394,7.0259,45.3945,0.5404,-0.5461,0.9203,285.4531
20:50:27:544,1.2702,0.4184,6.5255,45.3945,0.6602,-0.5676,0.9834,284.7656
20:50:27:557,1.5983,0.6363,6.1784,46.4311,0.6852,-0.41,0.9826,283.875
20:50:27:579,1.9717,0.8565,5.8216,46.2078,0.6639,-0.2329,0.8897,282.8281
20:50:27:606,2.3129,0.8446,5.5247,45.7661,0.5928,-0.1125,0.6844,281.7656
20:50:27:625,2.2351,0.8051,5.4924,46.9872,0.4274,-0.0723,0.4516,280.625
20:50:27:637,1.9873,0.7751,6.2262,45.936,0.1947,-0.1788,0.2569,279.5938
20:50:27:658,1.6665,0.5848,7.6819,45.2637,-0.0338,-0.3176,0.1129,278.7969
20:50:27:678,1.4031,0.4244,9.7194,46.7118,-0.2027,-0.3447,0.0468,278.2969
20:50:27:701,1.6545,0.2125,11.5426,46.9476,-0.2429,-0.1626,0.0476,277.9219
20:50:27:720,2.3404,-0.0353,12.4811,45.9813,-0.1699,0.0723,-0.0011,277.8906
20:50:27:738,2.8744,-0.2616,12.7468,47.3802,-0.118,0.2215,-0.1372,277.875
20:50:27:760,3.0623,-0.507,12.948,47.6948,-0.1614,0.2918,-0.2632,277.8438
20:50:27:784,3.1221,-1.1594,13.0689,46.6225,-0.2514,0.3717,-0.3479,277.9062
20:50:27:800,3.1269,-1.4491,12.6702,45.995,-0.3422,0.4737,-0.3641,278.125
20:50:27:818,2.9222,-0.9834,12.0753,47.9896,-0.4815,0.4686,-0.3774,278.4688
20:50:27:838,1.9047,-0.179,12.5517,48.616,-0.6208,0.2739,-0.4416,278.8906
20:50:27:859,1.4642,-0.4591,13.8769,47.9276,-0.5161,0.0561,-0.4597,279.2656
20:50:27:881,1.8425,-1.1522,13.9763,48.1888,-0.142,0.0327,-0.3966,279.7344
20:50:27:898,2.4075,-1.3737,12.5038,50.1379,0.2365,0.1112,-0.2786,280.2812
20:50:27:919,2.6888,-0.841,10.276,48.8637,0.4147,0.0702,-0.2235,280.7656
20:50:27:938,2.5835,-0.0281,8.8587,47.028,0.3643,-0.1306,-0.3412,280.9688
20:50:27:959,2.0891,0.2759,8.3068,47.864,0.2317,-0.1604,-0.5388,281.2812
20:50:27:983,1.6629,0.155,7.7262,48.8497,0.1651,0.0534,-0.7106,281.6875
20:50:28:001,1.123,0.1442,6.6021,49.2271,0.1563,0.3669,-0.839,282.1719
20:50:28:020,0.5448,0.2185,5.1836,49.176,0.1353,0.5967,-0.8794,282.8906
20:50:28:038,0.1102,0.3669,4.0499,48.6332,0.0767,0.5893,-0.8323,283.7656
20:50:28:059,-0.116,0.5632,3.6225,50.9618,-0.0154,0.3618,-0.738,284.6875
20:50:28:084,-0.0957,0.8254,4.1193,50.4781,-0.1095,0.0164,-0.6216,285.6406
20:50:28:102,0.2491,0.8936,5.0016,49.9476,-0.1273,-0.2883,-0.5079,286.5
20:50:28:119,0.5137,1.0193,6.0527,50.6172,-0.0951,-0.5186,-0.4382,287.2812
20:50:28:138,0.7064,1.1055,7.1636,48.8715,-0.0594,-0.6254,-0.4019,287.8906
20:50:28:159,0.6705,1.0924,8.3667,50.9311,-0.0839,-0.5719,-0.386,288.4531
20:50:28:183,0.1905,0.9092,9.7505,50.8097,-0.1822,-0.2752,-0.3223,288.9688
20:50:28:202,-0.1459,1.1031,10.9991,50.6542,-0.2687,0.1855,-0.1641,289.4219
20:50:28:220,0.3329,1.4838,11.6934,52.0789,-0.2408,0.5256,-0.0539,289.875
20:50:28:239,0.9111,1.6825,11.7102,51.2379,-0.1396,0.5791,-0.1023,290.1719
20:50:28:261,0.9063,1.6143,12.1914,51.2721,-0.0956,0.4388,-0.2086,290.2656
20:50:28:287,0.5855,1.3102,13.5693,53.8527,-0.0711,0.3264,-0.2467,290.3594
20:50:28:303,1.0931,0.519,13.829,52.8497,0.028,0.4614,-0.2099,290.5938
20:50:28:318,1.2858,0.5788,12.1232,53.39,-0.0647,0.5552,-0.2009,290.8438
20:50:28:338,1.1266,1.7208,12.4667,55.2699,-0.4735,0.3174,-0.2592,291.0625
20:50:28:360,1.3959,1.3821,14.7376,51.7104,-0.7843,0.1679,-0.4837,291.2656
20:50:28:383,0.7651,0.0485,15.8773,52.7691,-0.6866,0.5006,-0.737,291.5469
20:50:28:401,0.0456,-0.8457,14.0277,55.0551,-0.3257,1.0236,-0.7689,291.75
20:50:28:420,0.0312,-1.1115,10.5502,53.5297,-0.0842,1.2407,-0.6824,292.4375
20:50:28:439,0.3425,-1.3928,7.9572,54.1633,-0.1782,0.9914,-0.619,293.3125
20:50:28:458,0.1545,-1.661,7.4533,56.1138,-0.5177,0.4348,-0.5452,294.125
20:50:28:484,-0.195,-1.7807,8.9305,54.5175,-0.7827,-0.0784,-0.3684,294.8125
20:50:28:503,-0.5194,-1.9531,10.628,55.6922,-0.6741,-0.365,-0.1085,295.4531
20:50:28:518,-0.8714,-1.8286,10.6926,52.8352,-0.2064,-0.403,0.2085,295.9531
20:50:28:538,-1.0186,-1.4922,9.1424,54.8078,0.294,-0.3194,0.5603,296.1719
20:50:28:559,-0.6176,-1.1295,7.3048,56.0742,0.6085,-0.235,0.9052,295.9219
20:50:28:583,0.1102,-0.7081,5.5619,55.2176,0.7172,-0.2156,1.135,295.2812
20:50:28:603,0.7675,-0.1371,4.5706,56.9028,0.6581,-0.3394,1.2189,294.3125
20:50:28:618,1.3732,0.3825,4.4473,55.1834,0.5209,-0.5762,1.1624,293.0625
20:50:28:638,1.8089,0.6039,5.2039,56.3499,0.3952,-0.8268,0.9962,291.6875
20:50:28:659,1.8281,0.4627,6.2334,56.3995,0.3233,-0.9652,0.7755,290.4531
20:50:28:684,0.9829,-0.0245,7.652,55.8945,0.2115,-0.9442,0.454,289.3438
20:50:28:700,0.4634,-0.2628,8.3631,57.4568,0.0828,-0.7783,0.458,289.3438
20:50:28:718,0.5795,-0.1921,9.1268,55.5762,-0.0578,-0.5101,0.515,288.4844
20:50:28:738,1.5456,-0.234,9.6954,57.9864,-0.1779,-0.3354,0.4407,287.8906
20:50:28:758,2.3548,-0.8446,10.4652,55.9562,-0.3718,-0.2731,0.1696,286.9219
20:50:28:784,2.1549,-1.6311,11.9209,56.9241,-0.7273,-0.1165,-0.0728,286.6406
20:50:28:803,1.7084,-2.3421,14.2755,57.336,-1.0069,0.1775,-0.1189,286.6406
20:50:28:820,2.186,-2.7336,15.3218,56.3676,-0.8999,0.5834,-0.0789,285.7031
20:50:28:837,2.2088,-2.0464,14.1618,56.8575,-0.6586,0.8287,-0.1604,285.8281
20:50:28:857,1.4654,-0.999,12.8067,57.7158,-0.5939,0.8154,-0.3127,285.9844
20:50:28:877,0.7148,-0.8757,12.535,58.0589,-0.5987,0.7317,-0.4382,286.0938
20:50:28:902,0.8513,-1.7304,11.9903,59.4093,-0.4799,0.6979,-0.4475,286.2969
20:50:28:918,1.433,-2.3768,10.5885,59.8161,-0.3726,0.6582,-0.3527,286.6719
20:50:28:937,2.2602,-2.4403,9.377,58.3288,-0.4426,0.4436,-0.24,287.1562
20:50:28:957,2.5811,-2.0405,9.4369,60.6371,-0.6402,0.1341,-0.2286,287.6875
20:50:28:979,2.0304,-1.6131,10.5166,57.9993,-0.6826,-0.084,-0.2861,288.1094
20:50:29:002,1.044,-1.4503,10.9871,58.3224,-0.392,-0.165,-0.3188,288.375
20:50:29:022,0.0779,-1.2013,10.0055,59.117,0.045,-0.0869,-0.2427,288.625
20:50:29:039,-0.3602,-0.823,8.1081,58.4971,0.38,0.063,-0.0283,288.9219
20:50:29:058,-0.0083,-0.3118,6.3986,60.5103,0.5566,0.112,0.2015,289.4219
20:50:29:078,0.5891,0.2448,5.2721,59.4677,0.6155,-0.018,0.3094,289.5938
20:50:29:102,0.8896,0.6853,4.9382,57.7149,0.5771,-0.2694,0.295,289.5
20:50:29:119,0.9171,0.8398,5.5774,58.3148,0.4986,-0.5109,0.2236,289.2188
20:50:29:144,0.722,0.7285,6.4704,59.4796,0.437,-0.6662,0.1656,288.8594
20:50:29:156,0.2527,0.4735,7.3348,60.4234,0.3742,-0.7192,0.1781,288.5625
20:50:29:181,-0.4799,0.4004,8.4564,59.9794,0.2836,-0.5807,0.3504,288.3281
20:50:29:202,-0.3291,0.7033,10.0785,59.7648,0.2748,-0.3596,0.6324,288.1562
20:50:29:227,0.5759,1.0014,11.1942,59.5171,0.4282,-0.15,0.736,287.8594
20:50:29:237,1.1469,1.3497,11.3355,60.4775,0.5635,0.0247,0.6026,287.2969
20:50:29:259,1.2858,1.1929,11.2349,59.8449,0.5369,0.1783,0.3869,286.5
20:50:29:287,0.716,0.5644,11.7437,60.8686,0.3728,0.3211,0.2399,285.7031
20:50:29:348,0.3257,-0.1837,12.7061,61.1371,0.2455,0.5078,0.3025,285.125
20:50:29:348,0.6154,-0.6674,13.0042,61.3033,0.2338,0.6976,0.4529,284.9219
20:50:29:349,1.3864,-0.5249,12.4093,63.2642,0.2282,0.7174,0.5291,284.6562
20:50:29:362,2.0687,0.1083,11.879,62.6378,0.0567,0.3906,0.421,284.2969
20:50:29:387,1.4654,0.6195,13.5609,62.3964,-0.2229,-0.3961,0.1975,283.4688
20:50:29:403,0.8656,-0.2675,16.4603,61.0777,-0.1574,-0.9349,0.0465,282.9062
20:50:29:419,1.1134,-1.6765,16.6099,60.5721,0.4229,-0.766,-0.0115,282.5469
20:50:29:437,1.3193,-1.8788,12.839,61.3791,0.9111,-0.2291,-0.0573,282.4375
20:50:29:458,1.4402,-1.0588,9.1747,62.5814,0.8189,0.0007,-0.1609,282.4531
20:50:29:477,1.39,-0.2903,7.7944,62.0579,0.3217,0.0058,-0.3575,282.4844
20:50:29:501,1.2032,-0.2915,8.0015,61.9737,-0.2027,0.1466,-0.554,282.5938
20:50:29:521,0.6489,-0.5345,8.3056,60.7091,-0.5412,0.5432,-0.6222,282.8594
20:50:29:537,-0.0813,-0.5908,8.1021,62.3093,-0.6245,0.9762,-0.5335,283.375
20:50:29:562,-0.5123,-0.4567,7.6125,61.7719,-0.4525,1.2138,-0.33,284.0781
20:50:29:576,-0.4883,-0.2652,6.3352,62.2106,-0.1571,1.2415,-0.0922,284.7188
20:50:29:598,-0.2357,-0.0844,5.1429,61.7702,0.0554,1.0431,0.1163,285.1562
20:50:29:620,-0.049,0.0401,4.421,61.7702,0.1422,0.7232,0.2886,285.3594
20:50:29:639,0.1809,0.082,4.3133,60.6127,0.1566,0.2944,0.413,285.3281
20:50:29:661,0.2635,0.1814,4.9238,62.9593,0.1603,-0.2084,0.479,285.0781
20:50:29:683,0.394,-0.082,6.158,62.5987,0.2168,-0.7027,0.5004,284.4219
20:50:29:703,0.2719,-0.398,7.6867,61.4925,0.2714,-0.9634,0.5014,283.8906
20:50:29:720,0.0288,-0.3621,9.2429,61.4605,0.2892,-0.9285,0.5376,283.375
20:50:29:737,0.291,-0.3525,10.3024,61.7651,0.3433,-0.7354,0.5573,282.8438
20:50:29:757,0.7782,-0.4172,10.5729,61.139,0.3936,-0.5245,0.4503,282.2656
20:50:29:779,1.4091,-0.6925,10.3945,60.2442,0.3092,-0.3823,0.2521,281.7031
20:50:29:805,1.6689,-0.9427,10.5765,61.2509,0.0184,-0.2851,0.0322,281.2188
20:50:29:819,1.5252,-1.2025,11.8706,60.1613,-0.3617,-0.2387,-0.1351,280.9531
20:50:29:837,1.761,-1.7915,13.3945,60.7067,-0.5965,-0.1082,-0.2086,280.9375
20:50:29:859,2.3309,-2.1087,13.7524,61.2509,-0.637,0.1032,-0.3018,281
20:50:29:885,1.9454,-1.7496,13.1072,59.3798,-0.624,0.1594,-0.5021,281.2031
20:50:29:903,0.3353,-1.1965,12.9767,57.68,-0.6666,0.0146,-0.6866,281.4844
20:50:29:919,-0.954,-1.6155,13.9464,60.0539,-0.62,-0.0773,-0.6675,281.9219
20:50:29:937,-0.8391,-2.5241,13.8769,58.0291,-0.3369,0.0801,-0.3713,282.5938
20:50:29:958,0.5963,-2.5456,11.9101,57.6297,0.0083,0.1919,0.0473,283.3906
20:50:29:977,2.3584,-1.6263,9.4967,59.1516,0.1806,0.046,0.2958,284.1562
20:50:30:002,3.1078,-0.4363,7.7729,58.0381,0.0993,-0.2712,0.2021,284.1094
20:50:30:019,2.8588,0.2951,7.3539,58.5976,-0.0953,-0.5208,-0.0858,283.7656
20:50:30:037,2.0759,0.1957,7.415,57.7322,-0.2589,-0.4694,-0.3489,283.5469
20:50:30:057,1.1481,-0.1538,7.4461,55.3308,-0.3396,-0.1631,-0.4533,283.6406
20:50:30:080,0.2503,0.2975,6.2729,56.7451,-0.2855,0.4263,-0.2989,284.0625
20:50:30:102,0.443,0.6063,6.1077,57.021,-0.1803,0.3296,-0.2363,284.5781
20:50:30:119,0.5735,0.7332,6.2574,56.1183,-0.0184,0.1086,-0.2224,284.5781
20:50:30:137,0.4921,0.7691,6.4884,56.4891,0.1305,-0.0765,-0.2262,285.0156
20:50:30:157,0.4694,0.7679,6.802,55.9459,0.2107,-0.2291,-0.1924,285.3594
20:50:30:177,0.3365,0.8122,7.5562,56.2003,0.2202,-0.354,-0.1359,285.625
20:50:30:203,0.285,0.9319,8.5582,54.8956,0.1973,-0.4148,-0.0677,285.8594
20:50:30:223,0.4754,1.2061,9.8511,54.8178,0.196,-0.4355,-0.0312,286.3438
20:50:30:240,0.7902,1.1869,11.2493,55.2725,0.2559,-0.3487,-0.0603,286.3438
20:50:30:259,0.7866,1.0517,11.8885,54.375,0.338,-0.0837,-0.1322,286.5938
20:50:30:286,0.6322,0.8661,11.7808,55.3157,0.3302,0.2508,-0.1939,286.625
20:50:30:303,0.4454,0.6877,11.6539,54.3993,0.1931,0.4907,-0.1985,286.7344
20:50:30:320,0.5257,0.3932,11.9639,55.0364,0.0277,0.4707,-0.1271,286.8125
20:50:30:339,0.6944,0.0329,12.7492,53.801,-0.0301,0.0721,-0.0025,287.0312
20:50:30:356,1.05,0.094,13.6962,54.7148,0.0445,-0.5714,0.1589,287.2344
20:50:30:379,1.6976,0.4388,15.1423,52.0632,0.1641,-1.2369,0.229,287.375
20:50:30:402,1.6258,0.3945,16.8565,51.4168,0.2999,-1.3533,0.2133,287.375
20:50:30:421,1.7215,-0.2029,17.1797,52.0738,0.5726,-0.6049,0.2319,287.2031
20:50:30:437,2.368,-0.6686,14.108,51.0365,0.9084,0.5759,0.1834,286.9688
20:50:30:457,2.6637,-0.586,9.8104,51.4919,0.9289,1.2503,-0.0259,286.75
20:50:30:478,2.2914,-0.41,7.3396,52.0999,0.5294,1.1448,-0.2858,286.4844
20:50:30:501,1.2403,-0.3837,7.2545,51.4012,-0.0661,0.7222,-0.4286,286.2188
20:50:30:520,0.4909,-0.8122,8.8036,50.6076,-0.4623,0.393,-0.3782,286.1562
20:50:30:537,0.2551,-1.139,9.9504,51.6446,-0.445,0.25,-0.2232,286.625
20:50:30:557,0.3329,-1.0768,9.5865,50.9654,-0.1068,0.2236,-0.0033,287.0781
20:50:30:578,0.6693,-0.8134,7.968,52.7881,0.2514,0.1757,0.2098,287.3906
20:50:30:602,1.0679,-0.477,6.5375,51.9496,0.453,0.0497,0.3376,287.5312
20:50:30:618,1.4019,-0.2939,5.593,51.1913,0.5452,-0.071,0.3754,287.3906
20:50:30:638,1.6449,-0.1107,4.7598,51.8352,0.5718,-0.1729,0.3422,287.0625
20:50:30:658,1.8006,0.021,4.3217,50.864,0.5036,-0.3263,0.2673,286.6562
20:50:30:677,1.7024,0.0233,4.597,50.1122,0.3489,-0.4062,0.2005,286.25
20:50:30:702,1.4689,0.0449,5.2937,51.4126,0.168,-0.3852,0.1914,285.9219
20:50:30:719,1.3133,0.1419,6.1963,50.0585,0.0069,-0.3527,0.2087,285.7031
20:50:30:737,1.0308,0.2089,7.1803,48.7688,-0.1289,-0.2651,0.2194,285.5156
20:50:30:757,0.7902,0.5273,8.241,49.0565,-0.2708,-0.0938,0.2575,285.3125
20:50:30:779,1.1122,0.8111,9.1819,50.9157,-0.3707,0.0659,0.2527,285.1094
20:50:30:802,1.2822,0.8577,9.8092,49.0229,-0.4149,0.0401,0.0833,284.8594
20:50:30:819,0.5915,0.8386,10.7668,49.9479,-0.482,-0.2576,-0.1385,284.7031
20:50:30:837,-0.2489,0.1395,12.6367,48.152,-0.5462,-0.6313,-0.2144,284.5469
20:50:30:857,0.1964,-0.9906,14.6251,48.9827,-0.4975,-0.762,-0.0613,284.3906
20:50:30:879,1.846,-1.7352,15.1327,48.2172,-0.3606,-0.5988,0.1014,284.6562
20:50:30:902,3.1006,-1.7101,14.1534,48.5735,-0.3598,-0.3732,0.0615,284.9062
20:50:30:921,2.7499,-1.1366,13.7201,47.0356,-0.5997,-0.3205,-0.1551,284.9062
20:50:30:939,1.3852,-1.1738,14.6969,47.3525,-0.8195,-0.2587,-0.3266,284.8125
20:50:30:956,0.6238,-1.904,15.3948,49.9555,-0.7268,-0.0387,-0.228,284.8906
20:50:30:977,1.5623,-2.5013,14.2971,47.8949,-0.3225,0.1517,0.0995,285.2344
20:50:31:002,3.1054,-2.2859,11.9723,48.0156,0.1124,0.0785,0.4252,285.625
20:50:31:018,4.2115,-1.3042,9.8247,47.6662,0.3646,-0.2662,0.5576,285.7344
20:50:31:037,4.3576,-0.1442,8.6887,48.6211,0.3984,-0.4875,0.4681,285.4219
20:50:31:057,3.9625,0.5728,7.9716,48.4762,0.3145,-0.3439,0.2239,284.8438
20:50:31:077,3.1186,0.7201,7.3096,48.1421,0.2368,-0.0014,-0.0611,284.2188
20:50:31:102,2.344,0.7775,6.4585,47.7337,0.2139,0.4106,-0.2696,283.7969
20:50:31:122,1.7156,0.7548,5.2243,47.2864,0.2274,0.7685,-0.3753,283.75
20:50:31:137,1.1864,0.7464,4.1289,47.579,0.2373,0.8513,-0.3956,284.0312
20:50:31:162,0.8824,0.9236,3.5771,49.2654,0.2099,0.638,-0.3292,284.4375
20:50:31:176,1.0679,1.2863,4.0523,49.1768,0.1329,0.283,-0.232,284.8281
20:50:31:198,1.5276,1.4946,5.5032,48.7049,0.0642,-0.0419,-0.2027,285.1719
20:50:31:218,1.8365,1.6754,7.4485,48.2828,0.0543,-0.2017,-0.2589,285.4219
20:50:31:237,1.7072,1.8334,9.2226,47.3825,0.123,-0.2036,-0.338,285.6562
20:50:31:256,1.5863,1.8609,10.7118,48.6257,0.2701,-0.1191,-0.3947,285.9531
20:50:31:278,1.4893,1.7783,11.4971,49.7128,0.4211,0.1283,-0.4664,286.3438
20:50:31:303,1.2236,1.6741,11.369,48.5255,0.4804,0.5357,-0.5479,286.7812
20:50:31:319,0.7962,1.5736,10.7345,48.0494,0.3827,0.9096,-0.5924,287.2656
20:50:31:339,0.0528,1.6981,10.5969,48.1239,0.1744,1.0572,-0.5529,287.8594
20:50:31:425,-0.5434,1.5317,11.3738,49.6365,0.0354,0.9245,-0.4238,288.1719
20:50:31:425,-0.4763,0.9738,12.1387,48.6193,0.0706,0.7078,-0.244,288.7656
20:50:31:426,-0.104,0.5836,12.2333,47.5996,0.1718,0.4793,-0.0605,289.25
20:50:31:426,0.3712,0.9463,11.9388,47.7341,0.1364,0.1083,0.0623,289.5781
20:50:31:436,0.443,1.2935,13.4783,48.3018,-0.0807,-0.5953,0.0564,289.7188
20:50:31:459,0.2204,0.574,16.1837,47.9759,-0.1491,-0.9016,0.03,289.6406
20:50:31:492,1.3157,-1.0098,13.4424,48.5312,0.7531,0.2713,0.1259,289.6094
20:50:31:512,1.6749,-0.4088,8.5127,47.7194,0.7622,0.5613,0.022,289.5781
20:50:31:516,1.7682,0.0233,6.3076,49.1697,0.3276,0.3035,-0.1732,289.5781
20:50:31:537,1.5049,0.2233,6.2981,45.9702,-0.1228,-0.1085,-0.3415,289.3438
20:50:31:557,0.9817,0.2256,7.2414,49.1323,-0.289,-0.5564,-0.3793,289.5
20:50:31:577,0.3197,-0.1526,8.2338,47.1417,-0.1766,-0.802,-0.2509,289.5
20:50:31:601,-0.037,-0.0006,8.1715,48.0017,0.045,-0.6883,0.0729,289.9062
20:50:31:620,0.3964,0.3729,7.3563,49.2912,0.2442,-0.4944,0.3904,290.3906
20:50:31:636,0.6681,0.665,6.662,48.3504,0.3659,-0.3927,0.5371,290.7344
20:50:31:656,0.8967,1.0181,6.1616,47.4302,0.4019,-0.349,0.5981,290.2969
20:50:31:676,1.1158,1.1893,6.0862,45.1753,0.3681,-0.3639,0.5683,289.7031
20:50:31:696,1.1769,1.2193,6.3005,46.5668,0.3121,-0.3785,0.5033,289.375
20:50:31:720,1.3804,1.2468,6.8439,46.5668,0.2466,-0.3732,0.458,288.1719
20:50:31:741,1.7096,1.3952,7.4425,47.8158,0.1934,-0.3271,0.3927,288.1719
20:50:31:757,1.8365,1.6311,8.1069,47.7977,0.142,-0.2899,0.2625,287.6562
20:50:31:775,1.7407,1.7268,8.7545,47.7343,0.0605,-0.2294,0.0886,287.4375
20:50:31:796,1.6832,1.6287,9.5997,46.2616,-0.0445,-0.1293,-0.1133,287.0156
20:50:31:817,1.4366,1.2097,10.2294,46.7985,-0.1521,0.0252,-0.3066,286.7344
20:50:31:836,1.1038,0.7153,10.8698,45.0228,-0.281,0.104,-0.4131,286.6562
20:50:31:856,1.2128,0.0916,11.6802,47.5014,-0.3854,0.1498,-0.4264,286.7969
20:50:31:876,1.5731,-0.2688,12.2596,46.5407,-0.4557,0.2122,-0.4017,287.1562
20:50:31:901,2.4913,-0.6315,12.1878,46.2366,-0.5238,0.2811,-0.3657,287.625
20:50:31:922,3.3963,-0.7009,11.6946,46.349,-0.6546,0.2769,-0.3812,288.0938
20:50:31:939,3.5962,-0.4088,12.0849,47.2656,-0.8392,0.1267,-0.4912,288.9688
20:50:31:956,2.465,-0.4076,13.6135,45.2916,-0.8565,-0.1152,-0.6485,289.4062
20:50:31:977,1.2643,-1.0804,14.3845,45.8044,-0.5931,-0.1951,-0.6853,289.6406
20:50:32:002,0.7902,-1.6131,13.1982,44.6839,-0.2759,0.0438,-0.4773,290.3438
20:50:32:019,1.5731,-1.4263,10.7728,45.4129,-0.1185,0.263,-0.1543,291.1719
20:50:32:037,2.6158,-0.8709,8.7773,43.0988,-0.1449,0.2188,-0.0027,291.8594
20:50:32:056,2.6948,-0.1059,7.5862,46.9191,-0.3076,0.0865,-0.0853,292.2031
20:50:32:079,2.1202,0.4316,7.3671,43.9537,-0.5004,-0.0299,-0.2422,292.25
20:50:32:103,1.4582,0.4866,7.7561,44.3372,-0.5721,-0.0646,-0.3663,292.2812
20:50:32:119,0.801,0.4208,7.9824,43.9987,-0.5044,-0.0299,-0.4161,292.4688
20:50:32:137,0.1486,0.5704,8.0818,43.7781,-0.3478,0.0633,-0.354,292.8438
20:50:32:156,0.1533,0.6028,7.5311,44.9178,-0.1065,0.2098,-0.2118,293.3125
20:50:32:177,0.3916,0.8577,6.5004,45.9343,0.0903,0.3165,-0.0936,293.7656
20:50:32:201,0.7722,1.3845,5.8013,44.2772,0.1838,0.3458,-0.0475,294.0938
20:50:32:219,1.0931,1.8441,5.4816,44.602,0.1997,0.2641,-0.1351,294.25
20:50:32:236,1.0859,2.0297,5.8204,43.7588,0.1356,0.1158,-0.3159,294.3125
20:50:32:261,0.7543,1.8908,6.9505,44.6555,0.0194,-0.0033,-0.4834,294.3281
20:50:32:275,0.3545,1.503,8.6767,43.1836,-0.073,-0.0209,-0.5631,294.625
20:50:32:298,-0.2884,1.2432,10.3359,44.1651,-0.1047,0.1312,-0.5482,295.0781
20:50:32:320,-0.5877,0.9906,11.4169,44.6183,-0.0399,0.3802,-0.4445,295.6719
20:50:32:337,-0.6224,0.744,11.442,43.5974,0.0658,0.5946,-0.3231,296.3281
20:50:32:357,-0.4787,0.6028,11.1439,43.0343,0.0876,0.6281,-0.1806,296.8906
20:50:32:376,-0.359,0.5513,11.2612,43.9251,0.0256,0.4827,-0.0488,297.2969
20:50:32:396,-0.0298,0.4591,11.9304,42.1396,-0.0415,0.2851,0.0676,297.5625
20:50:32:419,0.6884,0.3047,12.4176,42.507,-0.1132,0.1765,0.1081,297.6719
20:50:32:437,1.2056,0.3801,12.5721,41.7947,-0.2836,0.1046,0.0386,297.6406
20:50:32:466,0.6657,0.3909,14.1032,40.9483,-0.5409,-0.2025,-0.0933,297.5312
20:50:32:475,-0.6248,-0.3956,16.5153,42.0344,-0.5691,-0.3029,-0.0903,297.4219
20:50:32:496,-1.2461,-1.3461,16.8924,41.2699,-0.187,0.0247,0.144,297.4531
20:50:32:522,-0.8139,-1.5664,13.7955,41.3235,0.2914,0.3195,0.4934,297.5781
20:50:32:537,0.2778,-1.2719,10.5262,40.8041,0.4727,0.1131,0.7635,297.4531
20:50:32:561,1.3062,-0.975,8.6396,40.4022,0.3587,-0.2893,0.8332,296.875
20:50:32:574,1.5492,-0.5417,8.1548,39.9716,0.085,-0.5876,0.7443,296.0469
20:50:32:599,1.1876,-0.3394,8.5151,39.9614,-0.1374,-0.6624,0.6263,295.1094
20:50:32:619,0.558,-0.4112,8.7641,39.3036,-0.1997,-0.4997,0.593,294.2812
20:50:32:639,0.1031,-0.3801,8.3463,40.0633,-0.118,-0.2401,0.6897,293.6094
20:50:32:659,0.0851,-0.2101,7.4257,40.4421,0.0549,-0.0694,0.8521,292.9375
20:50:32:677,0.2707,0.1024,6.565,39.7704,0.2309,-0.1013,1.0042,292.1562
20:50:32:702,0.5137,0.3011,6.0431,40.0233,0.3816,-0.2164,1.1155,291.1875
20:50:32:719,0.8943,0.4052,5.8001,39.4866,0.4975,-0.3564,1.1829,290.0938
20:50:32:736,1.3923,0.5393,6.0491,39.3548,0.5641,-0.4941,1.1893,288.8125
20:50:32:758,1.9957,0.5848,6.5614,38.6384,0.5947,-0.6006,1.1038,288.1406
20:50:32:775,2.3381,0.4256,7.2545,38.2607,0.5691,-0.6022,0.9155,286.8438
20:50:32:796,2.2076,0.1706,7.9932,38.3153,0.4408,-0.4403,0.6814,285.5156
20:50:32:818,1.9227,0.0257,8.9113,39.0891,0.2317,-0.1868,0.4966,284.3594
20:50:32:838,1.8496,-0.1766,10.1467,39.5107,0.0253,0.0292,0.3307,283.125
20:50:32:862,1.6988,-0.3813,11.2708,37.88,-0.1068,0.1967,0.1501,282.5625
20:50:32:876,1.761,-1.3042,12.5649,38.7866,-0.1515,0.2481,-0.085,282.1875
20:50:32:897,1.7982,-1.6909,12.9001,40.1897,-0.1422,0.2502,-0.0648,282.1875
20:50:32:923,2.204,-1.8824,13.0581,38.8522,-0.0908,0.3107,-0.0121,282
20:50:32:940,2.6134,-1.5137,12.6607,38.3121,-0.0373,0.3368,-0.0406,282
20:50:32:955,2.4518,-0.5513,12.3566,39.2047,-0.1156,0.2489,-0.2163,282.0781
20:50:32:975,1.6617,-0.1909,12.9743,38.7059,-0.2951,0.1267,-0.4965,282.1562
20:50:32:995,1.1398,-1.6107,13.7859,38.7306,-0.3891,0.1371,-0.6896,282.1875
20:50:33:019,0.8537,-2.888,13.9511,39.9904,-0.38,0.3221,-0.5423,282.4219
20:50:33:036,1.2822,-2.7635,13.1419,41.451,-0.2533,0.4628,-0.1271,282.9531
20:50:33:055,2.0783,-1.3856,11.527,39.6806,-0.0003,0.446,0.2109,283.75
20:50:33:076,2.5056,-0.155,9.4057,40.2837,0.294,0.3126,0.2449,284.4062
20:50:33:096,2.4194,0.4543,7.3012,41.3112,0.4666,0.2287,0.1046,284.4062
20:50:33:119,2.2471,0.647,5.6732,40.4587,0.4469,0.2913,-0.0126,284.0938
20:50:33:137,1.9753,0.9236,4.5778,40.5322,0.3167,0.4468,-0.0789,283.875
20:50:33:155,1.7623,1.2205,3.8895,41.5876,0.2,0.5155,-0.1239,283.8125
20:50:33:176,1.621,1.3988,3.5004,41.5732,0.1281,0.4476,-0.1873,283.8594
20:50:33:196,1.2714,1.6454,3.5747,40.263,0.0501,0.2955,-0.2643,283.9375
20:50:33:221,1.0081,1.7663,4.0068,40.312,-0.0197,0.1448,-0.3151,284.0156
20:50:33:238,0.9039,1.8585,5.0854,39.9106,-0.0666,-0.0539,-0.3687,284.2031
20:50:33:255,0.7076,1.7615,6.4274,40.0732,-0.1055,-0.1109,-0.4147,284.4688
20:50:33:275,0.3628,1.7328,7.9453,41.1957,-0.1579,-0.064,-0.4102,284.8281
20:50:33:296,0.0923,1.7747,9.5745,40.9424,-0.1537,0.0561,-0.3569,285.25
20:50:33:319,0.1629,2.0824,10.9823,41.4991,-0.0506,0.173,-0.2928,285.7031
20:50:33:337,0.6741,2.4187,12.2943,42.4824,0.175,0.1637,-0.3093,286.1719
20:50:33:355,1.3816,2.7887,13.5693,40.9241,0.5209,-0.0006,-0.4424,286.5781
20:50:33:375,1.2523,2.3146,13.5609,39.4507,0.8735,-0.1559,-0.6869,286.8906
20:50:33:396,-0.2249,1.5197,12.8618,41.4998,0.9175,-0.1445,-0.832,287.4688
20:50:33:418,-1.0557,0.7249,12.8654,40.0687,0.6615,0.0851,-0.6267,288.125
20:50:33:437,-0.4608,0.5537,13.0018,39.9203,0.4421,0.2931,-0.2682,289.0156
20:50:33:489,0.1593,1.1821,12.2369,39.7967,0.3417,0.2236,-0.0541,289.9219
20:50:33:489,-0.219,1.9232,12.0825,41.99,0.1505,-0.1199,-0.0163,290.4219
20:50:33:503,-0.1866,1.4371,13.4926,40.0494,-0.0272,-0.2374,0.0244,290.5625
20:50:33:524,0.3173,0.1945,13.8183,41.3757,0.0453,0.0207,0.0449,290.5938
20:50:33:538,0.3389,-0.428,11.8694,40.8239,0.171,0.2654,0.067,290.6094
20:50:33:555,0.2575,-0.4914,9.6332,41.3988,0.0615,0.1536,0.1326,290.5781
20:50:33:576,0.3305,-0.392,8.7892,40.5526,-0.274,-0.0968,0.1967,290.5156
20:50:33:596,0.6537,-0.1478,9.1807,40.1818,-0.5979,-0.2235,0.2505,290.3906
20:50:33:617,0.874,0.0593,9.784,40.3627,-0.6749,-0.2004,0.2625,290.1875
20:50:33:641,0.7435,0.2688,9.4453,39.2513,-0.485,-0.0803,0.2764,289.9531
20:50:33:659,0.6573,0.507,8.1404,39.7674,-0.2037,0.0119,0.3358,289.6562
20:50:33:676,0.8058,0.7201,6.7171,39.572,0.0184,-0.0028,0.4205,289.1875
20:50:33:696,1.0188,0.8984,5.909,40.2635,0.142,-0.116,0.4995,288.8125
20:50:33:720,1.378,1.0828,5.7857,39.3978,0.2011,-0.2448,0.5581,288.3281
20:50:33:736,1.7216,1.1977,6.1329,39.2501,0.2426,-0.3514,0.5414,288.0625
20:50:33:760,1.7634,1.3904,6.504,39.2501,0.2852,-0.3871,0.4511,287.4688
20:50:33:776,1.6988,1.4539,6.9158,41.0157,0.2961,-0.4182,0.3208,286.875
20:50:33:796,1.4247,1.2516,7.7358,37.8804,0.2551,-0.369,0.1882,286.3438
20:50:33:820,1.1314,0.9667,8.6899,41.8553,0.2083,-0.1636,0.1161,285.9219
20:50:33:836,1.0117,0.8266,9.2812,40.0867,0.1947,0.0196,0.0742,285.6875
20:50:33:855,1.032,0.6698,9.6284,41.3066,0.1931,0.0297,0.0029,285.5469
20:50:33:876,0.8417,0.4423,9.9923,38.667,0.1161,-0.1676,-0.0808,285.4375
20:50:33:895,0.8584,0.0497,11.1607,39.4623,-0.0666,-0.4187,-0.1284,285.3906
20:50:33:919,1.1817,-0.744,13.0904,39.3699,-0.2522,-0.5109,-0.1327,285.4375
20:50:33:936,1.8401,-1.503,14.3558,38.5145,-0.2724,-0.3306,-0.044,285.5938
20:50:33:955,2.9546,-1.5724,13.7153,38.9636,-0.1832,-0.0116,0.0074,285.8906
20:50:33:975,3.2275,-0.4878,11.8957,37.2774,-0.2149,0.1661,-0.17,285.9688
20:50:33:995,2.271,0.5489,11.2612,39.0509,-0.4091,0.0628,-0.521,285.9688
20:50:34:020,1.3433,0.0772,11.9436,39.6449,-0.5196,-0.1106,-0.8195,286.1562
20:50:34:038,1.3672,-1.2228,12.1651,38.0963,-0.4163,-0.1213,-0.8757,286.7188
20:50:34:055,1.7982,-1.6825,10.9512,39.5577,-0.2783,-0.0603,-0.7253,287.6719
20:50:34:079,2.5523,-1.0852,9.2393,38.895,-0.2594,-0.2012,-0.5647,288.6875
20:50:34:094,2.8349,-0.1622,8.5127,37.9285,-0.3846,-0.4896,-0.5977,289.4844
20:50:34:117,2.5128,0.2005,8.5354,39.3651,-0.5137,-0.4742,-0.7591,290.1562
20:50:34:139,1.9191,0.1646,8.0937,39.3997,-0.5704,-0.108,-0.9082,290.875
20:50:34:155,1.0859,0.2675,7.051,38.9139,-0.551,0.3088,-0.9423,291.7812
20:50:34:176,0.3521,0.5429,5.9557,39.7274,-0.4847,0.4822,-0.8406,292.25
20:50:34:196,-0.0693,0.8422,5.2051,37.9758,-0.3848,0.3251,-0.6672,293.3438
20:50:34:220,-0.4321,1.0134,5.0926,38.6791,-0.2804,-0.0054,-0.4845,294.375
20:50:34:236,-0.4404,1.0672,5.6181,40.336,-0.1862,-0.3104,-0.2866,295.2188
20:50:34:255,0.0624,1.2492,6.3256,39.1818,-0.1372,-0.4627,-0.137,296.1094
20:50:34:276,-0.0873,1.5269,9.0562,39.305,-0.1931,-0.4592,-0.0664,296.4375
20:50:34:296,0.1497,1.3952,10.6603,38.4749,-0.0993,-0.2603,-0.0096,296.6094
20:50:34:322,0.473,1.0828,11.3857,38.2758,0.0519,-0.0129,0.0215,296.7344
20:50:34:341,0.528,0.9894,11.6838,37.723,0.0924,0.2436,0.0822,296.8438
20:50:34:356,0.4514,0.8122,12.007,39.6579,0.0328,0.4532,0.2125,296.8281
20:50:34:374,0.1318,0.7272,12.5637,38.9008,-0.0101,0.4929,0.4194,296.8281
20:50:34:394,0.0863,0.7931,13.2484,40.1841,0.0573,0.3831,0.6841,296.7188
20:50:34:420,0.9422,0.7189,13.4172,37.8241,0.2328,0.2289,0.8924,296.4688
20:50:34:437,1.7539,0.6183,12.6032,40.3619,0.3521,0.0795,0.8905,296
20:50:34:454,1.4163,0.6602,11.5809,39.4856,0.2256,-0.1745,0.7193,295.2188
20:50:34:475,0.6142,0.6985,12.1232,38.3341,-0.1201,-0.6579,0.5898,293.1562
20:50:34:495,0.0109,0.0329,14.8609,40.4153,-0.4019,-1.1828,0.6101,292.375
20:50:34:519,-0.1387,-0.9858,17.7567,39.6355,-0.2048,-1.1301,0.8047,292.0469
20:50:34:539,0.9147,-1.8226,16.7081,39.7182,0.4511,-0.492,1.0588,291.4062
20:50:34:555,1.4666,-1.4252,12.3554,40.4334,0.9324,0.0726,1.196,290.7188
20:50:34:579,1.5743,-0.4663,8.7773,40.4983,0.8924,0.1075,1.2138,289.6562
20:50:34:594,1.7718,0.1035,7.5395,42.6807,0.543,-0.1165,1.094,288.3125
20:50:34:615,1.761,0.1706,7.5957,40.2214,0.2107,-0.1745,0.9182,286.8438
20:50:34:640,1.5755,0.1538,7.7059,41.3989,0.0679,-0.0366,0.7805,286.2031
20:50:34:660,1.3947,0.1335,7.1959,40.4488,0.0948,0.1501,0.6932,284.9219
20:50:34:674,1.4019,0.2029,6.3795,41.8196,0.1547,0.2657,0.634,283.875
20:50:34:696,1.5911,0.4854,6.1329,41.0207,0.0991,0.3328,0.5398,282.9688
20:50:34:721,1.5192,0.4052,6.6189,39.5631,-0.0503,0.5224,0.3898,282.2031
20:50:34:736,0.88,-0.0557,7.1755,42.0601,-0.1009,0.8116,0.3129,281.4531
20:50:34:757,0.3545,-0.3573,7.3048,39.5323,-0.008,0.9483,0.3925,280.8125
20:50:34:774,0.2647,-0.4675,7.4401,41.4808,0.1942,0.8295,0.5672,280.3594
20:50:34:795,0.692,-0.3406,7.3946,42.574,0.4272,0.5706,0.7624,279.75
20:50:34:821,1.3971,0.0078,7.5778,42.9639,0.6187,0.2268,0.8695,279.1562
20:50:34:838,2.1094,0.2951,7.9106,41.8128,0.6991,-0.0267,0.8157,278.3906
20:50:34:858,2.8133,0.58,8.387,42.8012,0.592,-0.1018,0.6074,277.3906
20:50:34:874,3.121,0.5405,9.0311,42.4188,0.3273,-0.076,0.2881,276.3906
20:50:34:895,2.769,0.2652,10.2677,43.3701,-0.0096,0.0087,-0.0323,275.5938
20:50:34:921,2.2746,-0.2664,12.0789,43.2988,-0.286,0.1347,-0.2392,275.0625
20:50:34:939,1.8616,-0.7835,13.8338,43.6584,-0.3582,0.3307,-0.3085,274.9219
20:50:34:955,2.1429,-1.0744,14.2588,42.9431,-0.1939,0.5791,-0.2557,275.0938
20:50:34:975,2.9438,-0.9858,12.8223,44.2164,0.0125,0.6926,-0.2784,275.4062
20:50:34:998,2.6397,-0.2819,11.0314,43.7301,-0.0155,0.581,-0.5002,275.7031
20:50:35:021,1.4007,0.2843,10.719,43.5634,-0.2756,0.356,-0.7884,275.9375
20:50:35:037,0.728,-0.6027,11.9484,43.7944,-0.4756,0.1405,-0.9956,276.2969
20:50:35:057,0.6705,-1.8836,12.6487,43.6576,-0.432,0.1349,-0.9905,277
20:50:35:075,1.2427,-2.1673,11.8095,45.075,-0.2495,0.1954,-0.7748,278.5938
20:50:35:095,2.5056,-1.4036,9.9301,44.3851,-0.0778,-0.0009,-0.6022,279.6562
20:50:35:121,3.3664,-0.3406,8.4876,43.8898,-0.0738,-0.4566,-0.7074,280.125
20:50:35:137,3.4621,0.2532,8.0542,43.2303,-0.1979,-0.7802,-1.0491,280.875
20:50:35:156,2.8492,-0.2999,7.7537,43.1865,-0.3814,-0.5863,-1.4432,281.5938
20:50:35:180,1.2906,-0.7536,7.3132,41.6654,-0.5902,0.0449,-1.6054,282.5625
20:50:35:193,0.2539,-0.7117,6.759,41.6555,-0.6661,0.5813,-1.4632,284.0312
20:50:35:215,-0.1256,-0.4639,6.3268,43.613,-0.542,0.6891,-1.1844,285.8438
20:50:35:239,-0.2453,0.2233,5.7019,43.3304,-0.3454,0.4825,-0.8557,287.5312
20:50:35:254,-0.0693,0.9319,5.8492,42.3595,-0.1566,0.0473,-0.5724,289.0312
20:50:35:274,0.315,1.2384,6.6297,41.791,0.0685,-0.2944,-0.44,290.1719
20:50:35:295,0.5783,1.2252,6.99,42.7191,0.265,-0.3205,-0.4326,290.9688
20:50:35:321,0.4359,1.5975,6.9469,42.7719,0.2834,-0.1346,-0.4499,291.5
20:50:35:340,0.0408,1.9746,7.5586,42.9436,0.1236,0.1083,-0.4675,292
20:50:35:366,-0.4656,2.4559,8.6348,42.3564,-0.0352,0.3709,-0.4906,292.5156
20:50:35:374,-1.0306,2.4595,9.7565,42.9817,-0.0602,0.4771,-0.5399,293.2812
20:50:35:399,-1.7501,1.8465,10.6292,44.6222,0.021,0.4337,-0.5311,293.8281
20:50:35:418,-2.2002,1.0816,11.1535,43.5957,0.1127,0.2566,-0.3673,294.4375
20:50:35:435,-2.3773,0.902,11.8622,43.521,0.142,-0.039,-0.0962,295.0156
20:50:35:456,-1.859,0.9727,13.4591,43.7762,0.1172,-0.3586,0.1264,295.4219
20:50:35:474,-0.8582,0.7153,14.9699,45.0455,0.1204,-0.3855,0.2015,295.5312
20:50:35:555,-0.3363,0.6015,15.2368,42.4684,0.1521,-0.1098,0.1595,295.4219
20:50:35:556,-0.7313,0.6626,14.3127,43.6008,0.1537,0.1173,0.0947,295.2188
20:50:35:556,-1.1587,0.4076,13.9272,44.8563,0.1145,0.0918,0.1123,295.0312
20:50:35:559,-0.8283,-0.2963,14.0421,45.5303,0.18,0.153,0.2271,294.9219
20:50:35:575,-0.3722,-0.9307,12.8306,44.8604,0.3776,0.4108,0.343,294.7969
20:50:35:595,0.0947,-1.1235,10.3706,45.6618,0.5337,0.5807,0.4402,294.5469
20:50:35:620,0.5508,-0.8457,7.8699,45.0608,0.4597,0.4849,0.4452,294.3594
20:50:35:636,0.6346,-0.167,6.5291,43.3719,0.1119,0.1517,0.3139,293.9219
20:50:35:654,0.2635,0.1347,7.2043,44.896,-0.331,-0.2792,0.0982,293.3906
20:50:35:675,-1.0797,-0.3885,10.2425,44.7987,-0.5704,-0.5567,-0.0384,292.7812
20:50:35:696,-0.7696,-0.5261,10.2617,44.4118,-0.0658,-0.6315,0.2969,292.6719
20:50:35:719,0.1174,-0.4304,9.2274,44.0275,0.3891,-0.5943,0.6415,292.7188
20:50:35:739,1.0129,-0.4639,8.065,43.7566,0.7169,-0.4249,0.8993,292.6875
20:50:35:755,1.4474,-0.0245,6.7338,43.6268,0.825,-0.0861,0.993,291.7031
20:50:35:783,1.7778,0.4998,5.733,43.6271,0.7462,0.1719,0.883,290.7188
20:50:35:793,1.7982,0.7967,5.2745,43.2194,0.522,0.258,0.6258,290.7188
20:50:35:814,1.5516,0.6315,5.6145,43.8428,0.2341,0.2596,0.3531,289.5938
20:50:35:839,1.0356,0.343,6.7877,43.8428,-0.0104,0.1773,0.1877,288.625
20:50:35:856,0.6717,0.2604,8.5019,42.6623,-0.0945,0.0217,0.1509,287.9062
20:50:35:875,0.6501,0.1885,10.0079,40.8627,0.021,-0.1652,0.1477,287.4844
20:50:35:894,0.6561,-0.1407,10.6352,43.1382,0.2575,-0.2723,0.119,287.2656
20:50:35:919,0.8129,-0.4148,10.2341,41.7674,0.3492,-0.374,0.087,287
20:50:35:938,0.7303,-0.4579,10.853,41.9313,0.1579,-0.5162,0.0455,286.8594
20:50:35:953,0.2946,-0.5585,12.5924,42.438,-0.146,-0.488,0.0378,286.7812
20:50:35:979,0.3078,-0.8338,14.5377,40.3379,-0.2951,-0.2494,0.1374,286.75
20:50:35:993,1.627,-1.2408,14.9423,41.254,-0.1808,0.1887,0.2785,286.7656
20:50:36:013,2.7906,-0.6566,12.9324,41.8635,-0.0551,0.617,0.2332,286.7031
20:50:36:036,2.5703,0.4699,10.9285,41.0658,-0.2288,0.6756,-0.0792,286.625
20:50:36:053,1.4031,0.8063,11.2182,41.2479,-0.5662,0.4798,-0.4342,286.2969
20:50:36:074,0.7866,-0.3058,12.5852,40.4826,-0.6732,0.3328,-0.6264,285.9844
20:50:36:093,0.5233,-1.3509,12.7612,40.1002,-0.4786,0.3349,-0.6004,286.0156
20:50:36:114,0.9722,-1.6598,11.2612,41.3031,-0.2165,0.3134,-0.4097,286.4688
20:50:36:137,1.5085,-1.1618,9.6033,39.7962,-0.134,0.0939,-0.2688,287.1406
20:50:36:155,1.8125,-0.5106,9.1627,41.3119,-0.1585,-0.2148,-0.2922,287.7969
20:50:36:174,1.7335,-0.2544,8.9053,40.6525,-0.1438,-0.2771,-0.424,288.2188
20:50:36:194,1.2978,-0.149,8.2182,42.1309,-0.0924,-0.0318,-0.5045,288.6719
20:50:36:220,0.9722,0.1335,6.99,39.7207,-0.0447,0.3344,-0.4829,289.0781
20:50:36:236,0.8632,0.6028,5.6277,39.6137,-0.0107,0.5672,-0.4302,289.6094
20:50:36:254,0.9949,1.0349,4.6497,40.0937,0.0173,0.5666,-0.4041,290.1719
20:50:36:274,1.1828,1.3509,4.0272,40.5975,0.0272,0.3959,-0.4342,290.6875
20:50:36:295,1.0703,1.6143,4.1205,39.7927,-0.0107,0.0835,-0.5215,291.0938
20:50:36:318,0.965,1.7508,4.8963,40.3996,-0.0666,-0.2459,-0.631,291.5469
20:50:36:337,0.6346,1.8525,5.9916,37.2016,-0.1457,-0.4795,-0.791,292.0781
20:50:36:354,-0.602,1.7843,8.0255,39.8577,-0.2328,-0.4339,-0.8992,292.7031
20:50:36:379,-1.4544,1.6801,9.7625,38.9736,-0.1723,-0.0997,-0.8267,293.5156
20:50:36:393,-1.8602,1.6047,10.3622,38.2791,-0.0621,0.2614,-0.6699,294.5312
20:50:36:415,-1.8805,1.7244,10.4508,38.8508,-0.0506,0.491,-0.4496,295.5469
20:50:36:439,-1.4412,1.9327,10.8878,37.4205,-0.1209,0.4635,-0.2994,296.3594
20:50:36:456,-1.112,1.8034,12.1459,37.5994,-0.1691,0.2406,-0.2928,296.9844
20:50:36:475,-1.4017,1.1079,13.4902,38.0121,-0.1579,0.1035,-0.313,297.5156
20:50:36:495,-1.525,0.3729,14.1953,37.9857,-0.1387,0.1517,-0.2054,297.8281
20:50:36:521,-1.4173,0.1909,14.3558,37.3127,-0.1782,0.2004,-0.0445,298
20:50:36:537,-1.78,0.4567,15.159,38.2551,-0.2431,-0.0342,0.0934,298.2969
20:50:36:553,-2.2876,0.1742,16.793,37.5424,-0.1244,-0.4012,0.2945,298.4219
20:50:36:574,-2.1116,-0.665,17.5149,36.4009,0.3308,-0.516,0.6263,298.375
20:50:36:601,-0.7481,-1.3617,15.2715,37.9996,0.9143,-0.2108,0.9414,298.1719
20:50:36:621,0.7746,-1.2516,11.1763,38.8748,1.1627,0.1661,1.0828,297.6719
20:50:36:637,1.4905,-0.5872,7.6687,38.3554,0.8999,0.2175,0.9717,296.8438
20:50:36:655,1.0775,0.0928,6.5973,38.4478,0.3758,-0.0225,0.7376,295.7031
20:50:36:673,0.643,-0.009,7.0738,38.4912,-0.0762,-0.1799,0.5334,294.5156
20:50:36:693,0.3245,-0.1718,7.5873,38.3495,-0.2991,-0.1519,0.4082,293.6094
20:50:36:714,0.1474,-0.1538,7.3838,39.5589,-0.3491,-0.0185,0.3472,292.9062
20:50:36:735,-0.1028,-0.1131,6.808,39.5704,-0.335,0.0561,0.3302,292.375
20:50:36:753,-0.3614,-0.1024,6.632,39.3099,-0.2831,-0.0427,0.3797,291.7656
20:50:36:774,-0.608,-0.185,7.5203,39.8138,-0.1598,-0.3407,0.5049,291.375
20:50:36:794,-0.9564,-0.1586,9.0095,38.5228,0.167,-0.6212,0.7286,290.9219
20:50:36:814,-0.6152,-0.0581,9.4393,39.4297,0.6288,-0.651,1.0399,290.3906
20:50:36:834,0.8082,0.2173,8.4157,39.9472,0.9931,-0.4121,1.2231,289.5938
20:50:36:853,2.1046,0.7967,6.6033,37.9519,1.0544,-0.1018,1.0729,288.4531
20:50:36:873,2.5428,1.321,5.6265,38.0767,0.7763,0.0659,0.6601,287.0938
20:50:36:895,2.1274,1.3246,6.1125,38.5297,0.3153,0.1988,0.184,285.9531
20:50:36:922,1.044,0.7811,7.5395,39.7925,-0.0975,0.3733,-0.1931,285.2031
20:50:36:940,-0.1495,0.094,9.1879,40.7224,-0.3175,0.5275,-0.3316,284.9844
20:50:36:960,-0.5027,-0.3741,10.136,39.9232,-0.3233,0.6172,-0.2576,285.1562
20:50:36:974,-0.3028,-0.1814,10.695,40.1719,-0.2613,0.4803,-0.1769,285.4688
20:50:36:993,-0.1244,-0.2436,11.7018,40.1587,-0.2021,0.1501,-0.1745,285.7031
20:50:37:014,-0.2094,-0.8098,12.8163,41.0202,-0.1207,-0.1221,-0.1918,285.7812
20:50:37:035,0.1234,-1.473,13.0892,40.9963,-0.0794,-0.0813,-0.0581,285.9219
20:50:37:054,1.0105,-1.4419,12.1028,41.2519,-0.1273,0.1789,0.1768,286.1406
20:50:37:079,1.8209,-0.4806,10.4915,42.438,-0.3028,0.2353,0.2537,286.3125
20:50:37:094,1.53,0.0976,11.8801,41.6675,-0.6413,-0.4371,-0.129,286.1094
20:50:37:118,1.7024,-0.7596,12.3506,41.3577,-0.4709,-0.59,-0.1974,286.1094
20:50:37:139,2.52,-1.0936,11.2397,41.0605,-0.2394,-0.6004,-0.1449,285.7812
20:50:37:155,3.4729,-0.8027,9.7613,39.7236,-0.1883,-0.6366,-0.1649,285.6719
20:50:37:173,3.5256,-0.2891,9.2274,39.608,-0.338,-0.6449,-0.3551,286.0625
20:50:37:198,2.9246,0.076,9.1029,41.0492,-0.4962,-0.403,-0.6081,286.25
20:50:37:212,2.1525,0.331,8.5354,40.6563,-0.5758,0.0207,-0.8326,286.4688
20:50:37:234,1.5504,0.4256,7.6927,39.084,-0.5872,0.4092,-0.9681,286.8906
