Time,Acc_X,Acc_Y,Acc_Z,Meg,Gyr_X,Gyr_Y,Gyr_Z,Ore
20:47:41:272,-2.3498,3.1777,8.0734,54.73,-0.1151,-0.1532,-0.1665,207.7188
20:47:41:304,-2.3498,3.2483,7.9213,53.8265,-0.2653,-0.1495,-0.1689,207.7188
20:47:41:324,-1.9583,3.2651,8.0339,54.0183,-0.3555,-0.2193,-0.2584,207.7188
20:47:41:336,-1.9775,3.3082,8.5797,55.1292,-0.3494,-0.366,-0.3572,179.5625
20:47:41:353,-2.1571,2.9251,9.4081,55.295,-0.1811,-0.3612,-0.4097,180.0156
20:47:41:372,-2.6718,2.6139,9.3447,55.4532,0.0104,-0.3546,-0.3436,180.4375
20:47:41:404,-2.9232,2.4511,8.7868,53.6737,0.0951,-0.4518,-0.2174,180.7031
20:47:41:421,-2.8598,2.4954,8.5606,53.8403,0.0932,-0.5133,-0.0885,181.2031
20:47:41:436,-2.5569,2.5672,8.7066,54.2479,0.0732,-0.4249,0.0351,181.5781
20:47:41:454,-2.442,2.6797,8.6264,54.8962,0.0551,-0.267,0.12,181.8594
20:47:41:470,-2.5473,2.7958,8.7282,53.8797,0.0354,-0.1261,0.2005,182
20:47:41:489,-2.6419,2.9072,8.6959,54.5797,0.0439,0.059,0.2782,181.9844
20:47:41:521,-2.7005,3.1705,8.1883,53.4909,0.0434,0.1421,0.3049,181.8438
20:47:41:538,-2.7161,3.4159,7.5706,54.6963,-0.0368,0.0281,0.2591,181.5781
20:47:41:555,-2.4061,3.2962,7.3288,54.1165,-0.2024,-0.2302,0.1216,181.2344
20:47:41:568,-1.5047,2.5061,7.7968,54.5319,-0.3707,-0.4403,-0.1681,180.875
20:47:41:589,-1.8398,2.5708,8.9844,55.3933,-0.4107,-0.3322,-0.4003,180.6562
20:47:41:608,-2.4168,2.8629,9.6404,53.5198,-0.3167,0.0111,-0.5119,180.6875
20:47:41:640,-2.8298,2.9239,9.5745,53.2427,-0.1585,0.4015,-0.5761,181.0625
20:47:41:646,-3.4188,3.058,9.3231,52.407,-0.0101,0.7323,-0.5487,181.5781
20:47:41:674,-4.1526,2.9922,8.9987,52.9846,0.0546,0.7749,-0.3798,181.8594
20:47:41:687,-4.8709,2.8904,8.5917,53.9645,0.0413,0.4494,-0.0358,182.6719
20:47:41:711,-4.5728,2.7731,8.217,53.5319,-0.0248,0.2153,0.307,183.0781
20:47:41:735,-3.4104,2.5768,8.138,52.6952,-0.1047,0.2329,0.4948,183.25
20:47:41:751,-2.6838,2.4259,8.1919,54.3533,-0.1689,0.2404,0.5869,183.0312
20:47:41:764,-2.2959,2.4559,8.4325,54.2049,-0.1755,0.259,0.6199,182.5156
20:47:41:786,-1.9631,2.8533,8.5295,54.2049,-0.1396,0.2513,0.5792,181.8281
20:47:41:805,-1.7692,3.2483,8.3284,54.8869,-0.126,0.222,0.4444,181.0469
20:47:41:824,-1.3813,3.5775,7.6687,53.6333,-0.1824,0.1948,0.2583,180.3281
20:47:41:849,-1.5382,3.6901,7.1097,54.2793,-0.2844,0.1304,0.0979,179.6719
20:47:41:863,-2.2816,3.9762,7.1229,53.8972,-0.3425,-0.0632,0.054,179.2031
20:47:41:883,-2.8765,4.0348,7.4138,55.0726,-0.334,-0.3266,0.1105,178.9531
20:47:41:903,-2.7796,3.7643,7.9764,54.849,-0.2615,-0.5234,0.2031,178.8281
20:47:41:923,-2.1702,3.4363,8.4373,54.6956,-0.1246,-0.6052,0.238,178.7344
20:47:41:949,-2.0266,3.3262,8.5223,53.4902,0.0256,-0.676,0.2583,178.5781
20:47:41:963,-2.272,3.0819,8.3331,54.3863,0.0975,-0.7538,0.2953,178.2969
20:47:41:983,-1.44,3.2998,7.8327,54.5894,-0.0242,-0.6672,0.1957,178.1094
20:47:42:003,-0.1902,3.6709,7.5885,54.0855,-0.2818,-0.3359,-0.0659,177.9062
20:47:42:021,-0.0873,4.1043,7.7083,52.5696,-0.5329,0.1096,-0.3039,177.7969
20:47:42:050,-0.8893,4.1569,8.1093,55.1792,-0.657,0.3775,-0.4512,177.8906
20:47:42:066,-2.667,3.8433,8.4002,56.173,-0.6466,0.0803,-0.4507,178.1719
20:47:42:081,-3.4703,3.5464,8.5115,55.0997,-0.5393,-0.4062,-0.2603,178.5469
20:47:42:100,-2.6407,2.8761,9.061,55.0316,-0.367,-0.9362,-0.0318,178.9688
20:47:42:120,-1.8949,1.6263,11.0266,55.1294,-0.1712,-0.9703,0.1927,179.2656
20:47:42:140,-1.0653,0.9475,11.6443,55.1396,0.0373,-0.7043,0.3555,179.375
20:47:42:160,-0.7684,1.0756,11.6647,55.6341,0.131,-0.3932,0.4196,179.2656
20:47:42:182,-0.28,1.4539,11.4276,55.5207,-0.0181,-0.0837,0.3752,178.9375
20:47:42:201,0.5101,1.9232,11.3331,53.2474,-0.3388,0.0569,0.2002,178.7344
20:47:42:222,0.9398,1.6957,12.42,55.0222,-0.4924,0.2252,-0.0856,178.3281
20:47:42:239,0.5029,1.3521,13.1622,54.0026,-0.3806,0.2652,-0.3207,177.9688
20:47:42:262,-0.304,0.9918,12.9911,54.6768,-0.0927,0.2638,-0.3785,177.9062
20:47:42:283,-0.6559,0.4579,11.6647,54.3345,0.2304,0.2153,-0.2858,178.1875
20:47:42:301,-0.9408,0.1454,9.9157,53.6544,0.47,-0.0265,-0.0528,178.5938
20:47:42:319,-1.2341,0.1407,8.0231,53.0736,0.5955,-0.5074,0.3043,178.5938
20:47:42:337,-1.0533,0.4794,6.589,54.991,0.5926,-1.2182,0.6396,178.9062
20:47:42:356,-0.134,1.4096,6.1568,54.3966,0.3819,-1.7881,0.7464,179.0156
20:47:42:377,0.8058,2.3421,7.0415,54.5107,-0.008,-1.6646,0.5813,178.7812
20:47:42:400,1.2882,2.5983,8.0243,55.9639,-0.3646,-1.1573,0.3493,178.25
20:47:42:417,1.2451,2.3565,8.3427,54.8024,-0.6141,-0.5261,0.1555,177.6719
20:47:42:436,0.6286,2.2236,7.9189,53.41,-0.7071,-0.0717,0.0987,177.2344
20:47:42:456,0.2168,2.3074,7.1025,54.4707,-0.6514,-0.1482,0.139,177
20:47:42:476,0.4071,2.4786,6.8667,54.0074,-0.4898,-0.5913,0.1544,176.875
20:47:42:500,0.8201,2.7372,7.4365,53.7676,-0.2799,-1.0281,0.063,176.7812
20:47:42:516,1.4797,2.8653,8.3284,54.8972,-0.0935,-1.182,-0.1591,176.5312
20:47:42:540,1.8652,2.7013,9.134,53.587,-0.0168,-1.0057,-0.4195,176.5625
20:47:42:555,1.5456,2.5241,9.2932,54.0138,-0.1393,-0.5066,-0.5761,176.6875
20:47:42:578,0.9865,2.6366,9.3028,53.6223,-0.3345,-0.0148,-0.6315,177.125
20:47:42:601,0.5424,2.9,9.4955,54.5657,-0.4613,0.2375,-0.6792,177.7969
20:47:42:619,0.3257,2.7863,10.3383,54.3283,-0.4376,0.3442,-0.6946,178.5
20:47:42:636,-0.0598,2.6055,11.0326,53.5238,-0.3161,0.4542,-0.635,179.2656
20:47:42:657,-0.4608,2.4786,11.4061,53.8376,-0.1622,0.4843,-0.5034,179.6406
20:47:42:683,-0.7445,2.3014,11.448,53.0236,-0.0392,0.3916,-0.3268,180.4219
20:47:42:703,-1.0892,2.1446,11.6108,53.9353,-0.0029,0.2497,-0.073,181.0938
20:47:42:719,-0.8678,1.8298,11.879,53.2655,-0.0168,0.0734,0.1637,181.6406
20:47:42:736,-0.9073,1.3461,12.0298,54.2071,-0.0855,-0.2691,0.4556,181.9844
20:47:42:757,-1.0055,1.1391,13.2029,53.7933,-0.0469,-0.7003,0.8513,182.0312
20:47:42:777,0.4131,1.181,15.5193,54.3314,0.2908,-0.8523,1.0506,181.8438
20:47:42:800,2.3141,1.394,16.8541,52.4731,0.816,-0.4475,0.8799,181.3594
20:47:42:819,3.0288,1.2887,14.9076,53.477,1.1004,0.3485,0.4926,179.9219
20:47:42:837,2.7199,0.9427,10.6004,53.0527,0.8948,0.9192,0.1011,178.8125
20:47:42:857,1.955,0.6614,7.0905,52.4474,0.3571,0.9022,-0.138,177.9531
20:47:42:877,1.0679,0.6447,6.0263,55.4597,-0.2136,0.3126,-0.2105,177.5156
20:47:42:901,0.6047,0.5836,7.3168,53.5157,-0.592,-0.4334,-0.1886,177.4375
20:47:42:917,0.3126,0.3346,10.0785,52.8283,-0.6607,-0.7969,-0.1082,177.5781
20:47:42:936,0.0253,-0.064,12.0394,52.0874,-0.4685,-0.6329,0.0703,177.8281
20:47:42:956,-0.3782,-0.0221,11.8742,52.5981,-0.1656,-0.3333,0.3315,178.0938
20:47:42:976,-0.5158,0.4316,10.4472,53.5891,0.1433,-0.1229,0.5885,178.2188
20:47:43:000,-0.0621,0.762,8.5786,52.1319,0.4035,-0.0933,0.7424,178.0625
20:47:43:018,0.3461,1.4024,5.4972,51.4199,0.5742,-0.0805,0.8229,177.5781
20:47:43:037,0.546,1.5748,4.737,52.9101,0.5627,-0.0723,0.8783,176.7812
20:47:43:056,0.6454,1.8453,4.5335,51.4629,0.4549,-0.0994,0.8804,175.875
20:47:43:078,0.9745,2.0321,4.8759,51.3224,0.3108,-0.1338,0.8892,174.8594
20:47:43:102,1.2415,2.3852,5.5032,51.3021,0.1707,-0.1354,0.8766,173.8906
20:47:43:117,1.451,2.7372,6.3807,50.673,0.0716,-0.1737,0.8101,172.875
20:47:43:136,1.6713,2.821,7.4281,51.1571,0.0032,-0.2289,0.686,171.8594
20:47:43:160,1.8987,2.9371,8.6707,49.4177,-0.0685,-0.1639,0.5222,170.9375
20:47:43:184,2.0819,2.9886,9.9384,52.1556,-0.1859,0.0952,0.3049,170.0938
20:47:43:251,1.7934,2.9144,11.1332,50.0168,-0.3073,0.4255,0.0125,169.4219
20:47:43:251,1.1864,2.578,12.1112,50.0915,-0.3822,0.6532,-0.2525,168.9531
20:47:43:252,0.6513,2.1745,13.0713,49.3607,-0.4101,0.6545,-0.4083,168.7656
20:47:43:265,0.5592,1.5796,13.9715,48.7431,-0.4013,0.5618,-0.443,169.0312
20:47:43:283,1.0548,0.89,14.7676,48.2641,-0.3478,0.4923,-0.4027,169.4375
20:47:43:301,1.7994,0.4471,13.9966,48.877,-0.1968,0.6305,-0.3218,169.9062
20:47:43:316,1.6797,0.8913,12.529,48.5745,-0.09,0.7714,-0.3085,170.3438
20:47:43:338,0.9434,1.2276,12.092,47.1804,-0.1385,0.6447,-0.3817,170.6562
20:47:43:356,0.1222,0.5441,12.9132,47.8003,-0.2426,0.3826,-0.5037,170.7812
20:47:43:376,0.1174,-0.6877,13.5202,46.8975,-0.2181,0.2833,-0.509,171.1094
20:47:43:397,1.2523,-1.4216,12.8618,47.563,-0.025,0.4484,-0.3162,171.5781
20:47:43:424,3.0803,-1.1546,11.041,47.228,0.2842,0.5411,-0.0525,172.1562
20:47:43:435,4.2259,-0.0605,9.1651,45.7928,0.5212,0.2228,-0.0043,172.5938
20:47:43:456,3.7985,0.5872,8.6851,47.3551,0.4783,-0.3791,-0.3117,172.75
20:47:43:476,2.6661,-0.0245,9.1496,46.4068,0.2045,-0.7242,-0.7615,172.7031
20:47:43:501,1.2331,-0.6829,9.3279,45.3488,-0.061,-0.4686,-1.0542,172.8438
20:47:43:519,0.0899,-0.4938,8.3607,45.1034,-0.1425,0.0979,-1.0547,174.0625
20:47:43:536,-0.2525,0.1419,6.6177,44.7182,-0.0123,0.4236,-0.844,175.3125
20:47:43:556,-0.2645,0.8015,5.3571,45.5232,0.1957,0.2606,-0.623,176.4531
20:47:43:579,-0.1543,1.23,4.8615,45.637,0.363,-0.1434,-0.4637,177.375
20:47:43:601,-0.0645,1.5389,4.6197,45.1937,0.436,-0.4294,-0.3561,178.0625
20:47:43:618,0.1282,1.9375,4.2426,45.8449,0.3958,-0.4555,-0.2818,178.5781
20:47:43:635,0.5843,2.6103,4.4102,44.4853,0.2099,-0.3908,-0.2355,179.0312
20:47:43:656,1.2319,3.1238,5.0866,44.6489,-0.0218,-0.3666,-0.2725,179.4062
20:47:43:678,1.7,3.4399,6.4585,44.2724,-0.2208,-0.4297,-0.4416,179.7031
20:47:43:702,1.7838,3.3609,8.4888,43.4323,-0.3678,-0.4491,-0.7074,180.625
20:47:43:719,0.9997,2.9419,10.5753,43.5699,-0.3595,0.1248,-1.1117,180.625
20:47:43:736,-0.456,2.463,12.1004,42.4156,-0.1923,0.5472,-1.0033,181.4844
20:47:43:756,-1.7106,1.8405,12.8546,41.8913,0.057,0.8526,-0.656,182.5938
20:47:43:776,-1.9272,1.7077,13.0138,41.3778,0.3915,0.8785,-0.2499,183.8594
20:47:43:801,-0.9743,2.1326,12.2094,40.6716,0.6304,0.6676,-0.0424,184.9531
20:47:43:816,-0.4344,2.724,11.1798,41.5359,0.6256,0.4372,-0.0397,185.5938
20:47:43:839,-0.3746,2.7276,10.968,41.5359,0.4394,0.3906,-0.1172,185.7812
20:47:43:855,-0.4668,2.056,11.2792,41.3034,0.2125,0.5807,-0.138,185.7812
20:47:43:876,-0.681,1.8621,11.2074,40.7933,0.0306,0.7229,-0.1194,185.7812
20:47:43:899,-1.9129,2.5564,11.1248,39.6217,-0.053,0.504,-0.0421,185.875
20:47:43:916,-2.6443,2.2129,11.958,40.579,0.0538,0.2281,0.1171,185.9688
20:47:43:935,-2.3606,1.1726,12.3937,40.2104,0.2959,0.1797,0.3192,186.0156
20:47:43:955,-2.0948,0.756,11.1284,39.8509,0.4325,0.1229,0.5004,186
20:47:43:975,-1.2473,0.8422,9.3495,42.3985,0.2746,-0.1948,0.5174,185.8438
20:47:44:000,-0.2776,1.1905,8.6719,41.3267,-0.1475,-0.7823,0.3152,185.4688
20:47:44:020,-0.45,1.1259,10.2712,42.4684,-0.5278,-1.0867,0.0977,184.9375
20:47:44:040,-0.6308,0.5992,12.6942,39.5548,-0.595,-0.7817,-0.0075,184.3906
20:47:44:055,-0.5948,0.2915,13.4938,41.5004,-0.3377,-0.1801,-0.023,184.125
20:47:44:076,-1.0952,0.3298,11.8239,39.764,0.0325,0.3024,0.1001,184.1875
20:47:44:099,-1.6471,0.4735,8.9365,40.9075,0.2583,0.4889,0.3627,184.2656
20:47:44:118,-1.7225,0.5884,6.8715,41.3238,0.3254,0.4992,0.6836,184.2344
20:47:44:137,-1.5023,0.7943,5.7055,40.3237,0.3164,0.4524,1.0002,183.9375
20:47:44:156,-1.0258,1.2121,4.9178,42.1664,0.2487,0.2646,1.2197,183.3125
20:47:44:176,-0.2728,1.7089,5.0471,42.6541,0.2064,-0.0201,1.2727,182.2812
20:47:44:201,0.3078,2.0153,5.9389,39.5776,0.2349,-0.271,1.18,180.9531
20:47:44:219,0.394,2.0333,7.0726,42.1013,0.3004,-0.3501,1.0476,179.5625
20:47:44:242,0.4466,1.9998,8.1308,43.0099,0.3806,-0.2004,0.9195,178.1719
20:47:44:256,0.5639,2.1015,8.5127,42.3298,0.4461,-0.0132,0.7778,176.9531
20:47:44:277,0.5556,2.2715,8.5738,42.9672,0.4506,0.0795,0.6364,175.9219
20:47:44:299,0.783,2.5109,8.7856,42.0251,0.4096,0.1189,0.4503,175.4375
20:47:44:316,1.1122,2.6749,8.9449,42.1886,0.3244,0.0758,0.1725,174.5469
20:47:44:335,1.0775,2.7228,9.0322,43.5442,0.1132,-0.014,-0.1495,173.8125
20:47:44:356,0.5604,2.2954,10.045,42.7267,-0.1744,0.0154,-0.3817,173.2969
20:47:44:376,-0.0454,1.5269,11.7006,43.6299,-0.335,0.1821,-0.4541,173.1406
20:47:44:399,-0.5099,0.7249,12.9815,43.7744,-0.297,0.4031,-0.3415,173.4688
20:47:44:419,0.2276,0.738,10.8925,43.1698,-0.2519,0.5456,-0.1756,173.9375
20:47:44:436,-0.0214,1.3186,10.713,42.989,-0.4053,0.3946,-0.0981,174.3594
20:47:44:461,-0.8355,1.169,12.3925,43.7922,-0.6599,0.104,-0.1244,174.5625
20:47:44:475,-1.2425,0.179,13.8314,45.0708,-0.6906,-0.0118,-0.1103,174.6094
20:47:44:496,-0.6272,-0.2783,13.1455,42.5118,-0.3968,0.1706,0.0932,174.6719
20:47:44:520,1.05,0.3538,10.8494,44.7117,-0.0019,0.3927,0.3938,174.7969
20:47:44:535,2.5547,1.3857,8.7306,45.0886,0.2559,0.2606,0.5118,174.8125
20:47:44:555,3.0072,2.0058,8.0686,45.553,0.2511,-0.1631,0.2788,174.5
20:47:44:575,2.4745,1.7927,8.5187,45.6749,0.0708,-0.4955,-0.1575,173.8906
20:47:44:600,1.6593,1.2935,8.7366,45.5803,-0.0975,-0.4614,-0.5543,173.3906
20:47:44:618,0.6238,0.9906,8.1177,46.2325,-0.1718,-0.1623,-0.8067,173.3594
20:47:44:636,-0.1914,1.0193,7.1073,46.5747,-0.1678,0.0939,-0.8712,173.8594
20:47:44:655,-0.6128,1.1486,6.3148,46.5747,-0.1036,0.0779,-0.7833,175.1875
20:47:44:675,-0.4883,1.4168,6.2741,45.9741,-0.004,-0.1658,-0.6033,176.125
20:47:44:700,0.2491,1.8633,6.8882,46.0576,0.123,-0.4225,-0.4041,177
20:47:44:721,0.971,2.396,6.8499,46.7084,0.2937,-0.4512,-0.3154,177.7188
20:47:44:737,1.3564,3.1478,6.0658,45.7977,0.4298,-0.3599,-0.4009,178.2188
20:47:44:756,1.5264,3.6661,5.5331,46.1668,0.3867,-0.3208,-0.6081,178.6406
20:47:44:775,1.1146,3.6709,6.2969,48.3999,0.1593,-0.3096,-0.901,179.1719
20:47:44:801,0.4502,3.4746,7.5311,47.398,-0.1196,-0.1293,-1.1535,179.5
20:47:44:818,-0.5565,3.4423,8.9173,47.9056,-0.3215,0.1597,-1.2853,180.3594
20:47:44:836,-1.3359,3.2902,10.3539,47.4632,-0.3627,0.3245,-1.2744,181.5938
20:47:44:856,-2.0553,3.1646,11.2074,47.32,-0.2394,0.4146,-1.1346,183
20:47:44:876,-2.4133,3.1418,10.5981,47.904,0.017,0.4694,-0.8965,184.375
20:47:44:902,-2.5677,3.2591,10.0462,48.4093,0.1958,0.3719,-0.6139,185.7031
20:47:44:918,-2.2457,3.4052,10.5071,49.5914,0.1957,0.1789,-0.326,186.8125
20:47:44:938,-1.616,3.2843,11.448,48.783,0.1305,0.0199,-0.0901,187.8906
20:47:44:959,-1.0294,3.246,11.4324,50.4196,0.1406,-0.0361,0.0191,188.25
20:47:44:974,-1.4436,3.5392,11.1583,49.7563,0.0836,-0.0579,-0.0208,188.3594
20:47:44:996,-2.418,3.3501,12.9815,49.6567,-0.1726,-0.2635,-0.0927,188.3594
20:47:45:017,-3.3171,2.0596,15.8246,50.2235,-0.3385,-0.5072,-0.0429,188.3906
20:47:45:037,-3.4846,0.926,16.2184,49.9587,-0.0865,-0.362,0.2039,188.5156
20:47:45:059,-2.7592,0.817,12.3171,49.4475,0.4714,0.1317,0.5997,188.4531
20:47:45:077,-1.8458,1.0995,8.7665,49.2796,0.474,-0.1809,1.0016,187.7656
20:47:45:102,-1.1898,1.1151,8.405,50.8146,0.0482,-0.6686,1.0077,186.75
20:47:45:119,-0.96,1.1091,10.215,50.6845,-0.2,-0.72,0.9834,186.75
20:47:45:138,-0.6739,1.0289,11.4061,49.1745,-0.1832,-0.3849,0.9395,184.6562
20:47:45:155,-0.3423,1.1594,10.3455,48.7591,-0.0953,-0.0366,0.8695,184.6562
20:47:45:176,-0.0597,1.4671,8.4325,50.5137,-0.0754,0.1219,0.7896,183.6406
20:47:45:201,0.1593,1.8262,7.0882,50.1024,-0.0575,0.1203,0.7043,182.625
20:47:45:217,0.3952,2.0213,6.5722,50.1958,0.0423,0.0047,0.6111,181.6719
20:47:45:235,0.1809,1.7831,6.7398,48.3308,0.2152,0.0002,0.5824,180.3281
20:47:45:307,-0.4332,1.5808,6.4082,50.1772,0.3103,0.1139,0.6993,179.9375
20:47:45:307,-0.3973,1.6813,5.9306,49.8281,0.2735,0.2161,0.8308,179.2656
20:47:45:307,0.1474,2.0764,5.7534,51.5356,0.1678,0.2249,0.8665,178.5938
20:47:45:322,0.7627,2.5875,6.395,48.1361,0.1387,0.1094,0.7704,177.7812
20:47:45:334,1.1709,2.742,7.3994,50.8267,0.2216,-0.0441,0.5584,176.7969
20:47:45:354,0.9805,2.6438,8.0961,50.6451,0.3012,-0.1474,0.3669,175.8281
20:47:45:374,0.7603,2.3984,8.9616,50.0155,0.3316,-0.0994,0.2388,174.9219
20:47:45:401,0.5592,2.1339,9.5302,50.3209,0.3369,0.0082,0.1693,174.2812
20:47:45:418,0.9051,2.1937,9.5542,51.3839,0.2762,0.0228,0.0551,173.9062
20:47:45:436,1.5085,2.2272,9.5446,51.3537,0.1393,-0.1532,-0.1596,173.6562
20:47:45:459,1.7479,1.8932,10.5131,48.8392,-0.0477,-0.2787,-0.4014,173.4531
20:47:45:473,1.4953,1.2731,12.0477,51.7822,-0.1768,-0.1476,-0.5487,173.3906
20:47:45:495,1.6689,0.3047,12.4775,49.6522,-0.2482,0.1158,-0.6062,173.8281
20:47:45:520,1.5551,0.2292,11.3175,51.143,-0.4282,0.1173,-0.652,174.4375
20:47:45:536,1.2619,0.8529,10.9572,52.154,-0.7023,-0.1205,-0.7474,175.0781
20:47:45:554,0.5125,0.9715,12.699,50.4049,-0.7934,-0.1988,-0.8427,175.7656
20:47:45:575,-0.6224,0.1981,14.4707,50.2816,-0.5436,0.1072,-0.7122,176.5469
20:47:45:594,-0.8846,-0.2903,13.4675,51.1408,-0.1811,0.4202,-0.3633,177.5156
20:47:45:616,0.2096,0.1622,10.4879,49.8901,-0.0016,0.1624,-0.0714,178.4062
20:47:45:635,1.8472,0.8015,8.8192,49.9089,-0.0349,-0.4739,-0.0432,179
20:47:45:655,2.5954,1.424,9.2765,50.8717,-0.1329,-0.8521,-0.223,179.1562
20:47:45:674,2.538,1.6215,10.2868,49.9994,-0.1289,-0.6537,-0.4579,179.2031
20:47:45:694,2.2195,1.4982,9.7254,50.496,-0.0818,-0.0904,-0.6739,179.4375
20:47:45:718,1.6593,1.5928,7.5155,51.9079,-0.1212,0.3458,-0.8123,179.9531
20:47:45:738,1.1026,1.8705,5.5211,50.8066,-0.187,0.3717,-0.8877,180.625
20:47:45:758,0.552,2.0237,4.5778,50.109,-0.1992,0.0622,-0.9002,181.4688
20:47:45:775,0.1103,1.9878,4.7059,49.1297,-0.1574,-0.2872,-0.8488,181.9219
20:47:45:796,-0.0358,1.9411,5.2985,50.2854,-0.1116,-0.4076,-0.7679,182.875
20:47:45:816,0.0612,2.6103,6.0862,50.4905,-0.0834,-0.329,-0.7199,184.3594
20:47:45:835,0.0157,2.9742,6.5028,48.3845,-0.1137,-0.2406,-0.7434,185.3438
20:47:45:854,-0.0981,3.1873,7.5191,52.2671,-0.184,-0.2105,-0.8017,186.2344
20:47:45:874,-0.1974,3.2148,8.6192,50.9372,-0.2162,-0.2044,-0.843,187.0625
20:47:45:894,-0.517,3.2914,9.3662,50.9372,-0.2032,-0.1445,-0.8824,187.9688
20:47:45:914,-1.0438,3.2483,10.2832,50.1488,-0.2384,-0.0076,-0.8802,188.9375
20:47:45:937,-1.5394,3.1526,11.0613,51.3137,-0.2836,0.2366,-0.8065,189.9062
20:47:45:958,-1.7285,3.0221,11.1583,49.6605,-0.2586,0.4971,-0.6651,190.9219
20:47:45:976,-1.8578,2.9144,11.1487,49.2674,-0.1968,0.5853,-0.4824,191.8906
20:47:45:999,-1.9931,2.7683,11.7269,50.514,-0.1481,0.4433,-0.2608,192.6875
20:47:46:020,-1.4436,2.3433,12.371,49.2782,-0.0858,0.2643,-0.0081,193.25
20:47:46:036,-0.869,2.1099,12.3279,50.0385,-0.0218,0.1275,0.2042,193.625
20:47:46:054,-1.3299,2.5684,13.6997,48.7636,-0.0839,-0.2233,0.3304,193.7344
20:47:46:074,-1.0402,1.8633,16.5381,48.8801,-0.176,-0.7586,0.4553,193.5938
20:47:46:094,-1.0306,1.072,18.3912,49.4058,-0.0133,-0.8877,0.5336,193.2812
20:47:46:116,-0.5613,0.4579,16.3286,48.3255,0.4575,-0.4198,0.6545,192.6562
20:47:46:137,-0.3447,0.3932,11.9699,48.5041,0.8591,0.1943,0.7153,192.1562
20:47:46:155,-0.0861,0.3178,9.2046,44.9701,0.8389,0.41,0.7041,191.4688
20:47:46:174,-0.2214,0.3166,8.5103,47.221,0.538,0.2058,0.6838,190.625
20:47:46:195,-0.3878,0.4028,8.788,47.0994,0.2509,-0.0986,0.6916,189.8125
20:47:46:217,-0.4464,0.5381,8.8048,44.6083,0.1236,-0.3002,0.7177,189
20:47:46:234,-0.2968,0.6925,8.3212,44.9918,0.1044,-0.3287,0.7435,188.2188
20:47:46:255,-0.1088,1.0756,7.4221,43,0.0951,-0.2193,0.7683,187.8281
20:47:46:274,-0.0394,1.582,6.8044,43.7912,0.0368,-0.1133,0.7568,187.0938
20:47:46:294,-0.1735,1.7723,6.9996,43.7238,-0.0341,-0.097,0.7041,186.25
20:47:46:314,-0.4201,1.6047,7.3958,42.9742,-0.0117,-0.0582,0.6631,185.4062
20:47:46:334,-0.5194,1.5652,7.0223,42.0104,0.1236,0.0763,0.6868,184.5781
20:47:46:354,-0.2668,1.7256,6.498,42.3221,0.2415,0.2076,0.7619,183.4688
20:47:46:375,0.0803,2.0393,6.3352,41.2241,0.2674,0.2516,0.8031,182.6719
20:47:46:394,0.5364,2.323,6.7781,40.4574,0.2543,0.1837,0.7675,181.8125
20:47:46:414,0.7507,2.3745,7.4856,39.5608,0.253,0.0699,0.6327,180.8594
20:47:46:434,0.4526,2.1686,8.1763,41.2693,0.277,-0.0116,0.429,179.9375
20:47:46:454,-0.377,1.9088,8.9269,40.5964,0.2937,-0.0108,0.2561,179.2031
20:47:46:475,-1.0737,1.7113,9.8511,40.1288,0.3236,0.0534,0.2255,178.7344
20:47:46:500,-1.0797,1.6765,10.5466,37.9821,0.4693,0.0276,0.3054,178.4375
20:47:46:520,-0.4033,1.6897,10.5562,39.3525,0.7156,-0.0638,0.4497,178.1562
20:47:46:536,0.2395,2.1937,10.2629,38.4187,0.5388,-0.1192,0.3667,177.8125
20:47:46:558,0.4646,2.7204,10.938,40.4429,0.2253,-0.0401,0.2495,176.7969
20:47:46:578,1.1206,2.6019,12.2513,37.7792,0.0173,0.2098,0.1549,176.7969
20:47:46:602,2.2375,2.1626,12.6259,37.5323,-0.1007,0.4492,0.0439,176.4062
20:47:46:617,2.1178,2.4499,12.3913,39.0727,-0.1617,0.4745,-0.0421,176.1094
20:47:46:634,1.8245,2.4846,12.3829,37.297,-0.1158,0.414,-0.0667,175.9062
20:47:46:656,1.5767,2.1422,12.4081,37.6436,0.0884,0.4857,-0.0049,175.7344
20:47:46:674,2.0531,1.6789,11.2289,38.5379,0.3393,0.5514,0.0756,175.7344
20:47:46:693,3.0479,1.6897,9.0251,37.3925,0.371,0.2958,0.03,175.7031
20:47:46:717,3.8284,1.831,7.6676,35.9804,0.1585,-0.272,-0.1519,175.6406
20:47:46:734,4.3947,1.8872,8.0794,36.4122,-0.1814,-0.7857,-0.4784,175.4531
20:47:46:754,4.0032,1.5999,9.7637,36.5256,-0.4509,-0.8212,-0.8235,175.3594
20:47:46:773,2.8744,0.9978,11.5007,37.1478,-0.5129,-0.2736,-1.0198,175.5938
20:47:46:795,1.6725,0.6925,11.1044,38.3908,-0.3755,0.4345,-1.0371,176.2969
20:47:46:816,0.8405,0.8194,8.5067,37.1593,-0.2357,0.7533,-0.9418,177.3594
20:47:46:837,0.1713,1.248,5.8791,37.708,-0.1784,0.5754,-0.7761,178.5781
20:47:46:854,-0.2728,1.5796,4.3899,36.4321,-0.1577,0.1277,-0.5889,179.7031
20:47:46:874,-0.5158,1.7579,4.1265,36.4353,-0.1273,-0.3282,-0.3945,180.5938
20:47:46:894,-0.2285,1.9986,4.6544,36.7084,-0.0874,-0.5756,-0.2619,181.375
20:47:46:920,0.151,2.3182,5.0148,37.9353,-0.0716,-0.6457,-0.2501,182.0312
20:47:46:936,0.2395,2.7791,5.2111,37.5852,-0.1404,-0.6568,-0.3455,182.7188
20:47:46:955,0.0073,3.0065,5.9078,37.3008,-0.2658,-0.5815,-0.4691,183.0938
20:47:46:974,-0.3052,3.0029,7.0079,37.2083,-0.3523,-0.4153,-0.5484,183.5469
20:47:46:994,-0.6164,2.9527,8.1332,36.8209,-0.3726,-0.2265,-0.5577,184.0938
20:47:47:017,-0.7948,3.0831,9.0047,35.5729,-0.3443,-0.097,-0.5103,184.7812
20:47:47:040,-0.7206,3.3393,9.8618,35.7733,-0.2703,0.0015,-0.4824,185.4688
20:47:47:054,-0.5817,3.5057,10.2952,36.6384,-0.2029,0.1075,-0.4933,186.1094
20:47:47:074,-0.6655,3.5775,10.306,36.2194,-0.225,0.1501,-0.5087,186.6562
20:47:47:095,-0.9779,3.5129,10.774,36.2248,-0.2964,0.1253,-0.4696,187.2031
20:47:47:115,-1.3466,3.2579,11.9795,34.7904,-0.3012,0.0936,-0.3492,187.7656
20:47:47:133,-1.4759,2.9335,13.2401,35.6321,-0.1555,0.1541,-0.1545,188.2969
20:47:47:158,-1.0306,2.8413,13.1144,36.2554,0.0093,0.2867,-0.0059,188.75
20:47:47:174,-0.5027,3.2376,11.4444,36.0789,-0.0969,0.2337,-0.0214,188.9219
20:47:47:196,-1.0366,3.9702,11.1691,36.7501,-0.404,-0.0472,-0.077,189.0312
20:47:47:217,-2.4037,2.2392,14.9567,35.8745,-0.4983,-0.1058,-0.1476,189.0469
20:47:47:243,-3.353,1.2228,13.9607,37.3129,-0.2722,0.2691,-0.0339,189.0781
20:47:47:255,-3.3625,1.1917,12.1052,36.2338,-0.0221,0.5094,0.339,189.2188
20:47:47:276,-2.1092,1.2947,11.8993,36.7034,0.0447,0.2122,0.7837,189.3438
20:47:47:300,-0.4907,1.485,12.8139,37.9485,0.0602,-0.3232,1.095,189.1406
20:47:47:323,0.5436,1.5197,12.4356,37.8739,0.2218,-0.545,1.1845,188.4375
20:47:47:381,0.874,1.4862,10.5873,36.9086,0.4522,-0.4044,1.1195,187.3906
20:47:47:382,1.0979,1.3234,8.4038,36.6508,0.5955,-0.1162,1.0487,186.125
20:47:47:382,1.0045,1.4204,6.3842,37.9119,0.6213,0.1893,1.0125,184.8594
20:47:47:394,0.9949,1.6191,5.0818,38.3778,0.5657,0.3688,1.0231,183.7031
20:47:47:417,1.1218,1.807,4.3133,36.6825,0.4972,0.3677,1.0383,182.5312
20:47:47:433,1.1864,1.9626,4.1217,37.4845,0.4216,0.2169,1.0175,181.3125
20:47:47:454,1.2583,1.9914,4.5719,38.2658,0.347,-0.006,0.9677,180.0625
20:47:47:473,1.2104,2.074,5.4002,36.8308,0.2543,-0.1865,0.8945,178.8906
20:47:47:493,1.1828,2.3098,6.3735,37.7546,0.142,-0.2403,0.8231,177.7188
20:47:47:518,1.2738,2.5361,7.5993,37.4497,0.0429,-0.2251,0.7339,176.1875
20:47:47:535,1.5252,2.7097,8.539,36.8436,0.0184,-0.1413,0.617,175.3281
20:47:47:560,1.7431,2.7635,8.9245,37.8499,0.0812,-0.0185,0.4527,174.5156
20:47:47:573,1.8305,2.7073,8.7868,37.5801,0.1481,0.0995,0.2404,173.8438
20:47:47:594,2.0388,2.548,8.8682,37.9182,0.1286,0.1392,0.0079,173.3438
20:47:47:614,2.0579,1.8597,9.9504,38.2967,-0.0194,0.0374,-0.2533,173.0469
20:47:47:638,1.7036,1.0936,11.6132,37.8971,-0.225,-0.0129,-0.4664,173.0156
20:47:47:655,1.3421,0.483,13.3023,37.3124,-0.3497,0.0622,-0.5663,173.2812
20:47:47:673,1.6868,0.0293,13.0294,37.6838,-0.2794,0.3586,-0.5282,173.8281
20:47:47:693,2.7451,0.0054,11.0254,37.5464,-0.126,0.6625,-0.4232,174.1406
20:47:47:716,2.8169,0.6231,9.4967,38.4613,-0.1601,0.6423,-0.4581,174.7656
20:47:47:733,1.9801,0.8721,10.1228,38.0163,-0.4394,0.2827,-0.6334,175.2031
20:47:47:753,1.0823,0.1682,12.0011,37.4677,-0.6959,-0.0821,-0.8451,175.5625
20:47:47:774,0.3844,-0.8086,12.6427,37.8398,-0.6852,-0.1503,-0.9404,176.0938
20:47:47:793,0.2898,-0.92,11.7377,38.8178,-0.5444,0.0223,-0.7971,176.9375
20:47:47:818,1.2942,-0.3214,10.6854,38.1233,-0.4237,-0.0041,-0.4935,178.5
20:47:47:839,1.8951,0.4854,10.9069,37.3829,-0.4,-0.4203,-0.3548,179.4062
20:47:47:855,1.7599,0.8027,11.1032,36.7383,-0.3894,-0.7567,-0.4347,179.9531
20:47:47:873,1.129,0.9379,10.1946,39.2353,-0.3278,-0.6686,-0.5809,180.4062
20:47:47:893,0.6382,1.0361,8.3978,38.3623,-0.2304,-0.3082,-0.6536,181
20:47:47:918,0.23,1.4838,6.5399,38.4564,-0.1489,0.075,-0.533,181.75
20:47:47:934,-0.0574,1.9016,5.5008,37.6983,-0.1033,-0.1232,-0.4291,181.75
20:47:47:954,-0.1244,2.2021,5.1429,38.1582,-0.017,-0.4201,-0.3407,182.5
20:47:47:973,0.0312,2.4942,5.2566,38.1582,0.0716,-0.6547,-0.3055,183.2188
20:47:47:995,0.1797,2.6917,5.6516,36.8248,0.1087,-0.7154,-0.3407,183.8125
20:47:48:017,-0.0226,3.0017,6.0383,36.8308,0.0677,-0.6281,-0.4091,184.7344
20:47:48:036,-0.2537,3.2471,6.7877,38.973,-0.0069,-0.4837,-0.4587,185.1562
20:47:48:053,-0.5003,3.3058,7.8591,38.5728,-0.0759,-0.308,-0.4352,185.5938
20:47:48:073,-0.3866,3.4255,9.1855,38.2642,-0.0953,-0.1117,-0.3649,186.7188
20:47:48:098,0.206,3.8397,10.4197,38.9586,-0.0722,0.1546,-0.3804,187.2656
20:47:48:118,0.7687,4.3736,10.9692,37.9913,-0.0794,0.4297,-0.5423,187.4688
20:47:48:139,0.7124,4.3437,11.199,38.3523,-0.1585,0.6417,-0.7386,187.875
20:47:48:153,0.0456,3.9235,11.5067,38.7858,-0.2597,0.7416,-0.7958,188.3438
20:47:48:173,-0.6523,3.0784,12.2273,37.3682,-0.3167,0.7775,-0.673,188.6719
20:47:48:192,-1.1048,2.2703,13.0114,38.6883,-0.2826,0.7501,-0.3862,189.4062
20:47:48:216,-0.8235,1.8501,13.1503,37.8731,-0.2599,0.4436,-0.1276,190.2344
20:47:48:236,-0.5817,2.2643,13.7608,39.3606,-0.3079,-0.1612,0.05,190.9219
20:47:48:257,-0.468,1.9459,16.1694,38.4138,-0.1893,-0.4939,0.1515,191.2812
20:47:48:275,-0.9432,1.1235,18.0644,38.0961,0.2328,-0.174,0.3286,191.375
20:47:48:293,-0.9468,0.2592,16.5847,39.3352,0.7249,0.3975,0.5512,191.3281
20:47:48:317,-0.3806,0.1969,12.2489,38.2851,0.8506,0.5565,0.6633,190.8594
20:47:48:334,0.0037,0.319,9.0119,40.6079,0.6221,0.1578,0.6844,190.1875
20:47:48:353,-0.0214,0.3202,8.642,40.465,0.3428,-0.3016,0.7051,189.7812
20:47:48:373,-0.2561,0.2077,9.802,39.7695,0.2921,-0.4406,0.7443,188.9688
20:47:48:395,-0.3207,0.0832,9.9528,40.0073,0.4216,-0.2267,0.8186,188.2344
20:47:48:416,-0.2704,0.2412,8.2338,39.8925,0.4775,0.0494,0.9137,187.4531
20:47:48:434,-0.134,0.6638,6.304,40.6451,0.3963,0.1986,0.9733,186.6094
20:47:48:453,-0.0681,1.2288,5.0124,40.3137,0.2506,0.1568,0.9864,185.6875
20:47:48:473,0.1354,1.649,4.7706,42.882,0.1132,0.0654,0.9456,184.5781
20:47:48:493,0.4167,1.8693,5.2111,40.3918,0.0352,0.0273,0.8737,183.4062
20:47:48:518,0.4335,1.9363,5.7677,42.4532,0.0216,0.0361,0.813,182.2812
20:47:48:536,0.4778,1.9734,6.34,41.3733,0.0423,0.0982,0.7781,181.2812
20:47:48:554,0.7878,2.1374,6.7817,42.3578,0.0855,0.1781,0.7161,180.3125
20:47:48:575,1.1697,2.5073,7.0091,42.8187,0.114,0.1616,0.5616,179.4062
20:47:48:593,1.2643,2.6797,7.391,42.8716,0.1417,0.0638,0.3515,178.5469
20:47:48:613,0.5472,2.1015,8.5402,41.7895,0.1433,0.0044,0.1544,177.7812
20:47:48:636,0.2862,1.6813,9.2094,42.3962,0.118,0.0332,0.0489,177.4688
20:47:48:654,0.5113,1.5125,9.7948,43.6648,0.0932,0.0713,0.022,176.9531
20:47:48:673,1.1326,1.4563,10.5454,44.4517,0.0581,-0.0249,-0.0096,176.8594
20:47:48:693,1.4977,1.1726,11.7161,44.7752,-0.0083,-0.215,-0.1359,176.8125
20:47:48:719,1.4738,0.6351,13.3083,42.1573,-0.1427,-0.2832,-0.309,176.7812
20:47:48:737,2.1106,-0.2891,13.3143,43.9347,-0.24,0.0196,-0.4185,176.8594
20:47:48:753,2.046,-0.3705,12.2082,46.1343,-0.3244,0.3674,-0.4984,177.1719
20:47:48:777,1.6102,-0.1443,11.7545,45.8104,-0.5007,0.4428,-0.5588,177.625
20:47:48:792,0.8429,-0.3166,12.5062,46.8853,-0.657,0.2761,-0.5998,178.0938
20:47:48:813,0.2228,-0.8876,12.7325,47.46,-0.6389,0.1887,-0.5979,178.6562
20:47:48:834,0.0564,-1.1139,11.4612,45.7776,-0.4602,0.2947,-0.4392,179.2656
20:47:48:853,0.9506,-0.7416,10.0797,46.6627,-0.3199,0.3432,-0.1396,179.9062
20:47:48:873,2.4961,-0.0629,9.7002,47.9261,-0.2448,0.0183,0.1238,180.5
20:47:48:897,3.1246,0.7895,10.0318,47.0947,-0.1968,-0.5234,0.1216,180.7969
20:47:48:922,2.8755,1.2899,10.5633,47.8609,-0.1867,-0.8244,-0.0959,180.6719
20:47:48:938,2.5667,1.4515,10.0438,48.6276,-0.1457,-0.6616,-0.3628,180.5938
20:47:48:954,2.1393,1.6263,8.035,47.8349,-0.0868,-0.1532,-0.6049,180.7969
20:47:48:973,1.4175,1.9232,6.091,48.3504,-0.1372,0.336,-0.7926,181.2969
20:47:48:993,0.8201,2.0405,5.2147,47.7275,-0.2429,0.5118,-0.8885,181.9688
20:47:49:020,0.449,2.0752,5.1955,48.9108,-0.2677,0.3597,-0.8944,182.8438
20:47:49:034,0.3808,2.1829,5.5702,50.0836,-0.1691,0.0643,-0.8259,183.8125
20:47:49:053,0.4167,2.3182,5.7091,49.5761,0.0037,-0.2081,-0.7617,184.75
20:47:49:074,0.1306,2.4499,5.6253,50.0699,0.114,-0.3165,-0.7652,185.6875
20:47:49:092,-0.1699,2.566,5.9353,50.3919,0.0642,-0.2595,-0.7985,186.125
20:47:49:113,-0.3435,2.6139,6.9337,50.3451,-0.0961,-0.154,-0.8233,187.0312
20:47:49:136,-0.5685,2.7504,8.2613,51.3639,-0.2453,-0.0752,-0.8334,187.9062
20:47:49:154,-0.8415,2.9263,9.8235,51.3505,-0.3041,-0.071,-0.8201,188.8594
20:47:49:173,-1.1156,2.8485,11.2708,50.4736,-0.2541,-0.088,-0.8011,189.8125
20:47:49:196,-1.1994,2.6785,12.1782,51.2435,-0.1324,0.0079,-0.7386,190.2969
20:47:49:219,-1.3215,2.633,12.2848,51.7451,0.004,0.243,-0.639,192.125
20:47:49:236,-1.446,2.4116,11.8885,51.9015,0.0924,0.4135,-0.5125,192.9688
20:47:49:254,-1.4209,2.1949,12.0741,53.4231,0.0756,0.4209,-0.3404,193.6406
20:47:49:273,-0.6403,1.9196,12.2991,53.0553,0.0498,0.3349,-0.1111,194.1875
20:47:49:293,-0.1136,1.9938,12.0465,53.1687,0.0708,0.0979,0.0591,194.5469
20:47:49:317,-0.2908,2.2907,13.4867,54.0891,-0.0903,-0.7612,0.1848,194.6406
20:47:49:335,-0.1747,1.7005,15.833,55.0468,0.1111,-0.7833,0.2202,194.6406
20:47:49:352,-0.4775,1.0924,16.6207,54.8173,0.4631,-0.2409,0.3254,194.5625
20:47:49:373,-0.3363,0.6207,14.1235,55.0708,0.6325,0.4218,0.4018,194.4531
20:47:49:438,0.0564,0.6243,10.5095,54.2629,0.4706,0.6212,0.3757,194.3125
20:47:49:439,0.0217,0.4519,8.5702,56.5694,0.159,0.3168,0.3525,193.9844
20:47:49:439,-0.2848,0.2221,8.8012,53.9746,-0.0602,-0.0654,0.3936,193.9844
20:47:49:456,-0.7577,0.0186,9.9528,55.0059,-0.0386,-0.2555,0.5129,193.2812
20:47:49:473,-0.9049,-0.0676,10.2509,54.8721,0.1225,-0.1793,0.6777,192.8281
20:47:49:492,-0.7229,0.2292,9.11,53.9551,0.212,0.006,0.8026,191.9375
20:47:49:512,-0.5027,0.7835,7.4928,56.4623,0.1558,0.1248,0.8553,191.375
20:47:49:541,-0.4644,1.2408,6.6776,54.9383,0.0924,0.1541,0.8641,190.6562
20:47:49:552,-0.535,1.3653,6.4621,56.1228,0.1161,0.1213,0.8865,189.75
20:47:49:579,-0.608,1.3821,6.5112,56.651,0.2027,0.1022,0.9555,188.75
20:47:49:592,-0.2573,1.5018,6.4477,56.7127,0.281,0.0827,1.0085,187.7969
20:47:49:614,0.1713,1.8322,6.4633,57.1533,0.3039,0.0465,0.9816,186.7656
20:47:49:636,0.5484,2.2128,6.8356,57.4713,0.3169,-0.0163,0.8676,185.6562
20:47:49:653,0.8632,2.4666,7.4581,56.6145,0.3348,-0.0507,0.6577,184.5469
20:47:49:675,0.8596,2.5504,8.0602,56.7067,0.335,0.0034,0.4157,183.4219
20:47:49:693,0.704,2.317,8.5821,57.7901,0.298,0.181,0.1933,182.0156
20:47:49:718,0.127,2.0692,9.146,58.8939,0.2354,0.4553,0.0668,181.4219
20:47:49:736,-0.0562,2.1015,9.2896,55.7608,0.1936,0.5714,-0.0363,181.0781
20:47:49:755,0.0731,2.1171,9.2681,59.0734,0.1313,0.4614,-0.1673,180.8906
20:47:49:772,0.1354,1.7747,9.6152,58.8135,0.0383,0.2409,-0.2632,180.7812
20:47:49:793,0.1857,1.242,10.4341,58.0244,-0.0754,0.0169,-0.2965,180.8281
20:47:49:814,0.4538,0.4807,11.7377,56.9461,-0.1776,-0.0353,-0.2416,181.0156
20:47:49:834,1.6581,-0.2939,12.201,58.3916,-0.3289,-0.0536,-0.2235,181.3438
20:47:49:852,2.2495,-0.1215,12.3075,58.3435,-0.5912,-0.1317,-0.3098,181.6406
20:47:49:876,1.9334,0.2951,13.5046,58.6757,-0.796,-0.1703,-0.4757,181.9062
20:47:49:892,0.3808,-0.2257,15.5265,58.9407,-0.669,0.2193,-0.4432,182.1875
20:47:49:913,-0.7876,-1.0864,15.3888,60.6966,-0.2418,0.7938,-0.043,182.625
20:47:49:937,-0.201,-1.0828,12.2261,59.016,0.192,0.8793,0.466,183.2031
20:47:49:954,1.7994,-0.3154,8.4349,59.6168,0.3795,0.177,0.6958,183.4531
20:47:49:973,3.5124,0.8769,6.8092,58.0063,0.2684,-0.7357,0.5121,183.3438
20:47:49:994,3.8117,1.6754,7.6209,58.0893,0.0234,-1.1581,0.0774,182.75
20:47:50:019,2.5655,1.3988,9.8176,58.2301,-0.1116,-0.8382,-0.3564,181.625
20:47:50:038,1.7036,1.4288,8.2182,59.0522,-0.1196,-0.1311,-0.7194,181.4219
20:47:50:053,0.9446,1.5533,6.4716,59.0522,-0.1414,0.3906,-0.9503,181.7188
20:47:50:071,0.1737,1.5233,5.836,59.6382,-0.1702,0.4609,-1.0547,182.4062
20:47:50:091,-0.3399,1.4431,5.7247,59.9506,-0.0876,0.2215,-1.023,183.3594
20:47:50:111,-0.4368,1.5784,5.7163,59.548,0.081,-0.1178,-0.8778,184.4062
20:47:50:136,-0.2249,1.9794,5.5858,57.8014,0.2251,-0.3359,-0.7167,185.5781
20:47:50:151,0.0145,2.5361,5.4062,60.1348,0.2543,-0.3668,-0.6307,186.6719
20:47:50:172,0.2467,3.0281,6.0503,58.5205,0.1321,-0.321,-0.6392,187.6094
20:47:50:192,0.3533,3.2005,7.2725,59.9169,-0.0349,-0.271,-0.7279,188.3594
20:47:50:212,-0.0095,3.2005,8.3978,60.059,-0.127,-0.1604,-0.8467,189.1406
20:47:50:234,-0.6427,3.1526,9.0502,59.4416,-0.1382,-0.0228,-0.9127,189.9375
20:47:50:253,-1.0701,3.1143,9.6116,61.456,-0.1206,0.087,-0.8664,190.8281
20:47:50:274,-1.3837,3.1131,10.0199,61.0781,-0.1004,0.1474,-0.75,192.375
20:47:50:291,-1.5094,3.2172,10.5418,60.2082,-0.1049,0.156,-0.6027,193.3594
20:47:50:312,-1.5908,3.1921,11.4157,59.6922,-0.1212,0.0524,-0.4627,194.1562
20:47:50:337,-1.6172,2.9598,12.76,60.8334,-0.1079,-0.1005,-0.3319,194.8281
20:47:50:352,-1.0198,2.5672,13.2688,58.6184,-0.0226,-0.1136,-0.1684,195.3438
20:47:50:373,-0.2872,2.4595,11.8658,61.4343,0.0868,0.0678,-0.0312,195.7188
20:47:50:393,-1.1084,2.9096,11.4336,60.3712,0.0032,0.0316,0.0077,195.9219
20:47:50:416,-1.7141,2.6618,13.6985,60.4781,-0.1579,-0.3839,0.1097,195.9531
20:47:50:434,-1.7572,1.722,15.1303,60.153,0.0016,-0.7322,0.2942,195.9375
20:47:50:452,-1.9332,1.4228,13.5477,60.455,0.4157,-0.6294,0.5131,195.9062
20:47:50:472,-1.4232,1.4587,11.4348,60.2119,0.5617,-0.3026,0.7403,195.7656
20:47:50:493,-0.4572,1.1259,11.5222,60.2488,0.3254,-0.2209,0.8628,195.375
20:47:50:513,-0.2333,0.8889,12.7097,58.1228,0.0823,-0.337,0.8713,194.7188
20:47:50:535,-0.347,0.7811,12.6822,59.2953,0.118,-0.349,0.8572,193.8438
20:47:50:552,-0.4775,0.7117,11.4085,56.9999,0.2927,-0.1911,0.8298,192.4062
20:47:50:572,-0.4895,0.6722,9.5278,57.7058,0.4234,0.1251,0.829,191.5156
20:47:50:592,-0.4895,0.7859,7.5012,56.9765,0.5044,0.4436,0.8572,190.5938
20:47:50:613,-0.3806,0.9272,5.666,56.9513,0.5542,0.6047,0.9009,189.6094
20:47:50:637,-0.1519,1.1558,4.6317,54.5432,0.5249,0.5464,0.9411,188.5625
20:47:50:655,0.3533,1.5161,4.5036,55.6145,0.4077,0.3988,0.9747,187.4844
20:47:50:672,0.9303,1.8585,5.0926,56.3533,0.2538,0.2955,0.9541,186.3125
20:47:50:696,1.1577,2.1566,5.6432,55.1275,0.1268,0.2811,0.8292,185.1406
20:47:50:721,1.2702,2.4307,6.3244,55.0218,-0.0471,0.1778,0.4146,184.0469
20:47:50:737,1.032,2.475,7.4114,53.1258,-0.0676,0.1038,0.2178,184.0469
20:47:50:753,0.5652,2.2751,8.6564,54.2984,0.0192,0.0569,0.0985,183.0469
20:47:50:779,0.3437,1.9818,9.5518,54.3295,0.1965,0.0353,0.0444,182.2812
20:47:50:791,0.5137,1.7903,9.6523,51.8644,0.3337,0.0795,-0.0075,181.7969
20:47:50:814,0.8668,1.8334,9.0789,54.8318,0.2852,0.1064,-0.1101,181.4062
20:47:50:841,1.4127,1.8382,8.8251,52.6178,0.0727,-0.0166,-0.2949,181.3438
20:47:50:854,1.7563,1.4288,9.7433,54.7095,-0.2354,-0.1551,-0.5002,181.375
20:47:50:872,1.8209,0.7105,11.8586,52.7603,-0.4645,-0.0622,-0.5924,181.4531
20:47:50:892,2.0627,0.0545,13.5704,50.4953,-0.4818,0.2273,-0.5897,182.0781
20:47:50:911,2.4374,-0.0173,12.8067,52.5465,-0.5119,0.3008,-0.6358,182.3594
20:47:50:937,1.6808,0.5668,11.673,51.2519,-0.6855,0.0889,-0.7231,183.0469
20:47:50:954,0.4203,0.5824,12.7421,53.2347,-0.7601,0.058,-0.7487,183.6875
20:47:50:972,-1.1479,-0.0796,13.8219,51.4421,-0.5385,0.3663,-0.5532,184.3594
20:47:50:991,-1.9236,-0.6518,12.45,51.9331,-0.2386,0.6034,-0.114,185.1406
20:47:51:011,-0.8953,-0.4591,9.6416,51.4392,-0.1273,0.3096,0.2993,185.9844
20:47:51:036,1.0751,0.2029,8.2098,49.9669,-0.1893,-0.3969,0.4407,186.5469
20:47:51:053,2.3392,1.1833,9.128,50.3999,-0.2381,-1.0196,0.2761,186.5938
20:47:51:072,2.4877,1.5604,11.1439,51.2527,-0.1278,-0.9996,-0.0347,186.2031
20:47:51:091,1.9274,1.3857,11.5845,51.2552,0.0775,-0.37,-0.3018,185.75
20:47:51:111,1.3684,1.2899,9.1436,52.0546,0.1105,0.3797,-0.4946,185.5625
20:47:51:138,1.099,1.5676,6.2298,51.7517,-0.0399,0.8769,-0.6693,185.8906
20:47:51:154,0.8632,1.7484,4.445,51.1014,-0.2011,1.0279,-0.819,186.3438
20:47:51:171,0.6011,1.825,3.6201,50.6048,-0.2991,0.9245,-0.8896,186.9062
20:47:51:192,0.2994,1.9519,3.4861,51.797,-0.3281,0.6327,-0.8872,187.6406
20:47:51:212,-0.0885,2.1793,3.686,51.3671,-0.3302,0.1727,-0.8459,188.5
20:47:51:238,-0.5494,2.5672,4.773,52.0045,-0.3199,-0.3274,-0.791,189.4219
20:47:51:254,-0.9731,2.8784,6.7051,51.8618,-0.2634,-0.7189,-0.7314,190.3125
20:47:51:272,-1.2592,3.0496,8.7761,52.6927,-0.2498,-0.7911,-0.6382,191.2344
20:47:51:292,-1.6471,3.295,11.0075,52.3989,-0.2437,-0.5748,-0.5087,192.1562
20:47:51:312,-1.689,3.4985,13.3981,52.4729,-0.074,-0.1183,-0.3963,192.9688
20:47:51:336,-1.2652,3.4518,14.1163,50.8231,0.2381,0.4028,-0.358,193.6875
20:47:51:354,-1.0031,3.2436,12.274,53.7099,0.3662,0.7006,-0.3263,194.2344
20:47:51:374,-1.209,3.046,10.6088,51.2081,0.2693,0.6516,-0.2065,194.6094
20:47:51:395,-1.215,2.7958,10.6052,50.4486,0.1816,0.3805,-0.0493,194.9688
20:47:51:420,-0.3183,2.0836,11.6575,50.5081,0.2304,0.0793,0.0545,195.125
20:47:51:440,-0.6763,2.2523,11.539,50.8164,0.2304,-0.1554,0.05,195.3281
20:47:51:509,-0.8786,2.2272,12.7552,49.559,0.0719,-0.4558,0.0069,195.3125
20:47:51:510,-1.4783,1.6287,15.2835,51.262,-0.0977,-0.8369,-0.0509,195.25
20:47:51:510,-1.853,0.5369,17.1582,50.5145,-0.0133,-0.8976,-0.0187,195.2656
20:47:51:510,-1.3191,-0.4256,15.08,48.5805,0.3979,-0.3684,0.1387,195.3594
20:47:51:531,-0.5494,-0.2029,10.5562,50.0847,0.7249,0.4063,0.2849,195.5156
20:47:51:552,0.0193,0.2221,7.8986,49.5124,0.5981,0.7339,0.3083,195.5312
20:47:51:571,-0.0897,0.2376,7.5419,51.3793,0.1883,0.6817,0.1853,195.3125
20:47:51:591,-0.693,-0.0317,7.9345,49.7312,-0.1726,0.5959,0.0679,194.8906
20:47:51:610,-0.9648,-0.2699,7.6304,48.3355,-0.2844,0.557,0.082,194.5156
20:47:51:634,-1.0306,-0.1538,6.662,49.4581,-0.224,0.4878,0.1957,194.2969
20:47:51:651,-1.276,0.3035,5.7414,49.061,-0.1675,0.3552,0.3312,194.1562
20:47:51:671,-1.4508,0.6399,5.7163,48.6466,-0.2354,0.1458,0.4487,193.9219
20:47:51:691,-1.6076,0.75,7.0223,48.7044,-0.3744,-0.0835,0.5486,193.5625
20:47:51:711,-1.5537,0.8158,8.4289,49.3268,-0.3995,-0.1799,0.6665,192.7969
20:47:51:733,-1.2712,1.0553,8.9305,47.7351,-0.2293,-0.1469,0.785,192.1562
20:47:51:750,-0.6583,1.4036,8.405,47.2134,0.0216,-0.0361,0.8732,191.3906
20:47:51:771,-0.0789,1.8525,7.7023,49.0065,0.2115,0.0028,0.8799,190.5469
20:47:51:791,0.3389,2.22,7.4832,49.3334,0.3017,-0.0654,0.7712,189.5469
20:47:51:811,0.3138,2.3098,7.725,47.1203,0.3262,-0.1506,0.548,188.5469
20:47:51:835,0.0348,2.1338,8.1272,47.5831,0.3028,-0.145,0.2758,187.7344
20:47:51:855,-0.4201,1.825,8.308,48.3986,0.2437,0.0129,0.0346,187.1406
20:47:51:871,-0.863,1.6275,8.7222,46.2935,0.1502,0.1573,-0.1346,186.8594
20:47:51:891,-0.7481,1.3557,9.7074,47.9529,0.0618,0.1174,-0.2179,186.8281
20:47:51:911,-0.462,0.981,11.0362,47.2777,0.0064,-0.0587,-0.2941,186.875
20:47:51:936,-0.3231,0.5082,12.6391,46.2747,-0.0583,-0.219,-0.3713,187.0625
20:47:51:952,0.4885,-0.1478,13.6339,46.1304,-0.1225,-0.1668,-0.3998,187.3594
20:47:51:975,1.2666,-0.2723,13.167,46.8547,-0.143,0.0478,-0.4134,188.2031
20:47:51:993,0.7543,0.1706,12.7025,46.742,-0.3728,0.1544,-0.627,188.6562
20:47:52:014,-0.0023,0.0305,13.0916,45.4899,-0.4029,0.2087,-0.6701,189.4375
20:47:52:035,-1.1527,-0.3597,13.2999,46.532,-0.2884,0.4108,-0.4896,190.1094
20:47:52:052,-1.3825,-0.7608,12.517,47.1153,-0.0778,0.5064,-0.1223,190.8281
20:47:52:072,-0.1627,-0.7368,11.0613,47.1153,0.135,0.2074,0.2274,191.3281
20:47:52:093,2.1381,-0.2975,10.0318,46.699,0.2666,-0.3927,0.2953,191.4062
20:47:52:117,3.7243,0.4914,9.9301,46.3511,0.2919,-0.7825,0.0082,191.4062
20:47:52:142,3.9553,1.0157,10.2245,46.3511,0.2623,-0.6984,-0.4664,191.125
20:47:52:156,3.5076,0.7572,10.1001,45.8012,0.1808,-0.1282,-0.926,190.8438
20:47:52:171,2.6218,0.5058,8.8491,44.3621,0.0682,0.5408,-1.2592,190.9375
20:47:52:191,1.8975,0.5812,6.9409,45.7083,-0.0487,0.8739,-1.4619,191.5781
20:47:52:211,1.1134,0.7524,5.5654,46.1054,-0.098,0.7847,-1.5434,192.6562
20:47:52:235,0.3233,0.841,4.9681,45.3751,-0.049,0.4095,-1.5042,194.0312
20:47:52:254,-0.1328,0.9104,4.749,44.8222,0.0309,-0.0222,-1.3873,198.0312
20:47:52:271,-0.4057,1.1726,4.9681,45.2725,0.078,-0.3823,-1.2581,198.0312
20:47:52:291,-0.444,1.4347,5.3571,45.4615,0.0575,-0.6132,-1.1735,199.5938
20:47:52:312,-0.699,1.8693,6.1329,43.8323,-0.021,-0.7325,-1.1436,201.1406
20:47:52:334,-1.0821,2.141,7.3934,45.6639,-0.0866,-0.6856,-1.1095,202.5938
20:47:52:351,-1.4316,2.2727,8.7437,44.0583,-0.0796,-0.4544,-1.0427,203.9844
20:47:52:371,-1.6339,2.481,9.4476,43.4971,-0.0631,-0.1136,-0.9769,204.6094
20:47:52:391,-1.7513,2.8389,9.5338,43.3704,-0.1033,0.1879,-0.9322,205.9375
20:47:52:411,-1.7692,3.0616,9.7397,44.3484,-0.1555,0.3506,-0.8952,207.1719
20:47:52:436,-1.7919,2.8844,10.0402,44.6194,-0.2053,0.328,-0.8291,208.2969
20:47:52:453,-1.8003,2.663,10.8626,44.1952,-0.2439,0.1546,-0.7101,209.2812
20:47:52:470,-1.4508,2.3685,12.5457,43.5449,-0.1886,-0.0081,-0.5956,210.2656
20:47:52:491,-0.8522,1.904,13.9356,44.5221,-0.049,0.0697,-0.582,211.1719
20:47:52:511,-0.5099,1.412,13.5645,42.8816,-0.0218,0.3054,-0.6754,211.9062
20:47:52:535,-1.4292,1.0265,12.1148,43.6998,-0.2208,0.3538,-0.648,212.5781
20:47:52:554,-2.4839,0.7632,12.6343,43.9781,-0.3454,0.1741,-0.3308,213.2344
20:47:52:570,-1.8015,0.3382,14.5581,43.6714,-0.0786,0.0372,0.0508,214.3125
20:47:52:591,-0.8044,0.2903,14.6048,42.875,0.3728,0.0007,0.3326,214.8438
20:47:52:611,0.5364,0.3992,12.6738,43.8502,0.6336,-0.0675,0.4513,214.9688
20:47:52:639,2.1729,0.6674,10.6519,42.7164,0.6139,-0.3213,0.3089,214.7656
20:47:52:655,3.3496,0.9547,9.9468,42.9276,0.4485,-0.6278,-0.0954,214.3438
20:47:52:676,3.2634,1.1115,10.4209,42.2676,0.298,-0.7932,-0.6155,213.9531
20:47:52:690,2.1322,0.422,11.0853,42.0344,0.2437,-0.6039,-1.0081,213.8906
20:47:52:711,0.7615,-0.4782,11.0266,39.7669,0.3036,-0.0536,-1.1071,214.375
20:47:52:739,-0.1328,-0.7679,9.3148,40.8363,0.4163,0.4255,-0.9948,215.4375
20:47:52:755,-0.7852,-0.3047,6.8439,40.2936,0.4823,0.4763,-0.7918,216.75
20:47:52:776,-1.0892,0.4196,5.0339,41.8106,0.5039,0.1288,-0.5854,217.9219
20:47:52:790,-1.0617,1.072,4.2486,41.05,0.4607,-0.4065,-0.4352,218.9375
20:47:52:811,-0.2477,1.9495,5.8013,40.9966,0.3976,-0.8251,-0.3628,219.7344
20:47:52:843,0.1497,2.2811,6.6584,40.1869,0.3547,-1.0182,-0.3956,220.3438
20:47:52:853,0.1067,2.4295,7.7178,40.1646,0.277,-1.0457,-0.5292,220.9062
20:47:52:871,0.0779,2.1159,9.0215,39.2076,0.1766,-0.9349,-0.6856,221.4531
20:47:52:890,-0.2525,1.6382,9.5602,40.2377,0.1425,-0.6821,-0.8105,222.1406
20:47:52:911,-0.6439,1.1762,9.7457,39.036,0.1502,-0.4076,-0.8387,222.9375
20:47:52:935,-0.5697,1.0433,9.7014,38.4941,0.1649,-0.1828,-0.7018,223.9062
20:47:52:954,0.1115,1.4371,9.1723,40.0887,0.1936,-0.0076,-0.4904,224.9375
20:47:52:970,0.7339,1.8238,8.782,38.0672,0.2011,-0.0222,-0.383,225.8438
20:47:52:990,1.099,1.8597,9.1184,39.3781,0.1393,-0.2262,-0.4331,226.5469
20:47:53:010,1.1829,1.406,10.1946,39.7603,0.0099,-0.3735,-0.537,227.0312
20:47:53:031,0.8584,0.9391,11.2948,39.1007,-0.1105,-0.3266,-0.611,227.4688
20:47:53:054,0.8118,0.7979,11.5809,37.9498,-0.1406,-0.0885,-0.5873,228.0781
20:47:53:070,2.3776,0.6518,10.8219,38.127,-0.0988,0.1163,-0.5031,228.7812
20:47:53:090,3.6764,0.7644,10.1288,37.9888,-0.1084,-0.0582,-0.6147,229.5156
20:47:53:111,3.1425,1.1402,11.9675,36.9836,-0.3236,-0.6614,-1.0059,230.0938
20:47:53:138,1.9382,-0.2783,15.4128,37.3402,-0.5095,-1.2214,-1.5205,231.0625
20:47:53:154,0.8118,-2.2954,16.8912,38.6187,-0.4197,-0.9607,-1.851,232.2812
20:47:53:170,0.7998,-2.8545,13.8254,37.6314,-0.0719,0.0609,-1.7444,234.0625
20:47:53:199,1.6737,-2.129,9.8762,36.0591,0.159,0.7392,-1.4392,236.2656
20:47:53:210,2.2267,-1.242,8.3894,37.272,0.0754,0.5075,-1.2683,238.25
20:47:53:231,1.8293,-0.6554,9.0167,36.3266,-0.1252,-0.1013,-1.2797,239.75
20:47:53:254,1.2391,-0.3813,9.638,37.1259,-0.2466,-0.4265,-1.3364,241.1562
20:47:53:271,0.789,0.155,8.6492,36.2609,-0.2352,-0.276,-1.3237,242.625
20:47:53:291,0.6454,0.8709,7.2402,36.1706,-0.2061,-0.0393,-1.2632,244.1094
20:47:53:310,0.6657,1.4874,6.3938,37.162,-0.2069,0.0313,-1.2198,245.6406
20:47:53:330,0.6932,1.8789,6.3615,36.0363,-0.2088,-0.0523,-1.2086,246.375
20:47:53:353,0.6501,2.1015,6.6357,36.9476,-0.1587,-0.158,-1.2137,247.7656
20:47:53:370,0.8237,2.299,6.6608,37.0131,-0.0429,-0.2076,-1.2123,249.0781
20:47:53:390,1.1326,2.6618,6.6141,35.7887,0.0906,-0.2462,-1.2238,250.4688
20:47:53:410,1.299,2.8593,6.6309,35.3543,0.1923,-0.3128,-1.3074,251.8594
20:47:53:431,0.9913,2.8641,6.802,36.8723,0.2708,-0.4385,-1.4827,253.9219
20:47:53:451,0.2575,2.5552,7.1971,36.9196,0.3004,-0.603,-1.6736,255.4531
20:47:53:472,-0.5565,2.2368,8.0015,35.1511,0.2541,-0.6638,-1.7799,257.1875
20:47:53:490,-1.2904,2.25,8.6528,36.3441,0.1856,-0.5162,-1.753,259.0781
20:47:53:574,-1.8686,2.4966,9.1939,35.3574,0.0804,0.0244,-1.4456,261.1719
20:47:53:575,-1.9655,2.7037,9.4823,36.3643,0.0562,0.19,-1.2483,261.1719
20:47:53:575,-1.9464,2.882,9.5231,35.1027,-0.0226,0.1573,-1.0683,263.2344
20:47:53:575,-1.9775,2.7863,10.2796,35.3986,-0.1486,-0.0254,-0.8611,265.125
20:47:53:590,-1.7489,2.4307,12.0202,36.0695,-0.2216,-0.1791,-0.6161,266.7031
20:47:53:610,-1.0438,2.0632,13.665,35.462,-0.2178,-0.2204,-0.4062,268.125
20:47:53:629,-0.1842,1.9016,14.3282,36.0305,-0.2549,-0.3471,-0.2885,270.2656
20:47:53:652,-0.1663,2.3613,15.2679,36.9824,-0.286,-0.5793,-0.224,270.9688
20:47:53:681,-0.2321,2.1518,17.4215,36.5032,-0.037,-0.5152,-0.2003,271.4531
20:47:53:690,-0.4476,1.2707,18.1661,37.389,0.5236,0.006,-0.1231,271.9219
20:47:53:710,-0.2716,0.5632,14.4862,35.8531,0.8296,0.4758,-0.0461,272.1875
20:47:53:731,0.0229,0.4687,10.3048,36.5474,0.6562,0.414,-0.0145,272.4062
20:47:53:756,-0.134,0.428,8.7892,36.7858,0.3185,-0.0249,0.0298,272.5
20:47:53:771,-0.5494,0.4292,9.8606,37.6748,0.212,-0.3607,0.1256,272.5156
20:47:53:790,-0.5386,0.3334,10.634,38.3751,0.3925,-0.4076,0.2258,272.5156
20:47:53:810,-0.2465,0.5022,9.4189,37.6122,0.555,-0.2787,0.2982,272.5
20:47:53:830,-0.1567,0.756,7.2988,37.7258,0.4951,-0.1711,0.3398,272.4062
20:47:53:854,-0.3255,0.9403,6.0311,37.9825,0.3047,-0.0981,0.3888,272.2031
20:47:53:871,-0.2597,1.0193,5.7211,37.2003,0.1276,-0.0369,0.4463,271.9062
20:47:53:890,-0.0909,1.1019,5.9485,39.7505,0.0437,0.0489,0.49,271.5469
20:47:53:909,-0.0478,1.0648,6.1472,40.6007,0.0258,0.2031,0.5509,271.1406
20:47:53:930,0.0169,1.0181,6.1041,40.6992,-0.0173,0.3496,0.6593,270.6406
20:47:53:951,0.1258,1.3713,6.2262,40.1785,-0.0621,0.3333,0.7936,270.0781
20:47:53:971,0.7579,1.8142,6.8978,41.9283,-0.0101,0.1584,0.8154,268.6562
20:47:53:990,1.275,2.2021,7.5981,41.7903,0.0967,-0.0049,0.6897,268.2031
20:47:54:010,1.5085,2.2679,8.059,40.1838,0.1393,0.0146,0.4918,267.2188
20:47:54:032,1.3181,2.0584,8.2948,39.7989,0.0234,0.2489,0.3038,266.375
20:47:54:051,0.8848,1.7855,8.575,42.0496,-0.1606,0.4769,0.2023,265.7031
20:47:54:070,1.032,1.7927,9.0957,42.3133,-0.2983,0.4044,0.0953,265.25
20:47:54:090,1.4917,1.4419,10.3131,43.12,-0.3651,0.1299,-0.015,264.9375
20:47:54:110,1.7862,0.7105,12.3267,42.8163,-0.3151,-0.1325,-0.0214,264.7031
20:47:54:131,1.615,-0.2807,14.3905,43.5725,-0.061,-0.1668,0.1387,264.6094
20:47:54:151,2.4278,-0.9403,14.6431,43.5725,0.2453,0.0183,0.3427,264.6406
20:47:54:170,4.0679,-0.9822,12.2405,44.7649,0.2205,0.1701,0.3192,264.6094
20:47:54:195,4.33,0.1299,9.7098,44.6788,-0.1763,0.0215,0.0497,264.3281
20:47:54:210,1.7934,0.3933,12.5194,45.8546,-0.6381,-0.2427,-0.2861,263.9062
20:47:54:234,1.2367,-0.744,14.2025,45.2208,-0.6999,-0.2318,-0.3982,263.6719
20:47:54:250,2.1549,-0.9248,13.3945,45.8932,-0.3745,0.01,-0.1857,263.8281
20:47:54:270,4.3588,-0.0245,11.8239,45.1289,0.0317,-0.0851,0.1374,264.0312
20:47:54:291,5.6349,1.3294,10.7429,46.9737,0.3065,-0.5572,0.1315,264.625
20:47:54:311,5.4804,1.7999,10.4963,45.5698,0.3452,-0.9082,-0.3412,264.625
20:47:54:329,4.2857,1.1438,9.7266,46.5445,0.2597,-0.758,-1.0387,264.4219
20:47:54:353,2.7307,0.404,8.2003,47.4731,0.1172,-0.1924,-1.6395,264.5781
20:47:54:371,0.9566,0.1742,6.9637,47.628,-0.0634,0.4146,-1.9705,265.4219
20:47:54:390,-0.7217,0.2352,6.826,47.6063,-0.1268,0.6638,-2.0044,267.0312
20:47:54:409,-1.507,0.0006,6.4537,48.0062,0.0935,0.4947,-1.7663,269.1406
20:47:54:429,-1.3478,0.2089,5.1141,47.4811,0.4698,0.149,-1.3229,271.2812
20:47:54:452,-0.693,1.0253,3.7554,50.3712,0.722,-0.2073,-0.8528,273.4062
20:47:54:469,0.0612,2.0405,3.346,48.1427,0.7438,-0.5959,-0.5506,275.1719
20:47:54:494,0.5544,2.7324,4.3181,49.4278,0.5704,-0.9413,-0.5101,276.4375
20:47:54:511,0.5639,2.894,6.1891,49.0748,0.2804,-1.0057,-0.6512,277.2344
20:47:54:529,0.2766,2.9167,8.0135,49.2281,-0.032,-0.6563,-0.8099,277.9219
20:47:54:552,-0.1268,3.0927,9.3387,50.8965,-0.2551,-0.1016,-0.8893,278.7188
20:47:54:572,-0.2022,3.5871,9.8355,50.5806,-0.3071,0.3549,-0.8949,280.1406
20:47:54:589,-0.1747,3.8182,9.893,51.966,-0.2043,0.487,-0.8973,281.1719
20:47:54:612,-0.4608,3.6003,9.9145,51.4911,-0.0692,0.3829,-0.9359,282.1406
20:47:54:635,-0.9456,3.2412,10.6244,51.1769,-0.0405,0.2542,-0.9407,283.0625
20:47:54:653,-1.361,2.8102,11.7257,50.6706,-0.1308,0.2489,-0.8355,284.0938
20:47:54:671,-1.7752,2.5923,12.8534,52.3705,-0.232,0.3147,-0.6398,285.1406
20:47:54:689,-1.4232,2.3433,13.1431,52.3986,-0.2162,0.2814,-0.3543,286.0156
20:47:54:709,-1.525,2.5911,13.6962,52.7184,-0.1649,-0.0177,-0.0943,286.7031
20:47:54:732,-0.96,2.4666,15.6534,53.7995,-0.1933,-0.5011,0.1826,287.0625
20:47:54:752,-0.3423,1.9938,16.7356,53.2489,-0.077,-0.619,0.4154,287.1562
20:47:54:771,0.1174,1.5233,15.2955,53.0341,0.2091,-0.1927,0.5352,287
20:47:54:792,0.5292,1.3318,11.1308,53.3305,0.5268,0.5493,0.6266,286.5781
20:47:54:810,1.1026,1.3378,7.6268,54.2985,0.6179,0.8625,0.6687,286.3125
20:47:54:830,1.4199,1.3042,6.7338,54.0332,0.4405,0.3991,0.6673,285.6719
20:47:54:855,1.4139,1.4467,8.5007,54.3922,0.1476,-0.4582,0.6391,284.8594
20:47:54:873,1.6904,1.1857,10.7597,56.3549,-0.0205,-1.0678,0.5504,283.6562
20:47:54:889,1.3517,0.7871,11.2241,55.2228,-0.0096,-0.9554,0.3621,283.0156
20:47:54:910,0.4406,0.7907,9.444,54.7176,0.0439,0.4388,0.1709,282.5156
20:47:54:930,-0.1017,0.902,7.2534,54.6414,-0.0181,0.6907,0.1741,282.5156
20:47:54:954,-0.6344,1.1367,5.7414,55.4536,-0.1132,0.5986,0.2375,282.2188
20:47:54:972,-1.0007,1.2612,5.3009,54.0408,-0.1819,0.3323,0.377,282.0156
20:47:54:990,-0.8714,1.4156,5.7402,54.5442,-0.187,0.1,0.5555,281.4844
20:47:55:009,-0.2549,1.7915,6.5231,55.0728,-0.1193,0.0098,0.6631,281.125
20:47:55:029,0.4706,2.1961,6.984,55.9048,-0.0099,-0.0534,0.6146,280.6719
20:47:55:055,0.959,2.5265,7.2366,55.7468,0.0591,-0.0915,0.4431,280.0156
20:47:55:070,1.0631,2.6163,7.7478,55.1326,0.0831,-0.104,0.2159,279.25
20:47:55:088,0.7232,2.4774,8.3355,55.7206,0.1012,-0.1125,0.0231,278.5938
20:47:55:109,0.3688,2.1087,9.1113,55.8256,0.1404,-0.0579,-0.073,277.8594
20:47:55:131,0.1976,1.8501,9.6069,55.9531,0.212,0.0319,-0.0959,277.8438
20:47:55:153,0.5041,1.7137,9.4117,55.9389,0.2336,0.0319,-0.1218,277.8906
20:47:55:170,1.1493,1.6909,9.2393,56.2121,0.1465,-0.0994,-0.2043,278
20:47:55:190,1.6832,1.4946,9.9049,55.8829,0.012,-0.268,-0.3428,278.1094
20:47:55:209,1.8269,1.1139,11.0817,57.2621,-0.1374,-0.2667,-0.4728,278.2969
20:47:55:233,1.5408,0.7284,12.1818,55.6175,-0.2511,-0.0315,-0.5029,278.4375
20:47:55:253,1.305,0.3681,12.438,57.5514,-0.2668,0.2108,-0.3958,278.8594
20:47:55:270,1.8652,0.3717,11.3558,56.8262,-0.2951,0.0529,-0.3146,279.4375
20:47:55:290,2.1705,0.8649,11.114,55.8359,-0.3696,-0.3255,-0.3636,279.9844
20:47:55:310,1.9825,1.1762,12.2405,55.6158,-0.4258,-0.4978,-0.5194,280.3906
20:47:55:330,1.1409,0.8817,13.7656,57.4187,-0.3334,-0.1024,-0.5913,280.75
20:47:55:352,0.3604,0.331,13.2257,56.8423,-0.134,0.3546,-0.4408,281.1875
20:47:55:371,0.7794,0.3322,11.1918,56.5598,0.082,0.3134,-0.2179,281.7969
20:47:55:389,2.1381,0.5321,9.4943,54.9067,0.2213,-0.161,-0.1862,282.4844
20:47:55:410,2.9821,1.0122,8.9113,57.1269,0.2115,-0.5594,-0.3857,283.0625
20:47:55:430,2.6457,1.2983,9.1567,55.5059,0.1158,-0.509,-0.6842,283.25
20:47:55:453,1.9669,1.0732,9.0358,55.5058,-0.0043,-0.0401,-0.9199,283.5938
20:47:55:472,1.2391,0.908,7.883,55.9798,-0.1183,0.4191,-1.044,284.2812
20:47:55:489,0.3856,0.9619,6.5279,54.6679,-0.171,0.5219,-1.0376,285.2031
20:47:55:509,-0.4955,1.0696,5.763,55.1791,-0.13,0.2558,-0.9149,286.3281
20:47:55:530,-1.0665,1.1319,5.563,54.4178,-0.0288,-0.1341,-0.6909,287.4688
20:47:55:552,-1.1036,1.3605,5.8144,54.7471,0.0791,-0.452,-0.4443,288.5
20:47:55:571,-0.6643,1.6885,6.4369,55.8936,0.1707,-0.5543,-0.2981,289.4219
20:47:55:640,-0.2321,2.135,6.6357,52.9977,0.1561,-0.4499,-0.2773,290.1094
20:47:55:640,0.1641,2.7563,6.9948,55.1994,0.028,-0.2246,-0.3383,290.5625
20:47:55:641,-0.0873,2.8725,7.4317,55.059,-0.1369,0.0252,-0.436,290.9219
20:47:55:661,-0.4979,2.8713,8.1225,55.6428,-0.2706,0.1951,-0.4935,291.3125
20:47:55:670,-0.8271,2.9131,9.1986,52.7281,-0.3507,0.2223,-0.4611,291.7656
20:47:55:691,-0.8678,2.8808,10.0534,55.291,-0.3161,0.1504,-0.3796,292.25
20:47:55:714,-1.2473,2.7551,10.8051,55.6833,-0.2431,0.042,-0.3095,292.5312
20:47:55:729,-1.4149,2.5947,11.9173,53.8441,-0.2429,-0.0038,-0.1886,293.2344
20:47:55:748,-1.2425,2.5385,13.1946,53.9517,-0.2533,-0.0006,-0.0152,293.5938
20:47:55:771,-0.4225,2.481,13.7297,53.5456,-0.1886,0.0324,0.1512,293.875
20:47:55:789,0.1605,2.4511,13.106,52.5062,-0.0698,0.0737,0.2279,293.9844
20:47:55:809,-0.4668,2.6749,13.5741,52.8697,-0.0719,-0.0912,0.1706,293.8906
20:47:55:828,-0.5529,2.0548,14.9675,50.8747,-0.126,-0.2957,0.1669,293.6562
20:47:55:852,-1.1348,1.3318,15.7767,53.0351,-0.0216,-0.3282,0.2146,293.4219
20:47:55:872,-0.7122,0.6016,14.1307,53.1651,0.3167,-0.1183,0.4007,293.25
20:47:55:889,-0.0274,0.3645,11.0984,50.427,0.644,0.1014,0.6109,293.0781
20:47:55:909,0.4969,0.2496,9.073,51.2614,0.677,0.0548,0.7171,292.7812
20:47:55:929,0.4814,0.167,8.9496,51.1566,0.4352,-0.162,0.7238,292.2031
20:47:55:954,0.2299,0.1155,9.6835,51.8101,0.1284,-0.2584,0.7166,291.4219
20:47:55:970,-0.0466,-0.0138,10.1515,52.198,-0.0658,-0.1753,0.7187,290.6562
20:47:55:990,-0.456,-0.0784,9.4931,50.2388,-0.0967,0.0526,0.7701,289.8594
20:47:56:010,-0.7457,0.0461,8.2458,52.7819,-0.0346,0.2308,0.8972,289.0781
20:47:56:030,-0.8702,0.252,7.1731,49.7268,0.0194,0.2702,1.0631,287.8125
20:47:56:055,-0.8486,0.5297,6.8763,51.0013,0.0189,0.2015,1.2303,286.7656
20:47:56:070,-0.4799,0.8206,7.0917,51.1269,0.0208,0.0931,1.3962,285.5156
20:47:56:089,0.1953,1.3761,7.1265,50.8313,0.0573,0.0851,1.5211,284.1562
20:47:56:109,0.8417,1.8872,7.4078,51.215,0.0245,0.1999,1.5153,282.5469
20:47:56:130,1.2463,2.1686,7.7178,51.7877,-0.086,0.4883,1.3744,280.7969
20:47:56:155,1.1709,2.3625,7.7645,51.16,-0.1252,0.736,1.1704,279.125
20:47:56:172,0.8943,2.3158,7.5993,51.7173,-0.041,0.74,0.9768,277.5
20:47:56:189,0.7854,2.2344,7.6771,51.1409,0.1145,0.5171,0.8668,276.0781
20:47:56:210,1.1026,2.1937,7.9369,51.1408,0.265,0.2052,0.8127,274.9219
20:47:56:229,1.7658,2.1506,8.2242,51.8206,0.3691,-0.0393,0.7187,273.875
20:47:56:255,2.2459,2.074,8.9293,50.5206,0.3553,-0.2052,0.5169,272.9375
20:47:56:270,2.684,1.7244,10.3622,51.0443,0.2184,-0.3261,0.2197,272.125
20:47:56:289,2.7726,1.0984,12.0142,50.1945,0.0269,-0.3013,-0.1391,271.5938
20:47:56:310,2.7894,0.404,13.3394,51.9782,-0.2961,0.2726,-0.7367,271.4531
20:47:56:330,3.0707,-0.4196,13.3071,48.3005,-0.3803,0.4289,-0.9644,271.4531
20:47:56:356,2.4889,-0.5154,12.5481,51.4456,-0.5185,0.3554,-1.1226,271.5938
20:47:56:370,1.5228,-0.5429,12.523,51.3469,-0.6735,0.2596,-1.219,272.9062
20:47:56:388,-0.2022,-0.9343,13.4076,51.6521,-0.6677,0.4428,-1.1085,272.9062
20:47:56:409,-1.8662,-1.6801,13.4376,49.9484,-0.4317,0.7496,-0.6352,275.1875
20:47:56:428,-2.2552,-1.9243,11.4085,50.1707,-0.1238,0.6708,0.0673,276.4688
20:47:56:449,-0.8642,-1.4539,8.9532,49.8906,0.0951,-0.0273,0.6905,277.6719
20:47:56:471,1.3241,-0.4172,8.1416,50.396,0.2083,-0.9104,0.94,278.2969
20:47:56:489,2.793,0.9044,8.7868,51.4238,0.2485,-1.3836,0.7773,278.1562
20:47:56:508,3.3149,1.7639,9.7385,51.4329,0.2586,-1.1668,0.3688,277.375
20:47:56:529,3.3736,1.9124,9.4704,49.4392,0.1878,-0.4587,-0.1471,276.3906
20:47:56:554,2.8313,1.8394,7.6747,49.2811,-0.0261,0.2468,-0.6296,275.6719
20:47:56:573,1.5527,1.6095,5.9749,48.2955,-0.2674,0.5488,-0.913,275.5781
20:47:56:588,0.2707,1.3198,5.399,50.6505,-0.3393,0.4481,-0.9335,276.2812
20:47:56:608,-0.6523,1.0959,5.6612,50.9264,-0.1683,0.1022,-0.7687,276.7031
20:47:56:629,-0.8379,1.1283,5.9306,48.5451,0.0815,-0.2209,-0.5793,277.7344
20:47:56:656,-0.3674,1.4048,5.8073,48.6131,0.1675,-0.3229,-0.4757,278.6875
20:47:56:674,0.0205,1.9627,5.6456,48.3327,0.0426,-0.2931,-0.4914,279.4219
20:47:56:689,0.2407,2.5277,6.0778,48.9827,-0.1665,-0.2544,-0.5966,280.0469
20:47:56:710,0.2742,2.7695,7.233,47.2526,-0.3617,-0.1258,-0.7151,280.625
20:47:56:731,0.0073,2.9586,8.6516,47.9548,-0.4919,0.1251,-0.7689,281.25
20:47:56:754,-0.4704,3.064,9.9732,46.7613,-0.4983,0.3389,-0.7492,281.5781
20:47:56:773,-1.0964,2.955,11.1487,49.169,-0.3537,0.4345,-0.6134,282.4062
20:47:56:789,-1.5609,2.7467,11.6982,46.9364,-0.1489,0.3823,-0.3657,283.2656
20:47:56:809,-1.6878,2.5827,11.9209,46.758,0.0149,0.1727,-0.0768,284.0781
20:47:56:830,-1.2102,2.5552,12.3841,47.1806,0.1119,-0.056,0.1374,284.7031
20:47:56:854,-0.7026,2.5373,13.2401,46.2104,0.1819,-0.1213,0.2532,285.0781
20:47:56:871,0.3126,2.2715,13.3909,47.922,0.188,-0.1434,0.2141,285.1094
20:47:56:890,0.4406,2.2488,13.3167,46.2901,0.0269,-0.2222,0.091,284.8906
20:47:56:910,0.0097,2.0548,14.5257,45.0732,-0.0615,-0.1796,0.0378,284.6094
20:47:56:929,-0.4895,1.2743,15.8677,45.8059,0.131,0.0692,0.0681,284.4688
20:47:56:956,-1.2185,0.507,15.3134,44.9992,0.5044,0.418,0.2668,284.4219
20:47:56:973,-1.2054,0.1921,12.5218,45.3511,0.7207,0.5227,0.4854,284.3906
20:47:56:990,-0.7421,0.0784,9.8463,44.9828,0.6882,0.2745,0.613,284.2031
20:47:57:009,-0.4584,0.0976,8.6061,45.3677,0.4818,-0.1676,0.6604,283.7812
20:47:57:031,-0.4021,0.2903,10.1839,45.5808,0.2863,-0.443,0.6564,283.1406
20:47:57:054,-0.4895,0.2807,9.9576,45.4092,0.2506,-0.369,0.6276,282.4219
20:47:57:070,-0.3195,0.3094,8.4492,44.8383,0.3124,-0.1245,0.6324,281.7188
20:47:57:089,-0.4093,0.5381,6.7613,44.3078,0.3356,0.0742,0.6692,281.0781
20:47:57:108,-0.4249,0.7572,5.6839,44.8277,0.2892,0.0905,0.7131,280.3906
20:47:57:128,-0.3902,0.9116,5.5092,45.8349,0.1968,-0.0358,0.7597,279.6719
20:47:57:150,-0.3315,0.8625,5.921,46.1294,0.1068,-0.1466,0.8157,278.5
20:47:57:172,-0.2537,0.7799,6.1592,44.4112,0.0874,-0.1226,0.9004,277.6406
20:47:57:190,0.0827,0.9774,6.1365,42.1975,0.1095,-0.0185,1.0114,276.7344
20:47:57:208,0.7387,1.4419,6.1891,44.9778,0.1555,0.0137,1.0921,275.7656
20:47:57:230,1.3073,2.0034,6.5064,42.8206,0.1808,-0.0803,1.0407,275.2031
20:47:57:254,1.8532,2.4379,7.4868,42.8712,0.0898,-0.1429,0.8295,273.9844
20:47:57:270,2.0627,2.5133,8.6683,42.6889,-0.1316,0.0414,0.4591,272.75
20:47:57:289,1.5839,2.3254,9.7768,43.8618,-0.4168,0.4939,0.0125,271.7344
20:47:57:309,0.8213,1.7627,10.4281,43.7394,-0.5968,0.9176,-0.3468,270.9844
20:47:57:329,0.1378,1.2324,10.683,42.8676,-0.5856,1.0516,-0.5279,270.6875
20:47:57:356,0.1102,0.5956,11.0458,45.2576,-0.4192,0.785,-0.5034,270.7812
20:47:57:374,0.3904,0.1478,11.8478,45.5449,-0.1667,0.2066,-0.3561,271.1719
20:47:57:393,1.3217,-0.0365,12.9492,43.2352,0.0751,-0.3453,-0.1551,271.875
20:47:57:413,3.3951,-0.3705,12.5589,43.6715,0.2171,-0.4052,-0.0067,272.25
20:47:57:427,4.1876,0.1371,11.7078,43.7799,0.1223,-0.2275,-0.1223,272.4531
20:47:57:449,3.5328,0.3777,11.3857,42.6696,-0.2296,0.0233,-0.4845,272.5156
20:47:57:471,1.5719,-0.2197,12.3626,44.762,-0.5984,0.1384,-0.9077,272.6719
20:47:57:488,-0.0131,-1.0959,12.5721,44.2108,-0.7404,0.3911,-1.1002,273.2188
20:47:57:508,-0.7792,-1.4096,11.3869,44.3685,-0.5867,0.6292,-0.9511,274.2188
20:47:57:529,-0.2657,-1.3689,9.9397,44.1293,-0.3201,0.5056,-0.5809,275.4062
20:47:57:548,0.8477,-0.8457,9.541,44.8947,-0.1252,-0.0662,-0.2107,276.3594
20:47:57:569,1.5839,0.0652,9.8463,43.9662,-0.0333,-0.6803,-0.0278,276.9531
20:47:57:590,1.6054,0.5944,10.1372,44.0188,-0.0096,-0.9876,-0.1018,277.1875
20:47:57:609,1.5372,0.7739,9.8187,44.4927,-0.0101,-0.806,-0.2768,277.2812
20:47:57:629,1.3337,0.9679,8.4277,44.7203,-0.0338,-0.2395,-0.4619,277.3438
20:47:57:656,0.8632,1.3497,6.6931,44.7675,-0.0842,0.2912,-0.6272,277.625
20:47:57:715,0.3497,1.4994,5.7773,44.1374,-0.1409,0.4726,-0.7522,278.0938
20:47:57:716,-0.0047,1.5293,5.4673,45.3359,-0.1491,0.3653,-0.791,279.0469
20:47:57:718,-0.1435,1.649,5.4481,46.5649,-0.0756,0.1328,-0.7548,279.875
20:47:57:731,-0.1615,1.8609,5.5702,44.9056,0.0652,-0.2686,-0.6728,280.75
20:47:57:758,-0.0945,2.147,5.9593,46.2593,0.0242,-0.3239,-0.7015,281.5469
20:47:57:772,-0.1507,2.493,6.662,46.8719,-0.0903,-0.2901,-0.7793,283.1406
20:47:57:790,-0.4428,2.7204,7.9525,45.6678,-0.1915,-0.1844,-0.8459,283.1406
20:47:57:809,-0.8714,2.7755,9.5087,46.0316,-0.2072,-0.0004,-0.8307,283.9375
20:47:57:828,-1.3071,2.7168,10.9524,46.8862,-0.0847,0.1911,-0.7189,284.8438
20:47:57:849,-1.6315,2.6474,11.4791,45.5965,0.1065,0.3264,-0.5404,286.75
20:47:57:870,-1.6746,2.6917,11.1128,45.7704,0.2234,0.3554,-0.3511,286.75
20:47:57:887,-1.5322,2.663,10.8243,46.7983,0.2642,0.2489,-0.1857,287.5156
20:47:57:909,-1.2197,2.5504,10.7465,46.8178,0.2173,0.0649,-0.0717,288.125
20:47:57:927,-1.2305,2.5133,11.4432,46.6621,0.1334,-0.0944,0.0282,288.5156
20:47:57:948,-0.6511,2.2464,12.529,47.3348,0.0943,-0.1732,0.0463,288.7188
20:47:57:970,-0.1531,2.0165,12.8714,45.8267,-0.0546,-0.3572,-0.0421,288.8125
20:47:57:990,-0.7553,2.1506,14.4096,46.8212,-0.1923,-0.4494,-0.073,288.7656
20:47:58:008,-1.5346,1.5652,16.6506,47.9448,-0.0306,-0.1857,-0.0019,288.7812
20:47:58:029,-2.2217,0.507,17.1127,48.2773,0.4426,0.4122,0.2804,288.875
20:47:58:048,-1.9847,0.1083,13.4735,46.5849,0.7494,0.6731,0.5928,288.9531
20:47:58:073,-1.5226,0.2161,9.6416,48.9637,0.7004,0.2268,0.8002,288.8438
20:47:58:089,-1.1216,0.1347,8.6396,49.1346,0.4932,-0.455,0.9416,288.3125
20:47:58:108,-0.8427,0.167,10.0761,49.759,0.4107,-0.7959,1.041,287.9375
20:47:58:128,-0.4668,0.1598,11.1104,49.9057,0.5252,-0.7402,1.0745,287.0469
20:47:58:149,-0.1783,0.2053,10.4101,49.1205,0.6309,-0.3756,1.1004,286.0938
20:47:58:171,0.0241,0.3956,8.5498,49.7729,0.5808,0.0018,1.1211,285
20:47:58:188,0.1007,0.8074,6.7494,48.3225,0.432,0.1597,1.115,283.8594
20:47:58:208,0.1641,1.0469,6.0527,50.3277,0.3284,0.1315,1.1054,282.7344
20:47:58:229,0.2276,1.1414,5.994,50.623,0.3286,0.0359,1.1012,281.4531
20:47:58:248,0.4071,1.2061,5.9246,50.7399,0.3638,-0.0185,1.0841,279.5312
20:47:58:270,0.6873,1.2659,5.7737,50.7399,0.3342,0.0071,1.0444,278.3281
20:47:58:289,0.7962,1.2899,5.8001,52.1554,0.2639,-0.0009,1.0047,277.0781
20:47:58:308,0.953,1.4898,6.4537,51.293,0.2557,-0.1343,0.9472,275.8594
20:47:58:328,1.2559,1.6741,7.2713,51.5259,0.2935,-0.2387,0.8258,274.6875
20:47:58:349,1.3792,1.8405,8.1201,50.9565,0.2932,-0.1948,0.6692,273.6406
20:47:58:369,1.4893,1.922,8.9257,52.1351,0.2557,0.0244,0.4961,272.6406
20:47:58:389,1.7539,1.9674,9.3148,51.6881,0.2168,0.2779,0.2836,271.8281
20:47:58:411,1.7778,1.5736,9.3902,52.4517,0.1273,0.4079,0.0657,271.2031
20:47:58:428,2.1716,1.339,9.8882,51.8009,0.008,0.3666,-0.0818,270.7188
20:47:58:448,2.2519,1.1067,11.0769,52.09,-0.0929,0.1395,-0.2323,270.5625
20:47:58:469,2.5356,0.5896,12.2788,51.3289,-0.1433,-0.0526,-0.3388,270.4219
20:47:58:489,3.1605,0.2867,11.6491,53.4856,-0.1151,0.0241,-0.3697,270.5469
20:47:58:508,3.0527,0.9619,11.0685,52.9979,-0.1955,0.0875,-0.4403,270.8906
20:47:58:529,2.6517,1.5173,11.5521,53.5678,-0.3705,0.0593,-0.5636,271.3125
20:47:58:548,1.9861,1.0529,12.0932,53.454,-0.4543,0.0204,-0.7732,271.7344
20:47:58:571,1.3672,0.3957,10.9308,53.1114,-0.3819,0.1932,-0.8941,272.2656
20:47:58:587,1.117,0.1323,9.8008,53.5393,-0.3697,0.279,-0.835,273.0312
20:47:58:609,1.5121,0.0569,9.7709,54.536,-0.4477,0.0753,-0.6645,273.9375
20:47:58:626,1.8568,0.4328,11.0398,53.6767,-0.5361,-0.3993,-0.5117,274.8906
20:47:58:647,2.0519,0.6937,11.9747,53.7067,-0.5087,-0.7181,-0.4533,275.7188
20:47:58:670,1.7742,0.7991,10.7728,52.9559,-0.338,-0.5224,-0.5047,276.3906
20:47:58:691,1.2583,1.0181,8.0375,52.4556,-0.2218,0.0305,-0.5979,276.9531
20:47:58:709,0.6849,1.2839,5.8408,55.7257,-0.2663,0.463,-0.684,277.5625
20:47:58:727,-0.0609,1.5209,4.9262,54.9398,-0.3827,0.5208,-0.7319,278.2188
20:47:58:747,-0.4452,1.8046,5.1931,53.5176,-0.4527,0.2897,-0.684,279.25
20:47:58:768,-0.2668,2.0704,6.0407,56.054,-0.4075,-0.031,-0.5673,280.0312
20:47:58:793,-0.0238,2.4499,6.5315,54.4852,-0.2767,-0.2331,-0.4877,280.7656
20:47:58:809,-0.0993,2.791,6.7877,54.6108,-0.2053,-0.1964,-0.4944,280.7656
20:47:58:828,-0.2285,2.9563,7.3324,55.6432,-0.2471,-0.0126,-0.5564,281.9375
20:47:58:848,-0.5721,2.9946,8.0135,54.8265,-0.3356,0.206,-0.6278,282.5156
20:47:58:870,-0.8403,3.0712,8.7234,55.5775,-0.3792,0.3602,-0.6302,283.1094
20:47:58:889,-1.0402,3.1789,9.559,57.0232,-0.3284,0.3645,-0.5519,283.7969
20:47:58:910,-1.039,3.2088,10.1707,56.659,-0.2083,0.308,-0.4302,284.4844
20:47:58:929,-1.0007,2.9754,10.5514,56.2225,-0.0679,0.2492,-0.3071,285.0469
20:47:58:946,-1.0737,2.7647,10.9308,57.4634,0.0242,0.2489,-0.1678,285.5
20:47:58:969,-0.8247,2.5588,11.5964,55.7326,0.0567,0.2702,0.0228,285.6719
20:47:58:989,-0.4105,2.3206,12.3111,57.2167,0.11,0.1959,0.1893,285.9375
20:47:59:008,0.3437,2.2344,12.7253,58.5515,0.171,0.0835,0.3161,286.0156
20:47:59:028,1.2044,2.1602,12.3123,56.5942,0.2173,0.0148,0.3201,285.875
20:47:59:048,0.4466,2.4511,12.6774,58.3325,0.0972,-0.1301,0.1208,285.3906
20:47:59:073,-0.4883,1.8932,14.5892,59.0008,-0.1587,-0.3008,-0.0752,285.0469
20:47:59:088,-1.6076,0.9738,16.3178,58.5085,-0.2216,-0.2587,-0.1394,284.9219
20:47:59:108,-1.5944,0.0437,14.7472,57.512,0.0834,0.1815,0.0199,285.0156
20:47:59:130,-1.1898,0.0389,10.604,58.2178,0.5859,0.6103,0.4804,285.1875
20:47:59:156,-0.8498,0.1239,7.7537,58.119,0.3745,-0.0683,0.5808,285.1875
20:47:59:175,-0.7229,0.2376,7.9393,58.5458,0.0389,-0.7442,0.634,285.1562
20:47:59:190,-0.4548,0.2699,10.4197,58.4381,-0.0828,-0.8792,0.6388,284.8125
20:47:59:210,0.0109,0.1083,12.0801,60.2085,0.0285,-0.4467,0.5858,283.6406
20:47:59:227,-0.183,0.1371,11.1966,59.2994,0.1803,0.1421,0.5959,282.9844
20:47:59:248,-0.529,0.4603,8.6983,59.0746,0.2312,0.3706,0.6593,282.3438
20:47:59:272,-0.5446,0.75,7.0139,57.8506,0.2197,0.2753,0.7334,281.0469
20:47:59:289,-0.6631,0.9032,6.4585,58.735,0.2701,0.0707,0.8426,281.0469
20:47:59:307,-0.5254,0.8661,6.3076,59.7318,0.4032,-0.1271,0.9768,279.8594
20:47:59:330,-0.1292,1.0217,6.0826,58.8509,0.5105,-0.2592,1.0798,279
20:47:59:356,0.4514,1.2899,5.8851,57.3572,0.5241,-0.2797,1.1057,277.9688
20:47:59:375,1.1326,1.7424,5.8432,58.9063,0.4386,-0.3072,1.0063,276.8281
20:47:59:391,1.5983,2.1949,6.4824,57.944,0.3382,-0.3508,0.7965,275.625
20:47:59:407,1.8951,2.3984,7.476,59.5155,0.2661,-0.2979,0.528,274.5
20:47:59:431,1.7778,2.4858,8.4361,60.9765,0.2085,-0.1136,0.2692,273.9844
20:47:59:446,1.3373,2.2823,9.1819,58.5403,0.176,0.1964,0.1062,273.125
20:47:59:468,1.0607,2.2045,9.3004,57.9698,0.1606,0.4319,0.0164,272.5938
20:47:59:488,1.1709,2.2536,8.9077,60.2495,0.1206,0.3741,-0.0917,272.2969
20:47:59:507,1.3301,2.1638,9.1316,60.2476,0.0352,0.1043,-0.2142,272.1562
20:47:59:529,1.6162,1.7448,10.1324,58.9663,-0.0687,-0.1578,-0.3441,272.0781
20:47:59:547,1.6569,1.2707,11.8287,58.6219,-0.1318,-0.1037,-0.4142,272.125
20:47:59:574,1.9622,0.7608,12.7085,58.3072,-0.1374,0.1815,-0.4203,272.3594
20:47:59:591,2.2914,0.6063,11.7963,58.4762,-0.2224,0.222,-0.4459,272.7656
20:47:59:608,2.0316,1.0325,11.5749,59.8848,-0.2937,0.0396,-0.4946,273.4531
20:47:59:629,1.5839,1.1067,12.353,59.658,-0.1867,-0.0686,-0.5732,273.9062
20:47:59:648,1.196,0.5573,12.1986,58.1994,-0.0447,0.0303,-0.6054,274.4219
20:47:59:670,0.9674,0.1335,10.7465,58.5667,-0.0826,0.0625,-0.5596,275
20:47:59:690,1.1422,-0.0952,9.8678,58.5906,-0.2261,-0.19,-0.4765,275.6875
20:47:59:713,1.8089,-0.1431,10.3898,58.7916,-0.3374,-0.5503,-0.4752,276.3594
20:47:59:726,2.0232,0.2161,11.5282,57.3123,-0.3372,-0.6009,-0.5908,276.9062
20:47:59:811,1.7467,0.3011,11.7102,59.312,-0.2844,-0.2006,-0.7367,277.4688
20:47:59:811,0.9099,0.4794,10.0115,58.7744,-0.2708,0.3456,-0.7988,278.125
20:47:59:812,0.3461,0.8039,7.5275,59.3134,-0.3009,0.5773,-0.7876,278.9375
20:47:59:812,-0.1064,1.0564,5.842,58.5755,-0.2927,0.4415,-0.7245,279.7812
20:47:59:827,-0.7732,1.4922,4.7143,58.4159,-0.2554,0.1213,-0.6102,280.625
20:47:59:849,-0.6128,1.7149,5.3404,57.4278,-0.2392,-0.203,-0.4821,281.4375
20:47:59:871,-0.3219,1.9471,6.1053,57.8933,-0.253,-0.3224,-0.4046,282.1094
20:47:59:888,-0.304,2.2859,6.7362,57.3846,-0.282,-0.26,-0.4131,282.7344
20:47:59:906,-0.5661,2.3194,7.4305,58.5859,-0.3121,-0.1642,-0.4951,283.25
20:47:59:927,-1.094,2.2476,8.3032,57.8812,-0.3438,-0.0438,-0.5567,283.6875
20:47:59:946,-1.4532,2.3613,9.2429,59.4896,-0.3558,0.1224,-0.5018,284.2031
20:47:59:972,-1.1611,2.6175,9.6499,56.9609,-0.2847,0.2777,-0.3463,284.8281
20:47:59:990,-0.8594,2.9886,9.6547,57.243,-0.1526,0.336,-0.2097,285.4219
20:48:00:009,-0.5661,3.0353,9.5255,57.0681,-0.016,0.2865,-0.1633,285.8594
20:48:00:028,-0.6978,3.1023,9.7589,56.9568,0.0309,0.1722,-0.1753,286.1406
20:48:00:047,-0.9863,2.9826,10.695,56.784,-0.0133,0.0399,-0.1971,286.3125
20:48:00:072,-1.361,2.7551,11.9496,54.7633,-0.0804,-0.064,-0.2086,286.4688
20:48:00:090,-1.1683,2.5804,12.5026,54.7685,-0.1119,-0.084,-0.1774,286.6875
20:48:00:108,-1.5525,2.7144,13.9092,54.8273,-0.1835,-0.2531,-0.1814,286.9062
20:48:00:127,-2.2493,2.56,16.6997,54.8427,-0.2711,-0.6254,-0.1974,287.1406
20:48:00:149,-2.5449,1.7999,18.7467,55.5048,-0.1084,-0.7088,-0.1074,287.3281
20:48:00:173,-2.0386,0.9906,16.9989,53.3059,0.3473,-0.2132,0.0876,287.5625
20:48:00:191,-1.2772,1.005,12.4332,52.3403,0.7412,0.6172,0.3017,287.7969
20:48:00:207,-1.0964,0.9391,9.1986,53.2005,0.7012,0.9943,0.376,287.7656
20:48:00:232,-1.3263,0.495,9.5494,52.8841,0.3547,0.5999,0.3949,287.4219
20:48:00:246,-1.2832,-0.1873,12.1806,53.0233,0.033,-0.0661,0.5099,286.9375
20:48:00:267,-0.7182,-0.6303,13.5238,52.5987,0.081,-0.4736,0.7062,286.4844
20:48:00:288,0.1067,-0.6518,11.9185,52.0911,0.4232,-0.4417,0.894,285.9062
20:48:00:308,0.3317,-0.2747,9.2776,52.0708,0.6693,-0.129,1.029,285.1406
20:48:00:335,0.5663,0.1083,7.1432,51.82,0.7087,0.1544,1.1382,284.2344
20:48:00:346,0.8129,0.4699,5.7199,52.932,0.6738,0.2375,1.2391,283.1094
20:48:00:368,1.2523,0.7835,5.2087,52.9319,0.6346,0.0683,1.344,281.8125
20:48:00:388,2.1645,1.0648,5.1512,50.8559,0.6442,-0.2062,1.4391,280.3906
20:48:00:407,2.9701,1.3773,4.6401,51.0817,0.7036,-0.4014,1.4069,278.9375
20:48:00:428,2.9043,1.4671,4.3145,50.773,0.6597,-0.4052,1.1925,278.1562
20:48:00:447,2.6433,1.4323,4.6808,51.2902,0.4844,-0.3476,0.9462,276.5625
20:48:00:473,2.0352,1.2384,5.1943,51.0584,0.3262,-0.2896,0.7222,275.2031
20:48:00:489,1.2882,0.9631,6.4226,50.4761,0.2115,-0.4065,0.5509,273.5781
20:48:00:507,0.9674,0.902,7.8016,51.0483,0.1617,-0.5463,0.4937,272.7969
20:48:00:527,1.0739,1.0205,8.6121,50.6014,0.1646,-0.5279,0.336,272.2656
20:48:00:548,1.0883,1.1307,8.8359,49.411,0.0423,-0.5357,0.1656,271.7969
20:48:00:570,1.3911,1.0074,9.6416,49.5975,-0.1958,-0.5631,-0.0208,271.7969
20:48:00:587,1.5204,0.8541,11.1774,49.8315,-0.4269,-0.4933,-0.2097,271.3594
20:48:00:605,1.2571,0.6171,13.0497,50.5548,-0.5188,-0.1562,-0.3191,271.0625
20:48:00:626,1.8472,0.0245,13.6483,50.8311,-0.4623,0.2247,-0.358,271.1094
20:48:00:646,2.6888,-0.2173,12.3374,48.9974,-0.5079,0.332,-0.3998,271.4375
20:48:00:668,2.8588,0.5944,11.3319,49.7932,-0.6565,0.1584,-0.4392,271.8281
20:48:00:689,3.2,1.1247,11.8885,50.3928,-0.7223,-0.0084,-0.6107,272.2188
20:48:00:706,3.1784,0.8625,12.7995,52.0786,-0.6456,0.2212,-0.7929,272.6406
20:48:00:726,2.3871,0.0437,11.6276,50.1237,-0.6104,0.5062,-0.7788,273.125
20:48:00:747,1.6366,-0.3705,10.1719,49.8748,-0.6349,0.4444,-0.5037,274.7344
20:48:00:772,1.9729,-0.477,9.5051,49.7368,-0.6003,-0.014,-0.1332,275.5781
20:48:00:790,2.8911,0.234,9.7062,50.6466,-0.4562,-0.5988,0.1256,275.8438
20:48:00:807,3.9146,1.1019,9.9744,49.3281,-0.2903,-0.8065,0.0958,276.2031
20:48:00:830,4.1169,1.8142,9.3722,51.3957,-0.2666,-0.5048,-0.1575,276.2031
20:48:00:847,3.7267,2.2523,8.2697,49.7012,-0.3902,0.0918,-0.5189,276.125
20:48:00:872,2.8935,2.4487,7.1552,49.684,-0.4977,0.5229,-0.88,276.2188
20:48:00:891,1.6605,2.3721,6.3735,50.3648,-0.4836,0.6108,-1.0605,276.625
20:48:00:906,0.6597,2.2907,5.9593,52.1935,-0.3702,0.3895,-1.0549,276.9688
20:48:00:926,0.2276,2.3733,5.9844,51.3507,-0.229,0.092,-0.9886,277.8906
20:48:00:946,0.1988,2.6079,6.3076,50.9897,-0.1324,-0.0704,-0.9615,279.0625
20:48:00:965,0.1881,2.8976,6.7889,50.6327,-0.114,-0.0558,-0.9982,280.2344
20:48:00:988,0.1821,3.0784,7.2737,51.5215,-0.1577,0.0734,-1.0627,281.3594
20:48:01:009,0.1019,3.2029,7.8172,51.3489,-0.2333,0.2039,-1.1218,282.4062
20:48:01:027,-0.0466,3.3405,8.5773,51.0406,-0.2908,0.2324,-1.1522,284.7812
20:48:01:048,-0.2608,3.2292,9.6236,50.3299,-0.29,0.2694,-1.149,285.4062
20:48:01:073,-0.7912,2.9395,10.6064,50.0145,-0.2344,0.4031,-1.0621,286.625
20:48:01:089,-1.2964,2.6474,11.023,50.4753,-0.1534,0.5134,-0.8946,287.9375
20:48:01:107,-1.756,2.2476,11.1463,49.7446,-0.0996,0.5104,-0.6318,289.1875
20:48:01:126,-1.8327,1.9722,11.2684,51.5545,-0.0727,0.348,-0.3135,290.2344
20:48:01:147,-1.6387,1.9279,12.0274,52.4658,-0.028,0.0912,-0.0291,291.0938
20:48:01:174,-1.0378,1.898,13.0976,51.1421,0.0471,-0.0592,0.1653,291.6094
20:48:01:193,-0.2046,1.6466,13.4986,52.8001,0.0208,-0.1772,0.2457,291.7812
20:48:01:206,-0.195,1.7196,14.4312,53.3132,-0.0458,-0.226,0.3009,291.6875
20:48:01:232,-0.3363,0.9894,16.2148,50.5549,0.0333,-0.0174,0.3424,291.4375
20:48:01:247,-0.6224,0.4555,13.944,51.7529,0.3079,0.4641,0.4244,291.1406
20:48:01:267,-0.5075,0.2963,11.017,52.0983,0.5627,0.821,0.5949,290.7969
20:48:01:289,-0.1304,0.1419,8.9808,52.9515,0.674,0.6454,0.7893,290.375
20:48:01:308,0.0672,0.2879,9.1795,54.2546,0.6075,-0.0377,0.9217,289.7656
20:48:01:335,0.5017,0.4471,10.9895,52.5391,0.4573,-0.7168,1.0032,289.375
20:48:01:345,0.7387,0.4316,12.1794,52.5733,0.4208,-0.9277,0.9501,288
20:48:01:365,0.5089,0.2903,11.6754,52.3947,0.4951,-0.5855,0.8114,286.9531
20:48:01:390,0.2048,0.3274,9.3866,52.2605,0.5747,0.0865,0.7267,285.9531
20:48:01:407,-0.1747,0.4747,7.3024,52.9201,0.5625,0.5634,0.694,285.0469
20:48:01:426,-0.3746,0.4519,6.1652,53.2199,0.5183,0.6276,0.728,284.2031
20:48:01:446,-0.3973,0.3466,5.6875,54.2746,0.5127,0.4431,0.8167,283.375
20:48:01:467,0.0205,0.3969,5.4433,52.6384,0.5364,0.2137,0.964,282.5469
20:48:01:489,0.5496,0.7428,5.3536,53.8441,0.5465,0.0284,1.0956,281.625
20:48:01:506,0.9255,0.9631,5.4086,53.0079,0.5092,-0.0901,1.1169,280.5781
20:48:01:529,1.1864,1.0948,5.9557,52.0331,0.4128,-0.1804,1.054,279.4531
20:48:01:548,1.6425,1.3007,7.3539,54.6904,0.2999,-0.2164,0.9677,278.1875
20:48:01:568,1.9466,1.6263,8.2158,53.471,0.3105,-0.1285,0.8253,276.9688
20:48:01:590,1.8508,1.9076,8.6635,53.5064,0.3888,-0.0185,0.5936,275.8438
20:48:01:607,1.7994,2.1602,8.4109,53.7105,0.4357,0.1408,0.3307,274.4688
20:48:01:628,1.8772,2.5935,8.229,52.062,0.2999,0.3389,0.0434,273.7969
20:48:01:646,1.9693,2.5109,8.5678,54.3738,-0.0559,0.5568,-0.3093,273.4062
20:48:01:666,1.4402,1.6466,10.0019,54.23,-0.4647,0.6553,-0.6747,273.2969
20:48:01:688,0.4933,0.7727,11.5222,53.1587,-0.6836,0.6271,-0.8837,273.5625
20:48:01:708,0.2348,0.1083,12.4763,55.0774,-0.6469,0.5365,-0.8286,274.2188
20:48:01:726,1.0009,-0.0018,11.7185,54.7173,-0.4059,0.4452,-0.5729,275.0469
20:48:01:747,1.6976,0.592,10.2844,53.6401,-0.1867,0.1877,-0.3415,275.8906
20:48:01:773,2.0232,1.0313,10.3826,53.8296,-0.2155,-0.2433,-0.2962,276.4688
20:48:01:793,1.6449,0.7919,11.8969,54.4633,-0.4155,-0.5418,-0.4195,276.7969
20:48:01:806,0.6645,0.0509,12.4284,53.7984,-0.5699,-0.2925,-0.5836,277.1562
20:48:01:878,0.0707,-0.3992,11.4205,53.3715,-0.6032,0.2412,-0.5663,277.6875
20:48:01:878,0.9231,-0.41,10.2054,54.8713,-0.5353,0.4407,-0.3423,278.375
20:48:01:879,1.8317,-0.0976,9.638,53.859,-0.4341,0.1299,-0.1623,278.9375
20:48:01:893,2.1106,0.3969,10.4616,54.3498,-0.383,-0.4718,-0.1348,279.125
20:48:01:908,1.9382,0.6051,11.0793,53.8391,-0.3441,-0.8164,-0.2264,279.25
20:48:01:927,1.706,0.7979,10.5598,53.6691,-0.1931,-0.1748,-0.4565,279.25
20:48:01:948,1.5109,1.1127,8.5187,53.3386,-0.2104,0.247,-0.5412,279.5625
20:48:01:974,1.0859,1.5449,6.5555,52.779,-0.2836,0.315,-0.5857,280.3281
20:48:01:991,0.7507,1.7891,5.9222,55.5001,-0.2626,0.1019,-0.5695,280.3281
20:48:02:008,0.5795,1.8956,6.0993,54.1922,-0.1047,-0.1719,-0.5215,280.8438
20:48:02:025,0.3916,2.0536,6.1736,54.7971,0.0527,-0.3253,-0.4778,281.4219
20:48:02:047,0.309,2.3481,5.8456,55.9251,0.0328,-0.3037,-0.4731,282.6875
20:48:02:073,0.2252,2.6402,5.7701,54.3561,-0.1422,-0.1708,-0.5002,283.2656
20:48:02:089,0.1043,2.8485,6.2586,55.967,-0.3278,-0.0563,-0.5452,283.8438
20:48:02:107,-0.2836,2.9479,7.3671,56.1922,-0.4003,-0.0478,-0.5612,284.4062
20:48:02:125,-0.7253,3.0795,8.5773,55.2716,-0.3561,-0.1341,-0.5407,284.9531
20:48:02:145,-1.0797,3.0532,9.7457,52.8655,-0.2871,-0.1817,-0.4747,285.5781
20:48:02:168,-1.2126,2.9335,10.9847,55.2805,-0.2035,-0.0891,-0.3822,286.7812
20:48:02:190,-1.185,2.8689,11.5916,54.6071,-0.1257,0.0345,-0.3077,287.5625
20:48:02:206,-0.9947,2.8377,11.8921,56.1905,-0.074,0.063,-0.2595,287.7656
20:48:02:225,-0.5805,2.6498,12.2668,54.9053,-0.0477,0.0489,-0.2512,287.9531
20:48:02:245,-0.3279,2.3816,12.772,55.1427,-0.02,0.1096,-0.2459,288.25
20:48:02:266,0.1258,2.0464,12.9444,55.2707,0.0163,0.2625,-0.2483,288.5312
20:48:02:287,0.6142,1.8968,11.8981,54.5769,-0.041,0.2399,-0.325,288.8125
20:48:02:308,0.2084,2.0333,11.442,55.5138,-0.192,-0.0209,-0.4182,288.9375
20:48:02:326,-0.2453,1.5999,12.5278,55.2591,-0.2663,-0.1239,-0.4323,289.2031
20:48:02:346,-0.8977,0.8936,13.6243,54.8299,-0.1574,-0.003,-0.3087,289.5625
20:48:02:366,-1.2604,0.1514,13.6135,53.9363,0.1167,0.214,-0.0232,290.0312
20:48:02:392,-1.1778,-0.1754,11.6934,53.8958,0.3015,0.1355,0.2721,290.7031
20:48:02:406,-0.5925,-0.3932,10.136,53.8958,0.297,-0.2198,0.4777,290.9062
20:48:02:426,0.0815,-0.5979,9.9971,55.3755,0.1585,-0.4944,0.5656,290.75
20:48:02:447,0.2383,-0.5369,11.0577,52.1538,0.069,-0.4459,0.5992,290.3438
20:48:02:466,0.1414,-0.4483,11.8143,54.4329,0.1183,-0.1213,0.613,289.7656
20:48:02:490,-0.2106,-0.3094,11.2445,53.3091,0.2599,0.2023,0.6825,289.125
20:48:02:509,-0.2405,-0.0796,9.6488,54.7217,0.3726,0.3632,0.785,288.4531
20:48:02:525,-0.1938,0.3693,8.0806,55.6873,0.4416,0.3754,0.8743,287.7656
20:48:02:546,-0.055,0.8039,6.9792,54.4865,0.5153,0.2574,0.9214,286.9219
20:48:02:566,0.1833,1.1642,6.1807,53.0403,0.5571,0.0966,0.9073,285.9531
20:48:02:590,0.5556,1.4623,5.6923,52.6982,0.5161,-0.0337,0.8074,284.9688
20:48:02:605,0.9207,1.8765,5.763,53.972,0.3603,-0.0177,0.589,283.9062
20:48:02:626,1.4354,2.5085,7.2079,53.4528,0.0743,0.2114,0.2356,282.9375
20:48:02:647,0.4586,2.1626,8.4086,55.6869,-0.2738,0.6606,-0.2006,282.1875
20:48:02:666,-0.693,1.4347,9.1867,53.2253,-0.3968,0.9839,-0.4749,281.6875
20:48:02:686,-1.5322,1.0086,9.4057,52.9056,-0.2064,0.9144,-0.4749,281.625
20:48:02:709,-1.5908,0.89,9.1915,53.1489,0.1286,0.5919,-0.2336,281.9531
20:48:02:725,-1.1503,0.9583,8.7521,53.7642,0.4826,0.1291,0.0386,282.4062
20:48:02:745,-0.2884,1.0253,8.624,53.4649,0.6823,-0.2946,0.1973,282.7656
20:48:02:765,0.6573,0.8338,9.1017,51.2979,0.6147,-0.4872,0.2109,282.8438
20:48:02:789,1.2295,0.4735,10.4855,54.2096,0.322,-0.4606,0.079,282.7656
20:48:02:807,1.9454,-0.1155,11.8921,53.0646,-0.0509,-0.2204,-0.0949,282.5938
20:48:02:825,2.8396,-0.8841,12.6068,50.9179,-0.3223,0.0905,-0.2619,282.5156
20:48:02:845,2.5416,-0.6973,12.2189,51.9401,-0.4384,0.2335,-0.4145,282.5625
20:48:02:865,1.2008,-0.4519,11.9149,52.5548,-0.4482,0.0649,-0.5921,282.75
20:48:02:889,-0.6882,-0.8122,12.8917,53.3361,-0.5396,-0.1743,-0.7567,283.0938
20:48:02:909,-1.926,-1.4862,13.1048,52.112,-0.5697,0.0319,-0.6573,283.625
20:48:02:933,-1.4101,-1.2827,11.1954,51.6951,-0.3997,0.4556,-0.2062,284.3438
20:48:02:956,0.7866,-0.4675,9.1819,50.4349,-0.0325,-0.1538,0.5752,285.6562
20:48:02:971,2.441,0.5249,8.818,51.3129,-0.0048,-0.81,0.4271,285.2344
20:48:02:991,2.6577,1.1594,9.6476,50.9035,-0.0101,-0.9956,0.0923,284.5781
20:48:03:009,2.2674,1.1259,10.1886,52.166,0.0016,-0.5727,-0.2446,284.1562
20:48:03:029,1.7515,0.9822,9.2106,52.1739,-0.0522,0.1078,-0.513,284.125
20:48:03:055,1.0919,1.1774,7.1971,51.0492,-0.1835,0.5384,-0.6789,284.4531
20:48:03:070,0.6035,1.3282,6.0155,50.718,-0.2394,0.5421,-0.7444,285.0312
20:48:03:089,0.1641,1.3629,5.6899,49.4856,-0.1369,0.275,-0.7183,285.75
20:48:03:108,-0.1423,1.5006,5.5427,50.5264,0.0077,-0.0414,-0.6379,286.5156
20:48:03:128,-0.0478,1.7807,5.593,50.9156,0.0748,-0.1855,-0.5902,287.3125
20:48:03:155,0.2707,2.22,5.593,49.3233,0.0163,-0.1684,-0.6565,288.0469
20:48:03:170,0.3736,2.5732,5.8539,47.2867,-0.1574,-0.1333,-0.8004,288.3594
20:48:03:190,0.1115,2.5935,6.7566,50.8726,-0.3308,-0.0984,-0.9053,289.0781
20:48:03:208,-0.2525,2.6091,8.1631,49.1448,-0.4152,-0.0768,-0.9663,289.9062
20:48:03:230,-1.0342,2.5349,9.7625,48.3556,-0.4096,0.0308,-0.941,290.875
20:48:03:246,-1.9081,2.3481,11.132,48.5426,-0.3183,0.2841,-0.7876,291.8906
20:48:03:267,-2.2421,2.3266,11.6443,49.7361,-0.1635,0.4849,-0.6065,293.4844
20:48:03:290,-2.3103,2.3972,11.284,48.9641,-0.0378,0.4558,-0.4462,294.3438
20:48:03:309,-2.0924,2.4307,10.9165,48.0387,0.0067,0.2319,-0.3383,294.9688
20:48:03:325,-1.9428,2.311,11.1044,48.4059,-0.0519,-0.0105,-0.2712,294.9688
20:48:03:346,-1.4891,1.8801,11.9843,47.2579,-0.1617,-0.1082,-0.236,295.4531
20:48:03:365,-1.1503,1.6191,12.8127,47.0237,-0.3372,-0.26,-0.2691,296.125
20:48:03:390,-1.6136,1.4323,14.4707,46.3439,-0.4386,-0.3876,-0.2523,296.3906
20:48:03:406,-2.4037,0.6267,16.8062,46.5909,-0.2959,-0.28,-0.0728,296.3906
20:48:03:425,-3.2955,-0.331,18.1649,46.6995,0.1739,0.1469,0.364,296.6719
20:48:03:444,-2.8274,-0.8098,15.9455,46.5603,0.6685,0.4843,0.8452,296.9219
20:48:03:464,-1.5058,-0.6231,11.9759,45.0199,0.8495,0.3528,1.147,297
20:48:03:489,-0.1735,-0.3166,9.3746,44.4291,0.7494,-0.1125,1.2247,296.5781
20:48:03:507,0.3126,0.0293,8.8192,45.3709,0.5758,-0.5373,1.1664,294.4688
20:48:03:526,0.0935,0.021,9.608,44.2584,0.5217,-0.6518,1.0878,293.125
20:48:03:545,-0.2333,-0.0976,9.6751,43.6909,0.5625,-0.456,1.0577,292.4844
20:48:03:564,-0.4572,-0.0557,8.3906,43.0874,0.5342,-0.1993,1.0553,290.7656
20:48:03:590,-0.6463,0.252,6.8008,42.6353,0.4021,-0.0901,1.0471,290.2031
20:48:03:606,-0.7768,0.4292,6.2717,41.0027,0.2906,-0.1045,1.0476,289.0469
20:48:03:624,-0.942,0.4771,6.3364,43.1515,0.3116,-0.1508,1.0806,287.875
20:48:03:646,-1.0402,0.5094,6.2418,41.0971,0.3768,-0.2342,1.1254,287.3594
20:48:03:665,-1.0713,0.5381,6.1317,41.4725,0.3672,-0.267,1.1765,286.1875
20:48:03:690,-1.0845,0.5872,6.2693,40.903,0.2618,-0.1687,1.2058,284.9688
20:48:03:706,-0.954,0.7129,6.7015,41.5648,0.1614,-0.0172,1.2,283.7344
20:48:03:724,-0.444,0.8685,7.1875,39.1807,0.0783,0.1389,1.1259,282.4844
20:48:03:745,-0.055,1.3007,7.5514,40.4264,-0.037,0.2984,0.993,281.1406
20:48:03:766,0.4598,1.8705,8.2541,40.86,-0.1356,0.463,0.7896,279.7656
20:48:03:792,1.0117,2.2404,9.0311,40.0086,-0.1198,0.581,0.5307,278.5312
20:48:03:806,1.2523,2.2787,9.3423,40.5289,-0.0373,0.5328,0.2593,277.3594
20:48:03:826,1.0057,1.9339,9.5171,40.6976,0.0011,0.3999,0.0588,276.0156
20:48:03:846,0.9003,1.3629,9.9648,41.9352,-0.025,0.2923,-0.0517,275.5312
20:48:03:867,1.2188,1.0337,10.4915,38.8541,-0.1044,0.1717,-0.1665,275.2969
20:48:03:890,1.5085,0.7679,11.2517,39.9979,-0.1995,0.1325,-0.2925,275.2656
20:48:03:947,2.4135,0.1754,11.521,40.0754,-0.3571,0.1509,-0.4547,275.3438
20:48:03:948,2.3021,0.1275,11.6072,38.6021,-0.5505,0.1232,-0.6286,275.5781
20:48:03:949,1.4845,0.0102,12.4296,39.0068,-0.5894,0.0087,-0.7205,275.9688
20:48:03:965,0.4849,-0.4974,13.2867,38.553,-0.4653,0.1397,-0.6659,276.5625
20:48:03:985,-0.3183,-1.0098,12.62,42.5347,-0.3246,0.345,-0.4339,277.2656
20:48:04:007,-0.4991,-1.2611,11.0781,39.9509,-0.2892,0.283,-0.0917,278.0469
20:48:04:031,2.0065,-0.6195,10.944,41.1713,-0.3017,-0.1072,0.221,278.6562
20:48:04:044,2.6828,0.2352,11.3929,42.3557,-0.1952,-0.5482,0.3067,278.9062
20:48:04:064,2.8732,0.7536,10.8997,41.6293,-0.0349,-0.6563,0.1712,278.7656
20:48:04:086,2.5823,1.0541,9.2513,39.8561,0.0905,-0.3423,-0.0858,278.4375
20:48:04:107,1.8113,1.2408,6.978,40.1341,0.1124,0.1128,-0.3897,278.2031
20:48:04:125,0.9422,1.2743,5.5666,40.9038,0.0069,0.3927,-0.6541,278.1875
20:48:04:149,-0.049,1.1989,5.0208,39.0484,-0.1052,0.4316,-0.8075,278.4688
20:48:04:164,-0.8618,1.0984,5.1369,40.9399,-0.118,0.2388,-0.8214,279.0625
20:48:04:185,-1.124,1.1929,5.3715,40.4043,-0.0298,-0.0251,-0.7016,279.8438
20:48:04:207,-1.0067,1.5904,5.5427,40.6881,0.0767,-0.2307,-0.546,280.75
20:48:04:225,-0.8439,2.0417,6.0203,41.2414,0.1039,-0.3351,-0.4573,281.625
20:48:04:246,-0.7134,2.3349,6.899,39.9614,0.0479,-0.361,-0.4653,282.3281
20:48:04:265,-0.5841,2.5732,7.9788,40.7301,-0.0213,-0.3018,-0.5226,282.9062
20:48:04:292,-0.693,2.7587,8.8874,41.4078,-0.0868,-0.1596,-0.603,283.4531
20:48:04:311,-1.0222,2.8126,9.8547,40.9394,-0.159,-0.0121,-0.6888,284.0469
20:48:04:326,-1.4568,2.6139,10.8207,40.6661,-0.2349,0.148,-0.7423,284.6719
20:48:04:345,-2.0613,2.2859,11.7293,41.1718,-0.2924,0.3136,-0.709,285.4062
20:48:04:365,-2.3965,2.0477,12.6439,42.089,-0.3025,0.4087,-0.5455,286.2188
20:48:04:391,-2.193,1.9172,13.1191,39.8598,-0.1851,0.369,-0.2802,287.3594
20:48:04:409,-1.5729,1.8082,13.1192,40.4724,0.0016,0.193,-0.0001,287.9375
20:48:04:424,-0.5721,1.8705,12.4703,41.4548,0.1505,0.0449,0.2316,288.2344
20:48:04:449,-0.4656,2.2129,13.1227,41.9511,0.1137,-0.2515,0.3006,288.2188
20:48:04:463,-0.3626,1.9603,14.9651,41.9511,-0.0165,-0.5514,0.262,287.9688
20:48:04:487,-0.9217,1.2109,16.9343,41.9387,-0.0517,-0.5908,0.1794,287.6406
20:48:04:507,-1.4927,0.2281,16.4387,42.7131,0.1691,-0.1682,0.2023,287.3906
20:48:04:524,-1.2078,0.0006,12.3889,40.5007,0.5891,0.5229,0.3914,287.2031
20:48:04:545,-0.8678,0.015,8.8156,42.4061,0.7691,0.7924,0.5675,287
20:48:04:565,-0.9348,0.0569,7.8938,41.3797,0.6418,0.3914,0.6798,286.5625
20:48:04:591,-1.106,-0.0772,9.3758,43.1251,0.4168,-0.2523,0.777,285.9375
20:48:04:610,-1.1718,-0.3669,10.4903,42.9004,0.3657,-0.5746,0.8833,285.1719
20:48:04:625,-1.2221,-0.3238,9.383,42.6199,0.5412,-0.4728,1.0189,284.7656
20:48:04:644,-0.96,0.1191,7.0798,43.1456,0.7249,-0.2659,1.1928,283.9219
20:48:04:665,-0.5374,0.6087,5.6516,42.4155,0.7236,-0.1924,1.3304,282.9219
20:48:04:689,-0.1172,1.09,5.1931,42.8584,0.6139,-0.2763,1.3978,281.0625
20:48:04:706,0.3185,1.4874,5.5798,42.23,0.5023,-0.4291,1.4058,279.6719
20:48:04:725,0.5987,1.5724,6.0455,42.3257,0.4647,-0.5266,1.2492,278.1406
20:48:04:749,0.6274,1.6131,6.316,42.4184,0.4077,-0.3748,1.1707,278.1406
20:48:04:763,0.7746,1.7687,6.5459,43.0768,0.3334,-0.2214,1.0873,276.6094
20:48:04:785,1.1206,2.0249,6.838,40.0999,0.2903,-0.1932,0.9467,275.1406
20:48:04:805,1.3241,2.2141,7.2103,41.5567,0.2701,-0.2563,0.7749,273.875
20:48:04:826,1.4175,2.2571,7.8866,40.9547,0.2565,-0.2241,0.613,271.3906
20:48:04:849,1.5851,2.2128,8.3212,41.7714,0.2264,-0.0646,0.4428,270.3906
20:48:04:863,1.7215,2.159,8.1859,41.1419,0.0961,0.0883,0.2519,269.5312
20:48:04:883,1.8472,2.086,8.0554,42.4715,-0.1609,0.1323,0.0673,268.8594
20:48:04:905,2.3871,1.8777,8.8263,41.9654,-0.4783,0.0361,-0.1503,268.3906
20:48:04:924,2.6433,1.4982,10.792,41.49,-0.6962,-0.1037,-0.3737,268.0938
20:48:04:944,2.4099,0.7488,13.3442,43.0791,-0.6732,-0.0164,-0.4728,268.0469
20:48:04:967,2.7115,-0.3502,14.0661,42.3735,-0.4879,0.2199,-0.4011,268.3438
20:48:04:990,3.0551,-0.6722,12.3626,43.2663,-0.4386,0.1658,-0.2943,268.875
20:48:05:009,2.951,0.0329,11.3139,43.2399,-0.4786,-0.1442,-0.2999,269.3906
20:48:05:025,2.8253,0.4052,11.6383,44.5689,-0.5521,-0.2981,-0.4941,269.75
20:48:05:045,2.2148,-0.1718,12.262,44.112,-0.6426,-0.0912,-0.6134,270.0469
20:48:05:064,1.4606,-0.847,12.3841,42.4591,-0.7188,0.2396,-0.529,270.25
20:48:05:085,1.3157,-0.9655,11.8155,44.466,-0.7188,0.243,-0.3069,270.8594
20:48:05:107,1.8927,-0.4747,11.4408,44.1787,-0.6205,-0.1562,-0.1338,271.5781
20:48:05:125,2.107,0.3597,11.7197,45.0461,-0.3816,-0.5186,-0.0573,272.125
20:48:05:144,2.3883,0.9798,11.3953,44.2938,-0.0852,-0.5168,-0.0869,272.4531
20:48:05:166,2.5643,1.4551,10.1874,45.2985,0.1691,-0.2283,-0.2118,272.625
20:48:05:191,2.526,1.8142,8.0602,46.1935,0.2602,0.1064,-0.4027,272.7344
20:48:05:206,2.1836,2.1554,5.8575,45.2278,0.164,0.2713,-0.6328,272.875
20:48:05:224,1.5551,2.3421,4.5862,43.8634,-0.0021,0.2103,-0.835,273.3281
20:48:05:244,0.8022,2.2811,4.4019,44.725,-0.1451,0.054,-0.9465,273.8594
20:48:05:265,0.2707,2.0848,5.0902,45.5549,-0.2115,-0.0132,-0.9572,274.7031
20:48:05:289,0.0695,2.0381,5.8934,45.388,-0.2085,0.0465,-0.9258,275.7188
20:48:05:306,-0.0454,2.2284,6.407,46.1979,-0.1774,0.0945,-0.8999,276.7656
20:48:05:324,-0.1435,2.3745,6.7242,45.5203,-0.1862,0.1078,-0.8643,277.8438
20:48:05:348,-0.1747,2.5313,7.3623,48.8185,-0.237,0.1091,-0.8041,278.8906
20:48:05:363,0.0061,2.7372,8.5007,46.6484,-0.273,0.1613,-0.7535,279.8438
20:48:05:385,-0.0154,2.8844,9.5039,47.1825,-0.273,0.2753,-0.734,280.7812
20:48:05:406,-0.1112,2.8401,10.1755,47.4278,-0.2562,0.3861,-0.7221,281.6562
20:48:05:425,-0.9743,2.3792,11.1356,47.5431,-0.2437,0.4971,-0.6358,282.4844
20:48:05:445,-0.9983,2.1769,11.5234,46.8944,-0.2112,0.5142,-0.464,283.25
20:48:05:465,-0.8199,2.0213,12.256,48.807,-0.1675,0.3594,-0.2688,284.0156
20:48:05:493,-0.2225,1.7113,13.0258,49.1602,-0.1055,0.0702,-0.0712,284.6094
20:48:05:509,0.1893,1.5724,13.4926,48.9589,-0.0618,-0.1618,0.0625,284.9688
20:48:05:531,-0.2956,1.6873,14.9603,50.3373,-0.1342,-0.4249,0.0958,285.1406
20:48:05:544,-0.5302,1.2564,16.5285,49.3748,-0.1593,-0.4779,0.1544,285.1406
20:48:05:564,-0.9013,0.6243,16.0987,49.1797,0.0117,-0.1213,0.2364,285.0625
20:48:05:584,-0.9923,0.3202,12.8414,49.4753,0.3422,0.4641,0.3943,284.9375
20:48:05:606,-0.7996,0.0066,9.9313,49.7985,0.5364,0.6409,0.5744,284.75
20:48:05:623,-0.4907,-0.2161,9.0011,51.734,0.5097,0.2114,0.7491,284.3906
20:48:05:644,-0.3387,0.1766,10.5669,51.1589,0.3417,-0.4875,0.9097,283.8281
20:48:05:664,0.4466,0.325,12.0908,51.1354,0.282,-0.8955,1.0282,283.0625
20:48:05:684,0.54,0.3513,11.8155,51.2494,0.4096,-0.7932,0.9917,282.1406
20:48:05:707,0.3999,0.404,9.8223,51.6698,0.5614,-0.3181,0.9547,281.125
20:48:05:728,0.2216,0.7476,7.555,51.7323,0.6219,0.1453,0.9901,280.0469
20:48:05:744,0.1761,0.9882,6.0922,51.6532,0.5982,0.3022,1.0479,279
20:48:05:764,0.2467,1.2336,5.4541,52.4714,0.5838,0.1432,1.1113,277.8906
20:48:05:785,0.5508,1.4276,5.5104,51.3571,0.5819,-0.1234,1.1645,276.7656
20:48:05:807,0.9374,1.6131,5.7929,51.2127,0.5902,-0.3165,1.1749,274.8594
20:48:05:825,1.1745,1.6562,6.1149,51.1798,0.596,-0.3847,1.1169,273.5938
20:48:05:844,1.3684,1.6658,6.802,53.0351,0.5747,-0.3445,1.0271,272.2969
20:48:05:864,1.4809,1.8561,7.0067,50.6662,0.576,-0.2222,0.9238,271.0625
20:48:05:884,1.5623,2.1207,7.0427,53.7794,0.5611,-0.1056,0.7949,269.9219
20:48:05:909,1.6725,2.1638,7.3934,51.7169,0.4834,-0.0382,0.6316,268.9219
20:48:05:929,1.7227,2.1674,7.8136,53.9891,0.3915,0.018,0.4727,268.0156
20:48:05:945,1.8688,2.068,8.0806,51.533,0.3209,0.0606,0.3318,267.2812
20:48:06:028,2.0029,1.7197,8.7557,52.376,0.2077,0.0372,0.1869,266.7656
20:48:06:028,2.4482,1.3294,9.8211,52.6526,0.0336,-0.0004,0.075,266.7656
20:48:06:029,2.5643,1.0624,11.5677,52.9118,-0.171,-0.0835,-0.0589,266.125
20:48:06:029,2.4781,0.5573,13.3167,52.7147,-0.2977,-0.072,-0.2006,266.0469
20:48:06:044,3.2359,-0.2113,12.6726,53.1467,-0.2389,0.2241,-0.2416,266.0625
20:48:06:064,3.3688,0.0449,11.0242,53.9481,-0.171,0.4734,-0.2509,266.25
20:48:06:084,3.2107,0.4112,10.6423,54.5337,-0.2932,0.3719,-0.2821,266.5156
20:48:06:107,2.866,0.3609,11.6635,54.5304,-0.4085,0.0414,-0.3644,266.8281
20:48:06:125,2.3321,-0.4363,11.5629,53.1984,-0.3763,-0.0608,-0.5338,267.1094
20:48:06:145,1.6353,-0.9248,10.3443,53.9126,-0.432,0.3975,-0.4914,267.5156
20:48:06:164,1.882,-0.8386,9.4512,54.0258,-0.5478,0.2204,-0.309,268.1094
20:48:06:184,2.7534,-0.3094,9.8032,53.9618,-0.5452,-0.1831,-0.2616,268.1094
20:48:06:209,2.9749,0.5465,10.4029,52.7841,-0.4469,-0.4662,-0.3761,268.7969
20:48:06:224,2.7774,1.0122,10.452,55.1736,-0.3819,-0.2955,-0.5457,269.625
20:48:06:245,2.3129,1.2588,9.3662,54.1099,-0.4029,0.1546,-0.6837,269.9375
20:48:06:262,1.6952,1.5868,7.9106,53.247,-0.4557,0.4963,-0.7679,270.4375
20:48:06:286,1.1661,2.074,6.6716,56.0181,-0.4543,0.5107,-0.7846,271.8281
20:48:06:308,0.8824,2.4846,6.1257,54.9811,-0.383,0.2817,-0.7396,271.8281
20:48:06:325,0.9303,2.6845,6.1652,54.3708,-0.2421,-0.0315,-0.7205,272.6562
20:48:06:343,1.1481,2.9036,6.4465,55.3037,-0.1084,-0.2584,-0.7679,273.5
20:48:06:363,1.0464,3.1023,6.7649,55.2432,-0.0511,-0.3455,-0.8621,274.2812
20:48:06:384,0.7531,3.0891,7.1935,55.1122,-0.1023,-0.2816,-0.9351,275.5312
20:48:06:408,0.3808,3.0305,7.992,55.3286,-0.1992,-0.0914,-0.9444,276.5
20:48:06:424,-0.0095,2.9658,9.0155,56.9232,-0.2051,0.1109,-0.88,277.5156
20:48:06:444,-0.286,2.8605,9.6906,57.3704,-0.1326,0.2673,-0.7479,278.6094
20:48:06:465,-0.5697,2.9335,9.8858,56.6041,-0.0397,0.3621,-0.5681,279.6719
20:48:06:492,-0.5637,3.0496,9.9756,58.0224,0.0719,0.3597,-0.4115,280.5938
20:48:06:511,-0.4536,3.0532,9.7373,55.5942,0.1342,0.2476,-0.2861,281.2812
20:48:06:528,-0.2764,2.9275,9.6296,59.2744,0.0924,0.018,-0.1729,281.5625
20:48:06:545,-0.0274,2.7216,10.5454,59.2744,-0.0027,-0.2044,-0.0901,282
20:48:06:563,0.303,2.5073,12.2632,59.1882,-0.0312,-0.2851,-0.0206,282.2969
20:48:06:585,0.7184,2.2679,13.7608,57.3709,0.0573,-0.1575,0.0069,282.5
20:48:06:609,1.4702,1.9926,13.5824,59.1028,0.1329,0.0308,-0.0778,282.6094
20:48:06:626,1.1206,2.3362,12.4284,57.9326,0.0128,0.0742,-0.2251,282.6562
20:48:06:643,0.2156,2.4403,12.4919,58.3114,-0.0983,0.087,-0.3183,282.6875
20:48:06:663,-0.4787,1.6143,12.9683,59.2441,-0.0272,0.2601,-0.3085,282.875
20:48:06:683,-1.0761,0.8745,12.2165,58.308,0.0961,0.3365,-0.1647,283.1719
20:48:06:708,-1.4065,0.5082,11.1451,58.7525,0.1406,0.1102,0.0098,283.5312
20:48:06:725,-0.9791,0.2388,10.847,59.7238,0.0735,-0.2696,0.0836,283.7812
20:48:06:744,-0.4787,-0.0533,11.7892,59.1702,-0.0218,-0.4257,0.0641,283.8438
20:48:06:766,-0.699,-0.3071,12.9025,60.6127,0.0509,-0.1674,0.0758,283.7812
20:48:06:782,-0.8187,-0.4675,12.201,60.0296,0.2208,0.3371,0.164,283.7344
20:48:06:804,-0.8606,-0.4124,9.5063,60.3486,0.3025,0.6942,0.3435,283.7031
20:48:06:824,-0.5218,0.5848,5.1656,60.0853,0.3047,0.7365,0.5408,283.5781
20:48:06:845,-0.5099,1.1989,4.3264,59.3849,0.2533,0.4915,0.6825,283.25
20:48:06:868,-0.5003,1.5042,4.5335,59.5383,0.1747,0.0971,0.7786,282.6719
20:48:06:882,-0.4907,1.5724,5.5774,60.6226,0.0991,-0.2662,0.8436,281.9062
20:48:06:903,-0.2609,1.5544,6.8092,59.8133,0.053,-0.4158,0.9243,281.0938
20:48:06:923,0.1019,1.7304,7.6915,59.4118,0.0722,-0.3775,1.0159,280.1719
20:48:06:945,0.4778,1.9686,8.0243,59.198,0.1422,-0.2379,1.0671,279.2031
20:48:06:967,0.7806,2.2871,8.3966,60.7344,0.2021,-0.1527,1.0554,277.625
20:48:06:990,1.3409,2.4176,8.7569,60.3886,0.2647,-0.117,0.9898,277.0312
20:48:07:007,1.7503,2.396,8.9137,60.3776,0.3433,-0.1253,0.8434,275.25
20:48:07:027,2.0112,2.1853,8.8658,60.1127,0.3934,-0.1056,0.6399,274.6719
20:48:07:043,2.0962,1.7125,9.3363,60.6501,0.3353,-0.0843,0.4194,273.6875
20:48:07:062,2.5045,1.0253,10.5214,61.5554,0.1891,-0.0981,0.242,272.8594
20:48:07:084,3.1138,0.6219,11.6335,59.5651,0.0533,-0.0273,0.1307,272.2656
20:48:07:107,3.4059,0.3382,12.3446,59.7133,-0.013,0.0737,0.0061,271.9219
20:48:07:124,3.528,-0.2029,11.5198,60.0024,0.0448,0.2289,-0.121,271.7344
20:48:07:143,3.4274,-0.3118,9.705,59.9333,0.0828,0.271,-0.1939,271.6406
20:48:07:163,2.6349,0.1754,8.9808,61.0118,-0.0914,0.0486,-0.2611,271.6875
20:48:07:183,1.9167,0.2855,10.2928,59.9542,-0.3963,-0.3799,-0.3503,271.8281
20:48:07:206,1.5324,-0.5118,12.2321,59.2247,-0.6189,-0.7192,-0.4749,272.0625
20:48:07:226,0.9362,-1.2576,13.0808,60.7714,-0.7068,-0.5367,-0.5332,272.4375
20:48:07:246,0.7435,-1.4515,12.5481,59.8829,-0.7153,-0.0361,-0.424,273.2812
20:48:07:263,1.3145,-1.1833,11.4276,57.9483,-0.6607,0.2284,-0.2137,273.9688
20:48:07:285,1.6198,-0.4004,11.1715,59.5858,-0.6112,0.1315,-0.0541,274.4375
20:48:07:308,1.9885,0.3861,10.9344,59.7924,-0.4748,-0.0755,0.0401,274.6562
20:48:07:325,2.1357,1.0433,9.3615,59.4584,-0.2344,-0.0954,0.0228,274.7188
20:48:07:343,1.9478,1.6562,7.5107,60.0437,-0.1009,0.063,-0.0901,274.6719
20:48:07:362,1.688,2.0644,6.4705,57.7096,-0.1393,0.205,-0.2483,274.6562
20:48:07:383,1.2954,2.2619,6.0574,60.599,-0.2296,0.2638,-0.4121,274.75
20:48:07:413,0.8967,2.2715,6.1544,59.2152,-0.2671,0.2271,-0.5354,275.0312
20:48:07:425,0.6765,2.2715,6.3711,59.0939,-0.24,0.1528,-0.5916,275.4375
20:48:07:443,0.7076,2.4606,6.2921,58.029,-0.1723,0.1347,-0.6086,276.0312
20:48:07:463,0.5699,2.6749,6.2203,57.7857,-0.1443,0.1631,-0.6595,276.3594
20:48:07:483,0.3377,2.7587,6.6991,57.9049,-0.1958,0.1722,-0.7404,277.0469
20:48:07:507,-0.1136,2.821,7.5395,58.672,-0.2655,0.1655,-0.8046,277.3906
20:48:07:525,-0.7361,2.8976,8.7509,57.6762,-0.3079,0.1509,-0.8017,278.9219
20:48:07:544,-0.6775,3.2974,10.2329,57.3708,-0.1798,0.1914,-0.2437,279.8281
20:48:07:563,0.783,4.06,11.7269,57.9083,0.1635,0.1674,0.0396,280.6875
20:48:07:584,2.7702,4.6681,12.3015,59.2206,0.5928,0.1016,-0.0784,281.375
20:48:07:612,3.5376,4.5807,11.1607,56.3354,0.7079,0.0721,-0.4643,281.6406
20:48:07:627,2.8648,3.805,10.1886,57.9255,0.4402,0.0814,-0.79,281.5938
20:48:07:643,1.7084,2.5241,10.7836,57.7081,0.0522,0.0268,-0.9311,281.7031
20:48:07:662,0.4119,1.2612,12.9396,56.3928,-0.1068,-0.0544,-0.8549,282.25
20:48:07:682,-0.134,0.0964,14.4,56.8041,-0.0706,-0.1658,-0.7186,283.1562
20:48:07:708,-2.0972,-0.0341,15.0752,57.009,-0.0165,-0.2755,-0.4174,284.1719
20:48:07:726,-3.4009,-0.4519,15.9335,57.538,0.1795,-0.1223,0.0231,285.1562
20:48:07:743,-3.991,-0.7763,15.2596,55.3539,0.5119,0.2673,0.5576,286.4688
20:48:07:762,-3.4799,-0.6051,12.4188,54.9115,0.7097,0.4694,1.0452,286.4531
20:48:07:782,-2.3127,-0.0485,9.3615,55.2084,0.6187,0.1312,1.3587,286.2188
20:48:07:809,-0.8989,0.3753,8.654,54.9848,0.4282,-0.643,1.5105,285.2656
20:48:07:826,0.1605,0.7105,10.1432,52.8387,0.436,-1.3924,1.5496,283.9219
20:48:07:843,0.8453,0.9463,11.7257,54.1311,0.6687,-1.7421,1.4748,282.2969
20:48:07:863,1.6342,0.8793,12.2656,53.0611,0.9212,-1.3695,1.2956,280.6562
20:48:07:884,1.8532,0.7967,10.9991,53.8644,0.9926,-0.4909,1.0982,279.1719
20:48:07:914,1.5659,1.0193,8.5462,53.5981,0.8754,0.3323,0.9339,277.75
20:48:07:926,1.3816,1.3892,6.2227,52.2203,0.6714,0.6862,0.7712,277.0938
20:48:07:944,1.0488,1.4898,4.6951,52.6235,0.4788,0.5698,0.6796,275.875
20:48:07:963,0.6394,1.5221,4.3456,53.3422,0.372,0.1871,0.7097,274.7812
20:48:07:983,0.7555,1.3785,4.9023,51.5613,0.3864,-0.2113,0.7842,273.7656
20:48:08:007,1.026,1.3869,5.6696,51.0262,0.4365,-0.3903,0.8378,272.8906
20:48:08:025,1.4342,1.5664,6.304,51.0431,0.4392,-0.3612,0.8327,272.0781
20:48:08:112,1.9885,1.7532,6.9505,50.2797,0.4266,-0.1469,0.74,271.1875
20:48:08:113,2.3835,2.1135,6.9649,50.2392,0.3665,0.0718,0.5755,269.8281
20:48:08:114,2.5883,2.3781,7.051,50.1839,0.2661,0.2572,0.364,268.9844
20:48:08:114,2.6828,2.4415,7.0558,47.8295,0.1158,0.4865,0.1531,268.2031
20:48:08:132,2.5236,2.4247,7.0702,49.4556,-0.1273,0.6846,-0.0219,267.6094
20:48:08:142,2.21,2.4187,7.5598,48.8231,-0.3646,0.6838,-0.1599,267.25
20:48:08:163,2.3021,2.4164,8.3547,48.5612,-0.5377,0.3517,-0.3274,267.0781
20:48:08:183,2.3764,2.1039,9.948,48.5841,-0.6325,-0.0749,-0.5042,267.0625
20:48:08:208,2.1645,1.3102,12.0489,49.2692,-0.6346,-0.1599,-0.5441,267.25
20:48:08:225,3.1629,0.1407,12.4883,47.6066,-0.58,0.1802,-0.3812,267.6875
20:48:08:243,3.6513,1.0445,11.2565,48.8772,-0.6429,0.4351,-0.2677,268.375
20:48:08:262,3.1928,1.4778,12.1148,47.8003,-0.8796,0.2934,-0.3601,268.9375
20:48:08:283,2.2507,0.8685,13.5429,49.4822,-0.9675,0.0026,-0.5679,269.2344
20:48:08:310,1.2607,0.1323,13.1934,47.5873,-0.792,0.1208,-0.6957,269.5156
20:48:08:330,1.1888,-0.082,11.4719,46.7308,-0.5574,0.4401,-0.5764,270.0312
20:48:08:346,2.3548,0.185,10.2437,48.0934,-0.4096,0.4542,-0.3127,270.7969
20:48:08:362,3.2263,0.6758,9.9277,48.2738,-0.3284,0.051,-0.1825,271.7656
20:48:08:385,3.0443,1.0744,10.3479,46.7947,-0.2799,-0.4515,-0.2667,271.9531
20:48:08:405,2.5056,1.0026,10.4125,47.5724,-0.2405,-0.5764,-0.4632,272.2656
20:48:08:423,1.925,1.0074,9.0682,47.814,-0.1883,-0.158,-0.6264,272.6094
20:48:08:442,1.3157,1.2276,6.9864,47.4592,-0.1683,0.4351,-0.7423,272.875
20:48:08:463,0.5101,1.4563,5.4577,48.5542,-0.2053,0.7213,-0.8134,273.5469
20:48:08:483,-0.122,1.5652,4.9214,46.8994,-0.224,0.5728,-0.779,274.3281
20:48:08:512,-0.1723,1.6574,5.5044,46.9181,-0.1827,0.1307,-0.6342,275.125
20:48:08:528,0.297,1.7831,6.6524,48.9649,-0.0663,-0.2872,-0.4669,275.9844
20:48:08:543,0.5029,2.0907,6.9098,47.6348,0.098,-0.418,-0.3852,276.7812
20:48:08:563,0.5412,2.4606,6.6452,47.2609,0.1835,-0.3445,-0.416,277.375
20:48:08:582,0.5879,2.7048,6.8188,46.6087,0.0748,-0.2291,-0.5117,277.875
20:48:08:609,0.6154,2.9383,7.7861,46.6087,-0.184,-0.0648,-0.6179,278.3594
20:48:08:626,0.6046,3.1238,9.3076,46.4255,-0.4045,0.0417,-0.7034,278.875
20:48:08:642,0.3114,3.1945,10.4496,46.0604,-0.4466,0.0774,-0.7756,279.5469
20:48:08:664,-0.0598,3.1334,11.4013,47.4984,-0.3848,0.1128,-0.7942,280.7031
20:48:08:682,-0.5386,2.8641,11.94,45.6551,-0.2621,0.2255,-0.7561,281.5469
20:48:08:707,-0.675,2.5516,11.5881,45.5796,-0.123,0.4404,-0.6427,282.4375
20:48:08:726,-0.4189,2.4451,11.2241,46.0195,-0.061,0.606,-0.4704,283.2812
20:48:08:743,0.2599,2.2212,11.1655,45.6724,-0.0969,0.6175,-0.3303,283.9844
20:48:08:762,0.54,2.0153,11.5569,44.0932,-0.1862,0.377,-0.2994,284.4531
20:48:08:783,0.1402,1.7173,14.6538,44.5724,-0.4179,-0.305,-0.3221,284.7812
20:48:08:809,-0.2166,0.8625,18.639,45.2793,-0.481,-0.8869,-0.2264,285.0938
20:48:08:828,-0.3183,-0.1083,19.9319,46.3248,-0.0743,-0.7804,-0.0339,285.4531
20:48:08:844,0.5616,-0.4016,14.7604,45.4121,0.7087,0.112,0.2327,285.7344
20:48:08:862,1.0081,-0.0736,8.6899,45.3685,1.1089,0.8732,0.3275,285.8125
20:48:08:886,0.4466,0.1275,6.0993,44.5928,0.8464,0.8348,0.2529,285.5781
20:48:08:910,-0.4763,-0.1395,7.9225,44.323,-0.1798,-0.5841,0.3336,285.1719
20:48:08:927,-0.9408,-0.4555,11.4827,47.7251,-0.0815,-0.814,0.5677,284.8438
20:48:08:943,-0.766,-0.3621,12.6618,44.778,0.318,-0.6528,0.7704,284.8438
20:48:08:962,-0.3411,-0.082,11.1308,45.0329,0.6008,-0.3844,0.9318,284.2812
20:48:08:985,0.1569,0.4208,8.8623,43.7214,0.6597,-0.1309,1.0157,282.875
20:48:09:009,0.2946,0.9631,7.142,45.7363,0.6053,-0.0267,1.0378,281.8906
20:48:09:026,0.4957,1.2588,6.2933,45.0155,0.5617,-0.0081,1.0269,281.8906
20:48:09:042,0.6944,1.4587,5.9162,47.0589,0.5593,-0.0161,1.0077,280.75
20:48:09:061,0.9518,1.5197,5.6456,45.4637,0.5603,-0.0243,0.9912,279.5781
20:48:09:081,1.1374,1.661,5.4781,45.6347,0.5393,-0.0438,0.9565,278.4531
20:48:09:101,1.3026,1.7939,5.6073,45.7783,0.5356,-0.1181,0.874,277.2969
20:48:09:127,1.4342,1.9184,5.7737,45.7157,0.5438,-0.1916,0.7326,276.1719
20:48:09:145,1.4582,1.9339,5.6564,44.9882,0.4658,-0.2227,0.5696,275.0781
20:48:09:161,1.3923,1.8358,5.8228,44.6353,0.31,-0.2062,0.4119,274.1406
20:48:09:181,1.1853,1.6478,6.3029,44.5234,0.1302,-0.1389,0.2737,273.3281
20:48:09:201,1.2032,1.503,6.7087,43.5383,-0.0716,-0.0933,0.14,272.7031
20:48:09:228,1.4881,1.0876,7.3443,45.1966,-0.3497,-0.1463,-0.0094,272.2812
20:48:09:249,1.5779,0.6782,8.9101,43.6419,-0.6716,-0.2712,-0.1255,271.9844
20:48:09:261,1.5647,0.0461,11.3822,43.9967,-0.8615,-0.2883,-0.1636,271.8281
20:48:09:282,1.7096,-0.5225,13.8254,43.3686,-0.8147,0.0332,-0.0888,271.9688
20:48:09:303,2.4937,-0.89,13.9906,43.5777,-0.6509,0.4516,0.0218,272.2031
20:48:09:326,3.5914,-0.4136,11.6515,44.2862,-0.6836,0.4178,-0.0182,272.3281
20:48:09:346,4.0906,0.6243,10.0929,44.9436,-0.9555,-0.0036,-0.2643,272.4531
20:48:09:362,3.9146,1.2851,11.4839,43.0495,-1.1428,-0.3117,-0.6275,272.3906
20:48:09:383,3.5543,0.8278,13.835,44.6718,-1.0807,0.0092,-0.9977,272.3906
20:48:09:408,2.9258,-0.0042,14.4216,43.5675,-0.9361,0.8412,-1.1998,272.7031
20:48:09:425,2.447,-0.4268,12.5062,44.9872,-0.8645,1.4513,-1.1783,273.4375
20:48:09:443,2.7415,-0.3178,10.4628,43.8493,-0.8013,1.2577,-1.146,274.5938
20:48:09:463,2.836,-0.0341,9.9097,45.7679,-0.625,0.5578,-1.1825,276.5781
20:48:09:482,2.113,0.1802,10.3419,43.7297,-0.335,-0.0563,-1.2099,277.75
20:48:09:503,1.3935,0.0844,10.5095,42.3862,-0.0463,-0.1804,-1.182,279.0312
20:48:09:525,0.9422,0.088,9.1651,45.31,0.0858,-0.0014,-1.1375,280.3906
20:48:09:545,0.4179,0.3178,7.4808,43.5812,0.0575,0.1533,-1.0611,281.6875
20:48:09:562,0.048,0.7452,6.1903,43.3058,-0.0346,0.1256,-0.9932,283.0312
20:48:09:582,-0.3075,1.0876,5.7737,43.7387,-0.1105,-0.0435,-0.9207,284.2812
20:48:09:603,-0.4368,1.1402,6.0634,44.3902,-0.1262,-0.2124,-0.8107,285.4688
20:48:09:626,-0.2549,1.6706,7.2653,43.0469,-0.0448,-0.3367,-0.6824,286.5
20:48:09:643,-0.1651,1.9818,7.3802,42.8615,0.1079,-0.4752,-0.5916,287.5
20:48:09:662,-0.2262,2.2284,7.8734,43.2045,0.1784,-0.5636,-0.5412,288.3594
20:48:09:681,-0.1974,2.3948,8.6564,40.648,0.1539,-0.4947,-0.4874,289.0469
20:48:09:703,-0.4344,2.463,9.4979,44.8692,0.1151,-0.2992,-0.4584,289.7188
20:48:09:726,-0.7289,2.4128,10.3898,43.8405,0.0927,-0.0358,-0.4062,290.3281
20:48:09:745,-0.8905,2.2404,11.1631,43.4127,0.1055,0.2449,-0.3148,290.8438
20:48:09:762,-0.7864,2.2212,11.0793,43.2159,0.1704,0.5344,-0.2017,291.5781
20:48:09:782,-0.5553,2.1745,10.5334,42.8569,0.2314,0.6681,-0.1133,291.9219
20:48:09:802,-0.6834,1.9028,10.7537,42.4199,0.1856,0.5155,-0.0837,292.1406
20:48:09:825,-0.9624,1.1019,12.116,42.843,0.0466,0.2196,-0.0294,292.25
20:48:09:844,-1.0019,0.2771,13.2736,41.6673,-0.0698,0.0127,0.1086,292.2812
20:48:09:861,-1.3047,0.4507,13.8769,42.5628,-0.1222,-0.068,0.3131,292.3438
20:48:09:882,-1.7716,0.8781,15.2632,41.3057,-0.1537,-0.2635,0.5307,292.3125
20:48:09:902,-1.5968,0.4352,16.8278,41.1616,-0.0013,-0.5309,0.7621,292.0781
20:48:09:924,-1.0174,-0.4172,15.7312,41.8451,0.4836,-0.5066,1.0175,291.5938
20:48:09:943,-0.0238,-0.6985,12.1016,41.194,1.0125,-0.1767,1.2676,290.875
20:48:09:961,1.1422,-0.416,9.0418,40.2387,1.1244,0.0745,1.3989,289.9219
20:48:09:982,1.7503,0.3585,8.2565,41.0207,0.7902,-0.0169,1.3432,288.6406
20:48:10:003,1.8042,0.8769,9.6416,39.7157,0.3377,-0.32,1.1555,287.1094
20:48:10:027,1.5444,0.6961,10.9153,39.1246,0.1284,-0.5519,0.8998,285.5938
20:48:10:044,0.7615,0.3932,10.7405,41.654,0.1915,-0.455,0.6913,284.1719
20:48:10:061,0.2108,0.1921,9.0969,39.006,0.338,-0.0869,0.6372,282.5781
20:48:10:081,-0.2345,0.2568,7.2737,40.0048,0.4192,0.2745,0.7067,281.8594
20:48:10:101,-0.3255,0.4627,5.8228,40.4049,0.4426,0.4337,0.8543,281.125
20:48:10:128,-0.1878,0.647,4.8208,37.3588,0.4722,0.34,1.0093,280.2969
20:48:10:194,0.0899,0.7512,4.5515,38.8261,0.4972,0.0726,1.1392,279.3281
20:48:10:195,0.3808,0.7931,4.8771,38.9846,0.5321,-0.2499,1.2394,278.125
20:48:10:195,0.6681,0.8314,5.6971,38.1898,0.5704,-0.5506,1.3036,276.8125
20:48:10:210,1.1278,0.9272,6.565,38.2253,0.5904,-0.709,1.3174,274.0625
20:48:10:228,1.9813,1.0948,7.3347,38.1484,0.4181,-0.3421,1.086,272.625
20:48:10:249,2.6062,1.4216,7.7154,36.6904,0.2003,0.0944,0.7874,271.2344
20:48:10:264,2.9282,1.7508,7.8435,36.637,-0.0186,0.4004,0.3997,270.0781
20:48:10:284,3.0372,1.588,7.8842,36.7772,-0.2354,0.5222,-0.0091,269.1562
20:48:10:309,2.3249,1.1343,8.1919,36.7142,-0.4783,0.5416,-0.2954,268.8438
20:48:10:328,1.463,0.3561,9.0969,36.2468,-0.6693,0.4745,-0.3817,268.8438
20:48:10:346,0.8357,-0.1957,10.2162,36.2526,-0.7856,0.3264,-0.3109,268.5938
20:48:10:362,0.7423,-0.5381,11.6252,34.1567,-0.8176,0.0931,-0.141,268.875
20:48:10:385,1.6892,-1.1977,13.033,34.2464,-0.7137,-0.0944,0.0654,269.6094
20:48:10:401,2.3548,-1.5748,13.1024,33.7522,-0.542,-0.2667,0.278,269.6094
20:48:10:425,1.9119,-0.349,12.8438,35.2481,-0.4139,-0.6353,0.4079,269.7656
20:48:10:444,2.125,0.4747,13.7608,32.5601,-0.3292,-0.7943,0.3493,269.7188
20:48:10:461,2.7762,0.0126,15.0644,33.7469,-0.1976,-0.2584,0.2588,269.4375
20:48:10:481,3.7387,-0.75,14.0649,34.7226,-0.0714,0.5269,0.2247,269.0625
20:48:10:502,4.421,-0.5357,11.2541,36.4803,-0.0938,0.7448,0.1536,268.7344
20:48:10:525,4.7993,0.2089,9.4057,34.1369,-0.192,0.4039,-0.0374,268.4688
20:48:10:547,4.5766,0.9128,9.0179,34.8417,-0.2613,-0.0046,-0.3495,268.2031
20:48:10:563,3.9266,0.9942,9.2789,34.9521,-0.2541,-0.0824,-0.6494,267.9688
20:48:10:581,3.1257,0.8565,8.867,33.7676,-0.2482,0.1869,-0.8406,267.9844
20:48:10:600,2.3033,0.8889,7.7274,33.395,-0.2668,0.4705,-0.9364,268.3906
20:48:10:626,1.6485,1.0888,6.6476,34.345,-0.2589,0.5099,-0.9918,269.5781
20:48:10:643,1.0643,1.2911,6.2059,34.0701,-0.1792,0.2886,-1.0166,270.5781
20:48:10:663,0.5699,1.2911,6.0539,35.5704,-0.0546,0.014,-0.9958,271.6719
20:48:10:682,0.3078,1.09,6.1209,35.5704,0.0589,-0.1239,-0.9138,272.75
20:48:10:702,0.4143,1.1187,6.0395,34.8544,0.0802,-0.0928,-0.8539,273.8906
20:48:10:726,0.4083,1.4934,6.0754,34.6494,0.0242,-0.0097,-0.8249,275
20:48:10:745,0.6478,1.9686,6.3029,36.285,-0.0724,0.0281,-0.8472,275.9531
20:48:10:763,0.8848,2.4523,6.8607,33.8885,-0.1864,0.0105,-0.9095,276.9219
20:48:10:782,0.9279,2.7467,7.8363,34.2615,-0.2775,-0.0518,-0.9231,277.8594
20:48:10:805,1.1374,3.0329,9.31,34.5615,-0.2916,0.0058,-0.8326,278.3594
20:48:10:827,2.0795,3.5871,10.6579,33.9308,-0.1933,0.336,-0.8304,279.3438
20:48:10:845,3.0575,4.2982,10.8423,33.4075,-0.0615,0.7341,-1.1633,280.4062
20:48:10:863,2.6086,4.4478,9.7828,33.3844,-0.082,0.8798,-1.6539,281.3594
20:48:10:883,0.7028,3.6877,9.146,33.5033,-0.3603,0.6447,-1.9578,282.25
20:48:10:900,-1.8841,2.1051,10.9117,34.0645,-0.6304,0.3413,-1.8187,283.5469
20:48:10:920,-3.7947,0.0401,13.9954,34.5297,-0.58,0.226,-1.2203,286.4844
20:48:10:941,-4.5932,-1.163,15.7468,33.9239,-0.2788,0.1208,-0.374,288.5781
20:48:10:961,-4.598,-0.8996,16.3214,34.6373,0.0983,-0.063,0.4274,290.3438
20:48:10:981,-3.432,-0.6267,16.3429,33.0863,0.4892,-0.1679,0.9778,291.2344
20:48:11:001,-2.1223,-0.5716,15.1267,35.0356,0.7481,-0.1543,1.266,291.2031
20:48:11:025,0.2036,-0.7201,12.505,35.1076,0.7321,-0.2835,1.3779,290.3594
20:48:11:044,0.9937,-0.5704,13.0222,35.2439,0.5374,-0.5658,1.3526,289.0781
20:48:11:063,1.0643,-0.3801,13.4723,34.9698,0.3936,-0.6832,1.2109,287.5625
20:48:11:085,0.613,-0.4136,12.7624,35.0263,0.4014,-0.4821,1.0103,286.1094
20:48:11:100,0.2946,-0.5764,11.2301,35.2011,0.49,-0.0547,0.8796,284.6719
20:48:11:121,0.1366,-0.6087,8.8096,38.2527,0.6482,0.4249,0.8711,283.4375
20:48:11:143,0.0743,-0.319,6.5614,36.5147,0.7627,0.7211,0.9611,282.4531
20:48:11:162,0.2467,0.0293,5.004,35.9592,0.8304,0.7253,1.1094,281.4531
20:48:11:183,0.4526,0.3346,3.8488,35.8031,0.894,0.4934,1.233,279.7812
20:48:11:202,0.7507,0.7021,3.1928,36.2659,0.9183,0.149,1.3163,278.5312
20:48:11:225,1.2475,1.0193,3.3197,35.18,0.8538,-0.2142,1.3422,277.0938
20:48:11:245,1.5384,1.2384,4.0032,35.1722,0.7254,-0.4853,1.2657,275.5938
20:48:11:261,1.5911,1.3629,4.7107,38.4138,0.588,-0.6204,1.1171,274.8438
20:48:11:284,1.7239,1.473,6.0383,35.3111,0.4258,-0.647,0.9827,273.4688
20:48:11:300,1.9622,1.6658,7.1301,35.7244,0.3111,-0.5873,0.875,272.1875
20:48:11:322,2.1968,1.9698,7.8088,35.0297,0.2724,-0.4587,0.7387,271.0781
20:48:11:343,2.356,2.2476,8.2984,35.8078,0.2187,-0.3391,0.5334,270.1562
20:48:11:361,2.532,2.1506,8.7785,35.813,0.0999,-0.2209,0.2615,269.2969
20:48:11:380,2.4793,1.6813,9.6428,35.9644,-0.1089,-0.1399,-0.0467,268.6094
20:48:11:401,2.4087,0.9355,11.509,36.2601,-0.3734,-0.1389,-0.3063,268.1875
20:48:11:428,2.2339,0.185,13.5728,36.4953,-0.5688,-0.0726,-0.4733,268.1094
20:48:11:445,2.7056,-0.6985,13.8206,35.3219,-0.5561,0.1996,-0.5082,268.3438
20:48:11:463,2.9605,-0.7356,12.5182,34.2228,-0.4679,0.4822,-0.4342,269.1094
20:48:11:481,2.4841,-0.0269,12.1303,36.053,-0.5238,0.4604,-0.3513,269.6875
20:48:11:501,2.374,0.4076,12.8007,36.2169,-0.5577,0.1703,-0.2424,270.125
20:48:11:526,2.611,0.0688,12.4296,35.9197,-0.4165,-0.019,-0.2371,270.4844
20:48:11:542,2.35,-0.4304,11.5246,35.4426,-0.3095,-0.0033,-0.3172,270.7344
20:48:11:560,2.4961,-0.8565,10.9668,35.9624,-0.3721,0.0654,-0.3234,271.0156
20:48:11:582,2.8073,-0.7847,10.804,36.9436,-0.4703,-0.014,-0.268,271.375
20:48:11:601,2.8456,-0.4495,10.8243,36.2633,-0.5209,-0.2012,-0.2509,271.7344
20:48:11:625,2.5679,0.0102,10.2664,35.4783,-0.4863,-0.2488,-0.2898,272.0469
20:48:11:648,2.1058,0.4735,8.8263,36.3776,-0.4003,-0.0353,-0.358,272.3594
20:48:11:663,1.7922,0.9487,7.0151,36.0898,-0.3388,0.262,-0.4121,272.7031
20:48:11:681,1.4965,1.4778,5.6289,36.497,-0.3257,0.3805,-0.452,273.125
20:48:11:702,1.2858,1.9974,5.2602,35.6953,-0.3212,-0.0643,-0.5146,273.5781
20:48:11:727,1.1697,2.3002,5.7642,35.977,-0.2756,-0.2387,-0.5772,273.5781
20:48:11:744,1.1457,2.4068,6.3076,36.241,-0.2647,-0.1476,-0.66,274.0625
20:48:11:761,0.9877,2.6354,6.5423,34.9747,-0.3079,0.0825,-0.7742,274.8594
20:48:11:783,0.6705,2.7982,6.7326,35.8432,-0.3819,0.3131,-0.8946,276.5781
20:48:11:803,0.279,2.9287,7.0163,34.9505,-0.4951,0.5136,-0.9711,277.4688
20:48:11:827,-0.0119,3.2112,7.9285,35.2565,-0.5638,0.6649,-1.0211,277.4688
20:48:11:845,-0.4895,3.2938,8.9197,35.0752,-0.5007,0.6721,-1.0099,278.4688
20:48:11:862,-1.1,3.1454,9.972,37.3095,-0.3044,0.5277,-0.8712,279.5469
20:48:11:880,-1.5298,2.712,10.8902,35.9148,-0.017,0.4028,-0.6187,280.625
20:48:11:904,-1.3634,2.3792,10.8315,37.1288,0.1947,0.3363,-0.3444,281.7344
20:48:11:929,-0.857,2.3457,10.2353,37.3871,0.1848,0.2366,-0.1412,282.7031
20:48:11:944,-0.3698,2.2775,10.6088,37.0614,0.0381,0.0481,-0.0184,283.375
20:48:11:962,0.3197,1.8837,12.0849,36.3608,-0.0802,-0.0694,0.0481,283.75
20:48:11:980,1.3109,1.3928,13.3861,36.1068,-0.1633,-0.0755,0.0117,283.9062
20:48:12:000,1.0931,1.3904,14.2205,37.2519,-0.2527,-0.1983,-0.0571,283.9375
20:48:12:026,0.3437,1.2396,15.5624,34.9732,-0.1989,-0.2539,-0.0368,283.875
20:48:12:044,-0.183,0.5381,16.5692,34.8535,0.0711,-0.1122,0.0623,283.8906
20:48:12:060,-0.8103,-0.1012,15.991,37.3134,0.4389,0.136,0.2838,283.9531
20:48:12:080,-0.6104,-0.4998,13.7955,36.4222,0.6738,0.2803,0.4721,283.9531
20:48:12:100,-0.2477,-0.7548,11.3259,36.8256,0.7052,0.1799,0.5667,283.7812
20:48:12:127,-0.189,-0.8769,9.3746,36.1446,0.5215,-0.1897,0.6354,283.3438
20:48:12:144,-0.7134,-0.6291,9.2693,34.2492,0.2999,-0.5746,0.7533,282.7812
20:48:12:160,-0.8367,-0.5561,10.5023,35.5714,0.3167,-0.7189,0.8948,282.1094
20:48:12:181,-1.009,-0.5908,11.029,35.8329,0.5673,-0.6268,1.0748,281.375
20:48:12:254,-0.9121,-0.501,9.7673,37.262,0.7952,-0.4078,1.2884,280.5312
20:48:12:255,-0.5206,0.0808,7.5287,35.916,0.8,-0.2547,1.4322,279.4688
20:48:12:262,-0.0609,0.6063,6.2394,34.8114,0.7017,-0.215,1.4998,278.1562
20:48:12:263,0.4945,1.0529,5.7426,34.7482,0.6101,-0.2169,1.4908,277.4219
20:48:12:280,1.0703,1.3509,5.6947,35.7211,0.5736,-0.2374,1.4143,275.875
20:48:12:299,1.5288,1.5413,5.7378,35.4357,0.5665,-0.2907,1.2854,274.1719
20:48:12:323,1.7275,1.6646,5.9437,35.7302,0.555,-0.3844,1.1336,272.4844
20:48:12:345,1.8209,1.7843,6.6931,34.5308,0.5899,-0.4688,0.9715,270.9688
20:48:12:361,2.2447,1.9543,7.5335,34.3362,0.7001,-0.5418,0.7821,268.8594
20:48:12:381,2.6876,2.1315,8.2182,35.4194,0.853,-0.5354,0.5014,267.7031
20:48:12:401,2.5511,2.1087,8.1153,35.6892,0.8083,-0.3269,0.1898,266.7656
20:48:12:426,2.2255,1.9567,7.9106,35.7416,0.5475,0.099,-0.0597,266.0625
20:48:12:444,2.2399,1.8477,8.0351,35.2351,0.2232,0.4774,-0.2914,265.7031
20:48:12:460,1.8939,1.5832,8.6456,34.4946,-0.0637,0.6076,-0.4994,265.6094
20:48:12:480,1.1841,0.9128,10.2557,34.476,-0.2778,0.4284,-0.6283,265.7344
20:48:12:500,0.7244,0.2125,12.2955,34.9893,-0.3438,0.1165,-0.5647,266.0938
20:48:12:521,1.4809,0.0724,12.9803,36.4758,-0.2088,0.0377,-0.2885,266.6719
20:48:12:544,2.7834,0.8649,11.3414,36.2831,-0.0402,0.2444,-0.0288,267.3281
20:48:12:564,3.4334,1.8334,10.2126,36.0493,-0.1598,0.3075,-0.024,267.8281
20:48:12:580,3.1018,1.7472,11.363,36.2992,-0.5611,0.1451,-0.2621,267.9844
20:48:12:599,1.8604,0.811,13.1371,34.7682,-0.8669,0.0715,-0.5322,267.9219
20:48:12:620,0.6801,-0.0066,13.1096,36.3781,-0.8147,0.2849,-0.5953,268.0312
20:48:12:643,0.467,-0.0497,11.6898,36.6065,-0.608,0.5408,-0.3441,268.8438
20:48:12:660,1.8784,0.3585,10.2365,36.9604,-0.4232,0.519,0.0681,269.4688
20:48:12:681,3.0324,0.9092,9.4584,36.0683,-0.2871,0.1384,0.2873,269.7969
20:48:12:700,3.3544,1.3893,9.1196,35.6411,-0.2301,-0.2736,0.2489,269.6562
20:48:12:726,3.2215,1.6418,8.7629,37.4806,-0.2597,-0.3591,0.0654,269.4844
20:48:12:745,2.6589,1.6825,8.1045,37.7372,-0.3095,-0.1117,-0.19,269.1719
20:48:12:761,1.882,1.5628,7.0175,37.0997,-0.3159,0.2159,-0.4288,269.0312
20:48:12:780,1.0356,1.5844,6.1005,37.0997,-0.2834,0.385,-0.5681,269.125
20:48:12:800,0.7339,1.6275,5.5547,37.3948,-0.2093,0.3056,-0.5774,269.4688
20:48:12:820,1.0177,1.7951,5.4457,37.3594,-0.1182,0.0902,-0.5284,270.0156
20:48:12:842,1.5001,2.0644,5.5642,38.1806,-0.0639,-0.0779,-0.5202,270.6562
20:48:12:860,1.6677,2.5002,5.6971,37.693,-0.0764,-0.1223,-0.6198,271.2656
20:48:12:880,1.5468,2.6546,6.1915,38.218,-0.1848,-0.0965,-0.8115,271.8281
20:48:12:900,1.3217,2.5863,7.4976,37.254,-0.3577,-0.043,-1.0214,272.8594
20:48:12:926,0.777,2.4319,8.9832,36.9297,-0.4804,0.0612,-1.17,273.75
20:48:12:943,0.1833,2.4487,9.7397,37.7806,-0.4615,0.2289,-1.2083,274.9219
20:48:12:960,-0.1136,2.6067,10.1515,38.3005,-0.3707,0.3259,-1.1066,276.25
20:48:12:980,-0.3147,2.6941,10.2617,37.7157,-0.2887,0.3943,-0.9521,277.6094
20:48:13:001,-0.6511,2.6761,10.1467,38.6258,-0.2269,0.4135,-0.795,278.7812
20:48:13:026,-0.9935,2.5516,10.2329,40.1067,-0.2101,0.2971,-0.6163,279.8281
20:48:13:043,-0.9612,2.3254,11.3259,38.2592,-0.2565,0.0452,-0.375,280.7031
20:48:13:061,-0.3698,2.0393,13.2257,39.1059,-0.2983,-0.248,-0.0826,281.3594
20:48:13:086,0.9063,1.7663,14.7328,36.5244,-0.2458,-0.4696,0.1866,281.7656
20:48:13:099,1.2224,1.8214,15.4032,37.9507,-0.1377,-0.5764,0.2974,281.875
20:48:13:121,0.6106,1.9686,16.222,37.7074,0.1611,-0.4124,0.3257,281.6719
20:48:13:143,0.8453,1.4359,15.8222,37.9355,0.4898,0.1187,0.2449,281.6719
20:48:13:162,0.522,1.0181,12.7732,39.5316,0.6245,0.5208,0.1629,281.3906
20:48:13:181,0.37,0.7967,9.5231,38.9578,0.4682,0.2779,0.0985,281.0781
20:48:13:199,0.607,0.4866,8.302,38.8121,0.1601,-0.5383,-0.0267,280.7344
20:48:13:220,0.5771,0.0449,9.9049,37.3585,-0.0895,-1.1879,-0.1236,280.4531
20:48:13:243,0.3509,-0.6195,12.9037,38.222,-0.078,-1.0422,-0.1295,280.25
20:48:13:261,0.3545,-0.6422,13.9631,37.9062,0.1409,-0.2374,-0.0922,280.1875
20:48:13:279,0.1953,-0.0497,11.7281,39.3876,0.3177,0.4422,-0.068,280.4219
20:48:13:298,0.1282,0.1945,8.6097,37.5247,0.3422,0.671,-0.0075,280.6562
20:48:13:321,-0.2992,0.5345,6.4357,37.9195,0.2836,0.4723,0.1302,280.7656
20:48:13:344,-0.6463,0.7763,6.0922,37.785,0.3124,0.1264,0.3286,280.7969
20:48:13:363,-0.6451,0.7548,6.4345,37.5407,0.4685,-0.0973,0.5613,280.75
20:48:13:383,-0.3183,0.835,6.4262,38.1494,0.6357,-0.1668,0.7741,280.5625
20:48:13:399,0.1617,1.09,5.927,37.9717,0.6932,-0.2078,0.8998,280.2031
20:48:13:419,0.7244,1.4084,5.7797,37.6287,0.6472,-0.321,0.9182,279.5625
20:48:13:444,1.2403,1.7208,6.6105,38.1679,0.6091,-0.4278,0.8423,278.6875
20:48:13:462,1.5192,1.7412,7.7454,38.1205,0.5704,-0.37,0.7225,276.7188
20:48:13:479,1.5444,1.722,8.6575,39.6979,0.5153,-0.0755,0.6202,275.7969
20:48:13:500,1.5492,1.8058,9.0311,38.6787,0.4607,0.2558,0.5203,275.375
20:48:13:520,1.7718,2.1757,8.909,39.1073,0.4234,0.3959,0.373,274.3281
20:48:13:544,2.1968,2.5025,8.5618,39.7937,0.3345,0.2633,0.1219,273.9844
20:48:13:563,2.5499,2.3026,8.6312,39.8353,0.1238,0.0612,-0.1662,273.4062
20:48:13:581,2.3716,1.6107,9.5949,40.4705,-0.1774,0.0247,-0.3591,273.0469
20:48:13:599,1.7946,1.1199,11.3594,40.1248,-0.3582,0.1344,-0.3753,273.0469
20:48:13:620,2.1776,0.4747,12.5302,38.6702,-0.3502,0.271,-0.3058,273.375
20:48:13:643,3.1042,0.064,12.1818,38.8297,-0.3452,0.246,-0.2898,273.8125
20:48:13:660,3.2993,0.5429,11.7305,40.6456,-0.4085,0.0849,-0.3617,274.1562
20:48:13:680,2.7977,0.8721,12.359,39.8844,-0.3691,0.0042,-0.513,274.4531
20:48:13:701,1.8329,0.3597,12.8905,40.985,-0.1691,0.2518,-0.5247,274.7812
20:48:13:730,1.6665,-0.2699,11.2277,39.4011,-0.0226,0.4995,-0.4078,275.2656
20:48:13:749,2.1717,-0.2053,9.1927,39.994,-0.0072,0.2886,-0.3066,275.5781
20:48:13:769,3.443,-0.2999,7.9824,39.2767,-0.1382,-0.3218,-0.394,276.1406
20:48:13:779,3.6142,0.1167,8.2948,39.075,-0.4357,-0.9138,-0.5969,276.5469
20:48:13:800,2.8684,0.2688,10.5155,40.3541,-0.6285,-0.9085,-0.7812,277.0469
