Time,Acc_X,Acc_Y,Acc_Z,Meg,Gyr_X,Gyr_Y,Gyr_Z,Ore
19:06:04:912,-1.8267,2.9886,6.6728,60.124,-0.747,-0.0638,-0.9095,164.4375
19:06:04:962,1.548,3.5488,7.5933,58.8539,-0.8967,-1.4417,-0.6201,166.0938
19:06:04:979,0.6501,1.7616,10.5885,59.5888,-1.0445,-0.6076,-0.5311,166.0938
19:06:04:995,0.1952,0.8841,13.1156,59.6975,-0.8751,0.5264,-0.043,166.0938
19:06:05:012,1.0715,1.3533,12.5757,59.8673,-0.7193,0.691,0.2002,218.4062
19:06:05:031,1.9119,1.4252,12.5026,59.5819,-0.5353,0.1528,0.1392,219.3281
19:06:05:061,1.8772,1.1582,12.7409,60.5709,-0.1886,-0.2835,0.1302,219.375
19:06:05:078,2.1357,1.1343,12.177,59.9124,0.1443,-0.4363,0.1603,219.0625
19:06:05:095,2.5799,1.3797,10.7608,60.042,0.2469,-0.4707,0.0793,218.8906
19:06:05:111,2.5858,1.5916,9.5566,60.1322,0.1619,-0.496,-0.0512,218.8438
19:06:05:130,2.1812,1.6837,8.9892,60.2224,0.0764,-0.452,-0.0829,218.7656
19:06:05:163,1.8472,1.9998,8.5307,60.5923,0.0426,-0.4371,-0.0387,218.8438
19:06:05:181,1.7539,2.3314,8.2122,60.9871,0.0218,-0.4542,0.0146,219.0312
19:06:05:189,1.9753,2.7144,8.1476,60.6088,-0.041,-0.5149,-0.0206,219.2031
19:06:05:213,2.4326,3.0353,8.7007,59.9373,-0.1196,-0.5168,-0.1796,219.3125
19:06:05:228,2.7307,2.8904,9.3555,59.9373,-0.0999,-0.4166,-0.3639,219.4219
19:06:05:249,2.52,2.6797,9.5614,60.0823,0.0176,-0.3045,-0.4605,219.6719
19:06:05:283,2.1082,2.493,9.4081,59.8503,0.204,-0.2185,-0.4254,220.125
19:06:05:288,1.9885,2.4044,8.8946,61.0625,0.3694,-0.093,-0.3756,220.7031
19:06:05:314,1.7251,2.6989,7.81,60.6964,0.4296,0.0132,-0.3418,221.25
19:06:05:327,1.6461,3.0819,6.6548,61.9,0.3494,0.0004,-0.3732,221.7031
19:06:05:348,1.6725,3.4363,5.9066,59.9347,0.1907,-0.0073,-0.5167,222.0312
19:06:05:383,1.6378,3.3561,5.2458,61.3495,-0.0013,0.0177,-0.7458,222.1875
19:06:05:389,0.443,3.295,4.7562,60.2817,-0.1848,0.0255,-0.9391,222.5469
19:06:05:418,-1.3299,2.9443,4.8292,61.4731,-0.3009,-0.0792,-1.0422,223.4844
19:06:05:427,-3.2189,2.5337,5.2135,60.7794,-0.4157,-0.1359,-0.8656,224.4531
19:06:05:446,-3.9767,1.8597,6.0275,60.0219,-0.6546,0.1064,-0.5633,225.625
19:06:05:472,-4.4986,2.0477,7.0331,61.3681,-0.9502,0.2151,-0.1511,226.8281
19:06:05:489,-3.7923,2.2895,9.5063,59.0435,-1.0144,0.1863,0.1509,227.75
19:06:05:506,-2.8681,2.6558,12.0789,59.7041,-0.7971,0.3,0.2862,228.2188
19:06:05:524,-2.2576,2.9263,13.519,59.5354,-0.4671,0.3956,0.3414,228.2812
19:06:05:544,-1.7489,3.1681,13.5741,61.3805,-0.2666,0.3075,0.3416,228.0938
19:06:05:564,-0.8977,3.0628,13.3837,59.565,-0.3414,0.0771,0.299,227.7344
19:06:05:593,0.139,2.8078,14.2013,59.9534,-0.608,0.095,0.2229,227.3125
19:06:05:608,0.8596,2.2691,15.6007,60.1623,-0.7859,0.3775,0.1195,226.9375
19:06:05:623,0.54,1.7328,16.2627,61.9445,-0.7361,0.6143,0.1081,226.6719
19:06:05:643,-0.0286,1.3007,15.9371,60.1876,-0.5286,0.7046,0.2631,226.5469
19:06:05:664,0.0432,0.92,14.9148,61.5079,-0.2429,0.6694,0.4756,226.3438
19:06:05:689,0.4694,0.659,13.41,62.1662,0.0282,0.4769,0.6178,225.9688
19:06:05:708,0.9219,0.5704,11.9268,61.8951,0.1768,0.107,0.6268,225.3594
19:06:05:722,1.1589,0.4735,11.1188,60.4362,0.2115,-0.1748,0.5499,224.5625
19:06:05:741,0.8692,0.4148,10.8494,60.2663,0.2399,-0.3005,0.4756,223.7969
19:06:05:761,0.5783,0.3549,10.3933,60.9766,0.338,-0.2547,0.4607,223.2031
19:06:05:781,0.2838,0.4471,9.1136,60.9108,0.4456,-0.1761,0.5014,222.6875
19:06:05:807,0.1917,0.7153,7.6005,60.3536,0.5052,-0.1852,0.5254,222.1719
19:06:05:820,0.212,1.0098,6.3053,61.8906,0.4591,-0.2763,0.499,221.8906
19:06:05:842,0.1078,1.1857,5.5834,63.2129,0.3337,-0.3303,0.4535,221.2969
19:06:05:875,-0.0741,1.2707,5.5403,61.6335,0.2099,-0.2904,0.4346,220.6719
19:06:05:880,-0.1196,1.2025,5.933,60.9491,0.167,-0.2169,0.4399,220.1406
19:06:05:910,-0.1795,1.1702,6.2251,62.6459,0.1747,-0.2321,0.4684,219.7031
19:06:05:932,-0.116,1.248,6.7817,61.6209,0.2237,-0.2566,0.4958,219.2188
19:06:05:939,0.1198,1.3641,7.4138,61.8286,0.3113,-0.1245,0.4852,218.4531
19:06:05:976,0.2755,1.5772,8.0494,63.6587,0.3979,0.1741,0.4245,217.9375
19:06:05:987,0.2683,1.7017,8.5654,62.2516,0.4754,0.5688,0.3283,217.3594
19:06:05:998,-0.2704,1.5844,8.1512,61.6433,0.4884,0.8809,0.3219,216.7812
19:06:06:018,-0.7361,1.9064,7.4688,62.516,0.3776,0.8289,0.3741,216.2188
19:06:06:039,-0.7876,2.3996,7.7142,64.3866,0.1838,0.4146,0.3153,215.5781
19:06:06:061,-0.8283,2.3972,9.6595,63.5773,0.0314,-0.0536,0.2085,214.9062
19:06:06:078,-0.6786,1.6358,12.529,64.0356,0.0402,-0.3721,0.2356,214.4219
19:06:06:100,0.2563,1.0612,15.2177,63.1493,0.2349,-0.3895,0.3696,214.4219
19:06:06:123,1.9263,1.1007,16.0664,64.0593,0.5617,-0.0584,0.3872,214.2031
19:06:06:145,2.6649,2.0848,12.9779,64.2774,0.5659,0.0066,0.1754,214.0156
19:06:06:159,2.8432,3.0963,10.4197,63.6222,0.0652,-0.3937,-0.2744,213.6562
19:06:06:177,2.6685,2.4942,11.8801,63.9306,-0.5422,-0.3253,-0.7213,213.1562
19:06:06:195,1.4953,0.8506,14.1331,64.016,-0.796,0.3155,-0.8829,212.875
19:06:06:216,0.0899,-0.2723,14.1127,63.5615,-0.7001,0.8143,-0.7058,213.2656
19:06:06:240,-0.1783,-0.6051,12.2692,63.146,-0.3902,0.7677,-0.3876,215.2656
19:06:06:260,0.6633,-0.1119,9.8595,63.9768,-0.0985,0.157,-0.1926,215.6875
19:06:06:276,1.6665,0.6051,8.2577,62.5521,0.0642,-0.484,-0.2302,216.1875
19:06:06:295,1.9502,0.9248,7.2474,62.9276,0.0727,-0.6907,-0.3982,216.4062
19:06:06:316,1.4713,0.9691,6.3986,61.6434,-0.0381,-0.5714,-0.526,216.5156
19:06:06:341,1.0895,0.999,5.8659,63.5863,-0.2016,-0.3626,-0.5964,216.8594
19:06:06:358,0.7543,1.181,5.842,63.3457,-0.3467,-0.2092,-0.6525,217.4688
19:06:06:375,0.1653,1.2623,6.7494,62.9345,-0.3409,-0.0457,-0.6613,218.1719
19:06:06:395,-0.3734,1.0744,7.8124,62.3234,-0.0977,0.2244,-0.5686,218.9688
19:06:06:416,-0.6487,1.1606,7.2905,63.3599,0.1931,0.4446,-0.4097,219.7969
19:06:06:441,-0.5817,1.7544,5.9126,62.6758,0.3177,0.4265,-0.3111,220.625
19:06:06:458,-0.5685,2.5768,5.8216,63.607,0.3201,0.2513,-0.337,221.2031
19:06:06:475,-0.8738,2.8725,7.8507,63.0275,0.4445,0.0673,-0.4251,221.5469
19:06:06:501,-1.1431,2.6809,9.7433,62.5103,0.6855,0.1349,-0.3836,221.7656
19:06:06:516,-0.9695,2.9958,9.7098,62.5168,0.7401,0.3672,-0.3551,222.4688
19:06:06:536,-1.2975,3.799,9.0418,61.92,0.4621,0.4207,-0.3471,222.6406
19:06:06:558,-1.7584,4.0205,10.2557,61.6163,0.1278,0.5842,-0.2467,222.9062
19:06:06:577,-1.7884,3.7703,11.6587,62.1491,-0.0003,0.9517,-0.0392,223.125
19:06:06:596,-1.7189,3.9307,12.3722,60.7585,0.081,1.0689,0.1789,223.3281
19:06:06:617,-1.3383,3.9534,12.7672,62.8908,0.306,0.7997,0.3382,223.2969
19:06:06:642,-0.8295,3.4602,13.2448,62.8459,0.5947,0.4481,0.4465,222.9531
19:06:06:659,-0.7241,3.0855,12.5218,62.6749,0.7635,0.2747,0.5829,222.375
19:06:06:675,-0.6367,3.3477,10.8578,62.3092,0.6203,0.1293,0.7051,221.7344
19:06:06:695,0.4682,3.8768,10.3191,61.9049,0.2892,-0.1232,0.5254,221
19:06:06:717,0.965,3.0795,11.7904,61.0044,0.1891,-0.1461,0.0796,220.1875
19:06:06:740,-1.1431,1.5365,12.037,61.9768,0.3633,-0.1399,-0.0658,219.3906
19:06:06:759,-2.4037,0.5465,10.6411,61.4826,0.4216,-0.1583,0.1331,219.0781
19:06:06:775,-2.1894,0.5166,8.8527,61.5958,0.1507,-0.1301,0.3203,219.1562
19:06:06:795,-1.3981,1.3497,8.5666,61.526,-0.2165,-0.3479,0.392,219.1562
19:06:06:817,-0.881,1.3545,9.4261,60.0204,-0.4754,-0.7144,0.3488,219.0469
19:06:06:842,-0.6631,1.2671,9.6104,60.3211,-0.5811,-0.8028,0.2979,218.5469
19:06:06:861,-0.8307,1.4299,9.5877,59.4218,-0.583,-0.5647,0.2796,218.3125
19:06:06:941,-1.0246,1.2456,8.8024,60.9835,-0.4876,-0.1354,0.2812,218.2344
19:06:06:941,-1.2269,1.23,7.1157,60.745,-0.343,0.3549,0.3395,218.1875
19:06:06:958,-0.3123,1.418,6.2322,60.1528,-0.2498,0.5994,0.4503,218.0312
19:06:06:959,-2.3067,2.0752,5.3691,58.4415,-0.106,0.4918,0.3688,217.7188
19:06:06:978,-1.0102,1.6251,4.9166,58.57,0.0298,0.2399,0.6101,217.1406
19:06:06:978,-0.9061,2.1494,4.9561,59.119,0.0738,-0.0419,0.6985,217.1406
19:06:06:994,-0.3111,2.335,5.1584,58.7446,0.0535,-0.2081,0.7115,215.9531
19:06:07:015,0.0145,2.7863,5.9222,57.583,-0.0346,-0.317,0.6439,215.125
19:06:07:040,0.3724,3.0353,7.2653,57.5422,-0.1228,-0.4166,0.4966,214.3906
19:06:07:058,0.443,3.0329,8.6959,58.7258,-0.1143,-0.5314,0.2564,213.6719
19:06:07:074,0.0659,2.9527,9.717,57.0446,-0.0085,-0.5964,-0.0145,212.9219
19:06:07:095,-0.5326,2.6809,10.4676,57.3526,0.0919,-0.5109,-0.2344,212.7812
19:06:07:115,-0.9648,2.408,10.6555,56.9325,0.1009,-0.2654,-0.33,212.9375
19:06:07:139,-1.0043,2.1458,11.5665,57.6143,-0.0884,-0.0195,-0.3183,213.3281
19:06:07:156,-0.8127,1.7771,13.3071,56.2176,-0.3531,0.165,-0.2565,213.75
19:06:07:175,-0.292,1.2205,14.8645,56.8977,-0.4171,0.2433,-0.1782,214.125
19:06:07:197,0.6597,0.9631,13.8997,56.5352,-0.1358,0.2961,-0.064,214.4219
19:06:07:216,1.4618,1.7352,11.8933,56.7733,0.1382,0.2763,0.0242,214.625
19:06:07:242,2.2423,2.2787,12.1938,55.233,0.0293,-0.0707,-0.073,214.6719
19:06:07:254,2.2866,1.3533,13.8637,54.9745,-0.2085,-0.4379,-0.4443,214.5938
19:06:07:276,1.6856,-0.1861,13.9859,54.9585,-0.2751,-0.3567,-0.7844,214.5156
19:06:07:300,0.6202,-0.7967,12.11,53.2337,-0.1774,0.0851,-0.8262,214.875
19:06:07:314,0.4143,-0.1981,9.5183,52.8733,-0.0413,0.3674,-0.545,214.875
19:06:07:335,1.2595,0.9355,7.9058,52.9721,-0.0013,0.0806,-0.2001,216.7656
19:06:07:359,1.5001,1.4611,7.573,53.0204,-0.0711,-0.6201,-0.1172,217.5312
19:06:07:380,1.1003,1.2947,7.7382,53.2338,-0.1579,-1.1509,-0.1836,217.9375
19:06:07:395,0.959,1.2121,7.3994,52.1246,-0.1981,-1.1919,-0.15,218.2344
19:06:07:415,0.9949,1.4168,6.6632,52.6248,-0.1872,-0.9493,-0.0635,218.75
19:06:07:441,1.3026,1.9567,6.3543,52.269,-0.1571,-0.7844,-0.0161,219.2188
19:06:07:459,1.3696,2.2931,6.1784,52.269,-0.098,-0.7101,-0.0661,219.5625
19:06:07:474,1.0512,2.3421,5.8815,52.1616,-0.0429,-0.5418,-0.2081,219.8125
19:06:07:495,0.7639,2.5373,5.8073,51.8652,-0.0607,-0.007,-0.3894,220.0625
19:06:07:516,0.4275,2.651,5.5523,51.0102,-0.0748,0.1506,-0.4539,220.0625
19:06:07:540,0.1665,2.8126,5.423,51.0102,-0.127,0.153,-0.5106,220.4375
19:06:07:557,-0.1806,3.0652,5.8743,53.054,-0.1997,0.0542,-0.5828,220.875
19:06:07:575,-0.6427,3.1394,7.2737,50.3323,-0.1995,-0.0299,-0.6174,221.3125
19:06:07:594,-1.0426,3.2184,8.3367,51.7997,-0.1742,-0.1346,-0.5977,221.8125
19:06:07:614,-1.1707,3.5512,9.5769,51.6266,-0.2109,-0.2017,-0.5814,222.375
19:06:07:635,-1.3131,3.5847,11.3271,51.8775,-0.2959,-0.0379,-0.5796,224.5156
19:06:07:658,-1.8805,2.9862,13.7704,48.5744,-0.3374,0.4883,-0.4358,224.8906
19:06:07:684,-2.357,2.3601,15.7815,50.5555,-0.2195,1.1357,-0.1162,225.6406
19:06:07:694,-2.1559,2.2105,16.2304,49.4779,-0.0104,1.4071,0.23,226.2344
19:06:07:715,-0.8977,2.3601,15.6893,50.5817,0.1321,1.3024,0.4183,226.3906
19:06:07:734,0.2491,3.2747,15.1147,48.9442,0.1529,0.8739,0.3288,226.2812
19:06:07:757,0.8405,3.2663,15.9359,49.4399,0.2645,0.5616,-0.0485,225.6875
19:06:07:782,-0.6523,1.1905,16.1155,51.2068,0.5715,0.5331,-0.1857,224.9062
19:06:07:793,-1.95,-1.0397,14.4503,50.781,0.7912,0.7765,0.2071,224.2969
19:06:07:814,-1.8027,-1.7508,11.521,50.9638,0.8067,0.858,0.8375,224.1875
19:06:07:836,-0.456,-0.4256,8.7366,51.0415,0.5854,0.3392,1.0948,224.2188
19:06:07:857,0.6932,1.0301,7.7944,50.6517,0.2378,-0.4182,0.8186,223.7031
19:06:07:875,0.4275,1.1738,8.405,50.9715,-0.0778,-0.9101,0.5118,222.4531
19:06:07:895,-0.1663,0.6638,9.2322,51.0866,-0.297,-0.8704,0.4449,221.125
19:06:07:915,-0.4691,0.7236,9.6727,51.6707,-0.3824,-0.5157,0.4993,220.0625
19:06:07:934,-0.3327,0.981,9.1807,48.9083,-0.3262,-0.0872,0.5262,219.8281
19:06:07:955,-0.3542,1.3414,7.6628,51.5345,-0.2306,0.1762,0.5243,219.5625
19:06:07:977,-0.3686,1.4443,6.2526,49.3059,-0.1065,0.2042,0.5448,219.0781
19:06:08:001,-0.2621,1.6406,5.022,50.2003,0.0176,0.0651,0.5675,218.5
19:06:08:013,-0.1232,1.9746,4.1277,51.0482,0.0599,-0.0592,0.5478,217.8906
19:06:08:036,0.2144,2.0883,3.6549,51.2658,-0.0586,-0.0254,0.4678,217.2188
19:06:08:057,0.1737,1.989,4.0451,49.0437,-0.2109,0.1847,0.4119,216.5625
19:06:08:074,-0.1076,1.916,4.9058,51.8086,-0.2096,0.238,0.425,215.9844
19:06:08:099,-0.0214,1.8705,5.7785,52.9804,-0.0016,-0.0467,0.4109,215.5312
19:06:08:113,0.0444,2.0979,6.6787,52.4529,0.2274,-0.4262,0.3344,215.0312
19:06:08:135,0.1725,2.1302,7.0846,50.857,0.2053,-0.554,0.1706,214.5312
19:06:08:158,-0.2704,1.8418,8.3523,52.5896,-0.0618,-0.2427,0.0726,214.1406
19:06:08:174,-0.4356,1.6562,10.2138,50.673,-0.3286,0.1922,0.0244,213.9375
19:06:08:198,0.2922,1.7603,14.3127,51.5845,-0.4013,0.3022,-0.1045,213.9219
19:06:08:215,0.3305,1.2588,14.8322,52.6971,-0.2304,0.2369,-0.3008,213.9062
19:06:08:238,0.4945,0.665,13.3933,51.6377,0.0056,0.2412,-0.4605,213.9219
19:06:08:260,1.0045,0.6985,11.2828,51.9961,0.0035,0.3496,-0.5479,214.1406
19:06:08:276,1.5061,1.0241,11.1966,51.1991,-0.3289,0.2859,-0.6523,214.5469
19:06:08:294,1.2894,0.3801,13.9523,53.196,-0.7811,-0.056,-0.9215,215.0312
19:06:08:314,0.6705,-1.2001,16.4052,51.233,-1.0038,-0.1511,-1.162,215.6406
19:06:08:334,-0.1268,-2.0045,15.7839,52.9019,-0.8104,0.1986,-1.1269,216.5625
19:06:08:358,0.285,-1.497,12.8642,53.6152,-0.3441,0.4966,-0.7346,217.8594
19:06:08:375,2.0974,-0.161,9.9516,52.0579,0.0394,0.3722,-0.2435,219.3438
19:06:08:394,3.4765,1.0301,8.2434,53.5252,0.1696,-0.1532,-0.1074,220.4531
19:06:08:414,3.7147,1.3916,7.9225,53.49,0.0695,-0.7274,-0.3252,220.875
19:06:08:434,2.9402,1.2372,8.0422,53.5892,-0.1148,-0.9,-0.648,220.9688
19:06:08:458,1.682,0.9954,7.8351,51.8901,-0.241,-0.66,-0.8749,221.2656
19:06:08:475,0.7806,0.7524,7.2617,53.1258,-0.2748,-0.2867,-0.9346,222.0156
19:06:08:494,0.3952,0.7177,6.3747,53.4972,-0.1886,-0.0366,-0.8616,223.0469
19:06:08:515,0.1785,0.926,5.6959,52.5864,-0.0099,-0.0771,-0.7332,224.8125
19:06:08:534,0.0947,1.2312,5.9365,53.4079,0.1947,-0.4592,-0.6097,225.8281
19:06:08:559,0.1402,1.5209,5.9952,54.1435,0.4298,-0.8361,-0.5189,226.6406
19:06:08:577,0.3042,1.7963,6.3412,53.0899,0.5753,-1.0417,-0.4882,227.4219
19:06:08:594,0.5089,2.2512,6.5901,52.8958,0.5955,-0.9202,-0.5181,228.1406
19:06:08:615,0.5795,2.791,6.978,52.4437,0.5452,-0.6342,-0.6038,228.8281
19:06:08:634,0.4682,3.3465,6.7518,52.9423,0.4517,-0.3751,-0.7625,229.5625
19:06:08:658,-0.0981,3.4866,6.1796,53.2911,0.1478,0.1325,-1.0227,230.3281
19:06:08:677,-1.1431,3.307,7.4928,51.9018,-0.4495,0.5765,-1.2613,231.1875
19:06:08:694,-1.4843,3.0448,9.5674,54.7801,-0.935,0.6236,-1.3263,232.2969
19:06:08:717,-1.4592,2.7504,11.0685,53.9992,-1.0727,0.405,-1.2731,232.9531
19:06:08:740,-1.3083,2.0728,12.9456,55.1598,-1.0005,0.0529,-1.2241,234.3906
19:06:08:759,-0.213,1.0828,15.1877,54.4761,-0.7286,0.0582,-1.1362,235.7812
19:06:08:774,-1.3107,1.0337,16.2544,53.403,-0.1856,0.2047,-1.2017,237.2812
19:06:08:796,-0.9684,0.3753,16.3058,54.5484,0.457,0.2455,-0.9071,238.7031
19:06:08:814,0.2383,0.6279,15.3027,52.7738,1.0551,0.0998,-0.3117,240.6406
19:06:08:835,2.0268,1.5042,13.082,54.6889,1.4434,0.2231,0.0883,241.5938
19:06:08:857,0.2312,2.2715,11.5737,53.2266,1.4954,0.7562,-0.1186,241.8438
19:06:08:875,-2.424,1.0349,11.3618,54.2673,1.3691,1.1038,-0.3008,241.6094
19:06:08:895,-3.8055,-0.6805,11.9149,55.3741,1.1694,0.5163,-0.1087,241.4375
19:06:08:917,-3.2225,-0.9978,12.1124,53.2311,0.9034,0.0393,0.797,241.375
19:06:08:942,-2.8837,0.5632,11.199,53.4342,0.7345,0.0819,1.1046,241.2969
19:06:08:999,-2.576,2.4331,10.0091,53.6928,0.4887,-0.194,1.347,241.2969
19:06:09:000,-0.9564,2.7934,9.3974,53.4149,0.2413,-0.4952,1.2905,239.875
19:06:09:000,0.5233,2.4092,8.8347,54.2856,0.0189,-0.5895,0.9952,238.5469
19:06:09:013,0.4478,2.2057,7.9513,52.6118,-0.2109,-0.4419,0.7991,237.1094
19:06:09:035,0.1617,1.746,6.8104,52.7695,-0.3947,-0.2678,0.7131,235.7969
19:06:09:058,-0.0238,1.4491,5.9952,52.7195,-0.5068,-0.2917,0.654,234.8594
19:06:09:075,-0.0813,1.2815,5.9569,51.2483,-0.5039,-0.4028,0.5904,234.1406
19:06:09:095,-0.0741,1.3282,6.2227,50.8964,-0.4218,-0.4496,0.531,233.1562
19:06:09:113,0.2731,1.4407,6.5363,51.5356,-0.3417,-0.2643,0.4391,232.6094
19:06:09:134,0.4371,1.5018,6.4166,51.6753,-0.3702,-0.0217,0.3802,232.2031
19:06:09:158,0.1438,1.6023,6.3304,52.8021,-0.4301,0.1829,0.421,231.7969
19:06:09:175,0.1773,1.7699,6.407,52.011,-0.4314,0.2433,0.454,231.4531
19:06:09:194,0.6729,1.8968,6.2873,51.0545,-0.466,0.2958,0.3882,231.25
19:06:09:214,1.2044,2.0656,5.836,51.3111,-0.669,0.5719,0.2732,230.7969
19:06:09:234,1.196,2.2583,5.6205,50.9266,-0.8879,0.6716,0.1134,230.2656
19:06:09:258,0.1318,2.5157,6.832,49.3061,-0.9659,0.5024,-0.039,229.8125
19:06:09:275,-0.6356,2.0141,8.6504,49.8931,-0.951,0.2955,-0.0326,229.4219
19:06:09:294,-0.4452,0.9703,10.8016,49.4476,-0.8245,0.067,0.1099,229.25
19:06:09:313,0.0504,0.2077,12.517,48.0041,-0.6464,-0.2462,0.2921,229.2969
19:06:09:333,0.6717,0.3514,14.8849,48.8517,-0.2908,-0.178,0.4018,229.375
19:06:09:358,1.8915,0.3418,15.9611,48.6076,0.2312,-0.1077,0.2335,229.3281
19:06:09:377,1.8736,0.2304,15.0489,47.989,0.5976,0.1006,0.1382,228.9375
19:06:09:394,2.4638,-0.1838,12.8701,48.2959,0.7169,0.308,0.1155,228.5938
19:06:09:414,3.2155,0.7045,9.9205,47.2451,0.4759,-0.1663,-0.0749,228.3594
19:06:09:434,3.9996,2.0764,9.5278,47.5467,-0.09,-1.3133,-0.6691,228.0781
19:06:09:458,4.3767,1.2659,13.1323,47.3099,-0.5364,-1.8177,-1.2856,227.875
19:06:09:475,4.0451,-1.0193,17.1821,45.8716,-0.3896,-1.423,-1.5514,228.3594
19:06:09:493,2.1154,-2.3565,14.6945,47.7054,-0.306,-1.0382,-1.3367,229.9688
19:06:09:513,0.4598,-1.6718,12.8019,47.4191,-0.2818,-0.256,-0.8262,232.1406
19:06:09:534,1.0703,-0.8697,11.284,44.873,-0.1089,-0.0835,-0.6422,234.125
19:06:09:556,1.0548,-0.228,9.6093,45.0235,0.0874,0.0076,-0.5559,235.5469
19:06:09:574,0.8429,0.0509,7.7921,44.69,0.249,0.1339,-0.4429,236.4062
19:06:09:593,0.0097,0.4998,4.5467,46.6643,0.3774,0.1086,-0.3154,237.1094
19:06:09:614,-0.2597,0.7943,3.7351,45.6708,0.4197,-0.1266,-0.1868,237.6094
19:06:09:634,-0.4153,1.1546,3.5423,44.743,0.3534,-0.3418,-0.072,237.9688
19:06:09:659,-0.2692,1.4994,3.9266,44.0578,0.1798,-0.3447,0.021,238.1875
19:06:09:674,0.2563,1.728,4.8639,44.3545,-0.0458,-0.1772,0.0521,238.3281
19:06:09:693,0.443,1.9208,5.7414,44.0751,-0.2101,0.1355,-0.0264,238.4062
19:06:09:712,0.0612,2.1602,6.5171,44.0751,-0.289,0.4462,-0.1894,238.4219
19:06:09:732,-0.9288,2.1159,7.1923,44.6557,-0.2887,0.5996,-0.3242,238.4062
19:06:09:754,-2.3223,2.0201,8.7629,44.69,-0.2535,0.4252,-0.3716,238.5
19:06:09:776,-3.0154,1.8202,10.8674,43.6168,-0.1979,0.2018,-0.2238,238.7031
19:06:09:792,-2.6982,1.4419,12.8127,42.5296,-0.0671,0.1125,0.0758,239.0156
19:06:09:813,-2.0661,1.5736,13.428,43.2928,0.1545,0.2798,0.4375,239.3281
19:06:09:834,-0.9731,1.8322,13.0844,43.2874,0.3627,0.4433,0.7624,239.4062
19:06:09:859,0.3485,1.8034,13.1706,42.1517,0.4232,0.4415,0.9459,239.0625
19:06:09:877,1.6437,1.8465,13.0713,42.8275,0.3619,0.4633,1.0135,238.2812
19:06:09:895,2.5068,2.2643,12.9468,41.0283,0.1806,0.4553,0.9864,237.1094
19:06:09:912,3.0228,2.086,14.2133,42.6144,-0.1143,0.1805,0.8231,235.7969
19:06:09:933,2.2351,0.7572,15.0333,41.9974,-0.2136,-0.0363,0.4825,233.9219
19:06:09:957,0.7447,-0.5165,13.9368,42.9824,0.0011,-0.052,0.238,232.9531
19:06:09:974,0.5532,-1.1582,11.6743,40.8215,0.1902,0.1842,0.3488,232.4375
19:06:09:993,1.2762,-1.0493,9.6392,42.7653,0.1009,0.5011,0.6029,232.1875
19:06:10:013,1.9777,-0.4268,8.6013,42.8287,-0.1483,0.4753,0.7105,231.7188
19:06:10:033,1.8831,-0.1275,8.3463,43.2732,-0.4147,0.1312,0.5376,230.8906
19:06:10:057,1.4462,-0.3286,8.393,43.1636,-0.5667,-0.2459,0.2873,229.9844
19:06:10:073,0.9901,-0.4196,8.2876,41.7475,-0.5904,-0.4592,0.1379,229.4219
19:06:10:093,0.5316,-0.4699,7.7478,42.9871,-0.5265,-0.4241,0.0921,229.2344
19:06:10:113,0.1091,-0.2173,7.1971,42.8972,-0.4543,-0.3202,0.1368,229.2656
19:06:10:133,0.1234,0.082,6.8547,40.4069,-0.4099,-0.2483,0.2521,229.3281
19:06:10:157,0.3114,0.4304,6.5794,42.6682,-0.3803,-0.1745,0.3485,229.3438
19:06:10:177,0.5711,0.7775,6.6189,43.0966,-0.3925,-0.0696,0.3962,229.25
19:06:10:193,0.9458,0.9427,6.656,41.8087,-0.3715,0.0414,0.3962,229
19:06:10:213,1.0188,1.0828,6.7961,41.1194,-0.3113,0.063,0.3224,228.6719
19:06:10:234,1.0177,1.2288,6.9445,43.8706,-0.2501,0.0867,0.2199,228.2812
19:06:10:257,1.22,1.2959,7.476,43.6078,-0.2184,0.1211,0.135,227.75
19:06:10:275,0.771,1.3713,8.0291,42.8657,-0.1747,0.0902,-0.0049,227.5469
19:06:10:294,0.2766,1.248,9.1424,40.9384,0.028,-0.3506,-0.1692,227.4062
19:06:10:313,0.1186,1.0289,10.312,42.4181,0.1611,-0.427,-0.1748,227.4062
19:06:10:333,-0.1807,1.0648,10.962,42.7258,0.1547,-0.4201,-0.1657,227.4219
19:06:10:359,-0.1364,0.8493,11.9663,42.6415,0.0154,-0.3141,-0.1306,227.8438
19:06:10:375,0.2742,0.3932,13.2077,41.0228,-0.1438,-0.1221,-0.0861,228.0938
19:06:10:394,0.7627,-0.0102,14.5054,42.6415,-0.2005,0.2159,-0.0062,228.3281
19:06:10:412,1.3504,-0.2137,14.7257,43.3826,-0.151,0.4524,0.0609,228.5312
19:06:10:432,1.6449,0.1119,13.6878,42.1252,-0.2139,0.198,0.144,228.6875
19:06:10:452,2.6756,0.6889,13.9858,42.9755,-0.3289,-0.4496,0.0226,228.6875
19:06:10:473,3.3316,-0.0569,16.1921,42.4149,-0.1832,-0.6766,-0.3284,228.5625
19:06:10:492,2.86,-1.9148,17.0325,42.0854,0.2141,-0.1122,-0.5151,228.3906
19:06:10:513,1.87,-3.1861,14.242,42.5788,0.5345,0.6982,-0.37,228.7188
19:06:10:532,1.7347,-2.9419,9.8223,43.659,0.5457,0.9357,-0.1468,229.3125
19:06:10:554,2.3416,-1.8489,6.668,43.6247,0.3044,0.4444,-0.1378,229.7188
19:06:10:575,2.6122,-0.829,6.079,44.3019,0.0269,-0.1775,-0.2986,229.7344
19:06:10:599,2.5033,-0.4411,6.8523,43.4965,-0.082,-0.4326,-0.4885,229.6406
19:06:10:613,2.0819,-0.392,7.2139,43.0007,-0.0245,-0.4193,-0.6214,229.8438
19:06:10:632,1.4163,-0.4124,6.814,43.1908,0.0645,-0.248,-0.6358,230.0781
19:06:10:652,0.8453,-0.3609,5.9054,43.0607,0.0471,0.0079,-0.55,230.7344
19:06:10:673,0.5173,-0.0461,5.1943,43.1386,-0.033,0.1677,-0.4384,231.4844
19:06:10:695,0.5232,0.4447,5.2877,43.4438,-0.0525,0.1943,-0.3761,232.2656
19:06:10:713,0.6549,0.8122,5.5164,42.2282,0.0099,0.1781,-0.3852,232.875
19:06:10:732,0.8824,1.1845,5.18,42.6841,-0.0085,0.1677,-0.4358,233.3281
19:06:10:752,1.0979,1.6777,5.2662,42.6605,-0.1108,0.1472,-0.5143,233.7344
19:06:10:774,1.0512,2.086,5.8659,43.1994,-0.1984,0.0196,-0.5964,234.125
19:06:10:792,0.7172,2.4187,6.7614,43.2431,-0.2684,-0.2033,-0.5881,234.8438
19:06:10:812,1.0943,2.8545,8.3786,43.0115,-0.3103,-0.3788,-0.4848,235.4844
19:06:10:832,2.016,3.404,10.5095,43.7641,-0.2471,-0.3823,-0.4507,236.2344
19:06:10:852,2.35,3.8684,12.4607,42.9495,-0.0969,-0.3796,-0.5114,236.9219
19:06:10:872,1.9023,3.4902,14.7041,42.2929,0.1854,-0.3314,-0.4845,237.5469
19:06:10:892,1.3648,2.5073,16.4603,43.4707,0.5513,-0.0776,-0.33,238.2031
19:06:10:913,1.0165,1.552,16.5453,41.8491,0.7872,0.3882,-0.1591,238.875
19:06:10:934,0.5987,0.9738,13.1898,42.9919,0.8155,0.8034,-0.1287,239.3125
19:06:10:961,-0.4823,0.3047,12.3123,42.6017,0.6583,0.7767,-0.2525,239.4531
19:06:10:977,-2.029,-0.8924,12.7121,41.7862,0.498,0.3847,-0.3151,239.3281
19:06:10:993,-3.341,-1.8932,13.1072,42.3289,0.5143,-0.0406,-0.2067,239.2344
19:06:11:051,-2.3881,-2.5528,13.1443,41.0503,0.6045,-0.2076,0.188,239.3594
19:06:11:052,-0.6344,-2.5397,11.6683,41.8663,0.6663,0.0936,0.6202,239.6094
19:06:11:054,0.6406,-1.716,9.6811,43.1401,0.6844,0.2534,0.8348,239.625
19:06:11:076,1.6449,-0.8038,8.9927,42.6074,0.5699,-0.0781,0.8844,239.0938
19:06:11:095,2.0938,-0.4842,9.3028,43.0705,0.3907,-0.5706,0.7318,238.0781
19:06:11:112,1.8676,-0.6027,9.3878,43.9998,0.237,-0.7282,0.4908,236.5
19:06:11:132,1.384,-0.6494,8.6695,41.6545,0.139,-0.4257,0.3501,236.0781
19:06:11:153,0.8465,-0.3837,7.2534,43.0187,0.0586,0.0904,0.3318,235.5469
19:06:11:177,0.7064,0.0066,5.8061,42.6857,-0.0109,0.4859,0.388,235.0625
19:06:11:194,1.0488,0.5225,4.9058,43.8403,-0.0898,0.5679,0.4687,234.9062
19:06:11:219,1.3708,1.0541,4.7215,43.8915,-0.1739,0.3437,0.5089,234.4062
19:06:11:232,1.6772,1.4539,5.0244,41.8794,-0.24,0.0489,0.4585,233.7656
19:06:11:255,2.0579,1.5245,5.3117,42.3447,-0.2298,-0.2076,0.3496,233.1094
19:06:11:279,2.3692,1.6765,6.0335,43.0596,-0.1814,-0.4086,0.2002,232.5312
19:06:11:293,2.5847,1.9675,6.9194,42.3531,-0.1438,-0.4851,0.0495,232.1094
19:06:11:313,2.6984,2.3182,7.1013,42.6183,-0.0887,-0.37,-0.134,231.9219
19:06:11:333,2.3943,2.5744,7.0786,43.2696,-0.1111,-0.2494,-0.3644,231.9219
19:06:11:357,1.6832,2.5648,7.6412,42.3508,-0.2794,-0.1596,-0.5806,232.0938
19:06:11:374,0.7878,2.3002,9.3339,42.5081,-0.5358,-0.1149,-0.6893,232.4844
19:06:11:392,0.0923,1.9076,11.6886,42.6549,-0.6831,-0.0923,-0.6693,233.4844
19:06:11:417,0.4969,1.345,13.7045,41.9289,-0.5555,-0.2076,-0.5061,234.3906
19:06:11:431,1.4905,0.9655,15.0333,42.4787,-0.2791,-0.3711,-0.2933,235.2969
19:06:11:453,2.1094,0.598,15.8916,43.6878,-0.0437,-0.4118,-0.1644,235.9844
19:06:11:476,2.6409,-0.2604,15.6797,42.8513,0.1289,-0.1543,-0.1119,236.4531
19:06:11:494,2.9163,-0.1311,13.2448,43.6349,0.2677,0.4673,-0.0424,236.75
19:06:11:513,3.844,0.9056,11.2612,42.8513,0.2202,0.7954,0.0423,236.8906
19:06:11:533,4.6604,1.1462,11.9113,43.24,-0.0232,0.4159,-0.1191,236.7656
19:06:11:553,4.2067,-0.0305,13.4819,43.9291,-0.1656,-0.0547,-0.6081,236.4844
19:06:11:575,3.3831,-1.2791,13.331,44.8445,-0.0093,-0.0179,-1.0403,236.5312
19:06:11:593,2.8121,-1.5185,10.5657,45.2164,0.2871,0.507,-1.2259,237.2344
19:06:11:619,2.9222,-0.9822,7.5526,45.4031,0.4213,0.8308,-1.2598,238.4219
19:06:11:632,3.0312,-0.4663,6.5974,43.5267,0.257,0.4135,-1.3242,239.6562
19:06:11:654,2.6278,-0.2484,7.8782,45.0387,-0.0847,-0.4249,-1.4731,240.7656
19:06:11:675,1.9215,-0.3549,9.5685,44.6781,-0.4312,-0.9751,-1.5554,241.4062
19:06:11:695,1.4139,-0.0006,10.0941,43.8309,-0.3249,-0.6283,-1.4291,243.9531
19:06:11:715,1.3433,0.3837,9.389,43.8443,-0.2149,-0.1783,-1.3199,248.0781
19:06:11:732,1.2798,0.9068,8.5319,43.5113,-0.0501,0.1845,-1.2416,248.0781
19:06:11:753,1.2475,1.3928,7.1384,43.6728,0.0935,0.2926,-1.2217,249.9219
19:06:11:776,1.3457,1.8765,5.9868,43.0137,0.1449,0.2111,-1.2653,251.5156
19:06:11:793,1.4127,2.074,5.3164,47.3485,0.1212,0.0944,-1.3689,252.8125
19:06:11:812,1.0596,2.0991,5.1393,45.8953,0.0064,-0.0472,-1.4483,254.125
19:06:11:832,0.5915,1.7975,6.0934,45.9496,-0.1041,-0.1988,-1.4062,255.5
19:06:11:853,0.0839,1.4706,7.8052,47.087,-0.0938,-0.3069,-1.2126,256.9531
19:06:11:876,-0.1914,1.1786,9.7529,47.4295,0.098,-0.3386,-0.8888,258.625
19:06:11:895,-0.1783,1.2923,10.8207,46.256,0.3649,-0.2353,-0.5252,260.2969
19:06:11:916,-0.0693,1.8681,11.1415,45.7405,0.5473,-0.0193,-0.2451,261.7031
19:06:11:932,-0.3219,2.5121,11.2888,46.713,0.6868,0.2068,-0.0256,262.8281
19:06:11:952,-0.5039,2.8306,11.0182,46.713,0.7574,0.1429,0.1432,263.7344
19:06:11:975,-0.9803,2.7396,11.2134,47.0044,0.739,-0.0323,0.3571,263.7344
19:06:11:994,-1.1288,2.5696,12.0274,45.8487,0.7332,-0.0792,0.5885,263.5625
19:06:12:012,-0.9624,2.6211,12.2441,46.4905,0.7217,0.0319,0.7376,263.2344
19:06:12:032,-0.681,2.821,11.4803,47.9633,0.6083,0.1709,0.8181,262.6875
19:06:12:053,-0.3219,3.3381,10.4185,47.7158,0.3486,0.1533,0.8218,261.9219
19:06:12:076,0.8177,3.9486,10.3311,48.1227,0.0642,0.054,0.5914,260.9531
19:06:12:096,1.1924,3.4183,10.8411,48.6696,-0.0573,-0.0528,0.2047,259.8906
19:06:12:121,-0.3662,1.7819,11.0733,48.4242,-0.0759,-0.1381,0.1022,259.4531
19:06:12:131,-1.4328,0.3107,10.968,49.43,-0.1356,-0.0661,0.3177,258.75
19:06:12:153,-1.3574,-0.6087,10.9644,47.0143,-0.1848,0.1855,0.682,258.5469
19:06:12:177,-0.796,-0.5776,10.3574,49.1375,-0.1473,0.2223,0.9816,258.4844
19:06:12:194,-0.3459,0.185,9.2286,48.6751,-0.1449,-0.0624,1.0977,258.1562
19:06:12:215,0.0588,0.7189,8.5067,49.7349,-0.2216,-0.3684,1.0663,257.3281
19:06:12:232,0.1929,1.005,8.2457,50.0623,-0.326,-0.4885,0.9845,256.1406
19:06:12:253,0.1557,1.1582,8.1045,49.3634,-0.3944,-0.3695,0.9089,254.4219
19:06:12:276,-0.0957,1.2312,7.7801,49.0881,-0.4115,-0.0933,0.8777,253.4219
19:06:12:294,-0.3937,1.0792,7.2557,49.5332,-0.3718,0.1757,0.932,252.5312
19:06:12:313,-0.5913,0.896,6.6811,50.7656,-0.289,0.2039,1.0719,251.6875
19:06:12:332,-0.4859,0.8541,6.7649,50.6897,-0.1241,0.083,1.2543,250.7031
19:06:12:353,0.1258,1.0588,7.0199,50.7063,0.0961,-0.0491,1.3685,249.5469
19:06:12:376,1.6366,1.7819,7.0247,51.1168,0.236,-0.0773,1.3688,248.2656
19:06:12:396,2.38,2.2296,7.3599,49.9865,0.2394,0.0305,1.2532,246.7344
19:06:12:414,2.6445,2.6342,7.7944,51.3889,0.168,0.1975,1.0159,245.1562
19:06:12:432,2.3452,2.9359,8.0937,50.9606,0.0863,0.3477,0.7211,243.6094
19:06:12:453,1.8855,2.9826,8.6935,51.3544,-0.0309,0.4289,0.4705,242.2969
19:06:12:476,1.2619,2.967,9.6703,50.3297,-0.1534,0.4532,0.3411,241.1875
19:06:12:493,0.7603,2.9287,11.4743,52.7393,-0.1577,0.2454,0.3595,240.4062
19:06:12:512,0.9877,2.5325,13.3382,52.6075,0.1417,-0.3761,0.4751,239.875
19:06:12:532,0.8213,1.5221,13.9787,52.5821,0.6048,-0.9911,0.584,239.1875
19:06:12:553,0.3389,0.6554,13.9906,52.3281,0.8802,-1.0044,0.7928,238.7344
19:06:12:574,0.9231,0.2233,12.6858,51.5905,0.9505,-0.5101,1.1568,238.25
19:06:12:594,2.3416,0.1431,10.8111,53.0892,0.8205,-0.0619,1.5049,237.4688
19:06:12:612,4.6197,1.0205,10.9416,53.0899,0.4543,-0.2568,1.7592,236.8594
19:06:12:641,6.8811,2.2356,14.0445,53.8301,-0.0336,-0.75,1.7148,235.2031
19:06:12:660,7.3252,2.0668,16.6075,54.6295,-0.2173,-0.675,1.1669,233.2812
19:06:12:676,5.9641,1.1187,14.1965,52.7638,0.1483,0.1647,0.3707,231.3281
19:06:12:695,4.0032,0.7883,8.9688,52.6276,0.5017,1.2543,-0.2294,229.9062
19:06:12:716,2.5823,1.0289,5.2937,56.331,0.3958,1.7443,-0.489,229.1719
19:06:12:732,1.8652,1.4695,4.767,55.0637,-0.0743,1.3312,-0.5074,228.8438
19:06:12:753,1.9765,1.5664,6.7554,53.8469,-0.5611,0.4265,-0.4131,228.6875
19:06:12:777,2.1417,1.3581,8.6599,54.8207,-0.722,-0.3508,-0.3673,228.7344
19:06:12:794,1.9227,1.1079,8.9844,55.7512,-0.5944,-0.6275,-0.3918,229.0781
19:06:12:812,1.451,0.9619,7.9429,53.9109,-0.4221,-0.4307,-0.4009,230.0156
19:06:12:838,0.9542,0.9212,6.8248,54.1889,-0.3625,-0.0172,-0.3569,230.7344
19:06:12:861,0.5927,0.9236,6.0036,54.4248,-0.3398,0.315,-0.2752,231.4062
19:06:12:876,0.5699,0.9858,5.2817,54.9362,-0.2567,0.3893,-0.1745,231.9062
19:06:12:894,0.8273,1.3952,5.4421,54.7248,-0.1659,0.2153,-0.0581,232.2031
19:06:12:914,1.2738,1.8154,6.2227,55.4607,-0.0679,0.034,0.0154,232.3438
19:06:12:932,1.5827,2.3326,7.3216,55.31,0.0903,-0.1205,-0.0147,232.375
19:06:12:954,1.7359,2.7803,7.7118,54.9513,0.3017,-0.1897,-0.088,232.375
19:06:12:975,1.3672,3.568,7.5071,54.8803,0.4341,-0.1527,-0.1977,232.3906
19:06:12:993,1.4498,4.1665,7.9632,54.309,0.2594,0.0209,-0.2651,232.4844
19:06:13:013,1.7455,4.3772,9.8846,55.2186,-0.13,0.2646,-0.2616,232.6562
19:06:13:032,1.4438,4.1905,13.0078,54.9026,-0.4059,0.3765,-0.2331,232.8906
19:06:13:121,1.1385,3.1753,16.0951,54.9646,-0.285,0.2859,-0.0887,233.0156
19:06:13:122,1.1242,1.7436,16.8218,55.4221,0.7553,0.4811,0.5992,233.2656
19:06:13:122,0.9889,1.2899,15.2703,54.9388,0.9681,0.8042,0.9174,233.4688
19:06:13:123,0.9518,1.4491,12.9432,57.0657,0.9183,0.6934,0.9736,232.1562
19:06:13:134,0.6178,2.0919,11.0925,57.1303,0.6836,0.2745,0.8399,230.7031
19:06:13:152,0.4263,1.8202,10.7932,55.8169,0.4722,0.0079,0.6274,229.2812
19:06:13:177,-0.6451,0.6853,10.8866,57.5063,0.3926,-0.0302,0.5723,229.2812
19:06:13:192,-1.5992,0.1191,10.3814,56.4608,0.3108,0.0417,0.7414,228.1094
19:06:13:217,-1.106,0.0521,9.4907,56.9392,0.1904,-0.0022,0.8708,227.2969
19:06:13:231,-0.1017,0.0952,8.3463,55.705,0.0035,-0.3144,0.891,226.6094
19:06:13:251,0.9805,0.2783,7.6544,56.6317,-0.2463,-0.8387,0.7858,225.6875
19:06:13:279,1.9107,0.5908,7.816,56.979,-0.5518,-1.2326,0.5464,224.6562
19:06:13:291,2.514,0.428,8.648,56.1697,-0.8751,-1.0686,0.2439,223.7188
19:06:13:311,2.101,-0.2065,9.7601,57.3197,-1.0655,-0.3242,0.0718,223.1719
19:06:13:331,1.0021,-0.5106,10.2916,56.5186,-0.9521,0.4803,0.1616,223.2812
19:06:13:351,0.1534,-0.3789,9.4105,56.7865,-0.621,0.9136,0.4354,223.4219
19:06:13:370,0.0109,0.1299,7.8004,56.2801,-0.3196,0.8992,0.7669,223.5781
19:06:13:391,0.5149,0.9367,6.5973,56.2554,-0.131,0.6391,1.0143,223.2656
19:06:13:412,1.2798,1.7591,6.2993,55.3265,0.0389,0.2846,1.1078,222.4531
19:06:13:432,1.8736,2.6306,6.6943,56.1802,0.2274,-0.051,1.0527,221.3281
19:06:13:452,2.2243,3.2783,7.1815,56.1948,0.4035,-0.2395,0.8892,220
19:06:13:476,2.6146,3.6841,7.5155,56.9874,0.4591,-0.2654,0.6585,218.6875
19:06:13:497,2.8851,3.8732,7.5694,55.5033,0.3547,-0.1676,0.4055,217.5781
19:06:13:516,2.836,3.9487,7.7597,54.8489,0.1755,-0.0808,0.177,217.0781
19:06:13:535,2.836,4.0001,8.2278,56.5827,-0.0064,-0.0504,-0.0352,216.2656
19:06:13:553,2.7977,4.0025,8.8814,55.5201,-0.1771,-0.1,-0.2469,215.7344
19:06:13:572,2.4985,3.7344,10.1623,56.1348,-0.3145,-0.207,-0.4238,215.5156
19:06:13:591,2.4063,3.2364,12.3841,55.3016,-0.3228,-0.2672,-0.5607,215.5781
19:06:13:611,2.1812,2.0249,15.0237,56.2029,-0.0759,-0.08,-0.6131,215.9219
19:06:13:632,1.2643,0.4782,16.1047,56.8383,0.3569,0.4191,-0.4139,216.875
19:06:13:650,0.6825,-0.2556,14.242,56.4118,0.6698,1.0233,-0.0371,217.6875
19:06:13:676,1.4486,-0.021,10.8758,56.8577,0.6743,1.2758,0.2639,218.25
19:06:13:694,2.921,1.0469,7.828,55.3504,0.3489,0.7948,0.3121,218.2188
19:06:13:711,4.1624,2.6175,7.4988,55.4679,-0.1223,-0.0707,0.0415,217.5938
19:06:13:731,4.6161,2.6941,10.5011,55.6861,-0.2834,-0.6001,-0.4134,216.8125
19:06:13:752,4.6054,1.4276,12.7492,54.4092,-0.1324,-0.6185,-0.8475,216.4531
19:06:13:777,2.7917,-0.5776,11.2206,54.4791,-0.0495,-0.3333,-0.9948,216.8125
19:06:13:794,2.5918,-0.094,10.2281,55.2402,-0.1204,-0.1743,-0.885,217.7656
19:06:13:812,2.283,0.2424,10.1456,55.471,-0.2735,-0.325,-0.8302,219.0156
19:06:13:832,1.7048,0.3178,10.0546,54.4502,-0.3595,-0.4329,-0.8264,220.1094
19:06:13:854,1.1026,0.4806,9.0909,55.2608,-0.2914,-0.2848,-0.7388,221.1719
19:06:13:879,0.5879,0.8134,7.4664,56.5299,-0.0988,-0.0496,-0.575,222.3125
19:06:13:895,0.5592,1.0277,5.836,55.1236,0.1167,0.087,-0.3769,223.3438
19:06:13:912,0.8261,1.2408,4.5479,54.4234,0.3137,0.0952,-0.2134,224.5
19:06:13:932,1.4127,1.8322,4.0164,55.1419,0.4922,-0.0441,-0.1242,224.875
19:06:13:952,1.9095,2.3745,3.7602,53.3704,0.6746,-0.3285,-0.1463,224.9844
19:06:13:978,1.5396,2.6187,3.4526,53.8939,0.7867,-0.6369,-0.33,225.0781
19:06:13:995,0.4251,2.2799,3.6992,55.6061,0.6863,-0.8025,-0.5412,225.0938
19:06:14:011,-0.5853,2.0321,4.9561,54.9665,0.3427,-0.6883,-0.5868,225.3281
19:06:14:031,-0.9312,2.2859,6.8906,55.4748,-0.1422,-0.2049,-0.4065,225.8438
19:06:14:051,-0.3494,3.4578,9.5626,54.0454,-0.6019,0.4068,-0.1551,226.6406
19:06:14:078,0.807,4.4323,12.7636,54.2304,-0.7926,0.679,-0.0371,227.3594
19:06:14:094,0.9997,4.5053,14.5688,54.533,-0.5396,0.5855,-0.1553,227.7188
19:06:14:111,0.1198,3.793,14.1211,56.4877,-0.0535,0.447,-0.3276,227.7812
19:06:14:131,-0.0178,2.9969,13.7416,55.6226,0.1851,0.4412,-0.2507,227.8281
19:06:14:151,0.783,2.7683,14.096,53.7955,0.1001,0.6055,-0.0062,228.0469
19:06:14:171,1.797,3.0604,14.5976,53.6383,-0.0908,0.8191,0.2069,228.2656
19:06:14:193,2.3285,3.3645,14.813,53.6383,-0.2107,0.8023,0.2372,228.2344
19:06:14:211,1.8053,2.6259,15.3206,55.1384,-0.2346,0.511,0.0854,227.6406
19:06:14:231,0.5304,1.0301,14.9926,53.4047,-0.0834,0.3171,-0.0856,227.2031
19:06:14:252,0.1079,-0.4136,13.2329,55.203,0.2035,0.381,-0.0105,227
19:06:14:277,0.5448,-0.8003,10.5837,55.4846,0.4458,0.5443,0.3049,227.0312
19:06:14:297,1.7096,-0.0676,8.065,54.2507,0.5547,0.4076,0.67,226.8906
19:06:14:314,2.5715,0.9655,7.2234,54.3331,0.4176,-0.1961,0.7888,226.3125
19:06:14:331,2.52,1.1714,7.7645,56.2401,0.0938,-0.822,0.5715,225.3438
19:06:14:352,2.1405,0.9056,8.5558,53.9398,-0.2671,-0.9889,0.2761,224.4688
19:06:14:378,1.4438,0.6063,8.8946,56.3226,-0.5324,-0.6741,0.0716,224.0312
19:06:14:394,0.5903,0.489,8.6887,54.406,-0.6181,-0.2097,0.0015,224.0625
19:06:14:412,-0.0262,0.6578,8.1141,54.7821,-0.502,0.1269,0.0841,224.2812
19:06:14:433,-0.1854,0.8889,7.3982,55.0071,-0.241,0.2324,0.2726,224.4531
19:06:14:452,-0.055,1.1247,6.5339,54.1138,0.0748,0.1709,0.482,224.4219
19:06:14:477,0.3281,1.418,5.8791,55.946,0.3739,-0.0004,0.7776,224.2969
19:06:14:494,0.8249,1.922,5.8336,55.4662,0.3563,0.0137,0.7898,223.5156
19:06:14:513,1.4809,2.4762,5.994,54.0339,0.3087,0.0228,0.6801,221.7188
19:06:14:532,2.0208,2.8461,6.1317,54.2919,0.171,0.0196,0.4487,221.7188
19:06:14:551,2.0591,3.1562,6.8475,55.3401,0.0179,0.0175,0.1973,220.7812
19:06:14:574,1.8712,3.1334,7.8699,55.0248,-0.0237,-0.0795,-0.0179,219.9219
19:06:14:592,1.6186,2.9239,8.8742,55.2951,-0.0053,-0.2012,-0.1697,219.375
19:06:14:610,1.4402,2.8641,9.8786,54.6751,0.0013,-0.2206,-0.2549,219.1406
19:06:14:630,1.4295,2.6761,10.7321,54.896,-0.0751,-0.2217,-0.3111,219.1875
19:06:14:650,1.1637,2.7049,11.8634,54.8795,-0.2285,-0.2009,-0.285,219.4375
19:06:14:671,1.4055,2.3685,13.8171,55.5683,-0.2543,-0.0145,-0.2406,219.7812
19:06:14:692,1.5827,1.473,15.408,54.4606,-0.0581,0.377,-0.1489,220.2031
19:06:14:711,2.0448,0.5525,14.728,55.4748,0.1875,0.7498,0.0061,220.6406
19:06:14:730,2.5859,0.5357,12.0777,55.4799,0.1742,0.7626,0.0886,220.9688
19:06:14:750,3.2646,1.2947,9.954,55.5423,-0.1467,0.345,-0.028,220.9531
19:06:14:770,3.7435,1.4635,10.8602,54.066,-0.4075,-0.0595,-0.3375,220.625
19:06:14:794,3.5615,0.6949,12.9168,54.8068,-0.2501,-0.0757,-0.6086,220.375
19:06:14:812,2.8576,-0.2735,12.578,55.4121,0.0895,0.0833,-0.6877,220.5938
19:06:14:831,2.1765,-0.4471,10.0091,56.0479,0.1886,-0.0108,-0.5753,221.2656
19:06:14:853,2.2782,0.1826,7.9644,55.1352,-0.0823,-0.3519,-0.4975,222.0469
19:06:14:877,2.5356,0.9631,8.0973,54.7166,-0.4368,-0.5508,-0.5431,222.7344
19:06:14:896,2.6409,1.1462,9.2669,54.4334,-0.579,-0.4403,-0.6571,223.3281
19:06:14:911,2.1094,0.9475,9.9947,55.6214,-0.432,-0.1463,-0.6944,223.6719
19:06:14:930,1.4091,0.89,9.3495,55.0809,-0.1678,0.1624,-0.6099,224.5312
19:06:14:951,0.9326,1.0313,7.9345,53.7554,0.0687,0.348,-0.4698,225.4688
19:06:14:971,0.8046,1.2336,6.4764,54.2332,0.2296,0.3011,-0.3548,226.3906
19:06:14:993,0.9003,1.5724,5.6911,54.3053,0.3499,0.1751,-0.3202,227.0781
19:06:15:011,0.8824,2.1111,4.9729,55.5679,0.3694,0.059,-0.2869,227.5
19:06:15:037,0.9398,2.5696,4.7933,52.895,0.3318,-0.0504,-0.2888,227.9062
19:06:15:049,1.0955,3.3154,4.9238,53.3848,0.2461,-0.1266,-0.3497,228.1562
19:06:15:072,1.439,3.8816,5.3859,53.7813,0.094,-0.1152,-0.5242,228.4219
19:06:15:094,1.6796,4.3317,6.5315,52.8641,-0.0477,0.0252,-0.758,228.7344
19:06:15:112,2.0519,4.2802,7.9453,53.4924,-0.1382,0.1655,-1.048,229.2344
19:06:15:185,1.3337,3.9343,9.468,52.2671,-0.1947,0.3395,-1.1908,229.9688
19:06:15:185,-0.0921,2.7061,12.122,53.7368,-0.1539,0.61,-1.0251,230.9375
19:06:15:185,-0.4656,2.414,12.0226,54.0171,-0.0061,0.8143,-0.6797,232.2188
19:06:15:196,-0.1387,2.4116,12.4536,53.607,0.0426,0.6465,-0.2621,233.4219
19:06:15:217,0.6897,2.3134,13.3885,54.1697,0.032,0.2335,0.0505,234.1562
19:06:15:230,0.8094,2.2224,13.3645,53.3466,0.0285,0.0825,0.0678,234.4688
19:06:15:253,0.1785,2.0824,13.3909,51.6474,-0.1401,0.1855,-0.1151,234.4219
19:06:15:277,-0.5601,1.315,14.5724,52.7424,-0.4179,0.2835,-0.3434,234.2812
19:06:15:294,-1.5753,-0.1275,15.6163,51.7152,-0.4437,0.3118,-0.5671,234.25
19:06:15:310,-1.8482,-1.2611,14.5784,51.1701,-0.1127,0.3996,-0.5769,234.6875
19:06:15:331,-1.1144,-1.2372,11.8634,52.5065,0.2647,0.6252,-0.3524,235.2812
19:06:15:351,0.0779,-0.8577,9.1184,52.398,0.4317,0.6638,-0.1093,235.8125
19:06:15:376,0.6968,-0.0964,8.4924,51.6626,0.3398,0.1341,0.054,236.0156
19:06:15:395,1.1828,0.2089,9.9516,52.3552,0.089,-0.5375,0.124,235.9844
19:06:15:412,1.293,-0.0162,11.3462,52.3731,-0.0301,-0.8012,0.1198,235.8438
19:06:15:430,1.0787,-0.015,11.1475,52.4327,0.0759,-0.5687,0.1419,235.7812
19:06:15:454,0.9937,0.2843,9.8499,50.8403,0.2916,-0.1556,0.2553,235.8594
19:06:15:477,1.1972,0.738,8.1129,52.4298,0.5212,0.1496,0.4055,235.9375
19:06:15:494,1.287,1.1402,6.3328,51.1263,0.7172,0.2979,0.4905,235.8281
19:06:15:510,1.1936,1.4383,4.6904,50.1617,0.845,0.3171,0.5115,235.4062
19:06:15:531,1.0799,1.8022,3.3807,50.4585,0.8583,0.2726,0.5081,234.7344
19:06:15:551,1.3947,2.2763,2.6553,50.0377,0.7236,0.205,0.5025,234.0156
19:06:15:576,2.0831,2.9311,2.6792,51.1361,0.4709,0.0971,0.4375,233.25
19:06:15:594,2.6696,3.6338,3.3652,52.1152,0.1931,-0.0963,0.2292,232.1562
19:06:15:613,2.6756,4.0552,4.4485,51.0913,-0.0229,-0.4275,-0.1631,231.625
19:06:15:631,2.4482,3.8732,6.4022,49.2907,-0.179,-0.8595,-0.5995,231.3594
19:06:15:651,1.852,3.4279,8.5965,49.7026,-0.2533,-1.0715,-0.9732,231.7031
19:06:15:677,1.1457,2.9886,10.057,49.074,-0.2477,-0.9074,-1.247,232.6562
19:06:15:694,0.4694,2.7683,10.3658,51.0981,-0.2125,-0.5375,-1.391,234.1719
19:06:15:713,0.1019,2.7719,10.78,48.967,-0.3004,-0.2225,-1.3753,235.9531
19:06:15:730,0.0887,2.8377,12.4153,48.6822,-0.5257,-0.1458,-1.2336,237.7656
19:06:15:751,0.2515,2.6019,14.9304,48.5529,-0.6922,-0.2198,-1.047,239.3594
19:06:15:773,0.54,1.8561,16.4399,48.9481,-0.551,-0.2326,-0.8153,240.875
19:06:15:794,1.2894,1.57,15.1578,47.5754,-0.1907,0.0401,-0.5247,242.2188
19:06:15:812,2.8803,2.4283,13.5848,48.5756,-0.0163,0.2681,-0.2714,243.2344
19:06:15:831,4.4366,2.9826,14.6251,47.6411,-0.1598,0.1144,-0.2922,243.8281
19:06:15:852,3.5806,1.8777,14.9663,48.1855,-0.0692,-0.1018,-0.7199,244.0469
19:06:15:878,2.5368,0.5812,12.8606,48.4047,0.5297,0.5842,-1.4323,244.1719
19:06:15:895,1.8844,-0.3921,9.8642,46.7446,0.4197,0.9983,-1.6283,245.2031
19:06:15:912,1.1864,-0.6255,7.7286,45.8382,0.1204,1.0239,-1.7021,246.4844
19:06:15:930,0.7435,-0.428,6.9325,45.8674,-0.1699,0.4918,-1.7072,247.8906
19:06:15:950,0.3293,-0.2711,8.0698,45.3595,-0.2634,-0.263,-1.6518,249.3125
19:06:15:970,0.0193,-0.4699,9.8834,45.694,-0.1049,-0.6678,-1.4712,250.8906
19:06:15:994,-0.0119,-0.3968,10.4771,45.2207,0.168,-0.5913,-1.2091,252.6719
19:06:16:011,0.127,0.1287,9.3351,44.4938,0.3872,-0.3189,-0.9681,254.5625
19:06:16:030,0.4263,0.8901,7.4293,43.8123,0.4855,-0.161,-0.8347,256.4688
19:06:16:050,0.7938,1.4862,5.7618,44.9938,0.4815,-0.1687,-0.8227,258.0625
19:06:16:072,1.0404,1.8429,4.5635,44.9478,0.3976,-0.2931,-0.8768,259.25
19:06:16:093,1.3792,2.226,4.1325,44.0577,0.2844,-0.4536,-0.9876,260.2656
19:06:16:112,1.9191,2.5373,4.3157,42.0478,0.2139,-0.6124,-1.2059,261.2969
19:06:16:130,2.1513,2.6965,4.6664,44.546,0.1606,-0.6739,-1.4856,262.4219
19:06:16:151,1.8652,2.7276,5.0567,43.3765,0.0525,-0.5716,-1.7349,264.4375
19:06:16:171,0.9231,2.6594,5.5774,43.2182,-0.1614,-0.3919,-1.8696,266.2188
19:06:16:194,-0.213,2.7491,6.8032,43.348,-0.3678,-0.2574,-1.848,268.3281
19:06:16:213,-0.8031,3.04,8.6671,43.7143,-0.4591,-0.1727,-1.7514,270.4688
19:06:16:230,-1.4185,3.0317,10.6088,41.8865,-0.4706,0.1743,-1.606,272.7188
19:06:16:250,-2.697,3.2459,11.946,42.7731,-0.4474,0.7059,-1.2968,274.8281
19:06:16:272,-3.6534,3.817,12.7564,41.7044,-0.3212,0.8545,-0.9673,276.6406
19:06:16:293,-4.3777,3.969,13.5298,39.728,-0.1382,0.7275,-0.7242,278.125
19:06:16:311,-5.4228,3.3704,14.1211,41.287,-0.0301,0.8447,-0.472,278.6562
19:06:16:330,-6.4235,2.7025,14.1115,41.4608,0.0724,1.1725,-0.069,279.4375
19:06:16:350,-6.4989,2.6642,12.9396,41.6788,0.1904,1.1251,0.3858,279.9844
19:06:16:370,-5.5113,2.8712,11.6671,40.2216,0.2131,0.5168,0.6519,280.25
19:06:16:394,-4.5489,2.6246,12.2405,39.778,0.1912,-0.1397,0.7525,279.9531
19:06:16:414,-3.244,1.5317,13.7847,39.45,0.3419,-0.3543,0.805,279.2188
19:06:16:431,-1.8554,0.0581,13.7596,39.3049,0.5835,-0.2936,0.8655,277.9375
19:06:16:451,-0.7146,-1.0409,12.1327,39.3049,0.678,-0.2704,0.9539,277.1875
19:06:16:471,0.4706,-0.926,10.2832,40.8513,0.5382,-0.4206,0.989,276.4688
19:06:16:493,1.5037,0.0389,9.4153,38.2558,0.3467,-0.5985,0.8471,275.625
19:06:16:510,1.8305,0.7727,9.073,38.9759,0.2344,-0.7354,0.5869,274.7031
19:06:16:530,1.5551,0.8589,8.5055,38.3249,0.1798,-0.7514,0.3925,273.9219
19:06:16:551,1.1984,0.9918,6.5471,40.5618,0.1204,-0.6084,0.3185,273.3906
19:06:16:570,0.9817,1.2887,5.5211,38.3312,0.0423,-0.3714,0.3155,273.1562
19:06:16:593,0.8979,1.9698,4.7203,36.3704,-0.0764,-0.1114,0.3467,273.0469
19:06:16:611,1.0129,2.6654,4.6521,37.7243,-0.2083,-0.0568,0.3531,272.9062
19:06:16:629,1.2427,3.0807,5.0399,38.0787,-0.273,-0.1988,0.2868,272.625
19:06:16:649,1.2295,3.4135,5.4948,37.6371,-0.2375,-0.4041,0.1597,272.2188
19:06:16:669,1.0404,3.6566,5.812,36.847,-0.138,-0.6113,0.0239,271.8906
19:06:16:694,0.9877,3.9462,6.1341,37.1455,-0.0389,-0.8291,-0.0826,271.7188
19:06:16:712,1.2427,4.3138,7.0139,35.6617,0.0061,-1.0414,-0.1878,271.9219
19:06:16:730,1.53,4.5328,8.5079,36.1164,0.0445,-1.2933,-0.3479,272.3125
19:06:16:750,1.3624,4.1773,9.8379,35.5668,0.1406,-1.4832,-0.6041,272.9219
19:06:16:771,0.7818,3.4722,10.8219,34.9319,0.204,-1.3178,-0.8579,273.8281
19:06:16:795,0.4658,2.548,11.7401,35.8453,0.1089,-0.8001,-0.9617,274.4062
19:06:16:812,0.6118,1.916,12.8725,35.9385,-0.077,-0.2616,-0.8797,275.75
19:06:16:829,1.2499,1.7639,14.4479,35.427,-0.2312,0.0968,-0.6672,277.2344
19:06:16:850,2.0196,2.001,15.0776,34.7765,-0.1358,0.3496,-0.4432,278.5156
19:06:16:871,2.6876,1.8813,13.1934,34.4645,0.2626,0.519,-0.3652,279.3906
19:06:16:893,3.0048,2.0261,9.6488,36.4398,0.5462,0.503,-0.4488,279.9219
19:06:16:911,3.2682,2.7025,8.3571,32.9518,0.2266,0.1829,-0.6006,280.1875
19:06:16:930,3.2562,2.4834,12.1579,34.1528,-0.5177,-0.5623,-0.9013,280.4531
19:06:16:950,3.2921,0.489,16.0784,33.9515,-0.9207,-1.0124,-1.3364,280.8906
19:06:16:970,1.9586,-1.0205,15.7552,34.58,-0.6477,-0.5852,-1.7199,282.4844
19:06:16:994,0.6693,-0.9631,11.4791,34.6933,-0.1236,0.2825,-1.7306,284.2344
19:06:17:012,0.5843,0.0569,7.9333,33.4518,0.1033,0.5392,-1.4464,286.375
19:06:17:030,0.8812,0.9164,7.2653,34.6937,-0.0173,-0.0893,-1.2568,288.25
19:06:17:050,1.3038,1.1031,8.3846,34.2952,-0.2669,-0.9397,-1.2398,289.7344
19:06:17:070,1.3504,1.1115,8.5187,33.4189,-0.3526,-1.2635,-1.3032,291.125
19:06:17:094,0.959,0.9499,7.7298,36.6683,-0.3031,-1.1599,-1.3982,292.8438
19:06:17:112,0.4538,0.7883,6.7206,35.2152,-0.2477,-0.8547,-1.4331,294.7344
19:06:17:130,0.1282,0.823,5.7426,34.3349,-0.2421,-0.484,-1.3756,296.5938
19:06:17:156,-0.0119,1.1247,5.4601,35.4677,-0.3105,-0.2406,-1.2539,300.2031
19:06:17:181,0.2,1.6071,6.0359,34.9184,-0.2943,-0.1791,-1.0342,301.6094
19:06:17:256,0.6394,1.9495,6.632,33.3091,-0.1047,-0.2536,-1.0776,302.8906
19:06:17:257,0.8537,2.153,6.6273,35.357,0.0277,-0.3058,-1.1817,304.0938
19:06:17:257,0.8022,2.402,6.5052,36.0034,-0.0085,-0.3064,-1.2811,304.7344
19:06:17:257,0.7004,2.7132,7.1731,37.8077,-0.1023,-0.2371,-1.3972,304.7344
19:06:17:286,0.4586,2.6677,8.2338,37.4562,-0.2053,-0.015,-1.5157,308.3281
19:06:17:295,-0.4069,2.5313,9.2238,37.1409,-0.3009,0.3424,-1.5175,309.9844
19:06:17:314,-1.2257,2.5361,9.887,37.5481,-0.3619,0.6276,-1.3934,311.6094
19:06:17:329,-1.9021,2.5636,10.2916,37.3034,-0.3651,0.6079,-1.1649,311.6094
19:06:17:353,-2.6754,2.3888,10.8207,38.4516,-0.3649,0.1205,-0.7332,313.2031
19:06:17:368,-2.1152,2.0656,12.8247,36.6207,-0.3057,-0.3602,-0.2155,314.5781
19:06:17:390,-0.5757,1.7723,14.9148,39.1361,-0.1928,-0.3663,0.0993,315.6406
19:06:17:411,0.4251,1.5987,15.244,38.9047,-0.2474,-0.1026,0.2655,316.3906
19:06:17:430,1.1409,1.8824,15.3529,39.9135,-0.387,0.1661,0.2971,316.6719
19:06:17:449,1.3612,1.6825,15.9144,39.2344,-0.2554,0.3016,0.1403,316.6094
19:06:17:469,0.1665,0.8853,15.1123,40.2086,0.0732,0.2817,0.1256,316.3125
19:06:17:494,-0.7361,0.2759,13.1934,39.7257,0.297,0.2758,0.3454,315.8594
19:06:17:511,-0.5506,0.0832,11.0446,39.9946,0.3566,0.1474,0.5677,315.5781
19:06:17:532,0.024,0.2951,9.1938,40.4132,0.2783,-0.3029,0.7003,315.2344
19:06:17:552,0.6585,0.8996,8.6743,40.4051,0.1332,-0.8781,0.6426,314.7031
19:06:17:568,1.2918,1.0912,9.4069,42.5182,0.0583,-1.0904,0.4511,314.0312
19:06:17:590,1.4378,0.8517,9.9217,41.1868,0.0447,-0.8361,0.3062,313.4375
19:06:17:612,1.0033,0.4854,9.5697,42.3242,0.0754,-0.3708,0.2924,313.0938
19:06:17:631,0.1988,0.5393,8.5953,41.6508,0.1502,-0.0739,0.3962,312.9375
19:06:17:651,-0.0585,0.6327,7.4892,41.5997,0.2517,0.0273,0.5264,312.7812
19:06:17:670,0.06,0.7093,6.1975,43.1996,0.2762,-0.0177,0.6335,312.4688
19:06:17:694,0.1653,1.0253,5.5942,42.6824,0.2522,-0.1266,0.7291,312.2344
19:06:17:712,0.6166,1.2875,5.5355,42.8209,0.2554,-0.2558,0.7523,311.6562
19:06:17:730,0.9446,1.564,5.9533,42.6201,0.3292,-0.3602,0.7147,311.0156
19:06:17:753,1.1793,1.8226,6.2933,43.5519,0.4437,-0.4129,0.6383,310.2344
19:06:17:768,1.4881,2.0907,6.4357,43.2268,0.5057,-0.418,0.5299,309.4688
19:06:17:790,1.8053,2.384,6.6213,44.22,0.4716,-0.3935,0.3696,308.25
19:06:17:809,1.8748,2.6737,6.9182,46.4906,0.3409,-0.3711,0.1709,308.0156
19:06:17:829,1.6138,2.8198,7.6592,45.9848,0.1537,-0.2241,0.0122,307.5469
19:06:17:849,1.3504,2.809,8.6061,45.1328,-0.0208,0.0585,-0.0528,307.5
19:06:17:869,1.2619,2.8485,9.395,45.7582,-0.1515,0.2699,-0.0547,307.5156
19:06:17:894,1.5731,2.991,10.057,46.292,-0.2349,0.2377,-0.1015,307.5781
19:06:17:911,2.022,3.0412,11.0518,48.4751,-0.2772,-0.0369,-0.2254,307.5938
19:06:17:930,2.1298,2.5193,12.6403,48.7789,-0.224,-0.1935,-0.3135,307.5625
19:06:17:953,2.5823,0.7823,13.0784,47.7982,-0.0511,0.054,-0.2786,307.6875
19:06:17:974,2.951,0.902,10.7824,47.1687,0.0661,0.3959,-0.1982,308.0312
19:06:17:992,3.419,1.6394,10.1767,48.2158,-0.1151,0.2516,-0.1955,308.3906
19:06:18:011,3.856,1.5114,12.4105,48.9907,-0.4858,-0.2726,-0.3689,308.5938
19:06:18:029,3.449,0.4112,14.6035,49.5151,-0.6386,-0.5381,-0.7016,308.6875
19:06:18:049,2.2028,-0.5836,13.9954,49.3686,-0.4349,-0.1839,-0.9452,308.9219
19:06:18:070,1.2571,-0.6147,11.46,48.7493,-0.1207,0.32,-0.8904,309.625
19:06:18:095,1.5659,0.0485,9.5111,50.4937,0.0314,0.3642,-0.5846,310.6562
19:06:18:113,2.362,0.8206,9.5973,48.8565,0.0013,-0.0896,-0.3601,312.0938
19:06:18:130,2.6996,1.1666,10.2808,50.5783,-0.0149,-0.5903,-0.3636,312.6719
19:06:18:152,2.2698,0.9679,9.5781,49.2975,0.0828,-0.6358,-0.5037,313.1094
19:06:18:168,1.4067,0.9044,7.8902,51.1328,0.1494,-0.2464,-0.5665,313.3594
19:06:18:190,0.6633,1.1857,6.1413,49.1061,0.123,0.202,-0.5005,314
19:06:18:214,0.5484,1.4287,4.9681,49.7655,0.0309,0.3807,-0.3777,314.7812
19:06:18:233,0.7758,1.7747,4.7011,51.2712,-0.0977,0.3118,-0.2653,315.4219
19:06:18:249,1.22,2.1315,4.8783,50.2004,-0.2107,0.1767,-0.2051,315.8125
19:06:18:269,1.5145,2.4152,5.5092,49.3901,-0.2687,0.0894,-0.2496,316.0781
19:06:18:295,1.5204,2.5002,6.5339,50.9251,-0.2613,0.0377,-0.3718,316.25
19:06:18:313,1.19,2.5576,7.3216,51.8077,-0.147,0.0867,-0.5063,316.4375
19:06:18:330,0.6849,2.5768,8.4097,52.2973,0.0176,0.152,-0.5852,316.7344
19:06:18:349,-0.286,2.6965,9.5901,50.8052,0.2043,0.2204,-0.5673,317.2031
19:06:18:370,-1.2509,2.663,11.3403,51.6861,0.4416,0.2026,-0.4083,317.7969
19:06:18:395,-1.3143,2.2595,11.4899,51.8579,0.8645,0.0587,-0.0997,318.7031
19:06:18:414,-0.4787,2.5959,10.2186,53.1025,1.2155,0.0971,0.3166,319.1719
19:06:18:437,0.8501,3.8756,9.2046,53.4875,1.1681,0.3227,0.683,319.4062
19:06:18:448,2.1178,4.8453,9.3698,54.5982,0.792,0.4359,0.7717,319.1719
19:06:18:471,2.8935,4.613,10.1024,53.3263,0.3862,0.3006,0.5701,318.4688
19:06:18:494,2.5607,3.9594,9.9863,54.2038,0.0655,0.2324,0.238,317.5625
19:06:18:513,1.6306,3.3226,10.1767,53.2697,-0.3196,0.341,-0.024,316.8906
19:06:18:529,1.2164,2.9311,11.77,54.6782,-0.7316,0.2662,-0.101,316.5625
19:06:18:550,1.633,2.1949,13.9966,55.3271,-0.9068,-0.0387,-0.0563,316.4375
19:06:18:569,0.7818,1.1678,14.5246,53.9049,-0.6567,-0.2337,-0.1758,316.3594
19:06:18:594,-0.3195,0.1718,12.7014,55.2098,-0.1795,-0.296,-0.2954,316.3125
19:06:18:612,-0.1651,-0.1431,10.1707,54.2736,0.0123,0.0036,-0.1434,316.4844
19:06:18:630,0.3293,0.1419,8.0961,53.6505,-0.6085,0.3538,0.1331,316.875
19:06:18:650,0.4957,0.7488,7.7885,53.4147,-1.0168,-0.0765,0.1169,316.875
19:06:18:670,0.6023,1.145,9.5362,54.7211,-1.1177,-0.496,0.042,316.8281
19:06:18:696,0.6537,0.9176,11.6898,54.0891,-0.812,-0.6443,-0.0054,316.4844
19:06:18:713,0.3832,0.4555,12.2967,54.0891,-0.3284,-0.4715,0.0804,316.2344
19:06:18:733,0.0061,0.2448,11.041,55.7921,0.0991,-0.1897,0.3083,316.2031
19:06:18:748,0.0133,0.3609,8.7174,53.2688,0.3055,-0.003,0.552,316.2031
19:06:18:768,0.3616,0.9044,6.7218,55.4956,0.2879,-0.0443,0.6926,316.1719
19:06:18:789,0.9159,1.5473,6.0694,54.9847,0.1942,-0.1463,0.6846,315.8906
19:06:18:812,1.3971,1.8214,6.1748,54.2766,0.1686,-0.1951,0.5717,315.2969
19:06:18:830,1.5192,1.9052,6.1796,55.379,0.1731,-0.2331,0.4407,314.5469
19:06:18:848,1.2619,2.0045,6.2023,54.3531,0.1457,-0.2595,0.3677,313.8594
19:06:18:868,0.7914,2.3529,6.8942,53.4511,0.1404,-0.235,0.3699,313.2812
19:06:18:889,0.9039,2.5875,7.9429,53.9586,0.2325,-0.2345,0.3496,312.8438
19:06:18:912,0.8608,2.7132,8.5019,53.3193,0.3068,-0.2142,0.3323,312.5312
19:06:18:930,0.6633,2.7982,8.8108,55.2078,0.2903,-0.1034,0.3845,312.1719
19:06:18:947,0.8357,2.9,9.2429,54.9412,0.2155,-0.0038,0.4394,311.5625
19:06:18:968,1.1673,3.0652,9.6667,54.6822,0.1124,-0.0092,0.4308,311.2031
19:06:18:988,1.5037,3.0209,10.3574,53.4582,0.0261,-0.1708,0.377,310.9531
19:06:19:015,2.1561,2.5444,11.4947,53.6323,-0.0088,-0.4076,0.2929,310.4688
19:06:19:033,2.9306,1.728,12.9551,55.1002,-0.0176,-0.3873,0.221,310.0156
19:06:19:053,4.1169,0.8565,13.4292,53.8959,-0.0855,-0.1436,0.0769,309.7344
19:06:19:067,4.8017,0.75,12.8259,53.9237,-0.2911,-0.0068,-0.1945,309.5625
19:06:19:091,4.8053,0.9152,12.8558,53.5652,-0.5065,-0.0749,-0.6033,309.4531
19:06:19:111,3.9075,0.3118,13.8841,53.7058,-0.4882,-0.0036,-0.9474,309.5
19:06:19:131,2.5607,-0.7727,14.1319,53.6977,-0.2522,0.4321,-1.0121,309.9375
19:06:19:149,1.6557,-1.479,12.2668,52.5257,-0.0256,0.9184,-0.8395,310.8281
19:06:19:169,1.0883,-1.2312,9.1184,52.339,0.0163,0.9078,-0.53,311.3906
19:06:19:196,1.5743,-0.5345,6.8882,52.4637,-0.1537,0.3062,-0.3117,312.3594
19:06:19:211,2.4422,0.4759,6.8356,52.2998,-0.3566,-0.4555,-0.3037,313.0781
19:06:19:229,3.0467,0.9846,8.1021,51.8141,-0.4131,-0.8811,-0.4469,313.4531
19:06:19:249,3.0455,0.817,8.9257,50.1474,-0.4109,-0.7426,-0.6169,313.7031
19:06:19:331,2.0962,0.5345,8.7222,53.2319,-0.4274,-0.2371,-0.6334,314.4375
19:06:19:332,1.0919,0.6351,8.0674,53.4738,-0.4197,0.2572,-0.5207,315.2344
19:06:19:332,0.6633,0.8996,7.0977,50.3107,-0.3542,0.4675,-0.4035,316.0156
19:06:19:333,0.4921,1.2121,6.5171,50.5893,-0.1973,0.422,-0.2834,316.625
19:06:19:350,1.19,1.728,6.0407,51.7521,0.0394,0.2172,-0.1961,317.0312
19:06:19:373,1.5599,2.3134,5.7247,51.7725,0.2455,0.0103,-0.183,317.2812
19:06:19:395,1.8915,2.827,5.6229,50.7414,0.3252,-0.129,-0.2621,317.4688
19:06:19:412,1.7778,3.1071,6.0359,51.2289,0.2525,-0.2651,-0.4342,317.6562
19:06:19:428,1.5145,3.1071,7.239,52.9484,0.0852,-0.4243,-0.5926,317.9531
19:06:19:448,1.2164,3.046,9.0921,51.2681,-0.0927,-0.504,-0.6648,318.4062
19:06:19:471,1.1948,3.1478,10.7549,51.8419,-0.176,-0.3716,-0.603,319.0938
19:06:19:493,1.6413,3.5979,11.4815,50.5758,-0.1427,-0.0749,-0.4485,319.9375
19:06:19:513,2.2507,3.9546,11.7999,51.2379,-0.0847,0.2377,-0.3364,320.7344
19:06:19:528,2.7247,4.0013,12.4404,49.4789,-0.0578,0.3738,-0.3228,321.3594
19:06:19:548,2.7498,3.4686,13.1455,50.7757,-0.025,0.2939,-0.4102,321.9219
19:06:19:571,2.3261,2.5289,13.0413,50.4958,-0.0112,0.2175,-0.5716,322.1875
19:06:19:596,1.4295,1.7556,13.0581,49.3402,-0.1443,0.1727,-0.7058,322.5938
19:06:19:614,0.5017,0.9068,14.3677,50.1777,-0.3745,0.0223,-0.7452,323.2031
19:06:19:631,-0.9384,-0.4411,15.7851,50.3755,-0.4011,-0.1269,-0.7455,323.5625
19:06:19:648,-2.248,-1.4706,15.3697,48.0449,-0.0133,-0.2486,-0.5836,324.3125
19:06:19:673,-1.9009,-1.8501,13.0138,48.7929,0.4709,-0.2092,-0.1199,325.125
19:06:19:696,-0.6727,-1.2779,10.361,47.7526,0.7286,-0.1503,0.409,325.9219
19:06:19:711,0.3832,-0.3753,8.9413,49.0385,0.7646,-0.5048,0.7414,326.4375
19:06:19:729,0.807,0.2316,9.2142,47.3631,0.6695,-1.1288,0.8263,326.3594
19:06:19:748,1.1661,0.1239,9.9875,48.2547,0.6029,-1.5527,0.8484,325.8125
19:06:19:769,1.3852,-0.0018,9.8535,48.0039,0.6421,-1.4806,0.915,325.1719
19:06:19:789,1.6713,0.1718,8.5462,46.9199,0.7161,-1.0603,1.0316,324.625
19:06:19:811,1.9083,0.6231,7.1791,48.1734,0.6916,-0.6289,1.1118,323.6875
19:06:19:831,2.1908,1.1367,6.9768,47.6904,0.5047,-0.3564,1.1121,322.8594
19:06:19:848,2.4195,1.2659,7.1157,47.7754,0.2951,-0.0289,1.0213,321.7812
19:06:19:871,2.034,1.2061,6.4657,48.2108,0.2408,0.3709,0.8585,320.6094
19:06:19:896,1.4426,1.2923,5.4086,47.5964,0.2866,0.5757,0.732,319.4531
19:06:19:908,1.4893,1.4563,4.7191,47.2109,0.2831,0.5291,0.7145,318.4375
19:06:19:929,1.7982,1.9279,5.1908,46.3978,0.1635,0.324,0.7275,317.4531
19:06:19:947,2.447,2.4619,6.4489,46.8279,0.0471,0.0945,0.744,316.4844
19:06:19:968,3.3592,2.9778,7.5083,45.7712,0.0903,-0.1692,0.7509,315.625
19:06:19:990,4.2989,3.4602,8.2194,44.7906,0.2394,-0.4052,0.6556,314.7344
19:06:20:014,4.5276,3.5297,8.7904,46.682,0.314,-0.488,0.4149,313.9375
19:06:20:029,3.9446,3.3716,9.4345,45.0721,-0.0101,0.1072,-0.1335,313.3281
19:06:20:055,3.1377,3.0436,10.0929,47.3644,-0.24,0.4132,-0.2539,313.3281
19:06:20:068,2.7618,2.4666,10.8279,45.5883,-0.3936,0.5421,-0.2834,313
19:06:20:089,2.7044,1.5987,11.7078,46.0051,-0.4679,0.5991,-0.2549,312.9531
19:06:20:115,3.3197,0.5225,12.4955,44.843,-0.4511,0.6423,-0.2443,313.0938
19:06:20:138,4.1493,-0.6231,11.9675,43.6878,-0.5518,0.5914,-0.3615,313.4062
19:06:20:152,3.8213,-0.7153,11.4995,44.5582,-0.8336,0.4143,-0.517,313.5156
19:06:20:167,3.1904,-0.7907,13.1084,44.1769,-0.9289,0.353,-0.6792,313.6094
19:06:20:187,2.1046,-1.3892,14.5353,44.3843,-0.6306,0.613,-0.644,313.8438
19:06:20:210,1.2906,-1.7232,13.0784,43.2324,-0.2847,0.7975,-0.3729,314.2812
19:06:20:230,1.2271,-1.0983,10.1994,42.4426,-0.2581,0.5781,-0.0733,314.8906
19:06:20:247,1.7778,-0.0676,8.812,43.2095,-0.4613,0.1083,0.0734,315.4375
19:06:20:268,2.4314,0.7213,9.6104,43.5001,-0.5294,-0.2555,0.0444,315.6719
19:06:20:290,2.7642,0.8972,10.8016,43.0524,-0.363,-0.2164,-0.0667,315.5938
19:06:20:311,2.2662,1.0888,10.2569,43.074,-0.1766,0.0769,-0.146,315.4531
19:06:20:329,1.6737,1.2121,8.6049,43.517,-0.1079,0.3062,-0.1742,315.5156
19:06:20:347,1.1912,1.2899,7.1648,42.5125,-0.1156,0.3413,-0.1705,315.5938
19:06:20:367,0.9877,1.3593,6.5099,42.3334,-0.1161,0.2838,-0.1319,315.7031
19:06:20:388,1.0643,1.5173,6.3459,41.5422,-0.0567,0.2364,-0.1087,315.8281
19:06:20:412,1.3205,1.7041,6.2765,42.404,0.0415,0.2255,-0.1268,315.9219
19:06:20:429,1.5587,1.9686,6.073,42.2042,0.1052,0.2617,-0.1971,316
19:06:20:448,1.6402,2.4235,5.9258,40.7744,0.1153,0.3006,-0.301,316.0781
19:06:20:469,1.9789,2.7144,6.0395,41.2475,0.1001,0.2923,-0.4637,316.2031
19:06:20:490,2.1824,2.9946,6.565,39.6016,0.0836,0.3307,-0.684,316.4219
19:06:20:511,1.6904,2.9084,6.9565,41.2198,0.037,0.348,-0.8648,316.8125
19:06:20:531,0.5376,2.6306,7.5849,41.0022,-0.0943,0.3512,-0.8025,317.0781
19:06:20:547,-0.3447,2.4678,8.7916,42.4106,-0.2663,0.3091,-0.529,317.7969
19:06:20:569,-0.4009,2.5253,11.132,42.6745,-0.3087,0.3264,-0.1793,318.6719
19:06:20:589,0.1976,2.6019,13.5537,42.1599,-0.1249,0.3504,0.0995,319.5
19:06:20:613,1.0967,2.548,15.1363,40.2912,0.1936,0.3712,0.23,320.0156
19:06:20:630,1.6988,2.4882,15.2979,42.2214,0.4605,0.4361,0.2029,320.1094
19:06:20:648,1.6366,2.299,14.0637,39.843,0.5132,0.4947,0.1035,319.7656
19:06:20:667,1.3133,2.0524,12.4943,41.1503,0.2746,0.34,0.0391,319.4688
19:06:20:688,1.2822,1.989,12.7648,40.4583,0.0264,0.1645,-0.0738,319.2656
19:06:20:711,0.9374,0.8925,14.3031,39.5877,0.1931,0.2865,-0.2845,319.1719
19:06:20:730,-1.8973,-1.0947,10.4197,40.5839,0.5382,0.4873,-0.2286,319.1406
19:06:20:748,-1.5118,-1.2456,8.0039,40.8375,0.628,0.5243,0.0745,319.3125
19:06:20:770,-0.6511,-1.0277,7.0295,41.4073,0.4216,0.1754,0.3499,319.625
19:06:20:786,0.0731,-0.4304,8.1344,40.5773,0.037,-0.5117,0.4782,319.7031
19:06:20:809,0.7256,-0.2556,10.0713,39.937,-0.3145,-1.0249,0.4513,319.4531
19:06:20:831,0.8764,-0.2125,10.695,40.9842,-0.4578,-0.9775,0.3342,319.0469
19:06:20:848,0.3736,-0.167,9.6775,40.5314,-0.4306,-0.5301,0.2125,318.6719
19:06:20:866,-0.1004,-0.1538,8.156,39.5494,-0.3409,-0.1199,0.2292,318.4219
19:06:20:887,0.0241,0.331,7.3144,42.2396,-0.2474,-0.0036,0.4255,318.2344
19:06:20:912,0.9159,1.0636,7.2797,39.6278,-0.1814,-0.0952,0.6572,318.0312
19:06:20:930,1.5168,1.4455,7.4126,41.1144,-0.0716,-0.2342,0.6902,317.3438
19:06:20:947,1.3241,1.2743,7.4916,42.5806,0.0727,-0.28,0.5169,316.625
19:06:20:967,0.7327,0.9391,7.2617,42.5806,0.1768,-0.0845,0.3834,315.875
19:06:20:988,0.3473,0.987,6.6716,41.0259,0.2226,0.2444,0.3957,315.3594
19:06:21:011,0.6322,1.3844,6.4214,41.1884,0.2,0.385,0.5041,314.9531
19:06:21:028,1.4139,1.7903,6.8523,41.2446,0.1766,0.2308,0.5496,314.7656
19:06:21:047,1.9729,1.9914,7.6352,40.0977,0.1957,-0.0947,0.4372,314.1875
19:06:21:067,1.8915,1.8884,8.4193,40.676,0.2338,-0.3644,0.2388,313.5156
19:06:21:087,1.3241,1.6143,8.9796,40.9832,0.2346,-0.4283,0.0585,312.9531
19:06:21:111,0.8381,1.418,9.3842,41.685,0.175,-0.3229,-0.0081,312.6406
19:06:21:131,0.9566,1.2264,9.6655,40.5492,0.0615,-0.2089,0.0468,312.625
19:06:21:147,1.1852,0.9475,10.3311,41.5152,-0.1174,-0.2238,0.1097,312.7344
19:06:21:167,1.6413,0.677,11.6431,40.1879,-0.3214,-0.3466,0.1709,312.7812
19:06:21:187,3.0922,0.2448,12.1411,42.1575,-0.4202,-0.3679,0.2865,312.7344
19:06:21:212,4.6664,0.6123,12.0849,39.8228,-0.4346,-0.5162,0.3414,312.5469
19:06:21:229,6.4142,1.4635,13.7381,39.2326,-0.5718,-0.9325,0.2295,312.2969
19:06:21:247,6.4453,1.1666,16.7978,41.3673,-0.7856,-1.1221,-0.2568,311.9844
19:06:21:267,4.4545,-0.228,17.8273,40.9377,-0.7697,-0.4366,-0.9316,311.9062
19:06:21:288,2.2794,-1.1905,14.8023,42.2443,-0.4075,0.7983,-1.2451,312.3906
19:06:21:312,1.3409,-0.9403,10.525,40.9683,0.0359,1.5645,-1.0683,313.5
19:06:21:329,2.0867,-0.2233,7.8088,42.8355,0.2615,1.3919,-0.6912,314.7344
19:06:21:347,3.0132,0.4375,8.0075,41.8742,0.2083,0.5695,-0.5021,315.6094
19:06:21:414,3.1545,0.4627,9.4692,41.6409,0.1364,-0.2307,-0.5577,316.1406
19:06:21:415,2.2638,0.2005,9.2202,42.8038,0.2607,-0.4411,-0.7162,316.625
19:06:21:415,1.3205,0.155,7.4341,42.4999,0.4466,-0.272,-0.7782,317.3281
19:06:21:429,0.6166,0.4926,5.915,43.0888,0.3707,0.0795,-0.5838,318.2188
19:06:21:448,0.3748,0.7799,5.0315,43.0393,0.2751,0.0763,-0.4619,318.2188
19:06:21:468,0.3604,1.0469,4.6437,44.0893,0.2362,-0.0313,-0.3833,319.2188
19:06:21:488,0.5783,1.2887,4.3456,42.9359,0.2019,-0.2004,-0.3529,320.1094
19:06:21:511,1.0536,1.6119,4.6616,43.0355,0.0802,-0.2592,-0.3913,321.3125
19:06:21:530,1.6306,2.1398,5.575,41.914,-0.0791,-0.0837,-0.5338,321.7812
19:06:21:548,1.718,2.6318,6.6105,44.7203,-0.216,0.0915,-0.7628,322.2344
19:06:21:568,0.9554,2.6115,7.8639,43.9273,-0.3028,0.2747,-0.9263,322.75
19:06:21:587,-0.3746,2.2631,8.9425,42.1282,-0.3542,0.4436,-0.8563,323.375
19:06:21:611,-1.3083,2.0225,10.1767,44.8721,-0.3217,0.5658,-0.5641,324.1875
19:06:21:630,-1.3418,2.2775,11.2349,44.4839,-0.1614,0.5717,-0.2469,325.1094
19:06:21:647,-0.936,2.7515,11.521,45.1151,0.0091,0.4532,0.005,325.9531
19:06:21:667,-0.535,3.2926,11.4995,44.4444,0.0232,0.2127,0.1741,326.4375
19:06:21:686,0.1438,3.5345,12.371,44.0562,-0.0503,0.001,0.2141,326.5781
19:06:21:712,0.3317,3.0293,13.9918,45.1609,-0.0839,0.1158,0.2279,326.4844
19:06:21:731,0.3808,2.2296,14.4767,44.2204,-0.1129,0.4031,0.3121,326.2344
19:06:21:747,0.3437,2.159,13.9679,45.0862,-0.1651,0.3315,0.3584,326
19:06:21:767,0.2731,1.6646,14.4348,46.6518,-0.0575,0.1224,0.2524,325.7031
19:06:21:788,-1.1311,0.1897,14.8107,46.2216,0.3369,0.1669,0.3035,324.9844
19:06:21:812,-2.509,-0.9583,12.6128,44.7837,0.5987,0.271,0.7121,324.5781
19:06:21:830,-1.9452,-1.2492,10.0953,46.953,0.5974,0.2577,1.1467,324.3125
19:06:21:847,-0.8486,-0.8062,8.0434,47.2634,0.4221,-0.2092,1.3528,323.8125
19:06:21:867,0.0707,-0.167,7.3252,48.5342,0.1103,-0.9253,1.3962,322.7656
19:06:21:887,1.1074,0.1083,8.4564,48.3439,-0.1981,-1.3988,1.2945,321.4375
19:06:21:912,1.8688,-0.0521,10.5346,48.1607,-0.3108,-1.2337,1.1416,320.0312
19:06:21:928,2.344,-0.0928,12.2249,45.8641,-0.147,-0.6177,1.0167,318.75
19:06:21:947,3.03,0.2735,11.8143,46.7762,0.0573,0.2308,0.7717,317.7031
19:06:21:968,2.8049,0.8302,9.365,46.2777,0.0096,0.9474,0.4386,316.6719
19:06:21:988,1.5947,0.9738,7.0702,47.3726,-0.1688,1.3395,0.2468,315.6719
19:06:22:013,0.6238,0.7308,5.7474,47.6584,-0.2647,1.3698,0.2463,315.2188
19:06:22:029,0.1761,0.4591,5.1213,49.5724,-0.1646,1.0721,0.3794,314.5312
19:06:22:047,0.0767,0.5393,4.4366,48.1618,0.0248,0.5586,0.544,313.9062
19:06:22:068,0.3353,0.9786,3.826,47.8952,0.147,-0.0214,0.6529,313.2656
19:06:22:088,0.9326,1.479,3.7746,45.9491,0.1486,-0.5194,0.6308,312.2188
19:06:22:111,1.3588,1.892,4.579,47.6208,0.0245,-0.7841,0.4865,311.4688
19:06:22:131,0.0947,1.2887,8.308,47.6943,-0.2128,-0.6731,0.3235,310.8125
19:06:22:147,-0.948,0.8098,10.5861,47.1411,-0.4714,-0.137,0.3517,310.3594
19:06:22:167,-0.6858,1.0816,11.2972,48.5655,-0.5475,0.5421,0.6127,310.0938
19:06:22:187,0.789,1.8429,11.5785,45.8745,-0.4599,0.679,0.8298,309.8281
19:06:22:212,2.1106,2.25,12.8809,48.2791,-0.3776,0.1275,0.7978,309.2188
19:06:22:230,2.4949,1.4778,15.1566,47.3369,-0.3183,-0.5346,0.5387,308.1406
19:06:22:247,2.7642,0.1059,15.7623,49.4228,-0.1742,-0.577,0.3033,307.0156
19:06:22:266,2.8995,-0.2209,13.7177,48.6997,0.004,0.0143,0.2119,306.25
19:06:22:286,3.2742,0.4435,12.2201,48.2265,-0.0117,0.3307,0.1826,305.9219
19:06:22:306,3.8045,0.4268,13.0773,49.179,-0.1582,0.0212,0.0388,305.7188
19:06:22:329,3.9912,-0.3825,13.7404,47.5145,-0.1651,-0.2803,-0.2406,305.4375
19:06:22:346,3.7985,-1.224,12.517,47.1167,0.0463,-0.2302,-0.4997,305.2344
19:06:22:366,3.5663,-1.7077,9.8846,50.2148,0.2698,-0.0643,-0.6291,305.5625
19:06:22:387,3.7901,-1.5401,7.5766,48.1636,0.2828,-0.104,-0.6041,306.1875
19:06:22:413,3.9062,-0.7859,6.9289,48.9501,-0.0186,-0.3559,-0.5692,306.9062
19:06:22:432,3.4825,-0.3477,7.8028,47.8803,-0.4543,-0.5551,-0.6576,307.6562
19:06:22:447,2.8049,-0.2867,9.128,48.6805,-0.7433,-0.5937,-0.8105,308.3906
19:06:22:467,2.0879,-0.2843,9.7026,48.5995,-0.7249,-0.3487,-0.8989,309.1719
19:06:22:487,1.5252,0.0377,8.7401,49.4779,-0.4171,0.0292,-0.8701,310.1562
19:06:22:514,1.5025,0.4998,7.2857,47.7292,-0.0336,0.2897,-0.7644,310.6875
19:06:22:532,1.5348,0.8673,6.1808,49.3494,0.2631,0.2958,-0.7055,311.6875
19:06:22:549,1.287,1.2624,5.6002,48.5532,0.4005,0.2231,-0.7306,312.5312
19:06:22:566,1.4163,1.5497,5.2805,50.4898,0.4077,0.2191,-0.7745,313.3125
19:06:22:586,1.4558,1.8801,5.071,48.7783,0.3579,0.2441,-0.8848,314.1094
19:06:22:606,1.2271,2.1291,5.0998,49.5819,0.2594,0.1797,-1.072,314.9844
19:06:22:631,0.619,2.2488,5.9198,48.6951,0.0887,0.0548,-1.2744,315.875
19:06:22:648,-0.3842,2.2966,7.7932,48.5463,-0.1084,-0.0816,-1.4358,317.625
19:06:22:666,-1.4244,2.08,9.2621,51.201,-0.1926,-0.0981,-1.4794,319
19:06:22:688,-2.4767,2.0716,10.1886,49.6862,-0.1928,-0.0464,-1.3668,320.6406
19:06:22:713,-2.9208,2.3757,11.2385,50.6416,-0.2258,0.0058,-1.0595,322.3281
19:06:22:731,-2.0146,2.5516,13.3274,48.7345,-0.343,-0.0717,-0.5873,323.875
19:06:22:748,-0.845,2.3266,17.0696,49.3533,-0.4759,-0.2132,-0.187,325
19:06:22:766,-0.4308,1.7053,20.1066,50.1158,-0.3731,-0.1016,0.0822,325.625
19:06:22:787,-0.7696,1.643,18.2811,50.2323,0.1662,0.4955,0.3254,325.7969
19:06:22:812,-1.185,1.8813,14.7173,49.8697,0.636,1.0715,0.5739,325.6875
19:06:22:828,-1.0928,1.0457,13.659,49.1269,0.7915,1.0042,0.7571,325.25
19:06:22:847,-2.2684,-0.6231,12.8342,48.4856,0.9867,1.0811,0.9206,325.25
19:06:22:867,-3.2404,-1.5592,10.5466,50.4464,1.0453,0.9927,1.3629,324.5156
19:06:22:886,-2.4037,-1.3042,8.3858,49.0604,0.8567,0.7299,1.6886,323.6406
19:06:22:907,-0.7541,-0.3537,6.8164,50.8645,0.3958,0.3283,1.666,322.7344
19:06:22:930,0.0348,0.6662,6.7266,50.368,-0.2195,-0.0656,1.4098,321.6406
19:06:22:947,0.1019,0.7811,8.5235,49.4895,-0.599,-0.17,1.185,318.2344
19:06:22:967,0.6645,0.3586,10.604,48.5126,-0.5177,-0.1032,1.004,316.3125
19:06:22:986,1.3552,0.4447,11.5521,50.2052,-0.0495,-0.0462,0.8466,314.6719
19:06:23:007,1.9741,0.4854,10.7692,48.6316,0.5036,0.0545,0.6998,313.3125
19:06:23:030,2.3776,0.0533,8.867,49.0199,0.8336,0.2598,0.58,312.1094
19:06:23:046,2.0819,-0.0006,6.6404,50.2396,0.8599,0.5357,0.4761,311.1406
19:06:23:066,1.4558,0.483,4.743,49.2578,0.694,0.6276,0.3246,310.4531
19:06:23:086,0.8022,0.8015,3.7087,49.3943,0.4466,0.581,0.1741,309.8438
19:06:23:106,0.1294,0.9104,3.3939,48.4707,0.1856,0.4875,0.1355,309.2969
19:06:23:131,-0.2728,1.0217,3.674,49.1455,-0.0466,0.2806,0.2066,308.875
19:06:23:151,-0.3842,1.2324,4.9525,49.1227,-0.1569,-0.0169,0.3504,308.5781
19:06:23:167,-0.0071,1.6358,7.0331,49.0565,-0.0434,-0.4113,0.4782,308.3125
19:06:23:186,0.4071,2.0931,8.9233,49.451,0.2088,-0.7575,0.4934,307.9844
19:06:23:207,0.2755,2.2895,9.7038,49.451,0.314,-0.8782,0.5054,307.5781
19:06:23:229,0.716,2.7037,10.1049,50.128,0.1912,-0.8635,0.4716,306.9844
19:06:23:247,1.7311,3.216,10.6878,50.1443,-0.0991,-0.8632,0.2452,306.7344
19:06:23:265,2.5092,3.2867,12.2716,48.5433,-0.3928,-0.675,-0.0858,306.4844
19:06:23:286,3.6884,2.5193,13.5513,49.7668,-0.5944,-0.2717,-0.5133,306.3281
19:06:23:305,4.0092,1.6442,13.2951,49.6072,-0.905,0.0886,-0.9663,306.4531
19:06:23:328,3.1066,1.4611,13.1586,49.2056,-1.3137,0.3035,-1.3431,306.8438
19:06:23:347,1.7084,0.7763,15.2715,47.902,-1.3002,0.3799,-1.5644,307.6406
19:06:23:366,0.7746,-0.6782,16.8577,49.3108,-0.6538,0.6385,-1.5056,308.75
19:06:23:387,0.0971,-1.7903,14.7939,49.1946,0.0597,0.9403,-1.1386,310.1719
19:06:23:407,-0.1962,-1.4754,10.8506,47.7407,0.4394,0.8308,-0.628,311.6094
19:06:23:429,0.722,-0.428,7.4952,47.7012,0.457,0.0803,-0.4118,312.9375
19:06:23:490,1.5527,0.7117,6.0814,47.8865,0.1664,-0.7844,-0.5282,313.7656
19:06:23:490,2.186,1.0481,6.7326,46.9585,-0.2554,-0.9692,-0.7601,314.25
19:06:23:491,2.3919,0.5668,7.543,47.6631,-0.6056,-0.4901,-1.0105,314.5312
19:06:23:514,1.5719,0.4316,7.3336,47.7136,-0.8493,0.0761,-1.1764,315.3594
19:06:23:532,0.2336,0.7668,6.9613,47.0041,-1.0184,0.2585,-1.2568,316.9375
19:06:23:546,-0.4919,0.7739,8.0518,46.3333,-0.9883,0.1357,-1.2794,318.1094
19:06:23:571,-1.2317,0.6135,8.4313,46.5864,-0.6741,-0.0225,-1.2179,319.2969
19:06:23:584,-1.4771,0.5201,8.1129,45.9761,-0.2402,-0.1146,-1.0131,320.5156
19:06:23:607,-1.1814,0.9116,7.4114,45.9853,0.0985,-0.0901,-0.7154,321.7188
19:06:23:630,-0.5482,1.6957,6.6141,46.5786,0.2783,0.0396,-0.4709,322.9375
19:06:23:646,-0.0274,2.463,6.5949,47.7781,0.2823,0.0601,-0.42,323.9375
19:06:23:665,0.1318,2.7863,7.3719,47.4235,0.1689,0.0215,-0.5378,324.6094
19:06:23:689,-0.1172,2.8425,8.7761,47.197,0.0328,0.014,-0.7439,325.1406
19:06:23:711,-1.1419,2.8808,10.707,46.7046,-0.0932,0.1176,-0.9492,325.7188
19:06:23:731,-2.4288,2.5229,12.3865,46.0699,-0.1947,0.4654,-1.0526,326.4219
19:06:23:747,-3.1363,1.837,13.3813,43.8033,-0.2668,0.9341,-0.9236,327.3906
19:06:23:765,-3.2309,1.2959,13.9631,45.8477,-0.2772,1.2915,-0.6051,328.4844
19:06:23:786,-2.9196,0.8302,14.1259,44.8527,-0.1388,1.3389,-0.2003,329.5
19:06:23:806,-2.4503,0.8793,13.1766,46.1669,0.0996,1.1991,0.1531,330.2812
19:06:23:829,-2.0505,0.8278,11.8945,47.5786,0.2639,0.9368,0.3752,330.2969
19:06:23:846,-2.3127,0.0198,12.0238,48.2463,0.2834,0.3443,0.4039,329.9844
19:06:23:866,-3.4056,-1.1247,12.997,46.538,0.2477,-0.2944,0.3493,329.5312
19:06:23:887,-3.3338,-2.1494,13.7345,48.1342,0.2842,-0.705,0.5233,329.1094
19:06:23:916,-2.0637,-2.4535,13.1562,46.8438,0.3806,-0.7961,0.8751,328.8281
19:06:23:929,-0.8857,-2.0069,11.6707,46.9352,0.445,-0.8251,1.1166,328.4375
19:06:23:951,0.0743,-1.3318,10.5466,46.1721,0.3497,-0.9176,1.1957,327.1875
19:06:23:969,0.2539,-0.8517,9.6763,46.5011,-0.0463,-0.8385,0.9525,326.0938
19:06:23:996,0.1928,-0.5381,8.7054,47.4977,-0.1694,-0.6925,0.8868,325.0625
19:06:24:009,0.3197,-0.2652,7.6676,48.3445,-0.1683,-0.5996,0.8524,324.0781
19:06:24:031,0.4706,0.0186,6.9218,47.0974,-0.0482,-0.5695,0.826,323.1562
19:06:24:049,0.4957,0.2364,6.6249,47.5601,0.1792,-0.5274,0.8119,321.8438
19:06:24:070,0.3449,0.4328,5.8276,47.5901,0.339,-0.4781,0.8162,321
19:06:24:096,0.2072,0.8194,5.0902,48.0812,0.3345,-0.4454,0.8282,320.2188
19:06:24:108,0.4083,1.011,4.9501,48.3172,0.2261,-0.4259,0.793,319.4844
19:06:24:131,0.5185,1.1283,5.678,47.7329,0.1103,-0.3056,0.7608,318.6719
19:06:24:150,0.7507,1.3928,6.65,47.296,0.0415,-0.0848,0.6961,317.8906
19:06:24:167,1.0344,1.643,7.409,48.5756,0.0413,0.0763,0.5619,317.1562
19:06:24:187,0.8764,1.7017,7.8699,48.872,0.0381,0.1181,0.4551,316.375
19:06:24:208,0.7339,1.6837,8.4325,48.7156,0.012,0.0801,0.4117,315.7188
19:06:24:228,1.1386,1.7723,9.5027,48.943,0.0586,-0.0302,0.311,315.7188
19:06:24:247,1.767,2.0213,10.4221,49.196,0.1617,-0.2401,0.1091,315.1875
19:06:24:265,2.6254,2.1506,11.2553,49.3722,0.2847,-0.5048,-0.1961,314.7188
19:06:24:286,3.0443,1.6382,11.4193,50.3589,0.2344,-0.6797,-0.5442,314.375
19:06:24:305,2.3105,1.1271,11.8335,50.5106,-0.0293,-0.4827,-0.7511,314.3281
19:06:24:334,1.4043,0.5728,12.517,49.3024,-0.2863,-0.0504,-0.7479,314.7031
19:06:24:350,1.2236,0.2388,12.3698,48.7279,-0.4988,0.1615,-0.676,316.4844
19:06:24:366,1.1314,0.6051,12.1639,50.2462,-0.7366,-0.1232,-0.6501,316.9375
19:06:24:386,1.2415,0.4914,13.9356,49.1958,-0.8227,-0.4574,-0.672,317.2812
19:06:24:404,1.4426,-0.6722,16.076,48.1677,-0.5846,-0.1953,-0.6169,318.2812
19:06:24:426,1.2379,-1.5748,15.256,47.7667,-0.2349,0.4108,-0.4006,318.625
19:06:24:446,1.1254,-1.5568,11.5869,48.3492,-0.0945,0.7189,-0.1279,319.375
19:06:24:465,1.2224,-0.4914,7.9393,50.9708,-0.2607,0.418,-0.0054,320.0156
19:06:24:485,1.0596,0.4471,6.5542,49.4529,-0.5204,-0.0797,-0.031,320.3594
19:06:24:505,0.7842,0.7117,6.6129,49.1238,-0.6842,-0.3024,-0.0714,320.3594
19:06:24:529,0.3592,0.8972,6.8272,48.1919,-0.7207,-0.2283,-0.0667,320.25
19:06:24:548,0.1569,1.2073,6.802,49.2016,-0.6229,-0.0723,-0.0531,320.2188
19:06:24:565,0.0253,1.3952,6.4836,49.6546,-0.4149,-0.0017,-0.035,320.25
19:06:24:587,-0.0514,1.5341,6.1736,49.0657,-0.167,-0.0717,0.0095,320.2656
19:06:24:606,0.1318,1.6131,6.1125,50.2047,0.0932,-0.1516,0.037,320.25
19:06:24:625,0.2252,1.892,5.9102,49.547,0.2397,-0.2217,0.0234,320.2031
19:06:24:649,0.3413,1.8884,6.1149,49.4216,0.2538,-0.1596,-0.0326,320.2031
19:06:24:665,0.2994,1.6179,6.3196,49.7809,0.1145,0.034,-0.0845,320.2188
19:06:24:688,0.2515,1.4575,7.069,49.5208,-0.1007,0.259,-0.077,320.2812
19:06:24:705,0.6154,1.4335,8.2027,49.2406,-0.3023,0.2713,-0.0896,320.3906
19:06:24:726,0.8644,1.3893,9.5123,50.516,-0.5966,-0.059,-0.1324,320.4688
19:06:24:746,0.279,1.3785,13.1766,48.7402,-0.608,-0.4864,-0.0416,320.4844
19:06:24:767,0.3209,0.7811,17.7531,50.0449,0.0522,-0.5788,0.1057,320.5312
19:06:24:785,1.2583,-0.1478,18.2523,50.3417,0.9071,-0.1285,0.2631,320.5781
19:06:24:805,1.9442,-0.1921,14.6646,51.7113,1.2195,0.63,0.4234,320.5781
19:06:24:834,2.1932,0.4794,10.8231,49.9575,0.8996,1.1517,0.4718,320.5
19:06:24:852,1.8461,1.1223,9.3938,49.1877,0.4021,1.3094,0.3587,320.2344
19:06:24:868,0.6621,0.8206,9.3519,49.3346,-0.0088,1.0535,0.3382,319.6875
19:06:24:886,-0.6523,0.2735,10.1875,50.3798,-0.3172,0.3568,0.5549,319.0625
19:06:24:906,-1.27,-1.0768,15.924,50.0288,-0.334,-0.2504,0.8391,318.5
19:06:24:930,-0.7948,-1.4551,16.0125,49.7571,0.0021,-0.2241,1.132,318.2344
19:06:24:946,0.1354,-1.3342,13.1958,51.6064,0.4759,0.1469,1.3835,317.0156
19:06:24:968,0.7124,-0.8912,10.2198,51.0057,0.7007,0.352,1.4138,315.9219
19:06:24:986,0.8285,-0.6243,8.308,51.5089,0.6051,0.3259,1.2221,314.5625
19:06:25:004,0.2036,-0.5788,6.9744,51.5232,0.3625,0.2793,0.8916,312.9844
19:06:25:031,-0.5542,-0.5884,6.0084,50.4101,0.1068,0.2622,0.6212,311.4688
19:06:25:047,-0.7612,-0.3011,5.0471,50.779,-0.0831,0.2215,0.5235,310.3125
19:06:25:065,-0.4751,0.2723,4.2331,50.6901,-0.2304,0.1131,0.5557,309.4531
19:06:25:085,-0.0669,0.8027,4.3839,49.9313,-0.3742,-0.1466,0.6165,308.7656
19:06:25:106,0.4107,0.9451,5.3344,50.4884,-0.4408,-0.5178,0.6655,308.0938
19:06:25:131,0.6789,0.9319,6.6967,50.8017,-0.3936,-0.774,0.7078,307.4062
19:06:25:147,0.9925,0.9332,7.7059,50.9356,-0.2333,-0.7439,0.7675,306.6875
19:06:25:164,1.3433,1.0612,7.2545,49.9582,0.0261,-0.4867,0.7973,305.9844
19:06:25:185,1.8221,1.4132,6.9744,53.4009,0.1617,-0.3333,0.7648,305.3125
19:06:25:205,2.5068,1.7173,7.4712,50.7339,0.1451,-0.3756,0.674,304.125
19:06:25:230,3.0228,1.8908,8.8671,51.3011,0.0802,-0.5708,0.4726,303.3438
19:06:25:247,3.2981,1.582,9.7637,51.401,0.0775,-0.6651,0.1856,302.7031
19:06:25:264,2.8875,1.1008,10.2701,51.7847,0.0557,-0.5442,-0.129,302.2969
19:06:25:289,2.3584,0.7189,11.0745,52.861,-0.0698,-0.2608,-0.3375,302.25
19:06:25:304,2.1477,0.568,12.0645,52.7012,-0.18,-0.0491,-0.4107,302.5
19:06:25:325,2.2231,0.4388,12.5804,51.5354,-0.1949,0.0079,-0.4379,302.9375
19:06:25:347,1.8999,0.5297,13.1838,51.5354,-0.2093,-0.0414,-0.4765,303.4219
19:06:25:366,1.5312,0.325,14.3103,49.9807,-0.2461,-0.0164,-0.5093,303.9062
19:06:25:386,1.3983,-0.3705,14.1738,50.7638,-0.1702,0.1741,-0.5109,304.4219
19:06:25:407,1.3504,-0.0868,13.6471,51.2841,-0.0828,0.4156,-0.4286,304.7031
19:06:25:429,2.0077,0.574,14.5796,49.8217,-0.1246,0.4156,-0.3228,305.25
19:06:25:445,2.6301,-0.2723,15.8833,49.8217,-0.0522,0.1647,-0.4296,305.7188
19:06:25:464,2.7463,-1.5916,15.1075,50.1437,0.2722,0.1243,-0.648,306.0312
19:06:25:484,2.6313,-1.7891,12.0765,50.5086,0.599,0.4407,-0.7263,306.3438
19:06:25:555,2.0615,-1.2767,8.7988,49.226,0.7025,0.6058,-0.7647,306.9688
19:06:25:555,0.9997,-0.641,7.1696,47.4949,0.5042,0.4353,-0.8456,308.125
19:06:25:555,0.3138,-0.3286,6.8858,49.5212,0.1984,0.1991,-0.8755,308.9375
19:06:25:570,0.1138,-0.0114,6.3759,47.8052,0.0493,0.0979,-0.8062,309.875
19:06:25:584,-0.0442,0.2927,5.2674,48.4073,0.0975,0.0042,-0.6994,310.8125
19:06:25:607,-0.0179,0.5704,4.0152,48.1905,0.1742,-0.3519,-0.4057,311.7188
19:06:25:641,0.0217,0.9224,3.674,47.7808,0.0602,-0.5335,-0.2685,312.5312
19:06:25:646,0.0576,1.2528,4.5742,49.4468,0.0213,-0.562,-0.1753,312.5312
19:06:25:671,0.1653,1.5509,5.5211,48.897,0.0578,-0.4007,-0.1487,313.1875
19:06:25:684,0.1533,1.8525,6.2538,48.5281,0.0996,-0.0963,-0.1452,313.7656
19:06:25:706,0.3078,2.2021,6.9397,47.2374,0.1688,0.1541,-0.2009,314.5
19:06:25:732,0.279,2.6163,7.1444,48.165,0.2125,0.1978,-0.3212,314.7812
19:06:25:749,0.0121,2.7791,7.6831,47.2799,0.1694,0.1144,-0.4278,314.9688
19:06:25:766,-0.5039,2.742,8.952,46.4313,0.1361,0.1115,-0.4738,315.5156
19:06:25:792,-1.0426,2.7934,10.2569,48.1973,0.1252,0.1158,-0.4557,315.75
19:06:25:804,-1.094,2.7659,11.5366,46.7554,0.1411,0.185,-0.4182,316.2812
19:06:25:825,-0.8474,2.6534,12.4129,45.6734,0.1387,0.34,-0.3601,316.7812
19:06:25:859,-0.4656,2.5983,13.1048,45.5836,0.1667,0.5751,-0.309,317.2656
19:06:25:864,-0.1364,2.5049,12.9623,45.0756,0.1436,0.797,-0.3029,317.4844
19:06:25:884,0.1019,2.3781,11.7987,46.0004,-0.1499,0.6255,-0.3212,317.8438
19:06:25:904,-0.2872,2.3038,12.5697,43.4685,-0.5105,0.0729,-0.2805,318.0781
19:06:25:924,-0.5206,1.2779,15.7971,44.6131,-0.4953,-0.2787,-0.1492,318.2656
19:06:25:945,-0.5972,-0.1323,18.1973,44.607,-0.0216,-0.0896,0.136,318.4688
19:06:25:964,-0.3351,-0.9236,16.6829,44.5411,0.477,0.4409,0.4713,318.6719
19:06:25:984,-0.0166,-0.7177,12.1471,44.1932,0.4977,0.6079,0.7222,318.8125
19:06:26:004,0.6944,-0.422,8.6875,42.8872,0.1689,0.2819,0.7704,318.6719
19:06:26:023,0.9913,-0.0868,7.233,43.6616,-0.2866,-0.1357,0.6735,318.1094
19:06:26:047,0.8022,0.1048,7.4641,43.4855,-0.6093,-0.4523,0.5826,317.2812
19:06:26:064,0.6322,0.0281,8.2062,44.2473,-0.62,-0.6534,0.5184,315.9531
19:06:26:089,0.1186,-0.1287,8.0015,41.606,-0.4559,-0.6763,0.5768,315.2344
19:06:26:103,-0.3614,-0.2269,6.8942,41.3747,-0.298,-0.574,0.7837,314.6562
19:06:26:125,-0.4189,0.0485,5.2769,41.8271,-0.2767,-0.5644,1.0287,314.125
19:06:26:147,0.0719,0.6758,4.1337,39.9076,-0.392,-0.7237,1.1685,313.4531
19:06:26:169,0.9494,1.2276,3.9518,41.2756,-0.5571,-0.9655,1.1286,312.5469
19:06:26:189,1.6186,1.7125,4.7766,40.0718,-0.6461,-1.1684,0.9451,311.3594
19:06:26:204,1.9059,1.9866,6.2454,39.7776,-0.5976,-1.2204,0.6767,310.1406
19:06:26:225,1.785,1.8549,8.1536,41.1919,-0.3846,-1.0563,0.4503,309.1094
19:06:26:247,1.554,1.2875,9.2968,38.7436,-0.118,-0.7234,0.3246,308.4219
19:06:26:265,1.0153,1.0277,9.5578,38.3487,0.0328,-0.4321,0.3525,307.9844
19:06:26:284,0.801,1.1845,10.1479,38.7758,0.1097,-0.1961,0.4564,307.7344
19:06:26:306,2.3536,1.661,11.0302,38.4557,0.2061,-0.1093,0.4793,307.4844
19:06:26:331,3.1162,1.5628,10.8854,38.3959,0.289,-0.1628,0.3302,307.0781
19:06:26:347,3.1174,1.2719,10.932,37.2892,0.2402,-0.3146,0.0649,306.5625
19:06:26:366,2.0927,1.0876,12.1076,38.1888,0.0266,-0.4201,-0.1852,306.3125
19:06:26:385,1.5312,0.5369,13.6195,36.7114,-0.1425,-0.3021,-0.2741,305.9531
19:06:26:404,2.125,-0.2376,12.9887,37.2272,-0.028,0.1048,-0.1891,306.1094
19:06:26:425,3.2502,-0.3382,11.0805,36.0077,0.1744,0.299,-0.0672,306.4844
19:06:26:448,4.7263,-0.0102,11.9615,37.1138,0.0674,-0.1674,-0.0493,306.7656
19:06:26:465,5.2398,-0.6722,15.8007,37.3832,-0.2903,-0.7671,-0.3111,306.8594
19:06:26:490,5.083,-2.1266,17.6442,35.8499,-0.3177,-0.6446,-0.664,306.875
19:06:26:503,4.3169,-3.3166,14.5892,36.1285,0.0581,0.2694,-0.9207,307.125
19:06:26:524,3.334,-3.3214,9.6176,36.7988,0.339,1.2918,-0.9394,307.8438
19:06:26:546,2.5763,-2.1183,6.395,36.8961,0.2184,1.7746,-0.7735,308.8281
19:06:26:566,2.2973,-1.0086,5.751,36.2571,-0.1585,1.5845,-0.6291,309.7344
19:06:26:585,1.846,-0.5573,6.2454,36.4478,-0.4458,1.1237,-0.6363,310.4062
19:06:26:607,1.2798,-0.592,6.1221,36.0605,-0.4527,0.7669,-0.689,310.8281
19:06:26:633,0.7076,-0.6889,5.8659,35.0449,-0.3188,0.4699,-0.6656,311.2344
19:06:26:648,0.2946,-0.5297,6.2179,35.9747,-0.188,0.1938,-0.5396,312.0469
19:06:26:665,0.2443,-0.2292,6.4046,35.6732,-0.0099,0.0255,-0.3524,312.6875
19:06:26:690,0.2288,0.1466,6.3591,33.9981,0.1835,-0.0938,-0.2254,313.25
19:06:26:703,0.2826,0.4064,6.4716,35.6692,0.2717,-0.1032,-0.1612,313.625
19:06:26:725,0.5101,0.9858,6.8427,36.9635,0.241,0.0375,-0.1159,313.9219
19:06:26:751,0.728,1.6382,7.4425,35.3833,0.1489,0.2401,-0.0898,314.1562
19:06:26:765,1.1218,2.244,8.1236,35.9318,0.0658,0.4449,-0.1085,314.2969
19:06:26:784,1.105,2.6941,8.879,36.3796,0.0304,0.5517,-0.199,314.375
19:06:26:807,0.3066,2.8126,9.9061,35.1174,0.0075,0.5701,-0.3481,314.4219
19:06:26:832,-0.5039,2.3134,11.0194,36.1658,0.0354,0.5213,-0.4147,314.6562
19:06:26:847,-0.8965,1.728,11.4983,37.4278,0.2855,0.1698,-0.0629,315.0156
19:06:26:868,-0.4931,1.4204,11.8311,36.0259,0.3705,-0.0654,0.2127,315.375
19:06:26:887,0.3078,1.4024,12.0561,36.3758,0.363,-0.1836,0.3821,315.5938
19:06:26:913,1.4175,1.3773,11.8442,35.8104,0.1406,-0.0622,0.3541,315.5312
19:06:26:926,1.7227,1.6418,11.454,36.5131,-0.3318,0.0247,0.2271,315.0781
19:06:26:951,2.0962,1.643,12.4248,35.6791,-0.8107,0.0127,0.0053,314.7188
19:06:26:969,1.5611,0.7177,14.6299,36.1875,-0.8506,0.0817,-0.1865,314.4062
19:06:26:985,0.5197,-0.6099,15.5481,35.8126,-0.4245,0.2785,-0.1178,314.2812
19:06:27:005,0.1521,-1.5532,13.4591,38.0675,-0.032,0.2947,0.1158,314.2812
19:06:27:032,0.2766,-1.5568,10.3778,35.1079,-0.0043,-0.0022,0.3358,314.3438
19:06:27:048,0.9195,-0.9906,8.7198,37.9588,-0.2021,-0.3626,0.3643,314.375
19:06:27:066,1.1577,-0.2688,8.4732,37.4311,-0.3414,-0.6275,0.2354,314.1719
19:06:27:084,1.062,-0.0688,8.5702,38.6734,-0.3116,-0.724,0.1086,313.7969
19:06:27:107,0.8776,-0.2352,8.1799,37.761,-0.2085,-0.7271,0.0897,313.3125
19:06:27:132,0.6478,-0.2963,7.5646,37.0385,-0.172,-0.7104,0.1696,313.3125
19:06:27:148,0.2683,0.0329,7.7537,38.0368,-0.0977,-0.5469,0.3238,313.1875
19:06:27:164,0.2778,0.2675,7.9489,36.8295,0.1124,-0.3471,0.4434,313.1875
19:06:27:183,0.4993,0.4878,7.3826,36.0109,0.3044,-0.15,0.5019,313.0938
19:06:27:203,0.7268,0.823,6.5076,37.5968,0.3348,0.0119,0.5182,312.8125
19:06:27:225,1.1481,1.0253,6.0275,36.8668,0.245,-0.0014,0.4617,312.3906
19:06:27:248,1.603,1.3042,6.3711,36.9798,0.1127,-0.2153,0.3438,311.875
19:06:27:264,2.0555,1.5736,7.9094,37.7609,0.0732,-0.4323,0.1326,311.3125
19:06:27:284,1.8317,1.4695,9.6727,36.5022,0.1656,-0.4323,-0.1095,310.8125
19:06:27:304,1.1697,1.017,10.458,37.1173,0.2413,-0.1998,-0.2499,310.4844
19:06:27:324,0.7184,0.5596,10.44,37.9179,0.2226,0.1123,-0.2589,310.4219
19:06:27:349,0.9003,0.4124,9.9959,36.6937,0.1036,0.1664,-0.2507,310.6406
19:06:27:366,1.5683,0.3609,10.1731,39.24,-0.0503,-0.0582,-0.3066,310.9688
19:06:27:384,2.2159,-0.1419,11.5689,37.2437,-0.1228,-0.2193,-0.4126,311.2656
19:06:27:404,2.3955,-0.8038,13.082,36.6446,-0.0575,-0.1266,-0.4778,311.5156
19:06:27:424,2.6529,-1.4994,13.2508,36.3442,0.0474,0.1283,-0.5074,312.0938
19:06:27:449,2.769,-1.6897,11.5809,36.7653,-0.0738,0.2076,-0.5378,312.6406
19:06:27:465,3.0036,-1.1007,10.3371,35.8045,-0.4986,-0.1394,-0.689,313.2188
19:06:27:483,2.9402,-1.0325,12.7899,37.7094,-0.7497,-0.2217,-0.9029,313.7344
19:06:27:506,2.3907,-2.1805,15.2787,36.9957,-0.5081,0.2731,-0.9194,314.375
19:06:27:523,1.8329,-3.1035,14.2061,37.7385,-0.0836,0.7685,-0.6464,315.2812
19:06:27:544,1.7587,-2.7336,10.5023,37.483,0.0778,0.7067,-0.2968,316.3125
19:06:27:618,2.1705,-1.5532,7.7897,37.3563,-0.0573,0.2284,-0.1159,317.0625
19:06:27:619,2.4985,-0.4495,7.3838,39.7166,-0.204,-0.1988,-0.1244,317.4688
19:06:27:619,2.532,0.0509,7.7633,37.6543,-0.2075,-0.3242,-0.2283,317.6094
19:06:27:633,2.1741,0.1191,7.4497,38.6313,-0.1731,-0.2539,-0.3082,317.7031
19:06:27:647,1.6605,0.2101,6.5974,38.6397,-0.2394,-0.2345,-0.3343,317.9219
19:06:27:664,1.1505,0.5285,6.668,40.2352,-0.3241,-0.2305,-0.3197,318.2656
19:06:27:683,0.7124,0.6482,7.6125,39.2494,-0.2402,-0.0773,-0.276,318.625
19:06:27:704,0.2886,0.7715,7.7921,37.2173,-0.0037,0.1738,-0.1665,318.8125
19:06:27:725,0.5388,1.0505,7.0331,40.224,0.2413,0.3381,-0.0475,319.3438
19:06:27:747,1.0093,1.5221,6.9194,40.224,0.3521,0.3461,0.0095,319.5781
19:06:27:764,1.5564,2.0285,7.6328,39.1335,0.3555,0.2473,-0.0107,319.6719
19:06:27:787,1.761,2.2332,8.4648,37.6346,0.3433,0.1498,-0.133,319.6719
19:06:27:803,1.2451,1.9998,9.2417,38.9903,0.3513,0.0846,-0.3074,319.6562
19:06:27:824,0.6142,1.7603,10.0282,40.1066,0.3537,0.0694,-0.4019,319.7344
19:06:27:846,0.4263,1.8262,10.5155,40.0159,0.3492,0.1608,-0.3684,320.0156
19:06:27:864,0.4909,1.9555,10.774,40.4391,0.3284,0.2052,-0.3071,320.4844
19:06:27:883,0.558,1.9794,11.5222,39.8461,0.2282,0.1956,-0.2728,320.9375
19:06:27:903,1.1493,1.5221,12.9504,41.0784,0.0735,0.1626,-0.2453,321.3281
19:06:27:923,1.5121,1.1019,13.3071,43.2463,-0.021,0.2673,-0.2411,321.6719
19:06:27:947,1.378,0.8553,13.7548,43.3089,-0.1795,0.3823,-0.2661,321.9531
19:06:27:964,1.6318,0.5704,15.4583,42.1728,-0.4226,0.336,-0.216,322.1875
19:06:27:983,0.9255,-0.3274,17.6214,42.6874,-0.4487,0.2233,-0.2435,322.5156
19:06:28:003,-0.4033,-1.424,16.5189,42.7683,0.0527,0.2212,-0.2254,322.6406
19:06:28:025,-0.7062,-1.8429,13.0713,44.6418,0.7159,0.3461,0.0844,322.8125
19:06:28:050,0.1198,-1.1893,9.9181,43.5899,1.0591,0.2745,0.5464,323.0312
19:06:28:069,1.1302,-0.094,8.5917,43.8471,1.0005,-0.08,0.8247,323.0156
19:06:28:084,1.5683,0.6877,8.7916,44.5161,0.7441,-0.5053,0.7824,322.5312
19:06:28:104,1.2331,0.8493,9.2405,44.2717,0.5286,-0.713,0.5422,321.7656
19:06:28:126,0.9027,0.7021,9.1316,44.1255,0.4586,-0.6744,0.3669,321.0938
19:06:28:147,0.5939,0.5752,8.3798,43.737,0.5215,-0.5437,0.3006,320.8594
19:06:28:164,0.3844,0.5836,7.0151,46.3722,0.653,-0.3967,0.3214,320.5938
19:06:28:184,0.2671,0.683,5.6672,45.9729,0.7286,-0.2869,0.3997,320.4219
19:06:28:204,0.3509,0.8805,4.9394,46.5979,0.6663,-0.2606,0.4865,320.2656
19:06:28:223,0.6741,1.1079,4.5455,46.0482,0.522,-0.2555,0.5467,320.0312
19:06:28:250,1.1457,1.3378,4.7753,45.5705,0.3534,-0.3221,0.5539,319.6719
19:06:28:267,1.7479,1.412,6.1544,47.2105,0.1832,-0.4603,0.5073,319.2188
19:06:28:288,1.9071,1.3605,7.6472,46.5488,0.1334,-0.4853,0.4133,318.6875
19:06:28:304,1.293,1.3485,8.059,46.7353,0.2336,-0.2595,0.2982,318.0156
19:06:28:323,0.8201,1.3114,7.8184,47.4507,0.3396,0.0385,0.2503,317.6875
19:06:28:347,0.9015,1.6023,7.2498,46.2978,0.3542,0.2731,0.2993,317.4531
19:06:28:364,1.1948,2.2476,7.1444,47.1523,0.2301,0.3666,0.3403,317.1875
19:06:28:383,1.524,2.7779,7.743,47.4088,0.0085,0.3094,0.2671,316.7969
19:06:28:404,1.6126,2.8605,9.0765,46.3507,-0.339,-0.0928,-0.2246,316.3281
19:06:28:424,1.4881,2.2021,10.8913,47.3887,-0.3579,-0.2025,-0.4059,316.3281
19:06:28:448,1.1948,1.0361,12.4045,48.6169,-0.3204,-0.0656,-0.37,315.8438
19:06:28:466,1.4666,0.0784,12.3315,47.0073,-0.4029,0.0007,-0.2091,316.0938
19:06:28:483,2.1573,0.003,12.1052,48.8178,-0.6288,-0.2124,-0.1069,316.0938
19:06:28:503,3.2826,0.3873,13.7596,48.888,-0.7065,-0.4305,-0.2408,316.5625
19:06:28:524,3.4861,0.0569,15.5337,49.2954,-0.5401,-0.1556,-0.4693,317.1562
19:06:28:549,2.465,-0.8912,15.153,48.97,-0.2831,0.5136,-0.4403,317.5938
19:06:28:566,1.4965,-1.1869,12.2788,49.6004,-0.1404,0.9179,-0.1694,317.8438
19:06:28:584,1.7096,-0.7871,8.6695,49.6418,-0.3153,0.7815,0.0729,318.3438
19:06:28:603,2.4386,-0.0233,6.9229,50.7455,-0.6743,0.3067,0.1581,318.5
19:06:28:623,2.9953,0.6135,7.3072,50.0205,-0.9105,-0.1436,0.0846,318.4375
19:06:28:644,2.9462,0.8541,8.6025,48.514,-0.8173,-0.3335,-0.0421,318.1406
19:06:28:666,2.4637,0.6004,8.9939,50.1101,-0.5233,-0.2049,-0.0776,317.8125
19:06:28:683,1.8508,0.5716,7.6592,50.8002,-0.31,-0.0299,-0.0163,317.6562
19:06:28:703,1.7551,0.8901,5.8827,49.4349,-0.3558,-0.1104,-0.0062,317.6719
19:06:28:726,1.7239,1.4539,5.5595,49.4855,-0.4969,-0.1972,-0.08,317.75
19:06:28:751,1.7802,1.74,6.3531,49.5269,-0.527,-0.1141,-0.2091,317.7344
19:06:28:773,1.852,1.7256,6.7254,50.2114,-0.4802,0.0886,-0.3684,317.7344
19:06:28:782,1.5516,1.6921,6.668,49.9299,-0.4621,0.2614,-0.4715,317.7969
19:06:28:803,1.1338,1.7137,7.1061,51.0783,-0.4027,0.2859,-0.4438,318
19:06:28:827,1.3493,1.8489,8.0758,49.9483,-0.289,0.2018,-0.3697,318.5625
19:06:28:848,1.6761,1.9399,9.5709,50.2685,-0.1009,0.2066,-0.3343,319.0156
19:06:28:865,2.0065,2.1195,10.5873,51.7934,0.1364,0.2745,-0.3897,319.3906
19:06:28:888,2.6074,1.971,10.8339,51.1919,0.351,0.2899,-0.6115,319.7188
19:06:28:904,2.4482,1.564,10.0282,52.0179,0.2927,0.2635,-0.896,320.0781
19:06:28:923,1.4534,1.2312,9.7649,51.8586,-0.0636,0.3019,-1.0605,320.625
19:06:28:950,-0.122,0.8326,11.1739,50.9263,-0.4541,0.3432,-0.9881,321.4531
19:06:28:968,-1.4711,0.1837,14.1068,53.9311,-0.6232,0.4971,-0.5548,322.5781
19:06:28:986,-1.2688,0.0389,16.4291,52.2872,-0.5228,0.5347,0.0378,323.7031
19:06:29:004,-0.5984,0.5656,17.1139,51.9274,-0.3111,0.1339,0.4671,324.4688
19:06:29:024,0.6801,0.9343,18.1494,53.086,0.1987,-0.219,0.4732,324.5938
19:06:29:049,0.728,-0.1227,17.5029,53.1166,1.0485,-0.1708,0.2777,324.1406
19:06:29:065,-1.112,-1.1366,12.8749,54.199,1.4213,0.0119,0.4117,323.5312
19:06:29:085,0.0707,-0.7919,6.577,54.385,1.0735,0.1362,0.6378,323.2656
19:06:29:105,0.8165,-0.2173,6.7793,54.8304,0.4,-0.0824,0.6295,323.1406
19:06:29:124,0.9793,0.2101,8.4109,55.5723,-0.1704,-0.5426,0.4553,322.7031
19:06:29:149,0.8393,-0.0521,9.6775,54.2604,-0.3934,-0.8885,0.23,322.0781
19:06:29:164,0.0241,-0.416,9.723,53.4037,-0.2836,-0.9003,0.0457,321.5156
19:06:29:183,-0.6296,-0.6003,8.4756,54.1155,-0.004,-0.6473,0.0774,321.2031
19:06:29:203,-0.5135,-0.4315,6.6919,53.8354,0.2605,-0.3208,0.3118,321.1875
19:06:29:224,0.0839,0.1766,5.1908,55.3745,0.3923,-0.0904,0.5877,321.2656
19:06:29:249,0.6717,0.9667,4.5,56.2852,0.3854,-0.0968,0.7528,321.1562
19:06:29:266,1.3049,1.5149,4.7921,54.2324,0.3167,-0.3069,0.768,320.7188
19:06:29:282,1.7599,1.5269,5.6792,54.5705,0.2448,-0.5327,0.6569,320.0156
19:06:29:303,1.6892,1.3246,6.9361,54.2699,0.1814,-0.6606,0.482,319.1875
19:06:29:324,1.4103,0.9511,8.0698,55.03,0.1555,-0.692,0.344,318.4688
19:06:29:348,1.1733,0.6423,8.6432,55.6347,0.1742,-0.6012,0.2788,317.9844
19:06:29:365,1.3564,0.5166,8.8862,55.5217,0.1539,-0.4379,0.2772,317.6719
19:06:29:382,1.9119,0.4842,9.3806,55.008,0.0389,-0.288,0.2684,317.4688
19:06:29:403,2.3261,0.4076,10.3203,55.8962,-0.1366,-0.157,0.1816,317.1719
19:06:29:423,2.429,0.0377,11.6647,56.4143,-0.2634,-0.1301,0.0319,316.9219
19:06:29:447,2.3129,-0.6279,12.9073,55.772,-0.2693,-0.1876,-0.113,316.7344
19:06:29:465,2.1381,-0.9774,13.3514,56.3755,-0.1787,-0.1469,-0.1591,316.7031
19:06:29:490,2.8911,-1.3258,12.8115,56.1072,-0.0895,0.0324,-0.097,316.8594
19:06:29:502,3.9745,-1.078,11.9867,55.7027,-0.0892,0.1355,-0.0547,317.0625
19:06:29:524,4.6233,-0.1119,11.7377,56.6343,-0.233,0.0042,-0.1505,317.1719
19:06:29:547,4.1062,0.3382,14.0194,53.8271,-0.5449,-0.4198,-0.452,317.2031
19:06:29:562,2.9725,-0.8912,15.9287,55.4743,-0.6932,-0.4536,-0.8009,317.3594
19:06:29:582,2.0495,-1.9423,14.0158,54.3601,-0.4216,0.2353,-0.8659,317.5781
19:06:29:602,1.9382,-1.8561,10.4245,53.5685,-0.0458,0.8356,-0.5511,318.3281
19:06:29:665,2.6122,-0.6782,8.0746,53.5494,0.1286,0.7576,-0.0821,319.3438
19:06:29:666,3.0743,0.6423,7.3012,53.6107,0.1161,0.2425,0.1669,320.0938
19:06:29:667,3.1437,1.1534,7.3994,54.8941,0.0551,-0.2606,0.1169,320.2969
19:06:29:689,2.6373,0.9044,7.0534,55.0165,0.0256,-0.3407,-0.0589,320.125
19:06:29:701,1.7646,0.6087,6.1819,53.0854,0.0061,-0.0646,-0.179,319.9375
19:06:29:722,1.1242,0.7679,5.3631,53.3954,-0.0453,0.2151,-0.1524,320.0625
19:06:29:742,1.0476,1.1378,5.5594,52.0212,-0.1108,0.2068,-0.0483,320.2656
19:06:29:762,1.2655,1.3485,6.5997,52.3983,-0.1097,-0.0472,0.0303,320.4062
19:06:29:783,1.3636,1.3114,7.4317,53.2356,0.2637,-0.2574,0.0372,320.4062
19:06:29:802,1.4007,1.2432,7.6831,53.0758,0.4234,-0.0909,0.0212,320.3906
19:06:29:824,1.3588,1.2276,7.1636,51.0928,0.3736,0.1442,-0.0051,320.3594
19:06:29:847,1.3923,1.6023,6.9912,52.5262,0.1619,0.349,-0.0371,320.3906
19:06:29:865,1.2858,1.9052,7.4174,52.586,-0.0535,0.4625,-0.0501,320.4062
19:06:29:882,0.862,2.2033,8.4385,50.6052,-0.1521,0.4185,0.0758,320.4062
19:06:29:902,1.3528,2.4559,9.8678,51.8223,-0.0698,0.3016,0.2729,320.3906
19:06:29:921,2.9581,2.7312,11.1906,51.4368,0.1049,0.2068,0.2527,320.3594
19:06:29:942,4.0739,2.8653,11.7808,51.3158,0.2107,0.1269,0.0255,320.1875
19:06:29:962,4.0379,2.463,12.0298,51.3158,0.1534,0.1019,-0.2565,319.6406
19:06:29:982,2.9246,1.4455,12.6583,50.9027,-0.0354,0.2417,-0.333,319.4531
19:06:30:001,2.5954,0.3011,13.2808,50.7418,-0.2509,0.5733,-0.2347,319.5781
19:06:30:021,2.459,0.2664,13.2209,50.151,-0.4754,0.5136,-0.0989,319.75
19:06:30:042,2.3919,0.8039,14.3294,50.8447,-0.5236,0.1309,-0.0581,320.0781
19:06:30:064,2.1465,0.331,16.2939,49.3231,-0.1731,0.1703,-0.1037,320.2188
19:06:30:082,1.6701,-0.8074,15.6163,50.1055,0.3939,0.581,-0.0533,320.1875
19:06:30:104,1.1098,-1.3533,11.5138,48.7685,0.6637,0.6276,0.1123,320.1875
19:06:30:121,0.9446,-0.8912,7.5838,49.1806,0.4496,0.0486,0.2745,320.25
19:06:30:141,1.6258,-0.076,6.2526,47.9441,-0.004,-0.774,0.2609,320.25
19:06:30:162,2.2734,0.3346,7.488,48.2417,-0.2932,-1.2648,0.0913,320.0938
19:06:30:181,2.6637,0.1215,8.569,47.4689,-0.3294,-1.3258,-0.1204,319.8281
19:06:30:202,2.5128,-0.2197,8.6216,46.251,-0.2573,-1.0238,-0.2509,319.6719
19:06:30:222,1.8448,-0.3777,7.5885,48.2995,-0.269,-0.5517,-0.248,319.7812
19:06:30:242,1.2511,-0.0916,6.5961,45.2453,-0.379,-0.1876,-0.1577,320.3594
19:06:30:264,1.2391,0.3334,5.9772,47.7058,-0.5255,-0.0915,-0.1212,320.7656
19:06:30:281,1.1972,0.6087,6.2502,45.1697,-0.6285,-0.1005,-0.1146,321.0312
19:06:30:301,1.4151,0.8362,7.5167,44.1938,-0.5196,-0.1197,-0.0951,321.1719
19:06:30:321,2.4613,1.0493,8.9413,45.6888,-0.1436,-0.1852,-0.1846,321.2812
19:06:30:341,2.9905,1.0864,9.4333,46.1762,0.2999,-0.243,-0.3788,321.375
19:06:30:364,2.2602,0.8134,8.7761,44.1699,0.5934,-0.2835,-0.485,321.5
19:06:30:382,1.0129,0.5058,7.9561,45.2249,0.6421,-0.2829,-0.4187,321.8594
19:06:30:403,-0.0143,0.5441,7.822,44.1256,0.5715,-0.2997,-0.2248,322.4219
19:06:30:422,-0.1651,0.7967,9.0562,44.0849,0.6261,-0.4196,-0.0376,323.0469
19:06:30:443,0.6729,0.6423,10.5274,44.3974,0.8639,-0.6121,0.0684,323.5
19:06:30:464,1.8018,0.3561,10.9979,43.4903,1.0852,-0.8579,0.0852,323.7188
19:06:30:483,3.5878,-0.2412,10.5442,41.3165,0.975,-1.1437,-0.0307,323.8125
19:06:30:503,4.0248,-0.7464,12.4165,43.4077,0.5095,-1.2294,-0.1471,323.8906
19:06:30:523,5.2482,-1.4479,13.8925,41.8615,0.0786,-0.8491,-0.1159,324.0625
19:06:30:548,5.8803,-0.7859,12.76,43.3072,-0.0647,-0.2017,-0.0224,324.2344
19:06:30:564,5.7414,0.8577,11.6144,42.3132,-0.2884,0.307,-0.0203,324.8594
19:06:30:584,5.9928,1.1426,12.851,42.8219,-0.7606,0.6271,-0.1737,325.0469
19:06:30:601,6.0036,0.0006,13.3933,42.9422,-0.9992,1.1315,-0.4139,325.0312
19:06:30:621,5.0543,-0.6231,11.5521,41.8315,-0.8248,1.7208,-0.5604,325.0312
19:06:30:641,4.2726,-0.3418,8.8623,42.7752,-0.5364,1.8564,-0.4568,325.1875
19:06:30:665,3.6537,0.5273,6.8763,42.9978,-0.4013,1.3762,-0.2794,325.4531
19:06:30:681,2.8408,0.9691,6.0814,41.4257,-0.5036,0.6417,-0.2512,325.7031
19:06:30:702,1.6521,0.7261,6.0132,41.3443,-0.7523,0.1048,-0.3434,325.7812
19:06:30:721,0.6729,0.2783,6.2442,41.8823,-0.9923,-0.0627,-0.3647,325.8438
19:06:30:741,0.1833,0.2233,6.4776,39.4869,-1.0826,-0.0155,-0.2616,326.0781
19:06:30:764,0.6717,0.428,7.4114,40.8823,-0.9928,-0.0733,-0.0794,326.4219
19:06:30:782,1.4402,0.7356,8.4588,41.4403,-0.6887,-0.2707,0.0692,326.7031
19:06:30:802,1.949,0.8565,8.873,41.8903,-0.2152,-0.4345,0.1134,326.8125
19:06:30:822,1.8855,0.6363,8.4325,40.9617,0.2921,-0.4928,0.0825,326.6719
19:06:30:841,1.4462,0.4627,7.9453,41.0663,0.649,-0.4478,0.0972,326.5781
19:06:30:862,1.8389,0.6255,7.5143,40.0336,0.865,-0.3959,0.2806,326.5625
19:06:30:885,2.5571,1.1522,7.4964,41.6521,0.9872,-0.4978,0.4676,326.5625
19:06:30:901,3.2455,1.5437,7.8579,41.2387,1.0527,-0.6632,0.5368,326.3438
19:06:30:922,3.4502,1.8633,8.6791,40.4053,1.0988,-0.8451,0.5145,325.9531
19:06:30:949,3.1988,2.0752,9.3124,40.6092,1.1987,-1.0851,0.4924,325.5
19:06:30:965,3.0384,2.0285,9.5314,38.6822,1.3545,-1.3791,0.5211,325.0938
19:06:30:984,3.5244,1.6861,9.5626,39.131,1.3705,-1.4316,0.6114,324.7812
19:06:31:007,4.3707,1.4886,9.3387,41.3813,1.1707,-1.1791,0.7038,324.0625
19:06:31:031,5.5152,1.3246,9.6093,40.6731,0.1934,-0.6864,0.756,323.7969
19:06:31:045,6.4932,1.3569,10.8566,39.6636,-0.3438,-0.5564,0.7065,323.2031
19:06:31:065,6.9493,1.4323,12.4967,38.468,-0.71,-0.3215,0.5821,322.4844
19:06:31:085,6.9577,1.1594,14.181,39.2137,-0.799,0.1035,0.3981,321.7969
19:06:31:104,6.4202,0.7009,15.1937,38.9371,-0.5172,0.7296,0.1888,321.2188
19:06:31:125,5.2183,0.1347,13.2664,39.4211,-0.1409,1.1184,0.0503,320.5312
19:06:31:148,3.6489,-0.2125,9.5937,39.5157,-0.0685,0.8423,0.127,320.2031
19:06:31:168,2.927,-0.1167,7.543,39.7927,-0.2876,0.0947,0.3398,319.9375
19:06:31:183,3.3747,0.2999,8.1452,39.4332,-0.4613,-0.5317,0.4407,319.9375
19:06:31:202,3.7542,0.6542,9.535,38.8451,-0.3638,-0.7951,0.4018,319.6094
19:06:31:222,3.7638,0.7201,9.8008,39.8098,-0.1337,-0.7442,0.3081,319.2188
19:06:31:242,3.3819,0.562,9.1663,38.7272,0.0708,-0.5202,0.2761,318.8281
19:06:31:265,3.0384,0.7213,8.2398,38.5427,0.1822,-0.1857,0.3107,318.3594
19:06:31:282,3.328,1.096,7.233,40.0955,0.1025,0.2553,0.2793,318.3594
19:06:31:302,3.5232,1.3031,6.8152,38.2334,-0.0514,0.797,0.1592,318.1406
19:06:31:321,3.3257,1.2839,6.5638,38.7519,-0.1252,1.2258,0.0348,317.8281
19:06:31:341,3.0276,1.1355,5.9341,39.5148,-0.1886,1.3901,-0.0411,317.4375
19:06:31:367,2.939,0.9751,5.4649,40.0736,-0.3167,1.2873,-0.0683,316.75
19:06:31:387,3.1126,1.2169,5.9665,39.6349,-0.3989,0.8992,-0.1236,316.6562
19:06:31:402,3.4813,1.2671,7.4233,40.1814,-0.3364,0.3618,-0.2765,316.5625
19:06:31:423,3.3795,0.999,9.7792,40.716,-0.1137,0.1272,-0.4246,316.4844
19:06:31:442,2.6972,0.2951,11.1894,39.306,0.1305,0.3988,-0.4153,316.5625
19:06:31:465,2.2926,-0.07,10.8806,39.7637,0.2168,0.7501,-0.2909,316.9531
19:06:31:485,2.5116,0.1024,9.9313,40.4592,0.1025,0.8217,-0.219,317.4219
19:06:31:502,2.9893,0.2161,9.7972,40.587,-0.0346,0.5719,-0.2504,317.7188
19:06:31:522,3.3041,-0.0856,10.2868,40.0274,-0.0879,0.1371,-0.3247,317.7969
19:06:31:543,3.4107,-0.8086,11.1068,39.571,-0.0807,-0.1311,-0.3154,317.8906
19:06:31:567,3.7973,-1.5257,11.4336,38.5228,-0.0637,-0.1761,-0.2693,318.0781
19:06:31:583,3.7698,-1.3198,10.3969,38.4116,-0.233,-0.3221,-0.2557,318.4062
19:06:31:602,3.6585,-0.3035,10.1288,38.0918,-0.6426,-0.6611,-0.3519,318.7812
19:06:31:622,3.7411,-0.1885,12.535,39.5383,-0.9236,-0.5849,-0.5165,319.125
19:06:31:642,3.2323,-1.2839,15.6355,38.3319,-0.7324,0.1381,-0.509,319.4688
19:06:31:666,2.7307,-2.5133,15.0106,39.5723,-0.2415,0.7898,-0.2374,320.6094
19:06:31:724,2.4817,-2.645,11.6503,38.7636,0.1262,0.7102,0.1826,320.9219
19:06:31:724,2.8875,-1.6478,9.0131,39.6013,0.2866,0.1336,0.4649,321.2969
19:06:31:725,3.5459,-0.4052,8.077,39.8172,0.3459,-0.3271,0.4396,321.2031
19:06:31:747,3.832,0.2041,7.6029,38.4882,0.3364,-0.3239,0.2258,320.7344
19:06:31:768,3.5747,0.3454,6.589,37.194,0.2221,-0.0076,-0.0062,320.2188
19:06:31:783,2.9342,0.5178,5.2566,38.4646,-0.016,0.2662,-0.1993,319.9062
19:06:31:801,2.095,0.7416,4.6305,38.1696,-0.2341,0.2937,-0.3093,319.8125
19:06:31:822,1.6054,0.6279,4.8496,38.424,-0.3031,0.1248,-0.3351,319.9219
19:06:31:843,1.4917,0.4759,5.3607,37.5877,-0.2583,-0.0717,-0.3026,320.1562
19:06:31:868,1.548,0.3526,5.9365,38.0561,-0.1334,-0.1602,-0.2544,320.5
19:06:31:884,1.8844,0.4423,6.9062,37.2935,-0.0469,-0.1676,-0.2121,320.8594
19:06:31:904,1.9897,1.0253,7.8172,38.9835,-0.0359,-0.0651,-0.1681,321.1719
19:06:31:921,1.9801,1.4252,8.9185,36.2802,-0.0738,0.1368,-0.1593,321.4531
19:06:31:942,2.1058,1.9327,9.5769,37.7951,-0.1127,0.422,-0.1508,321.6875
19:06:31:965,2.4865,2.4606,10.3622,37.2958,-0.1699,0.6257,-0.1181,321.7812
19:06:31:984,2.3907,2.6414,11.7305,36.3,-0.2136,0.6052,-0.1628,322.0312
19:06:32:002,2.3345,2.3912,13.0892,36.1367,-0.1673,0.5251,-0.2203,322.0625
19:06:32:023,2.2986,1.8358,13.6076,36.2999,0.0045,0.475,-0.2296,322.1094
19:06:32:041,1.9693,1.2516,13.3334,36.198,0.233,0.4185,-0.2272,322.2344
19:06:32:067,2.1956,0.5477,12.4536,36.5327,0.3555,0.4052,-0.1711,322.4219
19:06:32:087,2.2327,0.4232,11.7054,35.4144,0.2762,0.3805,-0.1167,322.6406
19:06:32:103,2.4135,0.343,13.1431,34.3292,-0.0349,0.1781,-0.0661,322.8281
19:06:32:121,2.2854,-0.4914,14.9627,34.8842,-0.2304,0.042,-0.065,322.9688
19:06:32:142,1.7216,-1.5808,14.1582,34.5812,-0.0344,0.2462,-0.0898,323.0312
19:06:32:164,1.3133,-2.3673,10.9033,34.0451,0.3254,0.5224,0.0095,323.0625
19:06:32:182,1.4654,-2.3445,8.4014,34.0451,0.4285,0.4028,0.2386,323.125
19:06:32:201,2.1322,-1.7855,8.1548,34.4814,0.2205,-0.1764,0.4535,323.1562
19:06:32:222,2.526,-1.3438,8.9832,36.0268,-0.0663,-0.8225,0.498,322.9844
19:06:32:244,2.2124,-1.2228,9.5434,33.6589,-0.2546,-1.1684,0.4226,322.6094
19:06:32:265,1.6294,-1.1654,9.5219,32.1544,-0.3089,-1.1503,0.4023,321.9219
19:06:32:282,1.3205,-1.0684,9.31,32.449,-0.2375,-0.8771,0.5025,321.5938
19:06:32:301,1.4905,-0.9559,8.393,32.1108,-0.0306,-0.4811,0.679,321.2969
19:06:32:322,1.8149,-0.6961,7.0439,32.1991,0.2352,-0.1231,0.8503,320.8438
19:06:32:342,2.2495,-0.2652,6.0814,34.1343,0.4178,0.0585,1.005,320.1406
19:06:32:366,2.8049,0.2005,5.4254,34.3977,0.5444,0.0412,1.0924,319.1875
19:06:32:383,3.2945,0.6447,4.8101,32.3145,0.6288,-0.1199,1.0641,318.0938
19:06:32:402,3.7003,1.1103,4.7789,32.1491,0.5627,-0.304,0.9179,316.8594
19:06:32:422,3.9877,1.5317,5.5032,31.8213,0.3457,-0.4124,0.6828,315.6719
19:06:32:442,3.9505,1.6011,6.7661,33.0987,0.1057,-0.4803,0.3653,314.7344
19:06:32:467,3.2059,1.0469,8.1715,30.998,-0.0597,-0.4971,-0.0168,314.3438
19:06:32:482,2.1824,0.5668,8.8539,30.9199,-0.1704,-0.2744,-0.3026,313.8125
19:06:32:502,1.8532,0.4388,8.8982,30.1177,-0.289,0.0673,-0.4006,313.7188
19:06:32:522,2.1346,0.1048,9.7194,30.4448,-0.4543,0.0942,-0.4499,313.7969
19:06:32:543,2.5368,-0.8457,11.3714,30.5237,-0.6525,-0.1232,-0.5101,314.6406
19:06:32:565,2.6768,-1.5532,13.434,31.0453,-0.7867,-0.2627,-0.481,315.1406
19:06:32:583,2.9151,-1.9315,14.7819,30.3142,-0.4953,0.0497,-0.069,315.7188
19:06:32:602,3.68,-1.8429,13.7608,29.9407,-0.2671,0.079,0.0572,316.3125
19:06:32:622,4.3217,-1.09,11.8227,30.274,-0.4021,-0.227,0.001,316.75
19:06:32:641,4.7275,-0.4124,12.2536,29.0913,-0.7374,-0.4712,-0.216,316.75
19:06:32:667,4.6054,-0.7045,14.8609,29.4857,-0.7345,-0.1407,-0.415,316.6719
19:06:32:687,3.9913,-1.582,15.8198,30.6009,-0.2914,0.4769,-0.419,316.7031
19:06:32:702,3.2383,-2.1266,13.2233,28.3574,0.1726,0.8108,-0.1822,316.9844
19:06:32:727,2.7678,-1.7927,9.7146,29.0674,0.4133,0.5938,0.0971,317.4844
19:06:32:739,2.7546,-0.8924,7.4425,29.9432,0.4557,0.0755,0.2215,317.9062
19:06:32:762,3.2227,-0.2173,6.6428,30.0938,0.3784,-0.3215,0.1374,318.0312
19:06:32:784,3.4346,0.076,6.5961,30.139,0.2322,-0.3823,-0.0547,317.8594
19:06:32:801,3.0228,0.1335,6.7111,30.1198,0.0762,-0.1514,-0.2256,317.5312
19:06:32:821,2.3776,0.1143,6.8787,29.5024,-0.0093,0.202,-0.3181,317.5312
19:06:32:841,1.7419,0.1275,7.0391,30.1914,0.0384,0.5496,-0.3268,317.7344
19:06:32:867,1.4558,0.2017,6.5447,30.4949,0.1108,0.7384,-0.2962,318.0469
19:06:32:886,1.5935,0.4088,5.8085,30.8204,0.1145,0.7775,-0.2637,318.375
19:06:32:907,1.9382,0.5824,5.3967,30.8634,0.0551,0.7067,-0.2483,318.6406
19:06:32:921,2.4673,0.92,5.7498,30.3513,-0.021,0.5791,-0.2776,318.75
19:06:32:942,2.9043,1.242,6.4226,30.8008,-0.1047,0.4175,-0.371,318.9531
19:06:32:968,2.6337,1.5449,7.6197,31.2293,-0.1577,0.291,-0.4363,319.1406
19:06:32:983,2.1477,1.6682,9.2429,31.4712,-0.1068,0.3277,-0.3753,319.375
19:06:33:000,2.3057,1.6418,10.8027,30.7019,0.0602,0.5504,-0.3018,319.7344
19:06:33:020,2.6888,1.7352,11.3031,29.8799,0.2626,0.7999,-0.3796,320.1875
19:06:33:041,2.9127,1.9184,10.804,29.515,0.331,0.8255,-0.7157,320.5469
19:06:33:065,1.7395,1.5975,10.4412,30.5357,0.179,0.6676,-1.0792,320.8281
19:06:33:083,-0.4991,0.4842,11.0877,29.8821,-0.0972,0.5477,-1.0153,321.4688
19:06:33:100,-1.1335,-0.9319,12.4559,31.7728,-0.323,0.6305,-0.5458,322.4219
19:06:33:121,-0.0813,-1.0756,12.9073,30.1368,-0.5635,0.4332,-0.0999,323.625
19:06:33:141,1.8903,-0.2783,15.0046,31.636,-0.6125,0.0225,-0.0294,324.4375
19:06:33:165,2.9139,-0.5956,17.9985,31.1105,-0.1278,-0.0954,-0.2443,324.6562
19:06:33:184,1.8772,-2.0081,17.5161,30.7427,0.6296,0.2199,-0.2193,324.5469
19:06:33:202,1.1146,-3.1478,12.687,31.7633,1.0061,0.3472,0.0966,324.6562
19:06:33:221,1.3313,-3.1358,8.1177,31.2888,0.8083,-0.0259,0.4689,325
19:06:33:242,2.5368,-2.0728,6.5016,33.3676,0.2916,-0.5679,0.5161,325.1719
19:06:33:265,2.9187,-1.005,7.5119,31.8137,-0.2096,-0.8222,0.2633,324.9219
19:06:33:283,1.3253,-1.3425,10.0582,31.418,-0.4629,-0.5921,0.1065,324.4062
19:06:33:301,0.4742,-1.2731,9.3435,30.7736,-0.4069,-0.1777,0.197,324.0938
19:06:33:321,0.1067,-0.9355,7.7609,30.7363,-0.1523,0.0625,0.4676,323.9688
19:06:33:341,0.4059,-0.4675,6.0874,32.5147,0.1587,-0.0084,0.7707,323.8438
19:06:33:365,1.0524,0.179,5.2686,33.1557,0.3332,-0.2763,0.9872,323.6875
19:06:33:385,1.53,0.5716,5.2901,32.7646,0.3433,-0.5152,1.0511,322.75
19:06:33:400,1.8484,0.6494,5.7845,32.8389,0.2943,-0.6323,1.0066,321.7656
19:06:33:426,2.1537,0.7165,6.1796,31.4805,0.265,-0.6113,0.9347,320.6719
19:06:33:440,2.3847,0.9008,6.4932,30.2839,0.2493,-0.5514,0.8386,319.6562
19:06:33:462,2.5463,0.9762,7.2845,30.3369,0.2037,-0.5429,0.711,318.6562
19:06:33:483,2.52,1.0672,8.7641,32.6734,0.1204,-0.5437,0.5477,317.75
19:06:33:500,2.2435,1.0529,10.0737,31.6255,0.0708,-0.3546,0.3581,317
19:06:33:520,1.8484,0.5944,10.2066,32.9388,0.1204,-0.015,0.1547,316.375
19:06:33:543,1.7934,0.1012,10.0019,30.6432,0.1342,0.2803,0.0125,315.9219
19:06:33:566,2.1633,-0.2999,10.1456,32.0996,0.0075,0.4191,-0.0581,315.6875
19:06:33:583,2.0927,-0.3944,12.0836,33.1051,-0.2703,0.3498,-0.1433,315.5781
19:06:33:601,1.7742,-0.5393,14.6562,31.0061,-0.4674,0.3773,-0.2014,315.5469
19:06:33:621,2.0879,-1.1642,15.3577,31.9013,-0.2647,0.5349,-0.1774,315.5938
19:06:33:641,2.8336,-1.6586,12.9935,30.7722,0.2562,0.5853,-0.0696,315.7812
19:06:33:666,3.4059,-0.4651,10.9308,31.5858,0.5899,0.2825,0.0641,315.8906
19:06:33:685,4.0978,0.2951,11.8287,31.6632,0.4948,-0.3501,0.0119,315.8906
19:06:33:704,4.3827,-0.726,13.2281,30.7812,0.3212,-0.786,-0.3085,315.8281
19:06:33:720,4.0212,-1.8274,12.766,29.5952,0.3017,-0.6366,-0.607,315.9062
19:06:33:796,3.6094,-2.0069,10.8638,30.4772,0.3113,-0.1546,-0.6946,316.4062
19:06:33:796,3.1449,-1.4156,8.8395,30.4776,0.228,0.1416,-0.6523,317.2031
19:06:33:796,2.5894,-0.8709,7.652,31.1949,0.0559,0.116,-0.6113,318.0312
19:06:33:800,2.0041,-0.6183,7.1277,30.6968,-0.1372,-0.0813,-0.6001,318.7656
19:06:33:822,1.5456,-0.4914,6.9265,29.7387,-0.2906,-0.2291,-0.5604,319.4219
19:06:33:840,1.0655,-0.4124,6.8284,31.5213,-0.3963,-0.2536,-0.4747,320.1094
19:06:33:863,0.7256,-0.0233,7.0008,31.1566,-0.44,-0.1695,-0.3306,320.7812
19:06:33:880,0.9027,0.349,7.075,29.903,-0.3952,-0.0358,-0.15,321.0781
19:06:33:900,1.1433,0.6925,7.3336,31.1668,-0.2852,0.0476,-0.0145,321.5312
19:06:33:920,1.4678,0.9858,7.4964,30.964,-0.0887,0.0968,0.0958,321.7969
19:06:33:940,1.6162,1.3773,6.8835,29.9214,0.1542,0.1695,0.1842,321.8438
19:06:33:964,1.9897,1.9627,6.1939,30.6412,0.3172,0.2715,0.2274,321.7188
19:06:33:984,2.3991,2.4654,6.0455,31.0177,0.2485,0.3014,0.0934,321.1875
19:06:34:001,2.3776,2.7396,6.1101,30.5501,0.1587,0.3701,-0.0965,321.1875
19:06:34:020,2.0867,2.5756,6.0179,30.4321,0.0229,0.4542,-0.2459,320.9219
19:06:34:039,1.7311,2.1518,5.927,30.3339,-0.1856,0.4899,-0.3149,320.7812
19:06:34:061,1.5444,1.7316,6.1544,32.0334,-0.5305,0.2553,-0.3085,320.8438
19:06:34:083,1.6521,1.7579,7.8998,31.0352,-0.9582,-0.1833,-0.2877,321.0469
19:06:34:100,1.7838,1.6394,12.1112,29.6003,-1.1369,-0.4435,-0.3029,321.2969
19:06:34:120,1.7311,0.489,16.6123,30.7908,-0.9031,-0.2387,-0.2363,321.5625
19:06:34:139,1.8891,-1.0229,18.1697,28.8161,-0.5529,0.2644,0.0204,321.8281
19:06:34:160,2.5871,-0.8996,16.981,31.1021,-0.4205,0.4958,0.2567,322.125
19:06:34:182,4.1517,-0.2699,16.5117,31.459,-0.3878,0.4153,0.1219,322.3438
19:06:34:199,4.0272,-0.2855,17.1139,32.1884,-0.1973,0.5152,-0.154,321.8594
19:06:34:219,3.0336,-1.4623,16.2184,31.4318,0.1864,0.8284,-0.2483,321.6406
19:06:34:240,2.3548,-2.3026,12.6475,31.8321,0.3907,0.8961,-0.2051,321.8438
19:06:34:258,2.2866,-2.2954,9.049,31.5026,0.2429,0.4851,-0.2011,321.8438
19:06:34:280,2.2698,-1.8058,7.5443,32.0311,-0.1028,-0.0899,-0.3165,322.0469
19:06:34:299,1.8784,-1.5125,8.0794,31.2506,-0.3555,-0.399,-0.4611,322.2188
19:06:34:323,1.3421,-1.9758,9.055,32.5406,-0.3199,-0.4134,-0.509,322.4844
19:06:34:340,0.2192,-2.329,9.0083,31.2018,-0.1004,-0.2017,-0.3242,322.9375
19:06:34:359,-0.9372,-2.4044,7.816,32.5149,0.0956,0.0428,0.0993,323.4844
19:06:34:380,-1.1922,-1.8465,6.2334,31.2061,0.1318,0.0825,0.5587,323.7812
19:06:34:401,-0.6116,-0.9834,5.2901,31.2061,-0.0077,0.0462,0.834,324.1562
19:06:34:420,0.0205,-0.3334,5.6732,33.6209,-0.1188,0.0636,0.9818,324.0625
19:06:34:440,0.8261,0.0449,6.4094,31.6211,-0.1071,0.1813,0.9954,323.4375
19:06:34:459,1.87,0.4471,6.2382,31.9252,-0.2445,0.4761,0.8008,322.4688
19:06:34:481,2.8085,1.0134,5.8563,31.5458,-0.7119,1.0242,0.3954,321.3281
19:06:34:499,2.8911,1.3162,6.4058,31.4424,-1.2456,1.5837,-0.1034,320.2188
19:06:34:520,1.7814,1.1606,7.7944,31.5875,-1.4384,1.7816,-0.5103,318.8281
19:06:34:539,0.2192,0.5908,9.3124,33.9226,-1.1707,1.4308,-0.7079,318.4062
19:06:34:559,-1.3598,-0.3585,10.3957,33.1166,-0.6243,0.7645,-0.6019,318.4062
19:06:34:580,-1.9835,-1.1378,10.6926,33.4307,-0.065,0.058,-0.2802,318.7812
19:06:34:599,-1.4891,-1.3701,10.6136,33.9639,0.3244,-0.6118,-0.0291,319.3438
19:06:34:621,-0.189,-1.2851,10.6962,32.2577,0.4035,-1.055,-0.0405,319.7656
19:06:34:640,1.0811,-1.6442,11.2888,33.4325,0.1643,-1.1335,-0.2549,319.9531
19:06:34:661,2.1226,-3.3896,14.1906,32.6955,-0.1417,-0.7399,-0.4744,320.0781
19:06:34:680,2.5224,-3.8589,13.7165,32.4432,-0.318,-0.0883,-0.6256,320.3281
19:06:34:700,1.8844,-3.2687,13.3849,33.0282,-0.4783,0.3648,-0.7652,320.8125
19:06:34:720,0.2707,-3.4459,14.8909,33.9019,-0.6171,0.3624,-0.9268,321.4375
19:06:34:740,-0.8666,-4.4897,15.7109,33.1543,-0.4746,0.3991,-0.9058,322.1562
19:06:34:760,-0.3207,-4.8884,13.8949,33.2529,-0.0024,0.7163,-0.4603,322.9844
19:06:34:780,1.5132,-3.8337,10.719,33.8115,0.5159,0.8985,0.1773,323.9688
19:06:34:800,3.17,-2.2176,8.3331,34.7037,0.8213,0.548,0.5739,324.75
19:06:34:820,3.328,-1.0038,7.4604,34.907,0.869,-0.1498,0.4945,324.7969
19:06:34:840,2.5894,-0.7883,7.8818,34.323,0.7092,-0.6478,0.1736,324.2812
19:06:34:860,1.9849,-0.9379,8.1045,34.493,0.5401,-0.6315,-0.0786,323.9062
19:06:34:882,1.5599,-0.8338,7.2258,32.8306,0.4956,-0.2656,-0.2089,323.8438
19:06:34:904,1.2666,-0.5261,5.818,33.7156,0.4823,0.1227,-0.2861,323.9688
19:06:34:919,1.0105,-0.2065,4.9896,36.0857,0.3683,0.304,-0.3694,324.2656
19:06:34:938,0.7818,-0.0988,5.2733,33.6232,0.1904,0.2694,-0.4635,324.6406
19:06:34:959,0.2623,-0.082,6.0922,34.8003,0.0898,0.1131,-0.5471,325.0625
19:06:34:983,-0.3087,-0.1275,6.8188,33.8875,0.1475,-0.0542,-0.5644,325.5625
19:06:35:000,-0.6296,-0.0054,7.6376,34.0805,0.2812,-0.1652,-0.4826,326.1562
19:06:35:023,-0.462,0.3154,8.0219,33.3514,0.4386,-0.1498,-0.3268,326.7812
19:06:35:039,-0.2214,0.8829,8.1356,33.9211,0.5553,-0.0789,-0.1822,327.4531
19:06:35:060,-0.2501,1.4623,8.5474,33.9459,0.5721,-0.0717,-0.1116,328
19:06:35:080,-0.2309,1.9639,9.5626,33.615,0.5015,-0.1426,-0.0592,328.3594
19:06:35:101,0.5663,2.0776,11.187,36.0119,0.437,-0.2369,0.0378,328.75
19:06:35:119,1.135,2.0273,12.2764,34.2302,0.5161,-0.2571,0.0346,328.9219
19:06:35:139,0.9626,1.5856,12.6307,34.9048,0.7068,-0.194,-0.1122,328.9844
19:06:35:160,0.6346,0.8015,12.3865,33.704,0.8751,-0.1226,-0.2568,329.0625
19:06:35:184,0.2431,0.0964,11.2696,34.9595,0.942,0.0108,-0.3314,329.3438
19:06:35:206,0.1641,-0.2735,9.972,36.2344,0.7667,0.206,-0.3434,329.7969
19:06:35:219,0.0049,-0.0676,9.2741,34.7886,0.2772,0.4492,-0.3311,330.3281
19:06:35:240,0.1186,-0.0581,10.5083,34.6929,-0.4138,0.4849,-0.3071,330.8281
19:06:35:260,-0.4692,-0.8062,12.268,35.6688,-0.9502,0.4268,-0.3971,331.1875
19:06:35:282,-0.3866,-1.8645,12.8989,33.9763,-1.0562,0.3496,-0.4438,331.3906
19:06:35:299,0.3868,-2.6642,12.2105,34.2919,-0.8485,0.2249,-0.3154,331.5938
19:06:35:320,0.7579,-2.5612,10.9955,36.421,-0.6962,0.1261,-0.1524,331.8594
19:06:35:340,0.8333,-1.9124,10.6531,34.4067,-0.7894,0.0723,-0.031,332
19:06:35:361,0.2276,-1.5101,10.9811,34.7361,-0.8903,0.1677,-0.1287,332.0469
19:06:35:382,-0.2609,-1.6574,10.8518,35.4958,-0.7148,0.4391,-0.0698,331.9688
19:06:35:400,-0.5972,-1.7089,9.863,35.2484,-0.4642,0.7011,0.1049,331.7656
19:06:35:419,-0.5039,-1.406,8.2565,35.807,-0.2298,0.7072,0.3022,331.7656
19:06:35:440,-0.1842,-0.8338,6.8739,35.2,-0.0389,0.4534,0.4165,331.625
19:06:35:460,0.1055,-0.343,6.0527,35.0199,0.1207,0.0894,0.4396,331.3594
19:06:35:485,0.3557,0.0557,5.7163,34.8812,0.2298,-0.231,0.385,330.4531
19:06:35:500,0.3509,0.0892,5.5978,36.5579,0.2341,-0.4547,0.3035,330.4531
19:06:35:519,0.0121,-0.2017,5.9365,34.9388,0.1547,-0.5309,0.2982,329.9688
19:06:35:539,-0.5182,-0.4184,6.6967,35.4861,0.0599,-0.5269,0.3723,329.6094
19:06:35:560,-0.7062,-0.513,8.205,35.2352,0.0844,-0.4763,0.4862,329.3438
19:06:35:584,-0.7361,-0.2436,9.7074,36.3628,0.2626,-0.3261,0.5603,329.0781
19:06:35:602,-0.638,0.088,10.4293,34.6924,0.4767,-0.1535,0.5547,328.7031
19:06:35:619,-0.5841,0.3765,10.0151,36.3632,0.5491,-0.0819,0.462,328.2031
19:06:35:639,-0.6631,0.6602,9.5255,35.7393,0.4184,-0.223,0.2921,327.6562
19:06:35:659,-0.6056,0.3118,9.9121,36.9998,0.1411,-0.4145,0.0955,326.9062
19:06:35:682,-0.3842,-0.5824,11.266,36.5371,-0.1774,-0.467,-0.0403,326.5938
19:06:35:704,-0.1579,-1.7208,13.3274,36.5324,-0.3989,-0.2108,-0.0339,326.4688
19:06:35:720,0.3461,-2.5612,14.6371,36.3945,-0.4085,0.2561,0.0668,326.4844
19:06:35:742,0.8177,-2.4295,14.0158,36.717,-0.376,0.4494,0.1097,326.5312
19:06:35:765,0.8548,-1.5712,13.61,35.6183,-0.3105,0.1959,0.0098,326.4375
19:06:35:784,0.4179,-1.8609,14.5497,35.6726,0.0104,0.1227,-0.0227,326.2031
19:06:35:801,0.3317,-2.6594,13.5465,35.2588,0.3923,0.3304,0.1355,326.0312
19:06:35:879,1.026,-2.8138,10.7094,35.6438,0.5508,0.414,0.3296,326.0312
19:06:35:880,1.7982,-1.9471,7.6664,34.7848,0.3949,0.087,0.3613,326.0312
19:06:35:880,2.368,-0.7931,6.2023,34.3253,0.049,-0.4723,0.1438,325.9219
19:06:35:894,2.3979,-0.2556,6.7087,35.1266,-0.2264,-0.7644,-0.154,325.6406
19:06:35:907,2.0244,-0.6231,7.6532,35.0614,-0.2919,-0.627,-0.3569,325.2969
19:06:35:919,1.0488,-1.0121,7.8327,33.2739,-0.2181,-0.2267,-0.3521,325.2031
19:06:35:940,0.2407,-1.0062,6.8116,34.4445,-0.2123,0.1251,-0.2371,325.3906
19:06:35:960,-0.1052,-0.6051,5.7175,33.3924,-0.3819,0.2422,-0.1441,326
19:06:35:981,-0.353,-0.228,5.9976,33.8454,-0.53,0.2212,-0.0573,326.3125
19:06:36:002,-0.5817,-0.0724,7.5849,32.6374,-0.4266,0.1807,0.0601,326.4531
19:06:36:019,-0.4895,-0.015,9.1532,33.5349,-0.0535,0.1994,0.2306,326.4531
19:06:36:039,0.2144,0.1562,9.1496,33.2224,0.3436,0.2175,0.3342,326.3438
19:06:36:060,1.1038,1.0409,7.318,33.2318,0.4935,0.1296,0.3286,326.125
19:06:36:083,1.202,1.3713,7.9489,32.5817,0.4413,-0.1317,0.2125,325.8125
19:06:36:100,0.8189,1.3461,9.2022,32.7932,0.3675,-0.4619,0.0071,325.5
19:06:36:120,0.2958,0.9415,10.458,31.72,0.3846,-0.66,-0.1713,325.2656
19:06:36:139,-0.3111,0.416,11.4157,31.6879,0.4338,-0.6512,-0.2278,325.2344
19:06:36:160,-0.6906,0.1263,12.2872,31.9978,0.4013,-0.3748,-0.1244,325.4688
19:06:36:183,-0.4608,-0.2652,12.6607,30.9832,0.3289,-0.0092,0.0535,325.8594
19:06:36:201,0.0648,-0.7428,12.2201,29.4047,0.237,0.3288,0.188,326.1875
19:06:36:218,0.7866,-1.0648,11.8598,32.0591,0.0197,0.4705,0.2436,326.3125
19:06:36:242,1.0763,-0.9846,14.0732,30.539,-0.3965,0.108,0.2077,326.2031
19:06:36:258,0.5292,-1.4802,18.3996,29.6365,-0.6975,-0.4419,0.0937,325.9219
19:06:36:281,-0.1471,-2.6546,18.8209,30.3554,-0.2594,-0.3615,0.0572,325.5938
19:06:36:300,-0.4871,-3.1849,13.9248,30.5062,0.665,0.1621,0.234,325.3281
19:06:36:325,0.0432,-2.5887,8.6049,29.5127,1.1659,0.6731,0.5491,325.2188
19:06:36:338,0.5173,-1.4275,5.3236,28.6662,0.9931,0.7855,0.7392,325.1406
19:06:36:361,0.6394,-0.5417,4.7047,28.8907,0.391,0.3938,0.7038,324.8125
19:06:36:383,0.9291,-0.3047,6.1616,29.1336,-0.2788,-0.2092,0.5725,324.1562
19:06:36:402,1.1649,-0.2771,7.5478,30.1056,-0.6983,-0.6156,0.4215,323.3906
19:06:36:419,1.2319,-0.4495,8.3104,30.9339,-0.812,-0.7197,0.2551,322.3281
19:06:36:441,0.9327,-0.647,8.7785,29.8123,-0.7164,-0.68,0.1155,321.8125
19:06:36:458,0.1929,-0.5273,8.3846,29.0086,-0.4895,-0.5037,0.0729,321.4844
19:06:36:480,-0.3566,-0.1598,8.0458,29.5645,-0.2733,-0.2925,0.1653,321.3125
19:06:36:500,-0.4129,-0.1658,8.1572,29.9719,-0.0844,-0.1682,0.3147,321.2188
19:06:36:521,-0.3267,-0.252,7.9836,29.4771,0.1143,0.0034,0.4652,321.0156
19:06:36:540,0.2934,0.0485,8.0901,30.2795,0.2517,0.1741,0.6474,320.6719
19:06:36:559,0.8884,0.6087,7.8854,29.7278,0.3875,0.2582,0.7544,320.1562
19:06:36:584,1.1146,1.1331,7.652,28.7648,0.5175,0.1411,0.7067,319.4375
19:06:36:601,1.038,1.2707,7.6735,30.1384,0.6037,-0.1708,0.544,318.6406
19:06:36:620,0.6741,1.0696,8.1081,30.517,0.5891,-0.4273,0.3539,317.8906
19:06:36:639,0.3604,0.8984,8.909,30.517,0.4661,-0.4742,0.2276,317.5938
19:06:36:660,0.7124,0.6578,9.9289,29.3263,0.302,-0.4148,0.1637,317.2188
19:06:36:684,1.7623,0.1035,10.7573,29.6731,0.1513,-0.3783,0.0881,317.0625
19:06:36:700,2.4254,-0.7679,12.1579,29.4723,-0.0389,-0.5317,-0.0778,316.9531
19:06:36:719,2.1752,-1.151,14.7328,30.8912,-0.2735,-0.7431,-0.2192,316.8906
19:06:36:739,2.3524,-1.6251,15.9252,28.9466,-0.265,-0.6233,-0.2302,317.0625
19:06:36:760,2.6792,-1.7675,13.2975,28.0462,0.0591,0.4838,-0.3207,317.3906
19:06:36:783,2.2567,-0.8062,10.3874,30.2286,-0.2615,0.4329,-0.4906,317.3906
19:06:36:800,1.6198,-0.4495,10.7908,29.5317,-0.4962,0.1493,-0.6946,317.7188
19:06:36:824,1.2475,-1.5724,12.1567,29.496,-0.3808,0.2454,-0.7279,318
19:06:36:837,0.8165,-2.3685,11.1882,30.6194,-0.216,0.5072,-0.5047,318.2969
19:06:36:859,1.0775,-2.2823,8.9293,29.8924,-0.2317,0.467,-0.248,319.4375
19:06:36:884,1.9227,-1.4192,7.0008,30.8337,-0.5127,-0.0592,-0.2288,320.2031
19:06:36:906,2.5296,-0.6243,7.7741,30.5281,-0.8107,-0.5234,-0.4549,320.6875
19:06:36:917,2.2159,-0.7141,10.1743,28.999,-0.7585,-0.3754,-0.7053,320.875
19:06:36:938,0.5053,-1.1905,10.9799,30.9173,-0.4115,0.1887,-0.6976,321.0625
19:06:36:958,-1.0234,-1.3569,9.1256,30.2549,-0.0618,0.6252,-0.4011,321.5312
19:06:36:979,-1.3981,-1.0852,6.3663,31.618,0.0703,0.6649,-0.0366,322.6719
19:06:37:003,-0.7337,-0.3573,4.6317,29.7698,-0.0336,0.381,0.2058,323.375
19:06:37:022,0.4694,0.5621,4.8951,29.8438,-0.1654,0.039,0.2125,323.375
19:06:37:038,1.5875,1.145,6.6249,32.7052,-0.0711,-0.2433,0.009,323.3594
19:06:37:059,1.712,1.0421,7.889,29.2274,0.175,-0.3775,-0.2392,323.1094
19:06:37:082,1.117,0.5441,8.3271,29.4312,0.3137,-0.3263,-0.3202,322.8281
19:06:37:101,0.6106,0.1802,8.8599,28.8933,0.3292,-0.1186,-0.264,322.8281
19:06:37:118,0.194,0.1024,9.6918,30.7155,0.3316,0.1054,-0.1409,323.1719
19:06:37:139,0.3233,0.2855,10.2892,31.8539,0.347,0.3147,-0.056,323.7812
19:06:37:159,0.4933,0.6866,10.3479,28.0381,0.3092,0.4675,-0.0733,324.0625
19:06:37:187,0.3473,0.9535,10.3742,31.0397,0.2045,0.6572,-0.1196,324.1875
19:06:37:203,-0.2058,0.6518,10.6902,28.4723,0.0794,0.8492,-0.0717,324.2656
19:06:37:224,-0.8582,0.2448,11.3965,30.2206,-0.0096,0.9461,0.1094,324.3594
19:06:37:242,-0.7972,0.1323,12.3039,30.3038,0.0298,0.9083,0.2745,324.4219
19:06:37:257,-0.2716,0.0317,12.0944,30.7432,0.0722,0.8023,0.3099,324.3281
19:06:37:280,-0.0394,0.1706,10.3957,29.9672,-0.2237,0.3048,0.2639,323.9844
19:06:37:304,0.3449,0.5752,10.7285,28.2985,-0.808,-0.6518,0.0692,323.5625
19:06:37:320,-0.6356,-0.4064,15.347,30.3977,-0.8525,-1.0355,0.0761,323.1562
19:06:37:339,-1.0438,-2.1314,18.9909,29.9385,-0.0618,-0.5847,0.4058,322.8594
19:06:37:359,-0.9767,-2.6725,16.8661,27.2814,0.7928,0.0327,0.8633,322.7656
19:06:37:383,0.4179,-2.1781,11.4109,28.3384,1.0405,0.1405,1.0846,322.6719
19:06:37:402,1.9514,-1.3581,7.4174,28.9486,0.7348,-0.2084,0.9206,322.2656
19:06:37:419,2.3991,-0.6997,6.0814,29.0112,0.13,-0.5932,0.5989,321.4219
19:06:37:440,2.3979,-0.5297,7.5622,28.1439,-0.3217,-0.6531,0.2924,319.8438
19:06:37:459,0.3329,-1.327,9.9971,27.9579,-0.3846,-0.362,0.0947,319.1406
19:06:37:484,-0.3794,-1.2647,8.7677,27.4227,-0.1707,0.1203,0.2002,318.7031
19:06:37:502,-0.1579,-0.8733,7.1229,28.7474,0.1161,0.4132,0.4769,318.5312
