Time,Acc_X,Acc_Y,Acc_Z,Meg,Gyr_X,Gyr_Y,Gyr_Z,Ore
20:51:08:176,-3.4451,0.58,6.7422,51.9724,-0.1563,-0.1484,-0.6717,185.4844
20:51:08:219,-2.436,1.4371,8.4157,51.9492,0.1547,-0.8544,0.1062,187.2344
20:51:08:238,-2.2433,1.4515,7.7597,54.9364,0.3736,-1.1594,0.0362,187.2344
20:51:08:254,-2.3247,1.5592,7.5047,54.364,0.5065,-1.3642,-0.0637,187.2344
20:51:08:288,-2.436,1.5868,7.5095,53.5319,0.4703,-1.4734,-0.0959,170.2812
20:51:08:304,-2.4707,1.4599,7.4676,52.5709,0.2373,-1.4449,-0.1183,170.4844
20:51:08:321,-2.3582,1.3438,8.3607,54.3765,-0.0807,-1.6012,-0.0784,170.7812
20:51:08:338,-2.2852,0.9631,10.2581,53.1755,-0.2024,-2.0433,-0.0296,171.0781
20:51:08:354,-1.6986,0.5202,13.5884,51.4211,-0.0429,-1.7341,0.1405,171.3594
20:51:08:373,0.0504,1.4587,12.7133,50.8743,0.3409,-0.5695,0.2881,171.5938
20:51:08:405,0.9494,2.2583,10.1779,53.2302,0.4935,0.1634,0.1491,171.7656
20:51:08:422,1.1541,2.1147,10.0893,53.2561,0.1784,-0.2883,-0.2712,171.5938
20:51:08:435,-0.0705,0.3621,12.5074,53.02,-0.2607,-1.1796,-0.7934,171.3281
20:51:08:453,-1.3873,-0.835,13.3167,53.8938,-0.2373,-0.9176,-0.7841,171.3438
20:51:08:475,-1.5034,-0.7787,10.5969,51.917,0.13,0.0279,-0.2211,172.0781
20:51:08:507,-1.0653,0.3562,7.7801,53.2561,0.4637,0.7115,0.4508,173.6406
20:51:08:512,-0.5218,1.4431,6.814,53.3756,0.6565,0.5549,0.8854,173.8906
20:51:08:540,1.1015,1.9962,7.397,54.3863,0.6573,-0.4654,0.8873,173.2969
20:51:08:550,1.9023,1.5688,8.5079,52.0265,0.3667,-1.2355,0.3536,172.2188
20:51:08:570,0.9111,0.8589,10.1432,53.3174,0.0059,-1.4249,-0.0051,171.6875
20:51:08:590,0.2826,0.343,10.8518,54.4637,-0.2639,-0.9975,0.0204,171.0781
20:51:08:619,0.1078,0.6231,10.446,52.7749,-0.3696,-0.4465,0.2079,171.125
20:51:08:636,0.4155,1.151,9.8786,53.3762,-0.351,-0.076,0.3243,171.3281
20:51:08:649,0.6633,1.2229,9.4955,52.7182,-0.2599,-0.0483,0.2769,171.3125
20:51:08:669,0.4706,0.9188,9.1448,53.2224,-0.123,-0.2177,0.1733,171.0469
20:51:08:688,0.3054,0.8146,8.8527,54.2449,0.0234,-0.3727,0.135,170.7031
20:51:08:719,0.3497,0.7105,8.8311,52.2537,0.1699,-0.4632,0.196,170.4688
20:51:08:735,0.5903,0.8446,9.0322,54.16,0.3734,-0.5402,0.3193,170.3438
20:51:08:748,1.2176,0.9164,8.8192,52.9582,0.6024,-0.6667,0.3608,170.2188
20:51:08:769,1.8975,1.0995,8.7473,53.282,0.7124,-0.7703,0.2726,169.7812
20:51:08:787,1.8844,1.5844,8.7629,52.5448,0.6312,-0.4249,0.1395,169.4375
20:51:08:818,1.7227,1.8884,9.4476,52.5554,0.3566,0.4883,0.0772,169.1562
20:51:08:835,1.0224,2.4164,9.2992,54.2552,-0.0602,1.0945,0.1176,169
20:51:08:846,0.4131,2.2607,9.298,52.4897,-0.6245,0.5395,0.2532,168.8125
20:51:08:869,0.7531,1.6227,10.1372,52.8883,-0.927,0.6723,0.3355,168.5312
20:51:08:890,0.9865,1.6897,10.4532,53.8855,-0.8892,0.7453,0.3674,168.2031
20:51:08:905,1.1948,2.0848,10.2485,51.3827,-0.6227,0.6351,0.3171,167.8125
20:51:08:927,1.1326,2.566,9.9756,52.8026,-0.2799,0.4795,0.217,167.3594
20:51:08:952,1.0583,2.7623,9.5781,51.4369,0.0272,0.2694,0.074,166.9688
20:51:08:968,0.9602,2.3469,9.1711,51.3965,0.1705,0.0079,-0.0845,166.6719
20:51:08:985,0.6537,1.6251,9.1627,52.6885,0.1396,-0.1479,-0.1918,166.5781
20:51:09:007,0.3497,1.3342,9.4967,54.4344,0.0136,0.0039,-0.1838,166.6562
20:51:09:025,0.303,1.5592,9.3076,53.2314,-0.093,0.3767,-0.1306,166.8906
20:51:09:049,0.23,1.9998,8.8994,53.9834,-0.1563,0.5983,-0.1418,167.0781
20:51:09:068,0.1282,2.1506,8.5115,51.5065,-0.2229,0.6268,-0.19,167.0781
20:51:09:084,-0.2178,2.0465,8.2876,53.3999,-0.3052,0.6167,-0.2368,167.1562
20:51:09:103,-1.027,1.7903,8.4026,52.6085,-0.3981,0.5493,-0.2443,167.2969
20:51:09:123,-1.5094,1.4898,8.9389,54.5807,-0.4658,0.3799,-0.1484,167.4531
20:51:09:143,-1.5094,1.3414,9.5147,51.8148,-0.4466,0.214,0.022,167.6562
20:51:09:166,-1.2712,1.3737,10.0594,53.3565,-0.3577,0.0803,0.1856,167.8906
20:51:09:187,-1.1587,1.4359,10.3072,52.7754,-0.2256,0.0265,0.2793,168.0312
20:51:09:202,-1.0809,1.3533,10.3706,53.0162,-0.1028,0.0412,0.2988,167.9844
20:51:09:228,-0.9229,1.2516,10.3239,51.762,0.0338,0.1299,0.3179,167.7656
20:51:09:242,-0.6547,1.333,9.638,52.7228,0.1236,0.2902,0.3078,167.4375
20:51:09:266,-0.5841,1.4934,8.8275,53.8075,0.0554,0.357,0.213,167.125
20:51:09:289,-1.0617,1.5832,8.6815,53.2806,-0.1436,0.2345,0.0979,166.75
20:51:09:307,-1.4592,1.26,9.134,53.981,-0.3305,0.0582,0.0463,166.375
20:51:09:323,-1.6004,0.8063,9.9648,52.9513,-0.3931,-0.059,0.0737,166.0938
20:51:09:343,-1.5825,0.6243,10.5633,52.9128,-0.338,0.0364,0.173,165.9219
20:51:09:367,-1.3837,0.7883,10.6016,52.3799,-0.2551,0.2324,0.2532,165.8906
20:51:09:384,-1.4256,0.9858,10.555,53.2151,-0.2051,0.344,0.2625,165.75
20:51:09:403,-1.6172,1.0744,10.4508,53.8062,-0.1673,0.4202,0.2479,165.5
20:51:09:425,-1.8231,0.9942,10.2413,52.7784,-0.1622,0.4747,0.2492,165.1719
20:51:09:442,-2.0038,1.005,10.1611,53.046,-0.1577,0.4745,0.2993,164.8594
20:51:09:463,-1.9176,1.0972,10.0653,54.1952,-0.1414,0.357,0.3616,164.5625
20:51:09:486,-1.6603,1.181,10.2389,51.3632,-0.11,0.1685,0.3848,164.2188
20:51:09:508,-1.3287,1.1474,10.5179,52.619,-0.069,0.018,0.3733,163.8125
20:51:09:526,-1.033,1.1007,10.9392,53.159,-0.0141,0.0193,0.3403,163.375
20:51:09:542,-0.8822,1.0959,10.9177,53.159,0.0671,0.1938,0.3057,162.9375
20:51:09:563,-0.8965,1.1702,10.4089,52.6219,0.1622,0.3267,0.2705,162.7188
20:51:09:584,-0.9229,1.3557,9.6883,52.0071,0.2093,0.32,0.2346,162.3438
20:51:09:603,-0.8546,1.4467,9.4081,53.5449,0.1942,0.25,0.1869,162
20:51:09:624,-0.7086,1.4048,9.2753,53.0436,0.188,0.2534,0.1187,161.6719
20:51:09:642,-0.6092,1.3497,8.7473,52.3859,0.2013,0.3333,0.0362,161.3906
20:51:09:666,-0.6487,1.3845,7.8926,52.8883,0.175,0.4273,-0.0427,161.1094
20:51:09:685,-0.8139,1.3461,7.0415,52.1085,0.0623,0.4545,-0.1223,161
20:51:09:703,-1.112,1.3593,6.7793,53.1448,-0.1111,0.3589,-0.1689,160.9844
20:51:09:726,-1.361,1.3617,6.9134,52.6482,-0.2679,0.1815,-0.174,161.0469
20:51:09:752,-1.537,1.2492,7.3599,51.9893,-0.3758,0.0095,-0.1567,161.2031
20:51:09:769,-1.7991,0.9463,7.8483,52.3017,-0.4373,-0.0124,-0.0778,161.3594
20:51:09:786,-1.9284,0.9727,8.4038,52.4318,-0.4783,0.0545,0.0508,161.5312
20:51:09:804,-1.8219,1.4742,9.3183,51.0849,-0.4381,0.0484,0.1453,161.6562
20:51:09:823,-1.5154,1.9974,10.3694,52.3836,-0.2607,-0.0616,0.1344,161.6406
20:51:09:843,-1.6088,2.384,10.2976,52.4238,-0.0541,-0.2462,-0.0219,161.4844
20:51:09:868,-1.9272,2.4259,10.616,52.8943,0.0011,-0.4651,-0.1806,161.2812
20:51:09:886,-2.2193,2.1985,10.9883,52.0059,-0.0402,-0.4478,-0.2914,161.2031
20:51:09:903,-2.4372,1.9447,10.9691,53.5656,-0.1111,-0.2134,-0.3332,161.3438
20:51:09:924,-2.5808,1.7448,10.6328,52.3458,-0.167,0.0758,-0.2991,161.625
20:51:09:943,-2.6132,1.6574,9.9792,52.1812,-0.1523,0.2556,-0.2022,162.1875
20:51:09:968,-2.3462,1.6765,9.1711,53.6076,-0.0509,0.2215,-0.073,162.5312
20:51:09:987,-1.9248,1.8022,8.4864,52.2289,0.0975,0.0036,0.0372,162.7344
20:51:10:004,-1.4292,1.9662,7.8974,52.4732,0.2165,-0.2768,0.1019,162.7969
20:51:10:024,-1.0318,2.0213,7.5622,53.0829,0.2306,-0.4976,0.1137,162.7656
20:51:10:044,-0.705,2.0536,7.8399,51.8981,0.1542,-0.6718,0.0724,162.6719
20:51:10:068,-0.535,2.0081,8.5426,53.083,0.0437,-0.7104,-0.0089,162.625
20:51:10:086,-0.3902,2.0034,8.9077,53.2582,-0.0916,-0.59,-0.0877,162.5469
20:51:10:103,-0.274,2.0058,9.1136,51.4633,-0.2317,-0.4496,-0.1697,162.5469
20:51:10:202,-0.2417,2.0692,9.2417,53.3599,-0.3334,-0.3631,-0.2584,162.625
20:51:10:203,-0.0777,1.9938,9.2058,51.8532,-0.3878,-0.3248,-0.3441,162.7812
20:51:10:203,-0.189,1.9626,9.7278,52.3772,-0.3846,-0.3269,-0.4211,163.0469
20:51:10:211,-0.4404,2.0285,9.9732,51.6578,-0.2189,-0.2979,-0.4645,163.3906
20:51:10:211,-0.6739,2.1231,9.4153,53.1258,-0.0016,-0.3144,-0.4789,163.8125
20:51:10:221,-0.7996,2.299,8.6564,53.4221,0.1342,-0.3687,-0.4642,164.6094
20:51:10:241,-0.6607,2.5564,8.5091,52.2648,0.1944,-0.4371,-0.4541,165.1562
20:51:10:264,-0.4955,2.7563,8.6252,53.0219,0.2184,-0.4129,-0.4848,165.6719
20:51:10:282,-0.6523,3.0017,8.703,51.7843,0.2011,-0.2611,-0.5298,166.2031
20:51:10:303,-0.6619,3.4255,8.2122,52.6914,0.1318,-0.1183,-0.6105,166.7812
20:51:10:322,-0.4931,3.5895,8.2565,52.7949,0.0123,-0.1426,-0.7761,167.3594
20:51:10:343,-0.8055,3.4016,8.9197,53.6015,-0.049,-0.1956,-0.9604,168.0625
20:51:10:367,-1.5633,3.1705,9.6619,52.2562,0.0543,-0.3101,-1.0078,168.9531
20:51:10:383,-2.2385,3.1214,10.1874,52.8529,0.3806,-0.7884,-0.8872,170
20:51:10:403,-2.424,2.9323,10.4257,52.3438,0.7444,-1.8001,-0.7324,171.1719
20:51:10:422,-1.5334,2.3996,15.7803,51.1554,0.7963,-2.4689,-0.3021,172.2031
20:51:10:442,0.206,2.1769,15.9778,52.2689,0.8482,-1.2888,-0.2001,172.2031
20:51:10:465,0.807,2.3481,13.1084,51.7946,0.7798,-0.1863,-0.2757,174.2188
20:51:10:489,0.892,2.2943,10.8339,52.6538,0.5057,0.226,-0.3671,174.2188
20:51:10:503,0.6992,2.0117,10.3455,52.4102,0.2666,0.0566,-0.4075,174.3438
20:51:10:527,0.5173,1.9411,10.7273,52.1269,0.2045,-0.2638,-0.3836,174.6719
20:51:10:542,0.7339,1.8034,11.1176,53.1624,0.2695,-0.3618,-0.3716,175.0156
20:51:10:563,0.795,1.3354,10.9165,51.6788,0.4016,-0.0928,-0.3756,175.4531
20:51:10:583,0.6908,0.999,9.231,51.971,0.498,0.36,-0.3252,175.8594
20:51:10:603,0.8273,0.8673,7.1791,51.1552,0.371,0.577,-0.2469,176.2969
20:51:10:621,0.9099,0.9188,6.6033,52.2647,0.0602,0.4132,-0.1796,176.6875
20:51:10:641,0.8465,1.0529,7.488,50.7524,-0.2224,0.156,-0.1055,176.9688
20:51:10:661,0.8513,1.1498,8.484,51.8076,-0.3097,0.1032,-0.0067,177.125
20:51:10:683,0.7818,1.3701,8.5019,51.3916,-0.2493,0.2668,0.0846,177.2656
20:51:10:701,0.7579,1.7879,7.7118,51.4408,-0.1928,0.4774,0.1595,177.3906
20:51:10:721,0.8046,2.1913,6.8032,52.7272,-0.2448,0.6532,0.1765,177.4219
20:51:10:741,0.5819,2.2093,6.6249,51.7401,-0.3949,0.8481,0.1664,177.3125
20:51:10:761,0.3748,2.2547,6.6464,49.9317,-0.4986,1.0795,0.2258,177.0938
20:51:10:782,0.3545,2.5145,6.3866,49.9526,-0.4871,1.1688,0.2897,176.8438
20:51:10:802,0.4418,2.7324,5.8875,51.0933,-0.4088,1.058,0.3035,176.4531
20:51:10:821,0.4179,2.7695,5.842,51.8412,-0.3294,0.7299,0.2601,176.0781
20:51:10:842,0.2048,2.7791,5.9832,50.6587,-0.2669,0.3703,0.221,175.6719
20:51:10:864,0.1306,2.9,6.3663,50.1447,-0.273,0.0489,0.2125,175.2812
20:51:10:885,0.1282,3.0951,7.1851,49.5656,-0.33,-0.1892,0.1922,174.9688
20:51:10:903,0.1138,3.07,8.4828,48.4829,-0.3963,-0.3106,0.1642,174.7188
20:51:10:927,-0.1136,2.6713,10.2018,48.138,-0.448,-0.1644,0.1605,174.5156
20:51:10:941,-0.7732,2.2919,11.8071,49.3124,-0.4863,0.308,0.2607,174.3438
20:51:10:962,-0.8654,2.5432,12.6642,47.9733,-0.4778,0.7893,0.45,174.2031
20:51:10:992,-0.4955,2.8808,13.1946,47.8936,-0.3822,0.854,0.5224,174.0156
20:51:11:001,-0.2668,2.7899,13.4591,46.7366,-0.2237,0.5988,0.458,173.5781
20:51:11:028,-0.0286,2.1434,13.6375,49.0689,-0.143,0.2928,0.377,172.9688
20:51:11:041,-0.0442,1.7723,14.1175,46.888,-0.1864,0.1291,0.3568,172.3594
20:51:11:062,0.1019,1.5449,14.649,46.2455,-0.2242,0.1104,0.303,172.125
20:51:11:083,-0.4907,1.175,14.7173,46.2294,-0.1057,0.0721,0.1882,171.6875
20:51:11:109,-1.0665,0.6518,14.1463,44.8509,0.0506,0.0361,0.1781,171.2812
20:51:11:122,-1.4065,0.0796,13.6028,42.9098,0.2109,0.0968,0.2548,170.8281
20:51:11:142,-1.6722,-0.3897,12.0166,44.1583,0.4088,0.1757,0.3952,170.625
20:51:11:161,-1.6411,-0.5273,10.1815,44.5144,0.4906,0.0699,0.5685,170.375
20:51:11:184,-1.3311,-0.2352,9.073,43.8698,0.4176,-0.2129,0.7083,170.0469
20:51:11:201,-0.6906,0.1466,9.3842,42.0762,0.2621,-0.5287,0.7629,169.4688
20:51:11:221,-0.3099,0.4328,10.1037,43.2696,0.2277,-0.6606,0.6996,168.7344
20:51:11:242,-0.4057,0.6913,9.8211,43.1211,0.2695,-0.5338,0.5832,167.8906
20:51:11:266,-0.5745,0.7392,8.9233,41.2366,0.2868,-0.2648,0.49,167.125
20:51:11:289,-0.7888,0.7392,7.883,41.9349,0.2666,-0.0257,0.4386,166.4219
20:51:11:301,-0.9743,0.7835,7.0678,41.6555,0.2501,0.1027,0.4601,165.5625
20:51:11:321,-0.948,0.8565,6.4621,41.5957,0.2679,0.0955,0.5355,165.0781
20:51:11:341,-0.7277,0.9068,6.1185,41.113,0.3145,0.0031,0.6149,164.5312
20:51:11:361,-0.4524,1.0313,5.9317,41.9334,0.3659,-0.0965,0.6801,163.9062
20:51:11:382,-0.0478,1.2384,5.7965,40.5911,0.3856,-0.1072,0.7017,163.5938
20:51:11:401,0.3401,1.3785,5.4134,40.2653,0.3438,-0.0478,0.6559,162.8438
20:51:11:421,0.5903,1.4252,5.1632,40.7266,0.1872,-0.0265,0.5802,162.0312
20:51:11:441,1.0141,1.8262,6.0611,38.8627,-0.0019,-0.0619,0.499,161.25
20:51:11:461,1.4259,2.3266,7.1588,42.0845,-0.0671,-0.141,0.3185,160.5625
20:51:11:482,1.3708,2.6414,8.4205,40.9429,-0.0125,-0.2427,0.0378,159.9375
20:51:11:501,0.7423,2.4128,8.8371,38.6379,0.0373,-0.2198,-0.2344,159.4688
20:51:11:521,0.2204,2.1339,8.8898,38.5323,-0.0368,-0.1309,-0.3852,159.2812
20:51:11:542,0.0564,1.983,9.0514,39.644,-0.2501,-0.0776,-0.4858,159.4219
20:51:11:562,-0.0968,1.7615,9.7278,39.9808,-0.5481,-0.063,-0.6073,159.8125
20:51:11:583,-0.4273,1.2671,11.0254,39.7195,-0.844,-0.0789,-0.7215,160.6094
20:51:11:607,-0.9863,0.4292,13.2317,39.7195,-0.991,-0.0329,-0.6925,161.3281
20:51:11:622,-0.3686,-0.4878,14.5497,38.986,-0.8205,0.1381,-0.4451,162.2031
20:51:11:641,1.0236,-0.6039,13.5752,41.2967,-0.5926,0.3142,-0.1929,163.0156
20:51:11:662,1.7323,0.1766,12.4679,39.2206,-0.5454,0.2401,-0.1969,163.5469
20:51:11:683,1.1505,0.4854,12.6846,38.7957,-0.6,0.0899,-0.4712,163.7812
20:51:11:705,-0.3375,-0.2568,13.3981,39.4057,-0.5569,0.2114,-0.6797,164.0156
20:51:11:722,-1.1491,-0.9487,12.9432,38.5626,-0.3529,0.5762,-0.5457,164.0156
20:51:11:741,-0.1878,-0.7608,11.2074,41.3197,-0.1116,0.7328,-0.2238,165.3438
20:51:11:761,1.6198,-0.009,9.9133,40.3321,0.0261,0.3243,-0.0936,165.9688
20:51:11:786,2.5045,0.6351,10.0785,41.9013,0.0687,-0.3522,-0.2941,166.2031
20:51:11:804,1.0033,0.1131,10.9225,41.3245,0.1904,-0.4281,-0.8885,166.6406
20:51:11:823,0.0684,-0.1574,9.2058,41.2092,0.2743,0.0886,-0.9239,167.3438
20:51:11:844,-0.4261,0.2101,6.8978,40.2267,0.273,0.4212,-0.8366,168.375
20:51:11:869,-0.5925,0.6662,5.3631,41.2754,0.2107,0.385,-0.745,169.4219
20:51:11:886,-0.6116,0.9583,4.9813,41.9573,0.1531,0.1,-0.6701,169.4219
20:51:11:904,-0.4488,1.1714,5.4242,40.0179,0.1449,-0.1708,-0.5963,171.1562
20:51:11:925,-0.2034,1.2983,5.8755,42.2458,0.2075,-0.2872,-0.5394,171.1562
20:51:11:944,-0.043,1.6526,5.7749,41.7385,0.265,-0.2624,-0.5178,171.9062
20:51:11:969,0.0528,2.0034,5.6073,44.0107,0.2136,-0.2057,-0.5631,172.5938
20:51:11:983,0.0169,2.2476,6.0455,40.6353,0.0844,-0.157,-0.6485,173.2031
20:51:12:000,-0.2118,2.3553,6.7159,42.8904,-0.0415,-0.1397,-0.7402,173.7969
20:51:12:022,-0.8247,2.3876,7.731,43.0106,-0.1595,-0.1804,-0.8062,174.4375
20:51:12:040,-1.2916,2.2835,9.717,43.1451,-0.1816,-0.2675,-0.8004,175.1406
20:51:12:062,-2.0493,1.8801,11.0697,43.0587,-0.0333,-0.2211,-0.7274,176
20:51:12:086,-2.5797,1.6167,11.6778,43.8446,0.1041,-0.0406,-0.5335,176.9531
20:51:12:104,-2.6168,1.91,11.351,42.7245,0.1345,0.2151,-0.3173,177.875
20:51:12:121,-2.3259,2.25,11.1284,43.8507,0.0285,0.2944,-0.2001,178.6875
20:51:12:145,-2.0517,2.1171,11.6419,42.4774,-0.1483,0.2817,-0.1649,179.2812
20:51:12:168,-1.6567,1.4742,12.6607,44.7196,-0.2898,0.3155,-0.1244,179.75
20:51:12:189,-1.8027,1.2887,13.3382,43.8562,-0.3534,0.2758,-0.0802,180.0938
20:51:12:203,-2.1774,1.3234,14.4192,45.8677,-0.3297,0.0806,0.0236,180.0938
20:51:12:258,-2.4264,0.9188,15.2811,45.7956,-0.1265,-0.0864,0.1627,180.2031
20:51:12:258,-2.5713,0.3897,14.8585,45.1195,0.2296,-0.0976,0.3816,180.2344
20:51:12:269,-2.1942,0.0712,12.8905,45.8119,0.5393,0.0406,0.6497,180.1406
20:51:12:285,-1.2988,0.1454,10.4616,47.8363,0.6141,0.0998,0.8165,179.8438
20:51:12:303,-0.3949,0.1766,9.134,45.7332,0.4243,-0.1098,0.8008,179.2812
20:51:12:321,-0.025,0.009,9.7206,45.83,0.1332,-0.4944,0.6921,178.4062
20:51:12:342,-0.3052,-0.1371,11.5857,46.2314,0.0016,-0.6616,0.6282,177.4375
20:51:12:363,-0.6607,-0.325,12.2213,46.498,0.1252,-0.448,0.6609,176.5938
20:51:12:384,-0.9324,-0.2269,10.9093,46.1684,0.3507,-0.0768,0.7826,175.9219
20:51:12:402,-0.626,0.2161,8.5905,47.0424,0.4799,0.2169,0.9344,175.5938
20:51:12:421,-0.0705,0.6913,6.7159,47.0142,0.4535,0.3208,1.0061,174.8594
20:51:12:441,0.2407,1.0696,5.6708,47.4035,0.3598,0.251,0.9882,173.9531
20:51:12:462,0.3509,1.2085,5.2853,47.1575,0.2703,0.0926,0.931,172.8906
20:51:12:485,0.455,1.1367,5.3823,46.5524,0.2147,-0.0558,0.895,171.1094
20:51:12:501,0.5903,1.0912,5.8108,47.0783,0.1952,-0.1293,0.8759,170.0469
20:51:12:522,0.5951,1.1726,5.9796,46.2823,0.2245,-0.1452,0.862,169
20:51:12:542,0.6047,1.3066,5.9784,48.1171,0.2501,-0.1956,0.8388,167.9844
20:51:12:562,0.6406,1.5137,6.0982,47.6626,0.2301,-0.288,0.8119,166.9844
20:51:12:585,0.9135,1.8202,6.6165,49.0985,0.1654,-0.3825,0.7747,166.0625
20:51:12:609,1.372,2.1171,7.4604,47.8613,0.1023,-0.394,0.6809,165.125
20:51:12:621,1.4654,2.2691,8.2553,50.3675,0.0687,-0.3157,0.498,164.2344
20:51:12:641,1.2954,2.4487,8.6013,47.9755,0.0487,-0.1687,0.2854,163.4531
20:51:12:662,1.1721,2.5205,8.4217,49.3505,-0.0408,-0.1008,0.0585,162.7969
20:51:12:686,1.0823,2.4331,8.6432,50.9009,-0.2746,-0.255,-0.1852,162.3594
20:51:12:703,0.862,2.068,10.3299,49.855,-0.6072,-0.5258,-0.4214,162.1719
20:51:12:721,0.3748,1.1391,13.6447,51.2172,-0.8032,-0.5961,-0.5636,162.2656
20:51:12:741,0.3126,0.0868,15.5912,49.1849,-0.6227,-0.268,-0.5031,162.6875
20:51:12:762,1.2152,-0.4208,13.9727,50.6508,-0.3641,0.1903,-0.3063,163.7188
20:51:12:786,2.1896,0.1634,11.4073,49.1437,-0.383,0.328,-0.2254,164.375
20:51:12:801,2.2614,0.8685,10.385,49.6943,-0.6722,0.1195,-0.411,164.75
20:51:12:821,1.1553,0.6111,11.7066,51.1255,-0.98,0.0199,-0.7103,165.0156
20:51:12:841,0.0061,-0.4411,13.2209,50.6578,-0.971,0.3141,-0.8171,165.5156
20:51:12:862,-0.1651,-0.981,12.5457,50.4206,-0.6687,0.7184,-0.6344,166.4062
20:51:12:883,1.3385,-0.7536,10.4472,53.8246,-0.4229,0.7568,-0.37,167.4062
20:51:12:902,3.085,-0.1107,9.3375,51.3402,-0.4258,0.1698,-0.3535,168.125
20:51:12:921,3.1497,0.5022,10.4113,52.0123,-0.5734,-0.5911,-0.623,168.375
20:51:12:942,2.0412,0.4268,12.614,50.1757,-0.5902,-0.916,-0.9223,168.75
20:51:12:960,0.6513,-0.0796,13.2113,52.1416,-0.3489,-0.5184,-1.0376,169.3125
20:51:12:982,-0.6751,-0.2197,11.2577,51.7678,-0.0376,0.2659,-0.8741,170.2188
20:51:13:003,-1.1874,0.2029,8.2434,51.6401,0.1694,0.8276,-0.5348,171.4062
20:51:13:022,-1.1503,0.8925,6.0371,51.6689,0.2724,0.8737,-0.211,172.5625
20:51:13:043,-0.6152,1.315,4.9813,52.6574,0.3542,0.553,0.0231,173.3281
20:51:13:070,0.1162,1.4515,4.7143,51.8512,0.4205,0.1661,0.1547,173.7969
20:51:13:089,0.7292,1.5413,4.9585,51.2002,0.4658,-0.1032,0.2077,173.75
20:51:13:105,1.0093,1.7831,5.229,52.65,0.5025,-0.2539,0.1917,173.5625
20:51:13:121,1.2224,2.0752,5.4948,51.3996,0.4948,-0.4086,0.1267,173.2969
20:51:13:141,1.2619,2.2823,6.3519,50.8563,0.3987,-0.5229,0.0132,173.0469
20:51:13:161,1.2595,2.2392,7.5191,52.2646,0.2562,-0.4936,-0.1127,172.8906
20:51:13:184,1.1338,2.1614,8.7425,52.5612,0.1095,-0.3487,-0.2376,172.875
20:51:13:203,-0.2417,1.5173,11.5318,51.6758,0.0352,0.0137,-0.2746,173
20:51:13:222,-0.6236,1.1007,11.9807,50.7594,0.1276,0.1421,-0.0978,173.2812
20:51:13:243,-0.5996,1.1953,12.3578,53.3322,0.1443,0.1451,0.1469,173.6406
20:51:13:269,-0.1543,1.5305,13.1263,52.393,0.1108,0.0603,0.3059,173.9531
20:51:13:282,0.3293,1.5257,13.9511,53.4277,0.1491,0.0707,0.3083,173.875
20:51:13:305,0.7303,1.3198,13.3909,52.8892,0.1976,0.3458,0.2151,173.875
20:51:13:322,0.643,1.4647,11.6551,50.5419,0.02,0.7006,0.0441,173.5156
20:51:13:343,-0.5482,2.1733,11.3127,52.1388,-0.371,0.6918,-0.0975,173.1562
20:51:13:372,-1.3622,1.4084,13.8889,51.516,-0.4911,0.3442,-0.1524,172.875
20:51:13:389,-1.6627,-0.3561,14.7041,51.3264,-0.0344,0.2625,-0.0613,172.7969
20:51:13:407,-1.4256,-1.1378,11.776,50.3683,0.4642,0.3778,0.1853,172.8906
20:51:13:420,-0.7265,-0.5872,8.6001,51.0568,0.4621,0.2066,0.38,173.0781
20:51:13:440,-0.0274,0.3418,8.2841,50.8404,0.0341,-0.3066,0.3355,173.125
20:51:13:460,0.5149,0.5944,10.7106,50.7025,-0.372,-0.7066,0.1589,172.8906
20:51:13:486,0.6932,0.4352,12.8857,51.9092,-0.412,-0.6718,-0.0619,172.4219
20:51:13:503,-0.0179,0.3418,12.8127,49.5825,-0.1561,-0.2909,-0.2216,172.0781
20:51:13:521,-0.5206,0.2053,11.0218,49.2951,0.1071,0.161,-0.2041,171.9375
20:51:13:541,-0.6236,0.1514,8.9113,48.5307,0.2684,0.4809,-0.073,172.0625
20:51:13:563,-0.6391,0.2568,7.2186,47.2404,0.391,0.5506,0.1145,172.3438
20:51:13:585,-0.2896,0.3729,5.9976,46.2047,0.5182,0.3775,0.3259,172.5469
20:51:13:604,0.3185,0.5285,5.168,49.4539,0.6179,0.0343,0.4785,172.5312
20:51:13:620,0.7459,0.5656,4.9334,47.7916,0.6384,-0.3141,0.5347,172.2344
20:51:13:640,0.9051,0.6004,5.2291,46.5365,0.571,-0.4877,0.5302,171.75
20:51:13:661,1.0727,0.6722,5.5379,46.6425,0.4607,-0.4334,0.4993,171.1406
20:51:13:687,1.3564,0.7679,5.6373,46.6425,0.3167,-0.2994,0.4178,170.5156
20:51:13:704,1.2822,0.8913,5.8946,47.7337,0.1316,-0.2243,0.3086,169.9688
20:51:13:721,1.0129,1.011,6.7182,47.5982,-0.0509,-0.2752,0.234,169.4375
20:51:13:740,0.8441,1.0888,8.788,46.8922,-0.1065,-0.3735,0.1976,169.0312
20:51:13:760,0.6908,1.1343,10.3359,45.6348,0.0469,-0.2925,0.1944,168.7656
20:51:13:785,0.7591,1.4455,10.5083,46.3197,0.2866,-0.1724,0.193,168.5469
20:51:13:804,0.7962,1.7041,9.456,46.3857,0.3603,-0.1479,0.1416,168.3594
20:51:13:820,0.807,2.0141,9.1316,45.587,0.1712,-0.2805,0.0207,168.2656
20:51:13:841,0.6884,1.9974,10.0402,44.9367,-0.1119,-0.3916,-0.137,168.0469
20:51:13:861,1.0308,1.3857,11.448,44.2452,-0.2975,-0.3578,-0.244,167.8594
20:51:13:887,1.8077,0.592,11.6826,45.8987,-0.4501,-0.1927,-0.3367,167.9219
20:51:13:903,1.9861,0.4974,12.2524,44.0264,-0.7262,-0.1551,-0.4422,168.1875
20:51:13:921,2.0867,0.434,13.8266,43.4179,-0.9689,-0.1628,-0.5809,168.5781
20:51:13:941,0.9494,0.0533,15.7276,42.4925,-0.987,-0.0155,-0.7639,169.0938
20:51:13:961,-0.1938,-0.8673,16.07,42.1642,-0.7076,0.397,-0.7354,169.7188
20:51:13:987,-0.535,-1.3425,13.8853,41.9968,-0.3539,0.8681,-0.4645,170.6094
20:51:14:003,0.3772,-1.0792,10.9847,41.621,-0.1867,0.936,-0.1218,171.5781
20:51:14:023,1.3911,-0.2149,9.5207,42.4367,-0.2128,0.4907,0.0415,172.3125
20:51:14:040,1.688,0.8098,9.7924,42.6254,-0.2229,-0.092,0.0364,172.5938
20:51:14:061,1.8604,1.2588,10.057,41.2347,-0.0437,-0.3852,-0.0603,172.5781
20:51:14:086,1.7922,1.3665,8.9209,41.5916,0.1888,-0.3018,-0.1865,172.5312
20:51:14:102,1.6378,1.4503,7.3695,41.0484,0.3188,-0.0379,-0.2597,172.5625
20:51:14:121,1.4522,1.6933,5.8671,41.4279,0.3627,0.2455,-0.3066,172.7188
20:51:14:140,1.3887,1.9866,4.5479,38.844,0.347,0.344,-0.375,172.9531
20:51:14:161,1.3624,2.1195,3.8141,42.1397,0.2791,0.2564,-0.4605,173.25
20:51:14:187,1.4199,2.2464,3.6668,40.7713,0.1664,0.0841,-0.5543,173.7812
20:51:14:205,1.2116,2.3254,4.1948,39.369,0.0083,-0.1138,-0.6651,174.2812
20:51:14:220,0.6693,2.305,5.2446,40.3468,-0.1643,-0.2518,-0.7479,174.8594
20:51:14:244,-0.14,2.4044,7.0259,39.4856,-0.2879,-0.301,-0.7492,175.6406
20:51:14:262,-0.6679,2.5241,9.4752,39.0113,-0.2,-0.2262,-0.6177,176.5156
20:51:14:325,-0.2142,2.5241,10.7369,39.2948,0.1462,-0.0659,-0.4443,177.4062
20:51:14:326,0.1486,3.0281,10.0582,38.0529,0.4392,0.0585,-0.3713,178.1094
20:51:14:326,0.315,3.4722,9.5841,38.4853,0.4498,0.0569,-0.4374,178.375
20:51:14:341,-0.2297,3.5321,9.9313,38.1186,0.2605,0.0313,-0.5998,178.8125
20:51:14:361,-1.0785,3.0927,11.1224,37.9849,0.0165,-0.0323,-0.684,179.2031
20:51:14:386,-1.3981,2.1326,13.4017,37.8831,-0.0807,-0.0472,-0.5921,179.75
20:51:14:404,-1.4089,1.345,14.576,36.6376,0.0898,0.1536,-0.3535,180.5
20:51:14:421,-0.8714,1.1175,13.1323,37.0229,0.2847,0.4058,-0.1007,181.2656
20:51:14:445,-0.8223,1.5485,11.509,36.6599,0.1731,0.3235,0.0236,181.9375
20:51:14:459,-1.0462,1.643,12.7145,36.7764,-0.119,-0.027,0.1022,182.0156
20:51:14:482,-1.1742,0.9128,14.8118,36.5466,-0.1134,-0.2028,0.1821,181.9375
20:51:14:506,-1.6471,0.1622,14.6981,36.8411,0.245,-0.0989,0.3555,181.8438
20:51:14:522,-1.5322,-0.2149,12.0861,37.9199,0.5473,0.0699,0.6226,181.6562
20:51:14:539,-0.9731,-0.1766,9.7984,36.3525,0.5398,-0.063,0.8117,181.25
20:51:14:561,-0.4129,0.0844,9.0622,35.398,0.2897,-0.4747,0.8937,180.5312
20:51:14:586,-0.292,0.5597,9.9684,36.3161,-0.0219,-0.8084,0.9086,179.5781
20:51:14:603,0.1174,0.6638,11.1691,35.9454,-0.134,-0.8108,0.9102,178.5781
20:51:14:621,0.5843,0.8027,9.0861,35.6085,0.0919,-0.0643,0.9209,177.625
20:51:14:643,0.9326,1.1019,7.2713,35.6536,0.1566,0.1589,0.9557,177.625
20:51:14:661,1.3528,1.4671,5.8863,35.4777,0.1446,0.1504,0.9219,176.7031
20:51:14:688,1.439,1.6777,5.3751,34.8766,0.0469,0.05,0.8223,174.6719
20:51:14:704,1.3217,1.667,5.6121,35.7247,-0.0384,-0.0073,0.7118,173.0469
20:51:14:721,1.1733,1.4611,6.0275,36.1589,-0.0349,-0.0054,0.6338,173.0469
20:51:14:741,1.1529,1.3629,6.0323,35.9624,0.0474,0.0231,0.6002,171.5625
20:51:14:761,1.2798,1.4635,5.836,36.7532,0.1209,0.006,0.5949,170.7969
20:51:14:786,1.5468,1.807,5.8958,35.4706,0.1526,-0.1567,0.5608,170.0625
20:51:14:805,1.6952,2.0285,6.6273,35.5286,0.1614,-0.4329,0.4612,169.375
20:51:14:823,1.6868,2.062,7.664,35.7743,0.1947,-0.5945,0.3539,168.6875
20:51:14:839,1.6952,1.9974,8.1631,36.0307,0.1846,-0.5373,0.2527,168.0781
20:51:14:859,1.5719,1.8406,8.8515,35.8236,0.0338,-0.366,0.1238,167.5625
20:51:14:880,1.275,1.7532,9.8822,36.7473,-0.1822,-0.1431,0.0138,167.1875
20:51:14:901,1.4797,1.716,10.9093,34.5927,-0.388,-0.1194,-0.101,166.9375
20:51:14:920,1.4941,1.3689,12.7349,36.6322,-0.5814,-0.2584,-0.2802,166.8125
20:51:14:940,1.2343,0.501,15.1542,36.2339,-0.6232,-0.1535,-0.3503,166.8438
20:51:14:960,1.9131,-0.5752,15.4882,36.4108,-0.3752,0.2108,-0.2826,167.0156
20:51:14:987,2.526,-0.6794,12.8354,38.1948,-0.2152,0.4649,-0.2603,167.9062
20:51:15:005,2.2519,0.0222,11.2804,36.9199,-0.404,0.377,-0.3559,168.2656
20:51:15:021,1.2583,0.2149,12.4093,37.3723,-0.5619,0.1072,-0.521,168.3906
20:51:15:044,0.479,-0.6411,13.3789,37.4737,-0.4029,0.0265,-0.5894,168.7344
20:51:15:059,0.1342,-1.3401,12.3985,36.3777,-0.1593,0.2401,-0.4171,169.2969
20:51:15:081,0.8429,-1.3114,10.7549,35.3521,-0.0354,0.2982,-0.1005,170.625
20:51:15:103,2.1369,-0.6303,9.541,36.3757,-0.0277,-0.0046,0.1033,170.625
20:51:15:120,2.8624,0.4423,9.474,36.7773,-0.106,-0.4227,0.087,170.9062
20:51:15:140,2.8708,1.0529,9.8978,34.682,-0.147,-0.5282,-0.1005,170.875
20:51:15:160,2.2339,1.1522,9.3878,37.5435,-0.1318,-0.1969,-0.3159,170.75
20:51:15:180,1.5216,1.2456,7.9561,36.0785,-0.1294,0.3325,-0.4302,170.7812
20:51:15:203,1.0871,1.5006,6.2645,35.938,-0.1553,0.7112,-0.4563,171.0781
20:51:15:220,0.7567,1.752,5.2997,37.6445,-0.1523,0.6931,-0.4467,171.5
20:51:15:240,0.5891,1.9495,5.0291,37.9965,-0.0905,0.3991,-0.4139,172.0156
20:51:15:260,0.7316,2.0141,5.3081,37.6295,0.017,0.079,-0.3636,172.2656
20:51:15:286,1.0715,2.0536,5.6277,37.2698,0.1494,-0.1386,-0.3513,172.7656
20:51:15:303,1.2762,2.2859,5.824,38.5494,0.1878,-0.1788,-0.3971,173.2031
20:51:15:322,1.3253,2.6139,6.176,38.0304,0.0959,-0.1101,-0.5013,173.8125
20:51:15:340,1.1888,2.6582,6.9852,37.7431,-0.0424,-0.0507,-0.6467,174.2188
20:51:15:359,0.9063,2.5816,8.0315,36.4249,-0.1689,0.0137,-0.7657,174.6875
20:51:15:380,0.5544,2.4008,9.0945,36.6967,-0.2906,0.1293,-0.8358,175.3438
20:51:15:404,-0.055,2.1566,10.197,37.7998,-0.4165,0.2867,-0.8493,176.1719
20:51:15:421,-0.5386,2.0045,11.63,35.9046,-0.4986,0.4654,-0.7868,177.0625
20:51:15:441,-0.9336,1.6634,12.7852,38,-0.478,0.5722,-0.6768,178.0625
20:51:15:460,-1.1168,1.2743,13.9619,36.5648,-0.3521,0.5522,-0.4994,179.0312
20:51:15:486,-0.6846,0.7895,14.3785,38.4069,-0.1308,0.5264,-0.3114,179.9062
20:51:15:503,-0.0322,0.5968,13.4029,36.8558,-0.0186,0.5142,-0.2011,180.5625
20:51:15:520,-0.4201,1.1055,12.9276,37.6481,-0.1353,0.2809,-0.1846,181.0312
20:51:15:540,-1.2221,1.1367,14.6646,37.5452,-0.2218,-0.0699,-0.1559,181.2812
20:51:15:561,-1.5573,0.1443,15.8593,36.9901,0.0455,-0.1168,-0.0374,181.4688
20:51:15:585,-1.6459,-0.8398,14.1247,37.9073,0.469,0.0878,0.201,181.6875
20:51:15:604,-1.0845,-1.1989,11.1056,36.7583,0.6717,0.1328,0.4577,181.8281
20:51:15:620,-0.5146,-1.1271,9.0167,37.4959,0.5225,-0.2156,0.6029,181.5781
20:51:15:640,-0.511,-0.7428,9.0813,36.8788,0.1585,-0.6853,0.6793,181
20:51:15:659,-0.6894,-0.3693,10.6052,36.2366,-0.0732,-0.8864,0.7917,180.2969
20:51:15:681,-0.292,-0.4232,11.3534,37.7043,0.0354,-0.7338,0.9478,179.5781
20:51:15:704,-0.0143,-0.2137,10.2485,37.1873,0.2818,-0.3498,1.1259,178.7188
20:51:15:720,0.3724,0.3621,8.6635,37.0753,0.4786,-0.0403,1.3033,177.6562
20:51:15:740,0.7938,1.0002,7.172,36.113,0.5763,0.1032,1.3731,176.3594
20:51:15:760,1.0512,1.3629,6.3735,37.0733,0.6203,0.1011,1.3243,174.9062
20:51:15:789,1.1422,1.3366,5.8587,37.0733,0.6623,0.0412,1.2442,173.2656
20:51:15:805,1.214,1.3665,5.2722,39.0557,0.6512,-0.0265,1.1747,171.6875
20:51:15:822,1.2391,1.5125,5.0543,38.2514,0.5499,-0.1223,1.0897,170.9375
20:51:15:840,1.2403,1.6382,5.4146,37.6881,0.4043,-0.2342,0.9749,169.5469
20:51:15:860,1.3516,1.6107,6.2861,38.526,0.306,-0.3487,0.83,168.1875
20:51:15:887,1.3409,1.5293,7.3455,39.1046,0.2874,-0.39,0.6729,166.9688
20:51:15:905,1.3648,1.5401,7.9561,38.0565,0.3108,-0.3061,0.5288,165.9688
20:51:15:923,1.4594,1.479,8.3619,39.7021,0.3065,-0.1921,0.368,165.1094
20:51:15:940,1.3253,1.406,8.5115,37.5806,0.22,-0.0872,0.1837,164.125
20:51:15:960,1.117,1.1402,9.213,38.3513,-0.0032,-0.0893,0.0034,163.7031
20:51:15:986,1.0811,0.5932,10.7704,38.7107,-0.2567,-0.1096,-0.1399,163.4688
20:51:16:002,1.2427,-0.0018,12.6894,40.0381,-0.4197,-0.0467,-0.2147,163.4688
20:51:16:020,3.3975,-1.1319,12.8354,40.1321,-0.4812,0.2018,-0.3487,163.6719
20:51:16:041,3.2095,-0.6339,12.4775,38.6929,-0.7238,0.1397,-0.53,163.9688
20:51:16:061,1.8927,-0.3669,13.6782,40.1121,-0.9492,0.0588,-0.7649,164.2969
20:51:16:085,0.139,-1.1654,14.8741,41.0387,-0.901,0.3038,-0.8214,164.7344
20:51:16:105,-0.8929,-2.1302,14.0182,38.9122,-0.6309,0.7957,-0.4874,165.3906
20:51:16:122,-0.2836,-2.2057,11.5629,40.7564,-0.3294,0.9951,0.1142,166.375
20:51:16:140,1.6054,-1.3054,9.3926,40.8124,-0.1635,0.5602,0.654,167.4219
20:51:16:158,3.2443,0.2292,8.9113,41.4307,-0.0985,-0.2113,0.8681,167.9688
20:51:16:182,4.0463,1.5485,9.1747,40.6574,0.0152,-0.7871,0.7022,167.0781
20:51:16:206,3.7303,1.7615,8.6133,40.1138,0.1185,-0.7897,0.2913,166.1562
20:51:16:222,3.1186,1.5461,7.4257,41.2154,0.0615,-0.3756,-0.0936,165.7188
20:51:16:240,2.5811,1.7496,6.2514,41.6029,-0.1068,0.1264,-0.4123,165.1562
20:51:16:260,1.7156,1.8681,5.4673,42.1837,-0.2607,0.4138,-0.6829,165.0625
20:51:16:279,0.9243,1.6239,5.3835,43.1292,-0.3127,0.3328,-0.8454,165.3438
20:51:16:304,0.3987,1.4503,6.0036,44.0368,-0.2578,0.1778,-0.8501,165.625
20:51:16:322,0.3066,1.5353,6.4429,44.5899,-0.1081,0.0806,-0.7348,166.4219
20:51:16:406,0.6334,1.8824,6.6273,43.8934,0.0256,0.0686,-0.603,167.4219
20:51:16:407,1.19,2.3721,6.6021,44.4541,0.0692,0.1355,-0.5551,168.3594
20:51:16:407,1.4199,2.7635,7.1588,44.3989,-0.0021,0.1685,-0.607,169.2031
20:51:16:407,1.3241,2.8485,8.6851,44.2458,-0.065,0.1703,-0.6384,169.8906
20:51:16:435,1.1888,2.955,10.2952,45.9937,-0.0253,0.2785,-0.5963,170.4844
20:51:16:446,1.3768,3.216,11.2277,47.6478,0.1233,0.3956,-0.5564,171.1875
20:51:16:460,1.4642,3.3705,11.1523,46.736,0.2804,0.4052,-0.6611,171.9219
20:51:16:478,0.6837,3.1849,11.0398,46.5227,0.2655,0.3578,-0.8206,172.8594
20:51:16:500,-0.3207,2.5516,11.7221,48.1611,0.1036,0.3935,-0.8544,173.5
20:51:16:521,-0.9504,1.9064,12.8282,47.1428,-0.0341,0.5155,-0.7053,174.3281
20:51:16:539,-0.5326,1.2995,13.1263,47.3908,-0.0652,0.5195,-0.4941,175.2812
20:51:16:560,0.066,1.2731,13.2221,50.2447,-0.1843,0.2542,-0.3439,176.125
20:51:16:579,0.3221,1.2588,15.3649,49.9384,-0.3446,-0.1791,-0.2776,176.7812
20:51:16:605,-0.0143,0.5405,17.8932,49.0368,-0.098,-0.377,-0.2318,177.2344
20:51:16:622,-0.383,-0.4507,16.9379,50.9858,0.5428,-0.0443,-0.0792,177.5781
20:51:16:640,-0.2273,-0.8314,12.2728,49.9284,1.0216,0.4657,0.143,177.9062
20:51:16:658,0.2395,-0.7584,7.7011,49.223,0.9776,0.5677,0.2572,178.1094
20:51:16:680,0.1653,-0.568,5.9186,51.1566,0.5161,0.0601,0.271,178.0156
20:51:16:703,-0.1519,-0.0617,7.1624,50.4116,-0.024,-0.614,0.3318,177.6719
20:51:16:720,0.1079,0.1526,9.978,50.2695,-0.224,-1.0523,0.43,177.2969
20:51:16:740,0.4059,0.1107,10.9656,51.5986,0.0349,-1.0379,0.4729,176.9844
20:51:16:759,0.2168,0.1897,9.3231,51.8835,0.3047,-0.6465,0.5163,176.625
20:51:16:779,0.0288,0.5956,7.3623,51.319,0.3257,-0.239,0.6015,176.4219
20:51:16:802,0.0145,1.1546,6.0383,52.066,0.2186,-0.0576,0.6266,175.6719
20:51:16:820,0.0731,1.485,5.6253,51.9184,0.0879,-0.0795,0.5699,175.0781
20:51:16:839,0.1091,1.3845,5.9389,52.6356,0.016,-0.1684,0.4995,174.3281
20:51:16:859,0.0995,1.2348,6.3962,51.1555,0.0405,-0.231,0.4695,173.6406
20:51:16:879,0.0289,1.2228,6.7039,53.9701,0.1289,-0.2464,0.4801,173.0312
20:51:16:904,0.0552,1.2216,6.6261,53.7884,0.2442,-0.2789,0.5025,172.5156
20:51:16:920,0.3257,1.4479,6.5064,53.3784,0.289,-0.3607,0.5118,172
20:51:16:938,0.7998,1.7855,6.82,51.7463,0.2594,-0.4529,0.4702,171.4375
20:51:16:961,1.1996,2.0405,7.4712,53.615,0.2037,-0.5365,0.331,170.875
20:51:16:978,1.2451,2.0907,8.3415,53.8092,0.13,-0.4784,0.1336,170.2969
20:51:16:999,1.2846,1.9184,8.8216,55.4181,0.0176,-0.2435,-0.0555,169.8438
20:51:17:023,1.1086,1.6502,9.3806,54.3563,-0.1545,-0.0369,-0.2416,169.6094
20:51:17:040,1.0428,1.1797,10.5609,55.8972,-0.3486,-0.0411,-0.3833,169.5781
20:51:17:059,0.9686,0.6782,12.4236,55.8852,-0.5265,-0.1199,-0.4629,169.9531
20:51:17:079,0.7902,0.167,14.4743,56.341,-0.5606,-0.06,-0.4416,170.4062
20:51:17:105,1.5372,-0.6434,14.4408,56.6045,-0.3899,0.2673,-0.3194,171.0156
20:51:17:121,2.2076,-0.7931,12.1986,56.5853,-0.3457,0.5339,-0.2121,171.6094
20:51:17:138,2.4039,-0.3454,10.9009,56.1411,-0.58,0.4487,-0.1564,171.9844
20:51:17:159,2.1788,-0.0449,12.1926,55.7101,-0.8067,0.1152,-0.1998,172.2344
20:51:17:178,1.3468,-0.41,13.8841,57.7568,-0.6645,-0.0531,-0.19,172.4531
20:51:17:204,1.6198,-0.8302,13.5309,58.1454,-0.2519,-0.0363,0.0316,172.7812
20:51:17:220,3.1772,-0.6494,12.0849,58.5867,0.1196,-0.0952,0.3416,173.0625
20:51:17:239,5.4218,-0.0461,10.865,58.3346,0.3459,-0.4321,0.4814,173.1094
20:51:17:259,6.4058,0.7931,10.1791,56.3294,0.3896,-0.705,0.2513,172.9062
20:51:17:281,5.3416,1.4096,10.0618,57.0205,0.2924,-0.6345,-0.186,172.3594
20:51:17:303,3.8189,1.2384,9.5709,56.4308,0.2455,-0.2337,-0.5705,171.8906
20:51:17:319,2.5559,0.7679,8.0039,59.0912,0.265,0.3235,-0.7964,171.8438
20:51:17:338,1.5288,0.6494,5.8587,56.49,0.2131,0.7725,-0.8355,172.5938
20:51:17:359,0.8943,0.8637,4.348,59.9961,0.0818,0.8918,-0.7679,173.4531
20:51:17:380,0.5101,1.1223,3.8608,58.5204,-0.0469,0.6785,-0.6872,174.3281
20:51:17:403,0.3593,1.339,4.3887,58.6549,-0.1132,0.3176,-0.6097,175.1406
20:51:17:424,0.5939,1.5808,5.8767,57.8633,-0.0157,-0.1032,-0.5013,175.8438
20:51:17:439,0.2838,1.9914,6.4321,59.1522,-0.0168,-0.1492,-0.4637,175.8438
20:51:17:459,0.0372,2.2571,7.6185,57.8803,-0.0453,-0.1564,-0.3985,176.5469
20:51:17:478,-0.1878,2.5049,8.8922,59.2155,-0.0314,-0.048,-0.2978,177.1719
20:51:17:503,-0.5458,3.0867,9.6691,59.0079,0.0168,0.1272,-0.1159,178.2656
20:51:17:522,-0.1004,3.732,10.2066,60.0159,0.0938,0.1722,0.0692,178.7344
20:51:17:538,0.6166,4.0732,10.8231,61.4115,0.1915,0.0915,0.1025,179.0781
20:51:17:558,0.9997,4.0684,11.2313,61.1352,0.2599,0.0047,0.0364,179.1875
20:51:17:579,1.3349,3.5835,11.9484,61.2599,0.2285,-0.0486,-0.0499,178.9531
20:51:17:603,1.3636,2.9515,12.9623,60.1045,0.1406,0.0047,-0.1303,178.9062
20:51:17:621,1.5683,2.2966,13.5872,61.0623,0.0562,0.1938,-0.2139,178.8906
20:51:17:639,0.9602,2.2452,13.1934,60.6632,-0.1185,0.4244,-0.3228,178.9844
20:51:17:659,-0.1328,2.3852,14.2384,60.9744,-0.314,0.4668,-0.3037,179.1562
20:51:17:679,-0.4548,1.7005,15.4224,61.2137,-0.1193,0.5477,-0.2091,179.4219
20:51:17:703,-0.5637,0.7787,13.5477,60.8988,0.351,0.7206,-0.0906,179.6094
20:51:17:720,-0.3902,0.2903,10.4065,59.2367,0.5726,0.7429,0.0295,179.9531
20:51:17:738,0.5436,0.1873,8.1045,59.4228,0.3603,0.475,0.009,180.1562
20:51:17:758,0.959,0.3226,8.0913,60.1396,-0.1633,0.0553,-0.1798,180.1875
20:51:17:778,0.5256,-0.0114,9.9875,59.2716,-0.6424,-0.1463,-0.3561,180.0469
20:51:17:803,0.1845,-0.4363,11.7018,61.2273,-0.7806,-0.0086,-0.3854,179.9688
20:51:17:821,-0.3183,-0.1526,11.7975,59.4106,-0.5832,0.3245,-0.2645,180.1719
20:51:17:838,-0.5135,0.4052,10.2701,59.4106,-0.2498,0.6204,-0.039,180.625
20:51:17:858,-0.4644,0.9403,8.3008,59.6307,0.0312,0.6883,0.1858,181.1094
20:51:17:878,-0.2872,1.2671,6.6249,59.1683,0.2341,0.5208,0.364,181.4531
20:51:17:901,-0.0873,1.4311,5.6337,57.7445,0.3726,0.1794,0.4971,181.3281
20:51:17:920,0.297,1.4395,5.2781,56.9946,0.4437,-0.1873,0.585,180.9531
20:51:17:939,0.5484,1.4527,5.4541,57.8892,0.4629,-0.4547,0.6263,180.4531
20:51:17:959,0.8465,1.5952,5.7079,57.8635,0.4496,-0.586,0.6034,179.8125
20:51:17:979,1.0799,1.6634,5.9102,58.0312,0.3699,-0.6116,0.495,179.125
20:51:18:004,1.0344,1.5975,6.401,56.8542,0.2573,-0.6028,0.3443,178.4375
20:51:18:019,0.8465,1.5305,6.9924,56.5286,0.1694,-0.607,0.2055,177.8438
20:51:18:038,0.6513,1.5509,7.9585,57.199,0.1228,-0.6755,0.0873,177.4062
20:51:18:058,0.5077,1.394,8.9676,56.8325,0.1606,-0.7085,-0.0072,177.1406
20:51:18:078,0.4778,1.2492,9.3303,56.2481,0.1952,-0.655,-0.0792,177.0312
20:51:18:104,0.6082,1.1019,9.8846,56.7798,0.1063,-0.6382,-0.1455,177.0469
20:51:18:123,0.7902,0.6877,11.12,55.3919,-0.0607,-0.615,-0.2339,177.1406
20:51:18:139,0.783,0.3334,12.7205,56.3307,-0.229,-0.4566,-0.2832,177.3125
20:51:18:159,1.5157,-0.1957,13.3861,56.3135,-0.2631,-0.1618,-0.2624,177.7656
20:51:18:178,2.793,-0.6961,12.1052,54.8795,-0.2818,0.035,-0.293,177.9688
20:51:18:199,2.4015,0.0473,10.9536,55.2259,-0.5468,-0.0592,-0.4105,178.3438
20:51:18:221,1.196,0.5692,12.9839,54.4187,-0.8991,-0.4166,-0.5508,178.6562
20:51:18:238,0.1929,-0.2616,16.647,53.7119,-0.8674,-0.358,-0.566,179.0938
20:51:18:258,-0.1244,-1.0744,16.7081,54.6355,-0.3563,0.3208,-0.2645,179.75
20:51:18:280,1.2188,-1.0923,12.8402,52.8579,0.1081,0.8012,0.2117,180.5469
20:51:18:304,3.3197,-0.4244,9.6643,53.454,0.2005,0.5413,0.4905,181.1406
20:51:18:320,4.3169,0.6865,8.8395,53.8727,0.07,-0.0638,0.4063,181.1406
20:51:18:338,3.7399,1.2947,9.5183,51.8477,-0.0354,-0.301,0.0748,180.6406
20:51:18:358,2.5571,0.9894,9.4117,53.5108,0.0003,0.0249,-0.2488,179.8594
20:51:18:378,1.7551,0.8625,7.9046,53.8412,0.0754,0.5935,-0.4062,179.7969
20:51:18:405,1.2283,0.9822,5.7486,52.6871,0.098,1.022,-0.476,180.0625
20:51:18:422,0.5244,1.3665,4.1457,52.6871,0.0618,1.0052,-0.4911,180.4844
20:51:18:492,-0.0585,1.6777,3.6166,53.2757,-0.0237,0.6785,-0.4698,180.9375
20:51:18:493,-0.3315,1.9004,4.1804,52.2379,-0.0839,0.2963,-0.4027,181.4219
20:51:18:493,0.0133,2.007,5.1069,51.9781,-0.0674,0.0657,-0.3207,181.6406
20:51:18:507,0.206,2.39,5.3883,52.9083,-0.0445,-0.0028,-0.3055,182.125
20:51:18:522,0.2838,2.8377,6.0407,53.1189,-0.1143,-0.0776,-0.3463,182.5312
20:51:18:537,0.2419,3.0329,8.0004,52.3007,-0.1286,-0.1737,-0.411,182.875
20:51:18:558,0.1174,3.2172,9.3219,52.2767,0.0469,-0.2795,-0.4858,183.2344
20:51:18:577,-0.3638,3.0951,10.2485,52.0372,0.2075,-0.3586,-0.5364,183.6875
20:51:18:597,-0.96,2.791,11.0422,51.9112,0.2695,-0.2595,-0.497,184.2031
20:51:18:619,-1.4735,2.5038,11.3965,50.623,0.2205,0.0489,-0.3529,185.1094
20:51:18:637,-1.4005,2.402,11.4528,50.9268,0.0783,0.4127,-0.1354,185.6719
20:51:18:658,-1.0533,2.3733,11.5629,53.1033,-0.0772,0.6457,0.0457,186.0625
20:51:18:678,-0.4859,2.1506,11.8813,50.9434,-0.1936,0.7144,0.139,186.1562
20:51:18:705,0.0803,1.5628,12.0669,50.8427,-0.2799,0.6553,0.1342,186.0625
20:51:18:723,-0.3638,1.6406,11.9639,52.0017,-0.4884,0.4838,0.1163,185.8594
20:51:18:738,-1.1527,1.9028,14.2396,51.2929,-0.7862,0.1248,0.1299,185.6719
20:51:18:758,-1.9488,1.4395,17.7783,52.3296,-0.6591,-0.0137,0.1975,185.5312
20:51:18:778,-1.8877,0.1754,18.2822,51.7718,0.0399,0.1943,0.3927,185.3906
20:51:18:802,-1.203,-0.7141,14.1175,52.7458,0.6946,0.5762,0.6412,185.2031
20:51:18:819,0.2156,-0.5417,7.7693,51.3833,0.4397,0.2691,0.7499,184.75
20:51:18:838,-0.3004,-0.1143,8.2517,51.4375,-0.053,-0.0994,0.6812,184.75
20:51:18:858,-0.4261,-0.0629,10.0007,50.0916,-0.2429,-0.3122,0.7097,183.9531
20:51:18:878,-0.2166,-0.0724,9.9408,50.3469,-0.0514,-0.3088,0.7635,182.1406
20:51:18:901,-0.0538,0.1431,8.2242,51.9814,0.1177,-0.1644,0.8556,181.75
20:51:18:920,0.212,0.4771,7.1432,50.1422,0.1388,-0.0848,0.9424,180.1719
20:51:18:939,0.291,0.926,6.4082,50.7774,0.1731,-0.0331,0.9762,178.8125
20:51:18:957,0.3868,1.1367,5.8563,50.0052,0.2186,-0.059,0.9741,178.8125
20:51:18:977,0.5328,1.2001,5.6373,49.931,0.2506,-0.1258,0.9643,177.7344
20:51:18:999,0.728,1.2288,5.5834,50.076,0.2485,-0.1903,0.9414,175.5469
20:51:19:021,0.6274,1.1055,5.994,51.4501,0.2354,-0.2465,0.9177,175.5469
20:51:19:040,0.692,1.151,6.5866,49.6525,0.2565,-0.3173,0.9241,174.4375
20:51:19:058,0.7746,1.2336,6.9708,51.4138,0.2961,-0.374,0.8956,173.3594
20:51:19:078,0.7627,1.3665,7.4341,49.7103,0.2674,-0.3876,0.8372,172.375
20:51:19:098,1.0979,1.6167,7.9237,50.4403,0.1667,-0.3032,0.7496,171.3281
20:51:19:120,1.5659,1.825,8.7641,50.9865,0.0501,-0.2214,0.5637,170.3125
20:51:19:139,1.7251,1.8609,9.4728,49.5106,-0.0333,-0.1373,0.2902,169.4219
20:51:19:157,1.4941,1.5664,10.1539,51.438,-0.155,-0.0611,0.0204,168.5625
20:51:19:178,1.354,1.1319,11.0506,50.4396,-0.3278,-0.0129,-0.1833,167.7344
20:51:19:204,1.2918,0.6949,12.6355,49.6857,-0.4767,-0.0089,-0.3298,167.5938
20:51:19:223,1.706,-0.0281,14.0469,50.5494,-0.4799,0.0835,-0.3907,167.7188
20:51:19:239,2.848,-0.8434,13.5142,52.2801,-0.4357,0.2337,-0.4432,167.8594
20:51:19:258,2.5823,-0.234,12.5888,51.1126,-0.612,0.3134,-0.5378,168.2812
20:51:19:278,2.356,0.3741,13.3813,50.2881,-0.8693,0.3035,-0.7159,168.7344
20:51:19:304,1.4594,-0.0114,14.5174,49.9256,-0.9385,0.5437,-0.9812,169.25
20:51:19:322,0.2324,-0.8745,13.9906,50.2661,-0.7763,1.0194,-1.0078,170.2812
20:51:19:339,0.2527,-1.2312,11.7509,49.1985,-0.5768,1.2993,-0.7362,171.2656
20:51:19:358,1.9274,-1.1606,10.2078,50.9657,-0.4453,0.9339,-0.4336,172.4688
20:51:19:377,3.3269,-0.4483,10.1024,49.2339,-0.3183,0.1869,-0.3457,173.4844
20:51:19:399,3.5076,0.3945,10.9991,49.5759,-0.0461,-0.4683,-0.4922,174.0938
20:51:19:420,2.8241,0.5621,10.7333,49.9293,0.3723,-0.6379,-0.7644,174.5
20:51:19:438,2.0208,0.4495,8.7845,50.3303,0.6378,-0.276,-0.97,174.9531
20:51:19:457,1.5623,0.4735,6.34,48.1589,0.6298,0.2521,-1.0797,175.6719
20:51:19:478,1.1912,0.7739,4.4246,47.3845,0.4178,0.6023,-1.1719,176.6406
20:51:19:503,0.8764,1.0181,3.6046,48.9262,0.1451,0.6223,-1.2552,177.7969
20:51:19:522,0.6801,1.09,4.0355,48.508,-0.024,0.3996,-1.3135,179.0625
20:51:19:538,0.6046,1.0146,4.749,48.9166,-0.0221,0.1565,-1.3615,180.3438
20:51:19:558,0.2659,0.9343,5.0267,48.6803,0.037,-0.0424,-1.4028,181.7812
20:51:19:578,-0.3746,0.9284,5.575,48.3,-0.0072,-0.1847,-1.3897,183.3125
20:51:19:600,-0.7792,1.1438,6.8032,47.2694,-0.11,-0.2105,-1.2973,184.0938
20:51:19:622,-1.033,1.3833,8.3008,48.0536,-0.1611,-0.1325,-1.1956,186.4375
20:51:19:640,-1.0007,1.6251,9.8439,48.0833,-0.0786,-0.093,-1.0861,187.9844
20:51:19:657,-0.5087,2.2224,10.719,47.4626,0.0477,-0.0739,-1.0107,189.4219
20:51:19:677,0.0624,2.791,11.9795,46.0666,0.1526,-0.0262,-1.0589,190.6719
20:51:19:697,-0.0226,2.7144,12.4823,45.9261,0.3318,0.1589,-1.2736,191.8594
20:51:19:721,-1.0665,2.0728,11.843,46.4778,0.4192,0.4087,-1.4454,193.0312
20:51:19:739,-2.0829,1.3761,11.0434,47.0598,0.2818,0.7491,-1.3756,194.2656
20:51:19:757,-2.4073,1.0325,10.8111,48.1392,0.0234,0.9304,-1.1234,195.8438
20:51:19:777,-1.8542,0.6602,10.9428,45.9394,-0.1942,0.8092,-0.856,197.4688
20:51:19:798,-1.5154,0.9691,11.63,45.7957,-0.4187,0.4023,-0.66,198.7969
20:51:19:820,-1.5298,0.9595,14.0505,45.0147,-0.5952,-0.1524,-0.55,199.8438
20:51:19:838,-2.1954,0.234,17.4527,45.0951,-0.3707,-0.5208,-0.4347,200.6562
20:51:19:857,-1.865,-1.0086,18.5145,44.809,0.302,-0.4664,-0.1798,201.3125
20:51:19:877,-0.2872,-1.9423,15.651,43.6898,0.886,-0.0635,0.0838,202.0938
20:51:19:897,1.6665,-1.807,12.4392,42.2131,0.9971,0.0968,0.1358,202.3281
20:51:19:922,2.9222,-0.9427,11.0637,42.2131,0.7587,-0.1149,-0.1133,202.2656
20:51:19:940,2.6577,-0.4411,11.3295,44.1188,0.4511,-0.3274,-0.5324,202.1406
20:51:19:957,1.8305,-0.7775,11.7113,42.7542,0.3611,-0.3096,-0.889,202.2969
20:51:19:977,1.19,-1.3868,10.9392,42.8128,0.5505,-0.1133,-1.0131,202.9375
20:51:19:997,0.5436,-1.4371,8.8347,42.4655,0.776,0.3011,-0.905,203.9375
20:51:20:023,0.1761,-0.8625,6.5064,43.0016,0.8847,0.5,-0.6826,205.125
20:51:20:038,0.0767,-0.0844,4.9597,40.5307,0.873,0.3118,-0.4986,206.1562
20:51:20:058,0.1246,0.5369,4.3181,39.7741,0.7987,-0.1016,-0.4019,206.875
20:51:20:078,0.3126,0.8362,4.4773,41.2971,0.7092,-0.5136,-0.3596,207.4531
20:51:20:098,0.4406,0.9391,4.7837,39.879,0.6293,-0.6723,-0.3495,207.7031
20:51:20:123,0.3784,1.2384,4.8053,39.3156,0.5129,-0.602,-0.3535,208.2031
20:51:20:140,0.4347,1.716,5.0016,39.852,0.3521,-0.5181,-0.3993,208.6875
20:51:20:159,0.2515,2.0477,5.7618,40.1879,0.2133,-0.5037,-0.5228,209.1875
20:51:20:180,-0.3746,2.2009,6.8763,39.7727,0.1782,-0.5325,-0.6384,209.9844
20:51:20:205,-0.5745,2.1841,7.5814,38.7134,0.2645,-0.5556,-0.6802,210.625
20:51:20:222,-0.5494,2.566,8.2589,39.0523,0.3297,-0.5746,-0.6922,211.4375
20:51:20:238,-0.28,2.7121,8.8239,39.5871,0.2248,-0.5482,-0.8635,212.3125
20:51:20:257,-0.2405,2.7324,9.1208,39.621,0.0525,-0.5231,-1.0744,212.3125
20:51:20:277,-0.1639,2.3804,10.4053,39.3829,-0.245,-0.6827,-1.3082,213.1406
20:51:20:298,-0.4452,1.3904,13.5944,37.3554,-0.4775,-0.7463,-1.4651,215.1562
20:51:20:322,-0.3866,0.3286,16.0066,38.5476,-0.3521,-0.3575,-1.391,215.1562
20:51:20:338,0.9494,-0.4387,14.5102,38.0785,-0.0248,0.1584,-1.1735,218
20:51:20:357,2.0855,0.1131,11.8287,39.5595,-0.0096,0.1373,-1.0488,219.8125
20:51:20:379,2.4159,0.9487,12.1878,36.9592,-0.3345,-0.3053,-1.19,222.7188
20:51:20:395,1.6761,0.428,14.7472,38.0584,-0.5308,-0.4262,-1.5087,222.7188
20:51:20:416,-0.0442,-0.9008,15.6833,38.0865,-0.3441,0.1863,-1.5764,223.9062
20:51:20:440,-0.6439,-1.2468,13.0389,37.4994,0.0954,1.0431,-1.1311,225.3125
20:51:20:457,1.4582,-0.7272,9.0478,37.271,0.4876,1.0811,-0.5663,227.1094
20:51:20:476,3.862,0.2592,6.5842,37.2142,0.6133,0.152,-0.3969,228.7969
20:51:20:566,4.6329,1.5604,6.5518,37.0364,0.4594,-1.0345,-0.6805,229.9375
20:51:20:567,3.911,1.9698,8.1655,36.4867,0.1997,-1.6497,-1.2097,230.4531
20:51:20:567,2.9761,1.3701,9.6212,36.7544,0.0471,-1.4699,-1.7042,230.875
20:51:20:568,2.022,0.7189,9.3076,36.8813,0.0181,-0.6917,-2.0353,231.8281
20:51:20:576,0.8716,0.5082,7.4198,36.8222,-0.057,0.1528,-2.1484,233.4844
20:51:20:597,-0.1771,0.9559,6.2801,36.3298,-0.1763,0.4545,-2.0784,236.7656
20:51:20:623,-0.6355,1.4108,6.2873,35.5781,-0.1963,0.3237,-1.9652,239.2344
20:51:20:637,-0.9875,1.7173,6.984,34.0731,-0.0586,0.043,-1.8201,241.6094
20:51:20:657,-1.0928,2.0907,7.154,35.285,0.2083,-0.2185,-1.6483,243.75
20:51:20:677,-1.1994,2.5827,6.8679,34.4032,0.3739,-0.3631,-1.5266,245.8906
20:51:20:696,-1.4795,3.295,6.9601,33.862,0.327,-0.3516,-1.4571,247.8906
20:51:20:720,-1.6603,3.9259,7.543,34.723,0.1553,-0.2347,-1.4672,249.7656
20:51:20:738,-2.1523,3.963,8.5079,33.6456,-0.004,-0.0254,-1.5125,251.4531
20:51:20:756,-2.8861,3.6446,9.4177,34.723,-0.1012,0.2244,-1.4704,253.1719
20:51:20:778,-3.8522,2.9778,10.2473,33.1545,-0.1337,0.4556,-1.2906,254.9062
20:51:20:798,-4.8721,3.4291,10.9237,33.6677,-0.1396,0.7429,-0.9402,256.5312
20:51:20:823,-4.27,2.9395,11.9855,32.5051,-0.0676,0.6742,-0.5383,257.3281
20:51:20:839,-3.6127,2.5109,12.9264,32.0225,0.1289,0.4992,-0.2448,258.7344
20:51:20:859,-2.6347,2.1853,12.9396,34.5664,0.3563,0.3696,0.0335,259.6719
20:51:20:878,-1.264,2.1063,12.0466,32.242,0.4429,0.381,0.1954,260.1562
20:51:20:898,-0.7864,2.5409,11.1786,32.5163,0.3076,0.3112,0.1624,260.375
20:51:20:922,-0.7206,2.7156,12.3075,34.0768,0.053,-0.162,0.0074,260.2031
20:51:20:939,-0.7792,1.7987,15.0154,33.6558,0.0341,-0.6398,-0.2043,259.9531
20:51:20:959,-1.1599,0.5094,15.5481,33.5272,0.4112,-0.4547,-0.2651,259.8438
20:51:20:976,-0.7577,-0.1442,12.4883,35.0008,0.8251,-0.1492,-0.1407,260.0312
20:51:20:997,-0.2058,0.1742,9.2776,33.9015,0.889,-0.2081,-0.0752,260.4375
20:51:21:021,0.0504,0.9056,7.7466,35.0967,0.595,-0.5152,-0.1593,260.7812
20:51:21:040,0.2874,1.3174,8.1344,34.7508,0.1353,-0.8979,-0.3615,260.9844
20:51:21:056,0.6549,1.175,8.8347,35.9667,-0.2591,-1.0252,-0.611,261.2188
20:51:21:076,0.4119,0.7991,8.636,35.421,-0.5361,-0.8081,-0.8339,261.6719
20:51:21:100,0.6202,-0.0557,8.4217,37.3938,-0.6858,-0.3516,-0.9743,262.4219
20:51:21:122,-0.14,-0.2209,7.4401,35.0545,-0.6365,0.2052,-1.1284,263.4062
20:51:21:138,-0.9707,0.6399,6.8439,37.9,-0.584,0.2316,-1.0395,264.4688
20:51:21:156,-1.015,1.2635,7.3982,37.9421,-0.4687,-0.019,-0.8004,265.6562
20:51:21:177,1.0512,0.7464,8.2146,38.3919,-0.2325,-0.2904,-0.7386,266.8594
20:51:21:196,0.795,0.9032,8.9628,39.3464,0.1601,-0.6459,-1.0235,268.2344
20:51:21:221,0.5017,0.738,8.8096,36.4467,0.6541,-1.0963,-1.256,269.1094
20:51:21:239,0.6717,0.8553,8.5714,39.2523,1.0887,-1.419,-1.4733,270.3906
20:51:21:257,0.528,1.2061,8.6911,39.3339,1.4096,-1.3511,-1.6728,271.9531
20:51:21:277,0.0516,1.2959,9.4572,39.0817,1.6418,-0.7027,-1.8595,273.9219
20:51:21:298,-0.1986,1.3988,9.7972,39.2195,1.869,0.4944,-1.9428,276.125
20:51:21:324,-0.4572,2.1063,9.6727,40.5856,2.0514,2.1557,-1.9026,278.3281
20:51:21:338,-1.6543,3.0724,9.0107,40.0968,2.1545,4.0865,-1.7607,279.4688
20:51:21:358,-6.7396,3.9929,5.2123,40.617,1.9931,3.457,-1.1463,281.4844
20:51:21:376,-6.5002,3.5584,0.5819,42.8124,0.9502,1.0697,-0.1463,283.0312
20:51:21:398,-3.5661,2.821,5.7282,41.8133,-0.2858,0.5067,0.2892,283.875
20:51:21:422,-2.4097,3.6434,8.4289,40.8625,-0.8501,-0.3551,0.2766,284.3438
20:51:21:439,-1.0641,3.7176,10.7681,42.0928,-1.232,-0.5218,0.1901,283.9219
20:51:21:456,0.2826,3.1993,13.1694,43.4756,-1.3787,-0.4305,0.1398,283.4844
20:51:21:480,0.364,2.9215,14.7221,44.7923,-1.2216,-0.1357,-0.0496,283.0156
20:51:21:496,-0.9205,2.5851,15.3326,44.7923,-0.8607,0.0367,-0.2781,282.7188
20:51:21:518,-2.2516,2.056,14.3941,44.211,-0.4224,0.4103,-0.3271,282.5938
20:51:21:539,-2.5413,1.7723,12.3913,45.023,0.0168,0.8159,-0.1114,282.7656
20:51:21:557,-2.0733,2.1159,10.0929,44.7195,0.3787,0.9192,0.2125,282.9688
20:51:21:576,-1.1024,2.6977,8.1907,44.9628,0.5771,0.613,0.4101,282.9062
20:51:21:597,-0.5075,3.2771,7.3168,45.654,0.5454,-0.0502,0.3291,282.5469
20:51:21:622,-0.4656,2.9,7.822,44.6669,-0.0208,-0.7586,-0.3332,282.0469
20:51:21:639,-1.1455,2.4714,7.9034,44.9303,-0.2754,-0.41,-0.4744,282.0469
20:51:21:660,-1.5693,2.3565,7.6676,44.9498,-0.3611,-0.002,-0.4097,281.7969
20:51:21:676,-1.6351,2.463,7.4485,46.832,-0.2634,0.2327,-0.3258,281.9844
20:51:21:696,-1.3107,2.5468,7.221,47.7228,-0.069,0.3424,-0.3306,282.5469
20:51:21:721,-1.3011,2.5229,6.9577,48.5524,0.143,0.5256,-0.3892,283.1406
20:51:21:740,-1.5142,2.5923,6.2322,46.1529,0.2967,0.7645,-0.4243,283.7969
20:51:21:755,-1.7608,2.7623,5.3356,46.9254,0.3337,0.9099,-0.4445,284.25
20:51:21:778,-2.1798,3.0053,5.0543,48.8847,0.2495,0.7437,-0.4507,284.7812
20:51:21:801,-2.6575,3.1957,5.7749,48.431,0.0975,0.4641,-0.4683,284.7812
20:51:21:821,-2.9831,3.0951,6.759,49.3989,-0.0296,0.3016,-0.4853,285.3281
20:51:21:838,-3.1866,2.9802,7.4904,49.9033,-0.1079,0.2191,-0.4592,285.5469
20:51:21:863,-3.3278,3.1203,8.0782,51.1496,-0.1627,0.3605,-0.3884,285.9688
20:51:21:875,-3.4691,3.2052,8.1811,49.4552,-0.1838,0.6361,-0.3148,286.4375
20:51:21:896,-3.9252,3.3214,8.1045,50.3142,-0.1667,0.728,-0.2624,286.8906
20:51:21:919,-4.4124,3.3513,8.3236,50.2629,-0.1345,0.6375,-0.2193,287.1875
20:51:21:938,-4.8182,3.1873,8.9053,50.9756,-0.065,0.4239,-0.1897,287.3594
20:51:21:956,-5.1342,2.8916,9.4752,49.9633,0.0157,0.1384,-0.1505,287.4531
20:51:21:975,-5.0277,2.5049,9.6619,51.4202,0.0333,-0.0086,-0.0885,287.5156
20:51:21:996,-4.902,2.1721,9.8259,51.4202,-0.0807,-0.2558,-0.0613,287.625
20:51:22:023,-5.1175,1.5509,10.9033,52.6604,-0.3092,-0.5903,-0.1063,287.7656
20:51:22:038,-5.8884,0.2352,12.3997,50.3234,-0.4487,-0.6819,-0.0291,287.9688
20:51:22:055,-6.1949,-0.6027,12.8007,51.7896,-0.323,-0.4078,0.3914,288.0469
20:51:22:076,-5.3952,-0.5632,8.8706,52.1431,-0.1673,0.3589,0.9262,288.1875
20:51:22:096,-4.8063,0.1969,6.6141,52.9782,-0.6948,0.4225,1.2974,288.0469
20:51:22:120,-3.3817,0.7344,6.9421,52.2232,-1.2008,-0.4313,1.3451,287.2812
20:51:22:137,-2.7245,1.2181,8.6097,51.9728,-1.5774,-1.1133,1.1166,285.75
20:51:22:156,-2.4982,1.2025,9.468,53.5837,-1.7683,-1.4901,0.8476,283.9219
20:51:22:179,-2.2863,0.6698,9.4297,53.8862,-1.9295,-1.6617,0.7203,282.2812
20:51:22:195,-1.9308,0.2041,9.0849,53.7714,-2.061,-1.5687,0.7957,281.0781
20:51:22:215,-1.4879,0.1754,8.7773,54.36,-2.0307,-1.4278,0.9115,280.0938
20:51:22:236,-1.713,0.2472,9.0035,53.8116,-1.8051,-1.4438,0.989,279.1094
20:51:22:255,-1.7716,0.2604,9.1807,53.1123,-1.4368,-1.3367,1.0274,278.0156
20:51:22:277,-1.5956,0.1909,9.2034,54.3454,-0.9952,-1.0987,0.9997,276.7656
20:51:22:297,-1.2688,0.2376,9.219,54.6986,-0.5236,-0.8337,0.9193,275.5312
20:51:22:321,-0.8798,0.2759,8.8599,55.4366,-0.0631,-0.4574,0.8143,274.375
20:51:22:341,-0.9312,0.4447,8.4983,53.9754,0.3681,-0.3104,0.7438,273.7969
20:51:22:356,-1.1443,0.6267,7.913,53.9598,0.6525,-0.5538,0.7805,272.2812
20:51:22:378,-0.8857,1.1271,8.1715,55.3774,0.7486,-1.0553,0.903,271.4375
20:51:22:395,-0.3782,1.5628,8.5163,56.1544,0.6429,-0.8784,0.882,270.7031
20:51:22:415,0.0767,2.1123,8.6635,55.0786,0.3649,-0.2606,0.7757,269.8438
20:51:22:438,0.1797,2.0141,8.4924,56.1518,0.0021,0.1781,0.6167,268.9531
20:51:22:456,-0.3447,1.6574,8.7521,55.8216,-0.3574,0.202,0.4146,268.125
20:51:22:475,-0.802,1.3904,9.7936,56.2199,-0.6117,-0.125,0.2559,267.3281
20:51:22:495,-0.7134,0.8661,12.025,55.1734,-0.6767,-0.4299,0.1949,266.7031
20:51:22:515,-0.4668,0.1131,14.1091,55.8573,-0.4788,-0.3253,0.1981,266.3281
20:51:22:541,0.0181,-0.7105,14.3941,55.036,-0.0671,0.0859,0.2873,266.0625
20:51:22:556,0.5472,-0.7835,13.0114,55.9697,0.3731,0.4944,0.4173,265.8594
20:51:22:626,1.0284,-0.3059,12.0154,56.7925,0.7079,0.5706,0.4721,265.5938
20:51:22:627,1.1757,0.0928,11.7281,56.7953,0.9212,0.1557,0.336,265.1875
20:51:22:627,1.2451,0.0844,11.5797,57.0579,1.0022,-0.3924,0.0396,264.6406
20:51:22:640,1.0679,-0.2819,11.2349,55.435,0.931,-0.2742,-0.2081,264.0156
20:51:22:656,0.8273,-0.4172,9.8858,55.2199,0.7329,0.1586,-0.2869,264.0625
20:51:22:675,0.9327,-0.3681,8.3307,55.4048,0.4187,0.2817,-0.273,264.375
20:51:22:695,1.4271,-0.2999,7.8998,54.4258,0.0461,0.0359,-0.2765,264.7188
20:51:22:715,1.3433,-0.0569,8.982,54.7377,-0.2437,-0.4076,-0.3364,265
20:51:22:736,0.9075,0.1167,10.1791,55.4022,-0.3318,-0.6126,-0.394,265.3125
20:51:22:757,0.4574,0.1802,10.0186,54.2583,-0.2448,-0.3021,-0.4187,265.75
20:51:22:776,0.0851,0.4543,8.6252,55.0135,-0.1001,0.2047,-0.3857,266.2344
20:51:22:796,0.2276,0.8063,7.1971,54.5265,0.0266,0.4904,-0.3612,266.75
20:51:22:822,0.0971,1.0983,6.2358,57.0306,0.0975,0.5088,-0.4003,266.9688
20:51:22:839,-0.3123,1.3581,6.1724,54.0209,0.1691,0.2809,-0.4145,267.3281
20:51:22:855,-0.4991,1.5796,6.3651,54.5284,0.2618,0.2217,-0.3873,267.6719
20:51:22:876,-0.4572,1.8801,6.3759,55.0008,0.3193,0.2971,-0.3687,268.1094
20:51:22:895,-0.383,2.1949,6.4154,54.0369,0.3076,0.3363,-0.4083,268.5469
20:51:22:916,-0.5087,2.256,6.9876,53.3155,0.2368,0.2268,-0.4909,268.9531
20:51:22:939,-0.8307,2.2907,7.9884,53.9308,0.1806,0.0915,-0.5497,269.5781
20:51:22:959,-1.1719,2.1578,9.0933,54.3962,0.1928,0.0905,-0.5298,270.1406
20:51:22:975,-1.4615,2.0728,9.5638,55.4754,0.2583,0.2287,-0.4568,270.7344
20:51:22:995,-1.7453,2.074,9.5889,54.3513,0.2948,0.3876,-0.3564,271.3438
20:51:23:016,-2.0529,2.2452,10.0869,53.8045,0.2711,0.4415,-0.2312,271.8594
20:51:23:041,-2.1618,2.1123,10.7585,54.2087,0.2405,0.25,-0.024,272.2344
20:51:23:055,-2.4013,1.977,11.0338,53.952,0.2735,0.2303,0.0601,272.4375
20:51:23:075,-1.8542,1.588,11.3702,55.8154,0.2448,0.1962,0.1054,272.4375
20:51:23:095,-1.5789,1.333,12.9875,54.4156,0.1321,-0.1277,-0.0067,272.5312
20:51:23:114,-2.424,0.5549,14.4443,54.2524,0.024,-0.2837,-0.1066,272.5469
20:51:23:140,-3.4727,-0.398,14.2564,54.918,0.0051,0.013,0.0473,272.4688
20:51:23:156,-3.7648,-0.811,12.1184,52.4644,0.0176,0.5621,0.4519,272.5469
20:51:23:175,-3.4332,-0.4423,9.7086,52.7135,-0.0264,0.8151,0.874,272.5
20:51:23:195,-2.5186,0.3154,8.6444,50.4794,-0.0945,0.5557,1.0703,272.2656
20:51:23:216,-1.276,0.568,9.0825,54.3292,-0.1052,0.0263,0.874,271.375
20:51:23:241,-0.6894,0.5094,9.9576,54.3106,-0.0546,-0.1338,0.4063,270.1406
20:51:23:255,-1.1862,-0.0592,9.8978,53.073,-0.0019,0.2209,-0.0115,269.4844
20:51:23:280,-2.7616,0.0006,8.2314,54.2522,0.1087,0.5251,-0.0927,268.4531
20:51:23:294,-3.444,0.4304,6.5997,53.4705,0.1755,0.3634,0.2037,268.0156
20:51:23:314,-2.4899,1.0612,6.2562,51.4127,0.1183,-0.2297,0.4929,267.9844
20:51:23:335,-1.2999,1.7412,6.595,51.1193,-0.0152,-0.463,0.4711,268.0156
20:51:23:354,-1.009,1.5461,7.1791,52.7938,-0.1555,-0.4552,0.2468,267.7344
20:51:23:376,-2.0002,1.4467,7.1109,52.0319,-0.3332,-0.2464,0.1126,267.2344
20:51:23:394,-2.2469,1.4587,6.8475,53.4413,-0.5385,-0.1756,0.1187,266.7969
20:51:23:414,-2.1954,1.7807,7.0786,53.45,-0.698,-0.3373,0.2103,266.5781
20:51:23:435,-1.4592,2.1865,7.6257,50.9666,-0.7822,-0.6015,0.2476,266.4688
20:51:23:454,-0.3291,2.3457,7.9824,52.0525,-0.7902,-0.7948,0.0761,266.3125
20:51:23:474,0.127,2.0907,8.0674,52.8811,-0.7723,-1.0334,-0.3122,265.9062
20:51:23:494,-0.1459,1.8609,8.8766,52.9363,-0.7316,-1.5189,-0.7628,265.7344
20:51:23:514,-1.5597,1.1199,11.2313,52.4866,-0.5872,-2.1045,-0.9471,265.9062
20:51:23:535,-3.1004,0.4986,13.1718,51.8115,-0.5728,-1.7019,-0.2573,266.6406
20:51:23:556,-3.9659,0.3035,14.1666,51.6288,-0.4993,-0.2209,0.8106,267.8906
20:51:23:575,-0.5817,-0.1754,14.4827,51.685,-0.3252,0.8495,1.5374,268.8906
20:51:23:596,1.7886,-0.398,14.1834,53.3618,0.0402,0.7293,1.4295,268.6875
20:51:23:618,1.7036,-0.7572,12.6439,51.3177,0.4314,0.3885,1.0103,267.1719
20:51:23:635,1.8257,-1.2959,11.3462,51.668,0.6336,0.1336,0.6945,265.375
20:51:23:656,1.4163,-0.6303,12.1399,50.541,0.7191,-0.2811,0.4338,263.9375
20:51:23:674,0.3353,0.1119,13.3789,51.1861,0.7944,-0.7434,0.2415,262.9531
20:51:23:695,0.71,-0.2352,12.5038,51.7753,0.84,-1.1711,0.2146,262.3281
20:51:23:715,1.4223,-0.6853,10.2174,51.5107,0.6903,-1.2012,0.279,262.0781
20:51:23:736,1.6533,-1.0253,9.0179,50.5967,0.3334,-0.6438,0.3781,261.9688
20:51:23:755,2.0591,-1.0098,8.4002,50.3848,-0.032,0.0236,0.409,261.875
20:51:23:774,2.4099,-0.7428,8.053,52.379,-0.3872,0.5171,0.3174,261.7812
20:51:23:796,2.1752,-0.4028,8.1667,51.8813,-0.6575,0.7387,0.2058,261.2344
20:51:23:820,1.7455,-0.155,8.2194,49.8608,-0.8213,0.8548,0.1182,260.7656
20:51:23:838,1.2044,0.1275,8.1368,51.511,-0.9156,1.0487,0.07,260.375
20:51:23:854,0.5795,0.5764,8.2422,48.8046,-0.8844,1.2292,0.0868,260.1094
20:51:23:876,0.3197,0.7943,7.9824,50.222,-0.7039,1.1315,0.12,259.875
20:51:23:894,0.3521,1.0086,7.7262,51.5284,-0.4682,0.8276,0.0764,259.6562
20:51:23:915,-0.0023,1.1163,7.5466,51.2658,-0.2418,0.6281,-0.0025,259.3906
20:51:23:942,-0.4691,0.8996,7.0858,51.0382,-0.0631,0.6156,-0.0176,259.1406
20:51:23:958,-0.9863,1.0146,6.6752,48.6623,0.0458,0.7325,0.0521,259.0156
20:51:23:976,-1.0845,1.3318,7.336,50.4732,0.139,1.1922,0.1264,258.9688
20:51:23:994,-0.5996,1.4479,7.0666,48.9496,0.294,1.5866,0.0684,258.9062
20:51:24:015,-1.1324,2.0369,6.3495,49.692,0.1843,0.7538,0.0223,258.7031
20:51:24:037,-0.875,2.2104,7.3192,48.0222,0.0107,-0.0611,-0.0304,258.4531
20:51:24:055,-0.4967,1.9495,9.2836,49.2088,0.0376,-0.3719,-0.2334,258.3125
20:51:24:077,-1.0126,1.9866,11.4648,49.2088,0.318,-0.5255,-0.4291,258.3281
20:51:24:094,-1.27,1.8944,12.0693,48.4479,0.7342,-0.3343,-0.4629,258.6406
20:51:24:114,-1.4232,1.807,11.5126,49.907,1.0136,0.1147,-0.3841,259.1875
20:51:24:139,-1.7548,1.8489,10.7046,50.0786,1.0634,0.4292,-0.2459,259.8281
20:51:24:155,-2.2325,1.7197,10.1312,49.0848,0.9017,0.4673,-0.088,260.3438
20:51:24:180,-2.6802,1.8501,10.1108,47.882,0.6437,0.4369,0.1219,260.6562
20:51:24:195,-2.1583,1.9112,10.2664,47.7802,0.4123,0.4433,0.3142,260.7812
20:51:24:215,-1.6124,1.9459,10.9596,49.1064,0.2525,0.1488,0.3078,260.6406
20:51:24:238,-1.7249,1.7544,11.9101,46.9422,0.2005,-0.2741,0.1331,260.2969
20:51:24:257,-2.3642,1.6059,13.2879,48.0398,0.3201,-0.7389,-0.0038,259.9375
20:51:24:274,-2.1487,0.5609,13.2101,49.7113,0.6155,-0.8576,-0.1516,259.8594
20:51:24:295,-2.6371,0.3346,12.4033,49.3628,0.9281,-0.7005,-0.2137,259.9219
20:51:24:319,-1.5717,0.7165,11.2086,47.9621,1.1401,-0.5969,-0.1244,260.1719
20:51:24:334,-1.3083,0.7763,10.0043,47.6268,1.1806,-0.7762,-0.235,260.625
20:51:24:355,-0.8415,0.5237,8.9892,48.1978,1.0248,-1.0691,-0.3623,261.0156
20:51:24:373,-0.79,0.5716,8.3906,45.8666,0.7697,-1.0321,-0.3303,261.6875
20:51:24:394,-1.185,0.8386,7.5933,48.0862,0.5222,-0.6592,-0.1178,262.4062
20:51:24:414,-0.6188,1.4647,6.1472,45.6163,0.1579,-0.0076,0.4804,263.0781
20:51:24:438,0.0025,1.6322,5.6265,47.3165,-0.0144,0.0774,0.4953,263.0781
20:51:24:454,-0.4991,2.0034,5.7163,46.4611,-0.1766,-0.0076,0.4151,263.375
20:51:24:474,-0.7744,2.0405,6.0922,46.576,-0.2855,-0.1263,0.3978,263.2188
20:51:24:494,-0.6116,2.0393,6.492,46.1701,-0.3252,-0.1676,0.4191,262.0938
20:51:24:516,-0.3626,2.2907,6.8451,45.5039,-0.3052,-0.1649,0.4236,262.0938
20:51:24:540,-0.1519,2.5708,7.1468,45.5005,-0.2474,-0.1255,0.3696,261.2031
20:51:24:556,-0.1735,2.9694,7.2007,44.8449,-0.2077,-0.0251,0.3089,260.75
20:51:24:575,-0.1471,3.3537,7.4162,45.0162,-0.1976,0.0257,0.2764,260.3125
20:51:24:595,-0.2609,3.6925,7.8758,44.9373,-0.1864,-0.0118,0.2159,259.5625
20:51:24:615,-0.5051,3.8517,8.2266,43.8796,-0.1531,-0.0776,0.1259,259.25
20:51:24:641,-0.6882,3.902,8.4612,46.2758,-0.1558,-0.1426,0.0346,259.1094
20:51:24:722,-0.7457,3.7308,9.0694,44.4945,-0.2538,-0.2275,-0.0224,258.8438
20:51:24:723,-0.3375,3.4004,10.956,46.3146,-0.3358,-0.3623,0.0098,258.8438
20:51:24:723,0.4562,2.876,12.5924,45.2837,-0.2122,-0.4065,0.0545,258.8906
20:51:24:723,0.7567,2.3517,13.2592,43.6388,0.029,-0.3887,0.0729,258.9219
20:51:24:736,1.275,1.6107,12.4332,44.9901,0.1734,-0.088,0.2175,258.9844
20:51:24:757,2.3967,1.0672,11.1296,43.4725,0.0932,0.2015,0.4157,259.0156
20:51:24:778,3.5771,0.8362,9.7206,44.2173,-0.1832,0.3022,0.4202,259.0156
20:51:24:794,3.5028,0.7213,10.1958,43.4751,-0.5739,-0.0153,0.1605,258.7812
20:51:24:819,2.3895,0.2664,12.2668,42.8572,-0.8248,-0.3269,-0.1572,258.2656
20:51:24:839,1.1769,-0.5956,13.7967,44.1035,-0.7633,-0.2305,-0.3055,257.7344
20:51:24:856,0.4538,-0.7859,13.1048,44.8617,-0.514,0.1458,-0.2395,257.5625
20:51:24:875,0.5532,-0.1861,11.4552,44.3478,-0.3092,0.3368,-0.146,257.7969
20:51:24:895,0.6525,0.6279,10.3419,45.3278,-0.2597,0.034,-0.2105,258.3281
20:51:24:914,0.4083,1.1821,10.361,43.0516,-0.2477,-0.431,-0.2981,258.4844
20:51:24:939,0.4945,1.6526,10.1084,45.4654,-0.1478,-0.5831,-0.3279,258.625
20:51:24:959,0.4754,1.9208,9.2381,43.9589,-0.0429,-0.4475,-0.3599,258.9531
20:51:24:976,0.6106,2.3314,8.7114,45.34,0.0786,-0.2483,-0.3617,259.3906
20:51:24:994,0.9027,2.2739,7.5347,43.3971,0.2107,0.1051,-0.4081,259.875
20:51:25:014,0.807,2.3685,6.3819,43.6033,0.2176,0.2931,-0.5063,260.3438
20:51:25:039,0.6071,2.481,6.3316,44.3534,0.1614,0.287,-0.5492,260.7656
20:51:25:055,0.7088,2.4966,7.1025,44.6931,0.2594,0.332,-0.5577,261.25
20:51:25:074,0.9159,2.3469,6.8727,42.6513,0.588,0.5078,-0.5551,261.8125
20:51:25:094,0.7435,2.007,5.1177,44.3525,0.8493,0.6391,-0.5668,262.375
20:51:25:115,0.6621,2.2045,3.662,46.3136,0.7745,0.4721,-0.5644,262.9375
20:51:25:141,0.3676,2.5181,3.777,45.633,0.4581,0.0854,-0.6006,263.4844
20:51:25:158,0.3509,2.3637,5.1297,46.725,0.0005,-0.1072,-0.6211,264.0312
20:51:25:177,-0.031,2.3828,7.5526,44.1787,-0.5105,0.0106,-0.5979,264.6406
20:51:25:194,-0.3447,2.5361,11.0781,44.3226,-0.8029,0.3456,-0.5223,265.7188
20:51:25:214,-0.4428,2.9563,12.7828,43.9444,-0.7065,0.8455,-0.4802,266.0625
20:51:25:240,-1.0605,3.2064,12.5589,44.8302,-0.4679,1.07,-0.5034,266.625
20:51:25:256,-2.2445,3.1849,12.1686,45.3266,-0.2882,0.9331,-0.4392,267.0312
20:51:25:278,-2.9053,3.2663,12.3183,45.4771,-0.155,0.5618,-0.2294,267.375
20:51:25:293,-2.4073,3.4758,12.2105,45.3389,-0.07,0.2729,0.0268,267.7344
20:51:25:313,-1.8793,3.6649,12.7217,44.5082,-0.1249,-0.0779,0.1547,267.9531
20:51:25:339,-1.871,3.3681,14.5593,43.6228,-0.1545,-0.455,0.1491,268
20:51:25:356,-2.0409,2.244,16.0101,45.0385,0.053,-0.5389,0.0971,267.8281
20:51:25:379,-2.6216,1.1965,14.7771,45.7358,0.4301,-0.2105,0.0971,267.6875
20:51:25:394,-3.1171,0.7608,11.6216,45.3244,0.5617,0.2739,0.1736,267.6406
20:51:25:414,-3.2979,0.6183,9.0418,46.6246,0.347,0.4391,0.2836,267.5938
20:51:25:439,-3.25,0.3238,8.1572,45.0402,0.0035,0.1698,0.3928,267.4062
20:51:25:455,-3.1387,-0.1012,8.6216,44.9618,-0.2312,-0.3287,0.4929,267.0312
20:51:25:480,-2.9244,-0.4064,9.377,46.6384,-0.2674,-0.7096,0.6343,266.5469
20:51:25:494,-2.5042,-0.4423,9.4297,47.5094,-0.1734,-0.7029,0.8279,266.0469
20:51:25:515,-1.9512,0.0401,8.5127,46.8544,-0.0368,-0.4936,1.0532,265.75
20:51:25:542,-0.7684,0.6315,7.2007,45.9971,0.0413,-0.3716,1.1952,265.0469
20:51:25:561,-0.3889,1.4,6.5171,46.16,0.016,-0.4076,1.1435,264.0781
20:51:25:574,-0.1759,1.7292,6.3974,46.5275,-0.0285,-0.414,1.0657,262.9062
20:51:25:594,-0.0382,1.7268,6.4992,46.8434,-0.0408,-0.3479,0.9672,261.625
20:51:25:617,-0.128,1.746,6.6189,46.8434,-0.0075,-0.2204,0.8977,260.4219
20:51:25:641,-0.0262,1.9447,6.6297,45.407,0.0495,-0.1863,0.862,258.875
20:51:25:654,-0.0274,2.1207,6.7961,47.0952,0.0977,-0.2406,0.8159,257.8906
20:51:25:677,0.06,2.1769,7.3132,46.7831,0.1513,-0.3468,0.78,256.9375
20:51:25:703,0.37,2.2787,7.804,46.2918,0.2325,-0.399,0.7573,256.0938
20:51:25:725,0.8118,2.639,7.9429,47.2073,0.3049,-0.3647,0.6977,254.4688
20:51:25:736,1.858,3.1586,8.3224,47.6013,0.2626,-0.293,0.3161,253.7344
20:51:25:758,1.9849,2.8772,9.292,48.0288,0.0996,-0.2928,0.03,253.1875
20:51:25:776,1.9861,2.2141,10.774,47.8379,-0.1129,-0.3144,-0.2206,252.875
20:51:25:796,1.7599,1.1989,12.4009,48.2792,-0.3249,-0.2329,-0.3572,252.8906
20:51:25:815,1.9191,0.1802,12.9587,49.177,-0.4264,0.0942,-0.2621,252.8906
20:51:25:845,2.9055,-0.3107,11.7305,48.4147,-0.432,0.2737,-0.0949,253.2031
20:51:25:860,3.3831,0.2448,10.5466,47.7627,-0.4903,-0.0853,-0.0549,253.6719
20:51:25:875,3.4729,0.5848,11.4205,48.7792,-0.6344,-0.7575,-0.2219,253.9688
20:51:25:895,2.757,0.0988,13.5262,49.6491,-0.7545,-0.9362,-0.4731,254.0312
20:51:25:914,2.1729,-0.92,14.4371,49.1333,-0.7249,-0.362,-0.57,254.5312
20:51:25:942,1.7251,-0.9224,12.7995,50.3652,-0.5601,0.3815,-0.5268,254.5312
20:51:25:960,2.18,-0.2891,9.7397,50.6733,-0.5246,0.6404,-0.5239,255.2656
20:51:25:982,2.2399,0.5118,8.3954,50.7037,-0.8072,0.3831,-0.7047,255.9844
20:51:25:993,1.384,0.8314,9.8978,50.2849,-1.0988,-0.0057,-0.9484,256.5469
20:51:26:013,0.3892,0.4639,11.7521,50.5467,-0.9774,-0.2116,-1.0896,257.0781
20:51:26:033,-0.3734,0.0317,11.6814,49.9851,-0.5033,-0.1583,-1.0712,257.8125
20:51:26:055,-1.0653,0.0545,9.8858,51.5336,-0.0309,0.1125,-0.8904,258.9219
20:51:26:075,-1.2808,0.5956,7.6723,51.1307,0.2093,0.3171,-0.6454,260.2344
20:51:26:093,-1.1228,1.1067,6.3543,52.1862,0.2162,0.3573,-0.4579,261.4219
20:51:26:114,-0.7122,1.4299,6.1053,51.9855,0.1656,0.3722,-0.3202,262.4375
20:51:26:138,-0.1567,1.7915,6.0132,52.5243,0.1843,0.4071,-0.2379,263.125
20:51:26:158,0.1881,2.39,5.921,51.888,0.2317,0.3608,-0.2318,263.6094
20:51:26:176,0.3999,2.8401,6.0718,51.8881,0.2413,0.1991,-0.2864,263.9062
20:51:26:194,0.3928,3.0484,6.9038,52.8127,0.1822,-0.0243,-0.3716,264.1406
20:51:26:214,0.1869,3.0939,8.5486,54.1008,0.1284,-0.1058,-0.4147,264.8438
20:51:26:239,0.3269,3.0819,9.9145,52.069,0.1936,-0.0307,-0.4216,264.8438
20:51:26:256,0.5233,2.8246,10.689,52.1843,0.3201,0.099,-0.4749,265.3125
20:51:26:275,0.2958,2.4702,10.8614,53.442,0.4045,0.3347,-0.5055,265.7969
20:51:26:294,0.03,2.1075,10.7573,53.9916,0.4671,0.5365,-0.4597,266.2812
20:51:26:314,-0.1507,1.7831,10.2353,51.1866,0.4796,0.6066,-0.3687,266.8281
20:51:26:339,-0.3602,1.7101,9.7613,52.3726,0.3907,0.6012,-0.2328,267.3281
20:51:26:355,-0.7122,1.6442,9.8223,51.5474,0.2551,0.4899,-0.1042,267.7188
20:51:26:375,-0.8031,1.5676,9.2214,53.5964,0.1111,0.3746,0.0106,267.9844
20:51:26:394,-0.523,1.7962,8.6228,54.3827,-0.2871,-0.0435,0.0284,268.1094
20:51:26:415,-0.8067,1.8501,11.8837,54.6508,-0.9438,-0.7413,-0.0448,268.0938
20:51:26:440,-1.3394,0.3286,18.1374,52.2667,-1.1132,-0.8177,-0.0214,268.0156
20:51:26:457,-2.187,-1.2025,19.8756,53.2414,-0.297,-0.0417,0.2213,268.0156
20:51:26:474,-2.8969,-1.3246,14.7077,53.174,0.6993,0.7562,0.6817,268.1406
20:51:26:497,-2.0158,-0.6387,9.0334,55.2044,0.9313,0.7602,1.1091,268.2344
20:51:26:515,-0.3494,0.1694,6.9122,56.0443,0.4669,0.1983,1.234,267.6406
20:51:26:534,0.5807,0.6866,8.1524,53.7866,-0.1212,-0.3889,1.0977,266.5
20:51:26:555,0.5053,0.8493,10.4077,54.1395,-0.3414,-0.6694,0.891,265.125
20:51:26:576,0.2802,0.5226,11.2768,54.1953,-0.1371,-0.6134,0.7323,263.7969
20:51:26:593,-0.1639,0.3538,9.9648,55.3529,0.2016,-0.2808,0.7129,262.7344
20:51:26:617,-0.1591,0.762,7.6807,53.6404,0.3862,0.0995,0.8247,261.9219
20:51:26:640,0.3281,1.4299,5.8073,53.6069,0.3699,0.2857,0.8878,261.2188
20:51:26:659,0.7974,1.9734,5.1656,54.7637,0.2618,0.2098,0.85,260.3594
20:51:26:673,1.2918,2.3637,5.6133,54.3057,0.2109,-0.0124,0.743,259.3281
20:51:26:693,1.5492,2.5217,6.1999,54.6116,0.2748,-0.223,0.577,258.3281
20:51:26:714,1.4977,2.6414,6.7901,53.8146,0.363,-0.3884,0.3914,257.3906
20:51:26:788,1.2822,2.6223,7.5107,53.6194,0.4125,-0.4206,0.2393,256.6562
20:51:26:788,1.0931,2.5492,8.1703,55.4375,0.4202,-0.3599,0.12,256.1562
20:51:26:788,0.6968,2.5073,9.0969,55.8437,0.4067,-0.2262,0.0508,255.875
20:51:26:793,0.5711,2.3828,9.966,54.7555,0.4842,-0.014,0.0378,255.7188
20:51:26:816,0.7184,2.4439,10.0306,55.7066,0.6298,0.205,0.0077,255.7031
20:51:26:842,0.9315,2.6558,9.5087,55.1178,0.7015,0.2257,-0.0901,255.6406
20:51:26:857,1.3325,2.4822,9.134,53.9451,0.6096,0.0494,-0.2701,255.5938
20:51:26:875,1.3983,1.9088,9.5075,55.0543,0.3422,-0.2507,-0.4944,255.625
20:51:26:897,1.1146,0.8374,11.5102,55.569,0.0197,-0.4116,-0.5812,255.9062
20:51:26:913,1.2092,0.0305,13.1491,56.361,-0.0304,-0.133,-0.4323,256.5312
20:51:26:935,2.1142,0.3346,11.7892,55.2631,0.1185,0.1504,-0.2861,256.9062
20:51:26:958,2.0711,1.734,10.8925,53.7203,-0.0157,-0.0563,-0.3857,257.5938
20:51:26:976,2.0196,1.8729,12.5266,55.9323,-0.29,-0.3684,-0.5932,257.9375
20:51:26:993,2.0232,0.6842,14.1271,56.2887,-0.3196,-0.3242,-0.7844,258.2656
20:51:27:015,1.2702,-0.0377,13.6722,54.4047,-0.2011,-0.113,-0.7724,258.875
20:51:27:040,1.39,0.0054,12.6954,56.9646,-0.122,-0.2014,-0.5601,259.7188
20:51:27:060,2.2004,0.5058,12.2644,53.469,-0.0421,-0.4433,-0.4219,260.7031
20:51:27:078,2.6517,1.1163,11.4372,55.3163,0.1041,-0.4941,-0.4728,261.8125
20:51:27:093,2.4626,1.2635,9.7517,54.6975,0.2429,-0.3056,-0.6517,262.3594
20:51:27:114,1.7048,1.1905,7.6077,55.6298,0.2855,0.0111,-0.8033,263
20:51:27:135,0.9745,1.2157,5.6504,54.1543,0.2173,0.2766,-0.8246,263.8125
20:51:27:156,0.6406,1.3809,4.4509,54.2093,0.0961,0.2803,-0.7775,264.6719
20:51:27:174,0.5077,1.6299,4.1936,56.8319,-0.0117,0.038,-0.7511,265.5625
20:51:27:193,0.4526,1.9016,4.6724,55.4962,-0.0541,-0.2092,-0.7463,266.375
20:51:27:213,0.9207,2.463,5.3129,54.6039,-0.02,-0.231,-0.7964,267.1875
20:51:27:233,0.5963,2.9096,5.7199,55.0125,-0.0858,-0.0984,-0.8659,267.1875
20:51:27:256,0.03,3.2759,6.5267,55.145,-0.1587,0.0785,-0.9109,269.0156
20:51:27:275,-0.699,3.4937,7.385,55.2805,-0.1854,0.2699,-0.9047,270.9375
20:51:27:295,-1.2952,3.5237,8.1859,55.4057,-0.2003,0.4707,-0.799,271.9688
20:51:27:313,-1.6866,3.9055,9.2537,55.3382,-0.2091,0.6114,-0.6379,271.9688
20:51:27:335,-1.9572,4.2946,10.0594,53.835,-0.1265,0.6167,-0.5103,272.9375
20:51:27:357,-2.2648,4.3593,10.379,55.4583,0.0133,0.4787,-0.4062,273.7188
20:51:27:375,-2.3606,4.3664,10.4185,55.3259,0.093,0.2742,-0.2794,274.3125
20:51:27:393,-2.2457,4.0444,10.8997,54.1302,0.0839,0.0135,-0.1647,274.75
20:51:27:413,-2.1236,3.5608,11.6754,54.8633,0.0368,-0.0947,-0.0507,275.125
20:51:27:433,-1.604,3.1933,11.5725,54.6842,-0.1435,-0.1152,0.0196,275.375
20:51:27:456,-1.3394,3.0448,13.0006,53.8673,-0.5542,-0.3868,0.0521,275.5625
20:51:27:474,-1.2293,2.2272,16.6566,54.2526,-0.7803,-0.6228,0.0918,275.6406
20:51:27:493,-1.3359,0.732,19.1214,54.2889,-0.3169,-0.3924,0.2042,275.6406
20:51:27:513,-1.8662,-0.2005,16.0508,54.2415,0.5366,0.1978,0.45,275.6406
20:51:27:532,-1.9176,0.0329,10.5011,53.24,0.9457,0.5075,0.7952,275.6094
20:51:27:555,-1.0593,0.4615,7.1097,54.3448,0.6847,0.1615,1.0143,275.4531
20:51:27:575,-0.2788,0.8326,7.1887,54.7263,0.1228,-0.4933,1.1014,273.9531
20:51:27:593,0.3628,1.1055,9.304,52.5796,-0.2495,-0.8872,1.127,273.3594
20:51:27:613,0.9099,1.1378,10.203,53.715,-0.2032,-0.876,1.0764,272.25
20:51:27:633,0.9159,1.0229,9.3136,53.4332,0.0597,-0.6174,1.0077,271.125
20:51:27:659,0.6717,1.0062,7.4916,54.307,0.2541,-0.2323,1.013,270.0469
20:51:27:678,0.473,1.2085,5.8922,54.6182,0.2589,0.0907,1.0937,268.5781
20:51:27:695,0.4442,1.6837,5.0854,54.9059,0.1707,0.2231,1.1792,268.0312
20:51:27:713,0.9027,2.1362,4.9956,55.0984,0.1001,0.1285,1.1763,266.8281
20:51:27:733,1.3385,2.4451,5.3129,53.8202,0.0639,0.001,1.0511,265.4844
20:51:27:755,1.4342,2.6773,5.7031,55.2049,0.0554,-0.1362,0.8873,264.1406
20:51:27:773,1.4187,2.8401,6.5722,52.0035,0.0322,-0.2542,0.7222,262.8438
20:51:27:793,1.1458,2.7348,7.9728,53.779,0.0415,-0.3072,0.585,261.7344
20:51:27:814,0.9518,2.3577,9.6811,53.9876,0.1747,-0.2062,0.5627,260.9062
20:51:27:839,1.0428,2.3278,10.4245,55.2097,0.4301,0.1099,0.6367,260.2188
20:51:27:858,1.4486,2.8725,9.4201,53.7349,0.6336,0.406,0.6625,259.9375
20:51:27:873,1.9191,3.7176,8.2721,54.1241,0.5955,0.3666,0.5193,259.3281
20:51:27:893,2.3859,4.1354,8.3044,54.1765,0.306,0.0247,0.2039,258.5938
20:51:27:916,2.5176,3.635,10.1515,54.1678,-0.0844,-0.3508,-0.1601,257.2969
20:51:27:940,2.3177,2.3613,12.602,54.9089,-0.3321,-0.4398,-0.4027,256.7969
20:51:27:959,1.6653,1.3701,13.9787,55.3466,-0.3377,-0.0821,-0.3687,256.8125
20:51:27:973,2.2303,1.1127,12.7085,54.5188,-0.1747,0.3211,-0.0986,257.2812
20:51:27:998,3.127,1.6981,10.6387,55.2807,-0.1846,0.2436,0.0335,257.875
20:51:28:012,3.9039,2.1027,10.3227,54.4723,-0.4384,-0.2608,-0.0797,258.125
20:51:28:033,3.8643,1.5497,12.0956,52.897,-0.7247,-0.6382,-0.3849,258.0469
20:51:28:058,2.8121,0.4615,13.9356,54.7127,-0.8104,-0.4678,-0.5849,258.0469
20:51:28:077,2.2447,-0.1239,13.6076,54.4586,-0.5995,0.0859,-0.4866,258.4531
20:51:28:094,2.6122,0.0712,11.3259,53.8174,-0.2906,0.4718,-0.2675,259.2031
20:51:28:112,3.4789,0.8781,8.9113,55.6867,-0.0961,0.4545,-0.1708,259.9375
20:51:28:132,3.7925,1.7292,7.5622,55.2258,-0.1007,0.1703,-0.3585,260.3281
20:51:28:156,3.2143,2.0536,7.2905,54.4889,-0.1787,-0.048,-0.681,260.4531
20:51:28:173,2.2387,1.8477,7.0319,55.4762,-0.2386,0.046,-0.933,260.6562
20:51:28:192,1.3085,1.6765,6.3172,54.1489,-0.2839,0.3168,-1.0358,261.25
20:51:28:213,0.5005,1.6933,5.7713,54.66,-0.3523,0.4585,-1.0312,262.7031
20:51:28:232,0.0265,1.8681,6.0802,55.6595,-0.3617,0.4023,-0.9529,263.8438
20:51:28:261,-0.013,2.0022,6.5435,55.6595,-0.2221,0.2638,-0.8581,264.9531
20:51:28:274,-0.0693,2.2236,6.6728,54.8036,0.0165,0.1283,-0.7892,265.9062
20:51:28:293,0.03,2.5289,6.3723,54.9437,0.1976,0.0185,-0.737,266.8594
20:51:28:313,0.1904,2.8401,6.4166,54.4563,0.2051,-0.0845,-0.7045,267.7344
20:51:28:334,0.4706,3.1095,7.33,55.3582,0.0932,-0.1242,-0.6677,268.5781
20:51:28:360,0.6873,3.4387,8.806,54.415,0.0061,-0.1024,-0.635,269.3594
20:51:28:375,0.801,4.0684,10.4137,55.4382,0.0242,-0.0523,-0.5641,269.75
20:51:28:396,1.0572,4.4538,11.3271,54.9921,0.1361,0.092,-0.5039,270.5156
20:51:28:418,0.6777,4.6669,11.46,56.1695,0.253,0.2915,-0.4797,271.2344
20:51:28:441,-0.0298,4.6717,11.2517,54.2753,0.3443,0.3829,-0.3601,271.7969
20:51:28:458,-0.4751,4.7244,11.3786,55.2452,0.4464,0.2492,-0.1452,272.3281
20:51:28:475,-0.5494,4.7208,11.8167,55.3333,0.5931,-0.0038,0.0532,272.7656
20:51:28:492,-0.62,4.5424,12.0944,56.6,0.759,-0.2017,0.1651,272.9844
20:51:28:512,-0.2668,4.2814,11.4576,53.458,0.8043,-0.2853,0.1885,272.9688
20:51:28:533,0.1366,3.9738,11.3714,55.0515,0.5468,-0.4984,0.0772,272.8438
20:51:28:556,-0.0849,3.5309,13.5262,55.1429,0.126,-0.6243,-0.0866,272.7031
20:51:28:575,-0.4416,2.3529,16.3286,55.1896,0.0434,-0.3743,-0.2179,272.75
20:51:28:592,-0.9528,0.8218,16.2424,54.2134,0.4458,0.1647,-0.2717,272.9844
20:51:28:613,-2.4073,-0.1526,9.6164,55.0347,0.9619,0.6945,0.0031,273.3125
20:51:28:633,-2.7161,-0.094,7.6807,54.9913,0.8091,0.4058,0.2236,273.5781
20:51:28:658,-2.0649,-0.1538,6.814,54.6609,0.6221,0.0569,0.5398,273.6406
20:51:28:673,-0.7182,0.1526,6.5375,56.3258,0.5246,-0.2467,0.8737,273.4688
20:51:28:693,0.5604,1.0062,6.1113,55.2418,0.4525,-0.4734,1.0458,273.125
20:51:28:712,1.4295,1.8058,5.8911,54.9224,0.2549,-0.4742,1.0061,272.5
20:51:28:732,2.016,2.1841,5.9413,54.4187,-0.0224,-0.2446,0.8082,271.5781
20:51:28:759,1.8915,2.1123,5.9401,55.1846,-0.2583,0.1064,0.5214,269.5625
20:51:28:780,1.1625,1.8908,5.5798,54.4104,-0.3918,0.3802,0.3046,269.1094
20:51:28:794,0.6394,1.7256,4.9406,55.9217,-0.4634,0.4745,0.221,268.7188
20:51:28:861,0.3497,1.7412,4.5072,57.0285,-0.5529,0.3831,0.2268,268.125
20:51:28:862,0.3784,1.9399,4.7706,56.4479,-0.6597,0.1277,0.2737,267.6719
20:51:28:862,0.6442,2.135,5.6229,55.0676,-0.7289,-0.165,0.3168,267.2812
20:51:28:874,1.1422,2.3804,6.7314,55.0641,-0.7217,-0.4057,0.351,266.9219
20:51:28:891,1.5779,2.6115,8.1033,56.6129,-0.6322,-0.5274,0.332,266.6094
20:51:28:914,1.8568,2.9084,8.8563,53.9944,-0.4895,-0.4331,0.2556,266.2969
20:51:28:931,2.1657,3.1981,8.8048,55.5856,-0.4469,-0.2576,0.0812,266.0156
20:51:28:955,2.1166,3.2065,8.8239,55.5494,-0.6208,-0.1114,-0.1702,265.7969
20:51:28:974,1.8963,2.8054,9.7361,57.2366,-0.9473,-0.0286,-0.4099,265.625
20:51:28:992,1.682,1.9639,11.2289,56.5418,-1.2275,-0.0283,-0.6217,265.5938
20:51:29:013,1.0105,0.6171,13.0641,56.1991,-1.338,-0.0771,-0.681,265.8281
20:51:29:032,1.117,-0.6614,14.2648,56.2822,-1.2277,0.0401,-0.4512,267.1094
20:51:29:058,1.6018,-1.0708,13.7512,57.228,-0.9742,0.1722,-0.1287,267.5312
20:51:29:074,1.9047,-0.908,12.6846,56.5636,-0.7484,-0.108,0.1025,268.2344
20:51:29:091,2.3297,-0.7524,12.3877,56.6419,-0.7153,-0.5511,0.1989,268.5781
20:51:29:112,2.18,-0.5549,13.0892,56.3776,-0.8456,-0.6534,0.2117,268.5781
20:51:29:132,2.2818,-0.3789,14.005,55.7313,-0.8916,-0.2979,0.2516,268.4531
20:51:29:157,2.9582,-0.2089,13.2317,55.6065,-0.746,0.243,0.2804,268.3594
20:51:29:175,4.0272,0.0365,11.0386,54.3757,-0.5891,0.5522,0.1848,268.2031
20:51:29:193,4.2642,0.4866,9.049,56.1522,-0.6037,0.4835,-0.126,267.9375
20:51:29:212,3.3352,0.7632,8.5714,55.5459,-0.735,0.1586,-0.533,267.6406
20:51:29:232,1.6402,0.4866,9.304,57.0445,-0.7308,-0.0976,-0.8406,267.5312
20:51:29:257,0.1905,0.0425,9.4237,55.151,-0.4786,-0.0949,-0.9042,267.9062
20:51:29:277,-0.6727,0.0293,8.2924,56.5666,-0.1651,0.1482,-0.7636,268.6875
20:51:29:292,-0.7625,0.5453,6.5219,55.782,-0.0101,0.3687,-0.5649,269.75
20:51:29:313,-0.4751,1.2372,5.5499,55.1985,-0.041,0.4316,-0.4507,270.75
20:51:29:334,-0.1232,1.7556,5.6133,57.9073,-0.1116,0.345,-0.4451,271.4844
20:51:29:356,0.0181,1.8968,6.2262,55.7983,-0.1137,0.2191,-0.5226,271.9844
20:51:29:373,-0.1878,1.8214,6.7937,55.7625,-0.0341,0.099,-0.5918,272.4531
20:51:29:391,-0.3758,1.7699,7.5598,55.9988,0.0341,-0.0347,-0.6062,272.9844
20:51:29:412,-0.2501,1.7723,8.7725,56.9064,0.069,-0.096,-0.5457,273.5781
20:51:29:432,0.4909,1.8382,10.1539,56.0245,0.1164,-0.0547,-0.4816,274.2656
20:51:29:460,1.2439,1.9339,10.9704,55.1801,0.1859,0.0255,-0.5516,274.9375
20:51:29:480,1.0248,1.8501,11.5462,55.7128,0.2248,0.1416,-0.7191,275.5
20:51:29:494,0.1701,1.3605,11.7389,54.2544,0.2634,0.3384,-0.8131,276.0625
20:51:29:516,-0.4991,0.8027,11.1774,54.4977,0.2914,0.5224,-0.7428,276.7969
20:51:29:531,-0.8522,0.6554,10.7968,57.1947,0.2421,0.5775,-0.5327,277.6719
20:51:29:552,-0.7948,0.6399,11.1188,56.0481,0.1742,0.4886,-0.3018,278.5
20:51:29:575,-0.4955,0.5405,11.5581,56.1485,0.1744,0.3208,-0.1292,279.1875
20:51:29:592,-0.0897,0.3178,11.5438,56.9717,0.1755,0.1988,-0.0352,279.625
20:51:29:613,-0.0849,0.3573,11.12,56.7422,0.0075,0.0622,-0.0107,279.8594
20:51:29:632,-0.6499,0.2113,12.2309,55.9968,-0.3121,-0.215,-0.0073,279.875
20:51:29:658,-1.3873,-0.5297,14.4348,55.9217,-0.4349,-0.3021,0.0673,279.875
20:51:29:676,-2.0397,-1.3737,15.4439,55.3723,-0.1614,-0.1239,0.2908,279.9062
20:51:29:693,-2.1116,-2.0596,13.9954,55.7471,0.2663,0.0835,0.6311,279.8438
20:51:29:712,-1.5154,-2.0931,11.7688,54.4992,0.4863,-0.0052,0.9885,279.5156
20:51:29:733,-0.4165,-1.7484,10.5933,55.4662,0.4464,-0.3301,1.2277,278.8438
20:51:29:756,0.212,-1.0026,10.6747,56.0795,0.3063,-0.5884,1.2945,277.7188
20:51:29:775,0.5831,-0.2675,10.7992,55.2744,0.2344,-0.5615,1.2458,277.0469
20:51:29:792,1.1996,0.4866,10.3718,54.428,0.1963,-0.2614,1.1219,275.6406
20:51:29:811,1.6964,1.3318,9.693,54.1256,0.1555,0.1597,0.955,274.3125
20:51:29:832,1.9382,2.2931,9.2513,55.9401,0.168,0.5166,0.7962,273
20:51:29:855,2.3285,3.0388,9.0287,53.6359,0.3425,0.6678,0.6434,271.7969
20:51:29:875,2.0903,3.2328,8.0973,53.9985,0.6658,0.5783,0.4207,270.7656
20:51:29:891,1.4773,3.0568,6.911,54.8606,0.9191,0.3363,0.2399,269.9062
20:51:29:912,1.3062,2.7384,6.2262,53.6763,1.0125,0.1272,0.176,268.9688
20:51:29:933,1.2786,2.4104,6.1604,51.707,1.0091,-0.063,0.1312,268.6875
20:51:29:957,1.1996,2.1865,6.5973,51.8595,0.9489,-0.2259,0.067,268.4688
20:51:29:974,1.0045,1.6454,7.5059,53.4985,0.8701,-0.2395,-0.0038,268.3438
20:51:29:998,0.3545,1.0792,8.5043,52.4439,0.8615,-0.1085,-0.0096,268.2969
20:51:30:012,0.0504,0.5441,8.2805,53.5048,1.1143,0.1442,0.1491,268.3438
20:51:30:032,0.3461,0.8039,7.1588,52.0085,1.1287,0.0673,0.1789,268.3438
20:51:30:062,0.7974,1.0457,7.0151,51.7566,0.9537,-0.1788,0.0918,268.3906
20:51:30:079,1.1362,1.1283,7.8627,50.3106,0.7135,-0.4861,-0.088,268.1094
20:51:30:095,1.4833,0.5213,8.8419,50.4481,0.4282,-0.9322,-0.3151,267.9062
20:51:30:112,1.2283,-0.8709,10.5753,50.9954,-0.0024,-1.2201,-0.4818,267.8438
20:51:30:132,1.4486,-2.0476,12.511,50.2827,-0.4288,-0.9466,-0.3228,268.0469
20:51:30:156,1.8496,-1.7208,12.9432,50.9801,-0.706,-0.2289,-0.0597,269.4844
20:51:30:173,2.2938,-0.8673,12.0214,49.2832,-0.8796,0.2835,0.0196,269.8438
20:51:30:196,2.1202,-0.7548,11.0446,51.107,-1.0157,0.463,-0.0701,270.0938
20:51:30:211,1.8808,-1.1163,10.2808,48.2749,-1.1055,0.4396,-0.1042,270.2031
20:51:30:231,2.0663,-1.2516,9.468,50.2141,-1.1683,0.3205,-0.0816,270.1719
20:51:30:254,2.3285,-1.0469,8.8156,50.3039,-1.2693,0.0912,-0.1087,270.1875
20:51:30:276,2.2638,-0.7249,8.8551,49.911,-1.44,-0.1359,-0.1987,270.2344
20:51:30:295,2.0627,-0.1598,9.4752,49.6574,-1.5753,-0.1804,-0.2552,270.2812
20:51:30:311,2.1417,0.7859,10.1994,49.9087,-1.5156,-0.0797,-0.2685,270.4062
20:51:30:332,2.3105,1.9004,10.3838,47.2268,-1.1982,0.0374,-0.3165,270.6719
20:51:30:359,2.2973,2.8665,9.802,48.4644,-0.7462,0.0625,-0.4406,271
20:51:30:375,2.0508,3.4231,8.7545,48.4644,-0.3465,0.0015,-0.6195,271.3438
20:51:30:391,1.4223,3.5285,7.8519,48.4572,-0.1438,-0.0102,-0.7985,271.7188
20:51:30:412,0.6932,3.3154,7.2641,49.1006,-0.1204,0.1565,-0.8848,272.2031
20:51:30:431,0.3904,3.2543,7.1169,48.8825,-0.1571,0.4252,-0.8864,272.9219
20:51:30:451,0.3054,3.3429,7.1169,47.4944,-0.1417,0.6122,-0.9114,274.3438
20:51:30:473,0.0648,3.2926,6.9349,48.4977,-0.0533,0.5541,-0.9924,275.2812
20:51:30:492,-0.5577,2.9239,6.9553,47.0394,-0.0053,0.3125,-1.084,276.25
20:51:30:511,-1.2664,2.4487,7.7418,47.0362,-0.0277,0.0633,-1.1013,277.2812
20:51:30:531,-1.8446,1.8789,9.0801,46.8392,-0.0647,-0.0446,-1.0358,278.375
20:51:30:553,-2.448,1.3976,10.5801,46.4849,-0.0525,0.0529,-0.876,279.6094
20:51:30:574,-2.5497,1.1438,11.1978,44.6195,0.0061,0.2801,-0.6552,280.8438
20:51:30:593,-2.3163,0.9559,11.4013,45.0508,0.0107,0.4228,-0.4429,281.9688
20:51:30:610,-2.0601,0.8649,12.2225,45.5651,-0.041,0.4532,-0.2544,282.7812
20:51:30:636,-1.8829,0.7727,13.3693,44.3563,-0.0226,0.4367,-0.0911,283.375
20:51:30:660,-1.1551,0.3502,13.8398,44.6025,0.0868,0.4324,0.0473,283.7344
20:51:30:675,-0.936,0.5824,13.2365,44.7426,0.0959,0.4074,0.1166,283.875
20:51:30:701,-1.0114,0.8924,13.4819,42.9721,-0.0703,0.1336,0.116,283.8594
20:51:30:711,-1.0916,0.3633,14.9747,44.6364,-0.1902,-0.1341,0.0753,283.7188
20:51:30:734,-1.6411,-0.6387,16.5081,42.089,-0.0298,-0.1998,0.1456,283.5625
20:51:30:761,-1.7201,-1.7915,16.1586,40.8868,0.4197,-0.0382,0.392,283.4375
20:51:30:777,-1.0976,-2.1638,13.2377,41.4005,0.8139,0.242,0.7105,283.3594
20:51:30:792,-0.2932,-1.4946,9.96,42.8735,0.8275,0.2921,0.9286,283.0938
20:51:30:811,-0.3518,-0.6901,8.472,42.1423,0.5561,-0.0158,0.9717,282.5
20:51:30:830,-0.6284,-0.4363,9.0694,41.557,0.3111,-0.3903,1.0005,281.5625
20:51:30:852,-0.632,-0.337,10.0079,40.3315,0.3185,-0.4683,1.0668,280.4688
20:51:30:874,-0.5458,-0.0126,9.4345,40.7675,0.5364,-0.3261,1.131,279.4531
20:51:30:933,-0.5697,0.173,7.6747,41.65,0.6946,-0.1572,1.1675,278.3438
20:51:30:934,-0.5853,0.313,6.0275,40.823,0.6786,-0.0494,1.2213,277.1562
20:51:30:934,-0.4237,0.5333,5.2434,42.0124,0.5702,-0.0531,1.2878,275.9375
20:51:30:955,-0.0741,0.75,5.0914,40.5976,0.4943,-0.1439,1.3353,274.6094
20:51:30:976,0.303,0.9583,5.077,39.3303,0.4906,-0.2507,1.3414,273.2031
20:51:30:990,0.643,1.1355,5.1752,41.0294,0.5156,-0.3484,1.2956,271.7188
20:51:31:011,0.8548,1.2911,5.2889,40.8646,0.5159,-0.4036,1.176,269.5469
20:51:31:031,0.8333,1.3952,5.5188,40.7036,0.4517,-0.4134,1.0063,268.125
20:51:31:051,0.9111,1.4096,5.8324,41.5326,0.294,-0.3748,0.7975,266.8438
20:51:31:075,0.9446,1.3473,6.729,40.9547,0.0003,-0.1988,0.5544,265.8281
20:51:31:092,0.7399,1.2959,8.0159,39.221,-0.4139,0.2915,0.2663,264.9688
20:51:31:116,0.3521,1.1223,9.1591,40.2219,-0.833,1.0457,-0.0525,264.375
20:51:31:130,0.206,0.762,9.4656,39.2371,-1.1265,1.6585,-0.3487,264.0469
20:51:31:152,-0.0526,0.0832,9.3902,40.8557,-1.2823,1.6761,-0.603,263.9375
20:51:31:176,-0.863,-0.9858,10.5597,41.0908,-1.3148,1.0761,-0.6866,264.0625
20:51:31:190,-1.6088,-1.9411,13.0677,40.1785,-1.1143,0.308,-0.4861,264.4531
20:51:31:211,-0.717,-2.3445,14.4443,40.7921,-0.6346,-0.1532,-0.0294,264.75
20:51:31:233,1.609,-1.5676,13.2999,41.4341,-0.1784,-0.2435,0.2961,265.3281
20:51:31:261,2.7463,-0.2436,11.7628,40.4987,-0.2037,-0.2164,0.1054,265.5938
20:51:31:277,2.0735,-0.6913,12.1627,40.8051,-0.6426,0.0771,-0.3825,265.4219
20:51:31:290,0.382,-2.1913,12.8678,42.4309,-1.0085,0.7536,-0.5894,265.125
20:51:31:311,-0.456,-2.5768,12.3578,43.1115,-1.0056,1.1898,-0.3654,265.2812
20:51:31:334,0.7112,-2.05,11.2756,40.9046,-0.7198,0.9163,0.0252,266.0781
20:51:31:357,2.4039,-0.9631,10.0234,40.3691,-0.3779,0.2036,0.1704,266.3594
20:51:31:376,2.5021,0.0425,9.4261,42.796,-0.2501,-0.4358,-0.0589,266.2031
20:51:31:392,1.6868,0.3202,9.6895,40.4205,-0.2999,-0.5793,-0.3633,265.9844
20:51:31:413,0.2539,0.3047,8.1524,40.9684,-0.2314,0.0462,-0.6009,266.5
20:51:31:431,-0.0119,0.6818,6.5207,41.2073,-0.1957,0.1826,-0.5948,266.5
20:51:31:453,-0.0897,1.0229,5.7953,41.6065,-0.2112,0.0849,-0.5892,267.1094
20:51:31:478,-0.0993,1.157,5.8384,41.0474,-0.1667,-0.1053,-0.5846,268.4219
20:51:31:493,-0.1902,1.2528,6.1616,41.5945,-0.0333,-0.2784,-0.5591,268.4219
20:51:31:510,-0.0873,1.3916,6.3974,41.0592,0.1369,-0.3663,-0.5218,269.0781
20:51:31:530,0.0672,1.5425,6.6057,42.0319,0.245,-0.3879,-0.5415,269.7031
20:51:31:552,-0.0885,1.5868,7.3958,41.2993,0.2581,-0.3479,-0.5929,270.3594
20:51:31:576,-0.4033,1.5317,8.4265,41.4907,0.2575,-0.2379,-0.6563,271.625
20:51:31:592,-0.7541,1.4431,9.3112,41.105,0.2352,-0.0787,-0.7229,271.9375
20:51:31:611,-1.2988,1.3569,10.3742,40.8543,0.1734,0.096,-0.7758,272.2969
20:51:31:630,-1.8674,0.9319,11.3642,41.1294,0.1246,0.2753,-0.7956,273.4844
20:51:31:652,-2.4288,0.3322,11.9855,41.7593,0.1177,0.4409,-0.7103,273.9062
20:51:31:674,-2.6706,0.0341,12.1866,41.3763,0.1356,0.4947,-0.5042,274.7656
20:51:31:693,-2.4384,-0.0413,12.42,40.5387,0.1427,0.4071,-0.2627,275.6562
20:51:31:710,-1.5573,-0.009,12.5948,41.3687,0.1414,0.2505,-0.0826,276.4688
20:51:31:730,-0.3734,0.0078,12.3722,42.2779,0.0652,0.0537,-0.0725,277
20:51:31:751,-0.0873,0.0305,12.9994,41.5539,-0.1896,-0.362,-0.219,277.2812
20:51:31:774,-0.7253,-0.7655,15.408,41.8928,-0.3936,-0.8249,-0.3657,277.375
20:51:31:792,-2.1631,-2.0081,17.9099,41.4998,-0.1915,-0.9492,-0.2885,277.4531
20:51:31:810,-2.576,-2.9898,17.048,43.0907,0.4269,-0.4973,0.1232,277.7031
20:51:31:830,-1.7357,-2.7072,12.347,41.6451,0.8842,0.1514,0.6111,278.1406
20:51:31:850,-0.608,-1.7316,8.0734,43.4736,0.7412,0.2532,0.9043,278.5
20:51:31:877,0.1881,-0.9307,7.4832,43.2521,0.2597,-0.2275,0.9858,278.1406
20:51:31:894,0.3987,-0.5333,9.2884,41.8094,0.0011,-0.6981,0.9688,277.2656
20:51:31:912,0.2419,-0.4172,10.3455,42.1275,0.1619,-0.8113,0.9419,276.1719
20:51:31:930,-0.0669,-0.3178,9.4189,41.3473,0.4477,-0.5671,1.0007,275.1406
20:51:31:952,-0.1124,0.1861,7.6675,42.9795,0.5731,-0.2731,1.1158,274.125
20:51:31:973,0.2922,0.8218,6.3878,43.8152,0.5425,-0.1602,1.1621,273.0938
20:51:31:990,0.6873,1.3893,5.8911,41.8428,0.4538,-0.1921,1.0761,271.9844
20:51:32:011,0.8572,1.5449,5.9066,44.0385,0.379,-0.2584,0.9012,270.6719
20:51:32:030,0.71,1.3725,6.1903,43.3599,0.3582,-0.2821,0.7214,269.4062
20:51:32:051,0.5173,1.1295,6.4561,42.7214,0.3832,-0.2672,0.6258,268.2812
20:51:32:075,0.6849,1.0325,6.6811,42.9444,0.436,-0.2824,0.6103,267.4375
20:51:32:091,1.4235,1.1666,7.1911,43.1129,0.482,-0.3855,0.5691,266.7031
20:51:32:111,2.2171,1.2109,7.9501,44.0925,0.4906,-0.4768,0.3943,266.0312
20:51:32:131,2.2782,0.829,9.0334,44.5207,0.4384,-0.4907,0.1105,265.4062
20:51:32:152,2.0986,0.0485,10.1599,43.6292,0.3649,-0.3543,-0.1149,264.7031
20:51:32:173,2.3369,-0.72,10.8064,44.386,0.2985,-0.1386,-0.2533,264.6406
20:51:32:192,2.4626,-1.2935,11.2038,45.5178,0.2115,0.059,-0.375,264.6875
20:51:32:210,2.459,-1.6646,11.2349,44.2919,0.1132,0.2446,-0.4493,264.9219
20:51:32:230,2.2207,-1.819,11.0039,46.6108,0.0554,0.4218,-0.4797,265.2812
20:51:32:250,3.2766,-1.9004,9.6356,45.3626,0.0807,0.5171,-0.4581,265.7344
20:51:32:275,4.3983,-1.1738,7.4473,46.3711,-0.0972,0.2329,-0.6826,266.2031
20:51:32:291,3.0024,-0.3358,8.053,45.0481,-0.7353,-0.4702,-1.2132,266.6562
20:51:32:310,1.026,-1.8226,12.1782,46.3451,-1.3398,-0.8076,-1.509,267.1875
20:51:32:330,-0.2082,-3.3297,15.3721,45.8428,-1.3638,-0.284,-1.2882,268.2188
20:51:32:352,-0.6511,-2.6965,14.3845,48.0813,-0.8842,0.3333,-0.7005,269.9688
20:51:32:375,0.2108,-0.8685,11.4396,46.3303,-0.4397,0.3197,-0.1921,271.75
20:51:32:392,0.8465,0.6578,9.7146,45.8314,-0.2264,-0.064,-0.0139,273.1875
20:51:32:410,0.9961,1.3426,8.7581,45.3119,-0.1308,-0.2563,-0.0421,273.375
20:51:32:430,0.7004,1.5939,7.6735,46.0848,-0.0711,-0.1961,-0.0824,273.4062
20:51:32:450,0.5604,1.8477,6.4214,46.5846,-0.0144,-0.0448,-0.0781,273.4688
20:51:32:475,0.7375,2.2057,5.1285,46.5846,0.0011,0.0489,-0.0874,273.5781
20:51:32:492,0.9015,2.645,4.4521,45.6453,-0.0967,0.111,-0.1772,273.6719
20:51:32:511,0.9398,2.9694,4.4593,49.6526,-0.2362,0.1967,-0.3314,273.7812
20:51:32:530,0.6729,3.0209,4.7526,49.607,-0.3321,0.238,-0.5311,273.9531
20:51:32:550,0.1917,2.821,5.2147,48.5034,-0.3883,0.1871,-0.7023,274.125
20:51:32:574,-0.5697,2.5397,6.1137,48.3444,-0.4357,0.0857,-0.7788,274.5938
20:51:32:592,-1.0318,2.0213,7.6436,49.7357,-0.4653,-0.019,-0.725,275.2969
20:51:32:610,-1.2592,1.5796,9.3902,49.9487,-0.4258,-0.035,-0.5881,276.1094
20:51:32:630,-1.5597,1.3031,10.9883,50.2761,-0.3457,0.0353,-0.4179,276.9844
20:51:32:650,-1.6555,1.0277,12.2465,51.9168,-0.2663,0.1879,-0.231,277.75
20:51:32:675,-1.8805,0.513,13.1694,50.0463,-0.2139,0.3613,-0.0448,278.5156
20:51:32:692,-1.8937,-0.0138,13.9248,51.5665,-0.1904,0.4471,0.2724,278.7656
20:51:32:710,-1.118,-0.3466,14.8861,51.1466,-0.1515,0.4654,0.65,278.7969
20:51:32:731,0.3078,-0.592,15.4379,51.0377,0.008,0.4385,0.9656,278.4688
20:51:32:750,1.0787,-0.1454,15.2009,51.7417,0.1201,0.3192,1.0908,277.7031
20:51:32:776,1.0416,0.4364,15.7552,52.813,0.0834,0.1272,1.0412,276.5625
20:51:32:791,0.5723,-0.003,17.0875,52.2291,0.151,-0.0185,0.8777,275.375
20:51:32:811,-0.5087,-2.6342,15.3853,52.4333,0.8996,0.2255,0.7123,274.1719
20:51:32:830,-1.4663,-3.0891,12.0118,51.5707,1.0823,0.4257,0.7174,274.1719
20:51:32:851,-2.2169,-2.9359,9.5805,54.2008,0.8618,0.4047,0.8111,272.3594
20:51:32:879,-2.1858,-2.9658,9.2992,53.7657,0.531,0.2731,0.9645,270.7031
20:51:32:896,-1.6639,-2.7539,9.0945,54.5207,0.4253,0.2518,1.1869,270.7031
20:51:32:913,-0.8331,-2.0333,7.9596,51.1969,0.4847,0.1714,1.4125,268.6875
20:51:32:931,0.2599,-0.9571,6.8942,53.1313,0.4959,-0.0286,1.5534,268.6875
20:51:33:006,1.0763,0.1071,6.4824,53.2413,0.4178,-0.1817,1.5299,266.5312
20:51:33:007,1.4606,0.981,6.425,52.2226,0.3601,-0.2289,1.3685,265.6875
20:51:33:007,1.6796,1.4287,6.1843,52.362,0.3539,-0.1945,1.1118,264.0156
20:51:33:010,1.5983,1.5413,5.763,53.3029,0.3523,-0.1564,0.8346,262.2969
20:51:33:030,1.3816,1.4024,5.6061,54.1118,0.3161,-0.1567,0.6125,260.7656
20:51:33:051,1.1996,1.236,5.8803,53.1645,0.2812,-0.2017,0.4695,259.5156
20:51:33:076,1.3121,1.1402,6.4585,56.144,0.2772,-0.2856,0.385,258.6406
20:51:33:093,1.5935,1.0541,7.0762,55.9645,0.3214,-0.3466,0.3158,257.9531
20:51:33:110,1.7646,0.9511,7.6221,54.171,0.3931,-0.3759,0.2223,257.4531
20:51:33:133,1.7407,0.9571,7.8579,54.8185,0.4424,-0.3282,0.1211,257.0625
20:51:33:149,1.9813,0.9224,7.9106,54.0939,0.4245,-0.2158,0.0154,256.75
20:51:33:170,2.1489,0.817,8.0255,55.1555,0.3316,-0.1042,-0.1151,256.5469
20:51:33:192,1.9981,0.7344,8.369,53.4125,0.1768,-0.0012,-0.2326,256.4531
20:51:33:209,1.7886,0.5405,8.9951,56.2024,0.0123,0.0478,-0.3005,256.4531
20:51:33:235,1.876,0.1718,9.5326,54.7747,-0.1204,-0.0989,-0.3204,256.5938
20:51:33:249,2.0903,-0.1502,10.8375,55.2188,-0.2911,-0.505,-0.3061,257
20:51:33:271,2.6924,-0.4124,13.1443,56.3108,-0.3744,-0.7538,-0.2166,257.3594
20:51:33:293,3.9194,-0.5596,13.8661,54.8359,-0.2285,-0.6174,-0.1924,257.7812
20:51:33:310,4.02,0.1431,11.8323,57.5302,-0.1622,-0.3692,-0.4296,258.2031
20:51:33:330,2.8432,1.0924,10.2246,55.4965,-0.5353,-0.3101,-0.8472,258.5312
20:51:33:351,1.305,0.5297,11.2792,55.9304,-1.0954,-0.1924,-1.2113,258.9375
20:51:33:376,-0.0669,-0.8362,13.1694,54.2259,-1.3313,0.1038,-1.2667,259.7188
20:51:33:394,-0.1842,-1.6454,13.677,57.566,-1.1297,0.2958,-0.9599,260.9531
20:51:33:414,1.1134,-1.3102,12.8019,57.3356,-0.7987,0.1576,-0.5857,262.5
20:51:33:430,2.1944,-0.2448,12.2548,56.9816,-0.5537,-0.0803,-0.4419,263.8281
20:51:33:451,2.1992,0.3932,11.4863,55.8057,-0.3159,-0.1666,-0.5577,264.6562
20:51:33:475,1.5456,0.4627,9.6416,57.3717,-0.1409,0.0726,-0.7268,265.2188
20:51:33:494,0.6669,0.4735,7.4042,57.2386,-0.1167,0.4811,-0.7505,265.5
20:51:33:511,0.2539,0.8757,5.5128,56.3515,-0.1886,0.7506,-0.6379,266.1562
20:51:33:533,0.2802,1.479,4.5443,56.929,-0.2687,0.6572,-0.5417,267.375
20:51:33:550,0.4287,1.8681,4.7179,59.0611,-0.2783,0.2564,-0.5186,268.125
20:51:33:570,0.5556,1.9291,5.5451,56.6747,-0.2122,-0.1567,-0.5402,268.7031
20:51:33:589,0.5939,1.8741,6.1532,58.5388,-0.1393,-0.3644,-0.5713,269.2344
20:51:33:609,0.4801,1.8597,6.31,57.8935,-0.1531,-0.423,-0.6283,269.8281
20:51:33:630,0.3796,1.7879,6.8619,58.2852,-0.2437,-0.4342,-0.6802,270.5
20:51:33:654,0.1797,1.6418,8.1392,59.5462,-0.3172,-0.4089,-0.7135,271.1875
20:51:33:678,0.0887,1.5413,9.5937,59.7512,-0.2677,-0.2595,-0.6866,271.9688
20:51:33:692,-0.1603,1.412,10.3335,58.9492,-0.0953,-0.0259,-0.6478,272.8125
20:51:33:711,-0.9396,0.9906,10.4293,61.2294,0.0775,0.2119,-0.5386,273.6562
20:51:33:729,-2.3031,0.6794,10.7046,59.9871,0.1529,0.5038,-0.2416,274.3906
20:51:33:753,-2.9843,0.6889,10.9272,61.232,0.2333,0.6183,0.2473,275.0938
20:51:33:779,-1.8183,0.9774,10.6112,61.333,0.3534,0.2907,0.675,275.5312
20:51:33:794,-0.5637,1.6981,10.5526,60.4034,0.2847,-0.1234,0.8607,275.5156
20:51:33:809,0.783,1.965,12.1674,60.9753,0.0525,-0.3152,0.8625,274.4688
20:51:33:829,1.6701,1.6215,13.4088,61.765,-0.1396,-0.2427,0.6716,273.5
20:51:33:850,1.4247,1.3773,14.6981,61.0744,-0.4117,-0.2313,0.4721,272.5781
20:51:33:875,1.0631,0.574,17.2659,61.1176,-0.584,-0.1623,0.3904,271.8438
20:51:33:892,0.3964,-0.4495,18.6414,61.0819,-0.29,0.0742,0.4268,271.3281
20:51:33:909,0.479,-1.2791,16.7799,62.0938,0.3321,0.4335,0.5882,270.9219
20:51:33:930,0.6214,-1.4024,12.4787,61.1645,0.8386,0.6082,0.7123,270.4375
20:51:33:951,0.5771,-1.1462,8.5163,61.0003,0.8887,0.3456,0.7667,269.7188
20:51:33:979,0.3509,-0.7033,6.8523,60.9012,0.518,-0.1756,0.7813,268.8438
20:51:33:996,0.1414,-0.3454,8.2769,60.4032,0.069,-0.717,0.7853,268.4375
20:51:34:012,0.4969,-0.252,10.3096,60.4755,-0.0234,-0.8795,0.7917,267.5312
20:51:34:030,0.6645,0.0186,10.2006,60.3816,0.1899,-0.6446,0.764,266.6875
20:51:34:050,0.461,0.4818,8.4062,59.057,0.363,-0.3237,0.7443,265.9062
20:51:34:076,0.3497,0.7799,6.9385,59.7195,0.3835,-0.2025,0.7491,265.0938
20:51:34:091,0.2491,0.7608,6.7338,59.8468,0.3433,-0.2885,0.768,264.2656
20:51:34:109,0.2204,0.5992,7.2964,59.7455,0.3702,-0.3397,0.8407,263.0312
20:51:34:129,0.4825,0.4591,7.7885,59.0416,0.5076,-0.2773,0.9691,262.1719
20:51:34:150,1.3253,0.5273,7.6664,58.1394,0.7183,-0.1658,1.0934,261.2188
20:51:34:175,1.9729,0.9212,6.729,57.7586,0.8935,-0.0984,1.0894,260.125
20:51:34:193,2.5056,1.3545,5.8934,58.6539,0.9276,-0.2337,0.9424,258.9062
20:51:34:210,2.7702,1.3785,6.9313,58.4408,0.6479,-0.5162,0.3427,257.6094
20:51:34:230,2.5751,0.9667,7.7059,59.7374,0.5182,-0.3498,0.0465,257.6094
20:51:34:252,2.4721,0.5884,7.8208,57.5045,0.3449,-0.0691,-0.1985,255.7656
20:51:34:275,2.5344,0.2364,7.9393,58.6603,0.0698,0.1562,-0.395,255.3594
20:51:34:293,2.7044,-0.234,8.9089,58.467,-0.278,0.2044,-0.5796,255.3594
20:51:34:310,2.368,-0.8003,10.8207,58.831,-0.5369,0.2292,-0.7236,255.5469
20:51:34:329,2.0651,-1.5137,12.3327,58.8387,-0.5606,0.2737,-0.7455,255.9688
20:51:34:350,2.3991,-1.9722,12.0466,58.5991,-0.4554,0.3189,-0.6714,257.4531
20:51:34:374,2.4518,-1.3006,11.2696,56.733,-0.5193,0.1759,-0.6382,257.8438
20:51:34:393,2.3548,-0.5537,12.5194,56.7304,-0.7859,-0.0677,-0.7764,258.2656
20:51:34:414,1.7694,-1.1522,14.8382,57.728,-0.9332,0.0779,-1.0065,259.0156
20:51:34:429,0.9494,-2.4475,15.3493,57.2731,-0.7707,0.602,-0.9697,260.1875
20:51:34:448,1.0524,-2.5277,13.5741,57.5947,-0.452,0.9485,-0.566,260.6562
20:51:34:470,2.5894,-1.327,11.3043,57.0004,-0.171,0.7901,-0.1452,261.8594
20:51:34:490,3.7422,0.2137,9.7098,55.2059,-0.0029,0.3443,-0.1404,262.9375
20:51:34:509,3.3987,1.0924,8.6169,56.5211,0.0229,-0.0099,-0.4818,263.4844
20:51:34:532,2.5595,1.0217,7.8579,56.5173,-0.1063,0.0364,-0.8099,263.5625
20:51:34:548,1.7682,0.7739,6.9457,55.5101,-0.2631,0.3483,-0.9905,263.6875
20:51:34:568,0.892,0.7775,5.9653,55.5101,-0.3827,0.6092,-1.0467,264.2344
20:51:34:589,0.2347,0.9547,5.3931,56.0486,-0.4575,0.6566,-0.9801,265.1094
20:51:34:608,-0.049,1.2288,5.5535,56.1651,-0.4346,0.5094,-0.8597,266.2188
20:51:34:631,-0.0741,1.4347,5.9701,55.2391,-0.2961,0.2803,-0.7495,267.3438
20:51:34:648,-0.1076,1.637,6.2514,55.6755,-0.1372,0.1376,-0.6699,268.3594
20:51:34:668,-0.1878,1.813,6.4824,55.7658,-0.0296,0.1086,-0.6006,269.7031
20:51:34:689,-0.3997,2.001,6.7721,55.0062,0.0146,0.1014,-0.5311,270.5
20:51:34:708,-0.2621,2.305,7.1444,54.038,0.0296,0.0665,-0.4776,271.1719
20:51:34:728,-0.1783,2.6606,7.7023,53.5479,0.004,-0.0155,-0.4981,271.8125
20:51:34:748,-0.3578,2.8832,8.7174,53.3537,-0.0767,-0.104,-0.579,272.375
20:51:34:769,-0.7624,2.6941,10.2449,54.0219,-0.1361,-0.1213,-0.6776,272.8906
20:51:34:791,-1.282,1.9842,11.4576,55.1602,-0.1284,0.022,-0.6941,273.5
20:51:34:809,-1.7477,1.6442,11.9101,53.1117,-0.151,0.2707,-0.5713,274.2344
20:51:34:830,-1.8602,1.394,12.6774,54.281,-0.2301,0.4028,-0.3782,275.0469
20:51:34:849,-1.7046,1.0337,13.7381,52.8166,-0.2344,0.4154,-0.1354,275.7344
20:51:34:870,-0.6559,0.6267,14.0481,53.3945,-0.1614,0.389,0.1043,276.25
20:51:34:894,0.0576,0.7428,14.0146,51.3698,-0.1449,0.1871,0.2143,276.5
20:51:34:911,0.2539,0.7931,15.0393,52.1618,-0.1601,-0.1133,0.2133,276.4688
20:51:34:930,-0.4644,0.331,15.9694,51.0891,-0.0179,-0.2986,0.1651,276.2344
20:51:34:950,-1.1156,-0.5273,16.4495,51.2455,0.3228,-0.3098,0.2745,275.9688
20:51:34:969,-0.8594,-1.3557,14.667,53.4438,0.8085,0.022,0.4758,275.7031
20:51:34:990,-0.0633,-1.2982,10.6352,49.9363,1.0914,0.2833,0.6122,275.5938
20:51:35:010,0.2982,-1.0229,7.3012,51.4234,0.8256,0.0801,0.613,275.1875
20:51:35:085,0.2419,-0.726,7.5107,51.3082,0.2368,-0.5636,0.6045,274.5625
20:51:35:085,0.1426,-0.6375,10.2042,51.9939,-0.1385,-1.0254,0.5882,273.9062
20:51:35:086,0.2994,-0.7847,12.0011,49.607,-0.0586,-0.9487,0.6319,273.25
20:51:35:102,0.3568,-0.7344,11.1547,49.1937,0.2945,-0.5535,0.7243,272.6719
20:51:35:110,0.1198,-0.2256,8.7066,49.448,0.5633,-0.1908,0.8423,272.125
20:51:35:130,0.1581,0.3741,6.6105,49.6582,0.5753,-0.003,0.9534,271.4375
20:51:35:153,0.4634,0.8087,5.6636,48.5456,0.4623,0.0332,0.9917,270.5938
20:51:35:175,0.7004,1.0157,5.5666,49.4787,0.3792,-0.0275,0.9731,269.5625
20:51:35:193,0.88,1.0325,5.7833,48.3542,0.4005,-0.092,0.947,268.4844
20:51:35:208,0.9722,1.0936,5.7235,48.4227,0.5009,-0.1527,0.9179,267.3438
20:51:35:229,1.1266,1.224,5.4038,48.9921,0.5622,-0.2488,0.8748,266.25
20:51:35:249,1.2846,1.3785,5.5583,47.783,0.4975,-0.366,0.7771,264.7344
20:51:35:269,1.299,1.3737,6.2837,47.2923,0.3678,-0.4259,0.6535,263.75
20:51:35:291,1.1948,1.2097,7.2522,46.5485,0.2546,-0.3735,0.528,262.8906
20:51:35:309,0.9434,1.2408,8.0542,47.2147,0.1707,-0.1711,0.445,262.25
20:51:35:328,1.0596,1.2432,8.2745,46.0772,0.1204,0.0026,0.3763,261.6875
20:51:35:349,1.4007,1.1762,8.229,46.1143,0.0091,-0.0094,0.2761,261.2031
20:51:35:369,1.8353,1.1534,9.1089,45.5395,-0.2389,-0.1791,0.1302,260.7812
20:51:35:393,2.2722,0.7428,11.2158,45.2169,-0.4788,-0.3378,-0.0504,260.4688
20:51:35:409,2.259,-0.0401,13.185,45.4657,-0.5744,-0.3466,-0.2089,260.3594
20:51:35:434,2.1513,-0.8565,13.8051,46.3613,-0.5393,-0.1189,-0.2006,260.5156
20:51:35:448,2.6661,-0.9403,12.7672,46.8392,-0.5508,0.0513,-0.1383,260.6406
20:51:35:469,3.1353,-0.4651,12.4188,45.6356,-0.7689,-0.0736,-0.2262,260.9844
20:51:35:501,2.7774,-0.5692,14.3198,45.7895,-1.0096,-0.2182,-0.4792,261.2031
20:51:35:509,0.8764,-1.6203,16.4626,45.2226,-0.9044,0.0649,-0.599,261.3906
20:51:35:529,0.2132,-2.5217,15.718,46.7161,-0.3798,0.6239,-0.2278,261.875
20:51:35:550,2.1657,-2.1877,12.5733,46.4715,0.2666,0.7877,0.3419,262.9688
20:51:35:575,4.8196,-0.8613,9.1711,46.0149,0.7252,0.2881,0.576,263.1875
20:51:35:592,5.478,0.896,7.0319,45.27,0.8282,-0.5919,0.2628,262.6875
20:51:35:609,3.7794,1.005,7.7274,45.0089,0.3057,-1.4603,-0.7692,261.9688
20:51:35:633,2.8325,0.5022,7.47,45.4864,-0.0432,-0.8675,-1.0701,261.9688
20:51:35:649,1.5168,0.592,6.8356,47.0594,-0.4131,-0.1058,-1.1918,262.1719
20:51:35:668,0.6202,0.8865,6.5925,45.8026,-0.6812,0.4609,-1.1793,262.1719
20:51:35:693,0.1055,0.9499,6.7039,46.7138,-0.7313,0.7211,-1.0856,264.5938
20:51:35:710,-0.0226,1.0157,6.5866,43.9554,-0.5531,0.7482,-0.9066,267.2812
20:51:35:731,-0.055,1.3126,6.0682,46.3068,-0.2671,0.6026,-0.7085,267.2812
20:51:35:748,0.388,1.7484,5.3883,44.793,-0.0282,0.3624,-0.5521,268.4844
20:51:35:771,0.8034,2.317,5.0028,46.0505,0.0359,0.1237,-0.5282,269.4062
20:51:35:792,1.1266,2.6953,5.4996,45.3812,-0.069,-0.0954,-0.6251,271.0312
20:51:35:808,1.2379,2.7635,6.838,44.793,-0.2661,-0.1575,-0.786,271.3438
20:51:35:830,1.0739,2.5456,8.6145,45.2875,-0.4719,-0.0092,-0.9444,271.6406
20:51:35:848,0.2934,2.3098,10.4041,45.1766,-0.6037,0.3919,-1.0315,272.4844
20:51:35:868,-0.0502,2.0381,11.1068,45.6133,-0.5728,0.8207,-1.0222,273.5
20:51:35:891,-0.2034,1.9124,10.5166,46.0175,-0.4903,1.0013,-0.9996,274.6562
20:51:35:911,-0.0585,1.7795,9.948,43.9097,-0.5646,0.9176,-0.9783,275.7188
20:51:35:928,0.37,1.4718,10.1336,46.7963,-0.8069,0.744,-0.9945,276.2656
20:51:35:950,0.3257,0.6782,10.7764,45.3317,-1.1121,0.5128,-1.0635,277.3125
20:51:35:967,-0.4332,-0.0808,12.104,44.5594,-1.4216,0.4079,-1.0459,278.2969
20:51:35:988,-0.8331,-0.4447,14.3091,43.445,-1.6229,0.4524,-0.9037,279.3594
20:51:36:009,-0.5841,-0.9343,16.1322,43.9554,-1.6261,0.6319,-0.832,280.5156
20:51:36:028,-1.5453,-1.8561,17.1163,43.8087,-1.4394,0.8732,-0.8049,281.6562
20:51:36:048,-2.9747,-3.0173,17.5927,45.4813,-0.9116,0.9277,-0.4797,282.5625
20:51:36:067,-2.9759,-3.8385,16.0437,46.3266,-0.0535,0.6401,0.083,283.4375
20:51:36:091,-1.9392,-3.9067,13.1706,45.3601,0.698,0.006,0.6298,284.6094
20:51:36:111,-0.5494,-3.3309,11.2505,45.4391,1.0176,-0.7205,0.9534,284.8125
20:51:36:128,0.0923,-2.3086,10.8435,45.2943,1.0693,-1.2321,0.9712,284.4062
20:51:36:150,0.1222,-1.7615,10.6244,45.6978,1.0064,-1.3498,0.8311,283.5312
20:51:36:169,-0.0418,-1.9603,10.4281,43.1683,0.8964,-1.1314,0.7275,282.5156
20:51:36:192,-0.7265,-1.9555,9.9229,44.8284,0.8682,-0.6614,0.7909,281.5469
20:51:36:208,-1.1407,-1.7448,8.6001,45.1352,0.9553,-0.1857,1.013,280.75
20:51:36:228,-1.1467,-1.339,6.8811,44.4972,1.0623,0.0524,1.2633,280
20:51:36:248,-0.7098,-0.9607,5.5595,42.9867,1.13,0.0457,1.4767,279.0156
20:51:36:269,0.1953,-0.5549,4.9382,42.8621,1.1814,-0.1255,1.5986,277.7188
20:51:36:291,0.783,-0.234,4.5,43.8901,1.2357,-0.341,1.592,276.1406
20:51:36:310,0.9937,0.088,4.1577,43.2282,1.253,-0.549,1.5163,274.4531
20:51:36:329,1.2367,0.3202,3.9099,46.1078,1.2011,-0.7133,1.4231,272.6406
20:51:36:349,1.5061,0.6447,3.8536,43.404,1.0261,-0.8606,1.3004,270.9062
20:51:36:370,1.8006,1.1175,4.5766,43.4998,0.7286,-1.023,1.1233,269.3594
20:51:36:394,2.1118,1.2731,6.0335,41.923,0.3992,-1.1269,0.8841,267.2031
20:51:36:411,2.1669,1.1031,8.1296,43.4211,0.0905,-0.998,0.6412,266.5781
20:51:36:429,1.9777,0.7572,10.2724,42.9084,-0.1364,-0.5104,0.4868,265.625
20:51:36:448,2.1357,0.7153,11.2612,42.3479,-0.2839,0.0731,0.401,264.9219
20:51:36:471,2.4027,0.9367,11.8837,42.2917,-0.4237,0.3477,0.2324,264.4219
20:51:36:493,2.4733,0.8924,12.6834,42.6206,-0.4735,0.373,-0.0163,263.9688
20:51:36:509,2.1369,0.3921,12.9863,42.018,-0.3795,0.3789,-0.2105,263.5938
20:51:36:529,1.7431,-0.0293,12.4631,41.7027,-0.1792,0.4516,-0.2043,263.4531
20:51:36:548,2.3381,-0.1718,11.0901,42.4287,0.0112,0.3978,-0.0802,263.5938
20:51:36:568,3.0611,0.0461,9.8702,42.6881,0.0077,0.0944,-0.0741,263.8125
20:51:36:594,3.4382,0.2532,10.0366,41.3933,-0.2085,-0.284,-0.2123,263.9062
20:51:36:608,3.2383,-0.1371,11.606,41.9264,-0.4264,-0.423,-0.4211,263.9375
20:51:36:632,2.5068,-0.9607,12.7708,40.9509,-0.4429,-0.1642,-0.5181,264.1094
20:51:36:648,2.3009,-1.5054,12.3255,40.9509,-0.302,0.2841,-0.3993,264.5312
20:51:36:668,2.8935,-1.4647,10.6017,41.4143,-0.2011,0.5656,-0.1796,265.1719
20:51:36:692,3.765,-0.9535,9.2597,40.9133,-0.237,0.3738,-0.0637,265.9062
20:51:36:712,4.014,-0.2352,9.2405,41.1678,-0.3611,-0.0363,-0.1583,266.0625
20:51:36:728,3.3424,0.2113,10.0282,42.279,-0.4328,-0.1788,-0.3471,266.0938
20:51:36:748,2.2878,0.2951,9.7445,41.8023,-0.3888,0.0894,-0.4754,266.2969
20:51:36:768,1.4797,0.5357,8.3463,40.5508,-0.3127,0.4558,-0.456,266.7344
20:51:36:794,1.1912,0.9044,7.0103,42.4151,-0.2437,0.5954,-0.354,267.2812
20:51:36:810,1.1864,1.3126,6.1664,39.5704,-0.1494,0.4734,-0.2659,267.7812
20:51:36:829,1.2128,1.7125,5.7654,40.8121,-0.0399,0.2668,-0.2134,268.1094
20:51:36:848,1.4067,2.0872,5.4086,40.1332,0.0567,0.0891,-0.1974,268.375
20:51:36:868,1.6258,2.4187,5.1967,39.8438,0.0903,-0.0494,-0.2525,268.5938
20:51:36:893,1.8077,2.7168,5.1848,39.1834,0.0336,-0.1708,-0.3798,268.8125
20:51:36:910,1.8425,2.7803,5.769,39.3116,-0.1169,-0.276,-0.5521,269.0781
20:51:36:928,1.3959,2.548,6.9744,39.297,-0.3246,-0.2896,-0.7234,269.2812
20:51:36:948,0.3233,2.1554,8.8359,37.6708,-0.5055,-0.1186,-0.7844,269.8281
20:51:36:971,-0.7469,2.0692,10.7357,38.2292,-0.5215,0.16,-0.6637,270.5781
20:51:37:000,-1.531,1.9351,12.1232,39.0659,-0.3073,0.2878,-0.4518,271.9531
20:51:37:010,-0.7852,1.716,12.784,37.8146,0.3137,-0.0102,0.0963,272.7188
20:51:37:029,-0.2465,2.0752,12.8857,39.3693,0.4557,-0.2214,0.2814,273.2031
20:51:37:048,0.5448,2.0177,13.3873,37.2234,0.5009,-0.3085,0.3563,273.375
20:51:37:068,1.5372,1.5509,13.0629,37.1724,0.4645,-0.0992,0.3168,272.9531
20:51:37:094,1.5264,1.576,12.1806,37.4803,0.1678,0.0798,0.1965,272.9531
20:51:37:174,1.463,1.4874,13.27,35.7631,-0.3001,0.0058,0.1352,272.5625
20:51:37:174,1.3493,0.6159,15.6881,36.4029,-0.4469,-0.0286,0.0764,272.2031
20:51:37:175,0.7555,-0.3166,16.7643,35.739,-0.0392,0.1144,0.1336,271.9688
20:51:37:188,0.7196,-1.1522,14.3079,34.2309,0.6179,0.3714,0.2849,271.8281
20:51:37:189,0.6717,-1.2899,10.2497,34.9488,0.95,0.4649,0.4165,271.5938
20:51:37:208,0.9734,-1.1031,7.3671,35.3353,0.7691,0.2241,0.5067,271.5938
20:51:37:227,1.1829,-0.5596,6.5997,34.8092,0.2378,-0.1897,0.5089,270.6719
20:51:37:247,1.3002,-0.0545,8.1955,34.1869,-0.3204,-0.508,0.4689,270.3594
20:51:37:268,1.0895,0.0269,10.209,35.0741,-0.4927,-0.5698,0.3877,269.75
20:51:37:292,0.2898,-0.0437,10.8051,33.9877,-0.2762,-0.3865,0.381,269.2656
20:51:37:309,0.0324,0.0245,9.5961,34.1518,0.0589,-0.1186,0.5259,268.8594
20:51:37:330,0.139,0.3059,7.81,33.4757,0.2724,0.0367,0.7198,268.5156
20:51:37:348,0.5113,0.7356,6.747,35.0056,0.3262,0.0603,0.9009,268.3125
20:51:37:368,0.959,1.1079,6.5974,32.9472,0.3646,-0.0723,0.9755,267.75
20:51:37:392,1.1625,1.1618,6.9206,34.366,0.4828,-0.2491,0.9712,266.9062
20:51:37:411,1.4091,1.1474,7.0079,34.3133,0.6384,-0.3418,0.9448,265.8594
20:51:37:428,1.6198,1.2193,6.8068,34.5302,0.7398,-0.3423,0.8897,264.7812
20:51:37:448,1.9083,1.2719,6.5542,32.6052,0.7534,-0.3066,0.7882,263.6719
20:51:37:468,2.1932,1.3904,6.4489,31.9427,0.6948,-0.2403,0.6559,262.5938
20:51:37:492,2.6062,1.643,6.2813,32.4419,0.5965,-0.2137,0.4817,261.5625
20:51:37:510,2.9833,1.8094,6.3483,33.8194,0.4384,-0.2899,0.2274,260.6875
20:51:37:526,2.9941,1.6813,6.7625,34.4074,0.2173,-0.4212,-0.084,259.5938
20:51:37:548,2.848,1.1845,7.8052,34.4377,-0.0858,-0.5738,-0.3612,259.1719
20:51:37:568,2.9318,0.3825,9.5949,31.9811,-0.4064,-0.6244,-0.5431,259.1094
20:51:37:592,2.8767,-0.3047,11.5809,32.5447,-0.6424,-0.5242,-0.6461,259.4688
20:51:37:608,2.6254,-0.6734,13.3047,32.6182,-0.7025,-0.2686,-0.6509,260.125
20:51:37:627,3.2622,-1.1271,13.0713,33.2234,-0.5907,0.0657,-0.5995,260.9375
20:51:37:647,3.6046,-1.1079,11.2349,32.5503,-0.5971,0.1679,-0.6099,261.8438
20:51:37:668,3.34,-0.5584,10.5166,32.5296,-0.8978,-0.0606,-0.6888,262.6406
20:51:37:693,2.6709,-0.7655,12.2943,32.5502,-1.2418,-0.2986,-0.8009,263.3281
20:51:37:710,1.4235,-1.2013,14.2013,34.3183,-1.2413,-0.1327,-0.7902,264.125
20:51:37:730,0.9518,-1.503,13.8278,32.5772,-0.8884,0.222,-0.5407,265.125
20:51:37:748,2.0711,-1.491,12.1914,32.5728,-0.4533,0.3139,-0.1764,266.25
20:51:37:767,3.5292,-1.0121,10.5179,32.1837,-0.1222,0.0968,0.0947,267.0938
20:51:37:792,4.506,-0.1718,9.2788,34.3031,0.0322,-0.2821,0.1336,267.5469
20:51:37:811,4.4617,0.726,8.7773,32.7978,-0.0104,-0.4771,-0.0741,267.5781
20:51:37:828,3.5232,0.8613,8.6719,33.1469,-0.1569,-0.3082,-0.37,267.375
20:51:37:850,2.2974,0.6387,8.1823,32.6426,-0.2724,0.1331,-0.5487,267.5156
20:51:37:868,1.3457,0.671,7.1875,35.5791,-0.3358,0.5845,-0.5575,267.9844
20:51:37:891,0.7076,0.8841,6.2825,34.7268,-0.3297,0.7829,-0.4616,268.2656
20:51:37:909,0.6274,1.1546,5.7809,36.0082,-0.2195,0.6375,-0.2991,268.9062
20:51:37:932,0.9362,1.5736,5.5427,35.2376,-0.041,0.311,-0.1524,269.4688
20:51:37:948,1.4546,2.056,5.2039,35.5036,0.1188,-0.0049,-0.0933,269.875
20:51:37:968,2.0615,2.4954,5.0507,34.649,0.1561,-0.2622,-0.1545,270.0938
20:51:37:994,2.4386,2.6438,5.3236,34.4137,0.0389,-0.4529,-0.3276,270.1875
20:51:38:011,2.459,2.5181,6.3136,34.6977,-0.1915,-0.5503,-0.5426,270.3125
20:51:38:029,2.1022,2.2176,7.8088,35.4734,-0.4434,-0.4102,-0.7372,270.5938
20:51:38:048,1.4929,1.7639,9.237,35.5883,-0.6349,-0.0361,-0.8448,271.1406
20:51:38:067,0.8405,1.394,10.2497,36.7608,-0.7625,0.4327,-0.848,271.9531
20:51:38:096,0.6286,0.9044,10.9237,36.7463,-0.796,0.7214,-0.7601,272.9375
20:51:38:112,0.7734,0.5704,11.4109,36.0477,-0.7771,0.7349,-0.64,274.4219
20:51:38:126,1.1541,0.1562,12.353,35.951,-0.7454,0.5179,-0.5077,275.3125
20:51:38:148,1.5049,-0.5561,14.1235,35.9088,-0.673,0.1858,-0.3963,276.0156
20:51:38:175,1.8221,-1.2647,15.5313,36.0086,-0.5542,-0.0438,-0.2935,276.625
20:51:38:194,0.8022,-1.3126,17.388,36.9297,-0.3265,-0.0006,-0.0589,277.4844
20:51:38:211,0.5448,-1.7891,17.2683,37.5496,-0.0437,0.2095,0.0689,277.7344
20:51:38:230,-0.0334,-2.2296,15.6905,36.259,0.3345,0.4873,0.2604,277.8125
20:51:38:249,0.0205,-2.5253,13.1323,36.8341,0.6573,0.6135,0.5163,277.7344
20:51:38:271,0.613,-2.7958,10.7608,38.7925,0.7939,0.3506,0.7395,277.4219
20:51:38:295,1.1673,-2.6354,9.6416,36.8541,0.7001,-0.1383,0.8881,276.7812
20:51:38:310,1.1182,-1.9974,9.7912,36.8774,0.5342,-0.5048,0.9723,275.875
20:51:38:329,1.0548,-1.3282,10.021,35.7927,0.4714,-0.5431,1.0279,274.8438
20:51:38:353,0.9722,-0.9391,9.4704,36.8393,0.5502,-0.3761,1.0633,273.7812
20:51:38:375,0.8357,-0.6841,8.1069,36.6182,0.7009,-0.2081,1.1174,272.6094
20:51:38:390,0.7866,-0.5429,6.4549,35.9701,0.8176,-0.0614,1.2095,272
20:51:38:411,0.8872,-0.2544,4.9717,36.9908,0.8413,0.0271,1.3371,270.1406
20:51:38:431,1.2786,0.2233,4.105,36.3857,0.7753,0.0076,1.4359,270.1406
20:51:38:448,1.9418,0.7811,3.8464,36.3848,0.6653,-0.1128,1.4354,267.0938
20:51:38:468,2.5416,1.163,4.1612,35.2162,0.5273,-0.2827,1.2972,265.4844
20:51:38:492,2.7283,1.3461,4.7634,35.8912,0.4064,-0.4222,1.0782,265.4844
20:51:38:509,2.9557,1.2468,5.6229,36.4276,0.2919,-0.607,0.8332,263.7969
20:51:38:526,2.9725,0.9499,6.7601,36.5877,0.1563,-0.713,0.5723,262.2969
20:51:38:546,2.6732,0.3729,8.0829,36.8867,-0.0021,-0.6755,0.3323,261.0625
20:51:38:566,1.7838,0.0748,9.5027,37.3007,-0.155,-0.422,0.1999,260.2031
20:51:38:586,1.712,-0.2388,10.628,36.101,-0.1803,-0.1482,0.1893,259.5938
20:51:38:609,2.2554,-0.5668,10.7956,35.4005,-0.0932,0.0087,0.1674,259.2969
20:51:38:626,2.8672,-0.659,10.3239,35.8606,-0.074,0.0154,0.103,259.1406
20:51:38:646,3.3915,-0.8158,10.1695,35.3506,-0.1867,-0.1192,-0.0206,258.9531
20:51:38:666,3.5543,-1.06,10.9704,36.9675,-0.3734,-0.2853,-0.1567,258.7812
20:51:38:687,4.2714,-1.6203,11.7916,35.509,-0.5222,-0.2451,-0.2153,258.6719
20:51:38:713,5.2099,-1.971,11.9089,35.1991,-0.6655,-0.1727,-0.2962,258.8438
20:51:38:730,5.3583,-1.5006,12.4093,36.2627,-0.8506,-0.1985,-0.4509,259.1562
20:51:38:746,4.6269,-1.4132,13.7392,36.2627,-0.9531,-0.1825,-0.6941,259.5156
20:51:38:766,3.2574,-2.056,14.582,34.4813,-0.8043,0.1727,-0.8201,260.0469
20:51:38:786,2.6493,-2.7048,13.2784,35.0418,-0.4631,0.6204,-0.6757,260.8438
20:51:38:808,2.9677,-2.6115,10.8662,36.9308,-0.1673,0.7123,-0.3511,261.875
20:51:38:828,4.1936,-1.9267,9.1544,35.4171,-0.0463,0.311,-0.084,262.7812
20:51:38:847,4.8077,-0.7224,9.1819,36.3323,-0.0647,-0.2475,-0.0781,263.375
20:51:38:867,4.3851,0.0509,10.1815,36.3151,-0.0434,-0.4481,-0.2648,263.5625
20:51:38:886,3.4861,0.0018,10.0175,35.5042,0.0788,-0.0512,-0.489,263.625
20:51:38:910,2.3333,-0.1095,8.1727,36.2475,0.1736,0.5898,-0.5932,263.7031
20:51:38:928,1.4702,0.2137,6.0766,35.5067,0.1539,1.0566,-0.5777,264.0312
20:51:38:947,1.0105,0.5585,4.5766,36.8287,0.0866,1.1214,-0.5095,264.5781
20:51:38:967,0.9362,0.9284,3.9817,35.0053,0.0439,0.8223,-0.4619,265.1719
20:51:38:988,1.0967,1.0553,3.9841,37.8773,0.0445,0.4207,-0.4688,265.7656
20:51:39:010,1.2882,1.1558,4.2055,36.04,0.045,0.075,-0.5306,266.2656
20:51:39:028,1.3121,1.2635,4.4198,36.9294,-0.0165,-0.1359,-0.6406,266.9531
20:51:39:046,1.293,1.2887,4.9992,36.6499,-0.1944,-0.313,-0.7822,267.5
20:51:39:067,1.0751,1.2767,6.4764,36.9441,-0.4474,-0.4257,-0.8808,268.1562
20:51:39:087,1.0895,1.1594,8.6719,37.2099,-0.6253,-0.4536,-0.8933,268.9531
20:51:39:109,1.1433,0.9272,10.9464,35.3581,-0.6288,-0.337,-0.8813,269.9688
20:51:39:129,0.5376,0.8865,12.7301,37.4709,-0.477,-0.0169,-0.84,271.0625
20:51:39:146,0.3796,0.5273,13.1622,36.5058,-0.1982,0.3357,-0.7298,272.1094
20:51:39:166,0.3018,0.3717,12.2237,37.5223,0.0056,0.5754,-0.6006,273.1719
20:51:39:228,0.1952,0.5525,11.5234,39.0145,-0.0413,0.5821,-0.4438,274.0938
20:51:39:229,0.6106,0.4088,12.2955,37.1104,-0.1923,0.4593,-0.3167,274.8438
20:51:39:229,1.056,-0.0461,12.9551,38.341,-0.2471,0.4729,-0.2587,275.375
20:51:39:247,0.9745,-0.2855,12.5996,37.2107,-0.3196,0.3988,-0.2408,275.7812
20:51:39:266,0.4119,-0.2855,14.0146,36.5175,-0.5055,-0.0185,-0.1513,276.0938
20:51:39:291,0.2946,-0.9918,17.2719,36.3687,-0.4453,-0.2579,0.0079,276.3594
20:51:39:310,0.3569,-2.1446,18.4989,36.451,0.1313,0.0185,0.2338,276.7031
20:51:39:327,0.643,-2.7491,15.2524,36.3318,0.8269,0.3972,0.4753,276.7188
20:51:39:351,0.9075,-2.5504,11.4384,36.7568,0.9944,0.336,0.6652,276.4531
20:51:39:365,1.6569,-2.6618,10.3419,38.2796,0.718,-0.0579,0.7888,275.8594
20:51:39:387,1.7742,-2.4882,10.7381,37.1377,0.437,-0.2425,0.8474,275.4531
20:51:39:408,1.2942,-1.916,10.5657,37.3551,0.3486,-0.1527,0.9105,274.5625
20:51:39:428,0.9602,-1.424,9.462,35.8088,0.4115,-0.0105,0.9986,273.6562
20:51:39:446,0.7076,-0.7967,7.9644,38.0697,0.5103,0.0199,1.1187,272.6562
20:51:39:467,0.7818,0.1263,6.978,38.4862,0.6008,-0.1258,1.3147,271.5469
20:51:39:487,1.5228,0.9691,6.9325,36.8533,0.7609,-0.3977,1.5321,270.375
20:51:39:510,2.5595,1.3737,7.1911,36.5603,1.0706,-0.6771,1.6719,268.9688
20:51:39:531,3.3891,1.6909,6.7446,36.8027,1.4346,-0.7354,1.678,267.3125
20:51:39:556,3.8727,2.086,5.6229,36.0515,1.6402,-0.6417,1.5209,265.4375
20:51:39:566,4.1792,2.3493,4.494,36.7207,1.5782,-0.5471,1.2111,262.5938
20:51:39:589,4.0619,2.4894,4.1541,36.9597,1.2259,-0.5809,0.784,260.7656
20:51:39:613,3.4597,1.971,5.4781,35.6088,0.6898,-0.709,0.3464,259.3438
20:51:39:629,2.8408,1.3569,8.3271,38.3105,0.2453,-0.6305,0.0236,258.3906
20:51:39:647,2.8959,1.3222,11.0529,36.4863,0.1318,-0.2704,-0.3042,258.0312
20:51:39:666,2.3704,0.841,11.3965,36.6164,0.1942,0.3179,-0.8347,258.0625
20:51:39:687,1.6198,-0.3262,9.8068,37.0527,-0.033,1.0825,-1.2978,258.4219
20:51:39:711,0.4778,-1.5269,8.6971,37.9696,-0.6389,1.8401,-1.4677,259.2969
20:51:39:729,-0.511,-2.3158,9.0706,37.8267,-1.2054,2.1278,-1.301,260.6094
20:51:39:746,-0.6176,-2.5121,10.8614,37.7217,-1.3438,1.7472,-0.9167,261.9688
20:51:39:766,0.6489,-2.6677,11.9508,37.3362,-0.9755,1.1102,-0.4469,263.2031
20:51:39:787,2.1106,-2.147,11.5964,38.6397,-0.4269,0.3323,-0.1095,264.0625
20:51:39:811,2.9498,-0.8613,12.0501,38.2102,-0.0583,-0.4433,-0.0176,264.4531
20:51:39:829,2.9641,-1.3174,12.3422,38.4955,0.1145,-0.5365,-0.2576,264.5156
20:51:39:848,3.2167,-1.6682,11.1415,36.7876,0.118,-0.0377,-0.2808,264.625
20:51:39:867,4.0224,-1.4395,9.2729,38.5181,-0.049,0.287,-0.2709,264.8906
20:51:39:887,4.6257,-0.7057,8.326,38.9497,-0.4309,0.2633,-0.3849,265.5469
20:51:39:913,4.0894,0.4352,9.2046,37.6012,-0.8642,0.1256,-0.6675,265.5469
20:51:39:928,2.9893,0.9463,10.6232,38.3434,-1.0554,0.2668,-1.0219,265.8281
20:51:39:945,1.6737,0.823,10.4077,36.409,-0.9316,0.6817,-1.2805,266.2188
20:51:39:970,0.3724,0.8206,8.4768,39.2087,-0.7334,1.1035,-1.296,267
20:51:39:986,-0.3219,1.2552,6.82,36.4321,-0.6157,1.3275,-1.0832,268.1719
20:51:40:006,-0.1878,1.6562,5.9844,37.5386,-0.4416,1.2063,-0.8547,269.5938
20:51:40:028,0.0109,2.1087,5.4828,38.7795,-0.1656,0.8537,-0.7119,270.9219
20:51:40:046,0.3174,2.402,4.9418,37.9464,0.1313,0.4196,-0.6422,272.0469
20:51:40:065,0.5663,2.627,4.409,38.5288,0.3265,-0.0054,-0.6797,272.9219
20:51:40:085,0.6837,2.6809,4.1493,37.9596,0.3414,-0.3684,-0.8046,273.6406
20:51:40:110,0.6669,2.3948,4.7406,38.6441,0.1731,-0.701,-0.9697,274.7344
20:51:40:126,0.3042,1.8657,6.4908,38.4418,-0.0948,-0.9631,-1.1162,275.5938
20:51:40:146,-0.3794,1.1187,9.0586,38.9129,-0.3321,-1.0347,-1.1745,276.625
20:51:40:166,-0.7445,0.4375,11.6467,38.9161,-0.4709,-0.8347,-1.1061,277.8906
20:51:40:185,-0.9576,-0.1538,13.5669,38.4167,-0.5015,-0.4161,-0.9788,279.2812
20:51:40:209,-1.7548,-0.4938,14.594,39.0719,-0.4498,0.1022,-0.7585,280.5938
20:51:40:230,-2.1307,-0.513,14.5162,38.9479,-0.3294,0.5653,-0.4043,281.8438
20:51:40:245,-1.6232,-0.422,13.5657,37.7757,-0.1747,0.7379,-0.0557,282.8594
20:51:40:266,-0.6559,-0.2113,12.3542,38.7653,-0.0541,0.6052,0.1861,283.2344
20:51:40:288,0.0695,0.1431,11.4971,41.1136,-0.093,0.108,0.2292,283.6562
20:51:40:309,0.2695,0.2735,12.7887,39.9961,-0.2983,-0.5764,0.1427,283.6719
20:51:40:325,0.0085,-0.3238,15.73,39.9057,-0.4408,-0.9242,0.0087,283.4375
20:51:40:345,-1.0581,-1.1319,18.6617,39.5736,-0.1976,-0.6856,0.0537,283.1719
20:51:40:366,-0.7888,-1.965,18.0943,39.6415,0.4783,-0.0725,0.3296,283.0312
20:51:40:386,-0.0957,-1.8022,13.8518,38.9823,0.9918,0.3869,0.5384,283.0625
20:51:40:410,0.4514,-1.2049,10.5621,39.4921,0.9188,0.2795,0.6202,282.8906
20:51:40:430,0.6897,-0.8601,10.446,38.7506,0.5252,-0.1511,0.5648,282.375
20:51:40:448,0.3401,-0.4519,12.2345,38.4485,0.3406,-0.3863,0.5086,281.6719
20:51:40:465,0.4203,-0.4399,12.4559,39.1115,0.5771,-0.2243,0.4687,280.9844
20:51:40:486,-0.0154,-0.501,10.3562,37.0209,0.9662,0.1331,0.4615,280.4375
20:51:40:509,-0.5745,-0.5118,7.6017,39.8418,1.216,0.4662,0.6058,279.9062
20:51:40:526,-0.614,-0.2879,5.2757,39.2459,1.2711,0.6665,0.8572,279.3906
20:51:40:545,-0.2034,0.1909,3.7351,38.6766,1.2014,0.6835,1.0655,278.8125
20:51:40:569,0.3976,0.6997,2.8875,37.2439,1.0842,0.516,1.1358,277.9219
20:51:40:585,0.7722,1.0589,2.5715,38.8551,0.9508,0.2396,1.0647,276.75
20:51:40:605,0.8489,1.1271,2.5799,39.5811,0.8107,-0.0318,0.9281,275.4531
20:51:40:627,0.7818,0.8541,2.8696,40.4089,0.6565,-0.297,0.7946,274.1562
20:51:40:648,0.5831,0.1646,3.9075,39.3003,0.4655,-0.4915,0.7139,273
20:51:40:665,0.0384,-0.556,5.5535,39.2887,0.2144,-0.4313,0.7552,272.0625
20:51:40:685,-0.4716,-0.1873,7.1181,38.3607,-0.0674,-0.1482,0.9102,270.9688
20:51:40:709,-0.055,0.6028,8.6659,39.2345,-0.1987,-0.0595,0.9235,270.1875
20:51:40:729,0.6849,0.5333,9.4644,38.7516,-0.1241,-0.2076,0.6753,269.1719
