Time,Acc_X,Acc_Y,Acc_Z,Meg,Gyr_X,Gyr_Y,Gyr_Z,Ore
19:59:05:720,-1.9835,1.8094,8.1883,53.572,0.1835,-0.3916,-0.1151,213.0625
19:59:05:735,-2.1595,1.7508,7.9884,55.4213,-0.0671,-0.2126,-0.1165,213.0625
19:59:05:755,-2.2732,1.7472,8.1679,54.0702,-0.2434,-0.1258,-0.0962,213.0625
19:59:05:787,-2.2899,1.8597,8.6935,54.8546,-0.2906,-0.1868,-0.0981,197.4062
19:59:05:803,-2.1295,1.8298,9.1891,55.5431,-0.2328,-0.2504,-0.13,197.5312
19:59:05:821,-2.096,1.8286,9.1328,53.6336,-0.1933,-0.3205,-0.1716,197.6094
19:59:05:835,-2.1906,1.6861,9.1555,54.8601,-0.1832,-0.3674,-0.1939,197.7188
19:59:05:855,-2.2109,1.5712,9.1891,54.766,-0.1747,-0.3919,-0.195,197.9062
19:59:05:887,-2.2624,1.3833,8.8215,55.9273,-0.2405,-0.4835,-0.1524,198.25
19:59:05:903,-2.424,1.2767,8.3942,54.7583,-0.445,-0.516,-0.0493,198.4688
19:59:05:920,-2.0852,1.2971,9.28,53.6621,-0.4879,-0.435,-0.0134,198.6719
19:59:05:932,-2.0421,1.2145,9.5937,54.4135,-0.4525,-0.4507,0.0351,198.7188
19:59:05:953,-1.7824,1.1917,9.7493,54.7318,-0.3776,-0.4246,0.0599,198.7344
19:59:05:972,-1.6351,1.1905,9.893,53.6967,-0.2645,-0.4819,0.074,198.7188
19:59:06:003,-1.5238,1.0816,9.9732,55.6792,-0.1776,-0.4494,0.1113,198.6562
19:59:06:020,-1.379,1.0457,10.4448,54.4129,-0.0567,-0.1719,0.1651,198.5938
19:59:06:031,-1.1563,1.2312,9.9229,54.6321,0.008,-0.0363,0.1696,198.5156
19:59:06:054,-1.0593,1.4072,9.2824,53.1434,-0.0117,-0.0606,0.148,198.375
19:59:06:072,-0.954,1.5078,9.0813,53.9681,-0.0714,-0.0955,0.1105,198.1719
19:59:06:090,-0.936,1.5149,9.2489,55.3344,-0.1116,-0.0864,0.0793,198
19:59:06:119,-1.0509,1.4299,9.3555,54.1799,-0.1212,-0.092,0.0729,197.8594
19:59:06:131,-1.0414,1.3976,9.5494,55.3599,-0.0969,-0.0851,0.0774,197.75
19:59:06:155,-0.9971,1.4288,9.5709,55.3319,-0.073,-0.1058,0.0551,197.625
19:59:06:172,-1.0892,1.3282,9.7589,55.7409,-0.0442,-0.1271,0.0423,197.5469
19:59:06:189,-1.1802,1.2229,9.7613,55.0883,-0.0163,-0.1208,0.0583,197.4844
19:59:06:218,-1.2545,1.151,9.8654,54.6764,0.0083,-0.0648,0.1003,197.4375
19:59:06:229,-1.1778,1.2121,9.7697,54.9281,0.0455,-0.0094,0.1331,197.375
19:59:06:255,-1.1252,1.3354,9.395,54.0816,0.061,-0.0291,0.1443,197.2656
19:59:06:271,-1.0689,1.3713,9.1986,55.6521,0.0415,-0.0616,0.148,197.125
19:59:06:287,-0.936,1.3928,9.201,55.616,0.0067,-0.0821,0.1493,196.9688
19:59:06:307,-0.711,1.4192,9.3662,54.5844,-0.0216,-0.1026,0.124,196.8125
19:59:06:327,-0.5697,1.3509,9.6882,55.3538,-0.0224,-0.0827,0.0921,196.8125
19:59:06:353,-0.6092,1.224,9.8379,54.1041,0.0029,-0.0334,0.0921,196.5156
19:59:06:370,-0.5518,1.2109,9.9097,52.0289,0.0719,0.0047,0.1475,196.4219
19:59:06:388,-0.1004,1.5473,9.6859,53.6238,0.1611,-0.0371,0.1688,196.3125
19:59:06:407,0.3808,1.8633,9.4345,55.4992,0.2085,-0.109,0.1086,196.1562
19:59:06:428,0.6202,1.9746,9.2058,54.7805,0.187,-0.1434,0.0085,196.0469
19:59:06:455,0.5687,1.8609,9.0957,54.2993,0.0903,-0.1471,-0.0832,196.0469
19:59:06:471,0.2826,1.5904,9.4034,55.7828,0.0064,-0.1237,-0.1149,195.875
19:59:06:489,0.0624,1.3952,9.8319,54.1859,-0.0077,-0.0696,-0.0967,196
19:59:06:506,-0.0849,1.333,9.8032,54.1135,0.0053,-0.035,-0.0627,196
19:59:06:526,-0.2238,1.3569,9.6332,54.7005,0.0011,-0.0523,-0.0115,196.1406
19:59:06:556,-0.2597,1.4084,9.4848,53.2171,-0.004,-0.0824,0.0401,196.25
19:59:06:574,-0.2585,1.576,9.2776,53.2171,-0.0258,-0.0965,0.086,196.3281
19:59:06:588,-0.2836,1.7484,9.1304,54.1776,-0.0429,-0.0694,0.1312,196.3438
19:59:06:606,-0.2082,1.9962,8.8706,53.8124,-0.0581,-0.0582,0.1536,196.3125
19:59:06:625,0.03,2.2727,8.7737,53.3903,-0.0748,-0.0914,0.1105,196.2188
19:59:06:653,0.1881,2.3601,8.6935,55.1549,-0.1241,-0.1847,0.0045,196.0781
19:59:06:670,0.1258,2.2117,9.1196,54.064,-0.1997,-0.2377,-0.1101,195.9062
19:59:06:688,-0.0538,1.8082,9.96,54.1416,-0.2136,-0.1447,-0.1716,195.7812
19:59:06:708,-0.3913,1.4838,10.227,54.2992,-0.1673,0.0332,-0.1468,195.7812
19:59:06:724,-0.5434,1.4647,9.8858,55.4426,-0.1092,0.1703,-0.0749,196.0156
19:59:06:745,-0.3758,1.673,9.2417,53.2547,-0.057,0.1791,-0.0419,196.2031
19:59:06:765,-0.2633,1.8477,8.727,54.2865,-0.0349,0.1269,-0.0483,196.3125
19:59:06:785,-0.3183,1.8884,8.4026,54.1859,-0.0525,0.0883,-0.0493,196.3438
19:59:06:805,-0.4153,1.9267,8.29,55.4004,-0.0945,0.0548,-0.0435,196.375
19:59:06:825,-0.4883,1.9579,8.3583,53.3172,-0.1462,0.0103,-0.0475,196.4219
19:59:06:849,-0.5709,1.8609,8.5762,52.0531,-0.1931,-0.0204,-0.0342,196.4688
19:59:06:870,-0.6404,1.8597,8.7473,56.0243,-0.2392,-0.0355,-0.0017,196.5156
19:59:06:886,-0.6152,1.9363,9.0382,55.9637,-0.2631,-0.0385,0.0239,196.5625
19:59:06:909,-0.5446,2.0297,9.3315,55.6082,-0.2631,-0.0092,0.0335,196.5625
19:59:06:925,-0.5769,2.0441,9.5542,54.6009,-0.2538,0.0034,0.033,196.5625
19:59:06:945,-0.766,1.9662,10.0809,54.2402,-0.2043,0.0337,0.0604,196.5156
19:59:06:967,-0.9911,1.8513,10.5059,54.8479,-0.0988,0.0806,0.14,196.4688
19:59:06:987,-1.1443,1.8298,10.6795,54.0799,0.0466,0.1605,0.2599,196.4219
19:59:07:005,-1.2197,1.9208,10.4376,53.729,0.1891,0.2138,0.3949,196.3438
19:59:07:025,-1.2221,1.9184,10.1695,54.5882,0.29,0.2082,0.5097,196.0469
19:59:07:049,-1.1934,1.8657,10.2796,53.9126,0.4184,0.1102,0.6953,195.6875
19:59:07:066,-0.6834,1.7963,10.051,54.2763,0.5028,-0.1282,0.7486,195.1719
19:59:07:085,0.1366,1.9567,9.9444,54.6562,0.4517,-0.4169,0.6716,194.4844
19:59:07:106,0.6513,2.0716,10.3718,55.8498,0.2684,-0.5564,0.4551,193.7031
19:59:07:128,0.1725,1.2025,12.1986,55.0162,0.1111,-0.5005,0.2466,192.9219
19:59:07:149,-0.7972,0.3406,12.11,55.4646,0.1004,-0.3248,0.1427,192.3281
19:59:07:168,-1.3861,0.3956,11.6551,54.77,0.171,-0.154,0.2159,191.9844
19:59:07:185,-0.6846,0.7763,10.8638,54.6326,0.3089,-0.0576,0.4633,191.8281
19:59:07:205,-0.5087,0.9188,9.5446,53.6788,0.3915,0.1304,0.5342,191.6719
19:59:07:225,-0.3734,1.1223,8.5762,54.6875,0.3883,0.2108,0.5137,191.3125
19:59:07:250,-0.6308,1.2683,7.9165,55.0224,0.3012,0.238,0.4817,190.7344
19:59:07:266,-0.6978,1.3869,8.2362,54.8508,0.1744,0.0638,0.4207,190.1406
19:59:07:291,-0.6188,1.3773,9.2058,54.4484,0.0626,-0.1948,0.3464,189.5469
19:59:07:306,-0.5206,1.248,10.3227,55.4796,-0.0064,-0.3463,0.2487,188.8125
19:59:07:325,-0.5901,1.1558,10.9811,54.0524,-0.0173,-0.3293,0.1712,188.4375
19:59:07:348,-0.7337,1.0301,11.4276,53.1551,-0.0029,-0.218,0.12,188.1875
19:59:07:365,-0.851,0.8673,10.944,53.8855,0.0722,-0.0097,0.1251,188.0469
19:59:07:384,-0.8403,1.0756,9.1986,54.7428,0.1899,0.2961,0.2034,187.9219
19:59:07:407,-0.687,1.473,7.664,55.2788,0.225,0.4612,0.2993,187.8594
19:59:07:426,-0.5805,1.819,6.8296,53.1854,0.167,0.3946,0.344,187.6719
19:59:07:447,-0.5194,1.983,6.8068,53.6941,0.0618,0.2244,0.331,187.3594
19:59:07:465,-0.5649,1.9758,7.233,55.1419,-0.0535,0.0646,0.3043,186.9375
19:59:07:488,-0.5637,2.0572,7.7406,54.7392,-0.1377,-0.0132,0.3051,186.5156
19:59:07:506,-0.4237,2.226,8.0937,52.6572,-0.1915,-0.0153,0.3435,186.1406
19:59:07:525,-0.1819,2.5121,8.3391,55.5799,-0.204,-0.0073,0.3994,185.8125
19:59:07:550,-0.0226,2.7061,8.551,53.147,-0.1768,-0.0339,0.4266,185.4375
19:59:07:567,0.0851,2.8102,8.7162,53.031,-0.1225,-0.0677,0.4292,185
19:59:07:585,0.1845,2.9096,8.8838,54.0775,-0.0538,-0.0616,0.4343,184.5469
19:59:07:605,0.3712,3.1059,9.0789,53.9417,-0.0027,0.022,0.4428,183.8125
19:59:07:662,0.5759,3.2998,9.1184,52.9445,0.0445,0.1504,0.4332,183.3281
19:59:07:662,2.6242,3.1538,8.9197,54.4227,0.1017,0.2635,0.3624,182.8438
19:59:07:663,-0.0813,4.139,9.3734,54.6381,0.1238,0.2886,-0.0177,182.3281
19:59:07:685,-2.0098,4.3557,9.055,53.341,0.1763,0.3432,-0.2845,181.8906
19:59:07:705,-0.5458,3.4099,9.1867,53.8842,0.1819,0.2153,0.0519,181.875
19:59:07:724,-0.9695,3.6637,10.2186,55.1219,0.1241,-0.0515,0.0974,182.1719
19:59:07:746,-0.9456,3.2986,11.2589,53.4822,0.086,-0.3005,0.1134,182.0938
19:59:07:765,-0.2549,2.7982,11.9711,53.8905,0.0983,-0.3389,0.2271,182
19:59:07:785,0.5173,2.3481,11.7233,55.3294,0.1888,-0.2006,0.3219,181.9062
19:59:07:805,1.1984,2.1518,11.1164,54.38,0.2674,-0.1266,0.3587,181.6875
19:59:07:828,1.6413,2.1135,10.4041,54.8214,0.1678,-0.2278,0.1376,181.3438
19:59:07:849,1.9346,2.0967,10.1575,52.6131,-0.0064,-0.4712,-0.1492,180.9688
19:59:07:867,1.7,1.7675,10.7489,53.1674,-0.1646,-0.7186,-0.4363,180.6562
19:59:07:886,1.372,0.9679,11.8023,54.8823,-0.2314,-0.7897,-0.5825,180.5156
19:59:07:905,1.0488,0.3466,12.8354,53.2935,-0.167,-0.513,-0.5532,180.7344
19:59:07:924,0.9063,0.094,12.7145,54.889,0.0304,-0.0294,-0.3852,181.3281
19:59:07:947,1.044,0.5405,10.9452,53.2463,0.1779,0.1932,-0.1987,182.0938
19:59:07:965,1.8149,1.3042,9.2657,53.8384,0.2157,-0.0297,-0.1982,182.7812
19:59:07:984,2.3309,2.0536,8.7222,54.9731,0.1992,-0.3788,-0.3921,183.2031
19:59:08:004,2.1669,2.2021,8.8144,53.0784,0.1939,-0.5266,-0.6054,183.4062
19:59:08:024,1.5719,2.0405,8.6779,53.3972,0.2021,-0.4933,-0.696,183.6406
19:59:08:045,1.0751,1.9794,8.1703,53.4829,0.2083,-0.4025,-0.6709,184.1094
19:59:08:065,0.7746,2.0177,7.6855,52.9369,0.2309,-0.3421,-0.5852,184.8594
19:59:08:086,0.8285,2.244,7.318,53.8735,0.2985,-0.3125,-0.5053,185.7188
19:59:08:104,1.0596,2.5337,6.814,53.0777,0.3257,-0.219,-0.4978,186.5
19:59:08:127,1.2822,2.742,6.2957,53.3837,0.2746,-0.08,-0.5484,187.2188
19:59:08:150,1.3337,2.8748,5.9916,53.2222,0.1734,0.0369,-0.6328,187.8281
19:59:08:169,1.1039,2.8796,6.0598,54.4591,0.0842,0.1253,-0.7031,188.4219
19:59:08:184,0.7507,2.8401,6.2334,53.6854,0.0192,0.1698,-0.7119,189.375
19:59:08:204,0.5412,2.9646,6.4657,52.8362,-0.0482,0.1794,-0.6869,190.125
19:59:08:224,0.5017,3.1562,6.9325,51.648,-0.1095,0.1504,-0.6648,190.9219
19:59:08:245,0.5292,3.3932,7.7154,53.5595,-0.1252,0.1131,-0.6549,191.6562
19:59:08:266,0.3545,3.4782,8.3667,52.7516,-0.1057,0.059,-0.6461,192.4062
19:59:08:286,-0.2022,3.4267,8.9532,51.9111,-0.0493,-0.0392,-0.5711,193.1406
19:59:08:304,-0.3554,3.3896,9.4512,51.0649,0.0043,-0.1016,-0.4515,193.8438
19:59:08:324,-0.122,3.5572,9.7493,51.89,-0.0229,-0.105,-0.3881,194.5469
19:59:08:344,0.0348,3.7631,10.3443,51.6687,-0.1494,-0.014,-0.4115,195.1406
19:59:08:365,-0.4081,3.6159,11.3343,49.9682,-0.2575,0.2574,-0.4222,195.6094
19:59:08:385,-1.0366,3.2603,11.5665,51.0339,-0.339,0.5269,-0.3165,196.0625
19:59:08:405,-1.3754,3.1909,11.5952,49.3874,-0.449,0.5682,-0.1649,196.5312
19:59:08:425,-0.9983,3.4064,12.0238,51.3462,-0.5779,0.3472,-0.1402,196.75
19:59:08:450,-0.6332,3.2364,13.1503,51.6849,-0.6432,0.0327,-0.2645,197.0156
19:59:08:469,-1.0174,2.4259,14.6514,48.9453,-0.518,-0.1471,-0.3639,197.125
19:59:08:486,-1.9057,1.1211,15.5157,50.2831,-0.1803,-0.035,-0.2427,197.2188
19:59:08:504,-2.6802,0.1993,14.5281,50.188,0.1944,0.2675,0.136,197.6875
19:59:08:526,-1.8542,0.738,9.8331,47.2424,0.3792,0.4076,0.5608,198.0781
19:59:08:549,-0.5589,1.3186,8.8766,48.6978,0.3768,0.1879,0.8029,198.1562
19:59:08:568,0.2814,1.5413,8.6312,49.1789,0.3063,-0.1314,0.788,197.7344
19:59:08:585,0.3963,1.4934,8.4169,49.1789,0.2195,-0.317,0.6258,196.8906
19:59:08:604,0.3138,1.4036,8.1524,48.3796,0.1366,-0.349,0.4727,195.9531
19:59:08:624,0.1893,1.23,7.7537,50.3011,0.0647,-0.264,0.3797,195.1719
19:59:08:646,0.0289,1.0876,7.4114,50.191,0.0099,-0.1381,0.3515,194.6406
19:59:08:666,-0.0538,1.0816,7.1217,46.5434,-0.0133,-0.0052,0.3816,194.2031
19:59:08:684,-0.0358,1.1726,7.0403,46.6728,-0.0011,0.0798,0.4396,193.8281
19:59:08:704,0.0959,1.2588,6.814,48.4616,0.0818,0.1389,0.499,193.4375
19:59:08:723,0.2407,1.4084,6.152,48.1455,0.1923,0.2074,0.5371,192.9688
19:59:08:744,0.3341,1.7975,5.5223,47.5,0.2301,0.2865,0.5544,192.4062
19:59:08:768,0.3808,2.2164,5.3224,46.1038,0.1505,0.3195,0.515,191.7969
19:59:08:785,0.2503,2.5277,5.7606,47.147,-0.0139,0.2995,0.4109,190.8281
19:59:08:804,-0.1304,2.5827,6.9026,46.5411,-0.2032,0.2348,0.2881,190.2031
19:59:08:824,-0.3602,2.627,8.2924,45.0333,-0.3023,0.1216,0.2298,189.6875
19:59:08:844,-0.1423,2.8725,9.4931,43.519,-0.2698,0.0212,0.2559,189.3438
19:59:08:867,0.6142,3.2675,10.2497,45.0799,-0.167,-0.0608,0.2671,189.0625
19:59:08:884,1.2678,3.3405,11.017,45.6898,-0.1004,-0.2222,0.1424,188.75
19:59:08:904,1.3133,2.797,12.5242,45.1689,-0.1691,-0.4238,-0.1079,188.4688
19:59:08:924,0.8872,1.7783,13.6267,43.8257,-0.2586,-0.3977,-0.3157,188.3281
19:59:08:945,0.8836,1.1821,13.2101,45.3259,-0.2586,-0.1096,-0.3079,188.3906
19:59:08:966,1.4989,1.4347,12.0046,44.5112,-0.2218,0.1887,-0.1255,188.7031
19:59:08:986,2.4099,1.7149,11.3271,45.721,-0.2554,0.1661,-0.0493,189.0938
19:59:09:004,2.9354,1.2719,12.2668,43.3576,-0.3419,-0.239,-0.216,189.3438
19:59:09:024,2.3261,0.2221,13.9511,43.8758,-0.4048,-0.6664,-0.5204,189.375
19:59:09:045,1.3876,-0.5896,14.4072,44.2518,-0.3111,-0.586,-0.6667,189.4844
19:59:09:067,1.6928,-0.4687,12.3925,42.4742,-0.0141,-0.1772,-0.4818,190.3438
19:59:09:086,3.1317,0.586,9.4764,42.8804,0.3007,0.0872,-0.1657,191.1562
19:59:09:105,4.2522,1.5987,7.8567,43.7941,0.3566,-0.0899,-0.1441,191.7031
19:59:09:125,4.008,1.8848,8.0937,43.974,0.196,-0.5495,-0.4898,191.8906
19:59:09:144,2.6349,1.3893,8.3092,43.0756,0.0154,-0.7024,-0.9162,192.0625
19:59:09:165,1.196,1.0816,7.5347,43.3862,-0.0746,-0.4246,-1.134,192.6406
19:59:09:184,0.5185,1.1426,6.5542,43.3596,-0.1718,0.0108,-1.0936,193.7812
19:59:09:204,0.3245,1.5544,6.2478,44.9017,-0.2695,0.2998,-0.9471,195.125
19:59:09:224,0.3497,1.9411,6.3041,45.1015,-0.0868,0.1134,-0.7817,196.375
19:59:09:245,0.303,2.2547,6.2274,44.7083,0.0858,-0.0579,-0.7844,196.375
19:59:09:265,0.1282,2.4738,6.1125,44.4738,0.1787,-0.1841,-0.8049,197.375
19:59:09:284,-0.195,2.5325,6.152,43.6869,0.175,-0.2377,-0.8065,198.2969
19:59:09:304,-0.602,2.4954,6.5914,44.0164,0.0905,-0.1676,-0.7354,200.0469
19:59:09:324,-0.8989,2.6761,7.4293,43.1666,0.0093,0.0108,-0.6129,200.9844
19:59:09:346,-0.687,2.9634,8.308,43.4558,-0.0141,0.201,-0.5404,201.9219
19:59:09:367,-0.8067,3.2412,9.0538,43.1721,-0.0059,0.3261,-0.5098,203.125
19:59:09:384,-1.0581,3.4973,9.7553,43.0484,0.0213,0.3373,-0.4935,203.4531
19:59:09:407,-1.276,3.4602,10.3981,41.0053,0.0365,0.2308,-0.4776,204.0469
19:59:09:425,-1.5058,3.3285,11.3774,41.6989,0.0075,0.1341,-0.4453,204.5938
19:59:09:445,-1.707,2.7683,12.8881,42.2379,-0.0312,0.251,-0.382,205.0938
19:59:09:468,-1.9141,1.9962,13.9894,42.5142,-0.0431,0.5453,-0.2059,205.625
19:59:09:485,-1.8015,1.7567,13.4986,42.3039,-0.1673,0.6492,-0.0214,206.1094
19:59:09:504,-1.4029,1.8908,13.3239,42.4003,-0.3659,0.3339,0.0263,206.5
19:59:09:524,-1.2485,1.4886,14.8107,41.5411,-0.3571,-0.0723,-0.0118,206.6719
19:59:09:544,-2.0194,0.3729,16.3753,42.2391,-0.0088,-0.0321,0.1169,206.625
19:59:09:567,-2.7855,-0.7057,15.3398,41.7447,0.4506,0.3706,0.5339,206.5469
19:59:09:585,-2.6431,-0.6458,12.0394,43.1578,0.6474,0.5277,1.0199,206.5469
19:59:09:604,-1.1778,0.2256,9.401,42.1595,0.575,0.0841,1.2207,206.4219
19:59:09:624,0.2755,1.1642,9.0227,44.0572,0.4677,-0.4875,1.1091,205.7969
19:59:09:643,1.0344,1.5449,9.79,42.4688,0.4567,-0.635,0.8508,203.9688
19:59:09:666,0.9303,1.4383,9.8654,45.1011,0.4852,-0.3905,0.6455,202.6406
19:59:09:711,0.5256,1.254,8.8407,44.5427,0.4575,-0.0172,0.5525,201.6094
19:59:09:718,0.2419,1.2492,7.3958,42.2412,0.367,0.2343,0.527,200.9062
19:59:09:727,0.218,1.4012,6.3543,41.0443,0.2914,0.2422,0.5067,200.2656
19:59:09:743,0.3832,1.5006,5.8695,42.9207,0.2663,0.0404,0.4612,199.6406
19:59:09:764,0.6046,1.57,6.0455,41.3113,0.2948,-0.1868,0.3866,199.0469
19:59:09:784,0.6932,1.5018,6.419,42.4197,0.363,-0.26,0.3195,198.4688
19:59:09:804,0.6465,1.3916,6.5842,43.2808,0.4218,-0.165,0.3051,198
19:59:09:824,0.7244,1.4443,6.3196,42.957,0.4234,-0.0246,0.3358,197.6562
19:59:09:847,0.9913,1.8298,5.8384,42.7279,0.3422,0.026,0.3432,197.3594
19:59:09:867,1.3804,2.4619,5.6373,42.8602,0.22,-0.0502,0.2468,197.0156
19:59:09:883,1.4905,2.9586,6.0096,44.2354,0.1033,-0.1721,0.0766,196.625
19:59:09:904,1.2643,3.2412,6.7135,42.8076,0.0003,-0.2089,-0.0919,196.2812
19:59:09:924,0.8513,3.4111,7.2522,43.1632,-0.1252,-0.1887,-0.2153,196.1719
19:59:09:944,0.5699,3.4279,9.2633,45.0124,-0.3159,-0.2683,-0.2909,196.1719
19:59:09:967,0.7663,3.2244,11.7485,43.7017,-0.5252,-0.5162,-0.3551,196.375
19:59:09:983,0.862,2.912,14.7316,44.144,-0.6171,-0.778,-0.4147,196.7031
19:59:10:008,1.2571,2.0872,15.7719,44.2765,-0.4445,-0.6923,-0.4286,197.1406
19:59:10:026,1.2379,1.4718,14.017,44.6526,-0.1297,-0.2861,-0.35,197.7031
19:59:10:050,1.5863,1.7831,12.2836,45.727,0.0312,0.0161,-0.1439,198.2969
19:59:10:070,2.5404,2.2727,11.266,44.913,0.0485,-0.0265,0.0122,198.8438
19:59:10:087,3.0515,2.3948,10.9739,45.4168,0.0141,-0.244,-0.0832,199.1562
19:59:10:106,2.459,1.7927,10.9704,45.6473,-0.0605,-0.406,-0.3636,199.1875
19:59:10:124,1.7227,1.1965,10.6064,43.4001,-0.1079,-0.3575,-0.5553,199.2188
19:59:10:144,1.7215,1.0936,9.7888,45.9403,-0.1161,-0.2491,-0.5183,199.5156
19:59:10:167,2.259,1.3677,9.067,45.6858,-0.1116,-0.2901,-0.4214,200.1406
19:59:10:184,2.5284,1.6849,8.8658,46.5242,-0.1246,-0.5013,-0.4445,200.7969
19:59:10:203,1.9921,1.7436,8.6156,46.1162,-0.1664,-0.5791,-0.5958,201.3594
19:59:10:224,1.0811,1.5975,7.7525,45.506,-0.2064,-0.365,-0.7351,201.9062
19:59:10:243,0.3676,1.5939,6.674,44.2902,-0.2597,-0.0083,-0.7466,202.9531
19:59:10:266,-0.0346,1.8645,6.0251,45.9584,-0.3284,0.2502,-0.6597,203.8594
19:59:10:286,-0.0933,2.2224,5.8659,46.4169,-0.3422,0.247,-0.5572,204.7344
19:59:10:303,-0.0047,2.5684,5.8264,47.3996,-0.2525,0.0787,-0.4973,205.4219
19:59:10:323,-0.0969,2.7946,5.8073,47.5179,-0.1409,-0.0851,-0.5031,206.0312
19:59:10:344,-0.3937,2.894,6.1257,45.0163,-0.1015,-0.1791,-0.5503,206.5938
19:59:10:367,-0.7565,2.8712,6.7003,45.9589,-0.1486,-0.1665,-0.5918,207.1562
19:59:10:385,-1.0773,2.8521,7.834,47.204,-0.2437,-0.1216,-0.5852,207.8125
19:59:10:405,-0.9229,2.9431,9.3136,46.1767,-0.3023,-0.1026,-0.5055,208.5156
19:59:10:423,-0.626,3.1358,10.5346,48.7955,-0.2408,-0.0712,-0.4118,209.2188
19:59:10:444,-0.3506,3.3884,11.0733,47.0743,-0.0679,0.0143,-0.354,209.5
19:59:10:468,-0.4368,3.5967,10.5968,46.1441,0.1159,0.1855,-0.3511,210.0312
19:59:10:484,-0.796,3.5476,9.8403,47.1142,0.1843,0.3277,-0.3876,210.4688
19:59:10:503,-1.2604,3.2184,10.2042,47.686,0.078,0.307,-0.4097,210.8594
19:59:10:523,-1.78,2.6486,11.7461,47.6222,-0.0796,0.1773,-0.3577,211.2188
19:59:10:543,-2.6263,1.9447,12.6631,48.8112,-0.0921,0.1493,-0.1846,211.8594
19:59:10:566,-2.6634,1.7268,12.3075,48.8112,0.017,0.226,0.1682,212.2344
19:59:10:583,-1.6148,2.1781,11.5725,49.0922,0.0815,0.1317,0.6133,212.4219
19:59:10:603,-0.2776,2.5025,12.3853,48.35,-0.0458,-0.1996,0.8988,212.2031
19:59:10:624,0.4215,2.1901,14.43,49.1077,-0.2061,-0.5796,0.9659,211.4844
19:59:10:645,0.4323,1.4814,14.6431,48.8391,-0.1167,-0.549,0.9302,210.5312
19:59:10:667,-0.1543,0.9631,12.2405,49.6628,0.1798,0.364,1.1155,209.5
19:59:10:684,0.0588,1.0337,10.2138,48.1931,0.0045,0.1898,1.2548,208.5
19:59:10:703,0.9722,1.3809,10.464,47.7247,-0.1521,-0.2195,1.1872,208.5
19:59:10:723,1.7503,1.3845,11.8107,47.5144,-0.1004,-0.3937,0.9933,207.4688
19:59:10:744,1.6557,1.2097,12.1926,48.3383,0.0724,-0.1674,0.7853,206.1406
19:59:10:767,0.862,0.8697,11.2744,49.5922,0.2701,0.2918,0.7102,204.6719
19:59:10:783,0.0839,0.6554,9.225,49.1321,0.425,0.6548,0.8018,201.4375
19:59:10:804,-0.1412,0.7943,6.9613,48.7708,0.5161,0.6755,0.9616,201.0312
19:59:10:823,0.3078,1.1797,5.2817,49.9655,0.5545,0.3642,1.0546,200.1406
19:59:10:843,0.9781,1.7711,4.7299,50.1979,0.5625,-0.052,0.9976,199.6094
19:59:10:867,1.5551,2.1685,5.0698,48.3314,0.5665,-0.2824,0.8106,198.4062
19:59:10:884,1.7886,2.3266,5.3488,49.861,0.5262,-0.2307,0.5709,197.125
19:59:10:903,1.6306,2.3673,5.1919,49.035,0.3891,-0.0725,0.3672,196.0312
19:59:10:923,1.5228,2.4176,5.1979,48.3242,0.1878,-0.0161,0.2039,195.125
19:59:10:943,1.3492,2.3936,6.1903,46.9165,0.0474,-0.0017,0.1115,194.4688
19:59:10:965,1.293,2.4367,7.3479,46.9948,-0.0226,0.038,0.0724,194.0469
19:59:10:983,1.3732,2.6881,8.3714,46.994,-0.0623,0.1155,0.0252,193.8281
19:59:11:003,1.5336,2.9898,9.3088,48.4078,-0.0783,0.2657,-0.0499,193.7031
19:59:11:023,1.6473,3.2328,9.7816,48.6149,-0.1118,0.447,-0.1455,193.6094
19:59:11:043,1.6126,3.4147,9.9624,49.3525,-0.1997,0.5152,-0.2403,193.5625
19:59:11:067,1.6761,3.4494,10.6435,47.6268,-0.2674,0.4319,-0.3543,193.625
19:59:11:087,1.4689,3.1825,11.8191,49.8863,-0.2216,0.3243,-0.4251,193.7656
19:59:11:103,1.2271,2.6079,12.8199,48.6167,-0.0463,0.3866,-0.2967,194.0312
19:59:11:124,1.8233,2.2727,12.1495,48.9982,0.0812,0.3554,-0.0288,194.4531
19:59:11:143,3.5483,2.4523,10.6615,48.9766,-0.0269,-0.0305,0.127,194.8438
19:59:11:168,5.6672,3.3908,10.0318,47.309,-0.4194,-0.627,-0.1668,194.9688
19:59:11:184,6.3328,2.803,11.7975,47.3188,-0.8802,-0.9815,-0.8065,194.8438
19:59:11:202,4.2235,0.3047,14.7999,47.7979,-1.0075,-0.6268,-0.994,194.8281
19:59:11:223,1.7048,-1.4359,16.1945,47.0532,-0.6687,0.01,-0.4978,195.5312
19:59:11:243,2.2183,-1.6394,13.9224,45.7169,-0.2021,-0.097,0.1017,196.7656
19:59:11:266,3.838,-0.0892,11.1691,46.5434,0.0711,-0.3937,0.2772,197.75
19:59:11:284,5.8025,1.5844,10.1204,46.4796,0.3294,-0.5578,-0.239,197.9531
19:59:11:304,5.0399,2.0943,7.986,46.6745,0.1926,-0.423,-0.9745,197.7031
19:59:11:325,0.862,0.6901,5.8108,47.5683,-0.167,0.0068,-1.3322,197.625
19:59:11:344,-0.5146,0.7464,5.5798,47.3669,-0.4469,0.3895,-1.3689,198.4062
19:59:11:368,-1.215,0.8673,6.0383,47.9313,-0.539,0.4193,-1.2581,199.0625
19:59:11:386,-1.3694,1.084,6.5806,45.579,-0.4181,0.19,-1.0917,201.2969
19:59:11:402,-1.2988,1.3593,6.9146,47.0453,-0.1846,-0.0574,-0.9271,202.7812
19:59:11:422,-1.1335,1.6909,7.0091,45.8309,0.0482,-0.2177,-0.7836,204.1094
19:59:11:442,-1.0294,2.0788,7.1253,46.9345,0.2053,-0.3362,-0.6912,205.2031
19:59:11:463,-0.7852,2.4283,7.2821,45.9849,0.2501,-0.2787,-0.6467,206.2031
19:59:11:484,-0.547,2.8006,7.6352,44.6926,0.2165,-0.1085,-0.6315,207.0625
19:59:11:502,-0.4656,3.0568,8.0554,46.2637,0.1521,0.0737,-0.6587,207.8125
19:59:11:522,-0.4332,3.1909,8.6516,43.4241,0.0767,0.2148,-0.6968,208.5625
19:59:11:543,-0.7289,3.1514,9.2274,44.9532,0.0186,0.3392,-0.7223,209.2969
19:59:11:563,-1.44,2.9227,9.5757,43.8897,-0.0415,0.4928,-0.7061,210.0156
19:59:11:583,-1.7979,2.8258,9.8762,44.621,-0.1001,0.6207,-0.5524,210.7969
19:59:11:602,-1.3371,2.7767,10.4999,42.6259,-0.1481,0.5525,-0.2919,211.5625
19:59:11:623,-0.7409,2.7408,11.7377,43.6523,-0.1771,0.2753,-0.0579,212.25
19:59:11:643,-0.359,2.6917,12.8139,42.3878,-0.1473,-0.0361,0.1129,212.7344
19:59:11:668,0.2766,2.9012,12.869,42.4733,-0.0732,-0.1514,0.2788,212.7656
19:59:11:686,1.0883,2.9886,13.0677,43.4275,-0.0938,-0.1852,0.3576,212.6406
19:59:11:702,1.2595,2.317,14.2097,42.8916,-0.2551,-0.3208,0.2255,212.3438
19:59:11:771,-0.0095,1.1462,16.0461,41.9181,-0.4416,-0.3937,-0.0006,211.9531
19:59:11:771,-1.6962,-0.0545,16.1287,42.0807,-0.3867,-0.092,-0.0597,211.7344
19:59:11:771,-2.3438,-0.3849,13.0389,41.2768,-0.0045,0.4609,0.2308,211.7812
19:59:11:787,-1.5573,0.4423,9.5769,42.1375,0.3808,0.7506,0.7515,211.8594
19:59:11:802,-0.1268,1.3126,7.9537,41.3244,0.539,0.3653,1.0812,211.5469
19:59:11:823,0.8608,1.6777,7.9022,40.7887,0.5553,-0.2888,1.0569,211.1406
19:59:11:843,0.8213,1.4754,8.4457,39.3434,0.4836,-0.6494,0.821,210.0312
19:59:11:866,0.2252,1.1367,8.484,41.5081,0.3891,-0.5442,0.5936,208.7656
19:59:11:884,0.0001,1.0409,7.8818,39.8165,0.3063,-0.2004,0.5017,207.7344
19:59:11:903,0.0229,1.2193,7.1432,39.1976,0.2285,0.1109,0.4918,207.0625
19:59:11:922,-0.0202,1.3306,6.9589,40.5279,0.1755,0.1978,0.4697,206.5
19:59:11:943,-0.134,1.2947,7.1444,39.7149,0.208,0.1163,0.4404,205.9219
19:59:11:967,-0.1364,1.2432,7.172,38.4994,0.3204,0.0201,0.4615,205.0938
19:59:11:987,0.2347,1.3545,6.9864,39.356,0.4599,-0.0257,0.5374,204.5781
19:59:12:002,0.8357,1.6694,6.6045,37.4752,0.5582,-0.0398,0.5994,204.0312
19:59:12:024,1.5372,2.1685,6.6333,38.9824,0.5494,-0.0624,0.5795,203.4219
19:59:12:044,1.9969,2.4978,7.1025,38.4268,0.3148,-0.0446,0.23,203.4219
19:59:12:068,1.8772,2.6833,8.0602,39.6321,0.2035,0.1309,0.0164,202.75
19:59:12:086,1.4199,2.7671,8.6396,40.3316,0.1196,0.3709,-0.1202,202.0938
19:59:12:102,1.1601,2.7994,8.6851,39.5268,-0.0463,0.466,-0.2025,201.5781
19:59:12:123,1.19,2.7204,9.3854,39.2968,-0.2509,0.5014,-0.2965,201.2812
19:59:12:142,1.056,2.3014,10.476,38.3481,-0.367,0.4452,-0.3591,201.3594
19:59:12:163,0.5879,1.6095,11.8311,38.3173,-0.2924,0.3275,-0.2464,201.5
19:59:12:183,0.0576,1.3402,12.5182,38.6052,-0.0144,0.2921,0.1131,201.75
19:59:12:202,0.613,1.7663,11.5845,39.7138,0.2615,0.1384,0.4394,202.3281
19:59:12:225,2.0771,2.7958,9.8714,38.9228,0.2855,-0.2291,0.4189,202.1562
19:59:12:242,3.3771,3.3692,8.8802,39.2499,-0.0442,-0.599,0.0431,201.9062
19:59:12:262,3.7554,2.9203,10.0426,38.5643,-0.5023,-0.7205,-0.4352,201.375
19:59:12:283,3.0683,1.807,12.5852,38.5423,-0.7169,-0.3594,-0.6986,201.1406
19:59:12:302,1.7491,0.9954,13.8685,38.6848,-0.6208,0.1168,-0.6078,201.2344
19:59:12:323,1.5121,0.7608,13.4448,39.8893,-0.2655,0.2763,-0.3599,201.8438
19:59:12:342,2.3704,1.2935,11.3582,38.2572,0.0498,-0.039,-0.2925,202.7188
19:59:12:363,2.8408,1.9794,9.6942,37.8222,0.1784,-0.3748,-0.4475,203.375
19:59:12:384,2.3656,2.0848,8.563,38.9389,0.1939,-0.3591,-0.6203,203.75
19:59:12:402,1.3864,1.9267,7.2749,39.9661,0.1457,-0.145,-0.6544,204.0938
19:59:12:423,0.7651,2.0129,6.073,39.3662,0.0629,0.0433,-0.6307,204.6562
19:59:12:443,0.4406,2.1662,5.2063,39.4984,-0.0045,0.1208,-0.6123,205.375
19:59:12:468,0.1737,2.3026,4.7933,41.0157,-0.0397,0.0731,-0.591,206.1406
19:59:12:486,-0.1364,2.5289,4.7682,40.0411,-0.0381,-0.064,-0.5668,206.8594
19:59:12:503,-0.2333,2.7707,5.0543,40.4225,-0.0362,-0.1767,-0.5889,207.8438
19:59:12:522,-0.4895,2.8485,5.4649,40.1274,-0.0919,-0.2014,-0.6416,208.5
19:59:12:542,-1.0593,2.8318,6.1748,39.2268,-0.188,-0.1524,-0.6139,209.1719
19:59:12:562,-1.4855,2.9718,7.3204,39.2269,-0.2621,-0.0283,-0.4914,209.875
19:59:12:583,-1.5166,3.4435,8.7485,40.4531,-0.2754,0.1453,-0.292,210.6406
19:59:12:603,-0.8666,4.4395,10.9596,39.1521,-0.1446,0.3387,-0.1769,211.2969
19:59:12:622,0.0695,5.5216,13.0856,38.412,0.2053,0.5658,-0.2909,211.7188
19:59:12:642,0.285,5.9921,13.252,40.2757,0.5321,0.7943,-0.5524,211.9375
19:59:12:663,-0.5422,5.706,11.9663,40.9123,0.5904,0.8788,-0.7375,212.1094
19:59:12:684,-1.6255,4.8584,11.3163,40.9455,0.4746,0.8082,-0.7439,212.4844
19:59:12:702,-2.7784,3.7176,11.9592,39.88,0.4426,0.8042,-0.5204,213.1094
19:59:12:723,-3.5936,3.1586,12.5374,42.0247,0.5872,1.0276,-0.1322,213.875
19:59:12:743,-3.2728,3.5512,9.4572,39.7337,0.6397,1.0228,0.2231,214.5312
19:59:12:763,-3.0262,3.3142,9.8606,42.8987,0.4173,0.65,0.3813,214.7812
19:59:12:785,-3.0046,2.3637,12.1028,39.2862,0.1518,0.0409,0.3965,214.5781
19:59:12:803,-2.9496,1.2145,13.3502,40.0644,0.1361,-0.3008,0.4396,214.0938
19:59:12:826,-2.7748,0.6063,12.7468,39.0093,0.3289,-0.3317,0.5613,213.5938
19:59:12:842,-2.1176,0.744,11.2002,40.435,0.4551,-0.2398,0.7315,213.2031
19:59:12:862,-1.1084,1.1355,10.209,41.1422,0.3459,-0.133,0.8362,212.7188
19:59:12:884,-0.4919,1.2731,9.9696,39.583,0.1342,-0.071,0.7888,212.0625
19:59:12:901,-0.4692,1.1091,9.292,40.7644,0.0093,0.0348,0.6657,211.25
19:59:12:922,-0.8223,0.9487,7.8627,40.2588,0.024,0.1709,0.6109,210.3438
19:59:12:941,-0.9444,0.9284,6.3304,41.0851,0.1049,0.2332,0.6996,209.5156
19:59:12:963,-0.529,1.1438,5.2171,39.7219,0.1795,0.197,0.9014,208.8125
19:59:12:983,0.2862,1.588,4.9465,41.1271,0.2125,0.0364,1.1075,208.0469
19:59:13:002,0.9063,2.0848,5.2147,40.0927,0.2176,-0.1479,1.1989,207.0938
19:59:13:022,1.3157,2.42,5.4625,39.5753,0.22,-0.1932,1.1645,205.9219
19:59:13:041,1.4606,2.7216,5.4433,39.9685,0.1957,-0.068,1.0527,204.6719
19:59:13:063,1.4989,3.0831,5.8875,40.7667,0.0698,0.0636,0.8972,203.3594
19:59:13:083,1.2858,3.2902,6.8368,39.1372,-0.1041,0.1344,0.687,201.5469
19:59:13:102,1.2319,3.4554,7.834,38.8955,-0.1968,0.1709,0.4929,200.5469
19:59:13:122,1.4773,3.7882,8.381,40.2271,-0.1848,0.1783,0.3427,199.7344
19:59:13:142,1.7754,4.1019,8.5187,39.9816,-0.1499,0.1751,0.181,199.125
19:59:13:161,2.0543,4.1222,9.1831,38.5166,-0.1995,0.1112,-0.0227,198.7188
19:59:13:183,2.2171,3.7415,10.4879,39.0787,-0.3132,-0.0241,-0.2499,198.4688
19:59:13:203,1.7982,2.955,11.9101,39.418,-0.4125,-0.113,-0.4507,198.4531
19:59:13:223,1.5743,2.7192,12.268,39.9536,-0.4413,-0.0012,-0.4744,198.7344
19:59:13:242,2.1429,3.1262,11.4265,38.8417,-0.4,0.2058,-0.3348,199.25
19:59:13:263,2.7786,3.3214,10.7034,39.9263,-0.432,0.1493,-0.3505,199.5469
19:59:13:285,2.6361,2.5947,11.4983,39.0872,-0.6509,-0.133,-0.603,199.9688
19:59:13:302,1.1924,0.9248,13.8219,40.1333,-0.9726,-0.427,-0.9151,200.25
19:59:13:322,-0.6427,0.1263,14.8537,41.8256,-1.0405,-0.2526,-0.9314,200.7344
19:59:13:342,-0.2273,0.2041,13.4352,41.4282,-0.754,0.0875,-0.534,201.6562
19:59:13:362,1.469,1.0529,10.7633,40.1926,-0.3372,0.0372,-0.1058,202.7969
19:59:13:383,2.3668,1.9746,9.2441,39.6031,-0.0959,-0.4829,-0.0051,203.8125
19:59:13:401,2.095,2.0967,8.6169,38.6127,-0.0663,-0.9511,-0.1966,203.9219
19:59:13:422,1.4905,2.1554,8.0422,41.0008,-0.1393,-0.9591,-0.3697,204
19:59:13:441,1.1697,2.3804,7.0319,39.7019,-0.175,-0.4158,-0.472,204.3438
19:59:13:462,1.0093,2.5648,5.9437,40.6662,-0.2211,-0.2446,-0.5431,204.3438
19:59:13:483,0.7579,2.6917,5.4469,40.0166,-0.2754,-0.1785,-0.6275,204.9062
19:59:13:502,0.3485,2.7168,5.6888,41.4214,-0.236,-0.1485,-0.6818,205.4844
19:59:13:521,-0.0897,2.7467,5.9641,39.49,-0.114,-0.1034,-0.6794,206.0625
19:59:13:542,-0.438,2.973,5.8168,42.3305,-0.0216,-0.0686,-0.6757,206.7031
19:59:13:562,-0.7134,3.234,5.757,38.8554,-0.0101,-0.096,-0.681,208.2031
19:59:13:586,-0.845,3.5033,6.7805,41.936,-0.0069,-0.2251,-0.6914,209
19:59:13:606,-0.7924,3.6123,9.3531,41.8826,0.2056,-0.276,-0.7173,210.9375
19:59:13:622,-1.0593,3.6039,10.5885,43.274,0.4642,-0.2251,-0.726,210.9375
19:59:13:642,-1.379,3.6063,10.7585,42.2279,0.5222,-0.0172,-0.6802,211.7812
19:59:13:663,-1.3873,3.7559,10.7944,42.9547,0.3537,0.3256,-0.6488,212.6562
19:59:13:683,-1.2102,3.7116,11.2301,43.5901,0.1177,0.6135,-0.6685,213.4375
19:59:13:702,-1.3023,3.1095,11.7317,41.9856,-0.0783,0.6886,-0.6619,213.8281
19:59:13:724,-1.9548,2.2871,12.7349,44.7996,-0.1329,0.6835,-0.4896,214.5156
19:59:13:742,-2.3905,1.5293,13.0282,44.0827,-0.0839,0.613,-0.1631,215.2031
19:59:13:761,-2.4492,1.3485,12.5445,44.6699,-0.0389,0.4297,0.25,215.8125
19:59:13:783,-1.4077,1.7831,11.6132,44.5246,-0.1068,0.0718,0.5131,216.2812
19:59:13:828,0.0935,2.2703,11.8909,44.2492,-0.2437,-0.2635,0.47,216.3594
19:59:13:829,0.5041,2.244,13.0557,45.2452,-0.2935,-0.1311,0.2663,216.0156
19:59:13:846,-0.5434,1.6394,12.8271,45.9019,-0.2921,0.3879,0.2244,215.4375
19:59:13:870,-1.9045,1.2588,10.962,44.2126,-0.3119,0.662,0.4428,214.9219
19:59:13:883,-2.0613,1.3126,9.395,45.4345,-0.3057,0.3405,0.7302,214.625
19:59:13:903,-1.0486,1.4671,9.3459,46.5113,-0.1968,-0.2923,0.8902,214.3281
19:59:13:923,0.1593,1.7388,10.1659,44.954,-0.037,-0.5857,0.8625,213.2969
19:59:13:941,0.6382,1.9854,10.2665,47.2699,0.0541,-0.4768,0.7368,212.3281
19:59:13:962,0.5053,1.989,9.8738,47.0316,0.1055,-0.165,0.6295,211.3906
19:59:13:983,0.048,1.8896,9.043,46.0759,0.1694,0.1227,0.6228,210.5469
19:59:14:001,-0.134,1.8358,8.0111,48.7522,0.2431,0.2476,0.6817,209.8281
19:59:14:024,0.1342,1.9231,7.1324,47.6553,0.3124,0.1991,0.7219,209.1719
19:59:14:042,0.5029,2.0644,6.7805,48.3498,0.38,0.0058,0.7001,208.4062
19:59:14:061,0.625,2.1027,7.2198,48.9448,0.493,-0.0661,0.6516,207.5625
19:59:14:086,0.6035,1.989,7.1707,47.4307,0.6006,-0.0073,0.6346,206.7344
19:59:14:102,0.6298,2.1374,6.5195,49.4638,0.591,0.0377,0.6237,206.0156
19:59:14:121,0.8309,2.5277,6.2681,50.0093,0.4858,0.0177,0.5808,205.3125
19:59:14:142,1.2224,3.1861,7.2126,48.7327,0.4051,-0.0198,0.4948,204.6094
19:59:14:163,1.2978,3.562,7.6304,50.055,0.3651,-0.0401,0.3869,203.9531
19:59:14:184,1.2738,3.9139,7.5957,49.8265,0.3316,0.0095,0.2561,203.3438
19:59:14:203,1.0188,4.0061,8.1512,51.5748,0.2147,0.0673,0.079,202.8438
19:59:14:222,0.6908,3.9187,9.553,50.7138,0.0165,0.088,-0.0845,202.5
19:59:14:243,0.7651,3.7248,11.363,49.8306,-0.1135,0.0952,-0.1979,202.2969
19:59:14:262,1.0536,3.2196,13.1802,51.6753,-0.0828,-0.0148,-0.301,202.2969
19:59:14:284,1.5851,2.5157,13.2149,51.8128,0.1164,-0.015,-0.3945,202.4375
19:59:14:302,1.9646,1.898,11.9376,52.5747,0.2605,-0.0172,-0.48,202.7031
19:59:14:321,2.2291,1.5185,11.4276,51.8333,0.094,-0.0523,-0.5703,203.1094
19:59:14:341,1.8389,0.926,12.5397,52.0887,-0.3241,0.0433,-0.7002,203.6094
19:59:14:361,0.3245,0.1323,13.4364,53.8601,-0.649,0.3541,-0.8374,204.2031
19:59:14:383,-0.8534,-0.0461,12.3207,53.0539,-0.5928,0.7597,-0.6842,204.9219
19:59:14:401,-0.365,0.6279,9.6799,53.6132,-0.269,0.7826,-0.223,205.7656
19:59:14:421,1.1828,1.6191,7.9393,54.0585,-0.0037,0.2031,0.1813,206.5781
19:59:14:441,2.5607,2.4056,8.3415,51.9701,0.0264,-0.761,0.2742,206.9219
19:59:14:461,2.7439,2.6486,9.3243,54.1423,-0.041,-1.2853,0.0559,206.8125
19:59:14:484,2.0471,2.4786,9.0777,53.1148,-0.1057,-1.0318,-0.2818,206.5469
19:59:14:502,0.8812,2.2045,7.5263,52.7295,-0.1928,-0.2827,-0.5404,206.625
19:59:14:521,-0.1783,2.2009,6.1855,53.5731,-0.3409,0.3839,-0.636,207.125
19:59:14:541,-0.4847,2.4152,5.9234,55.179,-0.4285,0.536,-0.5873,207.7812
19:59:14:561,-0.474,2.6689,6.0287,55.179,-0.3294,0.299,-0.5125,208.4062
19:59:14:583,-0.298,2.955,6.2095,54.4487,-0.0911,-0.0776,-0.4597,208.9844
19:59:14:601,-0.2094,3.1813,6.4094,54.6308,0.131,-0.3777,-0.4675,209.5156
19:59:14:621,-0.3985,3.3609,6.6033,56.5821,0.229,-0.4398,-0.5316,210.0156
19:59:14:641,-0.7182,3.4997,7.4138,56.1135,0.1691,-0.3351,-0.5974,210.625
19:59:14:661,-1.0893,3.6386,8.1225,53.8582,0.1055,-0.125,-0.6214,211.2969
19:59:14:686,-1.4232,3.7918,8.7258,55.3601,0.1116,0.0225,-0.5948,212.0469
19:59:14:703,-1.6687,4.0037,9.4345,54.5996,0.1545,0.0785,-0.509,212.7344
19:59:14:721,-1.8698,4.1821,9.4524,55.1643,0.2503,0.1679,-0.4065,213.4219
19:59:14:743,-2.1631,4.3545,9.073,56.018,0.3071,0.287,-0.3047,213.7188
19:59:14:761,-2.357,4.4526,9.0957,55.0895,0.2157,0.3829,-0.2065,214.2031
19:59:14:786,-2.3474,4.3138,9.948,55.9878,0.0104,0.3831,-0.1162,214.5938
19:59:14:804,-2.2457,4.066,11.2337,55.3845,-0.1883,0.2939,-0.0387,214.9219
19:59:14:821,-1.9883,3.7906,12.5685,55.1808,-0.3012,0.153,0.0279,214.9844
19:59:14:840,-1.6184,3.4064,13.7656,55.1387,-0.3633,-0.0267,0.0812,214.9688
19:59:14:861,-1.3035,2.8844,15.3182,55.7514,-0.5545,0.005,0.0338,214.9062
19:59:14:884,-1.4209,1.7603,16.7571,55.0411,-0.5579,0.6364,0.0042,214.9062
19:59:14:902,-2.369,0.7213,16.2089,55.7608,-0.3475,1.3978,0.192,214.7812
19:59:14:921,-2.8059,0.5632,12.8462,54.9995,-0.1526,1.716,0.4399,214.6875
19:59:14:942,-2.5593,0.8278,9.3423,55.9296,-0.135,1.327,0.5762,214.625
19:59:14:961,-2.4085,1.0026,7.8028,54.7175,-0.1353,0.5357,0.6465,214.0938
19:59:14:983,-2.1834,0.7344,7.9477,55.2257,-0.0093,-0.1665,0.728,213.3438
19:59:15:003,-1.9667,0.7284,8.0602,55.9385,0.1595,-0.5013,0.8447,212.4844
19:59:15:026,-1.434,0.92,7.4329,55.528,0.2253,-0.5256,0.8979,211.7031
19:59:15:041,-0.7804,1.1702,6.4274,54.3677,0.0807,-0.316,0.874,210.8906
19:59:15:061,-0.2154,1.4754,5.8899,54.2235,-0.2378,0.0393,0.7573,209.0781
19:59:15:085,0.03,1.6741,5.9844,54.7524,-0.5409,0.4593,0.5922,208.1719
19:59:15:103,-0.3506,1.503,6.2813,54.7914,-0.6772,0.6548,0.5073,207.7188
19:59:15:126,-0.7924,1.23,7.0546,55.7683,-0.5329,0.5632,0.5629,206.875
19:59:15:141,-0.9755,1.0505,7.7525,54.5727,-0.1278,0.3248,0.703,206.125
19:59:15:161,-0.9252,1.1522,7.3144,53.2997,0.2852,0.0737,0.8657,205.4219
19:59:15:184,-0.4967,1.7544,6.0993,51.9559,0.4631,-0.2638,0.9238,204.6094
19:59:15:202,0.2563,2.4475,5.8192,54.1548,0.4461,-0.541,0.7949,204.1719
19:59:15:224,0.6478,2.9694,6.3088,54.2355,0.2847,-0.5722,0.5398,203.2031
19:59:15:241,0.3892,3.0676,7.2725,54.5076,0.0916,-0.4052,0.286,202.2656
19:59:15:260,-0.1495,3.07,8.2505,54.2094,-0.0999,-0.2033,0.0902,201.4844
19:59:15:281,-0.4308,3.0664,9.3423,55.1093,-0.2911,-0.116,-0.109,200.9688
19:59:15:301,-0.7002,2.6067,10.9763,54.0385,-0.4155,-0.1351,-0.2896,200.7188
19:59:15:321,-1.0102,1.6813,12.8797,54.772,-0.4021,-0.1801,-0.3484,200.6406
19:59:15:343,-1.0916,0.6123,14.1702,54.4931,-0.2431,-0.0656,-0.1889,201.0625
19:59:15:361,-0.7828,0.3801,13.8925,54.6216,-0.0557,0.0976,0.1059,201.4688
19:59:15:385,0.3976,1.0624,12.2716,54.3147,0.025,0.0689,0.217,201.6094
19:59:15:404,1.4438,1.9411,10.5897,54.6192,-0.0916,-0.1767,0.0188,201.6406
19:59:15:420,1.773,2.1602,10.2174,55.2894,-0.3385,-0.4214,-0.3346,201.4062
19:59:15:441,1.1852,1.3342,11.3822,55.957,-0.4746,-0.4377,-0.5716,201.2344
19:59:15:461,0.1905,0.4687,12.0597,54.0157,-0.4227,-0.268,-0.5356,201.4375
19:59:15:483,-0.2058,0.2735,11.3079,54.4557,-0.3262,-0.1586,-0.3401,202.0312
19:59:15:501,0.704,0.7368,9.7158,55.5086,-0.3305,-0.3397,-0.2762,202.6875
19:59:15:523,1.5109,1.339,8.9724,57.3598,-0.4125,-0.5559,-0.4467,203.1875
19:59:15:542,1.4271,1.6586,9.1543,55.1166,-0.4642,-0.4664,-0.6749,203.5
19:59:15:561,-0.1866,1.4299,8.1943,55.4789,-0.4304,-0.1056,-0.8131,203.9062
19:59:15:584,-0.7026,1.4718,7.0439,56.4578,-0.3755,0.1919,-0.7934,204.5938
19:59:15:603,-0.6008,1.6909,6.741,56.9406,-0.3316,0.1751,-0.6832,205.4688
19:59:15:621,-0.3004,2.0405,7.3443,55.7635,-0.2477,-0.0672,-0.5884,206.3438
19:59:15:640,-0.2094,2.2284,7.8232,56.325,-0.0772,-0.2632,-0.5668,207.1562
19:59:15:660,-0.1914,2.2284,7.6508,56.0781,0.1316,-0.2406,-0.5689,207.8594
19:59:15:681,-0.2345,2.3182,7.136,56.2774,0.2844,-0.0643,-0.5505,208.5
19:59:15:701,-0.4225,2.6079,7.0702,57.2444,0.3249,0.0689,-0.5375,209.1562
19:59:15:721,-0.7122,2.6366,7.6831,58.0031,0.3196,0.0327,-0.5612,209.8125
19:59:15:741,-1.0785,2.5385,8.7773,57.9535,0.3374,-0.0773,-0.5769,210.4531
19:59:15:760,-1.5837,2.4391,10.0402,56.4751,0.3822,-0.1266,-0.5343,211.0469
19:59:15:784,-1.9811,2.554,10.5526,58.6413,0.5065,-0.0651,-0.4195,211.7344
19:59:15:802,-2.205,2.821,10.2114,58.9661,0.6077,0.1038,-0.2715,212.4062
19:59:15:821,-2.339,2.9946,10.5406,57.8434,0.5539,0.2146,-0.1434,212.9844
19:59:15:882,-2.3426,2.8473,11.9244,59.1901,0.4211,0.1373,-0.0533,213.3906
19:59:15:882,-2.2744,2.6486,13.2113,58.3401,0.3944,-0.0243,0.0423,213.6406
19:59:15:882,-2.0828,2.6223,13.2484,59.2707,0.493,-0.1511,0.1592,213.75
19:59:15:904,-1.3095,2.9191,12.45,59.3388,0.5313,-0.1655,0.283,213.7656
19:59:15:920,-0.5158,2.8665,13.3251,59.027,0.3129,-0.2504,0.2764,213.7031
19:59:15:940,-0.8367,1.8358,15.9766,58.9278,0.049,-0.5181,0.0814,213.3438
19:59:15:961,-2.3175,0.4543,16.1239,57.9961,0.179,-0.4129,-0.0725,213.0938
19:59:15:980,-3.1794,-0.155,11.8358,58.1886,0.599,0.2561,0.1035,213.0625
19:59:16:001,-2.4001,0.3717,8.2254,57.2938,0.6456,0.7653,0.5461,213.2188
19:59:16:021,-1.2114,0.9379,7.9393,57.8947,0.2879,0.4955,0.826,213.0938
19:59:16:041,-0.4201,1.1187,9.5937,57.6978,0.0035,-0.1351,0.8599,212.3906
19:59:16:061,-0.0861,0.9332,9.6835,57.3939,0.0237,-0.4478,0.8127,211.375
19:59:16:086,-0.3925,0.8278,8.2218,56.3235,0.1832,-0.394,0.7616,210.4062
19:59:16:102,-0.2645,0.8386,6.6476,56.6899,0.2549,-0.235,0.817,209.5938
19:59:16:120,0.2156,1.0493,5.3715,56.4063,0.2059,-0.0083,0.9291,208.7969
19:59:16:141,0.7423,1.3485,4.6389,55.1215,0.0703,0.2074,1.0023,207.9062
19:59:16:161,1.0787,1.5389,4.6329,55.8747,-0.0884,0.2668,0.9853,206.9062
19:59:16:184,1.196,1.6095,4.7813,56.3515,-0.1574,0.2068,0.9067,205.7188
19:59:16:202,1.0236,1.7196,4.9034,55.7674,-0.135,0.107,0.8119,205.125
19:59:16:220,0.7734,1.922,4.609,54.775,-0.049,-0.0118,0.7411,204
19:59:16:247,0.8369,1.9196,4.3803,54.6506,0.0117,-0.1698,0.7001,202.5781
19:59:16:262,0.3748,2.1243,5.5343,54.8456,-0.3388,-0.2132,0.6783,201.7188
19:59:16:282,0.0707,2.3314,7.6005,56.7363,-0.4679,0.1413,0.7595,200.2812
19:59:16:303,0.1761,2.9239,9.3986,54.8593,-0.4341,0.5024,0.7486,200.2812
19:59:16:322,1.0967,3.5799,10.106,53.3648,-0.3526,0.6529,0.5187,199.5469
19:59:16:340,0.9339,4.303,10.3143,53.9925,-0.3981,0.54,0.1653,198.6562
19:59:16:360,1.4211,4.0492,10.8327,54.4048,-0.628,0.1506,-0.2379,197.7656
19:59:16:380,1.1685,3.1897,13.4866,55.4548,-0.6895,-0.1682,-0.5164,197.0625
19:59:16:403,2.016,2.821,16.4339,54.7128,-0.3521,-0.0712,-0.7354,196.7969
19:59:16:421,2.1705,2.2344,15.7193,52.8098,-0.1076,0.1743,-1.0347,197.0156
19:59:16:439,0.9267,1.8142,13.4675,52.3315,-0.2384,0.3016,-1.1551,197.6094
19:59:16:460,0.5616,0.8685,12.3901,54.5558,-0.6045,0.3213,-1.1399,198.4531
19:59:16:481,0.139,-0.3896,13.5525,54.0652,-0.7039,0.4596,-0.9538,199.6094
19:59:16:501,-0.4835,-0.6961,14.1439,53.9259,-0.3518,0.6162,-0.5151,202.0781
19:59:16:520,0.0743,-0.3861,12.4129,54.4996,0.1513,0.4321,-0.0419,203.0938
19:59:16:541,1.6389,0.507,9.3483,52.4341,0.3633,-0.214,0.0916,203.4219
19:59:16:559,2.6266,1.4335,7.4054,52.4341,0.1308,-0.8824,-0.125,203.6406
19:59:16:582,2.5356,1.4575,8.0015,52.28,-0.2509,-0.867,-0.4075,203.5469
19:59:16:601,1.5097,1.0277,8.9161,55.204,-0.4754,-0.3106,-0.5388,203.6094
19:59:16:620,0.4754,0.8374,9.1017,52.8055,-0.4442,0.2598,-0.5143,204
19:59:16:646,-0.1699,0.7907,8.4038,52.8844,-0.2431,0.5096,-0.3873,204.625
19:59:16:660,-0.3207,0.9451,7.1253,52.5395,0.0021,0.3653,-0.2195,205.2344
19:59:16:681,-0.1627,1.3258,6.1281,50.428,0.2077,0.0489,-0.1061,205.4844
19:59:16:702,0.1306,1.6957,5.6253,53.6161,0.3313,-0.1546,-0.069,205.8438
19:59:16:721,0.5209,2.0919,5.168,51.9711,0.3252,-0.1985,-0.1167,206.0625
19:59:16:742,0.7196,2.5444,4.8903,52.4749,0.1931,-0.1964,-0.2406,206.2031
19:59:16:760,0.5915,2.8425,5.2315,52.055,0.0253,-0.2201,-0.3694,206.2969
19:59:16:781,0.4179,3.0664,6.3364,52.2437,-0.0716,-0.3037,-0.4667,206.4688
19:59:16:804,0.2838,3.2962,7.8016,50.6559,-0.0722,-0.4819,-0.545,206.9844
19:59:16:819,0.394,3.2603,9.5853,52.7878,-0.0117,-0.6435,-0.6185,207.4531
19:59:16:840,0.4466,3.058,11.46,52.0127,0.0501,-0.5397,-0.6904,208.0781
19:59:16:860,0.1043,2.7887,12.9851,50.7511,0.0874,-0.0936,-0.6853,208.7969
19:59:16:881,-0.2633,2.4702,13.3945,51.7751,0.0844,0.4771,-0.5804,209.6094
19:59:16:902,-0.0502,2.3529,12.6247,49.9986,-0.028,0.7685,-0.46,210.4062
19:59:16:923,0.3473,2.5349,12.3123,51.1998,-0.1659,0.6668,-0.427,211.125
19:59:16:940,0.8596,2.5756,12.5553,49.3776,-0.2567,0.2699,-0.5085,211.6406
19:59:16:964,0.7567,1.327,15.5529,49.5901,-0.2975,-0.227,-0.6792,212.0312
19:59:16:985,-0.292,0.0509,17.0049,50.789,-0.1635,-0.4156,-0.7673,212.5
19:59:17:002,-0.9037,-0.8122,15.2847,51.39,0.2312,-0.0347,-0.6225,213.1562
19:59:17:020,-0.6427,-0.1873,11.0697,48.8966,0.6911,0.5229,-0.2621,213.9844
19:59:17:041,0.3449,0.6075,8.7533,50.6951,0.7816,0.4598,-0.0166,214.8438
19:59:17:060,0.7854,0.75,8.8335,49.5618,0.5728,-0.0313,-0.0754,215.3594
19:59:17:080,0.1593,0.4579,9.6871,50.0331,0.3321,-0.3506,-0.2621,215.4688
19:59:17:103,-0.6272,0.1586,9.2741,48.9932,0.2519,-0.2888,-0.3649,215.5938
19:59:17:121,-1.0617,0.2735,8.0494,48.5582,0.2503,-0.0805,-0.2954,215.9531
19:59:17:143,-0.881,0.6901,6.9696,48.9577,0.2431,0.0244,-0.1239,216.3906
19:59:17:160,-0.3506,1.0768,6.0491,48.4398,0.2733,-0.0576,0.0215,216.75
19:59:17:180,0.151,1.4096,5.4242,48.4135,0.289,-0.2068,0.071,216.8594
19:59:17:201,0.5029,1.5724,5.3751,48.0718,0.2264,-0.3247,0.0444,216.9219
19:59:17:219,0.6022,1.6394,5.678,47.6529,0.126,-0.3556,-0.0326,216.8906
19:59:17:240,0.4909,1.576,6.1784,48.0286,0.0591,-0.3239,-0.1127,216.8594
19:59:17:259,0.3999,1.6167,6.4262,47.1986,0.0376,-0.2196,-0.158,216.9062
19:59:17:279,0.4311,1.8944,6.8475,47.2387,0,-0.1138,-0.1572,217.0312
19:59:17:302,0.2168,2.3984,7.9453,45.9559,-0.0703,-0.0787,-0.1737,217.2344
19:59:17:320,0.2491,2.6941,8.9317,47.8031,-0.0589,-0.0379,-0.2121,217.4375
19:59:17:340,0.3461,3.0496,8.8455,46.3596,0.0879,0.0569,-0.2536,217.625
19:59:17:360,0.1881,3.313,8.97,44.7337,0.1864,0.0505,-0.3556,217.8438
19:59:17:379,0.5747,3.0113,9.954,46.3567,0.1619,-0.071,-0.5005,218.1094
19:59:17:403,0.8776,2.3565,10.877,46.6475,0.07,-0.1895,-0.6725,218.6562
19:59:17:423,0.8393,1.4623,12.0022,46.4227,-0.1137,-0.2028,-0.8435,219.2188
19:59:17:443,1.0009,0.8242,12.9324,44.7413,-0.371,-0.0323,-0.9002,220.0156
19:59:17:461,1.4977,0.5022,12.6882,45.123,-0.5526,0.2726,-0.8802,221
19:59:17:480,1.9741,0.082,12.699,44.4863,-0.7534,0.365,-0.9135,221.9688
19:59:17:504,1.1266,-0.8446,14.3342,45.844,-0.9894,0.2276,-1.0725,222.9219
19:59:17:520,-0.0933,-1.6909,15.7348,44.7335,-0.9904,0.1517,-1.1183,223.8906
19:59:17:541,0.121,-1.4826,14.5281,43.0941,-0.5606,0.299,-0.7857,226.1875
19:59:17:561,2.2878,-0.2017,10.8734,44.3307,0.6171,0.1932,0.0005,227.0156
19:59:17:581,4.4126,1.3964,7.3551,44.4029,0.6277,-0.5064,-0.3455,227.25
19:59:17:602,5.1656,2.1243,6.2586,43.5571,0.282,-1.0166,-1.0267,227.2812
19:59:17:621,4.0128,1.4886,7.5658,42.4376,-0.0272,-0.9008,-1.5753,227.7656
19:59:17:642,2.3608,0.5369,8.4648,43.5907,-0.1417,-0.3817,-1.8052,228.3125
19:59:17:660,0.9829,0.1203,8.0722,44.3567,-0.1702,0.1405,-1.8076,228.3125
19:59:17:681,0.2515,0.0592,7.1588,43.6194,-0.1736,0.3325,-1.7128,230.8438
19:59:17:704,-0.3135,0.2352,7.0331,43.6381,-0.0557,0.1927,-1.5578,232.9375
19:59:17:721,-0.3315,0.4926,7.1983,42.5686,0.1856,0.0276,-1.3873,236.9062
19:59:17:742,-0.0047,1.0744,6.6273,41.261,0.3454,-0.0494,-1.3074,236.9062
19:59:17:762,0.1988,1.6849,6.0084,43.025,0.3265,-0.096,-1.3271,238.5938
19:59:17:778,0.0779,2.0632,5.9102,42.9117,0.1643,-0.1183,-1.3902,240.1875
19:59:17:800,-0.4452,2.3433,6.723,43.6583,-0.0005,-0.1295,-1.4134,241.7188
19:59:17:820,-0.8295,2.5863,8.2122,42.6509,-0.0415,-0.0869,-1.4036,243.1875
19:59:17:839,-1.3311,2.6438,9.4213,42.1888,-0.0067,0.0401,-1.3538,244.7969
19:59:17:859,-2.5533,2.4678,10.3215,42.4775,0.0514,0.2058,-1.1748,246.4375
19:59:17:880,-4.343,2.0058,11.3929,41.8214,0.2043,0.2481,-0.7199,248.0469
19:59:17:902,-5.2037,1.6682,12.7385,41.1441,0.5694,0.1373,-0.0802,249.5156
19:59:17:960,-4.5668,2.1123,12.6164,41.1254,0.8895,-0.1157,0.4519,250.8594
19:59:17:960,-2.2457,3.2244,12.0118,40.217,0.9473,-0.4422,0.6133,251.8125
19:59:17:960,0.1174,3.9582,12.122,41.077,0.7646,-0.5639,0.3427,251.6406
19:59:17:978,0.9339,3.6757,13.0964,39.8164,0.5699,-0.21,0.0431,251.0625
19:59:17:999,0.71,3.5716,13.3622,39.4532,0.4487,0.3365,-0.1575,250.6094
19:59:18:018,0.4478,3.5656,12.8773,39.5288,0.4381,0.5909,-0.3425,250.5156
19:59:18:041,-0.0669,3.137,12.0609,39.9601,0.4671,0.409,-0.4904,250.625
19:59:18:059,-0.3949,2.1865,11.7449,40.1643,0.5526,0.0353,-0.5135,250.875
19:59:18:078,-0.3171,1.2827,11.4791,39.5208,0.6759,-0.2041,-0.4792,251.2969
19:59:18:101,-0.134,0.999,10.3251,39.0576,0.6655,-0.2981,-0.439,251.9062
19:59:18:119,0.3126,1.2935,8.8754,40.9143,0.4306,-0.3285,-0.5106,252.5469
19:59:18:140,0.5711,1.4132,8.2685,39.5739,0.1196,-0.2563,-0.6627,253.1719
19:59:18:159,0.364,1.2109,8.1392,39.1961,-0.1411,-0.0675,-0.7418,253.7656
19:59:18:179,-0.2034,1.1378,8.0027,37.8494,-0.2719,0.1293,-0.693,254.1094
19:59:18:201,-1.1587,1.2252,7.883,39.9089,-0.2445,0.1131,-0.5151,254.9219
19:59:18:218,-2.0793,1.1726,8.2063,37.2871,-0.0256,-0.1687,-0.1212,255.7656
19:59:18:239,-1.6136,1.5592,8.5079,38.3462,0.3425,-0.545,0.3291,256.4844
19:59:18:258,0.1043,2.7372,8.9281,38.391,0.8093,-0.8829,0.515,257.0312
19:59:18:280,1.6258,3.7559,8.5486,37.6006,1.2064,-1.0885,0.3536,257.1094
19:59:18:301,2.0831,4.2407,7.4844,39.1233,1.3145,-1.0337,-0.0161,256.7344
19:59:18:318,1.7862,3.8613,6.4477,38.2766,1.0757,-0.6353,-0.3199,256.4219
19:59:18:338,1.2475,3.4387,5.8611,37.3073,0.6266,-0.0904,-0.4938,256.5
19:59:18:359,0.2096,3.3525,7.3539,37.9313,0.2384,0.2401,-0.5756,256.9219
19:59:18:380,-0.3662,3.3776,8.1021,38.3191,0.1726,0.2284,-0.5892,257.5156
19:59:18:400,-0.8139,3.5261,8.241,37.0012,0.3017,0.0271,-0.537,258.125
19:59:18:419,-0.7074,3.7439,8.6947,37.1398,0.3561,-0.1775,-0.4206,258.7188
19:59:18:438,-0.183,3.635,9.5135,38.189,0.2975,-0.3261,-0.3202,259.3594
19:59:18:458,0.1234,3.1765,10.6759,38.1873,0.1601,-0.3615,-0.2973,259.9531
19:59:18:478,0.2994,2.5085,11.9903,36.6095,0.0144,-0.3463,-0.252,260.4375
19:59:18:498,0.6753,2.2691,11.9173,36.7959,0.017,-0.2779,-0.1303,260.8594
19:59:18:518,1.8042,2.9072,10.3371,37.6466,0.0956,-0.182,0.0298,261.2656
19:59:18:538,2.6924,3.6266,9.5326,37.0872,-0.0224,-0.2355,-0.0059,261.5625
19:59:18:558,2.6062,3.0197,11.369,37.0872,-0.3699,-0.4744,-0.3583,261.6562
19:59:18:578,1.4869,1.5556,13.3957,35.9286,-0.6637,-0.5274,-0.7396,261.7031
19:59:18:601,0.4526,0.7799,13.2568,36.9719,-0.6511,-0.1245,-0.831,262.2031
19:59:18:619,1.0524,1.2372,10.4041,37.8988,-0.3952,0.2721,-0.6097,263.0938
19:59:18:638,2.2279,2.1267,8.2003,36.7138,-0.2266,0.1791,-0.4294,264.0469
19:59:18:659,2.4171,2.2907,7.6676,36.9643,-0.2719,-0.2286,-0.5529,264.4062
19:59:18:679,1.7,2.1554,7.2258,37.8263,-0.376,-0.3008,-0.7985,264.8906
19:59:18:701,0.8884,2.226,6.3687,37.0928,-0.4756,-0.0028,-0.9306,265.3906
19:59:18:720,0.4526,2.4918,5.666,38.2671,-0.5414,0.2771,-0.9628,266.2188
19:59:18:738,-0.0166,2.6929,5.6313,37.0627,-0.5222,0.2177,-0.9721,267.2344
19:59:18:758,-0.4165,2.6845,6.1712,36.3079,-0.424,-0.108,-0.9785,268.2344
19:59:18:779,-0.7026,2.6354,6.8392,37.427,-0.2993,-0.3623,-0.9599,269.25
19:59:18:802,-0.936,2.791,6.5411,36.7922,-0.1702,-0.2454,-0.9109,270.3281
19:59:18:820,-1.1324,3.2448,5.8958,37.8606,-0.0911,0.0145,-0.8382,271.9688
19:59:18:838,-1.3969,3.6925,6.0527,36.8473,-0.1047,0.0974,-0.7668,273.0469
19:59:18:858,-1.5274,4.1426,7.0163,39.3857,-0.1212,-0.0222,-0.6691,274
19:59:18:879,-1.3119,4.467,8.5019,39.0936,-0.1177,-0.1908,-0.5647,274.8125
19:59:18:901,-1.0497,4.5975,9.9648,38.6004,-0.0898,-0.2385,-0.5186,275.5781
19:59:18:919,-1.258,4.4658,10.9548,37.7881,-0.0357,-0.0845,-0.5412,276.2344
19:59:18:938,-1.7704,3.8864,10.8626,39.9853,0.0261,0.1605,-0.5572,276.8594
19:59:18:958,-2.1738,3.3214,10.9021,39.5161,-0.0072,0.2984,-0.4682,277.4531
19:59:18:978,-1.9727,3.0975,11.2349,39.9979,-0.1129,0.3267,-0.28,278.0781
19:59:18:999,-1.786,3.1298,11.958,39.8229,-0.2416,0.2995,-0.1058,278.5625
19:59:19:020,-1.3873,3.5847,12.9073,41.0601,-0.395,0.2971,-0.0011,278.8281
19:59:19:040,-1.3658,3.5716,14.8214,40.9404,-0.5302,0.1003,-0.036,278.875
19:59:19:059,-2.5234,1.9854,18.0201,41.3031,-0.228,-0.5034,-0.1721,278.8125
19:59:19:079,-3.0441,-0.246,18.9335,43.2465,0.4104,-0.0203,0.2684,278.8125
19:59:19:101,-2.2097,-0.3777,15.4858,41.3377,0.9875,0.3994,0.7419,278.7969
19:59:19:118,-0.3387,0.9655,9.5566,43.2016,1.0402,0.1964,0.8218,279.1875
19:59:19:141,1.0224,2.1458,6.085,40.7995,0.5694,-0.4004,0.5478,278.9844
19:59:19:158,1.3612,2.0967,7.0798,43.7533,0.0519,-0.6936,0.1911,278.2031
19:59:19:178,1.0332,1.3402,9.2286,43.1494,-0.2099,-0.4182,-0.0395,277.3281
19:59:19:199,0.1246,0.8517,9.8702,44.5907,-0.2788,0.0577,-0.0914,276.7969
19:59:19:218,-0.7038,0.7129,9.2429,44.0136,-0.1963,0.3549,0.0255,276.7031
19:59:19:238,-0.9252,0.902,7.8256,45.2634,-0.0612,0.3514,0.1981,276.7969
19:59:19:258,-0.7134,1.2001,6.5566,45.9411,0.0645,0.1179,0.3475,276.875
19:59:19:278,-0.4823,1.4671,5.976,45.832,0.1891,-0.1026,0.4529,276.7812
19:59:19:298,-0.3291,1.6562,5.7737,45.5987,0.2988,-0.1916,0.5184,276.5
19:59:19:318,-0.1507,1.8657,5.399,46.0521,0.3356,-0.1729,0.5424,276.0938
19:59:19:338,0.1474,2.3098,5.0686,46.1754,0.2698,-0.1245,0.4708,275.6094
19:59:19:361,0.1737,2.7491,5.0902,46.4049,0.1244,-0.0933,0.3456,275.0938
19:59:19:383,0.121,3.0963,5.9401,45.3943,-0.017,-0.1205,0.2218,274.25
19:59:19:403,-0.1615,3.3752,7.7657,47.6572,0.0037,-0.1202,0.1477,273.8125
19:59:19:420,0.0229,3.6817,8.976,47.0109,0.1353,-0.1431,0.0441,273.5312
19:59:19:438,0.048,3.7834,9.7577,46.5182,0.2431,-0.157,-0.08,273.3438
19:59:19:458,-0.1447,3.4662,9.9325,49.9446,0.2003,-0.1367,-0.1564,273.25
19:59:19:478,-0.2525,3.0041,10.5705,49.4741,0.0115,-0.0488,-0.1524,273.2969
19:59:19:499,-0.0645,2.651,11.8466,48.2225,-0.159,0.1434,-0.1007,273.4844
19:59:19:520,0.3078,2.396,12.7337,51.0625,-0.1811,0.2337,-0.0331,273.6875
19:59:19:538,0.7052,1.9279,13.0413,50.1965,-0.0341,0.1331,0.0657,273.8281
19:59:19:558,1.4486,1.6466,12.0346,49.2096,0.073,-0.0635,0.1336,273.8594
19:59:19:579,2.2842,2.074,10.1994,49.6223,-0.1332,-0.3748,-0.0006,273.8125
19:59:19:601,2.7044,1.9076,10.2653,51.2102,-0.547,-0.573,-0.2682,273.6719
19:59:19:621,2.0807,0.9822,12.8007,51.437,-0.7364,-0.4499,-0.3873,273.5938
19:59:19:638,1.3696,0.2496,14.8825,50.6206,-0.4293,-0.0779,-0.2483,273.6719
19:59:19:658,1.6545,0.6315,13.3466,52.0278,0.0823,0.099,-0.0669,274.0312
19:59:19:678,2.945,1.7496,9.5242,51.6669,0.3039,-0.2086,-0.1817,274.5156
19:59:19:701,3.9027,2.4511,6.8487,51.3707,0.1134,-0.6361,-0.5679,274.7812
19:59:19:720,3.5124,2.4583,7.0211,51.5949,-0.2482,-0.655,-0.9966,274.9219
19:59:19:738,2.265,1.7125,8.2434,52.8248,-0.4285,-0.2007,-1.24,275.4062
19:59:19:758,0.8692,1.3282,8.1895,51.5311,-0.4296,0.2705,-1.268,276.375
19:59:19:778,-0.7038,1.5197,6.1041,52.9405,-0.2919,0.3727,-1.1713,277.7344
19:59:19:799,-0.8319,1.8286,5.836,55.0649,-0.1103,0.0891,-1.0086,279.1875
19:59:19:820,-0.4691,2.25,5.6492,53.2942,0.0738,-0.2427,-0.8174,280.4688
19:59:19:838,0.1665,2.9144,5.3727,52.1745,0.2176,-0.4188,-0.648,281.6719
19:59:19:857,0.7064,3.4363,5.496,52.8777,0.2732,-0.5154,-0.5926,282.7344
19:59:19:877,1.105,3.8325,5.7474,53.8193,0.2892,-0.5996,-0.6371,283.5625
19:59:19:899,1.3181,3.9786,6.5686,53.0684,0.237,-0.6377,-0.7455,284.3281
19:59:19:921,1.7287,3.9271,8.5474,54.7585,0.1214,-0.6049,-0.8781,285.1094
19:59:19:939,1.6581,3.9211,10.8878,53.5918,0.0527,-0.4694,-1.0195,286
19:59:19:958,0.534,3.5955,11.758,53.5239,0.1598,-0.1663,-1.1841,286.9688
19:59:20:028,-1.1024,3.2998,10.8506,54.5375,0.3452,0.1711,-1.2265,288.125
19:59:20:029,-1.7225,3.3022,10.8064,55.3142,0.3641,0.2516,-1.0294,290.1406
19:59:20:029,-1.5849,3.4327,11.6982,56.3052,0.2818,0.1301,-0.7146,291.4688
19:59:20:039,-1.3203,3.4806,12.1208,55.5961,0.2868,-0.0406,-0.4454,292.6094
19:59:20:058,-1.2389,3.8529,11.2672,56.4022,0.2911,-0.0488,-0.2459,293.4219
19:59:20:079,-1.0019,4.3102,11.2301,56.1883,0.0812,-0.0158,-0.117,293.9375
19:59:20:101,-0.7361,3.9008,13.9092,55.6177,-0.2831,-0.231,-0.1303,294.2344
19:59:20:119,-1.2281,2.1973,18.378,56.5482,-0.4852,-0.6451,-0.239,294.3125
19:59:20:138,-2.2899,0.264,19.301,56.6215,-0.1337,-0.5636,-0.2051,294.4375
19:59:20:158,-2.09,-0.1646,14.5186,55.2309,0.5473,0.132,0.1565,294.6875
19:59:20:177,-0.3064,1.2288,9.5434,55.6749,0.9073,0.5176,0.6447,295.0781
19:59:20:197,1.1948,2.3649,7.725,55.4559,0.7931,0.1378,0.7539,295.1875
19:59:20:218,1.2164,2.299,8.1895,56.6555,0.5023,-0.4057,0.4687,294.7031
19:59:20:242,0.3365,1.6562,8.7976,54.4057,0.2336,-0.4672,0.1549,293.7969
19:59:20:257,-0.2369,1.4527,8.1201,54.4001,0.0863,-0.0837,0.0609,293.1094
19:59:20:278,-0.1519,1.8765,6.9002,55.4981,0.0386,0.258,0.1549,292.8438
19:59:20:298,0.0276,2.2104,6.0586,55.078,0.0333,0.2992,0.225,292.7969
19:59:20:318,-0.0621,2.2045,5.7378,55.3821,0.0306,0.1935,0.2141,292.5781
19:59:20:340,-0.0957,2.2128,5.7534,54.2697,0.025,0.0958,0.2138,292.2656
19:59:20:359,0.0636,2.2368,6.0132,54.6953,0.02,0.0319,0.2399,292
19:59:20:378,0.2982,2.3637,6.3615,55.8772,0.0301,0.0428,0.275,291.7344
19:59:20:399,0.5628,2.5049,6.5207,55.3634,0.0647,0.1024,0.2695,291.4688
19:59:20:418,0.5101,2.6223,6.5483,55.4792,0.1036,0.1509,0.2066,291.1562
19:59:20:437,0.2862,2.7899,7.1696,55.4331,0.1079,0.0995,0.14,290.8281
19:59:20:457,0.1426,3.0771,8.4014,56.1094,0.1033,0.0028,0.1152,290.5781
19:59:20:478,0.2072,3.3669,9.1244,54.5286,0.343,0.0537,0.0977,290.4062
19:59:20:499,0.3078,3.8601,8.8407,55.6811,0.4453,0.0356,0.0199,290.2812
19:59:20:519,0.212,4.0983,8.1596,53.8889,0.3723,-0.1197,-0.0781,290.1562
19:59:20:538,0.145,3.9893,8.138,55.0028,0.1497,-0.3884,-0.1495,290.0312
19:59:20:557,-0.2297,4.0061,9.887,55.0028,0.0128,-0.4512,-0.1018,290.0312
19:59:20:578,0.0288,3.6961,11.5797,55.7538,0.066,-0.3852,0.0772,290.0625
19:59:20:600,0.4682,3.884,12.2189,55.2948,0.171,-0.2382,0.1813,290.3906
19:59:20:619,1.3026,4.2611,10.8626,53.0942,0.0298,-0.2307,0.1467,290.5938
19:59:20:638,2.1992,4.3976,10.695,55.5143,-0.3417,-0.4675,-0.064,290.5781
19:59:20:658,2.7714,3.4052,13.926,54.026,-0.3712,-0.3921,-0.2722,290.4375
19:59:20:677,2.6361,2.0931,15.4212,54.0487,-0.0708,0.0329,-0.2986,290.3125
19:59:20:699,2.1609,1.5293,13.683,55.8555,0.2458,0.4502,-0.1681,290.875
19:59:20:719,2.295,1.6897,10.0127,55.6307,0.338,0.3847,-0.0994,290.875
19:59:20:737,2.5188,2.0644,7.2474,54.9524,0.183,-0.011,-0.1625,291.2031
19:59:20:757,2.5811,2.3278,6.5411,54.3125,-0.1273,-0.2851,-0.3218,291.2969
19:59:20:777,2.3656,2.2919,7.5718,52.6478,-0.3305,-0.1069,-0.5047,291.3438
19:59:20:798,1.8963,2.1721,7.8938,55.1222,-0.3886,0.287,-0.6571,291.5312
19:59:20:819,1.214,2.147,7.1899,52.875,-0.3598,0.5331,-0.7498,292.2188
19:59:20:837,0.5927,2.0381,6.237,51.786,-0.2783,0.568,-0.7684,292.8594
19:59:20:857,-0.0394,2.0297,5.2913,51.626,-0.1928,0.4225,-0.6829,293.5938
19:59:20:877,-0.3411,2.2667,4.7766,53.1562,-0.1153,0.1826,-0.5519,294.3125
19:59:20:898,-0.444,2.6175,4.5252,52.8301,-0.1071,-0.0464,-0.4323,295.0469
19:59:20:918,-0.5877,3.0592,5.0124,52.6821,-0.1822,-0.1615,-0.3252,295.7031
19:59:20:937,-1.0653,3.4674,6.4058,52.3902,-0.2445,-0.149,-0.179,296.2188
19:59:20:957,-1.6256,3.8876,8.903,53.6799,-0.1073,-0.0963,0.0204,296.6719
19:59:20:977,-1.3131,4.364,11.1631,53.0659,0.2722,0.0588,0.1674,296.9844
19:59:20:997,-0.5685,5.0703,11.2828,52.7572,0.6213,0.23,0.1419,297.0938
19:59:21:019,-0.4967,5.6904,10.2916,52.4984,0.7055,0.3711,-0.0147,296.9844
19:59:21:037,-0.857,5.852,9.4381,52.9621,0.5116,0.5853,-0.1593,296.7656
19:59:21:057,-1.5346,5.791,9.6464,53.3369,0.2375,0.7973,-0.227,296.6562
19:59:21:077,-2.0673,5.4354,10.7202,52.4824,0.1007,0.8676,-0.1993,296.6719
19:59:21:097,-2.1822,5.1793,11.6647,52.186,0.1185,0.8074,-0.1433,296.75
19:59:21:118,-2.0637,5.0955,11.5976,54.3069,0.0898,0.5871,-0.1385,296.8594
19:59:21:138,-2.1547,4.8441,12.1004,51.1398,-0.0013,0.2702,-0.1564,296.9219
19:59:21:158,-2.5138,3.969,13.7237,53.0347,-0.0067,0.1613,-0.1156,296.9375
19:59:21:177,-3.4475,1.5808,13.7452,50.0304,0.1752,0.394,0.0993,297.0156
19:59:21:201,-2.9735,1.8046,9.887,52.0244,0.4269,0.7347,0.4676,297.1562
19:59:21:218,-2.017,2.6761,7.2617,53.4896,0.4109,0.6108,0.7762,297.1406
19:59:21:237,-1.3849,2.7695,7.6747,51.8455,0.1278,-0.0552,0.8434,296.75
19:59:21:257,-1.0557,2.1626,7.9094,52.4496,-0.1712,-0.622,0.7856,295.8906
19:59:21:276,-0.4991,1.8729,7.4257,52.2642,-0.4418,-0.8124,0.7901,294.9375
19:59:21:297,0.534,2.1386,7.3599,50.8334,-0.6605,-0.9359,0.8319,294.0938
19:59:21:319,1.7634,2.6654,7.7154,51.6818,-0.693,-1.0768,0.7587,293.3438
19:59:21:337,2.2327,2.8545,9.134,49.5671,-0.5193,-1.1841,0.5121,292.5469
19:59:21:357,1.1422,2.2859,9.1316,50.541,-0.0919,-1.0193,0.1728,291.8281
19:59:21:377,-0.3327,1.5461,7.0163,50.8612,0.3672,-0.48,0.0117,291.2812
19:59:21:398,-0.8558,1.6047,4.6628,50.3176,0.5561,-0.0134,0.1941,291.1094
19:59:21:419,-0.5913,2.5612,4.0846,49.0061,0.4288,0.0031,0.5392,291.2031
19:59:21:439,0.2946,3.4387,5.0878,48.0808,0.2045,-0.2169,0.8119,291.0312
19:59:21:465,1.0871,4.0851,6.9361,50.818,0.0298,-0.3879,0.8844,290.4219
19:59:21:477,1.5779,4.6106,9.3351,51.2021,-0.0586,-0.3943,0.8,289.5781
19:59:21:499,1.3708,4.7076,10.8051,49.2935,0.0069,-0.1578,0.5872,288.6562
19:59:21:520,0.6298,4.7268,10.3407,50.1418,0.2218,0.1395,0.3882,288.2188
19:59:21:537,0.5819,5.0093,9.4369,49.165,0.3758,0.2878,0.3126,287.4844
19:59:21:560,1.0883,5.1972,10.0438,49.1789,0.3015,0.1056,0.2295,286.9688
19:59:21:578,1.4163,4.8716,11.9987,48.1364,0.0985,-0.0893,0.0386,286.5156
19:59:21:598,1.2415,3.9726,13.4328,47.9764,-0.0389,0.0255,-0.187,286.1406
19:59:21:620,0.8118,3.119,12.614,48.2656,-0.0005,0.3799,-0.3018,285.9844
19:59:21:636,0.8345,2.8952,10.8279,48.395,0.0807,0.6332,-0.2397,286.0938
19:59:21:658,1.621,3.0879,9.638,47.5287,0.0685,0.5094,-0.1346,286.3594
19:59:21:677,1.9777,3.2687,10.0402,48.9667,-0.0448,0.1032,-0.1804,286.5625
19:59:21:697,1.5384,2.3888,11.934,48.2758,-0.2381,-0.2315,-0.3971,286.6406
19:59:21:719,0.6011,1.3366,13.0138,47.1818,-0.3156,-0.0989,-0.541,286.8125
19:59:21:738,0.4382,0.847,11.7652,46.353,-0.1704,0.2923,-0.4174,287.2812
19:59:21:757,1.0404,1.3138,8.8371,47.2801,0.106,0.4905,-0.1372,287.9219
19:59:21:777,2.1657,2.0141,6.9696,47.7593,0.237,0.2252,0.0468,288.3281
19:59:21:799,2.8624,2.2919,6.6512,48.7986,0.1659,-0.271,-0.0083,288.3906
19:59:21:822,2.6397,2.3757,6.9996,46.9353,0.0029,-0.5184,-0.2129,288.2969
19:59:21:839,2.0412,2.6414,6.7027,46.6124,-0.1387,-0.4025,-0.4022,288.375
19:59:21:857,1.4857,2.9203,5.763,46.8959,-0.2471,-0.1197,-0.5452,288.7344
19:59:21:878,0.8692,2.8964,5.3033,48.2829,-0.5689,0.0345,-0.7814,289.25
19:59:21:898,-0.0885,2.7504,6.3244,47.5954,-0.5723,-0.0395,-0.762,289.25
19:59:21:921,-0.7876,2.5744,7.3946,46.054,-0.3835,-0.0744,-0.6222,289.8906
19:59:21:938,-1.0988,2.7336,7.6963,45.4653,-0.143,-0.0771,-0.4414,291.5312
19:59:21:957,-0.9755,3.1801,7.2234,46.9318,0.0003,-0.0968,-0.3119,292.3438
19:59:21:977,-0.6763,3.7703,6.911,46.9716,0.0261,-0.1596,-0.2813,293.0625
19:59:21:998,-0.5745,4.2156,7.4377,47.2288,0.0272,-0.2156,-0.3111,293.5781
19:59:22:020,-0.711,4.358,8.4038,47.1579,0.1041,-0.2446,-0.3202,293.9375
19:59:22:043,-1.0821,4.3664,9.0095,46.2072,0.2128,-0.1652,-0.2685,294.2969
19:59:22:098,-1.2904,4.4574,8.8515,45.5244,0.232,0.0034,-0.1718,294.6875
19:59:22:098,-1.1491,4.6406,8.4529,45.5508,0.1105,0.1362,-0.1095,295.0938
19:59:22:098,-1.118,4.8668,8.7593,44.0374,-0.0645,0.1786,-0.0877,295.4375
19:59:22:116,-1.0653,4.7926,9.9792,44.0497,-0.1489,0.156,-0.0901,295.6406
19:59:22:137,-1.3538,4.5257,11.2421,45.4279,-0.1209,0.1637,-0.0448,295.7344
19:59:22:156,-1.689,4.194,11.9615,43.3298,-0.0519,0.3006,0.0729,295.7969
19:59:22:176,-1.689,4.1689,11.5162,46.232,-0.1353,0.5168,0.185,295.8594
19:59:22:196,-1.4544,4.2359,11.4528,45.2793,-0.3547,0.793,0.196,295.7344
19:59:22:218,-1.5753,3.7571,11.8694,44.6521,-0.5697,0.9701,0.1813,295.5938
19:59:22:237,-1.9619,2.7934,12.8977,44.6805,-0.592,1.0324,0.2492,295.2188
19:59:22:256,-2.6658,1.91,13.3933,46.0907,-0.3334,0.9522,0.4663,294.8125
19:59:22:276,-3.0417,1.4838,12.1244,44.9625,0.0115,0.6265,0.8074,294.375
19:59:22:297,-2.2421,1.7352,9.6763,43.0396,0.1425,0.0462,1.0647,293.7656
19:59:22:318,-0.9528,2.4092,8.1799,45.9619,0.0059,-0.5929,1.0791,292.8906
19:59:22:337,0.0516,2.6654,8.7007,44.9363,-0.1571,-0.803,0.9195,291.7812
19:59:22:356,0.2563,2.3349,9.1232,45.4329,-0.2661,-0.5951,0.7629,290.5781
19:59:22:377,0.1713,1.7448,8.8527,44.7809,-0.3334,-0.2188,0.7158,289.5625
19:59:22:398,-0.055,1.4263,8.1679,46.0668,-0.3499,0.1512,0.7994,288.7344
19:59:22:418,-0.0071,1.5197,7.2821,46.6212,-0.2677,0.3472,0.9305,288.0156
19:59:22:436,0.3569,1.9794,6.0144,45.2053,-0.159,0.3043,0.9901,287.5938
19:59:22:457,0.862,2.5169,4.8963,44.1819,-0.1366,0.0691,0.9217,286.6406
19:59:22:477,1.2152,2.8162,4.6557,44.8986,-0.176,-0.1721,0.7677,285.5
19:59:22:496,1.3433,2.8641,5.4661,44.6461,-0.2059,-0.2635,0.5893,284.3594
19:59:22:519,1.1517,2.8078,6.3208,44.9937,-0.2115,-0.1333,0.4298,282.8438
19:59:22:537,0.8345,2.7839,6.8044,44.9937,-0.2858,0.1288,0.3206,282.125
19:59:22:556,0.8908,2.8485,7.0702,46.3149,-0.4557,0.4849,0.2095,281.5781
19:59:22:576,1.0236,3.046,9.4728,45.257,-0.6847,0.7144,0.0085,281.1562
19:59:22:597,0.0372,2.4259,10.2437,45.257,-0.767,1.0271,-0.2576,280.7812
19:59:22:620,-1.0952,1.8896,10.385,45.6951,-0.7571,1.2676,-0.3545,280.5312
19:59:22:637,-1.5944,1.6263,11.3534,43.8135,-0.7305,1.1142,-0.2267,280.5312
19:59:22:656,-1.5489,1.5712,12.997,45.1679,-0.5798,0.467,-0.0235,280.7031
19:59:22:676,-0.8989,1.4419,14.0098,45.8231,-0.2762,-0.2848,0.1632,280.8281
19:59:22:696,0.4825,1.4551,13.6698,46.7697,0.0605,-0.7319,0.3576,280.8125
19:59:22:716,2.0974,1.813,12.6607,44.9857,0.2149,-0.8398,0.4489,280.6875
19:59:22:735,3.1904,2.2512,11.8155,46.5367,0.0879,-0.6254,0.282,280.4375
19:59:22:756,2.8504,1.983,12.2381,44.1585,-0.2354,-0.3184,-0.19,280.0781
19:59:22:776,1.2619,0.7488,12.675,44.6966,-0.4855,0.0212,-0.783,279.7188
19:59:22:796,-0.3099,-0.2077,11.7964,45.9967,-0.478,0.3794,-1.1186,279.6719
19:59:22:816,-0.9085,-0.3944,10.2102,46.2916,-0.3348,0.5791,-1.1008,280.7188
19:59:22:836,-0.608,-0.021,8.5307,45.9465,-0.1558,0.4361,-0.9322,281.9219
19:59:22:856,0.0911,0.3262,7.7693,46.374,-0.0807,-0.0464,-0.8342,283.0938
19:59:22:876,0.2826,0.4016,7.8914,46.5496,-0.1387,-0.5005,-0.889,284.0625
19:59:22:897,-0.1256,0.4651,7.7693,46.8889,-0.2093,-0.573,-0.9758,285.0156
19:59:22:922,-0.438,0.6219,6.6704,46.9182,-0.2613,-0.3005,-0.9804,286.0625
19:59:22:936,-0.2202,1.0648,5.1213,47.385,-0.3547,0.083,-0.9098,286.6406
19:59:22:956,0.4311,1.9315,4.263,46.2661,-0.5318,0.2537,-0.877,287.7344
19:59:22:976,0.7112,2.4187,4.8364,46.146,-0.7047,0.107,-0.9996,288.8125
19:59:22:996,-0.1076,1.7687,6.8308,46.0005,-0.7529,-0.1647,-1.24,289.7812
19:59:23:016,-1.6651,1.0253,7.4126,45.9348,-0.547,-0.1397,-1.3508,290.7188
19:59:23:036,-2.6455,0.8482,6.9026,48.066,-0.33,0.2731,-1.125,291.9375
19:59:23:056,-2.9088,1.1965,6.1987,45.3708,-0.2911,0.6526,-0.7205,293.4219
19:59:23:076,-2.7484,1.7125,6.7266,46.9455,-0.4309,0.7208,-0.3894,294.8438
19:59:23:096,-2.1535,2.0381,8.9568,46.2805,-0.5707,0.3791,-0.194,296.1406
19:59:23:116,-2.4444,1.9818,11.4959,48.0741,-0.4993,-0.0832,-0.1713,296.5156
19:59:23:135,-3.3877,1.5892,12.9492,48.1245,-0.2442,-0.2923,-0.1886,296.6719
19:59:23:156,-3.8582,1.2923,13.0593,46.8653,0.0272,-0.186,-0.0906,296.8125
19:59:23:176,-3.8821,1.2216,13.0916,48.4661,0.1302,0.0359,0.0868,297.0156
19:59:23:196,-3.5984,1.1391,13.9152,48.0883,0.09,0.189,0.2322,297.125
19:59:23:216,-2.9292,1.0684,14.3869,48.0012,0.0868,0.2769,0.3342,297.0312
19:59:23:236,-2.0936,1.3557,13.92,46.3797,0.1207,0.4553,0.3773,296.7812
19:59:23:257,-1.7668,1.7735,13.6124,47.9026,-0.0469,0.8441,0.2663,296.3906
19:59:23:277,-2.4851,1.5209,14.0972,48.8429,-0.6269,1.7075,-0.2834,296
19:59:23:297,-4.0126,0.1574,14.8825,48.8618,-0.4178,1.6838,-0.3037,296
19:59:23:319,-5.6502,-1.2492,14.4036,49.0244,0.102,1.3709,0.0921,295.6719
19:59:23:336,-5.6406,-1.8585,12.0705,48.5602,0.6043,0.7978,0.6631,295.5938
19:59:23:356,-4.1179,-1.1953,9.0837,49.897,0.738,-0.0395,1.0042,295.8125
19:59:23:377,-2.1978,-0.4399,8.0961,51.0545,0.5641,-0.6853,0.9768,296.0781
19:59:23:395,-1.2868,-0.2185,9.0095,49.6738,0.3811,-0.7762,0.8098,295.3438
19:59:23:416,-0.9312,-0.3777,9.3339,48.7261,0.2834,-0.4504,0.6929,294.3906
19:59:23:436,-0.9923,-0.319,8.2721,49.2108,0.1819,-0.0446,0.6609,293.3906
19:59:23:458,-1.3191,-0.0509,6.6237,49.8215,0.0421,0.1618,0.6998,292.5625
19:59:23:476,-1.3155,0.2604,6.0299,50.7724,0.0112,0.0609,0.7512,291.875
19:59:23:503,-1.0857,0.6028,5.9258,50.3383,0.1334,-0.2126,0.7722,291.1562
19:59:23:519,-0.6619,0.7907,5.9066,50.4835,0.2932,-0.5607,0.7182,290.3438
19:59:23:539,-0.4428,0.7679,6.5255,50.4892,0.4493,-0.7865,0.6247,289.4844
19:59:23:557,-0.6164,0.5285,7.3779,51.1999,0.5846,-0.6707,0.5842,288.6875
19:59:23:578,-0.5877,0.3178,7.4437,51.74,0.6216,-0.39,0.5882,287.9375
19:59:23:596,-0.5003,0.5094,7.3766,52.6006,0.5577,-0.1117,0.552,287.3594
19:59:23:617,-0.2094,0.7668,7.3324,52.4842,0.4514,0.1,0.4388,286.8438
19:59:23:637,-0.201,1.0876,7.5,52.4621,0.327,0.2042,0.2596,286.2969
19:59:23:656,-0.541,1.2121,7.7837,50.3473,0.2202,0.2644,0.0841,285.3125
19:59:23:678,-0.8115,1.1762,7.828,50.446,0.1036,0.0335,-0.0453,285.1562
19:59:23:697,-0.5027,0.8326,8.6552,52.3972,-0.0695,-0.3961,-0.1857,284.9688
19:59:23:720,0.0109,0.1012,10.8937,51.0991,-0.2256,-0.7112,-0.3239,284.9531
19:59:23:738,-0.0023,-0.7141,13.938,52.4341,-0.1909,-0.4539,-0.3673,285
19:59:23:756,-0.3279,-1.1738,14.5233,54.3367,-0.0157,0.2771,-0.3045,285.25
19:59:23:776,-0.7206,-0.8446,11.703,52.8481,-0.0408,0.8585,-0.2435,285.6562
19:59:23:796,-0.9288,0.1526,8.1727,52.2395,-0.3806,0.8524,-0.2938,286.1094
19:59:23:817,-1.0821,1.0744,6.9589,52.2795,-0.8352,0.4066,-0.5114,286.4062
19:59:23:837,-1.5346,0.7907,8.5702,52.4787,-1.1169,-0.1836,-0.7495,286.5938
19:59:23:860,-2.5437,-0.5201,11.4456,52.765,-1.0328,-0.5085,-0.6754,286.7969
19:59:23:877,-3.1459,-0.9882,13.2018,52.3742,-0.6493,-0.517,-0.2917,287.5156
19:59:23:897,-2.0661,-0.3406,12.4931,52.8599,-0.253,-0.4462,-0.0139,288.25
19:59:23:922,-0.4165,0.7488,10.2497,52.4741,-0.1334,-0.4651,-0.0989,288.7344
19:59:23:938,0.0384,1.2923,8.6564,53.1931,-0.1832,-0.4252,-0.3351,288.8125
19:59:23:956,-0.45,1.254,7.5406,53.3653,-0.2336,-0.3751,-0.4547,288.8281
19:59:23:976,-0.9145,1.2576,6.5207,54.3758,-0.2439,-0.4715,-0.4483,289.0938
19:59:23:997,-0.7469,1.4647,6.4441,53.537,-0.1957,-0.7282,-0.3945,289.5469
19:59:24:021,-0.4237,1.4479,6.814,53.782,-0.0738,-0.9176,-0.3676,290.0312
19:59:24:039,-0.4285,1.5999,7.1743,52.3638,0.0314,-0.9122,-0.3753,290.5156
19:59:24:055,-0.4536,1.9591,7.1839,51.7141,0.1009,-0.6643,-0.378,290.9531
19:59:24:075,-0.523,2.2392,7.3108,54.0677,0.1009,-0.3684,-0.4105,291.375
19:59:24:095,-0.7888,2.3864,7.5766,52.7961,0.0642,-0.1551,-0.4544,291.8438
19:59:24:148,-1.3239,2.5121,8.9221,50.9862,-0.0346,-0.0542,-0.4768,292.3125
19:59:24:149,-1.6531,2.5085,11.0158,52.8778,-0.0871,-0.0286,-0.4643,292.8281
19:59:24:159,-1.8889,2.3349,12.578,54.4434,0.0418,0.01,-0.4384,293.6094
19:59:24:176,-2.2732,2.0728,12.7564,52.4945,0.2855,0.1083,-0.3905,294.1406
19:59:24:196,-2.6156,2.0189,11.8945,54.2596,0.4839,0.2737,-0.2837,294.6094
19:59:24:216,-2.6239,2.0584,11.7928,53.744,0.5015,0.3237,-0.1274,295.0781
19:59:24:240,-2.2888,1.886,12.912,53.8703,0.4245,0.1986,0.0412,295.2656
19:59:24:258,-2.0014,1.7005,13.1694,53.838,0.4775,0.0817,0.1986,295.5469
19:59:24:276,-1.8087,2.0381,11.9771,54.5511,0.58,0.1461,0.3653,295.625
19:59:24:296,-1.2916,2.3122,11.527,54.8919,0.4884,0.2327,0.487,295.5156
19:59:24:316,-1.1683,2.2344,12.171,55.1576,0.3047,0.2047,0.4798,295.2344
19:59:24:338,-1.2904,1.6921,12.6056,55.3515,0.2421,0.1136,0.4101,294.7656
19:59:24:356,-1.4484,0.9774,11.8227,54.7604,0.3377,0.0316,0.3501,294.25
19:59:24:376,-1.1862,0.4902,10.4747,54.4063,0.4011,-0.0598,0.3286,293.75
19:59:24:396,-0.7445,0.4028,9.9325,54.0927,0.2842,-0.2539,0.3051,293.3438
19:59:24:418,-0.5685,0.3861,9.9744,55.387,0.0762,-0.4758,0.2074,292.8438
19:59:24:437,-0.4895,0.4256,10.033,55.0809,-0.0975,-0.5399,0.0974,292.5469
19:59:24:456,-0.3638,0.4316,9.6631,54.8179,-0.1947,-0.3977,0.037,292.3438
19:59:24:479,-0.4416,0.3657,8.9844,53.8515,-0.1973,-0.2118,0.0199,292.2812
19:59:24:496,-0.3051,0.4112,7.998,54.7659,-0.1308,-0.0385,0.0769,292.2656
19:59:24:515,-0.0621,0.5309,6.8475,54.2606,-0.0463,0.0798,0.1722,292.2344
19:59:24:537,0.036,0.5992,6.1053,54.2606,0.0139,0.0814,0.2532,292.1562
19:59:24:556,0.1174,0.6387,6.2095,55.0421,0.0463,-0.043,0.3304,291.9531
19:59:24:576,0.2683,0.5034,6.893,53.717,0.11,-0.1705,0.4143,291.6562
19:59:24:596,0.5352,0.5561,7.154,52.6079,0.2559,-0.1833,0.5081,291.2812
19:59:24:616,0.8872,0.829,6.5339,53.2725,0.4179,-0.0387,0.5651,290.8438
19:59:24:638,0.9386,1.157,6.3747,53.71,0.3912,0.0782,0.5022,290.2969
19:59:24:656,0.2874,1.3414,7.3132,55.1805,0.2261,0.1408,0.3201,289.6875
19:59:24:676,-0.5817,1.1786,8.1308,55.4792,0.0701,0.3174,0.0034,289.1562
19:59:24:696,-0.9671,0.8889,8.0865,53.904,-0.0293,0.1978,-0.0595,289.1562
19:59:24:716,-1.0581,0.7751,8.9233,53.6038,-0.1486,-0.1546,-0.1021,288.7812
19:59:24:738,-0.6272,0.4854,10.7764,55.1639,-0.1718,-0.5948,-0.1745,288.5938
19:59:24:760,-0.4668,-0.1203,13.094,54.6597,-0.0866,-0.7953,-0.1479,288.5938
19:59:24:776,-0.3195,-0.6123,14.7879,52.8685,0.1483,-0.5804,0.0282,288.7656
19:59:24:795,0.2742,-0.1634,13.2688,54.7888,0.1566,-0.1239,0.1113,289.0156
19:59:24:819,0.8824,0.9427,10.7716,53.6765,-0.2653,0.1586,-0.0749,289.2344
19:59:24:839,1.0344,1.3426,10.1539,53.0915,-0.8338,0.2617,-0.4161,289.2656
19:59:24:855,0.1294,0.5525,11.9149,53.7099,-1.1137,0.2622,-0.5703,289.1562
19:59:24:875,-1.0701,-0.5297,13.768,54.6296,-0.9148,0.2888,-0.3399,289.2031
19:59:24:896,-1.4256,-0.8003,13.4974,54.3949,-0.4346,0.2793,0.1264,289.625
19:59:24:916,-0.207,-0.0162,10.4963,53.6865,-0.1449,-0.0515,0.4487,290.1875
19:59:24:941,1.5049,1.2755,8.3391,52.5204,-0.1577,-0.4872,0.3776,290.5
19:59:24:955,2.1537,1.8801,7.7609,53.307,-0.2772,-0.5567,0.0934,290.3281
19:59:24:975,1.7335,1.7999,7.5215,52.8485,-0.3784,-0.2401,-0.1263,289.8125
19:59:24:995,1.0607,1.5389,6.7374,52.5724,-0.4661,0.1943,-0.2105,289.3125
19:59:25:015,0.5244,1.5808,6.0634,53.7185,-0.4804,0.4026,-0.2078,289.3594
19:59:25:038,0.3832,1.7149,5.7486,53.594,-0.3782,0.2625,-0.186,289.5469
19:59:25:056,0.4071,2.0584,6.0802,53.1207,-0.1787,-0.0451,-0.1689,289.7656
19:59:25:075,0.6489,2.4187,6.4513,54.3284,0.0011,-0.2467,-0.2243,289.9375
19:59:25:095,0.6585,2.6857,6.9517,51.9328,0.0567,-0.2659,-0.3465,290.1094
19:59:25:116,0.1976,2.791,7.8579,53.0429,0.0565,-0.1186,-0.4722,290.3281
19:59:25:138,-0.6571,2.7216,8.8251,53.1986,0.0312,0.0095,-0.5157,290.6406
19:59:25:156,-1.3275,2.3493,10.3718,53.5074,0.118,0.0838,-0.4331,291.125
19:59:25:176,-1.6914,2.1793,11.8634,52.3334,0.3481,0.1546,-0.2898,291.7188
19:59:25:196,-1.8051,2.1614,12.0011,54.185,0.5199,0.2412,-0.1671,292.2656
19:59:25:216,-1.9344,2.0848,11.6204,51.5251,0.5023,0.2782,-0.0587,292.4844
19:59:25:239,-1.8458,1.9112,12.0585,52.256,0.4296,0.247,0.0401,292.8125
19:59:25:257,-1.6172,1.4994,12.9228,52.8125,0.4171,0.2042,0.1259,293.0312
19:59:25:278,-1.3227,0.999,13.3286,52.4857,0.387,0.2649,0.2287,293.1094
19:59:25:295,-0.9755,1.1821,12.9109,53.0535,0.2253,0.3259,0.2686,293.0781
19:59:25:315,-0.6894,1.4862,12.7026,54.6926,-0.0133,0.2212,0.189,292.9531
19:59:25:337,-0.7337,1.224,13.7979,51.1036,-0.1233,-0.0046,0.066,292.5625
19:59:25:360,-1.3825,0.2065,15.0046,52.2769,0.0402,-0.043,0.0694,292.2812
19:59:25:377,-2.0673,-0.908,14.6467,51.4494,0.3792,0.1554,0.2785,292.125
19:59:25:395,-1.6567,-0.659,8.0135,52.8134,0.5409,0.1727,0.6031,292.0781
19:59:25:417,-0.8546,0.1873,7.172,50.5282,0.3534,-0.2022,0.7901,291.9219
19:59:25:438,-0.2668,0.1359,7.063,52.5153,0.0908,-0.6329,0.7789,291.4375
19:59:25:457,-0.1148,0.1227,6.6811,52.5043,-0.0842,-0.8377,0.7267,290.6406
19:59:25:475,0.0827,0.2089,6.6728,51.9059,-0.2258,-0.8779,0.7219,289.8125
19:59:25:496,0.2994,0.1993,6.9673,52.6589,-0.2858,-0.8302,0.7459,289.0156
19:59:25:515,0.5639,0.2963,7.5239,52.9427,-0.2626,-0.6856,0.7848,288.25
19:59:25:539,0.8692,0.5369,7.7298,52.0594,-0.1385,-0.512,0.8295,287.5156
19:59:25:556,0.8632,0.5142,7.3407,52.4824,0.0663,-0.3791,0.8295,286.6875
19:59:25:576,0.6884,0.4711,7.2342,53.042,0.2336,-0.3623,0.8266,285.7969
19:59:25:594,0.8836,0.6578,7.051,53.7191,0.371,-0.3711,0.8844,284.4688
19:59:25:616,1.457,1.1055,6.6883,53.3439,0.4653,-0.3538,0.9355,283.5469
19:59:25:637,2.1046,1.6311,6.9373,53.8704,0.4477,-0.3708,0.8974,282.5625
19:59:25:657,2.6373,2.0764,7.5059,53.3254,0.3659,-0.3839,0.7403,281.5156
19:59:25:677,2.7403,2.414,7.9932,53.8548,0.2762,-0.3868,0.4665,280.5625
19:59:25:695,2.3883,2.481,8.0458,53.863,0.1539,-0.3122,0.1328,279.75
19:59:25:715,2.0771,2.0369,8.1033,55.4321,-0.0674,-0.1767,-0.1929,279.4531
19:59:25:738,1.9203,0.9643,9.4237,52.9889,-0.4354,-0.1484,-0.4483,279.1406
19:59:25:756,1.7874,-0.2472,11.7377,54.4506,-0.7928,-0.2528,-0.5806,279.2031
19:59:25:775,1.785,-1.0876,15.0369,53.3032,-1.0144,-0.3413,-0.5564,279.6094
19:59:25:794,1.7754,-1.5018,15.9395,53.5733,-0.8733,-0.1434,-0.3966,280.25
19:59:25:815,2.0759,-1.0804,13.094,55.4752,-0.4573,0.2209,-0.1825,280.9531
19:59:25:839,2.429,-0.4746,10.6938,52.9548,-0.2687,0.2718,-0.0994,281.5625
19:59:25:856,1.8879,-0.4579,11.2864,54.1322,-0.429,-0.0499,-0.2597,281.9844
19:59:25:875,0.9015,-1.0816,13.0437,53.8405,-0.6021,-0.3391,-0.4472,282.0938
19:59:25:895,0.6202,-1.1115,12.0956,54.7949,-0.444,-0.1785,-0.3961,282.3906
19:59:25:916,1.4881,-0.483,9.9672,54.4689,-0.2346,0.0223,-0.2001,282.9531
19:59:25:939,2.3225,0.1203,8.958,52.5838,-0.2077,-0.0981,-0.1646,283.3906
19:59:25:955,2.362,0.5357,8.648,54.6734,-0.2692,-0.3458,-0.3154,283.6406
19:59:25:975,1.8209,0.7691,8.0746,53.8837,-0.3361,-0.362,-0.5146,283.8281
19:59:25:995,1.3074,0.8709,7.3348,53.8199,-0.3931,-0.1607,-0.6336,284.2188
19:59:26:015,0.9734,0.9858,6.4453,53.3106,-0.4189,0.0923,-0.6525,284.7969
19:59:26:038,0.8524,1.2803,5.9042,54.4646,-0.4557,0.2851,-0.6094,285.5469
19:59:26:055,0.783,1.5054,6.1652,53.9312,-0.4788,0.3115,-0.5737,286.3125
19:59:26:075,0.7471,1.6358,6.838,53.299,-0.3939,0.1759,-0.5583,286.9844
19:59:26:096,0.8118,1.7987,7.3431,55.4874,0.0056,0.0124,-0.4957,287.6562
19:59:26:117,1.0045,1.9758,7.2366,54.7443,0.0868,-0.0424,-0.5149,287.6562
19:59:26:138,1.0416,1.9519,7.5658,52.7373,0.0013,-0.0329,-0.5625,288.6094
19:59:26:156,0.9554,1.8717,8.7533,53.6814,-0.1177,0.0524,-0.5982,289.7344
19:59:26:220,0.7327,1.5736,10.5765,54.0035,-0.1065,0.2098,-0.6022,290.0312
19:59:26:221,0.2168,1.1199,11.9687,53.3837,0.0176,0.4138,-0.5029,290.6875
19:59:26:221,-0.1854,0.5561,12.6403,54.8075,0.1952,0.5426,-0.2981,291.3281
19:59:26:238,-0.359,0.4112,12.3542,55.1651,0.3103,0.4438,-0.0429,292.6094
19:59:26:254,-0.2393,0.4926,12.3087,55.0101,0.3454,0.1917,0.1784,292.6094
19:59:26:274,0.1055,0.4878,12.845,53.6448,0.3989,-0.0345,0.3472,292.9219
19:59:26:293,0.6202,0.4806,12.8282,55.7679,0.4091,-0.2499,0.4487,292.9531
19:59:26:313,1.0236,0.7787,12.5421,54.735,0.2823,-0.4616,0.4338,292.75
19:59:26:334,1.1709,0.9116,12.8773,53.555,0.086,-0.7359,0.332,292.375
19:59:26:354,1.0847,0.6626,14.6167,55.4706,0.0482,-0.8811,0.2135,291.8594
19:59:26:374,0.309,0.1478,16.313,55.5371,0.3419,-0.565,0.2119,291.3594
19:59:26:394,-0.8079,-0.3454,14.7855,53.6734,0.6589,0.071,0.397,291
19:59:26:414,-1.3131,-0.0916,10.9404,55.3472,0.584,0.4167,0.6271,290.6875
19:59:26:434,-0.7217,0.4962,8.8634,54.9267,0.3108,0.2132,0.6945,290.3438
19:59:26:454,0.0061,0.7404,9.0502,53.7399,0.1704,-0.2422,0.6327,289.7031
19:59:26:477,0.3353,0.6458,10.2485,55.4473,0.237,-0.4827,0.5693,288.9375
19:59:26:494,0.2802,0.3849,10.4041,53.7846,0.4424,-0.4451,0.6066,288.1562
19:59:26:514,0.2407,0.3717,9.8092,53.7846,0.7497,-0.3333,0.752,287.5
19:59:26:538,0.6597,0.5166,8.2039,54.1419,1.0309,-0.1974,0.8868,286.875
19:59:26:556,1.3002,0.9751,6.0574,54.5319,1.1257,-0.1381,0.9209,286.0938
19:59:26:574,2.0328,1.3545,4.7083,53.6535,1.0725,-0.1719,0.8157,285.1094
19:59:26:594,2.4781,1.5401,3.8296,54.989,0.8903,-0.2331,0.6197,284.0625
19:59:26:615,2.3632,1.4958,3.9062,54.6774,0.6503,-0.2784,0.4378,282.9844
19:59:26:636,1.9717,1.1917,4.9669,53.4812,0.5028,-0.2473,0.3533,282.1094
19:59:26:655,1.8508,1.0241,5.8827,54.2677,0.3992,-0.2363,0.339,281.7656
19:59:26:674,1.8987,0.9104,7.227,54.8953,0.3324,-0.1282,0.3171,281.2656
19:59:26:695,1.6856,0.8122,8.4313,55.643,0.3124,0.1613,0.3366,280.8438
19:59:26:714,1.8233,0.8087,8.6444,53.8183,0.2384,0.4881,0.3589,280.4531
19:59:26:738,2.3045,1.1283,8.4014,54.7854,0.0085,0.6825,0.2596,279.9062
19:59:26:755,2.6098,1.3018,8.6695,54.6246,-0.3121,0.6657,0.0476,279.4219
19:59:26:774,2.617,0.8027,9.614,54.8005,-0.6171,0.5331,-0.15,278.9531
19:59:26:794,1.8401,-1.0804,13.3622,55.6807,-0.8051,0.5048,-0.129,278.7031
19:59:26:815,2.6313,-1.0229,13.5285,55.0722,-0.751,0.6537,0.1618,278.7344
19:59:26:837,3.7746,-0.1407,11.4372,55.4283,-0.5369,0.7389,0.4074,278.9219
19:59:26:855,4.0643,0.4388,10.2653,54.5281,-0.5798,0.5208,0.2854,278.9062
19:59:26:874,3.279,-0.3442,11.9209,55.44,-0.9276,0.1717,-0.1101,278.5156
19:59:26:894,1.8532,-1.4479,13.6746,55.1094,-1.1374,-0.0307,-0.4131,278.0156
19:59:26:913,1.2559,-1.5078,13.3538,55.9137,-0.938,-0.007,-0.3457,277.9062
19:59:26:934,1.9478,-0.6782,10.8447,55.027,-0.5231,0.0028,-0.0539,278.25
19:59:26:954,2.5906,0.6028,9.0251,55.9424,-0.2916,-0.2137,0.0947,278.7812
19:59:26:974,2.6529,1.1821,8.2841,55.5082,-0.2812,-0.4821,-0.0262,279.0312
19:59:26:993,2.0831,1.2923,7.1756,55.0685,-0.3087,-0.4997,-0.2539,278.9844
19:59:27:013,1.5551,1.2767,6.2813,53.6195,-0.3891,-0.349,-0.3993,278.9531
19:59:27:034,1.4295,1.3078,6.3436,54.1314,-0.5103,-0.194,-0.4517,279.3281
19:59:27:054,1.5228,1.6921,7.3216,54.5223,-0.5601,-0.0981,-0.4523,279.8125
19:59:27:073,1.518,1.9232,8.4074,53.3371,-0.4469,0.0026,-0.4784,280.3438
19:59:27:094,1.3313,1.9315,8.5223,55.1932,-0.126,0.1083,-0.5399,280.8906
19:59:27:114,0.9901,1.9591,7.877,53.0321,0.2418,0.2324,-0.5721,281.4531
19:59:27:135,0.5903,2.1781,5.9006,53.854,0.5169,0.4148,-0.5652,282.0469
19:59:27:154,0.4897,2.5588,5.1273,54.7641,0.4695,0.4665,-0.5532,282.6875
19:59:27:174,0.4347,2.7504,6.3807,54.3184,0.1348,0.3221,-0.5974,283
19:59:27:194,0.1198,2.4666,8.5163,53.584,-0.1856,0.2345,-0.6928,283.5938
19:59:27:214,-0.7672,1.8058,10.8494,54.197,-0.3819,0.2819,-0.7505,284.2031
19:59:27:234,-1.7764,1.1546,12.7145,54.4158,-0.4168,0.5032,-0.6525,284.9219
19:59:27:254,-2.1618,0.8493,13.3526,53.3293,-0.2951,0.7184,-0.3609,285.7656
19:59:27:273,-1.5633,0.7129,13.3406,53.4306,-0.1401,0.7664,0.0101,286.5625
19:59:27:294,-0.1962,0.7392,14.1379,54.6162,-0.1055,0.5935,0.324,287.1406
19:59:27:314,1.1769,0.9332,15.232,53.855,-0.1449,0.4321,0.4742,287.2656
19:59:27:334,1.597,0.9583,15.3841,52.4649,-0.1462,0.4252,0.4093,286.9062
19:59:27:354,0.8943,0.592,15.2129,54.7601,-0.1377,0.4508,0.2226,286.3438
19:59:27:373,-0.4261,-0.2077,15.6558,54.5714,-0.1507,0.4388,0.1022,285.875
19:59:27:395,-1.3802,-0.9715,14.7269,53.6848,0.0373,0.5307,0.2037,285.625
19:59:27:414,-1.0198,-0.8386,11.2158,53.1768,0.457,0.7126,0.5456,285.5
19:59:27:434,0.0899,-0.173,7.9369,54.1217,0.7247,0.5935,0.8466,285.25
19:59:27:454,0.7292,0.4459,6.5854,52.7188,0.6493,0.0377,0.8759,284.6406
19:59:27:476,0.5412,0.5106,7.8627,52.585,0.327,-0.6145,0.7011,283.7188
19:59:27:494,0.0396,-0.173,8.982,52.4331,0.0224,-0.8382,0.4607,282.75
19:59:27:514,-0.4404,-0.5716,9.049,51.5022,0.094,-0.5157,0.6074,282.75
19:59:27:534,-0.3686,-0.5165,8.2721,50.9029,0.2368,-0.2166,0.7997,281.9844
19:59:27:554,0.0707,-0.1071,7.0139,50.7503,0.3585,-0.1239,0.9296,281.4688
19:59:27:574,0.8357,0.3334,6.2023,50.7892,0.4418,-0.2406,0.9198,280.9844
19:59:27:593,1.2798,0.7332,5.9605,50.7456,0.5356,-0.3974,0.8101,280.3125
19:59:27:614,1.53,0.9068,5.7474,49.3308,0.5816,-0.5045,0.658,279.4062
19:59:27:634,1.3876,0.8182,5.4816,50.5214,0.4911,-0.5652,0.5257,277.3594
19:59:27:658,1.1254,0.5956,5.8791,50.0651,0.286,-0.509,0.4545,276.4531
19:59:27:674,1.202,0.6231,6.5399,48.0319,0.0085,-0.2997,0.3659,275.7656
19:59:27:693,1.1685,0.6566,7.5826,49.1933,-0.2589,0.0801,0.241,275.2031
19:59:27:713,0.9865,0.7177,8.8647,48.9978,-0.3545,0.4817,0.128,274.7031
19:59:27:733,0.9829,0.7991,9.632,49.449,-0.2621,0.6732,-0.0096,274.3281
19:59:27:757,0.7806,0.8087,9.1986,48.2532,-0.2173,0.5504,-0.1646,274.0625
19:59:27:775,0.5352,0.6243,9.3495,47.7322,-0.2887,0.1677,-0.3031,273.8906
19:59:27:794,0.2922,0.0688,10.8818,47.354,-0.3249,-0.1516,-0.3625,273.8594
19:59:27:814,0.1605,-0.8254,12.2943,48.6007,-0.3436,-0.1913,-0.2765,274
19:59:27:833,0.6693,-1.3138,12.7061,46.3735,-0.4453,0.092,-0.1018,274.3438
19:59:27:857,1.7263,-0.9679,11.9077,47.5568,-0.7233,0.3552,-0.1231,274.7656
19:59:27:874,2.3392,-0.3896,11.6575,47.4471,-1.1364,0.3339,-0.411,275.0938
19:59:27:894,2.0591,-1.0325,13.847,46.4874,-1.326,0.3275,-0.7175,275.25
19:59:27:914,0.1905,-2.4319,16.0951,46.5604,-1.0504,0.6201,-0.5969,275.5
19:59:27:933,-1.0533,-2.9933,15.0118,46.2855,-0.5635,0.9576,-0.035,276.1562
19:59:27:954,0.0672,-2.1434,11.4707,47.5468,-0.2975,0.7315,0.4404,276.9844
19:59:27:973,2.2112,-0.574,9.237,43.8848,-0.2565,0.1006,0.479,277.3594
19:59:27:996,3.6201,0.4304,8.9113,45.6165,-0.2708,-0.3082,0.1991,277.0938
19:59:28:014,3.3616,0.9164,8.9341,44.9546,-0.2778,-0.2326,-0.1276,276.5
19:59:28:034,2.6361,0.9224,8.7761,45.9027,-0.2053,0.1299,-0.3431,276.0781
19:59:28:056,1.937,0.9319,7.6616,45.5277,-0.1217,0.4577,-0.4664,276.0312
19:59:28:074,1.3373,1.0325,6.583,45.8024,-0.0471,0.5437,-0.5463,276.3125
19:59:28:094,0.7208,1.0157,6.1041,44.6653,0.0629,0.4316,-0.5756,276.7812
19:59:28:116,0.1988,1.06,5.9569,45.8368,0.1886,0.2305,-0.5383,277.375
19:59:28:140,-0.0574,1.06,6.1341,43.2309,0.282,0.0641,-0.4754,278
19:59:28:157,-0.2202,1.2264,6.5076,45.046,0.3175,-0.0417,-0.4113,278.3438
19:59:28:174,-0.0298,1.3928,7.3575,44.7435,0.3443,-0.1165,-0.3758,278.9688
19:59:28:194,0.3353,1.6885,9.2645,43.9974,0.3795,-0.2414,-0.3974,279.5312
19:59:28:215,0.0336,1.4934,10.3742,41.7117,0.453,-0.3839,-0.4709,280.2031
19:59:28:238,-0.2489,1.1642,10.8746,42.7883,0.5478,-0.3788,-0.5098,280.6562
19:59:28:279,-0.3854,1.0804,10.8255,42.0422,0.5643,-0.1692,-0.4709,281.1562
19:59:28:279,-0.3147,1.1917,10.8866,42.0502,0.4703,0.1091,-0.4011,281.7188
19:59:28:295,-0.2262,1.2073,11.8778,42.4624,0.3196,0.3421,-0.3727,282.3125
19:59:28:313,0.0815,0.9176,12.2524,41.7181,0.2522,0.5725,-0.3801,282.8281
19:59:28:335,0.036,0.6961,11.6072,41.88,0.2341,0.7384,-0.4195,283.2344
19:59:28:356,-0.6367,0.7703,11.4252,41.1109,0.0807,0.6487,-0.48,283.6719
19:59:28:376,-1.1623,0.5261,12.7588,42.1679,-0.2008,0.3608,-0.5074,284.125
19:59:28:397,-1.6998,-0.0964,15.2165,40.5066,-0.4639,0.1403,-0.489,284.625
19:59:28:413,-2.594,-0.8446,16.2364,41.2879,-0.461,0.2793,-0.3737,285.1562
19:59:28:434,-2.8203,-0.9248,13.8985,41.2714,-0.0961,0.6311,-0.0645,285.7031
19:59:28:457,-2.1259,-0.4651,10.2006,40.6512,0.2895,0.7759,0.3062,286.1875
19:59:28:473,-1.1814,-0.2221,8.6516,40.0313,0.3268,0.3533,0.4577,286.4062
19:59:28:494,-0.7265,-0.4315,9.5063,41.7969,0.1595,-0.3189,0.4077,286.0781
19:59:28:513,-0.8115,-0.7548,10.5621,41.7969,0.1047,-0.7937,0.3206,285.5781
19:59:28:534,-1.0234,-0.8553,10.0869,40.6535,0.2663,-0.8885,0.3163,285.1562
19:59:28:555,-0.9169,-0.6387,8.7521,40.3784,0.4567,-0.7346,0.4263,284.8125
19:59:28:574,-0.3794,-0.1933,7.1911,41.5149,0.5867,-0.5311,0.5829,284.4844
19:59:28:594,0.2323,0.2316,6.2322,41.7584,0.6205,-0.4254,0.6793,284.0625
19:59:28:613,0.5975,0.4938,5.9533,41.4147,0.6133,-0.4398,0.6721,283.4531
19:59:28:637,0.8393,0.5656,5.8659,40.4368,0.6474,-0.5487,0.6018,283.0781
19:59:28:655,0.9075,0.5369,5.8528,41.6704,0.7073,-0.6845,0.5105,282.3438
19:59:28:673,0.9817,0.4938,6.1436,40.2839,0.706,-0.7455,0.4223,281.6875
19:59:28:693,1.0512,0.5992,6.638,40.5514,0.6503,-0.7133,0.3485,281.1094
19:59:28:713,0.8932,0.75,7.0702,40.0483,0.5619,-0.5695,0.266,280.6406
19:59:28:735,0.9195,0.9571,7.2785,42.0431,0.4621,-0.3572,0.193,280.2656
19:59:28:758,1.2559,1.3449,7.1947,40.0608,0.3438,-0.1436,0.1235,279.9844
19:59:28:776,1.5264,1.5485,7.1037,40.6059,0.1683,-0.0057,-0.0334,279.6719
19:59:28:793,1.3888,1.3689,8.138,39.6445,-0.0975,-0.0723,-0.2832,279.5469
19:59:28:814,0.88,0.6542,9.9001,40.3042,-0.3601,-0.1988,-0.5394,279.5781
19:59:28:835,0.0875,-0.2233,11.77,39.1819,-0.5105,-0.2606,-0.6768,279.9219
19:59:28:857,0.0444,-0.9248,12.8558,39.4619,-0.5201,-0.2257,-0.5652,280.5625
19:59:28:875,1.2475,-0.6841,11.9735,39.0725,-0.4424,0.0425,-0.2595,281.3281
19:59:28:893,2.7044,0.0952,11.5078,41.0069,-0.5255,0.2596,-0.0832,282
19:59:28:914,3.2861,0.252,12.3901,40.663,-0.9699,-0.0158,-0.668,282.2969
19:59:28:935,2.3009,-0.7847,14.9304,39.1999,-0.9574,0.1956,-0.9058,282.375
19:59:28:954,0.552,-2.0141,15.4415,39.9106,-0.7119,0.7251,-0.7018,283.4375
19:59:28:973,-0.1459,-2.123,13.2856,40.3853,-0.4586,0.9807,-0.2605,283.4375
19:59:28:993,0.7399,-1.1558,10.6783,42.8232,-0.3063,0.6841,-0.0123,284.4219
19:59:29:013,1.7132,-0.2723,9.0622,40.0516,-0.2195,0.1227,-0.0086,285.1875
19:59:29:035,1.8472,0.4579,8.5977,39.9467,-0.1404,-0.2315,-0.06,285.4531
19:59:29:057,1.6354,0.8637,7.9548,40.8557,-0.0778,-0.28,-0.0722,285.4375
19:59:29:074,1.451,1.2025,7.0331,39.752,-0.0386,-0.1916,-0.0549,285.4531
19:59:29:093,1.4989,1.5185,6.2119,40.4729,-0.0333,-0.0965,-0.0738,285.5156
19:59:29:114,1.372,1.8441,5.6073,39.1175,-0.0818,-0.0403,-0.1231,285.5938
19:59:29:133,1.1601,2.0584,5.8312,41.2606,-0.0863,-0.0432,-0.1671,285.6562
19:59:29:156,1.0751,2.1973,6.3053,40.5789,-0.0194,-0.068,-0.2193,285.75
19:59:29:173,0.9159,2.3134,6.6093,41.3047,0.0328,-0.0827,-0.2808,285.8906
19:59:29:196,0.7052,2.5552,7.0319,39.3603,0.0621,-0.1492,-0.3447,286.0781
19:59:29:213,0.479,2.8258,7.8794,39.8969,0.089,-0.2614,-0.4224,286.3125
19:59:29:232,0.1426,2.9239,9.0227,40.2259,0.1337,-0.3439,-0.4451,286.6406
19:59:29:256,0.0707,2.8677,10.4771,39.0776,0.2511,-0.3053,-0.4499,287.0469
19:59:29:275,-0.0119,2.8377,11.1978,39.84,0.3627,-0.1801,-0.4832,287.5
19:59:29:292,-0.3004,2.6366,11.363,41.3447,0.3116,0.01,-0.5375,288.0156
19:59:29:313,-0.6727,2.2356,11.9101,40.3403,0.176,0.2215,-0.5609,289.0781
19:59:29:334,-0.7337,1.5425,12.6247,40.1942,0.0415,0.2572,-0.5532,289.6875
19:59:29:356,-0.7864,0.7524,13.6076,39.8829,-0.0453,0.205,-0.5021,290.0156
19:59:29:376,-0.9073,0.0808,14.2959,39.9375,-0.1124,0.1173,-0.39,290.6406
19:59:29:396,-0.857,-0.4375,14.904,41.467,-0.1387,-0.0068,-0.2712,291.2188
19:59:29:414,-1.0078,-0.9715,15.8641,40.8318,-0.021,-0.0944,-0.1354,291.7188
19:59:29:433,-1.5501,-1.7927,16.3932,41.5733,0.3039,0.0683,0.1408,292.0938
19:59:29:456,-1.6495,-2.2368,14.4144,41.3155,0.6053,0.4263,0.5246,292.3438
19:59:29:478,-0.8618,-1.728,10.774,41.8918,0.6021,0.4849,0.7901,292.3594
19:59:29:493,0.2539,-1.0062,8.0506,41.8765,0.3696,0.1586,0.829,291.9844
19:59:29:514,0.6777,-0.3573,7.0403,42.379,0.065,-0.2696,0.7174,291.1875
19:59:29:533,0.5484,-0.2448,7.6077,41.6653,-0.126,-0.5101,0.6221,290.2656
19:59:29:556,0.3461,-0.1933,7.9094,41.6298,-0.2083,-0.5887,0.6093,289.375
19:59:29:573,0.4837,0.0676,7.7298,43.3261,-0.2471,-0.5897,0.6215,288.6406
19:59:29:596,0.8908,0.3406,7.4832,42.9512,-0.2131,-0.5469,0.6263,288.0156
19:59:29:614,1.2942,0.6351,7.33,42.0435,-0.0977,-0.4747,0.6261,287.6875
19:59:29:635,1.3098,0.5357,7.3838,44.6861,0.0919,-0.4124,0.6532,286.6562
19:59:29:656,1.4187,0.6111,6.9912,43.8467,0.3366,-0.3152,0.7384,285.9688
19:59:29:674,1.7946,0.9319,6.6811,43.3602,0.5076,-0.2267,0.8423,285.2969
19:59:29:692,2.0484,1.1402,6.8368,44.6138,0.5883,-0.21,0.8394,284.5156
19:59:29:712,1.8736,1.4395,6.5327,45.3304,0.6346,-0.1671,0.7323,283.6094
19:59:29:732,1.8987,1.6741,6.4142,45.1789,0.5651,-0.0864,0.6167,282.6719
19:59:29:757,1.8712,1.9842,6.9756,45.633,0.3459,-0.0185,0.4708,281.75
19:59:29:777,1.9095,2.1662,8.2122,46.0415,0.0818,0.0271,0.2825,280.9688
19:59:29:793,1.8664,1.9028,9.1567,46.4705,-0.082,0.006,0.0465,280.3281
19:59:29:813,1.6114,1.1223,10.4257,46.7186,-0.2288,-0.0912,-0.203,279.9062
19:59:29:832,1.3804,0.1407,12.353,46.5447,-0.3904,-0.1998,-0.3575,279.7031
19:59:29:857,1.1733,-0.8541,14.333,47.621,-0.477,-0.2656,-0.3801,279.8125
19:59:29:876,1.9179,-1.497,14.6957,46.5898,-0.4194,-0.1421,-0.1995,280.3906
19:59:29:892,3.03,-1.0481,13.6315,48.073,-0.3156,0.0878,0.0543,280.8594
19:59:29:912,4.0403,-0.5489,13.0114,48.5938,-0.3156,0.1104,0.0937,281.1094
19:59:29:932,3.8859,-0.9044,13.9966,47.2238,-0.432,-0.0456,-0.1497,281.0625
19:59:29:960,2.5236,-2.1338,14.5904,48.4575,-0.4804,0.0231,-0.4552,280.9688
19:59:29:973,1.2523,-2.4906,12.9109,49.0527,-0.2868,0.4146,-0.4328,281.1562
19:59:29:994,1.3073,-1.8286,9.7146,48.0749,0.0048,0.6867,-0.0738,281.6562
19:59:30:012,2.2064,-0.7907,7.658,48.5308,0.1438,0.4436,0.2918,282.1562
19:59:30:033,2.6744,0.2915,6.6668,48.8666,0.1593,-0.0989,0.4223,282.25
19:59:30:056,2.5631,1.1043,6.0814,50.0914,0.1036,-0.4789,0.3563,282.0625
19:59:30:075,2.2962,1.491,5.2123,49.2945,0.0112,-0.5114,0.2037,281.6406
19:59:30:093,2.022,1.6335,4.4462,50.5456,-0.1406,-0.3463,0.046,281.1719
19:59:30:113,1.4725,1.5916,4.1768,49.9256,-0.3561,-0.1258,-0.1149,280.875
19:59:30:133,0.9937,1.5772,4.7035,49.1997,-0.5782,0.0412,-0.2267,280.7656
19:59:30:157,0.8273,1.6741,6.0287,49.8525,-0.6945,0.1075,-0.2555,280.9062
19:59:30:174,1.0069,1.8262,7.3443,51.1875,-0.603,0.0598,-0.2507,281.2031
19:59:30:197,1.1972,2.0105,7.998,49.9339,-0.3161,-0.0451,-0.2584,281.5
19:59:30:212,1.524,2.2464,9.0131,52.1147,-0.0932,-0.1061,-0.2797,281.8125
19:59:30:232,1.7024,2.5432,9.5674,51.9311,0.0844,-0.0819,-0.3615,282.125
19:59:30:255,1.451,2.5277,10.0294,49.6322,0.1942,-0.0582,-0.5593,282.4375
19:59:30:275,1.0105,2.1338,10.5179,52.0323,0.1547,0.1384,-0.7569,282.8281
19:59:30:338,0.4083,1.5042,10.8878,51.0193,-0.0024,0.5048,-0.8781,283.4688
19:59:30:338,-0.2381,1.0181,11.3642,52.1963,-0.3004,0.9685,-0.7572,284.3281
19:59:30:338,-0.7433,0.7715,12.3195,52.3116,-0.2567,0.8226,-0.5546,284.3281
19:59:30:360,-0.9803,0.3023,13.5537,52.288,-0.0479,0.5656,-0.2515,286.2656
19:59:30:373,-0.5625,-0.0329,13.847,52.7834,0.1798,0.4042,0.0758,286.2656
19:59:30:393,0.382,0.2424,12.8701,53.118,0.1755,0.1757,0.2702,287.1406
19:59:30:413,1.3672,0.6925,12.5948,53.3337,-0.0658,-0.1514,0.2596,287.7344
19:59:30:433,1.7191,0.9152,14.509,54.2488,-0.1862,-0.3522,0.1469,287.6094
19:59:30:458,1.3504,0.2484,16.3489,51.6845,0.0687,-0.2124,0.0897,287.4688
19:59:30:475,0.6956,-0.6614,15.6307,52.8428,0.4794,0.1155,0.1874,287.3281
19:59:30:492,0.479,-0.884,11.6671,53.4228,0.5846,0.2431,0.3158,287.125
19:59:30:512,0.6849,-0.5333,8.4744,53.4228,0.3755,-0.0286,0.3302,287.0625
19:59:30:532,0.8979,-0.3107,7.1025,53.051,0.0674,-0.406,0.234,286.8594
19:59:30:552,0.6358,-0.258,7.2222,52.9232,-0.1529,-0.6683,0.1549,286.5
19:59:30:573,0.3233,-0.2388,7.5634,53.8241,-0.1862,-0.7612,0.1757,286.125
19:59:30:592,0.4023,-0.3023,7.0367,54.0769,-0.1542,-0.8046,0.2393,285.875
19:59:30:612,0.5436,-0.1814,6.4956,53.1387,-0.13,-0.8683,0.3086,285.7188
19:59:30:632,0.789,0.0676,6.4513,52.9313,-0.0647,-0.9546,0.3635,285.5469
19:59:30:653,1.2116,0.2328,6.8104,52.1561,0.0687,-1.0534,0.364,285.2969
19:59:30:672,1.3672,0.1143,7.5658,53.2663,0.3079,-1.0198,0.3709,284.9844
19:59:30:692,1.1805,-0.1407,7.9429,55.4731,0.5654,-0.8611,0.4884,284.5938
19:59:30:712,1.378,-0.1694,7.8902,53.1078,0.7199,-0.6156,0.658,284.1875
19:59:30:733,1.8233,0.0605,7.6963,53.958,0.7276,-0.4243,0.7398,283.5312
19:59:30:756,2.2231,0.6039,7.7573,55.0685,0.603,-0.2733,0.7153,282.8438
19:59:30:775,2.8923,1.1666,8.399,53.457,0.4621,-0.1069,0.5371,281.9844
19:59:30:792,3.0827,1.5185,8.9449,54.3219,0.3758,0.0886,0.2695,281.125
19:59:30:812,3.0024,1.4467,8.8814,54.077,0.1968,0.2561,0.0143,280.3594
19:59:30:832,2.9354,1.2181,9.219,53.7667,-0.0905,0.259,-0.1966,279.8438
19:59:30:855,3.1234,0.7655,10.804,53.9583,-0.2591,0.2156,-0.3971,279.6406
19:59:30:874,2.6134,0.094,12.2297,54.1419,-0.3073,0.2244,-0.4773,279.7344
19:59:30:895,2.1525,-0.6506,12.9946,55.0472,-0.2788,0.4036,-0.3663,280.0781
19:59:30:913,2.3261,-0.6794,12.4284,56.0987,-0.3143,0.5674,-0.2512,280.625
19:59:30:933,2.9246,-0.2819,11.2373,54.0093,-0.5473,0.47,-0.3236,281.1094
19:59:30:957,3.3352,-0.2436,11.5629,54.8253,-0.8772,0.1344,-0.549,281.4375
19:59:30:974,3.0491,-1.1438,14.4683,55.2569,-0.8597,0.0774,-0.697,281.5781
19:59:30:992,1.7132,-2.2511,15.9934,55.6505,-0.4189,0.4132,-0.526,281.9688
19:59:31:013,1.7443,-1.5891,10.4771,56.2771,0.028,0.65,-0.0853,283.0469
19:59:31:033,2.8169,-0.4339,8.4325,54.6527,0.2208,0.4367,0.2138,283.8438
19:59:31:057,2.9426,0.1921,7.4305,55.1372,0.2325,0.0404,0.1611,284.2031
19:59:31:074,2.4075,0.3789,6.589,55.4963,0.1611,-0.0869,-0.0214,284.0625
19:59:31:092,1.7934,0.6183,5.4828,54.9439,0.0663,0.0556,-0.134,283.7812
19:59:31:112,1.4378,0.9116,4.5599,55.7259,-0.0298,0.1565,-0.1708,283.7031
19:59:31:131,1.281,1.0529,4.4569,55.7343,-0.1353,0.0955,-0.1785,283.7969
19:59:31:151,1.269,0.9846,4.8963,54.7128,-0.2178,-0.0174,-0.1649,283.9688
19:59:31:173,1.4762,1.2001,5.2362,54.8272,-0.2146,-0.1136,-0.1135,284.1719
19:59:31:192,1.6018,1.4491,5.5762,55.9443,-0.1758,-0.223,-0.088,284.3594
19:59:31:212,1.7323,1.8992,6.1053,56.7167,-0.1694,-0.2584,-0.0999,284.5469
19:59:31:232,2.1776,2.3481,7.4641,57.1029,-0.2232,-0.2893,-0.1354,284.6562
19:59:31:252,2.447,2.5911,8.9496,55.4226,-0.2599,-0.2646,-0.2635,284.7812
19:59:31:273,2.2782,2.408,10.4795,56.906,-0.2559,-0.1599,-0.4573,284.9219
19:59:31:295,1.6306,2.0165,11.4432,56.602,-0.2341,0.116,-0.6254,285.1406
19:59:31:312,1.0583,1.7364,11.6922,56.0514,-0.2045,0.5062,-0.672,285.875
19:59:31:332,0.959,1.6574,12.0178,58.6662,-0.1896,0.7538,-0.6225,286.5625
19:59:31:352,1.2092,1.4503,12.5948,54.4407,-0.1539,0.7158,-0.5535,287.3438
19:59:31:373,1.5923,0.8877,13.2197,56.8448,-0.0799,0.4865,-0.534,288.0625
19:59:31:392,1.9598,0.3945,13.1108,55.7327,-0.0298,0.36,-0.5521,288.6562
19:59:31:412,1.7383,0.1933,13.021,55.7074,-0.1318,0.3935,-0.6206,289.2812
19:59:31:432,1.0931,-0.2747,13.4352,55.9467,-0.3595,0.4375,-0.7069,289.9062
19:59:31:452,-0.1423,-0.8948,14.3761,56.404,-0.5345,0.3767,-0.7069,290.6094
19:59:31:472,-0.9851,-1.5245,14.7963,56.5493,-0.4541,0.2401,-0.5306,291.3906
19:59:31:491,-0.954,-1.837,13.2341,55.588,-0.0828,0.1035,-0.1854,291.8125
19:59:31:514,-0.116,-1.8812,10.9392,56.8282,0.2618,-0.1703,0.1725,292.5625
19:59:31:532,0.971,-1.904,9.7385,55.3036,0.3108,-0.5908,0.4175,292.9688
19:59:31:553,1.5791,-1.6957,9.4417,55.7469,0.1388,-0.9045,0.4974,292.9688
19:59:31:572,1.7467,-1.3449,9.5745,52.6665,-0.0455,-0.9778,0.4769,292.5938
19:59:31:595,1.4666,-1.0936,9.6428,53.5022,-0.0674,-0.8877,0.4234,292.0469
19:59:31:612,0.953,-1.0253,8.8335,54.9815,0.1276,-0.688,0.4029,291.5
19:59:31:632,0.5077,-0.9475,7.1648,53.7807,0.433,-0.4694,0.4913,290.75
19:59:31:653,0.3281,-0.6422,5.3117,52.4621,0.7049,-0.3056,0.6806,290.2812
19:59:31:672,0.6358,-0.3166,3.9446,53.4928,0.8501,-0.2771,0.8932,289.7344
19:59:31:693,1.1302,0.0054,2.9617,52.3395,0.9047,-0.3647,1.0306,288.9062
19:59:31:715,1.7311,0.228,2.1968,53.2268,0.69,-0.7269,1.0005,287.8281
19:59:31:733,2.1322,0.5932,2.289,51.7833,0.3244,-0.826,0.8378,286.6406
19:59:31:757,2.3285,0.7955,3.5735,52.1311,-0.1001,-0.8619,0.6191,285.375
19:59:31:775,2.271,0.7859,6.261,51.4801,-0.4362,-0.7575,0.4082,284.1875
19:59:31:793,1.8305,0.5118,9.0957,51.9528,-0.6559,-0.4547,0.2852,283.2812
19:59:31:812,1.0931,-0.1251,11.4073,50.0573,-0.7952,-0.0321,0.3352,282.625
19:59:31:832,1.4905,-0.0808,12.9085,51.9059,-0.8714,0.2303,0.3752,282
19:59:31:853,2.9689,0.4148,14.3079,49.4293,-0.812,0.2553,0.1299,281.7344
19:59:31:874,3.8105,0.0724,15.4762,51.2994,-0.6285,0.373,-0.2437,281.5469
19:59:31:892,3.2921,-0.6003,15.4224,51.4163,-0.4788,0.7166,-0.4616,281.3281
19:59:31:912,2.8444,-1.3114,14.4743,49.6155,-0.4368,1.1011,-0.4842,281.4844
19:59:31:931,2.9857,-1.3629,12.7097,49.5883,-0.5667,1.2801,-0.501,281.6875
19:59:31:952,3.3305,-1.0528,11.8131,50.7202,-0.8349,1.1283,-0.6917,282.2812
19:59:31:972,2.6481,-1.4036,13.2796,48.0152,-0.8413,0.9682,-0.8446,282.8906
19:59:31:992,1.4139,-2.6869,14.576,49.327,-0.4261,0.9496,-0.6754,283.5156
19:59:32:011,0.4897,-3.4782,13.4208,51.318,0.0916,0.8332,-0.2091,284.3906
19:59:32:032,0.7339,-3.3944,10.871,50.2026,0.4091,0.3403,0.3469,285.4531
19:59:32:051,2.4853,-2.6031,8.9101,48.4526,0.486,-0.3847,0.6327,286.2812
19:59:32:073,3.9745,-1.303,8.3643,48.0992,0.4202,-0.8486,0.5656,286.5312
19:59:32:092,4.5311,-0.3011,8.2529,50.078,0.3497,-0.8286,0.2737,286.1406
19:59:32:112,3.9889,0.1622,7.5287,50.7859,0.2871,-0.505,-0.0232,285.3906
19:59:32:131,2.9246,0.1957,6.1341,48.1509,0.1542,-0.0792,-0.1729,284.7188
19:59:32:152,1.8436,0.2005,4.8699,47.6331,-0.0533,0.2659,-0.1572,284.3438
19:59:32:172,1.1158,0.2089,4.5563,48.111,-0.2059,0.4431,-0.0009,284.4531
19:59:32:191,1.0991,0.5285,4.518,48.8479,-0.2517,0.3418,0.1672,284.6562
19:59:32:211,1.7694,1.26,4.9741,47.8589,-0.1952,0.0406,0.1829,284.7656
19:59:32:231,2.5475,1.8968,6.0563,47.8598,-0.0535,-0.2033,0.0162,284.6875
19:59:32:252,2.9725,2.1698,7.1229,48.3717,0.1033,-0.3045,-0.232,284.4844
19:59:32:273,2.9378,2.0453,7.6556,48.8426,0.167,-0.3184,-0.4547,284.3594
19:59:32:292,2.4051,1.7292,8.2769,47.6246,0.078,-0.2054,-0.5972,284.4688
19:59:32:312,1.7467,1.3797,9.6092,47.2802,-0.0871,0.1158,-0.6304,284.8438
19:59:32:332,1.2523,1.0588,11.4085,47.1842,-0.1832,0.508,-0.6054,285.4219
19:59:32:383,0.619,0.6638,13.0689,46.8695,-0.0892,0.7118,-0.5085,286.1406
19:59:32:384,0.2647,0.1586,13.8985,46.0242,0.1736,0.6729,-0.3175,286.8594
19:59:32:393,-0.0657,-0.2328,14.0924,47.7395,0.4618,0.3967,-0.0832,287.5156
19:59:32:415,0.4215,-0.6554,13.9667,46.5844,0.6858,0.1653,0.1318,288.0156
19:59:32:432,1.7898,0.0533,11.8191,47.8014,0.6621,0.0076,0.1922,288.25
19:59:32:454,2.1118,0.1167,12.1016,45.252,0.3308,-0.072,0.103,288.2031
19:59:32:474,1.7383,-0.398,14.0673,46.2157,-0.0969,-0.1671,-0.0616,287.9688
19:59:32:491,0.8129,-1.1199,15.2655,46.1199,-0.2213,-0.1162,-0.1423,287.75
19:59:32:514,-0.0071,-1.6718,13.5752,46.3397,0.0855,0.1802,-0.0379,287.7344
19:59:32:531,0.0504,-1.6873,9.9504,46.3397,0.5023,0.4047,0.2199,287.875
19:59:32:551,0.8477,-1.23,8.0063,44.4102,0.5728,0.1458,0.4561,288
19:59:32:574,1.694,-0.8422,7.9118,45.6386,0.3665,-0.3426,0.5275,287.9062
19:59:32:591,1.7371,-0.5644,8.5235,45.9977,0.1169,-0.6427,0.4388,287.5
19:59:32:611,1.1206,-0.4483,8.654,46.4381,-0.0194,-0.5796,0.3251,286.9062
19:59:32:631,0.6633,-0.732,8.162,46.1102,-0.0208,-0.3271,0.3224,286.3281
19:59:32:652,0.3114,-0.6075,7.0977,46.3831,0.0759,-0.0976,0.4458,285.9062
19:59:32:672,0.692,-0.2269,6.1999,45.2002,0.1755,-0.0222,0.6489,285.5781
19:59:32:691,1.3193,0.2376,5.83,44.8028,0.2541,-0.1146,0.7922,285.1562
19:59:32:713,1.7311,0.5106,5.7306,44.9276,0.3417,-0.3149,0.8037,284.5312
19:59:32:731,1.9442,0.574,5.8611,44.5879,0.4344,-0.5562,0.7331,283.7188
19:59:32:751,2.1884,0.5632,6.4585,44.5009,0.5009,-0.758,0.6463,282.3125
19:59:32:772,2.4398,0.5884,7.1468,43.6161,0.5121,-0.8062,0.5595,281.4688
19:59:32:791,2.4889,0.6051,7.7166,43.887,0.4716,-0.6774,0.4625,280.75
19:59:32:811,2.5811,0.6387,8.4038,44.7612,0.3657,-0.4441,0.3685,280.0938
19:59:32:832,2.7247,0.9164,8.8898,45.3097,0.2349,-0.1421,0.2758,279.5469
19:59:32:852,2.7175,1.0469,9.2118,43.7833,0.081,0.1264,0.1136,279.125
19:59:32:873,2.0555,0.6662,10.1384,45.001,-0.11,0.1815,-0.1149,278.7969
19:59:32:891,1.3313,-0.3861,12.4212,44.5345,-0.274,-0.018,-0.2722,278.6406
19:59:32:911,1.6904,-1.0301,14.5305,44.3709,-0.2368,-0.2752,-0.1891,278.7812
19:59:32:932,2.5751,-1.2599,14.7879,44.9205,-0.0021,-0.2931,0.017,278.9219
19:59:32:951,3.8045,-0.9463,13.2987,42.4642,0.1201,0.1608,0.1762,279.2656
19:59:32:973,4.4605,-0.5082,12.1926,45.3044,-0.0642,0.7134,0.1102,279.3906
19:59:32:990,3.9063,-0.6506,12.3267,44.9365,-0.3188,0.8489,-0.1729,279.25
19:59:33:011,2.7726,-1.2013,13.0725,45.6595,-0.3808,0.5269,-0.4462,279.0312
19:59:33:031,2.0759,-1.9603,12.5709,45.2557,-0.1547,0.1352,-0.5114,279.0469
19:59:33:051,2.2231,-2.147,10.7225,44.3941,0.139,0.0012,-0.3319,279.6719
19:59:33:073,3.0647,-1.4778,8.7258,45.4259,0.2586,0.01,-0.0397,280.2812
19:59:33:090,3.6465,-0.3992,7.5443,45.5812,0.1345,0.0241,0.0987,280.6406
19:59:33:111,3.6537,0.1957,7.2091,44.8533,-0.0895,0.0465,-0.0019,280.6719
19:59:33:132,2.9187,0.3549,6.668,43.8528,-0.3246,0.4196,-0.3407,280.5469
19:59:33:151,2.107,0.4675,5.6648,44.0455,-0.3577,0.5592,-0.3705,280.5469
19:59:33:175,1.6413,0.6841,4.7742,45.3578,-0.367,0.4814,-0.3625,280.5625
19:59:33:191,1.4809,0.9631,4.3528,44.1828,-0.3465,0.2252,-0.3697,280.8125
19:59:33:210,1.5132,1.2659,4.518,43.8304,-0.3169,-0.0648,-0.4107,281.1875
19:59:33:230,1.4079,1.4802,5.1895,44.5837,-0.2892,-0.2142,-0.4584,282.0312
19:59:33:250,1.39,1.6526,6.0443,44.4167,-0.2772,-0.2425,-0.505,282.4844
19:59:33:273,1.3959,1.746,6.887,44.3655,-0.3017,-0.2225,-0.5564,282.9375
19:59:33:292,1.2894,1.746,8.393,45.6254,-0.3364,-0.0944,-0.5583,283.4844
19:59:33:313,1.2822,1.7125,9.6631,43.6663,-0.3811,0.0886,-0.5561,284.375
19:59:33:331,1.0643,1.6526,10.9715,45.6513,-0.4266,0.3312,-0.5388,285.0312
19:59:33:350,0.8548,1.6538,12.4955,45.2352,-0.3617,0.613,-0.4954,285.6875
19:59:33:374,0.6334,1.4742,13.4591,44.4701,-0.1851,0.7365,-0.4272,286.3594
19:59:33:392,0.4311,1.0325,14.0277,44.8466,0.069,0.651,-0.2664,286.9375
19:59:33:413,0.6142,0.8314,13.9284,44.9788,0.2852,0.4534,-0.0943,287.5
19:59:33:431,1.4043,0.6051,13.6626,44.5436,0.3745,0.3126,-0.0091,287.7344
19:59:33:451,2.1489,0.6458,13.1407,45.6435,0.2946,0.2793,-0.0424,288.0312
19:59:33:472,2.4769,0.89,12.5996,44.7367,0.0706,0.2809,-0.1892,288.125
19:59:33:492,2.1238,0.7524,12.7325,44.8781,-0.135,0.1922,-0.3471,288.1406
19:59:33:514,1.0081,-0.0018,13.5704,46.0699,-0.0924,0.1056,-0.3519,288.1719
19:59:33:531,-0.3626,-0.8062,13.7237,45.0537,0.1843,0.153,-0.1399,288.375
19:59:33:551,-0.9887,-1.2995,12.043,45.7343,0.4176,0.0811,0.1888,288.7656
19:59:33:574,-0.6272,-1.2372,9.7852,45.4548,0.3936,-0.3413,0.4662,289.1719
19:59:33:593,0.6178,-1.1079,9.0119,44.6752,0.1864,-0.8521,0.5419,289.3281
19:59:33:614,1.5085,-0.8565,9.5386,43.4789,0.0072,-1.0158,0.4612,288.875
19:59:33:630,1.451,-0.7105,9.7948,44.7213,-0.0871,-0.8028,0.3608,288.2656
19:59:33:651,0.801,-0.7655,9.5171,43.7644,-0.0605,-0.4347,0.3824,287.7188
19:59:33:675,0.4047,-1.0421,8.7066,42.6569,0.0975,-0.1559,0.5387,287.2812
19:59:33:692,0.1426,-0.9774,7.4664,43.3948,0.3025,-0.0441,0.7818,286.8906
19:59:33:710,0.479,-0.5453,6.2957,43.3859,0.4477,-0.0683,0.9608,286.375
19:59:33:730,1.0308,-0.0461,5.3655,43.4667,0.4969,-0.1932,0.9896,285.6562
19:59:33:750,1.4139,0.2041,5.1141,42.9808,0.4711,-0.3596,0.9326,284.6094
19:59:33:773,1.6485,0.3621,5.4613,43.1122,0.4024,-0.4201,0.8436,283.4531
19:59:33:792,1.5468,0.246,6.2035,42.5532,0.3318,-0.3612,0.7928,282.375
19:59:33:810,1.2307,0.1682,7.0534,43.2915,0.2711,-0.2124,0.838,281.3438
19:59:33:832,1.5133,1.1618,8.4325,43.277,0.2453,0.0127,0.923,280.4062
19:59:33:851,2.7295,2.1386,8.9269,42.6691,0.2117,0.0423,0.9446,279.4688
19:59:33:874,4.8185,2.3445,10.3898,42.7242,0.1558,-0.3338,0.7589,278.5
19:59:33:893,6.1951,1.7663,12.8007,40.9923,0.1137,-0.9519,0.3331,277.3906
19:59:33:911,5.6852,0.5249,15.1171,42.1365,0.0751,-1.2656,-0.2123,276.8438
19:59:33:931,4.2019,-0.92,16.3681,41.0896,0.1113,-1.0094,-0.546,275.6719
19:59:33:950,3.5842,-1.8034,14.8837,42.486,0.2751,-0.1738,-0.5029,275.7344
19:59:33:974,4.0918,-1.2839,11.4384,39.829,0.4109,0.8883,-0.2528,276.2656
19:59:33:992,4.743,-0.234,8.0937,42.4196,0.3284,1.4798,-0.1822,276.8906
19:59:34:014,4.2905,-0.0377,7.3467,40.9151,-0.0407,1.2931,-0.4741,277.2656
19:59:34:030,2.6493,-1.1558,9.6248,40.9711,-0.5249,0.7275,-0.9133,277.3438
19:59:34:050,0.9255,-2.5001,11.3091,40.955,-0.6458,0.3323,-1.1173,277.5781
19:59:34:073,0.218,-2.9287,10.7537,40.7547,-0.4064,0.2926,-0.9255,278.3125
19:59:34:090,0.9219,-2.2523,8.6851,41.3782,-0.1473,0.3437,-0.496,279.5469
19:59:34:113,1.518,-1.2097,7.9704,40.0539,-0.1574,0.1504,-0.2387,280.7969
19:59:34:130,1.3397,-0.8134,8.9209,39.4177,-0.3739,-0.0739,-0.22,281.5781
19:59:34:150,0.6154,-0.4651,8.8778,39.2555,-0.445,0.0793,-0.2294,281.9531
19:59:34:173,0.0911,0.0114,7.2462,38.6528,-0.3273,0.4327,-0.1311,282.2031
19:59:34:192,0.145,0.6243,5.6648,39.5749,-0.2165,0.6356,0.0383,282.4844
19:59:34:211,0.8249,1.3581,5.1022,40.6715,-0.1931,0.5645,0.2197,282.7812
19:59:34:231,1.8676,2.1566,5.4613,40.8139,-0.249,0.3959,0.3315,282.7188
19:59:34:251,2.7068,2.8461,6.0802,40.1849,-0.3332,0.3501,0.2985,282.4844
19:59:34:275,3.121,3.24,7.397,41.0051,-0.404,0.4468,0.1219,282.0938
19:59:34:292,2.7379,3.3836,8.2589,39.8032,-0.3169,0.5757,-0.146,281.7656
19:59:34:310,1.9765,3.064,8.3248,38.8843,-0.0772,0.5365,-0.4195,281.625
19:59:34:330,1.0332,2.6941,8.6288,39.0402,0.1121,0.2771,-0.6062,281.7812
19:59:34:351,0.3712,2.1913,9.8738,39.4512,0.1691,-0.0952,-0.6978,282.2656
19:59:34:375,0.115,1.8537,11.4803,40.2998,0.1752,-0.3663,-0.6994,282.9531
19:59:34:392,-0.1854,1.6933,12.2022,39.3246,0.2149,-0.3261,-0.6512,283.7188
19:59:34:436,-0.4823,1.2229,12.6846,36.5119,0.2261,-0.1381,-0.5889,284.5156
19:59:34:437,-0.6715,0.7308,12.8103,37.4268,0.2269,0.108,-0.46,285.2656
19:59:34:453,-0.4476,0.574,12.5733,36.0571,0.233,0.3331,-0.2549,285.9062
19:59:34:480,-0.0143,0.6973,11.6204,38.6055,0.2195,0.467,-0.0765,286.4375
19:59:34:491,0.5999,0.6782,11.6707,36.1882,0.0493,0.3618,0.0002,286.4375
19:59:34:510,0.6932,0.009,13.9739,37.6117,-0.2599,-0.2052,-0.0611,286.7656
19:59:34:531,-0.3075,-1.1941,16.4423,37.3196,-0.1782,-0.9176,-0.0509,286.7812
19:59:34:551,-0.8139,-2.2176,17.5843,36.6033,0.368,-0.4507,0.3544,286.8594
19:59:34:576,0.0576,-1.9639,14.4779,36.6033,0.6533,0.2926,0.7219,287.0625
19:59:34:594,1.518,-0.6865,9.857,38.4888,0.3768,0.5562,0.6854,287.1406
19:59:34:610,1.8389,0.0832,7.5131,37.6269,-0.1393,0.2803,0.3749,286.7344
19:59:34:632,0.789,-0.264,7.7944,36.9748,-0.465,-0.1692,0.2303,285.8906
19:59:34:650,-0.2896,-0.6949,8.7593,36.6662,-0.4338,-0.4869,0.3632,285.1094
19:59:34:671,-0.4596,-0.7308,9.1544,36.0096,-0.1294,-0.5836,0.6351,284.6719
19:59:34:690,-0.2848,-0.3382,8.9784,37.0379,0.3385,-0.5168,0.9105,284.4219
19:59:34:710,0.3209,0.2149,7.6687,36.7072,0.7417,-0.3892,1.0812,284.0156
19:59:34:730,0.9434,0.6925,5.654,38.9222,0.8986,-0.353,1.1438,283.3438
19:59:34:758,1.6473,1.066,4.3049,35.7709,0.8413,-0.3884,1.1094,280.375
19:59:34:770,2.2938,1.3773,3.8943,36.3399,0.661,-0.4007,0.9731,279.7812
19:59:34:791,2.6122,1.655,4.3049,37.0622,0.4791,-0.3833,0.7693,278.4844
19:59:34:809,2.599,1.7172,5.581,37.3586,0.4053,-0.4707,0.5254,277.8906
19:59:34:831,2.2638,1.6035,6.8739,35.514,0.3915,-0.5767,0.3059,276.875
19:59:34:849,1.8676,1.4443,8.0303,36.5245,0.3462,-0.5455,0.131,276.1719
19:59:34:869,1.6868,1.26,9.0107,36.6181,0.2448,-0.2624,-0.0102,275.7031
19:59:34:893,1.6749,1.1367,9.2022,35.1129,0.0474,0.1043,-0.1295,275.4688
19:59:34:913,1.9741,1.0385,9.1591,35.6478,-0.245,0.2894,-0.2648,275.4062
19:59:34:931,2.5416,0.8254,9.8571,35.7797,-0.4844,0.1671,-0.4837,275.4844
19:59:34:949,2.611,0.1143,11.5222,36.1117,-0.5329,-0.0733,-0.7047,275.6875
19:59:34:970,2.2076,-0.9619,12.9156,35.2532,-0.4179,-0.0446,-0.7519,275.875
19:59:34:996,1.8664,-1.582,12.4691,36.3433,-0.3401,0.258,-0.6256,276.4062
19:59:35:013,2.0089,-1.072,10.3239,35.8106,-0.5393,0.3765,-0.5279,277.2656
19:59:35:031,2.368,-0.3645,9.116,36.5265,-0.9353,0.022,-0.5686,278.1562
19:59:35:050,2.38,-0.513,11.0422,34.369,-1.0868,-0.643,-0.5601,278.8906
19:59:35:071,2.1453,-0.9894,14.2815,34.8687,-0.7113,-1.1839,-0.3537,279.4688
19:59:35:091,2.3297,-1.1953,15.7851,33.5725,0.0091,-1.2622,-0.0371,280.1719
19:59:35:110,3.0659,-1.0157,13.501,35.7061,0.4669,-1.0379,0.2255,281.2031
19:59:35:133,4.0212,-0.2903,9.9037,34.9653,0.4149,-0.7314,0.2692,281.4688
19:59:35:150,4.7131,0.4112,7.7142,35.947,0.1137,-0.4052,0.0836,281.3281
19:59:35:176,4.5934,0.7883,6.559,36.1887,-0.2314,-0.0907,-0.1852,280.9844
19:59:35:194,3.7554,0.9355,6.3759,34.583,-0.4269,0.1293,-0.394,280.75
19:59:35:209,2.8277,0.8589,6.4393,35.2007,-0.4157,0.1677,-0.5002,280.8281
19:59:35:234,1.2547,0.6135,6.741,34.3037,-0.3542,0.1062,-0.5125,281.2188
19:59:35:250,0.9398,0.5992,7.2366,35.0099,-0.2717,0.1131,-0.4366,281.75
19:59:35:269,1.0991,0.7847,7.2953,34.3512,-0.1132,0.1562,-0.3098,282.4062
19:59:35:291,1.4342,1.1223,6.6009,34.7727,0.0586,0.2476,-0.2062,282.9844
19:59:35:309,2.1238,1.5664,6.8416,33.8384,0.074,0.2652,-0.1561,283.4375
19:59:35:332,2.7941,1.7783,7.877,35.3409,0.013,0.1725,-0.1913,283.7031
19:59:35:349,2.8923,1.7436,9.0586,34.8473,-0.0146,0.0715,-0.33,283.8906
19:59:35:370,2.6852,1.3665,10.2509,33.082,-0.0359,0.0651,-0.5047,284.0625
19:59:35:390,2.1381,0.987,11.0386,36.44,-0.0892,0.2982,-0.627,284.3281
19:59:35:414,1.7192,0.6363,11.4971,35.6709,-0.1481,0.6934,-0.64,285.125
19:59:35:431,1.3205,0.2915,11.7856,33.8078,-0.1659,0.9464,-0.5567,285.8438
19:59:35:450,1.1398,-0.0138,12.0501,34.6735,-0.1012,0.9224,-0.3977,286.5469
19:59:35:470,1.1577,-0.1431,12.2117,35.6014,0.0346,0.7128,-0.1964,287.1875
19:59:35:492,1.3038,0.009,11.3881,32.9603,0.1971,0.6068,0.001,287.6406
19:59:35:510,1.4474,0.58,9.8894,33.7049,0.2157,0.6431,0.1376,287.7656
19:59:35:530,1.4187,0.9607,9.5362,34.5709,-0.1025,0.6138,0.1477,287.8438
19:59:35:550,1.4295,0.2963,12.1315,35.7479,-0.6522,0.3006,0.0394,287.7344
19:59:35:569,0.3054,-0.8326,16.5572,33.1018,-1.0269,-0.1873,-0.0653,287.5156
19:59:35:596,-0.4536,-1.6239,18.9646,34.3415,-0.7609,-0.3889,0.0788,287.4062
19:59:35:609,0.212,-1.6227,15.4415,35.585,0.0999,-0.1213,0.503,287.4844
19:59:35:629,1.7359,-0.5441,11.2146,34.3201,0.6743,0.034,0.9083,287.5625
19:59:35:650,2.7965,0.1754,9.772,34.7427,0.6005,-0.1319,0.9731,287.2656
19:59:35:670,2.5356,0.3202,9.9361,33.7462,0.3345,-0.222,0.7699,286.4531
19:59:35:690,1.9023,0.2089,9.8379,32.1069,0.2519,-0.2046,0.5965,284.7344
19:59:35:710,1.7,0.1634,8.7605,33.2019,0.4232,-0.1514,0.576,283.8281
19:59:35:732,1.9777,0.2221,7.0738,33.2909,0.6895,-0.1721,0.6516,283.1719
19:59:35:750,2.3201,0.4435,5.836,34.1295,0.8767,-0.2797,0.711,282.4844
19:59:35:769,2.678,0.683,5.0172,31.8707,0.9502,-0.3871,0.7043,281.7031
19:59:35:791,2.8732,0.817,4.609,34.0015,0.9286,-0.4489,0.6066,280.8906
19:59:35:809,2.8432,0.756,4.7179,32.8121,0.8027,-0.4246,0.4503,280.0469
19:59:35:830,2.6924,0.4878,5.5882,34.7125,0.6067,-0.3298,0.2934,279.2969
19:59:35:849,2.3692,0.2951,6.6823,33.922,0.4384,-0.2366,0.184,278.7656
19:59:35:871,1.8987,0.2017,7.5921,33.1241,0.3529,-0.0781,0.1358,278.4062
19:59:35:891,1.7623,0.4507,7.8016,34.1717,0.3318,0.1509,0.148,278.1719
19:59:35:909,2.0603,0.9954,7.4593,32.9842,0.3097,0.3315,0.1499,278
19:59:35:931,2.3261,1.3677,7.3467,33.3818,0.1667,0.394,-0.0043,277.7969
19:59:35:949,2.1788,1.0265,7.7873,33.5712,-0.4434,0.0617,-0.6794,277.6719
19:59:35:971,1.6737,0.0018,9.632,33.3394,-0.6653,-0.2513,-0.9266,277.5312
19:59:35:991,0.6346,-1.3868,12.2345,33.3691,-0.7268,-0.1711,-0.8896,277.875
19:59:36:016,-0.2932,-2.3613,13.7524,33.201,-0.677,0.3522,-0.4885,278.6875
19:59:36:028,0.5568,-2.0297,12.6846,31.988,-0.7619,0.7208,-0.0957,279.8125
19:59:36:048,2.2483,-0.7763,11.4971,34.6153,-1.0671,0.6106,-0.0757,280.8438
19:59:36:069,2.9725,-0.4675,13.1347,33.1052,-1.3063,0.4473,-0.2315,281.4219
19:59:36:091,2.3476,-0.9499,15.8282,32.2557,-1.0666,0.6135,-0.1942,281.5469
19:59:36:109,1.9406,-1.2635,15.2308,33.3425,-0.5265,0.662,0.045,281.6562
19:59:36:129,2.9342,-0.8386,11.9244,35.7607,-0.2213,0.2401,0.2556,281.9531
19:59:36:149,5.2506,0.1957,9.638,33.8115,-0.1542,-0.4502,0.1075,282.2188
19:59:36:169,7.0678,1.3689,9.122,34.6161,-0.1513,-0.8688,-0.4747,282.1875
19:59:36:192,6.1005,1.2097,9.1017,33.7264,-0.1723,-0.6393,-1.0645,281.9219
19:59:36:210,3.2838,0.1658,8.3319,31.8882,-0.2493,0.075,-1.1657,282.3438
19:59:36:230,1.135,-0.1263,6.8703,33.4692,-0.3273,0.6702,-0.8688,283.5781
19:59:36:250,0.4981,0.489,5.5786,35.9741,-0.293,0.7088,-0.4832,284.2031
19:59:36:269,1.2918,1.1582,4.9406,34.4469,-0.1332,0.296,-0.2605,285.4219
19:59:36:290,2.2231,1.661,4.9597,34.3333,0.0724,-0.146,-0.2648,286.2031
19:59:36:308,2.5703,1.7939,5.1201,34.2091,0.1798,-0.3716,-0.3841,286.5938
19:59:36:329,2.5452,1.7424,5.326,33.6878,0.1065,-0.3199,-0.5346,286.8594
19:59:36:349,2.1944,1.5975,5.8803,33.877,-0.1372,-0.0725,-0.6832,287.2188
19:59:36:370,1.5779,1.3126,7.3108,35.1846,-0.3689,0.2473,-0.7479,287.7344
19:59:36:391,0.977,1.2504,9.383,33.4656,-0.38,0.4835,-0.7396,288.4062
19:59:36:409,0.461,1.1929,11.0386,34.6561,-0.1883,0.5176,-0.7189,288.8125
19:59:36:430,-0.195,0.9188,11.3846,36.4241,-0.0266,0.4375,-0.6344,289.6875
19:59:36:490,-0.7002,0.6746,11.6156,34.7162,0.0008,0.365,-0.4914,290.5625
19:59:36:490,-0.8834,0.501,12.3195,36.1365,-0.0061,0.3608,-0.3218,291.3594
19:59:36:491,-0.7469,0.3897,12.9647,35.7274,0.0072,0.3661,-0.1668,292.0781
19:59:36:513,-0.3231,0.082,13.3119,35.5849,0.037,0.3496,-0.011,292.6562
19:59:36:528,0.4442,-0.3238,13.1419,37.0431,0.0381,0.2002,0.14,293.0156
19:59:36:549,1.2319,-0.1838,13.0856,37.0431,-0.0016,-0.1687,0.2338,293.2344
19:59:36:569,2.0687,-0.076,13.9416,36.0663,-0.0117,-0.5477,0.2063,293.1719
19:59:36:592,2.0555,-0.4854,15.2201,35.8926,0.1688,-0.5945,0.1957,292.9375
19:59:36:609,1.8209,-1.0732,15.2668,35.062,0.555,-0.3082,0.2865,292.6719
19:59:36:630,1.9502,-0.9559,8.5115,35.3212,0.8229,-0.1072,0.429,292.4531
19:59:36:650,2.3656,-0.6387,6.5638,35.8053,0.6956,-0.3961,0.4561,292.2031
19:59:36:670,2.3524,-0.6841,7.5227,35.223,0.2698,-0.9368,0.3264,291.7656
19:59:36:691,1.9167,-1.0636,9.0334,37.3551,-0.1244,-1.2174,0.1877,291.2031
19:59:36:709,1.0943,-1.2193,9.7936,36.8244,-0.244,-1.1304,0.136,290.7344
19:59:36:733,0.5448,-1.0074,9.4644,36.9155,-0.1553,-0.7556,0.225,290.4844
19:59:36:750,0.4083,-0.6255,8.1883,35.2931,0.0426,-0.3066,0.3829,290.3438
19:59:36:769,0.6262,-0.3286,6.5566,37.2131,0.286,-0.1508,0.5259,290.1719
19:59:36:792,0.9422,-0.0197,5.6935,36.6364,0.4607,-0.3423,0.6087,289.8594
19:59:36:809,1.3253,0.185,5.7007,38.0274,0.539,-0.6662,0.629,289.3281
19:59:36:831,1.797,0.2735,6.1891,37.1354,0.5779,-0.9122,0.5885,288.2656
19:59:36:849,2.3033,0.2723,6.8475,35.7576,0.5704,-0.9796,0.5078,287.5469
19:59:36:869,2.7415,0.3789,7.4676,36.8903,0.4914,-0.7791,0.4063,286.8281
19:59:36:890,2.8768,0.5776,7.7897,37.5485,0.3574,-0.423,0.2679,286.2188
19:59:36:909,2.6242,0.6674,8.2398,36.9686,0.1606,-0.0627,0.0846,285.7344
19:59:36:931,2.2387,0.7105,8.5271,37.2181,-0.0293,0.315,-0.0824,285.5312
19:59:36:948,2.2602,0.9954,8.709,36.4941,-0.2178,0.6694,-0.2121,285.3125
19:59:36:969,2.2758,1.0972,8.982,37.7606,-0.4224,0.8369,-0.4041,285.2969
19:59:36:991,2.2004,0.3298,9.8283,37.6102,-0.6517,0.7749,-0.677,285.4531
19:59:37:010,2.1154,-0.9607,11.9376,38.0421,-0.8605,0.4971,-0.8757,285.7969
19:59:37:029,2.5272,-1.971,14.0302,38.3848,-0.9257,0.2375,-0.8786,286.4531
19:59:37:058,3.6118,-2.05,13.9487,37.2564,-0.8216,0.3355,-0.6904,287.4219
19:59:37:077,4.6341,-1.3868,12.7157,38.9438,-0.9998,0.9458,-0.6541,289.4688
19:59:37:093,4.1373,-1.1594,12.8474,37.7167,-1.2703,1.2202,-0.8336,290.5625
19:59:37:115,2.3345,-1.9375,13.9475,38.5546,-1.1841,1.491,-0.6962,291.3594
19:59:37:136,0.6777,-2.2775,13.4448,38.7718,-0.7574,1.385,-0.2169,292.4219
19:59:37:154,0.9051,-1.8142,11.4336,38.7831,-0.2421,0.6236,0.2801,292.4219
19:59:37:176,2.7451,-0.9439,9.3806,38.7341,0.1843,-0.5282,0.491,293.6406
19:59:37:195,4.3001,0.0281,7.8998,36.9023,0.3401,-1.4071,0.3496,293.3594
19:59:37:211,4.7023,0.5417,7.3671,39.6841,0.2088,-1.6087,0.021,292.7656
19:59:37:231,4.093,0.4938,7.713,37.4087,-0.0216,-1.0971,-0.2829,292.2969
19:59:37:250,3.0719,0.2472,7.8184,38.1426,-0.2045,-0.2635,-0.4531,292.2031
19:59:37:271,2.095,0.2173,7.0786,36.6552,-0.3326,0.3301,-0.5529,292.4688
19:59:37:291,1.2427,0.3705,6.7613,39.9927,-0.322,0.4787,-0.5995,293
19:59:37:310,0.6441,0.3741,7.1133,37.7854,-0.0983,0.3626,-0.5359,293.6406
19:59:37:332,0.54,0.4914,7.0666,37.3245,0.183,0.1783,-0.4483,293.6406
19:59:37:349,0.7902,0.8146,6.838,37.6937,0.334,0.0039,-0.4307,294.375
19:59:37:370,1.378,1.0756,7.2103,38.474,0.3606,-0.051,-0.5423,295.0156
19:59:37:390,1.5516,1.1331,7.7753,37.1891,0.2629,0.0284,-0.7367,295.4844
19:59:37:409,0.9051,0.7991,8.7928,38.2734,0.1185,0.1823,-0.851,295.9688
19:59:37:434,0.1617,0.155,10.7297,39.039,0.1305,0.3935,-0.7841,296.5625
19:59:37:449,-0.2082,-0.4256,11.9747,38.9441,0.3103,0.6161,-0.5889,297.3438
19:59:37:468,-0.183,-0.6135,11.7556,37.5807,0.4416,0.6652,-0.3806,298.3281
19:59:37:493,0.2455,-0.5692,11.2193,40.0459,0.452,0.5597,-0.2368,299.2188
19:59:37:512,0.5424,-0.3873,11.1727,38.744,0.3747,0.3427,-0.1841,299.9062
19:59:37:528,0.7974,-0.6003,11.8335,39.4583,0.3057,0.1871,-0.1418,300.3125
19:59:37:548,1.0512,-0.7667,12.1268,39.016,0.1907,0.1765,-0.093,300.5781
19:59:37:567,1.4953,-0.7117,11.7964,38.0787,-0.0663,0.1994,-0.1212,300.7812
19:59:37:590,1.6497,-0.8817,11.9364,39.405,-0.4392,0.0968,-0.219,300.9219
19:59:37:608,0.7327,-1.4347,14.3258,36.871,-0.4866,0.1498,-0.2113,301.0312
19:59:37:628,-1.1587,-2.3086,15.5265,38.5535,-0.0605,0.3517,0.1091,301.1719
19:59:37:649,-1.4795,-2.6318,13.264,38.0693,0.3598,0.287,0.5989,301.4375
19:59:37:668,-0.377,-1.9495,10.1874,39.7246,0.4333,-0.2251,0.8615,301.6719
19:59:37:692,0.7998,-1.2911,9.2573,37.5702,0.3246,-0.7034,0.8569,301.2656
19:59:37:710,1.2128,-0.9248,9.7194,37.3903,0.2842,-0.7889,0.7491,300.4375
19:59:37:728,0.9638,-0.9056,9.6547,37.1183,0.3398,-0.5658,0.7113,299.4219
19:59:37:748,0.3533,-1.0157,8.7521,37.0412,0.4051,-0.1993,0.834,298.4688
19:59:37:770,0.0624,-0.8254,7.3635,37.1147,0.4671,0.071,1.03,297.6406
19:59:37:792,0.3353,-0.477,5.9018,35.7663,0.5212,0.0798,1.1595,296.8125
19:59:37:809,0.9111,-0.1909,4.8496,36.117,0.5494,-0.157,1.1901,295.7188
19:59:37:829,1.4666,0.1251,4.4485,36.7944,0.5281,-0.4496,1.1118,295.0938
19:59:37:848,1.6916,0.2364,4.6497,36.5345,0.4559,-0.6209,0.9688,293.75
19:59:37:868,1.4857,0.2269,5.2865,36.385,0.3361,-0.5604,0.8719,292.4375
19:59:37:891,1.4821,0.1957,6.085,34.4569,0.1609,-0.4012,0.8306,291.1406
19:59:37:909,1.9789,0.422,7.4377,35.6128,-0.0045,-0.2536,0.7563,290.0156
19:59:37:928,2.4099,0.9248,9.3136,34.43,-0.0269,-0.0139,0.6034,289.5625
19:59:37:948,2.5918,1.242,10.1635,34.0803,0.0392,0.2217,0.3882,287.6719
19:59:37:968,2.5787,1.1726,9.231,35.4467,-0.0836,0.2572,0.1568,286.8906
19:59:37:992,2.4171,0.9858,9.1699,35.5312,-0.376,0.153,-0.0504,286.3438
19:59:38:008,2.2914,0.5058,10.6196,33.1454,-0.5771,0.0353,-0.2017,286.0312
19:59:38:029,2.3201,-0.0784,12.8809,35.4248,-0.5505,0.0518,-0.2512,285.9844
19:59:38:049,3.024,-0.3418,13.2664,32.4097,-0.3004,0.2369,-0.2371,286.1562
19:59:38:068,3.0455,0.0952,11.6395,34.3418,-0.1292,0.3461,-0.2935,286.4688
19:59:38:093,2.4997,-0.1383,11.4049,33.9133,-0.1864,0.2028,-0.4744,286.7812
19:59:38:111,1.7096,-1.2013,12.9887,33.4908,-0.33,-0.1165,-0.6296,287.0781
19:59:38:129,1.1469,-1.9363,14.2384,33.4838,-0.2967,-0.2848,-0.5476,287.4844
19:59:38:151,1.5983,-2.0476,13.0701,33.2672,0.0146,-0.2486,-0.2323,288.1562
19:59:38:169,3.0611,-1.4072,10.464,34.172,0.3206,-0.1687,0.1086,288.8906
19:59:38:196,4.33,-0.8805,8.8958,32.032,0.3143,-0.1647,0.2199,289.3438
19:59:38:212,4.1397,-0.6327,8.2039,33.919,0.1265,-0.1951,0.0639,289.3906
19:59:38:229,3.0228,-0.6279,8.2601,33.7177,-0.089,-0.1492,-0.125,289.0156
19:59:38:248,1.5635,-0.6195,8.0458,33.4092,-0.1808,0.0276,-0.1692,288.9375
19:59:38:268,1.1924,-0.258,7.3,31.8727,-0.1372,0.2958,0.0109,289.0781
19:59:38:289,1.5121,0.2999,6.425,32.9709,-0.012,0.3916,0.2426,289.2812
19:59:38:310,2.0232,0.7392,5.7187,32.9883,0.1443,0.2662,0.3669,289.2969
19:59:38:329,2.4673,1.1474,5.4182,32.826,0.2458,0.0372,0.3874,289.1875
