Time,Acc_X,Acc_Y,Acc_Z,Meg,Gyr_X,Gyr_Y,Gyr_Z,Ore
21:32:36:066,-1.3263,1.7819,9.7062,55.799,-0.1539,-0.0339,0.0167,191.9219
21:32:36:125,-1.1695,1.9471,9.3902,57.3747,0.1169,-0.2467,-0.0126,191.9062
21:32:36:143,-1.3359,1.9136,9.5135,57.2591,0.1646,-0.3176,-0.0049,191.9062
21:32:36:166,-1.2808,1.9435,9.62,56.3192,0.236,-0.3428,0.0069,191.9062
21:32:36:192,-1.0402,2.08,9.5326,56.9006,0.2498,-0.2369,-0.0046,169.5469
21:32:36:205,-0.7792,2.0967,9.0047,56.92,0.1401,-0.1122,-0.0477,169.5938
21:32:36:227,-1.0174,1.9794,8.6623,57.0665,-0.0394,-0.0643,-0.0414,169.7344
21:32:36:243,-0.9719,1.904,8.7868,57.8595,-0.1923,-0.0459,-0.0211,169.7656
21:32:36:262,-1.2425,2.1123,8.8934,57.1429,-0.2919,-0.0129,0.0095,169.7969
21:32:36:294,-1.1419,2.2523,8.8982,55.9295,-0.3659,0.0255,0.0239,169.8438
21:32:36:309,-1.1108,2.1195,9.286,57.3395,-0.371,0.018,0.0394,169.8281
21:32:36:326,-1.2353,1.9064,9.6033,57.1518,-0.2874,-0.0656,0.0916,169.7969
21:32:36:341,-1.2054,1.8118,9.8822,56.3264,-0.1265,-0.0691,0.135,169.7656
21:32:36:361,-1.1156,1.9603,9.9325,56.3667,0.0559,-0.0177,0.1869,169.7031
21:32:36:392,-1.0797,1.9256,9.6906,58.3705,0.1555,0.0659,0.1794,169.5938
21:32:36:410,-1.0809,1.9028,9.1508,58.6287,0.1534,0.148,0.1696,169.4375
21:32:36:425,-1.1826,1.8932,8.8563,57.3543,0.1222,0.1442,0.2026,169.2344
21:32:36:445,-1.1431,1.8609,9.1448,57.2734,0.171,0.0396,0.2476,169.0312
21:32:36:461,-1.2197,2.0644,9.4429,57.9218,0.2956,-0.1506,0.3326,168.8281
21:32:36:481,-0.966,2.7467,9.559,57.6775,0.4714,-0.1892,0.3009,168.5938
21:32:36:504,-1.1419,2.5588,9.4117,57.1928,0.5691,-0.166,0.2367,168.3125
21:32:36:521,-0.8846,2.323,9.0933,58.9476,0.4408,0.0987,0.1392,167.9844
21:32:36:542,-0.2058,2.3218,8.4217,57.285,0.0969,0.5187,-0.032,167.5625
21:32:36:562,-0.0418,2.3122,8.4516,56.9742,-0.236,0.8692,-0.1599,167.3906
21:32:36:586,-0.6727,2.3314,8.7629,56.2809,-0.379,0.9259,-0.1628,167.2969
21:32:36:606,-1.3538,2.4056,9.207,59.0322,-0.3108,0.7198,-0.1165,167.3125
21:32:36:623,-1.4101,2.3074,9.5482,58.9249,-0.1321,0.4665,-0.0507,167.3594
21:32:36:641,-1.0031,2.299,9.4201,56.1156,0.0133,0.251,0.0108,167.3906
21:32:36:662,-0.875,2.2033,9.1292,57.4026,0.0354,0.1893,0.0521,167.3906
21:32:36:688,-0.778,2.2236,8.8515,56.7572,-0.0714,0.2944,0.0883,167.3594
21:32:36:703,-0.4775,2.5085,8.551,58.086,-0.2764,0.4715,0.0814,167.3125
21:32:36:724,-0.1759,2.4415,8.5367,58.1556,-0.5105,0.5898,0.0415,167.1875
21:32:36:742,-0.1759,1.9986,9.2058,58.5259,-0.6775,0.6217,0.0133,167.0312
21:32:36:764,0.455,1.7556,10.5885,57.1465,-0.6413,0.7597,-0.0776,166.8594
21:32:36:786,0.1438,2.3505,10.2557,56.6495,-0.4242,0.7818,-0.2163,166.6875
21:32:36:805,0.0636,2.3122,9.5159,57.7764,-0.1731,0.4814,-0.2991,166.5469
21:32:36:823,-0.1423,2.3457,9.037,56.8328,-0.0165,0.0353,-0.3599,166.5469
21:32:36:843,-0.3746,2.2823,9.2465,58.0189,0.0136,-0.4049,-0.3905,166.7656
21:32:36:863,-0.7457,2.2117,9.7757,57.9318,0.0163,-0.6358,-0.3945,167.1094
21:32:36:886,-0.6643,2.2284,9.966,57.9969,0.0599,-0.6097,-0.3388,167.5625
21:32:36:906,-0.4524,2.2667,9.5195,56.7173,0.1236,-0.3785,-0.3079,168.0469
21:32:36:925,-0.5769,2.5073,8.8192,58.1547,0.1369,-0.0869,-0.3553,168.5312
21:32:36:946,-0.8379,2.7168,8.4816,57.1333,0.0746,0.0862,-0.444,168.9531
21:32:36:960,-0.8786,2.6989,8.3056,56.9845,0.0216,0.0851,-0.5346,169.3594
21:32:37:001,-1.0689,2.5397,8.0219,56.6841,0.028,-0.0134,-0.6219,169.8125
21:32:37:002,-1.4771,2.3936,8.0734,56.1704,0.0274,-0.1508,-0.6914,170.3594
21:32:37:021,-1.6543,2.317,8.1464,55.2714,0.0115,-0.2297,-0.6898,171.0312
21:32:37:042,-1.7046,2.3397,8.0925,57.6721,-0.029,-0.1967,-0.6541,171.75
21:32:37:061,-1.8566,2.4176,8.1811,57.9462,-0.1228,-0.1125,-0.6219,172.5781
21:32:37:082,-2.102,2.4307,8.5642,58.0486,-0.228,-0.0094,-0.5729,173.375
21:32:37:103,-2.2097,2.493,8.794,58.1086,-0.2679,0.0327,-0.4864,174.4062
21:32:37:121,-2.1271,2.657,8.9233,58.4677,-0.2445,0.0207,-0.3708,175.0469
21:32:37:142,-1.9536,2.8557,9.0083,56.7769,-0.2056,0.0044,-0.268,175.5625
21:32:37:166,-1.9105,3.0185,9.1328,59.0045,-0.1712,-0.0094,-0.2011,175.9375
21:32:37:187,-2.0517,3.0377,9.2968,59.6341,-0.1398,-0.0137,-0.1724,176.2188
21:32:37:203,-2.5042,2.9658,9.5267,58.1823,-0.1238,-0.0318,-0.1439,176.4219
21:32:37:221,-2.9555,2.882,10.0594,56.515,-0.1337,-0.0723,-0.0637,176.6094
21:32:37:242,-3.2093,2.7815,10.8674,55.9209,-0.1513,-0.1506,0.0833,176.75
21:32:37:263,-3.4272,2.384,12.013,56.7246,-0.2264,-0.244,0.2508,176.8125
21:32:37:287,-3.3039,1.6526,13.3071,57.6194,-0.391,-0.3005,0.397,176.7031
21:32:37:304,-2.946,0.6542,13.5286,57.7481,-0.5185,-0.2928,0.5091,176.5938
21:32:37:322,-3.1734,0.3083,13.27,57.0384,-0.591,-0.2459,0.6202,176.2031
21:32:37:341,-2.6646,0.2532,13.3394,56.3644,-0.5454,-0.006,0.8548,175.6406
21:32:37:363,-1.689,0.2568,12.6463,56.7323,-0.187,0.222,1.0319,174.9531
21:32:37:387,-1.2712,0.4016,11.8131,56.8245,0.2314,-0.0054,0.9712,174.1094
21:32:37:405,-0.9671,0.5297,11.1655,56.9242,0.522,-0.2534,0.8687,172.9531
21:32:37:421,-1.2724,0.659,10.0115,57.9326,0.7617,-0.3173,0.7238,171.2656
21:32:37:441,-1.3766,0.8051,8.405,55.8767,0.934,-0.3362,0.6066,170.375
21:32:37:462,-1.2209,0.981,7.2629,55.2372,0.873,-0.3423,0.5134,169.6406
21:32:37:486,-1.2209,1.1355,7.3886,56.0998,0.563,-0.3199,0.3741,169.0625
21:32:37:504,-1.3215,0.8302,8.6348,56.4448,0.086,-0.4014,0.033,168.6094
21:32:37:524,-1.7896,0.3705,9.7314,56.2751,0.2211,-0.456,-0.0105,168.6094
21:32:37:541,-2.0134,0.0437,9.9241,54.6951,0.4637,-0.4121,0.066,168.25
21:32:37:561,-1.8554,-0.021,9.1101,55.5588,0.6221,-0.2939,0.1672,168.0781
21:32:37:582,-1.6543,0.2664,8.0171,57.2826,0.6136,-0.1445,0.2407,168.1562
21:32:37:605,-1.349,0.7572,7.2498,55.5425,0.5297,0.0042,0.2529,168.1562
21:32:37:621,-1.0509,1.1391,6.7374,54.1521,0.4432,0.0516,0.2021,168.0312
21:32:37:640,-0.9468,1.5173,6.486,57.3517,0.3419,0.0593,0.1118,167.8281
21:32:37:661,-0.9492,1.7747,6.3974,55.0838,0.2133,0.0372,0.0077,167.5625
21:32:37:688,-1.0354,1.9495,6.5854,55.2607,0.057,0.0228,-0.0885,167.2812
21:32:37:704,-1.2293,2.1099,7.1684,55.4783,-0.0676,0.0337,-0.1351,167.2344
21:32:37:721,-1.3658,2.1458,7.9309,56.8654,-0.1079,0.0377,-0.129,167.2812
21:32:37:741,-1.4005,2.3254,8.4541,55.1961,-0.0818,-0.0036,-0.0951,167.4219
21:32:37:767,-1.2018,2.5816,8.806,55.464,-0.0573,-0.0518,-0.0874,167.4844
21:32:37:787,-1.0162,2.8186,9.2669,56.1789,-0.0232,-0.0408,-0.1167,167.6094
21:32:37:804,-0.6332,2.8737,9.7481,54.8139,0.0125,0.0995,-0.1929,167.7188
21:32:37:823,-0.0466,2.6701,9.7517,55.0466,-0.0509,0.4183,-0.3151,167.8281
21:32:37:841,-1.294,3.3369,9.7337,55.321,-0.1318,0.7624,-0.3511,167.9531
21:32:37:860,-1.6375,3.0652,9.9744,54.9561,-0.139,0.8135,-0.3716,168.1562
21:32:37:881,-2.0661,2.5923,10.8363,56.215,0.0589,0.7528,-0.3359,168.4688
21:32:37:906,-2.5401,2.3158,11.5641,56.215,0.4149,0.5235,-0.2105,168.75
21:32:37:921,-2.9088,2.1542,11.3714,53.7486,0.726,0.2375,-0.0254,169.0469
21:32:37:948,-2.5389,1.8992,10.8171,54.785,0.8288,0.112,0.1126,169.3438
21:32:37:960,-1.8099,1.9315,10.3347,55.2356,0.5923,0.0308,0.1083,169.6094
21:32:37:981,-1.6435,2.0668,10.0821,54.0415,0.1177,0.0468,0.0487,169.6094
21:32:38:004,-1.4783,1.5329,10.8746,55.3509,-0.1878,0.418,0.0521,169.5469
21:32:38:088,-1.9153,1.2647,11.12,54.2867,-0.2405,1.0479,0.1789,169.4844
21:32:38:089,-1.6698,1.2707,9.5063,55.0088,-0.196,1.2942,0.3022,169.4219
21:32:38:089,-1.5047,1.7149,8.223,55.5944,-0.0834,0.9112,0.4095,169.1562
21:32:38:089,-1.0497,2.3481,7.5478,53.6901,0.0232,0.1259,0.3315,168.6562
21:32:38:112,-0.5063,2.7037,8.0817,54.8465,0.122,-0.6893,0.1057,168.0625
21:32:38:122,-0.2094,2.5337,9.0394,54.2961,0.1923,-1.1634,-0.162,167.5312
21:32:38:148,-0.2585,2.1446,10.0079,53.5876,0.1886,-1.1037,-0.3617,167.3125
21:32:38:161,-0.5206,1.8358,10.5968,55.3237,0.1867,-0.6659,-0.4837,167.5156
21:32:38:181,-1.4364,1.9399,8.7569,53.8108,0.18,-0.1618,-0.4938,168.0469
21:32:38:203,-1.6399,2.0309,8.2218,53.1882,0.1571,0.1142,-0.4232,168.7031
21:32:38:222,-1.604,2.2823,7.907,54.6853,0.1427,0.1749,-0.3138,169.3281
21:32:38:247,-0.9552,2.6642,7.6376,51.281,0.1364,0.1834,-0.1425,169.875
21:32:38:260,-0.6415,2.9802,7.2773,52.8436,0.1979,0.1874,-0.0874,170.3125
21:32:38:282,-0.2776,3.0927,6.9589,54.6529,0.2141,0.1408,-0.1418,170.5469
21:32:38:303,-0.2549,3.0472,6.8846,52.0494,0.1675,0.1624,-0.2464,170.6406
21:32:38:321,-0.5482,3.0903,7.2318,54.2893,0.0461,0.2095,-0.3599,170.7656
21:32:38:350,-0.4967,3.1179,7.4521,51.4851,-0.0304,0.2074,-0.4153,170.9844
21:32:38:359,-0.523,3.2843,7.4233,51.6214,-0.0314,0.0843,-0.4816,171.2969
21:32:38:381,-0.7361,3.3525,7.658,53.0034,-0.0514,-0.0843,-0.5426,171.7031
21:32:38:406,-0.7457,3.3561,7.9321,50.8775,-0.1023,-0.2014,-0.5391,172.1875
21:32:38:423,-1.0378,3.3692,8.2182,51.0397,-0.1603,-0.2209,-0.4978,172.7656
21:32:38:448,-1.5944,3.4387,8.5929,52.446,-0.2123,-0.2587,-0.411,173.375
21:32:38:459,-1.6172,3.9055,9.462,51.0478,-0.2693,-0.3053,-0.2624,174
21:32:38:480,-1.3311,4.0205,10.1982,51.7942,-0.2775,-0.2387,-0.154,174.5312
21:32:38:503,-1.5202,4.0013,10.6088,52.7722,-0.1987,-0.1905,-0.1511,174.9219
21:32:38:521,-2.1463,3.7918,10.3718,51.6255,-0.0815,-0.1101,-0.2022,175.2344
21:32:38:542,-2.9519,3.4937,10.3287,50.6004,-0.0197,-0.1775,-0.2208,175.4062
21:32:38:565,-3.2069,2.7923,11.5581,50.4521,-0.0634,-0.3666,-0.1519,175.625
21:32:38:588,-2.9723,2.6019,11.94,48.8553,-0.0748,-0.1306,-0.0046,175.9062
21:32:38:605,-2.5653,2.6342,12.0034,50.79,0.0112,-0.0864,0.0636,176.125
21:32:38:622,-2.0912,2.165,12.347,48.5708,0.0655,-0.2957,0.0042,176.1406
21:32:38:640,-2.5892,1.1893,12.7289,49.74,0.0711,-0.5242,-0.1881,176.0781
21:32:38:660,-3.5289,0.2975,12.104,49.5146,0.1371,-0.4768,-0.2888,176.1094
21:32:38:682,-3.9144,0.1742,10.628,47.3024,0.3023,-0.1559,-0.1276,176.4219
21:32:38:704,-3.6786,0.6087,8.8814,47.8535,0.4434,0.0923,0.1874,176.8125
21:32:38:721,-3.0298,1.0732,7.8411,47.4789,0.4485,0.0601,0.4356,176.9531
21:32:38:740,-2.3223,1.2576,7.6412,47.9798,0.314,-0.255,0.4995,176.9531
21:32:38:761,-2.0637,1.2504,7.889,46.9979,0.1143,-0.5841,0.4194,176.6406
21:32:38:781,-1.8985,1.1486,8.1141,47.7186,-0.0905,-0.7604,0.3195,176.125
21:32:38:802,-1.871,1.1654,8.0267,45.3145,-0.2762,-0.7053,0.2729,175.6719
21:32:38:820,-1.8674,1.2396,7.7908,47.6662,-0.4376,-0.5399,0.3046,175.2656
21:32:38:845,-1.6734,1.3318,7.8016,47.0791,-0.5537,-0.4819,0.3861,175.0469
21:32:38:860,-1.1695,1.3761,8.2434,46.354,-0.5992,-0.5839,0.4553,174.75
21:32:38:884,-0.6858,1.3845,8.7868,45.771,-0.4626,-0.5434,0.43,173.9062
21:32:38:903,-0.3949,1.4084,8.7509,45.9237,-0.3302,-0.3532,0.3858,173.4375
21:32:38:920,-0.2992,1.5712,8.3224,45.9876,-0.2519,-0.2089,0.3472,173.4375
21:32:38:941,-0.2178,1.7364,7.8842,44.1794,-0.2514,-0.1439,0.2993,173
21:32:38:961,-0.2728,1.8513,7.6963,44.3856,-0.2842,-0.2046,0.2537,172.6094
21:32:38:982,-0.2776,1.8729,7.9872,44.6541,-0.289,-0.2859,0.1991,172.2344
21:32:39:005,-0.195,1.8226,8.4935,45.2747,-0.2424,-0.3652,0.1382,171.8906
21:32:39:021,-0.1699,1.7831,8.9748,42.6385,-0.1598,-0.4374,0.1113,171.6406
21:32:39:047,-0.1675,1.9136,9.6272,43.7615,-0.037,-0.4576,0.1379,171.3281
21:32:39:059,-0.0418,2.141,10.1324,44.6988,0.1292,-0.4393,0.1784,171.2344
21:32:39:082,0.2156,2.4164,10.4245,45.0106,0.2967,-0.4012,0.1824,171.0625
21:32:39:102,0.4131,2.6845,10.4101,44.5276,0.4024,-0.3623,0.1376,171.0625
21:32:39:120,0.4825,2.8377,10.1827,42.1063,0.4248,-0.3157,0.0785,170.9062
21:32:39:142,0.5436,2.8318,9.8571,41.4026,0.3585,-0.3439,0.0303,170.75
21:32:39:166,0.6346,2.791,9.9073,42.5707,0.24,-0.3884,-0.0025,170.6719
21:32:39:187,0.5603,2.7108,10.2916,43.0978,0.1611,-0.3146,0.0015,170.6406
21:32:39:204,0.2072,2.7276,10.5609,43.6656,0.1771,-0.0741,0.0673,170.6562
21:32:39:221,-0.0406,2.9048,10.2964,43.1796,0.2589,0.0945,0.1784,170.7031
21:32:39:240,0.4778,2.9359,9.6859,43.6823,0.3137,-0.0523,0.2066,170.7344
21:32:39:261,1.4462,2.9024,9.4704,42.2208,0.2714,-0.3743,0.0569,170.6719
21:32:39:281,2.2866,2.6151,9.8259,43.3863,0.1382,-0.5935,-0.211,170.4375
21:32:39:304,2.4997,2.0776,10.4233,41.7498,-0.0365,-0.5274,-0.4392,170.2188
21:32:39:321,2.1788,1.4443,10.853,43.633,-0.1696,-0.2678,-0.5482,170.2031
21:32:39:346,1.6066,0.914,10.9296,43.606,-0.2072,0.0119,-0.5402,170.5156
21:32:39:359,1.0751,0.6028,10.6208,42.3778,-0.1638,0.1967,-0.4371,171.75
21:32:39:380,0.795,0.5848,10.0749,42.344,-0.069,0.194,-0.3047,172.375
21:32:39:404,0.9111,0.8398,9.5697,41.2148,0.0288,0.0151,-0.216,172.6406
21:32:39:423,1.4019,1.0852,9.3806,43.3038,0.0887,-0.1599,-0.2086,173.0156
21:32:39:447,1.9155,1.309,9.304,41.9499,0.0735,-0.1791,-0.3082,173.2812
21:32:39:459,1.8281,1.4299,9.1532,41.1634,0.0059,-0.0523,-0.4195,173.5156
21:32:39:480,1.1661,1.5987,8.8096,41.9479,-0.0743,0.1509,-0.4453,173.8125
21:32:39:503,0.5125,1.7951,8.3511,43.2087,-0.1404,0.2619,-0.3793,174.25
21:32:39:522,0.224,2.0189,8.1045,41.2554,-0.184,0.2436,-0.3021,174.75
21:32:39:540,0.1749,2.159,8.2134,40.8098,-0.1862,0.2042,-0.2549,175.2031
21:32:39:562,0.1593,2.2883,8.4624,41.2017,-0.139,0.2146,-0.2262,175.5469
21:32:39:587,0.2371,2.4523,8.3918,40.7595,-0.0732,0.2436,-0.1926,175.8281
21:32:39:605,0.5256,2.56,8.3439,41.2023,-0.0264,0.2518,-0.1505,176.0781
21:32:39:622,0.7411,2.6857,8.5343,41.8114,-0.0093,0.2007,-0.1306,176.2812
21:32:39:641,0.8453,2.7324,8.7258,40.4098,0.0016,0.1498,-0.1359,176.4531
21:32:39:660,0.7459,2.6426,8.6588,40.7194,0.0181,0.1594,-0.1684,176.5625
21:32:39:681,0.558,2.6223,8.6767,41.6916,0.0333,0.14,-0.1846,176.7031
21:32:39:703,0.5089,2.6785,8.7461,41.2616,0.0439,0.1083,-0.1428,176.8281
21:32:39:721,0.5113,2.9203,8.7007,41.0593,0.0655,0.1357,-0.0616,177.0156
21:32:39:740,0.5508,3.2052,8.4708,41.7604,0.0938,0.2233,0.0117,177.2031
21:32:39:762,0.6322,3.4076,8.1907,40.0184,0.0999,0.2905,0.0423,177.2969
21:32:39:779,0.5268,3.5261,8.2637,41.5336,0.0746,0.2622,0.0143,177.2969
21:32:39:801,0.2898,3.544,8.5223,40.8524,0.0232,0.1877,-0.0456,177.2188
21:32:39:822,-0.037,3.3908,9.1005,40.6998,-0.0293,0.1,-0.1069,177.1406
21:32:39:841,-0.383,3.1526,9.9265,40.8393,-0.0796,0.0084,-0.1623,177.1406
21:32:39:860,-0.9324,2.9251,10.5597,40.6964,-0.126,0.0436,-0.1764,177.2031
21:32:39:880,-1.0845,2.6007,10.5897,41.3596,-0.1816,0.2361,-0.1127,177.3438
21:32:39:905,-0.3782,2.0584,10.798,39.5954,-0.2764,0.2739,-0.0203,177.5312
21:32:39:925,0.3413,1.5892,11.8909,40.8993,-0.441,0.0015,-0.007,177.6875
21:32:39:939,0.2886,1.0936,13.3274,42.4997,-0.6053,-0.2547,-0.0917,177.7188
21:32:39:960,-0.3638,0.5704,13.349,42.4943,-0.6008,-0.0827,-0.1663,177.6875
21:32:39:979,-1.1228,0.4004,11.527,42.4942,-0.3838,0.4225,-0.1159,177.8281
21:32:40:000,-1.4915,0.5692,9.723,40.8704,-0.114,0.6865,0.0801,178.0156
21:32:40:023,-1.0916,0.9128,8.6767,41.3666,0.0834,0.4673,0.3179,178.0938
21:32:40:043,-0.2752,1.078,8.6049,39.6351,0.1625,-0.0084,0.385,177.9219
21:32:40:059,0.1725,0.8529,9.0873,40.3234,0.1113,-0.4299,0.2282,177.5156
21:32:40:081,-0.3866,0.4328,9.5219,41.4797,-0.0402,-0.5,0.009,177.0938
21:32:40:103,-1.1228,0.1191,9.6715,41.7845,-0.2149,-0.3205,-0.0667,176.8906
21:32:40:157,-1.4101,0.0533,9.5733,41.132,-0.3353,-0.1183,0.0407,176.9375
21:32:40:158,-1.179,0.2161,9.389,40.4203,-0.3739,-0.0102,0.2327,177.0469
21:32:40:173,-0.6822,0.598,9.3112,42.8021,-0.3406,0.014,0.4101,177
21:32:40:192,-0.219,0.8781,9.3004,40.0165,-0.2565,-0.0278,0.4886,176.7344
21:32:40:203,0.0791,1.0469,9.0334,41.6185,-0.1159,-0.0515,0.482,176.5156
21:32:40:221,0.1043,1.3282,8.4828,41.774,0.0447,-0.0331,0.4487,176
21:32:40:241,0.1306,1.6311,8.053,42.0296,0.1494,-0.0688,0.4119,175.4375
21:32:40:261,0.1976,1.7843,7.8854,39.8725,0.1686,-0.1439,0.3568,174.9062
21:32:40:283,0.2252,1.8717,7.9094,43.212,0.1108,-0.1743,0.2796,174.2188
21:32:40:304,0.2012,1.9507,8.229,41.6658,-0.077,-0.1674,0.1842,173.8281
21:32:40:319,0.2,2.0213,8.6552,42.8498,-0.1023,-0.1143,0.1616,173.5312
21:32:40:339,0.2431,2.1015,8.9185,40.8224,-0.0783,-0.0803,0.1355,173.5312
21:32:40:359,0.3006,2.1949,9.0981,42.3109,-0.0285,-0.0797,0.1089,173.2969
21:32:40:380,0.3425,2.3852,9.1532,42.7655,0.0221,-0.1199,0.0852,173.1094
21:32:40:404,0.54,2.5253,9.3638,41.9153,0.0551,-0.2006,0.0399,172.7969
21:32:40:422,0.7112,2.6282,9.7349,41.5609,0.0791,-0.2547,-0.0251,172.6875
21:32:40:440,0.6705,2.6342,10.1635,43.8117,0.1071,-0.2473,-0.0845,172.5938
21:32:40:459,0.625,2.5325,10.4376,43.5527,0.1246,-0.2499,-0.1207,172.5625
21:32:40:479,0.6465,2.3733,10.7058,42.2017,0.1201,-0.2749,-0.1311,172.6094
21:32:40:503,0.6118,2.2236,11.0529,43.3979,0.1121,-0.3165,-0.1266,172.7344
21:32:40:519,0.4909,2.1482,11.3953,42.12,0.1406,-0.2965,-0.0824,173.0781
21:32:40:539,0.9291,1.8896,11.4432,42.0103,0.1561,-0.3602,-0.0696,173.1562
21:32:40:559,1.6988,1.5533,11.7437,41.7449,0.1222,-0.422,-0.1612,173.3125
21:32:40:579,2.1812,1.1031,12.0932,44.1548,0.0642,-0.3218,-0.2975,173.4062
21:32:40:603,1.8448,0.7081,12.0477,45.8583,0.0309,-0.0574,-0.3591,173.5625
21:32:40:623,1.1972,0.4256,11.3857,43.256,0.0626,0.1014,-0.3095,173.8594
21:32:40:640,0.8788,0.3454,10.7716,46.0564,0.1441,0.0992,-0.2264,174.2656
21:32:40:664,0.8872,0.5178,10.2305,44.8542,0.2485,0.0121,-0.1617,174.6562
21:32:40:679,1.2679,0.7368,9.8187,44.9803,0.3409,-0.1269,-0.154,174.7969
21:32:40:699,1.9825,0.841,9.4764,45.7282,0.3662,-0.2321,-0.2456,175.0469
21:32:40:724,2.4374,0.9248,9.2381,45.577,0.2855,-0.2022,-0.4089,175.2188
21:32:40:739,2.1633,0.9284,8.9903,43.7096,0.1372,-0.0153,-0.5391,175.4062
21:32:40:760,1.3265,0.9619,8.618,44.6075,0.0056,0.218,-0.5351,175.6875
21:32:40:780,0.6525,1.1989,8.1272,45.6894,-0.0692,0.3437,-0.4201,176.1719
21:32:40:804,0.6525,1.479,7.7825,44.3944,-0.0954,0.3054,-0.3423,176.7812
21:32:40:821,0.8465,1.7747,7.8016,45.4428,-0.0679,0.2257,-0.3527,177.5781
21:32:40:839,0.8668,2.0081,7.8483,46.0063,0.0024,0.226,-0.3945,177.9531
21:32:40:865,0.795,2.1506,7.6747,44.8265,0.0642,0.2513,-0.4275,178.3125
21:32:40:878,0.7256,2.2715,7.2941,47.4108,0.069,0.1871,-0.4485,178.6875
21:32:40:900,0.7375,2.3649,7.172,46.4288,0.0053,0.0625,-0.4707,179.125
21:32:40:920,0.8213,2.3769,7.5203,46.2417,-0.0993,-0.0161,-0.4965,179.5938
21:32:40:939,0.7423,2.3661,8.1021,46.3611,-0.1893,0.0239,-0.4818,180.0781
21:32:40:959,0.613,2.3685,8.5187,46.9814,-0.2448,0.1272,-0.4243,180.6406
21:32:40:980,0.6573,2.4894,8.9832,45.7795,-0.2618,0.153,-0.3572,181.2031
21:32:41:006,0.6861,2.6678,9.2657,46.113,-0.2413,0.1291,-0.3042,181.7188
21:32:41:023,0.7124,2.8102,9.3722,46.8293,-0.1819,0.1187,-0.2709,182.125
21:32:41:039,0.7303,2.9239,9.1735,47.4386,-0.0914,0.156,-0.2557,182.4844
21:32:41:059,0.6741,3.0508,8.8443,47.8822,-0.0016,0.1826,-0.2616,182.7969
21:32:41:080,0.5472,3.1095,8.648,48.5801,0.041,0.1645,-0.2965,183.0625
21:32:41:109,0.3473,3.0197,8.8204,48.24,0.0149,0.1067,-0.3466,183.3438
21:32:41:124,0.0504,2.7456,9.4405,47.1248,-0.0695,0.0249,-0.4078,183.625
21:32:41:139,-0.383,2.4403,10.3754,48.9523,-0.1625,-0.0379,-0.4315,183.9688
21:32:41:159,-0.8941,2.2081,11.0721,48.1594,-0.2091,-0.002,-0.3801,184.3906
21:32:41:181,-0.8403,1.8154,11.1272,47.3667,-0.2045,0.1426,-0.2512,184.875
21:32:41:204,-0.7912,1.4551,11.211,48.7159,-0.2136,0.1906,-0.1441,185.3594
21:32:41:222,-0.9624,1.0553,11.2924,47.8304,-0.2642,0.1898,-0.0933,185.6875
21:32:41:246,-1.0019,0.5441,11.2744,46.9112,-0.3196,0.2095,-0.0483,185.875
21:32:41:258,-1.0892,0.1143,11.1822,46.4148,-0.3412,0.1331,0.0021,185.9844
21:32:41:279,-1.2173,-0.1622,11.1164,48.7098,-0.2828,-0.0092,0.0703,186.0469
21:32:41:303,-1.2078,-0.2173,10.8542,48.7319,-0.1342,-0.0616,0.1762,186.0469
21:32:41:321,-1.3059,-0.1095,10.1551,47.8865,0.0128,0.0082,0.2969,185.9844
21:32:41:339,-1.4137,0.1778,9.5207,49.3586,0.1015,0.0673,0.4079,185.8438
21:32:41:364,-1.3442,0.4771,10.3395,48.6533,0.1225,-0.0209,0.4921,185.5938
21:32:41:380,-0.875,0.5441,12.2776,48.563,0.2053,-0.2145,0.5515,184.9375
21:32:41:399,-0.796,0.4747,13.7787,49.5687,0.5428,-0.1082,0.5635,184.375
21:32:41:419,-1.3754,0.3334,12.8678,49.2439,1.1212,0.246,0.577,183.7969
21:32:41:441,-1.6746,0.7596,9.8582,48.6337,1.7468,0.6284,0.6769,183.1719
21:32:41:458,-1.2185,1.5927,6.3938,48.3316,1.9992,0.6018,0.8109,182.5156
21:32:41:479,-2.1379,2.6486,4.5455,49.0836,1.6946,0.2228,0.8439,181.7344
21:32:41:505,-1.1443,2.9263,4.2426,49.0261,1.0256,0.202,0.997,180.7812
21:32:41:523,-0.4105,3.0628,4.9813,48.2624,0.2977,0.4958,1.0623,179.8281
21:32:41:538,-0.5218,3.1885,6.3088,47.4777,-0.2687,0.7259,0.9382,178.7344
21:32:41:566,-0.5386,3.1442,7.0295,48.6467,-0.5308,0.8407,0.8849,177.4375
21:32:41:578,-0.6619,3.3645,6.9062,50.0519,-0.538,0.7365,0.8559,176.2031
21:32:41:600,-0.6463,3.8589,6.6333,50.5347,-0.4495,0.3807,0.846,175.0156
21:32:41:622,-0.62,4.388,6.8356,48.4541,-0.4016,-0.1346,0.7856,173.9219
21:32:41:640,-0.359,4.7567,7.6975,49.6408,-0.4453,-0.5951,0.674,173.3906
21:32:41:666,0.449,5.0524,10.2772,49.735,-0.5342,-0.8579,0.5866,172.4062
21:32:41:678,0.9758,4.9482,12.2046,49.4337,-0.4706,-0.7463,0.4751,171.6562
21:32:41:702,0.3784,4.7375,12.0214,48.9402,-0.0498,0.164,0.0647,170.7812
21:32:41:723,-0.5302,4.3784,11.3582,49.4479,0.073,0.206,0.0386,170.7812
21:32:41:744,-0.8044,4.0073,10.7585,50.6757,0.0876,-0.1029,0.1326,170.1094
21:32:41:764,0.2898,3.5045,11.1691,48.9061,0.0514,-0.3607,0.1904,170.0156
21:32:41:778,1.1649,3.0532,11.873,50.3357,-0.0101,-0.1772,0.1898,169.9375
21:32:41:799,1.3576,2.5157,11.4648,48.0192,-0.1561,0.1509,0.2063,169.8125
21:32:41:823,2.1453,2.1267,10.4017,50.911,-0.5768,-0.0552,0.1097,169.6562
21:32:41:841,3.2095,1.503,11.6132,48.6663,-1.0312,-0.2022,-0.2339,169.4688
21:32:41:858,2.4817,0.4759,13.1156,49.3524,-1.1297,0.1698,-0.4725,169.2031
21:32:41:878,1.0488,0.0712,12.7792,49.9358,-0.8397,0.7613,-0.4185,169.0938
21:32:41:899,0.2491,-0.1251,10.6088,48.2097,-0.4453,0.8247,-0.1559,169.3906
21:32:41:923,0.4514,0.1646,8.8826,50.3768,-0.179,0.2489,0.0204,169.9062
21:32:41:939,1.4905,0.4507,8.6073,47.2106,-0.0487,-0.5431,-0.0371,170.3438
21:32:41:958,2.3297,0.7356,9.4189,48.2457,0.0373,-0.9202,-0.2589,170.3125
21:32:41:978,2.3381,0.9487,10.0965,49.2515,0.1201,-0.7322,-0.5127,170.3125
21:32:41:998,1.5145,1.078,9.6775,49.0904,0.1598,-0.3061,-0.6805,170.5312
21:32:42:024,0.5508,0.9128,8.3882,47.4936,0.1087,-0.1152,-0.7295,171.0781
21:32:42:040,-0.3746,0.8829,7.3934,48.6113,-0.0088,-0.2614,-0.636,171.8438
21:32:42:059,-0.7732,0.9643,7.391,48.6113,-0.0868,-0.4217,-0.4587,172.6719
21:32:42:079,-0.7217,1.1414,7.7873,47.7899,-0.0615,-0.4105,-0.2746,173.4531
21:32:42:106,-0.3961,1.3438,7.986,46.6799,0.0485,-0.3423,-0.1207,173.8125
21:32:42:120,0.0588,1.57,7.8615,46.4439,0.1537,-0.459,-0.0459,174.3906
21:32:42:139,0.6693,1.6275,7.7885,47.1113,0.1577,-0.7152,-0.0757,174.7344
21:32:42:159,1.3361,1.5401,8.2074,47.3021,0.0208,-0.8068,-0.1726,174.9062
21:32:42:218,1.6042,1.5461,8.5833,46.7949,-0.2384,-0.5144,-0.2656,175.0156
21:32:42:219,0.9267,1.837,8.5151,47.3068,-0.5236,-0.0177,-0.2105,175.1719
21:32:42:219,0.4023,2.3457,8.2709,46.6663,-0.697,0.4167,-0.0405,175.4531
21:32:42:239,0.4754,2.7731,8.2063,47.5492,-0.686,0.7291,0.0721,175.9844
21:32:42:259,0.3868,3.0664,8.1823,46.8613,-0.5111,0.8367,0.1139,176.125
21:32:42:280,-0.3542,2.9922,8.0243,46.1871,-0.2546,0.7578,0.2236,176.0625
21:32:42:306,-1.0809,3.0436,8.3703,46.8972,0.0035,0.6841,0.4146,175.8906
21:32:42:321,-1.5525,2.5169,9.0825,46.0381,0.2453,0.8622,0.6479,175.6562
21:32:42:339,-2.3654,2.0991,8.9939,46.107,0.4213,1.1967,1.066,175.25
21:32:42:359,-2.4252,2.1362,8.5965,47.5532,0.47,1.271,1.4623,174.6094
21:32:42:380,-1.4639,2.3804,9.1352,46.1887,0.4256,0.9578,1.6492,173.5625
21:32:42:405,-1.9572,2.6761,10.7262,46.3424,0.4232,0.4558,1.7297,172.0625
21:32:42:424,-1.4651,2.5253,11.2134,46.5485,0.5225,0.4851,1.8389,170.1562
21:32:42:439,-0.717,2.4678,11.4037,45.2713,0.5563,0.5277,1.8724,168.1719
21:32:42:462,-0.1028,2.4439,12.4691,46.7342,0.3776,0.1323,1.6833,166.1094
21:32:42:478,-0.0394,1.6299,14.3881,45.7875,0.0594,-0.3365,1.3009,164.0312
21:32:42:498,-0.8606,0.8206,14.3318,44.7204,0.0037,-0.2688,0.9627,161.9375
21:32:42:521,-1.7668,0.7308,11.7533,43.5671,0.2011,0.3421,0.9134,160.2344
21:32:42:539,-1.871,1.1905,8.6252,44.1249,0.3233,0.9267,1.082,158.5625
21:32:42:559,-1.6327,1.7184,6.9433,43.7412,0.1246,0.7658,1.1526,157.4844
21:32:42:580,-1.2497,1.8322,7.4736,44.5048,-0.2977,0.1605,1.022,156.125
21:32:42:604,-0.8498,1.4431,9.2489,42.9467,-0.6474,-0.4917,0.7731,154.7656
21:32:42:623,-0.5769,1.0193,10.458,42.3335,-0.7715,-0.8324,0.5576,154.125
21:32:42:638,-0.3949,0.5465,10.7058,42.1599,-0.7089,-0.7871,0.4545,153.0938
21:32:42:659,-0.4332,0.3813,9.9648,42.837,-0.5302,-0.3367,0.4785,152.4219
21:32:42:678,-0.195,0.4818,8.7186,42.379,-0.2759,0.1458,0.6287,151.9688
21:32:42:698,0.3832,0.75,7.6664,42.4794,-0.0661,0.4172,0.8316,151.5156
21:32:42:722,0.6849,0.9894,7.1492,42.3031,0.0621,0.4614,0.9347,150.9062
21:32:42:740,0.7507,1.0648,7.1097,41.8003,0.1438,0.4452,0.9307,150.0781
21:32:42:758,0.8548,1.2109,7.2725,41.9139,0.2258,0.3956,0.9065,150.0781
21:32:42:778,1.5312,1.6981,7.3503,41.4649,0.3294,0.3656,0.9177,147.8594
21:32:42:798,2.2555,2.3278,7.1324,40.156,0.4125,0.2606,0.8205,146.7812
21:32:42:822,2.4159,2.6462,7.3383,39.9854,0.3667,0.0966,0.5115,145.75
21:32:42:840,1.9119,2.4942,7.4581,43.3322,0.2264,0.062,0.1358,144.25
21:32:42:858,1.1146,2.2859,7.4221,41.5604,0.0469,0.247,-0.1268,143.6875
21:32:42:879,0.971,2.3242,7.9321,42.6926,-0.1782,0.3328,-0.2067,143.5312
21:32:42:903,1.0907,2.4738,9.2274,41.7964,-0.3529,0.1608,-0.2443,143.6406
21:32:42:919,1.3181,2.4283,10.7106,41.3673,-0.4085,-0.1644,-0.3172,143.8281
21:32:42:938,1.6186,2.1817,11.9436,41.9814,-0.363,-0.4976,-0.4225,144.0625
21:32:42:960,1.5264,2.0931,12.2776,39.9423,-0.2602,-0.6488,-0.5159,144.4375
21:32:42:979,1.4678,2.1817,12.0394,41.6003,-0.2069,-0.5897,-0.5415,144.9688
21:32:43:006,1.7515,2.0572,12.3362,41.5024,-0.2754,-0.463,-0.5316,145.5938
21:32:43:027,1.2654,1.734,13.4507,41.6652,-0.4099,-0.3237,-0.5636,146.2656
21:32:43:042,-0.2106,1.1163,15.2931,40.7483,-0.4953,-0.1407,-0.595,146.9219
21:32:43:062,-1.4185,0.9715,15.4008,40.1474,-0.3358,0.2079,-0.4925,147.5625
21:32:43:078,-1.4065,1.4084,13.3598,39.9163,0.0695,0.4327,-0.2443,148.25
21:32:43:099,-0.6176,1.904,10.9955,41.3985,0.583,-0.3943,-0.0541,148.5469
21:32:43:123,0.5364,1.995,9.7086,41.0469,0.5191,-0.9929,-0.2248,149.0312
21:32:43:139,1.1074,1.8789,9.7613,40.0687,0.3883,-1.3447,-0.4153,149.0938
21:32:43:160,1.9897,1.5257,10.2293,40.4888,0.3412,-1.3679,-0.7015,149.5625
21:32:43:180,2.1633,1.2635,9.9337,39.8446,0.3827,-1.0845,-0.9793,149.5625
21:32:43:207,2.2698,1.0433,8.7426,39.6951,0.448,-0.6401,-1.2294,150.1562
21:32:43:228,1.9382,1.1534,7.0056,41.5095,0.4551,-0.157,-1.44,151.1094
21:32:43:244,1.6593,1.3186,4.937,40.4216,0.289,0.2137,-1.5873,152.3594
21:32:43:258,1.2391,1.6586,3.6848,38.4702,0.0075,0.4644,-1.7106,153.8281
21:32:43:278,0.795,1.904,3.4274,39.2588,-0.2434,0.5901,-1.8049,155.3906
21:32:43:297,0.2563,2.074,3.6944,39.4322,-0.4037,0.5482,-1.8661,157.1719
21:32:43:322,-0.1783,2.2619,4.1397,39.1063,-0.5143,0.3581,-1.8978,159.0625
21:32:43:343,-0.3794,2.5385,5.2937,39.4675,-0.5428,0.0425,-1.9644,160.9531
21:32:43:360,-0.5937,2.5696,7.1061,38.6236,-0.4091,-0.2297,-2.0677,163.0156
21:32:43:383,-0.9636,2.5792,8.4409,40.5189,-0.228,-0.2427,-2.1458,165.1406
21:32:43:405,-1.4412,2.4559,8.8862,39.6469,-0.1633,-0.1167,-2.1871,168.4531
21:32:43:425,-2.2648,2.2655,9.2286,40.8403,-0.2027,0.1355,-2.1346,170.8906
21:32:43:440,-3.0357,1.9734,9.8319,38.4882,-0.2077,0.4004,-1.9351,173.3906
21:32:43:457,-4.0305,2.1805,10.4364,40.2227,-0.1204,0.4854,-1.6142,175.7656
21:32:43:478,-4.2532,2.1386,10.8985,39.3196,-0.0424,0.2683,-1.2363,178.0781
21:32:43:498,-4.0233,2.0022,11.9615,39.8802,0.0493,0.083,-0.8736,180.0781
21:32:43:523,-3.7779,2.1578,13.1575,39.1913,0.1542,0.1054,-0.5388,181.6562
21:32:43:539,-3.2093,2.5181,13.5226,39.428,0.0663,0.0633,-0.2869,182.7969
21:32:43:558,-2.436,2.8222,13.7764,40.3139,-0.2162,-0.1815,-0.1993,183.5938
21:32:43:582,-1.7991,2.2847,15.0764,38.9336,-0.3305,-0.3993,-0.3188,183.8594
21:32:43:606,-1.5023,1.0828,16.6434,39.2013,-0.0016,-0.3239,-0.452,184.1719
21:32:43:623,-1.3897,-0.1263,15.839,40.7595,0.6128,-0.031,-0.4043,184.4062
21:32:43:640,-1.5705,-0.6566,12.9647,38.4771,1.1023,0.2486,-0.1346,184.7812
21:32:43:658,-1.3778,-0.41,10.1132,40.2317,1.2927,0.1416,0.1581,185.3281
21:32:43:678,-1.1874,0.3226,7.7753,39.3777,1.1225,-0.4923,0.3304,185.7969
21:32:43:699,-0.6128,0.7775,6.6261,38.979,0.6866,-1.014,0.3653,185.9531
21:32:43:723,-0.3758,1.0792,6.7805,40.1201,0.2269,-0.8696,0.4074,185.7344
21:32:43:739,-0.4093,1.3126,6.7566,38.739,-0.1563,-0.4299,0.5278,185.5
21:32:43:758,-0.2393,1.4706,6.4142,40.6942,-0.4682,0.051,0.6151,185.2344
21:32:43:778,-0.2932,1.4276,5.8563,39.0833,-0.6602,0.2811,0.7043,184.7969
21:32:43:799,-0.529,1.7208,5.6469,39.9304,-0.7441,0.1642,0.8447,184.1875
21:32:43:824,0.0695,1.9232,6.3472,39.7846,-0.7103,-0.0321,0.9986,183.3906
21:32:43:842,0.8824,2.2823,7.8256,39.6346,-0.5409,-0.215,1.0596,182.4688
21:32:43:859,1.3121,2.7408,9.1041,39.1943,-0.1976,-0.2771,0.9757,181.4375
21:32:43:878,0.9662,2.9072,9.0442,40.6838,0.261,-0.248,0.7334,180.25
21:32:43:897,0.0827,2.5552,8.7521,38.0668,0.5854,-0.2438,0.413,179.0781
21:32:43:922,-0.5565,1.892,9.0706,38.4416,0.6783,-0.2241,0.2098,178.1094
21:32:43:941,-0.9097,1.8824,9.0311,38.2753,0.6061,0.1525,0.1951,177.5156
21:32:43:959,-1.0138,2.7252,8.6013,39.5463,0.4272,0.6838,0.2513,177.2188
21:32:43:977,-0.7349,3.0352,8.8036,38.5314,0.2248,0.765,0.2109,177.0312
21:32:43:997,-0.5051,2.4259,10.4843,40.5709,0.1161,0.3035,0.0447,176.5156
21:32:44:021,-0.6475,1.4922,12.4248,39.9401,0.1071,-0.1338,-0.126,176.1719
21:32:44:040,-0.2872,0.8338,12.3734,38.9343,0.1353,-0.0012,-0.0901,176.0781
21:32:44:058,0.704,1.0541,10.9356,38.2468,0.0197,0.389,0.0308,176.2344
21:32:44:078,1.2511,1.3821,11.5869,37.9299,-0.3558,0.4068,0.029,176.3125
21:32:44:099,0.716,0.5932,14.7927,40.1696,-0.7603,-0.0342,-0.1956,176.3125
21:32:44:123,-0.1962,-1.0947,17.0229,39.2211,-0.7928,-0.2243,-0.4288,176.1719
21:32:44:140,-0.4739,-1.6394,15.7384,39.0536,-0.375,0.0542,-0.2682,176.2031
21:32:44:158,1.0356,-0.6291,12.207,39.0536,0.1622,0.3805,0.2322,176.6094
21:32:44:178,3.6321,1.0948,9.6631,39.4082,0.3963,0.2111,0.6527,177.1562
21:32:44:199,4.658,2.3074,9.0478,38.8194,0.3398,-0.3061,0.5323,176.8594
21:32:44:223,3.8213,2.2799,9.134,38.6927,0.1976,-0.6406,0.0244,176.0938
21:32:44:290,2.4135,1.8705,8.387,38.2122,0.0724,-0.5133,-0.4238,175.5312
21:32:44:290,1.2511,1.6574,7.0008,39.6032,-0.0495,-0.0752,-0.6126,175.5781
21:32:44:290,0.6214,1.8178,5.757,39.309,-0.1683,0.3448,-0.6057,176.1406
21:32:44:304,0.443,2.086,5.2805,38.6071,-0.2293,0.4787,-0.5053,176.8438
21:32:44:325,0.4658,2.3014,5.4302,39.0381,-0.1702,0.2995,-0.4099,177.4531
21:32:44:339,0.4742,2.3433,5.5954,37.764,0.0069,0.0675,-0.3455,177.9688
21:32:44:361,0.7782,2.6558,5.4996,39.069,0.1982,-0.0294,-0.2954,178.3906
21:32:44:377,1.0631,3.2424,5.0746,39.5079,0.3041,-0.0046,-0.3178,178.7812
21:32:44:399,1.4175,3.7559,4.767,38.7138,0.2788,0.0081,-0.4978,179.1094
21:32:44:425,-0.1352,3.5057,5.6528,38.5829,0.1262,-0.1892,-0.8501,179.5
21:32:44:441,-0.7062,2.9275,7.3096,37.1887,-0.0772,-0.4052,-1.0456,179.7344
21:32:44:458,-1.2245,2.3781,9.7625,37.7263,-0.2583,-0.5074,-1.0688,180.5156
21:32:44:480,-1.8781,2.1949,11.6671,37.0112,-0.3007,-0.3676,-1.0086,182.2656
21:32:44:499,-2.3306,2.4295,12.2967,36.3762,-0.1846,0.496,-0.6216,183.5469
21:32:44:522,-2.6096,2.6821,12.262,37.0744,-0.1142,0.6327,-0.3724,183.5469
21:32:44:541,-2.5425,2.8641,12.4811,38.6367,0.012,0.565,-0.1031,185.6094
21:32:44:557,-2.2995,2.9646,12.6056,36.1223,0.147,0.3847,0.1304,186.2656
21:32:44:577,-1.6016,3.2316,12.438,36.5711,0.123,0.1112,0.2535,186.6094
21:32:44:597,-1.0067,3.5919,12.8079,36.9462,-0.0423,-0.2712,0.184,186.6562
21:32:44:622,-0.6966,3.0556,14.26,38.5721,-0.1614,-0.508,0.0226,186.4688
21:32:44:641,-0.9827,1.7029,16.1275,37.8149,-0.0043,-0.3232,-0.0603,186.1719
21:32:44:657,-1.4017,0.0976,16.2089,38.0215,0.4583,0.087,0.0319,186
21:32:44:677,-1.8578,-0.7488,12.9456,37.119,0.7923,0.2359,0.2649,186.0312
21:32:44:697,-2.0242,-0.5297,8.9616,38.3209,0.6434,-0.1226,0.5464,186.125
21:32:44:724,-1.0258,0.1562,7.6987,37.9058,0.2415,-0.6616,0.6495,186.1094
21:32:44:743,-0.0071,0.5788,8.6815,38.0134,-0.0336,-0.9005,0.491,185.5625
21:32:44:758,-0.201,0.4651,9.547,38.7285,-0.0783,-0.7964,0.3837,184.9062
21:32:44:777,-0.9528,0.1981,9.4524,39.171,0.0818,-0.5556,0.5057,184.375
21:32:44:798,-1.5178,0.3334,8.0841,37.9799,0.2418,-0.4097,0.7898,184.0312
21:32:44:821,-1.0342,0.9846,6.5602,39.2963,0.2304,-0.3418,1.0255,183.6562
21:32:44:841,0.0528,1.6155,5.8911,38.8087,0.1217,-0.2291,1.0596,183
21:32:44:858,0.6633,2.0824,5.6409,38.3938,0.0386,-0.1176,0.9856,182.0312
21:32:44:883,0.9542,2.311,5.5128,40.2459,0.008,-0.1045,0.8929,181.4531
21:32:44:896,1.1709,2.5492,5.5379,39.9216,0.0099,-0.2166,0.7936,180.2656
21:32:44:919,1.3014,2.8509,5.8336,39.6344,0.0392,-0.3636,0.6711,179.1562
21:32:44:939,1.2918,3.0987,6.261,40.5042,0.0557,-0.4957,0.5195,178.2031
21:32:44:957,1.2942,3.2052,6.9194,39.2795,-0.0011,-0.4861,0.3589,177.3281
21:32:44:977,1.0117,3.1574,8.0267,41.3613,-0.0943,-0.3069,0.2204,176.6094
21:32:45:002,0.279,2.6725,9.772,41.0174,-0.0732,0.1072,0.1994,176.1094
21:32:45:024,-0.45,2.4247,10.6352,40.8943,0.0384,0.5981,0.3067,175.6719
21:32:45:040,-0.5194,2.8413,9.9349,40.7503,0.1015,0.7376,0.3616,175.4688
21:32:45:060,-0.0849,3.4746,8.9006,41.2645,0.037,0.3949,0.2521,175.1406
21:32:45:077,0.3401,3.4363,8.976,40.7011,-0.142,-0.1511,0.0593,174.6406
21:32:45:102,0.5101,2.7444,10.5143,42.4424,-0.3302,-0.5325,-0.0507,174.1719
21:32:45:123,0.5999,1.8765,12.924,42.682,-0.3907,-0.4731,-0.0358,173.9844
21:32:45:141,1.0895,0.9296,14.3103,41.969,-0.3185,-0.0904,0.0825,174.0469
21:32:45:164,1.6509,0.6303,13.7584,43.8538,-0.2666,0.2963,0.2202,174.2188
21:32:45:180,2.1453,1.3031,12.6559,44.0523,-0.2394,0.3424,0.188,174.2656
21:32:45:199,2.2734,0.9068,12.0394,43.6031,-0.1321,0.2473,0.0689,174.0781
21:32:45:221,2.4757,0.8039,10.7537,44.8635,0.045,0.2742,0.0364,173.7812
21:32:45:238,3.2131,1.0912,9.043,42.5553,0.1654,0.2462,0.0324,173.6094
21:32:45:257,3.8943,1.5281,8.4492,45.4106,0.0807,-0.052,-0.0832,173.5469
21:32:45:278,4.0906,1.4503,9.6344,45.4388,-0.2061,-0.4728,-0.3601,173.5
21:32:45:298,3.0886,0.7931,11.2086,45.1041,-0.4924,-0.5615,-0.7234,173.5312
21:32:45:324,1.1972,0.3011,11.1248,44.8556,-0.5992,-0.0574,-0.9679,173.6875
21:32:45:342,-0.3004,0.3047,9.4668,44.7448,-0.4852,0.5906,-0.9202,174.3906
21:32:45:359,-0.7038,0.6889,7.4808,44.7568,-0.2668,0.8652,-0.6387,175.4688
21:32:45:376,-0.3818,1.3438,6.3256,45.5639,-0.0503,0.6649,-0.2973,176.5781
21:32:45:397,0.3497,2.0141,6.1568,45.4686,0.1385,0.1717,-0.0392,177.375
21:32:45:416,1.0224,2.5911,6.2334,46.4909,0.3135,-0.2835,0.066,177.8125
21:32:45:440,1.445,3.0819,6.3005,45.5031,0.4309,-0.5367,0.0103,177.9375
21:32:45:466,1.603,3.234,6.6189,46.6594,0.4163,-0.5524,-0.1652,177.9062
21:32:45:476,1.463,3.2136,6.9349,45.5476,0.3017,-0.3559,-0.3929,177.8906
21:32:45:497,0.9015,3.0484,7.5251,47.3297,0.1302,-0.1152,-0.6171,178.0312
21:32:45:520,0.2479,2.7324,8.3128,49.1309,-0.0197,0.1125,-0.7828,178.3906
21:32:45:540,-0.1854,2.5875,8.8694,47.6838,-0.0831,0.2766,-0.8363,178.9688
21:32:45:559,-0.523,2.6067,9.0311,48.6828,-0.0613,0.3919,-0.7974,180.2344
21:32:45:577,-0.8115,2.5863,9.0478,49.0491,-0.0029,0.4068,-0.7245,181.125
21:32:45:597,-1.1826,2.6007,9.0849,48.0158,0.045,0.3876,-0.6137,181.9844
21:32:45:616,-1.3442,2.7851,9.0167,48.2165,0.0634,0.3477,-0.4491,182.7656
21:32:45:641,-1.2509,2.7755,9.8163,48.7277,0.0051,0.1996,-0.2603,183.4062
21:32:45:658,-1.1048,2.6342,11.4169,47.5578,-0.0876,0.03,-0.0539,183.8594
21:32:45:680,-0.4332,2.5002,13.58,51.5386,-0.1156,-0.1247,0.2063,184.125
21:32:45:697,0.2719,2.7312,14.26,49.1205,0.0272,-0.1232,0.4801,184.1875
21:32:45:716,0.0612,3.1921,13.3466,49.726,0.2346,-0.0728,0.6458,183.9844
21:32:45:740,-0.0992,3.0652,13.0952,50.6988,0.2677,-0.1924,0.728,183.4531
21:32:45:757,0.2659,2.408,13.7404,50.7751,0.1957,-0.2941,0.8042,182.7188
21:32:45:777,0.6202,1.6634,13.7309,51.8285,0.2796,-0.1716,0.8197,181.9062
21:32:45:797,0.7746,1.2061,11.8059,51.4032,0.6141,0.0774,0.7776,181.5156
21:32:45:822,0.534,0.9296,8.5941,50.198,0.9191,0.2452,0.6756,180.6094
21:32:45:840,0.4071,1.1031,6.5267,51.0486,0.8645,0.1075,0.58,179.6875
21:32:45:858,0.8896,1.5269,6.6692,50.3416,0.4474,-0.259,0.5387,178.4531
21:32:45:878,1.3887,1.5963,8.2972,49.9917,-0.0567,-0.5437,0.4114,177.7656
21:32:45:897,1.0153,1.4455,9.134,50.9152,-0.2991,-0.3359,0.0668,177.1875
21:32:45:918,0.467,1.4754,8.5714,51.1703,-0.237,-0.0824,0.0947,176.8281
21:32:45:940,-0.1017,1.7687,7.3575,51.7158,-0.2392,-0.0118,0.1938,176.7031
21:32:45:956,-0.9085,1.7891,7.1372,51.5229,-0.1894,-0.1927,0.3941,176.7031
21:32:45:977,-1.2868,1.5329,7.6424,51.7839,0.0115,-0.4667,0.7142,176.6094
21:32:45:996,-0.8654,1.5114,7.6903,51.1489,0.2967,-0.7639,1.0495,176.4062
21:32:46:016,-0.0849,1.752,7.2031,52.143,0.5097,-1.0028,1.307,176
21:32:46:040,0.7651,2.3002,6.6787,51.6293,0.5747,-1.092,1.425,175.25
21:32:46:057,1.8628,2.9491,6.668,51.6632,0.5294,-0.97,1.352,174.2031
21:32:46:076,2.4757,3.4878,6.8715,51.7216,0.4173,-0.6473,1.1166,172.8281
21:32:46:096,2.5248,3.6374,6.9936,51.3146,0.2578,-0.3037,0.8868,171.3281
21:32:46:117,2.1597,3.7296,7.142,51.6192,0.0842,-0.0102,0.744,169.9531
21:32:46:142,1.8221,3.8301,7.5646,51.3113,-0.0511,0.1517,0.6673,168.2188
21:32:46:158,1.7898,4.0396,8.0087,53.7715,-0.1483,0.0782,0.6236,167.2969
21:32:46:177,2.3081,4.2383,8.7725,52.4493,-0.2464,-0.2246,0.535,166.5312
21:32:46:201,3.2036,4.0181,10.2102,53.8131,-0.3409,-0.5599,0.3808,165.7656
21:32:46:224,4.2127,3.1657,12.1758,52.8772,-0.3981,-0.6172,0.2045,165.1406
21:32:46:241,4.986,2.0441,13.9427,52.8772,-0.3521,-0.1176,0.0742,164.7188
21:32:46:258,5.4122,1.1762,13.1347,52.07,-0.3537,0.5246,-0.0163,164.6094
21:32:46:280,5.0231,1.3318,10.8997,52.7103,-0.5843,0.6913,-0.0848,164.5312
21:32:46:351,5.1405,1.5652,10.2162,51.7725,-0.8927,0.4897,-0.2693,164.5156
21:32:46:351,4.7694,1.2983,11.6132,51.585,-0.934,0.3051,-0.5055,164.5156
21:32:46:351,4.0499,0.5872,12.6319,53.0776,-0.616,0.2691,-0.6046,164.5938
21:32:46:356,3.5112,0.07,11.5928,52.523,-0.2858,0.3099,-0.5729,164.9531
21:32:46:376,3.2131,0.3394,9.4273,52.5214,-0.2232,0.1107,-0.4842,165.6094
21:32:46:398,3.7003,0.9272,8.1021,51.6701,-0.4109,-0.3226,-0.5197,166.3125
21:32:46:424,4.1457,1.5137,8.5857,53.7821,-0.6048,-0.6339,-0.7364,167.25
21:32:46:441,3.8859,1.4766,9.8582,52.9961,-0.5939,-0.5972,-1.0115,167.8438
21:32:46:457,2.8827,1.0708,10.2102,53.1881,-0.4155,-0.2638,-1.1537,168.625
21:32:46:476,1.7742,0.7021,9.2154,51.0741,-0.2021,0.0628,-1.1199,169.7656
21:32:46:498,1.0643,0.5369,7.5323,52.7839,-0.0858,0.181,-0.9612,171.1406
21:32:46:516,0.88,0.677,6.17,54.0543,-0.0945,0.1216,-0.7628,172.4531
21:32:46:540,1.2224,1.0469,5.9246,51.9455,-0.118,0.0095,-0.6344,173.6562
21:32:46:557,1.6102,1.3761,6.3974,52.9824,-0.0325,-0.0057,-0.6227,174.6406
21:32:46:576,1.7443,1.552,6.2095,53.5146,0.0498,0.0335,-0.6747,175.3906
21:32:46:597,1.761,1.9004,5.3176,53.1276,-0.0128,0.095,-0.73,176.1094
21:32:46:617,1.7515,2.0297,6.0036,53.8958,-0.2346,0.1149,-0.8059,176.8438
21:32:46:641,1.2942,1.8202,7.7406,53.3452,-0.5071,0.1139,-0.8786,177.6406
21:32:46:657,1.0416,1.8477,9.9301,53.6591,-0.6653,0.1893,-0.84,178.4688
21:32:46:677,1.105,2.2943,11.2648,52.3537,-0.5981,0.2787,-0.7165,179.4688
21:32:46:697,1.1709,2.6869,11.2529,54.0638,-0.3699,0.3781,-0.647,180.5156
21:32:46:716,0.9949,2.6785,10.8578,54.1046,-0.1912,0.3938,-0.6286,181.8281
21:32:46:742,0.461,2.323,10.8339,54.2707,-0.1893,0.4827,-0.5804,182.2031
21:32:46:758,0.2036,2.1302,11.3031,52.2302,-0.2717,0.5893,-0.3969,183.2656
21:32:46:776,0.2276,2.1757,12.1998,53.5354,-0.3052,0.6031,-0.1484,183.5781
21:32:46:796,1.3864,2.8725,12.6559,54.1307,-0.2264,0.5181,0.0908,184.125
21:32:46:817,3.6561,4.2204,12.3338,53.0632,-0.1851,0.4937,0.1973,184.4062
21:32:46:841,3.4753,4.7447,13.6686,53.9544,-0.3792,0.4127,-0.1002,184.4062
21:32:46:858,0.8524,2.25,16.4327,54.9293,-0.4229,0.0771,-0.4858,184.1875
21:32:46:876,-0.9121,-0.1634,15.0345,53.9041,0.1912,-0.0494,-0.4267,184.0625
21:32:46:896,-0.8654,-0.1802,11.0075,52.4348,0.7657,0.3986,0.0106,184.4375
21:32:46:916,1.4271,0.1945,9.0311,52.5843,0.7076,0.638,0.324,185.0312
21:32:46:938,3.5531,-0.0952,9.4321,52.0671,0.3382,0.2492,0.2338,185.2344
21:32:46:957,3.7746,-0.92,10.6004,53.126,-0.0463,-0.2286,-0.223,184.9219
21:32:46:976,2.3213,-1.4204,11.0721,52.8947,-0.2746,-0.431,-0.7367,184.3906
21:32:46:995,1.0883,-1.3114,9.9983,50.7535,-0.347,-0.2196,-0.9751,184.6719
21:32:47:016,0.3317,-0.908,8.6444,51.5711,-0.3353,0.0372,-0.9375,185.5625
21:32:47:038,-0.1914,-0.6782,7.3779,52.7948,-0.2477,0.124,-0.7439,186.6562
21:32:47:055,-0.3064,-0.4938,6.3699,52.0462,-0.0961,0.0396,-0.4288,187.7344
21:32:47:076,-0.2872,0.1035,5.6361,51.4173,0.0551,-0.1394,-0.0597,188.5938
21:32:47:096,0.0492,0.8649,5.2171,52.8776,0.1358,-0.2936,0.2777,189.0781
21:32:47:116,0.6501,1.3749,5.1871,50.9218,0.1209,-0.3937,0.4876,189.1406
21:32:47:137,1.1745,1.7292,5.7055,50.7865,0.0216,-0.4038,0.5528,188.8438
21:32:47:161,1.2463,2.1314,6.3184,51.6317,-0.0754,-0.3279,0.5326,187.7344
21:32:47:178,1.39,2.4247,7.0882,51.3552,-0.0929,-0.4917,0.3523,187.1562
21:32:47:206,1.1362,2.499,8.4337,50.8725,0.0067,-0.6883,0.2367,186.6562
21:32:47:220,0.7459,2.1817,10.1515,50.9263,0.2455,-0.7418,0.2236,186.2969
21:32:47:240,0.8058,1.9231,10.7106,51.2304,0.502,-0.611,0.2388,186.1875
21:32:47:259,0.8967,2.0919,9.9468,49.5612,0.5348,-0.5088,0.2124,185.9688
21:32:47:279,1.5575,2.2895,9.5482,50.2541,0.319,-0.4944,0.0705,185.5938
21:32:47:298,2.4494,2.1757,10.2988,48.3927,-0.0554,-0.4656,-0.2198,185.5938
21:32:47:326,2.8815,1.6634,12.3865,49.0934,-0.3601,-0.2038,-0.538,185.2812
21:32:47:341,2.4709,0.6207,14.2755,50.5981,-0.4232,0.3672,-0.7069,185.2812
21:32:47:359,2.1286,-0.4052,13.7321,48.99,-0.3763,0.7019,-0.6568,185.5781
21:32:47:375,2.3488,-0.5381,12.274,49.0977,-0.4208,0.4609,-0.5647,186.2188
21:32:47:395,3.2335,-0.2891,12.3602,48.7218,-0.4913,0.0154,-0.6201,187.0469
21:32:47:417,3.9877,-0.5118,13.8362,50.6654,-0.4013,-0.0464,-0.7513,187.7656
21:32:47:438,4.263,-1.1881,14.0852,48.6995,-0.1294,0.2324,-0.7929,188.4219
21:32:47:455,3.9841,-1.5149,12.3171,49.0126,0.1678,0.4207,-0.6515,189.1406
21:32:47:482,4.3612,-1.3952,9.4991,50.5059,0.3023,0.1967,-0.4398,190.0312
21:32:47:495,5.2949,-0.9331,7.5263,50.2025,0.1872,-0.337,-0.3631,190.9375
21:32:47:515,5.7642,-0.0437,7.4521,49.7993,-0.0538,-0.688,-0.4842,191.5938
21:32:47:541,5.5858,0.6865,8.6001,51.2056,-0.1728,-0.5074,-0.754,192.5
21:32:47:561,4.6844,0.7608,8.5714,51.0985,-0.1478,-0.0616,-1.0289,192.7656
21:32:47:579,3.0838,0.7691,6.917,49.8951,-0.151,0.2508,-1.137,193.5
21:32:47:595,1.7658,0.8505,5.4373,49.861,-0.2019,0.2316,-1.1048,194.5625
21:32:47:616,0.9255,0.9966,5.0291,50.1258,-0.1968,-0.0401,-1.0166,195.8281
21:32:47:641,0.388,1.1869,5.3176,49.9886,-0.0956,-0.3663,-0.9223,197.0625
21:32:47:658,0.2108,1.2899,5.7306,50.899,0.0165,-0.6395,-0.8475,198.2812
21:32:47:682,0.2671,1.309,6.1784,50.4799,0.0716,-0.7431,-0.8131,199.4219
21:32:47:695,0.2838,1.4347,6.6069,50.5125,0.0168,-0.7551,-0.8198,199.9531
21:32:47:716,0.3557,1.5868,7.4964,51.0652,-0.1087,-0.6353,-0.8794,200.9219
21:32:47:740,0.2623,1.6047,8.7007,50.9437,-0.2426,-0.3647,-0.9268,201.9062
21:32:47:759,0.1007,1.5185,9.8666,50.8644,-0.294,-0.0076,-0.896,202.9062
21:32:47:775,0.1725,1.4814,10.452,50.8478,-0.2405,0.2209,-0.8145,203.9219
21:32:47:795,0.5412,1.4455,10.4412,48.8437,-0.1755,0.242,-0.697,205.0312
21:32:47:816,1.0236,1.3378,10.0737,50.4008,-0.176,0.1216,-0.5335,206.0938
21:32:47:842,1.3876,1.309,10.0941,51.8608,-0.2216,-0.1793,-0.3066,207.4062
21:32:47:856,1.925,1.2887,11.0937,51.234,-0.2037,-0.4217,-0.0648,208.125
21:32:47:875,2.5858,1.163,12.0418,51.1648,-0.1116,-0.533,0.1198,208.625
21:32:47:895,3.2072,1.0146,11.758,49.4447,-0.2037,-0.6718,0.234,208.8906
21:32:47:917,3.747,1.2253,12.4009,50.0639,-0.5553,-0.8118,0.3089,208.9062
21:32:47:939,4.342,1.2516,15.3936,51.7971,-0.6589,-0.4225,0.2604,208.75
21:32:47:955,3.8344,1.1055,17.3054,51.6297,-0.286,0.3586,0.1637,208.5312
21:32:47:975,2.8456,0.6877,15.1482,51.4854,0.2708,0.9046,0.16,208.3125
21:32:47:996,2.0448,0.8074,8.0051,50.8208,0.4698,0.618,0.2079,208.1562
21:32:48:016,2.7714,0.9188,9.2789,52.0974,0.2836,-0.252,0.2439,207.9375
21:32:48:040,3.3927,0.7811,11.6826,51.4432,0.0583,-0.8925,0.1571,207.6562
21:32:48:058,2.8265,0.4411,12.3913,52.6712,0.0405,-0.7767,-0.0603,207.3281
21:32:48:076,1.8425,0.2209,11.2409,50.2249,0.1662,-0.1306,-0.2315,207.0938
21:32:48:096,1.0583,0.2364,9.1136,52.0172,0.3489,0.4481,-0.2427,207.0938
21:32:48:117,0.5807,0.4639,7.2055,51.8763,0.4919,0.6881,-0.146,207.4219
21:32:48:141,0.3784,0.6889,6.3495,53.8423,0.5491,0.5813,-0.011,207.5312
21:32:48:158,0.3425,0.7344,6.1808,49.96,0.5784,0.3256,0.1001,207.6719
21:32:48:175,0.5005,0.6842,6.1413,52.4315,0.6053,0.1384,0.2101,207.5781
21:32:48:195,0.9745,0.7847,6.1903,49.5688,0.579,0.095,0.3328,207.4844
21:32:48:216,1.5252,1.0038,6.3603,51.6629,0.478,0.1509,0.4149,207.2188
21:32:48:238,1.8891,1.1869,6.577,50.5557,0.3316,0.2311,0.3946,206.8594
21:32:48:256,2.0053,1.2348,7.1372,51.1815,0.1316,0.3096,0.2974,206.3438
21:32:48:274,1.8508,1.078,7.901,51.1166,-0.0921,0.4287,0.1802,205.7969
21:32:48:295,1.5779,0.8889,8.7856,51.6622,-0.2653,0.516,0.0852,205.3594
21:32:48:314,1.1841,0.6949,9.4668,51.9903,-0.3302,0.5925,0.0532,205.0625
21:32:48:335,1.1122,0.5213,9.4417,51.9903,-0.2786,0.6191,0.0761,204.875
21:32:48:357,1.2355,0.3466,9.0993,53.7587,-0.2061,0.5546,0.0929,204.7812
21:32:48:418,1.105,0.1873,9.4381,53.2501,-0.2621,0.4534,0.0255,204.6875
21:32:48:419,0.722,-0.2041,10.6064,53.8895,-0.4639,0.4468,-0.105,204.4844
21:32:48:419,0.5496,-0.726,11.8227,52.3228,-0.726,0.6082,-0.1873,204.4219
21:32:48:441,1.5156,-0.6985,12.1806,52.1949,-0.9875,1.0612,-0.0808,204.5312
21:32:48:461,3.2622,0.0126,12.3243,50.7064,-1.29,1.4979,0.0359,204.7344
21:32:48:475,4.67,0.4902,13.6902,53.5624,-1.6411,1.6625,-0.1242,204.8125
21:32:48:498,4.075,0.0281,15.6378,53.637,-1.8778,1.7645,-0.6208,204.7344
21:32:48:515,1.4055,-1.1187,16.1215,53.5639,-1.7819,2.1778,-1.101,204.8281
21:32:48:537,-0.2716,-2.0405,14.7113,53.6567,-1.2746,2.4812,-1.0608,205.5
21:32:48:558,0.4598,-2.3493,12.4919,52.955,-0.5012,2.1776,-0.53,206.7344
21:32:48:577,2.6792,-1.7124,10.5442,52.463,0.2384,1.2625,0.0303,207.8594
21:32:48:595,4.1337,-0.6482,9.8463,55.0781,0.6669,0.2332,0.1557,208.5
21:32:48:616,3.8691,-0.4172,9.7553,50.7875,0.78,-0.3357,-0.2035,208.5156
21:32:48:641,2.4207,-0.7033,8.7042,51.8934,0.7603,-0.2294,-0.673,208.4219
21:32:48:658,1.1649,-0.7715,7.0726,51.7324,0.6788,0.2122,-0.9114,208.7344
21:32:48:675,0.6202,-0.5884,5.8312,52.9014,0.5851,0.4715,-0.9229,209.0938
21:32:48:696,0.2431,-0.24,5.3727,52.5044,0.5092,0.4138,-0.881,210.6875
21:32:48:716,0.1246,0.0485,5.4194,50.9806,0.4927,0.1703,-0.843,211.75
21:32:48:740,0.0803,0.3729,5.3859,51.7607,0.5603,-0.1849,-0.8163,212.7969
21:32:48:759,0.0324,0.762,5.0866,52.1333,0.4791,-0.2297,-0.8555,213.8281
21:32:48:775,0.054,1.1857,5.0627,52.1686,0.2977,-0.2811,-0.9657,214.7656
21:32:48:794,-0.2585,1.4359,5.9258,50.4542,0.0951,-0.3317,-1.0779,215.7656
21:32:48:817,-0.7708,1.3509,7.9225,52.318,0.0155,-0.215,-1.0992,216.7969
21:32:48:838,-1.6794,1.2947,10.0917,51.5203,0.0788,0.1834,-0.942,217.8906
21:32:48:855,-2.181,2.3326,11.4468,50.5946,0.2695,0.5911,-0.7269,219.1406
21:32:48:874,-1.4232,3.3692,11.6072,51.7496,0.4858,0.6609,-0.7852,220.4062
21:32:48:899,-1.1252,4.2,10.9608,51.8933,0.5113,0.398,-1.0683,221.4844
21:32:48:914,-1.8243,3.6637,11.114,51.21,0.3728,0.0593,-1.3423,222.2969
21:32:48:937,-3.1088,1.9866,12.6834,50.4848,0.3095,-0.1391,-1.2818,223.2344
21:32:48:958,-3.59,0.5489,14.2971,52.1202,0.4461,-0.1647,-0.9119,225.2031
21:32:48:974,-2.2349,-0.0545,14.5808,51.9321,0.6703,-0.1418,-0.643,226.7969
21:32:48:996,-0.7732,0.003,13.112,50.6088,0.6749,-0.3261,-0.7335,228.125
21:32:49:015,-0.3435,-0.4184,12.608,49.8194,0.4613,-0.4955,-0.9868,229.0469
21:32:49:040,-0.9576,-1.6011,13.9068,50.35,0.4253,-0.219,-1.109,229.8438
21:32:49:056,-2.497,-2.7767,14.1726,50.6375,0.7904,0.2348,-0.8291,230.9062
21:32:49:074,-2.9364,-3.392,11.3702,50.1418,1.2147,0.3882,-0.2557,232.2188
21:32:49:096,-2.0505,-2.815,7.1923,49.6105,1.2269,-0.0369,0.2354,232.875
21:32:49:118,-0.2034,-1.4778,4.688,49.6682,0.7753,-0.864,0.3387,233.8438
21:32:49:141,1.5994,-0.4543,5.581,49.3746,0.1814,-1.4534,-0.0003,234.2656
21:32:49:161,2.0304,-0.5956,8.2649,49.2267,-0.2099,-1.3932,-0.4563,234.1406
21:32:49:175,0.7686,-1.0241,10.3179,46.2796,-0.3095,-0.8057,-0.6576,233.9375
21:32:49:196,-1.094,-1.2456,10.1886,49.3077,-0.2266,-0.1178,-0.481,234.0781
21:32:49:216,-2.2887,-1.066,8.6935,47.6138,-0.1366,0.2771,-0.0376,234.7188
21:32:49:241,-2.1978,-0.2939,7.0558,47.0314,-0.0847,0.2303,0.3909,235.8125
21:32:49:258,-1.1395,0.7021,6.5076,47.4514,0.0048,-0.088,0.5805,236.1094
21:32:49:275,-0.1136,1.5676,6.6201,46.8296,0.1523,-0.3897,0.544,235.8594
21:32:49:296,0.5592,2.1015,6.5207,46.441,0.2346,-0.5311,0.3842,235.2812
21:32:49:315,0.9853,2.3565,6.2909,46.0572,0.1928,-0.5274,0.1624,234.6406
21:32:49:340,0.9745,2.5444,6.2131,44.5106,0.0551,-0.4475,-0.0861,234.1406
21:32:49:357,0.479,2.5456,6.4597,45.9994,-0.1185,-0.3801,-0.284,233.8906
21:32:49:376,-0.353,2.2943,7.3156,46.5277,-0.2722,-0.3165,-0.3551,233.9062
21:32:49:396,-0.9037,1.8908,10.2054,44.7177,-0.2701,-0.2243,-0.2736,234.1719
21:32:49:416,-0.5996,2.0656,10.2245,45.5379,-0.0711,-0.1953,-0.1673,234.5781
21:32:49:440,-0.1328,2.171,9.8343,44.7546,0.1097,-0.2502,-0.1404,234.9375
21:32:49:458,0.1438,1.9363,10.1755,45.9199,0.0842,-0.3423,-0.1982,235.2031
21:32:49:475,0.1569,1.4742,11.5222,45.6279,-0.1087,-0.3596,-0.2725,235.375
21:32:49:495,-0.1591,0.9367,13.258,44.4595,-0.3153,-0.2398,-0.2906,235.5781
21:32:49:515,-0.0514,0.6015,14.4168,45.5098,-0.3635,0.0273,-0.1793,235.8906
21:32:49:542,0.8237,0.3957,13.4388,43.7011,-0.1366,0.3312,0.0135,236.4062
21:32:49:558,1.8269,0.7236,10.9739,44.2131,0.188,0.4625,0.1512,236.5312
21:32:49:575,2.6086,1.315,10.1575,44.6932,0.2517,0.1797,0.1339,236.5469
21:32:49:594,2.9414,1.667,11.1739,42.8915,0.1079,-0.1884,-0.0853,236.3438
21:32:49:614,3.1928,1.0409,12.1711,42.7376,0.0221,-0.3016,-0.4198,236.25
21:32:49:635,2.8157,0.167,11.2684,42.7136,0.1001,-0.0986,-0.7545,236.2031
21:32:49:659,2.5823,-0.4292,9.7433,43.1606,0.142,0.0721,-0.9695,236.5
21:32:49:676,3.0479,-0.8182,9.9349,43.3602,-0.0586,-0.0979,-1.0912,237.2031
21:32:49:694,3.261,-1.2216,11.7066,41.6004,-0.3904,-0.3705,-1.2312,238.1719
21:32:49:714,2.0855,-1.5975,12.7181,42.2175,-0.538,-0.3056,-1.4105,239.3594
21:32:49:735,0.4323,-1.4443,11.3857,42.1862,-0.3457,0.0657,-1.4241,240.6875
21:32:49:758,-0.3494,-0.7655,8.7593,42.7635,-0.0168,0.442,-1.1708,242.2188
21:32:49:776,-0.0346,0.1203,6.4477,42.4078,0.2461,0.5267,-0.7961,243.7969
21:32:49:794,0.4957,0.8661,5.2207,43.3734,0.4027,0.2532,-0.5545,245.2969
21:32:49:815,0.9075,1.2851,4.8316,41.3834,0.4637,-0.1658,-0.493,246.7812
21:32:49:834,1.0596,1.7568,4.6161,41.301,0.4456,-0.4744,-0.5359,247.3906
21:32:49:857,1.2834,2.0752,4.9238,41.2085,0.2977,-0.6046,-0.6531,247.9844
21:32:49:874,1.208,2.0872,5.6409,40.1602,0.0708,-0.6118,-0.8597,248.6562
21:32:49:899,0.5735,1.8429,6.9134,41.0411,-0.1942,-0.508,-1.1082,250.4531
21:32:49:922,-0.0286,1.3904,8.5941,42.7297,-0.4229,-0.1721,-1.321,251.7656
21:32:49:937,-0.9624,1.2049,9.8714,39.0721,-0.2735,0.0082,-1.2368,253.1562
21:32:49:957,-2.035,0.9786,10.3503,39.9086,-0.139,0.2406,-1.0041,254.6719
21:32:49:977,-3.1842,0.932,10.6471,39.8727,-0.1116,0.6284,-0.5572,256.0781
21:32:50:002,-3.2943,1.655,11.2349,41.1558,0.0154,0.8761,-0.1061,257.2188
21:32:50:015,-2.5054,2.5971,11.1284,39.8759,0.2639,0.7102,0.1035,257.7656
21:32:50:036,-2.0386,3.2448,10.0749,38.4597,0.3172,0.23,0.1874,257.8438
21:32:50:058,-1.3143,2.967,10.4352,38.723,0.1982,-0.2046,0.2324,257.6875
21:32:50:077,-0.6044,2.4774,12.1591,38.7579,0.1081,-0.3383,0.2636,257.5938
21:32:50:095,-0.3327,2.2093,13.6064,38.641,0.1055,-0.1841,0.3113,257.5938
21:32:50:118,-0.4153,2.4331,13.829,38.5313,0.1068,-0.0204,0.3832,256.9844
21:32:50:140,-0.0274,2.7863,13.7524,39.0484,0.1233,0.062,0.3533,256.9844
21:32:50:159,0.5975,2.39,13.6806,38.9941,0.2655,0.189,0.1669,256.2344
21:32:50:176,0.2731,1.4635,12.1782,36.5389,0.4232,0.259,0.0242,256.2344
21:32:50:200,-0.4428,0.8158,9.7337,38.3594,0.3358,0.0289,-0.0192,255.8281
21:32:50:213,-0.0921,0.003,9.0538,36.9308,0.1193,-0.3418,-0.1114,255.6406
21:32:50:234,0.2132,-1.1103,9.207,38.1011,-0.0876,-0.7319,-0.203,255.625
21:32:50:257,-0.0729,-2.1889,9.3782,36.5266,-0.2344,-1.0129,-0.1133,255.6562
21:32:50:276,-0.7816,-2.2116,8.9676,36.8813,-0.3396,-1.1493,0.1555,255.8281
21:32:50:293,-0.6332,-1.6897,8.9293,37.4239,-0.3292,-1.0984,0.4138,256.1094
21:32:50:313,-0.2106,-1.1809,9.1017,37.1865,-0.1729,-0.814,0.5757,256.3125
21:32:50:335,0.0276,-0.6901,8.9496,34.9154,0.0618,-0.4861,0.7216,256.2188
21:32:50:356,0.4442,-0.2604,8.1045,36.5142,0.2509,-0.2435,0.842,255.8281
21:32:50:376,1.1493,0.3346,6.7817,37.5387,0.2897,-0.1775,0.866,255.25
21:32:50:393,1.7874,1.0876,5.9641,36.8621,0.2128,-0.215,0.7637,254
21:32:50:413,2.2028,1.6861,5.6504,38.0275,0.0706,-0.2893,0.5648,253.0625
21:32:50:484,2.3871,2.0357,5.5918,38.0275,-0.146,-0.3721,0.3198,252.125
21:32:50:484,2.611,2.1805,6.2322,36.5513,-0.4021,-0.3796,0.0383,251.375
21:32:50:484,2.5595,2.0488,7.7442,36.6256,-0.5713,-0.2385,-0.2469,250.8906
21:32:50:493,1.8472,1.7304,9.1388,36.2758,-0.6083,0.0598,-0.4419,250.7344
21:32:50:517,0.8106,1.412,9.8989,34.3743,-0.5382,0.3493,-0.4728,250.9062
21:32:50:542,0.0672,1.0948,10.0486,36.1136,-0.4037,0.5248,-0.3785,251.3438
21:32:50:557,-0.6104,1.0193,9.7218,38.1331,-0.3244,0.455,-0.2099,251.875
21:32:50:575,-0.7876,1.1091,10.0498,36.8285,-0.2701,0.1743,-0.032,252.125
21:32:50:595,0.0372,1.0193,10.8459,36.4359,-0.2149,-0.2222,0.0322,252.5469
21:32:50:615,1.2487,0.6937,12.1423,36.2922,-0.1859,-0.4635,0.0055,252.7656
21:32:50:634,2.2866,0.1466,13.4855,37.1952,-0.1406,-0.3671,-0.0405,252.7969
21:32:50:657,3.4071,-0.3765,14.084,37.299,-0.0698,-0.002,-0.0978,252.7812
21:32:50:674,4.6078,-0.2568,12.699,37.4609,-0.1771,0.1922,-0.3434,252.7969
21:32:50:694,5.1309,0.3885,11.3307,38.127,-0.6184,0.1844,-0.8517,252.8906
21:32:50:715,4.2738,-0.0473,12.4272,37.05,-1.093,0.5107,-1.3535,253.1094
21:32:50:735,2.5583,-1.6311,14.1139,36.4185,-1.2008,1.2138,-1.4904,253.7656
21:32:50:757,0.9147,-2.5516,13.4292,40.1625,-0.9646,1.5821,-1.2206,255
21:32:50:775,0.9829,-2.5397,11.7485,41.1128,-0.5814,1.1696,-0.8323,256.6875
21:32:50:794,2.7008,-1.3366,10.4688,38.8228,-0.1587,0.3139,-0.6454,258.2656
21:32:50:813,2.441,-1.0636,10.3898,39.4785,0.2581,-0.456,-0.6555,259.4219
21:32:50:833,1.5013,-1.1355,9.3088,40.1715,0.6693,-0.7647,-0.7266,260.1875
21:32:50:859,0.5472,-0.993,7.4269,40.1762,0.9843,-0.6363,-0.6941,260.9219
21:32:50:876,0.2659,-0.6111,5.6133,41.2127,1.1092,-0.3626,-0.5109,261.7031
21:32:50:895,0.394,-0.0856,4.2965,40.1508,1.0631,-0.1604,-0.3298,262.5312
21:32:50:913,0.7758,0.3909,3.7482,39.9683,0.9063,-0.1306,-0.2384,263.2344
21:32:50:934,1.3756,0.6566,3.5914,39.4264,0.7119,-0.2148,-0.2432,263.7344
21:32:50:961,1.7922,0.9918,3.9254,41.8733,0.4842,-0.3295,-0.3559,264.0312
21:32:50:976,1.9993,1.1845,4.7682,43.9951,0.2256,-0.418,-0.5711,264.4688
21:32:51:000,1.6509,1.1031,6.146,41.0549,-0.0208,-0.4928,-0.8557,264.8906
21:32:51:017,0.8261,0.8841,7.9549,41.2221,-0.2027,-0.5282,-1.1,265.5312
21:32:51:041,-0.0789,0.6614,9.6787,42.5441,-0.2495,-0.4821,-1.2041,266
21:32:51:060,-0.5446,0.6028,10.7058,43.074,-0.1337,-0.4435,-1.1439,267.1719
21:32:51:077,-0.711,1.0253,10.7992,42.2012,0.0527,-0.3772,-0.9852,268.5469
21:32:51:098,-0.8247,1.5305,10.9069,44.7713,0.098,-0.2872,-0.8416,269.8594
21:32:51:114,-0.9109,1.6287,11.2541,43.5185,-0.0386,-0.1322,-0.7601,271.1094
21:32:51:133,-1.0114,1.406,11.9388,44.3346,-0.2767,0.0915,-0.6885,272.1719
21:32:51:156,-0.5984,0.981,12.3219,44.0271,-0.4914,0.3243,-0.5564,273.0938
21:32:51:175,0.0683,0.6195,13.2197,46.0398,-0.6541,0.2766,-0.4243,273.8906
21:32:51:203,0.8572,0.2807,15.3637,45.7982,-0.7896,-0.0435,-0.301,274.5938
21:32:51:223,1.3947,-0.3106,16.6721,46.7134,-0.3443,-0.1104,-0.2267,275.7188
21:32:51:239,1.6449,-1.0588,15.7959,46.2491,0.0229,0.263,-0.1884,276
21:32:51:276,1.706,-1.582,13.1682,46.8005,0.2051,0.6572,-0.1425,276.2656
21:32:51:277,1.6138,-1.752,10.0103,46.4255,0.1531,0.7578,-0.1319,276.4688
21:32:51:297,1.2774,-1.8393,7.5574,48.056,-0.1174,0.4492,-0.1359,276.6094
21:32:51:324,0.6106,-1.8154,6.9828,46.8684,-0.4272,0.0132,-0.0429,276.75
21:32:51:336,0.1486,-1.6514,8.0207,47.6505,-0.5446,-0.2579,0.1392,276.875
21:32:51:358,-0.0957,-1.2587,8.9939,48.9876,-0.4442,-0.2939,0.3179,276.9219
21:32:51:377,-0.4775,-0.7236,8.7426,49.615,-0.3252,-0.2704,0.5113,276.7656
21:32:51:394,-0.5661,-0.2879,8.3104,48.3901,-0.2418,-0.3061,0.7011,276.4375
21:32:51:416,-0.3518,0.1,8.1129,48.8997,-0.1473,-0.4158,0.8327,275.8438
21:32:51:436,-0.1711,0.349,8.302,50.9086,-0.0101,-0.5032,0.9323,275.0469
21:32:51:457,-0.0514,0.5022,8.5953,48.8832,0.1878,-0.4925,1.0338,274.0938
21:32:51:475,0.0372,0.6662,8.405,50.9866,0.3904,-0.4574,1.1342,274.0938
21:32:51:494,0.2946,0.914,7.8675,50.5813,0.5222,-0.4792,1.2005,273.0781
21:32:51:523,0.7758,1.2492,7.5299,48.8135,0.5649,-0.5072,1.1874,271.25
21:32:51:534,1.4091,1.5425,7.5023,50.2617,0.5372,-0.5074,1.0772,271.25
21:32:51:558,2.0699,1.7412,7.5443,49.7728,0.4194,-0.4763,0.8607,269.25
21:32:51:577,2.5116,1.8154,7.8052,51.8598,0.1854,-0.3274,0.5523,266.6406
21:32:51:593,2.7702,1.7292,8.4074,51.7632,-0.1342,-0.0145,0.1901,266.6406
21:32:51:613,2.8564,1.3557,9.0466,51.9964,-0.4906,0.3102,-0.2003,265.6875
21:32:51:633,2.7894,0.5477,10.2066,51.8075,-0.8006,0.6196,-0.5519,265.0469
21:32:51:658,2.4254,-0.5046,11.4971,53.8083,-0.95,0.8423,-0.8038,264.8438
21:32:51:676,1.6892,-1.6191,12.5397,54.4682,-0.9097,0.9424,-0.8819,265.0938
21:32:51:694,0.7232,-2.5804,13.009,54.9971,-0.6687,0.9823,-0.6832,265.7188
21:32:51:712,0.9003,-3.0149,12.0681,54.5851,-0.4221,0.8305,-0.374,266.6875
21:32:51:735,2.0208,-2.7228,10.5286,54.2266,-0.4346,0.451,-0.2733,267.7344
21:32:51:757,2.5859,-2.1063,10.7154,54.7874,-0.5771,0.0739,-0.4219,268.5
21:32:51:775,2.0867,-2.4535,12.5793,54.5966,-0.5103,-0.0238,-0.5476,268.9531
21:32:51:793,1.0751,-3.1538,13.7129,56.5245,-0.171,0.1932,-0.3947,269.7656
21:32:51:816,0.6705,-3.3764,12.359,55.8077,0.1249,0.2659,-0.0818,270.3594
21:32:51:832,1.4127,-3.0676,10.3514,57.51,0.1691,0.001,0.1541,270.625
21:32:51:854,3.012,-2.548,9.7134,56.2835,0.0474,-0.349,0.1435,270.9219
21:32:51:876,3.7506,-1.74,10.5059,55.8156,-0.0125,-0.3959,-0.109,270.8594
21:32:51:898,2.8815,-1.3198,10.8494,56.3696,0.0799,-0.1101,-0.3697,270.6406
21:32:51:914,1.1062,-1.3868,9.4919,55.7281,0.1987,0.2159,-0.3612,270.5938
21:32:51:935,-0.055,-1.1642,7.7154,55.3067,0.2629,0.4052,-0.1367,270.875
21:32:51:958,-0.2836,-0.6782,6.1185,56.5452,0.2677,0.3118,0.1041,271.3125
21:32:51:974,0.1533,0.0066,5.4661,55.1705,0.2549,0.0068,0.2489,271.625
21:32:51:993,0.9829,0.5585,5.7749,56.9436,0.2956,-0.3141,0.2639,271.6562
21:32:52:014,1.7527,1.0193,6.1772,56.9221,0.3963,-0.5724,0.1691,271.4531
21:32:52:034,2.3045,1.3785,6.2155,56.3157,0.465,-0.8552,0.0095,271.1406
21:32:52:057,2.4997,1.5365,6.5506,54.666,0.4916,-1.0832,-0.0842,270.9844
21:32:52:076,3.0228,1.5461,7.4497,57.9496,0.5039,-1.124,-0.1532,270.7812
21:32:52:092,3.7255,1.5868,8.5115,57.0825,0.5364,-0.9234,-0.3066,270.75
21:32:52:113,4.1624,1.7448,8.8311,58.1635,0.4882,-0.5498,-0.5889,270.8281
21:32:52:133,3.777,1.831,8.5127,58.7966,0.2756,-0.1961,-0.9117,271.1094
21:32:52:158,2.5619,1.3952,8.873,55.8104,0.0144,0.104,-1.0962,271.5625
21:32:52:176,1.1457,0.6674,9.8595,58.1728,-0.1068,0.2715,-1.0329,272.4062
21:32:52:193,0.1533,-0.0976,11.6838,57.3626,-0.0613,0.2058,-0.8254,273.5938
21:32:52:213,0.2383,-0.1945,12.5996,57.6095,0.0229,0.0497,-0.6006,274.7812
21:32:52:234,0.4873,-0.2951,13.0449,57.936,0.0868,0.002,-0.4374,275.8594
21:32:52:259,0.6753,-0.4328,12.4153,59.6089,0.1001,0.0843,-0.3593,276.6562
21:32:52:275,0.7543,-0.3909,13.1335,59.0239,-0.1047,0.0076,-0.3505,277.2344
21:32:52:292,0.5676,-0.7201,15.6223,58.5482,-0.4171,-0.1375,-0.3684,277.6562
21:32:52:312,-0.4404,-1.1893,17.1606,56.9544,-0.3949,0.0042,-0.383,278.0625
21:32:52:332,-1.0665,-1.74,14.4898,57.9738,0.1087,0.462,-0.2171,278.4688
21:32:52:352,-1.1683,-1.5305,10.5011,57.9263,0.5771,0.7317,0.1025,278.9219
21:32:52:374,-0.0394,-1.0672,8.8192,59.1127,0.6232,0.4417,0.4772,279.2969
21:32:52:393,1.4989,-0.3753,9.6619,56.7772,0.4511,-0.182,0.7307,279.3594
21:32:52:417,2.35,0.2879,10.7285,55.896,0.3904,-0.6076,0.7611,278.6719
21:32:52:432,2.3081,0.513,10.4783,57.9755,0.539,-0.6774,0.6372,277.8281
21:32:52:453,1.8903,0.4842,9.0706,55.4464,0.7292,-0.456,0.5246,276.9531
21:32:52:474,1.6808,0.5812,7.7502,55.9052,0.7843,-0.158,0.5121,276.2656
21:32:52:541,1.554,0.762,6.9337,53.9951,0.7289,0.0433,0.5395,275.6406
21:32:52:541,1.4055,0.8781,6.6345,54.3496,0.6629,0.0745,0.5571,275.0156
21:32:52:541,1.4474,0.8661,6.5746,54.3496,0.6543,-0.0195,0.5696,274.7031
21:32:52:565,1.6509,0.8685,6.2945,54.9029,0.7153,-0.1711,0.5784,274.0625
21:32:52:579,2.04,0.9918,6.0993,54.3497,0.7587,-0.3221,0.5749,273.375
21:32:52:594,2.4218,1.0948,6.0886,53.708,0.7161,-0.4196,0.5105,272.6875
21:32:52:613,2.5033,1.1115,6.1855,53.922,0.6109,-0.4414,0.3627,271.9844
21:32:52:632,2.3572,0.9643,6.1496,54.5133,0.4751,-0.3692,0.1738,271.375
21:32:52:652,2.0112,0.8314,5.9689,53.0559,0.3047,-0.2124,-0.0043,270.8594
21:32:52:674,1.6928,0.8565,5.8504,52.4475,0.0895,-0.0203,-0.1431,270.5625
21:32:52:693,1.3828,0.8649,6.2334,53.0555,-0.168,0.0601,-0.2422,270.5
21:32:52:714,1.3624,0.829,7.2629,54.0775,-0.4535,0.0409,-0.3111,270.6562
21:32:52:734,1.8616,0.3526,9.2884,53.3662,-0.735,-0.1676,-0.3694,270.9375
21:32:52:759,2.1214,-0.2245,11.9065,53.7831,-0.9523,-0.4134,-0.4584,271.3125
21:32:52:777,2.2973,-0.8003,14.3522,52.0172,-1.0658,-0.4619,-0.5197,271.8125
21:32:52:792,2.9007,-1.4982,14.8094,53.0028,-1.0043,-0.1506,-0.517,272.4531
21:32:52:815,3.0491,-1.5317,14.1199,53.8501,-0.9539,0.3251,-0.4885,273.1406
21:32:52:835,2.8241,-1.5245,13.5717,53.147,-0.9942,0.8431,-0.3985,274.4688
21:32:52:859,1.949,-1.3318,13.6638,52.8094,-0.6876,0.7376,-0.2307,275.0156
21:32:52:876,1.6904,-1.3222,12.8642,53.3885,-0.1997,0.4944,0.0527,275.4844
21:32:52:894,2.2399,-1.1714,10.859,53.2924,0.1518,0.1019,0.3315,275.4844
21:32:52:917,3.613,-1.0134,8.7928,52.443,0.1822,-0.4214,0.4774,275.7031
21:32:52:932,4.9417,-0.6458,7.8375,54.226,-0.1222,-0.9293,0.4117,275.7031
21:32:52:954,5.32,0.1048,9.0682,51.9302,-0.4927,-0.9807,0.1595,275.3281
21:32:52:979,4.828,0.4447,11.1008,52.1741,-0.5734,-0.4022,-0.162,274.7812
21:32:52:997,3.3424,0.4232,11.8454,51.68,-0.3148,0.3946,-0.3612,274.3438
21:32:53:011,2.0232,0.1395,9.7278,52.4689,0.0011,0.8838,-0.3495,274.2344
21:32:53:034,1.0763,0.3442,6.814,53.1015,0.1169,0.8766,-0.1748,274.4688
21:32:53:060,1.1182,0.8015,5.4469,52.058,0.1704,0.4849,-0.0161,274.9062
21:32:53:078,1.7682,1.2803,5.3488,51.9328,0.269,0.0092,-0.0137,275.2969
21:32:53:099,2.3572,1.6694,5.7498,51.5183,0.391,-0.3351,-0.1332,275.4531
21:32:53:112,2.7762,1.9579,5.8492,51.4137,0.4543,-0.5823,-0.338,275.4531
21:32:53:132,2.9103,2.1578,5.7187,51.5873,0.3396,-0.717,-0.5953,275.4531
21:32:53:158,2.8923,2.1243,5.9964,52.9614,0.0495,-0.7237,-0.8198,275.5938
21:32:53:176,2.8672,2.0333,6.8332,51.7858,-0.298,-0.5826,-1.003,275.9688
21:32:53:194,2.8336,1.9243,8.1703,52.1047,-0.5979,-0.3679,-1.1609,276.6406
21:32:53:213,2.4877,1.6969,9.7936,50.8279,-0.7875,-0.0081,-1.2723,277.5625
21:32:53:234,1.6485,1.3605,11.0553,52.1074,-0.8322,0.4215,-1.2459,278.75
21:32:53:258,0.6669,0.7488,11.6072,49.8321,-0.7766,0.6854,-1.0273,281.6875
21:32:53:278,0.0492,0.149,11.8802,51.2119,-0.697,0.6596,-0.6406,282.375
21:32:53:294,0.4227,-0.2424,12.857,51.0883,-0.5795,0.4782,-0.2446,283.75
21:32:53:311,1.5707,-0.4519,13.8494,51.0126,-0.3875,0.2172,-0.0363,284.7812
21:32:53:333,2.2363,-0.6231,14.5808,50.7299,-0.1673,-0.0145,0.0141,285.2812
21:32:53:354,2.3776,-0.7356,14.6622,48.6308,-0.017,-0.0534,0.0037,285.4375
21:32:53:374,2.2243,-1.0552,14.3534,51.201,0.0914,0.0995,-0.028,285.4688
21:32:53:395,1.6988,-1.4108,13.4699,48.5913,0.2011,0.2928,0.0018,285.4531
21:32:53:412,1.3217,-1.8286,11.9412,48.7195,0.2645,0.3714,0.074,285.4688
21:32:53:434,1.1481,-2.0141,10.1408,47.3798,0.1763,0.1554,0.1616,285.4844
21:32:53:460,1.2307,-2.0764,9.3064,50.7699,-0.032,-0.211,0.2402,285.4219
21:32:53:477,1.2882,-1.8633,9.9361,47.6127,-0.1803,-0.4094,0.2868,285.2969
21:32:53:501,0.947,-1.6454,10.8518,48.2374,-0.1015,-0.37,0.3507,285.0469
21:32:53:512,0.3461,-1.4718,10.4053,48.3315,0.1009,-0.2022,0.5131,284.9062
21:32:53:534,-0.1423,-1.1307,8.9149,49.3635,0.2701,-0.1263,0.7869,284.5938
21:32:53:553,-0.0095,-0.568,7.3383,49.001,0.3542,-0.2124,1.0463,284.2188
21:32:53:574,0.6011,0.1239,6.4525,47.7572,0.3955,-0.3868,1.1896,283.2031
21:32:53:595,2.0268,1.1343,6.2274,47.3076,0.4202,-0.4901,1.196,282.125
21:32:53:613,2.2148,1.2193,6.3424,46.7175,0.4461,-0.5319,1.1028,280.8594
21:32:53:632,2.1597,1.0636,6.7422,45.9695,0.4509,-0.5383,0.9848,279.4531
21:32:53:654,2.2399,1.0469,7.4832,47.6496,0.4224,-0.4832,0.9003,278.0938
21:32:53:677,2.5188,1.0481,7.8316,46.2053,0.4141,-0.3471,0.7986,276.9219
21:32:53:693,2.5116,0.8458,7.9632,45.666,0.412,-0.2662,0.6095,275.8125
21:32:53:711,2.2614,0.7165,8.2912,44.6961,0.3505,-0.2275,0.4157,274.7969
21:32:53:733,2.0591,0.5632,8.6899,45.6949,0.2463,-0.1833,0.2649,273.9531
21:32:53:752,2.107,0.1993,9.2501,45.2338,0.13,-0.2401,0.1232,273.375
21:32:53:778,2.3716,-0.2735,10.0438,44.1463,0.0128,-0.3492,-0.0001,272.9531
21:32:53:795,2.9522,-0.5369,10.8961,42.937,-0.0991,-0.4022,-0.0789,272.7188
21:32:53:811,3.4226,-0.7404,11.7497,42.494,-0.1848,-0.3767,-0.1857,272.6562
21:32:53:832,4.0463,-1.1893,12.043,44.4028,-0.2405,-0.1511,-0.3146,272.7188
21:32:53:852,4.5479,-1.1797,10.5657,44.0456,-0.3406,0.4002,-0.4459,273.0469
21:32:53:876,3.8057,-0.6566,9.9289,43.0738,-0.7499,1.0771,-0.6869,273.4062
21:32:53:894,1.7994,-0.902,13.0042,43.6475,-1.4379,1.4425,-1.0725,273.9531
21:32:53:912,-0.6044,-2.3433,17.2887,42.0356,-1.7588,1.5834,-1.3436,274.8125
21:32:53:932,-1.5968,-3.7308,17.4395,43.5587,-1.1577,1.7256,-1.1282,276.0938
21:32:53:953,-0.9073,-3.9091,13.1599,42.9289,0.0272,1.6726,-0.4512,277.7969
21:32:53:977,1.4079,-2.7815,8.4169,42.4694,0.9345,1.0971,0.3318,279.2031
21:32:53:994,3.7518,-1.1714,6.2167,43.0613,1.1026,0.1645,0.7507,279.7656
21:32:54:013,5.4685,-0.1921,6.7195,42.2916,0.6754,-0.6475,0.6644,279.6719
21:32:54:034,6.486,0.3358,8.162,42.0194,0.1028,-0.9588,0.2854,278.9531
21:32:54:059,6.0766,0.5632,9.3926,41.2021,-0.2301,-0.9258,-0.235,278.0625
21:32:54:077,4.0427,0.1502,10.1479,41.811,-0.1907,-0.6875,-0.7937,277.4844
21:32:54:096,1.5611,-0.5453,9.0215,40.814,0.1451,-0.2552,-1.1447,277.4688
21:32:54:116,0.2515,-0.5536,6.8008,42.3011,0.486,0.2095,-1.0267,278.0781
21:32:54:134,0.2096,0.1826,5.4505,41.9341,0.6408,0.3783,-0.6342,279.25
21:32:54:159,1.0272,1.0457,5.0531,40.8758,0.6815,0.2124,-0.3039,280.9844
21:32:54:175,1.8161,1.5772,5.6289,41.5184,0.6607,-0.1258,-0.2246,281.6719
21:32:54:192,2.01,1.7927,6.9828,40.2866,0.5486,-0.3261,-0.3412,281.9844
21:32:54:212,1.6545,1.8202,7.7621,41.0594,0.4019,-0.1216,-0.4802,282.2031
21:32:54:234,1.1697,1.91,8.047,40.8791,0.2802,0.2186,-0.5612,282.5625
21:32:54:259,1.5109,2.0512,9.4309,41.2567,0.1646,0.3091,-0.5772,283.0938
21:32:54:276,1.9693,2.3804,11.0589,41.1829,0.1188,0.3541,-0.5913,283.6875
21:32:54:293,0.9829,2.6318,11.685,40.3935,0.2711,0.6353,-0.7165,284.3281
21:32:54:312,-0.4356,2.238,12.3087,42.3112,0.3904,0.5517,-0.4978,284.3281
21:32:54:334,-0.9516,1.7579,13.4555,39.911,0.6815,0.3046,-0.1116,284.9844
21:32:54:358,-0.3949,1.2348,13.8733,40.6576,1.0839,-0.0129,0.1936,286.4531
21:32:54:377,0.151,0.7811,12.6666,40.2474,1.2373,-0.3756,0.3097,286.9688
21:32:54:393,-0.632,0.5812,11.6036,40.591,0.9364,-0.7863,0.3834,286.9688
21:32:54:411,-1.191,-0.0616,13.1922,41.0247,0.4647,-0.7181,0.5464,286.8281
21:32:54:431,-1.1084,-1.1546,15.7085,41.979,0.3606,-0.0126,0.8143,286.4844
21:32:54:451,-1.3418,-1.7352,15.5086,42.4548,0.747,0.5775,1.2468,286.0938
21:32:54:476,-0.7421,-1.4706,12.2489,40.7532,1.1838,0.4129,1.6673,285.5625
21:32:54:493,0.8716,-0.6997,8.9796,41.528,1.3425,-0.227,1.8996,284.6094
21:32:54:511,2.86,0.5632,7.2139,41.2802,1.0959,-0.7439,1.8327,283.0781
21:32:54:531,4.3444,1.5736,7.2258,40.37,0.5824,-0.6502,1.4463,281.0625
21:32:54:610,4.8388,2.05,7.8196,42.9284,0.049,0.0761,0.9387,278.9688
21:32:54:611,4.2474,2.0524,7.7094,41.9916,-0.3238,0.9536,0.5027,276.9219
21:32:54:611,2.8432,1.7879,6.5997,40.1909,-0.4764,1.3765,0.2838,275.3438
21:32:54:611,1.5037,1.649,5.5427,39.9667,-0.449,1.246,0.2649,274.2969
21:32:54:631,0.5268,1.5628,5.1393,39.9667,-0.2996,0.7784,0.3762,273.5781
21:32:54:651,0.1581,1.4802,5.7115,40.6907,-0.0232,0.2348,0.5557,272.8438
21:32:54:674,0.3329,1.6981,6.5914,41.2974,0.2868,-0.0638,0.6958,271.7812
21:32:54:696,0.552,2.0848,6.6321,43.1814,0.4394,-0.2022,0.7728,271.7812
21:32:54:711,0.7854,2.414,6.6955,40.7209,0.4157,-0.2925,0.8159,271.0312
21:32:54:732,1.3038,2.7659,7.3767,42.2412,0.3169,-0.317,0.8162,270.2344
21:32:54:753,1.8616,3.0472,8.5773,42.0624,0.2354,-0.1426,0.7486,269.3438
21:32:54:777,2.1729,3.3393,9.8199,40.6804,0.2557,0.1528,0.6394,268.4375
21:32:54:793,2.6625,3.6601,10.1443,40.7932,0.3827,0.3352,0.4332,267.5625
21:32:54:813,2.6613,3.9283,9.5147,41.4853,0.4855,0.1552,0.1674,266.7812
21:32:54:833,2.3249,3.5847,9.0574,42.3127,0.4317,-0.2936,-0.02,266.0938
21:32:54:854,2.3225,2.7899,10.0905,42.8231,0.3169,-0.5058,-0.0741,265.6719
21:32:54:877,2.8289,2.165,11.1379,42.1075,0.1926,-0.2832,-0.0714,265.6094
21:32:54:894,3.5806,2.2954,10.9991,43.252,0.0197,0.1131,-0.138,265.6562
21:32:54:916,4.4294,2.3793,9.778,43.0044,-0.2858,0.169,-0.3521,265.8125
21:32:54:932,4.1122,2.4834,10.1563,43.5485,-0.5782,-0.0536,-0.5343,265.875
21:32:54:953,3.8488,2.1757,12.2249,41.2859,-0.5974,-0.1008,-0.7234,266.2188
21:32:54:980,3.0946,1.3857,13.3873,42.969,-0.3731,0.095,-0.8201,266.75
21:32:54:995,2.0938,0.3992,10.5705,42.8164,-0.1617,0.246,-0.6917,267.5156
21:32:55:013,3.1174,0.7093,9.4297,41.8847,-0.1308,0.0865,-0.4906,268.4219
21:32:55:032,4.6736,1.1678,9.8116,43.2126,-0.2799,-0.3192,-0.3942,269.2969
21:32:55:052,4.9429,1.3378,9.9337,45.0078,-0.4605,-0.5136,-0.5617,269.9375
21:32:55:076,3.7758,1.236,9.1244,45.7129,-0.5734,-0.3612,-0.8829,270.4219
21:32:55:094,2.2339,1.0421,7.804,43.5273,-0.641,-0.0195,-1.1162,271.0156
21:32:55:111,0.8369,1.0481,6.7685,44.2693,-0.6719,0.2193,-1.1452,271.9375
21:32:55:131,0.1378,1.1774,7.0235,43.851,-0.6461,0.1725,-1.0043,273.1094
21:32:55:152,0.7291,1.418,7.8878,43.2959,-0.4874,-0.0582,-0.7697,274.4531
21:32:55:176,1.0931,1.9243,8.1404,44.2076,-0.245,-0.0417,-0.6459,275.7031
21:32:55:195,1.0188,2.1769,7.7406,44.517,-0.0842,0.3296,-0.689,276.7344
21:32:55:211,0.4131,2.2955,6.4321,43.4799,-0.0064,0.8316,-0.8107,277.875
21:32:55:235,-0.4883,2.4547,5.0555,44.5088,-0.0117,1.1712,-0.938,278.625
21:32:55:251,-1.1719,2.6079,4.6628,44.7675,-0.1236,1.1512,-0.9966,279.4531
21:32:55:274,-1.7034,2.6223,5.3284,46.112,-0.233,0.7722,-0.9913,280.3438
21:32:55:293,-2.3534,2.5492,7.1947,46.6263,-0.2935,0.1986,-0.9463,281.3438
21:32:55:314,-2.6814,2.3613,9.2753,44.9961,-0.3217,-0.2041,-0.8075,282.375
21:32:55:337,-2.7508,2.4594,10.7716,46.9082,-0.3204,-0.227,-0.5636,282.9062
21:32:55:351,-2.3594,2.5804,12.2967,45.8365,-0.3523,-0.1167,-0.2746,283.875
21:32:55:372,-1.5334,2.4571,13.9547,47.9607,-0.3422,-0.0606,-0.0003,284.6875
21:32:55:396,-0.4332,2.3697,15.6367,46.3942,-0.2466,-0.067,0.2404,285.1875
21:32:55:414,0.5616,2.4116,15.991,46.5124,-0.0272,0.0745,0.4061,285.3281
21:32:55:432,1.0153,2.9203,14.7137,46.4703,0.2056,0.393,0.4865,285.1875
21:32:55:451,0.7926,3.07,14.5245,49.3921,0.2879,0.414,0.4388,284.7969
21:32:55:474,0.4861,2.2332,15.3038,47.8993,0.3108,0.2854,0.336,284.2812
21:32:55:493,-0.0945,1.2755,13.8027,46.8629,0.5377,0.5413,0.287,283.4375
21:32:55:511,-0.3303,0.6638,10.5478,46.5402,0.8938,0.8199,0.3342,283.0312
21:32:55:535,-0.1016,0.3454,7.889,47.3644,1.0517,0.6939,0.434,282.6875
21:32:55:551,0.5376,-0.0425,7.3743,48.8902,0.8826,0.083,0.4817,282.2344
21:32:55:571,0.643,-0.5034,8.7042,46.6231,0.4898,-0.5956,0.4287,281.7031
21:32:55:592,-0.1819,-0.987,10.8207,48.0532,0.0503,-0.8973,0.3185,281.2188
21:32:55:611,-0.9516,-1.1642,11.5306,46.445,-0.2218,-0.6454,0.356,280.8281
21:32:55:631,-0.6727,-0.7536,10.4484,48.6143,-0.241,-0.0387,0.6545,280.6094
21:32:55:652,0.1019,-0.0054,8.818,47.2349,-0.0676,0.3546,0.9933,280.2969
21:32:55:675,0.6573,0.6518,6.8499,47.8298,0.2032,0.4553,1.1581,279.5781
21:32:55:693,0.9805,1.0888,5.2243,46.5675,0.4527,0.2058,1.1512,278.375
21:32:55:712,0.9063,1.4886,4.3552,49.7806,0.3662,0.1586,1.107,278.375
21:32:55:732,0.7806,1.9291,4.0643,47.6229,0.2072,0.1259,1.0588,276.9844
21:32:55:753,0.6944,2.5049,4.4737,48.7237,0.0376,0.099,1.0023,275.6406
21:32:55:777,0.4658,3.0831,5.3847,47.8846,-0.0594,0.0846,0.981,273.0312
21:32:55:794,0.3221,3.7523,6.2825,48.9403,-0.0282,0.0569,0.9763,271.8594
21:32:55:814,0.631,4.4706,6.577,48.0311,0.0429,-0.1274,0.8841,270.6875
21:32:55:832,0.9015,5.0847,7.0786,48.3328,0.016,-0.3935,0.6977,269.5469
21:32:55:851,0.6669,5.3026,8.7114,48.0696,-0.0543,-0.5101,0.5248,268.4219
21:32:55:875,0.8321,4.5687,10.8123,49.0895,-0.0852,-0.4672,0.446,267.4844
21:32:55:895,1.3947,3.7631,12.9575,49.3469,-0.0945,-0.1713,0.4383,266.75
21:32:55:910,2.4925,3.3094,14.2157,48.7032,-0.0301,0.2492,0.3347,266.25
21:32:55:931,3.2586,2.9239,14.0421,46.6714,0.1161,0.5584,0.099,265.8281
21:32:55:951,2.9737,2.4092,12.8366,48.6392,0.2927,0.7206,-0.0714,265.3594
21:32:55:977,3.1988,1.8908,10.64,48.4428,0.367,0.6345,-0.1732,264.9375
21:32:55:995,3.7099,2.0393,8.5079,48.4817,0.196,0.1751,-0.3804,264.7344
21:32:56:012,3.7614,2.1123,8.6851,49.3766,-0.089,-0.267,-0.7407,264.6875
21:32:56:031,3.097,1.0876,10.6088,49.6361,-0.2344,-0.1927,-1.0161,264.7812
21:32:56:051,2.0484,-0.1634,11.4815,49.4264,-0.1902,0.2244,-1.0193,265.1875
21:32:56:077,1.3612,-0.6949,10.0725,49.5786,-0.1641,0.4172,-0.8392,266.625
21:32:56:100,1.3193,-0.4232,8.399,49.3535,-0.2722,0.0569,-0.6861,267.8281
21:32:56:112,1.8844,-0.2185,8.2601,49.6459,-0.4631,-0.4904,-0.6416,268.8281
21:32:56:130,2.3512,0.094,9.5374,47.9963,-0.6192,-0.6646,-0.6845,269.5938
21:32:56:152,2.1681,0.3753,10.3203,50.2435,-0.6687,-0.3889,-0.7593,270.375
21:32:56:176,1.4271,0.6423,9.6655,50.0732,-0.6283,0.0369,-0.7705,271.2031
21:32:56:194,0.7196,0.8697,7.8016,50.1004,-0.5862,0.2183,-0.7047,272.0625
21:32:56:211,0.4299,1.1893,6.2717,49.0949,-0.5545,0.1557,-0.6185,272.9688
21:32:56:232,0.5352,1.4814,5.5259,51.0896,-0.5348,-0.0148,-0.5902,273.3906
21:32:56:251,0.5125,1.7903,5.4469,50.3554,-0.5028,-0.1045,-0.5979,274.1562
21:32:56:277,0.5616,2.0429,5.4122,51.3264,-0.5004,-0.1263,-0.6312,274.7969
21:32:56:297,0.6478,2.4343,5.4098,51.4354,-0.5792,-0.1418,-0.7247,275.4688
21:32:56:312,0.3928,2.73,6.0922,50.5487,-0.7092,-0.1487,-0.8246,276.1406
21:32:56:335,-0.0406,2.9084,7.6975,50.8072,-0.7728,-0.0518,-0.8866,277.2344
21:32:56:350,-0.772,2.9144,9.8319,52.364,-0.6557,0.1991,-0.8632,278.1094
21:32:56:372,-1.3514,2.7887,10.9668,51.3654,-0.4336,0.3951,-0.7396,279.0938
21:32:56:393,-1.8853,3.0484,12.7672,52.3938,-0.2692,0.3562,-0.546,280.0469
21:32:56:412,-1.7824,3.1562,13.7177,49.0125,-0.0655,0.3115,-0.3181,280.9219
21:32:56:432,-1.3837,3.1035,13.6159,51.7127,0.2208,0.3376,-0.0946,281.625
21:32:56:451,-1.2078,3.0353,13.337,51.0317,0.4607,0.3387,0.0817,282.0938
21:32:56:477,-1.1754,2.7994,13.5633,52.4703,0.5838,0.295,0.2194,282.3125
21:32:56:495,-0.7625,2.663,13.6878,51.8018,0.6722,0.3123,0.3967,282.2969
21:32:56:513,0.145,3.4471,12.3698,50.755,0.7867,0.4739,0.6007,282.125
21:32:56:533,0.6082,4.5747,11.2648,50.7688,0.7409,0.4902,0.5925,281.8125
21:32:56:550,0.7854,3.6554,13.3083,52.5798,0.4738,0.0316,0.2527,281.25
21:32:56:577,-0.4692,1.5999,13.7716,52.6978,0.3928,-0.0036,-0.1985,280.5156
21:32:56:594,-2.0924,0.2951,10.8913,51.954,0.6434,0.3866,-0.3708,280.0312
21:32:56:611,-2.3127,0.0233,8.7007,52.0745,0.7678,0.2747,-0.1897,280.2188
21:32:56:687,-1.5034,0.003,9.1053,54.266,0.5444,-0.2643,0.0401,280.6406
21:32:56:687,-1.0749,0.0904,10.853,50.9386,0.2242,-0.766,0.1254,280.875
21:32:56:688,-0.3195,-0.1945,11.946,51.4886,0.0581,-0.876,0.1989,280.9062
21:32:56:702,0.2778,-0.3358,10.8518,50.7235,0.1531,-0.6065,0.2694,280.8906
21:32:56:712,0.1581,-0.2197,8.4409,50.7235,0.3174,-0.2105,0.2929,280.8594
21:32:56:730,0.2719,0.0138,6.5315,50.7642,0.3657,0.0239,0.3723,280.7031
21:32:56:750,0.5424,0.3765,5.8875,51.0949,0.3047,-0.0108,0.4652,280.4375
21:32:56:770,0.7196,0.6794,5.7953,51.1836,0.2791,-0.1229,0.5232,280.0938
21:32:56:801,1.0009,0.9547,5.4912,51.9883,0.3497,-0.2483,0.5584,279.0938
21:32:56:815,1.0356,1.2193,4.7538,49.8559,0.4021,-0.3066,0.4958,278.5156
21:32:56:844,0.8537,1.6299,3.9685,50.3808,0.229,-0.2267,0.4346,277.9375
21:32:56:855,0.6046,2.0333,3.3747,51.2922,-0.0354,-0.2518,0.3443,277.1875
21:32:56:876,-0.049,2.5636,3.662,50.265,-0.2916,-0.4473,0.2758,276.7344
21:32:56:894,-0.7948,2.9443,5.0698,50.4713,-0.4274,-0.6973,0.2583,276.3906
21:32:56:913,-0.9983,3.0616,7.0091,50.5498,-0.4192,-0.9,0.3014,276.1562
21:32:56:933,-0.4201,3.3669,8.7976,51.4648,-0.3518,-1.0132,0.3161,275.9844
21:32:56:953,0.7615,3.7344,10.3515,50.4268,-0.388,-1.0446,0.2058,275.7812
21:32:56:976,2.2722,3.8026,12.5278,49.8882,-0.5236,-0.8001,-0.0624,275.5938
21:32:56:992,2.9174,3.3908,14.9998,50.2263,-0.5808,-0.1434,-0.3916,275.5312
21:32:57:018,2.3943,2.7013,15.6498,52.722,-0.5215,0.4889,-0.5705,275.75
21:32:57:032,2.4757,1.6155,14.2564,50.5377,-0.5076,0.7166,-0.5987,276.2031
21:32:57:054,2.678,1.1833,12.8342,50.2521,-0.612,0.5331,-0.6091,276.8125
21:32:57:079,2.6816,1.1247,12.9731,50.6399,-0.7071,0.1158,-0.6885,277.4219
21:32:57:097,2.3141,0.7093,14.3342,50.4192,-0.6892,-0.0414,-0.7383,277.4219
21:32:57:118,1.4163,-0.0425,15.5564,50.374,-0.4839,0.1821,-0.5551,278.0625
21:32:57:132,1.3145,-0.5549,14.9304,51.012,-0.1353,0.3914,-0.2099,279.25
21:32:57:153,2.2064,-0.4914,12.5601,51.2014,0.1667,0.2388,0.0564,280.2969
21:32:57:177,3.1389,0.3382,10.4376,50.5671,0.3212,-0.1743,0.1091,280.2969
21:32:57:196,3.6836,1.2995,9.5015,49.4637,0.4205,-0.4558,-0.0616,280.5
21:32:57:214,3.085,1.8334,8.794,50.5814,0.5071,-0.4262,-0.2709,280.4062
21:32:57:232,1.9669,2.1003,7.8028,52.1232,0.5888,-0.3106,-0.3724,280.2969
21:32:57:250,0.8728,2.3601,6.9218,51.5699,0.6892,-0.3159,-0.3833,280.4062
21:32:57:270,-0.2046,2.5648,6.6129,49.507,0.8037,-0.5253,-0.3109,280.75
21:32:57:293,-0.8427,2.5444,7.482,51.0931,1.0187,-0.6078,-0.1143,281.2188
21:32:57:309,-0.5661,2.4307,8.3032,50.0506,1.3505,-0.4371,0.078,281.6719
21:32:57:330,0.1665,2.4906,7.9022,50.9186,1.6187,-0.1431,0.172,282.0625
21:32:57:354,0.8106,2.7336,6.3711,49.9074,1.6283,0.055,0.1643,282.25
21:32:57:376,1.1685,3.0784,5.1955,49.9156,1.3747,0.1671,0.0766,282.1875
21:32:57:396,0.9339,3.4375,5.0974,49.0127,1.02,0.2526,0.0148,281.9688
21:32:57:412,0.8321,3.5644,5.8575,51.0627,0.7494,0.2209,0.005,281.7031
21:32:57:430,0.88,3.7176,7.0379,49.1741,0.6248,0.092,0.0172,281.4688
21:32:57:452,0.9674,3.9463,8.399,49.2143,0.5918,0.0494,0.0415,281.375
21:32:57:477,1.0356,4.2192,9.4512,49.5907,0.6032,0.1179,0.0742,281.2969
21:32:57:495,1.0272,4.4227,9.9684,51.0691,0.6032,0.2252,0.1035,281.2344
21:32:57:511,0.7543,4.5544,10.3874,50.8136,0.5758,0.2841,0.1866,281.1406
21:32:57:539,0.6765,4.9758,10.9787,49.9247,0.591,0.2273,0.2671,280.9688
21:32:57:549,0.9315,5.3935,11.2062,49.4878,0.6434,0.0015,0.2452,280.7188
21:32:57:570,1.0536,5.4809,10.6926,50.4652,0.5393,-0.2558,0.1821,280.3594
21:32:57:594,1.22,5.2619,10.7609,50.0795,0.2738,-0.264,0.1097,280.0312
21:32:57:616,0.9758,4.6681,11.4827,50.4974,0.0386,0.0699,0.0788,279.7969
21:32:57:632,0.3928,4.2012,11.7269,49.3072,-0.0179,0.5003,0.1504,279.7188
21:32:57:651,0.1462,3.9295,10.6172,50.429,0.0133,0.6372,0.2343,279.6562
21:32:57:671,0.2886,3.702,9.0574,51.4801,-0.0024,0.3924,0.2838,279.5781
21:32:57:692,0.5759,3.4064,7.9956,51.6937,-0.1507,-0.0201,0.2964,279.25
21:32:57:711,0.7004,3.2495,8.454,50.6303,-0.3041,-0.2451,0.3182,278.7969
21:32:57:736,1.0248,2.9958,9.1903,50.8614,-0.3041,-0.1048,0.3336,278.375
21:32:57:750,0.9183,2.8964,8.624,50.4275,-0.237,0.1924,0.3757,277.9062
21:32:57:770,0.8249,3.0448,7.1073,49.7549,-0.2085,0.3802,0.4356,277.6094
21:32:57:793,1.6701,3.6015,5.253,51.5127,-0.2349,0.3245,0.4109,277.2188
21:32:57:814,1.6689,3.6817,5.435,50.9725,-0.3017,0.1818,0.283,276.6719
21:32:57:830,1.4833,3.6302,6.0981,51.7264,-0.3659,0.099,0.1424,276.0625
21:32:57:850,1.1972,3.5835,6.3591,51.3017,-0.3577,0.1416,0.0468,275.625
21:32:57:870,0.9434,3.6901,6.3986,50.9876,-0.3143,0.1879,0.0085,275.3594
21:32:57:893,1.0188,3.981,6.8056,49.9794,-0.3164,0.2044,0.0181,275.2344
21:32:57:910,1.1697,4.2228,7.4916,49.9794,-0.3177,0.2007,0.0279,275.1719
21:32:57:930,0.9231,4.3676,8.557,52.0378,-0.2722,0.1426,0.0106,275.125
21:32:57:950,0.9817,4.3976,9.6464,51.3017,-0.1574,0.0939,0.0447,275.0469
21:32:57:970,1.4163,4.5041,10.0785,51.6595,0.0442,0.1107,0.1371,275
21:32:57:994,2.2016,4.8285,9.6571,52.2024,0.2424,0.1381,0.2015,274.9531
21:32:58:012,2.6709,5.1445,9.5769,52.5696,0.2951,0.0747,0.1307,274.8281
21:32:58:036,2.8133,5.0596,10.0019,51.7242,0.1952,-0.0017,-0.0528,274.4531
21:32:58:050,2.259,4.7423,10.604,50.5961,0.0359,0.0289,-0.2541,274.2812
21:32:58:071,1.6749,4.455,11.4875,52.7507,-0.0999,0.1232,-0.3505,274.3438
21:32:58:094,2.368,4.0648,11.2469,51.4273,-0.093,0.2276,-0.2579,274.625
21:32:58:113,2.9426,4.5711,10.525,52.576,-0.0064,0.1866,-0.134,274.9688
21:32:58:138,3.4118,5.4678,11.0817,52.4981,-0.0445,-0.0749,-0.1393,275.125
21:32:58:153,4.0942,5.1362,12.6966,51.8433,-0.1297,-0.4129,-0.3599,275.2656
21:32:58:170,3.9482,3.6745,13.3107,51.4827,-0.1438,-0.4816,-0.7553,275.3906
21:32:58:196,2.6397,2.6713,13.3789,51.7127,-0.183,-0.3799,-1.0789,275.6875
21:32:58:212,1.4115,2.6318,12.9767,52.038,-0.2605,-0.1141,-1.1343,276.4375
21:32:58:230,0.6765,2.9419,11.6611,53.2165,-0.249,0.2697,-1.0187,277.625
21:32:58:249,-0.304,3.5033,9.7014,51.5956,-0.1116,0.5229,-0.8917,279
21:32:58:272,-1.1575,4.0169,8.0794,50.9598,0.0921,0.5155,-0.7146,280.1719
21:32:58:294,-1.4173,4.2635,6.9301,51.603,0.3497,0.2928,-0.4659,281.5781
21:32:58:312,-0.8223,4.3593,6.1927,51.8695,0.6437,-0.0526,-0.1931,282.2344
21:32:58:330,0.3078,4.1737,5.5331,51.4821,0.938,-0.3599,0.0037,282.7031
21:32:58:352,1.2882,3.7164,4.852,49.8254,1.1779,-0.5554,0.0231,282.9531
21:32:58:371,2.1202,3.1119,4.0044,49.0957,1.294,-0.5761,-0.1154,283.0781
21:32:58:394,2.6649,2.4319,3.1916,49.6489,1.2216,-0.4678,-0.3649,283.2188
21:32:58:411,2.0843,1.8645,3.5208,50.9115,0.9012,-0.3756,-0.6989,283.5469
21:32:58:435,0.7926,1.7747,4.6556,50.5849,0.4434,-0.1628,-0.9367,284.1094
21:32:58:449,0.2874,1.971,6.1197,49.5161,0.0477,0.153,-0.9162,284.9844
21:32:58:470,0.5651,2.2069,6.5997,49.5594,-0.1137,0.4899,-0.7439,286.125
21:32:58:498,0.5292,2.9479,6.1245,50.1775,-0.1854,0.8236,-0.5335,287.125
21:32:58:512,0.3449,3.8708,5.6026,49.1675,-0.3369,0.5602,-0.5066,287.125
21:32:58:530,-0.3626,4.6394,5.9533,51.5131,-0.5475,0.0896,-0.5391,287.7812
21:32:58:550,-2.005,5.0979,8.0686,51.0106,-0.6141,-0.3671,-0.4155,288.5625
21:32:58:573,-2.7077,4.8429,11.7676,51.2298,-0.2818,-0.4678,-0.0749,288.9375
21:32:58:596,-2.0805,4.5065,13.8661,49.3371,0.2932,-0.0981,0.2583,289.4688
21:32:58:610,-0.2357,4.7292,12.8929,51.1425,0.629,0.3181,0.1669,290.0156
21:32:58:631,1.0979,5.3672,11.0841,50.1083,0.4879,0.5839,-0.484,290.2344
21:32:58:648,0.0935,5.1445,10.0366,50.1643,0.0208,0.8012,-1.2107,290
21:32:58:669,-2.9244,3.5704,9.3878,51.3275,-0.5358,1.2252,-1.4592,289.75
21:32:58:694,-6.5827,2.5432,8.2637,51.6127,-1.0248,1.5262,-1.1295,290.1406
21:32:58:755,-8.2527,1.9363,7.2127,51.749,-1.4128,1.2553,-0.4696,291.2812
21:32:58:755,-7.2723,1.7292,7.2905,51.7808,-1.6608,0.6122,0.1872,292.4531
21:32:58:756,-4.6099,1.7603,8.4277,50.3211,-1.665,-0.1104,0.5688,293.1562
21:32:58:771,-2.5868,1.8418,9.5973,51.2065,-1.465,-0.6153,0.7065,292.5312
21:32:58:792,-1.7536,2.0069,10.1851,51.2066,-1.2064,-0.671,0.8029,292.5312
21:32:58:809,-1.6232,1.7975,10.1048,50.7649,-0.9699,-0.2965,1.0007,290.7812
21:32:58:828,-1.4891,1.9686,9.1089,51.7521,-0.7973,0.1347,1.2977,289.9062
21:32:58:849,0.5735,2.882,8.5031,50.2645,-0.6192,0.2558,1.315,289.3438
21:32:58:869,2.0831,3.7894,8.5211,51.3282,-0.3073,0.1869,0.9507,287.0938
21:32:58:894,1.6892,4.0695,7.8926,51.9406,-0.0221,0.0638,0.5443,286.25
21:32:58:913,0.2036,3.6314,6.917,52.7694,0.0828,0.0689,0.3683,284.875
21:32:58:936,-1.3718,3.3537,6.2011,51.7844,0.0245,0.1847,0.4769,284.0156
21:32:58:948,-2.1247,3.5057,5.9126,51.7664,-0.0935,0.206,0.7422,283.5312
21:32:58:969,-1.7165,3.9929,6.4166,50.7697,-0.1539,0.0428,0.943,283.0625
21:32:58:992,-0.5506,4.3473,7.3479,52.5147,-0.1462,-0.2094,0.9627,282.3594
21:32:59:012,0.3221,4.789,8.3224,50.3994,-0.1204,-0.4243,0.8338,281.3281
21:32:59:030,0.6932,5.0033,9.4153,51.5857,-0.0945,-0.5112,0.6114,280.2188
21:32:59:054,0.9554,4.8608,10.5777,51.5632,-0.0898,-0.4046,0.3813,279.2656
21:32:59:069,1.0643,4.4454,11.1523,51.5215,-0.1518,-0.2544,0.2154,278.8594
21:32:59:090,1.2212,4.1234,11.8023,51.6955,-0.2354,-0.1436,0.1254,278.25
21:32:59:111,1.4295,3.7511,12.6188,51.2697,-0.2346,-0.0504,0.0284,277.8906
21:32:59:132,1.1278,3.1334,13.1012,50.9258,-0.0796,0.0683,0.0063,277.7812
21:32:59:152,1.0093,2.4942,11.7772,52.0397,0.041,-0.0632,0.058,277.5312
21:32:59:170,1.4067,2.1243,10.039,51.6967,-0.1222,-0.5082,0.0521,277.5156
21:32:59:194,1.4749,1.4802,12.5912,49.7689,-0.4661,-0.8174,-0.076,277.4688
21:32:59:210,0.88,0.8613,14.3665,51.672,-0.616,-0.5682,-0.1641,277.4375
21:32:59:237,1.4139,0.5752,13.2987,50.7316,-0.3662,-0.0339,-0.048,277.5625
21:32:59:249,3.1281,1.0253,9.8379,50.3293,0.0868,0.2305,0.1667,277.8125
21:32:59:269,3.8835,1.9112,6.9469,50.4001,0.3028,-0.1812,0.1035,278
21:32:59:289,3.03,2.1171,6.8308,50.973,0.0192,-0.8233,-0.3306,277.8906
21:32:59:308,1.7371,1.576,8.2912,50.2404,-0.5137,-0.9746,-0.7495,277.6719
21:32:59:329,0.6238,1.3928,8.9173,47.9302,-0.8594,-0.5114,-0.9252,277.875
21:32:59:349,-0.0454,1.5389,8.1584,48.6644,-0.9052,0.0974,-0.8965,278.6875
21:32:59:369,-0.3351,1.9674,7.1779,49.9102,-0.784,0.4548,-0.7689,279.7969
21:32:59:392,-0.1783,2.3721,6.6919,49.1266,-0.5803,0.4516,-0.6326,280.8125
21:32:59:413,-0.2094,2.6737,6.0957,49.1839,-0.29,0.2239,-0.5838,281.6875
21:32:59:430,-0.7217,2.8246,5.3715,49.3285,-0.0306,-0.0313,-0.6256,282.6719
21:32:59:448,-1.6399,2.8293,5.0998,49.138,0.0397,-0.1841,-0.6962,283.2969
21:32:59:471,-2.418,2.9191,5.9713,47.6654,-0.1001,-0.2302,-0.6861,284.0156
21:32:59:494,-2.7341,3.2244,7.1384,49.242,-0.2807,-0.0949,-0.549,284.8438
21:32:59:511,-2.5593,3.5117,8.1236,48.1,-0.359,-0.0001,-0.3993,285.6094
21:32:59:530,-2.187,3.5368,9.6164,48.7774,-0.404,-0.1034,-0.3037,285.9531
21:32:59:549,-2.1068,3.3489,11.8275,48.2072,-0.4333,-0.2627,-0.2533,286.4688
21:32:59:570,-2.2169,3.1131,14.0325,48.256,-0.3875,-0.2715,-0.1801,286.8438
21:32:59:597,-1.9811,2.8725,15.1746,46.961,-0.1819,-0.0627,-0.0291,287.1562
21:32:59:615,-1.1048,2.791,14.7005,47.6747,0.1212,0.2159,0.1547,287.4219
21:32:59:630,-0.1962,2.8736,13.6207,47.1873,0.3492,0.3802,0.2841,287.5469
21:32:59:651,0.3126,2.7731,12.5278,47.6388,0.4176,0.3482,0.27,287.4844
21:32:59:669,0.139,2.4044,13.1036,46.8396,0.2474,0.0193,0.1379,287.1875
21:32:59:693,-0.2429,1.6813,14.9268,44.4288,-0.0487,-0.256,0.0364,286.6875
21:32:59:709,-0.5709,0.7237,16.7583,43.269,-0.1731,-0.2206,0.0463,286.5469
21:32:59:730,-0.6786,-0.2149,15.7588,46.7327,0.1119,0.1719,0.1967,286.5312
21:32:59:750,-0.6571,-0.3885,12.4811,45.9652,0.6546,0.4481,0.4623,286.5
21:32:59:769,-0.0346,-0.0748,9.8858,45.2442,1.0485,0.234,0.7502,286.2656
21:32:59:789,0.5891,0.228,8.9077,43.9249,1.1806,-0.2944,0.8892,285.7344
21:32:59:811,0.9949,0.489,8.5726,43.8594,1.1649,-0.6632,0.8985,284.8906
21:32:59:829,0.9829,0.7548,7.8435,42.4008,1.0898,-0.6576,0.8404,283.9688
21:32:59:850,0.7052,0.9367,6.9002,43.7778,0.9521,-0.4124,0.7624,283.1562
21:32:59:869,0.5185,1.2671,5.8264,42.9966,0.7795,-0.0984,0.7289,282.3438
21:32:59:894,0.6322,1.6837,5.1069,44.5198,0.3854,0.0841,0.6849,281.5625
21:32:59:911,0.8776,2.0321,5.0279,42.6549,0.2437,0.0044,0.5661,280.7969
21:32:59:929,0.9506,2.2536,5.1895,43.6313,0.1683,-0.0395,0.4015,279.9531
21:32:59:950,0.6956,2.3828,5.2027,40.3718,0.0951,-0.0206,0.2447,279.1562
21:32:59:970,0.3509,2.396,5.2626,41.4388,-0.0051,0.0739,0.1496,278.0938
21:32:59:994,-0.0514,2.4894,5.4362,41.098,-0.1084,0.1831,0.1451,277.9375
21:33:00:011,-0.2034,2.8234,5.6983,40.4973,-0.2147,0.2513,0.1983,277.8281
21:33:00:028,-0.0143,3.3932,6.3579,40.1314,-0.2746,0.2537,0.2284,277.6406
21:33:00:048,0.2192,3.7823,7.5036,40.2828,-0.2274,0.1733,0.2213,277.4375
21:33:00:068,0.3844,3.9929,8.8682,40.2062,-0.0778,0.1586,0.2055,277.1562
21:33:00:088,0.5065,4.0588,9.6739,40.7793,0.1095,0.1496,0.1605,276.8438
21:33:00:110,0.6274,4.2563,9.5458,41.289,0.18,-0.0118,0.0665,276.5625
21:33:00:128,1.0524,4.3257,9.5111,39.4867,0.0543,-0.2504,-0.089,276.2969
21:33:00:148,1.4582,3.981,10.4496,38.7479,-0.1776,-0.3349,-0.2762,276.0781
21:33:00:168,1.2451,3.1957,11.9999,39.6539,-0.3297,-0.1034,-0.3388,276.0156
21:33:00:194,1.3756,2.4463,12.5338,40.2281,-0.3835,0.2095,-0.2709,276.1562
21:33:00:211,2.5404,1.904,11.5653,40.4626,-0.5614,0.2705,-0.3135,276.5469
21:33:00:228,3.2419,1.8166,11.3151,38.789,-0.7934,0.1861,-0.5162,276.9531
21:33:00:247,2.8935,1.4347,12.3267,39.4802,-0.8298,0.1466,-0.7644,277.5
21:33:00:269,1.7802,0.7787,12.7947,40.086,-0.6581,0.2494,-0.8193,277.7188
21:33:00:288,0.8967,0.5764,11.9532,39.4332,-0.4493,0.2657,-0.6824,278.8125
21:33:00:310,0.8716,0.6602,10.3706,39.2182,-0.3332,-0.0028,-0.4991,279.2656
21:33:00:328,1.4857,0.9439,9.1508,38.3455,-0.3981,-0.4276,-0.3956,280.0781
21:33:00:349,2.4015,1.4575,9.6739,38.1732,-0.4533,-0.5695,-0.4512,280.7031
21:33:00:369,2.5847,1.6706,10.3072,36.5516,-0.3177,-0.3359,-0.6264,281.2031
21:33:00:395,1.6641,1.643,9.1867,36.8926,-0.147,0.0564,-0.7295,281.7344
21:33:00:411,0.8572,1.6287,6.9218,39.2062,-0.1161,0.2119,-0.7364,282.3906
21:33:00:430,0.8644,1.7149,5.3847,39.4301,-0.2322,0.0676,-0.7729,283.2031
21:33:00:449,0.7842,1.9746,5.5559,37.8915,-0.3089,-0.0627,-0.8701,283.9844
21:33:00:470,0.2407,1.9507,6.322,37.8706,-0.2133,-0.0342,-0.9271,284.8125
21:33:00:495,-0.541,1.916,5.8839,39.4399,-0.1113,0.0127,-0.8501,285.7344
21:33:00:510,-0.9468,2.3529,5.0794,38.1608,-0.1633,-0.0896,-0.6994,286.1875
21:33:00:528,-0.9324,2.8078,5.5283,37.7705,-0.2647,-0.3205,-0.5868,287.25
21:33:00:550,-1.0366,2.9838,7.4126,38.4509,-0.2139,-0.5618,-0.4746,288.2188
21:33:00:570,-0.9743,2.9,9.5362,39.0542,0.025,-0.7266,-0.341,289.3438
21:33:00:595,-1.0354,3.2196,10.7273,37.704,0.331,-0.6486,-0.2347,290
21:33:00:616,-1.4292,3.4949,10.0486,39.3132,0.4788,-0.4145,-0.1468,290.5312
21:33:00:629,-1.5214,3.8457,9.5925,36.9036,0.4069,-0.1389,-0.0336,290.9531
21:33:00:648,-1.3658,4.0911,9.9301,37.7164,0.1965,0.038,0.0628,291.2188
21:33:00:668,-0.9181,4.048,11.7413,38.1664,-0.0482,-0.0395,0.1038,291.375
21:33:00:688,-0.5984,3.6242,13.6554,36.8469,-0.1606,-0.1327,0.0825,291.3594
21:33:00:712,-0.4285,3.0209,13.6423,38.4157,-0.1063,-0.0049,0.0271,291.2656
21:33:00:728,-0.7493,2.5085,13.2317,39.0542,-0.1345,0.1634,-0.0342,291.1562
21:33:00:748,-0.8223,2.1135,14.9675,38.9581,-0.3955,0.2159,-0.0363,291.1094
21:33:00:830,-0.9564,1.4263,16.5596,38.0732,-0.4618,0.3879,-0.003,291.0938
21:33:00:831,-1.519,0.5381,15.3374,38.1736,-0.0807,0.6135,0.0322,291.125
21:33:00:831,-1.9799,0.1886,12.1387,38.7509,0.4522,0.7291,0.1997,291.0938
21:33:00:832,-1.5908,0.0473,9.7014,38.4157,0.71,0.4907,0.4665,290.9688
21:33:00:850,-0.6822,0.1383,9.2238,38.3918,0.6298,0.0034,0.6772,290.6719
21:33:00:872,0.1126,0.3142,9.9624,38.233,0.3899,-0.3708,0.7619,290.1094
21:33:00:893,0.2647,0.3478,10.2844,38.233,0.2197,-0.4007,0.7272,289.3594
21:33:00:910,-0.1028,0.2628,9.3447,36.3838,0.2099,-0.1128,0.6902,288.5781
21:33:00:929,-0.5206,0.4052,7.7454,36.3838,0.2743,0.2377,0.7757,287.8125
21:33:00:949,-0.3459,0.7488,6.1748,39.7604,0.3308,0.4481,0.9661,287.0469
21:33:00:971,0.1869,1.2252,5.0279,39.716,0.3545,0.4108,1.1403,286.6562
21:33:00:994,0.789,1.7388,4.5311,38.2182,0.3284,0.1807,1.2162,285.625
21:33:01:014,1.1649,2.1877,4.7095,40.1391,0.2482,-0.105,1.1704,284.3438
21:33:01:028,1.1326,2.3673,5.2937,38.669,0.1499,-0.3397,1.034,282.9375
21:33:01:055,0.9362,2.2344,6.6225,39.4921,0.0495,-0.4624,0.9046,280.4062
21:33:01:081,1.0775,2.1578,7.8938,36.9602,0.0722,-0.1966,0.899,279.375
21:33:01:094,1.3588,2.4331,8.4684,39.7643,0.1404,0.1008,0.8958,278.0156
21:33:01:119,1.7156,3.0365,8.2398,39.3161,0.1321,0.3192,0.8064,277.0312
21:33:01:132,2.2662,3.653,7.7406,40.0575,0.0434,0.2926,0.5693,275.9844
21:33:01:152,2.6361,3.8924,7.652,37.6557,-0.1145,0.0846,0.2284,275.0469
21:33:01:171,2.3021,3.7894,8.5462,38.1719,-0.2703,-0.1711,-0.0946,274.3438
21:33:01:194,1.8688,3.0963,10.2916,37.84,-0.3185,-0.3612,-0.3109,274.0781
21:33:01:211,1.5982,2.1219,12.0238,38.7752,-0.2959,-0.3232,-0.4083,274.2031
21:33:01:230,1.4941,1.4252,13.0784,38.4778,-0.2724,-0.1261,-0.39,274.6094
21:33:01:255,2.4254,0.4543,12.7074,37.6878,-0.351,-0.0435,-0.3655,275.1406
21:33:01:276,3.2682,0.179,11.8359,37.5467,-0.6911,-0.2366,-0.468,275.6094
21:33:01:290,3.2706,-0.0162,13.0485,38.6299,-1.0554,-0.2459,-0.6906,275.6094
21:33:01:312,1.6772,-0.6853,15.4248,39.4774,-1.0354,0.1887,-0.7106,276.0156
21:33:01:329,0.3928,-1.3545,15.7336,40.4295,-0.6722,0.6902,-0.4051,276.5938
21:33:01:348,0.297,-1.2204,13.4112,38.3725,-0.3332,0.8183,0.0612,277.4375
21:33:01:369,2.0723,-0.2747,10.6423,39.6921,-0.2301,0.4185,0.3312,278.2031
21:33:01:396,4.2498,1.3617,9.6332,38.8433,-0.2352,-0.1386,0.0995,278.5938
21:33:01:414,4.6425,2.5768,9.9373,39.7747,-0.1635,-0.37,-0.4435,278.4375
21:33:01:428,3.3652,2.4187,9.4464,40.1435,-0.0559,-0.1921,-0.8779,277.9219
21:33:01:447,1.554,1.8813,7.9764,41.3463,-0.0016,0.1416,-0.9785,277.9219
21:33:01:467,0.2515,1.6825,6.3711,40.0976,0.0218,0.3464,-0.8459,278.4531
21:33:01:488,-0.183,1.7975,5.077,40.6101,0.0059,0.2803,-0.6443,279.4844
21:33:01:514,0.1581,2.1398,4.506,40.0985,-0.073,0.1291,-0.5202,280.5312
21:33:01:531,0.5795,2.5289,4.7837,41.7286,-0.1531,0.0545,-0.5175,281.4688
21:33:01:547,0.6765,2.8042,5.2338,40.7502,-0.2317,0.0004,-0.5916,282.1719
21:33:01:568,0.1953,2.9479,6.2502,40.8694,-0.2783,0.014,-0.628,282.7344
21:33:01:588,-0.6367,2.9467,8.0135,41.6603,-0.1707,0.107,-0.5372,283.3125
21:33:01:610,-1.2461,2.5959,9.9983,41.4461,0.1734,0.3016,-0.2981,283.9844
21:33:01:627,-1.4328,2.4439,10.4951,40.6795,0.5888,0.4415,0.0098,284.9844
21:33:01:648,-1.0533,3.0053,9.5147,41.7297,0.8011,0.3437,0.1967,285.4688
21:33:01:668,-0.4249,3.6721,8.7653,41.6991,0.7625,0.1418,0.1784,285.5938
21:33:01:687,-0.0849,3.9091,8.8251,42.9153,0.5763,-0.0773,0.0636,285.4531
21:33:01:709,-0.025,3.5871,9.8535,42.0687,0.3744,-0.2028,-0.0086,285.2188
21:33:01:731,-0.1567,3.2376,11.6623,41.6588,0.323,-0.1258,-0.0086,285.0938
21:33:01:748,-0.2597,2.9036,12.7109,45.1231,0.3819,0.1299,0.0244,285.125
21:33:01:768,-0.1232,2.5181,11.6144,44.186,0.2045,0.1855,0.0138,285.1719
21:33:01:788,0.0288,2.2571,11.5725,42.2445,-0.2157,0.1917,-0.031,285.1719
21:33:01:814,-0.2273,1.8765,13.2975,43.2056,-0.4602,0.2992,-0.0509,285.125
21:33:01:828,-0.9827,1.4407,15.0573,44.0041,-0.2674,0.3059,0.0228,285.125
21:33:01:849,-1.2018,0.738,15.4547,44.2371,0.2072,0.2034,0.217,285.125
21:33:01:867,-0.8714,0.3071,14.1343,44.4183,0.6567,0.009,0.4394,285.1094
21:33:01:888,-0.2405,0.398,11.9747,43.9605,0.8488,-0.2318,0.5437,285.0312
21:33:01:909,0.4502,0.5992,10.0749,44.6502,0.731,-0.3538,0.4886,284.7969
21:33:01:927,0.6418,0.7213,9.0358,44.3583,0.4871,-0.2571,0.4042,284.0469
21:33:01:947,0.5795,0.6087,8.4541,45.5903,0.3305,-0.0432,0.3781,283.5156
21:33:01:967,0.2264,0.6482,7.555,44.1203,0.3028,0.1171,0.441,283.125
21:33:01:987,0.3042,1.0122,5.2793,45.6392,0.3324,0.1256,0.5605,282.7188
21:33:02:008,0.7735,1.5317,4.676,43.2759,0.3364,-0.0036,0.6524,282.2656
21:33:02:027,1.2152,1.9854,4.5778,45.4699,0.2882,-0.1716,0.6561,281.7188
21:33:02:048,1.3289,2.1985,4.7813,44.9242,0.2128,-0.3213,0.5448,281
21:33:02:066,0.9051,2.2883,5.2506,45.9913,0.1177,-0.4028,0.3954,280.2656
21:33:02:086,0.5424,2.2117,6.3998,45.8604,-0.0061,-0.4422,0.3129,279.625
21:33:02:107,0.3676,2.2368,7.6233,46.2001,-0.0887,-0.3357,0.3405,279.1875
21:33:02:127,0.2204,2.663,8.3499,46.6969,-0.0948,-0.1053,0.4314,278.875
21:33:02:147,0.6765,3.2603,8.5594,46.8065,-0.0186,0.0755,0.5448,278.5938
21:33:02:169,1.4007,3.8732,8.4169,46.3148,0.1068,0.051,0.5842,278.2188
21:33:02:196,1.9658,4.3664,8.2027,45.9418,0.1928,-0.1567,0.4924,277.6562
21:33:02:212,2.1932,4.3928,8.7509,46.3239,0.1137,-0.4518,0.2604,276.6562
21:33:02:231,2.0172,3.8194,10.6603,46.4977,-0.1225,-0.692,-0.0312,276.1562
21:33:02:248,1.2607,3.0784,12.529,47.0049,-0.323,-0.6292,-0.2488,275.9375
21:33:02:268,0.7124,2.6031,13.5848,46.8476,-0.3766,-0.358,-0.2776,276.1094
21:33:02:289,1.4738,2.244,13.6949,47.9242,-0.2916,-0.1072,-0.1031,276.4844
21:33:02:313,3.0396,1.9818,12.4775,48.6174,-0.1039,-0.0174,0.0679,276.8906
21:33:02:329,3.2287,2.1159,11.7257,47.0806,-0.0538,-0.1503,-0.0256,277
21:33:02:347,2.3859,1.6442,12.444,47.3887,-0.1776,-0.3008,-0.2954,277
21:33:02:368,1.5061,0.9439,12.5194,48.0614,-0.2181,-0.1583,-0.4962,276.9531
21:33:02:388,1.1769,0.6267,10.9763,45.1688,-0.0919,0.19,-0.4826,277.1719
21:33:02:415,1.6976,0.7296,8.976,49.4144,0.016,0.324,-0.3284,277.7031
21:33:02:432,2.7451,1.1043,8.0746,48.3888,-0.0266,0.0287,-0.1876,278.2969
21:33:02:450,3.1928,1.6777,8.812,47.2937,-0.24,-0.3839,-0.2374,278.7031
21:33:02:469,2.6876,1.7711,9.2154,46.8868,-0.4187,-0.4185,-0.4453,278.9375
21:33:02:488,1.6114,1.7675,8.2757,48.5928,-0.4381,-0.0661,-0.6398,279.3594
21:33:02:511,0.6262,1.9651,6.5961,49.2655,-0.4005,0.3669,-0.677,279.9531
21:33:02:529,0.224,2.25,5.3033,49.5519,-0.3952,0.5477,-0.5809,280.7031
21:33:02:547,0.206,2.6438,5.3943,47.4828,-0.4293,0.3147,-0.4507,281.4375
21:33:02:567,0.5232,2.8928,6.1724,47.8253,-0.4,-0.0512,-0.3226,281.9844
21:33:02:587,0.7615,3.1083,6.498,49.3081,-0.2597,-0.2691,-0.2541,282.4688
21:33:02:612,0.6861,3.2579,6.6883,48.1745,-0.1481,-0.2859,-0.2496,282.8438
21:33:02:630,0.1569,3.1586,7.2342,49.4013,-0.1225,-0.1857,-0.2752,283.1562
21:33:02:647,-0.3925,2.9323,8.7054,49.2155,-0.1398,-0.1594,-0.2715,283.4844
21:33:02:668,-0.2262,2.7563,9.6104,49.4161,-0.041,-0.1351,-0.1537,283.8281
21:33:02:689,0.0624,3.0556,9.4931,49.578,0.2341,-0.1034,0.0314,284.1406
21:33:02:713,0.4754,3.3381,9.5398,50.44,0.1976,-0.0731,-0.0057,284.3438
21:33:02:730,0.3078,3.4698,10.2976,49.7308,0.1776,0.0588,-0.0488,284.3438
21:33:02:747,-0.2261,3.301,11.0087,49.6476,0.2589,0.1645,0.0151,284.375
21:33:02:767,-0.371,3.0257,11.1008,51.2757,0.3148,0.2137,0.1448,284.3594
21:33:02:787,-0.2357,3.058,11.3139,50.3988,0.3321,0.2862,0.2548,284.4062
21:33:02:816,0.2491,3.0604,11.4875,51.7425,0.3377,0.4718,0.2479,284.3594
21:33:02:834,0.7699,2.7216,10.5418,51.3655,0.1593,0.597,0.107,284.1719
21:33:02:909,0.6573,2.1578,9.3842,51.3648,-0.323,0.4433,-0.0262,283.8438
21:33:02:909,-0.019,1.5509,10.7034,52.874,-0.779,0.1951,-0.0571,283.4688
21:33:02:909,-1.0079,0.7679,14.0337,52.9624,-0.6775,0.1903,0.0873,283.2656
21:33:02:910,-1.5513,0.0329,15.1698,51.631,-0.1638,0.2931,0.3869,283.2188
21:33:02:928,-1.5346,-0.0341,12.936,52.2735,0.1973,0.2071,0.6996,283.125
21:33:02:948,-0.7624,0.3059,10.2258,53.2893,0.1675,-0.0659,0.8612,283.125
21:33:02:975,0.054,0.6758,8.9233,53.2893,-0.0943,-0.313,0.8495,281.8281
21:33:02:986,0.528,0.8194,9.0239,54.2272,-0.33,-0.3775,0.7797,281.8281
21:33:03:006,1.1326,1.0445,9.6595,52.4097,-0.3939,-0.3237,0.6649,280.8594
21:33:03:030,2.4769,1.8022,10.6651,54.1965,-0.3079,-0.1639,0.3834,279.5469
21:33:03:049,3.2012,2.3996,11.0158,53.5804,-0.1766,0.242,-0.0962,278.75
21:33:03:066,1.6976,2.2787,9.717,54.0525,-0.1188,0.6915,-0.3974,278.1562
21:33:03:091,-0.4464,1.7544,8.0255,53.1194,-0.1361,1.0497,-0.3071,278
21:33:03:110,-1.8578,1.4527,6.9481,53.6884,-0.089,1.1589,0.0884,278.2812
21:33:03:129,-1.8494,1.5389,6.1879,53.4341,0.0863,0.9128,0.5443,278.6094
21:33:03:153,-0.7217,1.8813,5.4972,53.8401,0.3023,0.3757,0.8114,278.625
21:33:03:168,0.2467,2.2104,4.7466,53.6607,0.4317,-0.2044,0.8657,278.1406
21:33:03:190,0.7148,2.4152,4.5036,55.8561,0.4147,-0.5844,0.8039,277.25
21:33:03:212,0.9195,2.4846,4.9298,55.1934,0.3023,-0.701,0.6681,276.2656
21:33:03:229,0.5029,2.238,5.9258,53.7281,0.1883,-0.6257,0.5882,275.8594
21:33:03:246,0.37,1.9124,6.9469,54.143,0.1097,-0.4273,0.588,275.0312
21:33:03:267,0.5257,2.384,7.1133,53.4883,-0.0783,-0.3327,0.5267,274.3594
21:33:03:288,1.4306,2.9479,7.7573,54.2778,-0.4024,-0.496,0.2753,273.7812
21:33:03:312,1.8161,2.7863,9.7613,54.5241,-0.6943,-0.6736,-0.0632,273.2031
21:33:03:328,1.4893,1.673,12.2884,55.2617,-0.7787,-0.6941,-0.2235,272.4688
21:33:03:347,0.9698,0.3669,14.0026,55.8686,-0.6863,-0.5644,-0.0797,272.4531
21:33:03:372,1.4522,-0.7404,14.3917,55.5993,-0.5145,-0.3953,0.2402,272.7656
21:33:03:387,3.6584,0.0353,12.9695,54.525,-0.457,-0.4622,0.441,273.0781
21:33:03:408,3.7686,-0.2388,14.5222,55.6147,-0.6203,-0.6507,0.3214,273.0625
21:33:03:429,3.2634,-1.0014,15.7719,57.0972,-0.7502,-0.3804,0.123,272.7031
21:33:03:450,3.109,-1.6442,14.2971,55.3801,-0.591,0.2726,0.1019,272.3125
21:33:03:466,3.5268,-1.2995,11.0482,55.3319,-0.2831,0.7222,0.2407,272.1719
21:33:03:490,4.099,-0.3549,8.9401,56.9093,-0.1696,0.5898,0.3637,272.125
21:33:03:512,3.862,0.4471,8.6204,57.0564,-0.2589,0.1267,0.2521,271.9219
21:33:03:530,2.9605,0.58,8.5534,56.0207,-0.3417,-0.1442,0.0298,271.5
21:33:03:547,1.8604,0.7895,7.6532,55.3616,-0.322,-0.0667,-0.0997,271.0938
21:33:03:567,1.202,1.2264,6.3663,55.2899,-0.2714,0.1413,-0.0824,270.9531
21:33:03:587,1.3313,1.7316,5.6253,55.1447,-0.2772,0.2393,0.0053,271.0469
21:33:03:613,1.9346,2.2428,5.733,54.6661,-0.3345,0.2044,0.0503,271.2031
21:33:03:631,2.3835,2.5983,6.3867,56.3672,-0.3614,0.1067,-0.0235,271.2031
21:33:03:648,2.4075,2.6857,6.5925,54.5574,-0.2759,0.0766,-0.199,271.1406
21:33:03:668,1.8269,2.6079,6.3819,54.0195,-0.1545,0.0851,-0.4067,271.1875
21:33:03:688,1.1242,2.3565,6.6548,55.0332,-0.1254,0.0811,-0.5415,271.4062
21:33:03:714,0.6908,2.165,7.8663,55.3127,-0.1782,0.0257,-0.5391,271.875
21:33:03:732,0.7303,2.0955,9.7888,53.9468,-0.1939,-0.1056,-0.4637,272.1719
21:33:03:747,0.856,2.1662,10.9931,55.2693,-0.0399,-0.2222,-0.3822,272.8125
21:33:03:767,0.4275,2.0812,11.691,55.8815,0.1883,-0.3109,-0.3814,273.3594
21:33:03:787,0.3078,1.7568,11.9915,53.7971,0.3438,-0.2126,-0.3423,273.8438
21:33:03:813,0.3174,1.6203,11.8622,53.934,0.4059,-0.0198,-0.2446,274.2969
21:33:03:831,0.7028,1.6933,11.7257,53.2353,0.3486,0.1685,-0.1202,274.7031
21:33:03:857,1.3097,1.5999,12.2034,53.8407,0.1902,0.3224,-0.0469,275.0312
21:33:03:865,1.8891,1.2635,12.4763,53.1113,0.0296,0.4422,-0.073,275.2188
21:33:03:887,1.785,1.2228,12.2752,54.3361,-0.1164,0.5594,-0.1527,275.2812
21:33:03:915,1.6126,1.2755,13.1586,53.0025,-0.3212,0.4889,-0.2137,275.3438
21:33:03:933,1.4283,0.6542,14.9591,52.6624,-0.4634,0.311,-0.2704,275.4844
21:33:03:950,0.728,-0.5656,15.1937,52.0486,-0.3007,0.3693,-0.3601,275.7031
21:33:03:966,0.1031,-1.5173,12.5541,51.9455,0.1872,0.4795,-0.3154,276
21:33:03:987,0.6011,-1.8573,9.9253,51.5144,0.5177,0.2984,-0.0653,276.3906
21:33:04:014,1.4845,-1.7376,8.964,49.9269,0.4682,-0.1599,0.1621,276.7188
21:33:04:032,1.4965,-1.321,9.7924,51.3529,0.1665,-0.6403,0.1714,276.7812
21:33:04:048,0.5951,-1.0121,10.8075,50.223,-0.1055,-0.7442,0.0958,276.6094
21:33:04:071,-0.3028,-0.6853,10.6232,51.7874,-0.1087,-0.5082,0.1422,276.4531
21:33:04:094,-0.2238,-0.2221,9.4261,51.0945,0.335,-0.1769,0.6223,276.3906
21:33:04:116,0.2958,0.3238,8.0446,51.1283,0.4509,-0.0803,0.7781,276.3906
21:33:04:132,0.7974,0.8182,6.9732,49.6674,0.5151,-0.0771,0.8599,275.8438
21:33:04:147,1.4354,1.1774,6.4836,50.8919,0.6067,-0.1389,0.838,274.2812
21:33:04:169,1.9107,1.491,6.0682,49.9925,0.6991,-0.2563,0.7358,273.2812
21:33:04:187,2.2495,1.6969,5.5487,48.2398,0.7132,-0.3756,0.5706,273.2812
21:33:04:212,2.4003,1.8513,5.2386,48.9702,0.6099,-0.4113,0.3656,272.3125
21:33:04:231,2.35,2.0189,5.174,50.1363,0.4037,-0.369,0.1384,271.5156
21:33:04:246,2.0232,2.0381,5.4505,48.2241,0.1326,-0.3295,-0.0688,270.8594
21:33:04:267,1.6054,1.8992,6.4776,50.1857,-0.1063,-0.2949,-0.1937,270.4531
21:33:04:285,1.0835,1.7603,8.1955,48.1296,-0.1854,-0.2132,-0.231,270.3281
21:33:04:306,0.54,1.673,9.6751,47.5624,-0.0852,-0.1122,-0.1878,270.4219
21:33:04:329,0.7531,1.728,9.7086,46.3682,-0.0298,-0.2142,-0.1878,270.6875
21:33:04:346,1.2104,1.7292,9.6739,46.8309,-0.1702,-0.4614,-0.2674,270.9844
21:33:04:366,1.6126,1.2444,10.7333,46.8366,-0.4216,-0.6073,-0.3548,271.2031
21:33:04:386,1.8018,0.2699,12.784,47.232,-0.5688,-0.3711,-0.341,271.4375
21:33:04:415,2.034,-0.7368,13.7177,46.3428,-0.5401,0.1184,-0.191,271.8125
21:33:04:427,2.4961,-0.9475,12.365,48.0435,-0.5649,0.3509,-0.0435,272.2812
21:33:04:446,3.1138,-0.3226,11.2229,45.9145,-0.7249,0.1794,-0.1061,272.9062
21:33:04:472,3.3496,-0.2221,12.2967,45.9003,-0.7465,0.136,-0.3308,273.0469
21:33:04:486,2.7295,-1.0684,13.2939,46.9375,-0.4791,0.4039,-0.4243,273.1094
21:33:04:507,1.8353,-1.7771,11.9304,46.3904,-0.179,0.6273,-0.2829,273.4062
21:33:04:530,1.8676,-2.1003,9.1687,44.8468,-0.167,0.418,-0.0427,273.8906
21:33:04:549,2.781,-1.9794,7.3192,45.8262,-0.5148,-0.1415,0.1294,274.2969
21:33:04:567,3.419,-1.0193,8.3583,45.9372,-0.8943,-0.5258,0.1355,274.4688
21:33:04:590,3.4214,-0.2807,10.8913,44.9284,-0.857,-0.451,-0.0006,274.4062
21:33:04:613,2.5416,0.094,11.715,46.4754,-0.5052,-0.0417,-0.0965,274.2812
21:33:04:630,1.3516,0.234,9.9744,44.6998,-0.1774,0.3243,-0.003,274.2656
21:33:04:646,0.8201,0.5644,7.4736,44.0324,-0.0423,0.3371,0.1765,274.4062
21:33:04:670,1.1733,1.1726,6.3519,44.3663,-0.0123,0.1293,0.2655,274.5
21:33:04:685,1.7838,1.6885,6.5555,45.7997,0.0698,-0.0022,0.2077,274.4844
21:33:04:707,2.0328,1.9914,6.6967,43.9497,0.2173,-0.0166,0.0817,274.2656
21:33:04:731,2.1082,2.1075,6.085,44.4042,0.2706,-0.0414,-0.0573,273.9688
21:33:04:749,2.2303,2.2966,5.5714,44.4379,0.155,-0.1642,-0.211,273.7344
21:33:04:767,2.3405,2.3757,6.2993,45.4932,-0.0282,-0.2928,-0.3641,273.6406
21:33:04:787,1.8149,2.062,10.2413,44.447,-0.0977,-0.2715,-0.4584,273.7656
21:33:04:813,1.5587,1.8298,11.3522,43.2687,0.0349,-0.1745,-0.4832,274.1094
21:33:04:831,1.1445,1.236,11.6419,43.3986,0.2788,-0.182,-0.4933,274.5781
21:33:04:846,1.1326,0.9128,11.4384,43.6085,0.4847,-0.2049,-0.3727,275.1406
21:33:04:866,1.5492,1.0804,11.7664,43.1082,0.5465,-0.2278,-0.1559,275.7031
21:33:04:887,2.1896,1.3605,11.9831,44.3434,0.5286,-0.1977,0.0151,276.1719
21:33:04:912,2.6984,1.412,11.703,42.3459,0.4264,0.0071,0.0694,276.4531
21:33:04:972,3.0048,1.1786,11.3941,43.5916,0.2115,0.2532,-0.0006,276.4844
21:33:04:973,3.4226,0.7117,12.0238,44.2768,-0.0927,0.1972,-0.1338,276.3906
21:33:04:973,3.1473,0.258,14.0625,43.5471,-0.4123,-0.1002,-0.3015,276.3125
21:33:04:987,2.0352,-0.5608,16.6482,41.627,-0.5659,-0.2867,-0.4629,276.3594
21:33:05:016,0.643,-1.6167,16.574,42.0373,-0.2836,0.0217,-0.497,276.6094
21:33:05:030,-0.432,-2.1865,12.6247,43.1502,0.3356,0.6287,-0.3226,277.0938
21:33:05:048,-0.7601,-1.9507,8.3152,42.6212,0.7484,0.8758,0.05,277.9844
21:33:05:066,-0.4775,-1.0756,6.2478,42.6212,0.7199,0.4934,0.4758,278.2969
21:33:05:086,0.218,-0.2388,6.923,41.791,0.3939,-0.206,0.7848,278.1562
21:33:05:107,0.9889,0.1586,8.7521,41.9129,0.106,-0.709,0.911,277.5469
21:33:05:130,1.3935,0.4232,9.3962,40.9103,0.0506,-0.728,0.9217,276.6406
21:33:05:148,1.4618,0.8098,8.6228,42.7412,0.1617,-0.4286,0.911,275.6875
21:33:05:168,1.263,1.1666,7.4425,41.7846,0.2695,-0.1721,0.8716,275.1875
21:33:05:186,1.1218,1.2995,7.0654,42.6315,0.2751,-0.0994,0.8319,274.1719
21:33:05:206,1.2032,1.3066,7.0654,41.8565,0.2559,-0.0614,0.8133,273.1406
21:33:05:232,1.2451,1.2695,6.8308,41.9787,0.2985,-0.0275,0.7888,272.2031
21:33:05:247,1.2786,1.2803,6.4417,41.758,0.3689,-0.0331,0.7661,271.25
21:33:05:266,1.3923,1.3366,6.3208,41.5238,0.4,-0.1149,0.7464,270.3125
21:33:05:286,1.5743,1.4156,6.8212,41.7496,0.38,-0.2515,0.7161,269.4375
21:33:05:306,1.8676,1.5125,7.3982,40.1902,0.355,-0.3599,0.6601,268.1094
21:33:05:329,2.1429,1.6466,7.6867,40.5464,0.3239,-0.358,0.5741,267.2812
21:33:05:346,2.2363,1.7089,8.0003,42.1279,0.2519,-0.2986,0.4383,266.5469
21:33:05:366,2.5715,1.6442,8.9018,40.0113,0.1193,-0.2805,0.2945,265.8906
21:33:05:386,2.8827,1.4192,10.0139,41.7977,-0.0274,-0.2579,0.1597,265.3906
21:33:05:414,3.0324,0.8386,10.9919,41.1777,-0.1603,-0.1772,0.0151,265.0938
21:33:05:430,3.3999,0.1873,11.7964,41.3691,-0.2999,-0.0837,-0.0757,264.9219
21:33:05:447,3.7925,-0.4208,12.8007,39.6882,-0.4197,-0.0211,-0.0989,264.9531
21:33:05:466,4.1361,-0.8841,12.9563,41.6858,-0.4312,0.1099,-0.0752,265.0781
21:33:05:488,4.3959,-1.1019,11.3379,40.2464,-0.2762,0.3275,0.0122,265.2344
21:33:05:514,4.5778,-0.817,9.8391,40.7229,-0.5031,0.1171,-0.028,265.3594
21:33:05:533,4.7861,-0.6422,10.6184,41.5405,-0.7393,0.0012,-0.1678,265.3906
21:33:05:548,4.7047,-0.9678,12.5397,39.7215,-0.6727,0.1765,-0.2912,265.3906
21:33:05:566,4.1349,-1.3892,12.8893,40.9546,-0.4072,0.4428,-0.2808,265.4688
21:33:05:589,4.0176,-1.6729,11.2193,42.0287,-0.2613,0.4574,-0.1508,265.7344
21:33:05:612,4.6963,-1.4826,9.632,41.9852,-0.3563,0.2026,-0.0818,266.1406
21:33:05:630,5.2698,-0.6422,9.6392,40.3038,-0.4978,0.0095,-0.219,266.4688
21:33:05:646,4.7334,0.0054,10.4352,41.1688,-0.4277,0.0662,-0.4776,266.6406
21:33:05:666,3.1317,0.0497,9.9373,40.5087,-0.2474,0.361,-0.5708,266.7656
21:33:05:685,1.6785,0.1299,8.2721,41.3845,-0.119,0.6478,-0.4323,267.0469
21:33:05:705,1.062,0.5285,6.6189,40.5257,-0.0405,0.6673,-0.2411,267.625
21:33:05:730,1.2104,1.1594,5.6528,40.5186,-0.0125,0.4409,-0.133,268.2969
21:33:05:748,1.7311,1.6586,5.6085,39.127,0.0173,0.2351,-0.1516,268.75
21:33:05:766,2.1166,1.9662,6.0658,41.7648,0.0842,0.1312,-0.2512,269.0156
21:33:05:786,2.2447,2.1614,6.3555,40.3115,0.1707,0.1179,-0.3956,269.1562
21:33:05:807,2.2171,2.2045,6.1604,41.6181,0.1638,0.0516,-0.5689,269.3125
21:33:05:831,1.8472,2.0991,6.5507,40.7082,0.0748,-0.0369,-0.6909,269.5781
21:33:05:848,1.4713,1.837,7.6592,40.4376,0.0448,-0.063,-0.7263,270.0312
21:33:05:865,1.129,1.7412,8.8419,40.4106,0.1097,-0.0726,-0.7274,270.6562
21:33:05:885,0.8106,1.6179,9.7373,40.0629,0.1907,-0.023,-0.6976,272.2344
21:33:05:907,0.5077,1.3761,10.3539,40.5127,0.2088,0.1261,-0.6014,272.6562
21:33:05:929,0.1713,1.1869,10.5849,40.0452,0.1196,0.2811,-0.4323,273.4688
21:33:05:948,-0.2106,1.0505,11.0158,40.4699,-0.0306,0.2785,-0.1545,274.1719
21:33:05:966,0.1019,0.8853,12.3793,41.8522,-0.078,0.2441,0.1448,274.7656
21:33:05:986,0.9853,0.7691,13.5764,40.9276,0.008,0.2982,0.3475,275.0938
21:33:06:006,2.0112,0.7859,13.4879,39.6293,0.0559,0.32,0.4039,275.0938
21:33:06:030,2.344,1.2013,12.8031,39.6422,-0.0714,0.022,0.3248,274.7812
21:33:06:048,2.441,1.0457,13.7632,40.8062,-0.196,-0.207,0.1967,274.3125
21:33:06:065,2.0651,0.258,15.4691,41.2109,-0.0218,-0.0888,0.1126,273.8594
21:33:06:085,1.0201,-0.7655,15.2943,39.9296,0.387,0.0912,0.1999,273.5938
21:33:06:108,0.3796,-1.2851,13.1311,38.7827,0.6826,0.2018,0.4538,273.4531
21:33:06:129,0.8393,-1.2719,10.2772,38.5795,0.7188,0.0633,0.6577,273.2969
21:33:06:145,1.785,-0.8853,8.1847,40.5124,0.4868,-0.2552,0.6687,272.9219
21:33:06:166,2.0663,-0.246,7.7873,38.3432,0.1742,-0.452,0.5451,272.5938
21:33:06:187,1.2846,-0.0018,8.5067,38.02,0.0543,-0.3405,0.4303,271.7969
21:33:06:212,0.7052,0.0377,7.2414,38.5423,0.0935,-0.047,0.4047,270.75
21:33:06:230,0.5484,0.3035,5.7821,37.1013,0.1353,0.1877,0.4969,270.2188
21:33:06:246,0.8716,0.7572,5.0914,38.7954,0.1055,0.1482,0.6218,269.7812
21:33:06:265,1.372,1.0696,5.338,37.5208,0.02,-0.0992,0.6705,269.25
21:33:06:285,1.7144,1.1091,5.9533,37.6719,-0.0421,-0.374,0.6218,268.625
21:33:06:304,1.7694,0.981,6.6979,38.2934,-0.0746,-0.5583,0.5328,267.8594
21:33:06:330,1.6976,0.9128,7.4964,35.5288,-0.1009,-0.5839,0.4644,267.125
21:33:06:347,1.6473,0.8182,8.2888,36.0382,-0.0961,-0.4795,0.4346,266.5312
21:33:06:365,1.6581,0.8936,8.4756,36.2775,-0.0309,-0.2899,0.4308,266.0156
21:33:06:385,1.852,1.0253,8.0518,34.7393,0.0663,-0.1199,0.4367,265.5469
21:33:06:406,1.9191,1.2396,7.8076,36.2773,0.1033,-0.1003,0.4095,265.1094
21:33:06:430,1.9622,1.3581,8.0027,36.7098,0.065,-0.1602,0.3456,264.6094
21:33:06:446,1.8748,1.2468,8.6169,36.923,-0.024,-0.2789,0.2407,264.125
21:33:06:465,1.8245,0.993,9.4572,35.8912,-0.127,-0.3745,0.1491,263.6875
21:33:06:485,2.0819,0.7895,10.7333,34.8872,-0.2328,-0.5141,0.0865,263.2656
21:33:06:505,2.4985,0.3537,12.4823,36.1985,-0.3273,-0.6491,0.0199,263.1406
21:33:06:531,3.2119,-0.422,14.2588,34.4042,-0.3886,-0.6688,-0.0477,263.0938
21:33:06:546,4.1098,-1.4299,14.5545,33.7613,-0.3819,-0.3974,-0.0848,263.1406
21:33:06:565,4.3767,-1.333,14.0278,33.8652,-0.383,0.0042,-0.0693,263.2812
21:33:06:585,4.7179,-0.9595,14.3007,35.6974,-0.4549,0.2811,-0.0107,263.4375
21:33:06:606,4.603,-1.248,14.5964,33.7317,-0.3888,0.4678,-0.0818,263.5625
21:33:06:630,4.4809,-1.9399,12.6678,33.9497,-0.0309,0.7251,-0.1732,263.625
21:33:06:649,4.4988,-2.2883,9.31,33.237,0.3593,0.8782,-0.1676,263.7344
21:33:06:665,4.913,-2.0943,7.081,34.2401,0.4341,0.5775,-0.1069,263.8281
21:33:06:685,5.0411,-1.4012,7.1612,33.1734,0.1249,-0.0137,-0.0919,263.9844
21:33:06:705,4.755,-0.7248,9.0179,35.3545,-0.3643,-0.3839,-0.1519,264.0625
21:33:06:731,3.917,-0.3334,10.1192,33.6574,-0.6232,-0.1945,-0.2808,264.125
21:33:06:747,2.781,-0.0114,9.0418,33.3704,-0.5289,0.3853,-0.407,264.2656
21:33:06:765,1.8269,0.3621,6.7901,34.0637,-0.2834,0.8614,-0.4147,264.5781
21:33:06:786,1.5108,0.8889,5.1943,33.0932,-0.1031,0.9333,-0.3181,265.2969
21:33:06:806,1.8879,1.3893,4.6437,33.7221,-0.0285,0.6763,-0.2025,265.75
21:33:06:831,2.4925,1.8142,5.0028,33.1507,-0.0072,0.3259,-0.1753,266.0938
21:33:06:847,2.8779,2.1709,5.4924,34.4035,0.0365,0.0385,-0.2762,266.3125
21:33:06:865,2.8384,2.3062,5.9868,33.1815,0.0847,-0.1293,-0.489,266.4844
21:33:06:891,2.3189,2.2045,6.5638,32.8928,-0.0197,-0.0904,-0.8997,267.3594
21:33:06:913,1.6844,1.9722,7.7992,33.6483,-0.0583,-0.064,-0.933,267.3594
21:33:06:931,1.4271,1.7388,9.3531,33.0759,0.029,-0.0491,-0.881,268.2031
21:33:06:947,1.6186,1.8046,10.2485,31.6034,0.1236,-0.0006,-0.8824,269.1875
21:33:06:964,1.3816,1.9794,10.5897,30.7279,0.1284,0.1376,-0.9141,270.2656
21:33:07:034,0.9375,1.8166,10.7645,32.6327,0.0256,0.3802,-0.8834,271.2656
21:33:07:034,0.4706,1.6023,10.8866,30.9331,-0.142,0.5067,-0.7487,272.2188
21:33:07:034,0.2192,1.3725,11.7461,32.5609,-0.2519,0.3959,-0.5181,274.25
21:33:07:049,0.6861,0.6746,13.4292,32.5308,-0.2008,0.2529,-0.2661,275.0469
21:33:07:065,1.4773,0.252,14.5198,32.7124,-0.0711,0.303,-0.0661,275.3906
21:33:07:091,1.931,0.5668,13.9523,31.9269,-0.1356,0.2455,0.0191,276
21:33:07:112,1.9478,0.8984,14.2588,31.962,-0.3215,0.148,0.021,276
21:33:07:131,1.6246,0.5345,16.3154,30.512,-0.082,0.3504,-0.027,276
21:33:07:149,0.637,-0.3849,16.07,30.512,0.6043,0.5003,0.0146,276
21:33:07:166,-0.3758,-1.1714,12.3554,33.1816,1.0773,0.3453,0.2226,275.9688
21:33:07:185,-0.4356,-1.5532,8.5091,32.8965,1.0322,-0.1863,0.4548,276
21:33:07:204,0.1426,-1.5688,6.814,32.7506,0.6006,-0.8529,0.5906,275.9531
21:33:07:226,0.613,-1.1342,7.8292,34.204,0.0884,-1.1328,0.6665,275.6719
21:33:07:247,1.2607,-0.7799,10.0881,33.0401,-0.147,-0.8779,0.6487,275.125
21:33:07:265,1.3864,-0.5608,11.211,32.2782,-0.0186,-0.3157,0.5946,274.4844
21:33:07:285,1.0093,-0.5165,10.0462,32.7902,0.2386,0.2039,0.6633,273.8281
21:33:07:306,0.522,-0.3035,7.731,32.0264,0.4211,0.4614,0.849,273.1562
21:33:07:329,0.4574,0.2723,5.5774,33.1728,0.4725,0.3749,1.0122,272.4844
21:33:07:348,0.9901,0.8146,4.4222,32.5607,0.4394,0.0793,1.0359,271.2656
21:33:07:365,1.615,1.2959,4.1744,34.2612,0.3529,-0.227,0.9331,270.125
21:33:07:386,2.1202,1.5796,4.5994,32.4063,0.2402,-0.4225,0.7544,268.8906
21:33:07:406,2.4901,1.6837,5.3751,33.7412,0.1396,-0.4747,0.5384,267.7812
21:33:07:431,2.4482,1.6311,6.1616,32.4656,0.0455,-0.4403,0.3459,266.8281
21:33:07:448,2.1333,1.4742,7.0558,34.226,-0.0309,-0.3588,0.2292,266.1094
21:33:07:468,1.7539,1.242,8.1069,33.6129,-0.053,-0.2704,0.1888,265.6562
21:33:07:485,1.4474,0.9966,9.2393,33.1521,-0.0064,-0.1322,0.2207,265.375
21:33:07:507,1.5121,1.1438,9.8163,31.6392,0.0719,-0.0004,0.2428,265.1719
21:33:07:529,2.2519,1.4647,9.4836,34.099,0.0471,-0.0736,0.1219,264.9688
21:33:07:546,3.0503,1.6765,9.2381,34.7377,-0.1771,-0.3184,-0.1436,264.7031
21:33:07:565,3.5471,0.0269,12.3638,33.0006,-0.5278,-0.4638,-0.4304,264.4688
21:33:07:590,3.4178,-1.0517,13.9464,32.1891,-0.7824,-0.2118,-0.5756,264.4844
21:33:07:605,3.5902,-1.7962,13.2939,33.087,-0.8187,0.3051,-0.5396,264.8594
21:33:07:626,3.5962,-1.4898,12.3674,34.0683,-0.8392,0.5978,-0.4331,265.2031
21:33:07:647,3.5112,-1.3581,13.2413,33.5839,-0.9633,0.5259,-0.399,266.3125
21:33:07:665,2.8181,-1.916,14.2492,33.1059,-0.9252,0.4899,-0.4664,266.875
21:33:07:685,2.4039,-2.4774,12.7038,33.7628,-0.538,0.6377,-0.4235,267.3906
21:33:07:704,3.0874,-2.4403,9.8559,32.9561,-0.1558,0.6945,-0.1998,267.9375
21:33:07:733,4.4114,-1.6957,8.2134,34.3738,-0.1206,0.3749,0.025,268.5156
21:33:07:745,4.9896,-0.6051,8.9724,31.8528,-0.3896,-0.1714,0.0287,268.875
21:33:07:764,4.4066,-0.179,10.4544,35.9931,-0.6264,-0.4648,-0.22,268.9375
21:33:07:784,2.8001,-0.2628,10.4077,32.8892,-0.5774,-0.2603,-0.5119,268.8906
21:33:07:804,1.2798,-0.0616,8.6157,33.428,-0.3614,0.2665,-0.5873,269
21:33:07:829,0.7244,0.507,6.5076,33.8805,-0.1443,0.6811,-0.4302,269.4688
21:33:07:847,0.9889,1.0876,5.235,34.0524,0.0027,0.6369,-0.248,270.1719
21:33:07:864,1.3241,1.5449,5.1908,32.6401,0.0706,0.2521,-0.1764,270.7656
21:33:07:885,1.5599,1.7089,5.8587,35.1532,0.1204,-0.1098,-0.2118,271.1406
21:33:07:905,1.7359,1.8405,6.0574,35.5244,0.2013,-0.222,-0.3002,271.3594
21:33:07:933,1.615,1.9758,6.1341,33.2752,0.2362,-0.1969,-0.4347,271.6875
21:33:07:950,1.3229,1.8094,7.0726,34.1902,0.1742,-0.194,-0.5841,272.0156
21:33:07:966,0.9111,1.4335,8.654,33.0231,0.106,-0.2291,-0.6901,272.5156
21:33:07:984,0.3341,1.157,10.0079,32.9724,0.1555,-0.2824,-0.7015,273.1719
21:33:08:005,-0.2082,0.8087,11.6096,32.7054,0.3041,-0.4622,-0.6107,273.9219
21:33:08:030,0.2994,0.5034,12.6044,34.2637,0.5454,-0.6688,-0.3724,274.7188
21:33:08:048,1.4283,0.6135,12.3961,32.5341,0.8133,-0.7367,-0.0901,275.4062
21:33:08:065,2.5643,1.0313,11.7748,31.8652,0.8863,-0.6214,0.0966,275.7812
21:33:08:084,3.2826,1.2229,11.6743,32.7499,0.6876,-0.3298,0.1464,275.8438
21:33:08:106,3.1437,1.1582,11.6599,31.8605,0.3726,0.1008,0.074,275.6875
21:33:08:131,2.6385,0.7967,11.618,31.9262,0.0589,0.5011,0.0042,275.4844
21:33:08:146,2.459,0.8015,12.4081,32.6869,-0.2362,0.5975,0.0633,275.4062
21:33:08:164,3.0192,0.7524,14.1139,33.6355,-0.3949,0.3384,0.1999,275.3438
21:33:08:187,2.787,0.5237,15.1949,33.0903,-0.2613,0.0324,0.2018,275.2969
21:33:08:205,1.9107,0.0329,14.2767,33.3827,0.1933,-0.1844,0.1142,275.1562
21:33:08:231,1.6318,-0.343,11.8059,33.8855,0.612,-0.1647,0.1158,274.8281
21:33:08:248,1.6533,-0.2759,9.462,35.7269,0.6786,0.0183,0.1645,274.6875
21:33:08:266,1.5061,-0.0293,8.5091,32.1157,0.4109,0.0308,0.148,274.5312
21:33:08:286,1.3098,0.1359,8.9161,32.705,-0.2368,-0.0859,0.0726,274.2812
21:33:08:306,0.8967,0.1622,9.4321,33.4866,-0.2021,0.0135,0.0947,274.2812
21:33:08:330,0.3604,0.1035,9.0251,32.3851,-0.0019,0.1464,0.2314,273.9688
21:33:08:348,0.0684,0.1191,7.8064,32.3475,0.2128,0.1895,0.4535,273.9062
21:33:08:364,0.1414,0.2436,6.2693,32.9176,0.3241,0.0681,0.6902,273.8125
21:33:08:384,0.5436,0.6351,5.4397,33.5632,0.3308,-0.1391,0.8569,273.5469
21:33:08:406,1.2487,0.993,5.5295,32.548,0.3361,-0.3447,0.8916,273.0156
21:33:08:424,1.7251,1.2037,6.0395,33.3024,0.3782,-0.4699,0.8391,272.2031
21:33:08:444,1.8855,1.1797,6.3064,32.1426,0.3824,-0.5226,0.7693,271.2031
21:33:08:464,1.7634,1.0349,6.7817,33.4647,0.3334,-0.5008,0.7531,269.2656
21:33:08:491,1.9837,0.9954,7.5814,34.1611,0.2772,-0.3892,0.7443,268.8281
21:33:08:504,2.508,1.345,8.2589,33.282,0.2349,-0.2733,0.6415,267.9688
21:33:08:527,2.9809,1.6526,8.8431,33.4139,0.2189,-0.1692,0.4354,267.1562
21:33:08:550,3.1533,1.7532,8.9963,33.8905,0.1675,-0.1128,0.1872,266.3281
21:33:08:565,3.1892,1.4922,8.8766,31.3215,-0.0059,-0.1642,-0.0278,265.9844
21:33:08:584,3.2203,0.8996,9.5338,32.0427,-0.2466,-0.264,-0.1561,265.4844
21:33:08:604,3.1222,0.082,11.3008,32.2459,-0.3875,-0.2568,-0.1636,265.2656
21:33:08:624,3.0647,-0.562,13.106,33.8233,-0.335,-0.0259,-0.0467,265.3125
21:33:08:646,3.6309,-0.9942,13.3993,32.3868,-0.1486,0.3477,0.0916,265.5469
21:33:08:672,4.4737,-0.9978,11.3917,33.7418,-0.1236,0.4164,0.107,265.7969
21:33:08:683,4.9908,-0.4088,9.7589,33.0913,-0.3694,0.0987,-0.0453,265.8906
21:33:08:704,5.1285,-0.0437,11.0434,33.1828,-0.555,-0.1202,-0.3298,265.7812
21:33:08:726,4.603,-0.7296,13.2664,32.2135,-0.3739,0.0388,-0.5346,265.6406
