Time,Acc_X,Acc_Y,Acc_Z,Meg,Gyr_X,Gyr_Y,Gyr_Z,Ore
20:44:19:173,-2.9112,2.6749,8.2865,53.6263,0.0599,-0.2912,0.0119,192.9062
20:44:19:216,-3.0298,3.2591,7.7657,53.8498,0.1542,-1.2899,0.0817,192.9531
20:44:19:233,-3.0369,3.2424,7.3036,56.6101,0.0543,-1.3732,0.0364,192.9531
20:44:19:256,-2.8346,3.4016,7.4557,54.4166,-0.106,-1.5136,-0.0219,203.8594
20:44:19:275,-2.5749,3.1897,8.7258,54.8681,-0.2304,-1.1924,-0.0405,204.1094
20:44:19:293,-2.5569,2.9227,9.2381,55.6616,-0.2866,-0.6667,-0.0147,204.4062
20:44:19:313,-2.9855,3.155,9.474,55.4399,-0.3065,-0.219,0.1038,204.7344
20:44:19:346,-2.8418,3.2986,9.2896,55.0878,-0.3273,0.0247,0.2239,204.9375
20:44:19:355,-2.5593,3.3704,9.1256,54.1465,-0.3553,-0.1154,0.2793,204.9531
20:44:19:373,-2.3055,3.0915,9.2884,54.1546,-0.3366,-0.4086,0.2892,204.5625
20:44:19:405,-2.1056,2.7719,9.7637,54.2199,-0.2424,-0.4656,0.3283,204.2188
20:44:19:417,-1.8207,2.6103,9.8594,54.8611,-0.0855,-0.2555,0.3943,203.9375
20:44:19:431,-1.5142,2.7348,9.4668,54.5127,0.0908,0.046,0.4465,203.625
20:44:19:450,-1.2999,2.9946,8.648,53.4057,0.2293,0.251,0.4639,203.2188
20:44:19:470,-1.1335,3.21,7.9237,52.4866,0.2847,0.1914,0.45,202.7031
20:44:19:490,-1.0785,3.0939,7.7238,54.6413,0.2842,-0.0731,0.4388,202.1719
20:44:19:509,-1.0833,2.9239,8.1069,54.1296,0.3113,-0.1562,0.4649,201.6562
20:44:19:532,-1.0198,3.0041,8.3738,53.9436,0.3558,-0.0097,0.5158,201.2031
20:44:19:552,-0.8019,3.2986,8.2541,55.1856,0.3467,0.0846,0.5342,200.75
20:44:19:569,-0.699,3.4806,7.8974,54.2176,0.2613,0.0774,0.5531,200.2031
20:44:19:590,-0.5542,3.483,7.4844,54.5949,0.0685,0.1275,0.5983,199.6094
20:44:19:609,-0.0873,3.3728,7.2964,54.8619,-0.1888,0.1786,0.5493,199.6094
20:44:19:635,0.6478,3.24,7.3695,54.1264,-0.4493,0.2409,0.3496,199.0156
20:44:19:651,1.1086,3.1873,7.743,53.5974,-0.6442,0.3038,0.0452,198.3125
20:44:19:669,0.9063,3.2519,8.7306,55.6516,-0.6908,0.3839,-0.22,197.625
20:44:19:688,0.1893,3.3321,9.6978,55.4682,-0.5752,0.5168,-0.3511,197.125
20:44:19:708,-0.6774,3.5249,10.3778,54.154,-0.3539,0.8018,-0.3002,196.9531
20:44:19:733,-1.8793,3.8349,10.0881,54.982,-0.1523,0.9906,-0.0216,197.0469
20:44:19:751,-4.0533,4.1845,8.9868,55.7367,-0.0812,0.8252,0.5507,197.2812
20:44:19:767,-3.845,4.0121,8.0422,55.3754,-0.1198,0.6417,1.1502,197.4219
20:44:19:791,-1.3861,3.544,7.901,55.5061,-0.2573,0.381,1.3286,197.2188
20:44:19:806,0.0372,3.5799,8.5666,53.6578,-0.4194,0.1243,1.1779,196.4219
20:44:19:829,0.6082,3.5656,9.1675,55.3635,-0.5281,-0.1314,0.9366,195.0469
20:44:19:850,0.8058,2.7432,9.978,55.4581,-0.5217,-0.369,0.7254,193.4062
20:44:19:868,0.8752,1.9303,10.5598,55.2941,-0.4272,-0.5554,0.6375,191.9688
20:44:19:888,0.8465,1.8022,11.1487,55.8124,-0.2953,-0.7895,0.5994,190.8438
20:44:19:908,1.2882,2.1674,12.0274,54.535,-0.1483,-0.9785,0.4623,190.0625
20:44:19:934,1.8508,2.5923,12.6906,55.2271,-0.0977,-0.9972,0.1368,189.3906
20:44:19:952,1.9753,2.7156,12.4153,55.2416,-0.2186,-0.8241,-0.2512,188.4688
20:44:19:968,1.7299,2.1769,12.0394,53.2573,-0.3875,-0.4467,-0.5077,188.4375
20:44:19:988,1.4762,1.4766,11.3355,55.0947,-0.498,-0.1817,-0.6206,188.6719
20:44:20:008,1.0404,1.1881,10.3048,54.5241,-0.58,-0.215,-0.6432,189.2188
20:44:20:033,0.8058,1.1893,9.6655,55.0817,-0.6914,-0.3277,-0.6083,189.8594
20:44:20:051,0.8692,1.2169,9.3722,54.4727,-0.8056,-0.3855,-0.5822,190.5938
20:44:20:069,0.7172,1.3031,9.2226,54.7914,-0.8722,-0.3165,-0.5553,191.3125
20:44:20:088,0.5197,1.2432,8.8599,54.2171,-0.873,-0.2009,-0.5234,191.9531
20:44:20:108,0.297,1.23,8.4672,53.7372,-0.8139,-0.1817,-0.5069,192.6094
20:44:20:133,0.1737,1.2492,8.5869,54.0848,-0.6935,-0.2001,-0.5002,193.2031
20:44:20:150,0.1677,1.1666,9.0131,53.7717,-0.4898,-0.0225,-0.4813,193.7656
20:44:20:169,0.2802,1.0912,9.0215,54.7033,-0.2397,0.3269,-0.4698,194.2812
20:44:20:191,0.2898,1.2157,8.5546,54.2976,0.0234,0.6132,-0.4613,194.5625
20:44:20:206,0.2323,1.3485,7.7573,53.9566,0.2266,0.642,-0.4656,195.0781
20:44:20:229,0.1725,1.7376,7.0917,54.8796,0.3241,0.4987,-0.4888,195.5781
20:44:20:249,0.3628,2.141,6.9553,53.0516,0.3167,0.2849,-0.5455,196.0312
20:44:20:269,0.6322,2.4619,7.3802,53.501,0.2362,0.1291,-0.6387,196.7656
20:44:20:289,0.7938,2.6677,8.3343,54.1911,0.1649,0.1064,-0.7604,197.3281
20:44:20:309,0.0348,2.4499,9.8846,54.1703,0.1396,0.2337,-0.8986,198
20:44:20:335,-1.1599,2.0919,10.1635,54.2153,0.1451,0.4367,-0.9926,198.7969
20:44:20:350,-2.0673,1.9746,10.5813,52.9838,0.1209,0.6151,-0.9298,199.75
20:44:20:368,-2.2995,1.807,11.0948,53.141,0.0826,0.6678,-0.6976,200.7812
20:44:20:388,-2.193,1.8753,11.8634,53.5094,0.0219,0.5435,-0.4041,201.875
20:44:20:408,-1.9763,2.0728,12.7409,53.5094,-0.057,0.2273,-0.1378,202.7656
20:44:20:433,-1.7273,2.0345,13.9032,53.847,-0.1523,-0.2108,0.0412,203.3125
20:44:20:451,-1.0713,1.3713,15.2033,53.4788,-0.2029,-0.5146,0.124,203.5781
20:44:20:466,-0.8702,0.5166,15.8007,53.7491,-0.1172,-0.5002,0.0876,203.5938
20:44:20:488,-1.3634,-0.0916,14.7077,52.1411,0.1933,-0.2707,0.042,203.5
20:44:20:510,-1.8327,-0.3382,12.3722,51.6879,0.6005,-0.035,0.0916,203.4062
20:44:20:537,-1.75,-0.3083,9.9588,50.7651,0.8386,0.0902,0.1997,203.3906
20:44:20:555,-1.1311,0.1059,8.3284,52.1871,0.7971,0.0473,0.3208,203.3594
20:44:20:572,-0.6511,0.5381,7.7382,52.8915,0.5465,-0.1927,0.3467,203.2188
20:44:20:592,-0.4775,0.75,8.0554,54.2186,0.2708,-0.5639,0.2394,202.9375
20:44:20:607,-0.541,0.6842,8.8479,53.3191,0.0879,-0.815,0.0876,202.625
20:44:20:628,-0.5877,0.4208,9.2513,51.1086,0.0559,-0.7807,-0.0097,202.4688
20:44:20:655,-0.8031,0.3801,8.4098,51.3005,0.1835,-0.4752,-0.0248,202.4844
20:44:20:672,-0.9839,0.5884,6.5842,49.8212,0.3481,-0.0864,0.0271,202.6094
20:44:20:693,-0.9911,0.9319,5.0064,51.5976,0.391,0.1136,0.1081,202.6719
20:44:20:706,-0.9947,1.2384,4.4426,51.343,0.2618,0.054,0.152,202.7344
20:44:20:729,-0.9085,1.2683,4.7622,50.5871,0.0653,-0.1008,0.1637,202.6875
20:44:20:751,-0.8798,1.2336,5.8073,50.6065,-0.0969,-0.292,0.1525,202.5469
20:44:20:769,-1.203,1.2157,6.9541,51.589,-0.1933,-0.3772,0.1571,202.3906
20:44:20:787,-1.343,1.1582,8.0004,51.5656,-0.2003,-0.3714,0.2197,202.2344
20:44:20:808,-1.13,1.2013,8.8766,49.1758,-0.1196,-0.3788,0.3126,202.0938
20:44:20:834,-0.8438,1.3581,9.4919,48.7594,0.0016,-0.3282,0.3714,201.9375
20:44:20:852,-0.7984,1.4216,9.5925,48.4716,0.0967,-0.145,0.3704,201.5156
20:44:20:867,-0.7433,1.6358,8.6073,49.2561,0.1795,0.0558,0.3318,201.1406
20:44:20:893,-0.6715,2.1626,7.8004,49.7843,0.1143,0.1027,0.2465,200.7656
20:44:20:906,-0.6978,2.1626,8.6683,47.6934,-0.1675,-0.0981,0.0812,200.375
20:44:20:928,-0.6296,1.4443,10.9296,48.665,-0.5257,-0.3687,-0.1125,200.0938
20:44:20:949,-0.7385,0.5656,13.3155,47.7626,-0.7822,-0.4299,-0.2251,200
20:44:20:968,-0.4296,-0.3118,14.989,47.915,-0.8639,-0.2299,-0.1852,200.1562
20:44:20:988,0.6777,-0.4579,14.5114,46.044,-0.7436,0.1453,0.0178,200.4219
20:44:21:010,1.5994,0.0844,13.4448,47.915,-0.6349,0.1927,0.1717,200.625
20:44:21:035,1.6976,0.2939,13.5717,47.4894,-0.6368,0.096,0.0455,200.5469
20:44:21:053,1.1242,-0.1969,14.3988,46.8393,-0.4248,0.2196,0.0327,200.2656
20:44:21:070,0.9303,-0.8864,14.3342,45.6537,-0.0075,0.4889,0.1824,200.0156
20:44:21:088,1.7144,-1.1378,12.5314,46.0609,0.387,0.5813,0.3773,199.9219
20:44:21:108,3.3867,-0.8697,9.9097,45.9088,0.5073,0.2785,0.3728,199.8438
20:44:21:166,4.4988,-0.1083,8.0985,43.2317,0.3084,-0.2206,0.0745,199.5938
20:44:21:166,4.3372,0.6051,7.8782,45.0032,-0.0245,-0.513,-0.3575,199.1406
20:44:21:182,3.5531,0.6279,8.721,44.8807,-0.2455,-0.3394,-0.7559,198.7031
20:44:21:195,2.2315,0.234,9.0813,45.2512,-0.2794,0.124,-0.9665,198.7031
20:44:21:210,0.9901,0.1071,8.0949,43.3917,-0.2578,0.5142,-0.9652,199.1562
20:44:21:226,0.121,0.3873,6.6333,43.6338,-0.3025,0.5685,-0.8709,201.0781
20:44:21:247,-0.3291,0.8206,6.0922,43.4555,-0.3332,0.4012,-0.7713,202.1094
20:44:21:270,-0.5063,0.9679,6.3783,43.6011,-0.236,0.1962,-0.6728,202.5938
20:44:21:287,-0.5434,1.0708,6.6835,43.9731,-0.0469,0.063,-0.5585,203.4219
20:44:21:310,-0.4608,1.1414,6.9098,42.7097,0.155,-0.0233,-0.4416,204.2031
20:44:21:338,-0.2716,1.3988,6.7673,42.3432,0.2682,-0.0789,-0.3748,204.8906
20:44:21:355,-0.0107,1.8202,6.8739,42.781,0.274,-0.1492,-0.411,205.4375
20:44:21:371,0.1234,1.904,7.6759,41.8881,0.2655,-0.1436,-0.5034,205.9062
20:44:21:387,0.048,1.6658,8.4074,41.4185,0.2296,-0.039,-0.5673,206.1406
20:44:21:407,-0.4081,1.5401,9.1292,40.1834,0.1968,0.1853,-0.5572,206.6406
20:44:21:427,-0.6691,1.5161,9.5183,40.2912,0.1917,0.4398,-0.5127,207.2188
20:44:21:450,-0.6607,1.6299,9.3483,39.4135,0.142,0.6263,-0.4771,207.9062
20:44:21:468,-0.7481,1.819,9.1424,40.5741,0.0056,0.5933,-0.448,208.5469
20:44:21:487,-1.3167,1.9818,9.7733,39.8184,-0.1507,0.3712,-0.4075,209.1094
20:44:21:507,-2.2229,1.7113,11.4456,38.9795,-0.1686,0.1216,-0.2818,209.5938
20:44:21:530,-2.5856,1.1187,13.0533,38.6179,-0.0197,0.0603,-0.081,210.2656
20:44:21:551,-2.4707,0.9691,12.8893,38.8187,-0.0109,-0.0097,0.0801,210.6094
20:44:21:569,-2.2947,1.5365,12.6499,39.6729,-0.2985,-0.3354,0.0947,210.8125
20:44:21:588,-2.3366,1.0804,15.0776,38.665,-0.4037,-0.4534,0.0399,210.7969
20:44:21:611,-3.0082,-0.2089,17.3844,38.8014,-0.0389,-0.1804,0.1917,210.6562
20:44:21:634,-2.9879,-1.1558,16.6925,39.0911,0.4938,0.3224,0.5105,210.5938
20:44:21:651,-2.3534,-1.1642,13.1395,39.5657,0.7345,0.5006,0.7555,210.5
20:44:21:667,-1.3371,-0.7799,9.7864,40.1174,0.6293,0.1887,0.8162,210.125
20:44:21:688,-0.6332,-0.3801,8.2074,40.0474,0.3284,-0.3354,0.7121,209.4531
20:44:21:708,-1.0809,0.0269,9.5674,39.0531,0.0647,-0.6611,0.6061,208.5625
20:44:21:733,-0.9612,-0.0174,9.7733,39.5078,0.0328,-0.651,0.6021,207.75
20:44:21:751,-0.6786,0.0748,8.8096,40.1619,0.2162,-0.4499,0.6756,207.1094
20:44:21:768,-0.371,0.4028,6.9673,39.6702,0.4442,-0.1687,0.7906,206.5
20:44:21:787,0.0001,0.8541,5.3703,41.1163,0.5542,0.0193,0.8934,205.8438
20:44:21:807,0.3161,1.1917,4.3683,39.7133,0.542,0.0249,0.9187,205.4844
20:44:21:827,0.534,1.3402,4.1852,41.769,0.4716,-0.1354,0.8673,204.2031
20:44:21:851,0.71,1.3952,4.4402,42.9592,0.3886,-0.3128,0.789,203.1875
20:44:21:867,0.807,1.5066,4.8915,40.2304,0.3095,-0.427,0.7137,202.2031
20:44:21:887,0.6705,1.5963,5.6804,41.684,0.2149,-0.5298,0.6263,201.375
20:44:21:909,0.5364,1.6358,6.8044,42.5388,0.1177,-0.6726,0.539,200.5938
20:44:21:935,0.6166,1.5413,8.2769,42.4139,0.0578,-0.818,0.4665,199.9062
20:44:21:952,0.8094,1.4766,9.6787,42.9474,0.0506,-0.8811,0.4157,199.3438
20:44:21:969,0.9171,1.5317,10.2617,42.0361,0.0945,-0.7327,0.3403,198.9219
20:44:21:988,0.9243,1.7053,10.2605,42.8794,0.0607,-0.4456,0.2194,198.5469
20:44:22:007,1.044,1.7376,10.2868,43.0627,-0.1044,-0.1961,0.0452,198.2344
20:44:22:027,1.1026,1.339,11.1224,42.8949,-0.3587,-0.1237,-0.195,198.0312
20:44:22:051,0.7507,0.6028,12.3159,44.0742,-0.5926,-0.1082,-0.4232,197.9062
20:44:22:068,0.7076,-0.1622,12.8534,46.4296,-0.706,0.0092,-0.5338,198.0156
20:44:22:087,1.1493,-0.6039,12.2572,45.5695,-0.7076,0.2135,-0.5125,198.6406
20:44:22:111,0.971,-0.3035,11.9053,44.38,-0.7731,0.2076,-0.5015,199.25
20:44:22:136,0.5556,-0.3202,13.5262,43.0573,-0.9854,-0.0401,-0.5604,199.7969
20:44:22:153,-0.456,-1.0169,15.7959,44.9593,-1.1239,-0.0552,-0.6547,200.3125
20:44:22:171,-1.2461,-1.9626,15.8773,44.9436,-0.8924,0.4164,-0.6009,200.9375
20:44:22:188,-0.4237,-2.2643,12.9755,45.1262,-0.4117,1.0425,-0.2738,201.6719
20:44:22:207,1.1924,-1.6346,9.9253,44.151,-0.0969,1.2399,0.1187,202.2969
20:44:22:226,2.3919,-0.5573,9.0119,44.4401,-0.1217,0.8082,0.307,202.5
20:44:22:248,2.1405,0.1897,9.9791,45.6588,-0.2557,0.1395,0.2021,202.25
20:44:22:271,1.3277,0.1742,10.2521,47.8485,-0.1811,-0.2267,-0.0224,201.8281
20:44:22:287,0.6849,0.1095,8.6743,47.1105,0.0629,-0.1295,-0.1521,201.5938
20:44:22:308,0.303,0.3322,6.656,46.3744,0.1899,0.1927,-0.1351,201.625
20:44:22:334,0.1665,0.7943,5.2805,46.1971,0.1364,0.4103,-0.0395,201.8125
20:44:22:350,0.1186,1.2456,4.9813,47.5364,0.0112,0.3597,0.0322,201.8906
20:44:22:366,0.1426,1.4563,5.3919,47.8884,-0.0591,0.1634,0.0639,201.9531
20:44:22:387,0.2359,1.5712,5.6157,47.8574,-0.0112,0.0063,0.0833,201.9531
20:44:22:409,0.4347,1.7783,5.4697,48.2477,0.146,-0.1322,0.054,201.8125
20:44:22:433,0.6753,2.0417,5.4242,47.988,0.0943,-0.2667,-0.0496,201.7344
20:44:22:451,0.8932,2.3433,6.0203,47.822,-0.024,-0.4259,-0.227,201.6406
20:44:22:468,0.9243,2.3792,7.3048,47.822,-0.1292,-0.4483,-0.4368,201.5938
20:44:22:486,0.2719,1.9938,8.9149,48.2945,-0.167,-0.2273,-0.5615,201.6719
20:44:22:506,-0.7517,1.2647,10.2114,48.9314,-0.1366,0.1853,-0.4693,201.9688
20:44:22:528,-1.1922,0.58,10.8638,48.3912,-0.1236,0.6976,-0.1995,202.5
20:44:22:552,-1.0797,0.9152,10.6974,48.9895,-0.2016,1.0002,0.0271,203.1094
20:44:22:568,-0.4476,1.8394,10.8961,48.6924,-0.3001,0.8311,-0.0328,203.6406
20:44:22:587,0.0695,2.1243,11.9843,49.7259,-0.3662,0.5267,-0.2576,203.7969
20:44:22:610,-0.1435,1.5377,13.8302,48.7646,-0.3481,0.4724,-0.3404,203.6875
20:44:22:625,-0.5925,0.7955,14.898,50.1411,-0.2264,0.7411,-0.2802,203.6562
20:44:22:646,-1.4663,0.7751,14.0469,51.3062,-0.2392,0.9528,-0.0757,204.2031
20:44:22:668,-1.8195,1.6454,13.191,49.5412,-0.3523,0.8188,-0.0051,204.3594
20:44:22:690,-1.4735,0.8266,14.0648,49.51,-0.1137,0.5956,-0.1383,204.4844
20:44:22:710,-2.5653,-1.1199,13.6387,51.0461,0.4416,0.4678,0.0191,204.3906
20:44:22:725,-3.3709,-1.965,10.8387,49.2264,0.7401,0.1775,0.4737,204.4219
20:44:22:749,-2.2241,-1.6789,8.6791,52.9816,0.6336,-0.4616,0.7619,204.5312
20:44:22:768,0.0899,-1.139,8.8563,51.6,0.3108,-1.0862,0.6245,204.3281
20:44:22:787,1.202,-1.1151,10.2018,51.3251,-0.0136,-1.4057,0.2332,203.6719
20:44:22:807,0.5484,-1.2851,12.025,51.0936,-0.1417,-1.1533,-0.0304,203.2969
20:44:22:831,-0.3064,-1.3713,12.5816,49.5563,-0.0325,-0.5162,-0.0581,202.7344
20:44:22:851,-0.9468,-1.382,11.7533,50.8341,0.2258,0.1453,0.0766,202.5781
20:44:22:869,-1.2999,-1.1965,9.5027,49.7518,0.4618,0.5815,0.3259,202.6875
20:44:22:887,-1.2377,-0.8098,7.1061,50.0964,0.6035,0.6548,0.6149,202.7812
20:44:22:907,-0.7313,-0.4256,5.3164,49.0413,0.6948,0.4193,0.8191,202.7031
20:44:22:929,-0.1208,0.0485,4.0176,50.5033,0.7127,0.0119,0.8998,202.3281
20:44:22:954,0.3317,0.4352,3.3616,49.416,0.6389,-0.4129,0.8894,201.2344
20:44:22:969,0.6071,0.8661,3.3843,51.3509,0.4834,-0.765,0.801,200.2656
20:44:22:987,0.7375,1.1594,3.9649,48.4329,0.261,-0.9892,0.6564,199.3281
20:44:23:006,0.8465,1.2743,5.186,50.6211,0.032,-1.0566,0.4937,198.5156
20:44:23:027,0.8752,1.3545,6.8679,48.1985,-0.1108,-0.9423,0.3323,197.8281
20:44:23:049,0.5053,1.3042,8.5331,51.5439,-0.135,-0.6837,0.2151,197.3125
20:44:23:065,-0.0214,1.2803,9.3411,51.349,-0.1129,-0.3913,0.1581,196.9688
20:44:23:086,-0.6056,1.1283,9.8056,52.3925,-0.1784,-0.1442,0.1592,196.7812
20:44:23:107,0.2371,1.3845,11.3474,51.3431,-0.347,0.0673,0.1805,196.6406
20:44:23:127,0.6801,1.497,13.4531,50.231,-0.6256,-0.08,-0.0315,196.5
20:44:23:152,0.0707,0.3837,16.4806,51.5173,-0.8157,-0.2933,-0.4121,196.2969
20:44:23:167,-0.3231,-1.0852,16.7954,50.6564,-0.6573,0.0215,-0.6091,196.1406
20:44:23:243,-0.1423,-1.3306,13.829,52.0863,-0.347,0.662,-0.4893,196.4062
20:44:23:243,-0.4536,-0.003,12.0932,50.7963,-0.3313,0.7906,-0.2592,197
20:44:23:244,-0.6104,0.3921,14.8274,51.6129,-0.6216,0.2779,-0.1737,197.3281
20:44:23:257,0.0504,-1.1139,17.2874,52.2389,-0.5537,0.0044,-0.1548,198.0312
20:44:23:268,0.6478,-2.1147,15.6546,51.6074,0.09,0.2761,-0.0147,198.0938
20:44:23:290,2.3093,-2.0093,11.8981,51.8399,0.7928,0.5938,0.3475,198.3125
20:44:23:305,3.8608,-1.0971,9.0909,51.5781,1.1159,0.4084,0.6322,198.3594
20:44:23:327,4.1181,-0.2436,8.4792,50.3259,1.0432,-0.194,0.58,198.1719
20:44:23:351,3.5399,0.1251,8.7426,49.6034,0.8701,-0.6558,0.3395,197.6094
20:44:23:368,2.9414,0.252,8.2122,50.5696,0.8349,-0.6502,0.132,196.9375
20:44:23:387,2.5918,0.5345,6.4788,48.9625,0.8959,-0.2845,-0.0065,196.5156
20:44:23:406,2.283,1.0241,4.3133,51.0011,0.8677,0.1698,-0.1116,196.3906
20:44:23:426,1.9789,1.5568,2.8768,49.1602,0.6466,0.4193,-0.228,196.4219
20:44:23:452,1.7132,1.8741,2.4374,49.1149,0.315,0.4199,-0.3575,196.5312
20:44:23:468,1.4761,2.1362,2.8528,49.3153,0.0077,0.254,-0.4832,196.7188
20:44:23:486,1.3624,2.3637,3.7219,47.7538,-0.192,-0.0022,-0.5942,196.9844
20:44:23:506,1.1649,2.5014,4.6724,50.7495,-0.2788,-0.2424,-0.7103,197.6875
20:44:23:526,0.7734,2.6043,5.933,48.2173,-0.3212,-0.464,-0.8318,198.3594
20:44:23:546,0.4682,2.6618,7.6292,48.1475,-0.3467,-0.6321,-0.9154,199.1562
20:44:23:567,0.0253,2.4391,9.4034,48.0398,-0.3161,-0.7144,-0.9734,200.1719
20:44:23:588,-1.1743,2.1578,10.8578,47.3692,-0.2312,-0.6148,-1.0033,201.2812
20:44:23:606,-1.7477,1.9758,12.0645,47.1269,-0.1555,-0.3301,-0.888,202.4219
20:44:23:626,-1.4508,2.1925,12.4751,46.6127,-0.0573,0.0484,-0.6568,203.6562
20:44:23:651,-1.0498,2.5768,12.0058,45.8402,0.0735,0.348,-0.4765,204.7031
20:44:23:668,-1.1838,2.572,11.3905,48.1352,0.1606,0.483,-0.4176,205.4531
20:44:23:688,-1.5789,2.238,11.2469,47.9123,0.1627,0.5032,-0.3772,205.9219
20:44:23:711,-1.6136,1.9722,11.7808,47.2636,0.077,0.4904,-0.1953,206.3438
20:44:23:726,-0.93,1.904,12.438,46.076,-0.0575,0.5546,0.0854,206.7188
20:44:23:746,-0.2776,2.3673,12.693,46.2889,-0.1571,0.5805,0.3278,206.8594
20:44:23:769,0.2719,2.7994,13.9727,45.1734,-0.2708,0.3048,0.4258,206.8281
20:44:23:786,-0.2262,1.6634,15.9347,43.1302,-0.3398,0.0209,0.2841,206.4844
20:44:23:808,-2.0086,-0.3274,16.1885,45.0702,-0.0991,0.0963,0.0945,205.7031
20:44:23:828,-2.8155,-1.424,13.7859,44.615,0.6551,0.7251,0.7656,205.3438
20:44:23:852,-2.0134,-1.3773,10.7824,43.9606,0.6621,0.658,1.1083,205.2188
20:44:23:868,-1.0366,-0.6015,8.6408,42.7627,0.4456,0.3445,1.176,205.2188
20:44:23:886,-1.1431,0.1945,7.9991,41.7423,0.2032,-0.0385,1.1435,204.8594
20:44:23:906,-1.6579,0.4232,8.654,42.2895,0.1539,-0.2531,1.2247,203.9688
20:44:23:926,-1.3813,0.337,9.0777,41.4107,0.3063,-0.186,1.4149,201.3125
20:44:23:954,-0.6439,0.6051,8.2134,40.6043,0.4749,0.0114,1.576,200.0938
20:44:23:971,0.1318,1.1989,6.6692,41.2031,0.5396,0.2036,1.6175,198.75
20:44:23:986,0.8537,1.6873,5.2913,41.3396,0.5164,0.2622,1.5512,197.1875
20:44:24:005,1.4414,2.0943,4.1816,41.0084,0.4336,0.1674,1.385,195.5
20:44:24:028,1.7623,2.4989,3.5651,39.2434,0.3095,-0.0712,1.1616,193.6562
20:44:24:046,1.8891,2.7527,3.5064,37.859,0.1707,-0.4017,0.9033,191.8594
20:44:24:071,1.6844,2.9239,3.935,41.1138,0.0152,-0.7652,0.6508,189.6562
20:44:24:087,1.2918,2.9706,4.9597,40.2938,-0.1489,-1.0973,0.4426,188.5312
20:44:24:106,0.9758,2.8665,6.5171,38.1906,-0.2983,-1.2763,0.2817,187.7812
20:44:24:125,0.6884,2.5241,8.7761,39.4377,-0.3649,-1.1317,0.197,187.3594
20:44:24:151,0.3772,2.1997,11.023,40.4643,-0.2698,-0.6723,0.2002,187.2188
20:44:24:168,0.2599,2.2679,12.013,39.1906,-0.0783,-0.2435,0.1999,187.2031
20:44:24:189,0.5256,2.7491,11.5162,38.0743,0.0013,-0.1018,0.0969,187.1875
20:44:24:206,0.9159,2.9946,11.2014,39.573,-0.0541,-0.2281,-0.1212,187.125
20:44:24:225,1.1182,2.6977,11.606,37.5098,-0.1774,-0.3279,-0.3623,186.9531
20:44:24:251,0.8213,1.9591,12.4943,37.3636,-0.2951,-0.1911,-0.4813,186.8594
20:44:24:272,0.4861,1.3629,13.3669,37.5689,-0.2834,0.1341,-0.4509,187.0469
20:44:24:289,1.4139,0.9487,12.7732,37.2407,-0.2445,0.3829,-0.4957,187.5
20:44:24:306,2.0795,0.9762,10.8854,37.4751,-0.4165,0.349,-0.6643,188.0938
20:44:24:326,1.4594,1.3916,10.2042,36.7423,-0.6842,0.1392,-0.836,188.5938
20:44:24:353,0.7986,1.005,11.5282,37.2183,-0.7039,0.1504,-0.9239,189.375
20:44:24:370,0.3006,0.0808,12.4428,36.4801,-0.4338,0.4505,-0.8355,190.2031
20:44:24:390,0.1366,-0.6159,11.1188,36.1076,-0.1712,0.6606,-0.583,191.2031
20:44:24:406,0.558,-0.7727,8.8491,37.1684,-0.1585,0.5088,-0.2768,192.1406
20:44:24:426,1.4654,-0.507,7.2857,36.7752,-0.4187,0.0369,-0.0714,192.875
20:44:24:451,2.2962,0.1957,7.3982,35.795,-0.7862,-0.5383,-0.0003,193.25
20:44:24:468,2.7906,0.7237,9.4524,36.6715,-0.9207,-0.8675,-0.0576,193.375
20:44:24:487,2.6266,0.8996,11.2541,36.1883,-0.7489,-0.7271,-0.15,193.4219
20:44:24:510,1.2882,0.9355,10.1144,37.1202,-0.4658,-0.2757,-0.1559,193.5156
20:44:24:525,0.8118,1.3018,8.1452,36.1347,-0.237,0.2406,-0.0523,193.75
20:44:24:549,0.7447,1.7089,6.6512,36.1347,-0.1459,0.5317,0.082,194
20:44:24:570,1.0751,1.9579,6.0802,36.1917,-0.1207,0.5112,0.1651,194.125
20:44:24:586,1.5085,2.1291,5.9018,36.6756,-0.0549,0.3179,0.1805,194.0469
20:44:24:606,1.8832,2.3517,5.5678,35.1273,0.0615,0.0798,0.1405,193.8438
20:44:24:626,2.1082,2.6606,5.4816,36.4443,0.1348,-0.2137,0.0276,193.5938
20:44:24:652,2.1944,2.8126,6.0455,37.4962,0.0975,-0.5058,-0.1668,193.2969
20:44:24:670,2.1322,2.6055,7.2534,35.1755,-0.049,-0.6768,-0.427,193.2969
20:44:24:688,1.5911,2.1434,8.8335,35.3263,-0.2373,-0.5631,-0.6829,193.5469
20:44:24:705,0.7878,1.7723,10.373,35.5365,-0.3926,-0.1564,-0.8304,194.1094
20:44:24:724,0.3161,1.4934,11.1882,36.9679,-0.4426,0.4438,-0.8336,194.5156
20:44:24:746,-0.0945,1.4467,10.9859,35.6875,-0.4125,1.0495,-0.7641,195.3906
20:44:24:769,-0.5685,1.6011,10.871,36.8001,-0.4461,1.3789,-0.6824,196.3594
20:44:24:788,-0.6415,1.5712,11.5653,37.5954,-0.5017,1.2822,-0.6235,197.1875
20:44:24:804,-0.3399,0.902,13.3418,36.5853,-0.4993,0.8732,-0.603,197.8438
20:44:24:825,-0.3387,0.3238,13.7943,34.7527,-0.3388,0.6257,-0.5551,198.4375
20:44:24:845,-0.8522,0.9355,12.8534,37.3416,-0.1622,0.5722,-0.4272,199.0156
20:44:24:868,-0.7648,1.6203,13.4663,36.4502,-0.2314,0.4404,-0.2264,199.5938
20:44:24:885,-0.8019,0.926,14.5928,36.4786,-0.2762,0.3634,-0.2323,200.0781
20:44:24:905,-1.5741,-0.313,12.8582,36.953,0.0445,0.5104,-0.3401,200.4062
20:44:24:926,-1.5334,-0.811,9.893,38.6534,0.3694,0.5959,-0.2331,200.5625
20:44:24:946,-0.8427,-1.1295,8.6959,37.0138,0.3001,0.3488,-0.0952,201.0312
20:44:24:970,-0.1304,-1.8801,9.6033,36.5434,-0.0274,-0.2273,-0.1159,201.2969
20:44:24:986,-0.5757,-2.4786,11.6862,37.0707,-0.3124,-0.8505,-0.2086,201.4219
20:44:25:005,-1.8051,-2.4977,13.1814,37.01,-0.3199,-1.0989,-0.1583,201.5469
20:44:25:026,-2.4719,-2.2128,12.699,37.7263,0.0163,-0.9591,0.1358,201.8281
20:44:25:049,-2.1355,-1.6466,10.3742,38.1129,0.444,-0.5674,0.5776,202.0469
20:44:25:069,-1.264,-0.7979,7.98,37.5451,0.6764,-0.1543,1.0226,201.9688
20:44:25:086,0.0935,0.0377,6.0946,38.3148,0.7193,0.1059,1.3515,201.375
20:44:25:109,1.3205,0.7895,4.5659,38.0203,0.7201,0.0753,1.4775,200.2656
20:44:25:124,2.1765,1.333,4.2666,39.1268,0.7151,-0.2848,1.3997,198.75
20:44:25:146,2.5631,1.734,4.834,38.4283,0.7433,-0.7186,1.192,197.1719
20:44:25:168,2.6062,1.8777,4.7981,37.9338,0.8282,-0.9615,0.9107,197.1719
20:44:25:189,1.7084,1.7592,4.3707,37.509,0.7734,-0.9636,0.5411,194.3906
20:44:25:206,0.965,1.5125,4.5826,36.6751,-0.0232,-0.5735,0.1696,193.9531
20:44:25:226,0.801,1.4898,5.8324,37.682,-0.4,-0.468,0.1259,193.9531
20:44:25:253,0.7974,1.6598,7.6903,37.5508,-0.5478,-0.422,0.0524,193.0938
20:44:25:336,0.5939,1.7197,9.6535,37.6558,-0.461,-0.3543,-0.0496,192.8906
20:44:25:336,0.4694,1.6706,11.1834,36.5148,-0.2421,-0.267,-0.1726,192.7188
20:44:25:337,0.4969,1.5987,11.8634,38.2985,-0.085,-0.3911,-0.329,192.7188
20:44:25:337,0.443,1.0648,13.0054,37.3929,-0.0589,-0.6731,-0.4459,192.8125
20:44:25:353,0.1438,0.3406,15.0034,38.0395,-0.0125,-0.5381,-0.407,193.0469
20:44:25:371,0.285,-0.1682,16.2939,38.2567,0.1779,0.0212,-0.2943,193.4688
20:44:25:386,1.4809,-0.41,14.7185,38.3918,0.2282,0.5216,-0.3292,194.0625
20:44:25:404,2.1489,0.6015,12.5409,37.5567,-0.0437,0.638,-0.5303,194.5781
20:44:25:426,2.4266,1.6538,12.948,36.043,-0.2314,0.5365,-0.8922,195.2031
20:44:25:452,2.2207,1.072,14.7999,38.8069,-0.0186,0.6138,-1.2302,195.2031
20:44:25:471,1.7862,-0.5058,15.1674,37.136,0.3681,1.013,-1.2193,195.7031
20:44:25:489,1.8724,-1.3497,12.8187,37.7449,0.6016,1.2756,-0.9319,196.6562
20:44:25:504,2.5452,-1.0972,9.638,37.7773,0.5316,0.9999,-0.6717,198.6562
20:44:25:524,3.3771,-0.3561,7.7585,38.1138,0.2559,0.4502,-0.5972,199.7188
20:44:25:549,3.5399,0.2879,7.391,37.2258,-0.0293,0.0143,-0.6509,200.4688
20:44:25:567,2.8744,0.7308,7.6843,38.7722,-0.1872,-0.0622,-0.6557,201.0781
20:44:25:585,2.2519,0.7967,7.634,36.8378,-0.1734,0.1493,-0.5876,201.7656
20:44:25:605,1.4151,0.7811,6.5518,39.8105,-0.1023,0.364,-0.4187,202.4844
20:44:25:625,0.8524,0.8936,5.1058,38.7808,-0.0455,0.3725,-0.1873,203.2031
20:44:25:646,0.631,1.1007,3.8404,37.754,-0.0352,0.1466,0.0215,203.75
20:44:25:670,0.7555,1.3988,3.3915,38.9092,-0.0506,-0.1958,0.144,204.0156
20:44:25:685,1.1996,1.7113,3.7722,37.8528,-0.0637,-0.5058,0.1488,204.0781
20:44:25:705,1.8329,2.1422,4.5252,38.9193,-0.1246,-0.68,0.0234,204.0312
20:44:25:725,2.2219,2.7994,5.5391,39.1654,-0.2506,-0.6712,-0.2387,203.8906
20:44:25:745,2.3847,3.0987,6.8763,38.1097,-0.3641,-0.5359,-0.6142,203.7812
20:44:25:769,1.7132,2.9251,7.9153,39.0712,-0.4956,-0.35,-0.9604,203.8438
20:44:25:786,0.54,2.736,8.9377,39.2619,-0.6884,-0.1596,-1.1546,204.1875
20:44:25:804,-0.2968,2.548,10.5202,38.58,-0.8235,0.0409,-1.2398,205.4219
20:44:25:827,-0.5936,2.3996,12.1902,38.9967,-0.7886,0.2108,-1.2715,206.6562
20:44:25:843,-0.8139,2.5169,13.2245,39.4078,-0.6525,0.3096,-1.2384,208.0156
20:44:25:865,-1.4604,2.6665,13.8422,39.982,-0.47,0.2998,-1.0984,209.3438
20:44:25:886,-1.7441,2.6175,14.3617,40.9617,-0.2964,0.1797,-0.9205,210.7344
20:44:25:905,-0.7361,1.6598,15.1482,40.5413,-0.2248,0.0588,-0.7995,212.0156
20:44:25:928,-1.0282,1.0026,16.5429,39.9463,-0.3017,0.0026,-0.7327,213.0781
20:44:25:943,-1.9907,-0.3801,16.793,40.2135,-0.1843,0.1972,-0.7037,214.0312
20:44:25:965,-2.9328,-1.3509,14.1391,40.9511,0.3185,0.4779,-0.5237,214.8906
20:44:25:985,-2.6347,-1.5748,10.9392,42.4836,0.7542,0.5645,-0.0813,215.6719
20:44:26:004,-1.6028,-1.3354,9.4812,42.0075,0.8352,0.2375,0.348,216.375
20:44:26:030,-0.4596,-1.321,9.9636,41.3371,0.6373,-0.2845,0.5813,216.75
20:44:26:050,-0.4931,-0.9547,10.7884,42.8861,0.4272,-0.6542,0.6053,216.625
20:44:26:069,-0.3973,-0.6578,11.0182,43.4346,0.306,-0.6659,0.5997,215.8281
20:44:26:085,0.0073,-0.6674,10.3096,42.2381,0.2868,-0.4089,0.6197,215.2344
20:44:26:104,-0.0801,-0.6087,9.0466,42.1902,0.3372,-0.0888,0.6444,214.6406
20:44:26:124,-0.2082,-0.4555,8.0183,44.7949,0.4021,0.1847,0.7443,214.0156
20:44:26:145,-0.1615,-0.3238,7.0067,41.5204,0.5073,0.3613,0.8958,213.6719
20:44:26:170,-0.0813,-0.2041,5.8025,42.7886,0.657,0.4438,1.0354,212.9062
20:44:26:191,0.1545,0.0018,4.3121,44.5245,0.7944,0.4377,1.1616,211.9688
20:44:26:204,0.5352,0.3454,3.4322,43.1912,0.8011,0.2683,1.25,210.8906
20:44:26:224,1.0643,0.92,3.4214,44.6124,0.6434,-0.0185,1.2636,209.625
20:44:26:244,1.4953,1.2635,4.1756,44.3046,0.4008,-0.3535,1.1597,208.2344
20:44:26:269,1.6581,1.4048,5.3631,45.3442,0.1782,-0.6297,0.9288,206.875
20:44:26:287,1.4474,1.2372,6.5722,45.0573,-0.0059,-0.7077,0.6314,205.5312
20:44:26:305,0.5795,0.8278,7.9668,45.4415,-0.1832,-0.5415,0.3536,203.9844
20:44:26:325,-0.4201,0.592,8.8754,47.2633,-0.3201,-0.1423,0.2167,203.4062
20:44:26:346,-0.675,0.6734,8.8551,47.4106,-0.3731,0.2715,0.2492,203.0938
20:44:26:367,-0.4835,1.0828,8.9173,45.1204,-0.4336,0.2817,0.2735,202.8594
20:44:26:385,-0.1411,1.0768,9.9803,45.6794,-0.5617,-0.0896,0.1581,202.5156
20:44:26:404,-0.14,0.4902,12.4739,48.4068,-0.7531,-0.5165,-0.0757,202.1719
20:44:26:424,-0.2609,-0.6159,14.5724,49.1679,-0.9057,-0.5301,-0.2741,201.9844
20:44:26:445,-0.2776,-1.3964,14.5018,47.8394,-0.9329,-0.0813,-0.301,202.1406
20:44:26:468,-0.6571,-0.9738,14.2073,48.2943,-0.9678,0.3016,-0.1599,202.4844
20:44:26:485,-0.5889,-0.5585,15.1806,48.2078,-0.9899,0.3733,0.0399,202.8125
20:44:26:504,-0.474,-0.9571,16.0101,49.9339,-0.8282,0.3829,0.1616,202.9531
20:44:26:525,0.2096,-1.7807,14.8094,50.7295,-0.4927,0.7099,0.3419,202.8594
20:44:26:545,1.6509,-1.9639,12.7373,48.9867,-0.1902,1.1352,0.6697,202.625
20:44:26:569,3.777,-1.3641,11.0039,50.7029,-0.0083,1.1978,1.0327,202.1562
20:44:26:586,5.4792,-0.4711,10.2748,50.7029,0.0139,0.8303,1.1672,201.7812
20:44:26:605,5.684,0.4651,10.549,49.4629,-0.1167,0.2228,0.5129,200.75
20:44:26:625,4.8675,0.8015,10.464,52.2873,-0.0312,0.5096,0.0923,198.6719
20:44:26:647,3.6189,0.6638,8.8371,52.2873,0.0498,0.8889,-0.146,196.9844
20:44:26:669,2.5224,0.6482,6.7302,50.1519,0.0453,1.0636,-0.186,196.9844
20:44:26:686,2.0065,0.9762,5.1429,52.2729,0.0139,0.871,-0.2046,196.8281
20:44:26:703,1.5276,1.4539,4.3169,50.572,0.0024,0.4196,-0.2717,196.9375
20:44:26:724,1.0021,1.6406,4.445,52.0843,0.0383,-0.0654,-0.3186,197.0625
20:44:26:743,0.9578,1.6083,5.0327,53.0728,0.0884,-0.3807,-0.3785,197.2188
20:44:26:764,0.8848,1.7472,5.7067,52.4866,0.1049,-0.443,-0.464,197.5
20:44:26:785,0.6322,1.8382,6.1712,51.7988,0.0804,-0.4366,-0.5524,197.875
20:44:26:805,0.1821,1.9998,6.7506,51.6393,0.021,-0.406,-0.6113,198.3281
20:44:26:823,-0.2429,2.0572,7.6855,52.4861,-0.0234,-0.3551,-0.6459,198.9062
20:44:26:844,-0.7469,2.0093,9.1352,50.7516,0.0218,-0.2299,-0.6366,199.5781
20:44:26:871,-1.1934,1.8465,10.4364,53.9801,0.1931,-0.0592,-0.5806,201.0469
20:44:26:890,-1.6148,1.6646,10.695,53.4211,0.3683,-0.0651,-0.4967,201.4219
20:44:26:908,-1.9296,1.3653,10.5538,53.189,0.4684,-0.3855,-0.3732,202.1406
20:44:26:924,-2.0098,0.9164,11.2804,54.3959,0.527,-0.8521,-0.2302,202.7656
20:44:26:944,-1.7848,0.3729,13.0641,55.413,0.5883,-0.9229,-0.0744,203.3281
20:44:26:969,-1.3299,0.0748,13.9523,55.2238,0.5744,-0.3956,0.0998,203.7656
20:44:26:988,-0.6667,0.161,12.4572,54.5847,0.2866,0.1621,0.2532,204.0625
20:44:27:005,-0.4548,1.4419,10.6902,55.1907,-0.297,0.091,0.4183,204.1562
20:44:27:024,0.8141,2.5097,12.3757,54.8125,-0.7103,-0.305,0.348,203.9844
20:44:27:045,1.3923,1.8166,16.2472,56.5493,-0.3718,-0.4643,0.1192,203.8125
20:44:27:069,0.5232,0.5848,17.0337,55.0024,0.3941,-0.2401,0.1813,203.3281
20:44:27:086,0.5209,-0.1239,14.2767,56.8058,0.9492,0.1863,0.4194,202.9219
20:44:27:105,1.111,0.4579,10.0917,54.7334,1.0173,0.0707,0.4745,202.7969
20:44:27:124,1.7156,1.3713,7.5419,54.187,0.633,-0.5756,0.2591,202.6406
20:44:27:145,1.8951,1.722,7.9297,54.7498,0.1015,-1.1991,-0.109,202.2031
20:44:27:169,1.5025,1.0361,9.9995,54.4186,-0.2298,-1.0936,-0.3521,201.5625
20:44:27:187,0.637,0.4747,11.3355,55.0199,-0.2149,-0.5005,-0.4046,201.6094
20:44:27:204,-0.2381,0.264,10.7884,54.206,0.0219,0.1067,-0.3181,202.0625
20:44:27:227,-0.966,0.1646,8.8515,54.5482,0.2722,0.4407,-0.0848,202.6094
20:44:27:244,-1.1419,0.1909,6.7853,56.5271,0.453,0.4649,0.2162,203.0625
20:44:27:269,-0.8391,0.3478,5.2147,55.9883,0.555,0.2484,0.4577,203.2656
20:44:27:288,-0.4033,0.6423,4.3276,55.4641,0.575,-0.0464,0.6013,203.1406
20:44:27:304,0.1007,0.9439,3.9757,55.3092,0.4993,-0.3144,0.6455,202.7031
20:44:27:324,0.0612,1.3102,4.5611,54.951,0.3638,-0.554,0.6143,202.125
20:44:27:404,-0.1651,1.0086,5.9689,54.8415,0.2336,-0.871,0.5936,201.4375
20:44:27:404,0.3054,0.507,7.3228,55.7123,0.2197,-1.1493,0.649,200.7812
20:44:27:404,0.5879,0.3909,8.0722,55.3727,0.3089,-1.2728,0.7129,200.25
20:44:27:405,0.6573,0.4926,8.9987,56.7378,0.3412,-1.3495,0.7611,199.9844
20:44:27:431,1.0428,0.5106,10.2126,56.8664,0.2578,-1.3109,0.7781,199.125
20:44:27:442,1.8341,0.5405,11.3762,55.7512,0.086,-1.0233,0.7291,198.4844
20:44:27:465,2.6457,0.6686,11.6335,56.9652,-0.1124,-0.4957,0.6205,197.8438
20:44:27:488,3.3556,1.2839,11.7688,56.079,-0.3691,0.0603,0.4673,197.1562
20:44:27:503,3.9733,1.6849,12.6283,56.6793,-0.6639,0.3916,0.2814,196.5156
20:44:27:528,4.6628,1.503,13.0162,55.7246,-0.8147,0.5887,0.0364,195.9688
20:44:27:543,4.5838,1.564,12.6439,56.4987,-0.8213,0.7134,-0.2832,195.5469
20:44:27:564,3.6704,2.0644,12.6152,55.9594,-0.8727,0.6979,-0.5777,195.3281
20:44:27:599,2.763,1.9363,13.9571,56.193,-0.9792,0.5059,-0.8075,195.4219
20:44:27:604,2.1142,0.7272,15.171,55.2836,-0.8882,0.4577,-0.9817,195.8594
20:44:27:623,1.7239,-0.7141,13.7404,56.9497,-0.4378,0.7637,-0.9729,196.625
20:44:27:644,1.9969,-0.9655,10.6196,56.7607,0.0514,1.0953,-0.7029,197.6719
20:44:27:669,3.1772,-0.3501,8.5558,57.5418,0.2195,0.9333,-0.3308,198.7344
20:44:27:686,3.6273,0.6327,8.9245,56.2502,0.0503,0.2425,-0.2264,199.625
20:44:27:704,3.0779,0.744,10.8602,56.469,-0.2037,-0.4763,-0.4339,200.1875
20:44:27:724,2.2363,0.2149,11.2469,56.4365,-0.2048,-0.5548,-0.6885,200.4219
20:44:27:744,1.4881,-0.2807,9.383,57.0179,0.0146,-0.1239,-0.7988,200.9688
20:44:27:770,0.6801,-0.1419,7.0367,57.6867,0.1878,0.3416,-0.7308,201.8125
20:44:27:786,0.1749,0.2412,5.3559,56.9071,0.2197,0.557,-0.5263,202.6875
20:44:27:804,0.2048,0.6841,4.603,56.1085,0.1859,0.4971,-0.2968,203.5
20:44:27:825,0.5101,1.0481,4.4462,57.0742,0.1595,0.304,-0.1428,204.0312
20:44:27:844,0.9219,1.3198,4.5946,56.5733,0.1579,0.1125,-0.0752,204.3125
20:44:27:870,1.1817,1.5185,4.9968,56.1412,0.159,-0.0542,-0.0922,204.4375
20:44:27:887,1.2367,1.7592,5.496,55.7202,0.1372,-0.1434,-0.1665,204.5156
20:44:27:904,1.2966,2.0931,6.2334,55.7159,0.0727,-0.1602,-0.2576,204.6406
20:44:27:924,1.2271,2.1805,7.312,56.5108,-0.0152,-0.1663,-0.3577,204.8281
20:44:27:944,0.9063,2.3637,8.7258,56.2878,-0.1087,-0.1069,-0.4352,204.9844
20:44:27:970,1.1565,2.4846,9.9744,56.9198,-0.1529,0.0417,-0.4275,205.3438
20:44:27:988,1.2092,2.5002,10.9344,56.4463,-0.1001,0.21,-0.4475,206.0625
20:44:28:005,0.8967,2.5397,10.8411,56.3577,0.0525,0.3855,-0.4794,206.5469
20:44:28:031,1.2116,2.7504,10.2126,55.2345,0.1414,0.3967,-0.358,207.0312
20:44:28:043,1.5935,2.8485,10.1851,55.4357,0.0194,0.1131,-0.3748,207.5312
20:44:28:064,1.3325,2.791,11.2493,54.9736,-0.0764,-0.1998,-0.345,207.5312
20:44:28:089,1.2176,2.2595,13.0701,55.4262,0.0152,-0.2627,-0.1993,207.9531
20:44:28:107,1.1625,1.898,13.6327,55.0793,0.1635,-0.2233,0.054,208.7344
20:44:28:125,1.2008,2.4942,12.9516,52.6562,0.0538,-0.3141,0.209,209.125
20:44:28:142,1.4306,2.4211,13.9679,54.1062,0.0163,-0.1977,0.1722,209.375
20:44:28:164,1.2212,1.3677,14.8442,54.4399,0.3723,0.1442,0.1158,209.3438
20:44:28:186,0.7938,0.5154,12.6415,53.5909,0.6288,0.3821,0.1219,209.1719
20:44:28:202,0.6956,0.3274,9.5255,53.048,0.3838,0.2462,0.1195,208.9844
20:44:28:223,0.807,0.2963,8.6109,53.3263,-0.1891,-0.2105,-0.0184,208.6719
20:44:28:243,-0.043,-0.0916,10.2772,53.8947,-0.6597,-0.5599,-0.0429,208.5312
20:44:28:263,-0.7744,-0.7117,13.0796,52.3853,-0.6972,-0.3684,0.1685,208.5312
20:44:28:285,-0.7421,-0.7907,14.2827,53.1982,-0.4067,0.1352,0.4354,208.6719
20:44:28:304,-0.4799,-0.2556,13.3622,52.7568,-0.1111,0.6415,0.6149,208.6406
20:44:28:323,-0.1471,0.3909,11.7293,50.7319,0.1153,1.1096,0.7075,208.3125
20:44:28:344,0.2204,0.6638,9.9397,51.5754,0.359,1.4167,0.7201,207.6406
20:44:28:371,0.37,0.6183,8.0063,51.7362,0.628,1.4953,0.7291,206.7812
20:44:28:390,0.5233,0.4232,5.8037,51.6164,0.7894,1.3352,0.7672,205.8594
20:44:28:405,0.6585,0.5381,3.9685,52.27,0.7819,0.9834,0.7994,205.375
20:44:28:423,0.9446,0.7703,2.9689,50.2883,0.6767,0.4926,0.7653,204.3906
20:44:28:443,1.2343,1.0026,2.6972,52.8538,0.5342,-0.0784,0.6394,203.3906
20:44:28:463,1.3169,1.2576,3.1329,52.448,0.3691,-0.533,0.4356,202.4531
20:44:28:485,1.2283,1.3018,4.0188,50.8827,0.1838,-0.7615,0.2058,201.5625
20:44:28:504,0.5903,1.1079,5.0914,51.2785,-0.0048,-0.7977,0.058,200.8906
20:44:28:523,-0.2489,0.9798,6.176,51.4163,-0.1694,-0.716,0.0508,200.5156
20:44:28:544,-0.4596,0.8517,7.0127,50.7072,-0.3707,-0.749,0.0873,200.4531
20:44:28:570,-0.1244,0.9774,8.3942,50.0312,-0.6189,-0.9767,0.0753,200.5312
20:44:28:586,0.6059,1.0002,10.8913,49.9952,-0.8647,-1.2446,-0.0587,200.5625
20:44:28:605,0.4766,0.9032,14.7257,50.8817,-0.877,-1.0789,-0.1687,200.5625
20:44:28:623,0.8764,-0.1095,17.4239,50.0132,-0.5918,-0.4057,-0.2022,200.7031
20:44:28:644,1.1493,-0.7416,15.7839,50.0132,-0.5571,0.234,-0.1702,200.9844
20:44:28:670,0.777,-0.1514,13.6219,51.9259,-0.8866,0.406,-0.1207,201.3125
20:44:28:691,0.6825,0.0054,14.5868,51.7535,-1.0506,0.4803,-0.1207,201.5469
20:44:28:703,1.2176,-1.8788,15.4008,52.4325,-0.7348,0.7634,-0.043,201.6406
20:44:28:723,2.9833,-1.8992,12.414,51.1181,-0.2589,1.0487,0.2045,201.7188
20:44:28:742,5.3524,-0.7117,9.8594,51.2884,0.021,0.8708,0.4316,201.7656
20:44:28:763,6.5578,1.1223,9.1136,51.4142,0.0567,0.2473,0.335,201.5938
20:44:28:789,6.0922,2.0464,9.2537,52.2651,0.0562,-0.3804,-0.1407,201.125
20:44:28:803,4.7406,1.5939,8.7916,50.5034,0.1286,-0.598,-0.7684,200.5781
20:44:28:827,3.3652,0.7727,7.567,51.3948,0.1859,-0.3407,-1.2086,200.4375
20:44:28:842,2.0065,0.6243,6.1089,50.8741,0.0914,0.1778,-1.358,201.5312
20:44:28:863,1.1422,0.7883,5.5032,52.8697,-0.119,0.5946,-1.2901,202.2031
20:44:28:886,0.8129,0.8649,5.575,51.6065,-0.2466,0.692,-1.1404,204.5
20:44:28:902,0.6896,0.9176,5.6696,51.3378,-0.1824,0.5845,-0.9881,205.8438
20:44:28:922,0.7986,1.0768,5.4649,51.4585,-0.0144,0.4156,-0.835,206.4844
20:44:28:942,0.9063,1.321,5.3524,51.0469,0.1172,0.2212,-0.721,207.625
20:44:28:963,0.8297,1.4682,5.8348,50.5702,0.1526,-0.0046,-0.6824,208.625
20:44:28:983,0.4981,1.4383,6.923,52.2409,0.1198,-0.2084,-0.6965,209.4375
20:44:29:002,-0.0202,1.3557,8.4529,52.6152,0.0509,-0.2843,-0.7007,210.2344
20:44:29:023,-0.6451,1.4754,9.6631,51.1445,-0.0048,-0.1556,-0.6544,211.0312
20:44:29:043,-0.8367,1.7292,10.361,52.7598,-0.0237,0.0468,-0.5703,211.875
20:44:29:062,-0.8474,1.8106,10.944,52.3552,-0.0573,0.2196,-0.5258,212.6406
20:44:29:083,-0.9815,1.7472,11.6204,52.2723,-0.1108,0.3341,-0.4994,213.3438
20:44:29:102,-1.1264,1.6466,12.2824,51.6789,-0.1337,0.4039,-0.4403,213.9531
20:44:29:125,-0.6763,1.4395,12.6176,51.3862,-0.0985,0.4542,-0.3415,214.75
20:44:29:143,0.3999,1.0445,12.4679,53.2616,-0.0418,0.4526,-0.28,215.2031
20:44:29:163,0.8836,1.1474,12.1806,52.1486,-0.0639,0.3107,-0.3324,215.5469
20:44:29:186,0.4083,1.0134,13.8111,53.6293,-0.2882,-0.1405,-0.4933,215.8281
20:44:29:204,-0.4476,-0.0712,16.7117,52.81,-0.5023,-0.4627,-0.6488,216.1719
20:44:29:224,-1.021,-1.1271,17.5376,53.9286,-0.3113,-0.2334,-0.6211,216.7188
20:44:29:243,-0.8091,-1.6969,14.9112,53.0456,0.2778,0.2769,-0.3844,217.4062
20:44:29:263,0.3102,-1.8681,10.6567,53.5088,0.7886,0.7203,-0.097,217.7656
20:44:29:284,1.3457,-1.5544,7.6412,52.8658,0.8892,0.679,0.0599,218.3594
20:44:29:310,1.3002,-0.7955,7.0929,51.9094,0.5771,0.1128,0.0511,218.7031
20:44:29:329,0.4598,-0.2915,8.8922,52.4775,-0.1276,-0.9045,-0.1593,218.6719
20:44:29:344,0.2994,-0.2927,10.8854,51.691,0.0434,-0.7754,-0.1572,218.8281
20:44:29:366,0.7998,-0.3561,10.9356,51.1967,0.4429,-0.4004,-0.1793,219.0625
20:44:29:386,0.5879,-0.3166,8.7162,50.7094,0.7018,-0.0486,-0.1444,219.2969
20:44:29:404,0.3078,-0.0904,6.2143,50.2684,0.7103,0.1123,-0.0419,219.2969
20:44:29:467,0.4059,0.0976,4.3971,50.7637,0.5547,0.0292,0.0388,219.7969
20:44:29:468,0.6011,0.3549,3.7327,50.3577,0.3289,-0.1895,0.0756,219.7969
20:44:29:468,1.044,0.6458,4.0284,49.9443,0.135,-0.3884,0.0479,219.9062
20:44:29:482,1.5061,0.8206,4.6018,49.9884,-0.0304,-0.4592,-0.0667,219.9062
20:44:29:505,1.2511,0.8541,5.2291,49.332,-0.1816,-0.4763,-0.1569,219.875
20:44:29:522,0.9746,0.8685,5.9437,51.4253,-0.3071,-0.4925,-0.2067,220
20:44:29:542,0.7758,0.8709,6.735,49.1185,-0.3965,-0.4824,-0.2573,220
20:44:29:564,0.303,0.9523,7.6891,51.8014,-0.4352,-0.3754,-0.2725,220.2188
20:44:29:588,0.0612,1.0361,8.0446,49.5353,-0.4338,-0.3181,-0.3018,220.4688
20:44:29:604,0.0612,1.157,7.9106,50.5003,-0.4874,-0.3626,-0.3838,221.1094
20:44:29:622,0.1581,1.1259,7.737,50.1296,-0.6975,-0.6084,-0.5074,221.4531
20:44:29:642,-0.1052,0.6818,8.8587,49.882,-1.0184,-1.0566,-0.582,221.6562
20:44:29:663,-0.7265,-0.0353,12.2405,48.3964,-1.1595,-1.2979,-0.4653,222.1719
20:44:29:685,-0.7134,-0.5692,16.1203,49.2841,-0.9303,-1.031,-0.2499,222.8281
20:44:29:704,0.2778,-0.8051,17.7136,48.9572,-0.5452,-0.3522,-0.0949,223.4688
20:44:29:723,1.8664,-0.811,15.8461,48.8252,-0.4194,0.2343,-0.1231,223.9219
20:44:29:745,2.836,-0.2664,13.7117,48.9594,-0.6626,0.3176,-0.3388,224.125
20:44:29:774,2.7547,-0.0186,13.9882,47.0595,-0.9675,0.1584,-0.6456,224.1719
20:44:29:788,1.3217,-0.647,16.7847,49.5596,-0.8679,0.1791,-0.7332,224.2812
20:44:29:807,0.4502,-2.1003,19.1046,49.7862,-0.2003,0.6931,-0.419,224.6562
20:44:29:822,1.518,-3.0305,17.4299,48.005,0.6144,1.304,0.0798,225.375
20:44:29:842,4.1612,-2.718,12.9839,49.4441,1.04,1.3959,0.3683,226.1719
20:44:29:862,6.419,-1.4108,9.3088,48.6533,1.0243,1.0207,0.2167,226.6406
20:44:29:885,6.8248,-0.2101,7.798,47.4976,0.9361,0.5421,-0.2587,226.5625
20:44:29:905,5.7402,0.021,7.3276,47.6247,0.9883,0.2659,-0.733,226.1719
20:44:29:923,4.4186,-0.4459,6.322,45.3951,1.0317,0.2803,-0.9934,226.0781
20:44:29:946,3.4669,-0.6578,4.7023,47.2479,0.9127,0.4103,-1.0667,226.7188
20:44:29:961,2.8432,-0.4172,3.2131,47.0839,0.649,0.3847,-1.0768,227.8125
20:44:29:982,2.4781,0.0329,2.52,45.2963,0.3537,0.152,-1.1021,229
20:44:30:002,2.3859,0.4136,2.7259,46.1643,0.1222,-0.1791,-1.1804,230.2812
20:44:30:022,2.4051,0.762,3.7878,45.9049,0.017,-0.4512,-1.3322,231.5469
20:44:30:045,2.2554,0.8805,5.0926,45.1017,0.017,-0.675,-1.5218,232.7969
20:44:30:070,1.943,0.6925,6.2334,45.8585,0.0197,-0.7431,-1.6483,234.2656
20:44:30:086,1.4809,0.4711,6.8559,45.7038,-0.0594,-0.6385,-1.6837,235.9375
20:44:30:102,-0.3099,0.9032,8.8048,44.4758,-0.2301,-0.5074,-1.6321,237.7344
20:44:30:126,-0.6559,1.096,10.458,44.0893,-0.3827,-0.3471,-1.5191,239.6875
20:44:30:142,-0.7397,1.0768,11.3403,43.8299,-0.387,-0.0571,-1.4129,241.625
20:44:30:162,-0.9456,1.242,10.8782,45.2822,-0.3004,0.311,-1.313,243.4375
20:44:30:184,-1.2018,1.588,10.3922,45.0899,-0.2991,0.5584,-1.1838,245.0156
20:44:30:203,-1.1383,1.8501,11.0841,43.6887,-0.4402,0.5163,-1.0526,246.5469
20:44:30:222,-0.7529,1.7747,12.4727,43.2362,-0.5779,0.2806,-0.946,247.9375
20:44:30:242,-0.3973,1.9626,13.6878,43.9323,-0.657,0.1197,-0.8179,249.1094
20:44:30:261,0.1929,2.1901,15.1817,44.2824,-0.678,0.0481,-0.6539,250.1875
20:44:30:282,0.8824,2.2811,16.9439,43.3879,-0.5302,-0.0731,-0.5386,251.1406
20:44:30:305,0.5939,1.2025,16.9295,43.6943,-0.069,-0.0081,-0.6174,251.8906
20:44:30:322,-0.0801,-0.2185,14.236,42.4873,0.579,0.3221,-0.7316,252.4844
20:44:30:341,0.2371,-0.6446,10.8231,42.8536,1.0269,0.6942,-0.6177,253.0781
20:44:30:362,1.8652,-0.4806,8.575,40.633,1.0783,0.7858,-0.4219,253.9062
20:44:30:386,3.4142,-0.5453,8.1129,40.615,0.8373,0.3536,-0.5007,254.75
20:44:30:404,3.7207,-0.7823,9.8511,39.9783,0.4328,-0.407,-0.8861,255.4375
20:44:30:421,3.0084,-1.1474,12.7804,39.8594,0.0285,-0.9839,-1.3058,256.0156
20:44:30:442,1.779,-1.7424,14.1199,40.8742,-0.11,-0.9253,-1.6163,256.8125
20:44:30:462,0.2359,-2.2811,12.833,39.4664,0.0629,-0.3671,-1.7223,258.125
20:44:30:486,-0.9684,-2.3589,10.0797,41.3027,0.3419,0.3176,-1.5167,259.8438
20:44:30:504,-1.1946,-1.8178,7.7142,37.7804,0.5483,0.756,-1.0065,262.7031
20:44:30:522,-0.5601,-1.0313,6.085,39.0266,0.694,0.8257,-0.435,264.4688
20:44:30:542,-0.0107,-0.2987,4.9406,38.4527,0.8256,0.5728,-0.0326,265.6562
20:44:30:562,0.4993,0.3466,4.1612,38.7505,0.9132,0.1512,0.2085,266.1875
20:44:30:585,1.2116,0.896,3.8799,38.636,0.8898,-0.3061,0.3488,266.2969
20:44:30:605,1.8341,1.2001,3.7028,35.4577,0.7753,-0.7184,0.3901,266.1719
20:44:30:622,2.0017,1.4886,3.8141,36.568,0.5934,-1.1042,0.3342,265.8906
20:44:30:641,2.1549,1.8513,4.6102,36.3116,0.3721,-1.4523,0.2463,265.6094
20:44:30:663,2.3548,2.0081,6.3711,37.9711,0.1404,-1.6542,0.1065,265.375
20:44:30:687,2.4769,1.8406,7.9249,37.6196,-0.0019,-1.5711,-0.1082,265.25
20:44:30:705,2.1752,1.6526,8.4421,37.6196,-0.0423,-1.2654,-0.374,265.2812
20:44:30:727,1.6138,1.3306,8.2505,35.8363,-0.1284,-0.9258,-0.6334,265.375
20:44:30:742,1.032,1.0038,8.7809,34.4778,-0.4107,-0.7048,-0.8214,265.7656
20:44:30:762,0.6705,0.8733,10.4305,35.2463,-0.8346,-0.5828,-0.9159,266.4531
20:44:30:787,0.1713,0.756,13.5477,35.0665,-1.2261,-0.6683,-0.9673,267.8281
20:44:30:802,-0.183,0.0413,16.3226,35.3753,-1.3225,-0.6505,-0.9591,268.9062
20:44:30:822,-0.0621,-0.8302,16.155,34.4235,-0.6344,-0.0401,-0.533,270.0469
20:44:30:842,-0.0909,-0.5321,14.6526,34.8795,-0.4357,-0.0094,-0.2166,270.0469
20:44:30:862,0.7363,0.1682,13.8242,34.0265,-0.4077,-0.0305,-0.0943,271.1094
20:44:30:885,1.372,0.5704,13.9523,34.179,-0.384,0.1086,-0.1282,272.0625
20:44:30:905,1.8496,0.3286,14.157,33.0897,-0.245,0.447,-0.1385,272.9062
20:44:30:922,2.5488,0.0114,13.1323,34.6263,-0.0594,0.6905,-0.0893,273.0156
20:44:30:941,3.9889,-0.2364,11.2972,34.5421,0.049,0.5325,-0.1074,273.1719
20:44:30:962,5.2422,-0.1861,9.8954,35.6306,0.0325,0.067,-0.2794,273.3125
20:44:30:988,5.3188,0.2556,9.8319,35.775,0.0226,-0.3279,-0.5521,273.4062
20:44:31:007,4.6736,0.3035,10.4867,33.7952,0.1433,-0.329,-0.7724,273.5312
20:44:31:024,3.5435,0.1383,10.5609,34.5754,0.3931,0.0809,-0.7836,273.8594
20:44:31:041,2.6194,0.1909,9.2346,33.4732,0.6621,0.5331,-0.6193,274.4531
20:44:31:061,2.4338,0.5824,7.2414,34.5882,0.8602,0.7245,-0.4629,275.7969
20:44:31:081,2.4458,1.1079,5.4816,33.6364,0.9601,0.6404,-0.3963,276.625
20:44:31:103,2.5583,1.5592,4.1708,35.6275,0.9611,0.4066,-0.4382,277.2031
20:44:31:123,2.5918,1.9866,2.9845,35.3034,0.7984,0.0926,-0.5742,277.6875
20:44:31:142,2.5416,2.3505,2.4434,35.1214,0.4658,-0.194,-0.7628,278.1562
20:44:31:163,2.3895,2.6115,2.8552,35.1148,0.0613,-0.4126,-0.9498,278.7188
20:44:31:187,2.1214,2.6737,4.2929,34.909,-0.2623,-0.4864,-1.0949,279.5
20:44:31:205,1.6892,2.6558,6.0096,37.0578,-0.4357,-0.4329,-1.1652,279.9844
20:44:31:221,1.433,2.5995,7.4353,35.1611,-0.5276,-0.2984,-1.1956,281.0938
20:44:31:242,0.9817,2.5588,8.6564,35.1702,-0.6283,-0.0837,-1.1681,282.3125
20:44:31:261,0.4131,2.4343,10.3203,36.2764,-0.6727,0.2177,-1.0249,283.6562
20:44:31:287,0.0492,2.572,11.6036,37.3627,-0.5957,0.4471,-0.8384,285.0312
20:44:31:303,0.0731,2.9179,12.3231,36.4053,-0.4714,0.4753,-0.6927,286.2812
20:44:31:321,0.4885,3.1993,12.7026,37.0147,-0.4136,0.3773,-0.636,287.4375
20:44:31:341,1.2583,2.894,13.1742,37.7986,-0.4645,0.2955,-0.697,288.7656
20:44:31:361,1.2463,2.2536,13.6351,38.5375,-0.6581,0.2857,-0.7303,289.4531
20:44:31:386,0.8752,1.7149,14.5245,38.3366,-0.8477,0.2372,-0.7348,290.1719
20:44:31:403,0.2515,0.5106,16.3597,38.2082,-0.6594,0.1437,-0.697,290.9844
20:44:31:421,-1.1407,-0.7153,17.4742,40.4078,-0.0461,0.0404,-0.4043,291.7812
20:44:31:441,-1.5729,-1.6969,16.738,40.353,0.6962,0.0643,0.0721,292.5312
20:44:31:462,-0.5709,-2.2476,13.5908,41.7991,1.1366,0.1179,0.4418,293.1875
20:44:31:486,0.6908,-1.9423,9.9911,41.191,1.0522,-0.0422,0.597,293.4062
20:44:31:552,1.0979,-0.1634,8.4744,40.8387,0.6139,-0.3626,0.5347,293.1406
20:44:31:553,0.6525,-0.2999,9.7936,40.8624,0.1755,-0.5298,0.3954,292.5781
20:44:31:553,0.285,-0.6566,10.2988,42.6474,0.0109,-0.3508,0.3762,291.9531
20:44:31:566,0.0241,-0.4591,9.1627,42.3622,0.1587,0.0803,0.5296,291.4844
20:44:31:588,0.1581,0.0473,6.8882,40.9308,0.4605,0.4268,0.7768,291.0781
20:44:31:603,0.4382,0.5848,4.8831,41.7517,0.6884,0.4449,0.956,290.5938
20:44:31:625,0.6609,0.9332,3.5998,42.8541,0.7475,0.2444,1.0199,289.8438
20:44:31:642,0.9315,1.151,3.1138,44.6452,0.6594,-0.039,0.9997,288.3438
20:44:31:664,1.2942,1.3797,3.2036,44.0981,0.4791,-0.2941,0.9339,287.7812
20:44:31:687,1.6234,1.7017,3.5962,45.1167,0.2637,-0.5032,0.8284,286.0938
20:44:31:705,1.8317,2.0165,4.3767,46.3229,0.0352,-0.7085,0.6631,285.625
20:44:31:725,1.9035,2.0848,5.3739,43.8023,-0.1768,-0.8558,0.4599,284.6562
20:44:31:741,1.8113,2.0572,6.5375,44.4653,-0.3675,-0.9352,0.2468,283.8438
20:44:31:761,1.6928,1.9543,7.9189,46.4191,-0.539,-0.9026,0.067,283.2344
20:44:31:785,1.5947,1.983,9.0634,46.8812,-0.6461,-0.7263,-0.0722,282.9219
20:44:31:802,1.4306,1.7987,9.4057,48.2959,-0.6591,-0.5106,-0.2363,282.8125
20:44:31:821,1.3876,1.7113,10.0067,46.8186,-0.7633,-0.4654,-0.4288,282.8594
20:44:31:841,0.9949,1.3186,12.0621,49.0963,-1.081,-0.5018,-0.6384,283.0469
20:44:31:862,0.1282,0.2819,15.2236,49.5224,-1.4299,-0.3895,-0.8344,283.4688
20:44:31:881,-0.2573,-0.9846,16.8146,49.4294,-1.4693,0.0297,-0.839,284.0938
20:44:31:902,0.2766,-1.8298,15.8497,50.718,-1.2088,0.5634,-0.6027,284.9531
20:44:31:921,1.7191,-1.7819,14.3007,50.3892,-0.9249,0.7906,-0.2086,286.4688
20:44:31:941,2.6194,-1.2264,14.5724,49.4599,-0.8056,0.557,0.0716,287.2031
20:44:31:961,2.5859,-1.3545,15.9299,51.8844,-0.7017,0.2878,0.1161,287.4688
20:44:31:981,2.9941,-2.08,15.6869,50.9988,-0.3595,0.3632,0.1395,287.4219
20:44:32:004,4.5431,-2.4151,13.4795,50.3568,0.1324,0.647,0.2924,287.2969
20:44:32:021,6.4932,-2.1925,10.701,52.273,0.5289,0.7847,0.4428,287.1719
20:44:32:041,7.3766,-1.4371,8.6216,50.5935,0.6445,0.5911,0.3789,286.875
20:44:32:062,6.7434,-0.5321,7.4545,51.1389,0.498,0.2673,0.0916,286.4062
20:44:32:088,5.2877,0.0126,7.1037,50.9946,0.2037,0.0883,-0.284,286.0156
20:44:32:105,3.8715,-0.0245,6.7506,52.7668,-0.0538,0.1757,-0.6057,285.9375
20:44:32:121,2.702,0.0162,6.1293,53.6096,-0.1635,0.3949,-0.7878,286.2812
20:44:32:141,1.8712,0.2544,5.4864,53.8725,-0.1585,0.5083,-0.7913,286.9688
20:44:32:161,1.4115,0.586,5.2003,54.5508,-0.0607,0.394,-0.6757,287.8281
20:44:32:185,1.2451,1.0181,5.1046,53.0591,0.1225,0.0947,-0.5332,288.75
20:44:32:205,1.3361,1.3605,5.1022,53.1481,0.5571,-0.5761,-0.3543,289.1562
20:44:32:224,1.4259,1.5532,5.0471,52.9823,0.6333,-0.7746,-0.3569,289.8594
20:44:32:242,1.5013,1.8621,5.0878,54.623,0.5377,-0.875,-0.4115,290.6094
20:44:32:269,1.3397,2.0237,5.7306,53.9104,0.3124,-0.8116,-0.4888,291.4219
20:44:32:281,1.0153,2.2416,6.899,57.0801,0.0402,-0.5892,-0.5484,291.4219
20:44:32:304,1.0093,2.6426,8.1883,55.1809,-0.2168,-0.382,-0.6842,291.875
20:44:32:321,1.202,2.8449,9.9444,54.5752,-0.3979,-0.2132,-0.9191,292.4219
20:44:32:340,1.1266,2.6701,11.7281,56.6708,-0.4666,0.0007,-1.1455,293.0469
20:44:32:360,0.4071,1.965,13.1323,56.6311,-0.4267,0.2614,-1.202,293.7812
20:44:32:382,-0.5553,1.2767,13.932,57.1413,-0.2932,0.4801,-1.0217,296.1562
20:44:32:404,-0.8379,0.8721,14.0038,56.0575,-0.1127,0.4963,-0.7159,296.1562
20:44:32:422,0.1749,0.3382,13.677,57.2394,0.0394,0.2857,-0.4677,297.5469
20:44:32:441,1.2379,-0.0006,13.0868,56.1028,0.0242,-0.0534,-0.3095,298.6562
20:44:32:460,1.366,0.3753,13.4519,58.6,-0.0599,-0.4172,-0.2342,299.5
20:44:32:480,1.2786,0.0114,14.934,57.7888,0.0101,-0.362,-0.2579,300.0469
20:44:32:504,0.4574,-0.9056,15.4331,57.9,0.2812,0.1118,-0.1569,300.5156
20:44:32:522,-0.0071,-1.7831,13.5345,58.1938,0.4943,0.5147,0.0956,300.7812
20:44:32:540,0.1126,-2.0321,10.6483,59.4532,0.4429,0.4489,0.3635,301.0312
20:44:32:560,0.6765,-1.6753,8.6899,57.3649,0.1196,-0.0134,0.5342,301.0781
20:44:32:581,1.0751,-0.9355,8.9066,57.2021,-0.208,-0.4355,0.6143,300.8281
20:44:32:605,1.0751,-0.2747,10.3754,57.3026,-0.2349,-0.5612,0.6463,300.3125
20:44:32:621,0.971,-0.1083,11.1619,57.5702,0.0272,-0.3967,0.683,299.6719
20:44:32:641,0.6082,-0.0497,10.2904,57.7894,0.319,-0.0888,0.8085,298.9375
20:44:32:661,0.3964,0.3657,8.3774,57.0367,0.473,0.1104,0.9693,298.5625
20:44:32:681,0.6585,0.8517,6.7518,59.6003,0.5113,0.058,1.033,297.7656
20:44:32:704,0.8848,1.23,6.0347,58.1886,0.543,-0.161,1.0106,296.8906
20:44:32:727,1.0021,1.2743,5.988,58.4431,0.633,-0.3732,0.9611,295.7656
20:44:32:742,1.2152,1.2288,5.7833,58.4431,0.722,-0.5303,0.8889,294.5938
20:44:32:764,1.3804,1.1414,5.4745,57.1016,0.7001,-0.6164,0.7936,293.4219
20:44:32:786,1.5108,1.1307,5.514,58.0768,0.5542,-0.6808,0.6862,291.3594
20:44:32:803,1.7347,1.1594,6.1951,57.6008,0.3531,-0.7269,0.5475,290.875
20:44:32:820,1.7036,0.9906,7.4198,58.3342,0.1888,-0.6345,0.4103,290.0781
20:44:32:844,1.5192,0.8398,8.8515,56.6931,0.134,-0.3847,0.3344,289.375
20:44:32:861,1.7347,0.6315,9.8439,56.7324,0.1718,-0.0978,0.2713,288.8438
20:44:32:881,2.2375,0.4866,10.0139,58.3193,0.1957,0.0915,0.1672,288.4375
20:44:32:904,3.3712,0.4794,9.7828,56.778,0.1092,0.0569,-0.0022,288.1094
20:44:32:921,3.6872,0.1802,10.6795,57.1709,-0.0834,-0.1556,-0.2437,287.8281
20:44:32:942,3.8608,-0.2652,12.1782,58.0331,-0.3292,-0.3263,-0.4557,287.7188
20:44:32:963,4.3887,-0.8793,12.924,57.7551,-0.4709,-0.2363,-0.583,287.8438
20:44:32:980,3.9302,-0.6746,12.6535,57.4478,-0.526,-0.0206,-0.6941,288.2812
20:44:33:001,2.9761,-0.1347,12.918,58.0689,-0.6365,0.0896,-0.7607,288.9062
20:44:33:025,1.4318,-0.1993,14.4384,59.0789,-0.7662,0.1171,-0.7676,289.625
20:44:33:040,0.795,-1.1546,14.8813,56.2679,-0.6261,0.3781,-0.5865,290.5156
20:44:33:062,1.7515,-1.7855,12.9013,56.7385,-0.1518,0.7373,-0.1636,291.4375
20:44:33:086,3.7722,-1.3904,10.6459,56.9879,0.335,0.6809,0.3528,292.5625
20:44:33:103,5.2111,-0.2688,9.4141,57.9701,0.6264,0.0433,0.7017,292.75
20:44:33:121,5.3727,0.8901,9.1148,57.6587,0.7412,-0.6859,0.7062,292.3281
20:44:33:140,4.4892,1.2516,9.0694,55.8901,0.7049,-0.8867,0.4047,291.9531
20:44:33:160,3.6225,1.0672,8.2553,55.6749,0.592,-0.4534,0.075,291.1094
20:44:33:181,2.9198,1.0588,6.595,56.6239,0.4424,0.2737,-0.1436,290.4375
20:44:33:206,2.3548,1.1678,5.1608,55.7798,0.2285,0.8268,-0.2906,290.1562
20:44:33:220,1.6222,1.1175,4.7335,54.7794,-0.025,1.0031,-0.3766,290.1875
20:44:33:245,0.8261,1.0995,5.4266,55.9491,-0.2437,0.9815,-0.3593,290.3906
20:44:33:259,0.7292,1.4682,6.0299,55.7031,-0.3302,1.0247,-0.2142,290.9375
20:44:33:285,1.0787,2.1686,6.1006,54.8614,-0.2346,0.9858,-0.0856,291.2969
20:44:33:305,0.9123,2.8353,6.2358,55.9534,-0.0551,0.7216,-0.13,291.5156
20:44:33:323,0.4646,3.125,6.2933,55.1712,0.1134,0.4332,-0.2326,291.5781
20:44:33:339,0.0276,3.1059,6.4956,55.6313,0.1886,0.2236,-0.2757,291.7031
20:44:33:360,-0.2716,3.1071,7.1025,54.9579,0.1446,0.088,-0.2294,291.9375
20:44:33:380,-0.0262,3.1442,8.1871,56.5516,0.0216,0.0263,-0.088,292.25
20:44:33:403,0.5472,3.1262,9.6033,55.6208,-0.081,0.0044,0.0724,292.5156
20:44:33:421,1.4534,3.1765,10.7381,54.0943,-0.0788,0.0055,0.1856,292.5938
20:44:33:441,2.2734,3.4746,11.3738,53.612,-0.0059,-0.0012,0.2071,292.5156
20:44:33:461,2.7068,3.5404,12.0298,54.5024,0.0306,-0.0704,0.0793,292.4219
20:44:33:482,2.5978,3.0592,12.7349,54.0796,-0.008,-0.1287,-0.1726,292.1875
20:44:33:508,2.3321,2.1985,13.0665,53.9337,-0.1212,-0.0526,-0.4254,292
20:44:33:525,1.761,1.8166,13.4831,52.4214,-0.3436,0.1291,-0.5785,292.0469
20:44:33:540,0.971,1.5329,14.5868,54.2028,-0.5984,0.2681,-0.5939,292.6719
20:44:33:600,0.3054,0.9571,15.3362,53.9861,-0.6069,0.3613,-0.5146,293.2969
20:44:33:601,0.3305,0.4423,14.7161,54.513,-0.2985,0.4241,-0.2746,293.9688
20:44:33:602,0.698,0.0724,12.6307,54.0728,0.5286,0.2934,0.2364,294.5312
20:44:33:622,1.1433,-0.0856,10.0953,54.2162,0.6048,-0.0542,0.335,294.7812
20:44:33:640,1.3145,0.0293,8.3164,53.6165,0.3585,-0.4939,0.3653,294.7812
20:44:33:660,1.2295,0.2316,8.5438,52.9557,0.0043,-0.724,0.3773,294.5312
20:44:33:680,1.3935,0.185,10.1288,53.2902,-0.1148,-0.5732,0.3611,294.1719
20:44:33:704,1.2894,-0.0593,10.9368,52.6539,0.0325,-0.1892,0.3587,293.7969
20:44:33:724,0.7926,-0.1598,9.9001,52.8784,0.2511,0.165,0.4482,293.3906
20:44:33:740,0.5077,0.0652,8.0063,51.4258,0.3958,0.2742,0.5765,292.9844
20:44:33:759,0.613,0.3262,6.413,51.3247,0.4551,0.1285,0.6455,292.6094
20:44:33:780,0.7639,0.5417,5.5499,52.627,0.4711,-0.1186,0.6679,292.0938
20:44:33:804,1.0308,0.6877,5.1728,52.2458,0.4677,-0.3727,0.6471,290.7344
20:44:33:824,1.214,0.6794,5.0375,51.9828,0.4173,-0.5524,0.6122,289.9844
20:44:33:840,1.3349,0.7727,5.2398,50.8782,0.3073,-0.614,0.5893,289.625
20:44:33:860,1.6378,0.9703,5.5882,50.8051,0.1609,-0.6084,0.5243,288.6094
20:44:33:880,1.7778,1.23,6.2155,51.0127,0.0101,-0.5429,0.4063,288.3125
20:44:33:903,1.5707,1.2528,7.0882,51.5178,-0.1009,-0.3889,0.2939,287.7031
20:44:33:922,1.1517,1.2588,7.968,50.642,-0.1361,-0.1197,0.2473,287.2031
20:44:33:940,1.3852,1.3737,8.0111,50.4817,-0.1313,-0.0339,0.1424,286.8594
20:44:33:963,1.8401,1.4682,7.7454,50.962,-0.1965,-0.2808,-0.0733,286.7188
20:44:33:980,2.3584,1.5353,7.64,50.7603,-0.5052,-0.814,-0.3684,286.4531
20:44:34:000,2.4602,1.2276,9.2106,48.9368,-0.9747,-1.1799,-0.656,286.2969
20:44:34:024,1.9119,0.2783,12.5601,51.2225,-1.2783,-0.9618,-0.7655,286.3906
20:44:34:040,1.7658,-1.0301,15.2105,49.2544,-1.2573,-0.3698,-0.6507,286.875
20:44:34:060,2.3345,-1.7137,15.4236,49.8659,-1.0863,0.0966,-0.3961,287.7188
20:44:34:081,3.4514,-1.2779,14.2396,50.4374,-1.036,0.1118,-0.2589,288.7031
20:44:34:105,4.0715,-0.5465,14.3569,50.2297,-1.0381,-0.0153,-0.3561,289.5
20:44:34:122,3.3771,-0.665,15.8928,48.7914,-0.8472,0.2473,-0.4334,290.1875
20:44:34:139,2.1274,-1.2875,15.8928,50.7273,-0.4988,0.8311,-0.2129,290.5781
20:44:34:159,2.1537,-1.5664,13.8003,48.1544,-0.1867,1.1879,0.184,291.0938
20:44:34:180,3.6764,-1.084,11.3067,50.0942,-0.0333,1.0204,0.437,291.5625
20:44:34:205,5.0794,-0.0832,9.7948,48.8296,-0.0133,0.5371,0.3906,291.6406
20:44:34:222,5.4457,0.926,9.5099,49.7522,0.0461,0.1525,0.1139,291.2969
20:44:34:242,4.7359,1.3378,9.3555,49.8803,0.1997,0.1187,-0.2155,290.8125
20:44:34:260,3.6884,1.1391,8.2134,49.2321,0.2959,0.3016,-0.4456,290.5156
20:44:34:283,2.6505,0.9643,6.7745,46.5674,0.2583,0.5448,-0.5213,290.5625
20:44:34:304,1.5911,1.1031,5.2255,47.2148,0.1587,0.7024,-0.492,290.9688
20:44:34:321,1.6617,1.2887,5.2362,47.7312,0.1055,0.6955,-0.4376,291.5469
20:44:34:341,1.8712,1.3593,5.3069,46.6145,0.1409,0.5546,-0.4113,292.1562
20:44:34:360,1.8652,1.485,5.4541,46.057,0.2061,0.3616,-0.4209,292.6719
20:44:34:381,1.9227,1.6394,5.9174,47.9239,0.229,0.2071,-0.44,293.1719
20:44:34:404,2.1788,1.661,6.3795,47.3464,0.2671,0.0604,-0.4592,293.6562
20:44:34:421,2.0639,1.5712,6.741,47.6944,0.3063,-0.08,-0.541,294.3906
20:44:34:439,1.6641,1.4024,7.3383,46.5024,0.2626,-0.1261,-0.6161,294.6406
20:44:34:459,1.1685,1.6646,8.0147,46.7316,0.1124,-0.0717,-0.6131,295.2188
20:44:34:479,0.8967,2.0046,8.9042,46.1587,-0.0714,-0.027,-0.5772,295.9062
20:44:34:503,0.8046,2.0345,10.2952,45.1926,-0.2466,-0.0896,-0.5948,296.5781
20:44:34:522,0.7591,1.7544,11.8191,45.0719,-0.3611,-0.1074,-0.603,297.2656
20:44:34:539,0.4095,1.6263,12.7864,43.9536,-0.3832,-0.0094,-0.5777,297.9219
20:44:34:559,0.3473,1.3569,13.3406,44.1333,-0.3547,0.152,-0.4853,298.5625
20:44:34:580,0.9099,1.011,13.3286,44.7456,-0.3033,0.2462,-0.362,299.25
20:44:34:603,1.0368,1.3318,13.7297,44.2129,-0.3073,0.1626,-0.2557,299.8594
20:44:34:622,1.4678,1.1762,15.244,44.2214,-0.3651,-0.0542,-0.1601,300.3125
20:44:34:647,1.1134,0.5465,15.7707,42.5618,-0.1979,-0.121,-0.1868,300.6719
20:44:34:659,0.637,-0.1538,14.4527,42.8833,0.2256,-0.096,-0.2057,300.8906
20:44:34:680,0.9291,-0.6829,12.0968,42.2352,0.5598,0.0385,-0.1101,301.0625
20:44:34:700,1.3516,-0.981,10.1707,43.8806,0.5721,0.1951,-0.0544,301.4062
20:44:34:723,1.1673,-1.1534,9.2501,43.6644,0.3452,0.1301,-0.0603,301.5312
20:44:34:744,0.2755,-0.8553,9.6344,42.3923,0.0373,-0.1466,-0.0552,301.6094
20:44:34:764,0.0695,-0.6147,10.3957,43.3189,-0.1569,-0.3849,0.0311,301.6875
20:44:34:780,0.7459,-0.4938,10.2078,42.9674,-0.1526,-0.3828,0.1504,301.75
20:44:34:801,1.0093,-0.1407,9.055,42.9674,-0.0831,-0.0654,0.1962,301.7031
20:44:34:824,0.6011,0.2352,7.5443,43.5619,-0.1097,0.4372,0.1975,301.5312
20:44:34:845,-0.1244,0.4076,6.668,43.1516,-0.237,0.8742,0.2314,301.3125
20:44:34:861,-0.2704,0.313,6.4441,41.9874,-0.3342,1.0814,0.3677,301.0938
20:44:34:880,-0.0346,0.173,6.316,43.0896,-0.2874,1.1147,0.568,300.8594
20:44:34:904,0.3976,0.3071,5.83,42.723,-0.1071,1.0156,0.7752,300.4531
20:44:34:921,0.9769,0.8122,5.0914,43.6552,0.0834,0.8167,0.9238,299.8125
20:44:34:939,1.2224,1.3234,4.9501,43.5062,0.1316,0.4825,0.9078,298.9531
20:44:34:960,1.1841,1.4515,5.6935,42.8766,0.0783,0.0281,0.7291,298.5156
20:44:34:980,0.6669,1.157,6.7901,42.381,0.032,-0.3881,0.4764,297.4531
20:44:35:004,0.0181,0.7428,7.7717,43.3677,-0.0115,-0.7959,0.1376,296.1406
20:44:35:022,-0.4883,0.4579,8.8838,42.4698,-0.0232,-0.8006,0.1225,295.6094
20:44:35:042,-0.4608,0.3597,9.7194,43.6731,-0.0384,-0.8395,0.1163,295.125
20:44:35:064,-0.0322,0.0904,10.5909,41.7766,-0.1041,-0.9572,0.0455,295.125
20:44:35:079,0.1486,-0.5046,11.7365,43.4246,-0.2661,-1.0329,0.0103,294.9688
20:44:35:099,0.2755,-1.2336,13.6483,41.9679,-0.3622,-0.9029,0.1043,294.8125
20:44:35:124,0.9614,-1.9914,15.3338,42.5318,-0.2448,-0.4957,0.2463,294.7344
20:44:35:141,2.259,-2.2511,14.7496,43.1038,-0.1372,-0.1146,0.2591,294.7031
20:44:35:159,2.7367,-1.5832,13.1862,43.1828,-0.2684,-0.052,0.1102,294.5469
20:44:35:178,2.1238,-1.0277,13.2748,44.0476,-0.3787,-0.0837,-0.0699,294.25
20:44:35:198,1.5049,-1.5293,14.4503,44.3413,-0.1441,0.1168,-0.0941,293.9531
20:44:35:220,1.627,-2.3828,13.9296,43.2086,0.2599,0.5315,0.0748,293.8281
20:44:35:238,2.5655,-2.5133,11.2062,44.7218,0.4362,0.7626,0.2561,293.9062
20:44:35:259,3.8584,-1.6969,8.5295,44.6902,0.2272,0.7469,0.184,294.0156
20:44:35:279,4.3731,-0.6865,7.0379,46.5291,-0.2695,0.7783,-0.179,293.7031
20:44:35:300,3.449,0.0664,7.0439,45.8585,-0.698,0.9168,-0.5521,293.5781
20:44:35:320,2.1214,-0.0233,7.7274,42.8147,-0.7718,1.0649,-0.7692,293.5781
20:44:35:340,1.0416,-0.2125,7.6221,45.9207,-0.6048,1.1485,-0.8035,294
20:44:35:360,0.1881,-0.0222,6.6273,46.5709,-0.42,1.0577,-0.6906,294.7969
20:44:35:379,-0.2405,0.3059,5.7857,45.9947,-0.2724,0.7403,-0.534,295.7344
20:44:35:404,-0.3518,0.6674,5.563,45.146,-0.1134,0.2766,-0.4054,296.6406
20:44:35:423,-0.2956,0.8769,5.9174,45.49,0.0701,-0.1562,-0.3122,297.3438
20:44:35:439,0.0636,0.9906,6.4872,45.886,0.2402,-0.3314,-0.2581,297.6406
20:44:35:459,0.5676,1.1953,6.565,45.1232,0.2831,-0.4033,-0.3002,298.1094
20:44:35:479,0.6573,1.5676,6.7194,44.6392,0.2075,-0.4933,-0.4049,298.4688
20:44:35:500,0.5759,1.7639,7.6568,46.4582,0.1111,-0.6065,-0.4954,298.7344
20:44:35:519,0.4825,1.6909,9.4907,46.2376,0.1313,-0.6305,-0.5308,299.0781
20:44:35:541,0.388,1.576,11.1978,46.8228,0.269,-0.5554,-0.5167,299.5312
20:44:35:560,0.3736,1.5161,12.2177,47.2921,0.4267,-0.3809,-0.5002,300.3125
20:44:35:579,0.4155,1.3509,12.3817,47.8116,0.4447,-0.0912,-0.521,300.8906
20:44:35:604,0.2886,1.3557,12.0178,49.9045,0.2471,0.2063,-0.5529,301.4688
20:44:35:671,0.3042,1.2863,12.2752,49.1022,-0.0224,0.4758,-0.6022,302.0156
20:44:35:672,0.5268,0.9379,13.1778,49.9939,-0.1473,0.707,-0.6664,302.6562
20:44:35:672,0.9003,0.2041,13.3753,48.8667,-0.167,0.8665,-0.7253,303.3281
20:44:35:681,0.3293,0.1119,12.6271,50.4774,-0.2352,0.7706,-0.6938,304.0469
20:44:35:705,-0.4237,0.185,12.7313,50.9949,-0.221,0.5586,-0.6336,304.875
20:44:35:722,-2.4575,-1.2312,12.9922,48.6375,0.0272,0.3203,-0.522,305.75
20:44:35:740,-2.4635,-2.0488,11.7952,49.6021,0.3419,0.1898,-0.2145,306.4844
20:44:35:759,-1.9224,-2.3745,10.1372,48.8564,0.5404,0.1184,0.1571,307.1875
20:44:35:779,-0.9887,-2.2763,9.1124,51.4413,0.4969,-0.1508,0.4463,307.6562
20:44:35:800,-0.7421,-1.7543,9.7768,51.0553,0.1976,-0.5895,0.5659,307.75
20:44:35:820,-0.6487,-1.3916,11.6922,50.5351,-0.1329,-1.0081,0.6045,307.4375
20:44:35:840,-0.3854,-1.4515,12.535,52.1004,-0.1326,-1.0598,0.6577,306.8438
20:44:35:865,-0.4668,-1.2049,11.2601,51.6889,0.1342,-0.6467,0.7448,305.7656
20:44:35:879,0.1976,-0.4328,9.3734,51.484,0.3462,-0.0323,0.9139,304.9844
20:44:35:901,1.3804,0.6913,8.3786,52.4652,0.3894,0.4401,0.9973,304.1094
20:44:35:923,1.4211,1.1965,7.8028,51.5222,0.4309,0.6321,0.8181,303.0781
20:44:35:946,0.4095,1.011,6.498,52.4969,0.6197,0.6345,0.5227,302.5156
20:44:35:960,-0.4356,0.5824,4.9298,51.7443,0.8101,0.5206,0.373,301.5469
20:44:35:979,-0.535,0.3406,3.7698,52.1132,0.8205,0.3869,0.4601,300.8281
20:44:35:999,0.0133,0.5764,3.2718,53.7696,0.6562,0.25,0.6708,300.4062
20:44:36:023,0.7687,1.2384,3.5447,52.0282,0.4003,0.0175,0.8173,300.0469
20:44:36:039,1.0596,1.5616,4.7634,53.3296,0.1324,-0.3551,0.7656,299.4688
20:44:36:059,0.868,1.4431,6.5578,53.4334,-0.0546,-0.7269,0.5605,298.6406
20:44:36:079,0.6094,1.09,8.5103,53.5447,-0.1526,-0.8715,0.3808,297.7656
20:44:36:100,0.3999,0.7129,9.7804,53.3931,-0.1108,-0.7873,0.2993,297.0156
20:44:36:121,0.6071,0.4651,10.0725,54.2092,0.0149,-0.6172,0.2812,296.5
20:44:36:138,1.4893,0.4483,9.9373,55.3191,0.0328,-0.5772,0.2524,295.9688
20:44:36:159,1.8341,0.404,11.3666,54.6395,-0.2256,-0.7996,0.0892,295.6562
20:44:36:180,1.5635,-0.1945,14.3402,53.9463,-0.6021,-0.9522,-0.1396,295.375
20:44:36:202,2.0376,-1.3773,15.6115,55.2026,-0.6815,-0.6289,-0.2387,295.2812
20:44:36:223,2.2148,-1.4192,13.7309,55.3926,-0.4418,-0.0334,-0.2179,295.4219
20:44:36:238,1.9155,-0.8038,12.2668,55.8701,-0.3028,0.2055,-0.174,295.6875
20:44:36:260,1.7431,-0.8302,12.8342,54.4282,-0.3257,-0.0334,-0.2094,295.9375
20:44:36:279,1.8568,-1.7376,13.5082,55.3376,-0.2437,-0.2395,-0.2928,296.125
20:44:36:300,2.1226,-2.2739,12.6642,56.6631,-0.033,-0.154,-0.2374,296.3594
20:44:36:330,3.0396,-1.8513,11.2601,55.4469,0.1015,-0.039,-0.0176,296.6875
20:44:36:340,3.868,-0.8003,10.5801,55.433,0.0359,-0.1088,0.1448,296.9375
20:44:36:359,3.8284,0.1502,10.7477,56.1071,-0.1001,-0.2395,0.0857,296.9531
20:44:36:382,3.0539,0.3885,10.1839,56.808,-0.0735,-0.1905,-0.1231,296.8906
20:44:36:405,1.9873,0.4387,8.4636,55.6538,0.131,0.0241,-0.3117,296.8906
20:44:36:420,1.2295,0.6291,6.5064,55.1235,0.2874,0.2838,-0.3545,296.8281
20:44:36:439,0.9494,1.0541,5.1117,54.8353,0.2024,0.462,-0.1745,297.1875
20:44:36:460,1.0296,1.5209,4.6796,54.6125,0.1241,0.3424,-0.1274,297.1875
20:44:36:479,1.3672,1.8657,4.9058,55.7321,0.1446,0.1951,-0.1481,297.8906
20:44:36:498,1.6234,2.0716,5.0615,55.5662,0.2173,0.0942,-0.2211,298.0938
20:44:36:521,1.8712,2.3074,4.8113,55.4602,0.2258,0.0108,-0.329,298.25
20:44:36:540,2.0148,2.4738,4.6772,56.5817,0.1081,-0.0555,-0.4715,298.4219
20:44:36:558,1.9047,2.5624,5.0794,57.4917,-0.0921,-0.1128,-0.6131,298.6719
20:44:36:578,1.7874,2.4008,6.1281,55.7597,-0.3446,-0.1183,-0.7388,299.0469
20:44:36:598,1.2619,2.3254,7.9333,56.7984,-0.5577,0.0292,-0.7971,299.5938
20:44:36:622,0.771,2.3469,10.0498,57.1502,-0.6061,0.2846,-0.8352,300.2656
20:44:36:639,0.467,2.2727,11.6335,57.8517,-0.5204,0.5419,-0.905,301.1094
20:44:36:659,-0.1028,1.9124,12.529,56.8876,-0.3782,0.6969,-0.8752,302
20:44:36:678,-0.7792,1.5939,12.5721,57.6444,-0.3321,0.6185,-0.6973,302.9062
20:44:36:698,-1.2952,1.4886,13.513,59.4114,-0.3201,0.4502,-0.4549,304.4531
20:44:36:723,-1.3335,1.2384,15.1051,57.6369,-0.1888,0.4987,-0.2318,305.375
20:44:36:740,-0.9133,0.9212,15.2284,57.9438,-0.0874,0.6652,-0.0469,306.0156
20:44:36:758,-1.1084,1.2791,14.4395,57.29,-0.1542,0.646,0.0942,306.4062
20:44:36:779,-1.1264,0.9248,14.9232,59.1938,-0.0599,0.5632,0.1728,306.5781
20:44:36:800,-0.8438,0.0473,15.2009,58.6361,0.3129,0.5695,0.2955,306.5625
20:44:36:823,-0.4189,-0.6195,13.5238,59.6552,0.6629,0.4449,0.4082,306.4219
20:44:36:839,-0.1376,-0.7248,11.0146,59.8403,0.6778,0.0896,0.3999,306.2031
20:44:36:859,0.297,-0.9966,9.7541,58.8125,0.441,-0.2848,0.3086,306.0469
20:44:36:879,0.145,-1.23,9.6344,58.8125,0.1888,-0.472,0.2391,305.6719
20:44:36:898,-0.5134,-1.0816,9.7206,57.7472,0.0477,-0.4622,0.2918,305.2656
20:44:36:922,-0.5757,-0.9176,9.5829,57.2616,0.0831,-0.3642,0.4156,304.9531
20:44:36:945,-0.3279,-0.8386,8.7821,57.7735,0.2442,-0.2638,0.5685,304.6875
20:44:36:958,-0.2345,-0.6853,7.4389,58.5638,0.4032,-0.231,0.7816,304.3594
20:44:36:979,-0.0286,-0.3597,6.3436,58.1235,0.5294,-0.271,0.9997,303.8906
20:44:36:998,0.3521,-0.0581,5.6049,55.6393,0.6437,-0.3335,1.1403,302.8906
20:44:37:021,0.6059,0.1742,4.8436,56.6258,0.7049,-0.3916,1.2072,301.8906
20:44:37:041,0.8668,0.4112,4.0894,57.7331,0.6602,-0.4734,1.2348,300.6875
20:44:37:058,1.6318,0.6853,3.4597,55.6717,0.4852,-0.6829,1.1526,299.375
20:44:37:078,2.4051,1.175,3.2586,57.9465,0.2077,-1.0734,0.9014,298.0781
20:44:37:099,2.5523,1.4096,3.8392,57.322,-0.134,-1.4798,0.5496,296.7344
20:44:37:123,1.8508,0.7225,7.7585,56.3762,-0.4477,-1.5887,0.2529,295.5781
20:44:37:140,1.5085,0.1562,9.4524,56.9875,-0.6266,-1.2529,0.0801,294.8281
20:44:37:158,1.1805,0.0353,10.3467,56.5502,-0.7012,-0.6944,0.0356,294.4375
20:44:37:178,1.779,0.4064,10.8542,56.9828,-0.763,-0.2395,0.0737,294.3281
20:44:37:198,2.9785,0.4998,11.9663,56.659,-0.9034,-0.133,0.0013,294.3125
20:44:37:222,3.0683,-0.2041,13.92,57.3838,-1.1092,-0.2379,-0.3378,294.2969
20:44:37:239,2.1956,-1.2935,15.2213,56.7817,-1.1886,-0.0936,-0.6722,294.25
20:44:37:258,2.5918,-2.1817,14.6454,55.3597,-1.0727,0.3256,-0.6914,294.4375
20:44:37:279,2.8049,-1.8573,13.5573,55.0342,-0.9758,0.6684,-0.5655,295.0625
20:44:37:298,2.0172,-1.0086,14.102,55.737,-1.0866,0.6878,-0.5394,296.3438
20:44:37:321,0.6178,-1.1558,15.8904,55.6342,-1.1856,0.6558,-0.6272,297.0469
20:44:37:341,0.0276,-2.481,16.0449,54.7287,-0.8815,0.8343,-0.615,297.7031
20:44:37:359,0.6585,-3.204,14.1403,54.9075,-0.3196,1.1722,-0.284,298.0781
20:44:37:378,2.6409,-2.5528,11.4875,53.6116,0.0623,1.4697,0.2561,298.9062
20:44:37:397,3.9242,-0.6614,9.9899,54.7361,-0.0146,1.4782,0.519,299.5625
20:44:37:423,3.3245,0.835,10.4341,53.5797,-0.4517,1.3568,0.2655,299.6719
20:44:37:448,1.9466,0.4399,10.962,54.9459,-0.7372,1.467,-0.2208,299.2812
20:44:37:458,0.4622,-0.1383,9.644,53.9129,-0.555,1.6849,-0.5442,298.8906
20:44:37:478,-0.444,-0.0449,7.379,55.4948,-0.1739,1.8444,-0.5015,298.9531
20:44:37:497,-0.6308,0.3729,5.5116,55.4583,0.1598,1.7299,-0.2105,299.5469
20:44:37:522,-0.383,0.8386,4.409,52.6154,0.4381,1.2694,0.0769,300.3594
20:44:37:543,0.206,1.2157,3.8237,53.6586,0.6685,0.6697,0.2713,300.9531
20:44:37:558,0.8884,1.473,3.4574,52.9674,0.8075,0.1418,0.3395,301.2344
20:44:37:579,1.2631,1.7568,3.4466,53.5645,0.8394,-0.297,0.2878,301.0938
20:44:37:598,1.4043,1.9184,4.3504,52.3907,0.8069,-0.7469,0.193,300.8594
20:44:37:624,0.8273,1.728,6.8715,53.8387,0.791,-1.2497,0.127,300.6406
20:44:37:641,-0.116,1.2911,9.8008,52.6014,0.9507,-1.6523,0.1941,300.4688
20:44:37:659,-0.6224,0.7919,11.3702,54.783,1.4043,-1.8614,0.4316,300.3594
20:44:37:722,-0.1759,0.981,10.8459,50.6332,1.9223,-1.9043,0.724,300.1719
20:44:37:722,0.8118,1.7867,9.6416,51.7638,2.1207,-1.7487,0.8932,299.7344
20:44:37:722,1.6449,2.7073,9.1424,51.4191,1.7739,-1.4332,0.8098,299.0156
20:44:37:743,2.0005,2.9539,9.6942,51.7522,1.0208,-0.9394,0.5278,298.1562
20:44:37:758,1.955,2.2966,11.0637,50.043,0.1696,-0.3261,0.1808,297.3438
20:44:37:778,1.2786,1.4383,11.7485,51.2903,-0.5206,0.3778,-0.1303,297.3438
20:44:37:800,-0.2716,1.1762,12.5421,50.4336,-1.3007,0.2295,-0.1516,296.625
20:44:37:823,-1.367,0.8948,15.1554,50.5036,-1.1726,-0.2952,0.1877,296.625
20:44:37:839,-1.3993,0.1826,18.1925,51.896,-0.4242,-0.3375,0.5533,297.0312
20:44:37:859,-0.365,-0.5908,17.7244,50.5783,0.5012,0.1626,0.7691,297.1719
20:44:37:878,0.3868,-0.4866,13.1658,50.4266,0.8554,0.4691,0.7717,296.9219
20:44:37:898,0.9781,0.0293,8.9975,51.1774,0.5175,0.4289,0.5978,296.2812
20:44:37:921,0.965,0.3933,6.9996,51.643,-0.147,0.1613,0.3951,295.4219
20:44:37:942,0.868,0.519,7.4976,51.7627,-0.6591,-0.1165,0.2689,294.5938
20:44:37:958,1.0236,0.5561,9.1148,51.3834,-0.7191,-0.2699,0.1262,293.9062
20:44:37:978,0.7962,0.5668,10.0187,51.3047,-0.4344,-0.2017,0.0098,293.4531
20:44:38:000,0.2288,0.398,9.5015,50.2957,-0.1201,0.0691,0.0356,293.1406
20:44:38:022,-0.1902,0.2688,8.0375,50.8011,0.0637,0.3938,0.1962,292.9688
20:44:38:041,-0.2824,0.3801,6.3196,51.7332,0.0938,0.5347,0.3829,292.9531
20:44:38:057,-0.0741,0.6734,5.332,51.8015,0.078,0.4167,0.5336,292.9062
20:44:38:078,0.4586,0.9296,5.1908,51.2126,0.1103,0.1216,0.6085,292.7031
20:44:38:098,0.9339,1.0852,5.4409,52.1229,0.1787,-0.2677,0.6034,292.25
20:44:38:122,1.2678,1.1726,6.0359,52.4225,0.2453,-0.671,0.5544,291.6562
20:44:38:140,1.6114,1.1486,7.16,52.711,0.3156,-0.9216,0.4668,290.6406
20:44:38:157,1.6569,0.9535,8.2098,52.304,0.3475,-0.8973,0.3587,290
20:44:38:177,1.4342,0.8829,8.8467,53.1196,0.3132,-0.696,0.2913,289.4219
20:44:38:197,1.5851,0.823,9.0909,51.2672,0.2091,-0.4712,0.1917,289
20:44:38:223,1.718,0.847,9.2046,52.8609,0.0189,-0.3476,0.0439,288.6406
20:44:38:240,1.7311,0.8087,9.723,52.7218,-0.2037,-0.3538,-0.1135,288.375
20:44:38:259,1.931,0.2652,10.8878,53.7178,-0.3718,-0.4206,-0.2453,288.25
20:44:38:278,2.0867,-0.6147,12.2297,53.1339,-0.4506,-0.3905,-0.268,288.2969
20:44:38:298,2.6613,-1.218,12.8594,51.4889,-0.481,-0.2976,-0.2299,288.5312
20:44:38:322,3.6201,-1.4323,12.3267,53.8419,-0.6392,-0.353,-0.3186,288.8594
20:44:38:342,3.6261,-0.7572,12.3075,52.6571,-0.9574,-0.5748,-0.5266,289.125
20:44:38:357,2.3632,-0.5573,14.4252,54.2393,-1.1002,-0.4781,-0.6957,289.4375
20:44:38:378,0.8967,-1.394,17.1091,53.7505,-0.7547,0.2319,-0.5889,289.6406
20:44:38:398,0.455,-2.4594,16.2484,54.2583,-0.1939,1.0092,-0.1963,290.2656
20:44:38:422,1.6425,-2.6091,12.7074,53.9848,0.1398,1.2225,0.2284,291.0625
20:44:38:440,3.4681,-1.8669,9.2884,53.6312,0.1041,0.8332,0.4101,291.7656
20:44:38:458,4.2067,-0.3286,7.5862,54.9532,-0.0985,0.2646,0.2923,292.0312
20:44:38:478,3.9841,0.8087,7.6089,54.8348,-0.2099,-0.1152,-0.0161,291.5938
20:44:38:498,3.3257,1.0325,7.9548,54.9259,-0.172,-0.0976,-0.3447,291.1719
20:44:38:522,1.4881,0.8254,6.146,54.1535,-0.139,0.1453,-0.5354,290.9844
20:44:38:541,0.886,0.9894,5.271,53.944,-0.1808,0.3663,-0.5487,291.2031
20:44:38:558,0.6729,1.3055,5.1333,52.8273,-0.2448,0.4135,-0.4597,291.7344
20:44:38:578,0.9674,1.5042,5.5547,54.664,-0.2415,0.2862,-0.3284,292.375
20:44:38:596,1.4247,1.6706,6.0275,53.4954,-0.1161,0.0526,-0.2107,292.9531
20:44:38:617,1.7359,1.7651,6.4441,55.643,0.0722,-0.2068,-0.1572,293.4219
20:44:38:641,1.8029,1.8501,6.9361,54.6124,0.2405,-0.4749,-0.1287,293.7188
20:44:38:660,2.2315,1.8705,8.1536,53.1838,0.347,-0.7588,-0.0201,293.9219
20:44:38:678,3.3041,1.8753,9.4859,53.3778,0.4253,-0.8869,0.1677,294.0625
20:44:38:700,4.1421,2.4044,10.0318,55.5746,0.5137,-0.7937,0.2559,294.1406
20:44:38:723,4.5575,2.9179,10.1168,54.4023,0.5744,-0.6574,0.1099,294.0312
20:44:38:741,4.2762,2.8246,10.5119,54.4226,0.5079,-0.5564,-0.2539,293.7344
20:44:38:757,3.2706,2.2691,11.7257,54.9842,0.293,-0.3985,-0.6541,293.4375
20:44:38:777,2.3548,1.3701,12.9013,54.2746,0.0751,-0.092,-0.8707,293.7031
20:44:38:796,1.8353,0.598,13.3095,53.3279,-0.032,0.2391,-0.9069,294.3906
20:44:38:817,1.6988,0.1347,12.6499,55.2598,-0.0685,0.4444,-0.856,295.3906
20:44:38:844,0.8979,0.5573,12.7492,54.3733,-0.2136,0.3096,-0.8161,296.4375
20:44:38:859,0.0253,0.501,15.7097,54.6403,-0.486,-0.2728,-0.7162,297.375
20:44:38:879,-0.6775,-0.2113,18.6545,54.9062,-0.4522,-0.606,-0.5423,298.3125
20:44:38:899,-0.9157,-0.9702,18.032,53.0179,0.1092,-0.3405,-0.2635,298.75
20:44:38:919,-0.3566,-1.0373,14.2277,53.0179,0.8221,0.1634,0.1291,299.4844
20:44:38:938,0.2024,-0.6027,10.974,53.8921,1.106,0.3565,0.434,299.9531
20:44:38:956,0.3269,-0.2077,9.9732,53.4827,0.9191,0.1512,0.5992,300
20:44:38:978,0.6023,0.0245,10.4867,52.5587,0.6192,-0.1194,0.7363,299.625
20:44:38:998,1.0129,0.2029,10.5574,53.7458,0.5406,-0.1815,0.8583,299.0156
20:44:39:022,1.4187,0.3334,9.0909,55.4872,0.7201,-0.0462,0.9342,298.2188
20:44:39:040,1.6318,0.3956,7.0056,55.2769,0.9358,0.1261,0.9547,296.7656
20:44:39:058,1.6306,0.4675,5.174,53.9346,1.0344,0.2146,0.9555,295.7344
20:44:39:084,1.6126,0.6147,3.9434,54.6072,1.0093,0.2153,0.9552,294.5938
20:44:39:097,1.7742,0.6111,3.3293,55.306,0.9071,0.1456,0.9507,293.4531
20:44:39:118,1.8209,0.5836,2.9977,55.1029,0.7755,0.0662,0.9147,292.2969
20:44:39:142,1.9011,0.5908,3.1688,54.6282,0.6136,-0.0345,0.8631,291.2344
20:44:39:160,1.9669,0.7165,3.838,53.5875,0.416,-0.141,0.8167,290.1562
20:44:39:180,2.1417,0.7368,4.7454,54.5451,0.2525,-0.2414,0.7648,289.1406
20:44:39:198,2.2614,0.5381,5.0878,54.0326,0.1768,-0.3775,0.6838,288.25
20:44:39:225,1.8269,0.8326,5.4026,52.0906,-0.1744,-0.7903,0.6612,287.375
20:44:39:241,2.046,1.072,7.051,55.1699,-0.4043,-0.9905,0.7219,287.375
20:44:39:259,2.9246,0.9894,9.6069,55.7396,-0.4826,-1.0028,0.6476,286
20:44:39:290,3.5459,0.9583,12.2249,55.4544,-0.4104,-0.6963,0.5118,286
20:44:39:308,4.3013,0.7452,13.5489,55.2429,-0.3286,-0.1556,0.3067,284.6094
20:44:39:326,4.5886,0.7356,13.282,55.5399,-0.4061,0.455,0.0604,284
20:44:39:341,4.2845,0.756,12.3722,54.5417,-0.6053,0.9725,-0.1039,283.5312
20:44:39:359,4.4809,0.4459,11.357,54.7015,-0.8413,1.2425,-0.2762,283.2188
20:44:39:377,4.4019,0.6746,10.537,55.492,-1.1332,1.1999,-0.4592,283.1719
20:44:39:397,3.6824,1.5125,10.9177,55.816,-1.3944,0.773,-0.5758,283.2812
20:44:39:419,3.4466,1.6418,13.7524,54.4476,-1.2679,0.3863,-0.6208,283.5938
20:44:39:441,3.3616,0.6734,16.7045,55.0523,-0.6243,0.4143,-0.5047,284.1406
20:44:39:460,3.6453,-0.5082,16.5141,54.9222,0.151,0.683,-0.2166,284.8125
20:44:39:476,4.3636,-0.7632,13.4855,56.2259,0.5827,0.8122,0.0457,285.5781
20:44:39:498,5.0579,-0.0305,10.2389,54.125,0.5787,0.6915,0.0796,286.1875
20:44:39:516,5.2231,1.0481,8.0901,53.8702,0.29,0.4337,-0.1471,286.4219
20:44:39:542,4.8077,1.4695,7.4664,54.4143,-0.0234,0.3485,-0.4882,286.3438
20:44:39:558,3.7901,1.2312,7.561,55.3229,-0.1531,0.5078,-0.7607,286.2344
20:44:39:577,2.4518,0.8338,7.1157,55.3086,-0.0945,0.7301,-0.8579,286.9219
20:44:39:597,1.2367,0.6015,5.9282,55.5841,0.028,0.806,-0.7769,287.3125
20:44:39:625,0.5436,0.519,4.6257,55.4322,0.1143,0.6359,-0.5844,288.2656
20:44:39:642,0.4299,0.6028,3.7051,56.6234,0.1276,0.303,-0.374,289.2031
20:44:39:657,0.7399,0.9092,3.4861,54.1525,0.0905,-0.0981,-0.2296,289.9531
20:44:39:682,1.2092,1.2264,4.0176,54.2769,0.0719,-0.4877,-0.2113,290.4844
20:44:39:695,1.518,1.418,4.8627,53.1501,0.0469,-0.7809,-0.2999,290.8125
20:44:39:717,1.5432,1.552,5.757,54.0077,-0.0455,-0.9141,-0.4075,291.0625
20:44:39:739,1.4199,1.4826,7.1468,54.7509,-0.1497,-0.8598,-0.4653,291.3438
20:44:39:813,1.1757,1.388,8.6516,55.4967,-0.2141,-0.6198,-0.4741,291.7656
20:44:39:813,0.9015,1.5592,9.6883,53.7327,-0.2727,-0.2835,-0.4504,292.2969
20:44:39:813,0.8632,1.8837,10.3227,53.4809,-0.3587,0.022,-0.4802,292.8281
20:44:39:825,0.8955,2.1685,10.7106,54.7509,-0.514,0.2699,-0.5607,293.3594
20:44:39:841,0.5831,2.1985,11.3343,54.0603,-0.706,0.4367,-0.5908,293.625
20:44:39:858,0.1725,1.9088,12.7073,54.6588,-0.7827,0.5461,-0.5053,294.1875
20:44:39:878,0.4012,1.345,13.853,53.2741,-0.718,0.5267,-0.3724,294.7969
20:44:39:898,0.8489,1.1965,14.0505,53.402,-0.7164,0.1283,-0.2453,295.7969
20:44:39:923,0.3509,0.6195,17.9123,52.6616,-0.6818,-0.4273,-0.093,296.3125
20:44:39:941,-0.1208,-0.0018,19.0304,53.9592,-0.302,-0.6475,0.1251,296.6562
20:44:39:957,0.3174,-0.5106,17.0995,53.374,0.3715,-0.4299,0.4511,296.8281
20:44:39:976,1.3098,-0.5441,13.0844,54.9683,0.9505,0.035,0.7368,296.8125
20:44:39:996,1.9777,-0.4651,9.9061,51.4075,1.086,0.2833,0.8175,296.4844
20:44:40:018,1.8113,-0.3585,8.7078,50.8935,0.8117,0.2436,0.7549,295.7656
20:44:40:039,1.5396,-0.4328,8.9089,52.6509,0.4147,0.1285,0.7241,294.8438
20:44:40:056,1.2164,-0.3262,9.1699,50.3366,0.2059,0.0313,0.7515,293.9688
20:44:40:079,1.3756,-0.2125,8.5821,50.2005,0.2653,-0.0262,0.8372,293.125
20:44:40:096,1.6306,0.0054,7.1923,49.7652,0.4565,-0.0712,0.9267,292.2969
20:44:40:117,1.8808,0.2819,5.8647,50.8852,0.5787,-0.1495,0.9898,291.3906
20:44:40:140,2.0268,0.3549,5.3057,50.439,0.5651,-0.2513,1.013,290.4219
20:44:40:157,2.022,0.3717,5.2937,47.6025,0.4661,-0.2419,1.0077,289.3281
20:44:40:176,2.1094,0.5932,5.4002,48.6178,0.3492,-0.0901,1.0066,288.1719
20:44:40:198,2.4805,0.8577,5.3176,47.6753,0.2903,0.0582,0.9808,286.5
20:44:40:224,2.6373,1.0732,5.2279,48.8737,0.2914,0.0332,0.8575,285.3438
20:44:40:242,2.5021,1.0696,5.2542,47.5536,0.2844,-0.1301,0.6774,284.2031
20:44:40:259,2.3201,0.8218,5.7199,46.739,0.2242,-0.3194,0.5174,283.2812
20:44:40:281,1.9646,0.5776,6.9098,46.5295,0.081,-0.4411,0.4029,282.8594
20:44:40:295,1.5719,0.4124,8.1955,46.1145,-0.0778,-0.3594,0.3699,282.1875
20:44:40:316,1.4594,0.8254,9.1184,46.9502,-0.2013,-0.1543,0.4042,281.6875
20:44:40:340,2.0029,1.1905,10.0258,45.8763,-0.2775,-0.1282,0.4135,281.2969
20:44:40:359,2.7666,1.0672,10.9296,44.4699,-0.3095,-0.3474,0.2774,280.875
20:44:40:377,3.2455,0.4735,11.8394,45.0776,-0.3787,-0.5908,0.0303,280.1719
20:44:40:399,3.3041,-0.3166,13.2472,44.0996,-0.5971,-0.6433,-0.203,279.9062
20:44:40:424,3.1796,-0.8745,14.3965,44.725,-0.857,-0.3937,-0.3292,279.9062
20:44:40:443,2.7175,-0.7093,14.8849,45.6356,-1.0168,0.0031,-0.3599,280.1875
20:44:40:456,1.9897,-0.2867,15.3038,45.585,-1.0075,0.2513,-0.334,280.5938
20:44:40:477,1.2774,-0.5261,15.8018,43.6538,-0.799,0.3458,-0.2754,281.0625
20:44:40:497,1.7024,-1.4563,14.7604,43.7621,-0.3116,0.463,-0.0949,281.5
20:44:40:523,3.2957,-1.8741,12.5314,44.3112,0.2559,0.5544,0.197,281.8438
20:44:40:541,5.3919,-1.734,10.3814,43.0318,0.6083,0.4899,0.4734,281.9844
20:44:40:557,6.5483,-0.8457,8.7054,43.3911,0.6946,0.1994,0.519,281.75
20:44:40:583,6.3053,0.1694,7.8172,43.2523,0.5308,-0.0606,0.2303,280.6094
20:44:40:597,5.2889,0.3945,7.6735,43.6316,-0.0136,0.1794,-0.6432,280.3281
20:44:40:619,4.1564,0.1933,7.2294,42.1247,-0.1177,0.5709,-0.8981,280.5781
20:44:40:643,3.1365,0.1131,6.1748,41.477,-0.1832,0.8598,-0.9743,280.5781
20:44:40:659,2.2279,0.2843,5.1297,41.0279,-0.2264,0.8881,-0.905,281.7656
20:44:40:677,1.7359,0.5621,4.6652,42.1572,-0.2155,0.7086,-0.7711,281.7656
20:44:40:696,1.6988,0.835,4.7179,42.7368,-0.1478,0.4199,-0.6541,283.4219
20:44:40:718,1.8508,1.1175,4.9106,41.1804,-0.0799,0.1315,-0.6027,284.4062
20:44:40:739,1.9263,1.4371,5.1369,40.898,-0.0549,-0.1535,-0.6081,285.2969
20:44:40:759,2.107,1.6682,5.7522,40.8315,-0.0762,-0.3801,-0.6733,286.0469
20:44:40:776,2.2734,1.7975,6.6847,39.1928,-0.1057,-0.4294,-0.8038,286.7344
20:44:40:796,2.0256,1.7352,7.5658,41.1546,-0.1782,-0.2784,-0.9197,287.3906
20:44:40:815,1.4785,1.7232,8.3284,38.9155,-0.3087,-0.0289,-0.9681,288.1562
20:44:40:840,1.1721,1.7149,9.1484,41.9503,-0.4735,0.2287,-0.9966,289.0781
20:44:40:858,0.7208,1.6107,10.2533,40.1008,-0.5878,0.43,-0.9753,290.0781
20:44:40:881,0.1928,1.3785,11.4983,38.1751,-0.5537,0.5679,-0.8651,291.1875
20:44:40:895,-0.1495,0.9439,12.1866,39.8026,-0.428,0.6044,-0.6619,292.3281
20:44:40:916,0.0875,0.5573,12.1064,40.0064,-0.3806,0.4556,-0.4312,294.4062
20:44:40:940,1.0141,0.5106,12.0406,38.4559,-0.5699,0.0742,-0.305,295.1875
20:44:40:961,1.3301,1.078,13.5812,39.3058,-0.873,-0.4821,-0.2909,295.6875
20:44:40:977,1.0548,1.0565,17.4682,37.6519,-0.7404,-0.5908,-0.2701,296.0156
20:44:40:996,0.7351,0.1083,20.1988,37.6519,-0.0205,-0.1085,-0.1585,296.1562
20:44:41:015,0.4478,-0.7979,18.3756,40.2298,0.7795,0.5144,0.0841,296.4375
20:44:41:040,0.7399,-1.0732,13.7871,37.7128,1.1295,0.8138,0.3054,296.6719
20:44:41:060,1.7371,-1.3378,9.796,39.1025,1.0014,0.671,0.3139,296.75
20:44:41:077,2.1298,-1.4096,7.2103,38.5841,0.5039,0.2739,0.2351,296.5469
20:44:41:098,1.5982,-0.9715,6.3759,40.9474,-0.0948,-0.1948,0.2095,296.2188
20:44:41:124,1.105,-0.6291,7.4305,40.8275,-0.4035,-0.6089,0.2213,295.9531
20:44:41:141,0.9291,-0.8589,9.0873,41.0034,-0.3044,-0.7125,0.3091,295.7188
20:44:41:157,0.5161,-1.0672,9.5123,40.9286,-0.017,-0.4654,0.5403,295.5938
20:44:41:177,0.2527,-0.72,8.2912,39.5814,0.2008,-0.1855,0.8082,295.3125
20:44:41:197,0.4179,0.0329,6.6668,39.7634,0.2655,-0.1122,0.9573,294.9531
20:44:41:217,0.8022,0.5178,5.6756,41.3068,0.2314,-0.1991,0.9808,294.3281
20:44:41:243,0.9853,0.6865,5.5774,40.6592,0.2336,-0.2896,0.9808,293.3906
20:44:41:260,1.2523,0.7141,5.7402,40.3701,0.3052,-0.3746,0.9834,291.7812
20:44:41:278,1.5348,0.829,5.6528,41.0476,0.3696,-0.4654,0.9539,290.6562
20:44:41:301,1.864,1.0433,5.5583,40.0999,0.379,-0.607,0.8695,289.5156
20:44:41:326,2.3548,1.1055,6.3292,40.2264,0.322,-0.757,0.7078,288.4531
20:44:41:344,2.0519,0.92,7.6891,41.5343,0.1614,-0.8696,0.5033,287.3906
20:44:41:361,1.7168,0.8506,9.292,42.4386,-0.0511,-0.8017,0.3398,286.4688
20:44:41:377,1.7359,0.9655,10.5166,40.8042,-0.1827,-0.6169,0.2199,285.75
20:44:41:396,2.113,0.7691,11.5462,41.3704,-0.2455,-0.5162,0.0519,285.2969
20:44:41:416,2.7798,-0.1299,12.596,41.646,-0.2977,-0.4763,-0.1623,284.9844
20:44:41:442,2.921,-0.8051,13.6483,41.3736,-0.396,-0.37,-0.3431,284.8281
20:44:41:460,3.1904,-1.315,14.0912,41.8006,-0.481,-0.0885,-0.4251,284.875
20:44:41:476,3.4645,-1.6993,13.2712,40.3844,-0.4748,0.2113,-0.4872,285.1875
20:44:41:495,2.8875,-1.2959,12.5936,42.9753,-0.5494,0.3938,-0.5852,285.6719
20:44:41:516,1.9717,-1.0636,13.9356,40.7418,-0.7406,0.3192,-0.6645,286.1875
20:44:41:539,0.9398,-1.7998,15.724,42.6152,-0.7289,0.3126,-0.6983,287.2188
20:44:41:560,0.9111,-3.0269,15.2596,40.6617,-0.3193,0.6095,-0.5242,288.0312
20:44:41:575,2.2507,-3.4052,12.3147,43.797,0.261,1.0135,-0.0975,288.8438
20:44:41:596,3.9434,-2.8042,9.5362,41.2458,0.6115,0.9957,0.3424,289.4844
20:44:41:617,4.7418,-1.2731,8.2661,41.7136,0.6338,0.5136,0.5635,289.6406
20:44:41:638,4.828,-0.1048,8.3451,40.7957,0.4778,-0.0435,0.5033,289.2812
20:44:41:656,4.269,0.2544,8.3116,42.0304,0.3665,-0.26,0.2162,289
20:44:41:679,3.5723,0.2688,7.3072,40.7611,0.3486,-0.0776,-0.0997,288.3594
20:44:41:695,2.8133,0.4304,5.654,42.0304,0.2914,0.3331,-0.3303,287.9062
20:44:41:715,2.0795,0.6458,4.3743,41.7468,0.1217,0.6806,-0.4573,287.8281
20:44:41:737,1.5815,0.8493,4.0032,42.0859,-0.0882,0.7794,-0.4896,288.0938
20:44:41:755,1.3672,1.0421,4.2702,42.6384,-0.2152,0.6747,-0.4419,288.5625
20:44:41:778,1.6018,1.2659,4.5754,41.1878,-0.2112,0.483,-0.3447,289.1406
20:44:41:795,1.9646,1.5688,4.901,42.1944,-0.1198,0.1898,-0.2808,289.6562
20:44:41:873,2.1561,1.7855,5.4864,42.4631,-0.0232,-0.1548,-0.2957,290.3125
20:44:41:873,2.1166,1.9375,6.6955,42.1946,0.0096,-0.4944,-0.3657,290.6406
20:44:41:874,1.8257,1.7005,8.0806,42.4972,0.0043,-0.6238,-0.4355,290.9531
20:44:41:876,1.469,1.6406,9.401,41.6961,0.0008,-0.5647,-0.4254,291.375
20:44:41:899,1.5803,1.9758,10.4317,42.5383,-0.0218,-0.3988,-0.3223,291.8438
20:44:41:926,2.2495,2.2045,11.3498,43.5787,-0.0884,-0.2472,-0.2728,292.2969
20:44:41:946,2.52,2.1135,12.7648,43.8406,-0.2261,-0.1532,-0.3697,292.6562
20:44:41:960,2.4374,1.643,14.5868,43.1038,-0.3561,0.0026,-0.5093,292.9531
20:44:41:976,2.4913,0.8936,15.2488,43.6615,-0.3071,0.2668,-0.5963,293.3594
20:44:42:000,2.6481,0.1167,13.7476,43.3674,-0.1491,0.5826,-0.6549,293.9531
20:44:42:024,1.8053,0.3394,12.748,44.0654,-0.5457,0.3506,-0.7069,294.6406
20:44:42:041,0.5927,0.1598,14.673,45.4533,-0.5702,0.1094,-0.6123,294.6406
20:44:42:057,-0.5829,-0.9643,16.7081,46.9262,-0.0216,0.2896,-0.3694,295.4219
20:44:42:076,-1.2269,-2.1805,14.9962,46.5449,0.6304,0.5967,0.0266,296.2188
20:44:42:099,-1.112,-2.4331,10.5945,46.0616,0.7526,0.4721,0.4141,297.0469
20:44:42:123,-0.3339,-2.0524,7.8782,45.3298,0.3611,-0.0155,0.6809,298.1719
20:44:42:143,0.7363,-1.3689,7.901,45.9857,-0.106,-0.5005,0.7885,298.1719
20:44:42:159,1.2643,-0.817,9.5697,44.6974,-0.2141,-0.8129,0.7669,297.7344
20:44:42:184,1.2068,-0.5417,10.64,47.5018,0.0368,-0.8552,0.7294,296.9531
20:44:42:194,0.9638,-0.4292,9.8187,45.696,0.2724,-0.6302,0.7842,296.0781
20:44:42:216,0.9003,-0.1897,8.2745,48.0036,0.3292,-0.2752,0.9198,295.1719
20:44:42:242,1.1793,0.1826,6.9194,47.6908,0.2855,0.0185,0.9984,294.2969
20:44:42:259,1.3672,0.726,6.0072,48.0374,0.2599,0.1267,0.9893,293.4219
20:44:42:277,1.5564,1.0325,5.4589,47.1578,0.2953,0.0494,0.9174,292.3594
20:44:42:296,1.7407,1.1654,5.1141,47.7211,0.3518,-0.1596,0.8226,291.2188
20:44:42:319,1.9514,1.2971,5.0088,48.5753,0.3712,-0.4283,0.7169,290.1406
20:44:42:341,2.0316,1.3617,5.3919,48.9491,0.3587,-0.6877,0.5962,289.0781
20:44:42:359,2.1142,1.3055,6.237,49.5877,0.334,-0.8505,0.4641,288.1406
20:44:42:375,2.2507,1.242,7.3551,48.7947,0.3041,-0.8425,0.3342,286.9844
20:44:42:396,2.2363,1.0373,8.3679,49.7516,0.2717,-0.7293,0.2327,286.3594
20:44:42:416,2.1765,0.7404,9.2992,51.7685,0.2245,-0.5474,0.1858,285.8906
20:44:42:441,2.3428,0.7057,9.8044,50.5165,0.1033,-0.4121,0.1272,285.5625
20:44:42:459,2.848,0.5656,10.4927,50.3924,-0.0898,-0.4132,0.0015,285.3281
20:44:42:484,3.4047,0.0545,11.7269,51.9173,-0.2682,-0.386,-0.1383,285.125
20:44:42:494,3.6728,-0.5979,13.0641,51.8508,-0.3803,-0.2398,-0.216,285.0469
20:44:42:519,3.7518,-1.06,14.1379,52.6809,-0.3353,0.0239,-0.2169,285.375
20:44:42:542,4.342,-1.716,13.6555,52.5495,-0.2509,0.2598,-0.2446,285.375
20:44:42:565,3.9493,-1.4048,11.9795,52.3282,-0.3419,0.2612,-0.2765,285.6562
20:44:42:575,2.7175,-0.6722,11.4588,52.5495,-0.4506,0.0875,-0.2794,285.9219
20:44:42:596,1.9562,-0.7775,12.3542,54.2641,-0.3403,-0.0092,-0.2421,286.25
20:44:42:617,2.0735,-1.6825,12.6631,53.0515,-0.0951,0.0116,-0.0818,286.4219
20:44:42:641,2.9785,-2.4774,11.8227,52.4257,0.0828,0.0236,0.1456,286.7656
20:44:42:660,3.9302,-2.4247,10.3383,53.3021,0.0554,-0.056,0.2915,287.0469
20:44:42:678,4.2355,-1.3857,9.3674,53.6711,-0.1425,-0.1096,0.2697,287.1094
20:44:42:702,4.0643,-0.3023,9.4524,52.511,-0.2693,0.0566,0.0926,286.8125
20:44:42:725,2.8696,0.3071,8.1979,54.6665,-0.1987,0.4034,-0.1694,286.5
20:44:42:743,2.0184,0.4914,6.5542,53.4256,-0.1124,0.7208,-0.3436,286.2812
20:44:42:760,1.6066,0.8577,5.4888,53.3936,-0.1273,0.8369,-0.3796,286.3438
20:44:42:776,1.2128,1.1642,5.4409,53.7122,-0.2064,0.7371,-0.386,286.6719
20:44:42:800,1.0392,1.2085,5.8432,54.2474,-0.1896,0.5118,-0.374,287.125
20:44:42:814,0.9506,1.2324,6.4525,54.6325,-0.037,0.2324,-0.3228,287.5938
20:44:42:836,1.2427,1.4132,6.6416,53.9438,0.1846,0.0676,-0.2193,288.0625
20:44:42:861,1.8472,1.673,6.468,54.2835,0.383,-0.0044,-0.1263,288.4688
20:44:42:879,2.1549,1.8513,6.5746,55.137,0.47,-0.0603,-0.1335,288.7812
20:44:42:896,2.2602,1.8633,7.2917,54.6945,0.4394,-0.1594,-0.2083,288.9531
20:44:42:917,2.1597,1.7173,8.4301,54.3782,0.3358,-0.1884,-0.2861,289.0781
20:44:42:941,2.2064,1.7424,9.5985,55.2833,0.2123,-0.055,-0.3157,289.25
20:44:42:958,3.1593,2.0764,10.6136,53.2077,0.0399,0.2731,-0.3441,289.6875
20:44:42:975,3.7746,2.4475,11.5593,54.8849,-0.3119,0.8537,-0.5649,290.0312
20:44:42:996,3.3304,2.0931,12.948,56.7293,-0.7891,1.523,-0.9825,290.4219
20:44:43:015,1.9143,0.7644,14.5221,54.5371,-1.1004,2.0258,-1.3807,291.0781
20:44:43:041,0.3449,-0.8098,14.1977,54.5371,-0.9563,2.2631,-1.5114,292.1875
20:44:43:060,-0.9504,-1.1833,11.873,56.1869,-0.5273,2.1515,-1.3071,292.9531
20:44:43:076,-1.9296,-0.6758,10.7178,54.9265,-0.2485,1.4694,-0.8701,294.7188
20:44:43:095,-1.2305,-0.647,12.7935,56.7815,-0.172,0.3288,-0.3876,296.4531
20:44:43:118,0.1605,-1.1594,14.1666,57.9016,0.0828,-0.4534,-0.0208,297.7344
20:44:43:142,1.1613,-1.4347,12.4883,56.783,0.5561,-0.5181,0.1802,298.4844
20:44:43:159,1.7886,-1.3785,9.2405,57.4143,0.8618,-0.3791,0.1911,298.6875
20:44:43:177,1.8508,-1.3485,7.634,58.0272,0.6591,-0.4709,0.03,298.5625
20:44:43:198,1.2834,-1.4168,8.077,58.7064,0.0762,-0.6691,-0.1599,298.3594
20:44:43:215,0.3772,-1.3797,9.3734,57.7178,-0.4871,-0.728,-0.2672,298.2812
20:44:43:235,-0.2178,-1.1378,10.1695,58.5237,-0.7321,-0.6353,-0.2131,298.4219
20:44:43:258,-0.529,-0.6351,10.0546,57.3334,-0.6788,-0.4326,-0.0374,298.6719
20:44:43:276,-0.3147,-0.1778,9.2848,58.6926,-0.4847,-0.1958,0.2034,298.8594
20:44:43:296,0.0432,0.2843,8.3786,59.2723,-0.2442,-0.047,0.4018,298.8594
20:44:43:316,0.3293,0.5609,7.555,58.9096,0.017,-0.0691,0.5219,298.6094
20:44:43:343,0.3868,0.665,7.2402,60.3817,0.2514,-0.2374,0.5755,298.1406
20:44:43:360,0.6537,0.5812,6.583,59.1526,0.4964,-0.3895,0.6082,297.5312
20:44:43:379,0.9123,0.6231,5.9473,58.1382,0.661,-0.4984,0.5922,296.9062
20:44:43:395,1.1338,0.592,5.9114,59.618,0.6421,-0.5668,0.523,296.2031
20:44:43:417,1.3433,0.568,6.5854,59.4292,0.3103,-0.7415,0.2721,295.5156
20:44:43:444,1.2056,0.4435,8.0183,58.5186,0.2392,-0.7431,0.1304,294.9375
20:44:43:460,0.7603,0.0784,9.4273,60.233,0.3132,-0.6193,0.0609,294.4375
20:44:43:478,0.5292,-0.428,9.9253,60.8676,0.3728,-0.3921,0.0585,294.0938
20:44:43:495,0.6884,-0.6243,9.4943,61.0394,0.2426,-0.2728,0.0652,293.9375
20:44:43:515,1.3708,-0.7548,9.4177,60.7607,-0.0671,-0.3695,-0.0243,293.8438
20:44:43:535,1.6126,-0.926,10.7106,60.2122,-0.3691,-0.5082,-0.1308,293.7656
20:44:43:558,1.5097,-1.1989,13.1168,61.7382,-0.4048,-0.4635,-0.1375,293.6719
20:44:43:576,1.8688,-1.7927,14.8609,61.131,-0.1105,-0.1631,-0.0579,293.7031
20:44:43:594,2.7846,-2.1733,13.1479,62.4524,0.0716,0.14,-0.064,293.8438
20:44:43:614,2.4925,-1.3222,10.1024,61.8782,-0.2064,0.169,-0.1758,294.0156
20:44:43:637,1.4247,-0.6554,9.6476,62.776,-0.5838,0.1317,-0.2994,294.0781
20:44:43:659,0.5352,-0.993,11.1882,60.8198,-0.6365,0.2532,-0.2725,294.1406
20:44:43:677,0.4335,-1.6658,11.855,61.8301,-0.4253,0.4247,-0.028,294.3594
20:44:43:694,1.9478,-2.0381,10.9476,61.4277,-0.2386,0.303,0.2271,294.7188
20:44:43:715,4.172,-1.6586,10.0378,61.6929,-0.2594,-0.1429,0.2274,295.0469
20:44:43:736,5.0663,-0.7009,10.7357,60.8186,-0.322,-0.3964,-0.0112,295.1094
20:44:43:760,4.3671,-0.1012,11.958,60.8276,-0.2365,-0.202,-0.3055,294.875
20:44:43:777,3.2538,-0.1634,11.9268,61.1636,-0.0509,0.3208,-0.4773,294.625
20:44:43:795,2.1549,-0.3442,10.1443,61.5076,0.0349,0.875,-0.4635,294.75
20:44:43:815,1.2307,-0.1203,8.1584,61.2777,0.041,1.2108,-0.2869,295.2344
20:44:43:841,0.8321,0.2676,6.7506,60.7515,0.1185,1.2284,-0.0645,295.8125
20:44:43:858,0.9003,0.5501,5.7342,60.9437,0.2756,0.9517,0.1097,296.3281
20:44:43:878,1.1062,0.7871,4.9729,60.5028,0.4016,0.528,0.2396,296.5938
20:44:43:944,1.5312,1.0397,4.5814,60.3234,0.4256,0.0928,0.3158,296.625
20:44:43:945,1.9466,1.3737,4.7466,60.8302,0.3372,-0.3639,0.2913,296.4688
20:44:43:945,2.0065,1.5592,5.994,60.5023,0.2543,-0.6105,0.2524,296.1719
20:44:43:957,2.0903,1.6083,7.8411,60.0685,0.3313,-0.5817,0.2521,295.8125
20:44:43:976,2.3117,1.5449,8.9592,59.8637,0.4823,-0.3652,0.2308,295.5156
20:44:43:996,2.1357,1.6742,8.7354,61.4499,0.4487,-0.1543,0.2053,295.2031
20:44:44:015,1.9023,2.0034,8.6288,61.2284,0.2144,-0.0188,0.1957,294.9062
20:44:44:036,2.0376,2.22,9.1424,60.6856,-0.0517,-0.0824,0.1336,294.7812
20:44:44:057,2.0172,2.1805,10.8183,61.0174,-0.1622,-0.2406,0.074,294.5625
20:44:44:076,2.2519,1.6981,12.9049,59.5586,-0.0519,-0.2158,0.0503,294.3281
20:44:44:096,2.6816,1.1989,13.9392,59.2803,0.135,0.0556,-0.0211,294.125
20:44:44:117,3.1389,0.8015,11.0697,59.6234,0.0424,0.2782,-0.264,294.0625
20:44:44:141,1.8664,0.6602,13.3203,59.7907,-0.5105,-0.0968,-0.492,294.0156
20:44:44:158,1.1817,-0.4459,17.2348,58.6304,-0.9119,-0.4094,-0.5188,294.1719
20:44:44:178,0.7256,-1.6299,17.1797,58.1927,-0.4884,-0.1698,-0.4211,294.6094
20:44:44:200,0.5364,-1.8549,12.3386,56.3506,0.3635,0.3533,-0.1945,295.2031
20:44:44:213,1.3612,-1.6873,8.6169,58.018,0.6637,0.4153,0.0777,295.75
20:44:44:235,2.1956,-1.485,8.2924,57.5046,0.2722,-0.0172,0.2133,296.1094
20:44:44:258,2.2926,-1.0732,10.1001,57.906,-0.3124,-0.4363,0.2183,296.1875
20:44:44:280,2.0005,-0.8015,11.7928,55.6946,-0.5454,-0.603,0.1909,296
20:44:44:295,1.3672,-0.7248,11.1092,55.9516,-0.2714,-0.4616,0.1629,295.7344
20:44:44:314,0.5999,-0.507,8.7114,57.6507,0.1686,-0.1828,0.2149,295.5
20:44:44:334,0.5149,-0.155,6.486,55.231,0.4306,0.0252,0.3954,295.2812
20:44:44:359,0.8441,0.2017,5.0962,56.2327,0.49,0.0715,0.5978,295.0625
20:44:44:376,1.2403,0.5477,4.506,53.6588,0.4461,-0.0611,0.702,294.4844
20:44:44:394,1.5085,0.7476,4.4521,53.6358,0.3702,-0.2741,0.719,293.7969
20:44:44:415,1.8317,0.9008,4.7622,56.5241,0.3047,-0.5157,0.686,292.9844
20:44:44:441,2.0017,0.9451,5.5726,53.3369,0.2455,-0.7674,0.6015,292.1875
20:44:44:459,1.8029,0.6399,6.9649,53.4378,0.1742,-0.9003,0.4884,291.3906
20:44:44:476,1.293,0.6877,8.2003,53.3198,0.0967,-0.7538,0.4258,290.6719
20:44:44:494,1.6018,1.2504,8.4756,52.6349,0.0546,-0.3319,0.4577,290.125
20:44:44:515,2.1944,1.6011,8.2733,52.6104,0.0501,-0.0451,0.3938,289.875
20:44:44:542,2.3644,1.667,8.3128,52.1312,0.0077,-0.0643,0.1597,289.3594
20:44:44:559,2.4554,1.2145,9.1316,52.9937,-0.1308,-0.2574,-0.0967,288.8438
20:44:44:578,2.5212,0.2747,10.7668,53.9539,-0.3289,-0.4784,-0.2994,288.5156
20:44:44:600,2.4506,-0.5752,12.8259,52.7055,-0.5329,-0.5519,-0.3854,288.4844
20:44:44:613,2.7989,-0.9762,14.7675,50.4365,-0.6775,-0.4028,-0.313,288.7344
20:44:44:636,4.2833,-1.4778,15.3685,52.1422,-0.6338,-0.1069,-0.1711,289.1719
20:44:44:659,4.6413,-1.315,14.187,51.8325,-0.4591,0.161,-0.1801,289.7656
20:44:44:677,3.7806,-1.0959,13.6351,52.1957,-0.3997,0.1727,-0.2994,290.0156
20:44:44:695,2.8408,-1.7879,14.43,48.9067,-0.4224,0.0612,-0.4019,290.25
20:44:44:719,2.7187,-3.3058,14.6083,50.2598,-0.2927,0.1485,-0.3841,291.125
20:44:44:742,3.1976,-4.0193,12.93,49.9404,0.134,1.058,0.1392,291.5938
20:44:44:759,4.2331,-3.7882,10.3335,48.097,0.1699,1.2127,0.3168,291.8125
20:44:44:776,4.7682,-2.4606,7.7442,49.674,0.0261,1.0803,0.2748,291.6875
20:44:44:795,4.5742,-0.8206,6.0862,50.8406,-0.2176,0.7863,0.0492,291.375
20:44:44:819,3.7159,0.2269,5.6013,50.1499,-0.4416,0.5661,-0.2187,291.1406
20:44:44:842,2.6373,0.7476,5.8982,49.795,-0.5268,0.4202,-0.3615,291.125
20:44:44:860,1.9909,1.1498,6.3974,47.6539,-0.445,0.3014,-0.3585,291.4062
20:44:44:879,1.7623,1.5927,6.662,50.6828,-0.2464,0.1224,-0.3197,291.4062
20:44:44:895,1.706,2.0177,6.7781,49.6962,0.0176,-0.072,-0.3175,291.8594
20:44:44:918,1.6102,2.0285,6.7218,49.3749,0.261,-0.0832,-0.3242,292.2656
20:44:44:942,1.5839,1.8106,6.2945,49.7138,0.3771,0.0979,-0.3202,292.6406
20:44:44:960,1.5132,1.6658,5.7067,48.8617,0.3627,0.3091,-0.3298,293
20:44:44:977,1.3516,1.5676,5.1524,49.6507,0.2309,0.3003,-0.3484,293.5312
20:44:44:994,0.9303,1.4563,5.5319,48.9441,0.0421,0.0177,-0.2949,293.7188
20:44:45:014,0.6956,1.3689,7.318,48.9282,-0.0658,-0.3428,-0.1633,294.1094
20:44:45:034,0.8285,1.0972,9.6918,48.9441,0.0035,-0.5495,-0.0041,294.5
20:44:45:059,1.0512,0.762,11.8706,46.1005,0.2333,-0.4989,0.181,294.8438
20:44:45:078,1.5587,0.6147,13.0904,48.0909,0.5177,-0.2928,0.3438,295.0156
20:44:45:094,2.1992,0.7141,13.0306,48.5752,0.7033,-0.0313,0.4212,294.9844
20:44:45:114,3.0982,1.0684,12.1387,48.5752,0.7063,0.1448,0.3326,294.75
20:44:45:134,3.9218,1.2719,11.4516,46.6636,0.5345,0.2417,0.0604,294.3438
20:44:45:161,4.7586,0.9008,10.9368,46.4848,0.1808,0.2641,-0.3519,293.8438
20:44:45:179,4.5515,0.7057,10.7357,46.3592,-0.3159,0.0108,-0.7492,293.4688
20:44:45:193,3.5818,0.155,12.4093,46.3387,-0.7148,-0.5293,-0.9727,293.5312
20:44:45:214,1.6856,-0.9272,16.629,46.5279,-0.5334,-0.5847,-0.8472,294.1875
20:44:45:233,0.4335,-2.2152,19.4494,46.3001,0.3555,0.0193,-0.4288,295.1562
20:44:45:258,0.8596,-3.07,15.9084,47.3178,1.0141,0.5722,-0.0371,296.25
20:44:45:275,1.6749,-2.627,10.3622,44.8334,0.8573,0.5642,0.1869,296.9844
20:44:45:294,2.131,-1.9279,7.5909,44.9212,0.2597,0.1778,0.2236,297.2344
20:44:45:317,1.5719,-1.382,8.0051,45.2039,-0.16,-0.1636,0.3081,297.1094
20:44:45:333,1.0344,-1.0576,9.3423,45.2189,-0.1025,-0.3468,0.4625,296.8594
20:44:45:355,1.0596,-0.7296,9.4357,45.2435,0.2413,-0.4294,0.6175,296.5781
20:44:45:376,1.2116,-0.319,8.0195,45.5315,0.5329,-0.4824,0.7549,296.1562
20:44:45:397,1.3923,0.1227,6.3819,45.152,0.6338,-0.5327,0.8628,295.5312
20:44:45:420,1.5983,0.5573,5.2362,45.8026,0.576,-0.5367,0.9155,294.7188
20:44:45:444,1.955,1.011,4.7203,45.1938,0.4581,-0.5234,0.8886,293.8281
20:44:45:462,2.4793,1.309,4.7155,44.7221,0.3356,-0.5245,0.7587,292.7656
20:44:45:480,2.7115,1.491,5.0375,45.2262,0.2232,-0.5224,0.5829,292.2344
20:44:45:495,2.7786,1.6035,5.4733,46.6452,0.1209,-0.5679,0.3962,291.2031
20:44:45:515,2.599,1.4072,7.5023,46.3591,0.0181,-0.5743,0.2335,290.0156
20:44:45:535,2.4673,1.3497,8.6671,43.9086,-0.0525,-0.4377,0.1208,289.4375
20:44:45:560,2.046,1.4323,9.5051,44.86,-0.0594,-0.1929,0.029,289.0938
20:44:45:580,1.8592,1.5748,9.5482,44.8599,0.0232,0.0883,-0.048,288.9219
20:44:45:598,2.1537,1.6131,8.6827,44.8573,0.1156,0.2753,-0.1481,288.8438
20:44:45:613,2.5475,1.3845,8.484,44.618,0.0328,0.1517,-0.3223,288.8594
20:44:45:633,3.0539,0.671,9.7804,45.9021,-0.2442,-0.1868,-0.5047,288.9375
20:44:45:661,3.1401,-0.0497,12.5924,43.9051,-0.579,-0.5202,-0.6621,289.1875
20:44:45:680,3.1054,-0.75,15.153,45.1291,-0.7795,-0.4781,-0.7015,289.6719
20:44:45:693,3.51,-1.2719,15.2524,45.8766,-0.7041,-0.0081,-0.6089,290.3438
20:44:45:715,3.17,-0.7763,14.072,44.4001,-0.5603,0.447,-0.4664,291.2031
20:44:45:733,2.672,-0.2448,13.6949,45.4684,-0.5156,0.6196,-0.3053,292.0312
20:44:45:760,2.4578,-0.5716,13.7955,45.2062,-0.3875,0.5866,-0.183,292.7031
20:44:45:778,2.7738,-1.1869,12.7325,46.284,-0.0506,0.5789,-0.0315,293.1719
20:44:45:795,3.9326,-1.5101,10.8578,45.9061,0.3169,0.5299,0.2154,293.5938
20:44:45:819,5.4493,-1.2588,8.9652,45.3814,0.5318,0.2686,0.4436,293.6562
20:44:45:833,6.2071,-0.3585,7.7238,45.4764,0.5185,-0.1524,0.458,293.4062
20:44:45:854,5.6109,0.4974,7.5371,45.0252,0.2932,-0.5258,0.192,292.875
20:44:45:878,4.1361,0.5369,7.9632,46.4239,0.0133,-0.5935,-0.2158,292.3281
20:44:45:893,2.8696,0.2292,7.7286,45.4739,-0.118,-0.292,-0.5109,292.0938
20:44:45:914,1.7491,0.1191,6.6021,46.4442,-0.1119,0.189,-0.6081,292.1562
20:44:45:935,0.947,0.24,5.3212,45.5255,-0.0756,0.5935,-0.5319,292.6094
20:44:45:960,0.6633,0.5034,4.7562,46.5288,-0.0727,0.695,-0.3287,293.2812
20:44:46:035,0.8632,0.7727,5.0387,45.2335,-0.098,0.6215,-0.0744,293.9219
20:44:46:036,1.3756,1.218,5.8372,44.636,-0.1041,0.4931,0.1477,294.4375
20:44:46:037,2.0579,1.8178,6.6344,44.4513,-0.0405,0.3584,0.2588,294.6719
20:44:46:038,2.3895,2.4583,7.2498,45.0885,0.078,0.1624,0.1983,294.6406
20:44:46:053,2.5511,2.6618,7.7956,45.0632,0.1864,-0.0976,0.0148,294.25
20:44:46:078,2.3464,2.5193,8.4205,44.0192,0.2453,-0.3351,-0.1905,294.0156
20:44:46:093,2.0974,2.22,9.1172,46.3469,0.2394,-0.4305,-0.3156,293.9844
20:44:46:114,2.0735,2.1542,9.8798,44.6217,0.1638,-0.3383,-0.3295,294.2031
20:44:46:134,2.21,2.1973,10.4592,44.5708,0.0764,-0.1181,-0.2986,294.5469
20:44:46:159,2.3213,2.3601,11.0841,44.898,-0.0365,0.1107,-0.3085,294.9219
20:44:46:180,2.429,2.2907,11.7066,44.7004,-0.164,0.3245,-0.3535,295.2344
20:44:46:194,2.4757,1.7125,12.3482,44.338,-0.2778,0.5096,-0.4416,295.5938
20:44:46:214,2.6673,1.1414,12.037,45.824,-0.5491,0.5437,-0.5881,296
20:44:46:234,2.0232,1.1714,13.0162,44.8216,-0.7784,0.1568,-0.5471,296
20:44:46:258,0.9207,0.7871,16.0999,45.1939,-0.5497,0.0428,-0.3449,296.5
20:44:46:275,0.394,0.0245,17.8465,43.7958,0.1883,0.3096,-0.0419,297.8125
20:44:46:293,0.9123,-0.671,15.4439,44.11,0.8562,0.5957,0.1975,297.8125
20:44:46:314,1.6401,-0.8457,10.9572,42.3991,0.967,0.4569,0.2796,298.4219
20:44:46:333,2.3177,-1.0074,7.9333,43.3126,0.5222,-0.003,0.1938,298.875
20:44:46:357,2.1477,-0.8972,7.4796,43.9307,-0.1452,-0.4337,0.1187,298.6562
20:44:46:379,1.4007,-0.5884,9.4488,43.2226,-0.4735,-0.6837,0.1445,298.3438
20:44:46:394,1.4271,-0.3837,11.5821,42.9326,-0.2211,-0.6949,0.189,298.125
20:44:46:413,1.5168,-0.3645,11.3714,42.6238,0.2418,-0.4558,0.2527,298
20:44:46:433,1.1266,-0.155,9.3315,41.7504,0.5326,-0.1114,0.4218,297.8438
20:44:46:454,0.965,0.094,6.9241,42.2225,0.5726,0.1421,0.6125,297.625
20:44:46:476,0.8979,0.4507,5.2542,43.1771,0.4738,0.2241,0.772,297.3281
20:44:46:493,1.2942,0.7524,4.4653,41.8105,0.3633,0.1578,0.8628,296.8594
20:44:46:514,1.9418,1.0181,4.2857,42.1537,0.2887,0.0111,0.8537,296.125
20:44:46:533,2.5595,1.333,4.3264,41.1121,0.2224,-0.199,0.7422,295.2344
20:44:46:559,3.0216,1.6969,4.5623,40.989,0.1188,-0.4947,0.5366,294.2344
20:44:46:579,3.1269,1.9543,5.4086,38.612,0.0037,-0.8225,0.3011,293.2969
20:44:46:594,3.0108,1.9052,6.9864,41.6906,-0.0762,-0.9556,0.1009,292.4531
20:44:46:613,2.684,1.667,8.569,38.7661,-0.1278,-0.7831,-0.0411,291.5156
20:44:46:633,2.1992,1.5137,9.808,40.5054,-0.16,-0.3783,-0.1156,291.4531
20:44:46:658,1.8652,1.5269,10.2186,38.8963,-0.2093,-0.0616,-0.1884,291.4531
20:44:46:674,1.876,1.4898,10.3179,39.0469,-0.3268,0.0172,-0.2898,291.5625
20:44:46:693,2.1705,1.1355,10.8219,39.3796,-0.4855,-0.1532,-0.4025,291.75
20:44:46:720,2.3093,0.4854,12.3458,37.7752,-0.6189,-0.3255,-0.4709,292.0312
20:44:46:732,1.9418,-0.3861,14.7975,39.4966,-0.5497,-0.1234,-0.3492,292.4531
20:44:46:753,2.4925,-1.4443,15.73,38.2142,-0.2802,0.2921,-0.1686,292.9844
20:44:46:776,2.5894,-1.4671,14.1762,37.9442,-0.1555,0.5051,-0.0161,293.5312
20:44:46:795,2.1226,-0.7081,12.8091,36.8706,-0.1899,0.4292,0.0822,293.8438
20:44:46:814,1.9921,-0.8912,13.3262,38.0895,-0.0698,0.3456,0.1592,293.9688
20:44:46:835,2.2626,-1.7543,13.4891,37.1691,0.2213,0.3927,0.3392,293.9375
20:44:46:862,3.0994,-2.3888,12.3374,38.2866,0.4874,0.3418,0.6095,293.8281
20:44:46:879,4.5156,-2.3242,10.5945,36.8598,0.6107,0.1312,0.7688,293.5625
20:44:46:896,5.4625,-1.2911,8.9748,37.2083,0.551,-0.1157,0.682,293.0312
20:44:46:914,4.4916,0.7572,7.3132,35.9107,0.379,-0.2217,0.3906,292.6406
20:44:46:934,3.7087,0.8637,6.9194,37.3591,0.2077,-0.137,0.0817,291.2969
20:44:46:960,3.1138,0.8625,6.2993,37.2352,0.0823,0.1208,-0.1439,290.6719
20:44:46:977,2.4661,1.0157,5.6121,36.155,-0.0365,0.4417,-0.2669,290.3906
20:44:46:994,2.0112,1.2157,5.4338,37.6358,-0.142,0.6287,-0.3015,290.4375
20:44:47:012,1.8101,1.2803,5.4457,37.5897,-0.131,0.6252,-0.2909,290.6719
20:44:47:033,1.7036,1.3952,5.4098,36.2142,-0.0096,0.4955,-0.2701,291
20:44:47:060,1.7694,1.6837,5.1333,36.5802,0.1244,0.3767,-0.224,291.3438
20:44:47:079,2.0352,2.1925,5.271,36.2285,0.1728,0.2151,-0.1844,291.6562
20:44:47:094,2.271,2.4714,6.1376,37.0451,0.1113,0.0217,-0.1857,291.9219
20:44:47:112,2.2806,2.6546,7.0546,38.0229,0.0352,-0.08,-0.2115,292.1406
20:44:47:133,2.2315,2.8258,8.2003,36.1765,-0.0266,-0.1887,-0.2302,292.3438
20:44:47:161,2.2483,2.9563,9.7158,36.1087,-0.0914,-0.2457,-0.2477,292.5781
20:44:47:174,2.459,3.0448,11.2648,36.1087,-0.1302,-0.2169,-0.2741,292.8125
20:44:47:196,2.6301,2.9323,12.1375,37.6835,-0.1004,-0.0638,-0.3503,293.0938
20:44:47:213,2.2842,2.6749,12.2848,36.1203,-0.0535,0.1434,-0.464,293.5469
20:44:47:235,1.5228,2.2871,12.6116,36.6694,-0.1119,0.3738,-0.5127,293.9531
20:44:47:261,1.2236,1.5963,13.1359,36.1118,-0.2122,0.544,-0.4398,294.4844
20:44:47:278,0.9662,1.0134,13.1,34.4882,-0.2408,0.5975,-0.3284,295.0625
20:44:47:293,-0.0945,1.2276,13.6902,36.1443,-0.3111,0.4596,-0.1785,295.3125
20:44:47:313,-0.0741,0.9846,15.9742,35.3264,-0.3752,0.0971,0.1448,295.7344
20:44:47:334,0.7818,0.1945,16.6937,34.5174,-0.0392,-0.0414,0.4916,296.0469
20:44:47:359,1.6737,-0.3681,13.993,34.2024,0.681,0.2111,0.732,296.0938
20:44:47:376,2.5559,-0.0952,9.2166,35.935,1.2781,0.5967,0.8719,295.7188
20:44:47:394,3.6549,0.2436,6.0778,36.0298,1.2533,0.5956,0.8282,294.5625
20:44:47:413,4.014,0.6782,5.6013,35.2736,0.6701,0.0934,0.5592,293.625
20:44:47:434,3.5172,0.8422,8.3523,35.1854,-0.1489,-0.7213,0.1885,292.6562
20:44:47:461,2.6457,0.4016,12.523,37.069,-0.7326,-1.3027,-0.1378,292.0312
20:44:47:476,1.8389,0.015,14.2696,33.6872,-0.6732,-1.2326,-0.2999,291.8438
20:44:47:496,1.1852,-0.2699,12.2656,34.6557,-0.093,-0.6552,-0.2619,292.0469
20:44:47:513,0.8884,-0.1035,8.8958,36.117,0.4703,-0.0377,-0.0469,292.4375
20:44:47:534,1.0224,0.2197,6.0694,34.3108,0.7358,0.4012,0.2822,292.75
20:44:47:560,1.2714,0.4435,4.1624,35.3741,0.7835,0.5088,0.5403,292.7812
20:44:47:579,1.5109,0.5956,3.0276,33.5349,0.7231,0.3134,0.6841,292.4375
20:44:47:595,1.7216,0.6937,2.8349,34.1875,0.6258,-0.1298,0.8053,291.7812
20:44:47:619,1.9059,0.8111,3.1736,35.8682,0.5561,-1.1546,0.9906,291
20:44:47:633,2.1166,1.0684,3.9039,36.6099,0.4935,-1.3538,0.9848,290.0781
20:44:47:654,2.526,1.1498,4.7383,35.653,0.3047,-1.2515,0.8785,289.0469
20:44:47:675,2.465,1.2312,5.7271,35.0102,-0.0378,-0.8062,0.7629,287.5
20:44:47:693,2.3668,1.8142,6.9541,34.2449,-0.4011,-0.1998,0.637,287.5
20:44:47:720,2.8289,2.4511,8.0171,35.4429,-0.6631,0.2577,0.3368,286.0469
20:44:47:732,2.9186,2.9826,8.5893,34.7669,-0.8916,0.3608,-0.0933,285.2344
20:44:47:755,2.9426,2.9084,9.1555,33.9766,-1.2328,0.19,-0.4786,284.5938
20:44:47:780,2.9103,2.1482,11.0099,32.9637,-1.6426,-0.1729,-0.692,284.25
20:44:47:798,2.4135,1.0062,15.3889,33.2248,-1.6608,-0.2401,-0.64,284.4062
20:44:47:813,2.295,-0.1251,19.2148,35.0245,-1.0386,0.2079,-0.3937,285.0469
20:44:47:832,2.7762,-0.659,17.8932,35.1759,-0.4003,0.5549,-0.1138,285.9375
20:44:47:852,2.9043,0.1239,14.509,34.9636,-0.212,0.4859,0.0923,286.8125
20:44:47:876,3.182,0.5357,13.3394,35.1323,-0.1715,0.3152,0.1137,287.3594
20:44:47:893,3.1162,0.0018,13.7907,36.1785,0.0754,0.373,0.1182,287.5156
20:44:47:912,3.4286,-0.8853,13.0461,34.9353,0.416,0.5517,0.205,287.4219
20:44:47:932,4.4821,-1.4922,10.956,33.5372,0.5907,0.4915,0.2772,287.3125
20:44:47:953,5.8839,-1.6107,8.5498,36.3731,0.4392,0.1871,0.2037,287.1875
20:44:47:974,6.2238,-0.659,6.8332,33.771,-0.02,-0.203,-0.0211,286.5938
20:44:47:995,5.6624,0.4447,6.972,34.3097,-0.4426,-0.3961,-0.3434,286.4375
20:44:48:013,4.9274,0.6889,8.2266,35.1922,-0.5409,-0.2076,-0.6581,286.3125
20:44:48:033,4.0786,0.4136,8.5402,34.5411,-0.3899,0.2508,-0.8435,286.5156
20:44:48:129,2.9342,0.319,7.4916,33.9029,-0.1867,0.6918,-0.8408,287.1406
20:44:48:129,1.9107,0.5692,5.7414,35.7357,-0.0652,0.8114,-0.7127,288.0469
20:44:48:130,1.7359,1.0014,4.4449,33.6986,-0.0687,0.6417,-0.6046,289
20:44:48:130,2.0723,1.406,4.2211,33.9237,-0.094,0.3032,-0.5644,289.9219
20:44:48:132,2.459,1.6514,4.8196,35.4072,-0.0695,-0.0819,-0.5689,290.6719
20:44:48:151,2.8037,1.9351,5.7187,35.6341,-0.0463,-0.3817,-0.6139,291.3125
20:44:48:175,2.9809,2.0225,7.0522,35.4073,0,-0.4406,-0.6808,291.9531
20:44:48:193,2.8241,1.9507,8.1248,35.546,0.0719,-0.3663,-0.7125,292.625
20:44:48:214,2.8301,2.3745,9.1998,34.9175,0.139,-0.158,-0.7231,293.3281
20:44:48:233,3.3867,3.1873,10.0019,36.5244,0.2493,0.12,-0.9463,293.7188
20:44:48:253,3.1892,3.4339,9.5314,34.9565,0.2312,0.2217,-1.3905,294.5312
20:44:48:279,-0.8247,1.388,10.4736,35.2876,-0.0613,0.3139,-1.5162,295.3438
20:44:48:295,-1.9344,0.7979,13.082,36.3328,-0.3667,0.5426,-1.134,297.1094
20:44:48:316,-0.9659,0.6746,14.1187,34.5932,-0.269,0.6995,-0.496,298.8438
20:44:48:333,0.4514,0.7967,12.5433,36.2668,0.0834,0.6716,-0.0243,300.4219
20:44:48:360,1.0117,1.497,12.5565,34.6281,0.0685,0.2889,0.1627,301.3281
20:44:48:377,1.6473,1.0972,16.1729,34.5249,-0.3268,-0.3634,0.2204,301.5781
20:44:48:393,1.6246,-0.2723,18.7982,35.4673,-0.3691,-0.509,0.1573,301.4844
20:44:48:411,1.2942,-1.491,17.0492,36.583,0.1345,-0.0566,0.127,301.2656
20:44:48:435,0.868,-1.7567,12.4548,36.1345,0.6533,0.6297,0.2327,301.0312
20:44:48:451,0.8094,-1.7041,8.9676,36.2285,0.7087,0.8979,0.3773,300.8906
20:44:48:472,0.5149,-1.4395,7.5921,34.9809,0.4176,0.6415,0.503,300.7031
20:44:48:493,0.3868,-1.2073,8.0889,35.2527,0.0573,0.1211,0.6806,300.3594
20:44:48:512,0.5903,-0.8374,8.9532,35.5643,-0.0668,-0.4275,0.9249,299.8438
20:44:48:536,1.22,-0.2173,8.8168,33.7267,0.1137,-0.7913,1.1467,299.1719
20:44:48:551,1.9418,0.5309,7.8902,34.8985,0.3691,-0.9269,1.2735,298.3125
20:44:48:572,2.5368,1.078,7.1396,36.302,0.523,-0.9043,1.2721,296.4375
20:44:48:599,2.6577,1.3138,6.3819,34.6735,0.6147,-0.766,1.1672,294.9844
20:44:48:613,2.52,1.3246,5.5331,33.6867,0.6823,-0.5743,1.0269,293.5938
20:44:48:634,2.508,1.3414,4.6509,34.7866,0.6868,-0.3631,0.9387,292.25
20:44:48:652,2.8468,1.5245,4.2355,33.9313,0.5875,-0.2116,0.8961,291.0625
20:44:48:676,3.3305,1.9148,4.2833,34.4572,0.4397,-0.2118,0.8364,290.5
20:44:48:693,3.6297,2.2583,5.0375,33.4408,0.2794,-0.3945,0.6798,289.4844
20:44:48:718,3.7506,2.3254,6.2262,34.1033,0.1233,-0.6238,0.4468,288.4531
20:44:48:731,3.7003,2.1614,7.8735,35.3342,-0.0192,-0.7421,0.1885,287.5625
20:44:48:752,3.5364,2.1039,9.9205,34.8727,-0.1326,-0.6148,-0.0382,286.9531
20:44:48:776,3.4382,2.1159,11.1775,33.5592,-0.1449,-0.2534,-0.2214,286.625
20:44:48:796,3.4035,1.8573,11.1331,36.1109,-0.0309,0.0476,-0.4334,286.5781
20:44:48:813,3.2598,1.2348,10.95,35.2746,0.0037,0.0012,-0.6587,286.7656
20:44:48:832,3.2359,0.4818,12.3135,36.2711,-0.2051,-0.2824,-0.7617,287.4062
20:44:48:853,3.4753,-0.319,14.4958,35.9152,-0.4866,-0.3381,-0.7111,288.1562
20:44:48:877,3.9553,-1.0564,14.0373,34.6528,-0.4583,0.0436,-0.6051,289.0625
20:44:48:892,3.364,-0.6327,11.6012,34.9461,-0.302,0.4098,-0.5282,289.8906
20:44:48:912,2.52,0.2652,10.8925,35.6864,-0.4107,0.3698,-0.4153,290.625
20:44:48:933,2.3764,0.1203,12.3303,35.5123,-0.6437,0.1962,-0.3074,291.25
20:44:48:952,2.793,-0.7643,12.7289,36.846,-0.5928,0.2319,-0.2376,291.7188
20:44:48:974,3.5651,-1.2528,11.2708,34.5091,-0.3409,0.4287,-0.126,292.125
20:44:48:994,4.7418,-1.0828,9.638,35.511,-0.1729,0.4785,0.0295,292.4375
20:44:49:013,5.2733,-0.2759,8.7629,36.6818,-0.3478,0.0377,-0.1146,292.5938
20:44:49:033,4.5982,0.4818,8.6983,37.0539,-0.5201,0.0625,-0.4001,292.5938
20:44:49:054,3.5651,0.4124,8.7366,37.0755,-0.6184,0.3882,-0.6241,292.5
20:44:49:077,2.5547,0.2005,8.0722,37.5364,-0.6623,0.8311,-0.7061,292.6562
20:44:49:096,1.6868,0.2855,6.8104,37.4601,-0.6932,1.1115,-0.6829,293.125
20:44:49:114,1.0727,0.568,5.8085,36.7525,-0.686,1.1003,-0.6009,293.875
20:44:49:132,0.7651,0.835,5.5032,35.6479,-0.5747,0.8915,-0.484,294.7344
20:44:49:150,0.6813,0.981,5.7079,36.9575,-0.3443,0.6367,-0.3425,295.5156
20:44:49:171,0.7148,1.1235,5.7857,36.7193,-0.0732,0.4092,-0.1897,296.25
20:44:49:194,1.1505,1.3988,5.66,37.7064,0.1425,0.1613,-0.1055,296.8438
20:44:49:213,1.4702,1.7675,5.6528,37.5284,0.2016,-0.1389,-0.1399,297.25
20:44:49:232,1.2415,2.0309,6.3124,37.1429,0.1089,-0.2821,-0.175,297.4844
20:44:49:251,0.7519,2.0441,7.6939,37.1429,-0.0101,-0.2201,-0.1189,297.6094
20:44:49:280,0.631,2.2009,9.3076,39.3709,-0.037,-0.0776,-0.0326,297.7656
20:44:49:294,1.123,2.6151,10.628,37.6569,0.0152,0.0207,-0.0637,297.9375
20:44:49:313,1.7287,2.6797,11.4372,38.8891,0.0549,0.0257,-0.2153,298.0625
20:44:49:331,1.8053,1.9926,11.934,38.0518,-0.0413,0.0281,-0.3487,298.0938
20:44:49:352,1.3828,1.0636,12.7995,37.4318,-0.2122,0.0822,-0.3343,298.1719
20:44:49:376,1.0631,0.1191,14.2181,38.5288,-0.2748,0.2596,-0.1583,298.6094
20:44:49:395,1.3959,-0.5884,14.6814,40.8783,-0.2858,0.4052,0.0487,299.0312
20:44:49:421,1.384,-0.3513,14.1726,38.5363,-0.3894,0.2726,0.274,299.3125
20:44:49:431,1.5827,-0.088,15.0968,39.3513,-0.359,0.0289,0.4412,299.3906
20:44:49:455,1.4606,-0.3202,16.8242,39.7732,0.1257,0.0622,0.5853,299.2188
20:44:49:481,1.141,-1.005,15.5433,38.7352,0.792,0.2353,0.7675,298.8281
20:44:49:499,1.5911,-1.1534,11.3606,39.5574,1.0136,0.1424,0.9294,298.25
20:44:49:515,2.5224,-0.5333,8.2206,38.489,0.7382,-0.357,0.9419,297.4844
20:44:49:532,3.3376,0.6961,7.7944,37.2711,0.2961,-0.9218,0.7304,296.5156
20:44:49:554,3.5004,1.4922,9.5015,38.5861,0.0778,-1.0806,0.3648,295.4688
20:44:49:575,3.0587,1.0756,10.707,39.4501,0.1931,-0.8358,0.054,294.4688
20:44:49:594,2.2148,0.5585,9.7553,39.2798,0.3665,-0.3788,-0.0762,294.0938
20:44:49:611,1.2966,0.3681,7.6484,38.4723,0.3971,0.0542,-0.0216,293.6562
20:44:49:632,0.8165,0.3992,5.6588,38.4733,0.3172,0.1879,0.0804,293.5938
20:44:49:657,0.777,0.6231,4.4474,39.022,0.172,0.0244,0.1483,293.6562
20:44:49:677,0.8668,0.8805,4.439,38.7031,0.0519,-0.1831,0.1896,293.6406
20:44:49:694,1.0308,0.9499,5.1536,39.6585,0.0655,-0.3453,0.1938,293.5
20:44:49:712,1.2834,0.5441,6.2083,37.1857,0.172,-0.4393,0.189,293.2969
20:44:49:734,1.439,0.6063,6.2825,38.7145,0.2623,-0.4345,0.2274,293.0625
20:44:49:751,1.6928,0.7512,6.7937,38.768,0.2602,-0.4733,0.2766,292.8594
20:44:49:773,1.937,0.8063,7.8232,38.9375,0.2021,-0.5588,0.2876,292.625
20:44:49:803,2.0819,0.7847,9.0394,39.9109,0.1188,-0.5759,0.2516,292.3281
20:44:49:811,2.1944,0.738,9.9564,40.7411,0.0149,-0.4483,0.1776,292
20:44:49:835,2.5727,0.4483,10.8411,39.8435,-0.1009,-0.3293,0.0748,291.6875
20:44:49:850,3.0539,-0.2065,11.8167,39.1933,-0.2354,-0.3008,-0.0563,291.4375
20:44:49:873,2.9198,-0.6961,12.584,40.2785,-0.3784,-0.2885,-0.1567,291.3125
20:44:49:900,3.0707,-1.2085,13.6171,41.5605,-0.5438,-0.2323,-0.1431,291.3125
20:44:49:915,3.7027,-1.9148,13.8206,39.9837,-0.6077,-0.0949,-0.0643,291.4688
20:44:49:931,3.3352,-1.1103,13.2987,41.429,-0.6027,0.0819,-0.0065,291.6875
20:44:49:951,2.8959,-0.4687,14.0229,39.8778,-0.6421,0.0814,0.0274,291.9062
20:44:49:976,2.5619,-0.8038,15.1123,41.2656,-0.5521,0.1118,-0.0283,291.9688
20:44:49:994,2.6613,-1.8034,13.8602,40.9746,-0.1819,0.426,-0.0597,291.9844
20:44:50:011,3.4765,-2.2547,11.2924,41.2642,0.212,0.7128,0.0468,292.0625
20:44:50:032,4.5455,-1.7591,9.298,40.5153,0.3326,0.6401,0.217,292.1562
20:44:50:054,4.9322,-0.404,9.0514,38.5945,0.1747,0.1906,0.2655,292.1094
20:44:50:078,4.3863,0.4232,9.9768,38.691,-0.0661,-0.1943,0.0804,291.875
20:44:50:094,3.6549,0.1945,9.7122,39.6843,-0.0919,-0.1058,-0.2235,291.7031
20:44:50:113,2.8253,0.0198,7.8088,41.161,0.0389,0.3219,-0.4398,291.4688
20:44:50:202,1.87,0.1155,5.6564,40.3131,0.0738,0.7911,-0.4991,291.5625
20:44:50:203,1.0871,0.3502,4.2857,40.0621,-0.0013,0.9978,-0.4129,291.9375
20:44:50:214,0.8165,0.6542,3.8751,39.7467,-0.074,0.8574,-0.2291,292.5156
20:44:50:214,1.2415,1.06,4.0092,38.4253,-0.0812,0.5528,-0.0083,293.0625
20:44:50:215,1.779,1.4288,4.3169,40.7071,-0.0392,0.2255,0.1461,293.4531
20:44:50:233,2.0998,1.8022,4.6628,41.5294,0.0003,-0.0414,0.1872,293.5781
20:44:50:252,2.3871,2.2703,5.4158,39.1374,-0.0173,-0.255,0.1674,293.4219
20:44:50:277,2.8289,2.6438,6.5854,39.1742,-0.0618,-0.4393,0.1541,293.2188
20:44:50:293,3.686,2.9155,8.5043,39.5173,-0.061,-0.6627,0.1901,293.0156
20:44:50:311,4.3731,3.0855,9.9013,39.5229,0.0519,-0.6214,0.1898,292.8438
20:44:50:331,4.2438,3.2699,10.0127,38.9165,0.2085,-0.337,0.0055,292.6094
20:44:50:352,3.6824,3.1681,10.203,38.7553,0.1819,-0.1671,-0.33,292.375
20:44:50:377,3.1269,2.2763,11.7975,39.3453,-0.065,-0.166,-0.664,292.3594
20:44:50:395,2.3991,0.9391,13.7273,39.1935,-0.3057,-0.0353,-0.8446,292.7188
20:44:50:412,1.6521,-0.0676,14.892,37.2014,-0.2743,0.7592,-0.5141,293.4531
20:44:50:434,1.7227,-0.665,14.5006,39.3391,-0.118,0.9669,-0.2573,293.4531
20:44:50:453,1.7766,-0.3681,12.7301,38.1529,-0.2099,0.798,-0.1066,294.4375
20:44:50:478,1.3205,0.228,12.5757,37.4091,-0.3625,0.2795,-0.0022,296.1406
20:44:50:501,0.8908,-0.1155,14.5102,38.0298,-0.1284,-0.1266,0.0995,296.2656
20:44:50:512,0.7914,-0.999,15.3146,38.4975,0.4466,-0.1413,0.2825,296.4375
20:44:50:531,1.3217,-1.5113,12.9504,37.2754,0.8027,-0.0424,0.4388,296.4375
20:44:50:551,2.1968,-1.3198,9.7421,37.8453,0.6605,-0.2217,0.4394,296.3281
20:44:50:581,2.9198,-0.9415,8.211,36.4509,0.188,-0.4574,0.2663,295.9844
20:44:50:599,2.854,-0.5453,8.4038,36.2661,-0.3057,-0.5074,0.0394,295.4688
20:44:50:615,2.1764,-0.4411,9.5769,35.574,-0.5201,-0.3516,-0.1047,294.9844
20:44:50:632,1.6234,-0.5944,10.2916,36.0579,-0.4394,-0.0139,-0.1156,294.6719
20:44:50:650,0.9386,-0.483,9.5817,35.138,-0.278,0.3301,-0.0017,294.625
20:44:50:670,0.4167,-0.2017,8.3786,35.2953,-0.1153,0.5576,0.2085,294.75
20:44:50:694,0.2587,0.088,7.2964,35.6776,0.082,0.5935,0.4364,294.8906
20:44:50:712,0.3988,0.3406,6.2897,35.9661,0.3063,0.4372,0.6311,294.9219
20:44:50:730,0.7686,0.5058,5.4086,35.5311,0.4863,0.1509,0.7778,294.6875
20:44:50:751,1.3241,0.6722,4.834,34.955,0.5915,-0.1847,0.8492,293.9062
20:44:50:778,1.9119,0.902,4.5455,34.6225,0.6088,-0.55,0.8125,293.0938
20:44:50:796,2.423,1.23,4.7622,33.5525,0.5036,-0.9202,0.6484,292.1406
20:44:50:814,2.7104,1.3102,5.7522,32.4279,0.2727,-1.1719,0.4061,291.2031
20:44:50:831,2.2303,0.9798,7.8172,34.6712,0.0258,-1.08,0.2497,290.3281
20:44:50:851,1.4127,0.6794,10.5669,33.1583,-0.0053,-0.6068,0.2503,289.7188
20:44:50:871,1.3205,0.5596,12.0466,33.3856,0.2005,-0.0611,0.2111,289.375
20:44:50:894,1.5863,0.416,11.2074,33.4611,0.2897,0.25,0.0945,289.0938
20:44:50:912,1.9119,0.2292,9.784,34.0966,0.0567,0.1842,-0.019,288.8125
20:44:50:934,2.198,-0.0832,9.9827,32.744,-0.3164,-0.1152,-0.1063,288.625
20:44:50:954,2.3021,-0.6817,12.122,34.3932,-0.4991,-0.2939,-0.1037,288.5781
20:44:50:978,2.9222,-1.4694,14.2025,33.5297,-0.4224,-0.158,-0.0363,288.6094
20:44:50:995,3.6237,-1.8609,14.2887,33.9583,-0.3337,0.1112,0.0133,288.7344
20:44:51:011,3.3149,-1.005,13.4902,34.543,-0.3577,0.2961,0.03,288.875
20:44:51:031,2.757,-0.2675,13.5884,32.7688,-0.3007,0.4883,-0.0107,288.9531
20:44:51:053,2.5631,-0.4746,13.7321,33.9048,-0.0386,0.7847,0.0186,288.9531
20:44:51:078,3.3963,-1.0624,12.1303,33.3031,0.2003,0.8532,0.091,288.9531
20:44:51:095,4.6425,-1.4,10.112,34.8464,0.2458,0.4833,0.1296,289
20:44:51:113,5.5223,-0.1526,8.9006,34.7736,0.0645,-0.1495,0.0282,288.9531
20:44:51:131,4.2714,0.1227,9.9025,33.0286,-0.1638,-0.4861,-0.2682,288.8281
20:44:51:154,3.1066,-0.1969,9.6931,34.3022,-0.1864,-0.2907,-0.5442,288.7031
20:44:51:178,2.0124,-0.2101,7.7633,34.2734,-0.0623,0.2593,-0.6334,288.8125
20:44:51:195,1.3097,0.1227,5.6325,33.7765,0.013,0.7296,-0.554,289.3125
20:44:51:213,0.8764,0.4818,4.281,35.5605,0.0115,0.8175,-0.3945,289.9688
20:44:51:230,0.7256,0.8182,3.8356,35.9144,-0.008,0.5546,-0.2288,290.6875
20:44:51:250,1.0524,1.1702,4.3671,34.9407,-0.0202,0.1498,-0.0789,291.25
20:44:51:270,1.4749,1.5269,5.0902,35.2717,0.0027,-0.1386,0.0181,291.5938
20:44:51:293,1.6856,1.8441,5.8551,34.9754,0.0546,-0.3144,0.0173,291.7812
20:44:51:310,1.8029,2.0417,6.6752,35.6603,0.0751,-0.4086,-0.0214,291.7969
20:44:51:335,1.8209,1.9854,7.9489,35.6603,0.0623,-0.4323,-0.0621,291.75
20:44:51:350,1.9215,1.8334,9.1615,38.0995,0.0727,-0.312,-0.0536,291.7812
20:44:51:370,2.2423,2.0716,9.887,35.437,0.1143,-0.1186,-0.0179,291.8438
20:44:51:394,2.6254,2.3038,10.6639,36.7531,0.1236,0.0398,-0.0547,291.8906
20:44:51:414,2.4877,2.2045,11.193,34.5906,0.1052,0.1749,-0.2169,291.9062
20:44:51:431,2.0256,1.7771,11.8598,37.0089,0.0304,0.2782,-0.3961,291.9219
20:44:51:451,1.858,1.2983,12.3805,33.9631,-0.0602,0.3893,-0.4432,292.0469
20:44:51:470,1.9263,1.0517,12.4655,36.997,-0.1153,0.4678,-0.3873,292.3906
20:44:51:492,2.4709,0.7308,11.9855,37.3767,-0.1888,0.4569,-0.338,292.9062
20:44:51:510,2.4721,0.6949,13.4867,35.7648,-0.4695,0.1778,-0.3519,293.3906
20:44:51:530,1.7251,0.1909,17.0145,36.2251,-0.7723,-0.2885,-0.3095,293.7969
20:44:51:551,0.868,-0.5094,18.706,36.8455,-0.5446,-0.3303,-0.1274,294.1875
20:44:51:571,0.8369,-0.9834,15.2141,34.8331,0.2831,0.1328,0.1925,294.5938
20:44:51:595,1.8472,-0.8709,10.0199,34.9028,0.9942,0.5339,0.5299,294.8594
20:44:51:612,2.9222,-0.6566,7.2749,37.1541,1.0408,0.3645,0.6838,294.6562
20:44:51:630,3.437,-0.3633,7.731,35.5656,0.5824,-0.2659,0.6452,294.0625
20:44:51:653,3.3089,-0.0712,10.2796,36.4954,0.0453,-0.8803,0.535,293.2812
20:44:51:678,2.9677,-0.07,11.8873,36.6139,-0.1329,-1.0963,0.4021,292.5781
20:44:51:693,2.4386,-0.1287,10.7896,35.846,0.1193,-0.8475,0.3017,291.9531
20:44:51:711,2.0412,-0.0353,8.5953,35.4011,0.4432,-0.4291,0.3139,291.5
20:44:51:730,1.8748,0.2688,6.1975,35.3839,0.6173,-0.0097,0.4159,291.1562
20:44:51:751,1.8173,0.7404,4.5024,35.2501,0.624,0.1653,0.4993,290.7812
20:44:51:777,2.0795,1.0193,3.7315,34.3186,0.535,0.0697,0.5182,290.2812
20:44:51:796,2.3021,1.2707,3.619,34.9682,0.4077,-0.1588,0.4708,289.7188
20:44:51:811,2.3955,1.4982,4.196,34.111,0.1087,-0.6497,0.2386,289.7188
