Time,Acc_X,Acc_Y,Acc_Z,Meg,Gyr_X,Gyr_Y,Gyr_Z,Ore
19:12:28:553,-1.5262,3.5751,6.3304,57.8302,-0.0005,-0.8819,0.3693,197.8125
19:12:28:571,-1.5441,3.3836,6.7601,57.9872,-0.3681,-0.517,0.225,197.8125
19:12:28:587,-1.1838,3.4016,7.3431,56.3206,-0.5659,-0.3301,0.1267,197.8125
19:12:28:604,-1.179,3.4399,8.2817,57.3312,-0.4943,-0.3322,0.0151,168.8594
19:12:28:625,-1.3239,3.4566,8.6683,57.3312,-0.2021,-0.4393,-0.0712,168.7031
19:12:28:661,-1.3598,3.6877,8.4133,57.1309,0.1209,-0.7037,-0.1742,168.6094
19:12:28:669,-1.2317,3.8828,7.968,56.1973,0.3214,-1.0385,-0.3327,168.8125
19:12:28:688,-0.942,3.7655,7.7633,56.6577,0.3374,-1.2201,-0.5218,168.9688
19:12:28:705,-0.6547,3.4638,7.877,56.8075,0.2602,-1.109,-0.6776,169.5
19:12:28:726,-0.4321,3.4195,8.5414,56.9357,0.224,-0.8169,-0.8267,170.3438
19:12:28:755,-0.9312,3.9259,8.9293,58.6947,0.2903,-0.5628,-0.8589,171.3906
19:12:28:771,-1.6268,4.2611,8.5091,57.6707,0.3523,-0.5868,-0.7695,171.8906
19:12:28:788,-1.7369,4.1521,7.7837,59.8305,0.2924,-0.9373,-0.656,173.0938
19:12:28:805,-1.3227,3.9439,7.9525,56.8005,0.2224,-1.0917,-0.6358,174.25
19:12:28:825,-0.8989,3.8565,8.5438,58.5695,0.2293,-0.9972,-0.696,175.3125
19:12:28:854,-0.9576,3.8289,9.2669,57.206,0.2991,-0.9189,-0.741,176.3125
19:12:28:873,-1.3239,3.404,9.9408,59.4782,0.4083,-0.888,-0.7223,177.3594
19:12:28:884,-1.0509,2.5935,10.464,57.397,0.5164,-0.8246,-0.7276,178.4688
19:12:28:908,-0.4775,1.7053,10.5502,58.2624,0.6024,-0.6201,-0.7854,179.5312
19:12:28:926,-0.6176,1.242,10.4233,59.0144,0.6581,-0.4744,-0.7572,180.6406
19:12:28:945,-1.2664,1.6406,10.1024,58.0639,0.5875,-0.5431,-0.5766,181.7344
19:12:28:965,-1.6196,2.1685,9.8594,57.9772,0.3939,-0.5402,-0.3609,183.3281
19:12:28:984,-2.0481,2.4223,10.0797,58.0806,0.1196,-0.4201,-0.1316,184.2812
19:12:29:005,-1.6974,2.9982,10.8315,59.4823,-0.1497,0.0422,0.1038,185
19:12:29:025,-0.9887,4.1821,10.5693,57.5964,-0.4788,0.7195,0.2258,185.4375
19:12:29:045,-0.8439,4.9686,9.8367,57.3924,-0.8165,1.2012,0.1605,185.5312
19:12:29:065,-0.5961,4.3245,10.0737,57.2697,-0.8517,0.9509,-0.0765,185.1875
19:12:29:084,-0.6571,3.4447,10.6435,57.848,-0.5396,0.2369,-0.2184,184.5938
19:12:29:106,-1.112,3.6949,10.4867,58.5664,-0.3193,-0.0872,-0.2278,184.1562
19:12:29:132,-0.9001,3.6817,9.3543,57.5591,-0.4461,-0.2491,-0.2824,184.1406
19:12:29:149,-0.5039,3.6051,9.0897,59.5158,-0.7507,-0.2076,-0.3268,184.3906
19:12:29:166,0.1282,3.1346,9.4764,58.1112,-0.8991,-0.0315,-0.3625,184.6875
19:12:29:185,0.2419,2.6127,9.2441,58.2085,-0.8085,0.1293,-0.3756,185.0938
19:12:29:207,0.2743,2.6618,7.1301,57.9242,-0.5598,0.2289,-0.3125,185.4844
19:12:29:225,0.5891,2.9658,6.0359,57.439,-0.3436,0.2217,-0.3095,185.8594
19:12:29:246,0.4395,3.1837,5.7223,56.8463,-0.2679,0.0742,-0.4272,186.1719
19:12:29:265,-0.1543,2.9754,6.1568,58.4937,-0.289,-0.1426,-0.5639,186.4219
19:12:29:285,-0.7086,2.7946,6.5614,57.9453,-0.2927,-0.2835,-0.6067,186.7812
19:12:29:305,-0.8989,2.9144,7.0522,59.2285,-0.3049,-0.3074,-0.5846,187.3125
19:12:29:327,-0.5398,3.1622,7.5383,57.3692,-0.3065,-0.2369,-0.5396,188.0469
19:12:29:351,-0.2381,3.4542,7.6664,58.95,-0.2757,-0.1098,-0.5806,188.7969
19:12:29:366,-0.7086,3.5332,7.725,58.3318,-0.2815,-0.0321,-0.7564,189.4375
19:12:29:385,-2.0697,3.0365,8.7258,57.5969,-0.3787,-0.1567,-0.9383,190.0781
19:12:29:407,-3.3602,2.4894,10.695,57.8901,-0.4786,-0.3604,-0.9364,190.8281
19:12:29:431,-3.8486,2.086,12.4607,58.9162,-0.4466,-0.4725,-0.6683,191.75
19:12:29:449,-4.0257,2.3385,13.9511,58.017,-0.3068,-0.4651,-0.2491,192.9062
19:12:29:465,-3.1255,2.7875,14.6215,57.3107,-0.0445,-0.0917,0.241,193.9062
19:12:29:485,-1.8781,3.1406,13.5657,57.3651,0.3558,0.2787,0.5925,194.5312
19:12:29:512,-1.2353,3.3465,12.1375,58.2301,0.608,0.4521,0.682,194.5781
19:12:29:532,-1.4268,3.3022,12.1279,57.2197,0.5113,0.2236,0.6037,194.0469
19:12:29:548,-1.0928,2.6498,13.1599,57.1583,0.2498,-0.1708,0.5374,192.8125
19:12:29:566,-0.8546,1.7927,14.1834,57.5154,0.1044,-0.3399,0.4934,192.1406
19:12:29:585,-1.2126,1.3042,14.7005,56.706,0.2527,-0.419,0.4362,191.5781
19:12:29:609,-0.8259,1.2408,13.5597,56.9282,0.5963,-0.2206,0.4846,191.0938
19:12:29:631,-0.3111,1.0157,10.6364,56.0498,0.8914,0.1924,0.5115,190.7188
19:12:29:652,-0.1244,1.2659,8.4074,57.999,0.9023,0.3139,0.4103,190.2344
19:12:29:669,-0.3099,1.339,7.7657,57.1359,0.6221,-0.0009,0.2479,189.6406
19:12:29:685,-0.3291,1.3785,8.2003,57.6291,0.2719,-0.4592,0.1376,189.1562
19:12:29:706,-0.2249,1.2145,8.4744,56.8186,0.0269,-0.806,0.0431,188.8906
19:12:29:733,0.2683,0.6961,9.0682,56.0241,-0.0815,-0.9532,-0.0541,188.8594
19:12:29:749,0.1378,0.6458,8.715,56.0244,-0.0506,-0.8073,-0.1596,189.0312
19:12:29:766,-0.5099,1.005,7.5718,56.1019,0.1095,-0.3863,-0.1625,189.1562
19:12:29:785,-0.5386,1.2923,5.6899,58.1998,0.3092,-0.1207,0.0037,189.5312
19:12:29:805,-0.3937,1.2193,4.5228,56.1333,0.3973,-0.1426,0.1837,189.9062
19:12:29:825,-1.0557,1.1726,4.3767,56.4257,0.3087,-0.3088,0.2724,190.0625
19:12:29:848,-1.3646,1.3258,5.6253,55.6798,0.1206,-0.4124,0.4252,189.9688
19:12:29:866,-0.7337,1.3509,6.5949,55.9234,-0.0229,-0.2217,0.6492,189.6406
19:12:29:884,-0.0166,1.9471,6.8954,54.6776,-0.0453,0.0484,0.8165,189.2969
19:12:29:905,0.4395,2.463,7.0798,56.0701,0.0692,0.0372,0.679,188.6094
19:12:29:925,0.4083,2.6701,7.5838,54.8152,0.1651,-0.0643,0.4814,188.6094
19:12:29:949,0.1067,2.6426,7.7585,54.7904,0.192,-0.1421,0.3243,187.6562
19:12:29:965,-0.4093,2.7276,7.8591,55.7488,0.0517,-0.194,0.2388,186.6875
19:12:29:985,-0.4727,2.8222,8.5079,54.5125,-0.273,-0.276,0.1496,185.9375
19:12:30:004,-0.4129,2.973,10.0773,55.2781,-0.746,-0.2643,-0.007,185.0625
19:12:30:024,-0.529,2.4379,12.0597,54.6323,-1.1595,-0.1085,-0.1141,184.8594
19:12:30:049,-0.4632,1.588,14.3773,54.0888,-1.306,0.1584,-0.0453,184.7656
19:12:30:069,0.479,0.8398,15.5696,53.2612,-1.1028,0.4082,0.0495,184.8906
19:12:30:085,1.5097,0.647,14.7257,53.2325,-0.7995,0.3885,-0.0017,185.1562
19:12:30:111,1.9131,1.0852,13.1874,53.637,-0.632,0.1445,-0.1982,185.125
19:12:30:123,1.8245,1.333,12.3159,51.9148,-0.6283,-0.0401,-0.4645,185
19:12:30:145,1.1302,0.9667,12.3937,53.2694,-0.6123,0.0494,-0.6302,185.0625
19:12:30:168,1.0021,0.0916,11.9628,50.8191,-0.4932,0.2388,-0.6153,185.4531
19:12:30:185,1.2188,-0.2735,10.2653,53.0227,-0.4088,0.2066,-0.5404,186.1406
19:12:30:206,1.5551,-0.0509,8.7928,52.3322,-0.4115,-0.1421,-0.4784,186.5
19:12:30:224,1.9286,0.2556,8.5953,51.5874,-0.465,-0.627,-0.5442,187.1406
19:12:30:247,1.469,0.4591,9.4943,50.6088,-0.4743,-0.794,-0.656,187.7344
19:12:30:266,0.9207,0.3921,9.9373,52.562,-0.429,-0.5903,-0.7098,188.3125
19:12:30:284,0.6441,0.3406,9.5458,50.8376,-0.3436,-0.2113,-0.7138,189.0156
19:12:30:306,0.3676,0.5046,8.4098,50.0401,-0.2679,0.0106,-0.6992,189.9219
19:12:30:324,0.0659,0.9523,7.1815,49.9909,-0.2237,-0.0694,-0.6954,190.8594
19:12:30:350,0.1019,1.2372,6.4585,49.4236,-0.1992,-0.2305,-0.7245,191.7188
19:12:30:369,-0.0609,1.2707,6.3124,48.6,-0.1558,-0.2608,-0.7159,192.4844
19:12:30:388,-0.4488,1.011,6.7458,50.8058,-0.0125,-0.259,-0.6446,193.7344
19:12:30:404,-0.5673,0.8374,6.8655,48.6408,0.1776,-0.1703,-0.5125,194.6094
19:12:30:424,-0.5015,1.1941,6.595,47.8786,0.2613,-0.0963,-0.395,195.4062
19:12:30:448,0.0923,1.9483,6.7302,48.8578,0.2554,-0.1157,-0.4078,196.0938
19:12:30:510,0.4694,2.4355,7.4126,49.4283,0.1481,-0.1759,-0.5892,196.625
19:12:30:511,-0.1112,2.2344,8.4636,48.1561,-0.0003,-0.154,-0.7223,197.0469
19:12:30:511,-0.93,1.7113,9.7014,46.804,-0.1545,-0.0622,-0.6611,197.625
19:12:30:525,-1.1802,1.3222,11.1703,46.8795,-0.2557,0.1754,-0.4757,198.4219
19:12:30:551,-1.5908,1.6418,13.0294,47.4864,-0.2085,0.5797,-0.2219,199.2188
19:12:30:566,-1.5334,1.5628,14.5629,47.4896,-0.0008,0.8772,0.062,199.8906
19:12:30:585,-0.8857,1.4695,14.9747,47.9736,0.3015,1.1091,0.3539,200.2344
19:12:30:609,-0.8857,1.8717,13.5944,47.89,0.5968,1.1975,0.6023,200.2031
19:12:30:625,-0.632,2.8449,12.2477,46.4676,0.722,1.1509,0.8332,199.8125
19:12:30:645,0.2383,2.8796,12.3506,45.0794,0.6205,0.7131,0.8865,199.0625
19:12:30:668,-0.3363,0.9691,12.9528,47.0848,0.4698,0.2561,0.5206,198.0469
19:12:30:689,-1.8135,-0.9188,12.1495,47.6125,0.5318,0.0835,0.2026,196.9062
19:12:30:704,-2.0433,-1.5568,10.5801,45.3224,0.6839,-0.0148,0.3427,195.9844
19:12:30:725,-0.7265,-1.309,9.5326,46.8137,0.685,-0.3141,0.6841,195.6094
19:12:30:749,0.3952,-0.8697,8.9413,45.8772,0.5225,-0.6758,0.8207,195.375
19:12:30:767,0.6585,-0.5142,8.4732,46.2475,0.2692,-0.9423,0.735,194.8281
19:12:30:791,0.6166,-0.2867,8.1117,47.0255,0.0115,-1.0979,0.6079,194.0469
19:12:30:803,0.3952,-0.0892,7.998,48.8586,-0.1774,-1.0843,0.5233,193.3281
19:12:30:825,0.4778,0.0138,7.7633,48.8587,-0.2682,-0.8393,0.5051,192.8281
19:12:30:850,0.807,0.2328,7.3192,46.4442,-0.2764,-0.415,0.5248,192.4375
19:12:30:871,0.3796,0.6339,6.9445,48.8312,-0.2032,-0.0587,0.4945,192.0938
19:12:30:886,0.3628,1.0241,6.3076,46.9293,-0.0442,0.2361,0.5046,191.6875
19:12:30:904,0.7268,1.2923,5.6672,46.3305,0.0842,0.3373,0.5493,191.1562
19:12:30:926,0.9769,1.5317,5.2949,46.7209,0.1443,0.2425,0.4985,190.5781
19:12:30:949,1.0655,1.6682,5.2087,47.8682,0.098,0.0707,0.3832,189.9375
19:12:30:968,0.88,1.6933,5.5211,47.6457,-0.0354,-0.1061,0.2503,188.9531
19:12:30:985,0.5173,1.6083,6.4226,47.0747,-0.212,-0.2749,0.1443,188.5
19:12:31:004,-0.043,1.4144,8.2601,46.4594,-0.3665,-0.4931,0.0998,188.25
19:12:31:024,0.0588,1.0804,10.5813,46.2688,-0.3657,-0.749,0.1464,188.1562
19:12:31:050,0.6406,0.7799,11.8383,48.7823,-0.1097,-0.8694,0.2332,188.1719
19:12:31:068,1.1936,0.7943,11.6048,47.5092,0.2519,-0.7799,0.2404,188.1719
19:12:31:084,1.8915,0.6255,11.7569,47.6268,0.371,-0.7682,0.1714,188.1094
19:12:31:104,2.4685,0.264,12.2932,46.6322,0.1601,-0.6542,0.0471,187.9688
19:12:31:125,2.6852,-0.3011,12.6152,47.6825,-0.2812,-0.1436,-0.0752,187.8906
19:12:31:152,2.7367,-0.7428,12.1878,46.4593,-0.7305,0.4928,-0.1689,187.9531
19:12:31:169,2.2614,-0.3466,11.9113,45.8893,-1.0717,0.8194,-0.2501,188.1094
19:12:31:188,2.1573,0.0353,12.6487,48.1891,-1.286,0.6095,-0.3636,188.1875
19:12:31:208,1.7742,-0.4591,13.7189,49.5107,-1.3513,0.2817,-0.5639,188.375
19:12:31:223,1.5599,-1.4934,14.0014,47.6011,-1.224,0.2662,-0.709,188.6719
19:12:31:244,1.8712,-1.9866,12.5553,47.7299,-0.9284,0.4883,-0.6214,189.2344
19:12:31:266,2.1262,-1.1079,10.4317,47.1296,-0.6402,0.6356,-0.4355,190.5
19:12:31:283,2.3117,-0.0724,9.0562,47.3401,-0.5023,0.4249,-0.3761,191.1719
19:12:31:304,1.8999,0.258,8.8108,48.3892,-0.5579,-0.1503,-0.8267,191.6094
19:12:31:323,0.9781,-0.0629,8.8515,49.273,-0.5508,-0.0177,-0.9466,191.6094
19:12:31:343,-0.1579,-0.4315,8.5151,49.8921,-0.4748,0.2811,-0.8653,192.0156
19:12:31:363,-1.0952,-0.422,7.6723,47.4931,-0.3569,0.5219,-0.6494,192.6562
19:12:31:383,-1.4005,-0.0868,6.7338,49.4589,-0.2442,0.5368,-0.4201,193.6562
19:12:31:403,-1.2569,0.3202,6.468,47.7957,-0.089,0.3877,-0.2603,195.7031
19:12:31:423,-1.0653,0.4411,6.5674,48.4752,0.126,0.2513,-0.1434,196.4219
19:12:31:443,-0.7684,0.4172,6.4549,49.8017,0.3297,0.2023,-0.0363,196.8438
19:12:31:464,-0.4763,0.5884,6.1113,50.5126,0.4248,0.1887,0.0188,197.1094
19:12:31:483,-0.1747,0.8338,5.8324,51.9222,0.355,0.0835,-0.0035,197.2344
19:12:31:503,0.1162,1.1151,6.486,49.7944,0.1835,-0.0835,-0.0837,197.25
19:12:31:523,0.1474,1.2061,8.1332,51.3394,0.0687,-0.2097,-0.1924,197.1875
19:12:31:543,-0.2345,0.9595,10.1719,50.7525,0.0916,-0.2329,-0.2648,197.2188
19:12:31:568,-0.7433,0.4926,12.286,50.9879,0.277,-0.0502,-0.2139,197.3906
19:12:31:583,-1.1204,0.2819,13.5118,51.7559,0.5329,0.1853,-0.0848,197.7031
19:12:31:603,-1.4448,0.4783,13.6447,51.3481,0.6701,0.3847,0.0987,197.9844
19:12:31:623,-1.6256,0.75,13.683,53.9446,0.6458,0.4977,0.328,198.1562
19:12:31:643,-1.543,0.9116,14.4551,53.7422,0.62,0.6918,0.6029,198.1562
19:12:31:663,-0.7014,1.1929,14.8095,54.6883,0.5862,0.989,0.866,197.9844
19:12:31:686,0.9027,1.752,13.7261,54.187,0.3534,1.0497,0.8609,197.5469
19:12:31:703,2.107,2.244,13.1886,54.8388,0.0575,0.817,0.3789,196.75
19:12:31:723,1.3852,1.4563,14.0385,54.4275,0.143,0.4891,-0.2177,195.6094
19:12:31:743,-0.5434,-0.5848,14.0445,55.6323,0.5649,0.2846,-0.3465,194.5156
19:12:31:763,-1.2772,-2.3361,12.1124,55.5414,0.8946,0.1405,-0.1029,193.9531
19:12:31:783,-1.3454,-2.6618,9.4464,55.5278,0.8434,-0.21,0.201,194.125
19:12:31:803,-1.2042,-1.9004,7.9656,56.2719,0.5161,-0.7207,0.4242,194.5781
19:12:31:822,-0.6978,-1.0457,7.9309,55.7318,0.1891,-1.145,0.4945,194.5469
19:12:31:844,0.0133,-0.6722,8.4002,55.0235,0.0032,-1.3426,0.4785,194.2812
19:12:31:864,0.3317,-0.3178,8.5773,54.5717,-0.0527,-1.2076,0.4812,193.9375
19:12:31:884,0.552,-0.0928,7.8986,55.5844,-0.0599,-0.8574,0.5089,193.625
19:12:31:904,0.6609,-0.2304,6.6189,55.2495,-0.0882,-0.5551,0.5933,193.3438
19:12:31:923,0.6094,-0.1335,5.4074,54.0882,-0.1332,-0.4065,0.739,192.9844
19:12:31:943,0.7531,0.3897,4.8172,55.6243,-0.1726,-0.4683,0.8506,192.5156
19:12:31:964,1.1769,0.9691,4.828,56.8296,-0.1851,-0.7293,0.7984,191.8594
19:12:31:983,1.4127,1.2468,6.9529,55.2389,-0.1742,-0.9937,0.5808,191.0156
19:12:32:003,1.1745,0.568,8.812,56.636,-0.1899,-1.0116,0.3411,190.2188
19:12:32:024,0.801,0.1562,10.1001,56.3558,-0.1963,-0.733,0.2524,189.5781
19:12:32:043,-0.1423,0.4423,10.3012,56.7601,-0.1462,-0.2406,0.339,189.2656
19:12:32:067,-0.1986,0.5525,10.8674,57.2881,-0.1084,0.2604,0.5358,189.1406
19:12:32:084,1.1661,0.6327,10.6687,56.8188,0.0615,0.7762,0.7275,188.9375
19:12:32:103,1.9514,1.0553,10.2952,55.7989,0.2514,0.8337,0.6689,188.0938
19:12:32:122,2.0053,0.8158,11.1367,56.6347,0.3023,0.3115,0.3129,187.625
19:12:32:143,1.7587,-0.4423,12.3662,56.7954,0.2921,-0.2638,-0.0872,186.6719
19:12:32:164,2.4386,-1.5054,12.669,56.7956,0.2581,-0.3977,-0.2137,185.9375
19:12:32:183,2.9833,-1.746,11.7545,58.1977,0.1806,-0.1429,-0.1495,185.8125
19:12:32:203,2.2219,-0.9894,11.375,55.805,-0.0482,0.0414,-0.1569,186.0469
19:12:32:223,1.4091,-0.9427,12.4188,55.9195,-0.3672,-0.0917,-0.2866,186.2969
19:12:32:243,1.2595,-1.995,12.948,57.1254,-0.5055,-0.1098,-0.3889,186.4375
19:12:32:264,1.7778,-2.7707,11.3067,55.2906,-0.3843,0.1999,-0.3087,186.6875
19:12:32:284,2.2411,-2.3553,8.8742,56.2194,-0.2897,0.5107,-0.0683,187.1719
19:12:32:302,2.8001,-1.0888,7.7274,54.9834,-0.485,0.3935,0.1882,187.6406
19:12:32:323,3.4849,-0.2101,7.9094,56.1917,-0.8432,-0.0587,0.2758,187.8281
19:12:32:342,3.4358,-0.0592,8.4289,53.437,-1.1465,-0.3857,0.1136,187.7031
19:12:32:366,2.5942,0.003,8.8706,55.1534,-1.3422,-0.3215,-0.1231,187.4219
19:12:32:384,1.8568,0.2316,9.0047,55.018,-1.326,-0.0265,-0.2355,187.3594
19:12:32:402,1.7646,0.3669,8.4948,53.3772,-1.0307,0.1631,-0.2411,187.6562
19:12:32:422,1.8245,0.4495,7.5981,54.0918,-0.5918,0.1797,-0.2744,188.0625
19:12:32:443,1.451,0.6925,6.8152,54.3229,-0.2333,0.0843,-0.3465,188.4062
19:12:32:464,0.9375,0.902,6.3651,53.6818,-0.0258,-0.0305,-0.3894,188.75
19:12:32:491,0.534,1.0864,6.5255,50.6801,0.0365,-0.0893,-0.391,189.6094
19:12:32:506,0.5244,1.4144,6.6764,52.4029,0.0631,0.1919,-0.2565,190.0469
19:12:32:576,1.1385,1.7532,6.5411,52.2122,0.0455,0.3059,-0.2757,190.4062
19:12:32:587,1.931,2.2847,6.5746,51.6063,-0.0296,0.2707,-0.4469,190.6875
19:12:32:588,2.3536,2.7372,7.4473,49.9294,-0.065,0.0822,-0.7479,190.9531
19:12:32:588,2.0555,2.5851,9.3423,51.1897,0.0908,-0.0478,-1.0352,191.4375
19:12:32:605,1.2367,1.7508,10.8231,49.8347,0.3601,-0.0134,-1.1492,192.2812
19:12:32:629,0.2276,0.7931,11.3343,49.5093,0.478,0.2798,-1.0358,192.8438
19:12:32:651,-0.8822,0.3322,11.77,49.1737,0.3731,0.6414,-0.6938,194.6875
19:12:32:669,-1.4867,0.1873,13.179,46.8497,0.2701,0.9078,-0.2483,195.8125
19:12:32:690,-0.9396,-0.3394,14.6862,47.6825,0.3705,1.0598,0.0876,196.5156
19:12:32:706,0.218,-0.9283,15.2093,47.8226,0.5856,1.0151,0.1983,196.6719
19:12:32:723,0.9351,-1.1366,14.351,45.765,0.535,0.4638,0.0844,196.6719
19:12:32:743,-0.3626,-0.89,14.6598,44.5557,0.1992,-0.3945,-0.0019,196.4375
19:12:32:769,-1.4244,-1.6394,17.3138,43.1893,0.0799,-0.6885,0.1613,196.0625
19:12:32:785,-0.6798,-3.1969,18.9825,43.8855,0.5052,0.0188,0.3973,195.8906
19:12:32:803,-0.3542,-3.9067,15.9479,42.3998,1.0631,0.9965,0.641,195.9375
19:12:32:822,-0.535,-3.2747,10.3371,41.2319,1.1239,1.2084,0.8497,195.8594
19:12:32:843,-0.687,-2.1398,6.5602,40.5481,0.7364,0.7158,1.0122,195.375
19:12:32:867,-1.0869,-0.8457,5.3751,41.2709,0.2384,-0.0331,1.1462,194.5156
19:12:32:883,-0.6679,-0.258,6.1808,38.6543,-0.0719,-0.5128,1.2423,193.3281
19:12:32:902,0.2443,-0.1,7.0714,38.3051,-0.0943,-0.6196,1.2852,192.0312
19:12:32:922,0.7699,0.2939,6.9768,36.9447,0.0748,-0.6041,1.2769,190.7969
19:12:32:944,1.1709,0.6458,6.6632,37.9671,0.319,-0.5335,1.2173,188.7812
19:12:32:967,1.269,0.9942,5.9581,38.1836,0.4898,-0.4102,1.1241,187.4219
19:12:32:986,1.4474,1.3438,5.2602,36.2499,0.4988,-0.3671,0.9802,186.1406
19:12:33:004,1.0572,1.6646,4.986,36.616,0.4128,-0.3234,0.8577,184.8594
19:12:33:023,1.1817,1.7005,4.9274,34.382,0.2618,-0.4441,0.7451,183.6719
19:12:33:044,1.3612,1.6945,5.4996,34.382,0.1164,-0.5735,0.5994,182.6719
19:12:33:066,1.4007,1.6849,6.4992,36.879,0.0107,-0.6662,0.4756,181.8281
19:12:33:084,1.445,1.643,7.7897,34.6916,-0.0133,-0.6478,0.3738,181.4688
19:12:33:103,1.5504,1.564,9.1783,34.1798,0.0312,-0.5493,0.2628,180.875
19:12:33:122,1.6198,1.4527,10.7118,35.447,0.1047,-0.2715,0.127,180.4844
19:12:33:143,1.5516,1.1247,11.7305,34.3938,0.1294,0.1024,0.0218,180.1719
19:12:33:167,1.3887,0.6315,12.3518,34.219,0.0967,0.2928,-0.0238,179.9844
19:12:33:184,1.439,0.3705,12.6236,34.1808,0.0288,0.3789,-0.0491,179.875
19:12:33:202,1.4857,0.228,12.8606,32.3897,-0.0232,0.466,-0.0991,179.8125
19:12:33:222,1.615,0.0222,12.6403,32.8097,-0.0277,0.5469,-0.1716,179.7656
19:12:33:243,2.1597,-0.3286,11.5737,33.2619,-0.074,0.5128,-0.3015,179.7656
19:12:33:268,1.5396,0.2807,10.2066,33.8412,-0.2738,0.1485,-0.4424,179.8125
19:12:33:286,0.7351,0.9631,10.7477,35.5074,-0.4392,-0.4116,-0.5386,179.9688
19:12:33:304,1.0344,0.2065,12.766,34.0823,-0.3388,-0.6507,-0.6001,180.3438
19:12:33:323,1.7215,-1.0445,13.5824,33.4571,-0.057,-0.4675,-0.5588,180.9375
19:12:33:345,1.8879,-1.5796,12.195,32.5025,0.0839,-0.0582,-0.4094,181.7344
19:12:33:370,1.7096,-1.1378,9.4405,34.2104,-0.0977,0.1469,-0.2203,182.5625
19:12:33:382,1.6413,0.489,7.7885,33.7015,-0.4511,-0.0528,-0.1484,183.1406
19:12:33:402,1.6485,0.8326,8.7785,33.428,-0.694,-0.2965,-0.1782,183.4688
19:12:33:423,1.5049,1.0181,8.8922,33.799,-0.6602,-0.3229,-0.2413,183.6719
19:12:33:443,1.1493,1.3593,7.9967,33.1084,-0.4424,-0.2153,-0.3146,183.9531
19:12:33:466,0.9015,1.5329,6.6249,34.4809,-0.2301,-0.1397,-0.3649,184.2969
19:12:33:483,0.5232,1.5078,6.0323,34.9057,-0.1302,-0.1684,-0.3889,184.7188
19:12:33:503,0.1833,1.3665,5.9749,32.45,-0.0895,-0.1897,-0.3705,185.4219
19:12:33:522,0.1282,1.3701,5.8432,34.866,-0.0269,-0.1168,-0.2722,185.875
19:12:33:543,0.4155,1.6586,5.6995,34.1109,0.0112,-0.0195,-0.1428,186.125
19:12:33:566,0.9698,2.22,6.2286,33.8603,-0.0368,-0.0108,-0.056,186.6719
19:12:33:584,1.2894,2.3828,7.6412,34.2693,-0.134,-0.1197,-0.072,186.7656
19:12:33:609,0.643,2.0105,9.6583,33.7586,-0.1968,-0.218,-0.1868,186.875
19:12:33:622,-0.0107,1.5197,11.6503,35.5087,-0.2237,-0.1138,-0.2339,186.9375
19:12:33:645,0.0995,0.8876,13.5034,35.2528,-0.2115,0.1432,-0.0957,187.125
19:12:33:669,-0.0981,0.349,14.6514,35.4735,-0.0938,0.4622,0.1296,187.4375
19:12:33:684,0.1354,-0.0437,15.3206,34.7548,0.1012,0.63,0.4069,187.6719
19:12:33:710,0.9422,-0.2316,15.1051,34.2346,0.3627,0.6713,0.7371,187.625
19:12:33:722,1.5037,-0.1059,13.604,35.8675,0.6461,0.7059,0.9432,187.2656
19:12:33:744,2.046,0.2388,11.3642,35.1539,0.8027,0.715,1.0239,186.4844
19:12:33:771,1.9705,1.315,9.9552,35.4322,0.6346,0.654,0.9928,185.3438
19:12:33:787,2.3165,1.9675,10.8399,37.8654,0.2187,0.2838,0.9203,183.4062
19:12:33:803,2.9677,1.552,12.5505,35.3562,-0.0701,-0.0741,0.7265,182.1094
19:12:33:829,3.0838,0.9164,12.0106,35.2617,0.1012,-0.158,0.3869,180.9844
19:12:33:842,2.5056,0.6614,9.6512,36.5689,0.3606,0.0215,0.0013,180.2031
19:12:33:863,2.1597,1.0014,7.7585,36.1858,0.2722,0.1285,-0.276,179.7812
19:12:33:887,2.2411,1.4778,7.8387,36.911,-0.1622,-0.1282,-0.4917,179.75
19:12:33:903,2.0424,1.424,9.8654,36.1578,-0.7175,-0.5849,-0.7673,180.0156
19:12:33:923,1.4702,0.7009,11.4851,36.0856,-0.9867,-0.643,-1.0395,180.5938
19:12:33:944,0.4371,0.1143,10.9332,37.7869,-0.845,-0.2656,-1.2139,181.625
19:12:33:968,-0.4009,-0.2149,8.6205,38.3188,-0.4826,0.2422,-1.1759,183.0156
19:12:33:985,-0.7792,-0.1981,6.1484,37.5273,-0.1521,0.4787,-0.9498,184.4531
19:12:34:003,-0.6942,0.0784,4.7299,37.0742,0.0035,0.3592,-0.66,185.8125
19:12:34:027,-0.5386,0.1981,4.9322,38.1962,-0.0357,-0.0009,-0.4089,186.8438
19:12:34:042,-0.4261,0.1407,6.0048,37.8808,-0.1316,-0.2893,-0.1964,187.5
19:12:34:065,-0.0382,0.2951,6.9684,36.2116,-0.1321,-0.3554,0.0231,187.7656
19:12:34:087,0.8105,0.817,7.2055,37.4604,-0.0179,-0.2813,0.2034,188.1406
19:12:34:104,2.2016,1.7783,7.233,37.4919,-0.2922,0.0896,-0.0376,188.2969
19:12:34:124,3.3448,2.6223,8.0997,36.1567,-0.8211,0.5054,-0.5844,188.2969
19:12:34:143,2.7546,2.5433,10.1408,38.0422,-1.1579,0.8596,-1.1839,187.875
19:12:34:171,0.5867,1.3665,13.3394,39.0968,-0.8669,0.8614,-1.4701,187.9375
19:12:34:186,-0.2704,-0.7608,15.0561,36.6248,-0.0687,0.6817,-1.3791,189.8906
19:12:34:204,-0.6763,-2.3721,14.2289,36.9477,0.6432,0.287,-1.0869,189.8906
19:12:34:221,-1.2449,-2.6558,12.9743,37.7736,0.9377,-0.1972,-0.7226,191.5156
19:12:34:243,-0.8367,-3.2938,12.6068,39.4674,0.9071,-0.4049,-0.4478,192.9375
19:12:34:268,0.2336,-4.388,12.4009,37.8759,0.6951,-0.2153,-0.2406,194.125
19:12:34:284,0.6011,-4.7495,11.1344,38.685,0.2623,0.1205,-0.0267,194.9531
19:12:34:301,-0.1112,-3.9139,10.0211,37.4309,-0.335,-0.0014,0.2029,195.5
19:12:34:321,-0.5673,-3.1107,11.2074,39.1104,-0.734,-0.2749,0.4498,195.7656
19:12:34:341,0.3281,-3.4267,13.3861,37.2773,-0.649,-0.3192,0.6932,195.5469
19:12:34:370,2.095,-3.6122,13.8841,38.8553,-0.2075,-0.1285,0.8743,195.3594
19:12:34:388,3.5112,-2.7503,12.1279,38.3693,0.1803,-0.0382,0.8407,194.7969
19:12:34:405,3.7303,-1.0876,9.5721,38.3734,0.2591,-0.1125,0.5259,193.9375
19:12:34:422,3.091,0.1802,7.7693,37.3824,0.078,-0.2009,0.0716,192.9219
19:12:34:442,2.2387,0.4388,6.6716,40.214,-0.2147,-0.1202,-0.3023,192.1406
19:12:34:466,1.3696,0.3202,6.2167,39.4722,-0.474,0.0958,-0.4656,191.8125
19:12:34:483,0.6849,0.343,5.9353,39.9759,-0.608,0.3192,-0.4675,192
19:12:34:502,0.3341,0.4747,5.7666,40.1706,-0.6064,0.3914,-0.4121,192.4688
19:12:34:522,0.2048,0.7236,5.6875,38.6381,-0.5084,0.2713,-0.3508,192.75
19:12:34:542,0.2252,1.0588,6.0634,39.2373,-0.3467,0.0465,-0.3188,193.2656
19:12:34:566,0.0336,1.3629,6.802,38.9586,-0.1198,-0.1423,-0.2781,193.7188
19:12:34:583,0.0576,1.5389,7.5909,40.0604,0.1609,-0.2041,-0.1945,194.0938
19:12:34:638,0.6142,1.6574,8.0315,40.4038,0.4341,-0.1192,-0.1543,194.4688
19:12:34:639,0.9063,2.0429,7.8064,39.2446,0.6088,-0.0238,-0.2182,194.7969
19:12:34:653,0.8932,2.2763,7.5,40.7071,0.604,-0.0092,-0.3609,195.125
19:12:34:668,0.3269,2.1925,7.9022,41.0054,0.4232,0.0486,-0.4664,195.2969
19:12:34:686,-0.45,1.6394,9.3483,39.4251,0.1681,0.2225,-0.3873,195.6094
19:12:34:702,-1.4891,0.908,11.5282,42.0784,0.0123,0.4305,-0.0669,196.0469
19:12:34:722,-1.8087,0.3071,13.8278,41.5932,0.0956,0.4859,0.4122,196.5312
19:12:34:743,-0.5386,0.0054,15.3051,40.5834,0.3734,0.5136,0.7629,196.7812
19:12:34:770,0.8034,0.1035,15.1698,41.4754,0.5891,0.4976,0.8426,196.5156
19:12:34:786,1.0955,1.0229,12.7588,42.8486,0.51,0.3898,0.6854,195.7656
19:12:34:803,-0.3518,0.9439,13.5034,42.4885,0.1465,0.0891,0.4215,194.7344
19:12:34:822,-1.173,-0.228,15.3805,43.1143,-0.1297,-0.2853,0.2367,193.75
19:12:34:845,-0.8379,-1.5784,15.8904,44.1624,-0.0083,-0.3591,0.2585,193.0938
19:12:34:866,-0.3075,-2.0692,13.5992,44.1308,0.4035,-0.0185,0.4165,192.7656
19:12:34:883,-0.0849,-1.4611,10.1743,44.5457,0.6985,0.2707,0.5773,192.5625
19:12:34:902,0.1521,-0.4842,8.241,43.8786,0.6171,0.0793,0.6937,192.25
19:12:34:923,0.5999,0.1048,8.0494,45.0172,0.3199,-0.3924,0.6916,191.625
19:12:34:942,0.9793,0.1215,8.0638,45.0425,0.0847,-0.6758,0.5853,190.4219
19:12:34:966,0.8836,-0.0401,7.6257,46.2064,-0.0256,-0.6475,0.4596,189.7188
19:12:34:983,0.5424,-0.1395,7.1971,45.6371,-0.09,-0.3746,0.4316,189.1562
19:12:35:002,0.3664,0.0988,6.5638,46.8524,-0.0945,0.0063,0.5427,188.9531
19:12:35:023,0.5328,0.4567,5.9521,45.9149,-0.0312,0.2814,0.69,188.5625
19:12:35:043,0.9865,0.7811,5.5295,46.1508,0.0988,0.308,0.7653,188.0781
19:12:35:067,1.3349,0.9822,5.1728,46.8753,0.274,0.1134,0.7403,187.3438
19:12:35:084,1.5707,1.0146,4.7167,46.0503,0.4328,-0.1642,0.6428,186.4375
19:12:35:101,1.7371,1.072,4.4198,47.4147,0.4962,-0.4893,0.507,185.5156
19:12:35:122,1.5707,0.8673,5.2482,47.6553,0.3854,-0.8148,0.3259,184.7344
19:12:35:141,1.0979,0.4184,6.7997,47.3588,0.1563,-0.8742,0.1877,184.0938
19:12:35:166,0.1534,0.1826,8.812,49.1993,-0.1031,-0.6156,0.1608,183.7031
19:12:35:184,-0.6104,0.1646,10.7657,49.4548,-0.2719,-0.1836,0.2737,183.5938
19:12:35:201,-0.2489,0.343,11.2253,49.9984,-0.2195,0.1866,0.4905,183.5469
19:12:35:222,0.534,0.7979,10.7788,50.7308,-0.0344,0.2425,0.6071,183.2656
19:12:35:242,1.1314,1.3701,10.6304,50.7308,0.0538,-0.1,0.5312,182.7031
19:12:35:267,1.4809,1.4192,11.3642,50.5457,-0.0463,-0.5365,0.3161,181.9688
19:12:35:283,2.0495,0.4759,12.8402,51.1261,-0.2661,-0.8659,0.0417,181.375
19:12:35:301,2.9522,-0.9475,13.9643,50.3834,-0.4711,-0.8736,-0.1961,181.125
19:12:35:322,2.6014,-1.151,14.1762,51.4761,-0.6384,-0.488,-0.3511,181.2656
19:12:35:342,2.0986,-0.3896,14.4838,52.1893,-0.8237,-0.0022,-0.3737,181.7031
19:12:35:365,2.362,-0.5201,15.7157,52.0266,-0.9337,0.2156,-0.4025,182.25
19:12:35:383,2.69,-1.6119,15.56,51.8855,-0.7345,0.479,-0.5386,182.7812
19:12:35:412,2.8408,-2.3206,12.9815,51.2323,-0.2908,0.924,-0.5979,183.3281
19:12:35:421,3.0934,-2.0464,9.4644,53.6427,0.0376,1.2258,-0.5234,183.9688
19:12:35:443,3.0432,-0.9164,6.9361,52.6578,0.0056,1.1243,-0.4568,184.5312
19:12:35:473,2.4745,0.003,6.9637,50.9041,-0.6479,0.0745,-0.6818,184.9531
19:12:35:488,1.9706,0.0269,8.1835,51.4528,-0.6583,-0.0821,-0.794,184.9531
19:12:35:503,1.2092,-0.1622,8.5893,52.4319,-0.4517,0.0348,-0.8041,185.3125
19:12:35:525,0.3293,-0.076,7.6687,53.2252,-0.2216,0.2113,-0.6709,186.6719
19:12:35:550,-0.2621,0.0616,6.4501,53.3033,-0.053,0.2513,-0.4472,188.5312
19:12:35:564,-0.3111,0.1909,5.7151,51.9696,0.029,0.1858,-0.2323,189.2812
19:12:35:583,-0.4416,0.3753,5.9054,51.9934,0.1342,0.2004,-0.0254,189.2812
19:12:35:601,-0.2824,0.5812,6.0886,51.397,0.2546,0.3685,0.1459,189.7812
19:12:35:621,0.1198,1.2145,5.6492,54.117,0.2823,0.4883,0.2164,190.0156
19:12:35:641,0.4083,1.8082,5.5235,53.5735,0.2368,0.3528,0.189,190.0156
19:12:35:662,0.2886,2.3912,6.2251,53.7562,0.1819,-0.0105,0.0945,189.7812
19:12:35:684,-0.2477,2.7108,7.804,53.5715,0.1848,-0.512,-0.0054,189.4688
19:12:35:700,-0.3878,2.2691,10.197,54.3895,0.334,-0.8784,-0.0424,189.2031
19:12:35:721,-0.3111,1.4252,12.5852,54.5571,0.5638,-0.8534,0.0154,189.0938
19:12:35:741,-0.1088,1.0301,13.9427,54.0846,0.7702,-0.4667,0.1709,189.1562
19:12:35:762,0.6944,0.9798,13.774,55.0118,0.8003,-0.0251,0.2673,189.2969
19:12:35:782,1.6138,0.9415,13.3262,54.828,0.6314,0.3309,0.2559,189.375
19:12:35:802,2.5583,0.7332,13.1766,56.3338,0.3824,0.6726,0.1405,188.8281
19:12:35:823,2.9198,0.4172,12.7038,55.1056,0.0679,0.8558,-0.0893,188.6406
19:12:35:841,1.7599,0.3226,12.3458,54.4689,-0.2762,0.605,-0.2102,188.2812
19:12:35:862,0.3533,0.1,13.6076,56.861,-0.4168,0.1552,-0.1343,188.0938
19:12:35:882,-0.1064,-0.72,15.7169,55.9829,-0.0908,0.0079,0.0348,188.1562
19:12:35:902,0.0552,-1.7508,15.7779,54.1666,0.5199,0.2548,0.2537,188.3281
19:12:35:921,0.1904,-1.904,12.608,55.2684,0.8735,0.4476,0.4173,188.4062
19:12:35:944,0.2491,-1.2049,8.8395,56.4594,0.7438,0.1962,0.4833,188.2188
19:12:35:968,0.145,-0.4112,6.8008,56.2618,0.3193,-0.333,0.4708,187.75
19:12:35:984,0.2994,0.0569,6.7829,55.5964,-0.0924,-0.7293,0.4079,187.1094
19:12:36:003,0.6011,0.1107,7.5502,56.0017,-0.2844,-0.8611,0.3155,186.8125
19:12:36:027,0.7291,0.1359,7.8447,55.4127,-0.2658,-0.8156,0.254,186.3281
19:12:36:040,0.8237,0.2484,7.4868,56.1362,-0.2045,-0.6268,0.2159,186.0156
19:12:36:061,0.6873,0.4244,7.0235,56.3798,-0.1939,-0.4052,0.2194,185.8281
19:12:36:085,0.6908,0.744,6.8427,56.3264,-0.2019,-0.194,0.233,185.7188
19:12:36:101,0.6621,0.8924,6.9589,57.2525,-0.1534,0.0372,0.229,185.5312
19:12:36:126,0.5735,0.8481,7.0534,56.1536,-0.028,0.2316,0.2415,185.3438
19:12:36:140,0.522,0.8015,6.6871,55.9895,0.0948,0.3429,0.283,185.1094
19:12:36:161,0.5209,0.9691,6.0167,56.4389,0.1305,0.2417,0.3232,184.8438
19:12:36:185,0.8153,1.4587,6.3531,57.1526,0.1017,-0.0542,0.328,184.4844
19:12:36:204,0.7196,1.3438,7.7861,56.9469,0.0506,-0.4603,0.2655,184.0625
19:12:36:221,0.6047,1.0313,9.468,56.7148,0.0474,-0.766,0.2031,183.6875
19:12:36:241,0.5113,0.6889,10.4879,56.7695,0.0996,-0.713,0.1794,183.375
19:12:36:260,0.224,0.8242,10.6711,57.9767,0.1143,-0.3775,0.1789,183.2188
19:12:36:286,0.637,1.1091,10.9691,58.0719,-0.0005,-0.0837,0.2074,183.1406
19:12:36:302,1.2355,1.0816,12.3925,55.449,-0.2216,-0.0427,0.1501,183.0156
19:12:36:322,1.2439,0.4519,14.0984,57.3511,-0.3646,-0.1136,-0.0174,182.8281
19:12:36:340,1.3241,-0.4926,14.9555,54.8604,-0.3116,-0.0526,-0.1162,182.625
19:12:36:362,1.6569,-0.8637,13.7321,56.9458,-0.1036,0.3094,-0.0592,182.5938
19:12:36:384,1.123,0.1706,11.539,55.0071,0.032,0.7384,0.0196,182.8281
19:12:36:403,2.6625,2.3218,11.539,55.2567,-0.0304,0.6731,0.0913,182.8594
19:12:36:420,3.1126,0.398,11.3163,54.0615,0.0847,0.0659,-0.1258,182.7344
19:12:36:441,2.6158,-0.805,10.4747,55.5177,0.1207,-0.2361,-0.4166,182.5156
19:12:36:462,3.3532,-1.0337,11.5354,55.7361,-0.2652,-0.3572,-0.3942,182.6406
19:12:36:482,3.5268,-1.1618,13.003,55.3664,-0.5169,-0.5684,-0.4717,183.125
19:12:36:501,3.006,-1.3234,12.8306,54.7728,-0.4852,-0.3309,-0.5993,183.375
19:12:36:521,1.8269,-1.2228,10.7034,54.666,-0.2408,0.1951,-0.7031,183.9844
19:12:36:541,0.8656,-0.7703,8.1488,54.2397,-0.0322,0.5858,-0.6691,184.7344
19:12:36:560,0.461,-0.3573,6.2358,54.4404,0.0192,0.7514,-0.5231,185.5
19:12:36:586,0.443,0.1311,5.2398,55.6723,-0.0296,0.708,-0.3591,186.2656
19:12:36:602,0.6465,0.6099,4.9968,53.3342,-0.0804,0.4934,-0.2275,186.8438
19:12:36:621,0.9614,0.9786,4.913,55.1914,-0.0546,0.1946,-0.1652,187.2188
19:12:36:712,1.19,1.224,5.1512,55.1387,0.0218,-0.1391,-0.1947,187.4375
19:12:36:712,1.2822,1.2803,5.4828,54.3091,0.0967,-0.361,-0.2879,187.6875
19:12:36:712,1.0619,1.2803,5.684,54.1637,0.1401,-0.4251,-0.4145,187.9219
19:12:36:713,0.613,1.3809,6.5303,54.3395,0.0613,-0.3466,-0.5159,188.2969
19:12:36:720,0.0695,1.3138,8.4014,53.2535,-0.1249,-0.1357,-0.5226,188.8281
19:12:36:740,-0.523,1.3378,10.6208,52.8337,-0.2818,0.2441,-0.411,189.4688
19:12:36:760,-0.7457,1.3545,12.1447,52.879,-0.2258,0.8068,-0.1937,190.0625
19:12:36:782,-0.8367,1.7867,11.9615,53.9007,0.0471,1.3062,0.009,190.5312
19:12:36:801,-0.8833,2.2188,10.622,53.2579,0.3318,1.4763,0.1142,190.6406
19:12:36:820,-0.8594,2.3122,9.96,52.9566,0.4301,1.1725,0.1323,190.4375
19:12:36:840,-0.1806,1.6586,10.9871,52.4687,0.3177,0.5866,0.1683,190.0625
19:12:36:861,1.0332,0.683,12.4452,54.5684,0.1553,0.0739,0.2468,189.7031
19:12:36:881,1.8317,0.149,13.0725,52.4167,-0.2546,-0.5575,0.2852,189.4219
19:12:36:901,1.1948,0.1921,14.1726,52.3355,-0.5614,-0.7751,0.2876,189.125
19:12:36:921,0.2683,-0.2508,16.8445,52.7488,-0.4267,-0.7732,0.381,188.8281
19:12:36:941,0.4502,-1.2995,19.1585,53.3429,0.3369,-0.2462,0.5238,188.5938
19:12:36:961,1.5216,-2.2787,17.0205,53.3257,1.1348,0.6036,0.5675,188.4219
19:12:36:983,1.9849,-1.898,11.3343,52.4552,1.2464,0.9443,0.4516,188.125
19:12:37:002,1.9071,-0.8398,7.0271,52.9043,0.7193,0.6332,0.18,187.5469
19:12:37:021,1.3181,-0.0497,5.4673,53.1159,-0.0487,0.059,-0.1258,186.7812
19:12:37:039,0.6059,-0.0461,6.5159,53.1379,-0.5827,-0.3005,-0.3127,186.0469
19:12:37:060,0.4586,-0.483,7.9644,53.4905,-0.6858,-0.3855,-0.4278,185.7031
19:12:37:082,0.0959,-0.5106,8.3284,54.0457,-0.5103,-0.3338,-0.4595,185.8281
19:12:37:100,-0.4979,-0.5034,7.9046,53.8563,-0.2623,-0.2097,-0.3468,186.25
19:12:37:120,-1.1216,-0.5393,7.0618,53.6422,-0.0629,-0.0488,-0.0853,186.8281
19:12:37:139,-1.4173,-0.4507,6.1341,53.4049,0.0463,0.0241,0.2583,187.4375
19:12:37:160,-1.1407,-0.0916,5.5211,53.6919,0.0831,0.0337,0.5624,187.8438
19:12:37:181,-0.2597,0.3969,5.1333,54.0281,0.0842,-0.039,0.7312,187.9531
19:12:37:200,0.6633,0.8853,5.1716,53.5119,0.0882,-0.2257,0.7512,187.6562
19:12:37:219,1.4737,1.3007,5.5259,53.453,0.1089,-0.5082,0.6162,186.625
19:12:37:240,1.8592,1.5281,6.2753,55.0973,0.0972,-0.7908,0.3757,185.7812
19:12:37:259,1.4714,1.3629,7.628,53.9978,0.0309,-0.8566,0.1826,185.0312
19:12:37:281,0.4287,0.7775,9.0873,54.365,-0.1289,-0.5439,0.1773,184.5781
19:12:37:301,-0.7433,0.7105,10.4388,54.5089,-0.2698,-0.1548,0.3659,184.4219
19:12:37:320,-0.3985,1.3988,11.2289,54.7341,-0.2767,-0.0827,0.4079,184.3906
19:12:37:341,0.5831,2.0848,11.3642,54.0277,-0.3023,-0.3857,0.1688,184.1562
19:12:37:361,1.457,2.2141,12.0777,54.8602,-0.4554,-0.6805,-0.1633,183.7344
19:12:37:386,2.3141,1.4551,13.8039,55.4364,-0.5715,-0.6547,-0.4896,183.4219
19:12:37:404,2.9546,-0.0832,15.1135,54.1176,-0.5758,-0.2587,-0.7513,183.5469
19:12:37:421,2.1908,-0.7536,14.9543,54.7958,-0.6285,0.1331,-0.8262,184.0625
19:12:37:440,1.2331,-0.0652,15.0369,54.7958,-0.6671,0.1118,-0.7793,184.9219
19:12:37:460,1.2224,-0.5297,17.0229,54.5622,-0.3185,0.1765,-0.6997,185.4219
19:12:37:483,1.7335,-2.2464,17.127,55.0309,0.2722,0.6942,-0.5351,186.4219
19:12:37:502,2.1812,-3.21,13.835,56.2923,0.7071,1.0737,-0.2848,187.3125
19:12:37:520,2.7511,-2.8509,9.5434,55.8126,0.7127,0.9008,-0.0762,188.125
19:12:37:540,3.3269,-1.5856,6.6584,54.8647,0.3569,0.3099,-0.1085,188.7188
19:12:37:560,2.3931,-0.2209,7.7956,54.943,-0.0125,-0.2773,-0.2877,188.6875
19:12:37:582,1.9562,-0.5692,8.3176,53.9916,-0.0796,-0.4113,-0.4392,188.6406
19:12:37:601,1.3109,-0.4687,7.4473,55.452,0.0573,-0.1152,-0.4981,188.8438
19:12:37:620,0.7986,-0.0976,5.9533,56.0595,0.1979,0.2785,-0.4539,189.3281
19:12:37:640,0.6968,0.3226,4.9358,53.8728,0.2461,0.4332,-0.3548,189.9219
19:12:37:660,0.8058,0.6518,5.0196,56.4573,0.2045,0.3461,-0.2933,190.4531
19:12:37:683,0.9375,0.926,5.5798,53.9003,0.1529,0.2654,-0.2778,190.8281
19:12:37:702,0.9303,1.1103,5.9521,55.2552,0.1465,0.275,-0.3162,191.1094
19:12:37:719,0.9554,1.3844,5.6828,53.6163,0.1923,0.3621,-0.3804,191.375
19:12:37:742,0.8225,1.6993,5.5858,55.574,0.1449,0.3565,-0.4784,191.6562
19:12:37:759,0.54,1.9267,6.2897,53.8968,-0.0426,0.2529,-0.5825,191.9688
19:12:37:783,0.2814,1.8717,8.1045,54.545,-0.2826,0.1267,-0.6371,192.3906
19:12:37:802,-0.2836,1.5556,10.4771,55.2071,-0.4139,0.108,-0.6438,192.9531
19:12:37:819,-1.1922,1.4718,11.9867,55.8169,-0.3268,0.308,-0.5612,193.9531
19:12:37:839,-1.6926,1.7149,12.3003,56.8773,-0.09,0.589,-0.342,194.6719
19:12:37:859,-1.2497,2.0584,11.6491,55.7757,0.1353,0.7277,-0.0802,195.2812
19:12:37:884,-0.5242,2.3278,12.3327,54.6207,0.1145,0.5517,0.1025,195.5469
19:12:37:901,0.7435,1.9435,14.3845,56.6926,-0.1214,0.3096,0.1925,195.5312
19:12:37:920,1.4534,1.3174,15.5624,55.898,-0.2802,0.2755,0.1515,195.3125
19:12:37:940,1.4402,0.6889,16.0149,55.3386,-0.3313,0.2825,0.0026,195.0625
19:12:37:959,1.2164,-0.3537,17.1115,55.4594,-0.3334,0.1451,-0.1031,194.8438
19:12:37:982,0.777,-1.8609,17.7447,56.4457,-0.0517,-0.0992,-0.1729,194.7969
19:12:38:000,1.214,-3.465,15.7671,54.1877,0.6019,-0.1689,-0.1061,194.8125
19:12:38:019,2.1525,-4.0624,11.4815,55.1709,1.2701,0.0476,0.0804,194.9688
19:12:38:040,2.8779,-3.3094,7.3587,54.2978,1.5145,0.1198,0.2013,195.1875
19:12:38:060,2.8576,-1.7041,5.2805,55.1914,1.1766,-0.1503,0.1413,195.2344
19:12:38:087,2.6182,-0.6255,5.5104,53.9872,0.4589,-0.5005,-0.085,195.0625
19:12:38:100,2.5284,-0.5596,6.5878,53.5693,-0.2415,-0.6768,-0.3734,194.8438
19:12:38:123,2.1812,-0.6949,7.2976,53.6178,-0.6597,-0.6339,-0.652,195.0469
19:12:38:141,1.4306,-0.6387,7.5909,52.915,-0.8006,-0.4944,-0.8217,195.5781
19:12:38:161,0.7447,-0.3226,7.4245,53.1995,-0.7257,-0.3165,-0.8105,196.4531
19:12:38:186,0.5831,0.0605,6.8679,52.5732,-0.5031,-0.2028,-0.6701,197.5
19:12:38:203,0.6358,0.3382,6.0682,52.418,-0.237,-0.231,-0.5319,198.4375
19:12:38:223,0.771,0.7344,5.3296,53.7216,-0.0538,-0.3389,-0.4371,199.8906
19:12:38:242,1.2224,1.1319,5.0363,52.8385,-0.0948,-0.688,-0.3804,200.4531
19:12:38:263,1.8975,1.2851,5.2003,52.0515,-0.216,-0.8491,-0.4888,200.4531
19:12:38:287,2.2315,1.333,5.9749,52.8945,-0.339,-0.9178,-0.6723,200.9375
19:12:38:304,2.0089,1.2061,7.0486,51.1064,-0.4389,-0.875,-0.8589,201.5
19:12:38:321,1.1852,0.8074,8.6552,53.1913,-0.4938,-0.6513,-0.9588,202.2031
19:12:38:340,-0.11,0.3645,10.4843,52.6277,-0.4293,-0.1748,-0.8579,203.0781
19:12:38:361,-0.8953,0.2221,11.1954,51.7891,-0.3185,0.2396,-0.6517,204.2188
19:12:38:387,-0.8283,0.5166,10.9356,50.1711,-0.2791,0.2723,-0.5612,206.4844
19:12:38:404,-0.3387,0.8853,10.519,50.1465,-0.3952,-0.312,-0.6874,206.8281
19:12:38:420,-0.6475,0.7703,11.9448,50.441,-0.5641,-1.2355,-0.8358,207.1562
19:12:38:440,-1.1096,-0.495,16.0975,49.2474,-0.4312,-1.6766,-0.7053,207.7656
19:12:38:464,-0.7601,-2.3697,19.55,49.7229,0.1292,-1.2904,-0.2975,208.6094
19:12:38:484,0.024,-3.0185,18.5492,49.7465,0.6991,-0.7437,0.2141,209.7188
19:12:38:499,0.9482,-1.7053,15.5409,48.9908,0.8687,-0.5815,0.589,210.7656
19:12:38:523,2.7953,-0.4196,14.2779,51.0995,0.7973,-0.5578,0.5797,211.2656
19:12:38:541,4.1134,-0.5117,14.2672,48.3504,0.8317,-0.207,0.3805,211.0938
19:12:38:562,5.1405,-1.2049,12.7636,49.7387,0.9073,0.3027,0.1422,210.4219
19:12:38:584,5.5762,-1.5999,10.1456,48.2124,0.8706,0.5325,-0.0419,209.7656
19:12:38:604,6.0072,-1.6035,7.895,49.8073,0.7065,0.3959,-0.2049,209.2812
19:12:38:620,6.0946,-1.1702,6.474,48.5115,0.4354,0.1243,-0.4541,209
19:12:38:640,5.3966,-0.7248,6.0814,47.4507,0.167,-0.0555,-0.7106,208.8594
19:12:38:660,4.4845,-0.5297,6.3232,47.6892,0.0338,-0.0864,-0.9229,208.9375
19:12:38:685,3.8213,-0.5405,6.5207,47.5383,0.0599,0.0617,-1.0651,209.7344
19:12:38:702,3.3233,-0.647,6.1233,48.761,0.1161,0.3046,-1.15,210.6875
19:12:38:720,2.7223,-0.5608,5.1824,47.8182,0.0858,0.4897,-1.1322,211.8438
19:12:38:776,2.3931,-0.1981,4.3695,46.5036,-0.0248,0.5107,-1.044,213.0156
19:12:38:777,2.4434,0.3238,4.2857,46.6798,-0.1348,0.438,-0.9671,214.25
19:12:38:790,2.8696,0.7955,4.7394,45.8076,-0.1641,0.344,-0.962,215.375
19:12:38:803,3.346,1.2923,5.2817,44.7059,-0.1625,0.2356,-1.0344,216.375
19:12:38:821,3.5399,1.7867,5.9725,47.207,-0.1582,0.1783,-1.1601,217.3906
19:12:38:840,3.4538,2.0931,6.3795,45.6379,-0.2115,0.0974,-1.3279,218.4688
19:12:38:860,3.0408,2.3158,7.0355,43.9538,-0.3571,0.1011,-1.488,219.6094
19:12:38:885,2.6373,2.4714,8.138,44.3461,-0.551,0.2476,-1.6121,221.0156
19:12:38:902,1.931,2.4822,9.5661,45.6223,-0.6765,0.5032,-1.6451,222.6094
19:12:38:921,0.6992,2.4571,10.883,42.8359,-0.7049,0.671,-1.4361,224.3594
19:12:38:940,0.2132,2.499,12.2513,43.2107,-0.6328,0.7048,-1.0517,225.1875
19:12:38:961,1.6078,3.4111,15.0369,42.4093,-0.4754,0.6196,-0.7482,226.9688
19:12:38:987,2.4063,3.24,15.25,42.519,-0.1883,0.4992,-0.6595,229.0469
19:12:39:003,2.0843,2.4762,14.1678,43.9456,0.1172,0.4223,-0.7705,229.875
19:12:39:021,0.9386,1.9351,13.5298,42.3772,0.2048,0.3514,-0.873,230.5469
19:12:39:039,0.4502,1.2983,14.0756,41.8609,0.1585,0.1903,-0.8619,231.2656
19:12:39:059,0.0109,0.1155,14.072,41.4919,0.2717,0.1991,-0.8962,232.1719
19:12:39:081,-0.5817,-0.8457,12.5996,41.0121,0.6019,0.258,-0.9226,233.0938
19:12:39:103,-0.2716,-1.0947,10.7764,42.4273,0.8783,0.2249,-0.7854,234.0625
19:12:39:120,0.801,-1.0517,9.4644,40.496,0.8959,0.0486,-0.6563,235.125
19:12:39:139,1.5073,-0.9164,9.0849,41.133,0.6653,-0.2518,-0.7101,236.0938
19:12:39:159,1.1805,-0.8398,9.7948,39.34,0.3087,-0.6278,-0.9101,236.9531
19:12:39:179,0.8824,-1.1007,10.4053,38.8779,0.0778,-0.7738,-1.0371,237.7969
19:12:39:201,0.8213,-1.3593,9.9492,37.6832,0.0695,-0.6422,-1.0616,238.7969
19:12:39:219,1.1134,-0.9631,9.116,37.8595,0.2043,-0.3732,-0.9934,240.0938
19:12:39:240,1.7539,-0.2292,8.6348,40.4078,0.4197,-0.2057,-0.8757,241.4688
19:12:39:260,1.9861,-0.0186,7.4545,36.5061,0.8136,-0.2227,-0.8286,243.2969
19:12:39:286,1.4055,-0.3083,5.259,37.7283,1.2868,-0.4568,-0.9021,244.375
19:12:39:304,0.558,-0.3262,3.4035,37.1527,1.4932,-0.7658,-0.897,245.4375
19:12:39:320,0.2419,-0.0425,2.6481,36.7938,1.2687,-0.8837,-0.6677,246.6875
19:12:39:342,0.8237,0.5908,2.5523,37.251,0.7694,-0.7612,-0.2805,247.9531
19:12:39:360,1.9155,1.1175,2.9163,36.4198,0.2205,-0.6259,0.0404,249.0312
19:12:39:379,2.3512,1.309,3.6525,36.2916,-0.3041,-0.5639,0.1203,249.6094
19:12:39:402,2.3357,1.9172,4.8352,34.9737,-0.8602,-0.4515,0.0551,249.7344
19:12:39:420,2.9055,2.6199,6.3735,36.8553,-1.3236,-0.3112,-0.0688,249.7188
19:12:39:440,3.68,3.0927,8.575,35.0133,-1.5316,-0.4068,-0.3916,249.7188
19:12:39:460,3.9122,2.882,10.7657,35.4348,-1.4176,-0.7658,-0.9383,249.75
19:12:39:482,2.9809,1.9543,11.5701,34.0538,-1.1761,-1.031,-1.5159,249.9688
19:12:39:502,0.7268,1.1307,12.8725,34.0164,-1.1854,-1.1075,-1.912,250.7656
19:12:39:518,-1.4292,0.2029,15.6821,32.5023,-1.4757,-0.9615,-1.9298,252.3281
19:12:39:540,-1.61,-0.7775,17.1342,32.0809,-1.6432,-0.3018,-1.5266,254.375
19:12:39:560,-0.626,-1.0624,15.5289,32.0775,-1.5311,0.5608,-1.0027,257.9062
19:12:39:585,0.4095,-0.6063,14.9519,33.0498,-1.5236,0.7972,-0.6264,259.6562
19:12:39:603,1.4845,-0.5704,16.9164,32.8053,-1.743,0.6183,-0.4456,260.6406
19:12:39:619,2.684,-1.2887,18.7778,32.2231,-1.8158,0.6894,-0.4962,261.2031
19:12:39:639,3.85,-2.5361,17.8261,31.5794,-1.4224,1.1171,-0.6161,261.5781
19:12:39:661,4.8328,-2.9957,15.3817,33.4729,-0.0815,2.0071,-0.4533,261.9844
19:12:39:686,5.4924,-2.5169,11.7401,32.9697,0.4208,2.2854,-0.3774,262.5469
19:12:39:704,5.2015,-1.4706,8.0602,32.9697,0.6626,1.8891,-0.5319,263.1406
19:12:39:721,4.0248,-0.5764,5.6121,33.4341,0.7388,1.0423,-0.7934,263.5938
19:12:39:740,2.4865,-0.1395,4.6449,32.1996,0.7713,0.2537,-0.9601,264
19:12:39:758,1.3409,-0.0748,4.3205,33.1267,0.799,-0.2073,-0.9902,264.6406
19:12:39:780,0.6968,-0.1419,3.7135,33.1226,0.7252,-0.4491,-0.9484,265.6406
19:12:39:804,0.2228,0.0964,3.3149,33.2821,0.5409,-0.5887,-0.8653,266.8125
19:12:39:820,0.0863,0.2017,3.5998,32.5414,0.3236,-0.7207,-0.7846,268.0938
19:12:39:840,0.115,0.3394,4.4928,32.4432,0.1547,-0.7477,-0.7468,269.9062
19:12:39:860,0.1809,0.5369,5.5331,34.0615,0.0642,-0.6899,-0.7471,270.9062
19:12:39:880,0.4179,0.7093,6.2334,32.3439,-0.0019,-0.7027,-0.8201,271.8594
19:12:39:902,0.2419,0.7751,7.1408,33.4738,-0.0932,-0.7021,-0.9045,272.7656
19:12:39:919,-0.3231,0.8386,8.7138,32.4658,-0.1007,-0.6475,-0.9229,273.2188
19:12:39:938,-0.9348,0.7057,10.2617,34.3614,0.0173,-0.4715,-0.8965,274.1562
19:12:39:959,-1.537,0.5453,10.8566,32.3859,0.1198,-0.1314,-0.8318,275.2188
19:12:39:981,-1.8853,0.5381,10.1443,34.2285,-0.0365,0.2241,-0.738,276.2812
19:12:40:003,-1.8734,0.6434,9.6763,32.664,-0.4445,0.4129,-0.6568,277.2969
19:12:40:021,-1.7872,0.4627,10.7178,34.3176,-0.886,0.4465,-0.5391,278.2656
19:12:40:039,-1.3706,-0.1454,13.1323,35.1762,-1.0799,0.4223,-0.3766,279.0938
19:12:40:060,-0.4153,-1.1247,15.0453,35.6668,-1.0253,0.2968,-0.2685,279.7344
19:12:40:087,-0.3662,-1.6873,15.8964,34.2384,-0.9332,-0.027,-0.0885,280.2188
19:12:40:103,-0.7445,-1.9662,16.9798,34.735,-0.7476,-0.3663,0.2548,280.5
19:12:40:120,0.2336,-2.5157,18.2822,35.4066,-0.3497,-0.3974,0.5352,280.6875
19:12:40:141,1.4438,-2.9802,17.9866,35.8249,0.2189,0.1309,0.6804,280.4688
19:12:40:160,2.2447,-3.1753,14.9938,36.6623,0.7055,0.7312,0.7523,279.9062
19:12:40:183,2.8193,-3.0807,10.7345,35.46,0.8168,0.8177,0.7235,279.1875
19:12:40:202,3.0288,-2.4966,7.6281,37.7812,0.5667,0.4465,0.5696,278.4688
19:12:40:222,2.4458,-1.6873,6.261,37.6751,0.1521,-0.0342,0.3967,277.7344
19:12:40:239,1.5336,-1.1414,6.5854,38.81,-0.1372,-0.3791,0.3414,277.0781
19:12:40:259,1.1996,-1.0553,7.5335,39.5206,-0.1305,-0.5194,0.3344,276.625
19:12:40:280,0.8225,-0.7619,7.7118,39.2817,0.0802,-0.5397,0.3456,276.2188
19:12:40:304,0.3293,-0.3956,7.0032,40.3785,0.2916,-0.5258,0.4074,275.8125
19:12:40:322,0.0875,-0.0976,6.2705,40.1766,0.4056,-0.5423,0.5041,275.4375
19:12:40:339,-0.0526,0.1538,5.5858,39.3983,0.3723,-0.5626,0.593,275.0625
19:12:40:360,0.3377,0.4507,5.9461,41.1869,0.2626,-0.562,0.6828,274.5938
19:12:40:385,0.7962,0.5489,6.4441,41.7469,0.1686,-0.4941,0.7342,274.0312
19:12:40:403,1.19,0.7093,6.8092,42.2143,0.1207,-0.3967,0.7294,273.75
19:12:40:419,1.6701,0.8039,7.233,42.5121,0.1023,-0.3791,0.6772,272.625
19:12:40:438,2.0376,0.7931,8.0422,42.2802,0.0884,-0.5133,0.5467,271.8125
19:12:40:458,1.8269,0.8685,9.1974,45.0288,0.0253,-0.676,0.3536,271.0625
19:12:40:478,1.4342,0.7991,10.7273,43.1642,-0.069,-0.7469,0.1752,270.375
19:12:40:501,1.0631,0.3933,11.7796,44.2787,-0.119,-0.6092,0.0226,269.8906
19:12:40:518,0.7866,0.0545,11.6168,44.4954,-0.1001,-0.2435,-0.0848,269.6406
19:12:40:538,0.9195,-0.1909,10.9931,44.4277,-0.1167,0.051,-0.1292,269.5625
19:12:40:558,1.2786,-0.4699,11.1727,45.0548,-0.2623,0.1176,-0.1652,269.625
19:12:40:579,2.0125,-1.0517,12.122,46.0619,-0.4591,0.035,-0.2043,269.75
19:12:40:601,2.7618,-1.7172,12.5362,45.8842,-0.5606,0.0279,-0.2738,269.8906
19:12:40:621,2.3764,-1.8106,12.426,47.0847,-0.5752,0.0683,-0.4089,270.0625
19:12:40:639,1.7838,-1.6203,13.3801,47.3591,-0.6181,-0.0153,-0.5095,270.2969
19:12:40:660,1.7443,-2.2152,15.0333,47.9722,-0.58,-0.1216,-0.5364,270.625
19:12:40:678,1.9179,-3.3142,14.831,47.7443,-0.2799,0.1147,-0.5351,271.125
19:12:40:700,2.6936,-4.0133,12.8067,49.7074,0.1467,0.536,-0.4113,271.9688
19:12:40:719,4.0164,-3.6302,11.0649,50.1164,0.448,0.724,-0.2075,272.5312
19:12:40:738,5.1321,-2.2918,10.2677,48.842,0.5784,0.5688,-0.0672,273.0156
19:12:40:762,4.4509,-1.2049,9.298,49.9333,0.6892,0.2638,-0.2009,273.2812
19:12:40:785,2.4769,-0.7344,8.2685,50.0796,0.8083,-0.0595,-0.5471,273.3906
19:12:40:854,1.1469,-0.8745,7.0858,49.5211,0.8549,-0.1737,-0.7143,273.6875
19:12:40:855,0.8094,-0.8051,5.8791,48.8193,0.8006,-0.0129,-0.5844,274.3906
19:12:40:855,0.7699,-0.2209,4.7299,50.0559,0.6642,0.2779,-0.3612,275.2812
19:12:40:869,0.9087,0.5237,4.0595,51.8432,0.477,0.4345,-0.1732,276
19:12:40:888,1.0967,1.1762,4.0152,51.9721,0.2876,0.3666,-0.0824,276.2656
19:12:40:902,1.3576,1.6311,4.4354,52.532,0.1233,0.1741,-0.0802,276.5938
19:12:40:920,1.6581,1.922,5.1668,52.7049,0.008,-0.0398,-0.1673,276.7344
19:12:40:938,1.8652,1.7592,5.9114,51.2104,-0.0629,-0.21,-0.3295,276.8125
19:12:40:959,1.4462,1.7723,6.8631,53.7534,-0.1656,-0.3074,-0.5157,276.9375
19:12:40:979,0.8836,1.4443,8.4852,52.783,-0.3292,-0.2861,-0.6469,277.2188
19:12:41:002,-0.1076,1.1295,10.7728,54.0837,-0.486,-0.1397,-0.6912,278.0156
19:12:41:018,-1.1826,1.1426,12.5206,54.4223,-0.5151,0.2731,-0.6065,278.7344
19:12:41:039,-1.1431,1.1642,13.0916,54.6799,-0.3483,0.704,-0.3798,279.4844
19:12:41:060,-0.6068,1.345,12.4248,53.8193,-0.0399,0.8942,-0.1686,280.0781
19:12:41:079,-0.0119,1.509,11.8897,54.9007,0.1473,0.4281,-0.024,280.4531
19:12:41:101,0.5101,1.3378,12.4428,55.0335,-0.0535,0.2662,-0.036,280.4531
19:12:41:120,0.7483,0.9894,13.2257,55.6669,-0.3092,0.2087,0.0196,280.6094
19:12:41:138,1.0643,0.8194,13.7381,57.6384,-0.5683,0.0124,0.0543,280.7031
19:12:41:158,1.469,0.6004,15.1087,56.0009,-0.6384,-0.064,-0.1423,280.7188
19:12:41:180,1.0751,-0.665,17.0289,57.1256,-0.0908,0.1954,-0.386,280.6562
19:12:41:204,0.2132,-2.6881,15.7049,55.6194,0.7145,0.4694,-0.3878,280.5156
19:12:41:220,-0.3937,-3.617,11.5605,56.7433,1.0964,0.4084,-0.1431,281.0156
19:12:41:238,-0.0334,-3.3297,7.816,56.0561,0.8858,-0.0278,0.0338,281.5312
19:12:41:261,0.3664,-2.6546,5.8492,56.9411,0.2727,-0.6872,0.0063,281.7188
19:12:41:286,-0.1974,-2.0764,6.583,56.8606,-0.3305,-1.1304,0.0164,281.9062
19:12:41:303,-0.3638,-1.9615,8.7042,56.8557,-0.5619,-1.0808,0.128,281.9688
19:12:41:318,-0.3686,-1.8848,9.6176,56.6794,-0.4317,-0.7144,0.2876,282.0156
19:12:41:338,-0.3315,-1.6322,8.8072,55.3647,-0.2061,-0.272,0.5187,281.9219
19:12:41:358,-0.0119,-1.248,7.3635,55.8785,-0.0306,0.0273,0.7683,281.8281
19:12:41:377,0.3066,-0.7428,6.1508,55.7741,0.0898,0.1216,0.972,281.4844
19:12:41:400,0.5412,-0.0712,5.2997,56.0521,0.1949,0.0103,1.0657,280.8906
19:12:41:422,1.038,0.4615,4.8963,56.324,0.2943,-0.255,1.0418,280
19:12:41:438,1.6904,0.7584,4.7251,55.2119,0.3401,-0.5599,0.9086,278.8906
19:12:41:458,2.2567,0.9738,4.7813,57.6901,0.2509,-0.9128,0.6929,277.75
19:12:41:478,2.5404,0.9236,5.484,57.7358,-0.0139,-1.2806,0.4479,276.6094
19:12:41:503,2.0663,0.7967,7.7298,56.7679,-0.3055,-1.2579,0.3059,274.9375
19:12:41:521,1.4498,0.5082,10.865,56.5613,-0.3766,-0.786,0.2868,274.6875
19:12:41:541,1.2906,0.1742,13.2748,56.2881,-0.1766,-0.0443,0.2982,274.3438
19:12:41:559,1.6653,0.0126,13.2197,56.0095,0.0152,0.4726,0.209,274.0625
19:12:41:580,1.7431,0.2496,12.2165,57.1772,0.021,0.4931,0.0239,273.7344
19:12:41:603,1.2798,0.2628,12.1076,56.3838,-0.0421,0.2888,-0.1953,273.4062
19:12:41:621,0.6729,-0.5968,12.8857,56.3452,-0.0341,0.1783,-0.3191,273.25
19:12:41:638,0.6777,-1.7891,13.0341,53.9092,-0.0096,0.3879,-0.2728,273.3281
19:12:41:658,0.8417,-2.2452,11.6419,55.332,-0.1744,0.5112,-0.1508,273.625
19:12:41:679,0.2766,-1.2252,10.7333,55.8422,-0.498,0.3296,-0.0134,273.9688
19:12:41:704,0.2611,-0.5824,12.0992,56.0415,-0.6176,0.0207,0.0346,274.1875
19:12:41:720,1.3864,-1.4635,13.9176,55.9032,-0.3635,-0.1074,-0.0203,274.2344
19:12:41:738,2.5021,-2.6965,13.8326,54.4487,-0.0405,0.0164,-0.0312,274.1406
19:12:41:758,3.8296,-2.2619,10.9452,56.8039,0.0991,0.2287,0.0966,274.0938
19:12:41:778,4.5683,-1.5353,10.0235,55.0226,0.0956,0.4223,0.1627,274.125
19:12:41:802,4.0224,-0.9164,8.9736,54.1592,0.0823,0.5656,0.001,274.1406
19:12:41:819,2.8744,-0.5764,7.7741,53.3295,0.1044,0.646,-0.2147,273.9219
19:12:41:838,1.961,-0.4687,6.7206,55.0409,0.126,0.6537,-0.3276,273.7969
19:12:41:857,1.3181,-0.5417,5.921,54.5404,0.1396,0.6036,-0.3303,273.9219
19:12:41:878,0.9255,-0.4136,5.2446,54.5404,0.1409,0.4668,-0.2448,274.2344
19:12:41:897,0.7208,-0.0772,5.1536,54.3684,0.0738,0.2353,-0.1146,274.625
19:12:41:920,0.8608,0.2723,5.9713,53.4118,-0.0288,0.0074,0.0029,274.9375
19:12:41:938,1.36,0.3837,6.571,53.4642,-0.041,-0.0939,0.0828,275.1406
19:12:41:957,1.5983,0.6279,6.7195,53.8904,0.0304,-0.0784,0.0561,275.2031
19:12:41:980,1.6557,0.9319,6.7422,54.141,0.0527,-0.003,-0.0432,275.1406
19:12:42:003,1.3876,1.2169,7.0582,53.0791,-0.0234,0.1035,-0.1556,275.0469
19:12:42:020,0.8237,1.2372,8.0339,54.5386,-0.1372,0.1232,-0.2576,275.0469
19:12:42:037,0.1857,1.2049,9.474,52.7371,-0.237,0.095,-0.3074,275.1562
19:12:42:057,-0.2441,0.9751,11.017,54.4181,-0.2495,0.1493,-0.284,275.375
19:12:42:078,-0.8427,0.6458,12.5038,54.1157,-0.1683,0.1799,-0.2158,275.6875
19:12:42:104,-1.2473,0.6123,13.6578,54.1422,-0.0517,0.1861,-0.0523,276.125
19:12:42:124,-0.8534,0.7979,14.8526,53.0396,0.0695,0.1589,0.201,276.3438
19:12:42:142,-0.0526,0.7691,15.6462,52.3699,0.2168,0.1988,0.4079,276.3906
19:12:42:158,1.2583,0.4627,14.8897,53.2415,0.4123,0.4156,0.5233,276.1719
19:12:42:179,1.7467,0.7189,13.4364,51.2631,0.4762,0.6348,0.4966,275.75
19:12:42:204,0.9446,0.6375,13.7057,53.3752,0.3254,0.4851,0.3366,275.1875
19:12:42:220,-0.2273,-0.6794,15.1207,52.2808,0.2469,0.1615,0.1352,274.6562
19:12:42:237,-0.5637,-2.4056,14.4096,53.1053,0.5907,0.2175,0.1259,274.3125
19:12:42:258,0.048,-2.9802,10.9428,50.5262,1.1204,0.5863,0.3392,274.1875
19:12:42:279,0.5951,-2.4259,7.2953,52.0489,1.3353,0.7789,0.5099,274.125
19:12:42:303,0.3568,-1.4946,5.52,51.87,1.0464,0.4614,0.491,273.8906
19:12:42:320,-0.268,-1.1007,6.0682,51.2498,0.4549,-0.1724,0.3877,273.4531
19:12:42:339,-0.268,-1.2444,8.0219,51.5249,-0.0956,-0.7375,0.3459,273.2344
19:12:42:358,-0.0813,-1.4216,9.2705,49.594,-0.3398,-0.9,0.396,272.8438
19:12:42:378,0.4167,-1.1175,9.3519,49.4632,-0.3009,-0.6944,0.5398,272.5312
19:12:42:401,0.9039,-0.5501,8.3415,49.4478,-0.0708,-0.4185,0.6838,271.9531
19:12:42:421,1.2774,0.0569,6.905,49.1859,0.1918,-0.2659,0.7227,271.3594
19:12:42:439,1.5336,0.3789,5.6959,47.8457,0.4256,-0.3165,0.5997,270.6562
19:12:42:460,1.9263,0.4998,4.5431,47.852,0.3633,-0.4451,0.4505,270.6562
19:12:42:478,2.2124,0.4902,3.8955,47.6778,0.1302,-0.5999,0.2793,269.875
19:12:42:503,2.2339,0.6925,4.3767,49.0626,-0.2027,-0.6965,0.1398,269.1562
19:12:42:522,2.0914,0.8134,5.897,46.7329,-0.506,-0.6345,0.0237,268.5938
19:12:42:541,1.5994,0.9727,7.8459,47.3617,-0.6661,-0.4014,-0.0459,267.9375
19:12:42:557,0.9075,1.2743,9.7158,48.9329,-0.5899,-0.121,-0.0557,267.8438
19:12:42:577,0.704,1.5389,10.7489,47.3253,-0.3523,0.0723,-0.0962,267.8438
19:12:42:597,0.7794,1.6598,10.7704,48.2252,-0.1449,0.0383,-0.1753,267.8906
19:12:42:618,0.9458,1.5533,10.9201,48.0111,-0.0248,-0.1511,-0.2366,267.9062
19:12:42:637,0.9698,1.4647,10.9237,47.379,-0.0336,-0.4486,-0.3005,268.1719
19:12:42:657,0.8297,1.3665,11.5126,48.1118,-0.1883,-0.7487,-0.3372,268.2969
19:12:42:678,1.2283,0.6662,13.337,46.7754,-0.3172,-0.7892,-0.2914,268.625
19:12:42:705,2.5464,-0.343,14.813,45.0721,-0.3257,-0.4659,-0.2965,269.0312
19:12:42:720,3.4406,-0.3681,14.5102,45.8024,-0.3459,-0.1855,-0.4762,269.4531
19:12:42:737,2.8528,0.1227,13.9595,43.7176,-0.3643,-0.2155,-0.73,269.8125
19:12:42:758,1.7994,-0.5788,14.4563,42.852,-0.2035,-0.158,-0.8467,270
19:12:42:779,1.3205,-2.0153,14.2624,43.7104,0.11,0.1946,-0.7545,270.5156
19:12:42:803,1.4953,-2.8725,12.2896,44.713,0.3412,0.5722,-0.5471,271.3438
19:12:42:821,1.9442,-2.7408,9.0717,43.4055,0.2684,0.6606,-0.3649,272.3125
19:12:42:838,2.2028,-1.9112,6.4645,43.9226,-0.1382,0.4321,-0.3167,273.125
19:12:42:923,1.9849,-0.9296,5.9461,43.8037,-0.6237,0.0838,-0.3316,273.7344
19:12:42:923,1.6689,-0.5321,7.3252,42.4614,-0.8189,-0.0896,-0.3378,274.125
19:12:42:923,1.3445,-0.6063,8.642,42.679,-0.6589,-0.0478,-0.313,274.4219
19:12:42:923,0.8381,-0.4064,8.8658,41.3928,-0.3356,0.1213,-0.2195,274.75
19:12:42:940,0.5628,-0.07,8.0542,41.5649,-0.0354,0.2577,-0.1146,275.2344
19:12:42:959,0.4502,0.3322,6.826,41.927,0.1321,0.2524,-0.0371,275.5
19:12:42:980,0.4885,0.489,5.9581,43.2801,0.1915,0.1647,0.0111,275.6562
19:12:43:003,0.4203,0.5381,5.599,41.9067,0.1909,0.0654,0.0599,275.7344
19:12:43:019,0.5915,0.8182,5.6349,40.2853,0.1481,-0.003,0.0892,275.75
19:12:43:037,1.0907,1.2504,6.073,42.5263,0.057,-0.0169,0.0423,275.7188
19:12:43:057,1.4283,1.7304,6.8104,42.5069,-0.0538,-0.0741,-0.0435,275.6562
19:12:43:078,1.6916,2.1339,8.1272,39.5544,-0.1143,-0.17,-0.1495,275.5781
19:12:43:104,1.6138,2.3254,9.8978,41.6294,-0.0772,-0.2579,-0.239,275.5625
19:12:43:122,1.2918,2.3996,11.9843,40.2367,0.0943,-0.1996,-0.2446,275.6719
19:12:43:148,1.3433,2.2069,13.5633,39.5544,0.3494,0.0103,-0.2264,275.9062
19:12:43:158,1.366,1.7137,13.5286,38.4044,0.5995,0.3757,-0.1385,276.2031
19:12:43:178,2.0567,1.5975,12.3961,37.352,0.7089,0.6255,-0.0283,276.4844
19:12:43:205,2.8181,1.2169,11.7664,38.6452,0.6224,0.6436,-0.0384,276.75
19:12:43:224,2.8827,0.835,11.9244,39.2034,0.3372,0.528,-0.1838,276.8594
19:12:43:247,2.1585,0.5884,13.4376,39.3872,-0.0786,0.2835,-0.3727,276.8906
19:12:43:257,0.8153,-0.2675,16.3788,38.1474,-0.3939,-0.0534,-0.4877,277
19:12:43:282,0.0121,-1.6239,17.7292,38.7265,-0.2056,-0.0462,-0.428,277.3125
19:12:43:306,0.5089,-2.6749,14.3198,37.4404,0.5435,0.4217,-0.1436,277.75
19:12:43:325,0.6358,-2.3481,8.812,38.2116,1.1553,0.8801,0.0521,278.2812
19:12:43:342,0.4718,-1.5784,5.5068,36.5161,1.0586,0.7578,0.1374,278.625
19:12:43:357,-0.0143,-1.0217,5.4481,38.9108,0.3758,0.1988,0.1491,278.7031
19:12:43:377,-0.3219,-0.7416,7.8292,37.9692,-0.3795,-0.3972,0.213,278.6562
19:12:43:399,0.1833,-0.6291,9.6643,37.6925,-0.6613,-0.7176,0.3472,278.5312
19:12:43:421,0.5867,-0.5692,9.6488,36.9974,-0.4229,-0.7572,0.4434,278.3594
19:12:43:441,0.3197,-0.3083,8.2278,38.0362,-0.012,-0.61,0.5083,278.0312
19:12:43:461,0.2156,0.1431,6.407,38.9923,0.2836,-0.3743,0.654,277.5781
19:12:43:476,0.4095,0.5273,5.1129,37.6252,0.3803,-0.2491,0.8098,277.0781
19:12:43:497,0.7854,0.7991,4.5323,36.1724,0.3414,-0.2787,0.8812,276.5156
19:12:43:518,1.3708,0.9906,4.5443,38.5363,0.2551,-0.3953,0.8862,275.7188
19:12:43:536,1.882,1.2623,4.9154,37.0148,0.1579,-0.5559,0.8223,274.3281
19:12:43:557,2.1214,1.6119,5.769,37.1352,0.0322,-0.7176,0.6798,273.4219
19:12:43:578,2.2782,1.7364,6.6955,37.1158,-0.0812,-0.8446,0.499,272.5625
19:12:43:602,2.2351,1.9734,7.7681,37.0777,-0.183,-0.8957,0.2748,271.875
19:12:43:621,2.1585,2.0524,8.6384,36.0775,-0.2738,-0.7975,0.0223,271.4062
19:12:43:638,2.1609,1.8525,9.3806,36.0592,-0.3382,-0.5943,-0.2584,271.1875
19:12:43:657,1.9167,1.4802,10.112,36.6544,-0.3885,-0.443,-0.5487,271.25
19:12:43:678,1.7419,1.1031,10.5741,36.8233,-0.4591,-0.3588,-0.7567,271.5938
19:12:43:704,2.2004,0.5417,12.122,37.0303,-0.6583,-0.4904,-0.881,272.2344
19:12:43:719,2.5056,-0.3753,15.8162,36.5734,-1.012,-0.6598,-0.9828,273.125
19:12:43:738,3.2395,-1.9423,18.1111,37.7902,-1.1449,-0.301,-0.9878,274.1562
19:12:43:762,3.1593,-2.4271,16.3441,36.4146,-0.7851,0.4391,-0.9234,275.2656
19:12:43:786,2.2255,-1.6933,13.1646,36.0412,-0.2738,0.7088,-0.791,276.9219
19:12:43:800,1.2032,-1.3138,12.4787,37.4554,-0.4096,0.5456,-0.6936,277.8906
19:12:43:820,1.4318,-2.4056,13.1036,37.5875,-0.3571,0.7845,-0.4757,279.1562
19:12:43:839,2.429,-3.4039,11.8897,37.2739,-0.146,0.9384,-0.2491,279.1562
19:12:43:858,3.1664,-3.3884,9.4572,36.9189,-0.0421,0.7829,-0.0555,279.9062
19:12:43:880,3.3759,-2.3804,7.5335,37.5191,-0.1289,0.3893,0.0372,280.625
19:12:43:906,3.3005,-1.2025,7.0211,37.8061,-0.2205,0.0825,-0.019,280.625
19:12:43:923,2.8492,-0.5034,6.8416,38.7489,-0.2495,-0.0337,-0.1473,280.6719
19:12:43:940,2.2136,-0.0784,6.4908,37.9879,-0.2541,0.0044,-0.2371,280.6094
19:12:43:956,1.8556,0.2245,6.2262,37.4527,-0.2645,0.1038,-0.2749,280.6094
19:12:43:976,1.5013,0.7153,6.1472,37.7947,-0.2458,0.1847,-0.2834,280.75
19:12:43:996,1.1445,0.9415,5.9832,37.9366,-0.1731,0.1866,-0.2509,281
19:12:44:019,0.6525,1.0385,5.7797,37.4292,-0.0956,0.1682,-0.1388,281.2812
19:12:44:040,0.3413,1.2492,5.7929,38.3587,-0.0514,0.1818,0.041,281.5781
19:12:44:056,0.6286,1.5161,6.1832,39.0558,-0.0666,0.1765,0.173,281.8438
19:12:44:076,1.2451,2.2057,7.0175,38.3303,-0.1361,0.1594,0.173,282
19:12:44:096,2.0029,2.8844,8.3331,37.5991,-0.1816,0.0686,-0.0421,281.9375
19:12:44:120,2.1118,3.0113,10.0977,37.5992,-0.1089,-0.0691,-0.3593,281.6094
19:12:44:138,1.2104,2.4774,11.7197,38.2226,0.0189,-0.1005,-0.5391,281.5
19:12:44:157,0.2551,1.5389,13.2784,39.4818,0.1553,0.136,-0.4738,281.7031
19:12:44:181,-0.3303,0.9487,13.993,38.2585,0.2448,0.4638,-0.2094,282.25
19:12:44:203,0.1893,0.7356,14.2827,40.4099,0.2666,0.6558,0.0559,282.875
19:12:44:221,1.3205,0.5118,14.9124,39.9876,0.33,0.8116,0.1405,283.2812
19:12:44:237,1.882,0.149,15.0489,39.1123,0.4605,0.9533,0.0804,283.375
19:12:44:256,1.9047,-0.1754,14.0852,39.1327,0.489,1.0457,0.0378,283.25
19:12:44:278,1.6844,0.1107,12.6966,38.579,0.3452,0.9797,-0.0861,283.1875
19:12:44:303,0.8225,-0.1754,12.8354,39.7991,0.3404,0.7994,-0.3332,283.1406
19:12:44:320,-0.687,-2.0165,12.8462,39.9876,0.5739,0.5917,-0.3404,283.125
19:12:44:338,-1.4328,-3.6506,11.7209,39.6212,0.7555,0.4681,-0.0102,283.25
19:12:44:357,-0.5087,-4.2611,9.7936,40.1669,0.69,0.2947,0.254,283.625
19:12:44:378,0.4897,-3.866,8.2015,40.206,0.3715,-0.0819,0.3006,284.0781
19:12:44:405,0.7196,-3.0592,7.8806,43.2502,-0.0277,-0.4955,0.2199,284.1406
19:12:44:420,0.0049,-2.159,8.8994,41.0012,-0.2426,-0.6366,0.2047,283.8906
19:12:44:441,-0.4536,-1.7891,9.6643,41.3246,-0.1398,-0.5271,0.3286,283.6406
19:12:44:456,-0.3662,-1.0792,9.3207,40.6574,0.1518,-0.2906,0.552,283.4219
19:12:44:479,0.1617,-0.4244,7.9106,42.0661,0.4655,-0.1005,0.7376,283.1562
19:12:44:503,0.3341,0.1155,5.763,43.6544,0.6197,-0.1032,0.8673,282.6875
19:12:44:520,0.3736,0.6267,3.9494,42.833,0.5254,-0.2267,0.9699,281.9844
19:12:44:537,1.3361,1.2612,3.7518,41.8005,0.2711,-0.378,0.9917,281.1562
19:12:44:557,1.7251,1.5365,4.8747,42.7269,0.0037,-0.4904,0.9174,280.25
19:12:44:577,1.9538,1.5676,6.0144,41.4831,-0.1848,-0.5546,0.7715,279.1875
19:12:44:598,1.6473,1.497,7.1887,42.9831,-0.2988,-0.5919,0.5723,278.1406
19:12:44:620,1.3349,1.4467,8.7533,42.7507,-0.4075,-0.549,0.4212,277.25
19:12:44:638,1.2224,1.2564,10.458,42.1082,-0.4328,-0.4502,0.3387,276.5
19:12:44:661,1.0188,1.2181,11.0027,42.9105,-0.3036,-0.2845,0.2452,275.9688
19:12:44:676,1.214,1.2133,11.0039,41.7848,-0.1838,-0.1743,0.1318,275.375
19:12:44:697,1.6234,0.8386,11.0206,42.13,-0.1957,-0.2121,-0.052,275.2188
19:12:44:723,1.6198,0.1538,11.3331,42.5798,-0.3705,-0.3447,-0.3604,274.9375
19:12:44:739,1.208,-0.6003,12.754,42.216,-0.7044,-0.4401,-0.6738,274.9219
19:12:44:756,0.8548,-1.2492,14.6467,43.2407,-0.9982,-0.2606,-0.8632,275.1406
19:12:44:779,1.2942,-1.424,14.248,42.2031,-0.9638,0.2393,-0.8983,275.7344
19:12:44:796,1.3313,0.1407,12.602,44.5195,-0.7531,0.5807,-0.823,276.5781
19:12:44:817,2.2866,1.4467,12.9444,43.1777,-0.6394,0.3293,-0.6528,277.4844
19:12:44:839,3.0419,0.2951,14.4384,41.4099,-0.5846,-0.0643,-0.6344,278.3906
19:12:44:856,3.1664,-1.8561,14.9531,43.4439,-0.4056,-0.1564,-0.7449,279.1562
19:12:44:880,3.5004,-2.9012,13.5956,43.4986,-0.0735,-0.0153,-0.6541,279.7969
19:12:44:895,3.7315,-2.87,10.9488,47.583,0.2381,0.2548,-0.4438,280.5156
19:12:44:917,3.1234,-2.153,8.569,43.3032,0.3356,0.3384,-0.3708,281.3281
19:12:44:937,1.706,-1.5939,7.5299,44.4128,0.2035,0.152,-0.4904,281.9688
19:12:45:007,0.394,-1.5042,7.2809,45.8575,0.0301,-0.0337,-0.5865,282.6406
19:12:45:008,-0.3782,-1.4383,6.8571,46.2008,-0.0232,-0.0909,-0.5199,283.2188
19:12:45:008,-0.6858,-1.2564,6.4788,46.5512,0.0392,-0.0939,-0.3074,283.8906
19:12:45:030,-0.5314,-1.0121,6.1281,44.1688,0.1467,-0.06,0.0164,284.4531
19:12:45:036,0.2132,-0.3885,5.83,44.894,0.2607,-0.0627,0.3589,284.8125
19:12:45:062,0.9578,0.3825,5.6361,46.5216,0.3388,-0.1018,0.5158,284.4375
19:12:45:078,1.5133,0.8913,5.5415,47.0526,0.2674,0.116,0.2005,283.8906
19:12:45:099,2.2207,1.3174,5.3009,47.1156,-0.0378,0.4694,-0.2624,283.4219
19:12:45:123,2.5918,1.6873,5.2506,46.9502,-0.6519,1.0609,-0.8928,283.2188
19:12:45:141,1.5779,1.5796,6.0048,46.0357,-1.3015,1.7563,-1.3804,283.5
19:12:45:158,-0.0538,1.0469,7.3731,46.8331,-1.6355,2.1603,-1.6097,284.4219
19:12:45:185,-2.0984,0.586,9.4405,47.6133,-1.4898,1.9629,-1.5857,285.8281
19:12:45:213,-4.3214,0.0676,11.8035,46.3721,-0.8626,1.3634,-1.2158,287.375
19:12:45:219,-4.9679,-1.2995,13.0713,47.469,-0.0807,0.5139,-0.6328,289
19:12:45:241,-5.406,-2.1781,13.5309,47.6097,0.444,-0.3245,0.1142,289.7031
19:12:45:258,-5.2097,-2.1159,14.7316,46.7995,0.4511,-0.7165,1.0495,289.7031
19:12:45:277,-2.837,-0.9667,17.728,47.243,0.3787,-0.4651,1.9366,291.0156
19:12:45:299,2.2962,0.1431,19.4386,48.7914,0.6988,0.3179,2.1241,289.7969
19:12:45:321,5.4386,1.5054,16.914,51.0742,1.0504,0.8897,1.356,289.7969
19:12:45:337,4.4342,2.5002,12.7516,48.2488,1.1023,0.776,0.1938,287.75
19:12:45:355,1.627,0.3909,10.221,49.1028,1.0517,0.6577,-0.5788,285.4531
19:12:45:376,-1.2317,-2.5684,8.5546,48.3246,1.0101,0.6212,-0.5796,284.125
19:12:45:395,-2.169,-3.9702,6.4932,48.8226,0.8051,0.3879,-0.1431,284.125
19:12:45:421,-1.2964,-3.4662,4.8627,47.9716,0.3433,-0.1327,0.1355,284.9688
19:12:45:440,0.4586,-2.3757,4.6425,49.7059,-0.2559,-0.9021,-0.0278,285.8438
19:12:45:455,1.3241,-1.8262,6.3124,48.7929,-0.8288,-1.5226,-0.4499,286.1875
19:12:45:482,0.6753,-1.8513,9.2872,48.7999,-1.0828,-1.496,-0.7593,286.1094
19:12:45:495,-0.3327,-2.1003,11.4456,49.421,-0.8791,-1.026,-0.8211,286.125
19:12:45:516,-1.2245,-2.5875,11.0697,48.7115,-0.4735,-0.4491,-0.6035,286.5156
19:12:45:538,-2.2433,-2.6582,9.116,50.5384,-0.1348,-0.0361,-0.0323,287.5469
19:12:45:555,-2.3115,-2.2033,7.166,48.5389,0.081,0.1387,0.6772,288.2969
19:12:45:576,-1.3059,-1.3868,5.9006,50.0093,0.2453,0.0457,1.2,288.6562
19:12:45:598,0.3808,-0.568,5.2805,51.6593,0.3907,-0.2909,1.3744,288.3125
19:12:45:617,1.9682,0.2939,4.9872,50.2411,0.4653,-0.7775,1.2189,287.2188
19:12:45:636,3.0204,0.8206,4.9394,50.1145,0.3923,-1.2883,0.8367,285.75
19:12:45:657,3.3771,1.0277,5.6852,51.2593,0.1649,-1.6489,0.3656,284.2969
19:12:45:681,3.1664,0.7548,7.1444,51.5178,-0.1872,-1.6699,-0.0595,283.25
19:12:45:696,2.2064,0.0616,9.5195,52.541,-0.5348,-1.031,-0.3114,282.875
19:12:45:716,1.0715,-0.5285,11.7772,51.8482,-0.7041,0.1072,-0.3247,282.5156
19:12:45:739,0.7746,-0.8278,12.3231,52.5539,-0.7129,0.9493,-0.2645,282.6094
19:12:45:758,1.05,-0.8565,11.9735,51.7644,-0.6594,1.2172,-0.3188,282.9219
19:12:45:778,1.05,-0.8122,11.4073,52.4765,-0.6298,0.883,-0.5324,283.2188
19:12:45:796,0.7399,-1.412,11.6683,51.9998,-0.6464,0.2268,-0.7529,283.4531
19:12:45:822,1.1793,-2.7432,12.8151,53.6634,-0.7595,-0.3349,-0.9367,283.7344
19:12:45:837,1.1876,-3.3908,14.9352,52.8106,-0.8679,-0.6377,-1.1317,284.6406
19:12:45:855,-0.7852,-3.4949,17.8357,52.6658,-0.7486,-0.4161,-1.1402,285.5156
19:12:45:876,-3.0848,-4.0181,19.8768,55.3995,-0.3025,0.4899,-0.6374,286.5312
19:12:45:896,-2.333,-4.9506,18.1326,53.9309,0.3153,1.3712,0.1539,287.75
19:12:45:921,-0.1328,-4.856,13.78,52.3496,0.7531,1.4825,0.7677,288.7812
19:12:45:939,2.1597,-1.8286,8.15,52.771,0.8317,0.8881,0.9286,289.125
19:12:45:956,1.2966,-0.9008,8.3236,53.0077,0.6714,0.1442,0.7107,288.7188
19:12:45:976,0.7004,-0.9391,8.7952,54.2756,0.5428,-0.1649,0.5046,287.8594
19:12:45:996,0.6094,-0.8876,8.6121,55.9455,0.5915,0.0334,0.4886,287.0781
19:12:46:020,0.8967,-0.3861,7.8579,55.3381,0.8333,0.3514,0.5762,286.5
19:12:46:038,1.3708,0.3897,7.0905,54.1909,1.1944,0.45,0.6311,286.0469
19:12:46:055,0.9362,0.7428,5.6061,55.8415,1.6043,0.3083,0.5525,285.5469
19:12:46:080,0.1342,0.8949,3.8153,53.7843,1.8829,0.0726,0.43,285.0469
19:12:46:095,-0.1687,1.0157,2.9725,54.9784,1.832,-0.1847,0.3845,284.4375
19:12:46:117,-0.0119,1.3102,2.9905,54.9351,1.4855,-0.2677,0.417,284.2656
19:12:46:138,0.291,1.8968,3.3628,55.7755,1.0213,-0.1689,0.45,284.1719
19:12:46:158,0.7567,2.5636,4.5491,54.959,0.5484,-0.1205,0.4045,283.9688
19:12:46:176,1.0236,2.7875,6.5734,55.4977,0.1827,-0.2353,0.234,283.8125
19:12:46:197,0.4969,2.5792,9.1304,55.666,0.0104,-0.4023,-0.0453,283.4531
19:12:46:222,-0.5829,2.1183,11.6575,56.5213,0.0256,-0.4001,-0.2355,283.1719
19:12:46:240,-1.3083,1.6311,12.869,57.5772,0.1982,-0.1029,-0.2307,283.1094
19:12:46:257,-1.3754,1.6993,12.5769,57.3985,0.3934,0.373,-0.056,283.3438
19:12:46:276,-0.9456,2.2081,12.0645,56.5773,0.4456,0.7112,0.1746,283.6562
19:12:46:296,-0.4476,2.7264,12.1627,57.602,0.3119,0.8598,0.3872,283.875
19:12:46:322,0.0851,3.0137,12.5673,59.1113,0.106,0.9594,0.5461,283.8125
19:12:46:338,0.4897,3.6577,12.6068,59.1113,-0.0637,0.927,0.6985,283.4688
19:12:46:357,1.2224,4.3808,13.3502,57.721,-0.2626,0.5919,0.853,282.8438
19:12:46:376,1.4953,3.38,15.5157,56.9518,-0.3555,0.0556,0.7006,282.0156
19:12:46:397,0.2144,1.1079,15.5972,59.428,0.0511,-0.1485,0.3115,280.4531
19:12:46:422,-0.8714,-0.416,12.2405,60.0054,0.7851,0.0401,0.1906,279.5781
19:12:46:438,-0.5063,-0.0533,8.308,58.797,1.2152,0.1624,0.3973,279.25
19:12:46:456,0.643,0.8996,6.5686,58.0979,1.0133,-0.1298,0.5336,279.1875
19:12:46:477,0.9015,1.3952,7.3707,59.0207,0.4072,-0.6584,0.3701,278.9375
19:12:46:497,0.5149,1.2037,9.3471,59.8209,-0.2019,-1.0457,0.0386,278.5469
19:12:46:521,0.2012,0.6147,10.5777,57.1432,-0.5073,-0.9823,-0.2022,278.3125
19:12:46:540,-0.4308,0.1706,9.9193,58.025,-0.4597,-0.5362,-0.2952,278.4219
19:12:46:555,-0.9588,0.0748,8.2027,60.0268,-0.2354,-0.0118,-0.1921,278.75
19:12:46:575,-0.8702,0.2795,6.6428,57.5223,-0.0037,0.2974,0.1049,279.0938
19:12:46:595,-0.547,0.6375,5.3188,57.3708,0.2077,0.3309,0.4274,279.2812
19:12:46:621,-0.3064,1.0229,4.5874,58.6636,0.3816,0.12,0.6623,279.1094
19:12:46:640,0.2766,1.242,4.4054,58.1474,0.5832,-0.5546,0.9059,278.5938
19:12:46:661,0.8752,1.4994,4.2103,58.8652,0.5191,-0.7692,0.8788,278.5938
19:12:46:675,1.3097,2.086,4.3863,58.6582,0.2921,-0.8092,0.7659,277.0938
19:12:46:696,1.633,2.4595,4.9585,58.32,-0.0634,-0.7085,0.5565,276.6719
19:12:46:723,1.5168,2.5504,6.3902,58.9562,-0.4716,-0.4725,0.3331,275.4688
19:12:46:742,0.862,2.6091,8.6875,59.832,-0.7587,-0.003,0.1983,274.8281
19:12:46:756,0.1737,2.5887,10.6028,58.5298,-0.8165,0.4574,0.1216,274.3281
19:12:46:774,-0.1711,2.73,11.5533,60.959,-0.6685,0.5453,0.0417,274
19:12:46:795,0.0719,2.7372,11.9987,58.7587,-0.452,0.2375,-0.0991,273.7031
19:12:46:820,0.2898,2.4559,12.1291,59.4937,-0.3539,-0.1469,-0.2573,273.3906
19:12:46:840,0.3592,1.6466,12.2632,58.4364,-0.4866,-0.3676,-0.3449,273.1719
19:12:46:855,0.7184,0.6662,12.8007,59.3415,-0.7819,-0.3684,-0.3516,273.1875
19:12:46:875,0.947,0.6482,13.8039,58.727,-1.053,-0.3714,-0.3519,273.4688
19:12:46:896,0.8393,0.8745,15.9599,59.3458,-1.0432,-0.2915,-0.3969,273.8594
19:12:46:920,0.6262,0.2149,18.3026,59.5375,-0.6093,0.2564,-0.3553,274.2344
19:12:46:943,0.5831,-0.9403,17.5149,58.4183,0.053,0.9693,-0.1135,274.9375
19:12:46:955,1.0835,-1.2803,13.4866,59.2441,0.5364,1.1357,0.2247,275.25
19:12:46:975,2.0053,-0.7955,9.304,57.4509,0.6117,0.6638,0.4439,275.3125
19:12:46:995,2.7558,0.021,6.8583,57.4834,0.3851,-0.0496,0.4489,275.1562
19:12:47:072,2.8552,0.6638,6.419,57.3131,0.1081,-0.4939,0.3445,274.7031
19:12:47:072,2.8971,0.7727,6.8068,56.8895,-0.0463,-0.4638,0.1901,274.2031
19:12:47:073,2.8624,0.6817,6.5423,57.9445,-0.102,-0.1849,0.0314,273.8281
19:12:47:075,2.9713,0.9774,5.9282,56.707,-0.1079,0.0207,-0.1268,273.5938
19:12:47:096,3.2586,1.5149,5.1105,55.7221,-0.1081,-0.0209,-0.4083,273.5156
19:12:47:122,2.5727,1.837,4.5994,57.3422,-0.1803,-0.109,-0.7173,273.5469
19:12:47:137,1.2152,1.5018,4.6568,56.4076,-0.3419,-0.0302,-0.8046,273.8125
19:12:47:156,0.206,1.321,5.4553,57.0925,-0.4381,0.1115,-0.676,274.0938
19:12:47:175,-0.1184,1.7292,6.2969,56.1708,-0.339,0.0476,-0.4627,274.9062
19:12:47:195,-0.0741,2.7025,7.0738,55.5538,-0.0961,-0.3005,-0.1814,275.75
19:12:47:215,0.9805,3.4913,8.1847,56.0798,0.1995,-0.762,0.0367,276.4531
19:12:47:239,2.3165,4.0732,9.3782,56.6531,0.4418,-1.0829,0.0274,276.9375
19:12:47:256,2.5595,4.3413,10.6531,56.2762,0.5614,-1.1085,-0.1034,277.2031
19:12:47:275,1.9945,4.2958,11.7269,55.5523,0.5153,-0.8686,-0.2158,277.2812
19:12:47:295,1.5755,4.151,12.8917,56.3567,0.3553,-0.4166,-0.2877,277.5
19:12:47:315,1.4725,3.7858,14.2348,55.8066,0.261,0.1741,-0.3708,277.8594
19:12:47:338,1.4738,2.1255,14.0397,56.1766,0.3127,0.6934,-0.5351,278.2656
19:12:47:358,0.1019,1.5892,12.4248,56.0839,0.3249,0.9597,-0.7058,278.6875
19:12:47:376,-1.4436,1.6442,12.6104,54.8595,0.0852,0.7309,-0.6781,279.1562
19:12:47:395,-2.0086,0.9403,15.4535,54.9312,-0.2288,0.1855,-0.4272,279.75
19:12:47:415,-1.4424,-0.2891,17.157,55.7066,-0.1001,-0.0728,-0.0768,280.4844
19:12:47:443,-0.5506,-1.2695,14.7532,56.5507,0.5404,0.2018,0.2306,281.0625
19:12:47:456,-0.5063,-1.0947,9.978,54.1577,1.1364,0.5379,0.4063,281.3125
19:12:47:474,-1.0043,-0.4244,6.65,54.061,1.1854,0.4047,0.5057,281.2344
19:12:47:494,-1.2556,0.2711,6.2586,53.3481,0.7305,-0.1335,0.6082,280.9062
19:12:47:514,-0.2022,0.6183,7.8591,55.3103,0.1936,-0.6877,0.7547,280.4375
19:12:47:536,0.8393,0.7237,8.9329,55.4286,-0.0208,-0.9429,0.7733,279.6406
19:12:47:558,1.1278,0.7165,8.727,53.9777,0.0743,-0.8787,0.6684,278.9219
19:12:47:576,1.1697,0.762,7.5131,53.3313,0.2538,-0.5687,0.6141,278.25
19:12:47:596,1.2295,1.0409,6.1053,52.8755,0.3558,-0.2025,0.6484,277.6562
19:12:47:622,1.366,1.3258,4.9453,52.7047,0.3659,0.039,0.7083,277.0781
19:12:47:641,1.5085,1.5772,4.2055,54.3315,0.3206,0.1181,0.7185,276.7656
19:12:47:656,1.7623,1.7125,3.9889,53.7817,0.2309,0.0558,0.6695,276.0469
19:12:47:675,1.9514,1.7711,4.3647,52.8039,0.0834,-0.0574,0.5816,275.2344
19:12:47:695,1.8077,1.5748,5.3907,51.8072,-0.1358,-0.149,0.4711,274.4375
19:12:47:715,1.439,1.3354,6.8009,52.8074,-0.3891,-0.0917,0.4095,273.7188
19:12:47:739,1.1709,1.6239,8.466,52.3482,-0.6224,0.1192,0.4295,273.1719
19:12:47:756,1.6689,2.4176,9.6523,51.6011,-0.6959,0.4071,0.4647,272.7031
19:12:47:775,2.4422,2.888,9.6643,52.9615,-0.4914,0.467,0.3227,272.2031
19:12:47:795,2.4769,2.9024,9.0263,53.4207,-0.2218,0.2106,-0.0456,271.6094
19:12:47:816,1.8652,2.6474,8.8527,51.5731,-0.2069,-0.1455,-0.4195,270.7969
19:12:47:838,0.9243,2.1985,10.3143,52.0215,-0.5148,-0.4411,-0.6661,270.7812
19:12:47:855,0.5903,1.2612,13.112,52.4301,-0.9204,-0.5093,-0.7431,271.2656
19:12:47:874,1.2463,0.2795,14.673,51.8217,-1.1279,-0.1905,-0.673,272.0625
19:12:47:895,1.7778,0.5621,14.6622,52.3358,-1.1412,0.1496,-0.5937,272.9375
19:12:47:915,1.3433,1.6394,15.8725,50.5272,-1.2008,0.169,-0.5929,273.6406
19:12:47:941,1.0009,1.2001,18.6545,49.8924,-1.2171,0.0774,-0.6565,274.2188
19:12:47:958,1.0991,-0.5189,18.2451,50.3081,-0.7603,0.3394,-0.6952,274.7969
19:12:47:974,1.2367,-1.4886,14.3761,50.5015,-0.0583,0.7821,-0.59,275.4219
19:12:47:995,1.5037,-1.5628,10.3491,50.6031,0.3316,1.0292,-0.2965,276.125
19:12:48:015,1.8544,-1.0947,7.871,48.793,0.3145,0.8966,0.0766,276.7188
19:12:48:038,2.0555,-0.3896,6.9888,50.1045,-0.0855,0.0766,0.474,277
19:12:48:056,2.1537,0.2304,7.0427,48.5561,-0.1222,-0.1048,0.5051,277
19:12:48:075,2.1094,0.4495,6.9385,49.5736,-0.032,-0.0457,0.4822,276.8438
19:12:48:095,2.0256,0.6363,6.4633,49.3983,0.1052,0.1299,0.4338,276.4062
19:12:48:115,1.9227,0.8901,5.5942,48.1799,0.2269,0.2388,0.3608,275.2969
19:12:48:139,1.8472,1.2707,4.6508,49.4715,0.2807,0.1517,0.2433,274.75
19:12:48:154,1.6701,1.5449,4.2067,47.7906,0.2535,-0.039,0.086,274.25
19:12:48:174,1.6318,1.6023,4.1696,46.4232,0.1425,-0.2366,-0.0983,273.8281
19:12:48:194,1.4007,1.6921,4.6664,47.8284,-0.057,-0.3695,-0.2845,273.5781
19:12:48:214,1.2882,1.8801,5.9234,45.9783,-0.2778,-0.3647,-0.4648,273.5156
19:12:48:238,1.0344,1.995,7.737,47.2305,-0.4357,-0.1871,-0.6091,273.6719
19:12:48:256,0.5831,2.0153,9.6236,46.832,-0.4703,0.067,-0.6789,274.0156
19:12:48:274,-0.0442,2.0393,11.6395,45.3031,-0.3582,0.3448,-0.6616,274.5625
19:12:48:294,-0.5123,2.0453,13.3035,46.0578,-0.0847,0.6026,-0.5692,275.2344
19:12:48:314,-0.444,1.9435,13.6363,44.9564,0.1965,0.7102,-0.4773,275.9219
19:12:48:337,-0.6475,2.0788,13.5681,43.9882,0.3734,0.6601,-0.342,276.6094
19:12:48:357,-0.9528,2.3338,13.434,43.1444,0.4655,0.52,-0.1623,277.7031
19:12:48:374,-0.7433,2.3517,13.3119,44.4636,0.3894,0.4486,0.0676,278.0625
19:12:48:393,0.4861,2.3158,12.9372,44.4108,0.0799,0.3538,0.2865,278.1875
19:12:48:415,1.7886,2.8689,13.3765,43.9897,-0.3412,-0.063,0.3001,278.1875
19:12:48:436,2.1501,2.5061,16.2376,43.3213,-0.2823,-0.0592,0.091,278.0312
19:12:48:456,1.1685,0.3442,17.2336,41.7064,0.4394,0.4164,-0.0256,277.6406
19:12:48:477,-0.1304,-1.3234,13.6722,42.5264,1.0884,0.7959,0.1896,277.3594
19:12:48:495,-0.5494,-1.5257,8.3535,43.1162,1.081,0.4846,0.5171,277.3438
19:12:48:516,-0.4297,-0.6817,5.4565,41.6141,0.5531,-0.3602,0.7137,277.3438
19:12:48:537,-0.043,0.1466,5.8073,39.7425,-0.073,-1.1495,0.7304,277.0469
19:12:48:555,0.4814,0.4292,8.5666,39.7262,-0.3691,-1.2875,0.6348,276.4219
19:12:48:577,0.9207,0.3454,10.5166,39.7262,-0.2437,-0.8984,0.4809,275.7812
19:12:48:595,0.7351,0.1191,10.2701,42.5257,0.0621,-0.3394,0.4135,275.125
19:12:48:614,0.0911,0.0497,8.2529,40.869,0.281,0.1032,0.5304,274.8438
19:12:48:636,-0.1459,0.1431,6.17,40.1018,0.3539,0.2878,0.768,274.3906
19:12:48:655,0.3209,0.3753,4.67,40.7765,0.3369,0.1778,0.94,274
19:12:48:675,1.0081,0.8972,4.0284,39.9362,0.2783,-0.1429,0.9501,273.4062
19:12:48:696,1.5216,1.3521,4.2319,38.6974,0.2061,-0.4624,0.8127,272
19:12:48:714,1.8221,1.6179,4.992,39.2961,0.1412,-0.6236,0.5885,270.9688
19:12:48:740,1.8305,1.6706,6.8116,39.72,0.0349,-0.6789,0.3485,270.0312
19:12:48:756,1.5468,1.9447,7.895,39.2402,-0.1095,-0.5865,0.1864,269.3281
19:12:48:774,1.5384,2.0883,9.146,39.2231,-0.2567,-0.4086,0.0974,268.9375
19:12:48:798,1.4342,2.1506,10.3754,38.5969,-0.3433,-0.1759,0.0007,268.7656
19:12:48:813,1.5408,2.3613,10.8051,39.1266,-0.3225,0.0862,-0.1146,268.6719
19:12:48:835,1.3445,2.4774,11.1284,39.7891,-0.269,0.1426,-0.2885,268.6406
19:12:48:855,0.8896,2.2081,11.8897,37.3027,-0.2453,-0.0238,-0.4861,268.6719
19:12:48:874,0.5376,1.3354,13.2987,36.7831,-0.2322,-0.2419,-0.6041,268.8594
19:12:48:894,0.5232,0.2089,14.6191,37.7015,-0.1617,-0.244,-0.5676,269.2812
19:12:48:916,1.3253,-0.6255,13.8542,37.6747,0.0402,0.0545,-0.3604,269.8906
19:12:48:939,1.5935,0.2364,11.7545,37.8744,0.1723,0.3616,-0.1511,270.6094
19:12:48:957,1.6294,1.3461,11.6419,35.5283,0.0274,0.2337,-0.0896,271.1719
19:12:48:973,1.9729,0.7332,12.9156,36.149,-0.1752,-0.1005,-0.1945,271.4531
19:12:48:994,2.1405,-0.4076,12.596,36.5898,-0.1918,-0.0784,-0.3583,271.5312
19:12:49:014,1.9669,-0.999,11.5701,35.4089,-0.2131,0.2263,-0.4264,271.75
19:12:49:037,1.7251,-0.6817,10.0438,37.5254,-0.2693,0.483,-0.3407,272.1406
19:12:49:054,2.016,-0.0341,8.5905,36.0316,-0.3515,0.532,-0.2299,272.5781
19:12:49:139,2.125,0.3286,7.8627,37.1297,-0.4938,0.3813,-0.2499,272.75
19:12:49:140,1.7886,0.3969,7.4868,36.3628,-0.5992,0.2343,-0.3316,272.9531
19:12:49:140,1.1074,0.41,6.9313,36.656,-0.5907,0.2151,-0.3607,273.1094
19:12:49:140,0.7076,0.6004,6.0634,36.0895,-0.4501,0.2364,-0.2744,273.3438
19:12:49:165,1.0727,0.9224,5.162,37.6177,-0.2354,0.1669,-0.1282,273.6719
19:12:49:173,1.3433,1.3725,4.4761,37.8029,-0.0812,-0.0733,-0.0536,273.9531
19:12:49:194,1.1625,1.7747,4.852,35.0684,-0.1201,-0.354,-0.0981,274.125
19:12:49:214,1.3109,1.6789,5.6852,36.0443,-0.2344,-0.4832,-0.1689,274.1875
19:12:49:238,1.1948,1.5485,6.656,34.8569,-0.3257,-0.4731,-0.3026,274.3438
19:12:49:256,0.7543,1.6622,8.2302,34.8992,-0.4296,-0.3492,-0.4467,274.5625
19:12:49:274,0.5424,2.0177,10.1659,36.2364,-0.5031,-0.0893,-0.5071,274.9219
19:12:49:294,0.1653,2.4092,11.4073,35.8513,-0.4037,0.1392,-0.5612,275.3906
19:12:49:314,-0.4488,2.3014,12.1782,34.9525,-0.1843,0.2516,-0.6866,275.9375
19:12:49:339,-0.3566,1.6706,12.3746,35.6309,0.0131,0.3067,-0.7263,276.5312
19:12:49:355,-0.3937,1.4802,12.2453,36.3193,0.0882,0.4521,-0.6659,277.2812
19:12:49:374,-0.1519,1.2121,13.021,35.7455,0.0482,0.5,-0.5492,277.2812
19:12:49:397,0.5292,0.8733,14.315,34.1258,-0.0077,0.5054,-0.4011,278.7812
19:12:49:421,1.3301,0.7596,14.3186,36.7708,-0.0474,0.7147,-0.3844,279.3906
19:12:49:435,1.0344,0.9284,14.017,35.5756,-0.3201,0.3911,-0.4949,279.7969
19:12:49:457,0.0109,0.5908,15.9754,35.0882,-0.4788,0.0257,-0.4443,280.0938
19:12:49:476,-0.9013,-0.7919,18.6821,34.9067,-0.045,0.2273,-0.1473,280.4844
19:12:49:495,-0.6439,-2.4786,17.4706,33.2149,0.7406,0.6945,0.3051,281.3906
19:12:49:513,-0.0238,-2.8976,12.5972,34.989,1.1854,0.7011,0.7776,281.3906
19:12:49:539,0.7363,-1.9148,8.2446,35.8514,1.0717,0.1677,0.9869,281.5312
19:12:49:558,0.6226,-0.4914,6.5135,35.4236,0.6836,-0.4821,0.8865,281.2656
19:12:49:574,-0.043,0.3597,6.6979,35.5639,0.3081,-0.8912,0.7557,280.5469
19:12:49:593,0.0049,0.2568,7.6544,34.755,0.1188,-0.9077,0.728,279.5781
19:12:49:613,0.2276,0.246,7.9153,35.5436,0.1119,-0.6217,0.7568,278.7188
19:12:49:634,0.4598,0.2975,7.3431,35.1661,0.2378,-0.329,0.7991,278.0312
19:12:49:656,0.546,0.5034,6.3783,34.8974,0.4024,-0.0925,0.8228,277.3281
19:12:49:673,0.6394,0.7847,5.0088,34.7101,0.4573,-0.0012,0.8141,276.5312
19:12:49:694,0.9027,1.0959,3.9697,35.2855,0.3742,-0.0765,0.7635,275.6875
19:12:49:713,1.2631,1.3833,3.7123,35.6117,0.2088,-0.2433,0.6404,274.8438
19:12:49:739,1.5108,1.4695,3.9757,36.8389,0.0139,-0.4273,0.4708,273.9688
19:12:49:756,1.4055,1.643,4.7837,35.9328,-0.2024,-0.5972,0.3216,273.1406
19:12:49:776,1.3469,1.6203,6.3519,34.8993,-0.4043,-0.6694,0.2124,272.5
19:12:49:794,1.1769,1.552,8.5905,34.9919,-0.4908,-0.5125,0.127,272.0312
19:12:49:814,0.7124,1.4647,10.634,35.875,-0.4008,-0.28,0.0868,271.625
19:12:49:839,0.6537,1.4132,11.7521,36.2267,-0.2099,-0.1098,0.0383,271.4844
19:12:49:856,0.8788,1.424,12.019,35.7371,-0.0647,-0.0677,-0.0605,271.375
19:12:49:873,1.1577,1.388,11.8945,36.6289,-0.086,-0.1729,-0.1915,271.2969
19:12:49:894,1.2475,1.2875,12.7205,37.3372,-0.1654,-0.2062,-0.3292,271.3125
19:12:49:914,0.965,0.9272,14.1331,37.7676,-0.1574,0.002,-0.4264,271.4688
19:12:49:939,1.1338,0.1335,14.5652,37.5917,-0.0479,0.3602,-0.428,271.7812
19:12:49:958,1.8712,-0.4088,12.8714,37.5634,-0.1068,0.4923,-0.4278,272.2188
19:12:49:974,1.6497,0.4004,11.5078,37.1105,-0.371,0.2281,-0.4504,272.6719
19:12:50:001,1.3217,0.8146,12.6559,37.1665,-0.5148,-0.0978,-0.5311,273.0938
19:12:50:013,1.5168,-0.3813,14.4539,38.0333,-0.3545,-0.0068,-0.5692,273.5156
19:12:50:036,1.9442,-2.2296,14.333,38.8572,-0.0517,0.3738,-0.4331,274.0156
19:12:50:056,2.1262,-2.9455,12.432,39.9738,0.2349,0.6356,-0.1239,274.3125
19:12:50:074,2.2926,-2.3888,9.5997,39.2524,0.3614,0.462,0.1797,274.9375
19:12:50:094,2.605,-1.3018,7.4784,39.3339,0.298,0.0137,0.2841,275.3906
19:12:50:116,2.7247,0.2125,6.4884,39.6583,0.1694,-0.3535,0.2319,275.4062
19:12:50:139,2.593,0.4902,6.164,39.218,0.0647,-0.4153,0.0963,275.1094
19:12:50:157,2.3069,0.7548,5.4745,38.5526,-0.0373,-0.2409,-0.076,274.8594
19:12:50:174,1.6485,1.1031,5.253,40.4252,-0.1838,-0.0664,-0.2496,274.7188
19:12:50:193,1.0512,1.2229,5.4589,42.1184,-0.3225,0.0404,-0.3692,274.75
19:12:50:214,0.6286,1.3114,5.8731,40.6173,-0.3609,0.0785,-0.4118,274.9531
19:12:50:239,0.4921,1.4276,6.2155,41.7116,-0.2975,0.1472,-0.3737,275.2656
19:12:50:255,0.9267,1.8046,6.2634,43.1941,-0.1744,0.2433,-0.2419,275.6875
19:12:50:273,1.3421,2.6019,6.3172,42.0159,-0.0645,0.2335,-0.1559,276.1094
19:12:50:293,1.5037,3.1562,7.0044,41.8664,-0.0373,0.039,-0.2067,276.4062
19:12:50:313,1.2714,3.1765,8.9688,45.5813,-0.1313,-0.2164,-0.3793,276.5938
19:12:50:341,0.1881,2.7575,11.7365,43.9057,-0.2455,-0.235,-0.5679,276.7656
19:12:50:359,-0.7636,2.1853,14.1343,43.1463,-0.2131,0.0553,-0.5953,277.0781
19:12:50:373,-1.2772,2.1709,14.849,43.6298,-0.0133,0.5285,-0.4176,277.6094
19:12:50:396,-0.6619,2.2356,14.4958,45.4291,0.2373,0.8604,-0.1519,278.6094
19:12:50:417,0.3245,1.965,14.1187,46.6642,0.3718,0.8945,0.0282,279.0469
19:12:50:438,0.8034,1.4563,13.7943,44.871,0.3507,0.8452,0.0623,279.1562
19:12:50:457,0.5244,1.3689,13.659,46.3956,0.1766,0.7877,0.0865,279.1094
19:12:50:474,0.8836,1.479,14.5952,47.0286,-0.0892,0.5728,0.2393,279
19:12:50:494,1.2978,0.2005,15.493,46.3456,-0.1422,0.3797,0.2511,278.8594
19:12:50:515,0.4694,-1.4036,12.9887,46.7018,0.3145,0.5799,0.0356,278.7188
19:12:50:539,-0.1902,-1.995,8.6575,49.0666,0.8512,0.8777,-0.0331,278.3281
19:12:50:557,-0.2453,-1.4335,5.3057,48.0695,0.9223,0.863,0.099,278.1094
19:12:50:574,-0.0454,-0.6961,3.9625,48.1806,0.5119,0.3509,0.1773,278.1719
19:12:50:597,-0.1783,-0.2723,5.4074,47.4971,-0.1308,-0.5527,0.1187,278.2188
19:12:50:612,0.0576,-0.5896,8.2625,48.7266,-0.6557,-1.3748,0.0652,278.1094
19:12:50:634,-0.0466,-0.7177,10.0246,50.6097,-0.7902,-1.5671,0.063,277.9688
19:12:50:656,-0.4668,-0.4938,9.8726,48.6464,-0.6362,-1.121,0.1291,277.9219
19:12:50:673,-0.4368,-0.0341,8.4624,49.0942,-0.4184,-0.4094,0.3246,277.8906
19:12:50:693,0.2156,0.6171,6.8894,49.1718,-0.2727,0.1568,0.5584,277.7812
19:12:50:713,0.7639,1.1678,5.7941,50.3813,-0.2043,0.3821,0.654,277.3906
19:12:50:740,1.129,1.4168,5.3284,50.0776,-0.1659,0.2537,0.6034,276.7031
19:12:50:756,1.3576,1.4252,5.2219,49.9087,-0.122,-0.0949,0.4974,275.9375
19:12:50:773,1.548,1.5006,5.5343,49.9087,-0.0871,-0.5157,0.3805,275.1875
19:12:50:797,1.9729,1.5951,6.5363,47.7112,-0.1023,-0.9522,0.2583,274.2188
19:12:50:813,2.4434,1.5772,8.1212,50.3053,-0.2882,-1.2973,-0.1266,274.2188
19:12:50:835,2.3416,1.3892,10.0282,50.1183,-0.3699,-0.9314,-0.3601,274
19:12:50:862,1.7587,1.2695,11.6311,50.1183,-0.3318,-0.407,-0.5431,274.2344
19:12:50:876,1.7491,1.1355,12.1663,50.3541,-0.2232,-0.0148,-0.7711,274.2344
19:12:50:892,1.7778,0.7332,12.0669,51.0743,-0.1893,0.2034,-1.0512,274.6719
19:12:50:914,1.2427,0.0365,11.3786,50.2125,-0.3872,0.3147,-1.3191,275.2969
19:12:50:938,-0.3339,-0.9283,11.2804,51.7756,-0.8093,0.4438,-1.3346,276.1719
19:12:50:955,-1.0869,-2.0704,12.4895,50.5342,-1.1755,0.7451,-1.0768,277.9844
19:12:50:980,-0.0813,-2.7755,13.5142,51.7133,-1.3089,1.0231,-0.9042,279.4844
19:12:50:992,0.0779,-1.8465,14.1666,50.9,-1.2789,0.9863,-0.9511,280.1719
19:12:51:013,-0.6356,-1.339,15.7875,51.6536,-1.0224,0.9677,-1.0326,281.25
19:12:51:033,-0.9157,-2.8784,16.7069,52.1579,-0.4969,1.1528,-0.828,282.0938
19:12:51:057,-0.7098,-4.2623,15.1566,51.0153,0.0807,1.1006,-0.2523,283.0156
19:12:51:073,0.2862,-4.0719,12.4296,51.2628,0.4376,0.5498,0.429,284.0781
19:12:51:099,1.773,-2.4762,10.865,53.0714,0.6032,-0.1149,0.8378,284.9219
19:12:51:112,3.0862,-0.7883,10.4652,51.2655,0.8006,-0.5114,0.8077,285.25
19:12:51:133,3.34,0.234,9.7757,50.9445,1.024,-0.6097,0.5723,284.8438
19:12:51:156,2.7128,0.5644,8.5702,51.6412,1.1984,-0.4584,0.3757,284.0156
19:12:51:242,1.8041,0.5597,7.0056,51.4106,1.2743,-0.1961,0.3097,283.2344
19:12:51:242,1.214,0.6243,5.6121,51.9631,1.2722,0.0987,0.3648,282.75
19:12:51:242,1.3229,0.8206,4.2199,51.1557,1.1966,0.2646,0.4018,282.5
19:12:51:243,1.7323,1.157,3.0216,52.8645,1.0157,0.1709,0.3315,282.2344
19:12:51:255,1.6653,1.4647,2.939,50.8558,0.7934,-0.0867,0.2207,281.9531
19:12:51:275,1.026,1.4287,4.1002,53.1604,0.6591,-0.2861,0.213,281.6562
19:12:51:292,0.8309,1.5377,4.931,51.1692,0.5728,-0.4496,0.2284,281.5
19:12:51:312,0.8058,2.0249,5.5044,53.2503,0.4677,-0.5892,0.1741,281.375
19:12:51:332,1.0787,2.4367,6.3795,53.1693,0.3364,-0.6968,0.0484,281.25
19:12:51:352,1.3277,2.6534,7.6927,53.3844,0.1569,-0.6449,-0.1234,281.1562
19:12:51:372,1.111,2.7635,9.5853,52.7928,-0.036,-0.4033,-0.268,281.1562
19:12:51:392,0.5723,2.6426,11.673,53.4748,-0.1752,0.0367,-0.3165,281.3125
19:12:51:412,-0.0214,2.5181,13.2281,53.116,-0.2618,0.5123,-0.2384,281.6094
19:12:51:432,0.1294,2.1925,14.5006,53.1696,-0.2818,0.9253,-0.1439,281.9688
19:12:51:453,0.4562,1.8789,15.1794,53.5374,-0.282,1.2497,-0.077,282.2344
19:12:51:474,0.1246,1.6646,14.8478,51.343,-0.3912,1.3954,0.1166,282.3281
19:12:51:492,-0.8079,2.1913,14.3761,54.2285,-0.645,1.1096,0.483,282.2969
19:12:51:514,-0.0621,1.145,17.5784,54.6993,-0.6679,0.7014,0.6644,282.2344
19:12:51:537,0.121,-0.847,15.7228,53.7767,0.0527,0.4982,0.5954,281.5312
19:12:51:553,0.1007,-1.5664,10.8219,54.9507,0.9297,0.5261,0.6111,280.6562
19:12:51:573,0.534,-0.7739,6.7805,53.8641,1.1715,0.4529,0.764,279.7812
19:12:51:591,0.3736,0.2951,5.0579,53.4171,0.7534,0.0353,0.732,279.1875
19:12:51:612,0.5532,0.5944,5.7402,54.8947,0.012,-0.5146,0.5882,278.5781
19:12:51:633,1.0296,0.434,7.3168,53.306,-0.6059,-0.8385,0.4487,277.8438
19:12:51:655,1.0296,0.1442,8.2517,52.6035,-0.8266,-0.7999,0.3001,277.2031
19:12:51:672,0.3461,0.1526,8.2589,54.3349,-0.7446,-0.4646,0.2063,276.6406
19:12:51:691,-0.0693,0.5896,7.397,54.7617,-0.5116,0.0201,0.2663,276.2344
19:12:51:711,0.133,1.1402,6.1568,54.1495,-0.2096,0.2899,0.4042,275.9219
19:12:51:732,0.2802,1.5042,4.8484,51.6048,0.0791,0.2348,0.4511,275.6094
19:12:51:753,0.2922,1.6131,3.9793,53.581,0.2306,0.0151,0.4156,275.1562
19:12:51:772,0.3521,1.5544,3.5112,54.6102,0.2056,-0.222,0.3826,274.6094
19:12:51:792,0.3425,1.7891,4.099,53.9358,0.0256,-0.5783,0.3651,274.125
19:12:51:811,0.8393,1.989,5.915,53.0123,-0.2378,-1.0771,0.3778,273.7344
19:12:51:832,1.2451,2.147,8.3475,53.0323,-0.4301,-1.6111,0.3435,273.2188
19:12:51:857,1.5994,2.3529,10.7788,53.3487,-0.4975,-1.9578,0.2314,272.8906
19:12:51:873,1.9765,2.3014,13.2389,53.521,-0.4575,-2.0707,0.0545,272.6406
19:12:51:892,2.7511,1.3354,14.8932,52.485,-0.2961,-2.0089,-0.1492,272.5625
19:12:51:912,3.1425,0.1012,15.657,53.1702,-0.122,-1.8385,-0.3497,272.7031
19:12:51:932,2.7259,-0.0844,16.2639,52.2314,-0.1318,-1.5045,-0.4147,273.0781
19:12:51:955,2.9773,-0.0832,15.9718,53.8013,-0.1909,-0.8369,-0.2722,273.6406
19:12:51:976,3.619,-0.2807,14.0349,52.3806,-0.0967,-0.0496,-0.1931,274.2812
19:12:51:993,2.9294,0.6853,11.3115,52.1813,-0.0282,0.5307,-0.3292,274.6719
19:12:52:012,1.8592,1.6167,10.3945,52.2089,-0.2059,0.7365,-0.4429,274.7812
19:12:52:032,1.9622,0.6075,12.2165,51.2457,-0.4546,0.4082,-0.4709,275.0312
19:12:52:053,2.7403,-1.5604,13.829,49.9711,-0.3894,0.0417,-0.4744,275.4219
19:12:52:071,3.4597,-3.1071,13.0222,51.0369,0,0.107,-0.3995,275.875
19:12:52:100,3.9278,-3.3082,10.1922,48.5306,0.3971,0.4572,-0.2001,276.375
19:12:52:120,4.1696,-2.2691,7.3695,49.6602,0.1683,0.7688,0.0457,277.2812
19:12:52:134,4.1145,-0.9164,5.5523,50.1224,-0.3055,0.732,-0.1263,277.2188
19:12:52:154,3.6058,-0.0461,4.8615,50.6981,-0.7302,0.6758,-0.3716,277.1094
19:12:52:174,2.8612,0.2424,4.852,48.4373,-0.9521,0.5829,-0.5623,277.1562
19:12:52:196,1.9981,0.3549,5.1117,49.0572,-0.9329,0.4718,-0.6472,277.1562
19:12:52:214,1.287,0.3597,5.6301,48.8126,-0.698,0.3687,-0.6166,277.4688
19:12:52:238,0.5496,0.3897,5.7642,48.0769,-0.3763,0.36,-0.4786,278
19:12:52:259,-0.0083,0.6255,5.1704,48.7328,-0.167,0.3365,-0.2579,278.6406
19:12:52:275,-0.0059,1.0373,4.7311,47.3929,-0.1132,0.2492,-0.0603,279.2344
19:12:52:292,0.4107,1.3952,4.9118,49.5737,-0.1169,0.1014,0.0071,279.7344
19:12:52:312,0.8524,1.5568,5.3165,47.6078,-0.1643,-0.1551,-0.0544,280
19:12:52:333,0.8991,1.6538,6.2406,47.9086,-0.3071,-0.4422,-0.1402,280.0469
19:12:52:360,0.6717,1.3306,8.053,46.0783,-0.522,-0.5631,-0.1583,280.0156
19:12:52:373,0.6597,0.8314,10.4472,45.7178,-0.6927,-0.602,-0.0999,280.1406
19:12:52:394,1.099,0.3358,13.5453,46.9591,-0.6301,-0.6017,-0.0584,280.3125
19:12:52:412,1.7311,-0.3226,16.4112,46.9354,-0.2197,-0.2936,0.0396,280.4219
19:12:52:432,2.8193,-0.7943,16.7128,45.5594,0.2008,0.1485,0.124,280.4844
19:12:52:454,3.4765,-0.4076,15.3936,45.7922,0.3278,0.4979,0.1065,280.4688
19:12:52:472,4.0858,-0.1478,13.7141,45.628,0.1547,0.6186,-0.1026,280.4375
19:12:52:493,3.8464,-0.2592,12.6547,44.9534,-0.2234,0.3485,-0.2938,280.3125
19:12:52:511,2.9833,-0.5022,13.5537,44.8449,-0.5305,-0.1407,-0.265,280.1875
19:12:52:531,2.6325,-1.1247,16.3753,44.577,-0.2828,-0.1991,-0.1338,280.3125
19:12:52:553,2.8073,-1.5772,16.7619,46.4316,0.4338,0.1048,-0.1047,280.6094
19:12:52:573,2.5368,-1.1953,13.0042,44.8696,0.8573,0.1674,-0.2118,280.8594
19:12:52:592,1.9885,-0.7249,9.1436,43.9217,0.7542,-0.0206,-0.3774,281
19:12:52:612,1.1709,-0.5417,7.16,43.3095,0.3672,-0.284,-0.5079,281.1406
19:12:52:637,0.4167,-0.5824,6.7649,43.8944,-0.0447,-0.5149,-0.509,281.4531
19:12:52:655,-0.0669,-0.6027,7.8112,44.2812,-0.2304,-0.5676,-0.3902,281.9531
19:12:52:674,-0.3375,-0.671,9.0394,44.3224,-0.0186,-0.415,-0.1881,282.8438
19:12:52:695,-0.3997,-0.6566,8.8826,43.8563,0.4224,-0.1942,0.0367,283.3906
19:12:52:712,-0.2321,-0.4328,7.1851,42.1901,0.738,-0.1362,0.2316,283.7344
19:12:52:733,0.0169,-0.0437,5.4062,44.0186,0.7635,-0.3104,0.3661,283.8281
19:12:52:755,0.1533,0.2735,4.7957,40.7626,0.583,-0.6055,0.4234,283.7188
19:12:52:774,0.279,0.2448,5.3296,44.1725,0.3206,-0.9016,0.4609,283.4219
19:12:52:792,0.1402,0.0712,6.978,42.1527,0.106,-1.0089,0.5483,283.0156
19:12:52:812,0.127,-0.2029,9.5111,42.7338,0.1276,-0.7708,0.6924,282.6094
19:12:52:833,0.4885,-0.1395,11.7066,43.3334,0.4189,-0.3024,0.8103,282.1094
19:12:52:856,1.129,0.1538,12.1519,42.9367,0.7587,0.345,0.8247,281.4688
19:12:52:873,1.846,0.58,10.391,42.7329,0.9076,0.818,0.6769,280.6875
19:12:52:892,2.2962,1.2264,8.1165,41.1707,0.7598,0.8755,0.372,279.7344
19:12:52:912,2.21,1.4431,7.2988,43.5518,0.359,0.6068,-0.0025,278.8125
19:12:52:933,2.1884,0.3621,9.4177,42.2969,-0.1129,0.2329,-0.3162,278.1562
19:12:52:955,1.8149,-0.8757,12.0944,42.5405,-0.4679,0.0691,-0.5,277.9688
19:12:52:973,2.0687,-1.6813,13.4603,42.4277,-0.5691,0.2753,-0.4384,278.0469
19:12:52:992,2.4889,-1.3521,12.3458,42.1847,-0.4384,0.6694,-0.2413,278.5156
19:12:53:012,2.6625,-0.313,11.6623,42.1847,-0.4027,0.7688,-0.1306,279.0312
19:12:53:032,3.0168,-0.246,13.1898,42.3851,-0.5428,0.4651,-0.1303,279.3438
19:12:53:057,3.4921,-1.6957,14.2109,43.2219,-0.5393,0.2582,-0.2062,279.4531
19:12:53:073,3.595,-2.7037,13.0282,42.6552,-0.274,0.4167,-0.199,279.5
19:12:53:092,3.7818,-2.2284,10.0139,41.2991,0.0152,0.7706,-0.0118,279.625
19:12:53:112,4.3647,-0.7632,7.0594,41.1202,0.074,0.9605,0.1837,279.8281
19:12:53:133,4.7263,0.5824,5.1812,41.7657,-0.1209,0.8412,0.1203,279.9219
19:12:53:156,4.5096,1.0122,4.6628,42.053,-0.448,0.5203,-0.2403,279.75
19:12:53:176,3.5759,0.8589,5.1082,41.7804,-0.8155,0.2811,-0.6802,279.4531
19:12:53:192,2.4278,0.8625,6.3591,42.4251,-1.1433,0.2287,-1.0049,279.4219
19:12:53:212,1.2559,0.7105,7.9752,41.386,-1.2701,0.2159,-1.1839,279.8438
19:12:53:232,0.1091,0.513,9.2226,40.9353,-1.0746,0.21,-1.2448,281.25
19:12:53:257,-0.766,0.4591,9.1388,41.8094,-0.616,0.2779,-1.1572,282.4375
19:12:53:313,-0.7026,0.3873,7.8064,40.8422,-0.1092,0.3775,-0.938,283.6562
19:12:53:314,-0.2106,0.6195,6.4716,42.1059,0.1907,0.3147,-0.733,284.9062
19:12:53:314,0.0552,1.0361,6.3651,40.479,0.184,0.0755,-0.6635,285.9688
19:12:53:332,-0.0514,0.9858,7.561,42.0812,0.0053,-0.2795,-0.7205,286.7969
19:12:53:352,-0.5781,0.319,9.6883,42.1766,-0.1553,-0.5756,-0.8139,287.5781
19:12:53:374,-1.4256,-0.4172,12.201,42.199,-0.1792,-0.6654,-0.8035,288.4062
19:12:53:398,-1.9464,-0.8685,13.9775,41.1283,0.0296,-0.4917,-0.5841,289.2656
19:12:53:411,-1.9332,-0.7572,14.4958,40.8365,0.3515,-0.1298,-0.2318,289.2656
19:12:53:435,-1.0234,-0.6183,14.4012,39.6536,0.616,0.1786,0.1214,290.5156
19:12:53:457,-0.3578,-0.5405,14.0493,41.5263,0.7484,0.3935,0.3366,291.0156
19:12:53:472,0.1438,-0.8194,13.3035,40.6271,0.7904,0.6194,0.4436,291.125
19:12:53:492,0.3221,-0.7763,11.4947,42.5996,0.7731,0.8593,0.5022,290.9219
19:12:53:512,-0.4021,0.1335,10.3443,39.3348,0.5255,0.912,0.5065,290.5625
19:12:53:532,-0.4524,0.4256,12.0884,40.0185,0.0402,0.6447,0.5712,289.875
19:12:53:558,0.1521,-0.2903,14.3617,40.4897,-0.2272,0.3943,0.6268,289.3438
19:12:53:575,0.4263,-0.8505,14.2588,42.2353,0.0565,0.3661,0.6172,288.6719
19:12:53:592,0.9961,-1.1594,11.9053,40.5572,0.5694,0.3299,0.6109,287.9531
19:12:53:613,1.2906,-1.0169,9.5841,41.2653,0.6352,-0.0289,0.4553,287.25
19:12:53:633,1.2511,-0.9176,8.1967,40.0037,0.2743,-0.1738,0.2945,287.25
19:12:53:658,0.7986,-0.9152,7.9465,42.7031,-0.0764,-0.1958,0.2101,285.7031
19:12:53:675,0.2539,-0.8889,8.2948,43.1223,-0.2439,-0.0933,0.2726,285.7031
19:12:53:693,0.1545,-0.8625,8.6157,41.8687,-0.1656,0.0793,0.4359,285.1719
19:12:53:711,0.3461,-0.5836,8.2841,43.3469,0.0903,0.1866,0.6021,285.1719
19:12:53:733,0.5472,-0.1287,7.0965,42.0432,0.3585,0.112,0.7203,284.3281
19:12:53:758,0.6465,0.2867,5.6385,41.6052,0.4828,-0.1066,0.7906,284
19:12:53:776,0.88,0.5621,4.7933,42.0077,0.4709,-0.3612,0.8295,283.6406
19:12:53:791,1.2499,0.7883,4.5252,42.5666,0.3486,-0.6608,0.8122,282.9062
19:12:53:811,1.7694,1.2863,5.0351,41.6231,0.1009,-1.0694,0.7289,282.0781
19:12:53:832,2.3824,1.9256,6.723,43.9743,-0.2695,-1.2941,0.5571,281.2344
19:12:53:851,2.447,2.3493,9.559,42.7003,-0.5984,-1.0174,0.3938,280.4219
19:12:53:872,2.3153,2.7779,12.6499,40.8004,-0.5899,-0.4512,0.1994,279.7344
19:12:53:891,1.949,3.4602,14.8861,39.4796,-0.074,0.0643,-0.1705,279.1875
19:12:53:911,2.1333,3.2076,14.6443,41.7679,0.5859,0.4047,-0.7039,278.7656
19:12:53:931,2.1621,1.9626,11.5222,41.7773,0.7566,0.6436,-1.1926,278.5156
19:12:53:952,1.1828,1.0876,8.5881,41.004,0.4099,0.6074,-1.4797,278.7031
19:12:53:973,0.0205,0.2963,8.0638,40.5534,-0.073,0.4481,-1.5929,279.5312
19:12:53:992,-0.7936,-0.8637,9.9121,39.6137,-0.319,0.5946,-1.566,280.8438
19:12:54:012,-1.1599,-2.323,11.6671,40.724,-0.3169,1.2361,-1.4171,282.5312
19:12:54:032,-2.199,-3.0305,10.6878,38.5123,-0.4381,2.0556,-1.0512,285.1875
19:12:54:057,-2.6084,-2.9838,8.1189,39.638,-0.8386,2.2881,-0.5705,286.7188
19:12:54:075,-2.0302,-3.2172,6.8787,38.4855,-1.2488,1.7877,-0.1007,288
19:12:54:093,-0.4668,-3.9738,7.4114,39.9143,-1.351,0.5741,0.3648,288.6719
19:12:54:112,1.6785,-4.03,8.8766,37.7096,-1.2661,-0.957,0.5832,288.7344
19:12:54:132,2.8636,-2.6534,11.4947,37.2432,-1.1286,-2.0302,0.4378,288.2188
19:12:54:157,2.7319,-1.4682,14.5976,37.6402,-0.9103,-1.9695,0.0905,287.3281
19:12:54:174,1.2439,-1.1187,16.155,39.1831,-0.588,-0.9426,-0.1564,286.4531
19:12:54:191,-0.2573,-1.1774,15.0453,38.3496,-0.1582,0.267,-0.1471,285.9688
19:12:54:212,-1.1539,-1.0684,11.4564,37.331,0.2218,1.0332,0.0926,285.8906
19:12:54:233,-1.4568,-0.6841,7.5395,37.8293,0.4669,1.1142,0.4532,286.0312
19:12:54:258,-1.106,-0.1957,4.8125,37.6407,0.6149,0.6361,0.7709,286.1094
19:12:54:274,-0.1256,0.5046,3.3771,38.0307,0.6554,-0.1735,0.8665,285.875
19:12:54:292,0.7591,1.5353,3.194,38.3845,0.534,-0.9745,0.6639,285.2656
19:12:54:312,1.6964,2.396,6.0874,35.9572,0.2434,-1.4611,0.2138,284.4219
19:12:54:332,0.5149,1.7436,8.5187,37.1955,-0.1832,-1.4284,-0.3258,283.6875
19:12:54:353,-1.3323,1.3294,11.5881,37.5321,-0.5092,-0.9748,-0.6099,283.25
19:12:54:373,-2.1559,1.0433,13.8183,36.1515,-0.4322,-0.3266,-0.5271,283.375
19:12:54:391,-1.5657,0.8063,13.1239,36.0979,0.1041,0.3158,-0.2448,283.9062
19:12:54:411,-0.699,1.0505,11.2014,33.9358,0.6077,0.6598,-0.0136,284.5312
19:12:54:431,-0.0849,1.1642,10.6423,36.3908,0.7475,0.5842,0.1203,284.9688
19:12:54:451,-0.2716,0.7859,11.7078,36.3087,0.7223,0.1911,0.1568,285.1406
19:12:54:475,-0.6798,0.1993,13.2005,34.8306,0.7784,-0.1431,0.2354,285.1562
19:12:54:492,-0.2058,-0.6518,12.6164,35.1586,1.0474,-0.2227,0.4647,285.0938
19:12:54:513,0.1115,-0.5501,10.0881,34.5125,1.2919,-0.1399,0.7147,285.0156
19:12:54:533,0.5879,0.3094,8.63,34.0631,1.1771,-0.2534,0.9115,284.7812
19:12:54:551,1.3708,0.7656,9.5901,34.3935,0.7041,-0.5999,0.9323,284.2969
19:12:54:573,2.7056,0.1981,11.0901,34.3972,0.1646,-0.55,0.7195,283.5625
19:12:54:591,3.3496,-0.7895,10.8566,32.7142,-0.2916,0.2167,0.2479,282.7031
19:12:54:611,2.8875,-1.4706,9.444,34.0511,-0.7739,1.1552,-0.3159,281.5156
19:12:54:631,1.9777,-1.8525,8.9269,33.3305,-1.326,1.6292,-0.7543,281.1719
19:12:54:651,0.7591,-2.1506,9.8666,32.8892,-1.7659,1.4812,-1.0659,281.2969
19:12:54:678,-0.8893,-2.4594,10.7597,32.8869,-1.8448,1.1166,-1.2507,281.8281
19:12:54:694,-2.114,-2.5756,10.6615,32.194,-1.5148,0.7376,-1.1665,282.6406
19:12:54:711,-2.4779,-2.2703,9.2441,32.1727,-0.9492,0.4156,-0.7806,283.6094
19:12:54:732,-2.1511,-1.7089,7.476,31.7451,-0.4456,0.1791,-0.2363,284.625
19:12:54:758,-1.4663,-0.9499,6.1808,33.4962,-0.163,-0.0153,0.2995,285.3281
19:12:54:775,-0.6415,-0.2197,5.484,33.2281,-0.0551,-0.1767,0.7014,285.5
19:12:54:794,0.1186,0.4615,5.3859,32.747,-0.0165,-0.3844,0.9302,285.1406
19:12:54:815,0.8285,1.0241,5.7378,31.2669,0.0264,-0.6124,1.0053,284.3125
19:12:54:831,1.2224,1.5533,6.1807,32.9207,0.0969,-0.8579,0.923,283.25
19:12:54:852,1.3684,1.7855,6.7027,32.7733,0.1537,-1.0518,0.7009,282.6719
19:12:54:874,1.3911,1.6095,7.6436,32.4753,0.1625,-1.2153,0.422,281.6094
19:12:54:893,0.789,1.4012,9.2298,32.3275,0.1159,-1.271,0.1454,280.6875
19:12:54:911,-0.3698,1.0505,10.8279,31.9754,0.0911,-1.124,-0.0533,280.0781
19:12:54:931,-1.3885,0.6746,12.0537,32.9442,0.1233,-0.758,-0.1141,279.7812
19:12:54:958,-1.3921,0.5704,12.3458,32.207,0.1579,-0.2358,-0.0376,279.8594
19:12:54:972,-0.535,0.5561,12.3327,31.7958,0.1044,0.1213,-0.0176,280.0156
19:12:54:991,0.2156,-0.3861,13.428,32.1154,-0.2674,-0.064,-0.5167,280.0781
19:12:55:012,0.4873,-1.904,15.3529,32.582,-0.2807,0.0564,-0.6091,280.0781
19:12:55:032,1.0212,-3.3477,15.8342,32.5554,-0.0927,0.292,-0.5567,280.3594
19:12:55:057,0.5676,-3.2651,14.4048,32.3569,0.0487,0.2742,-0.4722,280.8906
19:12:55:075,-0.5637,-2.633,13.3729,30.4431,0.0629,0.1203,-0.3463,281.5469
19:12:55:091,-0.614,-3.1957,13.5537,31.2042,0.1694,0.1956,-0.1127,282.1719
19:12:55:111,0.2755,-3.8864,12.6152,32.4636,0.3273,0.4641,0.1762,282.6875
19:12:55:134,1.4474,-3.8146,10.0725,31.5959,0.3321,0.5602,0.437,283.0938
19:12:55:158,2.7032,-3.0077,7.7789,32.3942,0.1185,0.344,0.5107,283.25
19:12:55:175,3.2359,-1.7065,6.7817,31.6415,-0.1558,0.0159,0.3688,282.6562
19:12:55:190,3.0683,-0.7428,7.1265,32.5271,-0.2988,-0.1487,0.1243,282.0781
19:12:55:211,2.3799,-0.2975,7.4844,31.5658,-0.2341,-0.1058,-0.1191,281.8281
19:12:55:233,1.4283,-0.1095,6.8403,32.7768,-0.0855,-0.0973,-0.268,281.5
19:12:55:257,0.5867,0.1024,5.6983,32.7768,-0.0232,-0.1903,-0.3031,281.4688
19:12:55:279,0.0947,0.3849,5.0064,33.0137,-0.0993,-0.357,-0.2784,281.5625
19:12:55:293,-0.1052,0.6028,5.2015,32.396,-0.2173,-0.464,-0.2358,281.8594
19:12:55:311,-0.1531,0.5932,6.2071,31.1331,-0.2131,-0.3666,-0.1601,282.1875
19:12:55:381,-0.043,0.7476,6.8918,31.72,-0.078,-0.2353,-0.0925,282.4844
19:12:55:382,0.394,1.072,7.148,31.0824,0.082,-0.1921,-0.0936,282.7188
19:12:55:382,0.9949,1.4982,7.1229,32.3367,0.1201,-0.2819,-0.2086,282.875
19:12:55:390,1.3528,1.8944,7.5574,32.2869,0.0405,-0.4963,-0.423,282.9688
19:12:55:410,1.0595,1.9315,9.1148,31.966,-0.0418,-0.6252,-0.6339,283.0781
19:12:55:431,0.3592,1.2324,11.612,30.0576,0.0099,-0.5074,-0.7016,283.3281
19:12:55:451,-0.8211,0.3274,14.2851,31.6113,0.3068,-0.0944,-0.5154,284.125
19:12:55:474,-1.5633,-0.2831,15.1411,30.1076,0.6573,0.3648,-0.1263,284.9219
19:12:55:491,-1.0258,-0.3825,14.4635,30.297,0.792,0.6652,0.23,285.6719
19:12:55:511,0.2922,-0.0868,13.8362,30.5341,0.7217,0.8356,0.3579,286.0781
19:12:55:531,1.5228,-0.1538,13.6854,30.3583,0.6083,0.9967,0.2639,286.0938
19:12:55:551,1.8616,-0.3418,12.7289,31.4977,0.4397,1.1248,0.0852,285.7969
19:12:55:573,0.6501,0.2759,11.3833,31.8972,0.1334,0.8942,0.0298,285.5
19:12:55:592,-0.116,0.0629,12.1579,31.7896,-0.0032,0.4721,0.0953,285.3438
19:12:55:610,0.3054,-1.2324,13.41,30.9,0.2392,0.2263,0.1962,285.3125
19:12:55:631,1.1912,-2.2787,12.3279,28.9488,0.5164,0.0865,0.2383,285.2344
19:12:55:658,1.4821,-2.3373,9.5506,31.1066,0.4506,-0.2571,0.1938,285.0781
19:12:55:676,1.117,-1.7747,7.6209,30.1861,0.0623,-0.6792,0.0926,284.875
19:12:55:693,0.0779,-1.6885,8.15,30.0858,-0.3441,-0.8315,0.0343,284.7188
19:12:55:711,-0.2082,-1.6035,8.2924,30.922,-0.5481,-0.7138,0.0913,284.625
19:12:55:731,-0.1064,-1.0014,7.9716,29.8357,-0.5486,-0.4702,0.2886,284.5781
19:12:55:750,1.0787,0.1718,8.3212,29.9423,-0.4067,-0.3397,0.5437,284.5
19:12:55:773,3.0515,1.916,9.7936,28.5541,-0.0618,-0.4648,0.6649,284.25
19:12:55:791,4.2702,2.4475,9.6942,29.8706,0.6554,-0.8411,0.4519,283.7188
19:12:55:810,3.006,1.8106,7.1707,31.1451,1.5175,-1.313,-0.1029,282.9688
19:12:55:830,0.8417,0.908,4.6987,28.5479,1.8485,-1.5197,-0.5713,282.3281
19:12:55:850,-0.2381,0.4986,3.5136,30.1992,1.4639,-1.243,-0.5732,282.2969
19:12:55:874,-0.2238,0.8589,4.1169,29.903,0.6578,-0.774,-0.2619,283
19:12:55:893,0.5975,1.4168,6.2598,30.0919,-0.168,-0.4222,0.1009,283.9844
19:12:55:910,1.7443,1.7113,8.8467,29.4081,-0.6602,-0.2347,0.2937,284.625
19:12:55:933,2.0735,1.5018,10.8925,29.2223,-0.6749,-0.2363,0.2231,284.7812
19:12:55:959,1.4438,0.7895,11.2696,29.9178,-0.3364,-0.2763,0.038,284.5312
19:12:55:975,1.0296,0.2221,11.1427,30.7882,-0.0583,-0.3218,0.0002,284.2031
19:12:55:991,1.2978,0.1419,11.2337,29.7901,-0.1092,-0.3069,0.1438,284.0469
19:12:56:010,1.4893,-0.0365,12.4871,28.9179,-0.4288,-0.3381,0.2348,284.0781
19:12:56:031,2.3333,-1.078,14.3031,30.9937,-0.7428,-0.2592,0.2239,284.0156
19:12:56:050,3.2227,-1.8202,14.327,29.1322,-0.7899,0.0761,0.1667,283.6719
19:12:56:073,2.5535,-0.8865,13.7177,30.3523,-0.6978,0.3727,0.0157,283.4062
19:12:56:092,1.5743,-0.7117,14.0277,30.8242,-0.6301,0.308,-0.1995,283.1875
19:12:56:111,1.4762,-2.0129,14.5545,27.9811,-0.5039,0.2391,-0.3846,283.125
19:12:56:131,2.0974,-3.3178,13.3538,29.1322,-0.2261,0.4814,-0.3969,283.3125
19:12:56:150,2.8528,-3.2435,10.4724,29.4576,0.0003,0.92,-0.2214,283.7188
19:12:56:174,3.334,-2.0405,7.7921,28.3327,-0.0485,1.075,-0.0286,284.125
19:12:56:191,3.097,-0.8062,7.0247,30.1357,-0.3862,0.7533,-0.0334,284.3438
19:12:56:216,2.6254,-0.3861,7.6759,29.0052,-0.7681,0.2652,-0.2041,284.3438
19:12:56:230,2.1992,-0.392,8.4433,30.1263,-0.9675,-0.0179,-0.3878,284.3281
19:12:56:252,1.6665,-0.3454,8.7964,31.118,-0.9401,-0.1167,-0.5037,284.4844
19:12:56:276,0.8572,-0.0844,8.2649,28.3918,-0.7475,-0.0981,-0.5348,284.8438
19:12:56:295,0.0372,0.2185,7.8902,30.1063,-0.5406,-0.0654,-0.4531,285.0781
19:12:56:314,-0.4153,0.3741,7.883,30.5765,-0.338,-0.0206,-0.2493,285.5781
19:12:56:330,-0.031,0.3909,7.7861,31.1056,-0.0818,0.0763,0.0423,286.1094
19:12:56:351,0.7196,0.6399,7.8375,30.8581,0.1984,0.1877,0.3121,286.5781
19:12:56:372,1.6054,1.084,7.391,31.7503,0.4693,0.34,0.4788,286.5312
19:12:56:393,2.1705,1.4623,6.6213,32.1041,0.6725,0.6047,0.352,285.7031
19:12:56:412,2.3309,1.6825,6.4202,31.7753,0.5422,0.4694,0.1376,285.7031
19:12:56:433,2.1477,1.4706,7.2534,32.3591,0.3249,0.3711,-0.0453,285.2344
19:12:56:456,1.4666,0.8242,8.8742,31.9565,0.0977,0.4857,-0.0704,284.8906
19:12:56:476,0.5292,0.4028,10.8686,32.0592,0.0234,0.6865,0.1067,284.7969
19:12:56:492,0.3078,0.1143,12.7995,32.9804,0.2282,0.8039,0.3371,284.875
19:12:56:510,0.7663,-0.3035,13.6147,34.7717,0.5875,0.7784,0.4572,284.9531
19:12:56:529,0.9769,-0.5896,13.1383,33.0883,0.8384,0.6465,0.4926,284.8281
19:12:56:549,1.1864,-0.902,12.0334,33.1991,0.8184,0.5453,0.4766,284.4688
19:12:56:574,0.9518,-0.5321,10.2964,33.3557,0.3894,0.1056,0.377,283.5781
19:12:56:591,-0.11,0.1359,10.7417,36.298,-0.1981,-0.5314,0.315,283.1406
19:12:56:610,-0.4189,-0.5585,14.0744,34.924,-0.2621,-0.5743,0.3938,282.9375
19:12:56:630,0.2934,-1.8585,15.4499,34.1277,0.2471,-0.1247,0.441,282.6094
19:12:56:650,0.3054,-2.0919,12.6678,34.3004,0.6567,0.2127,0.4766,282.1875
19:12:56:674,0.4873,-1.4706,8.6085,34.6976,0.5398,0.1442,0.4825,281.7188
19:12:56:692,1.3887,-0.8721,6.4645,34.7399,0.029,-0.048,0.3062,281.2812
19:12:56:710,2.4661,-0.2532,6.14,35.0781,-0.6543,-0.0433,-0.0834,281.0625
19:12:56:730,3.0982,-0.1814,6.7865,35.5019,-1.2892,0.2902,-0.5492,280.5625
19:12:56:751,2.4709,-0.519,7.8651,34.655,-1.6802,0.8881,-0.8443,280.2344
19:12:56:776,1.1158,-0.5285,8.721,34.7466,-1.6751,1.2875,-0.909,280.2344
19:12:56:794,0.0169,-0.1861,9.1304,34.6542,-1.2685,1.2204,-0.8227,280.6562
19:12:56:810,-0.547,0.0688,8.8515,34.1732,-0.6674,0.7477,-0.6523,281.3281
19:12:56:831,-1.015,0.2173,8.0614,34.8421,-0.0927,0.0886,-0.4118,282.0625
19:12:56:851,-1.0557,0.1837,7.2342,33.628,0.3164,-0.6124,-0.1671,282.75
19:12:56:875,-0.7002,0.1622,6.9852,34.8378,0.5041,-1.0827,0.0039,283.375
19:12:56:893,-0.3961,0.1251,7.5083,34.1555,0.5193,-1.2249,0.0956,283.9688
19:12:56:911,-0.3028,0.155,8.6169,34.275,0.4365,-0.9884,0.1158,284.1094
19:12:56:933,-0.128,0.1107,9.9756,34.5779,0.3531,-0.4819,0.0511,284.1094
19:12:56:950,-0.2106,-0.179,11.0996,33.9534,0.2988,0.1054,-0.072,284.0469
19:12:56:970,-0.6451,-0.3394,11.3833,34.6133,0.2048,0.6124,-0.1737,284
19:12:56:993,-0.9456,-0.5189,11.2397,35.715,0.0541,0.7664,-0.2925,284.0625
19:12:57:014,-1.2365,-1.054,11.6718,35.0402,-0.0131,0.56,-0.3993,284.2344
19:12:57:031,-1.5741,-1.9998,12.6547,34.7005,0.0905,0.2156,-0.3974,284.5
19:12:57:050,-1.7656,-2.8449,13.6519,35.7548,0.3169,0.0896,-0.2334,284.9062
19:12:57:076,-0.9947,-3.6422,13.5537,36.2409,0.5236,0.2004,-0.0078,285.3906
19:12:57:092,0.2336,-2.2871,9.8211,34.5095,0.5398,0.3158,0.0939,285.7812
19:12:57:110,0.2323,-1.5676,10.2605,35.8648,0.2866,0.0116,0.0095,286
19:12:57:130,0.886,-2.5241,11.7856,34.6068,0.0282,-0.5138,-0.1255,286.0156
19:12:57:152,1.9598,-3.4207,12.2908,34.305,0.0093,-0.8699,-0.1553,286.0156
19:12:57:175,3.2107,-3.234,11.1727,33.5302,0.1079,-0.9623,-0.085,286.1094
19:12:57:192,3.9517,-2.0441,9.4764,33.8266,0.1228,-0.8406,-0.0507,286.2969
19:12:57:213,4.0786,-0.8697,8.4457,35.1085,0.0027,-0.72,-0.166,286.4688
19:12:57:230,3.6082,-0.3394,7.8004,34.8063,-0.1425,-0.6033,-0.423,286.5625
19:12:57:250,2.5978,-0.1239,7.1205,34.8896,-0.2205,-0.3335,-0.7213,286.6875
19:12:57:274,1.3756,0.1287,6.1053,34.4301,-0.2352,0.0609,-0.9234,287.0156
19:12:57:292,0.4897,0.422,5.0327,35.2233,-0.216,0.4202,-0.9721,287.6562
19:12:57:310,0.0288,0.8111,4.2893,33.8689,-0.1995,0.5131,-0.917,288.5469
19:12:57:335,-0.1352,1.2229,4.4904,35.0741,-0.1862,0.2915,-0.8142,289.625
19:12:57:349,-0.2417,1.5856,5.423,37.2428,-0.1451,-0.1032,-0.7119,290.6875
19:12:57:370,-0.0298,1.7352,7.0546,34.8168,-0.0583,-0.5053,-0.624,291.6094
19:12:57:393,-0.1088,1.831,8.8718,34.6169,0.0549,-0.6659,-0.5926,292.4531
19:12:57:498,-0.3902,1.3042,10.1503,34.516,0.1949,-0.4707,-0.6238,293.1875
19:12:57:500,-1.2628,1.1953,10.9272,35.3025,0.2839,-0.1021,-0.6509,293.8438
19:12:57:500,-2.2289,1.3845,11.855,36.0916,0.2658,0.2633,-0.5703,294.9062
19:12:57:501,-2.582,1.2097,12.9911,33.9244,0.236,0.4215,-0.4011,295.6875
19:12:57:501,-2.7005,0.7979,13.2233,35.2697,0.3183,0.4553,-0.231,296.3438
19:12:57:524,-2.7389,0.3178,13.3131,35.2697,0.3822,0.4481,-0.0102,296.8438
19:12:57:533,-2.3366,0.1155,13.7811,35.6905,0.3593,0.422,0.3427,297.1406
19:12:57:552,-1.2197,-0.1431,13.677,35.0901,0.4131,0.4697,0.7062,297.2188
19:12:57:575,-0.3075,-0.0509,12.1184,35.7443,0.5673,0.5195,0.9038,296.875
19:12:57:590,-0.7349,0.6255,10.8064,36.0976,0.5422,0.4521,0.9209,296.125
19:12:57:610,-0.8618,0.5716,11.7449,35.1087,0.289,0.1067,0.931,295.1562
19:12:57:635,-0.1124,-0.3657,12.7492,37.4902,0.183,-0.2209,0.968,294.2344
19:12:57:658,0.5041,-1.0744,12.0777,35.984,0.5707,-0.1487,0.8918,292.6719
19:12:57:672,0.7687,-1.2264,10.1408,34.6652,0.5217,-0.1674,0.8055,291.6094
19:12:57:693,0.7076,-1.1175,8.4756,36.3134,0.1928,-0.3157,0.7123,290.6719
19:12:57:713,0.5113,-0.9894,8.2146,34.5345,-0.1635,-0.3532,0.6567,289.7969
19:12:57:732,0.4143,-1.0134,8.5989,35.094,-0.3553,-0.2188,0.6623,288.6719
19:12:57:754,0.3545,-0.835,8.3679,34.5699,-0.4261,0.0343,0.7302,287.9062
19:12:57:775,0.6465,-0.1179,7.7621,34.5699,-0.5079,0.2707,0.7925,287.125
19:12:57:792,1.6413,0.8386,7.6197,33.7086,-0.6173,0.4838,0.6937,287.125
19:12:57:810,2.6373,1.5425,8.3367,33.9563,-0.6096,0.7485,0.4263,286.2344
19:12:57:830,2.4578,1.5832,8.7761,34.6664,-0.3989,0.9962,0.1429,285.2812
19:12:57:851,1.2032,1.2444,8.205,33.2866,-0.0818,1.0324,0.0532,284.375
19:12:57:875,0.0983,0.8757,7.0403,33.0929,0.1894,0.7826,0.1698,283.7656
19:12:57:894,-0.2896,0.6051,5.915,33.0691,0.2999,0.2367,0.3917,283.5
19:12:57:912,-0.0645,0.5477,5.8731,31.5178,0.2786,-0.4579,0.572,283.3906
19:12:57:932,0.3126,0.6135,7.5802,32.906,0.2767,-1.0158,0.6034,283.1875
19:12:57:949,0.5364,0.4914,9.9313,32.8886,0.3915,-1.1152,0.4897,282.7812
19:12:57:969,0.4885,-0.0652,11.5785,31.2094,0.4938,-0.7104,0.3232,282.2344
19:12:57:992,0.3497,-0.4292,11.8801,31.784,0.4461,-0.1229,0.1864,281.6406
19:12:58:011,0.4011,-0.5082,11.2373,30.6885,0.2418,0.2116,0.0034,281.0938
19:12:58:029,0.5029,-0.7296,10.8937,31.197,-0.0104,0.2372,-0.2248,280.9062
19:12:58:050,0.2575,-1.3354,11.187,32.1179,-0.1896,0.1706,-0.3356,280.8281
19:12:58:071,0.7184,-2.2248,11.6072,31.1559,-0.2309,0.2106,-0.3159,280.9531
19:12:58:092,1.7551,-2.5193,10.9464,30.1419,-0.2583,0.2012,-0.4251,281.25
19:12:58:109,1.1996,-1.4982,9.8044,31.0583,-0.4272,-0.084,-0.6528,281.5781
19:12:58:133,0.0097,-0.8745,9.9803,31.2865,-0.6133,-0.4742,-0.8371,281.7344
19:12:58:148,-0.6894,-1.57,11.6886,30.0669,-0.5699,-0.6321,-0.8472,282.1719
19:12:58:172,-0.6355,-2.7204,12.5014,28.8333,-0.3457,-0.4281,-0.6392,282.8125
19:12:58:192,-0.0502,-2.8317,10.9093,29.96,-0.3079,-0.2454,-0.4017,283.7188
19:12:58:211,0.4466,-1.7639,9.1376,31.4055,-0.5667,-0.2393,-0.2781,284.625
19:12:58:230,0.6334,-0.7404,8.9568,30.5098,-0.8282,-0.0978,-0.2957,285.2969
19:12:58:251,0.5592,-0.562,9.2441,28.7677,-0.8634,0.214,-0.341,285.7188
19:12:58:274,0.0516,-0.5106,8.7797,29.7114,-0.7161,0.5672,-0.2738,285.9688
19:12:58:291,-0.304,-0.2795,7.4245,28.4665,-0.5039,0.7301,-0.0975,286.3281
19:12:58:310,-0.2214,0.0724,5.8635,29.937,-0.302,0.5349,0.0761,286.5938
19:12:58:330,0.1893,0.5046,4.8328,28.1428,-0.1478,-0.0068,0.1643,286.7188
19:12:58:350,0.6178,0.9798,4.4725,27.8231,-0.1329,-0.6656,0.083,286.6875
19:12:58:377,0.6346,1.2348,5.4984,27.2109,-0.2043,-1.0678,-0.0837,286.4844
19:12:58:390,0.3712,0.8817,7.1959,29.254,-0.2479,-1.03,-0.2083,286.2969
19:12:58:409,-0.2082,0.2999,8.6839,29.9749,-0.2538,-0.8145,-0.2256,286.2656
19:12:58:430,-1.0581,-0.1826,10.0091,28.3512,-0.2346,-0.5929,-0.0965,286.4062
19:12:58:450,-2.0338,-0.1239,11.7173,27.9516,-0.1217,-0.3034,0.1624,286.625
19:12:58:479,-2.1726,-0.0964,13.5453,28.42,0.1587,0.0436,0.4226,286.7812
19:12:58:490,0.0444,0.2161,13.5896,30.1909,0.4943,0.3155,0.5358,286.7188
19:12:58:509,0.2766,0.6794,12.4967,30.2391,0.6261,0.5456,0.5139,286.375
19:12:58:532,0.3868,0.8769,12.6152,28.6529,0.5166,0.5397,0.4862,285.8281
19:12:58:549,0.2874,0.7584,13.8027,29.2249,0.3499,0.4162,0.4817,285.3281
19:12:58:571,0.7232,0.4256,14.4575,30.1178,0.2847,0.5147,0.5549,285.0781
19:12:58:593,1.4738,0.3178,13.1563,29.6362,0.4056,0.797,0.6849,284.0781
19:12:58:609,1.1948,1.3174,11.2457,29.4689,0.4788,0.9323,0.7509,283.8125
19:12:58:629,1.6844,1.7328,11.7592,29.5296,0.3302,0.6239,0.8141,283.1406
19:12:58:652,1.9741,0.8374,13.3035,30.7422,0.2956,0.1035,0.7235,282.375
19:12:58:676,1.7383,-0.2903,12.7744,28.9564,0.6629,-0.243,0.5984,281.5
19:12:58:696,1.949,-0.8517,10.4819,30.5863,1.1108,-0.427,0.6098,280.6875
19:12:58:716,2.0783,-0.6901,8.7402,29.7551,1.2213,-0.7562,0.6527,280.0156
19:12:58:728,2.1633,-0.3298,8.6755,32.082,0.943,-1.1138,0.6282,279.5
19:12:58:749,2.5069,-0.6506,9.3208,30.3932,0.5691,-1.2345,0.5219,279
19:12:58:769,2.1633,-0.926,9.2178,29.579,0.3755,-1.047,0.3347,278.4844
19:12:58:792,1.6773,-0.9307,8.0243,30.0191,0.3635,-0.6614,0.2151,278.0156
19:12:58:812,1.3864,-0.8314,6.3663,30.3955,0.4091,-0.3085,0.1866,277.6719
19:12:58:828,1.2798,-0.677,5.0064,31.289,0.4032,-0.1357,0.1776,277.5
19:12:58:849,1.0488,-0.5285,4.3767,32.9227,0.3084,-0.1961,0.1674,277.2969
19:12:58:869,0.8477,-0.5058,4.7406,29.979,0.1859,-0.3671,0.185,277.1562
19:12:58:895,0.9147,-0.5908,5.3919,30.0146,0.1433,-0.5168,0.2367,277
19:12:58:913,1.105,-0.4579,5.6361,29.1184,0.1726,-0.6076,0.2801,276.8594
19:12:58:931,1.4091,-0.094,6.2071,30.2747,0.1105,-0.6611,0.2894,276.6562
19:12:58:952,1.5959,0.0616,7.506,31.9526,-0.0865,-0.6654,0.2463,276.4375
19:12:58:975,1.1553,0.0269,9.3818,29.9631,-0.3478,-0.4342,0.1382,276.1875
19:12:58:992,0.6454,0.1514,10.3886,28.6974,-0.5204,0.1131,0.0841,275.9844
19:12:59:010,0.8345,0.6123,10.1084,30.1332,-0.5657,0.6417,0.086,275.875
19:12:59:029,1.1781,1.0912,10.0067,31.3551,-0.6461,0.7408,-0.0121,275.7344
19:12:59:049,1.6054,1.2288,11.199,29.4041,-0.8354,0.4417,-0.2097,275.5469
19:12:59:069,2.1022,0.7165,13.8506,29.3065,-1.0211,0.0209,-0.4035,275.4375
19:12:59:092,1.8796,0.1167,16.0353,29.1188,-0.979,-0.0949,-0.5332,275.5781
19:12:59:108,1.8065,-0.7931,15.6558,29.1187,-0.616,0.2305,-0.5561,275.9688
19:12:59:133,1.7718,-0.8745,13.1191,29.2573,-0.192,0.6756,-0.4771,276.7969
19:12:59:158,1.293,-0.4758,11.3067,29.8524,-0.0969,0.2849,-0.2536,277.3438
19:12:59:172,1.3229,-1.0062,11.782,27.9844,-0.0176,-0.4845,-0.1077,277.9375
19:12:59:192,1.8688,-2.2487,12.9408,29.7296,0.289,-0.8923,0.1669,277.9375
19:12:59:212,2.5392,-3.1382,12.5912,29.4219,0.6567,-0.8875,0.5254,278.3438
19:12:59:229,3.0851,-2.9419,10.4568,30.8658,0.8599,-0.6752,0.8455,278.3438
19:12:59:249,3.6776,-1.7436,7.5359,28.4242,0.7015,-0.5631,0.9376,278.2188
19:12:59:268,4.1325,-0.1909,5.417,27.662,0.2109,-0.6869,0.7312,277.7188
19:12:59:292,3.8955,0.9751,5.2482,28.2059,-0.3492,-0.6555,0.3656,276.8906
19:12:59:309,3.2443,1.1187,6.1855,29.0576,-0.714,-0.3186,0.0215,275.8906
19:12:59:328,2.2148,0.9343,6.8416,28.3222,-0.8264,0.1128,-0.1931,275.125
19:12:59:348,1.1948,0.8913,6.9684,26.8479,-0.751,0.3488,-0.2437,274.7656
19:12:59:370,0.4502,1.0253,7.1037,26.5628,-0.5076,0.3024,-0.1513,274.75
19:12:59:392,0.3844,1.2827,7.2952,25.553,-0.1526,0.0697,0.0058,274.9375
19:12:59:411,1.038,1.3785,7.3659,25.7749,0.1891,-0.19,0.1057,275.1562
19:12:59:428,1.7359,1.5616,7.1324,25.7077,0.3723,-0.4366,0.1187,275.3125
19:12:59:448,2.095,1.6969,7.2091,25.632,0.3654,-0.5647,0.0982,275.2344
19:12:59:470,2.5894,1.4683,7.8974,25.7174,0.2581,-0.4978,0.1142,275.1406
19:12:59:493,3.1341,1.0074,8.9939,25.3918,0.1558,-0.2536,0.196,275.0469
19:12:59:514,3.1665,0.8493,10.0893,24.7705,0.1225,0.0169,0.3469,274.9844
19:12:59:580,2.9402,1.0122,11.2134,24.67,0.1942,0.1871,0.5403,274.8438
19:12:59:580,3.0731,1.3701,11.8191,25.3864,0.2906,0.2044,0.6577,274.5625
19:12:59:581,3.6225,1.7711,12.4667,23.4799,0.367,0.1746,0.5965,274.0469
19:12:59:592,4.1265,1.6634,12.8881,24.7046,0.4397,0.1533,0.3645,273.3281
19:12:59:610,4.2367,1.2803,12.6583,21.9702,0.4248,0.0939,0.0292,272.9844
19:12:59:628,4.1074,0.9583,11.9735,23.0816,0.1726,-0.1383,-0.3577,272.2969
19:12:59:648,2.8432,1.0768,12.3147,22.3454,-0.2274,-0.4917,-0.6323,271.875
19:12:59:668,1.5073,0.2556,14.6443,23.4981,-0.3063,-0.3849,-0.688,271.8438
19:12:59:692,0.8572,-0.975,16.0281,24.0697,0.0727,0.1922,-0.6086,272.25
19:12:59:712,0.8046,-1.7053,13.8087,22.1571,0.4248,0.6255,-0.4728,273.0156
19:12:59:729,0.5364,-1.3557,10.2856,22.9084,0.4016,0.467,-0.2651,274.1562
19:12:59:748,0.7567,-0.8889,8.4995,22.9084,0.1673,-0.0038,-0.0746,274.75
19:12:59:769,1.5145,-0.3442,8.4948,23.1121,0,-0.3261,-0.0038,275.125
19:12:59:791,2.3201,0.1694,8.7042,22.5548,-0.0123,-0.4196,-0.0768,275.2969
19:12:59:809,2.6816,0.2903,8.375,22.1283,0.0634,-0.3564,-0.1995,275.3438
19:12:59:828,2.593,0.3238,7.4652,22.7852,0.1297,-0.2571,-0.2637,275.4062
19:12:59:848,2.8097,0.6674,6.9182,20.8211,0.1957,-0.211,-0.2432,275.6094
19:12:59:869,3.5699,1.3857,5.9425,21.0723,0.3659,-0.2044,-0.3079,275.8906
19:12:59:891,2.6457,1.418,5.1393,20.2565,0.5238,-0.3594,-0.5306,276.2188
19:12:59:909,2.1262,0.817,4.7454,21.6272,0.5433,-0.5311,-0.6869,276.5312
19:12:59:928,2.0843,0.173,5.0878,20.1476,0.3891,-0.5865,-0.6978,277.0312
19:12:59:948,2.3009,0.0078,5.9784,20.0304,0.1111,-0.5114,-0.591,277.7656
19:12:59:968,2.8743,0.0629,7.7514,20.213,-0.1915,-0.431,-0.4507,278.6406
19:12:59:993,3.1138,-0.167,9.6906,18.7968,-0.3832,-0.2267,-0.3804,279.4531
19:13:00:014,2.5966,-0.5142,10.5837,18.8887,-0.4043,0.2351,-0.3921,280.0781
19:13:00:029,1.8149,-0.5872,10.4676,19.9561,-0.3662,0.7642,-0.346,280.8125
19:13:00:048,1.6126,-0.2999,10.3191,18.9246,-0.429,1.1014,-0.1615,281.2344
19:13:00:068,2.0663,-0.0078,11.3486,18.9759,-0.5992,1.0915,0.0508,281.5312
19:13:00:090,2.1381,-0.1131,12.6259,18.1413,-0.7065,0.8031,0.1464,281.6094
19:13:00:110,2.034,-0.6422,13.2508,19.1432,-0.665,0.5403,0.1725,281.5312
19:13:00:128,2.3704,-1.0301,12.5697,18.2224,-0.5489,0.398,0.2521,281.2969
19:13:00:150,2.0029,0.0317,11.5342,19.5776,-0.5398,0.3552,0.3291,281.0469
19:13:00:167,2.0448,1.1139,12.4775,18.8658,-0.7382,0.1562,0.3549,280.75
19:13:00:189,2.8325,0.738,14.9124,20.2849,-0.89,-0.1263,0.2569,280.3594
19:13:00:208,3.5795,-0.4639,15.754,19.0967,-0.6602,-0.1817,0.0636,279.9375
19:13:00:228,3.9302,-1.2659,13.5477,20.7871,-0.1087,-0.0326,-0.0776,279.5312
19:13:00:248,3.8656,-1.1498,10.6004,20.9081,0.3473,0.0313,-0.0935,279.3125
19:13:00:269,3.662,-0.6997,8.8132,19.6889,0.4786,-0.0169,-0.0235,279.3125
19:13:00:290,3.3999,-0.1155,7.8615,18.9929,0.3856,0.0425,0.0023,279.4375
19:13:00:307,3.2263,0.3322,7.0762,19.5713,0.2615,0.2905,-0.072,279.5312
19:13:00:332,2.9821,0.8074,6.2598,20.9515,0.2131,0.5288,-0.2312,279.5625
19:13:00:352,2.5164,0.9296,5.2123,20.423,0.2626,0.5885,-0.4118,279.7188
19:13:00:375,1.6605,0.7907,4.9633,19.8788,0.2794,0.0809,-0.5908,280.3281
19:13:00:390,0.8297,0.6985,5.5211,21.788,0.2645,-0.0542,-0.4262,280.9531
19:13:00:412,0.9458,0.9128,6.3687,21.1915,0.3273,-0.1495,-0.2504,281.6406
19:13:00:430,1.8029,1.3246,7.4185,20.4358,0.4613,-0.1729,-0.199,282.1406
19:13:00:450,2.6732,1.8525,8.156,21.2725,0.5771,-0.0877,-0.2885,282.4531
19:13:00:471,2.9402,2.0788,8.5247,22.6676,0.592,0.0537,-0.4491,282.7188
19:13:00:492,2.5751,2.0632,8.5989,21.3528,0.4786,0.2268,-0.5529,283.0938
19:13:00:509,1.9885,2.1111,9.0167,22.337,0.2756,0.3605,-0.5506,283.6094
19:13:00:530,1.5025,2.1339,10.3275,19.4556,0.1654,0.5022,-0.4661,284.2656
19:13:00:550,1.135,2.0177,11.5222,21.3055,0.175,0.6055,-0.3447,284.5781
19:13:00:568,0.8489,1.9698,12.2943,20.3557,0.2493,0.606,-0.2179,284.5781
19:13:00:592,0.7962,1.643,12.6223,22.1052,0.3321,0.5735,-0.1218,285.375
19:13:00:613,0.7986,1.1211,12.5673,22.9207,0.371,0.5698,-0.0379,285.7031
19:13:00:628,0.8118,0.5537,11.8706,23.8332,0.2964,0.5307,0.013,285.9219
19:13:00:648,0.0935,0.7584,10.6759,22.1733,0.0053,0.25,0.0953,286.0469
19:13:00:667,-0.5398,1.1642,11.4815,22.8315,-0.2879,-0.1226,0.2202,286.0625
19:13:00:693,-0.2704,0.6877,13.8757,24.0703,-0.1835,-0.1492,0.3185,286.0312
19:13:00:712,0.0791,-0.1921,14.5509,22.6115,0.2682,0.0316,0.4021,285.8906
19:13:00:727,0.2084,-0.6758,12.031,23.017,0.5689,0.0327,0.5107,285.6406
19:13:00:746,0.455,-0.3561,8.9389,22.1047,0.4565,-0.3325,0.6173,285.2656
19:13:00:767,1.0895,0.3418,7.6795,23.2537,0.1318,-0.7967,0.5968,284.8281
19:13:00:794,1.6952,0.8889,8.1272,24.0181,-0.118,-1.0028,0.4524,284.2969
19:13:00:809,1.9897,0.8972,8.6707,23.5156,-0.1835,-0.8875,0.2833,283.7188
19:13:00:828,1.8389,0.4471,8.4469,23.4553,-0.2032,-0.4571,0.2101,282.75
19:13:00:848,1.4606,0.5213,7.6747,23.5199,-0.2882,0.0737,0.286,282.625
19:13:00:867,1.5743,1.1103,7.0894,23.878,-0.3569,0.4481,0.3504,282.4531
19:13:00:893,1.8688,1.7376,6.802,24.3015,-0.334,0.5541,0.2692,282.1875
19:13:00:913,1.1577,1.9112,7.0522,24.4859,-0.1334,0.3959,0.2471,281.7344
19:13:00:929,-0.1016,1.5544,7.9165,24.5253,0.2975,0.0071,0.4876,281.2969
19:13:00:948,0.0013,1.309,9.231,24.8443,0.9273,-0.2813,0.789,280.9688
19:13:00:968,1.2499,1.1522,8.9963,25.4408,1.4291,-0.3801,0.8806,280.5625
19:13:00:992,2.0723,1.558,7.3108,26.7026,1.4456,-0.3463,0.8221,280.25
19:13:01:011,2.678,2.3721,5.7354,25.2112,0.9864,-0.3516,0.6234,279.5
19:13:01:027,3.0898,2.9383,5.6349,24.9455,0.3135,-0.3471,0.2788,278.6406
19:13:01:048,2.8911,2.8329,7.0834,25.9469,-0.2786,-0.2837,-0.0507,277.8594
19:13:01:068,2.3847,2.0991,9.1735,24.7149,-0.6346,-0.2797,-0.2083,277.2969
19:13:01:094,1.4378,1.1989,11.7628,26.3439,-0.7433,-0.2361,-0.1228,277.0625
19:13:01:109,0.6837,0.6853,14.1403,26.1083,-0.6019,-0.0654,0.1491,277.1562
