Time,Acc_X,Acc_Y,Acc_Z,Meg,Gyr_X,Gyr_Y,Gyr_Z,Ore
15:46:20:781,-0.705,2.5106,9.0092,49.4392,-0.0554,0.0841,0.0468,178.2045
15:46:20:800,-0.4889,2.3703,9.4113,49.5564,-0.0735,-0.0149,-0.0447,178.2045
15:46:20:820,-1.0511,2.557,9.4121,49.2529,-0.0021,0.0458,-0.0213,178.2045
15:46:20:841,-1.1667,2.3831,9.3564,49.3677,-0.0543,-0.1672,0.05,178.2045
15:46:20:860,-0.9207,2.0889,9.1909,49.3086,-0.165,-0.2768,0.0724,178.2045
15:46:20:882,-0.5174,2.3721,9.2093,49.304,-0.2566,-0.2225,0.0373,178.2045
15:46:20:901,-0.2045,2.7303,9.4441,49.4159,-0.2364,-0.0586,0.0277,178.2045
15:46:20:921,-0.0859,2.6274,9.4577,49.3768,-0.1789,-0.0064,0.0106,178.2045
15:46:20:941,-0.0863,2.507,8.9307,49.3285,-0.1001,0.1192,-0.0192,178.2045
15:46:20:961,-0.5191,2.3587,9.3467,49.4358,-0.132,0.1022,-0.0437,178.2045
15:46:20:982,-0.1937,2.6448,9.079,49.2066,-0.2012,0.1171,-0.0287,178.2045
15:46:21:001,-0.0558,2.7853,9.3713,49.1487,-0.2885,-0.0437,-0.1097,178.2045
15:46:21:021,-0.0314,2.9059,9.5632,49.2439,-0.3758,-0.2193,-0.1746,178.2045
15:46:21:041,-0.2163,2.7648,9.6895,49.3651,-0.3183,-0.1831,-0.2151,178.2045
15:46:21:060,-0.4754,2.5875,9.6635,49.325,-0.2076,-0.1267,-0.2097,178.2045
15:46:21:082,-0.8046,2.9197,9.6366,49.1622,-0.082,-0.1459,-0.1512,178.2045
15:46:21:100,-0.7993,3.1308,9.3376,49.0281,0.0245,-0.2427,-0.0575,178.2045
15:46:21:120,-0.4748,2.8381,8.8227,49.0228,0.0724,-0.2353,-0.0149,178.2045
15:46:21:141,-0.0768,2.5661,8.6408,48.9525,0.0639,-0.0692,-0.0287,178.2045
15:46:21:160,0.2148,2.4601,8.7803,48.8934,0.0309,0.1576,-0.1107,178.2045
15:46:21:181,-0.0783,2.5289,8.8625,49.0695,-0.0192,0.3428,-0.2193,178.2045
15:46:21:200,-0.7526,2.9148,9.0712,49.1023,-0.1075,0.2342,-0.264,178.2045
15:46:21:220,-1.5994,3.3383,9.2356,49.0889,-0.0905,0.1288,-0.2502,178.2045
15:46:21:241,-2.2993,3.1136,8.9856,49.127,-0.0138,0.0266,-0.1512,178.2045
15:46:21:260,-2.4903,3.0337,8.5824,49.2927,0.0617,-0.0415,0.0266,178.2045
15:46:21:280,-2.1174,3.0613,8.4855,49.3161,0.0532,-0.0692,0.2108,178.2045
15:46:21:301,-1.1713,3.0976,8.7575,49.391,-0.0319,-0.1118,0.3588,178.2045
15:46:21:320,-0.2978,3.2841,9.1486,49.585,-0.1267,-0.0894,0.3875,178.2045
15:46:21:341,0.1535,3.2992,9.6084,49.4483,-0.2513,-0.1884,0.3375,178.2045
15:46:21:362,0.3394,3.0525,10.1412,49.439,-0.2545,-0.2576,0.2885,178.2045
15:46:21:380,0.5953,2.8943,10.5401,49.6892,-0.1533,-0.2832,0.2332,178.2045
15:46:21:400,0.5635,2.7151,10.4751,49.4036,0.0777,-0.1182,0.1778,178.2045
15:46:21:420,0.2809,2.6129,10.3602,49.5014,0.0777,0.115,0.0809,178.2045
15:46:21:441,0.2035,2.7312,11.0724,49.7524,-0.0138,0.2427,0.0841,178.2045
15:46:21:461,0.3331,2.4844,12.0208,49.7731,0.1629,0.3737,-0.0394,178.2045
15:46:21:480,-0.8176,2.3591,11.6525,49.7098,0.4951,0.1842,-0.1576,178.2045
15:46:21:501,-2.5212,1.7598,9.8288,49.8688,0.3513,-0.0405,0.1033,178.2045
15:46:21:520,-2.3041,2.1851,9.5035,49.7888,-0.4248,0.7495,0.6441,178.2045
15:46:21:541,-1.5006,2.6005,9.0841,49.5565,-0.8538,0.2906,0.8198,178.2045
15:46:21:561,-0.4933,1.6565,10.0038,49.5829,-0.8123,-0.1331,0.9156,178.1117
15:46:21:581,-0.0913,1.7337,10.761,49.3462,-0.3492,-0.3173,0.61,177.9958
15:46:21:600,-0.0412,1.8758,10.9257,49.3849,0.3237,-0.2097,0.0458,177.8773
15:46:21:620,-0.3394,1.2451,9.843,49.6056,0.8123,-0.0617,-0.296,177.7718
15:46:21:644,-0.939,0.9102,8.8194,49.4183,0.889,-0.0106,-0.3748,177.7718
15:46:21:660,-1.5709,0.9835,8.2811,49.5047,0.7314,-0.0788,-0.3215,177.7718
15:46:21:681,-1.6562,0.9755,7.9227,49.4355,0.5515,-0.1341,-0.2491,177.7718
15:46:21:700,-1.4275,0.8901,7.6879,48.8655,0.3716,-0.1533,-0.2023,177.7718
15:46:21:720,-1.5919,1.0285,7.7011,48.8925,0.2395,-0.131,-0.1139,177.7718
15:46:21:743,-1.8692,1.1038,7.8005,48.8675,0.214,0.0415,0.1554,177.7718
15:46:21:761,-1.9052,1.2725,7.7286,48.9056,0.2342,0.2374,0.5238,177.7718
15:46:21:781,-1.4397,1.5042,7.4743,48.7356,0.1906,0.1129,0.6792,177.7718
15:46:21:801,-1.407,1.6753,7.7056,48.7111,0.0873,-0.2364,0.6782,177.6592
15:46:21:821,-1.169,1.9132,7.9541,48.5757,0.0383,-0.2236,0.6697,177.5263
15:46:21:843,-0.7391,2.2117,7.9246,48.7828,-0.0511,0.1416,0.5749,177.3761
15:46:21:861,-0.3758,2.4842,7.9943,48.9881,-0.2204,0.4227,0.4312,177.2136
15:46:21:881,-0.2616,2.859,8.6185,49.139,-0.378,0.4312,0.2843,177.0441
15:46:21:901,-0.0679,2.9486,9.1852,49.6825,-0.3237,0.3407,0.1075,176.8732
15:46:21:921,0.055,2.9697,9.3148,49.6738,-0.116,0.2757,-0.1011,176.7087
15:46:21:942,-0.1763,3.1266,9.275,49.7176,0.0564,0.2747,-0.247,176.5568
15:46:21:961,-0.5878,3.055,9.4081,49.7912,0.165,0.2129,-0.2385,176.4187
15:46:21:981,-0.6398,3.0047,9.6346,49.5411,0.197,0.1001,-0.1682,176.2917
15:46:22:001,-0.8438,3.039,10.0933,49.514,0.1384,-0.017,-0.1565,176.1746
15:46:22:021,-1.0796,3.15,10.9388,49.4955,0.0639,-0.1448,-0.1118,176.0656
15:46:22:044,-0.9793,3.1165,11.6989,49.5521,0.1043,-0.231,-0.083,175.9632
15:46:22:061,-0.8329,2.7792,11.5472,49.6428,0.2161,-0.1373,-0.0522,175.8668
15:46:22:080,-0.9289,2.6467,10.9529,49.6671,0.2662,0.0724,0.0884,175.7723
15:46:22:101,-0.9077,2.735,10.2393,49.5394,0.2332,0.1597,0.1789,175.6756
15:46:22:124,-1.1002,3.3297,9.9377,49.9997,0.0426,0.0117,0.1427,175.5765
15:46:22:141,-0.9693,3.2262,10.4208,50.0362,-0.1959,-0.3492,-0.0096,175.4788
15:46:22:161,-0.9141,2.2558,11.1482,49.981,-0.1906,-0.5408,-0.2204,175.4788
15:46:22:181,-1.1629,1.4466,11.2559,49.9026,0.082,-0.3237,-0.3109,175.4788
15:46:22:201,-1.4236,1.0947,10.5237,49.2216,0.3673,-0.0735,-0.2449,175.4788
15:46:22:223,-1.2655,1.0715,9.5253,48.7075,0.4344,-0.1054,-0.1107,175.4788
15:46:22:242,-0.6879,1.1481,8.7428,48.2639,0.3279,-0.1714,-0.0586,175.4788
15:46:22:261,-0.0885,1.24,8.3303,47.5681,0.1991,-0.0703,-0.1757,175.4788
15:46:22:281,-0.2595,1.5053,8.0217,47.3332,0.1065,0.0948,-0.2896,175.4788
15:46:22:301,-0.5122,1.5007,7.6664,47.1498,0.0128,0.2938,-0.2821,175.4788
15:46:22:322,-0.8043,1.6677,7.6456,46.8672,0.0043,0.3833,-0.1757,175.4788
15:46:22:342,-0.7007,1.9005,7.2155,46.7387,0.0671,0.3268,-0.0724,175.4788
15:46:22:361,-0.5127,2.3792,6.778,46.4252,0.0043,0.1789,-0.05,175.4788
15:46:22:381,-0.4432,2.8465,7.0388,46.2614,-0.1469,-0.1554,0.0011,175.4788
15:46:22:400,-0.127,2.7861,7.3628,46.3186,-0.214,-0.4003,0.0554,175.4788
15:46:22:421,0.1774,2.7967,7.5611,46.22,-0.197,-0.5866,0.0202,175.4788
15:46:22:442,0.3466,3.2491,7.5401,46.2175,-0.3109,-0.724,-0.0969,175.4788
15:46:22:461,0.3927,3.5929,8.2172,46.4813,-0.543,-0.9401,-0.1735,175.4788
15:46:22:481,0.5196,3.5376,9.2846,46.4453,-0.5792,-1.005,-0.1672,175.4788
15:46:22:503,0.6279,3.284,10.08,46.5834,-0.3833,-0.8858,-0.1831,175.4788
15:46:22:521,0.4169,3.4326,10.4552,46.7817,-0.1544,-0.5738,-0.2236,175.4788
15:46:22:541,0.3401,3.4969,10.4492,46.8142,-0.0969,-0.2449,-0.2385,175.4788
15:46:22:561,0.5009,3.4714,10.6195,47.1768,-0.1703,-0.1884,-0.2491,175.4788
15:46:22:581,0.853,3.2535,11.2619,47.7322,-0.2289,-0.576,-0.3556,175.4788
15:46:22:603,0.5809,3.0472,11.9731,47.819,-0.1831,-0.8964,-0.4876,175.4788
15:46:22:621,0.129,2.8726,12.3841,47.9896,-0.0532,-0.8592,-0.4237,175.4788
15:46:22:641,0.2639,1.9303,12.1478,48.2965,0.1043,-0.724,-0.2811,175.4788
15:46:22:661,-0.0107,1.8246,11.9677,48.6542,0.3503,-0.6239,0,175.4788
15:46:22:681,0.1555,1.5608,11.3904,48.6719,0.6494,-0.1097,0.4535,175.4788
15:46:22:702,0.4879,1.3492,10.4597,48.7711,0.8358,0.6622,0.6931,175.4788
15:46:22:721,0.6846,1.0772,9.6494,48.8328,0.8368,1.2414,0.6356,175.4788
15:46:22:742,0.5213,0.9574,9.109,48.7502,0.5664,0.9422,0.3492,175.4788
15:46:22:760,0.0653,1.1812,8.3544,48.2523,0.1214,0.1533,0.0639,175.4788
15:46:22:780,-0.2009,1.4099,8.1071,47.923,-0.2012,-0.2087,-0.033,175.4788
15:46:22:826,-0.023,1.561,8.222,47.3654,-0.3992,-0.3907,-0.0117,175.4788
15:46:22:827,0.1453,1.57,8.3596,47.0886,-0.4802,-0.329,0.0394,175.4788
15:46:22:842,0.2218,1.499,8.2624,46.5939,-0.4088,-0.0394,0.1139,175.4788
15:46:22:861,0.1812,1.3354,8.0666,46.0344,-0.2789,0.2726,0.2002,175.4788
15:46:22:883,0.1129,1.1884,7.9604,45.8946,-0.1469,0.3503,0.2885,175.4788
15:46:22:902,0.1127,1.2193,8.0475,45.3334,0.0085,-0.0309,0.3843,175.4788
15:46:22:921,0.3577,1.4123,7.8981,45.1731,0.2438,-0.2938,0.4099,175.4788
15:46:22:941,0.6898,1.7431,7.6335,45.3085,0.4376,-0.1448,0.3396,175.4788
15:46:22:961,0.9442,2.2032,7.5713,45.2442,0.4631,0.1597,0.2161,175.4788
15:46:22:982,1.0004,2.4051,7.8109,45.4406,0.2811,0.2204,0.0596,175.4788
15:46:23:001,1.0012,2.5982,8.3099,45.6677,-0.0075,0.0564,-0.1054,175.4788
15:46:23:021,0.7387,2.7719,9.0694,45.6158,-0.2119,0.0969,-0.263,175.4788
15:46:23:041,0.262,2.8232,9.7786,45.5593,-0.3332,0.5355,-0.2513,175.4788
15:46:23:060,-0.1837,2.6417,10.3139,45.5828,-0.4014,1.137,-0.0468,175.4788
15:46:23:083,-0.2408,2.5091,10.6965,45.3118,-0.4184,1.3723,0.1938,175.4788
15:46:23:101,-0.0049,2.4512,11.2,45.2476,-0.3961,0.9337,0.1789,175.4788
15:46:23:120,-0.0627,2.7795,12.0351,45.4714,-0.2875,0.1491,-0.0735,175.4788
15:46:23:141,-0.3178,3.1747,12.6291,45.5633,0.0426,-0.1991,-0.2172,175.4788
15:46:23:160,-0.2011,3.0868,12.1593,46.0398,0.4961,-0.0884,-0.1533,175.4788
15:46:23:181,0.1272,2.8749,10.8216,46.3432,0.7644,-0.0617,-0.1565,175.4788
15:46:23:201,0.0718,2.896,9.8661,46.9886,0.6345,-0.3119,-0.3024,175.4788
15:46:23:220,-0.3069,2.7934,9.8941,47.2452,0.4035,-0.7176,-0.3822,175.4788
15:46:23:241,-0.2485,1.9128,9.9396,47.0888,0.4333,-0.7974,-0.3268,175.4788
15:46:23:263,0.0825,1.1621,9.4538,47.0378,0.5185,-0.6345,-0.2779,175.4788
15:46:23:282,0.1473,1.225,9.0719,46.6867,0.3258,-0.4983,-0.2843,175.4788
15:46:23:301,0.2533,1.6633,9.1461,46.4355,-0.0926,-0.4365,-0.2598,175.4788
15:46:23:320,0.5948,1.4572,9.2437,46.1855,-0.4503,-0.2151,-0.2896,175.4788
15:46:23:341,0.6544,1.0949,9.169,45.9379,-0.6281,0.1363,-0.4131,175.4788
15:46:23:363,0.186,1.2894,8.7667,45.8818,-0.5707,0.5068,-0.4759,175.4788
15:46:23:381,-0.3586,1.7726,8.185,45.5332,-0.3428,0.6601,-0.3833,175.4788
15:46:23:401,-0.408,2.0843,7.5902,44.9472,-0.1107,0.4099,-0.1597,175.4788
15:46:23:420,-0.0917,2.3338,7.0779,44.5288,0.0277,-0.1011,0.0032,175.4788
15:46:23:441,0.3002,2.5872,6.6085,44.2791,0.0703,-0.4716,0.0117,175.4788
15:46:23:462,0.4018,2.7617,6.2714,44.2834,-0.0415,-0.494,-0.0532,175.4788
15:46:23:481,0.1344,2.9367,6.7175,44.2883,-0.2992,-0.3205,-0.0319,175.4788
15:46:23:501,0.2808,2.6301,7.3715,44.3895,-0.511,-0.1522,0.1033,175.4788
15:46:23:521,0.6626,2.3237,8.2996,44.1664,-0.61,-0.082,0.1863,175.4788
15:46:23:541,0.7648,2.4171,9.3552,44.2584,-0.61,0.0458,0.1735,175.4788
15:46:23:561,0.8428,2.4513,10.4042,44.1661,-0.4472,0.1224,0.0628,175.4788
15:46:23:581,0.5241,2.2385,10.8143,44.038,-0.1597,0.2151,-0.1033,175.4788
15:46:23:601,0.1777,2.1084,10.9465,44.2135,0.0767,0.2023,-0.1608,175.4788
15:46:23:621,-0.2107,2.1056,10.9595,43.9777,0.099,0.1576,-0.1448,175.4788
15:46:23:645,-0.5613,2.1829,11.3469,44.0172,-0.0532,0.148,-0.0415,175.4788
15:46:23:661,-0.8531,2.1933,11.8979,44.0091,-0.132,0.2875,0.1118,175.4788
15:46:23:681,-0.8676,2.0732,12.1243,44.0802,-0.1033,0.4844,0.3087,175.4788
15:46:23:701,-0.4863,1.7487,11.7623,44.0896,-0.2055,0.7463,0.3694,175.4788
15:46:23:721,-0.5078,1.4651,11.7562,43.9903,-0.5398,0.8358,0.2619,175.4788
15:46:23:743,-0.7973,1.0621,12.2365,43.8159,-0.6462,0.9167,0.1938,175.4788
15:46:23:761,-1.0072,0.6318,12.045,43.7495,-0.3396,0.8954,0.198,175.4788
15:46:23:781,-1.0852,0.5093,11.0903,43.5317,0.0958,0.6377,0.2395,175.4788
15:46:23:801,-0.9996,0.7261,9.8602,43.7438,0.3364,0.0767,0.2395,175.4788
15:46:23:821,-0.594,0.9728,8.8708,44.1923,0.3961,-0.5515,0.1703,175.4788
15:46:23:842,-0.2144,1.0444,8.1983,44.4985,0.3513,-0.9443,0.0245,175.4788
15:46:23:861,-0.09,1.2394,7.7368,44.5257,0.2534,-1.0018,-0.0809,175.4788
15:46:23:881,0.0112,1.4664,7.3433,44.4637,0.1416,-0.7016,-0.0809,175.4788
15:46:23:900,0.2399,1.453,6.9933,44.4124,0.0096,-0.2949,-0.0202,175.4788
15:46:23:920,0.5772,1.575,6.844,44.4929,-0.1437,0.0543,0.016,175.4788
15:46:23:942,0.7384,1.7204,6.7833,44.304,-0.2832,0.3162,-0.0873,175.4788
15:46:23:961,0.3109,2.0674,7.251,44.1029,-0.3652,0.3769,-0.2906,175.4788
15:46:23:981,-0.1845,2.0096,7.9743,44.1785,-0.263,0.3258,-0.4184,175.4788
15:46:24:001,-0.6652,1.583,8.5241,43.7731,0.0053,0.2779,-0.4099,175.4788
15:46:24:021,-0.7762,1.1226,8.9656,43.5661,0.2097,0.082,-0.2949,175.4788
15:46:24:041,-0.6474,0.863,9.6721,43.6622,0.1459,-0.2949,-0.1948,175.4788
15:46:24:061,-0.4286,0.8253,10.6113,43.3868,-0.0064,-0.4408,-0.2225,175.5696
15:46:24:081,-0.3184,0.8306,11.3398,43.5617,-0.0181,-0.165,-0.3428,175.6687
15:46:24:102,-0.5801,0.5574,11.3871,43.808,0.1065,0.2885,-0.3705,175.7782
15:46:24:122,-1.0393,0.7024,10.9388,43.722,0.2651,0.5856,-0.1916,175.8934
15:46:24:141,-1.4801,1.4902,10.4187,44.0643,0.329,0.5323,0.0543,176.006
15:46:24:161,-1.7086,2.7365,10.2501,44.3943,0.2608,0.2438,0.2672,176.1083
15:46:24:180,-1.4046,3.2765,10.4279,44.4908,0.1278,-0.0106,0.3961,176.1083
15:46:24:200,-0.3046,2.5841,10.5066,44.8608,-0.0064,-0.116,0.3215,176.1083
15:46:24:222,0.3825,1.6367,10.5784,45.038,-0.1576,-0.197,-0.0096,176.1083
15:46:24:241,0.1063,1.4912,10.9364,45.2918,-0.1821,-0.2236,-0.2545,176.1083
15:46:24:261,-0.4065,1.5135,10.8686,45.689,-0.017,-0.082,-0.2449,176.1083
15:46:24:280,-0.3434,1.3553,10.2905,45.6275,0.1129,0.0043,-0.1693,176.2026
15:46:24:300,-0.0718,1.2405,9.6447,45.5028,-0.0021,-0.1288,-0.2332,176.3015
15:46:24:321,0.0385,1.134,9.5065,45.225,-0.2992,-0.2672,-0.4014,176.4096
15:46:24:342,-0.0949,0.7332,9.7395,44.8782,-0.4706,-0.1863,-0.5291,176.5314
15:46:24:361,-0.4747,0.5502,9.8544,44.5599,-0.3971,0.0106,-0.5281,176.6681
15:46:24:381,-0.7947,0.6136,9.4311,44.4955,-0.099,0.2332,-0.3332,176.8141
15:46:24:404,-0.8208,0.8306,8.5859,44.0909,0.2545,0.3396,-0.0692,176.9613
15:46:24:421,-0.5854,0.9373,7.4778,44.0357,0.4855,0.2225,0.0862,177.1029
15:46:24:442,-0.5038,1.4157,6.6714,43.7329,0.511,0.0362,0.1118,177.2377
15:46:24:461,-0.5257,2.0153,6.234,43.5561,0.3875,-0.0554,0.115,177.3653
15:46:24:481,-0.4286,2.3289,6.1,43.1285,0.1629,-0.066,0.1437,177.485
15:46:24:503,-0.22,2.3621,6.4143,43.3848,-0.1054,-0.1437,0.0969,177.597
15:46:24:521,0.0099,2.4263,6.9313,43.3467,-0.3843,-0.2534,-0.0394,177.7054
15:46:24:542,-0.2695,2.5425,7.9165,43.267,-0.6973,-0.2055,-0.1363,177.814
15:46:24:561,-0.6468,2.3437,9.7558,43.2212,-0.857,-0.0628,-0.0138,177.9208
15:46:24:581,-0.7179,2.023,11.1159,43.2663,-0.5919,0.1959,0.1757,178.019
15:46:24:602,-0.477,1.8204,11.5185,43.4934,-0.2044,0.2928,0.2438,178.019
15:46:24:621,-0.3341,1.8305,11.6026,43.215,-0.1384,0.1714,0.2033,178.019
15:46:24:642,-0.5462,2.1713,12.3518,43.4555,-0.2332,0.0405,0.1799,178.019
15:46:24:661,-0.8761,2.3326,13.0843,43.4404,-0.0809,0.2566,0.2395,178.019
15:46:24:681,-1.1543,2.3199,12.8034,43.3796,0.296,0.7165,0.3758,178.019
15:46:24:701,-1.3416,2.2345,11.6131,43.6175,0.5419,0.9763,0.3758,178.019
15:46:24:722,-1.7192,2.1326,10.6677,43.6496,0.478,0.7154,0.1842,178.019
15:46:24:741,-2.0575,1.7612,10.2729,43.8154,0.3077,0.2033,0.0213,178.019
15:46:24:760,-1.6239,0.689,10.1755,44.1367,0.2321,-0.1278,-0.0064,178.019
15:46:24:780,-1.2203,-0.2875,9.8627,44.1989,0.2566,-0.1043,-0.0777,178.019
15:46:24:841,-1.3334,-0.4291,9.2803,44.1225,0.2023,-0.1043,-0.1203,178.019
15:46:24:843,-1.3539,-0.2022,8.9528,44.2589,-0.0234,-0.3545,-0.1469,178.019
15:46:24:844,-1.1763,-0.0432,8.9079,43.9988,-0.2662,-0.5611,-0.2044,178.019
15:46:24:861,-1.0463,0.0806,8.861,43.5806,-0.3939,-0.5398,-0.2694,178.019
15:46:24:882,-1.1122,0.2956,8.6286,43.4116,-0.3492,-0.2608,-0.2353,178.019
15:46:24:900,-1.2171,0.4469,8.0438,43.2546,-0.1661,0.1821,-0.0319,178.019
15:46:24:920,-1.2343,0.5761,7.4411,42.7804,-0.0437,0.5195,0.2694,178.019
15:46:24:941,-1.0853,1.0098,7.0055,42.5179,-0.0373,0.6441,0.5259,178.019
15:46:24:960,-0.9472,1.5515,7.0365,42.4171,-0.0671,0.4972,0.5579,178.019
15:46:24:982,-0.8545,1.8428,7.2192,42.3617,-0.0447,0.1554,0.3705,178.019
15:46:25:001,-0.7758,1.8714,7.579,42.0481,-0.0043,-0.1714,0.0969,178.019
15:46:25:021,-0.8161,1.7759,8.1408,42.2978,-0.0075,-0.3961,-0.1001,178.019
15:46:25:041,-0.8899,1.6093,8.9902,41.9552,-0.0256,-0.4386,-0.2108,178.019
15:46:25:061,-1.1003,1.5083,9.8247,42.0101,0.0224,-0.3045,-0.2619,178.019
15:46:25:082,-1.23,1.4671,10.1516,41.7298,0.1139,-0.1341,-0.3077,178.019
15:46:25:103,-1.4335,1.3536,10.4412,42.0891,0.0884,-0.1501,-0.3524,178.019
15:46:25:121,-1.4864,1.217,10.8555,42.3942,-0.0394,-0.1544,-0.3205,178.019
15:46:25:141,-1.5501,1.4133,11.4242,42.4727,-0.1512,0.0096,-0.2726,178.019
15:46:25:161,-1.9205,1.9604,12.1315,42.7517,-0.1831,0.0979,-0.1852,178.019
15:46:25:182,-2.0565,2.168,12.594,42.8647,-0.0862,0.049,-0.0053,178.019
15:46:25:201,-1.7675,1.7664,12.5609,43.027,0.0362,0.0224,0.1799,178.019
15:46:25:221,-1.3459,1.2377,12.2526,42.7215,0.0969,-0.0096,0.2789,178.019
15:46:25:242,-1.1484,0.6986,12.1442,42.4538,0.2193,-0.1916,0.3439,178.019
15:46:25:264,-1.0832,0.4201,11.6939,42.355,0.5238,-0.411,0.477,178.019
15:46:25:281,-0.5958,0.5375,10.6275,41.8578,0.8485,-0.5717,0.6984,178.019
15:46:25:301,0.315,0.8359,9.3464,41.4483,0.8602,-0.7154,0.7527,178.019
15:46:25:321,0.8991,1.2325,8.3744,40.9807,0.5195,-0.7761,0.5217,178.019
15:46:25:341,0.9875,1.4674,7.9805,40.8538,0.0671,-0.5472,0.1895,178.019
15:46:25:363,0.8092,1.3612,7.7656,40.6127,-0.3013,-0.1608,-0.1373,178.019
15:46:25:381,0.355,1.2817,7.6541,40.5414,-0.4567,0.197,-0.3716,178.019
15:46:25:402,-0.1564,1.3817,7.4926,40.4958,-0.3599,0.3843,-0.444,178.019
15:46:25:421,-0.463,1.4786,7.1955,40.2364,-0.1405,0.3215,-0.4131,178.019
15:46:25:442,-0.6203,1.8047,7.0636,40.1779,0.0234,0.033,-0.3439,178.019
15:46:25:462,-0.3447,2.1273,7.0368,40.1288,0.1033,-0.2566,-0.2885,178.019
15:46:25:481,0.1737,2.0638,7.2152,39.8513,0.1352,-0.2587,-0.3439,178.019
15:46:25:501,0.4066,1.8355,7.2551,40.0047,0.1214,-0.1065,-0.4152,178.019
15:46:25:521,0.1825,2.1604,7.4848,40.0229,-0.0213,0.0948,-0.412,178.019
15:46:25:546,-0.2564,2.531,8.2577,40.1774,-0.2853,0.2065,-0.4195,178.1143
15:46:25:561,-0.9005,2.5065,9.1157,40.5644,-0.4738,0.5185,-0.4195,178.2215
15:46:25:581,-1.791,2.265,9.5264,40.7609,-0.6058,1.0902,-0.2694,178.3361
15:46:25:601,-2.1487,1.7698,10.0801,41.2522,-0.7389,1.2818,0.0948,178.447
15:46:25:620,-2.094,1.5361,11.0539,41.3564,-0.758,0.8656,0.4865,178.5389
15:46:25:643,-1.8355,1.7851,12.2942,41.3972,-0.4919,0.1171,0.6622,178.5389
15:46:25:661,-1.552,2.167,13.1316,41.4959,-0.017,-0.4397,0.5515,178.5389
15:46:25:681,-1.1161,2.1438,12.8352,41.8145,0.4046,-0.4855,0.3726,178.5389
15:46:25:701,-0.6429,1.5258,12.0896,41.9134,0.5078,-0.2513,0.2332,178.5389
15:46:25:721,-0.7683,1.0047,11.7609,42.1616,0.3449,-0.0948,0.1395,178.5389
15:46:25:743,-1.2835,0.7526,11.4507,42.2184,0.2332,0.1554,0.1097,178.5389
15:46:25:761,-1.5893,0.4929,10.8981,41.9088,0.2353,0.3237,0.1682,178.5389
15:46:25:781,-1.2576,0.2637,10.0388,41.6093,0.2353,0.2672,0.2704,178.5389
15:46:25:801,-0.7138,0.3653,9.0567,41.5555,0.1086,0.066,0.2651,178.5389
15:46:25:821,-0.3645,0.1732,8.4892,41.6403,-0.2576,0.082,0.1299,178.5389
15:46:25:841,-0.3652,0.2218,8.3732,41.54,-0.6729,0.4216,0.0373,178.5389
15:46:25:861,-0.5421,0.2477,8.3992,41.8167,-0.9273,0.8038,-0.0713,178.5389
15:46:25:881,-0.8572,0.4,8.1087,41.8936,-0.8869,1.1711,-0.1501,178.5389
15:46:25:901,-1.4777,0.8539,7.777,41.8779,-0.6079,1.235,-0.0639,178.5389
15:46:25:920,-1.6049,0.8942,7.3107,41.5657,-0.2321,0.7729,0.1267,178.5389
15:46:25:941,-1.4101,0.6987,6.9566,41.6174,0.0735,0.0969,0.247,178.5389
15:46:25:961,-1.5109,0.9787,7.1695,41.6174,0.231,-0.4663,0.2438,178.5389
15:46:25:980,-1.7153,1.3906,7.7598,41.8797,0.3151,-0.7133,0.1863,178.5389
15:46:26:000,-1.5593,1.3556,8.2053,42.0289,0.3716,-0.7208,0.0798,178.5389
15:46:26:023,-1.3474,1.1581,8.6318,42.4154,0.3024,-0.6367,-0.0415,178.5389
15:46:26:042,-1.4558,1.4328,9.4795,42.5838,0.23,-0.5387,-0.1139,178.5389
15:46:26:061,-1.6915,1.7677,10.3013,42.6756,0.2843,-0.4578,-0.1501,178.5389
15:46:26:081,-1.7054,1.9328,10.5156,42.8582,0.4099,-0.3098,-0.1522,178.5389
15:46:26:107,-1.5721,1.9408,10.4916,42.7452,0.3939,-0.2097,-0.1938,178.5389
15:46:26:121,-1.509,2.1517,10.7217,43.2119,0.1682,-0.1544,-0.3109,178.5389
15:46:26:141,-1.7818,2.4396,11.5082,43.4091,-0.0543,-0.2246,-0.4131,178.5389
15:46:26:161,-2.1684,2.477,12.3554,43.8325,-0.1267,-0.1746,-0.3918,178.5389
15:46:26:180,-2.196,2.2222,12.445,43.86,-0.0032,0.1661,-0.1884,178.5389
15:46:26:200,-1.8786,1.7361,11.8225,44.1174,0.0948,0.4056,-0.0096,178.5389
15:46:26:222,-1.5662,1.2247,11.3445,44.1514,0.1171,0.346,0.0873,178.5389
15:46:26:241,-1.1425,0.611,11.1718,44.127,0.2268,-0.0096,0.1661,178.5389
15:46:26:261,-0.5966,0.2013,10.7396,44.0275,0.4056,-0.3173,0.1863,178.5389
15:46:26:281,-0.2579,0.0561,10.0102,43.9843,0.4961,-0.3726,0.1522,178.5389
15:46:26:302,0.0405,0.1669,9.2027,43.7433,0.4088,-0.2938,0.0948,178.5389
15:46:26:321,0.4334,0.3874,8.497,43.885,0.1597,-0.2161,-0.0362,178.5389
15:46:26:342,0.7502,0.4537,8.1156,43.6348,-0.2129,-0.2151,-0.3066,178.5389
15:46:26:361,0.4823,0.5498,8.1771,43.4591,-0.544,-0.1533,-0.6324,178.5389
15:46:26:381,-0.2641,0.8118,8.2317,43.1808,-0.6548,0.116,-0.807,178.5389
15:46:26:404,-1.0252,0.9407,8.2544,43.0855,-0.5004,0.3769,-0.7304,178.6434
15:46:26:423,-1.3578,1.0672,7.8036,43.0264,-0.1821,0.4983,-0.4876,178.7636
15:46:26:442,-1.3727,1.3311,7.2858,43.1425,0.0713,0.3183,-0.2385,178.8909
15:46:26:461,-1.2457,1.7442,7.0353,43.5347,0.1916,-0.033,-0.1203,179.02
15:46:26:481,-0.9652,2.0215,7.0957,43.8453,0.2395,-0.2438,-0.1075,179.1503
15:46:26:502,-0.726,2.1123,7.1047,43.956,0.2395,-0.2545,-0.1565,179.2828
15:46:26:522,-0.7034,2.3566,7.2608,44.0031,0.0756,-0.2651,-0.1256,179.4172
15:46:26:542,-0.2528,2.5647,8.1393,44.0964,-0.297,-0.5536,0.0703,179.5469
15:46:26:561,0.6417,2.2005,9.8306,43.8405,-0.6899,-0.8964,0.2183,179.665
15:46:26:581,1.0401,2.2229,11.8631,43.9757,-0.6441,-0.61,0.2119,179.7708
15:46:26:602,0.7443,2.0236,12.6222,43.9698,-0.1192,0.1501,0.0128,179.8708
15:46:26:621,-0.4658,2.0472,11.9958,44.1226,0.3641,0.6313,-0.1576,179.9732
15:46:26:642,-1.8759,2.2121,11.227,44.5351,0.4237,0.6505,-0.1703,-179.9198
15:46:26:661,-2.9351,2.6225,11.2297,44.9379,0.1757,0.2843,-0.0011,-179.8129
15:46:26:681,-3.117,2.3803,11.7231,44.8123,0.0522,0.0341,0.3215,-179.7167
15:46:26:702,-2.3816,1.5174,12.0239,44.9752,0.2151,-0.0809,0.5345,-179.7167
15:46:26:721,-1.8151,0.8126,11.8969,44.9757,0.445,-0.1299,0.5494,-179.7167
15:46:26:741,-1.6309,0.3877,11.3809,44.5488,0.6196,0.0117,0.4834,-179.7167
15:46:26:761,-1.5054,0.2375,10.4358,44.1681,0.6739,0.2044,0.3449,-179.7167
15:46:26:783,-1.422,0.3202,9.4118,44.0144,0.5313,0.2321,0.1767,-179.7167
15:46:26:801,-1.375,0.4134,8.6778,43.7227,0.2427,0.0788,0.0298,-179.7167
15:46:26:856,-1.3291,0.6574,8.3845,43.5356,-0.0788,-0.1011,-0.1182,-179.7167
15:46:26:856,-1.2835,0.7226,8.3249,43.8573,-0.3609,-0.1884,-0.2587,-179.7167
15:46:26:861,-1.2885,0.7333,8.3537,43.8601,-0.5547,-0.0575,-0.3205,-179.7167
15:46:26:881,-1.4159,0.8432,8.3516,43.9087,-0.6164,0.1927,-0.2694,-179.7167
15:46:26:900,-1.4435,0.9124,8.1346,43.9081,-0.5345,0.4365,-0.1043,-179.7167
15:46:26:921,-1.5014,1.1544,7.8196,44.0212,-0.3716,0.5046,0.1086,-179.7167
15:46:26:941,-1.4084,1.4681,7.5367,44.0969,-0.1384,0.3449,0.33,-179.7167
15:46:26:961,-1.0766,1.6864,7.4313,43.9149,0.1075,-0.0394,0.3971,-179.7167
15:46:26:982,-0.9366,2.0847,7.5652,43.5977,0.2811,-0.4216,0.2875,-179.7167
15:46:27:001,-0.8287,2.2028,8.0909,43.6381,0.3513,-0.6409,0.0596,-179.7167
15:46:27:021,-0.6255,1.8712,8.6244,43.4193,0.3929,-0.5579,-0.2672,-179.7167
15:46:27:041,-0.8737,1.5789,9.0751,43.395,0.4482,-0.28,-0.6015,-179.7167
15:46:27:061,-1.4382,1.672,9.5199,43.3507,0.3939,0.0032,-0.8166,-179.7167
15:46:27:081,-1.6127,1.0435,10.2549,43.4099,0.2268,0.3843,-0.84,-179.6076
15:46:27:101,-1.8819,0.5585,10.7873,43.481,0.1043,0.8858,-0.79,-179.4728
15:46:27:120,-2.504,0.6822,10.7855,43.5499,-0.0064,1.137,-0.6888,-179.3165
15:46:27:141,-3.4253,1.5883,10.9128,43.6959,-0.1991,1.0199,-0.3684,-179.149
15:46:27:164,-3.9799,2.7961,11.6085,43.5238,-0.3024,0.6952,0.164,-178.9885
15:46:27:181,-3.2967,3.0695,11.8924,43.4688,-0.1501,0.3151,0.5579,-178.8502
15:46:27:201,-1.9815,2.2527,11.7465,43.473,0.0106,-0.1235,0.4653,-178.7339
15:46:27:221,-1.3927,1.4465,11.466,43.3362,0.099,-0.4056,0.1416,-178.6279
15:46:27:241,-1.4747,0.6986,11.0334,43.1506,0.1863,-0.4333,-0.0884,-178.5222
15:46:27:263,-1.6682,0.4482,10.2579,42.9269,0.1948,-0.3056,-0.1192,-178.414
15:46:27:281,-1.3349,0.3611,9.581,42.6337,0.0011,-0.2523,-0.0894,-178.305
15:46:27:301,-0.7913,0.2528,9.3172,42.4197,-0.3034,-0.3183,-0.1895,-178.1947
15:46:27:321,-0.7239,0.3213,9.1526,42.2042,-0.5323,-0.2651,-0.3237,-178.0794
15:46:27:341,-1.1463,0.5609,9.0782,42.0723,-0.5994,-0.0873,-0.3418,-177.9579
15:46:27:362,-1.5772,0.8332,8.8971,42.0574,-0.4674,0.049,-0.1735,-177.8336
15:46:27:381,-1.6176,1.1899,8.4484,41.6906,-0.1938,0.0873,0.1256,-177.7156
15:46:27:401,-1.1026,1.4624,7.7538,41.8628,0.0905,-0.1033,0.3279,-177.6105
15:46:27:421,-0.8708,1.8052,7.2234,42.0147,0.3087,-0.297,0.3439,-177.5189
15:46:27:443,-0.5596,1.9462,6.7603,42.0681,0.4727,-0.4141,0.3205,-177.5189
15:46:27:461,-0.1781,1.6116,6.2668,41.9825,0.56,-0.5046,0.2374,-177.5189
15:46:27:481,-0.1397,1.7758,5.8945,42.0592,0.4802,-0.5089,0.115,-177.5189
15:46:27:500,-0.2562,2.1898,5.9584,41.9098,0.2278,-0.5568,0.0245,-177.5189
15:46:27:521,-0.2501,2.1579,6.7834,42.0469,-0.1288,-0.7687,-0.0437,-177.5189
15:46:27:544,-0.0953,1.7284,8.3377,42.2944,-0.3748,-0.9252,-0.05,-177.5189
15:46:27:561,-0.4339,1.4054,10.0046,42.3875,-0.2843,-0.5707,0.033,-177.5189
15:46:27:581,-0.558,1.4906,10.9355,42.411,-0.0032,0.0575,0.2172,-177.5189
15:46:27:601,-0.6824,2.0465,10.9395,42.3883,0.0468,0.4844,0.3961,-177.5189
15:46:27:621,-0.5506,2.1466,11.3588,42.0471,-0.181,0.6548,0.4248,-177.5189
15:46:27:643,-0.7493,2.4347,12.2505,42.0443,-0.3716,0.7335,0.4344,-177.5189
15:46:27:661,-1.1424,3.0116,12.9785,42.0047,-0.3162,0.7665,0.5419,-177.5189
15:46:27:681,-0.6921,2.9688,13.1958,41.9804,-0.1491,0.5227,0.5728,-177.5189
15:46:27:701,0.2331,1.9966,12.8405,42.2625,-0.0394,0.0362,0.1895,-177.5189
15:46:27:721,-0.0828,0.9431,12.5123,42.2737,0.1022,-0.2183,-0.3407,-177.5189
15:46:27:742,-0.9582,0.1814,11.7784,42.2785,0.3396,-0.1182,-0.5462,-177.5189
15:46:27:761,-1.6146,-0.1946,10.5263,41.8381,0.5494,0.116,-0.4802,-177.5189
15:46:27:781,-1.9718,-0.0354,9.2647,41.8547,0.4855,0.1501,-0.2736,-177.5189
15:46:27:800,-1.7942,0.2919,8.4431,41.3344,0.1554,-0.0894,-0.0287,-177.5189
15:46:27:820,-1.147,0.298,8.3003,40.7896,-0.1991,-0.3599,0.0596,-177.5189
15:46:27:841,-0.7453,0.2569,8.3271,40.7616,-0.3535,-0.4578,-0.0032,-177.5189
15:46:27:861,-0.8911,0.5516,8.2212,40.7591,-0.2949,-0.3396,0.0064,-177.5189
15:46:27:880,-1.0673,0.9756,7.7313,40.8896,-0.0905,-0.1427,0.165,-177.5189
15:46:27:900,-0.9312,1.2118,7.0574,40.984,0.0777,-0.0405,0.3279,-177.5189
15:46:27:921,-0.7131,1.5805,6.7474,40.9577,0.1437,-0.1299,0.4184,-177.5189
15:46:27:941,-0.4724,1.929,6.8209,40.9148,0.1799,-0.3865,0.3652,-177.5189
15:46:27:962,-0.2508,2.0521,6.9633,40.816,0.1714,-0.6047,0.1533,-177.5189
15:46:27:981,-0.3507,2.0165,7.5632,40.785,0.0724,-0.6313,-0.1203,-177.5189
15:46:28:001,-0.6798,1.6574,8.4801,40.588,0.0106,-0.3886,-0.2353,-177.5189
15:46:28:023,-0.8382,1.3954,9.3103,40.5954,0.0287,-0.1799,-0.2161,-177.5189
15:46:28:041,-0.9979,1.2463,10.0207,40.6423,0.0905,0.0277,-0.1586,-177.5189
15:46:28:061,-1.2735,1.1191,10.9855,40.6186,0.1895,0.4983,-0.0043,-177.5189
15:46:28:082,-1.6548,1.4269,11.556,40.727,0.2896,1.1126,0.2002,-177.5189
15:46:28:101,-1.9418,2.4972,11.5194,40.9111,0.2236,1.2808,0.2214,-177.5189
15:46:28:121,-1.846,3.2041,11.2547,41.2664,-0.049,0.9986,0.1182,-177.5189
15:46:28:142,-1.7141,3.0096,11.3397,41.193,-0.2885,0.8304,0.0181,-177.5189
15:46:28:161,-1.847,2.8368,11.4653,41.148,-0.3364,0.6803,-0.0096,-177.5189
15:46:28:181,-1.7322,2.1566,11.3672,41.0669,-0.2523,0.3694,0.0298,-177.5189
15:46:28:201,-1.3895,1.4666,11.2689,40.4914,-0.115,0.0458,0.0884,-177.5189
15:46:28:222,-1.0969,1.0705,11.0154,39.8788,0.1522,-0.3098,0.115,-177.5189
15:46:28:242,-0.6109,0.8561,10.0421,39.3709,0.4429,-0.642,0.0511,-177.5189
15:46:28:261,-0.0523,0.5929,9.1301,38.7381,0.3716,-1.0231,-0.1107,-177.5189
15:46:28:280,0.2864,0.6183,8.8478,38.3374,-0.0106,-1.0902,-0.2523,-177.5189
15:46:28:301,0.3919,0.7071,8.8731,38.0543,-0.363,-0.576,-0.3769,-177.5189
15:46:28:321,0.094,0.7558,8.9041,38.0908,-0.5366,0.1129,-0.4993,-177.5189
15:46:28:341,-0.4932,0.9645,8.6477,37.924,-0.5142,0.6111,-0.5483,-177.5189
15:46:28:361,-0.9649,1.2049,8.1789,37.9256,-0.3343,0.7697,-0.4482,-177.5189
15:46:28:380,-1.1807,1.474,7.6608,37.8911,-0.082,0.5281,-0.2811,-177.5189
15:46:28:403,-1.3278,1.9718,7.3224,38.3978,0.1735,0.0458,-0.082,-177.5189
15:46:28:421,-1.0708,2.2421,7.0112,38.4456,0.4056,-0.3343,0.1884,-177.5189
15:46:28:442,-0.5504,2.0766,6.7814,38.2537,0.4802,-0.5462,0.3396,-177.5189
15:46:28:461,-0.1242,2.2423,7.0398,38.0908,0.3386,-0.7208,0.3024,-177.5189
15:46:28:481,-0.0173,2.5933,7.7614,37.8824,0.082,-0.8336,0.1086,-177.5189
15:46:28:502,-0.2981,2.6503,8.7666,37.6216,-0.082,-0.7793,-0.099,-177.5189
15:46:28:521,-0.7584,2.1977,9.6816,37.5712,-0.1299,-0.4493,-0.1384,-177.5189
15:46:28:542,-1.2844,1.7484,10.3684,37.6987,-0.1288,0.05,0.0798,-177.5189
15:46:28:561,-1.5845,2.0201,10.7466,37.7901,-0.1384,0.4312,0.3854,-177.5189
15:46:28:581,-1.4503,2.3804,11.2895,38.0566,-0.2342,0.4227,0.5249,-177.5189
15:46:28:602,-1.1893,2.3842,12.0406,37.8641,-0.3173,0.1618,0.4823,-177.5189
15:46:28:621,-1.0813,2.3421,12.6526,37.9126,-0.197,0.083,0.4567,-177.5189
15:46:28:641,-1.0916,2.5185,12.6226,37.8003,0.0351,0.2353,0.4024,-177.5189
15:46:28:661,-1.2181,2.8877,12.4006,37.448,0.0628,0.2619,0.148,-177.5189
15:46:28:681,-1.2108,2.3311,12.4184,37.1158,-0.0884,0.1448,-0.2491,-177.5189
15:46:28:702,-1.3135,1.0226,12.124,36.697,-0.0788,0.2119,-0.5802,-177.5189
15:46:28:721,-1.6208,0.249,11.3133,36.3303,0.0426,0.28,-0.7027,-177.5189
15:46:28:741,-1.8198,0.0436,10.5134,35.9731,0.0958,0.0873,-0.6324,-177.5189
15:46:28:761,-1.6632,-0.0483,9.7534,35.6715,0.0415,-0.2289,-0.5313,-177.5189
15:46:28:783,-1.2,-0.2277,9.0269,35.5234,-0.0373,-0.4642,-0.444,-177.4282
15:46:28:802,-0.726,-0.4789,8.261,35.4452,-0.083,-0.6058,-0.395,-177.3259
15:46:28:847,-0.6892,-0.3659,7.2573,35.371,-0.1341,-0.6548,-0.3205,-177.2143
15:46:28:849,-0.8052,0.0652,6.714,35.3154,-0.0617,-0.3247,-0.049,-177.1014
15:46:28:861,-0.8256,0.3875,6.4367,34.9893,0.066,-0.0383,0.3066,-176.9988
15:46:28:882,-0.6567,0.7305,6.2017,35.0644,0.2002,0.0862,0.6281,-176.9988
15:46:28:901,-0.3647,0.932,6.3835,35.0637,0.3077,0.0319,0.7634,-176.9988
15:46:28:921,-0.1023,1.0473,6.6959,35.1011,0.3907,-0.1735,0.6569,-176.9988
15:46:28:941,0.0021,1.3284,7.0996,34.9344,0.4312,-0.3375,0.3386,-176.9988
15:46:28:960,0.0702,1.6752,7.6577,34.9958,0.3577,-0.428,-0.0948,-176.9988
15:46:28:981,-0.0471,1.7606,8.4695,34.8592,0.1288,-0.4578,-0.477,-176.9988
15:46:29:001,-0.5519,1.9573,9.3388,34.9663,-0.115,-0.4014,-0.6143,-176.9988
15:46:29:021,-0.8922,2.1184,9.8779,34.6824,-0.2342,-0.1682,-0.4514,-176.9988
15:46:29:041,-0.772,1.7936,10.4865,34.8332,-0.2832,0.0277,-0.2576,-176.9988
15:46:29:062,-0.5463,1.6796,11.1454,34.7172,-0.3769,0.0628,-0.2523,-176.9063
15:46:29:082,-0.654,1.8979,12.0992,34.5662,-0.5046,0.0681,-0.3449,-176.805
15:46:29:101,-0.9867,2.3012,13.0096,34.3452,-0.5366,0.0266,-0.3503,-176.694
15:46:29:121,-1.0293,2.361,13.1545,34.496,-0.346,0.1703,-0.2353,-176.5766
15:46:29:141,-0.8425,1.6164,12.6868,33.9939,-0.0809,0.5217,-0.2012,-176.4555
15:46:29:163,-0.996,1.078,12.1769,33.8176,0.1054,0.5664,-0.2619,-176.3289
15:46:29:181,-1.0976,0.8321,11.7006,33.7442,0.28,0.1331,-0.2097,-176.1971
15:46:29:202,-0.88,0.4952,11.0453,33.2506,0.5217,-0.3141,-0.0532,-176.0648
15:46:29:221,-0.5452,0.3093,10.3388,33.1564,0.7304,-0.445,0.0394,-175.936
15:46:29:241,-0.2825,0.357,9.9361,32.9558,0.7144,-0.511,0.0021,-175.8105
15:46:29:262,-0.1214,0.633,9.4164,32.6502,0.4684,-0.56,-0.082,-175.6859
15:46:29:281,-0.0784,0.8565,8.7271,32.4599,0.1703,-0.4046,-0.1011,-175.5608
15:46:29:300,-0.1754,1.0227,8.0108,32.1839,-0.0128,-0.0884,-0.0128,-175.4377
15:46:29:321,-0.2665,1.1063,7.3213,31.9458,-0.0543,0.2129,0.1469,-175.3214
15:46:29:341,-0.3706,1.3364,6.9139,31.8363,0.0085,0.3918,0.3322,-175.2181
15:46:29:362,-0.2775,1.6905,6.6872,31.9441,0.1097,0.445,0.4972,-175.2181
15:46:29:381,0.2024,1.9153,6.4981,32.0189,0.2087,0.5494,0.5728,-175.2181
15:46:29:401,0.5511,2.0957,6.3376,32.1788,0.2757,0.7367,0.5132,-175.2181
15:46:29:421,0.8895,2.3545,6.5153,32.2125,0.2928,0.7442,0.3119,-175.2181
15:46:29:441,1.1263,2.5166,6.9648,31.8599,0.2491,0.5281,-0.1086,-175.2181
15:46:29:461,0.4381,2.8758,7.9635,31.5958,0.1288,0.0405,-0.5707,-175.2181
15:46:29:481,-0.3636,3.042,8.799,31.5904,0.0969,-0.4205,-0.8336,-175.2181
15:46:29:500,-1.1274,3.2807,9.395,31.5765,0.2587,-0.3982,-0.8538,-175.1059
15:46:29:520,-1.7231,3.3325,9.8973,31.4763,0.363,-0.1171,-0.4546,-174.9753
15:46:29:542,-1.8597,3.3715,10.2675,31.2255,0.2491,0.1331,0.2513,-174.8499
15:46:29:560,-1.4734,3.2913,10.6737,31.3307,-0.1224,0.2406,0.7325,-174.7504
15:46:29:581,-1.0723,3.4834,11.5583,30.994,-0.6186,0.247,0.7357,-174.7504
15:46:29:601,-0.8199,3.5307,12.5069,31.1098,-0.9007,0.4631,0.5781,-174.7504
15:46:29:621,-0.7676,2.7977,12.9886,31.194,-0.8538,0.659,0.4716,-174.7504
15:46:29:643,-1.0686,2.0042,13.1632,31.2593,-0.5664,0.3833,0.3492,-174.7504
15:46:29:661,-1.6507,1.3607,12.2482,31.2382,-0.2129,-0.0319,0.3258,-174.7504
15:46:29:681,-1.5461,0.6081,11.2863,31.1556,0.2342,-0.1789,0.3002,-174.7504
15:46:29:700,-1.5114,0.2283,10.282,30.8537,0.6058,-0.3119,0.1693,-174.7504
15:46:29:720,-1.4616,0.3607,9.3756,30.9448,0.6697,-0.7538,0.0405,-174.7504
15:46:29:741,-1.0312,0.6591,8.8813,30.5349,0.4014,-1.0998,0.0607,-174.7504
15:46:29:761,-0.3048,0.396,8.5948,30.3083,0.0064,-0.9731,0.0926,-174.7504
15:46:29:781,0.0805,0.2039,8.2259,30.4809,-0.3226,-0.5015,0.0649,-174.7504
15:46:29:801,0.1057,0.2425,7.6996,30.2494,-0.5856,0.0926,0.0703,-174.7504
15:46:29:821,0.1034,0.5866,7.0809,30.202,-0.8358,0.4365,0.1448,-174.7504
15:46:29:841,0.0815,0.9554,6.5547,30.2424,-1.1477,0.4312,0.2949,-174.7504
15:46:29:861,-0.0089,1.1742,6.5554,30.2023,-1.3468,0.3801,0.3992,-174.7504
15:46:29:881,-0.1526,1.1398,6.718,30.0649,-1.3553,0.297,0.428,-174.7504
15:46:29:901,-0.1173,0.7665,7.4871,29.9792,-1.0072,0.3567,0.3332,-174.7504
15:46:29:924,-0.1725,0.981,8.3566,29.964,-0.3726,0.0075,0.0745,-174.7504
15:46:29:942,-0.3249,1.3822,8.9897,29.8851,0.0256,-0.5813,-0.0437,-174.7504
15:46:29:962,-0.1098,1.4316,9.3286,29.7439,0.2246,-0.7868,-0.1395,-174.7504
15:46:29:981,0.0215,1.1736,9.6641,30.1231,0.2406,-0.7101,-0.378,-174.7504
15:46:30:001,-0.1406,0.9095,10.2961,29.9157,0.0373,-0.6739,-0.6111,-174.7504
15:46:30:023,-0.3477,0.8772,11.334,29.5979,-0.165,-0.5121,-0.7016,-174.7504
15:46:30:042,-0.4746,1.0274,12.3828,29.8416,-0.1491,-0.1256,-0.7165,-174.7504
15:46:30:061,-0.8488,1.6314,12.8814,29.7361,0.0543,0.1267,-0.6079,-174.7504
15:46:30:081,-0.9795,2.0102,13.0756,29.8619,0.3801,0.1065,-0.3375,-174.7504
15:46:30:101,-0.8384,2.0778,12.8235,29.9947,0.6558,0.0575,-0.1001,-174.7504
15:46:30:122,-0.6145,1.7677,12.4665,30.2168,0.7165,-0.0043,-0.0394,-174.7504
15:46:30:142,-0.4913,1.0691,12.3079,30.1774,0.5313,-0.3386,-0.1682,-174.7504
15:46:30:161,-0.2805,0.179,11.9625,29.6579,0.3758,-0.5579,-0.198,-174.7504
15:46:30:180,0.1079,-0.596,11.1885,29.3807,0.3865,-0.5153,-0.0415,-174.7504
15:46:30:200,0.5366,-0.6858,10.2838,28.9052,0.445,-0.3109,0.1895,-174.7504
15:46:30:220,0.9959,-0.3121,9.7222,28.825,0.4376,-0.148,0.3418,-174.7504
15:46:30:242,1.4123,0.331,9.3589,28.5267,0.2768,-0.0862,0.2694,-174.7504
15:46:30:260,1.5819,0.9154,8.9506,28.337,0.0149,0.0905,0.017,-174.7504
15:46:30:281,1.0735,1.1788,8.6478,28.5108,-0.2289,0.2257,-0.2853,-174.7504
15:46:30:304,0.3712,1.0778,8.0459,28.555,-0.2811,0.3119,-0.4333,-174.7504
15:46:30:320,-0.2589,1.208,7.5828,28.5007,-0.1703,0.4333,-0.3556,-174.7504
15:46:30:342,-0.4228,1.5721,7.2139,28.8101,0.0213,0.4802,-0.1299,-174.7504
15:46:30:360,-0.2589,1.8498,7.2129,28.8248,0.1991,0.3056,0.0873,-174.7504
15:46:30:380,0.2384,1.9152,7.1722,28.9865,0.3609,0.0649,0.1948,-174.7504
15:46:30:402,0.671,1.8683,7.0989,29.1259,0.4983,-0.0192,0.1778,-174.7504
15:46:30:422,0.815,1.8228,7.2084,29.1121,0.5888,-0.066,0.0788,-174.7504
15:46:30:442,0.7458,1.9468,7.5425,29.1876,0.5824,-0.1693,-0.0575,-174.7504
15:46:30:461,0.3515,2.2881,8.1713,29.1397,0.5025,-0.4684,-0.1235,-174.7504
15:46:30:481,0.0551,2.3068,8.6917,29.0144,0.4557,-0.8421,-0.099,-174.7504
15:46:30:502,0.0446,2.3571,9.1102,29.0546,0.4791,-0.8815,-0.0266,-174.7504
15:46:30:521,0.3571,2.5747,9.7478,29.0653,0.5025,-0.5398,0.1288,-174.7504
15:46:30:542,0.6456,2.9845,10.6073,29.0607,0.4205,-0.346,0.3279,-174.7504
15:46:30:561,0.5805,3.7167,11.4143,28.9999,0.2587,-0.3418,0.5004,-174.7504
15:46:30:581,0.4963,4.138,11.804,29.2472,0.1224,-0.2183,0.6079,-174.7504
15:46:30:601,0.7494,3.8373,11.9387,29.2559,0.0692,0.2321,0.6718,-174.7504
15:46:30:621,0.8662,3.1074,11.9195,29.2217,0.017,0.4855,0.6335,-174.7504
15:46:30:641,0.5117,2.3424,11.9307,29.0572,0.0202,0.4269,0.4535,-174.7504
15:46:30:661,0.3289,1.32,11.3483,28.7598,0.1544,0.1916,0.23,-174.7504
15:46:30:681,0.3183,0.5621,10.5198,28.387,0.3588,0.0415,0.0415,-174.7504
15:46:30:701,0.1687,0.3736,9.4942,28.4372,0.4684,0.0649,0.0064,-174.7504
15:46:30:721,0.2039,0.5384,8.7931,28.4454,0.33,0.2108,0.1469,-174.7504
15:46:30:741,0.3436,0.7593,8.326,28.1162,-0.0777,0.2619,0.1991,-174.7504
15:46:30:761,0.4439,0.9021,8.0536,28.1718,-0.5345,0.4578,0.0607,-174.7504
15:46:30:783,0.1176,0.9635,7.7472,28.0853,-0.7953,0.7974,-0.1192,-174.7504
15:46:30:801,-0.0931,0.9406,7.2872,27.8941,-0.8155,0.9901,-0.1107,-174.7504
15:46:30:821,-0.1739,0.9006,7.1527,27.8686,-0.7527,0.8304,0.0681,-174.7504
15:46:30:863,-0.4472,1.4573,7.2915,28.1764,-0.6377,0.5707,0.3449,-174.7504
15:46:30:865,-0.3511,1.7766,7.2845,28.0928,-0.3811,0.6409,0.593,-174.7504
15:46:30:884,-0.3044,2.0755,7.1863,28.0141,-0.115,0.8421,0.6164,-174.8568
15:46:30:901,-0.476,2.7267,7.4869,27.7613,-0.0298,0.5717,0.4248,-174.9768
15:46:30:921,-0.6527,3.2541,8.1139,27.6098,-0.0905,-0.0554,0.2097,-175.1019
15:46:30:942,-0.6187,3.0736,8.8033,27.1964,-0.1416,-0.4301,0.016,-175.2253
15:46:30:961,-0.662,2.6938,9.6123,27.4728,-0.1214,-0.5313,-0.148,-175.3409
15:46:30:981,-0.8739,2.7357,10.3585,27.6311,-0.0756,-0.5643,-0.2108,-175.4457
15:46:31:001,-0.6867,2.6646,11.0121,27.9829,-0.1022,-0.5951,-0.2406,-175.5388
15:46:31:021,-0.3795,2.2467,11.785,28.3264,-0.2662,-0.7027,-0.3673,-175.5388
15:46:31:041,-0.3281,1.8164,12.8456,28.5018,-0.444,-0.7335,-0.4812,-175.5388
15:46:31:065,-0.5841,1.7476,13.7328,28.6545,-0.4333,-0.4514,-0.3992,-175.5388
15:46:31:081,-0.6924,2.1818,14.008,28.6725,-0.1682,0.0926,-0.1203,-175.5388
15:46:31:101,-0.3297,2.5087,13.4221,28.8233,0.1235,0.5504,0.1597,-175.5388
15:46:31:121,0.1544,2.5431,12.8487,28.7461,0.164,0.5238,0.2204,-175.5388
15:46:31:141,0.303,2.1967,12.7974,28.8077,0.3375,0.0767,0.1001,-175.5388
15:46:31:163,0.4581,1.1461,12.2022,28.8231,0.7932,-0.3375,-0.0458,-175.5388
15:46:31:182,0.5209,0.3789,11.0965,28.4685,1.2052,-0.6367,-0.0586,-175.5388
15:46:31:201,0.7269,0.2564,9.6614,28.2637,1.2989,-0.5345,0.0873,-175.5388
15:46:31:221,1.1153,0.5645,8.5566,28.0449,0.9784,-0.2715,0.1948,-175.5388
15:46:31:241,1.5982,0.934,7.9806,27.6389,0.4099,-0.0767,0.0767,-175.5388
15:46:31:262,1.7541,0.9596,7.7803,27.6968,-0.0937,0.1288,-0.214,-175.5388
15:46:31:281,1.285,1.0155,7.8446,27.7737,-0.2683,0.3641,-0.4738,-175.5388
15:46:31:301,0.6253,0.9396,7.416,27.6742,-0.0926,0.5195,-0.5824,-175.5388
15:46:31:321,0.0595,0.9939,6.7033,27.8985,0.1884,0.5195,-0.5302,-175.5388
15:46:31:341,-0.484,1.2726,6.3145,28.1523,0.346,0.445,-0.3226,-175.5388
15:46:31:362,-0.3998,1.8996,6.2515,28.1919,0.4429,0.4024,-0.0138,-175.5388
15:46:31:381,-0.258,2.4829,6.2277,28.5209,0.5046,0.2289,0.0926,-175.5388
15:46:31:401,-0.1041,2.9994,6.3478,28.5472,0.4503,-0.1544,-0.0351,-175.5388
15:46:31:421,0.0967,3.1934,6.5303,28.8722,0.2481,-0.3268,-0.1192,-175.5388
15:46:31:445,0.3045,3.18,7.2165,28.8249,-0.0319,-0.2981,-0.1384,-175.5388
15:46:31:462,0.3045,3.1007,8.1743,28.7373,-0.164,-0.0511,-0.1054,-175.5388
15:46:31:481,0.0599,3.3309,8.9023,28.9614,-0.1373,0.1831,-0.0671,-175.5388
15:46:31:501,-0.2909,3.905,9.1799,28.9153,-0.099,0.2683,-0.0309,-175.5388
15:46:31:521,-0.4431,4.247,9.56,29.1754,-0.164,0.1054,0,-175.5388
15:46:31:543,-0.4782,4.3062,10.2603,29.353,-0.2555,-0.1618,0.017,-175.5388
15:46:31:561,-0.4946,4.1168,11.0871,29.5778,-0.3087,-0.2768,0.0756,-175.5388
15:46:31:581,-0.5144,3.8939,11.8501,30.0204,-0.2885,-0.1022,0.2321,-175.5388
15:46:31:601,-0.352,3.7999,12.2933,30.4899,-0.1938,0.3396,0.379,-175.5388
15:46:31:621,-0.1969,3.3686,12.3594,30.5042,-0.0905,0.5057,0.2523,-175.5388
15:46:31:643,-0.4677,2.6788,12.0636,30.5392,0.1043,0.4716,0.0479,-175.5388
15:46:31:661,-0.8588,1.8042,11.2492,30.1824,0.3737,0.2726,-0.0394,-175.5388
15:46:31:681,-0.7719,1.1136,10.1384,30.0033,0.5249,-0.0767,0.017,-175.5388
15:46:31:701,-0.4362,0.8544,9.0658,30.2346,0.4887,-0.362,0.0596,-175.5388
15:46:31:721,-0.183,1.165,8.3169,30.1155,0.2257,-0.4684,0.0192,-175.5388
15:46:31:742,-0.0289,1.5237,8.0029,30.5484,-0.2321,-0.378,-0.0873,-175.5388
15:46:31:761,0.0782,1.631,8.0053,30.7191,-0.6047,-0.1725,-0.1842,-175.5388
15:46:31:781,0.0999,1.5245,7.983,30.8275,-0.7644,-0.0128,-0.2672,-175.5388
15:46:31:801,-0.1052,1.4816,7.8593,31.1169,-0.7069,0.0671,-0.2906,-175.5388
15:46:31:821,-0.4234,1.5507,7.5244,31.4031,-0.5632,0.1203,-0.1948,-175.5388
15:46:31:843,-0.6944,1.7542,7.2433,31.5532,-0.4131,0.1437,0.0106,-175.5388
15:46:31:861,-0.6277,1.9478,7.1372,31.9807,-0.3194,0.1022,0.1778,-175.5388
15:46:31:881,-0.4631,2.1365,7.3438,32.2086,-0.2438,0.0277,0.2193,-175.5388
15:46:31:901,-0.3521,2.1119,7.5515,32.172,-0.1459,-0.0383,0.132,-175.5388
15:46:31:924,-0.3736,1.9736,7.889,32.2418,-0.0383,-0.1842,0.0256,-175.5388
15:46:31:942,-0.3705,2.0155,8.27,32.4481,-0.0075,-0.28,0.0117,-175.5388
15:46:31:962,-0.1853,2.2442,8.8715,32.4392,-0.0841,-0.3045,-0.0032,-175.5388
15:46:31:981,-0.0154,2.2089,9.6648,33.012,-0.1725,-0.2938,-0.0905,-175.5388
15:46:32:001,0.1113,2.27,10.3873,33.446,-0.2513,-0.3396,-0.2151,-175.5388
15:46:32:022,0.2989,2.1394,11.0344,33.8843,-0.3599,-0.3811,-0.3652,-175.5388
15:46:32:042,0.2318,2.1574,11.7234,34.0135,-0.5132,-0.2704,-0.51,-175.5388
15:46:32:061,-0.0458,2.454,12.3698,34.2374,-0.5866,0.0692,-0.5419,-175.5388
15:46:32:081,0.0458,2.3481,12.2607,34.3273,-0.5259,0.5589,-0.478,-175.5388
15:46:32:101,-0.0386,2.1937,11.7401,34.5458,-0.4344,0.8432,-0.5249,-175.5388
15:46:32:122,-0.6125,2.0885,11.4009,34.7633,-0.3545,0.6867,-0.5856,-175.4304
15:46:32:141,-1.0921,1.6631,11.4868,35.1733,-0.2119,0.2875,-0.4695,-175.3018
15:46:32:161,-0.9963,0.9126,11.5575,35.3669,0.0181,-0.1459,-0.2459,-175.1582
15:46:32:180,-0.4367,0.1102,11.3331,35.3415,0.2012,-0.5057,-0.0862,-175.0084
15:46:32:202,0.1737,-0.3976,11.0485,35.6741,0.1118,-0.8091,-0.05,-174.8579
15:46:32:222,0.5701,-0.3617,10.7878,35.6851,-0.1522,-0.7208,-0.0075,-174.7118
15:46:32:242,0.891,-0.29,10.2736,35.8509,-0.378,-0.1086,0.0554,-174.576
15:46:32:260,0.8083,0.1017,9.5122,36.3682,-0.4865,0.6484,0.0681,-174.453
15:46:32:280,0.2483,0.8161,8.6057,36.6941,-0.4493,1.2222,0.0788,-174.3412
15:46:32:302,-0.2819,1.51,7.4864,37.271,-0.2811,1.4756,0.1682,-174.2383
15:46:32:321,-0.532,1.857,6.4762,37.6016,-0.0586,1.4181,0.2789,-174.1447
15:46:32:341,-0.5531,2.0786,5.9642,37.7598,0.1682,0.9113,0.3407,-174.1447
15:46:32:360,-0.21,1.7678,5.8377,37.6057,0.3226,-0.0021,0.3077,-174.1447
15:46:32:381,-0.0972,1.7816,6.0541,37.4505,0.3545,-0.7261,0.1735,-174.1447
15:46:32:403,-0.3787,1.9759,6.6088,37.5883,0.3098,-0.8294,0.0745,-174.1447
15:46:32:421,-0.3628,1.8977,7.2788,37.2293,0.1725,-0.6601,0.0415,-174.1447
15:46:32:442,-0.1864,1.7011,8.2197,37.0872,-0.115,-0.4631,0.0298,-174.1447
15:46:32:461,-0.2969,1.7633,9.4302,37.416,-0.378,-0.2225,0.1054,-174.1447
15:46:32:481,-0.5814,1.884,10.5512,37.8756,-0.4046,0.197,0.231,-174.1447
15:46:32:501,-0.7489,2.0858,11.1555,38.617,-0.3354,0.5557,0.3481,-174.1447
15:46:32:520,-0.6552,2.1849,11.8104,39.4836,-0.3907,0.4961,0.411,-174.1447
15:46:32:542,-0.7284,2.0256,12.9903,40.2011,-0.4482,0.1118,0.3843,-174.1447
15:46:32:560,-1.0307,2.0297,13.9931,40.3985,-0.2044,-0.066,0.4567,-174.1447
15:46:32:581,-0.9955,1.9512,14.0144,40.6816,0.2587,0.0809,0.6601,-174.1447
15:46:32:601,-0.5854,1.6116,13.0006,40.6091,0.6005,0.0437,0.6771,-174.1447
15:46:32:621,-0.3419,1.0929,11.9805,40.8685,0.6707,-0.1746,0.4631,-174.1447
15:46:32:641,-0.3696,0.308,11.1887,41.0443,0.6058,-0.2981,0.1735,-174.1447
15:46:32:661,-0.7468,-0.4838,10.2928,41.2185,0.5313,-0.2321,-0.0362,-174.1447
15:46:32:684,-1.1412,-0.7574,9.4277,41.3741,0.3918,-0.1533,-0.1043,-174.1447
15:46:32:702,-1.2445,-0.6392,8.7774,41.5276,0.1352,-0.2236,-0.0724,-174.1447
15:46:32:722,-0.7682,-0.5409,8.5022,41.8563,-0.1831,-0.4195,-0.1022,-174.1447
15:46:32:742,-0.1865,-0.4668,8.3882,41.7613,-0.4493,-0.511,-0.3087,-174.1447
15:46:32:761,-0.1107,-0.2549,8.175,42.2007,-0.577,-0.4067,-0.5494,-174.1447
15:46:32:782,-0.4115,0.0709,7.704,42.2697,-0.4684,-0.1171,-0.593,-174.1447
15:46:32:801,-0.8746,0.5003,7.0364,42.3974,-0.231,0.131,-0.411,-174.1447
15:46:32:821,-1.0857,0.9643,6.6435,42.5986,-0.1267,0.2172,-0.0532,-174.1447
15:46:32:841,-1.0029,1.5225,6.7834,42.8239,-0.1735,0.2342,0.3684,-174.1447
15:46:32:878,-0.5332,1.7749,7.274,43.0583,-0.1373,0.296,0.6175,-174.1447
15:46:32:887,-0.1867,1.8623,7.707,43.1323,0.0032,0.3151,0.5888,-174.1447
15:46:32:901,-0.1186,2.2776,8.1069,43.5087,0.1246,0.148,0.4163,-174.1447
15:46:32:921,-0.125,2.5958,8.7547,43.7465,0.0777,-0.1565,0.1629,-174.1447
15:46:32:941,-0.3131,2.2901,9.8255,43.9871,-0.0447,-0.4621,-0.0532,-174.1447
15:46:32:960,-0.6605,1.8074,11.0276,44.2195,0.0213,-0.4493,-0.0894,-174.1447
15:46:32:982,-0.578,1.3174,11.5131,44.7571,0.2289,-0.1586,0.0064,-174.1447
15:46:33:001,-0.3545,1.3719,11.6262,45.0664,0.1746,0.0426,0.0234,-174.1447
15:46:33:021,-0.5074,1.9303,12.2204,45.5141,-0.1171,0.0692,-0.0192,-174.1447
15:46:33:041,-0.9333,2.7113,13.1958,45.9458,-0.2342,0.2694,0.0405,-174.1447
15:46:33:061,-0.9406,2.9724,13.5092,46.4053,0.0011,0.5238,0.1491,-174.1447
15:46:33:081,-0.4755,2.5525,12.919,46.8712,0.23,0.4525,0.1203,-174.1447
15:46:33:101,-0.3409,2.0195,12.2459,46.9209,0.296,0.1267,-0.0511,-174.1447
15:46:33:121,-0.512,1.0316,11.7708,47.028,0.4322,-0.1576,-0.1757,-174.1447
15:46:33:141,-0.5953,-0.0729,10.9775,46.9283,0.6942,-0.3662,-0.1682,-174.1447
15:46:33:163,-0.4515,-0.5233,9.6887,46.9716,0.9071,-0.4855,-0.0649,-174.1447
15:46:33:181,0.0435,-0.5042,8.3572,47.1148,0.7772,-0.6771,0.0053,-174.1447
15:46:33:201,0.5552,-0.0229,7.7614,47.0234,0.2172,-0.9475,-0.0426,-174.1447
15:46:33:221,1.1258,0.287,7.731,46.8569,-0.4195,-0.9561,-0.1597,-174.1447
15:46:33:241,1.2562,0.3567,7.9022,46.9295,-0.7825,-0.5355,-0.3662,-174.1447
15:46:33:263,0.8664,0.5497,7.9483,46.9383,-0.8081,-0.0298,-0.5345,-174.1447
15:46:33:282,0.2083,0.7625,7.5971,46.9817,-0.5792,0.3386,-0.5057,-174.1447
15:46:33:301,-0.2269,0.9571,7.1653,47.311,-0.3162,0.3875,-0.3087,-174.1447
15:46:33:320,-0.4826,1.4558,6.9656,47.531,-0.0639,0.2576,-0.0138,-174.1447
15:46:33:341,-0.354,1.9312,6.9049,47.699,0.2012,0.1437,0.23,-174.1447
15:46:33:360,-0.0132,2.2185,6.7952,47.6503,0.3843,0.0862,0.2789,-174.1447
15:46:33:380,0.1703,2.3664,6.982,47.7756,0.3748,0.0713,0.2545,-174.1447
15:46:33:400,0.3194,2.3245,7.5887,47.6939,0.2502,0.0426,0.3279,-174.1447
15:46:33:420,0.8486,2.3077,8.2337,47.9791,0.1139,0.0713,0.4301,-174.1447
15:46:33:444,0.9957,2.5121,9.0476,48.2583,-0.0639,0.2289,0.3386,-174.1447
15:46:33:461,0.5211,2.8935,10.1624,48.7254,-0.2491,0.4003,0.2481,-174.1447
15:46:33:481,0.1504,2.746,11.41,49.1031,-0.3918,0.3907,0.263,-174.1447
15:46:33:500,-0.1676,2.5244,12.8757,49.621,-0.4557,0.0575,0.2853,-174.1447
15:46:33:521,-0.4528,2.4613,14.012,49.6548,-0.3268,-0.2757,0.3343,-174.1447
15:46:33:543,-0.5762,2.3372,14.55,49.8089,0.0202,-0.1725,0.4855,-174.1447
15:46:33:561,-0.3295,1.9918,13.939,49.86,0.4812,0.1054,0.642,-174.2547
15:46:33:581,0.0302,1.5685,12.7107,50.1133,0.7154,0.017,0.5206,-174.383
15:46:33:601,0.0324,1.1012,11.5552,49.9788,0.7623,-0.1863,0.2395,-174.5243
15:46:33:621,-0.158,0.4709,10.4126,49.7727,0.7506,-0.247,-0.0096,-174.6667
15:46:33:643,-0.4715,-0.0523,9.2513,49.6316,0.6494,-0.1427,-0.2087,-174.8044
15:46:33:661,-0.8629,-0.1753,8.3505,49.2861,0.3407,-0.0351,-0.33,-174.931
15:46:33:682,-0.7051,-0.3201,7.9248,48.9666,-0.2002,-0.099,-0.461,-175.0401
15:46:33:701,-0.3629,-0.6838,8.0508,48.8273,-0.7165,-0.2044,-0.7059,-175.0401
15:46:33:721,-0.5688,-0.6952,8.427,48.8005,-0.988,-0.2055,-0.9816,-175.0401
15:46:33:742,-1.0562,-0.5614,8.4542,48.8135,-0.9603,0.0011,-1.0732,-175.0401
15:46:33:761,-1.607,0.0772,8.3041,49.0128,-0.7389,0.23,-0.8049,-175.0401
15:46:33:781,-1.8038,0.7569,8.0832,48.9603,-0.3854,0.1565,-0.1278,-175.0401
15:46:33:800,-1.278,1.3075,7.6818,49.1117,0.0916,0.0266,0.7027,-175.0401
15:46:33:821,-0.2035,1.4667,7.3133,48.8488,0.5302,-0.0798,1.186,-175.0401
15:46:33:841,0.5971,1.9078,7.079,48.7066,0.7655,-0.3098,1.103,-175.0401
15:46:33:861,0.5963,2.471,7.0248,48.4029,0.7719,-0.6143,0.6973,-175.0401
15:46:33:881,0.4842,2.5115,7.5446,48.0848,0.5313,-0.8358,0.3705,-175.0401
15:46:33:901,0.5356,2.3596,8.5784,48.0465,0.1597,-0.5494,0.2395,-175.1457
15:46:33:923,0.4406,2.081,9.8559,47.9687,-0.0617,0.1959,0.263,-175.2611
15:46:33:941,0.5087,2.0627,10.5583,48.1611,-0.0777,0.8272,0.3205,-175.3878
15:46:33:961,0.7202,2.2419,10.8551,48.3812,-0.1778,0.8879,0.1725,-175.5218
15:46:33:981,0.5205,2.6683,11.5635,48.6526,-0.4195,0.5866,-0.0852,-175.6531
15:46:34:001,-0.1835,2.8833,12.9241,49.1731,-0.4972,0.4589,-0.132,-175.7749
15:46:34:022,-0.4694,3.0153,13.848,49.2145,-0.2161,0.4663,0.0873,-175.8898
15:46:34:042,-0.0953,2.7169,13.5712,49.1043,0.2427,0.4823,0.181,-176.0058
15:46:34:061,0.3827,2.0444,12.5581,49.08,0.4237,0.2981,-0.1427,-176.1215
15:46:34:081,0.0102,0.8684,11.8858,48.8187,0.3354,-0.0256,-0.6548,-176.2221
15:46:34:101,-1.0016,-0.4576,11.5293,48.2704,0.4908,-0.2225,-0.8954,-176.2221
15:46:34:122,-1.7224,-1.2581,10.1271,47.8679,0.6718,0.0458,-0.7612,-176.2221
15:46:34:141,-1.7647,-0.8447,8.4729,47.2866,0.6548,0.2672,-0.3918,-176.2221
15:46:34:161,-1.2414,0.1273,7.3074,47.0638,0.0873,0.0256,-0.0596,-176.2221
15:46:34:181,-0.5503,1.1102,7.2507,46.7198,-0.675,-0.329,0.1597,-176.2221
15:46:34:201,0.2492,1.4762,7.9214,46.6227,-1.1381,-0.4567,0.2076,-176.2221
15:46:34:222,0.7208,1.6481,8.324,46.6731,-1.1275,-0.3332,0.1001,-176.2221
15:46:34:242,0.6801,1.8629,8.4067,46.9891,-0.8219,-0.1065,0.033,-176.2221
15:46:34:261,0.5521,1.8526,8.0262,46.8037,-0.3907,-0.0543,0.0554,-176.2221
15:46:34:281,0.5972,1.8107,7.5232,46.4718,0.0181,-0.0213,0.099,-176.2221
15:46:34:304,0.6818,1.9451,6.9931,46.6484,0.3386,0.0649,0.1011,-176.2221
15:46:34:322,0.7974,1.9164,6.5377,46.6244,0.4919,0.1916,0.0458,-176.2221
15:46:34:341,0.754,2.0602,6.3687,46.2882,0.4152,0.1395,-0.0085,-176.2221
15:46:34:360,0.6076,2.2068,6.9259,46.231,0.1118,-0.0916,-0.0703,-176.2221
15:46:34:381,0.5877,2.0757,8.1878,46.3184,-0.2342,-0.2885,-0.0894,-176.2221
15:46:34:403,0.3286,1.5006,9.6428,45.7311,-0.3641,-0.0511,0.0202,-176.2221
15:46:34:421,-0.1517,1.9986,10.8046,45.5826,-0.297,0.296,0.2928,-176.2221
15:46:34:442,-0.1792,3.0241,11.5938,45.8478,-0.2417,0.4727,0.4461,-176.2221
15:46:34:462,-0.0391,3.1949,12.195,45.8814,-0.3556,0.3641,0.1469,-176.2221
15:46:34:481,-0.5994,2.5167,13.1617,45.9421,-0.5015,-0.0224,-0.2002,-176.2221
15:46:34:502,-1.3186,2.1583,14.0133,45.8307,-0.4184,-0.0394,-0.0745,-176.2221
15:46:34:524,-1.2402,2.1853,14.0951,45.4143,-0.0937,0.2715,0.2747,-176.2221
15:46:34:541,-0.3118,1.7385,13.475,45.3953,0.2108,0.2683,0.297,-176.2221
15:46:34:561,0.1182,0.7857,12.8119,44.9658,0.3758,-0.1341,-0.1501,-176.2221
15:46:34:581,0.1168,-0.6244,11.4285,44.8327,0.675,-0.2587,-0.4823,-176.2221
15:46:34:602,0.0958,-1.8689,9.6085,44.5378,0.9507,-0.1714,-0.5728,-176.2221
15:46:34:621,-0.153,-1.8492,8.0374,44.1616,0.9965,-0.1416,-0.4589,-176.2221
15:46:34:641,-0.5553,-0.792,7.0769,43.853,0.6856,-0.2715,-0.2395,-176.2221
15:46:34:661,-0.5446,0.4619,6.8872,43.4398,0.0607,-0.5813,-0.1011,-176.2221
15:46:34:685,-0.306,0.7817,7.2987,43.1251,-0.6824,-0.7272,-0.1086,-176.2221
15:46:34:701,-0.0346,0.5255,8.0377,42.9413,-1.1786,-0.5547,-0.1129,-176.2221
15:46:34:721,-0.0504,0.4212,8.5883,42.8847,-1.2616,-0.2523,-0.0373,-176.2221
15:46:34:741,-0.1606,0.4578,8.8047,42.8922,-0.9614,0.0373,0.1746,-176.2221
15:46:34:761,-0.2989,0.6819,8.5163,43.113,-0.4493,0.3183,0.4525,-176.2221
15:46:34:783,-0.3795,0.9034,7.9676,42.8351,0.0543,0.4695,0.61,-176.2221
15:46:34:801,-0.4109,1.3336,7.2643,42.6848,0.33,0.6367,0.6409,-176.2221
15:46:34:822,-0.495,1.8999,6.8913,42.7925,0.3662,0.6963,0.6335,-176.2221
15:46:34:841,-0.2785,2.0233,6.7196,42.5259,0.2928,0.527,0.5281,-176.2221
15:46:34:861,-0.1795,1.8563,7.3336,42.4844,0.0351,0.0617,0.3119,-176.3161
15:46:34:900,-0.1533,1.6205,8.9531,42.745,-0.2662,-0.2502,0.1522,-176.4137
15:46:34:902,-0.096,1.218,10.6386,42.7767,-0.3567,0.0767,0.0394,-176.5164
15:46:34:921,-0.193,0.8984,11.5855,42.9135,-0.2332,0.5621,-0.1416,-176.621
15:46:34:941,-0.3772,0.7659,11.7885,42.8918,-0.1863,0.6899,-0.3971,-176.7172
15:46:34:960,-0.9784,1.0385,12.1377,42.6729,-0.395,0.4461,-0.6143,-176.7172
15:46:34:980,-1.7627,1.3658,12.9018,42.6484,-0.5068,0.1863,-0.6345,-176.7172
15:46:35:001,-2.2824,1.3293,13.4051,42.47,-0.3194,0.0841,-0.411,-176.7172
15:46:35:021,-2.0658,1.0833,13.2623,42.3258,-0.0543,0.0149,-0.0543,-176.7172
15:46:35:041,-1.2454,0.6431,12.882,42.5225,0.1491,-0.1916,0.1512,-176.7172
15:46:35:061,-0.4212,-0.0975,12.3282,42.8523,0.3588,-0.4227,0.1097,-176.7172
15:46:35:081,0.0303,-0.8412,11.6722,42.6383,0.5877,-0.6015,-0.0106,-176.7172
15:46:35:101,0.3262,-0.8645,10.7086,42.4957,0.8379,-0.6441,-0.0447,-176.7172
15:46:35:121,0.6094,-1.0512,9.0918,41.8414,0.8326,-0.5281,-0.0245,-176.7172
15:46:35:142,0.9727,-0.6226,8,41.2687,0.4099,-0.4322,-0.066,-176.7172
15:46:35:163,0.9748,0.1593,7.5477,40.8253,-0.2055,-0.3396,-0.2353,-176.7172
15:46:35:182,0.4841,0.8913,7.7537,40.5095,-0.6824,-0.1799,-0.444,-176.7172
15:46:35:202,-0.116,1.0969,8.0597,40.3185,-0.7921,0.0106,-0.5334,-176.7172
15:46:35:221,-0.4983,1.0621,7.9677,40.2594,-0.5302,0.0873,-0.4482,-176.7172
15:46:35:241,-0.568,1.0551,7.6598,40.0719,-0.0798,-0.0341,-0.2268,-176.7172
15:46:35:263,-0.2744,1.0354,7.4504,40.0479,0.3822,-0.4354,0.0128,-176.7172
15:46:35:281,0.1591,1.3482,7.1734,40.0708,0.725,-0.7091,0.1192,-176.7172
15:46:35:301,0.566,1.6386,6.8528,39.8047,0.8464,-0.5685,0.0841,-176.7172
15:46:35:320,0.8518,1.7392,6.6833,39.7834,0.6814,-0.165,-0.0128,-176.7172
15:46:35:341,0.8493,1.8637,6.9746,39.8236,0.2694,0.0948,-0.0873,-176.7172
15:46:35:361,0.384,2.4371,8.0162,39.5866,-0.2161,-0.0213,-0.0841,-176.7172
15:46:35:381,-0.0008,2.7461,8.9746,39.5352,-0.5909,0.1714,0.017,-176.7172
15:46:35:401,-0.0613,2.1515,9.7706,39.8351,-0.9071,0.9273,0.2395,-176.7172
15:46:35:421,-0.1148,1.6971,10.8156,39.9793,-1.1445,1.5203,0.56,-176.7172
15:46:35:443,-0.2576,1.4789,12.5654,40.154,-1.1935,1.4639,0.7687,-176.7172
15:46:35:461,-0.5952,1.5508,14.2755,40.3327,-0.8751,0.7857,0.6611,-176.7172
15:46:35:481,-0.8661,1.4635,14.9505,40.4885,-0.247,0.148,0.4642,-176.7172
15:46:35:501,-0.6664,0.7913,14.2456,40.1833,0.3992,-0.0841,0.4993,-176.7172
15:46:35:521,-0.4543,0.0535,13.1493,40.1584,0.8017,-0.231,0.4482,-176.7172
15:46:35:542,-0.3679,-0.4193,12.0559,39.7394,0.9773,-0.4663,0.2332,-176.7172
15:46:35:561,-0.1778,-1.0641,10.8998,39.5084,1.021,-0.6611,-0.0043,-176.7172
15:46:35:581,-0.1906,-1.4278,9.6904,39.0483,0.9443,-0.7783,-0.2151,-176.7172
15:46:35:601,-0.4119,-1.1119,8.6203,38.6938,0.724,-0.7261,-0.3013,-176.7172
15:46:35:621,-0.5128,-0.4993,7.8474,38.6224,0.3481,-0.6292,-0.2555,-176.7172
15:46:35:642,-0.3521,0.102,7.534,38.6405,-0.1522,-0.5909,-0.2097,-176.7172
15:46:35:661,-0.1763,0.5561,7.5784,38.5849,-0.6558,-0.5568,-0.2555,-176.7172
15:46:35:681,-0.1453,0.786,7.9483,38.7545,-0.9976,-0.4472,-0.3769,-176.7172
15:46:35:700,-0.2233,0.8679,8.1722,38.7549,-1.0455,-0.2747,-0.4535,-176.7172
15:46:35:721,-0.3996,0.7825,8.0851,38.5147,-0.84,0.0192,-0.3769,-176.7172
15:46:35:741,-0.594,0.9497,7.8064,38.2394,-0.5632,0.2406,-0.1576,-176.7172
15:46:35:761,-0.5673,1.226,7.6671,38.3832,-0.2406,0.3843,0.1224,-176.7172
15:46:35:780,-0.4555,1.2665,7.771,38.1258,0.0479,0.3354,0.2779,-176.7172
15:46:35:801,-0.3454,1.1074,8.0971,37.9132,0.2715,0.1863,0.264,-176.7172
15:46:35:821,-0.1756,1.0713,8.4693,37.7714,0.4312,0.1065,0.197,-176.7172
15:46:35:841,0.2741,1.0995,9.0424,37.6171,0.5004,0.0671,0.0681,-176.7172
15:46:35:861,0.2144,0.9892,9.6974,37.5884,0.4759,0.1831,-0.1395,-176.7172
15:46:35:880,-0.2823,1.1978,10.072,37.6889,0.4312,0.4748,-0.2768,-176.7172
15:46:35:901,-0.67,1.2395,10.5025,38.0642,0.3215,0.6729,-0.362,-176.7172
15:46:35:923,-0.9245,1.1883,11.1517,38.5504,-0.0415,0.3567,-0.5004,-176.7172
15:46:35:941,-1.362,1.4894,12.2024,38.655,-0.5387,-0.1256,-0.6111,-176.7172
15:46:35:961,-1.5599,1.7124,13.3177,38.242,-0.6814,-0.1033,-0.4429,-176.7172
15:46:35:981,-1.2247,1.4755,13.7287,37.9974,-0.4621,0.1384,-0.1331,-176.7172
15:46:36:001,-1.099,1.2965,13.8406,37.5897,-0.1097,0.2172,0.0511,-176.7172
15:46:36:022,-0.9572,0.9456,13.6545,36.8875,0.3588,-0.1054,0.083,-176.7172
15:46:36:043,-0.425,0.3564,12.6541,36.5373,0.8773,-0.5579,0.0788,-176.7172
15:46:36:061,0.3187,-0.0337,11.032,35.922,1.2712,-0.7697,0.1246,-176.7172
15:46:36:081,1.0328,-0.0417,9.6193,35.3926,1.3372,-0.7655,0.1267,-176.7172
15:46:36:101,1.6134,0.1564,8.8824,34.6099,1.0285,-0.6942,-0.0724,-176.7172
15:46:36:122,1.6256,0.6124,8.2932,34.04,0.4237,-0.6643,-0.3843,-176.7172
15:46:36:141,1.2039,0.7806,7.9304,33.5323,-0.1139,-0.477,-0.6611,-176.7172
15:46:36:160,0.5275,0.713,7.4729,33.4454,-0.3279,-0.1203,-0.7783,-176.7172
15:46:36:180,-0.1057,0.6895,6.8925,33.0309,-0.2651,0.2023,-0.6899,-176.6056
15:46:36:201,-0.4632,0.7662,6.436,33.0652,-0.0916,0.3173,-0.4322,-176.4752
15:46:36:221,-0.6253,0.9868,6.3386,32.975,0.082,0.1725,-0.0979,-176.3344
15:46:36:242,-0.2899,1.2153,6.0509,33.0494,0.2406,0.0149,0.2576,-176.1958
15:46:36:261,0.276,1.214,6.0567,32.9712,0.3556,0.1097,0.477,-176.0735
15:46:36:281,0.5823,1.5149,6.5405,33.0552,0.362,0.1682,0.4791,-175.9728
15:46:36:304,0.722,2.0367,7.4817,32.8412,0.2332,0.017,0.3865,-175.9728
15:46:36:321,0.7663,2.5242,8.4825,32.5685,-0.0053,-0.1459,0.3109,-175.9728
15:46:36:342,0.7007,2.708,9.3964,32.5642,-0.2033,0.0916,0.2545,-175.9728
15:46:36:361,0.5536,2.4519,10.1691,32.4452,-0.3183,0.5898,0.2726,-175.9728
15:46:36:381,0.3733,2.2909,10.9604,32.3832,-0.412,0.9784,0.4131,-175.9728
15:46:36:402,0.0888,2.1757,12.2718,32.3769,-0.5568,0.9092,0.4418,-175.9728
15:46:36:421,-0.4268,2.6102,13.6445,32.3903,-0.5462,0.659,0.4024,-175.9728
15:46:36:441,-0.5586,2.6987,13.9687,31.8264,-0.1565,0.8719,0.5046,-175.9728
15:46:36:461,-0.3017,2.2709,13.4384,31.6488,0.2864,1.0508,0.5653,-175.9728
15:46:36:481,-0.5086,2.0483,12.7543,31.6024,0.5227,0.7186,0.3194,-175.9728
15:46:36:501,-0.9888,1.4931,11.8219,31.4944,0.6643,0.3066,-0.0479,-175.9728
15:46:36:521,-1.261,0.3797,10.764,31.4064,0.7229,-0.0096,-0.2917,-175.9728
15:46:36:542,-1.5642,-0.2772,9.7336,31.1978,0.6558,-0.1789,-0.3087,-175.9728
15:46:36:560,-1.7422,-0.2255,8.9465,30.6802,0.3939,-0.2992,-0.1565,-175.9728
15:46:36:581,-1.4659,-0.0537,8.5534,30.2264,0.0075,-0.3162,0.0106,-175.9728
15:46:36:602,-0.9575,0.0825,8.4223,29.9164,-0.3226,-0.1384,0.0777,-175.9728
15:46:36:621,-0.7435,0.4507,8.2779,30.0098,-0.4546,0.1437,0.0735,-175.9728
15:46:36:641,-1.0082,1.0468,7.7942,30.1464,-0.3151,0.4929,0.1267,-175.9728
15:46:36:661,-1.161,1.4657,6.9346,29.9716,-0.0798,0.6345,0.2481,-175.9728
15:46:36:682,-1.1249,1.8285,6.2807,29.6985,0.033,0.4823,0.363,-175.9728
15:46:36:701,-0.9134,2.2249,6.0921,29.4109,0.0192,0.1267,0.3929,-175.9728
15:46:36:722,-0.778,2.435,6.5149,29.2715,-0.016,-0.2033,0.2821,-175.9728
15:46:36:741,-0.6881,2.3026,7.194,29.2934,-0.0192,-0.412,0.1395,-175.9728
15:46:36:760,-0.6529,2.1077,7.8137,29.2854,-0.0202,-0.4812,0.0085,-175.9728
15:46:36:782,-0.7227,2.1929,8.7466,29.2034,-0.1384,-0.5643,-0.082,-175.9728
15:46:36:801,-0.8918,2.1392,10.3071,28.9129,-0.2278,-0.4663,0.0096,-175.9728
15:46:36:821,-0.8966,1.711,11.8084,28.6606,-0.0522,0.05,0.2385,-175.9728
15:46:36:841,-0.6495,1.8699,12.2032,28.9625,0.3407,0.6335,0.3013,-176.0645
15:46:36:860,-0.592,2.6137,11.9304,29.1148,0.4035,0.5526,0.0756,-176.1613
15:46:36:881,-0.8485,3.2425,11.8816,29.1741,0.1384,0.1852,-0.1863,-176.252
15:46:36:914,-1.1916,2.7753,12.4303,29.0098,0.0671,0.1533,-0.2875,-176.252
15:46:36:923,-1.6282,2.3863,12.2681,28.9341,0.3162,0.5153,-0.2108,-176.252
15:46:36:941,-1.7179,2.2726,11.354,28.6415,0.5281,0.725,-0.0681,-176.252
15:46:36:960,-1.5288,1.8587,10.4038,28.3519,0.5227,0.477,-0.0554,-176.252
15:46:36:982,-1.3444,1.0675,9.7201,28.3281,0.3992,0.0511,-0.1597,-176.252
15:46:37:001,-1.2733,0.5056,9.324,28.2535,0.263,-0.2459,-0.2321,-176.252
15:46:37:020,-1.193,0.0708,8.8793,28.0006,0.0735,-0.3822,-0.2342,-176.252
15:46:37:041,-0.8091,-0.0523,8.7405,27.9387,-0.3024,-0.5195,-0.2236,-176.252
15:46:37:064,-0.2359,0.2112,8.5512,27.5672,-0.724,-0.5185,-0.2481,-176.252
15:46:37:081,0.1564,0.5794,8.4478,27.4935,-0.9848,-0.2576,-0.3364,-176.252
15:46:37:101,-0.0218,1.088,8.1822,27.1495,-0.9869,0.1182,-0.4024,-176.252
15:46:37:121,-0.3989,1.6625,7.9119,27.2559,-0.7037,0.3769,-0.3013,-176.252
15:46:37:142,-0.4472,2.2966,7.6233,27.0438,-0.3045,0.2843,-0.0479,-176.252
15:46:37:163,-0.1572,2.8667,7.7346,27.0442,0.016,-0.1352,0.1459,-176.252
15:46:37:181,0.3816,2.8464,8.2321,27.2418,0.2949,-0.5504,0.132,-176.252
15:46:37:201,0.5661,2.399,8.7555,27.4458,0.6622,-0.4567,-0.0117,-176.252
15:46:37:221,0.2048,2.0818,8.4771,27.5577,1.0167,-0.0767,-0.1821,-176.252
15:46:37:243,-0.386,1.9298,8.0896,27.704,0.9646,0.1544,-0.2779,-176.252
15:46:37:263,-1.0174,1.9726,8.1429,27.86,0.5909,0.3162,-0.2087,-176.252
15:46:37:281,-1.6174,2.3204,8.8312,27.8675,0.1948,0.4631,-0.1043,-176.252
15:46:37:301,-1.9947,2.547,9.6446,27.7051,0.0756,0.511,0.0373,-176.252
15:46:37:321,-2.1163,2.6975,10.3134,28.0374,0.148,0.3418,0.198,-176.252
15:46:37:341,-2.2325,3.1107,10.5675,28.3059,0.2033,0.1288,0.2694,-176.252
15:46:37:362,-2.4267,3.3535,10.8617,28.3053,0.1331,0.0554,0.3545,-176.252
15:46:37:381,-2.4053,3.3909,11.1987,28.5365,0.0756,0.1576,0.5483,-176.252
15:46:37:401,-1.9366,3.1208,11.1684,28.6686,0.0926,0.2513,0.6218,-176.252
15:46:37:421,-1.7444,2.799,11.0222,28.4656,0.1192,0.1895,0.4631,-176.252
15:46:37:443,-2.0542,2.3122,10.727,28.4411,0.1959,0.0671,0.2917,-176.252
15:46:37:461,-2.0203,1.7182,10.2162,28.3122,0.2044,-0.0937,0.2353,-176.252
15:46:37:481,-1.6757,1.1781,9.7269,28.0152,0.0916,-0.2342,0.2119,-176.252
15:46:37:501,-1.1644,1.0785,9.5735,27.769,-0.1459,-0.3918,0.1384,-176.252
15:46:37:521,-0.8032,1.2775,9.5837,27.4794,-0.4237,-0.4759,-0.0319,-176.252
15:46:37:543,-0.6151,1.3327,9.4677,27.2701,-0.6122,-0.2928,-0.2364,-176.252
15:46:37:561,-0.6495,1.3193,9.0022,27.0724,-0.6771,0.0351,-0.4067,-176.252
15:46:37:581,-0.8846,1.3264,8.0988,26.9543,-0.5792,0.4376,-0.4322,-176.252
15:46:37:600,-1.0269,1.3587,7.0505,27.1741,-0.4205,0.7112,-0.2906,-176.252
15:46:37:620,-1.0244,1.4834,6.2106,27.4719,-0.3375,0.6303,-0.083,-176.252
15:46:37:642,-1.205,1.7979,6.1259,27.6253,-0.2757,0.2598,0.099,-176.252
15:46:37:661,-1.2498,2.1563,6.4708,28.1371,-0.1097,-0.2268,0.2129,-176.252
15:46:37:681,-1.0018,2.3557,6.8077,28.3921,0.05,-0.6867,0.1672,-176.252
15:46:37:701,-0.9506,2.2096,7.5952,28.4833,0.0479,-1.0476,0.0053,-176.252
15:46:37:721,-1.1829,1.8454,9.0739,28.4056,0.0543,-1.087,-0.0298,-176.252
15:46:37:741,-1.3335,1.6541,10.1529,28.5349,0.2129,-0.8315,0.0117,-176.252
15:46:37:761,-1.3351,2.0773,10.5009,28.6554,0.3652,-0.3865,0.0128,-176.252
15:46:37:781,-1.0797,2.1839,10.427,28.893,0.3247,-0.0628,-0.0298,-176.252
15:46:37:801,-0.8853,2.0042,10.7964,29.2007,0.0745,0.017,-0.1533,-176.252
15:46:37:821,-1.079,2.1469,11.8189,29.0953,-0.2672,0.0628,-0.3194,-176.252
15:46:37:842,-1.6732,2.5028,12.9991,29.009,-0.4237,0.3268,-0.3652,-176.252
15:46:37:861,-1.8607,2.3963,13.2495,28.6709,-0.197,0.7761,-0.2012,-176.252
15:46:37:881,-1.5704,2.0604,12.4127,28.5099,0.1011,0.9486,-0.05,-176.252
15:46:37:901,-1.4473,1.8762,11.6033,28.6576,0.2193,0.5802,-0.0128,-176.252
15:46:37:923,-1.3795,1.3648,11.1722,28.4268,0.3151,-0.0532,0.0011,-176.252
15:46:37:942,-1.1281,0.9268,10.5167,28.1118,0.4386,-0.4653,0.0202,-176.252
15:46:37:961,-0.7017,0.7574,9.8887,27.8659,0.3535,-0.7602,0.0373,-176.252
15:46:37:982,-0.1154,0.8064,9.4488,27.3972,0.0117,-0.9465,0.0287,-176.252
15:46:38:001,0.5619,0.9818,9.0542,27.1084,-0.3354,-0.7005,-0.0266,-176.252
15:46:38:022,0.9298,1.1036,8.5382,27.4898,-0.5164,-0.0703,-0.2033,-176.252
15:46:38:042,0.6796,1.2366,7.8884,27.4101,-0.4929,0.5408,-0.4514,-176.252
15:46:38:061,-0.0426,1.4682,7.0694,27.6515,-0.3524,0.8464,-0.6122,-176.252
15:46:38:081,-0.7966,1.8223,6.3811,27.7204,-0.1672,0.8251,-0.5951,-176.252
15:46:38:101,-1.2688,2.1179,6.0332,27.6707,-0.0117,0.4738,-0.4259,-176.252
15:46:38:122,-1.2953,2.2687,5.9621,27.7041,0.1129,0.0234,-0.1799,-176.252
15:46:38:142,-0.8157,2.197,6.1127,27.7774,0.2023,-0.33,0.0043,-176.252
15:46:38:161,-0.3935,2.2068,6.5927,27.8659,0.1608,-0.6239,-0.0085,-176.252
15:46:38:181,-0.4123,2.3665,7.5152,28.2197,0.0437,-0.8187,-0.0703,-176.252
15:46:38:202,-0.6074,2.1726,8.622,28.4573,-0.0756,-0.7261,-0.1043,-176.252
15:46:38:221,-1.0581,1.7677,9.584,28.5847,-0.1011,-0.2502,0.0011,-176.252
15:46:38:242,-1.5815,1.6982,10.3057,29.01,-0.1267,0.3439,0.2779,-176.252
15:46:38:261,-1.8364,2.0437,11.2251,29.1391,-0.2417,0.5792,0.5696,-176.252
15:46:38:281,-1.7997,2.5274,12.5964,29.4437,-0.2949,0.4397,0.7027,-176.252
15:46:38:304,-1.5731,2.7522,13.7296,29.3581,-0.0873,0.2246,0.7335,-176.252
15:46:38:322,-1.3787,2.9437,13.7916,29.6048,0.3247,0.2065,0.8006,-176.252
15:46:38:342,-1.0559,3.1144,12.9483,29.863,0.6026,0.1267,0.7942,-176.252
15:46:38:361,-0.9093,2.9636,12.1587,29.7062,0.625,-0.0852,0.61,-176.252
15:46:38:380,-0.7645,2.1913,11.4217,29.4492,0.5685,-0.1139,0.3897,-176.252
15:46:38:403,-0.7591,1.2513,10.73,29.4105,0.5153,-0.0724,0.2246,-176.252
15:46:38:421,-0.7963,0.6598,9.83,29.1996,0.4503,-0.0745,0.0937,-176.3422
15:46:38:442,-0.8294,0.5804,8.9596,28.9133,0.2757,-0.1512,-0.0064,-176.3422
15:46:38:461,-0.6966,0.5555,8.3144,28.9625,-0.0298,-0.2342,-0.0852,-176.3422
15:46:38:481,-0.494,0.4598,7.9809,29.0931,-0.3258,-0.1938,-0.2161,-176.3422
15:46:38:502,-0.56,0.5586,7.5782,28.9509,-0.5387,-0.0287,-0.3247,-176.3422
15:46:38:521,-0.6972,0.7312,7.1581,29.1838,-0.6771,0.1938,-0.3364,-176.3422
15:46:38:542,-0.7133,0.8745,6.8925,29.1979,-0.6761,0.3662,-0.2523,-176.3422
15:46:38:561,-0.5967,1.0307,6.5921,29.1262,-0.5685,0.3556,-0.1352,-176.3422
15:46:38:581,-0.5899,1.5271,6.5567,29.2822,-0.3929,0.1874,-0.0586,-176.3422
15:46:38:601,-0.4552,1.8399,6.6433,29.5558,-0.1672,-0.1118,-0.0511,-176.3422
15:46:38:621,-0.4841,1.8332,6.9416,29.4675,0.0256,-0.4802,-0.1427,-176.3422
15:46:38:642,-0.5573,1.3952,7.6757,29.7789,0.1448,-0.7964,-0.1842,-176.3422
15:46:38:661,-0.7331,1.0334,8.7367,29.9777,0.1533,-1.185,-0.1735,-176.3422
15:46:38:681,-1.1611,1.7684,10.273,29.9117,0.0287,-1.5523,-0.2129,-176.3422
15:46:38:702,-1.0361,2.2323,11.2948,30.2362,0.0383,-1.1179,-0.2236,-176.3422
15:46:38:721,-0.5598,1.6776,11.3293,30.5529,0.164,-0.1874,-0.197,-176.3422
15:46:38:741,-0.6479,2.0789,11.2227,30.9508,0.1203,0.4535,-0.0852,-176.3422
15:46:38:761,-0.9018,3.0287,11.3617,31.0871,-0.0735,0.692,0.0245,-176.3422
15:46:38:783,-0.9653,3.4361,12.1122,31.43,-0.2417,0.4865,0.0756,-176.3422
15:46:38:801,-0.8617,3.4289,13.0028,31.4916,-0.1863,0.1437,0.115,-176.3422
15:46:38:822,-0.4043,3.0232,13.2866,31.3371,0.0437,-0.0277,0.1437,-176.3422
15:46:38:841,0.1846,2.2672,13.1295,31.3343,0.2704,-0.0958,0.1107,-176.3422
15:46:38:861,0.5108,1.0796,12.3619,31.2304,0.4993,-0.1778,0.0319,-176.3422
15:46:38:882,0.4453,0.4222,11.3593,31.1517,0.7506,-0.1075,-0.0234,-176.3422
15:46:38:927,0.2955,0.4341,9.9907,31.0497,0.8443,-0.1384,-0.0362,-176.3422
15:46:38:929,0.4772,0.5868,8.8565,30.9357,0.5206,-0.3567,-0.082,-176.3422
15:46:38:941,0.8555,0.7292,8.7806,31.0718,-0.1139,-0.5941,-0.148,-176.3422
15:46:38:960,1.1748,0.6833,9.1411,31.4969,-0.5483,-0.5185,-0.2683,-176.3422
15:46:38:982,1.0781,0.8922,9.159,31.6924,-0.5919,-0.0979,-0.428,-176.3422
15:46:39:001,0.5528,1.2651,8.405,31.9231,-0.3066,0.4365,-0.5078,-176.3422
15:46:39:020,-0.1025,1.8251,7.2132,31.9141,0.0053,0.6324,-0.4908,-176.3422
15:46:39:041,-0.6421,2.5434,6.3379,32.1672,0.1469,0.3545,-0.3737,-176.3422
15:46:39:063,-0.733,2.9958,6.0316,32.0153,0.1491,-0.0319,-0.2289,-176.3422
15:46:39:081,-0.2209,2.6655,6.0595,32.1386,0.1618,-0.1224,-0.1661,-176.3422
15:46:39:101,0.1613,2.2135,6.2344,32.0849,0.2257,-0.0277,-0.2033,-176.3422
15:46:39:121,0.1207,2.2284,6.2621,31.9221,0.1959,0.0202,-0.2832,-176.3422
15:46:39:142,0.1186,2.3499,6.7274,31.9755,-0.0287,-0.1203,-0.3205,-176.2435
15:46:39:163,0.0226,2.2213,7.8519,31.7432,-0.3481,-0.2896,-0.3002,-176.1357
15:46:39:182,-0.4498,2.1009,9.4424,31.9278,-0.4929,-0.1725,-0.1672,-176.0222
15:46:39:202,-0.9552,2.3602,10.8207,32.3698,-0.3886,0.2183,0.2151,-175.9109
15:46:39:221,-0.7442,2.9565,11.5842,32.2632,-0.2949,0.4876,0.6047,-175.8154
15:46:39:241,0.0544,3.5688,12.421,32.5252,-0.3311,0.3939,0.659,-175.8154
15:46:39:262,0.3275,3.6991,13.539,32.7887,-0.2385,0.1267,0.4163,-175.8154
15:46:39:281,-0.0701,3.6391,13.8834,32.9476,0.1512,0.2289,0.2012,-175.8154
15:46:39:301,-0.7068,3.4635,13.2862,33.2585,0.5164,0.3897,0.1001,-175.8154
15:46:39:321,-0.8297,2.8171,12.436,33.5023,0.5792,0.2087,0.0021,-175.8154
15:46:39:341,-0.4207,1.5589,11.9172,33.399,0.5291,-0.0713,-0.1597,-175.8154
15:46:39:361,-0.3014,0.0397,11.3449,33.2215,0.6441,-0.2481,-0.3024,-175.8154
15:46:39:381,-0.62,-0.7726,10.2094,33.0243,0.8688,-0.3311,-0.3002,-175.8154
15:46:39:401,-1.1016,-0.4063,8.7601,32.7094,0.9103,-0.4546,-0.1629,-175.8154
15:46:39:420,-1.1788,0.5163,7.7426,32.5846,0.5696,-0.6526,0.0277,-175.8154
15:46:39:444,-0.4661,1.0189,7.4109,32.4987,0.0096,-0.7304,0.1501,-175.8154
15:46:39:461,0.3422,1.158,7.5867,32.5406,-0.4237,-0.5451,0.0724,-175.8154
15:46:39:481,0.4876,1.3326,7.5838,32.4428,-0.5568,-0.1586,-0.099,-175.8154
15:46:39:501,0.1307,1.5203,7.2549,32.0288,-0.494,0.1278,-0.1789,-175.8154
15:46:39:521,-0.2448,1.712,6.8649,31.8067,-0.3758,0.2087,-0.1192,-175.8154
15:46:39:543,-0.4839,1.9672,6.5662,31.4944,-0.2598,0.1842,0.0437,-175.8154
15:46:39:561,-0.3663,1.9295,6.4486,31.4631,-0.1224,0.1001,0.1384,-175.8154
15:46:39:581,-0.3121,1.9288,6.5449,31.2779,-0.0287,-0.0554,0.099,-175.8154
15:46:39:601,-0.4312,1.9255,6.7449,31.2821,-0.0447,-0.2002,0.0085,-175.8154
15:46:39:621,-0.4261,1.7035,7.287,31.578,-0.2033,-0.2875,-0.1033,-175.8154
15:46:39:643,-0.4606,1.1159,8.4953,31.9747,-0.4173,-0.2928,-0.197,-175.8154
15:46:39:661,-0.6588,0.9419,9.8201,32.2159,-0.5238,-0.1022,-0.2193,-175.8154
15:46:39:681,-0.9278,1.4356,10.6343,32.3122,-0.477,0.2513,-0.1927,-175.8154
15:46:39:701,-0.9046,1.9654,10.9259,32.2202,-0.5068,0.4802,-0.1938,-175.8154
15:46:39:720,-0.7449,2.2067,11.4179,32.1723,-0.6761,0.478,-0.2364,-175.7211
15:46:39:742,-0.6318,2.1386,12.4116,32.1021,-0.8027,0.3567,-0.2896,-175.62
15:46:39:761,-0.788,2.3609,13.4368,31.7174,-0.7165,0.4322,-0.2129,-175.5128
15:46:39:781,-0.8064,2.9335,13.7655,31.8746,-0.3929,0.6569,-0.0043,-175.4046
15:46:39:800,-0.3966,2.9426,13.2204,31.9647,-0.0543,0.5919,0.0969,-175.3
15:46:39:821,-0.0952,2.5976,12.6474,31.8211,0.1629,0.2087,-0.0011,-175.1977
15:46:39:841,-0.0491,1.4019,12.1189,31.7528,0.3418,-0.2694,-0.1576,-175.0925
15:46:39:861,-0.1151,0.107,11.4356,31.5646,0.5472,-0.4525,-0.2225,-174.9818
15:46:39:882,-0.2393,-0.4904,10.4622,31.2095,0.675,-0.494,-0.1427,-174.8658
15:46:39:901,-0.1214,-0.3568,9.6492,30.8926,0.6069,-0.7144,0.0085,-174.7483
15:46:39:922,0.5666,0.0373,9.165,30.1518,0.3428,-0.9561,0.1043,-174.6329
15:46:39:941,1.315,0.1467,8.7375,30.2046,0.0969,-0.9188,-0.0266,-174.5252
15:46:39:961,1.4807,0.2453,8.0877,29.9748,-0.0937,-0.527,-0.3109,-174.4212
15:46:39:981,0.9524,0.5392,7.4352,29.7649,-0.2289,-0.0224,-0.5334,-174.3116
15:46:40:001,0.01,1.0011,6.9565,29.7407,-0.2438,0.4014,-0.5089,-174.1864
15:46:40:022,-0.658,1.6694,6.5825,29.8757,-0.1373,0.6281,-0.296,-174.0527
15:46:40:042,-0.7929,2.2265,6.2682,29.8352,0.0096,0.5845,-0.1075,-173.9136
15:46:40:061,-0.614,2.5262,6.1051,29.8027,0.1097,0.3077,-0.0309,-173.7732
15:46:40:081,-0.1303,2.558,6.0872,29.8625,0.1171,-0.0543,-0.0703,-173.633
15:46:40:101,0.2611,2.3967,6.5108,29.8515,-0.0298,-0.3609,-0.1725,-173.4918
15:46:40:121,0.3646,2.1952,7.4599,29.9005,-0.2438,-0.4024,-0.2513,-173.3484
15:46:40:142,-0.021,1.7219,8.9147,30.0109,-0.4865,-0.1416,-0.2161,-173.2028
15:46:40:161,-0.6371,1.8065,10.4299,30.2558,-0.5898,0.2864,0.0192,-173.0578
15:46:40:181,-0.7538,2.1776,11.5343,30.3543,-0.4983,0.5227,0.2938,-172.9224
15:46:40:203,-0.5588,2.7099,12.2535,30.6907,-0.3205,0.3939,0.4131,-172.8014
15:46:40:220,-0.4742,3.449,12.8092,31.0098,-0.1118,0.0479,0.3439,-172.6945
15:46:40:241,-0.3173,3.5653,13.4043,31.1695,-0.0607,-0.3194,0.2119,-172.5982
15:46:40:261,-0.2552,3.3284,14.0589,31.3873,-0.0586,-0.2481,0.2459,-172.5982
15:46:40:280,-0.132,2.9976,14.1738,31.3533,0.1693,0.2427,0.346,-172.5982
15:46:40:302,-0.015,2.4042,13.5974,31.2643,0.5057,0.3737,0.2875,-172.5982
15:46:40:321,0.1373,0.958,12.4317,31.2055,0.7804,-0.0181,0.0479,-172.5982
15:46:40:341,0.0394,-0.5584,11.0734,31.2025,1.0412,-0.3694,-0.1363,-172.5982
15:46:40:360,-0.3228,-1.0915,9.5507,31.1226,1.2467,-0.5494,-0.1256,-172.5982
15:46:40:381,-0.6212,-0.6423,8.0471,30.8034,1.2201,-0.4908,0.1043,-172.5982
15:46:40:403,-0.3846,-0.0461,6.8149,30.6023,0.8379,-0.3854,0.2981,-172.5982
15:46:40:421,0.1051,0.2539,6.2519,30.4196,0.1352,-0.3279,0.231,-172.5982
15:46:40:441,0.4065,0.2927,6.4575,30.4822,-0.6292,-0.2662,0.0096,-172.5982
15:46:40:460,0.2929,0.2251,7.0918,30.2741,-1.0721,-0.0043,-0.1618,-172.5982
15:46:40:480,-0.0449,0.2145,7.4059,30.2371,-1.0455,0.3449,-0.1267,-172.5982
15:46:40:502,-0.0075,0.1154,7.1749,30.186,-0.8017,0.6313,0.1097,-172.5982
15:46:40:521,0.2415,0.4994,6.9255,29.8953,-0.5738,0.7069,0.3801,-172.5982
15:46:40:541,0.504,1.1602,6.8578,30.1841,-0.3748,0.5057,0.395,-172.5982
15:46:40:560,0.4343,1.9338,6.9148,30.488,-0.197,0.1906,0.1054,-172.5982
15:46:40:582,0.0212,2.1697,7.119,30.8273,-0.0841,-0.0926,-0.2608,-172.5982
15:46:40:601,-0.4918,1.5201,7.5765,31.0994,-0.1224,-0.2023,-0.4802,-172.5982
15:46:40:621,-1.082,1.0106,8.7668,31.5527,-0.2928,-0.1107,-0.5281,-172.5982
15:46:40:641,-1.6716,1.3479,10.217,31.1189,-0.4237,0.1075,-0.4706,-172.5982
15:46:40:660,-1.929,1.8524,11.2505,31.2246,-0.3694,0.3992,-0.3854,-172.5982
15:46:40:683,-1.7403,1.9315,11.8249,30.869,-0.3109,0.3237,-0.3716,-172.5068
15:46:40:701,-1.5657,1.7128,12.5359,30.6814,-0.3513,0.0043,-0.3918,-172.4025
15:46:40:721,-1.6826,1.6768,13.5491,30.8806,-0.395,-0.2694,-0.3481,-172.2856
15:46:40:741,-1.757,1.996,14.1803,30.7572,-0.2374,-0.1288,-0.1789,-172.1623
15:46:40:762,-1.4339,2.1093,13.883,30.9822,0.0405,0.1554,0.0671,-172.0405
15:46:40:783,-0.754,1.713,12.9745,31.0274,0.1821,0.2513,0.2364,-171.9268
15:46:40:801,-0.3928,1.4493,12.417,31.0367,0.2364,-0.0138,0.3194,-171.8227
15:46:40:821,0.1826,0.679,11.6616,30.5626,0.4418,-0.3247,0.3332,-171.7296
15:46:40:841,0.6994,-0.079,10.5475,29.9743,0.708,-0.4322,0.2289,-171.7296
15:46:40:860,0.9847,-0.6265,9.2049,29.6522,0.7836,-0.3833,0.0405,-171.7296
15:46:40:881,1.2481,-0.6005,8.6602,28.8634,0.4088,-0.4557,-0.0873,-171.7296
15:46:40:901,1.3308,-0.3219,8.3817,28.6711,-0.1608,-0.428,-0.2853,-171.7296
15:46:40:944,0.8833,0.0781,8.6254,28.8361,-0.5334,-0.1938,-0.4929,-171.7296
15:46:40:946,0.2506,0.3735,8.6888,28.9532,-0.577,0.0979,-0.6005,-171.6298
15:46:40:962,-0.2596,0.5279,8.2917,29.1715,-0.362,0.296,-0.5281,-171.5104
15:46:40:981,-0.5675,0.73,7.5885,29.1122,-0.0841,0.3034,-0.3449,-171.3795
15:46:41:001,-0.5957,1.0379,6.8815,29.4155,0.0969,0.2065,-0.1129,-171.2404
15:46:41:021,-0.492,1.5091,6.662,29.324,0.1576,0.1011,0.1043,-171.1026
15:46:41:041,-0.3035,1.6179,6.6648,28.8703,0.1789,0.0575,0.181,-170.9737
15:46:41:062,-0.1491,1.4612,6.6624,28.4168,0.1746,0.0043,0.1129,-170.8536
15:46:41:081,-0.0394,1.522,6.7984,28.2994,0.0447,-0.1043,0.0713,-170.74
15:46:41:101,-0.2929,1.7737,7.4297,28.1006,-0.1735,-0.2576,0.0926,-170.6322
15:46:41:121,-0.581,1.8066,8.6045,28.124,-0.3322,-0.4205,0.148,-170.5304
15:46:41:141,-0.6148,1.8343,9.6209,28.2655,-0.2906,-0.4067,0.2981,-170.4364
15:46:41:163,-0.4121,1.9328,10.2606,28.215,-0.1629,-0.1405,0.4929,-170.4364
15:46:41:181,-0.2383,2.0564,10.8646,28.0048,-0.0756,0.263,0.6792,-170.4364
15:46:41:201,0.0585,2.205,11.6898,27.7997,-0.1033,0.6633,0.7761,-170.4364
15:46:41:221,0.0128,2.6799,12.9994,27.7473,-0.2726,0.7431,0.6729,-170.4364
15:46:41:241,-0.2444,3.1186,13.9013,27.4976,-0.2033,0.9582,0.5632,-170.4364
15:46:41:261,-0.3028,2.8898,13.7503,27.2794,0.1171,1.2488,0.4887,-170.4364
15:46:41:281,-0.2568,2.3279,12.9957,27.0493,0.2672,0.9827,0.2832,-170.4364
15:46:41:301,-0.5421,1.4405,12.6048,26.9051,0.2406,0.2821,0.0192,-170.4364
15:46:41:321,-0.7834,0.08,12.3041,26.7094,0.3503,-0.0649,-0.0948,-170.4364
15:46:41:344,-0.9605,-0.9842,11.4466,26.7218,0.6335,0.1203,-0.0564,-170.4364
15:46:41:360,-1.2482,-1.0933,9.8447,26.6174,0.7985,0.4237,0.0181,-170.4364
15:46:41:381,-1.5045,-0.3592,8.4161,26.0767,0.5813,0.4674,0.1011,-170.4364
15:46:41:401,-1.4864,0.2926,7.5095,25.7365,0.1054,0.2928,0.1182,-170.4364
15:46:41:420,-1.3197,0.4689,7.3778,25.3101,-0.3567,-0.0032,0.0394,-170.4364
15:46:41:443,-1.2303,0.476,7.6202,25.1618,-0.6186,-0.2364,-0.0287,-170.4364
15:46:41:461,-1.1469,0.53,7.6543,25.2702,-0.6154,-0.3045,-0.0064,-170.4364
15:46:41:481,-0.9947,0.6634,7.4499,25.3094,-0.4802,-0.3322,0.0958,-170.4364
15:46:41:501,-0.6789,0.9243,7.1679,25.1932,-0.3322,-0.4248,0.1916,-170.4364
15:46:41:521,-0.478,1.189,7.1783,25.2259,-0.1895,-0.6122,0.2183,-170.4364
15:46:41:542,-0.2427,1.1845,7.4624,25.0544,-0.0373,-0.7793,0.1821,-170.4364
15:46:41:561,0.0195,0.9427,7.9116,25.0056,0.1278,-0.8613,0.0884,-170.4364
15:46:41:581,0.3084,0.6178,8.264,24.753,0.264,-0.7676,-0.0713,-170.4364
15:46:41:601,0.3667,0.7651,8.4015,24.5519,0.2981,-0.4269,-0.3077,-170.4364
15:46:41:621,-0.0149,1.0935,8.7401,24.6404,0.1767,-0.0234,-0.576,-170.4364
15:46:41:642,-0.7001,1.1706,9.269,24.3861,-0.016,0.1565,-0.7208,-170.4364
15:46:41:661,-1.2708,1.0431,10.0037,24.2307,-0.1203,0.3929,-0.5919,-170.4364
15:46:41:681,-1.3666,1.1594,10.663,24.5654,-0.2172,0.5355,-0.4173,-170.4364
15:46:41:700,-1.4503,1.5952,11.4408,24.3471,-0.3449,0.4227,-0.3854,-170.4364
15:46:41:720,-1.4883,1.6578,12.1153,24.6787,-0.4248,0.2502,-0.3769,-170.4364
15:46:41:742,-1.5792,1.3635,12.6499,24.487,-0.3513,0.2225,-0.2651,-170.4364
15:46:41:761,-1.5783,1.0481,12.8203,24.3281,-0.1757,0.33,-0.0628,-170.4364
15:46:41:781,-1.3178,0.6302,12.843,24.137,-0.1363,0.3098,0.0948,-170.4364
15:46:41:802,-0.7765,0.0582,13.0439,23.8279,-0.0671,0.1757,0.2204,-170.4364
15:46:41:825,-0.0782,-0.5653,12.8387,23.6452,0.2843,0.165,0.2566,-170.4364
15:46:41:842,0.3259,-0.7714,11.7058,23.6168,0.658,0.1192,0.1565,-170.4364
15:46:41:861,0.5581,-0.6053,10.3789,23.3032,0.6707,-0.0809,0.0405,-170.4364
15:46:41:881,0.7982,-0.3981,9.4598,23.0622,0.3513,-0.2917,-0.0958,-170.4364
15:46:41:901,0.798,-0.126,8.9434,22.9409,0.0351,-0.1821,-0.2523,-170.4364
15:46:41:923,0.4196,0.3977,8.408,22.7521,-0.0617,0.1256,-0.3311,-170.4364
15:46:41:942,0.0092,0.9337,7.762,22.6861,0.0266,0.3109,-0.3002,-170.4364
15:46:41:961,-0.0554,1.2689,7.0156,22.596,0.1831,0.2502,-0.264,-170.4364
15:46:41:981,-0.1812,1.5544,6.3812,22.6182,0.2875,0.0032,-0.2938,-170.4364
15:46:42:001,-0.3267,1.9368,6.0178,22.565,0.297,-0.2672,-0.2747,-170.4364
15:46:42:022,-0.2283,2.0487,5.8939,22.5434,0.2268,-0.3886,-0.2768,-170.4364
15:46:42:042,0.0144,1.7804,6.0571,22.67,0.0671,-0.4301,-0.3801,-170.3375
15:46:42:060,0.0054,1.7317,6.6328,22.4841,-0.1682,-0.3854,-0.4706,-170.2285
15:46:42:081,-0.2717,1.8443,7.4539,22.8877,-0.3907,-0.3119,-0.5142,-170.1076
15:46:42:100,-0.6415,1.9613,8.4875,23.2707,-0.5238,-0.2683,-0.4961,-169.9738
15:46:42:121,-1.0063,1.8245,9.5727,23.5005,-0.544,-0.2023,-0.395,-169.8286
15:46:42:141,-1.3498,1.878,10.7786,23.859,-0.3971,-0.0926,-0.1672,-169.6767
15:46:42:160,-1.3873,1.9744,11.4207,23.9827,-0.1384,0.0692,0.0543,-169.5266
15:46:42:180,-1.2969,2.1649,11.6957,23.8172,0.033,0.1448,0.1618,-169.3842
15:46:42:203,-1.389,2.4225,11.8815,23.8898,0.0586,0.1725,0.1799,-169.252
15:46:42:221,-1.6994,2.3946,12.3574,23.9399,0.0341,0.2502,0.2598,-169.131
15:46:42:241,-1.9917,2.3593,12.7346,23.8787,0.1235,0.4493,0.461,-169.0254
15:46:42:261,-2.1406,2.5391,12.6772,23.865,0.3205,0.5994,0.6643,-169.0254
15:46:42:281,-1.9774,2.2225,12.327,24.185,0.4695,0.3226,0.6931,-169.0254
15:46:42:301,-1.6715,1.2827,12.0149,24.2491,0.5621,-0.2246,0.5568,-169.0254
15:46:42:321,-1.3778,0.0797,11.3488,24.4475,0.6782,-0.5121,0.4067,-169.0254
15:46:42:341,-1.4861,-0.699,10.4566,24.677,0.7527,-0.4951,0.3194,-169.0254
15:46:42:361,-1.7792,-0.8013,9.4708,24.6874,0.6899,-0.3737,0.3865,-169.0254
15:46:42:381,-1.6794,-0.695,8.7299,24.601,0.4216,-0.3577,0.5185,-169.0254
15:46:42:401,-1.2414,-0.5185,8.3987,24.8016,0.0202,-0.3737,0.5802,-169.0254
15:46:42:420,-0.865,-0.4092,8.3774,25.2204,-0.3375,-0.3428,0.5313,-169.0254
15:46:42:441,-0.8291,-0.367,8.4295,25.0553,-0.5345,-0.1948,0.4237,-169.0254
15:46:42:460,-1.2032,-0.1849,8.2428,25.2778,-0.5653,0.0426,0.4269,-169.0254
15:46:42:480,-1.5325,0.0999,7.8217,25.2287,-0.478,0.2768,0.593,-169.1246
15:46:42:501,-1.5303,0.3566,7.3643,25.0547,-0.3641,0.3268,0.8453,-169.2436
15:46:42:521,-1.3539,0.7723,7.1135,25.1884,-0.2704,0.1288,1.0348,-169.3884
15:46:42:541,-1.1093,1.2329,7.0161,25.4572,-0.1842,-0.099,1.0881,-169.5634
15:46:42:561,-0.7445,1.4476,7.0538,25.3684,-0.1427,-0.3226,1.0082,-169.7689
15:46:42:582,-0.3069,1.4163,7.1096,25.4525,-0.2172,-0.5057,0.8166,-170.0005
15:46:42:601,-0.1731,1.288,7.7606,25.7246,-0.411,-0.6143,0.5249,-170.2504
15:46:42:621,-0.6799,1.0126,8.9813,25.9245,-0.5259,-0.4684,0.3002,-170.5096
15:46:42:641,-1.1216,0.448,10.2515,26.1529,-0.3982,-0.1022,0.313,-170.7735
15:46:42:660,-1.3984,0.2513,11.2013,26.477,-0.0713,0.3173,0.51,-171.045
15:46:42:683,-1.4999,0.8908,11.5217,26.8641,0.1852,0.4046,0.6654,-171.3284
15:46:42:701,-1.4823,1.5149,11.6631,27.094,0.2033,-0.0617,0.6175,-171.6222
15:46:42:721,-1.3336,1.3065,11.9979,27.3948,0.2044,-0.4354,0.5345,-171.9261
15:46:42:742,-1.6684,1.257,12.3562,27.4299,0.2821,-0.2906,0.6218,-172.2398
15:46:42:761,-2.2408,2.2331,12.333,27.5852,0.3077,0.1512,0.8847,-172.5719
15:46:42:782,-2.2052,2.6166,12.3736,27.5818,0.1043,0.3886,1.1796,-172.9296
15:46:42:801,-1.8521,1.8325,12.7531,27.6668,-0.0564,0.4322,1.4564,-173.3237
15:46:42:821,-1.5675,0.7154,12.5686,27.7748,0.2949,0.4557,1.6619,-173.7542
15:46:42:842,-1.5851,0.0647,11.0098,27.7316,0.9337,0.4738,1.7396,-174.2322
15:46:42:861,-2.0582,0.3697,9.1167,27.9417,1.1669,-0.0106,1.7865,-174.7543
15:46:42:881,-2.0782,0.6783,8.2898,27.8918,0.6611,-0.5227,1.9057,-175.3202
15:46:42:901,-1.4563,0.5289,8.6466,28.2275,0.0266,-0.5025,1.9611,-175.9441
15:46:42:936,-0.9434,0.2213,9.194,28.0934,-0.3428,-0.0373,1.8834,-176.6111
15:46:42:941,-0.7839,-0.0007,9.3681,28.157,-0.4099,0.5313,1.7801,-177.3258
15:46:42:962,-1.0921,0.0443,8.882,28.3463,-0.2374,0.8975,1.7226,-178.0881
15:46:42:980,-1.3906,0.3863,8.2502,28.6215,-0.0373,0.7314,1.7375,-178.8811
15:46:43:001,-1.3593,0.6681,7.8931,28.5097,0.1778,0.1086,1.8088,-179.7076
15:46:43:020,-0.8714,0.8149,7.6751,28.9308,0.3577,-0.4365,1.8706,179.43
15:46:43:041,0.0938,0.8114,7.6085,29.0955,0.4046,-0.6292,1.8461,178.5284
15:46:43:061,1.1643,0.7463,7.7017,29.2353,0.3609,-0.4631,1.6183,177.5887
15:46:43:081,1.3511,0.8774,7.7226,29.2191,0.2896,-0.0202,1.235,176.6198
15:46:43:101,0.8328,0.9828,7.8372,29.2183,0.1235,0.3971,0.9816,175.6369
15:46:43:121,0.3027,0.8742,8.2162,28.8922,-0.0628,0.5834,0.9891,174.6496
15:46:43:141,0.1922,0.7335,8.6806,28.4968,-0.1682,0.4972,1.1158,173.6583
15:46:43:161,0.4188,0.7531,9.2892,28.5461,-0.2065,0.264,1.202,172.6595
15:46:43:181,0.6684,0.7541,9.7453,28.2551,-0.2374,0.132,1.2222,171.6504
15:46:43:201,0.754,0.9339,10.1565,28.2963,-0.3002,0.2119,1.1924,170.6256
15:46:43:220,0.4338,1.3393,10.7113,28.3601,-0.4397,0.4035,1.2158,169.596
15:46:43:241,0.0817,1.9637,11.504,28.5542,-0.4993,0.6643,1.4139,168.5545
15:46:43:261,0.2586,2.2112,12.0174,28.4584,-0.3556,0.9539,1.6321,167.492
15:46:43:281,0.5044,2.3626,11.9851,28.5628,-0.0351,0.9827,1.6406,166.402
15:46:43:301,0.1448,2.8693,11.6082,28.6333,0.28,0.6026,1.4415,165.2885
15:46:43:321,-0.4929,2.9526,11.069,28.6905,0.3151,0.1554,1.1892,164.1622
15:46:43:342,-0.7996,2.0576,10.9384,29.0669,0.0798,0.0319,1.0167,163.0323
15:46:43:361,-0.8372,0.8684,11.1331,29.4408,-0.1288,0.2364,0.9486,161.9028
15:46:43:381,-1.0262,0.28,11.0927,29.9818,-0.0926,0.4067,0.9081,160.7737
15:46:43:400,-1.2243,0.4219,10.5357,30.4535,0.0458,0.2864,0.8719,159.6437
15:46:43:420,-1.0304,0.4933,9.985,30.8784,-0.0149,-0.1107,0.8113,158.5227
15:46:43:442,-0.4633,0.05,9.9172,31.0222,-0.2779,-0.3481,0.6856,157.4118
15:46:43:461,-0.3529,-0.3513,10.1588,31.4248,-0.3918,-0.1256,0.5813,156.312
15:46:43:481,-0.5345,-0.418,9.8171,31.3091,-0.1735,0.33,0.626,155.2216
15:46:43:501,-0.6804,-0.1067,8.7485,31.4743,0.2055,0.7463,0.8006,154.1356
15:46:43:521,-0.7327,0.3558,7.3703,31.3281,0.4599,0.8123,0.9326,153.0503
15:46:43:541,-0.7536,0.953,6.3056,31.1804,0.5057,0.5919,0.9667,151.9649
15:46:43:561,-0.8824,1.2565,5.8996,31.1098,0.3716,0.2151,0.9348,150.8813
15:46:43:581,-0.7645,1.0704,6.2338,31.0721,0.1799,-0.0937,0.9486,149.8007
15:46:43:600,-0.3535,0.7886,6.9735,30.9562,-0.0287,-0.165,0.9465,148.7218
15:46:43:621,-0.249,0.792,8.0608,30.9997,-0.2278,-0.0798,0.8815,147.6448
15:46:43:641,-0.1027,0.8973,9.0038,30.9003,-0.3599,0.0628,0.7389,146.5716
15:46:43:661,0.0875,0.6831,9.9649,30.9785,-0.4684,0.0958,0.5174,145.5079
15:46:43:681,0.0725,0.4081,10.8169,30.9297,-0.4546,0.198,0.3364,144.4573
15:46:43:701,-0.4082,0.292,11.4977,30.9062,-0.2949,0.3716,0.28,143.4274
15:46:43:721,-0.7755,0.3935,11.5197,30.7072,-0.1086,0.4887,0.3705,142.4158
15:46:43:741,-0.6331,0.5456,11.2241,30.8325,-0.1405,0.4024,0.4344,141.4214
15:46:43:761,-0.4178,0.9626,11.2933,30.7756,-0.3726,0.2992,0.4525,140.4419
15:46:43:781,-0.3234,1.4152,11.9789,30.9706,-0.4855,0.2555,0.5057,139.479
15:46:43:801,-0.1475,1.6193,12.3562,31.6191,-0.3205,0.2513,0.5132,138.5226
15:46:43:824,-0.1419,1.7359,12.0102,31.7489,-0.1384,0.2033,0.3758,137.5782
15:46:43:842,-0.3272,1.6118,11.5911,31.8775,-0.2033,0.1693,0.1682,136.6503
15:46:43:861,-0.7324,1.2581,11.6426,32.3355,-0.3215,0.3439,0.0415,135.7473
15:46:43:881,-1.0555,0.9929,11.7618,32.3075,-0.2076,0.5291,0.1938,134.867
15:46:43:901,-0.6024,0.8925,11.482,32.5359,0.0862,0.5451,0.4472,133.9997
15:46:43:922,0.3518,0.7943,10.9847,32.9335,0.2608,0.1789,0.4046,133.1428
15:46:43:942,0.8565,0.4654,10.82,33.1094,0.1416,-0.4354,0.0745,132.3037
15:46:43:961,0.907,0.0551,10.5974,32.7551,0.0192,-0.5675,-0.1746,131.4916
15:46:43:981,0.6678,-0.3386,10.0374,32.7608,0.0916,-0.1022,-0.2651,130.7093
15:46:44:001,0.0794,-0.2729,9.0341,32.6404,0.2832,0.4823,-0.1618,129.9558
15:46:44:022,-0.3328,0.0512,7.9652,32.4289,0.4482,0.7304,0.0192,129.2273
15:46:44:042,-0.531,0.3691,6.9097,32.6034,0.5398,0.6367,0.1427,128.5191
15:46:44:061,-0.3951,0.5025,6.3204,32.7978,0.5866,0.3428,0.1586,127.8283
15:46:44:081,-0.3105,0.7253,5.8768,32.8056,0.5802,0.0543,0.0756,127.1559
15:46:44:104,-0.4555,1.0461,5.6385,33.0169,0.5153,-0.1182,0.0277,126.5043
15:46:44:121,-0.5808,1.2491,5.4596,33.0571,0.3641,-0.2332,0.0075,125.8748
15:46:44:142,-0.3868,1.5501,5.4231,33.0795,0.0224,-0.4525,-0.0586,125.2692
15:46:44:161,-0.358,1.7099,6.274,33.0895,-0.494,-0.7176,-0.1363,124.6902
15:46:44:181,-0.8433,1.4185,8.4696,32.8765,-0.8496,-0.7878,-0.0713,124.1358
15:46:44:203,-1.16,1.0375,10.6498,32.4647,-0.6824,-0.5015,0.2033,123.5946
15:46:44:221,-0.9885,0.7853,11.6858,32.0754,-0.2012,-0.0383,0.5462,123.0527
15:46:44:242,-0.523,0.959,12.0099,32.4778,0.1075,0.2204,0.7602,122.5019
15:46:44:261,-0.1181,1.2775,12.2842,32.5803,0.0596,0.1746,0.7559,121.9418
15:46:44:281,-0.1637,1.8001,12.804,32.8676,-0.0948,0.1256,0.6462,121.3752
15:46:44:303,-0.5316,1.965,13.1006,33.4186,-0.0277,0.4312,0.7378,120.8019
15:46:44:321,-0.7142,2.0659,12.6596,33.7488,0.2002,0.8517,0.9539,120.2154
15:46:44:341,-0.5513,2.274,11.8997,33.5888,0.3077,0.8475,0.938,119.6125
15:46:44:360,-0.3648,2.1199,11.2525,33.9911,0.2981,0.4493,0.6516,118.9989
15:46:44:381,-0.4035,1.5104,10.5211,34.2371,0.4131,0.1959,0.3801,118.3835
15:46:44:401,-0.3521,0.7202,9.5062,34.1167,0.5291,0.0798,0.2268,117.7753
15:46:44:421,-0.4623,0.3956,8.592,34.0406,0.4812,-0.083,0.083,117.1805
15:46:44:441,-0.5347,0.3216,8.2934,34.1373,0.2151,-0.4301,-0.0266,116.6059
15:46:44:460,-0.2677,-0.0681,8.7082,34.1602,-0.1672,-0.7218,-0.1384,116.0547
15:46:44:482,-0.1143,-0.6034,9.681,34.413,-0.4929,-0.8059,-0.2534,115.5291
15:46:44:502,-0.0606,-0.9697,10.3192,34.5392,-0.5291,-0.5036,-0.296,115.028
15:46:44:521,-0.3318,-0.9629,9.9557,34.7584,-0.2832,0.0649,-0.2683,114.5487
15:46:44:542,-0.8269,-0.4579,8.9433,34.7795,0.0128,0.4876,-0.1022,114.0881
15:46:44:561,-1.188,0.346,7.9279,34.7805,0.1629,0.5611,0.1448,113.6413
15:46:44:583,-1.2252,1.0976,7.3289,34.7867,0.1799,0.3716,0.3684,113.2012
15:46:44:601,-0.8393,1.4475,7.1008,34.5178,0.2172,0.2108,0.4748,112.7595
15:46:44:622,-0.3331,1.373,6.9124,34.535,0.2672,0.1182,0.4131,112.3158
15:46:44:641,-0.1946,1.4854,6.9002,34.6686,0.1895,-0.0607,0.2491,111.8736
15:46:44:661,-0.2523,1.5926,7.5552,34.824,-0.0011,-0.28,0.0916,111.4401
15:46:44:682,-0.3184,1.4533,8.5691,35.06,-0.1331,-0.3492,-0.0064,111.0189
15:46:44:701,-0.1639,0.8923,9.7237,35.0296,-0.1448,-0.329,-0.0884,110.6109
15:46:44:721,-0.1809,0.5524,10.9503,34.8931,-0.2236,-0.3386,-0.197,110.2197
15:46:44:741,-0.3122,0.8139,12.1731,35.0296,-0.3524,-0.2832,-0.2992,109.8489
15:46:44:761,-0.3905,0.9618,12.9097,35.1368,-0.379,-0.0532,-0.3992,109.5002
15:46:44:781,-0.581,1.1906,13.3383,35.4232,-0.3045,0.1789,-0.4131,109.1747
15:46:44:801,-0.8078,1.5948,13.3555,35.7107,-0.0841,0.3024,-0.2598,108.8701
15:46:44:821,-0.5269,1.8687,12.8218,35.8413,0.1757,0.3162,-0.0958,108.5782
15:46:44:841,-0.0684,1.8548,12.0265,35.9846,0.3311,0.2938,-0.0862,108.2967
15:46:44:861,0.1516,1.5487,11.2054,36.203,0.4408,0.3141,-0.1799,108.027
15:46:44:881,0.1471,1.0841,10.1511,36.2628,0.5973,0.3428,-0.2406,107.7721
15:46:44:901,0.2971,0.6423,8.8008,35.924,0.6548,0.1629,-0.2715,107.5369
15:46:44:921,0.3861,0.2735,7.7989,35.7889,0.3662,-0.2715,-0.362,107.3213
15:46:44:966,0.3888,0.214,7.6585,35.3877,-0.1171,-0.6377,-0.3801,107.1312
15:46:44:967,0.6261,0.0116,7.8401,35.1622,-0.4546,-0.576,-0.2853,106.9622
15:46:44:980,0.8441,-0.3984,8.2958,35.1908,-0.7165,-0.3364,-0.3183,106.8097
15:46:45:001,0.3912,-0.3135,9.0622,34.8126,-0.8656,-0.1203,-0.3929,106.6737
15:46:45:021,-0.382,0.012,9.4296,34.6636,-0.6175,0.1767,-0.3077,106.5503
15:46:45:041,-0.7823,0.1838,8.7995,34.7132,-0.1065,0.4078,-0.116,106.4326
15:46:45:061,-0.9214,0.6277,7.6945,34.628,0.2694,0.3726,0.0937,106.3164
15:46:45:081,-0.7139,1.3018,6.8244,34.7684,0.3684,0.1352,0.2715,106.1984
15:46:45:100,-0.3462,1.7981,6.5407,34.7524,0.2853,-0.0617,0.3141,106.076
15:46:45:120,0.1744,1.9344,6.6459,35.0449,0.1416,-0.1171,0.2332,105.9492
15:46:45:141,0.5517,1.7664,7.1317,34.8413,-0.0277,-0.0575,0.0873,105.8214
15:46:45:161,0.3496,1.7525,7.8598,34.9057,-0.2097,0.0692,-0.0575,105.6978
15:46:45:181,-0.1756,1.8549,9.0716,34.9126,-0.3481,0.0639,-0.0639,105.5812
15:46:45:201,-0.4967,1.9197,10.2584,34.938,-0.3194,0.0543,0.0405,105.468
15:46:45:220,-0.6008,1.9556,11.0253,34.933,-0.2119,0.082,0.1565,105.3537
15:46:45:244,-0.6192,1.913,11.6131,35.1814,-0.1916,0.0756,0.2736,105.2356
15:46:45:261,-0.5894,1.9395,12.4249,34.9585,-0.2353,0.0341,0.3769,105.1105
15:46:45:281,-0.5339,1.9943,13.3459,35.1068,-0.2257,0.1033,0.4791,104.9744
15:46:45:301,-0.551,2.089,13.7627,35.1493,-0.0724,0.395,0.6069,104.8222
15:46:45:321,-0.3634,1.919,13.4699,35.4082,0.1735,0.6079,0.6154,104.6503
15:46:45:343,-0.4664,1.4566,12.8164,35.421,0.3886,0.3907,0.4173,104.4625
15:46:45:361,-0.6234,0.7528,11.9231,35.5968,0.56,0.017,0.1789,104.2681
15:46:45:381,-0.475,-0.1272,10.7565,35.6518,0.6175,-0.2438,0.0011,104.0766
15:46:45:401,-0.4504,-0.6438,9.8328,35.4848,0.5259,-0.3354,-0.1065,103.8967
15:46:45:421,-0.6513,-0.7036,9.3752,35.553,0.3045,-0.3545,-0.1118,103.7284
15:46:45:443,-0.6646,-0.7263,9.2638,35.1302,0.0298,-0.3577,-0.0639,103.5723
15:46:45:461,-0.4518,-1.0246,9.1913,34.7466,-0.1682,-0.23,-0.0564,103.425
15:46:45:481,-0.5289,-1.0165,8.9164,34.5571,-0.2321,0.0106,-0.0554,103.2844
15:46:45:501,-0.8886,-0.6037,8.2522,34.2713,-0.1427,0.2747,0.0511,103.1477
15:46:45:521,-1.1737,0.0621,7.3156,33.9358,0.0437,0.4269,0.2885,103.0085
15:46:45:543,-1.1545,0.7499,6.4865,34.0181,0.2364,0.362,0.5536,102.8598
15:46:45:562,-0.6404,1.2166,5.8478,33.8034,0.3279,0.1118,0.691,102.6944
15:46:45:581,-0.07,1.5781,5.8099,33.7899,0.1884,-0.2513,0.5877,102.5129
15:46:45:601,0.0681,1.8484,6.63,33.7316,-0.0043,-0.4642,0.4067,102.319
15:46:45:621,0.1922,1.7226,7.7596,33.9141,-0.0735,-0.4695,0.2278,102.1206
15:46:45:643,0.1985,1.3855,8.7909,33.6688,-0.0905,-0.3492,0.0617,101.9221
15:46:45:661,0.0057,1.3035,9.8134,33.7422,-0.0586,-0.1661,-0.0128,101.7279
15:46:45:680,-0.044,1.2798,10.2936,33.6612,0.0096,0.0256,-0.0905,101.54
15:46:45:700,-0.0669,1.21,10.4275,33.5927,-0.0415,0.0373,-0.2033,101.3627
15:46:45:723,-0.1419,1.1163,10.8364,33.4367,-0.231,-0.0309,-0.3045,101.2003
15:46:45:741,-0.5106,1.3296,11.6164,33.5468,-0.3982,-0.0117,-0.3641,101.0553
15:46:45:761,-1.025,1.7662,12.3922,33.3964,-0.445,0.0703,-0.2875,100.9265
15:46:45:781,-1.0861,2.0495,12.7385,33.3212,-0.3396,0.2694,-0.0777,100.8075
15:46:45:800,-0.4233,2.0331,12.1763,33.4652,-0.2949,0.4301,-0.0032,100.6922
15:46:45:822,-0.1321,1.7056,12.0089,33.6082,-0.4653,0.3194,-0.1916,100.5827
15:46:45:842,-0.5151,0.9836,12.6903,33.7917,-0.428,0.1097,-0.2928,100.4827
15:46:45:861,-0.6716,-0.0868,12.7376,33.9725,0.0309,0.1118,-0.164,100.3888
15:46:45:881,-0.6066,-0.7949,11.641,34.3778,0.5643,0.1799,0.0969,100.2955
15:46:45:901,-0.2768,-0.8402,10.0094,34.4081,0.7804,0.0522,0.2832,100.2005
15:46:45:922,0.3468,-0.6459,8.6695,34.2533,0.4951,-0.1842,0.3002,100.1024
15:46:45:942,0.8286,-0.4479,8.1736,34.2894,-0.0511,-0.2044,0.181,100.0051
15:46:45:961,0.814,-0.2696,8.3899,34.1766,-0.4269,0.0894,0.0415,99.9097
15:46:45:981,0.3776,0.0839,8.5322,34.181,-0.4642,0.4227,-0.0192,99.8157
15:46:46:001,-0.0253,0.479,8.2518,34.0975,-0.2395,0.5302,0.017,99.7202
15:46:46:021,-0.0409,0.7379,7.6014,34.4833,0.0319,0.3811,0.0564,99.6236
15:46:46:041,-0.0378,1.0324,6.9555,34.5673,0.2129,0.082,0.0437,99.5261
15:46:46:061,-0.0579,1.3106,6.7585,34.7541,0.3077,-0.2161,0.0106,99.4301
15:46:46:081,-0.0295,1.3587,6.765,35.0879,0.2981,-0.3109,-0.0192,99.3381
15:46:46:103,-0.0034,1.5509,7.0065,35.3929,0.2193,-0.2332,-0.0064,99.3381
15:46:46:122,0.1557,1.6725,7.4586,35.6709,0.0916,-0.164,-0.016,99.3381
15:46:46:142,0.1083,1.7484,8.5262,35.7656,-0.0745,-0.2757,-0.0373,99.3381
15:46:46:161,-0.3322,1.7453,9.9292,35.8544,-0.1001,-0.263,0.016,99.3381
15:46:46:181,-0.7044,2.0188,10.8521,36.0513,0.0586,-0.0639,0.198,99.3381
15:46:46:203,-0.4566,2.1432,11.1097,36.0448,0.1735,0.0894,0.378,99.2438
15:46:46:221,-0.1333,2.53,11.3465,36.3925,0.0649,0.1129,0.3897,99.1404
15:46:46:242,-0.1307,2.7512,12.0875,36.8051,-0.1405,0.0862,0.3077,99.0297
15:46:46:261,-0.2568,2.748,12.9583,37.0996,-0.1852,0.1586,0.3354,98.9118
15:46:46:280,-0.0365,2.6607,13.0663,37.307,-0.0511,0.3652,0.3811,98.7833
15:46:46:302,0.3894,2.4192,12.5812,37.7194,-0.0192,0.4301,0.1459,98.6466
15:46:46:321,0.0107,1.583,12.4871,37.6002,-0.0671,0.2491,-0.3119,98.5136
15:46:46:341,-0.7567,0.2235,12.2565,37.8354,0.1192,0.1789,-0.6111,98.3966
15:46:46:360,-1.3843,-0.8643,11.0937,38.116,0.4493,0.3588,-0.6356,98.3022
15:46:46:380,-1.8354,-0.9546,9.771,38.5945,0.5941,0.3418,-0.4408,98.3022
15:46:46:401,-1.8891,-0.6869,8.7766,38.9248,0.4354,0.0117,-0.2268,98.3022
15:46:46:421,-1.5293,-0.5223,8.2068,39.4661,0.1906,-0.2555,-0.1565,98.3022
15:46:46:441,-1.0829,-0.4853,7.9933,39.6234,-0.0149,-0.3407,-0.1938,98.3022
15:46:46:461,-1.0833,-0.2155,7.6722,39.5594,-0.0767,-0.2672,-0.2587,98.3022
15:46:46:483,-1.3065,0.2173,7.0298,39.7336,-0.0383,-0.0458,-0.2406,98.3022
15:46:46:501,-1.3894,0.5563,6.4045,39.6889,-0.0426,0.1256,-0.1288,98.3022
15:46:46:521,-1.4695,0.8128,6.3194,39.9461,-0.1214,-0.0106,0.0309,98.3022
15:46:46:542,-1.3024,1.1523,6.7407,40.3368,-0.1139,-0.2694,0.2065,98.3022
15:46:46:561,-0.7771,1.2489,7.2578,40.7686,0.0106,-0.4333,0.2662,98.3022
15:46:46:583,-0.2944,1.2599,7.6584,40.8814,0.1395,-0.4706,0.1459,98.3022
15:46:46:601,-0.1926,1.3486,8.0819,41.1636,0.132,-0.4152,-0.0596,98.3022
15:46:46:621,-0.305,0.9875,8.8582,41.1571,-0.0873,-0.363,-0.2332,98.3022
15:46:46:641,-0.6973,0.828,9.9916,41.3367,-0.2694,-0.0894,-0.2204,98.3022
15:46:46:661,-0.7166,0.2961,10.6695,41.5857,-0.2129,0.3801,-0.0394,98.3022
15:46:46:682,-0.4815,-0.2195,10.9392,42.0371,-0.1086,0.7719,0.1661,98.3022
15:46:46:701,-0.4508,0.2529,11.116,42.5948,-0.1693,0.8134,0.1427,98.3022
15:46:46:721,-0.8249,1.1576,11.4974,43.2262,-0.3705,0.5036,-0.115,98.3022
15:46:46:741,-1.2027,1.3829,11.8162,43.5565,-0.3705,0.2917,-0.2161,98.3022
15:46:46:762,-1.3397,1.4239,11.5858,43.8998,-0.1512,0.2427,-0.1224,98.3022
15:46:46:781,-1.1291,1.7985,11.114,44.4691,0.0224,0.1075,0.0128,98.3022
15:46:46:801,-0.5458,1.8701,10.9144,44.5288,0.0011,-0.1714,0.0053,98.3022
15:46:46:821,-0.0509,1.4389,11.0398,44.94,-0.0554,-0.3705,-0.1884,98.3022
15:46:46:841,-0.0423,0.6725,11.0059,45.4357,-0.0351,-0.3332,-0.3929,98.3022
15:46:46:864,-0.1701,0.0949,10.6747,45.673,-0.0085,-0.2821,-0.4738,98.3022
15:46:46:881,-0.2768,-0.2174,10.3997,45.927,-0.1416,-0.3545,-0.4695,98.3022
15:46:46:902,-0.3406,-0.1938,10.3468,46.127,-0.3471,-0.3705,-0.4078,98.3022
15:46:46:921,-0.2732,-0.1326,10.2471,46.1246,-0.4163,-0.214,-0.3481,98.3022
15:46:46:942,-0.2419,0.054,9.7294,46.4212,-0.2757,0.016,-0.2906,98.3022
15:46:46:984,-0.3235,0.4243,8.8839,46.5054,0.0437,0.2002,-0.2044,98.3022
15:46:46:986,-0.3566,0.7863,7.6387,46.4985,0.3886,0.2651,-0.0969,98.3022
15:46:47:000,-0.3699,1.154,6.5768,46.8851,0.5547,0.1427,-0.0266,98.3022
15:46:47:021,-0.4067,1.5045,5.9437,47.1146,0.5217,-0.0245,-0.0011,98.3022
15:46:47:041,-0.4422,1.7219,5.7155,47.2905,0.3737,-0.0979,-0.0224,98.3022
15:46:47:061,-0.4792,1.8656,6.0177,47.7347,0.1011,-0.1863,-0.0841,98.3022
15:46:47:081,-0.2435,1.7889,7.0187,47.9183,-0.2417,-0.4365,-0.1448,98.399
15:46:47:101,-0.1593,1.4182,8.5396,48.4479,-0.4631,-0.609,-0.198,98.4998
15:46:47:120,-0.3996,1.1904,10.1098,48.4076,-0.4333,-0.4887,-0.165,98.6026
15:46:47:141,-0.7208,1.1366,11.1165,48.6766,-0.2108,-0.0468,0.0554,98.7024
15:46:47:160,-0.7818,1.3033,11.5153,48.6997,-0.0064,0.3322,0.3758,98.7024
15:46:47:181,-0.6371,1.7334,11.7744,49.0727,-0.0319,0.2843,0.5589,98.7024
15:46:47:201,-0.5629,2.112,12.6736,49.7596,-0.1948,-0.0085,0.6122,98.7024
15:46:47:221,-0.396,2.1505,13.6601,50.3259,-0.1405,-0.0309,0.724,98.7024
15:46:47:244,-0.2328,1.999,13.8494,50.7978,0.1906,0.1895,0.8155,98.7024
15:46:47:262,-0.2349,1.8317,13.242,50.8765,0.56,0.2715,0.7335,98.7024
15:46:47:281,-0.5449,1.627,12.2196,51.0491,0.7548,0.016,0.4951,98.7024
15:46:47:301,-0.5874,0.9605,11.1913,51.067,0.7815,-0.3215,0.2342,98.7024
15:46:47:321,-0.6012,0.1889,10.346,51.3734,0.6633,-0.5302,0.0298,98.7024
15:46:47:342,-0.6578,-0.0862,9.8294,51.3338,0.4642,-0.5142,-0.0564,98.7024
15:46:47:363,-0.5022,-0.1938,9.3999,51.3954,0.2129,-0.3599,-0.0724,98.7024
15:46:47:381,-0.1719,-0.3325,9.1807,51.2174,-0.0564,-0.1906,-0.1267,98.7024
15:46:47:401,0.0352,-0.3413,8.9667,50.9967,-0.2832,-0.0458,-0.263,98.7024
15:46:47:421,-0.0181,-0.2669,8.6115,51.2319,-0.3875,0.0745,-0.4312,98.7024
15:46:47:443,-0.3853,-0.1671,7.9309,51.2082,-0.3215,0.2843,-0.4887,98.7024
15:46:47:462,-0.8035,-0.0089,7.0793,51.2107,-0.1501,0.4983,-0.3279,98.7024
15:46:47:481,-0.8892,0.2475,6.3081,51.3466,0.0064,0.477,-0.0064,98.7024
15:46:47:501,-0.8485,0.9123,6.0392,51.634,0.0777,0.3109,0.3237,98.7024
15:46:47:521,-0.4253,1.1708,6.6223,51.5707,0.1065,-0.1065,0.4152,98.7024
15:46:47:542,0.0391,1.325,7.4817,51.7438,0.1288,-0.4972,0.2214,98.7024
15:46:47:561,-0.1413,1.7587,8.4059,51.879,0.1395,-0.5696,-0.1065,98.7024
15:46:47:581,-0.5818,1.7185,9.2067,51.8388,0.1363,-0.3439,-0.2757,98.7024
15:46:47:601,-0.8235,1.2732,9.7496,51.8747,0.1906,0.0852,-0.1927,98.7024
15:46:47:621,-0.9215,1.1959,9.928,51.9779,0.2779,0.4365,0.0192,98.7024
15:46:47:641,-0.6242,1.6718,10.0976,51.9925,0.2278,0.3418,0.1299,98.7024
15:46:47:661,-0.2503,2.1163,10.6345,51.9921,-0.0287,-0.1011,-0.0458,98.7024
15:46:47:680,-0.3207,2.1522,11.5837,51.7206,-0.2843,-0.2598,-0.2566,98.7024
15:46:47:700,-0.6977,1.848,12.6062,51.6289,-0.3279,0.0437,-0.2332,98.7024
15:46:47:722,-0.7803,1.7206,12.8418,51.3863,-0.1554,0.4173,-0.0106,98.7024
15:46:47:741,-0.4765,1.6079,12.4123,51.3652,-0.0224,0.4802,0.1778,98.7024
15:46:47:761,-0.1456,1.5285,12.2091,51.3574,0.066,0.2076,0.2385,98.7024
15:46:47:780,0.1531,1.1897,11.9733,51.3574,0.3396,-0.0841,0.2044,98.7024
15:46:47:800,0.4299,0.7857,11.0654,51.3093,0.6643,-0.2417,0.1011,98.7024
15:46:47:823,0.4916,0.5897,9.7471,51.0677,0.7357,-0.33,-0.0468,98.7024
15:46:47:841,0.5888,0.2249,8.8269,50.3895,0.3801,-0.4482,-0.197,98.7024
15:46:47:861,0.6886,-0.0166,8.5102,49.9262,-0.181,-0.4014,-0.28,98.7024
15:46:47:881,0.6875,-0.2506,8.4912,49.6992,-0.5824,-0.1693,-0.3173,98.7024
15:46:47:901,0.4811,0.038,8.3967,49.4245,-0.7069,0.0873,-0.3098,98.7024
15:46:47:921,0.194,0.5735,7.9798,49.389,-0.5664,0.296,-0.2065,98.7024
15:46:47:941,0.0101,0.8627,7.2791,49.6271,-0.3002,0.3662,-0.0809,98.7024
15:46:47:961,-0.1528,1.1843,6.7223,49.402,-0.0692,0.2055,0,98.7024
15:46:47:980,-0.3594,1.6207,6.4321,49.2638,0.0777,-0.0287,0.049,98.7024
15:46:48:001,-0.4898,1.977,6.3716,49.3214,0.1107,-0.1512,0.1086,98.7024
15:46:48:020,-0.4308,2.0624,6.5654,49.3211,0.0149,-0.1852,0.1597,98.7024
15:46:48:041,-0.0341,2.0282,7.3091,49.1069,-0.2033,-0.297,0.1469,98.7024
15:46:48:060,0.1083,1.8147,8.6245,49.1913,-0.412,-0.23,0.0873,98.7024
15:46:48:081,-0.3244,1.5511,10.2752,49.2096,-0.4227,-0.0415,0.131,98.7024
15:46:48:103,-0.8172,1.577,11.3035,48.9801,-0.1938,0.296,0.3386,98.7024
15:46:48:121,-0.9681,2.1054,11.7021,48.884,0.0149,0.4748,0.5994,98.7024
15:46:48:142,-0.5312,2.4915,11.9986,48.7386,0.0383,0.3811,0.675,98.7024
15:46:48:161,-0.044,2.4495,12.4255,48.6347,-0.0628,0.1725,0.5419,98.7024
15:46:48:181,-0.1082,2.2771,13.1221,48.5768,-0.1054,0.1267,0.4738,98.7024
15:46:48:202,-0.4281,3.0587,13.7165,48.8117,-0.0256,0.3396,0.5376,98.7024
15:46:48:221,-0.3102,3.6206,14.1359,48.9207,0.0607,0.4727,0.4216,98.5933
15:46:48:242,-0.2783,2.7212,14.3128,48.7992,0.2992,0.3694,0.0383,98.4736
15:46:48:261,-0.4909,0.6897,13.207,48.443,0.7676,0.4131,-0.2694,98.3553
15:46:48:281,-1.2091,-0.7606,11.3791,48.0842,1.1328,0.4227,-0.3716,98.2508
15:46:48:303,-1.9378,-0.9458,9.535,48.1275,1.268,0.2566,-0.1938,98.2508
15:46:48:321,-2.101,-0.7299,8.036,48.0651,1.071,-0.1097,0.1086,98.2508
15:46:48:341,-1.5571,-0.35,7.1668,48.0699,0.6643,-0.4716,0.3758,98.2508
15:46:48:361,-0.6088,-0.1248,6.7554,47.8794,0.2534,-0.5589,0.4248,98.2508
15:46:48:381,0.13,-0.0617,6.7056,47.6791,-0.0543,-0.5206,0.2502,98.1603
15:46:48:402,0.069,0.193,6.8492,47.7839,-0.1916,-0.4024,0.0245,98.0671
15:46:48:422,-0.4603,0.6609,6.9447,47.6279,-0.1224,-0.2374,-0.0777,97.977
15:46:48:442,-1.107,0.9655,6.7721,47.697,0.066,-0.0852,0.0809,97.977
15:46:48:461,-1.0394,1.2641,6.5414,47.4897,0.2023,-0.1735,0.3854,97.882
15:46:48:483,-0.3324,1.5822,6.3583,47.2125,0.2353,-0.2289,0.6239,97.7733
15:46:48:501,0.1587,2.1253,6.536,47.156,0.1842,-0.1576,0.6207,97.6468
15:46:48:521,0.399,2.6036,7.0843,47.1993,0.0607,-0.1469,0.3971,97.5057
15:46:48:541,0.3809,2.6892,7.8545,47.253,-0.0948,-0.2406,0.0798,97.3596
15:46:48:560,0.2721,2.6843,8.5878,47.0102,-0.2183,-0.2598,-0.1501,97.219
15:46:48:582,0.0082,2.7993,9.4341,47.2273,-0.2608,-0.148,-0.2097,97.0893
15:46:48:601,0.039,2.8971,10.3255,46.8431,-0.3024,-0.0543,-0.2183,96.9712
15:46:48:621,0.2399,2.8688,11.0678,46.9739,-0.4631,-0.0543,-0.3386,96.8666
15:46:48:641,0.0666,2.7989,12.17,46.7554,-0.6622,-0.0852,-0.4674,96.8666
15:46:48:660,-0.3387,2.5324,13.605,46.5338,-0.6835,-0.1267,-0.379,96.8666
15:46:48:681,-0.3801,2.4286,14.5798,46.6095,-0.3577,-0.0437,-0.0894,96.8666
15:46:48:701,0.174,2.2284,14.3713,46.712,0.165,0.148,0.116,96.8666
15:46:48:721,0.6298,1.7955,13.2309,46.8999,0.5568,0.3034,0.0309,96.8666
15:46:48:741,0.3936,1.5029,11.7057,46.921,0.7144,0.4078,-0.1852,96.8666
15:46:48:760,0.0353,0.9366,10.4418,46.9731,0.7304,0.3801,-0.3396,96.8666
15:46:48:781,-0.1757,0.3588,9.3177,46.8465,0.6697,0.2875,-0.3982,96.8666
15:46:48:801,-0.2258,0.0774,8.5266,46.5109,0.4663,0.1288,-0.3535,96.8666
15:46:48:821,-0.0099,0.0026,8.112,46.2904,0.0788,-0.0724,-0.3013,96.8666
15:46:48:841,0.0735,0.3774,8.0441,46.1767,-0.3503,-0.1097,-0.2981,96.8666
15:46:48:863,-0.0866,0.9344,7.9486,46.1916,-0.6143,0.1256,-0.3045,96.8666
15:46:48:881,-0.2779,1.372,7.7353,45.9943,-0.6739,0.3503,-0.2885,96.8666
15:46:48:901,-0.3977,1.5432,7.3273,45.7989,-0.5632,0.411,-0.2427,96.8666
15:46:48:921,-0.5884,1.7079,7.0302,45.9882,-0.4024,0.2757,-0.1884,96.8666
15:46:48:941,-0.7669,2.087,7.0118,46.1533,-0.1884,0.0117,-0.0852,96.8666
15:46:48:963,-0.5761,2.1478,6.9545,46.4915,0.0479,-0.1203,0.0096,96.8666
15:46:49:003,-0.2978,2.1829,6.9929,46.8834,0.1725,-0.2459,0.0394,96.8666
15:46:49:005,-0.1322,2.3655,7.1904,46.9769,0.1746,-0.3918,0.0064,96.8666
15:46:49:020,-0.2022,2.6091,7.6243,46.9615,0.0735,-0.5781,-0.0437,96.8666
15:46:49:041,-0.2333,2.6662,8.2961,47.0085,-0.0681,-0.7218,-0.0532,96.8666
15:46:49:061,-0.1215,2.4603,9.1403,47.3241,-0.1863,-0.6271,0.0149,96.8666
15:46:49:081,-0.0823,2.3587,10.1454,47.4763,-0.2395,-0.2885,0.1501,96.8666
15:46:49:101,-0.1291,2.5963,10.8989,47.4577,-0.2364,0.0958,0.329,96.8666
15:46:49:120,-0.029,2.8376,11.688,47.5297,-0.2694,0.2289,0.4184,96.8666
15:46:49:143,0.0078,2.9226,12.5494,47.4373,-0.3098,0.1246,0.3609,96.8666
15:46:49:161,-0.0269,2.8081,13.3495,47.2607,-0.214,0.0266,0.3279,96.8666
15:46:49:181,-0.0967,2.7069,13.6869,47.231,0.0479,0.1278,0.4163,96.8666
15:46:49:201,-0.0979,2.5801,13.4369,47.184,0.3588,0.2832,0.4993,96.8666
15:46:49:221,0.0289,2.0725,12.7274,47.5045,0.56,0.1948,0.3588,96.8666
15:46:49:243,0.1024,0.946,11.8582,47.9514,0.5792,-0.1341,0.0639,96.8666
15:46:49:261,-0.0216,-0.218,10.9655,47.9702,0.5856,-0.2992,-0.1246,96.8666
15:46:49:281,-0.2662,-0.8846,10.0198,48.1592,0.6356,-0.2236,-0.1214,96.8666
15:46:49:301,-0.6125,-0.7293,8.9096,47.9427,0.5919,-0.0607,0.0532,96.8666
15:46:49:322,-0.579,-0.0815,7.9831,47.7986,0.3662,0.049,0.2779,96.8666
15:46:49:343,-0.1488,0.3594,7.3955,47.9425,-0.0053,0.0543,0.3492,96.8666
15:46:49:361,0.013,0.7953,7.0982,48.0673,-0.3673,0.0596,0.2502,96.8666
15:46:49:381,-0.2047,1.1251,6.9576,48.4338,-0.5323,0.2875,0.1725,96.8666
15:46:49:400,-0.4563,1.4108,6.6376,48.6373,-0.5249,0.5547,0.2268,96.7734
15:46:49:420,-0.5185,1.6915,6.4106,48.7771,-0.4589,0.6228,0.3375,96.6747
15:46:49:441,-0.3892,1.9077,6.4565,48.8039,-0.4088,0.3865,0.3801,96.5642
15:46:49:461,-0.2383,2.0956,6.9674,48.5757,-0.2736,-0.0798,0.3183,96.4404
15:46:49:481,-0.0066,2.2525,7.5775,48.6678,0.0181,-0.5366,0.1565,96.3054
15:46:49:500,0.2551,1.9253,8.0372,48.5482,0.2438,-0.8943,-0.0916,96.1679
15:46:49:520,0.4292,1.5634,8.5412,49.0179,0.1906,-1.038,-0.2906,96.0406
15:46:49:541,0.2156,1.4791,9.4168,49.1618,-0.0096,-0.7708,-0.329,95.9312
15:46:49:561,-0.08,1.6353,10.3607,49.2521,-0.1661,-0.1842,-0.2204,95.8394
15:46:49:580,-0.1082,2.1213,10.9716,49.4729,-0.2353,0.2704,-0.0532,95.8394
15:46:49:600,0.1546,2.4566,11.2412,49.2711,-0.3119,0.3971,-0.0586,95.8394
15:46:49:623,0.251,2.6861,11.7053,49.2783,-0.445,0.2023,-0.2364,95.8394
15:46:49:641,-0.0828,2.5237,12.7598,49.7309,-0.5046,-0.0075,-0.3513,95.8394
15:46:49:661,-0.599,2.457,13.6039,49.9499,-0.313,-0.0085,-0.2566,95.8394
15:46:49:681,-0.6352,2.3585,13.5656,50.3679,0.066,0.2002,-0.05,95.8394
15:46:49:701,-0.2177,1.9425,12.7965,50.1948,0.3449,0.3151,0.0383,95.8394
15:46:49:723,0.1278,1.4726,12.299,50.2687,0.4472,0.1001,-0.0373,95.8394
15:46:49:741,0.3414,0.8105,11.7822,49.9922,0.6005,-0.0724,-0.165,95.8394
15:46:49:761,0.414,0.1293,10.859,50.0993,0.7623,-0.0266,-0.2481,95.8394
15:46:49:781,0.4488,-0.2338,9.5877,49.7937,0.6878,0.0692,-0.2672,95.8394
15:46:49:801,0.668,-0.2906,8.5862,49.6263,0.2875,0.148,-0.2747,95.8394
15:46:49:822,0.7549,-0.1406,8.0463,49.5354,-0.2214,0.2587,-0.3279,95.8394
15:46:49:842,0.3951,0.3844,7.7947,49.3432,-0.5781,0.4834,-0.3833,95.8394
15:46:49:861,-0.1326,1.0177,7.568,49.4641,-0.6824,0.6686,-0.3215,95.8394
15:46:49:881,-0.4112,1.4058,7.1541,49.461,-0.5696,0.7101,-0.1672,95.8394
15:46:49:902,-0.4278,1.6122,6.7635,49.577,-0.3875,0.5408,-0.0405,95.8394
15:46:49:921,-0.3806,1.8705,6.6109,49.5317,-0.2172,0.1767,0.0096,95.8394
15:46:49:942,-0.3571,2.1124,6.7315,49.6039,-0.0394,-0.2715,0.0011,95.8394
15:46:49:961,-0.1827,2.0923,6.7549,49.7733,0.1033,-0.4461,-0.0437,95.8394
15:46:49:981,-0.1345,2.1295,6.896,50.0359,0.0298,-0.4216,-0.1011,95.8394
15:46:50:004,-0.1191,2.0694,7.5484,50.0885,-0.1884,-0.33,-0.1299,95.8394
15:46:50:021,-0.2077,1.951,8.5375,50.0116,-0.3822,-0.1618,-0.1001,95.8394
15:46:50:042,-0.4694,2.1007,9.6647,50.3685,-0.4205,0.016,0.0202,95.8394
15:46:50:061,-0.6618,2.3104,10.5769,50.2675,-0.2811,0.1054,0.1927,95.8394
15:46:50:081,-0.5416,2.5455,11.1678,50.5169,-0.1491,0.1139,0.3226,95.8394
15:46:50:103,-0.2684,2.8095,11.7931,50.7294,-0.1597,0.0405,0.3418,95.8394
15:46:50:121,-0.0344,2.8096,12.5861,50.5579,-0.2332,0.0351,0.2619,95.8394
15:46:50:142,-0.2534,2.8157,13.3808,50.5448,-0.1927,0.2278,0.2332,95.8394
15:46:50:161,-0.5695,2.8544,13.6274,50.6488,0.0958,0.5451,0.3503,95.8394
15:46:50:181,-0.7214,2.8543,13.2197,50.7545,0.4578,0.6356,0.3907,95.8394
15:46:50:202,-0.8337,2.4466,12.5285,50.8547,0.6665,0.2683,0.2002,95.8394
15:46:50:222,-0.7677,1.0521,11.7945,51.0238,0.7602,-0.2353,-0.0596,95.8394
15:46:50:242,-0.6454,-0.4752,10.9235,50.7854,0.8453,-0.4802,-0.231,95.8394
15:46:50:261,-0.7819,-1.2508,9.9136,50.6269,0.8837,-0.5419,-0.2704,95.8394
15:46:50:281,-0.9728,-1.3118,8.9505,50.2981,0.7229,-0.5068,-0.1852,95.8394
15:46:50:302,-0.8923,-1.1486,8.15,49.7721,0.3492,-0.3854,-0.0458,95.8394
15:46:50:322,-0.6528,-0.9399,7.6851,49.7317,-0.0916,-0.1831,0.0649,95.8394
15:46:50:341,-0.3544,-0.6356,7.3963,49.1572,-0.4493,0.0138,0.1224,95.8394
15:46:50:360,-0.3728,-0.1052,7.1243,48.8058,-0.5919,0.2097,0.1746,95.8394
15:46:50:380,-0.6038,0.6757,6.781,48.7649,-0.5398,0.379,0.3066,95.8394
15:46:50:401,-0.729,1.3641,6.5817,48.3872,-0.3971,0.3886,0.5015,95.8394
15:46:50:421,-0.5251,1.8181,6.5559,48.235,-0.2332,0.1831,0.6484,95.8394
15:46:50:441,-0.1872,2.1079,6.5699,48.0244,-0.0607,-0.0841,0.6377,95.8394
15:46:50:460,-0.0047,2.3656,6.6065,47.7547,0.0064,-0.3119,0.4525,95.7377
15:46:50:482,0.1198,2.6057,6.9696,47.8163,-0.0894,-0.5845,0.1821,95.6262
15:46:50:501,0.1861,2.2549,7.954,47.9357,-0.3024,-0.7591,-0.116,95.5165
15:46:50:521,0.0738,1.907,9.1241,48.2501,-0.4418,-0.7325,-0.3162,95.4177
15:46:50:541,-0.3373,1.7812,10.1945,48.2298,-0.4035,-0.3609,-0.3386,95.4177
15:46:50:560,-0.8042,1.9667,10.8197,48.4411,-0.2214,0.1171,-0.198,95.4177
15:46:50:581,-0.7392,1.9679,11.0687,48.3699,-0.1565,0.1437,-0.1278,95.4177
15:46:50:601,-0.501,1.8472,11.5269,48.2828,-0.3567,-0.1789,-0.2214,95.4177
15:46:50:621,-0.5944,1.3135,12.8013,47.845,-0.5866,-0.4365,-0.3034,95.4177
15:46:50:641,-1.0346,1.0633,14.0519,47.9574,-0.4599,-0.2566,-0.1629,95.4177
15:46:50:661,-1.2186,1.1803,14.2603,47.8594,0.017,0.1916,0.214,95.4177
15:46:50:682,-0.7178,1.2261,13.114,47.7798,0.4738,0.5046,0.56,95.4177
15:46:50:701,-0.007,1.2254,11.9609,47.7152,0.5483,0.3386,0.5568,95.4177
15:46:50:721,0.4967,0.8875,11.6412,47.5253,0.4365,-0.132,0.3588,95.3178
15:46:50:741,0.7585,0.0851,11.2967,47.5324,0.5802,-0.0554,0.2385,95.2089
15:46:50:761,0.6974,-0.3741,10.2622,47.1569,0.7751,0.3439,0.2364,95.0944
15:46:50:781,0.7098,-0.2132,9.1427,46.8724,0.6228,0.5227,0.1874,94.9785
15:46:50:801,0.7249,0.1213,8.5055,46.4571,0.1405,0.461,0.0522,94.8664
15:46:50:821,0.5312,0.3064,8.3465,45.8984,-0.2757,0.4759,-0.131,94.7626
15:46:50:841,-0.0678,0.4693,8.2966,45.3528,-0.4727,0.5419,-0.2108,94.6694
15:46:50:863,-0.5243,0.753,8.0792,45.042,-0.5036,0.5579,-0.1001,94.6694
15:46:50:881,-0.6383,1.0074,7.8231,44.6041,-0.4408,0.4344,0.1001,94.6694
15:46:50:902,-0.446,1.3459,7.722,44.6267,-0.2981,0.148,0.2438,94.5737
15:46:50:921,-0.172,1.663,7.499,44.8865,-0.1256,-0.1043,0.2353,94.4705
15:46:50:941,-0.1326,2.0252,7.2538,44.8538,-0.0437,-0.2534,0.1512,94.3614
15:46:50:962,-0.1951,2.0937,7.0028,45.1233,-0.0852,-0.2225,0.0586,94.2518
15:46:51:017,-0.3993,2.0307,6.9947,45.2639,-0.2417,-0.1735,-0.0319,94.1459
15:46:51:019,-0.7248,1.9156,7.5365,44.8669,-0.3865,-0.1746,-0.0937,94.0453
15:46:51:021,-1.0156,1.702,8.0187,44.9252,-0.3961,-0.1235,-0.1214,93.9511
15:46:51:043,-1.6715,1.6632,8.4889,44.9751,-0.3237,-0.0394,-0.0628,93.9511
15:46:51:065,-2.2714,1.7193,8.7014,44.7038,-0.1767,0.0319,0.1118,93.8608
15:46:51:081,-2.8602,1.8615,8.8429,44.8875,-0.0149,0.0596,0.2832,93.7656
15:46:51:101,-3.4143,1.8039,8.9224,44.7394,0.0873,0.0011,0.511,93.6592
15:46:51:121,-3.5339,1.1952,9.608,44.3882,-0.017,-0.2906,0.8134,93.5378
15:46:51:143,-3.4963,0.8412,10.9779,43.7621,-0.1991,-0.4695,1.1701,93.3902
15:46:51:161,-3.5568,0.9752,12.4465,43.543,-0.1661,-0.1448,1.5544,93.2029
15:46:51:182,-3.5707,1.1331,13.1385,43.3455,0.0756,0.2576,1.8876,92.9625
15:46:51:201,-3.1843,0.7899,13.112,43.2228,0.2374,0.1416,2.0867,92.6533
15:46:51:221,-2.6838,-0.2477,13.2003,43.4486,0.1267,-0.6239,2.0345,92.2862
15:46:51:243,-2.2508,-1.2697,13.5761,43.818,0.0692,-1.1786,1.9685,91.8587
15:46:51:262,-1.847,-2.0572,13.1573,43.9471,0.2757,-0.9252,2.0037,91.3745
15:46:51:281,-1.7662,-2.236,11.9682,43.9357,0.5366,-0.2342,2.1442,90.8348
15:46:51:301,-2.0377,-1.4099,10.5668,43.7661,0.4908,0.2183,2.2975,90.2378
15:46:51:321,-1.9622,-0.7474,9.2773,43.5341,0.1852,0.4791,2.4359,89.582
15:46:51:342,-1.6327,-0.5623,8.5078,43.4691,-0.1916,0.6069,2.4849,88.8654
15:46:51:361,-1.3008,-0.4847,8.2614,43.6274,-0.4621,0.6292,2.4593,88.0875
15:46:51:381,-1.1582,-0.3238,8.1238,43.5377,-0.5046,0.7154,2.4221,87.2497
15:46:51:401,-1.1281,-0.142,7.8114,43.7209,-0.3822,0.8602,2.3901,86.3439
15:46:51:421,-0.9911,0.0974,7.4641,43.8894,-0.2757,0.7634,2.371,85.391
15:46:51:442,-0.6591,0.4173,7.3468,43.8899,-0.2278,0.4983,2.3273,84.3824
15:46:51:462,-0.394,0.6757,7.5706,43.8286,-0.181,0.2065,2.1985,83.3215
15:46:51:480,-0.2195,0.7477,7.9843,44.294,-0.0979,-0.0234,2.0143,82.2154
15:46:51:500,-0.0127,0.7063,8.4314,44.3676,-0.0522,-0.1576,1.8227,81.073
15:46:51:521,0.3508,0.5166,9.0032,44.5686,-0.1097,-0.3375,1.5895,79.9027
15:46:51:541,0.8848,0.1757,9.7024,44.4914,-0.2108,-0.4312,1.2829,78.7153
15:46:51:561,1.052,-0.1155,10.4928,44.3078,-0.28,-0.3119,0.9241,77.5247
15:46:51:581,0.8397,-0.1444,11.0381,44.1195,-0.214,0.1033,0.6303,76.3453
15:46:51:601,0.4569,-0.1016,11.0876,43.9471,-0.0256,0.5345,0.4557,75.182
15:46:51:623,0.1422,0.0935,10.7726,43.9539,0.0969,0.5685,0.3503,74.0411
15:46:51:641,0.0642,0.3445,10.5333,44.0621,0.0948,0.3748,0.2513,72.9214
15:46:51:661,0.0948,0.7707,10.669,44.0676,0.0341,0.214,0.1661,71.8262
15:46:51:681,0.238,0.909,10.9332,44.2583,-0.0948,0.2864,0.1437,70.7601
15:46:51:701,0.1596,1.1771,11.3782,44.6266,-0.1586,0.4205,0.1608,69.7231
15:46:51:723,0.2132,1.2555,11.7743,44.7438,-0.0937,0.4131,0.2406,68.7105
15:46:51:742,0.2012,0.9328,12.02,45.0688,0.0969,0.2342,0.3258,67.7162
15:46:51:762,-0.0167,0.8586,11.793,45.2323,0.4184,0.0511,0.411,66.7359
15:46:51:781,-0.2935,0.7314,10.8713,45.2426,0.6005,-0.0926,0.445,65.768
15:46:51:801,-0.5574,0.4956,10.3102,44.7636,0.3119,-0.1129,0.4195,64.8162
15:46:51:822,-0.7327,0.1367,10.4398,44.608,-0.0735,-0.1065,0.4557,63.881
15:46:51:842,-0.9326,-0.105,10.7793,44.2979,-0.3109,0.0777,0.5366,62.961
15:46:51:861,-1.03,-0.2511,10.8495,44.1557,-0.3226,0.3077,0.6281,62.0519
15:46:51:881,-1.1607,-0.2827,10.3844,44.199,-0.1437,0.4546,0.7335,61.1478
15:46:51:902,-1.2135,-0.1629,9.608,44.1593,0.132,0.4333,0.8762,60.2391
15:46:51:921,-1.0498,0.1137,8.6185,44.0097,0.2662,0.28,1.0295,59.3259
15:46:51:942,-0.6197,0.4076,7.9059,43.9491,0.2917,0.1629,1.1211,58.4041
15:46:51:961,-0.1421,0.6355,7.3568,43.8904,0.3481,0.1725,1.103,57.4715
15:46:51:985,0.1857,0.7736,6.8366,44.2,0.3971,0.2129,0.9848,56.5307
15:46:52:004,0.3702,0.8393,6.522,44.0847,0.3503,0.1437,0.8624,55.5825
15:46:52:021,0.4403,1.0481,6.5743,44.0171,0.231,0.0511,0.7687,54.6365
15:46:52:042,0.6189,1.0985,6.8347,43.8,0.1001,0.0447,0.643,53.6943
15:46:52:061,0.8498,0.831,7.2189,43.4205,-0.0862,-0.0096,0.4301,52.7606
15:46:52:081,0.6522,0.5618,8.0712,43.1655,-0.3439,-0.0852,0.2353,51.8411
15:46:52:101,0.2487,0.3353,9.0895,42.9318,-0.5249,-0.0564,0.2161,50.9423
15:46:52:121,-0.0365,0.2655,10.2,42.7968,-0.5557,-0.0053,0.3524,50.0631
15:46:52:142,-0.1023,0.5072,11.0581,42.7796,-0.4908,0.0958,0.6207,49.1961
15:46:52:161,0.1461,1.0463,11.9453,42.5883,-0.3929,0.1799,0.9443,48.3273
15:46:52:181,0.7111,1.5622,12.7535,42.5884,-0.2726,0.1256,1.1083,47.4522
15:46:52:203,1.0415,2.0178,13.1647,42.5567,-0.0192,0.1544,1.0348,46.5646
15:46:52:221,0.8044,2.3717,12.8648,42.7159,0.3194,0.3567,0.8421,45.6713
15:46:52:241,0.2802,2.5886,12.1272,42.7091,0.5185,0.5057,0.643,44.7796
15:46:52:261,-0.1195,2.426,11.5351,42.7505,0.4908,0.4237,0.3599,43.8951
15:46:52:282,-0.5198,1.7217,11.1537,42.6458,0.411,0.2353,0.0011,43.0273
15:46:52:301,-1.0512,0.5026,10.8458,42.2835,0.4748,0.0628,-0.2332,42.1871
15:46:52:321,-1.5349,-0.6107,10.1948,41.9416,0.6462,-0.0617,-0.2545,41.3798
15:46:52:341,-1.9049,-1.0551,9.3493,41.3799,0.6792,-0.197,-0.1331,40.6042
15:46:52:360,-2.0311,-0.8956,8.7678,40.9068,0.3886,-0.3439,0.0745,39.8545
15:46:52:383,-1.6818,-0.7829,8.5057,40.5443,-0.0405,-0.2321,0.2715,39.1258
15:46:52:401,-1.2923,-0.8237,8.4676,40.2054,-0.3567,0.1043,0.3439,38.4124
15:46:52:421,-1.0941,-0.7011,8.2089,40.0192,-0.4482,0.4365,0.3811,37.7138
15:46:52:442,-1.0542,-0.3352,7.7585,40.0187,-0.3364,0.6399,0.4876,37.0236
15:46:52:461,-1.0628,0.2192,7.1151,39.8047,-0.1437,0.6792,0.6526,36.3349
15:46:52:482,-0.8849,0.7449,6.5078,39.8464,0.0245,0.5621,0.7996,35.6403
15:46:52:501,-0.6462,1.1575,6.2029,39.8664,0.0703,0.2896,0.8198,34.9347
15:46:52:521,-0.3362,1.6103,6.2185,39.7113,-0.0224,-0.0756,0.6846,34.2184
15:46:52:541,-0.0014,1.5968,6.6733,39.8578,-0.231,-0.3854,0.4056,33.4987
15:46:52:560,0.2141,1.0921,7.594,39.5049,-0.5259,-0.6005,0.0798,32.7869
15:46:52:581,-0.0946,0.6908,9.0431,39.3424,-0.741,-0.6303,-0.1341,32.0951
15:46:52:601,-0.8469,0.6574,10.6596,39.2354,-0.6846,-0.3524,-0.1363,31.4315
15:46:52:621,-1.3494,0.579,11.4397,39.3967,-0.3354,0.0522,0.0522,30.7946
15:46:52:642,-1.2463,0.6056,11.3292,39.0355,-0.0351,0.1491,0.2278,30.1733
15:46:52:661,-0.8919,0.9735,11.2203,38.6965,-0.0894,-0.1565,0.1916,29.5589
15:46:52:681,-0.6079,1.1289,11.8691,38.2656,-0.4589,-0.4674,-0.0064,28.9545
15:46:52:701,-0.4838,0.8449,13.3077,37.9235,-0.7634,-0.3343,-0.1203,28.3715
15:46:52:721,-0.4842,0.4451,14.307,37.4134,-0.6707,0.1469,-0.0884,27.8152
15:46:52:742,-0.2671,-0.0618,14.2956,37.1686,-0.2779,0.543,0.0192,27.2811
15:46:52:764,-0.1125,-0.3615,13.6551,37.2168,0.1288,0.6367,0.0926,26.7617
15:46:52:782,-0.219,-0.3006,12.7056,37.0429,0.544,0.4695,0.1533,26.2519
15:46:52:801,-0.123,-0.5519,11.2861,37.0146,0.9209,0.2534,0.2417,25.7495
15:46:52:822,0.1687,-0.7101,9.7177,37.143,1.12,-0.0522,0.2662,25.2516
15:46:52:841,0.3716,-0.7936,8.3245,37.2632,0.8762,-0.2704,0.2832,24.7598
15:46:52:863,0.7485,-0.4793,7.7021,37.4552,0.2864,-0.3418,0.2374,24.2749
15:46:52:881,0.9649,-0.3207,7.7953,37.7519,-0.3322,-0.1927,0.0873,23.8009
15:46:52:901,0.6886,-0.2249,8.1497,37.8231,-0.6824,0.1384,-0.0841,23.3434
15:46:52:921,0.0564,0.0159,8.321,37.9062,-0.6835,0.4291,-0.1107,22.9062
15:46:52:942,-0.359,0.279,8.1476,37.8187,-0.4589,0.4908,-0.0106,22.4839
15:46:52:962,-0.4742,0.4573,7.7881,37.7487,-0.1831,0.2672,0.1086,22.0681
15:46:52:981,-0.2942,0.6936,7.4677,37.724,0.0287,-0.0639,0.1959,21.6563
15:46:53:026,0.08,0.9808,7.205,37.5407,0.1608,-0.2491,0.2076,21.2476
15:46:53:028,0.4252,1.1793,7.1861,37.5515,0.1821,-0.2491,0.1491,20.8447
15:46:53:042,0.5568,1.4816,7.3844,37.4798,0.0777,-0.1693,0.0234,20.4518
15:46:53:061,0.568,1.5522,8.0709,37.4826,-0.1256,-0.1288,-0.1256,20.072
15:46:53:081,0.3638,1.3109,9.1105,37.5752,-0.2683,-0.0341,-0.2087,19.71
