Time,Acc_X,Acc_Y,Acc_Z,Meg,Gyr_X,Gyr_Y,Gyr_Z,Ore
16:06:47:402,-0.1749,2.2718,9.8375,48.5965,-0.1703,0.3961,0.1491,144.574
16:06:47:403,0.1516,2.3514,9.9175,48.6587,-0.0362,0.3151,0.0884,144.574
16:06:47:410,0.1254,2.5449,9.7457,48.7716,0.0554,0.263,0.0256,144.574
16:06:47:431,0.036,2.6119,9.5237,48.742,0.0628,0.1821,0.033,144.574
16:06:47:450,0.2419,2.5929,9.3401,48.8097,0.0192,0.0479,0.0373,144.574
16:06:47:470,0.4103,2.5704,9.3126,48.8015,-0.0032,-0.0362,0.0309,144.574
16:06:47:491,0.2256,2.7399,9.3056,48.6404,-0.0032,-0.0373,0.0394,144.574
16:06:47:511,-0.149,2.9172,9.164,48.889,-0.0266,0.0075,0.0692,144.574
16:06:47:530,-0.236,2.9843,9.0862,48.9632,-0.1182,0.0735,0.1107,144.574
16:06:47:551,-0.0852,2.8626,9.1614,49.0135,-0.2033,0.1203,0.0884,144.574
16:06:47:570,0.023,2.7987,9.2198,48.827,-0.2183,0.1214,0.0383,144.574
16:06:47:592,0.1496,2.8677,9.1904,49.0071,-0.1821,0.0979,-0.0192,144.574
16:06:47:611,0.1275,3.1467,9.093,48.926,-0.1789,-0.0341,-0.0862,144.574
16:06:47:630,0.2564,3.0923,8.9833,48.7901,-0.1597,-0.1906,-0.1203,144.574
16:06:47:651,0.2379,2.8979,8.8454,48.6854,-0.1586,-0.23,-0.1491,144.574
16:06:47:672,-0.0299,2.9921,8.9326,48.5188,-0.1033,-0.099,-0.0948,144.574
16:06:47:693,-0.2674,3.0518,9.0641,48.2275,0.0245,0.0128,-0.0064,144.574
16:06:47:710,-0.3534,3.4345,9.1599,48.3038,0.1427,0.0181,0.0713,144.574
16:06:47:730,-0.2843,3.3856,9.0429,48.5931,0.1522,-0.0735,0.099,144.574
16:06:47:752,-0.4165,3.8415,8.9833,48.56,0.1725,-0.0234,0.0724,144.574
16:06:47:771,-0.2454,3.9305,8.8793,48.483,0.1363,0.1097,0.0522,144.574
16:06:47:793,0.0771,3.9927,8.4042,48.604,-0.0596,0.2619,0.0852,144.574
16:06:47:811,0.4485,3.9219,8.174,48.3145,-0.3396,0.5877,0.0649,144.574
16:06:47:832,0.5434,3.9519,8.4679,48.5625,-0.4291,0.9294,0.1139,144.574
16:06:47:851,0.3141,3.6661,9.3438,48.7367,-0.4472,1.1541,0.0341,144.574
16:06:47:871,-0.2056,3.2595,10.0751,48.9385,-0.4024,0.9742,-0.083,144.574
16:06:47:895,-1.0184,3.3047,10.4296,48.9736,-0.4141,0.6973,-0.1235,144.574
16:06:47:911,-2.0252,3.329,10.7664,48.7896,-0.4823,0.4472,0.0468,144.574
16:06:47:931,-2.3231,3.1884,11.3056,48.519,-0.5057,0.2097,0.3066,144.574
16:06:47:951,-1.7169,3.2962,11.6841,48.5378,-0.3588,-0.0277,0.4738,144.574
16:06:47:970,-1.1024,2.967,11.3693,48.319,-0.0862,-0.1533,0.4823,144.574
16:06:47:992,-1.1599,2.3556,10.7309,48.1398,0.0916,-0.2374,0.3897,144.574
16:06:48:011,-1.375,1.6772,10.5228,48.1611,0.115,-0.4929,0.2502,144.574
16:06:48:030,-1.0444,0.4445,10.3859,48.2713,0.0692,-0.8613,0.0926,144.4832
16:06:48:051,-0.4569,-0.3446,10.0152,48.387,0.0351,-1.4181,-0.1352,144.4832
16:06:48:071,-0.226,-0.5335,9.7363,48.2314,0.0426,-1.7801,-0.3119,144.4832
16:06:48:091,-0.2578,-0.5042,9.4932,48.557,0.0224,-1.976,-0.4738,144.4832
16:06:48:111,-0.0901,-0.6658,8.9298,48.7267,-0.1033,-1.9685,-0.5238,144.4832
16:06:48:131,0.6226,-0.8078,8.2256,48.6636,-0.379,-2.0005,-0.4706,144.4832
16:06:48:151,0.6028,-0.3131,7.9612,48.6053,-0.5589,-1.6289,-0.4354,144.4832
16:06:48:171,0.0785,0.5295,8.241,48.5667,-0.4131,-0.8592,-0.1554,144.4832
16:06:48:191,-0.4046,1.1534,8.6738,48.5715,-0.1416,-0.0969,0.2683,144.4832
16:06:48:211,-0.1037,1.0596,8.6922,48.8149,0.1714,0.4397,0.675,144.4832
16:06:48:231,0.4545,0.9274,8.1291,48.8111,0.4461,0.9124,0.9156,144.4832
16:06:48:252,0.8956,1.1389,7.6724,48.7988,0.6856,1.3617,0.9923,144.4832
16:06:48:272,0.7455,1.852,8.0115,48.3417,0.7399,1.4,0.971,144.375
16:06:48:291,0.5538,2.1848,8.5802,48.3006,0.4141,0.5898,0.9071,144.2365
16:06:48:311,1.2703,2.0579,8.2836,48.3241,0.0213,-0.0256,0.7644,144.0756
16:06:48:331,1.7149,1.587,8.7325,48.1445,-0.2342,0.2225,0.4024,143.8933
16:06:48:352,1.6,1.4534,9.3806,48.7572,-0.2459,0.2268,0.016,143.6994
16:06:48:371,1.3934,1.5803,10.107,49.205,-0.0862,0.1938,-0.3332,143.5072
16:06:48:393,1.0202,1.8697,10.2979,48.7853,0.1214,-0.0075,-0.6324,143.3285
16:06:48:412,1.2028,2.2228,10.2858,48.6146,0.3279,0.049,-0.8198,143.173
16:06:48:432,0.4829,2.9666,10.3323,48.5967,0.4216,0.2662,-0.9507,143.0459
16:06:48:453,-0.8467,3.3533,10.7068,48.4722,0.2449,0.2395,-0.8208,142.9535
16:06:48:473,-0.9554,3.3795,11.1196,48.3196,-0.033,0.1842,-0.5472,142.9535
16:06:48:492,0.1852,3.4943,11.2399,48.6829,-0.4312,0.8464,-0.4099,142.9535
16:06:48:513,-0.2641,2.7042,11.7868,48.5539,-0.8038,1.3915,-0.3471,142.9535
16:06:48:531,-1.1818,2.2647,12.2847,48.6936,-0.5792,0.8932,-0.2587,142.9535
16:06:48:552,-0.8288,1.7122,12.5395,48.7207,0.0415,-0.3183,-0.1618,142.9535
16:06:48:572,0.2702,0.6199,12.916,48.9435,0.7229,-1.1573,-0.2204,142.9535
16:06:48:593,1.0381,0.4316,12.2127,48.8171,1.284,-1.1839,-0.247,142.9535
16:06:48:612,1.3628,0.0471,10.7413,48.8218,1.5203,-0.7357,-0.2938,142.9535
16:06:48:632,1.6308,0.1449,9.3199,48.595,1.4202,-0.0756,-0.297,142.9535
16:06:48:652,1.6776,0.6394,8.2517,48.259,1.104,0.2236,-0.3535,142.9535
16:06:48:672,1.2609,0.7645,7.7494,47.8648,0.6186,0.083,-0.3684,142.9535
16:06:48:693,1.0528,0.7613,7.3953,47.6859,0.0628,-0.0053,-0.3865,142.9535
16:06:48:712,1.0967,1.0648,7.422,47.5442,-0.2694,0.2364,-0.3982,142.9535
16:06:48:731,0.9334,1.4383,7.4134,47.3744,-0.3811,0.4397,-0.4503,142.9535
16:06:48:751,0.2994,1.9584,7.3044,47.1826,-0.3758,0.609,-0.5217,143.058
16:06:48:772,-0.0306,2.1892,7.2621,46.8972,-0.3524,0.593,-0.5568,143.177
16:06:48:792,-0.1077,2.4846,7.1979,46.4852,-0.3332,0.5206,-0.5866,143.3118
16:06:48:812,-0.3218,2.5763,7.1645,46.2721,-0.2843,0.2843,-0.61,143.4634
16:06:48:832,-0.4165,2.485,6.8229,46.4337,-0.247,-0.0064,-0.6856,143.6324
16:06:48:852,-0.4091,2.4987,6.9438,46.5293,-0.3556,-0.3939,-0.8198,143.8208
16:06:48:872,-0.4015,2.3761,7.5475,46.2353,-0.4983,-0.905,-0.9305,144.0341
16:06:48:895,-0.1631,0.6116,8.6388,46.5516,-0.658,-1.0678,-0.9763,144.2771
16:06:48:912,-1.3159,2.2166,8.2372,46.4099,-0.8581,-1.4458,-0.5589,144.5482
16:06:48:932,-0.3264,2.9937,9.8561,46.0135,-0.5973,-0.5898,0.2023,144.8357
16:06:48:952,0.4785,2.4602,10.7981,45.8947,-0.1171,0.2736,-0.0096,145.1061
16:06:48:971,0.0808,2.5253,11.2239,46.081,0.2342,0.0277,-0.3418,145.3614
16:06:48:991,-0.1707,2.0729,11.2109,45.8797,0.5824,-0.6292,-0.4418,145.6201
16:06:49:011,-0.8214,2.6203,11.29,45.9091,0.7538,-1.2222,-0.3694,145.888
16:06:49:031,-0.8245,2.7843,11.5204,45.9812,0.56,-1.12,-0.2129,146.1618
16:06:49:051,-1.0318,2.5744,11.702,45.6807,0.1171,-0.3471,0.1278,146.4333
16:06:49:071,-0.7574,2.1415,12.0225,45.4506,-0.3087,0.346,0.6665,146.6929
16:06:49:092,0.0169,1.681,12.5901,45.3165,-0.4642,0.3769,0.9582,146.9266
16:06:49:112,0.6291,1.4379,13.1698,45.2872,-0.2385,-0.2875,0.6963,147.1252
16:06:49:132,0.7508,1.1317,12.9712,45.3211,0.2885,-0.7101,0.2789,147.2927
16:06:49:152,0.5377,0.5898,12.0095,45.1927,0.8283,-0.758,0.0841,147.4395
16:06:49:173,-0.0917,0.5193,10.8261,45.216,1.202,-0.6377,0.1437,147.572
16:06:49:192,-0.4348,0.9442,9.5593,45.2977,1.2052,-0.4599,0.3513,147.6889
16:06:49:212,-0.1913,1.1859,8.7335,45.4821,0.8741,-0.4514,0.4738,147.7861
16:06:49:234,0.4019,1.2603,8.4454,45.3339,0.5579,-0.5877,0.4812,147.7861
16:06:49:251,0.8459,1.3208,8.2203,45.5507,0.444,-0.4472,0.4461,147.7861
16:06:49:272,0.9815,1.4612,7.8041,45.5817,0.5408,-0.0617,0.4216,147.7861
16:06:49:292,0.9668,1.6303,7.0786,45.5428,0.7431,0.3524,0.4046,147.7861
16:06:49:312,0.91,2.1428,6.2296,45.4679,0.823,0.7889,0.4173,147.7861
16:06:49:331,0.7679,2.1483,5.654,45.6019,0.6984,0.9901,0.3503,147.7861
16:06:49:351,0.185,2.0357,5.1393,45.6298,0.2949,1.3574,0.1075,147.7861
16:06:49:371,-0.6805,3.5358,6.0995,45.8643,-0.1927,1.1509,0.4855,147.7861
16:06:49:395,0.5023,2.916,6.9127,46.053,-0.511,0.7591,0.7218,147.7861
16:06:49:411,1.4895,2.7013,7.8241,45.8927,-0.7602,0.6452,0.3833,147.7861
16:06:49:432,1.4763,2.8226,9.4066,45.7299,-0.9188,0.4748,-0.1278,147.6897
16:06:49:451,0.8168,2.7563,10.5507,45.365,-0.6303,0.6643,-0.4003,147.5964
16:06:49:471,0.2085,2.7591,11.1474,45.2159,-0.131,0.4631,-0.4237,147.5964
16:06:49:491,0.2132,3.0524,11.2292,45.0522,0.313,0.1267,-0.3801,147.5964
16:06:49:512,0.168,3.5994,11.4934,45.2149,0.5153,0.1011,-0.4376,147.5964
16:06:49:531,-0.1798,3.9481,12.0599,45.2613,0.4961,-0.2662,-0.4461,147.5964
16:06:49:551,-0.0587,3.6477,12.5983,45.2046,0.4738,-0.3684,-0.3726,147.5964
16:06:49:571,0.3458,3.3041,12.5582,45.1223,0.4972,-0.1107,-0.3311,147.5964
16:06:49:592,0.5974,2.7156,12.4626,44.7455,0.3854,0.411,-0.2853,147.5964
16:06:49:612,0.7147,2.1555,11.952,44.6667,0.2395,0.7453,-0.1672,147.5964
16:06:49:632,0.678,1.9946,11.111,44.3927,0.2566,1.0423,-0.099,147.5964
16:06:49:651,0.679,2.1165,9.6915,44.0788,0.2406,1.2297,-0.0607,147.5964
16:06:49:671,0.7342,2.2287,8.3057,44.0341,0.0213,1.1701,-0.132,147.5964
16:06:49:691,0.3905,2.1328,7.4699,43.8539,-0.3215,0.905,-0.3141,147.5964
16:06:49:711,-0.252,1.9844,6.8738,43.4529,-0.6335,0.7101,-0.4173,147.5964
16:06:49:732,-0.807,1.843,6.3296,43.665,-0.8719,0.6558,-0.3418,147.5964
16:06:49:752,-1.1031,1.6943,5.7094,43.4321,-0.9986,0.5781,-0.1629,147.5964
16:06:49:772,-1.2343,1.5881,5.4432,43.1599,-1.1243,0.3045,0.082,147.5964
16:06:49:792,-0.8372,1.5587,5.4552,43.0322,-1.2925,-0.3918,0.3386,147.5964
16:06:49:812,-0.7709,1.9158,6.136,42.9776,-1.4011,-0.8624,0.5132,147.5964
16:06:49:832,-0.2523,1.8221,7.6327,43.0195,-1.3883,-0.593,0.3641,147.5964
16:06:49:851,-0.0881,1.7275,8.1128,43.2413,-1.3159,-0.1086,0.2502,147.5964
16:06:49:872,0.0544,1.3071,8.0755,43.4714,-1.1732,0.3141,0.2513,147.5964
16:06:49:895,-0.1602,1.2435,8.9765,43.1456,-0.9763,0.2928,0.1895,147.5964
16:06:49:911,-0.8726,1.5681,10.5214,43.0316,-0.6154,-0.2108,0.0745,147.5964
16:06:49:931,-1.1577,1.5067,11.056,42.7855,0.0106,-0.4908,0.0692,147.5964
16:06:49:952,-0.9426,1.6181,11.9795,42.6392,0.6718,-0.4237,0.0937,147.5964
16:06:49:971,-0.5825,2.0422,12.2388,42.6131,1.2627,-0.3961,0.066,147.5964
16:06:49:994,-0.1384,2.38,12.3193,42.4824,1.6747,-0.5515,-0.0224,147.5964
16:06:50:011,-0.2085,3.1016,12.189,42.3129,1.7588,-0.7697,-0.1107,147.5964
16:06:50:032,-0.4069,3.6607,12.0004,42.3591,1.5501,-0.7538,-0.083,147.5964
16:06:50:051,-0.4095,3.8051,11.6453,42.1434,1.1882,-0.4791,0.0788,147.5964
16:06:50:072,-0.2013,3.4607,11.5791,41.929,0.7974,-0.1416,0.2917,147.5964
16:06:50:092,0.0142,2.7505,11.415,41.8883,0.4493,0.0277,0.3535,147.5964
16:06:50:112,0.1991,1.7949,11.1287,41.8281,0.2172,-0.1054,0.2012,147.5964
16:06:50:133,0.1834,1.108,10.6335,41.9537,0.1501,-0.2534,-0.0128,147.5964
16:06:50:151,0.0559,0.7939,9.7379,41.8976,0.214,-0.1522,-0.1427,147.5964
16:06:50:172,-0.3375,0.7482,9.0967,42.0963,0.2715,0.0106,-0.2033,147.5964
16:06:50:192,-0.5621,1.0035,8.5969,42.1245,0.2587,-0.1714,-0.2087,147.5964
16:06:50:212,-0.5714,1.3026,8.0021,41.8231,0.165,-0.395,-0.1767,147.5964
16:06:50:232,-0.5831,1.6624,7.4844,42.2162,0.0245,-0.3961,-0.1288,147.5964
16:06:50:253,-0.5895,1.9557,6.948,42.5322,-0.1246,-0.1554,-0.0511,147.5964
16:06:50:272,-0.4069,2.1099,6.3756,42.6499,-0.23,0.296,0.0628,147.5964
16:06:50:292,-0.3028,2.1531,5.9063,42.5328,-0.3354,0.8155,0.1895,147.5964
16:06:50:313,-0.3294,2.4,5.9829,42.3768,-0.5132,1.0018,0.3183,147.5964
16:06:50:332,-0.5063,2.6215,6.8459,42.3576,-0.6462,0.6494,0.3545,147.5964
16:06:50:352,-0.577,2.6663,7.9445,42.1217,-0.544,-0.1118,0.28,147.5964
16:06:50:372,-0.2373,2.4569,8.336,42.1646,-0.3652,-0.5323,0.2172,147.5964
16:06:50:393,0.3131,2.1903,8.7828,42.4173,-0.2662,-0.3087,0.1512,147.5964
16:06:50:413,0.6149,2.1578,9.633,42.3841,-0.2885,0.1831,0.0554,147.5964
16:06:50:432,0.2385,2.4598,10.5118,42.4673,-0.3173,0.5451,-0.0309,147.5964
16:06:50:453,-0.2183,2.3875,11.1102,42.5895,-0.2704,0.6335,-0.2012,147.5964
16:06:50:472,-0.6112,2.4117,11.5124,42.4694,-0.2364,0.3577,-0.4706,147.5964
16:06:50:493,-1.087,2.4964,11.6121,42.4537,-0.2523,0.2459,-0.5909,147.5964
16:06:50:514,-1.6485,2.4916,12.0626,42.1816,-0.3002,0.4802,-0.3215,147.5964
16:06:50:532,-1.9694,2.7168,12.4248,42.2728,-0.2789,0.8059,0.1948,147.5964
16:06:50:552,-1.9146,2.9366,12.4877,42.1111,-0.1597,0.9018,0.5589,147.5964
16:06:50:571,-1.5942,2.9888,12.4125,42.347,0.0415,0.5802,0.5206,147.5964
16:06:50:591,-1.227,2.485,12.0915,42.3208,0.3577,0.0373,0.2864,147.5964
16:06:50:612,-0.9602,1.4529,11.4279,42.2531,0.6984,-0.4812,0.1352,147.5964
16:06:50:632,-0.6792,0.8218,10.4629,41.9496,0.9188,-0.8336,0.1352,147.5964
16:06:50:652,-0.3186,0.707,9.3799,41.8901,0.9103,-0.9731,0.2012,147.5964
16:06:50:672,0.1961,0.9507,8.4675,41.8772,0.6079,-0.9316,0.2449,147.5052
16:06:50:692,0.6907,1.2262,7.7307,41.7761,0.1299,-0.692,0.2214,147.4106
16:06:50:711,0.9685,1.3309,7.3567,41.9814,-0.3332,-0.2917,0.083,147.3121
16:06:50:731,0.9208,1.4524,7.2447,41.9753,-0.6154,0.1086,-0.1501,147.2131
16:06:50:751,0.302,1.5981,7.3204,41.9104,-0.6303,0.4152,-0.3162,147.1199
16:06:50:771,-0.2844,1.7679,7.1563,41.705,-0.4184,0.5845,-0.3173,147.1199
16:06:50:792,-0.5615,1.8606,6.763,41.7983,-0.1821,0.5142,-0.2044,147.1199
16:06:50:812,-0.5107,2.0661,6.4856,41.7085,-0.0362,0.1991,-0.0724,147.1199
16:06:50:831,-0.2873,2.2341,6.5259,41.422,-0.0192,-0.2587,-0.0468,147.1199
16:06:50:851,-0.1669,2.4281,6.9157,41.2076,-0.0649,-0.5824,-0.0958,147.1199
16:06:50:871,-0.0378,2.4753,7.5832,41.2262,-0.1182,-0.6899,-0.1022,147.1199
16:06:50:895,0.1131,2.3476,8.2421,41.3178,-0.1938,-0.5792,-0.0745,147.1199
16:06:50:911,-0.0107,2.474,8.882,41.3791,-0.2502,-0.2204,-0.0011,147.1199
16:06:50:932,-0.3918,2.787,9.618,41.2096,-0.2534,0.0202,0.1363,147.1199
16:06:50:951,-0.4558,3.0636,10.2281,41.1799,-0.2321,0.0543,0.28,147.1199
16:06:50:971,-0.346,3.2129,10.9453,41.0081,-0.2864,-0.1565,0.3396,147.1199
16:06:50:991,-0.2273,3.1389,12.1259,40.8146,-0.3407,-0.3577,0.329,147.1199
16:06:51:011,-0.1205,2.9387,13.1687,40.6935,-0.2417,-0.2278,0.3652,147.1199
16:06:51:031,-0.1637,2.9154,13.519,40.545,-0.0202,0.1821,0.4823,147.0277
16:06:51:051,-0.0985,2.9358,13.2297,40.6842,0.1831,0.461,0.5717,146.9197
16:06:51:071,-0.0667,2.6645,12.7431,40.5865,0.2821,0.3268,0.4589,146.7941
16:06:51:091,-0.1474,2.0447,12.1401,40.7799,0.3939,-0.0106,0.2385,146.6546
16:06:51:111,-0.2545,1.2107,11.1443,40.4605,0.5632,-0.2608,0.0458,146.5088
16:06:51:131,-0.4536,0.5517,9.8502,40.2584,0.6622,-0.2917,-0.0639,146.3631
16:06:51:152,-0.767,0.5009,8.6849,40.2761,0.5376,-0.2619,-0.0916,146.2223
16:06:51:172,-0.843,0.7131,7.8547,40.3843,0.1842,-0.198,-0.0117,146.0896
16:06:51:192,-0.6297,0.7795,7.3971,40.7942,-0.2417,-0.0511,0.0958,145.964
16:06:51:211,-0.3467,0.8319,7.2609,41.0532,-0.5738,0.1341,0.115,145.8418
16:06:51:231,-0.2174,0.9233,7.2356,40.9573,-0.7027,0.297,0.0873,145.7209
16:06:51:252,-0.1792,0.9802,7.0258,40.8561,-0.609,0.4184,0.0894,145.6007
16:06:51:272,-0.1518,1.0704,6.6507,40.4564,-0.4248,0.4312,0.1469,145.481
16:06:51:292,-0.1772,1.287,6.3845,40.3525,-0.2491,0.3396,0.2513,145.3598
16:06:51:311,-0.0743,1.5673,6.4981,40.0764,-0.1661,0.1725,0.2981,145.2346
16:06:51:331,-0.0158,1.6296,6.9157,39.9486,-0.1203,0.0043,0.2119,145.1035
16:06:51:354,-0.0272,1.7289,7.7617,39.8695,-0.1395,-0.1938,0.0341,144.9686
16:06:51:371,-0.0343,1.5793,8.9494,39.9873,-0.2332,-0.412,-0.1352,144.8357
16:06:51:417,-0.0914,1.5869,10.2381,40.0032,-0.2811,-0.3843,-0.2097,144.7121
16:06:51:418,-0.2014,1.7028,11.1728,40.0543,-0.2257,-0.0383,-0.2704,144.5973
16:06:51:432,-0.2984,1.803,11.5337,40.0545,-0.1522,0.3034,-0.3449,144.4928
16:06:51:451,-0.27,1.8319,11.5898,40.0726,-0.1405,0.4014,-0.4131,144.4013
16:06:51:471,-0.5159,2.1044,11.7659,39.6912,-0.2427,0.3077,-0.5164,144.4013
16:06:51:492,-1.0681,2.4146,12.4512,39.6145,-0.3354,0.2161,-0.5025,144.4013
16:06:51:513,-1.3116,2.3657,13.1562,40.0447,-0.2566,0.2694,-0.2704,144.4013
16:06:51:531,-1.112,2.2501,13.2355,39.8625,-0.0128,0.363,-0.0213,144.4013
16:06:51:551,-0.7226,1.8639,12.7987,39.5644,0.2065,0.2704,0.033,144.4013
16:06:51:571,-0.3719,1.2803,12.4603,39.6288,0.33,-0.0713,-0.0586,144.4013
16:06:51:591,-0.1903,0.4176,11.8351,39.4964,0.5462,-0.2736,-0.1086,144.4013
16:06:51:611,-0.0013,-0.0963,10.7606,39.0843,0.7325,-0.3705,-0.1054,144.4013
16:06:51:632,0.3207,-0.1839,9.6586,38.9616,0.6281,-0.4951,-0.0724,144.4013
16:06:51:652,0.7577,-0.0123,8.7757,38.8588,0.2555,-0.5281,-0.0564,144.4013
16:06:51:672,1.1066,0.1868,8.1591,38.4649,-0.1554,-0.3535,-0.1011,144.4013
16:06:51:693,1.1588,0.3998,7.6876,38.3612,-0.4386,-0.0575,-0.1778,144.4013
16:06:51:712,0.937,0.7824,7.3069,38.293,-0.5057,0.2662,-0.2395,144.4013
16:06:51:731,0.5507,1.1637,6.891,37.9015,-0.4035,0.5291,-0.2608,144.4013
16:06:51:751,0.2007,1.378,6.5725,37.9136,-0.2619,0.5164,-0.2885,144.4013
16:06:51:771,-0.0805,1.6053,6.416,37.7929,-0.1203,0.2353,-0.3173,144.4013
16:06:51:791,-0.2623,1.8557,6.4417,37.7095,0.0032,-0.05,-0.2726,144.4013
16:06:51:812,-0.1174,1.9029,6.615,37.7588,0.0756,-0.198,-0.1693,144.4013
16:06:51:832,0.064,1.8317,7.0733,37.7588,0.0586,-0.2459,-0.1448,144.4013
16:06:51:851,-0.0464,2.0495,7.8761,37.839,-0.0522,-0.3439,-0.2087,144.4013
16:06:51:872,-0.572,2.533,8.8495,37.6974,-0.1884,-0.346,-0.231,144.4013
16:06:51:895,-1.073,2.8799,9.8388,37.3129,-0.2342,-0.1214,-0.1097,144.4013
16:06:51:911,-1.3193,2.6761,10.6612,37.4367,-0.1405,0.1874,0.1203,144.4013
16:06:51:932,-1.3218,2.3963,11.3454,37.1897,-0.0266,0.3524,0.3907,144.4013
16:06:51:952,-1.1791,2.5269,11.8793,37.3878,0.0138,0.3652,0.5962,144.4013
16:06:51:972,-0.9451,2.676,12.5695,37.5282,-0.033,0.099,0.6313,144.4013
16:06:51:992,-0.7956,2.7378,13.4932,37.7948,-0.0447,-0.2065,0.56,144.4013
16:06:52:012,-0.5245,2.2504,14.1709,37.7975,0.1373,-0.197,0.5909,144.4013
16:06:52:036,-0.1507,1.4473,14.1179,37.9639,0.4567,-0.0596,0.6335,144.4013
16:06:52:052,0.1449,0.5493,13.318,38.0692,0.7453,-0.1331,0.4674,144.4013
16:06:52:072,0.0838,-0.0387,12.1632,38.3679,0.873,-0.3641,0.2076,144.4013
16:06:52:092,-0.156,-0.1866,10.6565,38.3574,0.8975,-0.2928,0.1043,144.4013
16:06:52:111,-0.3787,-0.1158,9.1039,38.6436,0.7634,-0.033,0.1192,144.4013
16:06:52:132,-0.5305,0.3294,7.7458,39.0587,0.4195,0.2002,0.1491,144.4013
16:06:52:152,-0.4843,0.7907,6.9094,39.446,-0.083,0.3034,0.1416,144.4013
16:06:52:172,-0.361,1.1176,6.7094,39.8584,-0.5462,0.3077,0.0522,144.4013
16:06:52:192,-0.2596,1.161,6.7435,40.0801,-0.7655,0.3609,-0.0735,144.4013
16:06:52:212,-0.275,1.116,6.6107,40.0189,-0.7378,0.461,-0.1469,144.4013
16:06:52:233,-0.2905,1.0903,6.4473,39.9103,-0.6132,0.4205,-0.1373,144.4013
16:06:52:251,-0.2586,1.2178,6.5619,40.0867,-0.4599,0.1927,-0.1129,144.4013
16:06:52:272,-0.399,1.3236,7.0061,40.307,-0.2268,-0.1065,-0.1203,144.4013
16:06:52:294,-0.4511,1.1294,7.5178,40.4229,0.0277,-0.4663,-0.1586,144.4013
16:06:52:312,-0.3799,0.8811,8.1743,40.5228,0.1363,-0.7069,-0.1735,144.4013
16:06:52:331,-0.4906,0.7463,9.0328,40.7578,0.0671,-0.4472,-0.1022,144.4013
16:06:52:351,-0.4292,0.8001,9.8021,40.6531,-0.0106,0.0937,0.0032,144.4013
16:06:52:371,-0.3306,0.8724,10.2899,40.9459,0.0021,0.363,-0.0192,144.4013
16:06:52:392,-0.5441,1.4672,10.4129,40.9434,0.1097,0.3194,-0.0979,144.4013
16:06:52:411,-0.8567,2.1603,10.5015,41.0568,0.1927,0.1352,-0.1554,144.4013
16:06:52:431,-1.0968,2.5933,10.4575,41.0943,0.1267,0.0522,-0.1469,144.4013
16:06:52:452,-1.2222,3.0231,10.6924,41.3124,-0.049,0.05,-0.0926,144.4013
16:06:52:472,-0.8887,3.1969,11.3579,41.1048,-0.2726,-0.2151,-0.1011,144.4013
16:06:52:492,-0.4156,2.9125,12.5852,41.321,-0.4141,-0.5547,-0.2172,144.4013
16:06:52:513,0.0741,2.0143,13.5635,41.4211,-0.2662,-0.527,-0.3375,144.4013
16:06:52:532,0.3152,0.9657,13.5814,41.5035,0.0511,-0.2332,-0.4482,144.4013
16:06:52:553,0.1943,0.2172,12.7289,41.6606,0.3748,0.0692,-0.4386,144.4013
16:06:52:572,0.0067,-0.0253,11.3311,41.7192,0.5749,0.2065,-0.3215,144.4013
16:06:52:592,-0.0698,0.2042,9.815,41.5356,0.5195,0.1991,-0.1874,144.4013
16:06:52:613,0.0493,0.7196,8.7084,41.5852,0.1725,0.0862,-0.1086,144.4013
16:06:52:632,0.129,1.2583,8.2327,41.4534,-0.2768,0.0245,-0.1139,144.4013
16:06:52:652,-0.0226,1.4899,8.1489,41.4136,-0.6005,0.0468,-0.2246,144.4013
16:06:52:672,-0.4187,1.5375,8.0716,41.3666,-0.6878,0.1107,-0.3077,144.4013
16:06:52:695,-0.8189,1.483,7.695,41.5839,-0.6154,0.0979,-0.2662,144.4013
16:06:52:712,-1.0776,1.3977,7.4294,41.6603,-0.4876,-0.1001,-0.1246,144.4013
16:06:52:733,-0.7894,1.1014,7.4271,41.6438,-0.3354,-0.5376,0.033,144.4013
16:06:52:752,-0.1086,0.9986,7.5237,41.8195,-0.1097,-0.8507,0.115,144.4013
16:06:52:772,0.266,0.9375,6.808,41.7461,-0.115,-1.1541,0.1767,144.4013
16:06:52:795,0.4855,1.689,6.3642,41.4629,-0.2438,-0.5717,0.3641,144.4013
16:06:52:812,0.6524,1.8415,7.3924,41.9518,-0.3013,0.1363,0.511,144.4013
16:06:52:831,0.8058,1.9074,8.6883,42.0965,-0.3439,0.1948,0.4589,144.4013
16:06:52:851,0.8207,1.8649,9.7611,42.2633,-0.2811,0.0777,0.2832,144.4013
16:06:52:871,0.7005,1.8077,10.8018,42.3514,-0.1033,0.0405,0.1363,144.4013
16:06:52:895,0.5316,1.6038,11.5627,42.4092,0.1246,0.1107,0.1001,144.4013
16:06:52:911,0.2318,1.6857,11.9397,42.0474,0.3045,0.1384,0.1927,144.4013
16:06:52:931,0.0777,1.7435,12.4422,41.8976,0.2385,-0.0373,0.2321,144.4013
16:06:52:951,-0.1162,1.5611,13.2099,41.6015,0.0479,-0.3077,0.1916,144.4013
16:06:52:971,-0.187,1.2085,13.6416,41.721,0.1278,-0.2651,0.3364,144.4013
16:06:52:992,-0.0316,0.711,13.3237,41.7942,0.411,-0.0649,0.5536,144.4013
16:06:53:012,0.0769,0.1562,12.5502,41.9408,0.6196,-0.0234,0.5185,144.4013
16:06:53:032,-0.2403,0.1056,11.549,42.1123,0.658,-0.0692,0.2832,144.4013
16:06:53:051,-0.5956,0.1845,10.4107,42.1435,0.6079,0.0522,0.1469,144.4013
16:06:53:071,-0.7325,0.1833,9.3887,42.04,0.3929,0.165,0.1437,144.3084
16:06:53:093,-0.6847,0.3918,8.5689,42.0827,0.099,0.2395,0.2183,144.2131
16:06:53:112,-0.3467,0.5573,7.9748,42.1669,-0.1544,0.3386,0.3087,144.1153
16:06:53:131,0.2903,0.47,7.6101,42.2061,-0.3567,0.3971,0.3098,144.0121
16:06:53:151,0.7404,0.3193,7.3389,42.1892,-0.461,0.395,0.1842,143.9023
16:06:53:171,0.5154,0.6257,6.9872,42.5526,-0.3875,0.4897,0.0948,143.7888
16:06:53:192,0.0862,1.0258,6.4694,42.6396,-0.1533,0.6729,0.1661,143.6734
16:06:53:211,-0.0383,1.2384,6.0924,42.6245,0.0564,0.6111,0.3215,143.5554
16:06:53:232,0.2643,1.2516,6.2398,42.5898,0.0426,0.1501,0.3268,143.4315
16:06:53:252,0.4318,1.6141,7.125,42.2201,-0.0916,-0.4983,0.1267,143.3034
16:06:53:272,0.4987,1.6447,8.2187,42.076,-0.1586,-0.7964,-0.1427,143.1765
16:06:53:292,0.4112,1.2956,9.1748,41.8385,-0.2342,-0.7293,-0.3535,143.0566
16:06:53:312,-0.0639,1.1875,10.1647,41.9176,-0.3013,-0.3875,-0.3801,142.9494
16:06:53:332,-0.4825,1.1376,10.9556,41.865,-0.2108,0.1033,-0.2097,142.8571
16:06:53:352,-0.6356,1.2215,11.3919,41.7332,0.0064,0.3173,0.0128,142.8571
16:06:53:374,-0.392,1.4653,11.4994,41.5712,0.115,0.0969,0.0703,142.8571
16:06:53:393,-0.4657,1.8978,11.8051,41.7639,0.1235,-0.1001,-0.0138,142.8571
16:06:53:437,-0.7058,2.2308,12.0281,41.9913,0.1874,0.0522,0.0298,142.8571
16:06:53:439,-0.3765,2.0534,11.8927,42.099,0.2502,0.198,0.1469,142.8571
16:06:53:452,0.3571,1.6238,11.7141,41.9964,0.1011,0.1416,0.1086,142.7657
16:06:53:473,0.8757,0.8667,12.0095,42.0002,-0.1256,-0.0522,-0.1224,142.6745
16:06:53:492,0.6889,0.1943,12.1456,41.8601,-0.0586,-0.0298,-0.3449,142.6745
16:06:53:511,0.6028,-0.4268,11.8143,41.7211,0.0916,-0.1693,-0.4376,142.6745
16:06:53:532,0.9057,-0.858,11.3773,41.4477,0.0426,-0.5323,-0.4259,142.6745
16:06:53:552,1.2913,-0.7954,10.9278,41.3273,-0.164,-0.6633,-0.411,142.6745
16:06:53:572,1.5524,-0.3615,10.1466,41.0806,-0.346,-0.3151,-0.412,142.6745
16:06:53:592,1.3591,0.0794,9.1778,40.8433,-0.4173,0.2906,-0.428,142.6745
16:06:53:611,0.7638,0.5334,8.2683,40.8132,-0.3556,0.7719,-0.4152,142.6745
16:06:53:631,0.061,0.8496,7.3332,40.8808,-0.181,0.9805,-0.3662,142.6745
16:06:53:651,-0.372,1.0569,6.5865,40.7629,0.0202,0.8304,-0.297,142.6745
16:06:53:671,-0.6398,1.4146,6.4615,40.8358,0.1373,0.2757,-0.2481,142.6745
16:06:53:692,-0.3048,1.4776,6.6225,40.8666,0.1256,-0.461,-0.2161,142.6745
16:06:53:711,0.0619,1.5079,7.0333,40.9857,0.0841,-0.8145,-0.1959,142.6745
16:06:53:731,0.3253,1.2564,7.4646,40.9738,0.1043,-0.6452,-0.1661,142.6745
16:06:53:751,0.4779,0.9393,7.8978,40.6204,0.1459,-0.2055,-0.0777,142.6745
16:06:53:772,0.3694,1.1605,8.7672,40.368,0.066,0.0106,0.0202,142.6745
16:06:53:791,-0.2393,1.6478,10.2253,40.2978,-0.0767,-0.0681,0.0777,142.6745
16:06:53:812,-0.6019,1.6281,11.3422,40.0633,0.0437,-0.0958,0.1938,142.6745
16:06:53:831,-0.5528,1.2251,11.321,40.0462,0.3002,-0.0809,0.4408,142.6745
16:06:53:852,-0.3872,1.4059,11.1564,40.0758,0.5717,0.2608,0.7421,142.6745
16:06:53:871,-0.4042,1.6777,11.3568,39.9068,0.7932,0.5973,0.922,142.6745
16:06:53:895,-0.7029,2.5313,11.2711,40.127,0.8634,0.7112,0.9593,142.6745
16:06:53:911,-0.9845,3.3351,10.8662,39.7858,0.8155,0.6633,0.9465,142.6745
16:06:53:931,-0.7663,3.3809,10.4818,39.6491,0.6452,0.378,0.8762,142.6745
16:06:53:952,-0.146,2.7888,10.3541,39.5448,0.3268,-0.0681,0.5345,142.5652
16:06:53:972,0.0061,2.0438,10.7419,39.4569,0.0522,-0.3045,0.0415,142.4396
16:06:53:993,-0.3138,1.1376,10.9397,39.7942,-0.0319,-0.1405,-0.3034,142.3131
16:06:54:012,-0.7962,0.5013,10.6622,40.0553,-0.0373,0.0926,-0.4046,142.1968
16:06:54:032,-1.0484,0.2642,10.2855,40.0555,-0.1107,0.1874,-0.2981,142.0975
16:06:54:055,-1.0276,0.3111,9.8845,39.9332,-0.2385,0.2843,-0.1075,142.0975
16:06:54:072,-0.9178,0.4841,9.2925,39.72,-0.2832,0.5866,0.0617,142.0975
16:06:54:092,-1.0176,0.7734,8.4006,39.8371,-0.2342,0.939,0.1938,142.0975
16:06:54:111,-1.186,1.1046,7.3659,39.7609,-0.1789,1.0742,0.3183,142.0975
16:06:54:131,-1.3975,1.5539,6.587,40.057,-0.2033,0.8964,0.4269,142.0001
16:06:54:153,-1.6316,2.012,6.5528,40.0462,-0.2555,0.4759,0.5164,141.8928
16:06:54:173,-1.4797,1.9897,6.7586,39.8156,-0.1672,0.0671,0.6079,141.7732
16:06:54:193,-1.0704,1.5611,7.0046,40.044,-0.0149,-0.2555,0.6154,141.637
16:06:54:212,-0.6234,1.4737,7.2513,39.8862,0.0426,-0.4557,0.5472,141.4832
16:06:54:233,-0.0676,1.4641,8.0164,39.896,-0.0394,-0.544,0.3833,141.3154
16:06:54:252,0.1764,1.2943,8.7282,39.8052,-0.0671,-0.3577,0.1011,141.1369
16:06:54:272,-0.0693,1.1289,9.4624,39.7958,-0.033,-0.164,-0.1672,140.9563
16:06:54:291,-0.4005,1.0791,9.8521,39.531,0.0383,0.0671,-0.2779,140.7836
16:06:54:311,-0.576,1.0816,10.047,39.3646,0.083,0.2204,-0.2917,140.6237
16:06:54:331,-0.7732,1.0702,10.1352,39.4264,0.066,0.2811,-0.3215,140.4785
16:06:54:352,-1.2879,1.7258,10.2842,39.2377,-0.0181,0.3961,-0.3109,140.3486
16:06:54:372,-1.7419,2.3344,10.5537,39.0353,-0.131,0.4195,-0.2193,140.2341
16:06:54:393,-1.7619,2.5935,10.9766,39.17,-0.2843,0.363,-0.0756,140.1325
16:06:54:412,-1.1489,2.3841,11.4055,39.0882,-0.4716,0.362,-0.0415,140.0389
16:06:54:432,-0.6379,1.6836,12.0621,38.982,-0.5888,0.28,-0.2651,140.0389
16:06:54:452,-0.8533,0.6956,12.5585,38.8585,-0.4727,0.0319,-0.5568,140.0389
16:06:54:472,-1.3073,-0.3216,12.5189,38.6863,-0.2481,-0.2683,-0.6675,140.0389
16:06:54:491,-1.4219,-1.0995,12.1192,38.2804,-0.1469,-0.5164,-0.5749,140.0389
16:06:54:512,-1.0973,-1.3987,11.6586,38.0937,-0.2257,-0.609,-0.3577,140.0389
16:06:54:532,-0.4228,-1.3294,10.9996,37.8728,-0.3833,-0.4035,-0.1597,140.0389
16:06:54:552,0.0212,-0.8843,10.1844,37.5628,-0.477,0.0479,-0.0564,140.0389
16:06:54:572,-0.1185,-0.0415,9.2113,37.4664,-0.4248,0.5206,-0.0319,140.0389
16:06:54:594,-0.4153,0.6032,8.1391,37.3125,-0.2598,0.7623,-0.0373,140.0389
16:06:54:613,-0.4274,1.0501,7.1709,37.1954,-0.0862,0.7538,-0.0735,140.0389
16:06:54:631,-0.4913,1.6041,6.6895,37.0205,-0.0032,0.6388,-0.1618,140.0389
16:06:54:652,-0.6871,2.2873,6.3306,36.9059,0.033,0.7101,-0.2438,140.0389
16:06:54:671,-0.7041,2.7602,6.2072,37.0794,-0.0586,0.8315,-0.3726,140.0389
16:06:54:692,-0.7925,2.5223,6.3847,37.0153,-0.2981,0.7304,-0.6633,140.0389
16:06:54:713,-1.3574,1.9105,7.4302,36.8795,-0.4461,0.5749,-0.8262,140.0389
16:06:54:731,-1.9757,1.1444,8.6592,36.5551,-0.2843,0.3833,-0.6558,140.0389
16:06:54:753,-2.2298,0.6108,9.3431,36.3293,0.1118,0.2395,-0.23,140.0389
16:06:54:772,-1.9476,0.413,9.5603,36.2225,0.4567,0.1672,0.2321,140.1348
16:06:54:792,-1.7094,0.8253,9.6829,36.2698,0.5387,-0.0564,0.4738,140.2252
16:06:54:812,-2.0282,1.5427,10.2854,36.0863,0.3056,-0.5376,0.4472,140.2252
16:06:54:831,-2.037,1.7802,11.0465,36.1075,0.1022,-0.7719,0.4876,140.2252
16:06:54:851,-1.9765,1.9509,11.7909,35.9012,0.0543,-0.5675,0.5227,140.2252
16:06:54:871,-2.1135,2.2851,12.2866,35.499,0.0607,-0.2193,0.5504,140.2252
16:06:54:895,-2.0973,2.4122,12.4309,35.1165,0.1129,0.1129,0.6218,140.2252
16:06:54:911,-1.752,2.0464,12.3515,35.0358,0.1576,0.1288,0.4525,140.2252
16:06:54:931,-1.573,1.1999,12.0472,34.7836,0.1629,-0.0224,0.0447,140.2252
16:06:54:952,-1.6229,0.018,11.5842,34.6688,0.2065,-0.1959,-0.2757,140.2252
16:06:54:971,-1.7241,-1.0415,11.019,34.2888,0.2491,-0.4131,-0.494,140.2252
16:06:54:993,-1.7671,-1.4798,10.5173,34.235,0.1948,-0.5919,-0.5345,140.2252
16:06:55:011,-1.612,-1.3889,9.9482,33.9129,0.066,-0.5941,-0.4578,140.2252
16:06:55:032,-1.2645,-1.3785,9.2367,34.0937,-0.1576,-0.4738,-0.4056,140.2252
16:06:55:052,-1.2127,-1.0815,8.564,34.0268,-0.3843,-0.3662,-0.3822,140.2252
16:06:55:072,-1.3199,-0.6481,8.0515,34.0722,-0.494,-0.3109,-0.2747,140.2252
16:06:55:093,-1.4687,-0.1233,7.6941,34.2163,-0.4567,-0.2481,-0.1107,140.2252
16:06:55:112,-1.5762,0.3578,7.1865,34.1189,-0.2896,-0.1448,0.0649,140.2252
16:06:55:132,-1.6995,0.8485,6.7472,33.86,-0.1448,-0.0681,0.2278,140.2252
16:06:55:151,-1.6998,1.2172,6.3594,33.7826,-0.0724,-0.0426,0.3492,140.2252
16:06:55:171,-1.737,1.4532,6.3975,33.5265,-0.083,-0.1065,0.379,140.2252
16:06:55:193,-1.5974,1.5109,6.9015,33.2682,-0.1107,-0.3215,0.3535,140.2252
16:06:55:213,-1.1423,1.1974,7.6147,33.0214,-0.1097,-0.4951,0.28,140.2252
16:06:55:231,-0.8838,1.0176,8.5185,33.0377,-0.0958,-0.4929,0.1182,140.2252
16:06:55:252,-1.0023,0.7951,9.4921,33.3393,-0.0543,-0.3045,-0.0447,140.2252
16:06:55:271,-1.2586,0.4067,10.2578,33.0209,-0.0032,-0.1267,-0.1001,140.2252
16:06:55:292,-1.3792,0.3315,10.9114,32.9538,0.0522,-0.1171,-0.0266,140.2252
16:06:55:311,-1.1113,0.2536,11.5704,33.0847,0.0543,-0.2555,0.0468,140.2252
16:06:55:331,-0.757,0.3724,12.0774,32.6109,0.0735,-0.1916,0.0543,140.2252
16:06:55:351,-0.9196,1.0542,12.2691,32.5924,0.164,0.2151,0.0713,140.2252
16:06:55:371,-1.2686,1.9898,12.1889,33.0032,0.2257,0.5206,0.1565,140.2252
16:06:55:394,-1.1956,2.4755,12.0022,32.9082,0.1533,0.4727,0.2502,140.2252
16:06:55:412,-0.3717,1.9798,12.0172,32.8215,-0.0075,0.2129,0.2044,140.2252
16:06:55:448,0.3221,0.9224,11.9925,32.7605,-0.0415,0.0021,-0.0798,140.2252
16:06:55:451,0.1912,-0.0206,11.6763,32.2132,0.1278,-0.1203,-0.4046,140.2252
16:06:55:471,-0.0512,-0.7937,10.8725,32.0236,0.3322,-0.2992,-0.5249,140.2252
16:06:55:491,-0.0417,-1.2912,9.9511,31.9195,0.4482,-0.4578,-0.4631,140.2252
16:06:55:511,0.17,-1.5009,9.1816,31.5463,0.346,-0.5526,-0.3609,140.2252
16:06:55:531,0.5568,-1.2389,8.9151,31.4569,0.0117,-0.5387,-0.2885,140.2252
16:06:55:552,0.9311,-0.8695,8.7344,31.3181,-0.3407,-0.2332,-0.2619,140.2252
16:06:55:571,0.9827,-0.4865,8.6122,31.0548,-0.5078,0.3141,-0.3162,140.2252
16:06:55:592,0.4269,-0.0516,8.1832,30.6511,-0.411,0.8059,-0.3875,140.2252
16:06:55:611,-0.1403,0.526,7.4739,30.2661,-0.1735,0.9241,-0.3567,140.3154
16:06:55:631,-0.4523,0.9376,6.8643,29.8247,0.0383,0.5898,-0.2683,140.4147
16:06:55:651,-0.5269,1.3577,6.5202,29.5498,0.1661,0.0234,-0.2033,140.5232
16:06:55:672,-0.2906,1.5349,6.4244,29.3919,0.2715,-0.3609,-0.1831,140.639
16:06:55:693,-0.0762,1.5333,6.6103,29.7499,0.33,-0.5664,-0.1821,140.7594
16:06:55:712,0.1404,1.6007,7.0695,29.9215,0.3173,-0.6473,-0.2044,140.8839
16:06:55:732,0.1547,1.7748,7.5442,29.9158,0.2097,-0.5877,-0.2694,141.0121
16:06:55:752,-0.1517,2.2557,8.3672,29.9152,-0.0234,-0.5259,-0.3151,141.146
16:06:55:772,-0.4653,2.3038,9.2831,29.4434,-0.2055,-0.2438,-0.2726,141.2869
16:06:55:793,-0.9516,2.0933,10.3724,29.2838,-0.2342,0.1075,-0.1544,141.4318
16:06:55:813,-1.4767,2.0563,11.2051,29.0178,-0.0916,0.2832,0.0224,141.5767
16:06:55:832,-1.7513,2.1685,11.7233,29.2832,0.0437,0.1437,0.1459,141.7166
16:06:55:852,-1.7058,2.1346,12.066,29.1319,0.0053,-0.1554,0.1682,141.8499
16:06:55:872,-1.6859,1.8057,12.6529,28.7678,-0.1171,-0.214,0.1725,141.9755
16:06:55:895,-1.865,1.5303,13.2072,28.8018,-0.1597,0.016,0.23,142.0918
16:06:55:912,-1.992,1.0028,13.5092,28.5672,-0.1618,0.116,0.2811,142.1955
16:06:55:931,-1.9021,0.1549,13.7223,28.5672,-0.1235,0.0138,0.2875,142.2869
16:06:55:951,-1.7596,-0.7635,13.2823,28.4595,0.0905,0.0096,0.3002,142.2869
16:06:55:973,-1.8712,-1.3157,12.0441,28.494,0.4205,0.1938,0.3662,142.2869
16:06:55:992,-2.0974,-1.1452,10.472,28.3863,0.5951,0.2459,0.4951,142.2869
16:06:56:011,-2.1134,-0.6785,8.9974,28.4236,0.4791,0.0905,0.5994,142.2869
16:06:56:031,-1.8767,-0.2303,7.9537,28.4543,0.1597,-0.05,0.6356,142.2869
16:06:56:052,-1.157,-0.099,7.5193,28.5193,-0.2789,-0.2002,0.5866,142.2869
16:06:56:073,-0.532,-0.3101,7.6915,28.6824,-0.6718,-0.3247,0.4078,142.2869
16:06:56:092,-0.3848,-0.3018,8.0651,28.8049,-0.7942,-0.2672,0.2236,142.2869
16:06:56:112,-0.4795,-0.0933,7.9081,28.8003,-0.61,0.0192,0.1725,142.2869
16:06:56:133,-0.6425,0.0755,7.304,28.6003,-0.2832,0.3897,0.2843,142.2869
16:06:56:152,-0.5811,0.1975,6.6283,28.0374,0.0106,0.5323,0.4876,142.2869
16:06:56:172,-0.4954,0.5875,6.229,27.8925,0.1831,0.3705,0.6186,142.2869
16:06:56:192,-0.5647,1.2314,6.543,27.4972,0.1959,-0.0458,0.5483,142.187
16:06:56:212,-0.4061,1.436,7.3224,27.7664,0.1352,-0.4983,0.3567,142.0735
16:06:56:233,0.1163,1.0784,8.2007,28.153,0.0468,-0.6814,0.1341,141.9518
16:06:56:252,0.4642,0.5895,9.2567,28.3335,-0.116,-0.4844,-0.1491,141.8278
16:06:56:272,-0.0707,0.5813,10.733,28.4216,-0.2545,0.0564,-0.3375,141.7089
16:06:56:292,-0.7364,0.4761,12.0797,28.4521,-0.2236,0.4088,-0.3492,141.601
16:06:56:315,-0.8944,0.0716,12.7293,28.2657,-0.1735,0.428,-0.3194,141.5074
16:06:56:333,-1.1514,0.2074,13.1708,28.2497,-0.2534,0.56,-0.2545,141.5074
16:06:56:352,-1.7807,0.9164,14.0707,28.1551,-0.2768,0.6335,-0.0724,141.5074
16:06:56:372,-1.8674,1.0515,14.6924,28.5037,-0.0394,0.3833,0.1693,141.5074
16:06:56:394,-0.6863,0.459,14.3679,28.5609,0.2779,0.0649,0.2938,141.5074
16:06:56:411,0.2561,0.0836,13.6072,28.4981,0.527,-0.0043,0.2097,141.5074
16:06:56:431,0.3647,-0.115,12.5874,28.4436,0.8038,0.1033,0.0117,141.5074
16:06:56:451,0.0366,-0.1252,11.1332,28.368,1.0966,0.1597,-0.1065,141.414
16:06:56:471,-0.024,-0.1265,9.5064,28.2794,1.2062,0.0362,-0.1011,141.414
16:06:56:491,0.1507,0.1865,8.5452,28.0642,1.0306,-0.1437,-0.1278,141.414
16:06:56:511,0.2981,0.4102,8.4087,27.8522,0.6771,-0.51,-0.3077,141.414
16:06:56:531,0.136,0.6306,7.6413,27.7282,0.1522,-0.8134,-0.4908,141.414
16:06:56:552,-0.0521,0.5904,7.1622,27.7191,-0.1735,-0.5121,-0.56,141.414
16:06:56:572,-0.2915,0.4656,6.6071,27.6234,-0.2619,-0.0277,-0.5302,141.414
16:06:56:592,-0.5334,0.5074,6.0731,27.6833,-0.2193,0.3492,-0.4173,141.414
16:06:56:611,-0.8518,0.6563,5.778,27.4371,-0.1235,0.4684,-0.2789,141.414
16:06:56:631,-1.0013,0.8577,5.9376,27.1444,-0.0373,0.1831,-0.1831,141.414
16:06:56:651,-0.811,1.0558,5.9884,27.0195,0.1192,-0.0958,-0.0735,141.414
16:06:56:671,-0.5176,1.182,6.0596,26.8773,0.2502,-0.1043,0.0224,141.414
16:06:56:692,-0.5973,1.6357,6.7124,27.0572,0.1948,-0.1863,0.0862,141.414
16:06:56:713,-0.4684,2.0365,7.6379,27.3913,-0.0181,-0.4141,0.1033,141.414
16:06:56:732,-0.4704,2.1665,8.7726,27.8126,-0.2608,-0.4727,0.0777,141.414
16:06:56:752,-0.6264,2.1535,10.1458,27.6469,-0.3726,-0.3205,0.1459,141.414
16:06:56:772,-0.4565,2.0637,11.2799,27.6537,-0.263,-0.0724,0.3183,141.414
16:06:56:794,-0.16,1.9175,11.9362,27.2973,-0.1139,0.1192,0.444,141.414
16:06:56:812,-0.1043,2.1533,12.3472,27.0218,-0.1395,0.1022,0.4333,141.414
16:06:56:832,-0.4745,2.7215,13.108,26.8023,-0.2992,-0.115,0.3811,141.414
16:06:56:851,-0.341,2.7106,13.7726,26.7393,-0.3215,-0.1778,0.4344,141.414
16:06:56:872,0.0609,2.0651,13.9185,26.5561,-0.2129,-0.1299,0.3939,141.414
16:06:56:895,-0.0514,1.3064,13.6678,26.1879,-0.0937,-0.1735,0.132,141.414
16:06:56:911,-0.7149,0.658,12.9079,26.0125,0.1491,-0.1757,-0.1118,141.414
16:06:56:932,-1.1686,-0.0144,11.593,25.9782,0.4865,-0.0969,-0.1544,141.414
16:06:56:952,-1.5574,-0.3136,10.018,25.9514,0.7516,-0.0234,-0.0532,141.414
16:06:56:971,-1.7639,-0.0139,8.8522,26.1442,0.8389,0.0277,0.0969,141.414
16:06:56:993,-1.6239,0.1684,8.0791,26.5802,0.6899,-0.1757,0.148,141.414
16:06:57:011,-1.1959,0.3564,7.2966,26.8296,0.3045,-0.3801,0.1586,141.414
16:06:57:032,-0.631,0.3979,6.8535,27.0817,-0.0596,-0.264,0.1959,141.414
16:06:57:052,-0.2087,0.3872,6.5653,27.3432,-0.3268,-0.0564,0.2289,141.414
16:06:57:073,0.1069,0.3722,6.5591,27.3891,-0.4951,0.0596,0.2246,141.414
16:06:57:093,-0.0503,0.7855,6.757,27.226,-0.5323,0.1033,0.1757,141.3232
16:06:57:112,-0.3413,1.2255,6.827,26.8757,-0.4322,0.1746,0.1863,141.2285
16:06:57:132,-0.1755,1.3716,6.625,26.903,-0.263,0.2332,0.2949,141.1299
16:06:57:152,0.2614,1.3987,7.0222,26.6501,-0.1022,0.1363,0.3492,141.0242
16:06:57:172,0.2564,1.6542,8.1196,26.7702,-0.0373,-0.2853,0.1927,140.9103
16:06:57:193,0.0693,1.9742,9.5929,26.859,-0.0064,-0.7495,-0.1299,140.7934
16:06:57:212,0.1332,1.5291,10.6466,26.8766,0.1565,-0.6814,-0.4195,140.6817
16:06:57:232,0.0365,1.1219,10.8107,26.8463,0.3492,-0.1054,-0.494,140.5823
16:06:57:252,-0.2487,1.0022,10.7546,26.6593,0.3652,0.4738,-0.3471,140.5823
16:06:57:273,-1.0031,1.18,11.357,26.5811,0.1395,0.7825,-0.0713,140.5823
16:06:57:294,-1.8879,2.2971,12.3526,26.9819,-0.1501,0.7463,0.2342,140.5823
16:06:57:311,-2.0181,3.1045,13.323,27.0857,-0.2395,0.3801,0.4269,140.5823
16:06:57:331,-1.1474,2.7634,13.7094,27.1128,-0.0213,-0.1001,0.4802,140.5823
16:06:57:351,0.1134,1.6414,13.5956,27.1833,0.2608,-0.6526,0.3056,140.4855
16:06:57:371,0.4062,0.9985,13.5763,26.8501,0.4163,-1.2105,0.0043,140.3799
16:06:57:394,0.4444,0.5494,13.1662,27.1164,0.6611,-1.2691,-0.066,140.2748
16:06:57:411,1.0173,0.1222,11.7876,27.3184,0.8326,-0.8411,0.0075,140.1706
16:06:57:457,1.6585,0.035,10.2896,27.3871,0.6292,-0.4088,0.0128,140.0655
16:06:57:459,2.1258,0.1157,9.0206,27.2701,0.1352,-0.0287,-0.115,139.9616
16:06:57:471,2.2151,0.1517,8.0785,27.0652,-0.3918,0.4621,-0.3151,139.8642
16:06:57:491,1.7654,0.3663,7.46,26.8958,-0.7687,0.9348,-0.5036,139.8642
16:06:57:511,1.0009,0.6536,6.9535,27.0408,-0.8996,1.2456,-0.6218,139.8642
16:06:57:531,0.2474,0.9517,6.5957,27.0991,-0.7921,1.2467,-0.6441,139.8642
16:06:57:551,-0.1263,1.0001,6.18,27.285,-0.5174,0.9965,-0.5951,139.8642
16:06:57:571,-0.3953,1.1665,5.9216,27.4839,-0.2672,0.461,-0.5227,139.8642
16:06:57:592,-0.662,1.4898,6.0538,27.6341,-0.0862,-0.1192,-0.3875,139.8642
16:06:57:611,-0.7622,1.5929,6.6052,27.6401,0.1054,-0.4301,-0.1735,139.8642
16:06:57:631,-0.3605,1.5143,7.233,27.4763,0.3194,-0.5994,-0.0213,139.8642
16:06:57:651,-0.1156,1.6273,8.1658,27.3,0.3481,-0.7602,-0.0181,139.8642
16:06:57:671,-0.1673,2.0574,9.1218,27.06,0.3077,-0.8006,0.0234,139.8642
16:06:57:692,-0.1033,2.1306,10.1458,27.0303,0.3194,-0.577,0.099,139.8642
16:06:57:711,-0.0192,2.2147,10.3718,27.1806,0.3673,-0.0522,0.1842,139.8642
16:06:57:732,0.1841,2.3499,10.2441,27.0125,0.2523,0.3119,0.2278,139.8642
16:06:57:752,0.1458,2.6111,10.5603,27.2743,-0.0681,0.3002,0.1746,139.8642
16:06:57:771,-0.1842,2.7181,11.4833,27.5914,-0.3609,0.1416,0.1341,139.8642
16:06:57:793,-0.3754,2.428,12.6503,27.5154,-0.4173,0.066,0.23,139.8642
16:06:57:813,-0.3416,2.1333,13.2509,27.8008,-0.1906,0.2385,0.4844,139.8642
16:06:57:834,-0.0424,1.9954,13.1698,27.9345,0.1331,0.3162,0.6164,139.8642
16:06:57:851,0.1115,1.6814,12.5756,27.9398,0.3545,0.0426,0.4291,139.8642
16:06:57:872,0.104,1.0107,11.7213,28.2899,0.5281,-0.247,0.1629,139.8642
16:06:57:895,-0.0788,0.2399,10.62,28.5655,0.6143,-0.3492,-0.0958,139.8642
16:06:57:912,-0.4737,-0.089,9.484,28.8829,0.4951,-0.3141,-0.264,139.8642
16:06:57:937,-0.5584,-0.1171,8.6776,29.1792,0.1214,-0.2587,-0.2875,139.8642
16:06:57:954,-0.4137,-0.0194,8.4732,29.4882,-0.395,-0.2087,-0.2619,139.8642
16:06:57:972,-0.1569,-0.059,8.7187,29.4669,-0.7304,-0.1533,-0.2513,139.8642
16:06:57:993,-0.0554,0.1296,8.7334,29.3585,-0.7101,-0.0617,-0.2364,139.8642
16:06:58:012,-0.0094,0.4658,8.1836,29.8395,-0.3567,0.099,-0.131,139.8642
16:06:58:032,0.0822,0.7665,7.3107,29.7324,0.0202,0.1256,0.0319,139.8642
16:06:58:051,0.2806,1.1867,6.393,29.9865,0.1491,0.1043,0.1341,139.8642
16:06:58:071,0.2482,1.6782,5.9624,30.2212,0.1331,0.1395,0.1278,139.8642
16:06:58:092,0.1526,1.7885,5.8956,30.4368,0.0671,0.148,0.0213,139.8642
16:06:58:111,0.0395,1.622,6.2715,30.7177,-0.0607,0.0777,-0.1182,139.8642
16:06:58:132,-0.2445,1.6092,7.3647,30.8415,-0.2321,-0.1065,-0.1842,139.8642
16:06:58:151,-0.2897,1.6929,8.866,31.0489,-0.3673,-0.2257,-0.2576,139.8642
16:06:58:172,-0.6086,1.6407,10.5601,31.1906,-0.3833,-0.0948,-0.3652,139.8642
16:06:58:192,-0.9951,1.291,11.6511,31.2085,-0.2289,0.2694,-0.3354,139.8642
16:06:58:211,-0.8959,0.9964,11.9436,31.3321,-0.1278,0.4844,-0.2704,139.8642
16:06:58:231,-0.9238,1.2887,12.1415,31.6023,-0.3407,0.4418,-0.2747,139.8642
16:06:58:251,-1.2455,1.9913,13.1,31.8634,-0.5281,0.4014,-0.2108,139.8642
16:06:58:271,-1.142,2.1136,13.9411,32.3469,-0.3268,0.3875,-0.05,139.8642
16:06:58:292,-0.894,2.1999,13.6094,32.7112,0.0926,0.4802,0.0405,139.8642
16:06:58:312,-0.8443,2.4495,12.6437,32.9672,0.2502,0.4301,-0.0447,139.8642
16:06:58:331,-0.7845,1.8374,12.279,33.3458,0.1182,0.2055,-0.198,139.8642
16:06:58:351,-0.6759,0.3797,12.3059,33.2797,0.1938,0.0905,-0.2545,139.8642
16:06:58:371,-0.4243,-0.7364,11.48,33.552,0.51,0.0852,-0.1618,139.8642
16:06:58:393,-0.0155,-1.1004,10.2438,33.7411,0.6771,0.0085,0.0351,139.8642
16:06:58:412,0.8109,-1.0267,9.1857,33.8321,0.4599,-0.2736,0.1395,139.8642
16:06:58:432,1.523,-0.7985,8.4668,33.9745,0.049,-0.4653,0.0596,139.8642
16:06:58:453,1.6116,-0.3312,8.1714,34.2756,-0.2459,-0.33,-0.1214,139.8642
16:06:58:472,1.0394,0.5071,7.8265,34.4991,-0.2779,-0.0202,-0.264,139.8642
16:06:58:492,0.4935,0.9781,7.2367,34.8041,-0.1437,0.164,-0.3215,139.9557
16:06:58:512,0.1833,0.9504,6.4546,35.1209,0.0224,0.1086,-0.3524,140.0539
16:06:58:532,-0.1836,1.0279,5.9599,35.2867,0.1203,-0.0713,-0.3588,140.1611
16:06:58:552,-0.6201,1.5152,6.0067,35.4707,0.1821,-0.3098,-0.2821,140.2783
16:06:58:572,-0.5527,1.91,6.1882,35.804,0.2704,-0.4472,-0.1118,140.4036
16:06:58:592,-0.0054,2.0465,6.5509,36.0926,0.3077,-0.5355,0.0096,140.5305
16:06:58:616,0.3969,2.0981,7.2648,36.5011,0.2332,-0.625,-0.016,140.6547
16:06:58:632,0.2548,2.6945,8.6475,36.9287,0.1373,-0.6835,-0.0181,140.7761
16:06:58:651,0.3192,2.7715,9.8966,37.2334,0.1214,-0.6111,0.0192,140.8948
16:06:58:671,0.2183,2.7481,10.6941,37.3693,0.1129,-0.2811,0.0415,141.0086
16:06:58:693,-0.0669,3.1718,11.1852,37.8334,0.0564,0.2183,0.082,141.1155
16:06:58:712,-0.1566,3.1345,11.6136,38.1824,-0.0287,0.5217,0.0884,141.2145
16:06:58:731,-0.2168,2.559,12.1842,38.2868,-0.0958,0.4653,0.0277,141.3075
16:06:58:751,-0.7784,2.1383,12.9664,38.4855,-0.0628,0.165,0.066,141.3977
16:06:58:772,-1.3171,2.2016,13.3874,38.5143,0.2097,0.0415,0.2843,141.3977
16:06:58:792,-1.2851,2.013,12.9364,38.8523,0.5675,0.1139,0.4929,141.3977
16:06:58:811,-0.9226,1.3975,11.8297,39.4324,0.6633,0.0043,0.4844,141.3977
16:06:58:831,-0.5092,0.4903,11.0111,39.6596,0.5195,-0.165,0.3205,141.3977
16:06:58:851,-0.4702,-0.3603,10.0968,39.6242,0.3684,-0.1075,0.1288,141.3977
16:06:58:872,-0.8763,-0.7485,9.3012,39.9622,0.1565,-0.0511,0.0479,141.3977
16:06:58:895,-1.1615,-0.5452,8.9152,40.0592,-0.1789,-0.1224,0.165,141.3977
16:06:58:914,-0.7675,-0.3708,8.924,40.1589,-0.4983,-0.2364,0.3748,141.3977
16:06:58:932,-0.1773,-0.1589,8.9274,40.412,-0.6473,-0.23,0.4599,141.3977
16:06:58:952,0.2837,0.1872,8.6788,40.9716,-0.5824,-0.1118,0.445,141.3977
16:06:58:972,0.5744,0.4061,7.9645,41.3993,-0.346,0.0894,0.444,141.3977
16:06:58:992,0.7514,0.5239,7.0074,41.7569,-0.1203,0.2364,0.4812,141.3977
16:06:59:012,0.7803,0.8926,6.3016,41.9492,-0.033,0.3024,0.527,141.3977
16:06:59:032,0.8222,1.372,6.029,42.0819,-0.0926,0.3481,0.477,141.3977
16:06:59:051,0.8498,1.5935,6.0924,42.0281,-0.1672,0.4291,0.3173,141.3977
16:06:59:072,0.5725,1.8235,6.4645,42.4063,-0.2704,0.4514,0.0405,141.298
16:06:59:092,0.0984,2.0855,7.1265,42.9535,-0.4642,0.3183,-0.2427,141.1988
16:06:59:111,-0.2825,1.883,8.4711,43.2959,-0.6313,0.1437,-0.4386,141.1988
16:06:59:131,-0.6908,1.2053,10.1549,43.7463,-0.5366,-0.0713,-0.4738,141.1988
16:06:59:151,-0.9095,0.8767,11.2579,43.9364,-0.2183,-0.1608,-0.395,141.1988
16:06:59:171,-0.8851,1.1451,11.7189,43.9507,-0.0639,-0.1586,-0.2821,141.1988
16:06:59:192,-0.6884,1.6636,12.117,43.9716,-0.1767,-0.0224,-0.2374,141.1988
16:06:59:211,-0.697,2.06,12.4893,44.1192,-0.3034,0.3662,-0.2417,141.1988
16:06:59:231,-1.0954,2.186,12.9724,44.4932,-0.28,0.5089,-0.1192,141.1988
16:06:59:251,-1.0404,1.8588,13.0963,44.8726,-0.0511,0.3407,0.0979,141.1988
16:06:59:271,-0.4167,1.1122,12.5859,45.2646,0.1491,0.0788,0.1799,141.1988
16:06:59:296,0.1436,0.2024,12.1634,45.5023,0.2023,-0.1874,0.0884,141.1988
16:06:59:313,0.3293,-0.4655,11.8327,45.542,0.2896,-0.3471,0.0511,141.1988
16:06:59:331,0.7436,-0.7079,11.124,45.4984,0.3556,-0.3822,0.0841,141.1988
16:06:59:351,1.2736,-0.713,10.6175,45.5097,0.1139,-0.5355,-0.0021,141.1988
16:06:59:371,1.5959,-0.5588,10.4118,46.1551,-0.2576,-0.4908,-0.1395,141.1988
16:06:59:393,1.7929,-0.5059,10.1328,46.2812,-0.4738,-0.099,-0.2938,141.1988
16:06:59:411,1.3234,-0.2098,9.5642,46.5123,-0.461,0.4216,-0.4472,141.1988
16:06:59:432,0.4026,0.3743,8.6164,46.5713,-0.2513,0.8698,-0.4876,141.1988
16:06:59:473,-0.3584,0.8103,7.3823,46.5991,0.0032,1.0412,-0.4216,141.1988
16:06:59:475,-1.1809,1.1204,6.4109,46.3702,0.148,0.9603,-0.2523,141.1988
16:06:59:492,-1.6887,1.5896,5.7585,46.0723,0.1735,0.6505,0.0511,141.1988
16:06:59:511,-1.5165,1.9409,5.4332,46.221,0.1054,0.2044,0.3215,141.1988
16:06:59:531,-0.8032,1.8204,5.6851,45.9624,-0.0532,-0.2821,0.4322,141.1988
16:06:59:551,-0.0836,1.4621,7.0341,46.1735,-0.1767,-0.8783,0.4205,141.1988
16:06:59:572,0.3681,1.0852,8.5855,46.6207,-0.0362,-1.2467,0.2832,141.1988
16:06:59:592,0.3692,0.9692,9.7583,46.5429,0.181,-1.2723,0.1065,141.1988
16:06:59:611,0.009,1.1051,10.3453,46.8095,0.2534,-0.9646,-0.0117,141.1988
16:06:59:632,-0.4934,1.417,10.7197,47.0092,0.1033,-0.3567,0.0319,141.1988
16:06:59:652,-0.6277,1.4661,11.2965,46.8212,-0.0596,0.264,0.2033,141.1988
16:06:59:672,-0.4191,1.3732,11.8653,46.8484,-0.0894,0.4738,0.2811,141.1988
16:06:59:692,-0.2643,1.2458,12.5072,46.7695,-0.0234,0.2694,0.2449,141.1988
16:06:59:711,-0.3404,1.3505,12.8619,46.7913,0.1735,0.1405,0.2406,141.1988
16:06:59:731,-0.4584,1.4783,12.439,47.0629,0.4195,0.3641,0.3109,141.1988
16:06:59:752,-0.4063,1.4165,11.4957,47.2357,0.4365,0.5345,0.263,141.1988
16:06:59:771,-0.5275,1.2539,10.8358,47.4611,0.2555,0.5462,0.0532,141.1988
16:06:59:797,-0.8384,0.8122,10.5579,47.6398,0.1224,0.4482,-0.1693,141.1988
16:06:59:812,-1.2366,0.3612,10.3814,47.3449,0.1001,0.2342,-0.2587,141.1988
16:06:59:834,-1.1869,-0.2404,10.0571,47.5057,0.0767,-0.0884,-0.2183,141.1988
16:06:59:852,-0.9743,-0.5033,9.8617,47.0394,-0.082,-0.4269,-0.1576,141.1988
16:06:59:871,-0.6722,-0.3315,9.9185,46.8997,-0.2821,-0.5227,-0.0948,141.1988
16:06:59:895,-0.3787,-0.0901,9.832,46.7566,-0.3726,-0.3237,-0.0394,141.1988
16:06:59:911,-0.2623,0.2249,9.1965,46.5763,-0.2332,0.083,0.0394,141.1988
16:06:59:932,-0.4331,0.7468,8.0645,46.9227,0.0202,0.411,0.1672,141.1988
16:06:59:953,-0.6081,1.2395,6.8057,46.7561,0.164,0.4163,0.3109,141.1988
16:06:59:972,-0.5396,1.5034,5.9288,46.9637,0.1192,0.2321,0.3907,141.1988
16:06:59:992,-0.4497,1.5008,5.6212,46.8902,-0.0085,0.0522,0.3939,141.1988
16:07:00:013,-0.3799,1.3676,6.011,46.7858,-0.1235,-0.0692,0.3364,141.1988
16:07:00:031,-0.4422,1.4318,6.8693,46.6457,-0.2055,-0.1959,0.2183,141.1988
16:07:00:051,-0.3549,1.2797,7.9994,46.2825,-0.2193,-0.3439,0.0671,141.1024
16:07:00:071,-0.43,0.6426,9.3908,45.8151,-0.1597,-0.4216,-0.0777,141.0055
16:07:00:092,-0.8038,0.3049,10.6097,45.3932,0.0937,-0.3087,-0.1033,140.9124
16:07:00:111,-0.8989,0.5213,10.8721,45.4588,0.3567,-0.2204,-0.1384,140.9124
16:07:00:132,-0.4867,0.4916,10.8845,45.0196,0.2364,-0.3492,-0.2257,140.9124
16:07:00:151,-0.1306,0.6068,11.2747,45.1143,-0.0596,-0.3013,-0.3886,140.9124
16:07:00:171,-0.3829,0.8422,11.9092,45.3358,-0.2353,0.0298,-0.5142,140.9124
16:07:00:192,-1.0021,1.2292,12.5429,45.5488,-0.2417,0.2523,-0.4535,140.9124
16:07:00:211,-1.0154,1.4201,12.6638,45.4243,-0.1672,0.2555,-0.2129,140.9124
16:07:00:232,-0.398,1.2749,12.4126,45.5221,-0.1363,0.2044,-0.1011,140.9124
16:07:00:251,0.1038,0.736,12.1476,45.2347,-0.1182,0.28,-0.1608,140.9124
16:07:00:272,-0.0362,0.1994,11.8887,44.6596,0.0447,0.4386,-0.2417,140.9124
16:07:00:294,-0.544,0.0186,11.2694,44.1822,0.2906,0.4173,-0.1714,140.9124
16:07:00:312,-0.4484,-0.0511,10.2417,44.1768,0.3865,0.1373,-0.0586,140.9124
16:07:00:333,0.0546,-0.4203,9.6451,43.7424,0.066,-0.4078,-0.0607,140.9124
16:07:00:352,0.4323,-0.5172,9.8449,43.4288,-0.3939,-0.6228,-0.0607,140.9124
16:07:00:371,0.5778,-0.2612,10.0832,43.5375,-0.5749,-0.2906,-0.0319,140.9124
16:07:00:393,0.5193,0.0636,9.4552,43.102,-0.412,0.2576,-0.0511,140.9124
16:07:00:412,0.1367,0.4566,8.1176,42.8728,-0.1203,0.659,-0.1065,140.9124
16:07:00:433,-0.177,0.7636,6.6276,42.8342,0.0862,0.6888,-0.1469,140.9124
16:07:00:452,-0.4892,0.8829,5.6407,42.6272,0.1043,0.4887,-0.1565,140.9124
16:07:00:472,-0.8165,1.0738,5.3688,42.5905,-0.0128,0.2928,-0.0617,140.9124
16:07:00:492,-0.7337,1.4092,5.6782,42.5542,-0.1427,0.2406,0.1139,140.9124
16:07:00:512,-0.4311,1.7071,6.3174,42.4522,-0.2545,0.2779,0.1363,140.9124
16:07:00:532,-0.2647,1.7622,7.5572,42.1824,-0.3354,0.0681,0.0532,140.9124
16:07:00:553,-0.2511,1.5701,9.0596,42.046,-0.3056,-0.3056,-0.0106,140.9124
16:07:00:571,-0.3513,1.429,10.7586,41.9703,-0.0979,-0.5973,0.0181,140.9124
16:07:00:595,-0.3874,1.4387,11.4067,41.6275,0.378,-0.3992,0.1022,140.9124
16:07:00:611,-0.4605,1.8282,10.9961,41.7946,0.5675,-0.0788,0.2076,140.9124
16:07:00:632,-0.4035,2.3763,10.7097,41.2108,0.3034,0.0277,0.2342,140.9124
16:07:00:652,-0.2844,2.4488,11.3842,41.1228,-0.0958,-0.016,0.1842,140.9124
16:07:00:671,-0.3381,2.0032,12.9219,41.034,-0.3034,-0.0979,0.1214,140.9124
16:07:00:695,-0.9413,1.9362,14.3612,40.9431,-0.0703,0.1043,0.2566,140.9124
16:07:00:712,-0.9742,1.7714,14.3554,40.9376,0.4844,0.3769,0.5036,140.9124
16:07:00:731,-0.7693,1.4936,12.9824,40.8229,0.8964,0.2576,0.5323,140.9124
16:07:00:751,-0.6799,0.9697,11.7688,40.8251,0.9678,-0.1448,0.3577,140.9124
16:07:00:771,-0.5436,-0.1835,10.7688,40.4894,0.8922,-0.3833,0.0894,140.9124
16:07:00:794,-0.9019,-1.1112,10.0936,40.4842,0.6814,-0.263,-0.1022,140.9124
16:07:00:812,-1.2856,-1.375,9.5734,40.3517,0.296,-0.0351,-0.1714,140.9124
16:07:00:831,-1.3927,-1.6523,9.1414,40.4117,-0.2225,0.23,-0.1672,140.9124
16:07:00:851,-1.3838,-1.7326,8.8279,40.5608,-0.6494,0.5728,-0.0841,140.9124
16:07:00:871,-1.5751,-1.1405,8.4329,40.7343,-0.8081,0.8773,0.0788,140.9124
16:07:00:895,-1.7823,-0.1552,7.9185,40.4723,-0.6867,0.9294,0.3343,140.9124
16:07:00:911,-1.572,0.5557,7.2959,40.7236,-0.3641,0.6739,0.6484,140.9124
16:07:00:932,-0.9326,0.9335,6.6195,40.6193,0.0351,0.1469,0.8677,140.9124
16:07:00:951,-0.2597,1.2372,6.0949,40.2613,0.4386,-0.6516,0.8837,140.7988
16:07:00:971,0.0121,1.7058,5.5586,40.3087,0.708,-1.4171,0.7272,140.66
16:07:00:991,-0.0632,1.9693,5.4381,40.0427,0.6856,-1.7045,0.5398,140.5009
16:07:01:011,0.0559,1.7977,5.9235,39.8855,0.3343,-1.4799,0.4099,140.3274
16:07:01:032,0.2674,1.6863,7.2943,39.6781,-0.2023,-0.8528,0.2992,140.1446
16:07:01:051,0.7993,1.3832,9.1902,39.4008,-0.5302,-0.1373,0.1341,139.9566
16:07:01:071,0.953,1.3635,10.6711,39.3653,-0.5419,0.362,-0.1852,139.7671
16:07:01:092,0.303,1.355,11.5063,39.2889,-0.4163,0.6399,-0.4344,139.5855
16:07:01:111,-0.4313,1.6254,11.8467,39.3036,-0.2832,0.7389,-0.478,139.4216
16:07:01:132,-0.7322,1.8806,11.8328,39.4693,-0.3194,0.7314,-0.4514,139.2789
16:07:01:152,-0.731,2.0152,12.116,39.2244,-0.4834,0.8102,-0.3929,139.1573
16:07:01:171,-0.7159,1.921,12.6772,39.2686,-0.5462,0.8805,-0.363,139.0538
16:07:01:192,-0.8384,1.5068,12.8812,39.1445,-0.5078,0.7442,-0.3769,139.0538
16:07:01:210,-0.6877,0.1399,13.0759,39.0347,-0.5068,0.3449,-0.4354,139.0538
16:07:01:232,-0.7722,-1.209,13.3902,39.0218,-0.329,-0.017,-0.4567,139.0538
16:07:01:252,-0.9366,-1.8639,13.0629,39.0323,0.1331,-0.1544,-0.3034,139.0538
16:07:01:272,-0.755,-1.8304,11.6451,39.0549,0.6228,-0.2044,-0.0447,139.0538
16:07:01:293,-0.2405,-1.2778,9.8072,38.822,0.79,-0.2853,0.1054,139.0538
16:07:01:312,0.3921,-0.5248,8.3761,38.7251,0.5951,-0.4163,0.0905,139.0538
16:07:01:331,0.8871,0.0407,7.5099,38.6847,0.2087,-0.4983,-0.099,139.0538
16:07:01:351,0.9238,0.6223,7.1945,38.6847,-0.0777,-0.3407,-0.3418,139.0538
16:07:01:372,0.5248,1.0955,6.8057,38.8153,-0.1011,0.0926,-0.5259,139.0538
16:07:01:393,-0.0457,1.4847,6.1022,38.7527,-0.0309,0.477,-0.5909,139.0538
16:07:01:413,-0.304,1.6596,5.5446,38.4544,-0.1086,0.4791,-0.5888,139.0538
16:07:01:432,-0.8448,1.8285,5.938,38.2352,-0.2779,0.1746,-0.5707,139.0538
16:07:01:484,-1.2838,1.5456,6.8101,37.8342,-0.2566,0.0032,-0.4024,139.0538
16:07:01:486,-1.1272,1.0664,7.5286,37.5552,-0.1278,-0.049,-0.1565,139.0538
16:07:01:495,-0.8531,1.2295,7.9731,37.9398,-0.0958,-0.0713,-0.0096,139.0538
16:07:01:511,-0.7064,1.5582,8.9575,37.6353,-0.1735,-0.1789,0.0468,139.0538
16:07:01:531,-0.8038,1.9477,10.5104,37.5435,-0.1363,-0.3428,0.0671,139.0538
16:07:01:551,-0.9292,2.1009,11.372,37.7275,0.1629,-0.2576,0.1746,139.0538
16:07:01:572,-0.9322,2.2714,11.4243,37.3761,0.4056,-0.1043,0.3173,139.0538
16:07:01:592,-0.7718,2.3991,11.5636,37.4389,0.3673,-0.0735,0.3929,139.0538
16:07:01:611,-0.3977,2.3027,12.2674,37.2945,0.165,-0.1565,0.3705,139.0538
16:07:01:631,-0.2935,1.9448,13.2901,37.0277,0.0596,-0.1491,0.3386,139.0538
16:07:01:654,-0.6432,2.0807,13.9454,37.1018,0.2225,0.0032,0.4301,139.0538
16:07:01:672,-0.5394,1.8645,13.6792,36.7991,0.5376,0.0394,0.4929,139.0538
16:07:01:692,-0.1558,0.971,12.8375,36.7193,0.7186,-0.2332,0.329,139.0538
16:07:01:711,0.1029,-0.1033,12.0943,36.4666,0.7655,-0.5068,0.0554,139.0538
16:07:01:731,-0.0308,-0.8525,11.0277,36.3611,0.8389,-0.4738,-0.1852,139.0538
16:07:01:752,-0.4402,-0.9117,9.7014,36.1299,0.7719,-0.3386,-0.3162,139.0538
16:07:01:771,-0.7298,-0.4007,8.618,36.1067,0.4195,-0.2598,-0.363,139.0538
16:07:01:793,-0.5879,-0.0292,7.9111,36.1348,-0.0532,-0.148,-0.4365,139.0538
16:07:01:811,-0.6516,0.3257,7.3713,36.2549,-0.4525,0.0745,-0.6154,139.0538
16:07:01:831,-1.0739,0.683,6.9859,36.1709,-0.6686,0.3343,-0.7346,139.0538
16:07:01:851,-1.4157,0.8359,6.4623,35.9912,-0.6867,0.5408,-0.6984,139.0538
16:07:01:871,-1.594,0.8309,5.9434,35.9883,-0.6079,0.544,-0.5376,139.0538
16:07:01:895,-1.5748,0.8907,5.7485,35.8705,-0.5195,0.297,-0.3215,139.1611
16:07:01:912,-1.359,1.0835,6.1166,35.5243,-0.3982,-0.0149,-0.131,139.2795
16:07:01:932,-1.2292,1.2171,6.7769,36.0097,-0.2097,-0.1373,-0.0043,139.4005
16:07:01:953,-1.0418,1.1197,7.4733,35.8298,-0.033,-0.1171,0.0032,139.5178
16:07:01:972,-0.8539,0.7507,8.2565,35.8569,-0.0341,-0.1491,-0.132,139.6306
16:07:01:992,-1.1146,0.5921,9.2799,35.6365,-0.1852,-0.1757,-0.2715,139.7439
16:07:02:011,-1.5968,0.628,10.5411,35.6012,-0.1576,-0.132,-0.2364,139.8626
16:07:02:032,-1.5553,0.4784,10.9315,35.665,0.1011,0.0341,-0.0948,139.9849
16:07:02:052,-1.3847,0.8078,10.7567,35.3883,0.2097,0.0064,-0.0405,140.1062
16:07:02:071,-1.1103,1.1614,10.8699,35.2146,-0.0149,-0.1373,-0.0884,140.2266
16:07:02:092,-0.9503,1.4605,11.7449,34.9764,-0.3929,-0.1831,-0.198,140.3483
16:07:02:111,-1.0431,1.294,13.1159,34.8248,-0.5728,-0.0256,-0.2119,140.4736
16:07:02:135,-1.1928,1.2471,13.9233,34.3162,-0.363,0.1895,-0.0564,140.6013
16:07:02:151,-0.828,0.9501,13.8029,34.0392,0.0224,0.1725,0.099,140.726
16:07:02:171,-0.194,0.2255,13.215,34.0497,0.3173,-0.131,0.116,140.8439
16:07:02:192,0.1966,-0.4208,12.4427,33.8253,0.6324,-0.3322,0.0767,140.9546
16:07:02:211,0.264,-0.635,11.1302,33.6013,0.8975,-0.3503,0.0319,141.0576
16:07:02:231,0.4305,-0.5873,9.7002,33.3353,0.7676,-0.3737,-0.0256,141.1553
16:07:02:251,0.6373,-0.3787,8.7072,32.8813,0.2449,-0.3396,-0.0948,141.252
16:07:02:271,0.7112,0.0112,8.2811,32.2873,-0.3237,-0.164,-0.1672,141.3509
16:07:02:292,0.5093,0.3742,8.1258,31.769,-0.7218,0.2012,-0.2811,141.4533
16:07:02:311,0.059,0.5651,7.7246,31.5329,-0.8379,0.5142,-0.4205,141.5611
16:07:02:331,-0.5091,0.6452,7.2757,31.1397,-0.7538,0.6143,-0.4876,141.6779
16:07:02:351,-0.9833,0.6356,6.9344,30.8875,-0.5334,0.445,-0.4525,141.807
16:07:02:371,-1.3633,0.8606,6.654,31.0888,-0.2694,0.1884,-0.3268,141.9481
16:07:02:393,-1.5267,1.1372,6.4973,31.0038,-0.0777,-0.0724,-0.0735,142.098
16:07:02:414,-1.0422,1.2465,6.5631,30.8133,-0.0234,-0.1735,0.1906,142.2493
16:07:02:432,-0.3956,1.1804,6.9763,30.5452,-0.1299,-0.2129,0.1884,142.3919
16:07:02:452,-0.3701,1.1924,8.0263,30.1538,-0.3066,-0.3226,0.0703,142.5244
16:07:02:472,-0.6398,1.1639,9.1339,30.0386,-0.3662,-0.2481,0.0916,142.6512
16:07:02:493,-0.5397,0.858,10.0137,29.9962,-0.264,-0.0096,0.1927,142.7701
16:07:02:516,-0.4746,0.6446,10.7042,29.9608,-0.1256,0.1395,0.2736,142.8773
16:07:02:532,-0.5354,0.802,11.2861,29.7304,-0.0256,0.214,0.3694,142.971
16:07:02:552,-0.6415,1.0845,11.9962,29.722,0.0277,0.1533,0.4472,142.971
16:07:02:572,-0.6343,1.0009,12.447,29.5483,0.1203,0.0788,0.5164,142.971
16:07:02:593,-0.4392,1.1113,12.8927,29.2535,0.1331,-0.049,0.6069,142.971
16:07:02:612,-0.157,1.5031,13.3933,29.0562,0.1703,-0.0351,0.7602,142.971
16:07:02:632,0.2641,1.7934,13.5102,28.8235,0.3694,0.1469,0.8166,142.971
16:07:02:652,0.5824,1.5756,12.9303,28.5881,0.5919,0.1182,0.5462,142.971
16:07:02:672,0.376,0.7316,11.8688,28.2321,0.7059,-0.0692,0.1427,142.971
16:07:02:693,0.105,-0.5242,10.71,28.3389,0.7591,-0.2246,-0.1363,142.971
16:07:02:713,-0.4025,-1.2512,9.6321,28.1282,0.7495,-0.296,-0.28,142.971
16:07:02:732,-0.9613,-1.2026,8.6697,27.8055,0.5888,-0.2821,-0.2598,142.971
16:07:02:752,-1.0954,-1.0486,7.9167,27.7106,0.2183,-0.2811,-0.1565,142.971
16:07:02:772,-0.7858,-1.1999,7.6546,27.5574,-0.264,-0.2789,-0.0979,142.971
16:07:02:795,-0.6086,-1.1747,7.7024,27.4256,-0.6558,-0.1544,-0.115,142.971
16:07:02:812,-0.7776,-0.7696,7.7483,27.2857,-0.7729,0.0862,-0.0884,142.971
16:07:02:831,-1.0036,-0.2975,7.4655,27.2507,-0.6558,0.2779,0.0277,142.971
16:07:02:851,-0.8894,0.0597,7.0745,27.1262,-0.4344,0.2811,0.1959,142.971
16:07:02:871,-0.5414,0.4211,6.663,27.1493,-0.2246,0.0969,0.2885,142.971
16:07:02:896,-0.4449,0.8973,6.4757,26.9205,-0.0873,-0.1054,0.2534,142.971
16:07:02:911,-0.6587,1.3795,6.7351,26.94,-0.0277,-0.1895,0.1767,142.971
16:07:02:931,-0.3907,1.3731,6.9522,26.8697,-0.05,-0.1373,0.0788,142.971
16:07:02:952,0.058,1.1027,7.3458,26.8827,-0.3077,-0.0596,-0.1224,142.971
16:07:02:971,0.2875,1.1653,8.5978,26.8773,-0.7325,-0.0564,-0.3503,142.971
16:07:02:991,0.2588,1.4089,10.1509,26.8439,-0.8964,0.2108,-0.577,142.971
16:07:03:011,-0.014,1.3259,11.1694,26.9794,-0.8251,0.461,-0.8134,142.971
16:07:03:031,-0.4745,1.0848,11.8322,26.6819,-0.8262,0.4834,-0.9241,142.971
16:07:03:051,-1.0135,0.7878,12.9796,26.6166,-0.9369,0.2491,-0.8592,142.971
16:07:03:071,-1.4512,0.8185,14.6771,26.4141,-0.8964,0.0415,-0.6537,142.971
16:07:03:092,-1.5754,0.7475,16.051,26.3364,-0.5579,-0.0053,-0.362,143.0682
16:07:03:111,-1.2697,0.4814,16.3018,26.3352,0.0373,0.0628,-0.1182,143.1743
16:07:03:132,-0.7571,-0.1945,15.2,26.2001,0.6377,0.0756,-0.0745,143.2793
16:07:03:152,-0.3633,-1.1471,13.6535,26.1129,1.0348,-0.0979,-0.247,143.3818
16:07:03:173,-0.2683,-1.9038,12.1711,25.8836,1.2786,-0.2864,-0.4312,143.4887
16:07:03:193,-0.1986,-2.2472,10.5655,25.8124,1.4767,-0.2938,-0.4802,143.6062
16:07:03:212,-0.1409,-2.232,9.0453,25.5872,1.5054,-0.2374,-0.4259,143.7357
16:07:03:232,0.0294,-2.0063,7.9444,25.6456,1.2318,-0.297,-0.3492,143.8773
16:07:03:252,0.3245,-1.6752,7.4174,25.6915,0.6984,-0.3918,-0.297,144.0301
16:07:03:272,0.5779,-1.4078,7.1479,25.8666,0.0958,-0.3375,-0.3066,144.1919
16:07:03:293,0.2693,-0.7794,7.1187,26.0859,-0.3652,-0.0096,-0.329,144.3606
16:07:03:312,-0.2626,-0.0836,6.9474,25.9715,-0.5164,0.4269,-0.2555,144.5347
16:07:03:332,-0.5923,0.3926,6.6431,25.968,-0.4131,0.6878,-0.1001,144.7111
16:07:03:351,-0.7085,0.6442,6.3392,26.0847,-0.2055,0.5909,0.0362,144.8858
16:07:03:372,-0.8016,0.9708,6.1989,26.0622,0.0064,0.263,0.0937,145.0554
16:07:03:393,-0.9654,1.3855,6.3258,26.0263,0.1597,-0.1437,0.083,145.2187
16:07:03:412,-0.8493,1.5187,6.3958,26.0544,0.2342,-0.3151,0.0777,145.3756
16:07:03:432,-0.7477,1.4531,6.8895,26.0673,0.1363,-0.4301,0.115,145.5265
16:07:03:451,-0.769,1.5124,8.0527,25.9992,-0.1011,-0.3833,0.1927,145.6703
16:07:03:490,-1.1009,1.9709,9.5765,25.8161,-0.3024,-0.1352,0.3056,145.8042
16:07:03:492,-1.3935,2.2378,10.8108,25.6655,-0.3183,0.1895,0.4525,145.9234
16:07:03:512,-1.3847,2.2733,11.7443,25.511,-0.2097,0.2726,0.6367,146.0232
16:07:03:531,-1.0721,2.3312,12.4126,25.4505,-0.0979,0.0916,0.7027,146.0232
16:07:03:551,-0.8753,2.3913,13.1318,25.3505,-0.0064,-0.148,0.6228,146.0232
16:07:03:573,-0.9385,2.1645,13.8568,25.5051,0.1107,-0.0607,0.6697,146.0232
16:07:03:593,-0.9981,2.0741,14.2066,25.5836,0.2757,0.2278,0.8698,146.0232
16:07:03:612,-0.6993,1.9531,13.9765,25.6242,0.5132,0.4078,0.9688,146.0232
16:07:03:632,-0.3221,1.2295,13.2411,25.5282,0.7229,0.2385,0.7346,146.0232
16:07:03:652,-0.0696,-0.0053,12.282,25.899,0.8624,-0.1384,0.3513,146.0232
16:07:03:672,-0.0789,-1.129,11.2395,25.6609,0.9497,-0.4301,0.0756,145.9236
16:07:03:692,-0.2797,-1.5924,10.082,25.8231,0.9688,-0.4983,-0.0096,145.8229
16:07:03:712,-0.4135,-1.4691,8.8116,26.0906,0.7804,-0.3758,0.0362,145.725
16:07:03:732,-0.3137,-1.1372,7.7636,26.1509,0.3226,-0.2172,0.0564,145.6301
16:07:03:751,-0.1549,-0.7709,7.0808,26.3896,-0.214,-0.0447,-0.0043,145.538
16:07:03:771,-0.3053,-0.2169,6.7938,26.5379,-0.5866,0.1874,-0.0543,145.538
16:07:03:794,-0.6295,0.3977,6.4668,26.7623,-0.7048,0.4503,-0.0213,145.538
16:07:03:813,-0.8399,0.8288,6.0551,26.6025,-0.6686,0.5568,0.0724,145.538
16:07:03:832,-0.913,1.0248,5.7573,26.6764,-0.5866,0.3939,0.2023,145.538
16:07:03:851,-0.8788,1.4117,5.9641,26.8313,-0.4908,0.0575,0.363,145.4465
16:07:03:871,-0.5988,1.6532,6.4989,27.0511,-0.3215,-0.1852,0.4386,145.3475
16:07:03:895,-0.1242,1.6671,7.4483,27.2336,-0.1235,-0.264,0.28,145.2375
16:07:03:912,0.0746,1.0442,8.1072,27.0547,0.0798,-0.017,-0.0053,145.1153
16:07:03:931,-0.3471,0.495,8.8603,26.8124,0.1182,0.1373,-0.1586,144.9921
16:07:03:952,-0.8366,0.567,9.977,26.7772,0.033,-0.0202,-0.1469,144.8776
16:07:03:971,-0.8776,0.6663,11.0012,26.8353,0.0181,-0.0415,-0.1789,144.773
16:07:03:993,-0.893,0.8397,11.6331,27.1987,0.0309,0.099,-0.264,144.6765
16:07:04:012,-0.8251,0.9841,11.8612,27.2278,-0.0522,0.3024,-0.3151,144.6765
16:07:04:033,-0.8142,1.3016,11.9424,27.4151,-0.2364,0.4525,-0.3705,144.6765
16:07:04:052,-1.1154,1.7925,12.2206,27.2521,-0.4535,0.4567,-0.4237,144.6765
16:07:04:072,-1.4203,2.2272,12.6499,26.9813,-0.5707,0.4578,-0.3077,144.6765
16:07:04:092,-1.4655,2.3626,12.9899,27.0072,-0.5004,0.444,-0.0617,144.6765
16:07:04:111,-1.2465,1.7754,13.0888,27.1603,-0.2459,0.2364,0.1054,144.6765
16:07:04:131,-0.9342,0.8406,12.882,27.175,0.1554,-0.132,0.1416,144.6765
16:07:04:153,-0.6604,0.0605,12.0509,27.3561,0.5983,-0.3822,0.1011,144.6765
16:07:04:172,-0.342,-0.3547,10.7882,27.3854,0.8198,-0.5036,0.016,144.6765
16:07:04:192,0.1986,-0.5227,9.6008,27.2617,0.626,-0.5653,-0.1097,144.6765
16:07:04:212,0.8461,-0.8117,8.9018,26.8434,0.0841,-0.593,-0.3237,144.6765
16:07:04:232,1.0043,-1.0347,8.6315,26.7442,-0.4461,-0.4024,-0.5866,144.6765
16:07:04:252,0.5116,-0.9322,8.4286,26.421,-0.6846,0.0064,-0.7665,144.6765
16:07:04:272,-0.2982,-0.4226,8.0523,26.1717,-0.6175,0.4088,-0.7378,144.6765
16:07:04:294,-0.8271,0.0713,7.3964,26.3917,-0.3726,0.5526,-0.5462,144.6765
16:07:04:314,-0.9616,0.3243,6.6734,26.3934,-0.1033,0.3705,-0.3449,144.6765
16:07:04:331,-0.9832,0.6842,6.2109,26.8749,0.0522,-0.0106,-0.2161,144.6765
16:07:04:351,-0.9142,1.096,6.0486,27.1493,0.1341,-0.3418,-0.1011,144.6765
16:07:04:371,-0.5953,1.2176,6.2496,27.4989,0.1629,-0.4333,-0.0266,144.6765
16:07:04:393,-0.2896,0.9814,6.6051,27.6098,0.1416,-0.3769,-0.0713,144.6765
16:07:04:411,-0.4508,1.0421,7.2769,27.5925,0.017,-0.3098,-0.1352,144.6765
16:07:04:433,-0.7338,1.2935,8.226,27.4879,-0.2172,-0.2151,-0.0298,144.7713
16:07:04:451,-0.9523,1.4559,9.3856,27.2668,-0.378,0.0649,0.1789,144.8655
16:07:04:472,-1.1243,1.764,10.5473,27.2094,-0.3524,0.2992,0.3758,144.8655
16:07:04:492,-0.8146,1.8746,11.6597,27.4002,-0.2885,0.2321,0.4802,144.8655
16:07:04:511,-0.3666,1.5923,12.7417,27.4042,-0.296,-0.0756,0.4046,144.8655
16:07:04:531,-0.3527,1.3708,14.0474,27.4125,-0.2353,-0.247,0.2587,144.8655
16:07:04:552,-0.6795,1.4219,14.792,27.5988,0.0053,-0.016,0.2757,144.8655
16:07:04:571,-0.8184,1.6654,14.6415,27.4962,0.3364,0.3226,0.428,144.8655
16:07:04:592,-0.5153,1.6063,13.9789,27.3122,0.5557,0.2449,0.4227,144.8655
16:07:04:612,-0.0915,0.7679,13.4015,27.4185,0.6377,-0.1629,0.1565,144.8655
16:07:04:632,0.0605,-0.5464,12.7924,27.4717,0.7676,-0.444,-0.165,144.8655
16:07:04:653,-0.2922,-1.3127,11.6682,27.5324,0.9678,-0.4663,-0.3492,144.8655
16:07:04:672,-0.7527,-1.3851,10.2401,27.7358,1.0412,-0.4014,-0.363,144.8655
16:07:04:692,-0.9562,-1.1684,8.8128,27.9324,0.8145,-0.3481,-0.3098,144.8655
16:07:04:713,-0.9068,-1.0685,7.7167,28.0643,0.3811,-0.231,-0.2491,144.8655
16:07:04:732,-0.8554,-0.9838,7.0789,28.1365,-0.0245,-0.0096,-0.1991,144.8655
16:07:04:751,-1.0241,-0.6745,6.598,28.4178,-0.2438,0.2417,-0.115,144.8655
16:07:04:771,-1.2474,-0.2007,6.1222,28.6771,-0.263,0.4333,0.0405,144.8655
16:07:04:792,-1.3231,0.2849,5.6979,28.7474,-0.2108,0.4514,0.2385,144.8655
16:07:04:812,-1.2961,0.6802,5.4324,29.1841,-0.1842,0.2555,0.4152,144.8655
16:07:04:831,-1.0989,0.8743,5.5291,29.1216,-0.2065,-0.0437,0.5313,144.8655
16:07:04:851,-0.8356,1.0241,5.9319,29.267,-0.2875,-0.3396,0.5621,144.8655
16:07:04:871,-0.3772,1.1584,6.6504,29.2698,-0.4056,-0.4386,0.4844,144.8655
16:07:04:895,0.1007,1.1742,7.4942,29.188,-0.5238,-0.2353,0.2385,144.8655
16:07:04:912,-0.0387,0.8042,8.7909,29.3084,-0.6452,0.0671,-0.1065,144.8655
16:07:04:932,-0.5794,0.411,10.2245,29.6925,-0.5557,0.445,-0.296,144.8655
16:07:04:952,-1.2401,0.4161,10.9801,30.1624,-0.264,0.8102,-0.3418,144.8655
16:07:04:972,-1.8338,0.9941,11.3089,30.0877,-0.1203,0.938,-0.346,144.8655
16:07:04:992,-2.171,1.4678,11.5768,30.3433,-0.2619,0.758,-0.3332,144.8655
16:07:05:012,-2.3814,1.7089,12.3486,30.1725,-0.5089,0.4429,-0.2747,144.8655
16:07:05:032,-2.3213,1.6711,13.7045,30.0305,-0.6803,0.1725,-0.1001,144.8655
16:07:05:052,-1.9234,1.3754,14.9922,29.9234,-0.576,0.0756,0.1522,144.8655
16:07:05:072,-1.2079,0.7848,15.5569,29.8,-0.214,-0.0085,0.3662,144.8655
16:07:05:100,-0.285,-0.2871,15.1731,29.9492,0.2885,-0.1331,0.395,144.8655
16:07:05:111,0.0075,-1.1351,13.8252,30.3291,0.8794,-0.1171,0.2928,144.8655
16:07:05:132,-0.2476,-1.1095,11.7818,30.3462,1.3606,-0.0681,0.2523,144.8655
16:07:05:152,-0.3062,-0.7293,9.7005,30.4607,1.4234,-0.2097,0.2566,144.8655
16:07:05:172,0.0791,-0.4586,8.251,30.5646,0.9923,-0.4631,0.1863,144.8655
16:07:05:193,0.4813,-0.3922,7.6095,30.2744,0.3769,-0.4908,0.0554,144.8655
16:07:05:211,0.4977,-0.1906,7.2765,30.2683,-0.0713,-0.1906,-0.1086,144.8655
16:07:05:232,0.0458,0.3163,6.8658,30.7125,-0.2747,0.1533,-0.2427,144.8655
16:07:05:251,-0.4263,0.725,6.3145,30.8346,-0.3119,0.3151,-0.2917,144.8655
16:07:05:272,-0.7099,0.8191,5.8066,30.7463,-0.3066,0.2385,-0.2864,144.8655
16:07:05:293,-0.9114,0.9086,5.5229,30.5773,-0.329,0.0075,-0.2161,144.8655
16:07:05:312,-1.0122,1.1209,5.6675,30.711,-0.3503,-0.2097,-0.1001,144.8655
16:07:05:332,-0.8089,1.2119,6.1145,30.8724,-0.3056,-0.2459,0.0149,144.8655
16:07:05:353,-0.3848,1.1576,6.6525,30.9428,-0.2459,-0.2055,0.0575,144.8655
16:07:05:372,-0.1602,1.3152,7.4327,30.8299,-0.1991,-0.2129,-0.0043,144.8655
16:07:05:393,-0.3688,1.6565,8.189,30.5761,-0.1703,-0.1416,-0.0788,144.8655
16:07:05:412,-0.9607,2.1033,9.1861,30.5049,-0.2672,-0.05,-0.0703,144.8655
16:07:05:432,-1.3469,2.4475,10.4194,30.4931,-0.4248,0.1001,0.0798,144.8655
16:07:05:452,-1.3738,2.5074,11.6227,30.3061,-0.5291,0.3822,0.1938,144.8655
16:07:05:502,-1.5931,2.4217,12.8958,30.7623,-0.5685,0.5132,0.1906,144.8655
16:07:05:503,-2.0675,2.2022,14.3251,30.7841,-0.4684,0.4216,0.2523,144.8655
16:07:05:512,-2.2364,1.9425,15.4495,30.6735,-0.1139,0.2449,0.4897,144.8655
16:07:05:533,-1.8821,1.7718,15.7031,30.8306,0.4141,0.0777,0.725,144.8655
16:07:05:551,-1.1632,1.2578,15.0484,30.5786,0.8219,-0.1235,0.6856,144.8655
16:07:05:573,-0.4287,-0.3737,13.776,30.0866,1.0497,-0.1693,0.4312,144.8655
16:07:05:592,-0.225,-1.6797,12.3555,30.2193,1.2222,-0.1171,0.2364,144.7623
16:07:05:611,-0.2999,-2.1005,10.616,30.0556,1.4011,-0.0575,0.2246,144.6529
16:07:05:631,-0.2597,-1.8482,8.7169,29.9502,1.4085,-0.0437,0.2747,144.5402
16:07:05:651,0.1721,-1.6626,6.9723,30.1772,1.0625,-0.165,0.2268,144.4248
16:07:05:672,0.9569,-1.8654,5.6617,30.3518,0.378,-0.2608,0.0287,144.3092
16:07:05:692,1.0481,-1.8022,5.1473,30.3363,-0.4014,-0.1916,-0.2917,144.1992
16:07:05:711,0.0788,-0.7208,5.0812,30.3883,-0.9177,0.1608,-0.4706,144.1026
16:07:05:731,-1.0902,0.4974,5.1223,30.3864,-1.2499,0.5462,-0.4354,144.1026
16:07:05:751,-1.8556,1.0713,5.7116,30.5081,-1.4809,0.6207,-0.2097,144.1026
16:07:05:771,-2.0999,1.014,6.8485,30.2178,-1.399,0.28,0.1043,144.1026
16:07:05:792,-1.7375,0.7656,7.5448,30.1337,-1.0135,-0.2065,0.3077,144.1026
16:07:05:811,-1.4886,1.0441,8.113,29.892,-0.5323,-0.5824,0.3311,144.1026
16:07:05:831,-1.5269,1.2321,8.2351,29.531,-0.0958,-0.625,0.2545,144.1026
16:07:05:851,-1.4665,1.0979,8.2273,29.5729,0.1054,-0.494,0.165,144.0065
16:07:05:871,-1.105,0.6875,8.6552,29.4663,0.0138,-0.3662,0.0383,143.906
16:07:05:895,-0.8818,0.4415,9.4184,29.4895,-0.164,-0.0809,-0.1288,143.8064
16:07:05:912,-1.1058,0.5494,10.4837,29.295,-0.2757,0.2502,-0.2545,143.7102
16:07:05:932,-1.1857,0.6789,11.1637,29.3144,-0.3077,0.4684,-0.3588,143.7102
16:07:05:954,-1.1162,0.619,11.6455,29.1832,-0.4237,0.5089,-0.511,143.7102
16:07:05:971,-1.4339,0.8173,12.2989,29.149,-0.5962,0.5015,-0.5888,143.7102
16:07:05:992,-1.853,0.9367,13.214,29.5628,-0.7144,0.3737,-0.4557,143.7102
16:07:06:012,-1.9036,1.0822,14.2118,29.4356,-0.6313,0.0713,-0.1224,143.7102
16:07:06:032,-1.3895,0.9569,14.8323,29.6783,-0.2864,-0.2246,0.1682,143.7102
16:07:06:052,-0.576,0.1915,14.4764,29.6348,0.1629,-0.4024,0.197,143.7102
16:07:06:073,-0.2238,-0.8619,13.4279,29.5713,0.5217,-0.3801,0.0405,143.7102
16:07:06:092,-0.4942,-1.538,11.9889,29.2239,0.8177,-0.148,-0.1235,143.7102
16:07:06:112,-0.7762,-1.8864,10.3129,29.1602,0.9294,-0.0075,-0.1544,143.7102
16:07:06:131,-0.6775,-2.1349,8.992,29.2549,0.725,-0.1405,-0.132,143.7102
16:07:06:152,-0.2706,-2.2644,8.3338,29.4583,0.2566,-0.4397,-0.1512,143.7102
16:07:06:172,0.0097,-2.0599,8.2034,29.4583,-0.2321,-0.5547,-0.1948,143.7102
16:07:06:192,-0.1261,-1.2801,8.2797,29.4153,-0.5547,-0.3811,-0.1959,143.7102
16:07:06:212,-0.3126,-0.3616,8.2624,29.3947,-0.6367,-0.1459,-0.1086,143.7102
16:07:06:232,-0.3684,0.2303,7.9915,28.9477,-0.4535,0.0319,0.0245,143.7102
16:07:06:252,-0.3424,0.6807,7.4368,28.6911,-0.1416,0.0426,0.1097,143.7102
16:07:06:271,-0.3221,0.9781,6.6832,28.8012,0.148,-0.1288,0.132,143.7102
16:07:06:293,-0.4013,1.099,6.2316,28.6262,0.2864,-0.3673,0.0798,143.7102
16:07:06:316,-0.5206,1.1939,6.188,28.7406,0.3024,-0.4653,0.0575,143.7102
16:07:06:332,-0.5534,1.1939,6.2263,28.8891,0.2087,-0.2811,0.0543,143.7102
16:07:06:352,-0.4861,1.127,7.01,28.6235,-0.0181,-0.1927,0.0586,143.7102
16:07:06:372,-0.2741,1.1031,8.4237,28.6674,-0.1916,-0.1491,0.0979,143.7102
16:07:06:393,-0.1806,1.0255,10.1785,28.6381,-0.198,-0.116,0.0969,143.7102
16:07:06:412,-0.5189,0.9627,11.5591,28.7566,-0.0703,-0.0245,0.1831,143.7102
16:07:06:432,-0.6934,1.3498,12.7372,28.5291,0.0543,-0.0149,0.4557,143.7102
16:07:06:452,-0.1106,1.4632,13.6291,28.3443,0.0873,-0.0681,0.6388,143.7102
16:07:06:473,0.3654,1.4812,14.4573,28.4869,0.0884,-0.049,0.643,143.7102
16:07:06:492,0.522,1.5651,15.0096,28.2517,0.264,0.1033,0.6697,143.7102
16:07:06:512,0.5933,1.6835,14.7715,28.2849,0.6303,0.3045,0.6835,143.6066
16:07:06:532,0.6978,1.4779,13.7195,28.4103,0.905,0.2481,0.4897,143.479
16:07:06:551,0.7299,0.5242,12.6961,28.6703,0.9976,0.0064,0.1384,143.3356
16:07:06:572,0.6658,-0.7995,11.5224,28.491,1.1871,-0.0128,-0.115,143.1879
16:07:06:592,0.2735,-1.5309,9.8157,28.5598,1.3894,0.1011,-0.296,143.0437
16:07:06:612,-0.163,-1.4308,8.1697,28.6063,1.2041,-0.017,-0.4525,142.9113
16:07:06:632,-0.4236,-1.3163,7.1672,28.4875,0.5557,-0.3141,-0.6069,142.8
16:07:06:652,-0.5548,-1.4205,7.0988,28.3932,-0.1703,-0.3268,-0.6878,142.8
16:07:06:672,-0.8133,-1.5017,7.2225,28.5916,-0.6292,-0.0149,-0.6739,142.8
16:07:06:692,-1.2933,-1.0891,7.1621,28.5418,-0.8038,0.3354,-0.5334,142.8
16:07:06:711,-1.6659,-0.508,6.7313,28.6594,-0.7825,0.5259,-0.2417,142.8
16:07:06:731,-1.6587,0.0361,6.2351,29.0183,-0.6654,0.4993,0.0969,142.8
16:07:06:752,-1.386,0.6137,5.9138,28.898,-0.5376,0.2566,0.3481,142.8
16:07:06:772,-0.8387,1.0286,5.8638,28.8019,-0.4014,-0.0692,0.3982,142.8
16:07:06:798,-0.3717,1.2766,6.0248,28.47,-0.264,-0.3237,0.2246,142.8
16:07:06:814,-0.3146,1.3604,6.2303,28.1172,-0.198,-0.3769,-0.0713,142.8
16:07:06:831,-0.7497,1.279,6.8359,27.8451,-0.3492,-0.3907,-0.3098,142.8
16:07:06:852,-0.9246,0.7865,8.0809,27.7373,-0.6239,-0.3343,-0.3418,142.8
16:07:06:872,-1.024,0.4437,9.6154,27.5435,-0.7772,-0.016,-0.2374,142.8
16:07:06:895,-0.9799,0.5464,10.8944,27.4365,-0.7804,0.3939,-0.1043,142.8
16:07:06:911,-0.7535,0.6377,12.2148,27.3233,-0.8964,0.4567,-0.0916,142.8
16:07:06:932,-0.4345,0.3691,13.8034,27.5625,-0.9433,0.3268,-0.1608,142.8
16:07:06:952,-0.371,0.0515,15.2006,27.5194,-0.7825,0.1437,-0.2491,142.8
16:07:06:972,-0.5573,0.2192,16.2663,27.5738,-0.4897,-0.082,-0.2183,142.8
16:07:06:992,-0.6162,0.5176,16.6696,27.5262,-0.016,-0.0926,-0.0277,142.8
16:07:07:012,-0.3368,0.5416,15.7418,27.599,0.5504,0.0362,0.1235,142.8
16:07:07:032,0.0969,0.0598,13.852,27.0325,0.84,0.0511,-0.0394,142.8
16:07:07:052,-0.0372,-0.7891,12.3385,26.9778,0.8634,-0.0447,-0.3492,142.8
16:07:07:072,-0.3969,-1.6093,11.2125,26.7933,0.9986,-0.049,-0.4716,142.8
16:07:07:093,-0.7837,-2.025,9.7497,26.4923,1.1807,-0.0096,-0.4152,142.8
16:07:07:112,-0.7975,-2.0732,8.3575,26.3227,1.1307,-0.0937,-0.2214,142.8
16:07:07:132,-0.3103,-1.983,7.3619,26.3253,0.7783,-0.3087,-0.0405,142.8
16:07:07:152,0.2001,-1.8043,6.868,26.2054,0.3162,-0.4099,-0.0085,142.8
16:07:07:172,0.3564,-1.4277,6.5704,26.1774,-0.0277,-0.2268,-0.1043,142.8
16:07:07:194,-0.0065,-0.8526,6.1729,26.0123,-0.1757,0.1395,-0.181,142.8
16:07:07:212,-0.4857,-0.1306,5.8467,25.6517,-0.1927,0.4163,-0.1363,142.8
16:07:07:232,-0.6451,0.3518,5.4969,25.4931,-0.1618,0.4344,0.0053,142.8
16:07:07:252,-0.4522,0.6334,5.4737,25.4482,-0.1246,0.2161,0.1682,142.8
16:07:07:272,-0.1318,1.0966,5.8647,25.4426,-0.1182,-0.1448,0.2353,142.8
16:07:07:294,0.0654,1.7038,6.4928,24.9423,-0.1224,-0.5547,0.1086,142.8
16:07:07:313,0.2347,2.1999,7.1409,24.8233,-0.2065,-0.7921,0.0011,142.8
16:07:07:331,0.6827,2.0008,8.1821,24.4244,-0.4301,-0.8251,0.0287,142.8
16:07:07:351,1.2225,1.5836,9.8866,24.0167,-0.6452,-0.6079,0.0468,142.8
16:07:07:371,1.2364,1.8365,11.5711,23.8816,-0.5738,-0.1427,0.0202,142.8
16:07:07:393,0.9134,1.9426,12.6213,23.8754,-0.2481,0.3311,-0.049,142.8
16:07:07:412,0.2718,1.7188,13.0408,23.8168,0.1097,0.5408,-0.0479,142.8
16:07:07:432,-0.4173,1.6638,13.3962,23.4872,0.3343,0.4876,0.0894,142.8
16:07:07:451,-0.8278,1.8768,13.7402,23.1709,0.3801,0.1884,0.1852,142.8
16:07:07:472,-0.9565,1.9587,13.9753,23.0642,0.4195,0.0905,0.2608,142.8
16:07:07:524,-0.8498,1.7146,13.8344,22.9153,0.6888,0.3556,0.3716,142.8
16:07:07:526,-0.911,1.5602,12.9064,22.9912,0.9901,0.4525,0.3449,142.8
16:07:07:531,-0.9598,0.999,11.8644,22.8033,1.0615,0.1267,0.165,142.8
16:07:07:551,-0.8142,-0.2724,11.2135,22.9681,0.9805,-0.379,-0.0681,142.8
16:07:07:572,-0.843,-1.1023,10.7514,23.0505,0.8783,-0.6473,-0.2183,142.8
16:07:07:592,-0.8877,-1.5169,10.1502,22.6803,0.7197,-0.5728,-0.2779,142.8
16:07:07:611,-0.8154,-1.7292,9.3827,22.5408,0.4195,-0.3205,-0.3024,142.8
16:07:07:631,-0.6265,-1.7746,8.6873,22.4264,-0.0224,-0.099,-0.3332,142.8
16:07:07:651,-0.5859,-1.6439,7.9997,22.5702,-0.428,0.1501,-0.3822,142.8
16:07:07:671,-0.936,-1.2565,7.2957,22.3164,-0.6388,0.4514,-0.3897,142.8
16:07:07:692,-1.4591,-0.4841,6.5869,22.3276,-0.6899,0.7144,-0.2278,142.8
16:07:07:712,-1.6918,0.1638,6.0333,22.3581,-0.6633,0.7921,0.0905,142.8969
16:07:07:733,-1.5019,0.6644,5.7192,22.2734,-0.6292,0.6452,0.4014,142.991
16:07:07:751,-1.1929,1.1161,5.8937,22.1837,-0.5856,0.3939,0.5568,142.991
16:07:07:772,-0.9247,1.4255,6.3047,22.0214,-0.5004,0.1586,0.5195,142.991
16:07:07:793,-0.8653,1.5152,6.9786,22.2953,-0.3992,-0.0596,0.3439,142.991
16:07:07:812,-0.6968,1.1986,7.9447,22.1615,-0.3141,-0.3087,0.1129,142.991
16:07:07:832,-0.4329,0.7352,8.9638,21.9947,-0.2715,-0.3577,-0.1235,142.991
16:07:07:851,-0.6278,0.0215,9.9579,21.712,-0.2172,-0.0681,-0.2928,142.991
16:07:07:871,-1.2592,-0.3105,11.0729,21.4131,-0.0809,0.3897,-0.2417,142.991
16:07:07:895,-1.7985,0.2817,11.5514,21.4586,0.1522,0.7442,-0.0841,142.991
16:07:07:912,-1.828,1.013,11.459,21.6153,0.2065,0.6601,-0.0841,142.991
16:07:07:932,-1.6561,1.1861,11.695,21.7777,0.0266,0.3226,-0.2417,142.991
16:07:07:952,-1.6204,1.1146,12.3894,21.6702,-0.0862,0.231,-0.3748,142.991
16:07:07:972,-2.0313,1.0949,12.8347,21.4675,-0.0106,0.3822,-0.3162,142.991
16:07:07:992,-2.546,1.7203,12.874,21.448,0.1693,0.4322,-0.0639,142.991
16:07:08:011,-2.4262,2.243,12.5943,21.1776,0.3311,0.1757,0.2204,142.991
16:07:08:031,-1.5644,1.778,12.3637,21.1607,0.4706,-0.148,0.3183,142.991
16:07:08:052,-1.0732,0.9752,11.8575,21.2777,0.7304,-0.2779,0.148,142.991
16:07:08:072,-1.2073,0.0421,10.9176,21.3859,0.9901,-0.3013,-0.0266,142.991
16:07:08:092,-1.4305,-0.4557,9.651,21.2226,1.0764,-0.2513,-0.0511,142.991
16:07:08:112,-1.3495,-0.5439,8.6388,21.6064,0.7655,-0.3332,-0.0075,142.991
16:07:08:132,-0.8063,-0.7401,8.5861,21.6695,0.0852,-0.4983,-0.0096,142.991
16:07:08:153,-0.323,-0.995,9.0593,21.4805,-0.5036,-0.3045,-0.0798,142.991
16:07:08:172,-0.4119,-0.7654,9.0948,21.4814,-0.6132,0.2289,-0.164,142.991
16:07:08:193,-0.9672,-0.1854,8.3916,21.7595,-0.4472,0.6665,-0.1672,142.991
16:07:08:211,-1.4386,0.3653,7.2166,21.9479,-0.2278,0.7229,-0.0894,142.991
16:07:08:233,-1.7081,0.9347,6.2191,22.1885,-0.1043,0.4237,0.0266,142.991
16:07:08:252,-1.7856,1.449,5.7364,22.5227,-0.1363,-0.0554,0.1405,142.991
16:07:08:272,-1.5783,1.5805,5.9143,22.9062,-0.2555,-0.3418,0.2278,142.991
16:07:08:294,-1.3301,1.4616,6.4787,22.9369,-0.3524,-0.3726,0.2023,142.991
16:07:08:316,-1.4258,1.3107,7.0763,22.9372,-0.4333,-0.3013,0.0767,142.991
16:07:08:332,-1.7039,0.905,7.823,22.9766,-0.5643,-0.2513,-0.0138,142.991
16:07:08:352,-2.2658,0.5656,8.7051,22.577,-0.6409,-0.1948,0.0373,142.991
16:07:08:372,-2.8216,0.3069,9.5052,22.6075,-0.5909,-0.131,0.3173,142.991
16:07:08:393,-2.9688,0.3519,10.2545,22.2996,-0.4322,-0.0724,0.7378,142.991
16:07:08:412,-2.8098,0.5187,10.5948,22.3951,-0.1938,-0.082,1.0998,142.991
16:07:08:434,-2.552,0.7901,10.7829,22.4572,0.0564,-0.1086,1.3425,142.991
16:07:08:452,-2.3857,1.237,10.8056,22.6831,0.2289,-0.1459,1.4554,142.991
16:07:08:471,-2.4391,1.5023,10.8302,22.6786,0.2481,-0.2076,1.5022,142.8919
16:07:08:491,-2.7952,1.6013,11.172,22.9541,0.1618,-0.2119,1.6321,142.7451
16:07:08:511,-3.4283,1.8655,11.6488,23.1026,0.1959,-0.1214,1.8898,142.548
16:07:08:533,-4.1172,2.0482,11.7836,23.0799,0.3354,-0.1043,2.1772,142.2931
16:07:08:551,-4.3924,1.2321,11.7087,23.0818,0.3354,-0.5238,2.4189,141.9732
16:07:08:571,-4.0023,-0.5696,12.5202,23.3349,0.1256,-1.4532,2.5796,141.5854
16:07:08:591,-3.4512,-1.7492,13.5707,23.6161,0.2129,-2.042,2.7521,141.5854
16:07:08:611,-2.8986,-2.118,13.4807,24.0616,0.6356,-1.9377,2.9331,141.5854
16:07:08:631,-2.2267,-1.9105,12.5828,24.9062,0.9773,-1.4586,3.1418,141.5854
16:07:08:651,-1.1983,-1.4832,11.2978,25.232,1.0572,-0.8858,3.2568,141.5854
16:07:08:671,-0.266,-0.9352,10.1238,25.7403,0.9337,-0.362,3.1333,141.5854
16:07:08:691,-0.031,-0.324,8.9693,25.9093,0.8038,0.1852,2.8458,140.5794
16:07:08:713,-0.2585,0.1661,7.8709,26.2835,0.7538,0.6899,2.5935,139.4984
16:07:08:731,-0.388,0.4406,6.7466,26.2734,0.7091,0.9784,2.4221,138.3544
16:07:08:751,-0.269,0.7591,5.9988,26.5717,0.5345,0.9699,2.2251,137.1566
16:07:08:771,-0.213,1.2075,5.5627,26.4497,0.2438,0.9699,1.9632,135.9148
16:07:08:792,-0.1357,1.3128,5.6389,26.5996,-0.1512,0.9901,1.6715,134.6419
16:07:08:812,0.1534,0.8282,6.2524,26.6222,-0.5781,0.823,1.3244,133.3501
16:07:08:831,0.155,0.1936,7.5586,26.4685,-0.8645,0.5451,0.9475,132.0535
16:07:08:851,-0.2128,-0.3937,9.146,26.6776,-0.8304,0.2406,0.6739,130.7641
16:07:08:871,-0.4689,-0.9083,9.9407,26.7915,-0.4376,0.2662,0.5526,129.4897
16:07:08:896,-0.6408,-1.1667,9.7885,26.6413,-0.016,0.6718,0.5557,128.2337
16:07:08:911,-0.74,-1.0484,9.0839,26.794,0.131,1.0189,0.6164,126.9941
16:07:08:932,-0.5783,-0.5255,8.5473,26.9469,0.0511,1.1573,0.642,125.7711
16:07:08:951,-0.5215,0.0151,8.3062,26.704,-0.0841,0.9965,0.5174,124.5634
16:07:08:971,-0.8513,0.1338,8.526,26.575,-0.1927,0.7059,0.4365,123.3736
16:07:08:992,-1.0005,0.0254,9.3168,26.6104,-0.3205,0.2619,0.5015,122.2046
16:07:09:011,-0.7993,-0.1847,10.4855,26.8806,-0.4461,-0.2417,0.6207,121.0549
16:07:09:031,-0.23,0.0001,11.8588,27.0356,-0.5174,-0.5579,0.6622,119.9199
16:07:09:052,0.2482,0.3738,12.4761,27.2108,-0.5781,-0.263,0.5142,118.7973
16:07:09:072,0.2652,0.4057,12.3902,27.7573,-0.8677,0.5142,0.3545,117.6923
16:07:09:092,-0.2448,0.0344,12.6285,27.8687,-1.2904,1.3308,0.3513,116.6153
16:07:09:112,-0.994,-0.1065,13.4245,27.8094,-1.3851,1.68,0.6271,115.564
16:07:09:131,-1.296,-0.1007,13.0352,27.9152,-0.8879,1.4256,1.1094,114.5205
16:07:09:152,-1.0071,0.8767,12.4031,28.0795,-0.477,0.8475,1.5065,113.4698
16:07:09:172,-0.0299,1.2267,11.255,28.492,-0.4259,0.1001,1.4479,112.3974
16:07:09:194,0.3706,1.2342,10.7533,28.6496,-0.511,-0.3375,1.0806,111.3058
16:07:09:212,-0.0947,0.7741,10.5941,29.1302,-0.5515,-0.3929,0.6835,110.2045
16:07:09:231,-1.0283,0.3216,10.4217,29.4119,-0.4535,-0.2065,0.5323,109.1082
16:07:09:251,-1.5677,-0.0396,9.976,29.6069,-0.2523,0.0106,0.6526,108.0238
16:07:09:272,-1.5306,-0.2312,9.3525,29.6129,0.0032,0.0202,0.8411,106.9484
16:07:09:292,-1.2148,-0.1471,8.616,29.7032,0.2768,-0.1608,0.9231,105.8747
16:07:09:311,-0.8543,0.0721,7.9349,29.6299,0.5494,-0.3662,0.8783,104.8
16:07:09:331,-0.5177,0.0763,7.23,29.5202,0.7229,-0.577,0.7229,103.725
16:07:09:352,-0.1356,-0.0634,6.8304,29.6233,0.7037,-0.7463,0.4876,102.6543
16:07:09:371,-0.0649,-0.1974,6.9289,29.5982,0.5643,-0.7176,0.2736,101.5992
16:07:09:393,-0.0513,-0.3037,7.454,29.2664,0.4706,-0.5366,0.1672,100.5652
16:07:09:412,0.0412,-0.5772,7.7814,29.2258,0.3929,-0.2289,0.1129,99.5581
16:07:09:432,0.2224,-0.8364,8.1478,28.6392,0.2513,-0.0021,0.0894,98.5785
16:07:09:452,0.3587,-1.0878,8.7577,28.1926,0.0735,0.1842,0.0788,97.6269
16:07:09:472,0.1633,-1.0811,9.3361,27.7783,-0.0149,0.379,0.1097,96.7029
16:07:09:492,-0.226,-0.5963,9.7154,27.722,-0.0298,0.5302,0.2576,95.804
16:07:09:541,-0.5531,0.2991,9.9603,27.5586,-0.1065,0.4791,0.5366,94.9252
16:07:09:543,-0.5843,1.0756,10.5323,27.635,-0.3183,0.1916,0.8294,94.0574
16:07:09:551,-0.1114,1.4142,11.8492,27.7113,-0.5004,-0.263,1.12,93.1899
16:07:09:571,0.6557,1.7106,13.3313,27.9881,-0.378,-0.6729,1.2808,92.3105
16:07:09:593,1.006,2.117,13.9538,28.2467,-0.0692,-0.7272,1.1477,91.4111
16:07:09:611,1.0091,1.9731,13.9917,28.6976,0.0905,-0.6995,0.8709,90.4951
16:07:09:631,1.2162,1.3947,14.111,29.0792,0.2545,-0.6686,0.757,89.5735
16:07:09:651,1.8094,0.9383,13.7977,29.2926,0.6218,-0.6516,0.6196,88.6506
16:07:09:672,2.0434,0.7558,12.7481,29.7361,0.9603,-0.5749,0.1703,87.729
16:07:09:692,1.4473,0.7554,11.5194,30.1248,0.9177,-0.6079,-0.3939,86.8219
16:07:09:711,0.7151,0.1212,10.9624,30.3365,0.593,-0.5909,-0.7697,85.9503
16:07:09:733,0.0611,-0.8692,10.7704,30.4735,0.3077,-0.3822,-0.9699,85.13
16:07:09:752,-0.5724,-1.6229,10.4109,30.5882,0.2119,-0.0021,-1.0008,84.3681
16:07:09:772,-1.1674,-1.9042,9.4641,30.573,0.3087,0.5078,-0.8208,83.6651
16:07:09:793,-1.658,-1.9008,8.0873,30.4677,0.5568,1.0348,-0.4663,83.0141
16:07:09:813,-1.8842,-1.5533,6.5278,30.4611,0.8485,1.4085,-0.0426,82.4015
16:07:09:831,-1.8552,-1.1543,5.1464,30.5352,0.9965,1.3809,0.3173,81.8114
16:07:09:852,-1.7306,-0.4999,4.0442,30.3582,0.9465,0.9923,0.5366,81.2293
16:07:09:871,-1.5293,0.1012,3.3789,30.2958,0.692,0.4429,0.6399,80.6468
16:07:09:895,-1.0641,0.4067,3.3607,30.4342,0.2172,-0.0916,0.7208,80.0593
16:07:09:911,-0.3972,0.5483,3.8846,30.4202,-0.5323,-0.5834,0.7527,79.4686
16:07:09:932,0.4451,0.5838,5.2754,30.3563,-1.2148,-0.8666,0.6367,78.8728
16:07:09:951,0.8512,0.5386,7.4708,30.5691,-1.5608,-0.8773,0.3183,78.2744
16:07:09:972,0.6363,1.0441,10.1856,30.6362,-1.4298,-0.609,-0.0575,77.682
16:07:09:992,0.4398,1.0686,12.237,30.6031,-0.9188,-0.1533,-0.3609,77.1069
16:07:10:011,0.256,0.3209,12.1829,30.7962,-0.3769,0.4493,-0.6058,76.5582
16:07:10:032,-0.566,0.2655,11.4184,30.9492,-0.2864,0.8379,-0.725,76.045
16:07:10:053,-1.6543,0.9887,11.6505,30.6518,-0.7442,0.8368,-0.675,75.5738
16:07:10:072,-2.4284,1.365,13.0344,30.9739,-1.0189,1.0114,-0.395,75.1463
16:07:10:093,-2.761,1.3956,14.2174,31.2418,-0.7112,1.2382,-0.0511,74.7493
16:07:10:111,-2.6995,1.4162,14.2972,31.3012,-0.2087,0.9742,0.1533,74.3624
16:07:10:131,-2.3272,1.0235,13.6956,31.4002,0.2108,0.3939,0.2747,73.9771
16:07:10:152,-2.1003,0.2601,13.1442,31.6659,0.4546,-0.1224,0.3865,73.5903
16:07:10:172,-2.1266,-0.1379,12.6864,31.3412,0.5962,-0.477,0.5632,73.2015
16:07:10:192,-1.7485,-0.7076,12.0619,31.1532,0.5877,-0.7357,0.7697,72.8048
16:07:10:212,-0.9558,-1.1725,11.3027,31.3531,0.4344,-0.8326,0.9188,72.3984
16:07:10:233,-0.0912,-1.3404,10.4824,31.1715,0.2864,-0.692,0.9486,71.9744
16:07:10:251,0.4689,-1.1128,9.4945,31.0311,0.2289,-0.4184,0.8709,71.5341
16:07:10:272,0.6087,-0.735,8.3103,31.0283,0.3066,-0.0894,0.7815,71.0779
16:07:10:294,0.6468,-0.4453,7.0871,30.9522,0.4333,0.1821,0.7325,70.6084
16:07:10:316,0.6662,-0.1939,6.101,30.9205,0.4961,0.2374,0.7027,70.1279
16:07:10:332,0.7701,0.1987,5.5199,31.0403,0.5025,0.1097,0.6856,69.6378
16:07:10:352,1.0786,0.584,5.2341,30.9458,0.5504,-0.0287,0.6367,69.1381
16:07:10:372,1.2965,1.1108,5.1329,31.2146,0.5824,0.0309,0.4748,68.6309
16:07:10:393,1.3014,1.4849,4.9554,31.0182,0.4887,0.1533,0.1874,68.1216
16:07:10:411,1.1875,1.7009,4.961,30.9514,0.1192,0.1597,-0.1554,67.6216
16:07:10:432,1.2026,1.716,5.8532,31.1461,-0.5281,-0.2214,-0.4589,67.1418
16:07:10:451,0.9601,1.6634,7.717,31.2296,-1.0359,-0.4056,-0.642,66.6916
16:07:10:472,0.5132,1.6255,9.9494,31.2241,-1.0923,-0.346,-0.6175,66.2769
16:07:10:492,0.4059,1.5633,11.358,31.7196,-0.8336,-0.2268,-0.3513,65.8955
16:07:10:511,0.9467,1.4713,12.0407,31.7169,-0.6345,-0.2033,0.0192,65.5383
16:07:10:532,1.5464,1.3427,13.1386,31.7304,-0.7101,-0.4844,0.1501,65.1929
16:07:10:552,1.4408,1.544,14.3407,31.9871,-0.7123,-0.8443,-0.0309,64.8518
16:07:10:572,1.132,1.4068,14.7408,31.7248,-0.3811,-0.6367,-0.2108,64.5182
16:07:10:592,0.6987,0.9238,14.0607,31.6281,0.0405,-0.017,-0.1906,64.2004
16:07:10:613,0.0165,0.7294,13.6675,31.7397,0.363,0.4823,-0.0724,63.8993
16:07:10:632,-0.2778,0.1152,13.1126,31.9097,0.691,0.5738,0.0106,63.6101
16:07:10:652,-0.2767,-0.9319,12.1465,32.1449,0.9135,0.28,-0.116,63.3266
16:07:10:672,-0.3828,-1.4733,11.309,32.38,0.9113,-0.2289,-0.378,63.0507
16:07:10:692,-0.4237,-1.4817,10.8002,32.3003,0.7176,-0.4791,-0.5366,62.7921
16:07:10:712,-0.1436,-1.5549,10.4597,32.6371,0.5345,-0.362,-0.6058,62.5595
16:07:10:732,0.3014,-1.6472,9.601,32.4367,0.3364,-0.0511,-0.6729,62.3563
16:07:10:752,0.373,-1.6433,8.4764,32.1886,0.1235,0.3418,-0.7208,62.185
16:07:10:771,0.0692,-1.3908,7.2414,32.4339,-0.049,0.7697,-0.6792,62.0472
16:07:10:793,-0.4128,-0.8889,6.0942,32.3881,-0.1384,1.1573,-0.4642,61.9407
16:07:10:813,-1.0085,-0.2429,5.3933,32.3898,-0.1586,1.3723,-0.0884,61.9407
16:07:10:831,-1.3459,0.4055,5.136,32.6121,-0.1097,1.2318,0.411,61.9407
16:07:10:851,-1.3319,0.8955,5.0603,32.694,-0.033,0.8294,0.9188,61.9407
16:07:10:871,-0.8843,0.9563,5.4246,32.5892,0.0202,0.2576,1.2105,61.8202
16:07:10:895,-0.4868,0.9587,6.2417,32.3472,0.0607,-0.5057,1.0859,61.6585
16:07:10:913,-0.1194,1.1476,7.199,32.2085,0.0777,-1.1956,0.5909,61.4579
16:07:10:932,0.2762,0.9627,8.4813,32.0879,-0.116,-1.4745,0.0298,61.2362
16:07:10:952,0.2982,0.4512,9.6403,31.9979,-0.395,-0.856,-0.2853,61.0186
16:07:10:971,-0.3352,-0.0214,10.4954,32.1027,-0.6697,0.1107,-0.2332,60.8228
16:07:10:992,-1.1236,-0.633,11.5528,32.297,-1.087,1.1158,0.1278,60.6496
16:07:11:011,-2.3259,-0.5797,13.4728,32.4007,-1.5246,1.9707,0.6228,60.4881
16:07:11:032,-2.9196,0.4163,15.7261,32.205,-1.4564,2.5722,0.7602,60.4881
16:07:11:052,-3.1193,1.442,16.7071,32.0345,-0.7591,2.3518,0.494,60.2821
16:07:11:072,-2.8545,1.3223,15.6873,32.072,0.0426,1.598,0.5526,60.0505
16:07:11:092,-2.4268,0.9075,14.4171,32.0382,0.6186,0.3567,0.5089,59.7981
16:07:11:113,-1.8999,0.0329,13.3232,32.1341,1.0199,-0.7016,0.5824,59.5302
16:07:11:131,-0.8412,-1.097,11.9274,31.9385,1.3521,-1.1818,0.7282,59.2517
16:07:11:153,0.2168,-1.3663,10.2786,31.6671,1.4937,-1.2158,0.7932,58.9631
16:07:11:171,1.135,-1.0059,8.8029,31.3579,1.3553,-1.0764,0.7602,58.6653
16:07:11:193,1.9026,-0.4842,7.7822,30.8052,0.9241,-0.9646,0.4844,58.3563
16:07:11:211,2.2368,-0.0833,7.131,30.7348,0.2736,-0.8198,-0.0287,58.0489
16:07:11:231,1.8752,0.1884,6.9702,30.4383,-0.3386,-0.411,-0.5526,57.7556
16:07:11:252,1.0572,0.3355,6.7639,30.08,-0.6824,0.1725,-0.8528,57.4929
16:07:11:273,0.2977,0.4805,6.3554,30.083,-0.7996,0.6643,-0.8964,57.2708
16:07:11:292,-0.207,0.4408,6.092,30.1358,-0.8081,0.8315,-0.7708,57.0845
16:07:11:312,-0.528,0.371,6.0517,29.898,-0.6537,0.577,-0.5941,56.9267
16:07:11:333,-0.906,0.4105,6.2597,30.103,-0.4312,0.2353,-0.3971,56.7887
16:07:11:351,-1.1636,0.7176,6.5447,29.913,-0.1842,-0.1991,-0.1448,56.6635
16:07:11:371,-1.096,0.897,6.5229,29.8037,0.0011,-0.4099,0.0586,56.5441
16:07:11:393,-0.8302,1.135,6.6603,29.6918,-0.0479,-0.5376,0.1299,56.4256
16:07:11:413,-0.6025,1.5824,7.4367,29.7696,-0.3311,-0.7272,0.0777,56.3074
16:07:11:431,-0.6048,1.6702,8.7639,29.6433,-0.6228,-0.7623,0.0213,56.1899
16:07:11:451,-0.606,1.1871,10.7799,29.5775,-0.7825,-0.5419,0.0841,56.0754
16:07:11:471,-0.5943,0.7975,12.7594,29.5285,-0.7165,-0.1778,0.2406,55.9619
16:07:11:492,-0.6079,0.6736,13.9237,29.2662,-0.4684,0.2598,0.3662,55.8438
16:07:11:512,-0.9182,0.7434,14.7259,29.3036,-0.2736,0.4322,0.3577,55.7159
16:07:11:556,-1.3907,1.1399,15.2315,29.3554,-0.1054,0.3822,0.4503,55.5774
16:07:11:557,-1.3261,1.0602,15.4098,29.5832,0.1821,0.2002,0.659,55.4246
16:07:11:571,-0.9105,0.728,15.1645,30.0553,0.5057,-0.2033,0.6409,55.2544
16:07:11:592,-0.2048,-0.2552,14.3037,30.2961,0.8113,-0.6143,0.378,55.0636
16:07:11:611,-0.0556,-1.1929,12.8928,30.3061,1.0785,-0.6952,0.0319,54.8622
16:07:11:631,-0.603,-1.2091,11.1716,30.499,1.2158,-0.5408,-0.1672,54.6646
16:07:11:651,-1.1006,-0.9269,9.5671,30.4869,1.0774,-0.3492,-0.2012,54.4815
16:07:11:671,-1.1895,-0.6306,8.3721,30.6323,0.6718,-0.2875,-0.2012,54.3156
16:07:11:692,-0.9305,-0.7354,7.6534,31.1002,0.197,-0.2608,-0.2257,54.1663
16:07:11:711,-0.6341,-1.0266,7.2015,31.3402,-0.1725,-0.2065,-0.2726,54.0326
16:07:11:731,-0.5557,-1.1267,6.8125,31.5432,-0.3705,-0.0809,-0.2726,53.9142
16:07:11:752,-0.6923,-0.903,6.4149,31.6325,-0.4067,0.0703,-0.1852,53.8102
16:07:11:772,-0.8292,-0.4261,6.0543,31.7105,-0.3226,0.1895,0.0256,53.7167
16:07:11:794,-0.8358,0.1175,5.8934,31.6747,-0.1884,0.2523,0.2726,53.6264
16:07:11:814,-0.7559,0.584,5.8421,32.0088,0.0192,0.2747,0.5025,53.5304
16:07:11:831,-0.4795,0.4608,5.8398,31.9778,0.1884,0.2555,0.5824,53.4202
16:07:11:851,-0.3191,0.2356,6.4435,32.4452,0.2183,0.082,0.5643,53.2928
16:07:11:871,-0.1756,0.709,7.4385,32.7911,0.0735,-0.1097,0.4248,53.149
16:07:11:895,-0.2525,1.4883,8.4227,32.7766,-0.2523,-0.2065,0.0096,52.9939
16:07:11:911,-0.3491,0.7585,9.7612,33.1331,-0.5323,0.0628,-0.2992,52.8402
16:07:11:931,-0.4517,-0.3652,10.9658,33.4898,-0.5611,0.659,-0.2875,52.7032
16:07:11:951,-0.6487,-0.522,11.8699,33.5024,-0.461,0.939,-0.2938,52.5818
16:07:11:971,-1.0566,0.1214,12.5128,33.8606,-0.4716,0.7772,-0.4067,52.4722
16:07:11:992,-1.2687,0.4928,13.1909,34.134,-0.4472,0.5845,-0.3833,52.3775
16:07:12:011,-1.0449,0.4718,13.5931,34.4028,-0.181,0.511,-0.2204,52.3775
16:07:12:032,-0.9751,1.0121,13.2341,34.6312,0.1831,0.5068,-0.1299,52.3775
16:07:12:054,-1.0636,1.431,12.5065,34.984,0.3056,0.362,-0.1267,52.3775
16:07:12:073,-0.8902,0.9446,12.0329,35.2529,0.1842,0.1927,-0.198,52.3775
16:07:12:092,-0.6894,-0.4499,11.8882,35.7713,0.1629,0.0937,-0.2513,52.3775
16:07:12:112,-0.7611,-1.5086,11.5408,35.9987,0.3056,-0.0735,-0.2502,52.3775
16:07:12:132,-0.9482,-1.7651,10.8974,36.4245,0.4216,-0.2587,-0.1682,52.3775
16:07:12:153,-0.7861,-1.7076,10.3829,36.3117,0.2949,-0.4961,-0.0298,52.3775
16:07:12:172,-0.1225,-1.5452,10.0578,36.4161,0.0192,-0.6186,0.016,52.3775
16:07:12:192,0.3842,-1.3778,9.6809,36.739,-0.1608,-0.4535,-0.0852,52.3775
16:07:12:212,0.2595,-1.0468,8.9556,37.3779,-0.1054,0.082,-0.1959,52.3775
16:07:12:232,-0.314,-0.3252,7.8444,37.7565,0.1001,0.6164,-0.2172,52.3775
16:07:12:252,-0.6924,0.2175,6.5687,38.1081,0.2736,0.8549,-0.1554,52.3775
16:07:12:272,-0.9042,0.5652,5.5719,38.5522,0.3364,0.7623,-0.0777,52.3775
16:07:12:294,-1.01,0.8747,5.0496,38.8099,0.3258,0.4834,0.0564,52.3775
16:07:12:312,-0.963,1.3518,5.0212,39.0849,0.3258,0.1576,0.2321,52.3775
16:07:12:331,-0.6317,1.8699,5.3227,39.3947,0.3151,-0.2065,0.2672,52.3775
16:07:12:351,-0.3014,2.3679,5.77,39.4322,0.1927,-0.5653,0.1001,52.3775
16:07:12:372,-0.2444,2.768,6.7921,39.8177,-0.0405,-0.8272,-0.1618,52.3775
16:07:12:395,-0.3557,2.4838,8.1257,40.3793,-0.214,-0.7665,-0.3886,52.3775
16:07:12:413,-0.7799,2.1067,9.6557,40.5234,-0.2747,-0.5334,-0.4546,52.3775
16:07:12:432,0.225,2.3707,11.6775,41.2753,-0.2598,-0.543,-0.543,52.3775
16:07:12:451,0.7328,2.5045,12.7641,41.8426,-0.1565,-0.2832,-1.0785,52.3775
16:07:12:471,-1.294,1.7852,13.8909,42.0893,-0.264,0.0043,-1.3457,52.3775
16:07:12:492,-2.9515,1.0543,15.148,42.4987,-0.3141,0.0277,-0.8432,52.4809
16:07:12:512,-3.3264,0.8247,15.4674,42.8544,0.0096,0.0245,0.016,52.613
16:07:12:533,-2.783,0.6151,14.8082,43.3317,0.4738,-0.115,0.6303,52.7437
16:07:12:553,-1.7677,0.2922,13.8808,43.8548,0.6931,-0.6335,0.741,52.8495
16:07:12:572,-0.9473,-0.6467,12.9778,44.4354,0.7484,-1.0327,0.5408,52.8495
16:07:12:592,-0.8311,-1.412,11.7885,44.8909,0.8421,-1.0167,0.3162,52.8495
16:07:12:612,-1.1412,-1.5965,10.3802,44.7634,0.8922,-0.8336,0.2683,52.8495
16:07:12:632,-1.1386,-1.389,9.2048,44.8668,0.7516,-0.7367,0.4078,52.8495
16:07:12:652,-0.6229,-1.0125,8.1929,45.2242,0.4983,-0.5227,0.6005,52.8495
16:07:12:672,-0.0772,-0.7357,7.4086,45.322,0.2672,-0.1597,0.6995,52.8495
16:07:12:692,0.2231,-0.4283,6.8484,45.8193,0.0586,0.1437,0.6643,52.8495
16:07:12:712,0.3459,0.1161,6.3361,45.901,-0.0437,0.4131,0.5962,52.8495
16:07:12:732,0.8326,0.755,5.9183,46.2125,0.0096,0.5643,0.5472,52.8495
16:07:12:752,1.2555,1.2453,5.66,45.9747,0.2332,0.4014,0.3811,52.8495
16:07:12:771,0.9804,2.1902,5.5135,46.3169,0.5089,-0.3641,-0.0117,52.8495
16:07:12:794,-0.0494,3.4043,5.6447,46.3127,0.6132,-1.3074,-0.3769,52.7485
16:07:12:813,-0.5823,2.866,6.1534,46.1811,0.5174,-1.498,-0.3609,52.6576
16:07:12:831,-0.0527,1.2438,7.2657,46.3562,0.214,-1.2254,-0.1863,52.6576
16:07:12:851,0.6307,0.6388,8.9622,46.728,-0.2087,-0.9624,-0.066,52.6576
16:07:12:871,0.9444,0.9048,10.9229,46.6297,-0.4184,-0.4216,-0.0426,52.6576
16:07:12:895,1.2425,0.9629,11.7695,46.8477,-0.2598,0.3641,-0.1054,52.6576
16:07:12:912,1.3713,1.0102,11.4605,47.2633,-0.0351,0.7761,-0.2896,52.6576
16:07:12:931,1.1214,1.3752,10.7107,47.6784,-0.1118,0.6792,-0.5376,52.6576
16:07:12:952,0.6306,1.6746,10.7991,47.7291,-0.5015,0.4152,-0.691,52.6576
16:07:12:972,0.304,1.4938,11.8333,48.3002,-0.8177,0.4951,-0.6079,52.6576
16:07:12:992,0.2083,1.4228,12.4386,48.214,-0.7655,0.9348,-0.3843,52.6576
16:07:13:012,0.3229,1.6452,12.0889,48.0619,-0.4855,1.2584,-0.2172,52.6576
16:07:13:033,0.5201,1.7269,11.4673,47.908,-0.3024,0.9816,-0.23,52.6576
16:07:13:052,0.2893,1.3887,11.2349,48.0208,-0.1938,0.4056,-0.3503,52.6576
16:07:13:072,-0.1226,0.5858,11.3015,47.882,-0.0873,-0.0415,-0.3279,52.6576
16:07:13:095,-0.0434,-0.2002,11.2886,47.5066,-0.116,-0.2896,-0.1906,52.6576
16:07:13:112,0.3417,-0.7537,11.5063,47.5374,-0.3822,-0.4014,-0.0532,52.7488
16:07:13:133,0.8181,-0.9255,11.8723,47.5847,-0.6484,-0.2662,0.0415,52.8423
16:07:13:151,1.065,-0.8088,11.6621,47.2264,-0.625,0.1757,0.0373,52.9347
16:07:13:172,0.7702,-0.4426,10.7084,47.3687,-0.3151,0.6739,-0.0373,52.9347
16:07:13:193,0.2002,0.0979,9.0891,47.7655,0.0926,0.9081,-0.0628,52.9347
16:07:13:212,-0.2432,0.6676,7.4439,47.6361,0.4205,0.774,-0.0298,52.9347
16:07:13:232,-0.401,1.0498,6.2124,47.4446,0.6132,0.2545,0.0032,52.9347
16:07:13:252,-0.3002,1.3596,5.4932,47.221,0.7091,-0.4418,0.0309,52.9347
16:07:13:272,-0.012,1.3808,5.331,47.168,0.758,-1.0434,0.0266,52.9347
16:07:13:294,0.1407,1.637,5.4262,46.8786,0.7069,-1.334,-0.0426,52.9347
16:07:13:311,0.2694,1.8635,5.7926,46.5224,0.5281,-1.3191,-0.1097,52.9347
16:07:13:332,0.4316,1.8946,6.6243,46.2626,0.2906,-1.2254,-0.1352,52.9347
16:07:13:352,0.5026,1.7283,7.8529,46.2288,-0.0181,-1.0849,-0.1278,53.0257
16:07:13:373,0.5143,1.8541,9.533,45.9849,-0.296,-0.6633,0.0011,53.1225
16:07:13:393,0.5542,2.0898,11.0967,45.9192,-0.2981,0.1054,0.1906,53.224
16:07:13:412,0.5927,2.2578,11.7587,45.6471,-0.1331,0.5877,0.3247,53.322
16:07:13:431,0.7181,2.5277,12.151,45.3686,-0.083,0.5238,0.3758,53.322
16:07:13:452,0.8418,2.6153,12.6542,45.2083,-0.1352,0.2896,0.3843,53.322
16:07:13:471,0.727,2.5557,13.4176,45.0239,-0.1501,0.2129,0.478,53.322
16:07:13:494,0.6248,2.4364,13.8937,45.2259,0.0447,0.2779,0.6271,53.322
16:07:13:511,0.757,1.8079,13.7593,44.9472,0.2811,0.0735,0.625,53.322
16:07:13:532,1.3966,0.6394,13.277,44.9716,0.4578,-0.3002,0.4408,53.322
16:07:13:571,1.7339,-0.2371,12.5209,44.7794,0.6409,-0.412,0.083,53.322
16:07:13:573,1.3389,-0.5529,11.1674,44.6546,0.6803,-0.1959,-0.2246,53.322
16:07:13:592,0.736,-0.621,9.6906,44.6512,0.4642,0.1725,-0.3481,53.322
16:07:13:612,0.2332,-0.5062,8.3532,44.623,0.0586,0.5142,-0.329,53.322
16:07:13:631,-0.0782,-0.3424,7.5049,44.4739,-0.3662,0.5951,-0.2619,53.322
16:07:13:651,-0.2442,-0.1962,6.9285,44.6414,-0.5802,0.5408,-0.1661,53.322
16:07:13:672,-0.4715,0.092,6.4528,44.6856,-0.5526,0.4631,-0.0383,53.322
16:07:13:691,-0.6991,0.4571,6.0874,45.1716,-0.4248,0.3428,0.1256,53.322
16:07:13:711,-0.6954,0.6058,5.9243,45.2953,-0.3024,0.2832,0.2981,53.322
16:07:13:732,-0.5913,0.7126,5.9632,45.6259,-0.2151,0.2715,0.4482,53.322
16:07:13:752,-0.4349,0.8627,6.1867,44.9392,-0.1448,0.1491,0.5057,53.322
16:07:13:771,-0.1396,1.1093,6.7453,44.823,-0.1054,-0.0383,0.4408,53.322
16:07:13:795,0.0857,1.1878,7.4981,44.3801,-0.0905,-0.1597,0.263,53.322
16:07:13:814,0.2401,0.8489,8.4878,44.2234,-0.1512,-0.1405,0.0841,53.322
16:07:13:831,0.2425,0.5602,9.6244,44.5902,-0.2172,0.0202,-0.0256,53.322
16:07:13:851,0.2339,0.4422,10.8347,44.5151,-0.2513,0.2917,-0.0948,53.322
16:07:13:871,0.1723,0.6047,11.7755,44.586,-0.2736,0.543,-0.181,53.322
16:07:13:895,-0.0146,0.7074,12.342,44.5994,-0.3162,0.6761,-0.2726,53.322
16:07:13:912,-0.0795,1.0714,12.6926,44.4415,-0.4163,0.6462,-0.296,53.322
16:07:13:932,0.0036,1.5054,13.3495,44.1451,-0.511,0.445,-0.3173,53.322
16:07:13:952,0.2053,1.7987,13.9451,44.1101,-0.4525,0.3684,-0.3641,53.322
16:07:13:972,0.1209,1.6818,14.1529,43.8867,-0.2449,0.5195,-0.4078,53.322
16:07:13:993,0.0191,1.0466,13.8835,43.8961,0.033,0.5611,-0.3897,53.322
16:07:14:011,0.2412,-0.1505,13.1219,43.7947,0.3822,0.411,-0.4354,53.322
16:07:14:032,0.1143,-0.8913,11.7848,43.7609,0.725,0.2012,-0.5078,53.322
16:07:14:053,-0.286,-0.6604,10.2863,43.5617,0.89,-0.0287,-0.4653,53.322
16:07:14:073,-0.2327,-0.2379,9.1004,43.4804,0.642,-0.4844,-0.4035,53.322
16:07:14:092,0.3105,-0.3923,8.4033,43.3509,0.1171,-0.8794,-0.4472,53.322
16:07:14:111,0.7033,-0.8082,7.8994,43.2186,-0.3875,-0.7037,-0.5195,53.4208
16:07:14:132,0.3379,-0.557,7.447,43.1658,-0.7005,-0.1554,-0.5408,53.5389
16:07:14:153,-0.4568,0.1711,6.9459,42.931,-0.7335,0.3939,-0.4706,53.6769
16:07:14:172,-1.1687,0.7369,6.5312,42.9902,-0.5142,0.625,-0.3545,53.826
16:07:14:193,-1.4979,0.8658,6.3321,42.926,-0.1959,0.4195,-0.2374,53.9799
16:07:14:212,-1.3436,0.5756,5.9463,42.6708,0.0884,0.0511,-0.0735,54.1333
16:07:14:238,-1.1293,0.746,5.8736,42.5144,0.2278,-0.3066,0.1065,54.2825
16:07:14:252,-0.9509,1.2298,6.4373,42.4773,0.2268,-0.4897,0.1682,54.4234
16:07:14:272,-0.5372,1.6112,7.0897,42.3797,0.1363,-0.4195,0.0756,54.5553
16:07:14:293,0.2412,1.5681,7.7587,42.4406,-0.1491,-0.4621,-0.1895,54.6817
16:07:14:312,0.0929,1.4074,8.9054,42.4686,-0.5206,-0.5153,-0.5387,54.8103
16:07:14:331,-1.1584,1.3508,10.4188,42.5589,-0.6356,-0.1001,-0.5834,54.953
16:07:14:351,-1.9449,1.1625,11.557,42.3271,-0.445,0.4248,-0.1118,55.1132
16:07:14:371,-1.6156,0.7468,11.2692,42.6761,-0.4546,0.2768,0.56,55.2757
16:07:14:392,-1.2576,1.857,11.7609,42.6395,-0.5323,0.3939,1.2148,55.4198
16:07:14:411,-0.6156,1.8903,13.8348,42.7461,-0.3119,0.3279,1.1434,55.5219
16:07:14:431,-0.425,2.0124,14.4413,42.8479,0.0192,-0.2119,0.6281,55.5219
16:07:14:451,-0.2281,1.3446,14.4939,42.8394,0.3311,-0.4024,0.6846,55.5219
16:07:14:472,-0.1575,1.0032,14.6872,42.7738,0.4844,-0.5504,0.6026,55.5219
16:07:14:492,-0.0072,0.352,14.2229,42.7095,0.6143,-0.395,0.4344,55.5219
16:07:14:512,0.3075,-1.0289,12.9534,43.0124,0.7804,-0.083,0.3045,55.5219
16:07:14:534,0.0885,-1.6303,11.1811,42.8673,0.9816,0.1906,0.2172,55.5219
16:07:14:551,-0.5406,-1.2757,9.3755,43.3764,1.0636,0.2619,0.2566,55.5219
16:07:14:571,-0.9903,-0.6535,8.0434,43.7399,0.8134,-0.0671,0.2992,55.5219
16:07:14:592,-0.819,-0.5961,7.1424,44.1447,0.378,-0.4152,0.2981,55.5219
16:07:14:612,-0.412,-1.0117,6.922,44.6533,-0.0554,-0.544,0.2608,55.5219
16:07:14:632,-0.3481,-1.2179,6.8941,44.7955,-0.3567,-0.4099,0.2065,55.5219
16:07:14:652,-0.4524,-1.1362,6.6545,45.1758,-0.477,-0.0319,0.2236,55.5219
16:07:14:672,-0.7345,-0.7164,6.0585,45.156,-0.4716,0.3407,0.3098,55.4282
16:07:14:692,-0.8548,-0.2982,5.5462,45.1575,-0.4695,0.4397,0.4088,55.3285
16:07:14:712,-0.735,0.1164,5.3443,45.1058,-0.5195,0.2438,0.4961,55.2176
16:07:14:735,-0.4036,0.0567,5.6432,44.9692,-0.5621,-0.1427,0.5259,55.0912
16:07:14:751,-0.3029,0.4058,6.037,44.8165,-0.5888,-0.2417,0.5302,54.9479
16:07:14:771,-0.3678,0.9551,6.8645,45.1596,-0.7335,-0.461,0.4322,54.7899
16:07:14:792,0.2076,1.0063,8.0123,45.1735,-1.0274,-0.5888,0.2875,54.6206
16:07:14:811,0.8208,0.3598,9.8046,45.4303,-1.2744,-0.3907,0.1246,54.4465
16:07:14:831,0.7175,-0.2564,12.1231,45.5548,-1.1083,-0.2598,-0.0884,54.2735
16:07:14:851,0.7639,-0.3476,13.1512,45.9615,-0.6154,-0.2225,-0.1693,54.1047
16:07:14:871,1.0753,-0.3206,13.2715,46.0281,-0.2683,-0.1267,-0.2193,53.9438
16:07:14:895,1.2284,0.1145,13.4036,46.2838,-0.2619,-0.0479,-0.3311,53.7942
16:07:14:911,1.2034,0.465,13.9399,46.5296,-0.4312,0.1022,-0.3705,53.6603
16:07:14:931,1.125,0.4606,14.6461,46.8679,-0.4259,0.313,-0.3268,53.5448
16:07:14:952,0.9637,0.2303,14.7277,47.2455,-0.1554,0.3992,-0.2672,53.445
16:07:14:971,0.854,-0.5983,14.4053,47.39,0.1661,0.2214,-0.2938,53.355
16:07:14:992,0.4717,-1.4297,13.7495,47.1803,0.5483,-0.0245,-0.3811,53.355
16:07:15:012,0.0583,-1.9608,12.4867,47.5965,1.0327,-0.066,-0.3705,53.355
16:07:15:033,-0.3639,-1.8911,10.6145,47.723,1.3585,0.0096,-0.2374,53.355
16:07:15:051,-0.2564,-1.7638,8.9398,47.7945,1.1913,-0.1363,-0.0767,53.355
16:07:15:072,0.3181,-1.7949,8.0873,47.7904,0.6324,-0.4024,-0.0522,53.355
16:07:15:092,0.6188,-1.6647,7.9191,47.768,0.1246,-0.3226,-0.1448,53.355
16:07:15:112,0.2183,-1.2352,7.7667,47.4273,-0.0735,0.0351,-0.2364,53.355
16:07:15:135,-0.3545,-0.7432,7.2394,47.436,-0.0575,0.3854,-0.2108,53.355
16:07:15:152,-0.456,-0.5105,6.5583,47.5176,0.0043,0.5142,-0.0852,53.355
16:07:15:172,-0.4409,-0.1837,6.1115,47.4955,0.0415,0.3833,0.0575,53.355
16:07:15:193,-0.0089,0.2881,6.0085,47.5006,0.0415,0.0671,0.1267,53.355
16:07:15:212,0.3104,0.8019,6.1199,47.6882,0.0213,-0.1001,0.0405,53.355
16:07:15:232,0.4977,1.1945,6.1775,47.5474,-0.0373,-0.0926,-0.1278,53.355
16:07:15:252,0.239,1.1684,6.4193,47.5219,-0.2481,0.0096,-0.2811,53.355
16:07:15:272,-0.1582,1.187,7.1214,47.5152,-0.4727,0.1852,-0.2821,53.355
16:07:15:294,-0.5668,1.0238,8.1278,47.6618,-0.5355,0.4099,-0.1554,53.355
16:07:15:311,-0.8775,1.0711,8.6863,47.8847,-0.4269,0.5515,0.0841,53.355
16:07:15:332,-0.5322,0.868,9.0147,47.8306,-0.4397,0.2385,0.28,53.355
16:07:15:351,-0.0111,0.6378,10.2891,47.7101,-0.6218,-0.4684,0.3087,53.355
16:07:15:372,0.4038,0.453,12.3478,47.7947,-0.6526,-0.9593,0.2204,53.355
16:07:15:393,0.4007,0.2568,14.122,48.0043,-0.4482,-0.889,0.1831,53.355
16:07:15:411,0.5247,0.0051,14.9129,48.0367,-0.2044,-0.4227,0.3237,53.355
16:07:15:431,0.7622,0.1569,14.8666,48.2769,-0.0096,0.0873,0.5376,53.355
16:07:15:451,1.0317,0.3636,14.5083,48.4971,0.1522,0.1927,0.5355,53.355
16:07:15:472,1.0895,0.1244,14.2197,48.5382,0.3481,-0.0777,0.2651,53.355
16:07:15:492,0.7045,-0.4687,13.6477,48.5501,0.7027,-0.2257,0.0181,53.2622
16:07:15:512,0.3394,-1.2006,12.3492,48.8613,1.0167,-0.1757,-0.1235,53.1669
16:07:15:531,-0.1046,-1.4641,10.8344,48.7501,1.0615,-0.1618,-0.2065,53.076
16:07:15:583,-0.2947,-1.623,9.9116,48.9941,0.774,-0.3503,-0.2598,53.076
16:07:15:585,-0.177,-1.913,9.6085,48.8122,0.378,-0.4897,-0.3162,53.076
16:07:15:593,-0.17,-2.0022,9.4076,48.6809,0.1661,-0.3854,-0.3418,53.076
16:07:15:611,-0.3345,-1.9191,8.7733,48.8187,0.1288,-0.1448,-0.2523,53.076
16:07:15:631,-0.5877,-1.534,7.7618,48.9297,0.2332,0.148,-0.0383,53.076
16:07:15:651,-0.8629,-0.8762,6.5257,49.091,0.3801,0.3567,0.2779,53.076
16:07:15:671,-0.7834,-0.2045,5.3699,48.9137,0.4067,0.3865,0.5494,53.076
16:07:15:691,-0.5421,0.2574,4.6995,49.0389,0.2768,0.1767,0.6686,53.076
16:07:15:711,0.0129,0.5123,4.699,48.9124,0.066,-0.2321,0.724,53.076
16:07:15:732,0.6528,0.6338,5.6341,48.4746,-0.165,-0.6377,0.6409,52.9696
16:07:15:752,1.0369,0.7392,6.9532,48.4095,-0.2204,-0.6601,0.4589,52.8429
16:07:15:773,1.1563,0.5445,7.8938,48.2146,-0.1682,-0.2896,0.28,52.7044
16:07:15:794,1.2035,0.4719,8.4475,47.8823,-0.2768,0.0202,0.1139,52.5618
16:07:15:811,1.2358,0.3306,9.2459,47.906,-0.5195,0.2268,-0.082,52.4215
16:07:15:832,1.0461,0.3412,10.677,47.8174,-0.6856,0.3886,-0.3045,52.2912
16:07:15:851,0.7847,0.2199,11.8087,47.5723,-0.5579,0.7101,-0.4503,52.1744
16:07:15:872,0.5789,-0.1331,12.3185,47.5127,-0.4344,0.9944,-0.5281,52.077
16:07:15:895,0.0991,0.0883,12.7442,47.4534,-0.5238,1.219,-0.5089,52.077
16:07:15:912,-0.3303,0.4777,13.2955,47.3105,-0.6239,1.3202,-0.4333,52.077
16:07:15:931,-0.7372,0.6086,13.8435,47.2537,-0.4993,1.2201,-0.3567,52.077
16:07:15:951,-0.8837,0.3983,13.9391,47.3637,-0.1299,0.8294,-0.2757,52.077
16:07:15:971,-0.6612,-0.3625,13.8755,47.5961,0.2832,0.1437,-0.2161,52.077
16:07:15:993,-0.1745,-1.1615,13.6269,47.3655,0.7559,-0.3279,-0.0979,52.077
16:07:16:011,0.4524,-1.5578,12.6192,47.395,1.137,-0.4653,-0.0522,52.077
16:07:16:032,1.1281,-1.8871,11.5355,47.3125,1.0764,-0.6228,-0.1086,52.077
16:07:16:055,1.7398,-2.0856,10.8884,47.125,0.7697,-0.6931,-0.2385,52.077
16:07:16:073,1.7997,-1.7975,10.1154,46.9111,0.5728,-0.3588,-0.4003,52.077
16:07:16:092,1.1228,-1.2103,9.0257,46.804,0.4961,0.1544,-0.5217,52.077
16:07:16:112,0.1299,-0.2794,7.7764,46.3399,0.4376,0.4514,-0.51,52.077
16:07:16:133,-0.4441,0.4598,6.7006,46.0564,0.3694,0.4354,-0.3034,52.077
16:07:16:153,-0.2344,1.0318,6.1287,45.6275,0.2906,0.1182,0.0617,52.077
16:07:16:172,0.4402,1.3196,5.8411,45.4732,0.2619,-0.2662,0.2992,52.077
16:07:16:192,0.4111,1.6317,5.9227,45.4073,0.2513,-0.609,0.1906,52.077
16:07:16:211,-0.265,1.8945,6.3334,45.2575,0.2747,-0.8134,0.0106,52.077
16:07:16:231,-0.8133,1.5687,6.4477,45.0847,0.2672,-0.7293,-0.0852,52.077
16:07:16:251,-1.4273,1.2079,6.6873,44.9634,0.0777,-0.5217,-0.0852,52.077
16:07:16:272,-2.0205,0.9301,7.7089,44.4541,-0.1416,-0.3471,0.0767,52.077
16:07:16:293,-2.1949,0.5959,8.8886,44.139,-0.1597,-0.1831,0.3492,52.077
16:07:16:311,-2.168,0.7794,9.6132,44.1309,-0.017,0.0213,0.6218,52.077
16:07:16:332,-1.9167,1.1977,9.9966,43.9299,0.1373,0.0798,0.7953,52.077
16:07:16:351,-1.5012,1.5468,10.2558,43.9221,0.2012,-0.0277,0.7964,52.077
16:07:16:372,-1.3523,1.5695,10.9087,43.9418,0.1895,-0.1661,0.7261,52.077
16:07:16:393,-1.3512,1.5024,11.5659,43.8705,0.2385,-0.049,0.7431,52.077
16:07:16:412,-1.5138,1.6641,11.9857,43.7149,0.3471,0.2694,0.8666,52.077
16:07:16:432,-1.5751,1.8926,12.0307,43.5419,0.428,0.4908,0.9593,51.9674
16:07:16:451,-1.4198,1.8469,12.004,43.2038,0.3652,0.3641,0.9028,51.8287
16:07:16:472,-1.2771,0.9446,12.5754,42.9428,0.2119,-0.1341,0.691,51.6598
16:07:16:492,-1.6209,0.2243,13.0271,42.8811,0.2385,-0.2896,0.5515,51.467
16:07:16:514,-2.0713,-0.3235,12.7872,42.8284,0.2949,-0.1033,0.5973,51.26
16:07:16:534,-2.3218,-0.7985,12.0511,42.5401,0.1618,0.1437,0.79,51.041
16:07:16:552,-2.4037,-1.026,11.3199,42.7968,-0.0287,0.4503,1.0508,50.8061
16:07:16:571,-2.642,-0.9225,10.5378,42.8692,-0.1129,0.7133,1.3361,50.5473
16:07:16:592,-2.7759,-0.6875,9.6427,42.9547,-0.0479,0.8358,1.6577,50.254
16:07:16:612,-2.5885,-0.3083,8.5677,43.0707,0.0862,0.8272,1.9398,49.914
16:07:16:632,-2.3037,0.0472,7.4021,43.3572,0.1672,0.7304,2.1059,49.5178
16:07:16:652,-2.0127,0.4329,6.5201,43.1877,0.1512,0.5749,2.1687,49.0599
16:07:16:672,-1.8751,0.6908,6.2569,43.29,-0.016,0.2736,2.1474,48.5391
16:07:16:692,-1.6003,0.7037,6.8287,42.899,-0.2427,-0.0596,2.0654,47.9566
16:07:16:712,-1.3675,0.3981,8.1551,42.4696,-0.4919,-0.3183,1.8844,47.3168
16:07:16:732,-1.2257,-0.0233,9.9899,42.4053,-0.6878,-0.3279,1.6587,46.6283
16:07:16:752,-1.4234,-0.1352,11.8437,42.0614,-0.6558,0.2087,1.4831,45.9047
16:07:16:772,-1.6479,-0.332,12.3736,42.0075,-0.2332,1.0231,1.3947,45.1571
16:07:16:795,-1.8105,-0.5162,11.5205,42.0083,0.2906,1.5363,1.3415,44.389
16:07:16:814,-2.0074,-0.1803,10.3674,42.0688,0.625,1.5778,1.2733,43.5986
16:07:16:831,-2.2448,0.4635,9.3423,42.1449,0.8198,1.4852,1.2094,42.7872
16:07:16:852,-2.425,1.011,8.5475,42.2157,0.9028,1.4043,1.2243,41.9588
16:07:16:873,-2.4182,1.6,8.0064,42.1657,0.7846,1.1839,1.3138,41.1175
16:07:16:895,-2.2995,2.3776,7.9689,42.4405,0.5174,0.7655,1.3723,40.2576
16:07:16:913,-2.1474,2.9105,8.4795,42.5113,0.2491,0.3056,1.4096,39.3718
16:07:16:932,-1.9969,3.3558,9.3137,42.6331,0.0788,-0.0426,1.4713,38.4607
16:07:16:951,-1.469,2.8625,10.0461,43.006,0.0319,-0.231,1.4756,37.5235
16:07:16:972,-1.1554,2.0352,10.2245,43.2486,0.0341,-0.0894,1.3755,36.5626
16:07:16:994,-1.4918,1.4712,9.6204,43.0531,0.0117,0.313,1.3361,35.585
16:07:17:012,-1.922,0.958,8.8673,42.9619,-0.3364,0.395,1.3447,34.5947
16:07:17:032,-2.1859,0.4253,9.0309,42.7441,-0.8975,0.115,1.2978,33.5842
16:07:17:052,-2.5195,0.3531,9.4961,42.7087,-1.1988,-0.0266,1.4021,32.552
16:07:17:072,-2.57,0.3728,9.7133,42.8209,-1.1839,-0.0511,1.5874,31.4977
16:07:17:093,-2.4478,0.222,9.4636,42.5859,-1.0348,-0.0713,1.7173,30.4168
16:07:17:112,-2.2102,0.1828,9.1149,42.8892,-0.8932,-0.1852,1.7844,29.3054
16:07:17:133,-1.9538,0.1651,8.817,42.6604,-0.8294,-0.247,1.7812,28.1623
16:07:17:151,-1.6228,0.1492,8.7677,42.6723,-0.7953,-0.197,1.7258,26.9893
16:07:17:172,-1.3014,0.0565,8.6531,42.4471,-0.6388,0.0437,1.6513,25.7912
16:07:17:192,-1.0581,0.0218,8.207,42.2854,-0.444,0.3929,1.5608,24.5739
16:07:17:211,-0.8667,0.0474,7.6698,42.1405,-0.4088,0.7005,1.4415,23.3412
16:07:17:232,-0.7557,0.1485,7.3462,41.9053,-0.5238,0.9124,1.2925,22.0963
16:07:17:252,-0.7569,0.3483,7.41,41.8503,-0.6494,0.9561,1.1158,20.8427
16:07:17:272,-0.5637,0.3013,7.9087,42.0644,-0.7697,0.8081,0.9284,19.5836
16:07:17:293,-0.3461,0.1037,8.7124,41.993,-0.8453,0.4897,0.7463,18.3232
16:07:17:312,-0.1895,0.0777,9.5199,42.2378,-0.8581,0.1522,0.5941,17.0665
16:07:17:331,-0.0799,-0.0936,10.4144,41.9733,-0.7676,-0.0639,0.4855,15.8196
16:07:17:353,-0.0496,-0.1296,11.1513,41.8314,-0.6026,-0.1224,0.4684,14.5885
16:07:17:373,0.0078,0.1627,11.5547,41.8301,-0.5504,-0.099,0.4972,13.3754
16:07:17:393,-0.1602,0.5583,12.2904,41.8129,-0.5707,0.1086,0.5664,12.1804
16:07:17:411,-0.4128,0.7573,12.9899,41.5886,-0.4929,0.3045,0.6856,11.0021
16:07:17:432,-0.6181,0.762,13.2598,41.6371,-0.2055,0.5345,0.7889,9.8369
16:07:17:452,-1.252,0.9128,13.1144,41.5439,0.1278,0.5866,0.7442,8.6817
16:07:17:472,-1.9691,0.9024,12.6988,41.238,0.346,0.1778,0.5132,7.5352
16:07:17:492,-2.4439,0.3505,11.8375,41.1714,0.6303,-0.164,0.2555,6.4027
16:07:17:511,-2.8078,-0.2156,10.5111,41.0261,0.9081,-0.3034,0.1554,5.2966
16:07:17:531,-2.9567,-0.6773,9.026,41.0987,0.906,-0.4716,0.0213,4.2222
16:07:17:551,-3.0969,-0.965,8.017,40.8324,0.5068,-0.6846,-0.0777,3.1808
16:07:17:581,-2.9927,-1.2013,7.8695,40.4124,-0.0979,-0.7538,-0.0564,2.1723
16:07:17:591,-2.6389,-1.3178,8.0887,40.0104,-0.5366,-0.5898,0.0394,1.1946
16:07:17:611,-2.1684,-1.4171,8.2177,39.5345,-0.7506,-0.3024,0.1735,0.2448
16:07:17:631,-1.6961,-1.5118,7.987,39.0146,-0.757,-0.115,0.2427,-0.6825
16:07:17:651,-1.4583,-1.3348,7.6371,38.772,-0.6835,0.1235,0.3897,-1.5908
16:07:17:671,-1.8239,-0.7291,7.4214,38.6625,-0.6313,0.3268,0.7559,-2.4837
16:07:17:692,-1.9277,-0.0131,7.9718,38.1127,-0.5749,0.6739,1.3042,-3.3721
16:07:17:712,-1.5754,0.5635,8.6938,38.153,-0.478,1.0359,1.7929,-4.2728
16:07:17:731,-0.509,0.775,9.771,38.21,-0.3002,1.2755,1.2595,-5.2023
16:07:17:751,-0.739,1.0637,10.2861,37.7435,0.1224,0.9401,0.2246,-6.1589
16:07:17:771,-0.9699,-0.3355,9.9285,37.5052,0.7623,0.8017,-0.1491,-7.099
16:07:17:792,-1.5501,-1.0576,9.559,37.5034,0.9688,0.1618,-0.5185,-8.0043
16:07:17:812,-2.3201,-0.8718,9.1984,37.0131,0.8751,-0.0138,-0.4621,-8.8666
16:07:17:832,-2.0624,-0.9381,9.066,36.4921,0.5866,0.083,-0.2055,-9.6794
16:07:17:852,-1.625,-0.8967,8.774,36.5202,0.1852,0.3066,-0.0181,-10.454
16:07:17:871,-1.7077,-0.2682,9.0406,36.1761,-0.2427,0.3013,0.1405,-11.2019
16:07:17:895,-2.0193,0.7134,10.15,36.0097,-0.5845,-0.1299,0.3322,-11.9355
16:07:17:912,-1.8093,1.0579,11.8351,35.7255,-0.79,-0.6665,0.4589,-12.6659
16:07:17:932,-0.7758,0.4272,13.7558,35.6323,-0.692,-0.9784,0.2587,-13.3971
16:07:17:952,-0.1849,-0.7907,14.6003,35.5662,-0.2598,-0.741,-0.2342,-14.1221
16:07:17:972,-0.6443,-1.914,14.0904,35.5155,0.2246,-0.2023,-0.6239,-14.819
16:07:17:994,-1.4491,-2.516,12.5692,35.5113,0.5792,0.2033,-0.6846,-15.4704
16:07:18:012,-1.8971,-2.3574,10.8657,35.4975,0.6931,0.2715,-0.4557,-16.0729
16:07:18:031,-1.7609,-1.918,9.6359,35.6663,0.4663,-0.0298,-0.1629,-16.6362
16:07:18:054,-1.2014,-1.3625,8.9814,35.2993,0.0958,-0.3173,0.0213,-17.1753
16:07:18:072,-0.8236,-0.8039,8.7371,35.6132,-0.1022,-0.2885,0.0767,-17.6989
16:07:18:092,-0.7101,-0.2971,8.2589,35.6341,-0.0958,-0.0862,0.0224,-18.2088
16:07:18:113,-0.8754,0.3254,7.6201,35.7452,-0.0192,0.0617,-0.0319,-18.7037
16:07:18:132,-1.0586,0.9298,7.1857,36.0974,-0.0245,0.0128,-0.0479,-19.1825
16:07:18:153,-0.9354,1.2334,7.2494,36.1837,-0.1118,-0.2608,-0.0894,-19.6472
16:07:18:172,-0.6791,1.0276,7.6376,36.2766,-0.0447,-0.3982,-0.2193,-20.0981
16:07:18:192,-0.6844,0.4151,7.7276,36.3126,0.247,-0.3119,-0.3524,-20.5289
16:07:18:212,-1.0744,0.0599,7.3494,36.4689,0.6207,-0.0958,-0.2928,-20.9319
16:07:18:231,-1.2836,-0.0375,6.8514,36.7377,0.7857,0.0298,-0.0011,-21.3057
16:07:18:252,-0.8097,0.0004,7.025,36.814,0.5866,-0.197,0.23,-21.6616
16:07:18:272,-0.5651,0.5474,7.7959,36.7266,0.2513,-0.5792,0.1299,-22.0142
16:07:18:294,-0.7164,1.0347,8.9933,36.9513,0.0479,-0.7229,0.0117,-22.3643
16:07:18:312,-0.9823,1.208,9.9608,37.1809,0.0298,-0.4674,0.0852,-22.7045
16:07:18:335,-1.2408,1.4032,10.5183,37.2757,0.0447,-0.0564,0.2981,-23.033
16:07:18:352,-1.2237,1.3801,11.0334,37.623,-0.0703,0.1427,0.4983,-23.3569
16:07:18:371,-1.0986,1.5301,12.0573,37.7943,-0.2268,0.0724,0.5323,-23.6873
16:07:18:393,-0.9896,1.3654,12.9854,37.9207,-0.1693,0.0415,0.4993,-24.0281
16:07:18:412,-1.12,1.3099,13.0753,38.2962,0.1416,0.1991,0.5036,-24.375
16:07:18:434,-1.2876,1.0279,12.2066,38.7558,0.4056,0.2523,0.4461,-24.7255
16:07:18:452,-1.4874,0.5487,11.1216,39.3127,0.4344,0.131,0.3013,-25.0796
16:07:18:472,-1.401,-0.2689,10.3541,40.0421,0.2885,-0.1235,0.1459,-25.4346
16:07:18:492,-1.2694,-1.1501,10.0373,40.5367,0.0266,-0.4365,-0.0532,-25.7877
16:07:18:513,-1.3235,-1.7306,10.0685,40.9226,-0.2566,-0.5451,-0.1991,-26.1331
16:07:18:534,-1.445,-2.0751,10.0641,41.4507,-0.5004,-0.3822,-0.1842,-26.4641
16:07:18:552,-1.3729,-2.0652,9.7122,41.5847,-0.659,-0.0437,-0.0266,-26.7788
16:07:18:571,-1.3102,-1.6725,9.1232,41.902,-0.6792,0.3364,0.2332,-27.081
16:07:18:592,-1.1818,-1.1298,8.3186,42.1366,-0.5557,0.544,0.5259,-27.3794
16:07:18:612,-0.834,-0.5842,7.5548,42.2761,-0.3843,0.5515,0.7591,-27.6849
16:07:18:631,-0.4296,-0.0922,6.7893,42.7452,-0.214,0.5057,0.8453,-28.0063
16:07:18:652,-0.1916,0.4301,6.3079,43.0643,-0.0894,0.3066,0.7133,-28.3477
16:07:18:672,-0.5686,1.1479,5.9995,43.5685,-0.0479,0.0468,0.4834,-28.7066
16:07:18:692,-1.003,1.6475,6.2967,43.8631,-0.1544,-0.2438,0.3311,-29.0757
16:07:18:712,-0.9389,1.5945,7.5677,44.138,-0.3215,-0.5408,0.2353,-29.4497
16:07:18:732,-0.5417,1.1203,9.4335,44.5694,-0.3194,-0.658,0.1129,-29.8248
16:07:18:752,-0.1045,0.6485,11.2869,44.7691,-0.0905,-0.625,-0.0745,-30.1945
16:07:18:772,0.3703,0.0204,12.4813,45.2916,0.2151,-0.4599,-0.3748,-30.5508
16:07:18:793,0.3165,-0.6017,12.7038,46.0445,0.3971,-0.1661,-0.6686,-30.883
16:07:18:814,-0.1449,-1.1128,12.1654,46.3915,0.3961,0.1491,-0.6942,-31.1812
16:07:18:832,-0.7318,-1.0924,11.5252,46.8854,0.2108,0.3961,-0.3684,-31.4432
16:07:18:851,-1.1985,0.0253,11.5785,47.2023,-0.0841,0.4365,0.2236,-31.6803
16:07:18:872,-0.9368,1.1177,12.3441,47.3719,-0.198,0.0852,0.6111,-31.9151
16:07:18:895,0.0473,1.2403,12.8673,47.5148,0.0458,-0.1789,0.5323,-32.164
16:07:18:911,0.42,0.6845,12.529,47.7021,0.4248,-0.2374,0.1086,-32.4253
16:07:18:931,-0.199,-0.1516,11.5111,48.4848,0.5983,-0.2204,-0.2193,-32.6835
16:07:18:952,-0.6221,-1.1258,10.744,48.9537,0.5259,-0.1533,-0.2406,-32.9258
16:07:18:971,-0.6634,-1.7441,10.3154,49.4334,0.3162,-0.0543,-0.0628,-33.1508
16:07:18:993,-0.2519,-2.1197,10.0811,50.0007,0.0266,0.0043,0.0841,-33.3646
16:07:19:013,0.1216,-2.2078,10.0365,50.4652,-0.2576,0.0788,0.1384,-33.5747
16:07:19:032,0.3927,-2.1401,9.8919,50.7734,-0.346,0.2459,0.1491,-33.7838
16:07:19:052,0.1806,-1.5251,9.3181,51.2448,-0.1821,0.461,0.1938,-33.9911
16:07:19:072,-0.0353,-0.8057,8.2428,51.641,0.1118,0.5983,0.3364,-34.196
16:07:19:092,0.0578,-0.2125,6.9478,51.8384,0.3684,0.5345,0.4631,-34.4028
16:07:19:112,0.231,0.3119,5.9495,52.1156,0.4865,0.2747,0.5068,-34.6169
16:07:19:133,0.5142,0.6545,5.4178,52.1989,0.4855,-0.116,0.4482,-34.8419
16:07:19:152,0.7509,1.0009,5.2296,52.4445,0.4365,-0.4078,0.2949,-35.0771
16:07:19:172,0.7977,1.2726,5.2448,52.4804,0.2843,-0.5015,0.1214,-35.3168
16:07:19:193,0.6471,1.5681,5.5569,52.6527,-0.0224,-0.4195,-0.0032,-35.555
16:07:19:212,0.411,1.3951,6.1744,53.1493,-0.378,-0.2278,-0.0617,-35.7875
16:07:19:231,-0.0621,1.3156,7.0946,53.4598,-0.6824,-0.1182,-0.0224,-36.0128
16:07:19:252,-0.6302,1.6838,8.2941,53.6029,-0.889,-0.0948,0.1246,-36.2333
16:07:19:271,-0.8746,1.8548,9.8096,54.1466,-0.9742,-0.0756,0.3077,-36.4537
16:07:19:293,-0.4119,1.5711,11.2822,54.4147,-0.9305,-0.0607,0.395,-36.6795
16:07:19:312,0.1359,0.7898,12.8008,54.925,-0.8996,-0.3087,0.2374,-36.9149
16:07:19:331,0.1432,0.0593,14.8319,55.445,-0.8443,-0.6494,0.0479,-37.1584
16:07:19:351,-0.1839,-0.3688,16.5293,56.0024,-0.5281,-0.5504,0.1139,-37.3998
16:07:19:371,-0.1722,-0.497,16.6759,56.4556,0.016,-0.0713,0.3726,-37.6332
16:07:19:393,0.1172,-0.7579,15.3157,56.9228,0.3588,0.2715,0.3492,-37.8639
16:07:19:411,0.2236,-1.5396,13.9621,57.1352,0.395,0.3268,0.0649,-38.0989
16:07:19:431,-0.0585,-2.48,12.8765,57.318,0.4929,0.1661,-0.2002,-38.3312
16:07:19:451,-0.7765,-2.5664,11.4952,57.3593,0.6271,0.0713,-0.2704,-38.5504
16:07:19:471,-1.1832,-2.2662,10.091,57.114,0.5568,-0.0437,-0.1682,-38.7526
16:07:19:492,-1.1527,-1.8294,9.0384,57.196,0.3119,-0.0809,-0.0543,-38.942
16:07:19:512,-1.0312,-1.2311,8.2598,57.0447,0.1214,0.0777,0.0224,-39.123
16:07:19:532,-1.06,-0.5468,7.5044,56.8796,0.0894,0.297,0.0681,-39.2975
16:07:19:552,-1.1978,-0.0342,6.4857,56.6874,0.1586,0.4141,0.1363,-39.467
16:07:19:595,-1.2878,0.2971,5.5596,56.5506,0.2161,0.3577,0.2513,-39.634
16:07:19:597,-1.3275,0.4658,4.949,56.3527,0.247,0.1427,0.444,-39.8035
16:07:19:611,-1.3709,0.7328,4.8032,56.5785,0.2044,-0.197,0.6718,-39.9823
16:07:19:632,-1.2256,0.9335,5.2486,56.6601,0.1895,-0.7186,0.8379,-40.1795
16:07:19:651,-1.13,1.2423,5.7891,56.7392,0.296,-1.2094,0.8869,-40.4011
16:07:19:671,-0.9278,1.5363,6.0994,57.0676,0.3077,-1.5086,0.8485,-40.648
16:07:19:691,0.2236,0.8252,7.0211,57.0643,-0.0319,-1.6364,0.7325,-40.9191
16:07:19:711,1.2416,0.0736,9.2582,56.7988,-0.56,-1.5437,0.3929,-41.2121
16:07:19:731,1.5126,-0.0363,12.0502,56.7012,-0.658,-0.8794,0.0511,-41.5129
16:07:19:752,1.3906,-0.3137,13.4315,56.6239,-0.3716,0.0405,-0.1373,-41.8031
16:07:19:772,1.1624,-0.6876,12.6587,56.3434,-0.1927,0.9156,-0.198,-42.0707
16:07:19:794,0.9326,-0.4554,11.7381,56.3344,-0.5132,1.3755,-0.2151,-42.3183
16:07:19:812,0.6554,-0.0905,12.1933,56.244,-0.9007,1.4181,-0.2214,-42.5538
16:07:19:832,0.6582,-0.1356,13.4455,56.3432,-0.8986,1.2818,-0.1469,-42.7765
16:07:19:852,0.5484,-0.075,14.1203,56.5869,-0.4993,1.0647,-0.0948,-42.9875
16:07:19:871,0.6022,-0.7809,13.9293,56.837,-0.0437,0.757,-0.1022,-43.188
16:07:19:895,0.7636,-2.0128,13.6233,57.158,0.2321,0.2864,-0.1384,-43.3778
16:07:19:913,0.7913,-2.6707,13.0078,57.111,0.4908,-0.0277,-0.1427,-43.5588
