Time,Acc_X,Acc_Y,Acc_Z,Meg,Gyr_X,Gyr_Y,Gyr_Z,Ore
17:48:53:472,0.6611,0.8981,8.997,43.0446,-0.3158,-0.1394,-0.2516,0.01
17:48:53:473,0.4841,0.972,8.9351,43.2011,-0.3893,-0.1819,-0.3101,0.0165
17:48:53:475,0.369,1.233,8.976,43.3231,-0.3828,-0.099,-0.2973,0.0213
17:48:53:476,0.4721,1.415,9.09,43.4875,-0.2668,0.0734,-0.2867,0.0248
17:48:53:476,0.498,1.7021,8.8219,43.5835,-0.1008,0.2234,-0.3453,0.028
17:48:53:489,0.098,2.3081,8.133,43.7106,0.012,0.465,-0.342,0.032
17:48:53:510,-0.456,2.823,7.898,43.7649,0.0344,0.8492,-0.2441,0.0351
17:48:53:533,-1.2581,3.201,8.2001,43.5887,-0.0242,1.2313,-0.1217,0.0349
17:48:53:552,-2.1011,3.309,9.533,43.3271,-0.2221,1.4729,-0.0153,0.0283
17:48:53:569,-2.699,2.8661,11.703,42.9603,-0.3509,1.2814,0.0326,0.0155
17:48:53:589,-2.58,2.5811,12.636,42.7728,-0.2402,0.8088,0.0018,-0.0008
17:48:53:609,-2.0861,2.567,12.1361,42.9298,0.0162,0.3916,0.0305,-0.0121
17:48:53:631,-1.325,2.456,11.0081,42.97,0.2398,0.1363,0.1262,-0.0152
17:48:53:651,-0.545,2.435,10.077,42.8814,0.3653,0.1554,0.2071,-0.0106
17:48:53:668,-0.159,2.571,9.8231,42.6751,0.4313,0.2405,0.223,-0.0008
17:48:53:702,-0.4541,2.684,9.6701,42.4454,0.4367,0.2937,0.2146,0.0115
17:48:53:709,-0.9971,2.792,10.0031,42.2853,0.476,0.4203,0.2071,0.0222
17:48:53:729,-1.665,2.741,10.0001,42.1934,0.6133,0.498,0.1922,0.029
17:48:53:751,-2.079,2.679,9.7819,42.157,0.6867,0.4608,0.1783,0.0317
17:48:53:769,-2.477,2.634,9.653,42.1139,0.6101,0.2139,0.2082,0.0326
17:48:53:788,-2.501,2.162,9.2681,42.0813,0.3961,-0.0415,0.2912,0.0327
17:48:53:808,-2.1341,1.793,9.1309,42.2091,0.2472,-0.2171,0.3539,0.0311
17:48:53:831,-1.9601,1.9271,8.652,42.3353,0.1994,-0.1702,0.3636,0.0287
17:48:53:855,-2.3591,2.363,8.4461,42.3908,0.1099,0.1053,0.3997,0.0281
17:48:53:873,-2.6111,2.804,9.146,42.519,-0.1093,0.3256,0.4444,0.0273
17:48:53:891,-2.235,2.928,10.007,42.604,-0.3743,0.2885,0.3912,0.0252
17:48:53:913,-1.5881,2.952,10.125,42.4962,-0.5222,0.0692,0.2104,0.023
17:48:53:928,-1.509,3.2201,9.909,42.3122,-0.5126,-0.1096,0.0092,0.0234
17:48:53:948,-1.8371,3.4121,9.545,42.0936,-0.4062,-0.2831,-0.0388,0.0269
17:48:53:967,-2.027,3.311,9.1361,41.8916,-0.2988,-0.4448,0.0474,0.0319
17:48:53:986,-2.07,2.588,8.4011,41.7533,-0.2541,-0.5427,0.1805,0.0375
17:48:54:008,-1.6031,1.578,7.649,41.8873,-0.2626,-0.5299,0.2859,0.0405
17:48:54:026,-1.1651,1.214,7.5701,41.9256,-0.2786,-0.4118,0.2369,0.0387
17:48:54:049,-1.442,1.784,7.623,41.9764,-0.2849,-0.3415,0.106,0.0352
17:48:54:067,-2.084,2.619,7.541,42.0688,-0.2977,-0.3022,0.0847,0.0339
17:48:54:088,-2.108,3.117,7.6301,41.9882,-0.3327,-0.2788,0.1976,0.0355
17:48:54:108,-1.8641,3.1601,7.98,41.9911,-0.3541,-0.2064,0.304,0.0397
17:48:54:128,-1.481,2.9741,8.451,42.0548,-0.3732,-0.1128,0.3114,0.0447
17:48:54:149,-1.124,2.667,9.074,42.2288,-0.3945,-0.1745,0.1358,0.0483
17:48:54:166,-1.359,2.76,9.509,42.5297,-0.3956,-0.348,-0.0653,0.0504
17:48:54:187,-1.577,2.9021,9.936,42.6833,-0.3722,-0.3449,-0.061,0.0517
17:48:54:208,-0.98,2.583,10.508,42.5977,-0.2434,-0.1873,-0.0015,0.0527
17:48:54:226,-0.4901,1.9781,10.944,42.5158,-0.0412,0.0287,-0.1122,0.0537
17:48:54:246,-0.585,2.054,11.58,42.3255,0.1184,0.0703,-0.3825,0.0534
17:48:54:269,-1.3511,2.823,11.856,42.0867,0.2313,0.0393,-0.6113,0.0526
17:48:54:286,-2.453,3.9821,12.1571,41.9253,0.3483,0.1437,-0.657,0.0537
17:48:54:307,-2.573,4.4771,12.177,41.7452,0.4664,0.1863,-0.5155,0.0567
17:48:54:327,-1.773,3.924,11.7071,41.5551,0.41,0.232,-0.375,0.0618
17:48:54:358,-0.9761,2.9111,11.624,41.4499,0.0578,0.3406,-0.3622,0.0669
17:48:54:374,-0.734,1.805,12.866,41.331,-0.2838,0.3374,-0.4005,0.0675
17:48:54:389,-0.705,1.3451,13.134,41.2369,-0.302,0.1138,-0.2463,0.0598
17:48:54:409,-0.219,-0.483,12.356,41.254,0.0162,-0.2416,0.0932,0.0508
17:48:54:429,1.892,-1.6511,9.972,41.1554,0.3855,-0.6704,0.1763,0.0413
17:48:54:447,2.418,-1.601,8.561,41.284,0.4781,-0.961,0.1284,0.0359
17:48:54:468,2.0831,-1.194,7.6541,41.2897,0.4069,-0.8759,0.1305,0.0367
17:48:54:488,0.6401,-1.629,7.671,41.3428,0.1855,-0.2959,-0.0983,0.0407
17:48:54:509,-0.506,-0.291,8.0059,41.4899,-0.1614,0.3491,-0.5357,0.0315
17:48:54:528,-0.602,0.4721,8.5571,41.5419,-0.1699,1.1164,-0.789,0.019
17:48:54:549,-1.4501,1.2881,9.32,41.6516,0.0077,1.0696,-0.9592,0.0101
17:48:54:568,-2.556,1.9271,8.475,41.7672,0.1578,0.7226,-1.0189,0.0048
17:48:54:588,-3.03,2.0831,7.245,41.8011,0.243,0.4895,-0.7997,0.0037
17:48:54:609,-2.5391,1.8791,6.5651,41.6825,0.2695,0.3662,-0.4335,0.0038
17:48:54:629,-1.8041,1.6661,6.225,41.545,0.2993,0.3736,-0.1217,0.0053
17:48:54:649,-1.122,1.784,6.162,41.3414,0.3462,0.5757,0.0485,0.0087
17:48:54:668,-1.1621,2.2481,6.4091,41.1795,0.4089,0.7876,0.1666,0.0157
17:48:54:689,-2.0981,2.933,7.7471,41.1021,0.3961,0.9089,0.2859,0.0252
17:48:54:707,-2.996,3.3401,9.7819,41.0142,0.3312,0.5779,0.3413,0.0325
17:48:54:733,-2.819,3.203,10.0121,41.0164,0.3004,0.2618,0.238,0.0361
17:48:54:747,-2.63,3.2681,9.909,40.9636,0.3631,0.2373,0.1837,0.0396
17:48:54:767,-2.793,3.5531,9.905,41.2387,0.5016,0.3097,0.2518,0.044
17:48:54:786,-3.501,3.929,10.563,41.336,0.6772,0.4746,0.3934,0.0498
17:48:54:806,-4.6001,4.278,11.822,41.3359,0.8261,0.3799,0.6658,0.0555
17:48:54:827,-4.8281,4.422,12.375,41.3703,0.9283,0.132,0.9457,0.0596
17:48:54:848,-3.7721,4.271,12.464,41.3908,0.9049,0.0393,1.0192,0.0649
17:48:54:867,-2.4431,4.1899,12.5501,41.6472,0.7441,0.1415,0.9628,0.0716
17:48:54:891,-1.9211,3.8621,11.877,41.9413,0.6889,0.6524,0.9223,0.0793
17:48:54:907,-2.3951,3.5891,11.073,42.3122,0.8187,1.1792,0.8564,0.0844
17:48:54:929,-3.015,3.491,9.2561,42.3564,0.8539,1.2409,0.637,0.0853
17:48:54:948,-3.65,3.95,7.5131,42.3536,0.4729,0.7556,0.2668,0.0842
17:48:54:969,-3.4421,3.783,7.082,42.4503,-0.2402,0.2299,-0.0206,0.0842
17:48:54:988,-2.46,2.6741,8.097,42.4269,-0.8202,0.1947,-0.1706,0.083
17:48:55:017,-2.043,1.8431,9.201,42.4754,-0.8564,0.364,-0.1942,0.0736
17:48:55:027,-2.1971,1.7291,8.928,42.5238,-0.4872,0.8184,-0.0835,0.0583
17:48:55:047,-2.367,1.8821,7.8191,42.4988,0.0067,1.2037,0.1242,0.0438
17:48:55:068,-2.3951,2.0351,6.342,42.5055,0.309,1.1685,0.2582,0.0337
17:48:55:090,-2.489,2.4521,5.49,42.4767,0.3281,0.9003,0.2795,0.0294
17:48:55:111,-2.762,2.775,5.691,42.77,0.3142,0.762,0.304,0.0312
17:48:55:134,-2.996,2.88,6.344,43.0561,0.4749,0.8036,0.4349,0.0353
17:48:55:148,-2.936,2.811,6.378,43.2701,0.7686,0.9493,0.6148,0.0386
17:48:55:169,-2.912,3.084,6.107,43.3763,0.939,0.9089,0.6615,0.0424
17:48:55:189,-3.1331,3.6821,6.2081,43.3188,0.9507,0.5055,0.5189,0.0487
17:48:55:211,-3.614,4.1111,6.833,43.4055,0.8751,-0.05,0.3582,0.0591
17:48:55:230,-4.047,4.329,7.7351,43.5409,0.8762,-0.414,0.3487,0.0703
17:48:55:250,-3.9611,4.4291,8.4701,43.8663,1.0071,-0.6161,0.3508,0.0799
17:48:55:270,-3.446,4.436,8.492,44.2563,1.0656,-0.8364,0.137,0.0898
17:48:55:292,-3.4151,4.547,8.4731,44.4409,0.8708,-0.9439,-0.2793,0.1013
17:48:55:309,-4.047,4.7741,9.102,44.8164,0.4823,-0.7684,-0.5921,0.1114
17:48:55:329,-4.553,4.956,10.283,45.142,0.1673,-0.3246,-0.6507,0.1156
17:48:55:352,-4.421,4.992,11.0231,45.4622,0.1238,0.0521,-0.5783,0.1127
17:48:55:369,-3.8441,4.968,10.668,45.946,0.1567,-0.0373,-0.6251,0.1073
17:48:55:411,-3.5681,4.961,10.113,46.2489,0.0822,-0.4023,-0.8294,0.1042
17:48:55:412,-3.537,4.4291,10.0601,46.2853,0.0088,-0.564,-0.9901,0.1044
17:48:55:429,-3.671,3.665,10.403,46.2246,0.128,-0.3725,-0.9922,0.1035
17:48:55:448,-3.731,3.5531,9.5141,46.1354,0.3994,0.0319,-0.8018,0.0983
17:48:55:467,-3.576,3.7331,7.527,46.3269,0.4877,0.3853,-0.5963,0.0935
17:48:55:488,-3.444,3.893,6.299,46.7915,0.3462,0.3011,-0.5336,0.0929
17:48:55:511,-3.3191,3.9701,6.038,47.0938,0.0918,-0.1022,-0.6219,0.0956
17:48:55:529,-3.377,3.8861,6.914,47.2421,-0.0678,-0.4938,-0.7167,0.0999
17:48:55:551,-3.6521,3.776,7.592,47.3627,0.0472,-0.4235,-0.6453,0.102
17:48:55:568,-3.657,3.749,7.331,47.5042,0.3579,-0.1203,-0.4315,0.1017
17:48:55:588,-4.1569,3.9701,5.918,47.9615,0.6346,0.0469,-0.2707,0.1025
17:48:55:610,-4.452,4.29,4.755,48.4252,0.69,-0.099,-0.0802,0.1073
17:48:55:629,-4.268,4.697,4.23,48.8672,0.5941,-0.3065,-0.0078,0.116
17:48:55:648,-4.1141,5.138,4.355,49.2953,0.441,-0.4311,-0.0291,0.129
17:48:55:666,-4.304,5.634,5.0591,49.6971,0.3015,-0.4843,-0.0824,0.1435
17:48:55:687,-4.5071,5.9621,5.964,50.1522,0.2322,-0.4417,-0.0855,0.156
17:48:55:709,-4.538,5.909,6.797,50.7421,0.2196,-0.2959,-0.0622,0.1652
17:48:55:727,-4.6601,5.8781,7.484,51.0997,0.3058,-0.0723,0.0092,0.1709
17:48:55:746,-4.95,5.906,7.685,51.4222,0.4771,0.0469,0.0879,0.1738
17:48:55:767,-5.223,6.036,7.46,51.5031,0.5515,-0.0265,0.1347,0.1764
17:48:55:787,-5.249,6.1391,7.604,51.2768,0.4419,-0.1085,0.0997,0.1802
17:48:55:806,-5.4221,6.098,8.1641,51.3692,0.1855,-0.1,-0.028,0.1842
17:48:55:829,-5.6681,5.976,9.0281,51.5935,-0.1562,0.0148,-0.1367,0.1847
17:48:55:847,-5.5961,5.696,10.247,51.9426,-0.3839,0.2012,-0.1248,0.1802
17:48:55:868,-5.402,5.3411,10.833,52.3782,-0.3424,0.4576,-0.0153,0.1709
17:48:55:886,-5.307,5.174,10.424,52.457,-0.1679,0.5279,0.1518,0.1603
17:48:55:906,-5.051,4.851,9.428,52.4641,-0.021,0.3821,0.2964,0.1519
17:48:55:928,-4.725,4.458,8.193,52.698,0.0674,0.2831,0.3945,0.1471
17:48:55:948,-4.586,4.29,7.01,52.8438,0.0397,0.216,0.4221,0.145
17:48:55:967,-4.55,4.305,6.5291,52.9369,-0.1167,0.1543,0.4168,0.1447
17:48:55:986,-4.1981,4.2881,6.8261,53.1238,-0.2541,0.1724,0.4338,0.145
17:48:56:009,-3.8081,4.116,7.0841,53.2065,-0.2573,0.2522,0.4509,0.1445
17:48:56:028,-3.75,3.9791,6.737,53.3462,-0.2018,0.3204,0.5083,0.1433
17:48:56:047,-3.7001,3.8741,6.404,53.4034,-0.2041,0.3629,0.6402,0.1422
17:48:56:069,-3.231,4.0271,6.713,53.529,-0.2178,0.315,0.6956,0.1416
17:48:56:087,-2.81,4.2229,6.7151,53.5842,-0.1944,0.2522,0.5753,0.1424
17:48:56:109,-2.901,4.2161,6.644,53.5348,-0.1849,0.2108,0.4466,0.1459
17:48:56:127,-3.351,4.4051,6.632,53.837,-0.1944,0.1235,0.4551,0.1493
17:48:56:147,-3.7961,4.812,7.151,53.8824,-0.1594,0.1682,0.6062,0.1518
17:48:56:172,-3.707,4.977,7.4621,54.1396,-0.004,0.3438,0.7872,0.1542
17:48:56:187,-3.281,5.1881,7.0481,54.5084,0.1429,0.3608,0.8669,0.1569
17:48:56:207,-3.02,5.274,6.5381,54.8278,0.2068,0.2097,0.8095,0.1634
17:48:56:228,-3.1931,5.511,6.404,55.2452,0.1855,-0.0148,0.7807,0.1729
17:48:56:247,-2.182,5.54,7.443,55.5369,0.2014,-0.3011,0.67,0.1831
17:48:56:268,-1.7801,5.837,8.2361,55.9931,0.311,-0.4448,0.32,0.193
17:48:56:287,-1.6601,5.708,8.121,56.3611,0.327,-0.4608,-0.1079,0.2033
17:48:56:307,-2.874,6.0641,7.077,56.7063,0.0535,-0.2362,-0.3877,0.2117
17:48:56:327,-3.789,6.5861,6.909,57.087,-0.4243,-0.2309,-0.408,0.2169
17:48:56:347,-3.209,6.62,7.5701,57.321,-0.9288,-0.7151,-0.5175,0.2181
17:48:56:369,-2.4,5.88,9.2171,57.373,-1.5183,-1.3261,-0.8774,0.2167
17:48:56:389,-2.264,4.163,11.343,57.3327,-1.8525,-1.4377,-1.287,0.2094
17:48:56:407,-2.805,2.897,11.918,57.279,-1.7419,-0.9237,-1.3179,0.1894
17:48:56:428,-3.236,2.4731,10.805,57.4123,-1.3588,-0.2299,-0.8954,0.1613
17:48:56:449,-3.341,2.9021,9.416,57.3774,-0.9681,0.2065,-0.275,0.1341
17:48:56:467,-2.958,3.6011,8.387,57.488,-0.7127,0.3193,0.1529,0.1146
17:48:56:489,-1.617,3.716,7.707,57.4819,-0.7202,-0.0703,-0.0004,0.106
17:48:56:510,-0.4511,3.84,7.245,57.3415,-1.0341,-0.7279,-1.2701,0.1135
17:48:56:528,-1.119,3.498,6.7631,57.5212,-1.0299,-0.4661,-1.7095,0.1202
17:48:56:547,-2.2129,3.0791,6.8591,57.3752,-0.9767,0.0139,-1.8766,0.1217
17:48:56:569,-3.36,2.9231,7.17,57.4216,-0.8841,0.2683,-1.75,0.1147
17:48:56:588,-4.244,3.009,7.716,57.4371,-0.7479,0.4789,-1.4084,0.1015
17:48:56:609,-4.5881,3.12,8.834,57.3426,-0.4616,0.4055,-0.9805,0.0873
17:48:56:626,-4.268,2.9951,9.7151,57.3709,-0.0412,0.3523,-0.6347,0.0757
17:48:56:647,-4.0571,2.82,10.359,57.2534,0.4675,0.4289,-0.4122,0.0688
17:48:56:668,-4.32,2.928,10.364,57.0928,0.9762,0.5748,-0.209,0.0662
17:48:56:690,-4.713,3.189,9.4931,57.2129,1.2891,0.6588,-0.0312,0.0677
17:48:56:708,-4.775,3.354,8.394,57.4672,1.3497,0.7056,0.0858,0.0732
17:48:56:728,-5.0051,3.33,7.9151,57.852,1.173,0.6567,0.1678,0.0811
17:48:56:748,-5.501,3.5741,8.748,58.1553,0.9071,0.5247,0.2901,0.0879
17:48:56:766,-5.8091,3.539,9.849,58.4018,0.7612,0.3629,0.305,0.0921
17:48:56:788,-5.738,3.179,9.9761,58.5907,0.7899,0.3842,0.1902,0.0939
17:48:56:808,-5.757,3.213,9.3281,58.8176,0.7421,0.4598,0.1933,0.0937
17:48:56:827,-5.6801,3.6461,8.621,59.2508,0.5611,0.7056,0.4338,0.0933
17:48:56:849,-5.256,3.8591,8.016,59.7342,0.5303,1.2612,0.7573,0.0947
17:48:56:868,-4.859,3.788,7.1321,60.0539,0.6325,1.6464,0.886,0.0981
17:48:56:888,-4.79,4.022,6.179,60.1255,0.5676,1.3941,0.6605,0.1027
17:48:56:918,-4.854,4.202,5.5301,59.8485,0.212,0.663,0.1433,0.1094
17:48:56:929,-5.177,4.053,5.54,59.7001,-0.3285,0.0128,-0.3579,0.1163
17:48:56:949,-5.4431,3.3731,6.414,59.6289,-0.8128,-0.2139,-0.5602,0.1181
17:48:56:968,-5.795,2.909,7.518,59.689,-1.0607,-0.183,-0.4569,0.1102
17:48:56:988,-5.951,3,8.274,59.7827,-0.9989,0.0234,-0.1536,0.0952
17:48:57:008,-5.532,3.1241,8.4461,59.8004,-0.6542,0.3193,0.1943,0.0813
17:48:57:028,-4.679,3.239,7.8671,59.8131,-0.2296,0.4576,0.4327,0.0726
17:48:57:047,-4.062,3.381,6.957,60.0248,0.0247,0.346,0.5009,0.0711
17:48:57:069,-3.971,3.527,6.462,60.182,0.0546,0.0373,0.4774,0.0762
17:48:57:088,-4.059,3.687,6.7871,60.2574,0.0045,-0.2553,0.4817,0.0845
17:48:57:109,-3.834,3.572,7.616,60.3941,0.0162,-0.4097,0.4998,0.093
17:48:57:128,-3.363,3.27,8.3771,60.7203,0.1462,-0.4097,0.487,0.0995
17:48:57:148,-3.0491,3.0191,8.66,60.9254,0.3185,-0.3576,0.4082,0.1042
17:48:57:167,-3.135,3.053,8.5129,61.3209,0.4718,-0.2672,0.3263,0.1078
17:48:57:188,-3.3191,3.077,8.2481,61.6026,0.5313,-0.2544,0.2391,0.1117
17:48:57:207,-3.341,3.309,8.157,61.7366,0.4419,-0.366,0.0921,0.1156
17:48:57:228,-3.4061,3.539,8.5211,61.95,0.2919,-0.4874,-0.1037,0.1197
17:48:57:249,-3.662,3.692,9.0041,62.0349,0.1951,-0.5299,-0.2654,0.1232
17:48:57:268,-3.774,3.807,9.347,62.1785,0.1801,-0.4448,-0.3271,0.1249
17:48:57:289,-3.5921,4.0031,9.2891,62.3566,0.1994,-0.282,-0.3484,0.1257
17:48:57:309,-3.279,4.0751,8.9951,62.3768,0.2408,-0.1298,-0.4432,0.1271
17:48:57:328,-3.135,3.6731,8.5571,62.5417,0.3047,-0.2001,-0.69,0.1299
17:48:57:349,-3.4991,3.2681,7.8791,62.7117,0.278,-0.5034,-1.0103,0.1319
17:48:57:367,-4.2559,2.9741,7.5341,62.6918,0.1482,-0.747,-1.1668,0.1316
17:48:57:388,-4.7921,2.6651,7.728,62.7952,0.0025,-0.811,-1.0465,0.128
17:48:57:426,-4.758,2.586,7.9361,62.8615,-0.1082,-0.6673,-0.7465,0.1207
17:48:57:428,-4.1891,2.8661,8.054,62.9864,-0.1849,-0.4183,-0.3974,0.1122
17:48:57:446,-3.138,3.285,8.363,63.1578,-0.2254,-0.3128,-0.1942,0.1062
17:48:57:466,-2.1011,3.393,8.5301,63.2874,-0.1933,-0.4235,-0.309,0.1051
17:48:57:488,-2.127,3.278,8.1971,63.4673,-0.1381,-0.562,-0.6751,0.1082
17:48:57:508,-3.1421,3.005,7.5341,63.5644,-0.0327,-0.4246,-0.9603,0.1119
17:48:57:527,-4.2559,2.832,6.605,63.4368,0.1121,-0.0873,-0.9551,0.1126
17:48:57:548,-5.027,3.041,5.576,63.3513,0.1918,0.1787,-0.7422,0.1104
17:48:57:569,-5.244,3.4571,4.8311,63.1318,0.1386,0.2416,-0.4953,0.1091
17:48:57:590,-5.058,3.9311,4.295,62.9126,-0.0934,0.1852,-0.3325,0.111
17:48:57:608,-4.988,4.396,5.2811,62.9356,-0.3051,-0.1287,-0.2366,0.1169
17:48:57:628,-4.952,4.5821,6.663,62.8979,-0.2434,-0.3862,-0.193,0.1228
17:48:57:648,-5.273,4.815,7.802,62.8272,-0.0965,-0.6992,-0.1899,0.1276
17:48:57:667,-5.877,5.042,8.652,62.8221,0.0279,-0.762,-0.1643,0.1324
17:48:57:688,-5.8691,4.4561,9.067,62.8955,0.0269,-0.448,-0.1558,0.137
17:48:57:707,-6.0461,4.4269,9.3281,62.854,-0.1306,-0.2724,-0.0397,0.1381
17:48:57:727,-6.1061,4.712,9.747,62.9035,-0.3668,-0.1777,0.0411,0.1363
17:48:57:747,-5.999,4.496,10.647,63.1437,-0.5893,-0.2533,-0.1664,0.1341
17:48:57:768,-5.826,3.5981,11.1971,63.5515,-0.7734,-0.5023,-0.6156,0.129
17:48:57:791,-5.922,2.873,11.255,64.0826,-0.9468,-0.6938,-0.8976,0.1184
17:48:57:812,-6.1451,2.669,10.412,64.4361,-1.0458,-0.5779,-0.722,0.1034
17:48:57:827,-5.781,2.583,9.921,64.4563,-0.965,-0.2225,-0.2452,0.0882
17:48:57:847,-5.345,2.3201,9.296,64.1584,-0.7532,0.0734,0.1869,0.0761
17:48:57:867,-5.2781,2.1311,8.9801,63.839,-0.5914,0.0245,0.3784,0.0672
17:48:57:886,-5.369,1.985,8.741,63.7698,-0.551,-0.4203,0.3763,0.0607
17:48:57:908,-4.979,1.76,8.76,63.732,-0.5244,-0.9024,0.3146,0.0555
17:48:57:929,-4.8251,2.0089,8.712,63.6479,-0.3893,-0.9664,0.289,0.051
17:48:57:946,-4.1291,1.4201,9.3041,63.4624,-0.1019,-0.7055,0.2465,0.0493
17:48:57:967,-3.578,1.278,9.153,63.283,0.0609,-0.7641,0.0986,0.0481
17:48:57:986,-3.164,1.6661,8.8061,63.1367,0.1493,-0.7194,-0.0217,0.0469
17:48:58:007,-2.975,1.836,8.5211,63.1661,0.1343,-0.6406,-0.0462,0.0494
17:48:58:026,-2.678,1.719,8.284,63.2149,-0.072,-0.6289,-0.0175,0.0541
17:48:58:049,-2.324,1.523,8.418,63.2738,-0.3637,-0.4394,0.0272,0.0573
17:48:58:077,-1.835,1.518,9.414,63.3871,-0.5318,0.264,0.2273,0.0532
17:48:58:095,-1.974,1.6691,9.4541,63.3064,-0.3722,0.6449,0.437,0.0491
17:48:58:115,-2.113,1.389,9.878,63.2345,-0.1519,0.994,0.7627,0.0474
17:48:58:134,-2.1341,0.929,10.422,63.1,0.1386,0.978,1.0829,0.0457
17:48:58:156,-2.0531,0.998,10.62,63.0017,0.4686,0.7684,1.2033,0.0434
17:48:58:174,-1.715,1.0991,10.704,62.9211,0.807,0.5928,1.0777,0.0443
17:48:58:194,-1.2491,0.7541,10.994,62.8487,1.056,0.4885,0.7232,0.0491
17:48:58:217,-0.5591,-0.258,10.541,62.6753,0.9092,0.0276,-0.0164,0.0548
17:48:58:234,-0.9401,0.1721,8.6831,62.4855,0.4282,-0.0586,-0.7804,0.0544
17:48:58:254,-1.373,0.666,8.597,62.2855,-0.1114,0.4194,-1.038,0.0502
17:48:58:280,-1.385,1.298,9.0791,62.2312,-0.5393,0.7737,-1.0359,0.0437
17:48:58:303,-1.469,1.235,9.213,62.0298,-0.7575,1.0546,-1.0741,0.0375
17:48:58:312,-2.07,0.491,9.249,61.7755,-0.9021,0.9972,-1.1785,0.0299
17:48:58:334,-2.9531,-0.3011,8.9711,61.2875,-0.9948,0.6992,-1.2158,0.0165
17:48:58:353,-3.513,-0.538,8.837,60.7194,-1.0086,0.2969,-1.0593,-0.003
17:48:58:372,-3.518,0.273,9.167,60.2425,-0.8393,0.0756,-0.7304,-0.0237
17:48:58:392,-2.654,0.984,9.287,59.796,-0.4807,0.2234,-0.3909,-0.0363
17:48:58:423,-1.718,0.984,8.7551,59.3589,-0.0465,0.5907,-0.2409,-0.0377
17:48:58:432,-1.577,0.6101,7.716,58.8751,0.3631,1.0526,-0.3123,-0.033
17:48:58:453,-2.1851,0.1241,7.35,58.4758,0.7219,1.4527,-0.5548,-0.0277
17:48:58:471,-3.035,-0.468,7.4411,57.9594,0.972,1.3047,-0.9773,-0.0261
17:48:58:492,-4.725,1.032,6.4571,57.6231,0.7836,0.2075,-1.5573,-0.0292
17:48:58:511,-5.3831,2.353,6.2441,57.2507,0.7921,-0.4278,-1.5797,-0.0276
17:48:58:532,-5.508,1.013,5.937,56.7281,0.758,-0.9365,-1.5925,-0.0128
17:48:58:551,-6.71,1.4201,6.756,56.4929,0.6665,-1.2504,-1.7286,-0.0062
17:48:58:571,-8.702,2.514,7.9601,56.169,0.6038,-1.4846,-1.6276,-0.0023
17:48:58:592,-9.851,2.655,9.1811,55.9726,0.5771,-1.7176,-1.2742,0.0051
17:48:58:611,-9.8531,2.274,10.565,56.0212,0.6867,-1.8167,-0.8433,0.0131
17:48:58:631,-8.936,1.9031,11.729,56.0484,0.9996,-1.7475,-0.3505,0.0202
17:48:58:650,-7.964,1.64,11.9711,56.3728,1.3593,-1.5814,0.0762,0.0289
17:48:58:670,-7.313,1.6661,11.19,56.8288,1.5531,-1.3441,0.3615,0.0402
17:48:58:690,-6.9251,1.934,11.3651,56.9373,1.2827,-0.1787,0.5328,0.0533
17:48:58:710,-6.6761,1.877,12.507,56.9774,1.2827,-0.165,0.8074,0.064
17:48:58:730,-6.257,1.911,12.045,56.8466,1.3295,-0.4107,0.9989,0.0729
17:48:58:749,-5.082,1.8941,10.8101,56.5927,1.2944,-0.4459,1.3012,0.0821
17:48:58:770,-3.4661,1.8431,9.605,56.7466,1.172,0.049,1.4426,0.0926
17:48:58:790,-2.886,1.994,8.3291,57.0166,1.0315,0.7897,1.4736,0.1026
17:48:58:809,-3.2051,2.274,7.0271,57.2154,0.8581,1.3314,1.5044,0.112
17:48:58:830,-3.612,2.5451,6.2531,57.3034,0.626,1.3835,1.5374,0.121
17:48:58:850,-4.191,2.9831,6.4541,56.9063,0.3398,0.9706,1.4235,0.1299
17:48:58:869,-4.493,3.1241,6.687,56.6019,0.1567,0.6588,1.2044,0.1377
17:48:58:890,-3.887,2.49,6.663,56.4007,0.1525,0.6747,1.1159,0.1436
17:48:58:910,-3.351,2.2241,6.428,56.0725,0.1067,0.5928,1.0979,0.1453
17:48:58:941,-2.9681,2.353,6.3041,55.8149,-0.1284,0.2683,1.0436,0.1451
17:48:58:951,-2.6321,2.301,6.6581,55.5501,-0.485,-0.2149,0.9265,0.1457
17:48:58:969,-2.307,2.066,7.3691,55.2053,-0.749,-0.5694,0.8478,0.1444
17:48:58:992,-1.6961,1.9151,7.97,55.0735,-0.7414,-0.4874,0.9127,0.139
17:48:59:009,-1.019,2.018,7.944,55.2133,-0.5851,-0.0447,1,0.1322
17:48:59:028,-1.074,2.579,7.5131,55.1954,-0.5413,0.4885,1.0297,0.128
17:48:59:047,-1.9121,3.2111,7.553,55.4002,-0.5765,0.8301,1.0308,0.1282
17:48:59:068,-2.484,3.531,8.142,55.5911,-0.5818,0.7376,1.1181,0.1305
17:48:59:088,-2.261,3.716,8.8391,55.647,-0.4796,0.3651,1.2266,0.1318
17:48:59:107,-1.481,3.845,9.749,55.6917,-0.2721,0.0106,1.1777,0.1342
17:48:59:128,-0.5831,3.8351,10.58,55.5308,0.0588,0.0128,0.9287,0.139
17:48:59:147,-0.054,3.689,10.862,55.2797,0.4388,0.1096,0.602,0.1457
17:48:59:168,-0.413,3.768,10.7261,55.0889,0.6165,-0.2309,0.2486,0.1534
17:48:59:189,-1.1741,3.8861,10.496,54.9144,0.6101,-0.7035,-0.0015,0.162
17:48:59:207,-1.5431,3.756,10.292,54.8323,0.5654,-0.9354,-0.0685,0.1705
17:48:59:227,-1.404,3.6251,9.89,54.7947,0.5526,-0.8865,-0.0291,0.1774
17:48:59:246,-0.087,3.1751,9.387,54.7386,0.6282,-0.6226,-0.0184,0.1833
17:48:59:267,0.221,3.2111,8.76,54.5951,0.8038,-0.415,-0.227,0.1893
17:48:59:289,-0.401,3.5531,7.5851,54.5893,0.8229,-0.4863,-0.425,0.197
17:48:59:307,-1.3751,3.57,6.663,54.609,0.6229,-0.8312,-0.5463,0.208
17:48:59:327,-1.854,3.2201,6.0911,54.8383,0.2281,-1.1078,-0.6581,0.2184
17:48:59:346,-1.847,2.459,6.1481,55.2977,-0.2721,-1.1514,-0.7645,0.2238
17:48:59:366,-2.12,1.8941,6.818,55.6411,-0.7809,-1.0036,-0.723,0.2191
17:48:59:386,-2.508,1.932,7.896,55.6912,-1.1406,-0.7343,-0.4059,0.203
17:48:59:408,-2.7161,2.351,8.897,55.2187,-1.2129,-0.3161,0.1337,0.1814
17:48:59:438,-2.4791,2.648,9.96,54.3256,-1.0884,0.033,0.701,0.1611
17:48:59:447,-1.553,2.636,9.9641,53.4683,-0.8361,0.216,1.0724,0.1442
17:48:59:466,-1.22,2.693,9.251,52.985,-0.6181,0.346,1.1862,0.1325
17:48:59:488,-2.084,2.978,8.226,52.6893,-0.4562,0.3906,1.2192,0.1255
17:48:59:510,-3.197,3.431,7.4381,52.7558,-0.3147,0.4203,1.3586,0.1214
17:48:59:530,-3.8771,3.998,7.187,53.0248,-0.1657,0.4852,1.5598,0.1187
17:48:59:548,-3.6641,4.367,6.6941,53.174,-0.072,0.6619,1.7832,0.1182
17:48:59:570,-2.417,4.664,6.117,53.3792,-0.1614,0.8449,1.8758,0.121
17:48:59:587,-1.6481,5.4491,6.5651,53.302,-0.436,0.7865,1.6757,0.1293
17:48:59:609,-1.3871,5.801,7.982,53.0673,-0.6468,0.3534,1.3991,0.1422
17:48:59:631,-0.887,5.5811,9.608,52.9521,-0.5637,-0.1522,1.3299,0.1528
17:48:59:651,-0.027,5.361,10.4531,52.9068,-0.2476,-0.4087,1.3533,0.1605
17:48:59:669,0.584,5.385,10.347,52.7271,0.0375,-0.4118,1.2873,0.1699
17:48:59:687,1.784,5.502,9.7751,52.8462,-0.021,-0.2991,1.0447,0.1822
17:48:59:708,2.253,5.586,9.747,52.735,-0.4562,-0.2192,0.5903,0.1978
17:48:59:727,1.3631,5.681,10.601,52.558,-0.8458,-0.1,0.2434,0.2111
17:48:59:750,0.9461,5.021,11.727,52.5216,-0.9905,-0.1724,0.223,0.2152
17:48:59:772,1.37,3.95,12.383,52.2703,-0.9405,-0.3406,0.2848,0.2104
17:48:59:788,1.614,3.053,12.876,52.0052,-0.6904,-0.4682,0.1902,0.2024
17:48:59:808,1.3751,2.207,12.1361,51.9855,-0.3403,-0.6599,-0.0345,0.1936
17:48:59:832,0.2801,1.8101,11.3291,52.215,-0.2934,-0.5002,-0.26,0.1853
17:48:59:847,-1.407,1.518,10.2371,52.358,-0.302,-0.3224,-0.1792,0.1744
17:48:59:869,-2.901,0.807,9.95,52.8642,-0.3913,0.1363,0.238,0.1575
17:48:59:892,-3.41,0.639,8.937,53.0502,-0.4052,0.265,0.7584,0.1312
17:48:59:910,-1.77,1.065,8.76,52.9819,-0.3264,0.0597,1.016,0.1017
17:48:59:929,0.458,1.7861,9.474,52.853,-0.0657,-0.1884,0.7711,0.0821
17:48:59:957,2.169,2.349,10.034,52.6107,0.2281,-0.2777,0.2753,0.0818
17:48:59:968,2.466,2.3681,9.624,52.5422,0.476,-0.1915,-0.1259,0.0946
17:48:59:988,1.652,2.43,8.717,52.3913,0.5292,-0.414,-0.1526,0.1109
17:49:00:016,1.061,2.7221,7.7831,52.3515,0.4632,-0.6332,0.137,0.1263
17:49:00:028,1.047,2.883,7.328,52.4163,0.3824,-0.4927,0.3582,0.1419
17:49:00:047,0.8381,2.9741,6.9881,52.3419,0.3175,-0.1841,0.386,0.1576
17:49:00:067,0.168,3.321,6.723,52.5336,0.2046,0.0543,0.3752,0.1701
17:49:00:090,-0.308,3.519,7.041,52.6906,-0.0103,0.0766,0.419,0.1789
17:49:00:108,-0.078,3.3731,7.793,52.5901,-0.1944,-0.0468,0.4657,0.1828
17:49:00:128,0.551,3.354,8.628,52.6171,-0.3009,-0.1405,0.4615,0.1831
17:49:00:147,0.996,3.39,9.4931,52.5639,-0.37,-0.0521,0.4008,0.1831
17:49:00:168,1.212,3.4241,10.592,52.3736,-0.4232,0.0117,0.3189,0.1828
17:49:00:188,1.37,3.146,11.375,52.3299,-0.4329,-0.1341,0.2816,0.1805
17:49:00:207,2.2271,2.885,11.813,52.4057,-0.3774,-0.3341,0.256,0.1766
17:49:00:228,3.1151,3.033,12.0281,52.4955,-0.2573,-0.397,0.089,0.1748
17:49:00:249,3.8501,2.8391,12.323,52.6708,-0.1731,-0.5034,-0.2643,0.1774
17:49:00:266,3.5321,2.234,12.6791,52.717,-0.271,-0.6098,-0.6145,0.1825
17:49:00:287,2.651,0.627,12.615,52.6035,-0.5637,-0.3501,-0.6336,0.1845
17:49:00:307,1.9781,-0.389,12.5741,52.4451,-0.7414,0.3246,-0.3644,0.1749
17:49:00:328,1.233,0.002,11.082,52.3986,-0.5968,0.7205,-0.0505,0.1537
17:49:00:347,1.2791,0.5651,8.243,52.2304,-0.4275,0.5279,0.0773,0.131
17:49:00:367,1.272,0.8261,7.182,51.9887,-0.2966,0.1543,-0.1739,0.1172
17:49:00:388,0.879,1.01,7.743,51.7294,-0.1583,-0.298,-0.5389,0.1135
17:49:00:408,0.6971,0.888,8.5129,51.459,-0.037,-0.3927,-0.756,0.113
17:49:00:427,0.69,0.5771,8.7071,51.1572,0.0461,-0.1138,-0.8209,0.1119
17:49:00:451,0.1991,0.996,8.262,51.3266,0.0407,0.1203,-0.771,0.1077
17:49:00:467,0.0461,1.815,7.676,51.6167,0.0131,0.2395,-0.6655,0.1026
17:49:00:488,0.2111,2.4131,7.58,51.8278,0.0674,0.2714,-0.6251,0.1023
17:49:00:507,0.62,2.696,8.111,52.018,0.2419,0.2852,-0.657,0.1078
17:49:00:528,0.101,2.8871,7.91,51.8446,0.3802,0.2629,-0.6475,0.1167
17:49:00:547,-0.425,3.0791,7.161,51.5356,0.2355,0.1246,-0.5314,0.1255
17:49:00:568,-0.09,3.0671,7.731,51.3333,-0.0316,0.0808,-0.3825,0.1336
17:49:00:589,0.558,2.997,8.772,51.1763,-0.1572,0.0873,-0.291,0.1395
17:49:00:607,0.843,3.0671,9.5531,51.308,-0.104,0.1075,-0.258,0.143
17:49:00:630,0.561,3.278,9.957,51.4826,0.0375,0.0842,-0.1866,0.146
17:49:00:653,0.113,3.6371,9.914,51.6769,0.1844,0.0256,-0.0844,0.1489
17:49:00:670,-0.039,3.9221,9.849,51.7734,0.2504,-0.083,-0.0164,0.1531
17:49:00:688,0.2111,3.852,10.3691,51.888,0.2706,-0.3033,-0.0078,0.1593
17:49:00:707,0.783,3.378,11.7701,52.1255,0.3972,-0.3608,-0.0738,0.1656
17:49:00:729,0.7421,3.201,12.974,52.4573,0.4334,-0.1852,-0.0994,0.17
17:49:00:749,0.702,3.072,13.568,52.8926,0.3142,0.1394,-0.0355,0.1706
17:49:00:774,-0.071,2.5931,13.161,53.4597,0.3142,0.4885,0.2135,0.1677
17:49:00:787,-1.227,2.353,11.456,53.9377,0.294,0.7589,0.5892,0.1605
17:49:00:806,-1.67,2.09,10.2851,54.3663,0.1875,0.8779,0.7722,0.1497
17:49:00:827,-1.967,1.824,9.749,54.6631,0.0216,0.7546,0.8308,0.1372
17:49:00:847,-1.857,1.4291,9.512,54.7206,-0.1199,0.5896,0.9181,0.1231
17:49:00:867,-1.505,1.362,9.011,54.6259,-0.1764,0.5587,1.017,0.108
17:49:00:887,-1.2941,1.755,8.267,54.5337,-0.2051,0.6918,1.0064,0.0946
17:49:00:907,-1.047,2.018,7.79,54.5198,-0.3605,0.7769,0.8691,0.0855
17:49:00:926,-0.554,1.937,7.9271,54.7016,-0.6765,0.8514,0.668,0.0798
17:49:00:949,-0.4181,1.8821,8.633,54.8375,-0.932,0.9259,0.5041,0.0739
17:49:00:969,-0.7151,2.097,9.366,55.0172,-0.9021,0.8662,0.5285,0.0654
17:49:00:987,-0.353,2.325,9.057,55.2161,-0.7117,0.6119,0.8031,0.0567
17:49:01:009,0.7301,2.353,8.966,55.317,-0.4542,0.5534,0.9713,0.0539
17:49:01:026,1.3961,2.636,9.138,55.5549,-0.1562,0.5864,0.8436,0.0585
17:49:01:048,1.791,2.918,9.344,55.7037,0.1099,0.5162,0.5115,0.0685
17:49:01:066,1.7891,2.942,9.636,55.8291,0.3217,0.2245,0.0986,0.0824
17:49:01:088,1.6571,2.61,9.735,56.1092,0.5483,-0.0564,-0.2366,0.0972
17:49:01:109,1.3121,2.454,9.6671,56.3108,0.8038,-0.2149,-0.4506,0.1108
17:49:01:129,1.075,2.5091,9.323,56.3808,0.9815,-0.2798,-0.608,0.123
17:49:01:148,0.819,2.684,9.354,56.3608,0.9815,-0.3426,-0.7804,0.1352
17:49:01:167,0.786,2.543,10.1201,56.5073,0.7953,-0.5822,-1.0178,0.1467
17:49:01:193,0.747,2.0351,11.4611,56.79,0.4632,-0.9428,-1.3062,0.1548
17:49:01:208,0.312,1.745,12.933,57.0857,0.2546,-0.9812,-1.4244,0.1568
17:49:01:229,-0.1691,1.832,13.671,57.5578,0.4345,-0.5768,-1.2679,0.153
17:49:01:247,-0.2021,2.0831,12.9,57.802,0.8016,-0.232,-1.0593,0.1473
17:49:01:267,0.4721,2.286,11.327,57.9881,0.8762,-0.2767,-1.0986,0.1444
17:49:01:291,0.9461,2.162,9.725,58.3266,0.4419,-0.6161,-1.4499,0.1469
17:49:01:309,0.393,2.1041,9.711,58.4415,-0.022,-0.6247,-1.6819,0.1513
17:49:01:328,-0.1931,1.697,10.221,58.5262,-0.071,-0.381,-1.6691,0.1513
17:49:01:347,-0.753,1.583,9.7271,58.4693,0.1866,-0.0703,-1.5478,0.1447
17:49:01:367,-1.074,1.8581,8.865,58.5652,0.476,0.0404,-1.3541,0.1368
17:49:01:388,-1.007,2.097,8.135,59.0461,0.6047,-0.2937,-1.2041,0.1327
17:49:01:408,-0.3911,1.9661,7.647,59.5671,0.5144,-0.811,-1.1753,0.1343
17:49:01:432,0.137,1.841,7.3691,60.2955,0.3377,-1.0163,-1.2264,0.1395
17:49:01:446,-0.171,2.0711,7.307,60.948,0.2771,-0.7706,-1.2668,0.1452
17:49:01:466,-1.023,2.495,7.2161,61.1945,0.3759,-0.3363,-1.2317,0.1501
17:49:01:486,-1.914,2.861,6.809,61.1736,0.5196,0.0032,-1.1274,0.1547
17:49:01:507,-2.379,3.335,6.237,60.9962,0.542,0.1246,-0.9688,0.1597
17:49:01:527,-2.742,3.974,6.083,60.7073,0.3653,0.0393,-0.8199,0.1672
17:49:01:546,-2.738,4.4411,6.567,60.5807,0.1035,-0.0936,-0.6942,0.1772
17:49:01:566,-2.426,4.3601,7.415,60.5949,-0.0433,-0.0373,-0.5857,0.187
17:49:01:587,-2.324,4.151,8.159,60.7239,-0.0263,0.1341,-0.4953,0.1927
17:49:01:607,-2.3591,4.061,8.7071,61.002,0.06,0.2937,-0.4059,0.1943
17:49:01:626,-2.558,4.0841,9.251,61.0441,0.1312,0.4044,-0.3217,0.194
17:49:01:648,-2.675,4.2041,9.6671,61.2177,0.1909,0.4641,-0.227,0.1929
17:49:01:667,-2.517,4.034,9.9911,61.2014,0.1343,0.3662,-0.1866,0.1921
17:49:01:687,-2.34,3.9341,10.565,61.0997,-0.0529,0.2139,-0.2175,0.1908
17:49:01:707,-2.556,3.9791,11.2601,61.0311,-0.1679,0.2842,-0.2388,0.1876
17:49:01:730,-2.654,3.5531,11.547,61.0196,-0.171,0.3543,-0.193,0.1826
17:49:01:747,-2.7641,3.06,11.432,60.7839,-0.2083,0.3332,-0.0716,0.176
17:49:01:768,-3.2051,3.203,11.384,60.6125,-0.1358,0.5023,0.2188,0.1674
17:49:01:789,-3.3191,3.462,10.9841,60.3922,0.1673,0.7333,0.5668,0.1601
17:49:01:808,-2.85,3.5291,9.833,60.1306,0.4718,0.7524,0.7254,0.1575
17:49:01:829,-2.3501,3.524,8.487,59.9483,0.494,0.4843,0.6094,0.1608
17:49:01:849,-2.352,3.56,7.7501,59.7261,0.2685,0.1639,0.37,0.1681
17:49:01:871,-2.642,3.395,7.7831,59.5286,0.0301,0.0159,0.2028,0.176
17:49:01:888,-2.709,2.9021,8.37,59.2687,-0.2349,0.0234,0.2955,0.1796
17:49:01:909,-2.177,2.66,8.4971,59.0582,-0.2721,0.1469,0.4604,0.1762
17:49:01:928,-1.6001,2.6,8.636,59.0352,-0.1924,0.2692,0.5935,0.1714
17:49:01:948,-1.067,2.6861,8.619,58.9193,-0.0008,0.2809,0.637,0.1675
17:49:01:977,-0.5951,2.8061,8.3,59.0491,0.2003,0.1787,0.5721,0.1668
17:49:01:992,-0.494,3.122,7.857,59.0268,0.3462,0.0564,0.4657,0.1701
17:49:02:014,-0.5689,3.4571,7.4981,58.8391,0.3941,-0.0447,0.3774,0.1778
17:49:02:029,-0.53,3.677,7.3451,58.8073,0.3175,-0.1064,0.304,0.1889
17:49:02:048,-0.53,3.8621,7.503,58.7149,0.1462,-0.0468,0.2434,0.2007
17:49:02:068,-0.672,3.8951,8.456,58.8814,-0.0049,0.0074,0.2113,0.211
17:49:02:090,-0.554,3.74,9.498,59.0312,0.0727,0.0426,0.2113,0.2161
17:49:02:110,-0.542,3.9461,10.142,59.2543,0.3653,0.0362,0.1965,0.2169
17:49:02:130,-0.3,4.077,10.3091,59.4241,0.5505,-0.2586,0.1114,0.2188
17:49:02:148,-0.116,4.1951,10.268,59.315,0.5431,-0.4289,-0.0143,0.2233
17:49:02:166,-0.329,4.412,9.981,59.2198,0.4313,-0.2394,-0.0291,0.229
17:49:02:191,-0.305,4.671,9.368,59.0297,0.2014,-0.0139,-0.0067,0.2343
17:49:02:206,0.1391,4.755,9.0161,58.8587,-0.2721,-0.1596,-0.2665,0.2395
17:49:02:228,0.5291,3.9791,9.605,58.8363,-0.8031,-0.4746,-0.672,0.2431
17:49:02:248,0.1391,2.8991,10.881,58.9584,-1.0224,-0.399,-0.8359,0.2392
17:49:02:268,-1.193,3.122,11.676,59.0479,-0.716,0.033,-0.6282,0.2237
17:49:02:289,-1.632,3.584,11.1041,58.8807,-0.1455,0.2959,-0.2494,0.2071
17:49:02:307,-0.549,3.474,9.687,58.6224,0.2227,0.0714,-0.0366,0.1982
17:49:02:327,0.663,3.287,8.37,58.2926,0.2398,-0.3097,-0.1334,0.1978
17:49:02:347,0.6731,3.359,7.8791,57.9465,0.095,-0.4724,-0.4176,0.2034
17:49:02:366,-0.329,3.539,7.853,57.9365,0.0344,-0.3119,-0.5911,0.2105
17:49:02:388,-1.052,3.881,7.386,58.1099,0.0663,0.0234,-0.5272,0.2151
17:49:02:408,-1.1501,3.9341,6.972,58.2054,0.0705,0.165,-0.4304,0.2199
17:49:02:428,-0.9731,4.173,6.8711,58.1744,0.0854,0.0532,-0.4591,0.2252
17:49:02:449,-0.897,4.4411,7.082,57.8365,0.1259,-0.0862,-0.6273,0.2322
17:49:02:473,-1.572,4.652,7.319,57.3082,0.2281,-0.1352,-0.7858,0.2405
17:49:02:489,-2.453,4.9511,7.182,56.8122,0.3217,-0.1532,-0.7719,0.2477
17:49:02:509,-2.8931,5.279,6.9191,56.6607,0.261,-0.1628,-0.639,0.2546
17:49:02:527,-2.996,5.5571,7.254,56.6396,0.0716,-0.1213,-0.4782,0.2621
17:49:02:547,-2.831,5.538,8.276,56.5478,-0.072,-0.033,-0.3154,0.2682
17:49:02:569,-2.5151,5.315,9.419,56.6451,-0.0274,0.1033,-0.1675,0.2697
17:49:02:587,-2.352,5.112,10.082,56.4544,0.2131,0.2831,-0.0675,0.2672
17:49:02:607,-2.594,5.174,9.974,56.0215,0.5153,0.463,-0.028,0.2637
17:49:02:628,-3.047,5.286,9.5381,55.854,0.6633,0.4374,-0.0153,0.2623
17:49:02:647,-3.1691,5.049,9.2201,55.4794,0.6016,0.2661,-0.0121,0.2634
17:49:02:669,-3.3311,4.8311,9.239,55.1252,0.4388,0.198,0.0166,0.2645
17:49:02:687,-3.257,4.6661,9.3011,54.8984,0.2291,0.1671,0.0656,0.2631
17:49:02:707,-2.85,4.271,9.612,54.5119,-0.0412,0.1298,0.0964,0.2596
17:49:02:730,-2.819,4.211,10.223,54.3132,-0.1998,0.231,0.1581,0.2528
17:49:02:747,-2.841,4.1801,10.35,54.3889,-0.0837,0.4033,0.2688,0.2436
17:49:02:766,-2.783,3.948,9.545,54.616,0.093,0.4448,0.3125,0.2352
17:49:02:788,-2.901,3.747,8.4701,54.7369,0.0811,0.3491,0.2848,0.2293
17:49:02:807,-3.147,3.5291,7.848,54.6202,-0.038,0.2767,0.289,0.2253
17:49:02:827,-3.296,3.4931,7.608,54.4664,-0.1242,0.2927,0.3615,0.2207
17:49:02:848,-3.252,3.507,7.4741,54.1366,-0.1722,0.3289,0.4529,0.2157
17:49:02:868,-2.774,3.383,7.223,53.7232,-0.2584,0.2937,0.5104,0.2111
17:49:02:886,-1.77,3.098,7.094,53.5184,-0.4158,0.2447,0.5243,0.2071
17:49:02:908,-0.98,2.8421,7.307,53.0766,-0.6105,0.1873,0.4711,0.2032
17:49:02:927,-0.7841,2.8181,7.841,52.8106,-0.7191,0.1565,0.388,0.1979
17:49:02:946,-1.0091,2.988,8.4011,52.6601,-0.6478,0.1288,0.3455,0.191
17:49:02:966,-1.4021,3.263,8.564,52.5037,-0.3817,0.099,0.3763,0.1841
17:49:02:990,-1.751,3.914,9.035,52.4455,-0.0294,-0.0947,0.4764,0.1801
17:49:03:007,-1.284,4.151,8.6621,52.3533,0.2569,-0.2692,0.5254,0.1819
17:49:03:028,-1.047,4.3601,8.217,52.2207,0.408,-0.3213,0.4945,0.1899
17:49:03:046,-1.1291,4.853,8.0111,52.163,0.3802,-0.3384,0.4731,0.2015
17:49:03:068,-1.047,5.1671,8.097,51.9019,0.2855,-0.2458,0.4604,0.2151
17:49:03:087,-0.9491,5.159,8.384,51.6248,0.2569,-0.1203,0.4082,0.2282
17:49:03:107,-1.0001,5.322,8.762,51.4087,0.3101,-0.1596,0.3455,0.2384
17:49:03:126,-0.71,5.5091,9.114,51.1201,0.3622,-0.3767,0.2731,0.2467
17:49:03:147,-0.126,5.5451,9.414,51.019,0.3377,-0.5694,0.1028,0.2552
17:49:03:166,0.1151,5.514,9.588,51.0203,0.2419,-0.5822,-0.1484,0.2638
17:49:03:187,-0.212,5.7101,9.533,51.0079,0.1217,-0.4087,-0.3505,0.2707
17:49:03:207,-0.267,5.5781,9.294,50.9403,-0.0412,-0.3597,-0.4643,0.2755
17:49:03:228,0.1181,5.3531,8.961,50.7363,-0.2636,-0.3895,-0.6113,0.2782
17:49:03:247,0.7211,4.4441,9.1481,50.4956,-0.5637,-0.5342,-0.8539,0.2796
17:49:03:268,0.704,3.5771,9.938,50.1376,-0.7659,-0.5279,-1.0497,0.2764
17:49:03:286,-0.1301,3.1751,10.505,49.8072,-0.6062,-0.2001,-1.0337,0.2651
17:49:03:306,-0.777,3.053,10.245,49.4827,-0.1816,0.0256,-0.8624,0.2494
17:49:03:327,-0.669,2.883,9.344,49.1202,0.1801,-0.1405,-0.7124,0.2356
17:49:03:347,-0.15,2.751,8.463,48.7335,0.2365,-0.5746,-0.7124,0.2272
17:49:03:369,0.0941,2.751,8.073,48.4604,0.06,-0.813,-0.8326,0.224
17:49:03:386,-0.344,2.93,7.8341,48.1673,-0.1785,-0.5662,-0.8911,0.2227
17:49:03:408,-1.2491,2.916,8.111,48.0032,-0.3264,-0.2373,-0.7932,0.2206
17:49:03:450,-2.2061,3.378,8.111,47.7153,-0.1807,-0.0148,-0.5633,0.2135
17:49:03:452,-2.675,3.95,7.647,47.3045,0.1354,0.0478,-0.3208,0.2068
17:49:03:466,-2.505,4.2521,6.941,46.9045,0.3685,-0.0851,-0.2133,0.2063
17:49:03:487,-2.2901,4.6691,6.306,46.3385,0.3781,-0.3128,-0.2643,0.2123
17:49:03:508,-2.261,5.0921,6.1001,45.6494,0.1823,-0.4405,-0.3612,0.224
17:49:03:528,-2.304,5.3291,6.51,44.8492,-0.1071,-0.3682,-0.4315,0.2376
17:49:03:549,-2.58,5.435,7.551,44.1504,-0.3296,-0.1819,-0.4421,0.2477
17:49:03:567,-2.6951,5.282,8.762,43.6363,-0.3956,-0.0276,-0.3729,0.2507
17:49:03:589,-2.493,4.994,9.89,43.419,-0.286,0.0745,-0.242,0.2476
17:49:03:608,-2.096,4.7,10.563,43.3477,-0.0263,0.1745,-0.1282,0.2413
17:49:03:629,-2.046,4.6541,10.769,43.1569,0.2504,0.2416,-0.0952,0.2353
17:49:03:649,-2.4191,4.872,10.637,42.8616,0.4026,0.1926,-0.1387,0.2314
17:49:03:667,-2.771,4.851,10.403,42.5246,0.3961,0.1235,-0.176,0.2302
17:49:03:689,-2.999,4.5971,10.2281,42.077,0.294,0.1138,-0.1526,0.2296
17:49:03:708,-3.1901,4.0031,10.0361,41.8385,0.1408,0.1533,-0.1185,0.2275
17:49:03:728,-3.7151,3.309,10.151,41.5929,-0.0008,0.2672,-0.0824,0.2219
17:49:03:749,-4.6241,2.9261,10.4,41.0988,0.0236,0.4459,0.0688,0.2109
17:49:03:771,-5.2421,2.892,9.974,40.759,0.1599,0.5375,0.3795,0.1967
17:49:03:789,-5.0531,3.1631,9.1361,40.3689,0.1812,0.5162,0.7796,0.1839
17:49:03:807,-3.8441,3.431,8.2931,40.0008,0.0833,0.5418,1.0744,0.1754
17:49:03:830,-2.721,3.596,7.628,39.9661,-0.0923,0.661,1.0883,0.1724
17:49:03:847,-2.403,3.819,7.269,39.8373,-0.2923,0.7259,0.884,0.1731
17:49:03:869,-2.759,3.948,7.304,39.6053,-0.4818,0.5874,0.6615,0.1751
17:49:03:888,-3.08,3.785,7.661,39.2496,-0.6062,0.3682,0.6296,0.1754
17:49:03:907,-2.975,3.63,8.042,39.0849,-0.601,0.2916,0.7998,0.1723
17:49:03:928,-2.438,3.668,8.193,39.0426,-0.4647,0.3534,1.05,0.1678
17:49:03:948,-1.667,3.8,7.9601,38.7787,-0.2892,0.4906,1.2288,0.1655
17:49:03:967,-1.0091,3.9791,7.628,38.7136,-0.2146,0.5928,1.2457,0.1679
17:49:03:989,-0.6761,4.13,7.898,38.3747,-0.2232,0.531,1.1128,0.1744
17:49:04:009,-0.449,4.034,8.655,38.1778,-0.1327,0.3619,0.8999,0.1817
17:49:04:026,-0.375,3.869,9.069,38.1875,0.0716,0.3065,0.7116,0.1869
17:49:04:046,-0.4871,3.8261,8.985,38.1273,0.2111,0.3278,0.5903,0.1904
17:49:04:069,-0.5711,3.879,8.8871,38.3513,0.245,0.3374,0.505,0.1937
17:49:04:087,-0.6281,3.977,8.897,38.4325,0.3036,0.2863,0.3795,0.1969
17:49:04:110,-0.9851,4.319,8.8151,38.236,0.3674,0.115,0.2199,0.2001
17:49:04:129,-1.428,4.64,9.067,38.029,0.3047,-0.165,0.0804,0.2046
17:49:04:148,-1.596,4.491,9.837,37.6075,0.1833,-0.4097,0.0368,0.2096
17:49:04:167,-1.335,4.563,10.553,37.2845,0.1898,-0.4437,0.1741,0.2113
17:49:04:187,-0.6521,4.9031,10.592,37.2212,0.3631,-0.2596,0.3539,0.2118
17:49:04:210,0.1511,5.253,10.017,37.2414,0.5218,-0.1767,0.3146,0.2155
17:49:04:230,0.714,5.207,9.2321,37.1418,0.4771,-0.3736,-0.0642,0.2246
17:49:04:248,0.393,4.863,8.8511,36.7868,0.2632,-0.5779,-0.5772,0.2366
17:49:04:268,-0.375,4.211,9.023,36.424,0.044,-0.6247,-0.8774,0.2459
17:49:04:288,-0.9161,3.783,9.1721,36.2725,-0.1071,-0.5268,-0.9019,0.2467
17:49:04:308,-0.789,3.402,9.062,36.2618,-0.3031,-0.432,-0.7751,0.2408
17:49:04:328,-0.3671,3.333,9.1361,36.1631,-0.4872,-0.232,-0.6187,0.2317
17:49:04:350,-0.281,3.51,9.351,36.1005,-0.4892,-0.0862,-0.5006,0.222
17:49:04:370,-0.245,3.735,9.191,35.861,-0.3233,-0.2373,-0.4676,0.2133
17:49:04:391,-0.2171,3.752,8.595,35.5752,-0.1381,-0.4821,-0.5229,0.2087
17:49:04:409,-0.6881,3.953,7.92,35.4563,0.0099,-0.5171,-0.5772,0.2088
17:49:04:432,-1.574,4.3361,7.4291,35.3831,0.1961,-0.2991,-0.5857,0.2122
17:49:04:449,-2.465,4.5971,6.8111,35.2686,0.3941,-0.1235,-0.575,0.2172
17:49:04:471,-3.231,4.8551,6.239,35.2154,0.4632,-0.198,-0.5516,0.2229
17:49:04:490,-3.554,4.9391,6.1031,35.1026,0.3813,-0.3948,-0.4899,0.2293
17:49:04:512,-3.434,4.836,6.459,35.047,0.2493,-0.4502,-0.341,0.235
17:49:04:531,-3.279,5.04,7.0271,35.1337,0.1653,-0.3022,-0.1324,0.2381
17:49:04:551,-2.901,5.31,7.692,35.1931,0.111,-0.0925,0.0263,0.2396
17:49:04:571,-2.393,5.325,8.3291,35.3135,0.0811,0.1128,0.1018,0.2408
17:49:04:593,-1.548,5.25,9.3371,35.3159,0.3217,0.2788,0.1826,0.2407
17:49:04:609,-1.505,5.528,9.114,35.2009,0.4909,0.3002,0.1305,0.2415
17:49:04:630,-1.751,5.765,8.571,35.1363,0.5005,0.3054,0.0177,0.2455
17:49:04:649,-2.1461,5.6861,8.288,35.1835,0.276,0.2852,-0.0824,0.2516
17:49:04:672,-2.79,5.612,8.585,35.2647,-0.0188,0.4311,-0.0653,0.2558
17:49:04:689,-3.4391,5.531,9.057,35.3694,-0.1881,0.6194,0.1006,0.2545
17:49:04:708,-3.3431,4.9271,9.416,35.3411,-0.2626,0.6237,0.2816,0.2485
17:49:04:728,-3.4301,4.652,9.854,35.3261,-0.1796,0.7056,0.4179,0.2393
17:49:04:748,-3.612,4.5731,9.747,35.2891,0.1013,0.7024,0.5306,0.2289
17:49:04:769,-3.482,4.6091,8.925,35.3095,0.326,0.4417,0.5488,0.2207
17:49:04:789,-2.841,4.377,8.063,35.4077,0.2291,0.0521,0.4561,0.2176
17:49:04:807,-2.187,4.14,8.1379,35.476,-0.0635,-0.0223,0.3615,0.2181
17:49:04:829,-1.9481,4.4,8.892,35.4536,-0.2296,0.1671,0.3784,0.2174
17:49:04:848,-1.1981,4.542,9.263,35.3277,-0.2189,0.3172,0.3988,0.2148
17:49:04:868,-0.348,4.274,9.093,35.1436,-0.2126,0.3256,0.1805,0.2135
17:49:04:889,-0.4421,3.986,8.9111,35.0395,-0.2263,0.3224,-0.1515,0.2134
17:49:04:907,-1.203,3.7061,8.6981,35.3036,-0.1306,0.3321,-0.3123,0.2118
17:49:04:930,-1.907,3.6821,8.0801,35.5241,0.0546,0.3087,-0.2548,0.2077
17:49:04:949,-2.175,3.8381,7.221,35.775,0.1664,0.2245,-0.0855,0.2044
17:49:04:979,-2.0051,4.025,6.6341,35.9209,0.0769,0.0862,0.0485,0.2052
17:49:04:989,-1.6631,4.245,6.675,35.904,-0.1008,0.0873,0.1199,0.2096
17:49:05:017,-1.6031,4.338,7.149,35.8854,-0.1933,0.2043,0.1731,0.2154
17:49:05:029,-1.9361,4.5731,7.553,35.9774,-0.1401,0.2905,0.2529,0.219
17:49:05:049,-2.1101,4.7621,7.7981,35.9989,0.0067,0.2182,0.3561,0.2211
17:49:05:070,-2.072,5.0801,7.848,36.2867,0.2185,0.0521,0.4295,0.2239
17:49:05:088,-1.857,5.396,7.721,36.3506,0.426,-0.1884,0.4306,0.2299
17:49:05:110,-1.454,5.6381,7.695,36.2629,0.4707,-0.4874,0.3072,0.24
17:49:05:131,-0.9881,5.634,8.1281,36.299,0.2962,-0.6354,0.0762,0.253
17:49:05:147,-0.8561,5.483,9.141,36.2751,0.0811,-0.4874,-0.1376,0.2642
17:49:05:170,-1.196,5.4641,9.9791,36.5512,-0.0146,-0.2277,-0.2409,0.2687
17:49:05:190,-1.476,5.574,10.2371,37.092,0.012,-0.1682,-0.2984,0.2674
17:49:05:209,-1.3301,5.4851,10.005,37.3841,0.0322,-0.3725,-0.4027,0.2648
17:49:05:230,-1.095,5.37,9.5531,37.5491,-0.006,-0.5193,-0.5336,0.2635
17:49:05:249,-0.9731,5.021,8.921,37.4774,-0.1551,-0.513,-0.6549,0.2636
17:49:05:270,-1.019,4.29,8.7,37.3979,-0.4371,-0.4214,-0.7304,0.2634
17:49:05:288,-1.533,3.929,9.258,37.4397,-0.5786,-0.2043,-0.6549,0.2582
17:49:05:311,-1.718,3.7091,9.45,37.7697,-0.3893,-0.0373,-0.4133,0.2471
17:49:05:328,-1.395,3.716,8.6569,37.9569,-0.0402,-0.0287,-0.1899,0.2353
17:49:05:348,-0.839,3.764,7.422,38.0872,0.1759,-0.1702,-0.1409,0.2292
17:49:05:369,-0.243,3.668,6.1961,38.1827,0.0492,-0.4363,-0.2558,0.2311
17:49:05:390,0.122,3.132,5.691,38.1498,-0.352,-0.5459,-0.4506,0.2387
17:49:05:409,-0.674,2.837,6.3281,38.2442,-0.6648,-0.3406,-0.5868,0.2437
17:49:05:428,-2.015,3.1601,6.864,38.3789,-0.6084,-0.0905,-0.4665,0.2381
17:49:05:451,-2.5631,3.6971,6.359,38.4111,-0.3168,0.0054,-0.1749,0.2283
17:49:05:470,-2.367,4.238,5.5331,38.5186,-0.0678,-0.0575,0.0038,0.2246
17:49:05:490,-2.264,4.9031,4.841,38.7245,-0.1253,-0.2809,-0.0781,0.2313
17:49:05:514,-2.546,5.54,5.178,38.7712,-0.3785,-0.4374,-0.293,0.2459
17:49:05:531,-2.8121,5.418,6.78,38.8518,-0.5382,-0.5097,-0.4548,0.2607
17:49:05:549,-2.972,5.306,8.5091,38.9885,-0.4807,-0.48,-0.4847,0.2653
17:49:05:569,-2.9051,5.306,9.612,39.1341,-0.3413,-0.3884,-0.4261,0.262
17:49:05:588,-2.649,5.315,10.302,39.2276,-0.2998,-0.2788,-0.3814,0.2568
17:49:05:609,-2.6081,5.349,11.123,39.2069,-0.2775,-0.0883,-0.375,0.2516
17:49:05:629,-2.9051,5.3561,11.865,39.1138,-0.1625,0.116,-0.3655,0.2457
17:49:05:651,-3.4031,5.4851,12.021,39.0525,-0.0092,0.247,-0.3208,0.2394
17:49:05:669,-3.861,5.588,11.645,39.0479,0.0727,0.3076,-0.2281,0.2345
17:49:05:687,-4.253,5.763,10.968,39.4047,0.0588,0.3608,-0.0759,0.2319
17:49:05:710,-4.457,5.918,10.335,39.7591,-0.0487,0.2948,0.1006,0.2315
17:49:05:729,-4.2559,5.6531,10.077,40.109,-0.2285,0.1394,0.2199,0.2329
17:49:05:749,-3.9251,4.9871,10.635,40.4818,-0.3637,0.0032,0.2679,0.2335
17:49:05:768,-3.518,4.022,11.37,40.4237,-0.3361,-0.0788,0.271,0.23
17:49:05:789,-3.135,3.06,11.904,40.5544,-0.2263,-0.165,0.2508,0.2216
17:49:05:810,-2.6591,2.325,12.1001,40.5985,-0.0498,-0.181,0.2848,0.2099
17:49:05:829,-2.264,2.052,11.837,40.7602,0.3015,0.017,0.4125,0.197
17:49:05:851,-1.8611,1.7501,10.764,41.3738,0.7367,0.2023,0.5583,0.1868
17:49:05:873,-1.6751,1.985,9.0641,41.8069,1.0071,0.3267,0.6307,0.1808
17:49:05:892,-1.5,2.291,7.556,42.3431,0.9996,0.381,0.5913,0.1808
17:49:05:911,-1.3871,2.576,6.431,42.9309,0.7187,0.3821,0.4785,0.1861
17:49:05:927,-1.4231,2.7821,6.1241,43.4563,0.3462,0.3916,0.4136,0.1942
17:49:05:948,-1.2131,2.861,6.347,43.728,0.093,0.4203,0.4327,0.2017
17:49:05:969,-1.0211,3.036,6.584,43.9612,0.0014,0.4353,0.4668,0.2065
17:49:05:990,-0.9251,3.369,6.632,44.2093,0.0003,0.4331,0.4679,0.2102
17:49:06:008,-1.131,3.768,6.7301,44.3104,0.0344,0.4385,0.4668,0.2156
17:49:06:031,-1.4621,4.1321,6.782,44.7103,0.0972,0.3704,0.5158,0.2232
17:49:06:048,-1.5671,4.4891,6.842,45.168,0.1462,0.2108,0.5977,0.2323
17:49:06:068,-1.179,4.731,6.9071,45.6275,0.1259,0.0586,0.6242,0.243
17:49:06:092,-0.782,4.901,7.2161,46.082,0.0472,0.0096,0.5658,0.2544
17:49:06:110,-0.525,5.028,7.7861,46.4509,-0.0157,-0.018,0.4742,0.2645
17:49:06:133,-0.5231,5.25,8.49,46.6955,-0.0444,-0.099,0.3593,0.2718
17:49:06:148,-0.5179,5.471,9.27,46.7843,-0.0476,-0.1873,0.2412,0.2764
17:49:06:168,-0.197,5.3201,9.9551,46.9933,-0.0348,-0.2309,0.0986,0.2791
17:49:06:188,-0.09,5.045,10.367,47.1894,-0.022,-0.2575,-0.0952,0.2793
17:49:06:210,-0.482,4.944,10.446,47.6872,-0.0146,-0.2618,-0.2728,0.2771
17:49:06:230,-0.758,4.922,10.1201,48.2475,-0.0242,-0.2564,-0.3803,0.2735
17:49:06:251,-0.528,4.518,9.447,48.6582,-0.1529,-0.2373,-0.524,0.2704
17:49:06:271,-0.336,3.8471,8.954,48.9719,-0.4701,-0.1574,-0.7017,0.2668
17:49:06:291,-0.6881,3.1601,8.894,49.1679,-0.8458,-0.0159,-0.7986,0.2594
17:49:06:312,-1.6601,3.2231,9.284,49.2846,-0.9863,0.199,-0.6762,0.245
17:49:06:331,-2.0771,3.335,9.474,49.4088,-0.7861,0.2533,-0.3783,0.2281
17:49:06:349,-1.577,3.299,8.9831,49.6604,-0.418,0.0586,-0.1484,0.2139
17:49:06:368,-0.8201,3.306,8.288,49.8172,-0.1731,-0.3299,-0.1259,0.2055
17:49:06:390,-0.288,3.278,8.106,49.9857,-0.2306,-0.8535,-0.2782,0.2037
17:49:06:408,-0.0011,3.237,8.334,50.4243,-0.4009,-1.111,-0.4432,0.2043
17:49:06:429,-0.197,3.306,8.688,50.6175,-0.3424,-0.7822,-0.5261,0.2036
17:49:06:449,-1.0211,3.6101,8.367,50.8543,-0.0498,-0.3108,-0.4697,0.2018
17:49:06:468,-1.766,4.13,7.551,51.2437,0.2717,-0.0043,-0.2856,0.2027
17:49:06:492,-1.964,4.338,7.065,51.2579,0.4834,0.049,-0.2047,0.2104
17:49:06:510,-2.0411,4.652,6.861,51.5202,0.4814,-0.1585,-0.3101,0.2225
17:49:06:531,-2.127,4.889,7.0241,52.1126,0.3281,-0.3054,-0.4463,0.2362
17:49:06:550,-2.424,4.877,7.436,52.4997,0.1738,-0.1671,-0.474,0.2486
17:49:06:567,-2.922,5.1191,8.3201,52.8389,0.0694,0.0139,-0.3484,0.2562
17:49:06:589,-2.8601,4.9271,8.954,53.2951,-0.0125,0.2852,-0.1771,0.2595
17:49:06:611,-2.79,4.707,9.641,53.3386,0.0205,0.5822,-0.0143,0.2591
17:49:06:631,-2.996,4.635,10.019,53.7027,0.1738,0.7205,0.155,0.2555
17:49:06:647,-3.051,4.851,10.0511,54.1927,0.3631,0.6556,0.2784,0.2517
17:49:06:669,-2.948,5.045,9.921,54.5277,0.4527,0.4044,0.2838,0.2507
17:49:06:689,-2.79,5.133,9.8021,55.0231,0.4047,0.1053,0.2082,0.2528
17:49:06:709,-3.008,5.303,9.8351,55.6294,0.2845,0.0373,0.1805,0.2558
17:49:06:728,-3.209,5.0921,9.998,56.3528,0.1621,0.0851,0.2349,0.2584
17:49:06:750,-3.1541,4.628,9.9281,57.2969,0.0503,0.1821,0.3508,0.2587
17:49:06:766,-3.219,4.563,9.66,57.8388,0.0312,0.4544,0.5668,0.2559
17:49:06:791,-3.0821,4.58,9.158,58.09,0.0918,0.5779,0.7147,0.2526
17:49:06:808,-2.558,4.4051,8.736,58.1778,0.0705,0.2927,0.6062,0.2516
17:49:06:828,-2.216,4.041,8.664,58.2612,-0.0572,-0.0415,0.3539,0.2516
17:49:06:847,-2.4551,3.756,8.672,58.5468,-0.1668,-0.066,0.1859,0.2499
17:49:06:868,-2.898,3.651,8.523,58.9668,-0.2626,0.1309,0.205,0.2449
17:49:06:888,-2.8121,3.495,8.559,59.3824,-0.2955,0.2692,0.3189,0.2387
17:49:06:909,-2.261,3.3881,8.432,59.4485,-0.2795,0.2458,0.3444,0.2319
17:49:06:930,-1.689,3.371,8.2091,59.3964,-0.3264,0.0808,0.2762,0.2257
17:49:06:948,-0.9521,3.194,8.157,59.3228,-0.4701,-0.1341,0.1805,0.2211
17:49:06:968,-0.705,3.038,8.492,59.1378,-0.5979,-0.2299,0.0921,0.2162
17:49:06:990,-0.851,2.916,8.861,59.1706,-0.5701,-0.1372,0.1114,0.2094
17:49:07:008,-0.9281,2.799,8.777,59.2454,-0.3648,0.0628,0.2625,0.2013
17:49:07:029,-1.0811,3.05,8.327,59.4009,-0.0785,0.2863,0.4933,0.1944
17:49:07:050,-1.179,3.677,7.7591,59.7309,0.1536,0.3981,0.6988,0.1923
17:49:07:070,-1.16,4.343,7.5701,60.0868,0.2535,0.282,0.7552,0.1977
17:49:07:088,-0.834,4.7621,7.671,60.4997,0.2865,0.0458,0.6743,0.2091
17:49:07:109,-0.2621,4.796,7.922,60.9031,0.3514,-0.1448,0.5104,0.2229
17:49:07:129,0.036,4.8101,8.267,61.1703,0.3866,-0.2937,0.2443,0.2361
17:49:07:147,-0.2,4.9181,8.8219,61.3552,0.3429,-0.4172,-0.0323,0.2475
17:49:07:168,-0.494,4.8671,9.557,61.2999,0.2546,-0.4693,-0.1942,0.2557
17:49:07:190,-0.305,4.501,9.9551,61.4242,0.1951,-0.4097,-0.2516,0.2598
17:49:07:210,-0.2741,4.3721,9.857,61.6054,0.1536,-0.2331,-0.2665,0.2598
17:49:07:229,-0.7961,4.8911,9.557,61.8324,0.1046,-0.0671,-0.2761,0.258
17:49:07:248,-0.77,4.9631,9.239,62.0407,-0.0604,-0.2959,-0.3559,0.258
17:49:07:269,-0.197,4.7741,9.117,62.2142,-0.3594,-0.5822,-0.5357,0.2589
17:49:07:293,0.434,3.893,9.6671,62.3036,-0.7351,-0.7715,-0.7677,0.2584
17:49:07:311,0.3191,2.997,10.64,62.2309,-1.033,-0.7726,-0.8911,0.2512
17:49:07:331,-0.3821,2.523,11.454,62.5182,-0.3765,0.0011,-0.3718,0.215
17:49:07:350,-0.116,2.837,10.0751,62.6189,0.2227,0.1181,-0.043,0.1992
17:49:07:368,0.812,2.7701,8.631,62.5882,0.5261,-0.0384,-0.0824,0.1934
17:49:07:388,0.893,3.009,7.352,62.7029,0.2993,-0.4843,-0.5209,0.1959
17:49:07:408,-0.171,3.306,7.125,62.8061,-0.0976,-0.5746,-0.8411,0.203
17:49:07:426,-1.1,3.2351,7.6991,62.9607,-0.2126,-0.2937,-0.7656,0.209
17:49:07:455,-1.5431,3.4331,7.649,63.1722,-0.006,0.0469,-0.524,0.2084
17:49:07:472,-1.629,3.804,6.9671,63.3381,0.2865,0.2564,-0.3516,0.2074
17:49:07:486,-1.6151,4.07,6.201,63.2922,0.4175,0.2032,-0.3697,0.2123
17:49:07:505,-1.998,4.6211,5.736,63.2908,0.3153,-0.0298,-0.5314,0.2226
17:49:07:538,-2.4821,5.004,5.751,63.3982,0.0685,-0.2533,-0.6772,0.2364
17:49:07:547,-2.79,4.9061,6.354,63.5616,-0.2328,-0.3256,-0.705,0.2492
17:49:07:568,-3.0821,4.8581,7.3571,63.7903,-0.4679,-0.1958,-0.5761,0.2549
17:49:07:587,-2.994,4.688,8.748,63.9879,-0.5712,-0.0319,-0.3963,0.253
17:49:07:607,-2.3981,4.3481,10.2731,64.0339,-0.4775,0.0936,-0.2526,0.2454
17:49:07:627,-1.976,4.037,11.2961,64.0273,-0.1614,0.232,-0.1697,0.2345
17:49:07:648,-2.151,4.077,11.5451,63.9385,0.227,0.3256,-0.1356,0.2239
17:49:07:667,-2.51,4.398,11.142,63.8358,0.5111,0.3022,-0.1239,0.2168
17:49:07:689,-2.541,4.482,10.484,63.8353,0.5409,0.2373,-0.1376,0.2147
17:49:07:709,-2.714,4.52,9.9641,63.9111,0.3664,0.2746,-0.1515,0.2157
17:49:07:727,-3.164,4.491,9.651,64.1832,0.1323,0.4161,-0.1174,0.2164
17:49:07:747,-3.5681,4.367,9.6671,64.3219,-0.1125,0.498,0.056,0.2153
17:49:07:767,-3.6431,4.271,10.005,64.6022,-0.1572,0.7045,0.3732,0.211
17:49:07:788,-3.425,4.106,10.0271,64.7735,0.0737,0.8557,0.6359,0.2052
17:49:07:809,-3.0731,3.9581,9.4571,64.4316,0.3653,0.7237,0.6487,0.2006
17:49:07:828,-2.8481,3.728,8.549,64.265,0.4547,0.3076,0.4242,0.1996
17:49:07:848,-2.9081,3.407,7.917,64.1857,0.227,-0.1745,0.1614,0.2011
17:49:07:868,-3.054,3.1271,8.0711,64.1092,-0.1317,-0.2852,0.0815,0.2014
17:49:07:888,-3.042,2.9381,8.7101,64.4023,-0.4254,-0.0595,0.1379,0.1968
17:49:07:909,-2.663,2.631,9.2441,64.7656,-0.6276,0.2023,0.2326,0.1873
17:49:07:929,-2.1461,2.435,9.423,64.7736,-0.7254,0.414,0.3168,0.1742
17:49:07:952,-1.56,2.274,9.294,64.7908,-0.6915,0.5055,0.3615,0.1602
17:49:07:968,-1.0691,2.198,8.8061,64.8337,-0.5446,0.4746,0.3274,0.1473
17:49:07:989,-1.026,2.277,8.4341,64.8655,-0.3754,0.3204,0.2475,0.1377
17:49:08:007,-1.457,2.459,8.423,65.0672,-0.2168,0.0799,0.1986,0.132
17:49:08:029,-1.6871,2.631,8.3651,65.3565,-0.0305,-0.0947,0.2401,0.1292
17:49:08:053,-1.758,2.9351,8.253,65.354,0.1631,-0.0894,0.3561,0.1294
17:49:08:069,-1.881,3.395,8.075,65.2406,0.3409,0.0766,0.4913,0.1331
17:49:08:089,-1.8761,3.9341,7.848,65.2154,0.441,0.2384,0.6051,0.1406
17:49:08:110,-1.512,4.35,7.7261,65.215,0.4621,0.2735,0.6572,0.1487
17:49:08:131,-1.2251,4.6091,7.733,65.6408,0.4888,0.1309,0.586,0.1603
17:49:08:149,-1.5071,5.1191,8.5451,66.1507,0.527,-0.4544,0.4136,0.1736
17:49:08:168,-0.83,5.018,9.1931,66.4747,0.4792,-0.8354,0.1848,0.1867
17:49:08:190,-0.2981,4.5251,9.636,66.8061,0.375,-0.7216,-0.0536,0.1983
17:49:08:211,-0.5711,4.192,9.737,67.077,0.2302,-0.5587,-0.1984,0.2045
17:49:08:228,-1.215,4.2641,9.905,67.264,0.0705,-0.5055,-0.2303,0.2048
17:49:08:246,-1.632,4.3121,9.648,67.6644,-0.0848,-0.5353,-0.227,0.2014
17:49:08:267,-1.3541,3.8471,8.844,68.0531,-0.3637,-0.5353,-0.2643,0.1972
17:49:08:290,-0.786,2.9951,8.3201,68.3551,-0.9234,-0.5991,-0.425,0.1915
17:49:08:306,-0.825,2.526,9.402,68.8568,-1.5279,-0.4991,-0.4888,0.1804
17:49:08:327,-1.016,2.538,10.965,69.5053,-1.5843,-0.0958,-0.2079,0.1601
17:49:08:346,-0.77,3.1151,11.43,69.7854,-1.0735,0.231,0.287,0.1366
17:49:08:366,0.3311,3.6011,10.862,69.9017,-0.3327,0.2203,0.6296,0.1215
17:49:08:386,1.7621,3.5411,9.7991,69.783,0.2876,-0.0234,0.4401,0.121
17:49:08:406,2.011,3.6221,8.5661,69.6173,0.5218,-0.4544,-0.3495,0.1327
17:49:08:427,0.833,3.632,7.185,69.6272,0.2589,-0.8056,-1.1561,0.1509
17:49:08:446,-0.645,3.0911,7.283,69.8687,-0.2018,-0.7035,-1.4978,0.1695
17:49:08:466,-1.758,2.5901,8.121,70.0773,-0.3913,-0.2171,-1.4583,0.1745
17:49:08:486,-2.742,2.538,8.291,70.288,-0.319,0.2129,-1.1902,0.1647
17:49:08:506,-3.312,2.7821,8.0351,70.3585,-0.1689,0.4459,-0.8166,0.1508
17:49:08:526,-3.4151,3.1511,7.9361,70.4737,-0.0168,0.4214,-0.507,0.1403
17:49:08:549,-3.1811,3.546,7.901,70.883,0.095,0.2544,-0.3325,0.1355
17:49:08:567,-2.8121,3.816,7.7111,71.2752,0.1397,0.1565,-0.2685,0.1367
17:49:08:609,-2.654,4.061,7.58,71.7072,0.0642,0.1288,-0.2835,0.1421
17:49:08:609,-2.6231,4.077,7.853,72.0439,-0.1477,0.1033,-0.3633,0.1494
17:49:08:626,-2.489,3.867,8.466,72.2155,-0.3754,0.1873,-0.4367,0.1542
17:49:08:646,-2.6801,3.6941,9.105,72.2366,-0.5126,0.4023,-0.4441,0.1535
17:49:08:668,-3.3311,3.7661,9.675,72.2115,-0.5456,0.6385,-0.3686,0.148
17:49:08:686,-4.076,3.948,10.1681,72.0477,-0.4775,0.7216,-0.2324,0.1402
17:49:08:706,-4.3901,3.857,10.553,72.0886,-0.3913,0.5023,-0.1037,0.1326
17:49:08:726,-4.155,3.455,11.336,72.2584,-0.2955,-0.0362,-0.0792,0.1259
17:49:08:746,-3.87,3.048,11.964,72.4157,-0.0242,-0.5459,-0.1823,0.1192
17:49:08:767,-3.9011,2.222,11.9801,72.6095,0.36,-0.7226,-0.3442,0.1137
17:49:08:787,-4.311,1.52,11.106,72.8651,0.6325,-0.5683,-0.4474,0.1083
17:49:08:806,-4.871,1.4651,10.019,73.2624,0.7165,-0.2735,-0.2728,0.1012
17:49:08:827,-4.8041,1.7621,9.0431,73.801,0.6218,-0.132,0.1698,0.0944
17:49:08:846,-4.026,2.0021,8.3891,74.2479,0.2973,-0.1937,0.5562,0.0906
17:49:08:866,-3.051,1.9031,7.8341,74.5497,-0.2423,-0.2086,0.6583,0.0895
17:49:08:889,-2.448,1.59,7.6301,74.6633,-0.8107,-0.0085,0.5636,0.0872
17:49:08:907,-2.2661,1.362,7.6541,74.6874,-1.2268,0.3087,0.4349,0.0795
17:49:08:926,-2.333,1.032,7.817,74.7354,-1.5216,0.5268,0.3433,0.0665
17:49:08:946,-2.388,0.747,8.1641,74.7466,-1.7482,0.5045,0.3444,0.0491
17:49:08:966,-2.3741,0.713,8.6141,74.5242,-1.827,0.4172,0.4327,0.0289
17:49:08:997,-2.2421,0.761,8.808,74.4305,-1.695,0.4757,0.602,0.01
17:49:09:008,-2.1461,0.905,8.612,74.4533,-1.4619,0.7461,0.8159,-0.0046
17:49:09:026,-2.094,0.962,8.813,74.1638,-1.2416,1.0546,0.9787,-0.014
17:49:09:056,-1.809,0.668,8.952,74.0352,-1.1884,1.0281,1.0585,-0.0198
17:49:09:076,-1.155,0.357,8.604,73.9577,-1.4448,0.6992,1.017,-0.0255
17:49:09:087,-0.858,0.191,9.392,73.7432,-1.695,0.663,0.8691,-0.0329
17:49:09:108,-1.167,-0.095,11.0921,73.9861,-1.6514,0.4778,0.7127,-0.042
17:49:09:127,-1.332,-0.566,11.355,74.0207,-1.3395,0.1596,0.62,-0.0521
17:49:09:146,-1.3061,-0.59,10.886,73.7502,-0.901,0.0543,0.5955,-0.0613
17:49:09:166,-1.208,-0.3131,10.977,73.3072,-0.3626,0.0968,0.5701,-0.0668
17:49:09:186,-1.0451,-0.2411,12.009,72.7652,0.1961,-0.0096,0.3945,-0.0652
17:49:09:207,-1.1741,-0.2501,13.412,72.6005,0.7719,-0.3714,0.1709,-0.0577
17:49:09:226,-1.466,-0.789,13.209,72.7197,1.3135,-0.5416,0.0571,-0.0457
17:49:09:246,-1.814,-1.0331,11.537,73.1058,1.6732,-0.199,0.0997,-0.0336
17:49:09:266,-1.847,-0.7151,10.649,73.3458,1.7489,0.4502,0.1922,-0.0246
17:49:09:286,-2.0651,0.038,10.991,73.3946,1.6243,0.795,0.2315,-0.0178
17:49:09:306,-2.3981,0.3281,11.885,73.3355,1.4828,0.2256,0.2859,-0.0096
17:49:09:327,-2.604,0.084,11.501,73.1196,1.2965,-0.5375,0.1006,-0.0002
17:49:09:348,-2.546,0.273,10.259,73.0627,1.303,-0.432,-0.1228,0.0069
17:49:09:369,-2.4671,0.426,8.9321,73.0124,1.4509,0,-0.1601,0.0123
17:49:09:386,-2.57,1.176,8.2331,72.9219,1.3753,-0.2032,-0.1771,0.0179
17:49:09:408,-2.3,1.8431,7.994,72.9077,1.1635,-0.9812,-0.3006,0.0269
17:49:09:426,-2.1371,1.772,7.9511,73.2091,0.9837,-1.906,-0.4995,0.0418
17:49:09:447,-2.405,1.673,7.218,73.4613,0.6496,-2.4062,-0.5963,0.0582
17:49:09:483,-2.3981,2.349,7.106,73.8203,0.3961,-2.1582,-0.3579,0.0689
17:49:09:486,-1.9961,2.813,6.687,74.3294,0.2993,-1.3802,0.0326,0.0812
17:49:09:507,-1.61,3.299,6.167,74.4806,0.2036,-0.481,0.2699,0.0958
17:49:09:526,-1.3391,3.974,6.732,74.7804,0.1174,0.1022,0.3316,0.1126
17:49:09:550,-1.241,4.386,7.968,75.0015,0.1312,0.0117,0.3157,0.1298
17:49:09:572,-1.208,4.4651,8.31,74.8543,0.1875,0.083,0.3689,0.1434
17:49:09:586,-1.6841,4.623,7.956,74.8644,0.1291,0.2714,0.6392,0.1546
17:49:09:606,-1.881,5.298,8.415,74.7773,-0.0624,0.4033,1.05,0.164
17:49:09:626,-1.445,5.432,9.7421,74.7958,-0.1497,0.4417,1.3128,0.1728
17:49:09:646,-0.525,4.824,10.4051,74.6628,-0.0476,0.562,1.331,0.1778
17:49:09:666,-0.276,4.5611,10.9121,74.4481,0.1599,0.7226,1.0766,0.179
17:49:09:687,-0.734,4.494,11.865,74.2677,0.4069,0.5119,0.7829,0.1779
17:49:09:707,-1.284,4.3571,12.83,73.8226,0.6687,-0.1702,0.5178,0.1756
17:49:09:726,-1.3631,4.197,13.4261,73.7844,1.0667,-0.7939,0.3337,0.1733
17:49:09:747,-1.268,4.192,13.11,63.8048,1.6434,-0.9078,0.2529,0.1741
17:49:09:767,-1.0691,4.017,11.43,63.961,2.017,-0.7641,0.2593,0.1797
17:49:09:787,-1.067,4.13,9.3371,64.3283,1.9095,-0.3831,0.3125,0.1893
17:49:09:808,-1.2701,4.551,8.288,64.5121,1.684,0.232,0.388,0.2004
17:49:09:829,-1.6751,4.949,7.403,64.563,1.4796,0.6161,0.4477,0.211
17:49:09:848,-1.8281,5.136,6.2051,64.3098,1.1635,0.6875,0.47,0.2232
17:49:09:867,-1.938,5.174,5.8061,64.1333,0.7261,0.5822,0.4221,0.2323
17:49:09:891,-2.015,4.853,6.282,63.8096,0.4175,0.5545,0.3497,0.2382
17:49:09:909,-2.0861,4.772,6.5981,63.5514,0.2823,0.5013,0.2827,0.2367
17:49:09:927,-2.058,4.6451,6.402,63.3931,0.1365,0.3054,0.2582,0.2308
17:49:09:948,-1.335,4.3001,6.11,63.2443,-0.1381,0.0638,0.2912,0.224
17:49:09:968,-0.279,3.893,6.134,63.0637,-0.4744,-0.0011,0.3157,0.2191
17:49:09:988,0.3191,3.7181,7.005,62.9932,-0.7095,0.1277,0.272,0.2162
17:49:10:008,0.383,3.383,8.0681,62.9993,-0.6617,0.3938,0.2188,0.2116
17:49:10:027,-0.0851,3.543,8.4011,62.7968,-0.4212,0.5215,0.223,0.2013
17:49:10:048,-0.473,4.116,8.0711,62.7571,-0.1636,0.4619,0.2518,0.1887
17:49:10:067,-0.923,4.982,7.5461,62.486,0.0247,0.3384,0.2933,0.1799
17:49:10:088,-1.146,5.717,7.5341,62.2354,0.1163,0.1543,0.3168,0.1768
17:49:10:110,-0.9131,5.954,7.695,62.1356,0.1929,-0.0117,0.3305,0.1778
17:49:10:128,-0.533,6.1961,8.016,61.8085,0.2387,-0.1702,0.2955,0.181
17:49:10:147,-0.281,6.194,8.444,61.6812,0.3739,-0.2798,0.1997,0.1867
17:49:10:170,-0.303,6.2921,8.7191,61.4528,0.5813,-0.3778,0.0921,0.1928
17:49:10:189,-0.219,6.402,8.499,61.0527,0.7336,-0.5492,-0.01,0.1986
17:49:10:208,-0.063,6.4931,8.207,60.8246,0.6527,-0.7928,-0.11,0.2058
17:49:10:227,0.06,6.3641,8.777,60.6908,0.443,-0.9706,-0.1493,0.2151
17:49:10:249,0.3311,6.294,9.83,60.5559,0.3866,-0.9323,-0.1217,0.2227
17:49:10:269,0.635,6.4121,10.022,60.5052,0.4983,-0.778,-0.1302,0.227
17:49:10:287,0.8411,6.3401,9.009,60.2701,0.5111,-0.7769,-0.2261,0.2309
17:49:10:309,0.8741,6.2681,7.721,59.8976,0.2089,-0.9504,-0.3772,0.237
17:49:10:327,1.1471,5.528,7.197,59.5387,-0.3435,-1.111,-0.4964,0.2456
17:49:10:349,1.236,4.472,8.231,59.1154,-0.7829,-0.9886,-0.5027,0.2533
17:49:10:371,0.944,4.106,10.046,58.9908,-0.6808,-0.5853,-0.4027,0.252
17:49:10:389,0.8261,4.056,10.6421,58.62,-0.0657,-0.3119,-0.3069,0.2406
17:49:10:407,0.8771,4.3571,9.134,58.0356,0.5665,-0.4513,-0.2835,0.2279
17:49:10:430,1.047,4.9181,6.773,57.6068,0.7314,-0.8088,-0.359,0.2238
17:49:10:451,1.274,5.325,5.219,57.4028,0.375,-1.0557,-0.4751,0.2334
17:49:10:471,1.5131,5.085,5.126,57.4381,-0.1955,-0.9376,-0.5974,0.253
17:49:10:489,1.161,4.7981,6.4901,57.5486,-0.5393,-0.4576,-0.7102,0.2704
17:49:10:508,0.144,4.767,7.9961,57.5267,-0.3648,0.0543,-0.7582,0.2726
17:49:10:527,-0.8681,5.054,7.7351,57.3435,0.0769,0.2874,-0.6942,0.2593
17:49:10:547,-1.3061,5.5451,6.5021,56.7544,0.3451,0.2618,-0.6091,0.2417
17:49:10:567,-1.4111,6.1271,5.631,56.263,0.3238,0.1001,-0.5655,0.2294
17:49:10:588,-1.191,6.5861,5.684,55.7548,0.1397,-0.1128,-0.5624,0.2239
17:49:10:607,-0.789,6.797,6.435,55.3076,-0.0125,-0.2458,-0.5846,0.2229
17:49:10:628,-0.408,6.776,7.2371,54.9018,-0.0678,-0.216,-0.6017,0.2235
17:49:10:647,-0.1421,6.692,8.106,54.4481,-0.006,-0.1011,-0.6219,0.2233
17:49:10:668,-0.195,6.6851,8.499,53.9186,0.1493,0.0256,-0.6113,0.2217
17:49:10:687,-0.638,7.005,8.49,53.5656,0.3101,0.1607,-0.557,0.2188
17:49:10:708,-1.5431,7.5371,8.274,53.4045,0.4239,0.3204,-0.4762,0.2152
17:49:10:727,-2.4551,8.04,8.0471,53.2855,0.4313,0.3927,-0.3707,0.2099
17:49:10:748,-2.9891,8.2001,7.9841,53.1779,0.3366,0.4023,-0.26,0.2026
17:49:10:769,-3.236,8.0351,8.106,52.8937,0.1898,0.4491,-0.1578,0.1939
17:49:10:788,-3.161,7.175,8.396,52.5051,0.0301,0.4895,-0.0525,0.1836
17:49:10:808,-3.023,6.0881,8.7221,52.2425,-0.103,0.5917,0.038,0.1707
17:49:10:829,-3.401,5.5451,9.0281,51.9825,-0.1358,0.7715,0.122,0.1546
17:49:10:847,-3.956,5.4131,9.15,51.6898,-0.0923,0.8025,0.32,0.1348
17:49:10:867,-3.6881,5.3531,8.901,51.4893,-0.0305,0.6864,0.6137,0.1138
17:49:10:887,-2.5751,5.346,8.4371,51.2258,0.0375,0.6513,0.8243,0.0968
17:49:10:907,-1.842,5.454,7.829,51.009,0.1141,0.8078,0.8212,0.0882
17:49:10:928,-1.895,5.595,7.103,50.9453,0.1482,0.9504,0.7105,0.0859
17:49:10:948,-2.187,5.559,6.4451,50.8299,0.0631,0.9567,0.6285,0.0845
17:49:10:968,-2.412,5.4491,6.3371,50.7869,-0.0965,0.8801,0.6563,0.0812
17:49:10:987,-2.115,5.27,6.7151,50.8173,-0.1998,0.7641,0.7754,0.0755
17:49:11:007,-1.277,5.1401,7.2731,50.8792,-0.1657,0.6599,0.8723,0.0704
17:49:11:029,-0.284,4.8911,7.3211,50.7922,-0.0177,0.6044,0.8553,0.07
17:49:11:047,0.381,4.647,6.8711,50.6754,0.0993,0.529,0.7371,0.076
17:49:11:067,0.5201,4.5371,6.44,50.7675,0.1514,0.4161,0.5786,0.0868
17:49:11:087,0.221,4.626,6.119,50.7902,0.1132,0.2342,0.452,0.0991
17:49:11:108,-0.111,4.7291,6.2291,50.8247,-0.0008,0.0213,0.4071,0.1097
17:49:11:131,-0.1091,4.841,6.852,50.6813,-0.0826,-0.1448,0.4731,0.1171
17:49:11:148,0.3401,5.231,7.68,50.5922,-0.0285,-0.2106,0.5935,0.1225
17:49:11:168,0.987,5.894,8.1709,50.5416,0.1983,-0.2086,0.6467,0.1298
17:49:11:188,1.53,6.764,7.8791,50.5108,0.4324,-0.2883,0.5488,0.1414
17:49:11:207,1.844,7.6091,7.3091,50.681,0.4738,-0.5171,0.3061,0.1582
17:49:11:228,1.875,8.1161,7.0841,50.4209,0.2897,-0.8002,-0.011,0.179
17:49:11:248,1.5641,8.337,7.608,49.9015,0.0407,-1.0003,-0.2685,0.2001
17:49:11:268,1.068,8.2931,8.528,49.3633,-0.1189,-0.9461,-0.5921,0.2267
17:49:11:287,0.582,8.0711,8.0389,48.898,-0.2541,-0.9419,-0.7252,0.2328
17:49:11:309,0.5171,7.082,7.565,48.5492,-0.617,-1.0099,-0.7422,0.2356
17:49:11:327,0.584,6.1601,8.511,48.4132,-0.9001,-0.7737,-0.674,0.2363
17:49:11:348,0.201,5.435,9.897,48.3669,-0.7447,-0.3745,-0.5911,0.2314
17:49:11:367,-0.296,4.985,10.115,48.0415,-0.253,-0.2192,-0.4452,0.2184
17:49:11:387,-0.1331,5.004,8.9711,47.4882,0.2014,-0.381,-0.2963,0.2024
17:49:11:408,0.4481,5.238,7.436,47.0988,0.344,-0.6896,-0.26,0.1931
17:49:11:429,1.1591,5.3681,6.3371,46.5366,0.1823,-0.8642,-0.3367,0.1957
17:49:11:447,1.473,5.3891,6.086,46.1286,-0.088,-0.6929,-0.4879,0.2083
17:49:11:492,0.9341,5.399,6.203,45.9816,-0.2328,-0.2533,-0.6071,0.2223
17:49:11:494,0.017,5.49,6.1241,45.8649,-0.2189,0.1576,-0.6581,0.2277
17:49:11:511,-0.834,5.705,5.844,45.7466,-0.1125,0.3586,-0.672,0.2233
17:49:11:527,-1.658,6.1001,5.468,45.4134,-0.0412,0.3011,-0.6592,0.2133
17:49:11:546,-2.3021,6.591,5.274,45.0501,-0.0689,0.0925,-0.5826,0.2015
17:49:11:566,-2.4431,6.929,5.684,44.5918,-0.1401,-0.099,-0.4676,0.1905
17:49:11:597,-2.192,7.0511,6.548,44.1155,-0.1221,-0.1437,-0.3548,0.1815
17:49:11:611,-1.7081,7.02,7.4291,43.7997,-0.0071,-0.0777,-0.2802,0.1745
17:49:11:629,-1.2821,6.9341,8.0231,43.4434,0.2089,0.0393,-0.2366,0.1698
17:49:11:647,-1.067,6.993,8.09,43.1443,0.3994,0.1639,-0.2005,0.1669
17:49:11:668,-1.184,7.379,8.001,42.9846,0.5144,0.3341,-0.1611,0.1661
17:49:11:688,-1.263,7.676,7.8791,42.9019,0.5207,0.4491,-0.1207,0.1659
17:49:11:715,-1.184,7.8581,7.884,42.6514,0.4069,0.4726,-0.1057,0.1659
17:49:11:729,-1.284,8.021,8.1161,42.5448,0.2227,0.4704,-0.1217,0.1662
17:49:11:747,-1.383,7.664,8.396,42.365,0.0322,0.4417,-0.1079,0.1655
17:49:11:768,-1.3391,6.711,8.724,42.0646,-0.1147,0.4789,-0.0153,0.1624
17:49:11:786,-2.0771,6.3251,9.3281,41.9723,0.0014,0.8312,0.1209,0.156
17:49:11:811,-3.0371,6.1031,9.167,41.6901,0.3409,1.1036,0.2827,0.1438
17:49:11:829,-3.506,5.847,7.989,41.3573,0.5281,0.9951,0.4284,0.127
17:49:11:848,-3.387,5.679,7.166,41.112,0.3994,0.679,0.5061,0.1108
17:49:11:867,-3.183,5.5781,7.352,40.9344,0.2344,0.3842,0.5243,0.0984
17:49:11:887,-3.2051,5.679,7.52,40.9407,0.2131,0.2842,0.5391,0.0896
17:49:11:907,-3.1571,5.768,6.962,41.0132,0.1578,0.3033,0.6083,0.0827
17:49:11:927,-2.601,5.6531,6.371,40.9475,-0.1275,0.2799,0.701,0.0774
17:49:11:948,-1.478,5.262,6.557,41.0409,-0.586,0.2171,0.7679,0.0747
17:49:11:967,-0.3911,4.626,7.8221,41.1325,-0.868,0.3044,0.7668,0.0761
17:49:11:987,0.122,4.151,8.897,41.3494,-0.7287,0.5407,0.7872,0.0789
17:49:12:008,0.398,4.362,8.499,41.3654,-0.3296,0.7748,0.853,0.0794
17:49:12:030,0.96,5.0111,7.053,41.183,-0.022,0.811,0.8467,0.0817
17:49:12:050,1.075,6.06,5.6981,41.0953,-0.0316,0.6237,0.701,0.0928
17:49:12:070,0.7301,7.053,5.8031,42.0742,-0.203,0.4789,0.4902,0.1124
17:49:12:093,0.539,7.3241,6.692,41.9975,-0.2146,0.4598,0.3168,0.13
17:49:12:109,0.7661,7.511,7.52,42.0085,-0.0402,0.3395,0.2113,0.141
17:49:12:127,1.4801,7.6541,7.745,41.8763,0.2621,0.0883,0.038,0.1495
17:49:12:148,1.731,7.535,7.553,41.761,0.5441,-0.2054,-0.2537,0.162
17:49:12:169,0.62,7.5251,6.9191,41.6639,0.7272,-0.4161,-0.5175,0.178
17:49:12:191,-0.6431,7.295,6.203,41.5902,0.6931,-0.6321,-0.5431,0.1906
17:49:12:210,-1.2821,6.855,6.158,41.2918,0.4707,-0.7461,-0.3154,0.1962
17:49:12:229,-1.6151,7.02,7.125,40.9914,0.2771,-0.6354,0.1082,0.1969
17:49:12:248,-1.1141,7.932,9.0551,40.8546,0.3781,-0.6119,0.5306,0.1935
17:49:12:269,0.29,8.669,9.093,40.8985,0.8112,-0.6907,0.6839,0.1923
17:49:12:291,2.0951,8.547,7.046,41.0342,1.0411,-0.9961,0.4487,0.2011
17:49:12:308,2.768,8.475,4.9271,41.1596,0.7517,-1.3845,-0.0727,0.2243
17:49:12:330,2.114,8.0111,4.1111,41.1597,0.1132,-1.5495,-0.6336,0.2573
17:49:12:348,0.977,6.9341,4.467,40.7424,-0.5734,-1.4462,-0.9603,0.2853
17:49:12:368,0.0671,6.026,5.6,40.4358,-1.0629,-1.126,-1.0018,0.2979
17:49:12:388,-0.2141,5.313,7.304,40.0979,-1.2385,-0.8716,-0.8507,0.2922
17:49:12:407,0.1391,5.018,8.463,39.4449,-1.1511,-0.7706,-0.6421,0.2746
17:49:12:428,0.963,4.925,8.906,39.0565,-1.0362,-0.7652,-0.5346,0.2561
17:49:12:449,1.643,4.7,9.347,39.5947,-0.8819,-0.7077,-0.5602,0.2437
17:49:12:472,1.3151,4.803,9.471,38.9459,-0.5244,-0.5268,-0.6113,0.2363
17:49:12:489,0.453,5.241,8.217,38.6155,-0.0465,-0.2852,-0.6197,0.2295
17:49:12:508,-0.195,5.7011,6.081,38.2455,0.2185,-0.1255,-0.6123,0.2238
17:49:12:528,-0.638,6.1241,4.338,37.9628,0.1482,-0.0745,-0.6517,0.2227
17:49:12:549,-1.0549,6.426,3.675,37.8364,-0.1275,-0.0947,-0.7252,0.2265
17:49:12:568,-1.6241,6.656,4.185,37.5476,-0.3828,-0.1107,-0.773,0.23
17:49:12:590,-2.223,6.8591,5.2811,37.3916,-0.4647,-0.1266,-0.756,0.2274
17:49:12:613,-2.549,7.013,6.306,37.4075,-0.4169,-0.2075,-0.6805,0.2181
17:49:12:629,-2.3021,7.089,7.2761,37.1341,-0.3552,-0.3469,-0.5698,0.2066
17:49:12:650,-1.6151,6.902,8.667,36.8566,-0.2892,-0.4778,-0.4888,0.1973
17:49:12:669,-0.698,6.629,10.197,36.5869,-0.0359,-0.4704,-0.4665,0.1914
17:49:12:688,-0.341,6.665,10.776,36.092,0.4111,-0.2703,-0.5081,0.1884
17:49:12:712,-0.741,7.1471,10.007,35.981,0.8229,0.0139,-0.5346,0.188
17:49:12:728,-1.299,7.6541,8.5661,36.0148,0.9316,0.1904,-0.4697,0.19
17:49:12:748,-1.349,8.037,7.7111,35.9776,0.7569,0.264,-0.3655,0.194
17:49:12:770,-1.682,8.451,7.62,36.2686,0.5633,0.4311,-0.325,0.1999
17:49:12:789,-2.441,8.574,7.3331,36.5404,0.4143,0.5555,-0.2665,0.2044
17:49:12:808,-2.4791,7.7381,7.07,36.8044,0.1812,0.5045,-0.1484,0.2049
17:49:12:828,-2.7161,7.185,7.4531,36.9031,0.0227,0.5959,-0.043,0.2025
17:49:12:849,-3.341,6.804,7.5941,36.8233,0.0312,0.7301,0.0804,0.196
17:49:12:870,-3.7961,6.6821,7.367,36.7452,0.0386,0.6769,0.2901,0.1853
17:49:12:889,-3.188,6.471,7.113,36.7481,-0.0135,0.4374,0.5009,0.1741
17:49:12:907,-2.235,6.2081,6.986,37.0331,-0.0774,0.2991,0.5721,0.1675
17:49:12:931,-2.0749,6.062,7.029,37.4205,-0.0593,0.4097,0.5136,0.1668
17:49:12:948,-2.63,6.0641,6.792,37.8345,-0.0327,0.5301,0.4859,0.1671
17:49:12:969,-2.936,6.1121,6.531,38.1618,-0.1189,0.4619,0.5625,0.1644
17:49:12:989,-2.331,5.894,6.656,38.3619,-0.3222,0.2458,0.6999,0.1608
17:49:13:007,-0.9161,5.5781,7.3811,38.5934,-0.4881,0.0703,0.7872,0.1592
17:49:13:029,0.357,5.25,8.2241,38.6343,-0.4403,0.1075,0.734,0.162
17:49:13:049,0.7421,5.0111,8.423,38.6655,-0.1562,0.298,0.6126,0.1678
17:49:13:070,0.1151,5.267,7.5371,38.6562,0.1812,0.4278,0.569,0.1737
17:49:13:087,-0.308,5.672,6.359,38.71,0.3472,0.3352,0.6318,0.1798
17:49:13:109,-0.123,6.045,5.9231,38.8549,0.3866,0.0979,0.7019,0.1892
17:49:13:128,0.297,6.2801,6.282,38.9311,0.4516,-0.1532,0.7158,0.2034
17:49:13:150,0.7421,6.4481,6.624,39.3132,0.6601,-0.315,0.6732,0.2198
17:49:13:175,0.932,6.737,6.179,39.583,0.8539,-0.4172,0.5508,0.2374
17:49:13:189,0.759,7.209,5.487,39.6284,0.8144,-0.5162,0.3849,0.2574
17:49:13:208,0.6281,7.647,5.5301,39.8199,0.5654,-0.6226,0.2221,0.2786
17:49:13:228,0.6731,7.8101,6.38,39.7976,0.2845,-0.6619,0.0901,0.2971
17:49:13:256,1.473,8.1431,7.908,39.8458,0.044,-0.6385,-0.0153,0.3165
17:49:13:273,2.088,8.3561,7.391,40.2014,-0.0071,-0.5257,-0.1792,0.3225
17:49:13:294,1.928,8.3441,6.3401,40.5924,-0.2465,-0.4044,-0.4527,0.3309
17:49:13:314,1.1591,7.9031,5.559,40.7113,-0.6839,-0.3523,-0.6581,0.3402
17:49:13:333,1.073,6.6341,5.753,40.8084,-1.2299,-0.397,-0.6496,0.3453
17:49:13:352,0.8981,5.997,7.412,40.5292,-1.4087,-0.1118,-0.5453,0.3433
17:49:13:372,0.2351,5.681,8.423,39.9569,-1.115,0.099,-0.392,0.3303
17:49:13:392,0.11,5.612,8.1041,39.6732,-0.6989,-0.115,-0.1664,0.3104
17:49:13:415,0.9221,5.775,7.269,39.397,-0.4679,-0.6321,0.006,0.295
17:49:13:433,2.09,5.957,6.869,39.268,-0.4605,-1.0632,-0.0217,0.2923
17:49:13:452,2.696,5.825,7.0871,39.6015,-0.5382,-1.226,-0.2016,0.3016
17:49:13:471,2.8451,5.574,7.257,39.6193,-0.5979,-1.0323,-0.4165,0.3131
17:49:13:492,2.246,5.504,7.419,39.5734,-0.5903,-0.6278,-0.6049,0.3209
17:49:13:512,1.3121,5.4641,7.223,39.4528,-0.5052,-0.2384,-0.7178,0.3225
17:49:13:531,0.1991,5.5091,6.7421,38.9936,-0.3871,0.0649,-0.7699,0.3184
17:49:13:550,-0.813,5.648,6.33,38.566,-0.2743,0.2353,-0.7602,0.3111
17:49:13:570,-1.6121,5.952,6.1241,38.0664,-0.1722,0.2129,-0.7039,0.3019
17:49:13:590,-1.797,6.1841,6.225,37.9824,-0.1062,-0.0021,-0.6134,0.2928
17:49:13:621,-1.5071,6.455,6.732,37.9945,-0.0518,-0.2416,-0.573,0.2861
17:49:13:630,-1.4261,6.7061,7.197,38.133,0.0364,-0.331,-0.5624,0.2828
17:49:13:650,-1.1531,6.735,7.5341,38.4475,0.0566,-0.3278,-0.5016,0.2814
17:49:13:669,-0.813,6.876,8.231,38.3361,0.044,-0.2106,-0.4229,0.2809
17:49:13:689,-0.7481,7.2071,9.0311,38.3847,0.1206,0.0148,-0.359,0.2803
17:49:13:709,-0.98,7.659,9.366,38.5286,0.2206,0.2043,-0.3123,0.2789
17:49:13:729,-1.076,7.7861,9.2561,38.4756,0.2089,0.2692,-0.258,0.2776
17:49:13:753,-1.1381,7.683,9.222,38.2323,0.0896,0.3799,-0.2005,0.277
17:49:13:769,-1.572,7.5701,9.117,37.9969,0.0142,0.6929,-0.1356,0.2757
17:49:13:789,-1.976,6.68,8.6831,37.8263,-0.0231,0.9536,-0.0323,0.2718
17:49:13:808,-2.6591,5.928,8.312,37.8478,0.029,1.1909,0.089,0.2638
17:49:13:829,-3.446,5.562,7.946,38.2109,0.1716,1.3133,0.2338,0.2515
17:49:13:848,-4.193,5.715,7.383,38.7313,0.2823,1.1803,0.4147,0.2372
17:49:13:869,-4.359,6.189,6.5291,38.8594,0.2057,0.8577,0.5946,0.2246
17:49:13:888,-3.695,6.3371,5.846,39.0045,-0.1881,0.4023,0.703,0.2178
17:49:13:912,-2.616,6.0911,6.464,39.0688,-0.8053,0.0287,0.7254,0.2167
17:49:13:930,-1.9121,5.667,8.8991,39.0242,-1.2416,-0.0628,0.7147,0.2162
17:49:13:949,-1.311,4.8191,11.3771,39.1451,-1.181,0.0968,0.7371,0.2086
17:49:13:968,-0.9731,4.262,12.0551,39.1302,-0.7925,0.3619,0.8553,0.1939
17:49:13:988,-0.377,3.9341,11.552,39.1511,-0.352,0.6055,0.9989,0.1787
17:49:14:007,0.278,3.809,10.4741,39.2423,0.0727,0.747,1.0798,0.1678
17:49:14:030,0.8,3.7781,9.062,39.3286,0.4058,0.7567,1.0574,0.1631
17:49:14:048,0.711,3.9341,7.8191,39.5675,0.6133,0.6247,1.0095,0.1658
17:49:14:068,0.608,4.2281,7.0601,39.894,0.7868,0.4491,1.0319,0.1744
17:49:14:087,0.956,4.599,6.4811,40.4009,0.9772,0.2512,1.0532,0.1874
17:49:14:120,1.319,5.267,5.748,40.9628,1.1007,0.0256,1.0021,0.2062
17:49:14:128,1.719,5.909,5.207,41.3221,1.0614,-0.2097,0.8649,0.2325
17:49:14:148,1.9781,6.536,5.3051,41.5784,0.9294,-0.4394,0.6413,0.2637
17:49:14:167,1.746,7.3451,5.4131,41.5954,0.723,-0.679,0.4051,0.2942
17:49:14:186,1.604,8.1791,5.7701,41.5439,0.3323,-0.9408,0.2475,0.3207
17:49:14:207,2.5811,8.088,6.9641,41.3686,-0.1827,-1.1759,0.0784,0.3424
17:49:14:230,3.608,7.3601,9.1481,41.5229,-0.5169,-1.1961,-0.193,0.3577
17:49:14:250,3.57,7.0151,11.5541,41.6564,-0.2998,-0.8321,-0.5038,0.3629
17:49:14:266,2.5931,7.3601,11.382,41.8555,0.342,-0.2831,-0.7921,0.3574
17:49:14:288,1.6331,6.914,8.643,42.0312,0.6655,-0.0468,-0.972,0.3502
17:49:14:307,0.635,6.795,6.687,42.0909,0.4781,-0.0703,-1.0593,0.3478
17:49:14:333,-0.236,6.462,6.167,42.1373,0.1749,-0.2064,-1.0689,0.349
17:49:14:349,-0.7001,5.7011,6.404,42.2255,-0.0242,-0.3905,-0.8997,0.3474
17:49:14:368,-0.9971,5.495,7.391,42.3232,0.1067,-0.4203,-0.6251,0.3399
17:49:14:391,-0.897,5.643,7.5701,42.4031,0.5878,-0.4587,-0.3303,0.3283
17:49:14:408,-0.111,5.744,5.921,42.3835,0.9613,-0.6258,-0.1228,0.3205
17:49:14:427,0.848,6.038,3.8501,42.2543,0.8176,-0.7748,-0.0813,0.3256
17:49:14:450,1.317,6.443,3.081,42.0527,0.2674,-0.8546,-0.1728,0.3474
17:49:14:466,1.521,6.3641,3.2681,42.1086,-0.3765,-0.8599,-0.2887,0.3748
17:49:14:488,1.43,6.1391,4.326,42.0028,-0.868,-0.6449,-0.3835,0.3953
17:49:14:510,1.035,5.8751,5.868,41.9804,-0.9841,-0.3065,-0.4517,0.4028
17:49:14:527,0.429,5.8541,6.543,41.9808,-0.767,-0.0734,-0.4686,0.3955
17:49:14:548,0.101,6.0071,6.174,41.8013,-0.4967,-0.0085,-0.4751,0.3817
17:49:14:568,-0.1781,6.251,5.5931,41.6292,-0.3605,-0.0723,-0.5101,0.371
17:49:14:587,-0.5021,6.6341,5.348,41.4342,-0.3381,-0.2001,-0.524,0.3658
17:49:14:608,-0.59,7.022,5.4251,41.2485,-0.3924,-0.3054,-0.5209,0.364
17:49:14:636,-0.542,7.247,6.225,41.0353,-0.4019,-0.298,-0.5218,0.364
17:49:14:648,-0.602,7.376,6.912,40.9965,-0.2966,-0.2075,-0.5049,0.3624
17:49:14:667,-0.621,7.487,7.544,40.9501,-0.137,-0.1224,-0.4559,0.3588
17:49:14:688,-0.794,7.8431,8.1761,40.8715,0.078,-0.0032,-0.4048,0.3547
17:49:14:715,-1.191,8.325,8.2811,41.0216,0.2951,0.1107,-0.3601,0.3509
17:49:14:730,-1.277,8.346,8.0951,41.1618,0.344,0.1246,-0.3197,0.3489
17:49:14:749,-1.0931,8.202,8.061,41.2267,0.2398,0.1383,-0.309,0.3486
17:49:14:769,-1.373,8.064,8.298,41.501,0.095,0.3002,-0.308,0.3484
17:49:14:788,-2.4461,8.42,8.154,41.6309,0.0216,0.6704,-0.2388,0.3456
17:49:14:809,-2.8451,8.052,7.386,41.8515,-0.1838,0.8876,-0.0877,0.3401
17:49:14:830,-2.8241,7.185,7.599,42.2636,-0.5467,0.994,0.0263,0.3335
17:49:14:851,-3.195,6.483,9.2171,42.6457,-0.6392,1.1525,0.1103,0.3223
17:49:14:867,-3.899,5.8631,10.347,43.017,-0.3296,1.2015,0.2391,0.3031
17:49:14:887,-4.263,5.5571,10.0151,43.332,0.0887,0.9919,0.4477,0.2805
17:49:14:911,-3.8921,5.373,8.681,43.6022,0.2408,0.6289,0.6424,0.2619
17:49:14:928,-3.1301,5.3201,7.6541,43.7222,0.0386,0.4033,0.7552,0.2505
17:49:14:948,-2.405,5.162,7.5821,44.0106,-0.2923,0.4704,0.7882,0.2448
17:49:14:968,-1.9811,4.9301,7.829,44.2436,-0.5606,0.6769,0.8276,0.2399
17:49:14:990,-1.5311,4.697,7.929,44.4525,-0.7,0.8822,0.9096,0.2323
17:49:15:012,-1.074,4.551,7.7231,44.8532,-0.7532,1.0207,0.9819,0.2232
17:49:15:027,-0.801,4.448,7.5731,45.3022,-0.7382,1.0461,1.0308,0.215
17:49:15:050,-0.614,4.4441,7.419,45.668,-0.6648,0.9312,1.0735,0.2083
17:49:15:068,-0.497,4.4201,7.6901,46.0658,-0.5285,0.7609,1.1085,0.204
17:49:15:088,-0.4781,4.578,7.764,46.2123,-0.2689,0.663,1.1404,0.2013
17:49:15:108,-0.4421,4.7291,7.031,46.3678,-0.0678,0.5959,1.1575,0.2007
17:49:15:133,-0.2411,4.9511,6.581,46.5499,-0.0657,0.5236,1.1436,0.2047
17:49:15:149,-0.09,5.3441,6.861,46.8377,-0.0752,0.465,1.0957,0.2124
17:49:15:171,-0.08,5.7221,7.0721,47.2988,-0.0337,0.4203,1.0192,0.2207
17:49:15:190,-0.035,5.8871,7.529,47.9093,0.0844,0.3597,0.9298,0.229
17:49:15:210,0.144,5.988,7.491,48.6333,0.2333,0.1873,0.8436,0.236
17:49:15:230,0.467,6.378,7.331,49.1511,0.2982,-0.0426,0.7424,0.2439
17:49:15:249,0.798,6.653,7.13,49.4636,0.2569,-0.2309,0.602,0.255
17:49:15:267,0.855,6.737,7.2281,49.7139,0.1141,-0.333,0.4646,0.2686
17:49:15:287,0.824,6.761,7.412,49.9909,-0.0529,-0.3395,0.3721,0.2807
17:49:15:308,0.419,7.089,8.018,50.5233,-0.1913,-0.2991,0.3263,0.2892
17:49:15:329,0.4601,7.3601,8.2481,51.2104,-0.2584,-0.3449,0.3178,0.293
17:49:15:348,0.7571,7.398,7.539,51.7226,-0.5148,-0.4821,0.2124,0.295
17:49:15:368,0.8981,6.756,7.472,51.9766,-1.0022,-0.5917,0.0389,0.2994
17:49:15:389,0.843,5.5661,8.525,51.8852,-1.4545,-0.6119,-0.0345,0.301
17:49:15:412,1.023,4.587,10.623,51.8331,-1.5268,-0.5672,0.1655,0.2922
17:49:15:429,1.7381,4.367,12.4571,50.8373,-0.9383,-0.2512,0.4071,0.2739
17:49:15:449,2.244,4.7171,11.9351,50.9888,0.0247,0.0777,0.4381,0.2558
17:49:15:468,2.5451,4.8701,9.299,51.3082,0.7006,0.0703,0.2551,0.2472
17:49:15:492,2.5961,5.207,6.66,51.5381,0.8155,-0.1585,-0.0622,0.2519
17:49:15:526,2.2751,5.76,5.042,51.7113,0.4696,-0.3745,-0.4154,0.2698
17:49:15:531,2.1911,5.6741,4.5101,51.8114,-0.1178,-0.4832,-0.689,0.2952
17:49:15:549,2.1071,5.265,5.135,51.9826,-0.6617,-0.2692,-0.8986,0.3182
17:49:15:570,1.181,4.8821,6.4211,52.0262,-0.8606,0.2023,-1.0348,0.3297
17:49:15:590,-0.317,4.628,7.28,51.9108,-0.6915,0.5651,-1.0369,0.3238
17:49:15:611,-1.61,4.604,6.9191,51.8927,-0.4542,0.5981,-0.8911,0.3041
17:49:15:629,-2.295,4.5731,6.411,51.5697,-0.3924,0.3682,-0.657,0.2817
17:49:15:650,-2.46,4.7,6.7391,51.6002,-0.4009,0.066,-0.4196,0.2616
17:49:15:670,-2.276,4.721,7.235,51.896,-0.3116,-0.0532,-0.2441,0.2448
17:49:15:693,-2.1011,4.8191,7.2731,52.1191,-0.2178,0.0478,-0.1165,0.2312
17:49:15:708,-1.7231,4.8311,7.283,52.3931,-0.2135,0.2139,-0.0675,0.2207
17:49:15:727,-1.541,4.848,7.611,52.4176,-0.2923,0.3491,-0.043,0.2128
17:49:15:748,-1.6241,5.0681,8.193,52.3202,-0.3403,0.4746,0.0177,0.2052
17:49:15:768,-2.0771,5.471,8.894,52.4315,-0.3062,0.562,0.1486,0.1971
17:49:15:787,-2.177,5.957,9.483,52.5791,-0.2806,0.4428,0.3519,0.1885
17:49:15:808,-1.56,6.1631,10.137,52.6273,-0.3392,0.1596,0.4742,0.1819
17:49:15:828,-1.251,6.062,11.082,52.8477,-0.3552,-0.0586,0.4839,0.1794
17:49:15:850,-1.8401,5.952,11.154,53.048,-0.2912,-0.0011,0.536,0.1779
17:49:15:873,-2.357,5.6981,11.406,53.332,-0.27,0.0936,0.7371,0.1746
17:49:15:889,-2.015,5.052,10.9271,53.6309,-0.1955,0.2203,0.9734,0.1685
17:49:15:908,-1.4591,4.6421,10.6631,53.8862,-0.07,0.3671,1.0852,0.1619
17:49:15:932,-1.301,4.463,9.849,54.2304,0.1482,0.3992,1.0245,0.1563
17:49:15:948,-1.7111,4.638,8.588,54.3982,0.2153,0.2607,0.8851,0.1529
17:49:15:972,-2.082,4.599,7.778,54.7265,0.0674,0.0649,0.7659,0.1524
17:49:15:988,-2.2061,4.47,7.743,55.0818,-0.1551,-0.0245,0.7488,0.1522
17:49:16:007,-2.055,4.4411,8.238,55.2368,-0.2753,-0.0063,0.8414,0.1496
17:49:16:029,-1.028,3.9551,8.219,55.5584,-0.3318,0.0808,0.9637,0.1457
17:49:16:049,-0.209,3.938,8.298,55.8274,-0.418,0.0766,1.0117,0.1433
17:49:16:070,0.872,3.737,8.676,55.992,-0.4414,0.0267,1.0436,0.1438
17:49:16:088,1.688,3.366,8.88,56.4244,-0.3509,-0.0287,0.967,0.1478
17:49:16:108,1.734,3.5,8.918,56.6286,-0.1572,-0.0671,0.8243,0.1537
17:49:16:128,1.3481,3.665,8.552,56.6518,0.062,-0.133,0.7212,0.1605
17:49:16:150,1.08,3.792,8.312,57.098,0.2259,-0.1181,0.7138,0.1681
17:49:16:171,0.9341,4.142,8.109,57.0441,0.4132,-0.1107,0.734,0.1757
17:49:16:188,0.972,4.487,7.644,57.3744,0.5303,-0.1096,0.7499,0.1842
17:49:16:210,1.092,4.6571,7.9991,57.883,0.5867,-0.1693,0.7116,0.1953
17:49:16:229,1.118,4.7861,8.207,58.401,0.741,-0.3873,0.5966,0.2064
17:49:16:248,1.233,4.6901,7.922,59.0222,0.873,-0.5587,0.4327,0.2173
17:49:16:270,1.322,4.803,7.254,59.191,0.9049,-0.5779,0.238,0.2293
17:49:16:287,1.176,5.6501,7.034,59.4915,0.7441,-0.3512,0.0624,0.2427
17:49:16:311,1.13,6.438,6.9911,59.815,0.4803,-0.364,-0.1037,0.2561
17:49:16:331,1.319,6.45,7.194,59.8642,0.0588,-0.4884,-0.1984,0.2685
17:49:16:352,1.7741,6.5861,7.98,60.0171,-0.37,-0.5077,-0.2431,0.2784
17:49:16:369,1.9541,6.665,8.858,59.9973,-0.7371,-0.3395,-0.3228,0.2841
17:49:16:390,1.712,6.218,9.2651,59.7374,-1.0905,-0.2969,-0.3132,0.2847
17:49:16:409,1.556,5.0921,9.4301,59.4125,-1.6323,-0.1075,-0.127,0.2792
17:49:16:428,2.756,2.859,10.3811,58.9573,-2.2015,0.348,0.2061,0.2664
17:49:16:449,3.996,1.116,12.138,58.4844,-2.3932,0.8898,0.2805,0.2438
17:49:16:471,3.386,1.458,13.5011,57.9209,-1.9525,1.243,0.0667,0.2135
17:49:16:491,1.947,1.731,13.197,57.5814,-1.0075,0.7833,-0.1899,0.1825
17:49:16:509,1.152,1.599,11.111,57.5199,-0.0572,-0.1213,-0.3345,0.1583
17:49:16:531,1.262,1.9151,9.1841,57.3458,0.5292,-0.8981,-0.4421,0.1463
17:49:16:552,1.7501,2.1041,7.388,57.4126,0.6985,-1.2282,-0.6304,0.1488
17:49:16:569,1.719,2.217,6.323,57.0656,0.5888,-1.1675,-0.8965,0.1632
17:49:16:589,1.865,1.8671,4.5251,56.698,0.359,-0.8727,-1.1848,0.1814
17:49:16:609,1.5401,2.251,4.089,56.3186,-0.5339,0.5385,-1.4435,0.1997
17:49:16:631,-0.602,3.9,7.709,56.2558,-0.7404,0.6152,-1.5115,0.2169
17:49:16:652,-1.667,4.515,7.2401,56.1727,-0.5968,0.4895,-1.2402,0.1998
17:49:16:670,-2.3711,4.709,8.253,56.1047,-0.5211,0.562,-0.8986,0.1836
17:49:16:690,-2.189,4.116,9.383,56.0425,-0.3605,0.2672,-0.6176,0.1659
17:49:16:709,-1.289,3.63,10.434,55.5836,-0.1253,0.1096,-0.3963,0.1484
17:49:16:728,-0.492,4.1471,11.138,55.2892,0.2259,-0.0384,-0.2474,0.1356
17:49:16:752,0.015,4.235,10.886,55.1545,0.6303,-0.1479,-0.2058,0.1316
17:49:16:769,0.249,4.077,10.149,55.0676,0.8858,-0.1947,-0.1302,0.1354
17:49:16:788,0.1151,4.9631,9.696,55.1808,1.038,-0.1767,-0.0377,0.1424
17:49:16:812,-1.562,6.0671,8.181,55.4704,0.8346,0.15,0.3582,0.1658
17:49:16:831,-1.4621,6.12,7.728,55.5699,0.2674,0.4161,0.6498,0.1738
17:49:16:851,-0.324,5.799,7.6301,55.6632,-0.6628,0.0074,0.8936,0.1769
17:49:16:870,2.0861,4.9991,10.608,55.8439,-1.547,-0.5088,0.8829,0.1799
17:49:16:888,1.545,3.675,13.886,55.8767,-1.5438,-0.5182,0.5924,0.1833
17:49:16:909,-0.66,2.3681,14.205,55.7713,-0.8851,-0.3458,0.5616,0.1741
17:49:16:928,-2.783,2.076,11.655,55.5564,-0.3487,0.1213,0.8638,0.1549
17:49:16:949,-2.2129,1.19,13.568,55.2364,0.4675,1.756,1.3937,0.1304
17:49:16:967,-1.986,1.401,9.5501,55.0527,1.0347,2.5212,1.8971,0.101
17:49:16:989,-1.682,2.387,8.004,55.214,0.7517,3.0266,2.0195,0.0745
17:49:17:008,-0.873,2.516,7.644,55.6146,0.3952,2.8872,1.9247,0.0525
17:49:17:027,-0.492,2.816,8.813,55.8358,-0.0412,1.9411,1.58,0.0377
17:49:17:047,-1.215,4.1471,8.595,56.0751,-0.2945,0.9089,1.2926,0.0299
17:49:17:066,-0.458,3.4691,8.892,56.1674,-0.5009,-0.0723,1.2235,0.0317
17:49:17:088,0.2471,3.0071,8.36,56.1533,-0.7308,-0.5948,1.1595,0.0391
17:49:17:108,1.142,2.789,7.374,56.1799,-0.8958,-0.7376,1.1181,0.0509
17:49:17:129,1.5761,2.444,7.4861,56.3582,-1.015,-0.6662,1.0297,0.0683
17:49:17:160,1.7261,1.887,8.4461,56.658,-0.8936,-0.912,0.9138,0.0854
17:49:17:167,2.466,1.707,8.6861,56.2117,-0.6435,-0.9749,0.734,0.0967
17:49:17:188,3.0941,1.724,8.901,56.294,-0.2871,-1.0323,0.4179,0.11
17:49:17:209,3.161,1.949,8.858,56.3935,0.1195,-1.0526,0.0337,0.1266
17:49:17:238,2.622,2.174,8.468,56.3369,0.4654,-0.9269,-0.2025,0.1448
17:49:17:248,2.268,2.399,8.279,56.3492,0.6271,-0.6513,-0.3228,0.1611
17:49:17:270,2.495,2.976,8.6831,56.3122,0.6388,-0.4682,-0.5229,0.1731
17:49:17:287,2.406,3.692,9.0761,56.2892,0.5878,-0.5566,-0.806,0.1839
17:49:17:309,2.105,4.226,9.284,56.3276,0.4814,-0.7131,-1.0167,0.1949
17:49:17:328,1.865,4.7501,9.8261,56.3453,0.3377,-0.7162,-1.1051,0.2049
17:49:17:348,1.317,5.1191,10.295,56.2444,0.1536,-0.712,-1.0402,0.2125
17:49:17:367,0.6281,4.695,10.115,55.9152,-0.137,-0.6534,-0.8199,0.2161
17:49:17:387,0.3671,4.2281,10.242,55.6581,-0.5413,-0.43,-0.5027,0.2139
17:49:17:407,0.707,3.005,10.434,55.4339,-0.8841,-0.1682,-0.209,0.205
17:49:17:431,1.3841,1.793,10.908,55.3492,-1.0554,0.0234,-0.1419,0.1905
17:49:17:448,2.088,1.1201,11.075,55.3678,-0.9181,-0.0139,-0.3388,0.1723
17:49:17:468,1.5761,1.475,10.01,55.255,-0.469,-0.1383,-0.5453,0.1565
17:49:17:492,1.506,1.475,8.511,55.0531,0.0472,-0.2075,-0.5186,0.1468
17:49:17:507,1.5161,1.8,7.199,54.7282,0.41,-0.415,-0.4133,0.1434
17:49:17:539,1.217,2.5451,5.736,54.5121,0.3866,-0.0202,-0.1803,0.1488
17:49:17:548,1.133,2.085,5.7941,54.3251,0.0566,0.8449,0.1327,0.1605
17:49:17:569,1.245,1.994,7.3211,54.2715,-0.3977,1.0535,-0.0877,0.1625
17:49:17:589,0.893,2.174,8.449,54.4034,-0.7649,0.4938,-0.4324,0.1535
17:49:17:612,0.6491,2.514,8.856,54.5194,-0.9575,-0.1798,-0.6517,0.1417
17:49:17:631,0.857,2.7341,8.6,54.2731,-0.9618,-0.5396,-0.639,0.1337
17:49:17:649,1.1951,2.7941,8.396,53.9115,-0.8224,-0.3395,-0.4506,0.1319
17:49:17:673,1.4081,2.54,8.672,53.7269,-0.5797,0,-0.2346,0.1339
17:49:17:690,1.521,2.361,9.09,53.331,-0.2828,0.1596,-0.1248,0.1347
17:49:17:707,1.4561,2.483,9.3731,53.3006,-0.0071,0.1426,-0.1248,0.1341
17:49:17:733,1.257,2.669,9.263,53.4583,0.1972,0.0267,-0.1376,0.1345
17:49:17:749,1.353,2.715,8.976,53.7514,0.2569,-0.0777,-0.1248,0.1369
17:49:17:769,1.5251,3.1751,8.88,53.9175,0.1099,0.0267,-0.1004,0.1412
17:49:17:789,1.904,2.873,9.8951,53.8074,-0.0593,0.4236,-0.1452,0.1477
17:49:17:809,1.7501,2.799,11.564,53.6742,-0.0615,0.8045,-0.3154,0.1487
17:49:17:829,0.908,3.0431,13.278,53.5342,0.1056,0.9769,-0.5325,0.143
17:49:17:847,-0.942,3.1841,13.577,53.4533,0.294,0.6035,-0.5581,0.1325
17:49:17:867,-1.574,2.964,12.6461,53.4515,0.2887,0.2672,-0.3112,0.1201
17:49:17:887,-1.05,2.691,12.411,53.3988,0.2196,0.3534,-0.1143,0.1082
17:49:17:909,-1.8281,2.1401,12.3851,53.4439,0.1983,0.2937,0.0698,0.0986
17:49:17:928,-1.955,1.2191,11.796,53.4581,0.2643,0.0564,0.4273,0.0863
17:49:17:947,-0.894,0.117,10.589,53.5791,0.3802,-0.2512,0.6392,0.072
17:49:17:968,0.5441,-0.2501,9.294,53.5644,0.5739,-0.2522,0.5721,0.0607
17:49:17:991,1.3391,0.0431,8.051,53.4228,0.8133,-0.1607,0.2859,0.0561
17:49:18:011,1.161,1.295,7.2611,53.3635,0.9081,0.0436,-0.0664,0.06
17:49:18:029,0.182,2.768,7.07,53.3278,0.7006,0.3341,-0.1814,0.0718
17:49:18:049,-0.7271,3.615,7.733,53.4521,0.3387,0.5864,-0.0195,0.0849
17:49:18:070,-1.076,3.996,8.693,53.5553,-0.0168,0.3554,0.2912,0.0912
17:49:18:088,-0.753,3.8861,9.0071,53.7037,-0.3083,-0.1287,0.586,0.0928
17:49:18:112,0.386,3.249,8.796,53.7,-0.3774,-0.4682,0.7243,0.0955
17:49:18:128,1.41,2.921,8.463,53.5556,-0.1497,-0.5629,0.6424,0.1017
17:49:18:146,1.877,2.847,7.853,53.4666,0.1248,-0.4522,0.4583,0.1141
17:49:18:168,1.7981,2.9471,7.479,53.5993,0.3323,-0.1937,0.2401,0.1297
17:49:18:190,1.389,3.285,7.338,53.8716,0.4484,-0.0096,0.0241,0.1448
17:49:18:216,0.786,3.749,7.151,54.0831,0.4196,0.1075,-0.127,0.1571
17:49:18:229,0.0941,4.029,7.731,54.1636,0.3334,0.1479,-0.1675,0.1663
17:49:18:249,-0.083,3.9581,8.2361,54.0771,0.3323,0.1565,-0.1089,0.1697
17:49:18:269,0.5201,3.96,8.937,53.8609,0.4004,0.2427,-0.1484,0.1685
17:49:18:292,1.104,3.8501,9.9281,53.74,0.576,0.2479,-0.4261,0.1683
17:49:18:308,1.341,4.044,10.347,53.6478,0.7836,0.1235,-0.8539,0.1689
17:49:18:330,1.19,4.8461,9.998,53.5955,0.8357,0.0351,-1.1274,0.1715
17:49:18:346,0.968,5.466,9.837,53.7662,0.5973,0.149,-1.1594,0.1777
17:49:18:366,0.321,5.078,10.031,54.0123,0.3153,0.4522,-1.0007,0.1844
17:49:18:388,0.039,4.214,10.371,54.3255,0.2419,1.0025,-0.7497,0.1838
17:49:18:406,-0.257,3.369,10.137,54.1157,0.3334,1.5452,-0.5633,0.1736
17:49:18:427,-0.257,2.574,9.636,54.1773,0.377,2.0412,-0.4517,0.1573
17:49:18:447,-0.2051,2.921,10.0241,54.2146,0.3312,2.0529,-0.5676,0.1362
17:49:18:467,-0.662,3.345,9.8111,54.0927,0.2802,1.4112,-0.5911,0.1175
17:49:18:490,-0.399,3.5771,8.729,53.9596,0.1631,0.6588,-0.4612,0.1045
17:49:18:507,0.1181,3.551,7.544,53.8563,-0.0177,0.3725,-0.4154,0.101
17:49:18:528,-0.135,3.05,6.8381,54.0022,-0.2135,0.7024,-0.524,0.1054
17:49:18:551,-1.0901,2.48,7.07,54.2314,-0.3158,1.2143,-0.7549,0.1064
17:49:18:567,-2.666,2.483,8.0921,54.448,-0.2743,1.4154,-1.0029,0.0936
17:49:18:587,-4.77,3.333,10.022,54.4316,-0.0327,0.8907,-1.0072,0.0698
17:49:18:607,-7.172,4.8221,10.367,54.3563,0.6579,-0.4161,-0.4102,0.0463
17:49:18:628,-3.6161,4.563,5.171,54.2724,0.4089,0.3704,-0.0004,0.036
17:49:18:647,-2.393,4.173,6.014,54.1551,0.1823,0.6651,-0.0004,0.0389
17:49:18:667,-2.0291,4.4269,6.392,54.1806,0.0939,0.6758,-0.0472,0.0435
17:49:18:687,-2.5871,5.1281,6.8501,54.6056,-0.0029,0.8312,-0.1356,0.0493
17:49:18:706,-3.7721,5.799,7.5131,54.7522,-0.0945,0.7843,-0.1632,0.0532
17:49:18:726,-3.882,5.6381,7.652,54.6867,-0.1486,0.5279,-0.1345,0.052
17:49:18:749,-3.8921,4.989,8.351,54.672,-0.0518,0.2661,-0.0269,0.0501
17:49:18:772,-3.504,4.724,8.652,54.7671,0.2036,0.2757,0.1655,0.0468
17:49:18:787,-3.741,5.193,8.655,54.7764,0.4771,0.5662,0.3114,0.0453
17:49:18:806,-4.258,5.612,8.396,55.0685,0.6186,0.8748,0.3763,0.0461
17:49:18:826,-4.682,5.9501,8.6021,55.3429,0.5526,0.8716,0.2923,0.0462
17:49:18:847,-4.833,6.407,8.976,55.404,0.3079,0.4726,0.0815,0.0448
17:49:18:868,-4.9121,5.9471,9.2051,55.4035,-0.0135,0.0532,-0.0844,0.0442
17:49:18:886,-5.18,4.664,10.218,55.4746,-0.1679,0.1958,-0.1367,0.0428
17:49:18:907,-5.4071,4.092,10.482,55.5678,-0.1603,0.6907,-0.1409,0.034
17:49:18:926,-5.625,4.262,9.507,55.7314,-0.1519,0.8152,-0.0472,0.019
17:49:18:946,-5.5271,3.804,8.537,55.7991,-0.203,0.4843,0.2412,0.0044
17:49:18:968,-5.094,2.93,7.992,55.8507,-0.1955,0.0894,0.5775,-0.0077
17:49:18:987,-4.32,2.528,7.5821,55.8351,-0.0806,-0.0043,0.8254,-0.0183
17:49:19:007,-3.5831,2.6771,7.065,55.7619,-0.0146,0.1138,0.8371,-0.0257
17:49:19:028,-3.609,3.345,6.225,55.6067,-0.1477,0.2629,0.6615,-0.0283
17:49:19:047,-3.944,4.029,5.913,55.608,-0.4712,0.3438,0.4221,-0.0281
17:49:19:070,-4.055,4.343,6.138,55.731,-0.7861,0.3651,0.1922,-0.0284
17:49:19:088,-3.669,4.058,6.9791,55.8819,-0.932,0.2767,0.089,-0.0302
17:49:19:107,-3.1421,3.9221,7.5611,56.2229,-0.9277,0.0373,0.0986,-0.0331
17:49:19:134,-2.661,3.8,7.745,56.3054,-0.8181,-0.0873,0.1678,-0.0332
17:49:19:147,-2.498,3.773,7.8,56.2226,-0.6392,-0.0628,0.221,-0.0294
17:49:19:167,-2.759,3.948,7.608,56.2487,-0.4488,-0.0638,0.2178,-0.0241
17:49:19:188,-3.027,4.082,7.436,56.1163,-0.2562,-0.1224,0.1805,-0.0186
17:49:19:207,-2.9561,4.2311,7.245,56.1584,-0.0902,-0.1405,0.1294,-0.0135
17:49:19:232,-2.9771,4.4891,6.902,56.1675,-0.0274,-0.1522,0.1125,-0.0074
17:49:19:247,-3.023,4.4171,6.816,56.1772,-0.0487,-0.1266,0.1401,-0.0001
17:49:19:267,-3.185,4.2071,6.986,56.2183,-0.1062,-0.2106,0.1134,0.006
17:49:19:287,-3.53,4.319,7.661,56.2555,-0.0997,-0.3406,-0.011,0.0089
17:49:19:307,-3.81,4.7861,8.633,56.257,0.0472,-0.4394,-0.1345,0.0099
17:49:19:327,-3.908,5.0831,9.77,55.9476,0.3323,-0.448,-0.1632,0.0116
17:49:19:349,-3.6641,4.769,10.194,55.7393,0.6058,-0.3438,-0.1621,0.0153
17:49:19:368,-3.9401,4.9631,10.106,55.6049,0.5941,-0.3873,-0.2887,0.0194
17:49:19:387,-4.6601,4.968,10.199,55.3104,0.26,-0.5746,-0.4771,0.0228
17:49:19:406,-5.015,4.719,10.917,55.2109,-0.1933,-0.7248,-0.6379,0.023
17:49:19:427,-4.7441,3.833,11.717,55.0903,-0.5851,-0.7673,-0.6848,0.0184
17:49:19:446,-3.671,2.2241,12.5141,55.0176,-0.8181,-0.8386,-0.6709,0.0106
17:49:19:467,-1.8641,2.157,11.9111,55.1589,-0.8107,-1.0216,-0.674,-0
17:49:19:487,-1.131,2.844,9.665,55.0994,-0.436,-1.177,-0.5868,-0.0033
17:49:19:506,-1.205,2.909,7.515,54.828,0.2068,-0.9706,-0.3814,0.0056
17:49:19:542,-0.9401,2.145,6.747,54.514,0.476,-0.3491,-0.2537,0.0328
17:49:19:547,-1.3301,1.9151,7.187,54.0902,-0.1199,-0.5342,-0.557,0.0406
17:49:19:570,-1.914,1.9271,8.219,53.8197,-0.5669,-0.9003,-0.906,0.041
17:49:19:588,-2.316,2.1641,8.49,53.6862,-0.6233,-1.0526,-1.1668,0.0356
17:49:19:607,-2.292,2.526,7.841,53.6747,-0.4243,-0.829,-1.2647,0.0301
17:49:19:628,-2.165,3.012,7.0001,53.52,-0.2254,-0.5012,-1.1924,0.0274
17:49:19:649,-2.036,3.3401,6.629,53.3185,-0.187,-0.3011,-1.0359,0.0288
17:49:19:668,-2.139,3.486,6.984,53.0599,-0.2795,-0.2501,-0.8763,0.0333
17:49:19:697,-2.51,3.6131,8.018,52.6687,-0.3509,-0.2129,-0.705,0.0369
17:49:19:719,-2.6111,3.809,9.05,52.4118,-0.286,-0.1585,-0.5346,0.0373
17:49:19:727,-2.666,3.752,9.5261,52.3755,-0.1104,-0.1298,-0.3825,0.0368
17:49:19:746,-2.774,3.6251,9.653,52.4716,0.1004,-0.0851,-0.2111,0.0366
17:49:19:767,-2.865,3.687,9.6701,52.6099,0.3004,0.1394,-0.0408,0.0366
17:49:19:786,-3.327,4.005,9.758,52.7603,0.4729,0.514,0.056,0.0369
17:49:19:806,-3.8171,4.314,9.9191,52.7816,0.5782,0.8141,0.0921,0.0358
17:49:19:826,-3.999,4.484,10.0241,52.5621,0.5196,0.9109,0.0688,0.0332
17:49:19:847,-3.897,4.8461,10.053,52.3148,0.293,0.7982,0.055,0.0296
17:49:19:876,-3.966,4.0961,10.1201,52.0733,0.0407,0.6066,0.137,0.0274
17:49:19:887,-4.325,2.595,11.0801,51.7955,-0.0444,0.6087,0.2636,0.0233
17:49:19:907,-4.337,1.793,11.585,51.6556,0.0566,0.8801,0.3455,0.0114
17:49:19:926,-4.1051,1.8791,10.6541,51.6066,0.2163,1.0791,0.4509,-0.0045
17:49:19:946,-4.509,1.932,9.067,51.4826,0.342,1.11,0.6605,-0.0183
17:49:19:966,-5.1371,1.616,8.2241,51.4318,0.4569,1.1206,0.9723,-0.0305
17:49:19:986,-5.1491,1.769,7.9271,51.4371,0.494,1.2015,1.1714,-0.0448
17:49:20:007,-5.019,2.643,7.668,51.3949,0.3525,1.2367,1.0861,-0.058
17:49:20:027,-4.665,3.5411,7.494,51.4265,0.0195,0.9749,0.7787,-0.0662
17:49:20:048,-4.148,3.744,7.34,51.2886,-0.3477,0.4949,0.4316,-0.0681
17:49:20:067,-3.4181,3.735,7.146,51.0367,-0.5361,0.1798,0.2603,-0.0662
17:49:20:088,-2.8961,3.7301,6.9881,50.9238,-0.4775,0.1224,0.3146,-0.0607
17:49:20:109,-2.465,3.584,7.1681,50.919,-0.22,0.198,0.5264,-0.052
17:49:20:130,-2.592,3.3761,7.3091,51.0965,0.0663,0.2234,0.67,-0.0412
17:49:20:148,-2.999,3.495,6.9641,51.2642,0.1653,0.1213,0.6934,-0.0314
17:49:20:169,-3.1541,3.735,6.692,51.4256,0.0982,-0.0245,0.6509,-0.0237
17:49:20:195,-2.91,3.938,6.668,51.527,0.0566,-0.0447,0.5371,-0.0164
17:49:20:208,-2.6801,4.293,6.6011,51.4955,0.1482,0.0202,0.3891,-0.0085
17:49:20:236,-2.6321,4.374,6.653,51.4493,0.2174,-0.0521,0.2742,0.0013
17:49:20:247,-3.1661,4.451,7.1441,51.3389,0.0727,-0.3534,0.1444,0.0115
17:49:20:271,-3.7001,4.566,8.123,51.1722,0.0993,-0.2618,0.006,0.0184
17:49:20:289,-4.16,5.1881,8.427,51.0283,0.2993,-0.0671,-0.0664,0.0207
17:49:20:309,-4.6121,5.669,8.832,50.8915,0.4282,-0.3246,-0.0877,0.0218
17:49:20:328,-4.236,5.435,9.555,50.721,0.3696,-0.8002,-0.1675,0.0244
17:49:20:346,-3.8411,5.2361,10.2281,50.6061,0.2036,-1.0856,-0.3239,0.0297
17:49:20:367,-3.669,5.349,10.3331,50.5871,-0.0285,-1.0068,-0.4973,0.0356
17:49:20:386,-3.803,4.7359,10.6751,50.4429,-0.2593,-0.9323,-0.6156,0.0406
17:49:20:407,-4.055,3.716,11.4821,50.2031,-0.5318,-0.8662,-0.6794,0.0408
17:49:20:428,-3.6881,2.1401,12.435,49.8082,-0.7234,-0.7173,-0.6677,0.0341
17:49:20:446,-2.525,1.544,12.6101,49.419,-0.6776,-0.7598,-0.672,0.0209
17:49:20:468,-1.6871,2.231,10.697,49.1446,-0.3563,-1.1483,-0.6848,0.0098
17:49:20:486,-1.395,2.567,8.358,48.8992,0.161,-1.4314,-0.6208,0.0103
17:49:20:508,-1.062,2.387,6.639,48.8027,0.5472,-1.4303,-0.5411,0.0216
17:49:20:529,-1.0211,2.258,5.844,48.7289,0.4621,-1.3164,-0.5602,0.038
17:49:20:547,-1.0811,2.148,5.526,48.5047,-0.0837,-1.3058,-0.7474,0.0529
17:49:20:567,-1.8851,2.1881,5.8991,48.4326,-0.8,-1.4388,-1.0242,0.0624
17:49:20:587,-3.087,2.612,7.644,48.2769,-1.2959,-1.5708,-1.1093,0.0616
17:49:20:606,-2.987,2.334,8.121,45.8219,-1.4077,-1.5665,-1.1296,0.0522
17:49:20:627,-4.4231,3.2111,8.4701,45.1561,-1.298,-1.2111,-0.8922,0.042
17:49:20:649,-3.9401,4.0961,9.351,44.6788,-0.7798,-0.8238,-0.309,0.0305
17:49:20:669,-2.625,3.8501,9.081,44.2044,-0.0945,-0.3703,0.1199,0.0262
17:49:20:688,-1.43,3.594,8.2931,44.0581,0.3813,0.0799,0.3083,0.0301
17:49:20:710,-0.6791,3.6251,7.7591,44.1605,0.5548,0.331,0.3007,0.0392
17:49:20:728,-0.396,3.479,7.245,44.1368,0.5048,0.3129,0.2221,0.0523
17:49:20:750,0.063,3.33,6.701,44.0712,0.294,0.3246,0.1666,0.0658
17:49:20:770,0.726,3.1241,7.0751,44.0181,0.0407,0.7077,0.0656,0.0794
17:49:20:787,0.8891,2.5331,8.64,43.8608,-0.0253,1.2962,-0.1409,0.0905
17:49:20:807,-3.6521,3.3251,13.113,43.5785,0.3068,1.5463,-0.1909,0.0906
17:49:20:827,-7.1291,7.166,12.608,43.7249,0.8283,1.6836,0.4179,0.0728
17:49:20:849,-5.9321,6.146,11.624,43.9575,0.857,1.906,0.8669,0.0598
17:49:20:868,-4.4351,3.4811,10.8431,43.8156,0.6027,1.9826,0.7318,0.0503
17:49:20:892,-4.284,2.66,11.568,43.765,0.3238,1.756,0.5924,0.0356
17:49:20:908,-4.5551,2.358,11.5661,43.6779,0.1343,1.309,0.6094,0.0171
17:49:20:927,-4.8131,2.1521,10.565,43.6364,-0.006,0.91,0.8467,0.0002
17:49:20:948,-4.569,1.314,9.428,43.9821,-0.0402,0.9632,1.1756,-0.0146
17:49:20:969,-4.758,1.154,9.045,44.167,0.2036,1.1738,1.431,-0.0305
17:49:20:987,-4.112,1.47,8.3771,44.2213,0.426,1.4134,1.4182,-0.0468
17:49:21:008,-3.813,2.1071,8.0201,44.2137,0.408,1.4792,1.0861,-0.0584
17:49:21:028,-4.3609,3.503,7.7231,44.2147,0.1642,1.1813,0.7158,-0.0648
17:49:21:048,-4.488,4.592,7.0511,44.4162,-0.2391,0.7077,0.4924,-0.0659
17:49:21:070,-3.47,4.125,6.2801,44.6038,-0.5552,0.4012,0.47,-0.0618
17:49:21:089,-2.477,3.785,6.395,44.6143,-0.518,0.3363,0.5892,-0.0547
17:49:21:108,-2.204,3.8261,6.5771,44.6148,-0.2211,0.4331,0.7924,-0.0448
17:49:21:128,-2.484,3.7661,6.672,44.7216,0.0727,0.3576,0.9606,-0.032
17:49:21:148,-2.522,3.6941,6.603,44.8219,0.1653,0.1469,0.9574,-0.0208
17:49:21:167,-2.3591,3.857,6.945,45.1118,0.1067,-0.0287,0.8031,-0.0104
17:49:21:190,-2.321,4.202,7.2011,45.387,0.0727,-0.1787,0.5636,-0
17:49:21:211,-2.376,4.4081,7.269,45.4351,0.1184,-0.3543,0.3455,0.0109
17:49:21:231,-2.493,4.4051,7.211,45.5967,0.1749,-0.4608,0.2178,0.0218
17:49:21:248,-2.57,4.556,7.106,45.6592,0.2196,-0.3395,0.155,0.0316
17:49:21:268,-2.8361,5.1911,7.094,45.5028,0.3004,-0.115,0.0901,0.0397
17:49:21:288,-3.288,5.708,7.5131,45.36,0.4132,-0.0341,0.0113,0.0471
17:49:21:309,-3.671,5.8901,8.169,45.188,0.4771,-0.1554,-0.0622,0.053
17:49:21:329,-3.6,5.6171,9.146,44.9281,0.4621,-0.3128,-0.1185,0.0569
17:49:21:348,-3.578,5.552,9.4661,44.8341,0.344,-0.3799,-0.2122,0.0591
17:49:21:368,-3.837,5.4521,9.797,44.8629,0.0844,-0.5342,-0.4378,0.0602
17:49:21:391,-4.428,5.0831,10.283,44.791,-0.0444,-0.5023,-0.6145,0.0593
17:49:21:411,-5.0861,4.4681,11.03,44.8131,-0.0987,-0.2373,-0.6401,0.0533
17:49:21:429,-5.549,3.383,12.4301,44.8572,-0.0615,0.0628,-0.524,0.0419
17:49:21:447,-4.797,3.431,12.009,44.7435,0.0364,0.0554,-0.4463,0.0245
17:49:21:467,-3.614,3.512,9.675,44.6824,0.1578,-0.4203,-0.3686,0.0104
17:49:21:487,-2.4551,3.474,7.482,44.7562,0.3398,-0.9237,-0.2483,0.0068
17:49:21:507,-1.706,3.749,6.062,44.5463,0.3494,-1.1961,-0.2292,0.0145
17:49:21:527,-1.55,3.642,5.8181,44.4605,0.0258,-1.1622,-0.3505,0.0323
17:49:21:555,-1.998,3.2441,6.438,44.3342,-0.3233,-0.8566,-0.608,0.0498
17:49:21:566,-2.877,3.206,6.921,44.183,-0.5499,-0.6534,-0.89,0.0552
17:49:21:587,-3.561,3.12,6.905,43.9949,-0.6935,-0.6343,-1.0604,0.0493
17:49:21:607,-3.861,3.273,6.692,43.7552,-0.7659,-0.7407,-1.0678,0.0383
17:49:21:629,-3.786,3.6491,6.194,43.5927,-0.7755,-0.8013,-0.938,0.027
17:49:21:647,-3.5681,3.7061,6.359,43.3979,-0.7457,-0.6918,-0.705,0.0212
17:49:21:669,-3.1691,3.95,7.0481,43.1827,-0.6287,-0.4969,-0.4559,0.0181
17:49:21:687,-2.678,4.2191,7.398,43.271,-0.4466,-0.2692,-0.2685,0.0185
17:49:21:708,-2.6081,4.389,7.709,43.4751,-0.2806,-0.117,-0.1814,0.023
17:49:21:732,-2.498,4.6901,7.965,43.7446,-0.1093,-0.1042,-0.1079,0.0288
17:49:21:748,-2.5511,4.6781,8.214,43.7863,-0.0263,-0.2533,-0.0249,0.0365
17:49:21:766,-2.393,4.463,8.751,43.5586,-0.006,-0.4448,0.0485,0.0449
17:49:21:787,-2.2541,4.499,9.32,43.4923,0.093,-0.447,0.038,0.0525
17:49:21:806,-2.678,4.788,9.32,43.4739,0.2387,-0.1617,-0.01,0.0599
17:49:21:826,-3.3581,5.0111,9.354,43.5776,0.2131,0.1458,-0.0345,0.066
17:49:21:847,-4.1291,5.4011,10.448,43.7524,-0.0263,0.1277,-0.0206,0.0681
17:49:21:867,-4.4021,5.6891,11.343,43.5581,-0.2912,-0.2277,0.0528,0.0659
17:49:21:888,-4.4741,4.3691,11.777,43.4626,-0.5031,-0.5002,0.188,0.0638
17:49:21:908,-4.134,2.9711,12.6551,43.4246,-0.5009,-0.3449,0.2827,0.0581
17:49:21:929,-3.614,2.456,11.9831,43.5461,-0.3871,-0.2692,0.4062,0.047
17:49:21:948,-2.9891,2.054,10.046,43.6583,-0.3679,-0.4033,0.6242,0.0361
17:49:21:966,-2.7521,1.075,8.4799,43.7009,-0.3477,-0.4311,0.934,0.0285
17:49:21:988,-2.228,0.278,7.896,43.7074,-0.2753,-0.2596,1.1287,0.0189
17:49:22:007,-1.907,0.644,8.478,43.6915,-0.1891,0.0606,1.0405,0.006
17:49:22:028,-2.369,2.2961,9.426,43.5635,-0.1189,0.3512,0.8265,-0.0035
17:49:22:049,-3.092,4.1801,9.89,43.4246,-0.121,0.5375,0.7424,-0.0056
17:49:22:069,-3.2981,4.587,9.4571,43.5562,-0.2413,0.3704,0.8148,-0.0011
17:49:22:090,-2.2421,3.953,8.798,43.6257,-0.4382,-0.1107,0.9765,0.005
17:49:22:107,-0.506,3.23,8.219,43.8466,-0.469,-0.529,1.0926,0.0131
17:49:22:128,0.948,2.27,7.743,44.1013,-0.2988,-0.681,1.0627,0.0273
17:49:22:149,2.019,1.5251,7.106,44.2133,-0.054,-0.6119,0.8447,0.0457
17:49:22:169,2.337,1.583,6.735,44.2218,0.0865,-0.4076,0.5264,0.0653
17:49:22:190,1.7261,2.3441,6.996,44.2496,0.161,-0.2447,0.2508,0.0856
17:49:22:225,0.3761,3.254,6.981,44.2837,0.6548,0.1702,0.0209,0.1184
17:49:22:227,0.137,3.33,6.9431,44.3005,0.8559,0.4502,-0.0067,0.1298
17:49:22:247,0.302,3.273,7.953,44.4146,0.8943,0.6736,-0.127,0.1382
17:49:22:268,0.204,3.6581,9.363,44.7235,0.9305,0.8343,-0.4187,0.1421
17:49:22:289,0.936,3.512,9.059,44.9041,0.7985,0.8684,-0.9401,0.1418
17:49:22:309,-0.401,4.242,10.1321,44.8411,0.5356,0.4576,-1.401,0.1422
17:49:22:328,-1.691,4.827,10.776,44.6904,0.5963,0.0979,-1.3934,0.1407
17:49:22:347,-2.436,4.547,10.826,44.4012,0.7857,0.5066,-1.3274,0.1368
17:49:22:368,-3.528,4.611,10.733,44.206,0.9103,1.1004,-1.3509,0.1298
17:49:22:387,-3.968,4.872,10.046,44.3123,0.6835,1.258,-1.4435,0.1169
17:49:22:410,-5.7521,5.3891,10.091,44.805,0.1343,0.894,-1.3552,0.1027
17:49:22:427,-7.754,5.267,12.6941,45.1098,-0.2615,0.4789,-0.7964,0.0862
17:49:22:447,-6.2741,4.8671,14.705,45.3503,-0.0902,-0.2214,-0.209,0.0652
17:49:22:467,-2.1971,3.026,10.412,45.3037,-0.0316,-1.044,-0.1578,0.0514
17:49:22:490,-1.3781,2.571,8.777,45.1731,-0.022,-1.7134,-0.258,0.0517
17:49:22:506,-1.1381,2.5691,6.431,44.9943,0.177,-1.9103,-0.2313,0.059
17:49:22:528,-1.158,2.217,5.396,44.9249,0.1004,-1.2654,-0.359,0.073
17:49:22:547,-2.2211,2.198,6.33,45.0135,-0.0263,-0.7237,-0.5186,0.0842
17:49:22:567,-2.946,2.705,6.861,44.9163,-0.1508,-0.2863,-0.5846,0.0815
17:49:22:587,-3.506,3.0911,7.901,44.8324,-0.3168,-0.2405,-0.6197,0.0738
17:49:22:607,-3.99,3.5411,8.2331,44.6268,-0.436,-0.7045,-0.5081,0.0651
17:49:22:627,-3.243,3.926,7.872,44.7176,-0.3637,-1.1323,-0.2813,0.0587
17:49:22:648,-2.012,3.929,7.115,44.7514,-0.0902,-0.9983,-0.1165,0.0612
17:49:22:668,-0.9371,4.08,6.356,44.941,0.2003,-0.4055,0.0018,0.0725
17:49:22:687,-0.308,4.163,6.074,45.0285,0.3281,0.2256,0.0209,0.0901
17:49:22:708,-0.48,4.142,6.2171,45.1919,0.2419,0.4821,-0.0568,0.1098
17:49:22:738,-0.909,4.4171,6.696,45.3836,-0.0274,0.3619,-0.1781,0.1241
17:49:22:751,-1.4351,4.5851,7.338,45.4015,-0.2817,0.1341,-0.2335,0.1326
17:49:22:768,-1.778,4.386,8.327,45.4653,-0.3711,0.15,-0.2101,0.1359
17:49:22:786,-2.865,4.4891,11.559,45.4404,0.0609,0.4129,-0.1004,0.1339
17:49:22:809,-2.7161,5.057,10.695,45.5904,0.5941,0.8716,-0.0302,0.1246
17:49:22:828,-3.1301,5.162,9.9161,45.7928,0.5441,1.1292,-0.1282,0.1213
17:49:22:855,-4.071,5.715,10.388,45.925,0.1855,0.8163,-0.3006,0.1188
17:49:22:869,-5.355,5.736,9.627,46.2607,-0.5211,0.2065,-0.3453,0.1142
17:49:22:887,-6.152,5.085,11.717,46.4364,-0.8139,0.0224,-0.1814,0.1066
17:49:22:907,-5.5151,4.3361,12.179,46.6516,-0.7616,0.1479,0.1134,0.0921
17:49:22:927,-5.051,3.527,11.9441,46.9335,-0.5658,0.0851,0.4913,0.0768
17:49:22:946,-3.983,2.1911,11.1971,47.1559,-0.3361,-0.083,1.0266,0.0636
17:49:22:966,-2.4101,1.046,9.773,47.078,-0.0572,-0.2618,1.349,0.0521
17:49:22:987,-1.89,0.764,8.2211,46.917,0.1312,-0.282,1.4576,0.0435
17:49:23:007,-1.572,1.008,6.771,46.6915,0.0876,-0.116,1.3894,0.0374
17:49:23:026,-0.93,1.7621,6.711,46.7833,-0.2317,0.166,1.0286,0.0336
17:49:23:047,-2.007,2.82,8.253,47.0758,-0.5595,0.2192,0.6647,0.0354
17:49:23:068,-2.8331,3.582,9.483,47.1065,-0.6798,-0.082,0.6126,0.037
17:49:23:087,-2.721,3.867,9.5141,47.11,-0.6095,-0.4682,0.7073,0.0372
17:49:23:107,-2.252,3.905,8.7821,47.1082,-0.37,-0.7066,0.9542,0.0415
17:49:23:127,-1.464,3.5741,7.8461,47.1681,-0.0689,-0.6471,1.1638,0.0511
17:49:23:154,-0.794,3.1361,7.022,47.3835,0.1121,-0.465,1.2266,0.0649
17:49:23:167,-0.2,2.8631,6.4331,47.7664,0.0524,-0.4044,1.0904,0.0799
17:49:23:188,0.0461,2.9711,6.711,47.9507,-0.1722,-0.513,0.8052,0.0945
17:49:23:207,-0.152,3.246,7.134,47.9249,-0.3147,-0.6428,0.5551,0.1075
17:49:23:232,-0.245,3.606,7.4651,47.5777,-0.3327,-0.6768,0.437,0.1174
17:49:23:247,-0.2861,3.74,7.6871,47.5294,-0.2168,-0.5034,0.4338,0.1266
17:49:23:267,-0.032,3.476,8.025,47.7825,-0.0635,-0.2097,0.4764,0.1346
17:49:23:287,0.75,3.3041,8.81,48.1879,0.1013,0.0426,0.3838,0.1399
17:49:23:308,1.3361,3.443,9.474,48.4893,0.3175,0.1374,0.055,0.1437
17:49:23:327,1.1591,4.163,9.545,48.5737,0.4707,0.0862,-0.3516,0.1487
17:49:23:348,0.465,5.016,9.2921,48.5339,0.3622,0,-0.5538,0.1563
17:49:23:366,-0.264,5.243,9.452,48.573,-0.0188,-0.0191,-0.5633,0.1657
17:49:23:387,-1.3301,4.568,11.559,48.5729,-0.469,-0.0085,-0.4804,0.1706
17:49:23:407,-1.416,3.2111,14.355,48.7613,-0.4881,-0.1574,-0.3069,0.1636
17:49:23:426,-0.813,2.8421,13.56,49.0481,-0.4753,0.1671,-0.2516,0.1459
17:49:23:448,-1.292,1.791,13.175,49.1451,-0.5361,0.4895,-0.1749,0.1297
17:49:23:467,-0.9131,1.374,14.121,49.3114,-0.37,0.2501,-0.176,0.1092
17:49:23:486,-0.073,1.4411,13.163,49.3392,0.2569,-0.4852,-0.2622,0.0902
17:49:23:507,0.4721,1.7621,9.512,49.2764,0.9592,-0.8727,-0.3047,0.0834
17:49:23:527,0.711,2.406,5.748,49.2534,1.2156,-0.6929,-0.2463,0.0913
17:49:23:553,0.51,2.7131,3.9071,49.3264,0.9017,-0.2479,-0.1217,0.1137
17:49:23:566,0.527,2.43,4.2491,49.5573,0.2046,0.0936,-0.0685,0.1437
17:49:23:586,0.18,1.961,6.33,49.8606,-0.4861,0.132,-0.2516,0.1622
17:49:23:609,-0.492,1.932,8.535,49.6817,-0.8139,-0.0276,-0.5346,0.1574
17:49:23:626,-1.368,2.619,9.335,49.6786,-0.7149,-0.132,-0.7156,0.1403
17:49:23:652,-1.916,3.266,8.7311,49.6481,-0.3871,-0.0191,-0.6538,0.1248
17:49:23:666,-1.4261,3.563,7.97,49.6622,-0.0965,0.2118,-0.5027,0.1153
17:49:23:687,-0.93,3.692,7.7261,50.0891,-0.0082,0.3469,-0.4048,0.1131
17:49:23:707,-0.777,3.8381,7.812,50.3496,-0.0752,0.2991,-0.3165,0.1154
17:49:23:727,-0.717,3.905,8.025,50.4457,-0.1466,0.1671,-0.227,0.1189
17:49:23:747,-0.662,3.9791,8.36,50.5521,-0.1306,0.0851,-0.1781,0.1224
17:49:23:768,-0.7481,3.962,8.5129,50.6443,-0.0465,0.082,-0.0887,0.1257
17:49:23:787,-0.516,3.797,8.913,50.757,0.0173,0.165,-0.0015,0.1287
17:49:23:807,-0.873,4.1081,9.8261,51.0343,0.1089,0.3129,0.0135,0.1306
17:49:23:827,-1.1621,4.41,10.443,51.4118,0.2302,0.4225,-0.0004,0.1307
17:49:23:847,-1.11,4.5251,10.5341,51.4202,0.2313,0.4895,-0.0813,0.1302
17:49:23:867,-1.691,5.0681,9.737,51.4611,0.1141,0.5629,-0.1558,0.1297
17:49:23:886,-1.8281,4.6421,10.371,51.3302,-0.2317,0.6077,-0.2207,0.1306
17:49:23:908,-2.51,3.314,12.311,51.3091,-0.5871,0.4194,-0.3282,0.1266
17:49:23:929,-3.4871,2.4371,14.913,51.6072,-0.6361,0.2065,-0.359,0.1116
17:49:23:952,-3.8801,2.231,15.593,51.7912,-0.2391,-0.181,-0.1706,0.0903
17:49:23:970,-3.2141,1.7861,12.852,52.0395,0.2663,-0.3725,0.205,0.0733
17:49:23:988,-2.4341,0.965,9.6671,52.1144,0.6368,-0.082,0.6339,0.064
17:49:24:008,-1.533,0.4691,7.482,52.0424,0.8101,0.231,0.8744,0.0567
17:49:24:028,-0.806,0.828,6.234,51.9341,0.7176,0.4246,0.7701,0.0491
17:49:24:047,-1.4381,2.277,6.237,51.9467,0.4185,0.3693,0.4455,0.0462
17:49:24:066,-2.9531,4.298,6.768,51.9763,0.0461,0.0979,0.2923,0.0511
17:49:24:087,-3.9731,5.2031,7.3481,52.0203,-0.304,0.0256,0.5126,0.0607
17:49:24:107,-3.303,4.5371,8.279,52.1299,-0.5606,0.0139,0.95,0.0685
17:49:24:128,-1.1771,3.215,8.856,52.1999,-0.6531,-0.1693,1.1554,0.0708
17:49:24:149,0.4721,2.301,8.954,52.3826,-0.568,-0.481,1.0329,0.0723
17:49:24:167,1.236,1.992,8.375,52.5462,-0.3893,-0.696,0.7573,0.0763
17:49:24:187,1.121,2.315,7.7621,52.7788,-0.2615,-0.6758,0.4722,0.0842
17:49:24:206,0.623,2.883,7.436,52.8689,-0.2051,-0.5375,0.2762,0.0951
17:49:24:228,0.051,3.402,7.362,52.8582,-0.0817,-0.3384,0.1933,0.1069
17:49:24:247,-0.1811,3.7091,6.962,52.9541,0.0737,-0.183,0.221,0.1178
17:49:24:267,-0.092,3.615,6.7061,53.1012,0.1099,-0.0936,0.2486,0.129
17:49:24:287,0.072,3.3161,7.3121,53.3826,0.0375,-0.0873,0.2113,0.1398
17:49:24:306,0.197,3.27,8.406,53.6338,0.0184,-0.1372,0.0667,0.1459
17:49:24:328,0.0461,3.8351,9.239,53.6394,0.1078,-0.1735,-0.1334,0.1478
17:49:24:347,-0.3821,4.6571,10.0721,53.5789,0.2813,-0.2831,-0.2867,0.1498
17:49:24:367,-0.633,4.913,9.8141,53.5529,0.4196,-0.3139,-0.3058,0.1538
17:49:24:388,-0.063,4.791,10.218,53.5002,0.3142,-0.0916,-0.2984,0.1593
17:49:24:408,0.3191,4.365,11.535,53.5663,-0.0125,0.0267,-0.4484,0.1636
17:49:24:436,-0.1811,4.0991,12.083,53.4054,-0.4254,-0.0692,-0.9347,0.1555
17:49:24:451,-0.7481,3.347,11.559,53.2442,-0.5063,0.1374,-0.888,0.1479
17:49:24:471,-0.614,2.021,11.748,53.2331,-0.6181,0.1958,-0.7113,0.1364
17:49:24:490,0.242,0.783,12.035,53.3101,-0.5456,-0.0191,-0.5485,0.1193
17:49:24:513,0.915,0.51,11.6981,53.3696,-0.2041,-0.4183,-0.5092,0.1013
17:49:24:530,0.651,0.828,10.17,53.2932,0.327,-0.7513,-0.4995,0.0902
17:49:24:551,0.323,1.448,7.925,53.1896,0.8368,-0.8195,-0.4591,0.0881
17:49:24:569,0.0551,2.081,5.9681,52.9004,0.9954,-0.6258,-0.4144,0.095
17:49:24:589,-0.1541,2.423,5.159,52.7415,0.7208,-0.4214,-0.4102,0.1101
17:49:24:612,-0.547,2.4881,6.177,52.8509,0.2014,-0.4044,-0.5166,0.1264
17:49:24:629,-0.542,2.183,7.175,52.8746,-0.3477,-0.4843,-0.7389,0.1336
17:49:24:649,-0.7151,1.8461,7.577,52.8808,-0.7904,-0.4235,-1.0178,0.1304
17:49:24:669,-1.335,1.8581,7.458,52.7392,-1.0256,-0.1841,-1.2338,0.1195
17:49:24:688,-1.869,2.162,7.46,52.6678,-1.1331,0.115,-1.3233,0.1043
17:49:24:708,-2.0981,2.559,8.0591,52.7215,-1.1788,0.3193,-1.2583,0.0879
17:49:24:728,-2.051,2.859,8.877,52.733,-1.0884,0.3662,-1.1071,0.0734
17:49:24:759,-2.235,3.498,9.275,52.5706,-0.7851,0.3469,-0.9518,0.062
17:49:24:770,-2.75,4.29,9.0551,52.5646,-0.4137,0.2703,-0.7369,0.0565
17:49:24:788,-2.771,4.8941,9.0641,52.5528,-0.1657,0.1203,-0.3877,0.058
17:49:24:808,-2.067,5.013,9.4901,52.5421,0.0131,0.0106,0.0198,0.0652
17:49:24:830,-0.906,4.604,10.367,52.7314,0.2014,0.1001,0.3274,0.0765
17:49:24:847,-0.434,4.089,11.549,52.724,0.41,0.2863,0.3902,0.0883
17:49:24:868,-1.1141,4.175,12.584,52.684,0.5643,0.4363,0.3413,0.0968
17:49:24:887,-2.019,4.149,12.804,52.693,0.542,0.531,0.3476,0.1014
17:49:24:906,-2.6081,3.9071,13.8431,52.6635,0.4111,0.646,0.322,0.1024
17:49:24:928,-3.408,3.2231,14.609,52.5117,0.4527,0.6651,0.3774,0.0988
17:49:24:948,-3.645,2.1161,13.7951,52.4823,0.4729,0.862,0.4785,0.0907
17:49:24:969,-3.552,1.1081,13.343,52.5523,0.2248,0.6992,0.4764,0.0786
17:49:24:988,-3.1541,0.395,12.564,52.5298,-0.0082,-0.1819,0.503,0.0624
17:49:25:008,-2.393,-0.26,10.901,52.4683,0.011,-0.978,0.6253,0.0468
17:49:25:034,-1.4981,-0.389,8.928,52.3262,0.2344,-1.1451,0.8095,0.0351
17:49:25:050,-0.645,0.263,7.3331,52.0809,0.5068,-0.7407,0.9787,0.0273
17:49:25:069,-0.485,1.434,6.8501,52.0512,0.6612,-0.0265,1.0692,0.0276
17:49:25:093,-1.217,2.921,7.187,52.2456,0.5856,0.4353,1.0607,0.0368
17:49:25:108,-1.8161,3.701,7.134,52.4494,0.2515,0.465,1.0744,0.0511
17:49:25:128,-1.409,3.5981,6.981,52.5216,-0.2168,0.1607,1.1139,0.0641
17:49:25:149,-0.128,3.0911,7.077,52.7253,-0.6233,-0.2798,1.1276,0.0746
17:49:25:168,1.2551,2.586,7.529,52.6867,-0.7575,-0.4917,1.0574,0.0849
17:49:25:187,1.832,2.219,7.925,52.5563,-0.5627,-0.4991,0.8988,0.0954
17:49:25:207,1.568,2.432,7.848,52.4481,-0.2817,-0.3565,0.7264,0.1051
17:49:25:227,1.178,2.976,8.097,52.2769,-0.0795,-0.1915,0.5541,0.1146
17:49:25:259,0.9,3.347,8.346,52.2286,0.1301,-0.198,0.3902,0.1246
17:49:25:268,0.956,3.431,8.147,52.2599,0.3068,-0.2447,0.2582,0.1347
17:49:25:288,1.4201,3.026,7.9151,52.4378,0.3855,-0.2533,0.1976,0.1459
17:49:25:308,2.081,2.495,8.2361,52.5223,0.36,-0.1085,0.1294,0.1569
17:49:25:328,2.339,2.624,8.9591,52.7026,0.3898,0.0714,-0.0525,0.1645
17:49:25:348,1.707,3.498,9.311,52.7107,0.4834,0.215,-0.3186,0.1693
17:49:25:367,0.9581,4.3481,9.402,52.5929,0.5324,0.1607,-0.5463,0.1744
17:49:25:388,0.4811,4.5821,9.7061,52.5298,0.4441,-0.0595,-0.7252,0.1804
17:49:25:408,0.1871,4.362,10.412,52.359,0.2227,-0.2054,-0.9008,0.1857
17:49:25:428,-0.0611,4.046,11.109,52.3081,-0.1444,-0.199,-1.0157,0.186
17:49:25:449,-0.2171,3.156,11.715,52.248,-0.5413,-0.0521,-1.0519,0.1804
17:49:25:468,-0.782,2.274,12.677,52.2515,-0.7371,0.1277,-1.0167,0.1672
17:49:25:488,-1.359,1.652,12.962,52.0289,-0.6946,0.1713,-0.8242,0.1464
17:49:25:508,-1.4711,1.9151,13.29,51.6454,-0.4382,-0.082,-0.5144,0.1229
17:49:25:528,-0.818,2.3411,11.82,51.4187,0.1738,-0.6033,-0.225,0.1045
17:49:25:592,-0.0161,2.3321,8.454,51.0915,0.7677,-0.6981,-0.0089,0.0993
17:49:25:593,0.915,2.2819,5.897,50.9374,0.8815,-0.5427,0.0624,0.1073
17:49:25:594,1.1059,2.861,4.319,50.8735,0.3696,-0.3745,0.0144,0.1253
17:49:25:607,1.188,2.0711,5.195,50.8746,-0.3722,-0.3512,0.0027,0.1525
17:49:25:628,1.214,1.803,6.012,50.9238,-0.9255,-0.3161,-0.2335,0.1661
17:49:25:647,0.51,1.757,7.6541,50.9886,-1.0735,-0.0468,-0.474,0.1637
17:49:25:668,-0.554,1.8791,8.5301,50.9918,-0.9724,0.2054,-0.5538,0.1513
17:49:25:688,-1.043,2.207,9.155,50.8475,-0.7447,0.5512,-0.4719,0.133
17:49:25:707,-1.064,2.4881,9.531,50.7303,-0.4796,0.8152,-0.325,0.1155
17:49:25:727,-0.882,2.921,9.969,50.5769,-0.1774,0.9152,-0.2313,0.1016
17:49:25:754,-0.995,3.507,9.639,50.4821,0.1376,0.7993,-0.176,0.0933
17:49:25:774,-1.316,3.929,8.669,50.4746,0.3323,0.6726,-0.0547,0.092
17:49:25:787,-1.328,3.9821,8.411,50.2713,0.3622,0.6204,0.1103,0.0963
17:49:25:808,-0.9611,3.687,8.832,50.0593,0.3728,0.4928,0.2284,0.1023
17:49:25:838,-0.449,3.3371,9.179,49.8114,0.4282,0.3321,0.2901,0.107
17:49:25:847,-0.2021,3.1841,9.3371,49.7265,0.4866,0.3076,0.2859,0.1114
17:49:25:868,-0.683,3.531,9.8351,49.6482,0.5016,0.4439,0.2529,0.1157
17:49:25:888,-1.2461,4.3331,9.998,49.4885,0.4462,0.5503,0.2518,0.1184
17:49:25:908,-1.1141,5.016,9.737,49.3855,0.2025,0.5418,0.2071,0.1209
17:49:25:928,-1.725,4.551,9.3131,49.1574,-0.2934,0.4769,0.1284,0.1258
17:49:25:948,-2.64,3.177,10.9391,49.1382,-0.868,0.6087,0.0784,0.126
17:49:25:968,-3.738,2.186,13.9151,49.2015,-1.0905,0.6204,0.0411,0.1103
17:49:25:988,-4.184,1.647,15.177,49.2185,-0.7829,0.4683,0.2135,0.0839
17:49:26:010,-3.207,0.7901,14.094,48.9816,-0.0859,0.4417,0.6253,0.0589
17:49:26:029,-2.1011,-0.116,11.636,48.641,0.6804,0.5555,1.001,0.041
17:49:26:052,-1.292,-0.329,9.026,48.5528,1.1934,0.6545,1.1671,0.0289
17:49:26:069,0.558,-0.461,7.2851,48.4341,1.3445,0.4852,0.884,0.021
17:49:26:088,0.474,1.01,5.195,48.6733,1.0273,0.298,0.1709,0.0211
17:49:26:107,-2.735,3.9191,4.326,48.7146,0.2771,0.165,-0.1823,0.0338
17:49:26:129,-5.3111,5.7821,5.1191,48.545,-0.5413,-0.0393,0.2571,0.0526
17:49:26:150,-4.596,5.363,7.391,48.3066,-1.1033,-0.232,1.0479,0.06
17:49:26:170,-1.095,2.6501,9.885,47.9211,-1.1204,-0.531,1.3448,0.0605
17:49:26:191,1.47,1.518,10.3121,47.7236,-0.7457,-0.7088,1.0255,0.0583
17:49:26:209,1.511,2.138,9.459,47.7135,-0.3125,-0.6736,0.6487,0.0613
17:49:26:229,0.855,2.7011,8.25,47.61,-0.054,-0.4863,0.4242,0.0716
17:49:26:250,0.2591,3.0671,7.592,47.6464,0.0014,-0.166,0.2912,0.0852
17:49:26:271,-0.159,3.29,7.649,47.7487,0.0162,-0.0128,0.221,0.097
17:49:26:290,-0.209,3.2801,7.7741,47.7659,0.0705,-0.0117,0.2093,0.1052
17:49:26:310,-0.1661,3.096,8.049,47.6939,0.0982,-0.0447,0.1976,0.1114
17:49:26:331,-0.1811,3.077,8.528,47.4294,0.0705,-0.1192,0.1284,0.1157
17:49:26:356,-0.224,3.246,9.021,46.9627,0.0566,-0.1777,0.0187,0.1181
17:49:26:368,-0.284,3.639,9.8111,46.4977,0.093,-0.1777,-0.127,0.1198
17:49:26:389,-0.444,4.221,10.5821,46.0482,0.1918,-0.2192,-0.2813,0.1216
17:49:26:413,-0.602,4.403,10.7261,45.6367,0.309,-0.2841,-0.3655,0.1245
17:49:26:428,-0.351,4.1711,10.6631,45.2967,0.3217,-0.2043,-0.4899,0.1281
17:49:26:447,-0.5089,4.3001,10.556,45.1577,0.078,-0.0788,-0.6879,0.1311
17:49:26:468,-1.17,3.8351,10.692,44.9612,-0.4137,-0.0788,-0.7793,0.1318
17:49:26:491,-1.3751,2.655,11.6951,44.6186,-0.8893,-0.1053,-0.705,0.1258
17:49:26:509,-0.911,1.14,13.367,44.29,-1.0256,-0.1554,-0.5175,0.1103
17:49:26:529,-0.0011,-0.303,14.303,43.7978,-0.7212,-0.397,-0.4102,0.09
17:49:26:550,0.6611,-0.155,12.873,43.3589,-0.1508,-0.8332,-0.4676,0.0713
17:49:26:570,0.8171,0.548,10.0961,43.1627,0.4814,-0.961,-0.5379,0.063
17:49:26:589,0.582,1.3121,6.9521,42.8534,0.9283,-0.6428,-0.5314,0.0664
17:49:26:609,0.3,1.721,4.953,42.5432,0.8261,-0.1745,-0.5081,0.0787
17:49:26:631,0.242,1.511,5.0471,42.355,0.2728,0.0191,-0.5911,0.0947
17:49:26:649,-0.044,1.314,6.3851,42.0524,-0.3774,-0.0234,-0.8698,0.1033
17:49:26:668,-1.0931,1.554,7.544,41.7434,-0.8298,-0.0692,-1.1976,0.0992
17:49:26:689,-2.1941,1.9391,8.37,41.3836,-0.9383,0.0139,-1.3871,0.0861
17:49:26:712,-2.97,2.49,8.559,41.009,-0.7287,0.1958,-1.3552,0.0689
17:49:26:729,-2.9801,2.832,8.423,40.3425,-0.4466,0.3426,-1.1359,0.053
17:49:26:749,-2.369,3.029,8.561,38.7017,-0.2679,0.3725,-0.872,0.0416
17:49:26:770,-2.003,3.213,8.4011,38.0297,-0.2274,0.3363,-0.5868,0.0363
17:49:26:792,-1.1621,3.3401,8.76,37.3772,-0.2104,0.2373,-0.3772,0.0357
17:49:26:814,-0.6041,3.1631,9.143,36.9966,-0.0869,-0.0575,-0.325,0.0398
17:49:26:836,-0.36,2.9861,9.5771,36.8137,0.0535,-0.2214,-0.3069,0.0477
17:49:26:848,-0.236,2.816,10.7021,36.5793,0.2643,-0.2788,-0.3345,0.0563
17:49:26:868,-0.782,3.335,11.5451,36.2357,0.5793,-0.2437,-0.4324,0.0639
17:49:26:894,-2.154,4.434,11.5091,36.1075,0.8559,-0.183,-0.4239,0.0714
17:49:26:909,-2.6111,4.6061,10.482,35.8297,0.8346,0.1118,-0.3015,0.0798
17:49:26:927,-2.1371,4.353,10.8191,35.4967,0.5452,0.3873,-0.309,0.0864
17:49:26:947,-2.934,4.262,11.528,35.3701,0.2951,0.3076,-0.3548,0.0893
17:49:26:967,-3.882,3.3851,11.583,35.0353,0.1195,0.2043,-0.1536,0.0868
17:49:26:987,-3.5921,1.9901,11.873,34.6986,0.0375,0.3501,0.1231,0.0778
17:49:27:009,-3.2861,1.295,11.753,34.4766,0.0429,0.4852,0.32,0.0627
17:49:27:027,-3.458,0.8951,11.24,34.2403,0.1291,0.4353,0.5605,0.0458
17:49:27:047,-3.26,0.378,10.2041,34.077,0.3568,0.2575,0.8382,0.0295
17:49:27:070,-2.819,0.297,8.832,33.9905,0.5995,0.1607,1.0681,0.0148
17:49:27:090,-2.058,0.7541,7.886,34.0347,0.7059,0.1618,1.1947,0.0037
17:49:27:109,-1.701,1.8101,7.788,33.8898,0.5803,0.1937,1.1384,-0.0006
17:49:27:133,-2.264,3.1751,7.6991,33.8037,0.2078,0.2746,0.9776,0.0039
17:49:27:150,-2.898,3.74,8.114,33.5831,-0.3125,0.3745,0.8148,0.0124
17:49:27:171,-3.327,4.1111,9.237,33.3898,-0.617,0.1904,0.8117,0.0165
17:49:27:189,-2.1701,3.8021,9.471,33.2423,-0.5169,-0.1735,0.9446,0.0163
17:49:27:211,-0.176,2.916,8.423,33.2044,-0.1785,-0.4246,0.9233,0.0203
17:49:27:229,0.6971,2.6141,7.022,33.2859,0.1376,-0.4502,0.835,0.0333
17:49:27:249,0.848,2.787,6.4931,33.2098,0.3409,-0.3458,0.8117,0.0537
17:49:27:268,0.537,3.258,6.7271,33.049,0.4675,-0.3182,0.8276,0.0769
17:49:27:287,0.0821,3.642,7.185,32.7721,0.6038,-0.364,0.8041,0.0983
17:49:27:308,0.015,3.795,7.5851,32.5103,0.7208,-0.2788,0.7212,0.1155
17:49:27:331,0.402,3.603,8.1641,32.4006,0.7208,-0.2798,0.5625,0.1292
17:49:27:350,0.8171,3.4691,8.535,32.9524,0.5483,-0.4502,0.3902,0.1402
17:49:27:372,1.523,3.4001,8.834,32.9918,0.3505,-0.4874,0.1603,0.1497
17:49:27:390,1.4561,3.788,9.498,33.0301,0.3355,-0.3438,-0.1717,0.1595
17:49:27:406,0.728,4.683,9.842,33.0175,0.4834,-0.2043,-0.4804,0.1668
17:49:27:427,0.194,5.4041,10.1921,32.8862,0.5941,-0.0373,-0.6315,0.1721
17:49:27:452,0.194,5.4131,10.431,32.6552,0.5228,0.05,-0.7815,0.1755
17:49:27:468,-0.2981,5.0951,10.17,32.168,0.2111,-0.0712,-0.9922,0.177
17:49:27:490,-0.894,4.616,10.0601,31.5807,-0.2615,-0.2064,-1.0274,0.1747
17:49:27:509,-1.2371,3.5771,11.252,30.9795,-0.6511,-0.0436,-0.8581,0.1669
17:49:27:529,-1.3541,1.9421,13.151,30.38,-0.7829,0.3204,-0.6325,0.1505
17:49:27:549,-0.803,1.5011,13.958,30.022,-0.5903,0.2661,-0.4452,0.125
17:49:27:569,0.5321,2.0419,11.7,29.8414,-0.0976,-0.1767,-0.3772,0.1009
17:49:27:589,1.0421,2.76,8.2811,29.9062,0.4356,-0.3927,-0.3633,0.0928
17:49:27:608,0.563,3.773,5.997,29.8232,0.7197,-0.2735,-0.3037,0.1025
17:49:27:630,-0.911,4.187,5.5061,29.5364,0.6431,-0.0532,-0.2133,0.1239
17:49:27:651,-0.789,2.7581,6.861,29.407,-0.1689,-0.2129,-0.5581,0.1379
17:49:27:672,-1.126,2.37,6.744,29.1429,-0.6233,-0.3235,-0.8709,0.1318
17:49:27:688,-1.553,2.4131,6.969,28.9021,-0.7777,-0.2129,-0.9306,0.1196
17:49:27:708,-1.902,2.9501,6.852,28.7213,-0.6819,0.0777,-0.7773,0.104
17:49:27:726,-1.6001,3.869,7.17,28.4695,-0.5222,0.3299,-0.4899,0.0901
17:49:27:747,-1.517,4.106,7.3121,28.1916,-0.3956,0.547,-0.2676,0.0837
