Time,Acc_X,Acc_Y,Acc_Z,Meg,Gyr_X,Gyr_Y,Gyr_Z,Ore
11:21:24:604,0.9546,2.7426,8.5357,43.5145,-0.0096,-0.5323,-0.0224,-55.8561
11:21:24:620,0.7255,2.8624,8.4372,43.3385,0.0724,-0.3151,-0.016,-55.8561
11:21:24:640,0.584,2.924,8.4284,43.4102,0.0713,-0.1395,0.0767,-55.8561
11:21:24:660,0.7161,2.9401,8.5464,43.4019,0.016,0.0202,0.164,-55.7397
11:21:24:680,0.8747,2.8167,8.7155,43.0608,-0.0543,0.1384,0.1586,-55.7397
11:21:24:700,0.8963,2.762,8.9149,43.0021,-0.0916,0.1927,0.0852,-55.7397
11:21:24:720,0.8119,2.8344,9.2364,43.1457,-0.1171,0.0649,-0.0202,-55.7397
11:21:24:740,0.3892,2.8682,9.5815,43.0811,-0.1831,-0.1459,-0.1118,-55.7397
11:21:24:760,0.0916,2.7183,9.9238,43.1084,-0.1757,-0.346,-0.0575,-55.5986
11:21:24:780,0.3249,2.5148,9.8613,43.1153,-0.0809,-0.5973,0.0181,-55.4211
11:21:24:801,0.7779,2.5977,9.7206,43.0413,0.0096,-0.5366,-0.0032,-55.3091
11:21:24:822,0.9299,2.7413,9.5481,43.1003,0.1107,-0.4024,-0.0596,-55.3091
11:21:24:840,1.0227,2.8582,9.4479,43.3018,0.2076,-0.2491,-0.0958,-55.3091
11:21:24:861,1.0488,2.9252,9.3289,43.4254,0.2789,-0.0437,-0.1459,-55.3091
11:21:24:881,1.1086,3.1347,9.5211,43.7442,0.2938,0.1469,-0.2364,-55.2087
11:21:24:901,1.0953,3.2685,9.9055,43.9069,0.2704,0.1522,-0.3492,-55.1006
11:21:24:921,1.1447,3.2944,10.1256,43.8959,0.2545,-0.0224,-0.4567,-54.971
11:21:24:941,0.993,3.281,9.9948,43.7972,0.2726,-0.2012,-0.5227,-54.8284
11:21:24:961,1.0515,3.3998,9.776,43.9606,0.2757,-0.2172,-0.4663,-54.6468
11:21:24:981,1.2787,3.306,9.6986,43.8998,0.297,0.0106,-0.3577,-54.4446
11:21:25:001,1.3202,2.8766,9.7206,43.9994,0.3567,0.28,-0.2694,-54.3027
11:21:25:020,1.243,2.5497,9.7774,44.0047,0.3205,0.5121,-0.231,-54.3027
11:21:25:041,1.0416,2.2957,10.0011,43.9187,0.1693,0.6292,-0.2715,-54.3027
11:21:25:061,0.9031,2.203,10.1807,44.1759,0.0415,0.4961,-0.3577,-54.3027
11:21:25:081,0.5801,2.2891,10.1161,44.116,-0.0032,0.2726,-0.3854,-54.1946
11:21:25:100,0.2236,2.1666,9.7083,44.0926,-0.0298,0.2097,-0.2576,-54.0457
11:21:25:121,0.1027,1.9662,9.4433,44.1955,-0.0958,0.313,-0.0181,-53.8543
11:21:25:140,0.3741,1.708,9.2972,44.5268,-0.1097,0.3684,0.1544,-53.6708
11:21:25:161,0.6297,1.6895,9.1694,44.5838,-0.0415,0.2981,0.2151,-53.6708
11:21:25:181,0.6419,1.7295,8.6332,44.5115,0.0075,0.1033,0.1852,-53.6708
11:21:25:201,0.5042,1.731,7.8387,44.6205,-0.0809,0.0351,0.1565,-53.6708
11:21:25:220,0.5532,1.7966,7.5927,44.7201,-0.2811,0.2065,0.1416,-53.6708
11:21:25:241,0.7335,1.9984,8.0938,44.5737,-0.3854,0.2906,0.0735,-53.6708
11:21:25:262,0.8289,2.2517,8.3011,44.7666,-0.2938,0.0713,-0.0287,-53.6708
11:21:25:280,1.0471,2.5941,7.882,44.9282,-0.1512,-0.1512,-0.1554,-53.6708
11:21:25:301,0.8693,2.7098,7.3192,45.0169,-0.0873,0.0426,-0.2097,-53.5618
11:21:25:321,0.4758,2.9575,7.6626,45.1159,-0.0468,0.4844,-0.0692,-53.4094
11:21:25:341,0.3393,2.824,8.3651,45.3343,0.0468,0.7527,0.2417,-53.1993
11:21:25:361,0.8033,2.5466,8.8668,45.42,0.2183,0.84,0.4301,-53.0303
11:21:25:381,1.1693,2.357,8.9004,45.3953,0.3513,0.7953,0.3641,-53.0303
11:21:25:402,1.2104,2.4802,8.8259,45.2298,0.3471,0.6484,0.1331,-53.134
11:21:25:424,1.1473,2.9245,8.8439,45.578,0.2353,0.5089,-0.1363,-53.134
11:21:25:441,0.8981,3.3045,9.0428,45.8736,0.0884,0.6026,-0.3215,-53.134
11:21:25:463,0.3875,3.5474,9.5508,46.326,0.0607,0.856,-0.3939,-53.134
11:21:25:482,-1.2799,4.1257,11.0768,46.3929,-0.0287,0.5462,-0.3822,-53.134
11:21:25:501,-2.3197,5.0277,10.2653,46.281,-0.5866,0.1384,-0.2598,-52.7707
11:21:25:521,-1.7731,3.8175,11.2725,46.143,-0.4269,0.2949,0.0926,-52.1506
11:21:25:541,-0.6473,3.2023,11.3764,45.9914,-0.2257,0.2566,0.1586,-51.783
11:21:25:561,-1.287,3.2777,10.991,45.9204,-0.1405,0.264,0.0479,-51.639
11:21:25:582,-2.8051,3.2362,10.6152,46.1493,-0.1533,0.3726,0.2023,-51.4116
11:21:25:602,-3.1856,2.4319,10.486,46.3365,-0.2321,0.478,0.3982,-50.9715
11:21:25:621,-3.1218,1.1155,10.6685,46.5654,-0.4216,0.5227,0.4408,-50.6099
11:21:25:641,-3.198,0.4595,11.2105,46.9142,-0.4472,0.2885,0.3279,-50.4753
11:21:25:662,-3.1337,0.0746,11.0516,47.3604,-0.0149,0.0277,0.2779,-50.4753
11:21:25:681,-2.5569,-0.4064,10.2523,47.5561,0.5813,-0.1469,0.2555,-50.4753
11:21:25:701,-2.4017,-0.3005,9.001,47.6145,0.791,-0.2119,0.1789,-50.666
11:21:25:721,-2.1104,0.3708,8.0028,47.9724,0.4663,0.1192,0.2129,-50.8196
11:21:25:744,-1.7144,1.0721,7.8029,48.0713,-0.0458,0.6792,0.3119,-50.8196
11:21:25:762,-1.2661,1.1661,7.775,47.952,-0.4003,0.8113,0.3492,-50.8196
11:21:25:783,-0.9681,1.8386,7.5334,48.1309,-0.5142,0.8006,0.2917,-50.8196
11:21:25:801,-0.8988,2.4727,7.2282,48.1558,-0.5004,0.8315,0.1629,-50.8196
11:21:25:822,1.6221,2.4078,8.3203,48.1568,-0.3183,0.8592,-0.0138,-50.8196
11:21:25:841,-0.8199,2.3021,8.2908,47.9826,-0.0319,1.0923,0.0458,-51.2011
11:21:25:861,-3.2526,2.7063,6.9806,48.4324,0.116,1.4309,0.3045,-51.2011
11:21:25:881,-3.8226,2.2375,6.4262,48.5211,-0.0362,1.0338,0.6239,-50.6948
11:21:25:902,-4.209,2.0119,7.0405,48.8159,-0.2555,0.1501,0.8304,-50.1014
11:21:25:922,-3.6478,2.3721,8.823,49.2098,-0.2885,-0.856,0.8283,-49.6044
11:21:25:942,-2.3147,2.4891,10.4447,49.2921,-0.0011,-1.5065,0.6707,-49.4099
11:21:25:961,-1.1852,2.5287,11.0944,49.7725,0.1725,-1.4735,0.3886,-49.529
11:21:25:981,-1.1982,2.6309,10.6371,50.0152,0.4621,-1.4405,0.1916,-49.8002
11:21:26:004,-1.4147,2.7533,10.0357,50.4608,0.5611,-1.4011,-0.0096,-50.0179
11:21:26:022,-1.1395,2.8771,9.9511,50.7031,0.5472,-1.2627,-0.1735,-50.1201
11:21:26:042,-0.9883,3.3913,10.4527,50.7697,0.3652,-0.6952,-0.2768,-50.2307
11:21:26:063,-0.6892,3.7331,10.9028,50.8717,0.2087,-0.0106,-0.1682,-50.2307
11:21:26:083,-0.3178,4.0383,10.6324,50.973,0.0181,0.9901,0.0341,-50.3957
11:21:26:102,-1.0251,3.1814,11.0332,51.0002,-0.2545,0.8166,0.0905,-50.6104
11:21:26:122,-1.3631,2.3225,12.0339,51.1165,-0.4663,0.4653,-0.066,-50.8228
11:21:26:141,-1.0142,1.3825,12.6993,51.2044,-0.0852,0.5366,-0.3258,-51.1068
11:21:26:162,-0.4093,0.1706,11.6638,51.3046,0.5632,0.2843,-0.6558,-51.5413
11:21:26:181,-0.5133,-0.0968,10.0539,51.3488,0.9944,-0.5259,-0.9348,-52.1533
11:21:26:202,-0.8053,0.0776,8.6913,51.5565,0.9529,-1.2478,-0.9816,-52.7176
11:21:26:221,-0.2686,0.9471,7.7576,51.9016,0.5515,-1.383,-0.8304,-53.1116
11:21:26:242,0.0107,1.9683,7.1675,52.061,0.0138,-1.0018,-0.5802,-53.3039
11:21:26:263,0.1356,2.262,6.9465,52.0395,-0.411,-0.5078,-0.3056,-53.3039
11:21:26:285,0.2019,1.9868,7.4031,52.2611,-0.5515,0.0649,-0.164,-53.3039
11:21:26:301,0.2552,2.2655,7.5436,52.2149,-0.5387,0.3599,-0.3077,-53.3039
11:21:26:321,-0.1594,2.4292,7.5566,52.2516,-0.3439,0.4716,-0.4589,-53.3039
11:21:26:341,-0.6087,2.2307,7.2459,52.3392,-0.0713,0.3843,-0.5877,-53.0851
11:21:26:362,-1.232,2.317,6.7651,52.4842,0.1416,0.2193,-0.5707,-52.7591
11:21:26:381,-1.6955,2.431,6.6312,52.6128,0.2161,-0.0532,-0.4184,-52.1897
11:21:26:402,-1.9528,2.6285,7.2268,52.51,0.2502,-0.461,-0.1991,-51.427
11:21:26:422,-1.905,2.7672,8.2202,52.828,0.3215,-0.9092,-0.0064,-50.6194
11:21:26:441,-1.5327,2.6513,8.607,53.0344,0.3726,-1.0806,0.2012,-49.9254
11:21:26:462,-0.9951,2.4908,9.1479,53.4043,0.1874,-0.9965,0.4876,-49.3653
11:21:26:483,-0.915,3.1701,9.2127,53.7444,-0.5004,-0.7293,0.9209,-49.0108
11:21:26:502,-0.1758,3.2168,10.51,54.0078,-0.7729,0.3226,1.1317,-48.6135
11:21:26:521,-0.1198,3.7024,11.7513,54.6369,-0.5632,1.318,0.9443,-48.5089
11:21:26:542,-0.7811,3.9107,12.8596,54.9803,-0.1959,1.186,0.8315,-48.5089
11:21:26:561,-1.1365,3.6532,13.6505,55.1082,0.3098,0.4929,0.9284,-48.5089
11:21:26:581,-1.0883,3.6255,13.7687,55.5824,0.9231,-0.1491,1.0093,-48.5089
11:21:26:618,-0.8251,3.4731,12.9065,55.7306,1.2243,-0.5749,0.8634,-48.5089
11:21:26:620,-0.7885,3.1152,11.9765,55.8471,1.1583,-0.7037,0.5813,-48.6581
11:21:26:641,-0.8454,2.2146,11.3219,56.3529,0.9305,-0.6132,0.2832,-48.8491
11:21:26:661,-1.14,1.5354,10.6879,56.447,0.7325,-0.2502,0.1629,-49.1469
11:21:26:681,-1.337,1.3431,9.8118,56.7093,0.6303,0.1884,0.2183,-49.5392
11:21:26:701,-1.157,1.8084,8.637,57.3543,0.4748,0.3939,0.2992,-49.9084
11:21:26:721,-0.7028,2.4844,7.6575,57.5823,0.1746,0.2853,0.2193,-50.1277
11:21:26:741,-0.2424,2.8094,6.9712,57.8772,-0.2225,0.1565,-0.0681,-50.1277
11:21:26:761,-0.1418,2.6001,6.5912,57.9263,-0.6303,0.1927,-0.3939,-50.1277
11:21:26:781,-0.3262,1.8324,6.4545,57.9986,-0.922,0.412,-0.5919,-50.1277
11:21:26:802,-0.7319,1.0191,6.4209,57.9599,-1.0583,0.691,-0.5685,-50.2844
11:21:26:822,-1.0611,0.7894,6.3306,58.0367,-1.0742,0.9529,-0.3471,-50.4987
11:21:26:841,-1.1595,0.9706,6.3619,58.5936,-0.9593,1.0945,-0.0554,-50.6518
11:21:26:863,-1.219,1.4187,6.3717,58.9908,-0.6548,1.0604,0.1714,-50.6518
11:21:26:881,-1.1623,1.9426,6.2765,59.0954,-0.3066,0.6218,0.3087,-50.6518
11:21:26:903,-1.0971,2.6885,6.3688,59.5537,-0.0756,-0.1203,0.2747,-50.4591
11:21:26:921,-0.5205,3.1241,6.8237,59.3853,-0.0532,-0.9593,0.0596,-50.1388
11:21:26:941,0.0065,3.2667,7.872,59.253,-0.2225,-1.4309,-0.2545,-49.9456
11:21:26:962,-0.0733,3.2606,9.2596,59.9991,-0.411,-1.0104,-0.5206,-49.9456
11:21:26:981,-0.5697,2.8993,10.4645,60.0066,-0.5249,-0.1938,-0.6835,-49.9456
11:21:27:001,-1.3746,2.3834,11.3541,60.1059,-0.6271,0.2757,-0.7261,-49.8001
11:21:27:022,-2.0367,1.9545,12.2577,60.6213,-0.7133,0.3013,-0.5536,-49.5817
11:21:27:041,-2.408,2.2174,13.2799,60.8978,-0.5611,0.1852,-0.2332,-49.3377
11:21:27:062,-2.408,2.8142,14.0285,61.1563,-0.1427,-0.0681,0.0969,-49.0308
11:21:27:081,-1.875,3.2251,14.1372,61.5251,0.3929,-0.3907,0.3481,-48.7129
11:21:27:101,-1.162,3.4599,13.5493,61.7864,0.7719,-0.6611,0.4003,-48.4481
11:21:27:121,-0.4098,3.0919,12.6163,61.9106,0.8038,-0.7495,0.2662,-48.2774
11:21:27:141,0.058,2.2019,11.7927,62.17,0.6186,-0.5227,0.017,-48.2774
11:21:27:162,0.0262,1.0862,11.0416,62.2492,0.4983,-0.0948,-0.2417,-48.5
11:21:27:182,-0.4518,0.3977,9.9443,62.5514,0.5323,0.3268,-0.4024,-48.9278
11:21:27:200,-1.0081,0.3357,8.6542,63.2713,0.4642,0.4152,-0.4493,-49.4088
11:21:27:221,-1.331,0.6426,7.6832,64.015,0.1459,0.2023,-0.3822,-49.6996
11:21:27:241,-1.1215,0.8222,7.2898,64.6455,-0.3716,-0.1203,-0.2683,-49.6996
11:21:27:262,-0.7131,0.9369,7.4379,65.4469,-0.8581,-0.2193,-0.1725,-49.4888
11:21:27:282,-0.3369,0.8768,7.8318,65.6917,-1.0764,0.0437,-0.1054,-49.3239
11:21:27:302,-0.2267,0.8941,8.0605,65.83,-0.9262,0.4354,-0.0862,-49.3239
11:21:27:321,-0.3478,0.9901,7.8292,65.6815,-0.5557,0.5227,-0.0564,-49.3239
11:21:27:342,-0.5863,1.2847,7.3442,65.9993,-0.1895,0.2523,0.0075,-49.3239
11:21:27:362,-0.8686,1.5518,6.9933,65.9927,0.1256,-0.1054,0.1278,-49.1003
11:21:27:381,-0.7327,1.7249,6.8328,65.8566,0.3524,-0.4056,0.2992,-48.7146
11:21:27:401,-0.2589,1.9776,6.7329,66.1748,0.4322,-0.5153,0.4376,-48.3708
11:21:27:421,0.1553,2.5092,6.9513,66.2577,0.3449,-0.5004,0.4919,-48.1634
11:21:27:441,0.4924,2.9554,7.7644,65.9052,0.1459,-0.4578,0.428,-48.0288
11:21:27:462,0.6222,3.1254,8.7471,66.2177,-0.0224,-0.4291,0.2278,-48.0288
11:21:27:481,0.3941,3.0588,9.6576,66.4894,-0.0873,-0.3119,0.0671,-48.0288
11:21:27:502,-0.0081,2.9721,10.44,67.0528,-0.0628,-0.1075,0.0351,-48.0288
11:21:27:522,-0.3724,3.0668,11.0694,67.6347,0.0106,0.116,0.1011,-48.0288
11:21:27:541,-0.5498,3.2946,11.5442,68.2555,0.0809,0.1416,0.1608,-47.8865
11:21:27:561,-0.653,3.4109,11.8621,68.709,0.0415,-0.066,0.2193,-47.7267
11:21:27:582,-0.7552,3.5425,12.462,68.9861,-0.0383,-0.1831,0.4067,-47.5621
11:21:27:601,-0.5459,3.7744,13.0245,69.4341,0.0138,-0.1363,0.6622,-47.3813
11:21:27:621,-0.05,3.3038,12.9855,69.4858,0.1735,-0.2193,0.6931,-47.3813
11:21:27:641,0.2388,2.8605,12.6676,69.86,0.3492,-0.2811,0.4482,-47.53
11:21:27:661,0.0382,1.7179,11.6328,69.9658,0.6164,-0.0852,0.0713,-47.8372
11:21:27:682,-0.8297,1.0431,10.0512,70.1106,0.8421,0.1139,-0.2449,-48.3809
11:21:27:702,-1.6045,0.7891,8.4408,70.4054,0.8538,0.1437,-0.3481,-48.9142
11:21:27:722,-1.897,0.7531,7.421,70.459,0.5526,-0.0926,-0.2917,-49.1613
11:21:27:742,-1.5859,0.9622,7.1023,70.6127,-0.0021,-0.4067,-0.1959,-49.1613
11:21:27:761,-1.0075,0.943,7.3849,70.582,-0.6686,-0.5983,-0.1938,-48.9436
11:21:27:781,-0.3304,0.6743,7.9973,70.909,-1.251,-0.4269,-0.2545,-48.9436
11:21:27:801,-0.0474,0.298,8.6286,71.1985,-1.5225,0.1054,-0.3716,-49.336
11:21:27:822,-0.3523,0.1493,8.7782,71.7116,-1.3564,0.8177,-0.4237,-49.8962
11:21:27:843,-0.899,0.273,8.3949,72.3203,-0.9039,1.2361,-0.2694,-50.3562
11:21:27:860,-1.3459,0.723,7.8357,72.2065,-0.4141,1.1626,0.0671,-50.5749
11:21:27:881,-1.3802,1.213,7.4808,72.0447,0.0117,0.708,0.3822,-50.4353
11:21:27:900,-1.2971,1.6459,7.306,71.9493,0.3843,0.263,0.5291,-50.1291
11:21:27:921,-1.0411,2.1467,7.1783,71.7801,0.5962,-0.1054,0.5089,-49.7349
11:21:27:941,-0.6599,2.703,7.2266,71.7775,0.4951,-0.3492,0.3588,-49.347
11:21:27:961,-0.5071,3.1838,7.9542,72.0167,0.1065,-0.4535,0.1501,-48.9947
11:21:27:981,-0.5787,2.9075,9.3035,72.2405,-0.2523,-0.3183,0.0287,-48.6852
11:21:28:001,-0.4758,2.3668,10.6743,72.4734,-0.3375,-0.0319,-0.0703,-48.5773
11:21:28:021,-0.3209,2.2377,11.7292,72.998,-0.2928,0.0341,-0.2438,-48.7539
11:21:28:041,-0.3357,2.2937,12.504,73.1284,-0.2704,0.0181,-0.4642,-49.0518
11:21:28:062,-0.7317,2.3214,13.1306,73.527,-0.2183,0.148,-0.6047,-49.3392
11:21:28:082,-1.3176,2.6408,13.5571,73.605,-0.0756,0.4131,-0.5355,-49.5287
11:21:28:101,-1.5108,2.7451,13.6072,73.7487,0.1075,0.527,-0.3407,-49.5287
11:21:28:121,-1.0993,2.3992,13.4856,73.6141,0.2619,0.3694,-0.2002,-49.5287
11:21:28:141,-0.7064,1.813,13.285,73.4828,0.4695,0.1363,-0.1565,-49.7853
11:21:28:161,-0.4308,0.8276,12.5166,73.3249,0.7974,-0.0394,-0.1554,-50.3303
11:21:28:181,-0.4272,0.0797,11.1817,72.9754,1.1083,-0.1863,-0.1831,-51.269
11:21:28:201,-0.6404,-0.0258,9.6006,72.9609,1.1647,-0.4173,-0.1874,-52.554
11:21:28:221,-0.5485,0.2168,8.4308,73.0435,0.7719,-0.6963,-0.1746,-53.8798
11:21:28:241,-0.1029,0.4708,7.8232,72.8168,0.0926,-0.6952,-0.131,-54.996
11:21:28:261,0.3718,0.6592,7.6032,72.7144,-0.5195,-0.2662,-0.1086,-55.9114
11:21:28:282,0.3631,0.9594,7.5032,72.6049,-0.84,0.3151,-0.1693,-56.6973
11:21:28:302,0.0016,1.1821,7.2621,72.4052,-0.8198,0.6494,-0.2502,-57.2385
11:21:28:322,-0.3385,1.2866,6.778,72.5012,-0.5834,0.5707,-0.2821,-57.5009
11:21:28:341,-0.5877,1.3445,6.2908,72.134,-0.3183,0.1171,-0.2395,-57.5009
11:21:28:363,-0.6413,1.4426,6.0453,71.9448,-0.0916,-0.4344,-0.0884,-57.2918
11:21:28:380,-0.3171,1.588,6.1078,71.7495,0.1352,-0.741,0.1214,-56.951
11:21:28:400,0.1362,1.7424,6.0614,71.661,0.3386,-0.7048,0.198,-56.7191
11:21:28:423,0.3349,2.2311,6.2031,71.7879,0.3833,-0.5195,0.1405,-56.7191
11:21:28:442,0.5061,2.6771,6.5305,71.8834,0.2598,-0.3801,0.0564,-56.5264
11:21:28:462,0.2939,3.0163,7.2273,72.1398,0.0671,-0.3205,-0.0192,-56.2747
11:21:28:482,0.1435,2.9797,8.6181,72.4219,-0.115,-0.2087,-0.0085,-55.877
11:21:28:501,0.0352,2.676,10.2328,72.5013,-0.1405,0.2374,0.0351,-55.6067
11:21:28:521,-0.5918,3.3974,11.4787,72.3826,-0.0617,0.7229,0.1001,-55.6067
11:21:28:541,-1.1066,3.9246,12.1995,72.515,0.0479,0.7868,0.1267,-55.3768
11:21:28:561,-1.2854,3.8315,12.6008,72.51,0.0788,0.4599,0.148,-54.9675
11:21:28:581,-1.5776,3.8426,13.1571,72.2651,0.0479,0.2257,0.3215,-54.6344
11:21:28:601,-1.5931,3.8583,13.6757,72.0686,0.116,0.1895,0.6239,-54.3576
11:21:28:629,-0.7714,3.4673,13.8654,71.8426,0.2811,0.0298,0.7516,-54.2347
11:21:28:640,-0.1345,3.0159,13.6628,71.4985,0.4557,-0.2321,0.478,-54.5677
11:21:28:661,-0.2916,2.0225,12.9344,71.4255,0.5994,-0.3205,0.0873,-55.237
11:21:28:681,-1.0227,1.366,11.7616,71.0404,0.708,-0.2161,-0.1852,-56.2612
11:21:28:702,-1.5859,0.9353,10.3811,70.809,0.6516,-0.1501,-0.2885,-57.4822
11:21:28:721,-1.6795,0.8803,9.2393,70.5071,0.4088,-0.2268,-0.2332,-58.8275
11:21:28:741,-1.3314,1.067,8.5562,70.403,0.0522,-0.3407,-0.1522,-60.0678
11:21:28:761,-0.6887,1.1944,8.1695,70.3549,-0.3226,-0.3769,-0.1863,-61.0021
11:21:28:781,-0.1667,1.1671,7.952,69.9406,-0.6516,-0.3141,-0.3386,-61.7986
11:21:28:801,0.0078,0.9321,7.7252,69.6981,-0.8283,-0.0256,-0.4897,-62.582
11:21:28:821,-0.1809,0.6936,7.3577,69.0977,-0.7719,0.4397,-0.5259,-63.4915
11:21:28:841,-0.6419,0.7734,6.8218,68.8278,-0.5153,0.8219,-0.3769,-64.4424
11:21:28:861,-1.0743,1.0629,6.3733,68.4992,-0.2097,0.7889,-0.1107,-65.0672
11:21:28:880,-1.3375,1.5474,6.2184,68.3881,0.1203,0.3822,0.165,-65.0672
11:21:28:901,-1.29,2.0233,6.1247,68.3266,0.445,-0.164,0.329,-64.3801
11:21:28:921,-0.9877,2.2826,6.1455,67.9988,0.5898,-0.6409,0.3556,-63.3236
11:21:28:941,-0.5473,2.5014,6.3801,67.7081,0.4429,-0.8698,0.2651,-62.3929
11:21:28:961,-0.2922,2.6877,7.0423,67.5182,0.066,-0.758,0.1331,-61.7604
11:21:28:984,0.0968,2.701,8.2662,67.3695,-0.3162,-0.4216,-0.0234,-61.324
11:21:29:001,0.2595,2.4417,9.3686,66.9088,-0.4823,-0.0405,-0.2821,-61.324
11:21:29:021,-0.0104,1.9949,10.3457,66.7526,-0.4748,0.1682,-0.5025,-61.6317
11:21:29:041,-0.6106,1.7703,10.928,66.48,-0.4365,0.2332,-0.5866,-62.1519
11:21:29:062,-1.4151,2.1769,11.4383,66.4243,-0.4791,0.1693,-0.5259,-62.6532
11:21:29:081,-2.003,2.8921,12.1311,66.1232,-0.5877,0.1767,-0.313,-62.6532
11:21:29:101,-1.7002,3.0533,13.0106,66.0622,-0.6335,0.2204,-0.1033,-61.994
11:21:29:121,-0.6298,2.161,13.8084,65.7701,-0.659,0.1714,-0.0756,-61.502
11:21:29:141,0.0484,1.3975,14.704,65.6128,-0.543,0.1778,-0.1852,-61.7937
11:21:29:161,0.1155,0.456,14.8164,65.2709,-0.0479,0.2789,-0.3407,-62.5095
11:21:29:182,-0.2418,-0.3759,13.5427,64.9205,0.4642,0.132,-0.4525,-63.6107
11:21:29:201,-0.5878,-0.5503,11.9403,64.7242,0.5451,-0.1501,-0.3843,-65.0928
11:21:29:221,-0.5106,-0.3581,10.7886,64.4778,0.3013,-0.1703,-0.116,-66.7305
11:21:29:241,-0.1259,0.3029,10.1321,63.9718,0.0916,0.1842,0.2087,-68.2069
11:21:29:261,0.3208,0.9212,9.2734,63.685,0.1139,0.5249,0.3226,-69.229
11:21:29:282,0.4399,1.3731,8.0545,63.5371,0.2875,0.6324,0.2129,-69.8903
11:21:29:302,0.304,1.6397,6.6724,63.0603,0.4663,0.4983,0.0341,-70.2932
11:21:29:322,0.0525,1.8239,5.4193,62.6806,0.5621,0.1831,-0.1448,-70.2932
11:21:29:342,-0.3516,2.156,4.5615,62.3414,0.576,-0.1299,-0.2651,-69.9799
11:21:29:365,-0.6956,2.4369,4.0694,62.0137,0.51,-0.3567,-0.2321,-68.8921
11:21:29:381,-0.8328,2.7071,4.1563,61.7421,0.3875,-0.5089,-0.099,-67.1102
11:21:29:401,-0.6644,2.8999,4.7108,61.4088,0.23,-0.5696,0.05,-65.1348
11:21:29:421,-0.3695,3.1382,5.6747,61.4707,0.1203,-0.642,0.0554,-63.557
11:21:29:442,-0.279,3.3926,6.7628,61.1482,0.0287,-0.7548,-0.0713,-62.5062
11:21:29:462,-0.87,3.215,8.0515,61.0547,-0.115,-0.4844,0.0426,-61.7038
11:21:29:481,-1.1621,3.0021,9.7066,60.6358,-0.3013,0.0767,0.4259,-60.9745
11:21:29:501,-0.6552,3.1585,11.4542,60.4572,-0.4152,0.3524,0.544,-60.6929
11:21:29:522,-0.3773,3.3943,12.7887,60.2906,-0.3226,0.3716,0.3769,-60.9318
11:21:29:542,-0.6053,3.163,13.3473,59.7755,-0.0596,0.3141,0.2012,-61.33
11:21:29:561,-1.2483,3.0815,13.1703,59.7728,0.1661,0.2843,0.1842,-61.9079
11:21:29:581,-1.9287,3.4486,12.9027,59.7208,0.2832,0.3556,0.379,-62.448
11:21:29:601,-1.9585,3.47,12.5314,59.1185,0.4163,0.4014,0.6771,-62.6023
11:21:29:622,-1.3201,3.1078,12.1004,58.7971,0.4972,0.1427,0.7772,-62.7968
11:21:29:641,-0.7132,2.4883,11.6397,58.2291,0.5696,-0.1948,0.5164,-63.403
11:21:29:662,-0.7321,1.3877,10.7353,57.5351,0.5728,-0.3545,0.1022,-64.4437
11:21:29:680,-1.2967,0.8058,9.8137,57.0175,0.3929,-0.3513,-0.2225,-66.1457
11:21:29:701,-1.6516,0.4151,9.1463,56.6703,0.0415,-0.3162,-0.3322,-68.3091
11:21:29:721,-1.4349,0.2122,8.7928,56.642,-0.362,-0.313,-0.3375,-70.7562
11:21:29:741,-0.9584,0.1013,8.5566,56.4295,-0.7421,-0.3205,-0.3801,-72.9744
11:21:29:762,-0.5817,0.0416,8.3716,56.3753,-1.0274,-0.2736,-0.444,-74.7331
11:21:29:781,-0.4831,0.0792,8.1834,56.4541,-1.1658,-0.1522,-0.4855,-76.1038
11:21:29:802,-0.6377,0.2125,7.8794,56.1297,-1.0849,0.0245,-0.4099,-77.1196
11:21:29:821,-0.8606,0.5537,7.5085,56.0815,-0.8059,0.1437,-0.1278,-77.7851
11:21:29:841,-0.7154,0.7827,7.0866,55.5249,-0.4716,0.2012,0.2704,-77.7851
11:21:29:861,-0.3982,0.9569,6.7505,55.1518,-0.1618,0.2821,0.5802,-77.5328
11:21:29:881,-0.3957,1.5108,6.803,54.8783,0.1352,0.3119,0.6707,-77.2261
11:21:29:901,-0.4542,2.1479,6.8278,54.6351,0.3982,0.247,0.5813,-76.5135
11:21:29:922,-0.6137,2.5548,6.9194,54.2104,0.4003,0.0745,0.3875,-75.4243
11:21:29:941,-0.6231,2.8066,7.5604,54.1987,0.1352,-0.0575,0.2757,-74.0762
11:21:29:961,-0.3602,2.4792,8.6735,54.1911,-0.115,0.1054,0.1672,-72.8155
11:21:29:981,-0.4396,2.4331,9.8194,54.2802,-0.2012,0.3258,-0.0032,-72.2003
11:21:30:001,-0.7808,2.5458,10.7559,54.3881,-0.2545,0.2736,-0.1352,-71.8032
11:21:30:022,-0.9296,2.1651,11.7748,54.1207,-0.2619,0.0085,-0.2108,-71.3847
11:21:30:041,-1.1286,1.7809,12.6276,53.8311,-0.0841,-0.0181,-0.2033,-71.3847
11:21:30:061,-1.3976,2.0518,12.9584,53.6508,0.1022,0.0309,-0.0554,-71.5674
11:21:30:081,-1.467,2.855,13.351,53.2593,0.2417,0.0596,0.1906,-71.5674
11:21:30:102,-1.1514,3.5747,13.3049,53.219,0.51,0.1491,0.3726,-71.2288
11:21:30:121,-0.2659,3.0844,12.5084,53.3466,0.6409,-0.0213,0.2662,-70.7207
11:21:30:141,0.1555,2.2599,11.822,53.3008,0.5195,-0.1757,-0.0256,-70.6078
11:21:30:161,-0.0023,1.0121,11.5115,53.1462,0.5206,0,-0.2438,-70.9179
11:21:30:181,-0.4855,0.0245,10.7489,52.8916,0.6409,0.2662,-0.2726,-71.8821
11:21:30:201,-0.8558,-0.0965,9.6903,52.8546,0.5983,0.3641,-0.1501,-73.3741
11:21:30:221,-0.8542,0.2114,8.6754,52.6478,0.23,0.3119,-0.0245,-74.8827
11:21:30:241,-0.4806,0.4388,8.2526,52.2474,-0.4546,0.1192,-0.0043,-76.0002
11:21:30:262,-0.3019,1.0433,8.6551,51.9229,-1.0721,0.1182,-0.0234,-76.6519
11:21:30:282,-0.0857,1.1486,9.1703,51.8294,-1.2861,0.3492,-0.1065,-76.6519
11:21:30:302,-0.2099,1.2549,9.1767,51.7962,-1.1072,0.5621,-0.1852,-76.6519
11:21:30:324,-0.4717,1.394,8.6676,51.8457,-0.6973,0.576,-0.1586,-76.4034
11:21:30:342,-0.6288,1.6269,7.7452,51.9457,-0.2534,0.2821,-0.0745,-75.9313
11:21:30:362,-0.5002,1.7743,6.8458,51.95,0.0735,-0.1618,0.0096,-75.151
11:21:30:382,-0.2981,2.0094,6.351,51.9039,0.2619,-0.428,0.0852,-74.2179
11:21:30:401,-0.042,2.2768,6.1186,51.8298,0.3567,-0.4195,0.0852,-73.2286
11:21:30:423,0.2853,2.3467,6.0717,51.9637,0.3535,-0.3279,-0.0064,-72.2521
11:21:30:441,0.4447,2.616,6.3839,51.6272,0.2065,-0.3471,-0.148,-71.471
11:21:30:461,0.1779,2.9928,7.4985,51.5284,0.0053,-0.4663,-0.2459,-70.7051
11:21:30:481,-0.0014,3.0545,8.7472,51.1949,-0.0437,-0.477,-0.2896,-69.8155
11:21:30:501,-0.0839,2.7396,9.573,50.9974,-0.0106,-0.3992,-0.2864,-68.9848
11:21:30:521,0.0508,2.3726,10.1574,50.9726,-0.0788,-0.297,-0.2789,-68.3771
11:21:30:541,-0.1362,2.3359,11.0505,51.116,-0.1459,-0.049,-0.264,-68.0527
11:21:30:562,-0.5605,2.4241,11.8501,50.9664,-0.0735,0.1256,-0.2087,-67.7796
11:21:30:581,-1.2999,2.7441,12.3284,50.775,-0.0192,0.1789,-0.0979,-67.4592
11:21:30:602,-1.9398,3.0804,12.8663,50.6689,-0.0575,0.1363,0.1459,-66.7945
11:21:30:657,-1.4121,2.9079,13.5484,50.5218,-0.116,-0.2161,0.2608,-65.8184
11:21:30:658,-0.6017,1.8688,14.1704,50.4022,-0.2992,-0.6782,0.0437,-65.2169
11:21:30:660,-0.6726,0.7645,15.191,50.2462,-0.4823,-0.6324,-0.1512,-65.2169
11:21:30:681,-1.1512,-0.1302,15.8603,49.9882,-0.1682,-0.0692,-0.1384,-65.7807
11:21:30:701,-1.5909,-0.6081,14.8227,50.0214,0.5515,0.2417,-0.0596,-66.7796
11:21:30:721,-2.0602,-0.5274,12.3819,49.9365,1.0785,0.033,-0.0607,-68.1714
11:21:30:741,-2.1898,-0.3367,9.9253,49.9409,1.1285,-0.3662,-0.0511,-69.8476
11:21:30:762,-1.8334,-0.2179,8.1864,50.4951,0.8304,-0.626,-0.0309,-71.7166
11:21:30:781,-1.2093,-0.0515,7.0899,50.8412,0.363,-0.643,-0.0383,-73.5066
11:21:30:802,-0.5755,-0.0376,6.4917,50.8442,-0.1661,-0.478,-0.1075,-74.6312
11:21:30:821,-0.2931,0.1713,6.2636,51.433,-0.6015,-0.1884,-0.164,-75.4605
11:21:30:841,-0.3877,0.5617,6.0777,51.3265,-0.7325,0.2172,-0.1246,-75.7032
11:21:30:862,-0.4996,0.8254,5.7115,51.154,-0.6058,0.4802,0.0011,-75.2175
11:21:30:884,-0.4171,0.8884,5.2177,51.2592,-0.3481,0.4386,0.1363,-74.2507
11:21:30:902,-0.31,0.9253,4.7286,51.1321,-0.0948,0.1778,0.2161,-73.1925
11:21:30:922,-0.349,1.2151,4.3856,51.0512,0.0862,-0.1043,0.2406,-72.0545
11:21:30:942,-0.5691,1.6269,4.3475,51.2817,0.1852,-0.2491,0.231,-70.609
11:21:30:963,-0.7727,2.0562,4.718,51.1405,0.1459,-0.3769,0.1927,-68.7054
11:21:30:983,-0.8209,2.3435,5.5276,51.3734,-0.0011,-0.4067,0.2065,-66.5762
11:21:31:002,-0.4687,2.4252,6.6726,51.4084,-0.1522,-0.3716,0.2374,-64.6545
11:21:31:022,0.1987,2.3501,7.9663,51.3783,-0.3013,-0.3386,0.1278,-63.3726
11:21:31:042,0.2044,2.9811,9.4792,51.0581,-0.5557,-0.2459,-0.1033,-62.763
11:21:31:062,0.2909,2.7891,11.2996,50.7103,-0.758,-0.1033,-0.2726,-62.0276
11:21:31:082,0.4975,1.956,12.6892,50.6354,-0.6814,0.1597,-0.3726,-61.5407
11:21:31:102,0.2688,1.7102,13.4872,50.4132,-0.3726,0.4269,-0.4046,-61.5407
11:21:31:121,-0.5633,2.2951,13.9478,50.2239,-0.0394,0.6292,-0.2459,-61.5407
11:21:31:142,-1.4353,2.7739,14.3402,50.1947,0.3151,0.8954,0.164,-61.2487
11:21:31:161,-1.255,3.2435,14.2257,50.0505,0.6473,0.8081,0.6143,-60.7432
11:21:31:182,-0.0961,3.1905,13.7262,49.9652,0.6292,0.2364,0.5387,-60.3068
11:21:31:201,0.7245,2.1957,13.7244,49.8025,0.5451,-0.1661,0.3119,-60.3068
11:21:31:221,1.0057,0.577,13.2893,49.8844,0.8837,-0.0075,0.099,-60.7968
11:21:31:241,0.3662,0.0476,11.4503,50.0517,1.3745,0.1608,-0.083,-61.9659
11:21:31:262,-0.3375,0.6375,9.1536,50.322,1.3936,-0.0064,-0.1416,-63.3833
11:21:31:282,-0.3824,1.1302,7.5086,50.5783,0.7229,-0.4354,-0.2161,-64.3521
11:21:31:303,-0.0127,0.9423,7.2487,50.842,-0.4429,-0.7304,-0.3013,-64.6478
11:21:31:322,0.3438,0.8454,8.1976,50.7485,-1.5086,-0.5025,-0.2949,-64.9888
11:21:31:342,0.5499,1.0428,9.4552,50.7017,-1.9866,0.1714,-0.2811,-65.3416
11:21:31:364,0.62,1.1563,10.0154,50.7121,-1.7311,0.6878,-0.3173,-65.5662
11:21:31:382,0.5412,1.103,9.3442,50.5658,-0.9646,0.7708,-0.4014,-65.7005
11:21:31:403,0.1057,1.1842,8.0641,50.5701,-0.1331,0.3279,-0.4205,-65.7005
11:21:31:422,-0.3402,1.2789,6.7274,50.3756,0.4919,-0.3034,-0.3567,-65.5641
11:21:31:442,-0.6514,1.5383,5.7862,50.2031,0.8145,-0.7378,-0.2576,-65.0434
11:21:31:463,-0.6459,1.6501,5.3475,50.1505,0.8634,-0.84,-0.1001,-64.0174
11:21:31:483,-0.2681,1.5658,5.297,50.0737,0.6686,-0.6643,0.0405,-62.8782
11:21:31:502,0.0126,2.084,5.7012,50.1456,0.1842,-0.4674,0.0681,-62.1402
11:21:31:522,-0.0074,2.5232,6.905,50.5185,-0.494,-0.3481,0.0724,-61.3731
11:21:31:542,-0.4252,2.595,8.8086,50.6017,-1.0018,-0.0862,0.1938,-60.5695
11:21:31:563,-0.8747,2.3146,10.9624,50.525,-1.0412,0.2502,0.3918,-59.8138
11:21:31:582,-0.7657,1.9687,12.8359,50.6153,-0.7123,0.2875,0.5834,-59.2646
11:21:31:601,-0.1671,1.0988,13.6912,50.4348,-0.3556,0.2289,0.7442,-59.1096
11:21:31:621,-0.1821,1.6387,14.6507,50.448,-0.0958,0.1075,0.9305,-59.5544
11:21:31:641,-0.0343,2.2673,14.8297,50.2588,0.3567,-0.0181,1.0934,-59.8851
11:21:31:662,0.5615,2.0408,13.9708,50.1502,0.7421,-0.2864,0.9923,-60.1567
11:21:31:682,0.7578,1.9095,13.1763,50.2716,0.8208,-0.3748,0.6505,-60.6316
11:21:31:702,0.4149,1.0504,12.32,50.3793,0.7846,-0.1725,0.1948,-61.1878
11:21:31:722,-0.4876,0.309,11.1577,50.1757,0.7591,0.2417,-0.1437,-61.9925
11:21:31:742,-1.482,0.3282,9.8142,50.2064,0.5973,0.4461,-0.2726,-63.0463
11:21:31:763,-1.9624,0.5121,8.6633,50.2801,0.1991,0.3386,-0.2321,-63.8998
11:21:31:781,-1.9344,0.423,8.2341,50.0978,-0.3662,0.0681,-0.1746,-64.2771
11:21:31:801,-1.7298,0.1017,8.5489,50.3357,-0.873,-0.3098,-0.0681,-64.6233
11:21:31:821,-1.2799,-0.2137,8.931,50.8439,-1.0647,-0.7005,0.1341,-65.1989
11:21:31:842,-0.752,-0.4005,8.715,51.0249,-0.889,-0.9081,0.3748,-66.0548
11:21:31:864,-0.2065,-0.4554,8.2385,51.2662,-0.543,-0.9582,0.609,-67.063
11:21:31:881,0.3447,-0.1479,7.7235,51.2101,-0.2044,-0.6782,0.8783,-68.1516
11:21:31:901,0.7373,0.4866,7.2833,50.9573,0.082,-0.2715,1.0859,-69.0595
11:21:31:921,1.0331,1.1008,6.8493,50.8706,0.329,0.2172,1.0849,-69.6325
11:21:31:941,1.0089,1.6401,6.4635,50.3766,0.4908,0.6037,0.9145,-69.9768
11:21:31:962,0.6542,2.4046,6.7331,50.0221,0.444,0.5153,0.642,-70.0776
11:21:31:981,0.4981,2.5595,7.6092,50.1121,0.346,-0.0021,0.4152,-69.7757
11:21:32:001,0.7262,2.0273,8.613,49.947,0.3716,-0.3332,0.2875,-69.4984
11:21:32:021,1.1217,1.8074,9.3932,49.8945,0.3641,-0.3332,0.1001,-69.6631
11:21:32:042,1.4927,1.7247,10.0276,50.1835,0.1938,-0.1512,-0.1842,-70.0761
11:21:32:061,1.4453,1.599,10.8621,50.0136,-0.0554,0.0149,-0.5015,-70.642
11:21:32:082,1.1161,1.3168,11.5846,50.2434,-0.1618,0.2161,-0.7027,-71.2675
11:21:32:101,0.4199,1.5454,11.9979,50.1754,-0.1043,0.4823,-0.6558,-71.9896
11:21:32:121,-0.3171,2.4405,12.2377,50.3817,0.0149,0.5802,-0.3407,-72.5864
11:21:32:141,-0.2939,2.9385,12.3204,50.347,0.1022,0.4408,-0.0745,-72.8057
11:21:32:161,0.4744,2.5614,12.8026,50.4434,-0.0181,0.1459,-0.0628,-72.8057
11:21:32:181,1.1484,1.2961,13.5998,50.3524,-0.0671,0.016,-0.2385,-73.1978
11:21:32:202,1.1276,-0.0003,13.683,50.5156,0.2172,0.197,-0.4876,-74.0484
11:21:32:222,0.3515,-0.3586,12.7065,50.3552,0.6324,0.3396,-0.6739,-75.2328
11:21:32:243,-0.4389,0.0836,11.0907,50.1343,0.7442,0.3449,-0.6005,-76.4342
11:21:32:262,-0.3774,0.3738,9.6163,49.8925,0.4482,0.3513,-0.3865,-77.4092
11:21:32:282,-0.0574,0.7618,8.6436,49.4481,-0.0554,0.4227,-0.2055,-78.1204
11:21:32:303,0.2816,1.2187,8.2899,49.0726,-0.4397,0.4514,-0.1097,-78.4976
11:21:32:321,0.4073,1.5939,8.1416,48.5538,-0.5057,0.4237,-0.1373,-78.6082
11:21:32:341,0.3578,1.7083,7.7189,48.2547,-0.2513,0.4024,-0.197,-78.6082
11:21:32:362,0.3117,1.4801,7.1055,47.777,0.132,0.2119,-0.2619,-78.481
11:21:32:381,0.0354,1.4706,6.3758,47.6713,0.4546,-0.0128,-0.3141,-78.481
11:21:32:401,-0.4521,1.6634,5.8723,47.5587,0.6729,-0.1852,-0.2694,-78.3658
11:21:32:421,-0.6381,1.7448,5.4964,47.4473,0.8155,-0.2906,-0.1341,-78.0096
11:21:32:442,-0.2077,1.8915,5.438,47.4741,0.7878,-0.3843,-0.049,-77.5805
11:21:32:462,0.2311,2.449,5.9287,47.3308,0.5621,-0.4291,-0.1001,-77.3018
11:21:32:481,0.6811,2.5057,6.6945,47.2336,0.2406,-0.4088,-0.2992,-77.0442
11:21:32:501,0.5152,2.4624,7.6923,47.239,-0.1139,-0.4312,-0.5494,-77.0442
11:21:32:521,-0.2,2.4816,9.1765,47.0493,-0.3098,-0.3183,-0.6005,-77.0442
11:21:32:541,-1.1217,2.5003,10.0546,46.7969,-0.1576,0.148,-0.3034,-77.0442
11:21:32:563,-1.4467,2.9018,10.7185,46.7668,-0.1054,0.116,0.2119,-77.0442
11:21:32:581,-0.7898,2.8839,11.4606,46.4494,-0.2853,-0.2278,0.4663,-76.8641
11:21:32:601,-0.4238,3.6051,13.2554,46.2305,-0.379,-0.3918,0.6207,-76.8641
11:21:32:620,0.191,4.1167,14.323,45.832,0.0767,0.083,0.7772,-76.8641
11:21:32:653,0.9962,3.7759,13.3753,45.7131,0.5398,0.264,0.5057,-76.8641
11:21:32:660,0.687,3.1158,12.1315,45.3576,0.5164,-0.05,-0.0319,-77.1006
11:21:32:681,-0.3275,2.8023,11.5831,44.9769,0.3982,-0.3194,-0.4078,-77.3877
11:21:32:701,-0.7006,2.073,10.8733,44.8195,0.2875,-0.4408,-0.5504,-77.5765
11:21:32:721,-0.4942,1.208,10.0383,44.4409,0.1214,-0.3311,-0.5888,-77.898
11:21:32:740,-0.8572,1.2387,9.5343,44.3035,-0.0724,-0.297,-0.5962,-78.4852
11:21:32:761,-1.1682,1.5121,9.1647,44.4568,-0.3002,-0.2491,-0.4695,-78.9038
11:21:32:781,-1.0428,1.3479,8.8321,44.5364,-0.5238,-0.3311,-0.4067,-79.0824
11:21:32:801,-0.7861,1.008,8.6141,44.6669,-0.7261,-0.4344,-0.4237,-79.2832
11:21:32:821,-0.584,0.8109,8.429,44.6333,-0.8283,-0.494,-0.4248,-79.5899
11:21:32:841,-0.3251,0.6395,8.0755,44.4228,-0.7644,-0.4482,-0.3279,-79.9622
11:21:32:861,-0.094,0.5022,7.2691,44.1263,-0.5845,-0.3364,-0.1799,-80.3781
11:21:32:881,-0.1455,0.6032,6.6987,43.8614,-0.3939,-0.1075,0.017,-80.818
11:21:32:901,-0.308,0.6607,6.6212,43.5315,-0.1576,0.0234,0.2214,-81.1399
11:21:32:921,-0.2883,0.8105,6.5946,43.1843,0.0979,-0.0202,0.3865,-81.3998
11:21:32:941,0.2718,0.9133,6.6355,42.9211,0.3609,-0.1299,0.4706,-81.6095
11:21:32:961,0.8721,1.1694,6.9597,42.495,0.4834,-0.1182,0.3428,-81.8542
11:21:32:981,1.0609,1.5721,7.6011,42.0267,0.3843,-0.1693,-0.0192,-82.1097
11:21:33:001,1.0221,1.8319,8.515,41.7636,0.1182,-0.4599,-0.4397,-82.2725
11:21:33:020,1.3688,1.7714,9.3375,41.3004,-0.0724,-0.5281,-0.5983,-82.3869
11:21:33:040,1.6617,1.5616,9.9335,41.0596,-0.2172,-0.0841,-0.6729,-82.585
11:21:33:061,1.3789,1.1762,10.8068,40.5362,-0.3705,0.3843,-0.8879,-82.8376
11:21:33:081,0.4333,1.4775,12.0977,40.372,-0.5355,0.3865,-1.021,-83.1148
11:21:33:100,-0.7181,2.5727,12.9873,40.1252,-0.5132,0.412,-0.6164,-83.1148
11:21:33:121,-0.5568,2.9086,13.3669,40.0518,-0.2427,0.6345,0.1778,-82.8218
11:21:33:141,0.6003,2.1703,13.4585,39.8045,0.0405,1.0732,0.5919,-82.5171
11:21:33:161,0.9276,1.8748,13.8587,39.6678,0.23,1.136,0.4386,-82.5171
11:21:33:180,0.833,1.7027,13.3482,39.7418,0.4418,0.9103,0.1224,-82.6477
11:21:33:200,0.5196,1.1035,12.1605,39.4481,0.7399,0.6409,-0.1011,-82.8072
11:21:33:221,0.05,0.6953,10.7074,39.0795,0.9923,0.3513,-0.3066,-83.063
11:21:33:241,-0.3475,0.8205,9.5597,39.1364,0.8432,-0.1363,-0.5089,-83.3365
11:21:33:262,-0.5156,1.2667,9.1398,38.7133,0.1501,-0.7932,-0.642,-83.4937
11:21:33:281,-0.056,1.234,9.3929,38.2934,-0.4653,-0.8666,-0.5866,-83.4937
11:21:33:301,0.3727,0.9106,9.1429,38.1472,-0.6867,-0.5675,-0.4663,-83.4937
11:21:33:321,0.3179,1.0997,8.1453,37.9704,-0.6005,-0.0426,-0.3002,-83.4937
11:21:33:340,-0.1009,1.3851,6.7274,37.6176,-0.3971,0.4312,-0.0862,-83.4937
11:21:33:361,-0.408,1.5349,5.7844,37.3605,-0.2598,0.5919,0.0426,-83.2184
11:21:33:381,-0.9264,2.0136,5.8294,37.0954,-0.1757,0.2406,0.0703,-82.7336
11:21:33:401,-1.1915,2.3977,5.998,36.869,-0.0639,-0.3992,0.1075,-81.8823
11:21:33:420,-0.9176,2.2021,6.0868,36.7301,0.1054,-0.873,0.1373,-80.8286
11:21:33:440,-0.3662,1.9649,6.2254,36.8686,0.3109,-0.889,0.1022,-79.9564
11:21:33:461,-0.0727,2.034,6.8116,36.6483,0.4567,-0.8049,0.0085,-79.4291
11:21:33:480,0.0652,2.4724,7.7958,36.305,0.5046,-1.0231,-0.1235,-79.0527
11:21:33:501,-0.0441,3.1238,9.0356,36.2565,0.6015,-1.5044,-0.2353,-78.6404
11:21:33:521,-0.1348,3.4883,9.8283,36.2148,0.9092,-1.6545,-0.2662,-78.0719
11:21:33:541,0.2059,3.2817,10.1128,36.2339,1.2829,-1.4256,-0.2257,-77.4787
11:21:33:562,0.883,3.0843,10.5312,36.0158,1.4522,-0.9752,-0.1661,-77.0633
11:21:33:580,0.7122,4.0459,11.2709,35.9127,1.2531,-0.9348,0.0362,-76.902
11:21:33:600,0.6439,4.8417,12.0201,35.5772,0.8198,-1.0167,0.527,-76.5706
11:21:33:621,1.7051,4.5992,12.3856,35.3258,0.6218,-0.2023,1.153,-76.1861
11:21:33:641,2.7611,4.0475,12.2364,35.1662,0.5675,0.8166,1.3425,-76.1861
11:21:33:661,2.6896,4.1542,12.0558,35.1286,0.3897,1.1626,1.0891,-76.4843
11:21:33:681,2.3372,3.7316,11.8261,35.0975,0.1991,1.0263,0.6164,-76.793
11:21:33:701,1.8267,2.7972,11.5643,34.9228,0.1629,0.7495,0.1927,-77.1163
11:21:33:721,1.5185,1.8858,10.9498,34.9315,0.2364,0.527,0.0128,-77.5457
11:21:33:741,1.2651,1.6777,10.0622,34.8408,0.181,0.2811,0.016,-78.0905
11:21:33:762,1.1314,1.9885,9.2934,35.0857,-0.1416,0.1384,0.0681,-78.5448
11:21:33:781,1.2265,2.0789,8.5034,34.8486,-0.5675,0.3524,0.0607,-78.81
11:21:33:801,1.2401,1.8173,7.8735,34.706,-0.9113,0.7868,0.0202,-78.9116
11:21:33:821,0.8698,1.6442,7.3715,34.8365,-1.0923,1.1626,0.0117,-78.9116
11:21:33:843,0.4978,1.3261,7.1619,34.7035,-1.07,1.3053,0.0969,-78.9116
11:21:33:861,0.1932,1.0967,6.8573,34.5044,-0.8751,1.2339,0.2651,-78.9116
11:21:33:881,0.0193,1.3174,6.613,34.6636,-0.625,1.1711,0.4599,-78.9116
11:21:33:901,-0.1436,1.8132,6.2931,34.5281,-0.3748,1.2882,0.6292,-78.8083
11:21:33:921,-0.2484,2.1135,6.0615,34.4296,-0.1938,1.4596,0.6878,-78.5571
11:21:33:943,-0.132,2.215,6.292,33.9813,-0.2204,1.4298,0.6122,-78.2595
11:21:33:962,-0.0346,2.7594,7.415,33.9311,-0.4354,0.8304,0.5451,-78.046
11:21:33:981,-0.332,3.1322,8.7933,33.5977,-0.3939,0.5238,0.4269,-77.9011
11:21:34:001,-0.6276,2.9788,10.184,33.3069,-0.0798,0.1661,0.1129,-77.7951
11:21:34:021,-0.7259,2.5201,10.7971,32.6517,0.2981,-0.1842,-0.1565,-77.7951
11:21:34:042,-0.7254,1.9822,11.0862,32.7388,0.346,-0.4014,-0.2587,-77.7951
11:21:34:062,-0.8374,2.0382,11.3229,32.6887,0.1459,-0.2949,-0.2757,-77.9732
11:21:34:082,-1.3665,2.8391,11.8042,32.6135,-0.0138,0.0373,-0.2193,-78.0861
11:21:34:106,-1.6867,3.6683,12.0726,32.8815,0.0085,0.411,-0.0149,-77.9273
11:21:34:121,-1.2374,3.9437,12.0085,33.1043,0.0649,0.4205,0.1469,-77.5795
11:21:34:141,-0.4054,3.8454,12.035,32.8084,-0.0064,0.0777,-0.0096,-77.2018
11:21:34:161,0.0286,3.4014,12.2424,32.7874,-0.1022,-0.1384,-0.3354,-76.9008
11:21:34:181,0.1986,1.741,12.1988,32.4859,-0.016,-0.1075,-0.626,-76.6678
11:21:34:201,-0.2247,0.4439,11.4924,32.4233,0.1842,-0.0841,-0.856,-76.6678
11:21:34:222,-0.9546,-0.0351,10.4151,32.4106,0.2012,-0.2502,-0.8858,-76.8047
11:21:34:241,-1.1745,-0.2238,9.5894,32.587,-0.1065,-0.4834,-0.7005,-76.9608
11:21:34:261,-0.8269,-0.039,9.2836,32.8599,-0.5451,-0.4514,-0.3929,-76.9608
11:21:34:281,-0.2896,0.5471,9.2458,32.9043,-0.8294,-0.197,-0.0926,-76.9608
11:21:34:301,0.3364,0.9108,9.2094,33.135,-0.7548,0.0373,0.1235,-76.7509
11:21:34:321,0.8206,1.2513,8.6674,33.1401,-0.362,0.2097,0.1086,-76.4945
11:21:34:341,0.8443,1.4656,7.5974,33.261,0.0958,0.1842,-0.116,-76.2207
11:21:34:361,0.3937,1.8053,6.456,33.2775,0.3449,-0.0319,-0.4088,-75.9034
11:21:34:381,-0.5613,1.9699,5.8439,33.3131,0.4386,-0.148,-0.5164,-75.3847
11:21:34:401,-1.2456,2.0215,5.5537,33.2458,0.5142,-0.1192,-0.3556,-74.4756
11:21:34:421,-1.3151,2.1613,5.3871,33.0374,0.5185,-0.1895,-0.1405,-73.2741
11:21:34:441,-1.0318,2.3212,5.6385,32.6902,0.3396,-0.3332,0.0011,-71.9575
11:21:34:461,-0.7366,2.8365,6.6667,32.8558,0.0437,-0.4738,0.1267,-70.7876
11:21:34:481,-0.3909,3.0898,7.9973,33.024,-0.1352,-0.6473,0.082,-69.7677
11:21:34:501,-0.3879,2.9495,9.1531,32.9259,-0.1735,-0.6271,-0.0617,-68.9624
11:21:34:522,-0.7351,2.9955,10.1356,32.9143,-0.1661,-0.2406,-0.0298,-68.2647
11:21:34:541,-0.9125,3.2995,10.8461,32.8906,-0.1491,0.1224,0.0777,-67.5699
11:21:34:562,-0.8393,3.5411,11.5164,33.0101,-0.1448,0.2236,0.116,-66.8717
11:21:34:581,-0.8097,3.5269,12.312,33.3456,-0.1693,0.1384,0.1182,-66.1854
11:21:34:602,-0.7477,3.5645,13.463,33.5851,-0.1192,0.2438,0.2278,-65.5577
11:21:34:622,-0.6891,3.6643,13.9472,33.6874,0.1459,0.6739,0.4248,-65.0525
11:21:34:641,-0.6627,3.8135,13.6966,33.9597,0.5015,0.8027,0.445,-64.5898
11:21:34:662,-0.9201,3.7917,12.8904,34.028,0.7527,0.6239,0.2214,-64.1603
11:21:34:681,-1.2092,2.6852,11.5975,34.0288,0.8464,0.3694,-0.0468,-63.6889
11:21:34:701,-1.6351,1.3235,10.4235,34.2375,0.7665,0.0639,-0.2044,-63.2963
11:21:34:721,-1.8356,0.3846,9.6776,34.7688,0.5494,-0.3151,-0.1799,-63.1006
11:21:34:741,-1.7974,0.0228,9.2354,35.1957,0.2768,-0.5632,0.0373,-63.1006
11:21:34:761,-1.4667,0.234,8.8569,35.5511,0.0468,-0.5089,0.2768,-63.2854
11:21:34:781,-1.0803,0.8022,8.3823,35.8322,-0.1288,-0.2151,0.395,-63.4429
11:21:34:801,-0.789,0.931,7.7131,35.7747,-0.3109,0.1011,0.3801,-63.4429
11:21:34:821,-0.7184,0.9345,6.9904,35.8877,-0.56,0.2555,0.346,-63.4429
11:21:34:841,-0.767,0.9422,6.7717,36.286,-0.757,0.2566,0.3897,-63.3071
11:21:34:861,-0.7029,1.038,6.9205,36.3848,-0.7282,0.1672,0.5291,-63.1353
11:21:34:882,-0.6329,1.2557,7.0725,36.5737,-0.5195,0.1267,0.658,-62.9586
11:21:34:901,-0.2786,1.6238,7.1342,37.075,-0.2332,0.1001,0.7612,-62.7588
11:21:34:921,0.2754,1.9334,6.9959,37.3339,0.0224,-0.0053,0.7069,-62.553
11:21:34:941,0.4862,2.267,6.9331,37.6108,0.132,-0.148,0.4716,-62.4278
11:21:34:962,0.2818,2.8909,7.0026,37.8976,0.0607,-0.2545,0.1874,-62.266
11:21:34:981,-0.1313,3.3002,7.3642,38.2723,-0.1299,-0.2672,-0.0277,-61.894
11:21:35:001,-0.1431,3.1853,7.8583,38.4985,-0.264,-0.1118,-0.1235,-61.3223
11:21:35:021,0.165,2.7479,8.3942,38.4715,-0.3567,-0.0319,-0.2683,-60.8378
11:21:35:041,-0.0398,2.7519,9.3686,38.6515,-0.543,-0.2183,-0.4844,-60.5906
11:21:35:062,-0.3184,2.4215,10.6712,38.8454,-0.7538,-0.4865,-0.6643,-60.2683
11:21:35:081,-0.5584,1.663,12.0967,39.3397,-0.8272,-0.4812,-0.6878,-59.9308
11:21:35:101,-0.9835,1.5139,13.1749,40.1086,-0.7197,-0.0277,-0.4248,-59.7086
11:21:35:121,-1.1761,2.0621,13.7803,40.4688,-0.4865,0.3567,-0.0905,-59.4156
11:21:35:141,-0.8874,2.1456,13.9402,40.7534,-0.3119,0.362,-0.0085,-58.9948
11:21:35:161,-0.5185,1.5256,13.8148,41.0135,-0.2236,0.1863,-0.0841,-58.6186
11:21:35:181,-0.5433,0.8733,13.6254,41.2767,-0.082,0.0724,-0.0586,-58.4151
11:21:35:201,-0.358,0.3277,12.9661,41.5358,0.2694,0.0916,0.1097,-58.4151
11:21:35:221,-0.014,0.2891,11.541,41.8745,0.6462,-0.0053,0.1746,-58.6004
11:21:35:242,0.301,0.7044,10.0224,42.5788,0.6069,-0.2608,0.0756,-58.8829
11:21:35:261,0.5594,0.8806,9.0754,42.856,0.1821,-0.428,-0.0926,-59.0971
11:21:35:284,0.6579,0.8223,8.8772,43.3696,-0.2704,-0.1906,-0.2033,-59.2808
11:21:35:300,0.6972,0.898,9.0465,43.6111,-0.4546,0.2417,-0.2566,-59.4466
11:21:35:321,0.5508,0.9668,8.6668,43.7425,-0.2875,0.6207,-0.3386,-59.5791
11:21:35:341,0.1608,1.2216,7.6965,44.0751,0.0224,0.7591,-0.3662,-59.5791
11:21:35:361,-0.0877,1.2832,6.6336,44.5608,0.2885,0.5025,-0.3524,-59.4667
11:21:35:381,-0.2534,1.2686,6.0711,44.568,0.4589,0.0575,-0.3577,-59.2149
11:21:35:400,-0.34,1.3489,5.8578,44.5144,0.577,-0.1214,-0.3513,-58.8826
11:21:35:421,-0.4054,1.5,5.9267,44.8562,0.6281,-0.0873,-0.3375,-58.5097
11:21:35:441,-0.7628,2.0147,5.9283,45.1011,0.4865,0.0266,-0.2896,-58.0803
11:21:35:461,-0.6954,2.2442,6.6403,45.3257,0.1746,-0.1001,-0.198,-57.2956
11:21:35:481,-0.4801,2.2909,8.0689,45.6992,0.0043,-0.0554,-0.1097,-56.6262
11:21:35:501,-0.7954,2.7396,9.3344,46.2988,0.0586,0.2087,-0.0703,-56.2447
11:21:35:520,-1.3171,3.1979,9.9691,46.7728,0.1597,0.1597,-0.0096,-55.7966
11:21:35:540,-1.5043,3.2941,10.2932,47.1203,0.1214,-0.2225,0.132,-55.185
11:21:35:561,-1.218,3.5383,10.9465,47.5816,0.0405,-0.5451,0.2449,-54.5449
11:21:35:580,-0.8933,3.759,11.6222,48.1953,-0.017,-0.5355,0.23,-54.0041
11:21:35:601,-0.8443,3.6936,12.2635,48.2627,-0.1011,-0.2938,0.2012,-53.6081
11:21:35:620,-1.0297,3.8092,13.0831,48.6469,-0.0351,0.0979,0.3183,-53.3153
11:21:35:641,-0.8534,3.6599,13.2752,49.1415,0.2236,0.2023,0.3939,-53.1126
11:21:35:662,-0.4752,2.9644,12.7441,49.2584,0.4312,0.0362,0.1491,-53.1126
11:21:35:680,-0.7196,1.7187,11.8975,49.9461,0.5462,-0.1224,-0.1884,-53.3191
11:21:35:701,-1.2596,0.6897,10.8102,50.4872,0.577,-0.1246,-0.4461,-53.847
11:21:35:720,-1.8367,0.0952,9.7504,50.8492,0.4674,-0.0096,-0.527,-54.6373
11:21:35:740,-2.1689,0.0192,8.8841,51.4704,0.198,0.1022,-0.3961,-55.5705
11:21:35:760,-1.9632,0.2152,8.2522,52.112,-0.1703,0.1469,-0.2236,-56.3673
11:21:35:781,-1.5167,0.3252,8.0393,52.6484,-0.6228,0.0468,-0.1959,-56.8478
11:21:35:801,-1.3373,0.691,8.088,53.2013,-0.9837,-0.1022,-0.2044,-57.2517
11:21:35:821,-1.0047,0.6094,8.0063,53.7165,-1.1221,-0.1139,-0.1693,-57.2517
11:21:35:840,-0.7435,0.3629,7.755,54.3907,-1.0146,-0.0128,-0.0969,-57.4106
11:21:35:861,-0.6807,0.2689,7.362,55.0108,-0.6973,0.0905,0.0575,-57.7585
11:21:35:880,-0.7597,0.4225,6.8454,55.4011,-0.3205,0.1597,0.2928,-58.1467
11:21:35:900,-0.8716,0.7835,6.551,55.7457,0.0117,0.1139,0.5536,-58.4137
11:21:35:921,-0.8972,1.3007,6.4719,56.3425,0.3183,-0.0043,0.7282,-58.4137
11:21:35:941,-0.6996,1.5951,6.3968,56.5839,0.5142,-0.1341,0.7186,-58.1449
11:21:35:961,-0.6153,2.0993,6.556,56.8631,0.4397,-0.3577,0.5504,-57.8757
11:21:35:980,-0.383,2.4028,7.1289,57.5328,0.1203,-0.6761,0.3471,-57.4789
11:21:36:001,-0.11,2.0795,8.2552,57.7482,-0.2672,-0.905,0.0841,-57.1693
11:21:36:021,-0.2636,1.6448,9.8575,58.4894,-0.5153,-0.5888,-0.0341,-57.1693
11:21:36:041,-0.2448,1.2039,11.3243,59.42,-0.6143,-0.1224,-0.0341,-57.5091
11:21:36:061,-0.256,1.169,12.5196,60.0506,-0.7112,0.1778,-0.0713,-58.1057
11:21:36:081,-0.6899,1.8131,13.4322,60.807,-0.658,0.4141,-0.0053,-58.6992
11:21:36:101,-0.8864,2.4897,13.9733,61.2982,-0.3811,0.4951,0.1821,-59.0058
11:21:36:121,-0.7589,2.7873,13.8677,61.7274,0.0224,0.4376,0.2683,-59.1297
11:21:36:141,-0.5542,2.9462,13.2245,62.3463,0.214,0.2044,0.1427,-59.1297
11:21:36:161,-0.2965,2.6332,12.8906,63.0455,0.1416,-0.0458,0.082,-59.1297
11:21:36:181,0.4649,1.5041,12.8784,63.8206,0.2364,-0.1352,0.0522,-59.3704
11:21:36:201,0.7844,0.3184,12.1041,64.3673,0.5376,-0.1576,-0.1735,-60.1672
11:21:36:221,0.3907,0.0621,10.7613,64.8735,0.6026,-0.2736,-0.4237,-61.405
11:21:36:241,0.0868,0.0176,9.6244,65.2801,0.2864,-0.3567,-0.4951,-62.7119
11:21:36:262,0.3924,-0.2898,8.873,65.4911,-0.2076,-0.2992,-0.4195,-63.9777
11:21:36:281,0.8181,-0.3294,8.5928,65.9657,-0.6697,-0.2662,-0.3418,-65.3436
11:21:36:301,0.8881,0.19,8.6376,66.2497,-0.9081,-0.1725,-0.1884,-66.6174
11:21:36:321,0.8521,0.6853,8.4908,66.6593,-0.7048,0.0617,-0.0415,-67.5353
11:21:36:341,0.6733,0.6548,7.5499,66.7782,-0.3481,0.0575,0.0234,-68.16
11:21:36:361,0.4095,1.0059,6.2749,67.3021,-0.115,0.2459,0.0287,-68.7436
11:21:36:381,0.0389,1.126,6.242,67.7932,0.2427,0.4301,-0.0724,-68.9809
11:21:36:401,-0.4914,1.6468,5.9768,67.8152,0.4834,0.0884,-0.1576,-68.9809
11:21:36:422,-0.5152,1.7327,5.7419,68.1057,0.6707,-0.1916,-0.066,-68.5253
11:21:36:441,-0.1888,1.648,6.0862,68.4845,0.6335,-0.543,-0.0437,-68.0107
11:21:36:461,-0.0527,2.0599,6.8199,68.8379,0.3673,-0.8358,-0.0564,-67.8592
11:21:36:481,0.0964,2.6367,7.9005,69.1023,-0.0075,-0.939,-0.0138,-67.6626
11:21:36:501,0.4592,2.4848,9.3957,69.6875,-0.3354,-0.6771,0.0437,-67.3875
11:21:36:521,0.8169,2.0583,10.8454,70.1212,-0.4067,-0.0969,0.0926,-67.4887
11:21:36:542,0.868,1.8437,11.9365,70.2843,-0.3183,0.4227,0.1203,-67.9687
11:21:36:561,0.4537,2.0645,12.6721,70.6119,-0.2023,0.5451,0.0969,-68.6111
11:21:36:581,-0.2576,2.4571,13.289,70.9513,-0.1118,0.3758,0.0926,-69.1501
11:21:36:604,-0.8313,2.8204,13.5299,71.3027,0.1341,0.3503,0.3556,-69.5322
11:21:36:621,-0.6289,2.8443,13.1758,71.7935,0.5249,0.56,0.7069,-69.8164
11:21:36:641,-0.1684,2.6981,12.596,72.1941,0.7729,0.4557,0.6846,-70.2418
11:21:36:669,-0.1749,2.32,12.1069,72.5704,0.7676,0.0607,0.2055,-70.8174
11:21:36:680,-0.7915,1.0287,11.7007,72.3559,0.7272,-0.1757,-0.2651,-71.5593
11:21:36:701,-1.4103,-0.1056,10.9178,72.4466,0.675,-0.2012,-0.544,-72.8923
11:21:36:721,-1.8131,-0.574,10.2956,72.63,0.3577,-0.2364,-0.5877,-74.8477
11:21:36:741,-1.7348,-0.5729,10.0558,72.9839,-0.1884,-0.2757,-0.4078,-77.1132
11:21:36:762,-1.1682,-0.2189,10.03,73.311,-0.6995,-0.1789,-0.2055,-79.1641
11:21:36:781,-0.4776,-0.0541,9.6909,73.543,-0.922,0.0341,-0.1618,-80.6473
11:21:36:802,-0.0263,0.0625,9.0164,73.6706,-0.8624,0.1246,-0.2023,-81.7338
11:21:36:822,0.053,0.3106,7.4653,73.4671,-0.8379,-0.0596,-0.1906,-82.5643
11:21:36:842,0.0984,0.4864,6.4771,73.3317,-0.6132,0.2321,-0.0256,-83.1224
11:21:36:862,-0.0586,0.7023,6.0347,73.3577,-0.2757,0.4929,0.264,-83.4906
11:21:36:881,-0.3216,1.0113,6.2018,73.3761,0.0649,0.445,0.5259,-83.7106
11:21:36:902,-0.6555,1.3681,6.5223,73.2565,0.3684,0.049,0.643,-83.7106
11:21:36:922,-0.7457,1.6049,6.927,73.446,0.626,-0.297,0.5643,-83.5551
11:21:36:941,-0.5727,1.6821,7.2867,73.6451,0.7335,-0.0735,0.3077,-83.385
11:21:36:962,-0.1022,1.4625,7.8594,73.383,0.5046,0.6856,-0.1118,-83.385
11:21:36:982,-0.0571,1.2674,8.7035,73.1914,-0.0767,0.84,-0.4567,-83.6008
11:21:37:001,-0.3173,1.4585,9.3614,73.2521,-0.6377,0.3503,-0.4716,-83.9093
11:21:37:021,-0.6207,1.5612,9.9655,72.9948,-0.8538,0.2236,-0.2672,-84.0567
11:21:37:041,-0.7465,1.3372,10.4871,72.7336,-0.8251,0.3428,-0.1427,-84.0567
11:21:37:062,-0.8909,1.3996,11.0262,72.8815,-0.7069,0.4152,-0.1182,-84.0567
11:21:37:083,-0.9614,1.8577,11.8274,72.8068,-0.5323,0.0532,-0.0117,-84.0567
11:21:37:103,-0.8636,2.6578,12.4799,72.7563,-0.23,-0.5696,0.2619,-84.0567
11:21:37:121,-0.0204,2.7961,12.689,72.7146,0.1416,-0.7729,0.4738,-83.8115
11:21:37:141,0.7877,2.2213,12.8997,72.8088,0.3854,-0.6537,0.3066,-83.695
11:21:37:161,0.7764,1.7144,12.6911,72.5972,0.4855,-0.6175,-0.1203,-83.8447
11:21:37:183,0.4782,1.0584,11.8277,72.7037,0.5696,-0.4046,-0.478,-84.11
11:21:37:202,0.4839,-0.2247,11.249,72.6059,0.593,-0.3971,-0.692,-84.5102
11:21:37:221,0.1071,-0.66,11.2349,72.5284,0.4099,-1.1179,-0.8464,-85.3001
11:21:37:241,-0.0551,-0.0451,10.9006,72.7805,0.2225,-1.6066,-0.7484,-86.2132
11:21:37:261,0.4072,0.2348,10.0815,72.743,0.2183,-1.3936,-0.3961,-86.7901
11:21:37:282,1.0793,0.4881,8.9549,72.9074,0.2949,-0.7612,-0.0309,-87.1778
11:21:37:302,1.4563,0.7965,7.9467,73.1701,0.3354,0.0394,0.1437,-87.4221
11:21:37:321,1.2702,1.1871,7.1064,73.3161,0.3098,0.5611,0.1011,-87.4221
11:21:37:341,0.9743,1.547,6.3819,73.3525,0.2885,0.7665,-0.0543,-87.3009
11:21:37:363,0.6699,1.6425,5.8582,73.2273,0.3098,0.7272,-0.1895,-86.9456
11:21:37:381,0.4814,1.8621,5.5566,73.2769,0.3567,0.593,-0.2395,-86.445
11:21:37:401,0.4446,2.1333,5.8093,73.2639,0.3726,0.3279,-0.2438,-85.7735
11:21:37:422,0.6019,2.1313,6.2435,73.2036,0.3503,-0.0149,-0.3386,-85.0587
11:21:37:442,0.499,2.0211,6.7572,73.0495,0.3024,-0.2821,-0.4972,-84.5335
11:21:37:462,-0.0202,2.4403,7.3525,73.0018,0.1991,-0.378,-0.5185,-84.1323
11:21:37:481,-0.3295,2.8724,8.3004,72.9294,-0.0586,-0.3492,-0.3237,-83.4502
11:21:37:501,-0.4051,3.1742,9.558,72.7894,-0.3599,-0.1959,-0.033,-82.5808
11:21:37:521,-0.1893,3.2864,10.907,72.635,-0.5206,0.0543,0.1725,-81.751
11:21:37:541,0.19,3.1303,11.9528,72.7002,-0.5302,0.329,0.1863,-81.1334
11:21:37:561,0.1243,3.0234,13.1103,72.6396,-0.511,0.4269,0.0319,-80.7641
11:21:37:581,-1.4218,3.4724,14.6281,72.6891,-0.3449,0.2183,0.0564,-80.5003
11:21:37:602,-2.5005,3.5878,15.5277,72.4337,0.0852,-0.3013,0.5313,-79.9847
11:21:37:621,-1.2861,2.4005,15.7149,72.335,0.7005,-0.1491,0.857,-79.4398
11:21:37:641,-0.5125,2.463,15.4557,72.4627,1.1136,0.2491,0.5834,-79.7546
11:21:37:662,-0.4765,1.7346,14.0084,72.4155,1.3361,0.6218,0.0617,-80.1992
11:21:37:682,-1.0244,0.7513,12.1433,72.6986,1.3745,0.8006,-0.3268,-80.9496
11:21:37:701,-1.7989,0.2004,10.3,72.9829,1.2946,0.6622,-0.346,-82.1154
11:21:37:721,-2.24,0.2612,9.1794,73.1822,1.0529,0.3162,-0.1618,-83.7154
11:21:37:741,-1.9336,0.5446,8.2633,73.0078,0.7506,-0.3471,0.0756,-85.4417
11:21:37:762,-1.3108,0.8296,7.6338,73.0149,0.4791,-0.7751,0.2044,-86.893
11:21:37:782,-0.6988,1.013,6.9713,72.8648,0.3045,-0.8762,0.2449,-87.8924
11:21:37:802,-0.2168,1.0258,6.2306,72.9174,0.2534,-0.5845,0.2417,-88.5735
11:21:37:822,-0.0808,0.951,5.4918,72.8075,0.197,-0.1884,0.263,-89.1244
11:21:37:841,-0.1444,1.1674,4.8765,73.0465,0.1405,0.2811,0.4738,-89.6813
11:21:37:862,-0.0765,1.5875,4.5459,72.8704,0.0692,0.5866,0.8081,-89.9292
11:21:37:882,0.0516,2.0816,4.7534,73.0884,-0.0181,0.577,1.0402,-89.6858
11:21:37:902,0.2619,2.5215,5.289,73.0602,-0.0043,0.3205,1.0072,-89.1707
11:21:37:923,0.7471,2.6511,5.7524,72.9984,-0.0373,0.197,0.7218,-88.6529
11:21:37:941,0.8922,2.6524,6.5054,72.9494,-0.0649,-0.2364,0.3811,-88.3996
11:21:37:962,0.704,2.6247,7.8521,72.7331,-0.1661,-0.5408,0.1746,-88.3996
11:21:37:981,0.584,3.0469,8.9951,72.5132,-0.1022,-0.5877,0.1554,-88.5871
11:21:38:002,0.9973,3.0328,9.5131,72.6191,0.0884,-0.3024,0.0958,-88.743
11:21:38:021,1.3274,3.1586,9.7207,72.5091,0.1192,-0.1799,-0.1054,-89.0301
11:21:38:041,0.9381,4.0679,9.9886,72.6851,-0.1767,-0.313,-0.2726,-89.3181
11:21:38:062,0.4748,4.9416,10.7053,72.7877,-0.6196,-0.2236,-0.1331,-89.1561
11:21:38:082,0.9078,5.1045,11.8838,72.6437,-0.9699,0.0862,0.049,-88.6025
11:21:38:101,1.8691,4.3407,13.2214,73.0707,-1.2637,0.363,-0.0596,-88.205
11:21:38:121,1.7303,3.3302,14.7452,72.8666,-1.3872,0.3428,-0.4653,-88.205
11:21:38:142,0.9974,2.2767,15.2655,72.7182,-0.9454,0.3183,-0.6601,-88.5691
11:21:38:161,0.94,0.6535,14.2315,72.7035,-0.3279,0.2768,-0.7005,-89.2084
11:21:38:181,0.5809,0.3832,12.5738,72.466,0.0873,0.1427,-0.6686,-90.2732
11:21:38:201,0.5902,0.7678,10.5152,72.2722,0.0426,0.2619,-0.4855,-91.3385
11:21:38:221,0.8262,1.242,8.8847,72.1529,-0.2938,0.543,-0.3726,-92.0413
11:21:38:241,0.9961,1.5607,7.9624,71.6982,-0.6228,0.8017,-0.3481,-92.275
11:21:38:261,0.9255,1.7504,7.4951,71.6241,-0.6942,0.8624,-0.4376,-92.1599
11:21:38:281,0.5446,1.9859,7.0435,71.2345,-0.4823,0.7463,-0.5376,-91.8438
11:21:38:301,0.0869,1.9771,6.5473,71.2737,-0.1278,0.4014,-0.5951,-91.2695
11:21:38:324,-0.4464,2.2665,6.232,71.1932,0.1459,0.0032,-0.5025,-90.5248
11:21:38:342,-0.4059,2.2955,5.89,71.1257,0.3886,-0.2662,-0.3226,-89.3689
11:21:38:361,-0.2407,2.2051,5.6851,70.919,0.527,-0.4376,-0.2417,-88.1983
11:21:38:381,-0.2485,2.4178,5.77,70.7842,0.5089,-0.6143,-0.2417,-87.196
11:21:38:401,-0.2684,2.6873,6.0748,70.8787,0.3013,-0.7697,-0.2161,-86.1283
11:21:38:421,-0.487,3.0822,7.0048,70.7708,0.0192,-0.8954,-0.1693,-85.0106
11:21:38:441,-0.464,3.0539,8.53,70.6381,-0.1427,-0.9891,-0.0383,-83.8026
11:21:38:462,-0.0274,2.8124,10,70.4089,-0.0373,-1.004,0.1267,-83.0086
11:21:38:481,0.3572,2.881,11.2588,70.0862,0.3087,-0.6633,0.1448,-82.8181
11:21:38:501,0.3878,2.8932,11.6652,70.372,0.6462,-0.2896,0.0756,-82.8181
11:21:38:521,0.0033,2.8157,11.3299,70.1785,0.7719,0.0671,0.1522,-82.9923
11:21:38:541,-0.5325,3.3506,11.2623,70.3011,0.5781,0.1661,0.3748,-83.2143
11:21:38:562,-0.6336,4.0072,11.6159,70.4762,0.2491,0.1906,0.5398,-83.106
11:21:38:581,-0.2986,4.0828,12.3651,70.3494,0.0884,0.3694,0.6079,-82.6745
11:21:38:604,0.0498,3.5488,12.7182,70.2434,0.1139,0.4014,0.4748,-82.4725
11:21:38:621,0.0282,2.6016,12.6034,70.1844,0.2321,0.1182,0.2012,-82.653
11:21:38:641,-0.3285,1.7078,11.7925,69.8119,0.3939,-0.1501,0.0032,-83.2959
11:21:38:686,-0.7274,1.0523,10.6811,69.7747,0.3907,-0.2736,-0.0405,-84.3631
11:21:38:688,-1.1435,0.9053,9.7324,69.9439,0.1203,-0.329,0.0532,-85.8412
11:21:38:701,-0.8682,1.0443,9.1649,70.3282,-0.3354,-0.1895,0.2608,-87.4747
11:21:38:721,-0.5505,1.1189,9.0409,70.7742,-0.7857,0.1065,0.4248,-88.789
11:21:38:741,-0.2354,1.0492,8.9342,71.0074,-0.9869,0.445,0.5281,-89.8233
11:21:38:762,-0.0462,0.8866,8.641,71.1088,-0.9273,0.6441,0.5781,-90.7456
11:21:38:781,0.0542,0.7812,8.0557,71.2071,-0.659,0.7165,0.5994,-91.6913
11:21:38:801,0.0779,0.6859,7.3387,71.1504,-0.3439,0.6399,0.5951,-92.6094
11:21:38:822,-0.0756,0.8814,6.7534,71.1957,-0.0767,0.4429,0.6324,-93.5274
11:21:38:841,-0.0342,1.1897,6.4239,71.2277,0.1107,0.3652,0.7176,-94.2774
11:21:38:863,0.1001,1.5565,6.3042,71.3034,0.2097,0.4248,0.7644,-94.6511
11:21:38:883,0.2867,2.0258,6.2645,71.2179,0.2033,0.5557,0.7186,-94.6511
11:21:38:902,0.2628,2.6421,6.6107,71.3375,0.0138,0.3971,0.4961,-94.2784
11:21:38:923,0.125,3.2194,7.8254,71.3997,-0.2321,-0.1831,0.1757,-93.5266
11:21:38:941,0.1006,2.7928,9.2888,71.4111,-0.2161,-0.5643,-0.0692,-92.632
11:21:38:962,-0.2042,2.2144,10.3294,71.3259,0.0916,-0.4386,-0.1129,-92.3457
11:21:38:981,-0.3457,2.2898,10.6788,71.0126,0.346,-0.2129,-0.0043,-92.6642
11:21:39:001,0.0504,2.6551,10.9034,71.1286,0.2055,-0.1011,0.033,-93.0387
11:21:39:021,0.2217,3.3472,11.7941,70.9102,-0.1448,0.016,-0.0064,-93.2405
11:21:39:041,0.2499,3.7017,13.0026,70.7832,-0.2853,0.3002,0.0905,-93.2405
11:21:39:062,0.4287,3.7291,13.6121,70.7216,-0.0735,0.6611,0.296,-93.2405
11:21:39:083,0.9221,3.7591,13.5177,70.6482,0.2342,0.6558,0.3481,-93.2405
11:21:39:101,1.382,3.4641,12.9545,70.6329,0.4834,0.3961,0.2097,-93.2405
11:21:39:121,1.5355,2.3507,11.9792,70.6471,0.7527,0.1405,-0.0852,-93.4588
11:21:39:141,1.0561,1.4545,10.4823,70.687,0.8613,-0.1086,-0.4397,-94.0384
11:21:39:161,0.7543,0.7974,9.1974,70.87,0.4291,-0.4269,-0.6643,-94.8624
11:21:39:181,0.6301,0.2215,9.2436,70.5621,-0.4152,-0.757,-0.7282,-95.8317
11:21:39:202,0.8564,-0.1416,10.0051,70.5258,-1.0955,-0.6441,-0.5717,-96.9264
11:21:39:222,1.231,0.1996,10.5068,70.5436,-1.2712,-0.1565,-0.2885,-97.9494
11:21:39:241,1.4723,0.7615,10.1255,70.489,-0.9848,0.4621,-0.0437,-98.6002
11:21:39:262,1.469,1.261,8.8679,70.6237,-0.5376,0.9497,0.0075,-98.8908
11:21:39:282,1.1231,1.7121,7.4369,70.7257,-0.1235,1.0327,-0.1171,-98.8908
11:21:39:302,0.515,1.8932,6.2355,70.3796,0.2449,0.642,-0.2896,-98.5128
11:21:39:322,-0.1736,1.8158,5.3813,70.0666,0.5824,0.0053,-0.3641,-97.8512
11:21:39:342,-0.7343,1.7749,4.9257,69.5712,0.807,-0.6303,-0.2662,-96.9329
11:21:39:364,-0.8029,1.7376,4.4856,69.2097,0.8815,-0.8656,-0.0543,-95.6908
11:21:39:383,-0.8188,2.0131,4.6429,69.1499,0.7378,-0.8155,0.1341,-94.252
11:21:39:401,-0.533,2.644,5.6545,68.9166,0.4663,-0.6164,0.3875,-92.5531
11:21:39:422,0.2433,3.2857,6.9298,68.9691,0.2076,-0.4312,0.4014,-91.1458
11:21:39:442,0.5582,4.1041,7.9112,68.7244,-0.0085,-0.2502,0.099,-90.2052
11:21:39:462,0.1546,4.1573,8.8944,68.2762,-0.2385,-0.1512,-0.1554,-89.191
11:21:39:482,-0.3063,3.8685,10.1404,68.2259,-0.4674,0.0341,-0.198,-88.2005
11:21:39:501,-0.8397,3.9869,11.8596,67.9523,-0.5557,0.2885,-0.0777,-87.5443
11:21:39:521,-1.0346,3.7357,13.888,67.9429,-0.3737,0.3439,0.1363,-87.0906
11:21:39:542,-0.8912,3.547,15.5707,67.8438,0.2523,0.4056,0.4653,-87.2195
11:21:39:561,-0.6527,3.6537,14.6458,67.6148,1.0423,0.9358,0.7282,-87.827
11:21:39:582,-0.9852,4.299,12.6326,67.3548,1.2382,1.1211,0.724,-88.4244
11:21:39:601,-1.7212,4.7553,11.1306,67.2094,0.9678,0.8581,0.6367,-88.4244
11:21:39:622,-2.1804,3.7368,10.6396,67.0501,0.725,0.2864,0.5217,-87.8857
11:21:39:642,-2.3984,2.721,10.2566,66.987,0.5749,-0.4759,0.4631,-88.1836
11:21:39:662,-2.2092,2.0191,9.9452,67.0872,0.4131,-0.9582,0.5046,-89.6306
11:21:39:681,-1.4903,1.7904,9.6429,66.9055,0.1842,-1.1381,0.5983,-91.7162
11:21:39:701,-0.1285,1.7289,9.4421,67.1662,-0.1746,-1.1913,0.5291,-93.6299
11:21:39:722,0.9787,1.6151,9.1685,67.4088,-0.6218,-0.939,0.2055,-94.9649
11:21:39:743,1.3825,1.2452,8.7155,67.4934,-1.0189,-0.2811,-0.2225,-95.9528
11:21:39:762,1.0609,0.724,8.1455,67.7037,-1.1999,0.4823,-0.5472,-96.8781
11:21:39:782,0.1338,0.5738,7.2043,67.8496,-1.12,1.1573,-0.577,-97.9152
11:21:39:801,-0.6025,0.5963,6.2878,67.7745,-0.8581,1.5075,-0.2576,-99.0311
11:21:39:821,-0.7815,0.7983,5.4614,67.2888,-0.5366,1.4682,0.2033,-100.2184
11:21:39:842,-0.5668,1.2767,5.0704,66.8799,-0.2502,1.1051,0.5951,-101.0605
11:21:39:862,-0.3841,2.1287,5.426,66.4876,-0.0554,0.4461,0.7069,-100.9475
11:21:39:881,-0.0682,2.8109,6.2077,65.8618,0.0575,-0.2342,0.5334,-99.8592
11:21:39:901,0.3385,3.0472,7.033,65.5787,0.0692,-0.5983,0.2779,-98.6233
11:21:39:923,0.8499,2.919,7.8641,65.3065,0.0437,-0.3992,0.0564,-97.6793
11:21:39:942,0.9677,2.6621,8.6445,64.857,-0.1224,-0.0788,-0.3119,-97.1495
11:21:39:962,0.5238,2.5042,9.8015,64.512,-0.4802,-0.0394,-0.7442,-96.8698
11:21:39:981,-0.3089,2.0568,11.4041,64.2393,-0.7474,-0.1735,-0.9837,-96.759
11:21:40:001,-0.8158,1.5851,12.7094,63.9248,-0.6984,-0.148,-0.8975,-97.0517
11:21:40:021,-1.1373,1.815,13.347,63.5815,-0.461,0.1863,-0.5568,-97.7321
11:21:40:041,-1.5211,2.6314,13.4463,63.1003,-0.2129,0.6494,-0.083,-98.3278
11:21:40:062,-1.3373,3.3066,13.2458,62.5762,-0.2119,0.8656,0.2885,-98.5036
11:21:40:081,-0.3487,3.4505,13.5488,62.3713,-0.4141,0.5888,0.3833,-98.2465
11:21:40:101,0.5316,2.7055,13.9768,62.1293,-0.3119,0.2225,0.2342,-97.9676
11:21:40:122,0.6684,1.3482,13.3144,61.9621,0.214,-0.1554,-0.1437,-98.0788
11:21:40:142,0.0917,0.6812,11.6229,61.7617,0.5025,-0.5504,-0.5036,-98.6548
11:21:40:162,-0.2272,0.2187,10.4203,61.3591,0.2427,-0.7761,-0.609,-99.5
11:21:40:182,0.1492,-0.2047,9.9619,61.0863,-0.2651,-0.6601,-0.5164,-100.5722
11:21:40:202,0.7583,-0.2048,9.574,60.8211,-0.5973,-0.2172,-0.378,-101.5699
11:21:40:224,1.0308,0.2139,9.0651,60.1476,-0.6377,0.3002,-0.3162,-102.2476
11:21:40:242,0.9542,0.6293,8.2622,59.7815,-0.4418,0.6409,-0.3418,-102.5398
11:21:40:262,0.6122,0.89,7.1915,59.5839,-0.1192,0.6462,-0.4429,-102.5398
11:21:40:282,0.2657,0.9839,6.116,58.8921,0.1703,0.3428,-0.5366,-102.2829
11:21:40:302,-0.2239,1.0489,5.427,58.3083,0.3407,-0.1192,-0.5781,-101.8838
11:21:40:322,-0.7801,1.2789,5.2753,57.9947,0.4663,-0.4567,-0.4578,-101.3358
11:21:40:342,-0.8115,1.4416,5.3977,57.2522,0.6015,-0.6037,-0.2023,-100.4634
11:21:40:362,-0.5034,1.6698,5.5755,56.8505,0.6537,-0.6878,-0.0277,-99.5505
11:21:40:382,-0.3597,2.3697,6.3274,56.2807,0.5291,-0.708,0.0649,-98.6287
11:21:40:403,-0.1541,3.0457,7.5256,55.8207,0.2395,-0.7921,0.066,-97.3432
11:21:40:423,-0.1105,3.2098,9.0413,55.3916,-0.0575,-0.7197,-0.0319,-96.0641
11:21:40:442,-0.2844,3.0828,10.5705,54.9778,-0.1554,-0.247,-0.033,-95.1457
11:21:40:462,-0.4527,2.9696,11.2482,54.3591,-0.0639,0.3439,0.0181,-94.7141
11:21:40:483,-1.0151,3.5644,11.3625,53.9111,-0.1033,0.7091,0.017,-94.5096
11:21:40:501,-1.7884,3.9024,11.9331,53.4346,-0.3705,0.6122,0.0256,-93.7942
11:21:40:522,-2.1916,3.7446,13.2824,52.8672,-0.6058,0.1852,0.1522,-92.7649
11:21:40:542,-1.8536,2.8599,14.6208,52.1818,-0.5068,-0.2885,0.2949,-92.1039
11:21:40:562,-1.3098,1.8743,15.173,51.5056,-0.1203,-0.6281,0.2981,-92.3641
11:21:40:582,-0.8221,0.9393,14.6468,51.0946,0.3045,-0.6739,0.1661,-93.2338
11:21:40:602,-0.7647,0.495,13.3495,50.4695,0.5323,-0.5376,-0.0192,-94.4475
11:21:40:622,-0.7541,0.1934,11.8976,49.9732,0.5142,-0.428,-0.1331,-95.7633
11:21:40:641,-0.6257,0.0899,10.554,49.8853,0.3322,-0.263,-0.2044,-97.1933
11:21:40:662,-0.5323,0.1702,9.4313,49.7099,0.0905,0.0117,-0.2374,-98.5661
11:21:40:697,-0.3519,0.1682,8.5385,49.1588,-0.1171,0.3556,-0.2044,-99.7117
11:21:40:704,-0.2104,0.1311,7.6951,49.0291,-0.2055,0.6441,-0.1352,-100.6765
11:21:40:722,-0.2929,0.2435,6.7792,48.6271,-0.1821,0.84,-0.0554,-101.5006
11:21:40:742,-0.4549,0.267,5.9559,48.4292,-0.1448,0.8315,0.0075,-102.1611
11:21:40:761,-0.8631,0.3896,5.5058,48.0061,-0.1533,0.5707,0.1097,-102.7706
11:21:40:782,-1.1378,0.6795,5.3873,47.9199,-0.0926,0.2832,0.2864,-103.3705
11:21:40:801,-1.1667,0.8823,5.4522,47.4449,0.0479,0.0628,0.4599,-103.6307
11:21:40:821,-0.8326,0.9964,5.7934,46.9011,0.1586,-0.1661,0.5398,-103.5126
11:21:40:841,-0.6595,1.3608,6.3655,46.3142,0.1341,-0.4716,0.5238,-103.2563
11:21:40:861,-0.3286,1.6352,7.3106,45.6981,0.016,-0.7346,0.4397,-102.6315
11:21:40:882,0.1101,1.5189,8.5092,45.4495,-0.0798,-0.8432,0.2726,-101.9584
11:21:40:902,0.5062,1.2793,9.7132,45.1027,-0.049,-0.5951,0.0937,-101.6445
11:21:40:923,0.6796,1.1945,10.3542,44.8855,0.0213,-0.1842,-0.115,-101.6445
11:21:40:941,0.5578,1.4655,10.6684,44.6259,-0.1065,0.0298,-0.3961,-101.6445
11:21:40:962,-0.0668,1.9288,11.1916,44.4971,-0.4557,0.1043,-0.6196,-101.4925
11:21:40:984,-0.7561,2.4536,12.1613,44.2579,-0.7623,0.2576,-0.576,-101.0155
11:21:41:001,-0.9114,2.7459,13.1601,44.3309,-0.8485,0.4237,-0.3428,-100.1197
11:21:41:021,-0.0587,2.316,13.7785,43.9455,-0.8389,0.411,-0.2736,-99.0657
11:21:41:041,0.3935,1.7603,14.293,43.6961,-0.8624,0.2853,-0.4834,-98.3904
11:21:41:062,-0.0563,0.9899,14.7682,43.4133,-0.6516,-0.0085,-0.6835,-97.8985
11:21:41:083,-0.3632,-0.1409,14.3661,42.9242,-0.2853,-0.5227,-0.8177,-97.6317
11:21:41:102,-0.4477,-0.7962,13.5338,42.9495,-0.0468,-1.1381,-0.8336,-97.8917
11:21:41:122,-0.2124,-0.684,12.4596,42.8515,0.049,-1.4873,-0.6846,-98.5033
11:21:41:142,0.4136,-0.4822,11.1339,43.0506,0.1459,-1.351,-0.4046,-98.9789
11:21:41:162,0.9446,-0.3981,9.5575,43.0657,0.3013,-0.7964,-0.1352,-99.2734
11:21:41:181,0.9327,-0.1634,7.7826,42.787,0.4333,-0.0468,0.0468,-99.473
11:21:41:202,0.6208,0.1881,6.514,42.9212,0.6484,0.8219,0.2395,-99.473
11:21:41:221,0.2524,0.3254,5.6208,42.7469,0.8432,1.2893,0.3545,-99.349
11:21:41:242,-0.178,0.7963,5.1435,42.6096,0.9699,1.2148,0.3428,-99.1935
11:21:41:263,-0.3579,1.653,4.7,42.7944,0.9923,0.6303,0.2736,-98.5648
11:21:41:282,0.0189,2.1011,4.684,42.5811,0.9784,-0.1757,0.0852,-96.6921
11:21:41:301,0.3617,2.0559,4.8184,42.3845,0.9135,-0.8027,-0.2672,-94.8485
11:21:41:321,-0.0772,2.235,5.4325,42.0514,0.7453,-0.8975,-0.4514,-93.4371
11:21:41:342,-0.5327,2.3618,6.3089,41.8279,0.4525,-0.5951,-0.3237,-91.8523
11:21:41:362,-0.5264,1.7806,7.631,41.3027,0.0149,-0.2832,-0.1299,-90.185
11:21:41:381,-0.8015,1.7831,9.1959,40.6742,-0.3599,0.1757,0.1586,-89.7518
11:21:41:402,-1.0087,2.0769,10.4431,40.4026,-0.4663,0.6995,0.4961,-89.6331
11:21:41:424,-0.8962,2.4308,11.0266,40.1034,-0.3322,1.0945,0.7389,-89.5087
11:21:41:442,-0.5783,2.9166,11.3525,40.0181,-0.2715,0.8421,0.8155,-89.2876
11:21:41:462,-0.3218,3.2186,12.1741,39.7913,-0.3311,0.2502,0.8656,-88.9031
11:21:41:481,0.0434,3.511,13.0625,39.5214,-0.1703,0.0032,0.9784,-88.5743
11:21:41:502,0.8215,3.5285,13.055,39.1915,0.1533,0.0884,0.9135,-88.319
11:21:41:521,1.5354,3.7855,12.3461,38.8823,0.2694,0.1192,0.4631,-88.319
11:21:41:542,1.342,3.5136,11.6603,38.4243,0.1586,-0.0405,-0.2704,-88.1678
11:21:41:562,0.1491,2.473,11.4432,37.9082,0.0969,-0.3386,-0.7964,-88.1678
11:21:41:582,-0.7542,1.2238,11.2886,37.8341,0.066,-0.6718,-0.9326,-88.5111
11:21:41:601,-0.8497,0.3976,11.2819,37.549,-0.0639,-0.9348,-0.823,-89.8218
11:21:41:621,-0.3338,0.0328,11.2793,37.2354,-0.3673,-0.8453,-0.6867,-91.6581
11:21:41:642,0.263,-0.2861,11.1582,37.1196,-0.7229,-0.2278,-0.6942,-93.3142
11:21:41:662,0.1811,-0.5075,10.6006,36.7703,-0.9177,0.5919,-0.7889,-94.7344
11:21:41:682,-0.459,-0.6336,9.3357,36.2333,-0.8517,1.2382,-0.7857,-96.0638
11:21:41:702,-1.1358,-0.4553,7.8652,36.0643,-0.6047,1.5576,-0.5621,-97.3987
11:21:41:722,-1.3951,-0.2091,6.6048,35.6996,-0.263,1.4532,-0.1586,-98.7918
11:21:41:744,-1.1206,0.099,5.8353,35.4877,0.0287,0.9912,0.1703,-100.1647
11:21:41:762,-0.9808,0.6836,5.5929,35.249,0.3311,0.3588,0.2875,-101.0189
11:21:41:783,-1.1576,1.2351,5.7548,34.7022,0.5611,-0.3045,0.3343,-101.0189
11:21:41:801,-1.0749,1.5485,6.0868,34.4449,0.6654,-0.8208,0.444,-100.4943
11:21:41:821,-0.6132,1.729,6.5923,33.8126,0.5824,-1.0338,0.4727,-99.7824
11:21:41:841,-0.2135,2.2486,7.4957,33.3259,0.3726,-0.9848,0.3588,-99.1382
11:21:41:861,-0.1277,2.393,8.7077,32.8001,0.1405,-0.7261,0.1703,-98.4314
11:21:41:882,-0.1693,2.283,9.792,32.2663,0.0128,-0.5483,-0.0011,-97.9147
11:21:41:902,-0.0327,2.0612,10.5214,31.9017,-0.1395,-0.4695,-0.1267,-97.6528
11:21:41:923,0.014,2.003,11.2679,31.6006,-0.4386,-0.3513,-0.2023,-97.6528
11:21:41:942,-0.0914,2.49,12.6299,31.4413,-0.6686,-0.0586,-0.1118,-97.6528
11:21:41:962,0.2615,2.015,13.1978,31.1549,-0.6313,0.0756,0.0064,-97.6528
11:21:41:982,-0.3094,4.0493,12.7086,30.9553,-0.6122,0.6015,0.0649,-97.7763
11:21:42:001,0.4044,3.037,13.1953,30.8751,-0.1182,0.5046,-0.0245,-97.0436
11:21:42:022,0.8494,1.6596,12.565,30.712,-0.0948,0.2757,-0.2938,-96.8571
11:21:42:042,0.5385,0.5871,12.7155,30.1975,0.0458,0.116,-0.4131,-97.1085
11:21:42:062,0.1792,-0.2642,12.3538,29.9032,0.4163,-0.0437,-0.4014,-97.7074
11:21:42:081,-0.0564,-0.5608,11.2033,29.5832,0.658,-0.1373,-0.2491,-98.5991
11:21:42:102,0.1098,-0.3577,10.185,29.3764,0.3907,-0.3024,-0.1043,-99.5839
11:21:42:122,0.6686,0.0062,9.9671,29.2114,-0.2779,-0.2576,-0.0149,-100.4436
11:21:42:142,1.3077,0.1042,10.2158,29.0851,-0.6792,0.0767,-0.017,-100.9958
11:21:42:163,1.3669,0.5938,9.874,28.9419,-0.5834,0.461,-0.1459,-101.3124
11:21:42:182,0.968,1.124,8.5928,28.8437,-0.2193,0.7059,-0.2704,-101.3124
11:21:42:203,0.4109,1.5194,7.0332,28.8137,0.1469,0.6132,-0.3577,-101.1117
11:21:42:222,-0.1069,1.6122,5.8183,28.8079,0.3971,0.1693,-0.3992,-100.6485
11:21:42:243,-0.3848,1.558,4.9908,28.7476,0.5323,-0.3109,-0.3737,-99.9293
11:21:42:262,-0.4388,1.5129,4.5993,28.562,0.5717,-0.5728,-0.296,-99.0251
11:21:42:282,-0.3306,1.4583,4.5786,28.3299,0.5462,-0.643,-0.2608,-98.0386
11:21:42:302,-0.2077,1.5785,5.0268,28.0768,0.4418,-0.6963,-0.28,-97.1678
11:21:42:321,0.0608,1.9864,5.7784,28.1137,0.23,-0.6686,-0.3141,-96.3468
11:21:42:342,0.1204,2.2128,6.925,27.9446,-0.1182,-0.543,-0.4503,-95.4807
11:21:42:362,-0.5226,2.2539,8.7855,27.9646,-0.363,-0.2789,-0.4812,-94.7497
11:21:42:382,-1.1074,2.2577,10.2896,27.8265,-0.4014,-0.0979,-0.3109,-94.1045
11:21:42:412,-0.9092,2.1845,11.5447,27.684,-0.4024,0.0756,-0.0596,-93.5249
11:21:42:422,-0.5144,2.3442,12.5098,27.5985,-0.3673,0.2726,0.0522,-93.1284
11:21:42:440,-0.6559,2.6862,13.2628,27.5362,-0.2843,0.395,0.0862,-92.7558
11:21:42:461,-1.0484,2.777,13.6749,27.1964,-0.0021,0.4897,0.2747,-92.3365
11:21:42:481,-1.2007,3.183,13.337,27.0172,0.4557,0.5398,0.5526,-91.9593
11:21:42:502,-0.8999,3.3697,12.3897,26.8544,0.7176,0.2726,0.5983,-91.5354
11:21:42:522,-0.6538,3.4526,11.886,26.8172,0.6335,-0.0447,0.33,-91.0701
11:21:42:542,-0.8728,2.5244,11.8545,26.9276,0.4291,-0.1852,-0.0543,-90.5791
11:21:42:562,-1.1901,1.1647,12.1434,26.973,0.3332,-0.2033,-0.2651,-90.3604
11:21:42:582,-1.3557,0.0751,12.1268,27.1697,0.2757,-0.2864,-0.3077,-90.5094
11:21:42:602,-1.4057,-0.2923,11.9463,27.3314,0.1746,-0.2917,-0.1959,-90.9461
11:21:42:621,-1.0451,-0.3749,11.51,27.3763,0.0468,-0.0713,-0.0224,-91.4751
11:21:42:641,-0.4768,-0.3338,10.5601,27.7215,-0.0649,0.2928,0.0532,-91.9545
11:21:42:662,-0.2794,-0.1666,9.1718,28.2391,-0.0543,0.6111,0.0756,-92.3468
11:21:42:706,-0.4843,0.1781,7.5836,28.5028,0.0554,0.7783,0.1501,-92.681
11:21:42:707,-0.6396,0.5577,6.0256,28.8076,0.1618,0.7346,0.297,-92.9022
11:21:42:721,-0.6742,0.9255,4.8587,28.8993,0.1863,0.5078,0.4738,-92.9022
11:21:42:741,-0.4969,1.3886,4.324,28.9727,0.1011,0.1544,0.6345,-92.7057
11:21:42:762,-0.3416,2.0683,4.3434,28.9648,-0.0596,-0.2023,0.6942,-92.1899
11:21:42:782,0.0738,2.3137,4.9834,29.048,-0.2172,-0.5419,0.6345,-91.4121
11:21:42:801,0.6435,2.1111,5.8548,29.2413,-0.3481,-0.7463,0.4035,-90.8297
11:21:42:821,0.793,2.0295,6.9847,29.4617,-0.543,-0.6835,0.0681,-90.5669
11:21:42:841,0.3046,1.8594,8.3169,29.5929,-0.7208,-0.3066,-0.2321,-90.4137
11:21:42:861,-0.2543,1.505,9.6226,29.9162,-0.7016,0.2055,-0.3577,-90.2643
11:21:42:882,-0.6174,1.2436,10.4612,29.9496,-0.51,0.4972,-0.4322,-90.1565
11:21:42:902,-1.1649,0.915,11.1276,30.0157,-0.3215,0.5557,-0.4365,-90.1565
11:21:42:924,-1.6509,1.1235,11.631,30.0021,-0.2204,0.3652,-0.3577,-90.1565
11:21:42:942,-1.724,1.5552,11.9913,30.0587,-0.1948,0.1618,-0.23,-90.1565
11:21:42:963,-1.257,1.9631,12.443,29.9159,-0.1757,0.1384,-0.0713,-90.1565
11:21:42:984,-0.7004,2.6565,12.7934,30.0456,-0.0192,0.2385,0.0564,-90.1565
11:21:43:002,0.1599,2.9959,12.5881,30.1994,0.0767,0.1107,0.0277,-90.0003
11:21:43:023,0.8757,2.6178,12.4111,30.3298,-0.0383,-0.0511,-0.2151,-89.7926
11:21:43:041,0.9138,1.5595,12.5671,30.4678,-0.0394,0.0298,-0.494,-89.6793
11:21:43:066,0.3564,0.2472,12.098,30.7278,0.1352,0.0021,-0.6878,-89.6793
11:21:43:082,-0.3945,-0.4744,11.324,30.8224,0.2161,-0.2278,-0.692,-89.8232
11:21:43:101,-0.7459,-0.6056,10.6752,31.0621,-0.0309,-0.5738,-0.4844,-90.0819
11:21:43:121,-0.1267,-0.4663,10.4765,31.4007,-0.4759,-0.6388,-0.1522,-90.3483
11:21:43:141,0.7412,-0.2625,10.1124,31.7203,-0.7335,-0.2278,0.1129,-90.5231
11:21:43:162,1.2033,0.0765,9.4407,31.907,-0.7186,0.1852,0.1256,-90.624
11:21:43:181,0.9296,0.856,8.5494,32.3326,-0.5036,0.2779,-0.0745,-90.624
11:21:43:201,0.3017,1.3937,7.5001,32.6281,-0.2364,0.0916,-0.2726,-90.4865
11:21:43:222,-0.1426,1.3657,6.4846,32.4431,-0.016,-0.1246,-0.3758,-90.1744
11:21:43:242,-0.6359,1.3477,5.8733,32.6349,0.1001,-0.2811,-0.3854,-89.7721
11:21:43:261,-1.2141,1.4932,5.7552,32.8137,0.148,-0.3045,-0.1863,-89.2837
11:21:43:281,-1.1097,1.2814,5.925,32.6948,0.2545,-0.2481,0.1299,-88.6664
11:21:43:302,-0.3935,1.072,6.2435,32.7975,0.2715,-0.363,0.2608,-88.2481
11:21:43:322,-0.1969,1.5857,6.9654,32.8539,0.1831,-0.4514,0.214,-88.0634
11:21:43:341,-0.3279,1.9601,8.0203,32.8839,0.0511,-0.4897,0.1778,-87.8988
11:21:43:362,-0.4468,1.9356,9.0171,32.5761,-0.0128,-0.3609,0.2395,-87.7175
11:21:43:382,-0.4368,2.0013,9.9037,32.6537,-0.0287,-0.116,0.3652,-87.7175
11:21:43:402,-0.283,2.3094,10.8352,32.8568,-0.0905,0.0671,0.4493,-87.7175
11:21:43:422,-0.2892,2.4391,11.7832,32.6141,-0.1352,0.1512,0.4291,-87.7175
11:21:43:442,-0.4362,2.208,12.6968,33.0133,-0.1267,0.0543,0.4227,-87.7175
11:21:43:461,-0.7262,2.2264,13.5125,33.1664,-0.0905,-0.0437,0.544,-87.8313
11:21:43:481,-0.7355,2.2872,14.1973,33.1721,0.0468,-0.0021,0.7655,-87.979
11:21:43:502,-0.1783,1.9316,14.4245,33.4197,0.2821,-0.0319,0.856,-88.184
11:21:43:522,0.3405,1.4805,14.1721,34.0079,0.5217,-0.0937,0.6037,-88.5054
11:21:43:541,0.094,0.675,13.1613,34.2807,0.6814,-0.0841,0.2214,-88.9065
11:21:43:561,-0.5584,-0.0592,11.9025,34.7312,0.6814,-0.0415,-0.0522,-89.3605
11:21:43:581,-1.1041,-0.5816,10.9532,35.0661,0.4195,-0.1022,-0.1054,-89.8656
11:21:43:601,-1.1483,-0.9996,10.631,35.2941,0.0202,-0.1097,0.0011,-90.3815
11:21:43:621,-0.8383,-1.1344,10.4897,35.4764,-0.2364,0.0767,0.1107,-90.907
11:21:43:641,-0.4505,-0.9832,9.9082,35.8561,-0.2587,0.2981,0.1363,-91.3741
11:21:43:662,-0.3027,-0.5864,8.7262,36.1736,-0.1373,0.4291,0.1192,-91.7693
11:21:43:681,-0.4467,-0.361,7.3908,36.5067,0.0319,0.5057,0.1618,-92.1293
11:21:43:702,-0.6582,-0.1402,6.1292,36.4671,0.1916,0.5408,0.3354,-92.4392
11:21:43:721,-0.5691,0.1324,5.2435,36.719,0.2938,0.4834,0.6015,-92.7621
11:21:43:743,-0.3712,0.6123,4.8678,36.8307,0.3119,0.3449,0.8411,-93.0585
11:21:43:765,-0.0847,1.3463,4.8989,37.0606,0.2662,0.1959,0.9582,-93.2872
11:21:43:782,0.1654,1.9066,5.2794,37.1653,0.1735,0.0575,0.8432,-93.4647
11:21:43:801,0.4258,1.9211,6.0992,37.0807,0.0373,-0.1767,0.6005,-93.6685
11:21:43:822,0.7659,1.6306,7.3168,37.1115,-0.1086,-0.3801,0.3652,-93.9254
11:21:43:842,0.8751,1.6957,8.7273,37.0807,-0.1821,-0.3524,0.0798,-94.2653
11:21:43:862,0.4382,1.8049,9.7718,36.9073,-0.1725,-0.0053,-0.1437,-94.5469
11:21:43:882,-0.1927,1.7385,10.4922,37.0246,-0.1033,0.363,-0.1565,-94.7639
11:21:43:901,-0.2529,1.6016,10.8987,37.2766,-0.0532,0.33,-0.0745,-94.9511
11:21:43:922,-0.1433,1.7075,11.5409,37.1062,-0.1863,-0.0522,-0.0447,-95.1526
11:21:43:942,-0.1278,2.3982,12.7365,37.1848,-0.297,-0.1299,0.049,-95.3675
11:21:43:961,-0.0645,3.2739,13.7133,37.1583,-0.1427,0.0979,0.1672,-95.5842
11:21:43:981,0.5033,3.3793,13.6713,37.3811,0.0564,0.1129,0.1384,-95.801
11:21:44:001,1.153,2.5431,13.1834,37.426,-0.0575,0.0639,-0.132,-96.0275
11:21:44:022,0.8731,1.4396,13.3002,37.7234,-0.131,0.131,-0.4418,-96.2668
11:21:44:041,0.2107,0.3596,13.0258,38.0904,0.0596,0.1075,-0.6047,-96.4464
11:21:44:062,-0.2979,-0.319,12.03,38.4556,0.2342,-0.0213,-0.61,-96.5604
11:21:44:081,-0.2356,-0.5993,10.9762,38.8129,0.0468,-0.2821,-0.4802,-96.5604
11:21:44:101,0.4291,-0.7601,10.2435,39.3095,-0.3694,-0.3652,-0.3535,-96.5604
11:21:44:121,0.7604,-0.5791,9.4478,39.3353,-0.6643,-0.0884,-0.28,-96.5604
11:21:44:141,0.5251,0.0257,8.627,39.819,-0.6313,0.3449,-0.2246,-96.4029
11:21:44:162,0.0253,0.7263,7.6688,40.2584,-0.3375,0.5696,-0.2108,-96.2075
11:21:44:181,-0.2108,0.959,6.4539,40.3948,0.0394,0.4503,-0.2044,-95.9685
11:21:44:201,-0.2774,1.0374,5.2051,40.2531,0.2843,0.0681,-0.1927,-95.6915
11:21:44:221,-0.3992,1.1234,4.5658,40.8126,0.3205,-0.3875,-0.1629,-95.3806
11:21:44:241,-0.3838,1.2726,4.5656,40.8778,0.2502,-0.7048,-0.0586,-95.0189
11:21:44:262,-0.1344,1.4011,4.916,41.1327,0.2183,-0.6995,0.0373,-94.6551
11:21:44:281,0.0919,1.433,5.484,41.3992,0.1842,-0.4951,0.0256,-94.3152
11:21:44:300,0.2676,1.6258,6.698,41.7237,0.0245,-0.3854,-0.0043,-94.0018
11:21:44:321,0.4378,1.9592,8.2325,41.6048,-0.1842,-0.3311,-0.0671,-93.7046
11:21:44:341,0.1921,2.3472,9.6625,41.865,-0.3247,-0.0554,-0.1757,-93.4114
11:21:44:361,-0.1652,2.1422,10.7722,42.1959,-0.3886,0.3013,-0.165,-93.0963
11:21:44:381,-0.5013,1.8946,11.665,42.5582,-0.4333,0.4951,0.0011,-92.7428
11:21:44:401,-0.6241,2.1525,12.729,43.3605,-0.4514,0.3386,0.1863,-92.3909
11:21:44:423,-0.4492,2.3789,13.9476,43.854,-0.3939,0.0617,0.313,-92.0429
11:21:44:440,-0.2423,2.49,14.8625,44.1565,-0.1629,0.066,0.445,-91.711
11:21:44:461,0.08,2.4925,14.8782,44.5737,0.1533,0.1373,0.5036,-91.3965
11:21:44:481,0.2996,2.07,14.2738,44.9822,0.2928,0.0383,0.3077,-91.114
11:21:44:501,0.0359,1.0996,13.8144,45.2881,0.3066,-0.0468,-0.0213,-90.8033
11:21:44:524,-0.6266,0.2296,13.0351,45.6396,0.4961,0.0075,-0.2502,-90.4546
11:21:44:541,-1.3181,-0.3662,11.6444,46.1598,0.6069,0.0319,-0.3354,-90.0485
11:21:44:562,-1.6571,-0.4828,10.3888,46.2881,0.4365,-0.1171,-0.214,-89.6255
11:21:44:581,-1.1942,-0.6028,9.7067,46.5475,0.0277,-0.2427,-0.0649,-89.2138
11:21:44:602,-0.4819,-0.7223,9.357,46.8381,-0.3854,-0.0894,-0.0873,-88.8052
11:21:44:621,-0.228,-0.6929,9.0258,47.1346,-0.56,0.2395,-0.1693,-88.369
11:21:44:641,-0.4193,-0.6594,8.3746,47.456,-0.4642,0.5355,-0.1906,-87.9182
11:21:44:661,-0.6653,-0.6055,7.3652,48.0275,-0.2225,0.6697,-0.0767,-87.4659
11:21:44:683,-0.8546,-0.4134,6.463,48.3073,0.0426,0.6345,0.1448,-87.0218
11:21:44:702,-0.9028,-0.0373,5.7484,48.6318,0.2651,0.4674,0.4216,-86.5944
11:21:44:726,-0.8129,0.5214,5.3523,48.7789,0.4227,0.2236,0.6697,-86.1771
11:21:44:741,-0.5249,1.1722,5.3328,48.6928,0.4823,-0.0426,0.7676,-85.7721
11:21:44:761,-0.1597,1.7554,5.7006,48.6393,0.3811,-0.3939,0.6292,-85.4031
11:21:44:781,0.0703,2.0973,6.3298,48.8776,0.0905,-0.7154,0.3322,-85.0915
11:21:44:802,0.3647,1.7692,7.8029,49.0666,-0.2065,-0.7091,0.0767,-84.7984
11:21:44:821,0.2725,1.2159,9.4052,49.4897,-0.2364,-0.2513,-0.1097,-84.4532
11:21:44:841,0.0282,1.019,10.4591,49.769,-0.0213,0.1799,-0.1735,-84.0287
11:21:44:861,-0.0702,1.0312,10.798,49.7857,0.0319,0.1235,-0.2481,-83.5709
11:21:44:881,-0.3152,1.3961,11.2665,50.1073,-0.1693,-0.0649,-0.3354,-83.0887
11:21:44:901,-0.6996,1.683,12.2432,50.5888,-0.3141,0.0394,-0.23,-82.6017
11:21:44:922,-1.0085,1.9713,13.4383,50.3816,-0.2087,0.3364,0.1107,-82.1302
11:21:44:941,-0.546,2.4795,14.1128,50.4809,0.0767,0.379,0.4131,-81.7076
11:21:44:963,0.4775,2.3167,13.9269,50.3735,0.2555,0.2076,0.3194,-81.3444
11:21:44:980,1.076,1.2699,13.4191,49.8882,0.2981,0.0969,-0.0586,-81.0346
11:21:45:001,0.5264,0.0146,12.8019,50.1062,0.4322,0.0138,-0.3843,-80.6895
11:21:45:021,-0.323,-0.5759,11.8735,50.0527,0.527,-0.115,-0.4674,-80.2995
11:21:45:041,-0.7202,-0.768,10.9164,49.8816,0.4088,-0.2236,-0.264,-79.8996
11:21:45:061,-0.1898,-0.619,10.1119,49.6904,0.1203,-0.1491,0.0777,-79.527
11:21:45:081,0.703,-0.0951,9.3271,49.7923,-0.1672,0.1565,0.3247,-79.1722
11:21:45:101,1.3402,0.6001,8.501,49.9119,-0.33,0.3748,0.3002,-78.8172
11:21:45:121,1.3517,1.1502,7.5813,50.5261,-0.3268,0.3961,0.0287,-78.4757
11:21:45:142,0.8395,1.4658,6.5708,50.7478,-0.2023,0.2481,-0.2289,-78.144
11:21:45:162,0.2606,1.439,5.5334,51.7066,-0.0192,-0.0256,-0.3811,-77.7896
11:21:45:182,-0.2293,1.3681,4.7667,51.9999,0.0841,-0.197,-0.4067,-77.3676
11:21:45:201,-0.6399,1.3348,4.4138,51.934,0.1416,-0.2214,-0.3396,-76.8604
11:21:45:222,-0.9725,1.4206,4.2636,52.0637,0.2172,-0.2214,-0.1544,-76.2745
11:21:45:242,-0.7834,1.4169,4.3969,51.8107,0.2757,-0.3748,0.1118,-75.6187
11:21:45:263,0.0375,1.3224,5.294,51.5488,0.1576,-0.7751,0.1938,-75.0574
11:21:45:282,0.6113,1.6006,7.1293,51.3817,-0.2065,-1.2009,0.0394,-74.6941
11:21:45:302,0.545,1.9896,9.5267,51.27,-0.6186,-0.9997,-0.1512,-74.3822
11:21:45:321,0.0916,1.9119,12.0748,51.3981,-0.7357,-0.3386,-0.1895,-74.0448
11:21:45:341,-0.2696,1.7927,13.5015,51.1568,-0.4876,0.4472,-0.0798,-73.6766
11:21:45:361,-0.5733,2.2252,13.758,50.8995,-0.2044,0.8645,0.066,-73.3193
11:21:45:382,-0.8491,2.7353,13.6883,50.8511,-0.1533,0.7974,0.2119,-72.9577
11:21:45:401,-0.8036,3.1333,14.123,50.7473,-0.1597,0.4322,0.4163,-72.5924
11:21:45:422,-0.2177,3.065,14.5309,50.7919,-0.0309,0.0426,0.5323,-72.2828
11:21:45:441,0.2686,2.6511,14.5443,50.5338,0.1256,-0.231,0.3716,-72.0274
11:21:45:461,0.2515,1.4894,14.2774,50.819,0.3141,-0.1884,0.0256,-71.8466
11:21:45:482,-0.3889,0.4188,13.3081,50.4578,0.5621,0.0287,-0.2395,-71.7029
11:21:45:501,-1.2405,-0.2421,11.679,50.6087,0.6952,0.2385,-0.3982,-71.5937
11:21:45:520,-2.0181,-0.4983,10.2322,50.4208,0.5579,0.2129,-0.4014,-71.5937
11:21:45:542,-2.2832,-0.5442,9.3246,50.1689,0.2651,0.0426,-0.2395,-71.5937
11:21:45:561,-1.9432,-0.676,8.8461,49.6866,0.0181,-0.0373,-0.0554,-71.5937
11:21:45:581,-1.5154,-0.7664,8.3694,49.2967,-0.0948,-0.0053,0.0117,-71.5937
11:21:45:601,-1.4513,-0.5763,7.6132,48.903,-0.1097,0.1011,0.0735,-71.5937
11:21:45:621,-1.3922,-0.3825,6.7337,48.9,-0.0735,0.2183,0.2353,-71.7019
11:21:45:640,-1.1509,-0.2385,6.0642,48.8589,-0.017,0.2555,0.4525,-71.8248
11:21:45:662,-0.7195,-0.1166,5.6407,49.1915,0.0884,0.2321,0.6526,-71.9547
11:21:45:682,-0.4486,0.4132,5.4797,49.2973,0.2278,0.1906,0.7357,-72.1024
11:21:45:701,-0.4501,1.3705,5.5582,49.2627,0.2704,0.0586,0.5973,-72.1024
11:21:45:721,-0.8626,2.3728,5.7767,49.3265,0.1682,-0.0373,0.2917,-72.1024
11:21:45:741,-1.2682,2.9369,6.3614,49.3616,-0.0192,0.0245,0.0138,-71.8637
11:21:45:765,-1.2959,2.7846,7.4185,49.2223,-0.3002,0.0671,-0.2257,-71.5283
11:21:45:781,-1.1783,2.2327,8.849,49.091,-0.5313,0.3641,-0.4152,-71.2742
11:21:45:801,-0.9248,1.5297,10.134,49.1589,-0.5376,0.7591,-0.4865,-71.1536
11:21:45:822,-0.5619,0.5383,10.7731,49.4847,-0.543,0.7783,-0.5824,-71.1536
11:21:45:841,-1.0353,0.2617,11.4872,49.204,-0.8177,0.4269,-0.6111,-71.1536
11:21:45:861,-1.8616,0.7196,13.0257,49.4001,-1.0125,0.0937,-0.1852,-71.1536
11:21:45:881,-2.0542,1.8376,14.7401,49.4867,-0.7463,-0.1097,0.725,-71.1536
11:21:45:901,-0.4168,1.9972,15.5628,48.8624,-0.0149,-0.4152,1.4788,-71.1536
11:21:45:922,2.2317,1.685,15.229,48.6028,0.6047,-0.9475,1.3127,-71.3814
11:21:45:942,3.4668,1.1183,14.1356,48.539,0.8602,-1.1977,0.4078,-71.7869
11:21:45:962,2.5921,0.2522,12.8804,48.0107,0.9103,-0.7942,-0.4205,-72.2488
11:21:45:982,1.0061,-0.1622,11.4931,47.945,0.9007,-0.3024,-0.7612,-72.702
11:21:46:002,0.181,-0.4562,10.1674,47.7404,0.7357,0.0266,-0.7112,-73.1441
11:21:46:021,0.1861,-0.5609,9.2002,47.4336,0.3183,0.0926,-0.5451,-73.5863
11:21:46:042,0.3968,-0.2939,8.707,47.4736,-0.1672,0.1043,-0.4237,-74.0044
11:21:46:062,0.5143,0.2566,8.4308,47.2004,-0.4578,0.2417,-0.3439,-74.3527
11:21:46:081,0.3429,0.7764,8.0586,47.4151,-0.4205,0.4631,-0.3545,-74.6073
11:21:46:101,-0.0886,1.2377,7.2555,47.3499,-0.1618,0.544,-0.3907,-74.7635
11:21:46:122,-0.4338,1.5656,6.318,47.4749,0.148,0.395,-0.3822,-74.7635
11:21:46:142,-0.5838,1.6457,5.4819,47.5637,0.362,-0.0064,-0.3577,-74.7635
11:21:46:161,-0.651,1.6511,5.0322,47.5044,0.4525,-0.4312,-0.3077,-74.607
11:21:46:180,-0.6025,1.6369,5.0097,47.2675,0.4759,-0.6899,-0.2076,-74.3839
11:21:46:200,-0.3951,1.7098,5.4162,47.0184,0.4525,-0.7112,-0.1352,-74.1755
11:21:46:221,-0.0178,1.936,5.9672,46.604,0.3013,-0.6186,-0.1299,-74.0207
11:21:46:241,0.3626,2.1989,6.8148,46.2938,-0.0373,-0.5536,-0.2821,-73.9166
11:21:46:261,0.149,2.3369,7.981,46.6606,-0.4067,-0.264,-0.5483,-73.9166
11:21:46:281,-0.7027,2.6199,8.9102,46.2321,-0.6399,0.3109,-0.8091,-73.7985
11:21:46:302,-1.9205,2.6534,9.3656,46.0942,-0.8517,0.8485,-1.0487,-73.5486
11:21:46:321,-3.4618,2.5128,10.0074,46.0386,-1.1211,1.071,-1.1083,-73.1585
11:21:46:341,-4.6719,2.1045,11.23,45.963,-1.3106,0.8666,-0.8091,-72.6308
11:21:46:361,-4.8576,1.3587,12.887,45.6937,-1.2286,0.4184,-0.264,-72.1294
11:21:46:381,-4.5994,1.0359,14.2149,45.8399,-0.8017,0.2672,0.3471,-71.7952
11:21:46:402,-3.9451,1.1213,14.9271,45.7368,-0.2055,0.2566,0.9678,-71.5964
11:21:46:423,-2.5393,0.9473,15.1264,45.5428,0.2566,0.1043,1.3564,-71.4961
11:21:46:441,-0.6865,0.2032,14.7822,45.5711,0.6005,0.0011,1.218,-71.4961
11:21:46:461,0.3892,-0.8657,13.6874,45.6253,0.9273,0.016,0.6473,-71.6478
11:21:46:481,0.1342,-1.4064,12.1193,45.5711,1.0444,-0.0213,0.1469,-71.8355
11:21:46:501,-0.5955,-1.0603,10.771,45.7963,0.856,-0.1395,-0.0011,-72.0321
11:21:46:521,-0.8539,-0.3335,9.7643,45.7337,0.4759,-0.1171,0.1363,-72.2146
11:21:46:541,-0.5912,-0.0251,9.1183,45.6457,0.0586,-0.0043,0.2726,-72.3409
11:21:46:562,-0.3995,0.2739,8.7364,45.6019,-0.2183,0.049,0.3311,-72.4654
11:21:46:581,-0.3666,0.3813,8.3396,45.2916,-0.247,0.0596,0.3939,-72.585
11:21:46:601,-0.4402,0.4842,7.7052,45.0439,-0.0628,0.0075,0.5078,-72.733
11:21:46:622,-0.4871,0.6377,6.8637,44.8114,0.2097,-0.1065,0.6675,-72.9094
11:21:46:642,-0.4561,1.016,6.192,44.6194,0.395,-0.2853,0.7932,-73.0918
11:21:46:662,-0.395,1.5957,5.8166,44.4809,0.4653,-0.3577,0.8592,-73.2586
11:21:46:682,-0.0575,1.7212,5.7807,44.5331,0.5217,-0.3205,0.8155,-73.3832
11:21:46:707,0.2958,1.5959,6.0365,44.1929,0.5387,-0.4205,0.6015,-73.5709
11:21:46:743,0.5028,1.5935,6.4525,44.0356,0.4397,-0.6856,0.2821,-73.794
11:21:46:745,0.2394,1.7598,7.3326,43.9305,0.1522,-0.8847,-0.0351,-74.0072
11:21:46:762,0.0957,1.5899,8.5317,43.5712,-0.0681,-0.708,-0.1522,-74.1179
11:21:46:781,0.2218,1.3915,9.3386,43.5008,-0.0351,-0.33,-0.2236,-74.1179
11:21:46:802,0.7136,1.3495,9.8466,43.6965,0.0532,-0.0969,-0.3737,-74.1179
11:21:46:821,0.6099,1.6957,10.0714,43.3282,-0.0373,0.0884,-0.6218,-74.1179
11:21:46:842,-0.2408,2.2887,10.5172,43.2427,-0.2789,0.2608,-0.7112,-74.1179
11:21:46:862,-1.1531,3.0972,11.5448,43.0077,-0.4748,0.4205,-0.5185,-74.0171
11:21:46:883,-1.3108,3.689,12.6089,42.8149,-0.4322,0.4525,-0.1522,-73.8157
11:21:46:901,0.1136,3.3304,13.3322,42.4374,-0.264,0.1065,0.0213,-73.6329
11:21:46:922,1.5211,2.4792,13.6,42.4073,-0.1533,-0.1437,-0.2821,-73.6329
11:21:46:940,1.4719,1.3175,13.5992,42.2778,0.0128,-0.0777,-0.7378,-73.6329
11:21:46:962,0.5464,0.2666,12.9084,42.3946,0.2044,-0.1107,-1.0487,-73.6329
11:21:46:981,-0.2116,-0.4441,11.9927,42.1988,0.1235,-0.2608,-1.0295,-73.4797
11:21:47:001,-0.3228,-0.8232,11.3012,42.0198,-0.1693,-0.3077,-0.7527,-73.3146
11:21:47:021,0.0364,-0.8435,10.5927,42.1669,-0.4567,-0.1437,-0.3737,-73.1426
11:21:47:041,0.2403,-0.2933,9.9747,42.1523,-0.5738,0.0341,-0.0075,-72.9527
11:21:47:061,0.4272,0.3436,9.1556,42.1672,-0.4376,0.0064,0.247,-72.7194
11:21:47:081,0.5795,0.866,7.975,42.2693,-0.1491,-0.1246,0.3162,-72.4331
11:21:47:100,0.6097,1.1168,6.6865,42.5959,0.05,-0.2757,0.2513,-72.1224
11:21:47:121,0.4843,1.2399,5.6319,42.5356,0.1224,-0.3684,0.115,-71.7971
11:21:47:142,0.1469,1.3266,5.3092,42.3,0.131,-0.3354,-0.0341,-71.4499
11:21:47:162,-0.209,1.3162,5.5894,42.2628,0.197,-0.2821,-0.1235,-71.0405
11:21:47:181,-0.5353,1.3135,6.0075,42.2038,0.2662,-0.2065,-0.1288,-70.6021
11:21:47:201,-0.6914,1.5853,6.6583,41.8112,0.296,-0.1703,-0.0373,-70.1479
11:21:47:221,-0.5879,1.8882,7.4689,41.7353,0.2715,-0.2566,0.1033,-69.7021
11:21:47:241,-0.4065,2.3003,8.3233,41.0454,0.2406,-0.3471,0.1863,-69.3014
11:21:47:261,-0.0658,2.5395,9.2335,40.815,0.2342,-0.2864,0.2044,-68.9375
11:21:47:281,-0.085,2.4385,10.0537,40.5695,0.1895,-0.1192,0.148,-68.6353
11:21:47:302,-0.5602,2.6844,10.6801,40.389,0.1331,0.1405,0.1512,-68.357
11:21:47:321,-0.7202,3.0194,11.3805,40.389,0.0075,0.3066,0.198,-68.0427
11:21:47:343,-0.7706,3.1378,12.0685,40.4563,-0.1767,0.3822,0.2065,-67.7327
11:21:47:361,-0.8582,3.0369,13.0246,40.4445,-0.2864,0.3268,0.28,-67.4268
11:21:47:381,-0.3811,2.4762,13.6964,40.541,-0.2726,0.1033,0.3503,-67.1353
11:21:47:401,-0.0979,1.9629,14.0307,40.1749,-0.1799,-0.033,0.1735,-66.9281
11:21:47:422,-0.4975,1.2481,13.7161,40.0894,0.0777,0.0852,-0.0287,-66.7386
11:21:47:440,-1.0192,0.7113,12.4343,40.0851,0.3247,0.2704,-0.1033,-66.5646
11:21:47:462,-1.4343,0.5885,10.9434,40.2086,0.3226,0.3002,-0.0777,-66.3928
11:21:47:483,-1.4498,0.4585,9.7606,40.5471,0.0192,0.1373,-0.016,-66.2012
11:21:47:502,-1.2305,0.418,9.3615,40.7178,-0.3854,0.0128,0.0639,-66.0279
11:21:47:521,-0.8373,0.356,9.3227,40.3944,-0.6207,0.0522,0.1171,-65.9086
11:21:47:542,-0.5934,0.3015,8.9411,39.9993,-0.6271,0.1278,0.1352,-65.9086
11:21:47:561,-0.4676,0.2496,8.1937,39.4102,-0.4535,0.1991,0.1799,-65.9086
11:21:47:582,-0.4524,0.2533,7.4611,38.6307,-0.2151,0.2406,0.2651,-65.9086
11:21:47:601,-0.3968,0.2241,6.8796,37.9919,0.0096,0.2097,0.3875,-65.9086
11:21:47:621,-0.493,0.599,6.5143,37.6576,0.1672,0.2023,0.5419,-66.0164
11:21:47:641,-0.4766,0.9981,6.4674,37.2455,0.2619,0.148,0.6399,-66.0164
11:21:47:662,-0.1732,1.0911,6.6977,37.3615,0.33,-0.0181,0.6132,-66.0164
11:21:47:681,0.0667,1.4002,7.1151,37.5399,0.363,-0.2023,0.4205,-66.0164
11:21:47:704,0.2378,1.6081,7.6592,37.8462,0.3332,-0.2374,0.1884,-66.0164
11:21:47:722,0.1682,1.4615,8.4483,38.0797,0.2885,-0.1033,-0.0309,-66.0164
11:21:47:741,-0.0837,1.0804,9.098,38.0429,0.2619,0.0798,-0.1767,-66.0164
11:21:47:762,-0.4019,0.9735,9.7644,38.1024,0.1682,0.1246,-0.2225,-66.0164
11:21:47:781,-0.5227,1.0111,10.6344,37.6375,-0.016,-0.0192,-0.2183,-65.9009
11:21:47:801,-0.3996,1.1693,11.563,37.1578,-0.1799,-0.0735,-0.2087,-65.7456
11:21:47:821,-0.5894,1.7581,12.5891,36.7639,-0.2172,0.1171,-0.1491,-65.5915
11:21:47:842,-0.6968,2.3318,13.3588,36.2093,-0.0596,0.2789,0.0128,-65.4145
11:21:47:862,-0.2134,2.4557,13.4477,35.5714,0.1682,0.3151,0.1192,-65.2277
11:21:47:881,0.2636,2.1766,12.9368,34.8316,0.2513,0.3513,-0.0362,-65.0993
11:21:47:901,0.1027,1.4053,12.5248,34.2314,0.2108,0.3492,-0.3002,-65.0993
11:21:47:922,-0.2847,0.2825,12.1555,33.9119,0.1863,0.1278,-0.4163,-65.0993
11:21:47:941,-0.7054,-0.3904,11.6091,33.4114,0.0149,-0.165,-0.3652,-65.0993
11:21:47:961,-0.6571,-0.4431,11.0384,32.8459,-0.2023,-0.1363,-0.033,-65.0993
11:21:47:981,0.0167,-0.2448,10.0062,32.6054,-0.3577,0.1469,0.4056,-65.0993
11:21:48:001,0.7622,0.308,8.7953,32.5852,-0.4248,0.4024,0.5983,-65.0993
11:21:48:021,1.005,0.929,7.6211,32.5506,-0.3545,0.3524,0.4834,-65.0993
11:21:48:041,0.8502,1.4116,6.5977,32.5005,-0.1278,0.017,0.2938,-65.0993
11:21:48:061,0.554,2.0239,5.8299,33.0004,0.2385,-0.4184,0.1278,-65.0993
11:21:48:082,0.2633,2.3336,5.1461,33.1504,0.527,-0.8038,0.1043,-64.8781
11:21:48:102,0.5213,2.1264,5.2957,33.2136,0.4312,-1.07,0.1618,-64.5288
11:21:48:122,0.448,2.0784,6.4755,33.0781,0.3034,-0.7687,0.2193,-64.2347
11:21:48:141,0.232,2.2543,7.7448,32.8107,0.5557,-0.3833,0.362,-63.9489
11:21:48:161,0.4783,2.6351,8.1184,32.5361,0.8507,-0.3343,0.4291,-63.645
11:21:48:181,0.9717,3.1111,7.9149,32.4112,0.8624,-0.3652,0.2885,-63.3621
11:21:48:201,1.2414,3.3908,8.2408,32.3246,0.5419,-0.2896,-0.0138,-63.1122
11:21:48:222,0.8113,3.183,9.1313,32.3775,0.1959,0.0309,-0.1874,-62.8604
11:21:48:242,0.3305,3.0695,9.992,32.1759,0.0021,0.3386,-0.1714,-62.5259
11:21:48:261,0.0738,3.2182,10.6756,31.9312,-0.1735,0.4589,-0.0862,-62.1217
11:21:48:282,0.0423,3.4175,11.6887,31.7087,-0.4003,0.3854,0.0458,-61.687
11:21:48:301,-0.0662,3.7505,13.1729,31.104,-0.3684,0.3971,0.2172,-61.2688
11:21:48:321,-0.0178,3.6304,13.8083,30.8181,0.0181,0.5653,0.3247,-60.8663
11:21:48:341,-0.313,3.529,13.1679,30.3167,0.3961,0.6218,0.2619,-60.4952
11:21:48:362,-0.5571,3.1066,12.111,30.214,0.4514,0.5621,0.1341,-60.0757
11:21:48:381,-0.8017,1.9534,11.6327,30.5106,0.3673,0.3535,-0.0458,-59.6043
11:21:48:401,-1.1559,1.1601,11.3312,30.5868,0.3492,0.0394,-0.1629,-59.2013
11:21:48:422,-1.4309,0.8966,10.7644,30.695,0.3354,-0.1714,-0.198,-58.7783
11:21:48:442,-1.4872,1.1218,9.8636,30.9108,0.1501,-0.1267,-0.1427,-58.3378
11:21:48:461,-1.0527,1.438,8.9603,30.7414,-0.1863,0.1331,-0.0852,-57.8305
11:21:48:481,-0.5405,1.8001,8.2238,30.7745,-0.5238,0.2151,-0.1235,-57.2821
11:21:48:502,-0.2942,2.0249,7.8186,30.5723,-0.7154,-0.1011,-0.2161,-56.7312
11:21:48:521,-0.1049,1.8014,7.7059,30.2147,-0.7016,-0.56,-0.2853,-56.1497
11:21:48:541,-0.1619,1.2999,7.4947,29.9178,-0.5472,-0.7037,-0.3024,-55.5923
11:21:48:561,-0.672,1.0373,7.2972,29.7653,-0.2832,-0.477,-0.1735,-55.0725
11:21:48:581,-1.1223,0.8004,7.0987,29.8069,0.1001,-0.1416,0.1288,-54.4652
11:21:48:601,-1.0919,0.8056,6.8614,30.2071,0.4951,-0.0788,0.428,-53.7705
11:21:48:621,-0.5571,1.188,6.5977,30.7443,0.7772,-0.2683,0.5174,-53.1126
11:21:48:641,-0.0333,1.9317,6.5357,31.1474,0.8177,-0.5227,0.3662,-52.5064
11:21:48:662,0.2784,2.5464,6.805,31.5915,0.5696,-0.708,0.1086,-51.9082
11:21:48:681,0.6762,2.513,7.7122,31.8939,0.1373,-0.691,-0.1576,-51.2745
11:21:48:701,0.4016,2.5465,9.2727,32.2316,-0.164,-0.3268,-0.2875,-50.6918
11:21:48:747,0.0705,2.6398,10.6566,32.2925,-0.165,0.1363,-0.2417,-49.9961
11:21:48:748,-0.0502,2.667,11.184,32.3432,0.0777,0.5068,-0.2033,-49.2349
11:21:48:761,-0.216,2.6602,11.0965,32.2885,0.1767,0.3332,-0.2811,-48.4796
11:21:48:782,-0.8154,3.0366,11.407,32.4087,-0.0032,0.0085,-0.2662,-47.6951
11:21:48:802,-1.229,3.4735,12.4157,32.3295,-0.1001,-0.1086,-0.0064,-46.7237
11:21:48:821,-0.6326,3.3071,13.1503,32.4259,0.0437,-0.1608,0.3513,-45.7056
11:21:48:841,0.8608,2.6896,13.1035,32.6112,0.2193,-0.2545,0.5387,-44.8635
11:21:48:861,2.1948,1.8259,12.5829,32.8791,0.3268,-0.28,0.28,-44.4059
11:21:48:881,2.3827,1.0434,11.7265,32.7076,0.3141,-0.1618,-0.1512,-44.2868
11:21:48:901,1.7679,0.591,10.7937,32.967,0.1533,0.0415,-0.3811,-44.2868
11:21:48:924,1.0154,0.6417,10.0279,33.1318,-0.181,0.2491,-0.3886,-44.2868
11:21:48:941,0.6868,0.9479,9.4351,33.1913,-0.5526,0.444,-0.1842,-43.9804
11:21:48:961,0.889,1.34,9.0537,33.3914,-0.8017,0.5824,-0.0096,-43.5147
11:21:48:981,0.93,1.8954,8.663,33.9592,-0.8006,0.5824,-0.0639,-43.0901
11:21:49:001,0.5326,2.2191,8.0845,34.03,-0.6132,0.3854,-0.1799,-42.6238
11:21:49:021,0.0845,2.3589,7.384,34.3353,-0.3545,0.1288,-0.2598,-42.0106
11:21:49:042,-0.2014,2.2866,6.8051,34.447,-0.0777,-0.1554,-0.2672,-41.2305
11:21:49:062,-0.029,2.1002,6.5696,34.6569,0.1938,-0.4205,-0.1725,-40.3375
11:21:49:082,0.4402,1.8938,6.4182,34.5385,0.5153,-0.5653,-0.1533,-39.522
11:21:49:101,0.7986,1.8856,6.148,34.2369,0.7442,-0.5813,-0.2875,-38.9732
11:21:49:121,0.8433,1.8586,5.9535,34.1988,0.7027,-0.5174,-0.4578,-38.5475
11:21:49:142,0.1321,2.1962,6.2429,34.2648,0.4408,-0.3407,-0.4684,-38.1983
11:21:49:162,-0.145,2.4215,7.0357,34.4464,0.1703,-0.23,-0.2225,-37.4021
11:21:49:181,0.3375,2.5733,7.9906,34.7276,-0.0564,-0.1799,0.0053,-36.496
11:21:49:201,0.7553,2.6883,9.0119,34.8587,-0.3769,-0.2406,0.0522,-35.8079
11:21:49:221,0.5646,2.9549,10.5802,35.117,-0.6761,-0.3034,0.1192,-35.2528
11:21:49:241,0.5153,2.9891,12.1268,35.4864,-0.6111,-0.1884,0.2875,-34.5564
11:21:49:261,0.3999,2.9842,12.8999,35.4902,-0.3013,0.0713,0.511,-33.8387
11:21:49:281,0.297,3.1112,12.8979,35.5074,-0.0106,0.4056,0.7889,-33.1398
11:21:49:301,0.6893,3.0358,12.3748,35.623,0.1256,0.5483,0.8549,-32.4906
11:21:49:321,0.8124,2.8515,11.9563,35.8501,0.049,0.2821,0.5238,-32.0788
11:21:49:342,0.333,2.359,11.8655,35.9434,-0.0809,-0.0415,0.0788,-31.7333
11:21:49:362,-0.1933,1.311,11.6953,36.0788,-0.1235,-0.0362,-0.1714,-31.3165
11:21:49:382,-0.7245,0.8491,11.3196,36.0755,-0.1938,0.0639,-0.2044,-30.8367
11:21:49:402,-0.7557,0.4444,10.8781,35.9621,-0.2906,0.0564,-0.0884,-30.1919
11:21:49:423,-0.5885,0.37,10.5111,35.9924,-0.4078,0.0745,0.0351,-29.5664
11:21:49:442,-0.454,0.5428,10.1242,36.2675,-0.395,0.2502,0.1182,-29.0921
11:21:49:462,-0.6213,0.6362,9.3548,36.2419,-0.1874,0.3865,0.1608,-28.7189
11:21:49:482,-0.8452,0.7465,8.2361,36.4242,0.1203,0.395,0.2992,-28.2722
11:21:49:501,-0.8493,0.8568,6.9688,36.2096,0.3396,0.297,0.5142,-27.7402
11:21:49:521,-0.6505,1.0241,6.1075,36.2971,0.3897,0.1065,0.708,-27.197
11:21:49:541,-0.4088,1.6178,5.7909,36.1794,0.3556,-0.0564,0.8507,-26.7365
11:21:49:561,0.0106,1.958,5.707,36.0793,0.3833,-0.1278,0.8964,-26.3644
11:21:49:582,0.4326,2.0358,5.5458,36.6865,0.3471,-0.1363,0.7708,-26.3644
11:21:49:603,0.5032,2.023,5.6125,36.8789,-0.0511,0.0405,0.5217,-26.5236
11:21:49:621,0.1482,2.1424,7.0067,37.0119,-0.6878,0.1182,0.3119,-26.7247
11:21:49:641,0.0481,1.8943,8.9844,36.8916,-0.9475,-0.0564,0.2076,-26.7247
11:21:49:662,0.2408,1.7357,10.6077,37.1063,-0.6154,-0.0884,0.131,-26.7247
11:21:49:681,0.8055,1.8676,11.3798,36.9893,-0.0106,0.0181,0.0767,-26.9011
11:21:49:701,1.5147,1.7854,10.8787,36.9351,0.313,0.0926,-0.1597,-27.2964
11:21:49:721,1.5282,1.9674,10.5335,37.1797,0.0756,-0.0202,-0.4823,-27.9894
11:21:49:742,1.1207,2.3873,11.1123,37.6191,-0.4546,-0.1341,-0.5419,-28.5684
11:21:49:761,1.0032,2.8618,12.5926,37.8868,-0.6399,0.017,-0.3652,-28.8395
11:21:49:781,1.156,3.3995,13.3713,38.0314,-0.4014,0.181,-0.197,-28.9828
11:21:49:801,2.144,2.4485,13.0472,38.1361,-0.197,0.1246,-0.3364,-29.0866
11:21:49:821,1.9921,2.1381,12.5609,38.022,-0.1299,0.2183,-0.6335,-29.6775
11:21:49:841,1.3812,1.4778,12.1224,38.1827,0.0479,0.3343,-0.7665,-30.2864
11:21:49:861,1.0502,0.8196,11.0823,38.1658,0.2342,0.297,-0.8815,-30.9
11:21:49:882,0.7649,0.1718,9.8374,38.3955,0.0852,0.1586,-0.971,-31.6217
11:21:49:902,0.5642,-0.4011,9.3038,38.5441,-0.4312,0.0437,-0.9539,-32.4694
11:21:49:926,0.3549,-0.2453,9.688,38.3915,-0.9124,0.033,-0.8251,-33.4192
11:21:49:941,0.3533,0.2926,10.2046,38.1933,-0.9188,0.1544,-0.6963,-33.9911
11:21:49:961,0.387,0.7341,9.8392,37.9087,-0.4961,0.263,-0.6782,-34.2145
11:21:49:981,0.2558,1.065,8.4847,37.8289,-0.0234,0.2906,-0.7421,-34.2145
11:21:50:001,-0.0379,1.2902,7.0581,37.7068,0.2278,0.1842,-0.8081,-34.0643
11:21:50:021,-0.4318,1.2799,6.0948,37.6811,0.2832,-0.0522,-0.8134,-33.665
11:21:50:041,-0.8959,1.4139,5.8468,37.5089,0.2257,-0.2896,-0.658,-32.9246
11:21:50:061,-0.8288,1.5021,6.2184,37.656,0.2225,-0.3801,-0.3875,-31.7577
11:21:50:082,-0.155,1.528,6.6455,37.7782,0.3322,-0.4014,-0.2662,-30.7642
11:21:50:101,0.2119,1.8438,6.9382,38.1071,0.3854,-0.4653,-0.3087,-30.3784
11:21:50:121,0.3408,2.2341,7.4981,38.3093,0.313,-0.5451,-0.4131,-30.1474
11:21:50:141,0.489,2.5091,8.3059,38.4048,0.1682,-0.5185,-0.5483,-29.9012
11:21:50:162,1.3585,2.4901,9.8407,38.6115,0.0447,-0.3066,-0.7516,-29.6315
11:21:50:181,1.4962,2.8604,11.1664,38.3844,0.0884,0.2545,-1.1828,-29.8614
11:21:50:201,0.1187,2.82,11.5761,38.3578,0.0724,0.5802,-1.4703,-30.1219
11:21:50:221,-1.4243,2.3661,11.7756,38.189,-0.1214,0.5568,-1.3404,-29.7656
11:21:50:242,-2.7765,2.4002,12.5936,37.9646,-0.2981,0.4205,-0.758,-28.7674
11:21:50:261,-2.7729,2.0596,13.524,38.1603,-0.1725,0.181,0.0405,-27.1991
11:21:50:281,-2.0436,1.3712,13.6359,38.328,0.2033,-0.1959,0.4897,-25.8869
11:21:50:302,-1.1605,0.5957,13.296,38.5989,0.4078,-0.7974,0.5685,-25.1164
11:21:50:322,-0.5457,-0.0365,12.8581,38.6926,0.5621,-0.9092,0.4408,-25.1164
11:21:50:342,-0.9858,-0.3519,11.9405,38.7463,0.6835,-0.6697,0.3183,-25.9648
11:21:50:362,-1.8035,0.0632,10.7399,38.8503,0.6771,-0.4141,0.4567,-26.7754
11:21:50:382,-1.793,0.4292,9.5947,39.0945,0.4865,-0.3205,0.7389,-25.961
11:21:50:402,-1.0258,0.5977,8.7059,39.2982,0.0862,-0.2662,0.8464,-24.9633
11:21:50:423,-0.2106,0.7086,8.7162,39.7734,-0.3439,-0.1884,0.692,-24.9633
11:21:50:441,-0.1792,0.7265,9.027,40.3127,-0.3886,-0.2438,0.4344,-25.9111
11:21:50:462,-0.7445,0.811,8.7428,40.8022,-0.0724,-0.5494,0.33,-26.8085
11:21:50:481,-0.8621,0.8483,7.9342,41.081,0.2875,-0.7059,0.4876,-26.9717
11:21:50:502,-0.2631,0.9721,7.1928,41.2145,0.5536,-0.5845,0.6548,-26.9717
11:21:50:522,0.434,1.1712,6.3916,41.3148,0.7389,-0.2502,0.6707,-27.5313
11:21:50:543,0.7858,1.3406,5.8735,41.4085,0.8294,0.0138,0.5355,-28.6727
11:21:50:562,0.665,1.4856,5.5716,41.6626,0.8134,0.116,0.3971,-30.0335
11:21:50:581,0.4522,1.7827,5.596,42.1162,0.6952,0.0341,0.3449,-31.2665
11:21:50:602,0.3217,2.1978,6.1288,42.6865,0.511,-0.1267,0.3567,-32.1261
11:21:50:621,0.9579,2.1045,7.0652,42.9866,0.2321,-0.3183,0.3066,-32.7049
11:21:50:642,1.2548,2.1765,8.3728,43.5824,-0.0905,-0.2704,0.1171,-33.8929
11:21:50:664,1.218,2.2859,9.8683,43.8761,-0.2576,-0.0969,-0.0043,-35.2233
11:21:50:682,1.2871,2.1906,10.8214,43.937,-0.2896,0.1884,-0.0394,-36.5343
11:21:50:702,1.3667,2.2105,11.2808,44.0487,-0.3449,0.4088,-0.0405,-37.9145
11:21:50:722,1.3189,2.8558,11.7535,44.4806,-0.4876,0.5132,0.0362,-39.2797
11:21:50:757,1.2723,3.7936,12.6786,44.4931,-0.4748,0.5792,0.1661,-40.2813
11:21:50:765,1.6118,4.096,12.9856,44.8148,-0.247,0.7431,0.1884,-40.9997
11:21:50:782,1.6108,3.7419,12.4055,45.0841,-0.1214,0.9933,0.0192,-41.7606
11:21:50:802,0.9172,3.3105,12.0177,45.2803,-0.0894,1.0998,-0.0958,-42.6187
11:21:50:822,0.5478,2.9843,11.7063,45.2551,0.1448,0.9912,-0.1469,-43.4362
11:21:50:841,0.8569,2.1704,10.637,45.5968,0.2949,0.5164,-0.3449,-44.2411
11:21:50:861,0.791,0.8254,9.8728,46.0586,-0.247,-0.2811,-0.6835,-45.3376
11:21:50:881,0.1731,-0.2629,10.9226,46.2684,-1.0135,-0.741,-0.7357,-46.8743
11:21:50:901,0.1849,-1.0189,12.3179,46.7261,-1.3468,-0.6761,-0.3939,-48.7132
11:21:50:923,0.8055,-0.8183,12.7778,47.2667,-1.0018,-0.1906,0.1203,-50.7265
11:21:50:942,1.388,-0.2106,11.646,47.3939,-0.1522,0.28,0.4844,-52.4981
11:21:50:962,1.5753,0.766,9.2013,47.6328,0.609,0.3907,0.5132,-53.9901
11:21:50:981,1.4525,1.4549,6.7325,47.9482,0.9965,0.2843,0.3545,-55.0892
11:21:51:002,1.0993,1.8785,4.8608,47.9522,1.0146,0.1246,0.0884,-55.8381
11:21:51:022,0.4062,2.3539,3.839,48.3653,0.8315,0.0309,-0.099,-56.1699
11:21:51:043,-0.035,2.4817,3.6348,48.5468,0.6377,-0.0319,-0.0884,-55.6611
11:21:51:062,-0.3209,2.6824,3.9343,49.1348,0.4418,-0.1927,-0.0096,-54.6753
11:21:51:081,-0.3153,3.0546,4.4629,49.2485,0.2481,-0.313,0.1107,-53.4359
11:21:51:102,0.1311,3.2418,5.2605,49.4101,-0.017,-0.4163,0.1373,-52.2989
11:21:51:125,0.1456,3.5625,6.4995,49.4068,-0.3343,-0.5025,0.0341,-51.6613
11:21:51:141,-0.0946,3.6514,8.1409,49.5136,-0.543,-0.4951,0.0064,-51.1222
11:21:51:161,-0.259,3.4692,9.4235,49.6107,-0.5738,-0.2598,0.0937,-50.5776
11:21:51:181,-0.2692,3.5542,10.5011,49.596,-0.6718,0.0202,0.2002,-50.1433
11:21:51:201,-0.3325,3.5332,11.8625,49.6296,-0.8666,0.1693,0.296,-49.8055
11:21:51:221,-0.3069,3.2644,13.524,49.8257,-0.9007,0.2736,0.5004,-49.5472
11:21:51:242,0.151,3.0283,14.7929,50.0024,-0.5941,0.412,0.7091,-49.5472
11:21:51:261,0.7786,2.6233,15.0045,50.2677,-0.1672,0.362,0.5834,-49.7736
11:21:51:281,0.5884,2.185,14.6438,50.4121,0.1299,0.1373,0.2289,-50.2658
11:21:51:301,-0.0145,1.209,13.9175,50.7571,0.4003,0.0681,0.0245,-50.8038
11:21:51:322,-0.3815,0.5088,12.805,51.2784,0.5792,0.0713,-0.0458,-51.5301
11:21:51:341,-0.4015,0.3172,11.5342,51.8022,0.5898,0.1437,-0.0224,-52.4858
11:21:51:361,0.0007,0.251,10.3,52.3944,0.3535,0.1618,0.0043,-53.5301
11:21:51:381,0.5062,0.0207,9.7398,53.1111,-0.1789,0.0362,-0.1384,-54.618
11:21:51:401,0.3467,0.1359,9.8579,53.4593,-0.6005,0.0458,-0.2757,-55.7913
11:21:51:423,-0.0584,0.1654,9.5638,53.912,-0.5941,0.2938,-0.2608,-56.7986
11:21:51:441,-0.5375,0.331,8.5831,54.278,-0.2502,0.6303,-0.0788,-57.6542
11:21:51:462,-0.7874,0.5824,7.2036,54.4161,0.1352,0.757,0.2183,-58.3129
11:21:51:482,-0.7815,0.8613,6.0389,54.4488,0.3056,0.5068,0.4418,-58.6532
11:21:51:502,-0.7316,1.3082,5.5184,54.7674,0.3087,0.0639,0.5643,-58.6532
11:21:51:521,-0.5146,1.3473,5.686,54.7851,0.3471,-0.3119,0.6196,-58.2618
11:21:51:541,-0.2108,1.4115,6.0177,54.9765,0.4695,-0.4983,0.5951,-58.0735
11:21:51:561,0.1916,1.5824,6.402,55.5201,0.5323,-0.5025,0.4706,-58.0735
11:21:51:581,0.4351,1.8832,6.985,56.0493,0.3971,-0.461,0.23,-58.2075
11:21:51:601,0.4633,2.0526,7.6726,56.2185,0.1703,-0.2821,-0.0617,-58.3097
11:21:51:621,0.2896,1.9788,8.4833,56.4199,0.0468,0.0373,-0.2885,-58.3097
11:21:51:641,-0.1152,2.0799,9.0249,56.655,-0.0309,0.1789,-0.4525,-58.3097
11:21:51:661,-0.3566,1.7608,9.5071,56.9311,-0.2406,0.2108,-0.544,-58.1706
11:21:51:681,-0.8176,1.9113,10.5447,56.8862,-0.5462,0.2949,-0.5408,-58.1706
11:21:51:701,-1.414,2.572,12.0075,57.1776,-0.7261,0.428,-0.3002,-57.9187
11:21:51:721,-1.4215,2.9989,13.201,56.9212,-0.593,0.4855,0.1011,-57.3869
11:21:51:743,-0.3544,2.8407,13.3286,56.6662,-0.3886,0.3865,0.3215,-56.9204
11:21:51:763,0.4813,2.4744,13.3204,56.9056,-0.3599,0.0245,0.1427,-56.8203
11:21:51:781,0.4333,1.3161,13.5986,56.7713,-0.2161,-0.3162,-0.0852,-56.946
11:21:51:802,0.0287,0.3895,13.2795,57.4632,0.0522,-0.5941,-0.1852,-57.3675
11:21:51:821,-0.0425,-0.2272,12.4767,58.2853,0.0937,-0.7676,-0.1491,-57.9824
11:21:51:843,0.212,-0.503,11.712,58.599,-0.1437,-0.6399,0.0266,-58.758
11:21:51:862,0.7077,-0.412,11.1323,59.0721,-0.4014,-0.2204,0.2246,-59.5849
11:21:51:882,1.1273,0.0208,10.4726,59.6427,-0.378,0.2481,0.3279,-60.3485
11:21:51:901,1.1378,0.6074,9.2133,60.0258,-0.115,0.4557,0.2768,-60.9394
11:21:51:922,0.8763,1.1139,7.6892,60.4045,0.197,0.4078,0.2129,-61.2817
11:21:51:941,0.7155,1.211,6.2188,60.7542,0.3726,0.1469,0.1363,-61.3845
11:21:51:961,0.4426,1.3365,5.4065,61.0345,0.3258,-0.1629,0.0937,-61.3845
11:21:51:982,0.3122,1.6589,5.3305,61.2231,0.2843,-0.313,0.1991,-61.1403
11:21:52:004,0.6866,1.8352,5.6332,61.2936,0.4514,-0.3173,0.33,-60.713
11:21:52:022,1.3625,2.1098,5.7069,61.4411,0.6569,-0.3556,0.3215,-60.4586
11:21:52:041,1.875,2.4182,5.7623,61.6311,0.5568,-0.4259,0.0798,-60.4586
11:21:52:062,1.5386,3.0024,6.388,61.8179,0.2055,-0.4259,-0.23,-60.4586
11:21:52:084,1.186,2.6429,7.4518,61.8751,-0.131,-0.2938,-0.3492,-60.2543
11:21:52:101,0.8821,2.2447,8.4468,62.318,-0.3684,-0.0852,-0.33,-60.0332
11:21:52:121,0.4538,2.3243,9.5952,62.4254,-0.7783,-0.1522,-0.2033,-59.8442
11:21:52:141,0.3695,2.5953,11.7745,62.4548,-1.1307,-0.4514,0.0256,-59.489
11:21:52:162,0.8206,2.3409,14.2693,62.4445,-1.0178,-0.4961,0.2598,-59.0813
11:21:52:180,1.3395,1.9887,15.7622,62.1534,-0.3875,-0.2076,0.4578,-58.9343
11:21:52:201,1.8281,2.0727,15.384,62.2084,0.4056,0.1139,0.642,-58.9343
11:21:52:221,2.331,2.4214,13.8182,62.2749,0.7804,0.2023,0.5334,-59.1445
11:21:52:241,2.3626,2.6099,12.385,62.4466,0.7091,0.1427,0.0628,-59.4009
11:21:52:262,1.7485,1.5788,11.4549,62.9884,0.5302,0.1544,-0.4727,-59.6144
11:21:52:281,0.5026,0.9056,10.7581,63.3614,0.4653,0.1842,-0.8049,-59.9525
11:21:52:301,-0.6735,0.5806,9.9222,63.7584,0.4035,0.2087,-0.9231,-60.2735
11:21:52:323,-1.3331,0.4434,9.087,64.1485,0.1927,0.0788,-0.758,-60.4033
11:21:52:341,-1.3007,0.4843,8.6785,64.6224,-0.1341,-0.1544,-0.4759,-60.258
11:21:52:362,-0.8787,0.622,8.621,64.9012,-0.4067,-0.2651,-0.3109,-59.9815
11:21:52:381,-0.667,0.8714,8.7099,65.0931,-0.5717,-0.3513,-0.1512,-59.7375
11:21:52:402,-0.0807,0.8967,8.6243,65.4202,-0.4727,-0.3716,0.2214,-59.4339
11:21:52:423,0.7831,0.8052,8.3936,65.8695,-0.1075,-0.3471,0.5142,-59.3148
11:21:52:441,1.2537,1.2174,7.7328,65.8144,0.3087,-0.214,0.5483,-59.5091
11:21:52:461,1.2509,1.587,6.9248,65.7592,0.6079,-0.0224,0.4663,-59.6963
11:21:52:482,1.0833,1.7343,6.3037,65.8886,0.7399,0.0415,0.3375,-59.7982
11:21:52:501,0.8237,1.4933,6.0929,65.8653,0.741,-0.0138,0.1459,-59.7982
11:21:52:521,0.3072,1.7726,6.4201,65.8098,0.6548,-0.0735,-0.0053,-59.7982
11:21:52:541,0.0729,2.0178,6.8621,65.9804,0.477,-0.1522,-0.1256,-59.6382
11:21:52:561,0.1483,1.7741,7.5533,65.9553,0.1789,-0.1842,-0.2811,-59.3405
11:21:52:581,0.2143,1.5848,8.6092,65.7915,-0.0138,-0.1192,-0.412,-59.3405
11:21:52:602,0.2768,1.5642,9.4705,65.8637,-0.1288,-0.0884,-0.527,-59.3405
11:21:52:622,0.3836,1.1971,10.2251,66.0932,-0.3503,-0.1065,-0.6558,-59.4552
11:21:52:641,-0.1015,1.4094,11.0556,66.1475,-0.5153,0.1916,-0.6558,-59.7391
11:21:52:661,-0.545,2.2098,11.8491,66.2407,-0.5281,0.5313,-0.4067,-59.7391
11:21:52:681,-0.1094,2.8527,12.4593,66.3594,-0.4141,0.5685,-0.05,-59.5513
11:21:52:702,1.1342,2.707,12.6894,66.3473,-0.2811,0.363,0.0373,-59.3407
11:21:52:721,1.9227,2.3801,12.9074,66.4434,-0.1416,0.1395,-0.2012,-59.4531
11:21:52:761,1.8355,1.5635,12.6875,66.5548,0.1416,0.1491,-0.4695,-59.7449
11:21:52:762,1.2326,0.8393,11.6107,66.266,0.4141,0.2459,-0.5983,-60.1905
11:21:52:781,0.6689,0.4827,10.2626,66.3679,0.3811,0.1991,-0.593,-60.7251
11:21:52:801,0.4275,0.1341,9.3633,66.3009,-0.0202,0.0937,-0.4301,-61.2552
11:21:52:822,0.5348,0.207,9.1508,66.2229,-0.5962,0.0958,-0.1778,-61.8282
11:21:52:841,0.882,0.5146,9.677,66.3934,-0.8773,0.1565,0.0096,-62.2881
11:21:52:862,1.0113,0.9804,9.6109,66.3192,-0.7921,0.2193,0.1033,-62.6213
11:21:52:882,1.0979,1.4274,8.8905,66.1743,-0.5515,0.3002,0.0937,-62.799
11:21:52:901,1.0315,1.6586,7.7883,66.1803,-0.3119,0.329,-0.0138,-62.799
11:21:52:922,0.7788,1.6556,6.6697,66.1365,-0.165,0.2534,-0.1703,-62.799
11:21:52:941,0.2388,1.5994,6.0915,65.8054,-0.1192,0.1278,-0.2896,-62.6304
11:21:52:962,-0.4433,1.7896,6.1053,65.7566,-0.0032,0.0522,-0.1597,-62.282
11:21:52:984,-0.3874,2.1339,6.2896,65.6644,0.2395,0.0202,0.1033,-61.5912
11:21:53:001,0.2752,2.5273,6.3375,65.6099,0.4195,-0.0234,0.1672,-60.8782
11:21:53:021,0.5628,3.0216,6.3907,65.6821,0.3726,-0.1097,0.0096,-60.3876
11:21:53:040,0.6036,3.0353,7.0863,65.5584,0.083,-0.2906,-0.1821,-59.9072
11:21:53:062,-0.2072,3.1928,8.7017,65.503,-0.131,-0.3002,-0.2598,-59.4857
11:21:53:081,-0.6773,3.1818,10.1253,65.1273,-0.0958,-0.1916,-0.0884,-58.8813
11:21:53:106,-0.4779,3.2606,10.5792,65.0525,-0.1192,0.0287,0.0649,-58.2772
11:21:53:121,-0.1662,3.2871,11.2823,65.1248,-0.4397,0.2321,0.1033,-57.8281
11:21:53:142,-0.0759,2.7648,12.9882,65.3408,-0.8187,0.131,0.0809,-57.5234
11:21:53:162,-0.1829,2.3451,15.0109,65.6076,-0.8975,-0.1129,0.1246,-57.5234
11:21:53:181,0.0732,1.6036,16.41,65.8951,-0.5909,-0.2992,0.1672,-57.5234
11:21:53:201,0.1383,0.632,16.5639,65.7551,-0.0309,-0.2406,0.1033,-57.7289
11:21:53:221,-0.255,-0.212,15.109,65.7448,0.6026,0.0298,0.0458,-58.1263
11:21:53:241,-0.7053,-0.3974,12.8941,65.8872,1.0114,0.2768,0.0468,-58.7374
11:21:53:262,-0.9923,-0.2308,10.6616,65.9473,0.9912,0.2427,0.0852,-59.4305
11:21:53:281,-0.9597,-0.228,9.1062,65.8757,0.6015,0.0287,0.0798,-60.0558
11:21:53:301,-0.9219,-0.0972,8.4439,65.9527,0.0575,-0.1842,0.0639,-60.7099
11:21:53:323,-0.8224,0.0925,8.4653,65.9265,-0.3801,-0.1821,0.0937,-61.2606
11:21:53:341,-0.5293,0.1088,8.4512,65.8144,-0.4802,-0.0522,0.1299,-61.6803
11:21:53:361,-0.4088,0.1838,7.889,65.5596,-0.3237,0.1863,0.2097,-62.1342
11:21:53:381,-0.2995,0.1629,6.9134,65.5712,-0.1043,0.4844,0.3322,-62.5617
11:21:53:401,-0.4312,0.4219,6.0943,65.4307,0.0202,0.6963,0.4919,-63.0414
11:21:53:423,-0.5866,0.8491,5.5798,65.0839,0.1171,0.7495,0.692,-63.3228
11:21:53:441,-0.4204,1.1505,5.5057,64.9876,0.2225,0.5366,0.823,-63.3228
11:21:53:461,-0.1548,1.3914,5.6853,65.0107,0.3056,0.197,0.8123,-63.3228
11:21:53:481,0.0828,1.8678,6.1768,64.968,0.2704,-0.2065,0.6473,-63.3228
11:21:53:502,0.5132,1.93,7.0023,65.3013,0.1001,-0.5259,0.3652,-63.2177
11:21:53:521,0.7631,1.5787,8.1602,65.4478,-0.1033,-0.6377,-0.0256,-63.2177
11:21:53:541,0.1828,1.0829,9.529,65.7724,-0.2044,-0.3513,-0.2906,-63.4957
11:21:53:561,-0.5624,1.0645,10.6676,65.7667,-0.1884,-0.0596,-0.3109,-63.8659
11:21:53:581,-0.5948,0.8673,11.1514,66.0064,-0.2087,0.049,-0.2151,-64.1655
11:21:53:601,-0.3627,1.0272,11.5305,65.904,-0.4131,0.1799,-0.1512,-64.5274
11:21:53:621,-0.3688,1.7944,12.5753,65.9659,-0.5547,0.3183,-0.0277,-64.8681
11:21:53:641,-0.3557,2.6934,13.5831,65.7724,-0.3503,0.4631,0.1086,-65.0062
11:21:53:661,0.1427,2.7548,13.5372,65.6661,-0.1086,0.61,0.1373,-65.0062
11:21:53:681,0.4862,2.4811,13.3131,65.6104,-0.0926,0.6984,-0.0021,-65.0062
11:21:53:701,0.1593,1.4587,13.4738,65.2099,0.066,0.5675,-0.1448,-65.1582
11:21:53:721,-0.4604,0.6152,12.9582,65.2759,0.4589,0.3513,-0.197,-65.5352
11:21:53:741,-0.8858,0.3864,11.5594,65.1149,0.6069,0.0532,-0.1821,-66.0809
11:21:53:762,-0.962,0.0642,10.4226,65.1576,0.2364,-0.0564,-0.1299,-66.6185
11:21:53:781,-0.8506,0.1207,10.1362,65.1425,-0.198,0.1384,0.0181,-67.2068
11:21:53:801,-0.3239,0.3442,9.8158,65.2229,-0.3396,0.4344,0.1672,-67.7529
11:21:53:820,0.2009,0.7601,8.9751,65.1515,-0.1852,0.4322,0.1916,-68.2345
11:21:53:842,0.7222,0.6628,7.7578,64.654,-0.0575,0.2779,0.0543,-68.6002
11:21:53:863,0.4789,0.653,6.9575,64.5682,-0.1065,0.1852,-0.2076,-69.0281
11:21:53:880,-0.3582,0.9081,6.7016,64.1571,-0.0724,0.0894,-0.3205,-69.3797
11:21:53:900,-0.9625,0.9655,6.4961,64.2343,0.1522,-0.0468,-0.1863,-69.3797
11:21:53:921,-1.0216,1.2696,6.2243,63.9789,0.4834,-0.1959,0.116,-69.2395
11:21:53:941,-0.2518,1.4343,6.0103,63.9947,0.708,-0.379,0.3034,-68.9011
11:21:53:962,0.603,1.485,6.0488,63.8068,0.6313,-0.5898,0.1938,-68.9011
11:21:53:980,0.3818,1.9961,6.6576,63.5202,0.3939,-0.6196,0.0085,-69.0467
11:21:54:001,0.0214,2.2109,7.6149,63.3278,0.2364,-0.5164,-0.0437,-68.9425
11:21:54:022,-0.2038,2.3619,8.403,63.2222,0.099,-0.3545,-0.0319,-68.745
11:21:54:041,-0.1289,2.463,9.3288,63.2091,-0.1118,-0.2491,-0.0149,-68.5172
11:21:54:061,-0.2717,2.6631,10.4313,62.912,-0.346,-0.1959,-0.0777,-68.3884
11:21:54:081,-0.7108,2.7522,11.5553,62.6764,-0.5195,-0.1065,-0.0511,-68.2586
11:21:54:101,-1.0105,2.8138,12.7617,62.6359,-0.5195,-0.0266,0.1469,-68.0829
11:21:54:121,-0.8017,3.0057,13.4031,62.2887,-0.3183,0.0703,0.4376,-67.9495
11:21:54:141,-0.0795,2.9011,13.2305,62.015,-0.1927,-0.0234,0.4567,-67.9495
11:21:54:162,0.2145,1.9301,13.0818,61.5329,-0.3886,-0.0969,0.164,-67.9495
11:21:54:181,-0.8151,0.9935,13.7479,61.1156,-0.329,-0.2129,-0.0213,-68.2918
11:21:54:201,-1.6624,0.1437,13.2701,61.0216,0.0767,-0.3492,0.131,-68.8315
11:21:54:221,-1.6976,-0.1856,12.0064,60.6652,0.4503,-0.511,0.4472,-69.6572
11:21:54:241,-1.0841,-0.0152,10.5002,60.4675,0.5366,-0.6047,0.6654,-70.7182
11:21:54:262,-0.1112,0.3739,9.2192,60.36,0.4014,-0.5856,0.7091,-71.7428
11:21:54:281,0.5413,0.6335,8.105,60.2527,0.1757,-0.4567,0.5589,-72.5418
11:21:54:301,0.2475,0.6985,7.3047,60.3243,-0.1799,-0.461,0.2938,-73.1984
11:21:54:321,-0.2967,1.0096,6.915,60.2658,-0.4482,-0.379,0.2427,-73.7239
11:21:54:341,-0.4465,0.7591,6.8506,60.2869,-0.4908,-0.2033,0.3066,-73.8842
11:21:54:361,-0.1647,0.4381,6.8077,60.0073,-0.3279,-0.0032,0.4099,-74.2167
11:21:54:381,0.2378,0.2698,6.7192,59.8847,-0.1022,0.1139,0.4684,-74.8812
11:21:54:401,0.5625,0.4846,6.8144,59.2688,0.0788,0.1129,0.3811,-75.7161
11:21:54:420,0.5726,0.7586,7.0138,58.7261,0.2449,-0.0256,0.2342,-76.4088
11:21:54:440,0.7826,0.6861,7.0525,58.3443,0.395,-0.1054,0.0575,-76.9178
11:21:54:461,1.1206,0.8114,7.1167,57.7682,0.346,-0.0692,-0.263,-77.4821
11:21:54:481,0.8189,1.1308,7.4713,57.2519,0.0681,0.083,-0.6973,-77.9504
11:21:54:500,0.2325,1.2882,8.4698,56.6951,-0.2938,0.2119,-0.8751,-78.1719
11:21:54:521,-0.0589,1.3807,9.5325,56.5461,-0.3918,0.4663,-0.8432,-78.1719
11:21:54:541,0.0942,1.336,10.0938,56.4119,-0.3311,0.5568,-0.8091,-78.1719
11:21:54:561,0.1401,1.3716,10.479,56.4759,-0.4557,0.378,-0.8751,-78.1719
11:21:54:581,-0.3985,1.3822,11.3271,56.2914,-0.7069,0.3215,-0.8975,-78.1719
11:21:54:601,-1.2667,1.8372,12.5784,56.3482,-0.791,0.5611,-0.6345,-78.1719
11:21:54:621,-1.1736,1.6541,13.4038,55.9484,-0.6122,0.8262,-0.2108,-77.8635
11:21:54:641,-0.1462,0.8893,13.5352,56.011,-0.378,0.6771,-0.0979,-77.6942
11:21:54:661,0.1519,0.6769,13.474,55.7874,-0.2204,0.5015,-0.247,-77.8731
11:21:54:681,-0.0499,0.3329,13.3083,55.619,0.0447,0.4365,-0.3439,-78.1129
11:21:54:700,-0.1667,0.0508,12.6608,55.3576,0.346,0.2853,-0.3684,-78.4514
11:21:54:721,0.2214,-0.7117,11.6188,55.1957,0.3726,-0.0043,-0.4131,-78.8433
11:21:54:740,0.4453,-1.3151,11.1757,54.9678,0.0043,-0.3162,-0.5227,-79.4105
11:21:54:768,0.2289,-1.1669,11.2108,54.8984,-0.3428,-0.2587,-0.4674,-80.078
11:21:54:780,0.1015,-0.7148,10.9099,54.8179,-0.3237,0.1278,-0.2161,-80.5654
11:21:54:801,0.125,-0.0634,9.8657,54.8403,0.0298,0.4354,0.0543,-80.8055
11:21:54:822,0.1121,0.8201,8.2833,54.6375,0.4855,0.4237,0.2321,-80.8055
11:21:54:841,0.0574,1.4119,6.593,54.3585,0.8251,0.0075,0.2832,-80.5229
11:21:54:860,0.0597,1.651,5.3386,54.0261,0.9167,-0.61,0.2545,-79.9357
11:21:54:880,0.3186,1.5635,5.0039,53.3018,0.7708,-1.0774,0.1384,-79.1677
11:21:54:900,0.5389,1.4239,5.3103,52.9499,0.6132,-1.1722,-0.0309,-78.5608
11:21:54:921,0.4211,1.4196,5.838,52.6843,0.5185,-0.9667,-0.1746,-78.2017
11:21:54:940,0.0308,1.8952,6.4358,52.579,0.4376,-0.5994,-0.1629,-77.8704
11:21:54:960,-0.1131,2.3419,7.1189,52.7477,0.296,-0.3641,-0.082,-77.2158
11:21:54:980,-0.0344,2.8074,7.9459,53.0097,0.1214,-0.2545,-0.0628,-76.365
11:21:55:000,-0.1999,3.38,8.8543,53.3139,-0.0149,-0.2087,-0.0543,-75.4769
11:21:55:020,-0.3124,3.5226,9.7133,53.5606,-0.131,-0.1959,0.0011,-74.4465
11:21:55:040,-0.4739,3.6914,10.6286,53.4267,-0.2321,-0.1554,0.0724,-73.4716
11:21:55:060,-0.5433,3.7318,11.8562,53.2338,-0.3407,-0.0373,0.2012,-72.5228
11:21:55:080,-0.4082,3.4662,13.1283,52.9593,-0.3545,0.1533,0.3748,-71.7387
11:21:55:100,-0.1913,3.318,13.9,52.7949,-0.1544,0.4376,0.5057,-71.2537
11:21:55:120,0.0705,3.1523,13.8227,52.7212,0.0394,0.5323,0.4056,-70.9695
11:21:55:142,0.0724,2.3406,13.3228,52.6371,0.0809,0.4291,0.0692,-70.8367
11:21:55:160,-0.6471,1.0216,12.8326,52.6199,0.1703,0.3354,-0.2406,-70.8367
11:21:55:180,-1.4797,-0.1249,12.0444,52.7444,0.2534,0.2012,-0.3769,-71.2828
11:21:55:200,-1.9225,-1.011,11.2588,52.6318,0.1895,0.0554,-0.2821,-72.1618
11:21:55:221,-1.8532,-1.2776,10.6947,52.6185,0.0458,-0.099,0.0224,-73.3889
11:21:55:241,-0.9869,-1.0429,10.1101,52.8386,-0.0447,-0.1065,0.3077,-74.6832
11:21:55:260,0.0258,-0.642,9.2166,52.8603,-0.1224,-0.0639,0.3535,-75.6805
11:21:55:280,0.5545,-0.2412,8.1756,53.1966,-0.181,0.0224,0.2523,-76.3808
11:21:55:300,0.3849,0.3093,7.0535,53.1324,-0.1618,0.2385,0.2065,-76.8504
11:21:55:321,0.0265,0.8217,6.0797,53.0465,-0.1203,0.4291,0.3077,-77.012
11:21:55:340,-0.0709,1.2657,5.4388,53.2442,-0.1075,0.4163,0.4599,-76.8016
11:21:55:361,0.0479,1.7072,5.2352,53.1053,-0.0969,0.2193,0.5174,-76.2826
11:21:55:380,0.1306,1.8373,5.4314,52.9651,-0.0703,-0.1065,0.4429,-75.5897
11:21:55:400,0.0112,1.8394,5.9801,52.6378,-0.0128,-0.3918,0.3332,-74.9504
11:21:55:420,-0.0416,1.7235,6.6901,52.3016,-0.0266,-0.5376,0.2172,-74.3973
11:21:55:440,-0.0285,1.5201,7.7934,51.8936,-0.1224,-0.4823,0.1171,-74.0138
11:21:55:462,-0.0067,1.4043,8.9755,51.5355,-0.181,-0.1682,0.0437,-73.8771
11:21:55:482,0.403,1.2705,9.9399,51.4485,-0.1491,0.0213,-0.0852,-73.8771
11:21:55:501,0.5217,0.9967,10.6926,51.3153,-0.2033,0.0085,-0.3513,-74.0328
11:21:55:521,0.2399,0.7809,11.7031,51.3651,-0.3311,-0.0394,-0.5451,-74.2575
11:21:55:542,-0.1898,0.8084,12.586,51.1728,-0.4024,0.0096,-0.5941,-74.4876
11:21:55:562,-0.5438,1.2993,13.2659,51.0752,-0.3556,0.1884,-0.3971,-74.6438
11:21:55:584,-0.2388,1.7162,13.5224,50.755,-0.1916,0.3247,-0.1043,-74.6438
11:21:55:601,0.3734,2.2343,13.3409,50.8912,-0.1171,0.3311,-0.0617,-74.5258
11:21:55:621,0.5264,2.1849,13.2598,50.6809,-0.0969,0.2704,-0.2012,-74.3357
11:21:55:641,0.2134,1.5272,13.0367,50.7483,0.1767,0.1938,-0.3109,-74.174
11:21:55:662,-0.2445,1.0568,11.8774,50.7365,0.4834,-0.0106,-0.3492,-74.174
11:21:55:681,-0.189,0.3733,10.5701,50.5322,0.296,-0.3513,-0.379,-74.174
11:21:55:701,0.0958,-0.3255,10.5142,50.2404,-0.297,-0.6878,-0.4078,-74.2957
11:21:55:725,0.4135,-0.5596,10.8678,50.1856,-0.7495,-0.5845,-0.3247,-74.5703
11:21:55:742,0.669,-0.3249,10.7382,49.6708,-0.7644,-0.1884,-0.2257,-74.8383
11:21:55:762,0.6839,0.1212,9.8561,49.4546,-0.4088,0.164,-0.1608,-74.9601
11:21:55:781,0.3711,0.7095,8.3935,49.4838,0.0554,0.2268,-0.1352,-74.9601
11:21:55:802,0.0907,1.1536,6.742,49.0445,0.3971,0.0351,-0.1182,-74.7513
11:21:55:822,-0.009,1.1997,5.4606,48.7648,0.4759,-0.2214,-0.0862,-74.2671
11:21:55:845,-0.1371,1.3346,5.0567,48.3607,0.395,-0.4344,-0.0053,-73.6825
11:21:55:862,0.0896,1.3741,5.2452,47.6412,0.4099,-0.4653,0.1256,-72.9867
11:21:55:881,0.6285,1.4312,5.561,47.0302,0.5121,-0.4961,0.1267,-72.4416
11:21:55:903,1.0503,1.536,5.804,46.646,0.4897,-0.5291,-0.0522,-72.1403
11:21:55:924,0.9381,1.7312,6.6711,46.5136,0.2853,-0.5185,-0.2385,-71.9422
11:21:55:942,0.3241,1.8631,7.8412,46.4567,0.0809,-0.2683,-0.3311,-71.6651
11:21:55:962,-0.3617,1.8633,8.9171,46.3255,0,0.1491,-0.2193,-71.2488
11:21:55:983,-0.63,2.01,9.6556,46.0737,-0.0809,0.544,0.0149,-70.7583
11:21:56:001,-0.5971,2.2219,10.3715,45.6007,-0.3151,0.7037,0.181,-70.2743
11:21:56:021,-0.636,2.265,11.5714,45.2247,-0.6015,0.5813,0.2555,-69.8341
11:21:56:042,-0.6953,2.0336,13.1678,44.6145,-0.5994,0.2864,0.3939,-69.4527
11:21:56:062,-0.4392,2.0489,14.1703,44.5123,-0.3173,0.0809,0.5909,-69.2629
11:21:56:082,0.2276,1.9202,14.2675,44.0657,-0.0437,-0.033,0.6356,-69.2629
11:21:56:101,0.717,1.3033,14.0594,43.6372,0.0809,-0.1235,0.3929,-69.2629
11:21:56:121,0.3154,0.4204,13.596,43.2936,0.3098,0.0362,0.115,-69.5274
11:21:56:142,-0.294,-0.017,12.5182,43.0839,0.5015,0.1001,-0.016,-69.9678
11:21:56:162,-0.5671,-0.2193,11.4618,43.1524,0.4727,-0.1139,-0.0245,-70.4288
11:21:56:181,-0.0313,-0.361,10.6694,42.8794,0.2917,-0.4003,0.049,-70.8448
11:21:56:201,0.8477,-0.2441,10.0346,42.9035,0.0096,-0.4812,-0.0128,-71.2637
11:21:56:221,1.2467,-0.1795,9.6143,42.9896,-0.3258,-0.2406,-0.2353,-71.5823
11:21:56:242,0.9154,-0.1991,9.0716,42.9557,-0.4972,0.2832,-0.4269,-71.7938
11:21:56:262,0.028,0.0114,8.2419,42.8226,-0.4376,0.6952,-0.4205,-71.9324
11:21:56:282,-0.6988,0.2096,7.1871,42.93,-0.2268,0.9529,-0.1874,-71.9324
11:21:56:305,-1.0947,0.4817,6.1945,42.4805,-0.0628,0.8773,0.1437,-71.713
11:21:56:321,-1.0949,0.8601,5.557,42.0581,0.0607,0.5696,0.4227,-71.313
11:21:56:341,-0.8461,1.0481,5.4306,41.614,0.1267,0.0884,0.5366,-70.7435
11:21:56:362,-0.4026,1.0428,5.6617,41.2423,0.1373,-0.4046,0.5217,-70.2491
11:21:56:381,-0.1868,1.072,6.1874,40.6796,0.0053,-0.7229,0.411,-69.9888
11:21:56:401,0.2366,0.8958,7.0564,39.9485,-0.3833,-0.8251,0.1916,-69.8313
11:21:56:421,0.4263,0.5437,8.6534,39.6905,-0.9539,-0.5919,-0.1043,-69.8313
11:21:56:441,-0.0223,0.316,10.6121,39.4656,-1.2084,0.1139,-0.3396,-69.8313
11:21:56:462,-0.7811,0.3681,12.306,39.3348,-0.8581,0.8549,-0.3386,-69.8313
11:21:56:480,-0.8291,0.181,12.5866,39.1043,-0.2321,1.0774,-0.2395,-69.8313
11:21:56:501,-0.9333,0.5726,11.8974,38.928,0.0053,0.7985,-0.2087,-69.8313
11:21:56:522,-1.4592,1.8057,12.0901,38.4614,-0.1278,0.411,-0.0298,-69.7175
11:21:56:542,-1.2025,2.7715,12.9775,38.3726,-0.1512,0.0468,0.3151,-69.4035
11:21:56:561,0.4181,2.1414,13.693,38.1489,-0.1235,-0.3886,0.4834,-69.0669
11:21:56:581,1.9268,1.255,14.4589,37.9663,-0.033,-0.5579,0.2683,-68.9649
11:21:56:602,2.1623,0.0147,14.5725,37.8906,0.444,-0.2757,-0.1448,-68.9649
11:21:56:622,1.2236,-0.7743,13.2357,37.8801,0.8762,-0.082,-0.4525,-69.122
11:21:56:643,0.4413,-1.1682,11.7218,38.0301,0.7825,-0.0745,-0.4535,-69.298
11:21:56:661,0.288,-1.4202,10.991,38.0019,0.3716,-0.0458,-0.2704,-69.4883
11:21:56:681,0.624,-1.5262,10.6698,38.1238,0.0415,0.1597,-0.1075,-69.6542
11:21:56:702,0.5432,-0.7772,10.1407,38.1506,0.0596,0.4397,-0.0511,-69.791
11:21:56:721,0.174,0.2039,8.9542,38.3865,0.3322,0.5973,-0.0117,-69.791
11:21:56:741,-0.1251,0.66,7.2653,38.2852,0.6739,0.5802,0.017,-69.6308
11:21:56:782,-0.1943,0.8091,5.5962,38.1747,0.8368,0.3045,0.0277,-69.3823
11:21:56:784,-0.389,0.9899,4.385,38.1281,0.7942,-0.0841,-0.0106,-69.0707
11:21:56:808,-0.5723,1.1509,3.6738,37.8509,0.626,-0.4408,-0.0149,-68.6116
11:21:56:821,-0.6358,1.203,3.3026,37.6398,0.3769,-0.6942,0.0511,-67.9811
11:21:56:841,-0.7858,1.3554,3.2905,37.3389,-0.0458,-0.824,0.1522,-67.2666
11:21:56:861,-0.792,1.4501,4.0119,37.0108,-0.5792,-0.8645,0.3556,-66.4377
11:21:56:881,-0.3516,1.7161,6.2421,36.5481,-0.9582,-0.9624,0.5078,-65.7822
11:21:56:901,0.1986,2.104,9.1975,36.1906,-0.8475,-1.0902,0.5355,-65.442
11:21:56:921,0.516,2.1428,11.3057,35.7741,-0.3087,-0.7272,0.494,-65.2257
11:21:56:941,0.4994,2.4002,11.5774,35.9593,0.1512,-0.1629,0.4589,-65.1142
11:21:56:964,0.3298,2.8874,11.3506,35.9339,0.1395,0.1852,0.3886,-65.1142
11:21:56:982,-0.1403,3.3265,11.9734,36.3237,-0.2268,0.2321,0.3034,-64.9647
11:21:57:002,-0.6294,3.1999,13.4902,36.3828,-0.3237,0.2992,0.4056,-64.7748
11:21:57:022,-0.4798,2.8365,14.3868,36.4484,-0.1597,0.1075,0.5419,-64.6001
11:21:57:042,0.462,1.5687,14.5823,36.5192,-0.0969,-0.1725,0.5089,-64.4822
11:21:57:061,0.6959,0.6149,14.7943,36.7043,-0.0053,-0.1938,0.3226,-64.4822
11:21:57:082,0.4716,0.0166,13.9561,36.696,0.23,0.0309,0.1703,-64.4822
