Time,Acc_X,Acc_Y,Acc_Z,Meg,Gyr_X,Gyr_Y,Gyr_Z,Ore
16:58:59:045,0.7239,3.4634,9.2384,44.9032,-0.181,0.2598,-0.0628,288.3
16:58:59:045,0.5105,3.4752,9.3217,44.9588,-0.1405,0.1789,-0.0192,286.8618
16:58:59:049,0.4889,3.3467,9.1058,44.9632,-0.1459,-0.0437,0.0383,286.9445
16:58:59:068,0.7587,3.1841,8.7934,44.8371,-0.1767,-0.1363,0.083,286.9735
16:58:59:088,1.0244,3.2488,8.6757,44.7935,-0.1906,0.0277,0.0543,286.9243
16:58:59:108,1.0073,3.4325,8.7705,44.46,-0.1565,0.231,0.0351,286.8572
16:58:59:128,0.8582,3.5375,8.9264,44.8258,-0.0873,0.2374,0.0426,286.8213
16:58:59:148,0.6916,3.5542,8.7177,44.958,-0.0841,0.0458,0.0564,286.796
16:58:59:168,0.6428,3.3472,8.525,44.9586,-0.1224,0.0373,0.1341,286.7586
16:58:59:188,0.8901,3.2108,8.5692,45.19,-0.1448,0.0756,0.165,286.6787
16:58:59:208,0.9885,3.2188,8.7391,45.2842,-0.132,0.1544,0.1469,286.5242
16:58:59:228,0.9701,3.1088,8.8394,45.4373,-0.0575,0.1491,0.148,286.3481
16:58:59:248,1.1193,3.1631,8.8075,45.2749,0.0383,0.0884,0.1192,286.1893
16:58:59:268,1.1295,3.2634,8.6197,45.105,0.0777,0.049,0.0522,286.024
16:58:59:288,1.0095,3.4592,8.6481,45.0397,0.0245,0.0447,0.0234,285.9009
16:58:59:308,0.9796,3.664,8.8719,45.1332,-0.0617,0.0149,0.0224,285.8486
16:58:59:329,0.8697,3.7472,9.2618,45.1003,-0.099,-0.0447,0.0224,285.8261
16:58:59:349,0.9623,3.7563,9.8528,45.3241,-0.0277,-0.181,-0.0075,285.8086
16:58:59:369,0.9733,3.6057,10.1411,45.3156,0.0979,-0.3811,-0.0713,285.8027
16:58:59:388,0.9456,3.7275,10.1215,45.285,0.1533,-0.5717,-0.1129,285.8365
16:58:59:408,0.7823,3.6358,10.123,45.2022,0.0979,-0.5387,-0.1118,285.9336
16:58:59:428,0.5245,3.3539,10.5414,45.2806,0.1011,-0.33,-0.1352,286.0591
16:58:59:448,0.2998,3.0348,10.784,45.3636,0.2417,-0.2278,-0.1821,286.1931
16:58:59:469,0.4216,3.0053,10.8662,45.4129,0.5046,-0.2928,-0.363,286.3591
16:58:59:488,0.6266,3.0774,10.6491,45.5914,0.7889,-0.4706,-0.6707,286.59
16:58:59:508,0.731,4.0207,10.0643,45.7407,0.8858,-0.4791,-0.791,287.0367
16:58:59:528,0.5772,5.7047,9.8304,45.7282,0.5376,0.3758,-0.2055,287.809
16:58:59:549,-0.5016,4.7057,10.7475,45.9492,0.3002,0.7208,0.4205,288.5073
16:58:59:568,-1.2579,2.5445,11.1116,45.8408,0.2832,0.5398,0.7783,288.4892
16:58:59:588,-1.0044,1.658,10.7096,45.6215,0.3418,0.2129,0.9742,287.8285
16:58:59:608,-0.4567,1.4803,9.8742,45.7139,0.3471,0.0543,1.038,286.7875
16:58:59:629,-0.1346,1.4676,9.0462,45.8188,0.1703,-0.0224,0.9486,285.5444
16:58:59:648,0.217,1.7649,8.9136,46.1136,-0.0394,-0.1214,0.7016,284.2655
16:58:59:668,0.4305,2.2442,8.7603,46.4179,-0.0138,-0.1341,0.4653,283.1656
16:58:59:688,0.6422,2.7943,8.242,46.7427,0.1416,0.0373,0.2981,282.4056
16:58:59:708,0.7688,3.2855,7.7151,46.9535,0.1991,0.296,0.1629,281.9049
16:58:59:729,0.6358,3.4165,7.3858,47.1078,0.1906,0.4067,0.0458,281.5686
16:58:59:749,0.4463,3.4104,7.221,47.0619,0.2225,0.445,-0.0128,281.3909
16:58:59:769,0.3257,3.3372,7.0135,47.3389,0.3567,0.5195,0.0277,281.3404
16:58:59:789,0.1532,3.2671,6.7279,47.2612,0.4567,0.6271,0.1331,281.326
16:58:59:810,0.0241,3.3379,6.5899,47.1831,0.3652,0.6739,0.2097,281.2263
16:58:59:829,-0.0323,3.4498,6.9432,46.9083,0.1703,0.7538,0.2481,280.9984
16:58:59:849,-0.2122,3.2216,7.7798,46.8346,0.0021,0.7091,0.2683,280.7067
16:58:59:869,-0.0489,3.2681,8.4708,47.0019,-0.0724,0.4014,0.2417,280.3943
16:58:59:889,0.4936,3.9084,8.8767,47.0318,-0.1054,-0.0309,0.1043,280.0764
16:58:59:910,0.7084,4.4267,9.1174,47.3278,-0.0798,-0.2779,-0.1022,279.8279
16:58:59:933,0.4522,4.4662,9.3876,47.5661,0.0575,-0.2183,-0.2459,279.7807
16:58:59:949,0.2778,4.5949,9.5967,47.7221,0.2395,-0.066,-0.33,279.9738
16:58:59:968,0.2666,4.9965,9.665,47.7657,0.2821,-0.0703,-0.4152,280.3113
16:58:59:990,0.211,5.1016,9.7101,47.9014,0.1288,-0.2928,-0.4589,280.7647
16:59:00:010,0.1351,4.686,9.8142,48.0627,-0.1331,-0.6675,-0.5195,281.2653
16:59:00:029,0.2828,4.4352,10.1737,48.0673,-0.2864,-0.8198,-0.6399,281.8592
16:59:00:050,0.3615,4.3593,10.4401,48.2264,-0.0703,-0.5313,-0.6856,282.5657
16:59:00:071,0.0453,3.497,9.8026,48.5006,0.2726,0.1395,-0.5483,283.4219
16:59:00:090,0.0194,2.7814,9.3132,48.6094,0.3024,0.6143,-0.3992,284.2488
16:59:00:111,0.3791,2.8019,9.4159,48.7647,0.1065,0.477,-0.3354,284.8621
16:59:00:134,0.7922,3.1883,9.2288,48.7499,-0.0713,0.0202,-0.3002,285.3282
16:59:00:148,0.9293,3.3232,8.6627,49.1311,-0.2353,-0.2566,-0.2214,285.7511
16:59:00:168,0.7329,3.2447,8.3079,49.563,-0.3673,-0.214,-0.0543,286.123
16:59:00:188,0.7703,3.0673,8.1799,49.6181,-0.4418,-0.0287,0.1906,286.3885
16:59:00:209,0.954,2.5735,8.1345,49.7826,-0.5749,0.1363,0.379,286.4161
16:59:00:230,1.0394,1.7766,8.2639,49.9068,-0.8113,0.0628,0.4397,286.1576
16:59:00:250,1.154,1.1886,8.5841,50.1526,-1.0093,-0.2662,0.3471,285.7127
16:59:00:268,1.3608,1.1083,8.8201,50.2535,-0.9603,-0.5813,0.116,285.2591
16:59:00:288,1.4925,1.5029,8.6612,50.2944,-0.5951,-0.6154,-0.1565,284.9843
16:59:00:309,1.2969,1.9071,7.9799,50.4496,-0.0894,-0.28,-0.3545,285.011
16:59:00:329,0.9228,2.2498,7.2289,50.5885,0.28,0.1703,-0.3811,285.3258
16:59:00:348,0.5617,2.5779,6.9031,50.661,0.3961,0.445,-0.2864,285.7845
16:59:00:368,0.4717,2.8432,7.007,50.8363,0.3024,0.444,-0.1256,286.2042
16:59:00:388,0.6824,2.8393,7.2494,51.3118,0.1065,0.2268,0.0064,286.4843
16:59:00:409,1.0426,2.9243,7.5492,51.3243,-0.1299,0.0341,0.0692,286.5869
16:59:00:428,1.2926,3.2242,8.1277,51.6019,-0.3492,-0.0287,0.0894,286.5683
16:59:00:449,1.5008,3.2641,8.9357,51.7917,-0.4589,0.0043,0.1001,286.5089
16:59:00:469,1.5239,2.9383,9.8637,51.8675,-0.4078,0.049,0.0394,286.4358
16:59:00:489,2.0741,3.0631,10.7246,52.0352,-0.148,0.2502,-0.115,286.3734
16:59:00:509,2.3337,2.8906,11.7098,52.308,0.4024,1.2435,-0.3503,286.4052
16:59:00:529,1.4394,2.4328,12.4515,52.4493,1.1488,2.2517,-0.5749,286.6308
16:59:00:548,0.5399,3.2478,12.339,52.428,1.399,2.0995,-0.79,287.1222
16:59:00:569,-0.3348,4.5402,11.7235,52.6554,0.9603,1.0806,-0.9656,287.9196
16:59:00:590,-1.6829,4.4276,11.1933,52.8327,0.3386,0.2364,-0.9965,289.0613
16:59:00:609,-2.7778,3.8202,11.0487,53.2532,0.0468,-0.0894,-0.9252,290.3712
16:59:00:629,-3.7109,3.3059,10.6953,53.4973,0.0937,0.066,-0.7687,291.6275
16:59:00:649,-5.6524,3.5055,9.4633,54.0808,0.1672,0.395,-0.4354,292.7465
16:59:00:669,-8.729,4.7739,8.8208,54.2854,0.1129,0.7687,0.4461,293.6417
16:59:00:690,-7.9781,3.1146,9.7295,54.1741,-0.1767,0.2002,1.1498,293.9789
16:59:00:710,-4.3317,1.4554,9.1321,54.1556,-0.412,0.0266,1.4532,293.1845
16:59:00:730,-1.7279,0.6325,8.907,54.2801,-0.2534,0.5238,1.3649,291.6403
16:59:00:751,-1.2161,0.16,8.8359,54.3557,-0.1043,0.6292,1.1583,289.8183
16:59:00:770,-1.6173,0.792,7.8597,54.3639,-0.1118,0.3737,1.1583,288.2031
16:59:00:789,-1.6604,1.4087,7.3496,54.6588,-0.1991,0.1437,1.2542,286.8124
16:59:00:809,-1.5029,2.0274,7.1023,54.5498,-0.1789,0.082,1.2701,285.3603
16:59:00:830,-0.615,3.2641,6.7793,54.4255,-0.0256,-0.0916,1.1381,283.8057
16:59:00:850,0.3118,3.5635,5.8919,54.3712,-0.1192,-0.4983,0.8336,282.268
16:59:00:870,0.7401,3.3146,5.5384,54.3765,-0.3087,-0.5515,0.4205,280.9685
16:59:00:889,0.1423,3.7635,5.8721,54.7749,-0.6622,-1.0359,0.2332,280.0717
16:59:00:911,0.1488,3.1487,6.0561,55.0296,-0.9678,-1.301,-0.0256,279.6158
16:59:00:930,-0.7599,3.1816,6.7512,55.1497,-1.2393,-1.0178,-0.1682,279.3538
16:59:00:949,-0.3923,2.7908,8.3324,55.5297,-1.0753,-0.2289,-0.2044,279.428
16:59:00:970,0.379,2.6559,9.8346,55.6006,-0.511,0.247,-0.2513,279.6403
16:59:00:990,0.3731,3.2784,10.9542,55.8,-0.0522,0.033,-0.5696,279.8989
16:59:01:035,-0.9871,3.9133,10.8373,55.9357,0.3013,-0.1469,-0.6739,280.2828
16:59:01:036,-0.4184,2.6664,10.016,56.0032,0.4514,-0.0607,-0.5536,281.0583
16:59:01:049,0.523,3.1505,10.2386,55.8906,0.0202,0.2033,-0.56,281.846
16:59:01:070,-0.0576,3.8618,11.5138,56.1404,-0.2023,0.6154,-0.6367,282.5338
16:59:01:088,-1.767,4.1313,12.2197,56.1374,-0.198,0.8922,-0.4897,283.2549
16:59:01:109,-2.9026,3.9062,12.4468,56.4552,-0.0064,0.5866,-0.2002,284.0036
16:59:01:128,-2.2825,2.2865,12.0952,56.7627,0.017,-0.0128,0.1107,284.5173
16:59:01:149,-1.1844,1.8493,12.4324,56.7642,0.0128,-0.6526,0.2534,284.6791
16:59:01:169,-0.4773,1.4272,11.6894,56.8192,0.3087,-1.2542,0.1938,284.5086
16:59:01:188,0.0878,0.5516,10.928,57.0309,0.3992,-1.7769,0.1086,284.2473
16:59:01:209,0.9839,0.4678,10.0408,57.2863,0.2417,-2.2326,-0.0511,284.0844
16:59:01:229,1.3443,0.6547,9.3002,57.3869,-0.1235,-2.0505,-0.1842,284.0226
16:59:01:249,1.1289,1.0079,9.2747,57.588,-0.2183,-1.2275,-0.2033,284.1526
16:59:01:269,0.5318,1.1132,8.6738,57.7047,-0.0639,-0.2832,-0.115,284.4458
16:59:01:289,0.0644,1.3557,7.7042,57.7506,0.1565,0.5451,0.0415,284.7142
16:59:01:309,-0.2155,1.6501,7.0545,57.6751,0.2002,0.7304,0.1491,284.8281
16:59:01:330,-0.3529,1.9757,6.642,57.7804,0.2044,0.3705,0.1767,284.7431
16:59:01:350,-0.2886,2.0572,6.2652,57.9431,0.2108,-0.0202,0.1565,284.5531
16:59:01:370,0.0789,2.2159,5.9804,57.9066,0.2928,-0.1491,0.0809,284.3471
16:59:01:390,0.5157,2.2704,5.708,58.3168,0.3279,-0.1203,-0.0351,284.1686
16:59:01:408,1.0098,2.737,5.6309,58.3758,0.1874,0.0298,-0.1373,284.0951
16:59:01:429,1.4324,3.0973,5.9005,58.4523,-0.0373,0.2246,-0.2012,284.1558
16:59:01:448,1.4067,3.2946,6.181,58.5834,-0.3705,0.5611,-0.2342,284.3398
16:59:01:468,0.7331,3.6408,6.6537,58.7416,-0.7644,1.186,-0.2023,284.6289
16:59:01:488,0.0027,3.6569,7.9465,59.0976,-1.2946,1.7162,-0.2268,284.9822
16:59:01:509,-0.0654,3.819,9.9361,59.5135,-1.7194,1.9941,-0.1395,285.2933
16:59:01:529,-0.1578,3.4205,12.1162,60.0498,-1.8078,1.9898,-0.0479,285.5932
16:59:01:549,-0.9881,2.3417,13.5016,60.4527,-1.5629,1.3191,0.0575,285.7052
16:59:01:569,-2.5769,2.9408,14.1386,60.7562,-1.1551,0.1171,0.3918,285.6354
16:59:01:589,-2.6234,2.5758,15.736,60.8828,0.148,-1.2116,0.6707,285.3204
16:59:01:609,-1.5475,2.0611,15.4627,60.9105,1.4724,-2.3369,0.7697,284.7425
16:59:01:628,-0.8821,2.4482,14.0483,60.9266,2.19,-2.6009,0.9422,284.0075
16:59:01:649,-0.3468,4.2312,12.855,61.2242,2.3273,-2.7,0.8666,283.1619
16:59:01:670,0.2432,3.7591,11.523,61.1646,1.9664,-2.4593,0.4003,282.0032
16:59:01:690,1.175,2.5384,10.4198,61.3612,1.3723,-1.8131,0.0043,280.9354
16:59:01:711,2.0602,2.0347,9.8591,61.4818,1.0146,-1.2158,-0.4152,280.325
16:59:01:731,1.6516,1.6831,9.0639,61.7093,0.8123,-0.7282,-0.6686,280.2077
16:59:01:749,1.0857,1.7812,8.0815,61.5112,0.4961,-0.1948,-0.6899,280.5958
16:59:01:769,0.874,1.7705,7.3816,61.7462,0.0447,0.4163,-0.6313,281.2532
16:59:01:789,0.6322,1.6938,6.9427,61.8067,-0.3343,1.054,-0.5632,281.9978
16:59:01:810,0.3179,1.7038,6.6751,62.2494,-0.5206,1.3862,-0.4887,282.7873
16:59:01:829,-0.1231,1.7952,6.5078,62.4911,-0.5206,1.3148,-0.4014,283.5707
16:59:01:848,-0.3446,2.0859,6.4393,62.9227,-0.4035,0.9688,-0.2417,284.2716
16:59:01:868,-0.5709,2.4283,6.4347,63.1428,-0.2491,0.6303,-0.0096,284.8193
16:59:01:888,-0.2854,2.5015,6.5813,63.2228,-0.0798,0.3705,0.197,285.1161
16:59:01:909,0.1903,2.2576,6.545,63.2568,0.0937,0.3141,0.2683,285.1072
16:59:01:930,0.3285,2.5767,6.5752,63.7048,0.1384,0.3024,0.2044,284.8611
16:59:01:950,0.1481,2.9857,6.9524,63.8099,0.1118,0.0841,0.116,284.5618
16:59:01:970,0.2487,2.9584,7.3897,63.8633,0.0809,-0.1129,0.0287,284.3588
16:59:01:988,0.5683,2.9188,7.8443,64.14,-0.0053,-0.0713,-0.0894,284.2598
16:59:02:010,0.5661,3.2299,8.1648,64.4051,-0.197,0.3066,-0.2332,284.2816
16:59:02:029,0.1401,3.5758,9.0816,64.6561,-0.4269,0.4589,-0.3279,284.4531
16:59:02:049,-0.1164,3.422,10.1965,64.934,-0.4376,0.2246,-0.3311,284.8246
16:59:02:069,-0.1621,3.1973,10.8598,65.2422,-0.2555,0.1001,-0.3545,285.2808
16:59:02:088,-0.5596,3.3285,11.2376,65.2479,-0.1086,0.2087,-0.346,285.736
16:59:02:115,-1.2085,3.7027,11.4378,65.732,0.05,0.2161,-0.2161,286.2072
16:59:02:130,-0.8677,4.0445,11.8717,65.8124,0.0969,0.2129,-0.0245,286.6316
16:59:02:148,0.0603,3.6552,11.97,66.3601,0.0064,-0.0671,-0.0596,286.8477
16:59:02:168,0.7576,3.0445,11.9393,66.4894,-0.0256,0.0032,-0.1267,286.9016
16:59:02:189,0.8592,2.7719,11.6587,66.7487,0.0969,0.2576,-0.2033,287.0237
16:59:02:209,0.7422,2.3677,10.7231,66.9172,0.2598,0.164,-0.3652,287.2122
16:59:02:228,0.6304,1.9609,9.5923,67.1488,0.1703,-0.2992,-0.5121,287.531
16:59:02:248,0.5525,1.6942,8.9312,67.2382,-0.1831,-0.6888,-0.5249,288.053
16:59:02:268,0.5938,1.577,8.5638,67.5065,-0.5792,-0.6516,-0.4014,288.7248
16:59:02:293,0.7309,1.7167,8.2498,67.2761,-0.8837,-0.2332,-0.3311,289.4251
16:59:02:309,0.6148,1.7759,7.9428,67.28,-1.0274,0.3247,-0.4099,289.8756
16:59:02:329,0.1084,1.8721,7.564,67.4231,-0.9539,0.6707,-0.5302,290.3493
16:59:02:348,-0.6471,2.2056,7.2552,67.5526,-0.7655,0.6313,-0.5025,290.9336
16:59:02:368,-0.934,2.2694,7.1212,67.7128,-0.5089,0.3918,-0.3268,291.6099
16:59:02:389,-0.7824,2.1588,6.9923,67.6136,-0.1906,0.1341,-0.1299,292.2038
16:59:02:409,-0.604,2.3562,7.0766,67.7243,0.1267,-0.1576,0.0468,292.5277
16:59:02:429,-0.0268,2.4747,6.8724,67.9737,0.363,-0.5078,0.1033,292.6497
16:59:02:449,0.4059,2.6756,6.7003,68.3852,0.4333,-0.7037,0.0106,292.5948
16:59:02:469,0.3371,2.7869,6.6808,69.0006,0.3098,-0.5973,-0.0745,292.5254
16:59:02:489,-0.0477,3.1585,7.2922,69.3479,0.0011,-0.3151,-0.0309,292.5709
16:59:02:509,-0.104,3.9528,8.6617,69.5098,-0.2694,-0.3343,0.1256,292.6795
16:59:02:528,0.6442,3.8912,10.046,69.687,-0.3971,-0.5951,0.1363,292.6985
16:59:02:548,0.9753,4.0437,11.1816,69.4864,-0.3513,-0.6196,-0.066,292.5562
16:59:02:568,0.6782,4.2915,12.0457,69.5697,-0.2214,-0.5611,-0.2364,292.4889
16:59:02:588,0.7195,3.9025,12.2978,69.6413,-0.1501,-0.5036,-0.3375,292.6668
16:59:02:609,0.3929,3.6567,12.7884,69.5761,-0.1459,-0.363,-0.3205,293.0166
16:59:02:629,-0.2819,3.6113,13.5931,69.636,0.0192,0.198,-0.1043,293.459
16:59:02:649,-0.3438,3.0802,13.4894,70.2143,0.2726,0.2821,0.0745,293.821
16:59:02:668,0.1014,2.1309,13.0093,70.4943,0.4237,0.0053,-0.1086,293.8788
16:59:02:689,-0.1205,1.4843,12.419,70.538,0.5217,-0.1884,-0.4291,293.8156
16:59:02:709,-0.4842,0.7813,11.3107,70.722,0.5919,-0.1821,-0.5653,294.034
16:59:02:728,-0.8319,0.4983,10.1093,70.6287,0.5004,-0.115,-0.5142,294.5804
16:59:02:750,-1.1107,0.6366,9.1647,70.5596,0.2566,-0.0287,-0.3002,295.2293
16:59:02:770,-1.0432,0.9703,8.5772,70.5379,-0.0564,0.066,-0.0405,295.7765
16:59:02:789,-0.4617,0.8703,8.273,70.9352,-0.3822,0.0405,0.1054,296.0639
16:59:02:809,0.0293,0.6899,8.3105,71.1184,-0.5983,-0.1682,0.1256,296.0873
16:59:02:829,0.35,0.4706,8.3385,71.0476,-0.6154,-0.4216,0.1246,296.0049
16:59:02:849,0.2596,0.6592,8.2144,71.2569,-0.4088,-0.4674,0.2427,295.9267
16:59:02:870,0.2254,0.9046,7.7044,71.0423,-0.0426,-0.2768,0.4865,295.8291
16:59:02:889,0.4456,0.9528,7.0576,70.9288,0.3918,0.0075,0.774,295.5328
16:59:02:910,0.6309,1.2274,6.4154,70.7526,0.7527,0.2236,0.938,294.8811
16:59:02:929,0.6796,1.7817,6.1317,70.4959,0.9326,0.2012,0.9018,293.8648
16:59:02:949,0.7599,2.4746,6.1798,70.3776,0.8964,-0.1629,0.6601,292.669
16:59:02:970,0.9913,2.7722,6.2864,70.3361,0.7144,-0.527,0.3471,291.5609
16:59:03:003,1.004,3.0663,6.6864,70.6518,0.3929,-0.659,0.0916,290.7738
16:59:03:008,0.8776,3.3922,7.4635,70.8872,-0.0117,-0.5004,-0.0564,290.4209
16:59:03:039,1.1654,3.3797,8.735,70.7812,-0.3322,-0.3705,-0.148,290.1553
16:59:03:050,1.279,2.7682,10.3174,71.1329,-0.5259,-0.1214,-0.2917,290.1802
16:59:03:068,0.7655,2.5224,12.1108,71.0922,-0.4237,0.2534,-0.3364,290.3961
16:59:03:088,-0.0665,2.8939,13.2444,71.2909,-0.0138,0.6942,-0.1597,290.8591
16:59:03:109,-0.4432,3.3622,13.2242,71.6553,0.3002,0.7293,0.1075,291.4709
16:59:03:129,-0.0381,3.5226,12.6285,71.7419,0.4014,0.593,0.3843,291.8286
16:59:03:148,1.2655,2.8441,11.9849,71.6818,0.3364,0.4003,0.5249,291.7246
16:59:03:169,2.0126,2.5245,11.4852,71.826,0.2555,0.2523,0.4525,291.2374
16:59:03:189,2.0636,2.61,11.0965,71.3123,0.2928,0.1597,0.3343,290.5286
16:59:03:209,2.2494,2.5701,10.3724,70.9658,0.2853,-0.1182,0.1693,289.9009
16:59:03:229,2.5731,2.4801,9.8273,70.9665,0.0298,-0.6303,-0.082,289.4109
16:59:03:248,2.6679,2.1463,9.5756,70.6671,-0.3396,-0.8719,-0.2928,289.0206
16:59:03:270,2.4925,1.8964,9.1775,70.434,-0.5909,-0.5738,-0.4163,288.91
16:59:03:289,1.8121,1.8489,8.4779,70.2294,-0.6995,-0.033,-0.511,289.2393
16:59:03:309,0.93,2.0772,7.6346,70.0894,-0.6963,0.4227,-0.5536,289.8932
16:59:03:329,0.2352,2.2165,6.8631,70.0174,-0.6356,0.6345,-0.543,290.71
16:59:03:348,-0.0988,2.1513,6.3301,69.946,-0.5707,0.4972,-0.5089,291.5489
16:59:03:369,-0.4097,2.326,6.3389,69.751,-0.5153,0.0735,-0.4301,292.3014
16:59:03:389,-0.1884,2.4317,6.7025,69.7085,-0.3801,-0.3471,-0.2374,292.9269
16:59:03:409,0.4093,2.3399,7.0929,69.436,-0.1171,-0.4195,-0.0309,293.4274
16:59:03:431,1.1452,2.1838,7.1754,69.257,0.1565,-0.2246,0.0745,293.7725
16:59:03:449,1.5577,2.336,7.3037,68.9629,0.2545,-0.1522,0.033,293.9279
16:59:03:468,1.5462,2.8559,7.6859,68.5913,0.2353,-0.2662,-0.0916,293.9014
16:59:03:489,1.5185,3.006,8.0193,68.4115,0.1852,-0.4227,-0.2151,293.8095
16:59:03:508,1.3371,3.1955,8.4636,68.0151,0.1171,-0.3929,-0.2161,293.8175
16:59:03:529,1.1971,3.5296,9.2269,68.0317,0.0979,-0.1501,-0.0458,293.995
16:59:03:549,1.4766,3.54,9.9186,68.2601,0.1256,0.0671,0.0948,294.2677
16:59:03:569,1.5211,3.5903,10.6926,68.3054,0.1341,-0.0117,0.0266,294.4096
16:59:03:589,1.2378,3.4208,11.5857,68.3878,0.0958,-0.2374,-0.0437,294.3225
16:59:03:609,0.7579,3.2993,12.5393,68.1455,0.1373,-0.1725,0.1267,294.2021
16:59:03:629,0.3625,3.585,13.0747,67.8927,0.3918,0.3173,0.5387,294.1979
16:59:03:648,0.7385,3.4569,12.7881,67.4258,0.6675,0.7229,0.8453,294.1514
16:59:03:669,1.2582,3.2551,12.2501,67.2691,0.7016,0.5483,0.6643,293.7047
16:59:03:688,1.2379,2.5932,11.7607,66.9999,0.6377,0.2289,0.1735,292.7025
16:59:03:709,0.3352,1.9814,11.2152,66.6421,0.6952,0.1246,-0.1107,291.6609
16:59:03:728,-0.2213,1.8364,10.3844,66.2427,0.692,-0.0234,-0.0468,291.1967
16:59:03:749,0.3037,1.4356,9.4495,65.9423,0.4589,-0.296,0.0777,291.1762
16:59:03:769,0.8446,1.6484,8.9502,65.3998,-0.0053,-0.3865,0.0564,291.088
16:59:03:789,1.0497,1.8231,8.7261,65.1565,-0.494,-0.1863,-0.0319,290.847
16:59:03:810,0.989,1.6092,8.441,64.9021,-0.791,0.1629,-0.1235,290.7172
16:59:03:829,0.6196,1.522,7.879,64.6427,-0.8102,0.4216,-0.0937,290.8396
16:59:03:849,0.2349,1.6232,7.1603,64.6062,-0.6271,0.5249,0.0798,291.1463
16:59:03:869,0.1074,1.8458,6.5931,64.6333,-0.4024,0.4482,0.3002,291.4487
16:59:03:889,0.2502,2.1583,6.4147,64.3137,-0.2129,0.3066,0.4312,291.5204
16:59:03:908,0.2919,2.1914,6.4875,64.0282,-0.0362,0.1597,0.411,291.2665
16:59:03:929,0.4019,2.1951,6.6089,63.8106,0.1405,0.0287,0.3524,290.7931
16:59:03:948,0.4191,2.4832,6.7672,63.2881,0.2108,-0.0788,0.3066,290.2909
16:59:03:970,0.4215,2.8659,7.1379,63.0731,0.1927,-0.0873,0.2545,289.8309
16:59:03:989,0.3843,2.981,7.461,62.9743,0.1448,-0.0096,0.1352,289.4116
16:59:04:008,0.4205,3.126,7.9912,62.4091,0.0607,-0.0202,0.0756,289.0735
16:59:04:031,0.9706,3.0751,8.7214,62.0667,-0.1054,-0.2694,0.049,288.8687
16:59:04:049,1.5058,3.0704,9.6142,61.8209,-0.3726,-0.3811,-0.1256,288.718
16:59:04:068,1.4498,3.0106,10.7827,61.4485,-0.6218,-0.1341,-0.3811,288.5861
16:59:04:088,0.9247,2.6987,11.7244,61.1471,-0.6707,0.2662,-0.4503,288.7187
16:59:04:108,0.3731,2.5743,12.1898,60.9424,-0.477,0.4802,-0.264,289.2581
16:59:04:128,-0.0542,3.0992,12.4032,60.6787,-0.164,0.4248,0.0628,289.9602
16:59:04:148,0.1826,3.6987,12.1462,60.6752,0.2406,0.3577,0.4376,290.4305
16:59:04:168,1.3172,3.1598,11.3436,60.1775,0.4972,0.33,0.4844,290.4888
16:59:04:189,1.5447,3.2251,10.6144,60.0505,0.511,0.2662,0.2087,290.0761
16:59:04:208,1.5633,2.8886,10,59.8227,0.4418,0.1224,-0.0192,289.4452
16:59:04:228,1.669,2.2132,9.4042,59.3689,0.3332,-0.0873,-0.2576,289.0535
16:59:04:248,1.6809,1.5261,8.8419,59.1841,0.0777,-0.3205,-0.5387,288.9393
16:59:04:268,1.5661,0.8859,8.688,58.946,-0.4173,-0.5909,-0.807,289.0945
16:59:04:288,1.3017,0.525,9.0153,58.8773,-0.9859,-0.6484,-0.9103,289.5684
16:59:04:308,1.141,0.3424,9.3701,58.6108,-1.3734,-0.3652,-0.823,290.4033
16:59:04:328,0.9544,0.4461,9.3783,58.2226,-1.4756,0.1341,-0.6186,291.5419
16:59:04:348,0.6082,0.7014,9.1081,57.7993,-1.2829,0.6526,-0.346,292.7428
16:59:04:368,0.1489,1.0827,8.4881,57.736,-0.8719,0.9571,-0.0905,293.7864
16:59:04:388,-0.2867,1.4409,7.7335,57.3361,-0.4525,0.84,0.0841,294.4985
16:59:04:408,-0.6109,2.145,7.3796,57.3094,-0.0841,0.4802,0.2065,294.8046
16:59:04:428,-0.4728,2.5881,7.3826,57.2536,0.2385,-0.0777,0.2875,294.7782
16:59:04:448,0.3489,2.2512,7.0479,56.7615,0.4834,-0.346,0.297,294.5409
16:59:04:469,0.8155,2.1038,6.7539,56.5867,0.5653,-0.3386,0.1565,294.1797
16:59:04:489,0.6127,2.3738,7.042,56.4278,0.4088,-0.2417,-0.0128,293.8108
16:59:04:509,0.3509,2.5324,7.8509,56.282,0.1437,-0.2651,-0.1203,293.5659
16:59:04:528,0.3865,2.1267,8.7842,56.2049,-0.0192,-0.2193,-0.1107,293.4906
16:59:04:549,0.218,1.8747,9.9126,55.9988,-0.1203,0.049,0.0788,293.569
16:59:04:569,-0.0809,2.3491,11.1121,55.8609,-0.1395,0.3449,0.4354,293.7231
16:59:04:589,0.1894,2.8336,12.0861,55.288,-0.0053,0.5068,0.626,293.7383
16:59:04:609,0.6057,2.8716,12.5763,55.1028,0.1544,0.3599,0.5664,293.4075
16:59:04:630,0.3555,2.9628,12.9896,55.1791,0.2193,0.0437,0.4887,292.7439
16:59:04:649,-0.2109,3.4151,13.6486,55.1583,0.329,0,0.6377,292.0079
16:59:04:668,-0.2595,3.3647,13.6245,54.9461,0.6345,0.2065,0.8592,291.3871
16:59:04:689,-0.0922,3.2515,12.5945,54.9289,0.9731,0.4014,0.8538,290.7123
16:59:04:709,-0.2502,2.7987,11.1835,54.4817,1.0764,0.3758,0.5227,289.8063
16:59:04:729,-0.9141,2.0249,10.1927,54.2028,0.9954,0.2214,0.1405,288.7721
16:59:04:749,-1.7248,1.4076,9.4898,54.0648,0.7974,0.0075,-0.0979,287.9865
16:59:04:768,-1.7879,0.7039,9.0664,53.7438,0.3151,-0.3109,-0.1884,287.6341
16:59:04:789,-1.3932,0.1231,9.5501,53.7654,-0.4067,-0.5738,-0.2193,287.5791
16:59:04:809,-0.9148,-0.176,10.4066,53.5201,-0.9252,-0.4184,-0.2002,287.6242
16:59:04:828,-0.3511,-0.3701,10.598,53.1839,-1.0466,-0.0532,-0.2129,287.8116
16:59:04:848,-0.2363,-0.1441,9.8212,53.011,-0.8208,0.3247,-0.165,288.1398
16:59:04:868,-0.4373,0.5216,8.5872,52.969,-0.4493,0.5973,0.1118,288.5379
16:59:04:889,-0.3094,1.2419,7.432,52.7233,-0.0979,0.6856,0.5408,288.909
16:59:04:909,0.2607,1.8814,6.6507,52.6961,0.1789,0.61,0.8869,288.9595
16:59:04:929,0.9082,2.3906,6.5798,52.8401,0.4322,0.378,0.939,288.4776
16:59:04:949,0.9778,2.6964,6.3611,52.6552,0.708,0.3322,0.757,287.5047
16:59:04:972,0.9301,2.5864,6.1854,52.748,0.8059,0.2811,0.5185,286.3797
16:59:04:990,0.7817,2.2558,6.0949,52.6657,0.6441,0.0979,0.2843,285.4477
16:59:05:009,0.6864,1.9716,6.8647,52.4669,0.297,-0.2704,0.0926,284.7318
16:59:05:040,0.4964,2.0463,8.1286,52.4829,0.033,-0.5483,-0.0479,284.2434
16:59:05:048,0.4342,2.1037,9.2636,52.5197,-0.0053,-0.4163,-0.1597,283.9659
16:59:05:069,0.744,1.67,9.9485,52.3571,-0.0138,0,-0.28,283.959
16:59:05:089,0.6963,1.4624,10.3939,52.3503,-0.115,0.4227,-0.4397,284.1875
16:59:05:109,-0.0455,1.9095,10.6698,52.2729,-0.2129,0.7048,-0.5685,284.5789
16:59:05:129,-1.0534,2.7929,11.0235,52.2243,-0.2811,0.774,-0.4919,285.1267
16:59:05:148,-1.4563,3.6728,11.3178,52.061,-0.3375,0.7527,-0.2002,285.8076
16:59:05:168,-0.7049,3.7987,11.4817,52.0136,-0.4535,0.6558,-0.0224,286.4162
16:59:05:189,0.1848,3.111,11.7284,51.6943,-0.6207,0.4674,-0.164,286.7061
16:59:05:209,0.147,2.2969,12.1943,51.5044,-0.5504,0.1107,-0.3045,286.6948
16:59:05:229,-0.0181,1.4082,11.7839,51.441,-0.1437,-0.2811,-0.3652,286.7424
16:59:05:248,-0.0542,0.7411,10.5761,50.9755,0.049,-0.7154,-0.4897,286.9974
16:59:05:270,0.0472,0.4106,9.8937,51.0904,-0.247,-1.0551,-0.5696,287.3672
16:59:05:288,0.3587,0.3949,9.7237,50.9181,-0.6963,-1.0519,-0.5675,287.8349
16:59:05:308,0.6862,0.6662,9.4404,50.8637,-1.0018,-0.6164,-0.4759,288.4047
16:59:05:329,0.9063,1.0999,8.8473,51.1344,-1.1136,0.0394,-0.3811,289.0653
16:59:05:348,0.7302,1.7497,8.7759,51.1947,-1.0604,0.4024,-0.4163,289.7256
16:59:05:369,0.5227,2.0018,8.8456,51.1739,-0.758,0.411,-0.5888,290.2783
16:59:05:391,0.3081,1.6796,8.2362,51.1347,-0.3002,0.3652,-0.7687,290.765
16:59:05:408,-0.0751,1.6611,7.6063,50.9424,0.0617,0.1735,-0.8347,291.4209
16:59:05:431,-0.3406,1.8575,7.261,50.7372,0.2726,-0.2811,-0.7836,292.2938
16:59:05:448,-0.256,1.7126,7.0367,50.8008,0.3971,-0.7059,-0.7442,293.2407
16:59:05:468,-0.2917,1.9379,6.9641,50.5986,0.3577,-0.8602,-0.7272,294.1273
16:59:05:488,-0.4158,2.5067,7.3446,50.5614,0.1852,-0.5717,-0.6292,294.9622
16:59:05:508,-0.6828,2.7385,8.3098,50.7523,-0.0681,-0.2246,-0.5227,295.82
16:59:05:529,-0.785,2.3575,9.3946,50.7157,-0.3769,-0.3077,-0.4301,296.6143
16:59:05:549,-0.6778,1.7366,10.2024,50.6231,-0.6441,-0.6058,-0.1693,297.2389
16:59:05:568,-0.5251,1.121,11.2534,50.422,-0.7325,-0.4514,0.132,297.6958
16:59:05:589,-0.8006,0.3008,12.812,50.4757,-0.4482,0.5025,0.511,297.943
16:59:05:609,-1.3074,0.6407,13.9496,50.3899,0.2853,1.5661,1.0476,297.9785
16:59:05:628,-1.4312,1.1415,14.3156,50.4718,1.1168,1.9707,1.3915,297.7245
16:59:05:649,-1.6169,1.8604,14.302,50.5838,1.6662,1.5672,1.3202,296.8652
16:59:05:669,-1.5099,2.1688,13.749,50.8971,1.8866,0.7037,0.9507,295.4283
16:59:05:689,-1.3719,2.4197,12.5973,50.929,1.7098,-0.2513,0.4663,293.9077
16:59:05:709,-1.4599,2.3718,11.2971,51.2157,1.2446,-0.5589,0.231,292.6835
16:59:05:728,-1.4116,1.9324,10.2091,51.4656,0.9156,-0.1661,0.3279,291.9899
16:59:05:749,-0.9297,1.6079,9.4273,51.6288,0.8017,0.0106,0.544,291.7498
16:59:05:769,-0.4118,1.6575,8.7619,51.6673,0.61,-0.3961,0.6037,291.5239
16:59:05:789,0.0164,1.2811,8.2568,51.5674,0.3354,-0.7623,0.2736,290.9152
16:59:05:809,0.0314,1.2386,8.0282,51.5856,0.1065,-0.8368,-0.0926,290.0971
16:59:05:828,0.0593,1.1101,7.7411,51.4516,-0.0767,-0.5813,-0.263,289.6024
16:59:05:849,0.2922,0.8763,7.381,51.4689,-0.2342,-0.1959,-0.3535,289.6421
16:59:05:869,0.1629,0.9948,6.9622,51.4457,-0.4929,-0.0788,-0.4131,290.0004
16:59:05:889,-0.2099,1.4946,6.992,51.5973,-0.7644,-0.1139,-0.3705,290.443
16:59:05:909,-0.521,1.7054,7.15,51.6552,-0.8805,-0.1405,-0.2342,290.9097
16:59:05:929,-0.6034,1.5432,6.9434,51.6686,-0.8496,0.0458,0.0319,291.3367
16:59:05:948,-0.7313,1.4002,6.6297,51.9272,-0.7144,0.5323,0.5387,291.6602
16:59:05:970,-0.6911,1.5943,6.3781,52.1296,-0.5387,1.1339,1.1062,291.7867
16:59:05:990,-0.9266,1.7091,6.5776,52.2753,-0.4173,1.6523,1.4905,291.4086
16:59:06:008,-0.8535,2.0511,7.1695,52.3365,-0.379,1.631,1.2989,290.3575
16:59:06:029,-0.9613,3.2528,7.7581,52.3527,-0.2566,1.5182,0.8602,288.7368
16:59:06:049,-1.0061,3.4172,8.2642,52.4335,-0.1661,1.3127,0.5185,287.0725
16:59:06:069,-0.7121,2.9316,8.8619,52.3594,-0.2087,0.8496,0.1863,285.907
16:59:06:090,-0.2775,2.6141,9.7234,52.4569,-0.214,0.1767,-0.2459,285.1435
16:59:06:109,-0.3286,2.484,10.3522,52.3185,-0.2204,-0.3748,-0.7825,284.6971
16:59:06:129,-0.7868,2.0457,10.7894,52.0497,-0.1916,-0.6643,-1.268,284.722
16:59:06:148,-1.0616,1.3894,11.1102,52.0305,-0.115,-0.6313,-1.5416,285.3809
16:59:06:168,-1.7418,1.1721,11.5186,51.8514,-0.0671,-0.4919,-1.4469,286.6837
16:59:06:189,-2.4993,1.943,12.2086,51.684,0.0458,-0.4674,-0.9656,288.416
16:59:06:209,-2.1002,1.4606,12.4129,51.8226,0.23,-0.3737,-0.2406,290.1626
16:59:06:228,-1.3164,0.1979,12.0949,51.8736,0.4078,0.1469,0.264,291.4711
16:59:06:248,-0.9463,-0.0091,11.4923,52.2265,0.4567,0.8964,0.3865,292.0305
16:59:06:268,-0.8778,0.3561,10.5084,52.4274,0.3215,1.2382,0.2704,292.0144
16:59:06:288,-0.8332,0.8457,9.9553,52.9293,-0.0894,0.8964,-0.0596,291.788
16:59:06:308,-0.9676,1.219,9.9254,52.7034,-0.626,0.0053,-0.3396,291.3937
16:59:06:328,-0.8004,0.9928,9.9813,52.774,-0.9422,-0.9252,-0.4354,291.2
16:59:06:348,-0.2993,0.785,9.9215,53.1322,-0.9018,-1.334,-0.4344,291.209
16:59:06:369,-0.108,0.7514,9.4026,53.1907,-0.5217,-0.79,-0.5025,291.4116
16:59:06:392,-0.6547,1.0346,8.4499,53.0868,-0.0511,-0.0362,-0.6345,291.8033
16:59:06:409,-1.2188,1.3322,7.623,53.1025,0.3279,-0.0319,-0.6175,292.4312
16:59:06:428,-0.9804,1.6928,7.3172,53.139,0.5898,-0.5653,-0.4472,293.2162
16:59:06:448,-0.639,1.8096,7.3208,52.9189,0.8166,-0.9475,-0.3311,293.9645
16:59:06:469,0.0124,1.7665,7.1564,53.1472,0.9731,-1.0977,-0.3918,294.5504
16:59:06:488,0.2313,1.8471,6.9433,53.3755,1.0838,-1.0242,-0.5153,295.0189
16:59:06:508,0.0118,2.1999,7.2589,53.1621,1.136,-1.0018,-0.6441,295.54
16:59:06:529,-0.1982,2.3864,7.6745,53.1287,1.0977,-1.1839,-0.724,296.2
16:59:06:549,-0.3066,2.5874,8.0886,53.0163,0.9805,-1.3095,-0.6739,296.9589
16:59:06:570,0.1121,2.8458,8.9319,53.0828,0.8347,-1.3351,-0.445,297.7805
16:59:06:589,0.3009,3.0289,10.1052,53.2353,0.8283,-1.2084,-0.2065,298.569
16:59:06:609,0.304,3.0732,10.4998,53.3604,1.0157,-0.9209,-0.1661,299.1383
16:59:06:629,0.3922,3.1523,10.2453,53.5879,1.2126,-0.2938,-0.247,299.4366
16:59:06:648,0.4612,3.7538,10.2168,53.765,1.2563,0.5078,-0.2374,299.6863
16:59:06:670,-0.4155,5.171,10.6063,54.1529,0.9039,0.7602,0.1916,300.0652
16:59:06:688,-0.85,4.7724,10.8361,54.5008,0.6005,1.1956,0.6313,300.3909
16:59:06:709,-1.0431,4.1719,10.5748,54.792,0.411,1.499,0.7783,300.1985
16:59:06:729,-1.5908,4.2634,10.1922,55.118,0.0468,1.5022,0.9358,299.5529
16:59:06:749,-1.3673,3.8249,10.6098,55.1219,-0.5164,0.807,0.9475,298.6049
16:59:06:770,-1.1476,3.5353,10.5622,55.1369,-0.7101,0.263,0.906,297.3038
16:59:06:788,-0.159,2.3409,10.5616,54.7439,-0.3705,-0.2289,0.609,295.8254
16:59:06:808,0.3645,1.9568,9.9241,54.6967,-0.1011,-0.4567,0.3237,294.5759
16:59:06:829,0.3058,2.8975,9.2952,54.6049,-0.115,-0.3215,0.2619,293.6755
16:59:06:848,0.6431,3.0939,8.5185,54.6435,-0.4184,0.0468,0.1544,293.2285
16:59:06:868,0.3253,2.5771,7.9424,54.8574,-0.6633,0.3279,0.0224,292.9552
16:59:06:889,-0.2043,2.2297,7.5452,54.7681,-0.6569,0.2832,0.0064,292.7915
16:59:06:908,-0.1579,1.8044,7.2551,54.5481,-0.6122,-0.0681,0.0351,292.7958
16:59:06:928,-0.0646,1.9722,7.2775,54.6291,-0.5568,-0.2736,0.1097,292.7342
16:59:06:948,-0.1087,2.4045,7.1153,54.6961,-0.4046,-0.1767,0.3237,292.6308
16:59:06:968,0.1334,2.5066,6.9037,54.7762,-0.164,0.0979,0.4993,292.5231
16:59:06:988,0.5414,2.9908,7.213,54.9914,0.0703,0.3119,0.5387,292.2651
16:59:07:008,0.7162,2.5162,7.5836,55.0949,0.2097,0.3588,0.3279,291.7928
16:59:07:033,0.6889,2.3847,7.8656,54.737,0.2513,-0.1469,-0.1043,291.2215
16:59:07:049,0.0413,2.9338,8.226,54.5702,0.3439,-0.2491,-0.379,290.6928
16:59:07:068,-0.0688,3.7302,8.3949,54.6189,0.3875,-0.0266,-0.3822,290.6441
16:59:07:088,0.2926,3.8481,8.535,54.7351,-0.0096,-0.0543,-0.3577,291.0775
16:59:07:108,0.686,3.4397,9.3294,54.8648,-0.4546,-0.2566,-0.4322,291.5731
16:59:07:128,0.5319,3.1417,10.4786,54.715,-0.593,-0.395,-0.5462,291.904
16:59:07:148,-0.1174,3.3306,11.4553,54.8311,-0.4876,-0.4429,-0.5036,292.3422
16:59:07:168,-0.5626,3.5152,12.0465,54.7547,-0.264,-0.2619,-0.263,292.9646
16:59:07:188,-0.2949,3.3891,12.2765,54.7035,0.0617,0.1459,0.0692,293.6415
16:59:07:208,0.8076,2.5423,12.3682,54.6225,0.2811,0.2704,0.2065,294.1309
16:59:07:228,1.0084,2.7136,12.4687,54.5883,0.2534,-0.1544,0.1011,294.2373
16:59:07:249,1.284,2.6735,12.2166,54.7913,0.2821,-0.5323,0.0277,293.9706
16:59:07:268,1.8049,1.7969,11.2634,54.6032,0.5153,-0.4259,-0.082,293.6901
16:59:07:288,1.6985,1.4772,10.2647,54.4462,0.6367,-0.1384,-0.2694,293.6143
16:59:07:308,1.2695,1.91,9.6472,54.3568,0.4344,-0.2491,-0.3811,293.7574
16:59:07:328,1.1615,2.241,9.0643,54.0258,0.0979,-0.4078,-0.3865,294.0286
16:59:07:348,1.201,2.3444,8.5239,53.4694,-0.1118,-0.1565,-0.3897,294.3513
16:59:07:368,1.0229,2.5253,7.863,53.1354,-0.2055,0.3173,-0.4291,294.8012
16:59:07:388,0.6344,2.5265,7.0568,53.2397,-0.2555,0.7793,-0.5036,295.3591
16:59:07:409,0.0165,2.6751,6.5324,53.1124,-0.3279,0.8847,-0.5983,296.0087
16:59:07:428,-0.4881,2.7429,6.4617,53.2655,-0.3865,0.4397,-0.6047,296.6875
16:59:07:449,-0.2952,2.8315,6.6782,53.3456,-0.3513,-0.2481,-0.5323,297.3455
16:59:07:468,0.3043,2.5828,6.7091,53.2899,-0.2757,-0.7229,-0.5632,297.9256
16:59:07:488,0.6655,2.4503,6.7061,53.3461,-0.3194,-0.758,-0.6856,298.4399
16:59:07:508,0.6751,2.0924,6.9198,53.2537,-0.4344,-0.5217,-0.7378,299.044
16:59:07:528,0.2214,2.5215,7.5896,53.2501,-0.5046,-0.2843,-0.6047,299.8746
16:59:07:548,0.0312,2.9892,8.2497,53.0055,-0.4759,-0.0181,-0.33,300.8072
16:59:07:568,0.082,3.1936,8.9084,52.6874,-0.4567,0.1405,-0.1597,301.6385
16:59:07:588,-0.0465,3.3748,9.8198,52.6731,-0.4919,0.0468,-0.0905,302.1808
16:59:07:608,0.02,3.101,10.524,52.6937,-0.5313,0.0607,0.0064,302.4313
16:59:07:628,-0.1456,3.0762,11.3074,52.7912,-0.5068,0.4546,0.0458,302.5183
16:59:07:649,-0.7726,2.9443,11.7951,52.7942,-0.5015,0.7772,0.0202,302.6029
16:59:07:668,-1.6217,2.7509,12.0359,52.5721,-0.5483,0.7399,0.0671,302.64
16:59:07:689,-2.2957,2.6471,12.2705,52.5766,-0.5685,0.4621,0.2619,302.6375
16:59:07:709,-2.0116,2.0619,12.3238,52.4166,-0.4961,0.2087,0.4887,302.5148
16:59:07:729,-1.1741,0.9367,12.1894,52.2306,-0.3418,0.1554,0.5238,302.1909
16:59:07:748,-1.108,0.1419,11.7104,52.2294,-0.1799,0.4834,0.3162,301.6349
16:59:07:769,-1.6665,-0.2785,11.0373,52.2154,-0.0309,0.7815,0.1416,301.0327
16:59:07:789,-2.159,-0.385,10.4361,51.9972,0.0607,0.6037,0.1703,300.6764
16:59:07:810,-1.9676,0.0408,9.7852,51.5723,0.116,0.2587,0.346,300.4977
16:59:07:828,-1.3381,0.3829,9.6778,51.4594,0.2055,0.2406,0.3577,300.2667
16:59:07:849,-1.0809,0.3951,9.505,51.4181,0.3087,0.2268,0.1586,299.8897
16:59:07:869,-1.4716,0.2066,9.6974,51.2019,0.4695,0.0979,0.1437,299.4872
16:59:07:889,-1.9256,0.5662,9.6619,50.8315,0.8911,0.0287,0.4578,299.29
16:59:07:909,-1.6204,0.179,9.0263,50.3853,1.2786,-0.1874,0.9848,299.1796
16:59:07:933,-1.1066,1.2695,7.8193,50.2397,1.4245,0.3556,1.598,298.8349
16:59:07:962,-0.7141,2.0984,6.9457,49.7516,1.3329,0.5302,1.8014,297.9511
16:59:07:973,0.1011,2.6405,6.2667,49.3231,0.9273,0.4461,1.6555,296.4439
16:59:07:994,0.516,3.2396,6.1479,48.9679,0.6292,0.2023,1.2446,294.3929
16:59:08:009,0.5854,3.5001,6.4025,48.6534,0.4269,-0.2108,0.7229,292.3434
16:59:08:028,0.4491,3.7579,7.1743,48.4012,0.363,-0.741,0.2906,290.6727
16:59:08:048,0.3813,3.8808,7.9551,48.5284,0.4578,-1.1136,-0.0075,289.5659
16:59:08:068,0.3919,4.1,8.2243,48.7001,0.6196,-1.137,-0.214,289.0247
16:59:08:087,0.3975,4.2222,8.129,48.4967,0.7463,-0.7229,-0.3811,288.9465
16:59:08:110,0.364,4.1584,8.384,48.4591,0.6729,-0.3418,-0.4791,289.2451
16:59:08:128,0.069,4.2294,9.0493,48.3592,0.4152,-0.379,-0.5334,289.8069
16:59:08:147,-0.4111,4.6171,9.7742,48.0902,0.0937,-0.6942,-0.5313,290.4159
16:59:08:168,-0.4514,4.9241,10.5298,47.8767,-0.1522,-0.8251,-0.3662,290.9628
16:59:08:190,-0.5212,5.3375,11.3581,47.6126,-0.116,-0.5675,-0.132,291.524
16:59:08:208,-0.0274,5.254,11.5178,47.3429,0.1948,-0.2491,0.0681,292.0264
16:59:08:228,0.7737,4.3095,11.0519,46.9818,0.2459,-0.3056,0.0724,292.3724
16:59:08:248,0.8961,3.9184,10.6995,46.6437,0.0064,-0.4951,0.0213,292.3791
16:59:08:268,1.0416,3.2822,9.9049,46.3624,-0.2225,-0.5749,0.0426,292.1951
16:59:08:288,1.0603,2.9951,8.7879,46.0545,-0.3971,-0.5824,-0.0383,292.092
16:59:08:308,1.0623,2.6049,8.5658,46.0473,-0.2278,-0.477,-0.1821,292.0239
16:59:08:328,1.8142,1.9283,8.573,45.8928,-0.066,-0.6569,-0.411,292.1168
16:59:08:348,1.609,2.0701,8.1758,45.8072,-0.0213,-0.4844,-0.4802,292.3719
16:59:08:368,1.1743,2.8139,7.4306,45.3028,0.0043,0.2726,-0.2502,292.8255
16:59:08:388,0.437,3.6203,7.3415,45.1951,-0.0852,0.8283,0.0437,293.5688
16:59:08:408,0.0064,3.7893,6.8815,44.8101,-0.3396,0.3992,0.1852,294.1658
16:59:08:428,0.0589,3.5281,6.5022,44.7061,-0.3588,0.3215,0.2417,294.1406
16:59:08:448,0.1808,3.238,6.2141,44.8091,-0.2097,0.5249,0.3375,293.8413
16:59:08:468,0.5735,3.1748,5.9593,44.4537,-0.148,0.7719,0.5195,293.6338
16:59:08:488,0.9271,3.1358,6.3363,44.2609,-0.2044,0.939,0.6388,293.3262
16:59:08:508,1.0647,3.1981,7.0582,44.1858,-0.2875,0.6537,0.5792,292.8067
16:59:08:528,0.9231,3.2101,7.5998,43.9839,-0.2853,0.4354,0.4834,292.0146
16:59:08:548,0.5411,3.4393,8.2929,43.7433,-0.1842,0.3151,0.4493,291.2045
16:59:08:569,0.5235,3.6545,9.0022,43.6401,-0.0522,0.0234,0.4684,290.5805
16:59:08:588,0.5834,4.1823,9.5752,43.3711,0.0884,-0.1544,0.4812,289.9877
16:59:08:608,0.6778,4.6197,10.0555,42.9824,0.2417,-0.1001,0.4131,289.3694
16:59:08:628,0.8924,4.8104,10.2239,42.961,0.3833,0.1618,0.3141,288.7802
16:59:08:648,0.9468,4.8354,10.2559,42.9275,0.3545,0.3886,0.1491,288.2986
16:59:08:668,0.5236,5.0319,10.5705,42.8668,0.1501,0.3396,-0.0287,287.9518
16:59:08:691,-0.2689,5.075,11.3798,42.9239,-0.0085,0.0554,-0.0298,287.7203
16:59:08:713,-0.9635,5.0987,11.9851,42.8805,0.1459,0.083,0.2992,287.6266
16:59:08:728,-0.937,5.1229,11.8942,42.5726,0.4791,0.4014,0.8134,287.6206
16:59:08:749,-0.2296,4.5059,11.6533,42.2964,0.6132,0.4919,0.9805,287.4052
16:59:08:769,0.0913,4.1117,11.3085,41.8568,0.5451,0.3609,0.6558,286.5794
16:59:08:788,0.0192,3.4131,10.7868,41.6861,0.56,0.2928,0.2246,285.3284
16:59:08:808,-0.0632,2.909,9.992,41.4718,0.6654,0.3396,0.0096,284.3632
16:59:08:828,0.1506,2.3723,8.8602,41.351,0.6665,0.3535,-0.1235,283.9779
16:59:08:848,0.1568,2.3797,7.9788,41.3451,0.3524,0.1363,-0.3279,283.9468
16:59:08:868,0.0192,2.7896,7.395,41.1395,-0.1799,-0.016,-0.4482,284.0188
16:59:08:892,0.1139,2.6447,7.0134,40.7809,-0.6984,0.1288,-0.4844,284.2686
16:59:08:909,-0.1134,2.5454,6.8819,40.8192,-1.0529,0.4067,-0.4344,284.7643
16:59:08:928,-0.3539,2.4909,7.0119,40.4478,-1.1594,0.5057,-0.2236,285.3911
16:59:08:948,-0.5865,2.4808,7.4528,39.9861,-0.9827,0.4088,0.0852,285.9702
16:59:08:971,-0.7488,2.824,7.9679,40.075,-0.5078,0.3077,0.3982,286.2614
16:59:08:988,-0.6341,3.0745,8.1235,39.829,0.131,0.2587,0.4865,286.1922
16:59:09:007,-0.4076,3.0777,7.6729,39.3558,0.6771,0.0681,0.3194,285.7941
16:59:09:035,-0.4097,3.2029,7.1089,39.1953,0.9252,-0.2906,0.1278,285.2534
16:59:09:048,-0.1565,3.271,6.9354,38.7038,0.9167,-0.6665,0.0256,284.8165
16:59:09:068,0.1323,3.5524,6.9206,38.5953,0.774,-0.7868,-0.0926,284.5635
16:59:09:088,0.0233,4.3097,7.1325,38.2866,0.5068,-0.5866,-0.2012,284.4512
16:59:09:108,0.0395,4.7784,7.5222,38.4414,0.2151,-0.1469,-0.2395,284.5402
16:59:09:129,0.2354,4.7716,8.0835,38.6128,-0.0181,0.0426,-0.2768,284.8361
16:59:09:149,0.4567,4.6648,8.6936,38.4306,-0.1789,-0.1192,-0.4078,285.2183
16:59:09:168,0.1359,4.9266,9.2904,38.1658,-0.3237,-0.2587,-0.5345,285.5415
16:59:09:188,-0.6248,5.1008,10.3598,38.2351,-0.4205,-0.1459,-0.4152,285.9577
16:59:09:208,-0.9634,5.203,11.3501,37.9935,-0.2651,0.0745,-0.0213,286.5894
16:59:09:229,-0.475,5.3387,11.5561,37.6373,0.0937,0.1842,0.3641,287.2078
16:59:09:250,0.7886,4.8507,10.817,37.5377,0.3258,0.0447,0.4653,287.4001
16:59:09:269,1.5227,4.536,10.3004,37.4121,0.3215,-0.1448,0.3599,287.0454
16:59:09:288,1.7077,4.4349,9.9597,36.9221,0.395,-0.1597,0.0937,286.4104
16:59:09:308,1.3014,4.3075,9.2217,37.1114,0.4461,-0.2875,-0.2417,285.9101
16:59:09:328,1.0239,4.1558,8.4761,36.8187,0.2832,-0.4951,-0.5142,285.7202
16:59:09:348,0.9698,3.5006,8.0462,36.507,-0.1831,-0.6335,-0.7761,285.9145
16:59:09:368,0.5679,2.9836,8.2891,36.6438,-0.7974,-0.4929,-0.8336,286.4326
16:59:09:388,0.2685,2.628,8.8859,36.3394,-1.2456,-0.099,-0.6494,287.3207
16:59:09:409,-0.038,2.6743,9.2895,36.436,-1.2786,0.3929,-0.3897,288.4229
16:59:09:431,-0.1999,2.7011,9.1955,36.5312,-0.9624,0.6271,-0.1799,289.427
16:59:09:448,-0.2121,2.5956,8.5285,36.5999,-0.5345,0.4716,-0.0628,290.1217
16:59:09:468,-0.2416,2.7229,7.8731,36.4976,-0.1544,0.0756,-0.0117,290.4463
16:59:09:488,-0.3382,2.9552,7.1943,36.4187,0.1554,-0.2183,0.0319,290.5107
16:59:09:509,-0.1202,2.8535,6.6574,36.3392,0.3183,-0.3205,0.1011,290.4719
16:59:09:529,0.6402,2.4719,6.4297,36.3956,0.3652,-0.2566,0.1288,290.4178
16:59:09:548,1.1037,2.5482,6.3675,36.2447,0.3183,0.0064,0.0437,290.319
16:59:09:569,0.9934,3.1021,6.5633,36.32,0.2002,0.1938,-0.0724,290.2036
16:59:09:588,0.562,3.6383,7.1024,36.3749,0.0958,0.1842,-0.1065,290.1838
16:59:09:609,0.4493,4.0802,7.7795,36.113,0.0777,0.0373,-0.0479,290.2578
16:59:09:628,0.7168,4.4408,8.4088,36.1264,0.049,-0.1182,-0.0617,290.3574
16:59:09:650,0.6383,4.6655,9.0713,35.9628,-0.0021,-0.0543,-0.1714,290.3859
16:59:09:669,-0.0519,4.9245,9.7094,35.6932,0.0405,0.1874,-0.181,290.4301
16:59:09:688,-0.604,5.0962,9.9241,35.956,0.0788,0.3173,-0.0862,290.6694
16:59:09:709,-1.1456,5.4232,10.278,35.5453,-0.0426,0.2885,0.0703,290.9687
16:59:09:728,-1.6057,5.8434,11.3081,35.68,-0.1895,0.4557,0.3556,291.0978
16:59:09:750,-1.2014,5.5261,12.0178,35.8168,-0.1267,0.7623,0.5259,291.0287
16:59:11:118,0.1044,3.4721,7.2247,49.425,0.0969,-0.6878,-0.0532,289.04
16:59:11:119,-0.1866,3.7161,7.9802,49.8053,-0.0564,-0.5302,-0.2214,290.015
16:59:11:165,-0.1828,3.7371,8.8117,50.2003,-0.1938,-0.3226,-0.2619,289.9694
16:59:11:165,0.043,3.5134,9.7999,50.4577,-0.3151,-0.3215,-0.346,290.2451
16:59:11:175,0.0503,3.1567,10.6026,51.1323,-0.3449,-0.379,-0.4865,290.5709
16:59:11:205,-0.2881,3.0382,11.063,51.952,-0.2757,-0.2864,-0.5547,290.9349
16:59:11:213,-0.8412,3.3741,11.3987,52.4916,-0.1831,-0.1352,-0.4397,291.493
16:59:11:228,-0.9734,3.894,11.6253,53.1099,-0.0596,-0.0692,-0.197,292.1946
16:59:11:248,-0.4492,3.9082,11.6214,53.7654,0.0703,-0.1661,0.016,292.7972
16:59:11:268,0.4179,3.2292,11.2757,54.0203,0.1075,-0.2715,0.0703,293.1024
16:59:11:288,1.0255,2.7413,10.8891,54.0397,0.1278,-0.2161,0.05,293.1096
16:59:11:316,1.3584,2.1224,10.2922,54.4873,0.2172,-0.1544,-0.1341,293.0228
16:59:11:343,1.0931,1.9614,9.4566,54.7576,0.263,-0.247,-0.4301,292.9877
16:59:11:363,0.7665,1.8367,8.6214,55.0313,0.0426,-0.5472,-0.6856,293.1114
16:59:11:368,0.4913,1.985,8.358,55.8109,-0.5834,-0.8411,-0.8294,293.5152
16:59:11:388,0.5117,1.961,8.6643,56.4417,-1.3159,-0.7495,-0.7687,294.1628
16:59:11:408,0.7505,1.7237,9.2649,56.9997,-1.778,-0.2353,-0.6143,295.0406
16:59:11:428,0.6635,1.617,9.5721,57.5155,-1.7396,0.5121,-0.4546,296.0244
16:59:11:448,0.2002,1.5875,9.2095,57.9514,-1.2574,1.2584,-0.296,296.9648
16:59:11:468,-0.3113,1.6747,8.4269,58.2326,-0.6814,1.4171,-0.1629,297.774
16:59:11:488,-0.7573,2.0227,7.9463,58.4139,-0.214,0.807,-0.0798,298.3214
16:59:11:509,-0.6476,2.5427,7.8464,58.9002,0.1416,-0.1799,0.0298,298.5279
16:59:11:528,0.1458,2.4268,7.6641,59.0465,0.5366,-0.7399,0.0894,298.5101
16:59:11:548,0.851,2.1075,7.2507,59.3185,0.8453,-0.7697,-0.0692,298.4029
16:59:11:569,0.8433,2.2063,6.97,59.8187,0.9007,-0.4855,-0.2906,298.32
16:59:11:589,0.4703,2.4653,7.2678,60.3199,0.6867,-0.3503,-0.3258,298.4279
16:59:11:609,0.1503,2.88,7.8428,60.7373,0.3694,-0.1693,-0.1916,298.7768
16:59:11:630,-0.1819,3.5316,8.5928,61.079,0.1256,0.1522,-0.0394,299.1717
16:59:11:649,-0.1969,3.7133,9.6449,61.7649,0.0532,0.3205,-0.0021,299.4692
16:59:11:668,-0.2905,3.4147,10.3571,62.1954,0.1469,0.3865,-0.0979,299.5956
16:59:11:688,-0.8606,3.2954,10.9518,62.8624,0.198,0.1629,-0.1437,299.6249
16:59:11:709,-1.5233,3.5042,11.691,63.5261,0.0777,-0.2257,-0.0181,299.7179
16:59:11:731,-1.7956,4.0103,12.5175,63.9661,-0.0479,-0.2662,0.3066,299.8048
16:59:11:751,-1.0426,3.7905,13.2204,64.3065,-0.083,-0.1246,0.5707,299.7923
16:59:11:769,0.07,2.8167,13.4528,64.6304,-0.0969,-0.1097,0.4312,299.5314
16:59:11:788,-0.0181,2.179,13.386,64.6087,0.0043,0.0926,0.1065,298.894
16:59:11:808,-0.8466,1.5284,12.3741,65.0233,0.3588,0.4812,-0.0309,298.3406
16:59:11:829,-1.4858,1.1898,10.6795,65.124,0.7016,0.626,0.0575,298.235
16:59:11:848,-1.4107,1.1824,9.0316,65.4312,0.7016,0.2406,0.2619,298.3717
16:59:11:869,-0.8753,1.5372,7.9709,65.5612,0.3662,-0.3056,0.3268,298.3539
16:59:11:888,-0.2601,1.7579,7.49,65.8909,-0.0756,-0.3556,0.2087,297.9658
16:59:11:912,0.0551,1.4365,7.1313,66.3425,-0.4684,-0.0575,-0.0266,297.472
16:59:11:928,-0.1996,1.2673,7.0296,66.4462,-0.7357,0.131,-0.1938,297.1765
16:59:11:949,-0.6407,1.5173,7.0295,66.7545,-0.8538,0.0511,-0.1352,297.1805
16:59:11:968,-0.7293,1.7032,7.0816,66.8055,-0.8102,-0.1001,0.0532,297.3416
16:59:11:989,-0.4628,1.6983,6.9248,66.8483,-0.6942,-0.33,0.165,297.4752
16:59:12:009,-0.3839,1.7302,6.8874,67.1293,-0.5462,-0.3247,0.2012,297.4093
16:59:12:029,-0.2167,1.7557,7.2442,67.1362,-0.544,-0.4589,0.2055,297.2042
16:59:12:049,0.0266,2.0616,7.3579,67.4168,-0.6739,-0.3886,0.2449,296.988
16:59:12:068,0.3427,1.9899,8.0549,67.9076,-0.6622,-0.0341,0.2023,296.6918
16:59:12:088,0.3303,1.8423,8.8088,67.7161,-0.6047,0.1256,-0.0192,296.4767
16:59:12:109,0.3587,1.8711,9.6442,67.9931,-0.5888,0.0948,-0.3418,296.2808
16:59:12:129,0.3935,1.703,10.459,68.0522,-0.609,0.1501,-0.6281,296.257
16:59:12:149,0.333,0.8957,11.1081,68.1169,-0.5451,0.2449,-0.774,296.5676
16:59:12:169,-0.1127,0.6863,11.5925,68.5155,-0.3354,0.1501,-0.7176,297.248
16:59:12:190,-0.7527,1.2174,12.1169,68.5873,-0.0564,-0.1192,-0.5206,298.1352
16:59:12:209,-1.0633,2.0239,12.5204,68.5678,0.1884,-0.3609,-0.2598,298.9898
16:59:12:229,-0.905,2.5776,12.6945,69.0626,0.3726,-0.4653,0.0596,299.6348
16:59:12:249,-0.2351,2.0818,12.6351,69.1471,0.5653,-0.3918,0.2779,300.0084
16:59:12:270,0.6798,1.7294,12.9444,69.0639,0.7005,-0.823,0.2193,300.0292
16:59:12:289,1.5532,1.354,12.2353,69.4059,0.7772,-0.8922,0.0234,299.7574
16:59:12:309,1.8606,0.6772,11.0149,69.5815,0.7815,-0.4365,-0.2417,299.4074
16:59:12:329,1.483,0.497,9.7723,69.7929,0.6324,-0.0926,-0.3939,299.3252
16:59:12:349,1.1055,0.5636,8.8066,70.0761,0.247,-0.049,-0.3109,299.5664
16:59:12:369,0.895,0.9023,8.3619,70.2331,-0.1341,0.1554,-0.197,299.9539
16:59:12:388,0.3379,1.8004,8.1756,70.1132,-0.3897,0.2715,0.0383,300.2994
16:59:12:408,0.2997,1.8002,7.8704,70.1432,-0.5334,0.1565,0.2523,300.5688
16:59:12:429,0.491,1.6627,7.5831,70.0749,-0.5334,0.1256,0.3034,300.5801
16:59:12:448,0.8187,1.5422,7.4495,70.0916,-0.4014,0.2651,0.2896,300.3313
16:59:12:469,0.9607,1.5154,7.0436,69.8888,-0.2012,0.577,0.2598,300.0306
16:59:12:488,0.7941,1.555,7.0475,69.8016,-0.0202,0.6037,0.1799,299.7738
16:59:12:508,0.5439,1.2965,6.9186,69.7054,0.1278,0.2151,0.0298,299.5316
16:59:12:528,0.325,1.2691,6.6943,70.0322,0.296,-0.116,-0.083,299.2797
16:59:12:548,0.2964,1.646,6.5912,70.2533,0.4397,-0.2545,-0.0511,299.1483
16:59:12:568,0.2957,2.4495,7.8963,70.5373,0.6026,-0.2576,0.0298,299.1916
16:59:12:588,0.4594,3.1547,8.7349,70.7434,0.6356,-0.6569,0.131,299.293
16:59:12:608,1.1614,3.2594,9.1148,70.6685,0.5707,-0.84,0.1991,299.2161
16:59:12:629,1.8005,3.3643,9.562,70.7616,0.444,-0.6824,0.2119,298.9991
16:59:12:649,1.749,3.5355,10.0711,70.8517,0.2321,-0.3652,0.1884,298.7261
16:59:12:670,1.5662,3.0656,10.5326,71.1642,-0.0138,0.0181,0.0756,298.4735
16:59:12:689,0.6816,3.3132,11.9947,71.1524,-0.1256,0.2875,-0.0021,298.2556
16:59:12:708,-0.1394,3.5195,13.0289,71.3813,0.0043,0.33,0.115,298.183
16:59:12:728,-0.3882,3.6022,13.3387,71.313,0.3577,0.5802,0.4376,298.1971
16:59:12:748,0.0907,2.7716,13.6677,71.1484,0.6729,0.741,0.5951,298.162
16:59:12:768,0.1219,1.8991,13.6182,71.1043,0.8336,0.3673,0.2811,297.8087
16:59:12:788,-0.3293,1.3909,12.3369,71.1278,0.988,0.1139,-0.2119,297.0853
16:59:12:808,-0.7176,1.57,11.0502,70.6458,1.1402,0.2087,-0.4376,296.5403
16:59:12:828,-0.7188,1.8066,9.9753,70.9,1.1551,0.2129,-0.411,296.6443
16:59:12:848,-0.6888,2.0245,8.6083,71.0322,0.9848,0.2289,-0.3258,297.1194
16:59:12:868,-0.6426,2.1382,7.4777,70.8875,0.6803,0.3279,-0.2438,297.5713
16:59:12:888,-0.5333,2.0209,6.6137,70.8586,0.2981,0.3609,-0.1565,297.9571
16:59:12:908,-0.4924,2.0687,6.0031,70.9182,-0.0458,0.4429,-0.0192,298.2374
16:59:12:928,-0.4504,2.0883,5.5922,70.691,-0.2928,0.5121,0.1203,298.417
16:59:12:948,-0.6354,2.0205,5.5001,70.7772,-0.4546,0.5057,0.231,298.4598
16:59:12:969,-0.816,2.1622,5.7173,70.8264,-0.5345,0.3524,0.3492,298.3239
16:59:12:988,-0.7949,2.2423,6.1553,70.7836,-0.4993,0.148,0.4993,298.0093
16:59:13:009,-0.3272,2.4195,6.6093,71.112,-0.379,-0.0415,0.5983,297.5417
16:59:13:029,0.1485,2.6105,7.2947,71.4389,-0.2747,-0.2268,0.5547,296.9025
16:59:13:048,0.4716,2.6917,8.2717,71.4281,-0.1927,-0.6846,0.3577,296.1528
16:59:13:077,0.6933,2.8025,9.1158,71.3533,-0.0841,-1.2776,0.0777,295.4001
16:59:13:088,0.7951,3.1772,9.85,71.3586,0.0724,-1.3819,-0.23,294.7819
16:59:13:107,0.9701,2.9744,10.622,71.5392,0.2427,-0.8262,-0.4919,294.5448
16:59:13:128,0.7746,2.6247,11.1013,71.3847,0.4461,0.0777,-0.5515,294.8285
16:59:13:148,0.2123,3.1368,11.2446,71.6301,0.6335,0.6952,-0.3279,295.5677
16:59:13:168,-0.3281,4.1534,11.3057,71.7895,0.659,0.6963,0.0266,296.4304
16:59:13:188,-0.5318,5.5588,11.2846,71.5478,0.5568,0.3843,0.4024,296.9764
16:59:13:208,0.5135,5.7876,11.3107,71.6015,0.5323,0.2417,0.6484,296.8943
16:59:13:228,2.1841,4.7734,11.384,71.7598,0.4727,0.0075,0.4386,296.3806
16:59:13:248,2.4841,4.2687,11.2771,71.8569,0.3843,-0.0916,-0.1352,295.5541
16:59:13:268,1.6706,3.6097,10.8076,71.6933,0.3418,-0.2023,-0.6441,294.8705
16:59:13:288,0.8656,2.9585,10.1099,71.9001,0.2757,-0.4919,-0.8336,294.8876
16:59:13:308,0.5356,2.5835,9.587,71.8727,0.0479,-0.8964,-0.7644,295.5062
16:59:13:328,0.7556,2.5482,9.2308,71.6398,-0.2949,-1.104,-0.5526,296.3954
16:59:13:348,1.2231,2.7011,8.8407,71.8423,-0.5621,-0.8805,-0.2555,297.2318
16:59:13:368,1.7095,2.8147,8.2726,71.737,-0.6335,-0.3119,0.0128,297.9433
16:59:13:388,1.7337,2.8179,7.649,71.5901,-0.5345,0.2449,0.0841,298.4711
16:59:13:410,1.3612,2.653,6.8512,71.6265,-0.3343,0.5781,-0.0649,298.744
16:59:13:432,0.7804,2.5092,6.0429,71.1892,-0.1107,0.7655,-0.2885,298.845
16:59:13:449,0.2344,2.545,5.4113,70.7984,0.0745,0.774,-0.4195,299.021
16:59:13:468,0.0112,2.8928,5.1673,70.7421,0.23,0.675,-0.33,299.3929
16:59:13:488,0.3274,2.8802,5.0321,70.4566,0.3801,0.5302,-0.1735,299.8869
16:59:13:509,0.4515,2.9787,5.1614,70.6348,0.428,0.2417,-0.2119,300.3006
16:59:13:529,-0.1282,3.6843,5.5762,70.9049,0.2906,-0.0681,-0.3609,300.4983
16:59:13:548,-0.3933,3.9123,6.3352,70.7545,0.0373,-0.2523,-0.3141,300.6531
16:59:13:569,-0.2736,3.6495,7.3662,70.9623,-0.2087,0.0224,-0.1043,300.9702
16:59:13:589,-0.4017,3.8507,8.3694,70.8194,-0.378,0.5877,0.132,301.3537
16:59:13:609,-0.5479,4.2017,9.2984,70.6558,-0.511,1.0668,0.2385,301.6391
16:59:13:629,-1.0624,4.4429,10.2875,70.6967,-0.5951,1.3436,0.2704,301.6611
16:59:13:649,-1.7085,4.6367,11.0044,70.4188,-0.5983,1.5288,0.3875,301.4533
16:59:13:669,-2.3555,5.0431,11.5289,70.2833,-0.609,1.3074,0.5579,301.1498
16:59:13:689,-2.5325,5.566,12.0951,70.2497,-0.6037,0.857,0.8006,300.6517
16:59:13:708,-1.5679,5.4281,12.4465,70.0208,-0.5015,0.4259,0.8443,299.8211
16:59:13:728,-0.9116,4.5816,12.4532,69.7446,-0.4834,0.0277,0.4919,298.7285
16:59:13:749,-1.3511,3.4423,12.3139,69.599,-0.5291,-0.0543,0.148,297.519
16:59:13:769,-2.0414,2.5213,11.9417,69.5876,-0.4823,0.1107,0.0468,296.6936
16:59:13:789,-2.1908,1.8721,11.1437,69.5152,-0.4056,0.1725,0.0905,296.3795
16:59:13:809,-1.8982,1.3408,10.1166,69.3191,-0.3907,-0.0468,0.1107,296.2908
16:59:13:829,-1.3662,0.9596,9.1166,69.5194,-0.4642,-0.3503,0.0692,296.1328
16:59:13:849,-0.6852,0.726,8.4066,69.5219,-0.5973,-0.5398,0.0128,295.876
16:59:13:869,-0.0962,0.4407,7.7827,69.5032,-0.7612,-0.5366,-0.0511,295.6554
16:59:13:889,-0.0124,0.3997,7.2377,69.6505,-0.9412,-0.3609,-0.1341,295.5184
16:59:13:909,-0.2857,0.6157,6.7236,69.6199,-1.0615,0.0149,-0.082,295.4785
16:59:13:929,-0.5139,0.7773,6.2764,69.5256,-1.0657,0.4503,0.1299,295.5665
16:59:13:949,-0.7399,1.134,5.9198,69.4298,-0.9252,0.7942,0.4195,295.6579
16:59:13:969,-0.6963,1.1671,5.8668,69.3477,-0.7463,0.7059,0.5408,295.5401
16:59:13:989,-0.6564,1.4457,6.2339,69.2922,-0.5707,0.3726,0.4397,295.0723
16:59:14:008,-0.8992,1.8472,6.8355,69.2281,-0.3662,-0.0319,0.2555,294.3535
16:59:14:028,-1.1441,1.8394,7.8284,69.2347,-0.1544,-0.5206,0.115,293.6914
16:59:14:048,-0.7366,1.3836,8.8837,68.9427,0.0256,-0.8049,0.0564,293.2517
16:59:14:069,-0.421,1.3856,9.9703,68.9084,0.0937,-0.6526,-0.0298,293.0215
16:59:14:089,-0.7394,1.4779,11.2127,68.7896,0.0447,-0.0703,-0.1629,292.9495
16:59:14:109,-1.2384,1.4656,12.3213,68.4288,-0.0532,0.6569,-0.1767,293.0128
16:59:14:129,-1.4508,1.3251,12.9948,68.3352,-0.181,0.9646,-0.1842,293.2601
16:59:14:149,-1.9922,1.7203,13.5752,67.9355,-0.2576,0.8666,-0.1491,293.5237
16:59:14:170,-2.4993,2.576,14.3244,67.7141,-0.0958,0.6164,0.165,293.7069
16:59:14:189,-2.0614,3.2193,14.5871,67.603,0.3449,0.3524,0.5632,293.858
16:59:14:210,-1.1507,3.3659,13.8271,67.5218,0.758,0.0841,0.5792,293.7629
16:59:14:228,-0.7975,3.1692,12.8303,67.4317,0.8698,-0.0628,0.4578,293.2811
16:59:14:248,-0.6844,2.6902,11.898,67.3445,0.955,0.0245,0.3268,292.7008
16:59:14:269,-0.7399,1.5363,10.7327,66.9844,1.0987,-0.0085,0.0692,292.2945
16:59:14:289,-0.9985,0.9219,9.3578,66.6884,1.0753,-0.1725,-0.1341,292.0539
16:59:14:310,-0.9647,0.6698,8.3058,66.1873,0.7165,-0.4418,-0.313,292.0751
16:59:14:329,-0.7259,0.3902,7.7323,66.3323,0.1512,-0.6164,-0.478,292.3008
16:59:14:349,-0.484,0.1822,7.7602,66.083,-0.4929,-0.643,-0.5376,292.6546
16:59:14:374,-0.3238,0.2712,7.8744,66.1584,-0.9624,-0.3641,-0.4727,293.1226
16:59:14:389,-0.2999,0.45,7.9463,66.2255,-1.0785,0.0085,-0.3758,293.6521
16:59:14:409,-0.3232,0.6069,7.7405,66.1424,-0.8262,0.2502,-0.2757,294.1448
16:59:14:428,-0.2199,0.8871,7.2605,66.1395,-0.3758,0.2332,-0.1608,294.5332
16:59:14:449,-0.024,1.1939,6.6033,66.0024,0.0735,-0.0341,-0.0798,294.8236
16:59:14:471,0.1803,1.5422,6.059,65.6785,0.378,-0.3492,-0.0341,295.0038
16:59:14:488,0.3705,1.7993,5.87,65.3477,0.576,-0.5174,-0.0245,295.1042
16:59:14:509,0.518,2.2602,5.7566,64.8166,0.7123,-0.5707,-0.0596,295.1858
16:59:14:529,0.6472,2.8864,6.0279,64.5916,0.6792,-0.6005,-0.1735,295.2791
16:59:14:549,0.4627,3.4317,7.2733,64.1018,0.4578,-0.7623,-0.3652,295.4216
16:59:14:569,-0.0339,3.1039,9.2446,63.9655,0.395,-0.6963,-0.4748,295.619
16:59:14:588,-0.777,2.5308,10.8405,63.7017,0.5483,-0.4535,-0.4269,296.0081
16:59:14:609,-1.8295,2.7966,11.9769,63.3852,0.6686,0.0043,-0.1661,296.6152
16:59:14:629,-2.6192,3.7424,12.5541,63.0422,0.6973,0.5419,0.2619,297.2542
16:59:14:649,-2.6879,4.5669,12.7308,62.9804,0.5589,0.7229,0.544,297.6922
16:59:14:668,-2.378,5.1064,13.0535,62.5866,0.3258,0.6707,0.7389,297.6151
16:59:14:688,-1.832,5.0542,13.4098,62.1461,0.2374,0.6729,0.856,297.0496
16:59:14:708,-1.5794,4.3961,13.7626,61.9881,0.3492,0.5004,0.7719,296.2251
16:59:14:728,-1.8439,3.2827,13.3985,61.8455,0.7123,0.3662,0.6675,295.2383
16:59:14:748,-2.0679,1.997,12.0106,61.4703,1.1317,0.3992,0.6633,294.3003
16:59:14:768,-1.9253,1.4872,10.1237,61.3545,1.4309,0.3258,0.7484,293.6021
16:59:14:788,-1.2319,1.6429,8.266,61.0251,1.4692,-0.0394,0.7655,293.0164
16:59:14:809,-0.4015,2.292,6.6394,60.7503,1.0093,-0.6441,0.4951,292.2398
16:59:14:829,0.0527,2.8033,6.0082,60.3647,0.1544,-1.087,0.0841,291.317
16:59:14:849,0.2943,2.3783,6.2955,60.0867,-0.7112,-1.0104,-0.165,290.5134
16:59:14:869,0.4176,1.6666,6.8066,60.0051,-1.3681,-0.4951,-0.2268,290.1915
16:59:14:889,0.5067,1.1591,6.9093,59.5338,-1.7354,0.231,-0.2214,290.2604
16:59:14:909,0.2802,1.184,6.747,59.1133,-1.7854,1.0774,-0.1863,290.6457
16:59:14:929,-0.1532,1.6548,6.6239,58.9804,-1.5895,1.5917,-0.0969,291.0185
16:59:14:949,-0.8136,2.1422,6.7897,58.6141,-1.2307,1.3766,0.0149,291.3224
16:59:14:969,-0.9958,2.1989,6.9834,58.1332,-0.6792,0.7186,0.1565,291.3654
16:59:14:989,-0.7787,2.0144,6.9188,57.9312,-0.0437,0.0532,0.214,291.1537
16:59:15:009,-0.4603,2.2481,6.7366,57.6615,0.3322,-0.4716,0.0809,290.8257
16:59:15:029,-0.6729,2.8587,7.3638,57.1086,0.3535,-0.8326,-0.1384,290.5072
16:59:15:049,-0.6623,2.6771,8.4583,57.0133,0.2502,-0.8688,-0.2938,290.3448
16:59:15:069,-0.5349,2.444,9.4406,56.7008,0.1629,-0.6367,-0.4397,290.4453
16:59:15:090,-0.4498,2.3897,10.0418,56.4465,0.0341,-0.379,-0.6111,290.802
16:59:15:108,-0.7266,2.1102,10.5004,56.071,-0.1735,0.0341,-0.7676,291.3439
16:59:15:129,-1.7698,2.1707,11.3948,55.9684,-0.2832,0.5547,-0.6569,292.0715
16:59:15:148,-2.7849,3.0893,12.1815,55.7922,-0.1746,0.8826,-0.2172,293.0054
16:59:15:169,-2.8554,4.3347,12.3982,55.6594,0.0075,0.7783,0.2768,293.9013
16:59:15:189,-1.5446,4.6415,12.288,55.4832,0.0351,0.3716,0.4951,294.29
16:59:15:208,-0.1129,4.2683,12.2039,55.4902,-0.0809,-0.115,0.28,294.0518
16:59:15:229,0.199,3.3013,12.1402,55.4553,-0.1001,-0.3556,-0.1608,293.3945
16:59:15:248,-0.2708,2.0439,11.6645,55.5093,-0.0149,-0.3854,-0.5132,292.8993
16:59:15:269,-0.5853,1.2315,10.7402,55.5006,-0.0607,-0.4653,-0.7293,292.9333
16:59:15:289,-0.4751,0.7141,9.9305,55.4943,-0.4269,-0.7016,-0.8049,293.4509
16:59:15:309,0.1406,0.3129,9.3904,55.1897,-0.9337,-0.8719,-0.7634,294.1977
16:59:15:329,0.6931,0.0859,8.9397,54.8262,-1.2786,-0.6824,-0.6942,294.9882
16:59:15:349,0.7943,0.2082,8.5161,54.7725,-1.2904,-0.1288,-0.6526,295.7483
16:59:15:369,0.4076,0.4841,7.8941,54.5889,-1.0231,0.4791,-0.6452,296.4989
16:59:15:389,-0.2239,0.9671,7.2553,54.6464,-0.6324,0.7708,-0.6388,297.2665
16:59:15:409,-0.7213,1.17,6.7647,54.5036,-0.2491,0.494,-0.6132,298.0267
16:59:15:429,-0.9182,1.2873,6.3113,54.5465,0.1246,-0.0138,-0.5313,298.722
16:59:15:449,-0.885,1.4761,5.909,54.2103,0.412,-0.4621,-0.3875,299.3738
16:59:15:470,-0.7593,1.8075,5.6793,54.1593,0.56,-0.6399,-0.2545,299.985
16:59:15:490,-0.4836,2.2614,5.8974,53.8001,0.5217,-0.7091,-0.197,300.4962
16:59:15:510,0.088,2.4328,6.7871,53.3957,0.2566,-0.9582,-0.2736,300.8803
16:59:15:531,0.3351,2.3033,8.4012,53.0008,-0.0181,-1.1285,-0.4493,301.1354
16:59:15:550,-0.0291,2.1453,10.3075,52.5909,-0.1576,-0.8751,-0.5781,301.3731
16:59:15:570,-0.8205,2.1151,11.6773,52.161,-0.0979,-0.0607,-0.5185,301.8186
16:59:15:589,-1.8345,2.0834,12.6507,51.9229,-0.0681,0.6835,-0.3087,302.5196
16:59:15:609,-2.788,2.4431,13.5903,51.6709,-0.1054,1.0796,0.0756,303.3148
16:59:15:628,-3.0618,2.7467,14.4377,51.4048,-0.0969,1.0029,0.4578,303.8345
16:59:15:651,-3.0401,3.0167,14.9501,51.197,0.0969,0.8283,0.7783,303.8739
16:59:15:670,-2.5987,3.0297,14.7019,50.5775,0.5025,0.7261,0.9582,303.4113
16:59:15:690,-2.1107,2.4844,13.6068,50.1138,0.8059,0.4951,0.7665,302.621
16:59:15:712,-2.025,1.4556,12.1128,49.6051,0.972,0.3662,0.3897,301.6104
16:59:15:728,-2.5707,0.5889,10.3942,48.8562,1.1253,0.5036,0.132,300.7354
16:59:15:749,-3.0028,0.1698,8.4878,48.4522,1.0466,0.395,0.0639,300.3412
16:59:15:769,-3.0143,0.0225,6.9278,48.4802,0.6558,0.1075,0.1916,300.3112
16:59:15:789,-2.4424,-0.0167,6.0808,48.5855,-0.0277,-0.2853,0.3332,300.3377
16:59:15:809,-1.6747,-0.1111,6.2196,48.0706,-0.7889,-0.6111,0.3705,300.1518
16:59:15:828,-1.2972,-0.3438,6.9068,48.0873,-1.2818,-0.5589,0.4024,299.6412
16:59:15:849,-1.1091,-0.3805,7.4887,47.87,-1.3766,-0.3386,0.5015,299.021
16:59:15:869,-0.9835,-0.3333,7.5112,47.2053,-1.1424,0.0256,0.6409,298.401
16:59:15:889,-0.6947,-0.2574,7.1899,46.8683,-0.8059,0.3173,0.7932,297.7491
16:59:15:909,-0.4848,0.1466,6.7597,46.611,-0.4876,0.4418,0.8911,297.0046
16:59:15:929,-0.4891,0.8815,6.5799,46.2862,-0.2395,0.3737,0.8879,296.0989
16:59:15:949,-0.4626,1.4764,6.6772,45.973,-0.0926,0.0394,0.8102,295.0661
16:59:15:969,-0.0835,1.6874,6.9136,45.4915,-0.0192,-0.3141,0.6335,293.9915
16:59:15:989,0.1517,1.9578,7.6364,45.0126,-0.1043,-0.5675,0.3322,292.9785
16:59:16:009,0.1713,1.9745,8.7735,44.5909,-0.2449,-0.6207,0.0032,292.1415
16:59:16:029,-0.0698,1.616,9.9927,44.0831,-0.2821,-0.3567,-0.2151,291.6227
16:59:16:048,-0.1161,1.0785,10.7011,43.7347,-0.1874,-0.0011,-0.2694,291.5112
16:59:16:068,-0.2701,0.8879,11.185,43.5044,-0.1597,0.2236,-0.2523,291.7368
16:59:16:089,-0.9045,1.4419,12.1666,43.3211,-0.2917,0.3364,-0.1618,292.0719
16:59:16:109,-1.6733,2.2763,13.5788,42.9362,-0.3875,0.4919,0.1767,292.3656
16:59:16:129,-1.7348,2.8149,14.7392,42.7868,-0.3077,0.6058,0.6516,292.5649
16:59:16:149,-0.5028,2.683,15.2687,42.5484,-0.1895,0.4461,0.8091,292.4547
16:59:16:169,0.4983,2.2254,15.5711,42.2869,-0.0298,0.2704,0.5728,291.8148
16:59:16:189,0.6331,1.3034,15.1718,41.8674,0.5004,0.2129,0.2459,290.8533
16:59:16:208,0.2309,0.5357,13.5838,41.622,1.0018,0.0703,-0.1459,290.1326
16:59:16:230,-0.1832,-0.0562,11.6746,41.5539,0.9199,-0.1629,-0.3386,289.865
16:59:16:249,-0.015,-0.5168,10.5038,41.2017,0.4429,-0.2587,-0.3439,290.0448
16:59:16:269,0.3057,-0.5193,9.7579,41.1164,-0.0298,-0.0298,-0.2534,290.4743
16:59:16:289,0.4695,0.2511,9.1622,41.1376,-0.1959,0.4312,-0.1778,290.8949
16:59:16:309,0.4066,0.8138,8.0435,40.989,-0.0788,0.6856,-0.1746,291.2436
16:59:16:329,0.3341,1.08,6.6458,40.8527,0.1565,0.7367,-0.2129,291.4862
16:59:16:349,0.1438,1.1435,5.3587,40.6508,0.363,0.4929,-0.2598,291.7131
16:59:16:369,-0.0576,1.2019,4.4637,40.6754,0.4844,0.0213,-0.3162,291.9752
16:59:16:389,-0.372,1.3918,4.1404,40.4284,0.5419,-0.5227,-0.3577,292.2955
16:59:16:409,-0.7154,1.2535,4.2848,40.3472,0.5483,-0.9209,-0.3109,292.6494
16:59:16:429,-0.8433,1.2924,4.5239,40.4086,0.4535,-0.9944,-0.1831,293.0766
16:59:16:449,-1.2411,1.7955,5.3686,40.3189,0.2885,-0.9582,0.0021,293.507
16:59:16:469,-0.6533,1.7431,6.6278,40.0695,0.1959,-1.1211,0.2236,293.8148
16:59:16:489,0.3006,2.2835,7.7884,40.1589,0.1288,-1.0934,0.1182,293.8676
16:59:16:509,0.0703,3.3659,9.0326,40.2413,0.0522,-0.6271,-0.23,293.6701
16:59:16:530,-0.7891,2.9428,10.0651,39.8705,-0.0756,-0.0564,-0.3982,293.525
16:59:16:549,-1.6939,2.779,11.1153,39.765,-0.1991,0.4376,-0.3258,293.7888
16:59:16:570,-2.4233,3.4057,12.0449,39.6865,-0.3535,0.741,-0.1586,294.3106
16:59:16:589,-2.9547,3.5966,12.8573,39.295,-0.593,0.9167,0.0596,294.7595
16:59:16:610,-3.0153,2.6037,14.057,38.9272,-0.7857,0.8283,0.28,294.9898
16:59:16:630,-3.1717,1.611,15.4493,38.554,-0.7761,0.6963,0.494,294.9011
16:59:16:649,-3.5783,1.3854,16.1287,38.5026,-0.3205,0.5898,0.6271,294.5174
16:59:16:668,-3.5373,0.8618,15.0316,38.6134,0.3513,0.4578,0.7101,293.9056
16:59:16:689,-3.0517,0.724,12.8336,39.0873,0.7091,0.214,0.8038,293.2112
16:59:16:708,-2.4021,1.0062,10.7386,39.2978,0.6771,-0.0234,0.8443,292.4871
16:59:16:729,-1.5481,1.3689,8.9782,40.0307,0.4429,-0.0894,0.7846,291.6623
16:59:16:749,-0.8227,1.4046,7.5789,39.9461,0.1022,-0.0202,0.5941,290.7553
16:59:16:768,-0.5017,1.1118,6.6686,40.3187,-0.2225,0.1107,0.4131,289.8621
16:59:16:789,-0.4274,0.8202,6.1588,40.2898,-0.3918,0.132,0.2768,289.118
16:59:16:809,-0.4966,0.7619,5.8347,40.2361,-0.3886,0.0117,0.2502,288.5503
16:59:16:829,-0.5105,0.8683,5.5968,40.2638,-0.3109,-0.165,0.2885,288.1281
16:59:16:849,-0.3934,1.3202,5.6316,40.3324,-0.1959,-0.3673,0.3758,287.7601
16:59:16:868,-0.0747,1.7695,6.0815,40.3441,-0.0937,-0.6718,0.3982,287.3809
16:59:16:889,0.3029,2.0846,7.0334,40.2871,0.0224,-1.0881,0.3024,286.9215
16:59:16:909,0.5727,2.4248,8.1728,40.1446,0.2747,-1.2616,0.1246,286.4006
16:59:16:929,0.5399,2.8106,9.087,39.9664,0.51,-1.2169,-0.1576,285.9902
16:59:16:949,0.5114,2.8404,9.7021,39.885,0.6281,-0.988,-0.3726,285.8129
16:59:16:968,0.3682,1.9622,10.4561,39.455,0.6558,-0.511,-0.478,285.9668
16:59:16:988,0.3171,1.7354,11.0953,38.8823,0.6462,0.0138,-0.4408,286.4153
16:59:17:009,0.1537,2.3569,11.653,38.8364,0.4929,0.0522,-0.5696,287.0536
16:59:17:029,-0.0811,2.8786,12.4957,38.198,0.2619,-0.0926,-0.6558,287.6242
16:59:17:049,0.0463,2.4875,13.189,38.0913,0.2747,-0.099,-0.5845,288.2077
16:59:17:069,0.1918,2.2487,13.1717,38.1873,0.4003,-0.017,-0.5696,288.9396
16:59:17:101,0.2308,2.0813,13.0176,37.9865,0.3662,-0.0767,-0.6537,289.6811
16:59:17:108,0.3993,1.4874,12.6106,38.3659,0.2619,-0.1565,-0.7623,290.3671
16:59:17:128,0.5546,0.8409,11.9529,38.6143,0.0852,-0.3002,-0.8837,291.0975
16:59:17:149,0.6072,0.5583,11.1555,38.3802,-0.1373,-0.4716,-0.9305,291.9476
16:59:17:169,0.6751,0.7305,10.0511,38.0835,-0.3407,-0.5345,-0.8262,292.9091
16:59:17:188,0.774,1.2047,8.8647,38.0118,-0.5153,-0.5398,-0.6377,293.9641
16:59:17:209,0.8078,1.4633,7.907,37.7948,-0.626,-0.231,-0.5046,294.942
16:59:17:229,0.3785,1.7152,7.1462,37.4254,-0.6697,0.2811,-0.4834,295.759
16:59:17:248,-0.3343,1.9825,6.7929,37.7223,-0.6548,0.6899,-0.5227,296.4654
16:59:17:268,-0.9768,2.034,6.7025,37.5239,-0.5557,0.6281,-0.5632,297.1353
16:59:17:288,-0.9326,1.6981,6.4577,37.4859,-0.3865,0.1533,-0.4834,297.7899
16:59:17:309,-0.2223,1.412,6.2455,37.4601,-0.2332,-0.3609,-0.3449,298.3616
16:59:17:329,0.3862,1.4683,6.2121,37.5223,-0.1522,-0.6143,-0.2672,298.8665
16:59:17:349,0.5287,1.5364,6.6028,37.4602,-0.1608,-0.626,-0.2811,299.2354
16:59:17:369,0.379,1.6029,6.7851,37.3056,-0.1703,-0.4546,-0.297,299.5447
16:59:17:389,0.1827,1.8426,6.9487,36.8668,-0.1129,-0.1501,-0.1767,299.8698
16:59:17:409,0.3467,1.9479,7.7953,36.7671,-0.0979,0.0426,-0.0298,300.2604
16:59:17:428,0.4202,2.299,9.2713,36.4846,-0.2662,-0.1214,-0.033,300.5593
16:59:17:449,0.2653,2.5286,9.9656,36.4858,-0.4663,-0.4035,-0.115,300.6281
16:59:17:469,-0.009,2.5036,10.0989,36.36,-0.5078,-0.3897,-0.0394,300.5786
16:59:17:489,0.3101,2.0103,10.1936,36.0244,-0.4993,0.0511,0.0745,300.6596
16:59:17:509,0.2588,1.5075,10.932,36.0079,-0.7123,0.6931,-0.0075,300.783
16:59:17:529,-0.8399,1.4712,12.6149,35.9421,-1.0029,0.84,-0.0607,300.8148
16:59:17:549,-1.3211,1.095,13.4995,35.8306,-0.972,0.362,0.2502,300.8295
16:59:17:569,-0.9248,0.3207,13.2818,35.8361,-0.6814,-0.3119,0.7016,300.8489
16:59:17:588,-0.1816,-0.4931,12.9953,36.2871,-0.3268,-0.6367,0.5462,300.5872
16:59:17:610,-0.0126,-0.5781,12.6215,36.0924,0.0692,-0.8496,0.0894,299.8615
16:59:17:628,0.2787,-0.7685,11.8043,35.9864,0.4812,-1.169,-0.1192,299.1589
16:59:17:649,0.9073,-0.5354,10.4445,36.2278,0.7676,-1.1008,-0.083,298.9489
16:59:17:669,0.9941,-0.3098,9.7768,36.3452,0.8198,-0.6175,-0.0596,299.0515
16:59:17:689,0.6216,0.1278,9.3849,36.615,0.5717,-0.3726,-0.1278,299.1784
16:59:17:709,0.3813,0.2558,8.8341,36.7024,0.1746,-0.2417,-0.0628,299.2129
16:59:17:729,0.995,-0.0657,8.057,36.7956,-0.2129,0.3652,0.1895,299.2579
16:59:17:749,1.0958,0.4942,8.3883,36.6698,-0.3066,1.8738,0.445,299.3282
16:59:17:771,0.1881,0.5827,9.7107,36.7947,0.5526,2.3976,0.2502,299.2899
16:59:17:792,-0.7944,0.8626,8.6112,36.8246,0.8528,2.2177,0.5802,299.1196
16:59:17:812,-1.5677,1.5506,7.5566,36.9616,0.9241,1.6811,1.0934,298.8378
16:59:17:835,-1.4944,1.0738,6.9705,37.5221,0.7229,1.4021,1.6151,298.288
16:59:17:848,-1.3339,1.9616,7.2438,37.3688,0.6015,1.0551,1.9089,297.1578
16:59:17:877,-0.4614,1.9214,7.6103,37.2834,0.494,0.5302,1.7503,295.4397
16:59:17:888,0.1205,2.2334,8.2386,37.3713,0.3662,-0.2757,1.3074,293.2894
16:59:17:908,0.322,2.573,8.7245,37.5619,0.3726,-1.3457,0.5951,291.0978
16:59:17:928,0.644,2.3305,9.0066,37.9456,0.4759,-1.8993,-0.0735,289.2984
16:59:17:948,0.7175,2.2188,9.7873,37.8466,0.5206,-2.1314,-0.4759,288.2938
16:59:17:968,0.5393,2.2324,10.6033,38.096,0.5611,-1.927,-0.61,288.1966
16:59:17:989,0.1155,2.4376,11.2402,38.3835,0.7612,-1.2254,-0.4865,288.667
16:59:18:008,0.331,3.0627,11.2479,38.3074,0.8496,-0.5728,-0.2853,289.4587
16:59:18:028,0.7615,3.7991,11.0644,38.5274,0.7144,0.2023,-0.0543,290.191
16:59:18:048,1.3282,3.6979,11.2556,38.9962,0.3098,0.346,0.05,290.645
16:59:18:068,1.7444,3.38,10.8169,39.1999,-0.1906,0.2002,-0.1267,290.7888
16:59:18:092,1.5145,3.0327,10.2558,39.6814,-0.3875,0.3684,-0.3865,290.6205
16:59:18:108,1.3443,2.6078,9.8828,39.7766,-0.3354,0.5217,-0.4951,290.683
16:59:18:128,1.4058,2.015,9.6314,40.0637,-0.2406,0.0319,-0.4759,291.1632
16:59:18:148,1.3124,1.7056,9.9842,40.688,-0.1586,-0.7048,-0.544,291.7242
16:59:18:168,1.1389,1.79,9.9759,40.873,-0.0692,-1.3116,-0.6388,292.1808
16:59:18:189,0.8724,2.0725,9.2926,40.9171,0.1267,-1.2627,-0.5685,292.668
16:59:18:208,0.5056,2.1297,8.2137,41.3382,0.3939,-0.741,-0.3109,293.3691
16:59:18:228,0.443,1.9135,7.2415,41.2256,0.5813,-0.0586,-0.0767,294.1597
16:59:18:248,0.5052,1.7108,7.1987,41.1456,0.6484,0.51,0.0426,294.7384
16:59:18:268,0.5947,2.2557,7.0852,41.5453,0.6313,0.9816,0.3162,294.9671
16:59:18:288,0.8824,2.8519,6.4671,41.6167,0.6473,1.2733,0.7027,294.982
16:59:18:308,1.0187,3.1669,6.5623,41.8906,0.5621,1.1158,0.7399,294.7032
16:59:18:328,1.0275,3.7045,7.0043,42.3127,0.4003,0.4056,0.4514,293.9209
16:59:18:348,1.4945,3.7662,7.1729,42.4366,0.461,-0.099,0.2257,292.8267
16:59:18:369,1.7575,3.6596,7.5097,43.0048,0.5025,-0.3822,0.0543,292.0159
16:59:18:388,1.102,4.3546,8.7634,43.5817,0.4514,-0.4887,0.0075,291.5862
16:59:18:408,0.6791,5.0975,9.6272,44.1664,0.5781,-0.2353,0.1491,291.4066
16:59:18:428,0.8346,5.1744,9.544,44.5732,0.7516,0.1895,0.2332,291.3831
16:59:18:463,1.1427,5.0575,9.2025,44.7188,0.6484,0.444,0.181,291.313
16:59:18:476,0.6512,5.4325,9.5905,44.6768,0.2832,0.478,0.1405,291.0857
16:59:18:495,-0.084,5.976,10.2984,44.7759,-0.0277,0.5462,0.2938,290.8024
16:59:18:508,0.2792,5.3542,10.8954,45.2285,-0.1714,0.4131,0.4099,290.5521
16:59:18:528,0.5075,4.184,11.7165,45.5989,-0.3396,-0.0426,0.2353,290.2089
16:59:18:548,0.1788,3.891,12.1267,46.1339,-0.2896,-0.0979,0.0064,289.5948
16:59:18:568,-0.2979,2.973,11.5189,46.3896,0.0479,0.1682,-0.0894,289.1859
16:59:18:588,-0.8198,2.7501,10.358,46.7153,0.3205,0.3268,-0.0617,289.2052
16:59:18:608,-0.5773,2.7377,9.1292,47.1749,0.3386,0.1608,0.0745,289.4256
16:59:18:628,-0.1652,3.0692,8.3541,47.6421,0.1852,-0.0298,0.2151,289.515
16:59:18:648,0.3415,3.138,7.7185,48.1125,0.0479,-0.1735,0.2321,289.3639
16:59:18:676,0.8268,2.8996,7.0453,48.578,-0.0841,-0.3375,0.0979,289.0513
16:59:18:715,1.0482,2.805,6.4475,48.8992,-0.2821,-0.2097,-0.0692,288.6894
16:59:18:717,0.9967,2.5604,5.8648,48.8385,-0.4961,0.1118,-0.1608,288.498
16:59:18:735,0.7211,2.6504,5.3454,49.2122,-0.675,0.0979,-0.1725,288.6187
16:59:18:748,0.1401,3.5279,5.2526,49.273,-0.7719,-0.0522,-0.0724,288.8564
16:59:18:768,1.208,3.9134,5.3978,49.3008,-0.9071,-0.017,0.033,289.0355
16:59:18:788,2.2982,3.6065,5.3102,49.5605,-1.2339,0.3024,-0.3034,289.1461
16:59:18:808,2.1377,2.355,7.3851,49.9344,-1.5182,0.3535,-0.824,289.1811
16:59:18:828,0.5447,2.0825,8.8805,50.4583,-1.185,0.2332,-0.9986,289.5371
16:59:18:848,-1.3891,3.3487,9.03,50.876,-0.4844,0.5707,-0.8017,290.4019
16:59:18:868,-2.3343,4.4504,9.1809,51.3762,-0.1895,0.5249,-0.4684,291.6918
16:59:18:888,-1.9734,4.4488,10.7357,51.8183,-0.4408,-0.5387,-0.3013,292.8424
16:59:18:908,-0.6438,2.7694,12.7356,51.9275,-0.378,-1.1775,-0.2747,293.344
16:59:18:928,0.1464,1.3998,14.4327,52.1,0.0106,-0.5281,-0.1629,293.4766
16:59:18:948,-0.1352,2.5927,14.626,52.0197,0.4887,0.6782,0.1842,293.8338
16:59:18:969,0.4177,3.5299,13.6658,52.2891,0.7154,1.004,0.296,294.3412
16:59:18:988,0.9401,3.7953,12.7053,52.5188,0.6058,0.2193,-0.05,294.453
16:59:19:010,1.4096,2.8326,11.8358,52.8963,0.5781,-0.4397,-0.4088,294.037
16:59:19:028,1.2182,1.894,10.9978,53.4684,0.6292,-0.8368,-0.609,293.8267
16:59:19:048,0.6331,1.5352,10.0044,53.8494,0.6729,-0.8932,-0.5707,294.1378
16:59:19:068,0.0042,1.4229,8.9597,53.838,0.5132,-0.8134,-0.3237,294.7984
16:59:19:094,-0.2292,1.7885,8.0625,53.9632,0.2172,-0.7261,0.0703,295.5108
16:59:19:108,0.113,2.2428,7.467,54.0751,-0.0852,-0.675,0.4067,295.9474
16:59:19:128,0.6641,2.6472,7.2459,54.5264,-0.2555,-0.5568,0.477,295.9193
16:59:19:148,0.9679,2.8397,6.8285,54.7057,-0.2183,-0.1938,0.2853,295.4744
16:59:19:168,0.8439,2.7373,6.2378,55.1566,-0.1863,0.1192,-0.0543,294.9717
16:59:19:188,0.536,2.8203,5.7252,55.4097,-0.3567,0.0287,-0.3024,294.703
16:59:19:209,0.3467,2.8398,6.0214,55.419,-0.6399,-0.1799,-0.3183,294.7361
16:59:19:228,0.3484,2.4879,6.695,55.5459,-0.7474,-0.2214,-0.214,294.9995
16:59:19:248,0.4722,1.9953,6.9636,55.3741,-0.6239,-0.1703,-0.1512,295.3793
16:59:19:268,0.737,1.7513,7.2454,55.6357,-0.4631,-0.1469,-0.1235,295.7328
16:59:19:288,0.6894,2.5958,7.5644,55.9215,-0.2938,-0.1022,0.0522,296.0139
16:59:19:313,0.7967,3.3143,8.0564,56.0593,-0.1086,0.0458,0.2885,296.2288
16:59:19:330,1.33,3.3189,8.8816,56.556,0.0554,0.0511,0.3418,296.2917
16:59:19:348,1.4977,3.5709,9.8206,56.886,0.2097,0.2097,0.2481,296.0457
16:59:19:369,1.3676,3.9351,10.3419,57.1783,0.2885,0.4716,0.0756,295.6694
16:59:19:389,1.0383,3.7206,10.9441,57.3219,0.2065,0.4567,-0.1427,295.3988
16:59:19:408,0.3501,3.4722,12.0076,57.2213,0.066,0.214,-0.2704,295.2781
16:59:19:428,-0.6832,3.7774,12.959,57.3234,0.131,0.1703,-0.0894,295.3239
16:59:19:448,-0.8087,3.7414,13.1753,57.5596,0.3567,0.3386,0.2726,295.5757
16:59:19:469,0.1965,3.0503,12.9452,57.5249,0.4525,0.3641,0.4631,295.7668
16:59:19:488,0.6953,2.8066,12.6607,58.0916,0.3173,0.4684,0.2917,295.5578
16:59:19:509,0.4239,2.3772,12.2802,58.3281,0.1735,0.6069,-0.0053,295.0158
16:59:24:213,0.666,3.167,6.9282,48.2617,0.5408,-0.066,-0.2768,294.6056
16:59:24:214,-0.1046,3.0682,7.1223,48.1573,0.5664,0.083,-0.2374,296.2529
16:59:24:214,-0.4815,3.2319,7.483,47.6439,0.4141,0.0224,-0.1129,296.6335
16:59:24:214,-0.5113,3.2508,7.9139,47.0441,0.2257,-0.0351,0.0532,296.8585
16:59:24:245,-0.3925,2.9791,8.5031,47.0333,0.0287,0.0341,0.1693,296.9165
16:59:24:248,-0.2672,2.7436,9.5306,46.3085,-0.0479,0.2406,0.2151,296.8029
16:59:24:270,-0.2364,2.5215,10.3306,46.0091,0.0394,0.4184,0.214,296.6158
16:59:24:288,-0.2657,2.5789,10.8807,46.1114,0.1395,0.5834,0.2044,296.3804
16:59:24:308,-0.251,2.9446,11.3057,45.8374,0.1714,0.7048,0.1384,296.1966
16:59:24:328,-0.7841,2.6881,11.7983,45.5862,0.0532,0.7314,0.0639,296.0099
16:59:24:357,-1.6934,1.6268,12.3424,45.3168,-0.0809,0.4557,0.0735,295.8738
16:59:24:370,-1.7722,1.2225,12.2397,45.2959,-0.1384,-0.0362,0.1565,295.7317
16:59:24:388,-1.3096,1.2606,11.3477,45.2814,-0.1533,-0.2119,0.247,295.4985
16:59:24:408,-1.1809,0.8266,10.4554,45.0505,-0.2576,0.0106,0.2992,295.2289
16:59:24:428,-0.8018,0.989,9.8991,44.8859,-0.3939,0.0852,0.2417,294.928
16:59:24:448,-0.6614,1.3857,9.1339,44.2461,-0.5685,0.0532,0.099,294.5545
16:59:24:468,-0.7126,1.621,8.6199,43.9829,-0.7751,0.0948,-0.0447,294.2472
16:59:24:491,-0.9462,1.9441,8.7713,43.8511,-0.9071,0.099,-0.1246,294.0994
16:59:24:508,-0.8819,2.4626,9.1736,43.4304,-0.7985,-0.1682,-0.1097,294.0916
16:59:24:528,-0.6009,2.5697,8.6558,43.2619,-0.4163,-0.51,-0.0021,294.1181
16:59:24:547,-0.1646,2.3861,7.4834,43.3937,-0.0085,-0.6505,0.0894,294.1384
16:59:24:568,-0.079,2.1667,6.4177,43.2195,0.2406,-0.4706,0.0639,294.1046
16:59:24:588,-0.2195,2.2491,6.095,42.6509,0.3599,-0.0671,0.0256,294.0621
16:59:24:608,-0.7133,2.2145,6.5588,42.2218,0.412,0.2598,0.0468,294.0934
16:59:24:628,-0.9947,2.1415,7.3671,41.8795,0.4386,0.3183,0.1522,294.1432
16:59:24:649,-0.9069,2.2865,7.9429,41.3015,0.3822,0.1171,0.2513,294.0942
16:59:24:668,-0.3695,2.6205,8.5521,40.9774,0.2523,-0.0224,0.231,293.8678
16:59:24:689,-0.2324,2.7909,9.2432,41.0833,0.1235,-0.0405,0.1405,293.5228
16:59:24:708,-0.3646,2.9768,9.9361,41.1735,0.0373,-0.033,0.1235,293.3089
16:59:24:727,-0.1287,2.955,10.6678,41.1392,0.0277,0.1331,0.1895,293.1539
16:59:24:748,0.4279,2.906,11.5955,41.0061,0.0426,0.28,0.1043,293.0149
16:59:24:768,0.8595,3.0605,12.4763,40.718,0.0479,0.198,-0.0969,292.8346
16:59:24:788,0.7086,3.3402,12.8364,40.5061,0.0873,-0.0011,-0.3173,292.7562
16:59:24:808,-0.4994,2.4256,12.365,40.6116,0.0692,-0.0192,-0.2917,292.9244
16:59:24:828,-1.1374,1.3353,12.614,40.6032,-0.05,0.0884,-0.0075,293.3135
16:59:24:848,-0.3299,1.3448,13.2323,40.6233,0.2097,0.0277,0.2321,293.5815
16:59:24:868,0.4714,1.4694,12.0338,40.2691,0.7506,-0.0873,0.3087,293.5157
16:59:24:888,0.8941,1.6701,9.9726,40.221,0.9635,0.1522,0.3375,293.2807
16:59:24:908,0.9445,2.0632,8.5715,40.0395,0.6814,0.4482,0.3237,293.0385
16:59:24:928,0.5023,1.7118,8.1668,39.6242,0.1246,0.4812,0.2938,292.7452
16:59:24:949,0.1745,0.9918,8.8399,39.5274,-0.4631,0.1831,0.1991,292.3593
16:59:24:968,0.2928,0.6914,9.4718,39.7284,-0.5983,-0.3343,0.016,291.8949
16:59:24:988,0.5474,0.9369,9.0065,39.7502,-0.2385,-0.7719,-0.198,291.5417
16:59:25:009,0.7187,1.5551,7.4512,39.9896,0.247,-0.7793,-0.362,291.5057
16:59:25:028,0.593,2.0194,5.8753,40.026,0.5323,-0.4376,-0.4205,291.8469
16:59:25:048,0.5036,2.5054,5.0564,39.7066,0.5888,-0.1054,-0.3364,292.4273
16:59:25:068,0.6095,2.7914,5.0553,39.423,0.5419,0.1363,-0.1852,293.0111
16:59:25:088,0.9459,3.1719,5.5192,38.9038,0.3662,0.264,-0.0798,293.4429
16:59:25:108,1.0118,3.2086,6.5652,38.6077,0.116,0.2395,-0.0341,293.6542
16:59:25:128,0.6081,2.8852,7.8193,38.5171,0.0043,0.1384,0.0458,293.7161
16:59:25:148,0.4149,2.8678,8.9482,38.6491,0.0309,0.131,0.1192,293.7013
16:59:25:169,0.1439,2.8551,9.75,39.1622,0.0351,0.2023,0.1352,293.6165
16:59:25:188,-0.3709,2.4201,10.4098,39.0815,-0.0756,0.198,0.1129,293.4838
16:59:25:208,-0.5126,2.1754,11.299,39.1597,-0.2491,0.099,0.0266,293.3158
16:59:25:230,-0.0634,2.9602,12.1691,39.223,-0.3237,-0.1341,-0.2044,293.1476
16:59:25:249,0.0339,4.0545,12.2703,39.1705,-0.2843,-0.363,-0.4716,293.103
16:59:25:269,-0.7347,4.2417,11.5177,39.0125,-0.3449,-0.3141,-0.56,293.379
16:59:25:289,-2.1585,2.8807,11.4501,39.0797,-0.5834,-0.1831,-0.411,293.9737
16:59:25:308,-2.1696,2.3602,12.3383,38.8383,-0.6335,-0.2736,-0.1299,294.5736
16:59:25:329,-1.6468,1.582,12.1019,38.978,-0.3567,-0.3748,0.0852,294.8941
16:59:25:350,-1.4528,0.9228,10.9023,39.3197,-0.1448,-0.1299,0.1597,294.9397
16:59:25:370,-1.2159,0.8961,10.0556,39.3424,-0.1491,0.0256,0.1373,294.8574
16:59:25:389,-1.1036,1.4425,9.1321,39.3169,-0.2417,-0.1565,0.1054,294.6896
16:59:25:409,-0.8286,1.6546,7.9556,39.507,-0.2789,-0.3151,0.1341,294.4907
16:59:25:429,-0.592,1.433,6.7228,39.6026,-0.3673,-0.083,0.1075,294.309
16:59:25:449,-0.3334,1.7656,6.7666,39.6277,-0.5313,0.2332,0.0011,294.1758
16:59:25:470,-0.3469,2.3054,7.4186,39.7986,-0.527,0.2214,-0.0628,294.1019
16:59:25:489,-0.7821,2.6767,7.7221,40.0618,-0.2672,0.0916,-0.0309,294.1046
16:59:25:509,-1.7973,3.7569,7.7489,40.2548,0.165,-0.0948,0.198,294.1594
16:59:25:529,-2.0159,3.4133,7.1367,40.2949,0.4088,0.2832,0.4205,294.1428
16:59:25:550,-1.5496,2.9763,6.9868,40.4267,0.3407,0.4748,0.6058,293.9398
16:59:25:569,-0.3346,2.1619,7.902,40.779,0.1097,0.3407,0.6207,293.4315
16:59:25:589,0.742,1.3902,8.8517,40.6965,-0.0617,-0.1405,0.3886,292.6634
16:59:25:609,0.8253,1.3374,9.286,40.4943,-0.0575,-0.4578,0.0617,291.8937
16:59:25:630,0.4557,2.0543,10.0621,40.2215,0.148,-0.3641,-0.1884,291.4902
16:59:25:649,-0.0235,2.3863,10.4701,39.9559,0.4046,0.0703,-0.3268,291.5436
16:59:25:669,0.0065,2.4642,10.6502,39.7213,0.5376,0.4695,-0.3694,291.9347
16:59:25:689,0.2703,2.4831,10.991,39.5278,0.5334,0.5579,-0.3833,292.4456
16:59:25:709,0.1021,3.1341,11.3115,39.5823,0.6484,0.5568,-0.4301,292.9332
16:59:25:729,-0.9825,4.041,11.235,39.7013,0.6952,0.4067,-0.3694,293.4594
16:59:25:748,-1.8958,3.0389,11.176,39.734,0.1022,-0.0894,-0.1831,294.0032
16:59:25:769,-1.6031,2.1107,12.641,39.9817,-0.6611,-0.6675,-0.1224,294.2605
16:59:25:788,-0.7411,1.8231,13.3628,40.1901,-0.5227,-0.741,-0.115,294.2258
16:59:25:808,0.1767,1.5556,12.0777,40.539,0.0351,-0.346,-0.0809,294.3127
16:59:25:828,0.7244,1.2622,10.3183,40.5924,0.3599,0.2374,-0.0905,294.5499
16:59:25:848,0.7115,1.1905,9.2981,40.5867,0.116,0.296,-0.1597,294.8047
16:59:25:868,-0.0005,1.5622,8.6701,40.5257,-0.4056,-0.0969,-0.1831,294.9391
16:59:25:890,-0.8173,1.7528,8.6052,40.6815,-0.4418,-0.0511,-0.1235,295.0161
16:59:25:908,-0.9263,1.8652,8.4105,40.8133,-0.0979,0.1906,-0.0745,295.1698
16:59:25:928,-0.6136,2.1068,7.4259,40.9891,0.2789,0.412,-0.05,295.3502
16:59:25:948,-0.2422,1.9896,6.4964,41.2838,0.3109,0.3513,-0.0628,295.5168
16:59:25:968,-0.0986,1.8734,5.9941,41.4442,0.1491,0.1065,-0.0905,295.5933
16:59:25:988,-0.2972,2.1471,5.6809,41.3165,0.1565,0.1256,-0.0415,295.6369
16:59:26:008,-0.4276,2.8481,6.0325,41.0893,0.297,0.3471,0.0809,295.7516
16:59:26:028,-0.018,2.7073,6.3369,41.0134,0.0894,0.0735,0.1171,295.8416
16:59:26:048,0.2232,2.7487,7.6701,41.0225,-0.1586,-0.4993,0.0096,295.6646
16:59:26:068,0.0984,3.3621,8.6159,41.2099,-0.2183,-0.7506,-0.0415,295.4146
16:59:26:089,0.1213,3.4947,8.9593,41.3772,-0.0639,-0.3418,0.0021,295.3526
16:59:26:121,-0.2434,3.237,9.1248,41.5486,0.05,0.2992,0.0937,295.4788
16:59:26:129,-0.4409,2.7596,10.1746,41.7353,0.0713,0.7772,0.1682,295.5833
16:59:26:148,-1.0485,2.5162,11.4692,41.8884,0.1075,0.9092,0.1011,295.5424
16:59:26:168,-1.8881,2.9539,12.3129,41.828,0.1512,0.4322,0.0554,295.4153
16:59:26:188,-1.6083,3.8447,12.5444,41.9613,0.1789,-0.1991,0.033,295.2362
16:59:26:208,-1.4926,4.3349,11.8783,41.7469,0.1001,-0.3939,-0.016,295.0695
16:59:26:228,-2.2156,3.5341,11.5425,41.759,-0.0596,-0.3151,-0.0224,295.0174
16:59:26:248,-2.7134,2.9584,11.4094,41.8344,-0.1395,-0.428,0.0735,295.0458
16:59:26:268,-2.5285,2.8448,11.0789,41.9876,-0.1033,-0.5462,0.3577,295.0109
16:59:26:288,-1.8326,2.6362,10.317,42.1091,0.0319,-0.4248,0.6942,294.8003
16:59:26:308,-1.3831,1.6934,9.2979,42.7411,0.0841,-0.1097,0.906,294.2915
16:59:26:328,-1.0222,1.0819,8.4755,43.0602,-0.0532,0.1214,0.9188,293.4586
16:59:26:348,-0.4499,1.2117,8.1035,43.4069,-0.3162,0.2364,0.7942,292.3965
16:59:26:369,-0.2174,1.4164,8.0597,43.739,-0.5845,0.2364,0.6111,291.3238
16:59:26:389,-0.0684,1.7939,8.221,44.0413,-0.6888,0.0745,0.4472,290.3861
16:59:26:408,-0.0831,2.1887,7.9469,43.9643,-0.5643,-0.1831,0.3758,289.6426
16:59:26:428,0.0016,2.352,7.1914,44.1192,-0.379,-0.3418,0.4003,289.0788
16:59:26:449,0.1609,2.3312,6.6117,44.2304,-0.2257,-0.2938,0.4418,288.6027
16:59:26:468,0.3107,2.4061,6.6132,44.1997,-0.0202,0.0117,0.4514,288.131
16:59:26:488,0.2247,2.3359,7.0056,43.9945,0.1916,0.3407,0.461,287.6259
16:59:26:508,0.2174,2.3863,7.3395,44.0899,0.3226,0.4365,0.4461,287.221
16:59:26:528,0.0995,2.2445,7.618,44.1769,0.3471,0.4876,0.4067,286.7211
16:59:26:548,0.0143,1.9403,8.1408,43.8546,0.2502,0.544,0.3332,286.2326
16:59:26:568,0.4322,2.1742,9.4769,44.2103,0.165,0.6516,0.2183,285.7895
16:59:26:588,0.466,2.1563,11.3588,44.4126,0.3833,0.9188,0.049,285.3948
16:59:26:608,-0.0475,2.4105,12.5947,44.5914,0.7346,0.9252,-0.1118,285.3356
16:59:26:628,-0.4697,2.8983,12.5083,44.894,0.8709,0.5398,-0.2726,285.4236
16:59:26:648,-0.6164,3.5081,12.2268,45.0411,0.7016,0.0447,-0.4216,285.6584
16:59:26:668,-0.5724,3.97,11.8208,45.3017,0.5611,-0.4503,-0.5579,286.0258
16:59:26:688,-0.6444,4.2493,10.7907,45.3233,0.5291,-0.5856,-0.5664,286.5546
16:59:26:708,-0.9649,3.6109,9.8789,45.4891,0.3811,-0.1991,-0.4418,287.2791
16:59:26:728,-0.961,2.9559,10.3945,45.8652,0.1256,0.1097,-0.3194,288.0486
16:59:26:748,-0.5851,2.5707,11.0447,46.3948,0.0894,-0.1224,-0.3109,288.6035
16:59:26:768,-0.1917,2.6169,10.3015,46.6769,0.2108,-0.4589,-0.2917,288.9345
16:59:26:788,0.1609,2.5948,8.793,46.8896,0.1672,-0.4503,-0.1948,289.2613
16:59:26:808,0.4383,2.4783,7.8106,47.509,-0.1246,-0.2332,-0.1256,289.6024
16:59:26:828,0.4522,2.0939,7.605,47.6137,-0.5888,-0.0926,-0.1735,289.8308
16:59:26:848,0.3681,1.6708,8.2884,47.5331,-1.0157,-0.1608,-0.3247,289.9397
16:59:26:868,0.2399,1.5256,8.9281,47.8962,-1.1349,-0.4844,-0.5121,290.0513
16:59:26:889,0.5507,2.0253,8.7536,48.2313,-0.9454,-0.8549,-0.6633,290.316
16:59:26:908,0.6094,2.193,7.8281,48.1997,-0.6601,-0.8826,-0.7304,290.8298
16:59:26:928,0.295,1.7548,7.2165,48.9116,-0.3865,-0.5462,-0.7655,291.6043
16:59:26:948,0.0499,1.8167,7.3729,49.3187,-0.0586,-0.1821,-0.7846,292.5334
16:59:26:969,-0.1626,2.08,7.4104,49.3768,0.3471,-0.0671,-0.724,293.532
16:59:26:989,-0.1804,2.3217,7.089,49.4972,0.6356,-0.0852,-0.6132,294.5118
16:59:27:009,-0.0483,2.7612,6.7458,49.6273,0.6601,-0.1043,-0.5249,295.3808
16:59:27:028,-0.7322,2.6711,6.7607,49.7639,0.4184,-0.0948,-0.4365,296.107
16:59:27:048,-1.4284,2.8088,7.5955,49.9568,0.1906,0.0256,-0.1799,296.7143
16:59:27:069,-1.5827,2.7183,8.7385,50.2357,0.0979,0.2278,0.1469,297.1749
16:59:27:089,-1.3161,2.5317,9.7855,50.7511,0.1097,0.379,0.3705,297.3103
16:59:27:109,-0.9887,2.3561,10.408,50.8077,0.0979,0.3375,0.4269,297.0839
16:59:27:128,-0.5094,2.6198,10.5353,51.068,-0.0341,0.1278,0.3407,296.6075
16:59:27:148,0.4189,3.4717,11.0642,51.4071,-0.2278,0.1118,0.1224,296.0656
16:59:27:169,0.2042,3.2378,11.9532,51.8078,-0.2566,0.2906,-0.1852,295.6921
16:59:27:189,-0.6038,2.4488,12.342,51.8135,-0.2012,0.4237,-0.2906,295.671
16:59:27:209,-0.9262,2.0248,12.5552,52.2352,-0.2044,0.2395,-0.3258,295.9554
16:59:27:228,-1.0708,1.7555,12.2121,52.7779,-0.1054,-0.0884,-0.3609,296.2496
16:59:27:249,-1.0786,1.7039,11.1853,53.3127,0.05,-0.1203,-0.378,296.574
16:59:27:269,-1.669,1.4255,10.1918,53.4555,0.0777,0.1203,-0.3407,297.0092
16:59:27:288,-1.9667,1.6357,9.6694,53.9058,-0.0628,0.2119,-0.2576,297.5095
16:59:27:308,-2.1465,1.8518,9.3105,54.2965,-0.2545,0.0873,-0.1895,297.8901
16:59:27:328,-2.3659,1.7522,8.7805,54.4848,-0.4418,-0.1661,-0.131,298.11
16:59:27:348,-2.301,1.7805,8.4592,54.8531,-0.5025,-0.4397,-0.0277,298.2048
16:59:27:369,-1.9877,1.9412,7.9212,54.9453,-0.2981,-0.6984,0.0948,298.2116
16:59:27:389,-1.6695,1.9598,6.9668,54.7998,0.0948,-0.7484,0.1725,298.1559
16:59:27:409,-1.3446,2.0245,5.813,54.3611,0.4855,-0.5462,0.2097,298.0104
16:59:27:429,-1.093,2.3461,4.9635,54.5174,0.7123,-0.2161,0.2023,297.8853
16:59:27:449,-0.9863,2.936,4.5574,54.4927,0.7027,0.0437,0.2236,297.7567
16:59:27:469,-0.8539,3.4491,4.6982,54.8117,0.4951,0.2523,0.3386,297.605
16:59:27:489,-0.7524,3.5236,5.5071,54.9969,0.2033,0.5132,0.4812,297.3101
16:59:27:508,-0.4957,3.5865,6.8095,55.124,-0.1672,0.757,0.5579,296.9557
16:59:27:529,-0.1463,3.8851,8.9747,55.3635,-0.4205,0.8102,0.5313,296.2774
16:59:27:548,0.1687,3.7848,10.8566,55.1855,-0.3811,0.6196,0.4418,295.668
16:59:27:568,0.5286,3.329,11.6599,54.974,-0.2204,0.5483,0.3087,294.9877
16:59:27:588,0.6894,3.0717,12.1808,55.3658,-0.1576,0.5941,0.1373,294.4743
16:59:27:608,0.5888,2.7489,12.8797,55.5503,-0.1767,0.4897,-0.0958,294.1612
16:59:27:628,0.3054,2.6804,13.2852,55.8213,-0.1341,0.0628,-0.3992,294.0243
16:59:27:648,0.1175,2.8947,12.8252,56.2197,-0.0021,-0.3513,-0.5195,294.1384
16:59:27:668,0.0929,2.8288,11.9323,56.3497,0.0383,-0.2055,-0.3758,294.5874
16:59:27:688,-0.0435,2.3737,11.8406,56.8231,-0.0926,0.1703,-0.1661,295.2002
16:59:27:709,-0.052,2.0983,12.1313,57.0815,-0.1278,0.164,-0.0905,295.6269
16:59:27:729,0.0121,1.9505,11.6115,57.34,-0.1086,-0.0617,-0.1235,295.7634
16:59:27:748,-0.041,1.786,10.7905,57.6549,-0.2821,-0.1054,-0.1576,295.817
16:59:27:769,-0.3074,1.6368,10.2867,57.6103,-0.625,-0.1427,-0.1384,295.9272
16:59:27:788,-0.7605,1.3195,9.9769,57.7296,-0.9699,-0.4088,-0.1256,296.009
16:59:27:809,-1.0788,0.9263,9.4454,57.7335,-1.1285,-0.8389,-0.1682,295.9766
16:59:27:828,-1.1692,0.8419,8.6166,58.2167,-1.0561,-1.2116,-0.2481,295.9173
16:59:27:849,-1.2068,0.9132,7.462,58.8676,-0.8198,-1.3872,-0.2757,295.973
16:59:27:869,-0.8481,1.0408,6.678,59.1134,-0.5579,-1.1913,-0.2012,296.2044
16:59:27:888,-0.4387,1.19,6.7484,59.4571,-0.1054,-0.5749,-0.0948,296.5296
16:59:27:909,-0.0952,1.5045,6.7851,59.5371,0.4557,-0.231,-0.0575,296.8479
16:59:27:929,0.225,2.0128,6.4425,59.5172,0.8837,-0.083,-0.0021,297.0494
16:59:27:949,0.3681,2.642,6.0991,59.416,0.9624,0.0671,0.1022,297.1703
16:59:27:969,0.2346,3.0149,6.643,59.866,0.6984,0.2672,0.2523,297.1753
16:59:27:988,-0.0936,3.1567,8.0812,60.1963,0.3716,0.297,0.4184,297.0132
16:59:28:009,-0.0312,3.1897,9.5987,60.6572,0.2161,0.2055,0.6196,296.6415
16:59:28:028,-0.1795,2.4592,10.3521,60.9757,0.1033,0.2545,0.7729,296.0552
16:59:28:050,-0.5757,1.8551,11.1231,61.3035,-0.0884,0.2704,0.8528,295.2753
16:59:28:073,-0.6898,1.7252,11.8614,61.1277,-0.2736,-0.0266,0.906,294.3255
16:59:28:088,0.1354,2.0293,12.3636,60.7945,-0.3396,-0.3652,0.8411,293.1473
16:59:28:127,0.9656,2.5651,12.4817,60.7092,-0.1799,-0.4834,0.5334,292.1224
16:59:28:129,0.6737,2.4123,11.956,60.7276,-0.0128,-0.3002,0.2906,291.2277
16:59:28:148,-0.1501,1.6687,11.6107,60.9916,-0.1565,-0.1224,0.2278,290.7474
16:59:28:168,-0.6963,0.9939,11.831,61.7015,-0.2289,-0.2129,0.2151,290.4445
16:59:28:188,-0.4979,0.6736,11.3018,62.0143,0.0703,-0.3513,0.2747,290.1619
16:59:28:208,-0.0473,0.5978,9.7482,62.3507,0.4738,-0.0958,0.3694,289.9241
16:59:28:228,0.206,0.4501,8.2858,62.6025,0.4248,0.5802,0.5185,289.6552
16:59:28:248,0.1767,0.4257,8.227,62.5893,-0.2108,1.0402,0.5813,289.2494
16:59:28:268,-0.0612,0.2888,9.2554,62.7473,-1.0167,0.8347,0.5472,288.5974
16:59:28:288,-0.0689,0.222,10.0439,62.7444,-1.5225,0.2151,0.4301,287.796
16:59:28:309,0.2623,0.3704,9.9683,62.8655,-1.5139,-0.3748,0.2332,287.0374
16:59:28:329,0.5718,0.8252,9.0416,62.7192,-1.0668,-0.6718,-0.0138,286.5165
16:59:28:349,0.6946,1.2782,7.8561,62.8757,-0.378,-0.5334,-0.1512,286.3534
16:59:28:369,0.5837,1.3918,6.6262,62.8119,0.2917,-0.1054,-0.132,286.5322
16:59:28:389,0.3044,1.6042,5.9901,63.1666,0.7123,0.378,-0.0767,286.8265
16:59:28:409,0.1541,1.8579,5.8376,63.3905,0.8922,0.4535,-0.1043,287.0395
16:59:28:428,0.0394,1.8845,5.4762,63.7256,0.8326,0.2513,-0.1065,287.1477
16:59:28:449,-0.0404,1.7163,5.249,63.938,0.3471,0.3332,-0.0256,287.2366
16:59:28:468,-0.6319,1.482,6.4449,64.3357,-0.3992,0.7431,0.1118,287.2908
16:59:28:488,-1.4789,2.1922,9.651,64.0937,-0.8368,0.6377,0.3226,287.2388
16:59:28:508,-0.6759,2.3021,12.0008,64.1517,-0.8954,0.0926,0.4695,286.9791
16:59:28:528,0.4154,1.6325,13.3201,64.0729,-0.5515,-0.4216,0.3577,286.4517
16:59:28:548,1.5241,1.1966,13.6253,64.3284,-0.1608,-0.3992,0.0277,285.8923
16:59:28:569,2.0114,1.1171,13.8918,64.2003,0.0596,-0.1618,-0.4195,285.6003
16:59:28:589,1.8033,1.1594,13.9946,64.4081,0.2374,-0.1118,-0.757,285.744
16:59:28:608,1.2055,1.3833,13.1522,64.7003,0.3811,-0.0224,-0.8326,286.3662
16:59:28:628,0.8092,1.1465,13.6004,64.8192,0.3556,0,-0.6441,287.313
16:59:28:648,1.4537,0.6295,13.4576,64.632,0.2513,-0.4514,-0.4716,288.2304
16:59:28:669,1.9564,0.2493,12.5216,64.4819,0.2683,-0.823,-0.2917,288.86
16:59:28:688,2.4492,-0.1657,11.0809,64.3419,0.3386,-0.8134,-0.1799,289.3177
16:59:28:708,2.8095,0.0297,9.738,64.1302,0.3119,-0.4972,-0.2012,289.6122
16:59:28:728,2.8291,0.3969,8.6797,63.806,0.0532,-0.2811,-0.2523,289.843
16:59:28:748,2.3672,0.2894,8.4237,63.4083,-0.4834,-0.3002,-0.2928,290.0778
16:59:28:769,1.5945,0.2263,8.8659,63.222,-0.9486,-0.6824,-0.4003,290.3169
16:59:28:789,0.9932,0.6031,9.1269,62.7986,-0.9773,-1.0732,-0.4376,290.6241
16:59:28:808,0.9861,1.8168,8.9696,62.5098,-0.5845,-1.1882,-0.2438,291.1385
16:59:28:829,0.6307,1.668,7.8299,62.564,-0.0415,-0.9571,0.0266,291.7164
16:59:28:848,0.3981,1.0007,6.9171,62.7013,0.4386,-0.3024,0.2938,292.0476
16:59:28:869,0.7751,0.8292,6.9105,62.4831,0.9699,0.3396,0.4461,292.0309
16:59:28:889,1.1342,0.9283,6.9483,62.161,1.3468,0.4855,0.444,291.5926
16:59:28:909,0.975,0.7418,6.439,62.1451,1.3255,0.2119,0.3588,291.0703
16:59:28:929,0.593,0.4531,6.1083,61.7805,0.9529,-0.066,0.2747,290.3651
16:59:28:949,0.3708,0.5773,6.3237,61.5541,0.5557,-0.1288,0.2033,289.7357
16:59:28:969,0.4739,0.878,7.0279,61.2378,0.083,0.0979,0.1118,289.2735
16:59:28:989,-0.028,0.7358,8.6722,61.1478,-0.362,0.1448,0.0096,288.981
16:59:29:009,0.0412,1.0216,10.2061,60.9786,-0.6399,-0.1682,-0.0415,288.8503
16:59:29:028,1.0786,2.0449,11.2947,60.8372,-0.7484,-0.2832,-0.1597,288.8407
16:59:29:049,2.2186,3.7293,12.5023,60.7318,-0.643,-0.0447,-0.3492,288.982
16:59:29:069,2.5223,5.1385,13.2453,60.4592,-0.3758,0.3279,-0.3609,289.3767
16:59:29:088,0.8502,3.4082,13.6736,59.9875,-0.2821,0.7314,-0.1842,289.955
16:59:29:109,-0.7951,1.3663,14.7768,59.2451,-0.3343,0.61,0.1906,290.425
16:59:29:132,-0.9594,-0.278,15.2161,58.8543,-0.1448,-0.0213,0.5802,290.5455
16:59:29:149,-0.1001,-1.4341,13.8402,58.3702,0.2225,-0.3492,0.7665,290.1791
16:59:29:168,1.0069,-1.5417,12.273,58.1825,0.412,-0.1735,0.6324,289.4461
16:59:29:188,1.9129,-0.2874,11.3334,57.8675,0.4642,-0.0745,0.3513,288.5941
16:59:29:208,2.1689,0.9364,10.2886,57.9472,0.5536,-0.1938,0.2204,287.9208
16:59:29:228,2.4147,1.8408,9.0931,57.5427,0.7293,-0.3726,0.2491,287.5117
16:59:29:248,2.385,2.5727,7.6823,57.28,0.9773,-0.3694,0.3066,287.1724
16:59:29:268,1.7351,2.7145,5.9112,56.9026,1.2456,-0.066,0.4312,286.7823
16:59:29:288,0.8279,2.2693,4.1465,56.6495,1.2595,0.5579,0.5685,286.3058
16:59:29:309,0.0111,1.6576,4.1107,56.5287,1.0008,0.9742,0.741,285.6614
16:59:29:329,-0.3696,0.9848,5.0745,56.1742,0.7676,0.8592,0.824,284.8064
16:59:29:349,-0.0148,0.5906,5.5366,56.1828,0.6132,0.5164,0.8208,283.7305
16:59:29:369,0.6436,0.648,5.7356,55.8592,0.4141,0.329,0.625,282.5956
16:59:29:390,1.4277,1.4384,5.9652,55.6665,0.1075,0.131,0.3865,281.5625
16:59:29:408,2.1768,2.1383,6.7265,55.2725,-0.2055,0.0351,0.0958,280.8019
16:59:29:429,2.1015,2.2205,7.6716,54.8979,-0.428,0.017,-0.2662,280.3853
16:59:29:448,1.5564,2.493,9.0833,54.7295,-0.5515,0.1267,-0.576,280.3962
16:59:29:469,1.0121,2.9043,10.1011,54.5824,-0.5579,0.1874,-0.5728,280.8689
16:59:29:489,1.908,3.737,11.0251,54.2567,-0.6015,-0.0703,-0.4365,281.6309
16:59:29:508,3.4501,4.1633,11.44,54.2192,-0.6548,-0.2576,-0.5802,282.2405
16:59:29:529,3.8702,4.3455,11.7027,54.0057,-0.7399,-0.2161,-1.054,282.7849
16:59:29:548,2.6985,4.1735,12.5177,53.6986,-0.8986,-0.0277,-1.1807,283.6781
16:59:29:568,1.0231,2.3733,13.6248,53.3239,-0.7697,-0.0969,-0.8634,285.0648
16:59:29:588,-0.2217,0.2101,13.5213,52.9641,-0.2757,-0.4003,-0.2481,286.4362
16:59:29:609,-0.0827,-1.2185,12.0103,52.8169,0.2342,-0.61,0.1863,287.3269
16:59:29:628,1.1839,-1.182,10.6826,52.545,0.4802,-0.3492,0.3066,287.5134
16:59:29:649,2.111,-0.2425,9.8092,52.1772,0.5281,0.0426,0.1672,287.2692
16:59:29:669,1.7711,0.1459,8.7816,51.9367,0.3375,0.3205,-0.0564,286.9467
16:59:29:690,0.9943,0.2759,8.2282,51.9276,-0.1618,0.3183,-0.1522,286.7944
16:59:29:708,1.0289,0.4106,8.6544,51.5707,-0.7719,-0.0277,-0.2715,286.8187
16:59:29:729,1.2565,0.8357,9.5935,51.2112,-1.1658,-0.3801,-0.4855,286.9318
16:59:29:748,1.1043,1.4144,10.4928,50.9879,-1.1828,-0.7112,-0.7325,287.3038
16:59:29:769,0.1119,1.5627,10.7059,50.5431,-0.8528,-0.9326,-0.7474,288.0279
16:59:29:797,-0.67,1.4102,10.5763,50.4126,-0.0745,-0.9262,-0.4354,289.0457
16:59:29:809,-0.4655,1.2193,9.2836,50.4279,0.988,-0.7548,-0.0224,290.0033
16:59:29:831,0.2449,1.2859,7.3149,50.1901,1.8152,-0.3151,0.2438,290.4666
16:59:29:848,0.7528,1.3838,5.5969,50.2202,1.992,0.1203,0.3322,290.3234
16:59:29:868,1.2176,1.7826,4.9401,50.1118,1.5246,0.2566,0.2917,289.7359
16:59:29:888,1.5785,2.4258,5.4357,49.8433,0.6313,0.0511,0.1863,288.978
16:59:29:909,1.9715,2.8565,6.883,49.6269,-0.2065,-0.2683,0.1352,288.3086
16:59:29:929,2.5888,3.0486,8.604,49.6938,-0.7144,-0.6399,0.214,287.8895
16:59:29:948,3.0766,3.0926,9.671,49.6583,-0.7697,-0.955,0.2694,287.6428
16:59:29:968,4.1764,3.6251,9.4747,49.9315,-0.5909,-1.0029,0.2044,287.484
16:59:29:989,5.3905,4.9798,9.3484,49.6979,-0.3513,-0.5323,0.0341,287.3627
16:59:30:009,5.4022,5.1595,10.111,49.3575,-0.0245,0.083,-0.2885,287.4104
16:59:30:028,3.409,3.4092,9.9722,49.3116,0.3567,0.8081,-0.7123,287.6693
16:59:30:049,0.4184,1.829,10.0944,48.9718,0.1672,1.4628,-0.7878,288.2744
16:59:30:069,-1.4306,0.5851,12.226,48.6205,-0.378,1.318,-0.2821,289.1678
16:59:30:088,-0.8277,-0.4044,14.4972,48.5768,-0.626,0.2875,0.378,289.8438
16:59:30:108,0.807,-1.4748,13.8316,48.464,-0.3279,-0.7282,0.5813,289.8113
16:59:30:134,1.9561,-1.5055,11.3184,48.0345,0.0809,-0.8155,0.379,289.2379
16:59:30:148,2.2337,0.0633,9.293,48.133,0.3066,-0.0745,0.0788,288.6859
16:59:30:168,1.5677,1.4435,8.4153,48.0999,0.3343,0.6494,-0.0426,288.4604
16:59:30:189,0.6548,2.1865,8.0923,48.0544,0.1469,0.955,0.0351,288.4724
16:59:30:208,0.3465,2.5234,8.435,48.1838,-0.2076,0.6697,0.2353,288.4789
16:59:30:228,0.8909,2.4622,8.9194,48.1103,-0.4205,-0.0394,0.395,288.2783
16:59:30:248,1.7191,2.0523,8.5389,48.2339,-0.3599,-0.5557,0.3769,287.8526
16:59:30:269,2.1622,1.7251,7.8372,48.2443,-0.1416,-0.6505,0.2683,287.39
16:59:30:288,2.068,1.3297,7.5075,48.2082,0.1597,-0.4354,0.2023,287.052
16:59:30:308,1.9998,0.9845,7.1431,48.1876,0.5227,-0.2417,0.2172,286.8428
16:59:30:328,2.4061,0.9743,6.5301,48.3041,0.658,-0.0969,0.1661,286.6288
16:59:30:348,2.6136,1.1425,6.6343,48.2199,0.5547,-0.0351,-0.0681,286.2979
16:59:30:368,2.3529,1.3904,6.6947,48.321,0.3226,-0.1001,-0.3801,286.04
16:59:30:388,2.0479,2.0947,7.0724,48.1587,-0.099,-0.0149,-0.5877,286.0876
16:59:30:408,2.1707,3.3473,8.4897,48.2945,-0.4589,0.1501,-0.6143,286.5298
16:59:30:428,2.6011,3.915,9.904,48.3613,-0.5334,0.2183,-0.5866,287.261
16:59:30:448,3.2076,4.035,10.9901,48.2584,-0.5738,0.2321,-0.7442,288.0524
16:59:30:468,3.254,3.7945,12.1958,48.6507,-0.6995,0,-0.972,288.8673
16:59:30:489,3.123,3.578,13.1031,48.6207,-0.6878,-0.5068,-1.0263,289.8682
16:59:30:509,2.6892,2.6388,13.1175,48.7483,-0.3481,-0.4035,-0.8432,291.0771
16:59:30:528,1.7146,0.7737,12.7652,48.8075,0.0298,0.3311,-0.6281,292.3683
16:59:30:548,1.0086,-0.3,13.2416,48.9365,0.2012,0.7559,-0.4908,293.4546
16:59:30:569,0.6179,-0.073,13.7429,48.714,0.4216,0.4291,-0.5025,294.1912
16:59:30:588,0.4429,0.693,11.578,48.9806,0.7293,-0.1767,-0.3471,294.7207
16:59:30:608,0.86,2.079,8.6935,48.9317,0.6218,0.0149,-0.0266,295.1054
16:59:30:628,0.8541,2.1154,7.1066,49.053,0.0692,0.4397,0.2821,295.3154
16:59:30:648,1.0252,1.4084,7.4325,49.4244,-0.5962,0.4344,0.4525,295.1735
16:59:30:669,1.4543,0.6717,8.0323,49.4674,-0.905,-0.0351,0.3503,294.7111
16:59:30:689,1.6695,0.3026,7.677,49.5592,-0.7431,-0.3524,0.0362,294.1819
16:59:30:708,1.3661,0.3606,6.5779,49.6408,-0.3034,-0.2289,-0.2566,293.9623
16:59:30:728,0.5647,0.5423,5.5348,49.9377,0.0266,0.2757,-0.2992,294.1818
16:59:30:748,0.5551,0.9762,5.6966,49.7781,0.1959,0.6824,-0.1097,294.6572
16:59:30:769,1.1006,1.4066,6.4159,49.8204,0.4493,0.6686,0.0075,295.0119
16:59:30:789,1.4886,1.753,6.3323,49.9142,0.6484,0.4791,0.0543,295.0846
16:59:30:809,1.7598,2.462,6.0676,49.8216,0.5792,0.4546,0.1278,294.9996
16:59:30:829,1.7605,3.1289,6.6129,49.5107,0.3247,0.6761,0.1746,294.8392
16:59:30:848,1.1917,2.9551,7.6293,49.574,0.0703,0.8794,0.2385,294.6369
16:59:30:869,0.4362,2.7443,8.9724,49.641,-0.214,0.9731,0.3268,294.4012
16:59:30:888,-0.2261,2.4934,10.6448,49.8782,-0.4067,1.0859,0.478,294.0779
16:59:30:909,-0.122,2.3481,12.1072,49.9569,-0.5291,0.8879,0.5856,293.6566
16:59:30:928,0.6928,2.307,13.2434,50.1625,-0.5483,0.4706,0.4184,293.0031
16:59:30:948,1.2263,2.5035,13.59,50.2395,-0.362,0.1618,-0.0649,292.2738
16:59:30:969,0.676,2.6721,12.919,50.3891,-0.132,0.1703,-0.4887,291.8897
16:59:30:989,-0.9065,2.2637,12.3507,50.2418,-0.2225,0.2427,-0.5515,292.1422
16:59:31:009,-2.5512,1.998,13.4194,50.505,-0.412,-0.0575,-0.2332,292.7455
16:59:31:028,-2.3336,1.1119,13.2234,50.391,-0.1075,-0.28,0.3045,293.2557
16:59:31:048,-0.8596,-0.0368,12.3616,50.1561,0.4897,-0.2225,0.6058,293.3679
16:59:31:069,0.1098,-0.4128,10.4539,50.2968,0.692,0.0948,0.5451,292.9773
16:59:31:089,-0.2401,-0.2803,9.0026,50.3068,0.2438,0.6047,0.3961,292.3514
16:59:31:109,-0.8409,-0.014,9.1128,50.5043,-0.4237,0.7974,0.3513,291.8045
16:59:31:129,-0.5845,-0.6114,9.4642,51.1537,-0.8315,0.5536,0.3386,291.3158
16:59:31:148,0.1588,-0.8862,9.3688,51.2755,-0.8858,0.1916,0.1214,290.7919
16:59:31:169,0.5617,-0.589,9.1571,51.4026,-0.6548,-0.2736,-0.2832,290.3465
16:59:31:188,0.2225,-0.026,8.5399,51.3817,-0.0809,-0.8911,-0.4876,290.2278
16:59:31:209,0.2836,0.5763,6.6164,51.173,0.3513,-1.0444,-0.7474,290.5876
16:59:31:232,0.5018,1.0201,5.268,50.9682,0.4993,-0.9113,-0.8815,291.2611
16:59:31:248,0.9702,1.9342,5.1448,50.8118,0.5664,-0.3375,-0.9167,292.2126
16:59:31:268,1.0921,2.7155,5.523,50.7157,0.791,0.1416,-0.9199,293.3248
16:59:31:289,0.2634,2.7907,5.5184,50.7463,1.0412,0.5078,-0.8315,294.4797
16:59:31:309,-0.999,2.908,6.2544,50.931,0.9433,0.8379,-0.5643,295.6191
16:59:31:329,-1.4234,3.6311,8.2065,50.9168,0.3098,1.1754,-0.2768,296.5792
16:59:31:348,-2.7853,4.6486,10.9117,51.0369,-0.1437,0.7005,-0.0341,297.1563
16:59:31:368,-2.2604,4.3717,11.7974,51.0402,-0.214,0.2587,0.3641,297.2857
16:59:31:388,-0.6762,3.4583,13.0802,51.1298,-0.1011,-0.4535,0.5589,297.0988
16:59:31:408,0.7404,3.3468,13.8138,51.0243,0.0128,-0.5898,0.3215,296.4667
16:59:31:429,0.6854,3.4836,13.9761,50.8409,0.2002,-0.6132,0.1075,295.8484
16:59:31:449,0.1585,4.2069,13.2792,50.6503,0.5877,-0.5057,0.0692,295.5754
16:59:31:469,0.0348,4.4287,12.4896,50.5708,0.8528,-0.3449,0.2172,295.5446
16:59:31:489,0.4901,3.3211,11.7251,50.4781,0.7421,-0.0234,0.3588,295.502
16:59:31:508,1.0925,1.9092,11.0358,50.4948,0.4599,0.2268,0.2651,295.2525
16:59:31:528,1.4303,1.3657,10.8331,50.4427,0.2704,0.1884,0.0426,294.877
16:59:31:549,1.623,0.913,10.4298,50.5004,0.1086,0.082,-0.1661,294.6211
16:59:31:568,1.031,0.8279,10.1102,50.3482,-0.2385,-0.083,-0.2225,294.6055
16:59:31:588,0.1257,0.9243,9.2343,50.2325,-0.7218,0.1533,-0.1203,294.7686
16:59:31:609,-0.6177,0.9268,8.5212,50.0664,-1.0561,0.7123,0.1043,294.9866
16:59:31:629,-1.3285,0.6178,7.8933,50.0764,-1.005,1.1871,0.346,295.0881
16:59:31:649,-1.0959,0.5406,7.3757,50.1396,-0.4535,1.1008,0.9752,294.92
16:59:31:668,-0.0461,0.9684,6.0945,50.2159,0.0649,1.1637,0.7208,294.2666
16:59:31:689,-0.4398,0.3374,5.2067,50.0441,0.4663,0.8996,0.2598,293.1655
16:59:31:708,-0.0062,0.4923,5.0489,50.2678,0.6537,0.3492,0.099,292.5453
16:59:31:729,0.5135,1.3535,5.0865,50.0311,0.6761,-0.2726,-0.1906,292.2837
16:59:31:749,0.1251,2.5675,5.27,49.9913,0.6015,-0.8389,-0.4514,292.2463
16:59:31:769,-0.5167,3.9065,5.1758,49.9757,0.4748,-1.0434,-0.4791,292.549
16:59:31:788,-0.7824,5.3361,6.4894,49.3966,0.2981,-0.577,-0.2321,293.124
16:59:31:809,-0.6555,4.9124,8.1013,49.0024,0.0138,0.1011,0.1608,293.7475
16:59:31:828,-0.7138,4.0901,10.0349,48.8059,-0.3843,0.8538,0.3205,294.0025
16:59:31:849,-1.9181,3.8203,12.0049,48.4538,-0.7186,1.4117,0.4259,293.8342
16:59:31:869,-3.184,3.7444,13.4927,48.2983,-0.9018,1.4096,0.692,293.4385
16:59:31:888,-2.9666,3.7808,14.2685,48.3483,-0.9199,0.8911,0.9518,292.7259
16:59:31:909,-2.1534,3.5484,15.4008,48.1632,-0.5334,-0.3247,1.071,291.579
16:59:31:929,-1.4601,3.6153,14.822,48.1576,0.0916,-0.6856,0.9475,290.1125
16:59:31:949,-1.3966,3.0479,13.5408,48.3739,0.643,-0.4663,0.7059,288.85
16:59:31:968,-1.6622,1.7977,12.9978,47.9466,1.1317,-0.2715,0.4919,287.9471
16:59:31:989,-1.5953,0.6077,11.6895,47.89,1.4511,-0.0011,0.4088,287.394
16:59:32:008,-1.0761,0.543,10.1198,47.6066,1.268,0.4195,0.2374,287.0919
16:59:32:029,-1.601,1.2743,8.5632,47.4274,0.6814,0.6047,0.0873,286.9114
16:59:32:049,-2.2075,1.3861,7.8338,46.9074,0.1522,0.3694,0.1288,286.8219
16:59:32:074,-1.7187,1.4288,6.9326,46.5865,-0.1565,0.0607,0.3822,286.6858
16:59:32:088,-1.5723,0.939,5.7859,46.5116,-0.3013,0.3535,0.5632,286.3654
16:59:32:109,-0.67,0.962,5.4264,46.5004,-0.3407,0.6558,0.5707,285.8376
16:59:32:143,0.5762,0.9874,5.4092,46.295,-0.329,0.8602,0.5781,285.1733
16:59:32:148,1.1644,1.0016,5.8035,46.249,-0.2853,0.8294,0.3673,284.4532
16:59:32:168,-0.1705,1.59,6.1095,45.7323,-0.0745,0.691,0.2938,283.7758
16:59:32:189,-1.3617,2.6037,5.6919,45.2942,0.3982,0.4834,0.297,283.3083
16:59:32:209,-2.5399,3.6159,5.0711,45.0605,0.741,-0.23,0.3652,283.0018
16:59:32:229,-2.4259,3.8392,6.1482,45.145,0.8858,-1.861,0.2438,282.6377
16:59:32:248,-1.418,3.723,7.5674,45.0633,0.9965,-3.5911,0.0075,282.0741
16:59:32:268,0.7041,3.7574,10.3071,45.22,0.8198,-5.2306,-0.2097,281.652
16:59:32:289,2.43,4.0995,9.6076,45.2549,0.3215,-4.0457,-0.4248,281.4188
16:59:32:308,3.6656,5.001,9.7488,45.1976,0.2938,-2.7031,-0.7602,281.9965
16:59:32:328,3.9476,4.7051,9.6538,44.6788,0.0777,-1.8919,-1.0455,282.9184
16:59:32:348,4.8022,4.1095,9.9635,44.422,-0.2406,-1.1392,-1.3745,284.1023
16:59:32:368,5.6911,3.8963,10.2313,44.112,-0.5206,-0.5408,-1.713,285.6822
16:59:32:388,4.849,4.9006,10.1539,43.9771,-0.6718,-0.3758,-2.1783,287.7019
16:59:32:409,3.0315,4.9176,10.8123,44.1936,-0.5536,-0.23,-2.3688,290.1539
16:59:32:428,0.9785,6.1743,12.2029,44.5999,-0.05,0.8145,-2.2081,293.1114
16:59:32:449,0.1241,6.6991,13.2668,44.4861,0.9135,1.2978,-1.3521,296.3755
16:59:32:469,2.0265,3.7336,13.6066,44.5776,1.6172,0.8326,-0.6207,299.0003
16:59:32:489,2.4534,2.6406,12.323,44.3947,1.7386,-0.4067,-0.758,300.1017
16:59:32:509,1.1846,3.3775,8.5717,44.2558,0.5376,-1.4799,-1.054,300.4309
16:59:32:528,0.2571,4.4433,6.5521,44.2589,-0.6633,-0.7644,-0.7857,301.0202
16:59:32:549,0.3403,3.8061,5.0144,44.5495,-1.9749,-0.1852,-0.4631,302.3779
16:59:32:570,-0.089,2.2008,5.6944,44.4655,-2.915,0.543,-0.2949,303.3903
16:59:32:589,0.0672,1.6026,6.4004,44.6569,-3.2408,1.3063,-0.0777,304.2813
16:59:32:608,-0.3813,1.8112,6.8474,44.8895,-3.0374,2.1857,0.1703,304.975
16:59:32:629,-0.8707,1.7556,6.0777,44.7498,-2.7351,2.1538,0.4695,305.3647
16:59:32:648,-1.5672,1.0787,4.9943,44.7693,-2.5637,1.7918,0.7431,305.0619
16:59:32:669,-1.5802,1.528,6.5906,44.6474,-2.4274,1.1062,1.0753,304.2301
16:59:32:689,-0.6069,2.3309,8.4578,44.5577,-1.861,0.7016,1.3904,302.9672
16:59:32:708,0.0459,2.247,8.8142,44.5195,-1.0508,0.5973,1.5214,301.3961
16:59:32:729,-0.2768,1.9231,8.5793,44.7127,-0.2395,0.2459,1.4948,299.6415
16:59:32:749,-1.5814,1.8885,8.986,44.9329,0.2715,-0.6803,1.4894,297.8587
16:59:32:769,-1.7329,1.1641,10.6347,45.2503,0.939,-1.7311,1.4607,296.1158
16:59:32:789,-0.712,0.0254,12.7908,45.4017,1.6151,-2.8373,1.3361,294.2742
16:59:32:809,0.7471,0.4543,13.5753,45.325,2.0825,-2.4849,0.8815,292.7798
16:59:32:829,1.0151,1.8015,13.1644,45.1108,2.3422,-2.0282,0.4418,291.4196
16:59:32:849,0.7453,2.6218,13.1781,44.6858,1.9813,-2.1676,0.0564,290.4723
16:59:32:869,1.3864,2.2367,13.6696,44.599,1.1296,-1.7588,-0.2321,289.7606
16:59:32:889,1.5413,2.2009,13.6643,44.2492,0.1725,-0.8847,-0.4163,289.4899
16:59:32:909,1.6035,1.8187,13.3047,44.1797,-0.2055,0.6409,-0.3109,289.7402
16:59:32:928,1.6153,1.4049,11.6702,44.5658,-0.1554,1.5842,-0.1448,290.4565
16:59:32:949,1.1147,1.4103,9.6758,44.67,-0.0032,2.0186,-0.0884,290.9792
16:59:32:969,0.5796,1.6416,7.6059,44.901,0.0724,2.0867,-0.0021,291.2512
16:59:32:989,0.1299,1.3243,6.4891,45.1354,-0.1948,1.7822,-0.0522,291.3402
16:59:33:009,0.0015,0.9515,5.863,45.5834,-0.7325,1.2701,-0.1874,291.2521
16:59:33:028,0.2207,0.8914,5.5441,45.7321,-1.169,0.8975,-0.3205,291.1994
16:59:33:049,0.4402,1.2871,5.0896,46.1306,-1.3915,0.691,-0.4141,291.3355
16:59:33:069,0.0918,1.4617,5.039,46.1691,-1.4543,0.6452,-0.3854,291.6424
16:59:33:089,-0.2366,1.4893,5.7353,46.0594,-1.3745,0.8347,-0.2566,292.04
16:59:33:108,-0.1995,1.8031,6.5084,46.011,-1.1264,1.2222,-0.1459,292.3904
16:59:33:130,-0.43,1.7331,7.1623,46.2034,-0.9369,1.4628,-0.2704,292.6036
16:59:33:148,-1.1126,1.2745,8.0681,45.9115,-0.8251,1.1136,-0.4461,292.713
16:59:33:168,-2.1413,1.3669,9.1916,45.7744,-0.3364,0.8879,-0.3662,292.9231
16:59:33:188,-2.6511,0.7168,10.0166,45.9809,0.3375,0.5408,-0.1405,293.3335
16:59:33:209,-2.3167,0.1842,10.7177,45.7277,0.7538,0.0468,-0.0351,293.6991
16:59:33:229,-1.9455,0.5444,11.8961,45.5403,0.7484,-0.8219,-0.083,293.9073
16:59:33:249,-1.6133,1.1517,13.2289,45.5884,0.7144,-1.5065,-0.0681,294.0186
16:59:33:269,-0.8746,2.3113,14.1255,45.7611,0.857,-1.5682,0.1608,294.1703
16:59:33:288,0.4258,3.3884,14.3056,45.7287,1.1126,-1.5512,0.4354,294.3087
16:59:33:309,1.9349,2.855,14.1429,45.842,1.2403,-2.0537,0.4291,294.1609
16:59:33:329,2.4324,1.8145,13.4787,46.074,1.3628,-2.3358,0.1789,293.6474
16:59:33:348,2.7669,0.9532,12.5042,46.1069,1.3234,-2.1453,-0.0138,293.2135
16:59:33:369,2.805,0.9785,11.4739,46.5195,0.8858,-1.9238,-0.1299,293.0555
16:59:33:389,2.5708,1.7702,11.0977,46.4613,0.2523,-1.4256,-0.132,293.0044
16:59:33:409,2.8452,2.3844,10.578,46.2808,-0.1203,-0.7016,-0.0287,293.1183
16:59:33:429,2.8283,2.2805,9.3131,46.3125,-0.2012,0.2662,-0.0319,293.3136
16:59:33:449,2.2367,2.0687,8.0202,46.2738,-0.1384,1.2478,-0.0958,293.5476
16:59:33:469,1.1306,1.9313,7.1616,46.4298,-0.0628,1.8599,-0.1139,293.8353
16:59:33:489,0.5414,1.8546,6.2432,46.2376,0.0032,1.9824,-0.1608,294.1001
16:59:33:508,-0.0009,1.6885,5.1232,46.2636,0.0884,1.9866,-0.1906,294.283
16:59:33:529,0.0686,1.3137,3.9419,46.1273,0.1043,1.7748,-0.1139,294.5131
16:59:33:548,0.4871,1.3972,3.4826,46.0998,0.0862,1.2946,-0.0948,294.6707
16:59:33:568,0.6411,1.8292,3.5326,46.1538,0.1544,0.5856,-0.1033,294.7008
16:59:33:588,0.3896,2.0693,3.6588,46.447,0.3822,0.1331,-0.1246,294.6742
16:59:33:609,0.8722,1.9281,4.4605,46.644,0.6654,-0.1831,-0.0767,294.7714
16:59:33:628,1.0699,3.0324,6.8984,46.7441,0.8581,-0.938,0.0373,294.9281
16:59:33:649,-0.0801,4.8366,9.3078,46.8126,0.8741,-1.8504,0.0458,294.9047
16:59:33:669,0.7061,5.1563,12.2285,46.9283,0.9763,-0.9231,-0.0969,294.7141
16:59:33:689,0.182,4.9252,12.7334,46.7136,0.5046,0.5909,-0.4035,294.9414
16:59:33:708,-2.2562,5.3441,12.6735,46.6746,-0.4525,1.3063,-0.3066,295.5105
16:59:33:729,-3.736,6.4965,13.2475,46.6829,-1.0583,1.2403,0.3535,296.0855
16:59:33:749,-2.8125,5.541,13.9457,46.7098,-0.823,0.6675,0.8453,296.0968
16:59:33:769,-2.3564,3.9055,13.862,46.8437,-0.1139,-0.0575,0.7538,295.2458
16:59:33:789,-2.3088,2.1733,12.7384,47.1429,0.4897,-0.5313,0.5078,294.0932
16:59:33:808,-2.1119,1.3276,11.1937,47.4944,0.6942,-0.6494,0.3886,293.2527
16:59:33:829,-1.9794,1.2588,9.7702,47.5259,0.6824,-0.625,0.4663,292.7324
16:59:33:848,-1.5057,1.5065,8.9442,47.8209,0.5707,-0.6526,0.6441,292.2835
16:59:33:869,-0.6582,1.9236,8.1976,47.8426,0.2183,-0.6292,0.8326,291.6523
16:59:33:888,-0.0244,1.8796,7.5227,47.8524,-0.3929,-0.6452,0.8975,290.7561
16:59:33:910,0.2141,1.2096,7.0761,48.1468,-0.9742,-0.2779,0.857,289.6343
16:59:33:928,0.0474,0.84,6.8382,47.956,-1.351,0.2534,0.6984,288.5887
16:59:33:948,-0.1243,0.9542,6.5338,47.565,-1.4383,0.691,0.5664,287.7267
16:59:33:969,0.1441,1.2565,6.0761,47.4065,-1.2978,0.922,0.5472,287.0804
16:59:33:989,0.6872,1.6198,5.8695,47.1269,-1.0423,0.9497,0.5068,286.4538
16:59:34:009,0.5962,2.1691,6.314,47.0275,-0.724,0.5951,0.5376,285.9217
16:59:34:029,0.5554,2.5038,7.2815,47.2711,-0.3066,-0.0479,0.6558,285.2979
16:59:34:049,0.6869,2.6284,7.7342,47.2496,0.1927,-0.214,0.6047,284.5657
16:59:34:069,0.5549,3.2157,7.7881,47.3257,0.346,0.0437,0.3513,283.8257
16:59:34:089,0.3533,3.4444,8.4546,47.3434,-0.0383,0.2023,0.0309,283.2435
16:59:34:109,1.3732,3.6398,10.1,47.2707,-0.4865,-0.1714,-0.3875,282.9199
16:59:34:129,1.2575,2.9542,11.5104,47.3877,-0.5025,-0.1852,-0.8006,282.8748
16:59:34:151,0.5368,1.9557,12.0426,47.1175,-0.3886,0.0043,-1.0572,283.4438
16:59:34:168,-0.3725,2.2234,11.4383,47.3316,-0.2502,-0.049,-0.757,284.5073
16:59:34:189,-0.4601,3.04,10.9198,46.9606,-0.1767,-0.2587,0.0245,285.7048
16:59:34:208,0.8536,3.3017,10.9686,46.6922,-0.296,-0.9454,0.6792,286.3278
16:59:34:229,3.4308,2.2101,12.5369,46.6986,-0.6377,-2.3284,0.8826,285.9672
16:59:34:249,5.2126,0.675,13.7499,46.818,-0.6154,-2.4753,0.4067,284.8718
16:59:34:270,4.9258,-0.3664,14.2759,47.061,-0.3982,-1.9707,-0.3609,283.9946
16:59:34:288,3.5673,-1.4061,14.2523,47.2127,-0.2225,-0.116,-0.642,283.9374
16:59:34:309,3.4173,-1.1888,12.9149,47.3282,-0.5206,1.2829,-0.7048,284.7568
16:59:34:328,2.8285,-0.2114,11.2601,47.4839,-0.8751,2.0548,-0.8155,285.6719
16:59:34:348,1.6405,0.6204,10.0574,47.651,-1.0199,2.4593,-0.8762,286.6297
16:59:34:369,-0.1608,0.8391,8.9329,47.8815,-0.8283,2.4551,-0.7591,287.6902
16:59:34:389,-1.1615,0.5467,7.6349,48.0847,-0.3577,2.3912,-0.4897,288.7245
16:59:34:409,-1.4033,0.1802,6.2712,48.1023,0.1597,2.2166,-0.2545,289.5544
16:59:34:428,-1.3605,0.2727,5.0466,48.4067,0.5707,1.7407,-0.0894,290.0707
16:59:34:451,-1.3301,0.6465,4.7369,48.2164,0.8741,1.0434,0.0873,290.3613
16:59:34:469,-0.9906,0.9394,5.0173,48.06,1.169,0.3194,0.2225,290.4995
16:59:34:489,-0.6541,1.6361,5.6012,47.9398,1.3148,0.0671,0.2374,290.4708
16:59:34:509,0.3804,2.1834,6.4568,47.7044,1.3276,0.0138,0.0756,290.4673
16:59:34:529,1.2524,2.9897,7.4466,47.1908,1.2297,-0.0053,-0.2832,290.4942
16:59:34:549,0.7992,3.7245,8.7111,46.8158,0.9923,-0.0756,-0.7442,290.7529
16:59:34:568,-1.0142,3.7351,9.6427,46.32,0.6047,-0.0937,-0.9018,291.4306
16:59:34:589,-2.4835,3.5259,10.5783,45.911,0.2438,-0.0522,-0.6633,292.514
16:59:34:609,-3.1811,3.2939,11.6113,45.6321,0.0181,0.1118,-0.214,293.5787
16:59:34:629,-2.8515,3.5748,12.5618,45.5518,-0.1469,0.1735,0.2065,294.2566
16:59:34:648,-2.2102,4.2741,12.9791,45.5494,-0.1735,-0.0043,0.4493,294.351
16:59:34:669,-1.9688,4.2664,12.5521,45.655,-0.0266,-0.3886,0.4929,293.954
16:59:34:688,-2.77,2.9778,12.0259,45.7526,0.0671,-0.8272,0.4035,293.3242
16:59:34:708,-3.7985,1.4296,12.2439,45.8584,0.1352,-1.0167,0.4056,292.7169
16:59:34:729,-3.4601,0.4698,12.1526,45.8035,0.2736,-0.8443,0.4557,292.2447
16:59:34:749,-2.6216,0.1284,11.1523,45.9535,0.4493,-0.6963,0.4291,291.8232
16:59:34:768,-1.8862,0.0415,9.9714,46.0429,0.3588,-0.6878,0.3811,291.3824
16:59:34:789,-1.2623,0.0763,9.1515,46.5747,-0.1001,-0.6377,0.4003,290.9397
16:59:34:809,-0.7861,0.2876,8.5322,46.8326,-0.6792,-0.4131,0.445,290.4732
16:59:34:828,-0.349,0.4244,7.9623,46.9247,-1.1339,-0.0245,0.4418,289.9384
16:59:34:849,0.0178,0.4758,7.5267,47.575,-1.3542,0.3013,0.378,289.3669
16:59:34:869,0.5421,0.6873,7.0429,47.3709,-1.2957,0.5941,0.2555,288.8094
16:59:34:889,0.2485,1.1665,7.0512,47.2664,-0.9699,0.7112,0.131,288.3459
16:59:34:909,-0.1486,1.4697,7.2595,47.5031,-0.428,0.4397,0.1171,288.035
16:59:34:928,-0.5854,1.7256,6.9675,47.5008,0.1522,0.1299,0.2757,287.8441
16:59:34:948,-0.2479,2.11,6.5879,47.6472,0.576,-0.1746,0.4376,287.6712
16:59:34:969,-0.015,2.4884,6.7043,47.3595,0.7655,-0.2896,0.4014,287.338
16:59:34:989,1.1212,3.4415,7.7515,47.1222,0.7005,-0.5845,0.0011,286.9028
16:59:35:008,0.4998,3.3526,9.2192,46.9733,0.6686,-0.8379,-0.4908,286.5373
16:59:35:028,0.0723,3.3763,10.726,46.6063,0.8006,-0.7527,-0.8187,286.73
16:59:35:049,-0.3002,2.5142,10.7999,46.3278,1.0423,-0.1735,-0.9529,287.4894
16:59:35:069,-0.575,1.9728,10.1533,45.9703,0.8485,0.1938,-0.6942,288.6767
16:59:35:089,-0.8605,2.6216,10.5435,45.6622,0.2949,-0.0745,-0.6335,289.8303
16:59:35:109,-1.4373,3.0738,11.4662,45.2152,-0.214,0.1011,-0.2651,290.5665
16:59:35:129,-1.79,3.7073,12.4822,45.0905,-0.2896,0.4706,0.1618,291.1775
16:59:35:148,-1.104,3.4591,12.99,44.7098,-0.2023,0.6281,0.626,291.4123
16:59:35:168,0.3857,2.63,13.0042,44.8717,-0.0021,0.346,0.6196,291.0555
16:59:35:188,0.7592,1.8036,12.3387,44.995,0.3961,-0.0245,0.2385,290.1497
16:59:35:209,0.227,1.4133,10.7165,45.2921,0.7144,-0.3205,-0.0564,289.6026
16:59:35:228,0.2408,1.17,9.078,45.76,0.6111,-0.6824,-0.1001,289.4684
16:59:35:249,1.0285,1.1021,8.1043,45.975,0.1182,-0.9624,-0.0639,289.5452
16:59:35:268,1.8649,1.2306,7.8474,46.2563,-0.5281,-0.774,-0.1129,289.5759
16:59:35:288,2.1092,1.4188,7.88,46.3373,-1.1072,-0.1501,-0.2012,289.6216
16:59:35:308,1.8463,1.7094,7.9373,46.3329,-1.4341,0.7538,-0.3705,289.8099
16:59:35:328,0.8577,1.8841,7.573,46.0749,-1.4288,1.5555,-0.543,290.1739
16:59:35:348,-0.3877,1.845,6.6349,46.1352,-1.202,2.0069,-0.5994,290.708
16:59:35:368,-1.5026,1.7572,5.991,46.2165,-0.9412,1.9185,-0.5664,291.3213
16:59:35:388,-2.4938,1.7206,6.2897,46.1284,-0.6313,1.0135,-0.4812,291.8566
16:59:35:408,-3.0838,1.4518,6.8154,45.8618,-0.1437,0.0586,-0.2576,292.2421
16:59:35:429,-3.0626,1.2594,7.2215,45.9135,0.3705,-0.3396,0.049,292.5696
16:59:35:449,-2.6501,1.5751,7.7899,45.7779,0.7644,-0.4834,0.4003,292.7889
16:59:35:469,-1.1832,1.4644,8.1371,45.6646,1.0455,-0.4972,0.6867,292.7502
16:59:35:489,0.4255,2.3497,8.3516,45.533,1.0689,-0.7389,0.6196,292.381
16:59:35:508,1.1537,3.7516,8.848,45.6668,0.8592,-1.0114,0.2853,291.7301
16:59:35:529,1.4993,4.0312,9.6026,45.5654,0.4695,-1.0636,-0.0522,291.2014
16:59:35:548,0.62,3.0204,10.8606,45.3794,-0.1086,-0.4589,-0.1235,291.0287
16:59:35:568,-0.447,2.7959,12.3467,45.4308,-0.6079,0.1778,0.1554,291.2297
16:59:35:588,-0.7851,2.9464,13.8091,45.115,-0.6761,0.3609,0.5973,291.3155
16:59:35:608,-0.5313,3.1639,14.5271,45.1508,-0.2598,0.2992,0.8538,290.95
16:59:35:629,-0.4877,2.5135,14.1087,45.0459,0.2459,0.198,0.7101,290.1194
16:59:35:649,-1.0401,1.9022,13.3901,45.1521,0.6292,0.2704,0.4248,289.1769
16:59:35:669,-1.6085,1.5316,12.2379,44.8948,1.0178,0.5089,0.247,288.5352
16:59:35:691,-1.9317,1.614,10.5223,44.7788,1.3053,0.5866,0.116,288.2748
16:59:35:709,-2.1483,1.4401,8.9193,44.688,1.1818,0.2789,-0.0064,288.2161
16:59:35:729,-2.5656,1.5201,8.6822,44.9685,0.5057,-0.2257,-0.0713,288.2342
16:59:35:748,-2.4233,1.4507,9.5233,45.1428,-0.2246,-0.5142,-0.0522,288.2526
16:59:35:769,-1.6951,1.1004,10.1999,45.5783,-0.6154,-0.494,-0.0969,288.2355
16:59:35:788,-1.2473,0.898,9.7592,45.9352,-0.5238,-0.2875,-0.2151,288.2129
16:59:35:808,-0.9294,0.9717,8.2241,46.4807,-0.2033,-0.0011,-0.2906,288.3386
16:59:35:829,-0.588,1.2239,6.4491,46.576,0.0767,0.2555,-0.2768,288.6618
16:59:35:849,-0.7656,0.9982,4.7462,46.3262,0.1512,0.5195,-0.1203,289.0701
16:59:35:868,-0.7007,1.1873,4.0769,46.3258,-0.0522,0.8932,0.1991,289.4327
16:59:35:888,-0.7156,1.8528,4.2254,45.9882,-0.2193,1.1743,0.5078,289.5075
16:59:35:909,-1.1462,2.1046,5.5918,45.6478,-0.2374,1.1903,0.7133,289.2462
16:59:35:929,-1.8741,2.4148,7.4943,45.5454,0.0224,0.6761,0.7761,288.5272
16:59:35:949,-2.2379,2.8575,8.8005,45.4667,0.5376,0.0596,0.8251,287.5649
16:59:35:969,-1.3242,3.2896,9.2585,45.2717,0.9071,-0.3322,0.7804,286.6243
16:59:35:988,-0.6157,3.6894,9.094,44.9334,0.9529,-0.4014,0.4578,285.7618
16:59:36:008,-0.7194,4.1069,8.9837,44.5907,0.6675,-0.3268,0.0543,285.108
16:59:36:029,-0.8744,4.3032,9.322,44.5465,0.1916,-0.28,-0.116,284.8675
16:59:36:049,-0.9382,4.7021,10.52,44.6117,-0.2789,-0.2811,-0.0138,284.9392
16:59:36:068,-0.3328,5.177,12.1366,44.477,-0.4046,0.0075,0.2779,285.015
16:59:36:089,1.6294,5.6985,12.8864,44.6464,-0.2129,0.1608,0.3971,284.9219
16:59:36:110,2.7471,5.1363,12.6115,44.5258,0.0362,-0.2321,-0.0468,284.5071
16:59:36:129,1.3421,3.1098,11.5615,44.3322,0.1011,-0.4525,-0.5909,284.0783
16:59:36:162,-0.4001,1.6583,10.6851,43.8906,0.0447,-0.3609,-0.7612,284.3127
16:59:36:172,-0.5856,1.2215,10.0421,43.5099,-0.1448,-0.3971,-0.6526,285.1362
16:59:36:189,-0.1526,1.2908,9.4441,43.3344,-0.4535,-0.758,-0.577,285.9878
16:59:36:209,0.7772,1.6763,9.0306,42.9614,-0.7453,-1.103,-0.5462,286.5864
16:59:36:229,1.473,1.6574,8.9652,42.6831,-1.0157,-0.889,-0.5888,287.0878
16:59:36:249,0.4942,1.1358,9.3671,43.1068,-1.1924,-0.0458,-0.6292,287.6611
16:59:36:269,-0.7467,0.7928,9.0785,43.0386,-1.0285,0.7868,-0.477,288.4068
16:59:36:289,-0.9861,0.7505,8.1628,42.8533,-0.5526,1.2265,-0.231,289.1489
16:59:36:309,-0.7358,1.1418,7.1332,43.1079,0.0064,1.104,-0.1075,289.6396
16:59:36:329,-0.9324,1.4078,6.3883,43.2667,0.4642,0.5376,-0.05,289.8411
16:59:36:349,-1.168,1.2378,5.4379,43.0293,0.8091,0.1597,0.2726,289.944
16:59:36:372,-0.1021,1.4473,5.0117,42.949,0.8986,0.2747,0.6356,290.0194
16:59:36:389,0.8268,2.673,5.0643,42.6015,0.7495,0.2843,0.5983,289.7608
16:59:36:409,0.988,3.5482,5.9957,42.4842,0.3662,-0.0713,0.23,289.1518
16:59:36:429,0.3991,4.314,8.2215,42.294,0.0447,-0.4035,-0.2289,288.5704
16:59:36:448,-0.2647,4.427,9.7967,41.9812,0.0053,-0.3503,-0.4418,288.4115
16:59:36:468,-1.3195,4.3252,10.4471,42.0146,-0.0979,0.05,-0.4802,288.7795
16:59:36:489,-2.0848,4.6912,11.1619,42.0326,-0.4386,0.2981,-0.3599,289.3796
16:59:36:508,-2.8414,4.6416,12.587,41.7752,-0.6846,0.3875,-0.0873,289.8927
16:59:36:528,-3.3111,4.7268,13.9695,41.4417,-0.5419,0.2736,0.3268,290.1217
16:59:36:548,-3.3345,4.8065,14.1932,40.9978,0.0021,0.0405,0.7846,289.9603
16:59:36:569,-2.9079,4.4045,13.1064,40.5822,0.5366,-0.2012,0.971,289.3677
16:59:36:588,-2.7237,3.4295,11.2928,40.3936,0.7804,-0.164,0.8911,288.4164
16:59:36:608,-3.0099,2.286,9.4397,40.2452,0.7495,0.0979,0.7474,287.4495
16:59:36:629,-2.9355,1.7647,8.1728,39.8407,0.4546,0.0671,0.6345,286.6398
16:59:36:649,-2.265,1.6898,8.0267,39.4677,-0.0213,-0.3737,0.4823,285.8802
16:59:36:669,-1.0321,1.4932,8.7679,39.2142,-0.5195,-0.8624,0.263,285.0925
16:59:36:689,0.332,1.2458,9.747,39.5546,-0.9582,-0.6665,0.0351,284.4122
16:59:36:709,-0.738,0.441,9.8883,39.9546,-1.2254,-0.2672,-0.23,284.0707
16:59:36:729,-0.4045,0.3265,9.4676,40.5729,-1.2755,0.0713,-0.2204,284.0323
16:59:36:748,0.7525,0.3207,8.7487,41.154,-1.1796,0.2864,-0.1778,284.2127
16:59:36:769,1.0638,0.6757,8.1703,41.0793,-0.8294,0.4578,-0.2172,284.3311
16:59:36:789,1.1114,0.795,7.3882,41.2419,-0.2449,0.3386,-0.2821,284.4609
16:59:36:809,0.6885,0.9325,6.4141,40.8699,0.2481,0.2757,-0.3034,284.6854
16:59:36:829,0.1104,1.4197,5.4615,40.6958,0.5153,0.3418,-0.231,285.0578
16:59:36:849,-0.2186,1.9564,5.2901,40.8515,0.477,0.4663,-0.2449,285.4846
16:59:36:869,-0.3925,2.3244,5.8428,40.9035,0.2704,0.4599,-0.4216,285.8444
16:59:36:889,-0.8938,2.4372,7.132,40.8854,0.0628,0.2417,-0.6643,286.2215
16:59:36:908,-1.8306,2.0954,8.7188,40.9131,0.0692,0.2119,-0.7261,286.7664
16:59:36:928,-2.555,2.2859,9.8487,40.7428,0.2193,0.5749,-0.5376,287.578
16:59:36:949,-2.499,2.6951,10.1794,40.4145,0.1565,0.7846,-0.4674,288.4555
16:59:36:968,-2.3945,3.0718,10.8734,40.5059,-0.164,0.5025,-0.6452,289.1065
16:59:36:989,-2.6597,3.1429,12.0895,39.9293,-0.3843,0.0426,-0.8145,289.6196
16:59:37:009,-2.9156,2.8524,13.355,39.7107,-0.247,-0.1246,-0.6186,290.2601
16:59:37:028,-2.0272,2.7349,13.6689,39.3401,0.0649,-0.0649,-0.1714,291.0524
16:59:37:049,-0.0577,2.801,13.4344,38.6556,0.1938,-0.181,0.0724,291.6264
16:59:37:069,1.5254,2.6949,13.0641,38.2854,0.3684,-0.5238,-0.1757,291.7525
16:59:37:088,1.3951,1.7825,11.906,38.5761,0.6399,-1.0061,-0.7676,291.7229
16:59:37:109,0.4674,0.9467,10.3751,38.6063,0.6867,-1.2435,-1.0327,292.1635
16:59:37:129,0.0543,0.6431,9.05,39.2435,0.3183,-1.1051,-1.1679,293.2595
16:59:37:149,-0.3145,0.3942,8.6587,39.6499,-0.4972,-0.6942,-1.1754,294.608
16:59:37:169,-1.0557,0.4117,9.1768,39.6788,-1.2201,-0.3141,-1.1189,295.9784
16:59:37:189,-1.6139,0.2505,9.5677,39.7746,-1.2967,0.0053,-1.0678,297.1772
16:59:37:208,-1.8749,0.0485,8.7541,40.1019,-0.9167,0.4333,-0.9805,298.2667
16:59:37:229,-2.3034,0.1114,7.4854,40.3731,-0.5057,0.6622,-0.8911,299.3473
16:59:37:249,-2.8605,0.2107,6.6676,40.6925,-0.1842,0.3364,-0.7463,300.3599
16:59:37:269,-3.0417,0.136,5.8479,40.9604,0.1203,-0.1618,-0.5057,301.2441
16:59:37:288,-3.0072,0.2247,5.1963,41.3228,0.4024,-0.5323,-0.1459,301.983
16:59:37:308,-2.811,0.6158,5.2915,41.2076,0.5334,-0.6963,0.2119,302.4894
16:59:37:329,-2.3144,1.1935,5.7188,41.2741,0.6399,-0.7719,0.5195,302.634
16:59:37:348,-1.5038,2.1619,6.4523,41.6189,0.5738,-0.8389,0.6335,302.3981
16:59:37:369,-0.7524,3.0323,7.6025,41.6528,0.4195,-0.7495,0.6026,301.8464
16:59:37:389,-0.5217,3.3534,8.998,41.7287,0.2736,-0.494,0.3865,301.185
16:59:37:409,-1.0789,3.5901,10.5187,42.0742,0.2161,-0.2896,0.2076,300.6143
16:59:37:429,-1.4104,3.6256,11.5147,42.1593,0.1661,-0.3077,0.1927,300.2837
16:59:37:449,-1.2312,3.4312,12.2237,42.5113,-0.0575,-0.1331,0.3056,300.0764
16:59:37:469,-1.0978,3.5652,13.3755,42.6767,-0.2843,0.2917,0.3961,299.8383
16:59:37:490,-1.0847,3.7319,14.1847,42.7704,-0.1916,0.6079,0.5185,299.4898
16:59:37:509,-1.1195,3.73,13.9211,43.153,0.0926,0.6452,0.5547,299.0281
16:59:37:529,-1.2907,3.2732,13.1312,43.3132,0.2981,0.4461,0.478,298.4271
16:59:37:549,-1.6649,2.0141,12.188,43.1832,0.4812,0.3194,0.3961,297.8121
16:59:37:569,-2.1797,1.183,10.9453,43.7703,0.5888,0.2246,0.3577,297.3328
