Time,Acc_X,Acc_Y,Acc_Z,Meg,Gyr_X,Gyr_Y,Gyr_Z,Ore
16:45:45:977,-1.811,4.226,8.391,49.2027,0.2505,-0.3732,0.0161,109.3382
16:45:45:980,-1.593,4.3241,8.264,49.2087,0.158,-0.1655,0.0683,109.5161
16:45:45:981,-1.392,4.446,8.2451,49.2524,0.0388,-0.0943,0.0428,109.853
16:45:45:982,-1.416,4.415,8.4731,49.319,-0.0826,-0.19,-0.0434,110.3332
16:45:45:987,-1.6121,4.211,8.753,49.3079,-0.1401,-0.2284,-0.1169,110.9449
16:45:46:006,-1.94,4.025,8.9351,49.3033,-0.1485,-0.1646,-0.1137,111.6783
16:45:46:026,-2.154,3.869,9.035,49.1993,-0.1145,-0.0645,-0.0264,112.5231
16:45:46:047,-2.0981,3.795,8.978,49.0927,-0.0549,0.0026,0.0693,113.4653
16:45:46:070,-1.8971,3.761,8.865,49.0642,-0.0102,0.0228,0.1108,114.4903
16:45:46:087,-1.763,3.759,8.8631,49.0642,0.0036,-0.0326,0.1173,115.5852
16:45:46:106,-1.718,3.7781,8.841,49.1914,0.0249,-0.0432,0.1225,116.7403
16:45:46:126,-1.677,3.9101,8.7431,49.4177,0.0345,-0.0102,0.1364,117.9467
16:45:46:146,-1.586,4.0511,8.6831,49.7131,0.0143,0.01,0.1407,119.1953
16:45:46:166,-1.4741,4.149,8.636,49.6813,0.0004,0.0132,0.1279,120.4777
16:45:46:186,-1.335,4.2041,8.5691,49.5074,-0.0326,-0.0219,0.0864,121.7869
16:45:46:205,-1.3631,4.235,8.621,49.2525,-0.091,-0.0602,0.0214,123.1183
16:45:46:225,-1.4591,4.187,8.798,48.9449,-0.1305,-0.0741,-0.0147,124.4689
16:45:46:249,-1.509,4.1081,8.925,48.9234,-0.1123,0.0015,-0.0201,125.8347
16:45:46:271,-1.5911,4.0841,8.997,49.1171,-0.0591,0.0749,-0.0201,127.2105
16:45:46:286,-1.7081,4.068,8.973,49.1587,-0.0113,0.0377,-0.036,128.5925
16:45:46:306,-1.823,4.005,8.8391,49.1693,0.0164,-0.0133,-0.0424,129.979
16:45:46:325,-1.871,3.9311,8.777,49.2265,0.0132,-0.0358,-0.0253,131.3675
16:45:46:346,-1.902,3.8711,8.798,49.2336,-0.0007,-0.0571,0.0109,132.7549
16:45:46:366,-1.8611,3.8831,8.813,49.2541,-0.0027,-0.0368,0.0598,134.1377
16:45:46:385,-1.7351,3.9221,8.904,49.3535,-0.0027,-0.0102,0.0917,135.5116
16:45:46:403,-1.608,3.95,8.964,49.3535,0.0143,-0.0252,0.0896,136.8728
16:45:46:424,-1.56,3.9581,8.909,49.3452,0.0271,-0.0432,0.0609,138.2191
16:45:46:444,-1.632,3.965,8.868,49.5653,0.0004,-0.0294,0.0257,139.5499
16:45:46:504,-1.749,3.63,9.162,49.7417,-0.0241,0.0675,0.0279,140.8661
16:45:46:523,-1.6361,3.522,9.069,49.54,0.0206,0.0271,0.0129,142.1655
16:45:46:543,-1.632,3.452,8.877,49.4145,0.0473,0.0249,-0.0062,143.4467
16:45:46:568,-1.682,3.4601,8.724,49.2671,0.0314,0.0525,-0.0104,144.7074
16:45:46:584,-1.761,3.531,8.688,49.1385,-0.0059,0.0727,0.0066,145.9455
16:45:46:602,-1.751,3.663,8.6861,49.0973,-0.0209,0.0813,0.0374,147.16
16:45:46:622,-1.6631,3.821,8.715,49.1226,-0.0283,0.0462,0.0641,148.3483
16:45:46:643,-1.524,3.912,8.7431,49.109,-0.023,-0.0081,0.0769,149.5081
16:45:46:667,-1.3751,4.013,8.751,49.0604,-0.0124,-0.0304,0.0821,150.6373
16:45:46:685,-1.323,4.113,8.7461,49.1868,-0.0102,-0.056,0.0789,151.7352
16:45:46:702,-1.275,4.233,8.6741,49.2281,-0.0219,-0.0793,0.08,152.804
16:45:46:722,-1.1891,4.377,8.655,49.1663,-0.0506,-0.0793,0.0778,153.8457
16:45:46:742,-1.158,4.501,8.748,49.2377,-0.0804,-0.0793,0.0641,154.8616
16:45:46:764,-1.227,4.547,8.856,49.1536,-0.0741,-0.0751,0.0534,155.8536
16:45:46:781,-1.344,4.554,8.765,49.0467,-0.0304,-0.0676,0.0534,156.8239
16:45:46:801,-1.349,4.551,8.631,49.1166,-0.0346,-0.0932,0.0641,157.7743
16:45:46:820,-1.296,4.47,8.6621,49.0692,-0.0676,-0.0751,0.0693,158.704
16:45:46:841,-1.304,4.35,8.741,49.1008,-0.0591,0.0069,0.0811,159.6109
16:45:46:863,-1.344,4.293,8.7941,49.2261,-0.0198,0.0323,0.0938,160.4939
16:45:46:882,-1.4471,4.259,8.7461,49.3382,0.0302,-0.0124,0.1088,161.3531
16:45:46:899,-1.454,4.257,8.636,49.559,0.0718,-0.0358,0.1396,162.1895
16:45:46:920,-1.43,4.2761,8.49,49.5595,0.0781,-0.0059,0.1683,163.0033
16:45:46:960,-1.4501,4.3211,8.406,49.5084,0.0121,0.0186,0.1928,163.7944
16:45:46:982,-1.466,4.269,8.456,49.5076,-0.0346,0.0047,0.1896,164.5629
16:45:46:998,-1.524,4.209,8.5181,49.6753,-0.073,0.0579,0.1981,165.3095
16:45:47:039,-1.799,4.2311,8.4701,49.6993,0.0505,0.2494,0.261,166.034
16:45:47:059,-1.8371,4.355,8.087,49.6811,0.1782,0.2261,0.2684,166.7375
16:45:47:082,-1.8611,4.463,7.7591,49.612,0.1834,-0.0124,0.2173,167.4217
16:45:47:099,-1.833,4.4081,7.587,49.4385,0.0727,-0.1442,0.1737,168.0886
16:45:47:118,-1.871,4.439,7.7471,49.37,-0.0624,0.0036,0.1822,168.7384
16:45:47:138,-1.914,4.5491,8.087,49.4327,-0.1368,0.1452,0.197,169.3687
16:45:47:159,-1.8731,4.6691,8.267,49.3896,-0.1528,0.0644,0.1726,169.9771
16:45:47:179,-1.715,4.697,8.322,49.5425,-0.205,-0.0793,0.1077,170.5625
16:45:47:198,-1.6961,4.6421,8.5061,49.5628,-0.3167,-0.0953,0.047,171.1232
16:45:47:217,-1.881,4.578,8.882,49.4171,-0.406,0.0186,0.0396,171.6602
16:45:47:237,-1.986,4.515,9.378,49.4357,-0.404,0.1133,0.0832,172.1742
16:45:47:257,-1.986,4.496,9.6581,49.5195,-0.2742,0.1462,0.147,172.6637
16:45:47:279,-1.883,4.551,9.5261,49.6543,-0.0613,0.1345,0.2141,173.1272
16:45:47:301,-1.8041,4.724,8.973,50.0316,0.142,0.0888,0.2513,173.5637
16:45:47:317,-1.6991,4.91,8.2961,50.3166,0.2442,0.0121,0.2567,173.9754
16:45:47:336,-1.514,5.016,7.802,50.3565,0.2047,-0.0528,0.228,174.3644
16:45:47:357,-1.325,5.061,7.668,50.0868,0.0696,-0.0378,0.1768,174.7314
16:45:47:377,-1.385,5.064,7.994,49.9439,-0.0645,0.0217,0.1162,175.0775
16:45:47:402,-1.49,4.997,8.552,49.9743,-0.1049,0.0164,0.0906,175.4056
16:45:47:417,-1.4111,4.997,8.94,50.0755,-0.0326,-0.0294,0.0832,175.7166
16:45:47:436,-1.344,5.037,9.002,50.2729,0.0696,-0.0793,0.0598,176.0109
16:45:47:455,-1.304,5.061,8.885,50.2902,0.1165,-0.1464,0.0385,176.2912
16:45:47:475,-1.289,5.076,8.861,50.1435,0.109,-0.1986,0.0246,176.5597
16:45:47:495,-1.323,5.0681,8.909,49.9985,0.0855,-0.1709,0.0353,176.8181
16:45:47:515,-1.356,5.1311,9.095,49.9071,0.0909,-0.1305,0.0704,177.0677
16:45:47:535,-1.251,5.231,9.27,49.9071,0.143,-0.1752,0.0928,177.3071
16:45:47:555,-1.098,5.277,9.3131,49.8656,0.2155,-0.256,0.0789,177.5353
16:45:47:574,-1.019,5.291,9.191,49.71,0.2676,-0.3039,0.0417,177.7532
16:45:47:594,-1.064,5.3291,9.0281,49.703,0.275,-0.3081,0.0034,177.964
16:45:47:614,-1.124,5.3801,8.9321,49.6592,0.2324,-0.2955,-0.0392,178.1719
16:45:47:634,-1.0331,5.226,8.964,49.5578,0.1526,-0.3092,-0.0935,178.3796
16:45:47:655,-0.753,4.913,9.105,49.7823,0.0314,-0.3625,-0.1701,178.5849
16:45:47:673,-0.6521,4.5731,9.165,49.8455,-0.0719,-0.3039,-0.2276,178.7853
16:45:47:695,-0.6671,4.197,9.117,49.7496,-0.1422,-0.2167,-0.2489,178.9803
16:45:47:714,-0.7391,3.857,9.071,49.6969,-0.2124,-0.1922,-0.2372,179.1709
16:45:47:735,-0.746,3.572,9.165,49.6205,-0.205,-0.0624,-0.169,179.3562
16:45:47:754,-0.774,3.4841,9.239,49.5862,-0.0176,0.125,-0.0742,179.5333
16:45:47:778,-0.672,3.4601,9.0761,49.6743,0.2889,0.1143,-0.0221,179.7005
16:45:47:796,-0.506,3.4721,8.597,49.9141,0.5581,-0.1049,-0.0573,179.8576
16:45:47:815,-0.14,3.321,7.908,50.0777,0.6528,-0.3422,-0.1638,-179.9933
16:45:47:835,0.1511,3.179,7.316,50.0809,0.5186,-0.4583,-0.2925,-179.8497
16:45:47:856,0.5321,3.005,7.2851,49.9981,0.1387,-0.5019,-0.4393,-179.7105
16:45:47:877,0.515,2.94,8.008,49.9647,-0.3528,-0.3816,-0.5862,-179.5737
16:45:47:923,-0.1661,2.9231,8.954,49.9029,-0.6168,0.0536,-0.632,-179.4292
16:45:47:925,-1.287,3.2681,9.5741,50.0831,-0.5423,0.4357,-0.5277,-179.2667
16:45:47:934,-1.9721,3.711,9.4399,50.277,-0.2241,0.4304,-0.3329,-179.0845
16:45:47:954,-1.964,4.1081,8.588,50.206,0.0994,0.1728,-0.1627,-178.89
16:45:47:975,-1.622,4.4441,7.508,50,0.2559,-0.0346,-0.0605,-178.6907
16:45:47:995,-1.217,4.6781,6.7871,49.7929,0.2144,-0.0943,-0.0264,-178.4935
16:45:48:015,-0.8651,4.791,6.6101,49.686,0.043,-0.0751,-0.0509,-178.3029
16:45:48:036,-0.672,4.796,6.936,49.7563,-0.1613,-0.0645,-0.1211,-178.1202
16:45:48:054,-0.633,4.7021,7.5821,49.9676,-0.338,-0.0443,-0.1903,-177.9436
16:45:48:075,-0.7121,4.556,8.415,49.9471,-0.4316,-0.0113,-0.2062,-177.7692
16:45:48:094,-0.7001,4.4801,9.251,49.926,-0.4168,0.0217,-0.1733,-177.5962
16:45:48:116,-0.6071,4.458,9.735,49.8631,-0.2794,0.1228,-0.1286,-177.4277
16:45:48:133,-0.813,4.6451,9.773,49.823,-0.0421,0.3176,-0.0764,-177.2656
16:45:48:154,-1.1501,4.9301,9.4331,49.7972,0.2036,0.4198,0.0034,-177.1065
16:45:48:174,-1.131,5.102,8.909,49.7463,0.2867,0.2676,0.0513,-176.9486
16:45:48:194,-0.789,5.133,8.5901,49.769,0.158,0.0525,0.0161,-176.7943
16:45:48:214,-0.5689,4.946,8.897,49.6328,-0.1038,-0.056,-0.0935,-176.6464
16:45:48:233,-0.918,4.664,9.687,49.7014,-0.3667,0.0004,-0.1914,-176.5022
16:45:48:255,-1.802,4.2641,10.611,49.6777,-0.488,0.2016,-0.1595,-176.3531
16:45:48:275,-2.8451,4.053,11.315,49.5462,-0.4029,0.3473,0.0077,-176.1937
16:45:48:295,-3.456,4.151,11.418,49.6156,-0.1891,0.2676,0.2949,-176.0266
16:45:48:315,-2.841,4.1441,11.1731,49.6552,0.0153,-0.0176,0.5558,-175.8636
16:45:48:335,-1.6391,3.96,10.85,49.6881,0.1452,-0.272,0.6047,-175.7202
16:45:48:357,-1.0091,3.7541,10.376,49.636,0.2335,-0.2145,0.5004,-175.6032
16:45:48:376,-1.1501,3.627,9.818,49.6227,0.3378,0.0792,0.3919,-175.5065
16:45:48:394,-1.533,3.551,9.095,49.5402,0.4899,0.2687,0.3333,-175.5065
16:45:48:415,-1.718,3.491,8.276,49.6548,0.5752,0.209,0.261,-175.5065
16:45:48:434,-1.751,3.395,7.589,49.8661,0.4995,-0.0198,0.1481,-175.4137
16:45:48:455,-1.7231,3.218,7.2641,49.848,0.2729,-0.1922,0.0311,-175.3168
16:45:48:475,-1.665,2.9351,7.391,49.8628,-0.0389,-0.1794,-0.0412,-175.2188
16:45:48:495,-1.5881,2.7011,8.016,49.8892,-0.32,-0.0378,-0.0412,-175.1251
16:45:48:514,-1.6511,2.6141,8.724,50.1351,-0.4188,0.1792,0.0183,-175.1251
16:45:48:536,-1.964,2.732,9.045,50.22,-0.2784,0.358,0.1301,-175.1251
16:45:48:554,-2.192,3.1001,8.624,50.2807,-0.0007,0.3686,0.2769,-175.1251
16:45:48:574,-2.192,3.584,7.7591,50.0811,0.2122,0.2346,0.3993,-175.1251
16:45:48:595,-2.058,4.068,6.996,49.6911,0.2739,0.0898,0.4727,-175.1251
16:45:48:614,-1.7681,4.4081,6.68,49.591,0.2005,-0.0166,0.4865,-175.1251
16:45:48:634,-1.404,4.578,6.8471,49.5629,0.0644,-0.0836,0.4503,-175.1251
16:45:48:658,-1.2341,4.671,7.415,49.5327,-0.0411,-0.0996,0.3886,-175.1251
16:45:48:677,-1.062,4.7261,8.111,49.6617,-0.0708,-0.1262,0.3365,-175.1251
16:45:48:694,-0.762,4.719,8.669,49.8733,-0.0283,-0.1368,0.279,-175.1251
16:45:48:715,-0.648,4.781,8.99,50.136,0.0217,-0.1442,0.1907,-175.1251
16:45:48:733,-0.762,4.8431,9.251,50.4148,0.0366,-0.1485,0.1182,-175.2196
16:45:48:754,-0.885,4.8221,9.462,50.6539,0.0877,-0.0582,0.1056,-175.3218
16:45:48:774,-0.9731,4.865,9.356,50.5829,0.2079,0.0738,0.1204,-175.4287
16:45:48:795,-1.1021,5.025,8.877,50.5453,0.3058,0.0749,0.1321,-175.538
16:45:48:814,-1.184,5.181,8.3891,50.474,0.2932,-0.0932,0.098,-175.647
16:45:48:834,-1.193,5.2481,8.174,50.2926,0.1154,-0.32,0.03,-175.7526
16:45:48:853,-1.026,5.133,8.6381,50.1841,-0.1826,-0.4433,-0.0147,-175.854
16:45:48:876,-0.762,4.956,9.6461,50.2018,-0.4338,-0.3721,-0.003,-175.9554
16:45:48:895,-0.411,4.91,10.719,50.4352,-0.553,-0.2529,0.0268,-176.0623
16:45:48:914,0.168,4.575,11.463,50.6749,-0.505,-0.2082,0.0203,-176.1802
16:45:48:934,0.5051,4.247,11.552,51.0234,-0.3326,-0.1943,-0.069,-176.3113
16:45:48:954,0.503,3.876,11.087,51.1935,-0.157,-0.1763,-0.1903,-176.4505
16:45:48:975,0.23,3.495,10.52,51.0793,-0.0092,-0.1496,-0.2509,-176.5899
16:45:48:995,-0.03,3.254,10.022,50.8193,0.1814,-0.0676,-0.2287,-176.7224
16:45:49:014,0.1151,2.981,9.648,50.4702,0.3655,-0.1485,-0.1999,-176.8471
16:45:49:034,0.711,2.6411,9.2081,50.0131,0.4495,-0.3965,-0.2446,-176.9682
16:45:49:054,1.202,2.432,8.798,49.7373,0.4176,-0.4902,-0.3446,-177.0892
16:45:49:073,1.3151,2.454,8.3291,49.803,0.3006,-0.3795,-0.4808,-177.2083
16:45:49:093,-0.4031,2.9501,7.778,49.8907,0.043,-0.0485,-0.6905,-177.316
16:45:49:113,-1.469,3.371,7.455,50.0546,0.1154,0.0738,-0.6181,-177.316
16:45:49:133,-2.0051,3.797,6.9311,50.0091,0.2644,0.0483,-0.4777,-177.316
16:45:49:154,-2.108,4.137,6.287,49.9183,0.3271,-0.1453,-0.352,-177.316
16:45:49:174,-1.928,4.317,5.7071,49.8313,0.2101,-0.3295,-0.2563,-177.316
16:45:49:194,-1.7801,4.463,5.705,49.8525,-0.0741,-0.3667,-0.1605,-177.316
16:45:49:213,-1.5431,4.484,6.4661,50.0762,-0.3678,-0.2933,-0.052,-177.2182
16:45:49:233,-1.2581,4.4771,7.52,50.2373,-0.5349,-0.1997,0.0481,-177.1109
16:45:49:253,-0.858,4.4291,8.595,50.0793,-0.5785,-0.1464,0.1418,-177.0072
16:45:49:273,-0.384,4.3481,9.624,49.903,-0.4711,-0.122,0.2024,-177.0072
16:45:49:293,0.053,4.3841,10.1081,49.7443,-0.2262,-0.0496,0.2183,-177.0072
16:45:49:316,0.216,4.6061,9.957,49.6115,0.0345,0.0909,0.1896,-177.0072
16:45:49:333,0.012,4.9541,9.462,49.6961,0.2218,0.2707,0.1609,-177.0072
16:45:49:353,-0.2261,5.198,8.928,49.9547,0.3165,0.358,0.147,-177.0072
16:45:49:374,-0.245,5.3561,8.4731,49.9797,0.308,0.3431,0.1119,-177.0072
16:45:49:394,-0.197,5.408,8.334,49.8857,0.1558,0.2687,0.0161,-177.0072
16:45:49:422,-0.444,5.282,8.5931,49.9882,-0.089,0.2611,-0.1169,-177.0072
16:45:49:436,-1.014,5.054,9.237,49.9539,-0.3369,0.3378,-0.1892,-177.0072
16:45:49:454,-1.562,4.863,10.13,50.1493,-0.5402,0.3708,-0.1584,-177.0072
16:45:49:474,-1.6151,4.6091,11.229,50.5262,-0.6689,0.2729,-0.0403,-177.0072
16:45:49:494,-1.16,4.0961,12.246,50.525,-0.6339,0.2442,0.0769,-177.0072
16:45:49:515,-0.681,3.62,12.672,50.3487,-0.3497,0.3751,0.1651,-177.0072
16:45:49:535,-0.413,3.342,12.1601,50.1354,0.1185,0.5006,0.1705,-177.0072
16:45:49:555,-0.7151,3.302,10.8191,49.8606,0.5422,0.4378,0.0991,-177.0072
16:45:49:574,-1.208,3.251,9.21,49.7875,0.755,0.2388,0.0736,-177.0072
16:45:49:594,-1.5431,3.266,7.692,49.7426,0.7965,0.1367,0.1099,-177.0072
16:45:49:614,-1.7201,3.314,6.555,49.5959,0.6124,0.0707,0.1173,-177.0072
16:45:49:634,-1.866,3.311,6.234,49.6503,0.2303,-0.0421,0.1151,-177.0072
16:45:49:654,-1.952,3.1271,6.881,49.612,-0.1783,-0.1453,0.1386,-177.0072
16:45:49:674,-1.881,2.918,7.992,49.5539,-0.4253,-0.1475,0.2109,-177.0072
16:45:49:694,-1.677,2.9021,9.009,49.6672,-0.4753,-0.0858,0.329,-177.0072
16:45:49:713,-1.1621,2.9141,9.7061,49.7347,-0.3444,-0.0198,0.4258,-177.0072
16:45:49:733,-0.681,3.108,9.7661,49.9259,-0.1018,0.0505,0.4471,-177.0072
16:45:49:754,-0.597,3.4691,9.251,50.2211,0.1484,0.0909,0.4036,-177.0072
16:45:49:774,-0.8561,3.855,8.375,50.3468,0.3186,0.0877,0.362,-177.0072
16:45:49:794,-1.035,4.2041,7.6181,50.1789,0.3697,0.0388,0.3567,-177.0072
16:45:49:813,-0.9881,4.535,7.127,49.9797,0.325,-0.0059,0.3567,-177.0072
16:45:49:833,-0.813,4.781,7.01,49.869,0.224,-0.0261,0.3354,-177.0072
16:45:49:854,-0.695,4.961,7.2131,49.7755,0.1196,-0.0261,0.2769,-177.0072
16:45:49:876,-0.6401,5.049,7.644,49.7561,0.0547,-0.0506,0.1939,-177.0072
16:45:49:894,-0.621,5.057,8.066,49.7962,0.0186,-0.1231,0.0971,-177.1065
16:45:49:914,-0.683,4.946,8.499,49.7815,-0.0294,-0.1411,0.0203,-177.2103
16:45:49:933,-0.8201,4.8101,9.0881,49.8988,-0.0443,-0.1166,-0.0179,-177.3156
16:45:49:954,-0.9401,4.7359,9.6701,49.8712,0.0026,-0.1294,-0.0253,-177.4201
16:45:49:978,-0.83,4.659,10.01,49.985,0.0727,-0.238,-0.021,-177.5225
16:45:49:996,-0.557,4.676,10.2041,50.0962,0.0622,-0.4401,-0.0329,-177.6234
16:45:50:017,-0.332,4.884,10.412,49.9712,0.0058,-0.521,-0.0275,-177.7246
16:45:50:038,0.0941,5.133,10.479,50.0449,-0.0272,-0.4316,0.0194,-177.828
16:45:50:055,0.8531,5.1791,10.316,49.9727,-0.0804,-0.3784,-0.003,-177.9353
16:45:50:076,1.422,4.958,10.106,49.7951,-0.2188,-0.3081,-0.1903,-178.0516
16:45:50:096,1.346,4.379,10.259,49.6758,-0.4136,-0.2273,-0.4703,-178.1802
16:45:50:117,0.3,3.8741,10.778,49.4675,-0.4646,-0.0517,-0.6405,-178.3136
16:45:50:135,-0.8771,3.4091,10.9391,49.6151,-0.1496,0.2941,-0.5287,-178.4336
16:45:50:154,-1.1291,3.093,10.505,49.7612,0.3612,0.3889,-0.2808,-178.4336
16:45:50:175,-0.59,2.856,9.77,49.7897,0.7028,-0.0698,-0.1818,-178.4336
16:45:50:196,0.2921,2.634,8.7941,49.7749,0.7485,-0.5625,-0.235,-178.4336
16:45:50:216,1.0421,2.385,8.3531,49.4564,0.5635,-0.635,-0.3755,-178.4336
16:45:50:235,1.0301,2.3921,8.2091,49.2141,0.2984,-0.3954,-0.5202,-178.4336
16:45:50:258,0.225,2.717,8.0681,49.167,0.1387,0.0399,-0.5596,-178.4336
16:45:50:276,-0.83,3.302,7.661,49.0607,0.1919,0.407,-0.4829,-178.4336
16:45:50:296,-1.79,4.1831,6.986,48.9061,0.3718,0.491,-0.3563,-178.4336
16:45:50:317,-2.505,5.2721,6.21,48.7509,0.4879,0.2559,-0.1957,-178.4336
16:45:50:337,-2.546,6.11,5.676,48.7405,0.3889,-0.1155,-0.0648,-178.4336
16:45:50:355,-1.854,6.225,5.784,48.765,0.1717,-0.2816,-0.0201,-178.3412
16:45:50:374,-1.107,5.897,6.431,48.7825,-0.0166,-0.2145,-0.0637,-178.226
16:45:50:395,-0.837,5.7821,7.3241,48.9674,-0.157,-0.1433,-0.1328,-178.1056
16:45:50:414,-0.753,5.586,8.367,48.8985,-0.2178,-0.1188,-0.186,-177.9928
16:45:50:438,-0.6191,5.2121,9.351,48.8159,-0.1698,-0.091,-0.1818,-177.8887
16:45:50:456,-0.389,4.8221,9.9881,48.7935,0.0132,0.0164,-0.0998,-177.791
16:45:50:478,-0.147,4.7171,10.0001,48.7386,0.3197,0.2271,0.0342,-177.791
16:45:50:495,0.06,4.949,9.33,48.62,0.6794,0.4229,0.1481,-177.791
16:45:50:518,0.2231,5.1911,8.19,48.7037,0.9263,0.4048,0.1683,-177.791
16:45:50:535,0.374,5.4491,6.9,48.3954,0.9125,0.2175,0.0917,-177.791
16:45:50:556,0.422,5.715,6.0431,48.0518,0.5635,0.0217,-0.0818,-177.791
16:45:50:575,0.089,5.772,6.1031,47.9436,0.0089,0.0069,-0.2691,-177.791
16:45:50:595,-0.873,5.8751,7.101,47.9889,-0.4583,0.2676,-0.3158,-177.791
16:45:50:615,-1.703,5.8541,8.372,48.1204,-0.6456,0.4676,-0.184,-177.791
16:45:50:636,-1.782,5.622,9.311,48.3545,-0.6231,0.3345,-0.0329,-177.6973
16:45:50:653,-1.4711,5.27,9.902,48.4138,-0.5519,0.1282,-0.0019,-177.5928
16:45:50:675,-1.337,4.7501,10.4261,48.2864,-0.4509,0.077,-0.0275,-177.4875
16:45:50:693,-1.383,4.278,10.685,48.2761,-0.2326,0.1877,0.0087,-177.3843
16:45:50:713,-1.56,4.14,10.082,48.1587,0.1196,0.4463,0.0747,-177.2846
16:45:50:734,-1.9211,4.2161,8.801,47.9493,0.3846,0.6656,0.1301,-177.1854
16:45:50:755,-2.3261,4.4171,7.5101,47.8385,0.408,0.6762,0.1418,-177.0812
16:45:50:777,-2.7761,4.604,6.711,47.7847,0.2729,0.5943,0.1481,-176.9641
16:45:50:795,-2.91,4.475,6.5771,47.7747,0.0473,0.3345,0.1534,-176.83
16:45:50:814,-2.867,4.3001,6.828,47.7538,-0.2326,-0.0124,0.1748,-176.6848
16:45:50:837,-2.3831,3.996,7.491,47.6881,-0.5998,-0.3678,0.2141,-176.5412
16:45:50:856,-1.644,3.6251,9.045,47.5892,-0.9734,-0.5679,0.2194,-176.4192
16:45:50:876,-1.167,3.1241,10.5461,47.3394,-1.0425,-0.3305,0.1757,-176.4192
16:45:50:894,-1.593,3.1271,10.917,47.3357,-0.7796,0.1409,0.245,-176.4192
16:45:50:914,-2.3381,3.924,10.379,47.5023,-0.3411,0.5644,0.6057,-176.4192
16:45:50:944,-1.0691,4.889,8.715,47.542,0.6496,0.2782,1.0527,-176.4192
16:45:50:961,-0.197,5.418,7.295,47.5426,0.8316,-0.1209,0.9016,-176.4192
16:45:50:981,0.312,5.736,6.167,47.4643,0.7198,-0.2742,0.5919,-176.4192
16:45:51:000,0.2471,5.792,5.9591,47.2812,0.407,-0.2178,0.2428,-176.5194
16:45:51:020,-0.185,5.528,6.624,47.2383,0.0846,-0.0901,-0.0179,-176.6464
16:45:51:044,-0.573,5.2121,7.704,47.281,-0.1028,-0.0038,-0.1339,-176.7824
16:45:51:059,-0.7511,5.016,8.846,47.1971,-0.1262,-0.0591,-0.1595,-176.9116
16:45:51:080,-0.734,4.808,9.56,47.1539,-0.0155,-0.1411,-0.1562,-177.0292
16:45:51:099,-0.741,4.733,9.792,47.2502,0.109,-0.238,-0.1402,-177.1374
16:45:51:119,-0.698,4.781,9.632,47.0014,0.125,-0.338,-0.1328,-177.2381
16:45:51:141,-0.8201,5.025,9.507,47.0013,0.0111,-0.3934,-0.1265,-177.3311
16:45:51:159,-0.71,5.147,9.521,46.819,-0.1006,-0.3827,-0.0881,-177.3311
16:45:51:179,-0.528,5.1521,9.296,46.6728,-0.254,-0.4529,-0.1254,-177.3311
16:45:51:198,-0.53,4.9751,9.368,46.6868,-0.5349,-0.4987,-0.2212,-177.3311
16:45:51:218,-0.626,4.362,10.2131,46.5598,-0.7924,-0.455,-0.2489,-177.3311
16:45:51:238,-0.719,3.816,11.276,46.6286,-0.7648,-0.2912,-0.118,-177.3311
16:45:51:257,-0.6161,3.5981,11.454,46.7134,-0.3092,-0.0272,0.1332,-177.3311
16:45:51:277,-0.1211,3.876,10.2161,46.838,0.3378,0.1356,0.3939,-177.3311
16:45:51:299,1.073,3.716,8.7,46.898,0.7762,-0.0698,0.3301,-177.3311
16:45:51:318,1.5971,3.8501,7.043,46.907,0.6826,-0.5488,-0.0349,-177.3311
16:45:51:339,1.659,3.5411,6.4331,46.7575,0.2846,-0.6051,-0.4159,-177.4395
16:45:51:356,1.224,3.237,6.7901,46.4938,-0.1347,-0.388,-0.6874,-177.5626
16:45:51:376,0.4121,3.177,7.316,46.2117,-0.4168,-0.0582,-0.8427,-177.6815
16:45:51:396,-0.71,3.314,7.697,45.9514,-0.4625,0.2186,-0.8639,-177.7733
16:45:51:416,-1.7351,3.6251,7.5491,45.9489,-0.2975,0.3271,-0.7745,-177.7733
16:45:51:451,-2.3621,4.065,7.031,45.7593,-0.1092,0.1877,-0.6288,-177.7733
16:45:51:457,-2.6321,4.626,6.4541,45.6693,-0.0368,-0.0656,-0.4745,-177.7733
16:45:51:476,-2.522,5.03,6.261,45.5379,-0.1134,-0.2497,-0.3031,-177.6691
16:45:51:498,-2.058,5.219,6.656,45.2924,-0.2464,-0.2475,-0.135,-177.5308
16:45:51:517,-1.4831,5.4011,7.4,45.3244,-0.3114,-0.089,-0.0019,-177.3742
16:45:51:537,-0.93,5.351,8.13,45.4278,-0.2731,0.0749,0.0459,-177.218
16:45:51:556,-0.5951,5.238,8.664,45.4816,-0.157,0.0972,-0.0008,-177.077
16:45:51:576,-0.516,5.112,8.904,45.4014,-0.0283,0.0558,-0.0807,-176.9576
16:45:51:595,-0.717,5.0111,9.0311,45.1385,0.0813,0.1282,-0.1189,-176.8563
16:45:51:615,-1.1021,5.04,9.038,45.0362,0.1888,0.2824,-0.0828,-176.764
16:45:51:636,-1.3661,5.258,8.909,44.8208,0.225,0.3783,0.0034,-176.6725
16:45:51:655,-1.287,5.4641,8.921,44.8466,0.1143,0.3569,0.0481,-176.5776
16:45:51:677,-1.071,5.54,9.1721,44.8793,-0.1337,0.308,-0.0253,-176.4815
16:45:51:696,-1.526,5.571,9.708,44.6507,-0.421,0.392,-0.168,-176.391
16:45:51:714,-2.46,5.466,10.5941,44.5456,-0.6359,0.4719,-0.1935,-176.391
16:45:51:736,-2.817,5.1431,11.628,44.3716,-0.7158,0.4144,-0.0403,-176.2977
16:45:51:757,-2.285,4.58,12.423,44.334,-0.5699,0.3931,0.179,-176.1953
16:45:51:776,-1.464,4.0721,12.447,44.3912,-0.1922,0.4367,0.2992,-176.0966
16:45:51:797,-1.296,3.903,11.418,44.6051,0.2314,0.425,0.2599,-176.0966
16:45:51:816,-1.7471,3.9071,9.9071,44.6882,0.507,0.3421,0.1928,-176.0966
16:45:51:835,-2.1731,3.8021,8.432,44.6998,0.59,0.2229,0.1726,-176.0966
16:45:51:854,-2.417,3.582,7.352,44.5438,0.5027,0.0931,0.1651,-176.0966
16:45:51:875,-2.5631,3.275,6.797,44.3122,0.2995,-0.0092,0.1534,-176.0966
16:45:51:895,-2.822,3.1481,6.797,44.0986,0.044,-0.1592,0.1588,-176.0966
16:45:51:934,-2.819,3.0311,7.1921,44.0651,-0.2699,-0.3433,0.2002,-176.0019
16:45:51:936,-2.426,2.7011,8.1161,44.2156,-0.5977,-0.4933,0.2491,-175.8989
16:45:51:965,-1.8401,2.363,9.512,44.2412,-0.7839,-0.5041,0.3492,-175.8011
16:45:51:974,-1.16,2.181,10.6751,44.3341,-0.6988,-0.4444,0.4663,-175.8011
16:45:51:995,-0.794,2.385,10.4381,44.2862,-0.4689,-0.3858,0.6377,-175.8011
16:45:52:016,-0.578,2.6891,8.724,44.3139,-0.2784,-0.1655,0.8048,-175.8011
16:45:52:034,-0.533,3.1631,7.5581,44.4997,-0.0272,0.4283,0.9027,-175.8011
16:45:52:055,-0.581,3.783,7.568,44.6935,0.2974,0.8507,0.858,-175.8011
16:45:52:075,-0.7241,4.434,7.4501,44.6004,0.4687,0.5006,0.6685,-175.8011
16:45:52:095,-0.6,4.635,6.7061,44.4671,0.491,0.0004,0.4705,-175.9147
16:45:52:115,-0.657,4.76,6.38,44.3198,0.3697,-0.2369,0.2822,-176.041
16:45:52:135,-0.66,4.685,6.56,44.1258,0.109,-0.287,0.162,-176.1739
16:45:52:159,-0.564,4.5371,7.218,44.3082,-0.1794,-0.1581,0.0747,-176.3067
16:45:52:176,-0.695,4.547,8.4799,44.4507,-0.3721,-0.0155,0.0151,-176.4388
16:45:52:195,-0.516,4.508,10.067,44.4478,-0.4071,-0.089,-0.0626,-176.5699
16:45:52:216,-0.1331,4.3721,11.463,44.5078,-0.3295,-0.2912,-0.1764,-176.6994
16:45:52:236,0.0071,4.391,12.608,44.4478,-0.2262,-0.439,-0.2819,-176.8284
16:45:52:256,0.0671,4.365,12.9281,44.4692,-0.0986,-0.3422,-0.3297,-176.9549
16:45:52:276,0.161,4.202,12.435,44.4659,-0.0007,-0.1262,-0.3724,-177.0735
16:45:52:296,-0.095,4.211,11.774,44.408,-0.0624,-0.0901,-0.466,-177.181
16:45:52:318,-0.581,4.0991,11.559,44.3586,-0.188,-0.1103,-0.5426,-177.2746
16:45:52:333,-1.215,3.776,11.856,43.965,-0.1442,-0.0858,-0.4755,-177.2746
16:45:52:354,-1.433,3.6101,11.7431,43.8242,0.1856,-0.007,-0.2329,-177.2746
16:45:52:375,-0.593,3.393,10.953,43.6692,0.6571,0.0036,-0.0093,-177.2746
16:45:52:394,0.498,3.237,9.758,43.739,1.0029,-0.2996,-0.0466,-177.2746
16:45:52:418,0.9911,2.9951,8.406,43.9007,1.07,-0.6956,-0.2882,-177.2746
16:45:52:436,1.118,2.519,7.2401,43.8845,0.8816,-0.7307,-0.5116,-177.2746
16:45:52:463,0.7781,2.2841,6.612,43.9793,0.5624,-0.4433,-0.6479,-177.2746
16:45:52:474,0.024,2.358,6.356,43.793,0.2739,-0.106,-0.7011,-177.2746
16:45:52:495,-0.7361,2.559,6.299,43.5469,0.109,0.1259,-0.6905,-177.2746
16:45:52:515,-1.43,2.9231,6.2051,43.442,0.0835,0.1015,-0.6522,-177.2746
16:45:52:534,-2.058,3.323,5.858,43.4268,0.109,-0.0964,-0.5841,-177.1818
16:45:52:557,-2.3951,3.689,5.4251,43.4431,0.0536,-0.2816,-0.4436,-177.0431
16:45:52:574,-2.391,4.0151,5.348,43.5061,-0.0996,-0.3465,-0.2541,-176.8604
16:45:52:596,-2.1341,4.3121,5.724,43.5542,-0.2922,-0.2582,-0.0605,-176.6429
16:45:52:619,-1.689,4.649,6.581,43.4259,-0.439,-0.1358,0.0906,-176.4056
16:45:52:635,-0.6191,4.6781,7.901,43.4492,-0.4668,-0.122,0.1503,-176.1672
16:45:52:654,0.465,4.733,9.146,43.3926,-0.3816,-0.0986,0.0406,-175.9466
16:45:52:675,0.5801,4.853,10.173,43.4243,-0.19,0.0069,-0.1775,-175.7615
16:45:52:694,-0.365,4.989,10.505,43.4131,0.0994,0.1962,-0.2414,-175.6113
16:45:52:717,-1.0001,5.277,10.053,43.2977,0.3963,0.341,-0.0839,-175.4771
16:45:52:735,-0.873,5.897,9.083,43.1251,0.5846,0.4676,0.0396,-175.3419
16:45:52:756,-0.341,6.519,7.865,42.9226,0.5166,0.4378,-0.0084,-175.2052
16:45:52:776,-0.095,6.591,7.3451,42.8208,0.0972,0.4602,-0.2116,-175.0733
16:45:52:795,-0.8651,6.335,7.6901,42.7332,-0.4711,0.7411,-0.3883,-174.9494
16:45:52:815,-2.225,5.9621,9.339,42.784,-0.935,1.1392,-0.3713,-174.8259
16:45:52:834,-2.912,5.4011,11.4581,42.8026,-1.0659,1.1199,-0.1541,-174.6842
16:45:52:857,-2.501,4.796,13.007,42.7239,-0.836,0.7997,0.0661,-174.5209
16:45:52:875,-1.7201,4.13,13.242,42.6724,-0.2964,0.6176,0.1842,-174.355
16:45:52:895,-1.3871,3.747,11.966,42.7232,0.3143,0.5943,0.1588,-174.2026
16:45:52:916,-1.79,3.747,9.797,42.6256,0.6731,0.5857,0.0534,-174.0661
16:45:52:935,-2.3951,3.668,7.896,42.4935,0.6688,0.4762,-0.0498,-173.9351
16:45:52:957,-3.032,3.558,6.948,42.3301,0.4229,0.3516,-0.1063,-173.7924
16:45:52:975,-3.542,3.3851,6.9071,42.1935,0.1282,0.2569,-0.087,-173.6245
16:45:52:996,-3.806,3.213,7.494,42.1395,-0.1145,0.0505,0.0001,-173.4262
16:45:53:016,-3.47,2.8631,8.363,42.0929,-0.3029,-0.2848,0.1279,-173.2041
16:45:53:035,-2.505,2.4641,9.4301,42.0574,-0.4742,-0.6157,0.2482,-172.9732
16:45:53:057,-1.44,2.052,10.307,42.0093,-0.5072,-0.5178,0.378,-172.7542
16:45:53:075,-0.882,1.901,10.683,41.9592,-0.2762,-0.0528,0.4833,-172.5654
16:45:53:095,-0.827,2.3801,10.154,41.9647,0.1632,0.3006,0.5803,-172.4155
16:45:53:119,-0.6791,3.1391,8.664,41.8358,0.5879,0.2409,0.6313,-172.3016
16:45:53:137,-0.281,3.8951,6.902,41.5511,0.8273,-0.0708,0.5834,-172.3016
16:45:53:156,-0.1181,4.6211,5.2721,41.3587,0.8581,-0.287,0.4375,-172.3016
16:45:53:175,-0.3671,5.234,4.233,41.094,0.6453,-0.3348,0.2194,-172.3016
16:45:53:197,-0.693,5.411,4.041,40.8992,0.2314,-0.3433,-0.0008,-172.3016
16:45:53:216,-1.203,5.396,4.922,40.8981,-0.19,-0.3784,-0.1764,-172.3016
16:45:53:236,-1.835,5.109,6.32,40.9958,-0.4796,-0.521,-0.2893,-172.209
16:45:53:254,-2.177,4.673,7.661,41.1809,-0.6146,-0.7147,-0.2893,-172.0775
16:45:53:278,-2.3261,4.664,8.9591,41.2965,-0.6328,-0.9808,-0.2318,-171.9173
16:45:53:296,-1.8041,4.9541,10.4891,41.2633,-0.62,-1.3746,-0.1977,-171.743
16:45:53:317,-0.2171,4.638,12.234,41.0192,-0.5827,-1.5342,-0.2691,-171.5738
16:45:53:336,0.651,4.515,13.4891,40.7745,-0.4242,-1.2415,-0.4458,-171.4212
16:45:53:355,0.4361,4.8311,13.481,40.7648,-0.1528,-0.4965,-0.5904,-171.2749
16:45:53:373,-0.3791,5.037,12.677,40.8261,-0.0708,0.1622,-0.6299,-171.1207
16:45:53:397,-1.1381,5.049,12.2441,40.7381,-0.2603,0.3176,-0.5893,-170.9498
16:45:53:413,-1.419,4.41,12.617,40.7163,-0.3284,0.2036,-0.5033,-170.7621
16:45:53:434,-1.7201,3.687,13.074,40.6978,0.0195,0.0249,-0.3223,-170.5642
16:45:53:455,-1.826,3.321,12.227,40.6949,0.7593,0.0153,-0.0115,-170.3632
16:45:53:476,-1.466,3.1991,10.1441,40.747,1.4425,0.0323,0.2386,-170.1672
16:45:53:495,-1.031,3.29,7.7381,40.7711,1.6435,-0.1986,0.3567,-169.9806
16:45:53:516,-0.3551,3.4091,6.251,40.5321,1.3563,-0.4583,0.3854,-169.806
16:45:53:536,0.551,3.2921,5.9591,40.4587,0.8837,-0.5445,0.3035,-169.6526
16:45:53:556,1.238,3.1871,6.2561,40.3648,0.4485,-0.536,0.08,-169.5296
16:45:53:574,1.274,3.11,6.531,40.3206,0.094,-0.4103,-0.219,-169.4296
16:45:53:594,0.3761,3.096,6.6701,40.3524,-0.0784,-0.0762,-0.4361,-169.3272
16:45:53:617,-0.995,3.381,6.45,40.3753,-0.0528,0.2898,-0.4745,-169.1925
16:45:53:637,-2.118,3.8351,6.033,40.4715,0.0388,0.4378,-0.3798,-169.009
16:45:53:655,-2.903,4.508,5.595,40.4347,0.0846,0.3208,-0.2244,-168.7782
16:45:53:675,-3.231,5.0801,5.403,40.2995,0.0377,0.0718,0.0098,-168.5115
16:45:53:694,-2.766,5.394,5.5421,40.1069,-0.0773,-0.1145,0.2875,-168.2278
16:45:53:716,-1.821,5.607,6.141,39.8169,-0.1911,-0.1687,0.4929,-167.9547
16:45:53:738,-0.765,5.571,7.022,39.9072,-0.2347,-0.1273,0.5397,-167.7181
16:45:53:757,0.216,5.2001,7.977,40.0098,-0.1453,-0.0582,0.4577,-167.5319
16:45:53:777,0.7451,5.0231,8.5331,40.2143,0.0855,0.0473,0.312,-167.3975
16:45:53:797,0.644,5.2151,8.504,40.6139,0.3399,0.1728,0.1577,-167.3024
16:45:53:815,0.402,5.442,8.2811,40.6271,0.4751,0.2537,0.0279,-167.3024
16:45:53:838,-0.063,5.7461,8.0801,40.6652,0.4495,0.3633,-0.0455,-167.3024
16:45:53:857,-0.5591,6.009,7.767,40.6548,0.2431,0.6102,-0.0329,-167.3024
16:45:53:876,-0.923,6.3641,7.68,40.5946,-0.157,0.9199,0.0385,-167.2108
16:45:53:897,-1.359,6.6821,8.1709,40.6344,-0.5944,1.2434,0.0769,-167.113
16:45:53:914,-1.694,6.572,8.93,40.6928,-0.9691,1.2562,0.0342,-167.0132
16:45:53:936,-2.201,6.4361,10.122,40.8882,-1.1883,1.0083,0.014,-166.913
16:45:53:953,-2.355,5.933,11.396,40.8445,-1.0989,0.6634,0.0843,-166.8156
16:45:53:980,-2.094,4.9421,11.2481,40.894,-0.3613,0.1293,0.2567,-166.8156
16:45:53:996,-1.964,4.4291,10.4531,40.913,-0.1018,0.0483,0.3194,-166.8156
16:45:54:017,-2.0411,3.924,9.62,40.9152,0.125,0.1398,0.3674,-166.8156
16:45:54:038,-2.4071,3.7181,8.7461,41.0765,0.2867,0.2175,0.3928,-166.8156
16:45:54:057,-2.831,3.7781,8.1521,41.1919,0.3186,0.109,0.4355,-166.8156
16:45:54:078,-2.853,3.783,7.9511,41.4021,0.1942,-0.223,0.5089,-166.8156
16:45:54:097,-2.1971,3.642,8.37,41.4238,-0.1134,-0.6434,0.5951,-166.8156
16:45:54:118,-0.7031,3.227,9.3491,41.4072,-0.4742,-0.836,0.6133,-166.8156
16:45:54:137,0.879,2.7461,10.608,41.3461,-0.6105,-0.553,0.5004,-166.8156
16:45:54:157,1.3031,2.669,11.48,41.4962,-0.3732,-0.0378,0.3003,-166.8156
16:45:54:177,0.5561,2.777,11.319,41.6413,0.1185,0.3303,0.1503,-166.8156
16:45:54:198,-0.245,2.7461,9.9401,41.583,0.623,0.3996,0.1885,-166.8156
16:45:54:216,-0.4151,2.964,8.154,41.5548,0.956,0.2505,0.296,-166.8156
16:45:54:237,-0.26,3.215,6.459,41.3634,1.0912,0.1015,0.3333,-166.8156
16:45:54:255,-0.0131,3.479,5.006,41.2909,0.9944,-0.0049,0.2833,-166.8156
16:45:54:278,0.06,3.833,4.1681,41.4745,0.6816,-0.0751,0.162,-166.8156
16:45:54:298,-0.1901,4.178,4.101,41.6624,0.2739,-0.1337,0.0225,-166.8156
16:45:54:315,-0.554,4.4,4.673,41.8495,-0.106,-0.1687,-0.0403,-166.8156
16:45:54:335,-0.8681,4.805,5.798,41.8334,-0.3901,-0.2262,-0.0115,-166.8156
16:45:54:355,-0.9491,5.327,7.1681,42.0653,-0.5455,-0.3454,0.0896,-166.8156
16:45:54:375,-0.4301,5.645,8.8219,42.1619,-0.587,-0.5636,0.2087,-166.8156
16:45:54:394,0.599,5.9351,10.3211,42.2936,-0.5391,-0.8073,0.2439,-166.8156
16:45:54:416,1.422,6.357,11.214,42.4934,-0.47,-0.8519,0.1002,-166.8156
16:45:54:436,1.533,6.5171,11.5661,42.6353,-0.4433,-0.5987,-0.1914,-166.8156
16:45:54:454,0.635,6.4931,11.7791,42.877,-0.4561,-0.3369,-0.4957,-166.8156
16:45:54:485,-0.525,6.1961,11.748,42.8605,-0.587,-0.2751,-0.6863,-166.8156
16:45:54:499,-1.4741,5.3921,12.624,43.0046,-0.7286,-0.2944,-0.6586,-166.8156
16:45:54:516,-1.8611,4.4321,13.707,43.0998,-0.4837,-0.2071,-0.4213,-166.8156
16:45:54:536,-1.6631,3.953,13.3091,43.1276,0.1526,-0.0081,-0.1382,-166.8156
16:45:54:555,-1.158,3.725,11.315,43.1833,0.7156,0.0718,0.0066,-166.8156
16:45:54:576,-0.573,3.594,9.0431,43.2586,0.8614,-0.0261,0.0066,-166.8156
16:45:54:597,-0.1421,3.534,7.671,43.2978,0.6293,-0.1422,-0.1148,-166.8156
16:45:54:615,0.0221,3.146,7.319,43.2785,0.2229,-0.1837,-0.2743,-166.8156
16:45:54:635,0.3161,2.456,7.6991,43.2793,-0.1379,-0.1198,-0.367,-166.8156
16:45:54:656,0.479,1.9991,7.836,43.3594,-0.238,0.11,-0.4074,-166.8156
16:45:54:676,0.221,1.961,7.266,43.3276,-0.056,0.4687,-0.4298,-166.8156
16:45:54:696,-0.372,2.42,6.047,43.3518,0.2409,0.7103,-0.4436,-166.8156
16:45:54:716,-1.007,2.9861,4.587,43.4261,0.4283,0.6464,-0.4957,-166.8156
16:45:54:734,-1.6511,3.5771,3.273,43.4829,0.3666,0.3953,-0.5361,-166.7237
16:45:54:756,-2.1731,4.1951,2.6021,43.3763,0.0505,0.1675,-0.5085,-166.6052
16:45:54:775,-2.414,4.829,3.05,43.1885,-0.4157,0.0132,-0.402,-166.4502
16:45:54:795,-2.2541,5.078,4.443,43.1738,-0.8275,-0.0176,-0.2808,-166.2576
16:45:54:816,-2.0771,5.234,6.2531,43.1476,-1.0605,0.0366,-0.1393,-166.0414
16:45:54:835,-1.337,4.8701,8.181,43.2168,-1.1265,0.0813,0.0194,-165.8232
16:45:54:856,-0.806,4.977,9.864,43.4691,-0.9936,0.2144,0.1225,-165.625
16:45:54:874,-1.143,5.729,10.9481,43.6379,-0.7424,0.457,0.1768,-165.4664
16:45:54:894,-1.727,6.215,11.688,43.7804,-0.569,0.5581,0.2918,-165.347
16:45:54:915,-1.514,6.179,12.5741,43.8611,-0.5423,0.4443,0.4206,-165.2529
16:45:54:937,-0.8921,6.1481,13.5341,44.039,-0.5306,0.3601,0.3823,-165.2529
16:45:54:957,-0.5351,5.736,14.4821,44.1848,-0.4615,0.1814,0.1119,-165.2529
16:45:54:975,-0.8921,4.8101,14.669,44.2088,-0.3189,-0.1092,-0.2062,-165.2529
16:45:54:995,-1.749,3.9821,14.097,44.2105,-0.1453,-0.1783,-0.2925,-165.2529
16:45:55:014,-2.225,3.3881,13.2041,43.9989,0.0972,-0.0591,-0.1148,-165.2529
16:45:55:036,-2.3141,3.1841,11.7101,43.9714,0.4389,0.1856,0.1321,-165.2529
16:45:55:056,-2.177,3.239,9.749,43.93,0.7847,0.4091,0.2992,-165.2529
16:45:55:075,-2.106,3.3971,7.644,43.8241,0.9232,0.3835,0.3077,-165.2529
16:45:55:096,-2.4461,3.5,6.261,43.6891,0.7901,0.1441,0.23,-165.2529
16:45:55:115,-2.819,3.2231,5.652,43.4651,0.507,-0.091,0.1842,-165.1573
16:45:55:136,-3.099,3.0311,5.753,43.3331,0.1611,-0.1911,0.23,-165.043
16:45:55:157,-3.1061,2.921,6.5411,43.3216,-0.1932,-0.2837,0.3268,-164.9061
16:45:55:176,-2.477,2.4131,7.862,43.304,-0.4945,-0.4444,0.4258,-164.7555
16:45:55:196,-1.596,1.829,9.3281,43.3288,-0.6339,-0.5317,0.4887,-164.6107
16:45:55:215,-0.954,1.4921,10.388,43.3645,-0.5136,-0.4008,0.5345,-164.4937
16:45:55:237,-0.693,1.506,10.6751,43.2423,-0.1114,-0.0869,0.5994,-164.4937
16:45:55:260,-0.803,2.013,9.725,43.1482,0.4432,0.2186,0.6845,-164.4937
16:45:55:275,-0.858,2.588,7.9841,43.1401,0.8581,0.2729,0.7505,-164.4937
16:45:55:297,-0.8561,3.242,6.3161,42.943,1.0083,0.1228,0.7568,-164.4937
16:45:55:314,-0.7151,3.893,5.2601,42.8857,0.9061,-0.0741,0.7089,-164.4937
16:45:55:336,-0.2411,4.274,4.8671,42.8601,0.6645,-0.1763,0.594,-164.4937
16:45:55:356,0.1751,4.659,5.016,42.5436,0.3473,-0.1954,0.3748,-164.4937
16:45:55:375,0.0791,5.009,5.6981,42.3248,0.0291,-0.1453,0.0928,-164.5879
16:45:55:396,-0.432,5.159,6.6461,42.1757,-0.2241,-0.0869,-0.1297,-164.7041
16:45:55:415,-0.87,5.226,7.838,42.227,-0.4273,-0.1518,-0.235,-164.8247
16:45:55:437,-0.806,5.061,8.954,42.6122,-0.6775,-0.4423,-0.2808,-164.9322
16:45:55:458,-0.377,4.647,10.1651,43.0132,-1.0755,-0.7041,-0.3052,-165.023
16:45:55:477,0.1751,3.924,12.023,43.3341,-1.3436,-0.5317,-0.318,-165.023
16:45:55:501,0.2351,3.335,13.3691,43.339,-1.2235,-0.1145,-0.3818,-165.023
16:45:55:515,-0.5089,3.321,13.211,43.3141,-0.9489,0.0931,-0.4245,-165.1143
16:45:55:537,-0.995,3.314,12.653,43.3299,-0.8999,-0.1273,-0.3648,-165.1143
16:45:55:556,-0.741,2.8991,13.256,43.1895,-0.9393,-0.3806,-0.2372,-165.1143
16:45:55:576,-0.3941,2.353,14.2601,43.1384,-0.6445,-0.2742,-0.0818,-165.1143
16:45:55:597,-0.197,1.985,14.226,43.057,0.0058,0.0675,0.1077,-165.1143
16:45:55:617,0.3911,1.712,12.924,42.933,0.6688,0.1367,0.2855,-165.1143
16:45:55:638,1.274,1.554,10.7951,42.8138,1.0274,-0.0879,0.3174,-165.1143
16:45:55:654,1.913,1.664,8.892,42.7501,1.1008,-0.1294,0.1705,-165.2211
16:45:55:675,1.688,2.016,7.302,42.5802,1.0328,0.0058,-0.1137,-165.344
16:45:55:697,0.843,2.3651,5.909,42.4573,0.8294,0.0898,-0.4042,-165.478
16:45:55:715,-0.3,2.679,5.2001,42.386,0.5527,0.1259,-0.5926,-165.6088
16:45:55:737,-1.349,2.8781,5.277,42.2668,0.3506,0.0781,-0.6128,-165.7165
16:45:55:755,-2.007,3.098,5.447,42.0694,0.2601,-0.0836,-0.4999,-165.7165
16:45:55:775,-2.103,3.414,5.399,41.956,0.1601,-0.2827,-0.3297,-165.7165
16:45:55:797,-1.754,3.7301,5.444,41.9007,-0.0337,-0.3699,-0.1754,-165.7165
16:45:55:817,-1.131,3.9431,5.928,41.8332,-0.3103,-0.3007,-0.0733,-165.7165
16:45:55:838,-0.456,4.0511,6.921,41.8604,-0.554,-0.1209,-0.019,-165.7165
16:45:55:855,0.0431,4.053,8.054,41.8085,-0.6381,0.092,-0.0296,-165.7165
16:45:55:876,0.192,4.0841,9.0641,41.8914,-0.5328,0.225,-0.0616,-165.7165
16:45:55:897,0.0071,4.281,9.653,41.9282,-0.2347,0.2186,-0.0668,-165.7165
16:45:55:919,-0.188,4.685,9.296,41.838,0.0994,0.1133,-0.0253,-165.7165
16:45:55:954,-0.336,5.25,8.454,41.8697,0.2388,0.0685,0.0331,-165.7165
16:45:55:956,-0.513,5.8541,7.9031,41.8581,0.1856,0.1792,0.0609,-165.7165
16:45:55:975,-0.681,6.318,8.0201,41.8513,-0.0081,0.2516,0.0151,-165.7165
16:45:56:007,-0.717,6.0191,10.235,41.9586,-0.5243,-0.0389,-0.2446,-165.7165
16:45:56:028,-0.983,5.861,11.801,42.1194,-0.6945,0.0121,-0.3755,-165.7165
16:45:56:044,-1.55,5.238,13.41,42.0611,-0.7466,0.0696,-0.434,-165.7165
16:45:56:062,-1.529,3.8831,14.415,41.9943,-0.6658,0.1037,-0.3393,-165.7165
16:45:56:083,-1.143,2.696,14.8271,41.8678,-0.3795,0.2463,-0.1243,-165.7165
16:45:56:103,-1.1771,2.181,14.276,41.8331,0.225,0.4932,0.131,-165.7165
16:45:56:124,-1.3991,2.353,12.2171,41.9158,0.9423,0.6006,0.3174,-165.7165
16:45:56:142,-1.3421,2.586,9.306,42.0584,1.271,0.3772,0.3684,-165.7165
16:45:56:162,-1.2341,2.7581,7.139,42.0388,1.0891,0.0888,0.3311,-165.7165
16:45:56:182,-1.304,2.859,6.3641,41.9964,0.6975,-0.0133,0.2695,-165.7165
16:45:56:201,-1.4741,2.921,6.392,41.7864,0.3208,0.0271,0.2237,-165.7165
16:45:56:223,-1.505,2.9831,6.8951,41.3401,-0.0485,-0.0187,0.195,-165.6176
16:45:56:241,-1.44,2.8511,7.9961,41.1999,-0.3613,-0.1305,0.2035,-165.5144
16:45:56:261,-1.172,2.555,9.404,40.9051,-0.4433,-0.221,0.2727,-165.4125
16:45:56:281,-0.779,2.361,10.2161,40.7834,-0.2443,-0.1592,0.3535,-165.3208
16:45:56:301,-0.542,2.468,10.1201,40.7029,0.1293,0.0451,0.4206,-165.3208
16:45:56:324,-0.765,2.966,9.086,40.6253,0.4857,0.1834,0.4738,-165.3208
16:45:56:340,-1.0039,3.4121,7.652,40.5231,0.6603,0.159,0.5259,-165.3208
16:45:56:360,-0.918,3.723,6.488,40.335,0.6187,0.0525,0.5738,-165.3208
16:45:56:381,-0.533,3.9431,5.8871,40.263,0.4304,0.0004,0.5525,-165.3208
16:45:56:401,-0.3101,4.1899,5.997,40.1117,0.2058,0.0632,0.4451,-165.3208
16:45:56:422,-0.248,4.221,7.079,40.0172,0.0931,0.0505,0.2907,-165.3208
16:45:56:444,-0.533,4.302,7.652,40.1584,0.158,-0.0613,0.1353,-165.3208
16:45:56:460,-1.0211,4.4561,7.9151,40.2378,0.1601,-0.223,0.0641,-165.3208
16:45:56:479,-1.263,4.712,8.36,40.2977,0.0855,-0.3284,0.1045,-165.3208
16:45:56:510,-0.801,4.7291,8.861,40.2813,-0.0773,-0.3689,0.18,-165.3208
16:45:56:519,0.1991,4.587,9.8591,40.0869,-0.3422,-0.4305,0.2024,-165.3208
16:45:56:543,1.025,4.578,11.1521,40.0158,-0.4625,-0.3528,0.096,-165.3208
16:45:56:558,1.1471,4.647,11.8871,39.8777,-0.3231,-0.1858,-0.1126,-165.3208
16:45:56:579,0.644,4.7861,11.391,39.6325,-0.1411,-0.1496,-0.2967,-165.4278
16:45:56:598,0.242,4.767,10.455,39.3094,-0.1772,-0.2199,-0.4074,-165.5399
16:45:56:619,0.1421,4.1951,10.386,39.0784,-0.4199,-0.2657,-0.4957,-165.6446
16:45:56:638,-0.1931,3.4601,11.118,39.0468,-0.5306,-0.0602,-0.5149,-165.7356
16:45:56:659,-0.782,2.93,11.573,39.0497,-0.3593,0.2281,-0.4223,-165.7356
16:45:56:677,-1.011,2.399,11.3291,39.0407,-0.0953,0.1547,-0.2159,-165.7356
16:45:56:698,-0.545,2.1401,10.4531,38.9218,0.1015,-0.0294,0.0448,-165.7356
16:45:56:719,0.398,2.246,9.5861,38.7079,0.1749,-0.0847,0.2002,-165.7356
16:45:56:742,1.2551,2.3651,8.906,38.5341,0.1484,-0.089,0.1673,-165.7356
16:45:56:757,1.5041,2.579,8.3149,38.557,0.1185,0.0143,0.0246,-165.7356
16:45:56:779,1.1059,2.8181,7.553,38.5677,0.1782,0.2824,-0.1243,-165.7356
16:45:56:796,0.402,3.141,6.5621,38.5339,0.3123,0.5305,-0.2318,-165.7356
16:45:56:817,-0.176,3.563,5.466,38.4444,0.4048,0.5538,-0.3138,-165.7356
16:45:56:840,-0.516,4.005,4.5131,38.1596,0.3484,0.3761,-0.418,-165.7356
16:45:56:856,-0.729,4.3841,3.981,37.9627,0.1239,0.158,-0.5426,-165.7356
16:45:56:876,-0.899,4.563,4.0991,37.8695,-0.2529,0.01,-0.6692,-165.7356
16:45:56:898,-1.2461,4.626,5.111,37.803,-0.6402,-0.0241,-0.7437,-165.7356
16:45:56:917,-1.6991,4.535,6.861,37.6868,-0.917,-0.0389,-0.7128,-165.7356
16:45:56:937,-1.9121,4.101,8.9321,37.5017,-0.935,0.0047,-0.5372,-165.7356
16:45:56:956,-2.108,3.9821,10.814,37.4069,-0.6296,0.1441,-0.2626,-165.6149
16:45:56:976,-2.2181,4.4411,11.691,37.4569,-0.0975,0.2687,0.0439,-165.479
16:45:56:997,-2.046,5.114,11.408,37.6021,0.3516,0.1973,0.2673,-165.3406
16:45:57:021,-1.272,5.349,10.7381,37.5465,0.4623,-0.0676,0.3439,-165.2066
16:45:57:035,-0.4181,5.478,10.613,37.3277,0.2388,-0.2326,0.2375,-165.0809
16:45:57:058,-0.02,5.4131,11.279,37.1824,-0.0411,-0.0038,0.0023,-164.9703
16:45:57:075,-0.243,4.8941,11.894,36.7932,-0.2668,0.3112,-0.2637,-164.8758
16:45:57:095,-0.99,4.034,12.2681,36.6789,-0.4433,0.5687,-0.4575,-164.8758
16:45:57:118,-2.2451,3.156,12.7271,36.4475,-0.3901,0.8572,-0.4872,-164.7824
16:45:57:137,-3.638,2.643,12.4691,36.0937,0.0132,0.9093,-0.2765,-164.6721
16:45:57:158,-4.28,2.739,10.9631,35.8792,0.5081,0.6176,0.1162,-164.5398
16:45:57:175,-3.7841,2.997,8.8061,35.6068,0.7443,0.2069,0.4408,-164.3889
16:45:57:197,-2.829,3.134,7.101,35.3633,0.6049,-0.0836,0.5356,-164.228
16:45:57:217,-2.288,3.117,6.5141,35.2921,0.2569,-0.0836,0.4386,-164.0655
16:45:57:240,-2.391,2.9861,7.017,35.1846,-0.0539,-0.0176,0.3311,-163.9075
16:45:57:256,-2.549,2.804,7.676,35.1402,-0.2358,-0.0549,0.3259,-163.7544
16:45:57:277,-2.367,2.598,8.547,35.1108,-0.32,-0.2219,0.4121,-163.6049
16:45:57:297,-1.8161,2.4281,9.246,35.2238,-0.2677,-0.3359,0.5323,-163.4627
16:45:57:314,-1.1141,2.385,9.426,35.1722,-0.1006,-0.2975,0.6249,-163.3365
16:45:57:335,-0.7151,2.61,9.158,35.0507,0.1207,-0.1231,0.6452,-163.2344
16:45:57:354,-0.6401,2.942,8.561,34.9528,0.3239,-0.0219,0.6355,-163.2344
16:45:57:375,-0.815,3.3041,7.836,34.8045,0.4847,-0.0113,0.6238,-163.2344
16:45:57:396,-0.779,3.6851,7.1201,34.7099,0.5635,-0.1006,0.6133,-163.2344
16:45:57:415,-0.5711,4.082,6.6011,34.6307,0.4879,-0.2443,0.5376,-163.2344
16:45:57:435,-0.0851,4.1081,6.7421,34.5758,0.2856,-0.3539,0.3737,-163.2344
16:45:57:455,0.108,4.087,7.343,34.523,0.1122,-0.3039,0.1523,-163.2344
16:45:57:476,-0.272,4.1801,8.1971,34.2914,0.0228,-0.188,-0.0412,-163.2344
16:45:57:494,-0.813,4.3331,9.201,34.2331,0.0366,-0.1922,-0.1308,-163.2344
16:45:57:525,-0.801,4.3481,9.735,34.0826,0.0536,-0.3359,-0.1328,-163.2344
16:45:57:537,-0.2171,4.262,10.2371,33.8316,-0.089,-0.5369,-0.1308,-163.2344
16:45:57:554,0.6491,4.199,11.1041,33.6086,-0.256,-0.5445,-0.1807,-163.2344
16:45:57:576,1.2521,4.1561,11.537,33.3824,-0.2614,-0.1891,-0.3755,-163.2344
16:45:57:595,0.671,4.2881,10.7381,33.1032,-0.1741,0.2813,-0.6863,-163.2344
16:45:57:616,-0.683,4.2311,9.519,32.8122,-0.3613,0.3473,-0.9811,-163.2344
16:45:57:635,-2.118,3.345,9.773,32.725,-0.8191,0.1302,-1.0906,-163.2344
16:45:57:655,-3.138,2.353,11.2601,32.7757,-1.0158,0.1143,-0.865,-163.2344
16:45:57:675,-3.5921,1.757,12.5381,32.9284,-0.7605,0.1239,-0.3659,-163.2344
16:45:57:695,-2.987,1.611,12.564,33.0238,-0.2646,0.0015,0.3066,-163.2344
16:45:57:718,-1.1021,1.8821,11.741,32.8648,0.1953,-0.073,0.843,-163.2344
16:45:57:737,0.8411,2.3651,10.58,32.6214,0.5794,-0.0804,0.9537,-163.2344
16:45:57:757,1.839,3.017,8.894,32.3772,0.8464,-0.0474,0.6665,-163.2344
16:45:57:775,1.686,3.6131,7.017,32.2577,0.8689,-0.0346,0.1673,-163.2344
16:45:57:796,0.905,3.78,5.411,32.2085,0.6347,0.0377,-0.3073,-163.2344
16:45:57:816,-0.401,3.993,4.652,32.1698,0.2324,0.2207,-0.6214,-163.2344
16:45:57:837,-1.737,4.058,4.9871,31.9136,-0.1475,0.4272,-0.715,-163.2344
16:45:57:856,-2.697,3.9911,5.796,31.7382,-0.3444,0.5272,-0.6128,-163.2344
16:45:57:876,-3.044,3.9671,6.7661,31.6874,-0.3763,0.4038,-0.3766,-163.2344
16:45:57:901,-2.745,4.0151,7.838,31.644,-0.2784,0.1079,-0.1158,-162.9807
16:45:57:920,-2.252,4.0841,8.4701,31.7227,-0.0986,-0.0858,0.1013,-162.8364
16:45:57:970,-1.6631,4.029,8.856,31.8017,0.0866,-0.1273,0.2897,-162.7034
16:45:57:971,-0.906,4.137,9.021,31.8606,0.2707,-0.0624,0.4216,-162.5907
16:45:57:981,-0.377,4.436,8.909,31.8016,0.457,0.0803,0.4344,-162.5907
16:45:57:999,-0.3941,4.913,8.181,31.7822,0.5752,0.3176,0.3631,-162.5907
16:45:58:031,-0.6911,5.447,7.161,31.7661,0.4389,0.6677,0.2577,-162.5907
16:45:58:038,-1.1621,5.811,7.0601,31.7257,0.0558,0.8667,0.129,-162.5907
16:45:58:058,-1.4951,5.48,8.0441,31.6197,-0.4029,0.7124,0.0087,-162.5907
16:45:58:077,-1.895,5.27,9.639,31.373,-0.6732,0.573,-0.052,-162.5907
16:45:58:098,-1.986,5.0591,11.138,31.21,-0.7211,0.4559,-0.0477,-162.5907
16:45:58:117,-1.553,4.2641,12.1811,31.1456,-0.7201,0.1708,-0.1148,-162.5907
16:45:58:137,-1.373,3.4481,13.031,31.2529,-0.5944,0.1302,-0.1914,-162.5907
16:45:58:158,-1.802,2.837,13.2611,31.4659,-0.1783,0.3006,-0.1807,-162.5907
16:45:58:177,-2.51,2.715,12.026,31.4496,0.3388,0.3675,0.0012,-162.4955
16:45:58:197,-2.58,2.756,10.0631,31.1501,0.6369,0.3134,0.2652,-162.3955
16:45:58:217,-2.261,3.048,8.387,30.7468,0.7061,0.258,0.4557,-162.2966
16:45:58:238,-1.89,3.314,7.0961,30.283,0.6645,0.3186,0.4759,-162.2046
16:45:58:256,-1.8971,3.594,6.1961,30.1635,0.4899,0.2824,0.3194,-162.2046
16:45:58:276,-2.096,3.644,5.9561,30.0566,0.0909,-0.1028,0.1077,-162.2046
16:45:58:296,-1.919,3.0071,6.737,30.0615,-0.4572,-0.5775,-0.0253,-162.1062
16:45:58:318,-1.469,2.3321,8.451,30.2393,-0.9457,-0.7594,-0.0583,-162.0122
16:45:58:337,-1.023,1.712,10.6661,30.1714,-1.0479,-0.5625,0.0161,-162.0122
16:45:58:357,-1.1651,1.7501,11.6621,30.2235,-0.5317,-0.0346,0.1822,-162.0122
16:45:58:375,-1.629,2.454,10.862,30.2553,0.2122,0.2569,0.4386,-162.0122
16:45:58:396,-1.5911,3.1871,8.925,30.0914,0.7061,0.0505,0.6515,-162.0122
16:45:58:415,-1.184,3.845,7.0991,30.0485,0.8379,-0.287,0.7547,-162.0122
16:45:58:438,-0.545,4.3841,5.909,30.0211,0.7061,-0.4157,0.7047,-162.0122
16:45:58:455,0.017,4.6931,5.5421,30.0495,0.4634,-0.3604,0.4918,-162.0122
16:45:58:476,0.098,4.9151,5.664,30.0982,0.2133,-0.2742,0.1555,-162.0122
16:45:58:495,-0.506,4.985,6.32,30.0507,-0.0304,-0.2859,-0.2094,-162.0122
16:45:58:517,-1.514,4.8701,7.379,30.0014,-0.2082,-0.3912,-0.4213,-162.0122
16:45:58:539,-2.1611,4.76,8.621,29.8386,-0.3039,-0.5551,-0.4256,-162.0122
16:45:58:559,-2.031,4.568,9.7391,29.8425,-0.3593,-0.6211,-0.3329,-162.0122
16:45:58:576,-1.373,4.197,11.003,29.8229,-0.3923,-0.6274,-0.2563,-162.0122
16:45:58:596,-0.782,4.07,11.885,29.6561,-0.3391,-0.4998,-0.2637,-162.0122
16:45:58:615,-0.81,4.1561,12.251,29.5965,-0.1974,-0.2933,-0.3116,-162.0122
16:45:58:637,-1.0691,4.314,11.825,29.4035,-0.0294,-0.206,-0.3318,-162.0122
16:45:58:655,-0.9371,4.286,11.135,29.3007,-0.0113,-0.3305,-0.3191,-162.0122
16:45:58:678,-0.372,3.63,11.054,29.2291,-0.1038,-0.4509,-0.3191,-162.0122
16:45:58:697,-0.171,3.038,11.2241,29.2708,0.0206,-0.2178,-0.3191,-162.0122
16:45:58:715,-0.4391,2.789,10.7741,29.2274,0.2804,-0.1071,-0.3149,-162.0122
16:45:58:734,-0.411,2.5811,9.737,29.1738,0.3356,-0.3411,-0.2606,-162.0122
16:45:58:755,0.077,2.3801,9.2291,29.0096,0.1484,-0.4455,-0.1935,-162.0122
16:45:58:774,0.635,2.169,9.471,28.8584,-0.0474,-0.2996,-0.1616,-162.0122
16:45:58:797,0.879,2.1431,9.6701,28.7755,-0.0762,-0.0241,-0.1616,-162.0122
16:45:58:816,0.695,2.399,9.107,28.78,0.125,0.3069,-0.1946,-162.0122
16:45:58:835,0.084,2.9231,7.857,28.9219,0.4283,0.4719,-0.2606,-162.0122
16:45:58:857,-0.6521,3.551,6.2201,28.9693,0.6293,0.3794,-0.3318,-162.0122
16:45:58:877,-1.325,4.271,4.874,29.0171,0.5911,0.1259,-0.4074,-162.0122
16:45:58:897,-1.842,4.8461,4.13,28.8241,0.3356,-0.0975,-0.4543,-162.0122
16:45:58:915,-2.1011,5.1521,4.199,28.5952,-0.0698,-0.2017,-0.4606,-161.9062
16:45:58:935,-2.175,5.1041,5.2571,28.6424,-0.47,-0.1891,-0.4256,-161.7701
16:45:58:954,-2.1101,4.805,7.065,28.5829,-0.7221,-0.2028,-0.3479,-161.6133
16:45:58:975,-2.01,4.487,9.102,28.8258,-0.7019,-0.2315,-0.2148,-161.4497
16:45:58:995,-1.529,4.226,10.7711,29.0328,-0.3849,-0.2071,-0.0594,-161.2924
16:45:59:014,-0.918,4.25,11.48,29.1331,0.1154,-0.0666,0.0491,-161.1506
16:45:59:045,-0.657,4.6091,10.874,29.2043,0.5804,0.127,0.0502,-161.0268
16:45:59:054,-1.0091,5.255,9.615,29.0906,0.773,0.2377,0.0109,-160.9145
16:45:59:075,-1.2581,5.66,8.621,28.8577,0.6241,0.2133,-0.0307,-160.8026
16:45:59:095,-1.442,5.957,8.346,28.6911,0.2229,0.2399,-0.0785,-160.6851
16:45:59:116,-1.536,5.921,9.17,28.5941,-0.254,0.2963,-0.1382,-160.5603
16:45:59:136,-1.433,5.205,10.505,28.4785,-0.6626,0.2676,-0.2116,-160.4311
16:45:59:156,-1.56,4.199,12.009,28.4499,-0.8393,0.3378,-0.2254,-160.3006
16:45:59:175,-1.916,3.287,13.22,28.3756,-0.5647,0.4687,-0.0945,-160.1719
16:45:59:194,-2.4581,2.933,12.636,28.3791,0.1143,0.5485,0.1662,-160.0477
16:45:59:219,-2.69,3.191,10.2881,28.5025,0.7156,0.4793,0.4471,-159.9267
16:45:59:234,-2.4461,3.474,7.709,28.408,0.888,0.2654,0.5695,-159.8098
16:45:59:258,-2.163,3.6341,5.8751,28.3215,0.6421,0.0653,0.544,-159.6971
16:45:59:277,-2.039,3.725,5.3201,28.2758,0.1611,-0.0102,0.4471,-159.5894
16:45:59:294,-2.0051,3.644,5.9921,28.0573,-0.3689,-0.1092,0.3524,-159.489
16:45:59:316,-1.6241,3.014,7.379,27.9768,-0.8191,-0.272,0.3024,-159.489
16:45:59:336,-0.9041,2.33,9.11,27.9131,-1.0926,-0.338,0.2855,-159.489
16:45:59:355,-0.384,1.9631,10.6181,28.0677,-1.018,-0.1305,0.2599,-159.489
16:45:59:377,-0.573,2.1281,11.0111,28.1144,-0.5955,0.2569,0.2524,-159.489
16:45:59:396,-1.332,2.5931,10.343,28.2507,-0.0964,0.3877,0.3301,-159.489
16:45:59:415,-1.6961,2.997,9.095,28.3489,0.3197,0.2261,0.5109,-159.489
16:45:59:435,-1.445,3.515,7.8191,28.2804,0.5507,-0.0432,0.677,-159.489
16:45:59:456,-0.8891,4.022,6.962,28.3227,0.5804,-0.2688,0.7303,-159.489
16:45:59:478,-0.087,4.365,6.6221,28.3711,0.457,-0.3487,0.6344,-159.6098
16:45:59:495,0.575,4.482,6.8381,28.2605,0.2729,-0.2762,0.3759,-159.7653
16:45:59:516,0.501,4.491,7.319,28.1576,0.1515,-0.1603,0.0279,-159.948
16:45:59:536,-0.3461,4.523,7.752,28.0212,0.0525,-0.1698,-0.2617,-160.1355
16:45:59:560,-1.7351,4.1201,9.107,27.7701,-0.2284,-0.2762,-0.3659,-160.3022
16:45:59:578,-1.907,3.845,9.7991,27.7,-0.3656,-0.106,-0.2925,-160.4355
16:45:59:596,-2.1941,3.723,10.455,27.7602,-0.4509,0.0111,-0.2244,-160.5395
16:45:59:617,-2.493,3.558,10.8671,27.9047,-0.4753,-0.0144,-0.1371,-160.5395
16:45:59:637,-2.6921,3.5891,10.941,28.1214,-0.4316,-0.0454,0.0289,-160.5395
16:45:59:657,-2.295,3.7091,10.886,28.3237,-0.3795,-0.1518,0.212,-160.5395
16:45:59:676,-1.289,3.258,10.8791,28.4456,-0.4476,-0.3741,0.2588,-160.5395
16:45:59:697,-0.561,2.6021,11.4371,28.5044,-0.5264,-0.3497,0.2428,-160.6452
16:45:59:715,-0.4871,2.231,12.287,28.5515,-0.3497,-0.0921,0.2982,-160.7754
16:45:59:736,-0.236,2.016,12.378,28.6564,0.0558,-0.0326,0.4418,-160.9283
16:45:59:757,0.5201,2.102,11.142,28.6774,0.4452,-0.0474,0.5578,-161.0992
16:45:59:776,1.415,2.423,9.521,28.5535,0.5954,-0.0176,0.5131,-161.2886
16:45:59:797,2.007,2.799,8.1521,28.536,0.4964,0.0015,0.2652,-161.5
16:45:59:818,1.9061,3.0911,7.175,28.6111,0.2644,0.0846,-0.1084,-161.7353
16:45:59:836,0.963,3.2081,6.6101,28.7948,0.0483,0.2186,-0.434,-161.9886
16:45:59:857,-0.327,3.416,6.2051,29.0283,-0.0656,0.3538,-0.5724,-162.2427
16:45:59:877,-1.32,3.747,5.933,29.1883,-0.1114,0.3835,-0.5361,-162.4758
16:45:59:901,-1.8611,4.013,5.76,29.165,-0.1826,0.2186,-0.4478,-162.67
16:45:59:916,-2.12,4.13,6.002,29.125,-0.3454,-0.0485,-0.3223,-162.8224
16:45:59:935,-2.0291,4.1231,6.744,29.0813,-0.5369,-0.2338,-0.1339,-162.9385
16:45:59:977,-1.4471,3.9821,7.934,29.1159,-0.67,-0.2464,0.0693,-163.0291
16:45:59:980,-0.593,3.6851,9.371,29.1971,-0.62,-0.1528,0.2035,-163.0291
16:45:59:994,0.0911,3.6371,10.419,29.1134,-0.3061,0.0004,0.2354,-163.1248
16:46:00:019,0.297,3.8711,10.604,29.2895,0.1675,0.11,0.1885,-163.2427
16:46:00:034,0.11,4.247,9.708,29.4897,0.5559,0.0516,0.1119,-163.3825
16:46:00:056,-0.231,4.8221,8.5181,29.5417,0.6507,-0.0549,0.0342,-163.5368
16:46:00:076,-0.2411,5.0921,7.874,29.6391,0.4038,-0.0432,-0.054,-163.6952
16:46:00:096,0.0341,4.7501,8.4611,29.5289,-0.0539,0.0664,-0.1786,-163.8479
16:46:00:118,-0.341,4.592,10.151,29.4245,-0.4381,0.2644,-0.3031,-163.9931
16:46:00:135,-0.846,4.508,11.82,29.5759,-0.5742,0.4165,-0.3659,-164.129
16:46:00:153,-0.9851,3.8711,12.521,29.7121,-0.6391,0.3101,-0.451,-164.2483
16:46:00:175,-1.409,2.9231,13.0271,29.8126,-0.6647,0.2995,-0.4883,-164.3518
16:46:00:196,-2.067,2.255,13.508,29.7753,-0.3636,0.4676,-0.2999,-164.3518
16:46:00:216,-2.477,2.294,12.576,29.6124,0.2889,0.5837,0.0246,-164.3518
16:46:00:235,-2.379,2.717,10.142,29.5754,0.8359,0.4762,0.263,-164.3518
16:46:00:254,-1.998,2.9621,7.7471,29.8065,0.9657,0.1792,0.3237,-164.3518
16:46:00:274,-1.7081,3.1511,6.2051,30.1054,0.7178,-0.0666,0.2408,-164.3518
16:46:00:295,-1.811,3.189,5.961,30.3202,0.2622,-0.1507,0.1088,-164.3518
16:46:00:316,-1.8851,2.861,6.8471,30.4656,-0.2188,-0.2412,0.0534,-164.3518
16:46:00:335,-1.337,2.195,8.1851,30.4661,-0.6456,-0.4019,0.0331,-164.3518
16:46:00:354,-0.602,1.451,10.005,30.2768,-0.9457,-0.4498,0.0161,-164.3518
16:46:00:373,-0.128,0.96,11.6861,30.2756,-0.8115,-0.188,0.0225,-164.3518
16:46:00:394,-0.545,1.226,11.9111,30.2554,-0.2295,0.242,0.0938,-164.4522
16:46:00:420,-1.2251,1.961,10.4501,30.2205,0.3846,0.3154,0.2545,-164.5623
16:46:00:441,-1.3181,2.511,8.444,30.4043,0.7411,0.0835,0.4184,-164.6763
16:46:00:458,-1.0691,3.11,6.773,30.5515,0.8273,-0.172,0.5248,-164.7936
16:46:00:474,-0.504,3.642,5.684,30.5833,0.6677,-0.3092,0.5228,-164.9162
16:46:00:495,0.1151,4.0151,5.3561,30.8202,0.3655,-0.2762,0.3695,-165.0491
16:46:00:514,0.45,4.142,5.8541,31.0351,0.0462,-0.1891,0.0928,-165.1985
16:46:00:537,0.101,4.056,6.921,31.1181,-0.1624,-0.188,-0.2116,-165.3651
16:46:00:577,-1.7801,3.9671,9.0401,31.3434,-0.1666,-0.2848,-0.3372,-165.6926
16:46:00:594,-2.132,4.199,9.486,31.394,-0.1071,-0.289,-0.1701,-165.8158
16:46:00:609,-1.529,4.1471,9.984,31.391,-0.2295,-0.3274,-0.052,-165.908
16:46:00:629,-0.983,3.845,11.573,31.4229,-0.4401,-0.3678,-0.0392,-165.908
16:46:00:649,-0.6881,3.476,13.4531,31.5113,-0.4763,-0.206,-0.0733,-165.908
16:46:00:670,-0.899,3.2801,14.367,31.6257,-0.223,0.1282,-0.0945,-165.908
16:46:00:690,-1.4471,3.4121,13.5101,31.9162,0.1515,0.2952,-0.0776,-166.0023
16:46:00:714,-1.6481,3.462,11.784,32.4001,0.3101,0.1302,-0.0349,-166.0981
16:46:00:728,-1.488,3.1871,10.563,32.6286,0.2005,-0.1496,-0.0179,-166.191
16:46:00:748,-1.335,2.801,10.3571,32.7204,0.0962,-0.157,0.0322,-166.191
16:46:00:768,-1.1411,2.526,10.3121,32.984,0.1856,-0.0485,0.1066,-166.2812
16:46:00:790,-0.753,2.265,9.5741,33.0646,0.3006,-0.1134,0.1609,-166.3729
16:46:00:808,-0.2261,2.198,8.585,33.2505,0.2633,-0.2634,0.1694,-166.4698
16:46:00:829,0.146,2.291,8.154,33.4428,0.0579,-0.3838,0.1088,-166.5754
16:46:00:848,0.17,2.21,8.499,33.518,-0.1794,-0.4316,0.0417,-166.6916
16:46:00:869,0.189,1.9991,8.7941,33.5806,-0.2614,-0.2315,0.0769,-166.815
16:46:00:890,-0.02,2.2841,8.916,33.8171,-0.0443,0.1207,0.1768,-166.9408
16:46:00:908,-0.324,3.0791,8.111,34.0205,0.3953,0.3442,0.2386,-167.0681
16:46:00:927,-0.351,3.843,6.447,34.252,0.6953,0.2696,0.1961,-167.1969
16:46:00:946,-0.305,4.451,4.7741,34.56,0.6453,0.0419,0.0364,-167.3267
16:46:00:967,-0.408,4.8821,3.8141,34.9451,0.2399,-0.1262,-0.1871,-167.4567
16:46:00:988,-0.765,4.7621,4.391,35.4197,-0.3391,-0.0847,-0.3223,-167.5827
16:46:01:010,-1.0091,4.314,6.3161,35.7264,-0.7381,0.0558,-0.2989,-167.694
16:46:01:026,-1.023,3.965,8.5331,35.8224,-0.7946,0.1441,-0.1371,-167.694
16:46:01:046,-0.638,3.689,10.206,35.9555,-0.5082,0.1717,0.0502,-167.694
16:46:01:067,-0.0041,3.651,10.817,36.2408,-0.0485,0.2027,0.1928,-167.694
16:46:01:088,0.4601,4.041,10.3121,36.4212,0.3303,0.2813,0.2035,-167.694
16:46:01:111,0.398,4.793,9.3491,36.6047,0.4059,0.3336,0.131,-167.7977
16:46:01:126,0.683,4.973,9.05,36.7578,0.1228,0.2526,0.0087,-167.9198
16:46:01:145,1.025,4.6541,10.103,36.8879,-0.3231,0.1185,-0.1935,-168.0533
16:46:01:164,0.699,4.3691,11.664,36.8021,-0.5818,0.2548,-0.3829,-168.1958
16:46:01:188,-0.066,3.912,12.8111,36.8415,-0.5935,0.4719,-0.5075,-168.3367
16:46:01:209,-1.1621,3.4691,13.1441,36.9122,-0.4348,0.5954,-0.532,-168.4615
16:46:01:224,-2.012,2.895,12.6701,36.7669,-0.1145,0.6208,-0.3946,-168.5583
16:46:01:246,-2.4581,2.579,11.358,36.998,0.3325,0.5197,-0.184,-168.5583
16:46:01:264,-2.75,2.8781,9.2891,37.2785,0.705,0.3442,-0.0338,-168.5583
16:46:01:286,-2.8361,3.093,7.29,37.4702,0.7667,0.1293,0.0364,-168.5583
16:46:01:307,-2.798,3.0791,6.129,37.6433,0.5123,-0.122,0.0566,-168.5583
16:46:01:323,-2.771,2.997,6.0071,37.8065,0.0877,-0.2901,0.0726,-168.5583
16:46:01:344,-2.64,2.7701,6.866,37.9947,-0.2773,-0.2816,0.1108,-168.5583
16:46:01:363,-2.3981,2.499,8.042,38.2844,-0.4753,-0.2497,0.1598,-168.5583
16:46:01:386,-1.9121,2.085,9.1481,38.5635,-0.5551,-0.3295,0.197,-168.5583
16:46:01:408,-1.296,1.65,10.043,38.8961,-0.5519,-0.4338,0.2173,-168.5583
16:46:01:429,-0.813,1.398,10.644,39.106,-0.47,-0.3816,0.2163,-168.5583
16:46:01:446,-0.9521,1.47,10.872,39.1509,-0.2188,-0.1049,0.245,-168.5583
16:46:01:462,-1.505,1.92,10.271,39.3119,0.1899,0.1293,0.3865,-168.5583
16:46:01:483,-1.658,2.49,8.8219,39.5265,0.5389,0.1143,0.5823,-168.5583
16:46:01:504,-1.3181,3.069,7.278,39.8213,0.6879,0.0004,0.7154,-168.5583
16:46:01:522,-0.743,3.6221,6.11,40.0126,0.5666,-0.1123,0.7314,-168.5583
16:46:01:543,-0.1061,4.0391,5.7791,40.0696,0.242,-0.1528,0.5983,-168.5583
16:46:01:574,0.383,3.993,6.392,40.091,-0.0943,-0.1316,0.3333,-168.6715
16:46:01:587,0.201,3.788,7.589,40.2411,-0.2955,-0.139,0.0342,-168.8088
16:46:01:605,-0.6431,3.56,8.616,40.4964,-0.3699,-0.1783,-0.1414,-168.963
16:46:01:628,-1.49,3.3881,9.524,40.872,-0.4965,-0.2326,-0.1211,-169.1137
16:46:01:642,-1.6241,3.3251,11.078,41.112,-0.7679,-0.3901,-0.0062,-169.2449
16:46:01:661,-0.911,2.976,13.1921,41.1626,-0.8317,-0.3636,0.1023,-169.3573
16:46:01:681,-0.329,3.048,14.351,41.4363,-0.455,-0.1049,0.1258,-169.4644
16:46:01:703,-0.2861,3.527,13.7621,41.6964,0.0888,0.0366,0.0938,-169.5794
16:46:01:724,-0.449,3.977,11.774,42.1188,0.4463,0.0015,0.0448,-169.7035
16:46:01:740,-0.425,4.151,9.9281,42.5314,0.4687,-0.155,-0.0349,-169.8323
16:46:01:760,0.039,3.5651,9.119,42.8538,0.2101,-0.3487,-0.1605,-169.9615
16:46:01:780,0.455,2.6411,9.581,43.0435,-0.0368,-0.3092,-0.3063,-170.0882
16:46:01:803,0.165,2.09,10.403,43.2434,-0.0656,-0.1891,-0.3946,-170.2124
16:46:01:821,0.027,1.451,10.8221,43.479,-0.0337,-0.3348,-0.3616,-170.3286
16:46:01:841,0.4241,0.95,11.025,43.77,-0.0283,-0.4657,-0.2296,-170.4306
16:46:01:859,0.9,0.9071,11.195,43.9525,0.0473,-0.3029,-0.103,-170.5209
16:46:01:879,1.097,1.2401,11.025,44.1436,0.2676,-0.0368,-0.0466,-170.5209
16:46:01:899,0.9821,1.82,9.8141,44.2095,0.5559,0.0983,-0.0637,-170.5209
16:46:01:924,0.719,2.4041,7.9871,44.124,0.7241,0.1387,-0.1445,-170.5209
16:46:01:939,0.2321,2.993,6.3011,44.2612,0.7241,0.1675,-0.2754,-170.5209
16:46:01:958,-0.4901,3.579,5.061,44.4496,0.573,0.1601,-0.4085,-170.5209
16:46:01:982,-1.241,3.989,4.3721,44.525,0.3186,0.109,-0.4851,-170.5209
16:46:01:998,-1.9001,4.314,4.2521,44.4722,0.0069,0.0388,-0.4712,-170.5209
16:46:02:021,-2.328,4.4771,4.8701,44.4777,-0.3157,-0.0474,-0.351,-170.5209
16:46:02:038,-1.9931,4.3571,6.0551,44.4515,-0.554,-0.1188,-0.1733,-170.5209
16:46:02:057,-1.301,4.235,7.412,44.6252,-0.6285,-0.0921,-0.036,-170.5209
16:46:02:083,-0.4991,4.02,8.786,44.8864,-0.52,-0.0016,0.0214,-170.5209
16:46:02:102,0.0431,3.914,9.8111,45.1331,-0.2262,0.076,-0.0136,-170.5209
16:46:02:119,0,4.1081,9.8951,45.3703,0.0824,0.1547,-0.0956,-170.5209
16:46:02:141,-0.6041,4.614,9.627,45.6661,0.1717,0.1994,-0.1339,-170.5209
16:46:02:157,-0.8561,4.7261,9.656,46.0225,0.0238,0.225,-0.118,-170.5209
16:46:02:178,-0.741,4.626,10.3931,46.3087,-0.2145,0.275,-0.0956,-170.5209
16:46:02:198,-0.8201,4.664,11.418,46.4309,-0.3508,0.3996,-0.0924,-170.5209
16:46:02:216,-0.786,4.326,12.294,46.8035,-0.4179,0.4005,-0.102,-170.5209
16:46:02:238,-0.59,3.452,12.878,47.2644,-0.4753,0.2952,-0.1712,-170.5209
16:46:02:258,-0.858,2.459,13.335,47.5057,-0.3699,0.3835,-0.2318,-170.5209
16:46:02:277,-1.7441,1.937,13.197,47.872,0.0366,0.4825,-0.1977,-170.5209
16:46:02:298,-2.64,2.006,11.834,47.9781,0.5336,0.3219,0.0151,-170.5209
16:46:02:316,-2.604,2.325,9.833,47.8468,0.8103,0.0058,0.2844,-170.5209
16:46:02:336,-1.871,2.598,8.054,47.7532,0.7752,-0.2369,0.4227,-170.5209
16:46:02:357,-1.126,2.634,6.866,47.5931,0.524,-0.2188,0.3598,-170.5209
16:46:02:377,-1.098,2.646,6.5861,47.5878,0.1942,-0.1496,0.1833,-170.5209
16:46:02:398,-1.565,2.598,6.9791,47.6206,-0.1379,-0.2816,0.0715,-170.5209
16:46:02:416,-1.689,2.2391,7.6991,47.6872,-0.4231,-0.4476,0.098,-170.5209
16:46:02:438,-1.419,1.8911,8.456,47.8076,-0.6179,-0.4199,0.2152,-170.5209
16:46:02:456,-1.0001,1.731,9.383,47.8832,-0.6828,-0.2592,0.3759,-170.5209
16:46:02:477,-0.456,1.7141,10.2251,47.9293,-0.5253,-0.0645,0.5259,-170.5209
16:46:02:495,-0.224,2.133,10.443,47.8657,-0.1283,0.0898,0.6153,-170.5209
16:46:02:517,-0.1211,2.6651,9.665,47.8224,0.3303,0.0792,0.6643,-170.5209
16:46:02:534,-0.066,3.213,8.3441,47.8773,0.6805,-0.0113,0.6813,-170.6198
16:46:02:554,0.17,3.74,6.9671,47.8259,0.8507,-0.1038,0.6429,-170.7336
16:46:02:586,0.666,4.13,5.8421,47.8823,0.804,-0.1646,0.4781,-170.8596
16:46:02:597,1.049,4.3601,5.2001,48.1909,0.5474,-0.221,0.1555,-170.9972
16:46:02:617,0.659,4.611,5.291,48.4091,0.1079,-0.2964,-0.2372,-171.1463
16:46:02:637,-0.3341,4.4891,6.615,48.4899,-0.4093,-0.3934,-0.5053,-171.2969
16:46:02:656,-0.9851,4.077,8.8511,48.6677,-0.7893,-0.439,-0.5606,-171.4203
16:46:02:677,-0.909,3.503,11.444,48.597,-0.9541,-0.4604,-0.4723,-171.4203
16:46:02:696,-0.4301,3.1391,13.587,48.5552,-0.8286,-0.3348,-0.3616,-171.4203
16:46:02:718,-0.236,3.201,14.5421,48.7998,-0.437,-0.073,-0.2914,-171.4203
16:46:02:736,-0.243,3.2921,13.8791,48.8272,-0.0688,-0.0858,-0.2765,-171.4203
16:46:02:754,-0.281,3.2801,12.806,48.7569,0.061,-0.3613,-0.2786,-171.4203
16:46:02:775,-0.1661,3.1001,12.251,48.5714,0.0366,-0.5104,-0.2414,-171.4203
16:46:02:795,0.053,2.763,12.5141,48.3983,0.0366,-0.4253,-0.1371,-171.4203
16:46:02:817,0.1271,2.6291,12.7061,48.38,0.3697,-0.0826,0.0012,-171.4203
16:46:02:836,0.3791,2.562,11.5781,48.3701,0.8539,0.0345,0.08,-171.4203
16:46:02:855,1.109,2.279,9.6,48.3139,1.0178,-0.206,0.0385,-171.4203
16:46:02:875,1.77,2.0831,8.291,48.2111,0.7815,-0.3582,-0.1328,-171.4203
16:46:02:895,1.8941,1.7171,8.2211,48.2016,0.4357,-0.2007,-0.3479,-171.4203
16:46:02:914,1.458,1.3481,8.604,48.303,0.2366,0.0675,-0.4788,-171.4203
16:46:02:940,0.719,1.25,8.468,48.4275,0.2963,0.3453,-0.4692,-171.4203
16:46:02:954,-0.032,1.6301,7.4051,48.2856,0.5431,0.5453,-0.3648,-171.4203
16:46:02:974,-0.549,2.318,5.681,47.999,0.7018,0.5186,-0.2893,-171.4203
16:46:02:996,-0.992,3,3.962,47.6925,0.5613,0.2856,-0.2711,-171.4203
16:46:03:014,-1.464,3.6251,3.0431,47.3192,0.1293,0.0366,-0.2467,-171.4203
16:46:03:037,-1.79,4.065,3.1241,47.0751,-0.4253,-0.0741,-0.1616,-171.4203
16:46:03:056,-2.036,4.412,4.082,46.8432,-0.9435,-0.0187,0.0087,-171.4203
16:46:03:077,-1.881,4.616,6.0401,46.7367,-1.2787,0.0494,0.2365,-171.322
16:46:03:097,-1.3391,4.731,8.31,46.6402,-1.2447,0.0451,0.4546,-171.2168
16:46:03:117,-0.042,4.499,10.553,46.759,-0.8562,-0.1006,0.5642,-171.2168
16:46:03:137,1.3151,4.4291,11.7671,47.0727,-0.2156,-0.1805,0.4503,-171.2168
16:46:03:156,1.92,4.64,11.6831,47.3838,0.3761,-0.1198,0.1353,-171.2168
16:46:03:175,1.8251,4.5821,10.5611,47.7294,0.5592,-0.1635,-0.2382,-171.2168
16:46:03:196,1.389,4.3001,9.921,47.5965,0.159,-0.2199,-0.5202,-171.2168
16:46:03:215,0.719,3.9101,10.764,47.4342,-0.3678,0.176,-0.6458,-171.2168
16:46:03:234,-0.6191,4.046,12.038,47.3132,-0.5892,0.8774,-0.5639,-171.2168
16:46:03:255,-1.3901,3.962,12.8831,47.0178,-0.5508,1.0561,-0.3957,-171.2168
16:46:03:276,-1.562,3.407,12.981,46.9246,-0.4731,0.7358,-0.3149,-171.2168
16:46:03:296,-1.761,2.684,13.079,46.8727,-0.2975,0.5283,-0.2105,-171.2168
16:46:03:316,-2.096,2.258,12.756,46.7794,0.1675,0.5507,0.0214,-171.2168
16:46:03:338,-2.2421,2.5211,11.202,46.693,0.7912,0.6006,0.3439,-171.2168
16:46:03:357,-1.7111,2.883,9.067,46.4301,1.1594,0.3963,0.5057,-171.2168
16:46:03:375,-1.1621,3.141,7.0001,46.1382,1.0753,-0.0102,0.4088,-171.2168
16:46:03:396,-0.978,3.2351,5.808,45.8147,0.5655,-0.3189,0.1683,-171.2168
16:46:03:414,-1.3511,3.017,5.8751,45.5988,-0.1018,-0.2784,-0.0296,-171.2168
16:46:03:437,-1.9601,2.741,7.242,45.5524,-0.6711,-0.1305,-0.0594,-171.2168
16:46:03:455,-2.1851,2.267,9.174,45.4468,-0.968,-0.1422,0.0693,-171.1245
16:46:03:476,-1.7111,1.6811,10.929,45.3994,-0.935,-0.2039,0.296,-171.0181
16:46:03:495,-0.8651,1.4201,12.002,45.3388,-0.5924,-0.1932,0.5228,-170.9131
16:46:03:515,-0.2621,1.712,11.9111,45.3697,-0.0176,-0.0368,0.6654,-170.9131
16:46:03:537,-0.1901,2.322,10.5611,45.2797,0.5687,0.0664,0.7558,-170.9131
16:46:03:563,-0.4271,3.105,8.6621,44.9569,0.9785,0.0089,0.8421,-170.9131
16:46:03:574,-0.5711,3.948,6.914,44.7206,1.1626,-0.1379,0.9058,-170.9131
16:46:03:610,-0.035,5.183,5.066,44.3658,0.7762,-0.4689,0.759,-170.9131
16:46:03:626,0.249,5.298,5.628,44.1563,0.3911,-0.5104,0.5589,-170.9131
16:46:03:647,0.185,5.279,6.8501,44.3441,0.1239,-0.454,0.3481,-170.9131
16:46:03:666,-0.1211,5.121,8.25,44.5769,-0.0113,-0.472,0.1842,-170.9131
16:46:03:686,0.0551,4.685,9.4901,44.7295,-0.1049,-0.5966,0.0843,-170.9131
16:46:03:708,0.831,4.017,10.661,44.7497,-0.2592,-0.6902,-0.0477,-170.9131
16:46:03:726,1.2071,3.479,12.0191,44.5343,-0.4179,-0.5966,-0.2276,-170.9131
16:46:03:749,0.924,3.1601,13.127,44.3307,-0.3582,-0.2273,-0.3127,-170.9131
16:46:03:767,0.381,3.266,13.125,44.084,-0.0506,0.1228,-0.2743,-170.9131
16:46:03:786,0.242,3.5411,11.669,43.8845,0.1856,0.0855,-0.252,-170.9131
16:46:03:808,0.6161,3.4211,10.067,43.7902,0.0866,-0.1539,-0.3488,-170.9131
16:46:03:826,0.7661,3.017,9.5531,43.757,-0.238,-0.1177,-0.4872,-170.9131
16:46:03:850,0.276,2.607,10.34,43.7466,-0.3625,0.3091,-0.5244,-170.9131
16:46:03:866,-0.6641,2.5331,10.946,43.6517,-0.0337,0.6677,-0.3861,-170.9131
16:46:03:885,-0.636,2.2721,10.407,43.5185,0.4367,0.4241,-0.1371,-170.9131
16:46:03:908,0.383,1.9271,8.964,43.2646,0.6124,-0.1974,0.0172,-170.9131
16:46:03:925,1.5731,1.793,7.9031,43.0568,0.4773,-0.3433,0.0406,-170.9131
16:46:03:947,2.045,1.9511,7.575,42.9658,0.2984,-0.0485,-0.0531,-170.9131
16:46:03:964,1.7291,2.514,6.993,42.7148,0.209,0.2261,-0.1914,-170.9131
16:46:04:008,1.008,3.1631,6.105,42.4911,0.0855,0.2707,-0.3425,-170.9131
16:46:04:010,0.17,3.639,5.4731,42.3823,-0.0996,0.1782,-0.466,-170.9131
16:46:04:026,-0.6521,4.02,5.3171,42.2689,-0.2699,0.0685,-0.5149,-170.9131
16:46:04:046,-1.184,4.3481,5.336,42.2813,-0.4199,-0.0124,-0.4957,-170.9131
16:46:04:063,-1.452,4.578,5.645,42.3422,-0.5955,-0.0698,-0.4458,-170.9131
16:46:04:083,-1.562,4.7291,6.5261,42.231,-0.7679,-0.1071,-0.3574,-170.9131
16:46:04:107,-1.481,4.767,7.9991,42.1531,-0.818,-0.1305,-0.2287,-170.8035
16:46:04:123,-1.1021,4.59,9.356,42.1745,-0.6775,-0.1433,-0.085,-170.6727
16:46:04:145,-0.4181,4.286,10.3571,41.9711,-0.406,-0.1698,0.0023,-170.5358
16:46:04:163,0.1151,4.1801,10.728,41.9078,-0.0368,-0.0762,0.03,-170.407
16:46:04:183,0.3911,4.199,10.367,41.8272,0.3026,0.094,0.0098,-170.2945
16:46:04:202,0.359,4.3931,9.6341,41.7418,0.506,0.2463,-0.0338,-170.1996
16:46:04:222,0.074,4.705,9.0431,41.8087,0.5709,0.3197,-0.0839,-170.1996
16:46:04:245,-0.095,4.977,8.5331,41.8483,0.4984,0.3516,-0.1137,-170.1996
16:46:04:266,0.1151,5.04,8.3531,41.8213,0.2611,0.4283,-0.1733,-170.1996
16:46:04:282,0.0941,5.1041,8.762,41.7734,-0.0198,0.5794,-0.2947,-170.1996
16:46:04:302,-0.32,5.2121,9.3161,41.7095,-0.2412,0.7294,-0.4308,-170.1996
16:46:04:322,-0.813,4.8941,9.6911,41.6281,-0.488,0.705,-0.5798,-170.1996
16:46:04:344,-1.646,4.1081,10.206,41.5056,-0.7659,0.6848,-0.6926,-170.1021
16:46:04:364,-2.7881,3.213,10.9631,41.2914,-0.8892,0.822,-0.6661,-169.9789
16:46:04:381,-3.9731,2.399,11.667,40.8913,-0.7201,0.8475,-0.4723,-169.8222
16:46:04:401,-4.914,2.011,11.576,40.5331,-0.3571,0.6208,-0.0903,-169.6338
16:46:04:420,-5.1971,1.9421,10.826,40.3848,-0.0294,0.2782,0.3928,-169.4233
16:46:04:440,-4.7681,2.0089,9.8831,40.3261,0.1293,-0.0666,0.8356,-169.2042
16:46:04:461,-3.719,2.004,8.921,40.3315,0.1111,-0.1485,1.1165,-168.9908
16:46:04:480,-2.7881,1.992,8.391,40.1635,-0.0666,-0.0176,1.1975,-168.7956
16:46:04:500,-2.223,1.908,8.49,39.9459,-0.322,0.0419,1.1623,-168.6283
16:46:04:523,-1.682,1.5371,9.2411,39.6889,-0.5412,-0.0582,1.1144,-168.4928
16:46:04:540,-1.1861,1.331,10.0601,39.5523,-0.5849,-0.1337,1.1283,-168.3898
16:46:04:562,-0.4421,1.1921,10.551,39.605,-0.4561,-0.0943,1.1996,-168.3898
16:46:04:579,0.374,1.3721,10.6781,39.5743,-0.1528,0.0228,1.2431,-168.3898
16:46:04:612,0.936,1.791,10.118,39.4324,0.2537,0.0781,1.2262,-168.3898
16:46:04:628,1.1111,2.387,8.877,39.5708,0.5963,0.0632,1.1697,-168.3898
16:46:04:643,1.197,3,7.599,39.6126,0.7252,-0.0454,1.0974,-168.3898
16:46:04:663,1.41,3.582,6.797,39.712,0.6731,-0.155,1.0112,-168.3898
16:46:04:679,1.8491,4.02,6.5141,39.8423,0.5485,-0.2188,0.8569,-168.4963
16:46:04:698,2.165,4.3361,6.395,39.7198,0.392,-0.2912,0.5823,-168.6301
16:46:04:719,2.1671,4.4201,6.4811,39.6614,0.191,-0.3539,0.213,-168.7905
16:46:04:740,1.5371,4.386,6.9071,39.4914,-0.0113,-0.371,-0.1434,-168.9699
16:46:04:761,0.537,4.412,7.656,39.3637,-0.1911,-0.388,-0.3829,-169.1504
16:46:04:778,-0.3701,4.3241,8.5781,39.3912,-0.3667,-0.4848,-0.4564,-169.308
16:46:04:798,-0.1181,3.903,9.7031,39.3556,-0.5901,-0.6594,-0.4128,-169.4225
16:46:04:820,0.8411,3.6101,11.3651,39.3984,-0.8126,-0.8243,-0.4595,-169.4225
16:46:04:837,1.5131,3.381,13.146,39.4378,-0.9105,-0.8308,-0.6416,-169.4225
16:46:04:858,1.688,2.823,14.394,39.2491,-0.7785,-0.6552,-0.8756,-169.4225
16:46:04:877,1.1711,2.3201,14.556,39.29,-0.4678,-0.439,-1.0438,-169.4225
16:46:04:897,0.5801,2.0089,13.9031,39.1295,-0.1539,-0.3741,-1.0821,-169.4225
16:46:04:917,0.11,1.781,12.845,38.87,0.0931,-0.3604,-1.0258,-169.4225
16:46:04:939,-0.315,1.7861,11.643,38.7624,0.4005,-0.0986,-0.8724,-169.4225
16:46:04:961,-0.317,1.7141,10.2641,38.4266,0.7007,0.0356,-0.7384,-169.4225
16:46:04:978,-0.123,1.484,8.7821,38.0278,0.8114,-0.1954,-0.6724,-169.4225
16:46:04:997,0.096,1.542,7.635,37.762,0.7178,-0.3539,-0.6203,-169.4225
16:46:05:016,0.41,1.6661,7.206,37.4216,0.5262,-0.2837,-0.6128,-169.4225
16:46:05:037,0.6491,1.8701,7.1921,37.0484,0.3367,-0.2039,-0.6522,-169.3274
16:46:05:056,0.8141,2.0951,7.0121,37.0098,0.2133,-0.1006,-0.7341,-169.2275
16:46:05:076,0.6131,2.5331,6.4811,37.0745,0.1452,0.0962,-0.8502,-169.1203
16:46:05:096,0.0821,3.017,5.921,37.1769,0.0877,0.258,-0.9746,-169.0016
16:46:05:117,-0.549,3.366,5.406,37.2326,0.0302,0.3091,-1.0747,-168.8635
16:46:05:135,-1.3421,3.78,4.9601,37.0619,-0.0209,0.3143,-1.1129,-168.6916
16:46:05:155,-2.058,4.163,4.6091,36.8445,-0.1528,0.2761,-1.0597,-168.479
16:46:05:178,-2.637,4.463,4.874,36.6426,-0.388,0.1409,-0.9279,-168.2198
16:46:05:196,-3.054,4.5971,5.763,36.668,-0.6157,-0.0421,-0.7182,-167.913
16:46:05:217,-3.1091,4.535,7.106,36.5465,-0.7637,-0.1772,-0.4543,-167.5632
16:46:05:238,-2.553,4.1111,8.748,36.2893,-0.7637,-0.2699,-0.1775,-167.1824
16:46:05:257,-1.572,3.8141,10.211,36.0213,-0.6094,-0.3508,0.0098,-166.7902
16:46:05:277,-0.707,3.938,11.1971,35.9189,-0.3647,-0.2486,0.0342,-166.4066
16:46:05:298,-0.399,4.214,11.633,35.8639,-0.1294,0.0143,-0.0828,-166.0452
16:46:05:317,-0.547,4.214,11.583,35.8592,-0.0421,0.1856,-0.2467,-165.7055
16:46:05:336,-0.968,4.2521,11.4341,35.7618,-0.155,0.2016,-0.3468,-165.3767
16:46:05:356,-1.38,4.4321,11.688,35.573,-0.3752,0.3271,-0.3468,-165.0483
16:46:05:375,-1.577,4.568,12.5741,35.3933,-0.5625,0.4697,-0.2967,-164.7144
16:46:05:397,-1.565,4.214,13.34,35.2644,-0.6231,0.4528,-0.2648,-164.3762
16:46:05:416,-1.8761,3.795,13.5371,35.2853,-0.5412,0.4847,-0.2403,-164.039
16:46:05:435,-2.424,3.273,13.2131,35.209,-0.3189,0.5017,-0.1595,-163.7051
16:46:05:457,-2.814,2.586,12.318,35.1697,-0.0346,0.3527,-0.0371,-163.3731
16:46:05:475,-3.255,1.887,11.2121,35.036,0.2271,0.1398,0.1216,-163.042
16:46:05:496,-3.8921,1.4561,10.161,34.8291,0.4984,-0.007,0.3843,-162.7121
16:46:05:515,-4.196,1.2881,8.916,34.4162,0.7092,-0.0421,0.7718,-162.3844
16:46:05:535,-3.837,1.3001,7.956,34.1075,0.7198,-0.0645,1.1495,-162.0643
16:46:05:555,-3.1421,1.4531,7.613,33.9057,0.5613,-0.0826,1.4135,-161.7618
16:46:05:573,-2.235,1.551,7.85,33.9086,0.3336,-0.0932,1.5412,-161.4884
16:46:05:595,-1.1621,1.638,8.351,33.9511,0.0846,-0.0784,1.5273,-161.2559
16:46:05:637,1.41,1.073,10.34,33.871,-0.454,0.0525,1.0186,-161.0735
16:46:05:654,1.41,1.065,11.5571,33.5517,-0.3721,0.4198,0.6696,-160.9483
16:46:05:676,0.5051,1.077,11.652,33.1822,0.0888,0.7305,0.4961,-160.9483
16:46:05:691,-0.212,1.2311,10.1771,33.1029,0.6379,0.7635,0.5482,-160.9483
16:46:05:710,-0.174,1.4921,8.1881,33.2137,0.9827,0.623,0.6494,-160.9483
16:46:05:731,0.189,1.899,6.5771,33.2475,1.0498,0.4559,0.6759,-160.9483
16:46:05:750,0.678,2.27,5.5301,33.0449,0.8678,0.3303,0.5877,-160.9483
16:46:05:775,1.0369,2.598,5.138,32.6656,0.54,0.3037,0.4227,-160.9483
16:46:05:792,1.0991,2.859,5.435,32.2438,0.1803,0.2898,0.2226,-161.043
16:46:05:811,0.9911,2.9351,6.086,31.8656,-0.0762,0.2357,0.0598,-161.1697
16:46:05:830,0.788,3.1751,6.617,31.7938,-0.2295,0.1239,-0.0424,-161.3188
16:46:05:852,0.575,3.5771,7.089,31.9749,-0.3305,-0.0506,-0.1297,-161.4798
16:46:05:871,0.2801,3.965,7.608,32.1197,-0.4433,-0.2784,-0.219,-161.6448
16:46:05:890,-0.023,3.993,8.4371,32.1808,-0.6105,-0.5562,-0.2808,-161.8075
16:46:05:910,0.17,3.7091,9.708,31.9318,-0.8339,-0.8467,-0.3063,-161.9618
16:46:05:929,0.7211,3.263,11.3291,31.5263,-1.1149,-0.9723,-0.384,-162.1053
16:46:05:949,0.972,2.871,13.2011,31.1196,-1.2574,-0.7371,-0.5033,-162.2416
16:46:05:972,0.5201,2.705,14.75,30.889,-1.0872,-0.4615,-0.6043,-162.3703
16:46:06:006,0.0791,2.748,15.248,30.8647,-0.7158,-0.5838,-0.6266,-162.4861
16:46:06:009,0.084,2.4371,14.6261,30.6755,-0.3647,-0.8106,-0.6746,-162.5861
16:46:06:029,-0.1901,2.315,13.697,30.3754,-0.0879,-0.7913,-0.6894,-162.5861
16:46:06:047,-0.401,1.994,12.723,30.1349,0.1717,-0.5987,-0.632,-162.5861
16:46:06:068,-0.6401,1.8461,11.442,29.8729,0.4847,-0.4828,-0.501,-162.5861
16:46:06:091,-0.5231,2.069,9.8021,29.7387,0.7209,-0.4561,-0.3553,-162.5861
16:46:06:107,0.005,2.286,8.37,29.7362,0.7624,-0.4604,-0.3149,-162.5861
16:46:06:129,0.5051,2.499,7.508,29.7491,0.6262,-0.4956,-0.4202,-162.5861
16:46:06:147,0.6161,2.5901,6.8261,29.8727,0.4548,-0.3741,-0.6192,-162.5861
16:46:06:169,0.173,2.6291,6.1361,30.0301,0.3143,-0.0847,-0.8427,-162.5861
16:46:06:189,-0.767,2.717,5.5541,29.885,0.2335,0.2069,-1.013,-162.5861
16:46:06:207,-1.811,2.784,5.1881,29.7585,0.209,0.3069,-1.0768,-162.5861
16:46:06:226,-2.7311,3.1001,4.8311,29.6056,0.1856,0.225,-1.015,-162.5861
16:46:06:247,-3.384,3.665,4.7621,29.544,0.0366,-0.0187,-0.8619,-162.5861
16:46:06:269,-3.576,4.173,5.363,29.6204,-0.2571,-0.2794,-0.6362,-162.4608
16:46:06:292,-3.1661,4.106,6.689,29.52,-0.5189,-0.3103,-0.3978,-162.2997
16:46:06:306,-2.517,3.8981,8.466,29.2438,-0.6456,-0.2071,-0.1849,-162.1236
16:46:06:326,-1.77,3.768,10.458,28.9305,-0.5369,-0.0092,-0.0594,-161.9557
16:46:06:346,-1.023,3.62,12.035,28.7487,-0.1932,0.2197,-0.0338,-161.8146
16:46:06:368,-0.7961,3.893,12.512,28.6772,0.2431,0.3911,-0.1041,-161.7075
16:46:06:391,-0.873,4.233,11.834,28.7493,0.4272,0.3996,-0.2179,-161.7075
16:46:06:407,-0.7391,4.137,11.6,28.6141,0.1515,0.2974,-0.3403,-161.7075
16:46:06:426,-0.648,3.8501,12.6701,28.3449,-0.2326,0.4346,-0.4052,-161.7075
16:46:06:445,-0.906,3.845,13.958,28.0436,-0.3561,0.8114,-0.3318,-161.7075
16:46:06:468,-1.031,3.9431,14.882,27.7598,-0.2326,0.9636,-0.135,-161.7075
16:46:06:488,-0.626,3.888,15.0071,27.5852,0.1037,0.7826,0.0609,-161.7075
16:46:06:504,-0.123,3.486,13.9481,27.6528,0.5655,0.5186,0.1332,-161.7075
16:46:06:525,-0.494,3.263,11.801,27.6984,0.9571,0.3058,0.1343,-161.7075
16:46:06:545,-1.17,3.179,9.567,27.7525,1.1221,0.2409,0.18,-161.7075
16:46:06:566,-1.73,3.065,8.114,27.8304,1.0945,0.2346,0.279,-161.7075
16:46:06:588,-2.022,2.921,7.388,27.7709,1.0018,0.1441,0.3748,-161.7075
16:46:06:605,-2.149,2.868,7.106,27.6084,0.8944,-0.0454,0.4269,-161.7075
16:46:06:635,-2.06,2.739,7.0991,27.3907,0.7593,-0.2464,0.4269,-161.7075
16:46:06:644,-1.9331,2.619,7.1921,27.4052,0.5719,-0.3943,0.4004,-161.7075
16:46:06:664,-1.488,2.423,7.5011,27.5047,0.2856,-0.4359,0.3748,-161.6087
16:46:06:688,-0.705,2.1071,8.13,27.5978,-0.023,-0.3103,0.3035,-161.5044
16:46:06:704,-0.212,2.047,9.0041,27.6105,-0.1848,-0.0102,0.1885,-161.4079
16:46:06:723,-0.3551,2.078,9.56,27.4049,-0.0411,0.3314,0.0821,-161.4079
16:46:06:742,-0.9401,2.298,9.038,27.2197,0.3123,0.5112,0.0854,-161.4079
16:46:06:764,-1.263,2.6621,7.778,27.1232,0.6219,0.4697,0.1737,-161.4079
16:46:06:788,-1.122,3.072,6.608,27.0617,0.7454,0.2388,0.2311,-161.4079
16:46:06:804,-0.7121,3.383,5.729,26.8499,0.6538,0.026,0.1918,-161.4079
16:46:06:823,-0.456,3.677,5.346,26.6828,0.3803,-0.0241,0.0726,-161.4079
16:46:06:843,-0.533,3.879,5.7191,26.6315,0.0334,0.0153,-0.0679,-161.4079
16:46:06:863,-0.803,3.8711,6.6701,26.5757,-0.2454,0.0408,-0.1627,-161.4079
16:46:06:883,-1.1141,3.989,7.673,26.739,-0.4136,0.028,-0.1871,-161.4079
16:46:06:902,-1.332,4.0961,9.0881,26.9177,-0.4817,-0.0326,-0.1647,-161.4079
16:46:06:923,-1.1141,4.092,10.6181,26.9765,-0.3901,-0.19,-0.0924,-161.4079
16:46:06:941,-0.3791,4.159,11.8271,26.8576,-0.1783,-0.3986,-0.0648,-161.4079
16:46:06:964,0.074,4.472,12.1811,26.7352,0.0972,-0.4168,-0.1317,-161.4079
16:46:06:983,0.144,4.7359,11.817,26.5964,0.3017,-0.3465,-0.2424,-161.4079
16:46:07:005,-0.008,4.877,11.1521,26.5117,0.3708,-0.3444,-0.3351,-161.4079
16:46:07:021,-0.099,4.946,10.652,26.8081,0.4027,-0.2922,-0.4106,-161.4079
16:46:07:041,-0.341,4.9271,10.029,26.9822,0.4623,-0.2614,-0.5255,-161.4079
16:46:07:060,-0.789,4.5371,8.9711,27.0744,0.4005,-0.3189,-0.6681,-161.4079
16:46:07:081,-1.493,3.996,8.274,27.0799,0.1547,-0.32,-0.7395,-161.4079
16:46:07:102,-2.2301,3.4331,8.4371,26.9074,-0.1911,-0.3124,-0.632,-161.4079
16:46:07:121,-2.3471,2.892,9.5861,26.7405,-0.4848,-0.3827,-0.3255,-161.4079
16:46:07:142,-1.8041,2.598,11.118,26.8315,-0.4498,-0.3295,0.0938,-161.3148
16:46:07:163,-0.662,2.6651,11.7821,26.9256,-0.0198,-0.172,0.4801,-161.2174
16:46:07:181,0.807,2.9711,10.704,26.8928,0.522,-0.0953,0.6355,-161.2174
16:46:07:205,1.592,3.591,8.547,26.9442,0.8911,-0.0454,0.4844,-161.2174
16:46:07:219,1.341,4.4651,6.17,26.9928,0.9859,0.0195,0.1386,-161.2174
16:46:07:239,0.474,5.138,4.187,27.0074,0.789,0.1176,-0.2584,-161.2174
16:46:07:259,-0.918,5.5661,3.1841,27.0983,0.4144,0.275,-0.5617,-161.2174
16:46:07:279,-2.307,5.823,3.378,27.1173,0.0494,0.3803,-0.6788,-161.2174
16:46:07:300,-3.365,5.973,4.271,26.8283,-0.1954,0.2984,-0.6299,-161.2174
16:46:07:320,-3.542,5.772,5.5421,26.5958,-0.3252,0.0931,-0.4703,-161.2174
16:46:07:339,-3.1691,5.5811,6.9881,26.6258,-0.3231,-0.0539,-0.3041,-161.0612
16:46:07:359,-2.5631,5.207,8.2451,26.559,-0.172,-0.0219,-0.1456,-160.8656
16:46:07:380,-2.1341,5.057,9.002,26.676,0.0888,0.1185,-0.0104,-160.6595
16:46:07:399,-1.938,5.294,9.141,26.7167,0.3655,0.3134,0.113,-160.4637
16:46:07:418,-1.823,5.76,8.6141,26.6807,0.5314,0.3868,0.1896,-160.2866
16:46:07:438,-1.634,6.242,7.908,26.7559,0.4495,0.2974,0.1842,-160.1277
16:46:07:457,-1.3871,6.479,7.704,26.7991,0.1196,0.2611,0.0704,-159.9854
16:46:07:478,-1.739,6.5891,8.2331,26.912,-0.2443,0.5038,-0.0722,-159.8603
16:46:07:497,-2.6321,6.8501,9.2891,26.7592,-0.4338,0.8082,-0.0998,-159.75
16:46:07:518,-2.618,6.503,10.1651,26.5922,-0.5497,0.5411,-0.069,-159.6434
16:46:07:537,-1.8521,5.492,10.991,26.5833,-0.7084,0.1569,-0.0881,-159.5366
16:46:07:557,-1.3181,4.2041,12.162,26.6848,-0.6902,0.1611,-0.102,-159.4431
16:46:07:577,-1.4951,3.39,12.8021,26.9139,-0.2219,0.4708,-0.0201,-159.4431
16:46:07:596,-2.0771,3.2201,11.5331,27.1768,0.5272,0.7039,0.2035,-159.4431
16:46:07:623,-2.1851,3.4721,8.837,27.368,1.0348,0.5624,0.3737,-159.4431
16:46:07:646,-2.043,3.6971,6.189,27.1785,1.0061,0.158,0.3279,-159.4431
16:46:07:658,-2.132,3.852,4.5491,27.2452,0.4506,-0.2358,0.1631,-159.4431
16:46:07:676,-2.4341,3.752,4.53,27.1764,-0.3816,-0.3092,0.0502,-159.4431
16:46:07:697,-2.649,3.419,6.222,26.8756,-1.0946,-0.0773,0.0556,-159.4431
16:46:07:718,-2.5991,3.074,8.4251,26.8217,-1.4065,0.077,0.1332,-159.4431
16:46:07:735,-2.0291,2.751,10.1321,26.8043,-1.3032,0.0356,0.2056,-159.4431
16:46:07:755,-1.821,2.861,11.085,26.8184,-0.919,-0.106,0.2386,-159.4431
16:46:07:777,-1.766,2.997,11.018,27.0635,-0.4221,-0.2518,0.3185,-159.4431
16:46:07:797,-1.67,3.318,10.0841,27.348,0.0186,-0.2731,0.4599,-159.4431
16:46:07:818,-1.344,3.627,8.8631,27.4804,0.2898,-0.1794,0.5951,-159.4431
16:46:07:836,-0.9881,3.962,7.884,27.6418,0.425,-0.0528,0.6579,-159.5502
16:46:07:856,-0.722,4.3331,7.163,27.7251,0.4847,0.0228,0.6238,-159.6802
16:46:07:875,-0.698,4.815,6.62,27.7758,0.4879,0.0525,0.4929,-159.8327
16:46:07:898,-0.825,5.1521,6.3491,27.6488,0.4261,0.0302,0.2982,-160.005
16:46:07:915,-0.968,5.109,6.411,27.5244,0.3091,-0.089,0.0789,-160.188
16:46:07:937,-1.272,4.997,7.022,27.4927,0.1473,-0.2549,-0.1211,-160.3724
16:46:07:955,-1.533,4.805,7.893,27.4683,0.0089,-0.3189,-0.2606,-160.5489
16:46:07:974,-1.7231,4.614,8.679,27.628,-0.1251,-0.3135,-0.3297,-160.7107
16:46:07:998,-1.799,4.487,9.4571,27.7387,-0.2955,-0.3241,-0.318,-160.8559
16:46:08:023,-1.8731,4.776,10.3121,27.7723,-0.4264,-0.1997,-0.2339,-160.9874
16:46:08:035,-1.952,5.145,11.126,27.7316,-0.3604,-0.0049,-0.1211,-161.1124
16:46:08:057,-1.691,5.2841,11.157,27.6145,-0.1772,-0.1273,-0.0488,-161.2382
16:46:08:075,-1.074,5.234,10.407,27.6417,-0.1114,-0.3092,-0.0722,-161.3697
16:46:08:096,-0.858,4.896,9.912,27.8165,-0.1783,-0.3402,-0.2116,-161.51
16:46:08:114,-1.04,4.211,9.837,28.2029,-0.3613,-0.455,-0.3063,-161.6588
16:46:08:135,-1.2101,3.6371,10.587,28.3848,-0.538,-0.4242,-0.2424,-161.8074
16:46:08:156,-1.17,3.275,11.727,28.5701,-0.4338,-0.2529,-0.0403,-161.9506
16:46:08:176,-0.434,2.684,12.227,28.5742,-0.0836,-0.2475,0.1907,-162.0924
16:46:08:197,0.6371,2.3411,11.568,28.3827,0.258,-0.3092,0.3524,-162.2423
16:46:08:214,1.554,2.205,10.383,28.4294,0.4676,-0.2039,0.3908,-162.4111
16:46:08:234,1.8731,2.42,8.997,28.4736,0.6006,-0.0932,0.2844,-162.6056
16:46:08:255,1.755,2.8511,7.2491,28.5992,0.6198,-0.1177,0.0704,-162.8255
16:46:08:284,1.262,3.507,5.6141,28.635,0.4676,-0.1826,-0.2222,-163.0633
16:46:08:296,0.213,4.1179,4.575,28.8555,0.1973,-0.2082,-0.5064,-163.3087
16:46:08:315,-0.992,4.508,4.178,28.9818,-0.0879,-0.19,-0.667,-163.543
16:46:08:336,-1.9961,4.724,4.3601,28.9732,-0.3476,-0.1794,-0.6957,-163.7383
16:46:08:355,-2.6081,4.803,5.0231,29.0017,-0.5647,-0.19,-0.5947,-163.8727
16:46:08:377,-2.4101,4.647,6.17,28.8721,-0.7168,-0.2295,-0.4191,-163.8727
16:46:08:395,-1.794,4.523,7.467,28.7741,-0.7381,-0.1922,-0.2797,-163.8727
16:46:08:416,-1.155,4.245,8.758,28.7846,-0.604,-0.089,-0.219,-163.8727
16:46:08:436,-0.717,4.058,9.6821,28.9267,-0.3263,0.0089,-0.2094,-163.8727
16:46:08:455,-0.662,4.0271,9.9311,29.1715,0.0206,0.0846,-0.202,-163.8727
16:46:08:477,-1.0451,4.2881,9.4331,29.392,0.3325,0.1462,-0.1328,-163.8727
16:46:08:496,-1.481,4.8341,8.5781,29.4679,0.5049,0.1654,-0.0275,-163.8727
16:46:08:515,-1.83,5.562,7.7981,29.5339,0.5081,0.1708,0.0693,-163.8727
16:46:08:536,-1.9121,6.1631,7.3001,29.5657,0.275,0.1942,0.096,-163.8727
16:46:08:556,-1.986,6.333,7.778,29.6345,-0.124,0.2474,0.0587,-163.8727
16:46:08:576,-2.091,6.1481,9.0641,29.6126,-0.4913,0.2591,0.012,-163.8727
16:46:08:595,-1.658,5.334,10.668,29.6968,-0.8573,0.0525,-0.052,-163.8727
16:46:08:615,-1.1291,4.137,12.5,29.7209,-1.1095,-0.0187,-0.151,-163.8727
16:46:08:636,-1.1891,3.213,14.085,29.7597,-0.9179,0.3112,-0.1775,-163.8727
16:46:08:661,-1.938,2.8391,14.1491,29.9361,-0.3018,0.5507,-0.0945,-163.8727
16:46:08:681,-2.774,2.9591,12.485,30.035,0.2952,0.4537,0.1523,-163.8727
16:46:08:695,-2.807,3.141,10.424,30.1228,0.6592,0.3356,0.4685,-163.8727
16:46:08:715,-2.381,3.3971,8.64,30.1258,0.7773,0.2452,0.6665,-163.8727
16:46:08:734,-1.6241,3.2201,7.151,30.0102,0.6315,0.1293,0.6643,-163.8727
16:46:08:758,-1.2461,2.9861,6.426,30.0162,0.2335,-0.023,0.477,-163.8727
16:46:08:775,-1.4951,2.7341,6.833,29.8973,-0.2837,-0.2252,0.3014,-163.8727
16:46:08:796,-1.3781,2.03,8.018,29.8258,-0.7424,-0.3858,0.2588,-163.9708
16:46:08:816,-0.9971,1.508,9.483,29.9849,-0.9797,-0.2944,0.3162,-164.078
16:46:08:837,-0.7151,1.386,10.7471,30.0359,-0.8436,-0.0027,0.4429,-164.2019
16:46:08:856,-0.609,1.865,11.135,29.9837,-0.3528,0.2537,0.5812,-164.3491
16:46:08:877,-0.6431,2.552,10.0961,30.1172,0.1919,0.2175,0.6717,-164.5207
16:46:08:896,-0.717,3.275,8.511,30.1157,0.5592,0.0792,0.7345,-164.7145
16:46:08:917,-0.636,3.893,7.0511,30.19,0.7156,-0.0517,0.7686,-164.9263
16:46:08:942,-0.245,4.343,6.047,30.6287,0.6241,-0.1592,0.7078,-165.3952
16:46:08:957,0.264,4.544,5.6501,30.9672,0.3612,-0.1698,0.5152,-165.6555
16:46:08:977,0.431,4.556,6.167,31.1813,0.0707,-0.1049,0.2311,-165.933
16:46:08:995,0.0071,4.355,7.0871,31.3291,-0.0836,-0.0549,-0.0253,-166.2184
16:46:09:017,-0.729,4.3331,7.8431,31.2561,-0.122,-0.0591,-0.1488,-166.4937
16:46:09:036,-1.3511,4.391,8.487,31.2761,-0.1166,-0.0921,-0.1562,-166.7467
16:46:09:057,-1.596,4.2881,9.0641,31.4584,-0.1028,-0.1974,-0.0776,-166.9771
16:46:09:075,-1.368,4.278,9.4399,31.484,-0.1305,-0.2827,0.0268,-167.1916
16:46:09:096,-0.7391,4.2761,10.0001,31.6273,-0.2827,-0.3784,0.0534,-167.4017
16:46:09:115,-0.3791,4.274,10.9841,31.6069,-0.4498,-0.3901,0.0012,-167.6157
16:46:09:135,-0.351,4.209,12.059,31.5338,-0.4837,-0.3519,-0.0466,-167.8331
16:46:09:167,-0.54,4.1111,12.7991,31.8266,-0.3752,-0.3827,0.0012,-168.0497
16:46:09:177,-0.363,4.0151,12.933,31.8891,-0.0708,-0.2614,0.1523,-168.2661
16:46:09:195,0.2351,3.8621,12.227,31.9833,0.2665,-0.2731,0.2183,-168.4896
16:46:09:217,1.188,3.282,10.9751,32.1271,0.341,-0.4284,0.1173,-168.7253
16:46:09:235,1.547,2.643,10.223,32.0411,0.2155,-0.2859,-0.069,-168.974
16:46:09:258,1.092,2.418,10.307,32.0285,0.1302,-0.0272,-0.1775,-169.2251
16:46:09:275,0.9461,2.1671,10.4291,32.0787,0.158,0.0323,-0.1477,-169.4674
16:46:09:295,1.482,1.9511,10.3121,32.1937,0.2707,0.0622,-0.0637,-169.7023
16:46:09:317,2.105,1.9751,9.761,32.3693,0.4899,0.1792,-0.0562,-169.9386
16:46:09:334,2.3231,2.076,8.449,32.6387,0.6901,0.1919,-0.1562,-170.1809
16:46:09:355,2.105,2.339,6.723,32.5988,0.7474,0.1259,-0.3275,-170.4275
16:46:09:374,1.4681,2.7821,4.932,32.4511,0.5921,0.1185,-0.5394,-170.6721
16:46:09:394,0.446,3.333,3.854,32.3157,0.2559,0.2036,-0.7235,-170.9001
16:46:09:414,-0.593,3.68,3.653,32.1055,-0.1092,0.3134,-0.8427,-171.0867
16:46:09:434,-1.7231,4.07,3.95,32.0829,-0.4125,0.359,-0.9043,-171.2085
16:46:09:453,-2.831,4.4321,4.7381,31.9507,-0.6359,0.2505,-0.8682,-171.2085
16:46:09:474,-3.219,4.4321,5.882,31.7983,-0.7605,0.0186,-0.7267,-171.2085
16:46:09:494,-3.1331,4.587,7.07,31.9171,-0.77,-0.1869,-0.5617,-171.2085
16:46:09:513,-2.699,4.494,8.121,32.0692,-0.7307,-0.271,-0.4382,-171.1036
16:46:09:533,-2.0749,4.1179,9.1,32.3602,-0.6467,-0.1869,-0.369,-170.994
16:46:09:554,-1.629,3.855,9.9401,32.5498,-0.4987,0.0069,-0.3638,-170.8902
16:46:09:574,-1.754,4.02,10.434,32.4597,-0.3316,0.1984,-0.3701,-170.7922
16:46:09:603,-2.1701,4.559,10.515,32.2844,-0.2284,0.2995,-0.3169,-170.6953
16:46:09:613,-2.367,5.03,10.563,32.109,-0.254,0.2824,-0.2148,-170.5985
16:46:09:633,-2.058,5.145,10.836,31.9245,-0.3816,0.209,-0.1519,-170.5063
16:46:09:654,-1.6361,4.98,11.19,31.9607,-0.5796,0.1845,-0.2105,-170.5063
16:46:09:674,-1.5911,4.221,11.829,32.0002,-0.8393,0.1973,-0.3616,-170.5063
16:46:09:694,-2.043,3.179,12.708,32.0002,-0.9808,0.2835,-0.4308,-170.5063
16:46:09:714,-2.783,2.459,13.6301,32.0263,-0.7796,0.4218,-0.3275,-170.5063
16:46:09:734,-3.377,1.9391,13.419,32.078,-0.2071,0.3963,-0.0551,-170.4149
16:46:09:755,-3.6041,1.97,11.7341,32.1007,0.3794,0.2324,0.279,-170.3222
16:46:09:773,-3.269,2.279,9.7781,32.0758,0.6688,0.0579,0.4844,-170.3222
16:46:09:794,-2.8961,2.325,8.241,32.0143,0.5804,-0.1539,0.4918,-170.3222
16:46:09:813,-2.759,1.944,7.592,31.8933,0.2314,-0.2423,0.4333,-170.3222
16:46:09:833,-2.963,1.527,7.9961,31.909,-0.0932,-0.0688,0.4355,-170.3222
16:46:09:854,-3.3551,1.3571,8.645,31.7661,-0.1922,0.1259,0.527,-170.3222
16:46:09:874,-3.542,1.319,8.853,31.6081,-0.1422,0.1282,0.7132,-170.3222
16:46:09:894,-3.011,1.257,8.894,31.4464,-0.1123,-0.0506,0.924,-170.3222
16:46:09:915,-1.988,1.238,8.973,31.3798,-0.1316,-0.1528,1.0709,-170.3222
16:46:09:934,-0.906,1.19,9.1481,31.7043,-0.1422,-0.0698,1.1315,-170.3222
16:46:09:955,-0.1541,1.3481,9.344,31.988,-0.0773,0.1154,1.1091,-170.3222
16:46:09:976,0.161,1.611,9.3491,32.1423,0.1409,0.258,1.0453,-170.4212
16:46:09:997,0.1151,2.085,8.679,32.1244,0.4485,0.1994,0.9846,-170.5535
16:46:10:035,0.074,2.667,7.4381,31.9611,0.6688,0.0525,0.9335,-170.7127
16:46:10:037,0.221,3.285,6.234,31.6695,0.6731,-0.0517,0.8643,-170.8968
16:46:10:054,0.584,3.828,5.442,31.5455,0.4708,-0.0784,0.7238,-171.107
16:46:10:076,0.893,4.245,5.289,31.6276,0.1367,-0.1166,0.4738,-171.3439
16:46:10:096,0.771,4.503,5.837,31.6451,-0.223,-0.2017,0.1396,-171.6012
16:46:10:116,0.17,4.415,7.0871,31.6351,-0.5264,-0.3806,-0.1638,-171.8595
16:46:10:137,-0.339,4.128,8.762,31.6671,-0.8137,-0.7019,-0.3446,-172.0988
16:46:10:154,-0.051,3.4691,11.0201,31.567,-1.1723,-0.9541,-0.4361,-172.3132
16:46:10:179,0,2.16,16.1921,31.4915,-0.9361,-0.3167,-0.532,-172.5081
16:46:10:197,-0.446,1.7411,16.086,31.4232,-0.3465,-0.1997,-0.5192,-172.6865
16:46:10:216,-0.375,1.413,14.2211,31.2489,-0.0793,-0.4466,-0.5096,-172.8488
16:46:10:237,-0.593,1.1681,12.9551,31.2232,-0.1805,-0.4179,-0.4797,-172.9974
16:46:10:262,-1.4981,1.4051,12.974,31.1741,-0.0708,0.1632,-0.2244,-173.1343
16:46:10:277,-1.89,1.8101,12.612,31.1264,0.4857,0.5144,0.1577,-173.2603
16:46:10:296,-1.0931,1.925,10.841,31.2005,1.0168,0.2537,0.4269,-173.3824
16:46:10:316,0.213,1.9031,8.7431,31.1268,1.1934,-0.1358,0.4865,-173.511
16:46:10:335,1.442,2.0021,7.343,31.1857,0.9816,-0.2879,0.3227,-173.6538
16:46:10:356,1.997,1.925,6.852,31.2137,0.5687,-0.2017,-0.0115,-173.8159
16:46:10:375,1.4891,1.611,6.9191,31.206,0.1962,0.0568,-0.3286,-173.9974
16:46:10:397,0.266,1.53,7.115,31.0923,0.0271,0.3942,-0.4692,-174.1857
16:46:10:415,-0.906,1.664,6.974,30.7545,0.0898,0.5783,-0.4256,-174.3609
16:46:10:435,-1.5671,1.956,6.294,30.4501,0.2229,0.5368,-0.2786,-174.5083
16:46:10:461,-1.859,2.4521,5.399,30.2932,0.2314,0.3091,-0.1382,-174.6252
16:46:10:476,-1.919,3.009,4.7591,30.2723,0.0505,0.0813,-0.0338,-174.7161
16:46:10:497,-1.737,3.452,4.91,30.6024,-0.3061,-0.0943,0.03,-174.7161
16:46:10:515,-1.481,3.606,5.8991,30.8498,-0.6541,-0.1198,0.0619,-174.7161
16:46:10:535,-1.428,3.756,7.424,31.0178,-0.8371,-0.0485,0.0938,-174.7161
16:46:10:555,-1.4231,3.807,9.074,31.1526,-0.7935,0.0249,0.1523,-174.7161
16:46:10:575,-1.22,4.01,10.247,30.9747,-0.5158,0.1217,0.23,-174.7161
16:46:10:594,-0.9641,4.503,10.7111,30.8197,-0.172,0.2218,0.2289,-174.7161
16:46:10:615,-1.11,5.009,10.508,30.6465,0.0525,0.3176,0.0769,-174.8195
16:46:10:635,-1.5311,4.968,10.182,30.7429,-0.0261,0.3325,-0.1434,-174.9327
16:46:10:655,-2.031,4.4051,10.709,30.8275,-0.4284,0.3112,-0.3286,-175.0451
16:46:10:686,-2.975,3.6851,12.3491,30.8664,-0.8254,0.4762,-0.3915,-175.1466
16:46:10:693,-4.493,2.909,14.3051,31.14,-0.9094,0.7433,-0.1871,-175.1466
16:46:10:715,-5.4461,2.3771,15.471,30.9894,-0.554,0.8911,0.3088,-175.1466
16:46:10:734,-5.3261,2.222,14.6831,30.7928,0.0366,0.8379,0.8751,-175.1466
16:46:10:754,-4.313,2.1431,12.62,30.7915,0.4326,0.4899,1.1964,-175.1466
16:46:10:774,-3.648,1.958,10.529,30.6102,0.5676,0.1856,1.2644,-175.259
16:46:10:794,-3.779,1.808,9.2081,30.6368,0.623,0.2144,1.3017,-175.3965
16:46:10:813,-4.1411,1.697,8.147,30.8968,0.7497,0.3262,1.4209,-175.5547
16:46:10:838,-4.1621,1.535,6.806,31.1272,0.7837,0.3388,1.572,-175.7289
16:46:10:854,-4.0451,1.446,5.904,31.2852,0.5974,0.1953,1.6944,-175.9169
16:46:10:874,-3.6671,1.3001,5.8751,31.3007,0.2569,-0.0804,1.7912,-176.1201
16:46:10:893,-2.735,0.95,6.5771,31.1262,-0.0953,-0.3402,1.8094,-176.3445
16:46:10:924,-1.869,0.6701,7.518,31.0964,-0.4188,-0.4051,1.7189,-176.6056
16:46:10:938,-1.3391,0.2681,8.8181,31.1922,-0.7105,-0.2475,1.603,-176.9215
16:46:10:958,-1.2251,0.038,10.6181,31.5067,-0.8009,-0.0485,1.5635,-177.3004
16:46:10:977,-0.93,-0.054,11.9831,31.7212,-0.5306,0.0898,1.6147,-177.7398
16:46:10:995,-0.449,0.1391,11.94,31.8492,0.0153,0.2474,1.6859,-178.2348
16:46:11:015,0.0671,0.591,10.419,31.912,0.5251,0.3772,1.6933,-178.7801
16:46:11:035,0.362,1.295,8.408,31.6786,0.7804,0.3783,1.6104,-179.3705
16:46:11:057,0.6131,2.097,6.689,31.6369,0.7582,0.2898,1.4517,179.999
16:46:11:075,0.9911,2.7371,5.588,31.7684,0.4559,0.1792,1.2092,179.3338
16:46:11:097,1.4201,3.129,5.447,31.8112,-0.0241,0.1302,0.876,178.6397
16:46:11:118,1.566,3.1361,6.299,31.7772,-0.4774,0.2133,0.5046,177.9227
16:46:11:137,0.917,3.041,7.8101,31.9504,-0.7221,0.2676,0.2056,177.1902
16:46:11:157,0.146,2.883,9.4301,31.9109,-0.77,0.0536,0.0736,176.455
16:46:11:174,0.1421,2.5331,10.766,31.8397,-0.6498,-0.2964,0.0587,175.7328
16:46:11:197,0.407,2.468,11.403,31.8886,-0.4828,-0.4922,0.0353,175.0283
16:46:11:216,0.414,2.471,11.729,31.652,-0.4071,-0.5125,-0.0201,174.3378
16:46:11:237,0.0191,2.6051,11.7071,31.4844,-0.3295,-0.3326,-0.0307,173.661
16:46:11:256,-0.557,3.012,10.932,31.4318,-0.3167,-0.1741,-0.0201,172.9999
16:46:11:274,-0.6041,3.072,10.031,31.4381,-0.6094,-0.3359,-0.0733,172.3566
16:46:11:297,-0.614,2.31,10.467,31.6586,-1.133,-0.4082,-0.2031,171.7329
16:46:11:315,-1.6391,1.6571,12.335,31.7679,-1.2649,-0.0571,-0.1754,171.1295
16:46:11:334,-3.0731,1.448,13.85,31.8951,-0.8297,0.0153,0.0652,170.5494
16:46:11:354,-3.774,1.13,13.893,32.0307,-0.0869,-0.2944,0.5131,169.9917
16:46:11:376,-3.4271,0.953,12.402,31.9865,0.5752,-0.6157,1.0931,169.4474
16:46:11:395,-1.833,1.329,10.695,31.9068,0.9221,-0.6647,1.5689,168.9011
16:46:11:414,0.1181,1.5851,9.143,31.6853,1.0157,-0.5275,1.6955,168.3354
16:46:11:435,1.226,2.073,7.793,31.6949,0.9167,-0.3092,1.4943,167.735
16:46:11:457,1.298,2.471,6.794,31.9184,0.7369,-0.0836,1.1155,167.095
16:46:11:475,0.558,2.624,5.9831,32.0358,0.5592,0.1037,0.7483,166.4234
16:46:11:495,-0.425,2.744,5.391,32.1819,0.3495,0.1899,0.4929,165.7359
16:46:11:516,-1.2131,2.849,5.217,32.0799,0.0781,0.1484,0.3578,165.0516
16:46:11:535,-1.7351,2.9381,5.703,31.8778,-0.2315,0.0271,0.3301,164.388
16:46:11:555,-1.782,3,6.893,31.817,-0.4817,-0.0719,0.3961,163.7536
16:46:11:585,-1.3421,2.892,8.3,31.7271,-0.5901,-0.0517,0.4631,162.5351
16:46:11:597,-0.8651,2.6531,9.641,31.8081,-0.5605,0.0803,0.4929,161.9154
16:46:11:617,-0.746,2.5331,10.893,31.7702,-0.4157,0.1825,0.4898,161.2777
16:46:11:636,-0.858,2.435,11.6501,31.7771,-0.1741,0.3644,0.544,160.6248
16:46:11:657,-1.1501,2.624,11.8991,31.9151,0.0994,0.6241,0.6898,159.9595
16:46:11:676,-1.277,2.9741,11.643,31.9457,0.2921,0.7497,0.8792,159.2833
16:46:11:700,-0.753,3.048,11.3891,32.1327,0.3134,0.674,1.0484,158.5941
16:46:11:718,-0.188,3.191,11.487,32.2543,0.2016,0.5507,1.0996,157.8868
16:46:11:737,-0.0491,3.12,11.7221,32.3556,0.043,0.6358,1.0772,157.1617
16:46:11:757,-0.497,2.808,12.191,32.5837,-0.089,0.8242,1.1389,156.4207
16:46:11:778,-0.9851,2.538,12.612,32.7383,0.0238,0.989,1.2815,155.6643
16:46:11:795,-1.356,2.246,11.8031,32.7716,0.3527,0.9721,1.3783,154.8915
16:46:11:815,-1.794,2.102,10.034,32.8327,0.573,0.7804,1.4178,154.1042
16:46:11:836,-2.297,2.1881,8.585,32.9002,0.6336,0.674,1.4283,153.3075
16:46:11:858,-2.75,2.353,7.671,32.9809,0.5889,0.5559,1.4189,152.5086
16:46:11:876,-2.9891,2.4761,6.9881,33.1178,0.425,0.3868,1.3826,151.7128
16:46:11:897,-3.1781,2.514,6.84,33.3608,0.0866,0.2761,1.3082,150.9218
16:46:11:916,-3.255,2.09,7.589,33.6227,-0.3146,0.2611,1.239,150.1327
16:46:11:936,-3.291,1.448,8.8991,34.0389,-0.6211,0.2261,1.2145,149.3347
16:46:11:957,-3.027,0.788,10.364,34.5253,-0.7659,0.1015,1.3039,148.5165
16:46:11:976,-2.529,0.347,11.6,34.9856,-0.6891,0.0601,1.4508,147.6698
16:46:11:995,-2.4911,0.335,12.641,35.4228,-0.3858,0.176,1.6252,146.7913
16:46:12:017,-2.058,0.0191,12.914,35.8517,0.127,0.3495,1.8648,145.8817
16:46:12:061,-1.086,-0.0971,12.1811,36.4196,0.6528,0.4389,2.0765,144.9394
16:46:12:063,0.024,0.2081,10.838,36.9781,0.9614,0.3516,2.1062,143.9621
16:46:12:076,1.0391,0.558,9.495,37.4328,1.0135,0.3069,1.9445,142.9521
16:46:12:096,1.7051,0.809,8.504,38.0452,0.8837,0.4102,1.6753,141.9144
16:46:12:115,1.968,1.1951,8.001,38.5436,0.6816,0.5613,1.3911,140.8563
16:46:12:136,2.0021,1.5371,7.829,38.8695,0.4964,0.6006,1.1219,139.7847
16:46:12:155,1.9301,1.755,7.731,39.194,0.3718,0.5092,0.8867,138.7059
16:46:12:175,1.961,1.884,7.5341,39.4831,0.2804,0.3697,0.6759,137.6249
16:46:12:207,1.4321,2.279,7.206,39.8828,-0.2188,0.1176,0.2237,136.5469
16:46:12:222,0.941,2.0351,8.183,40.2332,-0.5391,0.0249,0.113,135.4783
16:46:12:245,0.587,2.03,9.201,40.8092,-0.6265,0.0314,0.1066,134.4236
16:46:12:264,0.402,2.21,9.359,41.1426,-0.5647,-0.0315,0.1162,133.3857
16:46:12:286,0.575,2.3201,8.5781,41.5676,-0.6839,-0.2188,0.0576,132.3644
16:46:12:303,0.6131,2.011,8.499,42.0664,-1.1117,-0.3295,-0.1158,131.3594
16:46:12:322,-0.1811,1.65,9.864,42.4978,-1.4831,-0.1347,-0.2467,130.3794
16:46:12:341,-1.3901,1.334,11.681,42.9832,-1.4916,0.0516,-0.2062,129.4289
16:46:12:364,-2.084,1.058,13.0601,43.6322,-1.1308,-0.0517,0.03,128.5123
16:46:12:383,-1.8491,0.986,13.2251,44.1022,-0.5775,-0.2625,0.3407,127.626
16:46:12:402,-0.99,1.281,12.435,44.4992,-0.0708,-0.3891,0.594,126.7571
16:46:12:421,0.144,1.5941,10.8311,44.966,0.2144,-0.3689,0.6452,125.8914
16:46:12:441,1.166,1.602,9.225,45.2268,0.1462,-0.1922,0.4801,125.0204
16:46:12:462,1.1471,1.748,8.6021,45.578,-0.0539,0.1526,0.1757,124.1442
16:46:12:483,0.134,1.8221,8.5541,46.0772,-0.073,0.4389,-0.069,123.2697
16:46:12:501,-0.971,1.92,8.145,46.421,0.109,0.4857,-0.1382,122.4076
16:46:12:521,-1.4231,2.066,7.199,46.7323,0.2559,0.3538,-0.0998,121.5647
16:46:12:540,-1.514,2.327,6.3641,47.0565,0.1825,0.1654,-0.0562,120.7432
16:46:12:560,-1.323,2.4491,6.0041,47.3029,-0.124,0.0866,-0.0158,119.9425
16:46:12:583,-1.047,2.229,6.677,47.5672,-0.5349,0.143,0.0524,119.1612
16:46:12:600,-0.5021,1.757,8.284,47.7681,-0.8106,0.2452,0.1375,118.3937
16:46:12:620,0.089,1.3001,10.079,48.3168,-0.8115,0.3356,0.195,117.6278
16:46:12:639,0.29,1.075,11.559,48.5858,-0.487,0.3814,0.2397,116.8549
16:46:12:660,0.297,1.154,11.8871,48.8903,0.0601,0.3772,0.3396,116.0752
16:46:12:679,0.362,1.6691,10.9721,49.303,0.4697,0.2324,0.4577,115.2923
16:46:12:709,0.8171,2.138,9.864,49.6008,0.5325,0.1217,0.5461,114.5068
16:46:12:719,1.461,2.636,9.3161,50.0691,0.2984,0.1697,0.5419,113.7174
16:46:12:739,2.066,3.0191,9.6,50.6261,-0.0932,0.2729,0.3684,112.9217
16:46:12:759,1.7861,3.323,10.707,51.0537,-0.439,0.3325,0.0789,112.1199
16:46:12:778,0.719,3.443,11.8151,51.3732,-0.5647,0.3506,-0.0987,111.3183
16:46:12:801,-0.0371,3.3281,12.366,51.8037,-0.5369,0.275,-0.136,110.5265
16:46:12:818,-0.075,2.598,12.9281,52.1655,-0.5306,0.0164,-0.2074,109.7505
16:46:12:838,-0.375,1.671,13.587,52.3361,-0.4008,-0.1006,-0.3201,108.991
16:46:12:857,-1.287,0.9941,13.829,52.2844,-0.0007,-0.0241,-0.3468,108.2483
16:46:12:877,-2.276,0.543,13.206,52.1248,0.5655,-0.0304,-0.2105,107.525
16:46:12:904,-2.618,0.462,11.4611,52.193,0.987,-0.2188,0.0481,106.821
16:46:12:918,-2.1731,0.666,9.7061,52.4376,1.0231,-0.3604,0.2471,106.1314
16:46:12:937,-1.4951,0.8741,8.784,52.735,0.7965,-0.2529,0.2886,105.4484
16:46:12:956,-1.067,0.9311,8.664,53.0781,0.5516,0.0026,0.2152,104.7658
16:46:12:977,-0.9401,0.927,8.856,53.0472,0.3846,0.1026,0.0874,104.082
16:46:13:001,-1.074,0.8471,9.09,52.9847,0.2591,0.0419,-0.0232,103.4007
16:46:13:017,-1.3061,0.6101,9.498,52.6199,0.1994,-0.0049,-0.021,102.7287
16:46:13:037,-1.1741,0.452,9.723,52.2845,0.2696,0.0707,0.1204,102.0716
16:46:13:056,-0.743,0.534,9.5051,52.0706,0.4645,0.2537,0.2855,101.4305
16:46:13:076,-0.3791,0.701,8.6831,52.1721,0.6985,0.4048,0.3982,100.8014
16:46:13:097,-0.3791,1.053,7.568,52.3963,0.9039,0.4506,0.462,100.1805
16:46:13:116,-0.506,1.506,6.411,52.4176,1.0051,0.3846,0.5046,99.5662
16:46:13:137,-0.5021,1.956,5.4011,52.2323,0.9401,0.2069,0.5174,98.9589
16:46:13:157,-0.224,2.243,4.9151,51.8116,0.6496,0.01,0.4791,98.3613
16:46:13:178,-0.123,2.55,5.193,51.3446,0.2559,-0.1326,0.3726,97.7764
16:46:13:195,-0.162,2.727,6.0911,51.0641,-0.1038,-0.2432,0.2386,97.2039
16:46:13:221,-0.291,2.921,7.2731,50.9985,-0.4082,-0.3636,0.1204,96.6438
16:46:13:235,-0.267,2.8781,8.5331,50.7987,-0.6806,-0.4168,0.0183,96.0965
16:46:13:255,-0.0491,2.5451,10.395,50.6461,-0.9882,-0.4711,-0.102,95.5643
16:46:13:277,-0.207,2.2481,13.139,50.4291,-1.1606,-0.455,-0.1456,95.0494
16:46:13:297,-0.267,2.1401,15.639,50.0792,-0.853,-0.3337,-0.0115,94.5559
16:46:13:317,0.156,2.3651,15.821,49.9459,-0.1337,-0.1741,0.1928,94.0865
16:46:13:337,0.879,2.844,13.6511,49.6001,0.4048,-0.0943,0.2258,93.6376
16:46:13:357,1.518,3.6101,11.2211,49.2121,0.2898,-0.1932,-0.0338,93.2034
16:46:13:377,2.117,3.2321,10.649,48.8385,-0.4082,-0.3795,-0.534,92.7846
16:46:13:397,1.434,1.832,12.155,48.4163,-0.9148,-0.1006,-0.931,92.3898
16:46:13:416,-0.243,0.788,13.9241,48.1184,-0.7626,0.2431,-0.9694,92.0314
16:46:13:437,-1.8731,0.215,13.965,47.7936,-0.0337,0.2878,-0.5947,91.7189
16:46:13:454,-2.1941,0.1121,12.117,47.4852,0.8029,0.1856,0.1173,91.4501
16:46:13:477,-0.861,0.596,10.007,47.1769,1.302,-0.0591,0.7388,91.2092
16:46:13:495,1.2521,0.9431,8.193,46.9294,1.4414,-0.3305,0.9112,90.9724
16:46:13:515,2.552,1.3811,6.7031,46.732,1.3552,-0.3295,0.6355,90.7216
16:46:13:535,2.5961,1.733,5.528,46.5241,1.1435,-0.1561,0.1396,90.4558
16:46:13:563,1.58,1.925,4.5649,46.2838,0.8805,0.0813,-0.301,90.1867
16:46:13:574,0.3,2.1281,3.962,46.1054,0.5921,0.2357,-0.5372,89.9273
16:46:13:594,-0.528,2.2391,3.581,45.6631,0.2633,0.2739,-0.6043,89.6889
16:46:13:616,-0.837,2.306,3.5771,45.2975,-0.1316,0.2707,-0.5862,89.4872
16:46:13:636,-0.6791,2.346,4.1801,44.9837,-0.5881,0.2271,-0.5659,89.334
16:46:13:655,-0.2981,2.2151,5.66,44.57,-1.017,0.1739,-0.5904,89.2262
16:46:13:674,-0.2051,2.004,7.68,44.4436,-1.2139,0.2665,-0.6309,89.2262
16:46:13:695,-0.71,1.992,9.591,44.2803,-1.0724,0.4537,-0.5969,89.2262
16:46:13:726,-1.4351,2.2361,10.6661,44.0165,-0.6626,0.5996,-0.367,89.2262
16:46:13:742,-1.677,2.8541,10.601,43.8527,-0.2369,0.6039,-0.0455,89.2262
16:46:13:762,-1.3991,3.563,10.149,43.5705,-0.0474,0.4591,0.2397,89.2262
16:46:13:781,-0.6311,4.29,10.0031,43.6348,-0.1145,0.2452,0.3556,89.2262
16:46:13:804,0.302,4.602,10.379,43.7592,-0.4466,0.0004,0.2428,89.2262
16:46:13:826,0.774,4.64,11.37,43.8433,-0.9105,0.0568,-0.0583,89.2262
16:46:13:840,0.201,4.266,13.304,43.9486,-1.266,0.3495,-0.3457,89.2262
16:46:13:860,-0.609,3.33,15.6,43.8222,-1.3214,0.3718,-0.4564,89.2262
16:46:13:881,-1.0691,2.1281,17.078,43.5396,-0.8658,0.2155,-0.3935,89.2262
16:46:13:902,-1.6121,1.527,16.481,43.464,0.043,0.1378,-0.2222,89.2262
16:46:13:923,-2.142,1.448,13.6181,43.2538,0.9189,0.0314,-0.0147,89.2262
16:46:13:941,-2.2181,1.592,10.292,43.0968,1.2935,-0.1496,0.1258,89.2262
16:46:13:959,-2.103,1.7981,7.865,43.0516,1.1594,-0.2634,0.1705,89.2262
16:46:13:979,-2.034,1.9751,6.83,42.82,0.7582,-0.1666,0.1588,89.2262
16:46:14:003,-2,2.004,7.151,42.6468,0.3675,-0.0016,0.1119,89.2262
16:46:14:021,-2.07,1.7741,8.0321,42.4993,0.0653,-0.0773,0.0385,89.2262
16:46:14:039,-1.8611,1.2311,8.9681,42.4649,-0.1741,-0.2996,0.0087,89.2262
16:46:14:072,-1.392,0.582,10.0631,42.4552,-0.3539,-0.4273,0.0342,89.2262
16:46:14:079,-0.992,0.144,11.1161,42.5063,-0.3092,-0.2454,0.1481,89.2262
16:46:14:098,-0.7961,0.05,11.535,42.5862,0.0547,0.1654,0.3578,89.2262
16:46:14:118,-0.743,0.476,10.944,42.5085,0.6336,0.4591,0.594,89.2262
16:46:14:139,-0.351,0.833,9.107,42.4568,1.1125,0.3942,0.7696,89.2262
16:46:14:158,0.165,1.41,7.173,42.2805,1.3105,0.2016,0.7994,89.2262
16:46:14:179,0.522,1.9541,5.7911,42.0409,1.2349,0.0228,0.6941,89.2262
16:46:14:199,0.8291,2.294,4.9721,41.9671,0.9816,-0.0784,0.4983,89.2262
16:46:14:233,0.563,2.748,4.8341,41.855,0.2611,0.0644,-0.0338,89.1339
16:46:14:247,-0.504,3.098,5.418,41.9392,-0.0975,0.0696,-0.2287,89.034
16:46:14:268,-1.464,3.048,6.426,42.1231,-0.4668,-0.1049,-0.2498,88.9385
16:46:14:289,-1.833,2.8181,7.716,42.1275,-0.7967,-0.3018,-0.1115,88.9385
16:46:14:313,-1.313,2.612,9.359,42.2067,-1.1234,-0.4625,0.0194,88.9385
16:46:14:331,-0.468,2.4761,11.31,42.217,-1.4096,-0.4401,0.0257,88.9385
16:46:14:348,-0.083,2.2361,13.6421,42.1448,-1.5064,-0.2677,-0.0605,88.9385
16:46:14:367,-0.011,1.86,15.6101,42.1974,-1.2628,-0.0582,-0.085,88.9385
16:46:14:387,-0.03,1.685,16.479,42.4235,-0.7286,0.0249,-0.069,88.9385
16:46:14:410,-0.006,1.5611,16.0151,42.618,-0.1453,-0.0719,-0.0466,88.9385
16:46:14:427,0.218,1.164,14.6021,42.7427,0.2665,-0.1965,-0.0446,88.9385
16:46:14:447,0.563,0.7181,13.484,42.7437,0.4506,-0.2188,-0.0073,88.9385
16:46:14:467,1.1021,0.587,12.818,42.5428,0.5996,-0.172,0.0406,88.9385
16:46:14:486,1.7741,0.618,11.8271,42.4559,0.8114,-0.0496,0.0161,88.9385
16:46:14:507,2.0621,0.845,10.328,42.4926,0.9987,0.0078,-0.1041,88.8445
16:46:14:530,1.92,1.185,8.681,42.566,1.0775,-0.0517,-0.2754,88.7424
16:46:14:545,1.5401,1.499,7.197,42.6102,1.0476,-0.1006,-0.4287,88.6341
16:46:14:565,1.075,1.7741,5.952,42.6404,0.9998,0.0047,-0.5372,88.5223
16:46:14:585,0.417,2.16,4.7141,42.69,0.9519,0.2036,-0.6223,88.4094
16:46:14:608,-0.221,2.619,3.639,42.7752,0.8049,0.2952,-0.7107,88.2983
16:46:14:629,-0.9491,3.177,2.988,42.8691,0.5155,0.2292,-0.832,88.1983
16:46:14:645,-1.737,3.5891,2.997,42.8791,0.0813,0.0314,-0.9257,88.1983
16:46:14:665,-2.309,3.725,4.235,42.7858,-0.3923,-0.1646,-0.9279,88.1983
16:46:14:687,-2.529,3.596,6.299,42.6519,-0.6445,-0.2571,-0.8405,88.1983
16:46:14:704,-2.6231,3.4451,8.358,42.5606,-0.5881,-0.221,-0.6874,88.3046
16:46:14:735,-2.568,3.318,9.644,42.4415,-0.3231,-0.0751,-0.4905,88.4285
16:46:14:743,-2.6441,3.6131,9.897,42.4844,-0.0762,0.1686,-0.2882,88.5521
16:46:14:765,-2.8841,4.14,10.0001,42.4735,-0.0092,0.3037,-0.087,88.6668
16:46:14:786,-2.661,4.422,10.1771,42.298,-0.1518,0.2377,0.0566,88.7724
16:46:14:807,-2.249,4.6181,11.015,42.236,-0.4401,0.2399,0.1088,88.867
16:46:14:829,-2.115,4.578,12.359,42.3036,-0.5775,0.458,0.0886,88.867
16:46:14:843,-2.3591,4.374,13.371,42.4716,-0.5253,0.5889,0.0874,88.867
16:46:14:863,-2.312,3.764,13.848,42.7137,-0.4273,0.4495,0.1216,88.867
16:46:14:883,-2.261,2.8541,14.238,42.8842,-0.2529,0.3495,0.1748,88.867
16:46:14:905,-2.4911,2.205,14.2721,42.9099,0.1739,0.3314,0.2929,88.867
16:46:14:928,-2.7641,2.251,12.912,42.9016,0.723,0.2292,0.4696,88.867
16:46:14:943,-2.261,2.3081,10.6871,43.1972,0.989,-0.0602,0.5578,88.867
16:46:14:961,-1.694,2.315,8.6831,43.4403,0.8464,-0.2646,0.4696,88.867
16:46:14:983,-1.5551,2.219,7.793,43.5486,0.4623,-0.2135,0.3088,88.867
16:46:15:002,-1.794,1.9511,7.776,43.5441,0.1154,0.0462,0.1865,88.867
16:46:15:024,-2.2421,1.755,8.166,43.3035,-0.0751,0.2388,0.1842,88.867
16:46:15:042,-2.513,1.721,8.648,43.1415,-0.0793,0.1728,0.3205,88.867
16:46:15:061,-2.3,1.832,8.791,43.2361,0.0568,-0.0688,0.528,88.867
16:46:15:081,-1.641,2.124,8.432,43.4954,0.2069,-0.2113,0.7292,88.867
16:46:15:101,-0.7241,2.351,8.008,43.7543,0.2835,-0.1974,0.8484,88.7705
16:46:15:125,0.1031,2.6531,7.932,43.9854,0.3006,-0.1848,0.8388,88.6592
16:46:15:146,0.632,2.8661,8.054,44.1323,0.3506,-0.172,0.7228,88.5285
16:46:15:160,0.795,2.9951,7.9721,43.937,0.4485,-0.157,0.5504,88.3774
16:46:15:180,0.515,3.1631,7.5971,43.7651,0.5431,-0.1316,0.3833,88.2084
16:46:15:200,0.216,3.333,7.0631,44.009,0.5698,-0.1485,0.2577,88.0253
16:46:15:223,0.0941,3.507,6.854,44.263,0.5006,-0.2071,0.1321,87.8337
16:46:15:245,0.051,3.594,6.9521,44.6493,0.4113,-0.239,-0.0434,87.6374
16:46:15:262,-0.344,3.819,7.283,45.0321,0.275,-0.3146,-0.2509,87.4386
16:46:15:279,-0.966,3.804,7.941,45.067,0.0399,-0.4221,-0.3818,87.2419
16:46:15:300,-1.179,3.603,9.177,44.9608,-0.2529,-0.472,-0.3872,87.0564
16:46:15:321,-0.944,3.4571,10.731,44.9189,-0.4837,-0.3359,-0.351,86.8865
16:46:15:345,-0.5111,3.452,12.308,44.8499,-0.5349,-0.0964,-0.3479,86.729
16:46:15:359,-0.351,3.488,13.0391,44.6795,-0.3625,0.0451,-0.4543,86.5804
16:46:15:379,-0.758,3.644,12.3011,44.8181,-0.1294,0.11,-0.55,86.442
16:46:15:399,-1.2221,3.6701,10.941,44.9079,-0.0943,-0.0784,-0.6,86.3222
16:46:15:422,-1.404,3.17,10.1891,44.9796,-0.3476,-0.2338,-0.5904,86.2286
16:46:15:444,-1.8371,2.7131,10.893,44.8512,-0.4561,0.0644,-0.433,86.2286
16:46:15:460,-2.247,2.576,11.7341,44.5372,-0.2007,0.1484,-0.1382,86.2286
16:46:15:478,-1.7801,2.289,11.559,44.3845,0.2601,-0.1592,0.2163,86.2286
16:46:15:498,-0.648,2.346,10.245,44.3038,0.6666,-0.3763,0.4855,86.2286
16:46:15:520,0.551,2.595,8.739,44.5422,0.8433,-0.4518,0.5323,86.2286
16:46:15:544,1.454,2.837,7.2371,44.8528,0.7624,-0.4529,0.3589,86.2286
16:46:15:557,1.746,2.9351,6.062,45.1983,0.4548,-0.287,0.0268,86.2286
16:46:15:578,0.972,3.048,5.751,45.2321,0.1217,0.0727,-0.2999,86.2286
16:46:15:597,-0.269,3.237,5.873,45.2997,0.0015,0.325,-0.4925,86.2286
16:46:15:619,-1.2251,3.464,5.609,45.3066,-0.0007,0.2974,-0.5628,86.2286
16:46:15:637,-1.8761,3.735,5.2601,45.1696,-0.0741,0.0727,-0.5479,86.2286
16:46:15:656,-2.142,4.025,5.3441,45.2993,-0.2634,-0.1358,-0.4543,86.2286
16:46:15:677,-1.857,4.137,6.062,45.3649,-0.4817,-0.1624,-0.3297,86.2286
16:46:15:697,-1.349,4.2521,7.314,45.466,-0.6211,-0.0358,-0.2563,86.3271
16:46:15:716,-1.122,4.295,8.8391,45.5843,-0.5785,0.1217,-0.2531,86.4396
16:46:15:751,-1.28,4.199,10.065,45.3589,-0.3326,0.1643,-0.2467,86.5487
16:46:15:757,-1.4711,4.187,10.4531,45.3526,0.0089,0.2047,-0.1797,86.6494
16:46:15:777,-1.6841,4.53,10.175,45.1949,0.2696,0.2729,-0.0861,86.7437
16:46:15:795,-1.536,4.772,9.663,44.9994,0.325,0.2505,-0.0243,86.7437
16:46:15:815,-1.124,4.7291,9.419,45.062,0.1057,0.1665,-0.0392,86.7437
16:46:15:839,-0.87,4.511,10.058,45.029,-0.2933,0.258,-0.0807,86.7437
16:46:15:857,-1.4021,4.6811,11.396,45.1685,-0.5158,0.6145,-0.102,86.7437
16:46:15:876,-1.9091,4.491,12.287,45.3849,-0.52,0.6634,-0.0987,86.7437
16:46:15:897,-2.34,3.9191,12.5261,45.6005,-0.5232,0.3601,-0.0412,86.7437
16:46:15:918,-2.4911,3.393,12.897,45.7815,-0.3561,0.3134,0.1503,86.7437
16:46:15:937,-2.498,3.134,12.3941,45.8385,0.127,0.4335,0.3748,86.7437
16:46:15:958,-2.45,3.3641,10.383,45.9715,0.6284,0.4773,0.5152,86.7437
16:46:15:975,-2.367,3.495,8.073,45.9887,0.8156,0.2974,0.5109,86.7437
16:46:15:996,-2.4791,3.524,6.4541,46.0939,0.6251,0.0175,0.4099,86.7437
16:46:16:016,-2.747,3.395,6.069,46.1654,0.2058,-0.1188,0.3567,86.7437
16:46:16:037,-2.934,3.134,6.878,46.2527,-0.1805,-0.0762,0.3961,86.7437
16:46:16:057,-2.618,2.6411,8.205,46.3379,-0.4625,-0.19,0.4855,86.8346
16:46:16:090,-1.596,2.021,9.758,46.2032,-0.6902,-0.3923,0.5525,86.8346
16:46:16:098,-0.707,1.6691,11.418,46.1095,-0.6541,-0.2879,0.5664,86.8346
16:46:16:116,-0.437,1.6541,12.011,45.9367,-0.2113,0.0931,0.5695,86.8346
16:46:16:139,-0.774,2.0231,11.003,46.0273,0.3569,0.3293,0.6324,86.8346
16:46:16:157,-0.849,2.409,9.0761,46.4271,0.7721,0.2559,0.7664,86.8346
16:46:16:175,-0.506,2.93,7.206,46.9426,0.956,0.0855,0.8452,86.8346
16:46:16:204,0.0341,3.426,5.82,47.4936,0.8848,-0.0358,0.7931,86.8346
16:46:16:215,0.534,3.701,5.051,47.744,0.6315,-0.0602,0.6153,86.8346
16:46:16:235,0.8261,3.809,5.073,47.7638,0.2824,-0.0517,0.3481,86.8346
16:46:16:255,0.6731,3.809,5.7431,47.7083,-0.023,-0.0602,0.0364,86.7402
16:46:16:274,-0.104,3.797,6.876,47.6346,-0.2423,-0.1613,-0.2244,86.6263
16:46:16:295,-0.93,3.737,8.327,47.5458,-0.3934,-0.3487,-0.334,86.5017
16:46:16:316,-1.11,3.4721,9.696,47.5349,-0.472,-0.4561,-0.2936,86.3812
16:46:16:336,-0.669,3.156,10.92,47.5796,-0.5583,-0.4583,-0.2498,86.271
16:46:16:355,-0.269,2.9381,12.002,47.6467,-0.5892,-0.2816,-0.2776,86.1676
16:46:16:375,-0.413,2.883,12.476,47.979,-0.4305,0.0058,-0.3499,86.0675
16:46:16:396,-1.1771,3.1391,11.4131,48.2398,-0.1805,0.1398,-0.3776,85.974
16:46:16:416,-1.605,3.3161,9.543,48.6269,-0.2028,-0.0038,-0.3989,85.974
16:46:16:434,-1.952,3,8.528,48.9842,-0.6189,-0.2156,-0.4298,85.974
16:46:16:454,-2.5991,2.543,9.509,49.494,-1.0032,-0.0688,-0.2648,85.974
16:46:16:475,-3.02,2.459,11.382,49.9267,-0.9669,0.0664,0.1002,85.974
16:46:16:495,-2.252,2.219,12.809,50.1441,-0.5818,-0.2145,0.5323,85.974
16:46:16:515,-0.423,1.949,12.6911,50.5421,-0.0869,-0.4433,0.8133,85.974
16:46:16:537,1.382,2.1311,11.9321,50.6807,0.2463,-0.4093,0.825,85.974
16:46:16:558,2.454,2.468,11.0471,50.6679,0.4048,-0.2912,0.5962,85.974
16:46:16:578,2.5361,2.669,10.046,50.7757,0.4899,-0.1081,0.279,85.974
16:46:16:595,1.779,2.775,8.758,50.7266,0.6208,0.143,0.0513,85.974
16:46:16:616,0.9821,3.036,7.0871,50.7375,0.789,0.3262,-0.0742,85.8749
16:46:16:637,0.405,3.395,5.097,51.057,0.839,0.3601,-0.2127,85.7783
16:46:16:654,-0.255,3.804,3.38,51.4025,0.6071,0.2654,-0.3915,85.6876
16:46:16:676,-1.011,4.056,2.54,51.5855,0.0898,0.0685,-0.5457,85.6876
16:46:16:697,-1.8491,4.113,2.825,51.8336,-0.553,-0.0964,-0.5734,85.6876
16:46:16:715,-2.288,3.936,4.355,52.0672,-1.1458,-0.172,-0.4584,85.6876
16:46:16:736,-2.355,3.6341,6.897,52.3216,-1.4458,-0.1453,-0.2606,85.6876
16:46:16:761,-2.165,3.3761,9.612,52.7571,-1.3149,-0.1326,-0.0412,85.7794
16:46:16:778,-1.557,3.158,11.4851,53.1352,-0.8605,-0.1411,0.147,85.7794
16:46:16:798,-1.059,3.488,12.035,53.3875,-0.3497,0.0186,0.2491,85.7794
16:46:16:819,-0.762,3.929,11.858,53.6114,-0.0539,0.1526,0.2408,85.7794
16:46:16:841,-0.4181,4.077,11.571,53.8506,-0.0901,0.0866,0.1332,85.7794
16:46:16:866,-0.408,3.941,11.8751,54.1348,-0.305,0.1537,-0.0084,85.7794
16:46:16:878,-0.774,3.725,12.701,54.5564,-0.4029,0.4836,-0.087,85.7794
16:46:16:898,-1.3871,3.4121,13.0961,54.9844,-0.3838,0.5996,-0.1308,85.7794
16:46:16:918,-1.9121,2.768,13.0271,55.3005,-0.3402,0.5549,-0.0935,85.7794
16:46:16:937,-2.417,2.121,12.8351,55.5637,-0.1687,0.6241,0.0513,85.7794
16:46:16:958,-2.9681,1.8431,11.9681,55.8011,0.2036,0.6677,0.2727,85.7794
16:46:16:978,-3.255,1.865,10.122,56.0335,0.5485,0.5431,0.512,85.7794
16:46:16:997,-3.197,2.0089,8.25,56.3359,0.639,0.3048,0.6696,85.7794
16:46:17:017,-3.051,2.088,6.9551,56.4666,0.4389,0.0473,0.7323,85.7794
16:46:17:039,-3.015,2.1,6.5981,56.7668,0.0419,-0.0784,0.7568,85.7794
16:46:17:056,-3.023,1.875,7.3001,57.0199,-0.3284,-0.0027,0.8176,85.7794
16:46:17:078,-2.987,1.731,8.36,57.272,-0.4987,0.0505,0.9303,85.7794
16:46:17:095,-2.582,1.5731,9.318,57.8658,-0.503,-0.0272,1.0644,85.6706
16:46:17:115,-1.6271,1.35,10.043,58.4892,-0.3912,-0.1496,1.1645,85.5367
16:46:17:135,-0.648,1.389,10.355,59.2537,-0.2135,-0.1422,1.1602,85.3774
16:46:17:156,-0.0041,1.494,10.1921,60.2241,0.0153,0.0366,1.0878,85.1984
16:46:17:176,0.2921,1.6931,9.5861,61.1833,0.2622,0.2229,1.0027,85.0062
16:46:17:194,0.3431,1.98,8.6021,61.8185,0.4602,0.258,0.9292,84.8054
16:46:17:215,0.5201,2.279,7.635,62.2776,0.5442,0.1728,0.8526,84.5976
16:46:17:234,0.8981,2.504,7.0031,62.5279,0.507,0.044,0.7281,84.3816
16:46:17:266,1.233,2.715,6.7391,62.5218,0.3718,-0.0602,0.5334,84.156
16:46:17:274,1.3721,2.744,6.8831,62.4954,0.1728,-0.0932,0.294,83.9216
16:46:17:293,1.2191,2.76,7.532,62.4926,-0.0358,-0.1358,0.0491,83.6807
16:46:17:313,0.69,2.78,8.607,62.5195,-0.2305,-0.3124,-0.153,83.4397
16:46:17:333,0.51,2.5091,9.9,62.52,-0.4487,-0.5338,-0.2574,83.2056
16:46:17:353,1.07,2.028,11.5541,62.4303,-0.6445,-0.6988,-0.3372,82.9811
16:46:17:376,1.635,1.767,12.837,62.3003,-0.6541,-0.5625,-0.4755,82.7695
16:46:17:393,1.595,1.82,12.696,61.9437,-0.5008,-0.2017,-0.6841,82.5771
16:46:17:414,0.8531,2.033,11.25,61.7384,-0.6009,-0.1316,-0.9533,82.4129
16:46:17:433,-0.0131,1.5041,10.905,61.738,-1.1106,-0.2657,-1.1694,82.2873
16:46:17:454,-1.215,0.998,12.737,61.7156,-1.3586,-0.0155,-1.1129,82.2873
16:46:17:474,-2.345,0.9581,14.6501,61.7959,-0.8701,0.1697,-0.781,82.2873
16:46:17:493,-2.403,0.8621,14.331,61.6749,0.0089,-0.0666,-0.2956,82.2873
16:46:17:522,-1.203,0.924,12.39,61.4752,0.6634,-0.3858,0.1555,82.2873
16:46:17:534,0.75,1.092,10.7741,61.2572,0.9466,-0.4848,0.3492,82.2873
16:46:17:553,2.33,1.329,9.4781,60.7463,1.0242,-0.406,0.2067,82.2873
16:46:17:573,2.801,1.4891,7.9631,60.3541,0.9785,-0.2443,-0.186,82.2873
16:46:17:593,1.9781,1.58,6.39,59.9822,0.8455,0.0089,-0.6021,82.2873
16:46:17:613,0.498,1.808,5.166,59.6917,0.689,0.224,-0.8459,82.2873
16:46:17:633,-0.578,2.0711,4.259,59.6794,0.4804,0.2804,-0.9204,82.2873
16:46:17:653,-1.4471,2.43,3.672,59.4379,0.1825,0.1953,-0.896,82.3915
16:46:17:673,-1.979,2.7251,3.84,59.2755,-0.1932,0.0217,-0.7862,82.5606
16:46:17:699,-1.9811,2.8181,4.824,59.0502,-0.5605,-0.2102,-0.6384,82.7867
16:46:17:713,-1.766,2.856,6.387,58.9511,-0.8243,-0.3369,-0.5116,83.0436
16:46:17:737,-1.569,2.648,8.202,59.3271,-0.919,-0.3189,-0.3787,83.3096
16:46:17:754,-1.517,2.55,9.749,59.6703,-0.7871,-0.1188,-0.219,83.5732
16:46:17:773,-1.598,2.732,10.79,59.8455,-0.5136,0.1079,-0.0264,83.8314
16:46:17:793,-1.316,2.981,11.25,60.2481,-0.206,0.2346,0.1513,84.0807
16:46:17:813,-1.1771,3.563,11.255,60.3744,0.0302,0.2941,0.2716,84.3172
16:46:17:833,-0.801,3.881,11.075,60.5016,0.1239,0.3228,0.3259,84.5382
16:46:17:853,-0.243,4.137,10.9031,60.7363,0.0408,0.3633,0.2322,84.7401
16:46:17:873,0.108,4.221,11.085,60.7225,-0.2634,0.3303,-0.0594,84.9251
16:46:17:893,0.108,3.201,12.1691,60.7393,-0.802,0.1962,-0.4521,85.1011
16:46:17:914,-0.734,1.697,14.25,60.3704,-1.1532,0.3123,-0.7033,85.2783
16:46:17:933,-2.046,0.4571,16.07,59.822,-0.9063,0.5474,-0.6777,85.4674
16:46:17:954,-3.387,0.038,15.552,59.5262,-0.1209,0.7656,-0.3605,85.671
16:46:17:973,-4.04,0.278,12.948,59.2789,0.6614,0.7103,0.1141,85.8835
16:46:17:994,-3.825,0.7661,9.8711,59.5288,1.055,0.4048,0.4898,86.0965
16:46:18:014,-3.348,1.266,7.431,59.8517,0.9508,0.0738,0.66,86.3058
16:46:18:034,-2.9051,1.4891,6.4691,59.858,0.4452,-0.1433,0.7143,86.5107
16:46:18:054,-2.345,1.142,7.383,59.8828,-0.1613,-0.2614,0.7633,86.7046
16:46:18:102,-1.7921,0.7181,9.354,59.8045,-0.4922,-0.2486,0.8569,86.8743
16:46:18:103,-0.9611,0.29,11.142,60.0291,-0.4051,-0.1943,0.9729,87.0143
16:46:18:113,-0.174,0.1391,11.81,60.276,0.0622,-0.0454,1.0506,87.1274
16:46:18:133,0.228,0.417,10.97,60.4284,0.6751,0.0727,1.0761,87.2203
16:46:18:154,0.182,0.9911,8.937,60.5831,1.1307,0.0143,1.0687,87.2203
16:46:18:181,0.575,2.04,5.1521,60.4663,1.1924,-0.1337,0.8825,87.2203
16:46:18:197,0.752,2.516,4.197,60.5596,0.872,-0.1134,0.6622,87.2203
16:46:18:217,0.8771,2.777,4.041,60.5604,0.4165,-0.1592,0.3695,87.2203
16:46:18:237,0.831,2.835,4.764,60.5493,-0.0517,-0.2071,0.0374,87.2203
16:46:18:257,0.1181,2.859,6.0071,60.5871,-0.3997,-0.223,-0.2659,87.2203
16:46:18:280,-0.9491,2.801,7.2641,60.7191,-0.6487,-0.2188,-0.418,87.2203
16:46:18:296,-1.991,2.832,9.126,60.9424,-0.8573,-0.3348,-0.3946,87.2203
16:46:18:316,-2.295,2.298,12.4181,61.2246,-1.0073,-0.7446,-0.219,87.2203
16:46:18:337,-1.292,1.3811,15.837,61.576,-0.8063,-1.1032,-0.0264,87.2203
16:46:18:356,-0.348,1.403,16.422,62.0808,-0.1613,-0.7435,0.0576,87.2203
16:46:18:376,-0.291,2.1641,14.504,62.465,0.225,-0.2773,-0.0509,87.3139
16:46:18:395,-0.743,2.4611,12.612,62.8157,-0.0358,-0.2507,-0.2201,87.408
16:46:18:415,-1.263,1.92,12.5261,63.1054,-0.4583,-0.1528,-0.217,87.5092
16:46:18:435,-2.4671,1.9151,13.4261,63.0537,-0.2219,0.2622,0.0938,87.623
16:46:18:456,-2.963,2.109,12.579,63.0244,0.5741,0.39,0.6472,87.7483
16:46:18:475,-1.8491,2.198,10.043,62.9921,1.1785,0.0675,1.1688,87.8758
16:46:18:495,0.1061,2.658,7.776,62.938,1.2508,-0.3901,1.422,87.9895
16:46:18:514,2.2241,3.282,6.737,62.8997,0.956,-0.6711,1.3039,87.9895
16:46:18:538,3.8,3.4721,6.624,62.7954,0.507,-0.7318,0.7813,87.9895
16:46:18:555,3.833,3.017,7.0751,62.768,0.1122,-0.4433,0.0874,87.9895
16:46:18:575,2.552,2.3411,7.367,62.5826,-0.0836,0.1398,-0.4042,87.9895
16:46:18:594,0.812,2.234,7.3811,62.5568,-0.0571,0.6017,-0.6425,87.9895
16:46:18:614,-0.537,2.1641,6.792,62.74,0.0525,0.639,-0.6852,87.9895
16:46:18:634,-1.191,2.021,6.11,62.92,0.0334,0.4165,-0.6021,87.9895
16:46:18:655,-1.545,2.0711,5.909,63.1235,-0.1071,0.1495,-0.4627,87.9895
16:46:18:674,-1.5911,2.03,6.15,63.0886,-0.2699,0.0451,-0.2871,87.9895
16:46:18:694,-1.316,1.958,6.7511,62.9278,-0.4231,0.1282,-0.1254,88.0894
16:46:18:715,-1.172,1.887,7.625,62.9,-0.4742,0.3219,0.0044,88.207
16:46:18:734,-1.361,2.1551,8.334,62.7826,-0.3901,0.4836,0.1407,88.3298
16:46:18:754,-1.493,2.624,8.6981,62.9896,-0.2794,0.4357,0.3003,88.4511
16:46:18:784,-1.3661,2.997,8.94,63.2407,-0.2486,0.3176,0.4696,88.5681
16:46:18:797,-1.1381,3.452,9.282,63.4832,-0.3018,0.358,0.6494,88.6766
16:46:18:814,-0.71,3.888,9.936,63.8363,-0.4242,0.4889,0.7516,88.7703
16:46:18:842,-0.078,4.2521,10.9601,64.034,-0.6168,0.4804,0.7078,88.7703
16:46:18:854,0.618,4.149,12.411,64.0874,-0.9074,0.2824,0.4663,88.7703
16:46:18:874,0.446,3.254,14.4581,64.0647,-1.1458,0.0909,0.1225,88.7703
16:46:18:893,-0.4271,2.016,16.173,64.1027,-1.0158,0.2229,-0.0168,88.7703
16:46:18:913,-1.7351,1.329,16.457,64.1287,-0.3943,0.5347,0.096,88.7703
16:46:18:934,-3.09,1.482,14.2451,64.1593,0.4506,0.6964,0.4482,88.7703
16:46:18:952,-3.3941,2.09,10.889,64.1087,0.9955,0.4793,0.7941,88.7703
16:46:18:973,-3.1211,2.5451,7.676,63.8524,1.0306,0.1452,0.9303,88.7703
16:46:18:993,-2.862,2.825,5.7821,63.5967,0.6156,-0.0602,0.8973,88.7703
16:46:19:013,-2.843,2.684,5.6021,63.3789,0.0228,-0.0953,0.8111,88.7703
16:46:19:033,-3.1091,2.1191,7.008,63.0286,-0.4668,-0.0272,0.777,88.7703
16:46:19:053,-3.3101,1.53,9.074,62.8148,-0.6137,-0.0155,0.8632,88.7703
16:46:19:074,-2.984,0.864,10.8431,62.4988,-0.3943,-0.1997,1.0516,88.7703
