Time,Acc_X,Acc_Y,Acc_Z,Meg,Gyr_X,Gyr_Y,Gyr_Z,Ore
18:23:14:859,-1.365,4.1531,9.401,39.297,-0.1184,0.8184,0.8691,0.1463
18:23:14:880,-1.3331,4.284,9.701,39.8227,-0.0874,0.5424,0.8117,0.1413
18:23:14:897,-1.403,4.478,9.72,39.1636,0.018,0.2964,0.7893,0.1437
18:23:14:918,-1.398,4.596,9.516,39.9476,0.1309,0.127,0.7925,0.1454
18:23:14:938,-1.412,4.679,9.0971,39.0639,0.2139,0.0322,0.8106,0.1472
18:23:14:959,-1.13,4.668,8.712,39.3092,0.2321,0.0375,0.8372,0.1479
18:23:14:978,-0.84,4.787,8.8361,39.0058,0.2193,0.0642,0.8267,0.1479
18:23:14:998,-0.606,4.845,8.9921,39.0058,0.1958,0.0077,0.8117,0.1482
18:23:15:018,-0.2539,4.8611,9.071,39.6032,0.1628,-0.085,0.7957,0.1476
18:23:15:038,0.275,4.94,9.0851,38.987,0.1756,-0.1521,0.7659,0.1467
18:23:15:060,0.239,4.8041,8.681,39.6265,0.1991,-0.1159,0.7116,0.145
18:23:15:078,-0.287,4.49,8.4131,39.5646,0.1064,0.0056,0.7403,0.143
18:23:15:098,-0.072,3.698,8.88,38.9481,-0.08,0.0748,0.8383,0.1411
18:23:15:118,0.861,2.6711,9.497,38.8949,-0.209,0.0322,0.8096,0.1393
18:23:15:139,1.541,2.474,10.115,39.6178,-0.1504,0.0247,0.5677,0.1372
18:23:15:160,1.103,3.162,10.1891,39.7994,0.0903,0.0003,0.2865,0.1348
18:23:15:177,0.0761,4.016,9.332,39.0896,0.3439,0.0344,0.2034,0.1328
18:23:15:198,-0.843,4.567,8.537,39.0645,0.4718,0.1782,0.3451,0.1317
18:23:15:217,-1.0271,4.646,8.0681,39.0301,0.4451,0.2953,0.6285,0.132
18:23:15:238,-0.3731,4.136,7.745,39.2314,0.314,0.3497,0.8639,0.1339
18:23:15:259,0.4091,3.729,7.613,39.2434,0.1128,0.3369,0.9459,0.1365
18:23:15:277,0.9191,3.494,7.7711,39.4752,-0.0971,0.3156,0.9395,0.1384
18:23:15:300,1.026,3.317,8.085,39.2303,-0.2313,0.3389,0.8947,0.1396
18:23:15:318,0.725,3.425,8.6501,39.9969,-0.2558,0.4295,0.8521,0.1399
18:23:15:339,0.4541,3.7601,9.1841,39.5338,-0.1812,0.4275,0.8489,0.1398
18:23:15:358,0.504,4.0811,9.083,39.7191,-0.0789,0.3102,0.8841,0.1398
18:23:15:379,0.725,4.241,8.4581,39.7994,-0.0342,0.2261,0.9012,0.1399
18:23:15:397,0.83,4.3421,7.9481,39.4006,-0.0683,0.191,0.9065,0.1396
18:23:15:418,0.861,4.359,7.6541,40.1749,-0.1365,0.1942,0.9012,0.139
18:23:15:442,0.7511,4.397,7.517,39.7464,-0.2068,0.2974,0.9054,0.1381
18:23:15:459,0.471,4.4741,8.058,39.6089,-0.2867,0.3773,0.9609,0.137
18:23:15:478,0.44,4.16,8.6621,40.067,-0.3475,0.3241,1.0163,0.1361
18:23:15:497,0.516,3.669,8.882,39.69,-0.3612,0.1877,1.029,0.135
18:23:15:519,0.521,3.044,8.7221,39.3644,-0.2867,0.2175,1.0641,0.1331
18:23:15:543,2.1731,3.71,8.793,38.9779,-0.1216,0.2889,0.9822,0.1308
18:23:15:558,1.977,3.7721,8.087,40.1109,0.0243,0.2591,0.6274,0.1287
18:23:15:578,0.926,3.7841,7.965,39.7746,0.0488,0.3347,0.5103,0.1274
18:23:15:600,0.749,4.1,8.609,39.7579,0.0798,0.3721,0.5123,0.1271
18:23:15:617,0.593,4.421,8.724,39.4625,0.1426,0.1899,0.5314,0.1276
18:23:15:637,0.5501,4.677,8.003,39.4506,0.0595,0.0887,0.6082,0.1285
18:23:15:657,0.8231,4.914,7.991,39.427,-0.1781,0.2303,0.6508,0.1292
18:23:15:677,0.5711,4.703,8.616,39.1461,-0.3964,0.2485,0.6593,0.1295
18:23:15:697,0.282,5.027,9.528,38.8897,-0.5169,0.1792,0.7116,0.1293
18:23:15:717,0.15,5.067,10.326,39.5529,-0.4646,0.0844,0.8671,0.1281
18:23:15:737,0.224,4.5791,10.271,39.4916,-0.3475,0.029,1.0673,0.1263
18:23:15:757,0.6101,4.3541,9.7631,39.2105,-0.2813,0.2612,1.3071,0.1237
18:23:15:776,0.909,3.849,10.223,39.8226,-0.2878,0.8449,1.5414,0.1211
18:23:15:799,1.124,3.2981,11.391,39.424,-0.1834,1.4756,1.7,0.1192
18:23:15:817,1.098,2.649,12.3131,39.6671,0.0371,1.7014,1.5903,0.1199
18:23:15:841,0.2411,2.735,13.0571,39.3636,0.3344,1.3819,1.2889,0.1237
18:23:15:857,-0.651,2.951,12.761,39.6799,0.6454,0.7576,1.1047,0.1299
18:23:15:876,-0.8831,2.597,10.9631,39.9643,0.7987,0.4636,1.1377,0.1372
18:23:15:898,-0.7991,2.118,9.399,39.8878,0.5144,1.0357,1.3166,0.1444
18:23:15:917,-0.074,1.85,10.5581,38.9481,0.4323,1.0836,1.4274,0.1519
18:23:15:937,0.0851,1.677,10.065,38.8506,0.6358,0.8077,1.273,0.1596
18:23:15:957,-0.251,1.517,8.903,39.2571,0.6859,0.5584,1.1366,0.1672
18:23:15:977,-0.2561,1.706,7.908,39.185,0.426,0.2463,1.1036,0.1745
18:23:15:998,0.3011,2.0291,7.7021,39.1747,0.1,-0.2362,1.0812,0.1807
18:23:16:016,0.705,2.2421,7.1321,39.1962,-0.1226,-0.5708,0.9916,0.184
18:23:16:037,0.725,2.597,6.9311,39.2024,-0.242,-0.6837,0.9214,0.1838
18:23:16:058,0.83,3.042,6.9791,39.6656,-0.3538,-0.8093,0.9086,0.1804
18:23:16:077,0.6221,3.123,7.28,38.799,-0.487,-0.7454,0.9065,0.1747
18:23:16:098,1.199,2.525,7.9361,39.3646,-0.4624,-0.5633,0.8128,0.1673
18:23:16:116,1.2251,2.573,8.051,39.4622,-0.3475,-0.3939,0.589,0.1592
18:23:16:137,0.966,3.272,8.013,39.3737,-0.2335,-0.1766,0.4271,0.1516
18:23:16:159,0.519,4.028,8.0681,38.3924,-0.1323,-0.1585,0.4261,0.1453
18:23:16:177,0.7991,4.739,8.762,39.4169,-0.0364,-0.2842,0.6146,0.1407
18:23:16:196,1.05,4.002,9.126,39.1556,0.1693,-0.4568,0.802,0.1372
18:23:16:217,2.003,3.219,8.753,39.2974,0.4877,-0.7454,0.7094,0.1343
18:23:16:237,2.6231,3.9761,7.1171,39.2524,0.6273,-0.6517,0.4441,0.1316
18:23:16:258,2.0891,4.818,7.268,38.8802,0.6273,0.1228,0.2801,0.1297
18:23:16:277,1.7921,5.132,7.9961,39.2642,0.737,0.8045,0.2375,0.1301
18:23:16:299,2.5391,5.034,9.009,38.8437,0.8265,1.5576,0.2716,0.1339
18:23:16:317,3.308,4.931,10.7591,39.092,0.9969,2.0562,0.1288,0.1415
18:23:16:337,2.348,5.3021,11.3741,38.9696,1.1355,2.1031,-0.0278,0.1527
18:23:16:358,1.689,5.532,11.6351,38.4079,0.8893,1.8475,0.0606,0.1672
18:23:16:377,1.8431,5.082,12.282,38.802,0.4675,1.1613,0.0297,0.1832
18:23:16:396,1.745,4.95,12.011,37.7857,0.3098,0.3092,-0.1343,0.1975
18:23:16:417,1.364,4.8041,10.874,37.7294,0.3311,-0.0498,-0.2376,0.208
18:23:16:437,1.1201,4.241,10.7111,38.3708,0.2747,0.0898,-0.4326,0.2153
18:23:16:458,0.8561,3.4751,11.4011,38.2625,0.2139,0.0142,-0.6361,0.2208
18:23:16:476,0.447,3.0251,10.6991,38.1951,0.2267,-0.5463,-0.7425,0.2252
18:23:16:496,-0.5771,3.564,8.192,39.2701,0.1639,-1.0064,-0.6242,0.2284
18:23:16:515,-0.8261,4.6841,6.131,38.3576,-0.0619,-0.9159,-0.2003,0.2294
18:23:16:537,-0.117,5.379,5.406,37.7539,-0.3996,-0.6475,0.246,0.2283
18:23:16:557,0.705,5.357,5.7431,38.7151,-0.7767,-0.5026,0.5038,0.2253
18:23:16:576,1.577,4.737,6.047,38.3517,-1.0952,-0.6762,0.6231,0.2202
18:23:16:596,2.5391,3.968,6.3701,38.4834,-1.3817,-0.9255,0.5655,0.2123
18:23:16:615,2.616,2.9081,6.404,38.1648,-1.5821,-1.2397,0.3398,0.2011
18:23:16:636,1.91,1.938,6.1811,38.8196,-1.695,-1.2675,0.1001,0.1866
18:23:16:657,2.087,1.6631,6.449,38.2896,-1.7163,-0.9244,-0.1471,0.1694
18:23:16:676,2.274,1.766,7.007,37.8311,-1.6065,-0.4301,-0.4709,0.1511
18:23:16:696,1.4501,1.988,8.0059,37.7631,-1.3967,-0.0562,-0.7245,0.1335
18:23:16:717,1.014,2.7521,9.4181,37.7171,-1.0442,0.3059,-0.8107,0.1182
18:23:16:735,1.347,2.8961,9.873,37.695,-0.4294,0.4509,-0.8917,0.1061
18:23:16:758,1.326,2.427,9.215,38.4861,0.1565,0.454,-0.8757,0.0982
18:23:16:775,0.801,2.52,8.2571,37.8268,0.4462,1.0729,-0.5017,0.0949
18:23:16:795,0.8351,2.915,9.9311,38.2787,0.6634,1.8187,-0.0395,0.0963
18:23:16:815,0.89,2.987,10.826,39.2899,0.8936,2.1446,0.099,0.1028
18:23:16:859,0.033,3.815,12.15,37.5503,1.0779,2.4302,0.1522,0.114
18:23:16:860,0.1241,3.497,12.765,38.4992,1.455,2.6198,0.3781,0.1292
18:23:16:875,0.071,2.4911,11.2691,38.3488,1.7512,2.4344,0.5987,0.148
18:23:16:896,0.5831,3.075,8.4799,38.3607,1.5764,2.7848,0.507,0.1701
18:23:16:915,-0.6941,4.311,11.535,39.1944,1.1003,2.9308,-0.0139,0.194
18:23:16:935,-3.1361,4.244,9.191,37.15,0.7103,1.1869,-0.2291,0.2186
18:23:16:958,-4.2161,5.5991,8.3981,37.8133,-0.0556,0.7886,0.0308,0.24
18:23:16:975,-4.2401,4.943,9.315,38.6672,-0.9056,0.2069,0.3398,0.2554
18:23:16:995,-3.548,3.1211,10.7111,37.9635,-1.3893,-0.4514,0.4697,0.2635
18:23:17:015,-2.7581,1.919,11.901,37.3266,-1.2881,0.1547,0.6593,0.2633
18:23:17:035,-3.503,2.7551,12.756,37.5141,-0.4348,0.2027,0.8916,0.2573
18:23:17:056,-2.823,3.2021,9.9431,37.6911,0.264,-0.1713,1.0908,0.2512
18:23:17:075,-1.848,3.183,6.414,37.6528,0.1958,0.062,0.9268,0.2474
18:23:17:095,-2.456,3.482,6.318,38.6643,-0.3623,0.5532,0.833,0.246
18:23:17:115,-2.2001,4.0451,7.544,37.403,-0.6394,0.5862,1.209,0.2457
18:23:17:135,-0.941,3.3581,7.917,36.9517,-0.7287,0.6373,1.4541,0.2449
18:23:17:158,-0.2321,2.034,8.573,38.3127,-0.6766,0.6383,1.5403,0.243
18:23:17:175,0.684,1.878,9.011,37.9391,-0.4273,0.7374,1.5573,0.2401
18:23:17:195,0.921,2.661,8.6501,37.6403,-0.0908,0.4903,1.2218,0.2374
18:23:17:215,-0.108,3.102,7.998,37.5717,0.2512,-0.1904,0.7925,0.2358
18:23:17:235,-0.962,2.9921,8.0681,38.4184,0.6262,-0.8733,0.6593,0.2353
18:23:17:258,-1.0721,2.091,6.612,38.4161,0.8701,-0.8999,0.671,0.2355
18:23:17:274,-1.218,2.2061,5.334,37.5371,0.5708,0.1323,0.5677,0.2366
18:23:17:295,-0.869,3.1301,6.074,36.9507,0.4164,0.7268,0.4569,0.2392
18:23:17:314,-0.29,4.5911,6.507,37.84,0.3183,0.6511,0.278,0.243
18:23:17:334,-0.246,5.295,7.4891,37.8336,0.0265,0.4093,0.1576,0.2477
18:23:17:355,-0.723,4.644,8.279,37.595,-0.2324,0.1026,-0,0.2519
18:23:17:374,-1.422,4.5881,9.2291,37.8192,-0.3208,-0.0989,-0.2951,0.2542
18:23:17:394,-2.4971,5.295,9.026,38.1242,-0.472,-0.3396,-0.3697,0.2542
18:23:17:416,-2.729,5.687,9.21,38.1108,-0.8151,-0.4003,-0.2643,0.2523
18:23:17:434,-2.1161,5.292,10.512,37.8174,-1.0175,-0.3576,-0.2163,0.2484
18:23:17:458,-2.1071,5.223,14.075,37.3805,-0.7628,-0.6432,-0.2398,0.2422
18:23:17:474,-1.9061,5.1101,12.093,38.0019,-0.4273,-0.7326,-0.2194,0.2341
18:23:17:494,-1.8791,4.478,11.25,37.2084,-0.3836,-0.6857,-0.1705,0.2259
18:23:17:514,-1.8071,3.624,11.882,37.1693,-0.3026,-0.5046,-0,0.2184
18:23:17:534,-0.507,3.195,12.002,37.1564,0.067,-0.5259,0.0095,0.2117
18:23:17:553,-0.618,2.927,8.973,38.1239,0.2204,-0.6069,-0.0949,0.2066
18:23:17:573,-0.926,2.8601,6.813,38.1239,-0.08,-0.3257,-0.0874,0.2034
18:23:17:593,-1.86,3.705,6.9641,37.3741,-0.4774,-0.297,-0.0437,0.2009
18:23:17:613,-2.3651,3.516,6.7511,38.0558,-0.7235,-0.4887,0.18,0.1982
18:23:17:634,-1.5581,2.5271,6.3581,38.3841,-0.9908,-0.7231,0.4165,0.1937
18:23:17:654,0.224,2.228,6.1451,37.4365,-1.5033,-1.3005,0.4356,0.1869
18:23:17:674,1.536,1.907,5.621,37.9713,-1.7632,-1.1854,0.1939,0.1763
18:23:17:694,0.387,1.4261,6.6101,38.3032,-1.482,-0.2863,-0.1375,0.1613
18:23:17:714,-1.7381,1.5671,7.17,37.6721,-1.0494,0.2591,-0.1002,0.1451
18:23:17:734,-1.185,2.012,7.4501,38.1143,-0.7597,0.4051,0.082,0.1312
18:23:17:754,-0.345,0.638,10.227,38.0848,-0.4806,0.0311,0.0074,0.1205
18:23:17:774,0.176,0.5111,6.749,38.0652,-0.1035,0.0429,-0.4869,0.1123
18:23:17:794,-2.8781,2.273,5.439,38.0751,0.0733,0.4977,-0.359,0.1063
18:23:17:813,-3.203,1.854,6.5981,38.0187,-0.0758,0.927,0.2758,0.1036
18:23:17:833,-1.992,0.636,8.13,38.6622,-0.0854,0.9526,0.4697,0.1037
18:23:17:853,-1.901,0.4271,7.9631,38.5107,0.1735,1.0612,0.3802,0.1051
18:23:17:875,-3.0881,-0.038,5.9111,37.9076,0.3439,1.6141,0.4122,0.1076
18:23:17:893,-3.7871,-0.647,6.708,38.0335,-0.2633,1.9731,0.6189,0.1125
18:23:17:913,-3.431,-1.5641,8.868,37.8798,-0.5317,2.1691,0.6434,0.1186
18:23:17:933,-3.203,-2.5691,9.2651,38.5456,-0.2153,2.511,0.4804,0.1237
18:23:17:953,-4.728,-2.133,7.905,38.3351,0.1298,3.0096,0.1789,0.1287
18:23:17:975,-7.089,-1.698,8.379,38.2519,-0.3528,2.9809,0.2247,0.1358
18:23:17:994,-7.302,-2.004,9.737,38.2206,-1.0878,2.2522,0.3972,0.1441
18:23:18:015,-6.807,-2.61,9.899,38.2662,-1.3595,1.7739,0.4484,0.1497
18:23:18:032,-7.242,-3.17,8.066,38.092,-1.2253,2.1351,0.4857,0.1507
18:23:18:053,-7.3211,-4.0181,7.649,38.1132,-1.1155,3.212,0.4751,0.1489
18:23:18:075,-7.23,-4.877,9.191,37.6715,-1.0047,4.06,0.2428,0.1472
18:23:18:093,-7.1231,-5.382,9.629,37.8058,-0.7842,4.5052,-0.1779,0.147
18:23:18:112,-7.3931,-5.085,8.195,37.4837,-0.6989,4.5415,-0.6242,0.1488
18:23:18:133,-7.683,-4.449,6.069,37.8516,-1.0612,4.2101,-0.898,0.1518
18:23:18:152,-7.788,-3.9671,5.3291,37.5159,-1.7759,3.5486,-1.0077,0.1532
18:23:18:176,-7.257,-3.7781,5.8151,37.3675,-2.4162,2.8126,-1.0142,0.1489
18:23:18:193,-6.459,-3.714,6.2171,36.681,-2.7805,2.1904,-1.0526,0.1377
18:23:18:213,-5.4611,-3.6131,5.844,36.9213,-2.9264,1.8495,-1.1804,0.1201
18:23:18:233,-5.748,-3.551,5.877,36.2196,-3.0009,1.6301,-1.3934,0.0978
18:23:18:252,-6.854,-2.9861,6.837,36.2883,-2.8274,1.5364,-1.3988,0.0721
18:23:18:275,-7.293,-3.137,7.2851,36.4736,-2.3533,1.6312,-1.3647,0.0448
18:23:18:292,-8.2361,-3.3641,7.335,36.9507,-1.8538,1.8176,-1.4585,0.0183
18:23:18:312,-9.744,-3.644,7.4021,36.682,-1.3648,1.9689,-1.5532,-0.0057
18:23:18:333,-11.346,-3.864,6.9431,36.8429,-0.9643,2.0562,-1.5575,-0.0266
18:23:18:352,-12.0431,-3.426,6.8591,36.6178,-0.7639,1.9444,-1.4372,-0.0439
18:23:18:375,-12.998,-3.477,7.4501,37.2585,-0.5818,1.6706,-1.288,-0.0579
18:23:18:393,-13.5341,-4.073,7.4381,37.4375,-0.3358,1.2977,-1.1506,-0.0691
18:23:18:413,-13.5221,-3.852,6.89,37.6437,-0.1919,0.8535,-1.0952,-0.0781
18:23:18:432,-13.869,-2.981,6.639,37.111,-0.1226,0.371,-1.0088,-0.086
18:23:18:452,-14.1971,-2.414,6.1211,36.8542,-0.0619,-0.102,-0.799,-0.0931
18:23:18:475,-14.358,-2.624,5.243,37.3374,-0.0194,-0.4823,-0.5316,-0.0999
18:23:18:492,-13.644,-2.813,4.8,38.1046,0.003,-0.7422,-0.2984,-0.1061
18:23:18:512,-12.629,-2.033,4.553,37.5732,0.2299,-0.8147,-0.1811,-0.1116
18:23:18:532,-13.2761,-2.4641,3.945,38.3653,0.6677,-0.3524,0.0297,-0.1161
18:23:18:552,-14.066,-3.9101,3.849,37.813,1.0875,0.2463,0.392,-0.1182
18:23:18:575,-13.9991,-5.603,3.572,38.053,1.291,0.682,0.785,-0.1161
18:23:18:591,-12.924,-6.8141,3.9431,38.12,1.2004,0.7107,1.0163,-0.1089
18:23:18:612,-11.6501,-6.663,4.2491,38.2455,1.0556,0.3304,1.0684,-0.0974
18:23:18:631,-10.3001,-5.643,3.737,38.3973,0.9692,-0.1116,1.0715,-0.0839
18:23:18:652,-9.167,-4.5161,2.978,37.5673,0.9426,-0.4056,1.0769,-0.0701
18:23:18:672,-8.214,-3.5051,2.2361,37.9581,0.9852,-0.527,1.0982,-0.0567
18:23:18:692,-7.374,-2.8301,1.644,38.3431,1.0864,-0.4451,1.1355,-0.0436
18:23:18:711,-6.816,-2.4611,1.539,38.7852,1.2089,-0.2214,1.2059,-0.0301
18:23:18:732,-6.3761,-2.754,1.769,39.9276,1.4028,0.0301,1.2964,-0.0157
18:23:18:752,-5.8751,-3.105,1.632,40.5606,1.5998,0.2208,1.2952,-0.0001
18:23:18:772,-5.904,-3.548,1.1801,41.0579,1.6851,0.305,1.2484,0.0156
18:23:18:792,-5.739,-3.975,0.593,40.925,1.5989,0.2879,1.1962,0.0312
18:23:18:812,-5.5181,-4.3241,0.129,41.5744,1.3761,0.2612,1.0928,0.0482
18:23:18:870,-5.736,-4.5731,0.117,41.614,1.16,0.2761,0.9214,0.0658
18:23:18:870,-6.251,-4.767,0.26,42.4333,1.0598,0.3891,0.7531,0.0827
18:23:18:873,-6.7661,-5.279,0.2081,41.9044,0.9809,0.5137,0.6167,0.0984
18:23:18:891,-7.271,-6.2441,0.026,41.8122,0.8158,0.6021,0.4857,0.1129
18:23:18:912,-7.5971,-7.358,-0.0191,42.6744,0.5505,0.6053,0.294,0.1253
18:23:18:931,-7.704,-8.1431,-0.026,42.6486,0.2353,0.5478,-0.0118,0.1353
18:23:18:951,-7.7,-7.767,0.447,42.815,-0.063,0.4509,-0.4048,0.1425
18:23:18:971,-8.471,-6.6701,0.957,43.3026,-0.1919,0.3806,-0.7117,0.1461
18:23:18:993,-9.7421,-6.642,0.548,43.3063,-0.2079,0.3943,-0.8139,0.146
18:23:19:012,-9.8471,-6.587,-0.0671,43.2993,-0.4581,0.3369,-0.7968,0.1432
18:23:19:031,-9.182,-5.7101,0.1481,43.9613,-0.961,0.1334,-0.7586,0.1387
18:23:19:051,-9.093,-5.8661,1.8671,43.1783,-1.3903,-0.0754,-0.7297,0.1318
18:23:19:071,-9.213,-6.5051,3.162,43.2947,-1.4414,-0.363,-0.766,0.1216
18:23:19:092,-8.969,-6.783,2.975,43.3049,-1.2114,-0.51,-0.9151,0.1073
18:23:19:111,-9.129,-6.455,1.754,43.4149,-1.0015,-0.428,-1.1228,0.0906
18:23:19:131,-9.6941,-6.014,0.6341,42.8709,-1.0548,-0.1947,-1.2187,0.0728
18:23:19:151,-9.368,-5.6651,0.732,43.1129,-1.3658,-0.0136,-1.1814,0.0545
18:23:19:171,-7.946,-4.571,2.394,43.4071,-1.6236,-0.0722,-1.2187,0.0364
18:23:19:193,-7.056,-2.928,3.909,43.7695,-1.5682,-0.2777,-1.3562,0.0175
18:23:19:211,-6.981,-0.7331,4.448,43.2672,-1.2603,-0.5281,-1.386,0.0032
18:23:19:231,-7.5101,0.4391,4.158,43.3801,-0.8119,-0.6453,-1.2016,-0.0137
18:23:19:251,-7.566,0.717,3.2321,44.2001,-0.308,-0.6655,-0.9321,-0.0304
18:23:19:271,-7.5221,0.657,1.4171,44.3192,0.084,-0.5878,-0.7138,-0.0447
18:23:19:292,-7.589,-0.134,-0.4661,43.5126,0.1277,-0.3417,-0.4965,-0.0557
18:23:19:312,-7.64,-1.889,-0.6911,44.4245,-0.0331,-0.0253,-0.392,-0.0634
18:23:19:331,-7.8341,-3.0821,-0.531,44.4227,-0.1376,0.2197,-0.5253,-0.0691
18:23:19:351,-8.688,-3.0461,-0.3131,44.4049,-0.2898,0.4572,-0.7074,-0.0736
18:23:19:370,-10.23,-2.952,0.687,44.5641,-0.4422,0.6575,-0.7234,-0.078
18:23:19:394,-11.564,-3.711,2.0921,45.0325,-0.5019,0.7107,-0.571,-0.0813
18:23:19:411,-12.0161,-4.5131,3.0071,45.3309,-0.4455,0.5754,-0.3985,-0.0835
18:23:19:431,-12.438,-5.1551,3.3251,45.2975,-0.3697,0.3827,-0.2993,-0.0849
18:23:19:450,-13.022,-5.265,3.2081,44.9775,-0.4188,0.0802,-0.1886,-0.0857
18:23:19:471,-13.1561,-4.86,3.449,45.7021,-0.6138,-0.3641,0.034,-0.0865
18:23:19:492,-12.897,-4.9781,4.043,45.4992,-0.7341,-0.8636,0.3301,-0.0878
18:23:19:510,-12.0641,-5.303,4.1561,45.4541,-0.5988,-1.3111,0.5485,-0.0906
18:23:19:531,-10.7741,-5.2121,2.9591,45.1932,-0.3102,-1.522,0.5805,-0.0946
18:23:19:551,-10.415,-5.021,1.412,45.0343,-0.0311,-1.1928,0.5805,-0.0985
18:23:19:571,-10.386,-5.7011,1.314,46.0734,0.2406,-0.3843,0.6678,-0.1016
18:23:19:593,-10.3091,-6.6581,2.475,45.9009,0.6006,0.4062,0.7338,-0.1023
18:23:19:611,-9.9791,-7.401,3.1121,45.8783,0.9096,0.7587,0.7232,-0.0993
18:23:19:631,-9.1241,-7.317,2.865,45.2945,0.9351,0.5627,0.6029,-0.0923
18:23:19:651,-8.492,-6.615,2.4011,44.4324,0.7018,0.1473,0.4324,-0.0828
18:23:19:671,-7.812,-5.595,2.4371,45.5796,0.4632,-0.2032,0.3249,-0.073
18:23:19:691,-7.1801,-4.6451,2.729,45.1569,0.5048,-0.315,0.2226,-0.0652
18:23:19:710,-6.969,-3.819,2.307,45.1747,0.803,-0.2266,0.1299,-0.0599
18:23:19:730,-6.969,-2.931,1.383,44.8183,1.0673,-0.0488,0.0916,-0.0548
18:23:19:750,-7.101,-1.935,0.7061,45.2593,1.144,0.11,0.1842,-0.0477
18:23:19:770,-7.008,-1.535,0.474,44.4542,1.1162,0.2496,0.443,-0.0384
18:23:19:792,-6.617,-2.184,0.399,44.7448,1.0576,0.371,0.7008,-0.0274
18:23:19:810,-6.213,-3.477,0.8831,45.3757,0.9767,0.4284,0.8404,-0.0149
18:23:19:830,-5.564,-4.382,1.52,46.0206,0.9746,0.487,0.8298,-0.0019
18:23:19:850,-5.3291,-5.093,1.877,45.8067,1.1674,0.5712,0.6519,0.0114
18:23:19:870,-5.5421,-5.5121,0.6431,45.8437,1.3271,0.5787,0.4623,0.025
18:23:19:893,-5.897,-6.287,-0.8831,46.5302,1.1407,0.5979,0.2886,0.0389
18:23:19:910,-6.711,-7.085,-1.4411,45.8243,0.6848,0.7013,0.0458,0.0525
18:23:19:931,-8.231,-7.6931,-0.7511,45.7763,0.1628,0.8375,-0.1642,0.0639
18:23:19:950,-9.347,-8.016,0.828,45.9385,-0.2505,0.8227,-0.2611,0.0722
18:23:19:970,-9.354,-7.9661,2.2361,46.6198,-0.5169,0.5712,-0.3217,0.077
18:23:19:993,-8.949,-7.319,2.9711,45.4871,-0.6244,0.128,-0.4059,0.0785
18:23:20:010,-9.074,-6.977,2.2331,46.7411,-0.6318,-0.2064,-0.473,0.0756
18:23:20:030,-9.3611,-6.8381,1.0391,46.0447,-0.7437,-0.3524,-0.5114,0.069
18:23:20:050,-9.0311,-5.751,0.7751,45.5114,-0.9578,-0.4153,-0.5391,0.0602
18:23:20:069,-9.306,-4.968,1.2881,46.3881,-1.1667,-0.3726,-0.4496,0.0503
18:23:20:092,-9.486,-5.5241,2.765,46.3467,-1.1676,-0.346,-0.2856,0.0386
18:23:20:109,-9.213,-6.333,3.545,45.8385,-0.8757,-0.3906,-0.2535,0.0262
18:23:20:129,-9.067,-6.477,3.1001,46.5241,-0.487,-0.3789,-0.3527,0.0144
18:23:20:150,-9.048,-5.634,1.929,46.0073,-0.3123,-0.4227,-0.4187,0.0037
18:23:20:171,-8.49,-4.6661,0.7031,45.9667,-0.4763,-0.5643,-0.3803,-0.0059
18:23:20:189,-7.503,-3.84,0.3971,46.3244,-0.8481,-0.7497,-0.3505,-0.0146
18:23:20:209,-6.701,-3.153,0.95,45.9396,-1.1485,-0.8818,-0.3708,-0.0234
18:23:20:229,-6.0521,-2.433,1.9121,45.5409,-1.1943,-0.8957,-0.4166,-0.0332
18:23:20:249,-5.748,-1.65,2.339,46.0386,-0.9515,-0.7732,-0.4858,-0.0442
18:23:20:269,-6.098,-1.295,2.1161,45.9973,-0.5914,-0.4408,-0.4911,-0.0558
18:23:20:289,-6.495,-1.47,2.102,45.989,-0.275,-0.0648,-0.4422,-0.0666
18:23:20:310,-6.957,-1.6211,2.171,45.9477,-0.0257,0.1569,-0.4038,-0.0754
18:23:20:330,-7.803,-2.109,1.85,45.9477,0.1096,0.2612,-0.3325,-0.0819
18:23:20:349,-8.423,-3.338,1.41,45.9297,0.084,0.3039,-0.2291,-0.086
18:23:20:369,-8.169,-4.508,1.292,45.9297,-0.0556,0.3167,-0.2376,-0.0879
18:23:20:393,-7.563,-4.4681,1.446,45.9297,-0.1301,0.2601,-0.4528,-0.0877
18:23:20:410,-8.631,-4.274,1.352,45.9781,-0.1173,0.338,-0.6072,-0.0869
18:23:20:429,-9.9431,-4.841,1.7111,45.6615,-0.0694,0.452,-0.5881,-0.0867
18:23:20:449,-10.913,-5.205,1.9001,46.7613,0.0232,0.5478,-0.5199,-0.0867
18:23:20:469,-11.636,-5.2991,2.2571,45.9476,0.0425,0.5723,-0.39,-0.0865
18:23:20:489,-11.8871,-5.15,2.738,45.9533,-0.0492,0.2837,-0.1759,-0.0858
18:23:20:508,-11.652,-5.4731,2.76,47.14,-0.2335,-0.1915,0.0553,-0.0847
18:23:20:530,-10.908,-6.065,2.6471,47.0753,-0.3816,-0.5719,0.1821,-0.084
18:23:20:549,-9.9191,-5.859,2.918,47.0516,-0.3486,-0.6922,0.1299,-0.0844
18:23:20:568,-10.3721,-5.088,2.82,46.7437,-0.0417,-0.4792,0.0638,-0.0862
18:23:20:589,-11.387,-5.615,2.628,46.2971,0.3695,0.0609,0.2321,-0.0885
18:23:20:610,-11.415,-6.7211,2.5901,46.2664,0.6944,0.5979,0.4378,-0.0891
18:23:20:629,-10.982,-7.745,3.002,46.2459,0.7998,0.844,0.5411,-0.0863
18:23:20:649,-10.0271,-7.889,3.6911,46.669,0.7583,0.6533,0.5103,-0.0799
18:23:20:669,-8.9951,-7.1351,3.854,46.3623,0.785,0.2271,0.3963,-0.0714
18:23:20:689,-8.0231,-5.8301,2.813,46.8062,0.8786,-0.0562,0.3088,-0.0624
18:23:20:709,-7.668,-4.7651,1.754,46.1142,0.9746,-0.0446,0.2875,-0.0539
18:23:20:729,-7.5011,-4.087,1.268,45.9152,1.0246,0.1015,0.3387,-0.0462
18:23:20:748,-7.094,-3.321,1.2731,45.8222,1.0363,0.1536,0.4293,-0.0374
18:23:20:769,-6.522,-2.715,1.0511,45.6739,0.9948,0.0663,0.5868,-0.0272
18:23:20:788,-5.825,-2.787,0.641,45.7058,0.868,-0.0488,0.7733,-0.0157
18:23:20:809,-5.145,-3.309,0.3491,46.3116,0.7094,-0.1094,0.8691,-0.004
18:23:20:838,-4.5971,-3.905,0.2681,45.7757,0.5868,-0.102,0.8426,0.0069
18:23:20:853,-4.3331,-4.4269,-0.021,46.3615,0.4942,-0.0242,0.7116,0.0168
18:23:20:868,-4.515,-5.0021,-0.069,45.8503,0.3844,0.1717,0.5134,0.0261
18:23:20:888,-5.114,-5.327,0.5261,45.1732,0.3066,0.3997,0.2801,0.0344
18:23:20:908,-6.174,-5.481,1.0271,45.1622,0.2683,0.5478,0.1182,0.0416
18:23:20:929,-7.214,-6.105,1.23,46.0184,0.2023,0.6106,0.0606,0.0478
18:23:20:949,-8.159,-7.247,1.3211,46.0036,0.0851,0.6533,-0.0096,0.0516
18:23:20:968,-9.048,-7.9661,2.063,45.9885,0.0062,0.6618,-0.1577,0.0535
18:23:20:989,-9.708,-7.494,2.6351,45.572,0.0488,0.551,-0.2898,0.0537
18:23:21:009,-9.969,-6.524,2.2361,44.7012,0.0894,0.323,-0.3036,0.0527
18:23:21:028,-10.451,-6.4811,0.9881,46.2073,-0.0203,0.1217,-0.2174,0.0509
18:23:21:049,-10.745,-7.274,0.248,45.3696,-0.3378,-0.0008,-0.1301,0.0483
18:23:21:068,-9.957,-6.393,0.821,45.5618,-0.6904,-0.1851,-0.1534,0.0454
18:23:21:089,-9.684,-5.282,1.86,44.7424,-0.9312,-0.3598,-0.098,0.0416
18:23:21:107,-9.306,-5.531,3.27,45.4098,-0.912,-0.5441,0.0362,0.0363
18:23:21:129,-8.703,-6.441,3.402,44.8547,-0.5275,-0.5984,-0.0033,0.0298
18:23:21:149,-8.648,-6.5411,2.003,44.5033,-0.0769,-0.3769,-0.1992,0.0232
18:23:21:168,-9.275,-6.0071,0.723,44.6671,0.0723,-0.036,-0.3217,0.0177
18:23:21:188,-9.368,-5.172,0.6461,44.4876,-0.1546,0.0268,-0.2472,0.0135
18:23:21:208,-8.229,-4.482,1.6301,43.9241,-0.5041,-0.2533,-0.1438,0.0103
18:23:21:229,-6.921,-3.606,2.451,44.5145,-0.6798,-0.6677,-0.1503,0.0067
18:23:21:249,-5.9591,-2.526,2.403,44.5054,-0.6031,-0.8924,-0.1833,0.0017
18:23:21:268,-5.597,-1.803,1.764,43.8597,-0.4038,-0.8594,-0.1981,-0.0044
18:23:21:287,-5.559,-1.523,1.1081,44.306,-0.1994,-0.6262,-0.1599,-0.0103
18:23:21:308,-5.49,-1.635,0.6791,43.7737,-0.0598,-0.3417,-0.1247,-0.0147
18:23:21:330,-5.643,-1.7891,0.507,44.3289,0.018,-0.0967,-0.1216,-0.0171
18:23:21:348,-6.002,-2.208,0.4901,44.2438,0.0084,0.0802,-0.113,-0.0183
18:23:21:367,-6.4331,-2.8661,0.881,44.2438,-0.0769,0.1739,-0.131,-0.0192
18:23:21:388,-7.185,-3.4241,1.472,43.5211,-0.1471,0.1962,-0.2109,-0.0199
18:23:21:409,-8.063,-3.5561,1.872,43.5098,-0.1673,0.1089,-0.3047,-0.0209
18:23:21:430,-9.299,-3.647,1.443,44.2438,-0.1716,0.0472,-0.3303,-0.0222
18:23:21:449,-10.326,-4.221,1.151,44.2438,-0.2622,0.1174,-0.2611,-0.0234
18:23:21:468,-11.171,-5.004,1.62,43.7065,-0.3825,0.2166,-0.1929,-0.0248
18:23:21:488,-11.6501,-5.646,2.552,43.69,-0.454,0.2559,-0.1449,-0.0266
18:23:21:509,-11.913,-5.7341,3.483,44.2001,-0.4465,0.0918,-0.1481,-0.0284
18:23:21:529,-12.024,-5.6051,3.639,43.6628,-0.3486,-0.1979,-0.1321,-0.0308
18:23:21:549,-11.585,-5.385,3.026,43.5741,-0.2122,-0.4014,-0.131,-0.0334
18:23:21:569,-11.028,-4.587,2.375,43.5741,-0.0524,-0.4025,-0.1779,-0.0359
18:23:21:587,-10.8311,-3.371,1.979,43.5741,0.1702,-0.2138,-0.1716,-0.0387
18:23:21:607,-11.727,-3.287,1.398,43.404,0.4441,0.2761,0.0586,-0.041
18:23:21:630,-12.284,-5.112,1.493,43.4472,0.542,0.765,0.3952,-0.0415
18:23:21:648,-12.404,-6.951,2.346,43.4455,0.4164,0.9142,0.6295,-0.0388
18:23:21:668,-11.451,-7.5401,3.734,42.7669,0.264,0.6181,0.6923,-0.033
18:23:21:688,-10.242,-6.8381,3.84,42.1464,0.1798,0.045,0.6582,-0.0256
18:23:21:709,-8.758,-5.967,3.291,42.9584,0.2023,-0.3406,0.6615,-0.0185
18:23:21:731,-7.527,-5.528,2.375,42.1666,0.3769,-0.396,0.5996,-0.0123
18:23:21:747,-6.426,-4.628,1.695,42.8325,0.6284,-0.216,0.4804,-0.0072
18:23:21:768,-5.612,-3.4721,1.1321,42.1697,0.868,0.012,0.3739,-0.0025
18:23:21:788,-5.186,-2.586,0.5861,42.359,0.9991,0.1664,0.3418,0.0029
18:23:21:808,-4.908,-2.3201,-0.038,42.3185,0.9618,0.1782,0.3664,0.0095
18:23:21:831,-4.827,-2.4611,-0.5621,42.3553,0.7552,0.1345,0.3759,0.0175
18:23:21:848,-5.0441,-2.9381,-0.311,42.3259,0.4866,0.1291,0.3568,0.0258
18:23:21:868,-5.3531,-3.6971,0.5291,42.4241,0.345,0.1686,0.2993,0.0333
18:23:21:887,-5.523,-4.425,0.869,42.3982,0.3674,0.2292,0.1726,0.0399
18:23:21:907,-5.88,-4.65,0.6911,42.579,0.3876,0.3113,-0.0011,0.0456
18:23:21:927,-6.701,-4.7359,0.4301,42.563,0.312,0.3721,-0.1268,0.0506
18:23:21:947,-7.776,-5.4131,0.464,41.8028,0.1287,0.4125,-0.1716,0.0548
18:23:21:967,-8.8271,-6.6491,0.95,41.8064,-0.0459,0.4338,-0.2227,0.0577
18:23:21:987,-9.737,-7.5131,1.611,41.8064,-0.1376,0.4051,-0.3505,0.0585
18:23:22:007,-9.996,-7.094,1.869,41.7942,-0.2153,0.2377,-0.4593,0.0573
18:23:22:027,-9.818,-6.125,1.8671,41.6542,-0.3453,-0.0199,-0.49,0.0545
18:23:22:047,-10.0001,-6.129,1.481,42.2819,-0.47,-0.2362,-0.4667,0.0499
18:23:22:068,-10.029,-7.0511,0.7661,41.4727,-0.715,-0.4034,-0.4943,0.0437
18:23:22:087,-9.83,-7.0151,1.541,42.1192,-1.0505,-0.4727,-0.6276,0.0362
18:23:22:109,-9.644,-5.4611,3.0311,42.0164,-1.1122,-0.4983,-0.6765,0.027
18:23:22:128,-9.7301,-4.779,4.2611,41.3137,-0.8694,-0.4781,-0.5199,0.016
18:23:22:149,-9.692,-5.306,4.364,41.2628,-0.3123,-0.4045,-0.3751,0.0044
18:23:22:167,-9.7301,-5.852,2.894,41.2475,0.279,-0.1467,-0.3783,-0.0058
18:23:22:188,-10.1201,-5.634,1.2371,41.2569,0.4888,0.1408,-0.3686,-0.013
18:23:22:208,-10.032,-5.054,0.902,41.2423,0.2427,0.1217,-0.2194,-0.0168
18:23:22:230,-8.9711,-4.623,1.323,40.553,-0.1877,-0.2905,-0.0235,-0.0185
18:23:22:249,-7.3721,-3.975,1.8311,41.2417,-0.5158,-0.8178,0.0415,-0.0194
18:23:22:268,-5.9831,-3.041,1.7471,40.5985,-0.5519,-1.0651,0.0148,-0.0208
18:23:22:288,-5.214,-2.3921,1.338,40.6198,-0.4199,-1,-0.0619,-0.024
18:23:22:309,-4.977,-1.956,0.9761,40.0945,-0.2014,-0.6868,-0.1268,-0.0281
18:23:22:330,-5.1761,-1.86,0.711,40.0945,0.0158,-0.2597,-0.1609,-0.0318
18:23:22:349,-5.801,-2.057,0.77,40.7986,0.1778,0.1163,-0.1684,-0.0343
18:23:22:369,-6.234,-2.4641,0.914,40.1315,0.2214,0.3039,-0.1429,-0.0354
18:23:22:387,-6.57,-2.9621,1.1321,40.1055,0.2034,0.3741,-0.1523,-0.0354
18:23:22:407,-7.1321,-3.527,1.3331,40.1055,0.1756,0.3923,-0.1918,-0.0346
18:23:22:429,-7.752,-4.046,1.4501,40.1055,0.1596,0.3891,-0.2546,-0.0335
18:23:22:448,-8.6,-4.209,1.28,40.121,0.133,0.371,-0.3334,-0.0323
18:23:22:468,-9.567,-4.482,1.2011,40.121,0.0488,0.3752,-0.3453,-0.0311
18:23:22:487,-10.491,-4.8941,1.4891,40.12,-0.0832,0.3486,-0.3036,-0.0295
18:23:22:509,-11.229,-5.454,2.1041,40.2196,-0.2175,0.2794,-0.2185,-0.0275
18:23:22:529,-11.4611,-5.619,2.861,40.2105,-0.3037,0.0876,-0.1364,-0.0254
18:23:22:549,-11.573,-5.576,3.021,40.3454,-0.3315,-0.1968,-0.0426,-0.0239
18:23:22:568,-11.042,-5.82,2.7791,41.0473,-0.3517,-0.3821,0.0436,-0.0233
18:23:22:588,-10.403,-5.8421,2.6351,40.3454,-0.3517,-0.4514,-0.0085,-0.0237
18:23:22:609,-9.9671,-4.6781,2.954,39.8805,-0.1812,-0.3992,-0.1216,-0.0254
18:23:22:629,-10.956,-4.0181,2.583,39.9062,0.181,-0.0136,-0.1077,-0.0281
18:23:22:647,-12.32,-4.6661,2.4491,40.5325,0.4686,0.4828,0.1576,-0.0302
18:23:22:668,-12.792,-6.3071,2.729,39.7268,0.5559,0.8152,0.4984,-0.0299
18:23:22:688,-11.921,-7.446,3.5291,40.2049,0.4664,0.7619,0.703,-0.0262
18:23:22:708,-10.5461,-7.3961,4.311,39.5147,0.3248,0.3273,0.7349,-0.0195
18:23:22:729,-8.868,-6.627,4.175,39.4974,0.2705,-0.3044,0.6913,-0.0117
18:23:22:749,-7.257,-5.459,3.1601,38.768,0.3279,-0.6816,0.5901,-0.0045
18:23:22:769,-6.2081,-4.554,2.181,39.4089,0.5186,-0.624,0.4591,0.0013
18:23:22:788,-5.516,-3.7181,1.596,38.737,0.8701,-0.1563,0.3142,0.0056
18:23:22:808,-5.564,-3.012,1.3901,39.3905,1.2867,0.5307,0.213,0.0089
18:23:22:828,-6.153,-2.5601,1.572,39.4655,1.5924,0.9589,0.2406,0.0132
18:23:22:872,-6.249,-2.4761,1.07,39.5779,1.6276,0.9452,0.3835,0.0226
18:23:22:874,-6.012,-2.871,0.471,39.7984,1.3655,0.7065,0.5123,0.0365
18:23:22:886,-5.882,-3.5051,0.308,40.589,1.0076,0.4615,0.5603,0.0516
18:23:22:907,-5.945,-4.1681,0.5089,39.9724,0.737,0.3369,0.5379,0.066
18:23:22:930,-6.107,-4.676,0.6581,39.9181,0.5911,0.3315,0.4643,0.0788
18:23:22:948,-6.273,-4.853,0.8471,39.9048,0.4814,0.3252,0.3622,0.0898
18:23:22:967,-6.522,-4.904,0.5861,39.951,0.3461,0.2751,0.2823,0.0993
18:23:22:989,-6.842,-5.7011,0.581,39.9359,0.1489,0.2826,0.2087,0.1071
18:23:23:007,-7.4981,-6.737,0.909,40.7526,0.0169,0.3508,0.0553,0.1132
18:23:23:029,-8.4371,-7.4201,1.254,40.8316,-0.0524,0.4306,-0.1523,0.1172
18:23:23:049,-9.119,-7.425,1.458,39.949,-0.1525,0.3295,-0.3367,0.1193
18:23:23:068,-9.641,-6.884,1.278,40.5463,-0.325,0.0737,-0.4581,0.1198
18:23:23:087,-10.316,-6.948,0.701,39.7721,-0.5349,-0.1041,-0.4795,0.1182
18:23:23:107,-10.829,-7.628,0.3491,39.639,-0.8375,-0.1947,-0.4837,0.1134
18:23:23:129,-10.364,-6.711,1.1081,40.274,-1.173,-0.3619,-0.5497,0.1057
18:23:23:154,-9.852,-4.9061,2.2451,40.2144,-1.3808,-0.5878,-0.5391,0.0955
18:23:23:168,-9.993,-4.2431,3.4061,39.4525,-1.3137,-0.7763,-0.3633,0.0837
18:23:23:188,-10.197,-5.112,3.4691,40.1213,-0.8992,-0.7487,-0.1705,0.0707
18:23:23:209,-9.938,-5.888,2.097,40.0707,-0.4518,-0.4844,-0.1077,0.0582
18:23:23:230,-9.5291,-5.8091,0.845,39.3977,-0.3964,-0.2106,-0.114,0.048
18:23:23:247,-8.8421,-5.1311,1.22,39.5204,-0.7128,-0.2394,-0.081,0.0402
18:23:23:268,-7.707,-4.329,2.307,40.2361,-1.0186,-0.5845,-0.0437,0.0331
18:23:23:287,-6.579,-3.314,2.841,39.6508,-1.1293,-0.9756,-0.0789,0.0251
18:23:23:308,-5.844,-2.375,2.652,39.987,-1.0314,-1.1544,-0.1119,0.0159
18:23:23:330,-5.552,-1.868,2.262,39.4753,-0.7714,-0.9681,-0.1279,0.0057
18:23:23:348,-5.4161,-1.7021,1.893,39.4667,-0.4284,-0.5452,-0.1182,-0.0045
18:23:23:368,-5.471,-1.935,1.778,39.4582,-0.1376,-0.0989,-0.129,-0.0132
18:23:23:387,-5.799,-2.2151,1.953,39.4415,0.0382,0.1419,-0.1684,-0.0194
18:23:23:407,-6.447,-2.402,1.953,39.4415,0.0776,0.1365,-0.2046,-0.0233
18:23:23:430,-7.34,-2.732,1.74,39.5356,-0.047,-0.019,-0.2024,-0.0256
18:23:23:447,-7.949,-3.278,1.874,39.5356,-0.2047,-0.1532,-0.1961,-0.0273
18:23:23:468,-8.42,-3.417,2.324,39.5356,-0.1482,-0.1211,-0.2696,-0.0293
18:23:23:487,-9.6011,-3.417,1.869,39.519,0.0542,0.0386,-0.2951,-0.0308
18:23:23:507,-10.331,-4.0511,1.11,39.519,0.0605,0.1984,-0.2046,-0.0312
18:23:23:528,-10.575,-5.042,1.2761,39.519,-0.1514,0.2527,-0.1631,-0.0306
18:23:23:547,-10.8461,-5.6171,2.181,39.0195,-0.3432,0.1825,-0.2365,-0.0298
18:23:23:568,-11.2361,-5.229,2.925,39.0026,-0.4177,-0.0082,-0.3207,-0.0297
18:23:23:587,-11.76,-4.8011,2.8631,39.0026,-0.4124,-0.1638,-0.2834,-0.0307
18:23:23:607,-11.808,-4.599,2.8751,39.0026,-0.3911,-0.1691,-0.1748,-0.0328
18:23:23:630,-11.403,-4.214,3.275,38.9858,-0.3006,-0.1489,-0.0895,-0.036
18:23:23:650,-11.619,-3.654,3.318,38.9777,-0.0502,-0.0008,-0.0118,-0.0394
18:23:23:669,-12.612,-4.2311,3.174,38.4963,0.2086,0.3358,0.2471,-0.0409
18:23:23:687,-12.77,-5.564,3.306,38.9067,0.3439,0.6223,0.5816,-0.0421
18:23:23:707,-12.282,-6.927,3.9401,38.1121,0.3556,0.7726,0.8011,-0.04
18:23:23:729,-11.298,-7.4921,5.051,38.0952,0.4025,0.6192,0.8671,-0.0346
18:23:23:748,-9.8351,-6.867,5.432,38.6404,0.5708,0.1239,0.8053,-0.0271
18:23:23:768,-8.169,-5.3801,4.151,37.8986,0.7435,-0.3832,0.7371,-0.0185
18:23:23:787,-6.792,-4.338,2.9681,39.0977,0.8541,-0.6304,0.6999,-0.0098
18:23:23:807,-5.6,-3.6971,2.0231,38.4672,1.0267,-0.6134,0.6274,-0.0018
18:23:23:831,-4.896,-3.275,0.9191,39.1045,1.1844,-0.3769,0.5166,0.0057
18:23:23:849,-4.664,-2.9381,0.141,38.4199,1.2057,-0.0648,0.4313,0.013
18:23:23:869,-4.74,-2.7581,-0.1841,39.1712,1.0864,0.1995,0.4048,0.0209
18:23:23:887,-5.2571,-2.9861,0.093,39.1302,0.8882,0.3337,0.4293,0.0297
18:23:23:907,-5.574,-3.455,0.5,38.4586,0.6614,0.2826,0.4932,0.0391
18:23:23:931,-5.7701,-4.13,0.6431,38.4293,0.4302,0.1632,0.5379,0.0484
18:23:23:948,-5.8271,-5.033,0.83,39.2552,0.2182,0.0822,0.5177,0.057
18:23:23:968,-5.765,-5.667,1.122,39.2552,0.1064,0.0705,0.3941,0.0644
18:23:23:987,-5.88,-5.8301,1.278,39.2409,0.1255,0.1143,0.1928,0.0704
18:23:24:008,-6.536,-6.326,0.8921,39.2409,0.2001,0.2985,0.0137,0.075
18:23:24:029,-7.3571,-7.2431,0.6581,39.229,0.2512,0.5734,-0.1705,0.0781
18:23:24:050,-8.449,-8.057,0.5981,39.2194,0.2651,0.8535,-0.4261,0.0792
18:23:24:068,-9.7271,-8.033,0.9791,37.9635,0.2512,1.0101,-0.6744,0.0793
18:23:24:089,-10.616,-7.061,1.086,39.3352,0.1906,0.8568,-0.782,0.0784
18:23:24:108,-11.267,-6.737,0.0641,39.321,-0.0641,0.5627,-0.6999,0.0766
18:23:24:130,-11.186,-7.061,-0.4091,37.8439,-0.6105,0.2623,-0.6094,0.0739
18:23:24:147,-10.2761,-5.9381,0.6461,38.5402,-1.1784,-0.1297,-0.619,0.0696
18:23:24:169,-9.933,-4.9661,1.9631,38.5411,-1.5,-0.4375,-0.5807,0.0627
18:23:24:187,-9.672,-4.848,3.536,38.4345,-1.4553,-0.6251,-0.4539,0.0527
18:23:24:207,-9.416,-5.409,4.0601,38.5106,-0.9482,-0.5793,-0.3911,0.0405
18:23:24:229,-9.1,-5.708,2.7461,38.4735,-0.323,-0.2703,-0.4485,0.028
18:23:24:249,-9.1961,-5.66,1.364,38.458,-0.095,0.1015,-0.4965,0.0173
18:23:24:268,-8.99,-5.4641,1.635,37.8582,-0.2355,0.1675,-0.4837,0.0093
18:23:24:288,-8.2331,-4.4681,2.238,38.0967,-0.4444,-0.1649,-0.4806,0.0032
18:23:24:311,-7.3211,-3.0701,2.049,38.1596,-0.6937,-0.6933,-0.4602,-0.0027
18:23:24:331,-6.416,-1.863,1.7861,37.7326,-0.8609,-1.0959,-0.4091,-0.0097
18:23:24:348,-5.7941,-1.173,1.673,38.4704,-0.8077,-1.1023,-0.3548,-0.0175
18:23:24:368,-5.475,-1.061,1.436,38.5262,-0.5849,-0.8221,-0.2951,-0.0258
18:23:24:387,-5.3051,-1.535,1.206,38.056,-0.308,-0.3704,-0.2739,-0.0334
18:23:24:407,-5.4371,-2.0381,1.218,37.2922,-0.0609,0.0663,-0.3612,-0.0391
18:23:24:431,-6.3041,-2.2031,1.4261,38.6584,0.1107,0.3636,-0.4581,-0.0429
18:23:24:447,-7.424,-2.397,1.73,37.9157,0.2417,0.5393,-0.4656,-0.0458
18:23:24:467,-8.324,-2.9831,1.733,39.1838,0.3301,0.5862,-0.3996,-0.0475
18:23:24:488,-8.526,-3.5891,1.628,37.8975,0.3205,0.4839,-0.3505,-0.0476
18:23:24:508,-9.1481,-4.2431,1.268,37.2995,0.2757,0.4008,-0.3708,-0.0459
18:23:24:531,-10.173,-5.102,1.125,37.896,0.1479,0.371,-0.3877,-0.0435
18:23:24:548,-11.2691,-5.787,1.608,38.5704,-0.0576,0.3017,-0.3495,-0.0413
18:23:24:568,-11.66,-6.122,2.774,38.0548,-0.1983,0.1323,-0.2654,-0.0398
18:23:24:588,-11.444,-5.799,3.402,38.2248,-0.2153,-0.2223,-0.1822,-0.0394
18:23:24:608,-11.3531,-6.05,2.729,38.2247,-0.2218,-0.5719,-0.0927,-0.0402
18:23:24:629,-10.8071,-6.596,2.216,38.2247,-0.2728,-0.705,-0.0693,-0.0422
18:23:24:649,-9.8951,-6.062,2.612,38.4012,-0.1067,-0.6144,-0.1811,-0.0451
18:23:24:668,-10.005,-5.655,1.9841,38.39,0.2907,-0.2118,-0.2291,-0.0488
18:23:24:688,-10.2731,-6.228,1.352,38.9227,0.6198,0.4487,-0.131,-0.0518
18:23:24:707,-10.695,-7.2431,1.304,38.1485,0.7211,1.0049,-0.0437,-0.0525
18:23:24:727,-11.037,-8.294,2.216,38.6611,0.6124,1.2371,0.0159,-0.0498
18:23:24:750,-10.755,-8.174,3.3851,37.7881,0.4888,1.0208,0.0043,-0.0445
18:23:24:769,-9.95,-6.965,3.89,37.7768,0.3598,0.4711,0.0254,-0.038
18:23:24:788,-8.643,-5.615,3.744,37.6455,0.3226,-0.0573,0.1288,-0.0319
18:23:24:808,-7.2401,-4.707,2.999,38.2235,0.4558,-0.2777,0.1981,-0.027
18:23:24:830,-6.242,-3.891,2.0201,38.1289,0.6614,-0.2342,0.1939,-0.023
18:23:24:850,-6.1031,-3.192,1.139,38.7325,0.8243,-0.0019,0.1885,-0.0191
18:23:24:883,-6.3401,-2.8181,0.708,37.9822,0.851,0.2346,0.3079,-0.014
18:23:24:886,-5.9351,-2.976,0.7871,38.6381,0.7392,0.2932,0.4889,-0.0072
18:23:24:907,-5.313,-3.359,1.2251,37.9252,0.639,0.2644,0.5709,0.001
18:23:24:927,-4.9391,-3.5171,1.6511,37.8991,0.6517,0.2368,0.557,0.0096
18:23:24:947,-5.1401,-3.8141,1.6511,38.5601,0.7211,0.209,0.5123,0.0183
18:23:24:969,-5.676,-4.391,1.11,39.2972,0.7626,0.1962,0.5123,0.027
18:23:24:987,-6.081,-5.2001,0.363,38.6451,0.6688,0.2282,0.5188,0.0359
18:23:25:007,-6.483,-5.952,0.1841,38.6051,0.4729,0.3198,0.4847,0.0447
18:23:25:028,-6.8831,-6.74,0.464,39.3812,0.2629,0.3741,0.4282,0.0532
18:23:25:048,-7.688,-7.9871,0.557,40.0027,0.0477,0.4179,0.3333,0.0599
18:23:25:067,-8.4469,-9.1391,1.182,38.719,-0.1621,0.4455,0.1715,0.0645
18:23:25:088,-8.712,-9.026,1.898,39.4054,-0.2824,0.3411,-0.0298,0.0672
18:23:25:108,-8.961,-8.126,2.1371,39.4073,-0.2952,0.1621,-0.1875,0.0678
18:23:25:129,-9.9641,-7.9661,1.1921,38.7145,-0.3453,0.0227,-0.2078,0.0664
18:23:25:147,-10.187,-8.375,0.737,39.42,-0.6201,-0.0562,-0.1258,0.0634
18:23:25:168,-8.178,-7.1351,2.0201,38.7662,-0.9312,-0.2948,-0.1503,0.0593
18:23:25:190,-7.307,-5.976,3.2531,39.4447,-0.8737,-0.4546,-0.2696,0.0541
18:23:25:208,-8.028,-6.369,3.581,39.3869,-0.437,-0.4173,-0.3953,0.047
18:23:25:228,-9.201,-6.7331,2.1881,39.3713,0.0553,-0.2746,-0.5434,0.0393
18:23:25:248,-10.685,-6.51,0.8711,39.3542,0.2097,0.0364,-0.5455,0.0322
18:23:25:268,-10.968,-5.8661,0.7391,38.7167,0.0062,0.1174,-0.3175,0.0267
18:23:25:288,-9.1961,-5.351,1.07,38.7167,-0.4038,-0.216,-0.0544,0.0233
18:23:25:308,-6.996,-4.7981,1.6751,38.8546,-0.781,-0.641,-0.0374,0.0212
18:23:25:327,-5.7911,-3.671,2.6381,38.8394,-0.8151,-0.8573,-0.1918,0.0168
18:23:25:347,-5.688,-2.4491,2.801,38.8407,-0.4774,-0.7743,-0.3112,0.01
18:23:25:369,-6.038,-1.772,2.288,38.2766,-0.0289,-0.5004,-0.2782,0.0024
18:23:25:387,-5.784,-1.571,1.2641,38.8309,0.2725,-0.2607,-0.1779,-0.0039
18:23:25:409,-5.6411,-1.568,0.603,38.8734,0.3131,-0.133,-0.1534,-0.0072
18:23:25:428,-5.775,-1.7261,0.399,38.8572,0.2332,-0.0807,-0.1364,-0.0082
18:23:25:448,-6.0311,-2.234,0.816,38.1333,0.1873,0.0685,-0.1088,-0.0086
18:23:25:468,-6.8261,-3.5891,1.4,38.1101,0.3174,0.2889,-0.1557,-0.0086
18:23:25:487,-7.8191,-4.5131,1.335,38.1171,0.5144,0.4359,-0.2919,-0.0079
18:23:25:508,-8.87,-4.396,0.6581,38.012,0.5996,0.5116,-0.4241,-0.0061
18:23:25:528,-10.1921,-4.092,0.1571,37.9866,0.4408,0.5669,-0.3601,-0.0034
18:23:25:547,-10.91,-4.7861,0.639,37.9967,0.1053,0.5116,-0.1194,-0.0002
18:23:25:569,-11.0921,-6.2081,1.4861,37.9866,-0.2441,0.3167,0.0681,0.0029
18:23:25:588,-10.5851,-6.9791,2.4581,38.6886,-0.5232,0.0216,0.114,0.0064
18:23:25:609,-9.974,-6.369,3.311,38.6727,-0.6605,-0.3354,0.0425,0.0087
18:23:25:631,-10.175,-5.528,3.483,38.1029,-0.6787,-0.639,0.0404,0.0079
18:23:25:648,-10.166,-5.399,3.557,38.0683,-0.6084,-0.8338,0.1331,0.0049
18:23:25:670,-9.617,-5.354,3.3251,38.0686,-0.3816,-0.8264,0.1522,0.0003
18:23:25:687,-10.0481,-5.636,2.8841,38.0343,-0.0311,-0.4716,0.1448,-0.0048
18:23:25:707,-10.764,-6.548,2.738,37.3158,0.3769,0.1526,0.2397,-0.009
18:23:25:728,-11.5571,-7.6661,2.355,37.9642,0.6369,0.7065,0.3813,-0.0105
18:23:25:748,-11.2211,-8.4401,2.5301,38.0263,0.5027,0.8343,0.5442,-0.0081
18:23:25:770,-9.945,-8.2271,3.1361,37.4783,0.2384,0.5754,0.6007,-0.0023
18:23:25:788,-8.3081,-7.365,3.5261,38.1017,0.0766,0.1302,0.5485,0.0048
18:23:25:807,-6.593,-6.194,3.272,37.5831,0.0766,-0.2555,0.3994,0.0114
18:23:25:827,-5.4971,-4.772,2.6591,38.1519,0.2299,-0.3886,0.1821,0.0163
18:23:25:847,-5.255,-3.512,1.754,38.1697,0.4175,-0.3172,0.05,0.0193
18:23:25:867,-5.0231,-2.703,1.268,37.5009,0.5633,-0.0892,0.0287,0.0214
18:23:25:888,-5.088,-2.339,1.2971,38.1986,0.7327,0.1792,0.0458,0.0237
18:23:25:907,-5.3441,-2.466,1.007,36.9146,0.899,0.3528,0.1033,0.0284
18:23:25:928,-5.585,-2.5241,0.368,37.806,0.9149,0.4062,0.1726,0.0357
18:23:25:947,-5.873,-2.871,-0.287,37.7792,0.7018,0.3816,0.278,0.0438
18:23:25:969,-6.0521,-3.651,0.057,37.915,0.3472,0.3326,0.36,0.052
18:23:25:988,-6.206,-4.482,1.266,38.6884,0.1617,0.3124,0.3514,0.0596
18:23:26:008,-6.519,-4.968,2.006,38.8294,0.2256,0.2932,0.2599,0.0662
18:23:26:028,-7.017,-5.1881,1.6781,38.8294,0.3311,0.2964,0.1874,0.0718
18:23:26:048,-7.884,-5.957,0.972,38.0333,0.246,0.3198,0.1661,0.0765
18:23:26:068,-8.8631,-7.346,0.8831,38.021,0.0126,0.3688,0.1587,0.0802
18:23:26:089,-9.632,-8.84,1.46,38.0245,-0.1823,0.4583,0.0595,0.0829
18:23:26:108,-9.735,-8.844,2.513,38.0122,-0.2622,0.3645,-0.162,0.0845
18:23:26:128,-9.677,-7.073,2.664,38.0087,-0.2185,0.0472,-0.3462,0.0847
18:23:26:147,-10.182,-6.134,1.1681,37.995,-0.258,-0.1756,-0.3036,0.0832
18:23:26:167,-10.223,-6.558,-0.023,37.2377,-0.5925,-0.2809,-0.1673,0.0803
18:23:26:187,-9.153,-5.775,0.536,37.7748,-1.0164,-0.428,-0.1588,0.0763
18:23:26:208,-9.1241,-5.04,2.037,37.7413,-1.2295,-0.4792,-0.129,0.0706
18:23:26:228,-9.423,-5.861,3.696,37.6109,-1.0366,-0.4844,-0.0512,0.0621
18:23:26:249,-9.617,-6.951,3.524,37.6439,-0.4998,-0.3598,-0.1375,0.0524
18:23:26:268,-10.343,-6.9311,2.1161,37.618,-0.0524,-0.0562,-0.2993,0.0431
18:23:26:289,-10.977,-6.06,1.395,38.2184,0.036,0.1856,-0.2739,0.0349
18:23:26:307,-10.5011,-5.301,1.671,37.618,-0.1354,0.1035,-0.0693,0.029
18:23:26:328,-8.679,-4.686,2.1971,37.6332,-0.3964,-0.3278,0.0916,0.0262
18:23:26:348,-6.864,-3.788,2.4341,36.9071,-0.5061,-0.8243,0.0586,0.024
18:23:26:368,-5.813,-2.739,1.845,36.8999,-0.3569,-1.048,-0.0331,0.0207
18:23:26:388,-5.193,-1.82,0.995,36.8879,-0.1184,-0.9031,-0.0799,0.0161
18:23:26:408,-4.9871,-1.193,0.26,36.8879,0.0925,-0.5622,-0.0832,0.0117
18:23:26:427,-5.3411,-0.857,-0.002,36.8698,0.1852,-0.265,-0.0363,0.0085
18:23:26:448,-5.787,-0.762,-0.414,36.8698,0.1255,-0.1361,0.0723,0.0067
18:23:26:468,-6.045,-1.13,-0.3401,36.8854,-0.0619,-0.0349,0.2183,0.0063
18:23:26:488,-6.4931,-2.3921,0.3941,36.8698,-0.2185,0.1526,0.3312,0.0064
18:23:26:510,-7.005,-4.0631,1.587,36.9087,-0.2346,0.3912,0.3494,0.0069
18:23:26:531,-7.436,-5.4611,2.7581,37.5484,-0.0683,0.5499,0.2119,0.0079
18:23:26:549,-8.013,-6.141,2.81,37.5469,0.0925,0.4828,-0.0256,0.0084
18:23:26:570,-8.547,-6.1961,2.523,37.5484,0.0531,0.3092,-0.2302,0.0086
18:23:26:587,-9.299,-5.967,2.633,37.5376,-0.0726,0.0833,-0.3794,0.0078
18:23:26:607,-10.154,-5.7701,2.681,38.2191,-0.1716,-0.151,-0.4422,0.0055
18:23:26:628,-10.7711,-5.358,2.353,37.5985,-0.2952,-0.3949,-0.4241,0.0024
18:23:26:648,-11.4821,-5.6861,2.135,37.5873,-0.5019,-0.5441,-0.3101,-0.0007
18:23:26:667,-11.7191,-6.5081,2.669,37.5529,-0.6585,-0.608,-0.1875,-0.0044
18:23:26:688,-10.7,-6.441,3.584,37.5696,-0.6053,-0.6368,-0.195,-0.0093
18:23:26:710,-10.3241,-5.246,3.746,37.554,-0.2611,-0.5037,-0.2845,-0.0155
18:23:26:732,-11.3051,-4.959,2.8991,37.5383,0.1458,-0.1532,-0.1481,-0.0219
18:23:26:747,-11.435,-6.069,1.908,37.5383,0.3024,0.2368,0.1097,-0.0268
18:23:26:768,-10.944,-7.482,2.4731,37.5231,0.2214,0.5202,0.2278,-0.0288
18:23:26:787,-10.02,-7.707,3.653,37.5231,0.1991,0.4594,0.1661,-0.0279
18:23:26:807,-8.925,-6.7301,3.9671,37.5433,0.2864,0.176,0.034,-0.0254
18:23:26:826,-7.731,-5.421,3.062,37.5287,0.3759,-0.087,-0.065,-0.0225
18:23:26:848,-6.833,-4.2671,2.3051,37.5163,0.4493,-0.1382,-0.1396,-0.02
18:23:26:868,-6.2321,-3.3071,1.8881,37.501,0.6167,0.0077,-0.177,-0.0184
18:23:26:897,-5.973,-2.435,1.563,37.5413,0.8575,0.2815,-0.1759,-0.0155
18:23:26:907,-5.892,-1.853,1.0961,37.7117,0.9926,0.4509,-0.0969,-0.0104
18:23:26:930,-5.82,-1.628,0.627,37.0951,0.934,0.4253,0.0415,-0.003
18:23:26:949,-5.667,-1.9511,0.2891,37.8353,0.7615,0.3486,0.197,0.006
18:23:26:968,-5.739,-2.921,0.359,37.8213,0.5963,0.3528,0.2801,0.0152
18:23:26:988,-6.411,-4.164,0.6551,38.0858,0.5292,0.4988,0.2801,0.0237
18:23:27:007,-7.137,-5.052,0.881,38.0843,0.5122,0.6714,0.2321,0.0316
18:23:27:027,-7.515,-4.932,1.1681,38.9026,0.3802,0.7172,0.1863,0.0394
18:23:27:048,-8.1041,-4.652,1.9481,38.8875,0.2236,0.6394,0.2247,0.0466
18:23:27:068,-8.945,-5.4161,2.331,38.9481,0.132,0.4657,0.3546,0.0529
18:23:27:088,-9.32,-6.9311,2.0201,39.758,0.051,0.2772,0.4558,0.0582
18:23:27:108,-9.56,-8.33,1.647,38.9218,-0.0481,0.2123,0.3909,0.0629
18:23:27:127,-9.6131,-8.5091,1.6181,39.0602,-0.1525,0.1814,0.2067,0.0664
18:23:27:148,-9.699,-7.1921,2.054,38.8847,-0.2057,0.0705,0.0595,0.0675
18:23:27:168,-10.07,-6.297,1.4621,38.8847,-0.209,-0.0701,0.0905,0.0663
18:23:27:187,-9.8471,-6.333,0.296,38.8847,-0.3986,-0.1925,0.2076,0.0638
18:23:27:208,-8.6569,-5.904,0.134,39.5093,-0.7991,-0.3417,0.2364,0.0615
18:23:27:228,-8.15,-5.555,1.2731,40.098,-1.1315,-0.429,0.2278,0.0585
18:23:27:249,-8.181,-6.5441,3.2441,39.3342,-1.092,-0.4119,0.1939,0.0531
18:23:27:268,-8.2121,-7.523,4.094,39.3018,-0.6095,-0.3108,-0.0161,0.0457
18:23:27:287,-8.787,-7.322,3.198,39.2869,-0.0161,-0.0701,-0.3292,0.0379
18:23:27:308,-9.672,-6.228,1.9031,39.2057,0.2725,0.159,-0.4593,0.0312
18:23:27:328,-9.854,-4.892,1.467,38.4574,0.2236,0.1803,-0.3548,0.026
18:23:27:349,-8.7461,-3.84,1.374,38.4602,-0.0087,-0.0785,-0.146,0.023
18:23:27:368,-7.185,-3.084,1.4651,39.1797,-0.2813,-0.4781,-0.0213,0.0216
18:23:27:389,-5.966,-2.442,1.4891,39.0965,-0.3825,-0.7103,0.0254,0.0202
18:23:27:407,-5.064,-1.983,1.326,39.0477,-0.3048,-0.7061,0.0074,0.0178
18:23:27:431,-4.613,-1.59,0.993,38.3579,-0.1291,-0.5004,-0.0544,0.0145
18:23:27:447,-4.8221,-1.5371,0.6551,39.0119,0.036,-0.1756,-0.113,0.0125
18:23:27:467,-5.456,-1.7501,0.648,39.0837,0.115,0.0844,-0.1492,0.0122
18:23:27:487,-6.0671,-2.028,1.062,39.0032,0.1277,0.2144,-0.1546,0.0123
18:23:27:508,-6.821,-2.603,1.3571,38.3579,0.1405,0.2879,-0.1514,0.0126
18:23:27:526,-7.616,-3.501,1.5701,38.3593,0.1469,0.3284,-0.1481,0.0131
18:23:27:547,-8.123,-4.1471,1.6541,38.4175,0.1352,0.3092,-0.1748,0.014
18:23:27:566,-8.72,-4.707,1.481,39.1406,0.0957,0.3092,-0.2067,0.0159
18:23:27:586,-9.198,-5.243,1.553,39.1529,-0.0161,0.2985,-0.243,0.0181
18:23:27:609,-9.845,-5.516,1.8311,38.4175,-0.1844,0.1942,-0.2856,0.0193
18:23:27:626,-10.7231,-5.775,2.2361,39.041,-0.3666,0.0396,-0.2813,0.0195
18:23:27:646,-11.8031,-5.454,2.7701,38.3579,-0.4913,-0.1745,-0.2046,0.0188
18:23:27:668,-12.677,-5.0141,2.7071,39.0116,-0.5169,-0.378,0.0223,0.0169
18:23:27:687,-12.572,-5.478,2.346,38.9868,-0.5807,-0.5079,0.3301,0.0141
18:23:27:707,-10.704,-5.8301,2.753,38.9519,-0.619,-0.6442,0.4548,0.0112
18:23:27:727,-9.356,-5.2241,3.059,38.9286,-0.4487,-0.722,0.3344,0.0081
18:23:27:749,-9.6101,-5.282,2.5331,38.89,-0.0737,-0.413,0.2503,0.0048
18:23:27:769,-10.4891,-6.338,2.145,38.3409,0.3279,0.2069,0.2534,0.002
18:23:27:787,-11.288,-7.839,2.2091,38.3547,0.5303,0.7619,0.3174,0.0014
18:23:27:808,-10.283,-8.284,3.129,38.4334,0.5155,0.7821,0.2855,0.004
18:23:27:828,-8.573,-7.226,3.6101,38.572,0.4686,0.3326,0.0927,0.0093
18:23:27:849,-7.223,-5.967,3.047,38.558,0.4632,-0.1404,-0.0906,0.0151
18:23:27:868,-6.258,-5.157,2.2721,37.9319,0.5868,-0.3129,-0.26,0.0196
18:23:27:888,-5.858,-4.401,1.371,37.2401,0.8606,-0.151,-0.4528,0.0217
18:23:27:907,-6.0281,-3.149,0.3041,37.4752,1.0385,0.1334,-0.5583,0.0226
18:23:27:930,-6.3041,-2.138,-0.287,38.3561,0.9841,0.3528,-0.488,0.024
18:23:27:948,-6.3641,-1.7861,-0.27,37.723,0.752,0.3901,-0.3047,0.0271
18:23:27:967,-6.098,-2.251,0.146,38.0824,0.443,0.2709,-0.1247,0.0314
18:23:27:987,-5.732,-3.2081,0.9641,37.1934,0.2076,0.1697,-0.0384,0.0358
18:23:28:008,-5.6051,-4.1681,1.944,36.7477,0.2076,0.1834,-0.0906,0.0394
18:23:28:028,-6.218,-4.724,2.303,37.6221,0.4015,0.2271,-0.2259,0.0421
18:23:28:050,-7.3481,-4.4291,1.991,37.9337,0.5868,0.2303,-0.2739,0.0444
18:23:28:068,-7.9391,-3.5291,1.2281,37.0034,0.6582,0.2516,-0.0864,0.0469
18:23:28:088,-8.19,-3.953,0.1721,37.8895,0.5431,0.3858,0.1672,0.0513
18:23:28:107,-8.526,-5.73,-0.1001,37.9843,0.2108,0.5413,0.3312,0.0572
18:23:28:128,-8.9831,-7.556,0.56,37.9843,-0.1792,0.6171,0.2833,0.0632
18:23:28:149,-9.557,-8.385,1.944,38.0964,-0.4412,0.6138,0.1064,0.0677
18:23:28:167,-10.352,-7.98,3.098,37.1789,-0.5264,0.4104,-0.0661,0.0698
18:23:28:188,-11.2451,-7.2641,3.021,37.7246,-0.5541,0.0727,-0.0522,0.0695
18:23:28:214,-11.0831,-7.247,2.145,36.7765,-0.6989,-0.1925,0.0788,0.0673
18:23:28:228,-9.809,-6.714,2.274,36.5374,-0.9493,-0.4366,0.0756,0.0637
18:23:28:248,-8.9591,-4.959,2.9831,37.0611,-1.0442,-0.7113,0.0032,0.0589
18:23:28:269,-8.88,-4.374,3.375,36.2549,-0.8768,-0.7402,0.0969,0.0524
18:23:28:288,-9.059,-5.741,3.323,36.231,-0.4135,-0.5057,0.1246,0.045
18:23:28:309,-9.6461,-6.704,2.3171,36.2289,0.1053,-0.0626,0.0117,0.0382
18:23:28:328,-10.113,-6.5,1.656,36.4623,0.3354,0.2783,-0.0619,0.0336
18:23:28:349,-9.7751,-5.306,1.742,35.6354,0.2512,0.2186,0.0063,0.0314
18:23:28:368,-8.5661,-4.4269,1.881,35.3485,0.034,-0.1543,0.1661,0.0318
18:23:28:388,-6.8261,-3.752,1.707,35.3485,-0.1567,-0.6101,0.2397,0.034
18:23:28:408,-5.585,-3.137,1.091,35.3454,-0.1653,-0.8264,0.2087,0.0353
18:23:28:432,-4.841,-2.588,0.189,35.3309,-0.0886,-0.6953,0.1203,0.0344
18:23:28:449,-4.6301,-2.138,-0.246,34.5621,-0.0203,-0.2852,0.0351,0.0325
18:23:28:468,-4.937,-2.0381,0.378,34.5621,0.052,0.127,-0.0256,0.0309
18:23:28:489,-5.732,-2.205,0.861,34.7297,0.165,0.322,-0.0448,0.0308
18:23:28:508,-6.1961,-2.663,0.981,34.7286,0.1948,0.3773,-0.0469,0.0318
18:23:28:528,-6.725,-2.742,1.1801,34.7297,0.1735,0.3443,-0.0832,0.0334
18:23:28:550,-7.419,-3.0101,1.412,34.7167,0.1639,0.3263,-0.0661,0.0353
18:23:28:567,-8.1431,-3.752,1.544,34.7167,0.2139,0.3752,-0.0374,0.0372
18:23:28:589,-8.952,-4.2,1.268,34.1012,0.2927,0.4722,-0.0128,0.0394
18:23:28:609,-9.641,-4.6901,0.687,34.1596,0.2289,0.5478,0.0947,0.0427
18:23:28:627,-9.8711,-5.543,0.653,34.6783,-0.0886,0.4594,0.1789,0.0467
18:23:28:651,-9.878,-6.237,1.362,33.9,-0.5126,0.1728,0.1928,0.0505
18:23:28:668,-9.543,-6.57,2.58,34.5109,-0.8332,-0.2192,0.1299,0.0526
18:23:28:688,-9.411,-6.062,3.363,33.7842,-0.8833,-0.6112,-0.0043,0.051
18:23:28:710,-9.7991,-5.631,3.098,34.483,-0.7916,-0.8775,-0.063,0.0462
18:23:28:728,-9.591,-5.5571,2.963,34.5015,-0.6414,-0.919,-0.1034,0.0392
18:23:28:748,-9.287,-4.7651,2.588,34.4987,-0.3868,-0.8818,-0.1759,0.0314
18:23:28:768,-9.459,-4.58,1.7351,35.2353,-0.1471,-0.6485,-0.1779,0.0237
18:23:28:788,-10.0361,-5.562,1.2971,34.5435,0.0446,-0.2086,-0.1353,0.0178
18:23:28:809,-10.826,-7.077,1.031,34.5948,0.1532,0.3198,-0.114,0.0138
18:23:28:829,-11.502,-8.136,1.841,34.5423,0.1064,0.7161,-0.1151,0.0114
18:23:28:849,-11.2211,-8.052,3.3851,34.4925,0.0201,0.6544,-0.114,0.0103
18:23:28:868,-10.221,-7.427,3.7511,34.4925,-0.0459,0.1717,-0.1097,0.01
18:23:28:887,-8.3921,-6.4571,3.011,34.4925,-0.1716,-0.4579,-0.1684,0.0097
18:23:28:919,-7.0631,-5.0621,1.989,34.4663,-0.2398,-0.8381,-0.293,0.0085
18:23:28:930,-6.1241,-3.663,1.35,34.4288,-0.1812,-0.8477,-0.3985,0.005
18:23:28:948,-5.466,-2.615,1.503,34.4882,0.0371,-0.5441,-0.4432,-0.0002
18:23:28:967,-5.2121,-2.459,1.8071,33.8175,0.4067,-0.1947,-0.455,-0.0055
18:23:28:987,-6.1961,-2.052,1.374,34.514,0.7392,-0.0104,-0.3911,-0.0091
18:23:29:008,-6.627,-1.746,-0.1241,34.5016,0.8947,0.0865,-0.114,-0.0092
18:23:29:028,-6.728,-2.378,-1.5251,34.6516,0.689,0.2186,0.1309,-0.0057
18:23:29:049,-6.819,-3.2351,-1.5101,34.6392,0.2714,0.3187,0.2865,-0.0008
18:23:29:067,-6.8981,-4.0031,-0.308,35.2501,-0.0939,0.3784,0.3653,0.0044
18:23:29:087,-6.8951,-4.662,1.122,35.1917,-0.2431,0.4008,0.3972,0.0091
18:23:29:108,-6.9191,-5.5361,1.6511,35.8473,-0.2313,0.3901,0.3579,0.013
18:23:29:128,-7.5341,-6.6941,1.647,35.8353,-0.2227,0.4498,0.246,0.0158
18:23:29:149,-8.636,-7.997,1.589,35.1262,-0.2654,0.568,0.0884,0.0172
18:23:29:168,-9.672,-8.564,2.178,35.1267,-0.3517,0.6479,-0.1077,0.0177
18:23:29:186,-10.206,-7.652,2.9471,35.8009,-0.4018,0.4657,-0.26,0.0172
18:23:29:207,-10.7621,-6.417,2.963,35.1376,-0.3943,0.1547,-0.2493,0.0156
18:23:29:226,-11.372,-6.302,2.037,35.8303,-0.4412,-0.1265,-0.0874,0.0131
18:23:29:248,-11.193,-6.522,0.962,35.8042,-0.6915,-0.3556,0.0788,0.0103
18:23:29:268,-9.7151,-5.4521,1.563,35.8954,-1.0015,-0.575,0.1533,0.0069
18:23:29:288,-8.885,-4.346,2.315,35.8694,-1.1144,-0.7795,0.2056,0.002
18:23:29:308,-8.693,-5.09,3.2681,36.0374,-0.9419,-0.7348,0.3131,-0.0034
18:23:29:327,-8.643,-6.393,3.186,36.0374,-0.4305,-0.5026,0.2119,-0.0095
18:23:29:350,-8.9951,-6.4211,2.149,36.0374,0.0681,-0.0403,0.0148,-0.0154
18:23:29:369,-9.636,-5.7941,1.793,36.0374,0.2278,0.3135,-0.0192,-0.0205
18:23:29:387,-9.182,-5.2961,2.147,36.0374,0.0894,0.2133,0.1385,-0.0235
18:23:29:406,-7.695,-5.157,2.4701,36.0278,-0.1578,-0.1702,0.2226,-0.0231
18:23:29:428,-6.3011,-4.4269,2.99,36.0278,-0.2548,-0.542,0.1352,-0.0226
18:23:29:450,-5.4251,-3.371,2.868,36.1789,-0.0609,-0.7635,0.0415,-0.0234
18:23:29:468,-4.319,-2.7491,2.001,36.8058,0.2364,-0.7476,0.0052,-0.0254
18:23:29:488,-3.5381,-2.73,0.969,36.2064,0.3865,-0.6527,-0.0969,-0.0273
18:23:29:507,-3.5531,-2.7611,0.38,36.7819,0.3706,-0.5643,-0.2387,-0.0291
18:23:29:528,-4.379,-2.8061,0.198,36.1394,0.296,-0.4238,-0.3121,-0.031
18:23:29:550,-5.3201,-3.084,0.2651,36.1501,0.2406,-0.2831,-0.3058,-0.0328
18:23:29:569,-6.117,-3.503,0.095,37.4426,0.1735,-0.0967,-0.2973,-0.0344
18:23:29:590,-7.17,-3.9341,0.4811,36.7448,0.0798,0.1441,-0.3154,-0.0358
18:23:29:608,-8.207,-4.109,1.431,36.857,0.0308,0.3167,-0.3314,-0.0369
18:23:29:628,-9.399,-4.259,2.102,36.9807,0.0414,0.3486,-0.2696,-0.0376
18:23:29:651,-10.221,-5.04,2.1971,36.8721,0.001,0.3092,-0.1258,-0.0366
18:23:29:668,-10.575,-6.2921,2.216,36.3033,-0.1471,0.2346,-0.0289,-0.0344
18:23:29:687,-10.551,-7.061,2.6831,36.8559,-0.3282,0.0898,-0.063,-0.0321
18:23:29:708,-10.506,-6.5771,3.3971,37.048,-0.4177,-0.15,-0.1748,-0.0318
18:23:29:727,-10.8671,-5.55,3.39,37.1588,-0.4135,-0.4386,-0.1992,-0.0338
18:23:29:746,-10.913,-5.277,2.7,37.1573,-0.5008,-0.7348,-0.098,-0.0364
18:23:29:767,-10.314,-5.0951,2.5331,37.8762,-0.5775,-0.8977,-0.0448,-0.0405
18:23:29:788,-10.115,-4.6451,2.5331,37.351,-0.4242,-0.7732,-0.0459,-0.0459
18:23:29:809,-10.3331,-4.712,2.403,37.8591,-0.113,-0.3343,0.0586,-0.0521
18:23:29:828,-10.6091,-5.837,2.633,37.8591,0.2076,0.2133,0.2545,-0.0572
18:23:29:850,-10.664,-8.016,2.576,37.759,0.3769,0.5904,0.4239,-0.0596
18:23:29:868,-9.821,-9.56,2.856,37.6755,0.3748,0.6863,0.3909,-0.0583
18:23:29:888,-9.107,-9.68,3.009,36.9537,0.3003,0.5595,0.0947,-0.0542
18:23:29:908,-8.868,-8.033,3.509,37.5312,0.2885,0.3806,-0.1705,-0.0492
18:23:29:928,-8.5301,-6.275,3.5291,37.4779,0.4803,0.2826,-0.2322,-0.045
18:23:29:950,-7.676,-4.968,2.4701,36.7565,0.6923,0.1675,-0.2078,-0.0415
18:23:29:967,-6.692,-3.6251,1.302,37.3472,0.7583,0.0993,-0.1801,-0.0384
18:23:29:988,-5.748,-2.394,0.5021,37.9788,0.6848,0.0546,-0.1023,-0.034
18:23:30:009,-4.9751,-1.4081,0.3611,37.2946,0.5793,0.0813,0.001,-0.0288
18:23:30:029,-4.479,-1.061,0.5089,37.2842,0.5016,0.1877,0.1715,-0.023
18:23:30:051,-4.1681,-1.803,1.17,37.951,0.4823,0.3593,0.3185,-0.0166
18:23:30:068,-4.554,-3.2111,1.893,37.2918,0.5346,0.4775,0.3685,-0.0091
18:23:30:087,-4.7951,-4.422,2.36,38.0173,0.6326,0.5669,0.3429,-0.0015
18:23:30:108,-5.1191,-5.3441,2.5541,38.0263,0.7604,0.6501,0.2183,0.0064
18:23:30:128,-5.387,-5.5601,2.31,38.1355,0.8328,0.6171,0.0564,0.0147
18:23:30:150,-5.8871,-5.9621,1.383,38.1106,0.7359,0.5424,-0.0608,0.0232
18:23:30:167,-6.828,-7.286,0.5981,38.1001,0.461,0.5925,-0.1811,0.0314
18:23:30:188,-8.1379,-8.684,1.1321,38.1025,0.2054,0.8077,-0.3963,0.038
18:23:30:208,-9.4571,-8.8751,2.207,38.838,0.1415,0.9622,-0.6498,0.0428
18:23:30:228,-10.451,-7.923,2.8511,38.2124,0.2129,0.862,-0.815,0.0453
18:23:30:250,-11.6741,-6.711,1.4411,38.0933,0.1235,0.4807,-0.7777,0.045
18:23:30:268,-12.7871,-6.702,0.225,38.7687,-0.389,0.1856,-0.5028,0.0431
18:23:30:289,-12.198,-6.527,1.469,38.7791,-1.0218,-0.2181,-0.1865,0.041
18:23:30:307,-10.292,-5.2601,3.0041,38.1204,-1.336,-0.8125,0.0095,0.037
18:23:30:328,-9.201,-4.8131,3.624,38.7723,-1.2572,-1.1811,0.1576,0.0303
18:23:30:348,-8.595,-5.684,3.1481,38.6979,-0.8236,-1.1322,0.1587,0.0212
18:23:30:368,-9.4451,-6.4931,2.556,38.6872,-0.1408,-0.5079,-0.0224,0.0116
18:23:30:389,-10.635,-6.33,1.604,38.6728,0.4834,0.2197,-0.0554,0.0033
18:23:30:408,-10.53,-5.868,0.7031,38.6478,0.5474,0.4796,0.1246,-0.0008
18:23:30:428,-8.856,-5.739,0.327,38.6217,0.0638,0.1302,0.3238,-0.0004
18:23:30:451,-7.056,-5.196,1.52,38.0014,-0.5189,-0.4493,0.294,0.0022
18:23:30:470,-6.2441,-3.783,2.5181,37.9977,-0.5829,-0.8988,0.18,0.0031
18:23:30:488,-5.37,-2.636,2.267,38.6614,-0.2707,-1.0139,0.1405,0.0011
18:23:30:508,-4.415,-1.928,1.194,38.6724,0.1235,-0.9085,0.0521,-0.0024
18:23:30:528,-4.221,-1.535,-0.026,37.9872,0.4399,-0.5483,-0.0895,-0.0058
18:23:30:551,-5.0111,-1.413,-1.0549,37.9719,0.5719,-0.0637,-0.1662,-0.0069
18:23:30:568,-5.715,-1.506,-1.3331,37.9566,0.443,0.3486,-0.0852,-0.0059
18:23:30:587,-6.17,-2.2751,-0.617,38.6328,0.166,0.5541,0.0159,-0.0037
18:23:30:608,-7.0601,-3.3041,0.483,38.604,-0.095,0.6383,0.0777,-0.0009
18:23:30:628,-7.853,-4.386,1.716,37.943,-0.2622,0.6425,0.1522,0.002
18:23:30:651,-8.471,-5.279,2.595,39.2719,-0.3239,0.5287,0.1789,0.0049
18:23:30:668,-9.234,-6.134,3.1571,38.5792,-0.341,0.3517,0.1863,0.0073
18:23:30:689,-9.8111,-6.7571,3.428,39.2256,-0.3506,0.093,0.2056,0.0086
18:23:30:707,-9.864,-7.113,3.212,38.5735,-0.3773,-0.2086,0.2109,0.0088
18:23:30:729,-9.641,-6.975,2.975,38.6602,-0.439,-0.4525,0.1479,0.0078
18:23:30:750,-9.878,-6.354,2.765,38.6546,-0.4667,-0.5761,0.1033,0.0055
18:23:30:768,-10.3721,-6.5411,2.5661,38.6992,-0.5093,-0.6368,0.1437,0.0018
18:23:30:787,-10.029,-6.654,2.619,38.6835,-0.52,-0.672,0.1533,-0.0024
18:23:30:808,-9.2531,-5.78,2.6621,39.3728,-0.4465,-0.6666,0.0799,-0.007
18:23:30:827,-9.5171,-5.2631,2.2451,39.3728,-0.2846,-0.4792,0.0532,-0.0118
18:23:30:848,-9.8231,-6.0101,2.0201,39.357,-0.1258,-0.0924,0.1203,-0.0163
18:23:30:868,-10.415,-7.166,2.291,39.347,-0.0001,0.3645,0.1437,-0.0197
18:23:30:890,-10.424,-8.16,3.186,39.3393,0.0382,0.6501,0.1726,-0.0211
18:23:30:909,-9.4571,-8.0591,4.1561,39.3393,0.0318,0.4583,0.0478,-0.0206
18:23:30:931,-8.4251,-6.6821,4.0601,39.3393,0.0744,0.029,-0.1151,-0.0189
18:23:30:947,-7.3811,-5.066,2.963,39.3393,0.1244,-0.3289,-0.2174,-0.0175
18:23:30:968,-6.5531,-3.773,1.869,38.6186,0.1532,-0.4579,-0.2908,-0.0176
18:23:30:988,-6.093,-2.742,1.2041,39.2533,0.2577,-0.2746,-0.3453,-0.0188
18:23:31:007,-6.143,-1.8821,1.2491,39.2273,0.4388,0.1408,-0.3197,-0.0195
18:23:31:028,-6.1031,-1.5371,1.637,38.5449,0.6517,0.4295,-0.1822,-0.0189
18:23:31:051,-5.9021,-1.7171,1.374,39.2584,0.7051,0.3997,-0.0298,-0.0161
18:23:31:068,-5.732,-2.43,1.005,39.9509,0.5954,0.2581,0.0862,-0.0113
18:23:31:089,-6.1601,-3.5411,0.9881,39.9658,0.4653,0.2069,0.1107,-0.0058
18:23:31:108,-6.668,-4.379,1.395,39.928,0.4291,0.2953,0.0969,-0.0005
18:23:31:130,-6.716,-4.145,1.7501,40.0593,0.4653,0.3784,0.066,0.0044
18:23:31:150,-7.0991,-3.785,1.7471,40.0593,0.4601,0.4647,0.1309,0.0094
18:23:31:168,-7.6901,-4.722,2.1161,40.0792,0.3908,0.5074,0.2844,0.0145
18:23:31:187,-8.2721,-6.857,1.7741,40.0672,0.314,0.4807,0.3525,0.0196
18:23:31:208,-8.966,-8.732,1.668,40.8035,0.2214,0.5968,0.2215,0.0235
18:23:31:227,-9.7391,-8.9351,2.066,40.779,0.1926,0.6842,-0.0426,0.0266
18:23:31:247,-10.266,-7.223,2.4341,40.7653,0.1713,0.5584,-0.1588,0.0288
18:23:31:269,-10.8911,-6.0461,1.671,40.7312,0.0468,0.2208,-0.0395,0.03
18:23:31:289,-11.336,-6.405,0.6341,40.7312,-0.3037,-0.15,0.1928,0.0305
18:23:31:309,-10.659,-6.536,0.639,40.0307,-0.7736,-0.429,0.3664,0.031
18:23:31:328,-9.548,-5.67,1.9361,40.7154,-1.0377,-0.6251,0.4623,0.0299
18:23:31:351,-8.765,-5.9381,3.356,40.7165,-0.9908,-0.7209,0.54,0.0269
18:23:31:368,-8.063,-7.0151,3.72,40.0425,-0.5712,-0.6953,0.4441,0.0225
18:23:31:389,-8.3479,-7.772,2.7341,40.721,-0.0151,-0.346,0.1576,0.018
18:23:31:407,-8.918,-7.386,1.4651,40.0515,0.3429,0.1163,-0.0906,0.0146
18:23:31:427,-9.1121,-6.201,1.0361,40.0533,0.3174,0.3198,-0.1631,0.0132
18:23:31:448,-8.2121,-5.172,1.3901,40.7379,0.0701,0.1398,-0.1194,0.0134
18:23:31:470,-6.9911,-4.092,2.006,40.7577,-0.177,-0.2842,-0.1631,0.0136
18:23:31:489,-6.395,-2.825,2.085,40.7295,-0.1972,-0.6517,-0.2313,0.0117
18:23:31:508,-6.045,-1.8251,1.436,40.7035,-0.0407,-0.7018,-0.2163,0.0089
18:23:31:527,-5.7101,-1.113,0.773,40.6928,0.1085,-0.5548,-0.131,0.0067
18:23:31:548,-5.222,-1.008,0.246,40.6744,0.1617,-0.4312,-0.0491,0.0056
18:23:31:567,-5.0321,-1.226,-0.222,40.6744,0.1554,-0.2746,-0.0235,0.0057
18:23:31:588,-5.102,-1.635,-0.332,40.7077,0.0989,-0.0403,-0.0203,0.0064
18:23:31:607,-5.504,-2.435,0.2651,40.7077,0.069,0.2303,-0.0502,0.0068
18:23:31:627,-6.471,-3.29,0.8231,40.7077,0.1213,0.4742,-0.1066,0.0073
18:23:31:648,-7.613,-4.0181,1.149,41.369,0.0818,0.6053,-0.1301,0.0083
18:23:31:667,-8.624,-4.731,1.659,41.3801,-0.0417,0.5328,-0.1055,0.0098
18:23:31:689,-9.153,-5.667,1.628,41.3788,-0.2281,0.2772,-0.0608,0.0114
18:23:31:708,-9.366,-6.6461,1.4381,41.4426,-0.5391,-0.019,-0.0565,0.0122
18:23:31:726,-9.392,-7.365,2.1641,41.4166,-0.8034,-0.183,-0.1301,0.0111
18:23:31:747,-9.438,-7.293,3.5261,41.3482,-0.7682,-0.265,-0.2845,0.0077
18:23:31:768,-9.9761,-6.735,3.653,41.3327,-0.4987,-0.3897,-0.4144,0.0022
18:23:31:789,-10.721,-6.7661,2.3171,41.4171,-0.3453,-0.4355,-0.4379,-0.005
18:23:31:807,-10.992,-6.69,2.013,41.4302,-0.3751,-0.3864,-0.4272,-0.0126
18:23:31:827,-10.692,-5.349,2.346,41.4044,-0.291,-0.3598,-0.4209,-0.0198
18:23:31:848,-11.277,-4.425,1.958,41.3785,-0.1141,-0.1585,-0.2578,-0.0267
18:23:31:868,-11.645,-5.2601,1.6901,41.3785,-0.0886,0.0333,0.1044,-0.0326
18:23:31:887,-11.3771,-7.647,1.9361,41.3813,-0.2377,0.1675,0.3557,-0.0364
18:23:31:909,-10.0511,-8.873,3.359,40.7865,-0.325,0.1398,0.3323,-0.0381
18:23:31:927,-8.595,-8.169,4.134,41.3821,-0.21,-0.0424,0.0927,-0.0387
18:23:31:947,-7.652,-6.963,3.938,41.3821,0.0084,-0.2192,-0.1534,-0.0392
18:23:31:967,-7.259,-5.4761,2.9921,41.3572,0.2779,-0.2427,-0.359,-0.04
18:23:31:988,-7.056,-3.872,2.073,41.3076,0.5325,-0.0807,-0.4517,-0.0415
18:23:32:008,-7.127,-2.4281,1.484,40.6239,0.7051,0.1398,-0.4048,-0.0424
18:23:32:027,-7.1681,-1.482,1.118,41.3159,0.77,0.257,-0.1929,-0.0416
18:23:32:047,-6.696,-1.2761,0.672,41.3159,0.7179,0.241,0.0808,-0.0389
18:23:32:069,-6.009,-1.616,0.39,41.4656,0.5516,0.1313,0.2993,-0.0345
18:23:32:088,-5.487,-2.3471,0.354,41.4656,0.3535,0.0301,0.4261,-0.0286
18:23:32:107,-5.49,-3.218,0.584,42.1954,0.2523,0.0716,0.4601,-0.0217
18:23:32:127,-5.808,-4.1801,0.845,42.181,0.246,0.2505,0.4421,-0.0157
18:23:32:147,-6.1841,-4.961,1.3451,41.5272,0.2512,0.3954,0.3631,-0.0101
18:23:32:169,-6.905,-5.2361,1.5701,41.6044,0.2736,0.4764,0.2908,-0.0045
18:23:32:189,-7.848,-5.9741,1.3331,41.7198,0.2747,0.6256,0.3079,0.0011
18:23:32:207,-9.0041,-7.781,1.271,42.4556,0.198,0.844,0.3025,0.0059
18:23:32:229,-9.684,-9.251,1.9841,41.8152,0.0851,0.9003,0.1735,0.0103
18:23:32:251,-9.704,-8.99,2.952,42.5628,0.0542,0.6639,-0.098,0.0144
18:23:32:266,-9.821,-6.951,2.691,41.8121,0.0903,0.1675,-0.2973,0.0173
18:23:32:287,-10.3241,-5.6531,0.7391,42.4582,-0.0492,-0.2351,-0.1918,0.0185
18:23:32:308,-10.6061,-6.2321,-0.6911,41.663,-0.4795,-0.3534,0.0553,0.0181
18:23:32:329,-9.6011,-6.7091,-0.0911,42.411,-1.0005,-0.4099,0.1757,0.0164
18:23:32:352,-8.3891,-5.888,1.73,42.3109,-1.1858,-0.4067,0.1331,0.013
18:23:32:367,-7.977,-6.086,3.581,42.2534,-0.9717,-0.298,0.0808,0.0074
18:23:32:388,-8.238,-6.8501,4.2559,41.5619,-0.3475,-0.1766,-0.114,0.0007
18:23:32:407,-9.105,-6.7451,2.681,42.2557,0.3183,0.0983,-0.341,-0.006
18:23:32:427,-10.3121,-5.957,0.9281,41.5432,0.5037,0.2985,-0.3783,-0.0113
18:23:32:448,-10.496,-5.03,0.423,41.5432,0.2342,0.2591,-0.1492,-0.0144
18:23:32:467,-9.0641,-4.499,1.1651,42.2233,-0.1536,-0.0424,0.1203,-0.0146
18:23:32:489,-7.1921,-3.975,1.728,41.5348,-0.3996,-0.4355,0.2397,-0.0133
18:23:32:506,-5.595,-3.41,1.769,41.572,-0.4593,-0.689,0.2204,-0.0122
18:23:32:526,-4.302,-2.493,1.833,41.5348,-0.2952,-0.6176,0.1064,-0.0129
18:23:32:547,-4.022,-1.683,1.58,41.5374,0.1192,-0.2405,-0.0491,-0.0151
18:23:32:567,-4.542,-1.377,0.732,41.4416,0.4313,0.1814,-0.1375,-0.0169
18:23:32:586,-5.274,-1.3511,0.3851,40.7479,0.4823,0.4636,-0.1268,-0.0166
18:23:32:607,-5.9471,-1.844,0.933,40.7389,0.4004,0.5787,-0.0704,-0.0142
18:23:32:627,-6.692,-2.655,1.635,41.5489,0.3035,0.4818,-0.0192,-0.011
18:23:32:648,-7.6661,-3.563,1.742,41.3917,0.2108,0.2485,0.0095,-0.0074
18:23:32:670,-8.284,-4.106,1.338,41.5374,0.051,-0.0392,0.0543,-0.004
18:23:32:688,-8.609,-4.722,1.007,41.5374,-0.1376,-0.15,0.0969,-0.0012
18:23:32:708,-8.7461,-5.789,1.412,42.202,-0.2548,-0.069,0.0916,0.0005
18:23:32:727,-9.0791,-6.764,1.9871,42.1907,-0.2835,0.0099,-0.0352,0.0005
18:23:32:747,-9.534,-7.07,2.8631,42.1041,-0.2366,0.0056,-0.212,-0.0021
18:23:32:769,-10.326,-6.354,3.3491,42.1041,-0.1099,-0.2021,-0.3718,-0.006
18:23:32:788,-11.303,-5.471,2.4851,42.0402,-0.0524,-0.5185,-0.3314,-0.0101
18:23:32:806,-11.597,-5.5211,1.4981,42.042,-0.194,-0.7593,-0.1407,-0.0135
18:23:32:827,-10.91,-5.5931,1.367,42.0095,-0.3858,-0.8871,0.0032,-0.0163
18:23:32:847,-10.386,-5.2721,1.742,42.6333,-0.34,-0.7828,0.0382,-0.0201
18:23:32:868,-10.5971,-5.615,1.6301,41.3004,-0.0854,-0.3695,0.1309,-0.0247
18:23:32:889,-10.886,-8.2819,1.833,41.2986,0.1702,0.6394,0.3174,-0.0287
18:23:32:909,-10.163,-8.7889,3.114,41.389,0.1213,0.7257,0.2236,-0.0304
18:23:32:942,-9.203,-7.7891,3.878,42.22,0.0798,0.3411,0.0373,-0.0294
18:23:32:949,-7.901,-6.098,3.801,41.5272,0.0733,-0.1532,-0.1055,-0.0265
18:23:32:968,-6.854,-4.611,2.9711,41.5806,0.2193,-0.4269,-0.2163,-0.0233
18:23:32:988,-6.048,-3.398,2.013,41.5718,0.5175,-0.2618,-0.2993,-0.0213
18:23:33:008,-5.849,-2.397,1.158,40.902,0.8766,0.2133,-0.3314,-0.0209
18:23:33:027,-6.0761,-1.784,0.459,41.0506,1.0449,0.6203,-0.245,-0.0207
18:23:33:048,-6.0401,-1.566,0.246,41.4061,0.9351,0.6874,-0.0619,-0.0179
18:23:33:068,-5.6291,-2.019,0.2051,41.3831,0.6443,0.5116,0.1075,-0.0118
18:23:33:088,-5.43,-2.919,0.5261,41.8002,0.3439,0.3167,0.1842,-0.0034
18:23:33:109,-5.54,-3.936,1.364,41.6468,0.264,0.3517,0.1533,0.0057
18:23:33:129,-6.3731,-4.5281,1.91,41.774,0.4377,0.5041,0.0586,0.0133
18:23:33:152,-7.142,-4.731,1.2611,42.0426,0.542,0.5702,0.0543,0.0194
18:23:33:169,-7.5131,-5.1,0.636,42.2281,0.3589,0.5169,0.0842,0.0249
18:23:33:188,-8.439,-6.062,0.7871,42.2147,0.067,0.4466,0.1203,0.0306
18:23:33:208,-9.656,-7.6691,1.0961,42.2022,-0.1451,0.4253,0.1288,0.0362
18:23:33:227,-10.4171,-8.571,1.635,42.397,-0.3176,0.3784,0.0756,0.0406
18:23:33:248,-10.53,-7.9391,2.3651,41.6088,-0.4379,0.1675,0.0095,0.0435
18:23:33:269,-10.5821,-6.656,2.607,41.5957,-0.4604,-0.1756,0.0382,0.045
18:23:33:289,-10.613,-6.5441,1.197,41.583,-0.4678,-0.3982,0.1778,0.0448
18:23:33:307,-10.6091,-7.2311,-0.023,42.1563,-0.7298,-0.4429,0.2695,0.0432
18:23:33:330,-9.4781,-6.642,1.0391,41.1834,-1.0985,-0.4664,0.294,0.0403
18:23:33:352,-8.5691,-5.3801,2.8271,41.7911,-1.1773,-0.6058,0.279,0.0367
18:23:33:368,-8.312,-5.55,3.8231,40.9849,-0.9589,-0.7402,0.3301,0.0321
18:23:33:386,-8.154,-6.687,2.987,41.5756,-0.5296,-0.7156,0.2289,0.0259
18:23:33:406,-8.8871,-7.149,1.7141,41.5773,-0.1695,-0.3396,0.0223,0.0187
18:23:33:427,-9.5651,-6.608,1.338,40.7864,-0.0151,0.0727,-0.0821,0.0114
18:23:33:448,-9.2891,-5.564,1.845,41.5612,-0.0342,0.1484,0.0085,0.0046
18:23:33:470,-7.712,-4.88,1.877,40.0311,-0.1994,-0.1585,0.1107,-0.0009
18:23:33:489,-6.038,-4.0631,1.826,40.6717,-0.4337,-0.6432,0.0447,-0.0048
18:23:33:508,-5.265,-2.873,1.52,40.5431,-0.4945,-0.9265,-0.0906,-0.0077
18:23:33:527,-4.901,-1.8821,1.2971,40.4267,-0.3794,-0.8541,-0.179,-0.0113
18:23:33:550,-4.712,-1.02,1.484,40.4175,-0.0896,-0.5804,-0.2217,-0.0163
18:23:33:569,-5.0561,-0.407,1.388,39.686,0.329,-0.15,-0.177,-0.0217
18:23:33:589,-5.787,-0.9581,1.4381,40.5536,0.7711,0.3178,-0.0725,-0.0267
18:23:33:608,-6.431,-2.136,0.1811,39.9492,0.9426,0.485,-0.0128,-0.0298
18:23:33:627,-6.593,-3.2321,-0.543,40.2292,0.6838,0.5287,-0.0213,-0.0299
18:23:33:647,-6.663,-3.96,0.335,40.2163,0.3387,0.4562,-0.1609,-0.0267
18:23:33:669,-7.5581,-4.1471,1.1059,40.1928,0.2225,0.3806,-0.3121,-0.0216
18:23:33:688,-8.897,-4.865,0.96,40.1955,0.165,0.4295,-0.3367,-0.0167
18:23:33:708,-9.9431,-5.718,1.206,38.7845,0.018,0.4818,-0.3282,-0.0131
18:23:33:728,-10.673,-6.1871,1.625,40.1851,-0.1994,0.3593,-0.3047,-0.0105
18:23:33:748,-10.9961,-6.237,2.24,39.3847,-0.487,0.0344,-0.2493,-0.0086
18:23:33:769,-11.0681,-5.799,2.9201,39.3853,-0.7534,-0.4514,-0.1471,-0.0077
18:23:33:788,-11.0801,-5.526,2.882,39.8856,-0.9003,-0.8871,0.0265,-0.008
18:23:33:807,-10.793,-6.2801,2.4251,39.8044,-1.0303,-1.1257,0.165,-0.0101
18:23:33:828,-9.608,-6.599,2.738,39.0063,-0.96,-1.099,0.1097,-0.0144
18:23:33:848,-9.062,-5.703,2.5541,39.6426,-0.5957,-0.7732,-0.0927,-0.0209
18:23:33:869,-9.668,-5.7851,2.607,39.5769,-0.1599,-0.1339,-0.1332,-0.029
18:23:33:887,-10.281,-6.816,2.94,39.5647,0.2842,0.4147,-0.1268,-0.0374
18:23:33:907,-10.671,-7.6421,2.7071,38.93,0.5059,0.7065,-0.1216,-0.0442
18:23:33:928,-10.472,-7.985,2.8151,39.7173,0.4025,0.551,-0.131,-0.0479
18:23:33:947,-9.6341,-7.65,2.9831,39.1032,0.1937,0.128,-0.1875,-0.0481
18:23:33:969,-8.475,-6.2351,2.712,38.3142,0.1458,-0.1638,-0.2782,-0.0461
18:23:33:989,-7.5581,-4.671,2.2361,38.3003,0.2619,-0.1756,-0.3132,-0.044
18:23:34:009,-6.819,-3.311,1.611,38.4833,0.3737,-0.1404,-0.2908,-0.0432
18:23:34:027,-6.1511,-2.342,1.122,38.4834,0.4334,-0.0136,-0.1992,-0.0432
18:23:34:049,-5.6051,-1.9991,1.1441,37.8847,0.5059,0.1717,-0.1023,-0.0422
18:23:34:069,-5.315,-1.968,1.175,37.8715,0.6091,0.3059,-0.0267,-0.0399
18:23:34:088,-5.3561,-2.217,0.8951,38.1666,0.6475,0.3645,0.0595,-0.0362
18:23:34:108,-5.643,-3.0311,0.4931,39.0974,0.5548,0.3667,0.1374,-0.0311
18:23:34:128,-6.1841,-3.972,0.6341,38.4545,0.4132,0.3816,0.1629,-0.0247
18:23:34:148,-6.5981,-4.5319,0.948,38.9693,0.2907,0.3934,0.1746,-0.0182
18:23:34:169,-6.572,-4.841,1.343,38.5175,0.1735,0.3508,0.1757,-0.0121
18:23:34:189,-6.7991,-5.435,1.517,38.4912,0.0957,0.3113,0.1746,-0.0065
18:23:34:208,-7.491,-6.764,1.493,38.477,0.0744,0.4242,0.1405,-0.0016
18:23:34:228,-8.784,-8.363,1.661,38.477,0.0914,0.6256,0.0245,0.0058
18:23:34:247,-9.771,-9.014,2.058,38.461,0.0946,0.7161,-0.1216,0.0075
18:23:34:269,-10.082,-8.133,2.612,39.3133,0.0766,0.5552,-0.2248,0.0079
18:23:34:289,-10.058,-6.749,2.142,38.4327,0.0477,0.1814,-0.212,0.0072
18:23:34:307,-10.494,-6.4091,0.5021,38.4186,-0.1546,-0.1126,-0.0991,0.0056
18:23:34:328,-11.042,-6.7691,-0.426,38.093,-0.5892,-0.2032,0.0734,0.0039
18:23:34:348,-9.8951,-6.108,1.122,38.1436,-1.0442,-0.3013,0.2278,0.0016
18:23:34:369,-8.5091,-4.853,2.8871,37.9565,-1.1463,-0.525,0.3196,-0.0021
18:23:34:388,-8.0471,-5.9231,3.924,38.5182,-0.8822,-0.5782,0.3835,-0.007
18:23:34:407,-8.31,-7.4051,3.651,38.4675,-0.2856,-0.4088,0.18,-0.0125
18:23:34:429,-9.2681,-7.166,2.149,38.4558,0.2714,0.0056,-0.0991,-0.0177
18:23:34:448,-10.532,-5.933,1.101,38.4558,0.3461,0.257,-0.0949,-0.0214
18:23:34:470,-9.9881,-5.4251,1.319,38.5033,0.0638,0.0855,0.1768,-0.0227
18:23:34:490,-7.8341,-5.15,1.697,37.6397,-0.2696,-0.3662,0.3088,-0.0221
18:23:34:508,-6.11,-4.501,2.046,37.6533,-0.3773,-0.6964,0.2386,-0.0214
18:23:34:529,-4.9031,-3.431,1.73,37.6406,-0.2313,-0.755,0.1266,-0.0224
18:23:34:549,-4.151,-2.6291,1.28,37.6048,0.0212,-0.5378,0.017,-0.0248
18:23:34:569,-4.0601,-2.112,0.689,37.6175,0.281,-0.2447,-0.0906,-0.0278
18:23:34:588,-4.376,-1.743,0.1721,37.6175,0.4089,-0.0051,-0.1748,-0.0286
18:23:34:608,-5.2481,-1.5521,-0.1841,37.5911,0.4132,0.1143,-0.2067,-0.0275
18:23:34:627,-6.0641,-1.7,-0.428,37.5953,0.3205,0.2538,-0.1225,-0.0259
18:23:34:649,-6.57,-2.6291,0.0161,37.0064,0.1745,0.4147,-0.0224,-0.0241
18:23:34:669,-7.0391,-3.884,0.9071,38.4047,0.0755,0.5467,-0.0128,-0.0219
18:23:34:690,-7.668,-4.949,1.6751,37.0064,0.0648,0.632,-0.0693,-0.0196
18:23:34:708,-8.499,-5.9741,2.202,37.8435,0.0883,0.6607,-0.1694,-0.0175
18:23:34:728,-9.218,-6.378,2.6381,38.6685,0.0903,0.5296,-0.2951,-0.0162
18:23:34:747,-9.9431,-6.249,2.6831,37.8512,0.0542,0.2718,-0.3718,-0.0155
18:23:34:769,-10.532,-6.041,2.525,38.4306,-0.0683,-0.0488,-0.3675,-0.0153
18:23:34:787,-10.989,-5.787,2.3771,38.4496,-0.2175,-0.3534,-0.3026,-0.0158
18:23:34:808,-11.514,-6.0311,2.262,38.4631,-0.2963,-0.5026,-0.1896,-0.0174
18:23:34:827,-11.576,-6.479,2.2211,37.6485,-0.3145,-0.4961,-0.0672,-0.02
18:23:34:847,-10.6091,-6.113,2.7311,37.6361,-0.2643,-0.4759,-0.0246,-0.0235
18:23:34:870,-10.3451,-5.571,2.559,38.4104,-0.03,-0.3226,-0.0181,-0.0273
18:23:34:888,-10.8911,-6.108,2.1401,37.6096,0.2204,0.0546,0.1129,-0.0307
18:23:34:907,-11.358,-7.578,1.683,37.5973,0.3226,0.4722,0.2599,-0.0323
18:23:34:928,-11.145,-8.725,2.432,37.6057,0.1372,0.6021,0.3366,-0.0314
18:23:34:951,-9.8591,-8.361,3.9041,37.0611,-0.0194,0.3167,0.2758,-0.0283
18:23:34:970,-8.346,-6.8381,4.4501,37.0611,0.036,-0.1265,0.1544,-0.0248
18:23:34:987,-6.9071,-5.277,3.576,37.022,0.2236,-0.4983,0.0671,-0.0221
18:23:35:015,-5.724,-3.996,2.2601,37.2841,0.4302,-0.5921,-0.0192,-0.0207
18:23:35:027,-5.138,-3.06,1.211,37.2851,0.6773,-0.3704,-0.1002,-0.0202
18:23:35:048,-5.0801,-2.318,0.38,37.6111,0.8862,0.0258,-0.1088,-0.0192
18:23:35:070,-5.411,-2.09,0.189,37.041,0.9863,0.3901,-0.0246,-0.0164
18:23:35:090,-5.564,-2.39,0.1481,36.4718,0.9586,0.4679,0.1288,-0.0115
18:23:35:108,-5.456,-3.194,-0.0911,37.3204,0.7774,0.404,0.2588,-0.0045
18:23:35:127,-5.547,-4.319,0.177,37.4002,0.5538,0.3986,0.2918,0.0033
18:23:35:147,-5.8751,-4.9391,0.818,37.374,0.4195,0.5191,0.2375,0.0112
18:23:35:170,-6.215,-5.325,1.9031,36.956,0.3418,0.7044,0.149,0.0185
18:23:35:187,-7.046,-5.4761,3.768,37.8699,0.4803,0.7556,0.0319,0.0253
18:23:35:209,-8.351,-5.4851,2.8631,37.3706,0.6975,0.3667,0.0245,0.031
18:23:35:227,-8.7461,-6.0311,0.062,37.3446,0.3897,0.0588,0.1129,0.0362
18:23:35:247,-9.294,-6.9581,-0.371,37.3446,-0.225,0.0099,0.1309,0.0406
18:23:35:268,-9.723,-7.4681,1.161,37.8452,-0.6233,0.0972,0.114,0.0432
18:23:35:289,-9.507,-7.4291,2.616,36.954,-0.6574,0.1068,0.0478,0.0432
18:23:35:309,-9.557,-6.6731,2.592,37.4882,-0.569,-0.0605,-0.0459,0.0407
18:23:35:327,-10.2401,-6.587,1.163,37.4765,-0.6053,-0.0956,-0.0534,0.0365
18:23:35:347,-10.47,-6.572,1.295,37.1685,-0.9109,-0.0892,0.0137,0.0316
18:23:35:367,-9.531,-5.481,2.81,37.143,-1.108,-0.2309,0.0628,0.0264
18:23:35:387,-9.0041,-5.217,4.4141,36.9396,-1.0335,-0.3971,0.147,0.0204
18:23:35:408,-8.265,-5.861,5.3171,36.8193,-0.5264,-0.5878,0.1172,0.0137
18:23:35:427,-8.3149,-6.149,3.696,36.8193,0.2086,-0.444,-0.1012,0.0072
18:23:35:447,-8.978,-5.837,1.458,36.2467,0.6273,-0.0466,-0.2398,0.0023
18:23:35:470,-9.8021,-5.291,0.332,36.2342,0.5346,0.242,-0.1673,-0.0001
18:23:35:486,-9.182,-5.351,0.828,36.2216,0.1713,0.2133,0.066,-0.0001
18:23:35:509,-7.671,-5.138,1.7861,36.2216,-0.1567,-0.087,0.1266,0.0014
18:23:35:530,-6.6101,-4.341,2.339,35.3303,-0.3048,-0.4664,0.0734,0.002
18:23:35:547,-5.621,-3.39,2.1611,35.3282,-0.2654,-0.6144,0.0382,0.0008
18:23:35:569,-4.827,-3.134,2.063,35.3263,-0.0737,-0.4664,-0.0395,-0.0016
18:23:35:587,-4.551,-3,2.1641,35.3253,0.3194,-0.1467,-0.227,-0.0044
18:23:35:608,-5.0441,-2.4521,1.496,35.6362,0.7935,0.1803,-0.4368,-0.0067
18:23:35:627,-6.261,-1.808,0.339,35.6355,1.0258,0.4275,-0.4815,-0.0067
18:23:35:648,-7.527,-2.078,-0.6461,35.0732,0.9767,0.6746,-0.3112,-0.004
18:23:35:670,-8.19,-2.988,-0.45,35.4648,0.7114,0.8386,-0.1258,0.0004
18:23:35:689,-8.636,-2.9951,0.632,35.4817,0.4536,0.8099,-0.0139,0.0062
18:23:35:708,-8.696,-2.672,0.888,35.4832,0.1543,0.5233,0.18,0.0129
18:23:35:728,-8.5781,-3.905,1.058,34.5675,-0.341,0.1504,0.3941,0.0196
18:23:35:748,-8.516,-6.158,2.0561,35.1224,-0.7074,-0.0296,0.4399,0.0249
18:23:35:770,-8.741,-8.016,3.4931,35.0834,-0.7341,-0.0029,0.2162,0.0276
18:23:35:790,-9.234,-7.7531,4.4051,35.6258,-0.5083,-0.1106,-0.1642,0.0273
18:23:35:807,-9.72,-5.871,4.127,35.0273,-0.3165,-0.3406,-0.3751,0.024
18:23:35:827,-10.632,-4.896,3.696,35.5589,-0.2175,-0.6304,-0.3388,0.0192
18:23:35:848,-10.53,-5.102,2.8391,35.5706,-0.1301,-0.8508,-0.1651,0.0146
18:23:35:870,-9.885,-5.2001,1.97,35.6113,0.0531,-0.753,-0.1694,0.0107
18:23:35:888,-10.326,-5.2751,0.926,34.7507,0.2566,-0.3055,-0.1929,0.0068
18:23:35:907,-11.049,-5.8091,0.9641,35.058,0.3663,0.3145,-0.0938,0.0036
18:23:35:928,-11.775,-7.398,1.6301,35.0437,0.3706,0.7704,0.0638,0.0024
18:23:35:947,-11.2601,-8.5241,2.9471,33.6265,0.2694,0.877,0.1427,0.0039
18:23:35:970,-10.089,-8.49,4.086,34.5284,0.2097,0.5489,0.0521,0.0076
18:23:35:987,-8.5181,-7.3031,4.0271,34.5284,0.2214,0.0396,-0.0938,0.0119
18:23:36:008,-7.103,-5.7101,3.294,33.1011,0.3098,-0.282,-0.228,0.0155
18:23:36:027,-5.9021,-4.202,2.379,33.0729,0.476,-0.378,-0.3495,0.0174
18:23:36:047,-5.327,-2.9471,1.398,33.9737,0.6656,-0.2447,-0.4337,0.0178
18:23:36:068,-5.372,-2.019,0.4181,32.5173,0.7615,0.0142,-0.4124,0.018
18:23:36:087,-5.583,-1.5521,-0.107,32.9471,0.6901,0.2889,-0.2771,0.0191
18:23:36:107,-5.744,-1.674,0.2441,33.9009,0.5463,0.4881,-0.1023,0.0224
18:23:36:128,-5.928,-2.3321,0.95,33.4793,0.4547,0.6053,0.0458,0.0277
18:23:36:147,-6.249,-3.302,1.6421,33.4469,0.4164,0.6661,0.1266,0.0335
18:23:36:168,-6.713,-4.0661,2.1971,33.4387,0.426,0.6533,0.1565,0.0395
18:23:36:190,-6.9881,-4.688,2.288,33.3972,0.4399,0.5627,0.1928,0.0458
18:23:36:208,-6.95,-5.085,2.0921,33.3556,0.393,0.4466,0.1917,0.0522
18:23:36:228,-7.355,-5.61,1.802,32.8817,0.3098,0.3784,0.1821,0.0582
18:23:36:248,-8.078,-6.7331,1.616,32.8501,0.2193,0.4444,0.1821,0.0627
18:23:36:271,-9.036,-8.1641,1.821,32.8252,0.1405,0.5691,0.1182,0.0663
18:23:36:288,-9.495,-8.703,2.339,31.8385,0.0829,0.5563,-0.0139,0.0695
18:23:36:307,-9.5621,-7.7741,2.703,32.7947,0.0659,0.3347,-0.1418,0.0721
18:23:36:329,-9.428,-6.668,1.8311,32.3027,0.0605,0.0759,-0.1481,0.0737
18:23:36:347,-9.83,-6.884,0.416,32.3037,-0.1578,-0.0327,-0.0917,0.0742
18:23:36:368,-10.118,-7.434,0.701,31.3801,-0.5221,-0.0232,-0.0289,0.0739
18:23:36:389,-9.069,-6.3401,2.451,31.9282,-0.6969,-0.1435,-0.0181,0.0725
18:23:36:410,-8.4611,-6.098,3.588,31.8871,-0.6394,-0.3354,-0.0054,0.0699
18:23:36:428,-8.109,-6.764,4.175,31.5521,-0.3187,-0.4983,-0.0682,0.0661
18:23:36:448,-8.49,-7.2041,3.0311,31.0271,0.2705,-0.2905,-0.2951,0.0617
18:23:36:469,-9.771,-6.785,1.302,31.5238,0.6944,0.128,-0.4613,0.0578
18:23:36:487,-10.589,-5.7461,0.191,30.9901,0.6284,0.373,-0.3538,0.0558
18:23:36:508,-9.6821,-4.805,0.38,30.9672,0.2406,0.2325,-0.0874,0.0559
18:23:36:528,-7.8701,-4.106,1.0721,31.4997,-0.2005,-0.2149,0.0851,0.0572
18:23:36:547,-6.3251,-3.4961,1.73,31.5141,-0.4327,-0.5867,0.1374,0.0581
18:23:36:568,-5.159,-2.9711,2.051,30.6278,-0.3069,-0.641,0.1022,0.0586
18:23:36:588,-4.4201,-2.552,1.6901,30.7018,0.0084,-0.4153,0.017,0.0573
18:23:36:608,-4.175,-2.289,1.1771,30.7159,0.2981,-0.0679,-0.0767,0.0554
18:23:36:629,-4.695,-2.186,0.972,31.5963,0.461,0.191,-0.1534,0.0546
18:23:36:648,-5.435,-2.37,0.6701,30.6746,0.4749,0.2709,-0.1481,0.0558
18:23:36:667,-5.9711,-3.1151,0.756,31.5556,0.4195,0.3454,-0.1268,0.0579
18:23:36:689,-6.459,-4.0061,1.1891,31.5405,0.4408,0.4477,-0.1673,0.0606
18:23:36:707,-7.0871,-4.6571,1.173,30.0958,0.4984,0.5169,-0.2387,0.0637
18:23:36:728,-7.688,-4.9271,1.0841,30.0801,0.4558,0.5009,-0.3164,0.0672
18:23:36:747,-8.523,-5.0471,1.007,30.0537,0.3333,0.4253,-0.3431,0.0708
18:23:36:767,-9.299,-5.5331,1.0601,30.0674,0.115,0.3039,-0.2951,0.0744
18:23:36:786,-9.7421,-6.2441,1.4651,30.9519,-0.1546,0.1632,-0.2441,0.0775
18:23:36:807,-10.01,-6.704,2.367,30.6425,-0.3443,0.0045,-0.2515,0.0794
18:23:36:828,-10.202,-6.3281,3.126,31.3047,-0.3847,-0.2256,-0.2834,0.0792
18:23:36:849,-10.551,-5.9831,3.2531,31.3047,-0.341,-0.4162,-0.2322,0.0772
18:23:36:870,-10.704,-6.1991,3.083,31.3035,-0.2548,-0.5174,-0.1492,0.0741
18:23:36:887,-10.206,-5.646,2.7791,30.4609,-0.1312,-0.5654,-0.1225,0.0704
18:23:36:908,-10.47,-5.145,2.231,31.2645,0.0818,-0.3491,-0.0704,0.0663
18:23:36:927,-10.956,-5.5571,2.046,31.2759,0.3055,0.0524,0.1203,0.0626
18:23:36:963,-11.435,-7.4051,1.62,31.2507,0.3769,0.3986,0.3696,0.0608
18:23:36:968,-10.692,-9.239,2.303,30.3296,0.2097,0.5456,0.5197,0.062
18:23:36:988,-9.05,-9.701,3.4931,30.329,0.1042,0.3858,0.36,0.0658
18:23:37:007,-7.872,-8.559,4.01,31.1646,0.1745,0.0983,0.034,0.0706
18:23:37:027,-7.211,-6.728,3.552,30.6152,0.4462,-0.0296,-0.1972,0.0746
18:23:37:047,-6.7661,-5.136,2.319,30.6011,0.7296,0.029,-0.3217,0.0771
18:23:37:069,-6.708,-3.63,1.22,30.9371,0.8755,0.1611,-0.3345,0.078
18:23:37:089,-6.593,-2.454,0.411,30.9371,0.8584,0.3273,-0.2067,0.0809
18:23:37:106,-6.5501,-1.827,0.363,30.9371,0.7924,0.4657,-0.0054,0.0858
18:23:37:127,-6.2081,-1.887,0.5141,31.359,0.7296,0.4828,0.2491,0.0926
18:23:37:147,-5.736,-2.5001,0.38,31.359,0.6187,0.419,0.4324,0.1011
18:23:37:168,-5.523,-3.5531,0.579,31.359,0.4718,0.3954,0.5081,0.1103
18:23:37:186,-5.538,-4.59,1.3001,31.359,0.4419,0.4242,0.441,0.1191
18:23:37:207,-5.684,-5.114,1.7621,31.8109,0.6082,0.5148,0.2705,0.1273
18:23:37:227,-5.897,-4.9511,1.331,31.8707,0.7987,0.6245,0.0969,0.1353
18:23:37:247,-6.579,-5.153,0.627,31.4087,0.8254,0.7608,-0.0118,0.1434
18:23:37:267,-7.896,-6.014,0.248,32.3944,0.6827,0.8951,-0.0554,0.1517
18:23:37:290,-9.122,-7.128,0.318,32.4755,0.3961,0.9387,-0.0715,0.1598
18:23:37:307,-10.2371,-8.04,0.998,31.4941,-0.0087,0.8162,-0.1055,0.1675
18:23:37:326,-10.541,-7.884,2.276,31.9535,-0.3666,0.4487,-0.1066,0.1739
18:23:37:347,-10.281,-7.113,2.616,31.9535,-0.5339,-0.0253,-0.0672,0.1767
18:23:37:367,-10.515,-7.235,1.6301,31.9535,-0.6702,-0.2863,0.0362,0.1758
18:23:37:387,-10.115,-7.559,1.338,31.5096,-0.9217,-0.3491,0.1288,0.1719
18:23:37:407,-9.0281,-6.443,2.597,32.0111,-1.1336,-0.4909,0.1055,0.1663
18:23:37:426,-8.6569,-5.3921,3.648,32.4396,-1.1027,-0.6282,0.1618,0.1601
18:23:37:447,-8.3441,-6.371,4.3931,31.5395,-0.7671,-0.6421,0.2449,0.153
18:23:37:467,-8.2481,-7.353,3.696,32.4396,-0.1994,-0.5292,0.0543,0.1459
18:23:37:487,-8.801,-6.965,2.3839,32.3825,0.3524,-0.1222,-0.2142,0.1399
18:23:37:508,-9.9761,-5.73,1.716,31.5395,0.5954,0.2123,-0.2771,0.1358
18:23:37:528,-9.945,-4.7531,1.4291,31.5395,0.5538,0.1558,-0.0331,0.1341
18:23:37:546,-8.0921,-4.226,0.981,31.0081,0.2842,-0.2394,0.1948,0.1346
18:23:37:565,-6.347,-3.7571,0.7271,31.4928,-0.0118,-0.6922,0.2278,0.1366
18:23:37:585,-5.078,-3.0551,0.351,30.5827,-0.1184,-0.8647,0.1587,0.1378
18:23:37:606,-4.436,-2.4851,0.0191,30.5827,-0.0556,-0.6655,0.0436,0.137
18:23:37:626,-4.3361,-2.15,-0.047,30.5827,0.1138,-0.2095,-0.0459,0.1348
18:23:37:646,-4.5701,-2.2361,0.294,31.4673,0.2949,0.2581,-0.1216,0.133
18:23:37:667,-5.3891,-2.5361,0.809,30.9321,0.4132,0.5074,-0.2014,0.1333
18:23:37:687,-6.17,-2.9141,0.9401,31.4672,0.4408,0.5552,-0.2237,0.135
18:23:37:707,-6.771,-3.591,1.053,31.8487,0.3812,0.4742,-0.2419,0.1376
18:23:37:728,-7.257,-4.14,1.041,31.8487,0.3109,0.4008,-0.2823,0.1407
18:23:37:746,-7.8821,-4.3481,0.9521,30.9321,0.2481,0.3645,-0.3377,0.1435
18:23:37:768,-8.8661,-4.662,0.732,31.8648,0.1096,0.3475,-0.3132,0.146
18:23:37:789,-9.426,-5.696,1.098,31.8487,-0.111,0.356,-0.243,0.1484
18:23:37:807,-9.7541,-6.608,1.917,31.8487,-0.3026,0.2698,-0.2674,0.1503
18:23:37:827,-10.053,-6.7931,2.76,31.4927,-0.4379,0.0705,-0.341,0.1502
18:23:37:847,-10.29,-6.1751,3.428,32.3694,-0.4956,-0.2342,-0.39,0.1483
18:23:37:867,-10.79,-5.579,3.641,31.4732,-0.4444,-0.5037,-0.3431,0.1447
18:23:37:888,-11.121,-5.55,3.1721,32.0719,-0.34,-0.7103,-0.2024,0.1397
18:23:37:906,-10.434,-5.22,2.559,32.0719,-0.242,-0.7849,-0.1204,0.1339
18:23:37:927,-10.439,-4.7531,2.183,32.0719,-0.0726,-0.5941,-0.0778,0.1278
18:23:37:947,-10.937,-5.085,1.977,32.0719,0.165,-0.1671,0.0862,0.122
18:23:37:969,-11.2961,-6.407,1.9601,32.0719,0.3407,0.3358,0.3185,0.1181
18:23:37:986,-10.908,-8.559,2.487,32.9091,0.3205,0.6522,0.4751,0.1173
18:23:38:006,-9.483,-9.5,3.9911,32.909,0.2384,0.5499,0.3674,0.1201
18:23:38:026,-7.92,-8.382,4.536,32.9091,0.2992,0.1174,0.0606,0.125
18:23:38:047,-7.281,-6.62,3.7631,31.4732,0.4462,-0.2129,-0.1811,0.1297
18:23:38:066,-6.7901,-4.82,2.679,32.3751,0.655,-0.2768,-0.3036,0.1326
18:23:38:087,-6.368,-3.3041,1.4381,31.8536,0.851,-0.1254,-0.3282,0.1336
18:23:38:108,-6.234,-2.0951,0.476,31.3451,0.916,0.1515,-0.2441,0.1349
18:23:38:126,-6.0521,-1.449,0.4571,31.3411,0.8734,0.3997,-0.0597,0.1379
18:23:38:147,-5.9471,-1.4651,0.7661,32.7555,0.818,0.4742,0.1374,0.143
18:23:38:168,-5.8271,-1.968,0.675,32.7834,0.72,0.4264,0.3153,0.1499
18:23:38:187,-5.825,-2.892,0.837,32.7834,0.5857,0.4136,0.4218,0.1579
18:23:38:207,-6.2321,-4.2551,1.335,32.7834,0.5229,0.4434,0.4335,0.1659
18:23:38:227,-6.519,-5.334,1.953,33.752,0.5357,0.4359,0.3472,0.1739
18:23:38:247,-6.51,-5.4731,2.126,33.3138,0.5793,0.3613,0.2173,0.1817
18:23:38:267,-7.158,-5.402,1.805,33.3138,0.5613,0.2676,0.1299,0.1891
18:23:38:286,-8.351,-6.026,1.163,33.3642,0.4547,0.2357,0.1854,0.1953
18:23:38:306,-9.222,-7.439,0.828,34.3701,0.2747,0.307,0.2875,0.1995
18:23:38:326,-9.579,-8.7461,1.079,34.3701,0.0542,0.3656,0.2875,0.203
18:23:38:347,-9.0281,-8.67,2.298,33.3642,-0.0843,0.2346,0.1513,0.206
18:23:38:367,-8.538,-7.322,2.082,33.3642,-0.0374,-0.0349,-0.0022,0.2076
18:23:38:387,-9.0041,-6.84,0.3731,33.8003,-0.1482,-0.1873,-0.0309,0.2078
18:23:38:407,-9.146,-6.7781,-0.6701,33.2742,-0.52,-0.2053,0.0052,0.2062
18:23:38:427,-8.7551,-6.275,0.002,33.5358,-1.0068,-0.2138,-0.0267,0.2039
18:23:38:447,-8.595,-5.5931,1.817,33.0334,-1.2976,-0.2661,-0.0065,0.2003
18:23:38:467,-8.705,-6.357,3.9551,34.3611,-1.1826,-0.2277,0.05,0.1946
18:23:38:488,-8.6621,-7.7291,4.8791,34.3477,-0.5764,-0.1063,-0.0778,0.1876
18:23:38:506,-8.901,-7.5131,3.857,34.5055,0.1096,0.0908,-0.4048,0.1809
18:23:38:527,-9.636,-5.976,2.36,33.7843,0.4323,0.2377,-0.5349,0.1757
18:23:38:547,-9.7421,-4.698,1.46,33.8942,0.3481,0.1526,-0.4102,0.1723
18:23:38:567,-8.693,-3.8141,1.1561,34.1235,0.0414,-0.1361,-0.1961,0.1707
18:23:38:587,-7.2521,-3.122,1.448,34.1715,-0.194,-0.3695,-0.0725,0.171
18:23:38:607,-6.3041,-2.55,1.802,33.1556,-0.1462,-0.3843,-0.0256,0.1717
18:23:38:626,-5.6261,-2.0861,1.6061,33.5591,0.084,-0.2032,-0.0065,0.1718
18:23:38:647,-5.3051,-1.916,1.352,33.1665,0.3055,0.0813,0.001,0.1719
18:23:38:666,-5.5571,-2.0089,1.1321,34.2035,0.4356,0.2559,-0.0043,0.1734
18:23:38:686,-5.973,-2.258,0.7061,34.2536,0.3769,0.2496,0.0351,0.1768
18:23:38:706,-6.074,-2.8421,0.8921,34.1418,0.2417,0.2229,0.0714,0.1805
18:23:38:726,-6.105,-3.512,1.2491,34.0458,0.1948,0.1942,0.0095,0.1841
18:23:38:746,-6.555,-4.245,1.1801,34.0268,0.2043,0.2069,-0.1204,0.1872
18:23:38:766,-7.221,-4.587,1.139,34.0013,0.1937,0.2666,-0.2771,0.1897
18:23:38:787,-8.4469,-4.7381,1.206,33.0021,0.1628,0.3741,-0.3505,0.1916
18:23:38:806,-9.522,-5.768,1.455,33.9526,0.0382,0.4562,-0.309,0.1931
18:23:38:828,-10.0391,-6.548,2.102,33.2029,-0.1621,0.4082,-0.3069,0.1945
18:23:38:846,-10.4981,-6.69,3.162,33.9771,-0.3134,0.2292,-0.3527,0.195
18:23:38:867,-11.138,-5.9231,3.9521,33.1431,-0.3453,-0.1265,-0.3462,0.1945
18:23:38:887,-11.964,-5.6291,3.7391,33.3468,-0.291,-0.494,-0.1609,0.1925
18:23:38:908,-11.3321,-6.129,2.7701,33.4663,-0.2718,-0.7433,0.0808,0.1896
18:23:38:927,-9.828,-6.113,2.4131,34.3333,-0.2303,-0.7593,0.0692,0.1861
18:23:38:947,-9.5021,-5.184,2.1161,33.7765,-0.0257,-0.5591,-0.0374,0.182
18:23:38:969,-10.278,-5.0501,1.553,33.2712,0.2193,-0.0488,0.0532,0.1777
18:23:38:987,-11.154,-6.35,1.608,33.2979,0.3024,0.4839,0.2684,0.1748
18:23:39:007,-11.2211,-7.994,2.504,33.7428,0.1607,0.7065,0.458,0.1749
18:23:39:027,-10.01,-8.703,4.1651,33.8719,0.0223,0.5052,0.4527,0.178
18:23:39:047,-8.475,-7.745,4.8881,33.4485,0.1107,0.0652,0.2641,0.1828
18:23:39:067,-6.993,-6.072,4.173,33.3865,0.3344,-0.2788,0.0808,0.1872
18:23:39:086,-6.2321,-4.619,2.9111,32.9545,0.5559,-0.4153,-0.0491,0.1902
18:23:39:107,-5.442,-3.431,1.6871,33.6288,0.7646,-0.3246,-0.1077,0.1916
18:23:39:127,-5.135,-2.6771,0.6101,33.48,0.9118,-0.0019,-0.1673,0.1923
18:23:39:147,-5.4611,-2.112,0.33,32.635,0.9564,0.3869,-0.146,0.1939
18:23:39:167,-5.772,-2.0419,0.734,32.3976,0.9234,0.5532,-0.0267,0.1973
18:23:39:186,-5.885,-2.526,0.8351,32.1133,0.851,0.5296,0.1033,0.2027
18:23:39:208,-6.0911,-3.453,0.7631,33.045,0.6966,0.4392,0.1842,0.2102
18:23:39:226,-6.2081,-4.106,0.878,32.8215,0.4973,0.3028,0.197,0.2177
18:23:39:248,-6.617,-4.616,1.13,32.8322,0.3631,0.2581,0.1885,0.2247
18:23:39:268,-6.656,-5.243,1.4261,32.5722,0.3077,0.2633,0.1735,0.2308
18:23:39:287,-6.9311,-5.648,1.4021,32.5499,0.3024,0.2868,0.0969,0.2361
18:23:39:307,-7.905,-6.4841,0.881,32.5328,0.2236,0.3539,0.0723,0.2404
18:23:39:326,-8.7889,-8.04,0.7871,32.4238,0.0414,0.5191,0.0586,0.2435
18:23:39:347,-9.2321,-8.9981,1.656,32.1838,-0.1163,0.6331,-0.1279,0.2462
18:23:39:367,-9.704,-7.961,2.7821,31.8139,-0.1301,0.5435,-0.3623,0.2482
18:23:39:387,-10.4411,-6.369,2.523,31.8901,-0.0225,0.3124,-0.3729,0.2491
18:23:39:407,-11.0921,-6.381,1.0031,32.4464,-0.1493,0.1398,-0.1503,0.2488
18:23:39:427,-10.283,-6.857,0.804,32.4186,-0.5977,-0.0935,0.0106,0.2485
18:23:39:447,-9.4931,-5.514,2.135,32.4468,-0.9078,-0.4056,0.0202,0.2475
18:23:39:467,-9.4781,-5.09,2.808,32.2599,-0.8694,-0.5973,0.1235,0.2447
18:23:39:489,-9.4331,-6.153,2.375,32.6725,-0.6372,-0.6399,0.1757,0.2402
18:23:39:506,-9.462,-6.9431,1.817,31.8475,-0.3591,-0.4333,0.0393,0.2348
18:23:39:527,-10.1201,-6.6701,1.28,31.446,-0.1013,-0.0989,-0.1247,0.2297
18:23:39:547,-10.386,-5.73,1.3091,32.3616,-0.0683,0.0802,-0.0778,0.2256
18:23:39:567,-8.916,-4.734,1.769,31.4284,-0.2047,-0.0679,0.0628,0.2228
18:23:39:587,-7.058,-3.759,2.406,31.5395,-0.2898,-0.3161,0.1266,0.2213
18:23:39:607,-5.3531,-3.098,2.559,31.4218,-0.1855,-0.4579,0.1309,0.2198
18:23:39:627,-4.159,-2.7221,2.353,31.4561,0.0488,-0.3278,0.0373,0.2176
18:23:39:648,-3.639,-2.493,2.262,31.0295,0.3823,0.0268,-0.0895,0.215
18:23:39:668,-3.752,-2.325,2.147,30.6618,0.6869,0.34,-0.2142,0.2132
18:23:39:687,-4.2161,-2.109,1.695,30.6725,0.8404,0.419,-0.2951,0.2131
18:23:39:709,-5.03,-1.9871,1.0001,30.4046,0.7998,0.3901,-0.2856,0.215
18:23:39:727,-6.081,-2.651,0.567,30.1669,0.5954,0.3135,-0.1992,0.2181
18:23:39:747,-6.984,-3.809,0.2771,29.8294,0.3003,0.2282,-0.1097,0.2216
18:23:39:767,-7.0961,-4.7741,1.0841,29.8328,-0.0118,0.1239,-0.1225,0.2249
18:23:39:787,-7.455,-5.153,2.19,29.8008,-0.1536,-0.0381,-0.2717,0.2272
18:23:39:807,-8.3651,-5.825,2.729,29.7146,-0.1397,-0.1254,-0.3334,0.2276
18:23:39:827,-8.9711,-6.7901,2.868,28.646,-0.0214,-0.1137,-0.4187,0.2253
18:23:39:848,-9.8951,-7.13,3.047,29.5415,0.1724,0.0258,-0.5529,0.221
18:23:39:867,-10.965,-6.441,3.0401,28.4863,0.3887,0.0439,-0.602,0.2157
18:23:39:890,-11.7431,-5.7581,1.953,29.7624,0.3812,-0.199,-0.4485,0.2119
18:23:39:908,-11.763,-6.084,0.5411,27.9201,-0.0161,-0.5643,-0.1865,0.2105
18:23:39:927,-10.8701,-6.771,0.8471,28.2272,-0.5211,-0.755,-0.0395,0.2093
18:23:39:947,-10.01,-6.345,2.1971,28.3149,-0.553,-0.6805,-0.096,0.2061
18:23:39:967,-10.422,-6.101,2.3981,28.2156,-0.2111,-0.2299,-0.1119,0.201
18:23:39:987,-10.977,-6.5081,2.4941,28.2441,0.1394,0.338,-0.0076,0.1957
18:23:40:006,-11.147,-7.472,2.762,27.9827,0.2853,0.7332,0.1618,0.1928
18:23:40:026,-10.257,-8.342,3.521,27.6458,0.2375,0.6468,0.2684,0.1934
18:23:40:047,-8.6021,-8.322,4.0151,27.6745,0.2384,0.2943,0.1363,0.1968
18:23:40:067,-7.314,-6.9461,3.627,27.5941,0.4121,0.0162,-0.1343,0.2011
18:23:40:087,-6.8381,-5.186,2.4251,27.5081,0.6667,-0.0104,-0.3058,0.2043
18:23:40:107,-6.416,-3.563,1.2611,27.2435,0.8308,0.094,-0.3484,0.2063
18:23:40:127,-6.258,-2.208,0.315,27.0705,0.8595,0.2772,-0.2823,0.2088
18:23:40:148,-6.33,-1.578,0.155,28.1253,0.7615,0.4572,-0.0969,0.2134
18:23:40:167,-6.242,-1.667,0.3941,26.8468,0.6337,0.5009,0.1246,0.2198
18:23:40:187,-6.002,-2.22,0.6551,27.6747,0.4951,0.5009,0.3121,0.2279
18:23:40:212,-5.789,-3.0101,1.094,27.4799,0.3717,0.5159,0.4143,0.237
18:23:40:228,-5.87,-4.0301,1.68,27.702,0.3035,0.5435,0.4506,0.2457
18:23:40:247,-5.87,-4.9421,2.2241,26.8319,0.2907,0.5063,0.393,0.2538
18:23:40:267,-5.957,-5.294,2.4341,26.4419,0.3174,0.3954,0.2513,0.2614
18:23:40:287,-6.447,-5.2271,2.0749,26.2412,0.3098,0.2996,0.1459,0.2684
18:23:40:309,-7.398,-5.706,1.647,27.2598,0.2534,0.2943,0.1214,0.2743
18:23:40:327,-8.5811,-6.9311,1.23,26.178,0.1266,0.3891,0.1502,0.2787
18:23:40:348,-9.476,-8.3081,1.644,26.5689,-0.0194,0.5456,0.1427,0.2823
18:23:40:367,-9.72,-8.703,2.6021,26.6383,-0.1078,0.5318,0.017,0.2856
18:23:40:387,-9.7751,-7.4411,3.212,26.9485,-0.1141,0.209,-0.0949,0.2886
18:23:40:407,-10.163,-6.867,2.073,26.1455,-0.0758,-0.037,-0.0619,0.2906
18:23:40:428,-10.4051,-7.283,0.83,26.1725,-0.2932,-0.1404,0.0287,0.2913
18:23:40:448,-9.3371,-6.414,1.34,26.5972,-0.586,-0.2437,0.0404,0.2906
18:23:40:467,-8.576,-5.246,2.75,26.5965,-0.6318,-0.3076,0.0564,0.2889
18:23:40:487,-8.166,-5.6051,3.888,26.5139,-0.3262,-0.3257,0.0873,0.2851
18:23:40:507,-8.454,-6.7091,2.9921,26.4893,0.2321,-0.2095,-0.0426,0.2806
18:23:40:528,-9.218,-6.795,1.1561,26.4043,0.573,0.0705,-0.2142,0.2764
18:23:40:548,-10.082,-6.132,0.1961,25.1764,0.4738,0.2953,-0.2109,0.2732
18:23:40:568,-9.857,-5.4521,1.0391,26.1132,0.1554,0.2783,-0.0065,0.2725
18:23:40:587,-8.1041,-4.8821,2.001,25.1499,-0.0971,-0.0242,0.1672,0.2738
18:23:40:607,-6.2891,-4.35,2.643,25.1503,-0.21,-0.3949,0.164,0.2756
18:23:40:627,-5.0351,-3.422,2.552,25.2057,-0.1099,-0.6485,0.0586,0.2756
18:23:40:648,-4.6691,-2.7011,1.728,24.8714,0.1213,-0.5409,-0.0203,0.2737
18:23:40:667,-4.6211,-2.4401,0.96,26.0725,0.3481,-0.2075,-0.0565,0.2707
18:23:40:687,-4.7831,-2.495,0.665,24.8898,0.4568,0.1185,-0.0991,0.2685
18:23:40:707,-5.243,-2.4641,0.7391,24.9007,0.4845,0.2751,-0.1546,0.2682
18:23:40:727,-5.784,-2.615,0.852,24.8097,0.4228,0.3007,-0.1642,0.2694
18:23:40:747,-6.452,-3.287,1.1059,25.1595,0.362,0.3102,-0.1651,0.2713
18:23:40:767,-7.1351,-4.159,1.266,26.1198,0.3279,0.3528,-0.1939,0.2736
18:23:40:790,-7.731,-4.5971,1.764,26.0923,0.3205,0.3891,-0.2663,0.2761
18:23:40:811,-8.676,-4.904,1.781,25.5414,0.3194,0.3443,-0.3143,0.2788
18:23:40:827,-9.507,-5.66,1.5821,25.5683,0.1873,0.274,-0.2823,0.2825
18:23:40:847,-9.914,-6.345,2.07,25.5541,-0.0214,0.1654,-0.2782,0.286
18:23:40:868,-10.379,-6.5531,2.8271,26.0281,-0.1653,-0.0573,-0.2984,0.288
18:23:40:889,-10.484,-6.149,3.035,26.0067,-0.2728,-0.4045,-0.2984,0.2875
18:23:40:909,-10.7951,-5.651,2.7911,26.7605,-0.3602,-0.6538,-0.2535,0.2852
18:23:40:927,-11.169,-5.868,2.822,25.6283,-0.4114,-0.7124,-0.1012,0.2815
18:23:40:947,-10.254,-5.864,3.303,25.4347,-0.3262,-0.6805,-0.0128,0.2767
18:23:40:985,-9.948,-5.246,3.308,26.4995,-0.0066,-0.5142,-0.0417,0.2712
18:23:40:986,-10.4891,-5.277,2.37,25.3342,0.2833,-0.15,0.1033,0.266
18:23:41:006,-10.613,-6.9,2.157,26.7274,0.3759,0.257,0.3079,0.2625
18:23:41:027,-9.993,-8.442,2.961,25.7914,0.3535,0.5361,0.375,0.2619
18:23:41:047,-8.88,-8.8181,4.173,26.4163,0.4228,0.5169,0.2641,0.2643
18:23:41:066,-7.7981,-8.337,3.914,27.3832,0.5411,0.2399,0.0703,0.2687
18:23:41:089,-6.632,-7.01,2.604,27.8562,0.5665,-0.0488,-0.1833,0.2736
18:23:41:107,-6.368,-5.229,1.529,27.7688,0.5516,-0.085,-0.4059,0.277
18:23:41:128,-6.567,-3.6131,1.022,27.4012,0.5613,0.0813,-0.4559,0.2774
18:23:41:147,-6.704,-2.4041,1.0961,28.4804,0.6017,0.322,-0.3334,0.2777
18:23:41:168,-6.6251,-1.9541,1.446,28.8898,0.6753,0.5137,-0.1108,0.2799
18:23:41:190,-6.198,-2.2391,1.541,28.8449,0.7146,0.5254,0.0905,0.2842
18:23:41:208,-6.1721,-2.634,1.4021,30.3499,0.6465,0.4051,0.2332,0.2904
18:23:41:228,-6.723,-2.777,1.5821,30.4284,0.5411,0.2846,0.4026,0.2976
18:23:41:250,-7.2041,-3.441,1.611,28.5732,0.3769,0.0898,0.5549,0.3044
18:23:41:267,-7.326,-4.001,1.515,30.056,0.1363,-0.1425,0.5805,0.3107
18:23:41:289,-7.362,-3.783,1.58,29.6135,-0.0033,-0.1893,0.5273,0.3159
18:23:41:308,-7.764,-3.963,1.977,30.6254,0.0456,0.0258,0.5538,0.3196
18:23:41:327,-8.298,-5.145,2.003,30.3745,0.1383,0.2772,0.6135,0.3229
18:23:41:347,-9.117,-7.092,1.896,30.3744,0.1,0.5041,0.6326,0.3266
18:23:41:367,-9.2771,-8.792,2.2361,30.1592,-0.0279,0.6138,0.524,0.331
18:23:41:390,-8.844,-8.682,3.062,30.6359,-0.1886,0.47,0.2364,0.3353
18:23:41:407,-8.7701,-7.425,3.6821,30.6579,-0.1972,0.2112,0.0052,0.3384
18:23:41:428,-9.522,-7.4441,2.8631,31.1804,-0.1088,0.0514,-0.0906,0.3394
18:23:41:448,-9.708,-7.791,1.874,30.6301,-0.1152,0.095,-0.1523,0.3385
18:23:41:470,-8.909,-6.105,1.9391,30.2635,-0.1877,0.1046,-0.2643,0.3375
18:23:41:490,-8.904,-4.154,2.3861,31.0557,-0.2537,0.0972,-0.1929,0.3364
18:23:41:507,-9.1481,-4.7171,3.306,30.1624,-0.1759,0.0236,0.0649,0.3347
18:23:41:528,-9.059,-6.62,2.7461,30.0976,0.0573,-0.0296,0.1022,0.3334
18:23:41:547,-8.952,-7.221,1.905,30.1159,0.2491,0.0972,-0.0799,0.3321
18:23:41:568,-9.141,-6.302,1.352,30.2641,0.2267,0.1973,-0.2206,0.331
18:23:41:590,-8.5421,-5.2631,1.718,30.0919,0.0414,0.0972,-0.1716,0.3305
18:23:41:607,-7.266,-4.422,1.9391,28.7981,-0.1462,-0.1873,-0.1353,0.3302
18:23:41:627,-6.146,-3.6971,1.709,29.4983,-0.2537,-0.4471,-0.1684,0.329
18:23:41:647,-5.439,-3.026,1.3691,28.5697,-0.2355,-0.4366,-0.2227,0.3263
18:23:41:668,-4.989,-2.433,1.2971,28.576,-0.1419,-0.166,-0.2322,0.3225
18:23:41:689,-4.7021,-2.543,2.0749,27.8407,0.034,0.1621,-0.2535,0.3198
18:23:41:709,-5.109,-2.847,2.513,28.3016,0.2853,0.2837,-0.3484,0.3178
18:23:41:727,-5.825,-2.493,2.0561,27.8257,0.4516,0.1717,-0.4198,0.3167
18:23:41:748,-6.3521,-2.153,0.861,27.8328,0.4078,-0.0082,-0.4005,0.3164
18:23:41:768,-6.701,-2.162,0.359,28.2725,0.2247,-0.0562,-0.3345,0.3162
18:23:41:790,-7.0601,-2.7581,0.888,28.2442,0.1596,0.1334,-0.2856,0.3156
18:23:41:807,-7.841,-3.369,1.7831,27.3379,0.3131,0.3389,-0.3004,0.315
18:23:41:828,-8.894,-3.8621,1.197,27.3164,0.3726,0.3135,-0.2771,0.315
18:23:41:847,-9.8351,-4.7981,0.308,28.2273,0.036,0.143,-0.1694,0.3168
18:23:41:867,-10.424,-5.94,0.821,27.2435,-0.5189,-0.0785,-0.0587,0.319
18:23:41:892,-10.434,-6.819,2.3981,26.977,-0.8939,-0.2927,-0.0289,0.3203
18:23:41:912,-9.936,-6.68,3.912,28.1672,-0.9269,-0.5057,-0.1182,0.3193
18:23:41:929,-10.0151,-5.952,4.352,26.4523,-0.7287,-0.7146,-0.2109,0.3156
18:23:41:947,-10.199,-5.969,3.749,27.4144,-0.4624,-0.7806,-0.2142,0.3098
18:23:41:967,-9.83,-5.883,2.865,27.197,-0.2622,-0.7028,-0.2685,0.3027
18:23:41:990,-9.929,-5.2511,2.346,27.0435,-0.0737,-0.4451,-0.3367,0.2954
18:23:42:007,-10.647,-5.2961,2.0081,27.0154,0.1426,0.0131,-0.2558,0.2885
18:23:42:028,-11.468,-6.323,2.142,26.7348,0.2597,0.4892,-0.0821,0.2833
18:23:42:047,-11.918,-7.559,2.705,26.7992,0.2321,0.7576,0.115,0.2812
18:23:42:067,-10.9841,-7.868,3.7781,26.6485,0.132,0.6672,0.2247,0.2824
18:23:42:089,-9.723,-7.271,4.4741,26.6052,0.0925,0.3007,0.2226,0.286
18:23:42:108,-8.2361,-6.603,4.338,27.1867,0.1713,-0.1211,0.1789,0.2903
18:23:42:130,-6.72,-5.564,3.414,27.2166,0.3684,-0.3343,0.0393,0.2935
18:23:42:147,-5.925,-4.2641,2.322,28.183,0.6219,-0.2564,-0.113,0.2948
18:23:42:167,-5.712,-2.892,1.355,28.2977,0.8361,-0.0082,-0.1992,0.2946
18:23:42:191,-6.036,-1.856,0.725,27.3952,0.8999,0.2505,-0.1343,0.2952
18:23:42:207,-6.2771,-1.6691,0.5141,29.1849,0.8201,0.3699,0.0606,0.2976
18:23:42:227,-6.0281,-2.076,0.651,29.1628,0.6592,0.3497,0.2524,0.302
18:23:42:247,-5.609,-2.751,1.077,28.9575,0.5283,0.2729,0.3472,0.3076
18:23:42:267,-5.612,-3.599,1.448,29.1026,0.5005,0.2496,0.3418,0.3134
18:23:42:289,-6.057,-4.377,1.319,28.9349,0.5527,0.3198,0.2897,0.3191
18:23:42:309,-6.7301,-5.057,0.912,28.9649,0.5335,0.4147,0.2406,0.3246
18:23:42:328,-7.379,-5.402,0.737,28.1554,0.4036,0.4583,0.2109,0.3304
18:23:42:350,-8.267,-6.345,0.734,28.08,0.1884,0.5052,0.2397,0.3362
18:23:42:367,-8.969,-7.6931,1.2971,28.9053,-0.0407,0.5265,0.2556,0.3419
18:23:42:389,-9.376,-8.9351,1.8,29.4702,-0.1844,0.5244,0.164,0.3469
18:23:42:407,-9.347,-8.892,2.643,28.7345,-0.2409,0.4487,-0.0448,0.351
18:23:42:428,-9.62,-7.377,2.6231,28.0734,-0.1929,0.2463,-0.2163,0.3536
18:23:42:447,-10.0391,-6.302,1.467,28.2437,-0.2558,0.0546,-0.2003,0.3544
18:23:42:467,-10.0991,-5.9471,0.4301,28.1575,-0.5925,-0.1202,-0.081,0.3539
18:23:42:490,-9.2411,-4.9511,1.2131,27.7168,-0.9823,-0.2725,0.0117,0.3527
18:23:42:508,-9.105,-4.832,2.544,28.0936,-1.0942,-0.3332,0.1416,0.3503
18:23:42:526,-8.763,-6.177,3.756,28.9854,-0.8651,-0.3598,0.2173,0.3472
18:23:42:546,-8.406,-7.5251,3.354,27.992,-0.4177,-0.249,0.0373,0.3432
18:23:42:569,-8.9471,-7.295,2.7311,27.9649,-0.0598,0.0407,-0.2515,0.339
18:23:42:588,-10.0241,-6.342,2.736,27.3672,0.0616,0.1185,-0.2865,0.3354
18:23:42:607,-9.273,-5.651,2.454,27.3666,-0.0001,-0.1361,-0.1429,0.3327
18:23:42:628,-7.496,-4.6691,1.829,27.4275,-0.1823,-0.5515,-0.1045,0.3304
18:23:42:648,-6.2651,-3.2441,1.412,26.7607,-0.3315,-0.8499,-0.1353,0.3273
18:23:42:667,-5.456,-1.961,1.1651,28.0252,-0.3475,-0.8712,-0.1023,0.3237
18:23:42:691,-4.8911,-1.442,0.995,27.6027,-0.2122,-0.6091,-0.015,0.3196
18:23:42:708,-4.35,-1.683,0.95,26.4269,-0.014,-0.2384,0.018,0.3158
18:23:42:728,-4.3211,-2.1311,1.062,26.3968,0.1682,0.0142,-0.0747,0.3136
18:23:42:748,-4.719,-2.268,1.029,26.3968,0.3162,0.1686,-0.1972,0.3133
18:23:42:768,-5.495,-2.378,0.78,26.3864,0.3972,0.3187,-0.2621,0.3137
18:23:42:790,-6.5291,-3.0551,0.8111,25.5247,0.3737,0.4605,-0.2791,0.3148
18:23:42:806,-7.719,-4.054,1.2281,26.1726,0.2896,0.5521,-0.2856,0.3165
18:23:42:826,-8.7,-4.7981,1.9721,26.1741,0.2193,0.5637,-0.2951,0.319
18:23:42:848,-9.593,-5.303,2.288,26.071,0.1682,0.4605,-0.2813,0.3222
18:23:42:868,-10.218,-5.907,2.36,26.0531,-0.0001,0.241,-0.2163,0.3257
18:23:42:890,-10.5131,-6.453,2.861,25.5976,-0.2313,-0.0978,-0.1386,0.3286
18:23:42:909,-10.2251,-6.86,3.2771,25.6446,-0.3825,-0.4898,-0.1375,0.33
18:23:42:927,-10.029,-6.1271,3.3011,26.6089,-0.4348,-0.788,-0.2313,0.3281
18:23:42:947,-10.8341,-5.9981,2.9111,25.3399,-0.4188,-0.8584,-0.2046,0.3231
18:23:42:967,-10.91,-6.465,3.014,26.3855,-0.3262,-0.7646,-0.0938,0.3168
18:23:42:992,-9.8831,-6.0071,2.7341,25.9315,-0.0843,-0.6219,-0.1258,0.3099
18:23:43:017,-10.106,-5.4611,2.054,25.906,0.2043,-0.2256,-0.1609,0.3033
18:23:43:027,-11.102,-5.813,1.752,25.4517,0.4047,0.3124,-0.0043,0.2981
18:23:43:048,-11.7191,-7.8011,1.836,26.3369,0.3268,0.6436,0.2428,0.2956
18:23:43:067,-10.7861,-9.168,3.026,25.3655,0.1213,0.632,0.3196,0.2967
18:23:43:088,-9.2411,-8.6861,3.852,25.9862,0.034,0.3389,0.164,0.3004
18:23:43:107,-7.661,-6.893,3.924,25.9699,0.0914,0.0364,-0.0406,0.3046
18:23:43:129,-6.7061,-5.093,3.3941,26.9743,0.2833,-0.135,-0.1961,0.3078
18:23:43:148,-6.086,-3.6971,2.4341,25.921,0.5314,-0.0881,-0.2558,0.3089
18:23:43:167,-5.6,-2.696,1.659,25.8932,0.8393,0.2794,-0.2419,0.309
18:23:43:187,-5.5691,-1.997,1.067,26.6321,1.1248,0.7385,-0.1523,0.31
18:23:43:209,-5.588,-1.9061,0.543,26.4335,1.161,0.9461,0.0276,0.3137
18:23:43:229,-5.475,-2.2151,0.5861,26.8092,0.9618,0.8781,0.1896,0.3209
18:23:43:248,-5.346,-2.993,0.768,25.7317,0.72,0.6842,0.3003,0.3313
18:23:43:268,-5.442,-4.1951,1.1921,26.5823,0.5687,0.568,0.3207,0.3418
18:23:43:290,-6.038,-5.148,1.668,27.2772,0.5463,0.5287,0.2152,0.3512
18:23:43:307,-7.178,-5.399,1.6391,27.0719,0.5357,0.3721,0.1363,0.3596
18:23:43:328,-7.6541,-5.253,0.699,27.0075,0.3268,0.1015,0.2013,0.3666
18:23:43:347,-7.779,-5.964,0.306,26.9966,-0.0534,-0.0892,0.3014,0.3719
18:23:43:368,-8.415,-7.355,0.708,26.4134,-0.3528,-0.1435,0.3079,0.3757
18:23:43:389,-9.0401,-8.684,1.395,27.0046,-0.4273,-0.021,0.2449,0.3776
18:23:43:408,-8.8181,-8.861,2.087,26.4495,-0.3421,0.0716,0.0564,0.3781
18:23:43:428,-8.688,-7.41,1.6751,26.4235,-0.2707,-0.0285,-0.1642,0.3777
18:23:43:448,-9.591,-6.431,0.699,26.3715,-0.3538,-0.0785,-0.1972,0.3764
18:23:43:468,-10.266,-6.515,0.059,27.9541,-0.6766,-0.1169,-0.0576,0.3745
18:23:43:490,-9.644,-5.9471,1.062,27.128,-1.107,-0.2555,0.0905,0.3722
18:23:43:509,-8.976,-6.218,2.861,26.5717,-1.3189,-0.3726,0.213,0.3691
18:23:43:528,-8.5181,-7.271,4.838,27.4358,-1.0473,-0.4045,0.1906,0.365
18:23:43:548,-8.499,-7.9661,4.8881,26.6169,-0.3059,-0.282,-0.0736,0.3602
18:23:43:567,-9.692,-7.238,2.963,26.6235,0.3237,0.0386,-0.3058,0.3556
18:23:43:588,-10.496,-6.2921,1.6061,25.6533,0.4067,0.2101,-0.243,0.3523
18:23:43:608,-9.759,-5.4161,1.386,26.6239,0.0968,-0.0125,-0.0331,0.3508
18:23:43:629,-7.9841,-4.482,1.5821,27.2415,-0.3197,-0.5324,0.0947,0.3503
18:23:43:647,-6.3251,-3.632,1.802,26.1003,-0.5467,-0.9435,0.0947,0.3501
18:23:43:669,-5.253,-2.823,1.841,26.6132,-0.4348,-0.9861,0.0202,0.3474
18:23:43:691,-4.518,-2.265,1.503,25.5511,-0.1141,-0.7081,-0.0619,0.342
18:23:43:708,-4.2229,-2.064,0.675,25.5261,0.2097,-0.2959,-0.1407,0.336
18:23:43:728,-4.163,-2.133,-0.0641,25.4867,0.4036,0.1643,-0.2206,0.3316
18:23:43:747,-4.5319,-2.363,0.105,26.9303,0.4217,0.4946,-0.3112,0.3296
18:23:43:768,-5.471,-2.7221,0.861,26.0026,0.4206,0.6425,-0.3612,0.3298
18:23:43:792,-6.5861,-3.333,0.998,25.9225,0.4089,0.6757,-0.3548,0.3315
18:23:43:808,-7.4651,-4.087,1.259,25.6957,0.2597,0.6331,-0.3271,0.3343
18:23:43:827,-8.3441,-4.566,2.015,25.8077,0.1565,0.5105,-0.3271,0.3376
18:23:43:848,-9.318,-5.1431,2.1371,25.997,0.1458,0.3741,-0.2813,0.3413
18:23:43:868,-9.636,-5.9861,1.7981,25.8116,0.0137,0.2218,-0.2302,0.3457
18:23:43:890,-10.0871,-6.5771,2.238,25.9738,-0.2025,0.0759,-0.2643,0.3497
18:23:43:907,-10.7351,-6.4961,3.1811,25.9223,-0.2932,-0.133,-0.2941,0.3512
18:23:43:928,-11.288,-5.9,3.411,26.9071,-0.2494,-0.396,-0.2621,0.3501
18:23:43:948,-11.748,-5.7341,2.93,26.8843,-0.2355,-0.5824,-0.098,0.3476
18:23:43:967,-11.018,-5.888,2.607,26.8016,-0.2185,-0.6942,0.0649,0.3443
18:23:43:990,-9.981,-5.552,2.2481,26.6859,-0.1141,-0.6837,0.0714,0.3401
18:23:44:009,-10.2371,-5.624,1.541,26.6064,0.0755,-0.4184,0.0649,0.3355
18:23:44:027,-11.0561,-6.414,0.9401,26.5922,0.2321,0.1089,0.1576,0.3314
18:23:44:047,-11.882,-7.877,1.419,26.413,0.2364,0.6885,0.3068,0.329
18:23:44:068,-11.583,-8.6411,3.0521,27.3269,0.1617,0.9153,0.4506,0.33
18:23:44:092,-9.9551,-8.222,4.448,27.4663,0.1372,0.5787,0.4591,0.3343
18:23:44:109,-7.898,-7.0181,4.275,27.6057,0.1745,-0.0392,0.3514,0.3403
18:23:44:128,-6.2771,-5.5811,3.227,27.6177,0.2662,-0.4514,0.1661,0.3457
18:23:44:148,-5.3561,-4.166,2.171,27.6021,0.5101,-0.5142,0.0032,0.3485
18:23:44:168,-5.001,-3.108,0.842,27.6901,0.7817,-0.2512,-0.0969,0.348
18:23:44:187,-5.2241,-2.138,-0.038,28.3192,0.9149,0.176,-0.0852,0.3462
18:23:44:208,-5.511,-1.8221,-0.189,28.4911,0.8489,0.4316,0.0681,0.3473
18:23:44:228,-5.5331,-2.153,0.023,28.3948,0.6677,0.4594,0.2503,0.3515
18:23:44:248,-5.456,-3.1631,0.476,28.5396,0.426,0.404,0.3664,0.358
18:23:44:268,-5.504,-4.212,1.326,27.969,0.2842,0.3784,0.3622,0.3647
18:23:44:291,-5.66,-4.9751,2.3171,27.8359,0.3589,0.4338,0.2684,0.371
18:23:44:308,-6.0281,-5.2511,2.355,27.346,0.5431,0.4487,0.1363,0.3769
18:23:44:329,-6.665,-5.2241,1.5941,27.2972,0.5996,0.4466,0.0458,0.3827
18:23:44:348,-7.5971,-5.67,0.96,27.3205,0.4527,0.4327,0.0308,0.3883
18:23:44:368,-8.741,-6.735,0.672,27.5358,0.1778,0.3773,0.0703,0.3934
18:23:44:388,-9.5261,-8.313,0.749,26.6002,-0.1376,0.3773,0.0894,0.3978
18:23:44:409,-9.428,-8.852,1.841,27.3453,-0.3836,0.307,-0.0246,0.4015
18:23:44:429,-9.0551,-7.719,2.544,26.6018,-0.4635,0.0258,-0.2024,0.4042
18:23:44:448,-9.4331,-6.915,1.707,26.4395,-0.4572,-0.1691,-0.2706,0.405
18:23:44:467,-10.319,-7.362,0.464,25.6351,-0.617,-0.1723,-0.2398,0.4035
18:23:44:487,-9.924,-7.271,0.5051,26.2757,-1.0047,-0.1787,-0.2206,0.4004
18:23:44:506,-8.705,-5.8421,1.934,26.2791,-1.3146,-0.2661,-0.2973,0.3965
18:23:44:528,-8.925,-5.1791,3.873,25.4345,-1.3445,-0.3449,-0.2663,0.3911
18:23:44:548,-9.51,-6.333,5.427,25.9589,-0.8342,-0.4344,-0.1716,0.3837
18:23:44:567,-9.7991,-6.951,4.218,25.2393,-0.0172,-0.378,-0.2131,0.3757
18:23:44:589,-10.041,-6.354,1.515,24.3678,0.3748,-0.1543,-0.2535,0.3683
18:23:44:607,-10.1441,-5.478,0.6221,24.3335,0.183,-0.0327,-0.096,0.3626
18:23:44:627,-8.8421,-4.901,1.379,24.2307,-0.1621,-0.2032,0.1288,0.3598
18:23:44:648,-7.029,-4.281,2.1161,23.3651,-0.3102,-0.4909,0.1939,0.3587
18:23:44:668,-5.717,-3.503,2.135,24.0812,-0.2441,-0.6634,0.149,0.3573
18:23:44:688,-4.898,-2.7941,1.7981,23.4637,-0.0652,-0.6762,0.0723,0.3543
18:23:44:707,-4.2731,-2.526,1.086,23.3492,0.181,-0.4557,-0.0139,0.3504
18:23:44:727,-4.199,-2.5241,0.1961,22.4111,0.3706,-0.0412,-0.1588,0.3467
18:23:44:748,-4.985,-2.634,0.308,21.7711,0.4664,0.3454,-0.2834,0.3442
18:23:44:769,-6.2081,-2.39,0.507,21.7866,0.5005,0.5137,-0.3015,0.3436
18:23:44:791,-7.1471,-2.5331,0.581,22.625,0.4228,0.5159,-0.131,0.3446
18:23:44:808,-7.482,-3.417,0.713,22.4843,0.2193,0.3571,0.0223,0.347
18:23:44:827,-7.932,-4.106,1.086,22.6131,0.0351,0.1473,0.0862,0.35
18:23:44:847,-7.9151,-4.35,1.079,22.6131,-0.1078,-0.0424,0.0862,0.3532
18:23:44:868,-8.2691,-4.635,1.175,23.3803,-0.2558,-0.135,0.0447,0.3564
18:23:44:888,-8.858,-5.567,1.5221,22.5977,-0.358,-0.135,0.0128,0.3588
18:23:44:908,-9.409,-6.465,1.848,22.5617,-0.3964,-0.0679,-0.0672,0.3599
18:23:44:929,-10.0721,-6.7181,2.513,22.5278,-0.4709,-0.1063,-0.228,0.3593
18:23:44:948,-10.92,-5.7251,3.509,23.2004,-0.4987,-0.3417,-0.309,0.3569
18:23:44:967,-11.456,-5.5361,3.512,22.3824,-0.3986,-0.5387,-0.1438,0.3533
18:23:44:990,-10.173,-6.498,2.513,23.2173,-0.2526,-0.6006,-0.0906,0.3488
18:23:45:032,-10.7741,-6.132,2.114,22.3629,-0.0896,-0.2842,-0.1981,0.3441
18:23:45:033,-12.1001,-6.3521,2.4101,22.2558,0.0968,0.2218,-0.0736,0.3391
18:23:45:047,-12.627,-7.451,2.877,22.9984,0.2043,0.6425,0.1991,0.3343
18:23:45:067,-11.616,-7.8941,3.998,23.1629,0.2023,0.6799,0.4069,0.3312
18:23:45:087,-9.962,-7.619,4.587,23.5219,0.2375,0.3422,0.4623,0.3313
18:23:45:109,-8.0111,-6.9581,4.218,24.03,0.3376,-0.1287,0.3674,0.3345
18:23:45:128,-6.759,-5.6651,3.1481,24.2988,0.5538,-0.4301,0.1448,0.3392
18:23:45:148,-6.033,-4.3001,1.379,24.2733,0.7893,-0.4557,-0.0395,0.3436
18:23:45:169,-5.9591,-2.868,-0.0671,24.4624,0.8669,-0.2171,-0.1194,0.3454
18:23:45:188,-6.2681,-1.662,-0.7661,24.4402,0.7828,0.1248,0.0106,0.345
18:23:45:208,-6.177,-1.5521,-0.56,25.209,0.5505,0.3497,0.278,0.3451
18:23:45:230,-5.703,-2.279,0.387,25.4572,0.3055,0.3688,0.4771,0.347
18:23:45:248,-5.169,-3.0071,1.4981,25.3915,0.1948,0.2964,0.5283,0.3512
18:23:45:268,-4.949,-3.2471,2.1641,24.7776,0.2705,0.2282,0.4921,0.3571
18:23:45:292,-5.016,-3.57,1.9121,25.4111,0.41,0.1995,0.4548,0.363
18:23:45:308,-5.1761,-4.104,1.28,25.2689,0.4484,0.2666,0.41,0.3686
18:23:45:330,-5.72,-4.877,1.034,25.5191,0.3833,0.3816,0.3503,0.3739
18:23:45:348,-6.486,-6.1271,1.046,24.931,0.2842,0.5446,0.2855,0.3792
18:23:45:368,-7.202,-7.5281,1.199,25.2321,0.1682,0.7246,0.1587,0.3846
18:23:45:387,-8.241,-8.768,1.407,24.8299,-0.0012,0.8077,-0.0715,0.3902
18:23:45:409,-9.308,-9.2231,2.09,24.2455,-0.242,0.6735,-0.3186,0.3951
18:23:45:430,-9.519,-8.028,2.798,24.6611,-0.4114,0.2601,-0.521,0.3992
18:23:45:448,-9.773,-6.4691,2.37,24.823,-0.4401,-0.1169,-0.5699,0.4019
18:23:45:468,-10.671,-6.5051,0.873,24.6757,-0.5178,-0.2447,-0.455,0.4021
18:23:45:489,-10.776,-7.542,0.0761,25.304,-0.831,-0.1671,-0.3132,0.3992
18:23:45:508,-9.083,-5.955,2.078,25.1697,-1.1048,-0.1458,-0.3612,0.3948
18:23:45:528,-9.0431,-4.841,4.146,25.1231,-0.9163,-0.1393,-0.3559,0.3901
18:23:45:548,-9.914,-5.8061,5.298,24.9913,-0.2813,-0.1254,-0.2515,0.3849
18:23:45:568,-10.5251,-6.666,3.114,24.9614,0.3823,-0.1063,-0.2461,0.3791
18:23:45:589,-11.267,-6.524,0.792,24.9272,0.4643,0.0151,-0.1972,0.3738
18:23:45:608,-11.169,-6.065,0.378,24.2821,0.0648,-0.021,0.0245,0.3697
18:23:45:628,-9.8591,-5.2721,1.551,24.9261,-0.3134,-0.2948,0.2375,0.3677
18:23:45:648,-7.97,-4.248,2.094,24.9409,-0.4774,-0.672,0.3546,0.3671
18:23:45:668,-6.4331,-3.242,2.082,24.9442,-0.488,-0.9446,0.3898,0.3668
18:23:45:689,-5.3171,-2.6531,1.6511,24.0082,-0.3176,-0.9947,0.3877,0.3654
18:23:45:708,-4.5611,-2.2961,0.9311,24.1163,-0.0619,-0.7976,0.3333,0.3624
18:23:45:728,-4.1711,-2.057,0.107,24.3872,0.1565,-0.4599,0.2684,0.3581
18:23:45:748,-4.07,-2.019,-0.5741,24.3401,0.2023,-0.0807,0.1831,0.3544
18:23:45:768,-4.6421,-2.081,-0.3011,24.332,0.0499,0.1239,0.1107,0.3526
18:23:45:788,-5.322,-2.217,0.512,24.3238,-0.1408,0.1174,0.114,0.3525
18:23:45:808,-6.074,-2.8181,1.17,24.3583,-0.2707,0.0258,0.1257,0.3532
18:23:45:827,-6.905,-3.75,1.4,24.3438,-0.3783,-0.0892,0.1086,0.3542
18:23:45:848,-7.4,-4.523,1.343,23.5547,-0.5178,-0.2138,0.0905,0.355
18:23:45:868,-7.743,-5.5601,1.4411,24.3274,-0.7171,-0.3076,0.049,0.3551
18:23:45:888,-7.9871,-6.596,1.977,24.3093,-0.8299,-0.346,-0.1045,0.3542
18:23:45:909,-8.676,-6.8141,2.4101,23.5639,-0.8194,-0.3278,-0.3686,0.3518
18:23:45:928,-9.6821,-6.299,2.75,23.4867,-0.7991,-0.2874,-0.5167,0.3476
18:23:45:948,-10.091,-5.7971,3.402,24.2172,-0.7958,-0.3119,-0.5114,0.3417
18:23:45:969,-10.281,-5.1761,4.163,24.0919,-0.6841,-0.4216,-0.4485,0.3347
18:23:45:991,-10.889,-5.763,3.7421,23.948,-0.4615,-0.4642,-0.3239,0.3272
18:23:46:009,-10.814,-6.453,3.2771,23.2909,-0.3059,-0.4119,-0.2845,0.3196
18:23:46:029,-11.463,-6.455,2.645,23.2679,-0.1141,-0.1808,-0.2791,0.3122
18:23:46:047,-12.6221,-7.281,2.477,23.2564,-0.0066,0.2516,-0.1045,0.3055
18:23:46:069,-12.84,-8.251,2.961,23.2564,-0.0428,0.5265,0.1331,0.2998
18:23:46:091,-11.279,-8.873,3.8471,23.2193,-0.2441,0.4753,0.2865,0.2962
18:23:46:109,-9.428,-8.612,5.181,23.2093,-0.3325,0.1473,0.1746,0.2954
18:23:46:128,-7.932,-7.4081,5.6381,22.401,-0.0544,-0.1766,-0.096,0.2969
18:23:46:148,-7.257,-5.5001,4.419,23.2618,0.4408,-0.2618,-0.3601,0.2987
18:23:46:168,-6.7781,-3.582,2.99,22.9963,0.8627,-0.1393,-0.4678,0.2994
18:23:46:190,-6.771,-2.244,1.599,22.9671,1.1685,0.1376,-0.3911,0.2974
18:23:46:209,-6.723,-1.8941,0.3851,22.4312,1.2419,0.4275,-0.1546,0.2977
18:23:46:229,-6.0671,-2.114,-0.2051,23.8907,1.0385,0.4946,0.0788,0.3006
18:23:46:249,-5.169,-2.399,-0.153,23.0551,0.7179,0.4327,0.2109,0.306
18:23:46:269,-4.635,-2.825,0.2801,22.9622,0.4462,0.3795,0.2524,0.3125
18:23:46:288,-4.724,-3.522,0.926,23.1758,0.3279,0.3986,0.2194,0.319
18:23:46:311,-5.222,-4.145,1.41,22.3892,0.2907,0.4455,0.1448,0.3249
18:23:46:329,-6.0521,-4.5161,2.013,22.7733,0.3279,0.5191,0.082,0.3304
18:23:46:347,-6.83,-4.841,2.2811,21.9822,0.4621,0.6468,0.1075,0.3357
18:23:46:367,-7.266,-5.174,2.054,22.2509,0.5559,0.698,0.1768,0.3412
18:23:46:389,-7.8941,-6.266,1.158,21.8178,0.4462,0.6703,0.2482,0.3465
18:23:46:407,-8.631,-7.8911,0.95,22.0502,0.1693,0.6852,0.2619,0.3518
18:23:46:427,-9.138,-9.206,1.493,21.5996,-0.1024,0.6672,0.1097,0.3573
18:23:46:447,-9.704,-8.576,2.892,20.932,-0.2207,0.5478,-0.1097,0.3622
18:23:46:467,-10.427,-7.214,3.203,20.7329,-0.1184,0.2687,-0.1418,0.3656
18:23:46:489,-10.913,-6.828,1.884,20.7043,-0.1343,-0.0392,0.0265,0.3674
18:23:46:509,-10.2731,-6.912,0.837,20.521,-0.4188,-0.265,0.1874,0.3683
18:23:46:530,-9.2561,-5.981,1.4741,20.5,-0.6852,-0.3576,0.261,0.3682
18:23:46:547,-8.636,-6.017,2.726,21.1766,-0.7256,-0.4258,0.3717,0.367
18:23:46:568,-7.8941,-7.113,3.143,20.2916,-0.472,-0.4833,0.3185,0.3649
18:23:46:588,-8.289,-7.662,2.2331,20.2924,-0.0236,-0.2405,0.017,0.3623
18:23:46:608,-9.735,-6.852,1.446,20.1772,0.3035,0.128,-0.1992,0.3598
18:23:46:628,-10.632,-5.741,1.2851,20.933,0.3578,0.2186,-0.1055,0.3583
18:23:46:647,-9.543,-4.937,1.125,20.1819,0.1926,-0.0659,0.1214,0.3581
18:23:46:668,-7.427,-4.2281,0.782,21.0359,-0.0993,-0.5153,0.1959,0.3587
18:23:46:689,-5.964,-3.038,0.677,20.9481,-0.2441,-0.7732,0.1715,0.3596
18:23:46:708,-5.2601,-2.251,0.4061,20.8822,-0.1812,-0.7763,0.1448,0.3593
18:23:46:727,-4.7021,-1.904,-0.0401,21.7766,-0.0939,-0.5952,0.1437,0.3582
18:23:46:748,-4.2229,-1.971,-0.11,21.8092,-0.0459,-0.3246,0.1097,0.3567
18:23:46:767,-4.295,-2.258,0.476,21.8219,0.0308,-0.0839,-0.0076,0.3556
18:23:46:788,-5.265,-2.375,0.615,21.8219,0.1585,0.0642,-0.1055,0.355
18:23:46:810,-6.0641,-2.792,0.2801,21.7667,0.1255,0.159,-0.1002,0.3547
18:23:46:829,-6.756,-3.7331,0.639,22.4879,-0.0055,0.2377,-0.0949,0.3548
18:23:46:848,-7.527,-4.836,1.211,21.7667,-0.0747,0.3315,-0.1204,0.3553
18:23:46:867,-8.135,-5.33,1.932,22.477,-0.0417,0.4082,-0.177,0.3561
18:23:46:887,-8.547,-5.4131,2.087,23.1562,0.0468,0.4114,-0.2163,0.3568
18:23:46:909,-8.777,-5.7941,1.929,23.0864,0.0265,0.2911,-0.2782,0.3577
18:23:46:927,-9.198,-6.141,1.9631,23.1135,-0.0822,0.0813,-0.3718,0.3582
18:23:46:947,-10.1231,-6.338,1.9001,22.5403,-0.1994,-0.1925,-0.4741,0.3565
18:23:46:970,-11.0591,-5.8091,1.697,23.3779,-0.3964,-0.51,-0.4795,0.3532
18:23:46:987,-11.87,-5.883,1.5941,23.892,-0.6394,-0.7646,-0.309,0.3499
18:23:47:007,-11.3051,-6.587,1.8911,24.3193,-0.8151,-0.8849,-0.1438,0.3459
18:23:47:043,-10.3331,-6.2231,2.621,25.4712,-0.7991,-0.9393,-0.1918,0.3409
18:23:47:047,-10.46,-5.358,2.324,25.5367,-0.5562,-0.788,-0.2365,0.3341
18:23:47:067,-11.3321,-5.433,2.1881,25.4246,-0.3123,-0.3385,-0.1012,0.326
18:23:47:087,-11.954,-6.9221,2.499,26.0582,-0.0939,0.1504,0.1565,0.3187
18:23:47:109,-11.2091,-8.468,3.1601,26.0606,0.0371,0.4753,0.3025,0.3142
18:23:47:127,-9.773,-8.921,4.125,26.0621,0.1224,0.3816,0.1831,0.3132
18:23:47:146,-8.0711,-7.487,4.101,26.7189,0.2342,-0.0232,-0.0884,0.3148
18:23:47:167,-7.044,-5.354,3.1691,26.718,0.4153,-0.3161,-0.3121,0.3166
18:23:47:190,-6.708,-3.833,1.821,27.2609,0.6167,-0.3641,-0.3963,0.3167
18:23:47:209,-6.5171,-2.622,0.3941,28.1132,0.7338,-0.15,-0.3655,0.3155
18:23:47:228,-6.5861,-1.808,-0.368,28.7725,0.7307,0.2399,-0.2313,0.3144
18:23:47:247,-6.476,-1.542,-0.0431,28.7803,0.5783,0.4796,-0.0118,0.3159
18:23:47:266,-5.997,-1.839,0.797,28.726,0.4388,0.4594,0.1863,0.3203
18:23:47:287,-5.5181,-2.4491,1.211,28.7913,0.3706,0.3539,0.2812,0.3269
18:23:47:309,-5.5691,-3.101,1.4261,30.2736,0.3737,0.3028,0.2971,0.3334
18:23:47:327,-5.9711,-3.9221,1.283,30.1938,0.3982,0.3432,0.2918,0.3392
18:23:47:347,-6.479,-4.5731,1.448,30.2349,0.393,0.4136,0.2619,0.3447
18:23:47:367,-6.984,-4.923,1.589,30.979,0.3982,0.452,0.2449,0.3502
18:23:47:387,-7.149,-5.267,1.2731,30.2307,0.3333,0.4316,0.2567,0.3558
18:23:47:409,-7.826,-6.4001,0.9791,30.9528,0.1437,0.4327,0.2439,0.3612
18:23:47:427,-8.837,-7.7861,1.22,31.5663,-0.0417,0.5339,0.2109,0.3659
18:23:47:447,-9.756,-8.7559,1.9841,31.5178,-0.1471,0.6245,0.1352,0.3701
18:23:47:474,-9.438,-8.334,2.868,31.4239,-0.1886,0.4647,0.0425,0.374
18:23:47:486,-9.033,-7.094,2.949,30.6074,-0.161,0.1334,-0.0597,0.3772
18:23:47:507,-9.641,-6.74,1.319,31.412,-0.1631,-0.0796,-0.0725,0.3793
18:23:47:526,-10.5131,-7.08,-0.081,31.3983,-0.4518,-0.1169,-0.0011,0.3797
18:23:47:546,-9.972,-6.3401,0.222,31.3682,-0.9344,-0.1478,0.1182,0.3791
18:23:47:566,-9.05,-5.469,2.442,31.3265,-1.239,-0.2544,0.2204,0.3776
18:23:47:585,-8.7221,-5.775,4.407,31.3036,-1.0985,-0.4205,0.2971,0.375
18:23:47:606,-8.6569,-7.001,4.604,31.5317,-0.5147,-0.4557,0.2024,0.3714
18:23:47:628,-9.3491,-7.2401,3.026,32.1673,0.0861,-0.2586,-0.0406,0.3675
18:23:47:646,-10.19,-6.2921,1.388,31.5107,0.296,-0.0754,-0.1012,0.3642
18:23:47:667,-9.7661,-5.054,0.902,31.5107,0.1224,-0.0434,0.082,0.362
18:23:47:688,-8.073,-4.518,1.472,31.5974,-0.1567,-0.2575,0.2684,0.361
18:23:47:709,-6.287,-4.176,1.898,32.5519,-0.3282,-0.5665,0.279,0.3608
18:23:47:726,-5.1521,-3.699,1.9721,31.9434,-0.2676,-0.6826,0.1789,0.3592
18:23:47:746,-4.338,-3.24,1.821,31.9138,-0.0652,-0.5899,0.034,0.3559
18:23:47:767,-4.214,-2.715,1.5821,32.3831,0.1787,-0.3235,-0.1055,0.3516
18:23:47:787,-4.4651,-2.2721,1.3331,32.381,0.3854,-0.0264,-0.1514,0.3475
18:23:47:809,-4.743,-2.196,1.323,32.4873,0.5079,0.2038,-0.1642,0.3446
18:23:47:827,-5.475,-2.2631,1.2131,32.6138,0.5772,0.2709,-0.1673,0.3436
18:23:47:850,-6.3041,-2.538,0.4661,32.5823,0.4909,0.2218,-0.1034,0.3443
18:23:47:867,-6.7781,-3.4691,0.213,31.6838,0.2034,0.1484,-0.0203,0.3459
18:23:47:887,-7.235,-4.5131,1.086,32.6993,-0.0246,0.0918,-0.0608,0.3478
18:23:47:908,-8.198,-4.9391,1.9871,32.7072,0.0436,0.1089,-0.1727,0.3492
18:23:47:927,-9.237,-5.555,1.187,33.2755,0.1244,0.11,-0.1981,0.3489
18:23:47:948,-9.483,-6.311,0.758,33.2828,-0.0747,0.0727,-0.2398,0.3489
18:23:47:967,-9.83,-6.479,1.079,33.6038,-0.356,-0.0477,-0.3761,0.349
18:23:47:987,-10.383,-5.8061,1.9991,33.5538,-0.5743,-0.2394,-0.4559,0.3481
18:23:48:008,-10.7741,-4.949,2.4821,33.9595,-0.6095,-0.4269,-0.4252,0.3459
18:23:48:029,-11.037,-4.616,2.406,32.8538,-0.5721,-0.5046,-0.2813,0.3422
18:23:48:046,-10.7111,-4.7171,2.279,33.3096,-0.5627,-0.5207,-0.1364,0.3374
18:23:48:069,-10.731,-4.8341,2.5781,33.2025,-0.472,-0.4056,-0.0565,0.3318
18:23:48:087,-11.2211,-5.732,2.789,32.8182,-0.2463,-0.1084,0.0586,0.3263
18:23:48:106,-11.6261,-6.747,2.88,32.8182,0.0095,0.2815,0.1821,0.3218
18:23:48:127,-11.906,-7.76,2.937,34.4259,0.1053,0.6288,0.3281,0.3198
18:23:48:148,-11.2721,-8.4371,3.9521,32.9369,0.0158,0.6266,0.4643,0.3208
18:23:48:166,-9.9671,-8.583,4.977,33.0846,0.0393,0.2815,0.4558,0.3244
18:23:48:186,-8.222,-8.052,4.58,33.0845,0.2086,-0.1393,0.2918,0.3289
18:23:48:206,-6.912,-6.4691,3.449,33.0845,0.395,-0.3854,0.0478,0.3327
18:23:48:228,-6.0161,-5.0231,2.262,33.0845,0.5911,-0.3928,-0.131,0.3346
18:23:48:248,-5.523,-3.548,1.326,32.7746,0.7882,-0.1745,-0.2706,0.3339
18:23:48:268,-5.6501,-2.426,0.711,33.4217,0.9533,0.2208,-0.2749,0.332
18:23:48:290,-5.88,-1.892,0.624,33.4217,1.0406,0.5552,-0.1534,0.3325
18:23:48:310,-6.0401,-1.743,0.5621,33.6195,1.0033,0.634,0.0254,0.3362
18:23:48:328,-5.7341,-2.418,0.378,32.1685,0.8223,0.5244,0.2204,0.3426
18:23:48:347,-5.207,-3.489,0.545,33.3797,0.5283,0.3059,0.2747,0.3504
18:23:48:367,-5.0231,-4.2881,0.993,33.3797,0.3481,0.1995,0.2034,0.3575
18:23:48:386,-5.406,-4.7359,1.2371,32.9449,0.3396,0.2644,0.0799,0.3634
18:23:48:406,-6.0521,-4.779,1.376,32.9449,0.4004,0.4179,-0.0054,0.3682
18:23:48:425,-6.8141,-5.057,1.1201,31.946,0.4058,0.5328,0.0043,0.3725
18:23:48:447,-7.5611,-6.362,0.603,31.946,0.2256,0.5691,0.0287,0.377
18:23:48:467,-8.846,-7.8701,0.962,31.946,-0.0322,0.6501,-0.0235,0.3816
18:23:48:487,-9.857,-8.562,1.9481,31.946,-0.2025,0.6447,-0.0852,0.3854
18:23:48:512,-9.921,-7.985,2.772,31.946,-0.2952,0.3901,-0.1332,0.3879
18:23:48:528,-9.8471,-6.912,2.456,31.946,-0.3389,-0.0168,-0.1258,0.3889
18:23:48:547,-10.29,-6.642,1.1059,31.7181,-0.4795,-0.2799,-0.0502,0.3878
18:23:48:566,-10.7231,-6.9791,0.564,31.0869,-0.8044,-0.3992,0.0808,0.3851
